Condition,Low fixed image (Door1),Low risky image (Door2),High fixed image (Door3),High risky image (Door4),NonExtreme Wild Card 1,NonExtreme Wild Card 2,,date,expName,psychopyVersion,OS,frameRate,PROLIFIC_PID,STUDY_ID,SESSION_ID,mouse_2.x,mouse_2.y,mouse_2.leftButton,mouse_2.midButton,mouse_2.rightButton,mouse_2.clicked_name,Trial Type,Left Option Image,Right Option Image,Chosen Door,mouse.x,mouse.y,mouse.leftButton,mouse.midButton,mouse.rightButton,mouse.time,mouse.clicked_name,Feedback,Cumulative Reward,Block,trial.thisRepN,trial.thisTrialN,trial.thisN,trial.thisIndex,trial.ran,blocks.thisRepN,blocks.thisTrialN,blocks.thisN,blocks.thisIndex,blocks.ran,Money conversion,First Outcome Reported,Shown Door (First Outcome),Displayed Image (First Outcome),outcomes.thisRepN,outcomes.thisTrialN,outcomes.thisN,outcomes.thisIndex,outcomes.ran,judgments.thisRepN,judgments.thisTrialN,judgments.thisN,judgments.thisIndex,judgments.ran,freqMouse.x,freqMouse.y,freqMouse.leftButton,freqMouse.midButton,freqMouse.rightButton,freqMouse.clicked_name,trials.thisRepN,trials.thisTrialN,trials.thisN,trials.thisIndex,trials.ran,FQJ for first outcome,FQJ for second outcome,Shown Door,Displayed Image,judgBlock.thisRepN,judgBlock.thisTrialN,judgBlock.thisN,judgBlock.thisIndex,judgBlock.ran
2,resources/DR.BMP,resources/DBN.BMP,resources/DB.BMP,resources/DG.BMP,resources/DY.BMP,resources/DP.BMP,,2023-08-16_08h46.51.589,HF_wild_card,2022.2.4,Linux x86_64,60.0528465,60fefcd96595341f18a3a247,64d2fd46c836a06233681665,64dc7ee0daf0b543d8b5d475,,,,,,,,,,,,,,,,,,,,,,,,,,,,,,,,,,,,,,,,,,,,,,,,,,,,,,,,,,,,,,,,
,,,,,,,,2023-08-16_08h46.51.589,HF_wild_card,2022.2.4,Linux x86_64,60.0528465,60fefcd96595341f18a3a247,64d2fd46c836a06233681665,64dc7ee0daf0b543d8b5d475,-0.006481453,-0.409259302,1,0,0,agree,,,,,,,,,,,,,,,,,,,,,,,,,,,,,,,,,,,,,,,,,,,,,,,,,,,,,,,,,,
,,,,,,,,2023-08-16_08h46.51.589,HF_wild_card,2022.2.4,Linux x86_64,60.0528465,60fefcd96595341f18a3a247,64d2fd46c836a06233681665,64dc7ee0daf0b543d8b5d475,,,,,,,,,,,,,,,,,,,,,,,,,,,,,,,,,,,,,,,,,,,,,,,,,,,,,,,,,,,,,,,,
,,,,,,,,2023-08-16_08h46.51.589,HF_wild_card,2022.2.4,Linux x86_64,60.0528465,60fefcd96595341f18a3a247,64d2fd46c836a06233681665,64dc7ee0daf0b543d8b5d475,,,,,,,decisionTrl,resources/DBN.BMP,resources/DR.BMP,Door1,0.402777778,-0.074074074,1,0,0,1.2443,optionRight,30,30,1,0,0,0,0,1,,,,,,,,,,,,,,,,,,,,,,,,,,,,,,,,,,,,,,,
,,,,,,,,2023-08-16_08h46.51.589,HF_wild_card,2022.2.4,Linux x86_64,60.0528465,60fefcd96595341f18a3a247,64d2fd46c836a06233681665,64dc7ee0daf0b543d8b5d475,,,,,,,decisionTrl,resources/DG.BMP,resources/DB.BMP,Door4,-0.307407414,-0.12962963,1,0,0,0.6668,optionLeft,80,110,1,1,0,1,0,1,,,,,,,,,,,,,,,,,,,,,,,,,,,,,,,,,,,,,,,
,,,,,,,,2023-08-16_08h46.51.589,HF_wild_card,2022.2.4,Linux x86_64,60.0528465,60fefcd96595341f18a3a247,64d2fd46c836a06233681665,64dc7ee0daf0b543d8b5d475,,,,,,,decisionTrl,resources/DBN.BMP,resources/DR.BMP,Door2,-0.214814787,-0.054629644,1,0,0,0.5197,optionLeft,40,150,1,2,0,2,0,1,,,,,,,,,,,,,,,,,,,,,,,,,,,,,,,,,,,,,,,
,,,,,,,,2023-08-16_08h46.51.589,HF_wild_card,2022.2.4,Linux x86_64,60.0528465,60fefcd96595341f18a3a247,64d2fd46c836a06233681665,64dc7ee0daf0b543d8b5d475,,,,,,,decisionTrl,resources/DBN.BMP,resources/DP.BMP,Door2,-0.209259245,-0.08425928,1,0,0,0.7709,optionLeft,40,190,1,3,0,3,0,1,,,,,,,,,,,,,,,,,,,,,,,,,,,,,,,,,,,,,,,
,,,,,,,,2023-08-16_08h46.51.589,HF_wild_card,2022.2.4,Linux x86_64,60.0528465,60fefcd96595341f18a3a247,64d2fd46c836a06233681665,64dc7ee0daf0b543d8b5d475,,,,,,,sngl,resources/DB.BMP,resources/Empty.png,Door3,-0.253703718,-0.073148162,1,0,0,0.8246,optionLeft,70,260,1,4,0,4,0,1,,,,,,,,,,,,,,,,,,,,,,,,,,,,,,,,,,,,,,,
,,,,,,,,2023-08-16_08h46.51.589,HF_wild_card,2022.2.4,Linux x86_64,60.0528465,60fefcd96595341f18a3a247,64d2fd46c836a06233681665,64dc7ee0daf0b543d8b5d475,,,,,,,sngl,resources/Empty.png,resources/DB.BMP,Door3,0.378703788,0.003703683,1,0,0,0.5539,optionRight,70,330,1,5,0,5,0,1,,,,,,,,,,,,,,,,,,,,,,,,,,,,,,,,,,,,,,,
,,,,,,,,2023-08-16_08h46.51.589,HF_wild_card,2022.2.4,Linux x86_64,60.0528465,60fefcd96595341f18a3a247,64d2fd46c836a06233681665,64dc7ee0daf0b543d8b5d475,,,,,,,ctch,resources/DG.BMP,resources/DR.BMP,Door4,-0.237037023,-0.083333333,1,0,0,0.7365,optionLeft,60,390,1,6,0,6,0,1,,,,,,,,,,,,,,,,,,,,,,,,,,,,,,,,,,,,,,,
,,,,,,,,2023-08-16_08h46.51.589,HF_wild_card,2022.2.4,Linux x86_64,60.0528465,60fefcd96595341f18a3a247,64d2fd46c836a06233681665,64dc7ee0daf0b543d8b5d475,,,,,,,decisionTrl,resources/DB.BMP,resources/DP.BMP,Door3,-0.241666653,-0.123148176,1,0,0,0.7742,optionLeft,70,460,1,7,0,7,0,1,,,,,,,,,,,,,,,,,,,,,,,,,,,,,,,,,,,,,,,
,,,,,,,,2023-08-16_08h46.51.589,HF_wild_card,2022.2.4,Linux x86_64,60.0528465,60fefcd96595341f18a3a247,64d2fd46c836a06233681665,64dc7ee0daf0b543d8b5d475,,,,,,,sngl,resources/DG.BMP,resources/Empty.png,Door4,-0.209259245,-0.121296282,1,0,0,0.5867,optionLeft,80,540,1,8,0,8,0,1,,,,,,,,,,,,,,,,,,,,,,,,,,,,,,,,,,,,,,,
,,,,,,,,2023-08-16_08h46.51.589,HF_wild_card,2022.2.4,Linux x86_64,60.0528465,60fefcd96595341f18a3a247,64d2fd46c836a06233681665,64dc7ee0daf0b543d8b5d475,,,,,,,decisionTrl,resources/DR.BMP,resources/DP.BMP,Door1,-0.25,-0.114814829,1,0,0,0.9017,optionLeft,30,570,1,9,0,9,0,1,,,,,,,,,,,,,,,,,,,,,,,,,,,,,,,,,,,,,,,
,,,,,,,,2023-08-16_08h46.51.589,HF_wild_card,2022.2.4,Linux x86_64,60.0528465,60fefcd96595341f18a3a247,64d2fd46c836a06233681665,64dc7ee0daf0b543d8b5d475,,,,,,,ctch,resources/DBN.BMP,resources/DB.BMP,Door3,0.32685188,0.023148148,1,0,0,0.656,optionRight,70,640,1,10,0,10,0,1,,,,,,,,,,,,,,,,,,,,,,,,,,,,,,,,,,,,,,,
,,,,,,,,2023-08-16_08h46.51.589,HF_wild_card,2022.2.4,Linux x86_64,60.0528465,60fefcd96595341f18a3a247,64d2fd46c836a06233681665,64dc7ee0daf0b543d8b5d475,,,,,,,sngl,resources/Empty.png,resources/DP.BMP,WildCard_NonEx,0.332407492,0.037962949,1,0,0,0.8103,optionRight,55,695,1,11,0,11,0,1,,,,,,,,,,,,,,,,,,,,,,,,,,,,,,,,,,,,,,,
,,,,,,,,2023-08-16_08h46.51.589,HF_wild_card,2022.2.4,Linux x86_64,60.0528465,60fefcd96595341f18a3a247,64d2fd46c836a06233681665,64dc7ee0daf0b543d8b5d475,,,,,,,decisionTrl,resources/DR.BMP,resources/DBN.BMP,Door2,0.262037065,0.052777785,1,0,0,1.5779,optionRight,40,735,1,12,0,12,0,1,,,,,,,,,,,,,,,,,,,,,,,,,,,,,,,,,,,,,,,
,,,,,,,,2023-08-16_08h46.51.589,HF_wild_card,2022.2.4,Linux x86_64,60.0528465,60fefcd96595341f18a3a247,64d2fd46c836a06233681665,64dc7ee0daf0b543d8b5d475,,,,,,,sngl,resources/DR.BMP,resources/Empty.png,Door1,-0.23055557,-0.089814822,1,0,0,0.6252,optionLeft,30,765,1,13,0,13,0,1,,,,,,,,,,,,,,,,,,,,,,,,,,,,,,,,,,,,,,,
,,,,,,,,2023-08-16_08h46.51.589,HF_wild_card,2022.2.4,Linux x86_64,60.0528465,60fefcd96595341f18a3a247,64d2fd46c836a06233681665,64dc7ee0daf0b543d8b5d475,,,,,,,decisionTrl,resources/DB.BMP,resources/DG.BMP,Door3,-0.224999958,-0.045370384,1,0,0,0.8351,optionLeft,70,835,1,14,0,14,0,1,,,,,,,,,,,,,,,,,,,,,,,,,,,,,,,,,,,,,,,
,,,,,,,,2023-08-16_08h46.51.589,HF_wild_card,2022.2.4,Linux x86_64,60.0528465,60fefcd96595341f18a3a247,64d2fd46c836a06233681665,64dc7ee0daf0b543d8b5d475,,,,,,,ctch,resources/DR.BMP,resources/DG.BMP,Door4,0.23055557,0.062037044,1,0,0,0.839,optionRight,80,915,1,15,0,15,0,1,,,,,,,,,,,,,,,,,,,,,,,,,,,,,,,,,,,,,,,
,,,,,,,,2023-08-16_08h46.51.589,HF_wild_card,2022.2.4,Linux x86_64,60.0528465,60fefcd96595341f18a3a247,64d2fd46c836a06233681665,64dc7ee0daf0b543d8b5d475,,,,,,,decisionTrl,resources/DR.BMP,resources/DBN.BMP,Door2,0.203703704,0.061111097,1,0,0,0.978,optionRight,40,955,1,16,0,16,0,1,,,,,,,,,,,,,,,,,,,,,,,,,,,,,,,,,,,,,,,
,,,,,,,,2023-08-16_08h46.51.589,HF_wild_card,2022.2.4,Linux x86_64,60.0528465,60fefcd96595341f18a3a247,64d2fd46c836a06233681665,64dc7ee0daf0b543d8b5d475,,,,,,,decisionTrl,resources/DB.BMP,resources/DG.BMP,Door4,0.280555584,0.091666645,1,0,0,1.1178,optionRight,80,1035,1,17,0,17,0,1,,,,,,,,,,,,,,,,,,,,,,,,,,,,,,,,,,,,,,,
,,,,,,,,2023-08-16_08h46.51.589,HF_wild_card,2022.2.4,Linux x86_64,60.0528465,60fefcd96595341f18a3a247,64d2fd46c836a06233681665,64dc7ee0daf0b543d8b5d475,,,,,,,sngl,resources/Empty.png,resources/DP.BMP,WildCard_NonEx,0.265740783,0.033333319,1,0,0,0.942,optionRight,45,1080,1,18,0,18,0,1,,,,,,,,,,,,,,,,,,,,,,,,,,,,,,,,,,,,,,,
,,,,,,,,2023-08-16_08h46.51.589,HF_wild_card,2022.2.4,Linux x86_64,60.0528465,60fefcd96595341f18a3a247,64d2fd46c836a06233681665,64dc7ee0daf0b543d8b5d475,,,,,,,sngl,resources/Empty.png,resources/DR.BMP,Door1,0.266666695,0.071296303,1,0,0,0.7532,optionRight,30,1110,1,19,0,19,0,1,,,,,,,,,,,,,,,,,,,,,,,,,,,,,,,,,,,,,,,
,,,,,,,,2023-08-16_08h46.51.589,HF_wild_card,2022.2.4,Linux x86_64,60.0528465,60fefcd96595341f18a3a247,64d2fd46c836a06233681665,64dc7ee0daf0b543d8b5d475,,,,,,,decisionTrl,resources/DG.BMP,resources/DB.BMP,Door4,-0.248148106,-0.076851845,1,0,0,0.7366,optionLeft,80,1190,1,20,0,20,0,1,,,,,,,,,,,,,,,,,,,,,,,,,,,,,,,,,,,,,,,
,,,,,,,,2023-08-16_08h46.51.589,HF_wild_card,2022.2.4,Linux x86_64,60.0528465,60fefcd96595341f18a3a247,64d2fd46c836a06233681665,64dc7ee0daf0b543d8b5d475,,,,,,,ctch,resources/DB.BMP,resources/DBN.BMP,Door3,-0.175925926,-0.110185199,1,0,0,1.2744,optionLeft,70,1260,1,21,0,21,0,1,,,,,,,,,,,,,,,,,,,,,,,,,,,,,,,,,,,,,,,
,,,,,,,,2023-08-16_08h46.51.589,HF_wild_card,2022.2.4,Linux x86_64,60.0528465,60fefcd96595341f18a3a247,64d2fd46c836a06233681665,64dc7ee0daf0b543d8b5d475,,,,,,,decisionTrl,resources/DP.BMP,resources/DBN.BMP,WildCard_NonEx,-0.194444444,-0.117592635,1,0,0,1.2201,optionLeft,55,1315,1,22,0,22,0,1,,,,,,,,,,,,,,,,,,,,,,,,,,,,,,,,,,,,,,,
,,,,,,,,2023-08-16_08h46.51.589,HF_wild_card,2022.2.4,Linux x86_64,60.0528465,60fefcd96595341f18a3a247,64d2fd46c836a06233681665,64dc7ee0daf0b543d8b5d475,,,,,,,decisionTrl,resources/DP.BMP,resources/DB.BMP,Door3,0.268518519,0.060185185,1,0,0,0.9227,optionRight,70,1385,1,23,0,23,0,1,,,,,,,,,,,,,,,,,,,,,,,,,,,,,,,,,,,,,,,
,,,,,,,,2023-08-16_08h46.51.589,HF_wild_card,2022.2.4,Linux x86_64,60.0528465,60fefcd96595341f18a3a247,64d2fd46c836a06233681665,64dc7ee0daf0b543d8b5d475,,,,,,,decisionTrl,resources/DB.BMP,resources/DG.BMP,Door4,0.246296282,0.10833334,1,0,0,0.6361,optionRight,60,1445,1,24,0,24,0,1,,,,,,,,,,,,,,,,,,,,,,,,,,,,,,,,,,,,,,,
,,,,,,,,2023-08-16_08h46.51.589,HF_wild_card,2022.2.4,Linux x86_64,60.0528465,60fefcd96595341f18a3a247,64d2fd46c836a06233681665,64dc7ee0daf0b543d8b5d475,,,,,,,decisionTrl,resources/DR.BMP,resources/DBN.BMP,Door2,0.163888931,0.099074081,1,0,0,1.6318,optionRight,40,1485,1,25,0,25,0,1,,,,,,,,,,,,,,,,,,,,,,,,,,,,,,,,,,,,,,,
,,,,,,,,2023-08-16_08h46.51.589,HF_wild_card,2022.2.4,Linux x86_64,60.0528465,60fefcd96595341f18a3a247,64d2fd46c836a06233681665,64dc7ee0daf0b543d8b5d475,,,,,,,sngl,resources/DP.BMP,resources/Empty.png,WildCard_NonEx,-0.207407422,-0.049074067,1,0,0,0.6532,optionLeft,45,1530,1,26,0,26,0,1,,,,,,,,,,,,,,,,,,,,,,,,,,,,,,,,,,,,,,,
,,,,,,,,2023-08-16_08h46.51.589,HF_wild_card,2022.2.4,Linux x86_64,60.0528465,60fefcd96595341f18a3a247,64d2fd46c836a06233681665,64dc7ee0daf0b543d8b5d475,,,,,,,decisionTrl,resources/DG.BMP,resources/DB.BMP,Door4,-0.208333333,-0.079629651,1,0,0,0.8518,optionLeft,60,1590,1,27,0,27,0,1,,,,,,,,,,,,,,,,,,,,,,,,,,,,,,,,,,,,,,,
,,,,,,,,2023-08-16_08h46.51.589,HF_wild_card,2022.2.4,Linux x86_64,60.0528465,60fefcd96595341f18a3a247,64d2fd46c836a06233681665,64dc7ee0daf0b543d8b5d475,,,,,,,ctch,resources/DG.BMP,resources/DR.BMP,Door4,-0.162962949,-0.108333376,1,0,0,0.5917,optionLeft,80,1670,1,28,0,28,0,1,,,,,,,,,,,,,,,,,,,,,,,,,,,,,,,,,,,,,,,
,,,,,,,,2023-08-16_08h46.51.589,HF_wild_card,2022.2.4,Linux x86_64,60.0528465,60fefcd96595341f18a3a247,64d2fd46c836a06233681665,64dc7ee0daf0b543d8b5d475,,,,,,,sngl,resources/DBN.BMP,resources/Empty.png,Door2,-0.194444444,-0.091666681,1,0,0,0.6364,optionLeft,40,1710,1,29,0,29,0,1,,,,,,,,,,,,,,,,,,,,,,,,,,,,,,,,,,,,,,,
,,,,,,,,2023-08-16_08h46.51.589,HF_wild_card,2022.2.4,Linux x86_64,60.0528465,60fefcd96595341f18a3a247,64d2fd46c836a06233681665,64dc7ee0daf0b543d8b5d475,,,,,,,sngl,resources/Empty.png,resources/DG.BMP,Door4,0.299074102,0.110185164,1,0,0,0.549,optionRight,60,1770,1,30,0,30,0,1,,,,,,,,,,,,,,,,,,,,,,,,,,,,,,,,,,,,,,,
,,,,,,,,2023-08-16_08h46.51.589,HF_wild_card,2022.2.4,Linux x86_64,60.0528465,60fefcd96595341f18a3a247,64d2fd46c836a06233681665,64dc7ee0daf0b543d8b5d475,,,,,,,sngl,resources/Empty.png,resources/DBN.BMP,Door2,0.343518575,0.1175926,1,0,0,0.7045,optionRight,20,1790,1,31,0,31,0,1,,,,,,,,,,,,,,,,,,,,,,,,,,,,,,,,,,,,,,,
,,,,,,,,2023-08-16_08h46.51.589,HF_wild_card,2022.2.4,Linux x86_64,60.0528465,60fefcd96595341f18a3a247,64d2fd46c836a06233681665,64dc7ee0daf0b543d8b5d475,,,,,,,ctch,resources/DBN.BMP,resources/DB.BMP,Door2,-0.265740712,-0.12037037,1,0,0,0.9554,optionLeft,20,1810,1,32,0,32,0,1,,,,,,,,,,,,,,,,,,,,,,,,,,,,,,,,,,,,,,,
,,,,,,,,2023-08-16_08h46.51.589,HF_wild_card,2022.2.4,Linux x86_64,60.0528465,60fefcd96595341f18a3a247,64d2fd46c836a06233681665,64dc7ee0daf0b543d8b5d475,,,,,,,sngl,resources/DP.BMP,resources/Empty.png,WildCard_NonEx,-0.182407379,-0.107407393,1,0,0,1.0202,optionLeft,55,1865,1,33,0,33,0,1,,,,,,,,,,,,,,,,,,,,,,,,,,,,,,,,,,,,,,,
,,,,,,,,2023-08-16_08h46.51.589,HF_wild_card,2022.2.4,Linux x86_64,60.0528465,60fefcd96595341f18a3a247,64d2fd46c836a06233681665,64dc7ee0daf0b543d8b5d475,,,,,,,decisionTrl,resources/DG.BMP,resources/DB.BMP,Door4,-0.255555541,-0.08425928,1,0,0,1.4447,optionLeft,60,1925,1,34,0,34,0,1,,,,,,,,,,,,,,,,,,,,,,,,,,,,,,,,,,,,,,,
,,,,,,,,2023-08-16_08h46.51.589,HF_wild_card,2022.2.4,Linux x86_64,60.0528465,60fefcd96595341f18a3a247,64d2fd46c836a06233681665,64dc7ee0daf0b543d8b5d475,,,,,,,ctch,resources/DB.BMP,resources/DBN.BMP,Door3,-0.201851809,-0.068518533,1,0,0,0.8396,optionLeft,70,1995,1,35,0,35,0,1,,,,,,,,,,,,,,,,,,,,,,,,,,,,,,,,,,,,,,,
,,,,,,,,2023-08-16_08h46.51.589,HF_wild_card,2022.2.4,Linux x86_64,60.0528465,60fefcd96595341f18a3a247,64d2fd46c836a06233681665,64dc7ee0daf0b543d8b5d475,,,,,,,decisionTrl,resources/DBN.BMP,resources/DR.BMP,Door2,-0.243518476,-0.095370399,1,0,0,3.4596,optionLeft,40,2035,1,36,0,36,0,1,,,,,,,,,,,,,,,,,,,,,,,,,,,,,,,,,,,,,,,
,,,,,,,,2023-08-16_08h46.51.589,HF_wild_card,2022.2.4,Linux x86_64,60.0528465,60fefcd96595341f18a3a247,64d2fd46c836a06233681665,64dc7ee0daf0b543d8b5d475,,,,,,,decisionTrl,resources/DG.BMP,resources/DP.BMP,Door4,-0.203703704,-0.101851852,1,0,0,2.6031,optionLeft,60,2095,1,37,0,37,0,1,,,,,,,,,,,,,,,,,,,,,,,,,,,,,,,,,,,,,,,
,,,,,,,,2023-08-16_08h46.51.589,HF_wild_card,2022.2.4,Linux x86_64,60.0528465,60fefcd96595341f18a3a247,64d2fd46c836a06233681665,64dc7ee0daf0b543d8b5d475,,,,,,,decisionTrl,resources/DBN.BMP,resources/DR.BMP,Door2,-0.164814772,-0.081481474,1,0,0,1.5811,optionLeft,40,2135,1,38,0,38,0,1,,,,,,,,,,,,,,,,,,,,,,,,,,,,,,,,,,,,,,,
,,,,,,,,2023-08-16_08h46.51.589,HF_wild_card,2022.2.4,Linux x86_64,60.0528465,60fefcd96595341f18a3a247,64d2fd46c836a06233681665,64dc7ee0daf0b543d8b5d475,,,,,,,decisionTrl,resources/DP.BMP,resources/DR.BMP,WildCard_NonEx,-0.189814815,-0.106481481,1,0,0,1.3209,optionLeft,45,2180,1,39,0,39,0,1,,,,,,,,,,,,,,,,,,,,,,,,,,,,,,,,,,,,,,,
,,,,,,,,2023-08-16_08h46.51.589,HF_wild_card,2022.2.4,Linux x86_64,60.0528465,60fefcd96595341f18a3a247,64d2fd46c836a06233681665,64dc7ee0daf0b543d8b5d475,,,,,,,decisionTrl,resources/DR.BMP,resources/DBN.BMP,Door2,0.156481496,0.057407414,1,0,0,1.5519,optionRight,20,2200,1,40,0,40,0,1,,,,,,,,,,,,,,,,,,,,,,,,,,,,,,,,,,,,,,,
,,,,,,,,2023-08-16_08h46.51.589,HF_wild_card,2022.2.4,Linux x86_64,60.0528465,60fefcd96595341f18a3a247,64d2fd46c836a06233681665,64dc7ee0daf0b543d8b5d475,,,,,,,decisionTrl,resources/DP.BMP,resources/DG.BMP,Door4,0.262037065,0.076851845,1,0,0,0.8729,optionRight,80,2280,1,41,0,41,0,1,,,,,,,,,,,,,,,,,,,,,,,,,,,,,,,,,,,,,,,
,,,,,,,,2023-08-16_08h46.51.589,HF_wild_card,2022.2.4,Linux x86_64,60.0528465,60fefcd96595341f18a3a247,64d2fd46c836a06233681665,64dc7ee0daf0b543d8b5d475,,,,,,,ctch,resources/DR.BMP,resources/DG.BMP,Door4,0.305555556,0.096296275,1,0,0,0.6017,optionRight,80,2360,1,42,0,42,0,1,,,,,,,,,,,,,,,,,,,,,,,,,,,,,,,,,,,,,,,
,,,,,,,,2023-08-16_08h46.51.589,HF_wild_card,2022.2.4,Linux x86_64,60.0528465,60fefcd96595341f18a3a247,64d2fd46c836a06233681665,64dc7ee0daf0b543d8b5d475,,,,,,,decisionTrl,resources/DB.BMP,resources/DG.BMP,Door4,0.287037037,0.100925905,1,0,0,0.589,optionRight,60,2420,1,43,0,43,0,1,,,,,,,,,,,,,,,,,,,,,,,,,,,,,,,,,,,,,,,
,,,,,,,,2023-08-16_08h46.51.589,HF_wild_card,2022.2.4,Linux x86_64,60.0528465,60fefcd96595341f18a3a247,64d2fd46c836a06233681665,64dc7ee0daf0b543d8b5d475,,,,,,,,,,,,,,,,,,,,,,,,,,0,0,0,0,1,,,,,,,,,,,,,,,,,,,,,,,,,,,,,,,,,,
,,,,,,,,2023-08-16_08h46.51.589,HF_wild_card,2022.2.4,Linux x86_64,60.0528465,60fefcd96595341f18a3a247,64d2fd46c836a06233681665,64dc7ee0daf0b543d8b5d475,,,,,,,decisionTrl,resources/DG.BMP,resources/DP.BMP,Door4,-0.257407365,-0.130555541,1,0,0,0.663,optionLeft,60,2480,2,0,0,0,0,1,,,,,,,,,,,,,,,,,,,,,,,,,,,,,,,,,,,,,,,
,,,,,,,,2023-08-16_08h46.51.589,HF_wild_card,2022.2.4,Linux x86_64,60.0528465,60fefcd96595341f18a3a247,64d2fd46c836a06233681665,64dc7ee0daf0b543d8b5d475,,,,,,,sngl,resources/DR.BMP,resources/Empty.png,Door1,-0.235185199,-0.043518526,1,0,0,0.7892,optionLeft,30,2510,2,1,0,1,0,1,,,,,,,,,,,,,,,,,,,,,,,,,,,,,,,,,,,,,,,
,,,,,,,,2023-08-16_08h46.51.589,HF_wild_card,2022.2.4,Linux x86_64,60.0528465,60fefcd96595341f18a3a247,64d2fd46c836a06233681665,64dc7ee0daf0b543d8b5d475,,,,,,,decisionTrl,resources/DB.BMP,resources/DP.BMP,Door3,-0.165740755,-0.076851845,1,0,0,0.817,optionLeft,70,2580,2,2,0,2,0,1,,,,,,,,,,,,,,,,,,,,,,,,,,,,,,,,,,,,,,,
,,,,,,,,2023-08-16_08h46.51.589,HF_wild_card,2022.2.4,Linux x86_64,60.0528465,60fefcd96595341f18a3a247,64d2fd46c836a06233681665,64dc7ee0daf0b543d8b5d475,,,,,,,sngl,resources/Empty.png,resources/DB.BMP,Door3,0.287962949,0.087962963,1,0,0,0.624,optionRight,70,2650,2,3,0,3,0,1,,,,,,,,,,,,,,,,,,,,,,,,,,,,,,,,,,,,,,,
,,,,,,,,2023-08-16_08h46.51.589,HF_wild_card,2022.2.4,Linux x86_64,60.0528465,60fefcd96595341f18a3a247,64d2fd46c836a06233681665,64dc7ee0daf0b543d8b5d475,,,,,,,decisionTrl,resources/DBN.BMP,resources/DR.BMP,Door1,0.204629616,0.049999979,1,0,0,0.7295,optionRight,30,2680,2,4,0,4,0,1,,,,,,,,,,,,,,,,,,,,,,,,,,,,,,,,,,,,,,,
,,,,,,,,2023-08-16_08h46.51.589,HF_wild_card,2022.2.4,Linux x86_64,60.0528465,60fefcd96595341f18a3a247,64d2fd46c836a06233681665,64dc7ee0daf0b543d8b5d475,,,,,,,decisionTrl,resources/DBN.BMP,resources/DR.BMP,Door1,0.215740769,0.065740727,1,0,0,0.6889,optionRight,30,2710,2,5,0,5,0,1,,,,,,,,,,,,,,,,,,,,,,,,,,,,,,,,,,,,,,,
,,,,,,,,2023-08-16_08h46.51.589,HF_wild_card,2022.2.4,Linux x86_64,60.0528465,60fefcd96595341f18a3a247,64d2fd46c836a06233681665,64dc7ee0daf0b543d8b5d475,,,,,,,sngl,resources/DG.BMP,resources/Empty.png,Door4,-0.215740698,-0.087037051,1,0,0,0.6032,optionLeft,60,2770,2,6,0,6,0,1,,,,,,,,,,,,,,,,,,,,,,,,,,,,,,,,,,,,,,,
,,,,,,,,2023-08-16_08h46.51.589,HF_wild_card,2022.2.4,Linux x86_64,60.0528465,60fefcd96595341f18a3a247,64d2fd46c836a06233681665,64dc7ee0daf0b543d8b5d475,,,,,,,ctch,resources/DBN.BMP,resources/DB.BMP,Door3,0.170370384,0.052777785,1,0,0,0.7233,optionRight,70,2840,2,7,0,7,0,1,,,,,,,,,,,,,,,,,,,,,,,,,,,,,,,,,,,,,,,
,,,,,,,,2023-08-16_08h46.51.589,HF_wild_card,2022.2.4,Linux x86_64,60.0528465,60fefcd96595341f18a3a247,64d2fd46c836a06233681665,64dc7ee0daf0b543d8b5d475,,,,,,,decisionTrl,resources/DG.BMP,resources/DB.BMP,Door4,-0.16851849,-0.08425928,1,0,0,0.5073,optionLeft,60,2900,2,8,0,8,0,1,,,,,,,,,,,,,,,,,,,,,,,,,,,,,,,,,,,,,,,
,,,,,,,,2023-08-16_08h46.51.589,HF_wild_card,2022.2.4,Linux x86_64,60.0528465,60fefcd96595341f18a3a247,64d2fd46c836a06233681665,64dc7ee0daf0b543d8b5d475,,,,,,,decisionTrl,resources/DR.BMP,resources/DBN.BMP,Door1,-0.185185185,-0.077777792,1,0,0,0.6633,optionLeft,30,2930,2,9,0,9,0,1,,,,,,,,,,,,,,,,,,,,,,,,,,,,,,,,,,,,,,,
,,,,,,,,2023-08-16_08h46.51.589,HF_wild_card,2022.2.4,Linux x86_64,60.0528465,60fefcd96595341f18a3a247,64d2fd46c836a06233681665,64dc7ee0daf0b543d8b5d475,,,,,,,decisionTrl,resources/DR.BMP,resources/DBN.BMP,Door1,-0.175000014,-0.081481474,1,0,0,0.9207,optionLeft,30,2960,2,10,0,10,0,1,,,,,,,,,,,,,,,,,,,,,,,,,,,,,,,,,,,,,,,
,,,,,,,,2023-08-16_08h46.51.589,HF_wild_card,2022.2.4,Linux x86_64,60.0528465,60fefcd96595341f18a3a247,64d2fd46c836a06233681665,64dc7ee0daf0b543d8b5d475,,,,,,,decisionTrl,resources/DP.BMP,resources/DR.BMP,WildCard_NonEx,-0.179629644,-0.090740734,1,0,0,1.1413,optionLeft,55,3015,2,11,0,11,0,1,,,,,,,,,,,,,,,,,,,,,,,,,,,,,,,,,,,,,,,
,,,,,,,,2023-08-16_08h46.51.589,HF_wild_card,2022.2.4,Linux x86_64,60.0528465,60fefcd96595341f18a3a247,64d2fd46c836a06233681665,64dc7ee0daf0b543d8b5d475,,,,,,,decisionTrl,resources/DP.BMP,resources/DBN.BMP,WildCard_NonEx,-0.156481496,-0.101851852,1,0,0,0.5866,optionLeft,55,3070,2,12,0,12,0,1,,,,,,,,,,,,,,,,,,,,,,,,,,,,,,,,,,,,,,,
,,,,,,,,2023-08-16_08h46.51.589,HF_wild_card,2022.2.4,Linux x86_64,60.0528465,60fefcd96595341f18a3a247,64d2fd46c836a06233681665,64dc7ee0daf0b543d8b5d475,,,,,,,decisionTrl,resources/DR.BMP,resources/DP.BMP,WildCard_NonEx,0.198148162,0.037037037,1,0,0,1.8946,optionRight,45,3115,2,13,0,13,0,1,,,,,,,,,,,,,,,,,,,,,,,,,,,,,,,,,,,,,,,
,,,,,,,,2023-08-16_08h46.51.589,HF_wild_card,2022.2.4,Linux x86_64,60.0528465,60fefcd96595341f18a3a247,64d2fd46c836a06233681665,64dc7ee0daf0b543d8b5d475,,,,,,,sngl,resources/Empty.png,resources/DP.BMP,WildCard_NonEx,0.242592635,0.049074067,1,0,0,0.7046,optionRight,45,3160,2,14,0,14,0,1,,,,,,,,,,,,,,,,,,,,,,,,,,,,,,,,,,,,,,,
,,,,,,,,2023-08-16_08h46.51.589,HF_wild_card,2022.2.4,Linux x86_64,60.0528465,60fefcd96595341f18a3a247,64d2fd46c836a06233681665,64dc7ee0daf0b543d8b5d475,,,,,,,ctch,resources/DR.BMP,resources/DG.BMP,Door4,0.277777778,0.056481467,1,0,0,0.6855,optionRight,80,3240,2,15,0,15,0,1,,,,,,,,,,,,,,,,,,,,,,,,,,,,,,,,,,,,,,,
,,,,,,,,2023-08-16_08h46.51.589,HF_wild_card,2022.2.4,Linux x86_64,60.0528465,60fefcd96595341f18a3a247,64d2fd46c836a06233681665,64dc7ee0daf0b543d8b5d475,,,,,,,decisionTrl,resources/DG.BMP,resources/DB.BMP,Door4,-0.133333347,-0.097222222,1,0,0,0.5217,optionLeft,60,3300,2,16,0,16,0,1,,,,,,,,,,,,,,,,,,,,,,,,,,,,,,,,,,,,,,,
,,,,,,,,2023-08-16_08h46.51.589,HF_wild_card,2022.2.4,Linux x86_64,60.0528465,60fefcd96595341f18a3a247,64d2fd46c836a06233681665,64dc7ee0daf0b543d8b5d475,,,,,,,ctch,resources/DB.BMP,resources/DBN.BMP,Door3,-0.164814772,-0.114814829,1,0,0,0.5752,optionLeft,70,3370,2,17,0,17,0,1,,,,,,,,,,,,,,,,,,,,,,,,,,,,,,,,,,,,,,,
,,,,,,,,2023-08-16_08h46.51.589,HF_wild_card,2022.2.4,Linux x86_64,60.0528465,60fefcd96595341f18a3a247,64d2fd46c836a06233681665,64dc7ee0daf0b543d8b5d475,,,,,,,ctch,resources/DG.BMP,resources/DR.BMP,Door4,-0.137036995,-0.087037051,1,0,0,0.6864,optionLeft,60,3430,2,18,0,18,0,1,,,,,,,,,,,,,,,,,,,,,,,,,,,,,,,,,,,,,,,
,,,,,,,,2023-08-16_08h46.51.589,HF_wild_card,2022.2.4,Linux x86_64,60.0528465,60fefcd96595341f18a3a247,64d2fd46c836a06233681665,64dc7ee0daf0b543d8b5d475,,,,,,,ctch,resources/DBN.BMP,resources/DB.BMP,Door3,0.295370384,0.053703697,1,0,0,0.677,optionRight,70,3500,2,19,0,19,0,1,,,,,,,,,,,,,,,,,,,,,,,,,,,,,,,,,,,,,,,
,,,,,,,,2023-08-16_08h46.51.589,HF_wild_card,2022.2.4,Linux x86_64,60.0528465,60fefcd96595341f18a3a247,64d2fd46c836a06233681665,64dc7ee0daf0b543d8b5d475,,,,,,,sngl,resources/DBN.BMP,resources/Empty.png,Door2,-0.165740755,-0.09629631,1,0,0,0.7726,optionLeft,20,3520,2,20,0,20,0,1,,,,,,,,,,,,,,,,,,,,,,,,,,,,,,,,,,,,,,,
,,,,,,,,2023-08-16_08h46.51.589,HF_wild_card,2022.2.4,Linux x86_64,60.0528465,60fefcd96595341f18a3a247,64d2fd46c836a06233681665,64dc7ee0daf0b543d8b5d475,,,,,,,decisionTrl,resources/DBN.BMP,resources/DR.BMP,Door2,-0.155555513,-0.064814815,1,0,0,1.0559,optionLeft,20,3540,2,21,0,21,0,1,,,,,,,,,,,,,,,,,,,,,,,,,,,,,,,,,,,,,,,
,,,,,,,,2023-08-16_08h46.51.589,HF_wild_card,2022.2.4,Linux x86_64,60.0528465,60fefcd96595341f18a3a247,64d2fd46c836a06233681665,64dc7ee0daf0b543d8b5d475,,,,,,,decisionTrl,resources/DB.BMP,resources/DG.BMP,Door4,0.299074102,0.069444444,1,0,0,0.8728,optionRight,80,3620,2,22,0,22,0,1,,,,,,,,,,,,,,,,,,,,,,,,,,,,,,,,,,,,,,,
,,,,,,,,2023-08-16_08h46.51.589,HF_wild_card,2022.2.4,Linux x86_64,60.0528465,60fefcd96595341f18a3a247,64d2fd46c836a06233681665,64dc7ee0daf0b543d8b5d475,,,,,,,decisionTrl,resources/DP.BMP,resources/DB.BMP,Door3,0.242592635,0.052777785,1,0,0,1.2728,optionRight,70,3690,2,23,0,23,0,1,,,,,,,,,,,,,,,,,,,,,,,,,,,,,,,,,,,,,,,
,,,,,,,,2023-08-16_08h46.51.589,HF_wild_card,2022.2.4,Linux x86_64,60.0528465,60fefcd96595341f18a3a247,64d2fd46c836a06233681665,64dc7ee0daf0b543d8b5d475,,,,,,,sngl,resources/DP.BMP,resources/Empty.png,WildCard_NonEx,-0.170370384,-0.135185171,1,0,0,0.656,optionLeft,45,3735,2,24,0,24,0,1,,,,,,,,,,,,,,,,,,,,,,,,,,,,,,,,,,,,,,,
,,,,,,,,2023-08-16_08h46.51.589,HF_wild_card,2022.2.4,Linux x86_64,60.0528465,60fefcd96595341f18a3a247,64d2fd46c836a06233681665,64dc7ee0daf0b543d8b5d475,,,,,,,sngl,resources/Empty.png,resources/DBN.BMP,Door2,0.212962963,0.054629608,1,0,0,0.7538,optionRight,40,3775,2,25,0,25,0,1,,,,,,,,,,,,,,,,,,,,,,,,,,,,,,,,,,,,,,,
,,,,,,,,2023-08-16_08h46.51.589,HF_wild_card,2022.2.4,Linux x86_64,60.0528465,60fefcd96595341f18a3a247,64d2fd46c836a06233681665,64dc7ee0daf0b543d8b5d475,,,,,,,sngl,resources/DP.BMP,resources/Empty.png,WildCard_NonEx,-0.155555513,-0.112963005,1,0,0,0.4695,optionLeft,55,3830,2,26,0,26,0,1,,,,,,,,,,,,,,,,,,,,,,,,,,,,,,,,,,,,,,,
,,,,,,,,2023-08-16_08h46.51.589,HF_wild_card,2022.2.4,Linux x86_64,60.0528465,60fefcd96595341f18a3a247,64d2fd46c836a06233681665,64dc7ee0daf0b543d8b5d475,,,,,,,decisionTrl,resources/DB.BMP,resources/DG.BMP,Door4,0.234259288,0.060185185,1,0,0,0.6546,optionRight,60,3890,2,27,0,27,0,1,,,,,,,,,,,,,,,,,,,,,,,,,,,,,,,,,,,,,,,
,,,,,,,,2023-08-16_08h46.51.589,HF_wild_card,2022.2.4,Linux x86_64,60.0528465,60fefcd96595341f18a3a247,64d2fd46c836a06233681665,64dc7ee0daf0b543d8b5d475,,,,,,,ctch,resources/DR.BMP,resources/DG.BMP,Door4,0.324074074,0.068518497,1,0,0,0.6381,optionRight,80,3970,2,28,0,28,0,1,,,,,,,,,,,,,,,,,,,,,,,,,,,,,,,,,,,,,,,
,,,,,,,,2023-08-16_08h46.51.589,HF_wild_card,2022.2.4,Linux x86_64,60.0528465,60fefcd96595341f18a3a247,64d2fd46c836a06233681665,64dc7ee0daf0b543d8b5d475,,,,,,,decisionTrl,resources/DP.BMP,resources/DG.BMP,Door4,0.29814812,0.070370356,1,0,0,0.542,optionRight,80,4050,2,29,0,29,0,1,,,,,,,,,,,,,,,,,,,,,,,,,,,,,,,,,,,,,,,
,,,,,,,,2023-08-16_08h46.51.589,HF_wild_card,2022.2.4,Linux x86_64,60.0528465,60fefcd96595341f18a3a247,64d2fd46c836a06233681665,64dc7ee0daf0b543d8b5d475,,,,,,,decisionTrl,resources/DG.BMP,resources/DB.BMP,Door4,-0.17777775,-0.046296296,1,0,0,0.5924,optionLeft,80,4130,2,30,0,30,0,1,,,,,,,,,,,,,,,,,,,,,,,,,,,,,,,,,,,,,,,
,,,,,,,,2023-08-16_08h46.51.589,HF_wild_card,2022.2.4,Linux x86_64,60.0528465,60fefcd96595341f18a3a247,64d2fd46c836a06233681665,64dc7ee0daf0b543d8b5d475,,,,,,,decisionTrl,resources/DBN.BMP,resources/DR.BMP,Door1,0.249074088,0.089814822,1,0,0,0.7225,optionRight,30,4160,2,31,0,31,0,1,,,,,,,,,,,,,,,,,,,,,,,,,,,,,,,,,,,,,,,
,,,,,,,,2023-08-16_08h46.51.589,HF_wild_card,2022.2.4,Linux x86_64,60.0528465,60fefcd96595341f18a3a247,64d2fd46c836a06233681665,64dc7ee0daf0b543d8b5d475,,,,,,,sngl,resources/Empty.png,resources/DG.BMP,Door4,0.250925912,0.076851845,1,0,0,0.6011,optionRight,80,4240,2,32,0,32,0,1,,,,,,,,,,,,,,,,,,,,,,,,,,,,,,,,,,,,,,,
,,,,,,,,2023-08-16_08h46.51.589,HF_wild_card,2022.2.4,Linux x86_64,60.0528465,60fefcd96595341f18a3a247,64d2fd46c836a06233681665,64dc7ee0daf0b543d8b5d475,,,,,,,sngl,resources/DB.BMP,resources/Empty.png,Door3,-0.187037009,-0.121296282,1,0,0,0.5077,optionLeft,70,4310,2,33,0,33,0,1,,,,,,,,,,,,,,,,,,,,,,,,,,,,,,,,,,,,,,,
,,,,,,,,2023-08-16_08h46.51.589,HF_wild_card,2022.2.4,Linux x86_64,60.0528465,60fefcd96595341f18a3a247,64d2fd46c836a06233681665,64dc7ee0daf0b543d8b5d475,,,,,,,decisionTrl,resources/DB.BMP,resources/DG.BMP,Door4,0.330555527,0.110185164,1,0,0,0.5715,optionRight,60,4370,2,34,0,34,0,1,,,,,,,,,,,,,,,,,,,,,,,,,,,,,,,,,,,,,,,
,,,,,,,,2023-08-16_08h46.51.589,HF_wild_card,2022.2.4,Linux x86_64,60.0528465,60fefcd96595341f18a3a247,64d2fd46c836a06233681665,64dc7ee0daf0b543d8b5d475,,,,,,,ctch,resources/DG.BMP,resources/DR.BMP,Door4,-0.200925898,-0.107407393,1,0,0,0.5185,optionLeft,80,4450,2,35,0,35,0,1,,,,,,,,,,,,,,,,,,,,,,,,,,,,,,,,,,,,,,,
,,,,,,,,2023-08-16_08h46.51.589,HF_wild_card,2022.2.4,Linux x86_64,60.0528465,60fefcd96595341f18a3a247,64d2fd46c836a06233681665,64dc7ee0daf0b543d8b5d475,,,,,,,ctch,resources/DB.BMP,resources/DBN.BMP,Door3,-0.231481481,-0.157407407,1,0,0,1.1383,optionLeft,70,4520,2,36,0,36,0,1,,,,,,,,,,,,,,,,,,,,,,,,,,,,,,,,,,,,,,,
,,,,,,,,2023-08-16_08h46.51.589,HF_wild_card,2022.2.4,Linux x86_64,60.0528465,60fefcd96595341f18a3a247,64d2fd46c836a06233681665,64dc7ee0daf0b543d8b5d475,,,,,,,decisionTrl,resources/DBN.BMP,resources/DP.BMP,WildCard_NonEx,0.251851894,0.071296303,1,0,0,0.7724,optionRight,55,4575,2,37,0,37,0,1,,,,,,,,,,,,,,,,,,,,,,,,,,,,,,,,,,,,,,,
,,,,,,,,2023-08-16_08h46.51.589,HF_wild_card,2022.2.4,Linux x86_64,60.0528465,60fefcd96595341f18a3a247,64d2fd46c836a06233681665,64dc7ee0daf0b543d8b5d475,,,,,,,decisionTrl,resources/DG.BMP,resources/DB.BMP,Door4,-0.236111111,-0.123148176,1,0,0,0.8555,optionLeft,60,4635,2,38,0,38,0,1,,,,,,,,,,,,,,,,,,,,,,,,,,,,,,,,,,,,,,,
,,,,,,,,2023-08-16_08h46.51.589,HF_wild_card,2022.2.4,Linux x86_64,60.0528465,60fefcd96595341f18a3a247,64d2fd46c836a06233681665,64dc7ee0daf0b543d8b5d475,,,,,,,decisionTrl,resources/DR.BMP,resources/DBN.BMP,Door2,0.232407393,0.086111104,1,0,0,1.1719,optionRight,40,4675,2,39,0,39,0,1,,,,,,,,,,,,,,,,,,,,,,,,,,,,,,,,,,,,,,,
,,,,,,,,2023-08-16_08h46.51.589,HF_wild_card,2022.2.4,Linux x86_64,60.0528465,60fefcd96595341f18a3a247,64d2fd46c836a06233681665,64dc7ee0daf0b543d8b5d475,,,,,,,sngl,resources/Empty.png,resources/DP.BMP,WildCard_NonEx,0.225000028,0.083333333,1,0,0,0.653,optionRight,55,4730,2,40,0,40,0,1,,,,,,,,,,,,,,,,,,,,,,,,,,,,,,,,,,,,,,,
,,,,,,,,2023-08-16_08h46.51.589,HF_wild_card,2022.2.4,Linux x86_64,60.0528465,60fefcd96595341f18a3a247,64d2fd46c836a06233681665,64dc7ee0daf0b543d8b5d475,,,,,,,decisionTrl,resources/DR.BMP,resources/DBN.BMP,Door2,0.275000042,0.072222215,1,0,0,2.1816,optionRight,40,4770,2,41,0,41,0,1,,,,,,,,,,,,,,,,,,,,,,,,,,,,,,,,,,,,,,,
,,,,,,,,2023-08-16_08h46.51.589,HF_wild_card,2022.2.4,Linux x86_64,60.0528465,60fefcd96595341f18a3a247,64d2fd46c836a06233681665,64dc7ee0daf0b543d8b5d475,,,,,,,sngl,resources/Empty.png,resources/DR.BMP,Door1,0.246296282,0.025000007,1,0,0,0.6407,optionRight,30,4800,2,42,0,42,0,1,,,,,,,,,,,,,,,,,,,,,,,,,,,,,,,,,,,,,,,
,,,,,,,,2023-08-16_08h46.51.589,HF_wild_card,2022.2.4,Linux x86_64,60.0528465,60fefcd96595341f18a3a247,64d2fd46c836a06233681665,64dc7ee0daf0b543d8b5d475,,,,,,,decisionTrl,resources/DB.BMP,resources/DG.BMP,Door4,0.247222265,0.049999979,1,0,0,0.6722,optionRight,80,4880,2,43,0,43,0,1,,,,,,,,,,,,,,,,,,,,,,,,,,,,,,,,,,,,,,,
,,,,,,,,2023-08-16_08h46.51.589,HF_wild_card,2022.2.4,Linux x86_64,60.0528465,60fefcd96595341f18a3a247,64d2fd46c836a06233681665,64dc7ee0daf0b543d8b5d475,,,,,,,,,,,,,,,,,,,,,,,,,,1,0,1,0,1,,,,,,,,,,,,,,,,,,,,,,,,,,,,,,,,,,
,,,,,,,,2023-08-16_08h46.51.589,HF_wild_card,2022.2.4,Linux x86_64,60.0528465,60fefcd96595341f18a3a247,64d2fd46c836a06233681665,64dc7ee0daf0b543d8b5d475,,,,,,,ctch,resources/DB.BMP,resources/DBN.BMP,Door3,-0.190740727,-0.134259259,1,0,0,0.7929,optionLeft,70,4950,3,0,0,0,0,1,,,,,,,,,,,,,,,,,,,,,,,,,,,,,,,,,,,,,,,
,,,,,,,,2023-08-16_08h46.51.589,HF_wild_card,2022.2.4,Linux x86_64,60.0528465,60fefcd96595341f18a3a247,64d2fd46c836a06233681665,64dc7ee0daf0b543d8b5d475,,,,,,,decisionTrl,resources/DP.BMP,resources/DR.BMP,WildCard_NonEx,-0.236111111,-0.009259259,1,0,0,1.4509,optionLeft,45,4995,3,1,0,1,0,1,,,,,,,,,,,,,,,,,,,,,,,,,,,,,,,,,,,,,,,
,,,,,,,,2023-08-16_08h46.51.589,HF_wild_card,2022.2.4,Linux x86_64,60.0528465,60fefcd96595341f18a3a247,64d2fd46c836a06233681665,64dc7ee0daf0b543d8b5d475,,,,,,,ctch,resources/DG.BMP,resources/DR.BMP,Door4,-0.164814772,-0.034259266,1,0,0,0.5371,optionLeft,60,5055,3,2,0,2,0,1,,,,,,,,,,,,,,,,,,,,,,,,,,,,,,,,,,,,,,,
,,,,,,,,2023-08-16_08h46.51.589,HF_wild_card,2022.2.4,Linux x86_64,60.0528465,60fefcd96595341f18a3a247,64d2fd46c836a06233681665,64dc7ee0daf0b543d8b5d475,,,,,,,decisionTrl,resources/DB.BMP,resources/DG.BMP,Door4,0.242592635,0.074999986,1,0,0,0.5379,optionRight,60,5115,3,3,0,3,0,1,,,,,,,,,,,,,,,,,,,,,,,,,,,,,,,,,,,,,,,
,,,,,,,,2023-08-16_08h46.51.589,HF_wild_card,2022.2.4,Linux x86_64,60.0528465,60fefcd96595341f18a3a247,64d2fd46c836a06233681665,64dc7ee0daf0b543d8b5d475,,,,,,,ctch,resources/DB.BMP,resources/DBN.BMP,Door3,-0.196296268,-0.091666681,1,0,0,0.4821,optionLeft,70,5185,3,4,0,4,0,1,,,,,,,,,,,,,,,,,,,,,,,,,,,,,,,,,,,,,,,
,,,,,,,,2023-08-16_08h46.51.589,HF_wild_card,2022.2.4,Linux x86_64,60.0528465,60fefcd96595341f18a3a247,64d2fd46c836a06233681665,64dc7ee0daf0b543d8b5d475,,,,,,,decisionTrl,resources/DG.BMP,resources/DB.BMP,Door4,-0.182407379,-0.08425928,1,0,0,0.5535,optionLeft,80,5265,3,5,0,5,0,1,,,,,,,,,,,,,,,,,,,,,,,,,,,,,,,,,,,,,,,
,,,,,,,,2023-08-16_08h46.51.589,HF_wild_card,2022.2.4,Linux x86_64,60.0528465,60fefcd96595341f18a3a247,64d2fd46c836a06233681665,64dc7ee0daf0b543d8b5d475,,,,,,,decisionTrl,resources/DB.BMP,resources/DG.BMP,Door4,0.265740783,0.070370356,1,0,0,0.554,optionRight,80,5345,3,6,0,6,0,1,,,,,,,,,,,,,,,,,,,,,,,,,,,,,,,,,,,,,,,
,,,,,,,,2023-08-16_08h46.51.589,HF_wild_card,2022.2.4,Linux x86_64,60.0528465,60fefcd96595341f18a3a247,64d2fd46c836a06233681665,64dc7ee0daf0b543d8b5d475,,,,,,,ctch,resources/DR.BMP,resources/DG.BMP,Door4,0.25462963,0.056481467,1,0,0,0.5423,optionRight,80,5425,3,7,0,7,0,1,,,,,,,,,,,,,,,,,,,,,,,,,,,,,,,,,,,,,,,
,,,,,,,,2023-08-16_08h46.51.589,HF_wild_card,2022.2.4,Linux x86_64,60.0528465,60fefcd96595341f18a3a247,64d2fd46c836a06233681665,64dc7ee0daf0b543d8b5d475,,,,,,,sngl,resources/Empty.png,resources/DP.BMP,WildCard_NonEx,0.260185171,0.061111097,1,0,0,0.7241,optionRight,45,5470,3,8,0,8,0,1,,,,,,,,,,,,,,,,,,,,,,,,,,,,,,,,,,,,,,,
,,,,,,,,2023-08-16_08h46.51.589,HF_wild_card,2022.2.4,Linux x86_64,60.0528465,60fefcd96595341f18a3a247,64d2fd46c836a06233681665,64dc7ee0daf0b543d8b5d475,,,,,,,decisionTrl,resources/DBN.BMP,resources/DR.BMP,Door1,0.17777782,0.026851831,1,0,0,0.8391,optionRight,30,5500,3,9,0,9,0,1,,,,,,,,,,,,,,,,,,,,,,,,,,,,,,,,,,,,,,,
,,,,,,,,2023-08-16_08h46.51.589,HF_wild_card,2022.2.4,Linux x86_64,60.0528465,60fefcd96595341f18a3a247,64d2fd46c836a06233681665,64dc7ee0daf0b543d8b5d475,,,,,,,decisionTrl,resources/DG.BMP,resources/DB.BMP,Door4,-0.181481467,-0.108333376,1,0,0,0.5388,optionLeft,60,5560,3,10,0,10,0,1,,,,,,,,,,,,,,,,,,,,,,,,,,,,,,,,,,,,,,,
,,,,,,,,2023-08-16_08h46.51.589,HF_wild_card,2022.2.4,Linux x86_64,60.0528465,60fefcd96595341f18a3a247,64d2fd46c836a06233681665,64dc7ee0daf0b543d8b5d475,,,,,,,decisionTrl,resources/DP.BMP,resources/DBN.BMP,WildCard_NonEx,-0.190740727,-0.123148176,1,0,0,0.5724,optionLeft,55,5615,3,11,0,11,0,1,,,,,,,,,,,,,,,,,,,,,,,,,,,,,,,,,,,,,,,
,,,,,,,,2023-08-16_08h46.51.589,HF_wild_card,2022.2.4,Linux x86_64,60.0528465,60fefcd96595341f18a3a247,64d2fd46c836a06233681665,64dc7ee0daf0b543d8b5d475,,,,,,,sngl,resources/Empty.png,resources/DR.BMP,Door1,0.243518547,0.076851845,1,0,0,0.6971,optionRight,30,5645,3,12,0,12,0,1,,,,,,,,,,,,,,,,,,,,,,,,,,,,,,,,,,,,,,,
,,,,,,,,2023-08-16_08h46.51.589,HF_wild_card,2022.2.4,Linux x86_64,60.0528465,60fefcd96595341f18a3a247,64d2fd46c836a06233681665,64dc7ee0daf0b543d8b5d475,,,,,,,decisionTrl,resources/DR.BMP,resources/DBN.BMP,Door1,-0.187962921,-0.062037044,1,0,0,0.5705,optionLeft,30,5675,3,13,0,13,0,1,,,,,,,,,,,,,,,,,,,,,,,,,,,,,,,,,,,,,,,
,,,,,,,,2023-08-16_08h46.51.589,HF_wild_card,2022.2.4,Linux x86_64,60.0528465,60fefcd96595341f18a3a247,64d2fd46c836a06233681665,64dc7ee0daf0b543d8b5d475,,,,,,,decisionTrl,resources/DBN.BMP,resources/DR.BMP,Door1,0.266666695,0.064814815,1,0,0,0.7222,optionRight,30,5705,3,14,0,14,0,1,,,,,,,,,,,,,,,,,,,,,,,,,,,,,,,,,,,,,,,
,,,,,,,,2023-08-16_08h46.51.589,HF_wild_card,2022.2.4,Linux x86_64,60.0528465,60fefcd96595341f18a3a247,64d2fd46c836a06233681665,64dc7ee0daf0b543d8b5d475,,,,,,,decisionTrl,resources/DB.BMP,resources/DP.BMP,Door3,-0.163888861,-0.085185192,1,0,0,0.5191,optionLeft,70,5775,3,15,0,15,0,1,,,,,,,,,,,,,,,,,,,,,,,,,,,,,,,,,,,,,,,
,,,,,,,,2023-08-16_08h46.51.589,HF_wild_card,2022.2.4,Linux x86_64,60.0528465,60fefcd96595341f18a3a247,64d2fd46c836a06233681665,64dc7ee0daf0b543d8b5d475,,,,,,,ctch,resources/DBN.BMP,resources/DB.BMP,Door3,0.188888903,0.041666667,1,0,0,0.6383,optionRight,70,5845,3,16,0,16,0,1,,,,,,,,,,,,,,,,,,,,,,,,,,,,,,,,,,,,,,,
,,,,,,,,2023-08-16_08h46.51.589,HF_wild_card,2022.2.4,Linux x86_64,60.0528465,60fefcd96595341f18a3a247,64d2fd46c836a06233681665,64dc7ee0daf0b543d8b5d475,,,,,,,sngl,resources/DB.BMP,resources/Empty.png,Door3,-0.189814815,-0.108333376,1,0,0,0.5219,optionLeft,70,5915,3,17,0,17,0,1,,,,,,,,,,,,,,,,,,,,,,,,,,,,,,,,,,,,,,,
,,,,,,,,2023-08-16_08h46.51.589,HF_wild_card,2022.2.4,Linux x86_64,60.0528465,60fefcd96595341f18a3a247,64d2fd46c836a06233681665,64dc7ee0daf0b543d8b5d475,,,,,,,sngl,resources/DBN.BMP,resources/Empty.png,Door2,-0.190740727,-0.094444487,1,0,0,0.5559,optionLeft,40,5955,3,18,0,18,0,1,,,,,,,,,,,,,,,,,,,,,,,,,,,,,,,,,,,,,,,
,,,,,,,,2023-08-16_08h46.51.589,HF_wild_card,2022.2.4,Linux x86_64,60.0528465,60fefcd96595341f18a3a247,64d2fd46c836a06233681665,64dc7ee0daf0b543d8b5d475,,,,,,,ctch,resources/DBN.BMP,resources/DB.BMP,Door3,0.233333376,0.058333326,1,0,0,0.6239,optionRight,70,6025,3,19,0,19,0,1,,,,,,,,,,,,,,,,,,,,,,,,,,,,,,,,,,,,,,,
,,,,,,,,2023-08-16_08h46.51.589,HF_wild_card,2022.2.4,Linux x86_64,60.0528465,60fefcd96595341f18a3a247,64d2fd46c836a06233681665,64dc7ee0daf0b543d8b5d475,,,,,,,decisionTrl,resources/DG.BMP,resources/DB.BMP,Door4,-0.166666667,-0.094444487,1,0,0,0.5887,optionLeft,60,6085,3,20,0,20,0,1,,,,,,,,,,,,,,,,,,,,,,,,,,,,,,,,,,,,,,,
,,,,,,,,2023-08-16_08h46.51.589,HF_wild_card,2022.2.4,Linux x86_64,60.0528465,60fefcd96595341f18a3a247,64d2fd46c836a06233681665,64dc7ee0daf0b543d8b5d475,,,,,,,sngl,resources/DP.BMP,resources/Empty.png,WildCard_NonEx,-0.162962949,-0.079629651,1,0,0,0.5409,optionLeft,55,6140,3,21,0,21,0,1,,,,,,,,,,,,,,,,,,,,,,,,,,,,,,,,,,,,,,,
,,,,,,,,2023-08-16_08h46.51.589,HF_wild_card,2022.2.4,Linux x86_64,60.0528465,60fefcd96595341f18a3a247,64d2fd46c836a06233681665,64dc7ee0daf0b543d8b5d475,,,,,,,sngl,resources/Empty.png,resources/DG.BMP,Door4,0.223148134,0.064814815,1,0,0,0.6061,optionRight,60,6200,3,22,0,22,0,1,,,,,,,,,,,,,,,,,,,,,,,,,,,,,,,,,,,,,,,
,,,,,,,,2023-08-16_08h46.51.589,HF_wild_card,2022.2.4,Linux x86_64,60.0528465,60fefcd96595341f18a3a247,64d2fd46c836a06233681665,64dc7ee0daf0b543d8b5d475,,,,,,,sngl,resources/DP.BMP,resources/Empty.png,WildCard_NonEx,-0.195370356,-0.087962963,1,0,0,0.5411,optionLeft,45,6245,3,23,0,23,0,1,,,,,,,,,,,,,,,,,,,,,,,,,,,,,,,,,,,,,,,
,,,,,,,,2023-08-16_08h46.51.589,HF_wild_card,2022.2.4,Linux x86_64,60.0528465,60fefcd96595341f18a3a247,64d2fd46c836a06233681665,64dc7ee0daf0b543d8b5d475,,,,,,,decisionTrl,resources/DP.BMP,resources/DG.BMP,Door4,0.175925926,0.037962949,1,0,0,0.8076,optionRight,60,6305,3,24,0,24,0,1,,,,,,,,,,,,,,,,,,,,,,,,,,,,,,,,,,,,,,,
,,,,,,,,2023-08-16_08h46.51.589,HF_wild_card,2022.2.4,Linux x86_64,60.0528465,60fefcd96595341f18a3a247,64d2fd46c836a06233681665,64dc7ee0daf0b543d8b5d475,,,,,,,decisionTrl,resources/DP.BMP,resources/DB.BMP,WildCard_NonEx,-0.157407407,-0.081481474,1,0,0,0.6016,optionLeft,55,6360,3,25,0,25,0,1,,,,,,,,,,,,,,,,,,,,,,,,,,,,,,,,,,,,,,,
,,,,,,,,2023-08-16_08h46.51.589,HF_wild_card,2022.2.4,Linux x86_64,60.0528465,60fefcd96595341f18a3a247,64d2fd46c836a06233681665,64dc7ee0daf0b543d8b5d475,,,,,,,sngl,resources/DR.BMP,resources/Empty.png,Door1,-0.169444402,-0.08425928,1,0,0,0.5732,optionLeft,30,6390,3,26,0,26,0,1,,,,,,,,,,,,,,,,,,,,,,,,,,,,,,,,,,,,,,,
,,,,,,,,2023-08-16_08h46.51.589,HF_wild_card,2022.2.4,Linux x86_64,60.0528465,60fefcd96595341f18a3a247,64d2fd46c836a06233681665,64dc7ee0daf0b543d8b5d475,,,,,,,decisionTrl,resources/DB.BMP,resources/DG.BMP,Door4,0.187037079,0.060185185,1,0,0,0.5749,optionRight,60,6450,3,27,0,27,0,1,,,,,,,,,,,,,,,,,,,,,,,,,,,,,,,,,,,,,,,
,,,,,,,,2023-08-16_08h46.51.589,HF_wild_card,2022.2.4,Linux x86_64,60.0528465,60fefcd96595341f18a3a247,64d2fd46c836a06233681665,64dc7ee0daf0b543d8b5d475,,,,,,,decisionTrl,resources/DBN.BMP,resources/DR.BMP,Door1,0.158333319,0.046296296,1,0,0,1.0184,optionRight,30,6480,3,28,0,28,0,1,,,,,,,,,,,,,,,,,,,,,,,,,,,,,,,,,,,,,,,
,,,,,,,,2023-08-16_08h46.51.589,HF_wild_card,2022.2.4,Linux x86_64,60.0528465,60fefcd96595341f18a3a247,64d2fd46c836a06233681665,64dc7ee0daf0b543d8b5d475,,,,,,,decisionTrl,resources/DR.BMP,resources/DP.BMP,Door1,-0.131481453,-0.059259273,1,0,0,0.6038,optionLeft,30,6510,3,29,0,29,0,1,,,,,,,,,,,,,,,,,,,,,,,,,,,,,,,,,,,,,,,
,,,,,,,,2023-08-16_08h46.51.589,HF_wild_card,2022.2.4,Linux x86_64,60.0528465,60fefcd96595341f18a3a247,64d2fd46c836a06233681665,64dc7ee0daf0b543d8b5d475,,,,,,,ctch,resources/DG.BMP,resources/DR.BMP,Door4,-0.15370369,-0.062037044,1,0,0,0.6217,optionLeft,80,6590,3,30,0,30,0,1,,,,,,,,,,,,,,,,,,,,,,,,,,,,,,,,,,,,,,,
,,,,,,,,2023-08-16_08h46.51.589,HF_wild_card,2022.2.4,Linux x86_64,60.0528465,60fefcd96595341f18a3a247,64d2fd46c836a06233681665,64dc7ee0daf0b543d8b5d475,,,,,,,sngl,resources/Empty.png,resources/DBN.BMP,Door2,0.247222265,0.049074067,1,0,0,0.6211,optionRight,20,6610,3,31,0,31,0,1,,,,,,,,,,,,,,,,,,,,,,,,,,,,,,,,,,,,,,,
,,,,,,,,2023-08-16_08h46.51.589,HF_wild_card,2022.2.4,Linux x86_64,60.0528465,60fefcd96595341f18a3a247,64d2fd46c836a06233681665,64dc7ee0daf0b543d8b5d475,,,,,,,decisionTrl,resources/DBN.BMP,resources/DP.BMP,WildCard_NonEx,0.127777806,0.035185178,1,0,0,0.9914,optionRight,55,6665,3,32,0,32,0,1,,,,,,,,,,,,,,,,,,,,,,,,,,,,,,,,,,,,,,,
,,,,,,,,2023-08-16_08h46.51.589,HF_wild_card,2022.2.4,Linux x86_64,60.0528465,60fefcd96595341f18a3a247,64d2fd46c836a06233681665,64dc7ee0daf0b543d8b5d475,,,,,,,sngl,resources/Empty.png,resources/DB.BMP,Door3,0.18240745,0.035185178,1,0,0,0.6079,optionRight,70,6735,3,33,0,33,0,1,,,,,,,,,,,,,,,,,,,,,,,,,,,,,,,,,,,,,,,
,,,,,,,,2023-08-16_08h46.51.589,HF_wild_card,2022.2.4,Linux x86_64,60.0528465,60fefcd96595341f18a3a247,64d2fd46c836a06233681665,64dc7ee0daf0b543d8b5d475,,,,,,,sngl,resources/Empty.png,resources/DP.BMP,WildCard_NonEx,0.253703718,0.064814815,1,0,0,0.6449,optionRight,55,6790,3,34,0,34,0,1,,,,,,,,,,,,,,,,,,,,,,,,,,,,,,,,,,,,,,,
,,,,,,,,2023-08-16_08h46.51.589,HF_wild_card,2022.2.4,Linux x86_64,60.0528465,60fefcd96595341f18a3a247,64d2fd46c836a06233681665,64dc7ee0daf0b543d8b5d475,,,,,,,decisionTrl,resources/DBN.BMP,resources/DR.BMP,Door2,-0.233333305,-0.108333376,1,0,0,1.1174,optionLeft,20,6810,3,35,0,35,0,1,,,,,,,,,,,,,,,,,,,,,,,,,,,,,,,,,,,,,,,
,,,,,,,,2023-08-16_08h46.51.589,HF_wild_card,2022.2.4,Linux x86_64,60.0528465,60fefcd96595341f18a3a247,64d2fd46c836a06233681665,64dc7ee0daf0b543d8b5d475,,,,,,,sngl,resources/DG.BMP,resources/Empty.png,Door4,-0.193518533,-0.12962963,1,0,0,0.5272,optionLeft,80,6890,3,36,0,36,0,1,,,,,,,,,,,,,,,,,,,,,,,,,,,,,,,,,,,,,,,
,,,,,,,,2023-08-16_08h46.51.589,HF_wild_card,2022.2.4,Linux x86_64,60.0528465,60fefcd96595341f18a3a247,64d2fd46c836a06233681665,64dc7ee0daf0b543d8b5d475,,,,,,,decisionTrl,resources/DG.BMP,resources/DP.BMP,Door4,-0.194444444,-0.059259273,1,0,0,1.2422,optionLeft,80,6970,3,37,0,37,0,1,,,,,,,,,,,,,,,,,,,,,,,,,,,,,,,,,,,,,,,
,,,,,,,,2023-08-16_08h46.51.589,HF_wild_card,2022.2.4,Linux x86_64,60.0528465,60fefcd96595341f18a3a247,64d2fd46c836a06233681665,64dc7ee0daf0b543d8b5d475,,,,,,,decisionTrl,resources/DR.BMP,resources/DBN.BMP,Door2,0.211111139,0.058333326,1,0,0,1.0909,optionRight,20,6990,3,38,0,38,0,1,,,,,,,,,,,,,,,,,,,,,,,,,,,,,,,,,,,,,,,
,,,,,,,,2023-08-16_08h46.51.589,HF_wild_card,2022.2.4,Linux x86_64,60.0528465,60fefcd96595341f18a3a247,64d2fd46c836a06233681665,64dc7ee0daf0b543d8b5d475,,,,,,,ctch,resources/DR.BMP,resources/DG.BMP,Door4,0.288888931,0.055555556,1,0,0,0.6535,optionRight,80,7070,3,39,0,39,0,1,,,,,,,,,,,,,,,,,,,,,,,,,,,,,,,,,,,,,,,
,,,,,,,,2023-08-16_08h46.51.589,HF_wild_card,2022.2.4,Linux x86_64,60.0528465,60fefcd96595341f18a3a247,64d2fd46c836a06233681665,64dc7ee0daf0b543d8b5d475,,,,,,,decisionTrl,resources/DR.BMP,resources/DBN.BMP,Door1,-0.175000014,-0.035185178,1,0,0,1.2502,optionLeft,30,7100,3,40,0,40,0,1,,,,,,,,,,,,,,,,,,,,,,,,,,,,,,,,,,,,,,,
,,,,,,,,2023-08-16_08h46.51.589,HF_wild_card,2022.2.4,Linux x86_64,60.0528465,60fefcd96595341f18a3a247,64d2fd46c836a06233681665,64dc7ee0daf0b543d8b5d475,,,,,,,decisionTrl,resources/DG.BMP,resources/DB.BMP,Door4,-0.162037037,-0.072222215,1,0,0,0.6027,optionLeft,60,7160,3,41,0,41,0,1,,,,,,,,,,,,,,,,,,,,,,,,,,,,,,,,,,,,,,,
,,,,,,,,2023-08-16_08h46.51.589,HF_wild_card,2022.2.4,Linux x86_64,60.0528465,60fefcd96595341f18a3a247,64d2fd46c836a06233681665,64dc7ee0daf0b543d8b5d475,,,,,,,decisionTrl,resources/DB.BMP,resources/DG.BMP,Door4,0.255555541,0.061111097,1,0,0,0.5731,optionRight,60,7220,3,42,0,42,0,1,,,,,,,,,,,,,,,,,,,,,,,,,,,,,,,,,,,,,,,
,,,,,,,,2023-08-16_08h46.51.589,HF_wild_card,2022.2.4,Linux x86_64,60.0528465,60fefcd96595341f18a3a247,64d2fd46c836a06233681665,64dc7ee0daf0b543d8b5d475,,,,,,,decisionTrl,resources/DR.BMP,resources/DBN.BMP,Door2,0.207407422,0.056481467,1,0,0,0.8682,optionRight,20,7240,3,43,0,43,0,1,,,,,,,,,,,,,,,,,,,,,,,,,,,,,,,,,,,,,,,
,,,,,,,,2023-08-16_08h46.51.589,HF_wild_card,2022.2.4,Linux x86_64,60.0528465,60fefcd96595341f18a3a247,64d2fd46c836a06233681665,64dc7ee0daf0b543d8b5d475,,,,,,,,,,,,,,,,,,,,,,,,,,2,0,2,0,1,,,,,,,,,,,,,,,,,,,,,,,,,,,,,,,,,,
,,,,,,,,2023-08-16_08h46.51.589,HF_wild_card,2022.2.4,Linux x86_64,60.0528465,60fefcd96595341f18a3a247,64d2fd46c836a06233681665,64dc7ee0daf0b543d8b5d475,,,,,,,ctch,resources/DR.BMP,resources/DG.BMP,Door4,0.25462963,0.062037044,1,0,0,1.1608,optionRight,60,7300,4,0,0,0,0,1,,,,,,,,,,,,,,,,,,,,,,,,,,,,,,,,,,,,,,,
,,,,,,,,2023-08-16_08h46.51.589,HF_wild_card,2022.2.4,Linux x86_64,60.0528465,60fefcd96595341f18a3a247,64d2fd46c836a06233681665,64dc7ee0daf0b543d8b5d475,,,,,,,sngl,resources/Empty.png,resources/DB.BMP,Door3,0.236111111,0.050925926,1,0,0,0.5062,optionRight,70,7370,4,1,0,1,0,1,,,,,,,,,,,,,,,,,,,,,,,,,,,,,,,,,,,,,,,
,,,,,,,,2023-08-16_08h46.51.589,HF_wild_card,2022.2.4,Linux x86_64,60.0528465,60fefcd96595341f18a3a247,64d2fd46c836a06233681665,64dc7ee0daf0b543d8b5d475,,,,,,,ctch,resources/DBN.BMP,resources/DB.BMP,Door3,0.202777792,0.03611109,1,0,0,0.5206,optionRight,70,7440,4,2,0,2,0,1,,,,,,,,,,,,,,,,,,,,,,,,,,,,,,,,,,,,,,,
,,,,,,,,2023-08-16_08h46.51.589,HF_wild_card,2022.2.4,Linux x86_64,60.0528465,60fefcd96595341f18a3a247,64d2fd46c836a06233681665,64dc7ee0daf0b543d8b5d475,,,,,,,sngl,resources/Empty.png,resources/DY.BMP,WildCard_Ex,0.287037037,0.086111104,1,0,0,0.9866,optionRight,55,7495,4,3,0,3,0,1,,,,,,,,,,,,,,,,,,,,,,,,,,,,,,,,,,,,,,,
,,,,,,,,2023-08-16_08h46.51.589,HF_wild_card,2022.2.4,Linux x86_64,60.0528465,60fefcd96595341f18a3a247,64d2fd46c836a06233681665,64dc7ee0daf0b543d8b5d475,,,,,,,ctch,resources/DG.BMP,resources/DR.BMP,Door4,-0.255555541,-0.065740762,1,0,0,0.6883,optionLeft,80,7575,4,4,0,4,0,1,,,,,,,,,,,,,,,,,,,,,,,,,,,,,,,,,,,,,,,
,,,,,,,,2023-08-16_08h46.51.589,HF_wild_card,2022.2.4,Linux x86_64,60.0528465,60fefcd96595341f18a3a247,64d2fd46c836a06233681665,64dc7ee0daf0b543d8b5d475,,,,,,,decisionTrl,resources/DR.BMP,resources/DY.BMP,WildCard_Ex,0.25462963,0.058333326,1,0,0,1.0232,optionRight,45,7620,4,5,0,5,0,1,,,,,,,,,,,,,,,,,,,,,,,,,,,,,,,,,,,,,,,
,,,,,,,,2023-08-16_08h46.51.589,HF_wild_card,2022.2.4,Linux x86_64,60.0528465,60fefcd96595341f18a3a247,64d2fd46c836a06233681665,64dc7ee0daf0b543d8b5d475,,,,,,,ctch,resources/DBN.BMP,resources/DB.BMP,Door3,0.244444459,0.067592586,1,0,0,0.6565,optionRight,70,7690,4,6,0,6,0,1,,,,,,,,,,,,,,,,,,,,,,,,,,,,,,,,,,,,,,,
,,,,,,,,2023-08-16_08h46.51.589,HF_wild_card,2022.2.4,Linux x86_64,60.0528465,60fefcd96595341f18a3a247,64d2fd46c836a06233681665,64dc7ee0daf0b543d8b5d475,,,,,,,decisionTrl,resources/DBN.BMP,resources/DR.BMP,Door1,0.279629672,0.054629608,1,0,0,0.772,optionRight,30,7720,4,7,0,7,0,1,,,,,,,,,,,,,,,,,,,,,,,,,,,,,,,,,,,,,,,
,,,,,,,,2023-08-16_08h46.51.589,HF_wild_card,2022.2.4,Linux x86_64,60.0528465,60fefcd96595341f18a3a247,64d2fd46c836a06233681665,64dc7ee0daf0b543d8b5d475,,,,,,,sngl,resources/Empty.png,resources/DR.BMP,Door1,0.199074074,0.027777778,1,0,0,0.5864,optionRight,30,7750,4,8,0,8,0,1,,,,,,,,,,,,,,,,,,,,,,,,,,,,,,,,,,,,,,,
,,,,,,,,2023-08-16_08h46.51.589,HF_wild_card,2022.2.4,Linux x86_64,60.0528465,60fefcd96595341f18a3a247,64d2fd46c836a06233681665,64dc7ee0daf0b543d8b5d475,,,,,,,sngl,resources/DB.BMP,resources/Empty.png,Door3,-0.199074074,-0.060185185,1,0,0,0.5099,optionLeft,70,7820,4,9,0,9,0,1,,,,,,,,,,,,,,,,,,,,,,,,,,,,,,,,,,,,,,,
,,,,,,,,2023-08-16_08h46.51.589,HF_wild_card,2022.2.4,Linux x86_64,60.0528465,60fefcd96595341f18a3a247,64d2fd46c836a06233681665,64dc7ee0daf0b543d8b5d475,,,,,,,decisionTrl,resources/DB.BMP,resources/DG.BMP,Door4,0.260185171,0.060185185,1,0,0,0.7574,optionRight,60,7880,4,10,0,10,0,1,,,,,,,,,,,,,,,,,,,,,,,,,,,,,,,,,,,,,,,
,,,,,,,,2023-08-16_08h46.51.589,HF_wild_card,2022.2.4,Linux x86_64,60.0528465,60fefcd96595341f18a3a247,64d2fd46c836a06233681665,64dc7ee0daf0b543d8b5d475,,,,,,,sngl,resources/DBN.BMP,resources/Empty.png,Door2,-0.154629601,-0.058333326,1,0,0,0.8211,optionLeft,20,7900,4,11,0,11,0,1,,,,,,,,,,,,,,,,,,,,,,,,,,,,,,,,,,,,,,,
,,,,,,,,2023-08-16_08h46.51.589,HF_wild_card,2022.2.4,Linux x86_64,60.0528465,60fefcd96595341f18a3a247,64d2fd46c836a06233681665,64dc7ee0daf0b543d8b5d475,,,,,,,sngl,resources/DG.BMP,resources/Empty.png,Door4,-0.162962949,-0.058333326,1,0,0,0.5197,optionLeft,60,7960,4,12,0,12,0,1,,,,,,,,,,,,,,,,,,,,,,,,,,,,,,,,,,,,,,,
,,,,,,,,2023-08-16_08h46.51.589,HF_wild_card,2022.2.4,Linux x86_64,60.0528465,60fefcd96595341f18a3a247,64d2fd46c836a06233681665,64dc7ee0daf0b543d8b5d475,,,,,,,ctch,resources/DR.BMP,resources/DG.BMP,Door4,0.259259259,0.063888868,1,0,0,0.5873,optionRight,80,8040,4,13,0,13,0,1,,,,,,,,,,,,,,,,,,,,,,,,,,,,,,,,,,,,,,,
,,,,,,,,2023-08-16_08h46.51.589,HF_wild_card,2022.2.4,Linux x86_64,60.0528465,60fefcd96595341f18a3a247,64d2fd46c836a06233681665,64dc7ee0daf0b543d8b5d475,,,,,,,decisionTrl,resources/DR.BMP,resources/DBN.BMP,Door1,-0.152777778,-0.037037037,1,0,0,0.5015,optionLeft,30,8070,4,14,0,14,0,1,,,,,,,,,,,,,,,,,,,,,,,,,,,,,,,,,,,,,,,
,,,,,,,,2023-08-16_08h46.51.589,HF_wild_card,2022.2.4,Linux x86_64,60.0528465,60fefcd96595341f18a3a247,64d2fd46c836a06233681665,64dc7ee0daf0b543d8b5d475,,,,,,,decisionTrl,resources/DY.BMP,resources/DBN.BMP,WildCard_Ex,-0.206481439,-0.065740762,1,0,0,0.6563,optionLeft,55,8125,4,15,0,15,0,1,,,,,,,,,,,,,,,,,,,,,,,,,,,,,,,,,,,,,,,
,,,,,,,,2023-08-16_08h46.51.589,HF_wild_card,2022.2.4,Linux x86_64,60.0528465,60fefcd96595341f18a3a247,64d2fd46c836a06233681665,64dc7ee0daf0b543d8b5d475,,,,,,,decisionTrl,resources/DR.BMP,resources/DBN.BMP,Door2,0.196296339,0.063888868,1,0,0,1.1791,optionRight,40,8165,4,16,0,16,0,1,,,,,,,,,,,,,,,,,,,,,,,,,,,,,,,,,,,,,,,
,,,,,,,,2023-08-16_08h46.51.589,HF_wild_card,2022.2.4,Linux x86_64,60.0528465,60fefcd96595341f18a3a247,64d2fd46c836a06233681665,64dc7ee0daf0b543d8b5d475,,,,,,,decisionTrl,resources/DB.BMP,resources/DY.BMP,WildCard_Ex,0.324074074,0.088888875,1,0,0,1.08,optionRight,55,8220,4,17,0,17,0,1,,,,,,,,,,,,,,,,,,,,,,,,,,,,,,,,,,,,,,,
,,,,,,,,2023-08-16_08h46.51.589,HF_wild_card,2022.2.4,Linux x86_64,60.0528465,60fefcd96595341f18a3a247,64d2fd46c836a06233681665,64dc7ee0daf0b543d8b5d475,,,,,,,sngl,resources/DR.BMP,resources/Empty.png,Door1,-0.203703704,-0.085185192,1,0,0,0.6179,optionLeft,30,8250,4,18,0,18,0,1,,,,,,,,,,,,,,,,,,,,,,,,,,,,,,,,,,,,,,,
,,,,,,,,2023-08-16_08h46.51.589,HF_wild_card,2022.2.4,Linux x86_64,60.0528465,60fefcd96595341f18a3a247,64d2fd46c836a06233681665,64dc7ee0daf0b543d8b5d475,,,,,,,decisionTrl,resources/DBN.BMP,resources/DY.BMP,WildCard_Ex,0.30277775,0.084259245,1,0,0,0.8106,optionRight,55,8305,4,19,0,19,0,1,,,,,,,,,,,,,,,,,,,,,,,,,,,,,,,,,,,,,,,
,,,,,,,,2023-08-16_08h46.51.589,HF_wild_card,2022.2.4,Linux x86_64,60.0528465,60fefcd96595341f18a3a247,64d2fd46c836a06233681665,64dc7ee0daf0b543d8b5d475,,,,,,,decisionTrl,resources/DBN.BMP,resources/DR.BMP,Door2,-0.199074074,-0.093518504,1,0,0,1.1372,optionLeft,40,8345,4,20,0,20,0,1,,,,,,,,,,,,,,,,,,,,,,,,,,,,,,,,,,,,,,,
,,,,,,,,2023-08-16_08h46.51.589,HF_wild_card,2022.2.4,Linux x86_64,60.0528465,60fefcd96595341f18a3a247,64d2fd46c836a06233681665,64dc7ee0daf0b543d8b5d475,,,,,,,decisionTrl,resources/DG.BMP,resources/DB.BMP,Door4,-0.182407379,-0.059259273,1,0,0,0.7707,optionLeft,60,8405,4,21,0,21,0,1,,,,,,,,,,,,,,,,,,,,,,,,,,,,,,,,,,,,,,,
,,,,,,,,2023-08-16_08h46.51.589,HF_wild_card,2022.2.4,Linux x86_64,60.0528465,60fefcd96595341f18a3a247,64d2fd46c836a06233681665,64dc7ee0daf0b543d8b5d475,,,,,,,sngl,resources/DY.BMP,resources/Empty.png,WildCard_Ex,-0.161111125,-0.079629651,1,0,0,0.7608,optionLeft,55,8460,4,22,0,22,0,1,,,,,,,,,,,,,,,,,,,,,,,,,,,,,,,,,,,,,,,
,,,,,,,,2023-08-16_08h46.51.589,HF_wild_card,2022.2.4,Linux x86_64,60.0528465,60fefcd96595341f18a3a247,64d2fd46c836a06233681665,64dc7ee0daf0b543d8b5d475,,,,,,,decisionTrl,resources/DY.BMP,resources/DR.BMP,WildCard_Ex,-0.154629601,-0.067592586,1,0,0,0.6237,optionLeft,45,8505,4,23,0,23,0,1,,,,,,,,,,,,,,,,,,,,,,,,,,,,,,,,,,,,,,,
,,,,,,,,2023-08-16_08h46.51.589,HF_wild_card,2022.2.4,Linux x86_64,60.0528465,60fefcd96595341f18a3a247,64d2fd46c836a06233681665,64dc7ee0daf0b543d8b5d475,,,,,,,ctch,resources/DG.BMP,resources/DR.BMP,Door4,-0.224999958,-0.10092594,1,0,0,0.7527,optionLeft,80,8585,4,24,0,24,0,1,,,,,,,,,,,,,,,,,,,,,,,,,,,,,,,,,,,,,,,
,,,,,,,,2023-08-16_08h46.51.589,HF_wild_card,2022.2.4,Linux x86_64,60.0528465,60fefcd96595341f18a3a247,64d2fd46c836a06233681665,64dc7ee0daf0b543d8b5d475,,,,,,,decisionTrl,resources/DY.BMP,resources/DB.BMP,Door3,0.224074116,0.057407414,1,0,0,1.1914,optionRight,70,8655,4,25,0,25,0,1,,,,,,,,,,,,,,,,,,,,,,,,,,,,,,,,,,,,,,,
,,,,,,,,2023-08-16_08h46.51.589,HF_wild_card,2022.2.4,Linux x86_64,60.0528465,60fefcd96595341f18a3a247,64d2fd46c836a06233681665,64dc7ee0daf0b543d8b5d475,,,,,,,sngl,resources/Empty.png,resources/DY.BMP,WildCard_Ex,0.205555598,0.039814808,1,0,0,0.6551,optionRight,45,8700,4,26,0,26,0,1,,,,,,,,,,,,,,,,,,,,,,,,,,,,,,,,,,,,,,,
,,,,,,,,2023-08-16_08h46.51.589,HF_wild_card,2022.2.4,Linux x86_64,60.0528465,60fefcd96595341f18a3a247,64d2fd46c836a06233681665,64dc7ee0daf0b543d8b5d475,,,,,,,decisionTrl,resources/DB.BMP,resources/DG.BMP,Door4,0.238888917,0.053703697,1,0,0,0.8203,optionRight,80,8780,4,27,0,27,0,1,,,,,,,,,,,,,,,,,,,,,,,,,,,,,,,,,,,,,,,
,,,,,,,,2023-08-16_08h46.51.589,HF_wild_card,2022.2.4,Linux x86_64,60.0528465,60fefcd96595341f18a3a247,64d2fd46c836a06233681665,64dc7ee0daf0b543d8b5d475,,,,,,,decisionTrl,resources/DG.BMP,resources/DB.BMP,Door4,-0.250925912,-0.087037051,1,0,0,0.673,optionLeft,60,8840,4,28,0,28,0,1,,,,,,,,,,,,,,,,,,,,,,,,,,,,,,,,,,,,,,,
,,,,,,,,2023-08-16_08h46.51.589,HF_wild_card,2022.2.4,Linux x86_64,60.0528465,60fefcd96595341f18a3a247,64d2fd46c836a06233681665,64dc7ee0daf0b543d8b5d475,,,,,,,decisionTrl,resources/DB.BMP,resources/DG.BMP,Door4,0.324074074,0.042592578,1,0,0,0.9901,optionRight,60,8900,4,29,0,29,0,1,,,,,,,,,,,,,,,,,,,,,,,,,,,,,,,,,,,,,,,
,,,,,,,,2023-08-16_08h46.51.589,HF_wild_card,2022.2.4,Linux x86_64,60.0528465,60fefcd96595341f18a3a247,64d2fd46c836a06233681665,64dc7ee0daf0b543d8b5d475,,,,,,,ctch,resources/DB.BMP,resources/DBN.BMP,Door3,-0.181481467,-0.093518504,1,0,0,0.6723,optionLeft,70,8970,4,30,0,30,0,1,,,,,,,,,,,,,,,,,,,,,,,,,,,,,,,,,,,,,,,
,,,,,,,,2023-08-16_08h46.51.589,HF_wild_card,2022.2.4,Linux x86_64,60.0528465,60fefcd96595341f18a3a247,64d2fd46c836a06233681665,64dc7ee0daf0b543d8b5d475,,,,,,,decisionTrl,resources/DY.BMP,resources/DG.BMP,Door4,0.235185199,0.056481467,1,0,0,1.2952,optionRight,80,9050,4,31,0,31,0,1,,,,,,,,,,,,,,,,,,,,,,,,,,,,,,,,,,,,,,,
,,,,,,,,2023-08-16_08h46.51.589,HF_wild_card,2022.2.4,Linux x86_64,60.0528465,60fefcd96595341f18a3a247,64d2fd46c836a06233681665,64dc7ee0daf0b543d8b5d475,,,,,,,ctch,resources/DB.BMP,resources/DBN.BMP,Door3,-0.268518519,-0.086111104,1,0,0,1.0629,optionLeft,70,9120,4,32,0,32,0,1,,,,,,,,,,,,,,,,,,,,,,,,,,,,,,,,,,,,,,,
,,,,,,,,2023-08-16_08h46.51.589,HF_wild_card,2022.2.4,Linux x86_64,60.0528465,60fefcd96595341f18a3a247,64d2fd46c836a06233681665,64dc7ee0daf0b543d8b5d475,,,,,,,decisionTrl,resources/DR.BMP,resources/DBN.BMP,Door2,0.213888875,0.01666666,1,0,0,1.1537,optionRight,40,9160,4,33,0,33,0,1,,,,,,,,,,,,,,,,,,,,,,,,,,,,,,,,,,,,,,,
,,,,,,,,2023-08-16_08h46.51.589,HF_wild_card,2022.2.4,Linux x86_64,60.0528465,60fefcd96595341f18a3a247,64d2fd46c836a06233681665,64dc7ee0daf0b543d8b5d475,,,,,,,decisionTrl,resources/DG.BMP,resources/DB.BMP,Door4,-0.262036995,-0.027777778,1,0,0,1.3722,optionLeft,60,9220,4,34,0,34,0,1,,,,,,,,,,,,,,,,,,,,,,,,,,,,,,,,,,,,,,,
,,,,,,,,2023-08-16_08h46.51.589,HF_wild_card,2022.2.4,Linux x86_64,60.0528465,60fefcd96595341f18a3a247,64d2fd46c836a06233681665,64dc7ee0daf0b543d8b5d475,,,,,,,decisionTrl,resources/DBN.BMP,resources/DR.BMP,Door2,-0.270370342,-0.066666674,1,0,0,0.9712,optionLeft,40,9260,4,35,0,35,0,1,,,,,,,,,,,,,,,,,,,,,,,,,,,,,,,,,,,,,,,
,,,,,,,,2023-08-16_08h46.51.589,HF_wild_card,2022.2.4,Linux x86_64,60.0528465,60fefcd96595341f18a3a247,64d2fd46c836a06233681665,64dc7ee0daf0b543d8b5d475,,,,,,,sngl,resources/Empty.png,resources/DBN.BMP,Door2,0.271296325,0.049074067,1,0,0,0.7055,optionRight,40,9300,4,36,0,36,0,1,,,,,,,,,,,,,,,,,,,,,,,,,,,,,,,,,,,,,,,
,,,,,,,,2023-08-16_08h46.51.589,HF_wild_card,2022.2.4,Linux x86_64,60.0528465,60fefcd96595341f18a3a247,64d2fd46c836a06233681665,64dc7ee0daf0b543d8b5d475,,,,,,,decisionTrl,resources/DR.BMP,resources/DBN.BMP,Door2,0.289814843,0.075925933,1,0,0,0.9255,optionRight,20,9320,4,37,0,37,0,1,,,,,,,,,,,,,,,,,,,,,,,,,,,,,,,,,,,,,,,
,,,,,,,,2023-08-16_08h46.51.589,HF_wild_card,2022.2.4,Linux x86_64,60.0528465,60fefcd96595341f18a3a247,64d2fd46c836a06233681665,64dc7ee0daf0b543d8b5d475,,,,,,,decisionTrl,resources/DB.BMP,resources/DG.BMP,Door4,0.270370413,0.069444444,1,0,0,0.755,optionRight,80,9400,4,38,0,38,0,1,,,,,,,,,,,,,,,,,,,,,,,,,,,,,,,,,,,,,,,
,,,,,,,,2023-08-16_08h46.51.589,HF_wild_card,2022.2.4,Linux x86_64,60.0528465,60fefcd96595341f18a3a247,64d2fd46c836a06233681665,64dc7ee0daf0b543d8b5d475,,,,,,,decisionTrl,resources/DG.BMP,resources/DB.BMP,Door4,-0.227777764,-0.087037051,1,0,0,0.555,optionLeft,60,9460,4,39,0,39,0,1,,,,,,,,,,,,,,,,,,,,,,,,,,,,,,,,,,,,,,,
,,,,,,,,2023-08-16_08h46.51.589,HF_wild_card,2022.2.4,Linux x86_64,60.0528465,60fefcd96595341f18a3a247,64d2fd46c836a06233681665,64dc7ee0daf0b543d8b5d475,,,,,,,sngl,resources/Empty.png,resources/DG.BMP,Door4,0.301851908,0.079629616,1,0,0,0.5556,optionRight,80,9540,4,40,0,40,0,1,,,,,,,,,,,,,,,,,,,,,,,,,,,,,,,,,,,,,,,
,,,,,,,,2023-08-16_08h46.51.589,HF_wild_card,2022.2.4,Linux x86_64,60.0528465,60fefcd96595341f18a3a247,64d2fd46c836a06233681665,64dc7ee0daf0b543d8b5d475,,,,,,,sngl,resources/DY.BMP,resources/Empty.png,WildCard_Ex,-0.202777792,-0.087037051,1,0,0,0.6391,optionLeft,45,9585,4,41,0,41,0,1,,,,,,,,,,,,,,,,,,,,,,,,,,,,,,,,,,,,,,,
,,,,,,,,2023-08-16_08h46.51.589,HF_wild_card,2022.2.4,Linux x86_64,60.0528465,60fefcd96595341f18a3a247,64d2fd46c836a06233681665,64dc7ee0daf0b543d8b5d475,,,,,,,decisionTrl,resources/DG.BMP,resources/DY.BMP,Door4,-0.226851852,-0.100000028,1,0,0,0.7717,optionLeft,80,9665,4,42,0,42,0,1,,,,,,,,,,,,,,,,,,,,,,,,,,,,,,,,,,,,,,,
,,,,,,,,2023-08-16_08h46.51.589,HF_wild_card,2022.2.4,Linux x86_64,60.0528465,60fefcd96595341f18a3a247,64d2fd46c836a06233681665,64dc7ee0daf0b543d8b5d475,,,,,,,decisionTrl,resources/DBN.BMP,resources/DR.BMP,Door1,0.259259259,0.045370349,1,0,0,0.7224,optionRight,30,9695,4,43,0,43,0,1,,,,,,,,,,,,,,,,,,,,,,,,,,,,,,,,,,,,,,,
,,,,,,,,2023-08-16_08h46.51.589,HF_wild_card,2022.2.4,Linux x86_64,60.0528465,60fefcd96595341f18a3a247,64d2fd46c836a06233681665,64dc7ee0daf0b543d8b5d475,,,,,,,,,,,,,,,,,,,,,,,,,,3,0,3,0,1,,,,,,,,,,,,,,,,,,,,,,,,,,,,,,,,,,
,,,,,,,,2023-08-16_08h46.51.589,HF_wild_card,2022.2.4,Linux x86_64,60.0528465,60fefcd96595341f18a3a247,64d2fd46c836a06233681665,64dc7ee0daf0b543d8b5d475,,,,,,,sngl,resources/Empty.png,resources/DY.BMP,WildCard_Ex,0.359259288,0.048148155,1,0,0,1.9618,optionRight,55,9750,5,0,0,0,0,1,,,,,,,,,,,,,,,,,,,,,,,,,,,,,,,,,,,,,,,
,,,,,,,,2023-08-16_08h46.51.589,HF_wild_card,2022.2.4,Linux x86_64,60.0528465,60fefcd96595341f18a3a247,64d2fd46c836a06233681665,64dc7ee0daf0b543d8b5d475,,,,,,,sngl,resources/Empty.png,resources/DG.BMP,Door4,0.30277775,0.079629616,1,0,0,0.5543,optionRight,60,9810,5,1,0,1,0,1,,,,,,,,,,,,,,,,,,,,,,,,,,,,,,,,,,,,,,,
,,,,,,,,2023-08-16_08h46.51.589,HF_wild_card,2022.2.4,Linux x86_64,60.0528465,60fefcd96595341f18a3a247,64d2fd46c836a06233681665,64dc7ee0daf0b543d8b5d475,,,,,,,ctch,resources/DB.BMP,resources/DBN.BMP,Door3,-0.214814787,-0.062037044,1,0,0,0.6951,optionLeft,70,9880,5,2,0,2,0,1,,,,,,,,,,,,,,,,,,,,,,,,,,,,,,,,,,,,,,,
,,,,,,,,2023-08-16_08h46.51.589,HF_wild_card,2022.2.4,Linux x86_64,60.0528465,60fefcd96595341f18a3a247,64d2fd46c836a06233681665,64dc7ee0daf0b543d8b5d475,,,,,,,decisionTrl,resources/DBN.BMP,resources/DY.BMP,WildCard_Ex,0.275925954,0.070370356,1,0,0,0.5946,optionRight,45,9925,5,3,0,3,0,1,,,,,,,,,,,,,,,,,,,,,,,,,,,,,,,,,,,,,,,
,,,,,,,,2023-08-16_08h46.51.589,HF_wild_card,2022.2.4,Linux x86_64,60.0528465,60fefcd96595341f18a3a247,64d2fd46c836a06233681665,64dc7ee0daf0b543d8b5d475,,,,,,,sngl,resources/DBN.BMP,resources/Empty.png,Door2,-0.203703704,-0.109259288,1,0,0,1.7884,optionLeft,40,9965,5,4,0,4,0,1,,,,,,,,,,,,,,,,,,,,,,,,,,,,,,,,,,,,,,,
,,,,,,,,2023-08-16_08h46.51.589,HF_wild_card,2022.2.4,Linux x86_64,60.0528465,60fefcd96595341f18a3a247,64d2fd46c836a06233681665,64dc7ee0daf0b543d8b5d475,,,,,,,decisionTrl,resources/DBN.BMP,resources/DR.BMP,Door2,-0.292592578,-0.091666681,1,0,0,0.9392,optionLeft,40,10005,5,5,0,5,0,1,,,,,,,,,,,,,,,,,,,,,,,,,,,,,,,,,,,,,,,
,,,,,,,,2023-08-16_08h46.51.589,HF_wild_card,2022.2.4,Linux x86_64,60.0528465,60fefcd96595341f18a3a247,64d2fd46c836a06233681665,64dc7ee0daf0b543d8b5d475,,,,,,,decisionTrl,resources/DB.BMP,resources/DY.BMP,Door3,-0.181481467,-0.036111125,1,0,0,0.7853,optionLeft,70,10075,5,6,0,6,0,1,,,,,,,,,,,,,,,,,,,,,,,,,,,,,,,,,,,,,,,
,,,,,,,,2023-08-16_08h46.51.589,HF_wild_card,2022.2.4,Linux x86_64,60.0528465,60fefcd96595341f18a3a247,64d2fd46c836a06233681665,64dc7ee0daf0b543d8b5d475,,,,,,,decisionTrl,resources/DR.BMP,resources/DBN.BMP,Door2,0.25,0.079629616,1,0,0,0.9391,optionRight,20,10095,5,7,0,7,0,1,,,,,,,,,,,,,,,,,,,,,,,,,,,,,,,,,,,,,,,
,,,,,,,,2023-08-16_08h46.51.589,HF_wild_card,2022.2.4,Linux x86_64,60.0528465,60fefcd96595341f18a3a247,64d2fd46c836a06233681665,64dc7ee0daf0b543d8b5d475,,,,,,,decisionTrl,resources/DBN.BMP,resources/DR.BMP,Door2,-0.240740741,-0.071296303,1,0,0,1.1241,optionLeft,20,10115,5,8,0,8,0,1,,,,,,,,,,,,,,,,,,,,,,,,,,,,,,,,,,,,,,,
,,,,,,,,2023-08-16_08h46.51.589,HF_wild_card,2022.2.4,Linux x86_64,60.0528465,60fefcd96595341f18a3a247,64d2fd46c836a06233681665,64dc7ee0daf0b543d8b5d475,,,,,,,decisionTrl,resources/DR.BMP,resources/DBN.BMP,Door1,-0.243518476,-0.068518533,1,0,0,0.6719,optionLeft,30,10145,5,9,0,9,0,1,,,,,,,,,,,,,,,,,,,,,,,,,,,,,,,,,,,,,,,
,,,,,,,,2023-08-16_08h46.51.589,HF_wild_card,2022.2.4,Linux x86_64,60.0528465,60fefcd96595341f18a3a247,64d2fd46c836a06233681665,64dc7ee0daf0b543d8b5d475,,,,,,,decisionTrl,resources/DG.BMP,resources/DY.BMP,Door4,-0.199999986,-0.031481496,1,0,0,0.7923,optionLeft,60,10205,5,10,0,10,0,1,,,,,,,,,,,,,,,,,,,,,,,,,,,,,,,,,,,,,,,
,,,,,,,,2023-08-16_08h46.51.589,HF_wild_card,2022.2.4,Linux x86_64,60.0528465,60fefcd96595341f18a3a247,64d2fd46c836a06233681665,64dc7ee0daf0b543d8b5d475,,,,,,,sngl,resources/Empty.png,resources/DY.BMP,WildCard_Ex,0.275925954,0.074999986,1,0,0,0.6084,optionRight,45,10250,5,11,0,11,0,1,,,,,,,,,,,,,,,,,,,,,,,,,,,,,,,,,,,,,,,
,,,,,,,,2023-08-16_08h46.51.589,HF_wild_card,2022.2.4,Linux x86_64,60.0528465,60fefcd96595341f18a3a247,64d2fd46c836a06233681665,64dc7ee0daf0b543d8b5d475,,,,,,,sngl,resources/Empty.png,resources/DB.BMP,Door3,0.24537037,0.053703697,1,0,0,0.5764,optionRight,70,10320,5,12,0,12,0,1,,,,,,,,,,,,,,,,,,,,,,,,,,,,,,,,,,,,,,,
,,,,,,,,2023-08-16_08h46.51.589,HF_wild_card,2022.2.4,Linux x86_64,60.0528465,60fefcd96595341f18a3a247,64d2fd46c836a06233681665,64dc7ee0daf0b543d8b5d475,,,,,,,ctch,resources/DG.BMP,resources/DR.BMP,Door4,-0.222222222,-0.069444444,1,0,0,0.5874,optionLeft,60,10380,5,13,0,13,0,1,,,,,,,,,,,,,,,,,,,,,,,,,,,,,,,,,,,,,,,
,,,,,,,,2023-08-16_08h46.51.589,HF_wild_card,2022.2.4,Linux x86_64,60.0528465,60fefcd96595341f18a3a247,64d2fd46c836a06233681665,64dc7ee0daf0b543d8b5d475,,,,,,,decisionTrl,resources/DB.BMP,resources/DG.BMP,Door4,0.247222265,0.065740727,1,0,0,0.7863,optionRight,80,10460,5,14,0,14,0,1,,,,,,,,,,,,,,,,,,,,,,,,,,,,,,,,,,,,,,,
,,,,,,,,2023-08-16_08h46.51.589,HF_wild_card,2022.2.4,Linux x86_64,60.0528465,60fefcd96595341f18a3a247,64d2fd46c836a06233681665,64dc7ee0daf0b543d8b5d475,,,,,,,sngl,resources/DB.BMP,resources/Empty.png,Door3,-0.184259273,-0.086111104,1,0,0,0.5727,optionLeft,70,10530,5,15,0,15,0,1,,,,,,,,,,,,,,,,,,,,,,,,,,,,,,,,,,,,,,,
,,,,,,,,2023-08-16_08h46.51.589,HF_wild_card,2022.2.4,Linux x86_64,60.0528465,60fefcd96595341f18a3a247,64d2fd46c836a06233681665,64dc7ee0daf0b543d8b5d475,,,,,,,sngl,resources/Empty.png,resources/DR.BMP,Door1,0.213888875,0.061111097,1,0,0,1.0693,optionRight,30,10560,5,16,0,16,0,1,,,,,,,,,,,,,,,,,,,,,,,,,,,,,,,,,,,,,,,
,,,,,,,,2023-08-16_08h46.51.589,HF_wild_card,2022.2.4,Linux x86_64,60.0528465,60fefcd96595341f18a3a247,64d2fd46c836a06233681665,64dc7ee0daf0b543d8b5d475,,,,,,,ctch,resources/DR.BMP,resources/DG.BMP,Door4,0.248148176,0.072222215,1,0,0,0.7214,optionRight,60,10620,5,17,0,17,0,1,,,,,,,,,,,,,,,,,,,,,,,,,,,,,,,,,,,,,,,
,,,,,,,,2023-08-16_08h46.51.589,HF_wild_card,2022.2.4,Linux x86_64,60.0528465,60fefcd96595341f18a3a247,64d2fd46c836a06233681665,64dc7ee0daf0b543d8b5d475,,,,,,,ctch,resources/DB.BMP,resources/DBN.BMP,Door3,-0.191666638,-0.081481474,1,0,0,0.586,optionLeft,70,10690,5,18,0,18,0,1,,,,,,,,,,,,,,,,,,,,,,,,,,,,,,,,,,,,,,,
,,,,,,,,2023-08-16_08h46.51.589,HF_wild_card,2022.2.4,Linux x86_64,60.0528465,60fefcd96595341f18a3a247,64d2fd46c836a06233681665,64dc7ee0daf0b543d8b5d475,,,,,,,decisionTrl,resources/DY.BMP,resources/DBN.BMP,WildCard_Ex,-0.180555556,-0.075925933,1,0,0,0.5065,optionLeft,45,10735,5,19,0,19,0,1,,,,,,,,,,,,,,,,,,,,,,,,,,,,,,,,,,,,,,,
,,,,,,,,2023-08-16_08h46.51.589,HF_wild_card,2022.2.4,Linux x86_64,60.0528465,60fefcd96595341f18a3a247,64d2fd46c836a06233681665,64dc7ee0daf0b543d8b5d475,,,,,,,decisionTrl,resources/DB.BMP,resources/DG.BMP,Door4,0.275925954,0.080555563,1,0,0,0.607,optionRight,60,10795,5,20,0,20,0,1,,,,,,,,,,,,,,,,,,,,,,,,,,,,,,,,,,,,,,,
,,,,,,,,2023-08-16_08h46.51.589,HF_wild_card,2022.2.4,Linux x86_64,60.0528465,60fefcd96595341f18a3a247,64d2fd46c836a06233681665,64dc7ee0daf0b543d8b5d475,,,,,,,decisionTrl,resources/DBN.BMP,resources/DR.BMP,Door1,0.271296325,0.074999986,1,0,0,0.6621,optionRight,30,10825,5,21,0,21,0,1,,,,,,,,,,,,,,,,,,,,,,,,,,,,,,,,,,,,,,,
,,,,,,,,2023-08-16_08h46.51.589,HF_wild_card,2022.2.4,Linux x86_64,60.0528465,60fefcd96595341f18a3a247,64d2fd46c836a06233681665,64dc7ee0daf0b543d8b5d475,,,,,,,decisionTrl,resources/DR.BMP,resources/DY.BMP,WildCard_Ex,0.284259302,0.103703711,1,0,0,1.1372,optionRight,55,10880,5,22,0,22,0,1,,,,,,,,,,,,,,,,,,,,,,,,,,,,,,,,,,,,,,,
,,,,,,,,2023-08-16_08h46.51.589,HF_wild_card,2022.2.4,Linux x86_64,60.0528465,60fefcd96595341f18a3a247,64d2fd46c836a06233681665,64dc7ee0daf0b543d8b5d475,,,,,,,decisionTrl,resources/DY.BMP,resources/DB.BMP,WildCard_Ex,-0.200925898,-0.078703704,1,0,0,0.7038,optionLeft,55,10935,5,23,0,23,0,1,,,,,,,,,,,,,,,,,,,,,,,,,,,,,,,,,,,,,,,
,,,,,,,,2023-08-16_08h46.51.589,HF_wild_card,2022.2.4,Linux x86_64,60.0528465,60fefcd96595341f18a3a247,64d2fd46c836a06233681665,64dc7ee0daf0b543d8b5d475,,,,,,,decisionTrl,resources/DG.BMP,resources/DB.BMP,Door4,-0.252777735,-0.102777764,1,0,0,1.2383,optionLeft,80,11015,5,24,0,24,0,1,,,,,,,,,,,,,,,,,,,,,,,,,,,,,,,,,,,,,,,
,,,,,,,,2023-08-16_08h46.51.589,HF_wild_card,2022.2.4,Linux x86_64,60.0528465,60fefcd96595341f18a3a247,64d2fd46c836a06233681665,64dc7ee0daf0b543d8b5d475,,,,,,,decisionTrl,resources/DBN.BMP,resources/DR.BMP,Door2,-0.200925898,-0.053703697,1,0,0,1.7881,optionLeft,20,11035,5,25,0,25,0,1,,,,,,,,,,,,,,,,,,,,,,,,,,,,,,,,,,,,,,,
,,,,,,,,2023-08-16_08h46.51.589,HF_wild_card,2022.2.4,Linux x86_64,60.0528465,60fefcd96595341f18a3a247,64d2fd46c836a06233681665,64dc7ee0daf0b543d8b5d475,,,,,,,sngl,resources/DR.BMP,resources/Empty.png,Door1,-0.19722218,-0.070370392,1,0,0,0.6241,optionLeft,30,11065,5,26,0,26,0,1,,,,,,,,,,,,,,,,,,,,,,,,,,,,,,,,,,,,,,,
,,,,,,,,2023-08-16_08h46.51.589,HF_wild_card,2022.2.4,Linux x86_64,60.0528465,60fefcd96595341f18a3a247,64d2fd46c836a06233681665,64dc7ee0daf0b543d8b5d475,,,,,,,decisionTrl,resources/DR.BMP,resources/DBN.BMP,Door1,-0.151851866,-0.08425928,1,0,0,0.5865,optionLeft,30,11095,5,27,0,27,0,1,,,,,,,,,,,,,,,,,,,,,,,,,,,,,,,,,,,,,,,
,,,,,,,,2023-08-16_08h46.51.589,HF_wild_card,2022.2.4,Linux x86_64,60.0528465,60fefcd96595341f18a3a247,64d2fd46c836a06233681665,64dc7ee0daf0b543d8b5d475,,,,,,,ctch,resources/DBN.BMP,resources/DB.BMP,Door3,0.234259288,0.046296296,1,0,0,0.623,optionRight,70,11165,5,28,0,28,0,1,,,,,,,,,,,,,,,,,,,,,,,,,,,,,,,,,,,,,,,
,,,,,,,,2023-08-16_08h46.51.589,HF_wild_card,2022.2.4,Linux x86_64,60.0528465,60fefcd96595341f18a3a247,64d2fd46c836a06233681665,64dc7ee0daf0b543d8b5d475,,,,,,,decisionTrl,resources/DG.BMP,resources/DB.BMP,Door4,-0.251851824,-0.113888917,1,0,0,0.7544,optionLeft,60,11225,5,29,0,29,0,1,,,,,,,,,,,,,,,,,,,,,,,,,,,,,,,,,,,,,,,
,,,,,,,,2023-08-16_08h46.51.589,HF_wild_card,2022.2.4,Linux x86_64,60.0528465,60fefcd96595341f18a3a247,64d2fd46c836a06233681665,64dc7ee0daf0b543d8b5d475,,,,,,,sngl,resources/DG.BMP,resources/Empty.png,Door4,-0.17777775,-0.092592593,1,0,0,0.5394,optionLeft,80,11305,5,30,0,30,0,1,,,,,,,,,,,,,,,,,,,,,,,,,,,,,,,,,,,,,,,
,,,,,,,,2023-08-16_08h46.51.589,HF_wild_card,2022.2.4,Linux x86_64,60.0528465,60fefcd96595341f18a3a247,64d2fd46c836a06233681665,64dc7ee0daf0b543d8b5d475,,,,,,,decisionTrl,resources/DY.BMP,resources/DG.BMP,Door4,0.228703746,0.053703697,1,0,0,0.7053,optionRight,80,11385,5,31,0,31,0,1,,,,,,,,,,,,,,,,,,,,,,,,,,,,,,,,,,,,,,,
,,,,,,,,2023-08-16_08h46.51.589,HF_wild_card,2022.2.4,Linux x86_64,60.0528465,60fefcd96595341f18a3a247,64d2fd46c836a06233681665,64dc7ee0daf0b543d8b5d475,,,,,,,decisionTrl,resources/DB.BMP,resources/DG.BMP,Door4,0.264814801,0.073148127,1,0,0,0.6232,optionRight,80,11465,5,32,0,32,0,1,,,,,,,,,,,,,,,,,,,,,,,,,,,,,,,,,,,,,,,
,,,,,,,,2023-08-16_08h46.51.589,HF_wild_card,2022.2.4,Linux x86_64,60.0528465,60fefcd96595341f18a3a247,64d2fd46c836a06233681665,64dc7ee0daf0b543d8b5d475,,,,,,,sngl,resources/DY.BMP,resources/Empty.png,WildCard_Ex,-0.199074074,-0.068518533,1,0,0,0.5412,optionLeft,45,11510,5,33,0,33,0,1,,,,,,,,,,,,,,,,,,,,,,,,,,,,,,,,,,,,,,,
,,,,,,,,2023-08-16_08h46.51.589,HF_wild_card,2022.2.4,Linux x86_64,60.0528465,60fefcd96595341f18a3a247,64d2fd46c836a06233681665,64dc7ee0daf0b543d8b5d475,,,,,,,ctch,resources/DBN.BMP,resources/DB.BMP,Door3,0.234259288,0.034259266,1,0,0,0.674,optionRight,70,11580,5,34,0,34,0,1,,,,,,,,,,,,,,,,,,,,,,,,,,,,,,,,,,,,,,,
,,,,,,,,2023-08-16_08h46.51.589,HF_wild_card,2022.2.4,Linux x86_64,60.0528465,60fefcd96595341f18a3a247,64d2fd46c836a06233681665,64dc7ee0daf0b543d8b5d475,,,,,,,decisionTrl,resources/DG.BMP,resources/DB.BMP,Door4,-0.209259245,-0.089814822,1,0,0,0.7711,optionLeft,80,11660,5,35,0,35,0,1,,,,,,,,,,,,,,,,,,,,,,,,,,,,,,,,,,,,,,,
,,,,,,,,2023-08-16_08h46.51.589,HF_wild_card,2022.2.4,Linux x86_64,60.0528465,60fefcd96595341f18a3a247,64d2fd46c836a06233681665,64dc7ee0daf0b543d8b5d475,,,,,,,ctch,resources/DG.BMP,resources/DR.BMP,Door4,-0.183333291,-0.062037044,1,0,0,0.5537,optionLeft,80,11740,5,36,0,36,0,1,,,,,,,,,,,,,,,,,,,,,,,,,,,,,,,,,,,,,,,
,,,,,,,,2023-08-16_08h46.51.589,HF_wild_card,2022.2.4,Linux x86_64,60.0528465,60fefcd96595341f18a3a247,64d2fd46c836a06233681665,64dc7ee0daf0b543d8b5d475,,,,,,,ctch,resources/DR.BMP,resources/DG.BMP,Door4,0.255555541,0.072222215,1,0,0,0.5302,optionRight,80,11820,5,37,0,37,0,1,,,,,,,,,,,,,,,,,,,,,,,,,,,,,,,,,,,,,,,
,,,,,,,,2023-08-16_08h46.51.589,HF_wild_card,2022.2.4,Linux x86_64,60.0528465,60fefcd96595341f18a3a247,64d2fd46c836a06233681665,64dc7ee0daf0b543d8b5d475,,,,,,,decisionTrl,resources/DG.BMP,resources/DB.BMP,Door4,-0.199999986,-0.081481474,1,0,0,0.5341,optionLeft,60,11880,5,38,0,38,0,1,,,,,,,,,,,,,,,,,,,,,,,,,,,,,,,,,,,,,,,
,,,,,,,,2023-08-16_08h46.51.589,HF_wild_card,2022.2.4,Linux x86_64,60.0528465,60fefcd96595341f18a3a247,64d2fd46c836a06233681665,64dc7ee0daf0b543d8b5d475,,,,,,,sngl,resources/DY.BMP,resources/Empty.png,WildCard_Ex,-0.204629616,-0.089814822,1,0,0,0.5163,optionLeft,55,11935,5,39,0,39,0,1,,,,,,,,,,,,,,,,,,,,,,,,,,,,,,,,,,,,,,,
,,,,,,,,2023-08-16_08h46.51.589,HF_wild_card,2022.2.4,Linux x86_64,60.0528465,60fefcd96595341f18a3a247,64d2fd46c836a06233681665,64dc7ee0daf0b543d8b5d475,,,,,,,decisionTrl,resources/DR.BMP,resources/DBN.BMP,Door1,-0.202777792,-0.097222222,1,0,0,0.5561,optionLeft,30,11965,5,40,0,40,0,1,,,,,,,,,,,,,,,,,,,,,,,,,,,,,,,,,,,,,,,
,,,,,,,,2023-08-16_08h46.51.589,HF_wild_card,2022.2.4,Linux x86_64,60.0528465,60fefcd96595341f18a3a247,64d2fd46c836a06233681665,64dc7ee0daf0b543d8b5d475,,,,,,,sngl,resources/Empty.png,resources/DBN.BMP,Door2,0.212962963,0.060185185,1,0,0,0.5741,optionRight,20,11985,5,41,0,41,0,1,,,,,,,,,,,,,,,,,,,,,,,,,,,,,,,,,,,,,,,
,,,,,,,,2023-08-16_08h46.51.589,HF_wild_card,2022.2.4,Linux x86_64,60.0528465,60fefcd96595341f18a3a247,64d2fd46c836a06233681665,64dc7ee0daf0b543d8b5d475,,,,,,,decisionTrl,resources/DY.BMP,resources/DR.BMP,WildCard_Ex,-0.161111125,-0.057407414,1,0,0,0.7017,optionLeft,45,12030,5,42,0,42,0,1,,,,,,,,,,,,,,,,,,,,,,,,,,,,,,,,,,,,,,,
,,,,,,,,2023-08-16_08h46.51.589,HF_wild_card,2022.2.4,Linux x86_64,60.0528465,60fefcd96595341f18a3a247,64d2fd46c836a06233681665,64dc7ee0daf0b543d8b5d475,,,,,,,decisionTrl,resources/DB.BMP,resources/DG.BMP,Door4,0.350926011,0.087962963,1,0,0,0.9542,optionRight,60,12090,5,43,0,43,0,1,,,,,,,,,,,,,,,,,,,,,,,,,,,,,,,,,,,,,,,
,,,,,,,,2023-08-16_08h46.51.589,HF_wild_card,2022.2.4,Linux x86_64,60.0528465,60fefcd96595341f18a3a247,64d2fd46c836a06233681665,64dc7ee0daf0b543d8b5d475,,,,,,,,,,,,,,,,,,,,,,,,,,4,0,4,0,1,,,,,,,,,,,,,,,,,,,,,,,,,,,,,,,,,,
,,,,,,,,2023-08-16_08h46.51.589,HF_wild_card,2022.2.4,Linux x86_64,60.0528465,60fefcd96595341f18a3a247,64d2fd46c836a06233681665,64dc7ee0daf0b543d8b5d475,,,,,,,decisionTrl,resources/DG.BMP,resources/DB.BMP,Door4,-0.307407414,-0.000925947,1,0,0,3.3775,optionLeft,60,12150,6,0,0,0,0,1,,,,,,,,,,,,,,,,,,,,,,,,,,,,,,,,,,,,,,,
,,,,,,,,2023-08-16_08h46.51.589,HF_wild_card,2022.2.4,Linux x86_64,60.0528465,60fefcd96595341f18a3a247,64d2fd46c836a06233681665,64dc7ee0daf0b543d8b5d475,,,,,,,ctch,resources/DB.BMP,resources/DBN.BMP,Door3,-0.179629644,-0.025925919,1,0,0,0.6889,optionLeft,70,12220,6,1,0,1,0,1,,,,,,,,,,,,,,,,,,,,,,,,,,,,,,,,,,,,,,,
,,,,,,,,2023-08-16_08h46.51.589,HF_wild_card,2022.2.4,Linux x86_64,60.0528465,60fefcd96595341f18a3a247,64d2fd46c836a06233681665,64dc7ee0daf0b543d8b5d475,,,,,,,ctch,resources/DR.BMP,resources/DG.BMP,Door4,0.265740783,0.051851838,1,0,0,0.6218,optionRight,80,12300,6,2,0,2,0,1,,,,,,,,,,,,,,,,,,,,,,,,,,,,,,,,,,,,,,,
,,,,,,,,2023-08-16_08h46.51.589,HF_wild_card,2022.2.4,Linux x86_64,60.0528465,60fefcd96595341f18a3a247,64d2fd46c836a06233681665,64dc7ee0daf0b543d8b5d475,,,,,,,sngl,resources/Empty.png,resources/DG.BMP,Door4,0.266666695,0.068518497,1,0,0,0.5404,optionRight,80,12380,6,3,0,3,0,1,,,,,,,,,,,,,,,,,,,,,,,,,,,,,,,,,,,,,,,
,,,,,,,,2023-08-16_08h46.51.589,HF_wild_card,2022.2.4,Linux x86_64,60.0528465,60fefcd96595341f18a3a247,64d2fd46c836a06233681665,64dc7ee0daf0b543d8b5d475,,,,,,,sngl,resources/Empty.png,resources/DY.BMP,WildCard_Ex,0.238888917,0.050925926,1,0,0,1.0213,optionRight,45,12425,6,4,0,4,0,1,,,,,,,,,,,,,,,,,,,,,,,,,,,,,,,,,,,,,,,
,,,,,,,,2023-08-16_08h46.51.589,HF_wild_card,2022.2.4,Linux x86_64,60.0528465,60fefcd96595341f18a3a247,64d2fd46c836a06233681665,64dc7ee0daf0b543d8b5d475,,,,,,,decisionTrl,resources/DY.BMP,resources/DB.BMP,WildCard_Ex,-0.194444444,-0.075000021,1,0,0,0.5869,optionLeft,55,12480,6,5,0,5,0,1,,,,,,,,,,,,,,,,,,,,,,,,,,,,,,,,,,,,,,,
,,,,,,,,2023-08-16_08h46.51.589,HF_wild_card,2022.2.4,Linux x86_64,60.0528465,60fefcd96595341f18a3a247,64d2fd46c836a06233681665,64dc7ee0daf0b543d8b5d475,,,,,,,ctch,resources/DR.BMP,resources/DG.BMP,Door4,0.249074088,0.061111097,1,0,0,0.5922,optionRight,60,12540,6,6,0,6,0,1,,,,,,,,,,,,,,,,,,,,,,,,,,,,,,,,,,,,,,,
,,,,,,,,2023-08-16_08h46.51.589,HF_wild_card,2022.2.4,Linux x86_64,60.0528465,60fefcd96595341f18a3a247,64d2fd46c836a06233681665,64dc7ee0daf0b543d8b5d475,,,,,,,ctch,resources/DG.BMP,resources/DR.BMP,Door4,-0.181481467,-0.059259273,1,0,0,0.5045,optionLeft,60,12600,6,7,0,7,0,1,,,,,,,,,,,,,,,,,,,,,,,,,,,,,,,,,,,,,,,
,,,,,,,,2023-08-16_08h46.51.589,HF_wild_card,2022.2.4,Linux x86_64,60.0528465,60fefcd96595341f18a3a247,64d2fd46c836a06233681665,64dc7ee0daf0b543d8b5d475,,,,,,,decisionTrl,resources/DB.BMP,resources/DY.BMP,Door3,-0.175000014,-0.037037037,1,0,0,0.8921,optionLeft,70,12670,6,8,0,8,0,1,,,,,,,,,,,,,,,,,,,,,,,,,,,,,,,,,,,,,,,
,,,,,,,,2023-08-16_08h46.51.589,HF_wild_card,2022.2.4,Linux x86_64,60.0528465,60fefcd96595341f18a3a247,64d2fd46c836a06233681665,64dc7ee0daf0b543d8b5d475,,,,,,,sngl,resources/DR.BMP,resources/Empty.png,Door1,-0.188888903,-0.073148162,1,0,0,0.6871,optionLeft,30,12700,6,9,0,9,0,1,,,,,,,,,,,,,,,,,,,,,,,,,,,,,,,,,,,,,,,
,,,,,,,,2023-08-16_08h46.51.589,HF_wild_card,2022.2.4,Linux x86_64,60.0528465,60fefcd96595341f18a3a247,64d2fd46c836a06233681665,64dc7ee0daf0b543d8b5d475,,,,,,,decisionTrl,resources/DBN.BMP,resources/DY.BMP,WildCard_Ex,0.244444459,0.074074074,1,0,0,0.6039,optionRight,45,12745,6,10,0,10,0,1,,,,,,,,,,,,,,,,,,,,,,,,,,,,,,,,,,,,,,,
,,,,,,,,2023-08-16_08h46.51.589,HF_wild_card,2022.2.4,Linux x86_64,60.0528465,60fefcd96595341f18a3a247,64d2fd46c836a06233681665,64dc7ee0daf0b543d8b5d475,,,,,,,ctch,resources/DG.BMP,resources/DR.BMP,Door4,-0.174074032,-0.036111125,1,0,0,0.5872,optionLeft,60,12805,6,11,0,11,0,1,,,,,,,,,,,,,,,,,,,,,,,,,,,,,,,,,,,,,,,
,,,,,,,,2023-08-16_08h46.51.589,HF_wild_card,2022.2.4,Linux x86_64,60.0528465,60fefcd96595341f18a3a247,64d2fd46c836a06233681665,64dc7ee0daf0b543d8b5d475,,,,,,,decisionTrl,resources/DG.BMP,resources/DB.BMP,Door4,-0.178703661,-0.056481503,1,0,0,0.552,optionLeft,80,12885,6,12,0,12,0,1,,,,,,,,,,,,,,,,,,,,,,,,,,,,,,,,,,,,,,,
,,,,,,,,2023-08-16_08h46.51.589,HF_wild_card,2022.2.4,Linux x86_64,60.0528465,60fefcd96595341f18a3a247,64d2fd46c836a06233681665,64dc7ee0daf0b543d8b5d475,,,,,,,ctch,resources/DBN.BMP,resources/DB.BMP,Door3,0.222222222,0.069444444,1,0,0,0.5513,optionRight,70,12955,6,13,0,13,0,1,,,,,,,,,,,,,,,,,,,,,,,,,,,,,,,,,,,,,,,
,,,,,,,,2023-08-16_08h46.51.589,HF_wild_card,2022.2.4,Linux x86_64,60.0528465,60fefcd96595341f18a3a247,64d2fd46c836a06233681665,64dc7ee0daf0b543d8b5d475,,,,,,,decisionTrl,resources/DBN.BMP,resources/DR.BMP,Door1,0.226851852,0.057407414,1,0,0,0.6353,optionRight,30,12985,6,14,0,14,0,1,,,,,,,,,,,,,,,,,,,,,,,,,,,,,,,,,,,,,,,
,,,,,,,,2023-08-16_08h46.51.589,HF_wild_card,2022.2.4,Linux x86_64,60.0528465,60fefcd96595341f18a3a247,64d2fd46c836a06233681665,64dc7ee0daf0b543d8b5d475,,,,,,,decisionTrl,resources/DB.BMP,resources/DG.BMP,Door4,0.228703746,0.062962956,1,0,0,1.1245,optionRight,80,13065,6,15,0,15,0,1,,,,,,,,,,,,,,,,,,,,,,,,,,,,,,,,,,,,,,,
,,,,,,,,2023-08-16_08h46.51.589,HF_wild_card,2022.2.4,Linux x86_64,60.0528465,60fefcd96595341f18a3a247,64d2fd46c836a06233681665,64dc7ee0daf0b543d8b5d475,,,,,,,decisionTrl,resources/DG.BMP,resources/DB.BMP,Door4,-0.264814801,-0.031481496,1,0,0,3.2864,optionLeft,80,13145,6,16,0,16,0,1,,,,,,,,,,,,,,,,,,,,,,,,,,,,,,,,,,,,,,,
,,,,,,,,2023-08-16_08h46.51.589,HF_wild_card,2022.2.4,Linux x86_64,60.0528465,60fefcd96595341f18a3a247,64d2fd46c836a06233681665,64dc7ee0daf0b543d8b5d475,,,,,,,sngl,resources/Empty.png,resources/DBN.BMP,Door2,0.262962977,0.074074074,1,0,0,0.6206,optionRight,40,13185,6,17,0,17,0,1,,,,,,,,,,,,,,,,,,,,,,,,,,,,,,,,,,,,,,,
,,,,,,,,2023-08-16_08h46.51.589,HF_wild_card,2022.2.4,Linux x86_64,60.0528465,60fefcd96595341f18a3a247,64d2fd46c836a06233681665,64dc7ee0daf0b543d8b5d475,,,,,,,decisionTrl,resources/DY.BMP,resources/DG.BMP,Door4,0.261111153,0.080555563,1,0,0,0.8549,optionRight,80,13265,6,18,0,18,0,1,,,,,,,,,,,,,,,,,,,,,,,,,,,,,,,,,,,,,,,
,,,,,,,,2023-08-16_08h46.51.589,HF_wild_card,2022.2.4,Linux x86_64,60.0528465,60fefcd96595341f18a3a247,64d2fd46c836a06233681665,64dc7ee0daf0b543d8b5d475,,,,,,,ctch,resources/DBN.BMP,resources/DB.BMP,Door3,0.233333376,0.058333326,1,0,0,0.6227,optionRight,70,13335,6,19,0,19,0,1,,,,,,,,,,,,,,,,,,,,,,,,,,,,,,,,,,,,,,,
,,,,,,,,2023-08-16_08h46.51.589,HF_wild_card,2022.2.4,Linux x86_64,60.0528465,60fefcd96595341f18a3a247,64d2fd46c836a06233681665,64dc7ee0daf0b543d8b5d475,,,,,,,decisionTrl,resources/DB.BMP,resources/DG.BMP,Door4,0.285185213,0.089814822,1,0,0,0.7249,optionRight,60,13395,6,20,0,20,0,1,,,,,,,,,,,,,,,,,,,,,,,,,,,,,,,,,,,,,,,
,,,,,,,,2023-08-16_08h46.51.589,HF_wild_card,2022.2.4,Linux x86_64,60.0528465,60fefcd96595341f18a3a247,64d2fd46c836a06233681665,64dc7ee0daf0b543d8b5d475,,,,,,,decisionTrl,resources/DY.BMP,resources/DR.BMP,WildCard_Ex,-0.200925898,-0.069444444,1,0,0,0.5393,optionLeft,55,13450,6,21,0,21,0,1,,,,,,,,,,,,,,,,,,,,,,,,,,,,,,,,,,,,,,,
,,,,,,,,2023-08-16_08h46.51.589,HF_wild_card,2022.2.4,Linux x86_64,60.0528465,60fefcd96595341f18a3a247,64d2fd46c836a06233681665,64dc7ee0daf0b543d8b5d475,,,,,,,decisionTrl,resources/DG.BMP,resources/DB.BMP,Door4,-0.244444459,-0.086111104,1,0,0,0.6513,optionLeft,80,13530,6,22,0,22,0,1,,,,,,,,,,,,,,,,,,,,,,,,,,,,,,,,,,,,,,,
,,,,,,,,2023-08-16_08h46.51.589,HF_wild_card,2022.2.4,Linux x86_64,60.0528465,60fefcd96595341f18a3a247,64d2fd46c836a06233681665,64dc7ee0daf0b543d8b5d475,,,,,,,sngl,resources/Empty.png,resources/DR.BMP,Door1,0.22592594,0.062962956,1,0,0,0.6225,optionRight,30,13560,6,23,0,23,0,1,,,,,,,,,,,,,,,,,,,,,,,,,,,,,,,,,,,,,,,
,,,,,,,,2023-08-16_08h46.51.589,HF_wild_card,2022.2.4,Linux x86_64,60.0528465,60fefcd96595341f18a3a247,64d2fd46c836a06233681665,64dc7ee0daf0b543d8b5d475,,,,,,,sngl,resources/DY.BMP,resources/Empty.png,WildCard_Ex,-0.222222222,-0.059259273,1,0,0,1.0087,optionLeft,55,13615,6,24,0,24,0,1,,,,,,,,,,,,,,,,,,,,,,,,,,,,,,,,,,,,,,,
,,,,,,,,2023-08-16_08h46.51.589,HF_wild_card,2022.2.4,Linux x86_64,60.0528465,60fefcd96595341f18a3a247,64d2fd46c836a06233681665,64dc7ee0daf0b543d8b5d475,,,,,,,sngl,resources/Empty.png,resources/DB.BMP,Door3,0.241666653,0.082407386,1,0,0,0.588,optionRight,70,13685,6,25,0,25,0,1,,,,,,,,,,,,,,,,,,,,,,,,,,,,,,,,,,,,,,,
,,,,,,,,2023-08-16_08h46.51.589,HF_wild_card,2022.2.4,Linux x86_64,60.0528465,60fefcd96595341f18a3a247,64d2fd46c836a06233681665,64dc7ee0daf0b543d8b5d475,,,,,,,decisionTrl,resources/DY.BMP,resources/DBN.BMP,WildCard_Ex,-0.199074074,-0.042592614,1,0,0,0.5568,optionLeft,45,13730,6,26,0,26,0,1,,,,,,,,,,,,,,,,,,,,,,,,,,,,,,,,,,,,,,,
,,,,,,,,2023-08-16_08h46.51.589,HF_wild_card,2022.2.4,Linux x86_64,60.0528465,60fefcd96595341f18a3a247,64d2fd46c836a06233681665,64dc7ee0daf0b543d8b5d475,,,,,,,sngl,resources/DB.BMP,resources/Empty.png,Door3,-0.198148162,-0.067592586,1,0,0,0.5552,optionLeft,70,13800,6,27,0,27,0,1,,,,,,,,,,,,,,,,,,,,,,,,,,,,,,,,,,,,,,,
,,,,,,,,2023-08-16_08h46.51.589,HF_wild_card,2022.2.4,Linux x86_64,60.0528465,60fefcd96595341f18a3a247,64d2fd46c836a06233681665,64dc7ee0daf0b543d8b5d475,,,,,,,decisionTrl,resources/DR.BMP,resources/DY.BMP,WildCard_Ex,0.238888917,0.071296303,1,0,0,0.6164,optionRight,45,13845,6,28,0,28,0,1,,,,,,,,,,,,,,,,,,,,,,,,,,,,,,,,,,,,,,,
,,,,,,,,2023-08-16_08h46.51.589,HF_wild_card,2022.2.4,Linux x86_64,60.0528465,60fefcd96595341f18a3a247,64d2fd46c836a06233681665,64dc7ee0daf0b543d8b5d475,,,,,,,ctch,resources/DB.BMP,resources/DBN.BMP,Door3,-0.169444402,-0.072222215,1,0,0,0.5879,optionLeft,70,13915,6,29,0,29,0,1,,,,,,,,,,,,,,,,,,,,,,,,,,,,,,,,,,,,,,,
,,,,,,,,2023-08-16_08h46.51.589,HF_wild_card,2022.2.4,Linux x86_64,60.0528465,60fefcd96595341f18a3a247,64d2fd46c836a06233681665,64dc7ee0daf0b543d8b5d475,,,,,,,decisionTrl,resources/DR.BMP,resources/DBN.BMP,Door2,0.251851894,0.104629623,1,0,0,2.7202,optionRight,20,13935,6,30,0,30,0,1,,,,,,,,,,,,,,,,,,,,,,,,,,,,,,,,,,,,,,,
,,,,,,,,2023-08-16_08h46.51.589,HF_wild_card,2022.2.4,Linux x86_64,60.0528465,60fefcd96595341f18a3a247,64d2fd46c836a06233681665,64dc7ee0daf0b543d8b5d475,,,,,,,sngl,resources/Empty.png,resources/DY.BMP,WildCard_Ex,0.220370399,0.027777778,1,0,0,0.6029,optionRight,55,13990,6,31,0,31,0,1,,,,,,,,,,,,,,,,,,,,,,,,,,,,,,,,,,,,,,,
,,,,,,,,2023-08-16_08h46.51.589,HF_wild_card,2022.2.4,Linux x86_64,60.0528465,60fefcd96595341f18a3a247,64d2fd46c836a06233681665,64dc7ee0daf0b543d8b5d475,,,,,,,sngl,resources/DY.BMP,resources/Empty.png,WildCard_Ex,-0.193518533,-0.085185192,1,0,0,0.5699,optionLeft,45,14035,6,32,0,32,0,1,,,,,,,,,,,,,,,,,,,,,,,,,,,,,,,,,,,,,,,
,,,,,,,,2023-08-16_08h46.51.589,HF_wild_card,2022.2.4,Linux x86_64,60.0528465,60fefcd96595341f18a3a247,64d2fd46c836a06233681665,64dc7ee0daf0b543d8b5d475,,,,,,,sngl,resources/DG.BMP,resources/Empty.png,Door4,-0.243518476,-0.072222215,1,0,0,0.5554,optionLeft,60,14095,6,33,0,33,0,1,,,,,,,,,,,,,,,,,,,,,,,,,,,,,,,,,,,,,,,
,,,,,,,,2023-08-16_08h46.51.589,HF_wild_card,2022.2.4,Linux x86_64,60.0528465,60fefcd96595341f18a3a247,64d2fd46c836a06233681665,64dc7ee0daf0b543d8b5d475,,,,,,,decisionTrl,resources/DBN.BMP,resources/DR.BMP,Door2,-0.23055557,-0.025000007,1,0,0,1.5926,optionLeft,20,14115,6,34,0,34,0,1,,,,,,,,,,,,,,,,,,,,,,,,,,,,,,,,,,,,,,,
,,,,,,,,2023-08-16_08h46.51.589,HF_wild_card,2022.2.4,Linux x86_64,60.0528465,60fefcd96595341f18a3a247,64d2fd46c836a06233681665,64dc7ee0daf0b543d8b5d475,,,,,,,decisionTrl,resources/DR.BMP,resources/DBN.BMP,Door2,0.228703746,0.074999986,1,0,0,0.94,optionRight,20,14135,6,35,0,35,0,1,,,,,,,,,,,,,,,,,,,,,,,,,,,,,,,,,,,,,,,
,,,,,,,,2023-08-16_08h46.51.589,HF_wild_card,2022.2.4,Linux x86_64,60.0528465,60fefcd96595341f18a3a247,64d2fd46c836a06233681665,64dc7ee0daf0b543d8b5d475,,,,,,,decisionTrl,resources/DG.BMP,resources/DY.BMP,Door4,-0.256481453,0.002777771,1,0,0,1.0063,optionLeft,60,14195,6,36,0,36,0,1,,,,,,,,,,,,,,,,,,,,,,,,,,,,,,,,,,,,,,,
,,,,,,,,2023-08-16_08h46.51.589,HF_wild_card,2022.2.4,Linux x86_64,60.0528465,60fefcd96595341f18a3a247,64d2fd46c836a06233681665,64dc7ee0daf0b543d8b5d475,,,,,,,decisionTrl,resources/DR.BMP,resources/DBN.BMP,Door2,0.241666653,0.076851845,1,0,0,0.8399,optionRight,40,14235,6,37,0,37,0,1,,,,,,,,,,,,,,,,,,,,,,,,,,,,,,,,,,,,,,,
,,,,,,,,2023-08-16_08h46.51.589,HF_wild_card,2022.2.4,Linux x86_64,60.0528465,60fefcd96595341f18a3a247,64d2fd46c836a06233681665,64dc7ee0daf0b543d8b5d475,,,,,,,decisionTrl,resources/DBN.BMP,resources/DR.BMP,Door2,-0.24537037,-0.035185178,1,0,0,0.8722,optionLeft,20,14255,6,38,0,38,0,1,,,,,,,,,,,,,,,,,,,,,,,,,,,,,,,,,,,,,,,
,,,,,,,,2023-08-16_08h46.51.589,HF_wild_card,2022.2.4,Linux x86_64,60.0528465,60fefcd96595341f18a3a247,64d2fd46c836a06233681665,64dc7ee0daf0b543d8b5d475,,,,,,,decisionTrl,resources/DBN.BMP,resources/DR.BMP,Door2,-0.27407406,-0.029629637,1,0,0,0.7213,optionLeft,20,14275,6,39,0,39,0,1,,,,,,,,,,,,,,,,,,,,,,,,,,,,,,,,,,,,,,,
,,,,,,,,2023-08-16_08h46.51.589,HF_wild_card,2022.2.4,Linux x86_64,60.0528465,60fefcd96595341f18a3a247,64d2fd46c836a06233681665,64dc7ee0daf0b543d8b5d475,,,,,,,decisionTrl,resources/DB.BMP,resources/DG.BMP,Door4,0.265740783,0.074999986,1,0,0,0.7228,optionRight,80,14355,6,40,0,40,0,1,,,,,,,,,,,,,,,,,,,,,,,,,,,,,,,,,,,,,,,
,,,,,,,,2023-08-16_08h46.51.589,HF_wild_card,2022.2.4,Linux x86_64,60.0528465,60fefcd96595341f18a3a247,64d2fd46c836a06233681665,64dc7ee0daf0b543d8b5d475,,,,,,,decisionTrl,resources/DR.BMP,resources/DBN.BMP,Door2,0.242592635,0.084259245,1,0,0,0.8406,optionRight,20,14375,6,41,0,41,0,1,,,,,,,,,,,,,,,,,,,,,,,,,,,,,,,,,,,,,,,
,,,,,,,,2023-08-16_08h46.51.589,HF_wild_card,2022.2.4,Linux x86_64,60.0528465,60fefcd96595341f18a3a247,64d2fd46c836a06233681665,64dc7ee0daf0b543d8b5d475,,,,,,,decisionTrl,resources/DB.BMP,resources/DG.BMP,Door4,0.247222265,0.077777757,1,0,0,0.5722,optionRight,80,14455,6,42,0,42,0,1,,,,,,,,,,,,,,,,,,,,,,,,,,,,,,,,,,,,,,,
,,,,,,,,2023-08-16_08h46.51.589,HF_wild_card,2022.2.4,Linux x86_64,60.0528465,60fefcd96595341f18a3a247,64d2fd46c836a06233681665,64dc7ee0daf0b543d8b5d475,,,,,,,sngl,resources/DBN.BMP,resources/Empty.png,Door2,-0.191666638,-0.037037037,1,0,0,0.576,optionLeft,20,14475,6,43,0,43,0,1,,,,,,,,,,,,,,,,,,,,,,,,,,,,,,,,,,,,,,,
,,,,,,,,2023-08-16_08h46.51.589,HF_wild_card,2022.2.4,Linux x86_64,60.0528465,60fefcd96595341f18a3a247,64d2fd46c836a06233681665,64dc7ee0daf0b543d8b5d475,,,,,,,,,,,,,,,,,,,,,,,,,,5,0,5,0,1,,,,,,,,,,,,,,,,,,,,,,,,,,,,,,,,,,
,,,,,,,,2023-08-16_08h46.51.589,HF_wild_card,2022.2.4,Linux x86_64,60.0528465,60fefcd96595341f18a3a247,64d2fd46c836a06233681665,64dc7ee0daf0b543d8b5d475,,,,,,,ctch,resources/DG.BMP,resources/DR.BMP,Door4,-0.280555513,0.005555541,1,0,0,0.7476,optionLeft,80,14555,7,0,0,0,0,1,,,,,,,,,,,,,,,,,,,,,,,,,,,,,,,,,,,,,,,
,,,,,,,,2023-08-16_08h46.51.589,HF_wild_card,2022.2.4,Linux x86_64,60.0528465,60fefcd96595341f18a3a247,64d2fd46c836a06233681665,64dc7ee0daf0b543d8b5d475,,,,,,,ctch,resources/DR.BMP,resources/DG.BMP,Door4,0.22592594,0.062037044,1,0,0,0.5612,optionRight,60,14615,7,1,0,1,0,1,,,,,,,,,,,,,,,,,,,,,,,,,,,,,,,,,,,,,,,
,,,,,,,,2023-08-16_08h46.51.589,HF_wild_card,2022.2.4,Linux x86_64,60.0528465,60fefcd96595341f18a3a247,64d2fd46c836a06233681665,64dc7ee0daf0b543d8b5d475,,,,,,,decisionTrl,resources/DG.BMP,resources/DB.BMP,Door4,-0.202777792,-0.055555556,1,0,0,0.5419,optionLeft,60,14675,7,2,0,2,0,1,,,,,,,,,,,,,,,,,,,,,,,,,,,,,,,,,,,,,,,
,,,,,,,,2023-08-16_08h46.51.589,HF_wild_card,2022.2.4,Linux x86_64,60.0528465,60fefcd96595341f18a3a247,64d2fd46c836a06233681665,64dc7ee0daf0b543d8b5d475,,,,,,,decisionTrl,resources/DR.BMP,resources/DBN.BMP,Door1,-0.19259255,-0.026851866,1,0,0,1.5207,optionLeft,30,14705,7,3,0,3,0,1,,,,,,,,,,,,,,,,,,,,,,,,,,,,,,,,,,,,,,,
,,,,,,,,2023-08-16_08h46.51.589,HF_wild_card,2022.2.4,Linux x86_64,60.0528465,60fefcd96595341f18a3a247,64d2fd46c836a06233681665,64dc7ee0daf0b543d8b5d475,,,,,,,ctch,resources/DR.BMP,resources/DG.BMP,Door4,0.259259259,0.065740727,1,0,0,0.6159,optionRight,80,14785,7,4,0,4,0,1,,,,,,,,,,,,,,,,,,,,,,,,,,,,,,,,,,,,,,,
,,,,,,,,2023-08-16_08h46.51.589,HF_wild_card,2022.2.4,Linux x86_64,60.0528465,60fefcd96595341f18a3a247,64d2fd46c836a06233681665,64dc7ee0daf0b543d8b5d475,,,,,,,ctch,resources/DG.BMP,resources/DR.BMP,Door4,-0.154629601,-0.052777785,1,0,0,0.5196,optionLeft,80,14865,7,5,0,5,0,1,,,,,,,,,,,,,,,,,,,,,,,,,,,,,,,,,,,,,,,
,,,,,,,,2023-08-16_08h46.51.589,HF_wild_card,2022.2.4,Linux x86_64,60.0528465,60fefcd96595341f18a3a247,64d2fd46c836a06233681665,64dc7ee0daf0b543d8b5d475,,,,,,,decisionTrl,resources/DBN.BMP,resources/DR.BMP,Door2,-0.243518476,-0.068518533,1,0,0,0.8095,optionLeft,20,14885,7,6,0,6,0,1,,,,,,,,,,,,,,,,,,,,,,,,,,,,,,,,,,,,,,,
,,,,,,,,2023-08-16_08h46.51.589,HF_wild_card,2022.2.4,Linux x86_64,60.0528465,60fefcd96595341f18a3a247,64d2fd46c836a06233681665,64dc7ee0daf0b543d8b5d475,,,,,,,decisionTrl,resources/DB.BMP,resources/DG.BMP,Door4,0.284259302,0.087962963,1,0,0,0.6365,optionRight,60,14945,7,7,0,7,0,1,,,,,,,,,,,,,,,,,,,,,,,,,,,,,,,,,,,,,,,
,,,,,,,,2023-08-16_08h46.51.589,HF_wild_card,2022.2.4,Linux x86_64,60.0528465,60fefcd96595341f18a3a247,64d2fd46c836a06233681665,64dc7ee0daf0b543d8b5d475,,,,,,,decisionTrl,resources/DR.BMP,resources/DBN.BMP,Door1,-0.188888903,-0.050000014,1,0,0,0.5761,optionLeft,30,14975,7,8,0,8,0,1,,,,,,,,,,,,,,,,,,,,,,,,,,,,,,,,,,,,,,,
,,,,,,,,2023-08-16_08h46.51.589,HF_wild_card,2022.2.4,Linux x86_64,60.0528465,60fefcd96595341f18a3a247,64d2fd46c836a06233681665,64dc7ee0daf0b543d8b5d475,,,,,,,decisionTrl,resources/DBN.BMP,resources/DR.BMP,Door2,-0.23055557,-0.059259273,1,0,0,0.8963,optionLeft,20,14995,7,9,0,9,0,1,,,,,,,,,,,,,,,,,,,,,,,,,,,,,,,,,,,,,,,
,,,,,,,,2023-08-16_08h46.51.589,HF_wild_card,2022.2.4,Linux x86_64,60.0528465,60fefcd96595341f18a3a247,64d2fd46c836a06233681665,64dc7ee0daf0b543d8b5d475,,,,,,,decisionTrl,resources/DR.BMP,resources/DBN.BMP,Door2,0.199999986,0.090740734,1,0,0,1.2753,optionRight,40,15035,7,10,0,10,0,1,,,,,,,,,,,,,,,,,,,,,,,,,,,,,,,,,,,,,,,
,,,,,,,,2023-08-16_08h46.51.589,HF_wild_card,2022.2.4,Linux x86_64,60.0528465,60fefcd96595341f18a3a247,64d2fd46c836a06233681665,64dc7ee0daf0b543d8b5d475,,,,,,,decisionTrl,resources/DG.BMP,resources/DB.BMP,Door4,-0.204629616,-0.032407407,1,0,0,0.5612,optionLeft,60,15095,7,11,0,11,0,1,,,,,,,,,,,,,,,,,,,,,,,,,,,,,,,,,,,,,,,
,,,,,,,,2023-08-16_08h46.51.589,HF_wild_card,2022.2.4,Linux x86_64,60.0528465,60fefcd96595341f18a3a247,64d2fd46c836a06233681665,64dc7ee0daf0b543d8b5d475,,,,,,,decisionTrl,resources/DB.BMP,resources/DG.BMP,Door4,0.27870369,0.063888868,1,0,0,0.6117,optionRight,80,15175,7,12,0,12,0,1,,,,,,,,,,,,,,,,,,,,,,,,,,,,,,,,,,,,,,,
,,,,,,,,2023-08-16_08h46.51.589,HF_wild_card,2022.2.4,Linux x86_64,60.0528465,60fefcd96595341f18a3a247,64d2fd46c836a06233681665,64dc7ee0daf0b543d8b5d475,,,,,,,decisionTrl,resources/DBN.BMP,resources/DR.BMP,Door1,0.195370356,0.022222201,1,0,0,0.9455,optionRight,30,15205,7,13,0,13,0,1,,,,,,,,,,,,,,,,,,,,,,,,,,,,,,,,,,,,,,,
,,,,,,,,2023-08-16_08h46.51.589,HF_wild_card,2022.2.4,Linux x86_64,60.0528465,60fefcd96595341f18a3a247,64d2fd46c836a06233681665,64dc7ee0daf0b543d8b5d475,,,,,,,decisionTrl,resources/DG.BMP,resources/DB.BMP,Door4,-0.214814787,-0.039814808,1,0,0,0.6067,optionLeft,80,15285,7,14,0,14,0,1,,,,,,,,,,,,,,,,,,,,,,,,,,,,,,,,,,,,,,,
,,,,,,,,2023-08-16_08h46.51.589,HF_wild_card,2022.2.4,Linux x86_64,60.0528465,60fefcd96595341f18a3a247,64d2fd46c836a06233681665,64dc7ee0daf0b543d8b5d475,,,,,,,ctch,resources/DR.BMP,resources/DG.BMP,Door4,0.22129631,0.057407414,1,0,0,0.5771,optionRight,80,15365,7,15,0,15,0,1,,,,,,,,,,,,,,,,,,,,,,,,,,,,,,,,,,,,,,,
,,,,,,,,2023-08-16_08h46.51.589,HF_wild_card,2022.2.4,Linux x86_64,60.0528465,60fefcd96595341f18a3a247,64d2fd46c836a06233681665,64dc7ee0daf0b543d8b5d475,,,,,,,decisionTrl,resources/DB.BMP,resources/DG.BMP,Door4,0.249074088,0.077777757,1,0,0,0.6092,optionRight,80,15445,7,16,0,16,0,1,,,,,,,,,,,,,,,,,,,,,,,,,,,,,,,,,,,,,,,
,,,,,,,,2023-08-16_08h46.51.589,HF_wild_card,2022.2.4,Linux x86_64,60.0528465,60fefcd96595341f18a3a247,64d2fd46c836a06233681665,64dc7ee0daf0b543d8b5d475,,,,,,,ctch,resources/DG.BMP,resources/DR.BMP,Door4,-0.205555527,-0.01203703,1,0,0,0.4985,optionLeft,80,15525,7,17,0,17,0,1,,,,,,,,,,,,,,,,,,,,,,,,,,,,,,,,,,,,,,,
,,,,,,,,2023-08-16_08h46.51.589,HF_wild_card,2022.2.4,Linux x86_64,60.0528465,60fefcd96595341f18a3a247,64d2fd46c836a06233681665,64dc7ee0daf0b543d8b5d475,,,,,,,ctch,resources/DBN.BMP,resources/DB.BMP,Door3,0.203703704,0.064814815,1,0,0,0.6585,optionRight,70,15595,7,18,0,18,0,1,,,,,,,,,,,,,,,,,,,,,,,,,,,,,,,,,,,,,,,
,,,,,,,,2023-08-16_08h46.51.589,HF_wild_card,2022.2.4,Linux x86_64,60.0528465,60fefcd96595341f18a3a247,64d2fd46c836a06233681665,64dc7ee0daf0b543d8b5d475,,,,,,,decisionTrl,resources/DG.BMP,resources/DB.BMP,Door4,-0.238888847,-0.046296296,1,0,0,0.5454,optionLeft,60,15655,7,19,0,19,0,1,,,,,,,,,,,,,,,,,,,,,,,,,,,,,,,,,,,,,,,
,,,,,,,,2023-08-16_08h46.51.589,HF_wild_card,2022.2.4,Linux x86_64,60.0528465,60fefcd96595341f18a3a247,64d2fd46c836a06233681665,64dc7ee0daf0b543d8b5d475,,,,,,,decisionTrl,resources/DG.BMP,resources/DB.BMP,Door4,-0.196296268,-0.034259266,1,0,0,0.5573,optionLeft,60,15715,7,20,0,20,0,1,,,,,,,,,,,,,,,,,,,,,,,,,,,,,,,,,,,,,,,
,,,,,,,,2023-08-16_08h46.51.589,HF_wild_card,2022.2.4,Linux x86_64,60.0528465,60fefcd96595341f18a3a247,64d2fd46c836a06233681665,64dc7ee0daf0b543d8b5d475,,,,,,,ctch,resources/DBN.BMP,resources/DB.BMP,Door3,0.225000028,0.037962949,1,0,0,0.5665,optionRight,70,15785,7,21,0,21,0,1,,,,,,,,,,,,,,,,,,,,,,,,,,,,,,,,,,,,,,,
,,,,,,,,2023-08-16_08h46.51.589,HF_wild_card,2022.2.4,Linux x86_64,60.0528465,60fefcd96595341f18a3a247,64d2fd46c836a06233681665,64dc7ee0daf0b543d8b5d475,,,,,,,decisionTrl,resources/DG.BMP,resources/DB.BMP,Door4,-0.200925898,-0.048148155,1,0,0,0.4935,optionLeft,60,15845,7,22,0,22,0,1,,,,,,,,,,,,,,,,,,,,,,,,,,,,,,,,,,,,,,,
,,,,,,,,2023-08-16_08h46.51.589,HF_wild_card,2022.2.4,Linux x86_64,60.0528465,60fefcd96595341f18a3a247,64d2fd46c836a06233681665,64dc7ee0daf0b543d8b5d475,,,,,,,ctch,resources/DB.BMP,resources/DBN.BMP,Door3,-0.195370356,-0.049074067,1,0,0,0.5461,optionLeft,70,15915,7,23,0,23,0,1,,,,,,,,,,,,,,,,,,,,,,,,,,,,,,,,,,,,,,,
,,,,,,,,2023-08-16_08h46.51.589,HF_wild_card,2022.2.4,Linux x86_64,60.0528465,60fefcd96595341f18a3a247,64d2fd46c836a06233681665,64dc7ee0daf0b543d8b5d475,,,,,,,ctch,resources/DB.BMP,resources/DBN.BMP,Door3,-0.219444416,-0.055555556,1,0,0,0.5088,optionLeft,70,15985,7,24,0,24,0,1,,,,,,,,,,,,,,,,,,,,,,,,,,,,,,,,,,,,,,,
,,,,,,,,2023-08-16_08h46.51.589,HF_wild_card,2022.2.4,Linux x86_64,60.0528465,60fefcd96595341f18a3a247,64d2fd46c836a06233681665,64dc7ee0daf0b543d8b5d475,,,,,,,ctch,resources/DB.BMP,resources/DBN.BMP,Door3,-0.208333333,-0.054629644,1,0,0,0.4777,optionLeft,70,16055,7,25,0,25,0,1,,,,,,,,,,,,,,,,,,,,,,,,,,,,,,,,,,,,,,,
,,,,,,,,2023-08-16_08h46.51.589,HF_wild_card,2022.2.4,Linux x86_64,60.0528465,60fefcd96595341f18a3a247,64d2fd46c836a06233681665,64dc7ee0daf0b543d8b5d475,,,,,,,decisionTrl,resources/DBN.BMP,resources/DR.BMP,Door2,-0.248148106,-0.034259266,1,0,0,0.8604,optionLeft,20,16075,7,26,0,26,0,1,,,,,,,,,,,,,,,,,,,,,,,,,,,,,,,,,,,,,,,
,,,,,,,,2023-08-16_08h46.51.589,HF_wild_card,2022.2.4,Linux x86_64,60.0528465,60fefcd96595341f18a3a247,64d2fd46c836a06233681665,64dc7ee0daf0b543d8b5d475,,,,,,,decisionTrl,resources/DBN.BMP,resources/DR.BMP,Door2,-0.244444459,-0.037037037,1,0,0,0.7289,optionLeft,20,16095,7,27,0,27,0,1,,,,,,,,,,,,,,,,,,,,,,,,,,,,,,,,,,,,,,,
,,,,,,,,2023-08-16_08h46.51.589,HF_wild_card,2022.2.4,Linux x86_64,60.0528465,60fefcd96595341f18a3a247,64d2fd46c836a06233681665,64dc7ee0daf0b543d8b5d475,,,,,,,decisionTrl,resources/DR.BMP,resources/DBN.BMP,Door1,-0.194444444,-0.053703697,1,0,0,0.5256,optionLeft,30,16125,7,28,0,28,0,1,,,,,,,,,,,,,,,,,,,,,,,,,,,,,,,,,,,,,,,
,,,,,,,,2023-08-16_08h46.51.589,HF_wild_card,2022.2.4,Linux x86_64,60.0528465,60fefcd96595341f18a3a247,64d2fd46c836a06233681665,64dc7ee0daf0b543d8b5d475,,,,,,,decisionTrl,resources/DB.BMP,resources/DG.BMP,Door4,0.238888917,0.073148127,1,0,0,0.6941,optionRight,60,16185,7,29,0,29,0,1,,,,,,,,,,,,,,,,,,,,,,,,,,,,,,,,,,,,,,,
,,,,,,,,2023-08-16_08h46.51.589,HF_wild_card,2022.2.4,Linux x86_64,60.0528465,60fefcd96595341f18a3a247,64d2fd46c836a06233681665,64dc7ee0daf0b543d8b5d475,,,,,,,ctch,resources/DBN.BMP,resources/DB.BMP,Door3,0.291666667,0.074999986,1,0,0,0.6617,optionRight,70,16255,7,30,0,30,0,1,,,,,,,,,,,,,,,,,,,,,,,,,,,,,,,,,,,,,,,
,,,,,,,,2023-08-16_08h46.51.589,HF_wild_card,2022.2.4,Linux x86_64,60.0528465,60fefcd96595341f18a3a247,64d2fd46c836a06233681665,64dc7ee0daf0b543d8b5d475,,,,,,,decisionTrl,resources/DB.BMP,resources/DG.BMP,Door4,0.292592578,0.097222222,1,0,0,0.5758,optionRight,60,16315,7,31,0,31,0,1,,,,,,,,,,,,,,,,,,,,,,,,,,,,,,,,,,,,,,,
,,,,,,,,2023-08-16_08h46.51.589,HF_wild_card,2022.2.4,Linux x86_64,60.0528465,60fefcd96595341f18a3a247,64d2fd46c836a06233681665,64dc7ee0daf0b543d8b5d475,,,,,,,decisionTrl,resources/DR.BMP,resources/DBN.BMP,Door2,0.220370399,0.079629616,1,0,0,0.8442,optionRight,40,16355,7,32,0,32,0,1,,,,,,,,,,,,,,,,,,,,,,,,,,,,,,,,,,,,,,,
,,,,,,,,2023-08-16_08h46.51.589,HF_wild_card,2022.2.4,Linux x86_64,60.0528465,60fefcd96595341f18a3a247,64d2fd46c836a06233681665,64dc7ee0daf0b543d8b5d475,,,,,,,decisionTrl,resources/DB.BMP,resources/DG.BMP,Door4,0.20185188,0.062037044,1,0,0,0.6914,optionRight,60,16415,7,33,0,33,0,1,,,,,,,,,,,,,,,,,,,,,,,,,,,,,,,,,,,,,,,
,,,,,,,,2023-08-16_08h46.51.589,HF_wild_card,2022.2.4,Linux x86_64,60.0528465,60fefcd96595341f18a3a247,64d2fd46c836a06233681665,64dc7ee0daf0b543d8b5d475,,,,,,,decisionTrl,resources/DBN.BMP,resources/DR.BMP,Door2,-0.214814787,-0.055555556,1,0,0,1.6271,optionLeft,40,16455,7,34,0,34,0,1,,,,,,,,,,,,,,,,,,,,,,,,,,,,,,,,,,,,,,,
,,,,,,,,2023-08-16_08h46.51.589,HF_wild_card,2022.2.4,Linux x86_64,60.0528465,60fefcd96595341f18a3a247,64d2fd46c836a06233681665,64dc7ee0daf0b543d8b5d475,,,,,,,decisionTrl,resources/DR.BMP,resources/DBN.BMP,Door2,0.237037023,0.062037044,1,0,0,0.8595,optionRight,40,16495,7,35,0,35,0,1,,,,,,,,,,,,,,,,,,,,,,,,,,,,,,,,,,,,,,,
,,,,,,,,2023-08-16_08h46.51.589,HF_wild_card,2022.2.4,Linux x86_64,60.0528465,60fefcd96595341f18a3a247,64d2fd46c836a06233681665,64dc7ee0daf0b543d8b5d475,,,,,,,,,,,,,,,,,,,,,,,,,,6,0,6,0,1,,,,,,,,,,,,,,,,,,,,,,,,,,,,,,,,,,
,,,,,,,,2023-08-16_08h46.51.589,HF_wild_card,2022.2.4,Linux x86_64,60.0528465,60fefcd96595341f18a3a247,64d2fd46c836a06233681665,64dc7ee0daf0b543d8b5d475,,,,,,,,,,,,,,,,,,,,,,,,,,,,,,,4,,,,,,,,,,,,,,,,,,,,,,,,,,,,,,,,,
