Condition,Low fixed image (Door1),Low risky image (Door2),High fixed image (Door3),High risky image (Door4),NonExtreme Wild Card 1,NonExtreme Wild Card 2,,date,expName,psychopyVersion,OS,frameRate,PROLIFIC_PID,STUDY_ID,SESSION_ID,mouse_2.x,mouse_2.y,mouse_2.leftButton,mouse_2.midButton,mouse_2.rightButton,mouse_2.clicked_name,Trial Type,Left Option Image,Right Option Image,Chosen Door,mouse.x,mouse.y,mouse.leftButton,mouse.midButton,mouse.rightButton,mouse.time,mouse.clicked_name,Feedback,Cumulative Reward,Block,trial.thisRepN,trial.thisTrialN,trial.thisN,trial.thisIndex,trial.ran,blocks.thisRepN,blocks.thisTrialN,blocks.thisN,blocks.thisIndex,blocks.ran,Money conversion,First Outcome Reported,Shown Door (First Outcome),Displayed Image (First Outcome),outcomes.thisRepN,outcomes.thisTrialN,outcomes.thisN,outcomes.thisIndex,outcomes.ran,judgments.thisRepN,judgments.thisTrialN,judgments.thisN,judgments.thisIndex,judgments.ran,freqMouse.x,freqMouse.y,freqMouse.leftButton,freqMouse.midButton,freqMouse.rightButton,freqMouse.clicked_name,trials.thisRepN,trials.thisTrialN,trials.thisN,trials.thisIndex,trials.ran,FQJ for first outcome,FQJ for second outcome,Shown Door,Displayed Image,judgBlock.thisRepN,judgBlock.thisTrialN,judgBlock.thisN,judgBlock.thisIndex,judgBlock.ran
2,resources/DB.BMP,resources/DP.BMP,resources/DBN.BMP,resources/DY.BMP,resources/DG.BMP,resources/DR.BMP,,2023-08-16_08h54.36.121,HF_wild_card,2022.2.4,Win32,60.0024001,63e528d1a9ece4b6addd5f2d,64d2fd46c836a06233681665,64dc7f20584a8f3af72ae994,,,,,,,,,,,,,,,,,,,,,,,,,,,,,,,,,,,,,,,,,,,,,,,,,,,,,,,,,,,,,,,,
,,,,,,,,2023-08-16_08h54.36.121,HF_wild_card,2022.2.4,Win32,60.0024001,63e528d1a9ece4b6addd5f2d,64d2fd46c836a06233681665,64dc7f20584a8f3af72ae994,0,-0.429629644,1,0,0,agree,,,,,,,,,,,,,,,,,,,,,,,,,,,,,,,,,,,,,,,,,,,,,,,,,,,,,,,,,,
,,,,,,,,2023-08-16_08h54.36.121,HF_wild_card,2022.2.4,Win32,60.0024001,63e528d1a9ece4b6addd5f2d,64d2fd46c836a06233681665,64dc7f20584a8f3af72ae994,,,,,,,,,,,,,,,,,,,,,,,,,,,,,,,,,,,,,,,,,,,,,,,,,,,,,,,,,,,,,,,,
,,,,,,,,2023-08-16_08h54.36.121,HF_wild_card,2022.2.4,Win32,60.0024001,63e528d1a9ece4b6addd5f2d,64d2fd46c836a06233681665,64dc7f20584a8f3af72ae994,,,,,,,decisionTrl,resources/DY.BMP,resources/DBN.BMP,Door4,-0.26944443,-0.109259288,1,0,0,3.0015,optionLeft,60,60,1,0,0,0,0,1,,,,,,,,,,,,,,,,,,,,,,,,,,,,,,,,,,,,,,,
,,,,,,,,2023-08-16_08h54.36.121,HF_wild_card,2022.2.4,Win32,60.0024001,63e528d1a9ece4b6addd5f2d,64d2fd46c836a06233681665,64dc7f20584a8f3af72ae994,,,,,,,decisionTrl,resources/DR.BMP,resources/DP.BMP,Door2,0.249074088,-0.065740762,1,0,0,1.7627,optionRight,20,80,1,1,0,1,0,1,,,,,,,,,,,,,,,,,,,,,,,,,,,,,,,,,,,,,,,
,,,,,,,,2023-08-16_08h54.36.121,HF_wild_card,2022.2.4,Win32,60.0024001,63e528d1a9ece4b6addd5f2d,64d2fd46c836a06233681665,64dc7f20584a8f3af72ae994,,,,,,,decisionTrl,resources/DP.BMP,resources/DR.BMP,Door2,-0.396296289,-0.059259273,1,0,0,1.811,optionLeft,40,120,1,2,0,2,0,1,,,,,,,,,,,,,,,,,,,,,,,,,,,,,,,,,,,,,,,
,,,,,,,,2023-08-16_08h54.36.121,HF_wild_card,2022.2.4,Win32,60.0024001,63e528d1a9ece4b6addd5f2d,64d2fd46c836a06233681665,64dc7f20584a8f3af72ae994,,,,,,,sngl,resources/DB.BMP,resources/Empty.png,Door1,-0.196296268,-0.068518533,1,0,0,1.7273,optionLeft,30,150,1,3,0,3,0,1,,,,,,,,,,,,,,,,,,,,,,,,,,,,,,,,,,,,,,,
,,,,,,,,2023-08-16_08h54.36.121,HF_wild_card,2022.2.4,Win32,60.0024001,63e528d1a9ece4b6addd5f2d,64d2fd46c836a06233681665,64dc7f20584a8f3af72ae994,,,,,,,sngl,resources/DBN.BMP,resources/Empty.png,Door3,-0.513888889,-0.037962984,1,0,0,1.9792,optionLeft,70,220,1,4,0,4,0,1,,,,,,,,,,,,,,,,,,,,,,,,,,,,,,,,,,,,,,,
,,,,,,,,2023-08-16_08h54.36.121,HF_wild_card,2022.2.4,Win32,60.0024001,63e528d1a9ece4b6addd5f2d,64d2fd46c836a06233681665,64dc7f20584a8f3af72ae994,,,,,,,decisionTrl,resources/DY.BMP,resources/DR.BMP,WildCard_NonEx,0.271296325,-0.080555563,1,0,0,3.5953,optionRight,55,275,1,5,0,5,0,1,,,,,,,,,,,,,,,,,,,,,,,,,,,,,,,,,,,,,,,
,,,,,,,,2023-08-16_08h54.36.121,HF_wild_card,2022.2.4,Win32,60.0024001,63e528d1a9ece4b6addd5f2d,64d2fd46c836a06233681665,64dc7f20584a8f3af72ae994,,,,,,,decisionTrl,resources/DBN.BMP,resources/DY.BMP,Door4,0.387037065,-0.071296303,1,0,0,1.5456,optionRight,80,355,1,6,0,6,0,1,,,,,,,,,,,,,,,,,,,,,,,,,,,,,,,,,,,,,,,
,,,,,,,,2023-08-16_08h54.36.121,HF_wild_card,2022.2.4,Win32,60.0024001,63e528d1a9ece4b6addd5f2d,64d2fd46c836a06233681665,64dc7f20584a8f3af72ae994,,,,,,,ctch,resources/DY.BMP,resources/DB.BMP,Door4,-0.306481467,0.013888889,1,0,0,3.4292,optionLeft,60,415,1,7,0,7,0,1,,,,,,,,,,,,,,,,,,,,,,,,,,,,,,,,,,,,,,,
,,,,,,,,2023-08-16_08h54.36.121,HF_wild_card,2022.2.4,Win32,60.0024001,63e528d1a9ece4b6addd5f2d,64d2fd46c836a06233681665,64dc7f20584a8f3af72ae994,,,,,,,decisionTrl,resources/DB.BMP,resources/DP.BMP,Door2,0.400925954,-0.031481496,1,0,0,1.0626,optionRight,20,435,1,8,0,8,0,1,,,,,,,,,,,,,,,,,,,,,,,,,,,,,,,,,,,,,,,
,,,,,,,,2023-08-16_08h54.36.121,HF_wild_card,2022.2.4,Win32,60.0024001,63e528d1a9ece4b6addd5f2d,64d2fd46c836a06233681665,64dc7f20584a8f3af72ae994,,,,,,,decisionTrl,resources/DY.BMP,resources/DBN.BMP,Door3,0.409259231,-0.013888889,1,0,0,1.4789,optionRight,70,505,1,9,0,9,0,1,,,,,,,,,,,,,,,,,,,,,,,,,,,,,,,,,,,,,,,
,,,,,,,,2023-08-16_08h54.36.121,HF_wild_card,2022.2.4,Win32,60.0024001,63e528d1a9ece4b6addd5f2d,64d2fd46c836a06233681665,64dc7f20584a8f3af72ae994,,,,,,,decisionTrl,resources/DB.BMP,resources/DP.BMP,Door2,0.373148176,-0.083333333,1,0,0,0.9634,optionRight,40,545,1,10,0,10,0,1,,,,,,,,,,,,,,,,,,,,,,,,,,,,,,,,,,,,,,,
,,,,,,,,2023-08-16_08h54.36.121,HF_wild_card,2022.2.4,Win32,60.0024001,63e528d1a9ece4b6addd5f2d,64d2fd46c836a06233681665,64dc7f20584a8f3af72ae994,,,,,,,sngl,resources/DR.BMP,resources/Empty.png,WildCard_NonEx,-0.343518504,-0.051851873,1,0,0,1.9798,optionLeft,55,600,1,11,0,11,0,1,,,,,,,,,,,,,,,,,,,,,,,,,,,,,,,,,,,,,,,
,,,,,,,,2023-08-16_08h54.36.121,HF_wild_card,2022.2.4,Win32,60.0024001,63e528d1a9ece4b6addd5f2d,64d2fd46c836a06233681665,64dc7f20584a8f3af72ae994,,,,,,,decisionTrl,resources/DP.BMP,resources/DB.BMP,Door2,-0.343518504,-0.078703704,1,0,0,1.2618,optionLeft,20,620,1,12,0,12,0,1,,,,,,,,,,,,,,,,,,,,,,,,,,,,,,,,,,,,,,,
,,,,,,,,2023-08-16_08h54.36.121,HF_wild_card,2022.2.4,Win32,60.0024001,63e528d1a9ece4b6addd5f2d,64d2fd46c836a06233681665,64dc7f20584a8f3af72ae994,,,,,,,ctch,resources/DB.BMP,resources/DY.BMP,Door4,0.338888945,-0.08888891,1,0,0,0.9941,optionRight,60,680,1,13,0,13,0,1,,,,,,,,,,,,,,,,,,,,,,,,,,,,,,,,,,,,,,,
,,,,,,,,2023-08-16_08h54.36.121,HF_wild_card,2022.2.4,Win32,60.0024001,63e528d1a9ece4b6addd5f2d,64d2fd46c836a06233681665,64dc7f20584a8f3af72ae994,,,,,,,decisionTrl,resources/DR.BMP,resources/DY.BMP,Door4,0.351851852,-0.108333376,1,0,0,1.3113,optionRight,80,760,1,14,0,14,0,1,,,,,,,,,,,,,,,,,,,,,,,,,,,,,,,,,,,,,,,
,,,,,,,,2023-08-16_08h54.36.121,HF_wild_card,2022.2.4,Win32,60.0024001,63e528d1a9ece4b6addd5f2d,64d2fd46c836a06233681665,64dc7f20584a8f3af72ae994,,,,,,,sngl,resources/Empty.png,resources/DR.BMP,WildCard_NonEx,0.260185171,-0.161111125,1,0,0,0.8877,optionRight,45,805,1,15,0,15,0,1,,,,,,,,,,,,,,,,,,,,,,,,,,,,,,,,,,,,,,,
,,,,,,,,2023-08-16_08h54.36.121,HF_wild_card,2022.2.4,Win32,60.0024001,63e528d1a9ece4b6addd5f2d,64d2fd46c836a06233681665,64dc7f20584a8f3af72ae994,,,,,,,decisionTrl,resources/DR.BMP,resources/DB.BMP,WildCard_NonEx,-0.237962935,-0.050925926,1,0,0,1.1934,optionLeft,45,850,1,16,0,16,0,1,,,,,,,,,,,,,,,,,,,,,,,,,,,,,,,,,,,,,,,
,,,,,,,,2023-08-16_08h54.36.121,HF_wild_card,2022.2.4,Win32,60.0024001,63e528d1a9ece4b6addd5f2d,64d2fd46c836a06233681665,64dc7f20584a8f3af72ae994,,,,,,,ctch,resources/DB.BMP,resources/DY.BMP,Door4,0.224074116,-0.112037023,1,0,0,1.0275,optionRight,60,910,1,17,0,17,0,1,,,,,,,,,,,,,,,,,,,,,,,,,,,,,,,,,,,,,,,
,,,,,,,,2023-08-16_08h54.36.121,HF_wild_card,2022.2.4,Win32,60.0024001,63e528d1a9ece4b6addd5f2d,64d2fd46c836a06233681665,64dc7f20584a8f3af72ae994,,,,,,,ctch,resources/DP.BMP,resources/DBN.BMP,Door2,-0.331481474,-0.040740755,1,0,0,1.4685,optionLeft,40,950,1,18,0,18,0,1,,,,,,,,,,,,,,,,,,,,,,,,,,,,,,,,,,,,,,,
,,,,,,,,2023-08-16_08h54.36.121,HF_wild_card,2022.2.4,Win32,60.0024001,63e528d1a9ece4b6addd5f2d,64d2fd46c836a06233681665,64dc7f20584a8f3af72ae994,,,,,,,decisionTrl,resources/DP.BMP,resources/DB.BMP,Door2,-0.457407386,-0.010185206,1,0,0,0.9274,optionLeft,20,970,1,19,0,19,0,1,,,,,,,,,,,,,,,,,,,,,,,,,,,,,,,,,,,,,,,
,,,,,,,,2023-08-16_08h54.36.121,HF_wild_card,2022.2.4,Win32,60.0024001,63e528d1a9ece4b6addd5f2d,64d2fd46c836a06233681665,64dc7f20584a8f3af72ae994,,,,,,,decisionTrl,resources/DY.BMP,resources/DBN.BMP,Door4,-0.262962977,-0.033333355,1,0,0,0.9748,optionLeft,80,1050,1,20,0,20,0,1,,,,,,,,,,,,,,,,,,,,,,,,,,,,,,,,,,,,,,,
,,,,,,,,2023-08-16_08h54.36.121,HF_wild_card,2022.2.4,Win32,60.0024001,63e528d1a9ece4b6addd5f2d,64d2fd46c836a06233681665,64dc7f20584a8f3af72ae994,,,,,,,sngl,resources/DP.BMP,resources/Empty.png,Door2,-0.262962977,-0.037962984,1,0,0,1.2464,optionLeft,40,1090,1,21,0,21,0,1,,,,,,,,,,,,,,,,,,,,,,,,,,,,,,,,,,,,,,,
,,,,,,,,2023-08-16_08h54.36.121,HF_wild_card,2022.2.4,Win32,60.0024001,63e528d1a9ece4b6addd5f2d,64d2fd46c836a06233681665,64dc7f20584a8f3af72ae994,,,,,,,sngl,resources/Empty.png,resources/DP.BMP,Door2,0.266666695,-0.092592593,1,0,0,1.2444,optionRight,20,1110,1,22,0,22,0,1,,,,,,,,,,,,,,,,,,,,,,,,,,,,,,,,,,,,,,,
,,,,,,,,2023-08-16_08h54.36.121,HF_wild_card,2022.2.4,Win32,60.0024001,63e528d1a9ece4b6addd5f2d,64d2fd46c836a06233681665,64dc7f20584a8f3af72ae994,,,,,,,sngl,resources/Empty.png,resources/DBN.BMP,Door3,0.37037037,-0.083333333,1,0,0,1.138,optionRight,70,1180,1,23,0,23,0,1,,,,,,,,,,,,,,,,,,,,,,,,,,,,,,,,,,,,,,,
,,,,,,,,2023-08-16_08h54.36.121,HF_wild_card,2022.2.4,Win32,60.0024001,63e528d1a9ece4b6addd5f2d,64d2fd46c836a06233681665,64dc7f20584a8f3af72ae994,,,,,,,ctch,resources/DBN.BMP,resources/DP.BMP,Door2,0.234259288,0.013888889,1,0,0,1.587,optionRight,20,1200,1,24,0,24,0,1,,,,,,,,,,,,,,,,,,,,,,,,,,,,,,,,,,,,,,,
,,,,,,,,2023-08-16_08h54.36.121,HF_wild_card,2022.2.4,Win32,60.0024001,63e528d1a9ece4b6addd5f2d,64d2fd46c836a06233681665,64dc7f20584a8f3af72ae994,,,,,,,decisionTrl,resources/DR.BMP,resources/DBN.BMP,Door3,0.235185199,-0.037037037,1,0,0,0.7962,optionRight,70,1270,1,25,0,25,0,1,,,,,,,,,,,,,,,,,,,,,,,,,,,,,,,,,,,,,,,
,,,,,,,,2023-08-16_08h54.36.121,HF_wild_card,2022.2.4,Win32,60.0024001,63e528d1a9ece4b6addd5f2d,64d2fd46c836a06233681665,64dc7f20584a8f3af72ae994,,,,,,,sngl,resources/DY.BMP,resources/Empty.png,Door4,-0.380555541,-0.071296303,1,0,0,3.1782,optionLeft,80,1350,1,26,0,26,0,1,,,,,,,,,,,,,,,,,,,,,,,,,,,,,,,,,,,,,,,
,,,,,,,,2023-08-16_08h54.36.121,HF_wild_card,2022.2.4,Win32,60.0024001,63e528d1a9ece4b6addd5f2d,64d2fd46c836a06233681665,64dc7f20584a8f3af72ae994,,,,,,,sngl,resources/DR.BMP,resources/Empty.png,WildCard_NonEx,-0.371296282,-0.013888889,1,0,0,0.5533,optionLeft,45,1395,1,27,0,27,0,1,,,,,,,,,,,,,,,,,,,,,,,,,,,,,,,,,,,,,,,
,,,,,,,,2023-08-16_08h54.36.121,HF_wild_card,2022.2.4,Win32,60.0024001,63e528d1a9ece4b6addd5f2d,64d2fd46c836a06233681665,64dc7f20584a8f3af72ae994,,,,,,,decisionTrl,resources/DB.BMP,resources/DP.BMP,Door2,0.145370413,-0.063888903,1,0,0,0.8121,optionRight,40,1435,1,28,0,28,0,1,,,,,,,,,,,,,,,,,,,,,,,,,,,,,,,,,,,,,,,
,,,,,,,,2023-08-16_08h54.36.121,HF_wild_card,2022.2.4,Win32,60.0024001,63e528d1a9ece4b6addd5f2d,64d2fd46c836a06233681665,64dc7f20584a8f3af72ae994,,,,,,,decisionTrl,resources/DY.BMP,resources/DBN.BMP,Door3,0.361111111,0.011111118,1,0,0,0.6113,optionRight,70,1505,1,29,0,29,0,1,,,,,,,,,,,,,,,,,,,,,,,,,,,,,,,,,,,,,,,
,,,,,,,,2023-08-16_08h54.36.121,HF_wild_card,2022.2.4,Win32,60.0024001,63e528d1a9ece4b6addd5f2d,64d2fd46c836a06233681665,64dc7f20584a8f3af72ae994,,,,,,,decisionTrl,resources/DBN.BMP,resources/DY.BMP,Door3,-0.248148106,0.010185171,1,0,0,0.9791,optionLeft,70,1575,1,30,0,30,0,1,,,,,,,,,,,,,,,,,,,,,,,,,,,,,,,,,,,,,,,
,,,,,,,,2023-08-16_08h54.36.121,HF_wild_card,2022.2.4,Win32,60.0024001,63e528d1a9ece4b6addd5f2d,64d2fd46c836a06233681665,64dc7f20584a8f3af72ae994,,,,,,,decisionTrl,resources/DB.BMP,resources/DR.BMP,Door1,-0.226851852,-0.057407414,1,0,0,1.3455,optionLeft,30,1605,1,31,0,31,0,1,,,,,,,,,,,,,,,,,,,,,,,,,,,,,,,,,,,,,,,
,,,,,,,,2023-08-16_08h54.36.121,HF_wild_card,2022.2.4,Win32,60.0024001,63e528d1a9ece4b6addd5f2d,64d2fd46c836a06233681665,64dc7f20584a8f3af72ae994,,,,,,,ctch,resources/DP.BMP,resources/DBN.BMP,Door3,0.303703732,-0.037962984,1,0,0,1.2569,optionRight,70,1675,1,32,0,32,0,1,,,,,,,,,,,,,,,,,,,,,,,,,,,,,,,,,,,,,,,
,,,,,,,,2023-08-16_08h54.36.121,HF_wild_card,2022.2.4,Win32,60.0024001,63e528d1a9ece4b6addd5f2d,64d2fd46c836a06233681665,64dc7f20584a8f3af72ae994,,,,,,,ctch,resources/DBN.BMP,resources/DP.BMP,Door3,-0.289814772,-0.025000007,1,0,0,1.3451,optionLeft,70,1745,1,33,0,33,0,1,,,,,,,,,,,,,,,,,,,,,,,,,,,,,,,,,,,,,,,
,,,,,,,,2023-08-16_08h54.36.121,HF_wild_card,2022.2.4,Win32,60.0024001,63e528d1a9ece4b6addd5f2d,64d2fd46c836a06233681665,64dc7f20584a8f3af72ae994,,,,,,,sngl,resources/Empty.png,resources/DR.BMP,WildCard_NonEx,0.275000042,-0.045370384,1,0,0,0.952,optionRight,55,1800,1,34,0,34,0,1,,,,,,,,,,,,,,,,,,,,,,,,,,,,,,,,,,,,,,,
,,,,,,,,2023-08-16_08h54.36.121,HF_wild_card,2022.2.4,Win32,60.0024001,63e528d1a9ece4b6addd5f2d,64d2fd46c836a06233681665,64dc7f20584a8f3af72ae994,,,,,,,decisionTrl,resources/DB.BMP,resources/DP.BMP,Door2,0.321296268,-0.041666667,1,0,0,1.6286,optionRight,40,1840,1,35,0,35,0,1,,,,,,,,,,,,,,,,,,,,,,,,,,,,,,,,,,,,,,,
,,,,,,,,2023-08-16_08h54.36.121,HF_wild_card,2022.2.4,Win32,60.0024001,63e528d1a9ece4b6addd5f2d,64d2fd46c836a06233681665,64dc7f20584a8f3af72ae994,,,,,,,sngl,resources/Empty.png,resources/DY.BMP,Door4,0.336111139,-0.015740748,1,0,0,1.2078,optionRight,60,1900,1,36,0,36,0,1,,,,,,,,,,,,,,,,,,,,,,,,,,,,,,,,,,,,,,,
,,,,,,,,2023-08-16_08h54.36.121,HF_wild_card,2022.2.4,Win32,60.0024001,63e528d1a9ece4b6addd5f2d,64d2fd46c836a06233681665,64dc7f20584a8f3af72ae994,,,,,,,sngl,resources/Empty.png,resources/DB.BMP,Door1,0.292592578,0.009259259,1,0,0,0.9114,optionRight,30,1930,1,37,0,37,0,1,,,,,,,,,,,,,,,,,,,,,,,,,,,,,,,,,,,,,,,
,,,,,,,,2023-08-16_08h54.36.121,HF_wild_card,2022.2.4,Win32,60.0024001,63e528d1a9ece4b6addd5f2d,64d2fd46c836a06233681665,64dc7f20584a8f3af72ae994,,,,,,,decisionTrl,resources/DBN.BMP,resources/DY.BMP,Door4,0.411111196,0.047222208,1,0,0,1.3136,optionRight,60,1990,1,38,0,38,0,1,,,,,,,,,,,,,,,,,,,,,,,,,,,,,,,,,,,,,,,
,,,,,,,,2023-08-16_08h54.36.121,HF_wild_card,2022.2.4,Win32,60.0024001,63e528d1a9ece4b6addd5f2d,64d2fd46c836a06233681665,64dc7f20584a8f3af72ae994,,,,,,,decisionTrl,resources/DBN.BMP,resources/DY.BMP,Door3,-0.243518476,-0.020370377,1,0,0,0.7113,optionLeft,70,2060,1,39,0,39,0,1,,,,,,,,,,,,,,,,,,,,,,,,,,,,,,,,,,,,,,,
,,,,,,,,2023-08-16_08h54.36.121,HF_wild_card,2022.2.4,Win32,60.0024001,63e528d1a9ece4b6addd5f2d,64d2fd46c836a06233681665,64dc7f20584a8f3af72ae994,,,,,,,ctch,resources/DY.BMP,resources/DB.BMP,Door4,-0.171296296,-0.022222236,1,0,0,1.0791,optionLeft,80,2140,1,40,0,40,0,1,,,,,,,,,,,,,,,,,,,,,,,,,,,,,,,,,,,,,,,
,,,,,,,,2023-08-16_08h54.36.121,HF_wild_card,2022.2.4,Win32,60.0024001,63e528d1a9ece4b6addd5f2d,64d2fd46c836a06233681665,64dc7f20584a8f3af72ae994,,,,,,,decisionTrl,resources/DP.BMP,resources/DB.BMP,Door2,-0.27407406,-0.049074067,1,0,0,0.9798,optionLeft,20,2160,1,41,0,41,0,1,,,,,,,,,,,,,,,,,,,,,,,,,,,,,,,,,,,,,,,
,,,,,,,,2023-08-16_08h54.36.121,HF_wild_card,2022.2.4,Win32,60.0024001,63e528d1a9ece4b6addd5f2d,64d2fd46c836a06233681665,64dc7f20584a8f3af72ae994,,,,,,,decisionTrl,resources/DP.BMP,resources/DB.BMP,Door1,0.501851824,0.02870369,1,0,0,0.9124,optionRight,30,2190,1,42,0,42,0,1,,,,,,,,,,,,,,,,,,,,,,,,,,,,,,,,,,,,,,,
,,,,,,,,2023-08-16_08h54.36.121,HF_wild_card,2022.2.4,Win32,60.0024001,63e528d1a9ece4b6addd5f2d,64d2fd46c836a06233681665,64dc7f20584a8f3af72ae994,,,,,,,decisionTrl,resources/DBN.BMP,resources/DR.BMP,Door3,-0.233333305,-0.032407407,1,0,0,3.0441,optionLeft,70,2260,1,43,0,43,0,1,,,,,,,,,,,,,,,,,,,,,,,,,,,,,,,,,,,,,,,
,,,,,,,,2023-08-16_08h54.36.121,HF_wild_card,2022.2.4,Win32,60.0024001,63e528d1a9ece4b6addd5f2d,64d2fd46c836a06233681665,64dc7f20584a8f3af72ae994,,,,,,,,,,,,,,,,,,,,,,,,,,0,0,0,0,1,,,,,,,,,,,,,,,,,,,,,,,,,,,,,,,,,,
,,,,,,,,2023-08-16_08h54.36.121,HF_wild_card,2022.2.4,Win32,60.0024001,63e528d1a9ece4b6addd5f2d,64d2fd46c836a06233681665,64dc7f20584a8f3af72ae994,,,,,,,ctch,resources/DB.BMP,resources/DY.BMP,Door4,0.310185185,-0.062962956,1,0,0,3.0483,optionRight,80,2340,2,0,0,0,0,1,,,,,,,,,,,,,,,,,,,,,,,,,,,,,,,,,,,,,,,
,,,,,,,,2023-08-16_08h54.36.121,HF_wild_card,2022.2.4,Win32,60.0024001,63e528d1a9ece4b6addd5f2d,64d2fd46c836a06233681665,64dc7f20584a8f3af72ae994,,,,,,,decisionTrl,resources/DB.BMP,resources/DP.BMP,Door2,0.340740769,-0.024074095,1,0,0,1.1616,optionRight,40,2380,2,1,0,1,0,1,,,,,,,,,,,,,,,,,,,,,,,,,,,,,,,,,,,,,,,
,,,,,,,,2023-08-16_08h54.36.121,HF_wild_card,2022.2.4,Win32,60.0024001,63e528d1a9ece4b6addd5f2d,64d2fd46c836a06233681665,64dc7f20584a8f3af72ae994,,,,,,,ctch,resources/DP.BMP,resources/DBN.BMP,Door3,0.312037009,0.013888889,1,0,0,0.9715,optionRight,70,2450,2,2,0,2,0,1,,,,,,,,,,,,,,,,,,,,,,,,,,,,,,,,,,,,,,,
,,,,,,,,2023-08-16_08h54.36.121,HF_wild_card,2022.2.4,Win32,60.0024001,63e528d1a9ece4b6addd5f2d,64d2fd46c836a06233681665,64dc7f20584a8f3af72ae994,,,,,,,decisionTrl,resources/DB.BMP,resources/DP.BMP,Door2,0.26944443,-0.044444437,1,0,0,0.8511,optionRight,40,2490,2,3,0,3,0,1,,,,,,,,,,,,,,,,,,,,,,,,,,,,,,,,,,,,,,,
,,,,,,,,2023-08-16_08h54.36.121,HF_wild_card,2022.2.4,Win32,60.0024001,63e528d1a9ece4b6addd5f2d,64d2fd46c836a06233681665,64dc7f20584a8f3af72ae994,,,,,,,sngl,resources/DBN.BMP,resources/Empty.png,Door3,-0.544444437,-0.111111111,1,0,0,0.6915,optionLeft,70,2560,2,4,0,4,0,1,,,,,,,,,,,,,,,,,,,,,,,,,,,,,,,,,,,,,,,
,,,,,,,,2023-08-16_08h54.36.121,HF_wild_card,2022.2.4,Win32,60.0024001,63e528d1a9ece4b6addd5f2d,64d2fd46c836a06233681665,64dc7f20584a8f3af72ae994,,,,,,,decisionTrl,resources/DY.BMP,resources/DR.BMP,Door4,-0.236111111,-0.063888903,1,0,0,1.1102,optionLeft,60,2620,2,5,0,5,0,1,,,,,,,,,,,,,,,,,,,,,,,,,,,,,,,,,,,,,,,
,,,,,,,,2023-08-16_08h54.36.121,HF_wild_card,2022.2.4,Win32,60.0024001,63e528d1a9ece4b6addd5f2d,64d2fd46c836a06233681665,64dc7f20584a8f3af72ae994,,,,,,,decisionTrl,resources/DBN.BMP,resources/DY.BMP,Door3,-0.200925898,-0.050925926,1,0,0,1.4439,optionLeft,70,2690,2,6,0,6,0,1,,,,,,,,,,,,,,,,,,,,,,,,,,,,,,,,,,,,,,,
,,,,,,,,2023-08-16_08h54.36.121,HF_wild_card,2022.2.4,Win32,60.0024001,63e528d1a9ece4b6addd5f2d,64d2fd46c836a06233681665,64dc7f20584a8f3af72ae994,,,,,,,decisionTrl,resources/DBN.BMP,resources/DY.BMP,Door4,0.22592594,-0.026851866,1,0,0,1.1467,optionRight,60,2750,2,7,0,7,0,1,,,,,,,,,,,,,,,,,,,,,,,,,,,,,,,,,,,,,,,
,,,,,,,,2023-08-16_08h54.36.121,HF_wild_card,2022.2.4,Win32,60.0024001,63e528d1a9ece4b6addd5f2d,64d2fd46c836a06233681665,64dc7f20584a8f3af72ae994,,,,,,,sngl,resources/Empty.png,resources/DR.BMP,WildCard_NonEx,0.176851838,-0.027777778,1,0,0,0.6446,optionRight,55,2805,2,8,0,8,0,1,,,,,,,,,,,,,,,,,,,,,,,,,,,,,,,,,,,,,,,
,,,,,,,,2023-08-16_08h54.36.121,HF_wild_card,2022.2.4,Win32,60.0024001,63e528d1a9ece4b6addd5f2d,64d2fd46c836a06233681665,64dc7f20584a8f3af72ae994,,,,,,,sngl,resources/DP.BMP,resources/Empty.png,Door2,-0.191666638,-0.046296296,1,0,0,0.5303,optionLeft,20,2825,2,9,0,9,0,1,,,,,,,,,,,,,,,,,,,,,,,,,,,,,,,,,,,,,,,
,,,,,,,,2023-08-16_08h54.36.121,HF_wild_card,2022.2.4,Win32,60.0024001,63e528d1a9ece4b6addd5f2d,64d2fd46c836a06233681665,64dc7f20584a8f3af72ae994,,,,,,,decisionTrl,resources/DY.BMP,resources/DBN.BMP,Door4,-0.179629644,-0.050925926,1,0,0,1.0274,optionLeft,80,2905,2,10,0,10,0,1,,,,,,,,,,,,,,,,,,,,,,,,,,,,,,,,,,,,,,,
,,,,,,,,2023-08-16_08h54.36.121,HF_wild_card,2022.2.4,Win32,60.0024001,63e528d1a9ece4b6addd5f2d,64d2fd46c836a06233681665,64dc7f20584a8f3af72ae994,,,,,,,sngl,resources/DR.BMP,resources/Empty.png,WildCard_NonEx,-0.3824074,-0.073148162,1,0,0,0.7329,optionLeft,55,2960,2,11,0,11,0,1,,,,,,,,,,,,,,,,,,,,,,,,,,,,,,,,,,,,,,,
,,,,,,,,2023-08-16_08h54.36.121,HF_wild_card,2022.2.4,Win32,60.0024001,63e528d1a9ece4b6addd5f2d,64d2fd46c836a06233681665,64dc7f20584a8f3af72ae994,,,,,,,ctch,resources/DY.BMP,resources/DB.BMP,Door1,0.349074046,-0.017592607,1,0,0,1.4435,optionRight,30,2990,2,12,0,12,0,1,,,,,,,,,,,,,,,,,,,,,,,,,,,,,,,,,,,,,,,
,,,,,,,,2023-08-16_08h54.36.121,HF_wild_card,2022.2.4,Win32,60.0024001,63e528d1a9ece4b6addd5f2d,64d2fd46c836a06233681665,64dc7f20584a8f3af72ae994,,,,,,,decisionTrl,resources/DB.BMP,resources/DR.BMP,WildCard_NonEx,0.237963005,0.012962942,1,0,0,1.1945,optionRight,45,3035,2,13,0,13,0,1,,,,,,,,,,,,,,,,,,,,,,,,,,,,,,,,,,,,,,,
,,,,,,,,2023-08-16_08h54.36.121,HF_wild_card,2022.2.4,Win32,60.0024001,63e528d1a9ece4b6addd5f2d,64d2fd46c836a06233681665,64dc7f20584a8f3af72ae994,,,,,,,sngl,resources/Empty.png,resources/DY.BMP,Door4,0.402777778,0.02870369,1,0,0,1.1608,optionRight,80,3115,2,14,0,14,0,1,,,,,,,,,,,,,,,,,,,,,,,,,,,,,,,,,,,,,,,
,,,,,,,,2023-08-16_08h54.36.121,HF_wild_card,2022.2.4,Win32,60.0024001,63e528d1a9ece4b6addd5f2d,64d2fd46c836a06233681665,64dc7f20584a8f3af72ae994,,,,,,,decisionTrl,resources/DB.BMP,resources/DP.BMP,Door1,-0.205555527,-0.063888903,1,0,0,1.1902,optionLeft,30,3145,2,15,0,15,0,1,,,,,,,,,,,,,,,,,,,,,,,,,,,,,,,,,,,,,,,
,,,,,,,,2023-08-16_08h54.36.121,HF_wild_card,2022.2.4,Win32,60.0024001,63e528d1a9ece4b6addd5f2d,64d2fd46c836a06233681665,64dc7f20584a8f3af72ae994,,,,,,,sngl,resources/DR.BMP,resources/Empty.png,WildCard_NonEx,-0.206481439,-0.082407422,1,0,0,3.1606,optionLeft,45,3190,2,16,0,16,0,1,,,,,,,,,,,,,,,,,,,,,,,,,,,,,,,,,,,,,,,
,,,,,,,,2023-08-16_08h54.36.121,HF_wild_card,2022.2.4,Win32,60.0024001,63e528d1a9ece4b6addd5f2d,64d2fd46c836a06233681665,64dc7f20584a8f3af72ae994,,,,,,,decisionTrl,resources/DR.BMP,resources/DY.BMP,Door4,0.228703746,-0.047222243,1,0,0,1.2258,optionRight,60,3250,2,17,0,17,0,1,,,,,,,,,,,,,,,,,,,,,,,,,,,,,,,,,,,,,,,
,,,,,,,,2023-08-16_08h54.36.121,HF_wild_card,2022.2.4,Win32,60.0024001,63e528d1a9ece4b6addd5f2d,64d2fd46c836a06233681665,64dc7f20584a8f3af72ae994,,,,,,,decisionTrl,resources/DP.BMP,resources/DB.BMP,Door2,-0.205555527,-0.050000014,1,0,0,1.0048,optionLeft,40,3290,2,18,0,18,0,1,,,,,,,,,,,,,,,,,,,,,,,,,,,,,,,,,,,,,,,
,,,,,,,,2023-08-16_08h54.36.121,HF_wild_card,2022.2.4,Win32,60.0024001,63e528d1a9ece4b6addd5f2d,64d2fd46c836a06233681665,64dc7f20584a8f3af72ae994,,,,,,,decisionTrl,resources/DP.BMP,resources/DB.BMP,Door2,-0.244444459,-0.070370392,1,0,0,0.745,optionLeft,20,3310,2,19,0,19,0,1,,,,,,,,,,,,,,,,,,,,,,,,,,,,,,,,,,,,,,,
,,,,,,,,2023-08-16_08h54.36.121,HF_wild_card,2022.2.4,Win32,60.0024001,63e528d1a9ece4b6addd5f2d,64d2fd46c836a06233681665,64dc7f20584a8f3af72ae994,,,,,,,decisionTrl,resources/DP.BMP,resources/DB.BMP,Door1,0.209259245,-0.067592586,1,0,0,0.767,optionRight,30,3340,2,20,0,20,0,1,,,,,,,,,,,,,,,,,,,,,,,,,,,,,,,,,,,,,,,
,,,,,,,,2023-08-16_08h54.36.121,HF_wild_card,2022.2.4,Win32,60.0024001,63e528d1a9ece4b6addd5f2d,64d2fd46c836a06233681665,64dc7f20584a8f3af72ae994,,,,,,,decisionTrl,resources/DP.BMP,resources/DB.BMP,Door1,0.207407422,-0.033333355,1,0,0,0.8768,optionRight,30,3370,2,21,0,21,0,1,,,,,,,,,,,,,,,,,,,,,,,,,,,,,,,,,,,,,,,
,,,,,,,,2023-08-16_08h54.36.121,HF_wild_card,2022.2.4,Win32,60.0024001,63e528d1a9ece4b6addd5f2d,64d2fd46c836a06233681665,64dc7f20584a8f3af72ae994,,,,,,,sngl,resources/Empty.png,resources/DR.BMP,WildCard_NonEx,0.20185188,-0.041666667,1,0,0,0.7608,optionRight,45,3415,2,22,0,22,0,1,,,,,,,,,,,,,,,,,,,,,,,,,,,,,,,,,,,,,,,
,,,,,,,,2023-08-16_08h54.36.121,HF_wild_card,2022.2.4,Win32,60.0024001,63e528d1a9ece4b6addd5f2d,64d2fd46c836a06233681665,64dc7f20584a8f3af72ae994,,,,,,,sngl,resources/DY.BMP,resources/Empty.png,Door4,-0.151851866,0,1,0,0,0.643,optionLeft,60,3475,2,23,0,23,0,1,,,,,,,,,,,,,,,,,,,,,,,,,,,,,,,,,,,,,,,
,,,,,,,,2023-08-16_08h54.36.121,HF_wild_card,2022.2.4,Win32,60.0024001,63e528d1a9ece4b6addd5f2d,64d2fd46c836a06233681665,64dc7f20584a8f3af72ae994,,,,,,,ctch,resources/DB.BMP,resources/DY.BMP,Door4,0.162037037,-0.054629644,1,0,0,0.8438,optionRight,60,3535,2,24,0,24,0,1,,,,,,,,,,,,,,,,,,,,,,,,,,,,,,,,,,,,,,,
,,,,,,,,2023-08-16_08h54.36.121,HF_wild_card,2022.2.4,Win32,60.0024001,63e528d1a9ece4b6addd5f2d,64d2fd46c836a06233681665,64dc7f20584a8f3af72ae994,,,,,,,decisionTrl,resources/DP.BMP,resources/DR.BMP,Door2,-0.205555527,-0.042592614,1,0,0,0.9638,optionLeft,40,3575,2,25,0,25,0,1,,,,,,,,,,,,,,,,,,,,,,,,,,,,,,,,,,,,,,,
,,,,,,,,2023-08-16_08h54.36.121,HF_wild_card,2022.2.4,Win32,60.0024001,63e528d1a9ece4b6addd5f2d,64d2fd46c836a06233681665,64dc7f20584a8f3af72ae994,,,,,,,ctch,resources/DP.BMP,resources/DBN.BMP,Door3,0.425000085,-0.003703718,1,0,0,7.7585,optionRight,70,3645,2,26,0,26,0,1,,,,,,,,,,,,,,,,,,,,,,,,,,,,,,,,,,,,,,,
,,,,,,,,2023-08-16_08h54.36.121,HF_wild_card,2022.2.4,Win32,60.0024001,63e528d1a9ece4b6addd5f2d,64d2fd46c836a06233681665,64dc7f20584a8f3af72ae994,,,,,,,decisionTrl,resources/DBN.BMP,resources/DY.BMP,Door3,-0.202777792,-0.030555548,1,0,0,0.9302,optionLeft,70,3715,2,27,0,27,0,1,,,,,,,,,,,,,,,,,,,,,,,,,,,,,,,,,,,,,,,
,,,,,,,,2023-08-16_08h54.36.121,HF_wild_card,2022.2.4,Win32,60.0024001,63e528d1a9ece4b6addd5f2d,64d2fd46c836a06233681665,64dc7f20584a8f3af72ae994,,,,,,,ctch,resources/DBN.BMP,resources/DP.BMP,Door3,-0.385185171,-0.062037044,1,0,0,2.4945,optionLeft,70,3785,2,28,0,28,0,1,,,,,,,,,,,,,,,,,,,,,,,,,,,,,,,,,,,,,,,
,,,,,,,,2023-08-16_08h54.36.121,HF_wild_card,2022.2.4,Win32,60.0024001,63e528d1a9ece4b6addd5f2d,64d2fd46c836a06233681665,64dc7f20584a8f3af72ae994,,,,,,,decisionTrl,resources/DY.BMP,resources/DBN.BMP,Door4,-0.396296289,-0.044444437,1,0,0,0.8612,optionLeft,60,3845,2,29,0,29,0,1,,,,,,,,,,,,,,,,,,,,,,,,,,,,,,,,,,,,,,,
,,,,,,,,2023-08-16_08h54.36.121,HF_wild_card,2022.2.4,Win32,60.0024001,63e528d1a9ece4b6addd5f2d,64d2fd46c836a06233681665,64dc7f20584a8f3af72ae994,,,,,,,decisionTrl,resources/DB.BMP,resources/DP.BMP,Door2,0.253703718,0.008333312,1,0,0,2.2204,optionRight,40,3885,2,30,0,30,0,1,,,,,,,,,,,,,,,,,,,,,,,,,,,,,,,,,,,,,,,
,,,,,,,,2023-08-16_08h54.36.121,HF_wild_card,2022.2.4,Win32,60.0024001,63e528d1a9ece4b6addd5f2d,64d2fd46c836a06233681665,64dc7f20584a8f3af72ae994,,,,,,,ctch,resources/DY.BMP,resources/DB.BMP,Door1,0.173148191,0.01944443,1,0,0,0.8774,optionRight,30,3915,2,31,0,31,0,1,,,,,,,,,,,,,,,,,,,,,,,,,,,,,,,,,,,,,,,
,,,,,,,,2023-08-16_08h54.36.121,HF_wild_card,2022.2.4,Win32,60.0024001,63e528d1a9ece4b6addd5f2d,64d2fd46c836a06233681665,64dc7f20584a8f3af72ae994,,,,,,,decisionTrl,resources/DR.BMP,resources/DB.BMP,WildCard_NonEx,-0.375925912,-0.037962984,1,0,0,0.6612,optionLeft,55,3970,2,32,0,32,0,1,,,,,,,,,,,,,,,,,,,,,,,,,,,,,,,,,,,,,,,
,,,,,,,,2023-08-16_08h54.36.121,HF_wild_card,2022.2.4,Win32,60.0024001,63e528d1a9ece4b6addd5f2d,64d2fd46c836a06233681665,64dc7f20584a8f3af72ae994,,,,,,,sngl,resources/Empty.png,resources/DP.BMP,Door2,0.252777806,-0.030555548,1,0,0,0.7938,optionRight,40,4010,2,33,0,33,0,1,,,,,,,,,,,,,,,,,,,,,,,,,,,,,,,,,,,,,,,
,,,,,,,,2023-08-16_08h54.36.121,HF_wild_card,2022.2.4,Win32,60.0024001,63e528d1a9ece4b6addd5f2d,64d2fd46c836a06233681665,64dc7f20584a8f3af72ae994,,,,,,,sngl,resources/Empty.png,resources/DBN.BMP,Door3,0.299074102,0.011111118,1,0,0,0.7539,optionRight,70,4080,2,34,0,34,0,1,,,,,,,,,,,,,,,,,,,,,,,,,,,,,,,,,,,,,,,
,,,,,,,,2023-08-16_08h54.36.121,HF_wild_card,2022.2.4,Win32,60.0024001,63e528d1a9ece4b6addd5f2d,64d2fd46c836a06233681665,64dc7f20584a8f3af72ae994,,,,,,,decisionTrl,resources/DR.BMP,resources/DBN.BMP,Door3,0.275000042,-0.040740755,1,0,0,1.0705,optionRight,70,4150,2,35,0,35,0,1,,,,,,,,,,,,,,,,,,,,,,,,,,,,,,,,,,,,,,,
,,,,,,,,2023-08-16_08h54.36.121,HF_wild_card,2022.2.4,Win32,60.0024001,63e528d1a9ece4b6addd5f2d,64d2fd46c836a06233681665,64dc7f20584a8f3af72ae994,,,,,,,decisionTrl,resources/DBN.BMP,resources/DY.BMP,Door3,-0.343518504,-0.051851873,1,0,0,0.7021,optionLeft,70,4220,2,36,0,36,0,1,,,,,,,,,,,,,,,,,,,,,,,,,,,,,,,,,,,,,,,
,,,,,,,,2023-08-16_08h54.36.121,HF_wild_card,2022.2.4,Win32,60.0024001,63e528d1a9ece4b6addd5f2d,64d2fd46c836a06233681665,64dc7f20584a8f3af72ae994,,,,,,,decisionTrl,resources/DR.BMP,resources/DP.BMP,Door2,0.126851894,-0.059259273,1,0,0,0.8108,optionRight,20,4240,2,37,0,37,0,1,,,,,,,,,,,,,,,,,,,,,,,,,,,,,,,,,,,,,,,
,,,,,,,,2023-08-16_08h54.36.121,HF_wild_card,2022.2.4,Win32,60.0024001,63e528d1a9ece4b6addd5f2d,64d2fd46c836a06233681665,64dc7f20584a8f3af72ae994,,,,,,,sngl,resources/Empty.png,resources/DB.BMP,Door1,0.195370356,-0.043518526,1,0,0,0.6873,optionRight,30,4270,2,38,0,38,0,1,,,,,,,,,,,,,,,,,,,,,,,,,,,,,,,,,,,,,,,
,,,,,,,,2023-08-16_08h54.36.121,HF_wild_card,2022.2.4,Win32,60.0024001,63e528d1a9ece4b6addd5f2d,64d2fd46c836a06233681665,64dc7f20584a8f3af72ae994,,,,,,,ctch,resources/DBN.BMP,resources/DP.BMP,Door2,0.232407393,0.009259259,1,0,0,1.2964,optionRight,40,4310,2,39,0,39,0,1,,,,,,,,,,,,,,,,,,,,,,,,,,,,,,,,,,,,,,,
,,,,,,,,2023-08-16_08h54.36.121,HF_wild_card,2022.2.4,Win32,60.0024001,63e528d1a9ece4b6addd5f2d,64d2fd46c836a06233681665,64dc7f20584a8f3af72ae994,,,,,,,sngl,resources/DB.BMP,resources/Empty.png,Door1,-0.287037037,-0.030555548,1,0,0,0.666,optionLeft,30,4340,2,40,0,40,0,1,,,,,,,,,,,,,,,,,,,,,,,,,,,,,,,,,,,,,,,
,,,,,,,,2023-08-16_08h54.36.121,HF_wild_card,2022.2.4,Win32,60.0024001,63e528d1a9ece4b6addd5f2d,64d2fd46c836a06233681665,64dc7f20584a8f3af72ae994,,,,,,,decisionTrl,resources/DY.BMP,resources/DBN.BMP,Door3,0.172222208,-0.062037044,1,0,0,0.7792,optionRight,70,4410,2,41,0,41,0,1,,,,,,,,,,,,,,,,,,,,,,,,,,,,,,,,,,,,,,,
,,,,,,,,2023-08-16_08h54.36.121,HF_wild_card,2022.2.4,Win32,60.0024001,63e528d1a9ece4b6addd5f2d,64d2fd46c836a06233681665,64dc7f20584a8f3af72ae994,,,,,,,decisionTrl,resources/DBN.BMP,resources/DR.BMP,Door3,-0.276851866,-0.009259259,1,0,0,0.8298,optionLeft,70,4480,2,42,0,42,0,1,,,,,,,,,,,,,,,,,,,,,,,,,,,,,,,,,,,,,,,
,,,,,,,,2023-08-16_08h54.36.121,HF_wild_card,2022.2.4,Win32,60.0024001,63e528d1a9ece4b6addd5f2d,64d2fd46c836a06233681665,64dc7f20584a8f3af72ae994,,,,,,,decisionTrl,resources/DY.BMP,resources/DBN.BMP,Door3,0.279629672,0.021296289,1,0,0,0.5967,optionRight,70,4550,2,43,0,43,0,1,,,,,,,,,,,,,,,,,,,,,,,,,,,,,,,,,,,,,,,
,,,,,,,,2023-08-16_08h54.36.121,HF_wild_card,2022.2.4,Win32,60.0024001,63e528d1a9ece4b6addd5f2d,64d2fd46c836a06233681665,64dc7f20584a8f3af72ae994,,,,,,,,,,,,,,,,,,,,,,,,,,1,0,1,0,1,,,,,,,,,,,,,,,,,,,,,,,,,,,,,,,,,,
,,,,,,,,2023-08-16_08h54.36.121,HF_wild_card,2022.2.4,Win32,60.0024001,63e528d1a9ece4b6addd5f2d,64d2fd46c836a06233681665,64dc7f20584a8f3af72ae994,,,,,,,decisionTrl,resources/DBN.BMP,resources/DY.BMP,Door3,-0.302777785,-0.045370384,1,0,0,0.9454,optionLeft,70,4620,3,0,0,0,0,1,,,,,,,,,,,,,,,,,,,,,,,,,,,,,,,,,,,,,,,
,,,,,,,,2023-08-16_08h54.36.121,HF_wild_card,2022.2.4,Win32,60.0024001,63e528d1a9ece4b6addd5f2d,64d2fd46c836a06233681665,64dc7f20584a8f3af72ae994,,,,,,,ctch,resources/DBN.BMP,resources/DP.BMP,Door3,-0.40648146,0.013888889,1,0,0,0.5184,optionLeft,70,4690,3,1,0,1,0,1,,,,,,,,,,,,,,,,,,,,,,,,,,,,,,,,,,,,,,,
,,,,,,,,2023-08-16_08h54.36.121,HF_wild_card,2022.2.4,Win32,60.0024001,63e528d1a9ece4b6addd5f2d,64d2fd46c836a06233681665,64dc7f20584a8f3af72ae994,,,,,,,decisionTrl,resources/DR.BMP,resources/DP.BMP,Door2,0.253703718,-0.021296289,1,0,0,0.9941,optionRight,40,4730,3,2,0,2,0,1,,,,,,,,,,,,,,,,,,,,,,,,,,,,,,,,,,,,,,,
,,,,,,,,2023-08-16_08h54.36.121,HF_wild_card,2022.2.4,Win32,60.0024001,63e528d1a9ece4b6addd5f2d,64d2fd46c836a06233681665,64dc7f20584a8f3af72ae994,,,,,,,decisionTrl,resources/DBN.BMP,resources/DY.BMP,Door3,-0.22592594,-0.023148148,1,0,0,0.8782,optionLeft,70,4800,3,3,0,3,0,1,,,,,,,,,,,,,,,,,,,,,,,,,,,,,,,,,,,,,,,
,,,,,,,,2023-08-16_08h54.36.121,HF_wild_card,2022.2.4,Win32,60.0024001,63e528d1a9ece4b6addd5f2d,64d2fd46c836a06233681665,64dc7f20584a8f3af72ae994,,,,,,,sngl,resources/DY.BMP,resources/Empty.png,Door4,-0.237037023,-0.038888896,1,0,0,0.5442,optionLeft,80,4880,3,4,0,4,0,1,,,,,,,,,,,,,,,,,,,,,,,,,,,,,,,,,,,,,,,
,,,,,,,,2023-08-16_08h54.36.121,HF_wild_card,2022.2.4,Win32,60.0024001,63e528d1a9ece4b6addd5f2d,64d2fd46c836a06233681665,64dc7f20584a8f3af72ae994,,,,,,,ctch,resources/DP.BMP,resources/DBN.BMP,Door3,0.216666681,-0.034259266,1,0,0,0.6472,optionRight,70,4950,3,5,0,5,0,1,,,,,,,,,,,,,,,,,,,,,,,,,,,,,,,,,,,,,,,
,,,,,,,,2023-08-16_08h54.36.121,HF_wild_card,2022.2.4,Win32,60.0024001,63e528d1a9ece4b6addd5f2d,64d2fd46c836a06233681665,64dc7f20584a8f3af72ae994,,,,,,,ctch,resources/DY.BMP,resources/DB.BMP,Door4,-0.204629616,-0.029629637,1,0,0,0.7205,optionLeft,80,5030,3,6,0,6,0,1,,,,,,,,,,,,,,,,,,,,,,,,,,,,,,,,,,,,,,,
,,,,,,,,2023-08-16_08h54.36.121,HF_wild_card,2022.2.4,Win32,60.0024001,63e528d1a9ece4b6addd5f2d,64d2fd46c836a06233681665,64dc7f20584a8f3af72ae994,,,,,,,sngl,resources/DR.BMP,resources/Empty.png,WildCard_NonEx,-0.275925884,-0.039814808,1,0,0,0.5963,optionLeft,45,5075,3,7,0,7,0,1,,,,,,,,,,,,,,,,,,,,,,,,,,,,,,,,,,,,,,,
,,,,,,,,2023-08-16_08h54.36.121,HF_wild_card,2022.2.4,Win32,60.0024001,63e528d1a9ece4b6addd5f2d,64d2fd46c836a06233681665,64dc7f20584a8f3af72ae994,,,,,,,decisionTrl,resources/DY.BMP,resources/DBN.BMP,Door3,0.145370413,-0.048148155,1,0,0,0.7968,optionRight,70,5145,3,8,0,8,0,1,,,,,,,,,,,,,,,,,,,,,,,,,,,,,,,,,,,,,,,
,,,,,,,,2023-08-16_08h54.36.121,HF_wild_card,2022.2.4,Win32,60.0024001,63e528d1a9ece4b6addd5f2d,64d2fd46c836a06233681665,64dc7f20584a8f3af72ae994,,,,,,,sngl,resources/Empty.png,resources/DR.BMP,WildCard_NonEx,0.170370384,-0.036111125,1,0,0,0.7777,optionRight,45,5190,3,9,0,9,0,1,,,,,,,,,,,,,,,,,,,,,,,,,,,,,,,,,,,,,,,
,,,,,,,,2023-08-16_08h54.36.121,HF_wild_card,2022.2.4,Win32,60.0024001,63e528d1a9ece4b6addd5f2d,64d2fd46c836a06233681665,64dc7f20584a8f3af72ae994,,,,,,,decisionTrl,resources/DY.BMP,resources/DBN.BMP,Door3,0.183333362,-0.029629637,1,0,0,0.9105,optionRight,70,5260,3,10,0,10,0,1,,,,,,,,,,,,,,,,,,,,,,,,,,,,,,,,,,,,,,,
,,,,,,,,2023-08-16_08h54.36.121,HF_wild_card,2022.2.4,Win32,60.0024001,63e528d1a9ece4b6addd5f2d,64d2fd46c836a06233681665,64dc7f20584a8f3af72ae994,,,,,,,decisionTrl,resources/DB.BMP,resources/DP.BMP,Door2,0.12037037,-0.012962977,1,0,0,0.9534,optionRight,20,5280,3,11,0,11,0,1,,,,,,,,,,,,,,,,,,,,,,,,,,,,,,,,,,,,,,,
,,,,,,,,2023-08-16_08h54.36.121,HF_wild_card,2022.2.4,Win32,60.0024001,63e528d1a9ece4b6addd5f2d,64d2fd46c836a06233681665,64dc7f20584a8f3af72ae994,,,,,,,ctch,resources/DB.BMP,resources/DY.BMP,Door1,-0.142592607,-0.048148155,1,0,0,0.7227,optionLeft,30,5310,3,12,0,12,0,1,,,,,,,,,,,,,,,,,,,,,,,,,,,,,,,,,,,,,,,
,,,,,,,,2023-08-16_08h54.36.121,HF_wild_card,2022.2.4,Win32,60.0024001,63e528d1a9ece4b6addd5f2d,64d2fd46c836a06233681665,64dc7f20584a8f3af72ae994,,,,,,,decisionTrl,resources/DB.BMP,resources/DR.BMP,WildCard_NonEx,0.207407422,-0.033333355,1,0,0,1.3094,optionRight,55,5365,3,13,0,13,0,1,,,,,,,,,,,,,,,,,,,,,,,,,,,,,,,,,,,,,,,
,,,,,,,,2023-08-16_08h54.36.121,HF_wild_card,2022.2.4,Win32,60.0024001,63e528d1a9ece4b6addd5f2d,64d2fd46c836a06233681665,64dc7f20584a8f3af72ae994,,,,,,,decisionTrl,resources/DP.BMP,resources/DB.BMP,Door2,-0.213888875,-0.062962956,1,0,0,1.2871,optionLeft,40,5405,3,14,0,14,0,1,,,,,,,,,,,,,,,,,,,,,,,,,,,,,,,,,,,,,,,
,,,,,,,,2023-08-16_08h54.36.121,HF_wild_card,2022.2.4,Win32,60.0024001,63e528d1a9ece4b6addd5f2d,64d2fd46c836a06233681665,64dc7f20584a8f3af72ae994,,,,,,,ctch,resources/DP.BMP,resources/DBN.BMP,Door3,0.136111153,-0.062037044,1,0,0,0.6948,optionRight,70,5475,3,15,0,15,0,1,,,,,,,,,,,,,,,,,,,,,,,,,,,,,,,,,,,,,,,
,,,,,,,,2023-08-16_08h54.36.121,HF_wild_card,2022.2.4,Win32,60.0024001,63e528d1a9ece4b6addd5f2d,64d2fd46c836a06233681665,64dc7f20584a8f3af72ae994,,,,,,,decisionTrl,resources/DP.BMP,resources/DB.BMP,Door1,0.127777806,-0.057407414,1,0,0,1.4093,optionRight,30,5505,3,16,0,16,0,1,,,,,,,,,,,,,,,,,,,,,,,,,,,,,,,,,,,,,,,
,,,,,,,,2023-08-16_08h54.36.121,HF_wild_card,2022.2.4,Win32,60.0024001,63e528d1a9ece4b6addd5f2d,64d2fd46c836a06233681665,64dc7f20584a8f3af72ae994,,,,,,,sngl,resources/Empty.png,resources/DBN.BMP,Door3,0.247222265,-0.01666666,1,0,0,0.7435,optionRight,70,5575,3,17,0,17,0,1,,,,,,,,,,,,,,,,,,,,,,,,,,,,,,,,,,,,,,,
,,,,,,,,2023-08-16_08h54.36.121,HF_wild_card,2022.2.4,Win32,60.0024001,63e528d1a9ece4b6addd5f2d,64d2fd46c836a06233681665,64dc7f20584a8f3af72ae994,,,,,,,decisionTrl,resources/DP.BMP,resources/DB.BMP,Door2,0.098148134,-0.054629644,1,0,0,1.578,optionLeft,40,5615,3,18,0,18,0,1,,,,,,,,,,,,,,,,,,,,,,,,,,,,,,,,,,,,,,,
,,,,,,,,2023-08-16_08h54.36.121,HF_wild_card,2022.2.4,Win32,60.0024001,63e528d1a9ece4b6addd5f2d,64d2fd46c836a06233681665,64dc7f20584a8f3af72ae994,,,,,,,sngl,resources/Empty.png,resources/DY.BMP,Door4,0.222222222,-0.026851866,1,0,0,0.7236,optionRight,60,5675,3,19,0,19,0,1,,,,,,,,,,,,,,,,,,,,,,,,,,,,,,,,,,,,,,,
,,,,,,,,2023-08-16_08h54.36.121,HF_wild_card,2022.2.4,Win32,60.0024001,63e528d1a9ece4b6addd5f2d,64d2fd46c836a06233681665,64dc7f20584a8f3af72ae994,,,,,,,decisionTrl,resources/DB.BMP,resources/DP.BMP,Door2,0.151851866,-0.039814808,1,0,0,1.1105,optionRight,40,5715,3,20,0,20,0,1,,,,,,,,,,,,,,,,,,,,,,,,,,,,,,,,,,,,,,,
,,,,,,,,2023-08-16_08h54.36.121,HF_wild_card,2022.2.4,Win32,60.0024001,63e528d1a9ece4b6addd5f2d,64d2fd46c836a06233681665,64dc7f20584a8f3af72ae994,,,,,,,decisionTrl,resources/DBN.BMP,resources/DR.BMP,Door3,-0.184259273,-0.026851866,1,0,0,0.643,optionLeft,70,5785,3,21,0,21,0,1,,,,,,,,,,,,,,,,,,,,,,,,,,,,,,,,,,,,,,,
,,,,,,,,2023-08-16_08h54.36.121,HF_wild_card,2022.2.4,Win32,60.0024001,63e528d1a9ece4b6addd5f2d,64d2fd46c836a06233681665,64dc7f20584a8f3af72ae994,,,,,,,decisionTrl,resources/DR.BMP,resources/DBN.BMP,Door3,0.37962963,0,1,0,0,1.7607,optionRight,70,5855,3,22,0,22,0,1,,,,,,,,,,,,,,,,,,,,,,,,,,,,,,,,,,,,,,,
,,,,,,,,2023-08-16_08h54.36.121,HF_wild_card,2022.2.4,Win32,60.0024001,63e528d1a9ece4b6addd5f2d,64d2fd46c836a06233681665,64dc7f20584a8f3af72ae994,,,,,,,decisionTrl,resources/DP.BMP,resources/DB.BMP,Door2,-0.175925926,-0.052777785,1,0,0,1.3272,optionLeft,40,5895,3,23,0,23,0,1,,,,,,,,,,,,,,,,,,,,,,,,,,,,,,,,,,,,,,,
,,,,,,,,2023-08-16_08h54.36.121,HF_wild_card,2022.2.4,Win32,60.0024001,63e528d1a9ece4b6addd5f2d,64d2fd46c836a06233681665,64dc7f20584a8f3af72ae994,,,,,,,decisionTrl,resources/DB.BMP,resources/DP.BMP,Door2,0.252777806,-0.031481496,1,0,0,0.8604,optionRight,40,5935,3,24,0,24,0,1,,,,,,,,,,,,,,,,,,,,,,,,,,,,,,,,,,,,,,,
,,,,,,,,2023-08-16_08h54.36.121,HF_wild_card,2022.2.4,Win32,60.0024001,63e528d1a9ece4b6addd5f2d,64d2fd46c836a06233681665,64dc7f20584a8f3af72ae994,,,,,,,decisionTrl,resources/DY.BMP,resources/DBN.BMP,Door3,0.172222208,-0.023148148,1,0,0,0.5271,optionRight,70,6005,3,25,0,25,0,1,,,,,,,,,,,,,,,,,,,,,,,,,,,,,,,,,,,,,,,
,,,,,,,,2023-08-16_08h54.36.121,HF_wild_card,2022.2.4,Win32,60.0024001,63e528d1a9ece4b6addd5f2d,64d2fd46c836a06233681665,64dc7f20584a8f3af72ae994,,,,,,,decisionTrl,resources/DY.BMP,resources/DR.BMP,Door4,-0.157407407,-0.044444437,1,0,0,0.9783,optionLeft,80,6085,3,26,0,26,0,1,,,,,,,,,,,,,,,,,,,,,,,,,,,,,,,,,,,,,,,
,,,,,,,,2023-08-16_08h54.36.121,HF_wild_card,2022.2.4,Win32,60.0024001,63e528d1a9ece4b6addd5f2d,64d2fd46c836a06233681665,64dc7f20584a8f3af72ae994,,,,,,,decisionTrl,resources/DBN.BMP,resources/DY.BMP,Door4,0.140740783,-0.034259266,1,0,0,1.2239,optionRight,80,6165,3,27,0,27,0,1,,,,,,,,,,,,,,,,,,,,,,,,,,,,,,,,,,,,,,,
,,,,,,,,2023-08-16_08h54.36.121,HF_wild_card,2022.2.4,Win32,60.0024001,63e528d1a9ece4b6addd5f2d,64d2fd46c836a06233681665,64dc7f20584a8f3af72ae994,,,,,,,decisionTrl,resources/DBN.BMP,resources/DY.BMP,Door4,0.428703732,0.001851859,1,0,0,1.9123,optionRight,60,6225,3,28,0,28,0,1,,,,,,,,,,,,,,,,,,,,,,,,,,,,,,,,,,,,,,,
,,,,,,,,2023-08-16_08h54.36.121,HF_wild_card,2022.2.4,Win32,60.0024001,63e528d1a9ece4b6addd5f2d,64d2fd46c836a06233681665,64dc7f20584a8f3af72ae994,,,,,,,sngl,resources/DP.BMP,resources/Empty.png,Door2,-0.309259238,-0.058333326,1,0,0,0.7778,optionLeft,40,6265,3,29,0,29,0,1,,,,,,,,,,,,,,,,,,,,,,,,,,,,,,,,,,,,,,,
,,,,,,,,2023-08-16_08h54.36.121,HF_wild_card,2022.2.4,Win32,60.0024001,63e528d1a9ece4b6addd5f2d,64d2fd46c836a06233681665,64dc7f20584a8f3af72ae994,,,,,,,decisionTrl,resources/DY.BMP,resources/DBN.BMP,Door3,0.210185228,-0.022222236,1,0,0,1.1606,optionRight,70,6335,3,30,0,30,0,1,,,,,,,,,,,,,,,,,,,,,,,,,,,,,,,,,,,,,,,
,,,,,,,,2023-08-16_08h54.36.121,HF_wild_card,2022.2.4,Win32,60.0024001,63e528d1a9ece4b6addd5f2d,64d2fd46c836a06233681665,64dc7f20584a8f3af72ae994,,,,,,,decisionTrl,resources/DR.BMP,resources/DY.BMP,Door4,0.159259302,-0.030555548,1,0,0,3.0268,optionRight,60,6395,3,31,0,31,0,1,,,,,,,,,,,,,,,,,,,,,,,,,,,,,,,,,,,,,,,
,,,,,,,,2023-08-16_08h54.36.121,HF_wild_card,2022.2.4,Win32,60.0024001,63e528d1a9ece4b6addd5f2d,64d2fd46c836a06233681665,64dc7f20584a8f3af72ae994,,,,,,,decisionTrl,resources/DB.BMP,resources/DP.BMP,Door2,0.231481481,-0.052777785,1,0,0,1.147,optionRight,20,6415,3,32,0,32,0,1,,,,,,,,,,,,,,,,,,,,,,,,,,,,,,,,,,,,,,,
,,,,,,,,2023-08-16_08h54.36.121,HF_wild_card,2022.2.4,Win32,60.0024001,63e528d1a9ece4b6addd5f2d,64d2fd46c836a06233681665,64dc7f20584a8f3af72ae994,,,,,,,ctch,resources/DB.BMP,resources/DY.BMP,Door4,0.333333333,-0.038888896,1,0,0,1.7782,optionRight,60,6475,3,33,0,33,0,1,,,,,,,,,,,,,,,,,,,,,,,,,,,,,,,,,,,,,,,
,,,,,,,,2023-08-16_08h54.36.121,HF_wild_card,2022.2.4,Win32,60.0024001,63e528d1a9ece4b6addd5f2d,64d2fd46c836a06233681665,64dc7f20584a8f3af72ae994,,,,,,,sngl,resources/Empty.png,resources/DP.BMP,Door2,0.270370413,-0.009259259,1,0,0,0.5757,optionRight,20,6495,3,34,0,34,0,1,,,,,,,,,,,,,,,,,,,,,,,,,,,,,,,,,,,,,,,
,,,,,,,,2023-08-16_08h54.36.121,HF_wild_card,2022.2.4,Win32,60.0024001,63e528d1a9ece4b6addd5f2d,64d2fd46c836a06233681665,64dc7f20584a8f3af72ae994,,,,,,,decisionTrl,resources/DR.BMP,resources/DB.BMP,WildCard_NonEx,-0.265740712,-0.055555556,1,0,0,0.9768,optionLeft,55,6550,3,35,0,35,0,1,,,,,,,,,,,,,,,,,,,,,,,,,,,,,,,,,,,,,,,
,,,,,,,,2023-08-16_08h54.36.121,HF_wild_card,2022.2.4,Win32,60.0024001,63e528d1a9ece4b6addd5f2d,64d2fd46c836a06233681665,64dc7f20584a8f3af72ae994,,,,,,,sngl,resources/Empty.png,resources/DB.BMP,Door1,0.195370356,-0.036111125,1,0,0,0.5269,optionRight,30,6580,3,36,0,36,0,1,,,,,,,,,,,,,,,,,,,,,,,,,,,,,,,,,,,,,,,
,,,,,,,,2023-08-16_08h54.36.121,HF_wild_card,2022.2.4,Win32,60.0024001,63e528d1a9ece4b6addd5f2d,64d2fd46c836a06233681665,64dc7f20584a8f3af72ae994,,,,,,,sngl,resources/DR.BMP,resources/Empty.png,WildCard_NonEx,-0.527777778,-0.08888891,1,0,0,0.6437,optionLeft,55,6635,3,37,0,37,0,1,,,,,,,,,,,,,,,,,,,,,,,,,,,,,,,,,,,,,,,
,,,,,,,,2023-08-16_08h54.36.121,HF_wild_card,2022.2.4,Win32,60.0024001,63e528d1a9ece4b6addd5f2d,64d2fd46c836a06233681665,64dc7f20584a8f3af72ae994,,,,,,,ctch,resources/DY.BMP,resources/DB.BMP,Door1,0.169444473,-0.039814808,1,0,0,4.0106,optionRight,30,6665,3,38,0,38,0,1,,,,,,,,,,,,,,,,,,,,,,,,,,,,,,,,,,,,,,,
,,,,,,,,2023-08-16_08h54.36.121,HF_wild_card,2022.2.4,Win32,60.0024001,63e528d1a9ece4b6addd5f2d,64d2fd46c836a06233681665,64dc7f20584a8f3af72ae994,,,,,,,sngl,resources/DBN.BMP,resources/Empty.png,Door3,-0.239814829,-0.042592614,1,0,0,0.5775,optionLeft,70,6735,3,39,0,39,0,1,,,,,,,,,,,,,,,,,,,,,,,,,,,,,,,,,,,,,,,
,,,,,,,,2023-08-16_08h54.36.121,HF_wild_card,2022.2.4,Win32,60.0024001,63e528d1a9ece4b6addd5f2d,64d2fd46c836a06233681665,64dc7f20584a8f3af72ae994,,,,,,,decisionTrl,resources/DP.BMP,resources/DR.BMP,Door2,-0.223148134,-0.060185185,1,0,0,1.2093,optionLeft,40,6775,3,40,0,40,0,1,,,,,,,,,,,,,,,,,,,,,,,,,,,,,,,,,,,,,,,
,,,,,,,,2023-08-16_08h54.36.121,HF_wild_card,2022.2.4,Win32,60.0024001,63e528d1a9ece4b6addd5f2d,64d2fd46c836a06233681665,64dc7f20584a8f3af72ae994,,,,,,,sngl,resources/Empty.png,resources/DR.BMP,WildCard_NonEx,0.323148233,-0.049074067,1,0,0,0.71,optionRight,55,6830,3,41,0,41,0,1,,,,,,,,,,,,,,,,,,,,,,,,,,,,,,,,,,,,,,,
,,,,,,,,2023-08-16_08h54.36.121,HF_wild_card,2022.2.4,Win32,60.0024001,63e528d1a9ece4b6addd5f2d,64d2fd46c836a06233681665,64dc7f20584a8f3af72ae994,,,,,,,sngl,resources/DB.BMP,resources/Empty.png,Door1,-0.268518519,-0.087962963,1,0,0,0.7279,optionLeft,30,6860,3,42,0,42,0,1,,,,,,,,,,,,,,,,,,,,,,,,,,,,,,,,,,,,,,,
,,,,,,,,2023-08-16_08h54.36.121,HF_wild_card,2022.2.4,Win32,60.0024001,63e528d1a9ece4b6addd5f2d,64d2fd46c836a06233681665,64dc7f20584a8f3af72ae994,,,,,,,ctch,resources/DBN.BMP,resources/DP.BMP,Door3,-0.325925933,-0.095370399,1,0,0,0.7923,optionLeft,70,6930,3,43,0,43,0,1,,,,,,,,,,,,,,,,,,,,,,,,,,,,,,,,,,,,,,,
,,,,,,,,2023-08-16_08h54.36.121,HF_wild_card,2022.2.4,Win32,60.0024001,63e528d1a9ece4b6addd5f2d,64d2fd46c836a06233681665,64dc7f20584a8f3af72ae994,,,,,,,,,,,,,,,,,,,,,,,,,,2,0,2,0,1,,,,,,,,,,,,,,,,,,,,,,,,,,,,,,,,,,
,,,,,,,,2023-08-16_08h54.36.121,HF_wild_card,2022.2.4,Win32,60.0024001,63e528d1a9ece4b6addd5f2d,64d2fd46c836a06233681665,64dc7f20584a8f3af72ae994,,,,,,,ctch,resources/DBN.BMP,resources/DP.BMP,Door3,-0.17314812,-0.027777778,1,0,0,0.7354,optionLeft,70,7000,4,0,0,0,0,1,,,,,,,,,,,,,,,,,,,,,,,,,,,,,,,,,,,,,,,
,,,,,,,,2023-08-16_08h54.36.121,HF_wild_card,2022.2.4,Win32,60.0024001,63e528d1a9ece4b6addd5f2d,64d2fd46c836a06233681665,64dc7f20584a8f3af72ae994,,,,,,,sngl,resources/Empty.png,resources/DP.BMP,Door2,0.193518533,-0.028703725,1,0,0,0.5203,optionRight,40,7040,4,1,0,1,0,1,,,,,,,,,,,,,,,,,,,,,,,,,,,,,,,,,,,,,,,
,,,,,,,,2023-08-16_08h54.36.121,HF_wild_card,2022.2.4,Win32,60.0024001,63e528d1a9ece4b6addd5f2d,64d2fd46c836a06233681665,64dc7f20584a8f3af72ae994,,,,,,,sngl,resources/Empty.png,resources/DBN.BMP,Door3,0.229629658,-0.050000014,1,0,0,0.5111,optionRight,70,7110,4,2,0,2,0,1,,,,,,,,,,,,,,,,,,,,,,,,,,,,,,,,,,,,,,,
,,,,,,,,2023-08-16_08h54.36.121,HF_wild_card,2022.2.4,Win32,60.0024001,63e528d1a9ece4b6addd5f2d,64d2fd46c836a06233681665,64dc7f20584a8f3af72ae994,,,,,,,ctch,resources/DB.BMP,resources/DY.BMP,Door4,0.189814815,-0.075000021,1,0,0,1.4445,optionRight,80,7190,4,3,0,3,0,1,,,,,,,,,,,,,,,,,,,,,,,,,,,,,,,,,,,,,,,
,,,,,,,,2023-08-16_08h54.36.121,HF_wild_card,2022.2.4,Win32,60.0024001,63e528d1a9ece4b6addd5f2d,64d2fd46c836a06233681665,64dc7f20584a8f3af72ae994,,,,,,,decisionTrl,resources/DY.BMP,resources/DBN.BMP,Door4,-0.321296303,-0.047222243,1,0,0,0.5771,optionLeft,80,7270,4,4,0,4,0,1,,,,,,,,,,,,,,,,,,,,,,,,,,,,,,,,,,,,,,,
,,,,,,,,2023-08-16_08h54.36.121,HF_wild_card,2022.2.4,Win32,60.0024001,63e528d1a9ece4b6addd5f2d,64d2fd46c836a06233681665,64dc7f20584a8f3af72ae994,,,,,,,sngl,resources/Empty.png,resources/DG.BMP,WildCard_Ex,0.406481566,0.063888868,1,0,0,1.0931,optionRight,55,7325,4,5,0,5,0,1,,,,,,,,,,,,,,,,,,,,,,,,,,,,,,,,,,,,,,,
,,,,,,,,2023-08-16_08h54.36.121,HF_wild_card,2022.2.4,Win32,60.0024001,63e528d1a9ece4b6addd5f2d,64d2fd46c836a06233681665,64dc7f20584a8f3af72ae994,,,,,,,sngl,resources/DG.BMP,resources/Empty.png,WildCard_Ex,-0.27407406,0.033333319,1,0,0,0.788,optionLeft,55,7380,4,6,0,6,0,1,,,,,,,,,,,,,,,,,,,,,,,,,,,,,,,,,,,,,,,
,,,,,,,,2023-08-16_08h54.36.121,HF_wild_card,2022.2.4,Win32,60.0024001,63e528d1a9ece4b6addd5f2d,64d2fd46c836a06233681665,64dc7f20584a8f3af72ae994,,,,,,,decisionTrl,resources/DG.BMP,resources/DB.BMP,WildCard_Ex,-0.325925933,-0.028703725,1,0,0,0.97,optionLeft,55,7435,4,7,0,7,0,1,,,,,,,,,,,,,,,,,,,,,,,,,,,,,,,,,,,,,,,
,,,,,,,,2023-08-16_08h54.36.121,HF_wild_card,2022.2.4,Win32,60.0024001,63e528d1a9ece4b6addd5f2d,64d2fd46c836a06233681665,64dc7f20584a8f3af72ae994,,,,,,,decisionTrl,resources/DY.BMP,resources/DG.BMP,Door4,-0.175925926,0.001851859,1,0,0,1.8919,optionLeft,60,7495,4,8,0,8,0,1,,,,,,,,,,,,,,,,,,,,,,,,,,,,,,,,,,,,,,,
,,,,,,,,2023-08-16_08h54.36.121,HF_wild_card,2022.2.4,Win32,60.0024001,63e528d1a9ece4b6addd5f2d,64d2fd46c836a06233681665,64dc7f20584a8f3af72ae994,,,,,,,decisionTrl,resources/DBN.BMP,resources/DY.BMP,Door4,0.257407436,-0.026851866,1,0,0,0.5604,optionRight,60,7555,4,9,0,9,0,1,,,,,,,,,,,,,,,,,,,,,,,,,,,,,,,,,,,,,,,
,,,,,,,,2023-08-16_08h54.36.121,HF_wild_card,2022.2.4,Win32,60.0024001,63e528d1a9ece4b6addd5f2d,64d2fd46c836a06233681665,64dc7f20584a8f3af72ae994,,,,,,,sngl,resources/DP.BMP,resources/Empty.png,Door2,-0.332407386,-0.029629637,1,0,0,0.4779,optionLeft,20,7575,4,10,0,10,0,1,,,,,,,,,,,,,,,,,,,,,,,,,,,,,,,,,,,,,,,
,,,,,,,,2023-08-16_08h54.36.121,HF_wild_card,2022.2.4,Win32,60.0024001,63e528d1a9ece4b6addd5f2d,64d2fd46c836a06233681665,64dc7f20584a8f3af72ae994,,,,,,,sngl,resources/DG.BMP,resources/Empty.png,WildCard_Ex,-0.331481474,-0.00462963,1,0,0,0.697,optionLeft,45,7620,4,11,0,11,0,1,,,,,,,,,,,,,,,,,,,,,,,,,,,,,,,,,,,,,,,
,,,,,,,,2023-08-16_08h54.36.121,HF_wild_card,2022.2.4,Win32,60.0024001,63e528d1a9ece4b6addd5f2d,64d2fd46c836a06233681665,64dc7f20584a8f3af72ae994,,,,,,,decisionTrl,resources/DP.BMP,resources/DB.BMP,Door2,-0.421296296,-0.021296289,1,0,0,0.9771,optionLeft,40,7660,4,12,0,12,0,1,,,,,,,,,,,,,,,,,,,,,,,,,,,,,,,,,,,,,,,
,,,,,,,,2023-08-16_08h54.36.121,HF_wild_card,2022.2.4,Win32,60.0024001,63e528d1a9ece4b6addd5f2d,64d2fd46c836a06233681665,64dc7f20584a8f3af72ae994,,,,,,,sngl,resources/DY.BMP,resources/Empty.png,Door4,-0.277777778,-0.071296303,1,0,0,0.6036,optionLeft,60,7720,4,13,0,13,0,1,,,,,,,,,,,,,,,,,,,,,,,,,,,,,,,,,,,,,,,
,,,,,,,,2023-08-16_08h54.36.121,HF_wild_card,2022.2.4,Win32,60.0024001,63e528d1a9ece4b6addd5f2d,64d2fd46c836a06233681665,64dc7f20584a8f3af72ae994,,,,,,,decisionTrl,resources/DBN.BMP,resources/DY.BMP,Door3,-0.305555556,-0.022222236,1,0,0,0.7527,optionLeft,70,7790,4,14,0,14,0,1,,,,,,,,,,,,,,,,,,,,,,,,,,,,,,,,,,,,,,,
,,,,,,,,2023-08-16_08h54.36.121,HF_wild_card,2022.2.4,Win32,60.0024001,63e528d1a9ece4b6addd5f2d,64d2fd46c836a06233681665,64dc7f20584a8f3af72ae994,,,,,,,decisionTrl,resources/DP.BMP,resources/DG.BMP,WildCard_Ex,0.337037122,-0.020370377,1,0,0,1.1609,optionRight,55,7845,4,15,0,15,0,1,,,,,,,,,,,,,,,,,,,,,,,,,,,,,,,,,,,,,,,
,,,,,,,,2023-08-16_08h54.36.121,HF_wild_card,2022.2.4,Win32,60.0024001,63e528d1a9ece4b6addd5f2d,64d2fd46c836a06233681665,64dc7f20584a8f3af72ae994,,,,,,,decisionTrl,resources/DB.BMP,resources/DG.BMP,WildCard_Ex,0.099074116,-0.028703725,1,0,0,2.0439,optionRight,55,7900,4,16,0,16,0,1,,,,,,,,,,,,,,,,,,,,,,,,,,,,,,,,,,,,,,,
,,,,,,,,2023-08-16_08h54.36.121,HF_wild_card,2022.2.4,Win32,60.0024001,63e528d1a9ece4b6addd5f2d,64d2fd46c836a06233681665,64dc7f20584a8f3af72ae994,,,,,,,sngl,resources/DB.BMP,resources/Empty.png,Door1,-0.39444443,-0.078703704,1,0,0,1.9967,optionLeft,30,7930,4,17,0,17,0,1,,,,,,,,,,,,,,,,,,,,,,,,,,,,,,,,,,,,,,,
,,,,,,,,2023-08-16_08h54.36.121,HF_wild_card,2022.2.4,Win32,60.0024001,63e528d1a9ece4b6addd5f2d,64d2fd46c836a06233681665,64dc7f20584a8f3af72ae994,,,,,,,ctch,resources/DBN.BMP,resources/DP.BMP,Door3,-0.191666638,-0.053703697,1,0,0,2.4085,optionLeft,70,8000,4,18,0,18,0,1,,,,,,,,,,,,,,,,,,,,,,,,,,,,,,,,,,,,,,,
,,,,,,,,2023-08-16_08h54.36.121,HF_wild_card,2022.2.4,Win32,60.0024001,63e528d1a9ece4b6addd5f2d,64d2fd46c836a06233681665,64dc7f20584a8f3af72ae994,,,,,,,ctch,resources/DP.BMP,resources/DBN.BMP,Door3,0.323148233,0.027777778,1,0,0,0.7283,optionRight,70,8070,4,19,0,19,0,1,,,,,,,,,,,,,,,,,,,,,,,,,,,,,,,,,,,,,,,
,,,,,,,,2023-08-16_08h54.36.121,HF_wild_card,2022.2.4,Win32,60.0024001,63e528d1a9ece4b6addd5f2d,64d2fd46c836a06233681665,64dc7f20584a8f3af72ae994,,,,,,,ctch,resources/DY.BMP,resources/DB.BMP,Door4,-0.112962935,0.00462963,1,0,0,1.0777,optionLeft,80,8150,4,20,0,20,0,1,,,,,,,,,,,,,,,,,,,,,,,,,,,,,,,,,,,,,,,
,,,,,,,,2023-08-16_08h54.36.121,HF_wild_card,2022.2.4,Win32,60.0024001,63e528d1a9ece4b6addd5f2d,64d2fd46c836a06233681665,64dc7f20584a8f3af72ae994,,,,,,,decisionTrl,resources/DG.BMP,resources/DP.BMP,Door2,0.262037065,-0.037962984,1,0,0,1.0565,optionRight,40,8190,4,21,0,21,0,1,,,,,,,,,,,,,,,,,,,,,,,,,,,,,,,,,,,,,,,
,,,,,,,,2023-08-16_08h54.36.121,HF_wild_card,2022.2.4,Win32,60.0024001,63e528d1a9ece4b6addd5f2d,64d2fd46c836a06233681665,64dc7f20584a8f3af72ae994,,,,,,,decisionTrl,resources/DG.BMP,resources/DBN.BMP,Door3,0.304629714,-0.024074095,1,0,0,0.7276,optionRight,70,8260,4,22,0,22,0,1,,,,,,,,,,,,,,,,,,,,,,,,,,,,,,,,,,,,,,,
,,,,,,,,2023-08-16_08h54.36.121,HF_wild_card,2022.2.4,Win32,60.0024001,63e528d1a9ece4b6addd5f2d,64d2fd46c836a06233681665,64dc7f20584a8f3af72ae994,,,,,,,sngl,resources/Empty.png,resources/DB.BMP,Door1,0.277777778,0.00462963,1,0,0,0.5445,optionRight,30,8290,4,23,0,23,0,1,,,,,,,,,,,,,,,,,,,,,,,,,,,,,,,,,,,,,,,
,,,,,,,,2023-08-16_08h54.36.121,HF_wild_card,2022.2.4,Win32,60.0024001,63e528d1a9ece4b6addd5f2d,64d2fd46c836a06233681665,64dc7f20584a8f3af72ae994,,,,,,,decisionTrl,resources/DG.BMP,resources/DY.BMP,WildCard_Ex,-0.233333305,-0.040740755,1,0,0,0.8212,optionLeft,45,8335,4,24,0,24,0,1,,,,,,,,,,,,,,,,,,,,,,,,,,,,,,,,,,,,,,,
,,,,,,,,2023-08-16_08h54.36.121,HF_wild_card,2022.2.4,Win32,60.0024001,63e528d1a9ece4b6addd5f2d,64d2fd46c836a06233681665,64dc7f20584a8f3af72ae994,,,,,,,ctch,resources/DB.BMP,resources/DY.BMP,Door4,0.276851866,-0.047222243,1,0,0,0.5273,optionRight,60,8395,4,25,0,25,0,1,,,,,,,,,,,,,,,,,,,,,,,,,,,,,,,,,,,,,,,
,,,,,,,,2023-08-16_08h54.36.121,HF_wild_card,2022.2.4,Win32,60.0024001,63e528d1a9ece4b6addd5f2d,64d2fd46c836a06233681665,64dc7f20584a8f3af72ae994,,,,,,,decisionTrl,resources/DY.BMP,resources/DBN.BMP,Door3,0.18240745,-0.025000007,1,0,0,0.8115,optionRight,70,8465,4,26,0,26,0,1,,,,,,,,,,,,,,,,,,,,,,,,,,,,,,,,,,,,,,,
,,,,,,,,2023-08-16_08h54.36.121,HF_wild_card,2022.2.4,Win32,60.0024001,63e528d1a9ece4b6addd5f2d,64d2fd46c836a06233681665,64dc7f20584a8f3af72ae994,,,,,,,decisionTrl,resources/DBN.BMP,resources/DY.BMP,Door3,-0.229629587,-0.061111132,1,0,0,0.6744,optionLeft,70,8535,4,27,0,27,0,1,,,,,,,,,,,,,,,,,,,,,,,,,,,,,,,,,,,,,,,
,,,,,,,,2023-08-16_08h54.36.121,HF_wild_card,2022.2.4,Win32,60.0024001,63e528d1a9ece4b6addd5f2d,64d2fd46c836a06233681665,64dc7f20584a8f3af72ae994,,,,,,,decisionTrl,resources/DBN.BMP,resources/DG.BMP,WildCard_Ex,0.275925954,0.006481489,1,0,0,1.5968,optionRight,55,8590,4,28,0,28,0,1,,,,,,,,,,,,,,,,,,,,,,,,,,,,,,,,,,,,,,,
,,,,,,,,2023-08-16_08h54.36.121,HF_wild_card,2022.2.4,Win32,60.0024001,63e528d1a9ece4b6addd5f2d,64d2fd46c836a06233681665,64dc7f20584a8f3af72ae994,,,,,,,decisionTrl,resources/DY.BMP,resources/DBN.BMP,Door3,0.25462963,-0.054629644,1,0,0,0.9608,optionRight,70,8660,4,29,0,29,0,1,,,,,,,,,,,,,,,,,,,,,,,,,,,,,,,,,,,,,,,
,,,,,,,,2023-08-16_08h54.36.121,HF_wild_card,2022.2.4,Win32,60.0024001,63e528d1a9ece4b6addd5f2d,64d2fd46c836a06233681665,64dc7f20584a8f3af72ae994,,,,,,,decisionTrl,resources/DP.BMP,resources/DB.BMP,Door2,-0.240740741,-0.029629637,1,0,0,1.0268,optionLeft,40,8700,4,30,0,30,0,1,,,,,,,,,,,,,,,,,,,,,,,,,,,,,,,,,,,,,,,
,,,,,,,,2023-08-16_08h54.36.121,HF_wild_card,2022.2.4,Win32,60.0024001,63e528d1a9ece4b6addd5f2d,64d2fd46c836a06233681665,64dc7f20584a8f3af72ae994,,,,,,,ctch,resources/DP.BMP,resources/DBN.BMP,Door3,0.349074046,0.012962942,1,0,0,0.4937,optionRight,70,8770,4,31,0,31,0,1,,,,,,,,,,,,,,,,,,,,,,,,,,,,,,,,,,,,,,,
,,,,,,,,2023-08-16_08h54.36.121,HF_wild_card,2022.2.4,Win32,60.0024001,63e528d1a9ece4b6addd5f2d,64d2fd46c836a06233681665,64dc7f20584a8f3af72ae994,,,,,,,decisionTrl,resources/DP.BMP,resources/DB.BMP,Door2,-0.329629616,-0.001851859,1,0,0,0.7432,optionLeft,40,8810,4,32,0,32,0,1,,,,,,,,,,,,,,,,,,,,,,,,,,,,,,,,,,,,,,,
,,,,,,,,2023-08-16_08h54.36.121,HF_wild_card,2022.2.4,Win32,60.0024001,63e528d1a9ece4b6addd5f2d,64d2fd46c836a06233681665,64dc7f20584a8f3af72ae994,,,,,,,sngl,resources/Empty.png,resources/DY.BMP,Door4,0.240740741,-0.0074074,1,0,0,0.5941,optionRight,80,8890,4,33,0,33,0,1,,,,,,,,,,,,,,,,,,,,,,,,,,,,,,,,,,,,,,,
,,,,,,,,2023-08-16_08h54.36.121,HF_wild_card,2022.2.4,Win32,60.0024001,63e528d1a9ece4b6addd5f2d,64d2fd46c836a06233681665,64dc7f20584a8f3af72ae994,,,,,,,decisionTrl,resources/DB.BMP,resources/DP.BMP,Door2,0.290740755,0,1,0,0,0.8444,optionRight,40,8930,4,34,0,34,0,1,,,,,,,,,,,,,,,,,,,,,,,,,,,,,,,,,,,,,,,
,,,,,,,,2023-08-16_08h54.36.121,HF_wild_card,2022.2.4,Win32,60.0024001,63e528d1a9ece4b6addd5f2d,64d2fd46c836a06233681665,64dc7f20584a8f3af72ae994,,,,,,,decisionTrl,resources/DY.BMP,resources/DBN.BMP,Door4,-0.166666667,-0.047222243,1,0,0,0.8941,optionLeft,80,9010,4,35,0,35,0,1,,,,,,,,,,,,,,,,,,,,,,,,,,,,,,,,,,,,,,,
,,,,,,,,2023-08-16_08h54.36.121,HF_wild_card,2022.2.4,Win32,60.0024001,63e528d1a9ece4b6addd5f2d,64d2fd46c836a06233681665,64dc7f20584a8f3af72ae994,,,,,,,sngl,resources/Empty.png,resources/DG.BMP,WildCard_Ex,0.263888889,-0.033333355,1,0,0,0.5111,optionRight,45,9055,4,36,0,36,0,1,,,,,,,,,,,,,,,,,,,,,,,,,,,,,,,,,,,,,,,
,,,,,,,,2023-08-16_08h54.36.121,HF_wild_card,2022.2.4,Win32,60.0024001,63e528d1a9ece4b6addd5f2d,64d2fd46c836a06233681665,64dc7f20584a8f3af72ae994,,,,,,,sngl,resources/DBN.BMP,resources/Empty.png,Door3,-0.271296254,-0.037037037,1,0,0,0.5263,optionLeft,70,9125,4,37,0,37,0,1,,,,,,,,,,,,,,,,,,,,,,,,,,,,,,,,,,,,,,,
,,,,,,,,2023-08-16_08h54.36.121,HF_wild_card,2022.2.4,Win32,60.0024001,63e528d1a9ece4b6addd5f2d,64d2fd46c836a06233681665,64dc7f20584a8f3af72ae994,,,,,,,ctch,resources/DY.BMP,resources/DB.BMP,Door4,-0.232407393,-0.029629637,1,0,0,0.7113,optionLeft,80,9205,4,38,0,38,0,1,,,,,,,,,,,,,,,,,,,,,,,,,,,,,,,,,,,,,,,
,,,,,,,,2023-08-16_08h54.36.121,HF_wild_card,2022.2.4,Win32,60.0024001,63e528d1a9ece4b6addd5f2d,64d2fd46c836a06233681665,64dc7f20584a8f3af72ae994,,,,,,,decisionTrl,resources/DBN.BMP,resources/DY.BMP,Door4,0.18240745,-0.063888903,1,0,0,1.2432,optionRight,80,9285,4,39,0,39,0,1,,,,,,,,,,,,,,,,,,,,,,,,,,,,,,,,,,,,,,,
,,,,,,,,2023-08-16_08h54.36.121,HF_wild_card,2022.2.4,Win32,60.0024001,63e528d1a9ece4b6addd5f2d,64d2fd46c836a06233681665,64dc7f20584a8f3af72ae994,,,,,,,decisionTrl,resources/DB.BMP,resources/DP.BMP,Door1,-0.132407365,-0.052777785,1,0,0,0.7617,optionLeft,30,9315,4,40,0,40,0,1,,,,,,,,,,,,,,,,,,,,,,,,,,,,,,,,,,,,,,,
,,,,,,,,2023-08-16_08h54.36.121,HF_wild_card,2022.2.4,Win32,60.0024001,63e528d1a9ece4b6addd5f2d,64d2fd46c836a06233681665,64dc7f20584a8f3af72ae994,,,,,,,decisionTrl,resources/DP.BMP,resources/DB.BMP,Door1,0.168518561,-0.054629644,1,0,0,0.8468,optionRight,30,9345,4,41,0,41,0,1,,,,,,,,,,,,,,,,,,,,,,,,,,,,,,,,,,,,,,,
,,,,,,,,2023-08-16_08h54.36.121,HF_wild_card,2022.2.4,Win32,60.0024001,63e528d1a9ece4b6addd5f2d,64d2fd46c836a06233681665,64dc7f20584a8f3af72ae994,,,,,,,decisionTrl,resources/DB.BMP,resources/DP.BMP,Door2,0.22592594,0.010185171,1,0,0,4.1598,optionRight,40,9385,4,42,0,42,0,1,,,,,,,,,,,,,,,,,,,,,,,,,,,,,,,,,,,,,,,
,,,,,,,,2023-08-16_08h54.36.121,HF_wild_card,2022.2.4,Win32,60.0024001,63e528d1a9ece4b6addd5f2d,64d2fd46c836a06233681665,64dc7f20584a8f3af72ae994,,,,,,,decisionTrl,resources/DB.BMP,resources/DP.BMP,Door2,0.199074074,0.003703683,1,0,0,5.8942,optionRight,20,9405,4,43,0,43,0,1,,,,,,,,,,,,,,,,,,,,,,,,,,,,,,,,,,,,,,,
,,,,,,,,2023-08-16_08h54.36.121,HF_wild_card,2022.2.4,Win32,60.0024001,63e528d1a9ece4b6addd5f2d,64d2fd46c836a06233681665,64dc7f20584a8f3af72ae994,,,,,,,,,,,,,,,,,,,,,,,,,,3,0,3,0,1,,,,,,,,,,,,,,,,,,,,,,,,,,,,,,,,,,
,,,,,,,,2023-08-16_08h54.36.121,HF_wild_card,2022.2.4,Win32,60.0024001,63e528d1a9ece4b6addd5f2d,64d2fd46c836a06233681665,64dc7f20584a8f3af72ae994,,,,,,,sngl,resources/DB.BMP,resources/Empty.png,Door1,-0.320370356,-0.060185185,1,0,0,0.7044,optionLeft,30,9435,5,0,0,0,0,1,,,,,,,,,,,,,,,,,,,,,,,,,,,,,,,,,,,,,,,
,,,,,,,,2023-08-16_08h54.36.121,HF_wild_card,2022.2.4,Win32,60.0024001,63e528d1a9ece4b6addd5f2d,64d2fd46c836a06233681665,64dc7f20584a8f3af72ae994,,,,,,,decisionTrl,resources/DP.BMP,resources/DB.BMP,Door1,0.335185157,-0.002777771,1,0,0,1.0777,optionRight,30,9465,5,1,0,1,0,1,,,,,,,,,,,,,,,,,,,,,,,,,,,,,,,,,,,,,,,
,,,,,,,,2023-08-16_08h54.36.121,HF_wild_card,2022.2.4,Win32,60.0024001,63e528d1a9ece4b6addd5f2d,64d2fd46c836a06233681665,64dc7f20584a8f3af72ae994,,,,,,,decisionTrl,resources/DG.BMP,resources/DY.BMP,Door4,0.270370413,-0.073148162,1,0,0,0.9767,optionRight,80,9545,5,2,0,2,0,1,,,,,,,,,,,,,,,,,,,,,,,,,,,,,,,,,,,,,,,
,,,,,,,,2023-08-16_08h54.36.121,HF_wild_card,2022.2.4,Win32,60.0024001,63e528d1a9ece4b6addd5f2d,64d2fd46c836a06233681665,64dc7f20584a8f3af72ae994,,,,,,,sngl,resources/Empty.png,resources/DBN.BMP,Door3,0.263888889,-0.060185185,1,0,0,0.7777,optionRight,70,9615,5,3,0,3,0,1,,,,,,,,,,,,,,,,,,,,,,,,,,,,,,,,,,,,,,,
,,,,,,,,2023-08-16_08h54.36.121,HF_wild_card,2022.2.4,Win32,60.0024001,63e528d1a9ece4b6addd5f2d,64d2fd46c836a06233681665,64dc7f20584a8f3af72ae994,,,,,,,decisionTrl,resources/DB.BMP,resources/DP.BMP,Door2,0.210185228,-0.051851873,1,0,0,1.0585,optionRight,40,9655,5,4,0,4,0,1,,,,,,,,,,,,,,,,,,,,,,,,,,,,,,,,,,,,,,,
,,,,,,,,2023-08-16_08h54.36.121,HF_wild_card,2022.2.4,Win32,60.0024001,63e528d1a9ece4b6addd5f2d,64d2fd46c836a06233681665,64dc7f20584a8f3af72ae994,,,,,,,decisionTrl,resources/DBN.BMP,resources/DY.BMP,Door3,-0.204629616,-0.014814836,1,0,0,0.5947,optionLeft,70,9725,5,5,0,5,0,1,,,,,,,,,,,,,,,,,,,,,,,,,,,,,,,,,,,,,,,
,,,,,,,,2023-08-16_08h54.36.121,HF_wild_card,2022.2.4,Win32,60.0024001,63e528d1a9ece4b6addd5f2d,64d2fd46c836a06233681665,64dc7f20584a8f3af72ae994,,,,,,,decisionTrl,resources/DB.BMP,resources/DP.BMP,Door2,0.270370413,-0.005555577,1,0,0,1.1278,optionRight,40,9765,5,6,0,6,0,1,,,,,,,,,,,,,,,,,,,,,,,,,,,,,,,,,,,,,,,
,,,,,,,,2023-08-16_08h54.36.121,HF_wild_card,2022.2.4,Win32,60.0024001,63e528d1a9ece4b6addd5f2d,64d2fd46c836a06233681665,64dc7f20584a8f3af72ae994,,,,,,,sngl,resources/Empty.png,resources/DB.BMP,Door1,0.312037009,-0.048148155,1,0,0,0.6446,optionRight,30,9795,5,7,0,7,0,1,,,,,,,,,,,,,,,,,,,,,,,,,,,,,,,,,,,,,,,
,,,,,,,,2023-08-16_08h54.36.121,HF_wild_card,2022.2.4,Win32,60.0024001,63e528d1a9ece4b6addd5f2d,64d2fd46c836a06233681665,64dc7f20584a8f3af72ae994,,,,,,,sngl,resources/Empty.png,resources/DP.BMP,Door2,0.40833339,-0.097222222,1,0,0,1.1115,optionRight,20,9815,5,8,0,8,0,1,,,,,,,,,,,,,,,,,,,,,,,,,,,,,,,,,,,,,,,
,,,,,,,,2023-08-16_08h54.36.121,HF_wild_card,2022.2.4,Win32,60.0024001,63e528d1a9ece4b6addd5f2d,64d2fd46c836a06233681665,64dc7f20584a8f3af72ae994,,,,,,,decisionTrl,resources/DP.BMP,resources/DB.BMP,Door2,-0.360185164,-0.024074095,1,0,0,0.5772,optionLeft,40,9855,5,9,0,9,0,1,,,,,,,,,,,,,,,,,,,,,,,,,,,,,,,,,,,,,,,
,,,,,,,,2023-08-16_08h54.36.121,HF_wild_card,2022.2.4,Win32,60.0024001,63e528d1a9ece4b6addd5f2d,64d2fd46c836a06233681665,64dc7f20584a8f3af72ae994,,,,,,,sngl,resources/DG.BMP,resources/Empty.png,WildCard_Ex,-0.226851852,0.01944443,1,0,0,0.7474,optionLeft,55,9910,5,10,0,10,0,1,,,,,,,,,,,,,,,,,,,,,,,,,,,,,,,,,,,,,,,
,,,,,,,,2023-08-16_08h54.36.121,HF_wild_card,2022.2.4,Win32,60.0024001,63e528d1a9ece4b6addd5f2d,64d2fd46c836a06233681665,64dc7f20584a8f3af72ae994,,,,,,,sngl,resources/Empty.png,resources/DG.BMP,WildCard_Ex,0.314814815,-0.045370384,1,0,0,1.7207,optionRight,45,9955,5,11,0,11,0,1,,,,,,,,,,,,,,,,,,,,,,,,,,,,,,,,,,,,,,,
,,,,,,,,2023-08-16_08h54.36.121,HF_wild_card,2022.2.4,Win32,60.0024001,63e528d1a9ece4b6addd5f2d,64d2fd46c836a06233681665,64dc7f20584a8f3af72ae994,,,,,,,ctch,resources/DY.BMP,resources/DB.BMP,Door4,-0.27407406,-0.053703697,1,0,0,0.8636,optionLeft,60,10015,5,12,0,12,0,1,,,,,,,,,,,,,,,,,,,,,,,,,,,,,,,,,,,,,,,
,,,,,,,,2023-08-16_08h54.36.121,HF_wild_card,2022.2.4,Win32,60.0024001,63e528d1a9ece4b6addd5f2d,64d2fd46c836a06233681665,64dc7f20584a8f3af72ae994,,,,,,,decisionTrl,resources/DBN.BMP,resources/DY.BMP,Door3,-0.112037023,-0.052777785,1,0,0,0.6635,optionLeft,70,10085,5,13,0,13,0,1,,,,,,,,,,,,,,,,,,,,,,,,,,,,,,,,,,,,,,,
,,,,,,,,2023-08-16_08h54.36.121,HF_wild_card,2022.2.4,Win32,60.0024001,63e528d1a9ece4b6addd5f2d,64d2fd46c836a06233681665,64dc7f20584a8f3af72ae994,,,,,,,decisionTrl,resources/DB.BMP,resources/DG.BMP,WildCard_Ex,0.259259259,-0.056481503,1,0,0,0.4854,optionRight,45,10130,5,14,0,14,0,1,,,,,,,,,,,,,,,,,,,,,,,,,,,,,,,,,,,,,,,
,,,,,,,,2023-08-16_08h54.36.121,HF_wild_card,2022.2.4,Win32,60.0024001,63e528d1a9ece4b6addd5f2d,64d2fd46c836a06233681665,64dc7f20584a8f3af72ae994,,,,,,,decisionTrl,resources/DBN.BMP,resources/DY.BMP,Door3,-0.241666653,-0.028703725,1,0,0,0.4292,optionLeft,70,10200,5,15,0,15,0,1,,,,,,,,,,,,,,,,,,,,,,,,,,,,,,,,,,,,,,,
,,,,,,,,2023-08-16_08h54.36.121,HF_wild_card,2022.2.4,Win32,60.0024001,63e528d1a9ece4b6addd5f2d,64d2fd46c836a06233681665,64dc7f20584a8f3af72ae994,,,,,,,ctch,resources/DY.BMP,resources/DB.BMP,Door4,-0.251851824,-0.063888903,1,0,0,0.4959,optionLeft,80,10280,5,16,0,16,0,1,,,,,,,,,,,,,,,,,,,,,,,,,,,,,,,,,,,,,,,
,,,,,,,,2023-08-16_08h54.36.121,HF_wild_card,2022.2.4,Win32,60.0024001,63e528d1a9ece4b6addd5f2d,64d2fd46c836a06233681665,64dc7f20584a8f3af72ae994,,,,,,,ctch,resources/DP.BMP,resources/DBN.BMP,Door3,0.35555564,0.000925912,1,0,0,0.4816,optionRight,70,10350,5,17,0,17,0,1,,,,,,,,,,,,,,,,,,,,,,,,,,,,,,,,,,,,,,,
,,,,,,,,2023-08-16_08h54.36.121,HF_wild_card,2022.2.4,Win32,60.0024001,63e528d1a9ece4b6addd5f2d,64d2fd46c836a06233681665,64dc7f20584a8f3af72ae994,,,,,,,ctch,resources/DBN.BMP,resources/DP.BMP,Door3,-0.249074088,-0.058333326,1,0,0,0.4787,optionLeft,70,10420,5,18,0,18,0,1,,,,,,,,,,,,,,,,,,,,,,,,,,,,,,,,,,,,,,,
,,,,,,,,2023-08-16_08h54.36.121,HF_wild_card,2022.2.4,Win32,60.0024001,63e528d1a9ece4b6addd5f2d,64d2fd46c836a06233681665,64dc7f20584a8f3af72ae994,,,,,,,decisionTrl,resources/DP.BMP,resources/DB.BMP,Door1,0.237037023,-0.081481474,1,0,0,0.5634,optionRight,30,10450,5,19,0,19,0,1,,,,,,,,,,,,,,,,,,,,,,,,,,,,,,,,,,,,,,,
,,,,,,,,2023-08-16_08h54.36.121,HF_wild_card,2022.2.4,Win32,60.0024001,63e528d1a9ece4b6addd5f2d,64d2fd46c836a06233681665,64dc7f20584a8f3af72ae994,,,,,,,decisionTrl,resources/DY.BMP,resources/DBN.BMP,Door4,-0.175925926,-0.047222243,1,0,0,0.7938,optionLeft,60,10510,5,20,0,20,0,1,,,,,,,,,,,,,,,,,,,,,,,,,,,,,,,,,,,,,,,
,,,,,,,,2023-08-16_08h54.36.121,HF_wild_card,2022.2.4,Win32,60.0024001,63e528d1a9ece4b6addd5f2d,64d2fd46c836a06233681665,64dc7f20584a8f3af72ae994,,,,,,,ctch,resources/DBN.BMP,resources/DP.BMP,Door3,-0.341666645,-0.082407422,1,0,0,61.4736,optionLeft,70,10580,5,21,0,21,0,1,,,,,,,,,,,,,,,,,,,,,,,,,,,,,,,,,,,,,,,
,,,,,,,,2023-08-16_08h54.36.121,HF_wild_card,2022.2.4,Win32,60.0024001,63e528d1a9ece4b6addd5f2d,64d2fd46c836a06233681665,64dc7f20584a8f3af72ae994,,,,,,,decisionTrl,resources/DBN.BMP,resources/DY.BMP,Door4,0.396296325,0.03148146,1,0,0,0.7613,optionRight,80,10660,5,22,0,22,0,1,,,,,,,,,,,,,,,,,,,,,,,,,,,,,,,,,,,,,,,
,,,,,,,,2023-08-16_08h54.36.121,HF_wild_card,2022.2.4,Win32,60.0024001,63e528d1a9ece4b6addd5f2d,64d2fd46c836a06233681665,64dc7f20584a8f3af72ae994,,,,,,,ctch,resources/DP.BMP,resources/DBN.BMP,Door3,0.392592677,0.003703683,1,0,0,0.8104,optionRight,70,10730,5,23,0,23,0,1,,,,,,,,,,,,,,,,,,,,,,,,,,,,,,,,,,,,,,,
,,,,,,,,2023-08-16_08h54.36.121,HF_wild_card,2022.2.4,Win32,60.0024001,63e528d1a9ece4b6addd5f2d,64d2fd46c836a06233681665,64dc7f20584a8f3af72ae994,,,,,,,sngl,resources/DY.BMP,resources/Empty.png,Door4,-0.22592594,-0.055555556,1,0,0,0.4923,optionLeft,80,10810,5,24,0,24,0,1,,,,,,,,,,,,,,,,,,,,,,,,,,,,,,,,,,,,,,,
,,,,,,,,2023-08-16_08h54.36.121,HF_wild_card,2022.2.4,Win32,60.0024001,63e528d1a9ece4b6addd5f2d,64d2fd46c836a06233681665,64dc7f20584a8f3af72ae994,,,,,,,ctch,resources/DB.BMP,resources/DY.BMP,Door4,0.32685188,0.001851859,1,0,0,0.7104,optionRight,60,10870,5,25,0,25,0,1,,,,,,,,,,,,,,,,,,,,,,,,,,,,,,,,,,,,,,,
,,,,,,,,2023-08-16_08h54.36.121,HF_wild_card,2022.2.4,Win32,60.0024001,63e528d1a9ece4b6addd5f2d,64d2fd46c836a06233681665,64dc7f20584a8f3af72ae994,,,,,,,decisionTrl,resources/DY.BMP,resources/DBN.BMP,Door4,-0.37962963,-0.047222243,1,0,0,0.6448,optionLeft,60,10930,5,26,0,26,0,1,,,,,,,,,,,,,,,,,,,,,,,,,,,,,,,,,,,,,,,
,,,,,,,,2023-08-16_08h54.36.121,HF_wild_card,2022.2.4,Win32,60.0024001,63e528d1a9ece4b6addd5f2d,64d2fd46c836a06233681665,64dc7f20584a8f3af72ae994,,,,,,,decisionTrl,resources/DG.BMP,resources/DBN.BMP,Door3,0.214814857,-0.01666666,1,0,0,0.601,optionRight,70,11000,5,27,0,27,0,1,,,,,,,,,,,,,,,,,,,,,,,,,,,,,,,,,,,,,,,
,,,,,,,,2023-08-16_08h54.36.121,HF_wild_card,2022.2.4,Win32,60.0024001,63e528d1a9ece4b6addd5f2d,64d2fd46c836a06233681665,64dc7f20584a8f3af72ae994,,,,,,,decisionTrl,resources/DG.BMP,resources/DB.BMP,Door1,0.163888931,-0.029629637,1,0,0,0.8381,optionRight,30,11030,5,28,0,28,0,1,,,,,,,,,,,,,,,,,,,,,,,,,,,,,,,,,,,,,,,
,,,,,,,,2023-08-16_08h54.36.121,HF_wild_card,2022.2.4,Win32,60.0024001,63e528d1a9ece4b6addd5f2d,64d2fd46c836a06233681665,64dc7f20584a8f3af72ae994,,,,,,,decisionTrl,resources/DB.BMP,resources/DP.BMP,Door2,0.22129631,-0.046296296,1,0,0,0.7776,optionRight,20,11050,5,29,0,29,0,1,,,,,,,,,,,,,,,,,,,,,,,,,,,,,,,,,,,,,,,
,,,,,,,,2023-08-16_08h54.36.121,HF_wild_card,2022.2.4,Win32,60.0024001,63e528d1a9ece4b6addd5f2d,64d2fd46c836a06233681665,64dc7f20584a8f3af72ae994,,,,,,,sngl,resources/DBN.BMP,resources/Empty.png,Door3,-0.24537037,-0.078703704,1,0,0,0.4711,optionLeft,70,11120,5,30,0,30,0,1,,,,,,,,,,,,,,,,,,,,,,,,,,,,,,,,,,,,,,,
,,,,,,,,2023-08-16_08h54.36.121,HF_wild_card,2022.2.4,Win32,60.0024001,63e528d1a9ece4b6addd5f2d,64d2fd46c836a06233681665,64dc7f20584a8f3af72ae994,,,,,,,sngl,resources/DP.BMP,resources/Empty.png,Door2,-0.243518476,-0.051851873,1,0,0,0.507,optionLeft,40,11160,5,31,0,31,0,1,,,,,,,,,,,,,,,,,,,,,,,,,,,,,,,,,,,,,,,
,,,,,,,,2023-08-16_08h54.36.121,HF_wild_card,2022.2.4,Win32,60.0024001,63e528d1a9ece4b6addd5f2d,64d2fd46c836a06233681665,64dc7f20584a8f3af72ae994,,,,,,,decisionTrl,resources/DBN.BMP,resources/DG.BMP,Door3,-0.238888847,-0.034259266,1,0,0,0.8778,optionLeft,70,11230,5,32,0,32,0,1,,,,,,,,,,,,,,,,,,,,,,,,,,,,,,,,,,,,,,,
,,,,,,,,2023-08-16_08h54.36.121,HF_wild_card,2022.2.4,Win32,60.0024001,63e528d1a9ece4b6addd5f2d,64d2fd46c836a06233681665,64dc7f20584a8f3af72ae994,,,,,,,sngl,resources/DG.BMP,resources/Empty.png,WildCard_Ex,-0.244444459,-0.050000014,1,0,0,0.4755,optionLeft,45,11275,5,33,0,33,0,1,,,,,,,,,,,,,,,,,,,,,,,,,,,,,,,,,,,,,,,
,,,,,,,,2023-08-16_08h54.36.121,HF_wild_card,2022.2.4,Win32,60.0024001,63e528d1a9ece4b6addd5f2d,64d2fd46c836a06233681665,64dc7f20584a8f3af72ae994,,,,,,,decisionTrl,resources/DP.BMP,resources/DB.BMP,Door1,0.143518519,-0.048148155,1,0,0,0.7956,optionRight,30,11305,5,34,0,34,0,1,,,,,,,,,,,,,,,,,,,,,,,,,,,,,,,,,,,,,,,
,,,,,,,,2023-08-16_08h54.36.121,HF_wild_card,2022.2.4,Win32,60.0024001,63e528d1a9ece4b6addd5f2d,64d2fd46c836a06233681665,64dc7f20584a8f3af72ae994,,,,,,,sngl,resources/Empty.png,resources/DY.BMP,Door4,0.210185228,-0.045370384,1,0,0,0.5774,optionRight,60,11365,5,35,0,35,0,1,,,,,,,,,,,,,,,,,,,,,,,,,,,,,,,,,,,,,,,
,,,,,,,,2023-08-16_08h54.36.121,HF_wild_card,2022.2.4,Win32,60.0024001,63e528d1a9ece4b6addd5f2d,64d2fd46c836a06233681665,64dc7f20584a8f3af72ae994,,,,,,,ctch,resources/DB.BMP,resources/DY.BMP,Door1,-0.324999986,-0.063888903,1,0,0,0.4772,optionLeft,30,11395,5,36,0,36,0,1,,,,,,,,,,,,,,,,,,,,,,,,,,,,,,,,,,,,,,,
,,,,,,,,2023-08-16_08h54.36.121,HF_wild_card,2022.2.4,Win32,60.0024001,63e528d1a9ece4b6addd5f2d,64d2fd46c836a06233681665,64dc7f20584a8f3af72ae994,,,,,,,decisionTrl,resources/DY.BMP,resources/DBN.BMP,Door3,0.244444459,-0.036111125,1,0,0,0.5016,optionRight,70,11465,5,37,0,37,0,1,,,,,,,,,,,,,,,,,,,,,,,,,,,,,,,,,,,,,,,
,,,,,,,,2023-08-16_08h54.36.121,HF_wild_card,2022.2.4,Win32,60.0024001,63e528d1a9ece4b6addd5f2d,64d2fd46c836a06233681665,64dc7f20584a8f3af72ae994,,,,,,,decisionTrl,resources/DG.BMP,resources/DP.BMP,WildCard_Ex,-0.211111069,-0.0074074,1,0,0,1.0442,optionLeft,45,11510,5,38,0,38,0,1,,,,,,,,,,,,,,,,,,,,,,,,,,,,,,,,,,,,,,,
,,,,,,,,2023-08-16_08h54.36.121,HF_wild_card,2022.2.4,Win32,60.0024001,63e528d1a9ece4b6addd5f2d,64d2fd46c836a06233681665,64dc7f20584a8f3af72ae994,,,,,,,decisionTrl,resources/DP.BMP,resources/DG.BMP,WildCard_Ex,0.192592621,-0.012962977,1,0,0,0.7037,optionRight,45,11555,5,39,0,39,0,1,,,,,,,,,,,,,,,,,,,,,,,,,,,,,,,,,,,,,,,
,,,,,,,,2023-08-16_08h54.36.121,HF_wild_card,2022.2.4,Win32,60.0024001,63e528d1a9ece4b6addd5f2d,64d2fd46c836a06233681665,64dc7f20584a8f3af72ae994,,,,,,,decisionTrl,resources/DB.BMP,resources/DP.BMP,Door1,-0.314814815,-0.037037037,1,0,0,0.5372,optionLeft,30,11585,5,40,0,40,0,1,,,,,,,,,,,,,,,,,,,,,,,,,,,,,,,,,,,,,,,
,,,,,,,,2023-08-16_08h54.36.121,HF_wild_card,2022.2.4,Win32,60.0024001,63e528d1a9ece4b6addd5f2d,64d2fd46c836a06233681665,64dc7f20584a8f3af72ae994,,,,,,,sngl,resources/Empty.png,resources/DG.BMP,WildCard_Ex,0.237963005,-0.043518526,1,0,0,0.6943,optionRight,55,11640,5,41,0,41,0,1,,,,,,,,,,,,,,,,,,,,,,,,,,,,,,,,,,,,,,,
,,,,,,,,2023-08-16_08h54.36.121,HF_wild_card,2022.2.4,Win32,60.0024001,63e528d1a9ece4b6addd5f2d,64d2fd46c836a06233681665,64dc7f20584a8f3af72ae994,,,,,,,decisionTrl,resources/DY.BMP,resources/DBN.BMP,Door3,0.247222265,-0.018518519,1,0,0,0.5949,optionRight,70,11710,5,42,0,42,0,1,,,,,,,,,,,,,,,,,,,,,,,,,,,,,,,,,,,,,,,
,,,,,,,,2023-08-16_08h54.36.121,HF_wild_card,2022.2.4,Win32,60.0024001,63e528d1a9ece4b6addd5f2d,64d2fd46c836a06233681665,64dc7f20584a8f3af72ae994,,,,,,,decisionTrl,resources/DY.BMP,resources/DG.BMP,WildCard_Ex,0.287037037,-0.011111118,1,0,0,0.8278,optionRight,45,11755,5,43,0,43,0,1,,,,,,,,,,,,,,,,,,,,,,,,,,,,,,,,,,,,,,,
,,,,,,,,2023-08-16_08h54.36.121,HF_wild_card,2022.2.4,Win32,60.0024001,63e528d1a9ece4b6addd5f2d,64d2fd46c836a06233681665,64dc7f20584a8f3af72ae994,,,,,,,,,,,,,,,,,,,,,,,,,,4,0,4,0,1,,,,,,,,,,,,,,,,,,,,,,,,,,,,,,,,,,
,,,,,,,,2023-08-16_08h54.36.121,HF_wild_card,2022.2.4,Win32,60.0024001,63e528d1a9ece4b6addd5f2d,64d2fd46c836a06233681665,64dc7f20584a8f3af72ae994,,,,,,,sngl,resources/DG.BMP,resources/Empty.png,WildCard_Ex,-0.307407414,-0.039814808,1,0,0,0.5258,optionLeft,55,11810,6,0,0,0,0,1,,,,,,,,,,,,,,,,,,,,,,,,,,,,,,,,,,,,,,,
,,,,,,,,2023-08-16_08h54.36.121,HF_wild_card,2022.2.4,Win32,60.0024001,63e528d1a9ece4b6addd5f2d,64d2fd46c836a06233681665,64dc7f20584a8f3af72ae994,,,,,,,decisionTrl,resources/DB.BMP,resources/DP.BMP,Door2,0.175925926,-0.055555556,1,0,0,0.7388,optionRight,20,11830,6,1,0,1,0,1,,,,,,,,,,,,,,,,,,,,,,,,,,,,,,,,,,,,,,,
,,,,,,,,2023-08-16_08h54.36.121,HF_wild_card,2022.2.4,Win32,60.0024001,63e528d1a9ece4b6addd5f2d,64d2fd46c836a06233681665,64dc7f20584a8f3af72ae994,,,,,,,sngl,resources/Empty.png,resources/DG.BMP,WildCard_Ex,0.222222222,0.00462963,1,0,0,0.5846,optionRight,45,11875,6,2,0,2,0,1,,,,,,,,,,,,,,,,,,,,,,,,,,,,,,,,,,,,,,,
,,,,,,,,2023-08-16_08h54.36.121,HF_wild_card,2022.2.4,Win32,60.0024001,63e528d1a9ece4b6addd5f2d,64d2fd46c836a06233681665,64dc7f20584a8f3af72ae994,,,,,,,ctch,resources/DB.BMP,resources/DY.BMP,Door4,0.14907406,0.006481489,1,0,0,0.9103,optionRight,80,11955,6,3,0,3,0,1,,,,,,,,,,,,,,,,,,,,,,,,,,,,,,,,,,,,,,,
,,,,,,,,2023-08-16_08h54.36.121,HF_wild_card,2022.2.4,Win32,60.0024001,63e528d1a9ece4b6addd5f2d,64d2fd46c836a06233681665,64dc7f20584a8f3af72ae994,,,,,,,decisionTrl,resources/DY.BMP,resources/DBN.BMP,Door3,0.186111097,-0.00462963,1,0,0,0.7607,optionRight,70,12025,6,4,0,4,0,1,,,,,,,,,,,,,,,,,,,,,,,,,,,,,,,,,,,,,,,
,,,,,,,,2023-08-16_08h54.36.121,HF_wild_card,2022.2.4,Win32,60.0024001,63e528d1a9ece4b6addd5f2d,64d2fd46c836a06233681665,64dc7f20584a8f3af72ae994,,,,,,,ctch,resources/DP.BMP,resources/DBN.BMP,Door3,0.422222279,0.079629616,1,0,0,3.8272,optionRight,70,12095,6,5,0,5,0,1,,,,,,,,,,,,,,,,,,,,,,,,,,,,,,,,,,,,,,,
,,,,,,,,2023-08-16_08h54.36.121,HF_wild_card,2022.2.4,Win32,60.0024001,63e528d1a9ece4b6addd5f2d,64d2fd46c836a06233681665,64dc7f20584a8f3af72ae994,,,,,,,decisionTrl,resources/DBN.BMP,resources/DG.BMP,Door3,-0.238888847,-0.026851866,1,0,0,0.81,optionLeft,70,12165,6,6,0,6,0,1,,,,,,,,,,,,,,,,,,,,,,,,,,,,,,,,,,,,,,,
,,,,,,,,2023-08-16_08h54.36.121,HF_wild_card,2022.2.4,Win32,60.0024001,63e528d1a9ece4b6addd5f2d,64d2fd46c836a06233681665,64dc7f20584a8f3af72ae994,,,,,,,sngl,resources/Empty.png,resources/DB.BMP,Door1,0.333333333,0.008333312,1,0,0,0.4112,optionRight,30,12195,6,7,0,7,0,1,,,,,,,,,,,,,,,,,,,,,,,,,,,,,,,,,,,,,,,
,,,,,,,,2023-08-16_08h54.36.121,HF_wild_card,2022.2.4,Win32,60.0024001,63e528d1a9ece4b6addd5f2d,64d2fd46c836a06233681665,64dc7f20584a8f3af72ae994,,,,,,,decisionTrl,resources/DY.BMP,resources/DG.BMP,WildCard_Ex,0.22129631,0.010185171,1,0,0,3.1433,optionRight,55,12250,6,8,0,8,0,1,,,,,,,,,,,,,,,,,,,,,,,,,,,,,,,,,,,,,,,
,,,,,,,,2023-08-16_08h54.36.121,HF_wild_card,2022.2.4,Win32,60.0024001,63e528d1a9ece4b6addd5f2d,64d2fd46c836a06233681665,64dc7f20584a8f3af72ae994,,,,,,,ctch,resources/DBN.BMP,resources/DP.BMP,Door3,-0.352777764,0.00462963,1,0,0,0.6521,optionLeft,70,12320,6,9,0,9,0,1,,,,,,,,,,,,,,,,,,,,,,,,,,,,,,,,,,,,,,,
,,,,,,,,2023-08-16_08h54.36.121,HF_wild_card,2022.2.4,Win32,60.0024001,63e528d1a9ece4b6addd5f2d,64d2fd46c836a06233681665,64dc7f20584a8f3af72ae994,,,,,,,decisionTrl,resources/DG.BMP,resources/DP.BMP,Door2,0.215740769,-0.055555556,1,0,0,0.3767,optionRight,20,12340,6,10,0,10,0,1,,,,,,,,,,,,,,,,,,,,,,,,,,,,,,,,,,,,,,,
,,,,,,,,2023-08-16_08h54.36.121,HF_wild_card,2022.2.4,Win32,60.0024001,63e528d1a9ece4b6addd5f2d,64d2fd46c836a06233681665,64dc7f20584a8f3af72ae994,,,,,,,sngl,resources/DP.BMP,resources/Empty.png,Door2,-0.302777785,-0.070370392,1,0,0,0.4282,optionLeft,20,12360,6,11,0,11,0,1,,,,,,,,,,,,,,,,,,,,,,,,,,,,,,,,,,,,,,,
,,,,,,,,2023-08-16_08h54.36.121,HF_wild_card,2022.2.4,Win32,60.0024001,63e528d1a9ece4b6addd5f2d,64d2fd46c836a06233681665,64dc7f20584a8f3af72ae994,,,,,,,decisionTrl,resources/DP.BMP,resources/DB.BMP,Door2,-0.253703718,-0.025000007,1,0,0,0.7781,optionLeft,40,12400,6,12,0,12,0,1,,,,,,,,,,,,,,,,,,,,,,,,,,,,,,,,,,,,,,,
,,,,,,,,2023-08-16_08h54.36.121,HF_wild_card,2022.2.4,Win32,60.0024001,63e528d1a9ece4b6addd5f2d,64d2fd46c836a06233681665,64dc7f20584a8f3af72ae994,,,,,,,ctch,resources/DY.BMP,resources/DB.BMP,Door1,0.256481524,-0.053703697,1,0,0,0.4256,optionRight,30,12430,6,13,0,13,0,1,,,,,,,,,,,,,,,,,,,,,,,,,,,,,,,,,,,,,,,
,,,,,,,,2023-08-16_08h54.36.121,HF_wild_card,2022.2.4,Win32,60.0024001,63e528d1a9ece4b6addd5f2d,64d2fd46c836a06233681665,64dc7f20584a8f3af72ae994,,,,,,,sngl,resources/Empty.png,resources/DY.BMP,Door4,0.173148191,-0.002777771,1,0,0,0.6108,optionRight,80,12510,6,14,0,14,0,1,,,,,,,,,,,,,,,,,,,,,,,,,,,,,,,,,,,,,,,
,,,,,,,,2023-08-16_08h54.36.121,HF_wild_card,2022.2.4,Win32,60.0024001,63e528d1a9ece4b6addd5f2d,64d2fd46c836a06233681665,64dc7f20584a8f3af72ae994,,,,,,,decisionTrl,resources/DB.BMP,resources/DP.BMP,Door2,0.145370413,0.003703683,1,0,0,1.0447,optionRight,20,12530,6,15,0,15,0,1,,,,,,,,,,,,,,,,,,,,,,,,,,,,,,,,,,,,,,,
,,,,,,,,2023-08-16_08h54.36.121,HF_wild_card,2022.2.4,Win32,60.0024001,63e528d1a9ece4b6addd5f2d,64d2fd46c836a06233681665,64dc7f20584a8f3af72ae994,,,,,,,decisionTrl,resources/DG.BMP,resources/DY.BMP,WildCard_Ex,-0.214814787,-0.01203703,1,0,0,0.844,optionLeft,55,12585,6,16,0,16,0,1,,,,,,,,,,,,,,,,,,,,,,,,,,,,,,,,,,,,,,,
,,,,,,,,2023-08-16_08h54.36.121,HF_wild_card,2022.2.4,Win32,60.0024001,63e528d1a9ece4b6addd5f2d,64d2fd46c836a06233681665,64dc7f20584a8f3af72ae994,,,,,,,ctch,resources/DB.BMP,resources/DY.BMP,Door4,0.241666653,-0.030555548,1,0,0,0.5857,optionRight,60,12645,6,17,0,17,0,1,,,,,,,,,,,,,,,,,,,,,,,,,,,,,,,,,,,,,,,
,,,,,,,,2023-08-16_08h54.36.121,HF_wild_card,2022.2.4,Win32,60.0024001,63e528d1a9ece4b6addd5f2d,64d2fd46c836a06233681665,64dc7f20584a8f3af72ae994,,,,,,,decisionTrl,resources/DP.BMP,resources/DB.BMP,Door2,-0.401851831,-0.010185206,1,0,0,1.7701,optionLeft,40,12685,6,18,0,18,0,1,,,,,,,,,,,,,,,,,,,,,,,,,,,,,,,,,,,,,,,
,,,,,,,,2023-08-16_08h54.36.121,HF_wild_card,2022.2.4,Win32,60.0024001,63e528d1a9ece4b6addd5f2d,64d2fd46c836a06233681665,64dc7f20584a8f3af72ae994,,,,,,,sngl,resources/Empty.png,resources/DG.BMP,WildCard_Ex,0.291666667,-0.011111118,1,0,0,0.3442,optionRight,55,12740,6,19,0,19,0,1,,,,,,,,,,,,,,,,,,,,,,,,,,,,,,,,,,,,,,,
,,,,,,,,2023-08-16_08h54.36.121,HF_wild_card,2022.2.4,Win32,60.0024001,63e528d1a9ece4b6addd5f2d,64d2fd46c836a06233681665,64dc7f20584a8f3af72ae994,,,,,,,sngl,resources/Empty.png,resources/DBN.BMP,Door3,0.312037009,-0.179629644,1,0,0,2.5121,optionRight,70,12810,6,20,0,20,0,1,,,,,,,,,,,,,,,,,,,,,,,,,,,,,,,,,,,,,,,
,,,,,,,,2023-08-16_08h54.36.121,HF_wild_card,2022.2.4,Win32,60.0024001,63e528d1a9ece4b6addd5f2d,64d2fd46c836a06233681665,64dc7f20584a8f3af72ae994,,,,,,,decisionTrl,resources/DBN.BMP,resources/DY.BMP,Door3,-0.282407407,-0.024074095,1,0,0,0.6939,optionLeft,70,12880,6,21,0,21,0,1,,,,,,,,,,,,,,,,,,,,,,,,,,,,,,,,,,,,,,,
,,,,,,,,2023-08-16_08h54.36.121,HF_wild_card,2022.2.4,Win32,60.0024001,63e528d1a9ece4b6addd5f2d,64d2fd46c836a06233681665,64dc7f20584a8f3af72ae994,,,,,,,decisionTrl,resources/DY.BMP,resources/DBN.BMP,Door3,0.213888875,-0.013888889,1,0,0,0.5775,optionRight,70,12950,6,22,0,22,0,1,,,,,,,,,,,,,,,,,,,,,,,,,,,,,,,,,,,,,,,
,,,,,,,,2023-08-16_08h54.36.121,HF_wild_card,2022.2.4,Win32,60.0024001,63e528d1a9ece4b6addd5f2d,64d2fd46c836a06233681665,64dc7f20584a8f3af72ae994,,,,,,,decisionTrl,resources/DG.BMP,resources/DBN.BMP,Door3,0.268518519,0.080555563,1,0,0,8.193,optionRight,70,13020,6,23,0,23,0,1,,,,,,,,,,,,,,,,,,,,,,,,,,,,,,,,,,,,,,,
,,,,,,,,2023-08-16_08h54.36.121,HF_wild_card,2022.2.4,Win32,60.0024001,63e528d1a9ece4b6addd5f2d,64d2fd46c836a06233681665,64dc7f20584a8f3af72ae994,,,,,,,sngl,resources/DG.BMP,resources/Empty.png,WildCard_Ex,-0.125925912,-0.059259273,1,0,0,0.4442,optionLeft,45,13065,6,24,0,24,0,1,,,,,,,,,,,,,,,,,,,,,,,,,,,,,,,,,,,,,,,
,,,,,,,,2023-08-16_08h54.36.121,HF_wild_card,2022.2.4,Win32,60.0024001,63e528d1a9ece4b6addd5f2d,64d2fd46c836a06233681665,64dc7f20584a8f3af72ae994,,,,,,,decisionTrl,resources/DBN.BMP,resources/DY.BMP,Door3,-0.283333319,0.0074074,1,0,0,0.893,optionLeft,70,13135,6,25,0,25,0,1,,,,,,,,,,,,,,,,,,,,,,,,,,,,,,,,,,,,,,,
,,,,,,,,2023-08-16_08h54.36.121,HF_wild_card,2022.2.4,Win32,60.0024001,63e528d1a9ece4b6addd5f2d,64d2fd46c836a06233681665,64dc7f20584a8f3af72ae994,,,,,,,sngl,resources/Empty.png,resources/DP.BMP,Door2,0.236111111,0.000925912,1,0,0,0.4533,optionRight,40,13175,6,26,0,26,0,1,,,,,,,,,,,,,,,,,,,,,,,,,,,,,,,,,,,,,,,
,,,,,,,,2023-08-16_08h54.36.121,HF_wild_card,2022.2.4,Win32,60.0024001,63e528d1a9ece4b6addd5f2d,64d2fd46c836a06233681665,64dc7f20584a8f3af72ae994,,,,,,,decisionTrl,resources/DB.BMP,resources/DP.BMP,Door2,0.462037122,0.003703683,1,0,0,4.1179,optionRight,20,13195,6,27,0,27,0,1,,,,,,,,,,,,,,,,,,,,,,,,,,,,,,,,,,,,,,,
,,,,,,,,2023-08-16_08h54.36.121,HF_wild_card,2022.2.4,Win32,60.0024001,63e528d1a9ece4b6addd5f2d,64d2fd46c836a06233681665,64dc7f20584a8f3af72ae994,,,,,,,decisionTrl,resources/DP.BMP,resources/DG.BMP,WildCard_Ex,0.243518547,-0.023148148,1,0,0,0.9769,optionRight,55,13250,6,28,0,28,0,1,,,,,,,,,,,,,,,,,,,,,,,,,,,,,,,,,,,,,,,
,,,,,,,,2023-08-16_08h54.36.121,HF_wild_card,2022.2.4,Win32,60.0024001,63e528d1a9ece4b6addd5f2d,64d2fd46c836a06233681665,64dc7f20584a8f3af72ae994,,,,,,,ctch,resources/DBN.BMP,resources/DP.BMP,Door3,-0.19722218,-0.001851859,1,0,0,0.7852,optionLeft,70,13320,6,29,0,29,0,1,,,,,,,,,,,,,,,,,,,,,,,,,,,,,,,,,,,,,,,
,,,,,,,,2023-08-16_08h54.36.121,HF_wild_card,2022.2.4,Win32,60.0024001,63e528d1a9ece4b6addd5f2d,64d2fd46c836a06233681665,64dc7f20584a8f3af72ae994,,,,,,,ctch,resources/DP.BMP,resources/DBN.BMP,Door3,0.264814801,-0.051851873,1,0,0,0.5228,optionRight,70,13390,6,30,0,30,0,1,,,,,,,,,,,,,,,,,,,,,,,,,,,,,,,,,,,,,,,
,,,,,,,,2023-08-16_08h54.36.121,HF_wild_card,2022.2.4,Win32,60.0024001,63e528d1a9ece4b6addd5f2d,64d2fd46c836a06233681665,64dc7f20584a8f3af72ae994,,,,,,,decisionTrl,resources/DB.BMP,resources/DG.BMP,WildCard_Ex,0.239814829,-0.031481496,1,0,0,0.5775,optionRight,55,13445,6,31,0,31,0,1,,,,,,,,,,,,,,,,,,,,,,,,,,,,,,,,,,,,,,,
,,,,,,,,2023-08-16_08h54.36.121,HF_wild_card,2022.2.4,Win32,60.0024001,63e528d1a9ece4b6addd5f2d,64d2fd46c836a06233681665,64dc7f20584a8f3af72ae994,,,,,,,decisionTrl,resources/DY.BMP,resources/DBN.BMP,Door3,0.297222279,0.022222201,1,0,0,0.9783,optionRight,70,13515,6,32,0,32,0,1,,,,,,,,,,,,,,,,,,,,,,,,,,,,,,,,,,,,,,,
,,,,,,,,2023-08-16_08h54.36.121,HF_wild_card,2022.2.4,Win32,60.0024001,63e528d1a9ece4b6addd5f2d,64d2fd46c836a06233681665,64dc7f20584a8f3af72ae994,,,,,,,decisionTrl,resources/DP.BMP,resources/DB.BMP,Door2,-0.229629587,-0.062037044,1,0,0,0.5104,optionLeft,20,13535,6,33,0,33,0,1,,,,,,,,,,,,,,,,,,,,,,,,,,,,,,,,,,,,,,,
,,,,,,,,2023-08-16_08h54.36.121,HF_wild_card,2022.2.4,Win32,60.0024001,63e528d1a9ece4b6addd5f2d,64d2fd46c836a06233681665,64dc7f20584a8f3af72ae994,,,,,,,decisionTrl,resources/DP.BMP,resources/DB.BMP,Door1,0.35555564,-0.000925947,1,0,0,0.3936,optionRight,30,13565,6,34,0,34,0,1,,,,,,,,,,,,,,,,,,,,,,,,,,,,,,,,,,,,,,,
,,,,,,,,2023-08-16_08h54.36.121,HF_wild_card,2022.2.4,Win32,60.0024001,63e528d1a9ece4b6addd5f2d,64d2fd46c836a06233681665,64dc7f20584a8f3af72ae994,,,,,,,decisionTrl,resources/DY.BMP,resources/DBN.BMP,Door3,0.376851824,0.020370377,1,0,0,0.8435,optionRight,70,13635,6,35,0,35,0,1,,,,,,,,,,,,,,,,,,,,,,,,,,,,,,,,,,,,,,,
,,,,,,,,2023-08-16_08h54.36.121,HF_wild_card,2022.2.4,Win32,60.0024001,63e528d1a9ece4b6addd5f2d,64d2fd46c836a06233681665,64dc7f20584a8f3af72ae994,,,,,,,sngl,resources/DB.BMP,resources/Empty.png,Door1,-0.162962949,-0.01666666,1,0,0,0.6086,optionLeft,30,13665,6,36,0,36,0,1,,,,,,,,,,,,,,,,,,,,,,,,,,,,,,,,,,,,,,,
,,,,,,,,2023-08-16_08h54.36.121,HF_wild_card,2022.2.4,Win32,60.0024001,63e528d1a9ece4b6addd5f2d,64d2fd46c836a06233681665,64dc7f20584a8f3af72ae994,,,,,,,ctch,resources/DY.BMP,resources/DB.BMP,Door1,0.208333333,0.00462963,1,0,0,0.889,optionRight,30,13695,6,37,0,37,0,1,,,,,,,,,,,,,,,,,,,,,,,,,,,,,,,,,,,,,,,
,,,,,,,,2023-08-16_08h54.36.121,HF_wild_card,2022.2.4,Win32,60.0024001,63e528d1a9ece4b6addd5f2d,64d2fd46c836a06233681665,64dc7f20584a8f3af72ae994,,,,,,,decisionTrl,resources/DB.BMP,resources/DP.BMP,Door2,0.217592593,0.009259259,1,0,0,0.7771,optionRight,40,13735,6,38,0,38,0,1,,,,,,,,,,,,,,,,,,,,,,,,,,,,,,,,,,,,,,,
,,,,,,,,2023-08-16_08h54.36.121,HF_wild_card,2022.2.4,Win32,60.0024001,63e528d1a9ece4b6addd5f2d,64d2fd46c836a06233681665,64dc7f20584a8f3af72ae994,,,,,,,decisionTrl,resources/DG.BMP,resources/DB.BMP,WildCard_Ex,-0.224074046,-0.00462963,1,0,0,0.8889,optionLeft,55,13790,6,39,0,39,0,1,,,,,,,,,,,,,,,,,,,,,,,,,,,,,,,,,,,,,,,
,,,,,,,,2023-08-16_08h54.36.121,HF_wild_card,2022.2.4,Win32,60.0024001,63e528d1a9ece4b6addd5f2d,64d2fd46c836a06233681665,64dc7f20584a8f3af72ae994,,,,,,,sngl,resources/DBN.BMP,resources/Empty.png,Door3,-0.229629587,-0.066666674,1,0,0,0.4436,optionLeft,70,13860,6,40,0,40,0,1,,,,,,,,,,,,,,,,,,,,,,,,,,,,,,,,,,,,,,,
,,,,,,,,2023-08-16_08h54.36.121,HF_wild_card,2022.2.4,Win32,60.0024001,63e528d1a9ece4b6addd5f2d,64d2fd46c836a06233681665,64dc7f20584a8f3af72ae994,,,,,,,sngl,resources/DY.BMP,resources/Empty.png,Door4,-0.171296296,-0.047222243,1,0,0,0.4941,optionLeft,60,13920,6,41,0,41,0,1,,,,,,,,,,,,,,,,,,,,,,,,,,,,,,,,,,,,,,,
,,,,,,,,2023-08-16_08h54.36.121,HF_wild_card,2022.2.4,Win32,60.0024001,63e528d1a9ece4b6addd5f2d,64d2fd46c836a06233681665,64dc7f20584a8f3af72ae994,,,,,,,decisionTrl,resources/DBN.BMP,resources/DY.BMP,Door3,-0.199999986,-0.01666666,1,0,0,0.594,optionLeft,70,13990,6,42,0,42,0,1,,,,,,,,,,,,,,,,,,,,,,,,,,,,,,,,,,,,,,,
,,,,,,,,2023-08-16_08h54.36.121,HF_wild_card,2022.2.4,Win32,60.0024001,63e528d1a9ece4b6addd5f2d,64d2fd46c836a06233681665,64dc7f20584a8f3af72ae994,,,,,,,decisionTrl,resources/DBN.BMP,resources/DY.BMP,Door3,-0.114814829,-0.021296289,1,0,0,0.6051,optionLeft,70,14060,6,43,0,43,0,1,,,,,,,,,,,,,,,,,,,,,,,,,,,,,,,,,,,,,,,
,,,,,,,,2023-08-16_08h54.36.121,HF_wild_card,2022.2.4,Win32,60.0024001,63e528d1a9ece4b6addd5f2d,64d2fd46c836a06233681665,64dc7f20584a8f3af72ae994,,,,,,,,,,,,,,,,,,,,,,,,,,5,0,5,0,1,,,,,,,,,,,,,,,,,,,,,,,,,,,,,,,,,,
,,,,,,,,2023-08-16_08h54.36.121,HF_wild_card,2022.2.4,Win32,60.0024001,63e528d1a9ece4b6addd5f2d,64d2fd46c836a06233681665,64dc7f20584a8f3af72ae994,,,,,,,decisionTrl,resources/DY.BMP,resources/DBN.BMP,Door3,0.424074102,0.070370356,1,0,0,1.4844,optionRight,70,14130,7,0,0,0,0,1,,,,,,,,,,,,,,,,,,,,,,,,,,,,,,,,,,,,,,,
,,,,,,,,2023-08-16_08h54.36.121,HF_wild_card,2022.2.4,Win32,60.0024001,63e528d1a9ece4b6addd5f2d,64d2fd46c836a06233681665,64dc7f20584a8f3af72ae994,,,,,,,ctch,resources/DP.BMP,resources/DBN.BMP,Door3,0.222222222,0.0074074,1,0,0,0.8558,optionRight,70,14200,7,1,0,1,0,1,,,,,,,,,,,,,,,,,,,,,,,,,,,,,,,,,,,,,,,
,,,,,,,,2023-08-16_08h54.36.121,HF_wild_card,2022.2.4,Win32,60.0024001,63e528d1a9ece4b6addd5f2d,64d2fd46c836a06233681665,64dc7f20584a8f3af72ae994,,,,,,,decisionTrl,resources/DBN.BMP,resources/DY.BMP,Door4,0.338888945,-0.003703718,1,0,0,1.366,optionRight,60,14260,7,2,0,2,0,1,,,,,,,,,,,,,,,,,,,,,,,,,,,,,,,,,,,,,,,
,,,,,,,,2023-08-16_08h54.36.121,HF_wild_card,2022.2.4,Win32,60.0024001,63e528d1a9ece4b6addd5f2d,64d2fd46c836a06233681665,64dc7f20584a8f3af72ae994,,,,,,,decisionTrl,resources/DY.BMP,resources/DBN.BMP,Door3,0.151851866,0.010185171,1,0,0,0.681,optionRight,70,14330,7,3,0,3,0,1,,,,,,,,,,,,,,,,,,,,,,,,,,,,,,,,,,,,,,,
,,,,,,,,2023-08-16_08h54.36.121,HF_wild_card,2022.2.4,Win32,60.0024001,63e528d1a9ece4b6addd5f2d,64d2fd46c836a06233681665,64dc7f20584a8f3af72ae994,,,,,,,decisionTrl,resources/DB.BMP,resources/DP.BMP,Door2,0.257407436,-0.018518519,1,0,0,0.9807,optionRight,20,14350,7,4,0,4,0,1,,,,,,,,,,,,,,,,,,,,,,,,,,,,,,,,,,,,,,,
,,,,,,,,2023-08-16_08h54.36.121,HF_wild_card,2022.2.4,Win32,60.0024001,63e528d1a9ece4b6addd5f2d,64d2fd46c836a06233681665,64dc7f20584a8f3af72ae994,,,,,,,decisionTrl,resources/DP.BMP,resources/DB.BMP,Door2,-0.272222236,-0.061111132,1,0,0,1.0648,optionLeft,40,14390,7,5,0,5,0,1,,,,,,,,,,,,,,,,,,,,,,,,,,,,,,,,,,,,,,,
,,,,,,,,2023-08-16_08h54.36.121,HF_wild_card,2022.2.4,Win32,60.0024001,63e528d1a9ece4b6addd5f2d,64d2fd46c836a06233681665,64dc7f20584a8f3af72ae994,,,,,,,ctch,resources/DBN.BMP,resources/DP.BMP,Door3,-0.19259255,0.001851859,1,0,0,0.9309,optionLeft,70,14460,7,6,0,6,0,1,,,,,,,,,,,,,,,,,,,,,,,,,,,,,,,,,,,,,,,
,,,,,,,,2023-08-16_08h54.36.121,HF_wild_card,2022.2.4,Win32,60.0024001,63e528d1a9ece4b6addd5f2d,64d2fd46c836a06233681665,64dc7f20584a8f3af72ae994,,,,,,,decisionTrl,resources/DBN.BMP,resources/DY.BMP,Door3,-0.213888875,0,1,0,0,0.6465,optionLeft,70,14530,7,7,0,7,0,1,,,,,,,,,,,,,,,,,,,,,,,,,,,,,,,,,,,,,,,
,,,,,,,,2023-08-16_08h54.36.121,HF_wild_card,2022.2.4,Win32,60.0024001,63e528d1a9ece4b6addd5f2d,64d2fd46c836a06233681665,64dc7f20584a8f3af72ae994,,,,,,,ctch,resources/DBN.BMP,resources/DP.BMP,Door3,-0.12962963,-0.008333347,1,0,0,4.2304,optionLeft,70,14600,7,8,0,8,0,1,,,,,,,,,,,,,,,,,,,,,,,,,,,,,,,,,,,,,,,
,,,,,,,,2023-08-16_08h54.36.121,HF_wild_card,2022.2.4,Win32,60.0024001,63e528d1a9ece4b6addd5f2d,64d2fd46c836a06233681665,64dc7f20584a8f3af72ae994,,,,,,,decisionTrl,resources/DBN.BMP,resources/DY.BMP,Door3,-0.202777792,-0.013888889,1,0,0,0.8813,optionLeft,70,14670,7,9,0,9,0,1,,,,,,,,,,,,,,,,,,,,,,,,,,,,,,,,,,,,,,,
,,,,,,,,2023-08-16_08h54.36.121,HF_wild_card,2022.2.4,Win32,60.0024001,63e528d1a9ece4b6addd5f2d,64d2fd46c836a06233681665,64dc7f20584a8f3af72ae994,,,,,,,decisionTrl,resources/DP.BMP,resources/DB.BMP,Door1,0.293518561,0.029629637,1,0,0,0.897,optionRight,30,14700,7,10,0,10,0,1,,,,,,,,,,,,,,,,,,,,,,,,,,,,,,,,,,,,,,,
,,,,,,,,2023-08-16_08h54.36.121,HF_wild_card,2022.2.4,Win32,60.0024001,63e528d1a9ece4b6addd5f2d,64d2fd46c836a06233681665,64dc7f20584a8f3af72ae994,,,,,,,decisionTrl,resources/DB.BMP,resources/DP.BMP,Door2,0.158333319,-0.001851859,1,0,0,0.8441,optionRight,20,14720,7,11,0,11,0,1,,,,,,,,,,,,,,,,,,,,,,,,,,,,,,,,,,,,,,,
,,,,,,,,2023-08-16_08h54.36.121,HF_wild_card,2022.2.4,Win32,60.0024001,63e528d1a9ece4b6addd5f2d,64d2fd46c836a06233681665,64dc7f20584a8f3af72ae994,,,,,,,decisionTrl,resources/DBN.BMP,resources/DY.BMP,Door3,-0.242592564,0.001851859,1,0,0,1.0648,optionLeft,70,14790,7,12,0,12,0,1,,,,,,,,,,,,,,,,,,,,,,,,,,,,,,,,,,,,,,,
,,,,,,,,2023-08-16_08h54.36.121,HF_wild_card,2022.2.4,Win32,60.0024001,63e528d1a9ece4b6addd5f2d,64d2fd46c836a06233681665,64dc7f20584a8f3af72ae994,,,,,,,decisionTrl,resources/DBN.BMP,resources/DY.BMP,Door3,-0.395370377,-0.039814808,1,0,0,0.4647,optionLeft,70,14860,7,13,0,13,0,1,,,,,,,,,,,,,,,,,,,,,,,,,,,,,,,,,,,,,,,
,,,,,,,,2023-08-16_08h54.36.121,HF_wild_card,2022.2.4,Win32,60.0024001,63e528d1a9ece4b6addd5f2d,64d2fd46c836a06233681665,64dc7f20584a8f3af72ae994,,,,,,,decisionTrl,resources/DB.BMP,resources/DP.BMP,Door2,0.320370427,0.013888889,1,0,0,0.7705,optionRight,20,14880,7,14,0,14,0,1,,,,,,,,,,,,,,,,,,,,,,,,,,,,,,,,,,,,,,,
,,,,,,,,2023-08-16_08h54.36.121,HF_wild_card,2022.2.4,Win32,60.0024001,63e528d1a9ece4b6addd5f2d,64d2fd46c836a06233681665,64dc7f20584a8f3af72ae994,,,,,,,decisionTrl,resources/DP.BMP,resources/DB.BMP,Door2,-0.233333305,-0.026851866,1,0,0,0.4898,optionLeft,40,14920,7,15,0,15,0,1,,,,,,,,,,,,,,,,,,,,,,,,,,,,,,,,,,,,,,,
,,,,,,,,2023-08-16_08h54.36.121,HF_wild_card,2022.2.4,Win32,60.0024001,63e528d1a9ece4b6addd5f2d,64d2fd46c836a06233681665,64dc7f20584a8f3af72ae994,,,,,,,decisionTrl,resources/DY.BMP,resources/DBN.BMP,Door3,0.171296296,0.005555541,1,0,0,0.6634,optionRight,70,14990,7,16,0,16,0,1,,,,,,,,,,,,,,,,,,,,,,,,,,,,,,,,,,,,,,,
,,,,,,,,2023-08-16_08h54.36.121,HF_wild_card,2022.2.4,Win32,60.0024001,63e528d1a9ece4b6addd5f2d,64d2fd46c836a06233681665,64dc7f20584a8f3af72ae994,,,,,,,decisionTrl,resources/DP.BMP,resources/DB.BMP,Door2,-0.249074088,-0.0074074,1,0,0,0.5979,optionLeft,40,15030,7,17,0,17,0,1,,,,,,,,,,,,,,,,,,,,,,,,,,,,,,,,,,,,,,,
,,,,,,,,2023-08-16_08h54.36.121,HF_wild_card,2022.2.4,Win32,60.0024001,63e528d1a9ece4b6addd5f2d,64d2fd46c836a06233681665,64dc7f20584a8f3af72ae994,,,,,,,decisionTrl,resources/DY.BMP,resources/DBN.BMP,Door3,0.154629672,0.0074074,1,0,0,0.7371,optionRight,70,15100,7,18,0,18,0,1,,,,,,,,,,,,,,,,,,,,,,,,,,,,,,,,,,,,,,,
,,,,,,,,2023-08-16_08h54.36.121,HF_wild_card,2022.2.4,Win32,60.0024001,63e528d1a9ece4b6addd5f2d,64d2fd46c836a06233681665,64dc7f20584a8f3af72ae994,,,,,,,decisionTrl,resources/DP.BMP,resources/DB.BMP,Door1,0.192592621,-0.006481489,1,0,0,0.8202,optionRight,30,15130,7,19,0,19,0,1,,,,,,,,,,,,,,,,,,,,,,,,,,,,,,,,,,,,,,,
,,,,,,,,2023-08-16_08h54.36.121,HF_wild_card,2022.2.4,Win32,60.0024001,63e528d1a9ece4b6addd5f2d,64d2fd46c836a06233681665,64dc7f20584a8f3af72ae994,,,,,,,ctch,resources/DY.BMP,resources/DB.BMP,Door4,-0.125925912,-0.025925919,1,0,0,1.2721,optionLeft,60,15190,7,20,0,20,0,1,,,,,,,,,,,,,,,,,,,,,,,,,,,,,,,,,,,,,,,
,,,,,,,,2023-08-16_08h54.36.121,HF_wild_card,2022.2.4,Win32,60.0024001,63e528d1a9ece4b6addd5f2d,64d2fd46c836a06233681665,64dc7f20584a8f3af72ae994,,,,,,,ctch,resources/DB.BMP,resources/DY.BMP,Door4,0.183333362,-0.000925947,1,0,0,0.8801,optionRight,80,15270,7,21,0,21,0,1,,,,,,,,,,,,,,,,,,,,,,,,,,,,,,,,,,,,,,,
,,,,,,,,2023-08-16_08h54.36.121,HF_wild_card,2022.2.4,Win32,60.0024001,63e528d1a9ece4b6addd5f2d,64d2fd46c836a06233681665,64dc7f20584a8f3af72ae994,,,,,,,decisionTrl,resources/DB.BMP,resources/DP.BMP,Door2,0.242592635,0.034259266,1,0,0,0.807,optionRight,20,15290,7,22,0,22,0,1,,,,,,,,,,,,,,,,,,,,,,,,,,,,,,,,,,,,,,,
,,,,,,,,2023-08-16_08h54.36.121,HF_wild_card,2022.2.4,Win32,60.0024001,63e528d1a9ece4b6addd5f2d,64d2fd46c836a06233681665,64dc7f20584a8f3af72ae994,,,,,,,decisionTrl,resources/DY.BMP,resources/DBN.BMP,Door3,0.154629672,0.025000007,1,0,0,0.662,optionRight,70,15360,7,23,0,23,0,1,,,,,,,,,,,,,,,,,,,,,,,,,,,,,,,,,,,,,,,
,,,,,,,,2023-08-16_08h54.36.121,HF_wild_card,2022.2.4,Win32,60.0024001,63e528d1a9ece4b6addd5f2d,64d2fd46c836a06233681665,64dc7f20584a8f3af72ae994,,,,,,,decisionTrl,resources/DB.BMP,resources/DP.BMP,Door2,0.375,0.073148127,1,0,0,0.756,optionRight,20,15380,7,24,0,24,0,1,,,,,,,,,,,,,,,,,,,,,,,,,,,,,,,,,,,,,,,
,,,,,,,,2023-08-16_08h54.36.121,HF_wild_card,2022.2.4,Win32,60.0024001,63e528d1a9ece4b6addd5f2d,64d2fd46c836a06233681665,64dc7f20584a8f3af72ae994,,,,,,,ctch,resources/DP.BMP,resources/DBN.BMP,Door3,0.308333362,0.059259238,1,0,0,0.6299,optionRight,70,15450,7,25,0,25,0,1,,,,,,,,,,,,,,,,,,,,,,,,,,,,,,,,,,,,,,,
,,,,,,,,2023-08-16_08h54.36.121,HF_wild_card,2022.2.4,Win32,60.0024001,63e528d1a9ece4b6addd5f2d,64d2fd46c836a06233681665,64dc7f20584a8f3af72ae994,,,,,,,ctch,resources/DY.BMP,resources/DB.BMP,Door4,-0.360185164,-0.025000007,1,0,0,0.8482,optionLeft,60,15510,7,26,0,26,0,1,,,,,,,,,,,,,,,,,,,,,,,,,,,,,,,,,,,,,,,
,,,,,,,,2023-08-16_08h54.36.121,HF_wild_card,2022.2.4,Win32,60.0024001,63e528d1a9ece4b6addd5f2d,64d2fd46c836a06233681665,64dc7f20584a8f3af72ae994,,,,,,,ctch,resources/DB.BMP,resources/DY.BMP,Door4,0.231481481,0.013888889,1,0,0,0.6642,optionRight,80,15590,7,27,0,27,0,1,,,,,,,,,,,,,,,,,,,,,,,,,,,,,,,,,,,,,,,
,,,,,,,,2023-08-16_08h54.36.121,HF_wild_card,2022.2.4,Win32,60.0024001,63e528d1a9ece4b6addd5f2d,64d2fd46c836a06233681665,64dc7f20584a8f3af72ae994,,,,,,,ctch,resources/DBN.BMP,resources/DP.BMP,Door3,-0.199999986,-0.017592607,1,0,0,0.7974,optionLeft,70,15660,7,28,0,28,0,1,,,,,,,,,,,,,,,,,,,,,,,,,,,,,,,,,,,,,,,
,,,,,,,,2023-08-16_08h54.36.121,HF_wild_card,2022.2.4,Win32,60.0024001,63e528d1a9ece4b6addd5f2d,64d2fd46c836a06233681665,64dc7f20584a8f3af72ae994,,,,,,,decisionTrl,resources/DB.BMP,resources/DP.BMP,Door2,0.169444473,0.0074074,1,0,0,0.9643,optionRight,20,15680,7,29,0,29,0,1,,,,,,,,,,,,,,,,,,,,,,,,,,,,,,,,,,,,,,,
,,,,,,,,2023-08-16_08h54.36.121,HF_wild_card,2022.2.4,Win32,60.0024001,63e528d1a9ece4b6addd5f2d,64d2fd46c836a06233681665,64dc7f20584a8f3af72ae994,,,,,,,ctch,resources/DY.BMP,resources/DB.BMP,Door4,-0.117592564,-0.003703718,1,0,0,0.9982,optionLeft,80,15760,7,30,0,30,0,1,,,,,,,,,,,,,,,,,,,,,,,,,,,,,,,,,,,,,,,
,,,,,,,,2023-08-16_08h54.36.121,HF_wild_card,2022.2.4,Win32,60.0024001,63e528d1a9ece4b6addd5f2d,64d2fd46c836a06233681665,64dc7f20584a8f3af72ae994,,,,,,,decisionTrl,resources/DP.BMP,resources/DB.BMP,Door1,0.213888875,0.02407406,1,0,0,0.765,optionRight,30,15790,7,31,0,31,0,1,,,,,,,,,,,,,,,,,,,,,,,,,,,,,,,,,,,,,,,
,,,,,,,,2023-08-16_08h54.36.121,HF_wild_card,2022.2.4,Win32,60.0024001,63e528d1a9ece4b6addd5f2d,64d2fd46c836a06233681665,64dc7f20584a8f3af72ae994,,,,,,,ctch,resources/DP.BMP,resources/DBN.BMP,Door3,0.29814812,-0.000925947,1,0,0,2.4041,optionRight,70,15860,7,32,0,32,0,1,,,,,,,,,,,,,,,,,,,,,,,,,,,,,,,,,,,,,,,
,,,,,,,,2023-08-16_08h54.36.121,HF_wild_card,2022.2.4,Win32,60.0024001,63e528d1a9ece4b6addd5f2d,64d2fd46c836a06233681665,64dc7f20584a8f3af72ae994,,,,,,,decisionTrl,resources/DY.BMP,resources/DBN.BMP,Door3,0.343518575,0.014814801,1,0,0,0.6811,optionRight,70,15930,7,33,0,33,0,1,,,,,,,,,,,,,,,,,,,,,,,,,,,,,,,,,,,,,,,
,,,,,,,,2023-08-16_08h54.36.121,HF_wild_card,2022.2.4,Win32,60.0024001,63e528d1a9ece4b6addd5f2d,64d2fd46c836a06233681665,64dc7f20584a8f3af72ae994,,,,,,,decisionTrl,resources/DBN.BMP,resources/DY.BMP,Door3,-0.318518497,-0.009259259,1,0,0,1.8962,optionLeft,70,16000,7,34,0,34,0,1,,,,,,,,,,,,,,,,,,,,,,,,,,,,,,,,,,,,,,,
,,,,,,,,2023-08-16_08h54.36.121,HF_wild_card,2022.2.4,Win32,60.0024001,63e528d1a9ece4b6addd5f2d,64d2fd46c836a06233681665,64dc7f20584a8f3af72ae994,,,,,,,ctch,resources/DB.BMP,resources/DY.BMP,Door4,0.216666681,-0.014814836,1,0,0,0.98,optionRight,60,16060,7,35,0,35,0,1,,,,,,,,,,,,,,,,,,,,,,,,,,,,,,,,,,,,,,,
,,,,,,,,2023-08-16_08h54.36.121,HF_wild_card,2022.2.4,Win32,60.0024001,63e528d1a9ece4b6addd5f2d,64d2fd46c836a06233681665,64dc7f20584a8f3af72ae994,,,,,,,,,,,,,,,,,,,,,,,,,,6,0,6,0,1,,,,,,,,,,,,,,,,,,,,,,,,,,,,,,,,,,
,,,,,,,,2023-08-16_08h54.36.121,HF_wild_card,2022.2.4,Win32,60.0024001,63e528d1a9ece4b6addd5f2d,64d2fd46c836a06233681665,64dc7f20584a8f3af72ae994,,,,,,,,,,,,,,,,,,,,,,,,,,,,,,,4,,,,,,,,,,,,,,,,,,,,,,,,,,,,,,,,,
,,,,,,,,2023-08-16_08h54.36.121,HF_wild_card,2022.2.4,Win32,60.0024001,63e528d1a9ece4b6addd5f2d,64d2fd46c836a06233681665,64dc7f20584a8f3af72ae994,,,,,,,,,,,,,,,,,,,,,,,,,,,,,,,,,,,,,,,,,,,,,,,,,,,,,,,,,,,,,,,,
,,,,,,,,2023-08-16_08h54.36.121,HF_wild_card,2022.2.4,Win32,60.0024001,63e528d1a9ece4b6addd5f2d,64d2fd46c836a06233681665,64dc7f20584a8f3af72ae994,,,,,,,,,,,,,,,,,,,,,,,,,,,,,,,,70,Door3,resources/DBN.BMP,0,0,0,0,1,,,,,,,,,,,,,,,,,,,,,,,,,
,,,,,,,,2023-08-16_08h54.36.121,HF_wild_card,2022.2.4,Win32,60.0024001,63e528d1a9ece4b6addd5f2d,64d2fd46c836a06233681665,64dc7f20584a8f3af72ae994,,,,,,,,,,,,,,,,,,,,,,,,,,,,,,,,30,WC_nonExtreme,resources/DR.BMP,1,0,1,0,1,,,,,,,,,,,,,,,,,,,,,,,,,
,,,,,,,,2023-08-16_08h54.36.121,HF_wild_card,2022.2.4,Win32,60.0024001,63e528d1a9ece4b6addd5f2d,64d2fd46c836a06233681665,64dc7f20584a8f3af72ae994,,,,,,,,,,,,,,,,,,,,,,,,,,,,,,,,35,Door1,resources/DB.BMP,2,0,2,0,1,,,,,,,,,,,,,,,,,,,,,,,,,
,,,,,,,,2023-08-16_08h54.36.121,HF_wild_card,2022.2.4,Win32,60.0024001,63e528d1a9ece4b6addd5f2d,64d2fd46c836a06233681665,64dc7f20584a8f3af72ae994,,,,,,,,,,,,,,,,,,,,,,,,,,,,,,,,40,Door2,resources/DP.BMP,3,0,3,0,1,,,,,,,,,,,,,,,,,,,,,,,,,
,,,,,,,,2023-08-16_08h54.36.121,HF_wild_card,2022.2.4,Win32,60.0024001,63e528d1a9ece4b6addd5f2d,64d2fd46c836a06233681665,64dc7f20584a8f3af72ae994,,,,,,,,,,,,,,,,,,,,,,,,,,,,,,,,80,Door4,resources/DY.BMP,4,0,4,0,1,,,,,,,,,,,,,,,,,,,,,,,,,
,,,,,,,,2023-08-16_08h54.36.121,HF_wild_card,2022.2.4,Win32,60.0024001,63e528d1a9ece4b6addd5f2d,64d2fd46c836a06233681665,64dc7f20584a8f3af72ae994,,,,,,,,,,,,,,,,,,,,,,,,,,,,,,,,60,WC_extreme,resources/DG.BMP,5,0,5,0,1,,,,,,,,,,,,,,,,,,,,,,,,,
,,,,,,,,2023-08-16_08h54.36.121,HF_wild_card,2022.2.4,Win32,60.0024001,63e528d1a9ece4b6addd5f2d,64d2fd46c836a06233681665,64dc7f20584a8f3af72ae994,,,,,,,,,,,,,,,,,,,,,,,,,,,,,,,,,,,,,,,,,,,,,,,,,,,,,,,,,,,,,,,,
,,,,,,,,2023-08-16_08h54.36.121,HF_wild_card,2022.2.4,Win32,60.0024001,63e528d1a9ece4b6addd5f2d,64d2fd46c836a06233681665,64dc7f20584a8f3af72ae994,,,,,,,,,,,,,,,,,,,,,,,,,,,,,,,,,,,,,,,,0,0,0,0,1,,,,,,,,,,,,,,,,,,,,
,,,,,,,,2023-08-16_08h54.36.121,HF_wild_card,2022.2.4,Win32,60.0024001,63e528d1a9ece4b6addd5f2d,64d2fd46c836a06233681665,64dc7f20584a8f3af72ae994,,,,,,,,,,,,,,,,,,,,,,,,,,,,,,,,,,,,,,,,1,0,1,0,1,,,,,,,,,,,,,,,,,,,,
