Condition,Low fixed image (Door1),Low risky image (Door2),High fixed image (Door3),High risky image (Door4),Extreme Wild Card,NonExtreme Wild Card,,date,expName,psychopyVersion,OS,frameRate,PROLIFIC_PID,STUDY_ID,SESSION_ID,mouse_2.x,mouse_2.y,mouse_2.leftButton,mouse_2.midButton,mouse_2.rightButton,mouse_2.clicked_name,Trial Type,Left Option Image,Right Option Image,Chosen Door,mouse.x,mouse.y,mouse.leftButton,mouse.midButton,mouse.rightButton,mouse.time,mouse.clicked_name,Feedback,Cumulative Reward,Block,trial.thisRepN,trial.thisTrialN,trial.thisN,trial.thisIndex,trial.ran,blocks.thisRepN,blocks.thisTrialN,blocks.thisN,blocks.thisIndex,blocks.ran,Money conversion,First Outcome Reported,Shown Door (First Outcome),Displayed Image (First Outcome),outcomes.thisRepN,outcomes.thisTrialN,outcomes.thisN,outcomes.thisIndex,outcomes.ran,judgments.thisRepN,judgments.thisTrialN,judgments.thisN,judgments.thisIndex,judgments.ran,freqMouse.x,freqMouse.y,freqMouse.leftButton,freqMouse.midButton,freqMouse.rightButton,freqMouse.clicked_name,FQJ for first outcome,FQJ for second outcome,Shown Door,Displayed Image,trials.thisRepN,trials.thisTrialN,trials.thisN,trials.thisIndex,trials.ran,judgBlock.thisRepN,judgBlock.thisTrialN,judgBlock.thisN,judgBlock.thisIndex,judgBlock.ran
1,resources/DBN.BMP,resources/DR.BMP,resources/DB.BMP,resources/DG.BMP,resources/DP.BMP,resources/DY.BMP,,2023-08-16_09h09.23.165,HF_wild_card,2022.2.4,Win32,60.09615385,6483648c280beabafcb3797e,64d2fd46c836a06233681665,64dc82f2102d4af8cd12707e,,,,,,,,,,,,,,,,,,,,,,,,,,,,,,,,,,,,,,,,,,,,,,,,,,,,,,,,,,,,,,,,
,,,,,,,,2023-08-16_09h09.23.165,HF_wild_card,2022.2.4,Win32,60.09615385,6483648c280beabafcb3797e,64d2fd46c836a06233681665,64dc82f2102d4af8cd12707e,0.019583475,-0.417371354,1,0,0,agree,,,,,,,,,,,,,,,,,,,,,,,,,,,,,,,,,,,,,,,,,,,,,,,,,,,,,,,,,,
,,,,,,,,2023-08-16_09h09.23.165,HF_wild_card,2022.2.4,Win32,60.09615385,6483648c280beabafcb3797e,64d2fd46c836a06233681665,64dc82f2102d4af8cd12707e,,,,,,,,,,,,,,,,,,,,,,,,,,,,,,,,,,,,,,,,,,,,,,,,,,,,,,,,,,,,,,,,
,,,,,,,,2023-08-16_09h09.23.165,HF_wild_card,2022.2.4,Win32,60.09615385,6483648c280beabafcb3797e,64d2fd46c836a06233681665,64dc82f2102d4af8cd12707e,,,,,,,decisionTrl,resources/DR.BMP,resources/DBN.BMP,Door1,0.424267924,0.062784677,1,0,0,6.7248,optionRight,30,30,1,0,0,0,0,1,,,,,,,,,,,,,,,,,,,,,,,,,,,,,,,,,,,,,,,
,,,,,,,,2023-08-16_09h09.23.165,HF_wild_card,2022.2.4,Win32,60.09615385,6483648c280beabafcb3797e,64d2fd46c836a06233681665,64dc82f2102d4af8cd12707e,,,,,,,sngl,resources/DB.BMP,resources/Empty.png,Door3,-0.417631819,-0.000975872,1,0,0,3.2746,optionLeft,70,100,1,1,0,1,0,1,,,,,,,,,,,,,,,,,,,,,,,,,,,,,,,,,,,,,,,
,,,,,,,,2023-08-16_09h09.23.165,HF_wild_card,2022.2.4,Win32,60.09615385,6483648c280beabafcb3797e,64d2fd46c836a06233681665,64dc82f2102d4af8cd12707e,,,,,,,decisionTrl,resources/DY.BMP,resources/DBN.BMP,WildCard_NonEx,-0.333051458,0.006831504,1,0,0,2.3618,optionLeft,45,145,1,2,0,2,0,1,,,,,,,,,,,,,,,,,,,,,,,,,,,,,,,,,,,,,,,
,,,,,,,,2023-08-16_09h09.23.165,HF_wild_card,2022.2.4,Win32,60.09615385,6483648c280beabafcb3797e,64d2fd46c836a06233681665,64dc82f2102d4af8cd12707e,,,,,,,decisionTrl,resources/DBN.BMP,resources/DR.BMP,Door2,0.409954258,-0.043916695,1,0,0,2.8319,optionRight,20,165,1,3,0,3,0,1,,,,,,,,,,,,,,,,,,,,,,,,,,,,,,,,,,,,,,,
,,,,,,,,2023-08-16_09h09.23.165,HF_wild_card,2022.2.4,Win32,60.09615385,6483648c280beabafcb3797e,64d2fd46c836a06233681665,64dc82f2102d4af8cd12707e,,,,,,,decisionTrl,resources/DB.BMP,resources/DG.BMP,Door4,0.446389022,-0.125894568,1,0,0,1.9701,optionRight,60,225,1,4,0,4,0,1,,,,,,,,,,,,,,,,,,,,,,,,,,,,,,,,,,,,,,,
,,,,,,,,2023-08-16_09h09.23.165,HF_wild_card,2022.2.4,Win32,60.09615385,6483648c280beabafcb3797e,64d2fd46c836a06233681665,64dc82f2102d4af8cd12707e,,,,,,,sngl,resources/Empty.png,resources/DB.BMP,Door3,0.357904974,-0.056929045,1,0,0,1.5315,optionRight,70,295,1,5,0,5,0,1,,,,,,,,,,,,,,,,,,,,,,,,,,,,,,,,,,,,,,,
,,,,,,,,2023-08-16_09h09.23.165,HF_wild_card,2022.2.4,Win32,60.09615385,6483648c280beabafcb3797e,64d2fd46c836a06233681665,64dc82f2102d4af8cd12707e,,,,,,,decisionTrl,resources/DY.BMP,resources/DB.BMP,Door3,0.326675127,0.021145112,1,0,0,3.7278,optionRight,70,365,1,6,0,6,0,1,,,,,,,,,,,,,,,,,,,,,,,,,,,,,,,,,,,,,,,
,,,,,,,,2023-08-16_09h09.23.165,HF_wild_card,2022.2.4,Win32,60.09615385,6483648c280beabafcb3797e,64d2fd46c836a06233681665,64dc82f2102d4af8cd12707e,,,,,,,ctch,resources/DBN.BMP,resources/DG.BMP,Door4,0.389134475,-0.067338936,1,0,0,2.3672,optionRight,60,425,1,7,0,7,0,1,,,,,,,,,,,,,,,,,,,,,,,,,,,,,,,,,,,,,,,
,,,,,,,,2023-08-16_09h09.23.165,HF_wild_card,2022.2.4,Win32,60.09615385,6483648c280beabafcb3797e,64d2fd46c836a06233681665,64dc82f2102d4af8cd12707e,,,,,,,decisionTrl,resources/DBN.BMP,resources/DR.BMP,Door2,0.447690222,-0.093363636,1,0,0,2.4513,optionRight,40,465,1,8,0,8,0,1,,,,,,,,,,,,,,,,,,,,,,,,,,,,,,,,,,,,,,,
,,,,,,,,2023-08-16_09h09.23.165,HF_wild_card,2022.2.4,Win32,60.09615385,6483648c280beabafcb3797e,64d2fd46c836a06233681665,64dc82f2102d4af8cd12707e,,,,,,,sngl,resources/Empty.png,resources/DBN.BMP,Door1,0.354001258,-0.027000629,1,0,0,1.383,optionRight,30,495,1,9,0,9,0,1,,,,,,,,,,,,,,,,,,,,,,,,,,,,,,,,,,,,,,,
,,,,,,,,2023-08-16_09h09.23.165,HF_wild_card,2022.2.4,Win32,60.09615385,6483648c280beabafcb3797e,64d2fd46c836a06233681665,64dc82f2102d4af8cd12707e,,,,,,,sngl,resources/DBN.BMP,resources/Empty.png,Door1,-0.24326621,0.019843882,1,0,0,1.3958,optionLeft,30,525,1,10,0,10,0,1,,,,,,,,,,,,,,,,,,,,,,,,,,,,,,,,,,,,,,,
,,,,,,,,2023-08-16_09h09.23.165,HF_wild_card,2022.2.4,Win32,60.09615385,6483648c280beabafcb3797e,64d2fd46c836a06233681665,64dc82f2102d4af8cd12707e,,,,,,,decisionTrl,resources/DB.BMP,resources/DG.BMP,Door4,0.298048027,-0.043916695,1,0,0,3.2814,optionRight,80,605,1,11,0,11,0,1,,,,,,,,,,,,,,,,,,,,,,,,,,,,,,,,,,,,,,,
,,,,,,,,2023-08-16_09h09.23.165,HF_wild_card,2022.2.4,Win32,60.09615385,6483648c280beabafcb3797e,64d2fd46c836a06233681665,64dc82f2102d4af8cd12707e,,,,,,,sngl,resources/Empty.png,resources/DY.BMP,WildCard_NonEx,0.301951743,-0.055627787,1,0,0,1.5084,optionRight,55,660,1,12,0,12,0,1,,,,,,,,,,,,,,,,,,,,,,,,,,,,,,,,,,,,,,,
,,,,,,,,2023-08-16_09h09.23.165,HF_wild_card,2022.2.4,Win32,60.09615385,6483648c280beabafcb3797e,64d2fd46c836a06233681665,64dc82f2102d4af8cd12707e,,,,,,,ctch,resources/DG.BMP,resources/DBN.BMP,Door4,-0.411125644,-0.027000629,1,0,0,2.1842,optionLeft,60,720,1,13,0,13,0,1,,,,,,,,,,,,,,,,,,,,,,,,,,,,,,,,,,,,,,,
,,,,,,,,2023-08-16_09h09.23.165,HF_wild_card,2022.2.4,Win32,60.09615385,6483648c280beabafcb3797e,64d2fd46c836a06233681665,64dc82f2102d4af8cd12707e,,,,,,,ctch,resources/DR.BMP,resources/DB.BMP,Door3,0.367013607,-0.073845054,1,0,0,3.1321,optionRight,70,790,1,14,0,14,0,1,,,,,,,,,,,,,,,,,,,,,,,,,,,,,,,,,,,,,,,
,,,,,,,,2023-08-16_09h09.23.165,HF_wild_card,2022.2.4,Win32,60.09615385,6483648c280beabafcb3797e,64d2fd46c836a06233681665,64dc82f2102d4af8cd12707e,,,,,,,decisionTrl,resources/DR.BMP,resources/DBN.BMP,Door2,-0.361678617,-0.02439817,1,0,0,2.0765,optionLeft,20,810,1,15,0,15,0,1,,,,,,,,,,,,,,,,,,,,,,,,,,,,,,,,,,,,,,,
,,,,,,,,2023-08-16_09h09.23.165,HF_wild_card,2022.2.4,Win32,60.09615385,6483648c280beabafcb3797e,64d2fd46c836a06233681665,64dc82f2102d4af8cd12707e,,,,,,,sngl,resources/Empty.png,resources/DR.BMP,Door2,0.357904974,-0.029603087,1,0,0,1.1529,optionRight,20,830,1,16,0,16,0,1,,,,,,,,,,,,,,,,,,,,,,,,,,,,,,,,,,,,,,,
,,,,,,,,2023-08-16_09h09.23.165,HF_wild_card,2022.2.4,Win32,60.09615385,6483648c280beabafcb3797e,64d2fd46c836a06233681665,64dc82f2102d4af8cd12707e,,,,,,,sngl,resources/Empty.png,resources/DG.BMP,Door4,0.234287363,-0.023096912,1,0,0,1.0667,optionRight,60,890,1,17,0,17,0,1,,,,,,,,,,,,,,,,,,,,,,,,,,,,,,,,,,,,,,,
,,,,,,,,2023-08-16_09h09.23.165,HF_wild_card,2022.2.4,Win32,60.09615385,6483648c280beabafcb3797e,64d2fd46c836a06233681665,64dc82f2102d4af8cd12707e,,,,,,,ctch,resources/DB.BMP,resources/DR.BMP,Door3,-0.334352659,-0.028301829,1,0,0,2.1118,optionLeft,70,960,1,18,0,18,0,1,,,,,,,,,,,,,,,,,,,,,,,,,,,,,,,,,,,,,,,
,,,,,,,,2023-08-16_09h09.23.165,HF_wild_card,2022.2.4,Win32,60.09615385,6483648c280beabafcb3797e,64d2fd46c836a06233681665,64dc82f2102d4af8cd12707e,,,,,,,decisionTrl,resources/DG.BMP,resources/DB.BMP,Door4,-0.422836764,0.036759949,1,0,0,3.397,optionLeft,60,1020,1,19,0,19,0,1,,,,,,,,,,,,,,,,,,,,,,,,,,,,,,,,,,,,,,,
,,,,,,,,2023-08-16_09h09.23.165,HF_wild_card,2022.2.4,Win32,60.09615385,6483648c280beabafcb3797e,64d2fd46c836a06233681665,64dc82f2102d4af8cd12707e,,,,,,,decisionTrl,resources/DR.BMP,resources/DBN.BMP,Door1,0.506245854,-0.03741052,1,0,0,2.553,optionRight,30,1050,1,20,0,20,0,1,,,,,,,,,,,,,,,,,,,,,,,,,,,,,,,,,,,,,,,
,,,,,,,,2023-08-16_09h09.23.165,HF_wild_card,2022.2.4,Win32,60.09615385,6483648c280beabafcb3797e,64d2fd46c836a06233681665,64dc82f2102d4af8cd12707e,,,,,,,decisionTrl,resources/DR.BMP,resources/DBN.BMP,Door1,0.412556889,0.022446398,1,0,0,1.3126,optionRight,30,1080,1,21,0,21,0,1,,,,,,,,,,,,,,,,,,,,,,,,,,,,,,,,,,,,,,,
,,,,,,,,2023-08-16_09h09.23.165,HF_wild_card,2022.2.4,Win32,60.09615385,6483648c280beabafcb3797e,64d2fd46c836a06233681665,64dc82f2102d4af8cd12707e,,,,,,,sngl,resources/Empty.png,resources/DY.BMP,WildCard_NonEx,0.28113196,0.012036536,1,0,0,1.1503,optionRight,45,1125,1,22,0,22,0,1,,,,,,,,,,,,,,,,,,,,,,,,,,,,,,,,,,,,,,,
,,,,,,,,2023-08-16_09h09.23.165,HF_wild_card,2022.2.4,Win32,60.09615385,6483648c280beabafcb3797e,64d2fd46c836a06233681665,64dc82f2102d4af8cd12707e,,,,,,,ctch,resources/DB.BMP,resources/DR.BMP,Door3,-0.282303202,0.002927787,1,0,0,1.4287,optionLeft,70,1195,1,23,0,23,0,1,,,,,,,,,,,,,,,,,,,,,,,,,,,,,,,,,,,,,,,
,,,,,,,,2023-08-16_09h09.23.165,HF_wild_card,2022.2.4,Win32,60.09615385,6483648c280beabafcb3797e,64d2fd46c836a06233681665,64dc82f2102d4af8cd12707e,,,,,,,sngl,resources/DR.BMP,resources/Empty.png,Door2,-0.349967525,-0.055627787,1,0,0,1.3086,optionLeft,40,1235,1,24,0,24,0,1,,,,,,,,,,,,,,,,,,,,,,,,,,,,,,,,,,,,,,,
,,,,,,,,2023-08-16_09h09.23.165,HF_wild_card,2022.2.4,Win32,60.09615385,6483648c280beabafcb3797e,64d2fd46c836a06233681665,64dc82f2102d4af8cd12707e,,,,,,,decisionTrl,resources/DG.BMP,resources/DB.BMP,Door4,-0.415029303,0.013337679,1,0,0,6.2855,optionLeft,80,1315,1,25,0,25,0,1,,,,,,,,,,,,,,,,,,,,,,,,,,,,,,,,,,,,,,,
,,,,,,,,2023-08-16_09h09.23.165,HF_wild_card,2022.2.4,Win32,60.09615385,6483648c280beabafcb3797e,64d2fd46c836a06233681665,64dc82f2102d4af8cd12707e,,,,,,,ctch,resources/DG.BMP,resources/DBN.BMP,Door4,-0.456668868,-0.021795654,1,0,0,1.9908,optionLeft,60,1375,1,26,0,26,0,1,,,,,,,,,,,,,,,,,,,,,,,,,,,,,,,,,,,,,,,
,,,,,,,,2023-08-16_09h09.23.165,HF_wild_card,2022.2.4,Win32,60.09615385,6483648c280beabafcb3797e,64d2fd46c836a06233681665,64dc82f2102d4af8cd12707e,,,,,,,decisionTrl,resources/DG.BMP,resources/DY.BMP,WildCard_NonEx,0.357904974,-0.058230303,1,0,0,2.817,optionRight,55,1430,1,27,0,27,0,1,,,,,,,,,,,,,,,,,,,,,,,,,,,,,,,,,,,,,,,
,,,,,,,,2023-08-16_09h09.23.165,HF_wild_card,2022.2.4,Win32,60.09615385,6483648c280beabafcb3797e,64d2fd46c836a06233681665,64dc82f2102d4af8cd12707e,,,,,,,decisionTrl,resources/DB.BMP,resources/DG.BMP,Door4,0.303253059,0.038061178,1,0,0,5.7683,optionRight,60,1490,1,28,0,28,0,1,,,,,,,,,,,,,,,,,,,,,,,,,,,,,,,,,,,,,,,
,,,,,,,,2023-08-16_09h09.23.165,HF_wild_card,2022.2.4,Win32,60.09615385,6483648c280beabafcb3797e,64d2fd46c836a06233681665,64dc82f2102d4af8cd12707e,,,,,,,ctch,resources/DR.BMP,resources/DB.BMP,Door2,-0.335653974,-0.015289422,1,0,0,2.7979,optionLeft,40,1530,1,29,0,29,0,1,,,,,,,,,,,,,,,,,,,,,,,,,,,,,,,,,,,,,,,
,,,,,,,,2023-08-16_09h09.23.165,HF_wild_card,2022.2.4,Win32,60.09615385,6483648c280beabafcb3797e,64d2fd46c836a06233681665,64dc82f2102d4af8cd12707e,,,,,,,sngl,resources/DY.BMP,resources/Empty.png,WildCard_NonEx,-0.29141195,-0.036109205,1,0,0,1.2039,optionLeft,55,1585,1,30,0,30,0,1,,,,,,,,,,,,,,,,,,,,,,,,,,,,,,,,,,,,,,,
,,,,,,,,2023-08-16_09h09.23.165,HF_wild_card,2022.2.4,Win32,60.09615385,6483648c280beabafcb3797e,64d2fd46c836a06233681665,64dc82f2102d4af8cd12707e,,,,,,,decisionTrl,resources/DBN.BMP,resources/DR.BMP,Door2,0.346193825,-0.020494454,1,0,0,2.1968,optionRight,20,1605,1,31,0,31,0,1,,,,,,,,,,,,,,,,,,,,,,,,,,,,,,,,,,,,,,,
,,,,,,,,2023-08-16_09h09.23.165,HF_wild_card,2022.2.4,Win32,60.09615385,6483648c280beabafcb3797e,64d2fd46c836a06233681665,64dc82f2102d4af8cd12707e,,,,,,,decisionTrl,resources/DY.BMP,resources/DR.BMP,WildCard_NonEx,-0.373389823,-0.034808004,1,0,0,1.7329,optionLeft,55,1660,1,32,0,32,0,1,,,,,,,,,,,,,,,,,,,,,,,,,,,,,,,,,,,,,,,
,,,,,,,,2023-08-16_09h09.23.165,HF_wild_card,2022.2.4,Win32,60.09615385,6483648c280beabafcb3797e,64d2fd46c836a06233681665,64dc82f2102d4af8cd12707e,,,,,,,decisionTrl,resources/DY.BMP,resources/DG.BMP,Door4,0.354001258,-0.084254945,1,0,0,4.6815,optionRight,80,1740,1,33,0,33,0,1,,,,,,,,,,,,,,,,,,,,,,,,,,,,,,,,,,,,,,,
,,,,,,,,2023-08-16_09h09.23.165,HF_wild_card,2022.2.4,Win32,60.09615385,6483648c280beabafcb3797e,64d2fd46c836a06233681665,64dc82f2102d4af8cd12707e,,,,,,,decisionTrl,resources/DBN.BMP,resources/DR.BMP,Door1,-0.3577749,-0.054326586,1,0,0,2.6553,optionLeft,30,1770,1,34,0,34,0,1,,,,,,,,,,,,,,,,,,,,,,,,,,,,,,,,,,,,,,,
,,,,,,,,2023-08-16_09h09.23.165,HF_wild_card,2022.2.4,Win32,60.09615385,6483648c280beabafcb3797e,64d2fd46c836a06233681665,64dc82f2102d4af8cd12707e,,,,,,,decisionTrl,resources/DB.BMP,resources/DY.BMP,WildCard_NonEx,0.337085191,-0.017891938,1,0,0,3.9131,optionRight,45,1815,1,35,0,35,0,1,,,,,,,,,,,,,,,,,,,,,,,,,,,,,,,,,,,,,,,
,,,,,,,,2023-08-16_09h09.23.165,HF_wild_card,2022.2.4,Win32,60.09615385,6483648c280beabafcb3797e,64d2fd46c836a06233681665,64dc82f2102d4af8cd12707e,,,,,,,decisionTrl,resources/DR.BMP,resources/DY.BMP,WildCard_NonEx,0.38783339,-0.023096912,1,0,0,1.4139,optionRight,45,1860,1,36,0,36,0,1,,,,,,,,,,,,,,,,,,,,,,,,,,,,,,,,,,,,,,,
,,,,,,,,2023-08-16_09h09.23.165,HF_wild_card,2022.2.4,Win32,60.09615385,6483648c280beabafcb3797e,64d2fd46c836a06233681665,64dc82f2102d4af8cd12707e,,,,,,,decisionTrl,resources/DG.BMP,resources/DB.BMP,Door4,-0.394209549,-0.019193138,1,0,0,2.5859,optionLeft,80,1940,1,37,0,37,0,1,,,,,,,,,,,,,,,,,,,,,,,,,,,,,,,,,,,,,,,
,,,,,,,,2023-08-16_09h09.23.165,HF_wild_card,2022.2.4,Win32,60.09615385,6483648c280beabafcb3797e,64d2fd46c836a06233681665,64dc82f2102d4af8cd12707e,,,,,,,sngl,resources/DG.BMP,resources/Empty.png,Door4,-0.431945369,-0.034808004,1,0,0,1.1987,optionLeft,80,2020,1,38,0,38,0,1,,,,,,,,,,,,,,,,,,,,,,,,,,,,,,,,,,,,,,,
,,,,,,,,2023-08-16_09h09.23.165,HF_wild_card,2022.2.4,Win32,60.09615385,6483648c280beabafcb3797e,64d2fd46c836a06233681665,64dc82f2102d4af8cd12707e,,,,,,,sngl,resources/DY.BMP,resources/Empty.png,WildCard_NonEx,-0.450162722,-0.054326586,1,0,0,1.3378,optionLeft,45,2065,1,39,0,39,0,1,,,,,,,,,,,,,,,,,,,,,,,,,,,,,,,,,,,,,,,
,,,,,,,,2023-08-16_09h09.23.165,HF_wild_card,2022.2.4,Win32,60.09615385,6483648c280beabafcb3797e,64d2fd46c836a06233681665,64dc82f2102d4af8cd12707e,,,,,,,decisionTrl,resources/DBN.BMP,resources/DY.BMP,WildCard_NonEx,0.493233504,-0.055627787,1,0,0,2.0331,optionRight,55,2120,1,40,0,40,0,1,,,,,,,,,,,,,,,,,,,,,,,,,,,,,,,,,,,,,,,
,,,,,,,,2023-08-16_09h09.23.165,HF_wild_card,2022.2.4,Win32,60.09615385,6483648c280beabafcb3797e,64d2fd46c836a06233681665,64dc82f2102d4af8cd12707e,,,,,,,decisionTrl,resources/DG.BMP,resources/DB.BMP,Door4,-0.340858834,-0.034808004,1,0,0,2.6226,optionLeft,60,2180,1,41,0,41,0,1,,,,,,,,,,,,,,,,,,,,,,,,,,,,,,,,,,,,,,,
,,,,,,,,2023-08-16_09h09.23.165,HF_wild_card,2022.2.4,Win32,60.09615385,6483648c280beabafcb3797e,64d2fd46c836a06233681665,64dc82f2102d4af8cd12707e,,,,,,,ctch,resources/DBN.BMP,resources/DG.BMP,Door4,0.469811206,0.001626644,1,0,0,1.7449,optionRight,80,2260,1,42,0,42,0,1,,,,,,,,,,,,,,,,,,,,,,,,,,,,,,,,,,,,,,,
,,,,,,,,2023-08-16_09h09.23.165,HF_wild_card,2022.2.4,Win32,60.09615385,6483648c280beabafcb3797e,64d2fd46c836a06233681665,64dc82f2102d4af8cd12707e,,,,,,,decisionTrl,resources/DB.BMP,resources/DG.BMP,Door4,0.275926928,-0.025699313,1,0,0,1.5755,optionRight,80,2340,1,43,0,43,0,1,,,,,,,,,,,,,,,,,,,,,,,,,,,,,,,,,,,,,,,
,,,,,,,,2023-08-16_09h09.23.165,HF_wild_card,2022.2.4,Win32,60.09615385,6483648c280beabafcb3797e,64d2fd46c836a06233681665,64dc82f2102d4af8cd12707e,,,,,,,,,,,,,,,,,,,,,,,,,,0,0,0,0,1,,,,,,,,,,,,,,,,,,,,,,,,,,,,,,,,,,
,,,,,,,,2023-08-16_09h09.23.165,HF_wild_card,2022.2.4,Win32,60.09615385,6483648c280beabafcb3797e,64d2fd46c836a06233681665,64dc82f2102d4af8cd12707e,,,,,,,ctch,resources/DG.BMP,resources/DBN.BMP,Door1,0.337085191,-0.150618067,1,0,0,2.6479,optionRight,30,2370,2,0,0,0,0,1,,,,,,,,,,,,,,,,,,,,,,,,,,,,,,,,,,,,,,,
,,,,,,,,2023-08-16_09h09.23.165,HF_wild_card,2022.2.4,Win32,60.09615385,6483648c280beabafcb3797e,64d2fd46c836a06233681665,64dc82f2102d4af8cd12707e,,,,,,,sngl,resources/Empty.png,resources/DG.BMP,Door4,0.477618639,-0.053025271,1,0,0,1.2234,optionRight,80,2450,2,1,0,1,0,1,,,,,,,,,,,,,,,,,,,,,,,,,,,,,,,,,,,,,,,
,,,,,,,,2023-08-16_09h09.23.165,HF_wild_card,2022.2.4,Win32,60.09615385,6483648c280beabafcb3797e,64d2fd46c836a06233681665,64dc82f2102d4af8cd12707e,,,,,,,ctch,resources/DR.BMP,resources/DB.BMP,Door3,0.396942024,0.028952573,1,0,0,3.6252,optionRight,70,2520,2,2,0,2,0,1,,,,,,,,,,,,,,,,,,,,,,,,,,,,,,,,,,,,,,,
,,,,,,,,2023-08-16_09h09.23.165,HF_wild_card,2022.2.4,Win32,60.09615385,6483648c280beabafcb3797e,64d2fd46c836a06233681665,64dc82f2102d4af8cd12707e,,,,,,,sngl,resources/DBN.BMP,resources/Empty.png,Door1,-0.411125644,0.041964894,1,0,0,1.1478,optionLeft,30,2550,2,3,0,3,0,1,,,,,,,,,,,,,,,,,,,,,,,,,,,,,,,,,,,,,,,
,,,,,,,,2023-08-16_09h09.23.165,HF_wild_card,2022.2.4,Win32,60.09615385,6483648c280beabafcb3797e,64d2fd46c836a06233681665,64dc82f2102d4af8cd12707e,,,,,,,decisionTrl,resources/DB.BMP,resources/DG.BMP,Door4,0.426870324,-0.077748828,1,0,0,1.0809,optionRight,80,2630,2,4,0,4,0,1,,,,,,,,,,,,,,,,,,,,,,,,,,,,,,,,,,,,,,,
,,,,,,,,2023-08-16_09h09.23.165,HF_wild_card,2022.2.4,Win32,60.09615385,6483648c280beabafcb3797e,64d2fd46c836a06233681665,64dc82f2102d4af8cd12707e,,,,,,,sngl,resources/Empty.png,resources/DY.BMP,WildCard_NonEx,0.252504745,-0.028301829,1,0,0,1.0606,optionRight,45,2675,2,5,0,5,0,1,,,,,,,,,,,,,,,,,,,,,,,,,,,,,,,,,,,,,,,
,,,,,,,,2023-08-16_09h09.23.165,HF_wild_card,2022.2.4,Win32,60.09615385,6483648c280beabafcb3797e,64d2fd46c836a06233681665,64dc82f2102d4af8cd12707e,,,,,,,decisionTrl,resources/DR.BMP,resources/DBN.BMP,Door2,-0.347365009,0.004229045,1,0,0,2.0931,optionLeft,40,2715,2,6,0,6,0,1,,,,,,,,,,,,,,,,,,,,,,,,,,,,,,,,,,,,,,,
,,,,,,,,2023-08-16_09h09.23.165,HF_wild_card,2022.2.4,Win32,60.09615385,6483648c280beabafcb3797e,64d2fd46c836a06233681665,64dc82f2102d4af8cd12707e,,,,,,,decisionTrl,resources/DB.BMP,resources/DG.BMP,Door4,0.409954258,-0.017891938,1,0,0,1.1734,optionRight,60,2775,2,7,0,7,0,1,,,,,,,,,,,,,,,,,,,,,,,,,,,,,,,,,,,,,,,
,,,,,,,,2023-08-16_09h09.23.165,HF_wild_card,2022.2.4,Win32,60.09615385,6483648c280beabafcb3797e,64d2fd46c836a06233681665,64dc82f2102d4af8cd12707e,,,,,,,sngl,resources/Empty.png,resources/DY.BMP,WildCard_NonEx,0.186141795,-0.006180846,1,0,0,1.1923,optionRight,55,2830,2,8,0,8,0,1,,,,,,,,,,,,,,,,,,,,,,,,,,,,,,,,,,,,,,,
,,,,,,,,2023-08-16_09h09.23.165,HF_wild_card,2022.2.4,Win32,60.09615385,6483648c280beabafcb3797e,64d2fd46c836a06233681665,64dc82f2102d4af8cd12707e,,,,,,,decisionTrl,resources/DY.BMP,resources/DB.BMP,WildCard_NonEx,-0.282303202,-0.02439817,1,0,0,2.2375,optionLeft,55,2885,2,9,0,9,0,1,,,,,,,,,,,,,,,,,,,,,,,,,,,,,,,,,,,,,,,
,,,,,,,,2023-08-16_09h09.23.165,HF_wild_card,2022.2.4,Win32,60.09615385,6483648c280beabafcb3797e,64d2fd46c836a06233681665,64dc82f2102d4af8cd12707e,,,,,,,decisionTrl,resources/DR.BMP,resources/DBN.BMP,Door2,-0.310930418,-0.016590737,1,0,0,1.4936,optionLeft,40,2925,2,10,0,10,0,1,,,,,,,,,,,,,,,,,,,,,,,,,,,,,,,,,,,,,,,
,,,,,,,,2023-08-16_09h09.23.165,HF_wild_card,2022.2.4,Win32,60.09615385,6483648c280beabafcb3797e,64d2fd46c836a06233681665,64dc82f2102d4af8cd12707e,,,,,,,decisionTrl,resources/DY.BMP,resources/DBN.BMP,WildCard_NonEx,-0.310930418,-0.000975872,1,0,0,1.7185,optionLeft,55,2980,2,11,0,11,0,1,,,,,,,,,,,,,,,,,,,,,,,,,,,,,,,,,,,,,,,
,,,,,,,,2023-08-16_09h09.23.165,HF_wild_card,2022.2.4,Win32,60.09615385,6483648c280beabafcb3797e,64d2fd46c836a06233681665,64dc82f2102d4af8cd12707e,,,,,,,ctch,resources/DBN.BMP,resources/DG.BMP,Door4,0.390435791,-0.006180846,1,0,0,1.4136,optionRight,80,3060,2,12,0,12,0,1,,,,,,,,,,,,,,,,,,,,,,,,,,,,,,,,,,,,,,,
,,,,,,,,2023-08-16_09h09.23.165,HF_wild_card,2022.2.4,Win32,60.09615385,6483648c280beabafcb3797e,64d2fd46c836a06233681665,64dc82f2102d4af8cd12707e,,,,,,,decisionTrl,resources/DBN.BMP,resources/DR.BMP,Door2,0.365712292,0.013337679,1,0,0,4.548,optionRight,20,3080,2,13,0,13,0,1,,,,,,,,,,,,,,,,,,,,,,,,,,,,,,,,,,,,,,,
,,,,,,,,2023-08-16_09h09.23.165,HF_wild_card,2022.2.4,Win32,60.09615385,6483648c280beabafcb3797e,64d2fd46c836a06233681665,64dc82f2102d4af8cd12707e,,,,,,,sngl,resources/Empty.png,resources/DR.BMP,Door2,0.386532075,-0.00227713,1,0,0,1.0877,optionRight,40,3120,2,14,0,14,0,1,,,,,,,,,,,,,,,,,,,,,,,,,,,,,,,,,,,,,,,
,,,,,,,,2023-08-16_09h09.23.165,HF_wild_card,2022.2.4,Win32,60.09615385,6483648c280beabafcb3797e,64d2fd46c836a06233681665,64dc82f2102d4af8cd12707e,,,,,,,sngl,resources/DR.BMP,resources/Empty.png,Door2,-0.493103517,-0.036109205,1,0,0,0.9764,optionLeft,20,3140,2,15,0,15,0,1,,,,,,,,,,,,,,,,,,,,,,,,,,,,,,,,,,,,,,,
,,,,,,,,2023-08-16_09h09.23.165,HF_wild_card,2022.2.4,Win32,60.09615385,6483648c280beabafcb3797e,64d2fd46c836a06233681665,64dc82f2102d4af8cd12707e,,,,,,,decisionTrl,resources/DG.BMP,resources/DB.BMP,Door4,0.015679759,-0.00227713,1,0,0,3.1963,optionLeft,80,3220,2,16,0,16,0,1,,,,,,,,,,,,,,,,,,,,,,,,,,,,,,,,,,,,,,,
,,,,,,,,2023-08-16_09h09.23.165,HF_wild_card,2022.2.4,Win32,60.09615385,6483648c280beabafcb3797e,64d2fd46c836a06233681665,64dc82f2102d4af8cd12707e,,,,,,,decisionTrl,resources/DY.BMP,resources/DR.BMP,WildCard_NonEx,-0.342160149,0.004229045,1,0,0,2.366,optionLeft,45,3265,2,17,0,17,0,1,,,,,,,,,,,,,,,,,,,,,,,,,,,,,,,,,,,,,,,
,,,,,,,,2023-08-16_09h09.23.165,HF_wild_card,2022.2.4,Win32,60.09615385,6483648c280beabafcb3797e,64d2fd46c836a06233681665,64dc82f2102d4af8cd12707e,,,,,,,decisionTrl,resources/DG.BMP,resources/DB.BMP,Door4,-0.265387136,-0.017891938,1,0,0,1.7022,optionLeft,60,3325,2,18,0,18,0,1,,,,,,,,,,,,,,,,,,,,,,,,,,,,,,,,,,,,,,,
,,,,,,,,2023-08-16_09h09.23.165,HF_wild_card,2022.2.4,Win32,60.09615385,6483648c280beabafcb3797e,64d2fd46c836a06233681665,64dc82f2102d4af8cd12707e,,,,,,,sngl,resources/Empty.png,resources/DB.BMP,Door3,0.417761806,0.008132762,1,0,0,1.295,optionRight,70,3395,2,19,0,19,0,1,,,,,,,,,,,,,,,,,,,,,,,,,,,,,,,,,,,,,,,
,,,,,,,,2023-08-16_09h09.23.165,HF_wild_card,2022.2.4,Win32,60.09615385,6483648c280beabafcb3797e,64d2fd46c836a06233681665,64dc82f2102d4af8cd12707e,,,,,,,decisionTrl,resources/DR.BMP,resources/DBN.BMP,Door1,0.301951743,0.025048828,1,0,0,3.5661,optionRight,30,3425,2,20,0,20,0,1,,,,,,,,,,,,,,,,,,,,,,,,,,,,,,,,,,,,,,,
,,,,,,,,2023-08-16_09h09.23.165,HF_wild_card,2022.2.4,Win32,60.09615385,6483648c280beabafcb3797e,64d2fd46c836a06233681665,64dc82f2102d4af8cd12707e,,,,,,,decisionTrl,resources/DBN.BMP,resources/DR.BMP,Door2,0.337085191,-0.03741052,1,0,0,2.4555,optionRight,40,3465,2,21,0,21,0,1,,,,,,,,,,,,,,,,,,,,,,,,,,,,,,,,,,,,,,,
,,,,,,,,2023-08-16_09h09.23.165,HF_wild_card,2022.2.4,Win32,60.09615385,6483648c280beabafcb3797e,64d2fd46c836a06233681665,64dc82f2102d4af8cd12707e,,,,,,,decisionTrl,resources/DG.BMP,resources/DB.BMP,Door4,-0.29661681,-0.023096912,1,0,0,1.4435,optionLeft,60,3525,2,22,0,22,0,1,,,,,,,,,,,,,,,,,,,,,,,,,,,,,,,,,,,,,,,
,,,,,,,,2023-08-16_09h09.23.165,HF_wild_card,2022.2.4,Win32,60.09615385,6483648c280beabafcb3797e,64d2fd46c836a06233681665,64dc82f2102d4af8cd12707e,,,,,,,decisionTrl,resources/DG.BMP,resources/DB.BMP,Door4,-0.318737908,-0.010084562,1,0,0,1.3075,optionLeft,80,3605,2,23,0,23,0,1,,,,,,,,,,,,,,,,,,,,,,,,,,,,,,,,,,,,,,,
,,,,,,,,2023-08-16_09h09.23.165,HF_wild_card,2022.2.4,Win32,60.09615385,6483648c280beabafcb3797e,64d2fd46c836a06233681665,64dc82f2102d4af8cd12707e,,,,,,,sngl,resources/DB.BMP,resources/Empty.png,Door3,-0.378594683,-0.020494454,1,0,0,1.1609,optionLeft,70,3675,2,24,0,24,0,1,,,,,,,,,,,,,,,,,,,,,,,,,,,,,,,,,,,,,,,
,,,,,,,,2023-08-16_09h09.23.165,HF_wild_card,2022.2.4,Win32,60.09615385,6483648c280beabafcb3797e,64d2fd46c836a06233681665,64dc82f2102d4af8cd12707e,,,,,,,decisionTrl,resources/DB.BMP,resources/DG.BMP,Door4,0.489329788,-0.032205546,1,0,0,1.4955,optionRight,60,3735,2,25,0,25,0,1,,,,,,,,,,,,,,,,,,,,,,,,,,,,,,,,,,,,,,,
,,,,,,,,2023-08-16_09h09.23.165,HF_wild_card,2022.2.4,Win32,60.09615385,6483648c280beabafcb3797e,64d2fd46c836a06233681665,64dc82f2102d4af8cd12707e,,,,,,,sngl,resources/DY.BMP,resources/Empty.png,WildCard_NonEx,-0.422836764,-0.02439817,1,0,0,1.0423,optionLeft,45,3780,2,26,0,26,0,1,,,,,,,,,,,,,,,,,,,,,,,,,,,,,,,,,,,,,,,
,,,,,,,,2023-08-16_09h09.23.165,HF_wild_card,2022.2.4,Win32,60.09615385,6483648c280beabafcb3797e,64d2fd46c836a06233681665,64dc82f2102d4af8cd12707e,,,,,,,sngl,resources/DY.BMP,resources/Empty.png,WildCard_NonEx,-0.431945369,-0.004879588,1,0,0,1.0376,optionLeft,55,3835,2,27,0,27,0,1,,,,,,,,,,,,,,,,,,,,,,,,,,,,,,,,,,,,,,,
,,,,,,,,2023-08-16_09h09.23.165,HF_wild_card,2022.2.4,Win32,60.09615385,6483648c280beabafcb3797e,64d2fd46c836a06233681665,64dc82f2102d4af8cd12707e,,,,,,,decisionTrl,resources/DBN.BMP,resources/DR.BMP,Door1,-0.420234248,0.014638937,1,0,0,4.3986,optionLeft,30,3865,2,28,0,28,0,1,,,,,,,,,,,,,,,,,,,,,,,,,,,,,,,,,,,,,,,
,,,,,,,,2023-08-16_09h09.23.165,HF_wild_card,2022.2.4,Win32,60.09615385,6483648c280beabafcb3797e,64d2fd46c836a06233681665,64dc82f2102d4af8cd12707e,,,,,,,ctch,resources/DG.BMP,resources/DBN.BMP,Door4,-0.327846484,0.00943402,1,0,0,2.0304,optionLeft,80,3945,2,29,0,29,0,1,,,,,,,,,,,,,,,,,,,,,,,,,,,,,,,,,,,,,,,
,,,,,,,,2023-08-16_09h09.23.165,HF_wild_card,2022.2.4,Win32,60.09615385,6483648c280beabafcb3797e,64d2fd46c836a06233681665,64dc82f2102d4af8cd12707e,,,,,,,decisionTrl,resources/DR.BMP,resources/DBN.BMP,Door1,0.389134475,0.006831504,1,0,0,1.7548,optionRight,30,3975,2,30,0,30,0,1,,,,,,,,,,,,,,,,,,,,,,,,,,,,,,,,,,,,,,,
,,,,,,,,2023-08-16_09h09.23.165,HF_wild_card,2022.2.4,Win32,60.09615385,6483648c280beabafcb3797e,64d2fd46c836a06233681665,64dc82f2102d4af8cd12707e,,,,,,,decisionTrl,resources/DG.BMP,resources/DY.BMP,Door4,-0.308328017,-0.016590737,1,0,0,1.1786,optionLeft,80,4055,2,31,0,31,0,1,,,,,,,,,,,,,,,,,,,,,,,,,,,,,,,,,,,,,,,
,,,,,,,,2023-08-16_09h09.23.165,HF_wild_card,2022.2.4,Win32,60.09615385,6483648c280beabafcb3797e,64d2fd46c836a06233681665,64dc82f2102d4af8cd12707e,,,,,,,ctch,resources/DB.BMP,resources/DR.BMP,Door3,-0.361678617,-0.013988279,1,0,0,2.8182,optionLeft,70,4125,2,32,0,32,0,1,,,,,,,,,,,,,,,,,,,,,,,,,,,,,,,,,,,,,,,
,,,,,,,,2023-08-16_09h09.23.165,HF_wild_card,2022.2.4,Win32,60.09615385,6483648c280beabafcb3797e,64d2fd46c836a06233681665,64dc82f2102d4af8cd12707e,,,,,,,decisionTrl,resources/DBN.BMP,resources/DY.BMP,WildCard_NonEx,0.399544424,-0.041314237,1,0,0,1.7203,optionRight,55,4180,2,33,0,33,0,1,,,,,,,,,,,,,,,,,,,,,,,,,,,,,,,,,,,,,,,
,,,,,,,,2023-08-16_09h09.23.165,HF_wild_card,2022.2.4,Win32,60.09615385,6483648c280beabafcb3797e,64d2fd46c836a06233681665,64dc82f2102d4af8cd12707e,,,,,,,sngl,resources/Empty.png,resources/DBN.BMP,Door1,0.29414431,0.001626644,1,0,0,1.1865,optionRight,30,4210,2,34,0,34,0,1,,,,,,,,,,,,,,,,,,,,,,,,,,,,,,,,,,,,,,,
,,,,,,,,2023-08-16_09h09.23.165,HF_wild_card,2022.2.4,Win32,60.09615385,6483648c280beabafcb3797e,64d2fd46c836a06233681665,64dc82f2102d4af8cd12707e,,,,,,,decisionTrl,resources/DB.BMP,resources/DG.BMP,Door4,0.386532075,-0.058230303,1,0,0,1.4988,optionRight,60,4270,2,35,0,35,0,1,,,,,,,,,,,,,,,,,,,,,,,,,,,,,,,,,,,,,,,
,,,,,,,,2023-08-16_09h09.23.165,HF_wild_card,2022.2.4,Win32,60.09615385,6483648c280beabafcb3797e,64d2fd46c836a06233681665,64dc82f2102d4af8cd12707e,,,,,,,decisionTrl,resources/DR.BMP,resources/DY.BMP,WildCard_NonEx,0.408653173,-0.027000629,1,0,0,1.934,optionRight,55,4325,2,36,0,36,0,1,,,,,,,,,,,,,,,,,,,,,,,,,,,,,,,,,,,,,,,
,,,,,,,,2023-08-16_09h09.23.165,HF_wild_card,2022.2.4,Win32,60.09615385,6483648c280beabafcb3797e,64d2fd46c836a06233681665,64dc82f2102d4af8cd12707e,,,,,,,sngl,resources/DG.BMP,resources/Empty.png,Door4,-0.443656547,0.001626644,1,0,0,1.0039,optionLeft,60,4385,2,37,0,37,0,1,,,,,,,,,,,,,,,,,,,,,,,,,,,,,,,,,,,,,,,
,,,,,,,,2023-08-16_09h09.23.165,HF_wild_card,2022.2.4,Win32,60.09615385,6483648c280beabafcb3797e,64d2fd46c836a06233681665,64dc82f2102d4af8cd12707e,,,,,,,ctch,resources/DBN.BMP,resources/DG.BMP,Door4,0.439882674,-0.043916695,1,0,0,1.1794,optionRight,80,4465,2,38,0,38,0,1,,,,,,,,,,,,,,,,,,,,,,,,,,,,,,,,,,,,,,,
,,,,,,,,2023-08-16_09h09.23.165,HF_wild_card,2022.2.4,Win32,60.09615385,6483648c280beabafcb3797e,64d2fd46c836a06233681665,64dc82f2102d4af8cd12707e,,,,,,,ctch,resources/DB.BMP,resources/DR.BMP,Door3,-0.434547885,-0.021795654,1,0,0,1.7101,optionLeft,70,4535,2,39,0,39,0,1,,,,,,,,,,,,,,,,,,,,,,,,,,,,,,,,,,,,,,,
,,,,,,,,2023-08-16_09h09.23.165,HF_wild_card,2022.2.4,Win32,60.09615385,6483648c280beabafcb3797e,64d2fd46c836a06233681665,64dc82f2102d4af8cd12707e,,,,,,,decisionTrl,resources/DY.BMP,resources/DG.BMP,Door4,0.381327042,-0.019193138,1,0,0,1.0089,optionRight,60,4595,2,40,0,40,0,1,,,,,,,,,,,,,,,,,,,,,,,,,,,,,,,,,,,,,,,
,,,,,,,,2023-08-16_09h09.23.165,HF_wild_card,2022.2.4,Win32,60.09615385,6483648c280beabafcb3797e,64d2fd46c836a06233681665,64dc82f2102d4af8cd12707e,,,,,,,decisionTrl,resources/DB.BMP,resources/DY.BMP,Door3,-0.281002059,-0.079050086,1,0,0,6.0223,optionLeft,70,4665,2,41,0,41,0,1,,,,,,,,,,,,,,,,,,,,,,,,,,,,,,,,,,,,,,,
,,,,,,,,2023-08-16_09h09.23.165,HF_wild_card,2022.2.4,Win32,60.09615385,6483648c280beabafcb3797e,64d2fd46c836a06233681665,64dc82f2102d4af8cd12707e,,,,,,,decisionTrl,resources/DBN.BMP,resources/DR.BMP,Door1,-0.274495827,-0.008783247,1,0,0,3.3443,optionLeft,30,4695,2,42,0,42,0,1,,,,,,,,,,,,,,,,,,,,,,,,,,,,,,,,,,,,,,,
,,,,,,,,2023-08-16_09h09.23.165,HF_wild_card,2022.2.4,Win32,60.09615385,6483648c280beabafcb3797e,64d2fd46c836a06233681665,64dc82f2102d4af8cd12707e,,,,,,,ctch,resources/DR.BMP,resources/DB.BMP,Door3,0.385230759,-0.086857461,1,0,0,2.3849,optionRight,70,4765,2,43,0,43,0,1,,,,,,,,,,,,,,,,,,,,,,,,,,,,,,,,,,,,,,,
,,,,,,,,2023-08-16_09h09.23.165,HF_wild_card,2022.2.4,Win32,60.09615385,6483648c280beabafcb3797e,64d2fd46c836a06233681665,64dc82f2102d4af8cd12707e,,,,,,,,,,,,,,,,,,,,,,,,,,1,0,1,0,1,,,,,,,,,,,,,,,,,,,,,,,,,,,,,,,,,,
,,,,,,,,2023-08-16_09h09.23.165,HF_wild_card,2022.2.4,Win32,60.09615385,6483648c280beabafcb3797e,64d2fd46c836a06233681665,64dc82f2102d4af8cd12707e,,,,,,,decisionTrl,resources/DB.BMP,resources/DY.BMP,Door3,-0.301821784,-0.008783247,1,0,0,5.9769,optionLeft,70,4835,3,0,0,0,0,1,,,,,,,,,,,,,,,,,,,,,,,,,,,,,,,,,,,,,,,
,,,,,,,,2023-08-16_09h09.23.165,HF_wild_card,2022.2.4,Win32,60.09615385,6483648c280beabafcb3797e,64d2fd46c836a06233681665,64dc82f2102d4af8cd12707e,,,,,,,decisionTrl,resources/DB.BMP,resources/DG.BMP,Door4,0.363109891,-0.034808004,1,0,0,1.2876,optionRight,80,4915,3,1,0,1,0,1,,,,,,,,,,,,,,,,,,,,,,,,,,,,,,,,,,,,,,,
,,,,,,,,2023-08-16_09h09.23.165,HF_wild_card,2022.2.4,Win32,60.09615385,6483648c280beabafcb3797e,64d2fd46c836a06233681665,64dc82f2102d4af8cd12707e,,,,,,,decisionTrl,resources/DBN.BMP,resources/DR.BMP,Door1,-0.396812007,-0.003578388,1,0,0,2.8947,optionLeft,30,4945,3,2,0,2,0,1,,,,,,,,,,,,,,,,,,,,,,,,,,,,,,,,,,,,,,,
,,,,,,,,2023-08-16_09h09.23.165,HF_wild_card,2022.2.4,Win32,60.09615385,6483648c280beabafcb3797e,64d2fd46c836a06233681665,64dc82f2102d4af8cd12707e,,,,,,,sngl,resources/Empty.png,resources/DY.BMP,WildCard_NonEx,0.472413722,0.000325329,1,0,0,1.2745,optionRight,45,4990,3,3,0,3,0,1,,,,,,,,,,,,,,,,,,,,,,,,,,,,,,,,,,,,,,,
,,,,,,,,2023-08-16_09h09.23.165,HF_wild_card,2022.2.4,Win32,60.09615385,6483648c280beabafcb3797e,64d2fd46c836a06233681665,64dc82f2102d4af8cd12707e,,,,,,,decisionTrl,resources/DR.BMP,resources/DBN.BMP,Door2,-0.25757976,-0.101171011,1,0,0,2.9969,optionLeft,40,5030,3,4,0,4,0,1,,,,,,,,,,,,,,,,,,,,,,,,,,,,,,,,,,,,,,,
,,,,,,,,2023-08-16_09h09.23.165,HF_wild_card,2022.2.4,Win32,60.09615385,6483648c280beabafcb3797e,64d2fd46c836a06233681665,64dc82f2102d4af8cd12707e,,,,,,,sngl,resources/Empty.png,resources/DY.BMP,WildCard_NonEx,0.351398626,-0.046519096,1,0,0,0.8942,optionRight,55,5085,3,5,0,5,0,1,,,,,,,,,,,,,,,,,,,,,,,,,,,,,,,,,,,,,,,
,,,,,,,,2023-08-16_09h09.23.165,HF_wild_card,2022.2.4,Win32,60.09615385,6483648c280beabafcb3797e,64d2fd46c836a06233681665,64dc82f2102d4af8cd12707e,,,,,,,decisionTrl,resources/DBN.BMP,resources/DR.BMP,Door2,0.34749491,-0.02439817,1,0,0,2.1708,optionRight,20,5105,3,6,0,6,0,1,,,,,,,,,,,,,,,,,,,,,,,,,,,,,,,,,,,,,,,
,,,,,,,,2023-08-16_09h09.23.165,HF_wild_card,2022.2.4,Win32,60.09615385,6483648c280beabafcb3797e,64d2fd46c836a06233681665,64dc82f2102d4af8cd12707e,,,,,,,ctch,resources/DR.BMP,resources/DB.BMP,Door3,0.456798856,-0.099869811,1,0,0,1.1836,optionRight,70,5175,3,7,0,7,0,1,,,,,,,,,,,,,,,,,,,,,,,,,,,,,,,,,,,,,,,
,,,,,,,,2023-08-16_09h09.23.165,HF_wild_card,2022.2.4,Win32,60.09615385,6483648c280beabafcb3797e,64d2fd46c836a06233681665,64dc82f2102d4af8cd12707e,,,,,,,sngl,resources/Empty.png,resources/DG.BMP,Door4,0.283734476,-0.038711721,1,0,0,0.8412,optionRight,60,5235,3,8,0,8,0,1,,,,,,,,,,,,,,,,,,,,,,,,,,,,,,,,,,,,,,,
,,,,,,,,2023-08-16_09h09.23.165,HF_wild_card,2022.2.4,Win32,60.09615385,6483648c280beabafcb3797e,64d2fd46c836a06233681665,64dc82f2102d4af8cd12707e,,,,,,,decisionTrl,resources/DR.BMP,resources/DY.BMP,WildCard_NonEx,0.493233504,-0.103773527,1,0,0,1.5893,optionRight,45,5280,3,9,0,9,0,1,,,,,,,,,,,,,,,,,,,,,,,,,,,,,,,,,,,,,,,
,,,,,,,,2023-08-16_09h09.23.165,HF_wild_card,2022.2.4,Win32,60.09615385,6483648c280beabafcb3797e,64d2fd46c836a06233681665,64dc82f2102d4af8cd12707e,,,,,,,decisionTrl,resources/DB.BMP,resources/DG.BMP,Door4,0.312361692,-0.112882218,1,0,0,1.153,optionRight,80,5360,3,10,0,10,0,1,,,,,,,,,,,,,,,,,,,,,,,,,,,,,,,,,,,,,,,
,,,,,,,,2023-08-16_09h09.23.165,HF_wild_card,2022.2.4,Win32,60.09615385,6483648c280beabafcb3797e,64d2fd46c836a06233681665,64dc82f2102d4af8cd12707e,,,,,,,decisionTrl,resources/DR.BMP,resources/DBN.BMP,Door2,-0.015549915,-0.000975872,1,0,0,4.0596,optionLeft,40,5400,3,11,0,11,0,1,,,,,,,,,,,,,,,,,,,,,,,,,,,,,,,,,,,,,,,
,,,,,,,,2023-08-16_09h09.23.165,HF_wild_card,2022.2.4,Win32,60.09615385,6483648c280beabafcb3797e,64d2fd46c836a06233681665,64dc82f2102d4af8cd12707e,,,,,,,decisionTrl,resources/DG.BMP,resources/DB.BMP,Door4,-0.399414466,-0.072543853,1,0,0,1.3465,optionLeft,80,5480,3,12,0,12,0,1,,,,,,,,,,,,,,,,,,,,,,,,,,,,,,,,,,,,,,,
,,,,,,,,2023-08-16_09h09.23.165,HF_wild_card,2022.2.4,Win32,60.09615385,6483648c280beabafcb3797e,64d2fd46c836a06233681665,64dc82f2102d4af8cd12707e,,,,,,,ctch,resources/DBN.BMP,resources/DG.BMP,Door4,0.49583579,-0.110279702,1,0,0,1.0509,optionRight,80,5560,3,13,0,13,0,1,,,,,,,,,,,,,,,,,,,,,,,,,,,,,,,,,,,,,,,
,,,,,,,,2023-08-16_09h09.23.165,HF_wild_card,2022.2.4,Win32,60.09615385,6483648c280beabafcb3797e,64d2fd46c836a06233681665,64dc82f2102d4af8cd12707e,,,,,,,ctch,resources/DR.BMP,resources/DB.BMP,Door3,0.324072841,-0.095966152,1,0,0,1.8473,optionRight,70,5630,3,14,0,14,0,1,,,,,,,,,,,,,,,,,,,,,,,,,,,,,,,,,,,,,,,
,,,,,,,,2023-08-16_09h09.23.165,HF_wild_card,2022.2.4,Win32,60.09615385,6483648c280beabafcb3797e,64d2fd46c836a06233681665,64dc82f2102d4af8cd12707e,,,,,,,sngl,resources/DG.BMP,resources/Empty.png,Door4,-0.3577749,-0.015289422,1,0,0,0.8571,optionLeft,80,5710,3,15,0,15,0,1,,,,,,,,,,,,,,,,,,,,,,,,,,,,,,,,,,,,,,,
,,,,,,,,2023-08-16_09h09.23.165,HF_wild_card,2022.2.4,Win32,60.09615385,6483648c280beabafcb3797e,64d2fd46c836a06233681665,64dc82f2102d4af8cd12707e,,,,,,,ctch,resources/DG.BMP,resources/DBN.BMP,Door4,-0.39030589,-0.063435162,1,0,0,1.146,optionLeft,80,5790,3,16,0,16,0,1,,,,,,,,,,,,,,,,,,,,,,,,,,,,,,,,,,,,,,,
,,,,,,,,2023-08-16_09h09.23.165,HF_wild_card,2022.2.4,Win32,60.09615385,6483648c280beabafcb3797e,64d2fd46c836a06233681665,64dc82f2102d4af8cd12707e,,,,,,,sngl,resources/DB.BMP,resources/Empty.png,Door3,-0.278399543,0.002927787,1,0,0,1.2749,optionLeft,70,5860,3,17,0,17,0,1,,,,,,,,,,,,,,,,,,,,,,,,,,,,,,,,,,,,,,,
,,,,,,,,2023-08-16_09h09.23.165,HF_wild_card,2022.2.4,Win32,60.09615385,6483648c280beabafcb3797e,64d2fd46c836a06233681665,64dc82f2102d4af8cd12707e,,,,,,,sngl,resources/DR.BMP,resources/Empty.png,Door2,-0.292713093,-0.023096912,1,0,0,1.0451,optionLeft,40,5900,3,18,0,18,0,1,,,,,,,,,,,,,,,,,,,,,,,,,,,,,,,,,,,,,,,
,,,,,,,,2023-08-16_09h09.23.165,HF_wild_card,2022.2.4,Win32,60.09615385,6483648c280beabafcb3797e,64d2fd46c836a06233681665,64dc82f2102d4af8cd12707e,,,,,,,decisionTrl,resources/DBN.BMP,resources/DR.BMP,Door1,-0.295315609,-0.045217896,1,0,0,3.5997,optionLeft,30,5930,3,19,0,19,0,1,,,,,,,,,,,,,,,,,,,,,,,,,,,,,,,,,,,,,,,
,,,,,,,,2023-08-16_09h09.23.165,HF_wild_card,2022.2.4,Win32,60.09615385,6483648c280beabafcb3797e,64d2fd46c836a06233681665,64dc82f2102d4af8cd12707e,,,,,,,ctch,resources/DG.BMP,resources/DBN.BMP,Door4,-0.399414466,-0.038711721,1,0,0,1.3765,optionLeft,60,5990,3,20,0,20,0,1,,,,,,,,,,,,,,,,,,,,,,,,,,,,,,,,,,,,,,,
,,,,,,,,2023-08-16_09h09.23.165,HF_wild_card,2022.2.4,Win32,60.09615385,6483648c280beabafcb3797e,64d2fd46c836a06233681665,64dc82f2102d4af8cd12707e,,,,,,,decisionTrl,resources/DY.BMP,resources/DG.BMP,Door4,0.481522355,-0.063435162,1,0,0,0.9341,optionRight,60,6050,3,21,0,21,0,1,,,,,,,,,,,,,,,,,,,,,,,,,,,,,,,,,,,,,,,
,,,,,,,,2023-08-16_09h09.23.165,HF_wild_card,2022.2.4,Win32,60.09615385,6483648c280beabafcb3797e,64d2fd46c836a06233681665,64dc82f2102d4af8cd12707e,,,,,,,decisionTrl,resources/DG.BMP,resources/DY.BMP,Door4,-0.338256375,-0.015289422,1,0,0,1.1091,optionLeft,60,6110,3,22,0,22,0,1,,,,,,,,,,,,,,,,,,,,,,,,,,,,,,,,,,,,,,,
,,,,,,,,2023-08-16_09h09.23.165,HF_wild_card,2022.2.4,Win32,60.09615385,6483648c280beabafcb3797e,64d2fd46c836a06233681665,64dc82f2102d4af8cd12707e,,,,,,,decisionTrl,resources/DBN.BMP,resources/DY.BMP,WildCard_NonEx,0.344892509,-0.093363636,1,0,0,1.2042,optionRight,55,6165,3,23,0,23,0,1,,,,,,,,,,,,,,,,,,,,,,,,,,,,,,,,,,,,,,,
,,,,,,,,2023-08-16_09h09.23.165,HF_wild_card,2022.2.4,Win32,60.09615385,6483648c280beabafcb3797e,64d2fd46c836a06233681665,64dc82f2102d4af8cd12707e,,,,,,,sngl,resources/Empty.png,resources/DB.BMP,Door3,0.298048027,-0.059531503,1,0,0,1.1917,optionRight,70,6235,3,24,0,24,0,1,,,,,,,,,,,,,,,,,,,,,,,,,,,,,,,,,,,,,,,
,,,,,,,,2023-08-16_09h09.23.165,HF_wild_card,2022.2.4,Win32,60.09615385,6483648c280beabafcb3797e,64d2fd46c836a06233681665,64dc82f2102d4af8cd12707e,,,,,,,decisionTrl,resources/DG.BMP,resources/DB.BMP,Door4,-0.318737908,-0.041314237,1,0,0,4.0001,optionLeft,60,6295,3,25,0,25,0,1,,,,,,,,,,,,,,,,,,,,,,,,,,,,,,,,,,,,,,,
,,,,,,,,2023-08-16_09h09.23.165,HF_wild_card,2022.2.4,Win32,60.09615385,6483648c280beabafcb3797e,64d2fd46c836a06233681665,64dc82f2102d4af8cd12707e,,,,,,,decisionTrl,resources/DBN.BMP,resources/DR.BMP,Door2,0.350097541,-0.060832761,1,0,0,4.3141,optionRight,40,6335,3,26,0,26,0,1,,,,,,,,,,,,,,,,,,,,,,,,,,,,,,,,,,,,,,,
,,,,,,,,2023-08-16_09h09.23.165,HF_wild_card,2022.2.4,Win32,60.09615385,6483648c280beabafcb3797e,64d2fd46c836a06233681665,64dc82f2102d4af8cd12707e,,,,,,,decisionTrl,resources/DB.BMP,resources/DG.BMP,Door4,0.42817164,-0.110279702,1,0,0,2.0399,optionRight,80,6415,3,27,0,27,0,1,,,,,,,,,,,,,,,,,,,,,,,,,,,,,,,,,,,,,,,
,,,,,,,,2023-08-16_09h09.23.165,HF_wild_card,2022.2.4,Win32,60.09615385,6483648c280beabafcb3797e,64d2fd46c836a06233681665,64dc82f2102d4af8cd12707e,,,,,,,sngl,resources/Empty.png,resources/DR.BMP,Door2,0.30715666,-0.043916695,1,0,0,1.0183,optionRight,20,6435,3,28,0,28,0,1,,,,,,,,,,,,,,,,,,,,,,,,,,,,,,,,,,,,,,,
,,,,,,,,2023-08-16_09h09.23.165,HF_wild_card,2022.2.4,Win32,60.09615385,6483648c280beabafcb3797e,64d2fd46c836a06233681665,64dc82f2102d4af8cd12707e,,,,,,,decisionTrl,resources/DY.BMP,resources/DR.BMP,WildCard_NonEx,-0.490501001,-0.047820412,1,0,0,9.5515,optionLeft,55,6490,3,29,0,29,0,1,,,,,,,,,,,,,,,,,,,,,,,,,,,,,,,,,,,,,,,
,,,,,,,,2023-08-16_09h09.23.165,HF_wild_card,2022.2.4,Win32,60.09615385,6483648c280beabafcb3797e,64d2fd46c836a06233681665,64dc82f2102d4af8cd12707e,,,,,,,sngl,resources/DY.BMP,resources/Empty.png,WildCard_NonEx,-0.361678617,-0.049121612,1,0,0,0.7711,optionLeft,55,6545,3,30,0,30,0,1,,,,,,,,,,,,,,,,,,,,,,,,,,,,,,,,,,,,,,,
,,,,,,,,2023-08-16_09h09.23.165,HF_wild_card,2022.2.4,Win32,60.09615385,6483648c280beabafcb3797e,64d2fd46c836a06233681665,64dc82f2102d4af8cd12707e,,,,,,,decisionTrl,resources/DB.BMP,resources/DG.BMP,Door4,0.504944654,-0.13760566,1,0,0,1.0106,optionRight,80,6625,3,31,0,31,0,1,,,,,,,,,,,,,,,,,,,,,,,,,,,,,,,,,,,,,,,
,,,,,,,,2023-08-16_09h09.23.165,HF_wild_card,2022.2.4,Win32,60.09615385,6483648c280beabafcb3797e,64d2fd46c836a06233681665,64dc82f2102d4af8cd12707e,,,,,,,decisionTrl,resources/DG.BMP,resources/DB.BMP,Door4,-0.329147742,-0.05042287,1,0,0,0.9087,optionLeft,80,6705,3,32,0,32,0,1,,,,,,,,,,,,,,,,,,,,,,,,,,,,,,,,,,,,,,,
,,,,,,,,2023-08-16_09h09.23.165,HF_wild_card,2022.2.4,Win32,60.09615385,6483648c280beabafcb3797e,64d2fd46c836a06233681665,64dc82f2102d4af8cd12707e,,,,,,,sngl,resources/DBN.BMP,resources/Empty.png,Door1,-0.418933019,0.036759949,1,0,0,1.1899,optionLeft,30,6735,3,33,0,33,0,1,,,,,,,,,,,,,,,,,,,,,,,,,,,,,,,,,,,,,,,
,,,,,,,,2023-08-16_09h09.23.165,HF_wild_card,2022.2.4,Win32,60.09615385,6483648c280beabafcb3797e,64d2fd46c836a06233681665,64dc82f2102d4af8cd12707e,,,,,,,sngl,resources/DY.BMP,resources/Empty.png,WildCard_NonEx,-0.368184791,-0.029603087,1,0,0,0.8651,optionLeft,45,6780,3,34,0,34,0,1,,,,,,,,,,,,,,,,,,,,,,,,,,,,,,,,,,,,,,,
,,,,,,,,2023-08-16_09h09.23.165,HF_wild_card,2022.2.4,Win32,60.09615385,6483648c280beabafcb3797e,64d2fd46c836a06233681665,64dc82f2102d4af8cd12707e,,,,,,,decisionTrl,resources/DR.BMP,resources/DBN.BMP,Door1,0.395640823,-0.088158719,1,0,0,2.9609,optionRight,30,6810,3,35,0,35,0,1,,,,,,,,,,,,,,,,,,,,,,,,,,,,,,,,,,,,,,,
,,,,,,,,2023-08-16_09h09.23.165,HF_wild_card,2022.2.4,Win32,60.09615385,6483648c280beabafcb3797e,64d2fd46c836a06233681665,64dc82f2102d4af8cd12707e,,,,,,,ctch,resources/DB.BMP,resources/DR.BMP,Door3,-0.411125644,-0.092062436,1,0,0,1.3248,optionLeft,70,6880,3,36,0,36,0,1,,,,,,,,,,,,,,,,,,,,,,,,,,,,,,,,,,,,,,,
,,,,,,,,2023-08-16_09h09.23.165,HF_wild_card,2022.2.4,Win32,60.09615385,6483648c280beabafcb3797e,64d2fd46c836a06233681665,64dc82f2102d4af8cd12707e,,,,,,,decisionTrl,resources/DR.BMP,resources/DBN.BMP,Door2,-0.400715781,-0.034808004,1,0,0,3.1944,optionLeft,20,6900,3,37,0,37,0,1,,,,,,,,,,,,,,,,,,,,,,,,,,,,,,,,,,,,,,,
,,,,,,,,2023-08-16_09h09.23.165,HF_wild_card,2022.2.4,Win32,60.09615385,6483648c280beabafcb3797e,64d2fd46c836a06233681665,64dc82f2102d4af8cd12707e,,,,,,,decisionTrl,resources/DY.BMP,resources/DB.BMP,Door3,0.407351857,-0.028301829,1,0,0,2.7719,optionRight,70,6970,3,38,0,38,0,1,,,,,,,,,,,,,,,,,,,,,,,,,,,,,,,,,,,,,,,
,,,,,,,,2023-08-16_09h09.23.165,HF_wild_card,2022.2.4,Win32,60.09615385,6483648c280beabafcb3797e,64d2fd46c836a06233681665,64dc82f2102d4af8cd12707e,,,,,,,decisionTrl,resources/DG.BMP,resources/DB.BMP,Door4,-0.300520526,-0.020494454,1,0,0,1.2172,optionLeft,60,7030,3,39,0,39,0,1,,,,,,,,,,,,,,,,,,,,,,,,,,,,,,,,,,,,,,,
,,,,,,,,2023-08-16_09h09.23.165,HF_wild_card,2022.2.4,Win32,60.09615385,6483648c280beabafcb3797e,64d2fd46c836a06233681665,64dc82f2102d4af8cd12707e,,,,,,,ctch,resources/DB.BMP,resources/DR.BMP,Door3,-0.396812007,-0.006180846,1,0,0,1.7871,optionLeft,70,7100,3,40,0,40,0,1,,,,,,,,,,,,,,,,,,,,,,,,,,,,,,,,,,,,,,,
,,,,,,,,2023-08-16_09h09.23.165,HF_wild_card,2022.2.4,Win32,60.09615385,6483648c280beabafcb3797e,64d2fd46c836a06233681665,64dc82f2102d4af8cd12707e,,,,,,,ctch,resources/DBN.BMP,resources/DG.BMP,Door4,0.326675127,-0.049121612,1,0,0,1.5474,optionRight,80,7180,3,41,0,41,0,1,,,,,,,,,,,,,,,,,,,,,,,,,,,,,,,,,,,,,,,
,,,,,,,,2023-08-16_09h09.23.165,HF_wild_card,2022.2.4,Win32,60.09615385,6483648c280beabafcb3797e,64d2fd46c836a06233681665,64dc82f2102d4af8cd12707e,,,,,,,decisionTrl,resources/DY.BMP,resources/DBN.BMP,WildCard_NonEx,-0.262784677,-0.053025271,1,0,0,1.1943,optionLeft,55,7235,3,42,0,42,0,1,,,,,,,,,,,,,,,,,,,,,,,,,,,,,,,,,,,,,,,
,,,,,,,,2023-08-16_09h09.23.165,HF_wild_card,2022.2.4,Win32,60.09615385,6483648c280beabafcb3797e,64d2fd46c836a06233681665,64dc82f2102d4af8cd12707e,,,,,,,sngl,resources/Empty.png,resources/DBN.BMP,Door1,0.343591193,-0.094664894,1,0,0,0.9159,optionRight,30,7265,3,43,0,43,0,1,,,,,,,,,,,,,,,,,,,,,,,,,,,,,,,,,,,,,,,
,,,,,,,,2023-08-16_09h09.23.165,HF_wild_card,2022.2.4,Win32,60.09615385,6483648c280beabafcb3797e,64d2fd46c836a06233681665,64dc82f2102d4af8cd12707e,,,,,,,,,,,,,,,,,,,,,,,,,,2,0,2,0,1,,,,,,,,,,,,,,,,,,,,,,,,,,,,,,,,,,
,,,,,,,,2023-08-16_09h09.23.165,HF_wild_card,2022.2.4,Win32,60.09615385,6483648c280beabafcb3797e,64d2fd46c836a06233681665,64dc82f2102d4af8cd12707e,,,,,,,sngl,resources/Empty.png,resources/DBN.BMP,Door1,0.403448141,-0.168835334,1,0,0,0.945,optionRight,30,7295,4,0,0,0,0,1,,,,,,,,,,,,,,,,,,,,,,,,,,,,,,,,,,,,,,,
,,,,,,,,2023-08-16_09h09.23.165,HF_wild_card,2022.2.4,Win32,60.09615385,6483648c280beabafcb3797e,64d2fd46c836a06233681665,64dc82f2102d4af8cd12707e,,,,,,,ctch,resources/DB.BMP,resources/DR.BMP,Door3,-0.278399543,-0.05042287,1,0,0,1.379,optionLeft,70,7365,4,1,0,1,0,1,,,,,,,,,,,,,,,,,,,,,,,,,,,,,,,,,,,,,,,
,,,,,,,,2023-08-16_09h09.23.165,HF_wild_card,2022.2.4,Win32,60.09615385,6483648c280beabafcb3797e,64d2fd46c836a06233681665,64dc82f2102d4af8cd12707e,,,,,,,sngl,resources/DB.BMP,resources/Empty.png,Door3,-0.370787307,-0.072543853,1,0,0,0.8263,optionLeft,70,7435,4,2,0,2,0,1,,,,,,,,,,,,,,,,,,,,,,,,,,,,,,,,,,,,,,,
,,,,,,,,2023-08-16_09h09.23.165,HF_wild_card,2022.2.4,Win32,60.09615385,6483648c280beabafcb3797e,64d2fd46c836a06233681665,64dc82f2102d4af8cd12707e,,,,,,,ctch,resources/DBN.BMP,resources/DG.BMP,Door4,0.407351857,-0.108978502,1,0,0,1.1912,optionRight,80,7515,4,3,0,3,0,1,,,,,,,,,,,,,,,,,,,,,,,,,,,,,,,,,,,,,,,
,,,,,,,,2023-08-16_09h09.23.165,HF_wild_card,2022.2.4,Win32,60.09615385,6483648c280beabafcb3797e,64d2fd46c836a06233681665,64dc82f2102d4af8cd12707e,,,,,,,decisionTrl,resources/DB.BMP,resources/DG.BMP,Door4,0.301951743,-0.115484677,1,0,0,1.2821,optionRight,80,7595,4,4,0,4,0,1,,,,,,,,,,,,,,,,,,,,,,,,,,,,,,,,,,,,,,,
,,,,,,,,2023-08-16_09h09.23.165,HF_wild_card,2022.2.4,Win32,60.09615385,6483648c280beabafcb3797e,64d2fd46c836a06233681665,64dc82f2102d4af8cd12707e,,,,,,,decisionTrl,resources/DP.BMP,resources/DBN.BMP,WildCard_Ex,-0.377293482,-0.062133962,1,0,0,1.7824,optionLeft,5,7600,4,5,0,5,0,1,,,,,,,,,,,,,,,,,,,,,,,,,,,,,,,,,,,,,,,
,,,,,,,,2023-08-16_09h09.23.165,HF_wild_card,2022.2.4,Win32,60.09615385,6483648c280beabafcb3797e,64d2fd46c836a06233681665,64dc82f2102d4af8cd12707e,,,,,,,decisionTrl,resources/DG.BMP,resources/DB.BMP,Door4,-0.412426873,-0.099869811,1,0,0,2.8586,optionLeft,80,7680,4,6,0,6,0,1,,,,,,,,,,,,,,,,,,,,,,,,,,,,,,,,,,,,,,,
,,,,,,,,2023-08-16_09h09.23.165,HF_wild_card,2022.2.4,Win32,60.09615385,6483648c280beabafcb3797e,64d2fd46c836a06233681665,64dc82f2102d4af8cd12707e,,,,,,,decisionTrl,resources/DB.BMP,resources/DP.BMP,Door3,-0.305725501,-0.127195769,1,0,0,1.2465,optionLeft,70,7750,4,7,0,7,0,1,,,,,,,,,,,,,,,,,,,,,,,,,,,,,,,,,,,,,,,
,,,,,,,,2023-08-16_09h09.23.165,HF_wild_card,2022.2.4,Win32,60.09615385,6483648c280beabafcb3797e,64d2fd46c836a06233681665,64dc82f2102d4af8cd12707e,,,,,,,decisionTrl,resources/DG.BMP,resources/DP.BMP,Door4,-0.273194569,-0.041314237,1,0,0,2.2938,optionLeft,60,7810,4,8,0,8,0,1,,,,,,,,,,,,,,,,,,,,,,,,,,,,,,,,,,,,,,,
,,,,,,,,2023-08-16_09h09.23.165,HF_wild_card,2022.2.4,Win32,60.09615385,6483648c280beabafcb3797e,64d2fd46c836a06233681665,64dc82f2102d4af8cd12707e,,,,,,,ctch,resources/DB.BMP,resources/DR.BMP,Door3,-0.347365009,-0.120689594,1,0,0,1.5369,optionLeft,70,7880,4,9,0,9,0,1,,,,,,,,,,,,,,,,,,,,,,,,,,,,,,,,,,,,,,,
,,,,,,,,2023-08-16_09h09.23.165,HF_wild_card,2022.2.4,Win32,60.09615385,6483648c280beabafcb3797e,64d2fd46c836a06233681665,64dc82f2102d4af8cd12707e,,,,,,,sngl,resources/Empty.png,resources/DB.BMP,Door3,0.34749491,-0.093363636,1,0,0,0.8323,optionRight,70,7950,4,10,0,10,0,1,,,,,,,,,,,,,,,,,,,,,,,,,,,,,,,,,,,,,,,
,,,,,,,,2023-08-16_09h09.23.165,HF_wild_card,2022.2.4,Win32,60.09615385,6483648c280beabafcb3797e,64d2fd46c836a06233681665,64dc82f2102d4af8cd12707e,,,,,,,decisionTrl,resources/DBN.BMP,resources/DR.BMP,Door2,0.273324527,-0.080351229,1,0,0,1.6328,optionRight,20,7970,4,11,0,11,0,1,,,,,,,,,,,,,,,,,,,,,,,,,,,,,,,,,,,,,,,
,,,,,,,,2023-08-16_09h09.23.165,HF_wild_card,2022.2.4,Win32,60.09615385,6483648c280beabafcb3797e,64d2fd46c836a06233681665,64dc82f2102d4af8cd12707e,,,,,,,sngl,resources/DP.BMP,resources/Empty.png,WildCard_Ex,-0.377293482,-0.017891938,1,0,0,1.1765,optionLeft,95,8065,4,12,0,12,0,1,,,,,,,,,,,,,,,,,,,,,,,,,,,,,,,,,,,,,,,
,,,,,,,,2023-08-16_09h09.23.165,HF_wild_card,2022.2.4,Win32,60.09615385,6483648c280beabafcb3797e,64d2fd46c836a06233681665,64dc82f2102d4af8cd12707e,,,,,,,decisionTrl,resources/DBN.BMP,resources/DR.BMP,Door1,-0.370787307,-0.131099485,1,0,0,3.4084,optionLeft,30,8095,4,13,0,13,0,1,,,,,,,,,,,,,,,,,,,,,,,,,,,,,,,,,,,,,,,
,,,,,,,,2023-08-16_09h09.23.165,HF_wild_card,2022.2.4,Win32,60.09615385,6483648c280beabafcb3797e,64d2fd46c836a06233681665,64dc82f2102d4af8cd12707e,,,,,,,sngl,resources/DG.BMP,resources/Empty.png,Door4,-0.290110635,-0.038711721,1,0,0,0.8623,optionLeft,60,8155,4,14,0,14,0,1,,,,,,,,,,,,,,,,,,,,,,,,,,,,,,,,,,,,,,,
,,,,,,,,2023-08-16_09h09.23.165,HF_wild_card,2022.2.4,Win32,60.09615385,6483648c280beabafcb3797e,64d2fd46c836a06233681665,64dc82f2102d4af8cd12707e,,,,,,,decisionTrl,resources/DR.BMP,resources/DP.BMP,WildCard_Ex,0.412556889,-0.056929045,1,0,0,2.2221,optionRight,5,8160,4,15,0,15,0,1,,,,,,,,,,,,,,,,,,,,,,,,,,,,,,,,,,,,,,,
,,,,,,,,2023-08-16_09h09.23.165,HF_wild_card,2022.2.4,Win32,60.09615385,6483648c280beabafcb3797e,64d2fd46c836a06233681665,64dc82f2102d4af8cd12707e,,,,,,,decisionTrl,resources/DR.BMP,resources/DBN.BMP,Door2,-0.312231676,-0.007482046,1,0,0,1.8561,optionLeft,20,8180,4,16,0,16,0,1,,,,,,,,,,,,,,,,,,,,,,,,,,,,,,,,,,,,,,,
,,,,,,,,2023-08-16_09h09.23.165,HF_wild_card,2022.2.4,Win32,60.09615385,6483648c280beabafcb3797e,64d2fd46c836a06233681665,64dc82f2102d4af8cd12707e,,,,,,,decisionTrl,resources/DBN.BMP,resources/DR.BMP,Door1,-0.270592168,0.015940195,1,0,0,1.881,optionLeft,30,8210,4,17,0,17,0,1,,,,,,,,,,,,,,,,,,,,,,,,,,,,,,,,,,,,,,,
,,,,,,,,2023-08-16_09h09.23.165,HF_wild_card,2022.2.4,Win32,60.09615385,6483648c280beabafcb3797e,64d2fd46c836a06233681665,64dc82f2102d4af8cd12707e,,,,,,,sngl,resources/Empty.png,resources/DR.BMP,Door2,0.317566494,-0.029603087,1,0,0,0.7342,optionRight,40,8250,4,18,0,18,0,1,,,,,,,,,,,,,,,,,,,,,,,,,,,,,,,,,,,,,,,
,,,,,,,,2023-08-16_09h09.23.165,HF_wild_card,2022.2.4,Win32,60.09615385,6483648c280beabafcb3797e,64d2fd46c836a06233681665,64dc82f2102d4af8cd12707e,,,,,,,ctch,resources/DG.BMP,resources/DBN.BMP,Door4,-0.334352659,-0.110279702,1,0,0,1.2392,optionLeft,80,8330,4,19,0,19,0,1,,,,,,,,,,,,,,,,,,,,,,,,,,,,,,,,,,,,,,,
,,,,,,,,2023-08-16_09h09.23.165,HF_wild_card,2022.2.4,Win32,60.09615385,6483648c280beabafcb3797e,64d2fd46c836a06233681665,64dc82f2102d4af8cd12707e,,,,,,,decisionTrl,resources/DG.BMP,resources/DB.BMP,Door4,-0.321340309,-0.030904345,1,0,0,1.4017,optionLeft,60,8390,4,20,0,20,0,1,,,,,,,,,,,,,,,,,,,,,,,,,,,,,,,,,,,,,,,
,,,,,,,,2023-08-16_09h09.23.165,HF_wild_card,2022.2.4,Win32,60.09615385,6483648c280beabafcb3797e,64d2fd46c836a06233681665,64dc82f2102d4af8cd12707e,,,,,,,ctch,resources/DBN.BMP,resources/DG.BMP,Door4,0.402146825,-0.064736478,1,0,0,1.2448,optionRight,80,8470,4,21,0,21,0,1,,,,,,,,,,,,,,,,,,,,,,,,,,,,,,,,,,,,,,,
,,,,,,,,2023-08-16_09h09.23.165,HF_wild_card,2022.2.4,Win32,60.09615385,6483648c280beabafcb3797e,64d2fd46c836a06233681665,64dc82f2102d4af8cd12707e,,,,,,,decisionTrl,resources/DBN.BMP,resources/DP.BMP,WildCard_Ex,0.465907489,-0.108978502,1,0,0,1.2891,optionRight,5,8475,4,22,0,22,0,1,,,,,,,,,,,,,,,,,,,,,,,,,,,,,,,,,,,,,,,
,,,,,,,,2023-08-16_09h09.23.165,HF_wild_card,2022.2.4,Win32,60.09615385,6483648c280beabafcb3797e,64d2fd46c836a06233681665,64dc82f2102d4af8cd12707e,,,,,,,decisionTrl,resources/DR.BMP,resources/DBN.BMP,Door2,-0.295315609,-0.080351229,1,0,0,1.8397,optionLeft,40,8515,4,23,0,23,0,1,,,,,,,,,,,,,,,,,,,,,,,,,,,,,,,,,,,,,,,
,,,,,,,,2023-08-16_09h09.23.165,HF_wild_card,2022.2.4,Win32,60.09615385,6483648c280beabafcb3797e,64d2fd46c836a06233681665,64dc82f2102d4af8cd12707e,,,,,,,ctch,resources/DG.BMP,resources/DBN.BMP,Door4,-0.374690966,-0.092062436,1,0,0,1.2073,optionLeft,60,8575,4,24,0,24,0,1,,,,,,,,,,,,,,,,,,,,,,,,,,,,,,,,,,,,,,,
,,,,,,,,2023-08-16_09h09.23.165,HF_wild_card,2022.2.4,Win32,60.09615385,6483648c280beabafcb3797e,64d2fd46c836a06233681665,64dc82f2102d4af8cd12707e,,,,,,,decisionTrl,resources/DP.BMP,resources/DR.BMP,WildCard_Ex,-0.355172442,-0.066037678,1,0,0,3.3565,optionLeft,5,8580,4,25,0,25,0,1,,,,,,,,,,,,,,,,,,,,,,,,,,,,,,,,,,,,,,,
,,,,,,,,2023-08-16_09h09.23.165,HF_wild_card,2022.2.4,Win32,60.09615385,6483648c280beabafcb3797e,64d2fd46c836a06233681665,64dc82f2102d4af8cd12707e,,,,,,,decisionTrl,resources/DB.BMP,resources/DG.BMP,Door4,0.393038307,-0.084254945,1,0,0,2.1016,optionRight,80,8660,4,26,0,26,0,1,,,,,,,,,,,,,,,,,,,,,,,,,,,,,,,,,,,,,,,
,,,,,,,,2023-08-16_09h09.23.165,HF_wild_card,2022.2.4,Win32,60.09615385,6483648c280beabafcb3797e,64d2fd46c836a06233681665,64dc82f2102d4af8cd12707e,,,,,,,decisionTrl,resources/DR.BMP,resources/DBN.BMP,Door1,0.261613493,-0.034808004,1,0,0,1.639,optionRight,30,8690,4,27,0,27,0,1,,,,,,,,,,,,,,,,,,,,,,,,,,,,,,,,,,,,,,,
,,,,,,,,2023-08-16_09h09.23.165,HF_wild_card,2022.2.4,Win32,60.09615385,6483648c280beabafcb3797e,64d2fd46c836a06233681665,64dc82f2102d4af8cd12707e,,,,,,,sngl,resources/DP.BMP,resources/Empty.png,WildCard_Ex,-0.386402116,-0.072543853,1,0,0,1.0976,optionLeft,5,8695,4,28,0,28,0,1,,,,,,,,,,,,,,,,,,,,,,,,,,,,,,,,,,,,,,,
,,,,,,,,2023-08-16_09h09.23.165,HF_wild_card,2022.2.4,Win32,60.09615385,6483648c280beabafcb3797e,64d2fd46c836a06233681665,64dc82f2102d4af8cd12707e,,,,,,,decisionTrl,resources/DB.BMP,resources/DG.BMP,Door4,0.324072841,-0.09076112,1,0,0,1.366,optionRight,60,8755,4,29,0,29,0,1,,,,,,,,,,,,,,,,,,,,,,,,,,,,,,,,,,,,,,,
,,,,,,,,2023-08-16_09h09.23.165,HF_wild_card,2022.2.4,Win32,60.09615385,6483648c280beabafcb3797e,64d2fd46c836a06233681665,64dc82f2102d4af8cd12707e,,,,,,,decisionTrl,resources/DG.BMP,resources/DB.BMP,Door4,-0.42804171,-0.073845054,1,0,0,1.1644,optionLeft,60,8815,4,30,0,30,0,1,,,,,,,,,,,,,,,,,,,,,,,,,,,,,,,,,,,,,,,
,,,,,,,,2023-08-16_09h09.23.165,HF_wild_card,2022.2.4,Win32,60.09615385,6483648c280beabafcb3797e,64d2fd46c836a06233681665,64dc82f2102d4af8cd12707e,,,,,,,decisionTrl,resources/DBN.BMP,resources/DR.BMP,Door2,0.313662777,-0.088158719,1,0,0,1.1868,optionRight,20,8835,4,31,0,31,0,1,,,,,,,,,,,,,,,,,,,,,,,,,,,,,,,,,,,,,,,
,,,,,,,,2023-08-16_09h09.23.165,HF_wild_card,2022.2.4,Win32,60.09615385,6483648c280beabafcb3797e,64d2fd46c836a06233681665,64dc82f2102d4af8cd12707e,,,,,,,ctch,resources/DR.BMP,resources/DB.BMP,Door3,0.305855344,-0.09076112,1,0,0,3.1401,optionRight,70,8905,4,32,0,32,0,1,,,,,,,,,,,,,,,,,,,,,,,,,,,,,,,,,,,,,,,
,,,,,,,,2023-08-16_09h09.23.165,HF_wild_card,2022.2.4,Win32,60.09615385,6483648c280beabafcb3797e,64d2fd46c836a06233681665,64dc82f2102d4af8cd12707e,,,,,,,sngl,resources/Empty.png,resources/DG.BMP,Door4,0.351398626,-0.116785877,1,0,0,0.7985,optionRight,80,8985,4,33,0,33,0,1,,,,,,,,,,,,,,,,,,,,,,,,,,,,,,,,,,,,,,,
,,,,,,,,2023-08-16_09h09.23.165,HF_wild_card,2022.2.4,Win32,60.09615385,6483648c280beabafcb3797e,64d2fd46c836a06233681665,64dc82f2102d4af8cd12707e,,,,,,,sngl,resources/Empty.png,resources/DP.BMP,WildCard_Ex,0.301951743,-0.102472327,1,0,0,1.3027,optionRight,5,8990,4,34,0,34,0,1,,,,,,,,,,,,,,,,,,,,,,,,,,,,,,,,,,,,,,,
,,,,,,,,2023-08-16_09h09.23.165,HF_wild_card,2022.2.4,Win32,60.09615385,6483648c280beabafcb3797e,64d2fd46c836a06233681665,64dc82f2102d4af8cd12707e,,,,,,,sngl,resources/Empty.png,resources/DP.BMP,WildCard_Ex,-0.001236307,-0.008783247,1,0,0,0.0968,optionRight,95,9085,4,35,0,35,0,1,,,,,,,,,,,,,,,,,,,,,,,,,,,,,,,,,,,,,,,
,,,,,,,,2023-08-16_09h09.23.165,HF_wild_card,2022.2.4,Win32,60.09615385,6483648c280beabafcb3797e,64d2fd46c836a06233681665,64dc82f2102d4af8cd12707e,,,,,,,decisionTrl,resources/DP.BMP,resources/DG.BMP,Door4,0.335783876,-0.099869811,1,0,0,1.3048,optionRight,80,9165,4,36,0,36,0,1,,,,,,,,,,,,,,,,,,,,,,,,,,,,,,,,,,,,,,,
,,,,,,,,2023-08-16_09h09.23.165,HF_wild_card,2022.2.4,Win32,60.09615385,6483648c280beabafcb3797e,64d2fd46c836a06233681665,64dc82f2102d4af8cd12707e,,,,,,,decisionTrl,resources/DG.BMP,resources/DB.BMP,Door4,-0.422836764,-0.084254945,1,0,0,1.7396,optionLeft,80,9245,4,37,0,37,0,1,,,,,,,,,,,,,,,,,,,,,,,,,,,,,,,,,,,,,,,
,,,,,,,,2023-08-16_09h09.23.165,HF_wild_card,2022.2.4,Win32,60.09615385,6483648c280beabafcb3797e,64d2fd46c836a06233681665,64dc82f2102d4af8cd12707e,,,,,,,decisionTrl,resources/DP.BMP,resources/DB.BMP,Door3,0.29414431,-0.053025271,1,0,0,2.0706,optionRight,70,9315,4,38,0,38,0,1,,,,,,,,,,,,,,,,,,,,,,,,,,,,,,,,,,,,,,,
,,,,,,,,2023-08-16_09h09.23.165,HF_wild_card,2022.2.4,Win32,60.09615385,6483648c280beabafcb3797e,64d2fd46c836a06233681665,64dc82f2102d4af8cd12707e,,,,,,,sngl,resources/DR.BMP,resources/Empty.png,Door2,-0.378594683,-0.027000629,1,0,0,0.8061,optionLeft,20,9335,4,39,0,39,0,1,,,,,,,,,,,,,,,,,,,,,,,,,,,,,,,,,,,,,,,
,,,,,,,,2023-08-16_09h09.23.165,HF_wild_card,2022.2.4,Win32,60.09615385,6483648c280beabafcb3797e,64d2fd46c836a06233681665,64dc82f2102d4af8cd12707e,,,,,,,sngl,resources/DBN.BMP,resources/Empty.png,Door1,-0.402016924,-0.03741052,1,0,0,0.7328,optionLeft,30,9365,4,40,0,40,0,1,,,,,,,,,,,,,,,,,,,,,,,,,,,,,,,,,,,,,,,
,,,,,,,,2023-08-16_09h09.23.165,HF_wild_card,2022.2.4,Win32,60.09615385,6483648c280beabafcb3797e,64d2fd46c836a06233681665,64dc82f2102d4af8cd12707e,,,,,,,ctch,resources/DR.BMP,resources/DB.BMP,Door3,0.545282904,-0.107677186,1,0,0,1.4582,optionRight,70,9435,4,41,0,41,0,1,,,,,,,,,,,,,,,,,,,,,,,,,,,,,,,,,,,,,,,
,,,,,,,,2023-08-16_09h09.23.165,HF_wild_card,2022.2.4,Win32,60.09615385,6483648c280beabafcb3797e,64d2fd46c836a06233681665,64dc82f2102d4af8cd12707e,,,,,,,decisionTrl,resources/DR.BMP,resources/DBN.BMP,Door2,-0.3577749,-0.015289422,1,0,0,1.3034,optionLeft,40,9475,4,42,0,42,0,1,,,,,,,,,,,,,,,,,,,,,,,,,,,,,,,,,,,,,,,
,,,,,,,,2023-08-16_09h09.23.165,HF_wild_card,2022.2.4,Win32,60.09615385,6483648c280beabafcb3797e,64d2fd46c836a06233681665,64dc82f2102d4af8cd12707e,,,,,,,decisionTrl,resources/DB.BMP,resources/DG.BMP,Door4,0.50884814,-0.128496969,1,0,0,0.9966,optionRight,60,9535,4,43,0,43,0,1,,,,,,,,,,,,,,,,,,,,,,,,,,,,,,,,,,,,,,,
,,,,,,,,2023-08-16_09h09.23.165,HF_wild_card,2022.2.4,Win32,60.09615385,6483648c280beabafcb3797e,64d2fd46c836a06233681665,64dc82f2102d4af8cd12707e,,,,,,,,,,,,,,,,,,,,,,,,,,3,0,3,0,1,,,,,,,,,,,,,,,,,,,,,,,,,,,,,,,,,,
,,,,,,,,2023-08-16_09h09.23.165,HF_wild_card,2022.2.4,Win32,60.09615385,6483648c280beabafcb3797e,64d2fd46c836a06233681665,64dc82f2102d4af8cd12707e,,,,,,,ctch,resources/DR.BMP,resources/DB.BMP,Door3,0.417761806,-0.131099485,1,0,0,2.1317,optionRight,70,9605,5,0,0,0,0,1,,,,,,,,,,,,,,,,,,,,,,,,,,,,,,,,,,,,,,,
,,,,,,,,2023-08-16_09h09.23.165,HF_wild_card,2022.2.4,Win32,60.09615385,6483648c280beabafcb3797e,64d2fd46c836a06233681665,64dc82f2102d4af8cd12707e,,,,,,,sngl,resources/Empty.png,resources/DR.BMP,Door2,0.170526929,-0.036109205,1,0,0,1.0285,optionRight,20,9625,5,1,0,1,0,1,,,,,,,,,,,,,,,,,,,,,,,,,,,,,,,,,,,,,,,
,,,,,,,,2023-08-16_09h09.23.165,HF_wild_card,2022.2.4,Win32,60.09615385,6483648c280beabafcb3797e,64d2fd46c836a06233681665,64dc82f2102d4af8cd12707e,,,,,,,sngl,resources/Empty.png,resources/DP.BMP,WildCard_Ex,0.210865294,-0.049121612,1,0,0,0.9012,optionRight,95,9720,5,2,0,2,0,1,,,,,,,,,,,,,,,,,,,,,,,,,,,,,,,,,,,,,,,
,,,,,,,,2023-08-16_09h09.23.165,HF_wild_card,2022.2.4,Win32,60.09615385,6483648c280beabafcb3797e,64d2fd46c836a06233681665,64dc82f2102d4af8cd12707e,,,,,,,ctch,resources/DG.BMP,resources/DBN.BMP,Door4,-0.378594683,-0.010084562,1,0,0,1.1568,optionLeft,80,9800,5,3,0,3,0,1,,,,,,,,,,,,,,,,,,,,,,,,,,,,,,,,,,,,,,,
,,,,,,,,2023-08-16_09h09.23.165,HF_wild_card,2022.2.4,Win32,60.09615385,6483648c280beabafcb3797e,64d2fd46c836a06233681665,64dc82f2102d4af8cd12707e,,,,,,,decisionTrl,resources/DBN.BMP,resources/DP.BMP,WildCard_Ex,0.314964093,-0.105074785,1,0,0,3.0059,optionRight,5,9805,5,4,0,4,0,1,,,,,,,,,,,,,,,,,,,,,,,,,,,,,,,,,,,,,,,
,,,,,,,,2023-08-16_09h09.23.165,HF_wild_card,2022.2.4,Win32,60.09615385,6483648c280beabafcb3797e,64d2fd46c836a06233681665,64dc82f2102d4af8cd12707e,,,,,,,ctch,resources/DBN.BMP,resources/DG.BMP,Door4,0.459401372,0.00943402,1,0,0,0.9553,optionRight,80,9885,5,5,0,5,0,1,,,,,,,,,,,,,,,,,,,,,,,,,,,,,,,,,,,,,,,
,,,,,,,,2023-08-16_09h09.23.165,HF_wild_card,2022.2.4,Win32,60.09615385,6483648c280beabafcb3797e,64d2fd46c836a06233681665,64dc82f2102d4af8cd12707e,,,,,,,sngl,resources/DR.BMP,resources/Empty.png,Door2,-0.49180223,-0.080351229,1,0,0,0.8017,optionLeft,40,9925,5,6,0,6,0,1,,,,,,,,,,,,,,,,,,,,,,,,,,,,,,,,,,,,,,,
,,,,,,,,2023-08-16_09h09.23.165,HF_wild_card,2022.2.4,Win32,60.09615385,6483648c280beabafcb3797e,64d2fd46c836a06233681665,64dc82f2102d4af8cd12707e,,,,,,,sngl,resources/DBN.BMP,resources/Empty.png,Door1,-0.330448942,-0.029603087,1,0,0,0.7529,optionLeft,30,9955,5,7,0,7,0,1,,,,,,,,,,,,,,,,,,,,,,,,,,,,,,,,,,,,,,,
,,,,,,,,2023-08-16_09h09.23.165,HF_wild_card,2022.2.4,Win32,60.09615385,6483648c280beabafcb3797e,64d2fd46c836a06233681665,64dc82f2102d4af8cd12707e,,,,,,,decisionTrl,resources/DG.BMP,resources/DB.BMP,Door4,-0.370787307,-0.064736478,1,0,0,1.4272,optionLeft,60,10015,5,8,0,8,0,1,,,,,,,,,,,,,,,,,,,,,,,,,,,,,,,,,,,,,,,
,,,,,,,,2023-08-16_09h09.23.165,HF_wild_card,2022.2.4,Win32,60.09615385,6483648c280beabafcb3797e,64d2fd46c836a06233681665,64dc82f2102d4af8cd12707e,,,,,,,decisionTrl,resources/DP.BMP,resources/DB.BMP,Door3,0.403448141,-0.05042287,1,0,0,1.0686,optionRight,70,10085,5,9,0,9,0,1,,,,,,,,,,,,,,,,,,,,,,,,,,,,,,,,,,,,,,,
,,,,,,,,2023-08-16_09h09.23.165,HF_wild_card,2022.2.4,Win32,60.09615385,6483648c280beabafcb3797e,64d2fd46c836a06233681665,64dc82f2102d4af8cd12707e,,,,,,,decisionTrl,resources/DBN.BMP,resources/DR.BMP,Door2,0.249902344,-0.079050086,1,0,0,3.7559,optionRight,40,10125,5,10,0,10,0,1,,,,,,,,,,,,,,,,,,,,,,,,,,,,,,,,,,,,,,,
,,,,,,,,2023-08-16_09h09.23.165,HF_wild_card,2022.2.4,Win32,60.09615385,6483648c280beabafcb3797e,64d2fd46c836a06233681665,64dc82f2102d4af8cd12707e,,,,,,,sngl,resources/DG.BMP,resources/Empty.png,Door4,-0.355172442,-0.003578388,1,0,0,0.8546,optionLeft,80,10205,5,11,0,11,0,1,,,,,,,,,,,,,,,,,,,,,,,,,,,,,,,,,,,,,,,
,,,,,,,,2023-08-16_09h09.23.165,HF_wild_card,2022.2.4,Win32,60.09615385,6483648c280beabafcb3797e,64d2fd46c836a06233681665,64dc82f2102d4af8cd12707e,,,,,,,decisionTrl,resources/DBN.BMP,resources/DR.BMP,Door2,0.395640823,-0.086857461,1,0,0,1.3743,optionRight,20,10225,5,12,0,12,0,1,,,,,,,,,,,,,,,,,,,,,,,,,,,,,,,,,,,,,,,
,,,,,,,,2023-08-16_09h09.23.165,HF_wild_card,2022.2.4,Win32,60.09615385,6483648c280beabafcb3797e,64d2fd46c836a06233681665,64dc82f2102d4af8cd12707e,,,,,,,decisionTrl,resources/DBN.BMP,resources/DR.BMP,Door2,0.439882674,-0.05042287,1,0,0,1.1888,optionRight,40,10265,5,13,0,13,0,1,,,,,,,,,,,,,,,,,,,,,,,,,,,,,,,,,,,,,,,
,,,,,,,,2023-08-16_09h09.23.165,HF_wild_card,2022.2.4,Win32,60.09615385,6483648c280beabafcb3797e,64d2fd46c836a06233681665,64dc82f2102d4af8cd12707e,,,,,,,ctch,resources/DB.BMP,resources/DR.BMP,Door3,-0.294014351,-0.105074785,1,0,0,2.2339,optionLeft,70,10335,5,14,0,14,0,1,,,,,,,,,,,,,,,,,,,,,,,,,,,,,,,,,,,,,,,
,,,,,,,,2023-08-16_09h09.23.165,HF_wild_card,2022.2.4,Win32,60.09615385,6483648c280beabafcb3797e,64d2fd46c836a06233681665,64dc82f2102d4af8cd12707e,,,,,,,decisionTrl,resources/DR.BMP,resources/DBN.BMP,Door2,-0.433246656,-0.05042287,1,0,0,1.6309,optionLeft,40,10375,5,15,0,15,0,1,,,,,,,,,,,,,,,,,,,,,,,,,,,,,,,,,,,,,,,
,,,,,,,,2023-08-16_09h09.23.165,HF_wild_card,2022.2.4,Win32,60.09615385,6483648c280beabafcb3797e,64d2fd46c836a06233681665,64dc82f2102d4af8cd12707e,,,,,,,decisionTrl,resources/DR.BMP,resources/DP.BMP,Door2,-0.405920698,-0.051724128,1,0,0,1.1904,optionLeft,20,10395,5,16,0,16,0,1,,,,,,,,,,,,,,,,,,,,,,,,,,,,,,,,,,,,,,,
,,,,,,,,2023-08-16_09h09.23.165,HF_wild_card,2022.2.4,Win32,60.09615385,6483648c280beabafcb3797e,64d2fd46c836a06233681665,64dc82f2102d4af8cd12707e,,,,,,,decisionTrl,resources/DB.BMP,resources/DG.BMP,Door4,0.419062892,-0.047820412,1,0,0,0.8402,optionRight,80,10475,5,17,0,17,0,1,,,,,,,,,,,,,,,,,,,,,,,,,,,,,,,,,,,,,,,
,,,,,,,,2023-08-16_09h09.23.165,HF_wild_card,2022.2.4,Win32,60.09615385,6483648c280beabafcb3797e,64d2fd46c836a06233681665,64dc82f2102d4af8cd12707e,,,,,,,ctch,resources/DB.BMP,resources/DR.BMP,Door3,-0.313532876,-0.09856861,1,0,0,1.1745,optionLeft,70,10545,5,18,0,18,0,1,,,,,,,,,,,,,,,,,,,,,,,,,,,,,,,,,,,,,,,
,,,,,,,,2023-08-16_09h09.23.165,HF_wild_card,2022.2.4,Win32,60.09615385,6483648c280beabafcb3797e,64d2fd46c836a06233681665,64dc82f2102d4af8cd12707e,,,,,,,decisionTrl,resources/DB.BMP,resources/DG.BMP,Door4,0.373519725,-0.038711721,1,0,0,0.9935,optionRight,80,10625,5,19,0,19,0,1,,,,,,,,,,,,,,,,,,,,,,,,,,,,,,,,,,,,,,,
,,,,,,,,2023-08-16_09h09.23.165,HF_wild_card,2022.2.4,Win32,60.09615385,6483648c280beabafcb3797e,64d2fd46c836a06233681665,64dc82f2102d4af8cd12707e,,,,,,,decisionTrl,resources/DG.BMP,resources/DB.BMP,Door4,-0.303122985,-0.015289422,1,0,0,1.1713,optionLeft,60,10685,5,20,0,20,0,1,,,,,,,,,,,,,,,,,,,,,,,,,,,,,,,,,,,,,,,
,,,,,,,,2023-08-16_09h09.23.165,HF_wild_card,2022.2.4,Win32,60.09615385,6483648c280beabafcb3797e,64d2fd46c836a06233681665,64dc82f2102d4af8cd12707e,,,,,,,decisionTrl,resources/DB.BMP,resources/DG.BMP,Door4,0.34749491,-0.05042287,1,0,0,0.9341,optionRight,60,10745,5,21,0,21,0,1,,,,,,,,,,,,,,,,,,,,,,,,,,,,,,,,,,,,,,,
,,,,,,,,2023-08-16_09h09.23.165,HF_wild_card,2022.2.4,Win32,60.09615385,6483648c280beabafcb3797e,64d2fd46c836a06233681665,64dc82f2102d4af8cd12707e,,,,,,,sngl,resources/Empty.png,resources/DBN.BMP,Door1,0.368314693,-0.02439817,1,0,0,0.9587,optionRight,30,10775,5,22,0,22,0,1,,,,,,,,,,,,,,,,,,,,,,,,,,,,,,,,,,,,,,,
,,,,,,,,2023-08-16_09h09.23.165,HF_wild_card,2022.2.4,Win32,60.09615385,6483648c280beabafcb3797e,64d2fd46c836a06233681665,64dc82f2102d4af8cd12707e,,,,,,,decisionTrl,resources/DBN.BMP,resources/DR.BMP,Door1,-0.339557633,-0.033506804,1,0,0,1.1922,optionLeft,30,10805,5,23,0,23,0,1,,,,,,,,,,,,,,,,,,,,,,,,,,,,,,,,,,,,,,,
,,,,,,,,2023-08-16_09h09.23.165,HF_wild_card,2022.2.4,Win32,60.09615385,6483648c280beabafcb3797e,64d2fd46c836a06233681665,64dc82f2102d4af8cd12707e,,,,,,,sngl,resources/DP.BMP,resources/Empty.png,WildCard_Ex,-0.424137965,-0.025699313,1,0,0,0.7692,optionLeft,95,10900,5,24,0,24,0,1,,,,,,,,,,,,,,,,,,,,,,,,,,,,,,,,,,,,,,,
,,,,,,,,2023-08-16_09h09.23.165,HF_wild_card,2022.2.4,Win32,60.09615385,6483648c280beabafcb3797e,64d2fd46c836a06233681665,64dc82f2102d4af8cd12707e,,,,,,,decisionTrl,resources/DP.BMP,resources/DBN.BMP,WildCard_Ex,-0.431945369,-0.063435162,1,0,0,1.6872,optionLeft,95,10995,5,25,0,25,0,1,,,,,,,,,,,,,,,,,,,,,,,,,,,,,,,,,,,,,,,
,,,,,,,,2023-08-16_09h09.23.165,HF_wild_card,2022.2.4,Win32,60.09615385,6483648c280beabafcb3797e,64d2fd46c836a06233681665,64dc82f2102d4af8cd12707e,,,,,,,sngl,resources/Empty.png,resources/DG.BMP,Door4,0.412556889,-0.054326586,1,0,0,1.9496,optionRight,60,11055,5,26,0,26,0,1,,,,,,,,,,,,,,,,,,,,,,,,,,,,,,,,,,,,,,,
,,,,,,,,2023-08-16_09h09.23.165,HF_wild_card,2022.2.4,Win32,60.09615385,6483648c280beabafcb3797e,64d2fd46c836a06233681665,64dc82f2102d4af8cd12707e,,,,,,,decisionTrl,resources/DG.BMP,resources/DP.BMP,Door4,-0.398113265,-0.058230303,1,0,0,2.4957,optionLeft,80,11135,5,27,0,27,0,1,,,,,,,,,,,,,,,,,,,,,,,,,,,,,,,,,,,,,,,
,,,,,,,,2023-08-16_09h09.23.165,HF_wild_card,2022.2.4,Win32,60.09615385,6483648c280beabafcb3797e,64d2fd46c836a06233681665,64dc82f2102d4af8cd12707e,,,,,,,sngl,resources/Empty.png,resources/DP.BMP,WildCard_Ex,0.41385809,-0.054326586,1,0,0,0.8349,optionRight,5,11140,5,28,0,28,0,1,,,,,,,,,,,,,,,,,,,,,,,,,,,,,,,,,,,,,,,
,,,,,,,,2023-08-16_09h09.23.165,HF_wild_card,2022.2.4,Win32,60.09615385,6483648c280beabafcb3797e,64d2fd46c836a06233681665,64dc82f2102d4af8cd12707e,,,,,,,ctch,resources/DR.BMP,resources/DB.BMP,Door3,0.346193825,-0.13760566,1,0,0,3.8477,optionRight,70,11210,5,29,0,29,0,1,,,,,,,,,,,,,,,,,,,,,,,,,,,,,,,,,,,,,,,
,,,,,,,,2023-08-16_09h09.23.165,HF_wild_card,2022.2.4,Win32,60.09615385,6483648c280beabafcb3797e,64d2fd46c836a06233681665,64dc82f2102d4af8cd12707e,,,,,,,sngl,resources/DB.BMP,resources/Empty.png,Door3,-0.375992224,-0.034808004,1,0,0,0.6564,optionLeft,70,11280,5,30,0,30,0,1,,,,,,,,,,,,,,,,,,,,,,,,,,,,,,,,,,,,,,,
,,,,,,,,2023-08-16_09h09.23.165,HF_wild_card,2022.2.4,Win32,60.09615385,6483648c280beabafcb3797e,64d2fd46c836a06233681665,64dc82f2102d4af8cd12707e,,,,,,,decisionTrl,resources/DP.BMP,resources/DR.BMP,Door2,0.292842995,-0.027000629,1,0,0,1.3993,optionRight,20,11300,5,31,0,31,0,1,,,,,,,,,,,,,,,,,,,,,,,,,,,,,,,,,,,,,,,
,,,,,,,,2023-08-16_09h09.23.165,HF_wild_card,2022.2.4,Win32,60.09615385,6483648c280beabafcb3797e,64d2fd46c836a06233681665,64dc82f2102d4af8cd12707e,,,,,,,decisionTrl,resources/DR.BMP,resources/DBN.BMP,Door2,-0.329147742,-0.040012979,1,0,0,2.1454,optionLeft,20,11320,5,32,0,32,0,1,,,,,,,,,,,,,,,,,,,,,,,,,,,,,,,,,,,,,,,
,,,,,,,,2023-08-16_09h09.23.165,HF_wild_card,2022.2.4,Win32,60.09615385,6483648c280beabafcb3797e,64d2fd46c836a06233681665,64dc82f2102d4af8cd12707e,,,,,,,decisionTrl,resources/DP.BMP,resources/DG.BMP,Door4,0.350097541,-0.09856861,1,0,0,1.235,optionRight,60,11380,5,33,0,33,0,1,,,,,,,,,,,,,,,,,,,,,,,,,,,,,,,,,,,,,,,
,,,,,,,,2023-08-16_09h09.23.165,HF_wild_card,2022.2.4,Win32,60.09615385,6483648c280beabafcb3797e,64d2fd46c836a06233681665,64dc82f2102d4af8cd12707e,,,,,,,sngl,resources/DP.BMP,resources/Empty.png,WildCard_Ex,-0.264085993,-0.032205546,1,0,0,0.7984,optionLeft,5,11385,5,34,0,34,0,1,,,,,,,,,,,,,,,,,,,,,,,,,,,,,,,,,,,,,,,
,,,,,,,,2023-08-16_09h09.23.165,HF_wild_card,2022.2.4,Win32,60.09615385,6483648c280beabafcb3797e,64d2fd46c836a06233681665,64dc82f2102d4af8cd12707e,,,,,,,sngl,resources/Empty.png,resources/DB.BMP,Door3,0.337085191,-0.051724128,1,0,0,0.7142,optionRight,70,11455,5,35,0,35,0,1,,,,,,,,,,,,,,,,,,,,,,,,,,,,,,,,,,,,,,,
,,,,,,,,2023-08-16_09h09.23.165,HF_wild_card,2022.2.4,Win32,60.09615385,6483648c280beabafcb3797e,64d2fd46c836a06233681665,64dc82f2102d4af8cd12707e,,,,,,,ctch,resources/DBN.BMP,resources/DG.BMP,Door4,0.339687592,-0.043916695,1,0,0,0.8941,optionRight,60,11515,5,36,0,36,0,1,,,,,,,,,,,,,,,,,,,,,,,,,,,,,,,,,,,,,,,
,,,,,,,,2023-08-16_09h09.23.165,HF_wild_card,2022.2.4,Win32,60.09615385,6483648c280beabafcb3797e,64d2fd46c836a06233681665,64dc82f2102d4af8cd12707e,,,,,,,decisionTrl,resources/DB.BMP,resources/DP.BMP,Door3,-0.413728073,-0.068640194,1,0,0,1.4699,optionLeft,70,11585,5,37,0,37,0,1,,,,,,,,,,,,,,,,,,,,,,,,,,,,,,,,,,,,,,,
,,,,,,,,2023-08-16_09h09.23.165,HF_wild_card,2022.2.4,Win32,60.09615385,6483648c280beabafcb3797e,64d2fd46c836a06233681665,64dc82f2102d4af8cd12707e,,,,,,,decisionTrl,resources/DG.BMP,resources/DB.BMP,Door4,-0.457970097,-0.027000629,1,0,0,1.5423,optionLeft,60,11645,5,38,0,38,0,1,,,,,,,,,,,,,,,,,,,,,,,,,,,,,,,,,,,,,,,
,,,,,,,,2023-08-16_09h09.23.165,HF_wild_card,2022.2.4,Win32,60.09615385,6483648c280beabafcb3797e,64d2fd46c836a06233681665,64dc82f2102d4af8cd12707e,,,,,,,decisionTrl,resources/DB.BMP,resources/DG.BMP,Door3,-0.407221927,-0.066037678,1,0,0,0.8647,optionLeft,70,11715,5,39,0,39,0,1,,,,,,,,,,,,,,,,,,,,,,,,,,,,,,,,,,,,,,,
,,,,,,,,2023-08-16_09h09.23.165,HF_wild_card,2022.2.4,Win32,60.09615385,6483648c280beabafcb3797e,64d2fd46c836a06233681665,64dc82f2102d4af8cd12707e,,,,,,,decisionTrl,resources/DR.BMP,resources/DBN.BMP,Door1,0.529667923,-0.108978502,1,0,0,1.0274,optionRight,30,11745,5,40,0,40,0,1,,,,,,,,,,,,,,,,,,,,,,,,,,,,,,,,,,,,,,,
,,,,,,,,2023-08-16_09h09.23.165,HF_wild_card,2022.2.4,Win32,60.09615385,6483648c280beabafcb3797e,64d2fd46c836a06233681665,64dc82f2102d4af8cd12707e,,,,,,,decisionTrl,resources/DG.BMP,resources/DB.BMP,Door4,-0.437150315,-0.068640194,1,0,0,1.1562,optionLeft,60,11805,5,41,0,41,0,1,,,,,,,,,,,,,,,,,,,,,,,,,,,,,,,,,,,,,,,
,,,,,,,,2023-08-16_09h09.23.165,HF_wild_card,2022.2.4,Win32,60.09615385,6483648c280beabafcb3797e,64d2fd46c836a06233681665,64dc82f2102d4af8cd12707e,,,,,,,decisionTrl,resources/DR.BMP,resources/DBN.BMP,Door1,0.49583579,-0.116785877,1,0,0,1.209,optionRight,30,11835,5,42,0,42,0,1,,,,,,,,,,,,,,,,,,,,,,,,,,,,,,,,,,,,,,,
,,,,,,,,2023-08-16_09h09.23.165,HF_wild_card,2022.2.4,Win32,60.09615385,6483648c280beabafcb3797e,64d2fd46c836a06233681665,64dc82f2102d4af8cd12707e,,,,,,,ctch,resources/DG.BMP,resources/DBN.BMP,Door4,-0.372088508,-0.023096912,1,0,0,0.9247,optionLeft,60,11895,5,43,0,43,0,1,,,,,,,,,,,,,,,,,,,,,,,,,,,,,,,,,,,,,,,
,,,,,,,,2023-08-16_09h09.23.165,HF_wild_card,2022.2.4,Win32,60.09615385,6483648c280beabafcb3797e,64d2fd46c836a06233681665,64dc82f2102d4af8cd12707e,,,,,,,,,,,,,,,,,,,,,,,,,,4,0,4,0,1,,,,,,,,,,,,,,,,,,,,,,,,,,,,,,,,,,
,,,,,,,,2023-08-16_09h09.23.165,HF_wild_card,2022.2.4,Win32,60.09615385,6483648c280beabafcb3797e,64d2fd46c836a06233681665,64dc82f2102d4af8cd12707e,,,,,,,decisionTrl,resources/DP.BMP,resources/DR.BMP,WildCard_Ex,-0.375992224,-0.166232818,1,0,0,2.191,optionLeft,5,11900,6,0,0,0,0,1,,,,,,,,,,,,,,,,,,,,,,,,,,,,,,,,,,,,,,,
,,,,,,,,2023-08-16_09h09.23.165,HF_wild_card,2022.2.4,Win32,60.09615385,6483648c280beabafcb3797e,64d2fd46c836a06233681665,64dc82f2102d4af8cd12707e,,,,,,,ctch,resources/DBN.BMP,resources/DG.BMP,Door4,0.435978958,-0.09076112,1,0,0,0.9288,optionRight,60,11960,6,1,0,1,0,1,,,,,,,,,,,,,,,,,,,,,,,,,,,,,,,,,,,,,,,
,,,,,,,,2023-08-16_09h09.23.165,HF_wild_card,2022.2.4,Win32,60.09615385,6483648c280beabafcb3797e,64d2fd46c836a06233681665,64dc82f2102d4af8cd12707e,,,,,,,sngl,resources/Empty.png,resources/DP.BMP,WildCard_Ex,0.37482104,-0.046519096,1,0,0,0.7303,optionRight,95,12055,6,2,0,2,0,1,,,,,,,,,,,,,,,,,,,,,,,,,,,,,,,,,,,,,,,
,,,,,,,,2023-08-16_09h09.23.165,HF_wild_card,2022.2.4,Win32,60.09615385,6483648c280beabafcb3797e,64d2fd46c836a06233681665,64dc82f2102d4af8cd12707e,,,,,,,sngl,resources/DG.BMP,resources/Empty.png,Door4,-0.47748868,-0.054326586,1,0,0,0.7487,optionLeft,60,12115,6,3,0,3,0,1,,,,,,,,,,,,,,,,,,,,,,,,,,,,,,,,,,,,,,,
,,,,,,,,2023-08-16_09h09.23.165,HF_wild_card,2022.2.4,Win32,60.09615385,6483648c280beabafcb3797e,64d2fd46c836a06233681665,64dc82f2102d4af8cd12707e,,,,,,,decisionTrl,resources/DB.BMP,resources/DG.BMP,Door4,0.390435791,-0.077748828,1,0,0,1.3887,optionRight,80,12195,6,4,0,4,0,1,,,,,,,,,,,,,,,,,,,,,,,,,,,,,,,,,,,,,,,
,,,,,,,,2023-08-16_09h09.23.165,HF_wild_card,2022.2.4,Win32,60.09615385,6483648c280beabafcb3797e,64d2fd46c836a06233681665,64dc82f2102d4af8cd12707e,,,,,,,decisionTrl,resources/DG.BMP,resources/DB.BMP,Door4,-0.523031904,-0.082953745,1,0,0,0.8262,optionLeft,80,12275,6,5,0,5,0,1,,,,,,,,,,,,,,,,,,,,,,,,,,,,,,,,,,,,,,,
,,,,,,,,2023-08-16_09h09.23.165,HF_wild_card,2022.2.4,Win32,60.09615385,6483648c280beabafcb3797e,64d2fd46c836a06233681665,64dc82f2102d4af8cd12707e,,,,,,,sngl,resources/DP.BMP,resources/Empty.png,WildCard_Ex,-0.507417067,-0.077748828,1,0,0,0.9787,optionLeft,95,12370,6,6,0,6,0,1,,,,,,,,,,,,,,,,,,,,,,,,,,,,,,,,,,,,,,,
,,,,,,,,2023-08-16_09h09.23.165,HF_wild_card,2022.2.4,Win32,60.09615385,6483648c280beabafcb3797e,64d2fd46c836a06233681665,64dc82f2102d4af8cd12707e,,,,,,,decisionTrl,resources/DP.BMP,resources/DBN.BMP,Door1,0.309759061,-0.027000629,1,0,0,2.2185,optionRight,30,12400,6,7,0,7,0,1,,,,,,,,,,,,,,,,,,,,,,,,,,,,,,,,,,,,,,,
,,,,,,,,2023-08-16_09h09.23.165,HF_wild_card,2022.2.4,Win32,60.09615385,6483648c280beabafcb3797e,64d2fd46c836a06233681665,64dc82f2102d4af8cd12707e,,,,,,,decisionTrl,resources/DG.BMP,resources/DP.BMP,Door4,-0.394209549,0.013337679,1,0,0,1.3408,optionLeft,80,12480,6,8,0,8,0,1,,,,,,,,,,,,,,,,,,,,,,,,,,,,,,,,,,,,,,,
,,,,,,,,2023-08-16_09h09.23.165,HF_wild_card,2022.2.4,Win32,60.09615385,6483648c280beabafcb3797e,64d2fd46c836a06233681665,64dc82f2102d4af8cd12707e,,,,,,,decisionTrl,resources/DP.BMP,resources/DB.BMP,Door3,0.270722127,-0.064736478,1,0,0,1.2248,optionRight,70,12550,6,9,0,9,0,1,,,,,,,,,,,,,,,,,,,,,,,,,,,,,,,,,,,,,,,
,,,,,,,,2023-08-16_09h09.23.165,HF_wild_card,2022.2.4,Win32,60.09615385,6483648c280beabafcb3797e,64d2fd46c836a06233681665,64dc82f2102d4af8cd12707e,,,,,,,decisionTrl,resources/DBN.BMP,resources/DR.BMP,Door2,0.274625843,-0.058230303,1,0,0,1.2986,optionRight,20,12570,6,10,0,10,0,1,,,,,,,,,,,,,,,,,,,,,,,,,,,,,,,,,,,,,,,
,,,,,,,,2023-08-16_09h09.23.165,HF_wild_card,2022.2.4,Win32,60.09615385,6483648c280beabafcb3797e,64d2fd46c836a06233681665,64dc82f2102d4af8cd12707e,,,,,,,sngl,resources/DP.BMP,resources/Empty.png,WildCard_Ex,-0.333051458,-0.07644757,1,0,0,0.8619,optionLeft,5,12575,6,11,0,11,0,1,,,,,,,,,,,,,,,,,,,,,,,,,,,,,,,,,,,,,,,
,,,,,,,,2023-08-16_09h09.23.165,HF_wild_card,2022.2.4,Win32,60.09615385,6483648c280beabafcb3797e,64d2fd46c836a06233681665,64dc82f2102d4af8cd12707e,,,,,,,decisionTrl,resources/DG.BMP,resources/DB.BMP,Door4,-0.461873814,-0.069941337,1,0,0,0.9517,optionLeft,60,12635,6,12,0,12,0,1,,,,,,,,,,,,,,,,,,,,,,,,,,,,,,,,,,,,,,,
,,,,,,,,2023-08-16_09h09.23.165,HF_wild_card,2022.2.4,Win32,60.09615385,6483648c280beabafcb3797e,64d2fd46c836a06233681665,64dc82f2102d4af8cd12707e,,,,,,,decisionTrl,resources/DG.BMP,resources/DB.BMP,Door4,-0.361678617,-0.085556261,1,0,0,1.1554,optionLeft,80,12715,6,13,0,13,0,1,,,,,,,,,,,,,,,,,,,,,,,,,,,,,,,,,,,,,,,
,,,,,,,,2023-08-16_09h09.23.165,HF_wild_card,2022.2.4,Win32,60.09615385,6483648c280beabafcb3797e,64d2fd46c836a06233681665,64dc82f2102d4af8cd12707e,,,,,,,sngl,resources/DR.BMP,resources/Empty.png,Door2,-0.29141195,-0.02439817,1,0,0,0.7883,optionLeft,20,12735,6,14,0,14,0,1,,,,,,,,,,,,,,,,,,,,,,,,,,,,,,,,,,,,,,,
,,,,,,,,2023-08-16_09h09.23.165,HF_wild_card,2022.2.4,Win32,60.09615385,6483648c280beabafcb3797e,64d2fd46c836a06233681665,64dc82f2102d4af8cd12707e,,,,,,,sngl,resources/DB.BMP,resources/Empty.png,Door3,-0.29661681,-0.040012979,1,0,0,0.8908,optionLeft,70,12805,6,15,0,15,0,1,,,,,,,,,,,,,,,,,,,,,,,,,,,,,,,,,,,,,,,
,,,,,,,,2023-08-16_09h09.23.165,HF_wild_card,2022.2.4,Win32,60.09615385,6483648c280beabafcb3797e,64d2fd46c836a06233681665,64dc82f2102d4af8cd12707e,,,,,,,ctch,resources/DR.BMP,resources/DB.BMP,Door3,0.190045511,-0.02439817,1,0,0,1.2835,optionRight,70,12875,6,16,0,16,0,1,,,,,,,,,,,,,,,,,,,,,,,,,,,,,,,,,,,,,,,
,,,,,,,,2023-08-16_09h09.23.165,HF_wild_card,2022.2.4,Win32,60.09615385,6483648c280beabafcb3797e,64d2fd46c836a06233681665,64dc82f2102d4af8cd12707e,,,,,,,decisionTrl,resources/DG.BMP,resources/DB.BMP,Door3,0.445087591,-0.162329102,1,0,0,1.2343,optionRight,70,12945,6,17,0,17,0,1,,,,,,,,,,,,,,,,,,,,,,,,,,,,,,,,,,,,,,,
,,,,,,,,2023-08-16_09h09.23.165,HF_wild_card,2022.2.4,Win32,60.09615385,6483648c280beabafcb3797e,64d2fd46c836a06233681665,64dc82f2102d4af8cd12707e,,,,,,,decisionTrl,resources/DB.BMP,resources/DG.BMP,Door4,0.264215894,-0.055627787,1,0,0,1.0021,optionRight,60,13005,6,18,0,18,0,1,,,,,,,,,,,,,,,,,,,,,,,,,,,,,,,,,,,,,,,
,,,,,,,,2023-08-16_09h09.23.165,HF_wild_card,2022.2.4,Win32,60.09615385,6483648c280beabafcb3797e,64d2fd46c836a06233681665,64dc82f2102d4af8cd12707e,,,,,,,sngl,resources/Empty.png,resources/DG.BMP,Door4,0.393038307,-0.101171011,1,0,0,0.7383,optionRight,80,13085,6,19,0,19,0,1,,,,,,,,,,,,,,,,,,,,,,,,,,,,,,,,,,,,,,,
,,,,,,,,2023-08-16_09h09.23.165,HF_wild_card,2022.2.4,Win32,60.09615385,6483648c280beabafcb3797e,64d2fd46c836a06233681665,64dc82f2102d4af8cd12707e,,,,,,,ctch,resources/DB.BMP,resources/DR.BMP,Door3,-0.213337794,-0.016590737,1,0,0,0.7593,optionLeft,70,13155,6,20,0,20,0,1,,,,,,,,,,,,,,,,,,,,,,,,,,,,,,,,,,,,,,,
,,,,,,,,2023-08-16_09h09.23.165,HF_wild_card,2022.2.4,Win32,60.09615385,6483648c280beabafcb3797e,64d2fd46c836a06233681665,64dc82f2102d4af8cd12707e,,,,,,,decisionTrl,resources/DP.BMP,resources/DG.BMP,Door4,0.377423441,-0.077748828,1,0,0,0.9129,optionRight,80,13235,6,21,0,21,0,1,,,,,,,,,,,,,,,,,,,,,,,,,,,,,,,,,,,,,,,
,,,,,,,,2023-08-16_09h09.23.165,HF_wild_card,2022.2.4,Win32,60.09615385,6483648c280beabafcb3797e,64d2fd46c836a06233681665,64dc82f2102d4af8cd12707e,,,,,,,ctch,resources/DB.BMP,resources/DR.BMP,Door3,-0.42934291,-0.046519096,1,0,0,1.2932,optionLeft,70,13305,6,22,0,22,0,1,,,,,,,,,,,,,,,,,,,,,,,,,,,,,,,,,,,,,,,
,,,,,,,,2023-08-16_09h09.23.165,HF_wild_card,2022.2.4,Win32,60.09615385,6483648c280beabafcb3797e,64d2fd46c836a06233681665,64dc82f2102d4af8cd12707e,,,,,,,ctch,resources/DG.BMP,resources/DBN.BMP,Door4,-0.364281075,-0.004879588,1,0,0,0.9621,optionLeft,60,13365,6,23,0,23,0,1,,,,,,,,,,,,,,,,,,,,,,,,,,,,,,,,,,,,,,,
,,,,,,,,2023-08-16_09h09.23.165,HF_wild_card,2022.2.4,Win32,60.09615385,6483648c280beabafcb3797e,64d2fd46c836a06233681665,64dc82f2102d4af8cd12707e,,,,,,,sngl,resources/Empty.png,resources/DP.BMP,WildCard_Ex,0.273324527,-0.056929045,1,0,0,0.7059,optionRight,5,13370,6,24,0,24,0,1,,,,,,,,,,,,,,,,,,,,,,,,,,,,,,,,,,,,,,,
,,,,,,,,2023-08-16_09h09.23.165,HF_wild_card,2022.2.4,Win32,60.09615385,6483648c280beabafcb3797e,64d2fd46c836a06233681665,64dc82f2102d4af8cd12707e,,,,,,,decisionTrl,resources/DB.BMP,resources/DG.BMP,Door4,0.337085191,-0.09076112,1,0,0,0.9672,optionRight,60,13430,6,25,0,25,0,1,,,,,,,,,,,,,,,,,,,,,,,,,,,,,,,,,,,,,,,
,,,,,,,,2023-08-16_09h09.23.165,HF_wild_card,2022.2.4,Win32,60.09615385,6483648c280beabafcb3797e,64d2fd46c836a06233681665,64dc82f2102d4af8cd12707e,,,,,,,decisionTrl,resources/DR.BMP,resources/DBN.BMP,Door1,0.365712292,-0.042615379,1,0,0,1.9034,optionRight,30,13460,6,26,0,26,0,1,,,,,,,,,,,,,,,,,,,,,,,,,,,,,,,,,,,,,,,
,,,,,,,,2023-08-16_09h09.23.165,HF_wild_card,2022.2.4,Win32,60.09615385,6483648c280beabafcb3797e,64d2fd46c836a06233681665,64dc82f2102d4af8cd12707e,,,,,,,decisionTrl,resources/DB.BMP,resources/DG.BMP,Door3,-0.287508234,-0.032205546,1,0,0,1.7194,optionLeft,70,13530,6,27,0,27,0,1,,,,,,,,,,,,,,,,,,,,,,,,,,,,,,,,,,,,,,,
,,,,,,,,2023-08-16_09h09.23.165,HF_wild_card,2022.2.4,Win32,60.09615385,6483648c280beabafcb3797e,64d2fd46c836a06233681665,64dc82f2102d4af8cd12707e,,,,,,,sngl,resources/Empty.png,resources/DB.BMP,Door3,0.409954258,-0.093363636,1,0,0,0.7018,optionRight,70,13600,6,28,0,28,0,1,,,,,,,,,,,,,,,,,,,,,,,,,,,,,,,,,,,,,,,
,,,,,,,,2023-08-16_09h09.23.165,HF_wild_card,2022.2.4,Win32,60.09615385,6483648c280beabafcb3797e,64d2fd46c836a06233681665,64dc82f2102d4af8cd12707e,,,,,,,decisionTrl,resources/DBN.BMP,resources/DR.BMP,Door1,-0.3317502,-0.042615379,1,0,0,1.9758,optionLeft,30,13630,6,29,0,29,0,1,,,,,,,,,,,,,,,,,,,,,,,,,,,,,,,,,,,,,,,
,,,,,,,,2023-08-16_09h09.23.165,HF_wild_card,2022.2.4,Win32,60.09615385,6483648c280beabafcb3797e,64d2fd46c836a06233681665,64dc82f2102d4af8cd12707e,,,,,,,ctch,resources/DBN.BMP,resources/DG.BMP,Door4,0.354001258,-0.053025271,1,0,0,0.8908,optionRight,80,13710,6,30,0,30,0,1,,,,,,,,,,,,,,,,,,,,,,,,,,,,,,,,,,,,,,,
,,,,,,,,2023-08-16_09h09.23.165,HF_wild_card,2022.2.4,Win32,60.09615385,6483648c280beabafcb3797e,64d2fd46c836a06233681665,64dc82f2102d4af8cd12707e,,,,,,,sngl,resources/DBN.BMP,resources/Empty.png,Door1,-0.399414466,0.015940195,1,0,0,0.679,optionLeft,30,13740,6,31,0,31,0,1,,,,,,,,,,,,,,,,,,,,,,,,,,,,,,,,,,,,,,,
,,,,,,,,2023-08-16_09h09.23.165,HF_wild_card,2022.2.4,Win32,60.09615385,6483648c280beabafcb3797e,64d2fd46c836a06233681665,64dc82f2102d4af8cd12707e,,,,,,,sngl,resources/Empty.png,resources/DR.BMP,Door2,0.320169125,-0.093363636,1,0,0,0.6718,optionRight,40,13780,6,32,0,32,0,1,,,,,,,,,,,,,,,,,,,,,,,,,,,,,,,,,,,,,,,
,,,,,,,,2023-08-16_09h09.23.165,HF_wild_card,2022.2.4,Win32,60.09615385,6483648c280beabafcb3797e,64d2fd46c836a06233681665,64dc82f2102d4af8cd12707e,,,,,,,ctch,resources/DG.BMP,resources/DBN.BMP,Door4,-0.435849085,-0.034808004,1,0,0,1.2381,optionLeft,80,13860,6,33,0,33,0,1,,,,,,,,,,,,,,,,,,,,,,,,,,,,,,,,,,,,,,,
,,,,,,,,2023-08-16_09h09.23.165,HF_wild_card,2022.2.4,Win32,60.09615385,6483648c280beabafcb3797e,64d2fd46c836a06233681665,64dc82f2102d4af8cd12707e,,,,,,,decisionTrl,resources/DBN.BMP,resources/DR.BMP,Door1,-0.40461944,-0.047820412,1,0,0,2.6813,optionLeft,30,13890,6,34,0,34,0,1,,,,,,,,,,,,,,,,,,,,,,,,,,,,,,,,,,,,,,,
,,,,,,,,2023-08-16_09h09.23.165,HF_wild_card,2022.2.4,Win32,60.09615385,6483648c280beabafcb3797e,64d2fd46c836a06233681665,64dc82f2102d4af8cd12707e,,,,,,,decisionTrl,resources/DR.BMP,resources/DP.BMP,WildCard_Ex,0.350097541,-0.016590737,1,0,0,1.9614,optionRight,5,13895,6,35,0,35,0,1,,,,,,,,,,,,,,,,,,,,,,,,,,,,,,,,,,,,,,,
,,,,,,,,2023-08-16_09h09.23.165,HF_wild_card,2022.2.4,Win32,60.09615385,6483648c280beabafcb3797e,64d2fd46c836a06233681665,64dc82f2102d4af8cd12707e,,,,,,,ctch,resources/DR.BMP,resources/DB.BMP,Door3,0.363109891,-0.05042287,1,0,0,1.5741,optionRight,70,13965,6,36,0,36,0,1,,,,,,,,,,,,,,,,,,,,,,,,,,,,,,,,,,,,,,,
,,,,,,,,2023-08-16_09h09.23.165,HF_wild_card,2022.2.4,Win32,60.09615385,6483648c280beabafcb3797e,64d2fd46c836a06233681665,64dc82f2102d4af8cd12707e,,,,,,,decisionTrl,resources/DR.BMP,resources/DBN.BMP,Door1,0.305855344,-0.085556261,1,0,0,1.8771,optionRight,30,13995,6,37,0,37,0,1,,,,,,,,,,,,,,,,,,,,,,,,,,,,,,,,,,,,,,,
,,,,,,,,2023-08-16_09h09.23.165,HF_wild_card,2022.2.4,Win32,60.09615385,6483648c280beabafcb3797e,64d2fd46c836a06233681665,64dc82f2102d4af8cd12707e,,,,,,,decisionTrl,resources/DR.BMP,resources/DBN.BMP,Door2,-0.524333133,-0.055627787,1,0,0,0.7999,optionLeft,40,14035,6,38,0,38,0,1,,,,,,,,,,,,,,,,,,,,,,,,,,,,,,,,,,,,,,,
,,,,,,,,2023-08-16_09h09.23.165,HF_wild_card,2022.2.4,Win32,60.09615385,6483648c280beabafcb3797e,64d2fd46c836a06233681665,64dc82f2102d4af8cd12707e,,,,,,,decisionTrl,resources/DBN.BMP,resources/DR.BMP,Door1,-0.463175043,-0.081652544,1,0,0,0.8326,optionLeft,30,14065,6,39,0,39,0,1,,,,,,,,,,,,,,,,,,,,,,,,,,,,,,,,,,,,,,,
,,,,,,,,2023-08-16_09h09.23.165,HF_wild_card,2022.2.4,Win32,60.09615385,6483648c280beabafcb3797e,64d2fd46c836a06233681665,64dc82f2102d4af8cd12707e,,,,,,,decisionTrl,resources/DBN.BMP,resources/DP.BMP,Door1,-0.365582333,-0.030904345,1,0,0,1.4838,optionLeft,30,14095,6,40,0,40,0,1,,,,,,,,,,,,,,,,,,,,,,,,,,,,,,,,,,,,,,,
,,,,,,,,2023-08-16_09h09.23.165,HF_wild_card,2022.2.4,Win32,60.09615385,6483648c280beabafcb3797e,64d2fd46c836a06233681665,64dc82f2102d4af8cd12707e,,,,,,,decisionTrl,resources/DB.BMP,resources/DP.BMP,Door3,-0.421535478,-0.128496969,1,0,0,0.911,optionLeft,70,14165,6,41,0,41,0,1,,,,,,,,,,,,,,,,,,,,,,,,,,,,,,,,,,,,,,,
,,,,,,,,2023-08-16_09h09.23.165,HF_wild_card,2022.2.4,Win32,60.09615385,6483648c280beabafcb3797e,64d2fd46c836a06233681665,64dc82f2102d4af8cd12707e,,,,,,,sngl,resources/Empty.png,resources/DBN.BMP,Door1,0.377423441,-0.072543853,1,0,0,0.6614,optionRight,30,14195,6,42,0,42,0,1,,,,,,,,,,,,,,,,,,,,,,,,,,,,,,,,,,,,,,,
,,,,,,,,2023-08-16_09h09.23.165,HF_wild_card,2022.2.4,Win32,60.09615385,6483648c280beabafcb3797e,64d2fd46c836a06233681665,64dc82f2102d4af8cd12707e,,,,,,,decisionTrl,resources/DR.BMP,resources/DBN.BMP,Door2,-0.398113265,-0.064736478,1,0,0,1.3201,optionLeft,20,14215,6,43,0,43,0,1,,,,,,,,,,,,,,,,,,,,,,,,,,,,,,,,,,,,,,,
,,,,,,,,2023-08-16_09h09.23.165,HF_wild_card,2022.2.4,Win32,60.09615385,6483648c280beabafcb3797e,64d2fd46c836a06233681665,64dc82f2102d4af8cd12707e,,,,,,,,,,,,,,,,,,,,,,,,,,5,0,5,0,1,,,,,,,,,,,,,,,,,,,,,,,,,,,,,,,,,,
,,,,,,,,2023-08-16_09h09.23.165,HF_wild_card,2022.2.4,Win32,60.09615385,6483648c280beabafcb3797e,64d2fd46c836a06233681665,64dc82f2102d4af8cd12707e,,,,,,,decisionTrl,resources/DG.BMP,resources/DB.BMP,Door4,-0.313532876,-0.144111835,1,0,0,1.2948,optionLeft,60,14275,7,0,0,0,0,1,,,,,,,,,,,,,,,,,,,,,,,,,,,,,,,,,,,,,,,
,,,,,,,,2023-08-16_09h09.23.165,HF_wild_card,2022.2.4,Win32,60.09615385,6483648c280beabafcb3797e,64d2fd46c836a06233681665,64dc82f2102d4af8cd12707e,,,,,,,ctch,resources/DG.BMP,resources/DBN.BMP,Door4,-0.383799657,-0.042615379,1,0,0,0.8441,optionLeft,60,14335,7,1,0,1,0,1,,,,,,,,,,,,,,,,,,,,,,,,,,,,,,,,,,,,,,,
,,,,,,,,2023-08-16_09h09.23.165,HF_wild_card,2022.2.4,Win32,60.09615385,6483648c280beabafcb3797e,64d2fd46c836a06233681665,64dc82f2102d4af8cd12707e,,,,,,,decisionTrl,resources/DR.BMP,resources/DBN.BMP,Door2,-0.420234248,-0.135003144,1,0,0,2.0113,optionLeft,40,14375,7,2,0,2,0,1,,,,,,,,,,,,,,,,,,,,,,,,,,,,,,,,,,,,,,,
,,,,,,,,2023-08-16_09h09.23.165,HF_wild_card,2022.2.4,Win32,60.09615385,6483648c280beabafcb3797e,64d2fd46c836a06233681665,64dc82f2102d4af8cd12707e,,,,,,,decisionTrl,resources/DB.BMP,resources/DG.BMP,Door4,0.350097541,-0.058230303,1,0,0,1.4091,optionRight,80,14455,7,3,0,3,0,1,,,,,,,,,,,,,,,,,,,,,,,,,,,,,,,,,,,,,,,
,,,,,,,,2023-08-16_09h09.23.165,HF_wild_card,2022.2.4,Win32,60.09615385,6483648c280beabafcb3797e,64d2fd46c836a06233681665,64dc82f2102d4af8cd12707e,,,,,,,ctch,resources/DR.BMP,resources/DB.BMP,Door3,0.406050542,0.013337679,1,0,0,1.4547,optionRight,70,14525,7,4,0,4,0,1,,,,,,,,,,,,,,,,,,,,,,,,,,,,,,,,,,,,,,,
,,,,,,,,2023-08-16_09h09.23.165,HF_wild_card,2022.2.4,Win32,60.09615385,6483648c280beabafcb3797e,64d2fd46c836a06233681665,64dc82f2102d4af8cd12707e,,,,,,,ctch,resources/DG.BMP,resources/DBN.BMP,Door4,-0.547755432,-0.128496969,1,0,0,0.8951,optionLeft,60,14585,7,5,0,5,0,1,,,,,,,,,,,,,,,,,,,,,,,,,,,,,,,,,,,,,,,
,,,,,,,,2023-08-16_09h09.23.165,HF_wild_card,2022.2.4,Win32,60.09615385,6483648c280beabafcb3797e,64d2fd46c836a06233681665,64dc82f2102d4af8cd12707e,,,,,,,ctch,resources/DB.BMP,resources/DR.BMP,Door3,-0.340858834,-0.041314237,1,0,0,1.1481,optionLeft,70,14655,7,6,0,6,0,1,,,,,,,,,,,,,,,,,,,,,,,,,,,,,,,,,,,,,,,
,,,,,,,,2023-08-16_09h09.23.165,HF_wild_card,2022.2.4,Win32,60.09615385,6483648c280beabafcb3797e,64d2fd46c836a06233681665,64dc82f2102d4af8cd12707e,,,,,,,ctch,resources/DBN.BMP,resources/DG.BMP,Door4,0.417761806,-0.081652544,1,0,0,0.8375,optionRight,80,14735,7,7,0,7,0,1,,,,,,,,,,,,,,,,,,,,,,,,,,,,,,,,,,,,,,,
,,,,,,,,2023-08-16_09h09.23.165,HF_wild_card,2022.2.4,Win32,60.09615385,6483648c280beabafcb3797e,64d2fd46c836a06233681665,64dc82f2102d4af8cd12707e,,,,,,,ctch,resources/DR.BMP,resources/DB.BMP,Door3,0.321470325,-0.124593253,1,0,0,0.9031,optionRight,70,14805,7,8,0,8,0,1,,,,,,,,,,,,,,,,,,,,,,,,,,,,,,,,,,,,,,,
,,,,,,,,2023-08-16_09h09.23.165,HF_wild_card,2022.2.4,Win32,60.09615385,6483648c280beabafcb3797e,64d2fd46c836a06233681665,64dc82f2102d4af8cd12707e,,,,,,,decisionTrl,resources/DBN.BMP,resources/DR.BMP,Door2,0.298048027,-0.155822927,1,0,0,1.9113,optionRight,20,14825,7,9,0,9,0,1,,,,,,,,,,,,,,,,,,,,,,,,,,,,,,,,,,,,,,,
,,,,,,,,2023-08-16_09h09.23.165,HF_wild_card,2022.2.4,Win32,60.09615385,6483648c280beabafcb3797e,64d2fd46c836a06233681665,64dc82f2102d4af8cd12707e,,,,,,,decisionTrl,resources/DB.BMP,resources/DG.BMP,Door4,0.42817164,-0.071242653,1,0,0,0.8328,optionRight,60,14885,7,10,0,10,0,1,,,,,,,,,,,,,,,,,,,,,,,,,,,,,,,,,,,,,,,
,,,,,,,,2023-08-16_09h09.23.165,HF_wild_card,2022.2.4,Win32,60.09615385,6483648c280beabafcb3797e,64d2fd46c836a06233681665,64dc82f2102d4af8cd12707e,,,,,,,decisionTrl,resources/DB.BMP,resources/DG.BMP,Door4,0.364410976,-0.144111835,1,0,0,0.7463,optionRight,60,14945,7,11,0,11,0,1,,,,,,,,,,,,,,,,,,,,,,,,,,,,,,,,,,,,,,,
,,,,,,,,2023-08-16_09h09.23.165,HF_wild_card,2022.2.4,Win32,60.09615385,6483648c280beabafcb3797e,64d2fd46c836a06233681665,64dc82f2102d4af8cd12707e,,,,,,,decisionTrl,resources/DG.BMP,resources/DB.BMP,Door4,-0.448861435,-0.101171011,1,0,0,1.0956,optionLeft,80,15025,7,12,0,12,0,1,,,,,,,,,,,,,,,,,,,,,,,,,,,,,,,,,,,,,,,
,,,,,,,,2023-08-16_09h09.23.165,HF_wild_card,2022.2.4,Win32,60.09615385,6483648c280beabafcb3797e,64d2fd46c836a06233681665,64dc82f2102d4af8cd12707e,,,,,,,decisionTrl,resources/DBN.BMP,resources/DR.BMP,Door1,-0.43064414,-0.040012979,1,0,0,1.5137,optionLeft,30,15055,7,13,0,13,0,1,,,,,,,,,,,,,,,,,,,,,,,,,,,,,,,,,,,,,,,
,,,,,,,,2023-08-16_09h09.23.165,HF_wild_card,2022.2.4,Win32,60.09615385,6483648c280beabafcb3797e,64d2fd46c836a06233681665,64dc82f2102d4af8cd12707e,,,,,,,decisionTrl,resources/DG.BMP,resources/DB.BMP,Door4,-0.251073585,-0.000975872,1,0,0,0.8,optionLeft,60,15115,7,14,0,14,0,1,,,,,,,,,,,,,,,,,,,,,,,,,,,,,,,,,,,,,,,
,,,,,,,,2023-08-16_09h09.23.165,HF_wild_card,2022.2.4,Win32,60.09615385,6483648c280beabafcb3797e,64d2fd46c836a06233681665,64dc82f2102d4af8cd12707e,,,,,,,decisionTrl,resources/DBN.BMP,resources/DR.BMP,Door2,0.324072841,-0.111580903,1,0,0,0.9981,optionRight,20,15135,7,15,0,15,0,1,,,,,,,,,,,,,,,,,,,,,,,,,,,,,,,,,,,,,,,
,,,,,,,,2023-08-16_09h09.23.165,HF_wild_card,2022.2.4,Win32,60.09615385,6483648c280beabafcb3797e,64d2fd46c836a06233681665,64dc82f2102d4af8cd12707e,,,,,,,decisionTrl,resources/DR.BMP,resources/DBN.BMP,Door1,0.308457976,-0.105074785,1,0,0,0.9367,optionRight,30,15165,7,16,0,16,0,1,,,,,,,,,,,,,,,,,,,,,,,,,,,,,,,,,,,,,,,
,,,,,,,,2023-08-16_09h09.23.165,HF_wild_card,2022.2.4,Win32,60.09615385,6483648c280beabafcb3797e,64d2fd46c836a06233681665,64dc82f2102d4af8cd12707e,,,,,,,decisionTrl,resources/DR.BMP,resources/DBN.BMP,Door1,0.343591193,-0.148015551,1,0,0,0.7648,optionRight,30,15195,7,17,0,17,0,1,,,,,,,,,,,,,,,,,,,,,,,,,,,,,,,,,,,,,,,
,,,,,,,,2023-08-16_09h09.23.165,HF_wild_card,2022.2.4,Win32,60.09615385,6483648c280beabafcb3797e,64d2fd46c836a06233681665,64dc82f2102d4af8cd12707e,,,,,,,ctch,resources/DR.BMP,resources/DB.BMP,Door3,0.312361692,-0.07644757,1,0,0,1.333,optionRight,70,15265,7,18,0,18,0,1,,,,,,,,,,,,,,,,,,,,,,,,,,,,,,,,,,,,,,,
,,,,,,,,2023-08-16_09h09.23.165,HF_wild_card,2022.2.4,Win32,60.09615385,6483648c280beabafcb3797e,64d2fd46c836a06233681665,64dc82f2102d4af8cd12707e,,,,,,,decisionTrl,resources/DB.BMP,resources/DG.BMP,Door4,0.305855344,-0.168835334,1,0,0,0.7285,optionRight,80,15345,7,19,0,19,0,1,,,,,,,,,,,,,,,,,,,,,,,,,,,,,,,,,,,,,,,
,,,,,,,,2023-08-16_09h09.23.165,HF_wild_card,2022.2.4,Win32,60.09615385,6483648c280beabafcb3797e,64d2fd46c836a06233681665,64dc82f2102d4af8cd12707e,,,,,,,decisionTrl,resources/DG.BMP,resources/DB.BMP,Door4,-0.330448942,0.014638937,1,0,0,0.8522,optionLeft,80,15425,7,20,0,20,0,1,,,,,,,,,,,,,,,,,,,,,,,,,,,,,,,,,,,,,,,
,,,,,,,,2023-08-16_09h09.23.165,HF_wild_card,2022.2.4,Win32,60.09615385,6483648c280beabafcb3797e,64d2fd46c836a06233681665,64dc82f2102d4af8cd12707e,,,,,,,ctch,resources/DB.BMP,resources/DR.BMP,Door3,-0.348666267,-0.010084562,1,0,0,1.3444,optionLeft,70,15495,7,21,0,21,0,1,,,,,,,,,,,,,,,,,,,,,,,,,,,,,,,,,,,,,,,
,,,,,,,,2023-08-16_09h09.23.165,HF_wild_card,2022.2.4,Win32,60.09615385,6483648c280beabafcb3797e,64d2fd46c836a06233681665,64dc82f2102d4af8cd12707e,,,,,,,decisionTrl,resources/DBN.BMP,resources/DR.BMP,Door2,0.393038307,-0.111580903,1,0,0,1.7032,optionRight,20,15515,7,22,0,22,0,1,,,,,,,,,,,,,,,,,,,,,,,,,,,,,,,,,,,,,,,
,,,,,,,,2023-08-16_09h09.23.165,HF_wild_card,2022.2.4,Win32,60.09615385,6483648c280beabafcb3797e,64d2fd46c836a06233681665,64dc82f2102d4af8cd12707e,,,,,,,decisionTrl,resources/DR.BMP,resources/DBN.BMP,Door1,0.329277758,-0.111580903,1,0,0,0.9657,optionRight,30,15545,7,23,0,23,0,1,,,,,,,,,,,,,,,,,,,,,,,,,,,,,,,,,,,,,,,
,,,,,,,,2023-08-16_09h09.23.165,HF_wild_card,2022.2.4,Win32,60.09615385,6483648c280beabafcb3797e,64d2fd46c836a06233681665,64dc82f2102d4af8cd12707e,,,,,,,ctch,resources/DBN.BMP,resources/DG.BMP,Door4,0.313662777,-0.13890686,1,0,0,0.7783,optionRight,60,15605,7,24,0,24,0,1,,,,,,,,,,,,,,,,,,,,,,,,,,,,,,,,,,,,,,,
,,,,,,,,2023-08-16_09h09.23.165,HF_wild_card,2022.2.4,Win32,60.09615385,6483648c280beabafcb3797e,64d2fd46c836a06233681665,64dc82f2102d4af8cd12707e,,,,,,,ctch,resources/DBN.BMP,resources/DG.BMP,Door4,0.36050726,-0.125894568,1,0,0,0.7218,optionRight,80,15685,7,25,0,25,0,1,,,,,,,,,,,,,,,,,,,,,,,,,,,,,,,,,,,,,,,
,,,,,,,,2023-08-16_09h09.23.165,HF_wild_card,2022.2.4,Win32,60.09615385,6483648c280beabafcb3797e,64d2fd46c836a06233681665,64dc82f2102d4af8cd12707e,,,,,,,ctch,resources/DG.BMP,resources/DBN.BMP,Door4,-0.459271327,0.004229045,1,0,0,0.9771,optionLeft,60,15745,7,26,0,26,0,1,,,,,,,,,,,,,,,,,,,,,,,,,,,,,,,,,,,,,,,
,,,,,,,,2023-08-16_09h09.23.165,HF_wild_card,2022.2.4,Win32,60.09615385,6483648c280beabafcb3797e,64d2fd46c836a06233681665,64dc82f2102d4af8cd12707e,,,,,,,decisionTrl,resources/DB.BMP,resources/DG.BMP,Door4,0.313662777,-0.108978502,1,0,0,1.526,optionRight,60,15805,7,27,0,27,0,1,,,,,,,,,,,,,,,,,,,,,,,,,,,,,,,,,,,,,,,
,,,,,,,,2023-08-16_09h09.23.165,HF_wild_card,2022.2.4,Win32,60.09615385,6483648c280beabafcb3797e,64d2fd46c836a06233681665,64dc82f2102d4af8cd12707e,,,,,,,decisionTrl,resources/DR.BMP,resources/DBN.BMP,Door1,0.53617427,-0.120689594,1,0,0,1.097,optionRight,30,15835,7,28,0,28,0,1,,,,,,,,,,,,,,,,,,,,,,,,,,,,,,,,,,,,,,,
,,,,,,,,2023-08-16_09h09.23.165,HF_wild_card,2022.2.4,Win32,60.09615385,6483648c280beabafcb3797e,64d2fd46c836a06233681665,64dc82f2102d4af8cd12707e,,,,,,,decisionTrl,resources/DG.BMP,resources/DB.BMP,Door4,-0.199024128,-0.007482046,1,0,0,0.8754,optionLeft,60,15895,7,29,0,29,0,1,,,,,,,,,,,,,,,,,,,,,,,,,,,,,,,,,,,,,,,
,,,,,,,,2023-08-16_09h09.23.165,HF_wild_card,2022.2.4,Win32,60.09615385,6483648c280beabafcb3797e,64d2fd46c836a06233681665,64dc82f2102d4af8cd12707e,,,,,,,decisionTrl,resources/DB.BMP,resources/DG.BMP,Door4,0.406050542,-0.121990852,1,0,0,0.9115,optionRight,80,15975,7,30,0,30,0,1,,,,,,,,,,,,,,,,,,,,,,,,,,,,,,,,,,,,,,,
,,,,,,,,2023-08-16_09h09.23.165,HF_wild_card,2022.2.4,Win32,60.09615385,6483648c280beabafcb3797e,64d2fd46c836a06233681665,64dc82f2102d4af8cd12707e,,,,,,,decisionTrl,resources/DR.BMP,resources/DBN.BMP,Door1,0.251203429,-0.066037678,1,0,0,1.0223,optionRight,30,16005,7,31,0,31,0,1,,,,,,,,,,,,,,,,,,,,,,,,,,,,,,,,,,,,,,,
,,,,,,,,2023-08-16_09h09.23.165,HF_wild_card,2022.2.4,Win32,60.09615385,6483648c280beabafcb3797e,64d2fd46c836a06233681665,64dc82f2102d4af8cd12707e,,,,,,,decisionTrl,resources/DBN.BMP,resources/DR.BMP,Door2,0.318867809,-0.041314237,1,0,0,1.4154,optionRight,20,16025,7,32,0,32,0,1,,,,,,,,,,,,,,,,,,,,,,,,,,,,,,,,,,,,,,,
,,,,,,,,2023-08-16_09h09.23.165,HF_wild_card,2022.2.4,Win32,60.09615385,6483648c280beabafcb3797e,64d2fd46c836a06233681665,64dc82f2102d4af8cd12707e,,,,,,,decisionTrl,resources/DBN.BMP,resources/DR.BMP,Door2,0.377423441,-0.092062436,1,0,0,0.7427,optionRight,40,16065,7,33,0,33,0,1,,,,,,,,,,,,,,,,,,,,,,,,,,,,,,,,,,,,,,,
,,,,,,,,2023-08-16_09h09.23.165,HF_wild_card,2022.2.4,Win32,60.09615385,6483648c280beabafcb3797e,64d2fd46c836a06233681665,64dc82f2102d4af8cd12707e,,,,,,,ctch,resources/DB.BMP,resources/DR.BMP,Door3,-0.269290852,-0.020494454,1,0,0,1.4897,optionLeft,70,16135,7,34,0,34,0,1,,,,,,,,,,,,,,,,,,,,,,,,,,,,,,,,,,,,,,,
,,,,,,,,2023-08-16_09h09.23.165,HF_wild_card,2022.2.4,Win32,60.09615385,6483648c280beabafcb3797e,64d2fd46c836a06233681665,64dc82f2102d4af8cd12707e,,,,,,,decisionTrl,resources/DG.BMP,resources/DB.BMP,Door4,-0.303122985,-0.015289422,1,0,0,0.8989,optionLeft,60,16195,7,35,0,35,0,1,,,,,,,,,,,,,,,,,,,,,,,,,,,,,,,,,,,,,,,
,,,,,,,,2023-08-16_09h09.23.165,HF_wild_card,2022.2.4,Win32,60.09615385,6483648c280beabafcb3797e,64d2fd46c836a06233681665,64dc82f2102d4af8cd12707e,,,,,,,,,,,,,,,,,,,,,,,,,,6,0,6,0,1,,,,,,,,,,,,,,,,,,,,,,,,,,,,,,,,,,
,,,,,,,,2023-08-16_09h09.23.165,HF_wild_card,2022.2.4,Win32,60.09615385,6483648c280beabafcb3797e,64d2fd46c836a06233681665,64dc82f2102d4af8cd12707e,,,,,,,,,,,,,,,,,,,,,,,,,,,,,,,4,,,,,,,,,,,,,,,,,,,,,,,,,,,,,,,,,
,,,,,,,,2023-08-16_09h09.23.165,HF_wild_card,2022.2.4,Win32,60.09615385,6483648c280beabafcb3797e,64d2fd46c836a06233681665,64dc82f2102d4af8cd12707e,,,,,,,,,,,,,,,,,,,,,,,,,,,,,,,,,,,,,,,,,,,,,,,,,,,,,,,,,,,,,,,,
,,,,,,,,2023-08-16_09h09.23.165,HF_wild_card,2022.2.4,Win32,60.09615385,6483648c280beabafcb3797e,64d2fd46c836a06233681665,64dc82f2102d4af8cd12707e,,,,,,,,,,,,,,,,,,,,,,,,,,,,,,,,60,Door3,resources/DB.BMP,0,0,0,0,1,,,,,,,,,,,,,,,,,,,,,,,,,
,,,,,,,,2023-08-16_09h09.23.165,HF_wild_card,2022.2.4,Win32,60.09615385,6483648c280beabafcb3797e,64d2fd46c836a06233681665,64dc82f2102d4af8cd12707e,,,,,,,,,,,,,,,,,,,,,,,,,,,,,,,,80,Door4,resources/DG.BMP,1,0,1,0,1,,,,,,,,,,,,,,,,,,,,,,,,,
,,,,,,,,2023-08-16_09h09.23.165,HF_wild_card,2022.2.4,Win32,60.09615385,6483648c280beabafcb3797e,64d2fd46c836a06233681665,64dc82f2102d4af8cd12707e,,,,,,,,,,,,,,,,,,,,,,,,,,,,,,,,20,Door2,resources/DR.BMP,2,0,2,0,1,,,,,,,,,,,,,,,,,,,,,,,,,
,,,,,,,,2023-08-16_09h09.23.165,HF_wild_card,2022.2.4,Win32,60.09615385,6483648c280beabafcb3797e,64d2fd46c836a06233681665,64dc82f2102d4af8cd12707e,,,,,,,,,,,,,,,,,,,,,,,,,,,,,,,,5,WC_extreme,resources/DP.BMP,3,0,3,0,1,,,,,,,,,,,,,,,,,,,,,,,,,
,,,,,,,,2023-08-16_09h09.23.165,HF_wild_card,2022.2.4,Win32,60.09615385,6483648c280beabafcb3797e,64d2fd46c836a06233681665,64dc82f2102d4af8cd12707e,,,,,,,,,,,,,,,,,,,,,,,,,,,,,,,,30,Door1,resources/DBN.BMP,4,0,4,0,1,,,,,,,,,,,,,,,,,,,,,,,,,
,,,,,,,,2023-08-16_09h09.23.165,HF_wild_card,2022.2.4,Win32,60.09615385,6483648c280beabafcb3797e,64d2fd46c836a06233681665,64dc82f2102d4af8cd12707e,,,,,,,,,,,,,,,,,,,,,,,,,,,,,,,,30,WC_nonExtreme,resources/DY.BMP,5,0,5,0,1,,,,,,,,,,,,,,,,,,,,,,,,,
