Condition,Low fixed image (Door1),Low risky image (Door2),High fixed image (Door3),High risky image (Door4),NonExtreme Wild Card 1,NonExtreme Wild Card 2,,date,expName,psychopyVersion,OS,frameRate,PROLIFIC_PID,STUDY_ID,SESSION_ID,mouse_2.x,mouse_2.y,mouse_2.leftButton,mouse_2.midButton,mouse_2.rightButton,mouse_2.clicked_name,Trial Type,Left Option Image,Right Option Image,Chosen Door,mouse.x,mouse.y,mouse.leftButton,mouse.midButton,mouse.rightButton,mouse.time,mouse.clicked_name,Feedback,Cumulative Reward,Block,trial.thisRepN,trial.thisTrialN,trial.thisN,trial.thisIndex,trial.ran,blocks.thisRepN,blocks.thisTrialN,blocks.thisN,blocks.thisIndex,blocks.ran,Money conversion,First Outcome Reported,Shown Door (First Outcome),Displayed Image (First Outcome),outcomes.thisRepN,outcomes.thisTrialN,outcomes.thisN,outcomes.thisIndex,outcomes.ran,judgments.thisRepN,judgments.thisTrialN,judgments.thisN,judgments.thisIndex,judgments.ran,freqMouse.x,freqMouse.y,freqMouse.leftButton,freqMouse.midButton,freqMouse.rightButton,freqMouse.clicked_name,FQJ for first outcome,FQJ for second outcome,Shown Door,Displayed Image,trials.thisRepN,trials.thisTrialN,trials.thisN,trials.thisIndex,trials.ran,judgBlock.thisRepN,judgBlock.thisTrialN,judgBlock.thisN,judgBlock.thisIndex,judgBlock.ran
2,resources/DR.BMP,resources/DY.BMP,resources/DBN.BMP,resources/DG.BMP,resources/DP.BMP,resources/DB.BMP,,2023-08-16_08h47.16.187,HF_wild_card,2022.2.4,MacIntel,60.0024001,5cdfe8f96e2e4e0019757481,64d2fd46c836a06233681665,64dc7ef0e7d73c8f3e8b8b60,,,,,,,,,,,,,,,,,,,,,,,,,,,,,,,,,,,,,,,,,,,,,,,,,,,,,,,,,,,,,,,,
,,,,,,,,2023-08-16_08h47.16.187,HF_wild_card,2022.2.4,MacIntel,60.0024001,5cdfe8f96e2e4e0019757481,64d2fd46c836a06233681665,64dc7ef0e7d73c8f3e8b8b60,-0.013226053,-0.420575747,1,0,0,agree,,,,,,,,,,,,,,,,,,,,,,,,,,,,,,,,,,,,,,,,,,,,,,,,,,,,,,,,,,
,,,,,,,,2023-08-16_08h47.16.187,HF_wild_card,2022.2.4,MacIntel,60.0024001,5cdfe8f96e2e4e0019757481,64d2fd46c836a06233681665,64dc7ef0e7d73c8f3e8b8b60,,,,,,,,,,,,,,,,,,,,,,,,,,,,,,,,,,,,,,,,,,,,,,,,,,,,,,,,,,,,,,,,
,,,,,,,,2023-08-16_08h47.16.187,HF_wild_card,2022.2.4,MacIntel,60.0024001,5cdfe8f96e2e4e0019757481,64d2fd46c836a06233681665,64dc7ef0e7d73c8f3e8b8b60,,,,,,,decisionTrl,resources/DR.BMP,resources/DY.BMP,Door2,0.340399966,-0.021582031,1,0,0,1.1195,optionRight,20,20,1,0,0,0,0,1,,,,,,,,,,,,,,,,,,,,,,,,,,,,,,,,,,,,,,,
,,,,,,,,2023-08-16_08h47.16.187,HF_wild_card,2022.2.4,MacIntel,60.0024001,5cdfe8f96e2e4e0019757481,64d2fd46c836a06233681665,64dc7ef0e7d73c8f3e8b8b60,,,,,,,sngl,resources/Empty.png,resources/DG.BMP,Door4,0.381649117,-0.065905231,1,0,0,1.3121,optionRight,60,80,1,1,0,1,0,1,,,,,,,,,,,,,,,,,,,,,,,,,,,,,,,,,,,,,,,
,,,,,,,,2023-08-16_08h47.16.187,HF_wild_card,2022.2.4,MacIntel,60.0024001,5cdfe8f96e2e4e0019757481,64d2fd46c836a06233681665,64dc7ef0e7d73c8f3e8b8b60,,,,,,,sngl,resources/DBN.BMP,resources/Empty.png,Door3,-0.392641814,0.004292629,1,0,0,0.8661,optionLeft,70,150,1,2,0,2,0,1,,,,,,,,,,,,,,,,,,,,,,,,,,,,,,,,,,,,,,,
,,,,,,,,2023-08-16_08h47.16.187,HF_wild_card,2022.2.4,MacIntel,60.0024001,5cdfe8f96e2e4e0019757481,64d2fd46c836a06233681665,64dc7ef0e7d73c8f3e8b8b60,,,,,,,ctch,resources/DR.BMP,resources/DG.BMP,Door1,-0.287754755,-0.046174423,1,0,0,0.8652,optionLeft,30,180,1,3,0,3,0,1,,,,,,,,,,,,,,,,,,,,,,,,,,,,,,,,,,,,,,,
,,,,,,,,2023-08-16_08h47.16.187,HF_wild_card,2022.2.4,MacIntel,60.0024001,5cdfe8f96e2e4e0019757481,64d2fd46c836a06233681665,64dc7ef0e7d73c8f3e8b8b60,,,,,,,decisionTrl,resources/DY.BMP,resources/DR.BMP,Door1,0.367331861,-0.030863621,1,0,0,0.5612,optionRight,30,210,1,4,0,4,0,1,,,,,,,,,,,,,,,,,,,,,,,,,,,,,,,,,,,,,,,
,,,,,,,,2023-08-16_08h47.16.187,HF_wild_card,2022.2.4,MacIntel,60.0024001,5cdfe8f96e2e4e0019757481,64d2fd46c836a06233681665,64dc7ef0e7d73c8f3e8b8b60,,,,,,,sngl,resources/DB.BMP,resources/Empty.png,WildCard_NonEx,-0.380052649,-0.024762228,1,0,0,0.4934,optionLeft,55,265,1,5,0,5,0,1,,,,,,,,,,,,,,,,,,,,,,,,,,,,,,,,,,,,,,,
,,,,,,,,2023-08-16_08h47.16.187,HF_wild_card,2022.2.4,MacIntel,60.0024001,5cdfe8f96e2e4e0019757481,64d2fd46c836a06233681665,64dc7ef0e7d73c8f3e8b8b60,,,,,,,sngl,resources/DB.BMP,resources/Empty.png,WildCard_NonEx,-0.475259001,-0.094344429,1,0,0,0.5139,optionLeft,45,310,1,6,0,6,0,1,,,,,,,,,,,,,,,,,,,,,,,,,,,,,,,,,,,,,,,
,,,,,,,,2023-08-16_08h47.16.187,HF_wild_card,2022.2.4,MacIntel,60.0024001,5cdfe8f96e2e4e0019757481,64d2fd46c836a06233681665,64dc7ef0e7d73c8f3e8b8b60,,,,,,,decisionTrl,resources/DB.BMP,resources/DR.BMP,Door1,0.398522418,-0.022503397,1,0,0,0.5135,optionRight,30,340,1,7,0,7,0,1,,,,,,,,,,,,,,,,,,,,,,,,,,,,,,,,,,,,,,,
,,,,,,,,2023-08-16_08h47.16.187,HF_wild_card,2022.2.4,MacIntel,60.0024001,5cdfe8f96e2e4e0019757481,64d2fd46c836a06233681665,64dc7ef0e7d73c8f3e8b8b60,,,,,,,sngl,resources/Empty.png,resources/DR.BMP,Door1,0.476307745,-0.092336107,1,0,0,0.5139,optionRight,30,370,1,8,0,8,0,1,,,,,,,,,,,,,,,,,,,,,,,,,,,,,,,,,,,,,,,
,,,,,,,,2023-08-16_08h47.16.187,HF_wild_card,2022.2.4,MacIntel,60.0024001,5cdfe8f96e2e4e0019757481,64d2fd46c836a06233681665,64dc7ef0e7d73c8f3e8b8b60,,,,,,,decisionTrl,resources/DG.BMP,resources/DBN.BMP,Door4,-0.370206352,-0.073772928,1,0,0,0.4803,optionLeft,80,450,1,9,0,9,0,1,,,,,,,,,,,,,,,,,,,,,,,,,,,,,,,,,,,,,,,
,,,,,,,,2023-08-16_08h47.16.187,HF_wild_card,2022.2.4,MacIntel,60.0024001,5cdfe8f96e2e4e0019757481,64d2fd46c836a06233681665,64dc7ef0e7d73c8f3e8b8b60,,,,,,,sngl,resources/DR.BMP,resources/Empty.png,Door1,-0.297465183,-0.054063349,1,0,0,0.7006,optionLeft,30,480,1,10,0,10,0,1,,,,,,,,,,,,,,,,,,,,,,,,,,,,,,,,,,,,,,,
,,,,,,,,2023-08-16_08h47.16.187,HF_wild_card,2022.2.4,MacIntel,60.0024001,5cdfe8f96e2e4e0019757481,64d2fd46c836a06233681665,64dc7ef0e7d73c8f3e8b8b60,,,,,,,decisionTrl,resources/DG.BMP,resources/DBN.BMP,Door3,0.368325408,-0.057235054,1,0,0,0.5834,optionRight,70,550,1,11,0,11,0,1,,,,,,,,,,,,,,,,,,,,,,,,,,,,,,,,,,,,,,,
,,,,,,,,2023-08-16_08h47.16.187,HF_wild_card,2022.2.4,MacIntel,60.0024001,5cdfe8f96e2e4e0019757481,64d2fd46c836a06233681665,64dc7ef0e7d73c8f3e8b8b60,,,,,,,decisionTrl,resources/DY.BMP,resources/DB.BMP,Door2,-0.278141984,-0.02010445,1,0,0,0.5311,optionLeft,20,570,1,12,0,12,0,1,,,,,,,,,,,,,,,,,,,,,,,,,,,,,,,,,,,,,,,
,,,,,,,,2023-08-16_08h47.16.187,HF_wild_card,2022.2.4,MacIntel,60.0024001,5cdfe8f96e2e4e0019757481,64d2fd46c836a06233681665,64dc7ef0e7d73c8f3e8b8b60,,,,,,,sngl,resources/Empty.png,resources/DB.BMP,WildCard_NonEx,0.402526325,-0.005222486,1,0,0,0.4659,optionRight,45,615,1,13,0,13,0,1,,,,,,,,,,,,,,,,,,,,,,,,,,,,,,,,,,,,,,,
,,,,,,,,2023-08-16_08h47.16.187,HF_wild_card,2022.2.4,MacIntel,60.0024001,5cdfe8f96e2e4e0019757481,64d2fd46c836a06233681665,64dc7ef0e7d73c8f3e8b8b60,,,,,,,decisionTrl,resources/DG.BMP,resources/DBN.BMP,Door3,0.360444973,-0.038548743,1,0,0,0.6443,optionRight,70,685,1,14,0,14,0,1,,,,,,,,,,,,,,,,,,,,,,,,,,,,,,,,,,,,,,,
,,,,,,,,2023-08-16_08h47.16.187,HF_wild_card,2022.2.4,MacIntel,60.0024001,5cdfe8f96e2e4e0019757481,64d2fd46c836a06233681665,64dc7ef0e7d73c8f3e8b8b60,,,,,,,decisionTrl,resources/DG.BMP,resources/DBN.BMP,Door3,0.40523947,-0.08706267,1,0,0,0.5311,optionRight,70,755,1,15,0,15,0,1,,,,,,,,,,,,,,,,,,,,,,,,,,,,,,,,,,,,,,,
,,,,,,,,2023-08-16_08h47.16.187,HF_wild_card,2022.2.4,MacIntel,60.0024001,5cdfe8f96e2e4e0019757481,64d2fd46c836a06233681665,64dc7ef0e7d73c8f3e8b8b60,,,,,,,ctch,resources/DBN.BMP,resources/DY.BMP,Door3,-0.265735394,-0.042200238,1,0,0,0.5809,optionLeft,70,825,1,16,0,16,0,1,,,,,,,,,,,,,,,,,,,,,,,,,,,,,,,,,,,,,,,
,,,,,,,,2023-08-16_08h47.16.187,HF_wild_card,2022.2.4,MacIntel,60.0024001,5cdfe8f96e2e4e0019757481,64d2fd46c836a06233681665,64dc7ef0e7d73c8f3e8b8b60,,,,,,,ctch,resources/DG.BMP,resources/DR.BMP,Door1,0.5140625,-0.015433933,1,0,0,1.0142,optionRight,30,855,1,17,0,17,0,1,,,,,,,,,,,,,,,,,,,,,,,,,,,,,,,,,,,,,,,
,,,,,,,,2023-08-16_08h47.16.187,HF_wild_card,2022.2.4,MacIntel,60.0024001,5cdfe8f96e2e4e0019757481,64d2fd46c836a06233681665,64dc7ef0e7d73c8f3e8b8b60,,,,,,,sngl,resources/DY.BMP,resources/Empty.png,Door2,-0.422337806,-0.00769786,1,0,0,0.5138,optionLeft,40,895,1,18,0,18,0,1,,,,,,,,,,,,,,,,,,,,,,,,,,,,,,,,,,,,,,,
,,,,,,,,2023-08-16_08h47.16.187,HF_wild_card,2022.2.4,MacIntel,60.0024001,5cdfe8f96e2e4e0019757481,64d2fd46c836a06233681665,64dc7ef0e7d73c8f3e8b8b60,,,,,,,ctch,resources/DR.BMP,resources/DG.BMP,Door4,0.357404891,-0.027942425,1,0,0,0.6778,optionRight,80,975,1,19,0,19,0,1,,,,,,,,,,,,,,,,,,,,,,,,,,,,,,,,,,,,,,,
,,,,,,,,2023-08-16_08h47.16.187,HF_wild_card,2022.2.4,MacIntel,60.0024001,5cdfe8f96e2e4e0019757481,64d2fd46c836a06233681665,64dc7ef0e7d73c8f3e8b8b60,,,,,,,ctch,resources/DY.BMP,resources/DBN.BMP,Door3,0.498305876,-0.011731488,1,0,0,0.7609,optionRight,70,1045,1,20,0,20,0,1,,,,,,,,,,,,,,,,,,,,,,,,,,,,,,,,,,,,,,,
,,,,,,,,2023-08-16_08h47.16.187,HF_wild_card,2022.2.4,MacIntel,60.0024001,5cdfe8f96e2e4e0019757481,64d2fd46c836a06233681665,64dc7ef0e7d73c8f3e8b8b60,,,,,,,sngl,resources/DG.BMP,resources/Empty.png,Door4,-0.428783118,0.016826596,1,0,0,0.6806,optionLeft,80,1125,1,21,0,21,0,1,,,,,,,,,,,,,,,,,,,,,,,,,,,,,,,,,,,,,,,
,,,,,,,,2023-08-16_08h47.16.187,HF_wild_card,2022.2.4,MacIntel,60.0024001,5cdfe8f96e2e4e0019757481,64d2fd46c836a06233681665,64dc7ef0e7d73c8f3e8b8b60,,,,,,,decisionTrl,resources/DR.BMP,resources/DB.BMP,WildCard_NonEx,0.48237517,-0.028689708,1,0,0,1.181,optionRight,55,1180,1,22,0,22,0,1,,,,,,,,,,,,,,,,,,,,,,,,,,,,,,,,,,,,,,,
,,,,,,,,2023-08-16_08h47.16.187,HF_wild_card,2022.2.4,MacIntel,60.0024001,5cdfe8f96e2e4e0019757481,64d2fd46c836a06233681665,64dc7ef0e7d73c8f3e8b8b60,,,,,,,decisionTrl,resources/DBN.BMP,resources/DG.BMP,Door4,0.494484545,-0.007990829,1,0,0,2.3656,optionRight,80,1260,1,23,0,23,0,1,,,,,,,,,,,,,,,,,,,,,,,,,,,,,,,,,,,,,,,
,,,,,,,,2023-08-16_08h47.16.187,HF_wild_card,2022.2.4,MacIntel,60.0024001,5cdfe8f96e2e4e0019757481,64d2fd46c836a06233681665,64dc7ef0e7d73c8f3e8b8b60,,,,,,,decisionTrl,resources/DBN.BMP,resources/DG.BMP,Door4,0.459039572,-0.058644701,1,0,0,0.5805,optionRight,60,1320,1,24,0,24,0,1,,,,,,,,,,,,,,,,,,,,,,,,,,,,,,,,,,,,,,,
,,,,,,,,2023-08-16_08h47.16.187,HF_wild_card,2022.2.4,MacIntel,60.0024001,5cdfe8f96e2e4e0019757481,64d2fd46c836a06233681665,64dc7ef0e7d73c8f3e8b8b60,,,,,,,sngl,resources/Empty.png,resources/DBN.BMP,Door3,0.390973166,-0.022974694,1,0,0,0.5155,optionRight,70,1390,1,25,0,25,0,1,,,,,,,,,,,,,,,,,,,,,,,,,,,,,,,,,,,,,,,
,,,,,,,,2023-08-16_08h47.16.187,HF_wild_card,2022.2.4,MacIntel,60.0024001,5cdfe8f96e2e4e0019757481,64d2fd46c836a06233681665,64dc7ef0e7d73c8f3e8b8b60,,,,,,,decisionTrl,resources/DB.BMP,resources/DY.BMP,WildCard_NonEx,-0.330681046,0.003502887,1,0,0,0.7163,optionLeft,45,1435,1,26,0,26,0,1,,,,,,,,,,,,,,,,,,,,,,,,,,,,,,,,,,,,,,,
,,,,,,,,2023-08-16_08h47.16.187,HF_wild_card,2022.2.4,MacIntel,60.0024001,5cdfe8f96e2e4e0019757481,64d2fd46c836a06233681665,64dc7ef0e7d73c8f3e8b8b60,,,,,,,decisionTrl,resources/DY.BMP,resources/DR.BMP,Door2,-0.235415251,-0.013277004,1,0,0,0.5981,optionLeft,20,1455,1,27,0,27,0,1,,,,,,,,,,,,,,,,,,,,,,,,,,,,,,,,,,,,,,,
,,,,,,,,2023-08-16_08h47.16.187,HF_wild_card,2022.2.4,MacIntel,60.0024001,5cdfe8f96e2e4e0019757481,64d2fd46c836a06233681665,64dc7ef0e7d73c8f3e8b8b60,,,,,,,sngl,resources/Empty.png,resources/DY.BMP,Door2,0.335449219,-0.02732252,1,0,0,0.5806,optionRight,20,1475,1,28,0,28,0,1,,,,,,,,,,,,,,,,,,,,,,,,,,,,,,,,,,,,,,,
,,,,,,,,2023-08-16_08h47.16.187,HF_wild_card,2022.2.4,MacIntel,60.0024001,5cdfe8f96e2e4e0019757481,64d2fd46c836a06233681665,64dc7ef0e7d73c8f3e8b8b60,,,,,,,decisionTrl,resources/DY.BMP,resources/DR.BMP,Door1,0.355519701,-0.105774457,1,0,0,0.5472,optionRight,30,1505,1,29,0,29,0,1,,,,,,,,,,,,,,,,,,,,,,,,,,,,,,,,,,,,,,,
,,,,,,,,2023-08-16_08h47.16.187,HF_wild_card,2022.2.4,MacIntel,60.0024001,5cdfe8f96e2e4e0019757481,64d2fd46c836a06233681665,64dc7ef0e7d73c8f3e8b8b60,,,,,,,decisionTrl,resources/DG.BMP,resources/DB.BMP,Door4,-0.330681046,0.00815642,1,0,0,0.631,optionLeft,80,1585,1,30,0,30,0,1,,,,,,,,,,,,,,,,,,,,,,,,,,,,,,,,,,,,,,,
,,,,,,,,2023-08-16_08h47.16.187,HF_wild_card,2022.2.4,MacIntel,60.0024001,5cdfe8f96e2e4e0019757481,64d2fd46c836a06233681665,64dc7ef0e7d73c8f3e8b8b60,,,,,,,decisionTrl,resources/DBN.BMP,resources/DG.BMP,Door3,-0.351681386,0.004929518,1,0,0,0.6826,optionLeft,70,1655,1,31,0,31,0,1,,,,,,,,,,,,,,,,,,,,,,,,,,,,,,,,,,,,,,,
,,,,,,,,2023-08-16_08h47.16.187,HF_wild_card,2022.2.4,MacIntel,60.0024001,5cdfe8f96e2e4e0019757481,64d2fd46c836a06233681665,64dc7ef0e7d73c8f3e8b8b60,,,,,,,decisionTrl,resources/DBN.BMP,resources/DG.BMP,Door3,-0.431589674,-0.056576936,1,0,0,0.5818,optionLeft,70,1725,1,32,0,32,0,1,,,,,,,,,,,,,,,,,,,,,,,,,,,,,,,,,,,,,,,
,,,,,,,,2023-08-16_08h47.16.187,HF_wild_card,2022.2.4,MacIntel,60.0024001,5cdfe8f96e2e4e0019757481,64d2fd46c836a06233681665,64dc7ef0e7d73c8f3e8b8b60,,,,,,,sngl,resources/Empty.png,resources/DB.BMP,WildCard_NonEx,0.510508662,-0.015671705,1,0,0,0.5297,optionRight,55,1780,1,33,0,33,0,1,,,,,,,,,,,,,,,,,,,,,,,,,,,,,,,,,,,,,,,
,,,,,,,,2023-08-16_08h47.16.187,HF_wild_card,2022.2.4,MacIntel,60.0024001,5cdfe8f96e2e4e0019757481,64d2fd46c836a06233681665,64dc7ef0e7d73c8f3e8b8b60,,,,,,,decisionTrl,resources/DR.BMP,resources/DY.BMP,Door1,-0.372363281,-0.078400985,1,0,0,1.5985,optionLeft,30,1810,1,34,0,34,0,1,,,,,,,,,,,,,,,,,,,,,,,,,,,,,,,,,,,,,,,
,,,,,,,,2023-08-16_08h47.16.187,HF_wild_card,2022.2.4,MacIntel,60.0024001,5cdfe8f96e2e4e0019757481,64d2fd46c836a06233681665,64dc7ef0e7d73c8f3e8b8b60,,,,,,,decisionTrl,resources/DBN.BMP,resources/DB.BMP,Door3,-0.356071671,0.022401495,1,0,0,1.1318,optionLeft,70,1880,1,35,0,35,0,1,,,,,,,,,,,,,,,,,,,,,,,,,,,,,,,,,,,,,,,
,,,,,,,,2023-08-16_08h47.16.187,HF_wild_card,2022.2.4,MacIntel,60.0024001,5cdfe8f96e2e4e0019757481,64d2fd46c836a06233681665,64dc7ef0e7d73c8f3e8b8b60,,,,,,,ctch,resources/DG.BMP,resources/DR.BMP,Door4,-0.360950238,-0.073140285,1,0,0,0.7306,optionLeft,60,1940,1,36,0,36,0,1,,,,,,,,,,,,,,,,,,,,,,,,,,,,,,,,,,,,,,,
,,,,,,,,2023-08-16_08h47.16.187,HF_wild_card,2022.2.4,MacIntel,60.0024001,5cdfe8f96e2e4e0019757481,64d2fd46c836a06233681665,64dc7ef0e7d73c8f3e8b8b60,,,,,,,decisionTrl,resources/DB.BMP,resources/DBN.BMP,Door3,0.326418139,-0.026256793,1,0,0,0.6982,optionRight,70,2010,1,37,0,37,0,1,,,,,,,,,,,,,,,,,,,,,,,,,,,,,,,,,,,,,,,
,,,,,,,,2023-08-16_08h47.16.187,HF_wild_card,2022.2.4,MacIntel,60.0024001,5cdfe8f96e2e4e0019757481,64d2fd46c836a06233681665,64dc7ef0e7d73c8f3e8b8b60,,,,,,,decisionTrl,resources/DB.BMP,resources/DG.BMP,Door4,0.317408288,-0.053579314,1,0,0,0.812,optionRight,80,2090,1,38,0,38,0,1,,,,,,,,,,,,,,,,,,,,,,,,,,,,,,,,,,,,,,,
,,,,,,,,2023-08-16_08h47.16.187,HF_wild_card,2022.2.4,MacIntel,60.0024001,5cdfe8f96e2e4e0019757481,64d2fd46c836a06233681665,64dc7ef0e7d73c8f3e8b8b60,,,,,,,decisionTrl,resources/DR.BMP,resources/DY.BMP,Door1,-0.372681726,-0.008228601,1,0,0,1.1947,optionLeft,30,2120,1,39,0,39,0,1,,,,,,,,,,,,,,,,,,,,,,,,,,,,,,,,,,,,,,,
,,,,,,,,2023-08-16_08h47.16.187,HF_wild_card,2022.2.4,MacIntel,60.0024001,5cdfe8f96e2e4e0019757481,64d2fd46c836a06233681665,64dc7ef0e7d73c8f3e8b8b60,,,,,,,ctch,resources/DBN.BMP,resources/DY.BMP,Door3,-0.318609885,-0.008831522,1,0,0,0.8493,optionLeft,70,2190,1,40,0,40,0,1,,,,,,,,,,,,,,,,,,,,,,,,,,,,,,,,,,,,,,,
,,,,,,,,2023-08-16_08h47.16.187,HF_wild_card,2022.2.4,MacIntel,60.0024001,5cdfe8f96e2e4e0019757481,64d2fd46c836a06233681665,64dc7ef0e7d73c8f3e8b8b60,,,,,,,decisionTrl,resources/DY.BMP,resources/DR.BMP,Door1,0.326324728,-0.046153193,1,0,0,1.3636,optionRight,30,2220,1,41,0,41,0,1,,,,,,,,,,,,,,,,,,,,,,,,,,,,,,,,,,,,,,,
,,,,,,,,2023-08-16_08h47.16.187,HF_wild_card,2022.2.4,MacIntel,60.0024001,5cdfe8f96e2e4e0019757481,64d2fd46c836a06233681665,64dc7ef0e7d73c8f3e8b8b60,,,,,,,ctch,resources/DY.BMP,resources/DBN.BMP,Door3,0.307188349,-0.081139606,1,0,0,0.5814,optionRight,70,2290,1,42,0,42,0,1,,,,,,,,,,,,,,,,,,,,,,,,,,,,,,,,,,,,,,,
,,,,,,,,2023-08-16_08h47.16.187,HF_wild_card,2022.2.4,MacIntel,60.0024001,5cdfe8f96e2e4e0019757481,64d2fd46c836a06233681665,64dc7ef0e7d73c8f3e8b8b60,,,,,,,decisionTrl,resources/DR.BMP,resources/DY.BMP,Door2,0.382846467,-0.072261379,1,0,0,1.1316,optionRight,20,2310,1,43,0,43,0,1,,,,,,,,,,,,,,,,,,,,,,,,,,,,,,,,,,,,,,,
,,,,,,,,2023-08-16_08h47.16.187,HF_wild_card,2022.2.4,MacIntel,60.0024001,5cdfe8f96e2e4e0019757481,64d2fd46c836a06233681665,64dc7ef0e7d73c8f3e8b8b60,,,,,,,,,,,,,,,,,,,,,,,,,,0,0,0,0,1,,,,,,,,,,,,,,,,,,,,,,,,,,,,,,,,,,
,,,,,,,,2023-08-16_08h47.16.187,HF_wild_card,2022.2.4,MacIntel,60.0024001,5cdfe8f96e2e4e0019757481,64d2fd46c836a06233681665,64dc7ef0e7d73c8f3e8b8b60,,,,,,,decisionTrl,resources/DBN.BMP,resources/DG.BMP,Door3,-0.402598505,0.015909477,1,0,0,1.0588,optionLeft,70,2380,2,0,0,0,0,1,,,,,,,,,,,,,,,,,,,,,,,,,,,,,,,,,,,,,,,
,,,,,,,,2023-08-16_08h47.16.187,HF_wild_card,2022.2.4,MacIntel,60.0024001,5cdfe8f96e2e4e0019757481,64d2fd46c836a06233681665,64dc7ef0e7d73c8f3e8b8b60,,,,,,,decisionTrl,resources/DY.BMP,resources/DR.BMP,Door1,0.436404552,-0.019662874,1,0,0,0.9476,optionRight,30,2410,2,1,0,1,0,1,,,,,,,,,,,,,,,,,,,,,,,,,,,,,,,,,,,,,,,
,,,,,,,,2023-08-16_08h47.16.187,HF_wild_card,2022.2.4,MacIntel,60.0024001,5cdfe8f96e2e4e0019757481,64d2fd46c836a06233681665,64dc7ef0e7d73c8f3e8b8b60,,,,,,,decisionTrl,resources/DR.BMP,resources/DY.BMP,Door1,-0.472601053,-0.1130732,1,0,0,0.5208,optionLeft,30,2440,2,2,0,2,0,1,,,,,,,,,,,,,,,,,,,,,,,,,,,,,,,,,,,,,,,
,,,,,,,,2023-08-16_08h47.16.187,HF_wild_card,2022.2.4,MacIntel,60.0024001,5cdfe8f96e2e4e0019757481,64d2fd46c836a06233681665,64dc7ef0e7d73c8f3e8b8b60,,,,,,,decisionTrl,resources/DR.BMP,resources/DY.BMP,Door2,0.506899626,-0.088956352,1,0,0,0.5139,optionRight,40,2480,2,3,0,3,0,1,,,,,,,,,,,,,,,,,,,,,,,,,,,,,,,,,,,,,,,
,,,,,,,,2023-08-16_08h47.16.187,HF_wild_card,2022.2.4,MacIntel,60.0024001,5cdfe8f96e2e4e0019757481,64d2fd46c836a06233681665,64dc7ef0e7d73c8f3e8b8b60,,,,,,,decisionTrl,resources/DBN.BMP,resources/DG.BMP,Door3,-0.342527174,-0.06564623,1,0,0,0.4633,optionLeft,70,2550,2,4,0,4,0,1,,,,,,,,,,,,,,,,,,,,,,,,,,,,,,,,,,,,,,,
,,,,,,,,2023-08-16_08h47.16.187,HF_wild_card,2022.2.4,MacIntel,60.0024001,5cdfe8f96e2e4e0019757481,64d2fd46c836a06233681665,64dc7ef0e7d73c8f3e8b8b60,,,,,,,decisionTrl,resources/DG.BMP,resources/DBN.BMP,Door3,0.32970873,-0.009735904,1,0,0,0.6781,optionRight,70,2620,2,5,0,5,0,1,,,,,,,,,,,,,,,,,,,,,,,,,,,,,,,,,,,,,,,
,,,,,,,,2023-08-16_08h47.16.187,HF_wild_card,2022.2.4,MacIntel,60.0024001,5cdfe8f96e2e4e0019757481,64d2fd46c836a06233681665,64dc7ef0e7d73c8f3e8b8b60,,,,,,,sngl,resources/DG.BMP,resources/Empty.png,Door4,0.228940217,0.117951766,1,0,0,7.7307,optionLeft,60,2680,2,6,0,6,0,1,,,,,,,,,,,,,,,,,,,,,,,,,,,,,,,,,,,,,,,
,,,,,,,,2023-08-16_08h47.16.187,HF_wild_card,2022.2.4,MacIntel,60.0024001,5cdfe8f96e2e4e0019757481,64d2fd46c836a06233681665,64dc7ef0e7d73c8f3e8b8b60,,,,,,,decisionTrl,resources/DY.BMP,resources/DR.BMP,Door2,-0.38648947,-0.077840523,1,0,0,0.5642,optionLeft,40,2720,2,7,0,7,0,1,,,,,,,,,,,,,,,,,,,,,,,,,,,,,,,,,,,,,,,
,,,,,,,,2023-08-16_08h47.16.187,HF_wild_card,2022.2.4,MacIntel,60.0024001,5cdfe8f96e2e4e0019757481,64d2fd46c836a06233681665,64dc7ef0e7d73c8f3e8b8b60,,,,,,,ctch,resources/DBN.BMP,resources/DY.BMP,Door3,-0.423879076,-0.086841882,1,0,0,0.5802,optionLeft,70,2790,2,8,0,8,0,1,,,,,,,,,,,,,,,,,,,,,,,,,,,,,,,,,,,,,,,
,,,,,,,,2023-08-16_08h47.16.187,HF_wild_card,2022.2.4,MacIntel,60.0024001,5cdfe8f96e2e4e0019757481,64d2fd46c836a06233681665,64dc7ef0e7d73c8f3e8b8b60,,,,,,,decisionTrl,resources/DB.BMP,resources/DBN.BMP,Door3,0.421501359,-0.034366508,1,0,0,0.4456,optionRight,70,2860,2,9,0,9,0,1,,,,,,,,,,,,,,,,,,,,,,,,,,,,,,,,,,,,,,,
,,,,,,,,2023-08-16_08h47.16.187,HF_wild_card,2022.2.4,MacIntel,60.0024001,5cdfe8f96e2e4e0019757481,64d2fd46c836a06233681665,64dc7ef0e7d73c8f3e8b8b60,,,,,,,decisionTrl,resources/DY.BMP,resources/DR.BMP,Door2,-0.383262568,-0.047571332,1,0,0,0.7142,optionLeft,20,2880,2,10,0,10,0,1,,,,,,,,,,,,,,,,,,,,,,,,,,,,,,,,,,,,,,,
,,,,,,,,2023-08-16_08h47.16.187,HF_wild_card,2022.2.4,MacIntel,60.0024001,5cdfe8f96e2e4e0019757481,64d2fd46c836a06233681665,64dc7ef0e7d73c8f3e8b8b60,,,,,,,ctch,resources/DR.BMP,resources/DG.BMP,Door1,-0.318448539,-0.080617357,1,0,0,0.5304,optionLeft,30,2910,2,11,0,11,0,1,,,,,,,,,,,,,,,,,,,,,,,,,,,,,,,,,,,,,,,
,,,,,,,,2023-08-16_08h47.16.187,HF_wild_card,2022.2.4,MacIntel,60.0024001,5cdfe8f96e2e4e0019757481,64d2fd46c836a06233681665,64dc7ef0e7d73c8f3e8b8b60,,,,,,,sngl,resources/DR.BMP,resources/Empty.png,Door1,-0.347142493,-0.061026664,1,0,0,0.5293,optionLeft,30,2940,2,12,0,12,0,1,,,,,,,,,,,,,,,,,,,,,,,,,,,,,,,,,,,,,,,
,,,,,,,,2023-08-16_08h47.16.187,HF_wild_card,2022.2.4,MacIntel,60.0024001,5cdfe8f96e2e4e0019757481,64d2fd46c836a06233681665,64dc7ef0e7d73c8f3e8b8b60,,,,,,,decisionTrl,resources/DBN.BMP,resources/DB.BMP,Door3,-0.352186651,-0.049600883,1,0,0,0.5826,optionLeft,70,3010,2,13,0,13,0,1,,,,,,,,,,,,,,,,,,,,,,,,,,,,,,,,,,,,,,,
,,,,,,,,2023-08-16_08h47.16.187,HF_wild_card,2022.2.4,MacIntel,60.0024001,5cdfe8f96e2e4e0019757481,64d2fd46c836a06233681665,64dc7ef0e7d73c8f3e8b8b60,,,,,,,ctch,resources/DBN.BMP,resources/DY.BMP,Door3,-0.35746858,-0.014461617,1,0,0,0.7463,optionLeft,70,3080,2,14,0,14,0,1,,,,,,,,,,,,,,,,,,,,,,,,,,,,,,,,,,,,,,,
,,,,,,,,2023-08-16_08h47.16.187,HF_wild_card,2022.2.4,MacIntel,60.0024001,5cdfe8f96e2e4e0019757481,64d2fd46c836a06233681665,64dc7ef0e7d73c8f3e8b8b60,,,,,,,ctch,resources/DY.BMP,resources/DBN.BMP,Door3,0.406063179,0.000853431,1,0,0,0.9151,optionRight,70,3150,2,15,0,15,0,1,,,,,,,,,,,,,,,,,,,,,,,,,,,,,,,,,,,,,,,
,,,,,,,,2023-08-16_08h47.16.187,HF_wild_card,2022.2.4,MacIntel,60.0024001,5cdfe8f96e2e4e0019757481,64d2fd46c836a06233681665,64dc7ef0e7d73c8f3e8b8b60,,,,,,,decisionTrl,resources/DR.BMP,resources/DB.BMP,WildCard_NonEx,0.24310462,-0.068151325,1,0,0,1.0003,optionRight,55,3205,2,16,0,16,0,1,,,,,,,,,,,,,,,,,,,,,,,,,,,,,,,,,,,,,,,
,,,,,,,,2023-08-16_08h47.16.187,HF_wild_card,2022.2.4,MacIntel,60.0024001,5cdfe8f96e2e4e0019757481,64d2fd46c836a06233681665,64dc7ef0e7d73c8f3e8b8b60,,,,,,,sngl,resources/Empty.png,resources/DBN.BMP,Door3,0.36341712,-0.026774796,1,0,0,0.4977,optionRight,70,3275,2,17,0,17,0,1,,,,,,,,,,,,,,,,,,,,,,,,,,,,,,,,,,,,,,,
,,,,,,,,2023-08-16_08h47.16.187,HF_wild_card,2022.2.4,MacIntel,60.0024001,5cdfe8f96e2e4e0019757481,64d2fd46c836a06233681665,64dc7ef0e7d73c8f3e8b8b60,,,,,,,sngl,resources/Empty.png,resources/DY.BMP,Door2,-0.03628142,-0.026261039,1,0,0,1.5475,optionRight,40,3315,2,18,0,18,0,1,,,,,,,,,,,,,,,,,,,,,,,,,,,,,,,,,,,,,,,
,,,,,,,,2023-08-16_08h47.16.187,HF_wild_card,2022.2.4,MacIntel,60.0024001,5cdfe8f96e2e4e0019757481,64d2fd46c836a06233681665,64dc7ef0e7d73c8f3e8b8b60,,,,,,,sngl,resources/DB.BMP,resources/Empty.png,WildCard_NonEx,-0.356831692,0.010198709,1,0,0,0.6881,optionLeft,55,3370,2,19,0,19,0,1,,,,,,,,,,,,,,,,,,,,,,,,,,,,,,,,,,,,,,,
,,,,,,,,2023-08-16_08h47.16.187,HF_wild_card,2022.2.4,MacIntel,60.0024001,5cdfe8f96e2e4e0019757481,64d2fd46c836a06233681665,64dc7ef0e7d73c8f3e8b8b60,,,,,,,decisionTrl,resources/DR.BMP,resources/DY.BMP,Door1,-0.311990489,-0.000390625,1,0,0,0.5112,optionLeft,30,3400,2,20,0,20,0,1,,,,,,,,,,,,,,,,,,,,,,,,,,,,,,,,,,,,,,,
,,,,,,,,2023-08-16_08h47.16.187,HF_wild_card,2022.2.4,MacIntel,60.0024001,5cdfe8f96e2e4e0019757481,64d2fd46c836a06233681665,64dc7ef0e7d73c8f3e8b8b60,,,,,,,decisionTrl,resources/DY.BMP,resources/DB.BMP,Door2,-0.373751698,-0.056602412,1,0,0,0.5655,optionLeft,20,3420,2,21,0,21,0,1,,,,,,,,,,,,,,,,,,,,,,,,,,,,,,,,,,,,,,,
,,,,,,,,2023-08-16_08h47.16.187,HF_wild_card,2022.2.4,MacIntel,60.0024001,5cdfe8f96e2e4e0019757481,64d2fd46c836a06233681665,64dc7ef0e7d73c8f3e8b8b60,,,,,,,sngl,resources/Empty.png,resources/DB.BMP,WildCard_NonEx,0.403014606,-0.068333899,1,0,0,0.4779,optionRight,55,3475,2,22,0,22,0,1,,,,,,,,,,,,,,,,,,,,,,,,,,,,,,,,,,,,,,,
,,,,,,,,2023-08-16_08h47.16.187,HF_wild_card,2022.2.4,MacIntel,60.0024001,5cdfe8f96e2e4e0019757481,64d2fd46c836a06233681665,64dc7ef0e7d73c8f3e8b8b60,,,,,,,decisionTrl,resources/DBN.BMP,resources/DG.BMP,Door3,-0.364975374,-0.091907269,1,0,0,0.4975,optionLeft,70,3545,2,23,0,23,0,1,,,,,,,,,,,,,,,,,,,,,,,,,,,,,,,,,,,,,,,
,,,,,,,,2023-08-16_08h47.16.187,HF_wild_card,2022.2.4,MacIntel,60.0024001,5cdfe8f96e2e4e0019757481,64d2fd46c836a06233681665,64dc7ef0e7d73c8f3e8b8b60,,,,,,,sngl,resources/Empty.png,resources/DR.BMP,Door1,0.515714164,-0.105995245,1,0,0,0.4362,optionRight,30,3575,2,24,0,24,0,1,,,,,,,,,,,,,,,,,,,,,,,,,,,,,,,,,,,,,,,
,,,,,,,,2023-08-16_08h47.16.187,HF_wild_card,2022.2.4,MacIntel,60.0024001,5cdfe8f96e2e4e0019757481,64d2fd46c836a06233681665,64dc7ef0e7d73c8f3e8b8b60,,,,,,,ctch,resources/DG.BMP,resources/DR.BMP,Door4,-0.290056046,-0.008194633,1,0,0,0.4294,optionLeft,60,3635,2,25,0,25,0,1,,,,,,,,,,,,,,,,,,,,,,,,,,,,,,,,,,,,,,,
,,,,,,,,2023-08-16_08h47.16.187,HF_wild_card,2022.2.4,MacIntel,60.0024001,5cdfe8f96e2e4e0019757481,64d2fd46c836a06233681665,64dc7ef0e7d73c8f3e8b8b60,,,,,,,decisionTrl,resources/DG.BMP,resources/DB.BMP,Door4,-0.348717731,-0.072142493,1,0,0,0.4816,optionLeft,80,3715,2,26,0,26,0,1,,,,,,,,,,,,,,,,,,,,,,,,,,,,,,,,,,,,,,,
,,,,,,,,2023-08-16_08h47.16.187,HF_wild_card,2022.2.4,MacIntel,60.0024001,5cdfe8f96e2e4e0019757481,64d2fd46c836a06233681665,64dc7ef0e7d73c8f3e8b8b60,,,,,,,decisionTrl,resources/DBN.BMP,resources/DG.BMP,Door3,-0.375161345,-0.115043308,1,0,0,0.4959,optionLeft,70,3785,2,27,0,27,0,1,,,,,,,,,,,,,,,,,,,,,,,,,,,,,,,,,,,,,,,
,,,,,,,,2023-08-16_08h47.16.187,HF_wild_card,2022.2.4,MacIntel,60.0024001,5cdfe8f96e2e4e0019757481,64d2fd46c836a06233681665,64dc7ef0e7d73c8f3e8b8b60,,,,,,,ctch,resources/DY.BMP,resources/DBN.BMP,Door3,0.371263587,-0.044467561,1,0,0,0.73,optionRight,70,3855,2,28,0,28,0,1,,,,,,,,,,,,,,,,,,,,,,,,,,,,,,,,,,,,,,,
,,,,,,,,2023-08-16_08h47.16.187,HF_wild_card,2022.2.4,MacIntel,60.0024001,5cdfe8f96e2e4e0019757481,64d2fd46c836a06233681665,64dc7ef0e7d73c8f3e8b8b60,,,,,,,decisionTrl,resources/DY.BMP,resources/DR.BMP,Door2,-0.211175272,-0.055439029,1,0,0,0.6144,optionLeft,20,3875,2,29,0,29,0,1,,,,,,,,,,,,,,,,,,,,,,,,,,,,,,,,,,,,,,,
,,,,,,,,2023-08-16_08h47.16.187,HF_wild_card,2022.2.4,MacIntel,60.0024001,5cdfe8f96e2e4e0019757481,64d2fd46c836a06233681665,64dc7ef0e7d73c8f3e8b8b60,,,,,,,sngl,resources/Empty.png,resources/DB.BMP,WildCard_NonEx,0.461001189,-0.012661345,1,0,0,0.4305,optionRight,45,3920,2,30,0,30,0,1,,,,,,,,,,,,,,,,,,,,,,,,,,,,,,,,,,,,,,,
,,,,,,,,2023-08-16_08h47.16.187,HF_wild_card,2022.2.4,MacIntel,60.0024001,5cdfe8f96e2e4e0019757481,64d2fd46c836a06233681665,64dc7ef0e7d73c8f3e8b8b60,,,,,,,decisionTrl,resources/DG.BMP,resources/DBN.BMP,Door3,0.514542289,-0.005502717,1,0,0,0.6481,optionRight,70,3990,2,31,0,31,0,1,,,,,,,,,,,,,,,,,,,,,,,,,,,,,,,,,,,,,,,
,,,,,,,,2023-08-16_08h47.16.187,HF_wild_card,2022.2.4,MacIntel,60.0024001,5cdfe8f96e2e4e0019757481,64d2fd46c836a06233681665,64dc7ef0e7d73c8f3e8b8b60,,,,,,,decisionTrl,resources/DG.BMP,resources/DBN.BMP,Door3,0.377556046,-0.05769786,1,0,0,0.4778,optionRight,70,4060,2,32,0,32,0,1,,,,,,,,,,,,,,,,,,,,,,,,,,,,,,,,,,,,,,,
,,,,,,,,2023-08-16_08h47.16.187,HF_wild_card,2022.2.4,MacIntel,60.0024001,5cdfe8f96e2e4e0019757481,64d2fd46c836a06233681665,64dc7ef0e7d73c8f3e8b8b60,,,,,,,decisionTrl,resources/DB.BMP,resources/DR.BMP,WildCard_NonEx,-0.337359885,0.003613281,1,0,0,1.5477,optionLeft,55,4115,2,33,0,33,0,1,,,,,,,,,,,,,,,,,,,,,,,,,,,,,,,,,,,,,,,
,,,,,,,,2023-08-16_08h47.16.187,HF_wild_card,2022.2.4,MacIntel,60.0024001,5cdfe8f96e2e4e0019757481,64d2fd46c836a06233681665,64dc7ef0e7d73c8f3e8b8b60,,,,,,,ctch,resources/DR.BMP,resources/DG.BMP,Door4,0.233869735,-0.043240489,1,0,0,0.5957,optionRight,60,4175,2,34,0,34,0,1,,,,,,,,,,,,,,,,,,,,,,,,,,,,,,,,,,,,,,,
,,,,,,,,2023-08-16_08h47.16.187,HF_wild_card,2022.2.4,MacIntel,60.0024001,5cdfe8f96e2e4e0019757481,64d2fd46c836a06233681665,64dc7ef0e7d73c8f3e8b8b60,,,,,,,decisionTrl,resources/DB.BMP,resources/DG.BMP,WildCard_NonEx,-0.472957711,-0.090005095,1,0,0,0.5665,optionLeft,45,4220,2,35,0,35,0,1,,,,,,,,,,,,,,,,,,,,,,,,,,,,,,,,,,,,,,,
,,,,,,,,2023-08-16_08h47.16.187,HF_wild_card,2022.2.4,MacIntel,60.0024001,5cdfe8f96e2e4e0019757481,64d2fd46c836a06233681665,64dc7ef0e7d73c8f3e8b8b60,,,,,,,ctch,resources/DG.BMP,resources/DR.BMP,Door4,-0.267030401,-0.013650645,1,0,0,0.5792,optionLeft,60,4280,2,36,0,36,0,1,,,,,,,,,,,,,,,,,,,,,,,,,,,,,,,,,,,,,,,
,,,,,,,,2023-08-16_08h47.16.187,HF_wild_card,2022.2.4,MacIntel,60.0024001,5cdfe8f96e2e4e0019757481,64d2fd46c836a06233681665,64dc7ef0e7d73c8f3e8b8b60,,,,,,,decisionTrl,resources/DB.BMP,resources/DY.BMP,Door2,0.474405571,-0.053082541,1,0,0,0.9468,optionRight,20,4300,2,37,0,37,0,1,,,,,,,,,,,,,,,,,,,,,,,,,,,,,,,,,,,,,,,
,,,,,,,,2023-08-16_08h47.16.187,HF_wild_card,2022.2.4,MacIntel,60.0024001,5cdfe8f96e2e4e0019757481,64d2fd46c836a06233681665,64dc7ef0e7d73c8f3e8b8b60,,,,,,,sngl,resources/Empty.png,resources/DG.BMP,Door4,0.335092561,-0.028413723,1,0,0,0.4956,optionRight,80,4380,2,38,0,38,0,1,,,,,,,,,,,,,,,,,,,,,,,,,,,,,,,,,,,,,,,
,,,,,,,,2023-08-16_08h47.16.187,HF_wild_card,2022.2.4,MacIntel,60.0024001,5cdfe8f96e2e4e0019757481,64d2fd46c836a06233681665,64dc7ef0e7d73c8f3e8b8b60,,,,,,,sngl,resources/DB.BMP,resources/Empty.png,WildCard_NonEx,-0.380434783,-0.079487942,1,0,0,0.4802,optionLeft,45,4425,2,39,0,39,0,1,,,,,,,,,,,,,,,,,,,,,,,,,,,,,,,,,,,,,,,
,,,,,,,,2023-08-16_08h47.16.187,HF_wild_card,2022.2.4,MacIntel,60.0024001,5cdfe8f96e2e4e0019757481,64d2fd46c836a06233681665,64dc7ef0e7d73c8f3e8b8b60,,,,,,,sngl,resources/DY.BMP,resources/Empty.png,Door2,-0.329309613,-0.061570143,1,0,0,0.6303,optionLeft,20,4445,2,40,0,40,0,1,,,,,,,,,,,,,,,,,,,,,,,,,,,,,,,,,,,,,,,
,,,,,,,,2023-08-16_08h47.16.187,HF_wild_card,2022.2.4,MacIntel,60.0024001,5cdfe8f96e2e4e0019757481,64d2fd46c836a06233681665,64dc7ef0e7d73c8f3e8b8b60,,,,,,,decisionTrl,resources/DR.BMP,resources/DY.BMP,Door1,-0.434693444,-0.069807235,1,0,0,0.5812,optionLeft,30,4475,2,41,0,41,0,1,,,,,,,,,,,,,,,,,,,,,,,,,,,,,,,,,,,,,,,
,,,,,,,,2023-08-16_08h47.16.187,HF_wild_card,2022.2.4,MacIntel,60.0024001,5cdfe8f96e2e4e0019757481,64d2fd46c836a06233681665,64dc7ef0e7d73c8f3e8b8b60,,,,,,,decisionTrl,resources/DG.BMP,resources/DBN.BMP,Door4,-0.343686311,-0.072443954,1,0,0,0.4983,optionLeft,60,4535,2,42,0,42,0,1,,,,,,,,,,,,,,,,,,,,,,,,,,,,,,,,,,,,,,,
,,,,,,,,2023-08-16_08h47.16.187,HF_wild_card,2022.2.4,MacIntel,60.0024001,5cdfe8f96e2e4e0019757481,64d2fd46c836a06233681665,64dc7ef0e7d73c8f3e8b8b60,,,,,,,sngl,resources/DBN.BMP,resources/Empty.png,Door3,-0.336858865,-0.049808933,1,0,0,0.5113,optionLeft,70,4605,2,43,0,43,0,1,,,,,,,,,,,,,,,,,,,,,,,,,,,,,,,,,,,,,,,
,,,,,,,,2023-08-16_08h47.16.187,HF_wild_card,2022.2.4,MacIntel,60.0024001,5cdfe8f96e2e4e0019757481,64d2fd46c836a06233681665,64dc7ef0e7d73c8f3e8b8b60,,,,,,,,,,,,,,,,,,,,,,,,,,1,0,1,0,1,,,,,,,,,,,,,,,,,,,,,,,,,,,,,,,,,,
,,,,,,,,2023-08-16_08h47.16.187,HF_wild_card,2022.2.4,MacIntel,60.0024001,5cdfe8f96e2e4e0019757481,64d2fd46c836a06233681665,64dc7ef0e7d73c8f3e8b8b60,,,,,,,decisionTrl,resources/DG.BMP,resources/DB.BMP,Door4,-0.261922554,-0.056058933,1,0,0,0.8189,optionLeft,80,4685,3,0,0,0,0,1,,,,,,,,,,,,,,,,,,,,,,,,,,,,,,,,,,,,,,,
,,,,,,,,2023-08-16_08h47.16.187,HF_wild_card,2022.2.4,MacIntel,60.0024001,5cdfe8f96e2e4e0019757481,64d2fd46c836a06233681665,64dc7ef0e7d73c8f3e8b8b60,,,,,,,decisionTrl,resources/DR.BMP,resources/DB.BMP,WildCard_NonEx,0.354530401,-0.099363111,1,0,0,1.4475,optionRight,55,4740,3,1,0,1,0,1,,,,,,,,,,,,,,,,,,,,,,,,,,,,,,,,,,,,,,,
,,,,,,,,2023-08-16_08h47.16.187,HF_wild_card,2022.2.4,MacIntel,60.0024001,5cdfe8f96e2e4e0019757481,64d2fd46c836a06233681665,64dc7ef0e7d73c8f3e8b8b60,,,,,,,decisionTrl,resources/DB.BMP,resources/DR.BMP,WildCard_NonEx,-0.231925102,-0.007447351,1,0,0,0.5476,optionLeft,45,4785,3,2,0,2,0,1,,,,,,,,,,,,,,,,,,,,,,,,,,,,,,,,,,,,,,,
,,,,,,,,2023-08-16_08h47.16.187,HF_wild_card,2022.2.4,MacIntel,60.0024001,5cdfe8f96e2e4e0019757481,64d2fd46c836a06233681665,64dc7ef0e7d73c8f3e8b8b60,,,,,,,sngl,resources/DBN.BMP,resources/Empty.png,Door3,-0.296467391,-0.044641644,1,0,0,0.5804,optionLeft,70,4855,3,3,0,3,0,1,,,,,,,,,,,,,,,,,,,,,,,,,,,,,,,,,,,,,,,
,,,,,,,,2023-08-16_08h47.16.187,HF_wild_card,2022.2.4,MacIntel,60.0024001,5cdfe8f96e2e4e0019757481,64d2fd46c836a06233681665,64dc7ef0e7d73c8f3e8b8b60,,,,,,,ctch,resources/DY.BMP,resources/DBN.BMP,Door3,0.341903023,-0.008767833,1,0,0,0.5279,optionRight,70,4925,3,4,0,4,0,1,,,,,,,,,,,,,,,,,,,,,,,,,,,,,,,,,,,,,,,
,,,,,,,,2023-08-16_08h47.16.187,HF_wild_card,2022.2.4,MacIntel,60.0024001,5cdfe8f96e2e4e0019757481,64d2fd46c836a06233681665,64dc7ef0e7d73c8f3e8b8b60,,,,,,,decisionTrl,resources/DY.BMP,resources/DR.BMP,Door1,0.362461787,-0.049673064,1,0,0,0.8114,optionRight,30,4955,3,5,0,5,0,1,,,,,,,,,,,,,,,,,,,,,,,,,,,,,,,,,,,,,,,
,,,,,,,,2023-08-16_08h47.16.187,HF_wild_card,2022.2.4,MacIntel,60.0024001,5cdfe8f96e2e4e0019757481,64d2fd46c836a06233681665,64dc7ef0e7d73c8f3e8b8b60,,,,,,,sngl,resources/Empty.png,resources/DBN.BMP,Door3,0.358232846,-0.028269361,1,0,0,0.4308,optionRight,70,5025,3,6,0,6,0,1,,,,,,,,,,,,,,,,,,,,,,,,,,,,,,,,,,,,,,,
,,,,,,,,2023-08-16_08h47.16.187,HF_wild_card,2022.2.4,MacIntel,60.0024001,5cdfe8f96e2e4e0019757481,64d2fd46c836a06233681665,64dc7ef0e7d73c8f3e8b8b60,,,,,,,decisionTrl,resources/DB.BMP,resources/DBN.BMP,Door3,0.273564878,-0.061663553,1,0,0,0.4617,optionRight,70,5095,3,7,0,7,0,1,,,,,,,,,,,,,,,,,,,,,,,,,,,,,,,,,,,,,,,
,,,,,,,,2023-08-16_08h47.16.187,HF_wild_card,2022.2.4,MacIntel,60.0024001,5cdfe8f96e2e4e0019757481,64d2fd46c836a06233681665,64dc7ef0e7d73c8f3e8b8b60,,,,,,,decisionTrl,resources/DB.BMP,resources/DY.BMP,WildCard_NonEx,-0.30064538,-0.057897418,1,0,0,0.6984,optionLeft,55,5150,3,8,0,8,0,1,,,,,,,,,,,,,,,,,,,,,,,,,,,,,,,,,,,,,,,
,,,,,,,,2023-08-16_08h47.16.187,HF_wild_card,2022.2.4,MacIntel,60.0024001,5cdfe8f96e2e4e0019757481,64d2fd46c836a06233681665,64dc7ef0e7d73c8f3e8b8b60,,,,,,,sngl,resources/DR.BMP,resources/Empty.png,Door1,-0.305090863,-0.045168139,1,0,0,0.4797,optionLeft,30,5180,3,9,0,9,0,1,,,,,,,,,,,,,,,,,,,,,,,,,,,,,,,,,,,,,,,
,,,,,,,,2023-08-16_08h47.16.187,HF_wild_card,2022.2.4,MacIntel,60.0024001,5cdfe8f96e2e4e0019757481,64d2fd46c836a06233681665,64dc7ef0e7d73c8f3e8b8b60,,,,,,,sngl,resources/DY.BMP,resources/Empty.png,Door2,-0.312219769,-0.115633492,1,0,0,0.4622,optionLeft,40,5220,3,10,0,10,0,1,,,,,,,,,,,,,,,,,,,,,,,,,,,,,,,,,,,,,,,
,,,,,,,,2023-08-16_08h47.16.187,HF_wild_card,2022.2.4,MacIntel,60.0024001,5cdfe8f96e2e4e0019757481,64d2fd46c836a06233681665,64dc7ef0e7d73c8f3e8b8b60,,,,,,,decisionTrl,resources/DY.BMP,resources/DB.BMP,Door2,-0.263667629,-0.065998641,1,0,0,0.6454,optionLeft,20,5240,3,11,0,11,0,1,,,,,,,,,,,,,,,,,,,,,,,,,,,,,,,,,,,,,,,
,,,,,,,,2023-08-16_08h47.16.187,HF_wild_card,2022.2.4,MacIntel,60.0024001,5cdfe8f96e2e4e0019757481,64d2fd46c836a06233681665,64dc7ef0e7d73c8f3e8b8b60,,,,,,,sngl,resources/Empty.png,resources/DB.BMP,WildCard_NonEx,0.338998811,-0.014096467,1,0,0,0.6984,optionRight,45,5285,3,12,0,12,0,1,,,,,,,,,,,,,,,,,,,,,,,,,,,,,,,,,,,,,,,
,,,,,,,,2023-08-16_08h47.16.187,HF_wild_card,2022.2.4,MacIntel,60.0024001,5cdfe8f96e2e4e0019757481,64d2fd46c836a06233681665,64dc7ef0e7d73c8f3e8b8b60,,,,,,,decisionTrl,resources/DBN.BMP,resources/DB.BMP,Door3,-0.42635445,-0.005923064,1,0,0,0.6977,optionLeft,70,5355,3,13,0,13,0,1,,,,,,,,,,,,,,,,,,,,,,,,,,,,,,,,,,,,,,,
,,,,,,,,2023-08-16_08h47.16.187,HF_wild_card,2022.2.4,MacIntel,60.0024001,5cdfe8f96e2e4e0019757481,64d2fd46c836a06233681665,64dc7ef0e7d73c8f3e8b8b60,,,,,,,sngl,resources/Empty.png,resources/DG.BMP,Door4,-0.335461957,-0.053082541,1,0,0,0.58,optionRight,60,5415,3,14,0,14,0,1,,,,,,,,,,,,,,,,,,,,,,,,,,,,,,,,,,,,,,,
,,,,,,,,2023-08-16_08h47.16.187,HF_wild_card,2022.2.4,MacIntel,60.0024001,5cdfe8f96e2e4e0019757481,64d2fd46c836a06233681665,64dc7ef0e7d73c8f3e8b8b60,,,,,,,ctch,resources/DY.BMP,resources/DBN.BMP,Door3,0.35209324,-0.040743886,1,0,0,0.5486,optionRight,70,5485,3,15,0,15,0,1,,,,,,,,,,,,,,,,,,,,,,,,,,,,,,,,,,,,,,,
,,,,,,,,2023-08-16_08h47.16.187,HF_wild_card,2022.2.4,MacIntel,60.0024001,5cdfe8f96e2e4e0019757481,64d2fd46c836a06233681665,64dc7ef0e7d73c8f3e8b8b60,,,,,,,decisionTrl,resources/DG.BMP,resources/DBN.BMP,Door3,0.357286005,-0.05379161,1,0,0,0.6309,optionRight,70,5555,3,16,0,16,0,1,,,,,,,,,,,,,,,,,,,,,,,,,,,,,,,,,,,,,,,
,,,,,,,,2023-08-16_08h47.16.187,HF_wild_card,2022.2.4,MacIntel,60.0024001,5cdfe8f96e2e4e0019757481,64d2fd46c836a06233681665,64dc7ef0e7d73c8f3e8b8b60,,,,,,,decisionTrl,resources/DG.BMP,resources/DBN.BMP,Door3,0.310920516,-0.030600374,1,0,0,0.5663,optionRight,70,5625,3,17,0,17,0,1,,,,,,,,,,,,,,,,,,,,,,,,,,,,,,,,,,,,,,,
,,,,,,,,2023-08-16_08h47.16.187,HF_wild_card,2022.2.4,MacIntel,60.0024001,5cdfe8f96e2e4e0019757481,64d2fd46c836a06233681665,64dc7ef0e7d73c8f3e8b8b60,,,,,,,decisionTrl,resources/DY.BMP,resources/DR.BMP,Door2,-0.47511464,-0.065565557,1,0,0,0.6132,optionLeft,20,5645,3,18,0,18,0,1,,,,,,,,,,,,,,,,,,,,,,,,,,,,,,,,,,,,,,,
,,,,,,,,2023-08-16_08h47.16.187,HF_wild_card,2022.2.4,MacIntel,60.0024001,5cdfe8f96e2e4e0019757481,64d2fd46c836a06233681665,64dc7ef0e7d73c8f3e8b8b60,,,,,,,decisionTrl,resources/DR.BMP,resources/DY.BMP,Door2,0.358653193,-0.040845788,1,0,0,0.4297,optionRight,40,5685,3,19,0,19,0,1,,,,,,,,,,,,,,,,,,,,,,,,,,,,,,,,,,,,,,,
,,,,,,,,2023-08-16_08h47.16.187,HF_wild_card,2022.2.4,MacIntel,60.0024001,5cdfe8f96e2e4e0019757481,64d2fd46c836a06233681665,64dc7ef0e7d73c8f3e8b8b60,,,,,,,decisionTrl,resources/DB.BMP,resources/DG.BMP,WildCard_NonEx,-0.546263587,-0.01341712,1,0,0,0.6307,optionLeft,55,5740,3,20,0,20,0,1,,,,,,,,,,,,,,,,,,,,,,,,,,,,,,,,,,,,,,,
,,,,,,,,2023-08-16_08h47.16.187,HF_wild_card,2022.2.4,MacIntel,60.0024001,5cdfe8f96e2e4e0019757481,64d2fd46c836a06233681665,64dc7ef0e7d73c8f3e8b8b60,,,,,,,decisionTrl,resources/DY.BMP,resources/DR.BMP,Door1,0.340204654,-0.077301291,1,0,0,0.5627,optionRight,30,5770,3,21,0,21,0,1,,,,,,,,,,,,,,,,,,,,,,,,,,,,,,,,,,,,,,,
,,,,,,,,2023-08-16_08h47.16.187,HF_wild_card,2022.2.4,MacIntel,60.0024001,5cdfe8f96e2e4e0019757481,64d2fd46c836a06233681665,64dc7ef0e7d73c8f3e8b8b60,,,,,,,sngl,resources/Empty.png,resources/DB.BMP,WildCard_NonEx,0.259149966,-0.025891644,1,0,0,0.4477,optionRight,55,5825,3,22,0,22,0,1,,,,,,,,,,,,,,,,,,,,,,,,,,,,,,,,,,,,,,,
,,,,,,,,2023-08-16_08h47.16.187,HF_wild_card,2022.2.4,MacIntel,60.0024001,5cdfe8f96e2e4e0019757481,64d2fd46c836a06233681665,64dc7ef0e7d73c8f3e8b8b60,,,,,,,decisionTrl,resources/DG.BMP,resources/DBN.BMP,Door3,0.331283967,-0.080757473,1,0,0,0.5795,optionRight,70,5895,3,23,0,23,0,1,,,,,,,,,,,,,,,,,,,,,,,,,,,,,,,,,,,,,,,
,,,,,,,,2023-08-16_08h47.16.187,HF_wild_card,2022.2.4,MacIntel,60.0024001,5cdfe8f96e2e4e0019757481,64d2fd46c836a06233681665,64dc7ef0e7d73c8f3e8b8b60,,,,,,,sngl,resources/Empty.png,resources/DR.BMP,Door1,0.28315642,-0.067922045,1,0,0,0.4656,optionRight,30,5925,3,24,0,24,0,1,,,,,,,,,,,,,,,,,,,,,,,,,,,,,,,,,,,,,,,
,,,,,,,,2023-08-16_08h47.16.187,HF_wild_card,2022.2.4,MacIntel,60.0024001,5cdfe8f96e2e4e0019757481,64d2fd46c836a06233681665,64dc7ef0e7d73c8f3e8b8b60,,,,,,,decisionTrl,resources/DG.BMP,resources/DBN.BMP,Door3,0.269348675,-0.069671365,1,0,0,0.4807,optionRight,70,5995,3,25,0,25,0,1,,,,,,,,,,,,,,,,,,,,,,,,,,,,,,,,,,,,,,,
,,,,,,,,2023-08-16_08h47.16.187,HF_wild_card,2022.2.4,MacIntel,60.0024001,5cdfe8f96e2e4e0019757481,64d2fd46c836a06233681665,64dc7ef0e7d73c8f3e8b8b60,,,,,,,decisionTrl,resources/DBN.BMP,resources/DG.BMP,Door3,-0.293376359,0.005400815,1,0,0,0.5468,optionLeft,70,6065,3,26,0,26,0,1,,,,,,,,,,,,,,,,,,,,,,,,,,,,,,,,,,,,,,,
,,,,,,,,2023-08-16_08h47.16.187,HF_wild_card,2022.2.4,MacIntel,60.0024001,5cdfe8f96e2e4e0019757481,64d2fd46c836a06233681665,64dc7ef0e7d73c8f3e8b8b60,,,,,,,decisionTrl,resources/DR.BMP,resources/DY.BMP,Door1,-0.425878906,-0.049609375,1,0,0,0.7659,optionLeft,30,6095,3,27,0,27,0,1,,,,,,,,,,,,,,,,,,,,,,,,,,,,,,,,,,,,,,,
,,,,,,,,2023-08-16_08h47.16.187,HF_wild_card,2022.2.4,MacIntel,60.0024001,5cdfe8f96e2e4e0019757481,64d2fd46c836a06233681665,64dc7ef0e7d73c8f3e8b8b60,,,,,,,sngl,resources/DB.BMP,resources/Empty.png,WildCard_NonEx,-0.32780231,-0.10066661,1,0,0,0.4969,optionLeft,55,6150,3,28,0,28,0,1,,,,,,,,,,,,,,,,,,,,,,,,,,,,,,,,,,,,,,,
,,,,,,,,2023-08-16_08h47.16.187,HF_wild_card,2022.2.4,MacIntel,60.0024001,5cdfe8f96e2e4e0019757481,64d2fd46c836a06233681665,64dc7ef0e7d73c8f3e8b8b60,,,,,,,ctch,resources/DG.BMP,resources/DR.BMP,Door4,-0.326753567,-0.100186821,1,0,0,0.4814,optionLeft,60,6210,3,29,0,29,0,1,,,,,,,,,,,,,,,,,,,,,,,,,,,,,,,,,,,,,,,
,,,,,,,,2023-08-16_08h47.16.187,HF_wild_card,2022.2.4,MacIntel,60.0024001,5cdfe8f96e2e4e0019757481,64d2fd46c836a06233681665,64dc7ef0e7d73c8f3e8b8b60,,,,,,,decisionTrl,resources/DBN.BMP,resources/DG.BMP,Door4,0.307799762,-0.048369565,1,0,0,0.5627,optionRight,60,6270,3,30,0,30,0,1,,,,,,,,,,,,,,,,,,,,,,,,,,,,,,,,,,,,,,,
,,,,,,,,2023-08-16_08h47.16.187,HF_wild_card,2022.2.4,MacIntel,60.0024001,5cdfe8f96e2e4e0019757481,64d2fd46c836a06233681665,64dc7ef0e7d73c8f3e8b8b60,,,,,,,decisionTrl,resources/DR.BMP,resources/DY.BMP,Door1,-0.312525476,-0.053541101,1,0,0,0.529,optionLeft,30,6300,3,31,0,31,0,1,,,,,,,,,,,,,,,,,,,,,,,,,,,,,,,,,,,,,,,
,,,,,,,,2023-08-16_08h47.16.187,HF_wild_card,2022.2.4,MacIntel,60.0024001,5cdfe8f96e2e4e0019757481,64d2fd46c836a06233681665,64dc7ef0e7d73c8f3e8b8b60,,,,,,,decisionTrl,resources/DBN.BMP,resources/DG.BMP,Door3,-0.362763247,-0.036226223,1,0,0,0.5274,optionLeft,70,6370,3,32,0,32,0,1,,,,,,,,,,,,,,,,,,,,,,,,,,,,,,,,,,,,,,,
,,,,,,,,2023-08-16_08h47.16.187,HF_wild_card,2022.2.4,MacIntel,60.0024001,5cdfe8f96e2e4e0019757481,64d2fd46c836a06233681665,64dc7ef0e7d73c8f3e8b8b60,,,,,,,decisionTrl,resources/DR.BMP,resources/DY.BMP,Door2,0.29788553,-0.026740829,1,0,0,0.5134,optionRight,40,6410,3,33,0,33,0,1,,,,,,,,,,,,,,,,,,,,,,,,,,,,,,,,,,,,,,,
,,,,,,,,2023-08-16_08h47.16.187,HF_wild_card,2022.2.4,MacIntel,60.0024001,5cdfe8f96e2e4e0019757481,64d2fd46c836a06233681665,64dc7ef0e7d73c8f3e8b8b60,,,,,,,ctch,resources/DBN.BMP,resources/DY.BMP,Door2,0.44287534,-0.020287024,1,0,0,0.4505,optionRight,40,6450,3,34,0,34,0,1,,,,,,,,,,,,,,,,,,,,,,,,,,,,,,,,,,,,,,,
,,,,,,,,2023-08-16_08h47.16.187,HF_wild_card,2022.2.4,MacIntel,60.0024001,5cdfe8f96e2e4e0019757481,64d2fd46c836a06233681665,64dc7ef0e7d73c8f3e8b8b60,,,,,,,ctch,resources/DBN.BMP,resources/DY.BMP,Door3,-0.340005095,-0.063196332,1,0,0,0.5147,optionLeft,70,6520,3,35,0,35,0,1,,,,,,,,,,,,,,,,,,,,,,,,,,,,,,,,,,,,,,,
,,,,,,,,2023-08-16_08h47.16.187,HF_wild_card,2022.2.4,MacIntel,60.0024001,5cdfe8f96e2e4e0019757481,64d2fd46c836a06233681665,64dc7ef0e7d73c8f3e8b8b60,,,,,,,sngl,resources/DB.BMP,resources/Empty.png,WildCard_NonEx,-0.303944463,-0.055523947,1,0,0,0.5839,optionLeft,45,6565,3,36,0,36,0,1,,,,,,,,,,,,,,,,,,,,,,,,,,,,,,,,,,,,,,,
,,,,,,,,2023-08-16_08h47.16.187,HF_wild_card,2022.2.4,MacIntel,60.0024001,5cdfe8f96e2e4e0019757481,64d2fd46c836a06233681665,64dc7ef0e7d73c8f3e8b8b60,,,,,,,decisionTrl,resources/DBN.BMP,resources/DG.BMP,Door3,-0.291941236,-0.016321332,1,0,0,0.6868,optionLeft,70,6635,3,37,0,37,0,1,,,,,,,,,,,,,,,,,,,,,,,,,,,,,,,,,,,,,,,
,,,,,,,,2023-08-16_08h47.16.187,HF_wild_card,2022.2.4,MacIntel,60.0024001,5cdfe8f96e2e4e0019757481,64d2fd46c836a06233681665,64dc7ef0e7d73c8f3e8b8b60,,,,,,,sngl,resources/DG.BMP,resources/Empty.png,Door4,-0.28772928,-0.038875679,1,0,0,0.4791,optionLeft,80,6715,3,38,0,38,0,1,,,,,,,,,,,,,,,,,,,,,,,,,,,,,,,,,,,,,,,
,,,,,,,,2023-08-16_08h47.16.187,HF_wild_card,2022.2.4,MacIntel,60.0024001,5cdfe8f96e2e4e0019757481,64d2fd46c836a06233681665,64dc7ef0e7d73c8f3e8b8b60,,,,,,,decisionTrl,resources/DY.BMP,resources/DR.BMP,Door1,0.424524457,-0.072019361,1,0,0,0.9298,optionRight,30,6745,3,39,0,39,0,1,,,,,,,,,,,,,,,,,,,,,,,,,,,,,,,,,,,,,,,
,,,,,,,,2023-08-16_08h47.16.187,HF_wild_card,2022.2.4,MacIntel,60.0024001,5cdfe8f96e2e4e0019757481,64d2fd46c836a06233681665,64dc7ef0e7d73c8f3e8b8b60,,,,,,,sngl,resources/Empty.png,resources/DY.BMP,Door2,0.335589334,-0.06415591,1,0,0,0.4492,optionRight,20,6765,3,40,0,40,0,1,,,,,,,,,,,,,,,,,,,,,,,,,,,,,,,,,,,,,,,
,,,,,,,,2023-08-16_08h47.16.187,HF_wild_card,2022.2.4,MacIntel,60.0024001,5cdfe8f96e2e4e0019757481,64d2fd46c836a06233681665,64dc7ef0e7d73c8f3e8b8b60,,,,,,,ctch,resources/DG.BMP,resources/DR.BMP,Door4,-0.224375849,-0.057799762,1,0,0,0.4975,optionLeft,80,6845,3,41,0,41,0,1,,,,,,,,,,,,,,,,,,,,,,,,,,,,,,,,,,,,,,,
,,,,,,,,2023-08-16_08h47.16.187,HF_wild_card,2022.2.4,MacIntel,60.0024001,5cdfe8f96e2e4e0019757481,64d2fd46c836a06233681665,64dc7ef0e7d73c8f3e8b8b60,,,,,,,ctch,resources/DR.BMP,resources/DG.BMP,Door4,0.316711957,0.008623471,1,0,0,0.4819,optionRight,60,6905,3,42,0,42,0,1,,,,,,,,,,,,,,,,,,,,,,,,,,,,,,,,,,,,,,,
,,,,,,,,2023-08-16_08h47.16.187,HF_wild_card,2022.2.4,MacIntel,60.0024001,5cdfe8f96e2e4e0019757481,64d2fd46c836a06233681665,64dc7ef0e7d73c8f3e8b8b60,,,,,,,ctch,resources/DR.BMP,resources/DG.BMP,Door1,-0.427568784,-0.098450238,1,0,0,0.4799,optionLeft,30,6935,3,43,0,43,0,1,,,,,,,,,,,,,,,,,,,,,,,,,,,,,,,,,,,,,,,
,,,,,,,,2023-08-16_08h47.16.187,HF_wild_card,2022.2.4,MacIntel,60.0024001,5cdfe8f96e2e4e0019757481,64d2fd46c836a06233681665,64dc7ef0e7d73c8f3e8b8b60,,,,,,,,,,,,,,,,,,,,,,,,,,2,0,2,0,1,,,,,,,,,,,,,,,,,,,,,,,,,,,,,,,,,,
,,,,,,,,2023-08-16_08h47.16.187,HF_wild_card,2022.2.4,MacIntel,60.0024001,5cdfe8f96e2e4e0019757481,64d2fd46c836a06233681665,64dc7ef0e7d73c8f3e8b8b60,,,,,,,decisionTrl,resources/DP.BMP,resources/DBN.BMP,WildCard_Ex,-0.319900645,-0.048620075,1,0,0,0.9106,optionLeft,55,6990,4,0,0,0,0,1,,,,,,,,,,,,,,,,,,,,,,,,,,,,,,,,,,,,,,,
,,,,,,,,2023-08-16_08h47.16.187,HF_wild_card,2022.2.4,MacIntel,60.0024001,5cdfe8f96e2e4e0019757481,64d2fd46c836a06233681665,64dc7ef0e7d73c8f3e8b8b60,,,,,,,decisionTrl,resources/DG.BMP,resources/DBN.BMP,Door3,0.366703465,-0.004292629,1,0,0,0.4802,optionRight,70,7060,4,1,0,1,0,1,,,,,,,,,,,,,,,,,,,,,,,,,,,,,,,,,,,,,,,
,,,,,,,,2023-08-16_08h47.16.187,HF_wild_card,2022.2.4,MacIntel,60.0024001,5cdfe8f96e2e4e0019757481,64d2fd46c836a06233681665,64dc7ef0e7d73c8f3e8b8b60,,,,,,,decisionTrl,resources/DR.BMP,resources/DY.BMP,Door2,0.321403702,-0.021836787,1,0,0,0.7802,optionRight,20,7080,4,2,0,2,0,1,,,,,,,,,,,,,,,,,,,,,,,,,,,,,,,,,,,,,,,
,,,,,,,,2023-08-16_08h47.16.187,HF_wild_card,2022.2.4,MacIntel,60.0024001,5cdfe8f96e2e4e0019757481,64d2fd46c836a06233681665,64dc7ef0e7d73c8f3e8b8b60,,,,,,,sngl,resources/Empty.png,resources/DG.BMP,Door4,0.421548064,-0.037945822,1,0,0,0.4646,optionRight,80,7160,4,3,0,3,0,1,,,,,,,,,,,,,,,,,,,,,,,,,,,,,,,,,,,,,,,
,,,,,,,,2023-08-16_08h47.16.187,HF_wild_card,2022.2.4,MacIntel,60.0024001,5cdfe8f96e2e4e0019757481,64d2fd46c836a06233681665,64dc7ef0e7d73c8f3e8b8b60,,,,,,,ctch,resources/DY.BMP,resources/DBN.BMP,Door3,0.344964334,0.009502378,1,0,0,0.5333,optionRight,70,7230,4,4,0,4,0,1,,,,,,,,,,,,,,,,,,,,,,,,,,,,,,,,,,,,,,,
,,,,,,,,2023-08-16_08h47.16.187,HF_wild_card,2022.2.4,MacIntel,60.0024001,5cdfe8f96e2e4e0019757481,64d2fd46c836a06233681665,64dc7ef0e7d73c8f3e8b8b60,,,,,,,decisionTrl,resources/DR.BMP,resources/DY.BMP,Door1,-0.42633322,-0.070019531,1,0,0,1.3645,optionLeft,30,7260,4,5,0,5,0,1,,,,,,,,,,,,,,,,,,,,,,,,,,,,,,,,,,,,,,,
,,,,,,,,2023-08-16_08h47.16.187,HF_wild_card,2022.2.4,MacIntel,60.0024001,5cdfe8f96e2e4e0019757481,64d2fd46c836a06233681665,64dc7ef0e7d73c8f3e8b8b60,,,,,,,ctch,resources/DR.BMP,resources/DG.BMP,Door4,0.292055876,-0.014818274,1,0,0,0.4802,optionRight,60,7320,4,6,0,6,0,1,,,,,,,,,,,,,,,,,,,,,,,,,,,,,,,,,,,,,,,
,,,,,,,,2023-08-16_08h47.16.187,HF_wild_card,2022.2.4,MacIntel,60.0024001,5cdfe8f96e2e4e0019757481,64d2fd46c836a06233681665,64dc7ef0e7d73c8f3e8b8b60,,,,,,,ctch,resources/DG.BMP,resources/DR.BMP,Door4,-0.331513247,-0.027840523,1,0,0,0.4781,optionLeft,60,7380,4,7,0,7,0,1,,,,,,,,,,,,,,,,,,,,,,,,,,,,,,,,,,,,,,,
,,,,,,,,2023-08-16_08h47.16.187,HF_wild_card,2022.2.4,MacIntel,60.0024001,5cdfe8f96e2e4e0019757481,64d2fd46c836a06233681665,64dc7ef0e7d73c8f3e8b8b60,,,,,,,ctch,resources/DR.BMP,resources/DG.BMP,Door4,0.293202276,-0.014113451,1,0,0,0.4822,optionRight,60,7440,4,8,0,8,0,1,,,,,,,,,,,,,,,,,,,,,,,,,,,,,,,,,,,,,,,
,,,,,,,,2023-08-16_08h47.16.187,HF_wild_card,2022.2.4,MacIntel,60.0024001,5cdfe8f96e2e4e0019757481,64d2fd46c836a06233681665,64dc7ef0e7d73c8f3e8b8b60,,,,,,,ctch,resources/DG.BMP,resources/DR.BMP,Door4,-0.331122622,-0.016202446,1,0,0,0.5142,optionLeft,80,7520,4,9,0,9,0,1,,,,,,,,,,,,,,,,,,,,,,,,,,,,,,,,,,,,,,,
,,,,,,,,2023-08-16_08h47.16.187,HF_wild_card,2022.2.4,MacIntel,60.0024001,5cdfe8f96e2e4e0019757481,64d2fd46c836a06233681665,64dc7ef0e7d73c8f3e8b8b60,,,,,,,decisionTrl,resources/DR.BMP,resources/DP.BMP,Door1,-0.422308084,-0.071110734,1,0,0,0.5814,optionLeft,30,7550,4,10,0,10,0,1,,,,,,,,,,,,,,,,,,,,,,,,,,,,,,,,,,,,,,,
,,,,,,,,2023-08-16_08h47.16.187,HF_wild_card,2022.2.4,MacIntel,60.0024001,5cdfe8f96e2e4e0019757481,64d2fd46c836a06233681665,64dc7ef0e7d73c8f3e8b8b60,,,,,,,decisionTrl,resources/DY.BMP,resources/DR.BMP,Door2,-0.320512058,-0.09853091,1,0,0,0.4606,optionLeft,20,7570,4,11,0,11,0,1,,,,,,,,,,,,,,,,,,,,,,,,,,,,,,,,,,,,,,,
,,,,,,,,2023-08-16_08h47.16.187,HF_wild_card,2022.2.4,MacIntel,60.0024001,5cdfe8f96e2e4e0019757481,64d2fd46c836a06233681665,64dc7ef0e7d73c8f3e8b8b60,,,,,,,decisionTrl,resources/DP.BMP,resources/DY.BMP,Door2,0.34676036,-0.037194293,1,0,0,0.91,optionRight,20,7590,4,12,0,12,0,1,,,,,,,,,,,,,,,,,,,,,,,,,,,,,,,,,,,,,,,
,,,,,,,,2023-08-16_08h47.16.187,HF_wild_card,2022.2.4,MacIntel,60.0024001,5cdfe8f96e2e4e0019757481,64d2fd46c836a06233681665,64dc7ef0e7d73c8f3e8b8b60,,,,,,,decisionTrl,resources/DP.BMP,resources/DG.BMP,WildCard_Ex,-0.329632303,-0.123123302,1,0,0,0.4795,optionLeft,55,7645,4,13,0,13,0,1,,,,,,,,,,,,,,,,,,,,,,,,,,,,,,,,,,,,,,,
,,,,,,,,2023-08-16_08h47.16.187,HF_wild_card,2022.2.4,MacIntel,60.0024001,5cdfe8f96e2e4e0019757481,64d2fd46c836a06233681665,64dc7ef0e7d73c8f3e8b8b60,,,,,,,sngl,resources/Empty.png,resources/DP.BMP,WildCard_Ex,0.308946162,-0.036824898,1,0,0,0.4792,optionRight,55,7700,4,14,0,14,0,1,,,,,,,,,,,,,,,,,,,,,,,,,,,,,,,,,,,,,,,
,,,,,,,,2023-08-16_08h47.16.187,HF_wild_card,2022.2.4,MacIntel,60.0024001,5cdfe8f96e2e4e0019757481,64d2fd46c836a06233681665,64dc7ef0e7d73c8f3e8b8b60,,,,,,,sngl,resources/DG.BMP,resources/Empty.png,Door4,-0.456555707,-0.044335937,1,0,0,0.5119,optionLeft,60,7760,4,15,0,15,0,1,,,,,,,,,,,,,,,,,,,,,,,,,,,,,,,,,,,,,,,
,,,,,,,,2023-08-16_08h47.16.187,HF_wild_card,2022.2.4,MacIntel,60.0024001,5cdfe8f96e2e4e0019757481,64d2fd46c836a06233681665,64dc7ef0e7d73c8f3e8b8b60,,,,,,,sngl,resources/Empty.png,resources/DP.BMP,WildCard_Ex,0.288519022,-0.020431386,1,0,0,0.5156,optionRight,45,7805,4,16,0,16,0,1,,,,,,,,,,,,,,,,,,,,,,,,,,,,,,,,,,,,,,,
,,,,,,,,2023-08-16_08h47.16.187,HF_wild_card,2022.2.4,MacIntel,60.0024001,5cdfe8f96e2e4e0019757481,64d2fd46c836a06233681665,64dc7ef0e7d73c8f3e8b8b60,,,,,,,decisionTrl,resources/DY.BMP,resources/DR.BMP,Door1,0.211328125,0.010198709,1,0,0,1.5278,optionRight,30,7835,4,17,0,17,0,1,,,,,,,,,,,,,,,,,,,,,,,,,,,,,,,,,,,,,,,
,,,,,,,,2023-08-16_08h47.16.187,HF_wild_card,2022.2.4,MacIntel,60.0024001,5cdfe8f96e2e4e0019757481,64d2fd46c836a06233681665,64dc7ef0e7d73c8f3e8b8b60,,,,,,,sngl,resources/DR.BMP,resources/Empty.png,Door1,-0.331933594,-0.062245245,1,0,0,0.4806,optionLeft,30,7865,4,18,0,18,0,1,,,,,,,,,,,,,,,,,,,,,,,,,,,,,,,,,,,,,,,
,,,,,,,,2023-08-16_08h47.16.187,HF_wild_card,2022.2.4,MacIntel,60.0024001,5cdfe8f96e2e4e0019757481,64d2fd46c836a06233681665,64dc7ef0e7d73c8f3e8b8b60,,,,,,,decisionTrl,resources/DY.BMP,resources/DR.BMP,Door2,-0.24064623,-0.047940727,1,0,0,0.9973,optionLeft,40,7905,4,19,0,19,0,1,,,,,,,,,,,,,,,,,,,,,,,,,,,,,,,,,,,,,,,
,,,,,,,,2023-08-16_08h47.16.187,HF_wild_card,2022.2.4,MacIntel,60.0024001,5cdfe8f96e2e4e0019757481,64d2fd46c836a06233681665,64dc7ef0e7d73c8f3e8b8b60,,,,,,,decisionTrl,resources/DG.BMP,resources/DBN.BMP,Door3,0.321161685,-0.031411345,1,0,0,0.5329,optionRight,70,7975,4,20,0,20,0,1,,,,,,,,,,,,,,,,,,,,,,,,,,,,,,,,,,,,,,,
,,,,,,,,2023-08-16_08h47.16.187,HF_wild_card,2022.2.4,MacIntel,60.0024001,5cdfe8f96e2e4e0019757481,64d2fd46c836a06233681665,64dc7ef0e7d73c8f3e8b8b60,,,,,,,decisionTrl,resources/DG.BMP,resources/DBN.BMP,Door3,0.368045177,-0.030286175,1,0,0,0.6448,optionRight,70,8045,4,21,0,21,0,1,,,,,,,,,,,,,,,,,,,,,,,,,,,,,,,,,,,,,,,
,,,,,,,,2023-08-16_08h47.16.187,HF_wild_card,2022.2.4,MacIntel,60.0024001,5cdfe8f96e2e4e0019757481,64d2fd46c836a06233681665,64dc7ef0e7d73c8f3e8b8b60,,,,,,,decisionTrl,resources/DR.BMP,resources/DY.BMP,Door1,-0.268478261,-0.075309952,1,0,0,0.5296,optionLeft,30,8075,4,22,0,22,0,1,,,,,,,,,,,,,,,,,,,,,,,,,,,,,,,,,,,,,,,
,,,,,,,,2023-08-16_08h47.16.187,HF_wild_card,2022.2.4,MacIntel,60.0024001,5cdfe8f96e2e4e0019757481,64d2fd46c836a06233681665,64dc7ef0e7d73c8f3e8b8b60,,,,,,,decisionTrl,resources/DR.BMP,resources/DY.BMP,Door1,-0.365964674,-0.048165761,1,0,0,0.498,optionLeft,30,8105,4,23,0,23,0,1,,,,,,,,,,,,,,,,,,,,,,,,,,,,,,,,,,,,,,,
,,,,,,,,2023-08-16_08h47.16.187,HF_wild_card,2022.2.4,MacIntel,60.0024001,5cdfe8f96e2e4e0019757481,64d2fd46c836a06233681665,64dc7ef0e7d73c8f3e8b8b60,,,,,,,ctch,resources/DY.BMP,resources/DBN.BMP,Door3,0.294493037,-0.046887738,1,0,0,0.43,optionRight,70,8175,4,24,0,24,0,1,,,,,,,,,,,,,,,,,,,,,,,,,,,,,,,,,,,,,,,
,,,,,,,,2023-08-16_08h47.16.187,HF_wild_card,2022.2.4,MacIntel,60.0024001,5cdfe8f96e2e4e0019757481,64d2fd46c836a06233681665,64dc7ef0e7d73c8f3e8b8b60,,,,,,,decisionTrl,resources/DY.BMP,resources/DR.BMP,Door2,-0.211684783,-0.062224015,1,0,0,0.5148,optionLeft,20,8195,4,25,0,25,0,1,,,,,,,,,,,,,,,,,,,,,,,,,,,,,,,,,,,,,,,
,,,,,,,,2023-08-16_08h47.16.187,HF_wild_card,2022.2.4,MacIntel,60.0024001,5cdfe8f96e2e4e0019757481,64d2fd46c836a06233681665,64dc7ef0e7d73c8f3e8b8b60,,,,,,,sngl,resources/DP.BMP,resources/Empty.png,WildCard_Ex,-0.271794327,-0.052101732,1,0,0,0.4985,optionLeft,45,8240,4,26,0,26,0,1,,,,,,,,,,,,,,,,,,,,,,,,,,,,,,,,,,,,,,,
,,,,,,,,2023-08-16_08h47.16.187,HF_wild_card,2022.2.4,MacIntel,60.0024001,5cdfe8f96e2e4e0019757481,64d2fd46c836a06233681665,64dc7ef0e7d73c8f3e8b8b60,,,,,,,decisionTrl,resources/DBN.BMP,resources/DG.BMP,Door4,0.329691746,-0.027500849,1,0,0,0.4128,optionRight,80,8320,4,27,0,27,0,1,,,,,,,,,,,,,,,,,,,,,,,,,,,,,,,,,,,,,,,
,,,,,,,,2023-08-16_08h47.16.187,HF_wild_card,2022.2.4,MacIntel,60.0024001,5cdfe8f96e2e4e0019757481,64d2fd46c836a06233681665,64dc7ef0e7d73c8f3e8b8b60,,,,,,,decisionTrl,resources/DG.BMP,resources/DP.BMP,Door4,-0.33805197,-0.057842221,1,0,0,0.7133,optionLeft,60,8380,4,28,0,28,0,1,,,,,,,,,,,,,,,,,,,,,,,,,,,,,,,,,,,,,,,
,,,,,,,,2023-08-16_08h47.16.187,HF_wild_card,2022.2.4,MacIntel,60.0024001,5cdfe8f96e2e4e0019757481,64d2fd46c836a06233681665,64dc7ef0e7d73c8f3e8b8b60,,,,,,,decisionTrl,resources/DY.BMP,resources/DP.BMP,WildCard_Ex,0.274367357,-0.032477072,1,0,0,0.4618,optionRight,55,8435,4,29,0,29,0,1,,,,,,,,,,,,,,,,,,,,,,,,,,,,,,,,,,,,,,,
,,,,,,,,2023-08-16_08h47.16.187,HF_wild_card,2022.2.4,MacIntel,60.0024001,5cdfe8f96e2e4e0019757481,64d2fd46c836a06233681665,64dc7ef0e7d73c8f3e8b8b60,,,,,,,decisionTrl,resources/DBN.BMP,resources/DP.BMP,Door3,-0.333428159,-0.045308254,1,0,0,0.6462,optionLeft,70,8505,4,30,0,30,0,1,,,,,,,,,,,,,,,,,,,,,,,,,,,,,,,,,,,,,,,
,,,,,,,,2023-08-16_08h47.16.187,HF_wild_card,2022.2.4,MacIntel,60.0024001,5cdfe8f96e2e4e0019757481,64d2fd46c836a06233681665,64dc7ef0e7d73c8f3e8b8b60,,,,,,,ctch,resources/DBN.BMP,resources/DY.BMP,Door3,-0.414724864,-0.063361923,1,0,0,0.4796,optionLeft,70,8575,4,31,0,31,0,1,,,,,,,,,,,,,,,,,,,,,,,,,,,,,,,,,,,,,,,
,,,,,,,,2023-08-16_08h47.16.187,HF_wild_card,2022.2.4,MacIntel,60.0024001,5cdfe8f96e2e4e0019757481,64d2fd46c836a06233681665,64dc7ef0e7d73c8f3e8b8b60,,,,,,,decisionTrl,resources/DBN.BMP,resources/DG.BMP,Door3,-0.281054688,-0.072087296,1,0,0,0.4299,optionLeft,70,8645,4,32,0,32,0,1,,,,,,,,,,,,,,,,,,,,,,,,,,,,,,,,,,,,,,,
,,,,,,,,2023-08-16_08h47.16.187,HF_wild_card,2022.2.4,MacIntel,60.0024001,5cdfe8f96e2e4e0019757481,64d2fd46c836a06233681665,64dc7ef0e7d73c8f3e8b8b60,,,,,,,decisionTrl,resources/DP.BMP,resources/DR.BMP,Door1,0.419539742,-0.030392323,1,0,0,0.6632,optionRight,30,8675,4,33,0,33,0,1,,,,,,,,,,,,,,,,,,,,,,,,,,,,,,,,,,,,,,,
,,,,,,,,2023-08-16_08h47.16.187,HF_wild_card,2022.2.4,MacIntel,60.0024001,5cdfe8f96e2e4e0019757481,64d2fd46c836a06233681665,64dc7ef0e7d73c8f3e8b8b60,,,,,,,sngl,resources/DY.BMP,resources/Empty.png,Door2,-0.31615574,-0.084375,1,0,0,0.4308,optionLeft,20,8695,4,34,0,34,0,1,,,,,,,,,,,,,,,,,,,,,,,,,,,,,,,,,,,,,,,
,,,,,,,,2023-08-16_08h47.16.187,HF_wild_card,2022.2.4,MacIntel,60.0024001,5cdfe8f96e2e4e0019757481,64d2fd46c836a06233681665,64dc7ef0e7d73c8f3e8b8b60,,,,,,,decisionTrl,resources/DG.BMP,resources/DBN.BMP,Door3,0.467004925,-0.078074049,1,0,0,0.4309,optionRight,70,8765,4,35,0,35,0,1,,,,,,,,,,,,,,,,,,,,,,,,,,,,,,,,,,,,,,,
,,,,,,,,2023-08-16_08h47.16.187,HF_wild_card,2022.2.4,MacIntel,60.0024001,5cdfe8f96e2e4e0019757481,64d2fd46c836a06233681665,64dc7ef0e7d73c8f3e8b8b60,,,,,,,sngl,resources/Empty.png,resources/DBN.BMP,Door3,0.424868376,-0.008411175,1,0,0,0.4487,optionRight,70,8835,4,36,0,36,0,1,,,,,,,,,,,,,,,,,,,,,,,,,,,,,,,,,,,,,,,
,,,,,,,,2023-08-16_08h47.16.187,HF_wild_card,2022.2.4,MacIntel,60.0024001,5cdfe8f96e2e4e0019757481,64d2fd46c836a06233681665,64dc7ef0e7d73c8f3e8b8b60,,,,,,,sngl,resources/DBN.BMP,resources/Empty.png,Door3,-0.261519192,-0.042467731,1,0,0,0.4156,optionLeft,70,8905,4,37,0,37,0,1,,,,,,,,,,,,,,,,,,,,,,,,,,,,,,,,,,,,,,,
,,,,,,,,2023-08-16_08h47.16.187,HF_wild_card,2022.2.4,MacIntel,60.0024001,5cdfe8f96e2e4e0019757481,64d2fd46c836a06233681665,64dc7ef0e7d73c8f3e8b8b60,,,,,,,decisionTrl,resources/DBN.BMP,resources/DG.BMP,Door3,-0.324651834,-0.10066661,1,0,0,0.4661,optionLeft,70,8975,4,38,0,38,0,1,,,,,,,,,,,,,,,,,,,,,,,,,,,,,,,,,,,,,,,
,,,,,,,,2023-08-16_08h47.16.187,HF_wild_card,2022.2.4,MacIntel,60.0024001,5cdfe8f96e2e4e0019757481,64d2fd46c836a06233681665,64dc7ef0e7d73c8f3e8b8b60,,,,,,,decisionTrl,resources/DBN.BMP,resources/DG.BMP,Door3,-0.444599185,-0.096938689,1,0,0,0.4675,optionLeft,70,9045,4,39,0,39,0,1,,,,,,,,,,,,,,,,,,,,,,,,,,,,,,,,,,,,,,,
,,,,,,,,2023-08-16_08h47.16.187,HF_wild_card,2022.2.4,MacIntel,60.0024001,5cdfe8f96e2e4e0019757481,64d2fd46c836a06233681665,64dc7ef0e7d73c8f3e8b8b60,,,,,,,ctch,resources/DBN.BMP,resources/DY.BMP,Door3,-0.291300102,-0.069887908,1,0,0,0.4148,optionLeft,70,9115,4,40,0,40,0,1,,,,,,,,,,,,,,,,,,,,,,,,,,,,,,,,,,,,,,,
,,,,,,,,2023-08-16_08h47.16.187,HF_wild_card,2022.2.4,MacIntel,60.0024001,5cdfe8f96e2e4e0019757481,64d2fd46c836a06233681665,64dc7ef0e7d73c8f3e8b8b60,,,,,,,sngl,resources/Empty.png,resources/DY.BMP,Door2,0.370936651,-0.03248981,1,0,0,0.4276,optionRight,40,9155,4,41,0,41,0,1,,,,,,,,,,,,,,,,,,,,,,,,,,,,,,,,,,,,,,,
,,,,,,,,2023-08-16_08h47.16.187,HF_wild_card,2022.2.4,MacIntel,60.0024001,5cdfe8f96e2e4e0019757481,64d2fd46c836a06233681665,64dc7ef0e7d73c8f3e8b8b60,,,,,,,sngl,resources/Empty.png,resources/DR.BMP,Door1,0.393393342,-0.004649287,1,0,0,0.4641,optionRight,30,9185,4,42,0,42,0,1,,,,,,,,,,,,,,,,,,,,,,,,,,,,,,,,,,,,,,,
,,,,,,,,2023-08-16_08h47.16.187,HF_wild_card,2022.2.4,MacIntel,60.0024001,5cdfe8f96e2e4e0019757481,64d2fd46c836a06233681665,64dc7ef0e7d73c8f3e8b8b60,,,,,,,sngl,resources/DP.BMP,resources/Empty.png,WildCard_Ex,-0.393244735,-0.072843071,1,0,0,0.43,optionLeft,55,9240,4,43,0,43,0,1,,,,,,,,,,,,,,,,,,,,,,,,,,,,,,,,,,,,,,,
,,,,,,,,2023-08-16_08h47.16.187,HF_wild_card,2022.2.4,MacIntel,60.0024001,5cdfe8f96e2e4e0019757481,64d2fd46c836a06233681665,64dc7ef0e7d73c8f3e8b8b60,,,,,,,,,,,,,,,,,,,,,,,,,,3,0,3,0,1,,,,,,,,,,,,,,,,,,,,,,,,,,,,,,,,,,
,,,,,,,,2023-08-16_08h47.16.187,HF_wild_card,2022.2.4,MacIntel,60.0024001,5cdfe8f96e2e4e0019757481,64d2fd46c836a06233681665,64dc7ef0e7d73c8f3e8b8b60,,,,,,,sngl,resources/DBN.BMP,resources/Empty.png,Door3,-0.244170346,-0.089563519,1,0,0,0.5988,optionLeft,70,9310,5,0,0,0,0,1,,,,,,,,,,,,,,,,,,,,,,,,,,,,,,,,,,,,,,,
,,,,,,,,2023-08-16_08h47.16.187,HF_wild_card,2022.2.4,MacIntel,60.0024001,5cdfe8f96e2e4e0019757481,64d2fd46c836a06233681665,64dc7ef0e7d73c8f3e8b8b60,,,,,,,decisionTrl,resources/DG.BMP,resources/DBN.BMP,Door3,0.323917289,-0.006279721,1,0,0,0.4487,optionRight,70,9380,5,1,0,1,0,1,,,,,,,,,,,,,,,,,,,,,,,,,,,,,,,,,,,,,,,
,,,,,,,,2023-08-16_08h47.16.187,HF_wild_card,2022.2.4,MacIntel,60.0024001,5cdfe8f96e2e4e0019757481,64d2fd46c836a06233681665,64dc7ef0e7d73c8f3e8b8b60,,,,,,,sngl,resources/DP.BMP,resources/Empty.png,WildCard_Ex,-0.288599694,-0.049745245,1,0,0,0.466,optionLeft,55,9435,5,2,0,2,0,1,,,,,,,,,,,,,,,,,,,,,,,,,,,,,,,,,,,,,,,
,,,,,,,,2023-08-16_08h47.16.187,HF_wild_card,2022.2.4,MacIntel,60.0024001,5cdfe8f96e2e4e0019757481,64d2fd46c836a06233681665,64dc7ef0e7d73c8f3e8b8b60,,,,,,,ctch,resources/DY.BMP,resources/DBN.BMP,Door3,0.423148777,-0.013480808,1,0,0,0.3965,optionRight,70,9505,5,3,0,3,0,1,,,,,,,,,,,,,,,,,,,,,,,,,,,,,,,,,,,,,,,
,,,,,,,,2023-08-16_08h47.16.187,HF_wild_card,2022.2.4,MacIntel,60.0024001,5cdfe8f96e2e4e0019757481,64d2fd46c836a06233681665,64dc7ef0e7d73c8f3e8b8b60,,,,,,,decisionTrl,resources/DR.BMP,resources/DY.BMP,Door1,-0.344735054,-0.086829144,1,0,0,0.4134,optionLeft,30,9535,5,4,0,4,0,1,,,,,,,,,,,,,,,,,,,,,,,,,,,,,,,,,,,,,,,
,,,,,,,,2023-08-16_08h47.16.187,HF_wild_card,2022.2.4,MacIntel,60.0024001,5cdfe8f96e2e4e0019757481,64d2fd46c836a06233681665,64dc7ef0e7d73c8f3e8b8b60,,,,,,,decisionTrl,resources/DR.BMP,resources/DP.BMP,WildCard_Ex,0.367374321,-0.028269361,1,0,0,0.432,optionRight,45,9580,5,5,0,5,0,1,,,,,,,,,,,,,,,,,,,,,,,,,,,,,,,,,,,,,,,
,,,,,,,,2023-08-16_08h47.16.187,HF_wild_card,2022.2.4,MacIntel,60.0024001,5cdfe8f96e2e4e0019757481,64d2fd46c836a06233681665,64dc7ef0e7d73c8f3e8b8b60,,,,,,,ctch,resources/DR.BMP,resources/DG.BMP,Door4,0.399397079,-0.011120075,1,0,0,0.6658,optionRight,80,9660,5,6,0,6,0,1,,,,,,,,,,,,,,,,,,,,,,,,,,,,,,,,,,,,,,,
,,,,,,,,2023-08-16_08h47.16.187,HF_wild_card,2022.2.4,MacIntel,60.0024001,5cdfe8f96e2e4e0019757481,64d2fd46c836a06233681665,64dc7ef0e7d73c8f3e8b8b60,,,,,,,decisionTrl,resources/DBN.BMP,resources/DG.BMP,Door3,-0.484748641,-0.031233016,1,0,0,0.5144,optionLeft,70,9730,5,7,0,7,0,1,,,,,,,,,,,,,,,,,,,,,,,,,,,,,,,,,,,,,,,
,,,,,,,,2023-08-16_08h47.16.187,HF_wild_card,2022.2.4,MacIntel,60.0024001,5cdfe8f96e2e4e0019757481,64d2fd46c836a06233681665,64dc7ef0e7d73c8f3e8b8b60,,,,,,,ctch,resources/DG.BMP,resources/DR.BMP,Door4,-0.406203295,-0.064126189,1,0,0,0.497,optionLeft,80,9810,5,8,0,8,0,1,,,,,,,,,,,,,,,,,,,,,,,,,,,,,,,,,,,,,,,
,,,,,,,,2023-08-16_08h47.16.187,HF_wild_card,2022.2.4,MacIntel,60.0024001,5cdfe8f96e2e4e0019757481,64d2fd46c836a06233681665,64dc7ef0e7d73c8f3e8b8b60,,,,,,,decisionTrl,resources/DY.BMP,resources/DP.BMP,WildCard_Ex,0.351592221,-0.054963485,1,0,0,0.5154,optionRight,55,9865,5,9,0,9,0,1,,,,,,,,,,,,,,,,,,,,,,,,,,,,,,,,,,,,,,,
,,,,,,,,2023-08-16_08h47.16.187,HF_wild_card,2022.2.4,MacIntel,60.0024001,5cdfe8f96e2e4e0019757481,64d2fd46c836a06233681665,64dc7ef0e7d73c8f3e8b8b60,,,,,,,decisionTrl,resources/DP.BMP,resources/DG.BMP,WildCard_Ex,-0.309876019,-0.122248641,1,0,0,0.4661,optionLeft,55,9920,5,10,0,10,0,1,,,,,,,,,,,,,,,,,,,,,,,,,,,,,,,,,,,,,,,
,,,,,,,,2023-08-16_08h47.16.187,HF_wild_card,2022.2.4,MacIntel,60.0024001,5cdfe8f96e2e4e0019757481,64d2fd46c836a06233681665,64dc7ef0e7d73c8f3e8b8b60,,,,,,,decisionTrl,resources/DY.BMP,resources/DR.BMP,Door2,-0.421051291,-0.046620245,1,0,0,0.6122,optionLeft,40,9960,5,11,0,11,0,1,,,,,,,,,,,,,,,,,,,,,,,,,,,,,,,,,,,,,,,
,,,,,,,,2023-08-16_08h47.16.187,HF_wild_card,2022.2.4,MacIntel,60.0024001,5cdfe8f96e2e4e0019757481,64d2fd46c836a06233681665,64dc7ef0e7d73c8f3e8b8b60,,,,,,,decisionTrl,resources/DP.BMP,resources/DY.BMP,WildCard_Ex,-0.281797724,-0.098203974,1,0,0,0.5811,optionLeft,55,10015,5,12,0,12,0,1,,,,,,,,,,,,,,,,,,,,,,,,,,,,,,,,,,,,,,,
,,,,,,,,2023-08-16_08h47.16.187,HF_wild_card,2022.2.4,MacIntel,60.0024001,5cdfe8f96e2e4e0019757481,64d2fd46c836a06233681665,64dc7ef0e7d73c8f3e8b8b60,,,,,,,sngl,resources/DG.BMP,resources/Empty.png,Door4,-0.304759681,-0.03637483,1,0,0,0.4786,optionLeft,80,10095,5,13,0,13,0,1,,,,,,,,,,,,,,,,,,,,,,,,,,,,,,,,,,,,,,,
,,,,,,,,2023-08-16_08h47.16.187,HF_wild_card,2022.2.4,MacIntel,60.0024001,5cdfe8f96e2e4e0019757481,64d2fd46c836a06233681665,64dc7ef0e7d73c8f3e8b8b60,,,,,,,sngl,resources/Empty.png,resources/DY.BMP,Door2,0.384391984,-0.068817935,1,0,0,0.4636,optionRight,20,10115,5,14,0,14,0,1,,,,,,,,,,,,,,,,,,,,,,,,,,,,,,,,,,,,,,,
,,,,,,,,2023-08-16_08h47.16.187,HF_wild_card,2022.2.4,MacIntel,60.0024001,5cdfe8f96e2e4e0019757481,64d2fd46c836a06233681665,64dc7ef0e7d73c8f3e8b8b60,,,,,,,decisionTrl,resources/DBN.BMP,resources/DG.BMP,Door3,-0.33931301,-0.033262568,1,0,0,0.4476,optionLeft,70,10185,5,15,0,15,0,1,,,,,,,,,,,,,,,,,,,,,,,,,,,,,,,,,,,,,,,
,,,,,,,,2023-08-16_08h47.16.187,HF_wild_card,2022.2.4,MacIntel,60.0024001,5cdfe8f96e2e4e0019757481,64d2fd46c836a06233681665,64dc7ef0e7d73c8f3e8b8b60,,,,,,,ctch,resources/DBN.BMP,resources/DY.BMP,Door3,-0.29071841,-0.040671705,1,0,0,0.463,optionLeft,70,10255,5,16,0,16,0,1,,,,,,,,,,,,,,,,,,,,,,,,,,,,,,,,,,,,,,,
,,,,,,,,2023-08-16_08h47.16.187,HF_wild_card,2022.2.4,MacIntel,60.0024001,5cdfe8f96e2e4e0019757481,64d2fd46c836a06233681665,64dc7ef0e7d73c8f3e8b8b60,,,,,,,sngl,resources/Empty.png,resources/DP.BMP,WildCard_Ex,0.409965183,-0.030413553,1,0,0,0.3984,optionRight,55,10310,5,17,0,17,0,1,,,,,,,,,,,,,,,,,,,,,,,,,,,,,,,,,,,,,,,
,,,,,,,,2023-08-16_08h47.16.187,HF_wild_card,2022.2.4,MacIntel,60.0024001,5cdfe8f96e2e4e0019757481,64d2fd46c836a06233681665,64dc7ef0e7d73c8f3e8b8b60,,,,,,,sngl,resources/Empty.png,resources/DG.BMP,Door4,0.311502208,-0.031818954,1,0,0,0.4632,optionRight,60,10370,5,18,0,18,0,1,,,,,,,,,,,,,,,,,,,,,,,,,,,,,,,,,,,,,,,
,,,,,,,,2023-08-16_08h47.16.187,HF_wild_card,2022.2.4,MacIntel,60.0024001,5cdfe8f96e2e4e0019757481,64d2fd46c836a06233681665,64dc7ef0e7d73c8f3e8b8b60,,,,,,,sngl,resources/Empty.png,resources/DR.BMP,Door1,0.313293988,-0.01548913,1,0,0,0.4285,optionRight,30,10400,5,19,0,19,0,1,,,,,,,,,,,,,,,,,,,,,,,,,,,,,,,,,,,,,,,
,,,,,,,,2023-08-16_08h47.16.187,HF_wild_card,2022.2.4,MacIntel,60.0024001,5cdfe8f96e2e4e0019757481,64d2fd46c836a06233681665,64dc7ef0e7d73c8f3e8b8b60,,,,,,,ctch,resources/DR.BMP,resources/DG.BMP,Door1,-0.370227582,-0.093376359,1,0,0,0.429,optionLeft,30,10430,5,20,0,20,0,1,,,,,,,,,,,,,,,,,,,,,,,,,,,,,,,,,,,,,,,
,,,,,,,,2023-08-16_08h47.16.187,HF_wild_card,2022.2.4,MacIntel,60.0024001,5cdfe8f96e2e4e0019757481,64d2fd46c836a06233681665,64dc7ef0e7d73c8f3e8b8b60,,,,,,,decisionTrl,resources/DP.BMP,resources/DR.BMP,WildCard_Ex,-0.307302989,-0.020439878,1,0,0,0.5,optionLeft,45,10475,5,21,0,21,0,1,,,,,,,,,,,,,,,,,,,,,,,,,,,,,,,,,,,,,,,
,,,,,,,,2023-08-16_08h47.16.187,HF_wild_card,2022.2.4,MacIntel,60.0024001,5cdfe8f96e2e4e0019757481,64d2fd46c836a06233681665,64dc7ef0e7d73c8f3e8b8b60,,,,,,,sngl,resources/DP.BMP,resources/Empty.png,WildCard_Ex,-0.383113961,-0.120418648,1,0,0,0.4281,optionLeft,45,10520,5,22,0,22,0,1,,,,,,,,,,,,,,,,,,,,,,,,,,,,,,,,,,,,,,,
,,,,,,,,2023-08-16_08h47.16.187,HF_wild_card,2022.2.4,MacIntel,60.0024001,5cdfe8f96e2e4e0019757481,64d2fd46c836a06233681665,64dc7ef0e7d73c8f3e8b8b60,,,,,,,decisionTrl,resources/DP.BMP,resources/DBN.BMP,Door3,0.467391304,-0.038650645,1,0,0,0.4303,optionRight,70,10590,5,23,0,23,0,1,,,,,,,,,,,,,,,,,,,,,,,,,,,,,,,,,,,,,,,
,,,,,,,,2023-08-16_08h47.16.187,HF_wild_card,2022.2.4,MacIntel,60.0024001,5cdfe8f96e2e4e0019757481,64d2fd46c836a06233681665,64dc7ef0e7d73c8f3e8b8b60,,,,,,,decisionTrl,resources/DR.BMP,resources/DY.BMP,Door2,0.311013927,-0.040506114,1,0,0,0.4315,optionRight,20,10610,5,24,0,24,0,1,,,,,,,,,,,,,,,,,,,,,,,,,,,,,,,,,,,,,,,
,,,,,,,,2023-08-16_08h47.16.187,HF_wild_card,2022.2.4,MacIntel,60.0024001,5cdfe8f96e2e4e0019757481,64d2fd46c836a06233681665,64dc7ef0e7d73c8f3e8b8b60,,,,,,,decisionTrl,resources/DY.BMP,resources/DR.BMP,Door1,0.326201596,-0.015799083,1,0,0,0.4451,optionRight,30,10640,5,25,0,25,0,1,,,,,,,,,,,,,,,,,,,,,,,,,,,,,,,,,,,,,,,
,,,,,,,,2023-08-16_08h47.16.187,HF_wild_card,2022.2.4,MacIntel,60.0024001,5cdfe8f96e2e4e0019757481,64d2fd46c836a06233681665,64dc7ef0e7d73c8f3e8b8b60,,,,,,,ctch,resources/DBN.BMP,resources/DY.BMP,Door3,-0.367939029,-0.057939878,1,0,0,0.4344,optionLeft,70,10710,5,26,0,26,0,1,,,,,,,,,,,,,,,,,,,,,,,,,,,,,,,,,,,,,,,
,,,,,,,,2023-08-16_08h47.16.187,HF_wild_card,2022.2.4,MacIntel,60.0024001,5cdfe8f96e2e4e0019757481,64d2fd46c836a06233681665,64dc7ef0e7d73c8f3e8b8b60,,,,,,,decisionTrl,resources/DBN.BMP,resources/DG.BMP,Door3,-0.359264606,-0.078252378,1,0,0,0.6454,optionLeft,70,10780,5,27,0,27,0,1,,,,,,,,,,,,,,,,,,,,,,,,,,,,,,,,,,,,,,,
,,,,,,,,2023-08-16_08h47.16.187,HF_wild_card,2022.2.4,MacIntel,60.0024001,5cdfe8f96e2e4e0019757481,64d2fd46c836a06233681665,64dc7ef0e7d73c8f3e8b8b60,,,,,,,decisionTrl,resources/DG.BMP,resources/DBN.BMP,Door3,0.338782269,-0.025314198,1,0,0,0.4148,optionRight,70,10850,5,28,0,28,0,1,,,,,,,,,,,,,,,,,,,,,,,,,,,,,,,,,,,,,,,
,,,,,,,,2023-08-16_08h47.16.187,HF_wild_card,2022.2.4,MacIntel,60.0024001,5cdfe8f96e2e4e0019757481,64d2fd46c836a06233681665,64dc7ef0e7d73c8f3e8b8b60,,,,,,,decisionTrl,resources/DG.BMP,resources/DBN.BMP,Door3,0.457387908,-0.017777683,1,0,0,0.428,optionRight,70,10920,5,29,0,29,0,1,,,,,,,,,,,,,,,,,,,,,,,,,,,,,,,,,,,,,,,
,,,,,,,,2023-08-16_08h47.16.187,HF_wild_card,2022.2.4,MacIntel,60.0024001,5cdfe8f96e2e4e0019757481,64d2fd46c836a06233681665,64dc7ef0e7d73c8f3e8b8b60,,,,,,,ctch,resources/DY.BMP,resources/DBN.BMP,Door3,0.313115659,-0.064682405,1,0,0,0.447,optionRight,70,10990,5,30,0,30,0,1,,,,,,,,,,,,,,,,,,,,,,,,,,,,,,,,,,,,,,,
,,,,,,,,2023-08-16_08h47.16.187,HF_wild_card,2022.2.4,MacIntel,60.0024001,5cdfe8f96e2e4e0019757481,64d2fd46c836a06233681665,64dc7ef0e7d73c8f3e8b8b60,,,,,,,sngl,resources/DY.BMP,resources/Empty.png,Door2,-0.263425611,-0.070329484,1,0,0,0.4479,optionLeft,40,11030,5,31,0,31,0,1,,,,,,,,,,,,,,,,,,,,,,,,,,,,,,,,,,,,,,,
,,,,,,,,2023-08-16_08h47.16.187,HF_wild_card,2022.2.4,MacIntel,60.0024001,5cdfe8f96e2e4e0019757481,64d2fd46c836a06233681665,64dc7ef0e7d73c8f3e8b8b60,,,,,,,ctch,resources/DG.BMP,resources/DR.BMP,Door4,-0.329271399,-0.029653533,1,0,0,0.4812,optionLeft,80,11110,5,32,0,32,0,1,,,,,,,,,,,,,,,,,,,,,,,,,,,,,,,,,,,,,,,
,,,,,,,,2023-08-16_08h47.16.187,HF_wild_card,2022.2.4,MacIntel,60.0024001,5cdfe8f96e2e4e0019757481,64d2fd46c836a06233681665,64dc7ef0e7d73c8f3e8b8b60,,,,,,,decisionTrl,resources/DY.BMP,resources/DR.BMP,Door1,0.357740319,-0.0318232,1,0,0,0.4493,optionRight,30,11140,5,33,0,33,0,1,,,,,,,,,,,,,,,,,,,,,,,,,,,,,,,,,,,,,,,
,,,,,,,,2023-08-16_08h47.16.187,HF_wild_card,2022.2.4,MacIntel,60.0024001,5cdfe8f96e2e4e0019757481,64d2fd46c836a06233681665,64dc7ef0e7d73c8f3e8b8b60,,,,,,,decisionTrl,resources/DBN.BMP,resources/DP.BMP,Door3,-0.267879586,-0.018847656,1,0,0,0.4778,optionLeft,70,11210,5,34,0,34,0,1,,,,,,,,,,,,,,,,,,,,,,,,,,,,,,,,,,,,,,,
,,,,,,,,2023-08-16_08h47.16.187,HF_wild_card,2022.2.4,MacIntel,60.0024001,5cdfe8f96e2e4e0019757481,64d2fd46c836a06233681665,64dc7ef0e7d73c8f3e8b8b60,,,,,,,sngl,resources/Empty.png,resources/DBN.BMP,Door3,0.382205333,-0.015578295,1,0,0,0.4129,optionRight,70,11280,5,35,0,35,0,1,,,,,,,,,,,,,,,,,,,,,,,,,,,,,,,,,,,,,,,
,,,,,,,,2023-08-16_08h47.16.187,HF_wild_card,2022.2.4,MacIntel,60.0024001,5cdfe8f96e2e4e0019757481,64d2fd46c836a06233681665,64dc7ef0e7d73c8f3e8b8b60,,,,,,,sngl,resources/Empty.png,resources/DP.BMP,WildCard_Ex,0.394773268,-0.033759341,1,0,0,0.4472,optionRight,45,11325,5,36,0,36,0,1,,,,,,,,,,,,,,,,,,,,,,,,,,,,,,,,,,,,,,,
,,,,,,,,2023-08-16_08h47.16.187,HF_wild_card,2022.2.4,MacIntel,60.0024001,5cdfe8f96e2e4e0019757481,64d2fd46c836a06233681665,64dc7ef0e7d73c8f3e8b8b60,,,,,,,decisionTrl,resources/DR.BMP,resources/DY.BMP,Door1,-0.346030061,-0.046424932,1,0,0,0.6794,optionLeft,30,11355,5,37,0,37,0,1,,,,,,,,,,,,,,,,,,,,,,,,,,,,,,,,,,,,,,,
,,,,,,,,2023-08-16_08h47.16.187,HF_wild_card,2022.2.4,MacIntel,60.0024001,5cdfe8f96e2e4e0019757481,64d2fd46c836a06233681665,64dc7ef0e7d73c8f3e8b8b60,,,,,,,decisionTrl,resources/DG.BMP,resources/DP.BMP,WildCard_Ex,0.506649117,0.004245924,1,0,0,0.7142,optionRight,55,11410,5,38,0,38,0,1,,,,,,,,,,,,,,,,,,,,,,,,,,,,,,,,,,,,,,,
,,,,,,,,2023-08-16_08h47.16.187,HF_wild_card,2022.2.4,MacIntel,60.0024001,5cdfe8f96e2e4e0019757481,64d2fd46c836a06233681665,64dc7ef0e7d73c8f3e8b8b60,,,,,,,sngl,resources/DR.BMP,resources/Empty.png,Door1,-0.275399117,-0.020766814,1,0,0,0.4302,optionLeft,30,11440,5,39,0,39,0,1,,,,,,,,,,,,,,,,,,,,,,,,,,,,,,,,,,,,,,,
,,,,,,,,2023-08-16_08h47.16.187,HF_wild_card,2022.2.4,MacIntel,60.0024001,5cdfe8f96e2e4e0019757481,64d2fd46c836a06233681665,64dc7ef0e7d73c8f3e8b8b60,,,,,,,decisionTrl,resources/DBN.BMP,resources/DG.BMP,Door4,0.326817255,-0.016393512,1,0,0,0.4628,optionRight,80,11520,5,40,0,40,0,1,,,,,,,,,,,,,,,,,,,,,,,,,,,,,,,,,,,,,,,
,,,,,,,,2023-08-16_08h47.16.187,HF_wild_card,2022.2.4,MacIntel,60.0024001,5cdfe8f96e2e4e0019757481,64d2fd46c836a06233681665,64dc7ef0e7d73c8f3e8b8b60,,,,,,,decisionTrl,resources/DR.BMP,resources/DY.BMP,Door2,0.52355214,-0.074554178,1,0,0,0.7289,optionRight,20,11540,5,41,0,41,0,1,,,,,,,,,,,,,,,,,,,,,,,,,,,,,,,,,,,,,,,
,,,,,,,,2023-08-16_08h47.16.187,HF_wild_card,2022.2.4,MacIntel,60.0024001,5cdfe8f96e2e4e0019757481,64d2fd46c836a06233681665,64dc7ef0e7d73c8f3e8b8b60,,,,,,,decisionTrl,resources/DG.BMP,resources/DBN.BMP,Door3,0.289194124,0.022061821,1,0,0,0.5296,optionRight,70,11610,5,42,0,42,0,1,,,,,,,,,,,,,,,,,,,,,,,,,,,,,,,,,,,,,,,
,,,,,,,,2023-08-16_08h47.16.187,HF_wild_card,2022.2.4,MacIntel,60.0024001,5cdfe8f96e2e4e0019757481,64d2fd46c836a06233681665,64dc7ef0e7d73c8f3e8b8b60,,,,,,,decisionTrl,resources/DY.BMP,resources/DR.BMP,Door2,-0.344985564,-0.005570652,1,0,0,0.5137,optionLeft,40,11650,5,43,0,43,0,1,,,,,,,,,,,,,,,,,,,,,,,,,,,,,,,,,,,,,,,
,,,,,,,,2023-08-16_08h47.16.187,HF_wild_card,2022.2.4,MacIntel,60.0024001,5cdfe8f96e2e4e0019757481,64d2fd46c836a06233681665,64dc7ef0e7d73c8f3e8b8b60,,,,,,,,,,,,,,,,,,,,,,,,,,4,0,4,0,1,,,,,,,,,,,,,,,,,,,,,,,,,,,,,,,,,,
,,,,,,,,2023-08-16_08h47.16.187,HF_wild_card,2022.2.4,MacIntel,60.0024001,5cdfe8f96e2e4e0019757481,64d2fd46c836a06233681665,64dc7ef0e7d73c8f3e8b8b60,,,,,,,decisionTrl,resources/DP.BMP,resources/DR.BMP,WildCard_Ex,-0.340731148,0.041983696,1,0,0,0.5691,optionLeft,45,11695,6,0,0,0,0,1,,,,,,,,,,,,,,,,,,,,,,,,,,,,,,,,,,,,,,,
,,,,,,,,2023-08-16_08h47.16.187,HF_wild_card,2022.2.4,MacIntel,60.0024001,5cdfe8f96e2e4e0019757481,64d2fd46c836a06233681665,64dc7ef0e7d73c8f3e8b8b60,,,,,,,decisionTrl,resources/DR.BMP,resources/DY.BMP,Door2,0.347626529,-0.053269361,1,0,0,0.3978,optionRight,40,11735,6,1,0,1,0,1,,,,,,,,,,,,,,,,,,,,,,,,,,,,,,,,,,,,,,,
,,,,,,,,2023-08-16_08h47.16.187,HF_wild_card,2022.2.4,MacIntel,60.0024001,5cdfe8f96e2e4e0019757481,64d2fd46c836a06233681665,64dc7ef0e7d73c8f3e8b8b60,,,,,,,sngl,resources/Empty.png,resources/DBN.BMP,Door3,0.322401495,0.012703804,1,0,0,0.4308,optionRight,70,11805,6,2,0,2,0,1,,,,,,,,,,,,,,,,,,,,,,,,,,,,,,,,,,,,,,,
,,,,,,,,2023-08-16_08h47.16.187,HF_wild_card,2022.2.4,MacIntel,60.0024001,5cdfe8f96e2e4e0019757481,64d2fd46c836a06233681665,64dc7ef0e7d73c8f3e8b8b60,,,,,,,ctch,resources/DY.BMP,resources/DBN.BMP,Door3,0.24540591,-0.001719599,1,0,0,0.3975,optionRight,70,11875,6,3,0,3,0,1,,,,,,,,,,,,,,,,,,,,,,,,,,,,,,,,,,,,,,,
,,,,,,,,2023-08-16_08h47.16.187,HF_wild_card,2022.2.4,MacIntel,60.0024001,5cdfe8f96e2e4e0019757481,64d2fd46c836a06233681665,64dc7ef0e7d73c8f3e8b8b60,,,,,,,sngl,resources/DP.BMP,resources/Empty.png,WildCard_Ex,-0.278303329,0.004470958,1,0,0,0.4305,optionLeft,45,11920,6,4,0,4,0,1,,,,,,,,,,,,,,,,,,,,,,,,,,,,,,,,,,,,,,,
,,,,,,,,2023-08-16_08h47.16.187,HF_wild_card,2022.2.4,MacIntel,60.0024001,5cdfe8f96e2e4e0019757481,64d2fd46c836a06233681665,64dc7ef0e7d73c8f3e8b8b60,,,,,,,sngl,resources/Empty.png,resources/DR.BMP,Door1,0.292769192,-0.007778533,1,0,0,0.4126,optionRight,30,11950,6,5,0,5,0,1,,,,,,,,,,,,,,,,,,,,,,,,,,,,,,,,,,,,,,,
,,,,,,,,2023-08-16_08h47.16.187,HF_wild_card,2022.2.4,MacIntel,60.0024001,5cdfe8f96e2e4e0019757481,64d2fd46c836a06233681665,64dc7ef0e7d73c8f3e8b8b60,,,,,,,sngl,resources/Empty.png,resources/DP.BMP,WildCard_Ex,0.285703974,-0.02736498,1,0,0,0.4773,optionRight,55,12005,6,6,0,6,0,1,,,,,,,,,,,,,,,,,,,,,,,,,,,,,,,,,,,,,,,
,,,,,,,,2023-08-16_08h47.16.187,HF_wild_card,2022.2.4,MacIntel,60.0024001,5cdfe8f96e2e4e0019757481,64d2fd46c836a06233681665,64dc7ef0e7d73c8f3e8b8b60,,,,,,,decisionTrl,resources/DG.BMP,resources/DBN.BMP,Door4,-0.283372962,-0.10599949,1,0,0,0.4846,optionLeft,80,12085,6,7,0,7,0,1,,,,,,,,,,,,,,,,,,,,,,,,,,,,,,,,,,,,,,,
,,,,,,,,2023-08-16_08h47.16.187,HF_wild_card,2022.2.4,MacIntel,60.0024001,5cdfe8f96e2e4e0019757481,64d2fd46c836a06233681665,64dc7ef0e7d73c8f3e8b8b60,,,,,,,sngl,resources/DG.BMP,resources/Empty.png,Door4,-0.31126019,-0.0568232,1,0,0,0.4147,optionLeft,60,12145,6,8,0,8,0,1,,,,,,,,,,,,,,,,,,,,,,,,,,,,,,,,,,,,,,,
,,,,,,,,2023-08-16_08h47.16.187,HF_wild_card,2022.2.4,MacIntel,60.0024001,5cdfe8f96e2e4e0019757481,64d2fd46c836a06233681665,64dc7ef0e7d73c8f3e8b8b60,,,,,,,decisionTrl,resources/DY.BMP,resources/DR.BMP,Door1,0.344335938,-0.004560122,1,0,0,0.4304,optionRight,30,12175,6,9,0,9,0,1,,,,,,,,,,,,,,,,,,,,,,,,,,,,,,,,,,,,,,,
,,,,,,,,2023-08-16_08h47.16.187,HF_wild_card,2022.2.4,MacIntel,60.0024001,5cdfe8f96e2e4e0019757481,64d2fd46c836a06233681665,64dc7ef0e7d73c8f3e8b8b60,,,,,,,decisionTrl,resources/DP.BMP,resources/DBN.BMP,Door3,0.340675951,-0.012559443,1,0,0,0.4149,optionRight,70,12245,6,10,0,10,0,1,,,,,,,,,,,,,,,,,,,,,,,,,,,,,,,,,,,,,,,
,,,,,,,,2023-08-16_08h47.16.187,HF_wild_card,2022.2.4,MacIntel,60.0024001,5cdfe8f96e2e4e0019757481,64d2fd46c836a06233681665,64dc7ef0e7d73c8f3e8b8b60,,,,,,,decisionTrl,resources/DG.BMP,resources/DBN.BMP,Door3,0.27823964,-0.005706522,1,0,0,0.4323,optionRight,70,12315,6,11,0,11,0,1,,,,,,,,,,,,,,,,,,,,,,,,,,,,,,,,,,,,,,,
,,,,,,,,2023-08-16_08h47.16.187,HF_wild_card,2022.2.4,MacIntel,60.0024001,5cdfe8f96e2e4e0019757481,64d2fd46c836a06233681665,64dc7ef0e7d73c8f3e8b8b60,,,,,,,decisionTrl,resources/DY.BMP,resources/DR.BMP,Door2,-0.278044327,-0.03294837,1,0,0,0.4643,optionLeft,40,12355,6,12,0,12,0,1,,,,,,,,,,,,,,,,,,,,,,,,,,,,,,,,,,,,,,,
,,,,,,,,2023-08-16_08h47.16.187,HF_wild_card,2022.2.4,MacIntel,60.0024001,5cdfe8f96e2e4e0019757481,64d2fd46c836a06233681665,64dc7ef0e7d73c8f3e8b8b60,,,,,,,ctch,resources/DR.BMP,resources/DG.BMP,Door4,0.357710598,-0.052691916,1,0,0,0.4148,optionRight,60,12415,6,13,0,13,0,1,,,,,,,,,,,,,,,,,,,,,,,,,,,,,,,,,,,,,,,
,,,,,,,,2023-08-16_08h47.16.187,HF_wild_card,2022.2.4,MacIntel,60.0024001,5cdfe8f96e2e4e0019757481,64d2fd46c836a06233681665,64dc7ef0e7d73c8f3e8b8b60,,,,,,,decisionTrl,resources/DY.BMP,resources/DP.BMP,Door2,-0.293673573,-0.074626359,1,0,0,0.4161,optionLeft,40,12455,6,14,0,14,0,1,,,,,,,,,,,,,,,,,,,,,,,,,,,,,,,,,,,,,,,
,,,,,,,,2023-08-16_08h47.16.187,HF_wild_card,2022.2.4,MacIntel,60.0024001,5cdfe8f96e2e4e0019757481,64d2fd46c836a06233681665,64dc7ef0e7d73c8f3e8b8b60,,,,,,,sngl,resources/DP.BMP,resources/Empty.png,WildCard_Ex,-0.31261464,-0.041070822,1,0,0,0.4139,optionLeft,55,12510,6,15,0,15,0,1,,,,,,,,,,,,,,,,,,,,,,,,,,,,,,,,,,,,,,,
,,,,,,,,2023-08-16_08h47.16.187,HF_wild_card,2022.2.4,MacIntel,60.0024001,5cdfe8f96e2e4e0019757481,64d2fd46c836a06233681665,64dc7ef0e7d73c8f3e8b8b60,,,,,,,decisionTrl,resources/DBN.BMP,resources/DG.BMP,Door3,-0.359570312,-0.050042459,1,0,0,0.5989,optionLeft,70,12580,6,16,0,16,0,1,,,,,,,,,,,,,,,,,,,,,,,,,,,,,,,,,,,,,,,
,,,,,,,,2023-08-16_08h47.16.187,HF_wild_card,2022.2.4,MacIntel,60.0024001,5cdfe8f96e2e4e0019757481,64d2fd46c836a06233681665,64dc7ef0e7d73c8f3e8b8b60,,,,,,,decisionTrl,resources/DP.BMP,resources/DG.BMP,Door4,0.390047554,0.018261719,1,0,0,0.4625,optionRight,60,12640,6,17,0,17,0,1,,,,,,,,,,,,,,,,,,,,,,,,,,,,,,,,,,,,,,,
,,,,,,,,2023-08-16_08h47.16.187,HF_wild_card,2022.2.4,MacIntel,60.0024001,5cdfe8f96e2e4e0019757481,64d2fd46c836a06233681665,64dc7ef0e7d73c8f3e8b8b60,,,,,,,ctch,resources/DY.BMP,resources/DBN.BMP,Door3,0.323692255,-0.012737772,1,0,0,0.3973,optionRight,70,12710,6,18,0,18,0,1,,,,,,,,,,,,,,,,,,,,,,,,,,,,,,,,,,,,,,,
,,,,,,,,2023-08-16_08h47.16.187,HF_wild_card,2022.2.4,MacIntel,60.0024001,5cdfe8f96e2e4e0019757481,64d2fd46c836a06233681665,64dc7ef0e7d73c8f3e8b8b60,,,,,,,decisionTrl,resources/DG.BMP,resources/DBN.BMP,Door3,0.335699728,0.005213995,1,0,0,0.3964,optionRight,70,12780,6,19,0,19,0,1,,,,,,,,,,,,,,,,,,,,,,,,,,,,,,,,,,,,,,,
,,,,,,,,2023-08-16_08h47.16.187,HF_wild_card,2022.2.4,MacIntel,60.0024001,5cdfe8f96e2e4e0019757481,64d2fd46c836a06233681665,64dc7ef0e7d73c8f3e8b8b60,,,,,,,decisionTrl,resources/DR.BMP,resources/DY.BMP,Door2,0.270253057,-0.012444803,1,0,0,0.4146,optionRight,40,12820,6,20,0,20,0,1,,,,,,,,,,,,,,,,,,,,,,,,,,,,,,,,,,,,,,,
,,,,,,,,2023-08-16_08h47.16.187,HF_wild_card,2022.2.4,MacIntel,60.0024001,5cdfe8f96e2e4e0019757481,64d2fd46c836a06233681665,64dc7ef0e7d73c8f3e8b8b60,,,,,,,decisionTrl,resources/DR.BMP,resources/DP.BMP,WildCard_Ex,0.221407948,0.003116508,1,0,0,0.5153,optionRight,55,12875,6,21,0,21,0,1,,,,,,,,,,,,,,,,,,,,,,,,,,,,,,,,,,,,,,,
,,,,,,,,2023-08-16_08h47.16.187,HF_wild_card,2022.2.4,MacIntel,60.0024001,5cdfe8f96e2e4e0019757481,64d2fd46c836a06233681665,64dc7ef0e7d73c8f3e8b8b60,,,,,,,decisionTrl,resources/DBN.BMP,resources/DG.BMP,Door3,-0.519429348,-0.088608186,1,0,0,0.5481,optionLeft,70,12945,6,22,0,22,0,1,,,,,,,,,,,,,,,,,,,,,,,,,,,,,,,,,,,,,,,
,,,,,,,,2023-08-16_08h47.16.187,HF_wild_card,2022.2.4,MacIntel,60.0024001,5cdfe8f96e2e4e0019757481,64d2fd46c836a06233681665,64dc7ef0e7d73c8f3e8b8b60,,,,,,,decisionTrl,resources/DBN.BMP,resources/DP.BMP,Door3,-0.383296535,-0.080625849,1,0,0,0.43,optionLeft,70,13015,6,23,0,23,0,1,,,,,,,,,,,,,,,,,,,,,,,,,,,,,,,,,,,,,,,
,,,,,,,,2023-08-16_08h47.16.187,HF_wild_card,2022.2.4,MacIntel,60.0024001,5cdfe8f96e2e4e0019757481,64d2fd46c836a06233681665,64dc7ef0e7d73c8f3e8b8b60,,,,,,,decisionTrl,resources/DP.BMP,resources/DY.BMP,Door2,0.428299083,0.005740489,1,0,0,0.4167,optionRight,40,13055,6,24,0,24,0,1,,,,,,,,,,,,,,,,,,,,,,,,,,,,,,,,,,,,,,,
,,,,,,,,2023-08-16_08h47.16.187,HF_wild_card,2022.2.4,MacIntel,60.0024001,5cdfe8f96e2e4e0019757481,64d2fd46c836a06233681665,64dc7ef0e7d73c8f3e8b8b60,,,,,,,ctch,resources/DG.BMP,resources/DR.BMP,Door4,-0.326970109,-0.045851732,1,0,0,0.3996,optionLeft,60,13115,6,25,0,25,0,1,,,,,,,,,,,,,,,,,,,,,,,,,,,,,,,,,,,,,,,
,,,,,,,,2023-08-16_08h47.16.187,HF_wild_card,2022.2.4,MacIntel,60.0024001,5cdfe8f96e2e4e0019757481,64d2fd46c836a06233681665,64dc7ef0e7d73c8f3e8b8b60,,,,,,,sngl,resources/DY.BMP,resources/Empty.png,Door2,-0.338429857,-0.060067086,1,0,0,0.4306,optionLeft,20,13135,6,26,0,26,0,1,,,,,,,,,,,,,,,,,,,,,,,,,,,,,,,,,,,,,,,
,,,,,,,,2023-08-16_08h47.16.187,HF_wild_card,2022.2.4,MacIntel,60.0024001,5cdfe8f96e2e4e0019757481,64d2fd46c836a06233681665,64dc7ef0e7d73c8f3e8b8b60,,,,,,,decisionTrl,resources/DY.BMP,resources/DR.BMP,Door1,0.22534392,0.001829993,1,0,0,0.4145,optionRight,30,13165,6,27,0,27,0,1,,,,,,,,,,,,,,,,,,,,,,,,,,,,,,,,,,,,,,,
,,,,,,,,2023-08-16_08h47.16.187,HF_wild_card,2022.2.4,MacIntel,60.0024001,5cdfe8f96e2e4e0019757481,64d2fd46c836a06233681665,64dc7ef0e7d73c8f3e8b8b60,,,,,,,decisionTrl,resources/DBN.BMP,resources/DG.BMP,Door3,-0.375675102,-0.000178329,1,0,0,0.3787,optionLeft,70,13235,6,28,0,28,0,1,,,,,,,,,,,,,,,,,,,,,,,,,,,,,,,,,,,,,,,
,,,,,,,,2023-08-16_08h47.16.187,HF_wild_card,2022.2.4,MacIntel,60.0024001,5cdfe8f96e2e4e0019757481,64d2fd46c836a06233681665,64dc7ef0e7d73c8f3e8b8b60,,,,,,,sngl,resources/Empty.png,resources/DG.BMP,Door4,0.366563349,0.018117357,1,0,0,0.3798,optionRight,80,13315,6,29,0,29,0,1,,,,,,,,,,,,,,,,,,,,,,,,,,,,,,,,,,,,,,,
,,,,,,,,2023-08-16_08h47.16.187,HF_wild_card,2022.2.4,MacIntel,60.0024001,5cdfe8f96e2e4e0019757481,64d2fd46c836a06233681665,64dc7ef0e7d73c8f3e8b8b60,,,,,,,ctch,resources/DBN.BMP,resources/DY.BMP,Door3,-0.2546875,-0.084922724,1,0,0,0.3667,optionLeft,70,13385,6,30,0,30,0,1,,,,,,,,,,,,,,,,,,,,,,,,,,,,,,,,,,,,,,,
,,,,,,,,2023-08-16_08h47.16.187,HF_wild_card,2022.2.4,MacIntel,60.0024001,5cdfe8f96e2e4e0019757481,64d2fd46c836a06233681665,64dc7ef0e7d73c8f3e8b8b60,,,,,,,sngl,resources/DBN.BMP,resources/Empty.png,Door3,-0.349503227,-0.054691746,1,0,0,0.4479,optionLeft,70,13455,6,31,0,31,0,1,,,,,,,,,,,,,,,,,,,,,,,,,,,,,,,,,,,,,,,
,,,,,,,,2023-08-16_08h47.16.187,HF_wild_card,2022.2.4,MacIntel,60.0024001,5cdfe8f96e2e4e0019757481,64d2fd46c836a06233681665,64dc7ef0e7d73c8f3e8b8b60,,,,,,,decisionTrl,resources/DR.BMP,resources/DY.BMP,Door2,0.265620754,-0.052084749,1,0,0,0.4624,optionRight,40,13495,6,32,0,32,0,1,,,,,,,,,,,,,,,,,,,,,,,,,,,,,,,,,,,,,,,
,,,,,,,,2023-08-16_08h47.16.187,HF_wild_card,2022.2.4,MacIntel,60.0024001,5cdfe8f96e2e4e0019757481,64d2fd46c836a06233681665,64dc7ef0e7d73c8f3e8b8b60,,,,,,,decisionTrl,resources/DR.BMP,resources/DY.BMP,Door1,-0.317408288,-0.036824898,1,0,0,0.4291,optionLeft,30,13525,6,33,0,33,0,1,,,,,,,,,,,,,,,,,,,,,,,,,,,,,,,,,,,,,,,
,,,,,,,,2023-08-16_08h47.16.187,HF_wild_card,2022.2.4,MacIntel,60.0024001,5cdfe8f96e2e4e0019757481,64d2fd46c836a06233681665,64dc7ef0e7d73c8f3e8b8b60,,,,,,,decisionTrl,resources/DBN.BMP,resources/DG.BMP,Door3,-0.241677989,-0.036047894,1,0,0,0.4276,optionLeft,70,13595,6,34,0,34,0,1,,,,,,,,,,,,,,,,,,,,,,,,,,,,,,,,,,,,,,,
,,,,,,,,2023-08-16_08h47.16.187,HF_wild_card,2022.2.4,MacIntel,60.0024001,5cdfe8f96e2e4e0019757481,64d2fd46c836a06233681665,64dc7ef0e7d73c8f3e8b8b60,,,,,,,ctch,resources/DG.BMP,resources/DR.BMP,Door4,-0.323836617,-0.00388502,1,0,0,0.4319,optionLeft,60,13655,6,35,0,35,0,1,,,,,,,,,,,,,,,,,,,,,,,,,,,,,,,,,,,,,,,
,,,,,,,,2023-08-16_08h47.16.187,HF_wild_card,2022.2.4,MacIntel,60.0024001,5cdfe8f96e2e4e0019757481,64d2fd46c836a06233681665,64dc7ef0e7d73c8f3e8b8b60,,,,,,,ctch,resources/DBN.BMP,resources/DY.BMP,Door3,-0.242654552,-0.018868886,1,0,0,0.4125,optionLeft,70,13725,6,36,0,36,0,1,,,,,,,,,,,,,,,,,,,,,,,,,,,,,,,,,,,,,,,
,,,,,,,,2023-08-16_08h47.16.187,HF_wild_card,2022.2.4,MacIntel,60.0024001,5cdfe8f96e2e4e0019757481,64d2fd46c836a06233681665,64dc7ef0e7d73c8f3e8b8b60,,,,,,,decisionTrl,resources/DG.BMP,resources/DBN.BMP,Door3,0.326316236,-0.025866168,1,0,0,0.4638,optionRight,70,13795,6,37,0,37,0,1,,,,,,,,,,,,,,,,,,,,,,,,,,,,,,,,,,,,,,,
,,,,,,,,2023-08-16_08h47.16.187,HF_wild_card,2022.2.4,MacIntel,60.0024001,5cdfe8f96e2e4e0019757481,64d2fd46c836a06233681665,64dc7ef0e7d73c8f3e8b8b60,,,,,,,decisionTrl,resources/DY.BMP,resources/DR.BMP,Door2,-0.330472996,-0.009731658,1,0,0,0.4302,optionLeft,40,13835,6,38,0,38,0,1,,,,,,,,,,,,,,,,,,,,,,,,,,,,,,,,,,,,,,,
,,,,,,,,2023-08-16_08h47.16.187,HF_wild_card,2022.2.4,MacIntel,60.0024001,5cdfe8f96e2e4e0019757481,64d2fd46c836a06233681665,64dc7ef0e7d73c8f3e8b8b60,,,,,,,sngl,resources/Empty.png,resources/DY.BMP,Door2,0.234430197,-0.021832541,1,0,0,0.4475,optionRight,40,13875,6,39,0,39,0,1,,,,,,,,,,,,,,,,,,,,,,,,,,,,,,,,,,,,,,,
,,,,,,,,2023-08-16_08h47.16.187,HF_wild_card,2022.2.4,MacIntel,60.0024001,5cdfe8f96e2e4e0019757481,64d2fd46c836a06233681665,64dc7ef0e7d73c8f3e8b8b60,,,,,,,sngl,resources/DR.BMP,resources/Empty.png,Door1,-0.368210768,-0.079874321,1,0,0,0.4299,optionLeft,30,13905,6,40,0,40,0,1,,,,,,,,,,,,,,,,,,,,,,,,,,,,,,,,,,,,,,,
,,,,,,,,2023-08-16_08h47.16.187,HF_wild_card,2022.2.4,MacIntel,60.0024001,5cdfe8f96e2e4e0019757481,64d2fd46c836a06233681665,64dc7ef0e7d73c8f3e8b8b60,,,,,,,sngl,resources/Empty.png,resources/DP.BMP,WildCard_Ex,0.342331861,-0.042399796,1,0,0,0.4173,optionRight,45,13950,6,41,0,41,0,1,,,,,,,,,,,,,,,,,,,,,,,,,,,,,,,,,,,,,,,
,,,,,,,,2023-08-16_08h47.16.187,HF_wild_card,2022.2.4,MacIntel,60.0024001,5cdfe8f96e2e4e0019757481,64d2fd46c836a06233681665,64dc7ef0e7d73c8f3e8b8b60,,,,,,,decisionTrl,resources/DG.BMP,resources/DP.BMP,Door4,-0.284689198,-0.037304688,1,0,0,0.3993,optionLeft,80,14030,6,42,0,42,0,1,,,,,,,,,,,,,,,,,,,,,,,,,,,,,,,,,,,,,,,
,,,,,,,,2023-08-16_08h47.16.187,HF_wild_card,2022.2.4,MacIntel,60.0024001,5cdfe8f96e2e4e0019757481,64d2fd46c836a06233681665,64dc7ef0e7d73c8f3e8b8b60,,,,,,,ctch,resources/DR.BMP,resources/DG.BMP,Door4,0.406615149,-0.004492187,1,0,0,0.4141,optionRight,80,14110,6,43,0,43,0,1,,,,,,,,,,,,,,,,,,,,,,,,,,,,,,,,,,,,,,,
,,,,,,,,2023-08-16_08h47.16.187,HF_wild_card,2022.2.4,MacIntel,60.0024001,5cdfe8f96e2e4e0019757481,64d2fd46c836a06233681665,64dc7ef0e7d73c8f3e8b8b60,,,,,,,,,,,,,,,,,,,,,,,,,,5,0,5,0,1,,,,,,,,,,,,,,,,,,,,,,,,,,,,,,,,,,
,,,,,,,,2023-08-16_08h47.16.187,HF_wild_card,2022.2.4,MacIntel,60.0024001,5cdfe8f96e2e4e0019757481,64d2fd46c836a06233681665,64dc7ef0e7d73c8f3e8b8b60,,,,,,,decisionTrl,resources/DY.BMP,resources/DR.BMP,Door1,0.420023777,-0.05064538,1,0,0,1.3985,optionRight,30,14140,7,0,0,0,0,1,,,,,,,,,,,,,,,,,,,,,,,,,,,,,,,,,,,,,,,
,,,,,,,,2023-08-16_08h47.16.187,HF_wild_card,2022.2.4,MacIntel,60.0024001,5cdfe8f96e2e4e0019757481,64d2fd46c836a06233681665,64dc7ef0e7d73c8f3e8b8b60,,,,,,,decisionTrl,resources/DR.BMP,resources/DY.BMP,Door1,-0.253918988,-0.043724524,1,0,0,0.582,optionLeft,30,14170,7,1,0,1,0,1,,,,,,,,,,,,,,,,,,,,,,,,,,,,,,,,,,,,,,,
,,,,,,,,2023-08-16_08h47.16.187,HF_wild_card,2022.2.4,MacIntel,60.0024001,5cdfe8f96e2e4e0019757481,64d2fd46c836a06233681665,64dc7ef0e7d73c8f3e8b8b60,,,,,,,decisionTrl,resources/DBN.BMP,resources/DG.BMP,Door3,-0.295478091,0.018919837,1,0,0,0.5647,optionLeft,70,14240,7,2,0,2,0,1,,,,,,,,,,,,,,,,,,,,,,,,,,,,,,,,,,,,,,,
,,,,,,,,2023-08-16_08h47.16.187,HF_wild_card,2022.2.4,MacIntel,60.0024001,5cdfe8f96e2e4e0019757481,64d2fd46c836a06233681665,64dc7ef0e7d73c8f3e8b8b60,,,,,,,decisionTrl,resources/DY.BMP,resources/DR.BMP,Door1,0.487860904,-0.035665761,1,0,0,1.2144,optionRight,30,14270,7,3,0,3,0,1,,,,,,,,,,,,,,,,,,,,,,,,,,,,,,,,,,,,,,,
,,,,,,,,2023-08-16_08h47.16.187,HF_wild_card,2022.2.4,MacIntel,60.0024001,5cdfe8f96e2e4e0019757481,64d2fd46c836a06233681665,64dc7ef0e7d73c8f3e8b8b60,,,,,,,decisionTrl,resources/DY.BMP,resources/DR.BMP,Door1,0.331950577,0.006398607,1,0,0,0.6981,optionRight,30,14300,7,4,0,4,0,1,,,,,,,,,,,,,,,,,,,,,,,,,,,,,,,,,,,,,,,
,,,,,,,,2023-08-16_08h47.16.187,HF_wild_card,2022.2.4,MacIntel,60.0024001,5cdfe8f96e2e4e0019757481,64d2fd46c836a06233681665,64dc7ef0e7d73c8f3e8b8b60,,,,,,,ctch,resources/DG.BMP,resources/DR.BMP,Door4,-0.375883152,-0.058215863,1,0,0,0.4824,optionLeft,60,14360,7,5,0,5,0,1,,,,,,,,,,,,,,,,,,,,,,,,,,,,,,,,,,,,,,,
,,,,,,,,2023-08-16_08h47.16.187,HF_wild_card,2022.2.4,MacIntel,60.0024001,5cdfe8f96e2e4e0019757481,64d2fd46c836a06233681665,64dc7ef0e7d73c8f3e8b8b60,,,,,,,decisionTrl,resources/DG.BMP,resources/DBN.BMP,Door3,0.314788553,0.011379076,1,0,0,0.516,optionRight,70,14430,7,6,0,6,0,1,,,,,,,,,,,,,,,,,,,,,,,,,,,,,,,,,,,,,,,
,,,,,,,,2023-08-16_08h47.16.187,HF_wild_card,2022.2.4,MacIntel,60.0024001,5cdfe8f96e2e4e0019757481,64d2fd46c836a06233681665,64dc7ef0e7d73c8f3e8b8b60,,,,,,,decisionTrl,resources/DY.BMP,resources/DR.BMP,Door1,0.328749151,-0.03669752,1,0,0,1.2303,optionRight,30,14460,7,7,0,7,0,1,,,,,,,,,,,,,,,,,,,,,,,,,,,,,,,,,,,,,,,
,,,,,,,,2023-08-16_08h47.16.187,HF_wild_card,2022.2.4,MacIntel,60.0024001,5cdfe8f96e2e4e0019757481,64d2fd46c836a06233681665,64dc7ef0e7d73c8f3e8b8b60,,,,,,,decisionTrl,resources/DG.BMP,resources/DBN.BMP,Door3,0.284566067,-0.011400306,1,0,0,0.4997,optionRight,70,14530,7,8,0,8,0,1,,,,,,,,,,,,,,,,,,,,,,,,,,,,,,,,,,,,,,,
,,,,,,,,2023-08-16_08h47.16.187,HF_wild_card,2022.2.4,MacIntel,60.0024001,5cdfe8f96e2e4e0019757481,64d2fd46c836a06233681665,64dc7ef0e7d73c8f3e8b8b60,,,,,,,decisionTrl,resources/DR.BMP,resources/DY.BMP,Door2,0.416117527,-0.039852242,1,0,0,0.7161,optionRight,20,14550,7,9,0,9,0,1,,,,,,,,,,,,,,,,,,,,,,,,,,,,,,,,,,,,,,,
,,,,,,,,2023-08-16_08h47.16.187,HF_wild_card,2022.2.4,MacIntel,60.0024001,5cdfe8f96e2e4e0019757481,64d2fd46c836a06233681665,64dc7ef0e7d73c8f3e8b8b60,,,,,,,ctch,resources/DR.BMP,resources/DG.BMP,Door4,0.347855808,-0.006169327,1,0,0,0.7131,optionRight,80,14630,7,10,0,10,0,1,,,,,,,,,,,,,,,,,,,,,,,,,,,,,,,,,,,,,,,
,,,,,,,,2023-08-16_08h47.16.187,HF_wild_card,2022.2.4,MacIntel,60.0024001,5cdfe8f96e2e4e0019757481,64d2fd46c836a06233681665,64dc7ef0e7d73c8f3e8b8b60,,,,,,,decisionTrl,resources/DG.BMP,resources/DBN.BMP,Door3,0.378116508,-0.085805876,1,0,0,0.7843,optionRight,70,14700,7,11,0,11,0,1,,,,,,,,,,,,,,,,,,,,,,,,,,,,,,,,,,,,,,,
,,,,,,,,2023-08-16_08h47.16.187,HF_wild_card,2022.2.4,MacIntel,60.0024001,5cdfe8f96e2e4e0019757481,64d2fd46c836a06233681665,64dc7ef0e7d73c8f3e8b8b60,,,,,,,ctch,resources/DG.BMP,resources/DR.BMP,Door4,-0.298297385,-0.058576766,1,0,0,0.5982,optionLeft,80,14780,7,12,0,12,0,1,,,,,,,,,,,,,,,,,,,,,,,,,,,,,,,,,,,,,,,
,,,,,,,,2023-08-16_08h47.16.187,HF_wild_card,2022.2.4,MacIntel,60.0024001,5cdfe8f96e2e4e0019757481,64d2fd46c836a06233681665,64dc7ef0e7d73c8f3e8b8b60,,,,,,,decisionTrl,resources/DBN.BMP,resources/DG.BMP,Door3,-0.238981827,-0.014966882,1,0,0,0.7493,optionLeft,70,14850,7,13,0,13,0,1,,,,,,,,,,,,,,,,,,,,,,,,,,,,,,,,,,,,,,,
,,,,,,,,2023-08-16_08h47.16.187,HF_wild_card,2022.2.4,MacIntel,60.0024001,5cdfe8f96e2e4e0019757481,64d2fd46c836a06233681665,64dc7ef0e7d73c8f3e8b8b60,,,,,,,decisionTrl,resources/DG.BMP,resources/DBN.BMP,Door3,0.374762228,-0.013506284,1,0,0,0.4827,optionRight,70,14920,7,14,0,14,0,1,,,,,,,,,,,,,,,,,,,,,,,,,,,,,,,,,,,,,,,
,,,,,,,,2023-08-16_08h47.16.187,HF_wild_card,2022.2.4,MacIntel,60.0024001,5cdfe8f96e2e4e0019757481,64d2fd46c836a06233681665,64dc7ef0e7d73c8f3e8b8b60,,,,,,,decisionTrl,resources/DR.BMP,resources/DY.BMP,Door1,-0.371335768,-0.064058254,1,0,0,0.5953,optionLeft,30,14950,7,15,0,15,0,1,,,,,,,,,,,,,,,,,,,,,,,,,,,,,,,,,,,,,,,
,,,,,,,,2023-08-16_08h47.16.187,HF_wild_card,2022.2.4,MacIntel,60.0024001,5cdfe8f96e2e4e0019757481,64d2fd46c836a06233681665,64dc7ef0e7d73c8f3e8b8b60,,,,,,,ctch,resources/DBN.BMP,resources/DY.BMP,Door3,-0.25177055,-0.063438349,1,0,0,0.5141,optionLeft,70,15020,7,16,0,16,0,1,,,,,,,,,,,,,,,,,,,,,,,,,,,,,,,,,,,,,,,
,,,,,,,,2023-08-16_08h47.16.187,HF_wild_card,2022.2.4,MacIntel,60.0024001,5cdfe8f96e2e4e0019757481,64d2fd46c836a06233681665,64dc7ef0e7d73c8f3e8b8b60,,,,,,,ctch,resources/DG.BMP,resources/DR.BMP,Door4,-0.30188519,-0.071064029,1,0,0,1.1778,optionLeft,60,15080,7,17,0,17,0,1,,,,,,,,,,,,,,,,,,,,,,,,,,,,,,,,,,,,,,,
,,,,,,,,2023-08-16_08h47.16.187,HF_wild_card,2022.2.4,MacIntel,60.0024001,5cdfe8f96e2e4e0019757481,64d2fd46c836a06233681665,64dc7ef0e7d73c8f3e8b8b60,,,,,,,decisionTrl,resources/DBN.BMP,resources/DG.BMP,Door3,-0.208865489,-0.07564538,1,0,0,0.4325,optionLeft,70,15150,7,18,0,18,0,1,,,,,,,,,,,,,,,,,,,,,,,,,,,,,,,,,,,,,,,
,,,,,,,,2023-08-16_08h47.16.187,HF_wild_card,2022.2.4,MacIntel,60.0024001,5cdfe8f96e2e4e0019757481,64d2fd46c836a06233681665,64dc7ef0e7d73c8f3e8b8b60,,,,,,,ctch,resources/DBN.BMP,resources/DY.BMP,Door3,-0.316508152,-0.068448539,1,0,0,0.4799,optionLeft,70,15220,7,19,0,19,0,1,,,,,,,,,,,,,,,,,,,,,,,,,,,,,,,,,,,,,,,
,,,,,,,,2023-08-16_08h47.16.187,HF_wild_card,2022.2.4,MacIntel,60.0024001,5cdfe8f96e2e4e0019757481,64d2fd46c836a06233681665,64dc7ef0e7d73c8f3e8b8b60,,,,,,,decisionTrl,resources/DR.BMP,resources/DY.BMP,Door2,0.297524626,-0.024974524,1,0,0,0.5456,optionRight,20,15240,7,20,0,20,0,1,,,,,,,,,,,,,,,,,,,,,,,,,,,,,,,,,,,,,,,
,,,,,,,,2023-08-16_08h47.16.187,HF_wild_card,2022.2.4,MacIntel,60.0024001,5cdfe8f96e2e4e0019757481,64d2fd46c836a06233681665,64dc7ef0e7d73c8f3e8b8b60,,,,,,,decisionTrl,resources/DG.BMP,resources/DBN.BMP,Door3,0.345278533,-0.010878057,1,0,0,0.5184,optionRight,70,15310,7,21,0,21,0,1,,,,,,,,,,,,,,,,,,,,,,,,,,,,,,,,,,,,,,,
,,,,,,,,2023-08-16_08h47.16.187,HF_wild_card,2022.2.4,MacIntel,60.0024001,5cdfe8f96e2e4e0019757481,64d2fd46c836a06233681665,64dc7ef0e7d73c8f3e8b8b60,,,,,,,ctch,resources/DY.BMP,resources/DBN.BMP,Door3,0.276978601,-0.017769192,1,0,0,0.5161,optionRight,70,15380,7,22,0,22,0,1,,,,,,,,,,,,,,,,,,,,,,,,,,,,,,,,,,,,,,,
,,,,,,,,2023-08-16_08h47.16.187,HF_wild_card,2022.2.4,MacIntel,60.0024001,5cdfe8f96e2e4e0019757481,64d2fd46c836a06233681665,64dc7ef0e7d73c8f3e8b8b60,,,,,,,ctch,resources/DY.BMP,resources/DBN.BMP,Door3,0.268618376,-0.017382813,1,0,0,0.5005,optionRight,70,15450,7,23,0,23,0,1,,,,,,,,,,,,,,,,,,,,,,,,,,,,,,,,,,,,,,,
,,,,,,,,2023-08-16_08h47.16.187,HF_wild_card,2022.2.4,MacIntel,60.0024001,5cdfe8f96e2e4e0019757481,64d2fd46c836a06233681665,64dc7ef0e7d73c8f3e8b8b60,,,,,,,decisionTrl,resources/DG.BMP,resources/DBN.BMP,Door3,0.305298913,0.011400306,1,0,0,0.5017,optionRight,70,15520,7,24,0,24,0,1,,,,,,,,,,,,,,,,,,,,,,,,,,,,,,,,,,,,,,,
,,,,,,,,2023-08-16_08h47.16.187,HF_wild_card,2022.2.4,MacIntel,60.0024001,5cdfe8f96e2e4e0019757481,64d2fd46c836a06233681665,64dc7ef0e7d73c8f3e8b8b60,,,,,,,ctch,resources/DR.BMP,resources/DG.BMP,Door4,0.411965014,-0.018011209,1,0,0,0.5632,optionRight,80,15600,7,25,0,25,0,1,,,,,,,,,,,,,,,,,,,,,,,,,,,,,,,,,,,,,,,
,,,,,,,,2023-08-16_08h47.16.187,HF_wild_card,2022.2.4,MacIntel,60.0024001,5cdfe8f96e2e4e0019757481,64d2fd46c836a06233681665,64dc7ef0e7d73c8f3e8b8b60,,,,,,,decisionTrl,resources/DY.BMP,resources/DR.BMP,Door2,-0.341593071,-0.060168988,1,0,0,0.5019,optionLeft,20,15620,7,26,0,26,0,1,,,,,,,,,,,,,,,,,,,,,,,,,,,,,,,,,,,,,,,
,,,,,,,,2023-08-16_08h47.16.187,HF_wild_card,2022.2.4,MacIntel,60.0024001,5cdfe8f96e2e4e0019757481,64d2fd46c836a06233681665,64dc7ef0e7d73c8f3e8b8b60,,,,,,,decisionTrl,resources/DR.BMP,resources/DY.BMP,Door1,-0.417556895,-0.071709409,1,0,0,0.7669,optionLeft,30,15650,7,27,0,27,0,1,,,,,,,,,,,,,,,,,,,,,,,,,,,,,,,,,,,,,,,
,,,,,,,,2023-08-16_08h47.16.187,HF_wild_card,2022.2.4,MacIntel,60.0024001,5cdfe8f96e2e4e0019757481,64d2fd46c836a06233681665,64dc7ef0e7d73c8f3e8b8b60,,,,,,,ctch,resources/DR.BMP,resources/DG.BMP,Door4,0.309684952,-0.011238961,1,0,0,0.6002,optionRight,80,15730,7,28,0,28,0,1,,,,,,,,,,,,,,,,,,,,,,,,,,,,,,,,,,,,,,,
,,,,,,,,2023-08-16_08h47.16.187,HF_wild_card,2022.2.4,MacIntel,60.0024001,5cdfe8f96e2e4e0019757481,64d2fd46c836a06233681665,64dc7ef0e7d73c8f3e8b8b60,,,,,,,decisionTrl,resources/DBN.BMP,resources/DG.BMP,Door3,-0.399108356,-0.023675272,1,0,0,0.6313,optionLeft,70,15800,7,29,0,29,0,1,,,,,,,,,,,,,,,,,,,,,,,,,,,,,,,,,,,,,,,
,,,,,,,,2023-08-16_08h47.16.187,HF_wild_card,2022.2.4,MacIntel,60.0024001,5cdfe8f96e2e4e0019757481,64d2fd46c836a06233681665,64dc7ef0e7d73c8f3e8b8b60,,,,,,,decisionTrl,resources/DBN.BMP,resources/DG.BMP,Door3,-0.338200577,-0.017340353,1,0,0,0.5129,optionLeft,70,15870,7,30,0,30,0,1,,,,,,,,,,,,,,,,,,,,,,,,,,,,,,,,,,,,,,,
,,,,,,,,2023-08-16_08h47.16.187,HF_wild_card,2022.2.4,MacIntel,60.0024001,5cdfe8f96e2e4e0019757481,64d2fd46c836a06233681665,64dc7ef0e7d73c8f3e8b8b60,,,,,,,decisionTrl,resources/DR.BMP,resources/DY.BMP,Door2,0.294259511,-0.00891644,1,0,0,0.5004,optionRight,20,15890,7,31,0,31,0,1,,,,,,,,,,,,,,,,,,,,,,,,,,,,,,,,,,,,,,,
,,,,,,,,2023-08-16_08h47.16.187,HF_wild_card,2022.2.4,MacIntel,60.0024001,5cdfe8f96e2e4e0019757481,64d2fd46c836a06233681665,64dc7ef0e7d73c8f3e8b8b60,,,,,,,ctch,resources/DBN.BMP,resources/DY.BMP,Door3,-0.248794158,-0.054538893,1,0,0,0.4342,optionLeft,70,15960,7,32,0,32,0,1,,,,,,,,,,,,,,,,,,,,,,,,,,,,,,,,,,,,,,,
,,,,,,,,2023-08-16_08h47.16.187,HF_wild_card,2022.2.4,MacIntel,60.0024001,5cdfe8f96e2e4e0019757481,64d2fd46c836a06233681665,64dc7ef0e7d73c8f3e8b8b60,,,,,,,decisionTrl,resources/DY.BMP,resources/DR.BMP,Door1,0.209183933,-0.035075577,1,0,0,0.866,optionRight,30,15990,7,33,0,33,0,1,,,,,,,,,,,,,,,,,,,,,,,,,,,,,,,,,,,,,,,
,,,,,,,,2023-08-16_08h47.16.187,HF_wild_card,2022.2.4,MacIntel,60.0024001,5cdfe8f96e2e4e0019757481,64d2fd46c836a06233681665,64dc7ef0e7d73c8f3e8b8b60,,,,,,,decisionTrl,resources/DBN.BMP,resources/DG.BMP,Door3,-0.362011719,-0.032837976,1,0,0,0.5344,optionLeft,70,16060,7,34,0,34,0,1,,,,,,,,,,,,,,,,,,,,,,,,,,,,,,,,,,,,,,,
,,,,,,,,2023-08-16_08h47.16.187,HF_wild_card,2022.2.4,MacIntel,60.0024001,5cdfe8f96e2e4e0019757481,64d2fd46c836a06233681665,64dc7ef0e7d73c8f3e8b8b60,,,,,,,ctch,resources/DY.BMP,resources/DBN.BMP,Door3,0.381874151,-0.035674253,1,0,0,0.4522,optionRight,70,16130,7,35,0,35,0,1,,,,,,,,,,,,,,,,,,,,,,,,,,,,,,,,,,,,,,,
,,,,,,,,2023-08-16_08h47.16.187,HF_wild_card,2022.2.4,MacIntel,60.0024001,5cdfe8f96e2e4e0019757481,64d2fd46c836a06233681665,64dc7ef0e7d73c8f3e8b8b60,,,,,,,,,,,,,,,,,,,,,,,,,,6,0,6,0,1,,,,,,,,,,,,,,,,,,,,,,,,,,,,,,,,,,
,,,,,,,,2023-08-16_08h47.16.187,HF_wild_card,2022.2.4,MacIntel,60.0024001,5cdfe8f96e2e4e0019757481,64d2fd46c836a06233681665,64dc7ef0e7d73c8f3e8b8b60,,,,,,,,,,,,,,,,,,,,,,,,,,,,,,,4,,,,,,,,,,,,,,,,,,,,,,,,,,,,,,,,,
,,,,,,,,2023-08-16_08h47.16.187,HF_wild_card,2022.2.4,MacIntel,60.0024001,5cdfe8f96e2e4e0019757481,64d2fd46c836a06233681665,64dc7ef0e7d73c8f3e8b8b60,,,,,,,,,,,,,,,,,,,,,,,,,,,,,,,,,,,,,,,,,,,,,,,,,,,,,,,,,,,,,,,,
,,,,,,,,2023-08-16_08h47.16.187,HF_wild_card,2022.2.4,MacIntel,60.0024001,5cdfe8f96e2e4e0019757481,64d2fd46c836a06233681665,64dc7ef0e7d73c8f3e8b8b60,,,,,,,,,,,,,,,,,,,,,,,,,,,,,,,,30,Door2,resources/DY.BMP,0,0,0,0,1,,,,,,,,,,,,,,,,,,,,,,,,,
,,,,,,,,2023-08-16_08h47.16.187,HF_wild_card,2022.2.4,MacIntel,60.0024001,5cdfe8f96e2e4e0019757481,64d2fd46c836a06233681665,64dc7ef0e7d73c8f3e8b8b60,,,,,,,,,,,,,,,,,,,,,,,,,,,,,,,,35,Door1,resources/DR.BMP,1,0,1,0,1,,,,,,,,,,,,,,,,,,,,,,,,,
,,,,,,,,2023-08-16_08h47.16.187,HF_wild_card,2022.2.4,MacIntel,60.0024001,5cdfe8f96e2e4e0019757481,64d2fd46c836a06233681665,64dc7ef0e7d73c8f3e8b8b60,,,,,,,,,,,,,,,,,,,,,,,,,,,,,,,,70,Door3,resources/DBN.BMP,2,0,2,0,1,,,,,,,,,,,,,,,,,,,,,,,,,
,,,,,,,,2023-08-16_08h47.16.187,HF_wild_card,2022.2.4,MacIntel,60.0024001,5cdfe8f96e2e4e0019757481,64d2fd46c836a06233681665,64dc7ef0e7d73c8f3e8b8b60,,,,,,,,,,,,,,,,,,,,,,,,,,,,,,,,55,WC_nonExtreme,resources/DB.BMP,3,0,3,0,1,,,,,,,,,,,,,,,,,,,,,,,,,
