Condition,Low fixed image (Door1),Low risky image (Door2),High fixed image (Door3),High risky image (Door4),Extreme Wild Card,NonExtreme Wild Card,,date,expName,psychopyVersion,OS,frameRate,PROLIFIC_PID,STUDY_ID,SESSION_ID,mouse_2.x,mouse_2.y,mouse_2.leftButton,mouse_2.midButton,mouse_2.rightButton,mouse_2.clicked_name,Trial Type,Left Option Image,Right Option Image,Chosen Door,mouse.x,mouse.y,mouse.leftButton,mouse.midButton,mouse.rightButton,mouse.time,mouse.clicked_name,Feedback,Cumulative Reward,Block,trial.thisRepN,trial.thisTrialN,trial.thisN,trial.thisIndex,trial.ran,blocks.thisRepN,blocks.thisTrialN,blocks.thisN,blocks.thisIndex,blocks.ran,Money conversion,First Outcome Reported,Shown Door (First Outcome),Displayed Image (First Outcome),outcomes.thisRepN,outcomes.thisTrialN,outcomes.thisN,outcomes.thisIndex,outcomes.ran,judgments.thisRepN,judgments.thisTrialN,judgments.thisN,judgments.thisIndex,judgments.ran,freqMouse.x,freqMouse.y,freqMouse.leftButton,freqMouse.midButton,freqMouse.rightButton,freqMouse.clicked_name,FQJ for first outcome,FQJ for second outcome,Shown Door,Displayed Image,trials.thisRepN,trials.thisTrialN,trials.thisN,trials.thisIndex,trials.ran,judgBlock.thisRepN,judgBlock.thisTrialN,judgBlock.thisN,judgBlock.thisIndex,judgBlock.ran
0,resources/DP.BMP,resources/DB.BMP,resources/DY.BMP,resources/DR.BMP,resources/DBN.BMP,resources/DG.BMP,,2023-08-16_08h33.36.106,HF_wild_card,2022.2.4,Win32,59.95203837,56235e19ed6e5a0011c80a7b,64d2fd46c836a06233681665,64dc7ba6215c87190a6f0a8e,,,,,,,,,,,,,,,,,,,,,,,,,,,,,,,,,,,,,,,,,,,,,,,,,,,,,,,,,,,,,,,,
,,,,,,,,2023-08-16_08h33.36.106,HF_wild_card,2022.2.4,Win32,59.95203837,56235e19ed6e5a0011c80a7b,64d2fd46c836a06233681665,64dc7ba6215c87190a6f0a8e,0.013020833,-0.423177083,1,0,0,agree,,,,,,,,,,,,,,,,,,,,,,,,,,,,,,,,,,,,,,,,,,,,,,,,,,,,,,,,,,
,,,,,,,,2023-08-16_08h33.36.106,HF_wild_card,2022.2.4,Win32,59.95203837,56235e19ed6e5a0011c80a7b,64d2fd46c836a06233681665,64dc7ba6215c87190a6f0a8e,,,,,,,,,,,,,,,,,,,,,,,,,,,,,,,,,,,,,,,,,,,,,,,,,,,,,,,,,,,,,,,,
,,,,,,,,2023-08-16_08h33.36.106,HF_wild_card,2022.2.4,Win32,59.95203837,56235e19ed6e5a0011c80a7b,64d2fd46c836a06233681665,64dc7ba6215c87190a6f0a8e,,,,,,,decisionTrl,resources/DB.BMP,resources/DP.BMP,Door1,0.373697917,-0.223958333,1,0,0,2.39,optionRight,30,30,1,0,0,0,0,1,,,,,,,,,,,,,,,,,,,,,,,,,,,,,,,,,,,,,,,
,,,,,,,,2023-08-16_08h33.36.106,HF_wild_card,2022.2.4,Win32,59.95203837,56235e19ed6e5a0011c80a7b,64d2fd46c836a06233681665,64dc7ba6215c87190a6f0a8e,,,,,,,decisionTrl,resources/DP.BMP,resources/DB.BMP,Door1,-0.24609375,-0.19140625,1,0,0,1.316,optionLeft,30,60,1,1,0,1,0,1,,,,,,,,,,,,,,,,,,,,,,,,,,,,,,,,,,,,,,,
,,,,,,,,2023-08-16_08h33.36.106,HF_wild_card,2022.2.4,Win32,59.95203837,56235e19ed6e5a0011c80a7b,64d2fd46c836a06233681665,64dc7ba6215c87190a6f0a8e,,,,,,,ctch,resources/DP.BMP,resources/DR.BMP,Door4,0.4296875,-0.145833333,1,0,0,1.893,optionRight,80,140,1,2,0,2,0,1,,,,,,,,,,,,,,,,,,,,,,,,,,,,,,,,,,,,,,,
,,,,,,,,2023-08-16_08h33.36.106,HF_wild_card,2022.2.4,Win32,59.95203837,56235e19ed6e5a0011c80a7b,64d2fd46c836a06233681665,64dc7ba6215c87190a6f0a8e,,,,,,,decisionTrl,resources/DBN.BMP,resources/DY.BMP,WildCard_Ex,-0.31640625,-0.1171875,1,0,0,1.23,optionLeft,95,235,1,3,0,3,0,1,,,,,,,,,,,,,,,,,,,,,,,,,,,,,,,,,,,,,,,
,,,,,,,,2023-08-16_08h33.36.106,HF_wild_card,2022.2.4,Win32,59.95203837,56235e19ed6e5a0011c80a7b,64d2fd46c836a06233681665,64dc7ba6215c87190a6f0a8e,,,,,,,decisionTrl,resources/DR.BMP,resources/DBN.BMP,WildCard_Ex,0.5390625,-0.12109375,1,0,0,1.315,optionRight,5,240,1,4,0,4,0,1,,,,,,,,,,,,,,,,,,,,,,,,,,,,,,,,,,,,,,,
,,,,,,,,2023-08-16_08h33.36.106,HF_wild_card,2022.2.4,Win32,59.95203837,56235e19ed6e5a0011c80a7b,64d2fd46c836a06233681665,64dc7ba6215c87190a6f0a8e,,,,,,,sngl,resources/Empty.png,resources/DP.BMP,Door1,0.32421875,-0.16796875,1,0,0,2.387,optionRight,30,270,1,5,0,5,0,1,,,,,,,,,,,,,,,,,,,,,,,,,,,,,,,,,,,,,,,
,,,,,,,,2023-08-16_08h33.36.106,HF_wild_card,2022.2.4,Win32,59.95203837,56235e19ed6e5a0011c80a7b,64d2fd46c836a06233681665,64dc7ba6215c87190a6f0a8e,,,,,,,decisionTrl,resources/DR.BMP,resources/DY.BMP,Door3,0.4140625,-0.139322917,1,0,0,1.449,optionRight,70,340,1,6,0,6,0,1,,,,,,,,,,,,,,,,,,,,,,,,,,,,,,,,,,,,,,,
,,,,,,,,2023-08-16_08h33.36.106,HF_wild_card,2022.2.4,Win32,59.95203837,56235e19ed6e5a0011c80a7b,64d2fd46c836a06233681665,64dc7ba6215c87190a6f0a8e,,,,,,,decisionTrl,resources/DP.BMP,resources/DB.BMP,Door1,-0.252604167,-0.20703125,1,0,0,1.198,optionLeft,30,370,1,7,0,7,0,1,,,,,,,,,,,,,,,,,,,,,,,,,,,,,,,,,,,,,,,
,,,,,,,,2023-08-16_08h33.36.106,HF_wild_card,2022.2.4,Win32,59.95203837,56235e19ed6e5a0011c80a7b,64d2fd46c836a06233681665,64dc7ba6215c87190a6f0a8e,,,,,,,decisionTrl,resources/DY.BMP,resources/DR.BMP,Door3,-0.259114583,-0.19921875,1,0,0,1.249,optionLeft,70,440,1,8,0,8,0,1,,,,,,,,,,,,,,,,,,,,,,,,,,,,,,,,,,,,,,,
,,,,,,,,2023-08-16_08h33.36.106,HF_wild_card,2022.2.4,Win32,59.95203837,56235e19ed6e5a0011c80a7b,64d2fd46c836a06233681665,64dc7ba6215c87190a6f0a8e,,,,,,,ctch,resources/DB.BMP,resources/DY.BMP,Door3,0.303385417,-0.177083333,1,0,0,1.316,optionRight,70,510,1,9,0,9,0,1,,,,,,,,,,,,,,,,,,,,,,,,,,,,,,,,,,,,,,,
,,,,,,,,2023-08-16_08h33.36.106,HF_wild_card,2022.2.4,Win32,59.95203837,56235e19ed6e5a0011c80a7b,64d2fd46c836a06233681665,64dc7ba6215c87190a6f0a8e,,,,,,,ctch,resources/DY.BMP,resources/DB.BMP,Door3,-0.26171875,-0.188802083,1,0,0,1.348,optionLeft,70,580,1,10,0,10,0,1,,,,,,,,,,,,,,,,,,,,,,,,,,,,,,,,,,,,,,,
,,,,,,,,2023-08-16_08h33.36.106,HF_wild_card,2022.2.4,Win32,59.95203837,56235e19ed6e5a0011c80a7b,64d2fd46c836a06233681665,64dc7ba6215c87190a6f0a8e,,,,,,,decisionTrl,resources/DY.BMP,resources/DR.BMP,Door4,0.33984375,-0.1796875,1,0,0,1.149,optionRight,80,660,1,11,0,11,0,1,,,,,,,,,,,,,,,,,,,,,,,,,,,,,,,,,,,,,,,
,,,,,,,,2023-08-16_08h33.36.106,HF_wild_card,2022.2.4,Win32,59.95203837,56235e19ed6e5a0011c80a7b,64d2fd46c836a06233681665,64dc7ba6215c87190a6f0a8e,,,,,,,decisionTrl,resources/DP.BMP,resources/DB.BMP,Door1,-0.365885417,-0.13671875,1,0,0,1.524,optionLeft,30,690,1,12,0,12,0,1,,,,,,,,,,,,,,,,,,,,,,,,,,,,,,,,,,,,,,,
,,,,,,,,2023-08-16_08h33.36.106,HF_wild_card,2022.2.4,Win32,59.95203837,56235e19ed6e5a0011c80a7b,64d2fd46c836a06233681665,64dc7ba6215c87190a6f0a8e,,,,,,,decisionTrl,resources/DB.BMP,resources/DBN.BMP,WildCard_Ex,0.278645833,-0.13671875,1,0,0,0.997,optionRight,95,785,1,13,0,13,0,1,,,,,,,,,,,,,,,,,,,,,,,,,,,,,,,,,,,,,,,
,,,,,,,,2023-08-16_08h33.36.106,HF_wild_card,2022.2.4,Win32,59.95203837,56235e19ed6e5a0011c80a7b,64d2fd46c836a06233681665,64dc7ba6215c87190a6f0a8e,,,,,,,decisionTrl,resources/DB.BMP,resources/DP.BMP,Door1,0.21875,-0.1953125,1,0,0,1.966,optionRight,30,815,1,14,0,14,0,1,,,,,,,,,,,,,,,,,,,,,,,,,,,,,,,,,,,,,,,
,,,,,,,,2023-08-16_08h33.36.106,HF_wild_card,2022.2.4,Win32,59.95203837,56235e19ed6e5a0011c80a7b,64d2fd46c836a06233681665,64dc7ba6215c87190a6f0a8e,,,,,,,decisionTrl,resources/DBN.BMP,resources/DB.BMP,WildCard_Ex,-0.186197917,-0.15234375,1,0,0,0.983,optionLeft,95,910,1,15,0,15,0,1,,,,,,,,,,,,,,,,,,,,,,,,,,,,,,,,,,,,,,,
,,,,,,,,2023-08-16_08h33.36.106,HF_wild_card,2022.2.4,Win32,59.95203837,56235e19ed6e5a0011c80a7b,64d2fd46c836a06233681665,64dc7ba6215c87190a6f0a8e,,,,,,,sngl,resources/Empty.png,resources/DBN.BMP,WildCard_Ex,0.389322917,-0.158854167,1,0,0,1.331,optionRight,95,1005,1,16,0,16,0,1,,,,,,,,,,,,,,,,,,,,,,,,,,,,,,,,,,,,,,,
,,,,,,,,2023-08-16_08h33.36.106,HF_wild_card,2022.2.4,Win32,59.95203837,56235e19ed6e5a0011c80a7b,64d2fd46c836a06233681665,64dc7ba6215c87190a6f0a8e,,,,,,,decisionTrl,resources/DBN.BMP,resources/DP.BMP,WildCard_Ex,-0.236979167,-0.149739583,1,0,0,0.949,optionLeft,5,1010,1,17,0,17,0,1,,,,,,,,,,,,,,,,,,,,,,,,,,,,,,,,,,,,,,,
,,,,,,,,2023-08-16_08h33.36.106,HF_wild_card,2022.2.4,Win32,59.95203837,56235e19ed6e5a0011c80a7b,64d2fd46c836a06233681665,64dc7ba6215c87190a6f0a8e,,,,,,,sngl,resources/Empty.png,resources/DY.BMP,Door3,0.427083333,-0.10546875,1,0,0,2.641,optionRight,70,1080,1,18,0,18,0,1,,,,,,,,,,,,,,,,,,,,,,,,,,,,,,,,,,,,,,,
,,,,,,,,2023-08-16_08h33.36.106,HF_wild_card,2022.2.4,Win32,59.95203837,56235e19ed6e5a0011c80a7b,64d2fd46c836a06233681665,64dc7ba6215c87190a6f0a8e,,,,,,,decisionTrl,resources/DY.BMP,resources/DR.BMP,Door4,0.216145833,-0.165364583,1,0,0,1.165,optionRight,80,1160,1,19,0,19,0,1,,,,,,,,,,,,,,,,,,,,,,,,,,,,,,,,,,,,,,,
,,,,,,,,2023-08-16_08h33.36.106,HF_wild_card,2022.2.4,Win32,59.95203837,56235e19ed6e5a0011c80a7b,64d2fd46c836a06233681665,64dc7ba6215c87190a6f0a8e,,,,,,,sngl,resources/DB.BMP,resources/Empty.png,Door2,-0.2109375,-0.069010417,1,0,0,2.472,optionLeft,40,1200,1,20,0,20,0,1,,,,,,,,,,,,,,,,,,,,,,,,,,,,,,,,,,,,,,,
,,,,,,,,2023-08-16_08h33.36.106,HF_wild_card,2022.2.4,Win32,59.95203837,56235e19ed6e5a0011c80a7b,64d2fd46c836a06233681665,64dc7ba6215c87190a6f0a8e,,,,,,,decisionTrl,resources/DP.BMP,resources/DB.BMP,Door1,-0.178385417,-0.170572917,1,0,0,1.149,optionLeft,30,1230,1,21,0,21,0,1,,,,,,,,,,,,,,,,,,,,,,,,,,,,,,,,,,,,,,,
,,,,,,,,2023-08-16_08h33.36.106,HF_wild_card,2022.2.4,Win32,59.95203837,56235e19ed6e5a0011c80a7b,64d2fd46c836a06233681665,64dc7ba6215c87190a6f0a8e,,,,,,,ctch,resources/DY.BMP,resources/DB.BMP,Door3,-0.23828125,-0.208333333,1,0,0,2.879,optionLeft,70,1300,1,22,0,22,0,1,,,,,,,,,,,,,,,,,,,,,,,,,,,,,,,,,,,,,,,
,,,,,,,,2023-08-16_08h33.36.106,HF_wild_card,2022.2.4,Win32,59.95203837,56235e19ed6e5a0011c80a7b,64d2fd46c836a06233681665,64dc7ba6215c87190a6f0a8e,,,,,,,ctch,resources/DB.BMP,resources/DY.BMP,Door3,0.329427083,-0.139322917,1,0,0,1.344,optionRight,70,1370,1,23,0,23,0,1,,,,,,,,,,,,,,,,,,,,,,,,,,,,,,,,,,,,,,,
,,,,,,,,2023-08-16_08h33.36.106,HF_wild_card,2022.2.4,Win32,59.95203837,56235e19ed6e5a0011c80a7b,64d2fd46c836a06233681665,64dc7ba6215c87190a6f0a8e,,,,,,,sngl,resources/DBN.BMP,resources/Empty.png,WildCard_Ex,-0.234375,-0.16015625,1,0,0,1.315,optionLeft,95,1465,1,24,0,24,0,1,,,,,,,,,,,,,,,,,,,,,,,,,,,,,,,,,,,,,,,
,,,,,,,,2023-08-16_08h33.36.106,HF_wild_card,2022.2.4,Win32,59.95203837,56235e19ed6e5a0011c80a7b,64d2fd46c836a06233681665,64dc7ba6215c87190a6f0a8e,,,,,,,decisionTrl,resources/DBN.BMP,resources/DR.BMP,WildCard_Ex,-0.385416667,-0.161458333,1,0,0,1.082,optionLeft,95,1560,1,25,0,25,0,1,,,,,,,,,,,,,,,,,,,,,,,,,,,,,,,,,,,,,,,
,,,,,,,,2023-08-16_08h33.36.106,HF_wild_card,2022.2.4,Win32,59.95203837,56235e19ed6e5a0011c80a7b,64d2fd46c836a06233681665,64dc7ba6215c87190a6f0a8e,,,,,,,decisionTrl,resources/DB.BMP,resources/DP.BMP,Door2,-0.1796875,-0.072916667,1,0,0,0.915,optionLeft,40,1600,1,26,0,26,0,1,,,,,,,,,,,,,,,,,,,,,,,,,,,,,,,,,,,,,,,
,,,,,,,,2023-08-16_08h33.36.106,HF_wild_card,2022.2.4,Win32,59.95203837,56235e19ed6e5a0011c80a7b,64d2fd46c836a06233681665,64dc7ba6215c87190a6f0a8e,,,,,,,decisionTrl,resources/DB.BMP,resources/DP.BMP,Door1,0.248697917,-0.131510417,1,0,0,0.698,optionRight,30,1630,1,27,0,27,0,1,,,,,,,,,,,,,,,,,,,,,,,,,,,,,,,,,,,,,,,
,,,,,,,,2023-08-16_08h33.36.106,HF_wild_card,2022.2.4,Win32,59.95203837,56235e19ed6e5a0011c80a7b,64d2fd46c836a06233681665,64dc7ba6215c87190a6f0a8e,,,,,,,decisionTrl,resources/DR.BMP,resources/DY.BMP,Door4,-0.205729167,-0.118489583,1,0,0,1.18,optionLeft,80,1710,1,28,0,28,0,1,,,,,,,,,,,,,,,,,,,,,,,,,,,,,,,,,,,,,,,
,,,,,,,,2023-08-16_08h33.36.106,HF_wild_card,2022.2.4,Win32,59.95203837,56235e19ed6e5a0011c80a7b,64d2fd46c836a06233681665,64dc7ba6215c87190a6f0a8e,,,,,,,sngl,resources/Empty.png,resources/DBN.BMP,WildCard_Ex,0.32421875,-0.102864583,1,0,0,1.149,optionRight,5,1715,1,29,0,29,0,1,,,,,,,,,,,,,,,,,,,,,,,,,,,,,,,,,,,,,,,
,,,,,,,,2023-08-16_08h33.36.106,HF_wild_card,2022.2.4,Win32,59.95203837,56235e19ed6e5a0011c80a7b,64d2fd46c836a06233681665,64dc7ba6215c87190a6f0a8e,,,,,,,sngl,resources/DY.BMP,resources/Empty.png,Door3,-0.227864583,-0.135416667,1,0,0,1.55,optionLeft,70,1785,1,30,0,30,0,1,,,,,,,,,,,,,,,,,,,,,,,,,,,,,,,,,,,,,,,
,,,,,,,,2023-08-16_08h33.36.106,HF_wild_card,2022.2.4,Win32,59.95203837,56235e19ed6e5a0011c80a7b,64d2fd46c836a06233681665,64dc7ba6215c87190a6f0a8e,,,,,,,decisionTrl,resources/DP.BMP,resources/DBN.BMP,Door1,-0.229166667,-0.119791667,1,0,0,1.484,optionLeft,30,1815,1,31,0,31,0,1,,,,,,,,,,,,,,,,,,,,,,,,,,,,,,,,,,,,,,,
,,,,,,,,2023-08-16_08h33.36.106,HF_wild_card,2022.2.4,Win32,59.95203837,56235e19ed6e5a0011c80a7b,64d2fd46c836a06233681665,64dc7ba6215c87190a6f0a8e,,,,,,,decisionTrl,resources/DY.BMP,resources/DR.BMP,Door3,-0.256510417,-0.09765625,1,0,0,2.002,optionLeft,70,1885,1,32,0,32,0,1,,,,,,,,,,,,,,,,,,,,,,,,,,,,,,,,,,,,,,,
,,,,,,,,2023-08-16_08h33.36.106,HF_wild_card,2022.2.4,Win32,59.95203837,56235e19ed6e5a0011c80a7b,64d2fd46c836a06233681665,64dc7ba6215c87190a6f0a8e,,,,,,,ctch,resources/DP.BMP,resources/DR.BMP,Door4,0.180989583,-0.127604167,1,0,0,1.622,optionRight,80,1965,1,33,0,33,0,1,,,,,,,,,,,,,,,,,,,,,,,,,,,,,,,,,,,,,,,
,,,,,,,,2023-08-16_08h33.36.106,HF_wild_card,2022.2.4,Win32,59.95203837,56235e19ed6e5a0011c80a7b,64d2fd46c836a06233681665,64dc7ba6215c87190a6f0a8e,,,,,,,sngl,resources/DP.BMP,resources/Empty.png,Door1,-0.278645833,-0.158854167,1,0,0,1.114,optionLeft,30,1995,1,34,0,34,0,1,,,,,,,,,,,,,,,,,,,,,,,,,,,,,,,,,,,,,,,
,,,,,,,,2023-08-16_08h33.36.106,HF_wild_card,2022.2.4,Win32,59.95203837,56235e19ed6e5a0011c80a7b,64d2fd46c836a06233681665,64dc7ba6215c87190a6f0a8e,,,,,,,decisionTrl,resources/DR.BMP,resources/DY.BMP,Door3,0.25390625,-0.118489583,1,0,0,1.181,optionRight,70,2065,1,35,0,35,0,1,,,,,,,,,,,,,,,,,,,,,,,,,,,,,,,,,,,,,,,
,,,,,,,,2023-08-16_08h33.36.106,HF_wild_card,2022.2.4,Win32,59.95203837,56235e19ed6e5a0011c80a7b,64d2fd46c836a06233681665,64dc7ba6215c87190a6f0a8e,,,,,,,decisionTrl,resources/DR.BMP,resources/DY.BMP,Door3,0.322916667,-0.044270833,1,0,0,3.308,optionRight,70,2135,1,36,0,36,0,1,,,,,,,,,,,,,,,,,,,,,,,,,,,,,,,,,,,,,,,
,,,,,,,,2023-08-16_08h33.36.106,HF_wild_card,2022.2.4,Win32,59.95203837,56235e19ed6e5a0011c80a7b,64d2fd46c836a06233681665,64dc7ba6215c87190a6f0a8e,,,,,,,ctch,resources/DR.BMP,resources/DP.BMP,Door1,0.20703125,-0.1171875,1,0,0,0.948,optionRight,30,2165,1,37,0,37,0,1,,,,,,,,,,,,,,,,,,,,,,,,,,,,,,,,,,,,,,,
,,,,,,,,2023-08-16_08h33.36.106,HF_wild_card,2022.2.4,Win32,59.95203837,56235e19ed6e5a0011c80a7b,64d2fd46c836a06233681665,64dc7ba6215c87190a6f0a8e,,,,,,,decisionTrl,resources/DY.BMP,resources/DBN.BMP,WildCard_Ex,0.251302083,-0.088541667,1,0,0,0.848,optionRight,5,2170,1,38,0,38,0,1,,,,,,,,,,,,,,,,,,,,,,,,,,,,,,,,,,,,,,,
,,,,,,,,2023-08-16_08h33.36.106,HF_wild_card,2022.2.4,Win32,59.95203837,56235e19ed6e5a0011c80a7b,64d2fd46c836a06233681665,64dc7ba6215c87190a6f0a8e,,,,,,,sngl,resources/Empty.png,resources/DB.BMP,Door2,0.358072917,-0.108072917,1,0,0,0.881,optionRight,20,2190,1,39,0,39,0,1,,,,,,,,,,,,,,,,,,,,,,,,,,,,,,,,,,,,,,,
,,,,,,,,2023-08-16_08h33.36.106,HF_wild_card,2022.2.4,Win32,59.95203837,56235e19ed6e5a0011c80a7b,64d2fd46c836a06233681665,64dc7ba6215c87190a6f0a8e,,,,,,,sngl,resources/DBN.BMP,resources/Empty.png,WildCard_Ex,-0.34765625,-0.126302083,1,0,0,0.999,optionLeft,5,2195,1,40,0,40,0,1,,,,,,,,,,,,,,,,,,,,,,,,,,,,,,,,,,,,,,,
,,,,,,,,2023-08-16_08h33.36.106,HF_wild_card,2022.2.4,Win32,59.95203837,56235e19ed6e5a0011c80a7b,64d2fd46c836a06233681665,64dc7ba6215c87190a6f0a8e,,,,,,,sngl,resources/Empty.png,resources/DR.BMP,Door4,0.268229167,-0.118489583,1,0,0,0.849,optionRight,60,2255,1,41,0,41,0,1,,,,,,,,,,,,,,,,,,,,,,,,,,,,,,,,,,,,,,,
,,,,,,,,2023-08-16_08h33.36.106,HF_wild_card,2022.2.4,Win32,59.95203837,56235e19ed6e5a0011c80a7b,64d2fd46c836a06233681665,64dc7ba6215c87190a6f0a8e,,,,,,,sngl,resources/DR.BMP,resources/Empty.png,Door4,-0.243489583,-0.16015625,1,0,0,0.63,optionLeft,80,2335,1,42,0,42,0,1,,,,,,,,,,,,,,,,,,,,,,,,,,,,,,,,,,,,,,,
,,,,,,,,2023-08-16_08h33.36.106,HF_wild_card,2022.2.4,Win32,59.95203837,56235e19ed6e5a0011c80a7b,64d2fd46c836a06233681665,64dc7ba6215c87190a6f0a8e,,,,,,,ctch,resources/DR.BMP,resources/DP.BMP,Door4,-0.286458333,-0.134114583,1,0,0,1.484,optionLeft,80,2415,1,43,0,43,0,1,,,,,,,,,,,,,,,,,,,,,,,,,,,,,,,,,,,,,,,
,,,,,,,,2023-08-16_08h33.36.106,HF_wild_card,2022.2.4,Win32,59.95203837,56235e19ed6e5a0011c80a7b,64d2fd46c836a06233681665,64dc7ba6215c87190a6f0a8e,,,,,,,,,,,,,,,,,,,,,,,,,,0,0,0,0,1,,,,,,,,,,,,,,,,,,,,,,,,,,,,,,,,,,
,,,,,,,,2023-08-16_08h33.36.106,HF_wild_card,2022.2.4,Win32,59.95203837,56235e19ed6e5a0011c80a7b,64d2fd46c836a06233681665,64dc7ba6215c87190a6f0a8e,,,,,,,ctch,resources/DB.BMP,resources/DY.BMP,Door2,-0.212239583,-0.1171875,1,0,0,4.411,optionLeft,40,2455,2,0,0,0,0,1,,,,,,,,,,,,,,,,,,,,,,,,,,,,,,,,,,,,,,,
,,,,,,,,2023-08-16_08h33.36.106,HF_wild_card,2022.2.4,Win32,59.95203837,56235e19ed6e5a0011c80a7b,64d2fd46c836a06233681665,64dc7ba6215c87190a6f0a8e,,,,,,,sngl,resources/DP.BMP,resources/Empty.png,Door1,-0.217447917,-0.158854167,1,0,0,1.031,optionLeft,30,2485,2,1,0,1,0,1,,,,,,,,,,,,,,,,,,,,,,,,,,,,,,,,,,,,,,,
,,,,,,,,2023-08-16_08h33.36.106,HF_wild_card,2022.2.4,Win32,59.95203837,56235e19ed6e5a0011c80a7b,64d2fd46c836a06233681665,64dc7ba6215c87190a6f0a8e,,,,,,,decisionTrl,resources/DP.BMP,resources/DBN.BMP,Door1,-0.216145833,-0.135416667,1,0,0,2.402,optionLeft,30,2515,2,2,0,2,0,1,,,,,,,,,,,,,,,,,,,,,,,,,,,,,,,,,,,,,,,
,,,,,,,,2023-08-16_08h33.36.106,HF_wild_card,2022.2.4,Win32,59.95203837,56235e19ed6e5a0011c80a7b,64d2fd46c836a06233681665,64dc7ba6215c87190a6f0a8e,,,,,,,decisionTrl,resources/DB.BMP,resources/DP.BMP,Door1,0.22265625,-0.134114583,1,0,0,1.262,optionRight,30,2545,2,3,0,3,0,1,,,,,,,,,,,,,,,,,,,,,,,,,,,,,,,,,,,,,,,
,,,,,,,,2023-08-16_08h33.36.106,HF_wild_card,2022.2.4,Win32,59.95203837,56235e19ed6e5a0011c80a7b,64d2fd46c836a06233681665,64dc7ba6215c87190a6f0a8e,,,,,,,sngl,resources/Empty.png,resources/DBN.BMP,WildCard_Ex,0.27734375,-0.125,1,0,0,0.982,optionRight,95,2640,2,4,0,4,0,1,,,,,,,,,,,,,,,,,,,,,,,,,,,,,,,,,,,,,,,
,,,,,,,,2023-08-16_08h33.36.106,HF_wild_card,2022.2.4,Win32,59.95203837,56235e19ed6e5a0011c80a7b,64d2fd46c836a06233681665,64dc7ba6215c87190a6f0a8e,,,,,,,decisionTrl,resources/DBN.BMP,resources/DB.BMP,WildCard_Ex,-0.248697917,-0.149739583,1,0,0,0.947,optionLeft,5,2645,2,5,0,5,0,1,,,,,,,,,,,,,,,,,,,,,,,,,,,,,,,,,,,,,,,
,,,,,,,,2023-08-16_08h33.36.106,HF_wild_card,2022.2.4,Win32,59.95203837,56235e19ed6e5a0011c80a7b,64d2fd46c836a06233681665,64dc7ba6215c87190a6f0a8e,,,,,,,decisionTrl,resources/DR.BMP,resources/DY.BMP,Door3,0.22265625,-0.16796875,1,0,0,1.217,optionRight,70,2715,2,6,0,6,0,1,,,,,,,,,,,,,,,,,,,,,,,,,,,,,,,,,,,,,,,
,,,,,,,,2023-08-16_08h33.36.106,HF_wild_card,2022.2.4,Win32,59.95203837,56235e19ed6e5a0011c80a7b,64d2fd46c836a06233681665,64dc7ba6215c87190a6f0a8e,,,,,,,decisionTrl,resources/DR.BMP,resources/DY.BMP,Door3,0.348958333,-0.115885417,1,0,0,1.105,optionRight,70,2785,2,7,0,7,0,1,,,,,,,,,,,,,,,,,,,,,,,,,,,,,,,,,,,,,,,
,,,,,,,,2023-08-16_08h33.36.106,HF_wild_card,2022.2.4,Win32,59.95203837,56235e19ed6e5a0011c80a7b,64d2fd46c836a06233681665,64dc7ba6215c87190a6f0a8e,,,,,,,decisionTrl,resources/DB.BMP,resources/DP.BMP,Door1,0.377604167,-0.106770833,1,0,0,0.729,optionRight,30,2815,2,8,0,8,0,1,,,,,,,,,,,,,,,,,,,,,,,,,,,,,,,,,,,,,,,
,,,,,,,,2023-08-16_08h33.36.106,HF_wild_card,2022.2.4,Win32,59.95203837,56235e19ed6e5a0011c80a7b,64d2fd46c836a06233681665,64dc7ba6215c87190a6f0a8e,,,,,,,sngl,resources/DBN.BMP,resources/Empty.png,WildCard_Ex,-0.1875,-0.12109375,1,0,0,0.846,optionLeft,5,2820,2,9,0,9,0,1,,,,,,,,,,,,,,,,,,,,,,,,,,,,,,,,,,,,,,,
,,,,,,,,2023-08-16_08h33.36.106,HF_wild_card,2022.2.4,Win32,59.95203837,56235e19ed6e5a0011c80a7b,64d2fd46c836a06233681665,64dc7ba6215c87190a6f0a8e,,,,,,,decisionTrl,resources/DBN.BMP,resources/DP.BMP,WildCard_Ex,-0.196614583,-0.154947917,1,0,0,1.065,optionLeft,5,2825,2,10,0,10,0,1,,,,,,,,,,,,,,,,,,,,,,,,,,,,,,,,,,,,,,,
,,,,,,,,2023-08-16_08h33.36.106,HF_wild_card,2022.2.4,Win32,59.95203837,56235e19ed6e5a0011c80a7b,64d2fd46c836a06233681665,64dc7ba6215c87190a6f0a8e,,,,,,,decisionTrl,resources/DP.BMP,resources/DB.BMP,Door1,-0.17578125,-0.127604167,1,0,0,1.149,optionLeft,30,2855,2,11,0,11,0,1,,,,,,,,,,,,,,,,,,,,,,,,,,,,,,,,,,,,,,,
,,,,,,,,2023-08-16_08h33.36.106,HF_wild_card,2022.2.4,Win32,59.95203837,56235e19ed6e5a0011c80a7b,64d2fd46c836a06233681665,64dc7ba6215c87190a6f0a8e,,,,,,,decisionTrl,resources/DY.BMP,resources/DR.BMP,Door4,0.30859375,-0.15234375,1,0,0,0.931,optionRight,60,2915,2,12,0,12,0,1,,,,,,,,,,,,,,,,,,,,,,,,,,,,,,,,,,,,,,,
,,,,,,,,2023-08-16_08h33.36.106,HF_wild_card,2022.2.4,Win32,59.95203837,56235e19ed6e5a0011c80a7b,64d2fd46c836a06233681665,64dc7ba6215c87190a6f0a8e,,,,,,,ctch,resources/DY.BMP,resources/DB.BMP,Door3,-0.20703125,-0.177083333,1,0,0,1.015,optionLeft,70,2985,2,13,0,13,0,1,,,,,,,,,,,,,,,,,,,,,,,,,,,,,,,,,,,,,,,
,,,,,,,,2023-08-16_08h33.36.106,HF_wild_card,2022.2.4,Win32,59.95203837,56235e19ed6e5a0011c80a7b,64d2fd46c836a06233681665,64dc7ba6215c87190a6f0a8e,,,,,,,ctch,resources/DR.BMP,resources/DP.BMP,Door4,-0.337239583,-0.15625,1,0,0,1.466,optionLeft,60,3045,2,14,0,14,0,1,,,,,,,,,,,,,,,,,,,,,,,,,,,,,,,,,,,,,,,
,,,,,,,,2023-08-16_08h33.36.106,HF_wild_card,2022.2.4,Win32,59.95203837,56235e19ed6e5a0011c80a7b,64d2fd46c836a06233681665,64dc7ba6215c87190a6f0a8e,,,,,,,decisionTrl,resources/DBN.BMP,resources/DY.BMP,WildCard_Ex,-0.240885417,-0.126302083,1,0,0,0.914,optionLeft,95,3140,2,15,0,15,0,1,,,,,,,,,,,,,,,,,,,,,,,,,,,,,,,,,,,,,,,
,,,,,,,,2023-08-16_08h33.36.106,HF_wild_card,2022.2.4,Win32,59.95203837,56235e19ed6e5a0011c80a7b,64d2fd46c836a06233681665,64dc7ba6215c87190a6f0a8e,,,,,,,sngl,resources/DBN.BMP,resources/Empty.png,WildCard_Ex,-0.170572917,-0.087239583,1,0,0,1.753,optionLeft,95,3235,2,16,0,16,0,1,,,,,,,,,,,,,,,,,,,,,,,,,,,,,,,,,,,,,,,
,,,,,,,,2023-08-16_08h33.36.106,HF_wild_card,2022.2.4,Win32,59.95203837,56235e19ed6e5a0011c80a7b,64d2fd46c836a06233681665,64dc7ba6215c87190a6f0a8e,,,,,,,decisionTrl,resources/DR.BMP,resources/DY.BMP,Door4,-0.233072917,-0.119791667,1,0,0,1.618,optionLeft,80,3315,2,17,0,17,0,1,,,,,,,,,,,,,,,,,,,,,,,,,,,,,,,,,,,,,,,
,,,,,,,,2023-08-16_08h33.36.106,HF_wild_card,2022.2.4,Win32,59.95203837,56235e19ed6e5a0011c80a7b,64d2fd46c836a06233681665,64dc7ba6215c87190a6f0a8e,,,,,,,decisionTrl,resources/DB.BMP,resources/DP.BMP,Door1,0.290364583,-0.118489583,1,0,0,0.815,optionRight,30,3345,2,18,0,18,0,1,,,,,,,,,,,,,,,,,,,,,,,,,,,,,,,,,,,,,,,
,,,,,,,,2023-08-16_08h33.36.106,HF_wild_card,2022.2.4,Win32,59.95203837,56235e19ed6e5a0011c80a7b,64d2fd46c836a06233681665,64dc7ba6215c87190a6f0a8e,,,,,,,ctch,resources/DP.BMP,resources/DR.BMP,Door4,0.298177083,-0.12890625,1,0,0,1.224,optionRight,80,3425,2,19,0,19,0,1,,,,,,,,,,,,,,,,,,,,,,,,,,,,,,,,,,,,,,,
,,,,,,,,2023-08-16_08h33.36.106,HF_wild_card,2022.2.4,Win32,59.95203837,56235e19ed6e5a0011c80a7b,64d2fd46c836a06233681665,64dc7ba6215c87190a6f0a8e,,,,,,,decisionTrl,resources/DR.BMP,resources/DBN.BMP,WildCard_Ex,0.268229167,-0.091145833,1,0,0,0.729,optionRight,5,3430,2,20,0,20,0,1,,,,,,,,,,,,,,,,,,,,,,,,,,,,,,,,,,,,,,,
,,,,,,,,2023-08-16_08h33.36.106,HF_wild_card,2022.2.4,Win32,59.95203837,56235e19ed6e5a0011c80a7b,64d2fd46c836a06233681665,64dc7ba6215c87190a6f0a8e,,,,,,,sngl,resources/DB.BMP,resources/Empty.png,Door2,-0.174479167,-0.078125,1,0,0,0.948,optionLeft,20,3450,2,21,0,21,0,1,,,,,,,,,,,,,,,,,,,,,,,,,,,,,,,,,,,,,,,
,,,,,,,,2023-08-16_08h33.36.106,HF_wild_card,2022.2.4,Win32,59.95203837,56235e19ed6e5a0011c80a7b,64d2fd46c836a06233681665,64dc7ba6215c87190a6f0a8e,,,,,,,decisionTrl,resources/DR.BMP,resources/DY.BMP,Door4,-0.16796875,-0.076822917,1,0,0,3.492,optionLeft,80,3530,2,22,0,22,0,1,,,,,,,,,,,,,,,,,,,,,,,,,,,,,,,,,,,,,,,
,,,,,,,,2023-08-16_08h33.36.106,HF_wild_card,2022.2.4,Win32,59.95203837,56235e19ed6e5a0011c80a7b,64d2fd46c836a06233681665,64dc7ba6215c87190a6f0a8e,,,,,,,decisionTrl,resources/DB.BMP,resources/DBN.BMP,Door2,-0.173177083,-0.131510417,1,0,0,1.398,optionLeft,20,3550,2,23,0,23,0,1,,,,,,,,,,,,,,,,,,,,,,,,,,,,,,,,,,,,,,,
,,,,,,,,2023-08-16_08h33.36.106,HF_wild_card,2022.2.4,Win32,59.95203837,56235e19ed6e5a0011c80a7b,64d2fd46c836a06233681665,64dc7ba6215c87190a6f0a8e,,,,,,,sngl,resources/Empty.png,resources/DBN.BMP,WildCard_Ex,0.233072917,-0.092447917,1,0,0,0.664,optionRight,5,3555,2,24,0,24,0,1,,,,,,,,,,,,,,,,,,,,,,,,,,,,,,,,,,,,,,,
,,,,,,,,2023-08-16_08h33.36.106,HF_wild_card,2022.2.4,Win32,59.95203837,56235e19ed6e5a0011c80a7b,64d2fd46c836a06233681665,64dc7ba6215c87190a6f0a8e,,,,,,,ctch,resources/DR.BMP,resources/DP.BMP,Door4,-0.234375,-0.09765625,1,0,0,0.811,optionLeft,60,3615,2,25,0,25,0,1,,,,,,,,,,,,,,,,,,,,,,,,,,,,,,,,,,,,,,,
,,,,,,,,2023-08-16_08h33.36.106,HF_wild_card,2022.2.4,Win32,59.95203837,56235e19ed6e5a0011c80a7b,64d2fd46c836a06233681665,64dc7ba6215c87190a6f0a8e,,,,,,,sngl,resources/Empty.png,resources/DB.BMP,Door2,0.184895833,-0.096354167,1,0,0,1.066,optionRight,40,3655,2,26,0,26,0,1,,,,,,,,,,,,,,,,,,,,,,,,,,,,,,,,,,,,,,,
,,,,,,,,2023-08-16_08h33.36.106,HF_wild_card,2022.2.4,Win32,59.95203837,56235e19ed6e5a0011c80a7b,64d2fd46c836a06233681665,64dc7ba6215c87190a6f0a8e,,,,,,,sngl,resources/Empty.png,resources/DP.BMP,Door1,0.263020833,-0.110677083,1,0,0,2.855,optionRight,30,3685,2,27,0,27,0,1,,,,,,,,,,,,,,,,,,,,,,,,,,,,,,,,,,,,,,,
,,,,,,,,2023-08-16_08h33.36.106,HF_wild_card,2022.2.4,Win32,59.95203837,56235e19ed6e5a0011c80a7b,64d2fd46c836a06233681665,64dc7ba6215c87190a6f0a8e,,,,,,,decisionTrl,resources/DBN.BMP,resources/DR.BMP,WildCard_Ex,-0.134114583,-0.127604167,1,0,0,1.611,optionLeft,95,3780,2,28,0,28,0,1,,,,,,,,,,,,,,,,,,,,,,,,,,,,,,,,,,,,,,,
,,,,,,,,2023-08-16_08h33.36.106,HF_wild_card,2022.2.4,Win32,59.95203837,56235e19ed6e5a0011c80a7b,64d2fd46c836a06233681665,64dc7ba6215c87190a6f0a8e,,,,,,,decisionTrl,resources/DY.BMP,resources/DR.BMP,Door3,-0.315104167,-0.114583333,1,0,0,1.046,optionLeft,70,3850,2,29,0,29,0,1,,,,,,,,,,,,,,,,,,,,,,,,,,,,,,,,,,,,,,,
,,,,,,,,2023-08-16_08h33.36.106,HF_wild_card,2022.2.4,Win32,59.95203837,56235e19ed6e5a0011c80a7b,64d2fd46c836a06233681665,64dc7ba6215c87190a6f0a8e,,,,,,,sngl,resources/Empty.png,resources/DY.BMP,Door3,0.200520833,-0.149739583,1,0,0,0.713,optionRight,70,3920,2,30,0,30,0,1,,,,,,,,,,,,,,,,,,,,,,,,,,,,,,,,,,,,,,,
,,,,,,,,2023-08-16_08h33.36.106,HF_wild_card,2022.2.4,Win32,59.95203837,56235e19ed6e5a0011c80a7b,64d2fd46c836a06233681665,64dc7ba6215c87190a6f0a8e,,,,,,,sngl,resources/DR.BMP,resources/Empty.png,Door4,-0.177083333,-0.118489583,1,0,0,0.712,optionLeft,60,3980,2,31,0,31,0,1,,,,,,,,,,,,,,,,,,,,,,,,,,,,,,,,,,,,,,,
,,,,,,,,2023-08-16_08h33.36.106,HF_wild_card,2022.2.4,Win32,59.95203837,56235e19ed6e5a0011c80a7b,64d2fd46c836a06233681665,64dc7ba6215c87190a6f0a8e,,,,,,,ctch,resources/DB.BMP,resources/DY.BMP,Door3,0.3125,-0.16015625,1,0,0,0.998,optionRight,70,4050,2,32,0,32,0,1,,,,,,,,,,,,,,,,,,,,,,,,,,,,,,,,,,,,,,,
,,,,,,,,2023-08-16_08h33.36.106,HF_wild_card,2022.2.4,Win32,59.95203837,56235e19ed6e5a0011c80a7b,64d2fd46c836a06233681665,64dc7ba6215c87190a6f0a8e,,,,,,,ctch,resources/DY.BMP,resources/DB.BMP,Door3,-0.4921875,-0.11328125,1,0,0,0.78,optionLeft,70,4120,2,33,0,33,0,1,,,,,,,,,,,,,,,,,,,,,,,,,,,,,,,,,,,,,,,
,,,,,,,,2023-08-16_08h33.36.106,HF_wild_card,2022.2.4,Win32,59.95203837,56235e19ed6e5a0011c80a7b,64d2fd46c836a06233681665,64dc7ba6215c87190a6f0a8e,,,,,,,decisionTrl,resources/DP.BMP,resources/DB.BMP,Door1,-0.305989583,-0.123697917,1,0,0,2.956,optionLeft,30,4150,2,34,0,34,0,1,,,,,,,,,,,,,,,,,,,,,,,,,,,,,,,,,,,,,,,
,,,,,,,,2023-08-16_08h33.36.106,HF_wild_card,2022.2.4,Win32,59.95203837,56235e19ed6e5a0011c80a7b,64d2fd46c836a06233681665,64dc7ba6215c87190a6f0a8e,,,,,,,sngl,resources/DY.BMP,resources/Empty.png,Door3,-0.169270833,-0.1015625,1,0,0,0.781,optionLeft,70,4220,2,35,0,35,0,1,,,,,,,,,,,,,,,,,,,,,,,,,,,,,,,,,,,,,,,
,,,,,,,,2023-08-16_08h33.36.106,HF_wild_card,2022.2.4,Win32,59.95203837,56235e19ed6e5a0011c80a7b,64d2fd46c836a06233681665,64dc7ba6215c87190a6f0a8e,,,,,,,decisionTrl,resources/DB.BMP,resources/DP.BMP,Door1,0.291666667,-0.067708333,1,0,0,6.805,optionRight,30,4250,2,36,0,36,0,1,,,,,,,,,,,,,,,,,,,,,,,,,,,,,,,,,,,,,,,
,,,,,,,,2023-08-16_08h33.36.106,HF_wild_card,2022.2.4,Win32,59.95203837,56235e19ed6e5a0011c80a7b,64d2fd46c836a06233681665,64dc7ba6215c87190a6f0a8e,,,,,,,decisionTrl,resources/DP.BMP,resources/DB.BMP,Door1,-0.305989583,-0.173177083,1,0,0,0.93,optionLeft,30,4280,2,37,0,37,0,1,,,,,,,,,,,,,,,,,,,,,,,,,,,,,,,,,,,,,,,
,,,,,,,,2023-08-16_08h33.36.106,HF_wild_card,2022.2.4,Win32,59.95203837,56235e19ed6e5a0011c80a7b,64d2fd46c836a06233681665,64dc7ba6215c87190a6f0a8e,,,,,,,decisionTrl,resources/DY.BMP,resources/DR.BMP,Door3,-0.217447917,-0.141927083,1,0,0,1.133,optionLeft,70,4350,2,38,0,38,0,1,,,,,,,,,,,,,,,,,,,,,,,,,,,,,,,,,,,,,,,
,,,,,,,,2023-08-16_08h33.36.106,HF_wild_card,2022.2.4,Win32,59.95203837,56235e19ed6e5a0011c80a7b,64d2fd46c836a06233681665,64dc7ba6215c87190a6f0a8e,,,,,,,ctch,resources/DP.BMP,resources/DR.BMP,Door4,0.411458333,-0.109375,1,0,0,0.814,optionRight,80,4430,2,39,0,39,0,1,,,,,,,,,,,,,,,,,,,,,,,,,,,,,,,,,,,,,,,
,,,,,,,,2023-08-16_08h33.36.106,HF_wild_card,2022.2.4,Win32,59.95203837,56235e19ed6e5a0011c80a7b,64d2fd46c836a06233681665,64dc7ba6215c87190a6f0a8e,,,,,,,decisionTrl,resources/DY.BMP,resources/DR.BMP,Door3,-0.291666667,-0.149739583,1,0,0,1.015,optionLeft,70,4500,2,40,0,40,0,1,,,,,,,,,,,,,,,,,,,,,,,,,,,,,,,,,,,,,,,
,,,,,,,,2023-08-16_08h33.36.106,HF_wild_card,2022.2.4,Win32,59.95203837,56235e19ed6e5a0011c80a7b,64d2fd46c836a06233681665,64dc7ba6215c87190a6f0a8e,,,,,,,sngl,resources/Empty.png,resources/DR.BMP,Door4,0.32421875,-0.08984375,1,0,0,0.595,optionRight,80,4580,2,41,0,41,0,1,,,,,,,,,,,,,,,,,,,,,,,,,,,,,,,,,,,,,,,
,,,,,,,,2023-08-16_08h33.36.106,HF_wild_card,2022.2.4,Win32,59.95203837,56235e19ed6e5a0011c80a7b,64d2fd46c836a06233681665,64dc7ba6215c87190a6f0a8e,,,,,,,decisionTrl,resources/DP.BMP,resources/DB.BMP,Door1,-0.3671875,-0.059895833,1,0,0,0.83,optionLeft,30,4610,2,42,0,42,0,1,,,,,,,,,,,,,,,,,,,,,,,,,,,,,,,,,,,,,,,
,,,,,,,,2023-08-16_08h33.36.106,HF_wild_card,2022.2.4,Win32,59.95203837,56235e19ed6e5a0011c80a7b,64d2fd46c836a06233681665,64dc7ba6215c87190a6f0a8e,,,,,,,decisionTrl,resources/DY.BMP,resources/DBN.BMP,WildCard_Ex,0.227864583,-0.069010417,1,0,0,0.915,optionRight,95,4705,2,43,0,43,0,1,,,,,,,,,,,,,,,,,,,,,,,,,,,,,,,,,,,,,,,
,,,,,,,,2023-08-16_08h33.36.106,HF_wild_card,2022.2.4,Win32,59.95203837,56235e19ed6e5a0011c80a7b,64d2fd46c836a06233681665,64dc7ba6215c87190a6f0a8e,,,,,,,,,,,,,,,,,,,,,,,,,,1,0,1,0,1,,,,,,,,,,,,,,,,,,,,,,,,,,,,,,,,,,
,,,,,,,,2023-08-16_08h33.36.106,HF_wild_card,2022.2.4,Win32,59.95203837,56235e19ed6e5a0011c80a7b,64d2fd46c836a06233681665,64dc7ba6215c87190a6f0a8e,,,,,,,decisionTrl,resources/DBN.BMP,resources/DP.BMP,WildCard_Ex,-0.377604167,-0.200520833,1,0,0,1.175,optionLeft,95,4800,3,0,0,0,0,1,,,,,,,,,,,,,,,,,,,,,,,,,,,,,,,,,,,,,,,
,,,,,,,,2023-08-16_08h33.36.106,HF_wild_card,2022.2.4,Win32,59.95203837,56235e19ed6e5a0011c80a7b,64d2fd46c836a06233681665,64dc7ba6215c87190a6f0a8e,,,,,,,decisionTrl,resources/DP.BMP,resources/DB.BMP,Door1,-0.294270833,-0.143229167,1,0,0,1.043,optionLeft,30,4830,3,1,0,1,0,1,,,,,,,,,,,,,,,,,,,,,,,,,,,,,,,,,,,,,,,
,,,,,,,,2023-08-16_08h33.36.106,HF_wild_card,2022.2.4,Win32,59.95203837,56235e19ed6e5a0011c80a7b,64d2fd46c836a06233681665,64dc7ba6215c87190a6f0a8e,,,,,,,sngl,resources/DP.BMP,resources/Empty.png,Door1,-0.19921875,-0.192708333,1,0,0,0.697,optionLeft,30,4860,3,2,0,2,0,1,,,,,,,,,,,,,,,,,,,,,,,,,,,,,,,,,,,,,,,
,,,,,,,,2023-08-16_08h33.36.106,HF_wild_card,2022.2.4,Win32,59.95203837,56235e19ed6e5a0011c80a7b,64d2fd46c836a06233681665,64dc7ba6215c87190a6f0a8e,,,,,,,sngl,resources/DY.BMP,resources/Empty.png,Door3,-0.19921875,-0.123697917,1,0,0,0.563,optionLeft,70,4930,3,3,0,3,0,1,,,,,,,,,,,,,,,,,,,,,,,,,,,,,,,,,,,,,,,
,,,,,,,,2023-08-16_08h33.36.106,HF_wild_card,2022.2.4,Win32,59.95203837,56235e19ed6e5a0011c80a7b,64d2fd46c836a06233681665,64dc7ba6215c87190a6f0a8e,,,,,,,decisionTrl,resources/DY.BMP,resources/DR.BMP,Door3,-0.243489583,-0.154947917,1,0,0,0.581,optionLeft,70,5000,3,4,0,4,0,1,,,,,,,,,,,,,,,,,,,,,,,,,,,,,,,,,,,,,,,
,,,,,,,,2023-08-16_08h33.36.106,HF_wild_card,2022.2.4,Win32,59.95203837,56235e19ed6e5a0011c80a7b,64d2fd46c836a06233681665,64dc7ba6215c87190a6f0a8e,,,,,,,decisionTrl,resources/DB.BMP,resources/DP.BMP,Door1,0.3046875,-0.1328125,1,0,0,1.868,optionRight,30,5030,3,5,0,5,0,1,,,,,,,,,,,,,,,,,,,,,,,,,,,,,,,,,,,,,,,
,,,,,,,,2023-08-16_08h33.36.106,HF_wild_card,2022.2.4,Win32,59.95203837,56235e19ed6e5a0011c80a7b,64d2fd46c836a06233681665,64dc7ba6215c87190a6f0a8e,,,,,,,ctch,resources/DB.BMP,resources/DY.BMP,Door3,0.291666667,-0.140625,1,0,0,1.147,optionRight,70,5100,3,6,0,6,0,1,,,,,,,,,,,,,,,,,,,,,,,,,,,,,,,,,,,,,,,
,,,,,,,,2023-08-16_08h33.36.106,HF_wild_card,2022.2.4,Win32,59.95203837,56235e19ed6e5a0011c80a7b,64d2fd46c836a06233681665,64dc7ba6215c87190a6f0a8e,,,,,,,sngl,resources/DR.BMP,resources/Empty.png,Door4,-0.248697917,-0.157552083,1,0,0,0.671,optionLeft,80,5180,3,7,0,7,0,1,,,,,,,,,,,,,,,,,,,,,,,,,,,,,,,,,,,,,,,
,,,,,,,,2023-08-16_08h33.36.106,HF_wild_card,2022.2.4,Win32,59.95203837,56235e19ed6e5a0011c80a7b,64d2fd46c836a06233681665,64dc7ba6215c87190a6f0a8e,,,,,,,ctch,resources/DY.BMP,resources/DB.BMP,Door3,-0.221354167,-0.13671875,1,0,0,1.448,optionLeft,70,5250,3,8,0,8,0,1,,,,,,,,,,,,,,,,,,,,,,,,,,,,,,,,,,,,,,,
,,,,,,,,2023-08-16_08h33.36.106,HF_wild_card,2022.2.4,Win32,59.95203837,56235e19ed6e5a0011c80a7b,64d2fd46c836a06233681665,64dc7ba6215c87190a6f0a8e,,,,,,,decisionTrl,resources/DR.BMP,resources/DY.BMP,Door4,-0.2890625,-0.149739583,1,0,0,0.78,optionLeft,80,5330,3,9,0,9,0,1,,,,,,,,,,,,,,,,,,,,,,,,,,,,,,,,,,,,,,,
,,,,,,,,2023-08-16_08h33.36.106,HF_wild_card,2022.2.4,Win32,59.95203837,56235e19ed6e5a0011c80a7b,64d2fd46c836a06233681665,64dc7ba6215c87190a6f0a8e,,,,,,,decisionTrl,resources/DR.BMP,resources/DY.BMP,Door4,-0.239583333,-0.149739583,1,0,0,1.047,optionLeft,60,5390,3,10,0,10,0,1,,,,,,,,,,,,,,,,,,,,,,,,,,,,,,,,,,,,,,,
,,,,,,,,2023-08-16_08h33.36.106,HF_wild_card,2022.2.4,Win32,59.95203837,56235e19ed6e5a0011c80a7b,64d2fd46c836a06233681665,64dc7ba6215c87190a6f0a8e,,,,,,,decisionTrl,resources/DP.BMP,resources/DBN.BMP,WildCard_Ex,0.28515625,-0.102864583,1,0,0,1.214,optionRight,95,5485,3,11,0,11,0,1,,,,,,,,,,,,,,,,,,,,,,,,,,,,,,,,,,,,,,,
,,,,,,,,2023-08-16_08h33.36.106,HF_wild_card,2022.2.4,Win32,59.95203837,56235e19ed6e5a0011c80a7b,64d2fd46c836a06233681665,64dc7ba6215c87190a6f0a8e,,,,,,,decisionTrl,resources/DR.BMP,resources/DY.BMP,Door4,-0.24609375,-0.10546875,1,0,0,0.797,optionLeft,60,5545,3,12,0,12,0,1,,,,,,,,,,,,,,,,,,,,,,,,,,,,,,,,,,,,,,,
,,,,,,,,2023-08-16_08h33.36.106,HF_wild_card,2022.2.4,Win32,59.95203837,56235e19ed6e5a0011c80a7b,64d2fd46c836a06233681665,64dc7ba6215c87190a6f0a8e,,,,,,,decisionTrl,resources/DB.BMP,resources/DP.BMP,Door1,0.302083333,-0.10546875,1,0,0,0.847,optionRight,30,5575,3,13,0,13,0,1,,,,,,,,,,,,,,,,,,,,,,,,,,,,,,,,,,,,,,,
,,,,,,,,2023-08-16_08h33.36.106,HF_wild_card,2022.2.4,Win32,59.95203837,56235e19ed6e5a0011c80a7b,64d2fd46c836a06233681665,64dc7ba6215c87190a6f0a8e,,,,,,,decisionTrl,resources/DY.BMP,resources/DR.BMP,Door4,0.231770833,-0.10546875,1,0,0,1.701,optionRight,80,5655,3,14,0,14,0,1,,,,,,,,,,,,,,,,,,,,,,,,,,,,,,,,,,,,,,,
,,,,,,,,2023-08-16_08h33.36.106,HF_wild_card,2022.2.4,Win32,59.95203837,56235e19ed6e5a0011c80a7b,64d2fd46c836a06233681665,64dc7ba6215c87190a6f0a8e,,,,,,,decisionTrl,resources/DR.BMP,resources/DBN.BMP,WildCard_Ex,0.317708333,-0.065104167,1,0,0,0.763,optionRight,95,5750,3,15,0,15,0,1,,,,,,,,,,,,,,,,,,,,,,,,,,,,,,,,,,,,,,,
,,,,,,,,2023-08-16_08h33.36.106,HF_wild_card,2022.2.4,Win32,59.95203837,56235e19ed6e5a0011c80a7b,64d2fd46c836a06233681665,64dc7ba6215c87190a6f0a8e,,,,,,,decisionTrl,resources/DBN.BMP,resources/DB.BMP,WildCard_Ex,-0.283854167,-0.11328125,1,0,0,0.546,optionLeft,95,5845,3,16,0,16,0,1,,,,,,,,,,,,,,,,,,,,,,,,,,,,,,,,,,,,,,,
,,,,,,,,2023-08-16_08h33.36.106,HF_wild_card,2022.2.4,Win32,59.95203837,56235e19ed6e5a0011c80a7b,64d2fd46c836a06233681665,64dc7ba6215c87190a6f0a8e,,,,,,,sngl,resources/DB.BMP,resources/Empty.png,Door2,-0.240885417,-0.12890625,1,0,0,0.763,optionLeft,40,5885,3,17,0,17,0,1,,,,,,,,,,,,,,,,,,,,,,,,,,,,,,,,,,,,,,,
,,,,,,,,2023-08-16_08h33.36.106,HF_wild_card,2022.2.4,Win32,59.95203837,56235e19ed6e5a0011c80a7b,64d2fd46c836a06233681665,64dc7ba6215c87190a6f0a8e,,,,,,,decisionTrl,resources/DBN.BMP,resources/DR.BMP,Door4,0.360677083,-0.1328125,1,0,0,0.796,optionRight,80,5965,3,18,0,18,0,1,,,,,,,,,,,,,,,,,,,,,,,,,,,,,,,,,,,,,,,
,,,,,,,,2023-08-16_08h33.36.106,HF_wild_card,2022.2.4,Win32,59.95203837,56235e19ed6e5a0011c80a7b,64d2fd46c836a06233681665,64dc7ba6215c87190a6f0a8e,,,,,,,decisionTrl,resources/DP.BMP,resources/DB.BMP,Door1,-0.16015625,-0.145833333,1,0,0,2.052,optionLeft,30,5995,3,19,0,19,0,1,,,,,,,,,,,,,,,,,,,,,,,,,,,,,,,,,,,,,,,
,,,,,,,,2023-08-16_08h33.36.106,HF_wild_card,2022.2.4,Win32,59.95203837,56235e19ed6e5a0011c80a7b,64d2fd46c836a06233681665,64dc7ba6215c87190a6f0a8e,,,,,,,ctch,resources/DB.BMP,resources/DY.BMP,Door3,0.326822917,-0.11328125,1,0,0,1.287,optionRight,70,6065,3,20,0,20,0,1,,,,,,,,,,,,,,,,,,,,,,,,,,,,,,,,,,,,,,,
,,,,,,,,2023-08-16_08h33.36.106,HF_wild_card,2022.2.4,Win32,59.95203837,56235e19ed6e5a0011c80a7b,64d2fd46c836a06233681665,64dc7ba6215c87190a6f0a8e,,,,,,,decisionTrl,resources/DB.BMP,resources/DBN.BMP,WildCard_Ex,0.200520833,-0.154947917,1,0,0,1.348,optionRight,5,6070,3,21,0,21,0,1,,,,,,,,,,,,,,,,,,,,,,,,,,,,,,,,,,,,,,,
,,,,,,,,2023-08-16_08h33.36.106,HF_wild_card,2022.2.4,Win32,59.95203837,56235e19ed6e5a0011c80a7b,64d2fd46c836a06233681665,64dc7ba6215c87190a6f0a8e,,,,,,,sngl,resources/DBN.BMP,resources/Empty.png,WildCard_Ex,-0.221354167,-0.131510417,1,0,0,0.746,optionLeft,95,6165,3,22,0,22,0,1,,,,,,,,,,,,,,,,,,,,,,,,,,,,,,,,,,,,,,,
,,,,,,,,2023-08-16_08h33.36.106,HF_wild_card,2022.2.4,Win32,59.95203837,56235e19ed6e5a0011c80a7b,64d2fd46c836a06233681665,64dc7ba6215c87190a6f0a8e,,,,,,,sngl,resources/Empty.png,resources/DBN.BMP,WildCard_Ex,0.24609375,-0.102864583,1,0,0,0.53,optionRight,95,6260,3,23,0,23,0,1,,,,,,,,,,,,,,,,,,,,,,,,,,,,,,,,,,,,,,,
,,,,,,,,2023-08-16_08h33.36.106,HF_wild_card,2022.2.4,Win32,59.95203837,56235e19ed6e5a0011c80a7b,64d2fd46c836a06233681665,64dc7ba6215c87190a6f0a8e,,,,,,,decisionTrl,resources/DY.BMP,resources/DR.BMP,Door4,0.46484375,-0.130208333,1,0,0,2.119,optionRight,80,6340,3,24,0,24,0,1,,,,,,,,,,,,,,,,,,,,,,,,,,,,,,,,,,,,,,,
,,,,,,,,2023-08-16_08h33.36.106,HF_wild_card,2022.2.4,Win32,59.95203837,56235e19ed6e5a0011c80a7b,64d2fd46c836a06233681665,64dc7ba6215c87190a6f0a8e,,,,,,,decisionTrl,resources/DP.BMP,resources/DB.BMP,Door1,-0.135416667,-0.158854167,1,0,0,2.17,optionLeft,30,6370,3,25,0,25,0,1,,,,,,,,,,,,,,,,,,,,,,,,,,,,,,,,,,,,,,,
,,,,,,,,2023-08-16_08h33.36.106,HF_wild_card,2022.2.4,Win32,59.95203837,56235e19ed6e5a0011c80a7b,64d2fd46c836a06233681665,64dc7ba6215c87190a6f0a8e,,,,,,,sngl,resources/Empty.png,resources/DB.BMP,Door2,0.33203125,-0.0703125,1,0,0,0.647,optionRight,20,6390,3,26,0,26,0,1,,,,,,,,,,,,,,,,,,,,,,,,,,,,,,,,,,,,,,,
,,,,,,,,2023-08-16_08h33.36.106,HF_wild_card,2022.2.4,Win32,59.95203837,56235e19ed6e5a0011c80a7b,64d2fd46c836a06233681665,64dc7ba6215c87190a6f0a8e,,,,,,,decisionTrl,resources/DP.BMP,resources/DB.BMP,Door1,-0.290364583,-0.091145833,1,0,0,0.698,optionLeft,30,6420,3,27,0,27,0,1,,,,,,,,,,,,,,,,,,,,,,,,,,,,,,,,,,,,,,,
,,,,,,,,2023-08-16_08h33.36.106,HF_wild_card,2022.2.4,Win32,59.95203837,56235e19ed6e5a0011c80a7b,64d2fd46c836a06233681665,64dc7ba6215c87190a6f0a8e,,,,,,,sngl,resources/DBN.BMP,resources/Empty.png,WildCard_Ex,-0.259114583,-0.08984375,1,0,0,0.629,optionLeft,5,6425,3,28,0,28,0,1,,,,,,,,,,,,,,,,,,,,,,,,,,,,,,,,,,,,,,,
,,,,,,,,2023-08-16_08h33.36.106,HF_wild_card,2022.2.4,Win32,59.95203837,56235e19ed6e5a0011c80a7b,64d2fd46c836a06233681665,64dc7ba6215c87190a6f0a8e,,,,,,,sngl,resources/Empty.png,resources/DBN.BMP,WildCard_Ex,0.291666667,-0.08984375,1,0,0,0.664,optionRight,5,6430,3,29,0,29,0,1,,,,,,,,,,,,,,,,,,,,,,,,,,,,,,,,,,,,,,,
,,,,,,,,2023-08-16_08h33.36.106,HF_wild_card,2022.2.4,Win32,59.95203837,56235e19ed6e5a0011c80a7b,64d2fd46c836a06233681665,64dc7ba6215c87190a6f0a8e,,,,,,,decisionTrl,resources/DBN.BMP,resources/DY.BMP,Door3,0.240885417,-0.065104167,1,0,0,1.014,optionRight,70,6500,3,30,0,30,0,1,,,,,,,,,,,,,,,,,,,,,,,,,,,,,,,,,,,,,,,
,,,,,,,,2023-08-16_08h33.36.106,HF_wild_card,2022.2.4,Win32,59.95203837,56235e19ed6e5a0011c80a7b,64d2fd46c836a06233681665,64dc7ba6215c87190a6f0a8e,,,,,,,ctch,resources/DY.BMP,resources/DB.BMP,Door3,-0.24609375,-0.12109375,1,0,0,1.302,optionLeft,70,6570,3,31,0,31,0,1,,,,,,,,,,,,,,,,,,,,,,,,,,,,,,,,,,,,,,,
,,,,,,,,2023-08-16_08h33.36.106,HF_wild_card,2022.2.4,Win32,59.95203837,56235e19ed6e5a0011c80a7b,64d2fd46c836a06233681665,64dc7ba6215c87190a6f0a8e,,,,,,,decisionTrl,resources/DB.BMP,resources/DP.BMP,Door1,0.294270833,-0.09375,1,0,0,1.601,optionRight,30,6600,3,32,0,32,0,1,,,,,,,,,,,,,,,,,,,,,,,,,,,,,,,,,,,,,,,
,,,,,,,,2023-08-16_08h33.36.106,HF_wild_card,2022.2.4,Win32,59.95203837,56235e19ed6e5a0011c80a7b,64d2fd46c836a06233681665,64dc7ba6215c87190a6f0a8e,,,,,,,sngl,resources/Empty.png,resources/DY.BMP,Door3,0.350260417,-0.143229167,1,0,0,0.561,optionRight,70,6670,3,33,0,33,0,1,,,,,,,,,,,,,,,,,,,,,,,,,,,,,,,,,,,,,,,
,,,,,,,,2023-08-16_08h33.36.106,HF_wild_card,2022.2.4,Win32,59.95203837,56235e19ed6e5a0011c80a7b,64d2fd46c836a06233681665,64dc7ba6215c87190a6f0a8e,,,,,,,decisionTrl,resources/DY.BMP,resources/DBN.BMP,Door3,-0.240885417,-0.118489583,1,0,0,0.581,optionLeft,70,6740,3,34,0,34,0,1,,,,,,,,,,,,,,,,,,,,,,,,,,,,,,,,,,,,,,,
,,,,,,,,2023-08-16_08h33.36.106,HF_wild_card,2022.2.4,Win32,59.95203837,56235e19ed6e5a0011c80a7b,64d2fd46c836a06233681665,64dc7ba6215c87190a6f0a8e,,,,,,,ctch,resources/DP.BMP,resources/DR.BMP,Door4,0.44921875,-0.061197917,1,0,0,1.398,optionRight,80,6820,3,35,0,35,0,1,,,,,,,,,,,,,,,,,,,,,,,,,,,,,,,,,,,,,,,
,,,,,,,,2023-08-16_08h33.36.106,HF_wild_card,2022.2.4,Win32,59.95203837,56235e19ed6e5a0011c80a7b,64d2fd46c836a06233681665,64dc7ba6215c87190a6f0a8e,,,,,,,decisionTrl,resources/DR.BMP,resources/DY.BMP,Door4,-0.283854167,-0.108072917,1,0,0,0.629,optionLeft,60,6880,3,36,0,36,0,1,,,,,,,,,,,,,,,,,,,,,,,,,,,,,,,,,,,,,,,
,,,,,,,,2023-08-16_08h33.36.106,HF_wild_card,2022.2.4,Win32,59.95203837,56235e19ed6e5a0011c80a7b,64d2fd46c836a06233681665,64dc7ba6215c87190a6f0a8e,,,,,,,ctch,resources/DR.BMP,resources/DP.BMP,Door4,-0.25390625,-0.069010417,1,0,0,1.267,optionLeft,60,6940,3,37,0,37,0,1,,,,,,,,,,,,,,,,,,,,,,,,,,,,,,,,,,,,,,,
,,,,,,,,2023-08-16_08h33.36.106,HF_wild_card,2022.2.4,Win32,59.95203837,56235e19ed6e5a0011c80a7b,64d2fd46c836a06233681665,64dc7ba6215c87190a6f0a8e,,,,,,,ctch,resources/DR.BMP,resources/DP.BMP,Door4,-0.282552083,-0.083333333,1,0,0,0.982,optionLeft,80,7020,3,38,0,38,0,1,,,,,,,,,,,,,,,,,,,,,,,,,,,,,,,,,,,,,,,
,,,,,,,,2023-08-16_08h33.36.106,HF_wild_card,2022.2.4,Win32,59.95203837,56235e19ed6e5a0011c80a7b,64d2fd46c836a06233681665,64dc7ba6215c87190a6f0a8e,,,,,,,sngl,resources/Empty.png,resources/DP.BMP,Door1,0.368489583,-0.083333333,1,0,0,0.761,optionRight,30,7050,3,39,0,39,0,1,,,,,,,,,,,,,,,,,,,,,,,,,,,,,,,,,,,,,,,
,,,,,,,,2023-08-16_08h33.36.106,HF_wild_card,2022.2.4,Win32,59.95203837,56235e19ed6e5a0011c80a7b,64d2fd46c836a06233681665,64dc7ba6215c87190a6f0a8e,,,,,,,decisionTrl,resources/DB.BMP,resources/DP.BMP,Door1,0.217447917,-0.028645833,1,0,0,6,optionRight,30,7080,3,40,0,40,0,1,,,,,,,,,,,,,,,,,,,,,,,,,,,,,,,,,,,,,,,
,,,,,,,,2023-08-16_08h33.36.106,HF_wild_card,2022.2.4,Win32,59.95203837,56235e19ed6e5a0011c80a7b,64d2fd46c836a06233681665,64dc7ba6215c87190a6f0a8e,,,,,,,ctch,resources/DP.BMP,resources/DR.BMP,Door4,0.220052083,-0.092447917,1,0,0,0.58,optionRight,80,7160,3,41,0,41,0,1,,,,,,,,,,,,,,,,,,,,,,,,,,,,,,,,,,,,,,,
,,,,,,,,2023-08-16_08h33.36.106,HF_wild_card,2022.2.4,Win32,59.95203837,56235e19ed6e5a0011c80a7b,64d2fd46c836a06233681665,64dc7ba6215c87190a6f0a8e,,,,,,,decisionTrl,resources/DY.BMP,resources/DR.BMP,Door4,0.42578125,-0.09375,1,0,0,0.664,optionRight,80,7240,3,42,0,42,0,1,,,,,,,,,,,,,,,,,,,,,,,,,,,,,,,,,,,,,,,
,,,,,,,,2023-08-16_08h33.36.106,HF_wild_card,2022.2.4,Win32,59.95203837,56235e19ed6e5a0011c80a7b,64d2fd46c836a06233681665,64dc7ba6215c87190a6f0a8e,,,,,,,sngl,resources/Empty.png,resources/DR.BMP,Door4,0.272135417,-0.087239583,1,0,0,0.513,optionRight,60,7300,3,43,0,43,0,1,,,,,,,,,,,,,,,,,,,,,,,,,,,,,,,,,,,,,,,
,,,,,,,,2023-08-16_08h33.36.106,HF_wild_card,2022.2.4,Win32,59.95203837,56235e19ed6e5a0011c80a7b,64d2fd46c836a06233681665,64dc7ba6215c87190a6f0a8e,,,,,,,,,,,,,,,,,,,,,,,,,,2,0,2,0,1,,,,,,,,,,,,,,,,,,,,,,,,,,,,,,,,,,
,,,,,,,,2023-08-16_08h33.36.106,HF_wild_card,2022.2.4,Win32,59.95203837,56235e19ed6e5a0011c80a7b,64d2fd46c836a06233681665,64dc7ba6215c87190a6f0a8e,,,,,,,sngl,resources/Empty.png,resources/DY.BMP,Door3,0.364583333,-0.0703125,1,0,0,1.14,optionRight,70,7370,4,0,0,0,0,1,,,,,,,,,,,,,,,,,,,,,,,,,,,,,,,,,,,,,,,
,,,,,,,,2023-08-16_08h33.36.106,HF_wild_card,2022.2.4,Win32,59.95203837,56235e19ed6e5a0011c80a7b,64d2fd46c836a06233681665,64dc7ba6215c87190a6f0a8e,,,,,,,sngl,resources/Empty.png,resources/DB.BMP,Door2,0.385416667,-0.07421875,1,0,0,0.578,optionRight,40,7410,4,1,0,1,0,1,,,,,,,,,,,,,,,,,,,,,,,,,,,,,,,,,,,,,,,
,,,,,,,,2023-08-16_08h33.36.106,HF_wild_card,2022.2.4,Win32,59.95203837,56235e19ed6e5a0011c80a7b,64d2fd46c836a06233681665,64dc7ba6215c87190a6f0a8e,,,,,,,decisionTrl,resources/DB.BMP,resources/DP.BMP,Door1,0.44140625,-0.106770833,1,0,0,1.313,optionRight,30,7440,4,2,0,2,0,1,,,,,,,,,,,,,,,,,,,,,,,,,,,,,,,,,,,,,,,
,,,,,,,,2023-08-16_08h33.36.106,HF_wild_card,2022.2.4,Win32,59.95203837,56235e19ed6e5a0011c80a7b,64d2fd46c836a06233681665,64dc7ba6215c87190a6f0a8e,,,,,,,sngl,resources/DY.BMP,resources/Empty.png,Door3,-0.233072917,-0.14453125,1,0,0,0.595,optionLeft,70,7510,4,3,0,3,0,1,,,,,,,,,,,,,,,,,,,,,,,,,,,,,,,,,,,,,,,
,,,,,,,,2023-08-16_08h33.36.106,HF_wild_card,2022.2.4,Win32,59.95203837,56235e19ed6e5a0011c80a7b,64d2fd46c836a06233681665,64dc7ba6215c87190a6f0a8e,,,,,,,decisionTrl,resources/DY.BMP,resources/DR.BMP,Door3,-0.192708333,-0.153645833,1,0,0,0.546,optionLeft,70,7580,4,4,0,4,0,1,,,,,,,,,,,,,,,,,,,,,,,,,,,,,,,,,,,,,,,
,,,,,,,,2023-08-16_08h33.36.106,HF_wild_card,2022.2.4,Win32,59.95203837,56235e19ed6e5a0011c80a7b,64d2fd46c836a06233681665,64dc7ba6215c87190a6f0a8e,,,,,,,ctch,resources/DY.BMP,resources/DB.BMP,Door3,-0.217447917,-0.161458333,1,0,0,0.679,optionLeft,70,7650,4,5,0,5,0,1,,,,,,,,,,,,,,,,,,,,,,,,,,,,,,,,,,,,,,,
,,,,,,,,2023-08-16_08h33.36.106,HF_wild_card,2022.2.4,Win32,59.95203837,56235e19ed6e5a0011c80a7b,64d2fd46c836a06233681665,64dc7ba6215c87190a6f0a8e,,,,,,,sngl,resources/DB.BMP,resources/Empty.png,Door2,-0.18359375,-0.114583333,1,0,0,0.646,optionLeft,20,7670,4,6,0,6,0,1,,,,,,,,,,,,,,,,,,,,,,,,,,,,,,,,,,,,,,,
,,,,,,,,2023-08-16_08h33.36.106,HF_wild_card,2022.2.4,Win32,59.95203837,56235e19ed6e5a0011c80a7b,64d2fd46c836a06233681665,64dc7ba6215c87190a6f0a8e,,,,,,,sngl,resources/Empty.png,resources/DG.BMP,WildCard_NonEx,0.264322917,-0.158854167,1,0,0,0.662,optionRight,55,7725,4,7,0,7,0,1,,,,,,,,,,,,,,,,,,,,,,,,,,,,,,,,,,,,,,,
,,,,,,,,2023-08-16_08h33.36.106,HF_wild_card,2022.2.4,Win32,59.95203837,56235e19ed6e5a0011c80a7b,64d2fd46c836a06233681665,64dc7ba6215c87190a6f0a8e,,,,,,,decisionTrl,resources/DP.BMP,resources/DB.BMP,Door1,-0.290364583,-0.12109375,1,0,0,1.484,optionLeft,30,7755,4,8,0,8,0,1,,,,,,,,,,,,,,,,,,,,,,,,,,,,,,,,,,,,,,,
,,,,,,,,2023-08-16_08h33.36.106,HF_wild_card,2022.2.4,Win32,59.95203837,56235e19ed6e5a0011c80a7b,64d2fd46c836a06233681665,64dc7ba6215c87190a6f0a8e,,,,,,,ctch,resources/DR.BMP,resources/DP.BMP,Door4,-0.345052083,-0.1328125,1,0,0,1.067,optionLeft,80,7835,4,9,0,9,0,1,,,,,,,,,,,,,,,,,,,,,,,,,,,,,,,,,,,,,,,
,,,,,,,,2023-08-16_08h33.36.106,HF_wild_card,2022.2.4,Win32,59.95203837,56235e19ed6e5a0011c80a7b,64d2fd46c836a06233681665,64dc7ba6215c87190a6f0a8e,,,,,,,decisionTrl,resources/DR.BMP,resources/DY.BMP,Door4,-0.182291667,-0.158854167,1,0,0,0.965,optionLeft,80,7915,4,10,0,10,0,1,,,,,,,,,,,,,,,,,,,,,,,,,,,,,,,,,,,,,,,
,,,,,,,,2023-08-16_08h33.36.106,HF_wild_card,2022.2.4,Win32,59.95203837,56235e19ed6e5a0011c80a7b,64d2fd46c836a06233681665,64dc7ba6215c87190a6f0a8e,,,,,,,ctch,resources/DP.BMP,resources/DR.BMP,Door4,0.260416667,-0.165364583,1,0,0,0.915,optionRight,60,7975,4,11,0,11,0,1,,,,,,,,,,,,,,,,,,,,,,,,,,,,,,,,,,,,,,,
,,,,,,,,2023-08-16_08h33.36.106,HF_wild_card,2022.2.4,Win32,59.95203837,56235e19ed6e5a0011c80a7b,64d2fd46c836a06233681665,64dc7ba6215c87190a6f0a8e,,,,,,,decisionTrl,resources/DG.BMP,resources/DP.BMP,WildCard_NonEx,-0.16015625,-0.126302083,1,0,0,0.664,optionLeft,45,8020,4,12,0,12,0,1,,,,,,,,,,,,,,,,,,,,,,,,,,,,,,,,,,,,,,,
,,,,,,,,2023-08-16_08h33.36.106,HF_wild_card,2022.2.4,Win32,59.95203837,56235e19ed6e5a0011c80a7b,64d2fd46c836a06233681665,64dc7ba6215c87190a6f0a8e,,,,,,,decisionTrl,resources/DP.BMP,resources/DB.BMP,Door1,-0.213541667,-0.08984375,1,0,0,1.64,optionLeft,30,8050,4,13,0,13,0,1,,,,,,,,,,,,,,,,,,,,,,,,,,,,,,,,,,,,,,,
,,,,,,,,2023-08-16_08h33.36.106,HF_wild_card,2022.2.4,Win32,59.95203837,56235e19ed6e5a0011c80a7b,64d2fd46c836a06233681665,64dc7ba6215c87190a6f0a8e,,,,,,,decisionTrl,resources/DB.BMP,resources/DP.BMP,Door2,-0.294270833,-0.149739583,1,0,0,0.527,optionLeft,40,8090,4,14,0,14,0,1,,,,,,,,,,,,,,,,,,,,,,,,,,,,,,,,,,,,,,,
,,,,,,,,2023-08-16_08h33.36.106,HF_wild_card,2022.2.4,Win32,59.95203837,56235e19ed6e5a0011c80a7b,64d2fd46c836a06233681665,64dc7ba6215c87190a6f0a8e,,,,,,,sngl,resources/DG.BMP,resources/Empty.png,WildCard_NonEx,-0.161458333,-0.153645833,1,0,0,0.528,optionLeft,45,8135,4,15,0,15,0,1,,,,,,,,,,,,,,,,,,,,,,,,,,,,,,,,,,,,,,,
,,,,,,,,2023-08-16_08h33.36.106,HF_wild_card,2022.2.4,Win32,59.95203837,56235e19ed6e5a0011c80a7b,64d2fd46c836a06233681665,64dc7ba6215c87190a6f0a8e,,,,,,,decisionTrl,resources/DR.BMP,resources/DY.BMP,Door4,-0.23046875,-0.12109375,1,0,0,2.336,optionLeft,80,8215,4,16,0,16,0,1,,,,,,,,,,,,,,,,,,,,,,,,,,,,,,,,,,,,,,,
,,,,,,,,2023-08-16_08h33.36.106,HF_wild_card,2022.2.4,Win32,59.95203837,56235e19ed6e5a0011c80a7b,64d2fd46c836a06233681665,64dc7ba6215c87190a6f0a8e,,,,,,,decisionTrl,resources/DR.BMP,resources/DY.BMP,Door4,-0.170572917,-0.139322917,1,0,0,0.546,optionLeft,60,8275,4,17,0,17,0,1,,,,,,,,,,,,,,,,,,,,,,,,,,,,,,,,,,,,,,,
,,,,,,,,2023-08-16_08h33.36.106,HF_wild_card,2022.2.4,Win32,59.95203837,56235e19ed6e5a0011c80a7b,64d2fd46c836a06233681665,64dc7ba6215c87190a6f0a8e,,,,,,,decisionTrl,resources/DP.BMP,resources/DB.BMP,Door1,-0.147135417,-0.092447917,1,0,0,1.079,optionLeft,30,8305,4,18,0,18,0,1,,,,,,,,,,,,,,,,,,,,,,,,,,,,,,,,,,,,,,,
,,,,,,,,2023-08-16_08h33.36.106,HF_wild_card,2022.2.4,Win32,59.95203837,56235e19ed6e5a0011c80a7b,64d2fd46c836a06233681665,64dc7ba6215c87190a6f0a8e,,,,,,,decisionTrl,resources/DY.BMP,resources/DR.BMP,Door4,0.483072917,-0.1015625,1,0,0,0.93,optionRight,80,8385,4,19,0,19,0,1,,,,,,,,,,,,,,,,,,,,,,,,,,,,,,,,,,,,,,,
,,,,,,,,2023-08-16_08h33.36.106,HF_wild_card,2022.2.4,Win32,59.95203837,56235e19ed6e5a0011c80a7b,64d2fd46c836a06233681665,64dc7ba6215c87190a6f0a8e,,,,,,,decisionTrl,resources/DB.BMP,resources/DP.BMP,Door1,0.30078125,-0.109375,1,0,0,1.049,optionRight,30,8415,4,20,0,20,0,1,,,,,,,,,,,,,,,,,,,,,,,,,,,,,,,,,,,,,,,
,,,,,,,,2023-08-16_08h33.36.106,HF_wild_card,2022.2.4,Win32,59.95203837,56235e19ed6e5a0011c80a7b,64d2fd46c836a06233681665,64dc7ba6215c87190a6f0a8e,,,,,,,ctch,resources/DR.BMP,resources/DP.BMP,Door4,-0.184895833,-0.096354167,1,0,0,0.679,optionLeft,80,8495,4,21,0,21,0,1,,,,,,,,,,,,,,,,,,,,,,,,,,,,,,,,,,,,,,,
,,,,,,,,2023-08-16_08h33.36.106,HF_wild_card,2022.2.4,Win32,59.95203837,56235e19ed6e5a0011c80a7b,64d2fd46c836a06233681665,64dc7ba6215c87190a6f0a8e,,,,,,,sngl,resources/Empty.png,resources/DP.BMP,Door1,0.3203125,-0.083333333,1,0,0,0.491,optionRight,30,8525,4,22,0,22,0,1,,,,,,,,,,,,,,,,,,,,,,,,,,,,,,,,,,,,,,,
,,,,,,,,2023-08-16_08h33.36.106,HF_wild_card,2022.2.4,Win32,59.95203837,56235e19ed6e5a0011c80a7b,64d2fd46c836a06233681665,64dc7ba6215c87190a6f0a8e,,,,,,,decisionTrl,resources/DG.BMP,resources/DY.BMP,WildCard_NonEx,-0.221354167,-0.109375,1,0,0,0.58,optionLeft,55,8580,4,23,0,23,0,1,,,,,,,,,,,,,,,,,,,,,,,,,,,,,,,,,,,,,,,
,,,,,,,,2023-08-16_08h33.36.106,HF_wild_card,2022.2.4,Win32,59.95203837,56235e19ed6e5a0011c80a7b,64d2fd46c836a06233681665,64dc7ba6215c87190a6f0a8e,,,,,,,decisionTrl,resources/DG.BMP,resources/DR.BMP,Door4,0.268229167,-0.087239583,1,0,0,1.684,optionRight,60,8640,4,24,0,24,0,1,,,,,,,,,,,,,,,,,,,,,,,,,,,,,,,,,,,,,,,
,,,,,,,,2023-08-16_08h33.36.106,HF_wild_card,2022.2.4,Win32,59.95203837,56235e19ed6e5a0011c80a7b,64d2fd46c836a06233681665,64dc7ba6215c87190a6f0a8e,,,,,,,ctch,resources/DP.BMP,resources/DR.BMP,Door4,0.2578125,-0.11328125,1,0,0,1.617,optionRight,60,8700,4,25,0,25,0,1,,,,,,,,,,,,,,,,,,,,,,,,,,,,,,,,,,,,,,,
,,,,,,,,2023-08-16_08h33.36.106,HF_wild_card,2022.2.4,Win32,59.95203837,56235e19ed6e5a0011c80a7b,64d2fd46c836a06233681665,64dc7ba6215c87190a6f0a8e,,,,,,,decisionTrl,resources/DR.BMP,resources/DG.BMP,Door4,-0.501302083,-0.115885417,1,0,0,1.422,optionLeft,60,8760,4,26,0,26,0,1,,,,,,,,,,,,,,,,,,,,,,,,,,,,,,,,,,,,,,,
,,,,,,,,2023-08-16_08h33.36.106,HF_wild_card,2022.2.4,Win32,59.95203837,56235e19ed6e5a0011c80a7b,64d2fd46c836a06233681665,64dc7ba6215c87190a6f0a8e,,,,,,,decisionTrl,resources/DB.BMP,resources/DP.BMP,Door1,0.225260417,-0.09765625,1,0,0,1.197,optionRight,30,8790,4,27,0,27,0,1,,,,,,,,,,,,,,,,,,,,,,,,,,,,,,,,,,,,,,,
,,,,,,,,2023-08-16_08h33.36.106,HF_wild_card,2022.2.4,Win32,59.95203837,56235e19ed6e5a0011c80a7b,64d2fd46c836a06233681665,64dc7ba6215c87190a6f0a8e,,,,,,,decisionTrl,resources/DP.BMP,resources/DB.BMP,Door2,0.51171875,-0.109375,1,0,0,0.71,optionRight,20,8810,4,28,0,28,0,1,,,,,,,,,,,,,,,,,,,,,,,,,,,,,,,,,,,,,,,
,,,,,,,,2023-08-16_08h33.36.106,HF_wild_card,2022.2.4,Win32,59.95203837,56235e19ed6e5a0011c80a7b,64d2fd46c836a06233681665,64dc7ba6215c87190a6f0a8e,,,,,,,decisionTrl,resources/DB.BMP,resources/DG.BMP,WildCard_NonEx,0.376302083,-0.09765625,1,0,0,1.098,optionRight,55,8865,4,29,0,29,0,1,,,,,,,,,,,,,,,,,,,,,,,,,,,,,,,,,,,,,,,
,,,,,,,,2023-08-16_08h33.36.106,HF_wild_card,2022.2.4,Win32,59.95203837,56235e19ed6e5a0011c80a7b,64d2fd46c836a06233681665,64dc7ba6215c87190a6f0a8e,,,,,,,sngl,resources/DP.BMP,resources/Empty.png,Door1,-0.259114583,-0.131510417,1,0,0,0.579,optionLeft,30,8895,4,30,0,30,0,1,,,,,,,,,,,,,,,,,,,,,,,,,,,,,,,,,,,,,,,
,,,,,,,,2023-08-16_08h33.36.106,HF_wild_card,2022.2.4,Win32,59.95203837,56235e19ed6e5a0011c80a7b,64d2fd46c836a06233681665,64dc7ba6215c87190a6f0a8e,,,,,,,decisionTrl,resources/DY.BMP,resources/DG.BMP,WildCard_NonEx,0.37890625,-0.115885417,1,0,0,1.432,optionRight,55,8950,4,31,0,31,0,1,,,,,,,,,,,,,,,,,,,,,,,,,,,,,,,,,,,,,,,
,,,,,,,,2023-08-16_08h33.36.106,HF_wild_card,2022.2.4,Win32,59.95203837,56235e19ed6e5a0011c80a7b,64d2fd46c836a06233681665,64dc7ba6215c87190a6f0a8e,,,,,,,sngl,resources/Empty.png,resources/DR.BMP,Door4,0.26171875,-0.08984375,1,0,0,0.53,optionRight,80,9030,4,32,0,32,0,1,,,,,,,,,,,,,,,,,,,,,,,,,,,,,,,,,,,,,,,
,,,,,,,,2023-08-16_08h33.36.106,HF_wild_card,2022.2.4,Win32,59.95203837,56235e19ed6e5a0011c80a7b,64d2fd46c836a06233681665,64dc7ba6215c87190a6f0a8e,,,,,,,sngl,resources/Empty.png,resources/DG.BMP,WildCard_NonEx,0.26171875,-0.0625,1,0,0,0.931,optionRight,45,9075,4,33,0,33,0,1,,,,,,,,,,,,,,,,,,,,,,,,,,,,,,,,,,,,,,,
,,,,,,,,2023-08-16_08h33.36.106,HF_wild_card,2022.2.4,Win32,59.95203837,56235e19ed6e5a0011c80a7b,64d2fd46c836a06233681665,64dc7ba6215c87190a6f0a8e,,,,,,,decisionTrl,resources/DR.BMP,resources/DY.BMP,Door4,-0.268229167,-0.076822917,1,0,0,1.218,optionLeft,60,9135,4,34,0,34,0,1,,,,,,,,,,,,,,,,,,,,,,,,,,,,,,,,,,,,,,,
,,,,,,,,2023-08-16_08h33.36.106,HF_wild_card,2022.2.4,Win32,59.95203837,56235e19ed6e5a0011c80a7b,64d2fd46c836a06233681665,64dc7ba6215c87190a6f0a8e,,,,,,,decisionTrl,resources/DY.BMP,resources/DR.BMP,Door4,0.3828125,-0.0625,1,0,0,0.647,optionRight,80,9215,4,35,0,35,0,1,,,,,,,,,,,,,,,,,,,,,,,,,,,,,,,,,,,,,,,
,,,,,,,,2023-08-16_08h33.36.106,HF_wild_card,2022.2.4,Win32,59.95203837,56235e19ed6e5a0011c80a7b,64d2fd46c836a06233681665,64dc7ba6215c87190a6f0a8e,,,,,,,sngl,resources/DR.BMP,resources/Empty.png,Door4,-0.22265625,-0.092447917,1,0,0,0.564,optionLeft,60,9275,4,36,0,36,0,1,,,,,,,,,,,,,,,,,,,,,,,,,,,,,,,,,,,,,,,
,,,,,,,,2023-08-16_08h33.36.106,HF_wild_card,2022.2.4,Win32,59.95203837,56235e19ed6e5a0011c80a7b,64d2fd46c836a06233681665,64dc7ba6215c87190a6f0a8e,,,,,,,sngl,resources/DG.BMP,resources/Empty.png,WildCard_NonEx,-0.19140625,-0.118489583,1,0,0,0.528,optionLeft,55,9330,4,37,0,37,0,1,,,,,,,,,,,,,,,,,,,,,,,,,,,,,,,,,,,,,,,
,,,,,,,,2023-08-16_08h33.36.106,HF_wild_card,2022.2.4,Win32,59.95203837,56235e19ed6e5a0011c80a7b,64d2fd46c836a06233681665,64dc7ba6215c87190a6f0a8e,,,,,,,ctch,resources/DY.BMP,resources/DB.BMP,Door3,-0.321614583,-0.11328125,1,0,0,1.518,optionLeft,70,9400,4,38,0,38,0,1,,,,,,,,,,,,,,,,,,,,,,,,,,,,,,,,,,,,,,,
,,,,,,,,2023-08-16_08h33.36.106,HF_wild_card,2022.2.4,Win32,59.95203837,56235e19ed6e5a0011c80a7b,64d2fd46c836a06233681665,64dc7ba6215c87190a6f0a8e,,,,,,,decisionTrl,resources/DG.BMP,resources/DB.BMP,WildCard_NonEx,-0.220052083,-0.087239583,1,0,0,1.508,optionLeft,55,9455,4,39,0,39,0,1,,,,,,,,,,,,,,,,,,,,,,,,,,,,,,,,,,,,,,,
,,,,,,,,2023-08-16_08h33.36.106,HF_wild_card,2022.2.4,Win32,59.95203837,56235e19ed6e5a0011c80a7b,64d2fd46c836a06233681665,64dc7ba6215c87190a6f0a8e,,,,,,,ctch,resources/DB.BMP,resources/DY.BMP,Door3,0.30859375,-0.075520833,1,0,0,5.13,optionRight,70,9525,4,40,0,40,0,1,,,,,,,,,,,,,,,,,,,,,,,,,,,,,,,,,,,,,,,
,,,,,,,,2023-08-16_08h33.36.106,HF_wild_card,2022.2.4,Win32,59.95203837,56235e19ed6e5a0011c80a7b,64d2fd46c836a06233681665,64dc7ba6215c87190a6f0a8e,,,,,,,decisionTrl,resources/DY.BMP,resources/DR.BMP,Door3,-0.3046875,-0.131510417,1,0,0,0.577,optionLeft,70,9595,4,41,0,41,0,1,,,,,,,,,,,,,,,,,,,,,,,,,,,,,,,,,,,,,,,
,,,,,,,,2023-08-16_08h33.36.106,HF_wild_card,2022.2.4,Win32,59.95203837,56235e19ed6e5a0011c80a7b,64d2fd46c836a06233681665,64dc7ba6215c87190a6f0a8e,,,,,,,ctch,resources/DB.BMP,resources/DY.BMP,Door3,0.404947917,-0.0234375,1,0,0,0.698,optionRight,70,9665,4,42,0,42,0,1,,,,,,,,,,,,,,,,,,,,,,,,,,,,,,,,,,,,,,,
,,,,,,,,2023-08-16_08h33.36.106,HF_wild_card,2022.2.4,Win32,59.95203837,56235e19ed6e5a0011c80a7b,64d2fd46c836a06233681665,64dc7ba6215c87190a6f0a8e,,,,,,,decisionTrl,resources/DP.BMP,resources/DG.BMP,WildCard_NonEx,0.520833333,-0.067708333,1,0,0,0.63,optionRight,45,9710,4,43,0,43,0,1,,,,,,,,,,,,,,,,,,,,,,,,,,,,,,,,,,,,,,,
,,,,,,,,2023-08-16_08h33.36.106,HF_wild_card,2022.2.4,Win32,59.95203837,56235e19ed6e5a0011c80a7b,64d2fd46c836a06233681665,64dc7ba6215c87190a6f0a8e,,,,,,,,,,,,,,,,,,,,,,,,,,3,0,3,0,1,,,,,,,,,,,,,,,,,,,,,,,,,,,,,,,,,,
,,,,,,,,2023-08-16_08h33.36.106,HF_wild_card,2022.2.4,Win32,59.95203837,56235e19ed6e5a0011c80a7b,64d2fd46c836a06233681665,64dc7ba6215c87190a6f0a8e,,,,,,,decisionTrl,resources/DY.BMP,resources/DR.BMP,Door4,0.295572917,-0.0859375,1,0,0,1.965,optionRight,80,9790,5,0,0,0,0,1,,,,,,,,,,,,,,,,,,,,,,,,,,,,,,,,,,,,,,,
,,,,,,,,2023-08-16_08h33.36.106,HF_wild_card,2022.2.4,Win32,59.95203837,56235e19ed6e5a0011c80a7b,64d2fd46c836a06233681665,64dc7ba6215c87190a6f0a8e,,,,,,,decisionTrl,resources/DR.BMP,resources/DY.BMP,Door4,-0.30859375,-0.10546875,1,0,0,0.863,optionLeft,60,9850,5,1,0,1,0,1,,,,,,,,,,,,,,,,,,,,,,,,,,,,,,,,,,,,,,,
,,,,,,,,2023-08-16_08h33.36.106,HF_wild_card,2022.2.4,Win32,59.95203837,56235e19ed6e5a0011c80a7b,64d2fd46c836a06233681665,64dc7ba6215c87190a6f0a8e,,,,,,,decisionTrl,resources/DG.BMP,resources/DR.BMP,Door4,0.338541667,-0.114583333,1,0,0,1.296,optionRight,80,9930,5,2,0,2,0,1,,,,,,,,,,,,,,,,,,,,,,,,,,,,,,,,,,,,,,,
,,,,,,,,2023-08-16_08h33.36.106,HF_wild_card,2022.2.4,Win32,59.95203837,56235e19ed6e5a0011c80a7b,64d2fd46c836a06233681665,64dc7ba6215c87190a6f0a8e,,,,,,,sngl,resources/DY.BMP,resources/Empty.png,Door3,-0.209635417,-0.1171875,1,0,0,0.546,optionLeft,70,10000,5,3,0,3,0,1,,,,,,,,,,,,,,,,,,,,,,,,,,,,,,,,,,,,,,,
,,,,,,,,2023-08-16_08h33.36.106,HF_wild_card,2022.2.4,Win32,59.95203837,56235e19ed6e5a0011c80a7b,64d2fd46c836a06233681665,64dc7ba6215c87190a6f0a8e,,,,,,,decisionTrl,resources/DR.BMP,resources/DY.BMP,Door4,-0.342447917,-0.0703125,1,0,0,1.081,optionLeft,80,10080,5,4,0,4,0,1,,,,,,,,,,,,,,,,,,,,,,,,,,,,,,,,,,,,,,,
,,,,,,,,2023-08-16_08h33.36.106,HF_wild_card,2022.2.4,Win32,59.95203837,56235e19ed6e5a0011c80a7b,64d2fd46c836a06233681665,64dc7ba6215c87190a6f0a8e,,,,,,,decisionTrl,resources/DP.BMP,resources/DG.BMP,WildCard_NonEx,0.458333333,-0.1484375,1,0,0,9.333,optionRight,55,10135,5,5,0,5,0,1,,,,,,,,,,,,,,,,,,,,,,,,,,,,,,,,,,,,,,,
,,,,,,,,2023-08-16_08h33.36.106,HF_wild_card,2022.2.4,Win32,59.95203837,56235e19ed6e5a0011c80a7b,64d2fd46c836a06233681665,64dc7ba6215c87190a6f0a8e,,,,,,,decisionTrl,resources/DR.BMP,resources/DY.BMP,Door4,-0.234375,-0.134114583,1,0,0,0.846,optionLeft,80,10215,5,6,0,6,0,1,,,,,,,,,,,,,,,,,,,,,,,,,,,,,,,,,,,,,,,
,,,,,,,,2023-08-16_08h33.36.106,HF_wild_card,2022.2.4,Win32,59.95203837,56235e19ed6e5a0011c80a7b,64d2fd46c836a06233681665,64dc7ba6215c87190a6f0a8e,,,,,,,ctch,resources/DR.BMP,resources/DP.BMP,Door4,-0.227864583,-0.115885417,1,0,0,1.367,optionLeft,80,10295,5,7,0,7,0,1,,,,,,,,,,,,,,,,,,,,,,,,,,,,,,,,,,,,,,,
,,,,,,,,2023-08-16_08h33.36.106,HF_wild_card,2022.2.4,Win32,59.95203837,56235e19ed6e5a0011c80a7b,64d2fd46c836a06233681665,64dc7ba6215c87190a6f0a8e,,,,,,,decisionTrl,resources/DB.BMP,resources/DP.BMP,Door1,0.3125,-0.09765625,1,0,0,2.418,optionRight,30,10325,5,8,0,8,0,1,,,,,,,,,,,,,,,,,,,,,,,,,,,,,,,,,,,,,,,
,,,,,,,,2023-08-16_08h33.36.106,HF_wild_card,2022.2.4,Win32,59.95203837,56235e19ed6e5a0011c80a7b,64d2fd46c836a06233681665,64dc7ba6215c87190a6f0a8e,,,,,,,decisionTrl,resources/DG.BMP,resources/DY.BMP,Door3,0.352864583,-0.07421875,1,0,0,1.3,optionRight,70,10395,5,9,0,9,0,1,,,,,,,,,,,,,,,,,,,,,,,,,,,,,,,,,,,,,,,
,,,,,,,,2023-08-16_08h33.36.106,HF_wild_card,2022.2.4,Win32,59.95203837,56235e19ed6e5a0011c80a7b,64d2fd46c836a06233681665,64dc7ba6215c87190a6f0a8e,,,,,,,ctch,resources/DR.BMP,resources/DP.BMP,Door4,-0.338541667,-0.110677083,1,0,0,1.633,optionLeft,60,10455,5,10,0,10,0,1,,,,,,,,,,,,,,,,,,,,,,,,,,,,,,,,,,,,,,,
,,,,,,,,2023-08-16_08h33.36.106,HF_wild_card,2022.2.4,Win32,59.95203837,56235e19ed6e5a0011c80a7b,64d2fd46c836a06233681665,64dc7ba6215c87190a6f0a8e,,,,,,,sngl,resources/DR.BMP,resources/Empty.png,Door4,-0.21484375,-0.12890625,1,0,0,0.63,optionLeft,80,10535,5,11,0,11,0,1,,,,,,,,,,,,,,,,,,,,,,,,,,,,,,,,,,,,,,,
,,,,,,,,2023-08-16_08h33.36.106,HF_wild_card,2022.2.4,Win32,59.95203837,56235e19ed6e5a0011c80a7b,64d2fd46c836a06233681665,64dc7ba6215c87190a6f0a8e,,,,,,,sngl,resources/Empty.png,resources/DR.BMP,Door4,0.330729167,-0.055989583,1,0,0,0.513,optionRight,60,10595,5,12,0,12,0,1,,,,,,,,,,,,,,,,,,,,,,,,,,,,,,,,,,,,,,,
,,,,,,,,2023-08-16_08h33.36.106,HF_wild_card,2022.2.4,Win32,59.95203837,56235e19ed6e5a0011c80a7b,64d2fd46c836a06233681665,64dc7ba6215c87190a6f0a8e,,,,,,,sngl,resources/DG.BMP,resources/Empty.png,WildCard_NonEx,-0.239583333,-0.126302083,1,0,0,0.547,optionLeft,45,10640,5,13,0,13,0,1,,,,,,,,,,,,,,,,,,,,,,,,,,,,,,,,,,,,,,,
,,,,,,,,2023-08-16_08h33.36.106,HF_wild_card,2022.2.4,Win32,59.95203837,56235e19ed6e5a0011c80a7b,64d2fd46c836a06233681665,64dc7ba6215c87190a6f0a8e,,,,,,,ctch,resources/DB.BMP,resources/DY.BMP,Door3,0.415364583,-0.0859375,1,0,0,1.035,optionRight,70,10710,5,14,0,14,0,1,,,,,,,,,,,,,,,,,,,,,,,,,,,,,,,,,,,,,,,
,,,,,,,,2023-08-16_08h33.36.106,HF_wild_card,2022.2.4,Win32,59.95203837,56235e19ed6e5a0011c80a7b,64d2fd46c836a06233681665,64dc7ba6215c87190a6f0a8e,,,,,,,ctch,resources/DY.BMP,resources/DB.BMP,Door3,-0.22265625,-0.127604167,1,0,0,0.66,optionLeft,70,10780,5,15,0,15,0,1,,,,,,,,,,,,,,,,,,,,,,,,,,,,,,,,,,,,,,,
,,,,,,,,2023-08-16_08h33.36.106,HF_wild_card,2022.2.4,Win32,59.95203837,56235e19ed6e5a0011c80a7b,64d2fd46c836a06233681665,64dc7ba6215c87190a6f0a8e,,,,,,,ctch,resources/DP.BMP,resources/DR.BMP,Door4,0.270833333,-0.114583333,1,0,0,4.763,optionRight,80,10860,5,16,0,16,0,1,,,,,,,,,,,,,,,,,,,,,,,,,,,,,,,,,,,,,,,
,,,,,,,,2023-08-16_08h33.36.106,HF_wild_card,2022.2.4,Win32,59.95203837,56235e19ed6e5a0011c80a7b,64d2fd46c836a06233681665,64dc7ba6215c87190a6f0a8e,,,,,,,sngl,resources/Empty.png,resources/DG.BMP,WildCard_NonEx,0.354166667,-0.088541667,1,0,0,0.577,optionRight,55,10915,5,17,0,17,0,1,,,,,,,,,,,,,,,,,,,,,,,,,,,,,,,,,,,,,,,
,,,,,,,,2023-08-16_08h33.36.106,HF_wild_card,2022.2.4,Win32,59.95203837,56235e19ed6e5a0011c80a7b,64d2fd46c836a06233681665,64dc7ba6215c87190a6f0a8e,,,,,,,ctch,resources/DB.BMP,resources/DY.BMP,Door3,0.438802083,-0.080729167,1,0,0,1.214,optionRight,70,10985,5,18,0,18,0,1,,,,,,,,,,,,,,,,,,,,,,,,,,,,,,,,,,,,,,,
,,,,,,,,2023-08-16_08h33.36.106,HF_wild_card,2022.2.4,Win32,59.95203837,56235e19ed6e5a0011c80a7b,64d2fd46c836a06233681665,64dc7ba6215c87190a6f0a8e,,,,,,,decisionTrl,resources/DP.BMP,resources/DB.BMP,Door1,-0.403645833,-0.044270833,1,0,0,15.438,optionLeft,30,11015,5,19,0,19,0,1,,,,,,,,,,,,,,,,,,,,,,,,,,,,,,,,,,,,,,,
,,,,,,,,2023-08-16_08h33.36.106,HF_wild_card,2022.2.4,Win32,59.95203837,56235e19ed6e5a0011c80a7b,64d2fd46c836a06233681665,64dc7ba6215c87190a6f0a8e,,,,,,,decisionTrl,resources/DB.BMP,resources/DP.BMP,Door1,0.279947917,-0.123697917,1,0,0,0.765,optionRight,30,11045,5,20,0,20,0,1,,,,,,,,,,,,,,,,,,,,,,,,,,,,,,,,,,,,,,,
,,,,,,,,2023-08-16_08h33.36.106,HF_wild_card,2022.2.4,Win32,59.95203837,56235e19ed6e5a0011c80a7b,64d2fd46c836a06233681665,64dc7ba6215c87190a6f0a8e,,,,,,,decisionTrl,resources/DP.BMP,resources/DB.BMP,Door1,-0.2109375,-0.130208333,1,0,0,1.107,optionLeft,30,11075,5,21,0,21,0,1,,,,,,,,,,,,,,,,,,,,,,,,,,,,,,,,,,,,,,,
,,,,,,,,2023-08-16_08h33.36.106,HF_wild_card,2022.2.4,Win32,59.95203837,56235e19ed6e5a0011c80a7b,64d2fd46c836a06233681665,64dc7ba6215c87190a6f0a8e,,,,,,,decisionTrl,resources/DY.BMP,resources/DG.BMP,Door3,-0.15234375,-0.110677083,1,0,0,1.431,optionLeft,70,11145,5,22,0,22,0,1,,,,,,,,,,,,,,,,,,,,,,,,,,,,,,,,,,,,,,,
,,,,,,,,2023-08-16_08h33.36.106,HF_wild_card,2022.2.4,Win32,59.95203837,56235e19ed6e5a0011c80a7b,64d2fd46c836a06233681665,64dc7ba6215c87190a6f0a8e,,,,,,,decisionTrl,resources/DB.BMP,resources/DP.BMP,Door1,0.295572917,-0.115885417,1,0,0,1.449,optionRight,30,11175,5,23,0,23,0,1,,,,,,,,,,,,,,,,,,,,,,,,,,,,,,,,,,,,,,,
,,,,,,,,2023-08-16_08h33.36.106,HF_wild_card,2022.2.4,Win32,59.95203837,56235e19ed6e5a0011c80a7b,64d2fd46c836a06233681665,64dc7ba6215c87190a6f0a8e,,,,,,,sngl,resources/DB.BMP,resources/Empty.png,Door2,-0.1484375,-0.114583333,1,0,0,0.615,optionLeft,40,11215,5,24,0,24,0,1,,,,,,,,,,,,,,,,,,,,,,,,,,,,,,,,,,,,,,,
,,,,,,,,2023-08-16_08h33.36.106,HF_wild_card,2022.2.4,Win32,59.95203837,56235e19ed6e5a0011c80a7b,64d2fd46c836a06233681665,64dc7ba6215c87190a6f0a8e,,,,,,,decisionTrl,resources/DY.BMP,resources/DR.BMP,Door4,0.51171875,-0.048177083,1,0,0,1.033,optionRight,60,11275,5,25,0,25,0,1,,,,,,,,,,,,,,,,,,,,,,,,,,,,,,,,,,,,,,,
,,,,,,,,2023-08-16_08h33.36.106,HF_wild_card,2022.2.4,Win32,59.95203837,56235e19ed6e5a0011c80a7b,64d2fd46c836a06233681665,64dc7ba6215c87190a6f0a8e,,,,,,,decisionTrl,resources/DY.BMP,resources/DR.BMP,Door3,-0.171875,-0.125,1,0,0,0.598,optionLeft,70,11345,5,26,0,26,0,1,,,,,,,,,,,,,,,,,,,,,,,,,,,,,,,,,,,,,,,
,,,,,,,,2023-08-16_08h33.36.106,HF_wild_card,2022.2.4,Win32,59.95203837,56235e19ed6e5a0011c80a7b,64d2fd46c836a06233681665,64dc7ba6215c87190a6f0a8e,,,,,,,ctch,resources/DY.BMP,resources/DB.BMP,Door3,-0.208333333,-0.123697917,1,0,0,0.979,optionLeft,70,11415,5,27,0,27,0,1,,,,,,,,,,,,,,,,,,,,,,,,,,,,,,,,,,,,,,,
,,,,,,,,2023-08-16_08h33.36.106,HF_wild_card,2022.2.4,Win32,59.95203837,56235e19ed6e5a0011c80a7b,64d2fd46c836a06233681665,64dc7ba6215c87190a6f0a8e,,,,,,,decisionTrl,resources/DG.BMP,resources/DP.BMP,WildCard_NonEx,-0.204427083,-0.102864583,1,0,0,1.114,optionLeft,45,11460,5,28,0,28,0,1,,,,,,,,,,,,,,,,,,,,,,,,,,,,,,,,,,,,,,,
,,,,,,,,2023-08-16_08h33.36.106,HF_wild_card,2022.2.4,Win32,59.95203837,56235e19ed6e5a0011c80a7b,64d2fd46c836a06233681665,64dc7ba6215c87190a6f0a8e,,,,,,,ctch,resources/DP.BMP,resources/DR.BMP,Door4,0.498697917,-0.11328125,1,0,0,0.764,optionRight,80,11540,5,29,0,29,0,1,,,,,,,,,,,,,,,,,,,,,,,,,,,,,,,,,,,,,,,
,,,,,,,,2023-08-16_08h33.36.106,HF_wild_card,2022.2.4,Win32,59.95203837,56235e19ed6e5a0011c80a7b,64d2fd46c836a06233681665,64dc7ba6215c87190a6f0a8e,,,,,,,sngl,resources/Empty.png,resources/DG.BMP,WildCard_NonEx,0.434895833,-0.08203125,1,0,0,0.597,optionRight,45,11585,5,30,0,30,0,1,,,,,,,,,,,,,,,,,,,,,,,,,,,,,,,,,,,,,,,
,,,,,,,,2023-08-16_08h33.36.106,HF_wild_card,2022.2.4,Win32,59.95203837,56235e19ed6e5a0011c80a7b,64d2fd46c836a06233681665,64dc7ba6215c87190a6f0a8e,,,,,,,sngl,resources/Empty.png,resources/DP.BMP,Door1,0.200520833,-0.102864583,1,0,0,0.595,optionRight,30,11615,5,31,0,31,0,1,,,,,,,,,,,,,,,,,,,,,,,,,,,,,,,,,,,,,,,
,,,,,,,,2023-08-16_08h33.36.106,HF_wild_card,2022.2.4,Win32,59.95203837,56235e19ed6e5a0011c80a7b,64d2fd46c836a06233681665,64dc7ba6215c87190a6f0a8e,,,,,,,sngl,resources/Empty.png,resources/DB.BMP,Door2,0.309895833,-0.057291667,1,0,0,0.562,optionRight,20,11635,5,32,0,32,0,1,,,,,,,,,,,,,,,,,,,,,,,,,,,,,,,,,,,,,,,
,,,,,,,,2023-08-16_08h33.36.106,HF_wild_card,2022.2.4,Win32,59.95203837,56235e19ed6e5a0011c80a7b,64d2fd46c836a06233681665,64dc7ba6215c87190a6f0a8e,,,,,,,decisionTrl,resources/DP.BMP,resources/DB.BMP,Door1,-0.25,-0.053385417,1,0,0,1.099,optionLeft,30,11665,5,33,0,33,0,1,,,,,,,,,,,,,,,,,,,,,,,,,,,,,,,,,,,,,,,
,,,,,,,,2023-08-16_08h33.36.106,HF_wild_card,2022.2.4,Win32,59.95203837,56235e19ed6e5a0011c80a7b,64d2fd46c836a06233681665,64dc7ba6215c87190a6f0a8e,,,,,,,sngl,resources/DP.BMP,resources/Empty.png,Door1,-0.17578125,-0.134114583,1,0,0,0.553,optionLeft,30,11695,5,34,0,34,0,1,,,,,,,,,,,,,,,,,,,,,,,,,,,,,,,,,,,,,,,
,,,,,,,,2023-08-16_08h33.36.106,HF_wild_card,2022.2.4,Win32,59.95203837,56235e19ed6e5a0011c80a7b,64d2fd46c836a06233681665,64dc7ba6215c87190a6f0a8e,,,,,,,decisionTrl,resources/DR.BMP,resources/DG.BMP,Door4,-0.166666667,-0.063802083,1,0,0,1.063,optionLeft,60,11755,5,35,0,35,0,1,,,,,,,,,,,,,,,,,,,,,,,,,,,,,,,,,,,,,,,
,,,,,,,,2023-08-16_08h33.36.106,HF_wild_card,2022.2.4,Win32,59.95203837,56235e19ed6e5a0011c80a7b,64d2fd46c836a06233681665,64dc7ba6215c87190a6f0a8e,,,,,,,sngl,resources/Empty.png,resources/DY.BMP,Door3,0.4453125,-0.1328125,1,0,0,0.528,optionRight,70,11825,5,36,0,36,0,1,,,,,,,,,,,,,,,,,,,,,,,,,,,,,,,,,,,,,,,
,,,,,,,,2023-08-16_08h33.36.106,HF_wild_card,2022.2.4,Win32,59.95203837,56235e19ed6e5a0011c80a7b,64d2fd46c836a06233681665,64dc7ba6215c87190a6f0a8e,,,,,,,decisionTrl,resources/DG.BMP,resources/DB.BMP,WildCard_NonEx,-0.243489583,-0.0859375,1,0,0,0.847,optionLeft,45,11870,5,37,0,37,0,1,,,,,,,,,,,,,,,,,,,,,,,,,,,,,,,,,,,,,,,
,,,,,,,,2023-08-16_08h33.36.106,HF_wild_card,2022.2.4,Win32,59.95203837,56235e19ed6e5a0011c80a7b,64d2fd46c836a06233681665,64dc7ba6215c87190a6f0a8e,,,,,,,decisionTrl,resources/DB.BMP,resources/DP.BMP,Door1,0.3359375,-0.08203125,1,0,0,8.025,optionRight,30,11900,5,38,0,38,0,1,,,,,,,,,,,,,,,,,,,,,,,,,,,,,,,,,,,,,,,
,,,,,,,,2023-08-16_08h33.36.106,HF_wild_card,2022.2.4,Win32,59.95203837,56235e19ed6e5a0011c80a7b,64d2fd46c836a06233681665,64dc7ba6215c87190a6f0a8e,,,,,,,decisionTrl,resources/DB.BMP,resources/DG.BMP,WildCard_NonEx,0.223958333,-0.134114583,1,0,0,0.647,optionRight,45,11945,5,39,0,39,0,1,,,,,,,,,,,,,,,,,,,,,,,,,,,,,,,,,,,,,,,
,,,,,,,,2023-08-16_08h33.36.106,HF_wild_card,2022.2.4,Win32,59.95203837,56235e19ed6e5a0011c80a7b,64d2fd46c836a06233681665,64dc7ba6215c87190a6f0a8e,,,,,,,sngl,resources/DG.BMP,resources/Empty.png,WildCard_NonEx,-0.227864583,-0.118489583,1,0,0,0.563,optionLeft,55,12000,5,40,0,40,0,1,,,,,,,,,,,,,,,,,,,,,,,,,,,,,,,,,,,,,,,
,,,,,,,,2023-08-16_08h33.36.106,HF_wild_card,2022.2.4,Win32,59.95203837,56235e19ed6e5a0011c80a7b,64d2fd46c836a06233681665,64dc7ba6215c87190a6f0a8e,,,,,,,decisionTrl,resources/DY.BMP,resources/DR.BMP,Door3,-0.208333333,-0.100260417,1,0,0,1.267,optionLeft,70,12070,5,41,0,41,0,1,,,,,,,,,,,,,,,,,,,,,,,,,,,,,,,,,,,,,,,
,,,,,,,,2023-08-16_08h33.36.106,HF_wild_card,2022.2.4,Win32,59.95203837,56235e19ed6e5a0011c80a7b,64d2fd46c836a06233681665,64dc7ba6215c87190a6f0a8e,,,,,,,decisionTrl,resources/DP.BMP,resources/DB.BMP,Door1,-0.239583333,-0.1171875,1,0,0,2.151,optionLeft,30,12100,5,42,0,42,0,1,,,,,,,,,,,,,,,,,,,,,,,,,,,,,,,,,,,,,,,
,,,,,,,,2023-08-16_08h33.36.106,HF_wild_card,2022.2.4,Win32,59.95203837,56235e19ed6e5a0011c80a7b,64d2fd46c836a06233681665,64dc7ba6215c87190a6f0a8e,,,,,,,decisionTrl,resources/DR.BMP,resources/DY.BMP,Door4,-0.25,-0.078125,1,0,0,0.614,optionLeft,80,12180,5,43,0,43,0,1,,,,,,,,,,,,,,,,,,,,,,,,,,,,,,,,,,,,,,,
,,,,,,,,2023-08-16_08h33.36.106,HF_wild_card,2022.2.4,Win32,59.95203837,56235e19ed6e5a0011c80a7b,64d2fd46c836a06233681665,64dc7ba6215c87190a6f0a8e,,,,,,,,,,,,,,,,,,,,,,,,,,4,0,4,0,1,,,,,,,,,,,,,,,,,,,,,,,,,,,,,,,,,,
,,,,,,,,2023-08-16_08h33.36.106,HF_wild_card,2022.2.4,Win32,59.95203837,56235e19ed6e5a0011c80a7b,64d2fd46c836a06233681665,64dc7ba6215c87190a6f0a8e,,,,,,,decisionTrl,resources/DP.BMP,resources/DB.BMP,Door1,-0.34765625,-0.126302083,1,0,0,2.828,optionLeft,30,12210,6,0,0,0,0,1,,,,,,,,,,,,,,,,,,,,,,,,,,,,,,,,,,,,,,,
,,,,,,,,2023-08-16_08h33.36.106,HF_wild_card,2022.2.4,Win32,59.95203837,56235e19ed6e5a0011c80a7b,64d2fd46c836a06233681665,64dc7ba6215c87190a6f0a8e,,,,,,,sngl,resources/DB.BMP,resources/Empty.png,Door2,-0.10546875,-0.135416667,1,0,0,0.528,optionLeft,20,12230,6,1,0,1,0,1,,,,,,,,,,,,,,,,,,,,,,,,,,,,,,,,,,,,,,,
,,,,,,,,2023-08-16_08h33.36.106,HF_wild_card,2022.2.4,Win32,59.95203837,56235e19ed6e5a0011c80a7b,64d2fd46c836a06233681665,64dc7ba6215c87190a6f0a8e,,,,,,,decisionTrl,resources/DB.BMP,resources/DG.BMP,WildCard_NonEx,0.446614583,-0.032552083,1,0,0,0.913,optionRight,55,12285,6,2,0,2,0,1,,,,,,,,,,,,,,,,,,,,,,,,,,,,,,,,,,,,,,,
,,,,,,,,2023-08-16_08h33.36.106,HF_wild_card,2022.2.4,Win32,59.95203837,56235e19ed6e5a0011c80a7b,64d2fd46c836a06233681665,64dc7ba6215c87190a6f0a8e,,,,,,,decisionTrl,resources/DP.BMP,resources/DB.BMP,Door1,-0.201822917,-0.04296875,1,0,0,12.928,optionLeft,30,12315,6,3,0,3,0,1,,,,,,,,,,,,,,,,,,,,,,,,,,,,,,,,,,,,,,,
,,,,,,,,2023-08-16_08h33.36.106,HF_wild_card,2022.2.4,Win32,59.95203837,56235e19ed6e5a0011c80a7b,64d2fd46c836a06233681665,64dc7ba6215c87190a6f0a8e,,,,,,,sngl,resources/Empty.png,resources/DP.BMP,Door1,0.256510417,-0.045572917,1,0,0,2.038,optionRight,30,12345,6,4,0,4,0,1,,,,,,,,,,,,,,,,,,,,,,,,,,,,,,,,,,,,,,,
,,,,,,,,2023-08-16_08h33.36.106,HF_wild_card,2022.2.4,Win32,59.95203837,56235e19ed6e5a0011c80a7b,64d2fd46c836a06233681665,64dc7ba6215c87190a6f0a8e,,,,,,,ctch,resources/DR.BMP,resources/DP.BMP,Door4,-0.33203125,-0.075520833,1,0,0,1.554,optionLeft,80,12425,6,5,0,5,0,1,,,,,,,,,,,,,,,,,,,,,,,,,,,,,,,,,,,,,,,
,,,,,,,,2023-08-16_08h33.36.106,HF_wild_card,2022.2.4,Win32,59.95203837,56235e19ed6e5a0011c80a7b,64d2fd46c836a06233681665,64dc7ba6215c87190a6f0a8e,,,,,,,ctch,resources/DR.BMP,resources/DP.BMP,Door4,-0.377604167,-0.118489583,1,0,0,0.863,optionLeft,80,12505,6,6,0,6,0,1,,,,,,,,,,,,,,,,,,,,,,,,,,,,,,,,,,,,,,,
,,,,,,,,2023-08-16_08h33.36.106,HF_wild_card,2022.2.4,Win32,59.95203837,56235e19ed6e5a0011c80a7b,64d2fd46c836a06233681665,64dc7ba6215c87190a6f0a8e,,,,,,,decisionTrl,resources/DR.BMP,resources/DY.BMP,Door4,-0.1796875,-0.127604167,1,0,0,0.546,optionLeft,80,12585,6,7,0,7,0,1,,,,,,,,,,,,,,,,,,,,,,,,,,,,,,,,,,,,,,,
,,,,,,,,2023-08-16_08h33.36.106,HF_wild_card,2022.2.4,Win32,59.95203837,56235e19ed6e5a0011c80a7b,64d2fd46c836a06233681665,64dc7ba6215c87190a6f0a8e,,,,,,,ctch,resources/DB.BMP,resources/DY.BMP,Door3,0.29296875,-0.088541667,1,0,0,1.348,optionRight,70,12655,6,8,0,8,0,1,,,,,,,,,,,,,,,,,,,,,,,,,,,,,,,,,,,,,,,
,,,,,,,,2023-08-16_08h33.36.106,HF_wild_card,2022.2.4,Win32,59.95203837,56235e19ed6e5a0011c80a7b,64d2fd46c836a06233681665,64dc7ba6215c87190a6f0a8e,,,,,,,sngl,resources/Empty.png,resources/DG.BMP,WildCard_NonEx,0.220052083,-0.135416667,1,0,0,0.546,optionRight,45,12700,6,9,0,9,0,1,,,,,,,,,,,,,,,,,,,,,,,,,,,,,,,,,,,,,,,
,,,,,,,,2023-08-16_08h33.36.106,HF_wild_card,2022.2.4,Win32,59.95203837,56235e19ed6e5a0011c80a7b,64d2fd46c836a06233681665,64dc7ba6215c87190a6f0a8e,,,,,,,sngl,resources/DG.BMP,resources/Empty.png,WildCard_NonEx,-0.171875,-0.110677083,1,0,0,0.794,optionLeft,45,12745,6,10,0,10,0,1,,,,,,,,,,,,,,,,,,,,,,,,,,,,,,,,,,,,,,,
,,,,,,,,2023-08-16_08h33.36.106,HF_wild_card,2022.2.4,Win32,59.95203837,56235e19ed6e5a0011c80a7b,64d2fd46c836a06233681665,64dc7ba6215c87190a6f0a8e,,,,,,,sngl,resources/DY.BMP,resources/Empty.png,Door3,-0.192708333,-0.083333333,1,0,0,0.915,optionLeft,70,12815,6,11,0,11,0,1,,,,,,,,,,,,,,,,,,,,,,,,,,,,,,,,,,,,,,,
,,,,,,,,2023-08-16_08h33.36.106,HF_wild_card,2022.2.4,Win32,59.95203837,56235e19ed6e5a0011c80a7b,64d2fd46c836a06233681665,64dc7ba6215c87190a6f0a8e,,,,,,,sngl,resources/DG.BMP,resources/Empty.png,WildCard_NonEx,-0.194010417,-0.11328125,1,0,0,0.514,optionLeft,55,12870,6,12,0,12,0,1,,,,,,,,,,,,,,,,,,,,,,,,,,,,,,,,,,,,,,,
,,,,,,,,2023-08-16_08h33.36.106,HF_wild_card,2022.2.4,Win32,59.95203837,56235e19ed6e5a0011c80a7b,64d2fd46c836a06233681665,64dc7ba6215c87190a6f0a8e,,,,,,,decisionTrl,resources/DR.BMP,resources/DG.BMP,WildCard_NonEx,0.291666667,-0.123697917,1,0,0,0.562,optionRight,55,12925,6,13,0,13,0,1,,,,,,,,,,,,,,,,,,,,,,,,,,,,,,,,,,,,,,,
,,,,,,,,2023-08-16_08h33.36.106,HF_wild_card,2022.2.4,Win32,59.95203837,56235e19ed6e5a0011c80a7b,64d2fd46c836a06233681665,64dc7ba6215c87190a6f0a8e,,,,,,,decisionTrl,resources/DB.BMP,resources/DP.BMP,Door1,0.283854167,-0.122395833,1,0,0,0.981,optionRight,30,12955,6,14,0,14,0,1,,,,,,,,,,,,,,,,,,,,,,,,,,,,,,,,,,,,,,,
,,,,,,,,2023-08-16_08h33.36.106,HF_wild_card,2022.2.4,Win32,59.95203837,56235e19ed6e5a0011c80a7b,64d2fd46c836a06233681665,64dc7ba6215c87190a6f0a8e,,,,,,,decisionTrl,resources/DY.BMP,resources/DR.BMP,Door4,0.274739583,-0.161458333,1,0,0,1.333,optionRight,60,13015,6,15,0,15,0,1,,,,,,,,,,,,,,,,,,,,,,,,,,,,,,,,,,,,,,,
,,,,,,,,2023-08-16_08h33.36.106,HF_wild_card,2022.2.4,Win32,59.95203837,56235e19ed6e5a0011c80a7b,64d2fd46c836a06233681665,64dc7ba6215c87190a6f0a8e,,,,,,,decisionTrl,resources/DR.BMP,resources/DY.BMP,Door3,0.321614583,-0.0859375,1,0,0,1.118,optionRight,70,13085,6,16,0,16,0,1,,,,,,,,,,,,,,,,,,,,,,,,,,,,,,,,,,,,,,,
,,,,,,,,2023-08-16_08h33.36.106,HF_wild_card,2022.2.4,Win32,59.95203837,56235e19ed6e5a0011c80a7b,64d2fd46c836a06233681665,64dc7ba6215c87190a6f0a8e,,,,,,,sngl,resources/DP.BMP,resources/Empty.png,Door1,-0.20703125,-0.09375,1,0,0,0.558,optionLeft,30,13115,6,17,0,17,0,1,,,,,,,,,,,,,,,,,,,,,,,,,,,,,,,,,,,,,,,
,,,,,,,,2023-08-16_08h33.36.106,HF_wild_card,2022.2.4,Win32,59.95203837,56235e19ed6e5a0011c80a7b,64d2fd46c836a06233681665,64dc7ba6215c87190a6f0a8e,,,,,,,decisionTrl,resources/DP.BMP,resources/DB.BMP,Door1,-0.3359375,-0.122395833,1,0,0,0.718,optionLeft,30,13145,6,18,0,18,0,1,,,,,,,,,,,,,,,,,,,,,,,,,,,,,,,,,,,,,,,
,,,,,,,,2023-08-16_08h33.36.106,HF_wild_card,2022.2.4,Win32,59.95203837,56235e19ed6e5a0011c80a7b,64d2fd46c836a06233681665,64dc7ba6215c87190a6f0a8e,,,,,,,sngl,resources/DR.BMP,resources/Empty.png,Door4,-0.23828125,-0.118489583,1,0,0,0.596,optionLeft,60,13205,6,19,0,19,0,1,,,,,,,,,,,,,,,,,,,,,,,,,,,,,,,,,,,,,,,
,,,,,,,,2023-08-16_08h33.36.106,HF_wild_card,2022.2.4,Win32,59.95203837,56235e19ed6e5a0011c80a7b,64d2fd46c836a06233681665,64dc7ba6215c87190a6f0a8e,,,,,,,decisionTrl,resources/DP.BMP,resources/DB.BMP,Door1,-0.221354167,-0.151041667,1,0,0,1.149,optionLeft,30,13235,6,20,0,20,0,1,,,,,,,,,,,,,,,,,,,,,,,,,,,,,,,,,,,,,,,
,,,,,,,,2023-08-16_08h33.36.106,HF_wild_card,2022.2.4,Win32,59.95203837,56235e19ed6e5a0011c80a7b,64d2fd46c836a06233681665,64dc7ba6215c87190a6f0a8e,,,,,,,decisionTrl,resources/DY.BMP,resources/DR.BMP,Door3,-0.171875,-0.076822917,1,0,0,1.365,optionLeft,70,13305,6,21,0,21,0,1,,,,,,,,,,,,,,,,,,,,,,,,,,,,,,,,,,,,,,,
,,,,,,,,2023-08-16_08h33.36.106,HF_wild_card,2022.2.4,Win32,59.95203837,56235e19ed6e5a0011c80a7b,64d2fd46c836a06233681665,64dc7ba6215c87190a6f0a8e,,,,,,,sngl,resources/Empty.png,resources/DG.BMP,WildCard_NonEx,0.30859375,-0.138020833,1,0,0,44.941,optionRight,55,13360,6,22,0,22,0,1,,,,,,,,,,,,,,,,,,,,,,,,,,,,,,,,,,,,,,,
,,,,,,,,2023-08-16_08h33.36.106,HF_wild_card,2022.2.4,Win32,59.95203837,56235e19ed6e5a0011c80a7b,64d2fd46c836a06233681665,64dc7ba6215c87190a6f0a8e,,,,,,,sngl,resources/Empty.png,resources/DR.BMP,Door4,0.3828125,-0.15234375,1,0,0,17.363,optionRight,80,13440,6,23,0,23,0,1,,,,,,,,,,,,,,,,,,,,,,,,,,,,,,,,,,,,,,,
,,,,,,,,2023-08-16_08h33.36.106,HF_wild_card,2022.2.4,Win32,59.95203837,56235e19ed6e5a0011c80a7b,64d2fd46c836a06233681665,64dc7ba6215c87190a6f0a8e,,,,,,,decisionTrl,resources/DG.BMP,resources/DR.BMP,Door4,0.197916667,-0.141927083,1,0,0,1.147,optionRight,60,13500,6,24,0,24,0,1,,,,,,,,,,,,,,,,,,,,,,,,,,,,,,,,,,,,,,,
,,,,,,,,2023-08-16_08h33.36.106,HF_wild_card,2022.2.4,Win32,59.95203837,56235e19ed6e5a0011c80a7b,64d2fd46c836a06233681665,64dc7ba6215c87190a6f0a8e,,,,,,,decisionTrl,resources/DR.BMP,resources/DY.BMP,Door3,0.313802083,-0.12890625,1,0,0,1.097,optionRight,70,13570,6,25,0,25,0,1,,,,,,,,,,,,,,,,,,,,,,,,,,,,,,,,,,,,,,,
,,,,,,,,2023-08-16_08h33.36.106,HF_wild_card,2022.2.4,Win32,59.95203837,56235e19ed6e5a0011c80a7b,64d2fd46c836a06233681665,64dc7ba6215c87190a6f0a8e,,,,,,,decisionTrl,resources/DG.BMP,resources/DB.BMP,WildCard_NonEx,-0.227864583,-0.130208333,1,0,0,0.931,optionLeft,45,13615,6,26,0,26,0,1,,,,,,,,,,,,,,,,,,,,,,,,,,,,,,,,,,,,,,,
,,,,,,,,2023-08-16_08h33.36.106,HF_wild_card,2022.2.4,Win32,59.95203837,56235e19ed6e5a0011c80a7b,64d2fd46c836a06233681665,64dc7ba6215c87190a6f0a8e,,,,,,,decisionTrl,resources/DY.BMP,resources/DR.BMP,Door3,-0.3359375,-0.114583333,1,0,0,1.47,optionLeft,70,13685,6,27,0,27,0,1,,,,,,,,,,,,,,,,,,,,,,,,,,,,,,,,,,,,,,,
,,,,,,,,2023-08-16_08h33.36.106,HF_wild_card,2022.2.4,Win32,59.95203837,56235e19ed6e5a0011c80a7b,64d2fd46c836a06233681665,64dc7ba6215c87190a6f0a8e,,,,,,,decisionTrl,resources/DP.BMP,resources/DG.BMP,WildCard_NonEx,0.345052083,-0.12890625,1,0,0,0.779,optionRight,55,13740,6,28,0,28,0,1,,,,,,,,,,,,,,,,,,,,,,,,,,,,,,,,,,,,,,,
,,,,,,,,2023-08-16_08h33.36.106,HF_wild_card,2022.2.4,Win32,59.95203837,56235e19ed6e5a0011c80a7b,64d2fd46c836a06233681665,64dc7ba6215c87190a6f0a8e,,,,,,,ctch,resources/DY.BMP,resources/DB.BMP,Door3,-0.274739583,-0.123697917,1,0,0,0.765,optionLeft,70,13810,6,29,0,29,0,1,,,,,,,,,,,,,,,,,,,,,,,,,,,,,,,,,,,,,,,
,,,,,,,,2023-08-16_08h33.36.106,HF_wild_card,2022.2.4,Win32,59.95203837,56235e19ed6e5a0011c80a7b,64d2fd46c836a06233681665,64dc7ba6215c87190a6f0a8e,,,,,,,decisionTrl,resources/DB.BMP,resources/DP.BMP,Door1,0.30078125,-0.18359375,1,0,0,1.182,optionRight,30,13840,6,30,0,30,0,1,,,,,,,,,,,,,,,,,,,,,,,,,,,,,,,,,,,,,,,
,,,,,,,,2023-08-16_08h33.36.106,HF_wild_card,2022.2.4,Win32,59.95203837,56235e19ed6e5a0011c80a7b,64d2fd46c836a06233681665,64dc7ba6215c87190a6f0a8e,,,,,,,ctch,resources/DB.BMP,resources/DY.BMP,Door3,0.385416667,-0.108072917,1,0,0,0.654,optionRight,70,13910,6,31,0,31,0,1,,,,,,,,,,,,,,,,,,,,,,,,,,,,,,,,,,,,,,,
,,,,,,,,2023-08-16_08h33.36.106,HF_wild_card,2022.2.4,Win32,59.95203837,56235e19ed6e5a0011c80a7b,64d2fd46c836a06233681665,64dc7ba6215c87190a6f0a8e,,,,,,,ctch,resources/DP.BMP,resources/DR.BMP,Door4,0.295572917,-0.076822917,1,0,0,7.708,optionRight,60,13970,6,32,0,32,0,1,,,,,,,,,,,,,,,,,,,,,,,,,,,,,,,,,,,,,,,
,,,,,,,,2023-08-16_08h33.36.106,HF_wild_card,2022.2.4,Win32,59.95203837,56235e19ed6e5a0011c80a7b,64d2fd46c836a06233681665,64dc7ba6215c87190a6f0a8e,,,,,,,decisionTrl,resources/DB.BMP,resources/DP.BMP,Door1,0.274739583,-0.127604167,1,0,0,0.913,optionRight,30,14000,6,33,0,33,0,1,,,,,,,,,,,,,,,,,,,,,,,,,,,,,,,,,,,,,,,
,,,,,,,,2023-08-16_08h33.36.106,HF_wild_card,2022.2.4,Win32,59.95203837,56235e19ed6e5a0011c80a7b,64d2fd46c836a06233681665,64dc7ba6215c87190a6f0a8e,,,,,,,decisionTrl,resources/DR.BMP,resources/DY.BMP,Door4,-0.255208333,-0.174479167,1,0,0,0.546,optionLeft,80,14080,6,34,0,34,0,1,,,,,,,,,,,,,,,,,,,,,,,,,,,,,,,,,,,,,,,
,,,,,,,,2023-08-16_08h33.36.106,HF_wild_card,2022.2.4,Win32,59.95203837,56235e19ed6e5a0011c80a7b,64d2fd46c836a06233681665,64dc7ba6215c87190a6f0a8e,,,,,,,sngl,resources/Empty.png,resources/DB.BMP,Door2,0.298177083,-0.1171875,1,0,0,0.78,optionRight,40,14120,6,35,0,35,0,1,,,,,,,,,,,,,,,,,,,,,,,,,,,,,,,,,,,,,,,
,,,,,,,,2023-08-16_08h33.36.106,HF_wild_card,2022.2.4,Win32,59.95203837,56235e19ed6e5a0011c80a7b,64d2fd46c836a06233681665,64dc7ba6215c87190a6f0a8e,,,,,,,sngl,resources/Empty.png,resources/DY.BMP,Door3,0.260416667,-0.140625,1,0,0,0.563,optionRight,70,14190,6,36,0,36,0,1,,,,,,,,,,,,,,,,,,,,,,,,,,,,,,,,,,,,,,,
,,,,,,,,2023-08-16_08h33.36.106,HF_wild_card,2022.2.4,Win32,59.95203837,56235e19ed6e5a0011c80a7b,64d2fd46c836a06233681665,64dc7ba6215c87190a6f0a8e,,,,,,,decisionTrl,resources/DY.BMP,resources/DG.BMP,Door3,-0.295572917,-0.12109375,1,0,0,0.529,optionLeft,70,14260,6,37,0,37,0,1,,,,,,,,,,,,,,,,,,,,,,,,,,,,,,,,,,,,,,,
,,,,,,,,2023-08-16_08h33.36.106,HF_wild_card,2022.2.4,Win32,59.95203837,56235e19ed6e5a0011c80a7b,64d2fd46c836a06233681665,64dc7ba6215c87190a6f0a8e,,,,,,,decisionTrl,resources/DY.BMP,resources/DR.BMP,Door3,-0.248697917,-0.135416667,1,0,0,0.848,optionLeft,70,14330,6,38,0,38,0,1,,,,,,,,,,,,,,,,,,,,,,,,,,,,,,,,,,,,,,,
,,,,,,,,2023-08-16_08h33.36.106,HF_wild_card,2022.2.4,Win32,59.95203837,56235e19ed6e5a0011c80a7b,64d2fd46c836a06233681665,64dc7ba6215c87190a6f0a8e,,,,,,,decisionTrl,resources/DG.BMP,resources/DP.BMP,WildCard_NonEx,-0.282552083,-0.178385417,1,0,0,0.997,optionLeft,55,14385,6,39,0,39,0,1,,,,,,,,,,,,,,,,,,,,,,,,,,,,,,,,,,,,,,,
,,,,,,,,2023-08-16_08h33.36.106,HF_wild_card,2022.2.4,Win32,59.95203837,56235e19ed6e5a0011c80a7b,64d2fd46c836a06233681665,64dc7ba6215c87190a6f0a8e,,,,,,,ctch,resources/DY.BMP,resources/DB.BMP,Door3,-0.279947917,-0.143229167,1,0,0,0.648,optionLeft,70,14455,6,40,0,40,0,1,,,,,,,,,,,,,,,,,,,,,,,,,,,,,,,,,,,,,,,
,,,,,,,,2023-08-16_08h33.36.106,HF_wild_card,2022.2.4,Win32,59.95203837,56235e19ed6e5a0011c80a7b,64d2fd46c836a06233681665,64dc7ba6215c87190a6f0a8e,,,,,,,ctch,resources/DP.BMP,resources/DR.BMP,Door4,0.326822917,-0.1328125,1,0,0,0.829,optionRight,80,14535,6,41,0,41,0,1,,,,,,,,,,,,,,,,,,,,,,,,,,,,,,,,,,,,,,,
,,,,,,,,2023-08-16_08h33.36.106,HF_wild_card,2022.2.4,Win32,59.95203837,56235e19ed6e5a0011c80a7b,64d2fd46c836a06233681665,64dc7ba6215c87190a6f0a8e,,,,,,,decisionTrl,resources/DB.BMP,resources/DP.BMP,Door1,0.368489583,-0.126302083,1,0,0,1.419,optionRight,30,14565,6,42,0,42,0,1,,,,,,,,,,,,,,,,,,,,,,,,,,,,,,,,,,,,,,,
,,,,,,,,2023-08-16_08h33.36.106,HF_wild_card,2022.2.4,Win32,59.95203837,56235e19ed6e5a0011c80a7b,64d2fd46c836a06233681665,64dc7ba6215c87190a6f0a8e,,,,,,,decisionTrl,resources/DG.BMP,resources/DY.BMP,WildCard_NonEx,-0.208333333,-0.135416667,1,0,0,0.845,optionLeft,45,14610,6,43,0,43,0,1,,,,,,,,,,,,,,,,,,,,,,,,,,,,,,,,,,,,,,,
,,,,,,,,2023-08-16_08h33.36.106,HF_wild_card,2022.2.4,Win32,59.95203837,56235e19ed6e5a0011c80a7b,64d2fd46c836a06233681665,64dc7ba6215c87190a6f0a8e,,,,,,,,,,,,,,,,,,,,,,,,,,5,0,5,0,1,,,,,,,,,,,,,,,,,,,,,,,,,,,,,,,,,,
,,,,,,,,2023-08-16_08h33.36.106,HF_wild_card,2022.2.4,Win32,59.95203837,56235e19ed6e5a0011c80a7b,64d2fd46c836a06233681665,64dc7ba6215c87190a6f0a8e,,,,,,,decisionTrl,resources/DP.BMP,resources/DB.BMP,Door1,-0.3203125,-0.16015625,1,0,0,1.295,optionLeft,30,14640,7,0,0,0,0,1,,,,,,,,,,,,,,,,,,,,,,,,,,,,,,,,,,,,,,,
,,,,,,,,2023-08-16_08h33.36.106,HF_wild_card,2022.2.4,Win32,59.95203837,56235e19ed6e5a0011c80a7b,64d2fd46c836a06233681665,64dc7ba6215c87190a6f0a8e,,,,,,,ctch,resources/DB.BMP,resources/DY.BMP,Door3,0.380208333,-0.108072917,1,0,0,1.118,optionRight,70,14710,7,1,0,1,0,1,,,,,,,,,,,,,,,,,,,,,,,,,,,,,,,,,,,,,,,
,,,,,,,,2023-08-16_08h33.36.106,HF_wild_card,2022.2.4,Win32,59.95203837,56235e19ed6e5a0011c80a7b,64d2fd46c836a06233681665,64dc7ba6215c87190a6f0a8e,,,,,,,decisionTrl,resources/DY.BMP,resources/DR.BMP,Door4,0.26171875,-0.143229167,1,0,0,1.185,optionRight,60,14770,7,2,0,2,0,1,,,,,,,,,,,,,,,,,,,,,,,,,,,,,,,,,,,,,,,
,,,,,,,,2023-08-16_08h33.36.106,HF_wild_card,2022.2.4,Win32,59.95203837,56235e19ed6e5a0011c80a7b,64d2fd46c836a06233681665,64dc7ba6215c87190a6f0a8e,,,,,,,ctch,resources/DP.BMP,resources/DR.BMP,Door4,0.29296875,-0.106770833,1,0,0,0.984,optionRight,60,14830,7,3,0,3,0,1,,,,,,,,,,,,,,,,,,,,,,,,,,,,,,,,,,,,,,,
,,,,,,,,2023-08-16_08h33.36.106,HF_wild_card,2022.2.4,Win32,59.95203837,56235e19ed6e5a0011c80a7b,64d2fd46c836a06233681665,64dc7ba6215c87190a6f0a8e,,,,,,,decisionTrl,resources/DR.BMP,resources/DY.BMP,Door3,0.240885417,-0.14453125,1,0,0,1.007,optionRight,70,14900,7,4,0,4,0,1,,,,,,,,,,,,,,,,,,,,,,,,,,,,,,,,,,,,,,,
,,,,,,,,2023-08-16_08h33.36.106,HF_wild_card,2022.2.4,Win32,59.95203837,56235e19ed6e5a0011c80a7b,64d2fd46c836a06233681665,64dc7ba6215c87190a6f0a8e,,,,,,,decisionTrl,resources/DR.BMP,resources/DY.BMP,Door3,0.37890625,-0.126302083,1,0,0,0.65,optionRight,70,14970,7,5,0,5,0,1,,,,,,,,,,,,,,,,,,,,,,,,,,,,,,,,,,,,,,,
,,,,,,,,2023-08-16_08h33.36.106,HF_wild_card,2022.2.4,Win32,59.95203837,56235e19ed6e5a0011c80a7b,64d2fd46c836a06233681665,64dc7ba6215c87190a6f0a8e,,,,,,,decisionTrl,resources/DR.BMP,resources/DY.BMP,Door3,0.408854167,-0.147135417,1,0,0,0.649,optionRight,70,15040,7,6,0,6,0,1,,,,,,,,,,,,,,,,,,,,,,,,,,,,,,,,,,,,,,,
,,,,,,,,2023-08-16_08h33.36.106,HF_wild_card,2022.2.4,Win32,59.95203837,56235e19ed6e5a0011c80a7b,64d2fd46c836a06233681665,64dc7ba6215c87190a6f0a8e,,,,,,,decisionTrl,resources/DY.BMP,resources/DR.BMP,Door3,-0.408854167,-0.13671875,1,0,0,1.067,optionLeft,70,15110,7,7,0,7,0,1,,,,,,,,,,,,,,,,,,,,,,,,,,,,,,,,,,,,,,,
,,,,,,,,2023-08-16_08h33.36.106,HF_wild_card,2022.2.4,Win32,59.95203837,56235e19ed6e5a0011c80a7b,64d2fd46c836a06233681665,64dc7ba6215c87190a6f0a8e,,,,,,,decisionTrl,resources/DY.BMP,resources/DR.BMP,Door4,0.317708333,-0.114583333,1,0,0,0.599,optionRight,60,15170,7,8,0,8,0,1,,,,,,,,,,,,,,,,,,,,,,,,,,,,,,,,,,,,,,,
,,,,,,,,2023-08-16_08h33.36.106,HF_wild_card,2022.2.4,Win32,59.95203837,56235e19ed6e5a0011c80a7b,64d2fd46c836a06233681665,64dc7ba6215c87190a6f0a8e,,,,,,,decisionTrl,resources/DB.BMP,resources/DP.BMP,Door1,0.41015625,-0.131510417,1,0,0,1.05,optionRight,30,15200,7,9,0,9,0,1,,,,,,,,,,,,,,,,,,,,,,,,,,,,,,,,,,,,,,,
,,,,,,,,2023-08-16_08h33.36.106,HF_wild_card,2022.2.4,Win32,59.95203837,56235e19ed6e5a0011c80a7b,64d2fd46c836a06233681665,64dc7ba6215c87190a6f0a8e,,,,,,,decisionTrl,resources/DY.BMP,resources/DR.BMP,Door4,0.268229167,-0.131510417,1,0,0,1.368,optionRight,60,15260,7,10,0,10,0,1,,,,,,,,,,,,,,,,,,,,,,,,,,,,,,,,,,,,,,,
,,,,,,,,2023-08-16_08h33.36.106,HF_wild_card,2022.2.4,Win32,59.95203837,56235e19ed6e5a0011c80a7b,64d2fd46c836a06233681665,64dc7ba6215c87190a6f0a8e,,,,,,,ctch,resources/DR.BMP,resources/DP.BMP,Door4,-0.197916667,-0.096354167,1,0,0,0.632,optionLeft,60,15320,7,11,0,11,0,1,,,,,,,,,,,,,,,,,,,,,,,,,,,,,,,,,,,,,,,
,,,,,,,,2023-08-16_08h33.36.106,HF_wild_card,2022.2.4,Win32,59.95203837,56235e19ed6e5a0011c80a7b,64d2fd46c836a06233681665,64dc7ba6215c87190a6f0a8e,,,,,,,ctch,resources/DY.BMP,resources/DB.BMP,Door3,-0.376302083,-0.119791667,1,0,0,0.781,optionLeft,70,15390,7,12,0,12,0,1,,,,,,,,,,,,,,,,,,,,,,,,,,,,,,,,,,,,,,,
,,,,,,,,2023-08-16_08h33.36.106,HF_wild_card,2022.2.4,Win32,59.95203837,56235e19ed6e5a0011c80a7b,64d2fd46c836a06233681665,64dc7ba6215c87190a6f0a8e,,,,,,,decisionTrl,resources/DR.BMP,resources/DY.BMP,Door3,0.29296875,-0.059895833,1,0,0,2.793,optionRight,70,15460,7,13,0,13,0,1,,,,,,,,,,,,,,,,,,,,,,,,,,,,,,,,,,,,,,,
,,,,,,,,2023-08-16_08h33.36.106,HF_wild_card,2022.2.4,Win32,59.95203837,56235e19ed6e5a0011c80a7b,64d2fd46c836a06233681665,64dc7ba6215c87190a6f0a8e,,,,,,,decisionTrl,resources/DR.BMP,resources/DY.BMP,Door4,-0.12890625,-0.1484375,1,0,0,2.141,optionLeft,60,15520,7,14,0,14,0,1,,,,,,,,,,,,,,,,,,,,,,,,,,,,,,,,,,,,,,,
,,,,,,,,2023-08-16_08h33.36.106,HF_wild_card,2022.2.4,Win32,59.95203837,56235e19ed6e5a0011c80a7b,64d2fd46c836a06233681665,64dc7ba6215c87190a6f0a8e,,,,,,,decisionTrl,resources/DB.BMP,resources/DP.BMP,Door1,0.32421875,-0.119791667,1,0,0,1.3,optionRight,30,15550,7,15,0,15,0,1,,,,,,,,,,,,,,,,,,,,,,,,,,,,,,,,,,,,,,,
,,,,,,,,2023-08-16_08h33.36.106,HF_wild_card,2022.2.4,Win32,59.95203837,56235e19ed6e5a0011c80a7b,64d2fd46c836a06233681665,64dc7ba6215c87190a6f0a8e,,,,,,,decisionTrl,resources/DY.BMP,resources/DR.BMP,Door4,0.39453125,-0.05078125,1,0,0,1.193,optionRight,60,15610,7,16,0,16,0,1,,,,,,,,,,,,,,,,,,,,,,,,,,,,,,,,,,,,,,,
,,,,,,,,2023-08-16_08h33.36.106,HF_wild_card,2022.2.4,Win32,59.95203837,56235e19ed6e5a0011c80a7b,64d2fd46c836a06233681665,64dc7ba6215c87190a6f0a8e,,,,,,,decisionTrl,resources/DP.BMP,resources/DB.BMP,Door1,-0.326822917,-0.110677083,1,0,0,0.763,optionLeft,30,15640,7,17,0,17,0,1,,,,,,,,,,,,,,,,,,,,,,,,,,,,,,,,,,,,,,,
,,,,,,,,2023-08-16_08h33.36.106,HF_wild_card,2022.2.4,Win32,59.95203837,56235e19ed6e5a0011c80a7b,64d2fd46c836a06233681665,64dc7ba6215c87190a6f0a8e,,,,,,,ctch,resources/DP.BMP,resources/DR.BMP,Door4,0.221354167,-0.05859375,1,0,0,18.921,optionRight,80,15720,7,18,0,18,0,1,,,,,,,,,,,,,,,,,,,,,,,,,,,,,,,,,,,,,,,
,,,,,,,,2023-08-16_08h33.36.106,HF_wild_card,2022.2.4,Win32,59.95203837,56235e19ed6e5a0011c80a7b,64d2fd46c836a06233681665,64dc7ba6215c87190a6f0a8e,,,,,,,decisionTrl,resources/DP.BMP,resources/DB.BMP,Door1,-0.393229167,-0.130208333,1,0,0,0.684,optionLeft,30,15750,7,19,0,19,0,1,,,,,,,,,,,,,,,,,,,,,,,,,,,,,,,,,,,,,,,
,,,,,,,,2023-08-16_08h33.36.106,HF_wild_card,2022.2.4,Win32,59.95203837,56235e19ed6e5a0011c80a7b,64d2fd46c836a06233681665,64dc7ba6215c87190a6f0a8e,,,,,,,ctch,resources/DB.BMP,resources/DY.BMP,Door3,0.380208333,-0.095052083,1,0,0,0.616,optionRight,70,15820,7,20,0,20,0,1,,,,,,,,,,,,,,,,,,,,,,,,,,,,,,,,,,,,,,,
,,,,,,,,2023-08-16_08h33.36.106,HF_wild_card,2022.2.4,Win32,59.95203837,56235e19ed6e5a0011c80a7b,64d2fd46c836a06233681665,64dc7ba6215c87190a6f0a8e,,,,,,,decisionTrl,resources/DB.BMP,resources/DP.BMP,Door1,0.404947917,-0.110677083,1,0,0,0.967,optionRight,30,15850,7,21,0,21,0,1,,,,,,,,,,,,,,,,,,,,,,,,,,,,,,,,,,,,,,,
,,,,,,,,2023-08-16_08h33.36.106,HF_wild_card,2022.2.4,Win32,59.95203837,56235e19ed6e5a0011c80a7b,64d2fd46c836a06233681665,64dc7ba6215c87190a6f0a8e,,,,,,,decisionTrl,resources/DP.BMP,resources/DB.BMP,Door1,-0.3046875,-0.108072917,1,0,0,5.58,optionLeft,30,15880,7,22,0,22,0,1,,,,,,,,,,,,,,,,,,,,,,,,,,,,,,,,,,,,,,,
,,,,,,,,2023-08-16_08h33.36.106,HF_wild_card,2022.2.4,Win32,59.95203837,56235e19ed6e5a0011c80a7b,64d2fd46c836a06233681665,64dc7ba6215c87190a6f0a8e,,,,,,,decisionTrl,resources/DB.BMP,resources/DP.BMP,Door1,0.337239583,-0.095052083,1,0,0,0.964,optionRight,30,15910,7,23,0,23,0,1,,,,,,,,,,,,,,,,,,,,,,,,,,,,,,,,,,,,,,,
,,,,,,,,2023-08-16_08h33.36.106,HF_wild_card,2022.2.4,Win32,59.95203837,56235e19ed6e5a0011c80a7b,64d2fd46c836a06233681665,64dc7ba6215c87190a6f0a8e,,,,,,,ctch,resources/DY.BMP,resources/DB.BMP,Door3,-0.190104167,-0.145833333,1,0,0,0.631,optionLeft,70,15980,7,24,0,24,0,1,,,,,,,,,,,,,,,,,,,,,,,,,,,,,,,,,,,,,,,
,,,,,,,,2023-08-16_08h33.36.106,HF_wild_card,2022.2.4,Win32,59.95203837,56235e19ed6e5a0011c80a7b,64d2fd46c836a06233681665,64dc7ba6215c87190a6f0a8e,,,,,,,decisionTrl,resources/DB.BMP,resources/DP.BMP,Door1,0.319010417,-0.08984375,1,0,0,0.716,optionRight,30,16010,7,25,0,25,0,1,,,,,,,,,,,,,,,,,,,,,,,,,,,,,,,,,,,,,,,
,,,,,,,,2023-08-16_08h33.36.106,HF_wild_card,2022.2.4,Win32,59.95203837,56235e19ed6e5a0011c80a7b,64d2fd46c836a06233681665,64dc7ba6215c87190a6f0a8e,,,,,,,decisionTrl,resources/DY.BMP,resources/DR.BMP,Door3,-0.221354167,-0.119791667,1,0,0,0.692,optionLeft,70,16080,7,26,0,26,0,1,,,,,,,,,,,,,,,,,,,,,,,,,,,,,,,,,,,,,,,
,,,,,,,,2023-08-16_08h33.36.106,HF_wild_card,2022.2.4,Win32,59.95203837,56235e19ed6e5a0011c80a7b,64d2fd46c836a06233681665,64dc7ba6215c87190a6f0a8e,,,,,,,ctch,resources/DR.BMP,resources/DP.BMP,Door4,-0.235677083,-0.123697917,1,0,0,0.515,optionLeft,80,16160,7,27,0,27,0,1,,,,,,,,,,,,,,,,,,,,,,,,,,,,,,,,,,,,,,,
,,,,,,,,2023-08-16_08h33.36.106,HF_wild_card,2022.2.4,Win32,59.95203837,56235e19ed6e5a0011c80a7b,64d2fd46c836a06233681665,64dc7ba6215c87190a6f0a8e,,,,,,,ctch,resources/DB.BMP,resources/DY.BMP,Door3,0.28515625,-0.115885417,1,0,0,0.561,optionRight,70,16230,7,28,0,28,0,1,,,,,,,,,,,,,,,,,,,,,,,,,,,,,,,,,,,,,,,
,,,,,,,,2023-08-16_08h33.36.106,HF_wild_card,2022.2.4,Win32,59.95203837,56235e19ed6e5a0011c80a7b,64d2fd46c836a06233681665,64dc7ba6215c87190a6f0a8e,,,,,,,ctch,resources/DP.BMP,resources/DR.BMP,Door4,0.32421875,-0.122395833,1,0,0,0.765,optionRight,60,16290,7,29,0,29,0,1,,,,,,,,,,,,,,,,,,,,,,,,,,,,,,,,,,,,,,,
,,,,,,,,2023-08-16_08h33.36.106,HF_wild_card,2022.2.4,Win32,59.95203837,56235e19ed6e5a0011c80a7b,64d2fd46c836a06233681665,64dc7ba6215c87190a6f0a8e,,,,,,,decisionTrl,resources/DR.BMP,resources/DY.BMP,Door4,-0.23828125,-0.067708333,1,0,0,1.169,optionLeft,60,16350,7,30,0,30,0,1,,,,,,,,,,,,,,,,,,,,,,,,,,,,,,,,,,,,,,,
,,,,,,,,2023-08-16_08h33.36.106,HF_wild_card,2022.2.4,Win32,59.95203837,56235e19ed6e5a0011c80a7b,64d2fd46c836a06233681665,64dc7ba6215c87190a6f0a8e,,,,,,,ctch,resources/DY.BMP,resources/DB.BMP,Door3,-0.200520833,-0.0859375,1,0,0,0.649,optionLeft,70,16420,7,31,0,31,0,1,,,,,,,,,,,,,,,,,,,,,,,,,,,,,,,,,,,,,,,
,,,,,,,,2023-08-16_08h33.36.106,HF_wild_card,2022.2.4,Win32,59.95203837,56235e19ed6e5a0011c80a7b,64d2fd46c836a06233681665,64dc7ba6215c87190a6f0a8e,,,,,,,decisionTrl,resources/DP.BMP,resources/DB.BMP,Door1,-0.216145833,-0.161458333,1,0,0,0.816,optionLeft,30,16450,7,32,0,32,0,1,,,,,,,,,,,,,,,,,,,,,,,,,,,,,,,,,,,,,,,
,,,,,,,,2023-08-16_08h33.36.106,HF_wild_card,2022.2.4,Win32,59.95203837,56235e19ed6e5a0011c80a7b,64d2fd46c836a06233681665,64dc7ba6215c87190a6f0a8e,,,,,,,decisionTrl,resources/DB.BMP,resources/DP.BMP,Door1,0.37109375,-0.11328125,1,0,0,0.715,optionRight,30,16480,7,33,0,33,0,1,,,,,,,,,,,,,,,,,,,,,,,,,,,,,,,,,,,,,,,
,,,,,,,,2023-08-16_08h33.36.106,HF_wild_card,2022.2.4,Win32,59.95203837,56235e19ed6e5a0011c80a7b,64d2fd46c836a06233681665,64dc7ba6215c87190a6f0a8e,,,,,,,ctch,resources/DR.BMP,resources/DP.BMP,Door4,-0.256510417,-0.12109375,1,0,0,0.785,optionLeft,60,16540,7,34,0,34,0,1,,,,,,,,,,,,,,,,,,,,,,,,,,,,,,,,,,,,,,,
,,,,,,,,2023-08-16_08h33.36.106,HF_wild_card,2022.2.4,Win32,59.95203837,56235e19ed6e5a0011c80a7b,64d2fd46c836a06233681665,64dc7ba6215c87190a6f0a8e,,,,,,,decisionTrl,resources/DP.BMP,resources/DB.BMP,Door1,-0.2109375,-0.108072917,1,0,0,0.963,optionLeft,30,16570,7,35,0,35,0,1,,,,,,,,,,,,,,,,,,,,,,,,,,,,,,,,,,,,,,,
,,,,,,,,2023-08-16_08h33.36.106,HF_wild_card,2022.2.4,Win32,59.95203837,56235e19ed6e5a0011c80a7b,64d2fd46c836a06233681665,64dc7ba6215c87190a6f0a8e,,,,,,,,,,,,,,,,,,,,,,,,,,6,0,6,0,1,,,,,,,,,,,,,,,,,,,,,,,,,,,,,,,,,,
,,,,,,,,2023-08-16_08h33.36.106,HF_wild_card,2022.2.4,Win32,59.95203837,56235e19ed6e5a0011c80a7b,64d2fd46c836a06233681665,64dc7ba6215c87190a6f0a8e,,,,,,,,,,,,,,,,,,,,,,,,,,,,,,,4,,,,,,,,,,,,,,,,,,,,,,,,,,,,,,,,,
,,,,,,,,2023-08-16_08h33.36.106,HF_wild_card,2022.2.4,Win32,59.95203837,56235e19ed6e5a0011c80a7b,64d2fd46c836a06233681665,64dc7ba6215c87190a6f0a8e,,,,,,,,,,,,,,,,,,,,,,,,,,,,,,,,,,,,,,,,,,,,,,,,,,,,,,,,,,,,,,,,
,,,,,,,,2023-08-16_08h33.36.106,HF_wild_card,2022.2.4,Win32,59.95203837,56235e19ed6e5a0011c80a7b,64d2fd46c836a06233681665,64dc7ba6215c87190a6f0a8e,,,,,,,,,,,,,,,,,,,,,,,,,,,,,,,,70,Door3,resources/DY.BMP,0,0,0,0,1,,,,,,,,,,,,,,,,,,,,,,,,,
,,,,,,,,2023-08-16_08h33.36.106,HF_wild_card,2022.2.4,Win32,59.95203837,56235e19ed6e5a0011c80a7b,64d2fd46c836a06233681665,64dc7ba6215c87190a6f0a8e,,,,,,,,,,,,,,,,,,,,,,,,,,,,,,,,5,WC_extreme,resources/DBN.BMP,1,0,1,0,1,,,,,,,,,,,,,,,,,,,,,,,,,
,,,,,,,,2023-08-16_08h33.36.106,HF_wild_card,2022.2.4,Win32,59.95203837,56235e19ed6e5a0011c80a7b,64d2fd46c836a06233681665,64dc7ba6215c87190a6f0a8e,,,,,,,,,,,,,,,,,,,,,,,,,,,,,,,,55,WC_nonExtreme,resources/DG.BMP,2,0,2,0,1,,,,,,,,,,,,,,,,,,,,,,,,,
,,,,,,,,2023-08-16_08h33.36.106,HF_wild_card,2022.2.4,Win32,59.95203837,56235e19ed6e5a0011c80a7b,64d2fd46c836a06233681665,64dc7ba6215c87190a6f0a8e,,,,,,,,,,,,,,,,,,,,,,,,,,,,,,,,80,Door4,resources/DR.BMP,3,0,3,0,1,,,,,,,,,,,,,,,,,,,,,,,,,
,,,,,,,,2023-08-16_08h33.36.106,HF_wild_card,2022.2.4,Win32,59.95203837,56235e19ed6e5a0011c80a7b,64d2fd46c836a06233681665,64dc7ba6215c87190a6f0a8e,,,,,,,,,,,,,,,,,,,,,,,,,,,,,,,,30,Door1,resources/DP.BMP,4,0,4,0,1,,,,,,,,,,,,,,,,,,,,,,,,,
,,,,,,,,2023-08-16_08h33.36.106,HF_wild_card,2022.2.4,Win32,59.95203837,56235e19ed6e5a0011c80a7b,64d2fd46c836a06233681665,64dc7ba6215c87190a6f0a8e,,,,,,,,,,,,,,,,,,,,,,,,,,,,,,,,30,Door2,resources/DB.BMP,5,0,5,0,1,,,,,,,,,,,,,,,,,,,,,,,,,
,,,,,,,,2023-08-16_08h33.36.106,HF_wild_card,2022.2.4,Win32,59.95203837,56235e19ed6e5a0011c80a7b,64d2fd46c836a06233681665,64dc7ba6215c87190a6f0a8e,,,,,,,,,,,,,,,,,,,,,,,,,,,,,,,,,,,,,,,,,,,,,,,,,,,,,,,,,,,,,,,,
,,,,,,,,2023-08-16_08h33.36.106,HF_wild_card,2022.2.4,Win32,59.95203837,56235e19ed6e5a0011c80a7b,64d2fd46c836a06233681665,64dc7ba6215c87190a6f0a8e,,,,,,,,,,,,,,,,,,,,,,,,,,,,,,,,,,,,,,,,0,0,0,0,1,,,,,,,,,,,,,,,,,,,,
,,,,,,,,2023-08-16_08h33.36.106,HF_wild_card,2022.2.4,Win32,59.95203837,56235e19ed6e5a0011c80a7b,64d2fd46c836a06233681665,64dc7ba6215c87190a6f0a8e,,,,,,,,,,,,,,,,,,,,,,,,,,,,,,,,,,,,,,,,1,0,1,0,1,,,,,,,,,,,,,,,,,,,,
