Condition,Low fixed image (Door1),Low risky image (Door2),High fixed image (Door3),High risky image (Door4),Extreme Wild Card,NonExtreme Wild Card,,date,expName,psychopyVersion,OS,frameRate,PROLIFIC_PID,STUDY_ID,SESSION_ID,mouse_2.x,mouse_2.y,mouse_2.leftButton,mouse_2.midButton,mouse_2.rightButton,mouse_2.clicked_name,Trial Type,Left Option Image,Right Option Image,Chosen Door,mouse.x,mouse.y,mouse.leftButton,mouse.midButton,mouse.rightButton,mouse.time,mouse.clicked_name,Feedback,Cumulative Reward,Block,trial.thisRepN,trial.thisTrialN,trial.thisN,trial.thisIndex,trial.ran,blocks.thisRepN,blocks.thisTrialN,blocks.thisN,blocks.thisIndex,blocks.ran,Money conversion,First Outcome Reported,Shown Door (First Outcome),Displayed Image (First Outcome),outcomes.thisRepN,outcomes.thisTrialN,outcomes.thisN,outcomes.thisIndex,outcomes.ran,judgments.thisRepN,judgments.thisTrialN,judgments.thisN,judgments.thisIndex,judgments.ran,freqMouse.x,freqMouse.y,freqMouse.leftButton,freqMouse.midButton,freqMouse.rightButton,freqMouse.clicked_name,trials.thisRepN,trials.thisTrialN,trials.thisN,trials.thisIndex,trials.ran,FQJ for first outcome,FQJ for second outcome,Shown Door,Displayed Image,judgBlock.thisRepN,judgBlock.thisTrialN,judgBlock.thisN,judgBlock.thisIndex,judgBlock.ran
0,resources/DY.BMP,resources/DBN.BMP,resources/DP.BMP,resources/DB.BMP,resources/DG.BMP,resources/DR.BMP,,2023-08-16_08h22.12.698,HF_wild_card,2022.2.4,MacIntel,62.5,5a9bc842873cda0001dcb644,64d2fd46c836a06233681665,64dc790d13d7dc68afa1d3da,,,,,,,,,,,,,,,,,,,,,,,,,,,,,,,,,,,,,,,,,,,,,,,,,,,,,,,,,,,,,,,,
,,,,,,,,2023-08-16_08h22.12.698,HF_wild_card,2022.2.4,MacIntel,62.5,5a9bc842873cda0001dcb644,64d2fd46c836a06233681665,64dc790d13d7dc68afa1d3da,0.01,-0.417777778,1,0,0,agree,,,,,,,,,,,,,,,,,,,,,,,,,,,,,,,,,,,,,,,,,,,,,,,,,,,,,,,,,,
,,,,,,,,2023-08-16_08h22.12.698,HF_wild_card,2022.2.4,MacIntel,62.5,5a9bc842873cda0001dcb644,64d2fd46c836a06233681665,64dc790d13d7dc68afa1d3da,,,,,,,,,,,,,,,,,,,,,,,,,,,,,,,,,,,,,,,,,,,,,,,,,,,,,,,,,,,,,,,,
,,,,,,,,2023-08-16_08h22.12.698,HF_wild_card,2022.2.4,MacIntel,62.5,5a9bc842873cda0001dcb644,64d2fd46c836a06233681665,64dc790d13d7dc68afa1d3da,,,,,,,ctch,resources/DY.BMP,resources/DB.BMP,Door1,-0.265555556,-0.104444444,1,0,0,1.553,optionLeft,30,30,1,0,0,0,0,1,,,,,,,,,,,,,,,,,,,,,,,,,,,,,,,,,,,,,,,
,,,,,,,,2023-08-16_08h22.12.698,HF_wild_card,2022.2.4,MacIntel,62.5,5a9bc842873cda0001dcb644,64d2fd46c836a06233681665,64dc790d13d7dc68afa1d3da,,,,,,,sngl,resources/DY.BMP,resources/Empty.png,Door1,-0.011111111,-0.001111111,1,0,0,1.375,optionLeft,30,60,1,1,0,1,0,1,,,,,,,,,,,,,,,,,,,,,,,,,,,,,,,,,,,,,,,
,,,,,,,,2023-08-16_08h22.12.698,HF_wild_card,2022.2.4,MacIntel,62.5,5a9bc842873cda0001dcb644,64d2fd46c836a06233681665,64dc790d13d7dc68afa1d3da,,,,,,,decisionTrl,resources/DY.BMP,resources/DG.BMP,WildCard_Ex,0.297777778,-0.024444444,1,0,0,2.76,optionRight,5,65,1,2,0,2,0,1,,,,,,,,,,,,,,,,,,,,,,,,,,,,,,,,,,,,,,,
,,,,,,,,2023-08-16_08h22.12.698,HF_wild_card,2022.2.4,MacIntel,62.5,5a9bc842873cda0001dcb644,64d2fd46c836a06233681665,64dc790d13d7dc68afa1d3da,,,,,,,decisionTrl,resources/DB.BMP,resources/DG.BMP,Door4,-0.267777778,-0.03,1,0,0,1.378,optionLeft,80,145,1,3,0,3,0,1,,,,,,,,,,,,,,,,,,,,,,,,,,,,,,,,,,,,,,,
,,,,,,,,2023-08-16_08h22.12.698,HF_wild_card,2022.2.4,MacIntel,62.5,5a9bc842873cda0001dcb644,64d2fd46c836a06233681665,64dc790d13d7dc68afa1d3da,,,,,,,sngl,resources/DBN.BMP,resources/Empty.png,Door2,-0.278888889,-0.037777778,1,0,0,0.976,optionLeft,40,185,1,4,0,4,0,1,,,,,,,,,,,,,,,,,,,,,,,,,,,,,,,,,,,,,,,
,,,,,,,,2023-08-16_08h22.12.698,HF_wild_card,2022.2.4,MacIntel,62.5,5a9bc842873cda0001dcb644,64d2fd46c836a06233681665,64dc790d13d7dc68afa1d3da,,,,,,,decisionTrl,resources/DBN.BMP,resources/DG.BMP,Door2,-0.344444444,-0.045555556,1,0,0,1.476,optionLeft,20,205,1,5,0,5,0,1,,,,,,,,,,,,,,,,,,,,,,,,,,,,,,,,,,,,,,,
,,,,,,,,2023-08-16_08h22.12.698,HF_wild_card,2022.2.4,MacIntel,62.5,5a9bc842873cda0001dcb644,64d2fd46c836a06233681665,64dc790d13d7dc68afa1d3da,,,,,,,ctch,resources/DB.BMP,resources/DY.BMP,Door4,-0.3,0.023333333,1,0,0,4.26,optionLeft,80,285,1,6,0,6,0,1,,,,,,,,,,,,,,,,,,,,,,,,,,,,,,,,,,,,,,,
,,,,,,,,2023-08-16_08h22.12.698,HF_wild_card,2022.2.4,MacIntel,62.5,5a9bc842873cda0001dcb644,64d2fd46c836a06233681665,64dc790d13d7dc68afa1d3da,,,,,,,decisionTrl,resources/DP.BMP,resources/DB.BMP,Door4,0.256666667,0.076666667,1,0,0,1.126,optionRight,80,365,1,7,0,7,0,1,,,,,,,,,,,,,,,,,,,,,,,,,,,,,,,,,,,,,,,
,,,,,,,,2023-08-16_08h22.12.698,HF_wild_card,2022.2.4,MacIntel,62.5,5a9bc842873cda0001dcb644,64d2fd46c836a06233681665,64dc790d13d7dc68afa1d3da,,,,,,,sngl,resources/Empty.png,resources/DY.BMP,Door1,0.302222222,0.048888889,1,0,0,1.01,optionRight,30,395,1,8,0,8,0,1,,,,,,,,,,,,,,,,,,,,,,,,,,,,,,,,,,,,,,,
,,,,,,,,2023-08-16_08h22.12.698,HF_wild_card,2022.2.4,MacIntel,62.5,5a9bc842873cda0001dcb644,64d2fd46c836a06233681665,64dc790d13d7dc68afa1d3da,,,,,,,decisionTrl,resources/DB.BMP,resources/DP.BMP,Door3,0.392222222,0.035555556,1,0,0,1.676,optionRight,70,465,1,9,0,9,0,1,,,,,,,,,,,,,,,,,,,,,,,,,,,,,,,,,,,,,,,
,,,,,,,,2023-08-16_08h22.12.698,HF_wild_card,2022.2.4,MacIntel,62.5,5a9bc842873cda0001dcb644,64d2fd46c836a06233681665,64dc790d13d7dc68afa1d3da,,,,,,,ctch,resources/DB.BMP,resources/DY.BMP,Door4,-0.287777778,0.033333333,1,0,0,0.894,optionLeft,60,525,1,10,0,10,0,1,,,,,,,,,,,,,,,,,,,,,,,,,,,,,,,,,,,,,,,
,,,,,,,,2023-08-16_08h22.12.698,HF_wild_card,2022.2.4,MacIntel,62.5,5a9bc842873cda0001dcb644,64d2fd46c836a06233681665,64dc790d13d7dc68afa1d3da,,,,,,,decisionTrl,resources/DG.BMP,resources/DP.BMP,Door3,0.28,0.007777778,1,0,0,1.892,optionRight,70,595,1,11,0,11,0,1,,,,,,,,,,,,,,,,,,,,,,,,,,,,,,,,,,,,,,,
,,,,,,,,2023-08-16_08h22.12.698,HF_wild_card,2022.2.4,MacIntel,62.5,5a9bc842873cda0001dcb644,64d2fd46c836a06233681665,64dc790d13d7dc68afa1d3da,,,,,,,decisionTrl,resources/DBN.BMP,resources/DY.BMP,Door2,-0.351111111,-0.014444444,1,0,0,2.211,optionLeft,20,615,1,12,0,12,0,1,,,,,,,,,,,,,,,,,,,,,,,,,,,,,,,,,,,,,,,
,,,,,,,,2023-08-16_08h22.12.698,HF_wild_card,2022.2.4,MacIntel,62.5,5a9bc842873cda0001dcb644,64d2fd46c836a06233681665,64dc790d13d7dc68afa1d3da,,,,,,,ctch,resources/DBN.BMP,resources/DP.BMP,Door3,0.271111111,0.051111111,1,0,0,1.143,optionRight,70,685,1,13,0,13,0,1,,,,,,,,,,,,,,,,,,,,,,,,,,,,,,,,,,,,,,,
,,,,,,,,2023-08-16_08h22.12.698,HF_wild_card,2022.2.4,MacIntel,62.5,5a9bc842873cda0001dcb644,64d2fd46c836a06233681665,64dc790d13d7dc68afa1d3da,,,,,,,decisionTrl,resources/DBN.BMP,resources/DY.BMP,Door2,-0.196666667,-0.004444444,1,0,0,1.425,optionLeft,40,725,1,14,0,14,0,1,,,,,,,,,,,,,,,,,,,,,,,,,,,,,,,,,,,,,,,
,,,,,,,,2023-08-16_08h22.12.698,HF_wild_card,2022.2.4,MacIntel,62.5,5a9bc842873cda0001dcb644,64d2fd46c836a06233681665,64dc790d13d7dc68afa1d3da,,,,,,,ctch,resources/DP.BMP,resources/DBN.BMP,Door3,-0.282222222,-0.016666667,1,0,0,1.459,optionLeft,70,795,1,15,0,15,0,1,,,,,,,,,,,,,,,,,,,,,,,,,,,,,,,,,,,,,,,
,,,,,,,,2023-08-16_08h22.12.698,HF_wild_card,2022.2.4,MacIntel,62.5,5a9bc842873cda0001dcb644,64d2fd46c836a06233681665,64dc790d13d7dc68afa1d3da,,,,,,,ctch,resources/DY.BMP,resources/DB.BMP,Door4,0.257777778,0.064444444,1,0,0,1.809,optionRight,60,855,1,16,0,16,0,1,,,,,,,,,,,,,,,,,,,,,,,,,,,,,,,,,,,,,,,
,,,,,,,,2023-08-16_08h22.12.698,HF_wild_card,2022.2.4,MacIntel,62.5,5a9bc842873cda0001dcb644,64d2fd46c836a06233681665,64dc790d13d7dc68afa1d3da,,,,,,,decisionTrl,resources/DB.BMP,resources/DP.BMP,Door4,-0.26,-0.006666667,1,0,0,1.495,optionLeft,80,935,1,17,0,17,0,1,,,,,,,,,,,,,,,,,,,,,,,,,,,,,,,,,,,,,,,
,,,,,,,,2023-08-16_08h22.12.698,HF_wild_card,2022.2.4,MacIntel,62.5,5a9bc842873cda0001dcb644,64d2fd46c836a06233681665,64dc790d13d7dc68afa1d3da,,,,,,,ctch,resources/DP.BMP,resources/DBN.BMP,Door3,-0.228888889,0.012222222,1,0,0,1.159,optionLeft,70,1005,1,18,0,18,0,1,,,,,,,,,,,,,,,,,,,,,,,,,,,,,,,,,,,,,,,
,,,,,,,,2023-08-16_08h22.12.698,HF_wild_card,2022.2.4,MacIntel,62.5,5a9bc842873cda0001dcb644,64d2fd46c836a06233681665,64dc790d13d7dc68afa1d3da,,,,,,,decisionTrl,resources/DP.BMP,resources/DB.BMP,Door4,0.26,0.056666667,1,0,0,0.992,optionRight,60,1065,1,19,0,19,0,1,,,,,,,,,,,,,,,,,,,,,,,,,,,,,,,,,,,,,,,
,,,,,,,,2023-08-16_08h22.12.698,HF_wild_card,2022.2.4,MacIntel,62.5,5a9bc842873cda0001dcb644,64d2fd46c836a06233681665,64dc790d13d7dc68afa1d3da,,,,,,,decisionTrl,resources/DP.BMP,resources/DB.BMP,Door4,0.284444444,0.057777778,1,0,0,1.276,optionRight,60,1125,1,20,0,20,0,1,,,,,,,,,,,,,,,,,,,,,,,,,,,,,,,,,,,,,,,
,,,,,,,,2023-08-16_08h22.12.698,HF_wild_card,2022.2.4,MacIntel,62.5,5a9bc842873cda0001dcb644,64d2fd46c836a06233681665,64dc790d13d7dc68afa1d3da,,,,,,,sngl,resources/Empty.png,resources/DG.BMP,WildCard_Ex,0.284444444,0.048888889,1,0,0,0.924,optionRight,95,1220,1,21,0,21,0,1,,,,,,,,,,,,,,,,,,,,,,,,,,,,,,,,,,,,,,,
,,,,,,,,2023-08-16_08h22.12.698,HF_wild_card,2022.2.4,MacIntel,62.5,5a9bc842873cda0001dcb644,64d2fd46c836a06233681665,64dc790d13d7dc68afa1d3da,,,,,,,decisionTrl,resources/DY.BMP,resources/DBN.BMP,Door1,-0.226666667,-0.008888889,1,0,0,1.177,optionLeft,30,1250,1,22,0,22,0,1,,,,,,,,,,,,,,,,,,,,,,,,,,,,,,,,,,,,,,,
,,,,,,,,2023-08-16_08h22.12.698,HF_wild_card,2022.2.4,MacIntel,62.5,5a9bc842873cda0001dcb644,64d2fd46c836a06233681665,64dc790d13d7dc68afa1d3da,,,,,,,decisionTrl,resources/DG.BMP,resources/DY.BMP,WildCard_Ex,-0.18,0.001111111,1,0,0,0.779,optionLeft,5,1255,1,23,0,23,0,1,,,,,,,,,,,,,,,,,,,,,,,,,,,,,,,,,,,,,,,
,,,,,,,,2023-08-16_08h22.12.698,HF_wild_card,2022.2.4,MacIntel,62.5,5a9bc842873cda0001dcb644,64d2fd46c836a06233681665,64dc790d13d7dc68afa1d3da,,,,,,,decisionTrl,resources/DP.BMP,resources/DB.BMP,Door4,0.291111111,0.044444444,1,0,0,0.976,optionRight,60,1315,1,24,0,24,0,1,,,,,,,,,,,,,,,,,,,,,,,,,,,,,,,,,,,,,,,
,,,,,,,,2023-08-16_08h22.12.698,HF_wild_card,2022.2.4,MacIntel,62.5,5a9bc842873cda0001dcb644,64d2fd46c836a06233681665,64dc790d13d7dc68afa1d3da,,,,,,,sngl,resources/Empty.png,resources/DP.BMP,Door3,0.321111111,0.028888889,1,0,0,0.66,optionRight,70,1385,1,25,0,25,0,1,,,,,,,,,,,,,,,,,,,,,,,,,,,,,,,,,,,,,,,
,,,,,,,,2023-08-16_08h22.12.698,HF_wild_card,2022.2.4,MacIntel,62.5,5a9bc842873cda0001dcb644,64d2fd46c836a06233681665,64dc790d13d7dc68afa1d3da,,,,,,,decisionTrl,resources/DB.BMP,resources/DP.BMP,Door3,0.275555556,-0.007777778,1,0,0,0.776,optionRight,70,1455,1,26,0,26,0,1,,,,,,,,,,,,,,,,,,,,,,,,,,,,,,,,,,,,,,,
,,,,,,,,2023-08-16_08h22.12.698,HF_wild_card,2022.2.4,MacIntel,62.5,5a9bc842873cda0001dcb644,64d2fd46c836a06233681665,64dc790d13d7dc68afa1d3da,,,,,,,sngl,resources/Empty.png,resources/DBN.BMP,Door2,0.222222222,0.012222222,1,0,0,0.776,optionRight,20,1475,1,27,0,27,0,1,,,,,,,,,,,,,,,,,,,,,,,,,,,,,,,,,,,,,,,
,,,,,,,,2023-08-16_08h22.12.698,HF_wild_card,2022.2.4,MacIntel,62.5,5a9bc842873cda0001dcb644,64d2fd46c836a06233681665,64dc790d13d7dc68afa1d3da,,,,,,,decisionTrl,resources/DY.BMP,resources/DBN.BMP,Door2,0.33,0.008888889,1,0,0,1.462,optionRight,20,1495,1,28,0,28,0,1,,,,,,,,,,,,,,,,,,,,,,,,,,,,,,,,,,,,,,,
,,,,,,,,2023-08-16_08h22.12.698,HF_wild_card,2022.2.4,MacIntel,62.5,5a9bc842873cda0001dcb644,64d2fd46c836a06233681665,64dc790d13d7dc68afa1d3da,,,,,,,decisionTrl,resources/DG.BMP,resources/DBN.BMP,WildCard_Ex,-0.162222222,0.02,1,0,0,0.744,optionLeft,95,1590,1,29,0,29,0,1,,,,,,,,,,,,,,,,,,,,,,,,,,,,,,,,,,,,,,,
,,,,,,,,2023-08-16_08h22.12.698,HF_wild_card,2022.2.4,MacIntel,62.5,5a9bc842873cda0001dcb644,64d2fd46c836a06233681665,64dc790d13d7dc68afa1d3da,,,,,,,sngl,resources/Empty.png,resources/DB.BMP,Door4,0.261111111,0.017777778,1,0,0,0.727,optionRight,60,1650,1,30,0,30,0,1,,,,,,,,,,,,,,,,,,,,,,,,,,,,,,,,,,,,,,,
,,,,,,,,2023-08-16_08h22.12.698,HF_wild_card,2022.2.4,MacIntel,62.5,5a9bc842873cda0001dcb644,64d2fd46c836a06233681665,64dc790d13d7dc68afa1d3da,,,,,,,sngl,resources/DG.BMP,resources/Empty.png,WildCard_Ex,-0.211111111,-0.012222222,1,0,0,0.676,optionLeft,5,1655,1,31,0,31,0,1,,,,,,,,,,,,,,,,,,,,,,,,,,,,,,,,,,,,,,,
,,,,,,,,2023-08-16_08h22.12.698,HF_wild_card,2022.2.4,MacIntel,62.5,5a9bc842873cda0001dcb644,64d2fd46c836a06233681665,64dc790d13d7dc68afa1d3da,,,,,,,sngl,resources/DB.BMP,resources/Empty.png,Door4,-0.201111111,-0.004444444,1,0,0,0.677,optionLeft,80,1735,1,32,0,32,0,1,,,,,,,,,,,,,,,,,,,,,,,,,,,,,,,,,,,,,,,
,,,,,,,,2023-08-16_08h22.12.698,HF_wild_card,2022.2.4,MacIntel,62.5,5a9bc842873cda0001dcb644,64d2fd46c836a06233681665,64dc790d13d7dc68afa1d3da,,,,,,,sngl,resources/DP.BMP,resources/Empty.png,Door3,-0.203333333,-0.03,1,0,0,0.595,optionLeft,70,1805,1,33,0,33,0,1,,,,,,,,,,,,,,,,,,,,,,,,,,,,,,,,,,,,,,,
,,,,,,,,2023-08-16_08h22.12.698,HF_wild_card,2022.2.4,MacIntel,62.5,5a9bc842873cda0001dcb644,64d2fd46c836a06233681665,64dc790d13d7dc68afa1d3da,,,,,,,ctch,resources/DBN.BMP,resources/DP.BMP,Door3,0.363333333,0.026666667,1,0,0,1.06,optionRight,70,1875,1,34,0,34,0,1,,,,,,,,,,,,,,,,,,,,,,,,,,,,,,,,,,,,,,,
,,,,,,,,2023-08-16_08h22.12.698,HF_wild_card,2022.2.4,MacIntel,62.5,5a9bc842873cda0001dcb644,64d2fd46c836a06233681665,64dc790d13d7dc68afa1d3da,,,,,,,decisionTrl,resources/DB.BMP,resources/DP.BMP,Door4,-0.223333333,-0.038888889,1,0,0,1.177,optionLeft,80,1955,1,35,0,35,0,1,,,,,,,,,,,,,,,,,,,,,,,,,,,,,,,,,,,,,,,
,,,,,,,,2023-08-16_08h22.12.698,HF_wild_card,2022.2.4,MacIntel,62.5,5a9bc842873cda0001dcb644,64d2fd46c836a06233681665,64dc790d13d7dc68afa1d3da,,,,,,,decisionTrl,resources/DG.BMP,resources/DB.BMP,WildCard_Ex,-0.185555556,-0.03,1,0,0,0.929,optionLeft,95,2050,1,36,0,36,0,1,,,,,,,,,,,,,,,,,,,,,,,,,,,,,,,,,,,,,,,
,,,,,,,,2023-08-16_08h22.12.698,HF_wild_card,2022.2.4,MacIntel,62.5,5a9bc842873cda0001dcb644,64d2fd46c836a06233681665,64dc790d13d7dc68afa1d3da,,,,,,,sngl,resources/DG.BMP,resources/Empty.png,WildCard_Ex,-0.232222222,0.053333333,1,0,0,1.394,optionLeft,95,2145,1,37,0,37,0,1,,,,,,,,,,,,,,,,,,,,,,,,,,,,,,,,,,,,,,,
,,,,,,,,2023-08-16_08h22.12.698,HF_wild_card,2022.2.4,MacIntel,62.5,5a9bc842873cda0001dcb644,64d2fd46c836a06233681665,64dc790d13d7dc68afa1d3da,,,,,,,decisionTrl,resources/DBN.BMP,resources/DY.BMP,Door1,0.317777778,0.085555556,1,0,0,2.376,optionRight,30,2175,1,38,0,38,0,1,,,,,,,,,,,,,,,,,,,,,,,,,,,,,,,,,,,,,,,
,,,,,,,,2023-08-16_08h22.12.698,HF_wild_card,2022.2.4,MacIntel,62.5,5a9bc842873cda0001dcb644,64d2fd46c836a06233681665,64dc790d13d7dc68afa1d3da,,,,,,,decisionTrl,resources/DY.BMP,resources/DBN.BMP,Door1,-0.25,0.045555556,1,0,0,1.442,optionLeft,30,2205,1,39,0,39,0,1,,,,,,,,,,,,,,,,,,,,,,,,,,,,,,,,,,,,,,,
,,,,,,,,2023-08-16_08h22.12.698,HF_wild_card,2022.2.4,MacIntel,62.5,5a9bc842873cda0001dcb644,64d2fd46c836a06233681665,64dc790d13d7dc68afa1d3da,,,,,,,decisionTrl,resources/DBN.BMP,resources/DY.BMP,Door2,-0.205555556,0.026666667,1,0,0,0.826,optionLeft,20,2225,1,40,0,40,0,1,,,,,,,,,,,,,,,,,,,,,,,,,,,,,,,,,,,,,,,
,,,,,,,,2023-08-16_08h22.12.698,HF_wild_card,2022.2.4,MacIntel,62.5,5a9bc842873cda0001dcb644,64d2fd46c836a06233681665,64dc790d13d7dc68afa1d3da,,,,,,,decisionTrl,resources/DY.BMP,resources/DBN.BMP,Door2,0.171111111,0.03,1,0,0,0.793,optionRight,20,2245,1,41,0,41,0,1,,,,,,,,,,,,,,,,,,,,,,,,,,,,,,,,,,,,,,,
,,,,,,,,2023-08-16_08h22.12.698,HF_wild_card,2022.2.4,MacIntel,62.5,5a9bc842873cda0001dcb644,64d2fd46c836a06233681665,64dc790d13d7dc68afa1d3da,,,,,,,sngl,resources/Empty.png,resources/DG.BMP,WildCard_Ex,0.26,-0.032222222,1,0,0,0.827,optionRight,5,2250,1,42,0,42,0,1,,,,,,,,,,,,,,,,,,,,,,,,,,,,,,,,,,,,,,,
,,,,,,,,2023-08-16_08h22.12.698,HF_wild_card,2022.2.4,MacIntel,62.5,5a9bc842873cda0001dcb644,64d2fd46c836a06233681665,64dc790d13d7dc68afa1d3da,,,,,,,decisionTrl,resources/DP.BMP,resources/DG.BMP,Door3,-0.128888889,-0.027777778,1,0,0,1.427,optionLeft,70,2320,1,43,0,43,0,1,,,,,,,,,,,,,,,,,,,,,,,,,,,,,,,,,,,,,,,
,,,,,,,,2023-08-16_08h22.12.698,HF_wild_card,2022.2.4,MacIntel,62.5,5a9bc842873cda0001dcb644,64d2fd46c836a06233681665,64dc790d13d7dc68afa1d3da,,,,,,,,,,,,,,,,,,,,,,,,,,0,0,0,0,1,,,,,,,,,,,,,,,,,,,,,,,,,,,,,,,,,,
,,,,,,,,2023-08-16_08h22.12.698,HF_wild_card,2022.2.4,MacIntel,62.5,5a9bc842873cda0001dcb644,64d2fd46c836a06233681665,64dc790d13d7dc68afa1d3da,,,,,,,ctch,resources/DB.BMP,resources/DY.BMP,Door4,-0.236666667,-0.146666667,1,0,0,2.022,optionLeft,60,2380,2,0,0,0,0,1,,,,,,,,,,,,,,,,,,,,,,,,,,,,,,,,,,,,,,,
,,,,,,,,2023-08-16_08h22.12.698,HF_wild_card,2022.2.4,MacIntel,62.5,5a9bc842873cda0001dcb644,64d2fd46c836a06233681665,64dc790d13d7dc68afa1d3da,,,,,,,sngl,resources/DBN.BMP,resources/Empty.png,Door2,-0.221111111,-0.033333333,1,0,0,0.709,optionLeft,20,2400,2,1,0,1,0,1,,,,,,,,,,,,,,,,,,,,,,,,,,,,,,,,,,,,,,,
,,,,,,,,2023-08-16_08h22.12.698,HF_wild_card,2022.2.4,MacIntel,62.5,5a9bc842873cda0001dcb644,64d2fd46c836a06233681665,64dc790d13d7dc68afa1d3da,,,,,,,sngl,resources/DG.BMP,resources/Empty.png,WildCard_Ex,-0.232222222,0.003333333,1,0,0,0.61,optionLeft,5,2405,2,2,0,2,0,1,,,,,,,,,,,,,,,,,,,,,,,,,,,,,,,,,,,,,,,
,,,,,,,,2023-08-16_08h22.12.698,HF_wild_card,2022.2.4,MacIntel,62.5,5a9bc842873cda0001dcb644,64d2fd46c836a06233681665,64dc790d13d7dc68afa1d3da,,,,,,,decisionTrl,resources/DBN.BMP,resources/DY.BMP,Door1,0.212222222,-0.046666667,1,0,0,0.842,optionRight,30,2435,2,3,0,3,0,1,,,,,,,,,,,,,,,,,,,,,,,,,,,,,,,,,,,,,,,
,,,,,,,,2023-08-16_08h22.12.698,HF_wild_card,2022.2.4,MacIntel,62.5,5a9bc842873cda0001dcb644,64d2fd46c836a06233681665,64dc790d13d7dc68afa1d3da,,,,,,,decisionTrl,resources/DY.BMP,resources/DBN.BMP,Door2,0.226666667,0.014444444,1,0,0,0.961,optionRight,20,2455,2,4,0,4,0,1,,,,,,,,,,,,,,,,,,,,,,,,,,,,,,,,,,,,,,,
,,,,,,,,2023-08-16_08h22.12.698,HF_wild_card,2022.2.4,MacIntel,62.5,5a9bc842873cda0001dcb644,64d2fd46c836a06233681665,64dc790d13d7dc68afa1d3da,,,,,,,sngl,resources/Empty.png,resources/DBN.BMP,Door2,0.216666667,-0.001111111,1,0,0,0.646,optionRight,40,2495,2,5,0,5,0,1,,,,,,,,,,,,,,,,,,,,,,,,,,,,,,,,,,,,,,,
,,,,,,,,2023-08-16_08h22.12.698,HF_wild_card,2022.2.4,MacIntel,62.5,5a9bc842873cda0001dcb644,64d2fd46c836a06233681665,64dc790d13d7dc68afa1d3da,,,,,,,sngl,resources/Empty.png,resources/DY.BMP,Door1,0.253333333,0.013333333,1,0,0,0.594,optionRight,30,2525,2,6,0,6,0,1,,,,,,,,,,,,,,,,,,,,,,,,,,,,,,,,,,,,,,,
,,,,,,,,2023-08-16_08h22.12.698,HF_wild_card,2022.2.4,MacIntel,62.5,5a9bc842873cda0001dcb644,64d2fd46c836a06233681665,64dc790d13d7dc68afa1d3da,,,,,,,decisionTrl,resources/DBN.BMP,resources/DY.BMP,Door2,-0.22,0.008888889,1,0,0,0.643,optionLeft,40,2565,2,7,0,7,0,1,,,,,,,,,,,,,,,,,,,,,,,,,,,,,,,,,,,,,,,
,,,,,,,,2023-08-16_08h22.12.698,HF_wild_card,2022.2.4,MacIntel,62.5,5a9bc842873cda0001dcb644,64d2fd46c836a06233681665,64dc790d13d7dc68afa1d3da,,,,,,,decisionTrl,resources/DB.BMP,resources/DG.BMP,Door4,-0.253333333,-0.018888889,1,0,0,0.628,optionLeft,80,2645,2,8,0,8,0,1,,,,,,,,,,,,,,,,,,,,,,,,,,,,,,,,,,,,,,,
,,,,,,,,2023-08-16_08h22.12.698,HF_wild_card,2022.2.4,MacIntel,62.5,5a9bc842873cda0001dcb644,64d2fd46c836a06233681665,64dc790d13d7dc68afa1d3da,,,,,,,sngl,resources/Empty.png,resources/DG.BMP,WildCard_Ex,0.253333333,-0.008888889,1,0,0,0.778,optionRight,95,2740,2,9,0,9,0,1,,,,,,,,,,,,,,,,,,,,,,,,,,,,,,,,,,,,,,,
,,,,,,,,2023-08-16_08h22.12.698,HF_wild_card,2022.2.4,MacIntel,62.5,5a9bc842873cda0001dcb644,64d2fd46c836a06233681665,64dc790d13d7dc68afa1d3da,,,,,,,decisionTrl,resources/DB.BMP,resources/DP.BMP,Door4,-0.194444444,-0.01,1,0,0,1.142,optionLeft,60,2800,2,10,0,10,0,1,,,,,,,,,,,,,,,,,,,,,,,,,,,,,,,,,,,,,,,
,,,,,,,,2023-08-16_08h22.12.698,HF_wild_card,2022.2.4,MacIntel,62.5,5a9bc842873cda0001dcb644,64d2fd46c836a06233681665,64dc790d13d7dc68afa1d3da,,,,,,,ctch,resources/DP.BMP,resources/DBN.BMP,Door3,-0.212222222,-0.01,1,0,0,0.678,optionLeft,70,2870,2,11,0,11,0,1,,,,,,,,,,,,,,,,,,,,,,,,,,,,,,,,,,,,,,,
,,,,,,,,2023-08-16_08h22.12.698,HF_wild_card,2022.2.4,MacIntel,62.5,5a9bc842873cda0001dcb644,64d2fd46c836a06233681665,64dc790d13d7dc68afa1d3da,,,,,,,decisionTrl,resources/DG.BMP,resources/DB.BMP,WildCard_Ex,-0.265555556,-0.023333333,1,0,0,0.911,optionLeft,5,2875,2,12,0,12,0,1,,,,,,,,,,,,,,,,,,,,,,,,,,,,,,,,,,,,,,,
,,,,,,,,2023-08-16_08h22.12.698,HF_wild_card,2022.2.4,MacIntel,62.5,5a9bc842873cda0001dcb644,64d2fd46c836a06233681665,64dc790d13d7dc68afa1d3da,,,,,,,sngl,resources/DB.BMP,resources/Empty.png,Door4,-0.183333333,0,1,0,0,0.594,optionLeft,60,2935,2,13,0,13,0,1,,,,,,,,,,,,,,,,,,,,,,,,,,,,,,,,,,,,,,,
,,,,,,,,2023-08-16_08h22.12.698,HF_wild_card,2022.2.4,MacIntel,62.5,5a9bc842873cda0001dcb644,64d2fd46c836a06233681665,64dc790d13d7dc68afa1d3da,,,,,,,decisionTrl,resources/DB.BMP,resources/DP.BMP,Door3,0.243333333,-0.025555556,1,0,0,0.745,optionRight,70,3005,2,14,0,14,0,1,,,,,,,,,,,,,,,,,,,,,,,,,,,,,,,,,,,,,,,
,,,,,,,,2023-08-16_08h22.12.698,HF_wild_card,2022.2.4,MacIntel,62.5,5a9bc842873cda0001dcb644,64d2fd46c836a06233681665,64dc790d13d7dc68afa1d3da,,,,,,,decisionTrl,resources/DBN.BMP,resources/DY.BMP,Door1,0.257777778,-0.016666667,1,0,0,1.06,optionRight,30,3035,2,15,0,15,0,1,,,,,,,,,,,,,,,,,,,,,,,,,,,,,,,,,,,,,,,
,,,,,,,,2023-08-16_08h22.12.698,HF_wild_card,2022.2.4,MacIntel,62.5,5a9bc842873cda0001dcb644,64d2fd46c836a06233681665,64dc790d13d7dc68afa1d3da,,,,,,,sngl,resources/Empty.png,resources/DP.BMP,Door3,0.24,-0.012222222,1,0,0,0.578,optionRight,70,3105,2,16,0,16,0,1,,,,,,,,,,,,,,,,,,,,,,,,,,,,,,,,,,,,,,,
,,,,,,,,2023-08-16_08h22.12.698,HF_wild_card,2022.2.4,MacIntel,62.5,5a9bc842873cda0001dcb644,64d2fd46c836a06233681665,64dc790d13d7dc68afa1d3da,,,,,,,ctch,resources/DY.BMP,resources/DB.BMP,Door4,0.2,-0.071111111,1,0,0,0.911,optionRight,60,3165,2,17,0,17,0,1,,,,,,,,,,,,,,,,,,,,,,,,,,,,,,,,,,,,,,,
,,,,,,,,2023-08-16_08h22.12.698,HF_wild_card,2022.2.4,MacIntel,62.5,5a9bc842873cda0001dcb644,64d2fd46c836a06233681665,64dc790d13d7dc68afa1d3da,,,,,,,decisionTrl,resources/DB.BMP,resources/DP.BMP,Door3,0.28,-0.03,1,0,0,1.011,optionRight,70,3235,2,18,0,18,0,1,,,,,,,,,,,,,,,,,,,,,,,,,,,,,,,,,,,,,,,
,,,,,,,,2023-08-16_08h22.12.698,HF_wild_card,2022.2.4,MacIntel,62.5,5a9bc842873cda0001dcb644,64d2fd46c836a06233681665,64dc790d13d7dc68afa1d3da,,,,,,,decisionTrl,resources/DP.BMP,resources/DB.BMP,Door3,-0.25,-0.002222222,1,0,0,0.777,optionLeft,70,3305,2,19,0,19,0,1,,,,,,,,,,,,,,,,,,,,,,,,,,,,,,,,,,,,,,,
,,,,,,,,2023-08-16_08h22.12.698,HF_wild_card,2022.2.4,MacIntel,62.5,5a9bc842873cda0001dcb644,64d2fd46c836a06233681665,64dc790d13d7dc68afa1d3da,,,,,,,sngl,resources/DG.BMP,resources/Empty.png,WildCard_Ex,-0.285555556,-0.04,1,0,0,0.577,optionLeft,95,3400,2,20,0,20,0,1,,,,,,,,,,,,,,,,,,,,,,,,,,,,,,,,,,,,,,,
,,,,,,,,2023-08-16_08h22.12.698,HF_wild_card,2022.2.4,MacIntel,62.5,5a9bc842873cda0001dcb644,64d2fd46c836a06233681665,64dc790d13d7dc68afa1d3da,,,,,,,sngl,resources/DY.BMP,resources/Empty.png,Door1,-0.161111111,-0.016666667,1,0,0,0.577,optionLeft,30,3430,2,21,0,21,0,1,,,,,,,,,,,,,,,,,,,,,,,,,,,,,,,,,,,,,,,
,,,,,,,,2023-08-16_08h22.12.698,HF_wild_card,2022.2.4,MacIntel,62.5,5a9bc842873cda0001dcb644,64d2fd46c836a06233681665,64dc790d13d7dc68afa1d3da,,,,,,,decisionTrl,resources/DY.BMP,resources/DG.BMP,WildCard_Ex,0.347777778,-0.014444444,1,0,0,0.611,optionRight,95,3525,2,22,0,22,0,1,,,,,,,,,,,,,,,,,,,,,,,,,,,,,,,,,,,,,,,
,,,,,,,,2023-08-16_08h22.12.698,HF_wild_card,2022.2.4,MacIntel,62.5,5a9bc842873cda0001dcb644,64d2fd46c836a06233681665,64dc790d13d7dc68afa1d3da,,,,,,,sngl,resources/Empty.png,resources/DG.BMP,WildCard_Ex,0.353333333,-0.041111111,1,0,0,0.61,optionRight,5,3530,2,23,0,23,0,1,,,,,,,,,,,,,,,,,,,,,,,,,,,,,,,,,,,,,,,
,,,,,,,,2023-08-16_08h22.12.698,HF_wild_card,2022.2.4,MacIntel,62.5,5a9bc842873cda0001dcb644,64d2fd46c836a06233681665,64dc790d13d7dc68afa1d3da,,,,,,,decisionTrl,resources/DBN.BMP,resources/DG.BMP,WildCard_Ex,0.332222222,-0.012222222,1,0,0,0.594,optionRight,95,3625,2,24,0,24,0,1,,,,,,,,,,,,,,,,,,,,,,,,,,,,,,,,,,,,,,,
,,,,,,,,2023-08-16_08h22.12.698,HF_wild_card,2022.2.4,MacIntel,62.5,5a9bc842873cda0001dcb644,64d2fd46c836a06233681665,64dc790d13d7dc68afa1d3da,,,,,,,decisionTrl,resources/DBN.BMP,resources/DY.BMP,Door2,-0.217777778,-0.016666667,1,0,0,0.694,optionLeft,20,3645,2,25,0,25,0,1,,,,,,,,,,,,,,,,,,,,,,,,,,,,,,,,,,,,,,,
,,,,,,,,2023-08-16_08h22.12.698,HF_wild_card,2022.2.4,MacIntel,62.5,5a9bc842873cda0001dcb644,64d2fd46c836a06233681665,64dc790d13d7dc68afa1d3da,,,,,,,ctch,resources/DBN.BMP,resources/DP.BMP,Door3,0.274444444,-0.033333333,1,0,0,0.511,optionRight,70,3715,2,26,0,26,0,1,,,,,,,,,,,,,,,,,,,,,,,,,,,,,,,,,,,,,,,
,,,,,,,,2023-08-16_08h22.12.698,HF_wild_card,2022.2.4,MacIntel,62.5,5a9bc842873cda0001dcb644,64d2fd46c836a06233681665,64dc790d13d7dc68afa1d3da,,,,,,,decisionTrl,resources/DY.BMP,resources/DBN.BMP,Door1,-0.204444444,-0.024444444,1,0,0,0.711,optionLeft,30,3745,2,27,0,27,0,1,,,,,,,,,,,,,,,,,,,,,,,,,,,,,,,,,,,,,,,
,,,,,,,,2023-08-16_08h22.12.698,HF_wild_card,2022.2.4,MacIntel,62.5,5a9bc842873cda0001dcb644,64d2fd46c836a06233681665,64dc790d13d7dc68afa1d3da,,,,,,,decisionTrl,resources/DP.BMP,resources/DB.BMP,Door3,-0.252222222,0.003333333,1,0,0,0.678,optionLeft,70,3815,2,28,0,28,0,1,,,,,,,,,,,,,,,,,,,,,,,,,,,,,,,,,,,,,,,
,,,,,,,,2023-08-16_08h22.12.698,HF_wild_card,2022.2.4,MacIntel,62.5,5a9bc842873cda0001dcb644,64d2fd46c836a06233681665,64dc790d13d7dc68afa1d3da,,,,,,,sngl,resources/Empty.png,resources/DB.BMP,Door4,0.242222222,-0.026666667,1,0,0,0.495,optionRight,80,3895,2,29,0,29,0,1,,,,,,,,,,,,,,,,,,,,,,,,,,,,,,,,,,,,,,,
,,,,,,,,2023-08-16_08h22.12.698,HF_wild_card,2022.2.4,MacIntel,62.5,5a9bc842873cda0001dcb644,64d2fd46c836a06233681665,64dc790d13d7dc68afa1d3da,,,,,,,decisionTrl,resources/DY.BMP,resources/DBN.BMP,Door1,-0.233333333,0.013333333,1,0,0,0.828,optionLeft,30,3925,2,30,0,30,0,1,,,,,,,,,,,,,,,,,,,,,,,,,,,,,,,,,,,,,,,
,,,,,,,,2023-08-16_08h22.12.698,HF_wild_card,2022.2.4,MacIntel,62.5,5a9bc842873cda0001dcb644,64d2fd46c836a06233681665,64dc790d13d7dc68afa1d3da,,,,,,,ctch,resources/DBN.BMP,resources/DP.BMP,Door3,0.225555556,-0.042222222,1,0,0,0.511,optionRight,70,3995,2,31,0,31,0,1,,,,,,,,,,,,,,,,,,,,,,,,,,,,,,,,,,,,,,,
,,,,,,,,2023-08-16_08h22.12.698,HF_wild_card,2022.2.4,MacIntel,62.5,5a9bc842873cda0001dcb644,64d2fd46c836a06233681665,64dc790d13d7dc68afa1d3da,,,,,,,decisionTrl,resources/DG.BMP,resources/DBN.BMP,WildCard_Ex,-0.233333333,-0.022222222,1,0,0,0.627,optionLeft,5,4000,2,32,0,32,0,1,,,,,,,,,,,,,,,,,,,,,,,,,,,,,,,,,,,,,,,
,,,,,,,,2023-08-16_08h22.12.698,HF_wild_card,2022.2.4,MacIntel,62.5,5a9bc842873cda0001dcb644,64d2fd46c836a06233681665,64dc790d13d7dc68afa1d3da,,,,,,,sngl,resources/DP.BMP,resources/Empty.png,Door3,-0.271111111,-0.034444444,1,0,0,0.528,optionLeft,70,4070,2,33,0,33,0,1,,,,,,,,,,,,,,,,,,,,,,,,,,,,,,,,,,,,,,,
,,,,,,,,2023-08-16_08h22.12.698,HF_wild_card,2022.2.4,MacIntel,62.5,5a9bc842873cda0001dcb644,64d2fd46c836a06233681665,64dc790d13d7dc68afa1d3da,,,,,,,ctch,resources/DB.BMP,resources/DY.BMP,Door1,0.258888889,-0.016666667,1,0,0,1.062,optionRight,30,4100,2,34,0,34,0,1,,,,,,,,,,,,,,,,,,,,,,,,,,,,,,,,,,,,,,,
,,,,,,,,2023-08-16_08h22.12.698,HF_wild_card,2022.2.4,MacIntel,62.5,5a9bc842873cda0001dcb644,64d2fd46c836a06233681665,64dc790d13d7dc68afa1d3da,,,,,,,decisionTrl,resources/DG.BMP,resources/DY.BMP,WildCard_Ex,-0.188888889,0.023333333,1,0,0,0.693,optionLeft,5,4105,2,35,0,35,0,1,,,,,,,,,,,,,,,,,,,,,,,,,,,,,,,,,,,,,,,
,,,,,,,,2023-08-16_08h22.12.698,HF_wild_card,2022.2.4,MacIntel,62.5,5a9bc842873cda0001dcb644,64d2fd46c836a06233681665,64dc790d13d7dc68afa1d3da,,,,,,,decisionTrl,resources/DG.BMP,resources/DP.BMP,Door3,0.212222222,-0.031111111,1,0,0,0.56,optionRight,70,4175,2,36,0,36,0,1,,,,,,,,,,,,,,,,,,,,,,,,,,,,,,,,,,,,,,,
,,,,,,,,2023-08-16_08h22.12.698,HF_wild_card,2022.2.4,MacIntel,62.5,5a9bc842873cda0001dcb644,64d2fd46c836a06233681665,64dc790d13d7dc68afa1d3da,,,,,,,ctch,resources/DY.BMP,resources/DB.BMP,Door4,0.19,0,1,0,0,0.976,optionRight,80,4255,2,37,0,37,0,1,,,,,,,,,,,,,,,,,,,,,,,,,,,,,,,,,,,,,,,
,,,,,,,,2023-08-16_08h22.12.698,HF_wild_card,2022.2.4,MacIntel,62.5,5a9bc842873cda0001dcb644,64d2fd46c836a06233681665,64dc790d13d7dc68afa1d3da,,,,,,,decisionTrl,resources/DY.BMP,resources/DBN.BMP,Door1,-0.263333333,-0.074444444,1,0,0,0.927,optionLeft,30,4285,2,38,0,38,0,1,,,,,,,,,,,,,,,,,,,,,,,,,,,,,,,,,,,,,,,
,,,,,,,,2023-08-16_08h22.12.698,HF_wild_card,2022.2.4,MacIntel,62.5,5a9bc842873cda0001dcb644,64d2fd46c836a06233681665,64dc790d13d7dc68afa1d3da,,,,,,,decisionTrl,resources/DB.BMP,resources/DP.BMP,Door3,0.234444444,-0.098888889,1,0,0,0.661,optionRight,70,4355,2,39,0,39,0,1,,,,,,,,,,,,,,,,,,,,,,,,,,,,,,,,,,,,,,,
,,,,,,,,2023-08-16_08h22.12.698,HF_wild_card,2022.2.4,MacIntel,62.5,5a9bc842873cda0001dcb644,64d2fd46c836a06233681665,64dc790d13d7dc68afa1d3da,,,,,,,decisionTrl,resources/DP.BMP,resources/DB.BMP,Door3,-0.276666667,-0.05,1,0,0,0.608,optionLeft,70,4425,2,40,0,40,0,1,,,,,,,,,,,,,,,,,,,,,,,,,,,,,,,,,,,,,,,
,,,,,,,,2023-08-16_08h22.12.698,HF_wild_card,2022.2.4,MacIntel,62.5,5a9bc842873cda0001dcb644,64d2fd46c836a06233681665,64dc790d13d7dc68afa1d3da,,,,,,,ctch,resources/DP.BMP,resources/DBN.BMP,Door3,-0.298888889,-0.015555556,1,0,0,0.727,optionLeft,70,4495,2,41,0,41,0,1,,,,,,,,,,,,,,,,,,,,,,,,,,,,,,,,,,,,,,,
,,,,,,,,2023-08-16_08h22.12.698,HF_wild_card,2022.2.4,MacIntel,62.5,5a9bc842873cda0001dcb644,64d2fd46c836a06233681665,64dc790d13d7dc68afa1d3da,,,,,,,decisionTrl,resources/DP.BMP,resources/DG.BMP,Door3,-0.211111111,-0.031111111,1,0,0,0.51,optionLeft,70,4565,2,42,0,42,0,1,,,,,,,,,,,,,,,,,,,,,,,,,,,,,,,,,,,,,,,
,,,,,,,,2023-08-16_08h22.12.698,HF_wild_card,2022.2.4,MacIntel,62.5,5a9bc842873cda0001dcb644,64d2fd46c836a06233681665,64dc790d13d7dc68afa1d3da,,,,,,,decisionTrl,resources/DP.BMP,resources/DB.BMP,Door3,-0.215555556,-0.02,1,0,0,0.86,optionLeft,70,4635,2,43,0,43,0,1,,,,,,,,,,,,,,,,,,,,,,,,,,,,,,,,,,,,,,,
,,,,,,,,2023-08-16_08h22.12.698,HF_wild_card,2022.2.4,MacIntel,62.5,5a9bc842873cda0001dcb644,64d2fd46c836a06233681665,64dc790d13d7dc68afa1d3da,,,,,,,,,,,,,,,,,,,,,,,,,,1,0,1,0,1,,,,,,,,,,,,,,,,,,,,,,,,,,,,,,,,,,
,,,,,,,,2023-08-16_08h22.12.698,HF_wild_card,2022.2.4,MacIntel,62.5,5a9bc842873cda0001dcb644,64d2fd46c836a06233681665,64dc790d13d7dc68afa1d3da,,,,,,,sngl,resources/Empty.png,resources/DP.BMP,Door3,0.26,-0.158888889,1,0,0,0.593,optionRight,70,4705,3,0,0,0,0,1,,,,,,,,,,,,,,,,,,,,,,,,,,,,,,,,,,,,,,,
,,,,,,,,2023-08-16_08h22.12.698,HF_wild_card,2022.2.4,MacIntel,62.5,5a9bc842873cda0001dcb644,64d2fd46c836a06233681665,64dc790d13d7dc68afa1d3da,,,,,,,ctch,resources/DBN.BMP,resources/DP.BMP,Door3,0.374444444,-0.048888889,1,0,0,0.461,optionRight,70,4775,3,1,0,1,0,1,,,,,,,,,,,,,,,,,,,,,,,,,,,,,,,,,,,,,,,
,,,,,,,,2023-08-16_08h22.12.698,HF_wild_card,2022.2.4,MacIntel,62.5,5a9bc842873cda0001dcb644,64d2fd46c836a06233681665,64dc790d13d7dc68afa1d3da,,,,,,,sngl,resources/Empty.png,resources/DY.BMP,Door1,0.321111111,-0.058888889,1,0,0,0.476,optionRight,30,4805,3,2,0,2,0,1,,,,,,,,,,,,,,,,,,,,,,,,,,,,,,,,,,,,,,,
,,,,,,,,2023-08-16_08h22.12.698,HF_wild_card,2022.2.4,MacIntel,62.5,5a9bc842873cda0001dcb644,64d2fd46c836a06233681665,64dc790d13d7dc68afa1d3da,,,,,,,decisionTrl,resources/DY.BMP,resources/DG.BMP,Door1,-0.247777778,-0.008888889,1,0,0,0.611,optionLeft,30,4835,3,3,0,3,0,1,,,,,,,,,,,,,,,,,,,,,,,,,,,,,,,,,,,,,,,
,,,,,,,,2023-08-16_08h22.12.698,HF_wild_card,2022.2.4,MacIntel,62.5,5a9bc842873cda0001dcb644,64d2fd46c836a06233681665,64dc790d13d7dc68afa1d3da,,,,,,,ctch,resources/DB.BMP,resources/DY.BMP,Door4,-0.323333333,0.034444444,1,0,0,1.478,optionLeft,80,4915,3,4,0,4,0,1,,,,,,,,,,,,,,,,,,,,,,,,,,,,,,,,,,,,,,,
,,,,,,,,2023-08-16_08h22.12.698,HF_wild_card,2022.2.4,MacIntel,62.5,5a9bc842873cda0001dcb644,64d2fd46c836a06233681665,64dc790d13d7dc68afa1d3da,,,,,,,sngl,resources/DY.BMP,resources/Empty.png,Door1,-0.293333333,0.026666667,1,0,0,0.494,optionLeft,30,4945,3,5,0,5,0,1,,,,,,,,,,,,,,,,,,,,,,,,,,,,,,,,,,,,,,,
,,,,,,,,2023-08-16_08h22.12.698,HF_wild_card,2022.2.4,MacIntel,62.5,5a9bc842873cda0001dcb644,64d2fd46c836a06233681665,64dc790d13d7dc68afa1d3da,,,,,,,decisionTrl,resources/DG.BMP,resources/DBN.BMP,WildCard_Ex,-0.245555556,0,1,0,0,3.31,optionLeft,5,4950,3,6,0,6,0,1,,,,,,,,,,,,,,,,,,,,,,,,,,,,,,,,,,,,,,,
,,,,,,,,2023-08-16_08h22.12.698,HF_wild_card,2022.2.4,MacIntel,62.5,5a9bc842873cda0001dcb644,64d2fd46c836a06233681665,64dc790d13d7dc68afa1d3da,,,,,,,decisionTrl,resources/DY.BMP,resources/DBN.BMP,Door1,-0.238888889,-0.016666667,1,0,0,0.845,optionLeft,30,4980,3,7,0,7,0,1,,,,,,,,,,,,,,,,,,,,,,,,,,,,,,,,,,,,,,,
,,,,,,,,2023-08-16_08h22.12.698,HF_wild_card,2022.2.4,MacIntel,62.5,5a9bc842873cda0001dcb644,64d2fd46c836a06233681665,64dc790d13d7dc68afa1d3da,,,,,,,decisionTrl,resources/DY.BMP,resources/DBN.BMP,Door2,0.334444444,0.053333333,1,0,0,0.996,optionRight,20,5000,3,8,0,8,0,1,,,,,,,,,,,,,,,,,,,,,,,,,,,,,,,,,,,,,,,
,,,,,,,,2023-08-16_08h22.12.698,HF_wild_card,2022.2.4,MacIntel,62.5,5a9bc842873cda0001dcb644,64d2fd46c836a06233681665,64dc790d13d7dc68afa1d3da,,,,,,,decisionTrl,resources/DBN.BMP,resources/DY.BMP,Door2,-0.247777778,0.051111111,1,0,0,0.895,optionLeft,20,5020,3,9,0,9,0,1,,,,,,,,,,,,,,,,,,,,,,,,,,,,,,,,,,,,,,,
,,,,,,,,2023-08-16_08h22.12.698,HF_wild_card,2022.2.4,MacIntel,62.5,5a9bc842873cda0001dcb644,64d2fd46c836a06233681665,64dc790d13d7dc68afa1d3da,,,,,,,decisionTrl,resources/DP.BMP,resources/DB.BMP,Door3,-0.233333333,-0.067777778,1,0,0,0.561,optionLeft,70,5090,3,10,0,10,0,1,,,,,,,,,,,,,,,,,,,,,,,,,,,,,,,,,,,,,,,
,,,,,,,,2023-08-16_08h22.12.698,HF_wild_card,2022.2.4,MacIntel,62.5,5a9bc842873cda0001dcb644,64d2fd46c836a06233681665,64dc790d13d7dc68afa1d3da,,,,,,,ctch,resources/DP.BMP,resources/DBN.BMP,Door3,-0.271111111,-0.005555556,1,0,0,0.676,optionLeft,70,5160,3,11,0,11,0,1,,,,,,,,,,,,,,,,,,,,,,,,,,,,,,,,,,,,,,,
,,,,,,,,2023-08-16_08h22.12.698,HF_wild_card,2022.2.4,MacIntel,62.5,5a9bc842873cda0001dcb644,64d2fd46c836a06233681665,64dc790d13d7dc68afa1d3da,,,,,,,decisionTrl,resources/DP.BMP,resources/DB.BMP,Door4,0.295555556,0.014444444,1,0,0,0.744,optionRight,60,5220,3,12,0,12,0,1,,,,,,,,,,,,,,,,,,,,,,,,,,,,,,,,,,,,,,,
,,,,,,,,2023-08-16_08h22.12.698,HF_wild_card,2022.2.4,MacIntel,62.5,5a9bc842873cda0001dcb644,64d2fd46c836a06233681665,64dc790d13d7dc68afa1d3da,,,,,,,decisionTrl,resources/DB.BMP,resources/DP.BMP,Door3,0.335555556,-0.011111111,1,0,0,0.611,optionRight,70,5290,3,13,0,13,0,1,,,,,,,,,,,,,,,,,,,,,,,,,,,,,,,,,,,,,,,
,,,,,,,,2023-08-16_08h22.12.698,HF_wild_card,2022.2.4,MacIntel,62.5,5a9bc842873cda0001dcb644,64d2fd46c836a06233681665,64dc790d13d7dc68afa1d3da,,,,,,,ctch,resources/DBN.BMP,resources/DP.BMP,Door3,0.302222222,-0.024444444,1,0,0,0.76,optionRight,70,5360,3,14,0,14,0,1,,,,,,,,,,,,,,,,,,,,,,,,,,,,,,,,,,,,,,,
,,,,,,,,2023-08-16_08h22.12.698,HF_wild_card,2022.2.4,MacIntel,62.5,5a9bc842873cda0001dcb644,64d2fd46c836a06233681665,64dc790d13d7dc68afa1d3da,,,,,,,sngl,resources/Empty.png,resources/DB.BMP,Door4,0.368888889,-0.041111111,1,0,0,1.311,optionRight,60,5420,3,15,0,15,0,1,,,,,,,,,,,,,,,,,,,,,,,,,,,,,,,,,,,,,,,
,,,,,,,,2023-08-16_08h22.12.698,HF_wild_card,2022.2.4,MacIntel,62.5,5a9bc842873cda0001dcb644,64d2fd46c836a06233681665,64dc790d13d7dc68afa1d3da,,,,,,,decisionTrl,resources/DB.BMP,resources/DG.BMP,Door4,-0.288888889,-0.01,1,0,0,3.198,optionLeft,60,5480,3,16,0,16,0,1,,,,,,,,,,,,,,,,,,,,,,,,,,,,,,,,,,,,,,,
,,,,,,,,2023-08-16_08h22.12.698,HF_wild_card,2022.2.4,MacIntel,62.5,5a9bc842873cda0001dcb644,64d2fd46c836a06233681665,64dc790d13d7dc68afa1d3da,,,,,,,sngl,resources/DG.BMP,resources/Empty.png,WildCard_Ex,-0.218888889,-0.007777778,1,0,0,0.627,optionLeft,95,5575,3,17,0,17,0,1,,,,,,,,,,,,,,,,,,,,,,,,,,,,,,,,,,,,,,,
,,,,,,,,2023-08-16_08h22.12.698,HF_wild_card,2022.2.4,MacIntel,62.5,5a9bc842873cda0001dcb644,64d2fd46c836a06233681665,64dc790d13d7dc68afa1d3da,,,,,,,decisionTrl,resources/DG.BMP,resources/DB.BMP,Door4,0.301111111,-0.127777778,1,0,0,2.143,optionRight,80,5655,3,18,0,18,0,1,,,,,,,,,,,,,,,,,,,,,,,,,,,,,,,,,,,,,,,
,,,,,,,,2023-08-16_08h22.12.698,HF_wild_card,2022.2.4,MacIntel,62.5,5a9bc842873cda0001dcb644,64d2fd46c836a06233681665,64dc790d13d7dc68afa1d3da,,,,,,,sngl,resources/DB.BMP,resources/Empty.png,Door4,-0.313333333,0.088888889,1,0,0,0.594,optionLeft,80,5735,3,19,0,19,0,1,,,,,,,,,,,,,,,,,,,,,,,,,,,,,,,,,,,,,,,
,,,,,,,,2023-08-16_08h22.12.698,HF_wild_card,2022.2.4,MacIntel,62.5,5a9bc842873cda0001dcb644,64d2fd46c836a06233681665,64dc790d13d7dc68afa1d3da,,,,,,,decisionTrl,resources/DG.BMP,resources/DP.BMP,Door3,0.306666667,-0.031111111,1,0,0,0.593,optionRight,70,5805,3,20,0,20,0,1,,,,,,,,,,,,,,,,,,,,,,,,,,,,,,,,,,,,,,,
,,,,,,,,2023-08-16_08h22.12.698,HF_wild_card,2022.2.4,MacIntel,62.5,5a9bc842873cda0001dcb644,64d2fd46c836a06233681665,64dc790d13d7dc68afa1d3da,,,,,,,decisionTrl,resources/DG.BMP,resources/DY.BMP,WildCard_Ex,-0.247777778,0.033333333,1,0,0,0.594,optionLeft,95,5900,3,21,0,21,0,1,,,,,,,,,,,,,,,,,,,,,,,,,,,,,,,,,,,,,,,
,,,,,,,,2023-08-16_08h22.12.698,HF_wild_card,2022.2.4,MacIntel,62.5,5a9bc842873cda0001dcb644,64d2fd46c836a06233681665,64dc790d13d7dc68afa1d3da,,,,,,,decisionTrl,resources/DP.BMP,resources/DG.BMP,WildCard_Ex,0.302222222,-0.013333333,1,0,0,0.61,optionRight,5,5905,3,22,0,22,0,1,,,,,,,,,,,,,,,,,,,,,,,,,,,,,,,,,,,,,,,
,,,,,,,,2023-08-16_08h22.12.698,HF_wild_card,2022.2.4,MacIntel,62.5,5a9bc842873cda0001dcb644,64d2fd46c836a06233681665,64dc790d13d7dc68afa1d3da,,,,,,,decisionTrl,resources/DP.BMP,resources/DB.BMP,Door3,-0.175555556,-0.014444444,1,0,0,0.646,optionLeft,70,5975,3,23,0,23,0,1,,,,,,,,,,,,,,,,,,,,,,,,,,,,,,,,,,,,,,,
,,,,,,,,2023-08-16_08h22.12.698,HF_wild_card,2022.2.4,MacIntel,62.5,5a9bc842873cda0001dcb644,64d2fd46c836a06233681665,64dc790d13d7dc68afa1d3da,,,,,,,decisionTrl,resources/DP.BMP,resources/DB.BMP,Door4,0.277777778,-0.03,1,0,0,0.478,optionRight,60,6035,3,24,0,24,0,1,,,,,,,,,,,,,,,,,,,,,,,,,,,,,,,,,,,,,,,
,,,,,,,,2023-08-16_08h22.12.698,HF_wild_card,2022.2.4,MacIntel,62.5,5a9bc842873cda0001dcb644,64d2fd46c836a06233681665,64dc790d13d7dc68afa1d3da,,,,,,,sngl,resources/Empty.png,resources/DG.BMP,WildCard_Ex,0.294444444,-0.02,1,0,0,0.628,optionRight,95,6130,3,25,0,25,0,1,,,,,,,,,,,,,,,,,,,,,,,,,,,,,,,,,,,,,,,
,,,,,,,,2023-08-16_08h22.12.698,HF_wild_card,2022.2.4,MacIntel,62.5,5a9bc842873cda0001dcb644,64d2fd46c836a06233681665,64dc790d13d7dc68afa1d3da,,,,,,,decisionTrl,resources/DBN.BMP,resources/DY.BMP,Door1,0.345555556,-0.005555556,1,0,0,0.994,optionRight,30,6160,3,26,0,26,0,1,,,,,,,,,,,,,,,,,,,,,,,,,,,,,,,,,,,,,,,
,,,,,,,,2023-08-16_08h22.12.698,HF_wild_card,2022.2.4,MacIntel,62.5,5a9bc842873cda0001dcb644,64d2fd46c836a06233681665,64dc790d13d7dc68afa1d3da,,,,,,,decisionTrl,resources/DY.BMP,resources/DBN.BMP,Door1,-0.222222222,0.032222222,1,0,0,0.797,optionLeft,30,6190,3,27,0,27,0,1,,,,,,,,,,,,,,,,,,,,,,,,,,,,,,,,,,,,,,,
,,,,,,,,2023-08-16_08h22.12.698,HF_wild_card,2022.2.4,MacIntel,62.5,5a9bc842873cda0001dcb644,64d2fd46c836a06233681665,64dc790d13d7dc68afa1d3da,,,,,,,ctch,resources/DB.BMP,resources/DY.BMP,Door4,-0.231111111,0,1,0,0,0.929,optionLeft,80,6270,3,28,0,28,0,1,,,,,,,,,,,,,,,,,,,,,,,,,,,,,,,,,,,,,,,
,,,,,,,,2023-08-16_08h22.12.698,HF_wild_card,2022.2.4,MacIntel,62.5,5a9bc842873cda0001dcb644,64d2fd46c836a06233681665,64dc790d13d7dc68afa1d3da,,,,,,,sngl,resources/Empty.png,resources/DBN.BMP,Door2,0.328888889,-0.003333333,1,0,0,0.796,optionRight,20,6290,3,29,0,29,0,1,,,,,,,,,,,,,,,,,,,,,,,,,,,,,,,,,,,,,,,
,,,,,,,,2023-08-16_08h22.12.698,HF_wild_card,2022.2.4,MacIntel,62.5,5a9bc842873cda0001dcb644,64d2fd46c836a06233681665,64dc790d13d7dc68afa1d3da,,,,,,,decisionTrl,resources/DBN.BMP,resources/DY.BMP,Door1,0.297777778,0.048888889,1,0,0,0.861,optionRight,30,6320,3,30,0,30,0,1,,,,,,,,,,,,,,,,,,,,,,,,,,,,,,,,,,,,,,,
,,,,,,,,2023-08-16_08h22.12.698,HF_wild_card,2022.2.4,MacIntel,62.5,5a9bc842873cda0001dcb644,64d2fd46c836a06233681665,64dc790d13d7dc68afa1d3da,,,,,,,decisionTrl,resources/DB.BMP,resources/DP.BMP,Door4,-0.344444444,-0.014444444,1,0,0,1.178,optionLeft,80,6400,3,31,0,31,0,1,,,,,,,,,,,,,,,,,,,,,,,,,,,,,,,,,,,,,,,
,,,,,,,,2023-08-16_08h22.12.698,HF_wild_card,2022.2.4,MacIntel,62.5,5a9bc842873cda0001dcb644,64d2fd46c836a06233681665,64dc790d13d7dc68afa1d3da,,,,,,,sngl,resources/Empty.png,resources/DG.BMP,WildCard_Ex,0.296666667,0.016666667,1,0,0,0.743,optionRight,5,6405,3,32,0,32,0,1,,,,,,,,,,,,,,,,,,,,,,,,,,,,,,,,,,,,,,,
,,,,,,,,2023-08-16_08h22.12.698,HF_wild_card,2022.2.4,MacIntel,62.5,5a9bc842873cda0001dcb644,64d2fd46c836a06233681665,64dc790d13d7dc68afa1d3da,,,,,,,ctch,resources/DP.BMP,resources/DBN.BMP,Door3,-0.233333333,0.006666667,1,0,0,0.644,optionLeft,70,6475,3,33,0,33,0,1,,,,,,,,,,,,,,,,,,,,,,,,,,,,,,,,,,,,,,,
,,,,,,,,2023-08-16_08h22.12.698,HF_wild_card,2022.2.4,MacIntel,62.5,5a9bc842873cda0001dcb644,64d2fd46c836a06233681665,64dc790d13d7dc68afa1d3da,,,,,,,decisionTrl,resources/DB.BMP,resources/DP.BMP,Door4,-0.281111111,0.008888889,1,0,0,1.059,optionLeft,80,6555,3,34,0,34,0,1,,,,,,,,,,,,,,,,,,,,,,,,,,,,,,,,,,,,,,,
,,,,,,,,2023-08-16_08h22.12.698,HF_wild_card,2022.2.4,MacIntel,62.5,5a9bc842873cda0001dcb644,64d2fd46c836a06233681665,64dc790d13d7dc68afa1d3da,,,,,,,decisionTrl,resources/DBN.BMP,resources/DY.BMP,Door1,0.315555556,-0.045555556,1,0,0,1.31,optionRight,30,6585,3,35,0,35,0,1,,,,,,,,,,,,,,,,,,,,,,,,,,,,,,,,,,,,,,,
,,,,,,,,2023-08-16_08h22.12.698,HF_wild_card,2022.2.4,MacIntel,62.5,5a9bc842873cda0001dcb644,64d2fd46c836a06233681665,64dc790d13d7dc68afa1d3da,,,,,,,sngl,resources/DBN.BMP,resources/Empty.png,Door2,-0.286666667,-0.005555556,1,0,0,0.646,optionLeft,40,6625,3,36,0,36,0,1,,,,,,,,,,,,,,,,,,,,,,,,,,,,,,,,,,,,,,,
,,,,,,,,2023-08-16_08h22.12.698,HF_wild_card,2022.2.4,MacIntel,62.5,5a9bc842873cda0001dcb644,64d2fd46c836a06233681665,64dc790d13d7dc68afa1d3da,,,,,,,decisionTrl,resources/DBN.BMP,resources/DG.BMP,WildCard_Ex,0.316666667,-0.004444444,1,0,0,0.844,optionRight,95,6720,3,37,0,37,0,1,,,,,,,,,,,,,,,,,,,,,,,,,,,,,,,,,,,,,,,
,,,,,,,,2023-08-16_08h22.12.698,HF_wild_card,2022.2.4,MacIntel,62.5,5a9bc842873cda0001dcb644,64d2fd46c836a06233681665,64dc790d13d7dc68afa1d3da,,,,,,,ctch,resources/DY.BMP,resources/DB.BMP,Door4,0.33,-0.027777778,1,0,0,1.211,optionRight,60,6780,3,38,0,38,0,1,,,,,,,,,,,,,,,,,,,,,,,,,,,,,,,,,,,,,,,
,,,,,,,,2023-08-16_08h22.12.698,HF_wild_card,2022.2.4,MacIntel,62.5,5a9bc842873cda0001dcb644,64d2fd46c836a06233681665,64dc790d13d7dc68afa1d3da,,,,,,,sngl,resources/DP.BMP,resources/Empty.png,Door3,-0.274444444,-0.012222222,1,0,0,0.663,optionLeft,70,6850,3,39,0,39,0,1,,,,,,,,,,,,,,,,,,,,,,,,,,,,,,,,,,,,,,,
,,,,,,,,2023-08-16_08h22.12.698,HF_wild_card,2022.2.4,MacIntel,62.5,5a9bc842873cda0001dcb644,64d2fd46c836a06233681665,64dc790d13d7dc68afa1d3da,,,,,,,ctch,resources/DY.BMP,resources/DB.BMP,Door4,0.215555556,-0.064444444,1,0,0,1.045,optionRight,60,6910,3,40,0,40,0,1,,,,,,,,,,,,,,,,,,,,,,,,,,,,,,,,,,,,,,,
,,,,,,,,2023-08-16_08h22.12.698,HF_wild_card,2022.2.4,MacIntel,62.5,5a9bc842873cda0001dcb644,64d2fd46c836a06233681665,64dc790d13d7dc68afa1d3da,,,,,,,sngl,resources/DG.BMP,resources/Empty.png,WildCard_Ex,-0.33,-0.025555556,1,0,0,0.577,optionLeft,5,6915,3,41,0,41,0,1,,,,,,,,,,,,,,,,,,,,,,,,,,,,,,,,,,,,,,,
,,,,,,,,2023-08-16_08h22.12.698,HF_wild_card,2022.2.4,MacIntel,62.5,5a9bc842873cda0001dcb644,64d2fd46c836a06233681665,64dc790d13d7dc68afa1d3da,,,,,,,decisionTrl,resources/DB.BMP,resources/DP.BMP,Door3,0.281111111,-0.011111111,1,0,0,0.56,optionRight,70,6985,3,42,0,42,0,1,,,,,,,,,,,,,,,,,,,,,,,,,,,,,,,,,,,,,,,
,,,,,,,,2023-08-16_08h22.12.698,HF_wild_card,2022.2.4,MacIntel,62.5,5a9bc842873cda0001dcb644,64d2fd46c836a06233681665,64dc790d13d7dc68afa1d3da,,,,,,,decisionTrl,resources/DY.BMP,resources/DBN.BMP,Door1,-0.298888889,0.035555556,1,0,0,1.095,optionLeft,30,7015,3,43,0,43,0,1,,,,,,,,,,,,,,,,,,,,,,,,,,,,,,,,,,,,,,,
,,,,,,,,2023-08-16_08h22.12.698,HF_wild_card,2022.2.4,MacIntel,62.5,5a9bc842873cda0001dcb644,64d2fd46c836a06233681665,64dc790d13d7dc68afa1d3da,,,,,,,,,,,,,,,,,,,,,,,,,,2,0,2,0,1,,,,,,,,,,,,,,,,,,,,,,,,,,,,,,,,,,
,,,,,,,,2023-08-16_08h22.12.698,HF_wild_card,2022.2.4,MacIntel,62.5,5a9bc842873cda0001dcb644,64d2fd46c836a06233681665,64dc790d13d7dc68afa1d3da,,,,,,,decisionTrl,resources/DBN.BMP,resources/DY.BMP,Door2,-0.385555556,-0.03,1,0,0,1.508,optionLeft,40,7055,4,0,0,0,0,1,,,,,,,,,,,,,,,,,,,,,,,,,,,,,,,,,,,,,,,
,,,,,,,,2023-08-16_08h22.12.698,HF_wild_card,2022.2.4,MacIntel,62.5,5a9bc842873cda0001dcb644,64d2fd46c836a06233681665,64dc790d13d7dc68afa1d3da,,,,,,,ctch,resources/DB.BMP,resources/DY.BMP,Door4,-0.341111111,-0.011111111,1,0,0,0.71,optionLeft,60,7115,4,1,0,1,0,1,,,,,,,,,,,,,,,,,,,,,,,,,,,,,,,,,,,,,,,
,,,,,,,,2023-08-16_08h22.12.698,HF_wild_card,2022.2.4,MacIntel,62.5,5a9bc842873cda0001dcb644,64d2fd46c836a06233681665,64dc790d13d7dc68afa1d3da,,,,,,,sngl,resources/DB.BMP,resources/Empty.png,Door4,-0.337777778,-0.011111111,1,0,0,0.612,optionLeft,60,7175,4,2,0,2,0,1,,,,,,,,,,,,,,,,,,,,,,,,,,,,,,,,,,,,,,,
,,,,,,,,2023-08-16_08h22.12.698,HF_wild_card,2022.2.4,MacIntel,62.5,5a9bc842873cda0001dcb644,64d2fd46c836a06233681665,64dc790d13d7dc68afa1d3da,,,,,,,ctch,resources/DY.BMP,resources/DB.BMP,Door4,0.213333333,-0.027777778,1,0,0,3.91,optionRight,60,7235,4,3,0,3,0,1,,,,,,,,,,,,,,,,,,,,,,,,,,,,,,,,,,,,,,,
,,,,,,,,2023-08-16_08h22.12.698,HF_wild_card,2022.2.4,MacIntel,62.5,5a9bc842873cda0001dcb644,64d2fd46c836a06233681665,64dc790d13d7dc68afa1d3da,,,,,,,decisionTrl,resources/DB.BMP,resources/DR.BMP,Door4,-0.25,-0.017777778,1,0,0,0.629,optionLeft,80,7315,4,4,0,4,0,1,,,,,,,,,,,,,,,,,,,,,,,,,,,,,,,,,,,,,,,
,,,,,,,,2023-08-16_08h22.12.698,HF_wild_card,2022.2.4,MacIntel,62.5,5a9bc842873cda0001dcb644,64d2fd46c836a06233681665,64dc790d13d7dc68afa1d3da,,,,,,,decisionTrl,resources/DBN.BMP,resources/DY.BMP,Door1,0.288888889,-0.01,1,0,0,0.894,optionRight,30,7345,4,5,0,5,0,1,,,,,,,,,,,,,,,,,,,,,,,,,,,,,,,,,,,,,,,
,,,,,,,,2023-08-16_08h22.12.698,HF_wild_card,2022.2.4,MacIntel,62.5,5a9bc842873cda0001dcb644,64d2fd46c836a06233681665,64dc790d13d7dc68afa1d3da,,,,,,,decisionTrl,resources/DBN.BMP,resources/DY.BMP,Door1,0.277777778,0.01,1,0,0,0.878,optionRight,30,7375,4,6,0,6,0,1,,,,,,,,,,,,,,,,,,,,,,,,,,,,,,,,,,,,,,,
,,,,,,,,2023-08-16_08h22.12.698,HF_wild_card,2022.2.4,MacIntel,62.5,5a9bc842873cda0001dcb644,64d2fd46c836a06233681665,64dc790d13d7dc68afa1d3da,,,,,,,ctch,resources/DP.BMP,resources/DBN.BMP,Door3,-0.243333333,0.017777778,1,0,0,0.595,optionLeft,70,7445,4,7,0,7,0,1,,,,,,,,,,,,,,,,,,,,,,,,,,,,,,,,,,,,,,,
,,,,,,,,2023-08-16_08h22.12.698,HF_wild_card,2022.2.4,MacIntel,62.5,5a9bc842873cda0001dcb644,64d2fd46c836a06233681665,64dc790d13d7dc68afa1d3da,,,,,,,sngl,resources/DP.BMP,resources/Empty.png,Door3,-0.245555556,0,1,0,0,0.66,optionLeft,70,7515,4,8,0,8,0,1,,,,,,,,,,,,,,,,,,,,,,,,,,,,,,,,,,,,,,,
,,,,,,,,2023-08-16_08h22.12.698,HF_wild_card,2022.2.4,MacIntel,62.5,5a9bc842873cda0001dcb644,64d2fd46c836a06233681665,64dc790d13d7dc68afa1d3da,,,,,,,sngl,resources/Empty.png,resources/DR.BMP,WildCard_NonEx,0.365555556,-0.024444444,1,0,0,0.861,optionRight,45,7560,4,9,0,9,0,1,,,,,,,,,,,,,,,,,,,,,,,,,,,,,,,,,,,,,,,
,,,,,,,,2023-08-16_08h22.12.698,HF_wild_card,2022.2.4,MacIntel,62.5,5a9bc842873cda0001dcb644,64d2fd46c836a06233681665,64dc790d13d7dc68afa1d3da,,,,,,,decisionTrl,resources/DB.BMP,resources/DP.BMP,Door3,0.343333333,0.011111111,1,0,0,0.644,optionRight,70,7630,4,10,0,10,0,1,,,,,,,,,,,,,,,,,,,,,,,,,,,,,,,,,,,,,,,
,,,,,,,,2023-08-16_08h22.12.698,HF_wild_card,2022.2.4,MacIntel,62.5,5a9bc842873cda0001dcb644,64d2fd46c836a06233681665,64dc790d13d7dc68afa1d3da,,,,,,,decisionTrl,resources/DR.BMP,resources/DBN.BMP,WildCard_NonEx,-0.276666667,0.022222222,1,0,0,0.63,optionLeft,55,7685,4,11,0,11,0,1,,,,,,,,,,,,,,,,,,,,,,,,,,,,,,,,,,,,,,,
,,,,,,,,2023-08-16_08h22.12.698,HF_wild_card,2022.2.4,MacIntel,62.5,5a9bc842873cda0001dcb644,64d2fd46c836a06233681665,64dc790d13d7dc68afa1d3da,,,,,,,sngl,resources/Empty.png,resources/DR.BMP,WildCard_NonEx,0.27,0.052222222,1,0,0,0.592,optionRight,55,7740,4,12,0,12,0,1,,,,,,,,,,,,,,,,,,,,,,,,,,,,,,,,,,,,,,,
,,,,,,,,2023-08-16_08h22.12.698,HF_wild_card,2022.2.4,MacIntel,62.5,5a9bc842873cda0001dcb644,64d2fd46c836a06233681665,64dc790d13d7dc68afa1d3da,,,,,,,sngl,resources/DY.BMP,resources/Empty.png,Door1,-0.248888889,0.011111111,1,0,0,0.645,optionLeft,30,7770,4,13,0,13,0,1,,,,,,,,,,,,,,,,,,,,,,,,,,,,,,,,,,,,,,,
,,,,,,,,2023-08-16_08h22.12.698,HF_wild_card,2022.2.4,MacIntel,62.5,5a9bc842873cda0001dcb644,64d2fd46c836a06233681665,64dc790d13d7dc68afa1d3da,,,,,,,decisionTrl,resources/DY.BMP,resources/DBN.BMP,Door1,-0.221111111,-0.006666667,1,0,0,1.927,optionLeft,30,7800,4,14,0,14,0,1,,,,,,,,,,,,,,,,,,,,,,,,,,,,,,,,,,,,,,,
,,,,,,,,2023-08-16_08h22.12.698,HF_wild_card,2022.2.4,MacIntel,62.5,5a9bc842873cda0001dcb644,64d2fd46c836a06233681665,64dc790d13d7dc68afa1d3da,,,,,,,sngl,resources/DBN.BMP,resources/Empty.png,Door2,-0.251111111,-0.005555556,1,0,0,0.745,optionLeft,20,7820,4,15,0,15,0,1,,,,,,,,,,,,,,,,,,,,,,,,,,,,,,,,,,,,,,,
,,,,,,,,2023-08-16_08h22.12.698,HF_wild_card,2022.2.4,MacIntel,62.5,5a9bc842873cda0001dcb644,64d2fd46c836a06233681665,64dc790d13d7dc68afa1d3da,,,,,,,sngl,resources/Empty.png,resources/DP.BMP,Door3,0.305555556,-0.026666667,1,0,0,1.161,optionRight,70,7890,4,16,0,16,0,1,,,,,,,,,,,,,,,,,,,,,,,,,,,,,,,,,,,,,,,
,,,,,,,,2023-08-16_08h22.12.698,HF_wild_card,2022.2.4,MacIntel,62.5,5a9bc842873cda0001dcb644,64d2fd46c836a06233681665,64dc790d13d7dc68afa1d3da,,,,,,,decisionTrl,resources/DB.BMP,resources/DP.BMP,Door3,0.28,0.005555556,1,0,0,0.615,optionRight,70,7960,4,17,0,17,0,1,,,,,,,,,,,,,,,,,,,,,,,,,,,,,,,,,,,,,,,
,,,,,,,,2023-08-16_08h22.12.698,HF_wild_card,2022.2.4,MacIntel,62.5,5a9bc842873cda0001dcb644,64d2fd46c836a06233681665,64dc790d13d7dc68afa1d3da,,,,,,,decisionTrl,resources/DY.BMP,resources/DR.BMP,Door1,-0.28,-0.011111111,1,0,0,0.761,optionLeft,30,7990,4,18,0,18,0,1,,,,,,,,,,,,,,,,,,,,,,,,,,,,,,,,,,,,,,,
,,,,,,,,2023-08-16_08h22.12.698,HF_wild_card,2022.2.4,MacIntel,62.5,5a9bc842873cda0001dcb644,64d2fd46c836a06233681665,64dc790d13d7dc68afa1d3da,,,,,,,sngl,resources/DR.BMP,resources/Empty.png,WildCard_NonEx,-0.268888889,0.002222222,1,0,0,0.577,optionLeft,45,8035,4,19,0,19,0,1,,,,,,,,,,,,,,,,,,,,,,,,,,,,,,,,,,,,,,,
,,,,,,,,2023-08-16_08h22.12.698,HF_wild_card,2022.2.4,MacIntel,62.5,5a9bc842873cda0001dcb644,64d2fd46c836a06233681665,64dc790d13d7dc68afa1d3da,,,,,,,ctch,resources/DB.BMP,resources/DY.BMP,Door4,-0.265555556,0.036666667,1,0,0,0.744,optionLeft,60,8095,4,20,0,20,0,1,,,,,,,,,,,,,,,,,,,,,,,,,,,,,,,,,,,,,,,
,,,,,,,,2023-08-16_08h22.12.698,HF_wild_card,2022.2.4,MacIntel,62.5,5a9bc842873cda0001dcb644,64d2fd46c836a06233681665,64dc790d13d7dc68afa1d3da,,,,,,,decisionTrl,resources/DBN.BMP,resources/DR.BMP,WildCard_NonEx,0.285555556,-0.004444444,1,0,0,0.627,optionRight,55,8150,4,21,0,21,0,1,,,,,,,,,,,,,,,,,,,,,,,,,,,,,,,,,,,,,,,
,,,,,,,,2023-08-16_08h22.12.698,HF_wild_card,2022.2.4,MacIntel,62.5,5a9bc842873cda0001dcb644,64d2fd46c836a06233681665,64dc790d13d7dc68afa1d3da,,,,,,,decisionTrl,resources/DY.BMP,resources/DBN.BMP,Door1,-0.213333333,0.018888889,1,0,0,0.729,optionLeft,30,8180,4,22,0,22,0,1,,,,,,,,,,,,,,,,,,,,,,,,,,,,,,,,,,,,,,,
,,,,,,,,2023-08-16_08h22.12.698,HF_wild_card,2022.2.4,MacIntel,62.5,5a9bc842873cda0001dcb644,64d2fd46c836a06233681665,64dc790d13d7dc68afa1d3da,,,,,,,ctch,resources/DY.BMP,resources/DB.BMP,Door4,0.287777778,0.012222222,1,0,0,0.628,optionRight,80,8260,4,23,0,23,0,1,,,,,,,,,,,,,,,,,,,,,,,,,,,,,,,,,,,,,,,
,,,,,,,,2023-08-16_08h22.12.698,HF_wild_card,2022.2.4,MacIntel,62.5,5a9bc842873cda0001dcb644,64d2fd46c836a06233681665,64dc790d13d7dc68afa1d3da,,,,,,,decisionTrl,resources/DP.BMP,resources/DB.BMP,Door3,-0.216666667,0.015555556,1,0,0,0.694,optionLeft,70,8330,4,24,0,24,0,1,,,,,,,,,,,,,,,,,,,,,,,,,,,,,,,,,,,,,,,
,,,,,,,,2023-08-16_08h22.12.698,HF_wild_card,2022.2.4,MacIntel,62.5,5a9bc842873cda0001dcb644,64d2fd46c836a06233681665,64dc790d13d7dc68afa1d3da,,,,,,,decisionTrl,resources/DY.BMP,resources/DBN.BMP,Door1,-0.285555556,-0.006666667,1,0,0,0.863,optionLeft,30,8360,4,25,0,25,0,1,,,,,,,,,,,,,,,,,,,,,,,,,,,,,,,,,,,,,,,
,,,,,,,,2023-08-16_08h22.12.698,HF_wild_card,2022.2.4,MacIntel,62.5,5a9bc842873cda0001dcb644,64d2fd46c836a06233681665,64dc790d13d7dc68afa1d3da,,,,,,,ctch,resources/DBN.BMP,resources/DP.BMP,Door3,0.313333333,-0.02,1,0,0,0.63,optionRight,70,8430,4,26,0,26,0,1,,,,,,,,,,,,,,,,,,,,,,,,,,,,,,,,,,,,,,,
,,,,,,,,2023-08-16_08h22.12.698,HF_wild_card,2022.2.4,MacIntel,62.5,5a9bc842873cda0001dcb644,64d2fd46c836a06233681665,64dc790d13d7dc68afa1d3da,,,,,,,sngl,resources/Empty.png,resources/DY.BMP,Door1,0.233333333,0.01,1,0,0,0.563,optionRight,30,8460,4,27,0,27,0,1,,,,,,,,,,,,,,,,,,,,,,,,,,,,,,,,,,,,,,,
,,,,,,,,2023-08-16_08h22.12.698,HF_wild_card,2022.2.4,MacIntel,62.5,5a9bc842873cda0001dcb644,64d2fd46c836a06233681665,64dc790d13d7dc68afa1d3da,,,,,,,ctch,resources/DBN.BMP,resources/DP.BMP,Door3,0.202222222,-0.022222222,1,0,0,0.777,optionRight,70,8530,4,28,0,28,0,1,,,,,,,,,,,,,,,,,,,,,,,,,,,,,,,,,,,,,,,
,,,,,,,,2023-08-16_08h22.12.698,HF_wild_card,2022.2.4,MacIntel,62.5,5a9bc842873cda0001dcb644,64d2fd46c836a06233681665,64dc790d13d7dc68afa1d3da,,,,,,,decisionTrl,resources/DP.BMP,resources/DR.BMP,Door3,-0.25,-0.01,1,0,0,1.261,optionLeft,70,8600,4,29,0,29,0,1,,,,,,,,,,,,,,,,,,,,,,,,,,,,,,,,,,,,,,,
,,,,,,,,2023-08-16_08h22.12.698,HF_wild_card,2022.2.4,MacIntel,62.5,5a9bc842873cda0001dcb644,64d2fd46c836a06233681665,64dc790d13d7dc68afa1d3da,,,,,,,decisionTrl,resources/DY.BMP,resources/DBN.BMP,Door1,-0.205555556,-0.007777778,1,0,0,0.744,optionLeft,30,8630,4,30,0,30,0,1,,,,,,,,,,,,,,,,,,,,,,,,,,,,,,,,,,,,,,,
,,,,,,,,2023-08-16_08h22.12.698,HF_wild_card,2022.2.4,MacIntel,62.5,5a9bc842873cda0001dcb644,64d2fd46c836a06233681665,64dc790d13d7dc68afa1d3da,,,,,,,decisionTrl,resources/DB.BMP,resources/DP.BMP,Door3,0.295555556,-0.018888889,1,0,0,0.68,optionRight,70,8700,4,31,0,31,0,1,,,,,,,,,,,,,,,,,,,,,,,,,,,,,,,,,,,,,,,
,,,,,,,,2023-08-16_08h22.12.698,HF_wild_card,2022.2.4,MacIntel,62.5,5a9bc842873cda0001dcb644,64d2fd46c836a06233681665,64dc790d13d7dc68afa1d3da,,,,,,,decisionTrl,resources/DP.BMP,resources/DB.BMP,Door4,0.284444444,0.011111111,1,0,0,0.91,optionRight,60,8760,4,32,0,32,0,1,,,,,,,,,,,,,,,,,,,,,,,,,,,,,,,,,,,,,,,
,,,,,,,,2023-08-16_08h22.12.698,HF_wild_card,2022.2.4,MacIntel,62.5,5a9bc842873cda0001dcb644,64d2fd46c836a06233681665,64dc790d13d7dc68afa1d3da,,,,,,,decisionTrl,resources/DR.BMP,resources/DY.BMP,WildCard_NonEx,-0.235555556,-0.013333333,1,0,0,0.694,optionLeft,55,8815,4,33,0,33,0,1,,,,,,,,,,,,,,,,,,,,,,,,,,,,,,,,,,,,,,,
,,,,,,,,2023-08-16_08h22.12.698,HF_wild_card,2022.2.4,MacIntel,62.5,5a9bc842873cda0001dcb644,64d2fd46c836a06233681665,64dc790d13d7dc68afa1d3da,,,,,,,decisionTrl,resources/DB.BMP,resources/DP.BMP,Door4,-0.264444444,0.046666667,1,0,0,0.894,optionLeft,60,8875,4,34,0,34,0,1,,,,,,,,,,,,,,,,,,,,,,,,,,,,,,,,,,,,,,,
,,,,,,,,2023-08-16_08h22.12.698,HF_wild_card,2022.2.4,MacIntel,62.5,5a9bc842873cda0001dcb644,64d2fd46c836a06233681665,64dc790d13d7dc68afa1d3da,,,,,,,decisionTrl,resources/DBN.BMP,resources/DY.BMP,Door1,0.348888889,-0.015555556,1,0,0,1.211,optionRight,30,8905,4,35,0,35,0,1,,,,,,,,,,,,,,,,,,,,,,,,,,,,,,,,,,,,,,,
,,,,,,,,2023-08-16_08h22.12.698,HF_wild_card,2022.2.4,MacIntel,62.5,5a9bc842873cda0001dcb644,64d2fd46c836a06233681665,64dc790d13d7dc68afa1d3da,,,,,,,decisionTrl,resources/DR.BMP,resources/DB.BMP,Door4,0.218888889,0.047777778,1,0,0,0.961,optionRight,60,8965,4,36,0,36,0,1,,,,,,,,,,,,,,,,,,,,,,,,,,,,,,,,,,,,,,,
,,,,,,,,2023-08-16_08h22.12.698,HF_wild_card,2022.2.4,MacIntel,62.5,5a9bc842873cda0001dcb644,64d2fd46c836a06233681665,64dc790d13d7dc68afa1d3da,,,,,,,decisionTrl,resources/DR.BMP,resources/DP.BMP,Door3,0.355555556,-0.042222222,1,0,0,0.743,optionRight,70,9035,4,37,0,37,0,1,,,,,,,,,,,,,,,,,,,,,,,,,,,,,,,,,,,,,,,
,,,,,,,,2023-08-16_08h22.12.698,HF_wild_card,2022.2.4,MacIntel,62.5,5a9bc842873cda0001dcb644,64d2fd46c836a06233681665,64dc790d13d7dc68afa1d3da,,,,,,,sngl,resources/DR.BMP,resources/Empty.png,WildCard_NonEx,-0.242222222,-0.022222222,1,0,0,0.577,optionLeft,55,9090,4,38,0,38,0,1,,,,,,,,,,,,,,,,,,,,,,,,,,,,,,,,,,,,,,,
,,,,,,,,2023-08-16_08h22.12.698,HF_wild_card,2022.2.4,MacIntel,62.5,5a9bc842873cda0001dcb644,64d2fd46c836a06233681665,64dc790d13d7dc68afa1d3da,,,,,,,decisionTrl,resources/DP.BMP,resources/DB.BMP,Door4,0.326666667,-0.021111111,1,0,0,0.98,optionRight,60,9150,4,39,0,39,0,1,,,,,,,,,,,,,,,,,,,,,,,,,,,,,,,,,,,,,,,
,,,,,,,,2023-08-16_08h22.12.698,HF_wild_card,2022.2.4,MacIntel,62.5,5a9bc842873cda0001dcb644,64d2fd46c836a06233681665,64dc790d13d7dc68afa1d3da,,,,,,,sngl,resources/Empty.png,resources/DBN.BMP,Door2,0.296666667,0.003333333,1,0,0,0.627,optionRight,40,9190,4,40,0,40,0,1,,,,,,,,,,,,,,,,,,,,,,,,,,,,,,,,,,,,,,,
,,,,,,,,2023-08-16_08h22.12.698,HF_wild_card,2022.2.4,MacIntel,62.5,5a9bc842873cda0001dcb644,64d2fd46c836a06233681665,64dc790d13d7dc68afa1d3da,,,,,,,decisionTrl,resources/DP.BMP,resources/DB.BMP,Door3,-0.181111111,-0.027777778,1,0,0,0.776,optionLeft,70,9260,4,41,0,41,0,1,,,,,,,,,,,,,,,,,,,,,,,,,,,,,,,,,,,,,,,
,,,,,,,,2023-08-16_08h22.12.698,HF_wild_card,2022.2.4,MacIntel,62.5,5a9bc842873cda0001dcb644,64d2fd46c836a06233681665,64dc790d13d7dc68afa1d3da,,,,,,,sngl,resources/Empty.png,resources/DB.BMP,Door4,0.254444444,-0.002222222,1,0,0,0.576,optionRight,80,9340,4,42,0,42,0,1,,,,,,,,,,,,,,,,,,,,,,,,,,,,,,,,,,,,,,,
,,,,,,,,2023-08-16_08h22.12.698,HF_wild_card,2022.2.4,MacIntel,62.5,5a9bc842873cda0001dcb644,64d2fd46c836a06233681665,64dc790d13d7dc68afa1d3da,,,,,,,ctch,resources/DP.BMP,resources/DBN.BMP,Door3,-0.184444444,0.034444444,1,0,0,0.942,optionLeft,70,9410,4,43,0,43,0,1,,,,,,,,,,,,,,,,,,,,,,,,,,,,,,,,,,,,,,,
,,,,,,,,2023-08-16_08h22.12.698,HF_wild_card,2022.2.4,MacIntel,62.5,5a9bc842873cda0001dcb644,64d2fd46c836a06233681665,64dc790d13d7dc68afa1d3da,,,,,,,,,,,,,,,,,,,,,,,,,,3,0,3,0,1,,,,,,,,,,,,,,,,,,,,,,,,,,,,,,,,,,
,,,,,,,,2023-08-16_08h22.12.698,HF_wild_card,2022.2.4,MacIntel,62.5,5a9bc842873cda0001dcb644,64d2fd46c836a06233681665,64dc790d13d7dc68afa1d3da,,,,,,,sngl,resources/Empty.png,resources/DR.BMP,WildCard_NonEx,0.357777778,-0.053333333,1,0,0,0.593,optionRight,55,9465,5,0,0,0,0,1,,,,,,,,,,,,,,,,,,,,,,,,,,,,,,,,,,,,,,,
,,,,,,,,2023-08-16_08h22.12.698,HF_wild_card,2022.2.4,MacIntel,62.5,5a9bc842873cda0001dcb644,64d2fd46c836a06233681665,64dc790d13d7dc68afa1d3da,,,,,,,decisionTrl,resources/DR.BMP,resources/DP.BMP,Door3,0.326666667,0.044444444,1,0,0,0.861,optionRight,70,9535,5,1,0,1,0,1,,,,,,,,,,,,,,,,,,,,,,,,,,,,,,,,,,,,,,,
,,,,,,,,2023-08-16_08h22.12.698,HF_wild_card,2022.2.4,MacIntel,62.5,5a9bc842873cda0001dcb644,64d2fd46c836a06233681665,64dc790d13d7dc68afa1d3da,,,,,,,sngl,resources/Empty.png,resources/DR.BMP,WildCard_NonEx,0.305555556,0.004444444,1,0,0,0.56,optionRight,45,9580,5,2,0,2,0,1,,,,,,,,,,,,,,,,,,,,,,,,,,,,,,,,,,,,,,,
,,,,,,,,2023-08-16_08h22.12.698,HF_wild_card,2022.2.4,MacIntel,62.5,5a9bc842873cda0001dcb644,64d2fd46c836a06233681665,64dc790d13d7dc68afa1d3da,,,,,,,ctch,resources/DBN.BMP,resources/DP.BMP,Door3,0.264444444,0,1,0,0,0.627,optionRight,70,9650,5,3,0,3,0,1,,,,,,,,,,,,,,,,,,,,,,,,,,,,,,,,,,,,,,,
,,,,,,,,2023-08-16_08h22.12.698,HF_wild_card,2022.2.4,MacIntel,62.5,5a9bc842873cda0001dcb644,64d2fd46c836a06233681665,64dc790d13d7dc68afa1d3da,,,,,,,decisionTrl,resources/DP.BMP,resources/DB.BMP,Door4,0.276666667,-0.002222222,1,0,0,0.744,optionRight,80,9730,5,4,0,4,0,1,,,,,,,,,,,,,,,,,,,,,,,,,,,,,,,,,,,,,,,
,,,,,,,,2023-08-16_08h22.12.698,HF_wild_card,2022.2.4,MacIntel,62.5,5a9bc842873cda0001dcb644,64d2fd46c836a06233681665,64dc790d13d7dc68afa1d3da,,,,,,,decisionTrl,resources/DBN.BMP,resources/DY.BMP,Door1,0.315555556,-0.013333333,1,0,0,0.712,optionRight,30,9760,5,5,0,5,0,1,,,,,,,,,,,,,,,,,,,,,,,,,,,,,,,,,,,,,,,
,,,,,,,,2023-08-16_08h22.12.698,HF_wild_card,2022.2.4,MacIntel,62.5,5a9bc842873cda0001dcb644,64d2fd46c836a06233681665,64dc790d13d7dc68afa1d3da,,,,,,,decisionTrl,resources/DBN.BMP,resources/DY.BMP,Door2,-0.243333333,0.033333333,1,0,0,0.577,optionLeft,20,9780,5,6,0,6,0,1,,,,,,,,,,,,,,,,,,,,,,,,,,,,,,,,,,,,,,,
,,,,,,,,2023-08-16_08h22.12.698,HF_wild_card,2022.2.4,MacIntel,62.5,5a9bc842873cda0001dcb644,64d2fd46c836a06233681665,64dc790d13d7dc68afa1d3da,,,,,,,sngl,resources/Empty.png,resources/DY.BMP,Door1,0.341111111,0.002222222,1,0,0,0.464,optionRight,30,9810,5,7,0,7,0,1,,,,,,,,,,,,,,,,,,,,,,,,,,,,,,,,,,,,,,,
,,,,,,,,2023-08-16_08h22.12.698,HF_wild_card,2022.2.4,MacIntel,62.5,5a9bc842873cda0001dcb644,64d2fd46c836a06233681665,64dc790d13d7dc68afa1d3da,,,,,,,sngl,resources/Empty.png,resources/DBN.BMP,Door2,0.297777778,0.042222222,1,0,0,0.527,optionRight,20,9830,5,8,0,8,0,1,,,,,,,,,,,,,,,,,,,,,,,,,,,,,,,,,,,,,,,
,,,,,,,,2023-08-16_08h22.12.698,HF_wild_card,2022.2.4,MacIntel,62.5,5a9bc842873cda0001dcb644,64d2fd46c836a06233681665,64dc790d13d7dc68afa1d3da,,,,,,,ctch,resources/DB.BMP,resources/DY.BMP,Door4,-0.268888889,0.016666667,1,0,0,0.728,optionLeft,60,9890,5,9,0,9,0,1,,,,,,,,,,,,,,,,,,,,,,,,,,,,,,,,,,,,,,,
,,,,,,,,2023-08-16_08h22.12.698,HF_wild_card,2022.2.4,MacIntel,62.5,5a9bc842873cda0001dcb644,64d2fd46c836a06233681665,64dc790d13d7dc68afa1d3da,,,,,,,sngl,resources/DR.BMP,resources/Empty.png,WildCard_NonEx,-0.246666667,0.024444444,1,0,0,0.576,optionLeft,55,9945,5,10,0,10,0,1,,,,,,,,,,,,,,,,,,,,,,,,,,,,,,,,,,,,,,,
,,,,,,,,2023-08-16_08h22.12.698,HF_wild_card,2022.2.4,MacIntel,62.5,5a9bc842873cda0001dcb644,64d2fd46c836a06233681665,64dc790d13d7dc68afa1d3da,,,,,,,decisionTrl,resources/DP.BMP,resources/DB.BMP,Door4,0.247777778,0.01,1,0,0,0.893,optionRight,80,10025,5,11,0,11,0,1,,,,,,,,,,,,,,,,,,,,,,,,,,,,,,,,,,,,,,,
,,,,,,,,2023-08-16_08h22.12.698,HF_wild_card,2022.2.4,MacIntel,62.5,5a9bc842873cda0001dcb644,64d2fd46c836a06233681665,64dc790d13d7dc68afa1d3da,,,,,,,sngl,resources/DB.BMP,resources/Empty.png,Door4,-0.232222222,0.012222222,1,0,0,0.727,optionLeft,80,10105,5,12,0,12,0,1,,,,,,,,,,,,,,,,,,,,,,,,,,,,,,,,,,,,,,,
,,,,,,,,2023-08-16_08h22.12.698,HF_wild_card,2022.2.4,MacIntel,62.5,5a9bc842873cda0001dcb644,64d2fd46c836a06233681665,64dc790d13d7dc68afa1d3da,,,,,,,decisionTrl,resources/DR.BMP,resources/DBN.BMP,Door2,0.285555556,-0.048888889,1,0,0,0.96,optionRight,40,10145,5,13,0,13,0,1,,,,,,,,,,,,,,,,,,,,,,,,,,,,,,,,,,,,,,,
,,,,,,,,2023-08-16_08h22.12.698,HF_wild_card,2022.2.4,MacIntel,62.5,5a9bc842873cda0001dcb644,64d2fd46c836a06233681665,64dc790d13d7dc68afa1d3da,,,,,,,decisionTrl,resources/DY.BMP,resources/DR.BMP,WildCard_NonEx,0.251111111,-0.018888889,1,0,0,0.962,optionRight,45,10190,5,14,0,14,0,1,,,,,,,,,,,,,,,,,,,,,,,,,,,,,,,,,,,,,,,
,,,,,,,,2023-08-16_08h22.12.698,HF_wild_card,2022.2.4,MacIntel,62.5,5a9bc842873cda0001dcb644,64d2fd46c836a06233681665,64dc790d13d7dc68afa1d3da,,,,,,,decisionTrl,resources/DP.BMP,resources/DB.BMP,Door3,-0.253333333,0.005555556,1,0,0,0.645,optionLeft,70,10260,5,15,0,15,0,1,,,,,,,,,,,,,,,,,,,,,,,,,,,,,,,,,,,,,,,
,,,,,,,,2023-08-16_08h22.12.698,HF_wild_card,2022.2.4,MacIntel,62.5,5a9bc842873cda0001dcb644,64d2fd46c836a06233681665,64dc790d13d7dc68afa1d3da,,,,,,,sngl,resources/Empty.png,resources/DB.BMP,Door4,0.271111111,0.03,1,0,0,0.544,optionRight,60,10320,5,16,0,16,0,1,,,,,,,,,,,,,,,,,,,,,,,,,,,,,,,,,,,,,,,
,,,,,,,,2023-08-16_08h22.12.698,HF_wild_card,2022.2.4,MacIntel,62.5,5a9bc842873cda0001dcb644,64d2fd46c836a06233681665,64dc790d13d7dc68afa1d3da,,,,,,,decisionTrl,resources/DP.BMP,resources/DR.BMP,Door3,-0.278888889,-0.021111111,1,0,0,0.56,optionLeft,70,10390,5,17,0,17,0,1,,,,,,,,,,,,,,,,,,,,,,,,,,,,,,,,,,,,,,,
,,,,,,,,2023-08-16_08h22.12.698,HF_wild_card,2022.2.4,MacIntel,62.5,5a9bc842873cda0001dcb644,64d2fd46c836a06233681665,64dc790d13d7dc68afa1d3da,,,,,,,decisionTrl,resources/DB.BMP,resources/DP.BMP,Door4,-0.201111111,0.012222222,1,0,0,0.844,optionLeft,80,10470,5,18,0,18,0,1,,,,,,,,,,,,,,,,,,,,,,,,,,,,,,,,,,,,,,,
,,,,,,,,2023-08-16_08h22.12.698,HF_wild_card,2022.2.4,MacIntel,62.5,5a9bc842873cda0001dcb644,64d2fd46c836a06233681665,64dc790d13d7dc68afa1d3da,,,,,,,decisionTrl,resources/DB.BMP,resources/DP.BMP,Door4,-0.273333333,0.048888889,1,0,0,0.76,optionLeft,60,10530,5,19,0,19,0,1,,,,,,,,,,,,,,,,,,,,,,,,,,,,,,,,,,,,,,,
,,,,,,,,2023-08-16_08h22.12.698,HF_wild_card,2022.2.4,MacIntel,62.5,5a9bc842873cda0001dcb644,64d2fd46c836a06233681665,64dc790d13d7dc68afa1d3da,,,,,,,decisionTrl,resources/DR.BMP,resources/DY.BMP,Door1,0.284444444,-0.03,1,0,0,0.794,optionRight,30,10560,5,20,0,20,0,1,,,,,,,,,,,,,,,,,,,,,,,,,,,,,,,,,,,,,,,
,,,,,,,,2023-08-16_08h22.12.698,HF_wild_card,2022.2.4,MacIntel,62.5,5a9bc842873cda0001dcb644,64d2fd46c836a06233681665,64dc790d13d7dc68afa1d3da,,,,,,,decisionTrl,resources/DY.BMP,resources/DBN.BMP,Door1,-0.24,0.008888889,1,0,0,0.561,optionLeft,30,10590,5,21,0,21,0,1,,,,,,,,,,,,,,,,,,,,,,,,,,,,,,,,,,,,,,,
,,,,,,,,2023-08-16_08h22.12.698,HF_wild_card,2022.2.4,MacIntel,62.5,5a9bc842873cda0001dcb644,64d2fd46c836a06233681665,64dc790d13d7dc68afa1d3da,,,,,,,ctch,resources/DB.BMP,resources/DY.BMP,Door4,-0.296666667,0.05,1,0,0,0.644,optionLeft,80,10670,5,22,0,22,0,1,,,,,,,,,,,,,,,,,,,,,,,,,,,,,,,,,,,,,,,
,,,,,,,,2023-08-16_08h22.12.698,HF_wild_card,2022.2.4,MacIntel,62.5,5a9bc842873cda0001dcb644,64d2fd46c836a06233681665,64dc790d13d7dc68afa1d3da,,,,,,,sngl,resources/Empty.png,resources/DP.BMP,Door3,0.334444444,-0.035555556,1,0,0,0.595,optionRight,70,10740,5,23,0,23,0,1,,,,,,,,,,,,,,,,,,,,,,,,,,,,,,,,,,,,,,,
,,,,,,,,2023-08-16_08h22.12.698,HF_wild_card,2022.2.4,MacIntel,62.5,5a9bc842873cda0001dcb644,64d2fd46c836a06233681665,64dc790d13d7dc68afa1d3da,,,,,,,ctch,resources/DP.BMP,resources/DBN.BMP,Door3,-0.222222222,-0.003333333,1,0,0,0.743,optionLeft,70,10810,5,24,0,24,0,1,,,,,,,,,,,,,,,,,,,,,,,,,,,,,,,,,,,,,,,
,,,,,,,,2023-08-16_08h22.12.698,HF_wild_card,2022.2.4,MacIntel,62.5,5a9bc842873cda0001dcb644,64d2fd46c836a06233681665,64dc790d13d7dc68afa1d3da,,,,,,,decisionTrl,resources/DP.BMP,resources/DB.BMP,Door4,0.303333333,-0.008888889,1,0,0,0.695,optionRight,80,10890,5,25,0,25,0,1,,,,,,,,,,,,,,,,,,,,,,,,,,,,,,,,,,,,,,,
,,,,,,,,2023-08-16_08h22.12.698,HF_wild_card,2022.2.4,MacIntel,62.5,5a9bc842873cda0001dcb644,64d2fd46c836a06233681665,64dc790d13d7dc68afa1d3da,,,,,,,decisionTrl,resources/DBN.BMP,resources/DY.BMP,Door2,-0.223333333,0.081111111,1,0,0,1.211,optionLeft,20,10910,5,26,0,26,0,1,,,,,,,,,,,,,,,,,,,,,,,,,,,,,,,,,,,,,,,
,,,,,,,,2023-08-16_08h22.12.698,HF_wild_card,2022.2.4,MacIntel,62.5,5a9bc842873cda0001dcb644,64d2fd46c836a06233681665,64dc790d13d7dc68afa1d3da,,,,,,,decisionTrl,resources/DB.BMP,resources/DP.BMP,Door4,-0.335555556,0.027777778,1,0,0,0.762,optionLeft,60,10970,5,27,0,27,0,1,,,,,,,,,,,,,,,,,,,,,,,,,,,,,,,,,,,,,,,
,,,,,,,,2023-08-16_08h22.12.698,HF_wild_card,2022.2.4,MacIntel,62.5,5a9bc842873cda0001dcb644,64d2fd46c836a06233681665,64dc790d13d7dc68afa1d3da,,,,,,,decisionTrl,resources/DY.BMP,resources/DBN.BMP,Door1,-0.224444444,0.001111111,1,0,0,0.844,optionLeft,30,11000,5,28,0,28,0,1,,,,,,,,,,,,,,,,,,,,,,,,,,,,,,,,,,,,,,,
,,,,,,,,2023-08-16_08h22.12.698,HF_wild_card,2022.2.4,MacIntel,62.5,5a9bc842873cda0001dcb644,64d2fd46c836a06233681665,64dc790d13d7dc68afa1d3da,,,,,,,decisionTrl,resources/DR.BMP,resources/DB.BMP,Door4,0.298888889,0,1,0,0,0.594,optionRight,60,11060,5,29,0,29,0,1,,,,,,,,,,,,,,,,,,,,,,,,,,,,,,,,,,,,,,,
,,,,,,,,2023-08-16_08h22.12.698,HF_wild_card,2022.2.4,MacIntel,62.5,5a9bc842873cda0001dcb644,64d2fd46c836a06233681665,64dc790d13d7dc68afa1d3da,,,,,,,sngl,resources/DP.BMP,resources/Empty.png,Door3,-0.26,-0.026666667,1,0,0,0.561,optionLeft,70,11130,5,30,0,30,0,1,,,,,,,,,,,,,,,,,,,,,,,,,,,,,,,,,,,,,,,
,,,,,,,,2023-08-16_08h22.12.698,HF_wild_card,2022.2.4,MacIntel,62.5,5a9bc842873cda0001dcb644,64d2fd46c836a06233681665,64dc790d13d7dc68afa1d3da,,,,,,,sngl,resources/DBN.BMP,resources/Empty.png,Door2,-0.22,-0.007777778,1,0,0,0.646,optionLeft,40,11170,5,31,0,31,0,1,,,,,,,,,,,,,,,,,,,,,,,,,,,,,,,,,,,,,,,
,,,,,,,,2023-08-16_08h22.12.698,HF_wild_card,2022.2.4,MacIntel,62.5,5a9bc842873cda0001dcb644,64d2fd46c836a06233681665,64dc790d13d7dc68afa1d3da,,,,,,,decisionTrl,resources/DBN.BMP,resources/DR.BMP,WildCard_NonEx,0.271111111,-0.016666667,1,0,0,0.844,optionRight,55,11225,5,32,0,32,0,1,,,,,,,,,,,,,,,,,,,,,,,,,,,,,,,,,,,,,,,
,,,,,,,,2023-08-16_08h22.12.698,HF_wild_card,2022.2.4,MacIntel,62.5,5a9bc842873cda0001dcb644,64d2fd46c836a06233681665,64dc790d13d7dc68afa1d3da,,,,,,,ctch,resources/DY.BMP,resources/DB.BMP,Door4,0.377777778,-0.042222222,1,0,0,0.827,optionRight,60,11285,5,33,0,33,0,1,,,,,,,,,,,,,,,,,,,,,,,,,,,,,,,,,,,,,,,
,,,,,,,,2023-08-16_08h22.12.698,HF_wild_card,2022.2.4,MacIntel,62.5,5a9bc842873cda0001dcb644,64d2fd46c836a06233681665,64dc790d13d7dc68afa1d3da,,,,,,,decisionTrl,resources/DBN.BMP,resources/DY.BMP,Door1,0.33,0.006666667,1,0,0,0.811,optionRight,30,11315,5,34,0,34,0,1,,,,,,,,,,,,,,,,,,,,,,,,,,,,,,,,,,,,,,,
,,,,,,,,2023-08-16_08h22.12.698,HF_wild_card,2022.2.4,MacIntel,62.5,5a9bc842873cda0001dcb644,64d2fd46c836a06233681665,64dc790d13d7dc68afa1d3da,,,,,,,sngl,resources/DR.BMP,resources/Empty.png,WildCard_NonEx,-0.245555556,0.032222222,1,0,0,0.544,optionLeft,45,11360,5,35,0,35,0,1,,,,,,,,,,,,,,,,,,,,,,,,,,,,,,,,,,,,,,,
,,,,,,,,2023-08-16_08h22.12.698,HF_wild_card,2022.2.4,MacIntel,62.5,5a9bc842873cda0001dcb644,64d2fd46c836a06233681665,64dc790d13d7dc68afa1d3da,,,,,,,decisionTrl,resources/DB.BMP,resources/DP.BMP,Door4,-0.223333333,-0.024444444,1,0,0,0.776,optionLeft,80,11440,5,36,0,36,0,1,,,,,,,,,,,,,,,,,,,,,,,,,,,,,,,,,,,,,,,
,,,,,,,,2023-08-16_08h22.12.698,HF_wild_card,2022.2.4,MacIntel,62.5,5a9bc842873cda0001dcb644,64d2fd46c836a06233681665,64dc790d13d7dc68afa1d3da,,,,,,,sngl,resources/DY.BMP,resources/Empty.png,Door1,-0.213333333,-0.053333333,1,0,0,0.71,optionLeft,30,11470,5,37,0,37,0,1,,,,,,,,,,,,,,,,,,,,,,,,,,,,,,,,,,,,,,,
,,,,,,,,2023-08-16_08h22.12.698,HF_wild_card,2022.2.4,MacIntel,62.5,5a9bc842873cda0001dcb644,64d2fd46c836a06233681665,64dc790d13d7dc68afa1d3da,,,,,,,ctch,resources/DY.BMP,resources/DB.BMP,Door4,0.264444444,0.018888889,1,0,0,0.677,optionRight,80,11550,5,38,0,38,0,1,,,,,,,,,,,,,,,,,,,,,,,,,,,,,,,,,,,,,,,
,,,,,,,,2023-08-16_08h22.12.698,HF_wild_card,2022.2.4,MacIntel,62.5,5a9bc842873cda0001dcb644,64d2fd46c836a06233681665,64dc790d13d7dc68afa1d3da,,,,,,,decisionTrl,resources/DY.BMP,resources/DBN.BMP,Door1,-0.271111111,0.021111111,1,0,0,0.878,optionLeft,30,11580,5,39,0,39,0,1,,,,,,,,,,,,,,,,,,,,,,,,,,,,,,,,,,,,,,,
,,,,,,,,2023-08-16_08h22.12.698,HF_wild_card,2022.2.4,MacIntel,62.5,5a9bc842873cda0001dcb644,64d2fd46c836a06233681665,64dc790d13d7dc68afa1d3da,,,,,,,decisionTrl,resources/DY.BMP,resources/DBN.BMP,Door1,-0.294444444,0.036666667,1,0,0,1.112,optionLeft,30,11610,5,40,0,40,0,1,,,,,,,,,,,,,,,,,,,,,,,,,,,,,,,,,,,,,,,
,,,,,,,,2023-08-16_08h22.12.698,HF_wild_card,2022.2.4,MacIntel,62.5,5a9bc842873cda0001dcb644,64d2fd46c836a06233681665,64dc790d13d7dc68afa1d3da,,,,,,,ctch,resources/DP.BMP,resources/DBN.BMP,Door3,-0.241111111,-0.023333333,1,0,0,0.745,optionLeft,70,11680,5,41,0,41,0,1,,,,,,,,,,,,,,,,,,,,,,,,,,,,,,,,,,,,,,,
,,,,,,,,2023-08-16_08h22.12.698,HF_wild_card,2022.2.4,MacIntel,62.5,5a9bc842873cda0001dcb644,64d2fd46c836a06233681665,64dc790d13d7dc68afa1d3da,,,,,,,decisionTrl,resources/DB.BMP,resources/DR.BMP,Door4,-0.264444444,0.028888889,1,0,0,0.627,optionLeft,60,11740,5,42,0,42,0,1,,,,,,,,,,,,,,,,,,,,,,,,,,,,,,,,,,,,,,,
,,,,,,,,2023-08-16_08h22.12.698,HF_wild_card,2022.2.4,MacIntel,62.5,5a9bc842873cda0001dcb644,64d2fd46c836a06233681665,64dc790d13d7dc68afa1d3da,,,,,,,ctch,resources/DBN.BMP,resources/DP.BMP,Door3,0.272222222,-0.018888889,1,0,0,0.711,optionRight,70,11810,5,43,0,43,0,1,,,,,,,,,,,,,,,,,,,,,,,,,,,,,,,,,,,,,,,
,,,,,,,,2023-08-16_08h22.12.698,HF_wild_card,2022.2.4,MacIntel,62.5,5a9bc842873cda0001dcb644,64d2fd46c836a06233681665,64dc790d13d7dc68afa1d3da,,,,,,,,,,,,,,,,,,,,,,,,,,4,0,4,0,1,,,,,,,,,,,,,,,,,,,,,,,,,,,,,,,,,,
,,,,,,,,2023-08-16_08h22.12.698,HF_wild_card,2022.2.4,MacIntel,62.5,5a9bc842873cda0001dcb644,64d2fd46c836a06233681665,64dc790d13d7dc68afa1d3da,,,,,,,decisionTrl,resources/DBN.BMP,resources/DY.BMP,Door2,-0.251111111,0.008888889,1,0,0,1.093,optionLeft,20,11830,6,0,0,0,0,1,,,,,,,,,,,,,,,,,,,,,,,,,,,,,,,,,,,,,,,
,,,,,,,,2023-08-16_08h22.12.698,HF_wild_card,2022.2.4,MacIntel,62.5,5a9bc842873cda0001dcb644,64d2fd46c836a06233681665,64dc790d13d7dc68afa1d3da,,,,,,,decisionTrl,resources/DR.BMP,resources/DP.BMP,Door3,0.278888889,-0.031111111,1,0,0,0.661,optionRight,70,11900,6,1,0,1,0,1,,,,,,,,,,,,,,,,,,,,,,,,,,,,,,,,,,,,,,,
,,,,,,,,2023-08-16_08h22.12.698,HF_wild_card,2022.2.4,MacIntel,62.5,5a9bc842873cda0001dcb644,64d2fd46c836a06233681665,64dc790d13d7dc68afa1d3da,,,,,,,decisionTrl,resources/DR.BMP,resources/DY.BMP,WildCard_NonEx,-0.235555556,0.052222222,1,0,0,0.761,optionLeft,45,11945,6,2,0,2,0,1,,,,,,,,,,,,,,,,,,,,,,,,,,,,,,,,,,,,,,,
,,,,,,,,2023-08-16_08h22.12.698,HF_wild_card,2022.2.4,MacIntel,62.5,5a9bc842873cda0001dcb644,64d2fd46c836a06233681665,64dc790d13d7dc68afa1d3da,,,,,,,ctch,resources/DB.BMP,resources/DY.BMP,Door4,-0.225555556,0.018888889,1,0,0,0.647,optionLeft,80,12025,6,3,0,3,0,1,,,,,,,,,,,,,,,,,,,,,,,,,,,,,,,,,,,,,,,
,,,,,,,,2023-08-16_08h22.12.698,HF_wild_card,2022.2.4,MacIntel,62.5,5a9bc842873cda0001dcb644,64d2fd46c836a06233681665,64dc790d13d7dc68afa1d3da,,,,,,,sngl,resources/Empty.png,resources/DB.BMP,Door4,0.305555556,-0.02,1,0,0,0.561,optionRight,80,12105,6,4,0,4,0,1,,,,,,,,,,,,,,,,,,,,,,,,,,,,,,,,,,,,,,,
,,,,,,,,2023-08-16_08h22.12.698,HF_wild_card,2022.2.4,MacIntel,62.5,5a9bc842873cda0001dcb644,64d2fd46c836a06233681665,64dc790d13d7dc68afa1d3da,,,,,,,sngl,resources/Empty.png,resources/DR.BMP,WildCard_NonEx,0.297777778,-0.046666667,1,0,0,0.614,optionRight,45,12150,6,5,0,5,0,1,,,,,,,,,,,,,,,,,,,,,,,,,,,,,,,,,,,,,,,
,,,,,,,,2023-08-16_08h22.12.698,HF_wild_card,2022.2.4,MacIntel,62.5,5a9bc842873cda0001dcb644,64d2fd46c836a06233681665,64dc790d13d7dc68afa1d3da,,,,,,,decisionTrl,resources/DY.BMP,resources/DBN.BMP,Door1,-0.234444444,0.027777778,1,0,0,1.078,optionLeft,30,12180,6,6,0,6,0,1,,,,,,,,,,,,,,,,,,,,,,,,,,,,,,,,,,,,,,,
,,,,,,,,2023-08-16_08h22.12.698,HF_wild_card,2022.2.4,MacIntel,62.5,5a9bc842873cda0001dcb644,64d2fd46c836a06233681665,64dc790d13d7dc68afa1d3da,,,,,,,decisionTrl,resources/DR.BMP,resources/DBN.BMP,WildCard_NonEx,-0.223333333,0.015555556,1,0,0,0.761,optionLeft,55,12235,6,7,0,7,0,1,,,,,,,,,,,,,,,,,,,,,,,,,,,,,,,,,,,,,,,
,,,,,,,,2023-08-16_08h22.12.698,HF_wild_card,2022.2.4,MacIntel,62.5,5a9bc842873cda0001dcb644,64d2fd46c836a06233681665,64dc790d13d7dc68afa1d3da,,,,,,,decisionTrl,resources/DR.BMP,resources/DB.BMP,Door4,0.365555556,-0.078888889,1,0,0,0.945,optionRight,60,12295,6,8,0,8,0,1,,,,,,,,,,,,,,,,,,,,,,,,,,,,,,,,,,,,,,,
,,,,,,,,2023-08-16_08h22.12.698,HF_wild_card,2022.2.4,MacIntel,62.5,5a9bc842873cda0001dcb644,64d2fd46c836a06233681665,64dc790d13d7dc68afa1d3da,,,,,,,decisionTrl,resources/DP.BMP,resources/DB.BMP,Door3,-0.256666667,-0.015555556,1,0,0,0.594,optionLeft,70,12365,6,9,0,9,0,1,,,,,,,,,,,,,,,,,,,,,,,,,,,,,,,,,,,,,,,
,,,,,,,,2023-08-16_08h22.12.698,HF_wild_card,2022.2.4,MacIntel,62.5,5a9bc842873cda0001dcb644,64d2fd46c836a06233681665,64dc790d13d7dc68afa1d3da,,,,,,,sngl,resources/DB.BMP,resources/Empty.png,Door4,-0.318888889,0.02,1,0,0,0.528,optionLeft,60,12425,6,10,0,10,0,1,,,,,,,,,,,,,,,,,,,,,,,,,,,,,,,,,,,,,,,
,,,,,,,,2023-08-16_08h22.12.698,HF_wild_card,2022.2.4,MacIntel,62.5,5a9bc842873cda0001dcb644,64d2fd46c836a06233681665,64dc790d13d7dc68afa1d3da,,,,,,,decisionTrl,resources/DP.BMP,resources/DB.BMP,Door3,-0.296666667,-0.004444444,1,0,0,0.611,optionLeft,70,12495,6,11,0,11,0,1,,,,,,,,,,,,,,,,,,,,,,,,,,,,,,,,,,,,,,,
,,,,,,,,2023-08-16_08h22.12.698,HF_wild_card,2022.2.4,MacIntel,62.5,5a9bc842873cda0001dcb644,64d2fd46c836a06233681665,64dc790d13d7dc68afa1d3da,,,,,,,sngl,resources/DP.BMP,resources/Empty.png,Door3,-0.271111111,0.008888889,1,0,0,0.528,optionLeft,70,12565,6,12,0,12,0,1,,,,,,,,,,,,,,,,,,,,,,,,,,,,,,,,,,,,,,,
,,,,,,,,2023-08-16_08h22.12.698,HF_wild_card,2022.2.4,MacIntel,62.5,5a9bc842873cda0001dcb644,64d2fd46c836a06233681665,64dc790d13d7dc68afa1d3da,,,,,,,decisionTrl,resources/DB.BMP,resources/DP.BMP,Door4,-0.243333333,0.003333333,1,0,0,1.661,optionLeft,80,12645,6,13,0,13,0,1,,,,,,,,,,,,,,,,,,,,,,,,,,,,,,,,,,,,,,,
,,,,,,,,2023-08-16_08h22.12.698,HF_wild_card,2022.2.4,MacIntel,62.5,5a9bc842873cda0001dcb644,64d2fd46c836a06233681665,64dc790d13d7dc68afa1d3da,,,,,,,ctch,resources/DP.BMP,resources/DBN.BMP,Door3,-0.265555556,-0.023333333,1,0,0,0.862,optionLeft,70,12715,6,14,0,14,0,1,,,,,,,,,,,,,,,,,,,,,,,,,,,,,,,,,,,,,,,
,,,,,,,,2023-08-16_08h22.12.698,HF_wild_card,2022.2.4,MacIntel,62.5,5a9bc842873cda0001dcb644,64d2fd46c836a06233681665,64dc790d13d7dc68afa1d3da,,,,,,,decisionTrl,resources/DBN.BMP,resources/DY.BMP,Door1,0.323333333,0.012222222,1,0,0,1.028,optionRight,30,12745,6,15,0,15,0,1,,,,,,,,,,,,,,,,,,,,,,,,,,,,,,,,,,,,,,,
,,,,,,,,2023-08-16_08h22.12.698,HF_wild_card,2022.2.4,MacIntel,62.5,5a9bc842873cda0001dcb644,64d2fd46c836a06233681665,64dc790d13d7dc68afa1d3da,,,,,,,decisionTrl,resources/DP.BMP,resources/DB.BMP,Door3,-0.294444444,-0.007777778,1,0,0,0.595,optionLeft,70,12815,6,16,0,16,0,1,,,,,,,,,,,,,,,,,,,,,,,,,,,,,,,,,,,,,,,
,,,,,,,,2023-08-16_08h22.12.698,HF_wild_card,2022.2.4,MacIntel,62.5,5a9bc842873cda0001dcb644,64d2fd46c836a06233681665,64dc790d13d7dc68afa1d3da,,,,,,,decisionTrl,resources/DY.BMP,resources/DR.BMP,Door1,-0.347777778,0.043333333,1,0,0,0.962,optionLeft,30,12845,6,17,0,17,0,1,,,,,,,,,,,,,,,,,,,,,,,,,,,,,,,,,,,,,,,
,,,,,,,,2023-08-16_08h22.12.698,HF_wild_card,2022.2.4,MacIntel,62.5,5a9bc842873cda0001dcb644,64d2fd46c836a06233681665,64dc790d13d7dc68afa1d3da,,,,,,,decisionTrl,resources/DB.BMP,resources/DP.BMP,Door3,0.324444444,-0.018888889,1,0,0,0.861,optionRight,70,12915,6,18,0,18,0,1,,,,,,,,,,,,,,,,,,,,,,,,,,,,,,,,,,,,,,,
,,,,,,,,2023-08-16_08h22.12.698,HF_wild_card,2022.2.4,MacIntel,62.5,5a9bc842873cda0001dcb644,64d2fd46c836a06233681665,64dc790d13d7dc68afa1d3da,,,,,,,decisionTrl,resources/DY.BMP,resources/DBN.BMP,Door1,-0.417777778,0.016666667,1,0,0,0.844,optionLeft,30,12945,6,19,0,19,0,1,,,,,,,,,,,,,,,,,,,,,,,,,,,,,,,,,,,,,,,
,,,,,,,,2023-08-16_08h22.12.698,HF_wild_card,2022.2.4,MacIntel,62.5,5a9bc842873cda0001dcb644,64d2fd46c836a06233681665,64dc790d13d7dc68afa1d3da,,,,,,,sngl,resources/Empty.png,resources/DBN.BMP,Door2,0.298888889,0.001111111,1,0,0,0.713,optionRight,40,12985,6,20,0,20,0,1,,,,,,,,,,,,,,,,,,,,,,,,,,,,,,,,,,,,,,,
,,,,,,,,2023-08-16_08h22.12.698,HF_wild_card,2022.2.4,MacIntel,62.5,5a9bc842873cda0001dcb644,64d2fd46c836a06233681665,64dc790d13d7dc68afa1d3da,,,,,,,ctch,resources/DY.BMP,resources/DB.BMP,Door1,-0.226666667,-0.015555556,1,0,0,0.877,optionLeft,30,13015,6,21,0,21,0,1,,,,,,,,,,,,,,,,,,,,,,,,,,,,,,,,,,,,,,,
,,,,,,,,2023-08-16_08h22.12.698,HF_wild_card,2022.2.4,MacIntel,62.5,5a9bc842873cda0001dcb644,64d2fd46c836a06233681665,64dc790d13d7dc68afa1d3da,,,,,,,decisionTrl,resources/DP.BMP,resources/DR.BMP,Door3,-0.342222222,0.032222222,1,0,0,0.714,optionLeft,70,13085,6,22,0,22,0,1,,,,,,,,,,,,,,,,,,,,,,,,,,,,,,,,,,,,,,,
,,,,,,,,2023-08-16_08h22.12.698,HF_wild_card,2022.2.4,MacIntel,62.5,5a9bc842873cda0001dcb644,64d2fd46c836a06233681665,64dc790d13d7dc68afa1d3da,,,,,,,sngl,resources/Empty.png,resources/DR.BMP,WildCard_NonEx,0.242222222,0.001111111,1,0,0,0.595,optionRight,55,13140,6,23,0,23,0,1,,,,,,,,,,,,,,,,,,,,,,,,,,,,,,,,,,,,,,,
,,,,,,,,2023-08-16_08h22.12.698,HF_wild_card,2022.2.4,MacIntel,62.5,5a9bc842873cda0001dcb644,64d2fd46c836a06233681665,64dc790d13d7dc68afa1d3da,,,,,,,ctch,resources/DBN.BMP,resources/DP.BMP,Door3,0.418888889,0.041111111,1,0,0,0.91,optionRight,70,13210,6,24,0,24,0,1,,,,,,,,,,,,,,,,,,,,,,,,,,,,,,,,,,,,,,,
,,,,,,,,2023-08-16_08h22.12.698,HF_wild_card,2022.2.4,MacIntel,62.5,5a9bc842873cda0001dcb644,64d2fd46c836a06233681665,64dc790d13d7dc68afa1d3da,,,,,,,decisionTrl,resources/DBN.BMP,resources/DR.BMP,WildCard_NonEx,0.224444444,-0.02,1,0,0,0.927,optionRight,55,13265,6,25,0,25,0,1,,,,,,,,,,,,,,,,,,,,,,,,,,,,,,,,,,,,,,,
,,,,,,,,2023-08-16_08h22.12.698,HF_wild_card,2022.2.4,MacIntel,62.5,5a9bc842873cda0001dcb644,64d2fd46c836a06233681665,64dc790d13d7dc68afa1d3da,,,,,,,decisionTrl,resources/DBN.BMP,resources/DY.BMP,Door1,0.233333333,0.012222222,1,0,0,0.827,optionRight,30,13295,6,26,0,26,0,1,,,,,,,,,,,,,,,,,,,,,,,,,,,,,,,,,,,,,,,
,,,,,,,,2023-08-16_08h22.12.698,HF_wild_card,2022.2.4,MacIntel,62.5,5a9bc842873cda0001dcb644,64d2fd46c836a06233681665,64dc790d13d7dc68afa1d3da,,,,,,,sngl,resources/Empty.png,resources/DY.BMP,Door1,0.343333333,-0.013333333,1,0,0,0.427,optionRight,30,13325,6,27,0,27,0,1,,,,,,,,,,,,,,,,,,,,,,,,,,,,,,,,,,,,,,,
,,,,,,,,2023-08-16_08h22.12.698,HF_wild_card,2022.2.4,MacIntel,62.5,5a9bc842873cda0001dcb644,64d2fd46c836a06233681665,64dc790d13d7dc68afa1d3da,,,,,,,sngl,resources/DBN.BMP,resources/Empty.png,Door2,-0.272222222,0.021111111,1,0,0,0.495,optionLeft,20,13345,6,28,0,28,0,1,,,,,,,,,,,,,,,,,,,,,,,,,,,,,,,,,,,,,,,
,,,,,,,,2023-08-16_08h22.12.698,HF_wild_card,2022.2.4,MacIntel,62.5,5a9bc842873cda0001dcb644,64d2fd46c836a06233681665,64dc790d13d7dc68afa1d3da,,,,,,,decisionTrl,resources/DB.BMP,resources/DP.BMP,Door4,-0.335555556,0.003333333,1,0,0,0.862,optionLeft,80,13425,6,29,0,29,0,1,,,,,,,,,,,,,,,,,,,,,,,,,,,,,,,,,,,,,,,
,,,,,,,,2023-08-16_08h22.12.698,HF_wild_card,2022.2.4,MacIntel,62.5,5a9bc842873cda0001dcb644,64d2fd46c836a06233681665,64dc790d13d7dc68afa1d3da,,,,,,,sngl,resources/DY.BMP,resources/Empty.png,Door1,-0.212222222,-0.05,1,0,0,1.028,optionLeft,30,13455,6,30,0,30,0,1,,,,,,,,,,,,,,,,,,,,,,,,,,,,,,,,,,,,,,,
,,,,,,,,2023-08-16_08h22.12.698,HF_wild_card,2022.2.4,MacIntel,62.5,5a9bc842873cda0001dcb644,64d2fd46c836a06233681665,64dc790d13d7dc68afa1d3da,,,,,,,ctch,resources/DBN.BMP,resources/DP.BMP,Door3,0.273333333,0.016666667,1,0,0,0.644,optionRight,70,13525,6,31,0,31,0,1,,,,,,,,,,,,,,,,,,,,,,,,,,,,,,,,,,,,,,,
,,,,,,,,2023-08-16_08h22.12.698,HF_wild_card,2022.2.4,MacIntel,62.5,5a9bc842873cda0001dcb644,64d2fd46c836a06233681665,64dc790d13d7dc68afa1d3da,,,,,,,sngl,resources/DR.BMP,resources/Empty.png,WildCard_NonEx,-0.277777778,-0.003333333,1,0,0,0.594,optionLeft,55,13580,6,32,0,32,0,1,,,,,,,,,,,,,,,,,,,,,,,,,,,,,,,,,,,,,,,
,,,,,,,,2023-08-16_08h22.12.698,HF_wild_card,2022.2.4,MacIntel,62.5,5a9bc842873cda0001dcb644,64d2fd46c836a06233681665,64dc790d13d7dc68afa1d3da,,,,,,,sngl,resources/DR.BMP,resources/Empty.png,WildCard_NonEx,-0.176666667,-0.036666667,1,0,0,1.16,optionLeft,45,13625,6,33,0,33,0,1,,,,,,,,,,,,,,,,,,,,,,,,,,,,,,,,,,,,,,,
,,,,,,,,2023-08-16_08h22.12.698,HF_wild_card,2022.2.4,MacIntel,62.5,5a9bc842873cda0001dcb644,64d2fd46c836a06233681665,64dc790d13d7dc68afa1d3da,,,,,,,decisionTrl,resources/DP.BMP,resources/DB.BMP,Door3,-0.24,0.012222222,1,0,0,0.927,optionLeft,70,13695,6,34,0,34,0,1,,,,,,,,,,,,,,,,,,,,,,,,,,,,,,,,,,,,,,,
,,,,,,,,2023-08-16_08h22.12.698,HF_wild_card,2022.2.4,MacIntel,62.5,5a9bc842873cda0001dcb644,64d2fd46c836a06233681665,64dc790d13d7dc68afa1d3da,,,,,,,decisionTrl,resources/DB.BMP,resources/DR.BMP,Door4,-0.254444444,0.008888889,1,0,0,0.645,optionLeft,80,13775,6,35,0,35,0,1,,,,,,,,,,,,,,,,,,,,,,,,,,,,,,,,,,,,,,,
,,,,,,,,2023-08-16_08h22.12.698,HF_wild_card,2022.2.4,MacIntel,62.5,5a9bc842873cda0001dcb644,64d2fd46c836a06233681665,64dc790d13d7dc68afa1d3da,,,,,,,ctch,resources/DP.BMP,resources/DBN.BMP,Door3,-0.298888889,-0.012222222,1,0,0,0.612,optionLeft,70,13845,6,36,0,36,0,1,,,,,,,,,,,,,,,,,,,,,,,,,,,,,,,,,,,,,,,
,,,,,,,,2023-08-16_08h22.12.698,HF_wild_card,2022.2.4,MacIntel,62.5,5a9bc842873cda0001dcb644,64d2fd46c836a06233681665,64dc790d13d7dc68afa1d3da,,,,,,,ctch,resources/DB.BMP,resources/DY.BMP,Door4,-0.218888889,0.013333333,1,0,0,0.579,optionLeft,60,13905,6,37,0,37,0,1,,,,,,,,,,,,,,,,,,,,,,,,,,,,,,,,,,,,,,,
,,,,,,,,2023-08-16_08h22.12.698,HF_wild_card,2022.2.4,MacIntel,62.5,5a9bc842873cda0001dcb644,64d2fd46c836a06233681665,64dc790d13d7dc68afa1d3da,,,,,,,sngl,resources/Empty.png,resources/DP.BMP,Door3,0.291111111,-0.042222222,1,0,0,0.645,optionRight,70,13975,6,38,0,38,0,1,,,,,,,,,,,,,,,,,,,,,,,,,,,,,,,,,,,,,,,
,,,,,,,,2023-08-16_08h22.12.698,HF_wild_card,2022.2.4,MacIntel,62.5,5a9bc842873cda0001dcb644,64d2fd46c836a06233681665,64dc790d13d7dc68afa1d3da,,,,,,,decisionTrl,resources/DY.BMP,resources/DBN.BMP,Door1,-0.22,0.005555556,1,0,0,0.894,optionLeft,30,14005,6,39,0,39,0,1,,,,,,,,,,,,,,,,,,,,,,,,,,,,,,,,,,,,,,,
,,,,,,,,2023-08-16_08h22.12.698,HF_wild_card,2022.2.4,MacIntel,62.5,5a9bc842873cda0001dcb644,64d2fd46c836a06233681665,64dc790d13d7dc68afa1d3da,,,,,,,decisionTrl,resources/DBN.BMP,resources/DY.BMP,Door1,0.366666667,0.007777778,1,0,0,0.862,optionRight,30,14035,6,40,0,40,0,1,,,,,,,,,,,,,,,,,,,,,,,,,,,,,,,,,,,,,,,
,,,,,,,,2023-08-16_08h22.12.698,HF_wild_card,2022.2.4,MacIntel,62.5,5a9bc842873cda0001dcb644,64d2fd46c836a06233681665,64dc790d13d7dc68afa1d3da,,,,,,,ctch,resources/DY.BMP,resources/DB.BMP,Door4,0.265555556,0.013333333,1,0,0,1.011,optionRight,60,14095,6,41,0,41,0,1,,,,,,,,,,,,,,,,,,,,,,,,,,,,,,,,,,,,,,,
,,,,,,,,2023-08-16_08h22.12.698,HF_wild_card,2022.2.4,MacIntel,62.5,5a9bc842873cda0001dcb644,64d2fd46c836a06233681665,64dc790d13d7dc68afa1d3da,,,,,,,decisionTrl,resources/DB.BMP,resources/DP.BMP,Door3,0.363333333,0.001111111,1,0,0,0.628,optionRight,70,14165,6,42,0,42,0,1,,,,,,,,,,,,,,,,,,,,,,,,,,,,,,,,,,,,,,,
,,,,,,,,2023-08-16_08h22.12.698,HF_wild_card,2022.2.4,MacIntel,62.5,5a9bc842873cda0001dcb644,64d2fd46c836a06233681665,64dc790d13d7dc68afa1d3da,,,,,,,decisionTrl,resources/DY.BMP,resources/DBN.BMP,Door1,-0.247777778,-0.002222222,1,0,0,1.278,optionLeft,30,14195,6,43,0,43,0,1,,,,,,,,,,,,,,,,,,,,,,,,,,,,,,,,,,,,,,,
,,,,,,,,2023-08-16_08h22.12.698,HF_wild_card,2022.2.4,MacIntel,62.5,5a9bc842873cda0001dcb644,64d2fd46c836a06233681665,64dc790d13d7dc68afa1d3da,,,,,,,,,,,,,,,,,,,,,,,,,,5,0,5,0,1,,,,,,,,,,,,,,,,,,,,,,,,,,,,,,,,,,
,,,,,,,,2023-08-16_08h22.12.698,HF_wild_card,2022.2.4,MacIntel,62.5,5a9bc842873cda0001dcb644,64d2fd46c836a06233681665,64dc790d13d7dc68afa1d3da,,,,,,,decisionTrl,resources/DY.BMP,resources/DBN.BMP,Door1,-0.156666667,-0.052222222,1,0,0,0.825,optionLeft,30,14225,7,0,0,0,0,1,,,,,,,,,,,,,,,,,,,,,,,,,,,,,,,,,,,,,,,
,,,,,,,,2023-08-16_08h22.12.698,HF_wild_card,2022.2.4,MacIntel,62.5,5a9bc842873cda0001dcb644,64d2fd46c836a06233681665,64dc790d13d7dc68afa1d3da,,,,,,,decisionTrl,resources/DBN.BMP,resources/DY.BMP,Door1,0.203333333,0.007777778,1,0,0,0.731,optionRight,30,14255,7,1,0,1,0,1,,,,,,,,,,,,,,,,,,,,,,,,,,,,,,,,,,,,,,,
,,,,,,,,2023-08-16_08h22.12.698,HF_wild_card,2022.2.4,MacIntel,62.5,5a9bc842873cda0001dcb644,64d2fd46c836a06233681665,64dc790d13d7dc68afa1d3da,,,,,,,decisionTrl,resources/DBN.BMP,resources/DY.BMP,Door1,0.384444444,0.003333333,1,0,0,0.632,optionRight,30,14285,7,2,0,2,0,1,,,,,,,,,,,,,,,,,,,,,,,,,,,,,,,,,,,,,,,
,,,,,,,,2023-08-16_08h22.12.698,HF_wild_card,2022.2.4,MacIntel,62.5,5a9bc842873cda0001dcb644,64d2fd46c836a06233681665,64dc790d13d7dc68afa1d3da,,,,,,,ctch,resources/DB.BMP,resources/DY.BMP,Door4,-0.216666667,0.006666667,1,0,0,0.648,optionLeft,80,14365,7,3,0,3,0,1,,,,,,,,,,,,,,,,,,,,,,,,,,,,,,,,,,,,,,,
,,,,,,,,2023-08-16_08h22.12.698,HF_wild_card,2022.2.4,MacIntel,62.5,5a9bc842873cda0001dcb644,64d2fd46c836a06233681665,64dc790d13d7dc68afa1d3da,,,,,,,ctch,resources/DY.BMP,resources/DB.BMP,Door4,0.203333333,-0.024444444,1,0,0,0.914,optionRight,60,14425,7,4,0,4,0,1,,,,,,,,,,,,,,,,,,,,,,,,,,,,,,,,,,,,,,,
,,,,,,,,2023-08-16_08h22.12.698,HF_wild_card,2022.2.4,MacIntel,62.5,5a9bc842873cda0001dcb644,64d2fd46c836a06233681665,64dc790d13d7dc68afa1d3da,,,,,,,decisionTrl,resources/DB.BMP,resources/DP.BMP,Door3,0.311111111,-0.01,1,0,0,0.581,optionRight,70,14495,7,5,0,5,0,1,,,,,,,,,,,,,,,,,,,,,,,,,,,,,,,,,,,,,,,
,,,,,,,,2023-08-16_08h22.12.698,HF_wild_card,2022.2.4,MacIntel,62.5,5a9bc842873cda0001dcb644,64d2fd46c836a06233681665,64dc790d13d7dc68afa1d3da,,,,,,,decisionTrl,resources/DP.BMP,resources/DB.BMP,Door3,-0.234444444,0.001111111,1,0,0,0.746,optionLeft,70,14565,7,6,0,6,0,1,,,,,,,,,,,,,,,,,,,,,,,,,,,,,,,,,,,,,,,
,,,,,,,,2023-08-16_08h22.12.698,HF_wild_card,2022.2.4,MacIntel,62.5,5a9bc842873cda0001dcb644,64d2fd46c836a06233681665,64dc790d13d7dc68afa1d3da,,,,,,,decisionTrl,resources/DY.BMP,resources/DBN.BMP,Door1,-0.264444444,0.037777778,1,0,0,1.831,optionLeft,30,14595,7,7,0,7,0,1,,,,,,,,,,,,,,,,,,,,,,,,,,,,,,,,,,,,,,,
,,,,,,,,2023-08-16_08h22.12.698,HF_wild_card,2022.2.4,MacIntel,62.5,5a9bc842873cda0001dcb644,64d2fd46c836a06233681665,64dc790d13d7dc68afa1d3da,,,,,,,decisionTrl,resources/DP.BMP,resources/DB.BMP,Door3,-0.246666667,0.012222222,1,0,0,1.515,optionLeft,70,14665,7,8,0,8,0,1,,,,,,,,,,,,,,,,,,,,,,,,,,,,,,,,,,,,,,,
,,,,,,,,2023-08-16_08h22.12.698,HF_wild_card,2022.2.4,MacIntel,62.5,5a9bc842873cda0001dcb644,64d2fd46c836a06233681665,64dc790d13d7dc68afa1d3da,,,,,,,decisionTrl,resources/DB.BMP,resources/DP.BMP,Door4,-0.267777778,0.008888889,1,0,0,0.781,optionLeft,80,14745,7,9,0,9,0,1,,,,,,,,,,,,,,,,,,,,,,,,,,,,,,,,,,,,,,,
,,,,,,,,2023-08-16_08h22.12.698,HF_wild_card,2022.2.4,MacIntel,62.5,5a9bc842873cda0001dcb644,64d2fd46c836a06233681665,64dc790d13d7dc68afa1d3da,,,,,,,ctch,resources/DBN.BMP,resources/DP.BMP,Door3,0.336666667,-0.017777778,1,0,0,0.632,optionRight,70,14815,7,10,0,10,0,1,,,,,,,,,,,,,,,,,,,,,,,,,,,,,,,,,,,,,,,
,,,,,,,,2023-08-16_08h22.12.698,HF_wild_card,2022.2.4,MacIntel,62.5,5a9bc842873cda0001dcb644,64d2fd46c836a06233681665,64dc790d13d7dc68afa1d3da,,,,,,,ctch,resources/DBN.BMP,resources/DP.BMP,Door3,0.306666667,0.013333333,1,0,0,0.599,optionRight,70,14885,7,11,0,11,0,1,,,,,,,,,,,,,,,,,,,,,,,,,,,,,,,,,,,,,,,
,,,,,,,,2023-08-16_08h22.12.698,HF_wild_card,2022.2.4,MacIntel,62.5,5a9bc842873cda0001dcb644,64d2fd46c836a06233681665,64dc790d13d7dc68afa1d3da,,,,,,,ctch,resources/DBN.BMP,resources/DP.BMP,Door3,0.291111111,-0.007777778,1,0,0,0.65,optionRight,70,14955,7,12,0,12,0,1,,,,,,,,,,,,,,,,,,,,,,,,,,,,,,,,,,,,,,,
,,,,,,,,2023-08-16_08h22.12.698,HF_wild_card,2022.2.4,MacIntel,62.5,5a9bc842873cda0001dcb644,64d2fd46c836a06233681665,64dc790d13d7dc68afa1d3da,,,,,,,decisionTrl,resources/DP.BMP,resources/DB.BMP,Door4,0.303333333,0.003333333,1,0,0,0.781,optionRight,80,15035,7,13,0,13,0,1,,,,,,,,,,,,,,,,,,,,,,,,,,,,,,,,,,,,,,,
,,,,,,,,2023-08-16_08h22.12.698,HF_wild_card,2022.2.4,MacIntel,62.5,5a9bc842873cda0001dcb644,64d2fd46c836a06233681665,64dc790d13d7dc68afa1d3da,,,,,,,decisionTrl,resources/DB.BMP,resources/DP.BMP,Door4,-0.188888889,0.002222222,1,0,0,0.749,optionLeft,80,15115,7,14,0,14,0,1,,,,,,,,,,,,,,,,,,,,,,,,,,,,,,,,,,,,,,,
,,,,,,,,2023-08-16_08h22.12.698,HF_wild_card,2022.2.4,MacIntel,62.5,5a9bc842873cda0001dcb644,64d2fd46c836a06233681665,64dc790d13d7dc68afa1d3da,,,,,,,decisionTrl,resources/DB.BMP,resources/DP.BMP,Door4,-0.336666667,0.022222222,1,0,0,0.748,optionLeft,60,15175,7,15,0,15,0,1,,,,,,,,,,,,,,,,,,,,,,,,,,,,,,,,,,,,,,,
,,,,,,,,2023-08-16_08h22.12.698,HF_wild_card,2022.2.4,MacIntel,62.5,5a9bc842873cda0001dcb644,64d2fd46c836a06233681665,64dc790d13d7dc68afa1d3da,,,,,,,ctch,resources/DB.BMP,resources/DY.BMP,Door4,-0.257777778,-0.015555556,1,0,0,0.716,optionLeft,80,15255,7,16,0,16,0,1,,,,,,,,,,,,,,,,,,,,,,,,,,,,,,,,,,,,,,,
,,,,,,,,2023-08-16_08h22.12.698,HF_wild_card,2022.2.4,MacIntel,62.5,5a9bc842873cda0001dcb644,64d2fd46c836a06233681665,64dc790d13d7dc68afa1d3da,,,,,,,decisionTrl,resources/DY.BMP,resources/DBN.BMP,Door1,-0.243333333,0.018888889,1,0,0,0.964,optionLeft,30,15285,7,17,0,17,0,1,,,,,,,,,,,,,,,,,,,,,,,,,,,,,,,,,,,,,,,
,,,,,,,,2023-08-16_08h22.12.698,HF_wild_card,2022.2.4,MacIntel,62.5,5a9bc842873cda0001dcb644,64d2fd46c836a06233681665,64dc790d13d7dc68afa1d3da,,,,,,,ctch,resources/DP.BMP,resources/DBN.BMP,Door3,-0.286666667,-0.034444444,1,0,0,0.616,optionLeft,70,15355,7,18,0,18,0,1,,,,,,,,,,,,,,,,,,,,,,,,,,,,,,,,,,,,,,,
,,,,,,,,2023-08-16_08h22.12.698,HF_wild_card,2022.2.4,MacIntel,62.5,5a9bc842873cda0001dcb644,64d2fd46c836a06233681665,64dc790d13d7dc68afa1d3da,,,,,,,decisionTrl,resources/DBN.BMP,resources/DY.BMP,Door1,0.232222222,-0.041111111,1,0,0,0.832,optionRight,30,15385,7,19,0,19,0,1,,,,,,,,,,,,,,,,,,,,,,,,,,,,,,,,,,,,,,,
,,,,,,,,2023-08-16_08h22.12.698,HF_wild_card,2022.2.4,MacIntel,62.5,5a9bc842873cda0001dcb644,64d2fd46c836a06233681665,64dc790d13d7dc68afa1d3da,,,,,,,decisionTrl,resources/DP.BMP,resources/DB.BMP,Door4,0.305555556,-0.05,1,0,0,0.815,optionRight,80,15465,7,20,0,20,0,1,,,,,,,,,,,,,,,,,,,,,,,,,,,,,,,,,,,,,,,
,,,,,,,,2023-08-16_08h22.12.698,HF_wild_card,2022.2.4,MacIntel,62.5,5a9bc842873cda0001dcb644,64d2fd46c836a06233681665,64dc790d13d7dc68afa1d3da,,,,,,,decisionTrl,resources/DBN.BMP,resources/DY.BMP,Door1,0.285555556,-0.003333333,1,0,0,0.715,optionRight,30,15495,7,21,0,21,0,1,,,,,,,,,,,,,,,,,,,,,,,,,,,,,,,,,,,,,,,
,,,,,,,,2023-08-16_08h22.12.698,HF_wild_card,2022.2.4,MacIntel,62.5,5a9bc842873cda0001dcb644,64d2fd46c836a06233681665,64dc790d13d7dc68afa1d3da,,,,,,,ctch,resources/DY.BMP,resources/DB.BMP,Door4,0.245555556,-0.005555556,1,0,0,1.132,optionRight,80,15575,7,22,0,22,0,1,,,,,,,,,,,,,,,,,,,,,,,,,,,,,,,,,,,,,,,
,,,,,,,,2023-08-16_08h22.12.698,HF_wild_card,2022.2.4,MacIntel,62.5,5a9bc842873cda0001dcb644,64d2fd46c836a06233681665,64dc790d13d7dc68afa1d3da,,,,,,,decisionTrl,resources/DBN.BMP,resources/DY.BMP,Door1,0.256666667,-0.01,1,0,0,0.782,optionRight,30,15605,7,23,0,23,0,1,,,,,,,,,,,,,,,,,,,,,,,,,,,,,,,,,,,,,,,
,,,,,,,,2023-08-16_08h22.12.698,HF_wild_card,2022.2.4,MacIntel,62.5,5a9bc842873cda0001dcb644,64d2fd46c836a06233681665,64dc790d13d7dc68afa1d3da,,,,,,,ctch,resources/DP.BMP,resources/DBN.BMP,Door3,-0.253333333,0.005555556,1,0,0,0.649,optionLeft,70,15675,7,24,0,24,0,1,,,,,,,,,,,,,,,,,,,,,,,,,,,,,,,,,,,,,,,
,,,,,,,,2023-08-16_08h22.12.698,HF_wild_card,2022.2.4,MacIntel,62.5,5a9bc842873cda0001dcb644,64d2fd46c836a06233681665,64dc790d13d7dc68afa1d3da,,,,,,,ctch,resources/DP.BMP,resources/DBN.BMP,Door3,-0.24,-0.003333333,1,0,0,0.632,optionLeft,70,15745,7,25,0,25,0,1,,,,,,,,,,,,,,,,,,,,,,,,,,,,,,,,,,,,,,,
,,,,,,,,2023-08-16_08h22.12.698,HF_wild_card,2022.2.4,MacIntel,62.5,5a9bc842873cda0001dcb644,64d2fd46c836a06233681665,64dc790d13d7dc68afa1d3da,,,,,,,decisionTrl,resources/DB.BMP,resources/DP.BMP,Door4,-0.274444444,0.028888889,1,0,0,0.832,optionLeft,60,15805,7,26,0,26,0,1,,,,,,,,,,,,,,,,,,,,,,,,,,,,,,,,,,,,,,,
,,,,,,,,2023-08-16_08h22.12.698,HF_wild_card,2022.2.4,MacIntel,62.5,5a9bc842873cda0001dcb644,64d2fd46c836a06233681665,64dc790d13d7dc68afa1d3da,,,,,,,decisionTrl,resources/DB.BMP,resources/DP.BMP,Door4,-0.274444444,-0.004444444,1,0,0,0.699,optionLeft,60,15865,7,27,0,27,0,1,,,,,,,,,,,,,,,,,,,,,,,,,,,,,,,,,,,,,,,
,,,,,,,,2023-08-16_08h22.12.698,HF_wild_card,2022.2.4,MacIntel,62.5,5a9bc842873cda0001dcb644,64d2fd46c836a06233681665,64dc790d13d7dc68afa1d3da,,,,,,,decisionTrl,resources/DY.BMP,resources/DBN.BMP,Door1,-0.321111111,0.022222222,1,0,0,1.181,optionLeft,30,15895,7,28,0,28,0,1,,,,,,,,,,,,,,,,,,,,,,,,,,,,,,,,,,,,,,,
,,,,,,,,2023-08-16_08h22.12.698,HF_wild_card,2022.2.4,MacIntel,62.5,5a9bc842873cda0001dcb644,64d2fd46c836a06233681665,64dc790d13d7dc68afa1d3da,,,,,,,decisionTrl,resources/DP.BMP,resources/DB.BMP,Door4,0.332222222,-0.011111111,1,0,0,0.915,optionRight,80,15975,7,29,0,29,0,1,,,,,,,,,,,,,,,,,,,,,,,,,,,,,,,,,,,,,,,
,,,,,,,,2023-08-16_08h22.12.698,HF_wild_card,2022.2.4,MacIntel,62.5,5a9bc842873cda0001dcb644,64d2fd46c836a06233681665,64dc790d13d7dc68afa1d3da,,,,,,,decisionTrl,resources/DP.BMP,resources/DB.BMP,Door4,0.313333333,-0.02,1,0,0,1.215,optionRight,60,16035,7,30,0,30,0,1,,,,,,,,,,,,,,,,,,,,,,,,,,,,,,,,,,,,,,,
,,,,,,,,2023-08-16_08h22.12.698,HF_wild_card,2022.2.4,MacIntel,62.5,5a9bc842873cda0001dcb644,64d2fd46c836a06233681665,64dc790d13d7dc68afa1d3da,,,,,,,ctch,resources/DY.BMP,resources/DB.BMP,Door4,0.216666667,-0.002222222,1,0,0,0.999,optionRight,60,16095,7,31,0,31,0,1,,,,,,,,,,,,,,,,,,,,,,,,,,,,,,,,,,,,,,,
,,,,,,,,2023-08-16_08h22.12.698,HF_wild_card,2022.2.4,MacIntel,62.5,5a9bc842873cda0001dcb644,64d2fd46c836a06233681665,64dc790d13d7dc68afa1d3da,,,,,,,decisionTrl,resources/DY.BMP,resources/DBN.BMP,Door1,-0.255555556,0.004444444,1,0,0,0.782,optionLeft,30,16125,7,32,0,32,0,1,,,,,,,,,,,,,,,,,,,,,,,,,,,,,,,,,,,,,,,
,,,,,,,,2023-08-16_08h22.12.698,HF_wild_card,2022.2.4,MacIntel,62.5,5a9bc842873cda0001dcb644,64d2fd46c836a06233681665,64dc790d13d7dc68afa1d3da,,,,,,,ctch,resources/DB.BMP,resources/DY.BMP,Door4,-0.256666667,-0.001111111,1,0,0,0.681,optionLeft,80,16205,7,33,0,33,0,1,,,,,,,,,,,,,,,,,,,,,,,,,,,,,,,,,,,,,,,
,,,,,,,,2023-08-16_08h22.12.698,HF_wild_card,2022.2.4,MacIntel,62.5,5a9bc842873cda0001dcb644,64d2fd46c836a06233681665,64dc790d13d7dc68afa1d3da,,,,,,,decisionTrl,resources/DY.BMP,resources/DBN.BMP,Door1,-0.262222222,-0.01,1,0,0,0.832,optionLeft,30,16235,7,34,0,34,0,1,,,,,,,,,,,,,,,,,,,,,,,,,,,,,,,,,,,,,,,
,,,,,,,,2023-08-16_08h22.12.698,HF_wild_card,2022.2.4,MacIntel,62.5,5a9bc842873cda0001dcb644,64d2fd46c836a06233681665,64dc790d13d7dc68afa1d3da,,,,,,,decisionTrl,resources/DBN.BMP,resources/DY.BMP,Door1,0.344444444,-0.033333333,1,0,0,0.765,optionRight,30,16265,7,35,0,35,0,1,,,,,,,,,,,,,,,,,,,,,,,,,,,,,,,,,,,,,,,
,,,,,,,,2023-08-16_08h22.12.698,HF_wild_card,2022.2.4,MacIntel,62.5,5a9bc842873cda0001dcb644,64d2fd46c836a06233681665,64dc790d13d7dc68afa1d3da,,,,,,,,,,,,,,,,,,,,,,,,,,6,0,6,0,1,,,,,,,,,,,,,,,,,,,,,,,,,,,,,,,,,,
,,,,,,,,2023-08-16_08h22.12.698,HF_wild_card,2022.2.4,MacIntel,62.5,5a9bc842873cda0001dcb644,64d2fd46c836a06233681665,64dc790d13d7dc68afa1d3da,,,,,,,,,,,,,,,,,,,,,,,,,,,,,,,4,,,,,,,,,,,,,,,,,,,,,,,,,,,,,,,,,
,,,,,,,,2023-08-16_08h22.12.698,HF_wild_card,2022.2.4,MacIntel,62.5,5a9bc842873cda0001dcb644,64d2fd46c836a06233681665,64dc790d13d7dc68afa1d3da,,,,,,,,,,,,,,,,,,,,,,,,,,,,,,,,,,,,,,,,,,,,,,,,,,,,,,,,,,,,,,,,
,,,,,,,,2023-08-16_08h22.12.698,HF_wild_card,2022.2.4,MacIntel,62.5,5a9bc842873cda0001dcb644,64d2fd46c836a06233681665,64dc790d13d7dc68afa1d3da,,,,,,,,,,,,,,,,,,,,,,,,,,,,,,,,55,WC_nonExtreme,resources/DR.BMP,0,0,0,0,1,,,,,,,,,,,,,,,,,,,,,,,,,
,,,,,,,,2023-08-16_08h22.12.698,HF_wild_card,2022.2.4,MacIntel,62.5,5a9bc842873cda0001dcb644,64d2fd46c836a06233681665,64dc790d13d7dc68afa1d3da,,,,,,,,,,,,,,,,,,,,,,,,,,,,,,,,60,WC_extreme,resources/DG.BMP,1,0,1,0,1,,,,,,,,,,,,,,,,,,,,,,,,,
,,,,,,,,2023-08-16_08h22.12.698,HF_wild_card,2022.2.4,MacIntel,62.5,5a9bc842873cda0001dcb644,64d2fd46c836a06233681665,64dc790d13d7dc68afa1d3da,,,,,,,,,,,,,,,,,,,,,,,,,,,,,,,,70,Door3,resources/DP.BMP,2,0,2,0,1,,,,,,,,,,,,,,,,,,,,,,,,,
,,,,,,,,2023-08-16_08h22.12.698,HF_wild_card,2022.2.4,MacIntel,62.5,5a9bc842873cda0001dcb644,64d2fd46c836a06233681665,64dc790d13d7dc68afa1d3da,,,,,,,,,,,,,,,,,,,,,,,,,,,,,,,,80,Door4,resources/DB.BMP,3,0,3,0,1,,,,,,,,,,,,,,,,,,,,,,,,,
,,,,,,,,2023-08-16_08h22.12.698,HF_wild_card,2022.2.4,MacIntel,62.5,5a9bc842873cda0001dcb644,64d2fd46c836a06233681665,64dc790d13d7dc68afa1d3da,,,,,,,,,,,,,,,,,,,,,,,,,,,,,,,,30,Door1,resources/DY.BMP,4,0,4,0,1,,,,,,,,,,,,,,,,,,,,,,,,,
,,,,,,,,2023-08-16_08h22.12.698,HF_wild_card,2022.2.4,MacIntel,62.5,5a9bc842873cda0001dcb644,64d2fd46c836a06233681665,64dc790d13d7dc68afa1d3da,,,,,,,,,,,,,,,,,,,,,,,,,,,,,,,,20,Door2,resources/DBN.BMP,5,0,5,0,1,,,,,,,,,,,,,,,,,,,,,,,,,
,,,,,,,,2023-08-16_08h22.12.698,HF_wild_card,2022.2.4,MacIntel,62.5,5a9bc842873cda0001dcb644,64d2fd46c836a06233681665,64dc790d13d7dc68afa1d3da,,,,,,,,,,,,,,,,,,,,,,,,,,,,,,,,,,,,,,,,,,,,,,,,,,,,,,,,,,,,,,,,
,,,,,,,,2023-08-16_08h22.12.698,HF_wild_card,2022.2.4,MacIntel,62.5,5a9bc842873cda0001dcb644,64d2fd46c836a06233681665,64dc790d13d7dc68afa1d3da,,,,,,,,,,,,,,,,,,,,,,,,,,,,,,,,,,,,,,,,0,0,0,0,1,,,,,,,,,,,,,,,,,,,,
,,,,,,,,2023-08-16_08h22.12.698,HF_wild_card,2022.2.4,MacIntel,62.5,5a9bc842873cda0001dcb644,64d2fd46c836a06233681665,64dc790d13d7dc68afa1d3da,,,,,,,,,,,,,,,,,,,,,,,,,,,,,,,,,,,,,,,,1,0,1,0,1,,,,,,,,,,,,,,,,,,,,
,,,,,,,,2023-08-16_08h22.12.698,HF_wild_card,2022.2.4,MacIntel,62.5,5a9bc842873cda0001dcb644,64d2fd46c836a06233681665,64dc790d13d7dc68afa1d3da,,,,,,,,,,,,,,,,,,,,,,,,,,,,,,,,,,,,,,,,,,,,,0.291111111,-0.397777778,1,0,0,no,0,0,0,0,1,,,,,,,,,
,,,,,,,,2023-08-16_08h22.12.698,HF_wild_card,2022.2.4,MacIntel,62.5,5a9bc842873cda0001dcb644,64d2fd46c836a06233681665,64dc790d13d7dc68afa1d3da,,,,,,,,,,,,,,,,,,,,,,,,,,,,,,,,,,,,,,,,0,0,0,0,1,,,,,,,,,,,,,,,,,,,,
,,,,,,,,2023-08-16_08h22.12.698,HF_wild_card,2022.2.4,MacIntel,62.5,5a9bc842873cda0001dcb644,64d2fd46c836a06233681665,64dc790d13d7dc68afa1d3da,,,,,,,,,,,,,,,,,,,,,,,,,,,,,,,,,,,,,,,,1,0,1,0,1,,,,,,,,,,,,,,,,,,,,
,,,,,,,,2023-08-16_08h22.12.698,HF_wild_card,2022.2.4,MacIntel,62.5,5a9bc842873cda0001dcb644,64d2fd46c836a06233681665,64dc790d13d7dc68afa1d3da,,,,,,,,,,,,,,,,,,,,,,,,,,,,,,,,,,,,,,,,,,,,,-0.258888889,-0.402222222,1,0,0,yes,1,0,1,0,1,20%,80%,Door4,resources/DB.BMP,,,,,
,,,,,,,,2023-08-16_08h22.12.698,HF_wild_card,2022.2.4,MacIntel,62.5,5a9bc842873cda0001dcb644,64d2fd46c836a06233681665,64dc790d13d7dc68afa1d3da,,,,,,,,,,,,,,,,,,,,,,,,,,,,,,,,,,,,,,,,,,,,,,,,,,,,,,,,,,,,0,0,0,0,1
,,,,,,,,2023-08-16_08h22.12.698,HF_wild_card,2022.2.4,MacIntel,62.5,5a9bc842873cda0001dcb644,64d2fd46c836a06233681665,64dc790d13d7dc68afa1d3da,,,,,,,,,,,,,,,,,,,,,,,,,,,,,,,,,,,,,,,,0,0,0,0,1,,,,,,,,,,,,,,,,,,,,
,,,,,,,,2023-08-16_08h22.12.698,HF_wild_card,2022.2.4,MacIntel,62.5,5a9bc842873cda0001dcb644,64d2fd46c836a06233681665,64dc790d13d7dc68afa1d3da,,,,,,,,,,,,,,,,,,,,,,,,,,,,,,,,,,,,,,,,1,0,1,0,1,,,,,,,,,,,,,,,,,,,,
