Condition,Low fixed image (Door1),Low risky image (Door2),High fixed image (Door3),High risky image (Door4),Extreme Wild Card,NonExtreme Wild Card,,date,expName,psychopyVersion,OS,frameRate,PROLIFIC_PID,STUDY_ID,SESSION_ID,mouse_2.x,mouse_2.y,mouse_2.leftButton,mouse_2.midButton,mouse_2.rightButton,mouse_2.clicked_name,Trial Type,Left Option Image,Right Option Image,Chosen Door,mouse.x,mouse.y,mouse.leftButton,mouse.midButton,mouse.rightButton,mouse.time,mouse.clicked_name,Feedback,Cumulative Reward,Block,trial.thisRepN,trial.thisTrialN,trial.thisN,trial.thisIndex,trial.ran,blocks.thisRepN,blocks.thisTrialN,blocks.thisN,blocks.thisIndex,blocks.ran,Money conversion,First Outcome Reported,Shown Door (First Outcome),Displayed Image (First Outcome),outcomes.thisRepN,outcomes.thisTrialN,outcomes.thisN,outcomes.thisIndex,outcomes.ran,judgments.thisRepN,judgments.thisTrialN,judgments.thisN,judgments.thisIndex,judgments.ran,freqMouse.x,freqMouse.y,freqMouse.leftButton,freqMouse.midButton,freqMouse.rightButton,freqMouse.clicked_name,FQJ for first outcome,FQJ for second outcome,Shown Door,Displayed Image,trials.thisRepN,trials.thisTrialN,trials.thisN,trials.thisIndex,trials.ran,judgBlock.thisRepN,judgBlock.thisTrialN,judgBlock.thisN,judgBlock.thisIndex,judgBlock.ran
1,resources/DP.BMP,resources/DB.BMP,resources/DBN.BMP,resources/DY.BMP,resources/DR.BMP,resources/DG.BMP,,2023-08-16_07h47.12.862,HF_wild_card,2022.2.4,Win32,59.07372401,5c9224087a7067000190b119,64d2fd46c836a06233681665,64dc7ef3c14e3476108b8b2d,,,,,,,,,,,,,,,,,,,,,,,,,,,,,,,,,,,,,,,,,,,,,,,,,,,,,,,,,,,,,,,,
,,,,,,,,2023-08-16_07h47.12.862,HF_wild_card,2022.2.4,Win32,59.07372401,5c9224087a7067000190b119,64d2fd46c836a06233681665,64dc7ef3c14e3476108b8b2d,-0.005555556,-0.412962963,1,0,0,agree,,,,,,,,,,,,,,,,,,,,,,,,,,,,,,,,,,,,,,,,,,,,,,,,,,,,,,,,,,
,,,,,,,,2023-08-16_07h47.12.862,HF_wild_card,2022.2.4,Win32,59.07372401,5c9224087a7067000190b119,64d2fd46c836a06233681665,64dc7ef3c14e3476108b8b2d,,,,,,,,,,,,,,,,,,,,,,,,,,,,,,,,,,,,,,,,,,,,,,,,,,,,,,,,,,,,,,,,
,,,,,,,,2023-08-16_07h47.12.862,HF_wild_card,2022.2.4,Win32,59.07372401,5c9224087a7067000190b119,64d2fd46c836a06233681665,64dc7ef3c14e3476108b8b2d,,,,,,,decisionTrl,resources/DP.BMP,resources/DB.BMP,Door1,-0.017592593,-0.089814815,1,0,0,2.6048,optionLeft,30,30,1,0,0,0,0,1,,,,,,,,,,,,,,,,,,,,,,,,,,,,,,,,,,,,,,,
,,,,,,,,2023-08-16_07h47.12.862,HF_wild_card,2022.2.4,Win32,59.07372401,5c9224087a7067000190b119,64d2fd46c836a06233681665,64dc7ef3c14e3476108b8b2d,,,,,,,sngl,resources/Empty.png,resources/DY.BMP,Door4,0.389814815,-0.026851852,1,0,0,1.2054,optionRight,60,90,1,1,0,1,0,1,,,,,,,,,,,,,,,,,,,,,,,,,,,,,,,,,,,,,,,
,,,,,,,,2023-08-16_07h47.12.862,HF_wild_card,2022.2.4,Win32,59.07372401,5c9224087a7067000190b119,64d2fd46c836a06233681665,64dc7ef3c14e3476108b8b2d,,,,,,,ctch,resources/DBN.BMP,resources/DB.BMP,Door2,0.319444444,-0.044444444,1,0,0,1.4123,optionRight,40,130,1,2,0,2,0,1,,,,,,,,,,,,,,,,,,,,,,,,,,,,,,,,,,,,,,,
,,,,,,,,2023-08-16_07h47.12.862,HF_wild_card,2022.2.4,Win32,59.07372401,5c9224087a7067000190b119,64d2fd46c836a06233681665,64dc7ef3c14e3476108b8b2d,,,,,,,decisionTrl,resources/DBN.BMP,resources/DY.BMP,Door4,0.346296296,-0.025925926,1,0,0,1.4288,optionRight,60,190,1,3,0,3,0,1,,,,,,,,,,,,,,,,,,,,,,,,,,,,,,,,,,,,,,,
,,,,,,,,2023-08-16_07h47.12.862,HF_wild_card,2022.2.4,Win32,59.07372401,5c9224087a7067000190b119,64d2fd46c836a06233681665,64dc7ef3c14e3476108b8b2d,,,,,,,decisionTrl,resources/DBN.BMP,resources/DY.BMP,Door4,0.296296296,-0.037962963,1,0,0,1.3097,optionRight,80,270,1,4,0,4,0,1,,,,,,,,,,,,,,,,,,,,,,,,,,,,,,,,,,,,,,,
,,,,,,,,2023-08-16_07h47.12.862,HF_wild_card,2022.2.4,Win32,59.07372401,5c9224087a7067000190b119,64d2fd46c836a06233681665,64dc7ef3c14e3476108b8b2d,,,,,,,decisionTrl,resources/DB.BMP,resources/DP.BMP,Door2,-0.330555556,-0.012037037,1,0,0,1.3624,optionLeft,20,290,1,5,0,5,0,1,,,,,,,,,,,,,,,,,,,,,,,,,,,,,,,,,,,,,,,
,,,,,,,,2023-08-16_07h47.12.862,HF_wild_card,2022.2.4,Win32,59.07372401,5c9224087a7067000190b119,64d2fd46c836a06233681665,64dc7ef3c14e3476108b8b2d,,,,,,,sngl,resources/DG.BMP,resources/Empty.png,WildCard_NonEx,-0.381481481,0.012037037,1,0,0,1.0138,optionLeft,45,335,1,6,0,6,0,1,,,,,,,,,,,,,,,,,,,,,,,,,,,,,,,,,,,,,,,
,,,,,,,,2023-08-16_07h47.12.862,HF_wild_card,2022.2.4,Win32,59.07372401,5c9224087a7067000190b119,64d2fd46c836a06233681665,64dc7ef3c14e3476108b8b2d,,,,,,,sngl,resources/Empty.png,resources/DBN.BMP,Door3,0.396296296,-0.049074074,1,0,0,0.596,optionRight,70,405,1,7,0,7,0,1,,,,,,,,,,,,,,,,,,,,,,,,,,,,,,,,,,,,,,,
,,,,,,,,2023-08-16_07h47.12.862,HF_wild_card,2022.2.4,Win32,59.07372401,5c9224087a7067000190b119,64d2fd46c836a06233681665,64dc7ef3c14e3476108b8b2d,,,,,,,decisionTrl,resources/DBN.BMP,resources/DG.BMP,Door3,-0.358333333,0.015740741,1,0,0,0.6589,optionLeft,70,475,1,8,0,8,0,1,,,,,,,,,,,,,,,,,,,,,,,,,,,,,,,,,,,,,,,
,,,,,,,,2023-08-16_07h47.12.862,HF_wild_card,2022.2.4,Win32,59.07372401,5c9224087a7067000190b119,64d2fd46c836a06233681665,64dc7ef3c14e3476108b8b2d,,,,,,,sngl,resources/DY.BMP,resources/Empty.png,Door4,-0.373148148,0.015740741,1,0,0,0.6613,optionLeft,80,555,1,9,0,9,0,1,,,,,,,,,,,,,,,,,,,,,,,,,,,,,,,,,,,,,,,
,,,,,,,,2023-08-16_07h47.12.862,HF_wild_card,2022.2.4,Win32,59.07372401,5c9224087a7067000190b119,64d2fd46c836a06233681665,64dc7ef3c14e3476108b8b2d,,,,,,,ctch,resources/DB.BMP,resources/DBN.BMP,Door3,0.249074074,-0.007407407,1,0,0,0.8301,optionRight,70,625,1,10,0,10,0,1,,,,,,,,,,,,,,,,,,,,,,,,,,,,,,,,,,,,,,,
,,,,,,,,2023-08-16_07h47.12.862,HF_wild_card,2022.2.4,Win32,59.07372401,5c9224087a7067000190b119,64d2fd46c836a06233681665,64dc7ef3c14e3476108b8b2d,,,,,,,ctch,resources/DY.BMP,resources/DP.BMP,Door1,0.283333333,-0.041666667,1,0,0,0.7796,optionRight,30,655,1,11,0,11,0,1,,,,,,,,,,,,,,,,,,,,,,,,,,,,,,,,,,,,,,,
,,,,,,,,2023-08-16_07h47.12.862,HF_wild_card,2022.2.4,Win32,59.07372401,5c9224087a7067000190b119,64d2fd46c836a06233681665,64dc7ef3c14e3476108b8b2d,,,,,,,sngl,resources/DG.BMP,resources/Empty.png,WildCard_NonEx,-0.272222222,-0.012962963,1,0,0,0.5789,optionLeft,55,710,1,12,0,12,0,1,,,,,,,,,,,,,,,,,,,,,,,,,,,,,,,,,,,,,,,
,,,,,,,,2023-08-16_07h47.12.862,HF_wild_card,2022.2.4,Win32,59.07372401,5c9224087a7067000190b119,64d2fd46c836a06233681665,64dc7ef3c14e3476108b8b2d,,,,,,,ctch,resources/DY.BMP,resources/DP.BMP,Door1,0.275925926,-0.02037037,1,0,0,0.6595,optionRight,30,740,1,13,0,13,0,1,,,,,,,,,,,,,,,,,,,,,,,,,,,,,,,,,,,,,,,
,,,,,,,,2023-08-16_07h47.12.862,HF_wild_card,2022.2.4,Win32,59.07372401,5c9224087a7067000190b119,64d2fd46c836a06233681665,64dc7ef3c14e3476108b8b2d,,,,,,,decisionTrl,resources/DG.BMP,resources/DB.BMP,WildCard_NonEx,-0.327777778,-0.007407407,1,0,0,0.663,optionLeft,45,785,1,14,0,14,0,1,,,,,,,,,,,,,,,,,,,,,,,,,,,,,,,,,,,,,,,
,,,,,,,,2023-08-16_07h47.12.862,HF_wild_card,2022.2.4,Win32,59.07372401,5c9224087a7067000190b119,64d2fd46c836a06233681665,64dc7ef3c14e3476108b8b2d,,,,,,,decisionTrl,resources/DB.BMP,resources/DP.BMP,Door1,0.291666667,-0.033333333,1,0,0,0.6298,optionRight,30,815,1,15,0,15,0,1,,,,,,,,,,,,,,,,,,,,,,,,,,,,,,,,,,,,,,,
,,,,,,,,2023-08-16_07h47.12.862,HF_wild_card,2022.2.4,Win32,59.07372401,5c9224087a7067000190b119,64d2fd46c836a06233681665,64dc7ef3c14e3476108b8b2d,,,,,,,sngl,resources/Empty.png,resources/DG.BMP,WildCard_NonEx,0.324074074,-0.008333333,1,0,0,0.6124,optionRight,45,860,1,16,0,16,0,1,,,,,,,,,,,,,,,,,,,,,,,,,,,,,,,,,,,,,,,
,,,,,,,,2023-08-16_07h47.12.862,HF_wild_card,2022.2.4,Win32,59.07372401,5c9224087a7067000190b119,64d2fd46c836a06233681665,64dc7ef3c14e3476108b8b2d,,,,,,,decisionTrl,resources/DP.BMP,resources/DB.BMP,Door1,-0.281481481,0.005555556,1,0,0,0.5629,optionLeft,30,890,1,17,0,17,0,1,,,,,,,,,,,,,,,,,,,,,,,,,,,,,,,,,,,,,,,
,,,,,,,,2023-08-16_07h47.12.862,HF_wild_card,2022.2.4,Win32,59.07372401,5c9224087a7067000190b119,64d2fd46c836a06233681665,64dc7ef3c14e3476108b8b2d,,,,,,,sngl,resources/Empty.png,resources/DB.BMP,Door2,0.280555556,-0.025,1,0,0,0.5314,optionRight,20,910,1,18,0,18,0,1,,,,,,,,,,,,,,,,,,,,,,,,,,,,,,,,,,,,,,,
,,,,,,,,2023-08-16_07h47.12.862,HF_wild_card,2022.2.4,Win32,59.07372401,5c9224087a7067000190b119,64d2fd46c836a06233681665,64dc7ef3c14e3476108b8b2d,,,,,,,decisionTrl,resources/DBN.BMP,resources/DY.BMP,Door3,-0.288888889,-0.00462963,1,0,0,0.7434,optionLeft,70,980,1,19,0,19,0,1,,,,,,,,,,,,,,,,,,,,,,,,,,,,,,,,,,,,,,,
,,,,,,,,2023-08-16_07h47.12.862,HF_wild_card,2022.2.4,Win32,59.07372401,5c9224087a7067000190b119,64d2fd46c836a06233681665,64dc7ef3c14e3476108b8b2d,,,,,,,ctch,resources/DB.BMP,resources/DBN.BMP,Door3,0.308333333,-0.028703704,1,0,0,0.693,optionRight,70,1050,1,20,0,20,0,1,,,,,,,,,,,,,,,,,,,,,,,,,,,,,,,,,,,,,,,
,,,,,,,,2023-08-16_07h47.12.862,HF_wild_card,2022.2.4,Win32,59.07372401,5c9224087a7067000190b119,64d2fd46c836a06233681665,64dc7ef3c14e3476108b8b2d,,,,,,,decisionTrl,resources/DG.BMP,resources/DP.BMP,Door1,0.259259259,-0.014814815,1,0,0,0.7293,optionRight,30,1080,1,21,0,21,0,1,,,,,,,,,,,,,,,,,,,,,,,,,,,,,,,,,,,,,,,
,,,,,,,,2023-08-16_07h47.12.862,HF_wild_card,2022.2.4,Win32,59.07372401,5c9224087a7067000190b119,64d2fd46c836a06233681665,64dc7ef3c14e3476108b8b2d,,,,,,,sngl,resources/DP.BMP,resources/Empty.png,Door1,-0.266666667,-0.006481481,1,0,0,0.6141,optionLeft,30,1110,1,22,0,22,0,1,,,,,,,,,,,,,,,,,,,,,,,,,,,,,,,,,,,,,,,
,,,,,,,,2023-08-16_07h47.12.862,HF_wild_card,2022.2.4,Win32,59.07372401,5c9224087a7067000190b119,64d2fd46c836a06233681665,64dc7ef3c14e3476108b8b2d,,,,,,,decisionTrl,resources/DP.BMP,resources/DB.BMP,Door2,0.256481481,-0.038888889,1,0,0,0.796,optionRight,20,1130,1,23,0,23,0,1,,,,,,,,,,,,,,,,,,,,,,,,,,,,,,,,,,,,,,,
,,,,,,,,2023-08-16_07h47.12.862,HF_wild_card,2022.2.4,Win32,59.07372401,5c9224087a7067000190b119,64d2fd46c836a06233681665,64dc7ef3c14e3476108b8b2d,,,,,,,decisionTrl,resources/DB.BMP,resources/DG.BMP,WildCard_NonEx,0.39537037,-0.034259259,1,0,0,1.1959,optionRight,45,1175,1,24,0,24,0,1,,,,,,,,,,,,,,,,,,,,,,,,,,,,,,,,,,,,,,,
,,,,,,,,2023-08-16_07h47.12.862,HF_wild_card,2022.2.4,Win32,59.07372401,5c9224087a7067000190b119,64d2fd46c836a06233681665,64dc7ef3c14e3476108b8b2d,,,,,,,decisionTrl,resources/DG.BMP,resources/DBN.BMP,Door3,0.228703704,-0.036111111,1,0,0,0.9135,optionRight,70,1245,1,25,0,25,0,1,,,,,,,,,,,,,,,,,,,,,,,,,,,,,,,,,,,,,,,
,,,,,,,,2023-08-16_07h47.12.862,HF_wild_card,2022.2.4,Win32,59.07372401,5c9224087a7067000190b119,64d2fd46c836a06233681665,64dc7ef3c14e3476108b8b2d,,,,,,,ctch,resources/DP.BMP,resources/DY.BMP,Door4,0.303703704,-0.064814815,1,0,0,0.8796,optionRight,60,1305,1,26,0,26,0,1,,,,,,,,,,,,,,,,,,,,,,,,,,,,,,,,,,,,,,,
,,,,,,,,2023-08-16_07h47.12.862,HF_wild_card,2022.2.4,Win32,59.07372401,5c9224087a7067000190b119,64d2fd46c836a06233681665,64dc7ef3c14e3476108b8b2d,,,,,,,decisionTrl,resources/DB.BMP,resources/DP.BMP,Door1,0.307407407,-0.064814815,1,0,0,1.6791,optionRight,30,1335,1,27,0,27,0,1,,,,,,,,,,,,,,,,,,,,,,,,,,,,,,,,,,,,,,,
,,,,,,,,2023-08-16_07h47.12.862,HF_wild_card,2022.2.4,Win32,59.07372401,5c9224087a7067000190b119,64d2fd46c836a06233681665,64dc7ef3c14e3476108b8b2d,,,,,,,decisionTrl,resources/DY.BMP,resources/DBN.BMP,Door3,0.338888889,-0.046296296,1,0,0,0.8599,optionRight,70,1405,1,28,0,28,0,1,,,,,,,,,,,,,,,,,,,,,,,,,,,,,,,,,,,,,,,
,,,,,,,,2023-08-16_07h47.12.862,HF_wild_card,2022.2.4,Win32,59.07372401,5c9224087a7067000190b119,64d2fd46c836a06233681665,64dc7ef3c14e3476108b8b2d,,,,,,,decisionTrl,resources/DBN.BMP,resources/DY.BMP,Door3,-0.363888889,-0.032407407,1,0,0,0.8459,optionLeft,70,1475,1,29,0,29,0,1,,,,,,,,,,,,,,,,,,,,,,,,,,,,,,,,,,,,,,,
,,,,,,,,2023-08-16_07h47.12.862,HF_wild_card,2022.2.4,Win32,59.07372401,5c9224087a7067000190b119,64d2fd46c836a06233681665,64dc7ef3c14e3476108b8b2d,,,,,,,sngl,resources/Empty.png,resources/DG.BMP,WildCard_NonEx,0.187962963,0,1,0,0,0.6793,optionRight,55,1530,1,30,0,30,0,1,,,,,,,,,,,,,,,,,,,,,,,,,,,,,,,,,,,,,,,
,,,,,,,,2023-08-16_07h47.12.862,HF_wild_card,2022.2.4,Win32,59.07372401,5c9224087a7067000190b119,64d2fd46c836a06233681665,64dc7ef3c14e3476108b8b2d,,,,,,,decisionTrl,resources/DB.BMP,resources/DP.BMP,Door1,0.175,-0.037037037,1,0,0,0.926,optionRight,30,1560,1,31,0,31,0,1,,,,,,,,,,,,,,,,,,,,,,,,,,,,,,,,,,,,,,,
,,,,,,,,2023-08-16_07h47.12.862,HF_wild_card,2022.2.4,Win32,59.07372401,5c9224087a7067000190b119,64d2fd46c836a06233681665,64dc7ef3c14e3476108b8b2d,,,,,,,decisionTrl,resources/DY.BMP,resources/DBN.BMP,Door3,0.301851852,-0.042592593,1,0,0,0.6804,optionRight,70,1630,1,32,0,32,0,1,,,,,,,,,,,,,,,,,,,,,,,,,,,,,,,,,,,,,,,
,,,,,,,,2023-08-16_07h47.12.862,HF_wild_card,2022.2.4,Win32,59.07372401,5c9224087a7067000190b119,64d2fd46c836a06233681665,64dc7ef3c14e3476108b8b2d,,,,,,,sngl,resources/DB.BMP,resources/Empty.png,Door2,-0.282407407,0.000925926,1,0,0,0.5972,optionLeft,40,1670,1,33,0,33,0,1,,,,,,,,,,,,,,,,,,,,,,,,,,,,,,,,,,,,,,,
,,,,,,,,2023-08-16_07h47.12.862,HF_wild_card,2022.2.4,Win32,59.07372401,5c9224087a7067000190b119,64d2fd46c836a06233681665,64dc7ef3c14e3476108b8b2d,,,,,,,ctch,resources/DP.BMP,resources/DY.BMP,Door4,0.251851852,-0.034259259,1,0,0,0.5932,optionRight,60,1730,1,34,0,34,0,1,,,,,,,,,,,,,,,,,,,,,,,,,,,,,,,,,,,,,,,
,,,,,,,,2023-08-16_07h47.12.862,HF_wild_card,2022.2.4,Win32,59.07372401,5c9224087a7067000190b119,64d2fd46c836a06233681665,64dc7ef3c14e3476108b8b2d,,,,,,,decisionTrl,resources/DY.BMP,resources/DBN.BMP,Door3,0.163888889,-0.025,1,0,0,0.6269,optionRight,70,1800,1,35,0,35,0,1,,,,,,,,,,,,,,,,,,,,,,,,,,,,,,,,,,,,,,,
,,,,,,,,2023-08-16_07h47.12.862,HF_wild_card,2022.2.4,Win32,59.07372401,5c9224087a7067000190b119,64d2fd46c836a06233681665,64dc7ef3c14e3476108b8b2d,,,,,,,decisionTrl,resources/DG.BMP,resources/DY.BMP,Door4,0.209259259,-0.039814815,1,0,0,0.7451,optionRight,60,1860,1,36,0,36,0,1,,,,,,,,,,,,,,,,,,,,,,,,,,,,,,,,,,,,,,,
,,,,,,,,2023-08-16_07h47.12.862,HF_wild_card,2022.2.4,Win32,59.07372401,5c9224087a7067000190b119,64d2fd46c836a06233681665,64dc7ef3c14e3476108b8b2d,,,,,,,ctch,resources/DBN.BMP,resources/DB.BMP,Door3,-0.407407407,0.022222222,1,0,0,0.8629,optionLeft,70,1930,1,37,0,37,0,1,,,,,,,,,,,,,,,,,,,,,,,,,,,,,,,,,,,,,,,
,,,,,,,,2023-08-16_07h47.12.862,HF_wild_card,2022.2.4,Win32,59.07372401,5c9224087a7067000190b119,64d2fd46c836a06233681665,64dc7ef3c14e3476108b8b2d,,,,,,,decisionTrl,resources/DY.BMP,resources/DBN.BMP,Door3,0.14537037,-0.015740741,1,0,0,0.7094,optionRight,70,2000,1,38,0,38,0,1,,,,,,,,,,,,,,,,,,,,,,,,,,,,,,,,,,,,,,,
,,,,,,,,2023-08-16_07h47.12.862,HF_wild_card,2022.2.4,Win32,59.07372401,5c9224087a7067000190b119,64d2fd46c836a06233681665,64dc7ef3c14e3476108b8b2d,,,,,,,decisionTrl,resources/DP.BMP,resources/DG.BMP,Door1,-0.235185185,-0.007407407,1,0,0,0.9131,optionLeft,30,2030,1,39,0,39,0,1,,,,,,,,,,,,,,,,,,,,,,,,,,,,,,,,,,,,,,,
,,,,,,,,2023-08-16_07h47.12.862,HF_wild_card,2022.2.4,Win32,59.07372401,5c9224087a7067000190b119,64d2fd46c836a06233681665,64dc7ef3c14e3476108b8b2d,,,,,,,sngl,resources/Empty.png,resources/DP.BMP,Door1,0.219444444,-0.015740741,1,0,0,0.5102,optionRight,30,2060,1,40,0,40,0,1,,,,,,,,,,,,,,,,,,,,,,,,,,,,,,,,,,,,,,,
,,,,,,,,2023-08-16_07h47.12.862,HF_wild_card,2022.2.4,Win32,59.07372401,5c9224087a7067000190b119,64d2fd46c836a06233681665,64dc7ef3c14e3476108b8b2d,,,,,,,sngl,resources/DBN.BMP,resources/Empty.png,Door3,-0.303703704,-0.000925926,1,0,0,0.5516,optionLeft,70,2130,1,41,0,41,0,1,,,,,,,,,,,,,,,,,,,,,,,,,,,,,,,,,,,,,,,
,,,,,,,,2023-08-16_07h47.12.862,HF_wild_card,2022.2.4,Win32,59.07372401,5c9224087a7067000190b119,64d2fd46c836a06233681665,64dc7ef3c14e3476108b8b2d,,,,,,,decisionTrl,resources/DP.BMP,resources/DB.BMP,Door2,0.118518519,-0.007407407,1,0,0,0.8433,optionRight,20,2150,1,42,0,42,0,1,,,,,,,,,,,,,,,,,,,,,,,,,,,,,,,,,,,,,,,
,,,,,,,,2023-08-16_07h47.12.862,HF_wild_card,2022.2.4,Win32,59.07372401,5c9224087a7067000190b119,64d2fd46c836a06233681665,64dc7ef3c14e3476108b8b2d,,,,,,,decisionTrl,resources/DY.BMP,resources/DG.BMP,Door4,-0.165740741,-0.009259259,1,0,0,0.8465,optionLeft,80,2230,1,43,0,43,0,1,,,,,,,,,,,,,,,,,,,,,,,,,,,,,,,,,,,,,,,
,,,,,,,,2023-08-16_07h47.12.862,HF_wild_card,2022.2.4,Win32,59.07372401,5c9224087a7067000190b119,64d2fd46c836a06233681665,64dc7ef3c14e3476108b8b2d,,,,,,,,,,,,,,,,,,,,,,,,,,0,0,0,0,1,,,,,,,,,,,,,,,,,,,,,,,,,,,,,,,,,,
,,,,,,,,2023-08-16_07h47.12.862,HF_wild_card,2022.2.4,Win32,59.07372401,5c9224087a7067000190b119,64d2fd46c836a06233681665,64dc7ef3c14e3476108b8b2d,,,,,,,sngl,resources/Empty.png,resources/DBN.BMP,Door3,0.259259259,-0.110185185,1,0,0,0.8377,optionRight,70,2300,2,0,0,0,0,1,,,,,,,,,,,,,,,,,,,,,,,,,,,,,,,,,,,,,,,
,,,,,,,,2023-08-16_07h47.12.862,HF_wild_card,2022.2.4,Win32,59.07372401,5c9224087a7067000190b119,64d2fd46c836a06233681665,64dc7ef3c14e3476108b8b2d,,,,,,,ctch,resources/DB.BMP,resources/DBN.BMP,Door3,0.180555556,-0.011111111,1,0,0,0.6268,optionRight,70,2370,2,1,0,1,0,1,,,,,,,,,,,,,,,,,,,,,,,,,,,,,,,,,,,,,,,
,,,,,,,,2023-08-16_07h47.12.862,HF_wild_card,2022.2.4,Win32,59.07372401,5c9224087a7067000190b119,64d2fd46c836a06233681665,64dc7ef3c14e3476108b8b2d,,,,,,,decisionTrl,resources/DB.BMP,resources/DP.BMP,Door1,0.192592593,0.006481481,1,0,0,0.6475,optionRight,30,2400,2,2,0,2,0,1,,,,,,,,,,,,,,,,,,,,,,,,,,,,,,,,,,,,,,,
,,,,,,,,2023-08-16_07h47.12.862,HF_wild_card,2022.2.4,Win32,59.07372401,5c9224087a7067000190b119,64d2fd46c836a06233681665,64dc7ef3c14e3476108b8b2d,,,,,,,decisionTrl,resources/DBN.BMP,resources/DY.BMP,Door3,-0.241666667,0.007407407,1,0,0,0.6125,optionLeft,70,2470,2,3,0,3,0,1,,,,,,,,,,,,,,,,,,,,,,,,,,,,,,,,,,,,,,,
,,,,,,,,2023-08-16_07h47.12.862,HF_wild_card,2022.2.4,Win32,59.07372401,5c9224087a7067000190b119,64d2fd46c836a06233681665,64dc7ef3c14e3476108b8b2d,,,,,,,sngl,resources/DY.BMP,resources/Empty.png,Door4,-0.34537037,0.006481481,1,0,0,0.5813,optionLeft,60,2530,2,4,0,4,0,1,,,,,,,,,,,,,,,,,,,,,,,,,,,,,,,,,,,,,,,
,,,,,,,,2023-08-16_07h47.12.862,HF_wild_card,2022.2.4,Win32,59.07372401,5c9224087a7067000190b119,64d2fd46c836a06233681665,64dc7ef3c14e3476108b8b2d,,,,,,,decisionTrl,resources/DP.BMP,resources/DB.BMP,Door2,0.286111111,-0.02962963,1,0,0,0.6603,optionRight,40,2570,2,5,0,5,0,1,,,,,,,,,,,,,,,,,,,,,,,,,,,,,,,,,,,,,,,
,,,,,,,,2023-08-16_07h47.12.862,HF_wild_card,2022.2.4,Win32,59.07372401,5c9224087a7067000190b119,64d2fd46c836a06233681665,64dc7ef3c14e3476108b8b2d,,,,,,,sngl,resources/DG.BMP,resources/Empty.png,WildCard_NonEx,-0.182407407,-0.006481481,1,0,0,0.5941,optionLeft,55,2625,2,6,0,6,0,1,,,,,,,,,,,,,,,,,,,,,,,,,,,,,,,,,,,,,,,
,,,,,,,,2023-08-16_07h47.12.862,HF_wild_card,2022.2.4,Win32,59.07372401,5c9224087a7067000190b119,64d2fd46c836a06233681665,64dc7ef3c14e3476108b8b2d,,,,,,,decisionTrl,resources/DG.BMP,resources/DP.BMP,Door1,0.20462963,-0.024074074,1,0,0,0.5124,optionRight,30,2655,2,7,0,7,0,1,,,,,,,,,,,,,,,,,,,,,,,,,,,,,,,,,,,,,,,
,,,,,,,,2023-08-16_07h47.12.862,HF_wild_card,2022.2.4,Win32,59.07372401,5c9224087a7067000190b119,64d2fd46c836a06233681665,64dc7ef3c14e3476108b8b2d,,,,,,,decisionTrl,resources/DY.BMP,resources/DBN.BMP,Door3,0.236111111,-0.026851852,1,0,0,0.5765,optionRight,70,2725,2,8,0,8,0,1,,,,,,,,,,,,,,,,,,,,,,,,,,,,,,,,,,,,,,,
,,,,,,,,2023-08-16_07h47.12.862,HF_wild_card,2022.2.4,Win32,59.07372401,5c9224087a7067000190b119,64d2fd46c836a06233681665,64dc7ef3c14e3476108b8b2d,,,,,,,decisionTrl,resources/DY.BMP,resources/DBN.BMP,Door3,0.151851852,-0.014814815,1,0,0,0.6138,optionRight,70,2795,2,9,0,9,0,1,,,,,,,,,,,,,,,,,,,,,,,,,,,,,,,,,,,,,,,
,,,,,,,,2023-08-16_07h47.12.862,HF_wild_card,2022.2.4,Win32,59.07372401,5c9224087a7067000190b119,64d2fd46c836a06233681665,64dc7ef3c14e3476108b8b2d,,,,,,,sngl,resources/Empty.png,resources/DG.BMP,WildCard_NonEx,0.233333333,-0.015740741,1,0,0,0.5469,optionRight,45,2840,2,10,0,10,0,1,,,,,,,,,,,,,,,,,,,,,,,,,,,,,,,,,,,,,,,
,,,,,,,,2023-08-16_07h47.12.862,HF_wild_card,2022.2.4,Win32,59.07372401,5c9224087a7067000190b119,64d2fd46c836a06233681665,64dc7ef3c14e3476108b8b2d,,,,,,,decisionTrl,resources/DB.BMP,resources/DP.BMP,Door1,0.244444444,-0.031481481,1,0,0,0.5436,optionRight,30,2870,2,11,0,11,0,1,,,,,,,,,,,,,,,,,,,,,,,,,,,,,,,,,,,,,,,
,,,,,,,,2023-08-16_07h47.12.862,HF_wild_card,2022.2.4,Win32,59.07372401,5c9224087a7067000190b119,64d2fd46c836a06233681665,64dc7ef3c14e3476108b8b2d,,,,,,,decisionTrl,resources/DBN.BMP,resources/DG.BMP,Door3,-0.213888889,0.001851852,1,0,0,0.5596,optionLeft,70,2940,2,12,0,12,0,1,,,,,,,,,,,,,,,,,,,,,,,,,,,,,,,,,,,,,,,
,,,,,,,,2023-08-16_07h47.12.862,HF_wild_card,2022.2.4,Win32,59.07372401,5c9224087a7067000190b119,64d2fd46c836a06233681665,64dc7ef3c14e3476108b8b2d,,,,,,,sngl,resources/DBN.BMP,resources/Empty.png,Door3,-0.273148148,-0.007407407,1,0,0,0.546,optionLeft,70,3010,2,13,0,13,0,1,,,,,,,,,,,,,,,,,,,,,,,,,,,,,,,,,,,,,,,
,,,,,,,,2023-08-16_07h47.12.862,HF_wild_card,2022.2.4,Win32,59.07372401,5c9224087a7067000190b119,64d2fd46c836a06233681665,64dc7ef3c14e3476108b8b2d,,,,,,,ctch,resources/DP.BMP,resources/DY.BMP,Door4,0.232407407,-0.012962963,1,0,0,0.5441,optionRight,80,3090,2,14,0,14,0,1,,,,,,,,,,,,,,,,,,,,,,,,,,,,,,,,,,,,,,,
,,,,,,,,2023-08-16_07h47.12.862,HF_wild_card,2022.2.4,Win32,59.07372401,5c9224087a7067000190b119,64d2fd46c836a06233681665,64dc7ef3c14e3476108b8b2d,,,,,,,ctch,resources/DBN.BMP,resources/DB.BMP,Door2,0.284259259,-0.037962963,1,0,0,0.8432,optionRight,20,3110,2,15,0,15,0,1,,,,,,,,,,,,,,,,,,,,,,,,,,,,,,,,,,,,,,,
,,,,,,,,2023-08-16_07h47.12.862,HF_wild_card,2022.2.4,Win32,59.07372401,5c9224087a7067000190b119,64d2fd46c836a06233681665,64dc7ef3c14e3476108b8b2d,,,,,,,decisionTrl,resources/DG.BMP,resources/DB.BMP,WildCard_NonEx,-0.275,-0.000925926,1,0,0,0.581,optionLeft,45,3155,2,16,0,16,0,1,,,,,,,,,,,,,,,,,,,,,,,,,,,,,,,,,,,,,,,
,,,,,,,,2023-08-16_07h47.12.862,HF_wild_card,2022.2.4,Win32,59.07372401,5c9224087a7067000190b119,64d2fd46c836a06233681665,64dc7ef3c14e3476108b8b2d,,,,,,,sngl,resources/Empty.png,resources/DB.BMP,Door2,0.163888889,-0.015740741,1,0,0,0.5634,optionRight,40,3195,2,17,0,17,0,1,,,,,,,,,,,,,,,,,,,,,,,,,,,,,,,,,,,,,,,
,,,,,,,,2023-08-16_07h47.12.862,HF_wild_card,2022.2.4,Win32,59.07372401,5c9224087a7067000190b119,64d2fd46c836a06233681665,64dc7ef3c14e3476108b8b2d,,,,,,,ctch,resources/DBN.BMP,resources/DB.BMP,Door3,-0.232407407,-0.002777778,1,0,0,0.5472,optionLeft,70,3265,2,18,0,18,0,1,,,,,,,,,,,,,,,,,,,,,,,,,,,,,,,,,,,,,,,
,,,,,,,,2023-08-16_07h47.12.862,HF_wild_card,2022.2.4,Win32,59.07372401,5c9224087a7067000190b119,64d2fd46c836a06233681665,64dc7ef3c14e3476108b8b2d,,,,,,,ctch,resources/DY.BMP,resources/DP.BMP,Door4,-0.338888889,-0.007407407,1,0,0,0.8268,optionLeft,60,3325,2,19,0,19,0,1,,,,,,,,,,,,,,,,,,,,,,,,,,,,,,,,,,,,,,,
,,,,,,,,2023-08-16_07h47.12.862,HF_wild_card,2022.2.4,Win32,59.07372401,5c9224087a7067000190b119,64d2fd46c836a06233681665,64dc7ef3c14e3476108b8b2d,,,,,,,decisionTrl,resources/DY.BMP,resources/DBN.BMP,Door3,0.232407407,-0.062962963,1,0,0,0.8139,optionRight,70,3395,2,20,0,20,0,1,,,,,,,,,,,,,,,,,,,,,,,,,,,,,,,,,,,,,,,
,,,,,,,,2023-08-16_07h47.12.862,HF_wild_card,2022.2.4,Win32,59.07372401,5c9224087a7067000190b119,64d2fd46c836a06233681665,64dc7ef3c14e3476108b8b2d,,,,,,,sngl,resources/DP.BMP,resources/Empty.png,Door1,-0.209259259,0.000925926,1,0,0,0.5602,optionLeft,30,3425,2,21,0,21,0,1,,,,,,,,,,,,,,,,,,,,,,,,,,,,,,,,,,,,,,,
,,,,,,,,2023-08-16_07h47.12.862,HF_wild_card,2022.2.4,Win32,59.07372401,5c9224087a7067000190b119,64d2fd46c836a06233681665,64dc7ef3c14e3476108b8b2d,,,,,,,decisionTrl,resources/DB.BMP,resources/DP.BMP,Door1,0.160185185,-0.025,1,0,0,0.5306,optionRight,30,3455,2,22,0,22,0,1,,,,,,,,,,,,,,,,,,,,,,,,,,,,,,,,,,,,,,,
,,,,,,,,2023-08-16_07h47.12.862,HF_wild_card,2022.2.4,Win32,59.07372401,5c9224087a7067000190b119,64d2fd46c836a06233681665,64dc7ef3c14e3476108b8b2d,,,,,,,ctch,resources/DB.BMP,resources/DBN.BMP,Door3,0.17962963,-0.02037037,1,0,0,0.5641,optionRight,70,3525,2,23,0,23,0,1,,,,,,,,,,,,,,,,,,,,,,,,,,,,,,,,,,,,,,,
,,,,,,,,2023-08-16_07h47.12.862,HF_wild_card,2022.2.4,Win32,59.07372401,5c9224087a7067000190b119,64d2fd46c836a06233681665,64dc7ef3c14e3476108b8b2d,,,,,,,decisionTrl,resources/DY.BMP,resources/DG.BMP,Door4,-0.308333333,0.014814815,1,0,0,0.7291,optionLeft,60,3585,2,24,0,24,0,1,,,,,,,,,,,,,,,,,,,,,,,,,,,,,,,,,,,,,,,
,,,,,,,,2023-08-16_07h47.12.862,HF_wild_card,2022.2.4,Win32,59.07372401,5c9224087a7067000190b119,64d2fd46c836a06233681665,64dc7ef3c14e3476108b8b2d,,,,,,,decisionTrl,resources/DP.BMP,resources/DB.BMP,Door2,0.172222222,-0.032407407,1,0,0,0.6957,optionRight,20,3605,2,25,0,25,0,1,,,,,,,,,,,,,,,,,,,,,,,,,,,,,,,,,,,,,,,
,,,,,,,,2023-08-16_07h47.12.862,HF_wild_card,2022.2.4,Win32,59.07372401,5c9224087a7067000190b119,64d2fd46c836a06233681665,64dc7ef3c14e3476108b8b2d,,,,,,,decisionTrl,resources/DB.BMP,resources/DG.BMP,WildCard_NonEx,0.201851852,-0.061111111,1,0,0,0.8434,optionRight,55,3660,2,26,0,26,0,1,,,,,,,,,,,,,,,,,,,,,,,,,,,,,,,,,,,,,,,
,,,,,,,,2023-08-16_07h47.12.862,HF_wild_card,2022.2.4,Win32,59.07372401,5c9224087a7067000190b119,64d2fd46c836a06233681665,64dc7ef3c14e3476108b8b2d,,,,,,,sngl,resources/DG.BMP,resources/Empty.png,WildCard_NonEx,-0.201851852,-0.009259259,1,0,0,0.5808,optionLeft,45,3705,2,27,0,27,0,1,,,,,,,,,,,,,,,,,,,,,,,,,,,,,,,,,,,,,,,
,,,,,,,,2023-08-16_07h47.12.862,HF_wild_card,2022.2.4,Win32,59.07372401,5c9224087a7067000190b119,64d2fd46c836a06233681665,64dc7ef3c14e3476108b8b2d,,,,,,,decisionTrl,resources/DBN.BMP,resources/DY.BMP,Door3,-0.302777778,-0.000925926,1,0,0,0.9263,optionLeft,70,3775,2,28,0,28,0,1,,,,,,,,,,,,,,,,,,,,,,,,,,,,,,,,,,,,,,,
,,,,,,,,2023-08-16_07h47.12.862,HF_wild_card,2022.2.4,Win32,59.07372401,5c9224087a7067000190b119,64d2fd46c836a06233681665,64dc7ef3c14e3476108b8b2d,,,,,,,sngl,resources/Empty.png,resources/DG.BMP,WildCard_NonEx,0.27037037,-0.010185185,1,0,0,0.6264,optionRight,55,3830,2,29,0,29,0,1,,,,,,,,,,,,,,,,,,,,,,,,,,,,,,,,,,,,,,,
,,,,,,,,2023-08-16_07h47.12.862,HF_wild_card,2022.2.4,Win32,59.07372401,5c9224087a7067000190b119,64d2fd46c836a06233681665,64dc7ef3c14e3476108b8b2d,,,,,,,decisionTrl,resources/DBN.BMP,resources/DY.BMP,Door3,-0.243518519,-0.000925926,1,0,0,0.5935,optionLeft,70,3900,2,30,0,30,0,1,,,,,,,,,,,,,,,,,,,,,,,,,,,,,,,,,,,,,,,
,,,,,,,,2023-08-16_07h47.12.862,HF_wild_card,2022.2.4,Win32,59.07372401,5c9224087a7067000190b119,64d2fd46c836a06233681665,64dc7ef3c14e3476108b8b2d,,,,,,,decisionTrl,resources/DG.BMP,resources/DY.BMP,WildCard_NonEx,-0.188888889,-0.019444444,1,0,0,0.9969,optionLeft,45,3945,2,31,0,31,0,1,,,,,,,,,,,,,,,,,,,,,,,,,,,,,,,,,,,,,,,
,,,,,,,,2023-08-16_07h47.12.862,HF_wild_card,2022.2.4,Win32,59.07372401,5c9224087a7067000190b119,64d2fd46c836a06233681665,64dc7ef3c14e3476108b8b2d,,,,,,,decisionTrl,resources/DY.BMP,resources/DBN.BMP,Door3,0.193518519,-0.046296296,1,0,0,0.5262,optionRight,70,4015,2,32,0,32,0,1,,,,,,,,,,,,,,,,,,,,,,,,,,,,,,,,,,,,,,,
,,,,,,,,2023-08-16_07h47.12.862,HF_wild_card,2022.2.4,Win32,59.07372401,5c9224087a7067000190b119,64d2fd46c836a06233681665,64dc7ef3c14e3476108b8b2d,,,,,,,decisionTrl,resources/DBN.BMP,resources/DY.BMP,Door3,-0.246296296,-0.012962963,1,0,0,0.6135,optionLeft,70,4085,2,33,0,33,0,1,,,,,,,,,,,,,,,,,,,,,,,,,,,,,,,,,,,,,,,
,,,,,,,,2023-08-16_07h47.12.862,HF_wild_card,2022.2.4,Win32,59.07372401,5c9224087a7067000190b119,64d2fd46c836a06233681665,64dc7ef3c14e3476108b8b2d,,,,,,,sngl,resources/Empty.png,resources/DY.BMP,Door4,0.274074074,-0.042592593,1,0,0,0.5106,optionRight,80,4165,2,34,0,34,0,1,,,,,,,,,,,,,,,,,,,,,,,,,,,,,,,,,,,,,,,
,,,,,,,,2023-08-16_07h47.12.862,HF_wild_card,2022.2.4,Win32,59.07372401,5c9224087a7067000190b119,64d2fd46c836a06233681665,64dc7ef3c14e3476108b8b2d,,,,,,,sngl,resources/Empty.png,resources/DP.BMP,Door1,0.238888889,-0.022222222,1,0,0,0.5973,optionRight,30,4195,2,35,0,35,0,1,,,,,,,,,,,,,,,,,,,,,,,,,,,,,,,,,,,,,,,
,,,,,,,,2023-08-16_07h47.12.862,HF_wild_card,2022.2.4,Win32,59.07372401,5c9224087a7067000190b119,64d2fd46c836a06233681665,64dc7ef3c14e3476108b8b2d,,,,,,,sngl,resources/DB.BMP,resources/Empty.png,Door2,-0.213888889,-0.007407407,1,0,0,0.5301,optionLeft,20,4215,2,36,0,36,0,1,,,,,,,,,,,,,,,,,,,,,,,,,,,,,,,,,,,,,,,
,,,,,,,,2023-08-16_07h47.12.862,HF_wild_card,2022.2.4,Win32,59.07372401,5c9224087a7067000190b119,64d2fd46c836a06233681665,64dc7ef3c14e3476108b8b2d,,,,,,,decisionTrl,resources/DP.BMP,resources/DB.BMP,Door1,-0.214814815,-0.027777778,1,0,0,0.7967,optionLeft,30,4245,2,37,0,37,0,1,,,,,,,,,,,,,,,,,,,,,,,,,,,,,,,,,,,,,,,
,,,,,,,,2023-08-16_07h47.12.862,HF_wild_card,2022.2.4,Win32,59.07372401,5c9224087a7067000190b119,64d2fd46c836a06233681665,64dc7ef3c14e3476108b8b2d,,,,,,,ctch,resources/DY.BMP,resources/DP.BMP,Door1,0.189814815,-0.052777778,1,0,0,0.7299,optionRight,30,4275,2,38,0,38,0,1,,,,,,,,,,,,,,,,,,,,,,,,,,,,,,,,,,,,,,,
,,,,,,,,2023-08-16_07h47.12.862,HF_wild_card,2022.2.4,Win32,59.07372401,5c9224087a7067000190b119,64d2fd46c836a06233681665,64dc7ef3c14e3476108b8b2d,,,,,,,ctch,resources/DP.BMP,resources/DY.BMP,Door4,0.156481481,-0.031481481,1,0,0,0.6957,optionRight,60,4335,2,39,0,39,0,1,,,,,,,,,,,,,,,,,,,,,,,,,,,,,,,,,,,,,,,
,,,,,,,,2023-08-16_07h47.12.862,HF_wild_card,2022.2.4,Win32,59.07372401,5c9224087a7067000190b119,64d2fd46c836a06233681665,64dc7ef3c14e3476108b8b2d,,,,,,,decisionTrl,resources/DG.BMP,resources/DBN.BMP,Door3,0.151851852,-0.024074074,1,0,0,0.5795,optionRight,70,4405,2,40,0,40,0,1,,,,,,,,,,,,,,,,,,,,,,,,,,,,,,,,,,,,,,,
,,,,,,,,2023-08-16_07h47.12.862,HF_wild_card,2022.2.4,Win32,59.07372401,5c9224087a7067000190b119,64d2fd46c836a06233681665,64dc7ef3c14e3476108b8b2d,,,,,,,decisionTrl,resources/DP.BMP,resources/DG.BMP,Door1,-0.275,-0.000925926,1,0,0,0.847,optionLeft,30,4435,2,41,0,41,0,1,,,,,,,,,,,,,,,,,,,,,,,,,,,,,,,,,,,,,,,
,,,,,,,,2023-08-16_07h47.12.862,HF_wild_card,2022.2.4,Win32,59.07372401,5c9224087a7067000190b119,64d2fd46c836a06233681665,64dc7ef3c14e3476108b8b2d,,,,,,,decisionTrl,resources/DB.BMP,resources/DP.BMP,Door1,0.207407407,-0.024074074,1,0,0,0.7966,optionRight,30,4465,2,42,0,42,0,1,,,,,,,,,,,,,,,,,,,,,,,,,,,,,,,,,,,,,,,
,,,,,,,,2023-08-16_07h47.12.862,HF_wild_card,2022.2.4,Win32,59.07372401,5c9224087a7067000190b119,64d2fd46c836a06233681665,64dc7ef3c14e3476108b8b2d,,,,,,,decisionTrl,resources/DP.BMP,resources/DB.BMP,Door1,-0.17962963,-0.007407407,1,0,0,0.5949,optionLeft,30,4495,2,43,0,43,0,1,,,,,,,,,,,,,,,,,,,,,,,,,,,,,,,,,,,,,,,
,,,,,,,,2023-08-16_07h47.12.862,HF_wild_card,2022.2.4,Win32,59.07372401,5c9224087a7067000190b119,64d2fd46c836a06233681665,64dc7ef3c14e3476108b8b2d,,,,,,,,,,,,,,,,,,,,,,,,,,1,0,1,0,1,,,,,,,,,,,,,,,,,,,,,,,,,,,,,,,,,,
,,,,,,,,2023-08-16_07h47.12.862,HF_wild_card,2022.2.4,Win32,59.07372401,5c9224087a7067000190b119,64d2fd46c836a06233681665,64dc7ef3c14e3476108b8b2d,,,,,,,decisionTrl,resources/DY.BMP,resources/DBN.BMP,Door3,0.406481481,-0.07962963,1,0,0,0.9552,optionRight,70,4565,3,0,0,0,0,1,,,,,,,,,,,,,,,,,,,,,,,,,,,,,,,,,,,,,,,
,,,,,,,,2023-08-16_07h47.12.862,HF_wild_card,2022.2.4,Win32,59.07372401,5c9224087a7067000190b119,64d2fd46c836a06233681665,64dc7ef3c14e3476108b8b2d,,,,,,,ctch,resources/DP.BMP,resources/DY.BMP,Door1,-0.319444444,0.006481481,1,0,0,0.8123,optionLeft,30,4595,3,1,0,1,0,1,,,,,,,,,,,,,,,,,,,,,,,,,,,,,,,,,,,,,,,
,,,,,,,,2023-08-16_07h47.12.862,HF_wild_card,2022.2.4,Win32,59.07372401,5c9224087a7067000190b119,64d2fd46c836a06233681665,64dc7ef3c14e3476108b8b2d,,,,,,,ctch,resources/DBN.BMP,resources/DB.BMP,Door2,0.337962963,0.001851852,1,0,0,0.5628,optionRight,20,4615,3,2,0,2,0,1,,,,,,,,,,,,,,,,,,,,,,,,,,,,,,,,,,,,,,,
,,,,,,,,2023-08-16_07h47.12.862,HF_wild_card,2022.2.4,Win32,59.07372401,5c9224087a7067000190b119,64d2fd46c836a06233681665,64dc7ef3c14e3476108b8b2d,,,,,,,decisionTrl,resources/DG.BMP,resources/DBN.BMP,Door3,0.281481481,-0.015740741,1,0,0,0.6136,optionRight,70,4685,3,3,0,3,0,1,,,,,,,,,,,,,,,,,,,,,,,,,,,,,,,,,,,,,,,
,,,,,,,,2023-08-16_07h47.12.862,HF_wild_card,2022.2.4,Win32,59.07372401,5c9224087a7067000190b119,64d2fd46c836a06233681665,64dc7ef3c14e3476108b8b2d,,,,,,,decisionTrl,resources/DB.BMP,resources/DP.BMP,Door1,0.268518519,-0.009259259,1,0,0,0.9604,optionRight,30,4715,3,4,0,4,0,1,,,,,,,,,,,,,,,,,,,,,,,,,,,,,,,,,,,,,,,
,,,,,,,,2023-08-16_07h47.12.862,HF_wild_card,2022.2.4,Win32,59.07372401,5c9224087a7067000190b119,64d2fd46c836a06233681665,64dc7ef3c14e3476108b8b2d,,,,,,,sngl,resources/DBN.BMP,resources/Empty.png,Door3,-0.278703704,-0.038888889,1,0,0,0.5135,optionLeft,70,4785,3,5,0,5,0,1,,,,,,,,,,,,,,,,,,,,,,,,,,,,,,,,,,,,,,,
,,,,,,,,2023-08-16_07h47.12.862,HF_wild_card,2022.2.4,Win32,59.07372401,5c9224087a7067000190b119,64d2fd46c836a06233681665,64dc7ef3c14e3476108b8b2d,,,,,,,sngl,resources/Empty.png,resources/DG.BMP,WildCard_NonEx,0.327777778,-0.032407407,1,0,0,0.5641,optionRight,55,4840,3,6,0,6,0,1,,,,,,,,,,,,,,,,,,,,,,,,,,,,,,,,,,,,,,,
,,,,,,,,2023-08-16_07h47.12.862,HF_wild_card,2022.2.4,Win32,59.07372401,5c9224087a7067000190b119,64d2fd46c836a06233681665,64dc7ef3c14e3476108b8b2d,,,,,,,sngl,resources/Empty.png,resources/DY.BMP,Door4,0.218518519,-0.005555556,1,0,0,0.5797,optionRight,60,4900,3,7,0,7,0,1,,,,,,,,,,,,,,,,,,,,,,,,,,,,,,,,,,,,,,,
,,,,,,,,2023-08-16_07h47.12.862,HF_wild_card,2022.2.4,Win32,59.07372401,5c9224087a7067000190b119,64d2fd46c836a06233681665,64dc7ef3c14e3476108b8b2d,,,,,,,sngl,resources/DG.BMP,resources/Empty.png,WildCard_NonEx,-0.348148148,-0.00462963,1,0,0,0.5105,optionLeft,45,4945,3,8,0,8,0,1,,,,,,,,,,,,,,,,,,,,,,,,,,,,,,,,,,,,,,,
,,,,,,,,2023-08-16_07h47.12.862,HF_wild_card,2022.2.4,Win32,59.07372401,5c9224087a7067000190b119,64d2fd46c836a06233681665,64dc7ef3c14e3476108b8b2d,,,,,,,ctch,resources/DY.BMP,resources/DP.BMP,Door1,0.219444444,-0.02037037,1,0,0,0.5801,optionRight,30,4975,3,9,0,9,0,1,,,,,,,,,,,,,,,,,,,,,,,,,,,,,,,,,,,,,,,
,,,,,,,,2023-08-16_07h47.12.862,HF_wild_card,2022.2.4,Win32,59.07372401,5c9224087a7067000190b119,64d2fd46c836a06233681665,64dc7ef3c14e3476108b8b2d,,,,,,,decisionTrl,resources/DP.BMP,resources/DG.BMP,Door1,-0.255555556,-0.019444444,1,0,0,0.6432,optionLeft,30,5005,3,10,0,10,0,1,,,,,,,,,,,,,,,,,,,,,,,,,,,,,,,,,,,,,,,
,,,,,,,,2023-08-16_07h47.12.862,HF_wild_card,2022.2.4,Win32,59.07372401,5c9224087a7067000190b119,64d2fd46c836a06233681665,64dc7ef3c14e3476108b8b2d,,,,,,,ctch,resources/DBN.BMP,resources/DB.BMP,Door3,-0.350925926,0,1,0,0,0.747,optionLeft,70,5075,3,11,0,11,0,1,,,,,,,,,,,,,,,,,,,,,,,,,,,,,,,,,,,,,,,
,,,,,,,,2023-08-16_07h47.12.862,HF_wild_card,2022.2.4,Win32,59.07372401,5c9224087a7067000190b119,64d2fd46c836a06233681665,64dc7ef3c14e3476108b8b2d,,,,,,,ctch,resources/DY.BMP,resources/DP.BMP,Door4,-0.197222222,-0.015740741,1,0,0,0.5469,optionLeft,80,5155,3,12,0,12,0,1,,,,,,,,,,,,,,,,,,,,,,,,,,,,,,,,,,,,,,,
,,,,,,,,2023-08-16_07h47.12.862,HF_wild_card,2022.2.4,Win32,59.07372401,5c9224087a7067000190b119,64d2fd46c836a06233681665,64dc7ef3c14e3476108b8b2d,,,,,,,decisionTrl,resources/DP.BMP,resources/DB.BMP,Door1,-0.45,0.012037037,1,0,0,0.7806,optionLeft,30,5185,3,13,0,13,0,1,,,,,,,,,,,,,,,,,,,,,,,,,,,,,,,,,,,,,,,
,,,,,,,,2023-08-16_07h47.12.862,HF_wild_card,2022.2.4,Win32,59.07372401,5c9224087a7067000190b119,64d2fd46c836a06233681665,64dc7ef3c14e3476108b8b2d,,,,,,,decisionTrl,resources/DB.BMP,resources/DG.BMP,WildCard_NonEx,0.251851852,-0.019444444,1,0,0,0.5099,optionRight,55,5240,3,14,0,14,0,1,,,,,,,,,,,,,,,,,,,,,,,,,,,,,,,,,,,,,,,
,,,,,,,,2023-08-16_07h47.12.862,HF_wild_card,2022.2.4,Win32,59.07372401,5c9224087a7067000190b119,64d2fd46c836a06233681665,64dc7ef3c14e3476108b8b2d,,,,,,,decisionTrl,resources/DY.BMP,resources/DBN.BMP,Door3,0.202777778,-0.034259259,1,0,0,0.8796,optionRight,70,5310,3,15,0,15,0,1,,,,,,,,,,,,,,,,,,,,,,,,,,,,,,,,,,,,,,,
,,,,,,,,2023-08-16_07h47.12.862,HF_wild_card,2022.2.4,Win32,59.07372401,5c9224087a7067000190b119,64d2fd46c836a06233681665,64dc7ef3c14e3476108b8b2d,,,,,,,decisionTrl,resources/DBN.BMP,resources/DY.BMP,Door4,0.164814815,-0.033333333,1,0,0,0.6121,optionRight,80,5390,3,16,0,16,0,1,,,,,,,,,,,,,,,,,,,,,,,,,,,,,,,,,,,,,,,
,,,,,,,,2023-08-16_07h47.12.862,HF_wild_card,2022.2.4,Win32,59.07372401,5c9224087a7067000190b119,64d2fd46c836a06233681665,64dc7ef3c14e3476108b8b2d,,,,,,,decisionTrl,resources/DBN.BMP,resources/DY.BMP,Door4,0.209259259,-0.058333333,1,0,0,0.8939,optionRight,60,5450,3,17,0,17,0,1,,,,,,,,,,,,,,,,,,,,,,,,,,,,,,,,,,,,,,,
,,,,,,,,2023-08-16_07h47.12.862,HF_wild_card,2022.2.4,Win32,59.07372401,5c9224087a7067000190b119,64d2fd46c836a06233681665,64dc7ef3c14e3476108b8b2d,,,,,,,sngl,resources/DG.BMP,resources/Empty.png,WildCard_NonEx,-0.259259259,-0.017592593,1,0,0,0.6461,optionLeft,55,5505,3,18,0,18,0,1,,,,,,,,,,,,,,,,,,,,,,,,,,,,,,,,,,,,,,,
,,,,,,,,2023-08-16_07h47.12.862,HF_wild_card,2022.2.4,Win32,59.07372401,5c9224087a7067000190b119,64d2fd46c836a06233681665,64dc7ef3c14e3476108b8b2d,,,,,,,decisionTrl,resources/DB.BMP,resources/DP.BMP,Door1,0.253703704,-0.031481481,1,0,0,0.6102,optionRight,30,5535,3,19,0,19,0,1,,,,,,,,,,,,,,,,,,,,,,,,,,,,,,,,,,,,,,,
,,,,,,,,2023-08-16_07h47.12.862,HF_wild_card,2022.2.4,Win32,59.07372401,5c9224087a7067000190b119,64d2fd46c836a06233681665,64dc7ef3c14e3476108b8b2d,,,,,,,sngl,resources/DB.BMP,resources/Empty.png,Door2,-0.224074074,-0.009259259,1,0,0,0.543,optionLeft,40,5575,3,20,0,20,0,1,,,,,,,,,,,,,,,,,,,,,,,,,,,,,,,,,,,,,,,
,,,,,,,,2023-08-16_07h47.12.862,HF_wild_card,2022.2.4,Win32,59.07372401,5c9224087a7067000190b119,64d2fd46c836a06233681665,64dc7ef3c14e3476108b8b2d,,,,,,,sngl,resources/DP.BMP,resources/Empty.png,Door1,-0.237962963,-0.006481481,1,0,0,0.8312,optionLeft,30,5605,3,21,0,21,0,1,,,,,,,,,,,,,,,,,,,,,,,,,,,,,,,,,,,,,,,
,,,,,,,,2023-08-16_07h47.12.862,HF_wild_card,2022.2.4,Win32,59.07372401,5c9224087a7067000190b119,64d2fd46c836a06233681665,64dc7ef3c14e3476108b8b2d,,,,,,,decisionTrl,resources/DY.BMP,resources/DBN.BMP,Door3,0.24537037,-0.033333333,1,0,0,0.6138,optionRight,70,5675,3,22,0,22,0,1,,,,,,,,,,,,,,,,,,,,,,,,,,,,,,,,,,,,,,,
,,,,,,,,2023-08-16_07h47.12.862,HF_wild_card,2022.2.4,Win32,59.07372401,5c9224087a7067000190b119,64d2fd46c836a06233681665,64dc7ef3c14e3476108b8b2d,,,,,,,decisionTrl,resources/DY.BMP,resources/DG.BMP,Door4,-0.238888889,-0.008333333,1,0,0,0.5789,optionLeft,60,5735,3,23,0,23,0,1,,,,,,,,,,,,,,,,,,,,,,,,,,,,,,,,,,,,,,,
,,,,,,,,2023-08-16_07h47.12.862,HF_wild_card,2022.2.4,Win32,59.07372401,5c9224087a7067000190b119,64d2fd46c836a06233681665,64dc7ef3c14e3476108b8b2d,,,,,,,decisionTrl,resources/DG.BMP,resources/DP.BMP,Door1,0.247222222,-0.032407407,1,0,0,0.6803,optionRight,30,5765,3,24,0,24,0,1,,,,,,,,,,,,,,,,,,,,,,,,,,,,,,,,,,,,,,,
,,,,,,,,2023-08-16_07h47.12.862,HF_wild_card,2022.2.4,Win32,59.07372401,5c9224087a7067000190b119,64d2fd46c836a06233681665,64dc7ef3c14e3476108b8b2d,,,,,,,sngl,resources/Empty.png,resources/DB.BMP,Door2,0.184259259,-0.007407407,1,0,0,0.6472,optionRight,20,5785,3,25,0,25,0,1,,,,,,,,,,,,,,,,,,,,,,,,,,,,,,,,,,,,,,,
,,,,,,,,2023-08-16_07h47.12.862,HF_wild_card,2022.2.4,Win32,59.07372401,5c9224087a7067000190b119,64d2fd46c836a06233681665,64dc7ef3c14e3476108b8b2d,,,,,,,decisionTrl,resources/DB.BMP,resources/DP.BMP,Door2,-0.264814815,-0.000925926,1,0,0,1.0935,optionLeft,40,5825,3,26,0,26,0,1,,,,,,,,,,,,,,,,,,,,,,,,,,,,,,,,,,,,,,,
,,,,,,,,2023-08-16_07h47.12.862,HF_wild_card,2022.2.4,Win32,59.07372401,5c9224087a7067000190b119,64d2fd46c836a06233681665,64dc7ef3c14e3476108b8b2d,,,,,,,sngl,resources/Empty.png,resources/DG.BMP,WildCard_NonEx,0.212037037,-0.038888889,1,0,0,0.5469,optionRight,45,5870,3,27,0,27,0,1,,,,,,,,,,,,,,,,,,,,,,,,,,,,,,,,,,,,,,,
,,,,,,,,2023-08-16_07h47.12.862,HF_wild_card,2022.2.4,Win32,59.07372401,5c9224087a7067000190b119,64d2fd46c836a06233681665,64dc7ef3c14e3476108b8b2d,,,,,,,decisionTrl,resources/DBN.BMP,resources/DY.BMP,Door3,-0.338888889,-0.007407407,1,0,0,0.6135,optionLeft,70,5940,3,28,0,28,0,1,,,,,,,,,,,,,,,,,,,,,,,,,,,,,,,,,,,,,,,
,,,,,,,,2023-08-16_07h47.12.862,HF_wild_card,2022.2.4,Win32,59.07372401,5c9224087a7067000190b119,64d2fd46c836a06233681665,64dc7ef3c14e3476108b8b2d,,,,,,,decisionTrl,resources/DP.BMP,resources/DB.BMP,Door2,0.206481481,-0.024074074,1,0,0,0.63,optionRight,40,5980,3,29,0,29,0,1,,,,,,,,,,,,,,,,,,,,,,,,,,,,,,,,,,,,,,,
,,,,,,,,2023-08-16_07h47.12.862,HF_wild_card,2022.2.4,Win32,59.07372401,5c9224087a7067000190b119,64d2fd46c836a06233681665,64dc7ef3c14e3476108b8b2d,,,,,,,decisionTrl,resources/DB.BMP,resources/DP.BMP,Door2,-0.322222222,-0.009259259,1,0,0,0.5262,optionLeft,40,6020,3,30,0,30,0,1,,,,,,,,,,,,,,,,,,,,,,,,,,,,,,,,,,,,,,,
,,,,,,,,2023-08-16_07h47.12.862,HF_wild_card,2022.2.4,Win32,59.07372401,5c9224087a7067000190b119,64d2fd46c836a06233681665,64dc7ef3c14e3476108b8b2d,,,,,,,sngl,resources/Empty.png,resources/DBN.BMP,Door3,0.208333333,-0.027777778,1,0,0,0.5293,optionRight,70,6090,3,31,0,31,0,1,,,,,,,,,,,,,,,,,,,,,,,,,,,,,,,,,,,,,,,
,,,,,,,,2023-08-16_07h47.12.862,HF_wild_card,2022.2.4,Win32,59.07372401,5c9224087a7067000190b119,64d2fd46c836a06233681665,64dc7ef3c14e3476108b8b2d,,,,,,,decisionTrl,resources/DBN.BMP,resources/DY.BMP,Door3,-0.288888889,-0.00462963,1,0,0,0.8963,optionLeft,70,6160,3,32,0,32,0,1,,,,,,,,,,,,,,,,,,,,,,,,,,,,,,,,,,,,,,,
,,,,,,,,2023-08-16_07h47.12.862,HF_wild_card,2022.2.4,Win32,59.07372401,5c9224087a7067000190b119,64d2fd46c836a06233681665,64dc7ef3c14e3476108b8b2d,,,,,,,sngl,resources/Empty.png,resources/DP.BMP,Door1,0.230555556,-0.028703704,1,0,0,0.5633,optionRight,30,6190,3,33,0,33,0,1,,,,,,,,,,,,,,,,,,,,,,,,,,,,,,,,,,,,,,,
,,,,,,,,2023-08-16_07h47.12.862,HF_wild_card,2022.2.4,Win32,59.07372401,5c9224087a7067000190b119,64d2fd46c836a06233681665,64dc7ef3c14e3476108b8b2d,,,,,,,ctch,resources/DB.BMP,resources/DBN.BMP,Door3,0.249074074,-0.014814815,1,0,0,0.7973,optionRight,70,6260,3,34,0,34,0,1,,,,,,,,,,,,,,,,,,,,,,,,,,,,,,,,,,,,,,,
,,,,,,,,2023-08-16_07h47.12.862,HF_wild_card,2022.2.4,Win32,59.07372401,5c9224087a7067000190b119,64d2fd46c836a06233681665,64dc7ef3c14e3476108b8b2d,,,,,,,decisionTrl,resources/DP.BMP,resources/DB.BMP,Door1,-0.423148148,-0.002777778,1,0,0,0.7809,optionLeft,30,6290,3,35,0,35,0,1,,,,,,,,,,,,,,,,,,,,,,,,,,,,,,,,,,,,,,,
,,,,,,,,2023-08-16_07h47.12.862,HF_wild_card,2022.2.4,Win32,59.07372401,5c9224087a7067000190b119,64d2fd46c836a06233681665,64dc7ef3c14e3476108b8b2d,,,,,,,ctch,resources/DP.BMP,resources/DY.BMP,Door4,0.155555556,-0.019444444,1,0,0,0.8129,optionRight,60,6350,3,36,0,36,0,1,,,,,,,,,,,,,,,,,,,,,,,,,,,,,,,,,,,,,,,
,,,,,,,,2023-08-16_07h47.12.862,HF_wild_card,2022.2.4,Win32,59.07372401,5c9224087a7067000190b119,64d2fd46c836a06233681665,64dc7ef3c14e3476108b8b2d,,,,,,,decisionTrl,resources/DY.BMP,resources/DBN.BMP,Door3,0.203703704,-0.036111111,1,0,0,0.6297,optionRight,70,6420,3,37,0,37,0,1,,,,,,,,,,,,,,,,,,,,,,,,,,,,,,,,,,,,,,,
,,,,,,,,2023-08-16_07h47.12.862,HF_wild_card,2022.2.4,Win32,59.07372401,5c9224087a7067000190b119,64d2fd46c836a06233681665,64dc7ef3c14e3476108b8b2d,,,,,,,decisionTrl,resources/DG.BMP,resources/DY.BMP,WildCard_NonEx,-0.239814815,-0.018518519,1,0,0,0.7465,optionLeft,55,6475,3,38,0,38,0,1,,,,,,,,,,,,,,,,,,,,,,,,,,,,,,,,,,,,,,,
,,,,,,,,2023-08-16_07h47.12.862,HF_wild_card,2022.2.4,Win32,59.07372401,5c9224087a7067000190b119,64d2fd46c836a06233681665,64dc7ef3c14e3476108b8b2d,,,,,,,decisionTrl,resources/DBN.BMP,resources/DG.BMP,Door3,-0.328703704,-0.015740741,1,0,0,1.5432,optionLeft,70,6545,3,39,0,39,0,1,,,,,,,,,,,,,,,,,,,,,,,,,,,,,,,,,,,,,,,
,,,,,,,,2023-08-16_07h47.12.862,HF_wild_card,2022.2.4,Win32,59.07372401,5c9224087a7067000190b119,64d2fd46c836a06233681665,64dc7ef3c14e3476108b8b2d,,,,,,,decisionTrl,resources/DP.BMP,resources/DB.BMP,Door1,-0.233333333,-0.013888889,1,0,0,0.7136,optionLeft,30,6575,3,40,0,40,0,1,,,,,,,,,,,,,,,,,,,,,,,,,,,,,,,,,,,,,,,
,,,,,,,,2023-08-16_07h47.12.862,HF_wild_card,2022.2.4,Win32,59.07372401,5c9224087a7067000190b119,64d2fd46c836a06233681665,64dc7ef3c14e3476108b8b2d,,,,,,,ctch,resources/DB.BMP,resources/DBN.BMP,Door3,0.19537037,-0.014814815,1,0,0,0.5744,optionRight,70,6645,3,41,0,41,0,1,,,,,,,,,,,,,,,,,,,,,,,,,,,,,,,,,,,,,,,
,,,,,,,,2023-08-16_07h47.12.862,HF_wild_card,2022.2.4,Win32,59.07372401,5c9224087a7067000190b119,64d2fd46c836a06233681665,64dc7ef3c14e3476108b8b2d,,,,,,,decisionTrl,resources/DG.BMP,resources/DB.BMP,WildCard_NonEx,-0.20462963,-0.001851852,1,0,0,0.6101,optionLeft,45,6690,3,42,0,42,0,1,,,,,,,,,,,,,,,,,,,,,,,,,,,,,,,,,,,,,,,
,,,,,,,,2023-08-16_07h47.12.862,HF_wild_card,2022.2.4,Win32,59.07372401,5c9224087a7067000190b119,64d2fd46c836a06233681665,64dc7ef3c14e3476108b8b2d,,,,,,,sngl,resources/DY.BMP,resources/Empty.png,Door4,-0.309259259,-0.011111111,1,0,0,0.5971,optionLeft,80,6770,3,43,0,43,0,1,,,,,,,,,,,,,,,,,,,,,,,,,,,,,,,,,,,,,,,
,,,,,,,,2023-08-16_07h47.12.862,HF_wild_card,2022.2.4,Win32,59.07372401,5c9224087a7067000190b119,64d2fd46c836a06233681665,64dc7ef3c14e3476108b8b2d,,,,,,,,,,,,,,,,,,,,,,,,,,2,0,2,0,1,,,,,,,,,,,,,,,,,,,,,,,,,,,,,,,,,,
,,,,,,,,2023-08-16_07h47.12.862,HF_wild_card,2022.2.4,Win32,59.07372401,5c9224087a7067000190b119,64d2fd46c836a06233681665,64dc7ef3c14e3476108b8b2d,,,,,,,decisionTrl,resources/DR.BMP,resources/DB.BMP,WildCard_Ex,-0.340740741,-0.077777778,1,0,0,1.0204,optionLeft,5,6775,4,0,0,0,0,1,,,,,,,,,,,,,,,,,,,,,,,,,,,,,,,,,,,,,,,
,,,,,,,,2023-08-16_07h47.12.862,HF_wild_card,2022.2.4,Win32,59.07372401,5c9224087a7067000190b119,64d2fd46c836a06233681665,64dc7ef3c14e3476108b8b2d,,,,,,,sngl,resources/Empty.png,resources/DR.BMP,WildCard_Ex,0.287037037,0.003703704,1,0,0,0.6636,optionRight,5,6780,4,1,0,1,0,1,,,,,,,,,,,,,,,,,,,,,,,,,,,,,,,,,,,,,,,
,,,,,,,,2023-08-16_07h47.12.862,HF_wild_card,2022.2.4,Win32,59.07372401,5c9224087a7067000190b119,64d2fd46c836a06233681665,64dc7ef3c14e3476108b8b2d,,,,,,,decisionTrl,resources/DP.BMP,resources/DB.BMP,Door2,0.214814815,-0.017592593,1,0,0,0.5634,optionRight,40,6820,4,2,0,2,0,1,,,,,,,,,,,,,,,,,,,,,,,,,,,,,,,,,,,,,,,
,,,,,,,,2023-08-16_07h47.12.862,HF_wild_card,2022.2.4,Win32,59.07372401,5c9224087a7067000190b119,64d2fd46c836a06233681665,64dc7ef3c14e3476108b8b2d,,,,,,,decisionTrl,resources/DP.BMP,resources/DB.BMP,Door1,-0.275925926,0.00462963,1,0,0,0.5312,optionLeft,30,6850,4,3,0,3,0,1,,,,,,,,,,,,,,,,,,,,,,,,,,,,,,,,,,,,,,,
,,,,,,,,2023-08-16_07h47.12.862,HF_wild_card,2022.2.4,Win32,59.07372401,5c9224087a7067000190b119,64d2fd46c836a06233681665,64dc7ef3c14e3476108b8b2d,,,,,,,decisionTrl,resources/DBN.BMP,resources/DY.BMP,Door4,0.173148148,-0.025,1,0,0,0.8274,optionRight,80,6930,4,4,0,4,0,1,,,,,,,,,,,,,,,,,,,,,,,,,,,,,,,,,,,,,,,
,,,,,,,,2023-08-16_07h47.12.862,HF_wild_card,2022.2.4,Win32,59.07372401,5c9224087a7067000190b119,64d2fd46c836a06233681665,64dc7ef3c14e3476108b8b2d,,,,,,,sngl,resources/Empty.png,resources/DBN.BMP,Door3,0.197222222,-0.023148148,1,0,0,0.6131,optionRight,70,7000,4,5,0,5,0,1,,,,,,,,,,,,,,,,,,,,,,,,,,,,,,,,,,,,,,,
,,,,,,,,2023-08-16_07h47.12.862,HF_wild_card,2022.2.4,Win32,59.07372401,5c9224087a7067000190b119,64d2fd46c836a06233681665,64dc7ef3c14e3476108b8b2d,,,,,,,decisionTrl,resources/DR.BMP,resources/DBN.BMP,Door3,0.357407407,-0.034259259,1,0,0,0.9268,optionRight,70,7070,4,6,0,6,0,1,,,,,,,,,,,,,,,,,,,,,,,,,,,,,,,,,,,,,,,
,,,,,,,,2023-08-16_07h47.12.862,HF_wild_card,2022.2.4,Win32,59.07372401,5c9224087a7067000190b119,64d2fd46c836a06233681665,64dc7ef3c14e3476108b8b2d,,,,,,,decisionTrl,resources/DP.BMP,resources/DB.BMP,Door1,-0.319444444,0.007407407,1,0,0,0.7462,optionLeft,30,7100,4,7,0,7,0,1,,,,,,,,,,,,,,,,,,,,,,,,,,,,,,,,,,,,,,,
,,,,,,,,2023-08-16_07h47.12.862,HF_wild_card,2022.2.4,Win32,59.07372401,5c9224087a7067000190b119,64d2fd46c836a06233681665,64dc7ef3c14e3476108b8b2d,,,,,,,ctch,resources/DY.BMP,resources/DP.BMP,Door1,0.202777778,-0.025,1,0,0,0.6135,optionRight,30,7130,4,8,0,8,0,1,,,,,,,,,,,,,,,,,,,,,,,,,,,,,,,,,,,,,,,
,,,,,,,,2023-08-16_07h47.12.862,HF_wild_card,2022.2.4,Win32,59.07372401,5c9224087a7067000190b119,64d2fd46c836a06233681665,64dc7ef3c14e3476108b8b2d,,,,,,,sngl,resources/DB.BMP,resources/Empty.png,Door2,-0.265740741,0.012962963,1,0,0,0.5472,optionLeft,20,7150,4,9,0,9,0,1,,,,,,,,,,,,,,,,,,,,,,,,,,,,,,,,,,,,,,,
,,,,,,,,2023-08-16_07h47.12.862,HF_wild_card,2022.2.4,Win32,59.07372401,5c9224087a7067000190b119,64d2fd46c836a06233681665,64dc7ef3c14e3476108b8b2d,,,,,,,sngl,resources/Empty.png,resources/DY.BMP,Door4,0.203703704,-0.011111111,1,0,0,0.5798,optionRight,80,7230,4,10,0,10,0,1,,,,,,,,,,,,,,,,,,,,,,,,,,,,,,,,,,,,,,,
,,,,,,,,2023-08-16_07h47.12.862,HF_wild_card,2022.2.4,Win32,59.07372401,5c9224087a7067000190b119,64d2fd46c836a06233681665,64dc7ef3c14e3476108b8b2d,,,,,,,ctch,resources/DY.BMP,resources/DP.BMP,Door4,-0.244444444,-0.001851852,1,0,0,1.0598,optionLeft,80,7310,4,11,0,11,0,1,,,,,,,,,,,,,,,,,,,,,,,,,,,,,,,,,,,,,,,
,,,,,,,,2023-08-16_07h47.12.862,HF_wild_card,2022.2.4,Win32,59.07372401,5c9224087a7067000190b119,64d2fd46c836a06233681665,64dc7ef3c14e3476108b8b2d,,,,,,,sngl,resources/DP.BMP,resources/Empty.png,Door1,-0.171296296,-0.003703704,1,0,0,0.5437,optionLeft,30,7340,4,12,0,12,0,1,,,,,,,,,,,,,,,,,,,,,,,,,,,,,,,,,,,,,,,
,,,,,,,,2023-08-16_07h47.12.862,HF_wild_card,2022.2.4,Win32,59.07372401,5c9224087a7067000190b119,64d2fd46c836a06233681665,64dc7ef3c14e3476108b8b2d,,,,,,,ctch,resources/DP.BMP,resources/DY.BMP,Door4,0.165740741,-0.012037037,1,0,0,0.7276,optionRight,60,7400,4,13,0,13,0,1,,,,,,,,,,,,,,,,,,,,,,,,,,,,,,,,,,,,,,,
,,,,,,,,2023-08-16_07h47.12.862,HF_wild_card,2022.2.4,Win32,59.07372401,5c9224087a7067000190b119,64d2fd46c836a06233681665,64dc7ef3c14e3476108b8b2d,,,,,,,decisionTrl,resources/DR.BMP,resources/DY.BMP,Door4,0.227777778,-0.006481481,1,0,0,0.8755,optionRight,80,7480,4,14,0,14,0,1,,,,,,,,,,,,,,,,,,,,,,,,,,,,,,,,,,,,,,,
,,,,,,,,2023-08-16_07h47.12.862,HF_wild_card,2022.2.4,Win32,59.07372401,5c9224087a7067000190b119,64d2fd46c836a06233681665,64dc7ef3c14e3476108b8b2d,,,,,,,decisionTrl,resources/DB.BMP,resources/DR.BMP,WildCard_Ex,0.324074074,-0.021296296,1,0,0,1.1456,optionRight,95,7575,4,15,0,15,0,1,,,,,,,,,,,,,,,,,,,,,,,,,,,,,,,,,,,,,,,
,,,,,,,,2023-08-16_07h47.12.862,HF_wild_card,2022.2.4,Win32,59.07372401,5c9224087a7067000190b119,64d2fd46c836a06233681665,64dc7ef3c14e3476108b8b2d,,,,,,,sngl,resources/Empty.png,resources/DR.BMP,WildCard_Ex,0.221296296,-0.008333333,1,0,0,0.6613,optionRight,95,7670,4,16,0,16,0,1,,,,,,,,,,,,,,,,,,,,,,,,,,,,,,,,,,,,,,,
,,,,,,,,2023-08-16_07h47.12.862,HF_wild_card,2022.2.4,Win32,59.07372401,5c9224087a7067000190b119,64d2fd46c836a06233681665,64dc7ef3c14e3476108b8b2d,,,,,,,decisionTrl,resources/DBN.BMP,resources/DY.BMP,Door3,-0.185185185,-0.024074074,1,0,0,1.3309,optionLeft,70,7740,4,17,0,17,0,1,,,,,,,,,,,,,,,,,,,,,,,,,,,,,,,,,,,,,,,
,,,,,,,,2023-08-16_07h47.12.862,HF_wild_card,2022.2.4,Win32,59.07372401,5c9224087a7067000190b119,64d2fd46c836a06233681665,64dc7ef3c14e3476108b8b2d,,,,,,,decisionTrl,resources/DB.BMP,resources/DP.BMP,Door1,0.208333333,-0.028703704,1,0,0,0.5979,optionRight,30,7770,4,18,0,18,0,1,,,,,,,,,,,,,,,,,,,,,,,,,,,,,,,,,,,,,,,
,,,,,,,,2023-08-16_07h47.12.862,HF_wild_card,2022.2.4,Win32,59.07372401,5c9224087a7067000190b119,64d2fd46c836a06233681665,64dc7ef3c14e3476108b8b2d,,,,,,,decisionTrl,resources/DY.BMP,resources/DBN.BMP,Door3,0.260185185,-0.04537037,1,0,0,0.8301,optionRight,70,7840,4,19,0,19,0,1,,,,,,,,,,,,,,,,,,,,,,,,,,,,,,,,,,,,,,,
,,,,,,,,2023-08-16_07h47.12.862,HF_wild_card,2022.2.4,Win32,59.07372401,5c9224087a7067000190b119,64d2fd46c836a06233681665,64dc7ef3c14e3476108b8b2d,,,,,,,decisionTrl,resources/DP.BMP,resources/DB.BMP,Door1,-0.257407407,-0.005555556,1,0,0,0.8456,optionLeft,30,7870,4,20,0,20,0,1,,,,,,,,,,,,,,,,,,,,,,,,,,,,,,,,,,,,,,,
,,,,,,,,2023-08-16_07h47.12.862,HF_wild_card,2022.2.4,Win32,59.07372401,5c9224087a7067000190b119,64d2fd46c836a06233681665,64dc7ef3c14e3476108b8b2d,,,,,,,ctch,resources/DP.BMP,resources/DY.BMP,Door4,0.189814815,-0.012037037,1,0,0,0.5956,optionRight,60,7930,4,21,0,21,0,1,,,,,,,,,,,,,,,,,,,,,,,,,,,,,,,,,,,,,,,
,,,,,,,,2023-08-16_07h47.12.862,HF_wild_card,2022.2.4,Win32,59.07372401,5c9224087a7067000190b119,64d2fd46c836a06233681665,64dc7ef3c14e3476108b8b2d,,,,,,,decisionTrl,resources/DB.BMP,resources/DP.BMP,Door1,0.19537037,-0.017592593,1,0,0,0.8303,optionRight,30,7960,4,22,0,22,0,1,,,,,,,,,,,,,,,,,,,,,,,,,,,,,,,,,,,,,,,
,,,,,,,,2023-08-16_07h47.12.862,HF_wild_card,2022.2.4,Win32,59.07372401,5c9224087a7067000190b119,64d2fd46c836a06233681665,64dc7ef3c14e3476108b8b2d,,,,,,,decisionTrl,resources/DR.BMP,resources/DP.BMP,WildCard_Ex,-0.160185185,0.000925926,1,0,0,0.8638,optionLeft,5,7965,4,23,0,23,0,1,,,,,,,,,,,,,,,,,,,,,,,,,,,,,,,,,,,,,,,
,,,,,,,,2023-08-16_07h47.12.862,HF_wild_card,2022.2.4,Win32,59.07372401,5c9224087a7067000190b119,64d2fd46c836a06233681665,64dc7ef3c14e3476108b8b2d,,,,,,,sngl,resources/DR.BMP,resources/Empty.png,WildCard_Ex,-0.281481481,0.025,1,0,0,1.2433,optionLeft,5,7970,4,24,0,24,0,1,,,,,,,,,,,,,,,,,,,,,,,,,,,,,,,,,,,,,,,
,,,,,,,,2023-08-16_07h47.12.862,HF_wild_card,2022.2.4,Win32,59.07372401,5c9224087a7067000190b119,64d2fd46c836a06233681665,64dc7ef3c14e3476108b8b2d,,,,,,,ctch,resources/DB.BMP,resources/DBN.BMP,Door3,0.256481481,-0.02037037,1,0,0,0.6312,optionRight,70,8040,4,25,0,25,0,1,,,,,,,,,,,,,,,,,,,,,,,,,,,,,,,,,,,,,,,
,,,,,,,,2023-08-16_07h47.12.862,HF_wild_card,2022.2.4,Win32,59.07372401,5c9224087a7067000190b119,64d2fd46c836a06233681665,64dc7ef3c14e3476108b8b2d,,,,,,,decisionTrl,resources/DY.BMP,resources/DBN.BMP,Door4,-0.175,-0.003703704,1,0,0,0.7117,optionLeft,60,8100,4,26,0,26,0,1,,,,,,,,,,,,,,,,,,,,,,,,,,,,,,,,,,,,,,,
,,,,,,,,2023-08-16_07h47.12.862,HF_wild_card,2022.2.4,Win32,59.07372401,5c9224087a7067000190b119,64d2fd46c836a06233681665,64dc7ef3c14e3476108b8b2d,,,,,,,decisionTrl,resources/DB.BMP,resources/DP.BMP,Door1,0.201851852,-0.022222222,1,0,0,0.6315,optionRight,30,8130,4,27,0,27,0,1,,,,,,,,,,,,,,,,,,,,,,,,,,,,,,,,,,,,,,,
,,,,,,,,2023-08-16_07h47.12.862,HF_wild_card,2022.2.4,Win32,59.07372401,5c9224087a7067000190b119,64d2fd46c836a06233681665,64dc7ef3c14e3476108b8b2d,,,,,,,decisionTrl,resources/DB.BMP,resources/DP.BMP,Door2,-0.191666667,0.001851852,1,0,0,0.598,optionLeft,20,8150,4,28,0,28,0,1,,,,,,,,,,,,,,,,,,,,,,,,,,,,,,,,,,,,,,,
,,,,,,,,2023-08-16_07h47.12.862,HF_wild_card,2022.2.4,Win32,59.07372401,5c9224087a7067000190b119,64d2fd46c836a06233681665,64dc7ef3c14e3476108b8b2d,,,,,,,sngl,resources/DBN.BMP,resources/Empty.png,Door3,-0.169444444,-0.019444444,1,0,0,0.5799,optionLeft,70,8220,4,29,0,29,0,1,,,,,,,,,,,,,,,,,,,,,,,,,,,,,,,,,,,,,,,
,,,,,,,,2023-08-16_07h47.12.862,HF_wild_card,2022.2.4,Win32,59.07372401,5c9224087a7067000190b119,64d2fd46c836a06233681665,64dc7ef3c14e3476108b8b2d,,,,,,,sngl,resources/Empty.png,resources/DB.BMP,Door2,0.189814815,-0.013888889,1,0,0,0.5596,optionRight,40,8260,4,30,0,30,0,1,,,,,,,,,,,,,,,,,,,,,,,,,,,,,,,,,,,,,,,
,,,,,,,,2023-08-16_07h47.12.862,HF_wild_card,2022.2.4,Win32,59.07372401,5c9224087a7067000190b119,64d2fd46c836a06233681665,64dc7ef3c14e3476108b8b2d,,,,,,,decisionTrl,resources/DY.BMP,resources/DR.BMP,WildCard_Ex,0.227777778,-0.022222222,1,0,0,0.9787,optionRight,5,8265,4,31,0,31,0,1,,,,,,,,,,,,,,,,,,,,,,,,,,,,,,,,,,,,,,,
,,,,,,,,2023-08-16_07h47.12.862,HF_wild_card,2022.2.4,Win32,59.07372401,5c9224087a7067000190b119,64d2fd46c836a06233681665,64dc7ef3c14e3476108b8b2d,,,,,,,sngl,resources/DR.BMP,resources/Empty.png,WildCard_Ex,-0.137962963,-0.021296296,1,0,0,0.5794,optionLeft,95,8360,4,32,0,32,0,1,,,,,,,,,,,,,,,,,,,,,,,,,,,,,,,,,,,,,,,
,,,,,,,,2023-08-16_07h47.12.862,HF_wild_card,2022.2.4,Win32,59.07372401,5c9224087a7067000190b119,64d2fd46c836a06233681665,64dc7ef3c14e3476108b8b2d,,,,,,,ctch,resources/DBN.BMP,resources/DB.BMP,Door3,-0.185185185,-0.016666667,1,0,0,0.7474,optionLeft,70,8430,4,33,0,33,0,1,,,,,,,,,,,,,,,,,,,,,,,,,,,,,,,,,,,,,,,
,,,,,,,,2023-08-16_07h47.12.862,HF_wild_card,2022.2.4,Win32,59.07372401,5c9224087a7067000190b119,64d2fd46c836a06233681665,64dc7ef3c14e3476108b8b2d,,,,,,,decisionTrl,resources/DBN.BMP,resources/DY.BMP,Door3,-0.212962963,-0.006481481,1,0,0,0.5808,optionLeft,70,8500,4,34,0,34,0,1,,,,,,,,,,,,,,,,,,,,,,,,,,,,,,,,,,,,,,,
,,,,,,,,2023-08-16_07h47.12.862,HF_wild_card,2022.2.4,Win32,59.07372401,5c9224087a7067000190b119,64d2fd46c836a06233681665,64dc7ef3c14e3476108b8b2d,,,,,,,decisionTrl,resources/DBN.BMP,resources/DY.BMP,Door3,-0.147222222,0.006481481,1,0,0,0.5143,optionLeft,70,8570,4,35,0,35,0,1,,,,,,,,,,,,,,,,,,,,,,,,,,,,,,,,,,,,,,,
,,,,,,,,2023-08-16_07h47.12.862,HF_wild_card,2022.2.4,Win32,59.07372401,5c9224087a7067000190b119,64d2fd46c836a06233681665,64dc7ef3c14e3476108b8b2d,,,,,,,decisionTrl,resources/DP.BMP,resources/DR.BMP,Door1,-0.190740741,0.039814815,1,0,0,0.9793,optionLeft,30,8600,4,36,0,36,0,1,,,,,,,,,,,,,,,,,,,,,,,,,,,,,,,,,,,,,,,
,,,,,,,,2023-08-16_07h47.12.862,HF_wild_card,2022.2.4,Win32,59.07372401,5c9224087a7067000190b119,64d2fd46c836a06233681665,64dc7ef3c14e3476108b8b2d,,,,,,,sngl,resources/DY.BMP,resources/Empty.png,Door4,-0.165740741,0.009259259,1,0,0,0.5604,optionLeft,60,8660,4,37,0,37,0,1,,,,,,,,,,,,,,,,,,,,,,,,,,,,,,,,,,,,,,,
,,,,,,,,2023-08-16_07h47.12.862,HF_wild_card,2022.2.4,Win32,59.07372401,5c9224087a7067000190b119,64d2fd46c836a06233681665,64dc7ef3c14e3476108b8b2d,,,,,,,ctch,resources/DB.BMP,resources/DBN.BMP,Door3,0.228703704,0.010185185,1,0,0,0.8772,optionRight,70,8730,4,38,0,38,0,1,,,,,,,,,,,,,,,,,,,,,,,,,,,,,,,,,,,,,,,
,,,,,,,,2023-08-16_07h47.12.862,HF_wild_card,2022.2.4,Win32,59.07372401,5c9224087a7067000190b119,64d2fd46c836a06233681665,64dc7ef3c14e3476108b8b2d,,,,,,,decisionTrl,resources/DBN.BMP,resources/DR.BMP,Door3,-0.284259259,0.010185185,1,0,0,0.6803,optionLeft,70,8800,4,39,0,39,0,1,,,,,,,,,,,,,,,,,,,,,,,,,,,,,,,,,,,,,,,
,,,,,,,,2023-08-16_07h47.12.862,HF_wild_card,2022.2.4,Win32,59.07372401,5c9224087a7067000190b119,64d2fd46c836a06233681665,64dc7ef3c14e3476108b8b2d,,,,,,,decisionTrl,resources/DY.BMP,resources/DBN.BMP,Door3,0.211111111,-0.002777778,1,0,0,0.8598,optionRight,70,8870,4,40,0,40,0,1,,,,,,,,,,,,,,,,,,,,,,,,,,,,,,,,,,,,,,,
,,,,,,,,2023-08-16_07h47.12.862,HF_wild_card,2022.2.4,Win32,59.07372401,5c9224087a7067000190b119,64d2fd46c836a06233681665,64dc7ef3c14e3476108b8b2d,,,,,,,decisionTrl,resources/DY.BMP,resources/DBN.BMP,Door3,0.233333333,-0.000925926,1,0,0,0.8134,optionRight,70,8940,4,41,0,41,0,1,,,,,,,,,,,,,,,,,,,,,,,,,,,,,,,,,,,,,,,
,,,,,,,,2023-08-16_07h47.12.862,HF_wild_card,2022.2.4,Win32,59.07372401,5c9224087a7067000190b119,64d2fd46c836a06233681665,64dc7ef3c14e3476108b8b2d,,,,,,,sngl,resources/Empty.png,resources/DP.BMP,Door1,0.208333333,-0.010185185,1,0,0,0.5462,optionRight,30,8970,4,42,0,42,0,1,,,,,,,,,,,,,,,,,,,,,,,,,,,,,,,,,,,,,,,
,,,,,,,,2023-08-16_07h47.12.862,HF_wild_card,2022.2.4,Win32,59.07372401,5c9224087a7067000190b119,64d2fd46c836a06233681665,64dc7ef3c14e3476108b8b2d,,,,,,,ctch,resources/DBN.BMP,resources/DB.BMP,Door3,-0.202777778,0.008333333,1,0,0,0.6795,optionLeft,70,9040,4,43,0,43,0,1,,,,,,,,,,,,,,,,,,,,,,,,,,,,,,,,,,,,,,,
,,,,,,,,2023-08-16_07h47.12.862,HF_wild_card,2022.2.4,Win32,59.07372401,5c9224087a7067000190b119,64d2fd46c836a06233681665,64dc7ef3c14e3476108b8b2d,,,,,,,,,,,,,,,,,,,,,,,,,,3,0,3,0,1,,,,,,,,,,,,,,,,,,,,,,,,,,,,,,,,,,
,,,,,,,,2023-08-16_07h47.12.862,HF_wild_card,2022.2.4,Win32,59.07372401,5c9224087a7067000190b119,64d2fd46c836a06233681665,64dc7ef3c14e3476108b8b2d,,,,,,,decisionTrl,resources/DY.BMP,resources/DBN.BMP,Door3,0.258333333,-0.012962963,1,0,0,0.8713,optionRight,70,9110,5,0,0,0,0,1,,,,,,,,,,,,,,,,,,,,,,,,,,,,,,,,,,,,,,,
,,,,,,,,2023-08-16_07h47.12.862,HF_wild_card,2022.2.4,Win32,59.07372401,5c9224087a7067000190b119,64d2fd46c836a06233681665,64dc7ef3c14e3476108b8b2d,,,,,,,decisionTrl,resources/DR.BMP,resources/DP.BMP,WildCard_Ex,-0.247222222,-0.012037037,1,0,0,0.6977,optionLeft,95,9205,5,1,0,1,0,1,,,,,,,,,,,,,,,,,,,,,,,,,,,,,,,,,,,,,,,
,,,,,,,,2023-08-16_07h47.12.862,HF_wild_card,2022.2.4,Win32,59.07372401,5c9224087a7067000190b119,64d2fd46c836a06233681665,64dc7ef3c14e3476108b8b2d,,,,,,,sngl,resources/DR.BMP,resources/Empty.png,WildCard_Ex,-0.196296296,0.048148148,1,0,0,0.647,optionLeft,5,9210,5,2,0,2,0,1,,,,,,,,,,,,,,,,,,,,,,,,,,,,,,,,,,,,,,,
,,,,,,,,2023-08-16_07h47.12.862,HF_wild_card,2022.2.4,Win32,59.07372401,5c9224087a7067000190b119,64d2fd46c836a06233681665,64dc7ef3c14e3476108b8b2d,,,,,,,sngl,resources/Empty.png,resources/DP.BMP,Door1,0.247222222,-0.008333333,1,0,0,0.51,optionRight,30,9240,5,3,0,3,0,1,,,,,,,,,,,,,,,,,,,,,,,,,,,,,,,,,,,,,,,
,,,,,,,,2023-08-16_07h47.12.862,HF_wild_card,2022.2.4,Win32,59.07372401,5c9224087a7067000190b119,64d2fd46c836a06233681665,64dc7ef3c14e3476108b8b2d,,,,,,,ctch,resources/DB.BMP,resources/DBN.BMP,Door2,-0.197222222,-0.012962963,1,0,0,0.6472,optionLeft,20,9260,5,4,0,4,0,1,,,,,,,,,,,,,,,,,,,,,,,,,,,,,,,,,,,,,,,
,,,,,,,,2023-08-16_07h47.12.862,HF_wild_card,2022.2.4,Win32,59.07372401,5c9224087a7067000190b119,64d2fd46c836a06233681665,64dc7ef3c14e3476108b8b2d,,,,,,,decisionTrl,resources/DR.BMP,resources/DY.BMP,Door4,0.173148148,-0.011111111,1,0,0,0.7455,optionRight,60,9320,5,5,0,5,0,1,,,,,,,,,,,,,,,,,,,,,,,,,,,,,,,,,,,,,,,
,,,,,,,,2023-08-16_07h47.12.862,HF_wild_card,2022.2.4,Win32,59.07372401,5c9224087a7067000190b119,64d2fd46c836a06233681665,64dc7ef3c14e3476108b8b2d,,,,,,,decisionTrl,resources/DB.BMP,resources/DP.BMP,Door2,-0.201851852,0,1,0,0,0.6762,optionLeft,20,9340,5,6,0,6,0,1,,,,,,,,,,,,,,,,,,,,,,,,,,,,,,,,,,,,,,,
,,,,,,,,2023-08-16_07h47.12.862,HF_wild_card,2022.2.4,Win32,59.07372401,5c9224087a7067000190b119,64d2fd46c836a06233681665,64dc7ef3c14e3476108b8b2d,,,,,,,decisionTrl,resources/DY.BMP,resources/DBN.BMP,Door3,0.121296296,-0.016666667,1,0,0,0.7805,optionRight,70,9410,5,7,0,7,0,1,,,,,,,,,,,,,,,,,,,,,,,,,,,,,,,,,,,,,,,
,,,,,,,,2023-08-16_07h47.12.862,HF_wild_card,2022.2.4,Win32,59.07372401,5c9224087a7067000190b119,64d2fd46c836a06233681665,64dc7ef3c14e3476108b8b2d,,,,,,,decisionTrl,resources/DBN.BMP,resources/DY.BMP,Door3,-0.238888889,0.006481481,1,0,0,0.7105,optionLeft,70,9480,5,8,0,8,0,1,,,,,,,,,,,,,,,,,,,,,,,,,,,,,,,,,,,,,,,
,,,,,,,,2023-08-16_07h47.12.862,HF_wild_card,2022.2.4,Win32,59.07372401,5c9224087a7067000190b119,64d2fd46c836a06233681665,64dc7ef3c14e3476108b8b2d,,,,,,,sngl,resources/DBN.BMP,resources/Empty.png,Door3,-0.253703704,-0.006481481,1,0,0,0.5632,optionLeft,70,9550,5,9,0,9,0,1,,,,,,,,,,,,,,,,,,,,,,,,,,,,,,,,,,,,,,,
,,,,,,,,2023-08-16_07h47.12.862,HF_wild_card,2022.2.4,Win32,59.07372401,5c9224087a7067000190b119,64d2fd46c836a06233681665,64dc7ef3c14e3476108b8b2d,,,,,,,sngl,resources/DB.BMP,resources/Empty.png,Door2,-0.247222222,-0.006481481,1,0,0,0.5941,optionLeft,40,9590,5,10,0,10,0,1,,,,,,,,,,,,,,,,,,,,,,,,,,,,,,,,,,,,,,,
,,,,,,,,2023-08-16_07h47.12.862,HF_wild_card,2022.2.4,Win32,59.07372401,5c9224087a7067000190b119,64d2fd46c836a06233681665,64dc7ef3c14e3476108b8b2d,,,,,,,decisionTrl,resources/DY.BMP,resources/DR.BMP,Door4,-0.223148148,-0.012037037,1,0,0,0.8125,optionLeft,80,9670,5,11,0,11,0,1,,,,,,,,,,,,,,,,,,,,,,,,,,,,,,,,,,,,,,,
,,,,,,,,2023-08-16_07h47.12.862,HF_wild_card,2022.2.4,Win32,59.07372401,5c9224087a7067000190b119,64d2fd46c836a06233681665,64dc7ef3c14e3476108b8b2d,,,,,,,ctch,resources/DBN.BMP,resources/DB.BMP,Door3,-0.199074074,-0.010185185,1,0,0,0.627,optionLeft,70,9740,5,12,0,12,0,1,,,,,,,,,,,,,,,,,,,,,,,,,,,,,,,,,,,,,,,
,,,,,,,,2023-08-16_07h47.12.862,HF_wild_card,2022.2.4,Win32,59.07372401,5c9224087a7067000190b119,64d2fd46c836a06233681665,64dc7ef3c14e3476108b8b2d,,,,,,,decisionTrl,resources/DY.BMP,resources/DBN.BMP,Door3,0.202777778,-0.018518519,1,0,0,0.7123,optionRight,70,9810,5,13,0,13,0,1,,,,,,,,,,,,,,,,,,,,,,,,,,,,,,,,,,,,,,,
,,,,,,,,2023-08-16_07h47.12.862,HF_wild_card,2022.2.4,Win32,59.07372401,5c9224087a7067000190b119,64d2fd46c836a06233681665,64dc7ef3c14e3476108b8b2d,,,,,,,sngl,resources/Empty.png,resources/DR.BMP,WildCard_Ex,0.141666667,-0.016666667,1,0,0,0.6451,optionRight,95,9905,5,14,0,14,0,1,,,,,,,,,,,,,,,,,,,,,,,,,,,,,,,,,,,,,,,
,,,,,,,,2023-08-16_07h47.12.862,HF_wild_card,2022.2.4,Win32,59.07372401,5c9224087a7067000190b119,64d2fd46c836a06233681665,64dc7ef3c14e3476108b8b2d,,,,,,,ctch,resources/DY.BMP,resources/DP.BMP,Door4,-0.236111111,0.00462963,1,0,0,0.7812,optionLeft,60,9965,5,15,0,15,0,1,,,,,,,,,,,,,,,,,,,,,,,,,,,,,,,,,,,,,,,
,,,,,,,,2023-08-16_07h47.12.862,HF_wild_card,2022.2.4,Win32,59.07372401,5c9224087a7067000190b119,64d2fd46c836a06233681665,64dc7ef3c14e3476108b8b2d,,,,,,,decisionTrl,resources/DB.BMP,resources/DP.BMP,Door1,0.196296296,-0.031481481,1,0,0,0.8642,optionRight,30,9995,5,16,0,16,0,1,,,,,,,,,,,,,,,,,,,,,,,,,,,,,,,,,,,,,,,
,,,,,,,,2023-08-16_07h47.12.862,HF_wild_card,2022.2.4,Win32,59.07372401,5c9224087a7067000190b119,64d2fd46c836a06233681665,64dc7ef3c14e3476108b8b2d,,,,,,,decisionTrl,resources/DBN.BMP,resources/DR.BMP,Door3,-0.225925926,-0.001851852,1,0,0,0.6227,optionLeft,70,10065,5,17,0,17,0,1,,,,,,,,,,,,,,,,,,,,,,,,,,,,,,,,,,,,,,,
,,,,,,,,2023-08-16_07h47.12.862,HF_wild_card,2022.2.4,Win32,59.07372401,5c9224087a7067000190b119,64d2fd46c836a06233681665,64dc7ef3c14e3476108b8b2d,,,,,,,ctch,resources/DBN.BMP,resources/DB.BMP,Door3,-0.183333333,0.026851852,1,0,0,0.6773,optionLeft,70,10135,5,18,0,18,0,1,,,,,,,,,,,,,,,,,,,,,,,,,,,,,,,,,,,,,,,
,,,,,,,,2023-08-16_07h47.12.862,HF_wild_card,2022.2.4,Win32,59.07372401,5c9224087a7067000190b119,64d2fd46c836a06233681665,64dc7ef3c14e3476108b8b2d,,,,,,,decisionTrl,resources/DY.BMP,resources/DBN.BMP,Door3,0.406481481,-0.000925926,1,0,0,1.4136,optionRight,70,10205,5,19,0,19,0,1,,,,,,,,,,,,,,,,,,,,,,,,,,,,,,,,,,,,,,,
,,,,,,,,2023-08-16_07h47.12.862,HF_wild_card,2022.2.4,Win32,59.07372401,5c9224087a7067000190b119,64d2fd46c836a06233681665,64dc7ef3c14e3476108b8b2d,,,,,,,decisionTrl,resources/DBN.BMP,resources/DY.BMP,Door3,-0.219444444,0.013888889,1,0,0,0.7425,optionLeft,70,10275,5,20,0,20,0,1,,,,,,,,,,,,,,,,,,,,,,,,,,,,,,,,,,,,,,,
,,,,,,,,2023-08-16_07h47.12.862,HF_wild_card,2022.2.4,Win32,59.07372401,5c9224087a7067000190b119,64d2fd46c836a06233681665,64dc7ef3c14e3476108b8b2d,,,,,,,ctch,resources/DP.BMP,resources/DY.BMP,Door1,-0.214814815,-0.015740741,1,0,0,0.6944,optionLeft,30,10305,5,21,0,21,0,1,,,,,,,,,,,,,,,,,,,,,,,,,,,,,,,,,,,,,,,
,,,,,,,,2023-08-16_07h47.12.862,HF_wild_card,2022.2.4,Win32,59.07372401,5c9224087a7067000190b119,64d2fd46c836a06233681665,64dc7ef3c14e3476108b8b2d,,,,,,,decisionTrl,resources/DP.BMP,resources/DB.BMP,Door2,0.185185185,-0.02962963,1,0,0,0.7442,optionRight,40,10345,5,22,0,22,0,1,,,,,,,,,,,,,,,,,,,,,,,,,,,,,,,,,,,,,,,
,,,,,,,,2023-08-16_07h47.12.862,HF_wild_card,2022.2.4,Win32,59.07372401,5c9224087a7067000190b119,64d2fd46c836a06233681665,64dc7ef3c14e3476108b8b2d,,,,,,,sngl,resources/Empty.png,resources/DBN.BMP,Door3,0.168518519,-0.016666667,1,0,0,0.61,optionRight,70,10415,5,23,0,23,0,1,,,,,,,,,,,,,,,,,,,,,,,,,,,,,,,,,,,,,,,
,,,,,,,,2023-08-16_07h47.12.862,HF_wild_card,2022.2.4,Win32,59.07372401,5c9224087a7067000190b119,64d2fd46c836a06233681665,64dc7ef3c14e3476108b8b2d,,,,,,,sngl,resources/DP.BMP,resources/Empty.png,Door1,-0.2,0.003703704,1,0,0,0.8107,optionLeft,30,10445,5,24,0,24,0,1,,,,,,,,,,,,,,,,,,,,,,,,,,,,,,,,,,,,,,,
,,,,,,,,2023-08-16_07h47.12.862,HF_wild_card,2022.2.4,Win32,59.07372401,5c9224087a7067000190b119,64d2fd46c836a06233681665,64dc7ef3c14e3476108b8b2d,,,,,,,sngl,resources/DY.BMP,resources/Empty.png,Door4,-0.191666667,-0.011111111,1,0,0,0.6608,optionLeft,80,10525,5,25,0,25,0,1,,,,,,,,,,,,,,,,,,,,,,,,,,,,,,,,,,,,,,,
,,,,,,,,2023-08-16_07h47.12.862,HF_wild_card,2022.2.4,Win32,59.07372401,5c9224087a7067000190b119,64d2fd46c836a06233681665,64dc7ef3c14e3476108b8b2d,,,,,,,sngl,resources/Empty.png,resources/DB.BMP,Door2,0.190740741,-0.017592593,1,0,0,0.6127,optionRight,20,10545,5,26,0,26,0,1,,,,,,,,,,,,,,,,,,,,,,,,,,,,,,,,,,,,,,,
,,,,,,,,2023-08-16_07h47.12.862,HF_wild_card,2022.2.4,Win32,59.07372401,5c9224087a7067000190b119,64d2fd46c836a06233681665,64dc7ef3c14e3476108b8b2d,,,,,,,decisionTrl,resources/DR.BMP,resources/DB.BMP,WildCard_Ex,-0.191666667,0.014814815,1,0,0,1.0621,optionLeft,95,10640,5,27,0,27,0,1,,,,,,,,,,,,,,,,,,,,,,,,,,,,,,,,,,,,,,,
,,,,,,,,2023-08-16_07h47.12.862,HF_wild_card,2022.2.4,Win32,59.07372401,5c9224087a7067000190b119,64d2fd46c836a06233681665,64dc7ef3c14e3476108b8b2d,,,,,,,sngl,resources/Empty.png,resources/DY.BMP,Door4,0.202777778,-0.012962963,1,0,0,0.5776,optionRight,60,10700,5,28,0,28,0,1,,,,,,,,,,,,,,,,,,,,,,,,,,,,,,,,,,,,,,,
,,,,,,,,2023-08-16_07h47.12.862,HF_wild_card,2022.2.4,Win32,59.07372401,5c9224087a7067000190b119,64d2fd46c836a06233681665,64dc7ef3c14e3476108b8b2d,,,,,,,ctch,resources/DB.BMP,resources/DBN.BMP,Door3,0.212962963,-0.012962963,1,0,0,0.8122,optionRight,70,10770,5,29,0,29,0,1,,,,,,,,,,,,,,,,,,,,,,,,,,,,,,,,,,,,,,,
,,,,,,,,2023-08-16_07h47.12.862,HF_wild_card,2022.2.4,Win32,59.07372401,5c9224087a7067000190b119,64d2fd46c836a06233681665,64dc7ef3c14e3476108b8b2d,,,,,,,decisionTrl,resources/DP.BMP,resources/DB.BMP,Door1,-0.258333333,0.005555556,1,0,0,0.713,optionLeft,30,10800,5,30,0,30,0,1,,,,,,,,,,,,,,,,,,,,,,,,,,,,,,,,,,,,,,,
,,,,,,,,2023-08-16_07h47.12.862,HF_wild_card,2022.2.4,Win32,59.07372401,5c9224087a7067000190b119,64d2fd46c836a06233681665,64dc7ef3c14e3476108b8b2d,,,,,,,decisionTrl,resources/DBN.BMP,resources/DY.BMP,Door3,-0.258333333,0.005555556,1,0,0,1.1463,optionLeft,70,10870,5,31,0,31,0,1,,,,,,,,,,,,,,,,,,,,,,,,,,,,,,,,,,,,,,,
,,,,,,,,2023-08-16_07h47.12.862,HF_wild_card,2022.2.4,Win32,59.07372401,5c9224087a7067000190b119,64d2fd46c836a06233681665,64dc7ef3c14e3476108b8b2d,,,,,,,decisionTrl,resources/DB.BMP,resources/DR.BMP,Door2,-0.221296296,-0.050925926,1,0,0,0.8464,optionLeft,20,10890,5,32,0,32,0,1,,,,,,,,,,,,,,,,,,,,,,,,,,,,,,,,,,,,,,,
,,,,,,,,2023-08-16_07h47.12.862,HF_wild_card,2022.2.4,Win32,59.07372401,5c9224087a7067000190b119,64d2fd46c836a06233681665,64dc7ef3c14e3476108b8b2d,,,,,,,decisionTrl,resources/DB.BMP,resources/DP.BMP,Door1,0.240740741,-0.028703704,1,0,0,1.0472,optionRight,30,10920,5,33,0,33,0,1,,,,,,,,,,,,,,,,,,,,,,,,,,,,,,,,,,,,,,,
,,,,,,,,2023-08-16_07h47.12.862,HF_wild_card,2022.2.4,Win32,59.07372401,5c9224087a7067000190b119,64d2fd46c836a06233681665,64dc7ef3c14e3476108b8b2d,,,,,,,decisionTrl,resources/DP.BMP,resources/DR.BMP,WildCard_Ex,0.305555556,-0.021296296,1,0,0,1.1469,optionRight,5,10925,5,34,0,34,0,1,,,,,,,,,,,,,,,,,,,,,,,,,,,,,,,,,,,,,,,
,,,,,,,,2023-08-16_07h47.12.862,HF_wild_card,2022.2.4,Win32,59.07372401,5c9224087a7067000190b119,64d2fd46c836a06233681665,64dc7ef3c14e3476108b8b2d,,,,,,,decisionTrl,resources/DB.BMP,resources/DP.BMP,Door2,-0.187037037,0.013888889,1,0,0,0.5789,optionLeft,20,10945,5,35,0,35,0,1,,,,,,,,,,,,,,,,,,,,,,,,,,,,,,,,,,,,,,,
,,,,,,,,2023-08-16_07h47.12.862,HF_wild_card,2022.2.4,Win32,59.07372401,5c9224087a7067000190b119,64d2fd46c836a06233681665,64dc7ef3c14e3476108b8b2d,,,,,,,sngl,resources/DR.BMP,resources/Empty.png,WildCard_Ex,-0.167592593,-0.002777778,1,0,0,0.5637,optionLeft,95,11040,5,36,0,36,0,1,,,,,,,,,,,,,,,,,,,,,,,,,,,,,,,,,,,,,,,
,,,,,,,,2023-08-16_07h47.12.862,HF_wild_card,2022.2.4,Win32,59.07372401,5c9224087a7067000190b119,64d2fd46c836a06233681665,64dc7ef3c14e3476108b8b2d,,,,,,,decisionTrl,resources/DP.BMP,resources/DB.BMP,Door2,0.183333333,-0.064814815,1,0,0,1.4933,optionRight,40,11080,5,37,0,37,0,1,,,,,,,,,,,,,,,,,,,,,,,,,,,,,,,,,,,,,,,
,,,,,,,,2023-08-16_07h47.12.862,HF_wild_card,2022.2.4,Win32,59.07372401,5c9224087a7067000190b119,64d2fd46c836a06233681665,64dc7ef3c14e3476108b8b2d,,,,,,,decisionTrl,resources/DBN.BMP,resources/DY.BMP,Door3,-0.253703704,0.013888889,1,0,0,0.9288,optionLeft,70,11150,5,38,0,38,0,1,,,,,,,,,,,,,,,,,,,,,,,,,,,,,,,,,,,,,,,
,,,,,,,,2023-08-16_07h47.12.862,HF_wild_card,2022.2.4,Win32,59.07372401,5c9224087a7067000190b119,64d2fd46c836a06233681665,64dc7ef3c14e3476108b8b2d,,,,,,,decisionTrl,resources/DR.BMP,resources/DBN.BMP,Door3,0.17962963,-0.028703704,1,0,0,0.6648,optionRight,70,11220,5,39,0,39,0,1,,,,,,,,,,,,,,,,,,,,,,,,,,,,,,,,,,,,,,,
,,,,,,,,2023-08-16_07h47.12.862,HF_wild_card,2022.2.4,Win32,59.07372401,5c9224087a7067000190b119,64d2fd46c836a06233681665,64dc7ef3c14e3476108b8b2d,,,,,,,ctch,resources/DP.BMP,resources/DY.BMP,Door4,0.190740741,-0.035185185,1,0,0,0.7768,optionRight,60,11280,5,40,0,40,0,1,,,,,,,,,,,,,,,,,,,,,,,,,,,,,,,,,,,,,,,
,,,,,,,,2023-08-16_07h47.12.862,HF_wild_card,2022.2.4,Win32,59.07372401,5c9224087a7067000190b119,64d2fd46c836a06233681665,64dc7ef3c14e3476108b8b2d,,,,,,,ctch,resources/DY.BMP,resources/DP.BMP,Door4,-0.315740741,0.025,1,0,0,1.0801,optionLeft,60,11340,5,41,0,41,0,1,,,,,,,,,,,,,,,,,,,,,,,,,,,,,,,,,,,,,,,
,,,,,,,,2023-08-16_07h47.12.862,HF_wild_card,2022.2.4,Win32,59.07372401,5c9224087a7067000190b119,64d2fd46c836a06233681665,64dc7ef3c14e3476108b8b2d,,,,,,,decisionTrl,resources/DP.BMP,resources/DB.BMP,Door1,-0.225,0.001851852,1,0,0,0.7975,optionLeft,30,11370,5,42,0,42,0,1,,,,,,,,,,,,,,,,,,,,,,,,,,,,,,,,,,,,,,,
,,,,,,,,2023-08-16_07h47.12.862,HF_wild_card,2022.2.4,Win32,59.07372401,5c9224087a7067000190b119,64d2fd46c836a06233681665,64dc7ef3c14e3476108b8b2d,,,,,,,sngl,resources/Empty.png,resources/DR.BMP,WildCard_Ex,0.189814815,-0.007407407,1,0,0,0.6294,optionRight,5,11375,5,43,0,43,0,1,,,,,,,,,,,,,,,,,,,,,,,,,,,,,,,,,,,,,,,
,,,,,,,,2023-08-16_07h47.12.862,HF_wild_card,2022.2.4,Win32,59.07372401,5c9224087a7067000190b119,64d2fd46c836a06233681665,64dc7ef3c14e3476108b8b2d,,,,,,,,,,,,,,,,,,,,,,,,,,4,0,4,0,1,,,,,,,,,,,,,,,,,,,,,,,,,,,,,,,,,,
,,,,,,,,2023-08-16_07h47.12.862,HF_wild_card,2022.2.4,Win32,59.07372401,5c9224087a7067000190b119,64d2fd46c836a06233681665,64dc7ef3c14e3476108b8b2d,,,,,,,decisionTrl,resources/DR.BMP,resources/DB.BMP,Door2,0.258333333,-0.034259259,1,0,0,1.1047,optionRight,40,11415,6,0,0,0,0,1,,,,,,,,,,,,,,,,,,,,,,,,,,,,,,,,,,,,,,,
,,,,,,,,2023-08-16_07h47.12.862,HF_wild_card,2022.2.4,Win32,59.07372401,5c9224087a7067000190b119,64d2fd46c836a06233681665,64dc7ef3c14e3476108b8b2d,,,,,,,sngl,resources/DY.BMP,resources/Empty.png,Door4,-0.131481481,0.008333333,1,0,0,0.4956,optionLeft,60,11475,6,1,0,1,0,1,,,,,,,,,,,,,,,,,,,,,,,,,,,,,,,,,,,,,,,
,,,,,,,,2023-08-16_07h47.12.862,HF_wild_card,2022.2.4,Win32,59.07372401,5c9224087a7067000190b119,64d2fd46c836a06233681665,64dc7ef3c14e3476108b8b2d,,,,,,,decisionTrl,resources/DBN.BMP,resources/DY.BMP,Door3,-0.249074074,0.012037037,1,0,0,0.7966,optionLeft,70,11545,6,2,0,2,0,1,,,,,,,,,,,,,,,,,,,,,,,,,,,,,,,,,,,,,,,
,,,,,,,,2023-08-16_07h47.12.862,HF_wild_card,2022.2.4,Win32,59.07372401,5c9224087a7067000190b119,64d2fd46c836a06233681665,64dc7ef3c14e3476108b8b2d,,,,,,,decisionTrl,resources/DB.BMP,resources/DP.BMP,Door1,0.224074074,-0.012962963,1,0,0,0.6294,optionRight,30,11575,6,3,0,3,0,1,,,,,,,,,,,,,,,,,,,,,,,,,,,,,,,,,,,,,,,
,,,,,,,,2023-08-16_07h47.12.862,HF_wild_card,2022.2.4,Win32,59.07372401,5c9224087a7067000190b119,64d2fd46c836a06233681665,64dc7ef3c14e3476108b8b2d,,,,,,,sngl,resources/DR.BMP,resources/Empty.png,WildCard_Ex,-0.19537037,0.000925926,1,0,0,0.5456,optionLeft,95,11670,6,4,0,4,0,1,,,,,,,,,,,,,,,,,,,,,,,,,,,,,,,,,,,,,,,
,,,,,,,,2023-08-16_07h47.12.862,HF_wild_card,2022.2.4,Win32,59.07372401,5c9224087a7067000190b119,64d2fd46c836a06233681665,64dc7ef3c14e3476108b8b2d,,,,,,,decisionTrl,resources/DB.BMP,resources/DP.BMP,Door1,0.275,-0.032407407,1,0,0,0.6428,optionRight,30,11700,6,5,0,5,0,1,,,,,,,,,,,,,,,,,,,,,,,,,,,,,,,,,,,,,,,
,,,,,,,,2023-08-16_07h47.12.862,HF_wild_card,2022.2.4,Win32,59.07372401,5c9224087a7067000190b119,64d2fd46c836a06233681665,64dc7ef3c14e3476108b8b2d,,,,,,,ctch,resources/DB.BMP,resources/DBN.BMP,Door3,0.187962963,-0.027777778,1,0,0,0.8472,optionRight,70,11770,6,6,0,6,0,1,,,,,,,,,,,,,,,,,,,,,,,,,,,,,,,,,,,,,,,
,,,,,,,,2023-08-16_07h47.12.862,HF_wild_card,2022.2.4,Win32,59.07372401,5c9224087a7067000190b119,64d2fd46c836a06233681665,64dc7ef3c14e3476108b8b2d,,,,,,,decisionTrl,resources/DBN.BMP,resources/DY.BMP,Door3,-0.188888889,-0.005555556,1,0,0,0.6613,optionLeft,70,11840,6,7,0,7,0,1,,,,,,,,,,,,,,,,,,,,,,,,,,,,,,,,,,,,,,,
,,,,,,,,2023-08-16_07h47.12.862,HF_wild_card,2022.2.4,Win32,59.07372401,5c9224087a7067000190b119,64d2fd46c836a06233681665,64dc7ef3c14e3476108b8b2d,,,,,,,ctch,resources/DP.BMP,resources/DY.BMP,Door1,-0.160185185,-0.009259259,1,0,0,0.7807,optionLeft,30,11870,6,8,0,8,0,1,,,,,,,,,,,,,,,,,,,,,,,,,,,,,,,,,,,,,,,
,,,,,,,,2023-08-16_07h47.12.862,HF_wild_card,2022.2.4,Win32,59.07372401,5c9224087a7067000190b119,64d2fd46c836a06233681665,64dc7ef3c14e3476108b8b2d,,,,,,,sngl,resources/Empty.png,resources/DY.BMP,Door4,0.187962963,-0.009259259,1,0,0,0.5967,optionRight,80,11950,6,9,0,9,0,1,,,,,,,,,,,,,,,,,,,,,,,,,,,,,,,,,,,,,,,
,,,,,,,,2023-08-16_07h47.12.862,HF_wild_card,2022.2.4,Win32,59.07372401,5c9224087a7067000190b119,64d2fd46c836a06233681665,64dc7ef3c14e3476108b8b2d,,,,,,,ctch,resources/DBN.BMP,resources/DB.BMP,Door3,-0.181481481,0.00462963,1,0,0,0.6767,optionLeft,70,12020,6,10,0,10,0,1,,,,,,,,,,,,,,,,,,,,,,,,,,,,,,,,,,,,,,,
,,,,,,,,2023-08-16_07h47.12.862,HF_wild_card,2022.2.4,Win32,59.07372401,5c9224087a7067000190b119,64d2fd46c836a06233681665,64dc7ef3c14e3476108b8b2d,,,,,,,sngl,resources/Empty.png,resources/DBN.BMP,Door3,0.305555556,-0.028703704,1,0,0,0.5959,optionRight,70,12090,6,11,0,11,0,1,,,,,,,,,,,,,,,,,,,,,,,,,,,,,,,,,,,,,,,
,,,,,,,,2023-08-16_07h47.12.862,HF_wild_card,2022.2.4,Win32,59.07372401,5c9224087a7067000190b119,64d2fd46c836a06233681665,64dc7ef3c14e3476108b8b2d,,,,,,,sngl,resources/DP.BMP,resources/Empty.png,Door1,-0.232407407,0.008333333,1,0,0,0.5466,optionLeft,30,12120,6,12,0,12,0,1,,,,,,,,,,,,,,,,,,,,,,,,,,,,,,,,,,,,,,,
,,,,,,,,2023-08-16_07h47.12.862,HF_wild_card,2022.2.4,Win32,59.07372401,5c9224087a7067000190b119,64d2fd46c836a06233681665,64dc7ef3c14e3476108b8b2d,,,,,,,decisionTrl,resources/DR.BMP,resources/DY.BMP,Door4,0.173148148,-0.015740741,1,0,0,0.913,optionRight,80,12200,6,13,0,13,0,1,,,,,,,,,,,,,,,,,,,,,,,,,,,,,,,,,,,,,,,
,,,,,,,,2023-08-16_07h47.12.862,HF_wild_card,2022.2.4,Win32,59.07372401,5c9224087a7067000190b119,64d2fd46c836a06233681665,64dc7ef3c14e3476108b8b2d,,,,,,,decisionTrl,resources/DY.BMP,resources/DBN.BMP,Door3,0.348148148,-0.05,1,0,0,1.0773,optionRight,70,12270,6,14,0,14,0,1,,,,,,,,,,,,,,,,,,,,,,,,,,,,,,,,,,,,,,,
,,,,,,,,2023-08-16_07h47.12.862,HF_wild_card,2022.2.4,Win32,59.07372401,5c9224087a7067000190b119,64d2fd46c836a06233681665,64dc7ef3c14e3476108b8b2d,,,,,,,decisionTrl,resources/DB.BMP,resources/DR.BMP,WildCard_Ex,0.592592593,-0.02037037,1,0,0,1.2604,optionRight,5,12275,6,15,0,15,0,1,,,,,,,,,,,,,,,,,,,,,,,,,,,,,,,,,,,,,,,
,,,,,,,,2023-08-16_07h47.12.862,HF_wild_card,2022.2.4,Win32,59.07372401,5c9224087a7067000190b119,64d2fd46c836a06233681665,64dc7ef3c14e3476108b8b2d,,,,,,,decisionTrl,resources/DB.BMP,resources/DP.BMP,Door2,-0.175925926,0.012962963,1,0,0,0.6465,optionLeft,40,12315,6,16,0,16,0,1,,,,,,,,,,,,,,,,,,,,,,,,,,,,,,,,,,,,,,,
,,,,,,,,2023-08-16_07h47.12.862,HF_wild_card,2022.2.4,Win32,59.07372401,5c9224087a7067000190b119,64d2fd46c836a06233681665,64dc7ef3c14e3476108b8b2d,,,,,,,ctch,resources/DY.BMP,resources/DP.BMP,Door1,0.181481481,-0.009259259,1,0,0,0.5939,optionRight,30,12345,6,17,0,17,0,1,,,,,,,,,,,,,,,,,,,,,,,,,,,,,,,,,,,,,,,
,,,,,,,,2023-08-16_07h47.12.862,HF_wild_card,2022.2.4,Win32,59.07372401,5c9224087a7067000190b119,64d2fd46c836a06233681665,64dc7ef3c14e3476108b8b2d,,,,,,,sngl,resources/Empty.png,resources/DB.BMP,Door2,0.206481481,-0.015740741,1,0,0,0.6317,optionRight,40,12385,6,18,0,18,0,1,,,,,,,,,,,,,,,,,,,,,,,,,,,,,,,,,,,,,,,
,,,,,,,,2023-08-16_07h47.12.862,HF_wild_card,2022.2.4,Win32,59.07372401,5c9224087a7067000190b119,64d2fd46c836a06233681665,64dc7ef3c14e3476108b8b2d,,,,,,,decisionTrl,resources/DBN.BMP,resources/DR.BMP,Door3,-0.194444444,-0.014814815,1,0,0,0.7804,optionLeft,70,12455,6,19,0,19,0,1,,,,,,,,,,,,,,,,,,,,,,,,,,,,,,,,,,,,,,,
,,,,,,,,2023-08-16_07h47.12.862,HF_wild_card,2022.2.4,Win32,59.07372401,5c9224087a7067000190b119,64d2fd46c836a06233681665,64dc7ef3c14e3476108b8b2d,,,,,,,sngl,resources/DBN.BMP,resources/Empty.png,Door3,-0.15,-0.005555556,1,0,0,0.5293,optionLeft,70,12525,6,20,0,20,0,1,,,,,,,,,,,,,,,,,,,,,,,,,,,,,,,,,,,,,,,
,,,,,,,,2023-08-16_07h47.12.862,HF_wild_card,2022.2.4,Win32,59.07372401,5c9224087a7067000190b119,64d2fd46c836a06233681665,64dc7ef3c14e3476108b8b2d,,,,,,,sngl,resources/Empty.png,resources/DR.BMP,WildCard_Ex,0.239814815,-0.033333333,1,0,0,0.6104,optionRight,95,12620,6,21,0,21,0,1,,,,,,,,,,,,,,,,,,,,,,,,,,,,,,,,,,,,,,,
,,,,,,,,2023-08-16_07h47.12.862,HF_wild_card,2022.2.4,Win32,59.07372401,5c9224087a7067000190b119,64d2fd46c836a06233681665,64dc7ef3c14e3476108b8b2d,,,,,,,ctch,resources/DBN.BMP,resources/DB.BMP,Door3,-0.156481481,0.002777778,1,0,0,0.8146,optionLeft,70,12690,6,22,0,22,0,1,,,,,,,,,,,,,,,,,,,,,,,,,,,,,,,,,,,,,,,
,,,,,,,,2023-08-16_07h47.12.862,HF_wild_card,2022.2.4,Win32,59.07372401,5c9224087a7067000190b119,64d2fd46c836a06233681665,64dc7ef3c14e3476108b8b2d,,,,,,,ctch,resources/DY.BMP,resources/DP.BMP,Door4,-0.158333333,0.001851852,1,0,0,0.7648,optionLeft,80,12770,6,23,0,23,0,1,,,,,,,,,,,,,,,,,,,,,,,,,,,,,,,,,,,,,,,
,,,,,,,,2023-08-16_07h47.12.862,HF_wild_card,2022.2.4,Win32,59.07372401,5c9224087a7067000190b119,64d2fd46c836a06233681665,64dc7ef3c14e3476108b8b2d,,,,,,,sngl,resources/Empty.png,resources/DR.BMP,WildCard_Ex,0.165740741,-0.011111111,1,0,0,0.6132,optionRight,5,12775,6,24,0,24,0,1,,,,,,,,,,,,,,,,,,,,,,,,,,,,,,,,,,,,,,,
,,,,,,,,2023-08-16_07h47.12.862,HF_wild_card,2022.2.4,Win32,59.07372401,5c9224087a7067000190b119,64d2fd46c836a06233681665,64dc7ef3c14e3476108b8b2d,,,,,,,decisionTrl,resources/DP.BMP,resources/DB.BMP,Door1,-0.212037037,0.003703704,1,0,0,0.5464,optionLeft,30,12805,6,25,0,25,0,1,,,,,,,,,,,,,,,,,,,,,,,,,,,,,,,,,,,,,,,
,,,,,,,,2023-08-16_07h47.12.862,HF_wild_card,2022.2.4,Win32,59.07372401,5c9224087a7067000190b119,64d2fd46c836a06233681665,64dc7ef3c14e3476108b8b2d,,,,,,,sngl,resources/DB.BMP,resources/Empty.png,Door2,-0.169444444,0.007407407,1,0,0,0.564,optionLeft,20,12825,6,26,0,26,0,1,,,,,,,,,,,,,,,,,,,,,,,,,,,,,,,,,,,,,,,
,,,,,,,,2023-08-16_07h47.12.862,HF_wild_card,2022.2.4,Win32,59.07372401,5c9224087a7067000190b119,64d2fd46c836a06233681665,64dc7ef3c14e3476108b8b2d,,,,,,,decisionTrl,resources/DR.BMP,resources/DBN.BMP,Door3,0.396296296,-0.049074074,1,0,0,0.9461,optionRight,70,12895,6,27,0,27,0,1,,,,,,,,,,,,,,,,,,,,,,,,,,,,,,,,,,,,,,,
,,,,,,,,2023-08-16_07h47.12.862,HF_wild_card,2022.2.4,Win32,59.07372401,5c9224087a7067000190b119,64d2fd46c836a06233681665,64dc7ef3c14e3476108b8b2d,,,,,,,decisionTrl,resources/DP.BMP,resources/DR.BMP,Door1,-0.12962963,0.000925926,1,0,0,0.6639,optionLeft,30,12925,6,28,0,28,0,1,,,,,,,,,,,,,,,,,,,,,,,,,,,,,,,,,,,,,,,
,,,,,,,,2023-08-16_07h47.12.862,HF_wild_card,2022.2.4,Win32,59.07372401,5c9224087a7067000190b119,64d2fd46c836a06233681665,64dc7ef3c14e3476108b8b2d,,,,,,,decisionTrl,resources/DBN.BMP,resources/DY.BMP,Door3,-0.167592593,0.006481481,1,0,0,0.9444,optionLeft,70,12995,6,29,0,29,0,1,,,,,,,,,,,,,,,,,,,,,,,,,,,,,,,,,,,,,,,
,,,,,,,,2023-08-16_07h47.12.862,HF_wild_card,2022.2.4,Win32,59.07372401,5c9224087a7067000190b119,64d2fd46c836a06233681665,64dc7ef3c14e3476108b8b2d,,,,,,,ctch,resources/DP.BMP,resources/DY.BMP,Door4,0.175925926,-0.039814815,1,0,0,0.8602,optionRight,80,13075,6,30,0,30,0,1,,,,,,,,,,,,,,,,,,,,,,,,,,,,,,,,,,,,,,,
,,,,,,,,2023-08-16_07h47.12.862,HF_wild_card,2022.2.4,Win32,59.07372401,5c9224087a7067000190b119,64d2fd46c836a06233681665,64dc7ef3c14e3476108b8b2d,,,,,,,decisionTrl,resources/DP.BMP,resources/DB.BMP,Door1,-0.124074074,-0.025,1,0,0,2.1273,optionLeft,30,13105,6,31,0,31,0,1,,,,,,,,,,,,,,,,,,,,,,,,,,,,,,,,,,,,,,,
,,,,,,,,2023-08-16_07h47.12.862,HF_wild_card,2022.2.4,Win32,59.07372401,5c9224087a7067000190b119,64d2fd46c836a06233681665,64dc7ef3c14e3476108b8b2d,,,,,,,sngl,resources/DR.BMP,resources/Empty.png,WildCard_Ex,-0.168518519,-0.006481481,1,0,0,0.5971,optionLeft,5,13110,6,32,0,32,0,1,,,,,,,,,,,,,,,,,,,,,,,,,,,,,,,,,,,,,,,
,,,,,,,,2023-08-16_07h47.12.862,HF_wild_card,2022.2.4,Win32,59.07372401,5c9224087a7067000190b119,64d2fd46c836a06233681665,64dc7ef3c14e3476108b8b2d,,,,,,,decisionTrl,resources/DP.BMP,resources/DB.BMP,Door2,0.166666667,-0.018518519,1,0,0,0.6125,optionRight,20,13130,6,33,0,33,0,1,,,,,,,,,,,,,,,,,,,,,,,,,,,,,,,,,,,,,,,
,,,,,,,,2023-08-16_07h47.12.862,HF_wild_card,2022.2.4,Win32,59.07372401,5c9224087a7067000190b119,64d2fd46c836a06233681665,64dc7ef3c14e3476108b8b2d,,,,,,,decisionTrl,resources/DY.BMP,resources/DBN.BMP,Door3,0.22037037,-0.052777778,1,0,0,0.9809,optionRight,70,13200,6,34,0,34,0,1,,,,,,,,,,,,,,,,,,,,,,,,,,,,,,,,,,,,,,,
,,,,,,,,2023-08-16_07h47.12.862,HF_wild_card,2022.2.4,Win32,59.07372401,5c9224087a7067000190b119,64d2fd46c836a06233681665,64dc7ef3c14e3476108b8b2d,,,,,,,decisionTrl,resources/DY.BMP,resources/DBN.BMP,Door3,0.212037037,-0.031481481,1,0,0,0.7612,optionRight,70,13270,6,35,0,35,0,1,,,,,,,,,,,,,,,,,,,,,,,,,,,,,,,,,,,,,,,
,,,,,,,,2023-08-16_07h47.12.862,HF_wild_card,2022.2.4,Win32,59.07372401,5c9224087a7067000190b119,64d2fd46c836a06233681665,64dc7ef3c14e3476108b8b2d,,,,,,,decisionTrl,resources/DB.BMP,resources/DP.BMP,Door1,0.180555556,-0.017592593,1,0,0,0.7608,optionRight,30,13300,6,36,0,36,0,1,,,,,,,,,,,,,,,,,,,,,,,,,,,,,,,,,,,,,,,
,,,,,,,,2023-08-16_07h47.12.862,HF_wild_card,2022.2.4,Win32,59.07372401,5c9224087a7067000190b119,64d2fd46c836a06233681665,64dc7ef3c14e3476108b8b2d,,,,,,,decisionTrl,resources/DP.BMP,resources/DB.BMP,Door1,-0.202777778,-0.010185185,1,0,0,0.6794,optionLeft,30,13330,6,37,0,37,0,1,,,,,,,,,,,,,,,,,,,,,,,,,,,,,,,,,,,,,,,
,,,,,,,,2023-08-16_07h47.12.862,HF_wild_card,2022.2.4,Win32,59.07372401,5c9224087a7067000190b119,64d2fd46c836a06233681665,64dc7ef3c14e3476108b8b2d,,,,,,,decisionTrl,resources/DY.BMP,resources/DBN.BMP,Door3,0.131481481,-0.012962963,1,0,0,0.7131,optionRight,70,13400,6,38,0,38,0,1,,,,,,,,,,,,,,,,,,,,,,,,,,,,,,,,,,,,,,,
,,,,,,,,2023-08-16_07h47.12.862,HF_wild_card,2022.2.4,Win32,59.07372401,5c9224087a7067000190b119,64d2fd46c836a06233681665,64dc7ef3c14e3476108b8b2d,,,,,,,sngl,resources/Empty.png,resources/DP.BMP,Door1,0.183333333,0.044444444,1,0,0,0.6114,optionRight,30,13430,6,39,0,39,0,1,,,,,,,,,,,,,,,,,,,,,,,,,,,,,,,,,,,,,,,
,,,,,,,,2023-08-16_07h47.12.862,HF_wild_card,2022.2.4,Win32,59.07372401,5c9224087a7067000190b119,64d2fd46c836a06233681665,64dc7ef3c14e3476108b8b2d,,,,,,,decisionTrl,resources/DY.BMP,resources/DR.BMP,Door4,-0.356481481,0.000925926,1,0,0,2.0101,optionLeft,60,13490,6,40,0,40,0,1,,,,,,,,,,,,,,,,,,,,,,,,,,,,,,,,,,,,,,,
,,,,,,,,2023-08-16_07h47.12.862,HF_wild_card,2022.2.4,Win32,59.07372401,5c9224087a7067000190b119,64d2fd46c836a06233681665,64dc7ef3c14e3476108b8b2d,,,,,,,decisionTrl,resources/DBN.BMP,resources/DY.BMP,Door3,-0.468518519,0.02037037,1,0,0,0.9462,optionLeft,70,13560,6,41,0,41,0,1,,,,,,,,,,,,,,,,,,,,,,,,,,,,,,,,,,,,,,,
,,,,,,,,2023-08-16_07h47.12.862,HF_wild_card,2022.2.4,Win32,59.07372401,5c9224087a7067000190b119,64d2fd46c836a06233681665,64dc7ef3c14e3476108b8b2d,,,,,,,decisionTrl,resources/DR.BMP,resources/DP.BMP,Door1,0.424074074,-0.012037037,1,0,0,1.0977,optionRight,30,13590,6,42,0,42,0,1,,,,,,,,,,,,,,,,,,,,,,,,,,,,,,,,,,,,,,,
,,,,,,,,2023-08-16_07h47.12.862,HF_wild_card,2022.2.4,Win32,59.07372401,5c9224087a7067000190b119,64d2fd46c836a06233681665,64dc7ef3c14e3476108b8b2d,,,,,,,ctch,resources/DB.BMP,resources/DBN.BMP,Door3,0.184259259,0.008333333,1,0,0,0.8128,optionRight,70,13660,6,43,0,43,0,1,,,,,,,,,,,,,,,,,,,,,,,,,,,,,,,,,,,,,,,
,,,,,,,,2023-08-16_07h47.12.862,HF_wild_card,2022.2.4,Win32,59.07372401,5c9224087a7067000190b119,64d2fd46c836a06233681665,64dc7ef3c14e3476108b8b2d,,,,,,,,,,,,,,,,,,,,,,,,,,5,0,5,0,1,,,,,,,,,,,,,,,,,,,,,,,,,,,,,,,,,,
,,,,,,,,2023-08-16_07h47.12.862,HF_wild_card,2022.2.4,Win32,59.07372401,5c9224087a7067000190b119,64d2fd46c836a06233681665,64dc7ef3c14e3476108b8b2d,,,,,,,ctch,resources/DB.BMP,resources/DBN.BMP,Door3,0.287962963,-0.059259259,1,0,0,0.8434,optionRight,70,13730,7,0,0,0,0,1,,,,,,,,,,,,,,,,,,,,,,,,,,,,,,,,,,,,,,,
,,,,,,,,2023-08-16_07h47.12.862,HF_wild_card,2022.2.4,Win32,59.07372401,5c9224087a7067000190b119,64d2fd46c836a06233681665,64dc7ef3c14e3476108b8b2d,,,,,,,decisionTrl,resources/DBN.BMP,resources/DY.BMP,Door3,-0.360185185,0.012037037,1,0,0,0.9638,optionLeft,70,13800,7,1,0,1,0,1,,,,,,,,,,,,,,,,,,,,,,,,,,,,,,,,,,,,,,,
,,,,,,,,2023-08-16_07h47.12.862,HF_wild_card,2022.2.4,Win32,59.07372401,5c9224087a7067000190b119,64d2fd46c836a06233681665,64dc7ef3c14e3476108b8b2d,,,,,,,decisionTrl,resources/DY.BMP,resources/DBN.BMP,Door3,0.224074074,-0.012962963,1,0,0,0.9979,optionRight,70,13870,7,2,0,2,0,1,,,,,,,,,,,,,,,,,,,,,,,,,,,,,,,,,,,,,,,
,,,,,,,,2023-08-16_07h47.12.862,HF_wild_card,2022.2.4,Win32,59.07372401,5c9224087a7067000190b119,64d2fd46c836a06233681665,64dc7ef3c14e3476108b8b2d,,,,,,,ctch,resources/DY.BMP,resources/DP.BMP,Door4,-0.243518519,0.009259259,1,0,0,0.7159,optionLeft,60,13930,7,3,0,3,0,1,,,,,,,,,,,,,,,,,,,,,,,,,,,,,,,,,,,,,,,
,,,,,,,,2023-08-16_07h47.12.862,HF_wild_card,2022.2.4,Win32,59.07372401,5c9224087a7067000190b119,64d2fd46c836a06233681665,64dc7ef3c14e3476108b8b2d,,,,,,,decisionTrl,resources/DY.BMP,resources/DBN.BMP,Door3,0.317592593,-0.031481481,1,0,0,1.0117,optionRight,70,14000,7,4,0,4,0,1,,,,,,,,,,,,,,,,,,,,,,,,,,,,,,,,,,,,,,,
,,,,,,,,2023-08-16_07h47.12.862,HF_wild_card,2022.2.4,Win32,59.07372401,5c9224087a7067000190b119,64d2fd46c836a06233681665,64dc7ef3c14e3476108b8b2d,,,,,,,decisionTrl,resources/DP.BMP,resources/DB.BMP,Door1,-0.212962963,-0.007407407,1,0,0,0.8816,optionLeft,30,14030,7,5,0,5,0,1,,,,,,,,,,,,,,,,,,,,,,,,,,,,,,,,,,,,,,,
,,,,,,,,2023-08-16_07h47.12.862,HF_wild_card,2022.2.4,Win32,59.07372401,5c9224087a7067000190b119,64d2fd46c836a06233681665,64dc7ef3c14e3476108b8b2d,,,,,,,decisionTrl,resources/DP.BMP,resources/DB.BMP,Door1,-0.212037037,0.009259259,1,0,0,0.9649,optionLeft,30,14060,7,6,0,6,0,1,,,,,,,,,,,,,,,,,,,,,,,,,,,,,,,,,,,,,,,
,,,,,,,,2023-08-16_07h47.12.862,HF_wild_card,2022.2.4,Win32,59.07372401,5c9224087a7067000190b119,64d2fd46c836a06233681665,64dc7ef3c14e3476108b8b2d,,,,,,,ctch,resources/DP.BMP,resources/DY.BMP,Door4,0.239814815,-0.032407407,1,0,0,0.9149,optionRight,60,14120,7,7,0,7,0,1,,,,,,,,,,,,,,,,,,,,,,,,,,,,,,,,,,,,,,,
,,,,,,,,2023-08-16_07h47.12.862,HF_wild_card,2022.2.4,Win32,59.07372401,5c9224087a7067000190b119,64d2fd46c836a06233681665,64dc7ef3c14e3476108b8b2d,,,,,,,decisionTrl,resources/DY.BMP,resources/DBN.BMP,Door3,0.158333333,-0.012037037,1,0,0,0.8297,optionRight,70,14190,7,8,0,8,0,1,,,,,,,,,,,,,,,,,,,,,,,,,,,,,,,,,,,,,,,
,,,,,,,,2023-08-16_07h47.12.862,HF_wild_card,2022.2.4,Win32,59.07372401,5c9224087a7067000190b119,64d2fd46c836a06233681665,64dc7ef3c14e3476108b8b2d,,,,,,,decisionTrl,resources/DBN.BMP,resources/DY.BMP,Door3,-0.350925926,0.024074074,1,0,0,0.9972,optionLeft,70,14260,7,9,0,9,0,1,,,,,,,,,,,,,,,,,,,,,,,,,,,,,,,,,,,,,,,
,,,,,,,,2023-08-16_07h47.12.862,HF_wild_card,2022.2.4,Win32,59.07372401,5c9224087a7067000190b119,64d2fd46c836a06233681665,64dc7ef3c14e3476108b8b2d,,,,,,,decisionTrl,resources/DP.BMP,resources/DB.BMP,Door1,-0.241666667,0.000925926,1,0,0,1.1308,optionLeft,30,14290,7,10,0,10,0,1,,,,,,,,,,,,,,,,,,,,,,,,,,,,,,,,,,,,,,,
,,,,,,,,2023-08-16_07h47.12.862,HF_wild_card,2022.2.4,Win32,59.07372401,5c9224087a7067000190b119,64d2fd46c836a06233681665,64dc7ef3c14e3476108b8b2d,,,,,,,ctch,resources/DBN.BMP,resources/DB.BMP,Door3,-0.25,0.002777778,1,0,0,0.6791,optionLeft,70,14360,7,11,0,11,0,1,,,,,,,,,,,,,,,,,,,,,,,,,,,,,,,,,,,,,,,
,,,,,,,,2023-08-16_07h47.12.862,HF_wild_card,2022.2.4,Win32,59.07372401,5c9224087a7067000190b119,64d2fd46c836a06233681665,64dc7ef3c14e3476108b8b2d,,,,,,,decisionTrl,resources/DB.BMP,resources/DP.BMP,Door1,0.188888889,-0.016666667,1,0,0,0.7815,optionRight,30,14390,7,12,0,12,0,1,,,,,,,,,,,,,,,,,,,,,,,,,,,,,,,,,,,,,,,
,,,,,,,,2023-08-16_07h47.12.862,HF_wild_card,2022.2.4,Win32,59.07372401,5c9224087a7067000190b119,64d2fd46c836a06233681665,64dc7ef3c14e3476108b8b2d,,,,,,,decisionTrl,resources/DP.BMP,resources/DB.BMP,Door1,-0.213888889,-0.008333333,1,0,0,0.7491,optionLeft,30,14420,7,13,0,13,0,1,,,,,,,,,,,,,,,,,,,,,,,,,,,,,,,,,,,,,,,
,,,,,,,,2023-08-16_07h47.12.862,HF_wild_card,2022.2.4,Win32,59.07372401,5c9224087a7067000190b119,64d2fd46c836a06233681665,64dc7ef3c14e3476108b8b2d,,,,,,,decisionTrl,resources/DBN.BMP,resources/DY.BMP,Door3,-0.296296296,0.016666667,1,0,0,0.8988,optionLeft,70,14490,7,14,0,14,0,1,,,,,,,,,,,,,,,,,,,,,,,,,,,,,,,,,,,,,,,
,,,,,,,,2023-08-16_07h47.12.862,HF_wild_card,2022.2.4,Win32,59.07372401,5c9224087a7067000190b119,64d2fd46c836a06233681665,64dc7ef3c14e3476108b8b2d,,,,,,,decisionTrl,resources/DB.BMP,resources/DP.BMP,Door1,0.134259259,-0.014814815,1,0,0,0.7122,optionRight,30,14520,7,15,0,15,0,1,,,,,,,,,,,,,,,,,,,,,,,,,,,,,,,,,,,,,,,
,,,,,,,,2023-08-16_07h47.12.862,HF_wild_card,2022.2.4,Win32,59.07372401,5c9224087a7067000190b119,64d2fd46c836a06233681665,64dc7ef3c14e3476108b8b2d,,,,,,,ctch,resources/DY.BMP,resources/DP.BMP,Door4,-0.314814815,0.006481481,1,0,0,1.2155,optionLeft,60,14580,7,16,0,16,0,1,,,,,,,,,,,,,,,,,,,,,,,,,,,,,,,,,,,,,,,
,,,,,,,,2023-08-16_07h47.12.862,HF_wild_card,2022.2.4,Win32,59.07372401,5c9224087a7067000190b119,64d2fd46c836a06233681665,64dc7ef3c14e3476108b8b2d,,,,,,,ctch,resources/DY.BMP,resources/DP.BMP,Door4,-0.215740741,-0.010185185,1,0,0,0.7466,optionLeft,60,14640,7,17,0,17,0,1,,,,,,,,,,,,,,,,,,,,,,,,,,,,,,,,,,,,,,,
,,,,,,,,2023-08-16_07h47.12.862,HF_wild_card,2022.2.4,Win32,59.07372401,5c9224087a7067000190b119,64d2fd46c836a06233681665,64dc7ef3c14e3476108b8b2d,,,,,,,decisionTrl,resources/DBN.BMP,resources/DY.BMP,Door3,-0.323148148,0.025,1,0,0,0.9314,optionLeft,70,14710,7,18,0,18,0,1,,,,,,,,,,,,,,,,,,,,,,,,,,,,,,,,,,,,,,,
,,,,,,,,2023-08-16_07h47.12.862,HF_wild_card,2022.2.4,Win32,59.07372401,5c9224087a7067000190b119,64d2fd46c836a06233681665,64dc7ef3c14e3476108b8b2d,,,,,,,decisionTrl,resources/DB.BMP,resources/DP.BMP,Door1,0.175925926,-0.018518519,1,0,0,1.1295,optionRight,30,14740,7,19,0,19,0,1,,,,,,,,,,,,,,,,,,,,,,,,,,,,,,,,,,,,,,,
,,,,,,,,2023-08-16_07h47.12.862,HF_wild_card,2022.2.4,Win32,59.07372401,5c9224087a7067000190b119,64d2fd46c836a06233681665,64dc7ef3c14e3476108b8b2d,,,,,,,decisionTrl,resources/DB.BMP,resources/DP.BMP,Door1,0.169444444,0.000925926,1,0,0,0.7995,optionRight,30,14770,7,20,0,20,0,1,,,,,,,,,,,,,,,,,,,,,,,,,,,,,,,,,,,,,,,
,,,,,,,,2023-08-16_07h47.12.862,HF_wild_card,2022.2.4,Win32,59.07372401,5c9224087a7067000190b119,64d2fd46c836a06233681665,64dc7ef3c14e3476108b8b2d,,,,,,,decisionTrl,resources/DP.BMP,resources/DB.BMP,Door1,-0.166666667,0.010185185,1,0,0,0.7806,optionLeft,30,14800,7,21,0,21,0,1,,,,,,,,,,,,,,,,,,,,,,,,,,,,,,,,,,,,,,,
,,,,,,,,2023-08-16_07h47.12.862,HF_wild_card,2022.2.4,Win32,59.07372401,5c9224087a7067000190b119,64d2fd46c836a06233681665,64dc7ef3c14e3476108b8b2d,,,,,,,ctch,resources/DBN.BMP,resources/DB.BMP,Door3,-0.218518519,0.00462963,1,0,0,0.7154,optionLeft,70,14870,7,22,0,22,0,1,,,,,,,,,,,,,,,,,,,,,,,,,,,,,,,,,,,,,,,
,,,,,,,,2023-08-16_07h47.12.862,HF_wild_card,2022.2.4,Win32,59.07372401,5c9224087a7067000190b119,64d2fd46c836a06233681665,64dc7ef3c14e3476108b8b2d,,,,,,,decisionTrl,resources/DB.BMP,resources/DP.BMP,Door1,0.205555556,-0.013888889,1,0,0,0.7457,optionRight,30,14900,7,23,0,23,0,1,,,,,,,,,,,,,,,,,,,,,,,,,,,,,,,,,,,,,,,
,,,,,,,,2023-08-16_07h47.12.862,HF_wild_card,2022.2.4,Win32,59.07372401,5c9224087a7067000190b119,64d2fd46c836a06233681665,64dc7ef3c14e3476108b8b2d,,,,,,,ctch,resources/DP.BMP,resources/DY.BMP,Door4,0.164814815,-0.008333333,1,0,0,1.082,optionRight,80,14980,7,24,0,24,0,1,,,,,,,,,,,,,,,,,,,,,,,,,,,,,,,,,,,,,,,
,,,,,,,,2023-08-16_07h47.12.862,HF_wild_card,2022.2.4,Win32,59.07372401,5c9224087a7067000190b119,64d2fd46c836a06233681665,64dc7ef3c14e3476108b8b2d,,,,,,,decisionTrl,resources/DY.BMP,resources/DBN.BMP,Door3,0.226851852,-0.006481481,1,0,0,0.8817,optionRight,70,15050,7,25,0,25,0,1,,,,,,,,,,,,,,,,,,,,,,,,,,,,,,,,,,,,,,,
,,,,,,,,2023-08-16_07h47.12.862,HF_wild_card,2022.2.4,Win32,59.07372401,5c9224087a7067000190b119,64d2fd46c836a06233681665,64dc7ef3c14e3476108b8b2d,,,,,,,ctch,resources/DB.BMP,resources/DBN.BMP,Door3,0.158333333,0,1,0,0,0.6481,optionRight,70,15120,7,26,0,26,0,1,,,,,,,,,,,,,,,,,,,,,,,,,,,,,,,,,,,,,,,
,,,,,,,,2023-08-16_07h47.12.862,HF_wild_card,2022.2.4,Win32,59.07372401,5c9224087a7067000190b119,64d2fd46c836a06233681665,64dc7ef3c14e3476108b8b2d,,,,,,,decisionTrl,resources/DP.BMP,resources/DB.BMP,Door1,-0.202777778,0.003703704,1,0,0,0.6977,optionLeft,30,15150,7,27,0,27,0,1,,,,,,,,,,,,,,,,,,,,,,,,,,,,,,,,,,,,,,,
,,,,,,,,2023-08-16_07h47.12.862,HF_wild_card,2022.2.4,Win32,59.07372401,5c9224087a7067000190b119,64d2fd46c836a06233681665,64dc7ef3c14e3476108b8b2d,,,,,,,decisionTrl,resources/DBN.BMP,resources/DY.BMP,Door3,-0.218518519,0.006481481,1,0,0,0.7154,optionLeft,70,15220,7,28,0,28,0,1,,,,,,,,,,,,,,,,,,,,,,,,,,,,,,,,,,,,,,,
,,,,,,,,2023-08-16_07h47.12.862,HF_wild_card,2022.2.4,Win32,59.07372401,5c9224087a7067000190b119,64d2fd46c836a06233681665,64dc7ef3c14e3476108b8b2d,,,,,,,ctch,resources/DP.BMP,resources/DY.BMP,Door4,0.156481481,-0.006481481,1,0,0,0.8303,optionRight,60,15280,7,29,0,29,0,1,,,,,,,,,,,,,,,,,,,,,,,,,,,,,,,,,,,,,,,
,,,,,,,,2023-08-16_07h47.12.862,HF_wild_card,2022.2.4,Win32,59.07372401,5c9224087a7067000190b119,64d2fd46c836a06233681665,64dc7ef3c14e3476108b8b2d,,,,,,,decisionTrl,resources/DB.BMP,resources/DP.BMP,Door1,0.189814815,-0.015740741,1,0,0,0.7992,optionRight,30,15310,7,30,0,30,0,1,,,,,,,,,,,,,,,,,,,,,,,,,,,,,,,,,,,,,,,
,,,,,,,,2023-08-16_07h47.12.862,HF_wild_card,2022.2.4,Win32,59.07372401,5c9224087a7067000190b119,64d2fd46c836a06233681665,64dc7ef3c14e3476108b8b2d,,,,,,,decisionTrl,resources/DY.BMP,resources/DBN.BMP,Door3,0.159259259,0.000925926,1,0,0,0.6977,optionRight,70,15380,7,31,0,31,0,1,,,,,,,,,,,,,,,,,,,,,,,,,,,,,,,,,,,,,,,
,,,,,,,,2023-08-16_07h47.12.862,HF_wild_card,2022.2.4,Win32,59.07372401,5c9224087a7067000190b119,64d2fd46c836a06233681665,64dc7ef3c14e3476108b8b2d,,,,,,,ctch,resources/DBN.BMP,resources/DB.BMP,Door3,-0.133333333,0.008333333,1,0,0,0.6978,optionLeft,70,15450,7,32,0,32,0,1,,,,,,,,,,,,,,,,,,,,,,,,,,,,,,,,,,,,,,,
,,,,,,,,2023-08-16_07h47.12.862,HF_wild_card,2022.2.4,Win32,59.07372401,5c9224087a7067000190b119,64d2fd46c836a06233681665,64dc7ef3c14e3476108b8b2d,,,,,,,ctch,resources/DB.BMP,resources/DBN.BMP,Door3,0.125925926,-0.00462963,1,0,0,0.6478,optionRight,70,15520,7,33,0,33,0,1,,,,,,,,,,,,,,,,,,,,,,,,,,,,,,,,,,,,,,,
,,,,,,,,2023-08-16_07h47.12.862,HF_wild_card,2022.2.4,Win32,59.07372401,5c9224087a7067000190b119,64d2fd46c836a06233681665,64dc7ef3c14e3476108b8b2d,,,,,,,decisionTrl,resources/DY.BMP,resources/DBN.BMP,Door3,0.156481481,-0.001851852,1,0,0,0.6295,optionRight,70,15590,7,34,0,34,0,1,,,,,,,,,,,,,,,,,,,,,,,,,,,,,,,,,,,,,,,
,,,,,,,,2023-08-16_07h47.12.862,HF_wild_card,2022.2.4,Win32,59.07372401,5c9224087a7067000190b119,64d2fd46c836a06233681665,64dc7ef3c14e3476108b8b2d,,,,,,,decisionTrl,resources/DBN.BMP,resources/DY.BMP,Door3,-0.327777778,0.008333333,1,0,0,0.7987,optionLeft,70,15660,7,35,0,35,0,1,,,,,,,,,,,,,,,,,,,,,,,,,,,,,,,,,,,,,,,
,,,,,,,,2023-08-16_07h47.12.862,HF_wild_card,2022.2.4,Win32,59.07372401,5c9224087a7067000190b119,64d2fd46c836a06233681665,64dc7ef3c14e3476108b8b2d,,,,,,,,,,,,,,,,,,,,,,,,,,6,0,6,0,1,,,,,,,,,,,,,,,,,,,,,,,,,,,,,,,,,,
,,,,,,,,2023-08-16_07h47.12.862,HF_wild_card,2022.2.4,Win32,59.07372401,5c9224087a7067000190b119,64d2fd46c836a06233681665,64dc7ef3c14e3476108b8b2d,,,,,,,,,,,,,,,,,,,,,,,,,,,,,,,3,,,,,,,,,,,,,,,,,,,,,,,,,,,,,,,,,
,,,,,,,,2023-08-16_07h47.12.862,HF_wild_card,2022.2.4,Win32,59.07372401,5c9224087a7067000190b119,64d2fd46c836a06233681665,64dc7ef3c14e3476108b8b2d,,,,,,,,,,,,,,,,,,,,,,,,,,,,,,,,,,,,,,,,,,,,,,,,,,,,,,,,,,,,,,,,
,,,,,,,,2023-08-16_07h47.12.862,HF_wild_card,2022.2.4,Win32,59.07372401,5c9224087a7067000190b119,64d2fd46c836a06233681665,64dc7ef3c14e3476108b8b2d,,,,,,,,,,,,,,,,,,,,,,,,,,,,,,,,30,Door1,resources/DP.BMP,0,0,0,0,1,,,,,,,,,,,,,,,,,,,,,,,,,
,,,,,,,,2023-08-16_07h47.12.862,HF_wild_card,2022.2.4,Win32,59.07372401,5c9224087a7067000190b119,64d2fd46c836a06233681665,64dc7ef3c14e3476108b8b2d,,,,,,,,,,,,,,,,,,,,,,,,,,,,,,,,70,Door3,resources/DBN.BMP,1,0,1,0,1,,,,,,,,,,,,,,,,,,,,,,,,,
,,,,,,,,2023-08-16_07h47.12.862,HF_wild_card,2022.2.4,Win32,59.07372401,5c9224087a7067000190b119,64d2fd46c836a06233681665,64dc7ef3c14e3476108b8b2d,,,,,,,,,,,,,,,,,,,,,,,,,,,,,,,,55,WC_nonExtreme,resources/DG.BMP,2,0,2,0,1,,,,,,,,,,,,,,,,,,,,,,,,,
,,,,,,,,2023-08-16_07h47.12.862,HF_wild_card,2022.2.4,Win32,59.07372401,5c9224087a7067000190b119,64d2fd46c836a06233681665,64dc7ef3c14e3476108b8b2d,,,,,,,,,,,,,,,,,,,,,,,,,,,,,,,,30,Door2,resources/DB.BMP,3,0,3,0,1,,,,,,,,,,,,,,,,,,,,,,,,,
,,,,,,,,2023-08-16_07h47.12.862,HF_wild_card,2022.2.4,Win32,59.07372401,5c9224087a7067000190b119,64d2fd46c836a06233681665,64dc7ef3c14e3476108b8b2d,,,,,,,,,,,,,,,,,,,,,,,,,,,,,,,,5,WC_extreme,resources/DR.BMP,4,0,4,0,1,,,,,,,,,,,,,,,,,,,,,,,,,
,,,,,,,,2023-08-16_07h47.12.862,HF_wild_card,2022.2.4,Win32,59.07372401,5c9224087a7067000190b119,64d2fd46c836a06233681665,64dc7ef3c14e3476108b8b2d,,,,,,,,,,,,,,,,,,,,,,,,,,,,,,,,60,Door4,resources/DY.BMP,5,0,5,0,1,,,,,,,,,,,,,,,,,,,,,,,,,
,,,,,,,,2023-08-16_07h47.12.862,HF_wild_card,2022.2.4,Win32,59.07372401,5c9224087a7067000190b119,64d2fd46c836a06233681665,64dc7ef3c14e3476108b8b2d,,,,,,,,,,,,,,,,,,,,,,,,,,,,,,,,,,,,,,,,,,,,,,,,,,,,,,,,,,,,,,,,
,,,,,,,,2023-08-16_07h47.12.862,HF_wild_card,2022.2.4,Win32,59.07372401,5c9224087a7067000190b119,64d2fd46c836a06233681665,64dc7ef3c14e3476108b8b2d,,,,,,,,,,,,,,,,,,,,,,,,,,,,,,,,,,,,,,,,0,0,0,0,1,,,,,,,,,,,,,,,,,,,,
