Condition,Low fixed image (Door1),Low risky image (Door2),High fixed image (Door3),High risky image (Door4),Extreme Wild Card,NonExtreme Wild Card,,date,expName,psychopyVersion,OS,frameRate,PROLIFIC_PID,STUDY_ID,SESSION_ID,mouse_2.x,mouse_2.y,mouse_2.leftButton,mouse_2.midButton,mouse_2.rightButton,mouse_2.clicked_name,Trial Type,Left Option Image,Right Option Image,Chosen Door,mouse.x,mouse.y,mouse.leftButton,mouse.midButton,mouse.rightButton,mouse.time,mouse.clicked_name,Feedback,Cumulative Reward,Block,trial.thisRepN,trial.thisTrialN,trial.thisN,trial.thisIndex,trial.ran,blocks.thisRepN,blocks.thisTrialN,blocks.thisN,blocks.thisIndex,blocks.ran,Money conversion,First Outcome Reported,Shown Door (First Outcome),Displayed Image (First Outcome),outcomes.thisRepN,outcomes.thisTrialN,outcomes.thisN,outcomes.thisIndex,outcomes.ran,judgments.thisRepN,judgments.thisTrialN,judgments.thisN,judgments.thisIndex,judgments.ran,freqMouse.x,freqMouse.y,freqMouse.leftButton,freqMouse.midButton,freqMouse.rightButton,freqMouse.clicked_name,FQJ for first outcome,FQJ for second outcome,Shown Door,Displayed Image,trials.thisRepN,trials.thisTrialN,trials.thisN,trials.thisIndex,trials.ran,judgBlock.thisRepN,judgBlock.thisTrialN,judgBlock.thisN,judgBlock.thisIndex,judgBlock.ran
1,resources/DBN.BMP,resources/DP.BMP,resources/DR.BMP,resources/DG.BMP,resources/DB.BMP,resources/DY.BMP,,2023-08-16_08h35.45.612,HF_wild_card,2022.2.4,Win32,60.09615385,634e460a7da3fef3d5a9faf3,64d2fd46c836a06233681665,64dc7afc51587902ba779d6f,,,,,,,,,,,,,,,,,,,,,,,,,,,,,,,,,,,,,,,,,,,,,,,,,,,,,,,,,,,,,,,,
,,,,,,,,2023-08-16_08h35.45.612,HF_wild_card,2022.2.4,Win32,60.09615385,634e460a7da3fef3d5a9faf3,64d2fd46c836a06233681665,64dc7afc51587902ba779d6f,0.013888889,-0.413888889,1,0,0,agree,,,,,,,,,,,,,,,,,,,,,,,,,,,,,,,,,,,,,,,,,,,,,,,,,,,,,,,,,,
,,,,,,,,2023-08-16_08h35.45.612,HF_wild_card,2022.2.4,Win32,60.09615385,634e460a7da3fef3d5a9faf3,64d2fd46c836a06233681665,64dc7afc51587902ba779d6f,,,,,,,,,,,,,,,,,,,,,,,,,,,,,,,,,,,,,,,,,,,,,,,,,,,,,,,,,,,,,,,,
,,,,,,,,2023-08-16_08h35.45.612,HF_wild_card,2022.2.4,Win32,60.09615385,634e460a7da3fef3d5a9faf3,64d2fd46c836a06233681665,64dc7afc51587902ba779d6f,,,,,,,sngl,resources/Empty.png,resources/DBN.BMP,Door1,0.296296296,-0.134259259,1,0,0,1.457,optionRight,30,30,1,0,0,0,0,1,,,,,,,,,,,,,,,,,,,,,,,,,,,,,,,,,,,,,,,
,,,,,,,,2023-08-16_08h35.45.612,HF_wild_card,2022.2.4,Win32,60.09615385,634e460a7da3fef3d5a9faf3,64d2fd46c836a06233681665,64dc7afc51587902ba779d6f,,,,,,,decisionTrl,resources/DY.BMP,resources/DP.BMP,WildCard_NonEx,-0.331481481,-0.027777778,1,0,0,1.626,optionLeft,45,75,1,1,0,1,0,1,,,,,,,,,,,,,,,,,,,,,,,,,,,,,,,,,,,,,,,
,,,,,,,,2023-08-16_08h35.45.612,HF_wild_card,2022.2.4,Win32,60.09615385,634e460a7da3fef3d5a9faf3,64d2fd46c836a06233681665,64dc7afc51587902ba779d6f,,,,,,,sngl,resources/DY.BMP,resources/Empty.png,WildCard_NonEx,-0.32962963,-0.028703704,1,0,0,1.645,optionLeft,55,130,1,2,0,2,0,1,,,,,,,,,,,,,,,,,,,,,,,,,,,,,,,,,,,,,,,
,,,,,,,,2023-08-16_08h35.45.612,HF_wild_card,2022.2.4,Win32,60.09615385,634e460a7da3fef3d5a9faf3,64d2fd46c836a06233681665,64dc7afc51587902ba779d6f,,,,,,,decisionTrl,resources/DY.BMP,resources/DR.BMP,WildCard_NonEx,-0.253703704,-0.017592593,1,0,0,1.326,optionLeft,45,175,1,3,0,3,0,1,,,,,,,,,,,,,,,,,,,,,,,,,,,,,,,,,,,,,,,
,,,,,,,,2023-08-16_08h35.45.612,HF_wild_card,2022.2.4,Win32,60.09615385,634e460a7da3fef3d5a9faf3,64d2fd46c836a06233681665,64dc7afc51587902ba779d6f,,,,,,,decisionTrl,resources/DBN.BMP,resources/DY.BMP,WildCard_NonEx,0.337962963,0.025,1,0,0,1.044,optionRight,45,220,1,4,0,4,0,1,,,,,,,,,,,,,,,,,,,,,,,,,,,,,,,,,,,,,,,
,,,,,,,,2023-08-16_08h35.45.612,HF_wild_card,2022.2.4,Win32,60.09615385,634e460a7da3fef3d5a9faf3,64d2fd46c836a06233681665,64dc7afc51587902ba779d6f,,,,,,,sngl,resources/Empty.png,resources/DY.BMP,WildCard_NonEx,0.280555556,-0.098148148,1,0,0,1.012,optionRight,45,265,1,5,0,5,0,1,,,,,,,,,,,,,,,,,,,,,,,,,,,,,,,,,,,,,,,
,,,,,,,,2023-08-16_08h35.45.612,HF_wild_card,2022.2.4,Win32,60.09615385,634e460a7da3fef3d5a9faf3,64d2fd46c836a06233681665,64dc7afc51587902ba779d6f,,,,,,,decisionTrl,resources/DP.BMP,resources/DBN.BMP,Door2,-0.281481481,-0.057407407,1,0,0,1.075,optionLeft,40,305,1,6,0,6,0,1,,,,,,,,,,,,,,,,,,,,,,,,,,,,,,,,,,,,,,,
,,,,,,,,2023-08-16_08h35.45.612,HF_wild_card,2022.2.4,Win32,60.09615385,634e460a7da3fef3d5a9faf3,64d2fd46c836a06233681665,64dc7afc51587902ba779d6f,,,,,,,sngl,resources/Empty.png,resources/DG.BMP,Door4,0.315740741,0.037962963,1,0,0,0.943,optionRight,60,365,1,7,0,7,0,1,,,,,,,,,,,,,,,,,,,,,,,,,,,,,,,,,,,,,,,
,,,,,,,,2023-08-16_08h35.45.612,HF_wild_card,2022.2.4,Win32,60.09615385,634e460a7da3fef3d5a9faf3,64d2fd46c836a06233681665,64dc7afc51587902ba779d6f,,,,,,,sngl,resources/DP.BMP,resources/Empty.png,Door2,-0.235185185,-0.024074074,1,0,0,0.827,optionLeft,40,405,1,8,0,8,0,1,,,,,,,,,,,,,,,,,,,,,,,,,,,,,,,,,,,,,,,
,,,,,,,,2023-08-16_08h35.45.612,HF_wild_card,2022.2.4,Win32,60.09615385,634e460a7da3fef3d5a9faf3,64d2fd46c836a06233681665,64dc7afc51587902ba779d6f,,,,,,,decisionTrl,resources/DP.BMP,resources/DBN.BMP,Door1,0.360185185,0.002777778,1,0,0,1.145,optionRight,30,435,1,9,0,9,0,1,,,,,,,,,,,,,,,,,,,,,,,,,,,,,,,,,,,,,,,
,,,,,,,,2023-08-16_08h35.45.612,HF_wild_card,2022.2.4,Win32,60.09615385,634e460a7da3fef3d5a9faf3,64d2fd46c836a06233681665,64dc7afc51587902ba779d6f,,,,,,,decisionTrl,resources/DP.BMP,resources/DBN.BMP,Door2,-0.358333333,-0.081481481,1,0,0,0.914,optionLeft,40,475,1,10,0,10,0,1,,,,,,,,,,,,,,,,,,,,,,,,,,,,,,,,,,,,,,,
,,,,,,,,2023-08-16_08h35.45.612,HF_wild_card,2022.2.4,Win32,60.09615385,634e460a7da3fef3d5a9faf3,64d2fd46c836a06233681665,64dc7afc51587902ba779d6f,,,,,,,decisionTrl,resources/DBN.BMP,resources/DP.BMP,Door2,0.353703704,-0.05462963,1,0,0,0.874,optionRight,20,495,1,11,0,11,0,1,,,,,,,,,,,,,,,,,,,,,,,,,,,,,,,,,,,,,,,
,,,,,,,,2023-08-16_08h35.45.612,HF_wild_card,2022.2.4,Win32,60.09615385,634e460a7da3fef3d5a9faf3,64d2fd46c836a06233681665,64dc7afc51587902ba779d6f,,,,,,,decisionTrl,resources/DG.BMP,resources/DY.BMP,Door4,-0.258333333,-0.061111111,1,0,0,0.961,optionLeft,80,575,1,12,0,12,0,1,,,,,,,,,,,,,,,,,,,,,,,,,,,,,,,,,,,,,,,
,,,,,,,,2023-08-16_08h35.45.612,HF_wild_card,2022.2.4,Win32,60.09615385,634e460a7da3fef3d5a9faf3,64d2fd46c836a06233681665,64dc7afc51587902ba779d6f,,,,,,,ctch,resources/DBN.BMP,resources/DG.BMP,Door4,0.292592593,-0.015740741,1,0,0,1.244,optionRight,60,635,1,13,0,13,0,1,,,,,,,,,,,,,,,,,,,,,,,,,,,,,,,,,,,,,,,
,,,,,,,,2023-08-16_08h35.45.612,HF_wild_card,2022.2.4,Win32,60.09615385,634e460a7da3fef3d5a9faf3,64d2fd46c836a06233681665,64dc7afc51587902ba779d6f,,,,,,,ctch,resources/DG.BMP,resources/DBN.BMP,Door4,-0.256481481,-0.059259259,1,0,0,0.927,optionLeft,60,695,1,14,0,14,0,1,,,,,,,,,,,,,,,,,,,,,,,,,,,,,,,,,,,,,,,
,,,,,,,,2023-08-16_08h35.45.612,HF_wild_card,2022.2.4,Win32,60.09615385,634e460a7da3fef3d5a9faf3,64d2fd46c836a06233681665,64dc7afc51587902ba779d6f,,,,,,,decisionTrl,resources/DY.BMP,resources/DG.BMP,Door4,0.333333333,-0.035185185,1,0,0,0.707,optionRight,60,755,1,15,0,15,0,1,,,,,,,,,,,,,,,,,,,,,,,,,,,,,,,,,,,,,,,
,,,,,,,,2023-08-16_08h35.45.612,HF_wild_card,2022.2.4,Win32,60.09615385,634e460a7da3fef3d5a9faf3,64d2fd46c836a06233681665,64dc7afc51587902ba779d6f,,,,,,,decisionTrl,resources/DR.BMP,resources/DG.BMP,Door3,-0.228703704,-0.082407407,1,0,0,0.842,optionLeft,70,825,1,16,0,16,0,1,,,,,,,,,,,,,,,,,,,,,,,,,,,,,,,,,,,,,,,
,,,,,,,,2023-08-16_08h35.45.612,HF_wild_card,2022.2.4,Win32,60.09615385,634e460a7da3fef3d5a9faf3,64d2fd46c836a06233681665,64dc7afc51587902ba779d6f,,,,,,,ctch,resources/DP.BMP,resources/DR.BMP,Door3,0.193518519,-0.076851852,1,0,0,0.861,optionRight,70,895,1,17,0,17,0,1,,,,,,,,,,,,,,,,,,,,,,,,,,,,,,,,,,,,,,,
,,,,,,,,2023-08-16_08h35.45.612,HF_wild_card,2022.2.4,Win32,60.09615385,634e460a7da3fef3d5a9faf3,64d2fd46c836a06233681665,64dc7afc51587902ba779d6f,,,,,,,decisionTrl,resources/DP.BMP,resources/DY.BMP,Door2,-0.274074074,-0.059259259,1,0,0,0.78,optionLeft,40,935,1,18,0,18,0,1,,,,,,,,,,,,,,,,,,,,,,,,,,,,,,,,,,,,,,,
,,,,,,,,2023-08-16_08h35.45.612,HF_wild_card,2022.2.4,Win32,60.09615385,634e460a7da3fef3d5a9faf3,64d2fd46c836a06233681665,64dc7afc51587902ba779d6f,,,,,,,ctch,resources/DBN.BMP,resources/DG.BMP,Door4,0.265740741,-0.059259259,1,0,0,0.726,optionRight,60,995,1,19,0,19,0,1,,,,,,,,,,,,,,,,,,,,,,,,,,,,,,,,,,,,,,,
,,,,,,,,2023-08-16_08h35.45.612,HF_wild_card,2022.2.4,Win32,60.09615385,634e460a7da3fef3d5a9faf3,64d2fd46c836a06233681665,64dc7afc51587902ba779d6f,,,,,,,decisionTrl,resources/DBN.BMP,resources/DP.BMP,Door1,-0.266666667,-0.077777778,1,0,0,0.728,optionLeft,30,1025,1,20,0,20,0,1,,,,,,,,,,,,,,,,,,,,,,,,,,,,,,,,,,,,,,,
,,,,,,,,2023-08-16_08h35.45.612,HF_wild_card,2022.2.4,Win32,60.09615385,634e460a7da3fef3d5a9faf3,64d2fd46c836a06233681665,64dc7afc51587902ba779d6f,,,,,,,sngl,resources/DBN.BMP,resources/Empty.png,Door1,-0.333333333,-0.091666667,1,0,0,0.862,optionLeft,30,1055,1,21,0,21,0,1,,,,,,,,,,,,,,,,,,,,,,,,,,,,,,,,,,,,,,,
,,,,,,,,2023-08-16_08h35.45.612,HF_wild_card,2022.2.4,Win32,60.09615385,634e460a7da3fef3d5a9faf3,64d2fd46c836a06233681665,64dc7afc51587902ba779d6f,,,,,,,decisionTrl,resources/DG.BMP,resources/DR.BMP,Door3,0.207407407,-0.025925926,1,0,0,1.16,optionRight,70,1125,1,22,0,22,0,1,,,,,,,,,,,,,,,,,,,,,,,,,,,,,,,,,,,,,,,
,,,,,,,,2023-08-16_08h35.45.612,HF_wild_card,2022.2.4,Win32,60.09615385,634e460a7da3fef3d5a9faf3,64d2fd46c836a06233681665,64dc7afc51587902ba779d6f,,,,,,,decisionTrl,resources/DG.BMP,resources/DR.BMP,Door4,-0.310185185,-0.073148148,1,0,0,0.809,optionLeft,60,1185,1,23,0,23,0,1,,,,,,,,,,,,,,,,,,,,,,,,,,,,,,,,,,,,,,,
,,,,,,,,2023-08-16_08h35.45.612,HF_wild_card,2022.2.4,Win32,60.09615385,634e460a7da3fef3d5a9faf3,64d2fd46c836a06233681665,64dc7afc51587902ba779d6f,,,,,,,decisionTrl,resources/DR.BMP,resources/DG.BMP,Door4,0.208333333,-0.071296296,1,0,0,0.776,optionRight,80,1265,1,24,0,24,0,1,,,,,,,,,,,,,,,,,,,,,,,,,,,,,,,,,,,,,,,
,,,,,,,,2023-08-16_08h35.45.612,HF_wild_card,2022.2.4,Win32,60.09615385,634e460a7da3fef3d5a9faf3,64d2fd46c836a06233681665,64dc7afc51587902ba779d6f,,,,,,,decisionTrl,resources/DBN.BMP,resources/DP.BMP,Door1,-0.238888889,-0.103703704,1,0,0,0.811,optionLeft,30,1295,1,25,0,25,0,1,,,,,,,,,,,,,,,,,,,,,,,,,,,,,,,,,,,,,,,
,,,,,,,,2023-08-16_08h35.45.612,HF_wild_card,2022.2.4,Win32,60.09615385,634e460a7da3fef3d5a9faf3,64d2fd46c836a06233681665,64dc7afc51587902ba779d6f,,,,,,,decisionTrl,resources/DBN.BMP,resources/DP.BMP,Door2,0.302777778,-0.062962963,1,0,0,0.862,optionRight,40,1335,1,26,0,26,0,1,,,,,,,,,,,,,,,,,,,,,,,,,,,,,,,,,,,,,,,
,,,,,,,,2023-08-16_08h35.45.612,HF_wild_card,2022.2.4,Win32,60.09615385,634e460a7da3fef3d5a9faf3,64d2fd46c836a06233681665,64dc7afc51587902ba779d6f,,,,,,,ctch,resources/DP.BMP,resources/DR.BMP,Door2,-0.365740741,-0.102777778,1,0,0,0.779,optionLeft,20,1355,1,27,0,27,0,1,,,,,,,,,,,,,,,,,,,,,,,,,,,,,,,,,,,,,,,
,,,,,,,,2023-08-16_08h35.45.612,HF_wild_card,2022.2.4,Win32,60.09615385,634e460a7da3fef3d5a9faf3,64d2fd46c836a06233681665,64dc7afc51587902ba779d6f,,,,,,,sngl,resources/DR.BMP,resources/Empty.png,Door3,-0.34537037,-0.073148148,1,0,0,0.779,optionLeft,70,1425,1,28,0,28,0,1,,,,,,,,,,,,,,,,,,,,,,,,,,,,,,,,,,,,,,,
,,,,,,,,2023-08-16_08h35.45.612,HF_wild_card,2022.2.4,Win32,60.09615385,634e460a7da3fef3d5a9faf3,64d2fd46c836a06233681665,64dc7afc51587902ba779d6f,,,,,,,decisionTrl,resources/DR.BMP,resources/DG.BMP,Door4,0.216666667,-0.051851852,1,0,0,0.68,optionRight,80,1505,1,29,0,29,0,1,,,,,,,,,,,,,,,,,,,,,,,,,,,,,,,,,,,,,,,
,,,,,,,,2023-08-16_08h35.45.612,HF_wild_card,2022.2.4,Win32,60.09615385,634e460a7da3fef3d5a9faf3,64d2fd46c836a06233681665,64dc7afc51587902ba779d6f,,,,,,,decisionTrl,resources/DR.BMP,resources/DY.BMP,Door3,-0.252777778,-0.057407407,1,0,0,1.677,optionLeft,70,1575,1,30,0,30,0,1,,,,,,,,,,,,,,,,,,,,,,,,,,,,,,,,,,,,,,,
,,,,,,,,2023-08-16_08h35.45.612,HF_wild_card,2022.2.4,Win32,60.09615385,634e460a7da3fef3d5a9faf3,64d2fd46c836a06233681665,64dc7afc51587902ba779d6f,,,,,,,decisionTrl,resources/DG.BMP,resources/DR.BMP,Door3,0.340740741,-0.017592593,1,0,0,0.745,optionRight,70,1645,1,31,0,31,0,1,,,,,,,,,,,,,,,,,,,,,,,,,,,,,,,,,,,,,,,
,,,,,,,,2023-08-16_08h35.45.612,HF_wild_card,2022.2.4,Win32,60.09615385,634e460a7da3fef3d5a9faf3,64d2fd46c836a06233681665,64dc7afc51587902ba779d6f,,,,,,,decisionTrl,resources/DY.BMP,resources/DBN.BMP,WildCard_NonEx,-0.217592593,-0.112037037,1,0,0,0.761,optionLeft,45,1690,1,32,0,32,0,1,,,,,,,,,,,,,,,,,,,,,,,,,,,,,,,,,,,,,,,
,,,,,,,,2023-08-16_08h35.45.612,HF_wild_card,2022.2.4,Win32,60.09615385,634e460a7da3fef3d5a9faf3,64d2fd46c836a06233681665,64dc7afc51587902ba779d6f,,,,,,,decisionTrl,resources/DG.BMP,resources/DR.BMP,Door3,0.237037037,-0.100925926,1,0,0,0.793,optionRight,70,1760,1,33,0,33,0,1,,,,,,,,,,,,,,,,,,,,,,,,,,,,,,,,,,,,,,,
,,,,,,,,2023-08-16_08h35.45.612,HF_wild_card,2022.2.4,Win32,60.09615385,634e460a7da3fef3d5a9faf3,64d2fd46c836a06233681665,64dc7afc51587902ba779d6f,,,,,,,decisionTrl,resources/DP.BMP,resources/DBN.BMP,Door2,-0.294444444,-0.112962963,1,0,0,0.644,optionLeft,40,1800,1,34,0,34,0,1,,,,,,,,,,,,,,,,,,,,,,,,,,,,,,,,,,,,,,,
,,,,,,,,2023-08-16_08h35.45.612,HF_wild_card,2022.2.4,Win32,60.09615385,634e460a7da3fef3d5a9faf3,64d2fd46c836a06233681665,64dc7afc51587902ba779d6f,,,,,,,sngl,resources/DY.BMP,resources/Empty.png,WildCard_NonEx,-0.298148148,-0.084259259,1,0,0,0.673,optionLeft,45,1845,1,35,0,35,0,1,,,,,,,,,,,,,,,,,,,,,,,,,,,,,,,,,,,,,,,
,,,,,,,,2023-08-16_08h35.45.612,HF_wild_card,2022.2.4,Win32,60.09615385,634e460a7da3fef3d5a9faf3,64d2fd46c836a06233681665,64dc7afc51587902ba779d6f,,,,,,,sngl,resources/Empty.png,resources/DY.BMP,WildCard_NonEx,0.190740741,-0.065740741,1,0,0,0.811,optionRight,55,1900,1,36,0,36,0,1,,,,,,,,,,,,,,,,,,,,,,,,,,,,,,,,,,,,,,,
,,,,,,,,2023-08-16_08h35.45.612,HF_wild_card,2022.2.4,Win32,60.09615385,634e460a7da3fef3d5a9faf3,64d2fd46c836a06233681665,64dc7afc51587902ba779d6f,,,,,,,decisionTrl,resources/DR.BMP,resources/DG.BMP,Door3,-0.236111111,-0.139814815,1,0,0,0.745,optionLeft,70,1970,1,37,0,37,0,1,,,,,,,,,,,,,,,,,,,,,,,,,,,,,,,,,,,,,,,
,,,,,,,,2023-08-16_08h35.45.612,HF_wild_card,2022.2.4,Win32,60.09615385,634e460a7da3fef3d5a9faf3,64d2fd46c836a06233681665,64dc7afc51587902ba779d6f,,,,,,,sngl,resources/Empty.png,resources/DP.BMP,Door2,0.244444444,-0.05462963,1,0,0,0.729,optionRight,20,1990,1,38,0,38,0,1,,,,,,,,,,,,,,,,,,,,,,,,,,,,,,,,,,,,,,,
,,,,,,,,2023-08-16_08h35.45.612,HF_wild_card,2022.2.4,Win32,60.09615385,634e460a7da3fef3d5a9faf3,64d2fd46c836a06233681665,64dc7afc51587902ba779d6f,,,,,,,ctch,resources/DG.BMP,resources/DBN.BMP,Door4,-0.232407407,-0.141666667,1,0,0,0.811,optionLeft,80,2070,1,39,0,39,0,1,,,,,,,,,,,,,,,,,,,,,,,,,,,,,,,,,,,,,,,
,,,,,,,,2023-08-16_08h35.45.612,HF_wild_card,2022.2.4,Win32,60.09615385,634e460a7da3fef3d5a9faf3,64d2fd46c836a06233681665,64dc7afc51587902ba779d6f,,,,,,,ctch,resources/DR.BMP,resources/DP.BMP,Door2,0.223148148,-0.087962963,1,0,0,0.71,optionRight,20,2090,1,40,0,40,0,1,,,,,,,,,,,,,,,,,,,,,,,,,,,,,,,,,,,,,,,
,,,,,,,,2023-08-16_08h35.45.612,HF_wild_card,2022.2.4,Win32,60.09615385,634e460a7da3fef3d5a9faf3,64d2fd46c836a06233681665,64dc7afc51587902ba779d6f,,,,,,,ctch,resources/DR.BMP,resources/DP.BMP,Door3,-0.198148148,-0.076851852,1,0,0,0.677,optionLeft,70,2160,1,41,0,41,0,1,,,,,,,,,,,,,,,,,,,,,,,,,,,,,,,,,,,,,,,
,,,,,,,,2023-08-16_08h35.45.612,HF_wild_card,2022.2.4,Win32,60.09615385,634e460a7da3fef3d5a9faf3,64d2fd46c836a06233681665,64dc7afc51587902ba779d6f,,,,,,,sngl,resources/Empty.png,resources/DR.BMP,Door3,0.243518519,-0.10462963,1,0,0,0.681,optionRight,70,2230,1,42,0,42,0,1,,,,,,,,,,,,,,,,,,,,,,,,,,,,,,,,,,,,,,,
,,,,,,,,2023-08-16_08h35.45.612,HF_wild_card,2022.2.4,Win32,60.09615385,634e460a7da3fef3d5a9faf3,64d2fd46c836a06233681665,64dc7afc51587902ba779d6f,,,,,,,sngl,resources/DG.BMP,resources/Empty.png,Door4,-0.216666667,-0.152777778,1,0,0,0.675,optionLeft,80,2310,1,43,0,43,0,1,,,,,,,,,,,,,,,,,,,,,,,,,,,,,,,,,,,,,,,
,,,,,,,,2023-08-16_08h35.45.612,HF_wild_card,2022.2.4,Win32,60.09615385,634e460a7da3fef3d5a9faf3,64d2fd46c836a06233681665,64dc7afc51587902ba779d6f,,,,,,,,,,,,,,,,,,,,,,,,,,0,0,0,0,1,,,,,,,,,,,,,,,,,,,,,,,,,,,,,,,,,,
,,,,,,,,2023-08-16_08h35.45.612,HF_wild_card,2022.2.4,Win32,60.09615385,634e460a7da3fef3d5a9faf3,64d2fd46c836a06233681665,64dc7afc51587902ba779d6f,,,,,,,decisionTrl,resources/DP.BMP,resources/DY.BMP,Door2,-0.212962963,-0.144444444,1,0,0,4.767,optionLeft,40,2350,2,0,0,0,0,1,,,,,,,,,,,,,,,,,,,,,,,,,,,,,,,,,,,,,,,
,,,,,,,,2023-08-16_08h35.45.612,HF_wild_card,2022.2.4,Win32,60.09615385,634e460a7da3fef3d5a9faf3,64d2fd46c836a06233681665,64dc7afc51587902ba779d6f,,,,,,,decisionTrl,resources/DP.BMP,resources/DBN.BMP,Door1,0.22037037,-0.049074074,1,0,0,0.662,optionRight,30,2380,2,1,0,1,0,1,,,,,,,,,,,,,,,,,,,,,,,,,,,,,,,,,,,,,,,
,,,,,,,,2023-08-16_08h35.45.612,HF_wild_card,2022.2.4,Win32,60.09615385,634e460a7da3fef3d5a9faf3,64d2fd46c836a06233681665,64dc7afc51587902ba779d6f,,,,,,,ctch,resources/DBN.BMP,resources/DG.BMP,Door1,-0.191666667,-0.132407407,1,0,0,0.792,optionLeft,30,2410,2,2,0,2,0,1,,,,,,,,,,,,,,,,,,,,,,,,,,,,,,,,,,,,,,,
,,,,,,,,2023-08-16_08h35.45.612,HF_wild_card,2022.2.4,Win32,60.09615385,634e460a7da3fef3d5a9faf3,64d2fd46c836a06233681665,64dc7afc51587902ba779d6f,,,,,,,decisionTrl,resources/DY.BMP,resources/DP.BMP,Door2,0.234259259,-0.011111111,1,0,0,0.659,optionRight,40,2450,2,3,0,3,0,1,,,,,,,,,,,,,,,,,,,,,,,,,,,,,,,,,,,,,,,
,,,,,,,,2023-08-16_08h35.45.612,HF_wild_card,2022.2.4,Win32,60.09615385,634e460a7da3fef3d5a9faf3,64d2fd46c836a06233681665,64dc7afc51587902ba779d6f,,,,,,,decisionTrl,resources/DBN.BMP,resources/DP.BMP,Door1,-0.227777778,-0.083333333,1,0,0,0.778,optionLeft,30,2480,2,4,0,4,0,1,,,,,,,,,,,,,,,,,,,,,,,,,,,,,,,,,,,,,,,
,,,,,,,,2023-08-16_08h35.45.612,HF_wild_card,2022.2.4,Win32,60.09615385,634e460a7da3fef3d5a9faf3,64d2fd46c836a06233681665,64dc7afc51587902ba779d6f,,,,,,,sngl,resources/DP.BMP,resources/Empty.png,Door2,-0.280555556,-0.067592593,1,0,0,0.911,optionLeft,20,2500,2,5,0,5,0,1,,,,,,,,,,,,,,,,,,,,,,,,,,,,,,,,,,,,,,,
,,,,,,,,2023-08-16_08h35.45.612,HF_wild_card,2022.2.4,Win32,60.09615385,634e460a7da3fef3d5a9faf3,64d2fd46c836a06233681665,64dc7afc51587902ba779d6f,,,,,,,decisionTrl,resources/DG.BMP,resources/DR.BMP,Door3,0.32962963,-0.069444444,1,0,0,0.678,optionRight,70,2570,2,6,0,6,0,1,,,,,,,,,,,,,,,,,,,,,,,,,,,,,,,,,,,,,,,
,,,,,,,,2023-08-16_08h35.45.612,HF_wild_card,2022.2.4,Win32,60.09615385,634e460a7da3fef3d5a9faf3,64d2fd46c836a06233681665,64dc7afc51587902ba779d6f,,,,,,,decisionTrl,resources/DG.BMP,resources/DR.BMP,Door4,-0.237962963,-0.124074074,1,0,0,0.714,optionLeft,80,2650,2,7,0,7,0,1,,,,,,,,,,,,,,,,,,,,,,,,,,,,,,,,,,,,,,,
,,,,,,,,2023-08-16_08h35.45.612,HF_wild_card,2022.2.4,Win32,60.09615385,634e460a7da3fef3d5a9faf3,64d2fd46c836a06233681665,64dc7afc51587902ba779d6f,,,,,,,decisionTrl,resources/DG.BMP,resources/DR.BMP,Door3,0.294444444,-0.096296296,1,0,0,0.649,optionRight,70,2720,2,8,0,8,0,1,,,,,,,,,,,,,,,,,,,,,,,,,,,,,,,,,,,,,,,
,,,,,,,,2023-08-16_08h35.45.612,HF_wild_card,2022.2.4,Win32,60.09615385,634e460a7da3fef3d5a9faf3,64d2fd46c836a06233681665,64dc7afc51587902ba779d6f,,,,,,,decisionTrl,resources/DBN.BMP,resources/DY.BMP,Door1,-0.276851852,-0.150925926,1,0,0,0.647,optionLeft,30,2750,2,9,0,9,0,1,,,,,,,,,,,,,,,,,,,,,,,,,,,,,,,,,,,,,,,
,,,,,,,,2023-08-16_08h35.45.612,HF_wild_card,2022.2.4,Win32,60.09615385,634e460a7da3fef3d5a9faf3,64d2fd46c836a06233681665,64dc7afc51587902ba779d6f,,,,,,,sngl,resources/DY.BMP,resources/Empty.png,WildCard_NonEx,-0.273148148,-0.125925926,1,0,0,0.847,optionLeft,55,2805,2,10,0,10,0,1,,,,,,,,,,,,,,,,,,,,,,,,,,,,,,,,,,,,,,,
,,,,,,,,2023-08-16_08h35.45.612,HF_wild_card,2022.2.4,Win32,60.09615385,634e460a7da3fef3d5a9faf3,64d2fd46c836a06233681665,64dc7afc51587902ba779d6f,,,,,,,decisionTrl,resources/DR.BMP,resources/DG.BMP,Door4,0.25462963,-0.081481481,1,0,0,0.645,optionRight,80,2885,2,11,0,11,0,1,,,,,,,,,,,,,,,,,,,,,,,,,,,,,,,,,,,,,,,
,,,,,,,,2023-08-16_08h35.45.612,HF_wild_card,2022.2.4,Win32,60.09615385,634e460a7da3fef3d5a9faf3,64d2fd46c836a06233681665,64dc7afc51587902ba779d6f,,,,,,,decisionTrl,resources/DG.BMP,resources/DR.BMP,Door3,0.251851852,-0.023148148,1,0,0,0.727,optionRight,70,2955,2,12,0,12,0,1,,,,,,,,,,,,,,,,,,,,,,,,,,,,,,,,,,,,,,,
,,,,,,,,2023-08-16_08h35.45.612,HF_wild_card,2022.2.4,Win32,60.09615385,634e460a7da3fef3d5a9faf3,64d2fd46c836a06233681665,64dc7afc51587902ba779d6f,,,,,,,sngl,resources/Empty.png,resources/DY.BMP,WildCard_NonEx,0.226851852,-0.134259259,1,0,0,0.81,optionRight,55,3010,2,13,0,13,0,1,,,,,,,,,,,,,,,,,,,,,,,,,,,,,,,,,,,,,,,
,,,,,,,,2023-08-16_08h35.45.612,HF_wild_card,2022.2.4,Win32,60.09615385,634e460a7da3fef3d5a9faf3,64d2fd46c836a06233681665,64dc7afc51587902ba779d6f,,,,,,,decisionTrl,resources/DR.BMP,resources/DG.BMP,Door3,-0.174074074,-0.072222222,1,0,0,0.794,optionLeft,70,3080,2,14,0,14,0,1,,,,,,,,,,,,,,,,,,,,,,,,,,,,,,,,,,,,,,,
,,,,,,,,2023-08-16_08h35.45.612,HF_wild_card,2022.2.4,Win32,60.09615385,634e460a7da3fef3d5a9faf3,64d2fd46c836a06233681665,64dc7afc51587902ba779d6f,,,,,,,sngl,resources/DY.BMP,resources/Empty.png,WildCard_NonEx,-0.341666667,-0.130555556,1,0,0,0.825,optionLeft,45,3125,2,15,0,15,0,1,,,,,,,,,,,,,,,,,,,,,,,,,,,,,,,,,,,,,,,
,,,,,,,,2023-08-16_08h35.45.612,HF_wild_card,2022.2.4,Win32,60.09615385,634e460a7da3fef3d5a9faf3,64d2fd46c836a06233681665,64dc7afc51587902ba779d6f,,,,,,,decisionTrl,resources/DBN.BMP,resources/DP.BMP,Door2,0.20462963,-0.043518519,1,0,0,0.76,optionRight,20,3145,2,16,0,16,0,1,,,,,,,,,,,,,,,,,,,,,,,,,,,,,,,,,,,,,,,
,,,,,,,,2023-08-16_08h35.45.612,HF_wild_card,2022.2.4,Win32,60.09615385,634e460a7da3fef3d5a9faf3,64d2fd46c836a06233681665,64dc7afc51587902ba779d6f,,,,,,,ctch,resources/DR.BMP,resources/DP.BMP,Door3,-0.153703704,-0.083333333,1,0,0,0.711,optionLeft,70,3215,2,17,0,17,0,1,,,,,,,,,,,,,,,,,,,,,,,,,,,,,,,,,,,,,,,
,,,,,,,,2023-08-16_08h35.45.612,HF_wild_card,2022.2.4,Win32,60.09615385,634e460a7da3fef3d5a9faf3,64d2fd46c836a06233681665,64dc7afc51587902ba779d6f,,,,,,,decisionTrl,resources/DY.BMP,resources/DR.BMP,Door3,0.189814815,-0.019444444,1,0,0,0.775,optionRight,70,3285,2,18,0,18,0,1,,,,,,,,,,,,,,,,,,,,,,,,,,,,,,,,,,,,,,,
,,,,,,,,2023-08-16_08h35.45.612,HF_wild_card,2022.2.4,Win32,60.09615385,634e460a7da3fef3d5a9faf3,64d2fd46c836a06233681665,64dc7afc51587902ba779d6f,,,,,,,decisionTrl,resources/DP.BMP,resources/DBN.BMP,Door2,-0.255555556,-0.139814815,1,0,0,0.676,optionLeft,20,3305,2,19,0,19,0,1,,,,,,,,,,,,,,,,,,,,,,,,,,,,,,,,,,,,,,,
,,,,,,,,2023-08-16_08h35.45.612,HF_wild_card,2022.2.4,Win32,60.09615385,634e460a7da3fef3d5a9faf3,64d2fd46c836a06233681665,64dc7afc51587902ba779d6f,,,,,,,decisionTrl,resources/DY.BMP,resources/DG.BMP,Door4,0.294444444,-0.04537037,1,0,0,0.645,optionRight,60,3365,2,20,0,20,0,1,,,,,,,,,,,,,,,,,,,,,,,,,,,,,,,,,,,,,,,
,,,,,,,,2023-08-16_08h35.45.612,HF_wild_card,2022.2.4,Win32,60.09615385,634e460a7da3fef3d5a9faf3,64d2fd46c836a06233681665,64dc7afc51587902ba779d6f,,,,,,,ctch,resources/DP.BMP,resources/DR.BMP,Door2,-0.269444444,-0.186111111,1,0,0,0.712,optionLeft,20,3385,2,21,0,21,0,1,,,,,,,,,,,,,,,,,,,,,,,,,,,,,,,,,,,,,,,
,,,,,,,,2023-08-16_08h35.45.612,HF_wild_card,2022.2.4,Win32,60.09615385,634e460a7da3fef3d5a9faf3,64d2fd46c836a06233681665,64dc7afc51587902ba779d6f,,,,,,,sngl,resources/Empty.png,resources/DR.BMP,Door3,0.217592593,-0.112962963,1,0,0,0.677,optionRight,70,3455,2,22,0,22,0,1,,,,,,,,,,,,,,,,,,,,,,,,,,,,,,,,,,,,,,,
,,,,,,,,2023-08-16_08h35.45.612,HF_wild_card,2022.2.4,Win32,60.09615385,634e460a7da3fef3d5a9faf3,64d2fd46c836a06233681665,64dc7afc51587902ba779d6f,,,,,,,sngl,resources/Empty.png,resources/DP.BMP,Door2,0.277777778,-0.105555556,1,0,0,0.795,optionRight,40,3495,2,23,0,23,0,1,,,,,,,,,,,,,,,,,,,,,,,,,,,,,,,,,,,,,,,
,,,,,,,,2023-08-16_08h35.45.612,HF_wild_card,2022.2.4,Win32,60.09615385,634e460a7da3fef3d5a9faf3,64d2fd46c836a06233681665,64dc7afc51587902ba779d6f,,,,,,,sngl,resources/Empty.png,resources/DY.BMP,WildCard_NonEx,0.110185185,-0.153703704,1,0,0,0.693,optionRight,45,3540,2,24,0,24,0,1,,,,,,,,,,,,,,,,,,,,,,,,,,,,,,,,,,,,,,,
,,,,,,,,2023-08-16_08h35.45.612,HF_wild_card,2022.2.4,Win32,60.09615385,634e460a7da3fef3d5a9faf3,64d2fd46c836a06233681665,64dc7afc51587902ba779d6f,,,,,,,decisionTrl,resources/DP.BMP,resources/DBN.BMP,Door1,0.328703704,-0.046296296,1,0,0,0.663,optionRight,30,3570,2,25,0,25,0,1,,,,,,,,,,,,,,,,,,,,,,,,,,,,,,,,,,,,,,,
,,,,,,,,2023-08-16_08h35.45.612,HF_wild_card,2022.2.4,Win32,60.09615385,634e460a7da3fef3d5a9faf3,64d2fd46c836a06233681665,64dc7afc51587902ba779d6f,,,,,,,ctch,resources/DG.BMP,resources/DBN.BMP,Door4,-0.263888889,-0.139814815,1,0,0,0.664,optionLeft,60,3630,2,26,0,26,0,1,,,,,,,,,,,,,,,,,,,,,,,,,,,,,,,,,,,,,,,
,,,,,,,,2023-08-16_08h35.45.612,HF_wild_card,2022.2.4,Win32,60.09615385,634e460a7da3fef3d5a9faf3,64d2fd46c836a06233681665,64dc7afc51587902ba779d6f,,,,,,,sngl,resources/DR.BMP,resources/Empty.png,Door3,-0.24537037,-0.096296296,1,0,0,0.768,optionLeft,70,3700,2,27,0,27,0,1,,,,,,,,,,,,,,,,,,,,,,,,,,,,,,,,,,,,,,,
,,,,,,,,2023-08-16_08h35.45.612,HF_wild_card,2022.2.4,Win32,60.09615385,634e460a7da3fef3d5a9faf3,64d2fd46c836a06233681665,64dc7afc51587902ba779d6f,,,,,,,decisionTrl,resources/DR.BMP,resources/DY.BMP,WildCard_NonEx,0.240740741,-0.037037037,1,0,0,0.743,optionRight,45,3745,2,28,0,28,0,1,,,,,,,,,,,,,,,,,,,,,,,,,,,,,,,,,,,,,,,
,,,,,,,,2023-08-16_08h35.45.612,HF_wild_card,2022.2.4,Win32,60.09615385,634e460a7da3fef3d5a9faf3,64d2fd46c836a06233681665,64dc7afc51587902ba779d6f,,,,,,,sngl,resources/Empty.png,resources/DBN.BMP,Door1,0.291666667,-0.149074074,1,0,0,1.06,optionRight,30,3775,2,29,0,29,0,1,,,,,,,,,,,,,,,,,,,,,,,,,,,,,,,,,,,,,,,
,,,,,,,,2023-08-16_08h35.45.612,HF_wild_card,2022.2.4,Win32,60.09615385,634e460a7da3fef3d5a9faf3,64d2fd46c836a06233681665,64dc7afc51587902ba779d6f,,,,,,,ctch,resources/DR.BMP,resources/DP.BMP,Door3,-0.362037037,-0.078703704,1,0,0,0.844,optionLeft,70,3845,2,30,0,30,0,1,,,,,,,,,,,,,,,,,,,,,,,,,,,,,,,,,,,,,,,
,,,,,,,,2023-08-16_08h35.45.612,HF_wild_card,2022.2.4,Win32,60.09615385,634e460a7da3fef3d5a9faf3,64d2fd46c836a06233681665,64dc7afc51587902ba779d6f,,,,,,,ctch,resources/DP.BMP,resources/DR.BMP,Door2,-0.309259259,-0.071296296,1,0,0,2.308,optionLeft,40,3885,2,31,0,31,0,1,,,,,,,,,,,,,,,,,,,,,,,,,,,,,,,,,,,,,,,
,,,,,,,,2023-08-16_08h35.45.612,HF_wild_card,2022.2.4,Win32,60.09615385,634e460a7da3fef3d5a9faf3,64d2fd46c836a06233681665,64dc7afc51587902ba779d6f,,,,,,,decisionTrl,resources/DR.BMP,resources/DG.BMP,Door3,-0.325,-0.013888889,1,0,0,3.224,optionLeft,70,3955,2,32,0,32,0,1,,,,,,,,,,,,,,,,,,,,,,,,,,,,,,,,,,,,,,,
,,,,,,,,2023-08-16_08h35.45.612,HF_wild_card,2022.2.4,Win32,60.09615385,634e460a7da3fef3d5a9faf3,64d2fd46c836a06233681665,64dc7afc51587902ba779d6f,,,,,,,sngl,resources/Empty.png,resources/DG.BMP,Door4,0.010185185,-0.002777778,1,0,0,1.724,optionRight,80,4035,2,33,0,33,0,1,,,,,,,,,,,,,,,,,,,,,,,,,,,,,,,,,,,,,,,
,,,,,,,,2023-08-16_08h35.45.612,HF_wild_card,2022.2.4,Win32,60.09615385,634e460a7da3fef3d5a9faf3,64d2fd46c836a06233681665,64dc7afc51587902ba779d6f,,,,,,,decisionTrl,resources/DBN.BMP,resources/DP.BMP,Door2,0.25,-0.034259259,1,0,0,1.041,optionRight,20,4055,2,34,0,34,0,1,,,,,,,,,,,,,,,,,,,,,,,,,,,,,,,,,,,,,,,
,,,,,,,,2023-08-16_08h35.45.612,HF_wild_card,2022.2.4,Win32,60.09615385,634e460a7da3fef3d5a9faf3,64d2fd46c836a06233681665,64dc7afc51587902ba779d6f,,,,,,,sngl,resources/DBN.BMP,resources/Empty.png,Door1,-0.394444444,-0.026851852,1,0,0,0.895,optionLeft,30,4085,2,35,0,35,0,1,,,,,,,,,,,,,,,,,,,,,,,,,,,,,,,,,,,,,,,
,,,,,,,,2023-08-16_08h35.45.612,HF_wild_card,2022.2.4,Win32,60.09615385,634e460a7da3fef3d5a9faf3,64d2fd46c836a06233681665,64dc7afc51587902ba779d6f,,,,,,,decisionTrl,resources/DR.BMP,resources/DG.BMP,Door3,-0.152777778,0.028703704,1,0,0,0.893,optionLeft,70,4155,2,36,0,36,0,1,,,,,,,,,,,,,,,,,,,,,,,,,,,,,,,,,,,,,,,
,,,,,,,,2023-08-16_08h35.45.612,HF_wild_card,2022.2.4,Win32,60.09615385,634e460a7da3fef3d5a9faf3,64d2fd46c836a06233681665,64dc7afc51587902ba779d6f,,,,,,,decisionTrl,resources/DY.BMP,resources/DBN.BMP,Door1,0.377777778,0.015740741,1,0,0,0.88,optionRight,30,4185,2,37,0,37,0,1,,,,,,,,,,,,,,,,,,,,,,,,,,,,,,,,,,,,,,,
,,,,,,,,2023-08-16_08h35.45.612,HF_wild_card,2022.2.4,Win32,60.09615385,634e460a7da3fef3d5a9faf3,64d2fd46c836a06233681665,64dc7afc51587902ba779d6f,,,,,,,ctch,resources/DBN.BMP,resources/DG.BMP,Door4,0.332407407,0.038888889,1,0,0,1.33,optionRight,80,4265,2,38,0,38,0,1,,,,,,,,,,,,,,,,,,,,,,,,,,,,,,,,,,,,,,,
,,,,,,,,2023-08-16_08h35.45.612,HF_wild_card,2022.2.4,Win32,60.09615385,634e460a7da3fef3d5a9faf3,64d2fd46c836a06233681665,64dc7afc51587902ba779d6f,,,,,,,ctch,resources/DG.BMP,resources/DBN.BMP,Door4,-0.401851852,0.013888889,1,0,0,1.009,optionLeft,60,4325,2,39,0,39,0,1,,,,,,,,,,,,,,,,,,,,,,,,,,,,,,,,,,,,,,,
,,,,,,,,2023-08-16_08h35.45.612,HF_wild_card,2022.2.4,Win32,60.09615385,634e460a7da3fef3d5a9faf3,64d2fd46c836a06233681665,64dc7afc51587902ba779d6f,,,,,,,sngl,resources/DG.BMP,resources/Empty.png,Door4,-0.341666667,0.009259259,1,0,0,1.128,optionLeft,60,4385,2,40,0,40,0,1,,,,,,,,,,,,,,,,,,,,,,,,,,,,,,,,,,,,,,,
,,,,,,,,2023-08-16_08h35.45.612,HF_wild_card,2022.2.4,Win32,60.09615385,634e460a7da3fef3d5a9faf3,64d2fd46c836a06233681665,64dc7afc51587902ba779d6f,,,,,,,decisionTrl,resources/DBN.BMP,resources/DP.BMP,Door2,0.376851852,0.013888889,1,0,0,1.076,optionRight,40,4425,2,41,0,41,0,1,,,,,,,,,,,,,,,,,,,,,,,,,,,,,,,,,,,,,,,
,,,,,,,,2023-08-16_08h35.45.612,HF_wild_card,2022.2.4,Win32,60.09615385,634e460a7da3fef3d5a9faf3,64d2fd46c836a06233681665,64dc7afc51587902ba779d6f,,,,,,,decisionTrl,resources/DP.BMP,resources/DBN.BMP,Door2,-0.394444444,-0.007407407,1,0,0,1.16,optionLeft,40,4465,2,42,0,42,0,1,,,,,,,,,,,,,,,,,,,,,,,,,,,,,,,,,,,,,,,
,,,,,,,,2023-08-16_08h35.45.612,HF_wild_card,2022.2.4,Win32,60.09615385,634e460a7da3fef3d5a9faf3,64d2fd46c836a06233681665,64dc7afc51587902ba779d6f,,,,,,,decisionTrl,resources/DG.BMP,resources/DY.BMP,WildCard_NonEx,0.394444444,0.031481481,1,0,0,1.16,optionRight,55,4520,2,43,0,43,0,1,,,,,,,,,,,,,,,,,,,,,,,,,,,,,,,,,,,,,,,
,,,,,,,,2023-08-16_08h35.45.612,HF_wild_card,2022.2.4,Win32,60.09615385,634e460a7da3fef3d5a9faf3,64d2fd46c836a06233681665,64dc7afc51587902ba779d6f,,,,,,,,,,,,,,,,,,,,,,,,,,1,0,1,0,1,,,,,,,,,,,,,,,,,,,,,,,,,,,,,,,,,,
,,,,,,,,2023-08-16_08h35.45.612,HF_wild_card,2022.2.4,Win32,60.09615385,634e460a7da3fef3d5a9faf3,64d2fd46c836a06233681665,64dc7afc51587902ba779d6f,,,,,,,decisionTrl,resources/DG.BMP,resources/DR.BMP,Door4,-0.216666667,-0.1,1,0,0,1.192,optionLeft,60,4580,3,0,0,0,0,1,,,,,,,,,,,,,,,,,,,,,,,,,,,,,,,,,,,,,,,
,,,,,,,,2023-08-16_08h35.45.612,HF_wild_card,2022.2.4,Win32,60.09615385,634e460a7da3fef3d5a9faf3,64d2fd46c836a06233681665,64dc7afc51587902ba779d6f,,,,,,,sngl,resources/Empty.png,resources/DBN.BMP,Door1,0.363888889,-0.003703704,1,0,0,0.792,optionRight,30,4610,3,1,0,1,0,1,,,,,,,,,,,,,,,,,,,,,,,,,,,,,,,,,,,,,,,
,,,,,,,,2023-08-16_08h35.45.612,HF_wild_card,2022.2.4,Win32,60.09615385,634e460a7da3fef3d5a9faf3,64d2fd46c836a06233681665,64dc7afc51587902ba779d6f,,,,,,,sngl,resources/DG.BMP,resources/Empty.png,Door4,-0.406481481,0.059259259,1,0,0,0.995,optionLeft,80,4690,3,2,0,2,0,1,,,,,,,,,,,,,,,,,,,,,,,,,,,,,,,,,,,,,,,
,,,,,,,,2023-08-16_08h35.45.612,HF_wild_card,2022.2.4,Win32,60.09615385,634e460a7da3fef3d5a9faf3,64d2fd46c836a06233681665,64dc7afc51587902ba779d6f,,,,,,,decisionTrl,resources/DBN.BMP,resources/DP.BMP,Door2,0.275,-0.011111111,1,0,0,0.874,optionRight,20,4710,3,3,0,3,0,1,,,,,,,,,,,,,,,,,,,,,,,,,,,,,,,,,,,,,,,
,,,,,,,,2023-08-16_08h35.45.612,HF_wild_card,2022.2.4,Win32,60.09615385,634e460a7da3fef3d5a9faf3,64d2fd46c836a06233681665,64dc7afc51587902ba779d6f,,,,,,,decisionTrl,resources/DG.BMP,resources/DR.BMP,Door4,-0.341666667,0.000925926,1,0,0,0.877,optionLeft,80,4790,3,4,0,4,0,1,,,,,,,,,,,,,,,,,,,,,,,,,,,,,,,,,,,,,,,
,,,,,,,,2023-08-16_08h35.45.612,HF_wild_card,2022.2.4,Win32,60.09615385,634e460a7da3fef3d5a9faf3,64d2fd46c836a06233681665,64dc7afc51587902ba779d6f,,,,,,,ctch,resources/DG.BMP,resources/DBN.BMP,Door1,0.338888889,-0.000925926,1,0,0,1.057,optionRight,30,4820,3,5,0,5,0,1,,,,,,,,,,,,,,,,,,,,,,,,,,,,,,,,,,,,,,,
,,,,,,,,2023-08-16_08h35.45.612,HF_wild_card,2022.2.4,Win32,60.09615385,634e460a7da3fef3d5a9faf3,64d2fd46c836a06233681665,64dc7afc51587902ba779d6f,,,,,,,sngl,resources/DBN.BMP,resources/Empty.png,Door1,-0.333333333,0.030555556,1,0,0,1.009,optionLeft,30,4850,3,6,0,6,0,1,,,,,,,,,,,,,,,,,,,,,,,,,,,,,,,,,,,,,,,
,,,,,,,,2023-08-16_08h35.45.612,HF_wild_card,2022.2.4,Win32,60.09615385,634e460a7da3fef3d5a9faf3,64d2fd46c836a06233681665,64dc7afc51587902ba779d6f,,,,,,,decisionTrl,resources/DR.BMP,resources/DG.BMP,Door4,0.488888889,0.018518519,1,0,0,0.862,optionRight,80,4930,3,7,0,7,0,1,,,,,,,,,,,,,,,,,,,,,,,,,,,,,,,,,,,,,,,
,,,,,,,,2023-08-16_08h35.45.612,HF_wild_card,2022.2.4,Win32,60.09615385,634e460a7da3fef3d5a9faf3,64d2fd46c836a06233681665,64dc7afc51587902ba779d6f,,,,,,,sngl,resources/DY.BMP,resources/Empty.png,WildCard_NonEx,-0.316666667,0.000925926,1,0,0,0.928,optionLeft,45,4975,3,8,0,8,0,1,,,,,,,,,,,,,,,,,,,,,,,,,,,,,,,,,,,,,,,
,,,,,,,,2023-08-16_08h35.45.612,HF_wild_card,2022.2.4,Win32,60.09615385,634e460a7da3fef3d5a9faf3,64d2fd46c836a06233681665,64dc7afc51587902ba779d6f,,,,,,,ctch,resources/DR.BMP,resources/DP.BMP,Door2,0.294444444,-0.00462963,1,0,0,0.91,optionRight,20,4995,3,9,0,9,0,1,,,,,,,,,,,,,,,,,,,,,,,,,,,,,,,,,,,,,,,
,,,,,,,,2023-08-16_08h35.45.612,HF_wild_card,2022.2.4,Win32,60.09615385,634e460a7da3fef3d5a9faf3,64d2fd46c836a06233681665,64dc7afc51587902ba779d6f,,,,,,,decisionTrl,resources/DY.BMP,resources/DG.BMP,WildCard_NonEx,-0.42037037,0.008333333,1,0,0,1.191,optionLeft,45,5040,3,10,0,10,0,1,,,,,,,,,,,,,,,,,,,,,,,,,,,,,,,,,,,,,,,
,,,,,,,,2023-08-16_08h35.45.612,HF_wild_card,2022.2.4,Win32,60.09615385,634e460a7da3fef3d5a9faf3,64d2fd46c836a06233681665,64dc7afc51587902ba779d6f,,,,,,,sngl,resources/Empty.png,resources/DY.BMP,WildCard_NonEx,0.396296296,-0.040740741,1,0,0,1.113,optionRight,55,5095,3,11,0,11,0,1,,,,,,,,,,,,,,,,,,,,,,,,,,,,,,,,,,,,,,,
,,,,,,,,2023-08-16_08h35.45.612,HF_wild_card,2022.2.4,Win32,60.09615385,634e460a7da3fef3d5a9faf3,64d2fd46c836a06233681665,64dc7afc51587902ba779d6f,,,,,,,decisionTrl,resources/DR.BMP,resources/DG.BMP,Door3,-0.362962963,-0.037037037,1,0,0,1.193,optionLeft,70,5165,3,12,0,12,0,1,,,,,,,,,,,,,,,,,,,,,,,,,,,,,,,,,,,,,,,
,,,,,,,,2023-08-16_08h35.45.612,HF_wild_card,2022.2.4,Win32,60.09615385,634e460a7da3fef3d5a9faf3,64d2fd46c836a06233681665,64dc7afc51587902ba779d6f,,,,,,,ctch,resources/DBN.BMP,resources/DG.BMP,Door4,0.309259259,-0.009259259,1,0,0,0.931,optionRight,80,5245,3,13,0,13,0,1,,,,,,,,,,,,,,,,,,,,,,,,,,,,,,,,,,,,,,,
,,,,,,,,2023-08-16_08h35.45.612,HF_wild_card,2022.2.4,Win32,60.09615385,634e460a7da3fef3d5a9faf3,64d2fd46c836a06233681665,64dc7afc51587902ba779d6f,,,,,,,decisionTrl,resources/DG.BMP,resources/DY.BMP,Door4,-0.336111111,0.047222222,1,0,0,0.898,optionLeft,80,5325,3,14,0,14,0,1,,,,,,,,,,,,,,,,,,,,,,,,,,,,,,,,,,,,,,,
,,,,,,,,2023-08-16_08h35.45.612,HF_wild_card,2022.2.4,Win32,60.09615385,634e460a7da3fef3d5a9faf3,64d2fd46c836a06233681665,64dc7afc51587902ba779d6f,,,,,,,decisionTrl,resources/DR.BMP,resources/DG.BMP,Door4,0.451851852,-0.042592593,1,0,0,0.891,optionRight,60,5385,3,15,0,15,0,1,,,,,,,,,,,,,,,,,,,,,,,,,,,,,,,,,,,,,,,
,,,,,,,,2023-08-16_08h35.45.612,HF_wild_card,2022.2.4,Win32,60.09615385,634e460a7da3fef3d5a9faf3,64d2fd46c836a06233681665,64dc7afc51587902ba779d6f,,,,,,,decisionTrl,resources/DY.BMP,resources/DR.BMP,WildCard_NonEx,-0.180555556,-0.012962963,1,0,0,1.109,optionLeft,55,5440,3,16,0,16,0,1,,,,,,,,,,,,,,,,,,,,,,,,,,,,,,,,,,,,,,,
,,,,,,,,2023-08-16_08h35.45.612,HF_wild_card,2022.2.4,Win32,60.09615385,634e460a7da3fef3d5a9faf3,64d2fd46c836a06233681665,64dc7afc51587902ba779d6f,,,,,,,sngl,resources/Empty.png,resources/DG.BMP,Door4,0.358333333,0.022222222,1,0,0,0.81,optionRight,60,5500,3,17,0,17,0,1,,,,,,,,,,,,,,,,,,,,,,,,,,,,,,,,,,,,,,,
,,,,,,,,2023-08-16_08h35.45.612,HF_wild_card,2022.2.4,Win32,60.09615385,634e460a7da3fef3d5a9faf3,64d2fd46c836a06233681665,64dc7afc51587902ba779d6f,,,,,,,sngl,resources/Empty.png,resources/DY.BMP,WildCard_NonEx,0.337962963,-0.039814815,1,0,0,0.961,optionRight,45,5545,3,18,0,18,0,1,,,,,,,,,,,,,,,,,,,,,,,,,,,,,,,,,,,,,,,
,,,,,,,,2023-08-16_08h35.45.612,HF_wild_card,2022.2.4,Win32,60.09615385,634e460a7da3fef3d5a9faf3,64d2fd46c836a06233681665,64dc7afc51587902ba779d6f,,,,,,,decisionTrl,resources/DP.BMP,resources/DBN.BMP,Door2,-0.356481481,0.053703704,1,0,0,0.797,optionLeft,40,5585,3,19,0,19,0,1,,,,,,,,,,,,,,,,,,,,,,,,,,,,,,,,,,,,,,,
,,,,,,,,2023-08-16_08h35.45.612,HF_wild_card,2022.2.4,Win32,60.09615385,634e460a7da3fef3d5a9faf3,64d2fd46c836a06233681665,64dc7afc51587902ba779d6f,,,,,,,decisionTrl,resources/DBN.BMP,resources/DP.BMP,Door2,0.271296296,-0.007407407,1,0,0,0.846,optionRight,20,5605,3,20,0,20,0,1,,,,,,,,,,,,,,,,,,,,,,,,,,,,,,,,,,,,,,,
,,,,,,,,2023-08-16_08h35.45.612,HF_wild_card,2022.2.4,Win32,60.09615385,634e460a7da3fef3d5a9faf3,64d2fd46c836a06233681665,64dc7afc51587902ba779d6f,,,,,,,ctch,resources/DP.BMP,resources/DR.BMP,Door2,-0.359259259,0.015740741,1,0,0,0.977,optionLeft,20,5625,3,21,0,21,0,1,,,,,,,,,,,,,,,,,,,,,,,,,,,,,,,,,,,,,,,
,,,,,,,,2023-08-16_08h35.45.612,HF_wild_card,2022.2.4,Win32,60.09615385,634e460a7da3fef3d5a9faf3,64d2fd46c836a06233681665,64dc7afc51587902ba779d6f,,,,,,,sngl,resources/Empty.png,resources/DP.BMP,Door2,0.384259259,-0.031481481,1,0,0,0.963,optionRight,20,5645,3,22,0,22,0,1,,,,,,,,,,,,,,,,,,,,,,,,,,,,,,,,,,,,,,,
,,,,,,,,2023-08-16_08h35.45.612,HF_wild_card,2022.2.4,Win32,60.09615385,634e460a7da3fef3d5a9faf3,64d2fd46c836a06233681665,64dc7afc51587902ba779d6f,,,,,,,sngl,resources/Empty.png,resources/DR.BMP,Door3,0.343518519,-0.071296296,1,0,0,0.997,optionRight,70,5715,3,23,0,23,0,1,,,,,,,,,,,,,,,,,,,,,,,,,,,,,,,,,,,,,,,
,,,,,,,,2023-08-16_08h35.45.612,HF_wild_card,2022.2.4,Win32,60.09615385,634e460a7da3fef3d5a9faf3,64d2fd46c836a06233681665,64dc7afc51587902ba779d6f,,,,,,,sngl,resources/DP.BMP,resources/Empty.png,Door2,-0.265740741,-0.009259259,1,0,0,0.847,optionLeft,40,5755,3,24,0,24,0,1,,,,,,,,,,,,,,,,,,,,,,,,,,,,,,,,,,,,,,,
,,,,,,,,2023-08-16_08h35.45.612,HF_wild_card,2022.2.4,Win32,60.09615385,634e460a7da3fef3d5a9faf3,64d2fd46c836a06233681665,64dc7afc51587902ba779d6f,,,,,,,sngl,resources/DY.BMP,resources/Empty.png,WildCard_NonEx,-0.242592593,-0.010185185,1,0,0,0.925,optionLeft,55,5810,3,25,0,25,0,1,,,,,,,,,,,,,,,,,,,,,,,,,,,,,,,,,,,,,,,
,,,,,,,,2023-08-16_08h35.45.612,HF_wild_card,2022.2.4,Win32,60.09615385,634e460a7da3fef3d5a9faf3,64d2fd46c836a06233681665,64dc7afc51587902ba779d6f,,,,,,,decisionTrl,resources/DBN.BMP,resources/DY.BMP,WildCard_NonEx,0.359259259,-0.007407407,1,0,0,0.727,optionRight,55,5865,3,26,0,26,0,1,,,,,,,,,,,,,,,,,,,,,,,,,,,,,,,,,,,,,,,
,,,,,,,,2023-08-16_08h35.45.612,HF_wild_card,2022.2.4,Win32,60.09615385,634e460a7da3fef3d5a9faf3,64d2fd46c836a06233681665,64dc7afc51587902ba779d6f,,,,,,,decisionTrl,resources/DBN.BMP,resources/DP.BMP,Door1,-0.327777778,-0.026851852,1,0,0,0.96,optionLeft,30,5895,3,27,0,27,0,1,,,,,,,,,,,,,,,,,,,,,,,,,,,,,,,,,,,,,,,
,,,,,,,,2023-08-16_08h35.45.612,HF_wild_card,2022.2.4,Win32,60.09615385,634e460a7da3fef3d5a9faf3,64d2fd46c836a06233681665,64dc7afc51587902ba779d6f,,,,,,,ctch,resources/DBN.BMP,resources/DG.BMP,Door4,0.425,-0.014814815,1,0,0,0.978,optionRight,60,5955,3,28,0,28,0,1,,,,,,,,,,,,,,,,,,,,,,,,,,,,,,,,,,,,,,,
,,,,,,,,2023-08-16_08h35.45.612,HF_wild_card,2022.2.4,Win32,60.09615385,634e460a7da3fef3d5a9faf3,64d2fd46c836a06233681665,64dc7afc51587902ba779d6f,,,,,,,decisionTrl,resources/DBN.BMP,resources/DP.BMP,Door1,-0.352777778,-0.001851852,1,0,0,0.93,optionLeft,30,5985,3,29,0,29,0,1,,,,,,,,,,,,,,,,,,,,,,,,,,,,,,,,,,,,,,,
,,,,,,,,2023-08-16_08h35.45.612,HF_wild_card,2022.2.4,Win32,60.09615385,634e460a7da3fef3d5a9faf3,64d2fd46c836a06233681665,64dc7afc51587902ba779d6f,,,,,,,decisionTrl,resources/DY.BMP,resources/DP.BMP,Door2,0.42037037,-0.010185185,1,0,0,0.844,optionRight,40,6025,3,30,0,30,0,1,,,,,,,,,,,,,,,,,,,,,,,,,,,,,,,,,,,,,,,
,,,,,,,,2023-08-16_08h35.45.612,HF_wild_card,2022.2.4,Win32,60.09615385,634e460a7da3fef3d5a9faf3,64d2fd46c836a06233681665,64dc7afc51587902ba779d6f,,,,,,,decisionTrl,resources/DG.BMP,resources/DR.BMP,Door4,-0.375925926,0.041666667,1,0,0,1.146,optionLeft,80,6105,3,31,0,31,0,1,,,,,,,,,,,,,,,,,,,,,,,,,,,,,,,,,,,,,,,
,,,,,,,,2023-08-16_08h35.45.612,HF_wild_card,2022.2.4,Win32,60.09615385,634e460a7da3fef3d5a9faf3,64d2fd46c836a06233681665,64dc7afc51587902ba779d6f,,,,,,,decisionTrl,resources/DP.BMP,resources/DBN.BMP,Door2,-0.441666667,-0.021296296,1,0,0,0.895,optionLeft,40,6145,3,32,0,32,0,1,,,,,,,,,,,,,,,,,,,,,,,,,,,,,,,,,,,,,,,
,,,,,,,,2023-08-16_08h35.45.612,HF_wild_card,2022.2.4,Win32,60.09615385,634e460a7da3fef3d5a9faf3,64d2fd46c836a06233681665,64dc7afc51587902ba779d6f,,,,,,,decisionTrl,resources/DP.BMP,resources/DY.BMP,WildCard_NonEx,0.47962963,-0.035185185,1,0,0,0.881,optionRight,45,6190,3,33,0,33,0,1,,,,,,,,,,,,,,,,,,,,,,,,,,,,,,,,,,,,,,,
,,,,,,,,2023-08-16_08h35.45.612,HF_wild_card,2022.2.4,Win32,60.09615385,634e460a7da3fef3d5a9faf3,64d2fd46c836a06233681665,64dc7afc51587902ba779d6f,,,,,,,decisionTrl,resources/DG.BMP,resources/DR.BMP,Door4,-0.325925926,0.051851852,1,0,0,1.01,optionLeft,60,6250,3,34,0,34,0,1,,,,,,,,,,,,,,,,,,,,,,,,,,,,,,,,,,,,,,,
,,,,,,,,2023-08-16_08h35.45.612,HF_wild_card,2022.2.4,Win32,60.09615385,634e460a7da3fef3d5a9faf3,64d2fd46c836a06233681665,64dc7afc51587902ba779d6f,,,,,,,decisionTrl,resources/DR.BMP,resources/DG.BMP,Door4,0.277777778,-0.019444444,1,0,0,0.858,optionRight,80,6330,3,35,0,35,0,1,,,,,,,,,,,,,,,,,,,,,,,,,,,,,,,,,,,,,,,
,,,,,,,,2023-08-16_08h35.45.612,HF_wild_card,2022.2.4,Win32,60.09615385,634e460a7da3fef3d5a9faf3,64d2fd46c836a06233681665,64dc7afc51587902ba779d6f,,,,,,,decisionTrl,resources/DP.BMP,resources/DBN.BMP,Door2,-0.401851852,-0.043518519,1,0,0,1.059,optionLeft,40,6370,3,36,0,36,0,1,,,,,,,,,,,,,,,,,,,,,,,,,,,,,,,,,,,,,,,
,,,,,,,,2023-08-16_08h35.45.612,HF_wild_card,2022.2.4,Win32,60.09615385,634e460a7da3fef3d5a9faf3,64d2fd46c836a06233681665,64dc7afc51587902ba779d6f,,,,,,,decisionTrl,resources/DY.BMP,resources/DBN.BMP,WildCard_NonEx,-0.360185185,0.006481481,1,0,0,3.038,optionLeft,45,6415,3,37,0,37,0,1,,,,,,,,,,,,,,,,,,,,,,,,,,,,,,,,,,,,,,,
,,,,,,,,2023-08-16_08h35.45.612,HF_wild_card,2022.2.4,Win32,60.09615385,634e460a7da3fef3d5a9faf3,64d2fd46c836a06233681665,64dc7afc51587902ba779d6f,,,,,,,sngl,resources/DR.BMP,resources/Empty.png,Door3,-0.358333333,0.007407407,1,0,0,1.278,optionLeft,70,6485,3,38,0,38,0,1,,,,,,,,,,,,,,,,,,,,,,,,,,,,,,,,,,,,,,,
,,,,,,,,2023-08-16_08h35.45.612,HF_wild_card,2022.2.4,Win32,60.09615385,634e460a7da3fef3d5a9faf3,64d2fd46c836a06233681665,64dc7afc51587902ba779d6f,,,,,,,decisionTrl,resources/DP.BMP,resources/DBN.BMP,Door1,0.366666667,-0.013888889,1,0,0,1.061,optionRight,30,6515,3,39,0,39,0,1,,,,,,,,,,,,,,,,,,,,,,,,,,,,,,,,,,,,,,,
,,,,,,,,2023-08-16_08h35.45.612,HF_wild_card,2022.2.4,Win32,60.09615385,634e460a7da3fef3d5a9faf3,64d2fd46c836a06233681665,64dc7afc51587902ba779d6f,,,,,,,ctch,resources/DP.BMP,resources/DR.BMP,Door2,-0.419444444,0.027777778,1,0,0,2.544,optionLeft,40,6555,3,40,0,40,0,1,,,,,,,,,,,,,,,,,,,,,,,,,,,,,,,,,,,,,,,
,,,,,,,,2023-08-16_08h35.45.612,HF_wild_card,2022.2.4,Win32,60.09615385,634e460a7da3fef3d5a9faf3,64d2fd46c836a06233681665,64dc7afc51587902ba779d6f,,,,,,,ctch,resources/DG.BMP,resources/DBN.BMP,Door4,-0.306481481,-0.008333333,1,0,0,3.327,optionLeft,60,6615,3,41,0,41,0,1,,,,,,,,,,,,,,,,,,,,,,,,,,,,,,,,,,,,,,,
,,,,,,,,2023-08-16_08h35.45.612,HF_wild_card,2022.2.4,Win32,60.09615385,634e460a7da3fef3d5a9faf3,64d2fd46c836a06233681665,64dc7afc51587902ba779d6f,,,,,,,ctch,resources/DR.BMP,resources/DP.BMP,Door2,0.414814815,0.086111111,1,0,0,1.328,optionRight,40,6655,3,42,0,42,0,1,,,,,,,,,,,,,,,,,,,,,,,,,,,,,,,,,,,,,,,
,,,,,,,,2023-08-16_08h35.45.612,HF_wild_card,2022.2.4,Win32,60.09615385,634e460a7da3fef3d5a9faf3,64d2fd46c836a06233681665,64dc7afc51587902ba779d6f,,,,,,,decisionTrl,resources/DR.BMP,resources/DY.BMP,Door3,-0.207407407,-0.037962963,1,0,0,1.142,optionLeft,70,6725,3,43,0,43,0,1,,,,,,,,,,,,,,,,,,,,,,,,,,,,,,,,,,,,,,,
,,,,,,,,2023-08-16_08h35.45.612,HF_wild_card,2022.2.4,Win32,60.09615385,634e460a7da3fef3d5a9faf3,64d2fd46c836a06233681665,64dc7afc51587902ba779d6f,,,,,,,,,,,,,,,,,,,,,,,,,,2,0,2,0,1,,,,,,,,,,,,,,,,,,,,,,,,,,,,,,,,,,
,,,,,,,,2023-08-16_08h35.45.612,HF_wild_card,2022.2.4,Win32,60.09615385,634e460a7da3fef3d5a9faf3,64d2fd46c836a06233681665,64dc7afc51587902ba779d6f,,,,,,,sngl,resources/Empty.png,resources/DB.BMP,WildCard_Ex,0.190740741,-0.046296296,1,0,0,1.424,optionRight,5,6730,4,0,0,0,0,1,,,,,,,,,,,,,,,,,,,,,,,,,,,,,,,,,,,,,,,
,,,,,,,,2023-08-16_08h35.45.612,HF_wild_card,2022.2.4,Win32,60.09615385,634e460a7da3fef3d5a9faf3,64d2fd46c836a06233681665,64dc7afc51587902ba779d6f,,,,,,,decisionTrl,resources/DBN.BMP,resources/DP.BMP,Door1,-0.388888889,-0.037962963,1,0,0,0.861,optionLeft,30,6760,4,1,0,1,0,1,,,,,,,,,,,,,,,,,,,,,,,,,,,,,,,,,,,,,,,
,,,,,,,,2023-08-16_08h35.45.612,HF_wild_card,2022.2.4,Win32,60.09615385,634e460a7da3fef3d5a9faf3,64d2fd46c836a06233681665,64dc7afc51587902ba779d6f,,,,,,,decisionTrl,resources/DP.BMP,resources/DBN.BMP,Door1,0.349074074,0.00462963,1,0,0,0.827,optionRight,30,6790,4,2,0,2,0,1,,,,,,,,,,,,,,,,,,,,,,,,,,,,,,,,,,,,,,,
,,,,,,,,2023-08-16_08h35.45.612,HF_wild_card,2022.2.4,Win32,60.09615385,634e460a7da3fef3d5a9faf3,64d2fd46c836a06233681665,64dc7afc51587902ba779d6f,,,,,,,ctch,resources/DBN.BMP,resources/DG.BMP,Door1,-0.387037037,-0.047222222,1,0,0,0.879,optionLeft,30,6820,4,3,0,3,0,1,,,,,,,,,,,,,,,,,,,,,,,,,,,,,,,,,,,,,,,
,,,,,,,,2023-08-16_08h35.45.612,HF_wild_card,2022.2.4,Win32,60.09615385,634e460a7da3fef3d5a9faf3,64d2fd46c836a06233681665,64dc7afc51587902ba779d6f,,,,,,,sngl,resources/Empty.png,resources/DP.BMP,Door2,0.331481481,-0.028703704,1,0,0,0.912,optionRight,40,6860,4,4,0,4,0,1,,,,,,,,,,,,,,,,,,,,,,,,,,,,,,,,,,,,,,,
,,,,,,,,2023-08-16_08h35.45.612,HF_wild_card,2022.2.4,Win32,60.09615385,634e460a7da3fef3d5a9faf3,64d2fd46c836a06233681665,64dc7afc51587902ba779d6f,,,,,,,decisionTrl,resources/DB.BMP,resources/DR.BMP,WildCard_Ex,-0.350925926,-0.007407407,1,0,0,0.913,optionLeft,95,6955,4,5,0,5,0,1,,,,,,,,,,,,,,,,,,,,,,,,,,,,,,,,,,,,,,,
,,,,,,,,2023-08-16_08h35.45.612,HF_wild_card,2022.2.4,Win32,60.09615385,634e460a7da3fef3d5a9faf3,64d2fd46c836a06233681665,64dc7afc51587902ba779d6f,,,,,,,sngl,resources/DBN.BMP,resources/Empty.png,Door1,-0.194444444,0.014814815,1,0,0,3.743,optionLeft,30,6985,4,6,0,6,0,1,,,,,,,,,,,,,,,,,,,,,,,,,,,,,,,,,,,,,,,
,,,,,,,,2023-08-16_08h35.45.612,HF_wild_card,2022.2.4,Win32,60.09615385,634e460a7da3fef3d5a9faf3,64d2fd46c836a06233681665,64dc7afc51587902ba779d6f,,,,,,,decisionTrl,resources/DP.BMP,resources/DB.BMP,WildCard_Ex,0.347222222,-0.002777778,1,0,0,1.074,optionRight,95,7080,4,7,0,7,0,1,,,,,,,,,,,,,,,,,,,,,,,,,,,,,,,,,,,,,,,
,,,,,,,,2023-08-16_08h35.45.612,HF_wild_card,2022.2.4,Win32,60.09615385,634e460a7da3fef3d5a9faf3,64d2fd46c836a06233681665,64dc7afc51587902ba779d6f,,,,,,,sngl,resources/Empty.png,resources/DR.BMP,Door3,0.373148148,-0.016666667,1,0,0,1.676,optionRight,70,7150,4,8,0,8,0,1,,,,,,,,,,,,,,,,,,,,,,,,,,,,,,,,,,,,,,,
,,,,,,,,2023-08-16_08h35.45.612,HF_wild_card,2022.2.4,Win32,60.09615385,634e460a7da3fef3d5a9faf3,64d2fd46c836a06233681665,64dc7afc51587902ba779d6f,,,,,,,decisionTrl,resources/DP.BMP,resources/DBN.BMP,Door2,-0.358333333,-0.017592593,1,0,0,1.027,optionLeft,40,7190,4,9,0,9,0,1,,,,,,,,,,,,,,,,,,,,,,,,,,,,,,,,,,,,,,,
,,,,,,,,2023-08-16_08h35.45.612,HF_wild_card,2022.2.4,Win32,60.09615385,634e460a7da3fef3d5a9faf3,64d2fd46c836a06233681665,64dc7afc51587902ba779d6f,,,,,,,ctch,resources/DR.BMP,resources/DP.BMP,Door2,0.433333333,0.02962963,1,0,0,0.796,optionRight,20,7210,4,10,0,10,0,1,,,,,,,,,,,,,,,,,,,,,,,,,,,,,,,,,,,,,,,
,,,,,,,,2023-08-16_08h35.45.612,HF_wild_card,2022.2.4,Win32,60.09615385,634e460a7da3fef3d5a9faf3,64d2fd46c836a06233681665,64dc7afc51587902ba779d6f,,,,,,,ctch,resources/DP.BMP,resources/DR.BMP,Door2,-0.151851852,0.025925926,1,0,0,2.056,optionLeft,20,7230,4,11,0,11,0,1,,,,,,,,,,,,,,,,,,,,,,,,,,,,,,,,,,,,,,,
,,,,,,,,2023-08-16_08h35.45.612,HF_wild_card,2022.2.4,Win32,60.09615385,634e460a7da3fef3d5a9faf3,64d2fd46c836a06233681665,64dc7afc51587902ba779d6f,,,,,,,sngl,resources/DB.BMP,resources/Empty.png,WildCard_Ex,-0.346296296,0.001851852,1,0,0,0.927,optionLeft,95,7325,4,12,0,12,0,1,,,,,,,,,,,,,,,,,,,,,,,,,,,,,,,,,,,,,,,
,,,,,,,,2023-08-16_08h35.45.612,HF_wild_card,2022.2.4,Win32,60.09615385,634e460a7da3fef3d5a9faf3,64d2fd46c836a06233681665,64dc7afc51587902ba779d6f,,,,,,,decisionTrl,resources/DBN.BMP,resources/DP.BMP,Door1,-0.175925926,-0.033333333,1,0,0,3.641,optionLeft,30,7355,4,13,0,13,0,1,,,,,,,,,,,,,,,,,,,,,,,,,,,,,,,,,,,,,,,
,,,,,,,,2023-08-16_08h35.45.612,HF_wild_card,2022.2.4,Win32,60.09615385,634e460a7da3fef3d5a9faf3,64d2fd46c836a06233681665,64dc7afc51587902ba779d6f,,,,,,,decisionTrl,resources/DBN.BMP,resources/DB.BMP,WildCard_Ex,0.284259259,0.010185185,1,0,0,0.711,optionRight,95,7450,4,14,0,14,0,1,,,,,,,,,,,,,,,,,,,,,,,,,,,,,,,,,,,,,,,
,,,,,,,,2023-08-16_08h35.45.612,HF_wild_card,2022.2.4,Win32,60.09615385,634e460a7da3fef3d5a9faf3,64d2fd46c836a06233681665,64dc7afc51587902ba779d6f,,,,,,,decisionTrl,resources/DG.BMP,resources/DR.BMP,Door4,-0.268518519,-0.012037037,1,0,0,0.992,optionLeft,80,7530,4,15,0,15,0,1,,,,,,,,,,,,,,,,,,,,,,,,,,,,,,,,,,,,,,,
,,,,,,,,2023-08-16_08h35.45.612,HF_wild_card,2022.2.4,Win32,60.09615385,634e460a7da3fef3d5a9faf3,64d2fd46c836a06233681665,64dc7afc51587902ba779d6f,,,,,,,decisionTrl,resources/DB.BMP,resources/DG.BMP,Door4,0.32962963,-0.028703704,1,0,0,1.211,optionRight,60,7590,4,16,0,16,0,1,,,,,,,,,,,,,,,,,,,,,,,,,,,,,,,,,,,,,,,
,,,,,,,,2023-08-16_08h35.45.612,HF_wild_card,2022.2.4,Win32,60.09615385,634e460a7da3fef3d5a9faf3,64d2fd46c836a06233681665,64dc7afc51587902ba779d6f,,,,,,,decisionTrl,resources/DG.BMP,resources/DB.BMP,Door4,-0.365740741,0.068518519,1,0,0,2.009,optionLeft,80,7670,4,17,0,17,0,1,,,,,,,,,,,,,,,,,,,,,,,,,,,,,,,,,,,,,,,
,,,,,,,,2023-08-16_08h35.45.612,HF_wild_card,2022.2.4,Win32,60.09615385,634e460a7da3fef3d5a9faf3,64d2fd46c836a06233681665,64dc7afc51587902ba779d6f,,,,,,,ctch,resources/DG.BMP,resources/DBN.BMP,Door1,0.335185185,-0.025,1,0,0,0.943,optionRight,30,7700,4,18,0,18,0,1,,,,,,,,,,,,,,,,,,,,,,,,,,,,,,,,,,,,,,,
,,,,,,,,2023-08-16_08h35.45.612,HF_wild_card,2022.2.4,Win32,60.09615385,634e460a7da3fef3d5a9faf3,64d2fd46c836a06233681665,64dc7afc51587902ba779d6f,,,,,,,sngl,resources/DG.BMP,resources/Empty.png,Door4,-0.289814815,-0.005555556,1,0,0,0.844,optionLeft,60,7760,4,19,0,19,0,1,,,,,,,,,,,,,,,,,,,,,,,,,,,,,,,,,,,,,,,
,,,,,,,,2023-08-16_08h35.45.612,HF_wild_card,2022.2.4,Win32,60.09615385,634e460a7da3fef3d5a9faf3,64d2fd46c836a06233681665,64dc7afc51587902ba779d6f,,,,,,,sngl,resources/DB.BMP,resources/Empty.png,WildCard_Ex,-0.222222222,-0.001851852,1,0,0,0.964,optionLeft,5,7765,4,20,0,20,0,1,,,,,,,,,,,,,,,,,,,,,,,,,,,,,,,,,,,,,,,
,,,,,,,,2023-08-16_08h35.45.612,HF_wild_card,2022.2.4,Win32,60.09615385,634e460a7da3fef3d5a9faf3,64d2fd46c836a06233681665,64dc7afc51587902ba779d6f,,,,,,,decisionTrl,resources/DP.BMP,resources/DBN.BMP,Door1,0.317592593,-0.000925926,1,0,0,0.879,optionRight,30,7795,4,21,0,21,0,1,,,,,,,,,,,,,,,,,,,,,,,,,,,,,,,,,,,,,,,
,,,,,,,,2023-08-16_08h35.45.612,HF_wild_card,2022.2.4,Win32,60.09615385,634e460a7da3fef3d5a9faf3,64d2fd46c836a06233681665,64dc7afc51587902ba779d6f,,,,,,,ctch,resources/DBN.BMP,resources/DG.BMP,Door1,-0.29537037,0.075,1,0,0,0.83,optionLeft,30,7825,4,22,0,22,0,1,,,,,,,,,,,,,,,,,,,,,,,,,,,,,,,,,,,,,,,
,,,,,,,,2023-08-16_08h35.45.612,HF_wild_card,2022.2.4,Win32,60.09615385,634e460a7da3fef3d5a9faf3,64d2fd46c836a06233681665,64dc7afc51587902ba779d6f,,,,,,,sngl,resources/Empty.png,resources/DBN.BMP,Door1,0.284259259,0.012037037,1,0,0,0.83,optionRight,30,7855,4,23,0,23,0,1,,,,,,,,,,,,,,,,,,,,,,,,,,,,,,,,,,,,,,,
,,,,,,,,2023-08-16_08h35.45.612,HF_wild_card,2022.2.4,Win32,60.09615385,634e460a7da3fef3d5a9faf3,64d2fd46c836a06233681665,64dc7afc51587902ba779d6f,,,,,,,ctch,resources/DP.BMP,resources/DR.BMP,Door2,-0.366666667,0.038888889,1,0,0,1.165,optionLeft,40,7895,4,24,0,24,0,1,,,,,,,,,,,,,,,,,,,,,,,,,,,,,,,,,,,,,,,
,,,,,,,,2023-08-16_08h35.45.612,HF_wild_card,2022.2.4,Win32,60.09615385,634e460a7da3fef3d5a9faf3,64d2fd46c836a06233681665,64dc7afc51587902ba779d6f,,,,,,,decisionTrl,resources/DG.BMP,resources/DR.BMP,Door4,-0.291666667,-0.024074074,1,0,0,1.297,optionLeft,60,7955,4,25,0,25,0,1,,,,,,,,,,,,,,,,,,,,,,,,,,,,,,,,,,,,,,,
,,,,,,,,2023-08-16_08h35.45.612,HF_wild_card,2022.2.4,Win32,60.09615385,634e460a7da3fef3d5a9faf3,64d2fd46c836a06233681665,64dc7afc51587902ba779d6f,,,,,,,decisionTrl,resources/DR.BMP,resources/DG.BMP,Door3,-0.309259259,-0.005555556,1,0,0,2.825,optionLeft,70,8025,4,26,0,26,0,1,,,,,,,,,,,,,,,,,,,,,,,,,,,,,,,,,,,,,,,
,,,,,,,,2023-08-16_08h35.45.612,HF_wild_card,2022.2.4,Win32,60.09615385,634e460a7da3fef3d5a9faf3,64d2fd46c836a06233681665,64dc7afc51587902ba779d6f,,,,,,,decisionTrl,resources/DG.BMP,resources/DR.BMP,Door3,0.498148148,0.081481481,1,0,0,1.127,optionRight,70,8095,4,27,0,27,0,1,,,,,,,,,,,,,,,,,,,,,,,,,,,,,,,,,,,,,,,
,,,,,,,,2023-08-16_08h35.45.612,HF_wild_card,2022.2.4,Win32,60.09615385,634e460a7da3fef3d5a9faf3,64d2fd46c836a06233681665,64dc7afc51587902ba779d6f,,,,,,,decisionTrl,resources/DB.BMP,resources/DBN.BMP,WildCard_Ex,-0.316666667,-0.017592593,1,0,0,1.11,optionLeft,95,8190,4,28,0,28,0,1,,,,,,,,,,,,,,,,,,,,,,,,,,,,,,,,,,,,,,,
,,,,,,,,2023-08-16_08h35.45.612,HF_wild_card,2022.2.4,Win32,60.09615385,634e460a7da3fef3d5a9faf3,64d2fd46c836a06233681665,64dc7afc51587902ba779d6f,,,,,,,decisionTrl,resources/DR.BMP,resources/DG.BMP,Door4,0.256481481,0.038888889,1,0,0,1.128,optionRight,60,8250,4,29,0,29,0,1,,,,,,,,,,,,,,,,,,,,,,,,,,,,,,,,,,,,,,,
,,,,,,,,2023-08-16_08h35.45.612,HF_wild_card,2022.2.4,Win32,60.09615385,634e460a7da3fef3d5a9faf3,64d2fd46c836a06233681665,64dc7afc51587902ba779d6f,,,,,,,ctch,resources/DR.BMP,resources/DP.BMP,Door3,-0.35462963,-0.033333333,1,0,0,0.777,optionLeft,70,8320,4,30,0,30,0,1,,,,,,,,,,,,,,,,,,,,,,,,,,,,,,,,,,,,,,,
,,,,,,,,2023-08-16_08h35.45.612,HF_wild_card,2022.2.4,Win32,60.09615385,634e460a7da3fef3d5a9faf3,64d2fd46c836a06233681665,64dc7afc51587902ba779d6f,,,,,,,decisionTrl,resources/DR.BMP,resources/DG.BMP,Door3,-0.017592593,0.013888889,1,0,0,2.309,optionLeft,70,8390,4,31,0,31,0,1,,,,,,,,,,,,,,,,,,,,,,,,,,,,,,,,,,,,,,,
,,,,,,,,2023-08-16_08h35.45.612,HF_wild_card,2022.2.4,Win32,60.09615385,634e460a7da3fef3d5a9faf3,64d2fd46c836a06233681665,64dc7afc51587902ba779d6f,,,,,,,decisionTrl,resources/DG.BMP,resources/DR.BMP,Door3,0.214814815,-0.005555556,1,0,0,0.81,optionRight,70,8460,4,32,0,32,0,1,,,,,,,,,,,,,,,,,,,,,,,,,,,,,,,,,,,,,,,
,,,,,,,,2023-08-16_08h35.45.612,HF_wild_card,2022.2.4,Win32,60.09615385,634e460a7da3fef3d5a9faf3,64d2fd46c836a06233681665,64dc7afc51587902ba779d6f,,,,,,,ctch,resources/DG.BMP,resources/DBN.BMP,Door4,-0.317592593,-0.026851852,1,0,0,0.864,optionLeft,60,8520,4,33,0,33,0,1,,,,,,,,,,,,,,,,,,,,,,,,,,,,,,,,,,,,,,,
,,,,,,,,2023-08-16_08h35.45.612,HF_wild_card,2022.2.4,Win32,60.09615385,634e460a7da3fef3d5a9faf3,64d2fd46c836a06233681665,64dc7afc51587902ba779d6f,,,,,,,sngl,resources/DR.BMP,resources/Empty.png,Door3,-0.176851852,-0.030555556,1,0,0,0.944,optionLeft,70,8590,4,34,0,34,0,1,,,,,,,,,,,,,,,,,,,,,,,,,,,,,,,,,,,,,,,
,,,,,,,,2023-08-16_08h35.45.612,HF_wild_card,2022.2.4,Win32,60.09615385,634e460a7da3fef3d5a9faf3,64d2fd46c836a06233681665,64dc7afc51587902ba779d6f,,,,,,,decisionTrl,resources/DP.BMP,resources/DBN.BMP,Door1,0.275925926,-0.009259259,1,0,0,0.77,optionRight,30,8620,4,35,0,35,0,1,,,,,,,,,,,,,,,,,,,,,,,,,,,,,,,,,,,,,,,
,,,,,,,,2023-08-16_08h35.45.612,HF_wild_card,2022.2.4,Win32,60.09615385,634e460a7da3fef3d5a9faf3,64d2fd46c836a06233681665,64dc7afc51587902ba779d6f,,,,,,,sngl,resources/DP.BMP,resources/Empty.png,Door2,-0.296296296,0.000925926,1,0,0,0.744,optionLeft,20,8640,4,36,0,36,0,1,,,,,,,,,,,,,,,,,,,,,,,,,,,,,,,,,,,,,,,
,,,,,,,,2023-08-16_08h35.45.612,HF_wild_card,2022.2.4,Win32,60.09615385,634e460a7da3fef3d5a9faf3,64d2fd46c836a06233681665,64dc7afc51587902ba779d6f,,,,,,,decisionTrl,resources/DBN.BMP,resources/DP.BMP,Door2,0.252777778,0.02037037,1,0,0,0.845,optionRight,20,8660,4,37,0,37,0,1,,,,,,,,,,,,,,,,,,,,,,,,,,,,,,,,,,,,,,,
,,,,,,,,2023-08-16_08h35.45.612,HF_wild_card,2022.2.4,Win32,60.09615385,634e460a7da3fef3d5a9faf3,64d2fd46c836a06233681665,64dc7afc51587902ba779d6f,,,,,,,decisionTrl,resources/DBN.BMP,resources/DP.BMP,Door1,-0.318518519,-0.012962963,1,0,0,0.795,optionLeft,30,8690,4,38,0,38,0,1,,,,,,,,,,,,,,,,,,,,,,,,,,,,,,,,,,,,,,,
,,,,,,,,2023-08-16_08h35.45.612,HF_wild_card,2022.2.4,Win32,60.09615385,634e460a7da3fef3d5a9faf3,64d2fd46c836a06233681665,64dc7afc51587902ba779d6f,,,,,,,sngl,resources/Empty.png,resources/DB.BMP,WildCard_Ex,0.27962963,0.008333333,1,0,0,0.71,optionRight,95,8785,4,39,0,39,0,1,,,,,,,,,,,,,,,,,,,,,,,,,,,,,,,,,,,,,,,
,,,,,,,,2023-08-16_08h35.45.612,HF_wild_card,2022.2.4,Win32,60.09615385,634e460a7da3fef3d5a9faf3,64d2fd46c836a06233681665,64dc7afc51587902ba779d6f,,,,,,,decisionTrl,resources/DB.BMP,resources/DP.BMP,WildCard_Ex,-0.29537037,-0.003703704,1,0,0,0.944,optionLeft,95,8880,4,40,0,40,0,1,,,,,,,,,,,,,,,,,,,,,,,,,,,,,,,,,,,,,,,
,,,,,,,,2023-08-16_08h35.45.612,HF_wild_card,2022.2.4,Win32,60.09615385,634e460a7da3fef3d5a9faf3,64d2fd46c836a06233681665,64dc7afc51587902ba779d6f,,,,,,,decisionTrl,resources/DR.BMP,resources/DB.BMP,WildCard_Ex,0.25462963,-0.005555556,1,0,0,0.993,optionRight,95,8975,4,41,0,41,0,1,,,,,,,,,,,,,,,,,,,,,,,,,,,,,,,,,,,,,,,
,,,,,,,,2023-08-16_08h35.45.612,HF_wild_card,2022.2.4,Win32,60.09615385,634e460a7da3fef3d5a9faf3,64d2fd46c836a06233681665,64dc7afc51587902ba779d6f,,,,,,,decisionTrl,resources/DR.BMP,resources/DG.BMP,Door3,-0.284259259,-0.040740741,1,0,0,0.862,optionLeft,70,9045,4,42,0,42,0,1,,,,,,,,,,,,,,,,,,,,,,,,,,,,,,,,,,,,,,,
,,,,,,,,2023-08-16_08h35.45.612,HF_wild_card,2022.2.4,Win32,60.09615385,634e460a7da3fef3d5a9faf3,64d2fd46c836a06233681665,64dc7afc51587902ba779d6f,,,,,,,sngl,resources/Empty.png,resources/DG.BMP,Door4,0.192592593,-0.019444444,1,0,0,1.097,optionRight,80,9125,4,43,0,43,0,1,,,,,,,,,,,,,,,,,,,,,,,,,,,,,,,,,,,,,,,
,,,,,,,,2023-08-16_08h35.45.612,HF_wild_card,2022.2.4,Win32,60.09615385,634e460a7da3fef3d5a9faf3,64d2fd46c836a06233681665,64dc7afc51587902ba779d6f,,,,,,,,,,,,,,,,,,,,,,,,,,3,0,3,0,1,,,,,,,,,,,,,,,,,,,,,,,,,,,,,,,,,,
,,,,,,,,2023-08-16_08h35.45.612,HF_wild_card,2022.2.4,Win32,60.09615385,634e460a7da3fef3d5a9faf3,64d2fd46c836a06233681665,64dc7afc51587902ba779d6f,,,,,,,decisionTrl,resources/DG.BMP,resources/DR.BMP,Door4,-0.343518519,-0.012037037,1,0,0,1.107,optionLeft,80,9205,5,0,0,0,0,1,,,,,,,,,,,,,,,,,,,,,,,,,,,,,,,,,,,,,,,
,,,,,,,,2023-08-16_08h35.45.612,HF_wild_card,2022.2.4,Win32,60.09615385,634e460a7da3fef3d5a9faf3,64d2fd46c836a06233681665,64dc7afc51587902ba779d6f,,,,,,,decisionTrl,resources/DG.BMP,resources/DR.BMP,Door4,-0.271296296,0.036111111,1,0,0,1.11,optionLeft,60,9265,5,1,0,1,0,1,,,,,,,,,,,,,,,,,,,,,,,,,,,,,,,,,,,,,,,
,,,,,,,,2023-08-16_08h35.45.612,HF_wild_card,2022.2.4,Win32,60.09615385,634e460a7da3fef3d5a9faf3,64d2fd46c836a06233681665,64dc7afc51587902ba779d6f,,,,,,,ctch,resources/DBN.BMP,resources/DG.BMP,Door1,-0.291666667,-0.030555556,1,0,0,1.01,optionLeft,30,9295,5,2,0,2,0,1,,,,,,,,,,,,,,,,,,,,,,,,,,,,,,,,,,,,,,,
,,,,,,,,2023-08-16_08h35.45.612,HF_wild_card,2022.2.4,Win32,60.09615385,634e460a7da3fef3d5a9faf3,64d2fd46c836a06233681665,64dc7afc51587902ba779d6f,,,,,,,decisionTrl,resources/DB.BMP,resources/DBN.BMP,WildCard_Ex,-0.147222222,-0.008333333,1,0,0,4.924,optionLeft,5,9300,5,3,0,3,0,1,,,,,,,,,,,,,,,,,,,,,,,,,,,,,,,,,,,,,,,
,,,,,,,,2023-08-16_08h35.45.612,HF_wild_card,2022.2.4,Win32,60.09615385,634e460a7da3fef3d5a9faf3,64d2fd46c836a06233681665,64dc7afc51587902ba779d6f,,,,,,,sngl,resources/DB.BMP,resources/Empty.png,WildCard_Ex,-0.241666667,-0.039814815,1,0,0,0.977,optionLeft,5,9305,5,4,0,4,0,1,,,,,,,,,,,,,,,,,,,,,,,,,,,,,,,,,,,,,,,
,,,,,,,,2023-08-16_08h35.45.612,HF_wild_card,2022.2.4,Win32,60.09615385,634e460a7da3fef3d5a9faf3,64d2fd46c836a06233681665,64dc7afc51587902ba779d6f,,,,,,,decisionTrl,resources/DB.BMP,resources/DP.BMP,Door2,0.287962963,0.027777778,1,0,0,0.776,optionRight,40,9345,5,5,0,5,0,1,,,,,,,,,,,,,,,,,,,,,,,,,,,,,,,,,,,,,,,
,,,,,,,,2023-08-16_08h35.45.612,HF_wild_card,2022.2.4,Win32,60.09615385,634e460a7da3fef3d5a9faf3,64d2fd46c836a06233681665,64dc7afc51587902ba779d6f,,,,,,,sngl,resources/DP.BMP,resources/Empty.png,Door2,-0.330555556,-0.009259259,1,0,0,0.845,optionLeft,40,9385,5,6,0,6,0,1,,,,,,,,,,,,,,,,,,,,,,,,,,,,,,,,,,,,,,,
,,,,,,,,2023-08-16_08h35.45.612,HF_wild_card,2022.2.4,Win32,60.09615385,634e460a7da3fef3d5a9faf3,64d2fd46c836a06233681665,64dc7afc51587902ba779d6f,,,,,,,ctch,resources/DG.BMP,resources/DBN.BMP,Door1,0.323148148,-0.062962963,1,0,0,0.845,optionRight,30,9415,5,7,0,7,0,1,,,,,,,,,,,,,,,,,,,,,,,,,,,,,,,,,,,,,,,
,,,,,,,,2023-08-16_08h35.45.612,HF_wild_card,2022.2.4,Win32,60.09615385,634e460a7da3fef3d5a9faf3,64d2fd46c836a06233681665,64dc7afc51587902ba779d6f,,,,,,,decisionTrl,resources/DBN.BMP,resources/DP.BMP,Door1,-0.22962963,0.010185185,1,0,0,0.743,optionLeft,30,9445,5,8,0,8,0,1,,,,,,,,,,,,,,,,,,,,,,,,,,,,,,,,,,,,,,,
,,,,,,,,2023-08-16_08h35.45.612,HF_wild_card,2022.2.4,Win32,60.09615385,634e460a7da3fef3d5a9faf3,64d2fd46c836a06233681665,64dc7afc51587902ba779d6f,,,,,,,sngl,resources/Empty.png,resources/DBN.BMP,Door1,0.284259259,-0.028703704,1,0,0,0.744,optionRight,30,9475,5,9,0,9,0,1,,,,,,,,,,,,,,,,,,,,,,,,,,,,,,,,,,,,,,,
,,,,,,,,2023-08-16_08h35.45.612,HF_wild_card,2022.2.4,Win32,60.09615385,634e460a7da3fef3d5a9faf3,64d2fd46c836a06233681665,64dc7afc51587902ba779d6f,,,,,,,decisionTrl,resources/DP.BMP,resources/DBN.BMP,Door2,-0.287962963,-0.00462963,1,0,0,0.83,optionLeft,40,9515,5,10,0,10,0,1,,,,,,,,,,,,,,,,,,,,,,,,,,,,,,,,,,,,,,,
,,,,,,,,2023-08-16_08h35.45.612,HF_wild_card,2022.2.4,Win32,60.09615385,634e460a7da3fef3d5a9faf3,64d2fd46c836a06233681665,64dc7afc51587902ba779d6f,,,,,,,decisionTrl,resources/DP.BMP,resources/DBN.BMP,Door1,0.416666667,-0.074074074,1,0,0,1.079,optionRight,30,9545,5,11,0,11,0,1,,,,,,,,,,,,,,,,,,,,,,,,,,,,,,,,,,,,,,,
,,,,,,,,2023-08-16_08h35.45.612,HF_wild_card,2022.2.4,Win32,60.09615385,634e460a7da3fef3d5a9faf3,64d2fd46c836a06233681665,64dc7afc51587902ba779d6f,,,,,,,sngl,resources/Empty.png,resources/DG.BMP,Door4,0.342592593,-0.1,1,0,0,1.265,optionRight,60,9605,5,12,0,12,0,1,,,,,,,,,,,,,,,,,,,,,,,,,,,,,,,,,,,,,,,
,,,,,,,,2023-08-16_08h35.45.612,HF_wild_card,2022.2.4,Win32,60.09615385,634e460a7da3fef3d5a9faf3,64d2fd46c836a06233681665,64dc7afc51587902ba779d6f,,,,,,,ctch,resources/DP.BMP,resources/DR.BMP,Door2,-0.299074074,-0.037037037,1,0,0,0.894,optionLeft,40,9645,5,13,0,13,0,1,,,,,,,,,,,,,,,,,,,,,,,,,,,,,,,,,,,,,,,
,,,,,,,,2023-08-16_08h35.45.612,HF_wild_card,2022.2.4,Win32,60.09615385,634e460a7da3fef3d5a9faf3,64d2fd46c836a06233681665,64dc7afc51587902ba779d6f,,,,,,,sngl,resources/DG.BMP,resources/Empty.png,Door4,-0.27037037,-0.009259259,1,0,0,0.863,optionLeft,80,9725,5,14,0,14,0,1,,,,,,,,,,,,,,,,,,,,,,,,,,,,,,,,,,,,,,,
,,,,,,,,2023-08-16_08h35.45.612,HF_wild_card,2022.2.4,Win32,60.09615385,634e460a7da3fef3d5a9faf3,64d2fd46c836a06233681665,64dc7afc51587902ba779d6f,,,,,,,decisionTrl,resources/DB.BMP,resources/DR.BMP,Door3,0.347222222,0.028703704,1,0,0,0.928,optionRight,70,9795,5,15,0,15,0,1,,,,,,,,,,,,,,,,,,,,,,,,,,,,,,,,,,,,,,,
,,,,,,,,2023-08-16_08h35.45.612,HF_wild_card,2022.2.4,Win32,60.09615385,634e460a7da3fef3d5a9faf3,64d2fd46c836a06233681665,64dc7afc51587902ba779d6f,,,,,,,decisionTrl,resources/DG.BMP,resources/DR.BMP,Door4,-0.20462963,-0.017592593,1,0,0,0.831,optionLeft,80,9875,5,16,0,16,0,1,,,,,,,,,,,,,,,,,,,,,,,,,,,,,,,,,,,,,,,
,,,,,,,,2023-08-16_08h35.45.612,HF_wild_card,2022.2.4,Win32,60.09615385,634e460a7da3fef3d5a9faf3,64d2fd46c836a06233681665,64dc7afc51587902ba779d6f,,,,,,,decisionTrl,resources/DP.BMP,resources/DB.BMP,WildCard_Ex,0.269444444,0.005555556,1,0,0,0.888,optionRight,5,9880,5,17,0,17,0,1,,,,,,,,,,,,,,,,,,,,,,,,,,,,,,,,,,,,,,,
,,,,,,,,2023-08-16_08h35.45.612,HF_wild_card,2022.2.4,Win32,60.09615385,634e460a7da3fef3d5a9faf3,64d2fd46c836a06233681665,64dc7afc51587902ba779d6f,,,,,,,decisionTrl,resources/DB.BMP,resources/DG.BMP,WildCard_Ex,-0.373148148,0.011111111,1,0,0,0.876,optionLeft,5,9885,5,18,0,18,0,1,,,,,,,,,,,,,,,,,,,,,,,,,,,,,,,,,,,,,,,
,,,,,,,,2023-08-16_08h35.45.612,HF_wild_card,2022.2.4,Win32,60.09615385,634e460a7da3fef3d5a9faf3,64d2fd46c836a06233681665,64dc7afc51587902ba779d6f,,,,,,,decisionTrl,resources/DG.BMP,resources/DB.BMP,WildCard_Ex,0.294444444,-0.023148148,1,0,0,0.727,optionRight,5,9890,5,19,0,19,0,1,,,,,,,,,,,,,,,,,,,,,,,,,,,,,,,,,,,,,,,
,,,,,,,,2023-08-16_08h35.45.612,HF_wild_card,2022.2.4,Win32,60.09615385,634e460a7da3fef3d5a9faf3,64d2fd46c836a06233681665,64dc7afc51587902ba779d6f,,,,,,,sngl,resources/DBN.BMP,resources/Empty.png,Door1,-0.208333333,-0.002777778,1,0,0,0.861,optionLeft,30,9920,5,20,0,20,0,1,,,,,,,,,,,,,,,,,,,,,,,,,,,,,,,,,,,,,,,
,,,,,,,,2023-08-16_08h35.45.612,HF_wild_card,2022.2.4,Win32,60.09615385,634e460a7da3fef3d5a9faf3,64d2fd46c836a06233681665,64dc7afc51587902ba779d6f,,,,,,,decisionTrl,resources/DR.BMP,resources/DG.BMP,Door3,-0.32037037,0.001851852,1,0,0,1.827,optionLeft,70,9990,5,21,0,21,0,1,,,,,,,,,,,,,,,,,,,,,,,,,,,,,,,,,,,,,,,
,,,,,,,,2023-08-16_08h35.45.612,HF_wild_card,2022.2.4,Win32,60.09615385,634e460a7da3fef3d5a9faf3,64d2fd46c836a06233681665,64dc7afc51587902ba779d6f,,,,,,,sngl,resources/Empty.png,resources/DP.BMP,Door2,0.284259259,-0.002777778,1,0,0,0.78,optionRight,20,10010,5,22,0,22,0,1,,,,,,,,,,,,,,,,,,,,,,,,,,,,,,,,,,,,,,,
,,,,,,,,2023-08-16_08h35.45.612,HF_wild_card,2022.2.4,Win32,60.09615385,634e460a7da3fef3d5a9faf3,64d2fd46c836a06233681665,64dc7afc51587902ba779d6f,,,,,,,decisionTrl,resources/DP.BMP,resources/DBN.BMP,Door2,-0.271296296,-0.011111111,1,0,0,0.76,optionLeft,40,10050,5,23,0,23,0,1,,,,,,,,,,,,,,,,,,,,,,,,,,,,,,,,,,,,,,,
,,,,,,,,2023-08-16_08h35.45.612,HF_wild_card,2022.2.4,Win32,60.09615385,634e460a7da3fef3d5a9faf3,64d2fd46c836a06233681665,64dc7afc51587902ba779d6f,,,,,,,decisionTrl,resources/DG.BMP,resources/DR.BMP,Door3,0.237037037,-0.033333333,1,0,0,0.843,optionRight,70,10120,5,24,0,24,0,1,,,,,,,,,,,,,,,,,,,,,,,,,,,,,,,,,,,,,,,
,,,,,,,,2023-08-16_08h35.45.612,HF_wild_card,2022.2.4,Win32,60.09615385,634e460a7da3fef3d5a9faf3,64d2fd46c836a06233681665,64dc7afc51587902ba779d6f,,,,,,,decisionTrl,resources/DR.BMP,resources/DG.BMP,Door3,-0.307407407,-0.093518519,1,0,0,0.943,optionLeft,70,10190,5,25,0,25,0,1,,,,,,,,,,,,,,,,,,,,,,,,,,,,,,,,,,,,,,,
,,,,,,,,2023-08-16_08h35.45.612,HF_wild_card,2022.2.4,Win32,60.09615385,634e460a7da3fef3d5a9faf3,64d2fd46c836a06233681665,64dc7afc51587902ba779d6f,,,,,,,sngl,resources/Empty.png,resources/DB.BMP,WildCard_Ex,0.361111111,-0.012962963,1,0,0,0.964,optionRight,95,10285,5,26,0,26,0,1,,,,,,,,,,,,,,,,,,,,,,,,,,,,,,,,,,,,,,,
,,,,,,,,2023-08-16_08h35.45.612,HF_wild_card,2022.2.4,Win32,60.09615385,634e460a7da3fef3d5a9faf3,64d2fd46c836a06233681665,64dc7afc51587902ba779d6f,,,,,,,ctch,resources/DG.BMP,resources/DBN.BMP,Door4,-0.263888889,-0.02037037,1,0,0,0.941,optionLeft,60,10345,5,27,0,27,0,1,,,,,,,,,,,,,,,,,,,,,,,,,,,,,,,,,,,,,,,
,,,,,,,,2023-08-16_08h35.45.612,HF_wild_card,2022.2.4,Win32,60.09615385,634e460a7da3fef3d5a9faf3,64d2fd46c836a06233681665,64dc7afc51587902ba779d6f,,,,,,,decisionTrl,resources/DR.BMP,resources/DG.BMP,Door4,0.319444444,-0.00462963,1,0,0,0.739,optionRight,80,10425,5,28,0,28,0,1,,,,,,,,,,,,,,,,,,,,,,,,,,,,,,,,,,,,,,,
,,,,,,,,2023-08-16_08h35.45.612,HF_wild_card,2022.2.4,Win32,60.09615385,634e460a7da3fef3d5a9faf3,64d2fd46c836a06233681665,64dc7afc51587902ba779d6f,,,,,,,ctch,resources/DR.BMP,resources/DP.BMP,Door3,-0.213888889,-0.046296296,1,0,0,0.81,optionLeft,70,10495,5,29,0,29,0,1,,,,,,,,,,,,,,,,,,,,,,,,,,,,,,,,,,,,,,,
,,,,,,,,2023-08-16_08h35.45.612,HF_wild_card,2022.2.4,Win32,60.09615385,634e460a7da3fef3d5a9faf3,64d2fd46c836a06233681665,64dc7afc51587902ba779d6f,,,,,,,ctch,resources/DR.BMP,resources/DP.BMP,Door2,0.212962963,-0.037962963,1,0,0,1.161,optionRight,40,10535,5,30,0,30,0,1,,,,,,,,,,,,,,,,,,,,,,,,,,,,,,,,,,,,,,,
,,,,,,,,2023-08-16_08h35.45.612,HF_wild_card,2022.2.4,Win32,60.09615385,634e460a7da3fef3d5a9faf3,64d2fd46c836a06233681665,64dc7afc51587902ba779d6f,,,,,,,ctch,resources/DBN.BMP,resources/DG.BMP,Door1,-0.355555556,0.017592593,1,0,0,0.745,optionLeft,30,10565,5,31,0,31,0,1,,,,,,,,,,,,,,,,,,,,,,,,,,,,,,,,,,,,,,,
,,,,,,,,2023-08-16_08h35.45.612,HF_wild_card,2022.2.4,Win32,60.09615385,634e460a7da3fef3d5a9faf3,64d2fd46c836a06233681665,64dc7afc51587902ba779d6f,,,,,,,decisionTrl,resources/DR.BMP,resources/DB.BMP,WildCard_Ex,0.285185185,-0.025,1,0,0,0.846,optionRight,95,10660,5,32,0,32,0,1,,,,,,,,,,,,,,,,,,,,,,,,,,,,,,,,,,,,,,,
,,,,,,,,2023-08-16_08h35.45.612,HF_wild_card,2022.2.4,Win32,60.09615385,634e460a7da3fef3d5a9faf3,64d2fd46c836a06233681665,64dc7afc51587902ba779d6f,,,,,,,decisionTrl,resources/DBN.BMP,resources/DP.BMP,Door2,0.271296296,-0.057407407,1,0,0,0.73,optionRight,40,10700,5,33,0,33,0,1,,,,,,,,,,,,,,,,,,,,,,,,,,,,,,,,,,,,,,,
,,,,,,,,2023-08-16_08h35.45.612,HF_wild_card,2022.2.4,Win32,60.09615385,634e460a7da3fef3d5a9faf3,64d2fd46c836a06233681665,64dc7afc51587902ba779d6f,,,,,,,sngl,resources/Empty.png,resources/DR.BMP,Door3,0.161111111,-0.011111111,1,0,0,1.744,optionRight,70,10770,5,34,0,34,0,1,,,,,,,,,,,,,,,,,,,,,,,,,,,,,,,,,,,,,,,
,,,,,,,,2023-08-16_08h35.45.612,HF_wild_card,2022.2.4,Win32,60.09615385,634e460a7da3fef3d5a9faf3,64d2fd46c836a06233681665,64dc7afc51587902ba779d6f,,,,,,,decisionTrl,resources/DBN.BMP,resources/DP.BMP,Door1,-0.335185185,-0.037037037,1,0,0,0.763,optionLeft,30,10800,5,35,0,35,0,1,,,,,,,,,,,,,,,,,,,,,,,,,,,,,,,,,,,,,,,
,,,,,,,,2023-08-16_08h35.45.612,HF_wild_card,2022.2.4,Win32,60.09615385,634e460a7da3fef3d5a9faf3,64d2fd46c836a06233681665,64dc7afc51587902ba779d6f,,,,,,,decisionTrl,resources/DP.BMP,resources/DBN.BMP,Door1,0.253703704,-0.048148148,1,0,0,0.761,optionRight,30,10830,5,36,0,36,0,1,,,,,,,,,,,,,,,,,,,,,,,,,,,,,,,,,,,,,,,
,,,,,,,,2023-08-16_08h35.45.612,HF_wild_card,2022.2.4,Win32,60.09615385,634e460a7da3fef3d5a9faf3,64d2fd46c836a06233681665,64dc7afc51587902ba779d6f,,,,,,,sngl,resources/DR.BMP,resources/Empty.png,Door3,-0.282407407,-0.041666667,1,0,0,0.875,optionLeft,70,10900,5,37,0,37,0,1,,,,,,,,,,,,,,,,,,,,,,,,,,,,,,,,,,,,,,,
,,,,,,,,2023-08-16_08h35.45.612,HF_wild_card,2022.2.4,Win32,60.09615385,634e460a7da3fef3d5a9faf3,64d2fd46c836a06233681665,64dc7afc51587902ba779d6f,,,,,,,decisionTrl,resources/DR.BMP,resources/DG.BMP,Door3,-0.318518519,-0.046296296,1,0,0,0.844,optionLeft,70,10970,5,38,0,38,0,1,,,,,,,,,,,,,,,,,,,,,,,,,,,,,,,,,,,,,,,
,,,,,,,,2023-08-16_08h35.45.612,HF_wild_card,2022.2.4,Win32,60.09615385,634e460a7da3fef3d5a9faf3,64d2fd46c836a06233681665,64dc7afc51587902ba779d6f,,,,,,,decisionTrl,resources/DBN.BMP,resources/DP.BMP,Door2,0.212037037,0.002777778,1,0,0,1.226,optionRight,20,10990,5,39,0,39,0,1,,,,,,,,,,,,,,,,,,,,,,,,,,,,,,,,,,,,,,,
,,,,,,,,2023-08-16_08h35.45.612,HF_wild_card,2022.2.4,Win32,60.09615385,634e460a7da3fef3d5a9faf3,64d2fd46c836a06233681665,64dc7afc51587902ba779d6f,,,,,,,decisionTrl,resources/DBN.BMP,resources/DB.BMP,Door1,-0.310185185,-0.010185185,1,0,0,0.777,optionLeft,30,11020,5,40,0,40,0,1,,,,,,,,,,,,,,,,,,,,,,,,,,,,,,,,,,,,,,,
,,,,,,,,2023-08-16_08h35.45.612,HF_wild_card,2022.2.4,Win32,60.09615385,634e460a7da3fef3d5a9faf3,64d2fd46c836a06233681665,64dc7afc51587902ba779d6f,,,,,,,ctch,resources/DP.BMP,resources/DR.BMP,Door3,0.193518519,0.025925926,1,0,0,0.758,optionRight,70,11090,5,41,0,41,0,1,,,,,,,,,,,,,,,,,,,,,,,,,,,,,,,,,,,,,,,
,,,,,,,,2023-08-16_08h35.45.612,HF_wild_card,2022.2.4,Win32,60.09615385,634e460a7da3fef3d5a9faf3,64d2fd46c836a06233681665,64dc7afc51587902ba779d6f,,,,,,,sngl,resources/Empty.png,resources/DB.BMP,WildCard_Ex,0.263888889,0.001851852,1,0,0,1.296,optionRight,5,11095,5,42,0,42,0,1,,,,,,,,,,,,,,,,,,,,,,,,,,,,,,,,,,,,,,,
,,,,,,,,2023-08-16_08h35.45.612,HF_wild_card,2022.2.4,Win32,60.09615385,634e460a7da3fef3d5a9faf3,64d2fd46c836a06233681665,64dc7afc51587902ba779d6f,,,,,,,sngl,resources/DB.BMP,resources/Empty.png,WildCard_Ex,-0.224074074,-0.019444444,1,0,0,1.646,optionLeft,95,11190,5,43,0,43,0,1,,,,,,,,,,,,,,,,,,,,,,,,,,,,,,,,,,,,,,,
,,,,,,,,2023-08-16_08h35.45.612,HF_wild_card,2022.2.4,Win32,60.09615385,634e460a7da3fef3d5a9faf3,64d2fd46c836a06233681665,64dc7afc51587902ba779d6f,,,,,,,,,,,,,,,,,,,,,,,,,,4,0,4,0,1,,,,,,,,,,,,,,,,,,,,,,,,,,,,,,,,,,
,,,,,,,,2023-08-16_08h35.45.612,HF_wild_card,2022.2.4,Win32,60.09615385,634e460a7da3fef3d5a9faf3,64d2fd46c836a06233681665,64dc7afc51587902ba779d6f,,,,,,,decisionTrl,resources/DBN.BMP,resources/DP.BMP,Door2,0.280555556,-0.025,1,0,0,1.873,optionRight,20,11210,6,0,0,0,0,1,,,,,,,,,,,,,,,,,,,,,,,,,,,,,,,,,,,,,,,
,,,,,,,,2023-08-16_08h35.45.612,HF_wild_card,2022.2.4,Win32,60.09615385,634e460a7da3fef3d5a9faf3,64d2fd46c836a06233681665,64dc7afc51587902ba779d6f,,,,,,,sngl,resources/DR.BMP,resources/Empty.png,Door3,-0.32962963,-0.023148148,1,0,0,0.91,optionLeft,70,11280,6,1,0,1,0,1,,,,,,,,,,,,,,,,,,,,,,,,,,,,,,,,,,,,,,,
,,,,,,,,2023-08-16_08h35.45.612,HF_wild_card,2022.2.4,Win32,60.09615385,634e460a7da3fef3d5a9faf3,64d2fd46c836a06233681665,64dc7afc51587902ba779d6f,,,,,,,decisionTrl,resources/DB.BMP,resources/DP.BMP,Door2,0.252777778,0.005555556,1,0,0,0.691,optionRight,20,11300,6,2,0,2,0,1,,,,,,,,,,,,,,,,,,,,,,,,,,,,,,,,,,,,,,,
,,,,,,,,2023-08-16_08h35.45.612,HF_wild_card,2022.2.4,Win32,60.09615385,634e460a7da3fef3d5a9faf3,64d2fd46c836a06233681665,64dc7afc51587902ba779d6f,,,,,,,decisionTrl,resources/DR.BMP,resources/DG.BMP,Door3,-0.337962963,0.003703704,1,0,0,0.772,optionLeft,70,11370,6,3,0,3,0,1,,,,,,,,,,,,,,,,,,,,,,,,,,,,,,,,,,,,,,,
,,,,,,,,2023-08-16_08h35.45.612,HF_wild_card,2022.2.4,Win32,60.09615385,634e460a7da3fef3d5a9faf3,64d2fd46c836a06233681665,64dc7afc51587902ba779d6f,,,,,,,decisionTrl,resources/DBN.BMP,resources/DP.BMP,Door2,0.352777778,-0.025,1,0,0,0.727,optionRight,40,11410,6,4,0,4,0,1,,,,,,,,,,,,,,,,,,,,,,,,,,,,,,,,,,,,,,,
,,,,,,,,2023-08-16_08h35.45.612,HF_wild_card,2022.2.4,Win32,60.09615385,634e460a7da3fef3d5a9faf3,64d2fd46c836a06233681665,64dc7afc51587902ba779d6f,,,,,,,sngl,resources/DB.BMP,resources/Empty.png,WildCard_Ex,-0.241666667,-0.016666667,1,0,0,0.811,optionLeft,95,11505,6,5,0,5,0,1,,,,,,,,,,,,,,,,,,,,,,,,,,,,,,,,,,,,,,,
,,,,,,,,2023-08-16_08h35.45.612,HF_wild_card,2022.2.4,Win32,60.09615385,634e460a7da3fef3d5a9faf3,64d2fd46c836a06233681665,64dc7afc51587902ba779d6f,,,,,,,ctch,resources/DP.BMP,resources/DR.BMP,Door3,0.330555556,0.000925926,1,0,0,0.744,optionRight,70,11575,6,6,0,6,0,1,,,,,,,,,,,,,,,,,,,,,,,,,,,,,,,,,,,,,,,
,,,,,,,,2023-08-16_08h35.45.612,HF_wild_card,2022.2.4,Win32,60.09615385,634e460a7da3fef3d5a9faf3,64d2fd46c836a06233681665,64dc7afc51587902ba779d6f,,,,,,,decisionTrl,resources/DBN.BMP,resources/DP.BMP,Door1,-0.310185185,-0.019444444,1,0,0,0.795,optionLeft,30,11605,6,7,0,7,0,1,,,,,,,,,,,,,,,,,,,,,,,,,,,,,,,,,,,,,,,
,,,,,,,,2023-08-16_08h35.45.612,HF_wild_card,2022.2.4,Win32,60.09615385,634e460a7da3fef3d5a9faf3,64d2fd46c836a06233681665,64dc7afc51587902ba779d6f,,,,,,,sngl,resources/DB.BMP,resources/Empty.png,WildCard_Ex,-0.210185185,-0.024074074,1,0,0,0.928,optionLeft,5,11610,6,8,0,8,0,1,,,,,,,,,,,,,,,,,,,,,,,,,,,,,,,,,,,,,,,
,,,,,,,,2023-08-16_08h35.45.612,HF_wild_card,2022.2.4,Win32,60.09615385,634e460a7da3fef3d5a9faf3,64d2fd46c836a06233681665,64dc7afc51587902ba779d6f,,,,,,,sngl,resources/DP.BMP,resources/Empty.png,Door2,-0.225925926,-0.012037037,1,0,0,0.945,optionLeft,20,11630,6,9,0,9,0,1,,,,,,,,,,,,,,,,,,,,,,,,,,,,,,,,,,,,,,,
,,,,,,,,2023-08-16_08h35.45.612,HF_wild_card,2022.2.4,Win32,60.09615385,634e460a7da3fef3d5a9faf3,64d2fd46c836a06233681665,64dc7afc51587902ba779d6f,,,,,,,ctch,resources/DBN.BMP,resources/DG.BMP,Door4,0.211111111,-0.013888889,1,0,0,0.897,optionRight,60,11690,6,10,0,10,0,1,,,,,,,,,,,,,,,,,,,,,,,,,,,,,,,,,,,,,,,
,,,,,,,,2023-08-16_08h35.45.612,HF_wild_card,2022.2.4,Win32,60.09615385,634e460a7da3fef3d5a9faf3,64d2fd46c836a06233681665,64dc7afc51587902ba779d6f,,,,,,,ctch,resources/DR.BMP,resources/DP.BMP,Door3,-0.25462963,-0.012962963,1,0,0,1.011,optionLeft,70,11760,6,11,0,11,0,1,,,,,,,,,,,,,,,,,,,,,,,,,,,,,,,,,,,,,,,
,,,,,,,,2023-08-16_08h35.45.612,HF_wild_card,2022.2.4,Win32,60.09615385,634e460a7da3fef3d5a9faf3,64d2fd46c836a06233681665,64dc7afc51587902ba779d6f,,,,,,,sngl,resources/DBN.BMP,resources/Empty.png,Door1,-0.337037037,-0.015740741,1,0,0,0.83,optionLeft,30,11790,6,12,0,12,0,1,,,,,,,,,,,,,,,,,,,,,,,,,,,,,,,,,,,,,,,
,,,,,,,,2023-08-16_08h35.45.612,HF_wild_card,2022.2.4,Win32,60.09615385,634e460a7da3fef3d5a9faf3,64d2fd46c836a06233681665,64dc7afc51587902ba779d6f,,,,,,,decisionTrl,resources/DB.BMP,resources/DBN.BMP,Door1,0.253703704,-0.027777778,1,0,0,0.713,optionRight,30,11820,6,13,0,13,0,1,,,,,,,,,,,,,,,,,,,,,,,,,,,,,,,,,,,,,,,
,,,,,,,,2023-08-16_08h35.45.612,HF_wild_card,2022.2.4,Win32,60.09615385,634e460a7da3fef3d5a9faf3,64d2fd46c836a06233681665,64dc7afc51587902ba779d6f,,,,,,,decisionTrl,resources/DP.BMP,resources/DB.BMP,Door2,-0.346296296,-0.046296296,1,0,0,0.84,optionLeft,20,11840,6,14,0,14,0,1,,,,,,,,,,,,,,,,,,,,,,,,,,,,,,,,,,,,,,,
,,,,,,,,2023-08-16_08h35.45.612,HF_wild_card,2022.2.4,Win32,60.09615385,634e460a7da3fef3d5a9faf3,64d2fd46c836a06233681665,64dc7afc51587902ba779d6f,,,,,,,decisionTrl,resources/DBN.BMP,resources/DP.BMP,Door2,0.327777778,0.009259259,1,0,0,0.793,optionRight,40,11880,6,15,0,15,0,1,,,,,,,,,,,,,,,,,,,,,,,,,,,,,,,,,,,,,,,
,,,,,,,,2023-08-16_08h35.45.612,HF_wild_card,2022.2.4,Win32,60.09615385,634e460a7da3fef3d5a9faf3,64d2fd46c836a06233681665,64dc7afc51587902ba779d6f,,,,,,,sngl,resources/Empty.png,resources/DB.BMP,WildCard_Ex,0.424074074,0.023148148,1,0,0,1.01,optionRight,5,11885,6,16,0,16,0,1,,,,,,,,,,,,,,,,,,,,,,,,,,,,,,,,,,,,,,,
,,,,,,,,2023-08-16_08h35.45.612,HF_wild_card,2022.2.4,Win32,60.09615385,634e460a7da3fef3d5a9faf3,64d2fd46c836a06233681665,64dc7afc51587902ba779d6f,,,,,,,decisionTrl,resources/DB.BMP,resources/DG.BMP,WildCard_Ex,-0.289814815,-0.02962963,1,0,0,0.76,optionLeft,5,11890,6,17,0,17,0,1,,,,,,,,,,,,,,,,,,,,,,,,,,,,,,,,,,,,,,,
,,,,,,,,2023-08-16_08h35.45.612,HF_wild_card,2022.2.4,Win32,60.09615385,634e460a7da3fef3d5a9faf3,64d2fd46c836a06233681665,64dc7afc51587902ba779d6f,,,,,,,decisionTrl,resources/DP.BMP,resources/DBN.BMP,Door2,-0.256481481,0.006481481,1,0,0,0.845,optionLeft,40,11930,6,18,0,18,0,1,,,,,,,,,,,,,,,,,,,,,,,,,,,,,,,,,,,,,,,
,,,,,,,,2023-08-16_08h35.45.612,HF_wild_card,2022.2.4,Win32,60.09615385,634e460a7da3fef3d5a9faf3,64d2fd46c836a06233681665,64dc7afc51587902ba779d6f,,,,,,,decisionTrl,resources/DP.BMP,resources/DBN.BMP,Door2,-0.19537037,-0.040740741,1,0,0,0.848,optionLeft,40,11970,6,19,0,19,0,1,,,,,,,,,,,,,,,,,,,,,,,,,,,,,,,,,,,,,,,
,,,,,,,,2023-08-16_08h35.45.612,HF_wild_card,2022.2.4,Win32,60.09615385,634e460a7da3fef3d5a9faf3,64d2fd46c836a06233681665,64dc7afc51587902ba779d6f,,,,,,,decisionTrl,resources/DG.BMP,resources/DR.BMP,Door3,0.214814815,-0.016666667,1,0,0,0.777,optionRight,70,12040,6,20,0,20,0,1,,,,,,,,,,,,,,,,,,,,,,,,,,,,,,,,,,,,,,,
,,,,,,,,2023-08-16_08h35.45.612,HF_wild_card,2022.2.4,Win32,60.09615385,634e460a7da3fef3d5a9faf3,64d2fd46c836a06233681665,64dc7afc51587902ba779d6f,,,,,,,ctch,resources/DR.BMP,resources/DP.BMP,Door3,-0.277777778,-0.041666667,1,0,0,0.727,optionLeft,70,12110,6,21,0,21,0,1,,,,,,,,,,,,,,,,,,,,,,,,,,,,,,,,,,,,,,,
,,,,,,,,2023-08-16_08h35.45.612,HF_wild_card,2022.2.4,Win32,60.09615385,634e460a7da3fef3d5a9faf3,64d2fd46c836a06233681665,64dc7afc51587902ba779d6f,,,,,,,sngl,resources/Empty.png,resources/DP.BMP,Door2,0.210185185,-0.015740741,1,0,0,0.78,optionRight,40,12150,6,22,0,22,0,1,,,,,,,,,,,,,,,,,,,,,,,,,,,,,,,,,,,,,,,
,,,,,,,,2023-08-16_08h35.45.612,HF_wild_card,2022.2.4,Win32,60.09615385,634e460a7da3fef3d5a9faf3,64d2fd46c836a06233681665,64dc7afc51587902ba779d6f,,,,,,,sngl,resources/Empty.png,resources/DR.BMP,Door3,0.272222222,-0.019444444,1,0,0,1.127,optionRight,70,12220,6,23,0,23,0,1,,,,,,,,,,,,,,,,,,,,,,,,,,,,,,,,,,,,,,,
,,,,,,,,2023-08-16_08h35.45.612,HF_wild_card,2022.2.4,Win32,60.09615385,634e460a7da3fef3d5a9faf3,64d2fd46c836a06233681665,64dc7afc51587902ba779d6f,,,,,,,ctch,resources/DBN.BMP,resources/DG.BMP,Door1,-0.238888889,0.015740741,1,0,0,0.844,optionLeft,30,12250,6,24,0,24,0,1,,,,,,,,,,,,,,,,,,,,,,,,,,,,,,,,,,,,,,,
,,,,,,,,2023-08-16_08h35.45.612,HF_wild_card,2022.2.4,Win32,60.09615385,634e460a7da3fef3d5a9faf3,64d2fd46c836a06233681665,64dc7afc51587902ba779d6f,,,,,,,ctch,resources/DP.BMP,resources/DR.BMP,Door3,0.27037037,0.025,1,0,0,0.778,optionRight,70,12320,6,25,0,25,0,1,,,,,,,,,,,,,,,,,,,,,,,,,,,,,,,,,,,,,,,
,,,,,,,,2023-08-16_08h35.45.612,HF_wild_card,2022.2.4,Win32,60.09615385,634e460a7da3fef3d5a9faf3,64d2fd46c836a06233681665,64dc7afc51587902ba779d6f,,,,,,,ctch,resources/DG.BMP,resources/DBN.BMP,Door4,-0.268518519,-0.038888889,1,0,0,0.808,optionLeft,80,12400,6,26,0,26,0,1,,,,,,,,,,,,,,,,,,,,,,,,,,,,,,,,,,,,,,,
,,,,,,,,2023-08-16_08h35.45.612,HF_wild_card,2022.2.4,Win32,60.09615385,634e460a7da3fef3d5a9faf3,64d2fd46c836a06233681665,64dc7afc51587902ba779d6f,,,,,,,decisionTrl,resources/DR.BMP,resources/DG.BMP,Door4,0.224074074,0.014814815,1,0,0,0.827,optionRight,80,12480,6,27,0,27,0,1,,,,,,,,,,,,,,,,,,,,,,,,,,,,,,,,,,,,,,,
,,,,,,,,2023-08-16_08h35.45.612,HF_wild_card,2022.2.4,Win32,60.09615385,634e460a7da3fef3d5a9faf3,64d2fd46c836a06233681665,64dc7afc51587902ba779d6f,,,,,,,sngl,resources/Empty.png,resources/DB.BMP,WildCard_Ex,0.213888889,0.00462963,1,0,0,1.026,optionRight,95,12575,6,28,0,28,0,1,,,,,,,,,,,,,,,,,,,,,,,,,,,,,,,,,,,,,,,
,,,,,,,,2023-08-16_08h35.45.612,HF_wild_card,2022.2.4,Win32,60.09615385,634e460a7da3fef3d5a9faf3,64d2fd46c836a06233681665,64dc7afc51587902ba779d6f,,,,,,,sngl,resources/Empty.png,resources/DG.BMP,Door4,0.218518519,0.006481481,1,0,0,0.81,optionRight,80,12655,6,29,0,29,0,1,,,,,,,,,,,,,,,,,,,,,,,,,,,,,,,,,,,,,,,
,,,,,,,,2023-08-16_08h35.45.612,HF_wild_card,2022.2.4,Win32,60.09615385,634e460a7da3fef3d5a9faf3,64d2fd46c836a06233681665,64dc7afc51587902ba779d6f,,,,,,,decisionTrl,resources/DG.BMP,resources/DB.BMP,WildCard_Ex,0.251851852,-0.010185185,1,0,0,0.846,optionRight,5,12660,6,30,0,30,0,1,,,,,,,,,,,,,,,,,,,,,,,,,,,,,,,,,,,,,,,
,,,,,,,,2023-08-16_08h35.45.612,HF_wild_card,2022.2.4,Win32,60.09615385,634e460a7da3fef3d5a9faf3,64d2fd46c836a06233681665,64dc7afc51587902ba779d6f,,,,,,,ctch,resources/DG.BMP,resources/DBN.BMP,Door4,-0.187962963,0.024074074,1,0,0,1.077,optionLeft,80,12740,6,31,0,31,0,1,,,,,,,,,,,,,,,,,,,,,,,,,,,,,,,,,,,,,,,
,,,,,,,,2023-08-16_08h35.45.612,HF_wild_card,2022.2.4,Win32,60.09615385,634e460a7da3fef3d5a9faf3,64d2fd46c836a06233681665,64dc7afc51587902ba779d6f,,,,,,,decisionTrl,resources/DP.BMP,resources/DBN.BMP,Door2,-0.2,0.003703704,1,0,0,1.062,optionLeft,40,12780,6,32,0,32,0,1,,,,,,,,,,,,,,,,,,,,,,,,,,,,,,,,,,,,,,,
,,,,,,,,2023-08-16_08h35.45.612,HF_wild_card,2022.2.4,Win32,60.09615385,634e460a7da3fef3d5a9faf3,64d2fd46c836a06233681665,64dc7afc51587902ba779d6f,,,,,,,decisionTrl,resources/DP.BMP,resources/DBN.BMP,Door1,0.256481481,0.003703704,1,0,0,0.814,optionRight,30,12810,6,33,0,33,0,1,,,,,,,,,,,,,,,,,,,,,,,,,,,,,,,,,,,,,,,
,,,,,,,,2023-08-16_08h35.45.612,HF_wild_card,2022.2.4,Win32,60.09615385,634e460a7da3fef3d5a9faf3,64d2fd46c836a06233681665,64dc7afc51587902ba779d6f,,,,,,,decisionTrl,resources/DG.BMP,resources/DR.BMP,Door4,-0.158333333,-0.011111111,1,0,0,0.661,optionLeft,60,12870,6,34,0,34,0,1,,,,,,,,,,,,,,,,,,,,,,,,,,,,,,,,,,,,,,,
,,,,,,,,2023-08-16_08h35.45.612,HF_wild_card,2022.2.4,Win32,60.09615385,634e460a7da3fef3d5a9faf3,64d2fd46c836a06233681665,64dc7afc51587902ba779d6f,,,,,,,sngl,resources/DG.BMP,resources/Empty.png,Door4,-0.208333333,-0.063888889,1,0,0,1.21,optionLeft,60,12930,6,35,0,35,0,1,,,,,,,,,,,,,,,,,,,,,,,,,,,,,,,,,,,,,,,
,,,,,,,,2023-08-16_08h35.45.612,HF_wild_card,2022.2.4,Win32,60.09615385,634e460a7da3fef3d5a9faf3,64d2fd46c836a06233681665,64dc7afc51587902ba779d6f,,,,,,,decisionTrl,resources/DR.BMP,resources/DB.BMP,WildCard_Ex,0.234259259,-0.012962963,1,0,0,0.745,optionRight,95,13025,6,36,0,36,0,1,,,,,,,,,,,,,,,,,,,,,,,,,,,,,,,,,,,,,,,
,,,,,,,,2023-08-16_08h35.45.612,HF_wild_card,2022.2.4,Win32,60.09615385,634e460a7da3fef3d5a9faf3,64d2fd46c836a06233681665,64dc7afc51587902ba779d6f,,,,,,,decisionTrl,resources/DR.BMP,resources/DG.BMP,Door3,-0.318518519,-0.025925926,1,0,0,0.719,optionLeft,70,13095,6,37,0,37,0,1,,,,,,,,,,,,,,,,,,,,,,,,,,,,,,,,,,,,,,,
,,,,,,,,2023-08-16_08h35.45.612,HF_wild_card,2022.2.4,Win32,60.09615385,634e460a7da3fef3d5a9faf3,64d2fd46c836a06233681665,64dc7afc51587902ba779d6f,,,,,,,decisionTrl,resources/DR.BMP,resources/DG.BMP,Door4,0.259259259,-0.010185185,1,0,0,0.843,optionRight,80,13175,6,38,0,38,0,1,,,,,,,,,,,,,,,,,,,,,,,,,,,,,,,,,,,,,,,
,,,,,,,,2023-08-16_08h35.45.612,HF_wild_card,2022.2.4,Win32,60.09615385,634e460a7da3fef3d5a9faf3,64d2fd46c836a06233681665,64dc7afc51587902ba779d6f,,,,,,,decisionTrl,resources/DG.BMP,resources/DR.BMP,Door4,-0.325925926,-0.041666667,1,0,0,0.827,optionLeft,60,13235,6,39,0,39,0,1,,,,,,,,,,,,,,,,,,,,,,,,,,,,,,,,,,,,,,,
,,,,,,,,2023-08-16_08h35.45.612,HF_wild_card,2022.2.4,Win32,60.09615385,634e460a7da3fef3d5a9faf3,64d2fd46c836a06233681665,64dc7afc51587902ba779d6f,,,,,,,decisionTrl,resources/DB.BMP,resources/DR.BMP,Door3,0.275925926,-0.011111111,1,0,0,0.893,optionRight,70,13305,6,40,0,40,0,1,,,,,,,,,,,,,,,,,,,,,,,,,,,,,,,,,,,,,,,
,,,,,,,,2023-08-16_08h35.45.612,HF_wild_card,2022.2.4,Win32,60.09615385,634e460a7da3fef3d5a9faf3,64d2fd46c836a06233681665,64dc7afc51587902ba779d6f,,,,,,,decisionTrl,resources/DBN.BMP,resources/DB.BMP,Door1,-0.309259259,-0.025,1,0,0,0.81,optionLeft,30,13335,6,41,0,41,0,1,,,,,,,,,,,,,,,,,,,,,,,,,,,,,,,,,,,,,,,
,,,,,,,,2023-08-16_08h35.45.612,HF_wild_card,2022.2.4,Win32,60.09615385,634e460a7da3fef3d5a9faf3,64d2fd46c836a06233681665,64dc7afc51587902ba779d6f,,,,,,,decisionTrl,resources/DG.BMP,resources/DR.BMP,Door3,0.240740741,-0.001851852,1,0,0,0.81,optionRight,70,13405,6,42,0,42,0,1,,,,,,,,,,,,,,,,,,,,,,,,,,,,,,,,,,,,,,,
,,,,,,,,2023-08-16_08h35.45.612,HF_wild_card,2022.2.4,Win32,60.09615385,634e460a7da3fef3d5a9faf3,64d2fd46c836a06233681665,64dc7afc51587902ba779d6f,,,,,,,sngl,resources/Empty.png,resources/DBN.BMP,Door1,0.341666667,0.012962963,1,0,0,2.561,optionRight,30,13435,6,43,0,43,0,1,,,,,,,,,,,,,,,,,,,,,,,,,,,,,,,,,,,,,,,
,,,,,,,,2023-08-16_08h35.45.612,HF_wild_card,2022.2.4,Win32,60.09615385,634e460a7da3fef3d5a9faf3,64d2fd46c836a06233681665,64dc7afc51587902ba779d6f,,,,,,,,,,,,,,,,,,,,,,,,,,5,0,5,0,1,,,,,,,,,,,,,,,,,,,,,,,,,,,,,,,,,,
,,,,,,,,2023-08-16_08h35.45.612,HF_wild_card,2022.2.4,Win32,60.09615385,634e460a7da3fef3d5a9faf3,64d2fd46c836a06233681665,64dc7afc51587902ba779d6f,,,,,,,ctch,resources/DP.BMP,resources/DR.BMP,Door2,-0.301851852,-0.00462963,1,0,0,0.908,optionLeft,40,13475,7,0,0,0,0,1,,,,,,,,,,,,,,,,,,,,,,,,,,,,,,,,,,,,,,,
,,,,,,,,2023-08-16_08h35.45.612,HF_wild_card,2022.2.4,Win32,60.09615385,634e460a7da3fef3d5a9faf3,64d2fd46c836a06233681665,64dc7afc51587902ba779d6f,,,,,,,decisionTrl,resources/DP.BMP,resources/DBN.BMP,Door1,0.174074074,-0.02962963,1,0,0,0.697,optionRight,30,13505,7,1,0,1,0,1,,,,,,,,,,,,,,,,,,,,,,,,,,,,,,,,,,,,,,,
,,,,,,,,2023-08-16_08h35.45.612,HF_wild_card,2022.2.4,Win32,60.09615385,634e460a7da3fef3d5a9faf3,64d2fd46c836a06233681665,64dc7afc51587902ba779d6f,,,,,,,ctch,resources/DG.BMP,resources/DBN.BMP,Door4,-0.165740741,0.007407407,1,0,0,0.666,optionLeft,80,13585,7,2,0,2,0,1,,,,,,,,,,,,,,,,,,,,,,,,,,,,,,,,,,,,,,,
,,,,,,,,2023-08-16_08h35.45.612,HF_wild_card,2022.2.4,Win32,60.09615385,634e460a7da3fef3d5a9faf3,64d2fd46c836a06233681665,64dc7afc51587902ba779d6f,,,,,,,decisionTrl,resources/DBN.BMP,resources/DP.BMP,Door2,0.271296296,-0.023148148,1,0,0,0.898,optionRight,20,13605,7,3,0,3,0,1,,,,,,,,,,,,,,,,,,,,,,,,,,,,,,,,,,,,,,,
,,,,,,,,2023-08-16_08h35.45.612,HF_wild_card,2022.2.4,Win32,60.09615385,634e460a7da3fef3d5a9faf3,64d2fd46c836a06233681665,64dc7afc51587902ba779d6f,,,,,,,decisionTrl,resources/DBN.BMP,resources/DP.BMP,Door1,-0.215740741,-0.017592593,1,0,0,0.783,optionLeft,30,13635,7,4,0,4,0,1,,,,,,,,,,,,,,,,,,,,,,,,,,,,,,,,,,,,,,,
,,,,,,,,2023-08-16_08h35.45.612,HF_wild_card,2022.2.4,Win32,60.09615385,634e460a7da3fef3d5a9faf3,64d2fd46c836a06233681665,64dc7afc51587902ba779d6f,,,,,,,decisionTrl,resources/DR.BMP,resources/DG.BMP,Door3,-0.330555556,-0.025,1,0,0,1.03,optionLeft,70,13705,7,5,0,5,0,1,,,,,,,,,,,,,,,,,,,,,,,,,,,,,,,,,,,,,,,
,,,,,,,,2023-08-16_08h35.45.612,HF_wild_card,2022.2.4,Win32,60.09615385,634e460a7da3fef3d5a9faf3,64d2fd46c836a06233681665,64dc7afc51587902ba779d6f,,,,,,,decisionTrl,resources/DR.BMP,resources/DG.BMP,Door4,0.35462963,-0.00462963,1,0,0,0.899,optionRight,80,13785,7,6,0,6,0,1,,,,,,,,,,,,,,,,,,,,,,,,,,,,,,,,,,,,,,,
,,,,,,,,2023-08-16_08h35.45.612,HF_wild_card,2022.2.4,Win32,60.09615385,634e460a7da3fef3d5a9faf3,64d2fd46c836a06233681665,64dc7afc51587902ba779d6f,,,,,,,ctch,resources/DBN.BMP,resources/DG.BMP,Door1,-0.291666667,-0.030555556,1,0,0,0.896,optionLeft,30,13815,7,7,0,7,0,1,,,,,,,,,,,,,,,,,,,,,,,,,,,,,,,,,,,,,,,
,,,,,,,,2023-08-16_08h35.45.612,HF_wild_card,2022.2.4,Win32,60.09615385,634e460a7da3fef3d5a9faf3,64d2fd46c836a06233681665,64dc7afc51587902ba779d6f,,,,,,,ctch,resources/DBN.BMP,resources/DG.BMP,Door4,0.230555556,0.025,1,0,0,0.816,optionRight,80,13895,7,8,0,8,0,1,,,,,,,,,,,,,,,,,,,,,,,,,,,,,,,,,,,,,,,
,,,,,,,,2023-08-16_08h35.45.612,HF_wild_card,2022.2.4,Win32,60.09615385,634e460a7da3fef3d5a9faf3,64d2fd46c836a06233681665,64dc7afc51587902ba779d6f,,,,,,,decisionTrl,resources/DBN.BMP,resources/DP.BMP,Door1,-0.234259259,-0.000925926,1,0,0,1.21,optionLeft,30,13925,7,9,0,9,0,1,,,,,,,,,,,,,,,,,,,,,,,,,,,,,,,,,,,,,,,
,,,,,,,,2023-08-16_08h35.45.612,HF_wild_card,2022.2.4,Win32,60.09615385,634e460a7da3fef3d5a9faf3,64d2fd46c836a06233681665,64dc7afc51587902ba779d6f,,,,,,,decisionTrl,resources/DG.BMP,resources/DR.BMP,Door4,-0.02962963,-0.017592593,1,0,0,2.346,optionLeft,80,14005,7,10,0,10,0,1,,,,,,,,,,,,,,,,,,,,,,,,,,,,,,,,,,,,,,,
,,,,,,,,2023-08-16_08h35.45.612,HF_wild_card,2022.2.4,Win32,60.09615385,634e460a7da3fef3d5a9faf3,64d2fd46c836a06233681665,64dc7afc51587902ba779d6f,,,,,,,decisionTrl,resources/DR.BMP,resources/DG.BMP,Door3,-0.142592593,-0.009259259,1,0,0,3.11,optionLeft,70,14075,7,11,0,11,0,1,,,,,,,,,,,,,,,,,,,,,,,,,,,,,,,,,,,,,,,
,,,,,,,,2023-08-16_08h35.45.612,HF_wild_card,2022.2.4,Win32,60.09615385,634e460a7da3fef3d5a9faf3,64d2fd46c836a06233681665,64dc7afc51587902ba779d6f,,,,,,,ctch,resources/DG.BMP,resources/DBN.BMP,Door1,0.268518519,-0.023148148,1,0,0,0.881,optionRight,30,14105,7,12,0,12,0,1,,,,,,,,,,,,,,,,,,,,,,,,,,,,,,,,,,,,,,,
,,,,,,,,2023-08-16_08h35.45.612,HF_wild_card,2022.2.4,Win32,60.09615385,634e460a7da3fef3d5a9faf3,64d2fd46c836a06233681665,64dc7afc51587902ba779d6f,,,,,,,ctch,resources/DR.BMP,resources/DP.BMP,Door3,-0.318518519,-0.02037037,1,0,0,0.848,optionLeft,70,14175,7,13,0,13,0,1,,,,,,,,,,,,,,,,,,,,,,,,,,,,,,,,,,,,,,,
,,,,,,,,2023-08-16_08h35.45.612,HF_wild_card,2022.2.4,Win32,60.09615385,634e460a7da3fef3d5a9faf3,64d2fd46c836a06233681665,64dc7afc51587902ba779d6f,,,,,,,decisionTrl,resources/DG.BMP,resources/DR.BMP,Door4,-0.159259259,-0.024074074,1,0,0,4.81,optionLeft,80,14255,7,14,0,14,0,1,,,,,,,,,,,,,,,,,,,,,,,,,,,,,,,,,,,,,,,
,,,,,,,,2023-08-16_08h35.45.612,HF_wild_card,2022.2.4,Win32,60.09615385,634e460a7da3fef3d5a9faf3,64d2fd46c836a06233681665,64dc7afc51587902ba779d6f,,,,,,,decisionTrl,resources/DG.BMP,resources/DR.BMP,Door3,0.213888889,-0.014814815,1,0,0,0.915,optionRight,70,14325,7,15,0,15,0,1,,,,,,,,,,,,,,,,,,,,,,,,,,,,,,,,,,,,,,,
,,,,,,,,2023-08-16_08h35.45.612,HF_wild_card,2022.2.4,Win32,60.09615385,634e460a7da3fef3d5a9faf3,64d2fd46c836a06233681665,64dc7afc51587902ba779d6f,,,,,,,decisionTrl,resources/DR.BMP,resources/DG.BMP,Door3,-0.296296296,-0.025925926,1,0,0,0.893,optionLeft,70,14395,7,16,0,16,0,1,,,,,,,,,,,,,,,,,,,,,,,,,,,,,,,,,,,,,,,
,,,,,,,,2023-08-16_08h35.45.612,HF_wild_card,2022.2.4,Win32,60.09615385,634e460a7da3fef3d5a9faf3,64d2fd46c836a06233681665,64dc7afc51587902ba779d6f,,,,,,,decisionTrl,resources/DBN.BMP,resources/DP.BMP,Door2,0.208333333,-0.010185185,1,0,0,0.832,optionRight,20,14415,7,17,0,17,0,1,,,,,,,,,,,,,,,,,,,,,,,,,,,,,,,,,,,,,,,
,,,,,,,,2023-08-16_08h35.45.612,HF_wild_card,2022.2.4,Win32,60.09615385,634e460a7da3fef3d5a9faf3,64d2fd46c836a06233681665,64dc7afc51587902ba779d6f,,,,,,,decisionTrl,resources/DG.BMP,resources/DR.BMP,Door4,0.002777778,0.010185185,1,0,0,2.879,optionLeft,60,14475,7,18,0,18,0,1,,,,,,,,,,,,,,,,,,,,,,,,,,,,,,,,,,,,,,,
,,,,,,,,2023-08-16_08h35.45.612,HF_wild_card,2022.2.4,Win32,60.09615385,634e460a7da3fef3d5a9faf3,64d2fd46c836a06233681665,64dc7afc51587902ba779d6f,,,,,,,ctch,resources/DBN.BMP,resources/DG.BMP,Door4,0.178703704,0,1,0,0,1.145,optionRight,80,14555,7,19,0,19,0,1,,,,,,,,,,,,,,,,,,,,,,,,,,,,,,,,,,,,,,,
,,,,,,,,2023-08-16_08h35.45.612,HF_wild_card,2022.2.4,Win32,60.09615385,634e460a7da3fef3d5a9faf3,64d2fd46c836a06233681665,64dc7afc51587902ba779d6f,,,,,,,decisionTrl,resources/DBN.BMP,resources/DP.BMP,Door1,-0.243518519,-0.027777778,1,0,0,0.948,optionLeft,30,14585,7,20,0,20,0,1,,,,,,,,,,,,,,,,,,,,,,,,,,,,,,,,,,,,,,,
,,,,,,,,2023-08-16_08h35.45.612,HF_wild_card,2022.2.4,Win32,60.09615385,634e460a7da3fef3d5a9faf3,64d2fd46c836a06233681665,64dc7afc51587902ba779d6f,,,,,,,ctch,resources/DR.BMP,resources/DP.BMP,Door2,0.250925926,-0.008333333,1,0,0,0.833,optionRight,20,14605,7,21,0,21,0,1,,,,,,,,,,,,,,,,,,,,,,,,,,,,,,,,,,,,,,,
,,,,,,,,2023-08-16_08h35.45.612,HF_wild_card,2022.2.4,Win32,60.09615385,634e460a7da3fef3d5a9faf3,64d2fd46c836a06233681665,64dc7afc51587902ba779d6f,,,,,,,decisionTrl,resources/DR.BMP,resources/DG.BMP,Door3,-0.312962963,-0.023148148,1,0,0,0.815,optionLeft,70,14675,7,22,0,22,0,1,,,,,,,,,,,,,,,,,,,,,,,,,,,,,,,,,,,,,,,
,,,,,,,,2023-08-16_08h35.45.612,HF_wild_card,2022.2.4,Win32,60.09615385,634e460a7da3fef3d5a9faf3,64d2fd46c836a06233681665,64dc7afc51587902ba779d6f,,,,,,,ctch,resources/DG.BMP,resources/DBN.BMP,Door1,0.243518519,0.022222222,1,0,0,0.932,optionRight,30,14705,7,23,0,23,0,1,,,,,,,,,,,,,,,,,,,,,,,,,,,,,,,,,,,,,,,
,,,,,,,,2023-08-16_08h35.45.612,HF_wild_card,2022.2.4,Win32,60.09615385,634e460a7da3fef3d5a9faf3,64d2fd46c836a06233681665,64dc7afc51587902ba779d6f,,,,,,,decisionTrl,resources/DBN.BMP,resources/DP.BMP,Door1,-0.321296296,0.027777778,1,0,0,0.859,optionLeft,30,14735,7,24,0,24,0,1,,,,,,,,,,,,,,,,,,,,,,,,,,,,,,,,,,,,,,,
,,,,,,,,2023-08-16_08h35.45.612,HF_wild_card,2022.2.4,Win32,60.09615385,634e460a7da3fef3d5a9faf3,64d2fd46c836a06233681665,64dc7afc51587902ba779d6f,,,,,,,ctch,resources/DR.BMP,resources/DP.BMP,Door3,-0.392592593,0.028703704,1,0,0,1.38,optionLeft,70,14805,7,25,0,25,0,1,,,,,,,,,,,,,,,,,,,,,,,,,,,,,,,,,,,,,,,
,,,,,,,,2023-08-16_08h35.45.612,HF_wild_card,2022.2.4,Win32,60.09615385,634e460a7da3fef3d5a9faf3,64d2fd46c836a06233681665,64dc7afc51587902ba779d6f,,,,,,,decisionTrl,resources/DR.BMP,resources/DG.BMP,Door4,0.199074074,-0.010185185,1,0,0,0.648,optionRight,80,14885,7,26,0,26,0,1,,,,,,,,,,,,,,,,,,,,,,,,,,,,,,,,,,,,,,,
,,,,,,,,2023-08-16_08h35.45.612,HF_wild_card,2022.2.4,Win32,60.09615385,634e460a7da3fef3d5a9faf3,64d2fd46c836a06233681665,64dc7afc51587902ba779d6f,,,,,,,decisionTrl,resources/DP.BMP,resources/DBN.BMP,Door2,-0.242592593,-0.005555556,1,0,0,0.815,optionLeft,20,14905,7,27,0,27,0,1,,,,,,,,,,,,,,,,,,,,,,,,,,,,,,,,,,,,,,,
,,,,,,,,2023-08-16_08h35.45.612,HF_wild_card,2022.2.4,Win32,60.09615385,634e460a7da3fef3d5a9faf3,64d2fd46c836a06233681665,64dc7afc51587902ba779d6f,,,,,,,decisionTrl,resources/DG.BMP,resources/DR.BMP,Door3,0.353703704,-0.011111111,1,0,0,0.847,optionRight,70,14975,7,28,0,28,0,1,,,,,,,,,,,,,,,,,,,,,,,,,,,,,,,,,,,,,,,
,,,,,,,,2023-08-16_08h35.45.612,HF_wild_card,2022.2.4,Win32,60.09615385,634e460a7da3fef3d5a9faf3,64d2fd46c836a06233681665,64dc7afc51587902ba779d6f,,,,,,,decisionTrl,resources/DP.BMP,resources/DBN.BMP,Door2,-0.207407407,-0.034259259,1,0,0,0.782,optionLeft,20,14995,7,29,0,29,0,1,,,,,,,,,,,,,,,,,,,,,,,,,,,,,,,,,,,,,,,
,,,,,,,,2023-08-16_08h35.45.612,HF_wild_card,2022.2.4,Win32,60.09615385,634e460a7da3fef3d5a9faf3,64d2fd46c836a06233681665,64dc7afc51587902ba779d6f,,,,,,,ctch,resources/DP.BMP,resources/DR.BMP,Door3,0.349074074,0.009259259,1,0,0,0.814,optionRight,70,15065,7,30,0,30,0,1,,,,,,,,,,,,,,,,,,,,,,,,,,,,,,,,,,,,,,,
,,,,,,,,2023-08-16_08h35.45.612,HF_wild_card,2022.2.4,Win32,60.09615385,634e460a7da3fef3d5a9faf3,64d2fd46c836a06233681665,64dc7afc51587902ba779d6f,,,,,,,decisionTrl,resources/DG.BMP,resources/DR.BMP,Door4,-0.296296296,0.016666667,1,0,0,0.913,optionLeft,80,15145,7,31,0,31,0,1,,,,,,,,,,,,,,,,,,,,,,,,,,,,,,,,,,,,,,,
,,,,,,,,2023-08-16_08h35.45.612,HF_wild_card,2022.2.4,Win32,60.09615385,634e460a7da3fef3d5a9faf3,64d2fd46c836a06233681665,64dc7afc51587902ba779d6f,,,,,,,decisionTrl,resources/DP.BMP,resources/DBN.BMP,Door2,-0.284259259,0.00462963,1,0,0,0.797,optionLeft,20,15165,7,32,0,32,0,1,,,,,,,,,,,,,,,,,,,,,,,,,,,,,,,,,,,,,,,
,,,,,,,,2023-08-16_08h35.45.612,HF_wild_card,2022.2.4,Win32,60.09615385,634e460a7da3fef3d5a9faf3,64d2fd46c836a06233681665,64dc7afc51587902ba779d6f,,,,,,,ctch,resources/DP.BMP,resources/DR.BMP,Door3,0.165740741,-0.003703704,1,0,0,0.781,optionRight,70,15235,7,33,0,33,0,1,,,,,,,,,,,,,,,,,,,,,,,,,,,,,,,,,,,,,,,
,,,,,,,,2023-08-16_08h35.45.612,HF_wild_card,2022.2.4,Win32,60.09615385,634e460a7da3fef3d5a9faf3,64d2fd46c836a06233681665,64dc7afc51587902ba779d6f,,,,,,,decisionTrl,resources/DP.BMP,resources/DBN.BMP,Door2,-0.314814815,-0.031481481,1,0,0,0.815,optionLeft,20,15255,7,34,0,34,0,1,,,,,,,,,,,,,,,,,,,,,,,,,,,,,,,,,,,,,,,
,,,,,,,,2023-08-16_08h35.45.612,HF_wild_card,2022.2.4,Win32,60.09615385,634e460a7da3fef3d5a9faf3,64d2fd46c836a06233681665,64dc7afc51587902ba779d6f,,,,,,,decisionTrl,resources/DP.BMP,resources/DBN.BMP,Door1,0.363888889,0.034259259,1,0,0,0.78,optionRight,30,15285,7,35,0,35,0,1,,,,,,,,,,,,,,,,,,,,,,,,,,,,,,,,,,,,,,,
,,,,,,,,2023-08-16_08h35.45.612,HF_wild_card,2022.2.4,Win32,60.09615385,634e460a7da3fef3d5a9faf3,64d2fd46c836a06233681665,64dc7afc51587902ba779d6f,,,,,,,,,,,,,,,,,,,,,,,,,,6,0,6,0,1,,,,,,,,,,,,,,,,,,,,,,,,,,,,,,,,,,
,,,,,,,,2023-08-16_08h35.45.612,HF_wild_card,2022.2.4,Win32,60.09615385,634e460a7da3fef3d5a9faf3,64d2fd46c836a06233681665,64dc7afc51587902ba779d6f,,,,,,,,,,,,,,,,,,,,,,,,,,,,,,,3,,,,,,,,,,,,,,,,,,,,,,,,,,,,,,,,,
,,,,,,,,2023-08-16_08h35.45.612,HF_wild_card,2022.2.4,Win32,60.09615385,634e460a7da3fef3d5a9faf3,64d2fd46c836a06233681665,64dc7afc51587902ba779d6f,,,,,,,,,,,,,,,,,,,,,,,,,,,,,,,,,,,,,,,,,,,,,,,,,,,,,,,,,,,,,,,,
,,,,,,,,2023-08-16_08h35.45.612,HF_wild_card,2022.2.4,Win32,60.09615385,634e460a7da3fef3d5a9faf3,64d2fd46c836a06233681665,64dc7afc51587902ba779d6f,,,,,,,,,,,,,,,,,,,,,,,,,,,,,,,,50,Door3,resources/DR.BMP,0,0,0,0,1,,,,,,,,,,,,,,,,,,,,,,,,,
,,,,,,,,2023-08-16_08h35.45.612,HF_wild_card,2022.2.4,Win32,60.09615385,634e460a7da3fef3d5a9faf3,64d2fd46c836a06233681665,64dc7afc51587902ba779d6f,,,,,,,,,,,,,,,,,,,,,,,,,,,,,,,,20,Door4,resources/DG.BMP,1,0,1,0,1,,,,,,,,,,,,,,,,,,,,,,,,,
,,,,,,,,2023-08-16_08h35.45.612,HF_wild_card,2022.2.4,Win32,60.09615385,634e460a7da3fef3d5a9faf3,64d2fd46c836a06233681665,64dc7afc51587902ba779d6f,,,,,,,,,,,,,,,,,,,,,,,,,,,,,,,,50,WC_extreme,resources/DB.BMP,2,0,2,0,1,,,,,,,,,,,,,,,,,,,,,,,,,
,,,,,,,,2023-08-16_08h35.45.612,HF_wild_card,2022.2.4,Win32,60.09615385,634e460a7da3fef3d5a9faf3,64d2fd46c836a06233681665,64dc7afc51587902ba779d6f,,,,,,,,,,,,,,,,,,,,,,,,,,,,,,,,40,WC_nonExtreme,resources/DY.BMP,3,0,3,0,1,,,,,,,,,,,,,,,,,,,,,,,,,
,,,,,,,,2023-08-16_08h35.45.612,HF_wild_card,2022.2.4,Win32,60.09615385,634e460a7da3fef3d5a9faf3,64d2fd46c836a06233681665,64dc7afc51587902ba779d6f,,,,,,,,,,,,,,,,,,,,,,,,,,,,,,,,40,Door1,resources/DBN.BMP,4,0,4,0,1,,,,,,,,,,,,,,,,,,,,,,,,,
,,,,,,,,2023-08-16_08h35.45.612,HF_wild_card,2022.2.4,Win32,60.09615385,634e460a7da3fef3d5a9faf3,64d2fd46c836a06233681665,64dc7afc51587902ba779d6f,,,,,,,,,,,,,,,,,,,,,,,,,,,,,,,,50,Door2,resources/DP.BMP,5,0,5,0,1,,,,,,,,,,,,,,,,,,,,,,,,,
,,,,,,,,2023-08-16_08h35.45.612,HF_wild_card,2022.2.4,Win32,60.09615385,634e460a7da3fef3d5a9faf3,64d2fd46c836a06233681665,64dc7afc51587902ba779d6f,,,,,,,,,,,,,,,,,,,,,,,,,,,,,,,,,,,,,,,,,,,,,,,,,,,,,,,,,,,,,,,,
,,,,,,,,2023-08-16_08h35.45.612,HF_wild_card,2022.2.4,Win32,60.09615385,634e460a7da3fef3d5a9faf3,64d2fd46c836a06233681665,64dc7afc51587902ba779d6f,,,,,,,,,,,,,,,,,,,,,,,,,,,,,,,,,,,,,,,,0,0,0,0,1,,,,,,,,,,,,,,,,,,,,
,,,,,,,,2023-08-16_08h35.45.612,HF_wild_card,2022.2.4,Win32,60.09615385,634e460a7da3fef3d5a9faf3,64d2fd46c836a06233681665,64dc7afc51587902ba779d6f,,,,,,,,,,,,,,,,,,,,,,,,,,,,,,,,,,,,,,,,1,0,1,0,1,,,,,,,,,,,,,,,,,,,,
