Condition,Low fixed image (Door1),Low risky image (Door2),High fixed image (Door3),High risky image (Door4),NonExtreme Wild Card 1,NonExtreme Wild Card 2,,date,expName,psychopyVersion,OS,frameRate,PROLIFIC_PID,STUDY_ID,SESSION_ID,mouse_2.x,mouse_2.y,mouse_2.leftButton,mouse_2.midButton,mouse_2.rightButton,mouse_2.clicked_name,Trial Type,Left Option Image,Right Option Image,Chosen Door,mouse.x,mouse.y,mouse.leftButton,mouse.midButton,mouse.rightButton,mouse.time,mouse.clicked_name,Feedback,Cumulative Reward,Block,trial.thisRepN,trial.thisTrialN,trial.thisN,trial.thisIndex,trial.ran,blocks.thisRepN,blocks.thisTrialN,blocks.thisN,blocks.thisIndex,blocks.ran,Money conversion,First Outcome Reported,Shown Door (First Outcome),Displayed Image (First Outcome),outcomes.thisRepN,outcomes.thisTrialN,outcomes.thisN,outcomes.thisIndex,outcomes.ran,judgments.thisRepN,judgments.thisTrialN,judgments.thisN,judgments.thisIndex,judgments.ran,freqMouse.x,freqMouse.y,freqMouse.leftButton,freqMouse.midButton,freqMouse.rightButton,freqMouse.clicked_name,FQJ for first outcome,FQJ for second outcome,Shown Door,Displayed Image,trials.thisRepN,trials.thisTrialN,trials.thisN,trials.thisIndex,trials.ran,judgBlock.thisRepN,judgBlock.thisTrialN,judgBlock.thisN,judgBlock.thisIndex,judgBlock.ran
2,resources/DBN.BMP,resources/DP.BMP,resources/DB.BMP,resources/DY.BMP,resources/DG.BMP,resources/DR.BMP,,2023-08-06_08h21.28.735,HF_wild_card,2022.2.4,Win32,59.87665409,62d2b86ed12d650ea7268dd7,64ce5acb97489d65b14ecc7a,64cf49dcad7a3c1f18514c1a,,,,,,,,,,,,,,,,,,,,,,,,,,,,,,,,,,,,,,,,,,,,,,,,,,,,,,,,,,,,,,,,
,,,,,,,,2023-08-06_08h21.28.735,HF_wild_card,2022.2.4,Win32,59.87665409,62d2b86ed12d650ea7268dd7,64ce5acb97489d65b14ecc7a,64cf49dcad7a3c1f18514c1a,0.010416667,-0.4140625,1,0,0,agree,,,,,,,,,,,,,,,,,,,,,,,,,,,,,,,,,,,,,,,,,,,,,,,,,,,,,,,,,,
,,,,,,,,2023-08-06_08h21.28.735,HF_wild_card,2022.2.4,Win32,59.87665409,62d2b86ed12d650ea7268dd7,64ce5acb97489d65b14ecc7a,64cf49dcad7a3c1f18514c1a,,,,,,,,,,,,,,,,,,,,,,,,,,,,,,,,,,,,,,,,,,,,,,,,,,,,,,,,,,,,,,,,
,,,,,,,,2023-08-06_08h21.28.735,HF_wild_card,2022.2.4,Win32,59.87665409,62d2b86ed12d650ea7268dd7,64ce5acb97489d65b14ecc7a,64cf49dcad7a3c1f18514c1a,,,,,,,decisionTrl,resources/DP.BMP,resources/DR.BMP,WildCard_NonEx,0.403645833,-0.05859375,1,0,0,3.4924,optionRight,45,45,1,0,0,0,0,1,,,,,,,,,,,,,,,,,,,,,,,,,,,,,,,,,,,,,,,
,,,,,,,,2023-08-06_08h21.28.735,HF_wild_card,2022.2.4,Win32,59.87665409,62d2b86ed12d650ea7268dd7,64ce5acb97489d65b14ecc7a,64cf49dcad7a3c1f18514c1a,,,,,,,ctch,resources/DBN.BMP,resources/DY.BMP,Door1,-0.403645833,-0.013020833,1,0,0,2.8077,optionLeft,30,75,1,1,0,1,0,1,,,,,,,,,,,,,,,,,,,,,,,,,,,,,,,,,,,,,,,
,,,,,,,,2023-08-06_08h21.28.735,HF_wild_card,2022.2.4,Win32,59.87665409,62d2b86ed12d650ea7268dd7,64ce5acb97489d65b14ecc7a,64cf49dcad7a3c1f18514c1a,,,,,,,sngl,resources/Empty.png,resources/DY.BMP,Door4,0.395833333,-0.05078125,1,0,0,2.5054,optionRight,60,135,1,2,0,2,0,1,,,,,,,,,,,,,,,,,,,,,,,,,,,,,,,,,,,,,,,
,,,,,,,,2023-08-06_08h21.28.735,HF_wild_card,2022.2.4,Win32,59.87665409,62d2b86ed12d650ea7268dd7,64ce5acb97489d65b14ecc7a,64cf49dcad7a3c1f18514c1a,,,,,,,sngl,resources/DR.BMP,resources/Empty.png,WildCard_NonEx,-0.42578125,-0.0390625,1,0,0,1.4777,optionLeft,45,180,1,3,0,3,0,1,,,,,,,,,,,,,,,,,,,,,,,,,,,,,,,,,,,,,,,
,,,,,,,,2023-08-06_08h21.28.735,HF_wild_card,2022.2.4,Win32,59.87665409,62d2b86ed12d650ea7268dd7,64ce5acb97489d65b14ecc7a,64cf49dcad7a3c1f18514c1a,,,,,,,decisionTrl,resources/DY.BMP,resources/DB.BMP,Door4,-0.421875,-0.006510417,1,0,0,1.7787,optionLeft,80,260,1,4,0,4,0,1,,,,,,,,,,,,,,,,,,,,,,,,,,,,,,,,,,,,,,,
,,,,,,,,2023-08-06_08h21.28.735,HF_wild_card,2022.2.4,Win32,59.87665409,62d2b86ed12d650ea7268dd7,64ce5acb97489d65b14ecc7a,64cf49dcad7a3c1f18514c1a,,,,,,,decisionTrl,resources/DY.BMP,resources/DB.BMP,Door4,-0.397135417,-0.03515625,1,0,0,2.033,optionLeft,80,340,1,5,0,5,0,1,,,,,,,,,,,,,,,,,,,,,,,,,,,,,,,,,,,,,,,
,,,,,,,,2023-08-06_08h21.28.735,HF_wild_card,2022.2.4,Win32,59.87665409,62d2b86ed12d650ea7268dd7,64ce5acb97489d65b14ecc7a,64cf49dcad7a3c1f18514c1a,,,,,,,ctch,resources/DB.BMP,resources/DP.BMP,Door2,0.369791667,-0.0625,1,0,0,2.9262,optionRight,40,380,1,6,0,6,0,1,,,,,,,,,,,,,,,,,,,,,,,,,,,,,,,,,,,,,,,
,,,,,,,,2023-08-06_08h21.28.735,HF_wild_card,2022.2.4,Win32,59.87665409,62d2b86ed12d650ea7268dd7,64ce5acb97489d65b14ecc7a,64cf49dcad7a3c1f18514c1a,,,,,,,decisionTrl,resources/DBN.BMP,resources/DP.BMP,Door1,-0.399739583,0,1,0,0,2.2945,optionLeft,30,410,1,7,0,7,0,1,,,,,,,,,,,,,,,,,,,,,,,,,,,,,,,,,,,,,,,
,,,,,,,,2023-08-06_08h21.28.735,HF_wild_card,2022.2.4,Win32,59.87665409,62d2b86ed12d650ea7268dd7,64ce5acb97489d65b14ecc7a,64cf49dcad7a3c1f18514c1a,,,,,,,decisionTrl,resources/DR.BMP,resources/DY.BMP,Door4,0.436197917,-0.022135417,1,0,0,1.5285,optionRight,60,470,1,8,0,8,0,1,,,,,,,,,,,,,,,,,,,,,,,,,,,,,,,,,,,,,,,
,,,,,,,,2023-08-06_08h21.28.735,HF_wild_card,2022.2.4,Win32,59.87665409,62d2b86ed12d650ea7268dd7,64ce5acb97489d65b14ecc7a,64cf49dcad7a3c1f18514c1a,,,,,,,decisionTrl,resources/DB.BMP,resources/DR.BMP,Door3,-0.411458333,-0.052083333,1,0,0,1.9281,optionLeft,70,540,1,9,0,9,0,1,,,,,,,,,,,,,,,,,,,,,,,,,,,,,,,,,,,,,,,
,,,,,,,,2023-08-06_08h21.28.735,HF_wild_card,2022.2.4,Win32,59.87665409,62d2b86ed12d650ea7268dd7,64ce5acb97489d65b14ecc7a,64cf49dcad7a3c1f18514c1a,,,,,,,decisionTrl,resources/DBN.BMP,resources/DP.BMP,Door2,0.411458333,-0.067708333,1,0,0,1.9158,optionRight,40,580,1,10,0,10,0,1,,,,,,,,,,,,,,,,,,,,,,,,,,,,,,,,,,,,,,,
,,,,,,,,2023-08-06_08h21.28.735,HF_wild_card,2022.2.4,Win32,59.87665409,62d2b86ed12d650ea7268dd7,64ce5acb97489d65b14ecc7a,64cf49dcad7a3c1f18514c1a,,,,,,,decisionTrl,resources/DR.BMP,resources/DP.BMP,WildCard_NonEx,-0.3984375,-0.052083333,1,0,0,2.4089,optionLeft,55,635,1,11,0,11,0,1,,,,,,,,,,,,,,,,,,,,,,,,,,,,,,,,,,,,,,,
,,,,,,,,2023-08-06_08h21.28.735,HF_wild_card,2022.2.4,Win32,59.87665409,62d2b86ed12d650ea7268dd7,64ce5acb97489d65b14ecc7a,64cf49dcad7a3c1f18514c1a,,,,,,,ctch,resources/DP.BMP,resources/DB.BMP,Door3,0.39453125,-0.059895833,1,0,0,1.9932,optionRight,70,705,1,12,0,12,0,1,,,,,,,,,,,,,,,,,,,,,,,,,,,,,,,,,,,,,,,
,,,,,,,,2023-08-06_08h21.28.735,HF_wild_card,2022.2.4,Win32,59.87665409,62d2b86ed12d650ea7268dd7,64ce5acb97489d65b14ecc7a,64cf49dcad7a3c1f18514c1a,,,,,,,ctch,resources/DY.BMP,resources/DBN.BMP,Door4,-0.397135417,0.005208333,1,0,0,3.1941,optionLeft,80,785,1,13,0,13,0,1,,,,,,,,,,,,,,,,,,,,,,,,,,,,,,,,,,,,,,,
,,,,,,,,2023-08-06_08h21.28.735,HF_wild_card,2022.2.4,Win32,59.87665409,62d2b86ed12d650ea7268dd7,64ce5acb97489d65b14ecc7a,64cf49dcad7a3c1f18514c1a,,,,,,,decisionTrl,resources/DP.BMP,resources/DBN.BMP,Door2,-0.37890625,-0.08203125,1,0,0,2.1597,optionLeft,20,805,1,14,0,14,0,1,,,,,,,,,,,,,,,,,,,,,,,,,,,,,,,,,,,,,,,
,,,,,,,,2023-08-06_08h21.28.735,HF_wild_card,2022.2.4,Win32,59.87665409,62d2b86ed12d650ea7268dd7,64ce5acb97489d65b14ecc7a,64cf49dcad7a3c1f18514c1a,,,,,,,decisionTrl,resources/DP.BMP,resources/DBN.BMP,Door2,-0.393229167,-0.063802083,1,0,0,2.1935,optionLeft,40,845,1,15,0,15,0,1,,,,,,,,,,,,,,,,,,,,,,,,,,,,,,,,,,,,,,,
,,,,,,,,2023-08-06_08h21.28.735,HF_wild_card,2022.2.4,Win32,59.87665409,62d2b86ed12d650ea7268dd7,64ce5acb97489d65b14ecc7a,64cf49dcad7a3c1f18514c1a,,,,,,,decisionTrl,resources/DBN.BMP,resources/DR.BMP,Door1,-0.401041667,0.00390625,1,0,0,1.5979,optionLeft,30,875,1,16,0,16,0,1,,,,,,,,,,,,,,,,,,,,,,,,,,,,,,,,,,,,,,,
,,,,,,,,2023-08-06_08h21.28.735,HF_wild_card,2022.2.4,Win32,59.87665409,62d2b86ed12d650ea7268dd7,64ce5acb97489d65b14ecc7a,64cf49dcad7a3c1f18514c1a,,,,,,,ctch,resources/DY.BMP,resources/DBN.BMP,Door4,-0.395833333,0.0078125,1,0,0,1.8072,optionLeft,80,955,1,17,0,17,0,1,,,,,,,,,,,,,,,,,,,,,,,,,,,,,,,,,,,,,,,
,,,,,,,,2023-08-06_08h21.28.735,HF_wild_card,2022.2.4,Win32,59.87665409,62d2b86ed12d650ea7268dd7,64ce5acb97489d65b14ecc7a,64cf49dcad7a3c1f18514c1a,,,,,,,decisionTrl,resources/DR.BMP,resources/DBN.BMP,Door1,0.41015625,-0.0078125,1,0,0,1.1951,optionRight,30,985,1,18,0,18,0,1,,,,,,,,,,,,,,,,,,,,,,,,,,,,,,,,,,,,,,,
,,,,,,,,2023-08-06_08h21.28.735,HF_wild_card,2022.2.4,Win32,59.87665409,62d2b86ed12d650ea7268dd7,64ce5acb97489d65b14ecc7a,64cf49dcad7a3c1f18514c1a,,,,,,,sngl,resources/Empty.png,resources/DR.BMP,WildCard_NonEx,0.397135417,-0.044270833,1,0,0,1.0102,optionRight,45,1030,1,19,0,19,0,1,,,,,,,,,,,,,,,,,,,,,,,,,,,,,,,,,,,,,,,
,,,,,,,,2023-08-06_08h21.28.735,HF_wild_card,2022.2.4,Win32,59.87665409,62d2b86ed12d650ea7268dd7,64ce5acb97489d65b14ecc7a,64cf49dcad7a3c1f18514c1a,,,,,,,sngl,resources/Empty.png,resources/DR.BMP,WildCard_NonEx,0.389322917,-0.063802083,1,0,0,0.7593,optionRight,55,1085,1,20,0,20,0,1,,,,,,,,,,,,,,,,,,,,,,,,,,,,,,,,,,,,,,,
,,,,,,,,2023-08-06_08h21.28.735,HF_wild_card,2022.2.4,Win32,59.87665409,62d2b86ed12d650ea7268dd7,64ce5acb97489d65b14ecc7a,64cf49dcad7a3c1f18514c1a,,,,,,,decisionTrl,resources/DB.BMP,resources/DY.BMP,Door3,-0.412760417,-0.048177083,1,0,0,1.4592,optionLeft,70,1155,1,21,0,21,0,1,,,,,,,,,,,,,,,,,,,,,,,,,,,,,,,,,,,,,,,
,,,,,,,,2023-08-06_08h21.28.735,HF_wild_card,2022.2.4,Win32,59.87665409,62d2b86ed12d650ea7268dd7,64ce5acb97489d65b14ecc7a,64cf49dcad7a3c1f18514c1a,,,,,,,ctch,resources/DB.BMP,resources/DP.BMP,Door3,-0.444010417,-0.052083333,1,0,0,1.2217,optionLeft,70,1225,1,22,0,22,0,1,,,,,,,,,,,,,,,,,,,,,,,,,,,,,,,,,,,,,,,
,,,,,,,,2023-08-06_08h21.28.735,HF_wild_card,2022.2.4,Win32,59.87665409,62d2b86ed12d650ea7268dd7,64ce5acb97489d65b14ecc7a,64cf49dcad7a3c1f18514c1a,,,,,,,sngl,resources/DB.BMP,resources/Empty.png,Door3,-0.390625,-0.044270833,1,0,0,0.9564,optionLeft,70,1295,1,23,0,23,0,1,,,,,,,,,,,,,,,,,,,,,,,,,,,,,,,,,,,,,,,
,,,,,,,,2023-08-06_08h21.28.735,HF_wild_card,2022.2.4,Win32,59.87665409,62d2b86ed12d650ea7268dd7,64ce5acb97489d65b14ecc7a,64cf49dcad7a3c1f18514c1a,,,,,,,sngl,resources/DY.BMP,resources/Empty.png,Door4,-0.397135417,-0.033854167,1,0,0,1.078,optionLeft,80,1375,1,24,0,24,0,1,,,,,,,,,,,,,,,,,,,,,,,,,,,,,,,,,,,,,,,
,,,,,,,,2023-08-06_08h21.28.735,HF_wild_card,2022.2.4,Win32,59.87665409,62d2b86ed12d650ea7268dd7,64ce5acb97489d65b14ecc7a,64cf49dcad7a3c1f18514c1a,,,,,,,sngl,resources/Empty.png,resources/DB.BMP,Door3,0.388020833,-0.040364583,1,0,0,0.9944,optionRight,70,1445,1,25,0,25,0,1,,,,,,,,,,,,,,,,,,,,,,,,,,,,,,,,,,,,,,,
,,,,,,,,2023-08-06_08h21.28.735,HF_wild_card,2022.2.4,Win32,59.87665409,62d2b86ed12d650ea7268dd7,64ce5acb97489d65b14ecc7a,64cf49dcad7a3c1f18514c1a,,,,,,,decisionTrl,resources/DBN.BMP,resources/DP.BMP,Door1,-0.369791667,-0.040364583,1,0,0,2.2272,optionLeft,30,1475,1,26,0,26,0,1,,,,,,,,,,,,,,,,,,,,,,,,,,,,,,,,,,,,,,,
,,,,,,,,2023-08-06_08h21.28.735,HF_wild_card,2022.2.4,Win32,59.87665409,62d2b86ed12d650ea7268dd7,64ce5acb97489d65b14ecc7a,64cf49dcad7a3c1f18514c1a,,,,,,,decisionTrl,resources/DP.BMP,resources/DBN.BMP,Door2,-0.334635417,-0.053385417,1,0,0,1.1963,optionLeft,40,1515,1,27,0,27,0,1,,,,,,,,,,,,,,,,,,,,,,,,,,,,,,,,,,,,,,,
,,,,,,,,2023-08-06_08h21.28.735,HF_wild_card,2022.2.4,Win32,59.87665409,62d2b86ed12d650ea7268dd7,64ce5acb97489d65b14ecc7a,64cf49dcad7a3c1f18514c1a,,,,,,,sngl,resources/DP.BMP,resources/Empty.png,Door2,-0.372395833,-0.0703125,1,0,0,0.9643,optionLeft,40,1555,1,28,0,28,0,1,,,,,,,,,,,,,,,,,,,,,,,,,,,,,,,,,,,,,,,
,,,,,,,,2023-08-06_08h21.28.735,HF_wild_card,2022.2.4,Win32,59.87665409,62d2b86ed12d650ea7268dd7,64ce5acb97489d65b14ecc7a,64cf49dcad7a3c1f18514c1a,,,,,,,sngl,resources/DR.BMP,resources/Empty.png,WildCard_NonEx,-0.369791667,-0.059895833,1,0,0,0.9482,optionLeft,55,1610,1,29,0,29,0,1,,,,,,,,,,,,,,,,,,,,,,,,,,,,,,,,,,,,,,,
,,,,,,,,2023-08-06_08h21.28.735,HF_wild_card,2022.2.4,Win32,59.87665409,62d2b86ed12d650ea7268dd7,64ce5acb97489d65b14ecc7a,64cf49dcad7a3c1f18514c1a,,,,,,,decisionTrl,resources/DB.BMP,resources/DY.BMP,Door3,-0.365885417,-0.03515625,1,0,0,1.2643,optionLeft,70,1680,1,30,0,30,0,1,,,,,,,,,,,,,,,,,,,,,,,,,,,,,,,,,,,,,,,
,,,,,,,,2023-08-06_08h21.28.735,HF_wild_card,2022.2.4,Win32,59.87665409,62d2b86ed12d650ea7268dd7,64ce5acb97489d65b14ecc7a,64cf49dcad7a3c1f18514c1a,,,,,,,decisionTrl,resources/DY.BMP,resources/DR.BMP,Door4,-0.424479167,-0.03125,1,0,0,1.1562,optionLeft,60,1740,1,31,0,31,0,1,,,,,,,,,,,,,,,,,,,,,,,,,,,,,,,,,,,,,,,
,,,,,,,,2023-08-06_08h21.28.735,HF_wild_card,2022.2.4,Win32,59.87665409,62d2b86ed12d650ea7268dd7,64ce5acb97489d65b14ecc7a,64cf49dcad7a3c1f18514c1a,,,,,,,sngl,resources/Empty.png,resources/DP.BMP,Door2,0.384114583,-0.045572917,1,0,0,0.7621,optionRight,20,1760,1,32,0,32,0,1,,,,,,,,,,,,,,,,,,,,,,,,,,,,,,,,,,,,,,,
,,,,,,,,2023-08-06_08h21.28.735,HF_wild_card,2022.2.4,Win32,59.87665409,62d2b86ed12d650ea7268dd7,64ce5acb97489d65b14ecc7a,64cf49dcad7a3c1f18514c1a,,,,,,,sngl,resources/DBN.BMP,resources/Empty.png,Door1,-0.37109375,0.002604167,1,0,0,0.779,optionLeft,30,1790,1,33,0,33,0,1,,,,,,,,,,,,,,,,,,,,,,,,,,,,,,,,,,,,,,,
,,,,,,,,2023-08-06_08h21.28.735,HF_wild_card,2022.2.4,Win32,59.87665409,62d2b86ed12d650ea7268dd7,64ce5acb97489d65b14ecc7a,64cf49dcad7a3c1f18514c1a,,,,,,,decisionTrl,resources/DBN.BMP,resources/DP.BMP,Door2,0.438802083,-0.044270833,1,0,0,1.5284,optionRight,40,1830,1,34,0,34,0,1,,,,,,,,,,,,,,,,,,,,,,,,,,,,,,,,,,,,,,,
,,,,,,,,2023-08-06_08h21.28.735,HF_wild_card,2022.2.4,Win32,59.87665409,62d2b86ed12d650ea7268dd7,64ce5acb97489d65b14ecc7a,64cf49dcad7a3c1f18514c1a,,,,,,,ctch,resources/DP.BMP,resources/DB.BMP,Door3,0.38671875,-0.055989583,1,0,0,1.2278,optionRight,70,1900,1,35,0,35,0,1,,,,,,,,,,,,,,,,,,,,,,,,,,,,,,,,,,,,,,,
,,,,,,,,2023-08-06_08h21.28.735,HF_wild_card,2022.2.4,Win32,59.87665409,62d2b86ed12d650ea7268dd7,64ce5acb97489d65b14ecc7a,64cf49dcad7a3c1f18514c1a,,,,,,,decisionTrl,resources/DB.BMP,resources/DY.BMP,Door3,-0.3828125,-0.067708333,1,0,0,0.8987,optionLeft,70,1970,1,36,0,36,0,1,,,,,,,,,,,,,,,,,,,,,,,,,,,,,,,,,,,,,,,
,,,,,,,,2023-08-06_08h21.28.735,HF_wild_card,2022.2.4,Win32,59.87665409,62d2b86ed12d650ea7268dd7,64ce5acb97489d65b14ecc7a,64cf49dcad7a3c1f18514c1a,,,,,,,ctch,resources/DBN.BMP,resources/DY.BMP,Door4,0.411458333,-0.0390625,1,0,0,1.0134,optionRight,80,2050,1,37,0,37,0,1,,,,,,,,,,,,,,,,,,,,,,,,,,,,,,,,,,,,,,,
,,,,,,,,2023-08-06_08h21.28.735,HF_wild_card,2022.2.4,Win32,59.87665409,62d2b86ed12d650ea7268dd7,64ce5acb97489d65b14ecc7a,64cf49dcad7a3c1f18514c1a,,,,,,,decisionTrl,resources/DB.BMP,resources/DY.BMP,Door4,0.434895833,-0.028645833,1,0,0,1.2265,optionRight,60,2110,1,38,0,38,0,1,,,,,,,,,,,,,,,,,,,,,,,,,,,,,,,,,,,,,,,
,,,,,,,,2023-08-06_08h21.28.735,HF_wild_card,2022.2.4,Win32,59.87665409,62d2b86ed12d650ea7268dd7,64ce5acb97489d65b14ecc7a,64cf49dcad7a3c1f18514c1a,,,,,,,decisionTrl,resources/DY.BMP,resources/DB.BMP,Door4,-0.381510417,-0.0234375,1,0,0,1.1886,optionLeft,60,2170,1,39,0,39,0,1,,,,,,,,,,,,,,,,,,,,,,,,,,,,,,,,,,,,,,,
,,,,,,,,2023-08-06_08h21.28.735,HF_wild_card,2022.2.4,Win32,59.87665409,62d2b86ed12d650ea7268dd7,64ce5acb97489d65b14ecc7a,64cf49dcad7a3c1f18514c1a,,,,,,,decisionTrl,resources/DP.BMP,resources/DBN.BMP,Door2,-0.397135417,-0.069010417,1,0,0,1.1306,optionLeft,20,2190,1,40,0,40,0,1,,,,,,,,,,,,,,,,,,,,,,,,,,,,,,,,,,,,,,,
,,,,,,,,2023-08-06_08h21.28.735,HF_wild_card,2022.2.4,Win32,59.87665409,62d2b86ed12d650ea7268dd7,64ce5acb97489d65b14ecc7a,64cf49dcad7a3c1f18514c1a,,,,,,,decisionTrl,resources/DY.BMP,resources/DB.BMP,Door4,-0.427083333,-0.026041667,1,0,0,2.1102,optionLeft,80,2270,1,41,0,41,0,1,,,,,,,,,,,,,,,,,,,,,,,,,,,,,,,,,,,,,,,
,,,,,,,,2023-08-06_08h21.28.735,HF_wild_card,2022.2.4,Win32,59.87665409,62d2b86ed12d650ea7268dd7,64ce5acb97489d65b14ecc7a,64cf49dcad7a3c1f18514c1a,,,,,,,sngl,resources/Empty.png,resources/DBN.BMP,Door1,0.408854167,-0.009114583,1,0,0,0.9745,optionRight,30,2300,1,42,0,42,0,1,,,,,,,,,,,,,,,,,,,,,,,,,,,,,,,,,,,,,,,
,,,,,,,,2023-08-06_08h21.28.735,HF_wild_card,2022.2.4,Win32,59.87665409,62d2b86ed12d650ea7268dd7,64ce5acb97489d65b14ecc7a,64cf49dcad7a3c1f18514c1a,,,,,,,decisionTrl,resources/DR.BMP,resources/DB.BMP,Door3,0.440104167,0.0078125,1,0,0,1.3583,optionRight,70,2370,1,43,0,43,0,1,,,,,,,,,,,,,,,,,,,,,,,,,,,,,,,,,,,,,,,
,,,,,,,,2023-08-06_08h21.28.735,HF_wild_card,2022.2.4,Win32,59.87665409,62d2b86ed12d650ea7268dd7,64ce5acb97489d65b14ecc7a,64cf49dcad7a3c1f18514c1a,,,,,,,,,,,,,,,,,,,,,,,,,,0,0,0,0,1,,,,,,,,,,,,,,,,,,,,,,,,,,,,,,,,,,
,,,,,,,,2023-08-06_08h21.28.735,HF_wild_card,2022.2.4,Win32,59.87665409,62d2b86ed12d650ea7268dd7,64ce5acb97489d65b14ecc7a,64cf49dcad7a3c1f18514c1a,,,,,,,decisionTrl,resources/DB.BMP,resources/DY.BMP,Door4,0.427083333,-0.0078125,1,0,0,2.5877,optionRight,60,2430,2,0,0,0,0,1,,,,,,,,,,,,,,,,,,,,,,,,,,,,,,,,,,,,,,,
,,,,,,,,2023-08-06_08h21.28.735,HF_wild_card,2022.2.4,Win32,59.87665409,62d2b86ed12d650ea7268dd7,64ce5acb97489d65b14ecc7a,64cf49dcad7a3c1f18514c1a,,,,,,,decisionTrl,resources/DBN.BMP,resources/DP.BMP,Door1,-0.411458333,0.013020833,1,0,0,1.1724,optionLeft,30,2460,2,1,0,1,0,1,,,,,,,,,,,,,,,,,,,,,,,,,,,,,,,,,,,,,,,
,,,,,,,,2023-08-06_08h21.28.735,HF_wild_card,2022.2.4,Win32,59.87665409,62d2b86ed12d650ea7268dd7,64ce5acb97489d65b14ecc7a,64cf49dcad7a3c1f18514c1a,,,,,,,sngl,resources/DR.BMP,resources/Empty.png,WildCard_NonEx,-0.408854167,-0.059895833,1,0,0,0.8753,optionLeft,45,2505,2,2,0,2,0,1,,,,,,,,,,,,,,,,,,,,,,,,,,,,,,,,,,,,,,,
,,,,,,,,2023-08-06_08h21.28.735,HF_wild_card,2022.2.4,Win32,59.87665409,62d2b86ed12d650ea7268dd7,64ce5acb97489d65b14ecc7a,64cf49dcad7a3c1f18514c1a,,,,,,,sngl,resources/DP.BMP,resources/Empty.png,Door2,-0.397135417,-0.065104167,1,0,0,0.8102,optionLeft,20,2525,2,3,0,3,0,1,,,,,,,,,,,,,,,,,,,,,,,,,,,,,,,,,,,,,,,
,,,,,,,,2023-08-06_08h21.28.735,HF_wild_card,2022.2.4,Win32,59.87665409,62d2b86ed12d650ea7268dd7,64ce5acb97489d65b14ecc7a,64cf49dcad7a3c1f18514c1a,,,,,,,ctch,resources/DY.BMP,resources/DBN.BMP,Door4,-0.41015625,-0.046875,1,0,0,0.8009,optionLeft,80,2605,2,4,0,4,0,1,,,,,,,,,,,,,,,,,,,,,,,,,,,,,,,,,,,,,,,
,,,,,,,,2023-08-06_08h21.28.735,HF_wild_card,2022.2.4,Win32,59.87665409,62d2b86ed12d650ea7268dd7,64ce5acb97489d65b14ecc7a,64cf49dcad7a3c1f18514c1a,,,,,,,ctch,resources/DP.BMP,resources/DB.BMP,Door3,0.38671875,-0.052083333,1,0,0,0.9016,optionRight,70,2675,2,5,0,5,0,1,,,,,,,,,,,,,,,,,,,,,,,,,,,,,,,,,,,,,,,
,,,,,,,,2023-08-06_08h21.28.735,HF_wild_card,2022.2.4,Win32,59.87665409,62d2b86ed12d650ea7268dd7,64ce5acb97489d65b14ecc7a,64cf49dcad7a3c1f18514c1a,,,,,,,sngl,resources/Empty.png,resources/DY.BMP,Door4,0.36328125,-0.0546875,1,0,0,1.0162,optionRight,80,2755,2,6,0,6,0,1,,,,,,,,,,,,,,,,,,,,,,,,,,,,,,,,,,,,,,,
,,,,,,,,2023-08-06_08h21.28.735,HF_wild_card,2022.2.4,Win32,59.87665409,62d2b86ed12d650ea7268dd7,64ce5acb97489d65b14ecc7a,64cf49dcad7a3c1f18514c1a,,,,,,,sngl,resources/Empty.png,resources/DB.BMP,Door3,0.421875,-0.041666667,1,0,0,0.8416,optionRight,70,2825,2,7,0,7,0,1,,,,,,,,,,,,,,,,,,,,,,,,,,,,,,,,,,,,,,,
,,,,,,,,2023-08-06_08h21.28.735,HF_wild_card,2022.2.4,Win32,59.87665409,62d2b86ed12d650ea7268dd7,64ce5acb97489d65b14ecc7a,64cf49dcad7a3c1f18514c1a,,,,,,,ctch,resources/DP.BMP,resources/DB.BMP,Door3,0.423177083,-0.016927083,1,0,0,0.9617,optionRight,70,2895,2,8,0,8,0,1,,,,,,,,,,,,,,,,,,,,,,,,,,,,,,,,,,,,,,,
,,,,,,,,2023-08-06_08h21.28.735,HF_wild_card,2022.2.4,Win32,59.87665409,62d2b86ed12d650ea7268dd7,64ce5acb97489d65b14ecc7a,64cf49dcad7a3c1f18514c1a,,,,,,,decisionTrl,resources/DR.BMP,resources/DP.BMP,WildCard_NonEx,-0.391927083,-0.044270833,1,0,0,1.5565,optionLeft,45,2940,2,9,0,9,0,1,,,,,,,,,,,,,,,,,,,,,,,,,,,,,,,,,,,,,,,
,,,,,,,,2023-08-06_08h21.28.735,HF_wild_card,2022.2.4,Win32,59.87665409,62d2b86ed12d650ea7268dd7,64ce5acb97489d65b14ecc7a,64cf49dcad7a3c1f18514c1a,,,,,,,decisionTrl,resources/DP.BMP,resources/DBN.BMP,Door2,-0.33984375,-0.0390625,1,0,0,1.581,optionLeft,40,2980,2,10,0,10,0,1,,,,,,,,,,,,,,,,,,,,,,,,,,,,,,,,,,,,,,,
,,,,,,,,2023-08-06_08h21.28.735,HF_wild_card,2022.2.4,Win32,59.87665409,62d2b86ed12d650ea7268dd7,64ce5acb97489d65b14ecc7a,64cf49dcad7a3c1f18514c1a,,,,,,,decisionTrl,resources/DB.BMP,resources/DY.BMP,Door4,0.423177083,-0.006510417,1,0,0,1.4983,optionRight,80,3060,2,11,0,11,0,1,,,,,,,,,,,,,,,,,,,,,,,,,,,,,,,,,,,,,,,
,,,,,,,,2023-08-06_08h21.28.735,HF_wild_card,2022.2.4,Win32,59.87665409,62d2b86ed12d650ea7268dd7,64ce5acb97489d65b14ecc7a,64cf49dcad7a3c1f18514c1a,,,,,,,decisionTrl,resources/DP.BMP,resources/DBN.BMP,Door2,-0.380208333,-0.071614583,1,0,0,1.2785,optionLeft,40,3100,2,12,0,12,0,1,,,,,,,,,,,,,,,,,,,,,,,,,,,,,,,,,,,,,,,
,,,,,,,,2023-08-06_08h21.28.735,HF_wild_card,2022.2.4,Win32,59.87665409,62d2b86ed12d650ea7268dd7,64ce5acb97489d65b14ecc7a,64cf49dcad7a3c1f18514c1a,,,,,,,ctch,resources/DBN.BMP,resources/DY.BMP,Door4,0.455729167,-0.005208333,1,0,0,0.892,optionRight,60,3160,2,13,0,13,0,1,,,,,,,,,,,,,,,,,,,,,,,,,,,,,,,,,,,,,,,
,,,,,,,,2023-08-06_08h21.28.735,HF_wild_card,2022.2.4,Win32,59.87665409,62d2b86ed12d650ea7268dd7,64ce5acb97489d65b14ecc7a,64cf49dcad7a3c1f18514c1a,,,,,,,decisionTrl,resources/DB.BMP,resources/DY.BMP,Door4,0.4140625,-0.028645833,1,0,0,1.5544,optionRight,60,3220,2,14,0,14,0,1,,,,,,,,,,,,,,,,,,,,,,,,,,,,,,,,,,,,,,,
,,,,,,,,2023-08-06_08h21.28.735,HF_wild_card,2022.2.4,Win32,59.87665409,62d2b86ed12d650ea7268dd7,64ce5acb97489d65b14ecc7a,64cf49dcad7a3c1f18514c1a,,,,,,,ctch,resources/DB.BMP,resources/DP.BMP,Door3,-0.3359375,-0.040364583,1,0,0,0.9486,optionLeft,70,3290,2,15,0,15,0,1,,,,,,,,,,,,,,,,,,,,,,,,,,,,,,,,,,,,,,,
,,,,,,,,2023-08-06_08h21.28.735,HF_wild_card,2022.2.4,Win32,59.87665409,62d2b86ed12d650ea7268dd7,64ce5acb97489d65b14ecc7a,64cf49dcad7a3c1f18514c1a,,,,,,,sngl,resources/DY.BMP,resources/Empty.png,Door4,-0.3671875,-0.03515625,1,0,0,0.836,optionLeft,60,3350,2,16,0,16,0,1,,,,,,,,,,,,,,,,,,,,,,,,,,,,,,,,,,,,,,,
,,,,,,,,2023-08-06_08h21.28.735,HF_wild_card,2022.2.4,Win32,59.87665409,62d2b86ed12d650ea7268dd7,64ce5acb97489d65b14ecc7a,64cf49dcad7a3c1f18514c1a,,,,,,,decisionTrl,resources/DY.BMP,resources/DB.BMP,Door4,-0.342447917,-0.018229167,1,0,0,1.377,optionLeft,80,3430,2,17,0,17,0,1,,,,,,,,,,,,,,,,,,,,,,,,,,,,,,,,,,,,,,,
,,,,,,,,2023-08-06_08h21.28.735,HF_wild_card,2022.2.4,Win32,59.87665409,62d2b86ed12d650ea7268dd7,64ce5acb97489d65b14ecc7a,64cf49dcad7a3c1f18514c1a,,,,,,,decisionTrl,resources/DY.BMP,resources/DB.BMP,Door4,-0.485677083,-0.029947917,1,0,0,0.9164,optionLeft,80,3510,2,18,0,18,0,1,,,,,,,,,,,,,,,,,,,,,,,,,,,,,,,,,,,,,,,
,,,,,,,,2023-08-06_08h21.28.735,HF_wild_card,2022.2.4,Win32,59.87665409,62d2b86ed12d650ea7268dd7,64ce5acb97489d65b14ecc7a,64cf49dcad7a3c1f18514c1a,,,,,,,ctch,resources/DY.BMP,resources/DBN.BMP,Door4,-0.399739583,-0.041666667,1,0,0,0.8276,optionLeft,60,3570,2,19,0,19,0,1,,,,,,,,,,,,,,,,,,,,,,,,,,,,,,,,,,,,,,,
,,,,,,,,2023-08-06_08h21.28.735,HF_wild_card,2022.2.4,Win32,59.87665409,62d2b86ed12d650ea7268dd7,64ce5acb97489d65b14ecc7a,64cf49dcad7a3c1f18514c1a,,,,,,,sngl,resources/DB.BMP,resources/Empty.png,Door3,-0.359375,-0.05859375,1,0,0,0.9128,optionLeft,70,3640,2,20,0,20,0,1,,,,,,,,,,,,,,,,,,,,,,,,,,,,,,,,,,,,,,,
,,,,,,,,2023-08-06_08h21.28.735,HF_wild_card,2022.2.4,Win32,59.87665409,62d2b86ed12d650ea7268dd7,64ce5acb97489d65b14ecc7a,64cf49dcad7a3c1f18514c1a,,,,,,,decisionTrl,resources/DBN.BMP,resources/DP.BMP,Door2,0.3359375,-0.053385417,1,0,0,2.013,optionRight,20,3660,2,21,0,21,0,1,,,,,,,,,,,,,,,,,,,,,,,,,,,,,,,,,,,,,,,
,,,,,,,,2023-08-06_08h21.28.735,HF_wild_card,2022.2.4,Win32,59.87665409,62d2b86ed12d650ea7268dd7,64ce5acb97489d65b14ecc7a,64cf49dcad7a3c1f18514c1a,,,,,,,decisionTrl,resources/DP.BMP,resources/DBN.BMP,Door2,-0.423177083,-0.0625,1,0,0,0.9269,optionLeft,40,3700,2,22,0,22,0,1,,,,,,,,,,,,,,,,,,,,,,,,,,,,,,,,,,,,,,,
,,,,,,,,2023-08-06_08h21.28.735,HF_wild_card,2022.2.4,Win32,59.87665409,62d2b86ed12d650ea7268dd7,64ce5acb97489d65b14ecc7a,64cf49dcad7a3c1f18514c1a,,,,,,,decisionTrl,resources/DBN.BMP,resources/DR.BMP,WildCard_NonEx,0.447916667,-0.061197917,1,0,0,0.8298,optionRight,45,3745,2,23,0,23,0,1,,,,,,,,,,,,,,,,,,,,,,,,,,,,,,,,,,,,,,,
,,,,,,,,2023-08-06_08h21.28.735,HF_wild_card,2022.2.4,Win32,59.87665409,62d2b86ed12d650ea7268dd7,64ce5acb97489d65b14ecc7a,64cf49dcad7a3c1f18514c1a,,,,,,,decisionTrl,resources/DBN.BMP,resources/DP.BMP,Door2,0.458333333,-0.0234375,1,0,0,1.143,optionRight,40,3785,2,24,0,24,0,1,,,,,,,,,,,,,,,,,,,,,,,,,,,,,,,,,,,,,,,
,,,,,,,,2023-08-06_08h21.28.735,HF_wild_card,2022.2.4,Win32,59.87665409,62d2b86ed12d650ea7268dd7,64ce5acb97489d65b14ecc7a,64cf49dcad7a3c1f18514c1a,,,,,,,decisionTrl,resources/DB.BMP,resources/DY.BMP,Door4,0.436197917,-0.044270833,1,0,0,1.5929,optionRight,80,3865,2,25,0,25,0,1,,,,,,,,,,,,,,,,,,,,,,,,,,,,,,,,,,,,,,,
,,,,,,,,2023-08-06_08h21.28.735,HF_wild_card,2022.2.4,Win32,59.87665409,62d2b86ed12d650ea7268dd7,64ce5acb97489d65b14ecc7a,64cf49dcad7a3c1f18514c1a,,,,,,,sngl,resources/Empty.png,resources/DR.BMP,WildCard_NonEx,0.420572917,-0.044270833,1,0,0,0.9818,optionRight,55,3920,2,26,0,26,0,1,,,,,,,,,,,,,,,,,,,,,,,,,,,,,,,,,,,,,,,
,,,,,,,,2023-08-06_08h21.28.735,HF_wild_card,2022.2.4,Win32,59.87665409,62d2b86ed12d650ea7268dd7,64ce5acb97489d65b14ecc7a,64cf49dcad7a3c1f18514c1a,,,,,,,decisionTrl,resources/DY.BMP,resources/DB.BMP,Door4,-0.34765625,-0.041666667,1,0,0,1.1443,optionLeft,60,3980,2,27,0,27,0,1,,,,,,,,,,,,,,,,,,,,,,,,,,,,,,,,,,,,,,,
,,,,,,,,2023-08-06_08h21.28.735,HF_wild_card,2022.2.4,Win32,59.87665409,62d2b86ed12d650ea7268dd7,64ce5acb97489d65b14ecc7a,64cf49dcad7a3c1f18514c1a,,,,,,,sngl,resources/Empty.png,resources/DBN.BMP,Door1,0.3203125,-0.02734375,1,0,0,0.9602,optionRight,30,4010,2,28,0,28,0,1,,,,,,,,,,,,,,,,,,,,,,,,,,,,,,,,,,,,,,,
,,,,,,,,2023-08-06_08h21.28.735,HF_wild_card,2022.2.4,Win32,59.87665409,62d2b86ed12d650ea7268dd7,64ce5acb97489d65b14ecc7a,64cf49dcad7a3c1f18514c1a,,,,,,,sngl,resources/DBN.BMP,resources/Empty.png,Door1,-0.338541667,-0.020833333,1,0,0,0.664,optionLeft,30,4040,2,29,0,29,0,1,,,,,,,,,,,,,,,,,,,,,,,,,,,,,,,,,,,,,,,
,,,,,,,,2023-08-06_08h21.28.735,HF_wild_card,2022.2.4,Win32,59.87665409,62d2b86ed12d650ea7268dd7,64ce5acb97489d65b14ecc7a,64cf49dcad7a3c1f18514c1a,,,,,,,decisionTrl,resources/DBN.BMP,resources/DP.BMP,Door1,-0.453125,-0.026041667,1,0,0,0.9172,optionLeft,30,4070,2,30,0,30,0,1,,,,,,,,,,,,,,,,,,,,,,,,,,,,,,,,,,,,,,,
,,,,,,,,2023-08-06_08h21.28.735,HF_wild_card,2022.2.4,Win32,59.87665409,62d2b86ed12d650ea7268dd7,64ce5acb97489d65b14ecc7a,64cf49dcad7a3c1f18514c1a,,,,,,,sngl,resources/Empty.png,resources/DP.BMP,Door2,0.27734375,-0.009114583,1,0,0,0.7436,optionRight,40,4110,2,31,0,31,0,1,,,,,,,,,,,,,,,,,,,,,,,,,,,,,,,,,,,,,,,
,,,,,,,,2023-08-06_08h21.28.735,HF_wild_card,2022.2.4,Win32,59.87665409,62d2b86ed12d650ea7268dd7,64ce5acb97489d65b14ecc7a,64cf49dcad7a3c1f18514c1a,,,,,,,decisionTrl,resources/DR.BMP,resources/DBN.BMP,WildCard_NonEx,-0.48828125,-0.037760417,1,0,0,1.0902,optionLeft,55,4165,2,32,0,32,0,1,,,,,,,,,,,,,,,,,,,,,,,,,,,,,,,,,,,,,,,
,,,,,,,,2023-08-06_08h21.28.735,HF_wild_card,2022.2.4,Win32,59.87665409,62d2b86ed12d650ea7268dd7,64ce5acb97489d65b14ecc7a,64cf49dcad7a3c1f18514c1a,,,,,,,ctch,resources/DB.BMP,resources/DP.BMP,Door3,-0.4296875,-0.049479167,1,0,0,1.5926,optionLeft,70,4235,2,33,0,33,0,1,,,,,,,,,,,,,,,,,,,,,,,,,,,,,,,,,,,,,,,
,,,,,,,,2023-08-06_08h21.28.735,HF_wild_card,2022.2.4,Win32,59.87665409,62d2b86ed12d650ea7268dd7,64ce5acb97489d65b14ecc7a,64cf49dcad7a3c1f18514c1a,,,,,,,decisionTrl,resources/DR.BMP,resources/DB.BMP,WildCard_NonEx,-0.440104167,-0.078125,1,0,0,1.2432,optionLeft,55,4290,2,34,0,34,0,1,,,,,,,,,,,,,,,,,,,,,,,,,,,,,,,,,,,,,,,
,,,,,,,,2023-08-06_08h21.28.735,HF_wild_card,2022.2.4,Win32,59.87665409,62d2b86ed12d650ea7268dd7,64ce5acb97489d65b14ecc7a,64cf49dcad7a3c1f18514c1a,,,,,,,decisionTrl,resources/DR.BMP,resources/DY.BMP,Door4,0.3828125,-0.020833333,1,0,0,0.9618,optionRight,80,4370,2,35,0,35,0,1,,,,,,,,,,,,,,,,,,,,,,,,,,,,,,,,,,,,,,,
,,,,,,,,2023-08-06_08h21.28.735,HF_wild_card,2022.2.4,Win32,59.87665409,62d2b86ed12d650ea7268dd7,64ce5acb97489d65b14ecc7a,64cf49dcad7a3c1f18514c1a,,,,,,,decisionTrl,resources/DB.BMP,resources/DR.BMP,Door3,-0.361979167,-0.065104167,1,0,0,1.29,optionLeft,70,4440,2,36,0,36,0,1,,,,,,,,,,,,,,,,,,,,,,,,,,,,,,,,,,,,,,,
,,,,,,,,2023-08-06_08h21.28.735,HF_wild_card,2022.2.4,Win32,59.87665409,62d2b86ed12d650ea7268dd7,64ce5acb97489d65b14ecc7a,64cf49dcad7a3c1f18514c1a,,,,,,,sngl,resources/DR.BMP,resources/Empty.png,WildCard_NonEx,-0.380208333,-0.04296875,1,0,0,0.7178,optionLeft,55,4495,2,37,0,37,0,1,,,,,,,,,,,,,,,,,,,,,,,,,,,,,,,,,,,,,,,
,,,,,,,,2023-08-06_08h21.28.735,HF_wild_card,2022.2.4,Win32,59.87665409,62d2b86ed12d650ea7268dd7,64ce5acb97489d65b14ecc7a,64cf49dcad7a3c1f18514c1a,,,,,,,decisionTrl,resources/DY.BMP,resources/DR.BMP,Door4,-0.4140625,-0.055989583,1,0,0,0.891,optionLeft,80,4575,2,38,0,38,0,1,,,,,,,,,,,,,,,,,,,,,,,,,,,,,,,,,,,,,,,
,,,,,,,,2023-08-06_08h21.28.735,HF_wild_card,2022.2.4,Win32,59.87665409,62d2b86ed12d650ea7268dd7,64ce5acb97489d65b14ecc7a,64cf49dcad7a3c1f18514c1a,,,,,,,decisionTrl,resources/DY.BMP,resources/DB.BMP,Door4,-0.34765625,-0.0546875,1,0,0,1.4729,optionLeft,60,4635,2,39,0,39,0,1,,,,,,,,,,,,,,,,,,,,,,,,,,,,,,,,,,,,,,,
,,,,,,,,2023-08-06_08h21.28.735,HF_wild_card,2022.2.4,Win32,59.87665409,62d2b86ed12d650ea7268dd7,64ce5acb97489d65b14ecc7a,64cf49dcad7a3c1f18514c1a,,,,,,,ctch,resources/DBN.BMP,resources/DY.BMP,Door4,0.401041667,-0.05078125,1,0,0,0.8602,optionRight,80,4715,2,40,0,40,0,1,,,,,,,,,,,,,,,,,,,,,,,,,,,,,,,,,,,,,,,
,,,,,,,,2023-08-06_08h21.28.735,HF_wild_card,2022.2.4,Win32,59.87665409,62d2b86ed12d650ea7268dd7,64ce5acb97489d65b14ecc7a,64cf49dcad7a3c1f18514c1a,,,,,,,sngl,resources/Empty.png,resources/DR.BMP,WildCard_NonEx,0.329427083,-0.05078125,1,0,0,1.533,optionRight,45,4760,2,41,0,41,0,1,,,,,,,,,,,,,,,,,,,,,,,,,,,,,,,,,,,,,,,
,,,,,,,,2023-08-06_08h21.28.735,HF_wild_card,2022.2.4,Win32,59.87665409,62d2b86ed12d650ea7268dd7,64ce5acb97489d65b14ecc7a,64cf49dcad7a3c1f18514c1a,,,,,,,decisionTrl,resources/DP.BMP,resources/DR.BMP,WildCard_NonEx,0.358072917,-0.0703125,1,0,0,1.0711,optionRight,45,4805,2,42,0,42,0,1,,,,,,,,,,,,,,,,,,,,,,,,,,,,,,,,,,,,,,,
,,,,,,,,2023-08-06_08h21.28.735,HF_wild_card,2022.2.4,Win32,59.87665409,62d2b86ed12d650ea7268dd7,64ce5acb97489d65b14ecc7a,64cf49dcad7a3c1f18514c1a,,,,,,,decisionTrl,resources/DP.BMP,resources/DBN.BMP,Door2,-0.354166667,-0.03125,1,0,0,1.1119,optionLeft,20,4825,2,43,0,43,0,1,,,,,,,,,,,,,,,,,,,,,,,,,,,,,,,,,,,,,,,
,,,,,,,,2023-08-06_08h21.28.735,HF_wild_card,2022.2.4,Win32,59.87665409,62d2b86ed12d650ea7268dd7,64ce5acb97489d65b14ecc7a,64cf49dcad7a3c1f18514c1a,,,,,,,,,,,,,,,,,,,,,,,,,,1,0,1,0,1,,,,,,,,,,,,,,,,,,,,,,,,,,,,,,,,,,
,,,,,,,,2023-08-06_08h21.28.735,HF_wild_card,2022.2.4,Win32,59.87665409,62d2b86ed12d650ea7268dd7,64ce5acb97489d65b14ecc7a,64cf49dcad7a3c1f18514c1a,,,,,,,decisionTrl,resources/DY.BMP,resources/DB.BMP,Door4,-0.403645833,-0.03515625,1,0,0,1.5386,optionLeft,60,4885,3,0,0,0,0,1,,,,,,,,,,,,,,,,,,,,,,,,,,,,,,,,,,,,,,,
,,,,,,,,2023-08-06_08h21.28.735,HF_wild_card,2022.2.4,Win32,59.87665409,62d2b86ed12d650ea7268dd7,64ce5acb97489d65b14ecc7a,64cf49dcad7a3c1f18514c1a,,,,,,,sngl,resources/Empty.png,resources/DB.BMP,Door3,0.416666667,-0.016927083,1,0,0,0.6331,optionRight,70,4955,3,1,0,1,0,1,,,,,,,,,,,,,,,,,,,,,,,,,,,,,,,,,,,,,,,
,,,,,,,,2023-08-06_08h21.28.735,HF_wild_card,2022.2.4,Win32,59.87665409,62d2b86ed12d650ea7268dd7,64ce5acb97489d65b14ecc7a,64cf49dcad7a3c1f18514c1a,,,,,,,ctch,resources/DY.BMP,resources/DBN.BMP,Door4,-0.393229167,-0.01953125,1,0,0,0.9931,optionLeft,80,5035,3,2,0,2,0,1,,,,,,,,,,,,,,,,,,,,,,,,,,,,,,,,,,,,,,,
,,,,,,,,2023-08-06_08h21.28.735,HF_wild_card,2022.2.4,Win32,59.87665409,62d2b86ed12d650ea7268dd7,64ce5acb97489d65b14ecc7a,64cf49dcad7a3c1f18514c1a,,,,,,,decisionTrl,resources/DY.BMP,resources/DB.BMP,Door4,-0.438802083,-0.071614583,1,0,0,0.9759,optionLeft,80,5115,3,3,0,3,0,1,,,,,,,,,,,,,,,,,,,,,,,,,,,,,,,,,,,,,,,
,,,,,,,,2023-08-06_08h21.28.735,HF_wild_card,2022.2.4,Win32,59.87665409,62d2b86ed12d650ea7268dd7,64ce5acb97489d65b14ecc7a,64cf49dcad7a3c1f18514c1a,,,,,,,sngl,resources/Empty.png,resources/DR.BMP,WildCard_NonEx,0.395833333,-0.048177083,1,0,0,0.6887,optionRight,55,5170,3,4,0,4,0,1,,,,,,,,,,,,,,,,,,,,,,,,,,,,,,,,,,,,,,,
,,,,,,,,2023-08-06_08h21.28.735,HF_wild_card,2022.2.4,Win32,59.87665409,62d2b86ed12d650ea7268dd7,64ce5acb97489d65b14ecc7a,64cf49dcad7a3c1f18514c1a,,,,,,,sngl,resources/DB.BMP,resources/Empty.png,Door3,-0.329427083,-0.028645833,1,0,0,0.6401,optionLeft,70,5240,3,5,0,5,0,1,,,,,,,,,,,,,,,,,,,,,,,,,,,,,,,,,,,,,,,
,,,,,,,,2023-08-06_08h21.28.735,HF_wild_card,2022.2.4,Win32,59.87665409,62d2b86ed12d650ea7268dd7,64ce5acb97489d65b14ecc7a,64cf49dcad7a3c1f18514c1a,,,,,,,decisionTrl,resources/DP.BMP,resources/DBN.BMP,Door1,0.372395833,0.013020833,1,0,0,1.3615,optionRight,30,5270,3,6,0,6,0,1,,,,,,,,,,,,,,,,,,,,,,,,,,,,,,,,,,,,,,,
,,,,,,,,2023-08-06_08h21.28.735,HF_wild_card,2022.2.4,Win32,59.87665409,62d2b86ed12d650ea7268dd7,64ce5acb97489d65b14ecc7a,64cf49dcad7a3c1f18514c1a,,,,,,,decisionTrl,resources/DB.BMP,resources/DY.BMP,Door4,0.395833333,-0.040364583,1,0,0,1.3663,optionRight,80,5350,3,7,0,7,0,1,,,,,,,,,,,,,,,,,,,,,,,,,,,,,,,,,,,,,,,
,,,,,,,,2023-08-06_08h21.28.735,HF_wild_card,2022.2.4,Win32,59.87665409,62d2b86ed12d650ea7268dd7,64ce5acb97489d65b14ecc7a,64cf49dcad7a3c1f18514c1a,,,,,,,decisionTrl,resources/DY.BMP,resources/DR.BMP,Door4,-0.359375,-0.015625,1,0,0,1.129,optionLeft,80,5430,3,8,0,8,0,1,,,,,,,,,,,,,,,,,,,,,,,,,,,,,,,,,,,,,,,
,,,,,,,,2023-08-06_08h21.28.735,HF_wild_card,2022.2.4,Win32,59.87665409,62d2b86ed12d650ea7268dd7,64ce5acb97489d65b14ecc7a,64cf49dcad7a3c1f18514c1a,,,,,,,decisionTrl,resources/DP.BMP,resources/DBN.BMP,Door1,0.42578125,-0.010416667,1,0,0,1.2276,optionRight,30,5460,3,9,0,9,0,1,,,,,,,,,,,,,,,,,,,,,,,,,,,,,,,,,,,,,,,
,,,,,,,,2023-08-06_08h21.28.735,HF_wild_card,2022.2.4,Win32,59.87665409,62d2b86ed12d650ea7268dd7,64ce5acb97489d65b14ecc7a,64cf49dcad7a3c1f18514c1a,,,,,,,decisionTrl,resources/DB.BMP,resources/DY.BMP,Door4,0.368489583,-0.022135417,1,0,0,1.3459,optionRight,80,5540,3,10,0,10,0,1,,,,,,,,,,,,,,,,,,,,,,,,,,,,,,,,,,,,,,,
,,,,,,,,2023-08-06_08h21.28.735,HF_wild_card,2022.2.4,Win32,59.87665409,62d2b86ed12d650ea7268dd7,64ce5acb97489d65b14ecc7a,64cf49dcad7a3c1f18514c1a,,,,,,,ctch,resources/DP.BMP,resources/DB.BMP,Door3,0.427083333,-0.026041667,1,0,0,1.1773,optionRight,70,5610,3,11,0,11,0,1,,,,,,,,,,,,,,,,,,,,,,,,,,,,,,,,,,,,,,,
,,,,,,,,2023-08-06_08h21.28.735,HF_wild_card,2022.2.4,Win32,59.87665409,62d2b86ed12d650ea7268dd7,64ce5acb97489d65b14ecc7a,64cf49dcad7a3c1f18514c1a,,,,,,,decisionTrl,resources/DBN.BMP,resources/DP.BMP,Door1,-0.338541667,-0.0078125,1,0,0,1.565,optionLeft,30,5640,3,12,0,12,0,1,,,,,,,,,,,,,,,,,,,,,,,,,,,,,,,,,,,,,,,
,,,,,,,,2023-08-06_08h21.28.735,HF_wild_card,2022.2.4,Win32,59.87665409,62d2b86ed12d650ea7268dd7,64ce5acb97489d65b14ecc7a,64cf49dcad7a3c1f18514c1a,,,,,,,decisionTrl,resources/DB.BMP,resources/DR.BMP,Door3,-0.372395833,-0.04296875,1,0,0,1.4657,optionLeft,70,5710,3,13,0,13,0,1,,,,,,,,,,,,,,,,,,,,,,,,,,,,,,,,,,,,,,,
,,,,,,,,2023-08-06_08h21.28.735,HF_wild_card,2022.2.4,Win32,59.87665409,62d2b86ed12d650ea7268dd7,64ce5acb97489d65b14ecc7a,64cf49dcad7a3c1f18514c1a,,,,,,,decisionTrl,resources/DP.BMP,resources/DBN.BMP,Door1,0.361979167,-0.015625,1,0,0,1.4399,optionRight,30,5740,3,14,0,14,0,1,,,,,,,,,,,,,,,,,,,,,,,,,,,,,,,,,,,,,,,
,,,,,,,,2023-08-06_08h21.28.735,HF_wild_card,2022.2.4,Win32,59.87665409,62d2b86ed12d650ea7268dd7,64ce5acb97489d65b14ecc7a,64cf49dcad7a3c1f18514c1a,,,,,,,ctch,resources/DBN.BMP,resources/DY.BMP,Door4,0.444010417,-0.018229167,1,0,0,1.2795,optionRight,60,5800,3,15,0,15,0,1,,,,,,,,,,,,,,,,,,,,,,,,,,,,,,,,,,,,,,,
,,,,,,,,2023-08-06_08h21.28.735,HF_wild_card,2022.2.4,Win32,59.87665409,62d2b86ed12d650ea7268dd7,64ce5acb97489d65b14ecc7a,64cf49dcad7a3c1f18514c1a,,,,,,,sngl,resources/DR.BMP,resources/Empty.png,WildCard_NonEx,-0.385416667,-0.03515625,1,0,0,0.9497,optionLeft,45,5845,3,16,0,16,0,1,,,,,,,,,,,,,,,,,,,,,,,,,,,,,,,,,,,,,,,
,,,,,,,,2023-08-06_08h21.28.735,HF_wild_card,2022.2.4,Win32,59.87665409,62d2b86ed12d650ea7268dd7,64ce5acb97489d65b14ecc7a,64cf49dcad7a3c1f18514c1a,,,,,,,sngl,resources/DR.BMP,resources/Empty.png,WildCard_NonEx,-0.360677083,-0.0546875,1,0,0,0.7461,optionLeft,55,5900,3,17,0,17,0,1,,,,,,,,,,,,,,,,,,,,,,,,,,,,,,,,,,,,,,,
,,,,,,,,2023-08-06_08h21.28.735,HF_wild_card,2022.2.4,Win32,59.87665409,62d2b86ed12d650ea7268dd7,64ce5acb97489d65b14ecc7a,64cf49dcad7a3c1f18514c1a,,,,,,,sngl,resources/Empty.png,resources/DP.BMP,Door2,0.359375,-0.0234375,1,0,0,0.8458,optionRight,20,5920,3,18,0,18,0,1,,,,,,,,,,,,,,,,,,,,,,,,,,,,,,,,,,,,,,,
,,,,,,,,2023-08-06_08h21.28.735,HF_wild_card,2022.2.4,Win32,59.87665409,62d2b86ed12d650ea7268dd7,64ce5acb97489d65b14ecc7a,64cf49dcad7a3c1f18514c1a,,,,,,,decisionTrl,resources/DBN.BMP,resources/DP.BMP,Door1,-0.3984375,-0.016927083,1,0,0,0.9153,optionLeft,30,5950,3,19,0,19,0,1,,,,,,,,,,,,,,,,,,,,,,,,,,,,,,,,,,,,,,,
,,,,,,,,2023-08-06_08h21.28.735,HF_wild_card,2022.2.4,Win32,59.87665409,62d2b86ed12d650ea7268dd7,64ce5acb97489d65b14ecc7a,64cf49dcad7a3c1f18514c1a,,,,,,,sngl,resources/Empty.png,resources/DBN.BMP,Door1,0.424479167,-0.048177083,1,0,0,0.7111,optionRight,30,5980,3,20,0,20,0,1,,,,,,,,,,,,,,,,,,,,,,,,,,,,,,,,,,,,,,,
,,,,,,,,2023-08-06_08h21.28.735,HF_wild_card,2022.2.4,Win32,59.87665409,62d2b86ed12d650ea7268dd7,64ce5acb97489d65b14ecc7a,64cf49dcad7a3c1f18514c1a,,,,,,,decisionTrl,resources/DR.BMP,resources/DY.BMP,Door4,0.421875,-0.020833333,1,0,0,1.2093,optionRight,60,6040,3,21,0,21,0,1,,,,,,,,,,,,,,,,,,,,,,,,,,,,,,,,,,,,,,,
,,,,,,,,2023-08-06_08h21.28.735,HF_wild_card,2022.2.4,Win32,59.87665409,62d2b86ed12d650ea7268dd7,64ce5acb97489d65b14ecc7a,64cf49dcad7a3c1f18514c1a,,,,,,,decisionTrl,resources/DBN.BMP,resources/DP.BMP,Door1,-0.330729167,-0.006510417,1,0,0,1.4935,optionLeft,30,6070,3,22,0,22,0,1,,,,,,,,,,,,,,,,,,,,,,,,,,,,,,,,,,,,,,,
,,,,,,,,2023-08-06_08h21.28.735,HF_wild_card,2022.2.4,Win32,59.87665409,62d2b86ed12d650ea7268dd7,64ce5acb97489d65b14ecc7a,64cf49dcad7a3c1f18514c1a,,,,,,,ctch,resources/DB.BMP,resources/DP.BMP,Door3,-0.36328125,-0.029947917,1,0,0,0.9765,optionLeft,70,6140,3,23,0,23,0,1,,,,,,,,,,,,,,,,,,,,,,,,,,,,,,,,,,,,,,,
,,,,,,,,2023-08-06_08h21.28.735,HF_wild_card,2022.2.4,Win32,59.87665409,62d2b86ed12d650ea7268dd7,64ce5acb97489d65b14ecc7a,64cf49dcad7a3c1f18514c1a,,,,,,,decisionTrl,resources/DP.BMP,resources/DBN.BMP,Door1,0.41015625,-0.04296875,1,0,0,1.4096,optionRight,30,6170,3,24,0,24,0,1,,,,,,,,,,,,,,,,,,,,,,,,,,,,,,,,,,,,,,,
,,,,,,,,2023-08-06_08h21.28.735,HF_wild_card,2022.2.4,Win32,59.87665409,62d2b86ed12d650ea7268dd7,64ce5acb97489d65b14ecc7a,64cf49dcad7a3c1f18514c1a,,,,,,,ctch,resources/DB.BMP,resources/DP.BMP,Door3,-0.346354167,-0.063802083,1,0,0,1.0104,optionLeft,70,6240,3,25,0,25,0,1,,,,,,,,,,,,,,,,,,,,,,,,,,,,,,,,,,,,,,,
,,,,,,,,2023-08-06_08h21.28.735,HF_wild_card,2022.2.4,Win32,59.87665409,62d2b86ed12d650ea7268dd7,64ce5acb97489d65b14ecc7a,64cf49dcad7a3c1f18514c1a,,,,,,,ctch,resources/DBN.BMP,resources/DY.BMP,Door4,0.385416667,-0.026041667,1,0,0,0.896,optionRight,80,6320,3,26,0,26,0,1,,,,,,,,,,,,,,,,,,,,,,,,,,,,,,,,,,,,,,,
,,,,,,,,2023-08-06_08h21.28.735,HF_wild_card,2022.2.4,Win32,59.87665409,62d2b86ed12d650ea7268dd7,64ce5acb97489d65b14ecc7a,64cf49dcad7a3c1f18514c1a,,,,,,,decisionTrl,resources/DR.BMP,resources/DP.BMP,WildCard_NonEx,-0.372395833,-0.03125,1,0,0,1.2304,optionLeft,45,6365,3,27,0,27,0,1,,,,,,,,,,,,,,,,,,,,,,,,,,,,,,,,,,,,,,,
,,,,,,,,2023-08-06_08h21.28.735,HF_wild_card,2022.2.4,Win32,59.87665409,62d2b86ed12d650ea7268dd7,64ce5acb97489d65b14ecc7a,64cf49dcad7a3c1f18514c1a,,,,,,,ctch,resources/DP.BMP,resources/DB.BMP,Door3,0.369791667,-0.00390625,1,0,0,1.1075,optionRight,70,6435,3,28,0,28,0,1,,,,,,,,,,,,,,,,,,,,,,,,,,,,,,,,,,,,,,,
,,,,,,,,2023-08-06_08h21.28.735,HF_wild_card,2022.2.4,Win32,59.87665409,62d2b86ed12d650ea7268dd7,64ce5acb97489d65b14ecc7a,64cf49dcad7a3c1f18514c1a,,,,,,,decisionTrl,resources/DR.BMP,resources/DB.BMP,Door3,0.46875,-0.029947917,1,0,0,1.1828,optionRight,70,6505,3,29,0,29,0,1,,,,,,,,,,,,,,,,,,,,,,,,,,,,,,,,,,,,,,,
,,,,,,,,2023-08-06_08h21.28.735,HF_wild_card,2022.2.4,Win32,59.87665409,62d2b86ed12d650ea7268dd7,64ce5acb97489d65b14ecc7a,64cf49dcad7a3c1f18514c1a,,,,,,,decisionTrl,resources/DY.BMP,resources/DB.BMP,Door4,-0.328125,-0.059895833,1,0,0,1.0497,optionLeft,60,6565,3,30,0,30,0,1,,,,,,,,,,,,,,,,,,,,,,,,,,,,,,,,,,,,,,,
,,,,,,,,2023-08-06_08h21.28.735,HF_wild_card,2022.2.4,Win32,59.87665409,62d2b86ed12d650ea7268dd7,64ce5acb97489d65b14ecc7a,64cf49dcad7a3c1f18514c1a,,,,,,,decisionTrl,resources/DB.BMP,resources/DY.BMP,Door4,0.337239583,-0.032552083,1,0,0,0.714,optionRight,80,6645,3,31,0,31,0,1,,,,,,,,,,,,,,,,,,,,,,,,,,,,,,,,,,,,,,,
,,,,,,,,2023-08-06_08h21.28.735,HF_wild_card,2022.2.4,Win32,59.87665409,62d2b86ed12d650ea7268dd7,64ce5acb97489d65b14ecc7a,64cf49dcad7a3c1f18514c1a,,,,,,,decisionTrl,resources/DP.BMP,resources/DR.BMP,WildCard_NonEx,0.37890625,-0.032552083,1,0,0,1.0245,optionRight,45,6690,3,32,0,32,0,1,,,,,,,,,,,,,,,,,,,,,,,,,,,,,,,,,,,,,,,
,,,,,,,,2023-08-06_08h21.28.735,HF_wild_card,2022.2.4,Win32,59.87665409,62d2b86ed12d650ea7268dd7,64ce5acb97489d65b14ecc7a,64cf49dcad7a3c1f18514c1a,,,,,,,ctch,resources/DY.BMP,resources/DBN.BMP,Door4,-0.337239583,-0.036458333,1,0,0,1.3288,optionLeft,60,6750,3,33,0,33,0,1,,,,,,,,,,,,,,,,,,,,,,,,,,,,,,,,,,,,,,,
,,,,,,,,2023-08-06_08h21.28.735,HF_wild_card,2022.2.4,Win32,59.87665409,62d2b86ed12d650ea7268dd7,64ce5acb97489d65b14ecc7a,64cf49dcad7a3c1f18514c1a,,,,,,,sngl,resources/Empty.png,resources/DY.BMP,Door4,0.399739583,-0.01171875,1,0,0,0.7123,optionRight,60,6810,3,34,0,34,0,1,,,,,,,,,,,,,,,,,,,,,,,,,,,,,,,,,,,,,,,
,,,,,,,,2023-08-06_08h21.28.735,HF_wild_card,2022.2.4,Win32,59.87665409,62d2b86ed12d650ea7268dd7,64ce5acb97489d65b14ecc7a,64cf49dcad7a3c1f18514c1a,,,,,,,decisionTrl,resources/DR.BMP,resources/DBN.BMP,WildCard_NonEx,-0.361979167,-0.028645833,1,0,0,1.1631,optionLeft,45,6855,3,35,0,35,0,1,,,,,,,,,,,,,,,,,,,,,,,,,,,,,,,,,,,,,,,
,,,,,,,,2023-08-06_08h21.28.735,HF_wild_card,2022.2.4,Win32,59.87665409,62d2b86ed12d650ea7268dd7,64ce5acb97489d65b14ecc7a,64cf49dcad7a3c1f18514c1a,,,,,,,decisionTrl,resources/DBN.BMP,resources/DP.BMP,Door1,-0.419270833,-0.014322917,1,0,0,2.1101,optionLeft,30,6885,3,36,0,36,0,1,,,,,,,,,,,,,,,,,,,,,,,,,,,,,,,,,,,,,,,
,,,,,,,,2023-08-06_08h21.28.735,HF_wild_card,2022.2.4,Win32,59.87665409,62d2b86ed12d650ea7268dd7,64ce5acb97489d65b14ecc7a,64cf49dcad7a3c1f18514c1a,,,,,,,sngl,resources/Empty.png,resources/DR.BMP,WildCard_NonEx,0.3125,-0.010416667,1,0,0,0.7441,optionRight,45,6930,3,37,0,37,0,1,,,,,,,,,,,,,,,,,,,,,,,,,,,,,,,,,,,,,,,
,,,,,,,,2023-08-06_08h21.28.735,HF_wild_card,2022.2.4,Win32,59.87665409,62d2b86ed12d650ea7268dd7,64ce5acb97489d65b14ecc7a,64cf49dcad7a3c1f18514c1a,,,,,,,decisionTrl,resources/DY.BMP,resources/DB.BMP,Door4,-0.286458333,-0.0234375,1,0,0,1.9004,optionLeft,80,7010,3,38,0,38,0,1,,,,,,,,,,,,,,,,,,,,,,,,,,,,,,,,,,,,,,,
,,,,,,,,2023-08-06_08h21.28.735,HF_wild_card,2022.2.4,Win32,59.87665409,62d2b86ed12d650ea7268dd7,64ce5acb97489d65b14ecc7a,64cf49dcad7a3c1f18514c1a,,,,,,,sngl,resources/DY.BMP,resources/Empty.png,Door4,-0.391927083,-0.020833333,1,0,0,0.6449,optionLeft,80,7090,3,39,0,39,0,1,,,,,,,,,,,,,,,,,,,,,,,,,,,,,,,,,,,,,,,
,,,,,,,,2023-08-06_08h21.28.735,HF_wild_card,2022.2.4,Win32,59.87665409,62d2b86ed12d650ea7268dd7,64ce5acb97489d65b14ecc7a,64cf49dcad7a3c1f18514c1a,,,,,,,sngl,resources/DBN.BMP,resources/Empty.png,Door1,-0.391927083,-0.029947917,1,0,0,0.844,optionLeft,30,7120,3,40,0,40,0,1,,,,,,,,,,,,,,,,,,,,,,,,,,,,,,,,,,,,,,,
,,,,,,,,2023-08-06_08h21.28.735,HF_wild_card,2022.2.4,Win32,59.87665409,62d2b86ed12d650ea7268dd7,64ce5acb97489d65b14ecc7a,64cf49dcad7a3c1f18514c1a,,,,,,,decisionTrl,resources/DBN.BMP,resources/DR.BMP,WildCard_NonEx,0.412760417,-0.03515625,1,0,0,1.0125,optionRight,55,7175,3,41,0,41,0,1,,,,,,,,,,,,,,,,,,,,,,,,,,,,,,,,,,,,,,,
,,,,,,,,2023-08-06_08h21.28.735,HF_wild_card,2022.2.4,Win32,59.87665409,62d2b86ed12d650ea7268dd7,64ce5acb97489d65b14ecc7a,64cf49dcad7a3c1f18514c1a,,,,,,,sngl,resources/DP.BMP,resources/Empty.png,Door2,-0.33984375,-0.05859375,1,0,0,0.9085,optionLeft,40,7215,3,42,0,42,0,1,,,,,,,,,,,,,,,,,,,,,,,,,,,,,,,,,,,,,,,
,,,,,,,,2023-08-06_08h21.28.735,HF_wild_card,2022.2.4,Win32,59.87665409,62d2b86ed12d650ea7268dd7,64ce5acb97489d65b14ecc7a,64cf49dcad7a3c1f18514c1a,,,,,,,decisionTrl,resources/DB.BMP,resources/DY.BMP,Door4,0.39453125,-0.0078125,1,0,0,1.363,optionRight,60,7275,3,43,0,43,0,1,,,,,,,,,,,,,,,,,,,,,,,,,,,,,,,,,,,,,,,
,,,,,,,,2023-08-06_08h21.28.735,HF_wild_card,2022.2.4,Win32,59.87665409,62d2b86ed12d650ea7268dd7,64ce5acb97489d65b14ecc7a,64cf49dcad7a3c1f18514c1a,,,,,,,,,,,,,,,,,,,,,,,,,,2,0,2,0,1,,,,,,,,,,,,,,,,,,,,,,,,,,,,,,,,,,
,,,,,,,,2023-08-06_08h21.28.735,HF_wild_card,2022.2.4,Win32,59.87665409,62d2b86ed12d650ea7268dd7,64ce5acb97489d65b14ecc7a,64cf49dcad7a3c1f18514c1a,,,,,,,sngl,resources/DB.BMP,resources/Empty.png,Door3,-0.3046875,-0.041666667,1,0,0,1.0951,optionLeft,70,7345,4,0,0,0,0,1,,,,,,,,,,,,,,,,,,,,,,,,,,,,,,,,,,,,,,,
,,,,,,,,2023-08-06_08h21.28.735,HF_wild_card,2022.2.4,Win32,59.87665409,62d2b86ed12d650ea7268dd7,64ce5acb97489d65b14ecc7a,64cf49dcad7a3c1f18514c1a,,,,,,,decisionTrl,resources/DG.BMP,resources/DY.BMP,WildCard_Ex,-0.34375,-0.036458333,1,0,0,2.0418,optionLeft,45,7390,4,1,0,1,0,1,,,,,,,,,,,,,,,,,,,,,,,,,,,,,,,,,,,,,,,
,,,,,,,,2023-08-06_08h21.28.735,HF_wild_card,2022.2.4,Win32,59.87665409,62d2b86ed12d650ea7268dd7,64ce5acb97489d65b14ecc7a,64cf49dcad7a3c1f18514c1a,,,,,,,decisionTrl,resources/DP.BMP,resources/DBN.BMP,Door1,0.3984375,-0.044270833,1,0,0,1.41,optionRight,30,7420,4,2,0,2,0,1,,,,,,,,,,,,,,,,,,,,,,,,,,,,,,,,,,,,,,,
,,,,,,,,2023-08-06_08h21.28.735,HF_wild_card,2022.2.4,Win32,59.87665409,62d2b86ed12d650ea7268dd7,64ce5acb97489d65b14ecc7a,64cf49dcad7a3c1f18514c1a,,,,,,,ctch,resources/DB.BMP,resources/DP.BMP,Door3,-0.329427083,-0.052083333,1,0,0,1.2973,optionLeft,70,7490,4,3,0,3,0,1,,,,,,,,,,,,,,,,,,,,,,,,,,,,,,,,,,,,,,,
,,,,,,,,2023-08-06_08h21.28.735,HF_wild_card,2022.2.4,Win32,59.87665409,62d2b86ed12d650ea7268dd7,64ce5acb97489d65b14ecc7a,64cf49dcad7a3c1f18514c1a,,,,,,,decisionTrl,resources/DB.BMP,resources/DG.BMP,Door3,-0.444010417,-0.055989583,1,0,0,1.1239,optionLeft,70,7560,4,4,0,4,0,1,,,,,,,,,,,,,,,,,,,,,,,,,,,,,,,,,,,,,,,
,,,,,,,,2023-08-06_08h21.28.735,HF_wild_card,2022.2.4,Win32,59.87665409,62d2b86ed12d650ea7268dd7,64ce5acb97489d65b14ecc7a,64cf49dcad7a3c1f18514c1a,,,,,,,decisionTrl,resources/DBN.BMP,resources/DP.BMP,Door1,-0.360677083,-0.0390625,1,0,0,1.2817,optionLeft,30,7590,4,5,0,5,0,1,,,,,,,,,,,,,,,,,,,,,,,,,,,,,,,,,,,,,,,
,,,,,,,,2023-08-06_08h21.28.735,HF_wild_card,2022.2.4,Win32,59.87665409,62d2b86ed12d650ea7268dd7,64ce5acb97489d65b14ecc7a,64cf49dcad7a3c1f18514c1a,,,,,,,ctch,resources/DB.BMP,resources/DP.BMP,Door3,-0.463541667,-0.028645833,1,0,0,1.9733,optionLeft,70,7660,4,6,0,6,0,1,,,,,,,,,,,,,,,,,,,,,,,,,,,,,,,,,,,,,,,
,,,,,,,,2023-08-06_08h21.28.735,HF_wild_card,2022.2.4,Win32,59.87665409,62d2b86ed12d650ea7268dd7,64ce5acb97489d65b14ecc7a,64cf49dcad7a3c1f18514c1a,,,,,,,ctch,resources/DBN.BMP,resources/DY.BMP,Door4,0.432291667,-0.03125,1,0,0,1.2132,optionRight,80,7740,4,7,0,7,0,1,,,,,,,,,,,,,,,,,,,,,,,,,,,,,,,,,,,,,,,
,,,,,,,,2023-08-06_08h21.28.735,HF_wild_card,2022.2.4,Win32,59.87665409,62d2b86ed12d650ea7268dd7,64ce5acb97489d65b14ecc7a,64cf49dcad7a3c1f18514c1a,,,,,,,sngl,resources/Empty.png,resources/DG.BMP,WildCard_Ex,0.424479167,0.002604167,1,0,0,0.9607,optionRight,55,7795,4,8,0,8,0,1,,,,,,,,,,,,,,,,,,,,,,,,,,,,,,,,,,,,,,,
,,,,,,,,2023-08-06_08h21.28.735,HF_wild_card,2022.2.4,Win32,59.87665409,62d2b86ed12d650ea7268dd7,64ce5acb97489d65b14ecc7a,64cf49dcad7a3c1f18514c1a,,,,,,,decisionTrl,resources/DBN.BMP,resources/DP.BMP,Door1,-0.291666667,-0.001302083,1,0,0,1.1105,optionLeft,30,7825,4,9,0,9,0,1,,,,,,,,,,,,,,,,,,,,,,,,,,,,,,,,,,,,,,,
,,,,,,,,2023-08-06_08h21.28.735,HF_wild_card,2022.2.4,Win32,59.87665409,62d2b86ed12d650ea7268dd7,64ce5acb97489d65b14ecc7a,64cf49dcad7a3c1f18514c1a,,,,,,,ctch,resources/DP.BMP,resources/DB.BMP,Door3,0.401041667,-0.061197917,1,0,0,0.8762,optionRight,70,7895,4,10,0,10,0,1,,,,,,,,,,,,,,,,,,,,,,,,,,,,,,,,,,,,,,,
,,,,,,,,2023-08-06_08h21.28.735,HF_wild_card,2022.2.4,Win32,59.87665409,62d2b86ed12d650ea7268dd7,64ce5acb97489d65b14ecc7a,64cf49dcad7a3c1f18514c1a,,,,,,,decisionTrl,resources/DBN.BMP,resources/DP.BMP,Door1,-0.384114583,-0.048177083,1,0,0,1.059,optionLeft,30,7925,4,11,0,11,0,1,,,,,,,,,,,,,,,,,,,,,,,,,,,,,,,,,,,,,,,
,,,,,,,,2023-08-06_08h21.28.735,HF_wild_card,2022.2.4,Win32,59.87665409,62d2b86ed12d650ea7268dd7,64ce5acb97489d65b14ecc7a,64cf49dcad7a3c1f18514c1a,,,,,,,decisionTrl,resources/DP.BMP,resources/DBN.BMP,Door1,0.391927083,-0.033854167,1,0,0,0.6997,optionRight,30,7955,4,12,0,12,0,1,,,,,,,,,,,,,,,,,,,,,,,,,,,,,,,,,,,,,,,
,,,,,,,,2023-08-06_08h21.28.735,HF_wild_card,2022.2.4,Win32,59.87665409,62d2b86ed12d650ea7268dd7,64ce5acb97489d65b14ecc7a,64cf49dcad7a3c1f18514c1a,,,,,,,decisionTrl,resources/DP.BMP,resources/DBN.BMP,Door1,0.466145833,-0.022135417,1,0,0,0.6291,optionRight,30,7985,4,13,0,13,0,1,,,,,,,,,,,,,,,,,,,,,,,,,,,,,,,,,,,,,,,
,,,,,,,,2023-08-06_08h21.28.735,HF_wild_card,2022.2.4,Win32,59.87665409,62d2b86ed12d650ea7268dd7,64ce5acb97489d65b14ecc7a,64cf49dcad7a3c1f18514c1a,,,,,,,decisionTrl,resources/DB.BMP,resources/DY.BMP,Door4,0.41796875,-0.01953125,1,0,0,1.6762,optionRight,60,8045,4,14,0,14,0,1,,,,,,,,,,,,,,,,,,,,,,,,,,,,,,,,,,,,,,,
,,,,,,,,2023-08-06_08h21.28.735,HF_wild_card,2022.2.4,Win32,59.87665409,62d2b86ed12d650ea7268dd7,64ce5acb97489d65b14ecc7a,64cf49dcad7a3c1f18514c1a,,,,,,,sngl,resources/Empty.png,resources/DB.BMP,Door3,0.416666667,-0.045572917,1,0,0,0.5812,optionRight,70,8115,4,15,0,15,0,1,,,,,,,,,,,,,,,,,,,,,,,,,,,,,,,,,,,,,,,
,,,,,,,,2023-08-06_08h21.28.735,HF_wild_card,2022.2.4,Win32,59.87665409,62d2b86ed12d650ea7268dd7,64ce5acb97489d65b14ecc7a,64cf49dcad7a3c1f18514c1a,,,,,,,decisionTrl,resources/DB.BMP,resources/DY.BMP,Door4,0.364583333,-0.002604167,1,0,0,0.8467,optionRight,80,8195,4,16,0,16,0,1,,,,,,,,,,,,,,,,,,,,,,,,,,,,,,,,,,,,,,,
,,,,,,,,2023-08-06_08h21.28.735,HF_wild_card,2022.2.4,Win32,59.87665409,62d2b86ed12d650ea7268dd7,64ce5acb97489d65b14ecc7a,64cf49dcad7a3c1f18514c1a,,,,,,,sngl,resources/Empty.png,resources/DP.BMP,Door2,0.4140625,-0.049479167,1,0,0,0.9321,optionRight,40,8235,4,17,0,17,0,1,,,,,,,,,,,,,,,,,,,,,,,,,,,,,,,,,,,,,,,
,,,,,,,,2023-08-06_08h21.28.735,HF_wild_card,2022.2.4,Win32,59.87665409,62d2b86ed12d650ea7268dd7,64ce5acb97489d65b14ecc7a,64cf49dcad7a3c1f18514c1a,,,,,,,ctch,resources/DY.BMP,resources/DBN.BMP,Door4,-0.44921875,-0.059895833,1,0,0,1.2258,optionLeft,80,8315,4,18,0,18,0,1,,,,,,,,,,,,,,,,,,,,,,,,,,,,,,,,,,,,,,,
,,,,,,,,2023-08-06_08h21.28.735,HF_wild_card,2022.2.4,Win32,59.87665409,62d2b86ed12d650ea7268dd7,64ce5acb97489d65b14ecc7a,64cf49dcad7a3c1f18514c1a,,,,,,,sngl,resources/DG.BMP,resources/Empty.png,WildCard_Ex,-0.348958333,-0.053385417,1,0,0,0.7778,optionLeft,45,8360,4,19,0,19,0,1,,,,,,,,,,,,,,,,,,,,,,,,,,,,,,,,,,,,,,,
,,,,,,,,2023-08-06_08h21.28.735,HF_wild_card,2022.2.4,Win32,59.87665409,62d2b86ed12d650ea7268dd7,64ce5acb97489d65b14ecc7a,64cf49dcad7a3c1f18514c1a,,,,,,,decisionTrl,resources/DY.BMP,resources/DB.BMP,Door4,-0.444010417,-0.059895833,1,0,0,1.2396,optionLeft,80,8440,4,20,0,20,0,1,,,,,,,,,,,,,,,,,,,,,,,,,,,,,,,,,,,,,,,
,,,,,,,,2023-08-06_08h21.28.735,HF_wild_card,2022.2.4,Win32,59.87665409,62d2b86ed12d650ea7268dd7,64ce5acb97489d65b14ecc7a,64cf49dcad7a3c1f18514c1a,,,,,,,decisionTrl,resources/DY.BMP,resources/DB.BMP,Door4,-0.348958333,-0.044270833,1,0,0,0.6258,optionLeft,80,8520,4,21,0,21,0,1,,,,,,,,,,,,,,,,,,,,,,,,,,,,,,,,,,,,,,,
,,,,,,,,2023-08-06_08h21.28.735,HF_wild_card,2022.2.4,Win32,59.87665409,62d2b86ed12d650ea7268dd7,64ce5acb97489d65b14ecc7a,64cf49dcad7a3c1f18514c1a,,,,,,,sngl,resources/DG.BMP,resources/Empty.png,WildCard_Ex,-0.359375,-0.033854167,1,0,0,0.7433,optionLeft,55,8575,4,22,0,22,0,1,,,,,,,,,,,,,,,,,,,,,,,,,,,,,,,,,,,,,,,
,,,,,,,,2023-08-06_08h21.28.735,HF_wild_card,2022.2.4,Win32,59.87665409,62d2b86ed12d650ea7268dd7,64ce5acb97489d65b14ecc7a,64cf49dcad7a3c1f18514c1a,,,,,,,decisionTrl,resources/DB.BMP,resources/DY.BMP,Door4,0.330729167,-0.028645833,1,0,0,1.1636,optionRight,60,8635,4,23,0,23,0,1,,,,,,,,,,,,,,,,,,,,,,,,,,,,,,,,,,,,,,,
,,,,,,,,2023-08-06_08h21.28.735,HF_wild_card,2022.2.4,Win32,59.87665409,62d2b86ed12d650ea7268dd7,64ce5acb97489d65b14ecc7a,64cf49dcad7a3c1f18514c1a,,,,,,,sngl,resources/DY.BMP,resources/Empty.png,Door4,-0.359375,-0.0546875,1,0,0,0.6269,optionLeft,60,8695,4,24,0,24,0,1,,,,,,,,,,,,,,,,,,,,,,,,,,,,,,,,,,,,,,,
,,,,,,,,2023-08-06_08h21.28.735,HF_wild_card,2022.2.4,Win32,59.87665409,62d2b86ed12d650ea7268dd7,64ce5acb97489d65b14ecc7a,64cf49dcad7a3c1f18514c1a,,,,,,,decisionTrl,resources/DY.BMP,resources/DG.BMP,Door4,-0.364583333,-0.049479167,1,0,0,1.1983,optionLeft,80,8775,4,25,0,25,0,1,,,,,,,,,,,,,,,,,,,,,,,,,,,,,,,,,,,,,,,
,,,,,,,,2023-08-06_08h21.28.735,HF_wild_card,2022.2.4,Win32,59.87665409,62d2b86ed12d650ea7268dd7,64ce5acb97489d65b14ecc7a,64cf49dcad7a3c1f18514c1a,,,,,,,sngl,resources/Empty.png,resources/DY.BMP,Door4,0.36328125,-0.03125,1,0,0,0.6788,optionRight,80,8855,4,26,0,26,0,1,,,,,,,,,,,,,,,,,,,,,,,,,,,,,,,,,,,,,,,
,,,,,,,,2023-08-06_08h21.28.735,HF_wild_card,2022.2.4,Win32,59.87665409,62d2b86ed12d650ea7268dd7,64ce5acb97489d65b14ecc7a,64cf49dcad7a3c1f18514c1a,,,,,,,sngl,resources/Empty.png,resources/DBN.BMP,Door1,0.372395833,-0.018229167,1,0,0,0.7303,optionRight,30,8885,4,27,0,27,0,1,,,,,,,,,,,,,,,,,,,,,,,,,,,,,,,,,,,,,,,
,,,,,,,,2023-08-06_08h21.28.735,HF_wild_card,2022.2.4,Win32,59.87665409,62d2b86ed12d650ea7268dd7,64ce5acb97489d65b14ecc7a,64cf49dcad7a3c1f18514c1a,,,,,,,ctch,resources/DBN.BMP,resources/DY.BMP,Door4,0.315104167,-0.005208333,1,0,0,0.8247,optionRight,80,8965,4,28,0,28,0,1,,,,,,,,,,,,,,,,,,,,,,,,,,,,,,,,,,,,,,,
,,,,,,,,2023-08-06_08h21.28.735,HF_wild_card,2022.2.4,Win32,59.87665409,62d2b86ed12d650ea7268dd7,64ce5acb97489d65b14ecc7a,64cf49dcad7a3c1f18514c1a,,,,,,,decisionTrl,resources/DG.BMP,resources/DB.BMP,Door3,0.328125,-0.03125,1,0,0,1.2987,optionRight,70,9035,4,29,0,29,0,1,,,,,,,,,,,,,,,,,,,,,,,,,,,,,,,,,,,,,,,
,,,,,,,,2023-08-06_08h21.28.735,HF_wild_card,2022.2.4,Win32,59.87665409,62d2b86ed12d650ea7268dd7,64ce5acb97489d65b14ecc7a,64cf49dcad7a3c1f18514c1a,,,,,,,decisionTrl,resources/DP.BMP,resources/DG.BMP,WildCard_Ex,0.434895833,-0.041666667,1,0,0,2.2885,optionRight,55,9090,4,30,0,30,0,1,,,,,,,,,,,,,,,,,,,,,,,,,,,,,,,,,,,,,,,
,,,,,,,,2023-08-06_08h21.28.735,HF_wild_card,2022.2.4,Win32,59.87665409,62d2b86ed12d650ea7268dd7,64ce5acb97489d65b14ecc7a,64cf49dcad7a3c1f18514c1a,,,,,,,decisionTrl,resources/DG.BMP,resources/DP.BMP,WildCard_Ex,-0.404947917,-0.002604167,1,0,0,1.3781,optionLeft,45,9135,4,31,0,31,0,1,,,,,,,,,,,,,,,,,,,,,,,,,,,,,,,,,,,,,,,
,,,,,,,,2023-08-06_08h21.28.735,HF_wild_card,2022.2.4,Win32,59.87665409,62d2b86ed12d650ea7268dd7,64ce5acb97489d65b14ecc7a,64cf49dcad7a3c1f18514c1a,,,,,,,decisionTrl,resources/DY.BMP,resources/DB.BMP,Door4,-0.4296875,-0.044270833,1,0,0,1.2625,optionLeft,80,9215,4,32,0,32,0,1,,,,,,,,,,,,,,,,,,,,,,,,,,,,,,,,,,,,,,,
,,,,,,,,2023-08-06_08h21.28.735,HF_wild_card,2022.2.4,Win32,59.87665409,62d2b86ed12d650ea7268dd7,64ce5acb97489d65b14ecc7a,64cf49dcad7a3c1f18514c1a,,,,,,,sngl,resources/DP.BMP,resources/Empty.png,Door2,-0.389322917,-0.055989583,1,0,0,1.2449,optionLeft,20,9235,4,33,0,33,0,1,,,,,,,,,,,,,,,,,,,,,,,,,,,,,,,,,,,,,,,
,,,,,,,,2023-08-06_08h21.28.735,HF_wild_card,2022.2.4,Win32,59.87665409,62d2b86ed12d650ea7268dd7,64ce5acb97489d65b14ecc7a,64cf49dcad7a3c1f18514c1a,,,,,,,ctch,resources/DP.BMP,resources/DB.BMP,Door3,0.415364583,-0.014322917,1,0,0,1.0141,optionRight,70,9305,4,34,0,34,0,1,,,,,,,,,,,,,,,,,,,,,,,,,,,,,,,,,,,,,,,
,,,,,,,,2023-08-06_08h21.28.735,HF_wild_card,2022.2.4,Win32,59.87665409,62d2b86ed12d650ea7268dd7,64ce5acb97489d65b14ecc7a,64cf49dcad7a3c1f18514c1a,,,,,,,decisionTrl,resources/DBN.BMP,resources/DG.BMP,WildCard_Ex,0.41796875,-0.061197917,1,0,0,1.3122,optionRight,55,9360,4,35,0,35,0,1,,,,,,,,,,,,,,,,,,,,,,,,,,,,,,,,,,,,,,,
,,,,,,,,2023-08-06_08h21.28.735,HF_wild_card,2022.2.4,Win32,59.87665409,62d2b86ed12d650ea7268dd7,64ce5acb97489d65b14ecc7a,64cf49dcad7a3c1f18514c1a,,,,,,,decisionTrl,resources/DP.BMP,resources/DBN.BMP,Door1,0.513020833,0.0390625,1,0,0,1.1821,optionRight,30,9390,4,36,0,36,0,1,,,,,,,,,,,,,,,,,,,,,,,,,,,,,,,,,,,,,,,
,,,,,,,,2023-08-06_08h21.28.735,HF_wild_card,2022.2.4,Win32,59.87665409,62d2b86ed12d650ea7268dd7,64ce5acb97489d65b14ecc7a,64cf49dcad7a3c1f18514c1a,,,,,,,decisionTrl,resources/DBN.BMP,resources/DP.BMP,Door1,-0.350260417,0.006510417,1,0,0,2.2101,optionLeft,30,9420,4,37,0,37,0,1,,,,,,,,,,,,,,,,,,,,,,,,,,,,,,,,,,,,,,,
,,,,,,,,2023-08-06_08h21.28.735,HF_wild_card,2022.2.4,Win32,59.87665409,62d2b86ed12d650ea7268dd7,64ce5acb97489d65b14ecc7a,64cf49dcad7a3c1f18514c1a,,,,,,,decisionTrl,resources/DB.BMP,resources/DY.BMP,Door4,0.399739583,-0.03515625,1,0,0,1.2272,optionRight,60,9480,4,38,0,38,0,1,,,,,,,,,,,,,,,,,,,,,,,,,,,,,,,,,,,,,,,
,,,,,,,,2023-08-06_08h21.28.735,HF_wild_card,2022.2.4,Win32,59.87665409,62d2b86ed12d650ea7268dd7,64ce5acb97489d65b14ecc7a,64cf49dcad7a3c1f18514c1a,,,,,,,sngl,resources/DBN.BMP,resources/Empty.png,Door1,-0.33984375,-0.03515625,1,0,0,0.8127,optionLeft,30,9510,4,39,0,39,0,1,,,,,,,,,,,,,,,,,,,,,,,,,,,,,,,,,,,,,,,
,,,,,,,,2023-08-06_08h21.28.735,HF_wild_card,2022.2.4,Win32,59.87665409,62d2b86ed12d650ea7268dd7,64ce5acb97489d65b14ecc7a,64cf49dcad7a3c1f18514c1a,,,,,,,sngl,resources/Empty.png,resources/DG.BMP,WildCard_Ex,0.408854167,-0.022135417,1,0,0,0.6608,optionRight,45,9555,4,40,0,40,0,1,,,,,,,,,,,,,,,,,,,,,,,,,,,,,,,,,,,,,,,
,,,,,,,,2023-08-06_08h21.28.735,HF_wild_card,2022.2.4,Win32,59.87665409,62d2b86ed12d650ea7268dd7,64ce5acb97489d65b14ecc7a,64cf49dcad7a3c1f18514c1a,,,,,,,decisionTrl,resources/DG.BMP,resources/DBN.BMP,WildCard_Ex,-0.451822917,-0.078125,1,0,0,1.1768,optionLeft,55,9610,4,41,0,41,0,1,,,,,,,,,,,,,,,,,,,,,,,,,,,,,,,,,,,,,,,
,,,,,,,,2023-08-06_08h21.28.735,HF_wild_card,2022.2.4,Win32,59.87665409,62d2b86ed12d650ea7268dd7,64ce5acb97489d65b14ecc7a,64cf49dcad7a3c1f18514c1a,,,,,,,ctch,resources/DY.BMP,resources/DBN.BMP,Door4,-0.384114583,-0.026041667,1,0,0,1.1166,optionLeft,60,9670,4,42,0,42,0,1,,,,,,,,,,,,,,,,,,,,,,,,,,,,,,,,,,,,,,,
,,,,,,,,2023-08-06_08h21.28.735,HF_wild_card,2022.2.4,Win32,59.87665409,62d2b86ed12d650ea7268dd7,64ce5acb97489d65b14ecc7a,64cf49dcad7a3c1f18514c1a,,,,,,,decisionTrl,resources/DY.BMP,resources/DB.BMP,Door4,-0.345052083,-0.0859375,1,0,0,1.0121,optionLeft,80,9750,4,43,0,43,0,1,,,,,,,,,,,,,,,,,,,,,,,,,,,,,,,,,,,,,,,
,,,,,,,,2023-08-06_08h21.28.735,HF_wild_card,2022.2.4,Win32,59.87665409,62d2b86ed12d650ea7268dd7,64ce5acb97489d65b14ecc7a,64cf49dcad7a3c1f18514c1a,,,,,,,,,,,,,,,,,,,,,,,,,,3,0,3,0,1,,,,,,,,,,,,,,,,,,,,,,,,,,,,,,,,,,
,,,,,,,,2023-08-06_08h21.28.735,HF_wild_card,2022.2.4,Win32,59.87665409,62d2b86ed12d650ea7268dd7,64ce5acb97489d65b14ecc7a,64cf49dcad7a3c1f18514c1a,,,,,,,sngl,resources/Empty.png,resources/DG.BMP,WildCard_Ex,0.34765625,-0.0390625,1,0,0,0.892,optionRight,45,9795,5,0,0,0,0,1,,,,,,,,,,,,,,,,,,,,,,,,,,,,,,,,,,,,,,,
,,,,,,,,2023-08-06_08h21.28.735,HF_wild_card,2022.2.4,Win32,59.87665409,62d2b86ed12d650ea7268dd7,64ce5acb97489d65b14ecc7a,64cf49dcad7a3c1f18514c1a,,,,,,,sngl,resources/DG.BMP,resources/Empty.png,WildCard_Ex,-0.3125,-0.048177083,1,0,0,0.5937,optionLeft,55,9850,5,1,0,1,0,1,,,,,,,,,,,,,,,,,,,,,,,,,,,,,,,,,,,,,,,
,,,,,,,,2023-08-06_08h21.28.735,HF_wild_card,2022.2.4,Win32,59.87665409,62d2b86ed12d650ea7268dd7,64ce5acb97489d65b14ecc7a,64cf49dcad7a3c1f18514c1a,,,,,,,ctch,resources/DB.BMP,resources/DP.BMP,Door3,-0.375,-0.080729167,1,0,0,1.1626,optionLeft,70,9920,5,2,0,2,0,1,,,,,,,,,,,,,,,,,,,,,,,,,,,,,,,,,,,,,,,
,,,,,,,,2023-08-06_08h21.28.735,HF_wild_card,2022.2.4,Win32,59.87665409,62d2b86ed12d650ea7268dd7,64ce5acb97489d65b14ecc7a,64cf49dcad7a3c1f18514c1a,,,,,,,decisionTrl,resources/DP.BMP,resources/DBN.BMP,Door1,0.345052083,-0.028645833,1,0,0,1.0999,optionRight,30,9950,5,3,0,3,0,1,,,,,,,,,,,,,,,,,,,,,,,,,,,,,,,,,,,,,,,
,,,,,,,,2023-08-06_08h21.28.735,HF_wild_card,2022.2.4,Win32,59.87665409,62d2b86ed12d650ea7268dd7,64ce5acb97489d65b14ecc7a,64cf49dcad7a3c1f18514c1a,,,,,,,sngl,resources/Empty.png,resources/DB.BMP,Door3,0.373697917,-0.0390625,1,0,0,0.7034,optionRight,70,10020,5,4,0,4,0,1,,,,,,,,,,,,,,,,,,,,,,,,,,,,,,,,,,,,,,,
,,,,,,,,2023-08-06_08h21.28.735,HF_wild_card,2022.2.4,Win32,59.87665409,62d2b86ed12d650ea7268dd7,64ce5acb97489d65b14ecc7a,64cf49dcad7a3c1f18514c1a,,,,,,,ctch,resources/DB.BMP,resources/DP.BMP,Door3,-0.428385417,-0.063802083,1,0,0,0.8437,optionLeft,70,10090,5,5,0,5,0,1,,,,,,,,,,,,,,,,,,,,,,,,,,,,,,,,,,,,,,,
,,,,,,,,2023-08-06_08h21.28.735,HF_wild_card,2022.2.4,Win32,59.87665409,62d2b86ed12d650ea7268dd7,64ce5acb97489d65b14ecc7a,64cf49dcad7a3c1f18514c1a,,,,,,,sngl,resources/Empty.png,resources/DP.BMP,Door2,0.341145833,-0.037760417,1,0,0,0.7615,optionRight,20,10110,5,6,0,6,0,1,,,,,,,,,,,,,,,,,,,,,,,,,,,,,,,,,,,,,,,
,,,,,,,,2023-08-06_08h21.28.735,HF_wild_card,2022.2.4,Win32,59.87665409,62d2b86ed12d650ea7268dd7,64ce5acb97489d65b14ecc7a,64cf49dcad7a3c1f18514c1a,,,,,,,decisionTrl,resources/DBN.BMP,resources/DP.BMP,Door1,-0.350260417,-0.026041667,1,0,0,0.9076,optionLeft,30,10140,5,7,0,7,0,1,,,,,,,,,,,,,,,,,,,,,,,,,,,,,,,,,,,,,,,
,,,,,,,,2023-08-06_08h21.28.735,HF_wild_card,2022.2.4,Win32,59.87665409,62d2b86ed12d650ea7268dd7,64ce5acb97489d65b14ecc7a,64cf49dcad7a3c1f18514c1a,,,,,,,decisionTrl,resources/DG.BMP,resources/DBN.BMP,WildCard_Ex,-0.38671875,-0.05078125,1,0,0,1.5108,optionLeft,55,10195,5,8,0,8,0,1,,,,,,,,,,,,,,,,,,,,,,,,,,,,,,,,,,,,,,,
,,,,,,,,2023-08-06_08h21.28.735,HF_wild_card,2022.2.4,Win32,59.87665409,62d2b86ed12d650ea7268dd7,64ce5acb97489d65b14ecc7a,64cf49dcad7a3c1f18514c1a,,,,,,,decisionTrl,resources/DBN.BMP,resources/DP.BMP,Door1,-0.420572917,-0.0234375,1,0,0,2.2552,optionLeft,30,10225,5,9,0,9,0,1,,,,,,,,,,,,,,,,,,,,,,,,,,,,,,,,,,,,,,,
,,,,,,,,2023-08-06_08h21.28.735,HF_wild_card,2022.2.4,Win32,59.87665409,62d2b86ed12d650ea7268dd7,64ce5acb97489d65b14ecc7a,64cf49dcad7a3c1f18514c1a,,,,,,,sngl,resources/DB.BMP,resources/Empty.png,Door3,-0.385416667,-0.036458333,1,0,0,0.7249,optionLeft,70,10295,5,10,0,10,0,1,,,,,,,,,,,,,,,,,,,,,,,,,,,,,,,,,,,,,,,
,,,,,,,,2023-08-06_08h21.28.735,HF_wild_card,2022.2.4,Win32,59.87665409,62d2b86ed12d650ea7268dd7,64ce5acb97489d65b14ecc7a,64cf49dcad7a3c1f18514c1a,,,,,,,decisionTrl,resources/DB.BMP,resources/DY.BMP,Door4,0.350260417,-0.052083333,1,0,0,0.6771,optionRight,80,10375,5,11,0,11,0,1,,,,,,,,,,,,,,,,,,,,,,,,,,,,,,,,,,,,,,,
,,,,,,,,2023-08-06_08h21.28.735,HF_wild_card,2022.2.4,Win32,59.87665409,62d2b86ed12d650ea7268dd7,64ce5acb97489d65b14ecc7a,64cf49dcad7a3c1f18514c1a,,,,,,,decisionTrl,resources/DY.BMP,resources/DB.BMP,Door4,-0.401041667,-0.075520833,1,0,0,1.3272,optionLeft,60,10435,5,12,0,12,0,1,,,,,,,,,,,,,,,,,,,,,,,,,,,,,,,,,,,,,,,
,,,,,,,,2023-08-06_08h21.28.735,HF_wild_card,2022.2.4,Win32,59.87665409,62d2b86ed12d650ea7268dd7,64ce5acb97489d65b14ecc7a,64cf49dcad7a3c1f18514c1a,,,,,,,decisionTrl,resources/DY.BMP,resources/DB.BMP,Door4,-0.381510417,-0.044270833,1,0,0,0.9442,optionLeft,60,10495,5,13,0,13,0,1,,,,,,,,,,,,,,,,,,,,,,,,,,,,,,,,,,,,,,,
,,,,,,,,2023-08-06_08h21.28.735,HF_wild_card,2022.2.4,Win32,59.87665409,62d2b86ed12d650ea7268dd7,64ce5acb97489d65b14ecc7a,64cf49dcad7a3c1f18514c1a,,,,,,,decisionTrl,resources/DP.BMP,resources/DBN.BMP,Door1,0.3359375,-0.020833333,1,0,0,1.2785,optionRight,30,10525,5,14,0,14,0,1,,,,,,,,,,,,,,,,,,,,,,,,,,,,,,,,,,,,,,,
,,,,,,,,2023-08-06_08h21.28.735,HF_wild_card,2022.2.4,Win32,59.87665409,62d2b86ed12d650ea7268dd7,64ce5acb97489d65b14ecc7a,64cf49dcad7a3c1f18514c1a,,,,,,,ctch,resources/DBN.BMP,resources/DY.BMP,Door4,0.393229167,-0.036458333,1,0,0,1.0169,optionRight,60,10585,5,15,0,15,0,1,,,,,,,,,,,,,,,,,,,,,,,,,,,,,,,,,,,,,,,
,,,,,,,,2023-08-06_08h21.28.735,HF_wild_card,2022.2.4,Win32,59.87665409,62d2b86ed12d650ea7268dd7,64ce5acb97489d65b14ecc7a,64cf49dcad7a3c1f18514c1a,,,,,,,decisionTrl,resources/DBN.BMP,resources/DG.BMP,WildCard_Ex,0.369791667,-0.036458333,1,0,0,1.1122,optionRight,55,10640,5,16,0,16,0,1,,,,,,,,,,,,,,,,,,,,,,,,,,,,,,,,,,,,,,,
,,,,,,,,2023-08-06_08h21.28.735,HF_wild_card,2022.2.4,Win32,59.87665409,62d2b86ed12d650ea7268dd7,64ce5acb97489d65b14ecc7a,64cf49dcad7a3c1f18514c1a,,,,,,,sngl,resources/Empty.png,resources/DG.BMP,WildCard_Ex,0.412760417,-0.015625,1,0,0,0.6473,optionRight,55,10695,5,17,0,17,0,1,,,,,,,,,,,,,,,,,,,,,,,,,,,,,,,,,,,,,,,
,,,,,,,,2023-08-06_08h21.28.735,HF_wild_card,2022.2.4,Win32,59.87665409,62d2b86ed12d650ea7268dd7,64ce5acb97489d65b14ecc7a,64cf49dcad7a3c1f18514c1a,,,,,,,ctch,resources/DBN.BMP,resources/DY.BMP,Door4,0.341145833,-0.029947917,1,0,0,0.8987,optionRight,80,10775,5,18,0,18,0,1,,,,,,,,,,,,,,,,,,,,,,,,,,,,,,,,,,,,,,,
,,,,,,,,2023-08-06_08h21.28.735,HF_wild_card,2022.2.4,Win32,59.87665409,62d2b86ed12d650ea7268dd7,64ce5acb97489d65b14ecc7a,64cf49dcad7a3c1f18514c1a,,,,,,,decisionTrl,resources/DP.BMP,resources/DBN.BMP,Door1,0.438802083,-0.033854167,1,0,0,1.5423,optionRight,30,10805,5,19,0,19,0,1,,,,,,,,,,,,,,,,,,,,,,,,,,,,,,,,,,,,,,,
,,,,,,,,2023-08-06_08h21.28.735,HF_wild_card,2022.2.4,Win32,59.87665409,62d2b86ed12d650ea7268dd7,64ce5acb97489d65b14ecc7a,64cf49dcad7a3c1f18514c1a,,,,,,,sngl,resources/DBN.BMP,resources/Empty.png,Door1,-0.3203125,-0.028645833,1,0,0,0.8586,optionLeft,30,10835,5,20,0,20,0,1,,,,,,,,,,,,,,,,,,,,,,,,,,,,,,,,,,,,,,,
,,,,,,,,2023-08-06_08h21.28.735,HF_wild_card,2022.2.4,Win32,59.87665409,62d2b86ed12d650ea7268dd7,64ce5acb97489d65b14ecc7a,64cf49dcad7a3c1f18514c1a,,,,,,,decisionTrl,resources/DP.BMP,resources/DG.BMP,WildCard_Ex,0.279947917,-0.046875,1,0,0,1.3676,optionRight,55,10890,5,21,0,21,0,1,,,,,,,,,,,,,,,,,,,,,,,,,,,,,,,,,,,,,,,
,,,,,,,,2023-08-06_08h21.28.735,HF_wild_card,2022.2.4,Win32,59.87665409,62d2b86ed12d650ea7268dd7,64ce5acb97489d65b14ecc7a,64cf49dcad7a3c1f18514c1a,,,,,,,decisionTrl,resources/DP.BMP,resources/DBN.BMP,Door1,0.30859375,-0.01171875,1,0,0,1.4602,optionRight,30,10920,5,22,0,22,0,1,,,,,,,,,,,,,,,,,,,,,,,,,,,,,,,,,,,,,,,
,,,,,,,,2023-08-06_08h21.28.735,HF_wild_card,2022.2.4,Win32,59.87665409,62d2b86ed12d650ea7268dd7,64ce5acb97489d65b14ecc7a,64cf49dcad7a3c1f18514c1a,,,,,,,decisionTrl,resources/DG.BMP,resources/DP.BMP,WildCard_Ex,-0.295572917,-0.033854167,1,0,0,1.4674,optionLeft,45,10965,5,23,0,23,0,1,,,,,,,,,,,,,,,,,,,,,,,,,,,,,,,,,,,,,,,
,,,,,,,,2023-08-06_08h21.28.735,HF_wild_card,2022.2.4,Win32,59.87665409,62d2b86ed12d650ea7268dd7,64ce5acb97489d65b14ecc7a,64cf49dcad7a3c1f18514c1a,,,,,,,ctch,resources/DP.BMP,resources/DB.BMP,Door3,0.337239583,-0.002604167,1,0,0,1.0633,optionRight,70,11035,5,24,0,24,0,1,,,,,,,,,,,,,,,,,,,,,,,,,,,,,,,,,,,,,,,
,,,,,,,,2023-08-06_08h21.28.735,HF_wild_card,2022.2.4,Win32,59.87665409,62d2b86ed12d650ea7268dd7,64ce5acb97489d65b14ecc7a,64cf49dcad7a3c1f18514c1a,,,,,,,decisionTrl,resources/DB.BMP,resources/DG.BMP,Door3,-0.354166667,-0.055989583,1,0,0,0.798,optionLeft,70,11105,5,25,0,25,0,1,,,,,,,,,,,,,,,,,,,,,,,,,,,,,,,,,,,,,,,
,,,,,,,,2023-08-06_08h21.28.735,HF_wild_card,2022.2.4,Win32,59.87665409,62d2b86ed12d650ea7268dd7,64ce5acb97489d65b14ecc7a,64cf49dcad7a3c1f18514c1a,,,,,,,sngl,resources/DP.BMP,resources/Empty.png,Door2,-0.359375,-0.044270833,1,0,0,0.8095,optionLeft,40,11145,5,26,0,26,0,1,,,,,,,,,,,,,,,,,,,,,,,,,,,,,,,,,,,,,,,
,,,,,,,,2023-08-06_08h21.28.735,HF_wild_card,2022.2.4,Win32,59.87665409,62d2b86ed12d650ea7268dd7,64ce5acb97489d65b14ecc7a,64cf49dcad7a3c1f18514c1a,,,,,,,sngl,resources/Empty.png,resources/DBN.BMP,Door1,0.309895833,-0.010416667,1,0,0,0.7664,optionRight,30,11175,5,27,0,27,0,1,,,,,,,,,,,,,,,,,,,,,,,,,,,,,,,,,,,,,,,
,,,,,,,,2023-08-06_08h21.28.735,HF_wild_card,2022.2.4,Win32,59.87665409,62d2b86ed12d650ea7268dd7,64ce5acb97489d65b14ecc7a,64cf49dcad7a3c1f18514c1a,,,,,,,ctch,resources/DP.BMP,resources/DB.BMP,Door3,0.369791667,-0.01171875,1,0,0,1.0956,optionRight,70,11245,5,28,0,28,0,1,,,,,,,,,,,,,,,,,,,,,,,,,,,,,,,,,,,,,,,
,,,,,,,,2023-08-06_08h21.28.735,HF_wild_card,2022.2.4,Win32,59.87665409,62d2b86ed12d650ea7268dd7,64ce5acb97489d65b14ecc7a,64cf49dcad7a3c1f18514c1a,,,,,,,sngl,resources/DG.BMP,resources/Empty.png,WildCard_Ex,-0.282552083,-0.036458333,1,0,0,0.7749,optionLeft,45,11290,5,29,0,29,0,1,,,,,,,,,,,,,,,,,,,,,,,,,,,,,,,,,,,,,,,
,,,,,,,,2023-08-06_08h21.28.735,HF_wild_card,2022.2.4,Win32,59.87665409,62d2b86ed12d650ea7268dd7,64ce5acb97489d65b14ecc7a,64cf49dcad7a3c1f18514c1a,,,,,,,ctch,resources/DY.BMP,resources/DBN.BMP,Door4,-0.354166667,-0.028645833,1,0,0,0.9728,optionLeft,80,11370,5,30,0,30,0,1,,,,,,,,,,,,,,,,,,,,,,,,,,,,,,,,,,,,,,,
,,,,,,,,2023-08-06_08h21.28.735,HF_wild_card,2022.2.4,Win32,59.87665409,62d2b86ed12d650ea7268dd7,64ce5acb97489d65b14ecc7a,64cf49dcad7a3c1f18514c1a,,,,,,,sngl,resources/DY.BMP,resources/Empty.png,Door4,-0.40625,-0.026041667,1,0,0,0.6743,optionLeft,80,11450,5,31,0,31,0,1,,,,,,,,,,,,,,,,,,,,,,,,,,,,,,,,,,,,,,,
,,,,,,,,2023-08-06_08h21.28.735,HF_wild_card,2022.2.4,Win32,59.87665409,62d2b86ed12d650ea7268dd7,64ce5acb97489d65b14ecc7a,64cf49dcad7a3c1f18514c1a,,,,,,,decisionTrl,resources/DY.BMP,resources/DB.BMP,Door4,-0.329427083,-0.02734375,1,0,0,1.2433,optionLeft,60,11510,5,32,0,32,0,1,,,,,,,,,,,,,,,,,,,,,,,,,,,,,,,,,,,,,,,
,,,,,,,,2023-08-06_08h21.28.735,HF_wild_card,2022.2.4,Win32,59.87665409,62d2b86ed12d650ea7268dd7,64ce5acb97489d65b14ecc7a,64cf49dcad7a3c1f18514c1a,,,,,,,sngl,resources/Empty.png,resources/DY.BMP,Door4,0.309895833,-0.010416667,1,0,0,0.5937,optionRight,60,11570,5,33,0,33,0,1,,,,,,,,,,,,,,,,,,,,,,,,,,,,,,,,,,,,,,,
,,,,,,,,2023-08-06_08h21.28.735,HF_wild_card,2022.2.4,Win32,59.87665409,62d2b86ed12d650ea7268dd7,64ce5acb97489d65b14ecc7a,64cf49dcad7a3c1f18514c1a,,,,,,,decisionTrl,resources/DB.BMP,resources/DY.BMP,Door4,0.4375,-0.036458333,1,0,0,0.7101,optionRight,60,11630,5,34,0,34,0,1,,,,,,,,,,,,,,,,,,,,,,,,,,,,,,,,,,,,,,,
,,,,,,,,2023-08-06_08h21.28.735,HF_wild_card,2022.2.4,Win32,59.87665409,62d2b86ed12d650ea7268dd7,64ce5acb97489d65b14ecc7a,64cf49dcad7a3c1f18514c1a,,,,,,,decisionTrl,resources/DG.BMP,resources/DB.BMP,Door3,0.352864583,-0.009114583,1,0,0,0.8048,optionRight,70,11700,5,35,0,35,0,1,,,,,,,,,,,,,,,,,,,,,,,,,,,,,,,,,,,,,,,
,,,,,,,,2023-08-06_08h21.28.735,HF_wild_card,2022.2.4,Win32,59.87665409,62d2b86ed12d650ea7268dd7,64ce5acb97489d65b14ecc7a,64cf49dcad7a3c1f18514c1a,,,,,,,decisionTrl,resources/DG.BMP,resources/DY.BMP,Door4,0.38671875,0.006510417,1,0,0,0.8969,optionRight,60,11760,5,36,0,36,0,1,,,,,,,,,,,,,,,,,,,,,,,,,,,,,,,,,,,,,,,
,,,,,,,,2023-08-06_08h21.28.735,HF_wild_card,2022.2.4,Win32,59.87665409,62d2b86ed12d650ea7268dd7,64ce5acb97489d65b14ecc7a,64cf49dcad7a3c1f18514c1a,,,,,,,ctch,resources/DY.BMP,resources/DBN.BMP,Door4,-0.328125,-0.024739583,1,0,0,0.8259,optionLeft,60,11820,5,37,0,37,0,1,,,,,,,,,,,,,,,,,,,,,,,,,,,,,,,,,,,,,,,
,,,,,,,,2023-08-06_08h21.28.735,HF_wild_card,2022.2.4,Win32,59.87665409,62d2b86ed12d650ea7268dd7,64ce5acb97489d65b14ecc7a,64cf49dcad7a3c1f18514c1a,,,,,,,decisionTrl,resources/DBN.BMP,resources/DP.BMP,Door1,-0.345052083,-0.032552083,1,0,0,0.8933,optionLeft,30,11850,5,38,0,38,0,1,,,,,,,,,,,,,,,,,,,,,,,,,,,,,,,,,,,,,,,
,,,,,,,,2023-08-06_08h21.28.735,HF_wild_card,2022.2.4,Win32,59.87665409,62d2b86ed12d650ea7268dd7,64ce5acb97489d65b14ecc7a,64cf49dcad7a3c1f18514c1a,,,,,,,decisionTrl,resources/DB.BMP,resources/DY.BMP,Door3,-0.408854167,-0.0390625,1,0,0,1.3128,optionLeft,70,11920,5,39,0,39,0,1,,,,,,,,,,,,,,,,,,,,,,,,,,,,,,,,,,,,,,,
,,,,,,,,2023-08-06_08h21.28.735,HF_wild_card,2022.2.4,Win32,59.87665409,62d2b86ed12d650ea7268dd7,64ce5acb97489d65b14ecc7a,64cf49dcad7a3c1f18514c1a,,,,,,,decisionTrl,resources/DB.BMP,resources/DY.BMP,Door3,-0.303385417,-0.040364583,1,0,0,0.8243,optionLeft,70,11990,5,40,0,40,0,1,,,,,,,,,,,,,,,,,,,,,,,,,,,,,,,,,,,,,,,
,,,,,,,,2023-08-06_08h21.28.735,HF_wild_card,2022.2.4,Win32,59.87665409,62d2b86ed12d650ea7268dd7,64ce5acb97489d65b14ecc7a,64cf49dcad7a3c1f18514c1a,,,,,,,decisionTrl,resources/DBN.BMP,resources/DP.BMP,Door1,-0.326822917,-0.028645833,1,0,0,1.2104,optionLeft,30,12020,5,41,0,41,0,1,,,,,,,,,,,,,,,,,,,,,,,,,,,,,,,,,,,,,,,
,,,,,,,,2023-08-06_08h21.28.735,HF_wild_card,2022.2.4,Win32,59.87665409,62d2b86ed12d650ea7268dd7,64ce5acb97489d65b14ecc7a,64cf49dcad7a3c1f18514c1a,,,,,,,decisionTrl,resources/DY.BMP,resources/DB.BMP,Door3,0.321614583,-0.005208333,1,0,0,1.4119,optionRight,70,12090,5,42,0,42,0,1,,,,,,,,,,,,,,,,,,,,,,,,,,,,,,,,,,,,,,,
,,,,,,,,2023-08-06_08h21.28.735,HF_wild_card,2022.2.4,Win32,59.87665409,62d2b86ed12d650ea7268dd7,64ce5acb97489d65b14ecc7a,64cf49dcad7a3c1f18514c1a,,,,,,,decisionTrl,resources/DY.BMP,resources/DG.BMP,Door4,-0.416666667,-0.01171875,1,0,0,0.7546,optionLeft,80,12170,5,43,0,43,0,1,,,,,,,,,,,,,,,,,,,,,,,,,,,,,,,,,,,,,,,
,,,,,,,,2023-08-06_08h21.28.735,HF_wild_card,2022.2.4,Win32,59.87665409,62d2b86ed12d650ea7268dd7,64ce5acb97489d65b14ecc7a,64cf49dcad7a3c1f18514c1a,,,,,,,,,,,,,,,,,,,,,,,,,,4,0,4,0,1,,,,,,,,,,,,,,,,,,,,,,,,,,,,,,,,,,
,,,,,,,,2023-08-06_08h21.28.735,HF_wild_card,2022.2.4,Win32,59.87665409,62d2b86ed12d650ea7268dd7,64ce5acb97489d65b14ecc7a,64cf49dcad7a3c1f18514c1a,,,,,,,decisionTrl,resources/DP.BMP,resources/DBN.BMP,Door1,0.201822917,-0.028645833,1,0,0,1.4863,optionRight,30,12200,6,0,0,0,0,1,,,,,,,,,,,,,,,,,,,,,,,,,,,,,,,,,,,,,,,
,,,,,,,,2023-08-06_08h21.28.735,HF_wild_card,2022.2.4,Win32,59.87665409,62d2b86ed12d650ea7268dd7,64ce5acb97489d65b14ecc7a,64cf49dcad7a3c1f18514c1a,,,,,,,sngl,resources/DB.BMP,resources/Empty.png,Door3,-0.454427083,-0.076822917,1,0,0,0.6964,optionLeft,70,12270,6,1,0,1,0,1,,,,,,,,,,,,,,,,,,,,,,,,,,,,,,,,,,,,,,,
,,,,,,,,2023-08-06_08h21.28.735,HF_wild_card,2022.2.4,Win32,59.87665409,62d2b86ed12d650ea7268dd7,64ce5acb97489d65b14ecc7a,64cf49dcad7a3c1f18514c1a,,,,,,,ctch,resources/DY.BMP,resources/DBN.BMP,Door4,-0.352864583,-0.08984375,1,0,0,0.6078,optionLeft,60,12330,6,2,0,2,0,1,,,,,,,,,,,,,,,,,,,,,,,,,,,,,,,,,,,,,,,
,,,,,,,,2023-08-06_08h21.28.735,HF_wild_card,2022.2.4,Win32,59.87665409,62d2b86ed12d650ea7268dd7,64ce5acb97489d65b14ecc7a,64cf49dcad7a3c1f18514c1a,,,,,,,decisionTrl,resources/DY.BMP,resources/DB.BMP,Door4,-0.236979167,-0.037760417,1,0,0,1.4187,optionLeft,60,12390,6,3,0,3,0,1,,,,,,,,,,,,,,,,,,,,,,,,,,,,,,,,,,,,,,,
,,,,,,,,2023-08-06_08h21.28.735,HF_wild_card,2022.2.4,Win32,59.87665409,62d2b86ed12d650ea7268dd7,64ce5acb97489d65b14ecc7a,64cf49dcad7a3c1f18514c1a,,,,,,,sngl,resources/Empty.png,resources/DG.BMP,WildCard_Ex,0.35546875,-0.029947917,1,0,0,0.7096,optionRight,45,12435,6,4,0,4,0,1,,,,,,,,,,,,,,,,,,,,,,,,,,,,,,,,,,,,,,,
,,,,,,,,2023-08-06_08h21.28.735,HF_wild_card,2022.2.4,Win32,59.87665409,62d2b86ed12d650ea7268dd7,64ce5acb97489d65b14ecc7a,64cf49dcad7a3c1f18514c1a,,,,,,,decisionTrl,resources/DP.BMP,resources/DBN.BMP,Door1,0.356770833,-0.014322917,1,0,0,1.0108,optionRight,30,12465,6,5,0,5,0,1,,,,,,,,,,,,,,,,,,,,,,,,,,,,,,,,,,,,,,,
,,,,,,,,2023-08-06_08h21.28.735,HF_wild_card,2022.2.4,Win32,59.87665409,62d2b86ed12d650ea7268dd7,64ce5acb97489d65b14ecc7a,64cf49dcad7a3c1f18514c1a,,,,,,,decisionTrl,resources/DG.BMP,resources/DBN.BMP,WildCard_Ex,-0.36328125,-0.061197917,1,0,0,1.5603,optionLeft,55,12520,6,6,0,6,0,1,,,,,,,,,,,,,,,,,,,,,,,,,,,,,,,,,,,,,,,
,,,,,,,,2023-08-06_08h21.28.735,HF_wild_card,2022.2.4,Win32,59.87665409,62d2b86ed12d650ea7268dd7,64ce5acb97489d65b14ecc7a,64cf49dcad7a3c1f18514c1a,,,,,,,sngl,resources/DY.BMP,resources/Empty.png,Door4,-0.282552083,-0.040364583,1,0,0,0.6455,optionLeft,60,12580,6,7,0,7,0,1,,,,,,,,,,,,,,,,,,,,,,,,,,,,,,,,,,,,,,,
,,,,,,,,2023-08-06_08h21.28.735,HF_wild_card,2022.2.4,Win32,59.87665409,62d2b86ed12d650ea7268dd7,64ce5acb97489d65b14ecc7a,64cf49dcad7a3c1f18514c1a,,,,,,,decisionTrl,resources/DG.BMP,resources/DB.BMP,Door3,0.272135417,-0.018229167,1,0,0,0.8789,optionRight,70,12650,6,8,0,8,0,1,,,,,,,,,,,,,,,,,,,,,,,,,,,,,,,,,,,,,,,
,,,,,,,,2023-08-06_08h21.28.735,HF_wild_card,2022.2.4,Win32,59.87665409,62d2b86ed12d650ea7268dd7,64ce5acb97489d65b14ecc7a,64cf49dcad7a3c1f18514c1a,,,,,,,ctch,resources/DBN.BMP,resources/DY.BMP,Door4,0.41796875,-0.032552083,1,0,0,0.7434,optionRight,80,12730,6,9,0,9,0,1,,,,,,,,,,,,,,,,,,,,,,,,,,,,,,,,,,,,,,,
,,,,,,,,2023-08-06_08h21.28.735,HF_wild_card,2022.2.4,Win32,59.87665409,62d2b86ed12d650ea7268dd7,64ce5acb97489d65b14ecc7a,64cf49dcad7a3c1f18514c1a,,,,,,,decisionTrl,resources/DY.BMP,resources/DG.BMP,Door4,-0.290364583,-0.05078125,1,0,0,0.6909,optionLeft,60,12790,6,10,0,10,0,1,,,,,,,,,,,,,,,,,,,,,,,,,,,,,,,,,,,,,,,
,,,,,,,,2023-08-06_08h21.28.735,HF_wild_card,2022.2.4,Win32,59.87665409,62d2b86ed12d650ea7268dd7,64ce5acb97489d65b14ecc7a,64cf49dcad7a3c1f18514c1a,,,,,,,decisionTrl,resources/DBN.BMP,resources/DG.BMP,WildCard_Ex,0.454427083,-0.024739583,1,0,0,1.3622,optionRight,45,12835,6,11,0,11,0,1,,,,,,,,,,,,,,,,,,,,,,,,,,,,,,,,,,,,,,,
,,,,,,,,2023-08-06_08h21.28.735,HF_wild_card,2022.2.4,Win32,59.87665409,62d2b86ed12d650ea7268dd7,64ce5acb97489d65b14ecc7a,64cf49dcad7a3c1f18514c1a,,,,,,,decisionTrl,resources/DG.BMP,resources/DY.BMP,Door4,0.350260417,-0.05078125,1,0,0,0.8606,optionRight,80,12915,6,12,0,12,0,1,,,,,,,,,,,,,,,,,,,,,,,,,,,,,,,,,,,,,,,
,,,,,,,,2023-08-06_08h21.28.735,HF_wild_card,2022.2.4,Win32,59.87665409,62d2b86ed12d650ea7268dd7,64ce5acb97489d65b14ecc7a,64cf49dcad7a3c1f18514c1a,,,,,,,decisionTrl,resources/DY.BMP,resources/DB.BMP,Door4,-0.303385417,-0.036458333,1,0,0,0.6268,optionLeft,60,12975,6,13,0,13,0,1,,,,,,,,,,,,,,,,,,,,,,,,,,,,,,,,,,,,,,,
,,,,,,,,2023-08-06_08h21.28.735,HF_wild_card,2022.2.4,Win32,59.87665409,62d2b86ed12d650ea7268dd7,64ce5acb97489d65b14ecc7a,64cf49dcad7a3c1f18514c1a,,,,,,,sngl,resources/Empty.png,resources/DBN.BMP,Door1,0.28515625,-0.001302083,1,0,0,0.8119,optionRight,30,13005,6,14,0,14,0,1,,,,,,,,,,,,,,,,,,,,,,,,,,,,,,,,,,,,,,,
,,,,,,,,2023-08-06_08h21.28.735,HF_wild_card,2022.2.4,Win32,59.87665409,62d2b86ed12d650ea7268dd7,64ce5acb97489d65b14ecc7a,64cf49dcad7a3c1f18514c1a,,,,,,,sngl,resources/Empty.png,resources/DY.BMP,Door4,0.338541667,-0.01171875,1,0,0,0.551,optionRight,80,13085,6,15,0,15,0,1,,,,,,,,,,,,,,,,,,,,,,,,,,,,,,,,,,,,,,,
,,,,,,,,2023-08-06_08h21.28.735,HF_wild_card,2022.2.4,Win32,59.87665409,62d2b86ed12d650ea7268dd7,64ce5acb97489d65b14ecc7a,64cf49dcad7a3c1f18514c1a,,,,,,,decisionTrl,resources/DBN.BMP,resources/DP.BMP,Door1,-0.291666667,-0.036458333,1,0,0,2.4277,optionLeft,30,13115,6,16,0,16,0,1,,,,,,,,,,,,,,,,,,,,,,,,,,,,,,,,,,,,,,,
,,,,,,,,2023-08-06_08h21.28.735,HF_wild_card,2022.2.4,Win32,59.87665409,62d2b86ed12d650ea7268dd7,64ce5acb97489d65b14ecc7a,64cf49dcad7a3c1f18514c1a,,,,,,,sngl,resources/Empty.png,resources/DB.BMP,Door3,0.40625,-0.036458333,1,0,0,0.6899,optionRight,70,13185,6,17,0,17,0,1,,,,,,,,,,,,,,,,,,,,,,,,,,,,,,,,,,,,,,,
,,,,,,,,2023-08-06_08h21.28.735,HF_wild_card,2022.2.4,Win32,59.87665409,62d2b86ed12d650ea7268dd7,64ce5acb97489d65b14ecc7a,64cf49dcad7a3c1f18514c1a,,,,,,,sngl,resources/Empty.png,resources/DP.BMP,Door2,0.3671875,-0.022135417,1,0,0,0.743,optionRight,40,13225,6,18,0,18,0,1,,,,,,,,,,,,,,,,,,,,,,,,,,,,,,,,,,,,,,,
,,,,,,,,2023-08-06_08h21.28.735,HF_wild_card,2022.2.4,Win32,59.87665409,62d2b86ed12d650ea7268dd7,64ce5acb97489d65b14ecc7a,64cf49dcad7a3c1f18514c1a,,,,,,,ctch,resources/DB.BMP,resources/DP.BMP,Door3,-0.31640625,-0.057291667,1,0,0,1.1069,optionLeft,70,13295,6,19,0,19,0,1,,,,,,,,,,,,,,,,,,,,,,,,,,,,,,,,,,,,,,,
,,,,,,,,2023-08-06_08h21.28.735,HF_wild_card,2022.2.4,Win32,59.87665409,62d2b86ed12d650ea7268dd7,64ce5acb97489d65b14ecc7a,64cf49dcad7a3c1f18514c1a,,,,,,,ctch,resources/DBN.BMP,resources/DY.BMP,Door4,0.34375,-0.059895833,1,0,0,1.0115,optionRight,60,13355,6,20,0,20,0,1,,,,,,,,,,,,,,,,,,,,,,,,,,,,,,,,,,,,,,,
,,,,,,,,2023-08-06_08h21.28.735,HF_wild_card,2022.2.4,Win32,59.87665409,62d2b86ed12d650ea7268dd7,64ce5acb97489d65b14ecc7a,64cf49dcad7a3c1f18514c1a,,,,,,,decisionTrl,resources/DP.BMP,resources/DBN.BMP,Door1,0.37890625,-0.01953125,1,0,0,1.2563,optionRight,30,13385,6,21,0,21,0,1,,,,,,,,,,,,,,,,,,,,,,,,,,,,,,,,,,,,,,,
,,,,,,,,2023-08-06_08h21.28.735,HF_wild_card,2022.2.4,Win32,59.87665409,62d2b86ed12d650ea7268dd7,64ce5acb97489d65b14ecc7a,64cf49dcad7a3c1f18514c1a,,,,,,,sngl,resources/DP.BMP,resources/Empty.png,Door2,-0.2578125,-0.0390625,1,0,0,0.5656,optionLeft,20,13405,6,22,0,22,0,1,,,,,,,,,,,,,,,,,,,,,,,,,,,,,,,,,,,,,,,
,,,,,,,,2023-08-06_08h21.28.735,HF_wild_card,2022.2.4,Win32,59.87665409,62d2b86ed12d650ea7268dd7,64ce5acb97489d65b14ecc7a,64cf49dcad7a3c1f18514c1a,,,,,,,decisionTrl,resources/DB.BMP,resources/DG.BMP,Door3,-0.395833333,-0.055989583,1,0,0,1.0013,optionLeft,70,13475,6,23,0,23,0,1,,,,,,,,,,,,,,,,,,,,,,,,,,,,,,,,,,,,,,,
,,,,,,,,2023-08-06_08h21.28.735,HF_wild_card,2022.2.4,Win32,59.87665409,62d2b86ed12d650ea7268dd7,64ce5acb97489d65b14ecc7a,64cf49dcad7a3c1f18514c1a,,,,,,,decisionTrl,resources/DP.BMP,resources/DG.BMP,WildCard_Ex,0.326822917,-0.001302083,1,0,0,1.484,optionRight,55,13530,6,24,0,24,0,1,,,,,,,,,,,,,,,,,,,,,,,,,,,,,,,,,,,,,,,
,,,,,,,,2023-08-06_08h21.28.735,HF_wild_card,2022.2.4,Win32,59.87665409,62d2b86ed12d650ea7268dd7,64ce5acb97489d65b14ecc7a,64cf49dcad7a3c1f18514c1a,,,,,,,sngl,resources/DG.BMP,resources/Empty.png,WildCard_Ex,-0.35546875,-0.046875,1,0,0,0.742,optionLeft,45,13575,6,25,0,25,0,1,,,,,,,,,,,,,,,,,,,,,,,,,,,,,,,,,,,,,,,
,,,,,,,,2023-08-06_08h21.28.735,HF_wild_card,2022.2.4,Win32,59.87665409,62d2b86ed12d650ea7268dd7,64ce5acb97489d65b14ecc7a,64cf49dcad7a3c1f18514c1a,,,,,,,decisionTrl,resources/DY.BMP,resources/DB.BMP,Door4,-0.361979167,-0.055989583,1,0,0,1.5267,optionLeft,60,13635,6,26,0,26,0,1,,,,,,,,,,,,,,,,,,,,,,,,,,,,,,,,,,,,,,,
,,,,,,,,2023-08-06_08h21.28.735,HF_wild_card,2022.2.4,Win32,59.87665409,62d2b86ed12d650ea7268dd7,64ce5acb97489d65b14ecc7a,64cf49dcad7a3c1f18514c1a,,,,,,,ctch,resources/DB.BMP,resources/DP.BMP,Door3,-0.360677083,-0.063802083,1,0,0,0.7566,optionLeft,70,13705,6,27,0,27,0,1,,,,,,,,,,,,,,,,,,,,,,,,,,,,,,,,,,,,,,,
,,,,,,,,2023-08-06_08h21.28.735,HF_wild_card,2022.2.4,Win32,59.87665409,62d2b86ed12d650ea7268dd7,64ce5acb97489d65b14ecc7a,64cf49dcad7a3c1f18514c1a,,,,,,,decisionTrl,resources/DB.BMP,resources/DY.BMP,Door3,-0.3671875,-0.069010417,1,0,0,0.8998,optionLeft,70,13775,6,28,0,28,0,1,,,,,,,,,,,,,,,,,,,,,,,,,,,,,,,,,,,,,,,
,,,,,,,,2023-08-06_08h21.28.735,HF_wild_card,2022.2.4,Win32,59.87665409,62d2b86ed12d650ea7268dd7,64ce5acb97489d65b14ecc7a,64cf49dcad7a3c1f18514c1a,,,,,,,decisionTrl,resources/DP.BMP,resources/DBN.BMP,Door1,0.338541667,-0.037760417,1,0,0,1.0465,optionRight,30,13805,6,29,0,29,0,1,,,,,,,,,,,,,,,,,,,,,,,,,,,,,,,,,,,,,,,
,,,,,,,,2023-08-06_08h21.28.735,HF_wild_card,2022.2.4,Win32,59.87665409,62d2b86ed12d650ea7268dd7,64ce5acb97489d65b14ecc7a,64cf49dcad7a3c1f18514c1a,,,,,,,ctch,resources/DY.BMP,resources/DBN.BMP,Door4,-0.3125,-0.057291667,1,0,0,0.9284,optionLeft,60,13865,6,30,0,30,0,1,,,,,,,,,,,,,,,,,,,,,,,,,,,,,,,,,,,,,,,
,,,,,,,,2023-08-06_08h21.28.735,HF_wild_card,2022.2.4,Win32,59.87665409,62d2b86ed12d650ea7268dd7,64ce5acb97489d65b14ecc7a,64cf49dcad7a3c1f18514c1a,,,,,,,decisionTrl,resources/DY.BMP,resources/DB.BMP,Door3,0.419270833,-0.052083333,1,0,0,0.9508,optionRight,70,13935,6,31,0,31,0,1,,,,,,,,,,,,,,,,,,,,,,,,,,,,,,,,,,,,,,,
,,,,,,,,2023-08-06_08h21.28.735,HF_wild_card,2022.2.4,Win32,59.87665409,62d2b86ed12d650ea7268dd7,64ce5acb97489d65b14ecc7a,64cf49dcad7a3c1f18514c1a,,,,,,,decisionTrl,resources/DBN.BMP,resources/DP.BMP,Door1,-0.203125,-0.032552083,1,0,0,1.9417,optionLeft,30,13965,6,32,0,32,0,1,,,,,,,,,,,,,,,,,,,,,,,,,,,,,,,,,,,,,,,
,,,,,,,,2023-08-06_08h21.28.735,HF_wild_card,2022.2.4,Win32,59.87665409,62d2b86ed12d650ea7268dd7,64ce5acb97489d65b14ecc7a,64cf49dcad7a3c1f18514c1a,,,,,,,ctch,resources/DP.BMP,resources/DB.BMP,Door3,0.372395833,-0.03515625,1,0,0,0.8479,optionRight,70,14035,6,33,0,33,0,1,,,,,,,,,,,,,,,,,,,,,,,,,,,,,,,,,,,,,,,
,,,,,,,,2023-08-06_08h21.28.735,HF_wild_card,2022.2.4,Win32,59.87665409,62d2b86ed12d650ea7268dd7,64ce5acb97489d65b14ecc7a,64cf49dcad7a3c1f18514c1a,,,,,,,decisionTrl,resources/DB.BMP,resources/DY.BMP,Door3,-0.2578125,-0.05859375,1,0,0,0.6458,optionLeft,70,14105,6,34,0,34,0,1,,,,,,,,,,,,,,,,,,,,,,,,,,,,,,,,,,,,,,,
,,,,,,,,2023-08-06_08h21.28.735,HF_wild_card,2022.2.4,Win32,59.87665409,62d2b86ed12d650ea7268dd7,64ce5acb97489d65b14ecc7a,64cf49dcad7a3c1f18514c1a,,,,,,,decisionTrl,resources/DG.BMP,resources/DP.BMP,WildCard_Ex,-0.24609375,-0.055989583,1,0,0,1.4093,optionLeft,55,14160,6,35,0,35,0,1,,,,,,,,,,,,,,,,,,,,,,,,,,,,,,,,,,,,,,,
,,,,,,,,2023-08-06_08h21.28.735,HF_wild_card,2022.2.4,Win32,59.87665409,62d2b86ed12d650ea7268dd7,64ce5acb97489d65b14ecc7a,64cf49dcad7a3c1f18514c1a,,,,,,,decisionTrl,resources/DBN.BMP,resources/DP.BMP,Door1,-0.263020833,-0.055989583,1,0,0,1.0797,optionLeft,30,14190,6,36,0,36,0,1,,,,,,,,,,,,,,,,,,,,,,,,,,,,,,,,,,,,,,,
,,,,,,,,2023-08-06_08h21.28.735,HF_wild_card,2022.2.4,Win32,59.87665409,62d2b86ed12d650ea7268dd7,64ce5acb97489d65b14ecc7a,64cf49dcad7a3c1f18514c1a,,,,,,,decisionTrl,resources/DB.BMP,resources/DY.BMP,Door4,0.47265625,-0.013020833,1,0,0,1.7644,optionRight,80,14270,6,37,0,37,0,1,,,,,,,,,,,,,,,,,,,,,,,,,,,,,,,,,,,,,,,
,,,,,,,,2023-08-06_08h21.28.735,HF_wild_card,2022.2.4,Win32,59.87665409,62d2b86ed12d650ea7268dd7,64ce5acb97489d65b14ecc7a,64cf49dcad7a3c1f18514c1a,,,,,,,sngl,resources/DG.BMP,resources/Empty.png,WildCard_Ex,-0.251302083,-0.06640625,1,0,0,0.796,optionLeft,55,14325,6,38,0,38,0,1,,,,,,,,,,,,,,,,,,,,,,,,,,,,,,,,,,,,,,,
,,,,,,,,2023-08-06_08h21.28.735,HF_wild_card,2022.2.4,Win32,59.87665409,62d2b86ed12d650ea7268dd7,64ce5acb97489d65b14ecc7a,64cf49dcad7a3c1f18514c1a,,,,,,,ctch,resources/DP.BMP,resources/DB.BMP,Door3,0.393229167,-0.072916667,1,0,0,0.8632,optionRight,70,14395,6,39,0,39,0,1,,,,,,,,,,,,,,,,,,,,,,,,,,,,,,,,,,,,,,,
,,,,,,,,2023-08-06_08h21.28.735,HF_wild_card,2022.2.4,Win32,59.87665409,62d2b86ed12d650ea7268dd7,64ce5acb97489d65b14ecc7a,64cf49dcad7a3c1f18514c1a,,,,,,,decisionTrl,resources/DBN.BMP,resources/DP.BMP,Door2,0.341145833,-0.006510417,1,0,0,1.297,optionRight,40,14435,6,40,0,40,0,1,,,,,,,,,,,,,,,,,,,,,,,,,,,,,,,,,,,,,,,
,,,,,,,,2023-08-06_08h21.28.735,HF_wild_card,2022.2.4,Win32,59.87665409,62d2b86ed12d650ea7268dd7,64ce5acb97489d65b14ecc7a,64cf49dcad7a3c1f18514c1a,,,,,,,sngl,resources/Empty.png,resources/DG.BMP,WildCard_Ex,0.385416667,-0.022135417,1,0,0,0.7128,optionRight,55,14490,6,41,0,41,0,1,,,,,,,,,,,,,,,,,,,,,,,,,,,,,,,,,,,,,,,
,,,,,,,,2023-08-06_08h21.28.735,HF_wild_card,2022.2.4,Win32,59.87665409,62d2b86ed12d650ea7268dd7,64ce5acb97489d65b14ecc7a,64cf49dcad7a3c1f18514c1a,,,,,,,decisionTrl,resources/DB.BMP,resources/DY.BMP,Door4,0.360677083,-0.015625,1,0,0,1.6427,optionRight,80,14570,6,42,0,42,0,1,,,,,,,,,,,,,,,,,,,,,,,,,,,,,,,,,,,,,,,
,,,,,,,,2023-08-06_08h21.28.735,HF_wild_card,2022.2.4,Win32,59.87665409,62d2b86ed12d650ea7268dd7,64ce5acb97489d65b14ecc7a,64cf49dcad7a3c1f18514c1a,,,,,,,sngl,resources/DBN.BMP,resources/Empty.png,Door1,-0.283854167,-0.02734375,1,0,0,0.8051,optionLeft,30,14600,6,43,0,43,0,1,,,,,,,,,,,,,,,,,,,,,,,,,,,,,,,,,,,,,,,
,,,,,,,,2023-08-06_08h21.28.735,HF_wild_card,2022.2.4,Win32,59.87665409,62d2b86ed12d650ea7268dd7,64ce5acb97489d65b14ecc7a,64cf49dcad7a3c1f18514c1a,,,,,,,,,,,,,,,,,,,,,,,,,,5,0,5,0,1,,,,,,,,,,,,,,,,,,,,,,,,,,,,,,,,,,
,,,,,,,,2023-08-06_08h21.28.735,HF_wild_card,2022.2.4,Win32,59.87665409,62d2b86ed12d650ea7268dd7,64ce5acb97489d65b14ecc7a,64cf49dcad7a3c1f18514c1a,,,,,,,decisionTrl,resources/DBN.BMP,resources/DP.BMP,Door1,-0.35546875,-0.076822917,1,0,0,1.2415,optionLeft,30,14630,7,0,0,0,0,1,,,,,,,,,,,,,,,,,,,,,,,,,,,,,,,,,,,,,,,
,,,,,,,,2023-08-06_08h21.28.735,HF_wild_card,2022.2.4,Win32,59.87665409,62d2b86ed12d650ea7268dd7,64ce5acb97489d65b14ecc7a,64cf49dcad7a3c1f18514c1a,,,,,,,decisionTrl,resources/DP.BMP,resources/DBN.BMP,Door1,0.333333333,-0.013020833,1,0,0,1.0684,optionRight,30,14660,7,1,0,1,0,1,,,,,,,,,,,,,,,,,,,,,,,,,,,,,,,,,,,,,,,
,,,,,,,,2023-08-06_08h21.28.735,HF_wild_card,2022.2.4,Win32,59.87665409,62d2b86ed12d650ea7268dd7,64ce5acb97489d65b14ecc7a,64cf49dcad7a3c1f18514c1a,,,,,,,ctch,resources/DY.BMP,resources/DBN.BMP,Door4,-0.44921875,-0.046875,1,0,0,0.9787,optionLeft,80,14740,7,2,0,2,0,1,,,,,,,,,,,,,,,,,,,,,,,,,,,,,,,,,,,,,,,
,,,,,,,,2023-08-06_08h21.28.735,HF_wild_card,2022.2.4,Win32,59.87665409,62d2b86ed12d650ea7268dd7,64ce5acb97489d65b14ecc7a,64cf49dcad7a3c1f18514c1a,,,,,,,ctch,resources/DP.BMP,resources/DB.BMP,Door3,0.294270833,-0.059895833,1,0,0,0.861,optionRight,70,14810,7,3,0,3,0,1,,,,,,,,,,,,,,,,,,,,,,,,,,,,,,,,,,,,,,,
,,,,,,,,2023-08-06_08h21.28.735,HF_wild_card,2022.2.4,Win32,59.87665409,62d2b86ed12d650ea7268dd7,64ce5acb97489d65b14ecc7a,64cf49dcad7a3c1f18514c1a,,,,,,,ctch,resources/DBN.BMP,resources/DY.BMP,Door4,0.350260417,-0.040364583,1,0,0,1.0759,optionRight,60,14870,7,4,0,4,0,1,,,,,,,,,,,,,,,,,,,,,,,,,,,,,,,,,,,,,,,
,,,,,,,,2023-08-06_08h21.28.735,HF_wild_card,2022.2.4,Win32,59.87665409,62d2b86ed12d650ea7268dd7,64ce5acb97489d65b14ecc7a,64cf49dcad7a3c1f18514c1a,,,,,,,decisionTrl,resources/DB.BMP,resources/DY.BMP,Door4,0.48046875,-0.010416667,1,0,0,1.459,optionRight,80,14950,7,5,0,5,0,1,,,,,,,,,,,,,,,,,,,,,,,,,,,,,,,,,,,,,,,
,,,,,,,,2023-08-06_08h21.28.735,HF_wild_card,2022.2.4,Win32,59.87665409,62d2b86ed12d650ea7268dd7,64ce5acb97489d65b14ecc7a,64cf49dcad7a3c1f18514c1a,,,,,,,decisionTrl,resources/DBN.BMP,resources/DP.BMP,Door1,-0.290364583,0.033854167,1,0,0,1.5594,optionLeft,30,14980,7,6,0,6,0,1,,,,,,,,,,,,,,,,,,,,,,,,,,,,,,,,,,,,,,,
,,,,,,,,2023-08-06_08h21.28.735,HF_wild_card,2022.2.4,Win32,59.87665409,62d2b86ed12d650ea7268dd7,64ce5acb97489d65b14ecc7a,64cf49dcad7a3c1f18514c1a,,,,,,,decisionTrl,resources/DBN.BMP,resources/DP.BMP,Door1,-0.364583333,-0.029947917,1,0,0,0.7655,optionLeft,30,15010,7,7,0,7,0,1,,,,,,,,,,,,,,,,,,,,,,,,,,,,,,,,,,,,,,,
,,,,,,,,2023-08-06_08h21.28.735,HF_wild_card,2022.2.4,Win32,59.87665409,62d2b86ed12d650ea7268dd7,64ce5acb97489d65b14ecc7a,64cf49dcad7a3c1f18514c1a,,,,,,,decisionTrl,resources/DP.BMP,resources/DBN.BMP,Door1,0.25390625,0.022135417,1,0,0,1.6325,optionRight,30,15040,7,8,0,8,0,1,,,,,,,,,,,,,,,,,,,,,,,,,,,,,,,,,,,,,,,
,,,,,,,,2023-08-06_08h21.28.735,HF_wild_card,2022.2.4,Win32,59.87665409,62d2b86ed12d650ea7268dd7,64ce5acb97489d65b14ecc7a,64cf49dcad7a3c1f18514c1a,,,,,,,decisionTrl,resources/DY.BMP,resources/DB.BMP,Door3,0.264322917,-0.013020833,1,0,0,1.4913,optionRight,70,15110,7,9,0,9,0,1,,,,,,,,,,,,,,,,,,,,,,,,,,,,,,,,,,,,,,,
,,,,,,,,2023-08-06_08h21.28.735,HF_wild_card,2022.2.4,Win32,59.87665409,62d2b86ed12d650ea7268dd7,64ce5acb97489d65b14ecc7a,64cf49dcad7a3c1f18514c1a,,,,,,,decisionTrl,resources/DY.BMP,resources/DB.BMP,Door3,0.287760417,-0.013020833,1,0,0,1.0288,optionRight,70,15180,7,10,0,10,0,1,,,,,,,,,,,,,,,,,,,,,,,,,,,,,,,,,,,,,,,
,,,,,,,,2023-08-06_08h21.28.735,HF_wild_card,2022.2.4,Win32,59.87665409,62d2b86ed12d650ea7268dd7,64ce5acb97489d65b14ecc7a,64cf49dcad7a3c1f18514c1a,,,,,,,decisionTrl,resources/DY.BMP,resources/DB.BMP,Door3,0.3828125,-0.010416667,1,0,0,0.8461,optionRight,70,15250,7,11,0,11,0,1,,,,,,,,,,,,,,,,,,,,,,,,,,,,,,,,,,,,,,,
,,,,,,,,2023-08-06_08h21.28.735,HF_wild_card,2022.2.4,Win32,59.87665409,62d2b86ed12d650ea7268dd7,64ce5acb97489d65b14ecc7a,64cf49dcad7a3c1f18514c1a,,,,,,,decisionTrl,resources/DY.BMP,resources/DB.BMP,Door3,0.313802083,-0.01953125,1,0,0,0.7093,optionRight,70,15320,7,12,0,12,0,1,,,,,,,,,,,,,,,,,,,,,,,,,,,,,,,,,,,,,,,
,,,,,,,,2023-08-06_08h21.28.735,HF_wild_card,2022.2.4,Win32,59.87665409,62d2b86ed12d650ea7268dd7,64ce5acb97489d65b14ecc7a,64cf49dcad7a3c1f18514c1a,,,,,,,decisionTrl,resources/DB.BMP,resources/DY.BMP,Door4,0.397135417,-0.041666667,1,0,0,0.9708,optionRight,60,15380,7,13,0,13,0,1,,,,,,,,,,,,,,,,,,,,,,,,,,,,,,,,,,,,,,,
,,,,,,,,2023-08-06_08h21.28.735,HF_wild_card,2022.2.4,Win32,59.87665409,62d2b86ed12d650ea7268dd7,64ce5acb97489d65b14ecc7a,64cf49dcad7a3c1f18514c1a,,,,,,,ctch,resources/DBN.BMP,resources/DY.BMP,Door4,0.30859375,-0.061197917,1,0,0,0.7184,optionRight,60,15440,7,14,0,14,0,1,,,,,,,,,,,,,,,,,,,,,,,,,,,,,,,,,,,,,,,
,,,,,,,,2023-08-06_08h21.28.735,HF_wild_card,2022.2.4,Win32,59.87665409,62d2b86ed12d650ea7268dd7,64ce5acb97489d65b14ecc7a,64cf49dcad7a3c1f18514c1a,,,,,,,ctch,resources/DP.BMP,resources/DB.BMP,Door3,0.419270833,-0.018229167,1,0,0,1.0621,optionRight,70,15510,7,15,0,15,0,1,,,,,,,,,,,,,,,,,,,,,,,,,,,,,,,,,,,,,,,
,,,,,,,,2023-08-06_08h21.28.735,HF_wild_card,2022.2.4,Win32,59.87665409,62d2b86ed12d650ea7268dd7,64ce5acb97489d65b14ecc7a,64cf49dcad7a3c1f18514c1a,,,,,,,ctch,resources/DP.BMP,resources/DB.BMP,Door3,0.380208333,-0.015625,1,0,0,0.768,optionRight,70,15580,7,16,0,16,0,1,,,,,,,,,,,,,,,,,,,,,,,,,,,,,,,,,,,,,,,
,,,,,,,,2023-08-06_08h21.28.735,HF_wild_card,2022.2.4,Win32,59.87665409,62d2b86ed12d650ea7268dd7,64ce5acb97489d65b14ecc7a,64cf49dcad7a3c1f18514c1a,,,,,,,decisionTrl,resources/DB.BMP,resources/DY.BMP,Door3,-0.3515625,-0.048177083,1,0,0,1.6676,optionLeft,70,15650,7,17,0,17,0,1,,,,,,,,,,,,,,,,,,,,,,,,,,,,,,,,,,,,,,,
,,,,,,,,2023-08-06_08h21.28.735,HF_wild_card,2022.2.4,Win32,59.87665409,62d2b86ed12d650ea7268dd7,64ce5acb97489d65b14ecc7a,64cf49dcad7a3c1f18514c1a,,,,,,,ctch,resources/DB.BMP,resources/DP.BMP,Door3,-0.3359375,-0.05078125,1,0,0,1.0145,optionLeft,70,15720,7,18,0,18,0,1,,,,,,,,,,,,,,,,,,,,,,,,,,,,,,,,,,,,,,,
,,,,,,,,2023-08-06_08h21.28.735,HF_wild_card,2022.2.4,Win32,59.87665409,62d2b86ed12d650ea7268dd7,64ce5acb97489d65b14ecc7a,64cf49dcad7a3c1f18514c1a,,,,,,,decisionTrl,resources/DB.BMP,resources/DY.BMP,Door4,0.34375,0.006510417,1,0,0,0.9117,optionRight,80,15800,7,19,0,19,0,1,,,,,,,,,,,,,,,,,,,,,,,,,,,,,,,,,,,,,,,
,,,,,,,,2023-08-06_08h21.28.735,HF_wild_card,2022.2.4,Win32,59.87665409,62d2b86ed12d650ea7268dd7,64ce5acb97489d65b14ecc7a,64cf49dcad7a3c1f18514c1a,,,,,,,decisionTrl,resources/DP.BMP,resources/DBN.BMP,Door1,0.37109375,0.002604167,1,0,0,1.0283,optionRight,30,15830,7,20,0,20,0,1,,,,,,,,,,,,,,,,,,,,,,,,,,,,,,,,,,,,,,,
,,,,,,,,2023-08-06_08h21.28.735,HF_wild_card,2022.2.4,Win32,59.87665409,62d2b86ed12d650ea7268dd7,64ce5acb97489d65b14ecc7a,64cf49dcad7a3c1f18514c1a,,,,,,,decisionTrl,resources/DB.BMP,resources/DY.BMP,Door4,0.375,-0.022135417,1,0,0,1.1664,optionRight,60,15890,7,21,0,21,0,1,,,,,,,,,,,,,,,,,,,,,,,,,,,,,,,,,,,,,,,
,,,,,,,,2023-08-06_08h21.28.735,HF_wild_card,2022.2.4,Win32,59.87665409,62d2b86ed12d650ea7268dd7,64ce5acb97489d65b14ecc7a,64cf49dcad7a3c1f18514c1a,,,,,,,decisionTrl,resources/DP.BMP,resources/DBN.BMP,Door1,0.358072917,-0.020833333,1,0,0,0.9469,optionRight,30,15920,7,22,0,22,0,1,,,,,,,,,,,,,,,,,,,,,,,,,,,,,,,,,,,,,,,
,,,,,,,,2023-08-06_08h21.28.735,HF_wild_card,2022.2.4,Win32,59.87665409,62d2b86ed12d650ea7268dd7,64ce5acb97489d65b14ecc7a,64cf49dcad7a3c1f18514c1a,,,,,,,ctch,resources/DB.BMP,resources/DP.BMP,Door3,-0.334635417,-0.0390625,1,0,0,1.0626,optionLeft,70,15990,7,23,0,23,0,1,,,,,,,,,,,,,,,,,,,,,,,,,,,,,,,,,,,,,,,
,,,,,,,,2023-08-06_08h21.28.735,HF_wild_card,2022.2.4,Win32,59.87665409,62d2b86ed12d650ea7268dd7,64ce5acb97489d65b14ecc7a,64cf49dcad7a3c1f18514c1a,,,,,,,ctch,resources/DY.BMP,resources/DBN.BMP,Door4,-0.532552083,-0.067708333,1,0,0,0.8671,optionLeft,80,16070,7,24,0,24,0,1,,,,,,,,,,,,,,,,,,,,,,,,,,,,,,,,,,,,,,,
,,,,,,,,2023-08-06_08h21.28.735,HF_wild_card,2022.2.4,Win32,59.87665409,62d2b86ed12d650ea7268dd7,64ce5acb97489d65b14ecc7a,64cf49dcad7a3c1f18514c1a,,,,,,,decisionTrl,resources/DBN.BMP,resources/DP.BMP,Door1,-0.338541667,-0.014322917,1,0,0,1.2638,optionLeft,30,16100,7,25,0,25,0,1,,,,,,,,,,,,,,,,,,,,,,,,,,,,,,,,,,,,,,,
,,,,,,,,2023-08-06_08h21.28.735,HF_wild_card,2022.2.4,Win32,59.87665409,62d2b86ed12d650ea7268dd7,64ce5acb97489d65b14ecc7a,64cf49dcad7a3c1f18514c1a,,,,,,,decisionTrl,resources/DY.BMP,resources/DB.BMP,Door3,0.236979167,-0.04296875,1,0,0,2.4658,optionRight,70,16170,7,26,0,26,0,1,,,,,,,,,,,,,,,,,,,,,,,,,,,,,,,,,,,,,,,
,,,,,,,,2023-08-06_08h21.28.735,HF_wild_card,2022.2.4,Win32,59.87665409,62d2b86ed12d650ea7268dd7,64ce5acb97489d65b14ecc7a,64cf49dcad7a3c1f18514c1a,,,,,,,decisionTrl,resources/DBN.BMP,resources/DP.BMP,Door1,-0.345052083,-0.020833333,1,0,0,1.0757,optionLeft,30,16200,7,27,0,27,0,1,,,,,,,,,,,,,,,,,,,,,,,,,,,,,,,,,,,,,,,
,,,,,,,,2023-08-06_08h21.28.735,HF_wild_card,2022.2.4,Win32,59.87665409,62d2b86ed12d650ea7268dd7,64ce5acb97489d65b14ecc7a,64cf49dcad7a3c1f18514c1a,,,,,,,decisionTrl,resources/DY.BMP,resources/DB.BMP,Door4,-0.404947917,-0.048177083,1,0,0,1.3168,optionLeft,60,16260,7,28,0,28,0,1,,,,,,,,,,,,,,,,,,,,,,,,,,,,,,,,,,,,,,,
,,,,,,,,2023-08-06_08h21.28.735,HF_wild_card,2022.2.4,Win32,59.87665409,62d2b86ed12d650ea7268dd7,64ce5acb97489d65b14ecc7a,64cf49dcad7a3c1f18514c1a,,,,,,,decisionTrl,resources/DP.BMP,resources/DBN.BMP,Door1,0.266927083,-0.002604167,1,0,0,1.084,optionRight,30,16290,7,29,0,29,0,1,,,,,,,,,,,,,,,,,,,,,,,,,,,,,,,,,,,,,,,
,,,,,,,,2023-08-06_08h21.28.735,HF_wild_card,2022.2.4,Win32,59.87665409,62d2b86ed12d650ea7268dd7,64ce5acb97489d65b14ecc7a,64cf49dcad7a3c1f18514c1a,,,,,,,ctch,resources/DB.BMP,resources/DP.BMP,Door3,-0.311197917,-0.083333333,1,0,0,0.9913,optionLeft,70,16360,7,30,0,30,0,1,,,,,,,,,,,,,,,,,,,,,,,,,,,,,,,,,,,,,,,
,,,,,,,,2023-08-06_08h21.28.735,HF_wild_card,2022.2.4,Win32,59.87665409,62d2b86ed12d650ea7268dd7,64ce5acb97489d65b14ecc7a,64cf49dcad7a3c1f18514c1a,,,,,,,decisionTrl,resources/DB.BMP,resources/DY.BMP,Door4,0.385416667,-0.032552083,1,0,0,0.9494,optionRight,60,16420,7,31,0,31,0,1,,,,,,,,,,,,,,,,,,,,,,,,,,,,,,,,,,,,,,,
,,,,,,,,2023-08-06_08h21.28.735,HF_wild_card,2022.2.4,Win32,59.87665409,62d2b86ed12d650ea7268dd7,64ce5acb97489d65b14ecc7a,64cf49dcad7a3c1f18514c1a,,,,,,,ctch,resources/DY.BMP,resources/DBN.BMP,Door4,-0.287760417,-0.059895833,1,0,0,0.6912,optionLeft,60,16480,7,32,0,32,0,1,,,,,,,,,,,,,,,,,,,,,,,,,,,,,,,,,,,,,,,
,,,,,,,,2023-08-06_08h21.28.735,HF_wild_card,2022.2.4,Win32,59.87665409,62d2b86ed12d650ea7268dd7,64ce5acb97489d65b14ecc7a,64cf49dcad7a3c1f18514c1a,,,,,,,ctch,resources/DBN.BMP,resources/DY.BMP,Door4,0.311197917,-0.036458333,1,0,0,0.7641,optionRight,80,16560,7,33,0,33,0,1,,,,,,,,,,,,,,,,,,,,,,,,,,,,,,,,,,,,,,,
,,,,,,,,2023-08-06_08h21.28.735,HF_wild_card,2022.2.4,Win32,59.87665409,62d2b86ed12d650ea7268dd7,64ce5acb97489d65b14ecc7a,64cf49dcad7a3c1f18514c1a,,,,,,,decisionTrl,resources/DBN.BMP,resources/DP.BMP,Door1,-0.321614583,-0.075520833,1,0,0,0.931,optionLeft,30,16590,7,34,0,34,0,1,,,,,,,,,,,,,,,,,,,,,,,,,,,,,,,,,,,,,,,
,,,,,,,,2023-08-06_08h21.28.735,HF_wild_card,2022.2.4,Win32,59.87665409,62d2b86ed12d650ea7268dd7,64ce5acb97489d65b14ecc7a,64cf49dcad7a3c1f18514c1a,,,,,,,decisionTrl,resources/DP.BMP,resources/DBN.BMP,Door1,0.29296875,-0.041666667,1,0,0,1.2586,optionRight,30,16620,7,35,0,35,0,1,,,,,,,,,,,,,,,,,,,,,,,,,,,,,,,,,,,,,,,
,,,,,,,,2023-08-06_08h21.28.735,HF_wild_card,2022.2.4,Win32,59.87665409,62d2b86ed12d650ea7268dd7,64ce5acb97489d65b14ecc7a,64cf49dcad7a3c1f18514c1a,,,,,,,,,,,,,,,,,,,,,,,,,,6,0,6,0,1,,,,,,,,,,,,,,,,,,,,,,,,,,,,,,,,,,
,,,,,,,,2023-08-06_08h21.28.735,HF_wild_card,2022.2.4,Win32,59.87665409,62d2b86ed12d650ea7268dd7,64ce5acb97489d65b14ecc7a,64cf49dcad7a3c1f18514c1a,,,,,,,,,,,,,,,,,,,,,,,,,,,,,,,4,,,,,,,,,,,,,,,,,,,,,,,,,,,,,,,,,
,,,,,,,,2023-08-06_08h21.28.735,HF_wild_card,2022.2.4,Win32,59.87665409,62d2b86ed12d650ea7268dd7,64ce5acb97489d65b14ecc7a,64cf49dcad7a3c1f18514c1a,,,,,,,,,,,,,,,,,,,,,,,,,,,,,,,,,,,,,,,,,,,,,,,,,,,,,,,,,,,,,,,,
,,,,,,,,2023-08-06_08h21.28.735,HF_wild_card,2022.2.4,Win32,59.87665409,62d2b86ed12d650ea7268dd7,64ce5acb97489d65b14ecc7a,64cf49dcad7a3c1f18514c1a,,,,,,,,,,,,,,,,,,,,,,,,,,,,,,,,70,Door3,resources/DB.BMP,0,0,0,0,1,,,,,,,,,,,,,,,,,,,,,,,,,
,,,,,,,,2023-08-06_08h21.28.735,HF_wild_card,2022.2.4,Win32,59.87665409,62d2b86ed12d650ea7268dd7,64ce5acb97489d65b14ecc7a,64cf49dcad7a3c1f18514c1a,,,,,,,,,,,,,,,,,,,,,,,,,,,,,,,,55,WC_nonExtreme,resources/DR.BMP,1,0,1,0,1,,,,,,,,,,,,,,,,,,,,,,,,,
,,,,,,,,2023-08-06_08h21.28.735,HF_wild_card,2022.2.4,Win32,59.87665409,62d2b86ed12d650ea7268dd7,64ce5acb97489d65b14ecc7a,64cf49dcad7a3c1f18514c1a,,,,,,,,,,,,,,,,,,,,,,,,,,,,,,,,50,WC_extreme,resources/DG.BMP,2,0,2,0,1,,,,,,,,,,,,,,,,,,,,,,,,,
,,,,,,,,2023-08-06_08h21.28.735,HF_wild_card,2022.2.4,Win32,59.87665409,62d2b86ed12d650ea7268dd7,64ce5acb97489d65b14ecc7a,64cf49dcad7a3c1f18514c1a,,,,,,,,,,,,,,,,,,,,,,,,,,,,,,,,20,Door2,resources/DP.BMP,3,0,3,0,1,,,,,,,,,,,,,,,,,,,,,,,,,
,,,,,,,,2023-08-06_08h21.28.735,HF_wild_card,2022.2.4,Win32,59.87665409,62d2b86ed12d650ea7268dd7,64ce5acb97489d65b14ecc7a,64cf49dcad7a3c1f18514c1a,,,,,,,,,,,,,,,,,,,,,,,,,,,,,,,,80,Door4,resources/DY.BMP,4,0,4,0,1,,,,,,,,,,,,,,,,,,,,,,,,,
,,,,,,,,2023-08-06_08h21.28.735,HF_wild_card,2022.2.4,Win32,59.87665409,62d2b86ed12d650ea7268dd7,64ce5acb97489d65b14ecc7a,64cf49dcad7a3c1f18514c1a,,,,,,,,,,,,,,,,,,,,,,,,,,,,,,,,30,Door1,resources/DBN.BMP,5,0,5,0,1,,,,,,,,,,,,,,,,,,,,,,,,,
,,,,,,,,2023-08-06_08h21.28.735,HF_wild_card,2022.2.4,Win32,59.87665409,62d2b86ed12d650ea7268dd7,64ce5acb97489d65b14ecc7a,64cf49dcad7a3c1f18514c1a,,,,,,,,,,,,,,,,,,,,,,,,,,,,,,,,,,,,,,,,,,,,,,,,,,,,,,,,,,,,,,,,
,,,,,,,,2023-08-06_08h21.28.735,HF_wild_card,2022.2.4,Win32,59.87665409,62d2b86ed12d650ea7268dd7,64ce5acb97489d65b14ecc7a,64cf49dcad7a3c1f18514c1a,,,,,,,,,,,,,,,,,,,,,,,,,,,,,,,,,,,,,,,,0,0,0,0,1,,,,,,,,,,,,,,,,,,,,
