Condition,Low fixed image (Door1),Low risky image (Door2),High fixed image (Door3),High risky image (Door4),NonExtreme Wild Card 1,NonExtreme Wild Card 2,,date,expName,psychopyVersion,OS,frameRate,PROLIFIC_PID,STUDY_ID,SESSION_ID,mouse_2.x,mouse_2.y,mouse_2.leftButton,mouse_2.midButton,mouse_2.rightButton,mouse_2.clicked_name,Trial Type,Left Option Image,Right Option Image,Chosen Door,mouse.x,mouse.y,mouse.leftButton,mouse.midButton,mouse.rightButton,mouse.time,mouse.clicked_name,Feedback,Cumulative Reward,Block,trial.thisRepN,trial.thisTrialN,trial.thisN,trial.thisIndex,trial.ran,blocks.thisRepN,blocks.thisTrialN,blocks.thisN,blocks.thisIndex,blocks.ran,Money conversion,First Outcome Reported,Shown Door (First Outcome),Displayed Image (First Outcome),outcomes.thisRepN,outcomes.thisTrialN,outcomes.thisN,outcomes.thisIndex,outcomes.ran,judgments.thisRepN,judgments.thisTrialN,judgments.thisN,judgments.thisIndex,judgments.ran,freqMouse.x,freqMouse.y,freqMouse.leftButton,freqMouse.midButton,freqMouse.rightButton,freqMouse.clicked_name,FQJ for first outcome,FQJ for second outcome,Shown Door,Displayed Image,trials.thisRepN,trials.thisTrialN,trials.thisN,trials.thisIndex,trials.ran,judgBlock.thisRepN,judgBlock.thisTrialN,judgBlock.thisN,judgBlock.thisIndex,judgBlock.ran
2,resources/DBN.BMP,resources/DY.BMP,resources/DP.BMP,resources/DR.BMP,resources/DG.BMP,resources/DB.BMP,,2023-08-16_08h55.21.854,HF_wild_card,2022.2.4,Win32,59.72645285,646b603e50eda67e0d6780d9,64d2fd46c836a06233681665,64dc7fec0febb1bc1cf75cdb,,,,,,,,,,,,,,,,,,,,,,,,,,,,,,,,,,,,,,,,,,,,,,,,,,,,,,,,,,,,,,,,
,,,,,,,,2023-08-16_08h55.21.854,HF_wild_card,2022.2.4,Win32,59.72645285,646b603e50eda67e0d6780d9,64d2fd46c836a06233681665,64dc7fec0febb1bc1cf75cdb,0,-0.419444473,1,0,0,agree,,,,,,,,,,,,,,,,,,,,,,,,,,,,,,,,,,,,,,,,,,,,,,,,,,,,,,,,,,
,,,,,,,,2023-08-16_08h55.21.854,HF_wild_card,2022.2.4,Win32,59.72645285,646b603e50eda67e0d6780d9,64d2fd46c836a06233681665,64dc7fec0febb1bc1cf75cdb,,,,,,,,,,,,,,,,,,,,,,,,,,,,,,,,,,,,,,,,,,,,,,,,,,,,,,,,,,,,,,,,
,,,,,,,,2023-08-16_08h55.21.854,HF_wild_card,2022.2.4,Win32,59.72645285,646b603e50eda67e0d6780d9,64d2fd46c836a06233681665,64dc7fec0febb1bc1cf75cdb,,,,,,,sngl,resources/Empty.png,resources/DR.BMP,Door4,0.327777863,-0.134259259,1,0,0,1.4525,optionRight,60,60,1,0,0,0,0,1,,,,,,,,,,,,,,,,,,,,,,,,,,,,,,,,,,,,,,,
,,,,,,,,2023-08-16_08h55.21.854,HF_wild_card,2022.2.4,Win32,59.72645285,646b603e50eda67e0d6780d9,64d2fd46c836a06233681665,64dc7fec0febb1bc1cf75cdb,,,,,,,ctch,resources/DP.BMP,resources/DY.BMP,Door2,0.321296268,-0.063888903,1,0,0,1.9286,optionRight,20,80,1,1,0,1,0,1,,,,,,,,,,,,,,,,,,,,,,,,,,,,,,,,,,,,,,,
,,,,,,,,2023-08-16_08h55.21.854,HF_wild_card,2022.2.4,Win32,59.72645285,646b603e50eda67e0d6780d9,64d2fd46c836a06233681665,64dc7fec0febb1bc1cf75cdb,,,,,,,sngl,resources/DB.BMP,resources/Empty.png,WildCard_NonEx,-0.274999972,-0.052777785,1,0,0,0.8618,optionLeft,45,125,1,2,0,2,0,1,,,,,,,,,,,,,,,,,,,,,,,,,,,,,,,,,,,,,,,
,,,,,,,,2023-08-16_08h55.21.854,HF_wild_card,2022.2.4,Win32,59.72645285,646b603e50eda67e0d6780d9,64d2fd46c836a06233681665,64dc7fec0febb1bc1cf75cdb,,,,,,,ctch,resources/DBN.BMP,resources/DR.BMP,Door4,0.30277775,-0.102777764,1,0,0,1.8292,optionRight,80,205,1,3,0,3,0,1,,,,,,,,,,,,,,,,,,,,,,,,,,,,,,,,,,,,,,,
,,,,,,,,2023-08-16_08h55.21.854,HF_wild_card,2022.2.4,Win32,59.72645285,646b603e50eda67e0d6780d9,64d2fd46c836a06233681665,64dc7fec0febb1bc1cf75cdb,,,,,,,decisionTrl,resources/DP.BMP,resources/DR.BMP,Door4,0.191666709,-0.069444444,1,0,0,0.98,optionRight,60,265,1,4,0,4,0,1,,,,,,,,,,,,,,,,,,,,,,,,,,,,,,,,,,,,,,,
,,,,,,,,2023-08-16_08h55.21.854,HF_wild_card,2022.2.4,Win32,59.72645285,646b603e50eda67e0d6780d9,64d2fd46c836a06233681665,64dc7fec0febb1bc1cf75cdb,,,,,,,decisionTrl,resources/DP.BMP,resources/DR.BMP,Door3,-0.229629587,-0.062037044,1,0,0,1.4135,optionLeft,70,335,1,5,0,5,0,1,,,,,,,,,,,,,,,,,,,,,,,,,,,,,,,,,,,,,,,
,,,,,,,,2023-08-16_08h55.21.854,HF_wild_card,2022.2.4,Win32,59.72645285,646b603e50eda67e0d6780d9,64d2fd46c836a06233681665,64dc7fec0febb1bc1cf75cdb,,,,,,,decisionTrl,resources/DB.BMP,resources/DY.BMP,WildCard_NonEx,-0.235185199,-0.08425928,1,0,0,1.7623,optionLeft,45,380,1,6,0,6,0,1,,,,,,,,,,,,,,,,,,,,,,,,,,,,,,,,,,,,,,,
,,,,,,,,2023-08-16_08h55.21.854,HF_wild_card,2022.2.4,Win32,59.72645285,646b603e50eda67e0d6780d9,64d2fd46c836a06233681665,64dc7fec0febb1bc1cf75cdb,,,,,,,ctch,resources/DY.BMP,resources/DP.BMP,Door3,0.256481524,-0.071296303,1,0,0,1.7627,optionRight,70,450,1,7,0,7,0,1,,,,,,,,,,,,,,,,,,,,,,,,,,,,,,,,,,,,,,,
,,,,,,,,2023-08-16_08h55.21.854,HF_wild_card,2022.2.4,Win32,59.72645285,646b603e50eda67e0d6780d9,64d2fd46c836a06233681665,64dc7fec0febb1bc1cf75cdb,,,,,,,decisionTrl,resources/DBN.BMP,resources/DY.BMP,Door2,0.260185171,-0.075925933,1,0,0,2.1619,optionRight,40,490,1,8,0,8,0,1,,,,,,,,,,,,,,,,,,,,,,,,,,,,,,,,,,,,,,,
,,,,,,,,2023-08-16_08h55.21.854,HF_wild_card,2022.2.4,Win32,59.72645285,646b603e50eda67e0d6780d9,64d2fd46c836a06233681665,64dc7fec0febb1bc1cf75cdb,,,,,,,decisionTrl,resources/DY.BMP,resources/DBN.BMP,Door1,0.329629686,-0.073148162,1,0,0,1.2124,optionRight,30,520,1,9,0,9,0,1,,,,,,,,,,,,,,,,,,,,,,,,,,,,,,,,,,,,,,,
,,,,,,,,2023-08-16_08h55.21.854,HF_wild_card,2022.2.4,Win32,59.72645285,646b603e50eda67e0d6780d9,64d2fd46c836a06233681665,64dc7fec0febb1bc1cf75cdb,,,,,,,decisionTrl,resources/DR.BMP,resources/DP.BMP,Door4,-0.287037037,-0.091666681,1,0,0,1.43,optionLeft,80,600,1,10,0,10,0,1,,,,,,,,,,,,,,,,,,,,,,,,,,,,,,,,,,,,,,,
,,,,,,,,2023-08-16_08h55.21.854,HF_wild_card,2022.2.4,Win32,59.72645285,646b603e50eda67e0d6780d9,64d2fd46c836a06233681665,64dc7fec0febb1bc1cf75cdb,,,,,,,ctch,resources/DBN.BMP,resources/DR.BMP,Door4,0.20648151,-0.043518526,1,0,0,1.4278,optionRight,80,680,1,11,0,11,0,1,,,,,,,,,,,,,,,,,,,,,,,,,,,,,,,,,,,,,,,
,,,,,,,,2023-08-16_08h55.21.854,HF_wild_card,2022.2.4,Win32,59.72645285,646b603e50eda67e0d6780d9,64d2fd46c836a06233681665,64dc7fec0febb1bc1cf75cdb,,,,,,,decisionTrl,resources/DBN.BMP,resources/DY.BMP,Door2,0.272222236,-0.048148155,1,0,0,2.4444,optionRight,40,720,1,12,0,12,0,1,,,,,,,,,,,,,,,,,,,,,,,,,,,,,,,,,,,,,,,
,,,,,,,,2023-08-16_08h55.21.854,HF_wild_card,2022.2.4,Win32,59.72645285,646b603e50eda67e0d6780d9,64d2fd46c836a06233681665,64dc7fec0febb1bc1cf75cdb,,,,,,,ctch,resources/DY.BMP,resources/DP.BMP,Door3,0.285185213,-0.058333326,1,0,0,1.8086,optionRight,70,790,1,13,0,13,0,1,,,,,,,,,,,,,,,,,,,,,,,,,,,,,,,,,,,,,,,
,,,,,,,,2023-08-16_08h55.21.854,HF_wild_card,2022.2.4,Win32,59.72645285,646b603e50eda67e0d6780d9,64d2fd46c836a06233681665,64dc7fec0febb1bc1cf75cdb,,,,,,,decisionTrl,resources/DP.BMP,resources/DR.BMP,Door4,0.433333362,-0.062962956,1,0,0,1.3279,optionRight,80,870,1,14,0,14,0,1,,,,,,,,,,,,,,,,,,,,,,,,,,,,,,,,,,,,,,,
,,,,,,,,2023-08-16_08h55.21.854,HF_wild_card,2022.2.4,Win32,59.72645285,646b603e50eda67e0d6780d9,64d2fd46c836a06233681665,64dc7fec0febb1bc1cf75cdb,,,,,,,sngl,resources/Empty.png,resources/DP.BMP,Door3,0.257407436,-0.076851845,1,0,0,0.963,optionRight,70,940,1,15,0,15,0,1,,,,,,,,,,,,,,,,,,,,,,,,,,,,,,,,,,,,,,,
,,,,,,,,2023-08-16_08h55.21.854,HF_wild_card,2022.2.4,Win32,59.72645285,646b603e50eda67e0d6780d9,64d2fd46c836a06233681665,64dc7fec0febb1bc1cf75cdb,,,,,,,ctch,resources/DR.BMP,resources/DBN.BMP,Door4,-0.292592578,-0.052777785,1,0,0,1.6631,optionLeft,80,1020,1,16,0,16,0,1,,,,,,,,,,,,,,,,,,,,,,,,,,,,,,,,,,,,,,,
,,,,,,,,2023-08-16_08h55.21.854,HF_wild_card,2022.2.4,Win32,59.72645285,646b603e50eda67e0d6780d9,64d2fd46c836a06233681665,64dc7fec0febb1bc1cf75cdb,,,,,,,decisionTrl,resources/DP.BMP,resources/DB.BMP,WildCard_NonEx,0.296296296,-0.063888903,1,0,0,1.7103,optionRight,55,1075,1,17,0,17,0,1,,,,,,,,,,,,,,,,,,,,,,,,,,,,,,,,,,,,,,,
,,,,,,,,2023-08-16_08h55.21.854,HF_wild_card,2022.2.4,Win32,59.72645285,646b603e50eda67e0d6780d9,64d2fd46c836a06233681665,64dc7fec0febb1bc1cf75cdb,,,,,,,decisionTrl,resources/DP.BMP,resources/DR.BMP,Door4,0.290740755,-0.029629637,1,0,0,1.8451,optionRight,60,1135,1,18,0,18,0,1,,,,,,,,,,,,,,,,,,,,,,,,,,,,,,,,,,,,,,,
,,,,,,,,2023-08-16_08h55.21.854,HF_wild_card,2022.2.4,Win32,59.72645285,646b603e50eda67e0d6780d9,64d2fd46c836a06233681665,64dc7fec0febb1bc1cf75cdb,,,,,,,sngl,resources/Empty.png,resources/DBN.BMP,Door1,0.256481524,-0.054629644,1,0,0,0.8273,optionRight,30,1165,1,19,0,19,0,1,,,,,,,,,,,,,,,,,,,,,,,,,,,,,,,,,,,,,,,
,,,,,,,,2023-08-16_08h55.21.854,HF_wild_card,2022.2.4,Win32,59.72645285,646b603e50eda67e0d6780d9,64d2fd46c836a06233681665,64dc7fec0febb1bc1cf75cdb,,,,,,,sngl,resources/Empty.png,resources/DB.BMP,WildCard_NonEx,0.189814815,-0.046296296,1,0,0,1.2953,optionRight,55,1220,1,20,0,20,0,1,,,,,,,,,,,,,,,,,,,,,,,,,,,,,,,,,,,,,,,
,,,,,,,,2023-08-16_08h55.21.854,HF_wild_card,2022.2.4,Win32,59.72645285,646b603e50eda67e0d6780d9,64d2fd46c836a06233681665,64dc7fec0febb1bc1cf75cdb,,,,,,,decisionTrl,resources/DR.BMP,resources/DP.BMP,Door4,-0.280555513,-0.061111132,1,0,0,1.4438,optionLeft,80,1300,1,21,0,21,0,1,,,,,,,,,,,,,,,,,,,,,,,,,,,,,,,,,,,,,,,
,,,,,,,,2023-08-16_08h55.21.854,HF_wild_card,2022.2.4,Win32,59.72645285,646b603e50eda67e0d6780d9,64d2fd46c836a06233681665,64dc7fec0febb1bc1cf75cdb,,,,,,,ctch,resources/DR.BMP,resources/DBN.BMP,Door4,-0.323148127,-0.077777792,1,0,0,1.263,optionLeft,60,1360,1,22,0,22,0,1,,,,,,,,,,,,,,,,,,,,,,,,,,,,,,,,,,,,,,,
,,,,,,,,2023-08-16_08h55.21.854,HF_wild_card,2022.2.4,Win32,59.72645285,646b603e50eda67e0d6780d9,64d2fd46c836a06233681665,64dc7fec0febb1bc1cf75cdb,,,,,,,decisionTrl,resources/DR.BMP,resources/DP.BMP,Door4,-0.25,-0.054629644,1,0,0,1.0103,optionLeft,60,1420,1,23,0,23,0,1,,,,,,,,,,,,,,,,,,,,,,,,,,,,,,,,,,,,,,,
,,,,,,,,2023-08-16_08h55.21.854,HF_wild_card,2022.2.4,Win32,59.72645285,646b603e50eda67e0d6780d9,64d2fd46c836a06233681665,64dc7fec0febb1bc1cf75cdb,,,,,,,decisionTrl,resources/DY.BMP,resources/DBN.BMP,Door1,0.187962991,-0.025000007,1,0,0,2.0441,optionRight,30,1450,1,24,0,24,0,1,,,,,,,,,,,,,,,,,,,,,,,,,,,,,,,,,,,,,,,
,,,,,,,,2023-08-16_08h55.21.854,HF_wild_card,2022.2.4,Win32,59.72645285,646b603e50eda67e0d6780d9,64d2fd46c836a06233681665,64dc7fec0febb1bc1cf75cdb,,,,,,,decisionTrl,resources/DY.BMP,resources/DBN.BMP,Door2,-0.360185164,0.008333312,1,0,0,0.8265,optionLeft,40,1490,1,25,0,25,0,1,,,,,,,,,,,,,,,,,,,,,,,,,,,,,,,,,,,,,,,
,,,,,,,,2023-08-16_08h55.21.854,HF_wild_card,2022.2.4,Win32,59.72645285,646b603e50eda67e0d6780d9,64d2fd46c836a06233681665,64dc7fec0febb1bc1cf75cdb,,,,,,,sngl,resources/DP.BMP,resources/Empty.png,Door3,-0.23055557,-0.040740755,1,0,0,0.8946,optionLeft,70,1560,1,26,0,26,0,1,,,,,,,,,,,,,,,,,,,,,,,,,,,,,,,,,,,,,,,
,,,,,,,,2023-08-16_08h55.21.854,HF_wild_card,2022.2.4,Win32,59.72645285,646b603e50eda67e0d6780d9,64d2fd46c836a06233681665,64dc7fec0febb1bc1cf75cdb,,,,,,,sngl,resources/Empty.png,resources/DB.BMP,WildCard_NonEx,0.301851908,-0.062962956,1,0,0,0.8435,optionRight,45,1605,1,27,0,27,0,1,,,,,,,,,,,,,,,,,,,,,,,,,,,,,,,,,,,,,,,
,,,,,,,,2023-08-16_08h55.21.854,HF_wild_card,2022.2.4,Win32,59.72645285,646b603e50eda67e0d6780d9,64d2fd46c836a06233681665,64dc7fec0febb1bc1cf75cdb,,,,,,,sngl,resources/DY.BMP,resources/Empty.png,Door2,-0.318518497,-0.136111153,1,0,0,2.409,optionLeft,40,1645,1,28,0,28,0,1,,,,,,,,,,,,,,,,,,,,,,,,,,,,,,,,,,,,,,,
,,,,,,,,2023-08-16_08h55.21.854,HF_wild_card,2022.2.4,Win32,59.72645285,646b603e50eda67e0d6780d9,64d2fd46c836a06233681665,64dc7fec0febb1bc1cf75cdb,,,,,,,decisionTrl,resources/DB.BMP,resources/DP.BMP,Door3,0.253703718,-0.071296303,1,0,0,2.495,optionRight,70,1715,1,29,0,29,0,1,,,,,,,,,,,,,,,,,,,,,,,,,,,,,,,,,,,,,,,
,,,,,,,,2023-08-16_08h55.21.854,HF_wild_card,2022.2.4,Win32,59.72645285,646b603e50eda67e0d6780d9,64d2fd46c836a06233681665,64dc7fec0febb1bc1cf75cdb,,,,,,,sngl,resources/DBN.BMP,resources/Empty.png,Door1,-0.338888875,-0.045370384,1,0,0,1.0952,optionLeft,30,1745,1,30,0,30,0,1,,,,,,,,,,,,,,,,,,,,,,,,,,,,,,,,,,,,,,,
,,,,,,,,2023-08-16_08h55.21.854,HF_wild_card,2022.2.4,Win32,59.72645285,646b603e50eda67e0d6780d9,64d2fd46c836a06233681665,64dc7fec0febb1bc1cf75cdb,,,,,,,decisionTrl,resources/DBN.BMP,resources/DY.BMP,Door2,0.353703675,-0.024074095,1,0,0,1.1952,optionRight,20,1765,1,31,0,31,0,1,,,,,,,,,,,,,,,,,,,,,,,,,,,,,,,,,,,,,,,
,,,,,,,,2023-08-16_08h55.21.854,HF_wild_card,2022.2.4,Win32,59.72645285,646b603e50eda67e0d6780d9,64d2fd46c836a06233681665,64dc7fec0febb1bc1cf75cdb,,,,,,,sngl,resources/Empty.png,resources/DY.BMP,Door2,0.36018527,0.015740748,1,0,0,0.9468,optionRight,20,1785,1,32,0,32,0,1,,,,,,,,,,,,,,,,,,,,,,,,,,,,,,,,,,,,,,,
,,,,,,,,2023-08-16_08h55.21.854,HF_wild_card,2022.2.4,Win32,59.72645285,646b603e50eda67e0d6780d9,64d2fd46c836a06233681665,64dc7fec0febb1bc1cf75cdb,,,,,,,decisionTrl,resources/DB.BMP,resources/DR.BMP,Door4,0.312037009,0.002777771,1,0,0,1.1701,optionRight,60,1845,1,33,0,33,0,1,,,,,,,,,,,,,,,,,,,,,,,,,,,,,,,,,,,,,,,
,,,,,,,,2023-08-16_08h55.21.854,HF_wild_card,2022.2.4,Win32,59.72645285,646b603e50eda67e0d6780d9,64d2fd46c836a06233681665,64dc7fec0febb1bc1cf75cdb,,,,,,,decisionTrl,resources/DY.BMP,resources/DB.BMP,WildCard_NonEx,0.36018527,-0.018518519,1,0,0,1.862,optionRight,45,1890,1,34,0,34,0,1,,,,,,,,,,,,,,,,,,,,,,,,,,,,,,,,,,,,,,,
,,,,,,,,2023-08-16_08h55.21.854,HF_wild_card,2022.2.4,Win32,59.72645285,646b603e50eda67e0d6780d9,64d2fd46c836a06233681665,64dc7fec0febb1bc1cf75cdb,,,,,,,sngl,resources/DB.BMP,resources/Empty.png,WildCard_NonEx,-0.279629601,-0.034259266,1,0,0,0.8113,optionLeft,55,1945,1,35,0,35,0,1,,,,,,,,,,,,,,,,,,,,,,,,,,,,,,,,,,,,,,,
,,,,,,,,2023-08-16_08h55.21.854,HF_wild_card,2022.2.4,Win32,59.72645285,646b603e50eda67e0d6780d9,64d2fd46c836a06233681665,64dc7fec0febb1bc1cf75cdb,,,,,,,ctch,resources/DP.BMP,resources/DY.BMP,Door3,-0.369444423,-0.074074074,1,0,0,2.5878,optionLeft,70,2015,1,36,0,36,0,1,,,,,,,,,,,,,,,,,,,,,,,,,,,,,,,,,,,,,,,
,,,,,,,,2023-08-16_08h55.21.854,HF_wild_card,2022.2.4,Win32,59.72645285,646b603e50eda67e0d6780d9,64d2fd46c836a06233681665,64dc7fec0febb1bc1cf75cdb,,,,,,,decisionTrl,resources/DR.BMP,resources/DB.BMP,Door4,-0.255555541,-0.076851845,1,0,0,1.1459,optionLeft,80,2095,1,37,0,37,0,1,,,,,,,,,,,,,,,,,,,,,,,,,,,,,,,,,,,,,,,
,,,,,,,,2023-08-16_08h55.21.854,HF_wild_card,2022.2.4,Win32,59.72645285,646b603e50eda67e0d6780d9,64d2fd46c836a06233681665,64dc7fec0febb1bc1cf75cdb,,,,,,,sngl,resources/DR.BMP,resources/Empty.png,Door4,-0.299999979,-0.040740755,1,0,0,0.7615,optionLeft,80,2175,1,38,0,38,0,1,,,,,,,,,,,,,,,,,,,,,,,,,,,,,,,,,,,,,,,
,,,,,,,,2023-08-16_08h55.21.854,HF_wild_card,2022.2.4,Win32,59.72645285,646b603e50eda67e0d6780d9,64d2fd46c836a06233681665,64dc7fec0febb1bc1cf75cdb,,,,,,,decisionTrl,resources/DBN.BMP,resources/DB.BMP,Door1,-0.478703711,-0.033333355,1,0,0,2.4811,optionLeft,30,2205,1,39,0,39,0,1,,,,,,,,,,,,,,,,,,,,,,,,,,,,,,,,,,,,,,,
,,,,,,,,2023-08-16_08h55.21.854,HF_wild_card,2022.2.4,Win32,59.72645285,646b603e50eda67e0d6780d9,64d2fd46c836a06233681665,64dc7fec0febb1bc1cf75cdb,,,,,,,decisionTrl,resources/DY.BMP,resources/DBN.BMP,Door2,-0.336111104,-0.102777764,1,0,0,1.4101,optionLeft,20,2225,1,40,0,40,0,1,,,,,,,,,,,,,,,,,,,,,,,,,,,,,,,,,,,,,,,
,,,,,,,,2023-08-16_08h55.21.854,HF_wild_card,2022.2.4,Win32,59.72645285,646b603e50eda67e0d6780d9,64d2fd46c836a06233681665,64dc7fec0febb1bc1cf75cdb,,,,,,,decisionTrl,resources/DR.BMP,resources/DP.BMP,Door4,-0.259259259,0.018518519,1,0,0,0.9464,optionLeft,60,2285,1,41,0,41,0,1,,,,,,,,,,,,,,,,,,,,,,,,,,,,,,,,,,,,,,,
,,,,,,,,2023-08-16_08h55.21.854,HF_wild_card,2022.2.4,Win32,59.72645285,646b603e50eda67e0d6780d9,64d2fd46c836a06233681665,64dc7fec0febb1bc1cf75cdb,,,,,,,decisionTrl,resources/DBN.BMP,resources/DY.BMP,Door1,-0.326851845,-0.067592586,1,0,0,2.1454,optionLeft,30,2315,1,42,0,42,0,1,,,,,,,,,,,,,,,,,,,,,,,,,,,,,,,,,,,,,,,
,,,,,,,,2023-08-16_08h55.21.854,HF_wild_card,2022.2.4,Win32,59.72645285,646b603e50eda67e0d6780d9,64d2fd46c836a06233681665,64dc7fec0febb1bc1cf75cdb,,,,,,,decisionTrl,resources/DB.BMP,resources/DBN.BMP,Door1,0.162037037,-0.08425928,1,0,0,3.2383,optionRight,30,2345,1,43,0,43,0,1,,,,,,,,,,,,,,,,,,,,,,,,,,,,,,,,,,,,,,,
,,,,,,,,2023-08-16_08h55.21.854,HF_wild_card,2022.2.4,Win32,59.72645285,646b603e50eda67e0d6780d9,64d2fd46c836a06233681665,64dc7fec0febb1bc1cf75cdb,,,,,,,,,,,,,,,,,,,,,,,,,,0,0,0,0,1,,,,,,,,,,,,,,,,,,,,,,,,,,,,,,,,,,
,,,,,,,,2023-08-16_08h55.21.854,HF_wild_card,2022.2.4,Win32,59.72645285,646b603e50eda67e0d6780d9,64d2fd46c836a06233681665,64dc7fec0febb1bc1cf75cdb,,,,,,,decisionTrl,resources/DY.BMP,resources/DBN.BMP,Door2,-0.277777778,-0.087962963,1,0,0,4.389,optionLeft,20,2365,2,0,0,0,0,1,,,,,,,,,,,,,,,,,,,,,,,,,,,,,,,,,,,,,,,
,,,,,,,,2023-08-16_08h55.21.854,HF_wild_card,2022.2.4,Win32,59.72645285,646b603e50eda67e0d6780d9,64d2fd46c836a06233681665,64dc7fec0febb1bc1cf75cdb,,,,,,,ctch,resources/DBN.BMP,resources/DR.BMP,Door1,-0.262036995,-0.020370377,1,0,0,0.7304,optionLeft,30,2395,2,1,0,1,0,1,,,,,,,,,,,,,,,,,,,,,,,,,,,,,,,,,,,,,,,
,,,,,,,,2023-08-16_08h55.21.854,HF_wild_card,2022.2.4,Win32,59.72645285,646b603e50eda67e0d6780d9,64d2fd46c836a06233681665,64dc7fec0febb1bc1cf75cdb,,,,,,,sngl,resources/DY.BMP,resources/Empty.png,Door2,-0.212962963,-0.015740748,1,0,0,0.7476,optionLeft,20,2415,2,2,0,2,0,1,,,,,,,,,,,,,,,,,,,,,,,,,,,,,,,,,,,,,,,
,,,,,,,,2023-08-16_08h55.21.854,HF_wild_card,2022.2.4,Win32,59.72645285,646b603e50eda67e0d6780d9,64d2fd46c836a06233681665,64dc7fec0febb1bc1cf75cdb,,,,,,,decisionTrl,resources/DY.BMP,resources/DBN.BMP,Door2,-0.227777764,0.011111118,1,0,0,6.3645,optionLeft,40,2455,2,3,0,3,0,1,,,,,,,,,,,,,,,,,,,,,,,,,,,,,,,,,,,,,,,
,,,,,,,,2023-08-16_08h55.21.854,HF_wild_card,2022.2.4,Win32,59.72645285,646b603e50eda67e0d6780d9,64d2fd46c836a06233681665,64dc7fec0febb1bc1cf75cdb,,,,,,,decisionTrl,resources/DB.BMP,resources/DR.BMP,Door4,0.327777863,-0.008333347,1,0,0,1.1274,optionRight,60,2515,2,4,0,4,0,1,,,,,,,,,,,,,,,,,,,,,,,,,,,,,,,,,,,,,,,
,,,,,,,,2023-08-16_08h55.21.854,HF_wild_card,2022.2.4,Win32,59.72645285,646b603e50eda67e0d6780d9,64d2fd46c836a06233681665,64dc7fec0febb1bc1cf75cdb,,,,,,,decisionTrl,resources/DP.BMP,resources/DR.BMP,Door4,0.337962963,-0.006481489,1,0,0,0.8757,optionRight,80,2595,2,5,0,5,0,1,,,,,,,,,,,,,,,,,,,,,,,,,,,,,,,,,,,,,,,
,,,,,,,,2023-08-16_08h55.21.854,HF_wild_card,2022.2.4,Win32,59.72645285,646b603e50eda67e0d6780d9,64d2fd46c836a06233681665,64dc7fec0febb1bc1cf75cdb,,,,,,,sngl,resources/DP.BMP,resources/Empty.png,Door3,-0.344444452,-0.070370392,1,0,0,0.7572,optionLeft,70,2665,2,6,0,6,0,1,,,,,,,,,,,,,,,,,,,,,,,,,,,,,,,,,,,,,,,
,,,,,,,,2023-08-16_08h55.21.854,HF_wild_card,2022.2.4,Win32,59.72645285,646b603e50eda67e0d6780d9,64d2fd46c836a06233681665,64dc7fec0febb1bc1cf75cdb,,,,,,,decisionTrl,resources/DP.BMP,resources/DR.BMP,Door4,0.33148151,-0.023148148,1,0,0,0.6947,optionRight,60,2725,2,7,0,7,0,1,,,,,,,,,,,,,,,,,,,,,,,,,,,,,,,,,,,,,,,
,,,,,,,,2023-08-16_08h55.21.854,HF_wild_card,2022.2.4,Win32,59.72645285,646b603e50eda67e0d6780d9,64d2fd46c836a06233681665,64dc7fec0febb1bc1cf75cdb,,,,,,,decisionTrl,resources/DBN.BMP,resources/DB.BMP,WildCard_NonEx,0.431481538,0.034259266,1,0,0,6.2605,optionRight,45,2770,2,8,0,8,0,1,,,,,,,,,,,,,,,,,,,,,,,,,,,,,,,,,,,,,,,
,,,,,,,,2023-08-16_08h55.21.854,HF_wild_card,2022.2.4,Win32,59.72645285,646b603e50eda67e0d6780d9,64d2fd46c836a06233681665,64dc7fec0febb1bc1cf75cdb,,,,,,,decisionTrl,resources/DP.BMP,resources/DR.BMP,Door4,0.271296325,0.014814801,1,0,0,0.962,optionRight,60,2830,2,9,0,9,0,1,,,,,,,,,,,,,,,,,,,,,,,,,,,,,,,,,,,,,,,
,,,,,,,,2023-08-16_08h55.21.854,HF_wild_card,2022.2.4,Win32,59.72645285,646b603e50eda67e0d6780d9,64d2fd46c836a06233681665,64dc7fec0febb1bc1cf75cdb,,,,,,,sngl,resources/Empty.png,resources/DBN.BMP,Door1,0.279629672,0.02407406,1,0,0,0.8285,optionRight,30,2860,2,10,0,10,0,1,,,,,,,,,,,,,,,,,,,,,,,,,,,,,,,,,,,,,,,
,,,,,,,,2023-08-16_08h55.21.854,HF_wild_card,2022.2.4,Win32,59.72645285,646b603e50eda67e0d6780d9,64d2fd46c836a06233681665,64dc7fec0febb1bc1cf75cdb,,,,,,,decisionTrl,resources/DR.BMP,resources/DP.BMP,Door4,-0.210185157,-0.035185178,1,0,0,1.1972,optionLeft,60,2920,2,11,0,11,0,1,,,,,,,,,,,,,,,,,,,,,,,,,,,,,,,,,,,,,,,
,,,,,,,,2023-08-16_08h55.21.854,HF_wild_card,2022.2.4,Win32,59.72645285,646b603e50eda67e0d6780d9,64d2fd46c836a06233681665,64dc7fec0febb1bc1cf75cdb,,,,,,,decisionTrl,resources/DBN.BMP,resources/DY.BMP,Door2,0.345370399,-0.038888896,1,0,0,1.2616,optionRight,40,2960,2,12,0,12,0,1,,,,,,,,,,,,,,,,,,,,,,,,,,,,,,,,,,,,,,,
,,,,,,,,2023-08-16_08h55.21.854,HF_wild_card,2022.2.4,Win32,59.72645285,646b603e50eda67e0d6780d9,64d2fd46c836a06233681665,64dc7fec0febb1bc1cf75cdb,,,,,,,decisionTrl,resources/DR.BMP,resources/DP.BMP,Door3,0.325925898,-0.011111118,1,0,0,1.1128,optionRight,70,3030,2,13,0,13,0,1,,,,,,,,,,,,,,,,,,,,,,,,,,,,,,,,,,,,,,,
,,,,,,,,2023-08-16_08h55.21.854,HF_wild_card,2022.2.4,Win32,59.72645285,646b603e50eda67e0d6780d9,64d2fd46c836a06233681665,64dc7fec0febb1bc1cf75cdb,,,,,,,sngl,resources/DB.BMP,resources/Empty.png,WildCard_NonEx,-0.243518476,-0.036111125,1,0,0,3.1136,optionLeft,45,3075,2,14,0,14,0,1,,,,,,,,,,,,,,,,,,,,,,,,,,,,,,,,,,,,,,,
,,,,,,,,2023-08-16_08h55.21.854,HF_wild_card,2022.2.4,Win32,59.72645285,646b603e50eda67e0d6780d9,64d2fd46c836a06233681665,64dc7fec0febb1bc1cf75cdb,,,,,,,decisionTrl,resources/DY.BMP,resources/DBN.BMP,Door1,0.275925954,0.035185178,1,0,0,4.7107,optionRight,30,3105,2,15,0,15,0,1,,,,,,,,,,,,,,,,,,,,,,,,,,,,,,,,,,,,,,,
,,,,,,,,2023-08-16_08h55.21.854,HF_wild_card,2022.2.4,Win32,59.72645285,646b603e50eda67e0d6780d9,64d2fd46c836a06233681665,64dc7fec0febb1bc1cf75cdb,,,,,,,decisionTrl,resources/DY.BMP,resources/DB.BMP,WildCard_NonEx,0.352777834,-0.017592607,1,0,0,1.5772,optionRight,45,3150,2,16,0,16,0,1,,,,,,,,,,,,,,,,,,,,,,,,,,,,,,,,,,,,,,,
,,,,,,,,2023-08-16_08h55.21.854,HF_wild_card,2022.2.4,Win32,59.72645285,646b603e50eda67e0d6780d9,64d2fd46c836a06233681665,64dc7fec0febb1bc1cf75cdb,,,,,,,ctch,resources/DBN.BMP,resources/DR.BMP,Door4,0.284259302,-0.052777785,1,0,0,2.2103,optionRight,60,3210,2,17,0,17,0,1,,,,,,,,,,,,,,,,,,,,,,,,,,,,,,,,,,,,,,,
,,,,,,,,2023-08-16_08h55.21.854,HF_wild_card,2022.2.4,Win32,59.72645285,646b603e50eda67e0d6780d9,64d2fd46c836a06233681665,64dc7fec0febb1bc1cf75cdb,,,,,,,decisionTrl,resources/DB.BMP,resources/DP.BMP,Door3,0.277777778,-0.082407422,1,0,0,3.2264,optionRight,70,3280,2,18,0,18,0,1,,,,,,,,,,,,,,,,,,,,,,,,,,,,,,,,,,,,,,,
,,,,,,,,2023-08-16_08h55.21.854,HF_wild_card,2022.2.4,Win32,59.72645285,646b603e50eda67e0d6780d9,64d2fd46c836a06233681665,64dc7fec0febb1bc1cf75cdb,,,,,,,decisionTrl,resources/DY.BMP,resources/DBN.BMP,Door1,0.300925926,-0.010185206,1,0,0,1.9772,optionRight,30,3310,2,19,0,19,0,1,,,,,,,,,,,,,,,,,,,,,,,,,,,,,,,,,,,,,,,
,,,,,,,,2023-08-16_08h55.21.854,HF_wild_card,2022.2.4,Win32,59.72645285,646b603e50eda67e0d6780d9,64d2fd46c836a06233681665,64dc7fec0febb1bc1cf75cdb,,,,,,,sngl,resources/DB.BMP,resources/Empty.png,WildCard_NonEx,-0.346296275,-0.089814822,1,0,0,0.9941,optionLeft,55,3365,2,20,0,20,0,1,,,,,,,,,,,,,,,,,,,,,,,,,,,,,,,,,,,,,,,
,,,,,,,,2023-08-16_08h55.21.854,HF_wild_card,2022.2.4,Win32,59.72645285,646b603e50eda67e0d6780d9,64d2fd46c836a06233681665,64dc7fec0febb1bc1cf75cdb,,,,,,,sngl,resources/Empty.png,resources/DY.BMP,Door2,0.321296268,-0.014814836,1,0,0,1.0603,optionRight,40,3405,2,21,0,21,0,1,,,,,,,,,,,,,,,,,,,,,,,,,,,,,,,,,,,,,,,
,,,,,,,,2023-08-16_08h55.21.854,HF_wild_card,2022.2.4,Win32,59.72645285,646b603e50eda67e0d6780d9,64d2fd46c836a06233681665,64dc7fec0febb1bc1cf75cdb,,,,,,,decisionTrl,resources/DR.BMP,resources/DP.BMP,Door3,0.261111153,-0.049074067,1,0,0,1.9107,optionRight,70,3475,2,22,0,22,0,1,,,,,,,,,,,,,,,,,,,,,,,,,,,,,,,,,,,,,,,
,,,,,,,,2023-08-16_08h55.21.854,HF_wild_card,2022.2.4,Win32,59.72645285,646b603e50eda67e0d6780d9,64d2fd46c836a06233681665,64dc7fec0febb1bc1cf75cdb,,,,,,,decisionTrl,resources/DBN.BMP,resources/DY.BMP,Door2,0.268518519,0.014814801,1,0,0,5.7119,optionRight,40,3515,2,23,0,23,0,1,,,,,,,,,,,,,,,,,,,,,,,,,,,,,,,,,,,,,,,
,,,,,,,,2023-08-16_08h55.21.854,HF_wild_card,2022.2.4,Win32,59.72645285,646b603e50eda67e0d6780d9,64d2fd46c836a06233681665,64dc7fec0febb1bc1cf75cdb,,,,,,,sngl,resources/Empty.png,resources/DB.BMP,WildCard_NonEx,0.286111125,-0.006481489,1,0,0,0.9297,optionRight,45,3560,2,24,0,24,0,1,,,,,,,,,,,,,,,,,,,,,,,,,,,,,,,,,,,,,,,
,,,,,,,,2023-08-16_08h55.21.854,HF_wild_card,2022.2.4,Win32,59.72645285,646b603e50eda67e0d6780d9,64d2fd46c836a06233681665,64dc7fec0febb1bc1cf75cdb,,,,,,,ctch,resources/DP.BMP,resources/DY.BMP,Door3,-0.400000007,-0.066666674,1,0,0,1.9293,optionLeft,70,3630,2,25,0,25,0,1,,,,,,,,,,,,,,,,,,,,,,,,,,,,,,,,,,,,,,,
,,,,,,,,2023-08-16_08h55.21.854,HF_wild_card,2022.2.4,Win32,59.72645285,646b603e50eda67e0d6780d9,64d2fd46c836a06233681665,64dc7fec0febb1bc1cf75cdb,,,,,,,sngl,resources/Empty.png,resources/DP.BMP,Door3,0.411111196,-0.018518519,1,0,0,0.7628,optionRight,70,3700,2,26,0,26,0,1,,,,,,,,,,,,,,,,,,,,,,,,,,,,,,,,,,,,,,,
,,,,,,,,2023-08-16_08h55.21.854,HF_wild_card,2022.2.4,Win32,59.72645285,646b603e50eda67e0d6780d9,64d2fd46c836a06233681665,64dc7fec0febb1bc1cf75cdb,,,,,,,decisionTrl,resources/DP.BMP,resources/DR.BMP,Door3,-0.305555556,-0.022222236,1,0,0,0.9448,optionLeft,70,3770,2,27,0,27,0,1,,,,,,,,,,,,,,,,,,,,,,,,,,,,,,,,,,,,,,,
,,,,,,,,2023-08-16_08h55.21.854,HF_wild_card,2022.2.4,Win32,59.72645285,646b603e50eda67e0d6780d9,64d2fd46c836a06233681665,64dc7fec0febb1bc1cf75cdb,,,,,,,ctch,resources/DR.BMP,resources/DBN.BMP,Door4,-0.322222215,-0.017592607,1,0,0,1.5605,optionLeft,60,3830,2,28,0,28,0,1,,,,,,,,,,,,,,,,,,,,,,,,,,,,,,,,,,,,,,,
,,,,,,,,2023-08-16_08h55.21.854,HF_wild_card,2022.2.4,Win32,59.72645285,646b603e50eda67e0d6780d9,64d2fd46c836a06233681665,64dc7fec0febb1bc1cf75cdb,,,,,,,ctch,resources/DY.BMP,resources/DP.BMP,Door3,0.272222236,-0.025000007,1,0,0,2.7098,optionRight,70,3900,2,29,0,29,0,1,,,,,,,,,,,,,,,,,,,,,,,,,,,,,,,,,,,,,,,
,,,,,,,,2023-08-16_08h55.21.854,HF_wild_card,2022.2.4,Win32,59.72645285,646b603e50eda67e0d6780d9,64d2fd46c836a06233681665,64dc7fec0febb1bc1cf75cdb,,,,,,,sngl,resources/DBN.BMP,resources/Empty.png,Door1,-0.237962935,-0.021296289,1,0,0,1.2942,optionLeft,30,3930,2,30,0,30,0,1,,,,,,,,,,,,,,,,,,,,,,,,,,,,,,,,,,,,,,,
,,,,,,,,2023-08-16_08h55.21.854,HF_wild_card,2022.2.4,Win32,59.72645285,646b603e50eda67e0d6780d9,64d2fd46c836a06233681665,64dc7fec0febb1bc1cf75cdb,,,,,,,ctch,resources/DP.BMP,resources/DY.BMP,Door3,-0.300925926,-0.009259259,1,0,0,8.8939,optionLeft,70,4000,2,31,0,31,0,1,,,,,,,,,,,,,,,,,,,,,,,,,,,,,,,,,,,,,,,
,,,,,,,,2023-08-16_08h55.21.854,HF_wild_card,2022.2.4,Win32,59.72645285,646b603e50eda67e0d6780d9,64d2fd46c836a06233681665,64dc7fec0febb1bc1cf75cdb,,,,,,,sngl,resources/DR.BMP,resources/Empty.png,Door4,-0.267592607,0.000925912,1,0,0,0.881,optionLeft,60,4060,2,32,0,32,0,1,,,,,,,,,,,,,,,,,,,,,,,,,,,,,,,,,,,,,,,
,,,,,,,,2023-08-16_08h55.21.854,HF_wild_card,2022.2.4,Win32,59.72645285,646b603e50eda67e0d6780d9,64d2fd46c836a06233681665,64dc7fec0febb1bc1cf75cdb,,,,,,,decisionTrl,resources/DR.BMP,resources/DP.BMP,Door3,0.323148233,-0.041666667,1,0,0,1.5397,optionRight,70,4130,2,33,0,33,0,1,,,,,,,,,,,,,,,,,,,,,,,,,,,,,,,,,,,,,,,
,,,,,,,,2023-08-16_08h55.21.854,HF_wild_card,2022.2.4,Win32,59.72645285,646b603e50eda67e0d6780d9,64d2fd46c836a06233681665,64dc7fec0febb1bc1cf75cdb,,,,,,,decisionTrl,resources/DR.BMP,resources/DB.BMP,Door4,-0.38703703,-0.072222215,1,0,0,1.2203,optionLeft,80,4210,2,34,0,34,0,1,,,,,,,,,,,,,,,,,,,,,,,,,,,,,,,,,,,,,,,
,,,,,,,,2023-08-16_08h55.21.854,HF_wild_card,2022.2.4,Win32,59.72645285,646b603e50eda67e0d6780d9,64d2fd46c836a06233681665,64dc7fec0febb1bc1cf75cdb,,,,,,,sngl,resources/Empty.png,resources/DR.BMP,Door4,0.249074088,0.010185171,1,0,0,0.7127,optionRight,80,4290,2,35,0,35,0,1,,,,,,,,,,,,,,,,,,,,,,,,,,,,,,,,,,,,,,,
,,,,,,,,2023-08-16_08h55.21.854,HF_wild_card,2022.2.4,Win32,59.72645285,646b603e50eda67e0d6780d9,64d2fd46c836a06233681665,64dc7fec0febb1bc1cf75cdb,,,,,,,ctch,resources/DR.BMP,resources/DBN.BMP,Door4,-0.212037051,-0.0074074,1,0,0,1.0614,optionLeft,80,4370,2,36,0,36,0,1,,,,,,,,,,,,,,,,,,,,,,,,,,,,,,,,,,,,,,,
,,,,,,,,2023-08-16_08h55.21.854,HF_wild_card,2022.2.4,Win32,59.72645285,646b603e50eda67e0d6780d9,64d2fd46c836a06233681665,64dc7fec0febb1bc1cf75cdb,,,,,,,decisionTrl,resources/DB.BMP,resources/DBN.BMP,Door1,0.263888889,-0.021296289,1,0,0,1.4115,optionRight,30,4400,2,37,0,37,0,1,,,,,,,,,,,,,,,,,,,,,,,,,,,,,,,,,,,,,,,
,,,,,,,,2023-08-16_08h55.21.854,HF_wild_card,2022.2.4,Win32,59.72645285,646b603e50eda67e0d6780d9,64d2fd46c836a06233681665,64dc7fec0febb1bc1cf75cdb,,,,,,,sngl,resources/Empty.png,resources/DB.BMP,WildCard_NonEx,0.332407492,-0.005555577,1,0,0,1.0173,optionRight,55,4455,2,38,0,38,0,1,,,,,,,,,,,,,,,,,,,,,,,,,,,,,,,,,,,,,,,
,,,,,,,,2023-08-16_08h55.21.854,HF_wild_card,2022.2.4,Win32,59.72645285,646b603e50eda67e0d6780d9,64d2fd46c836a06233681665,64dc7fec0febb1bc1cf75cdb,,,,,,,ctch,resources/DY.BMP,resources/DP.BMP,Door3,0.006481524,-0.002777771,1,0,0,0.1795,optionRight,70,4525,2,39,0,39,0,1,,,,,,,,,,,,,,,,,,,,,,,,,,,,,,,,,,,,,,,
,,,,,,,,2023-08-16_08h55.21.854,HF_wild_card,2022.2.4,Win32,59.72645285,646b603e50eda67e0d6780d9,64d2fd46c836a06233681665,64dc7fec0febb1bc1cf75cdb,,,,,,,decisionTrl,resources/DBN.BMP,resources/DY.BMP,Door1,-0.23055557,-0.025000007,1,0,0,2.049,optionLeft,30,4555,2,40,0,40,0,1,,,,,,,,,,,,,,,,,,,,,,,,,,,,,,,,,,,,,,,
,,,,,,,,2023-08-16_08h55.21.854,HF_wild_card,2022.2.4,Win32,59.72645285,646b603e50eda67e0d6780d9,64d2fd46c836a06233681665,64dc7fec0febb1bc1cf75cdb,,,,,,,decisionTrl,resources/DB.BMP,resources/DY.BMP,WildCard_NonEx,-0.258333347,-0.050000014,1,0,0,2.061,optionLeft,55,4610,2,41,0,41,0,1,,,,,,,,,,,,,,,,,,,,,,,,,,,,,,,,,,,,,,,
,,,,,,,,2023-08-16_08h55.21.854,HF_wild_card,2022.2.4,Win32,59.72645285,646b603e50eda67e0d6780d9,64d2fd46c836a06233681665,64dc7fec0febb1bc1cf75cdb,,,,,,,decisionTrl,resources/DBN.BMP,resources/DY.BMP,Door2,0.252777806,-0.042592614,1,0,0,2.8629,optionRight,40,4650,2,42,0,42,0,1,,,,,,,,,,,,,,,,,,,,,,,,,,,,,,,,,,,,,,,
,,,,,,,,2023-08-16_08h55.21.854,HF_wild_card,2022.2.4,Win32,59.72645285,646b603e50eda67e0d6780d9,64d2fd46c836a06233681665,64dc7fec0febb1bc1cf75cdb,,,,,,,decisionTrl,resources/DP.BMP,resources/DB.BMP,Door3,-0.320370356,-0.050925926,1,0,0,2.063,optionLeft,70,4720,2,43,0,43,0,1,,,,,,,,,,,,,,,,,,,,,,,,,,,,,,,,,,,,,,,
,,,,,,,,2023-08-16_08h55.21.854,HF_wild_card,2022.2.4,Win32,59.72645285,646b603e50eda67e0d6780d9,64d2fd46c836a06233681665,64dc7fec0febb1bc1cf75cdb,,,,,,,,,,,,,,,,,,,,,,,,,,1,0,1,0,1,,,,,,,,,,,,,,,,,,,,,,,,,,,,,,,,,,
,,,,,,,,2023-08-16_08h55.21.854,HF_wild_card,2022.2.4,Win32,59.72645285,646b603e50eda67e0d6780d9,64d2fd46c836a06233681665,64dc7fec0febb1bc1cf75cdb,,,,,,,decisionTrl,resources/DR.BMP,resources/DP.BMP,Door3,0.373148176,-0.116666653,1,0,0,1.3605,optionRight,70,4790,3,0,0,0,0,1,,,,,,,,,,,,,,,,,,,,,,,,,,,,,,,,,,,,,,,
,,,,,,,,2023-08-16_08h55.21.854,HF_wild_card,2022.2.4,Win32,59.72645285,646b603e50eda67e0d6780d9,64d2fd46c836a06233681665,64dc7fec0febb1bc1cf75cdb,,,,,,,ctch,resources/DY.BMP,resources/DP.BMP,Door3,0.291666667,-0.045370384,1,0,0,0.9785,optionRight,70,4860,3,1,0,1,0,1,,,,,,,,,,,,,,,,,,,,,,,,,,,,,,,,,,,,,,,
,,,,,,,,2023-08-16_08h55.21.854,HF_wild_card,2022.2.4,Win32,59.72645285,646b603e50eda67e0d6780d9,64d2fd46c836a06233681665,64dc7fec0febb1bc1cf75cdb,,,,,,,ctch,resources/DBN.BMP,resources/DR.BMP,Door4,0.238888917,-0.037037037,1,0,0,1.2788,optionRight,60,4920,3,2,0,2,0,1,,,,,,,,,,,,,,,,,,,,,,,,,,,,,,,,,,,,,,,
,,,,,,,,2023-08-16_08h55.21.854,HF_wild_card,2022.2.4,Win32,59.72645285,646b603e50eda67e0d6780d9,64d2fd46c836a06233681665,64dc7fec0febb1bc1cf75cdb,,,,,,,decisionTrl,resources/DP.BMP,resources/DR.BMP,Door3,-0.223148134,-0.071296303,1,0,0,1.1109,optionLeft,70,4990,3,3,0,3,0,1,,,,,,,,,,,,,,,,,,,,,,,,,,,,,,,,,,,,,,,
,,,,,,,,2023-08-16_08h55.21.854,HF_wild_card,2022.2.4,Win32,59.72645285,646b603e50eda67e0d6780d9,64d2fd46c836a06233681665,64dc7fec0febb1bc1cf75cdb,,,,,,,decisionTrl,resources/DBN.BMP,resources/DY.BMP,Door2,0.293518561,-0.017592607,1,0,0,2.0617,optionRight,20,5010,3,4,0,4,0,1,,,,,,,,,,,,,,,,,,,,,,,,,,,,,,,,,,,,,,,
,,,,,,,,2023-08-16_08h55.21.854,HF_wild_card,2022.2.4,Win32,59.72645285,646b603e50eda67e0d6780d9,64d2fd46c836a06233681665,64dc7fec0febb1bc1cf75cdb,,,,,,,decisionTrl,resources/DY.BMP,resources/DBN.BMP,Door1,0.314814815,0.009259259,1,0,0,0.7464,optionRight,30,5040,3,5,0,5,0,1,,,,,,,,,,,,,,,,,,,,,,,,,,,,,,,,,,,,,,,
,,,,,,,,2023-08-16_08h55.21.854,HF_wild_card,2022.2.4,Win32,59.72645285,646b603e50eda67e0d6780d9,64d2fd46c836a06233681665,64dc7fec0febb1bc1cf75cdb,,,,,,,decisionTrl,resources/DB.BMP,resources/DP.BMP,Door3,0.329629686,-0.031481496,1,0,0,1.0955,optionRight,70,5110,3,6,0,6,0,1,,,,,,,,,,,,,,,,,,,,,,,,,,,,,,,,,,,,,,,
,,,,,,,,2023-08-16_08h55.21.854,HF_wild_card,2022.2.4,Win32,59.72645285,646b603e50eda67e0d6780d9,64d2fd46c836a06233681665,64dc7fec0febb1bc1cf75cdb,,,,,,,decisionTrl,resources/DP.BMP,resources/DB.BMP,Door3,-0.412037037,-0.009259259,1,0,0,1.0273,optionLeft,70,5180,3,7,0,7,0,1,,,,,,,,,,,,,,,,,,,,,,,,,,,,,,,,,,,,,,,
,,,,,,,,2023-08-16_08h55.21.854,HF_wild_card,2022.2.4,Win32,59.72645285,646b603e50eda67e0d6780d9,64d2fd46c836a06233681665,64dc7fec0febb1bc1cf75cdb,,,,,,,sngl,resources/DY.BMP,resources/Empty.png,Door2,-0.304629608,-0.031481496,1,0,0,0.9791,optionLeft,40,5220,3,8,0,8,0,1,,,,,,,,,,,,,,,,,,,,,,,,,,,,,,,,,,,,,,,
,,,,,,,,2023-08-16_08h55.21.854,HF_wild_card,2022.2.4,Win32,59.72645285,646b603e50eda67e0d6780d9,64d2fd46c836a06233681665,64dc7fec0febb1bc1cf75cdb,,,,,,,decisionTrl,resources/DY.BMP,resources/DBN.BMP,Door1,0.310185185,-0.000925947,1,0,0,1.6619,optionRight,30,5250,3,9,0,9,0,1,,,,,,,,,,,,,,,,,,,,,,,,,,,,,,,,,,,,,,,
,,,,,,,,2023-08-16_08h55.21.854,HF_wild_card,2022.2.4,Win32,59.72645285,646b603e50eda67e0d6780d9,64d2fd46c836a06233681665,64dc7fec0febb1bc1cf75cdb,,,,,,,decisionTrl,resources/DBN.BMP,resources/DY.BMP,Door1,-0.248148106,-0.034259266,1,0,0,0.8945,optionLeft,30,5280,3,10,0,10,0,1,,,,,,,,,,,,,,,,,,,,,,,,,,,,,,,,,,,,,,,
,,,,,,,,2023-08-16_08h55.21.854,HF_wild_card,2022.2.4,Win32,59.72645285,646b603e50eda67e0d6780d9,64d2fd46c836a06233681665,64dc7fec0febb1bc1cf75cdb,,,,,,,decisionTrl,resources/DB.BMP,resources/DY.BMP,WildCard_NonEx,-0.3675926,-0.046296296,1,0,0,3.161,optionLeft,45,5325,3,11,0,11,0,1,,,,,,,,,,,,,,,,,,,,,,,,,,,,,,,,,,,,,,,
,,,,,,,,2023-08-16_08h55.21.854,HF_wild_card,2022.2.4,Win32,59.72645285,646b603e50eda67e0d6780d9,64d2fd46c836a06233681665,64dc7fec0febb1bc1cf75cdb,,,,,,,sngl,resources/DB.BMP,resources/Empty.png,WildCard_NonEx,-0.262962977,0.008333312,1,0,0,0.7807,optionLeft,45,5370,3,12,0,12,0,1,,,,,,,,,,,,,,,,,,,,,,,,,,,,,,,,,,,,,,,
,,,,,,,,2023-08-16_08h55.21.854,HF_wild_card,2022.2.4,Win32,59.72645285,646b603e50eda67e0d6780d9,64d2fd46c836a06233681665,64dc7fec0febb1bc1cf75cdb,,,,,,,sngl,resources/DR.BMP,resources/Empty.png,Door4,-0.262962977,0.013888889,1,0,0,1.0451,optionLeft,80,5450,3,13,0,13,0,1,,,,,,,,,,,,,,,,,,,,,,,,,,,,,,,,,,,,,,,
,,,,,,,,2023-08-16_08h55.21.854,HF_wild_card,2022.2.4,Win32,59.72645285,646b603e50eda67e0d6780d9,64d2fd46c836a06233681665,64dc7fec0febb1bc1cf75cdb,,,,,,,decisionTrl,resources/DY.BMP,resources/DB.BMP,WildCard_NonEx,0.290740755,-0.061111132,1,0,0,2.6291,optionRight,45,5495,3,14,0,14,0,1,,,,,,,,,,,,,,,,,,,,,,,,,,,,,,,,,,,,,,,
,,,,,,,,2023-08-16_08h55.21.854,HF_wild_card,2022.2.4,Win32,59.72645285,646b603e50eda67e0d6780d9,64d2fd46c836a06233681665,64dc7fec0febb1bc1cf75cdb,,,,,,,decisionTrl,resources/DY.BMP,resources/DBN.BMP,Door2,-0.311111097,0.010185171,1,0,0,1.8453,optionLeft,20,5515,3,15,0,15,0,1,,,,,,,,,,,,,,,,,,,,,,,,,,,,,,,,,,,,,,,
,,,,,,,,2023-08-16_08h55.21.854,HF_wild_card,2022.2.4,Win32,59.72645285,646b603e50eda67e0d6780d9,64d2fd46c836a06233681665,64dc7fec0febb1bc1cf75cdb,,,,,,,ctch,resources/DR.BMP,resources/DBN.BMP,Door1,0.27407406,-0.000925947,1,0,0,0.8959,optionRight,30,5545,3,16,0,16,0,1,,,,,,,,,,,,,,,,,,,,,,,,,,,,,,,,,,,,,,,
,,,,,,,,2023-08-16_08h55.21.854,HF_wild_card,2022.2.4,Win32,59.72645285,646b603e50eda67e0d6780d9,64d2fd46c836a06233681665,64dc7fec0febb1bc1cf75cdb,,,,,,,decisionTrl,resources/DP.BMP,resources/DR.BMP,Door3,-0.207407422,-0.094444487,1,0,0,1.6126,optionLeft,70,5615,3,17,0,17,0,1,,,,,,,,,,,,,,,,,,,,,,,,,,,,,,,,,,,,,,,
,,,,,,,,2023-08-16_08h55.21.854,HF_wild_card,2022.2.4,Win32,59.72645285,646b603e50eda67e0d6780d9,64d2fd46c836a06233681665,64dc7fec0febb1bc1cf75cdb,,,,,,,sngl,resources/Empty.png,resources/DP.BMP,Door3,0.375925982,0.001851859,1,0,0,0.8791,optionRight,70,5685,3,18,0,18,0,1,,,,,,,,,,,,,,,,,,,,,,,,,,,,,,,,,,,,,,,
,,,,,,,,2023-08-16_08h55.21.854,HF_wild_card,2022.2.4,Win32,59.72645285,646b603e50eda67e0d6780d9,64d2fd46c836a06233681665,64dc7fec0febb1bc1cf75cdb,,,,,,,decisionTrl,resources/DR.BMP,resources/DP.BMP,Door3,0.287037037,-0.030555548,1,0,0,1.7117,optionRight,70,5755,3,19,0,19,0,1,,,,,,,,,,,,,,,,,,,,,,,,,,,,,,,,,,,,,,,
,,,,,,,,2023-08-16_08h55.21.854,HF_wild_card,2022.2.4,Win32,59.72645285,646b603e50eda67e0d6780d9,64d2fd46c836a06233681665,64dc7fec0febb1bc1cf75cdb,,,,,,,sngl,resources/Empty.png,resources/DB.BMP,WildCard_NonEx,0.323148233,-0.026851866,1,0,0,0.9285,optionRight,45,5800,3,20,0,20,0,1,,,,,,,,,,,,,,,,,,,,,,,,,,,,,,,,,,,,,,,
,,,,,,,,2023-08-16_08h55.21.854,HF_wild_card,2022.2.4,Win32,59.72645285,646b603e50eda67e0d6780d9,64d2fd46c836a06233681665,64dc7fec0febb1bc1cf75cdb,,,,,,,decisionTrl,resources/DB.BMP,resources/DR.BMP,Door4,0.252777806,-0.042592614,1,0,0,1.0789,optionRight,80,5880,3,21,0,21,0,1,,,,,,,,,,,,,,,,,,,,,,,,,,,,,,,,,,,,,,,
,,,,,,,,2023-08-16_08h55.21.854,HF_wild_card,2022.2.4,Win32,59.72645285,646b603e50eda67e0d6780d9,64d2fd46c836a06233681665,64dc7fec0febb1bc1cf75cdb,,,,,,,sngl,resources/Empty.png,resources/DR.BMP,Door4,0.284259302,-0.041666667,1,0,0,0.7289,optionRight,60,5940,3,22,0,22,0,1,,,,,,,,,,,,,,,,,,,,,,,,,,,,,,,,,,,,,,,
,,,,,,,,2023-08-16_08h55.21.854,HF_wild_card,2022.2.4,Win32,59.72645285,646b603e50eda67e0d6780d9,64d2fd46c836a06233681665,64dc7fec0febb1bc1cf75cdb,,,,,,,ctch,resources/DP.BMP,resources/DY.BMP,Door3,-0.262036995,0.021296289,1,0,0,4.7118,optionLeft,70,6010,3,23,0,23,0,1,,,,,,,,,,,,,,,,,,,,,,,,,,,,,,,,,,,,,,,
,,,,,,,,2023-08-16_08h55.21.854,HF_wild_card,2022.2.4,Win32,59.72645285,646b603e50eda67e0d6780d9,64d2fd46c836a06233681665,64dc7fec0febb1bc1cf75cdb,,,,,,,decisionTrl,resources/DY.BMP,resources/DBN.BMP,Door1,0.389814871,0.047222208,1,0,0,1.5285,optionRight,30,6040,3,24,0,24,0,1,,,,,,,,,,,,,,,,,,,,,,,,,,,,,,,,,,,,,,,
,,,,,,,,2023-08-16_08h55.21.854,HF_wild_card,2022.2.4,Win32,59.72645285,646b603e50eda67e0d6780d9,64d2fd46c836a06233681665,64dc7fec0febb1bc1cf75cdb,,,,,,,decisionTrl,resources/DBN.BMP,resources/DB.BMP,WildCard_NonEx,0.411111196,-0.050925926,1,0,0,1.5124,optionRight,45,6085,3,25,0,25,0,1,,,,,,,,,,,,,,,,,,,,,,,,,,,,,,,,,,,,,,,
,,,,,,,,2023-08-16_08h55.21.854,HF_wild_card,2022.2.4,Win32,59.72645285,646b603e50eda67e0d6780d9,64d2fd46c836a06233681665,64dc7fec0febb1bc1cf75cdb,,,,,,,decisionTrl,resources/DR.BMP,resources/DP.BMP,Door3,0.309259344,-0.054629644,1,0,0,1.9123,optionRight,70,6155,3,26,0,26,0,1,,,,,,,,,,,,,,,,,,,,,,,,,,,,,,,,,,,,,,,
,,,,,,,,2023-08-16_08h55.21.854,HF_wild_card,2022.2.4,Win32,59.72645285,646b603e50eda67e0d6780d9,64d2fd46c836a06233681665,64dc7fec0febb1bc1cf75cdb,,,,,,,ctch,resources/DR.BMP,resources/DBN.BMP,Door4,-0.296296296,-0.011111118,1,0,0,1.0285,optionLeft,80,6235,3,27,0,27,0,1,,,,,,,,,,,,,,,,,,,,,,,,,,,,,,,,,,,,,,,
,,,,,,,,2023-08-16_08h55.21.854,HF_wild_card,2022.2.4,Win32,59.72645285,646b603e50eda67e0d6780d9,64d2fd46c836a06233681665,64dc7fec0febb1bc1cf75cdb,,,,,,,sngl,resources/Empty.png,resources/DBN.BMP,Door1,0.321296268,0.003703683,1,0,0,0.7463,optionRight,30,6265,3,28,0,28,0,1,,,,,,,,,,,,,,,,,,,,,,,,,,,,,,,,,,,,,,,
,,,,,,,,2023-08-16_08h55.21.854,HF_wild_card,2022.2.4,Win32,59.72645285,646b603e50eda67e0d6780d9,64d2fd46c836a06233681665,64dc7fec0febb1bc1cf75cdb,,,,,,,ctch,resources/DBN.BMP,resources/DR.BMP,Door4,0.236111111,-0.056481503,1,0,0,1.2956,optionRight,80,6345,3,29,0,29,0,1,,,,,,,,,,,,,,,,,,,,,,,,,,,,,,,,,,,,,,,
,,,,,,,,2023-08-16_08h55.21.854,HF_wild_card,2022.2.4,Win32,59.72645285,646b603e50eda67e0d6780d9,64d2fd46c836a06233681665,64dc7fec0febb1bc1cf75cdb,,,,,,,decisionTrl,resources/DBN.BMP,resources/DY.BMP,Door1,-0.24537037,-0.008333347,1,0,0,1.2785,optionLeft,30,6375,3,30,0,30,0,1,,,,,,,,,,,,,,,,,,,,,,,,,,,,,,,,,,,,,,,
,,,,,,,,2023-08-16_08h55.21.854,HF_wild_card,2022.2.4,Win32,59.72645285,646b603e50eda67e0d6780d9,64d2fd46c836a06233681665,64dc7fec0febb1bc1cf75cdb,,,,,,,sngl,resources/DBN.BMP,resources/Empty.png,Door1,-0.24537037,-0.015740748,1,0,0,0.9118,optionLeft,30,6405,3,31,0,31,0,1,,,,,,,,,,,,,,,,,,,,,,,,,,,,,,,,,,,,,,,
,,,,,,,,2023-08-16_08h55.21.854,HF_wild_card,2022.2.4,Win32,59.72645285,646b603e50eda67e0d6780d9,64d2fd46c836a06233681665,64dc7fec0febb1bc1cf75cdb,,,,,,,decisionTrl,resources/DR.BMP,resources/DB.BMP,Door4,-0.344444452,0.008333312,1,0,0,1.8114,optionLeft,80,6485,3,32,0,32,0,1,,,,,,,,,,,,,,,,,,,,,,,,,,,,,,,,,,,,,,,
,,,,,,,,2023-08-16_08h55.21.854,HF_wild_card,2022.2.4,Win32,59.72645285,646b603e50eda67e0d6780d9,64d2fd46c836a06233681665,64dc7fec0febb1bc1cf75cdb,,,,,,,sngl,resources/Empty.png,resources/DB.BMP,WildCard_NonEx,0.313888974,-0.025925919,1,0,0,0.8119,optionRight,55,6540,3,33,0,33,0,1,,,,,,,,,,,,,,,,,,,,,,,,,,,,,,,,,,,,,,,
,,,,,,,,2023-08-16_08h55.21.854,HF_wild_card,2022.2.4,Win32,59.72645285,646b603e50eda67e0d6780d9,64d2fd46c836a06233681665,64dc7fec0febb1bc1cf75cdb,,,,,,,decisionTrl,resources/DB.BMP,resources/DBN.BMP,WildCard_NonEx,-0.296296296,-0.013888889,1,0,0,1.4114,optionLeft,45,6585,3,34,0,34,0,1,,,,,,,,,,,,,,,,,,,,,,,,,,,,,,,,,,,,,,,
,,,,,,,,2023-08-16_08h55.21.854,HF_wild_card,2022.2.4,Win32,59.72645285,646b603e50eda67e0d6780d9,64d2fd46c836a06233681665,64dc7fec0febb1bc1cf75cdb,,,,,,,sngl,resources/Empty.png,resources/DY.BMP,Door2,0.327777863,-0.042592614,1,0,0,0.9617,optionRight,20,6605,3,35,0,35,0,1,,,,,,,,,,,,,,,,,,,,,,,,,,,,,,,,,,,,,,,
,,,,,,,,2023-08-16_08h55.21.854,HF_wild_card,2022.2.4,Win32,59.72645285,646b603e50eda67e0d6780d9,64d2fd46c836a06233681665,64dc7fec0febb1bc1cf75cdb,,,,,,,ctch,resources/DP.BMP,resources/DY.BMP,Door3,-0.244444459,-0.044444437,1,0,0,1.129,optionLeft,70,6675,3,36,0,36,0,1,,,,,,,,,,,,,,,,,,,,,,,,,,,,,,,,,,,,,,,
,,,,,,,,2023-08-16_08h55.21.854,HF_wild_card,2022.2.4,Win32,59.72645285,646b603e50eda67e0d6780d9,64d2fd46c836a06233681665,64dc7fec0febb1bc1cf75cdb,,,,,,,decisionTrl,resources/DBN.BMP,resources/DY.BMP,Door1,-0.270370342,-0.057407414,1,0,0,1.3614,optionLeft,30,6705,3,37,0,37,0,1,,,,,,,,,,,,,,,,,,,,,,,,,,,,,,,,,,,,,,,
,,,,,,,,2023-08-16_08h55.21.854,HF_wild_card,2022.2.4,Win32,59.72645285,646b603e50eda67e0d6780d9,64d2fd46c836a06233681665,64dc7fec0febb1bc1cf75cdb,,,,,,,sngl,resources/DP.BMP,resources/Empty.png,Door3,-0.242592564,-0.002777771,1,0,0,0.8452,optionLeft,70,6775,3,38,0,38,0,1,,,,,,,,,,,,,,,,,,,,,,,,,,,,,,,,,,,,,,,
,,,,,,,,2023-08-16_08h55.21.854,HF_wild_card,2022.2.4,Win32,59.72645285,646b603e50eda67e0d6780d9,64d2fd46c836a06233681665,64dc7fec0febb1bc1cf75cdb,,,,,,,decisionTrl,resources/DP.BMP,resources/DR.BMP,Door3,-0.204629616,-0.014814836,1,0,0,1.2455,optionLeft,70,6845,3,39,0,39,0,1,,,,,,,,,,,,,,,,,,,,,,,,,,,,,,,,,,,,,,,
,,,,,,,,2023-08-16_08h55.21.854,HF_wild_card,2022.2.4,Win32,59.72645285,646b603e50eda67e0d6780d9,64d2fd46c836a06233681665,64dc7fec0febb1bc1cf75cdb,,,,,,,decisionTrl,resources/DP.BMP,resources/DR.BMP,Door3,-0.237037023,-0.121296282,1,0,0,3.1623,optionLeft,70,6915,3,40,0,40,0,1,,,,,,,,,,,,,,,,,,,,,,,,,,,,,,,,,,,,,,,
,,,,,,,,2023-08-16_08h55.21.854,HF_wild_card,2022.2.4,Win32,59.72645285,646b603e50eda67e0d6780d9,64d2fd46c836a06233681665,64dc7fec0febb1bc1cf75cdb,,,,,,,sngl,resources/DB.BMP,resources/Empty.png,WildCard_NonEx,-0.338888875,-0.037962984,1,0,0,0.7783,optionLeft,55,6970,3,41,0,41,0,1,,,,,,,,,,,,,,,,,,,,,,,,,,,,,,,,,,,,,,,
,,,,,,,,2023-08-16_08h55.21.854,HF_wild_card,2022.2.4,Win32,59.72645285,646b603e50eda67e0d6780d9,64d2fd46c836a06233681665,64dc7fec0febb1bc1cf75cdb,,,,,,,decisionTrl,resources/DR.BMP,resources/DP.BMP,Door3,0.428703732,-0.052777785,1,0,0,2.3286,optionRight,70,7040,3,42,0,42,0,1,,,,,,,,,,,,,,,,,,,,,,,,,,,,,,,,,,,,,,,
,,,,,,,,2023-08-16_08h55.21.854,HF_wild_card,2022.2.4,Win32,59.72645285,646b603e50eda67e0d6780d9,64d2fd46c836a06233681665,64dc7fec0febb1bc1cf75cdb,,,,,,,ctch,resources/DY.BMP,resources/DP.BMP,Door3,0.371296353,-0.036111125,1,0,0,1.1281,optionRight,70,7110,3,43,0,43,0,1,,,,,,,,,,,,,,,,,,,,,,,,,,,,,,,,,,,,,,,
,,,,,,,,2023-08-16_08h55.21.854,HF_wild_card,2022.2.4,Win32,59.72645285,646b603e50eda67e0d6780d9,64d2fd46c836a06233681665,64dc7fec0febb1bc1cf75cdb,,,,,,,,,,,,,,,,,,,,,,,,,,2,0,2,0,1,,,,,,,,,,,,,,,,,,,,,,,,,,,,,,,,,,
,,,,,,,,2023-08-16_08h55.21.854,HF_wild_card,2022.2.4,Win32,59.72645285,646b603e50eda67e0d6780d9,64d2fd46c836a06233681665,64dc7fec0febb1bc1cf75cdb,,,,,,,decisionTrl,resources/DY.BMP,resources/DBN.BMP,Door1,0.399074131,-0.023148148,1,0,0,2.8768,optionRight,30,7140,4,0,0,0,0,1,,,,,,,,,,,,,,,,,,,,,,,,,,,,,,,,,,,,,,,
,,,,,,,,2023-08-16_08h55.21.854,HF_wild_card,2022.2.4,Win32,59.72645285,646b603e50eda67e0d6780d9,64d2fd46c836a06233681665,64dc7fec0febb1bc1cf75cdb,,,,,,,ctch,resources/DP.BMP,resources/DY.BMP,Door3,-0.333333333,0.002777771,1,0,0,1.8454,optionLeft,70,7210,4,1,0,1,0,1,,,,,,,,,,,,,,,,,,,,,,,,,,,,,,,,,,,,,,,
,,,,,,,,2023-08-16_08h55.21.854,HF_wild_card,2022.2.4,Win32,59.72645285,646b603e50eda67e0d6780d9,64d2fd46c836a06233681665,64dc7fec0febb1bc1cf75cdb,,,,,,,decisionTrl,resources/DBN.BMP,resources/DY.BMP,Door1,-0.238888847,0.01203703,1,0,0,2.1793,optionLeft,30,7240,4,2,0,2,0,1,,,,,,,,,,,,,,,,,,,,,,,,,,,,,,,,,,,,,,,
,,,,,,,,2023-08-16_08h55.21.854,HF_wild_card,2022.2.4,Win32,59.72645285,646b603e50eda67e0d6780d9,64d2fd46c836a06233681665,64dc7fec0febb1bc1cf75cdb,,,,,,,decisionTrl,resources/DG.BMP,resources/DBN.BMP,WildCard_Ex,-0.337962963,-0.051851873,1,0,0,3.0286,optionLeft,55,7295,4,3,0,3,0,1,,,,,,,,,,,,,,,,,,,,,,,,,,,,,,,,,,,,,,,
,,,,,,,,2023-08-16_08h55.21.854,HF_wild_card,2022.2.4,Win32,59.72645285,646b603e50eda67e0d6780d9,64d2fd46c836a06233681665,64dc7fec0febb1bc1cf75cdb,,,,,,,decisionTrl,resources/DY.BMP,resources/DBN.BMP,Door1,0.340740769,-0.077777792,1,0,0,2.0625,optionRight,30,7325,4,4,0,4,0,1,,,,,,,,,,,,,,,,,,,,,,,,,,,,,,,,,,,,,,,
,,,,,,,,2023-08-16_08h55.21.854,HF_wild_card,2022.2.4,Win32,59.72645285,646b603e50eda67e0d6780d9,64d2fd46c836a06233681665,64dc7fec0febb1bc1cf75cdb,,,,,,,ctch,resources/DR.BMP,resources/DBN.BMP,Door4,-0.295370384,-0.001851859,1,0,0,1.229,optionLeft,60,7385,4,5,0,5,0,1,,,,,,,,,,,,,,,,,,,,,,,,,,,,,,,,,,,,,,,
,,,,,,,,2023-08-16_08h55.21.854,HF_wild_card,2022.2.4,Win32,59.72645285,646b603e50eda67e0d6780d9,64d2fd46c836a06233681665,64dc7fec0febb1bc1cf75cdb,,,,,,,sngl,resources/Empty.png,resources/DG.BMP,WildCard_Ex,0.366666723,-0.017592607,1,0,0,0.8785,optionRight,55,7440,4,6,0,6,0,1,,,,,,,,,,,,,,,,,,,,,,,,,,,,,,,,,,,,,,,
,,,,,,,,2023-08-16_08h55.21.854,HF_wild_card,2022.2.4,Win32,59.72645285,646b603e50eda67e0d6780d9,64d2fd46c836a06233681665,64dc7fec0febb1bc1cf75cdb,,,,,,,ctch,resources/DP.BMP,resources/DY.BMP,Door3,-0.346296275,-0.048148155,1,0,0,1.561,optionLeft,70,7510,4,7,0,7,0,1,,,,,,,,,,,,,,,,,,,,,,,,,,,,,,,,,,,,,,,
,,,,,,,,2023-08-16_08h55.21.854,HF_wild_card,2022.2.4,Win32,59.72645285,646b603e50eda67e0d6780d9,64d2fd46c836a06233681665,64dc7fec0febb1bc1cf75cdb,,,,,,,sngl,resources/Empty.png,resources/DBN.BMP,Door1,0.241666653,-0.019444466,1,0,0,1.4121,optionRight,30,7540,4,8,0,8,0,1,,,,,,,,,,,,,,,,,,,,,,,,,,,,,,,,,,,,,,,
,,,,,,,,2023-08-16_08h55.21.854,HF_wild_card,2022.2.4,Win32,59.72645285,646b603e50eda67e0d6780d9,64d2fd46c836a06233681665,64dc7fec0febb1bc1cf75cdb,,,,,,,decisionTrl,resources/DP.BMP,resources/DR.BMP,Door3,-0.331481474,-0.052777785,1,0,0,1.5114,optionLeft,70,7610,4,9,0,9,0,1,,,,,,,,,,,,,,,,,,,,,,,,,,,,,,,,,,,,,,,
,,,,,,,,2023-08-16_08h55.21.854,HF_wild_card,2022.2.4,Win32,59.72645285,646b603e50eda67e0d6780d9,64d2fd46c836a06233681665,64dc7fec0febb1bc1cf75cdb,,,,,,,decisionTrl,resources/DY.BMP,resources/DBN.BMP,Door1,0.248148176,0.003703683,1,0,0,2.3278,optionRight,30,7640,4,10,0,10,0,1,,,,,,,,,,,,,,,,,,,,,,,,,,,,,,,,,,,,,,,
,,,,,,,,2023-08-16_08h55.21.854,HF_wild_card,2022.2.4,Win32,59.72645285,646b603e50eda67e0d6780d9,64d2fd46c836a06233681665,64dc7fec0febb1bc1cf75cdb,,,,,,,decisionTrl,resources/DP.BMP,resources/DR.BMP,Door3,-0.218518504,-0.000925947,1,0,0,1.1938,optionLeft,70,7710,4,11,0,11,0,1,,,,,,,,,,,,,,,,,,,,,,,,,,,,,,,,,,,,,,,
,,,,,,,,2023-08-16_08h55.21.854,HF_wild_card,2022.2.4,Win32,59.72645285,646b603e50eda67e0d6780d9,64d2fd46c836a06233681665,64dc7fec0febb1bc1cf75cdb,,,,,,,decisionTrl,resources/DR.BMP,resources/DP.BMP,Door3,0.344444416,-0.061111132,1,0,0,1.0118,optionRight,70,7780,4,12,0,12,0,1,,,,,,,,,,,,,,,,,,,,,,,,,,,,,,,,,,,,,,,
,,,,,,,,2023-08-16_08h55.21.854,HF_wild_card,2022.2.4,Win32,59.72645285,646b603e50eda67e0d6780d9,64d2fd46c836a06233681665,64dc7fec0febb1bc1cf75cdb,,,,,,,decisionTrl,resources/DR.BMP,resources/DP.BMP,Door3,0.411111196,-0.044444437,1,0,0,0.878,optionRight,70,7850,4,13,0,13,0,1,,,,,,,,,,,,,,,,,,,,,,,,,,,,,,,,,,,,,,,
,,,,,,,,2023-08-16_08h55.21.854,HF_wild_card,2022.2.4,Win32,59.72645285,646b603e50eda67e0d6780d9,64d2fd46c836a06233681665,64dc7fec0febb1bc1cf75cdb,,,,,,,decisionTrl,resources/DBN.BMP,resources/DY.BMP,Door1,-0.253703718,-0.025925919,1,0,0,1.4978,optionLeft,30,7880,4,14,0,14,0,1,,,,,,,,,,,,,,,,,,,,,,,,,,,,,,,,,,,,,,,
,,,,,,,,2023-08-16_08h55.21.854,HF_wild_card,2022.2.4,Win32,59.72645285,646b603e50eda67e0d6780d9,64d2fd46c836a06233681665,64dc7fec0febb1bc1cf75cdb,,,,,,,decisionTrl,resources/DBN.BMP,resources/DY.BMP,Door1,-0.290740755,-0.005555577,1,0,0,1.1625,optionLeft,30,7910,4,15,0,15,0,1,,,,,,,,,,,,,,,,,,,,,,,,,,,,,,,,,,,,,,,
,,,,,,,,2023-08-16_08h55.21.854,HF_wild_card,2022.2.4,Win32,59.72645285,646b603e50eda67e0d6780d9,64d2fd46c836a06233681665,64dc7fec0febb1bc1cf75cdb,,,,,,,decisionTrl,resources/DBN.BMP,resources/DG.BMP,WildCard_Ex,0.434259344,-0.049074067,1,0,0,1.628,optionRight,55,7965,4,16,0,16,0,1,,,,,,,,,,,,,,,,,,,,,,,,,,,,,,,,,,,,,,,
,,,,,,,,2023-08-16_08h55.21.854,HF_wild_card,2022.2.4,Win32,59.72645285,646b603e50eda67e0d6780d9,64d2fd46c836a06233681665,64dc7fec0febb1bc1cf75cdb,,,,,,,decisionTrl,resources/DR.BMP,resources/DG.BMP,Door4,-0.366666653,-0.083333333,1,0,0,1.5119,optionLeft,80,8045,4,17,0,17,0,1,,,,,,,,,,,,,,,,,,,,,,,,,,,,,,,,,,,,,,,
,,,,,,,,2023-08-16_08h55.21.854,HF_wild_card,2022.2.4,Win32,59.72645285,646b603e50eda67e0d6780d9,64d2fd46c836a06233681665,64dc7fec0febb1bc1cf75cdb,,,,,,,sngl,resources/Empty.png,resources/DP.BMP,Door3,0.346296381,-0.001851859,1,0,0,1.1438,optionRight,70,8115,4,18,0,18,0,1,,,,,,,,,,,,,,,,,,,,,,,,,,,,,,,,,,,,,,,
,,,,,,,,2023-08-16_08h55.21.854,HF_wild_card,2022.2.4,Win32,59.72645285,646b603e50eda67e0d6780d9,64d2fd46c836a06233681665,64dc7fec0febb1bc1cf75cdb,,,,,,,decisionTrl,resources/DR.BMP,resources/DP.BMP,Door3,0.27870369,-0.025925919,1,0,0,1.0623,optionRight,70,8185,4,19,0,19,0,1,,,,,,,,,,,,,,,,,,,,,,,,,,,,,,,,,,,,,,,
,,,,,,,,2023-08-16_08h55.21.854,HF_wild_card,2022.2.4,Win32,59.72645285,646b603e50eda67e0d6780d9,64d2fd46c836a06233681665,64dc7fec0febb1bc1cf75cdb,,,,,,,ctch,resources/DBN.BMP,resources/DR.BMP,Door4,0.277777778,-0.019444466,1,0,0,1.295,optionRight,80,8265,4,20,0,20,0,1,,,,,,,,,,,,,,,,,,,,,,,,,,,,,,,,,,,,,,,
,,,,,,,,2023-08-16_08h55.21.854,HF_wild_card,2022.2.4,Win32,59.72645285,646b603e50eda67e0d6780d9,64d2fd46c836a06233681665,64dc7fec0febb1bc1cf75cdb,,,,,,,sngl,resources/DY.BMP,resources/Empty.png,Door2,-0.302777785,-0.0074074,1,0,0,0.8953,optionLeft,20,8285,4,21,0,21,0,1,,,,,,,,,,,,,,,,,,,,,,,,,,,,,,,,,,,,,,,
,,,,,,,,2023-08-16_08h55.21.854,HF_wild_card,2022.2.4,Win32,59.72645285,646b603e50eda67e0d6780d9,64d2fd46c836a06233681665,64dc7fec0febb1bc1cf75cdb,,,,,,,ctch,resources/DY.BMP,resources/DP.BMP,Door3,0.284259302,-0.000925947,1,0,0,1.2289,optionRight,70,8355,4,22,0,22,0,1,,,,,,,,,,,,,,,,,,,,,,,,,,,,,,,,,,,,,,,
,,,,,,,,2023-08-16_08h55.21.854,HF_wild_card,2022.2.4,Win32,59.72645285,646b603e50eda67e0d6780d9,64d2fd46c836a06233681665,64dc7fec0febb1bc1cf75cdb,,,,,,,sngl,resources/DBN.BMP,resources/Empty.png,Door1,-0.27870369,0.010185171,1,0,0,1.8451,optionLeft,30,8385,4,23,0,23,0,1,,,,,,,,,,,,,,,,,,,,,,,,,,,,,,,,,,,,,,,
,,,,,,,,2023-08-16_08h55.21.854,HF_wild_card,2022.2.4,Win32,59.72645285,646b603e50eda67e0d6780d9,64d2fd46c836a06233681665,64dc7fec0febb1bc1cf75cdb,,,,,,,decisionTrl,resources/DP.BMP,resources/DR.BMP,Door3,-0.208333333,-0.050925926,1,0,0,1.4117,optionLeft,70,8455,4,24,0,24,0,1,,,,,,,,,,,,,,,,,,,,,,,,,,,,,,,,,,,,,,,
,,,,,,,,2023-08-16_08h55.21.854,HF_wild_card,2022.2.4,Win32,59.72645285,646b603e50eda67e0d6780d9,64d2fd46c836a06233681665,64dc7fec0febb1bc1cf75cdb,,,,,,,sngl,resources/DG.BMP,resources/Empty.png,WildCard_Ex,-0.297222208,-0.018518519,1,0,0,0.7774,optionLeft,55,8510,4,25,0,25,0,1,,,,,,,,,,,,,,,,,,,,,,,,,,,,,,,,,,,,,,,
,,,,,,,,2023-08-16_08h55.21.854,HF_wild_card,2022.2.4,Win32,59.72645285,646b603e50eda67e0d6780d9,64d2fd46c836a06233681665,64dc7fec0febb1bc1cf75cdb,,,,,,,decisionTrl,resources/DG.BMP,resources/DR.BMP,Door4,0.404629601,0,1,0,0,1.0956,optionRight,60,8570,4,26,0,26,0,1,,,,,,,,,,,,,,,,,,,,,,,,,,,,,,,,,,,,,,,
,,,,,,,,2023-08-16_08h55.21.854,HF_wild_card,2022.2.4,Win32,59.72645285,646b603e50eda67e0d6780d9,64d2fd46c836a06233681665,64dc7fec0febb1bc1cf75cdb,,,,,,,sngl,resources/DR.BMP,resources/Empty.png,Door4,-0.321296303,-0.036111125,1,0,0,0.8118,optionLeft,60,8630,4,27,0,27,0,1,,,,,,,,,,,,,,,,,,,,,,,,,,,,,,,,,,,,,,,
,,,,,,,,2023-08-16_08h55.21.854,HF_wild_card,2022.2.4,Win32,59.72645285,646b603e50eda67e0d6780d9,64d2fd46c836a06233681665,64dc7fec0febb1bc1cf75cdb,,,,,,,ctch,resources/DY.BMP,resources/DP.BMP,Door3,0.303703732,-0.033333355,1,0,0,1.3442,optionRight,70,8700,4,28,0,28,0,1,,,,,,,,,,,,,,,,,,,,,,,,,,,,,,,,,,,,,,,
,,,,,,,,2023-08-16_08h55.21.854,HF_wild_card,2022.2.4,Win32,59.72645285,646b603e50eda67e0d6780d9,64d2fd46c836a06233681665,64dc7fec0febb1bc1cf75cdb,,,,,,,decisionTrl,resources/DY.BMP,resources/DG.BMP,WildCard_Ex,0.320370427,-0.052777785,1,0,0,1.7118,optionRight,45,8745,4,29,0,29,0,1,,,,,,,,,,,,,,,,,,,,,,,,,,,,,,,,,,,,,,,
,,,,,,,,2023-08-16_08h55.21.854,HF_wild_card,2022.2.4,Win32,59.72645285,646b603e50eda67e0d6780d9,64d2fd46c836a06233681665,64dc7fec0febb1bc1cf75cdb,,,,,,,sngl,resources/Empty.png,resources/DR.BMP,Door4,0.378703788,-0.032407407,1,0,0,0.8448,optionRight,80,8825,4,30,0,30,0,1,,,,,,,,,,,,,,,,,,,,,,,,,,,,,,,,,,,,,,,
,,,,,,,,2023-08-16_08h55.21.854,HF_wild_card,2022.2.4,Win32,59.72645285,646b603e50eda67e0d6780d9,64d2fd46c836a06233681665,64dc7fec0febb1bc1cf75cdb,,,,,,,decisionTrl,resources/DBN.BMP,resources/DY.BMP,Door1,-0.300925926,-0.037962984,1,0,0,4.9288,optionLeft,30,8855,4,31,0,31,0,1,,,,,,,,,,,,,,,,,,,,,,,,,,,,,,,,,,,,,,,
,,,,,,,,2023-08-16_08h55.21.854,HF_wild_card,2022.2.4,Win32,59.72645285,646b603e50eda67e0d6780d9,64d2fd46c836a06233681665,64dc7fec0febb1bc1cf75cdb,,,,,,,decisionTrl,resources/DR.BMP,resources/DP.BMP,Door3,0.137962977,-0.046296296,1,0,0,1.2291,optionRight,70,8925,4,32,0,32,0,1,,,,,,,,,,,,,,,,,,,,,,,,,,,,,,,,,,,,,,,
,,,,,,,,2023-08-16_08h55.21.854,HF_wild_card,2022.2.4,Win32,59.72645285,646b603e50eda67e0d6780d9,64d2fd46c836a06233681665,64dc7fec0febb1bc1cf75cdb,,,,,,,decisionTrl,resources/DY.BMP,resources/DBN.BMP,Door1,0.312962991,0.015740748,1,0,0,1.3776,optionRight,30,8955,4,33,0,33,0,1,,,,,,,,,,,,,,,,,,,,,,,,,,,,,,,,,,,,,,,
,,,,,,,,2023-08-16_08h55.21.854,HF_wild_card,2022.2.4,Win32,59.72645285,646b603e50eda67e0d6780d9,64d2fd46c836a06233681665,64dc7fec0febb1bc1cf75cdb,,,,,,,sngl,resources/Empty.png,resources/DG.BMP,WildCard_Ex,0.303703732,-0.025000007,1,0,0,0.8278,optionRight,45,9000,4,34,0,34,0,1,,,,,,,,,,,,,,,,,,,,,,,,,,,,,,,,,,,,,,,
,,,,,,,,2023-08-16_08h55.21.854,HF_wild_card,2022.2.4,Win32,59.72645285,646b603e50eda67e0d6780d9,64d2fd46c836a06233681665,64dc7fec0febb1bc1cf75cdb,,,,,,,decisionTrl,resources/DP.BMP,resources/DG.BMP,Door3,-0.375925912,-0.125925912,1,0,0,1.2287,optionLeft,70,9070,4,35,0,35,0,1,,,,,,,,,,,,,,,,,,,,,,,,,,,,,,,,,,,,,,,
,,,,,,,,2023-08-16_08h55.21.854,HF_wild_card,2022.2.4,Win32,59.72645285,646b603e50eda67e0d6780d9,64d2fd46c836a06233681665,64dc7fec0febb1bc1cf75cdb,,,,,,,sngl,resources/Empty.png,resources/DY.BMP,Door2,0.362037094,-0.001851859,1,0,0,0.9296,optionRight,40,9110,4,36,0,36,0,1,,,,,,,,,,,,,,,,,,,,,,,,,,,,,,,,,,,,,,,
,,,,,,,,2023-08-16_08h55.21.854,HF_wild_card,2022.2.4,Win32,59.72645285,646b603e50eda67e0d6780d9,64d2fd46c836a06233681665,64dc7fec0febb1bc1cf75cdb,,,,,,,sngl,resources/DP.BMP,resources/Empty.png,Door3,-0.277777778,-0.026851866,1,0,0,0.8622,optionLeft,70,9180,4,37,0,37,0,1,,,,,,,,,,,,,,,,,,,,,,,,,,,,,,,,,,,,,,,
,,,,,,,,2023-08-16_08h55.21.854,HF_wild_card,2022.2.4,Win32,59.72645285,646b603e50eda67e0d6780d9,64d2fd46c836a06233681665,64dc7fec0febb1bc1cf75cdb,,,,,,,decisionTrl,resources/DG.BMP,resources/DP.BMP,Door3,0.404629601,-0.018518519,1,0,0,2.2448,optionRight,70,9250,4,38,0,38,0,1,,,,,,,,,,,,,,,,,,,,,,,,,,,,,,,,,,,,,,,
,,,,,,,,2023-08-16_08h55.21.854,HF_wild_card,2022.2.4,Win32,59.72645285,646b603e50eda67e0d6780d9,64d2fd46c836a06233681665,64dc7fec0febb1bc1cf75cdb,,,,,,,ctch,resources/DBN.BMP,resources/DR.BMP,Door4,0.411111196,-0.023148148,1,0,0,1.2778,optionRight,60,9310,4,39,0,39,0,1,,,,,,,,,,,,,,,,,,,,,,,,,,,,,,,,,,,,,,,
,,,,,,,,2023-08-16_08h55.21.854,HF_wild_card,2022.2.4,Win32,59.72645285,646b603e50eda67e0d6780d9,64d2fd46c836a06233681665,64dc7fec0febb1bc1cf75cdb,,,,,,,sngl,resources/DG.BMP,resources/Empty.png,WildCard_Ex,-0.306481467,-0.032407407,1,0,0,0.8444,optionLeft,45,9355,4,40,0,40,0,1,,,,,,,,,,,,,,,,,,,,,,,,,,,,,,,,,,,,,,,
,,,,,,,,2023-08-16_08h55.21.854,HF_wild_card,2022.2.4,Win32,59.72645285,646b603e50eda67e0d6780d9,64d2fd46c836a06233681665,64dc7fec0febb1bc1cf75cdb,,,,,,,decisionTrl,resources/DG.BMP,resources/DY.BMP,WildCard_Ex,-0.167592578,-0.00462963,1,0,0,1.4447,optionLeft,45,9400,4,41,0,41,0,1,,,,,,,,,,,,,,,,,,,,,,,,,,,,,,,,,,,,,,,
,,,,,,,,2023-08-16_08h55.21.854,HF_wild_card,2022.2.4,Win32,59.72645285,646b603e50eda67e0d6780d9,64d2fd46c836a06233681665,64dc7fec0febb1bc1cf75cdb,,,,,,,decisionTrl,resources/DP.BMP,resources/DR.BMP,Door3,-0.277777778,-0.050000014,1,0,0,2.9952,optionLeft,70,9470,4,42,0,42,0,1,,,,,,,,,,,,,,,,,,,,,,,,,,,,,,,,,,,,,,,
,,,,,,,,2023-08-16_08h55.21.854,HF_wild_card,2022.2.4,Win32,59.72645285,646b603e50eda67e0d6780d9,64d2fd46c836a06233681665,64dc7fec0febb1bc1cf75cdb,,,,,,,ctch,resources/DR.BMP,resources/DBN.BMP,Door4,-0.298148155,-0.027777778,1,0,0,1.1617,optionLeft,60,9530,4,43,0,43,0,1,,,,,,,,,,,,,,,,,,,,,,,,,,,,,,,,,,,,,,,
,,,,,,,,2023-08-16_08h55.21.854,HF_wild_card,2022.2.4,Win32,59.72645285,646b603e50eda67e0d6780d9,64d2fd46c836a06233681665,64dc7fec0febb1bc1cf75cdb,,,,,,,,,,,,,,,,,,,,,,,,,,3,0,3,0,1,,,,,,,,,,,,,,,,,,,,,,,,,,,,,,,,,,
,,,,,,,,2023-08-16_08h55.21.854,HF_wild_card,2022.2.4,Win32,59.72645285,646b603e50eda67e0d6780d9,64d2fd46c836a06233681665,64dc7fec0febb1bc1cf75cdb,,,,,,,sngl,resources/DG.BMP,resources/Empty.png,WildCard_Ex,-0.384259259,-0.086111104,1,0,0,1.1584,optionLeft,45,9575,5,0,0,0,0,1,,,,,,,,,,,,,,,,,,,,,,,,,,,,,,,,,,,,,,,
,,,,,,,,2023-08-16_08h55.21.854,HF_wild_card,2022.2.4,Win32,59.72645285,646b603e50eda67e0d6780d9,64d2fd46c836a06233681665,64dc7fec0febb1bc1cf75cdb,,,,,,,ctch,resources/DP.BMP,resources/DY.BMP,Door3,-0.270370342,-0.050925926,1,0,0,1.978,optionLeft,70,9645,5,1,0,1,0,1,,,,,,,,,,,,,,,,,,,,,,,,,,,,,,,,,,,,,,,
,,,,,,,,2023-08-16_08h55.21.854,HF_wild_card,2022.2.4,Win32,59.72645285,646b603e50eda67e0d6780d9,64d2fd46c836a06233681665,64dc7fec0febb1bc1cf75cdb,,,,,,,decisionTrl,resources/DY.BMP,resources/DBN.BMP,Door1,0.362962935,-0.01666666,1,0,0,1.3629,optionRight,30,9675,5,2,0,2,0,1,,,,,,,,,,,,,,,,,,,,,,,,,,,,,,,,,,,,,,,
,,,,,,,,2023-08-16_08h55.21.854,HF_wild_card,2022.2.4,Win32,59.72645285,646b603e50eda67e0d6780d9,64d2fd46c836a06233681665,64dc7fec0febb1bc1cf75cdb,,,,,,,decisionTrl,resources/DBN.BMP,resources/DY.BMP,Door1,-0.220370328,-0.030555548,1,0,0,1.2773,optionLeft,30,9705,5,3,0,3,0,1,,,,,,,,,,,,,,,,,,,,,,,,,,,,,,,,,,,,,,,
,,,,,,,,2023-08-16_08h55.21.854,HF_wild_card,2022.2.4,Win32,59.72645285,646b603e50eda67e0d6780d9,64d2fd46c836a06233681665,64dc7fec0febb1bc1cf75cdb,,,,,,,ctch,resources/DP.BMP,resources/DY.BMP,Door3,-0.317592586,-0.022222236,1,0,0,0.9276,optionLeft,70,9775,5,4,0,4,0,1,,,,,,,,,,,,,,,,,,,,,,,,,,,,,,,,,,,,,,,
,,,,,,,,2023-08-16_08h55.21.854,HF_wild_card,2022.2.4,Win32,59.72645285,646b603e50eda67e0d6780d9,64d2fd46c836a06233681665,64dc7fec0febb1bc1cf75cdb,,,,,,,decisionTrl,resources/DBN.BMP,resources/DY.BMP,Door1,-0.360185164,-0.018518519,1,0,0,1.4617,optionLeft,30,9805,5,5,0,5,0,1,,,,,,,,,,,,,,,,,,,,,,,,,,,,,,,,,,,,,,,
,,,,,,,,2023-08-16_08h55.21.854,HF_wild_card,2022.2.4,Win32,59.72645285,646b603e50eda67e0d6780d9,64d2fd46c836a06233681665,64dc7fec0febb1bc1cf75cdb,,,,,,,decisionTrl,resources/DG.BMP,resources/DP.BMP,Door3,0.354629658,0.011111118,1,0,0,1.2117,optionRight,70,9875,5,6,0,6,0,1,,,,,,,,,,,,,,,,,,,,,,,,,,,,,,,,,,,,,,,
,,,,,,,,2023-08-16_08h55.21.854,HF_wild_card,2022.2.4,Win32,59.72645285,646b603e50eda67e0d6780d9,64d2fd46c836a06233681665,64dc7fec0febb1bc1cf75cdb,,,,,,,decisionTrl,resources/DR.BMP,resources/DP.BMP,Door3,0.37037037,-0.062037044,1,0,0,4.2789,optionRight,70,9945,5,7,0,7,0,1,,,,,,,,,,,,,,,,,,,,,,,,,,,,,,,,,,,,,,,
,,,,,,,,2023-08-16_08h55.21.854,HF_wild_card,2022.2.4,Win32,59.72645285,646b603e50eda67e0d6780d9,64d2fd46c836a06233681665,64dc7fec0febb1bc1cf75cdb,,,,,,,ctch,resources/DBN.BMP,resources/DR.BMP,Door4,0.369444529,-0.027777778,1,0,0,0.8961,optionRight,60,10005,5,8,0,8,0,1,,,,,,,,,,,,,,,,,,,,,,,,,,,,,,,,,,,,,,,
,,,,,,,,2023-08-16_08h55.21.854,HF_wild_card,2022.2.4,Win32,59.72645285,646b603e50eda67e0d6780d9,64d2fd46c836a06233681665,64dc7fec0febb1bc1cf75cdb,,,,,,,ctch,resources/DY.BMP,resources/DP.BMP,Door3,0.353703675,-0.026851866,1,0,0,0.9454,optionRight,70,10075,5,9,0,9,0,1,,,,,,,,,,,,,,,,,,,,,,,,,,,,,,,,,,,,,,,
,,,,,,,,2023-08-16_08h55.21.854,HF_wild_card,2022.2.4,Win32,59.72645285,646b603e50eda67e0d6780d9,64d2fd46c836a06233681665,64dc7fec0febb1bc1cf75cdb,,,,,,,decisionTrl,resources/DBN.BMP,resources/DY.BMP,Door1,-0.228703675,-0.030555548,1,0,0,5.8621,optionLeft,30,10105,5,10,0,10,0,1,,,,,,,,,,,,,,,,,,,,,,,,,,,,,,,,,,,,,,,
,,,,,,,,2023-08-16_08h55.21.854,HF_wild_card,2022.2.4,Win32,59.72645285,646b603e50eda67e0d6780d9,64d2fd46c836a06233681665,64dc7fec0febb1bc1cf75cdb,,,,,,,decisionTrl,resources/DR.BMP,resources/DG.BMP,Door4,-0.259259259,0.01666666,1,0,0,1.1779,optionLeft,60,10165,5,11,0,11,0,1,,,,,,,,,,,,,,,,,,,,,,,,,,,,,,,,,,,,,,,
,,,,,,,,2023-08-16_08h55.21.854,HF_wild_card,2022.2.4,Win32,59.72645285,646b603e50eda67e0d6780d9,64d2fd46c836a06233681665,64dc7fec0febb1bc1cf75cdb,,,,,,,decisionTrl,resources/DP.BMP,resources/DR.BMP,Door3,-0.251851824,-0.079629651,1,0,0,1.3766,optionLeft,70,10235,5,12,0,12,0,1,,,,,,,,,,,,,,,,,,,,,,,,,,,,,,,,,,,,,,,
,,,,,,,,2023-08-16_08h55.21.854,HF_wild_card,2022.2.4,Win32,59.72645285,646b603e50eda67e0d6780d9,64d2fd46c836a06233681665,64dc7fec0febb1bc1cf75cdb,,,,,,,decisionTrl,resources/DY.BMP,resources/DBN.BMP,Door1,0.26944443,-0.021296289,1,0,0,1.828,optionRight,30,10265,5,13,0,13,0,1,,,,,,,,,,,,,,,,,,,,,,,,,,,,,,,,,,,,,,,
,,,,,,,,2023-08-16_08h55.21.854,HF_wild_card,2022.2.4,Win32,59.72645285,646b603e50eda67e0d6780d9,64d2fd46c836a06233681665,64dc7fec0febb1bc1cf75cdb,,,,,,,decisionTrl,resources/DP.BMP,resources/DG.BMP,Door3,-0.260185171,-0.078703704,1,0,0,1.1291,optionLeft,70,10335,5,14,0,14,0,1,,,,,,,,,,,,,,,,,,,,,,,,,,,,,,,,,,,,,,,
,,,,,,,,2023-08-16_08h55.21.854,HF_wild_card,2022.2.4,Win32,59.72645285,646b603e50eda67e0d6780d9,64d2fd46c836a06233681665,64dc7fec0febb1bc1cf75cdb,,,,,,,sngl,resources/Empty.png,resources/DP.BMP,Door3,0.266666695,-0.000925947,1,0,0,0.7619,optionRight,70,10405,5,15,0,15,0,1,,,,,,,,,,,,,,,,,,,,,,,,,,,,,,,,,,,,,,,
,,,,,,,,2023-08-16_08h55.21.854,HF_wild_card,2022.2.4,Win32,59.72645285,646b603e50eda67e0d6780d9,64d2fd46c836a06233681665,64dc7fec0febb1bc1cf75cdb,,,,,,,decisionTrl,resources/DY.BMP,resources/DBN.BMP,Door1,0.236111111,-0.005555577,1,0,0,1.6618,optionRight,30,10435,5,16,0,16,0,1,,,,,,,,,,,,,,,,,,,,,,,,,,,,,,,,,,,,,,,
,,,,,,,,2023-08-16_08h55.21.854,HF_wild_card,2022.2.4,Win32,59.72645285,646b603e50eda67e0d6780d9,64d2fd46c836a06233681665,64dc7fec0febb1bc1cf75cdb,,,,,,,sngl,resources/DY.BMP,resources/Empty.png,Door2,-0.205555527,-0.003703718,1,0,0,0.812,optionLeft,40,10475,5,17,0,17,0,1,,,,,,,,,,,,,,,,,,,,,,,,,,,,,,,,,,,,,,,
,,,,,,,,2023-08-16_08h55.21.854,HF_wild_card,2022.2.4,Win32,59.72645285,646b603e50eda67e0d6780d9,64d2fd46c836a06233681665,64dc7fec0febb1bc1cf75cdb,,,,,,,decisionTrl,resources/DY.BMP,resources/DG.BMP,WildCard_Ex,0.327777863,-0.046296296,1,0,0,0.7944,optionRight,55,10530,5,18,0,18,0,1,,,,,,,,,,,,,,,,,,,,,,,,,,,,,,,,,,,,,,,
,,,,,,,,2023-08-16_08h55.21.854,HF_wild_card,2022.2.4,Win32,59.72645285,646b603e50eda67e0d6780d9,64d2fd46c836a06233681665,64dc7fec0febb1bc1cf75cdb,,,,,,,decisionTrl,resources/DP.BMP,resources/DR.BMP,Door3,-0.299999979,-0.070370392,1,0,0,1.1609,optionLeft,70,10600,5,19,0,19,0,1,,,,,,,,,,,,,,,,,,,,,,,,,,,,,,,,,,,,,,,
,,,,,,,,2023-08-16_08h55.21.854,HF_wild_card,2022.2.4,Win32,59.72645285,646b603e50eda67e0d6780d9,64d2fd46c836a06233681665,64dc7fec0febb1bc1cf75cdb,,,,,,,sngl,resources/Empty.png,resources/DBN.BMP,Door1,0.216666681,0.003703683,1,0,0,0.7949,optionRight,30,10630,5,20,0,20,0,1,,,,,,,,,,,,,,,,,,,,,,,,,,,,,,,,,,,,,,,
,,,,,,,,2023-08-16_08h55.21.854,HF_wild_card,2022.2.4,Win32,59.72645285,646b603e50eda67e0d6780d9,64d2fd46c836a06233681665,64dc7fec0febb1bc1cf75cdb,,,,,,,ctch,resources/DY.BMP,resources/DP.BMP,Door3,0.26944443,0.009259259,1,0,0,1.878,optionRight,70,10700,5,21,0,21,0,1,,,,,,,,,,,,,,,,,,,,,,,,,,,,,,,,,,,,,,,
,,,,,,,,2023-08-16_08h55.21.854,HF_wild_card,2022.2.4,Win32,59.72645285,646b603e50eda67e0d6780d9,64d2fd46c836a06233681665,64dc7fec0febb1bc1cf75cdb,,,,,,,decisionTrl,resources/DP.BMP,resources/DR.BMP,Door3,-0.232407393,-0.043518526,1,0,0,0.878,optionLeft,70,10770,5,22,0,22,0,1,,,,,,,,,,,,,,,,,,,,,,,,,,,,,,,,,,,,,,,
,,,,,,,,2023-08-16_08h55.21.854,HF_wild_card,2022.2.4,Win32,59.72645285,646b603e50eda67e0d6780d9,64d2fd46c836a06233681665,64dc7fec0febb1bc1cf75cdb,,,,,,,sngl,resources/Empty.png,resources/DG.BMP,WildCard_Ex,0.284259302,-0.032407407,1,0,0,0.8786,optionRight,55,10825,5,23,0,23,0,1,,,,,,,,,,,,,,,,,,,,,,,,,,,,,,,,,,,,,,,
,,,,,,,,2023-08-16_08h55.21.854,HF_wild_card,2022.2.4,Win32,59.72645285,646b603e50eda67e0d6780d9,64d2fd46c836a06233681665,64dc7fec0febb1bc1cf75cdb,,,,,,,decisionTrl,resources/DY.BMP,resources/DBN.BMP,Door1,0.316666638,-0.006481489,1,0,0,1.7614,optionRight,30,10855,5,24,0,24,0,1,,,,,,,,,,,,,,,,,,,,,,,,,,,,,,,,,,,,,,,
,,,,,,,,2023-08-16_08h55.21.854,HF_wild_card,2022.2.4,Win32,59.72645285,646b603e50eda67e0d6780d9,64d2fd46c836a06233681665,64dc7fec0febb1bc1cf75cdb,,,,,,,decisionTrl,resources/DG.BMP,resources/DR.BMP,Door4,0.417592649,-0.059259273,1,0,0,1.2286,optionRight,60,10915,5,25,0,25,0,1,,,,,,,,,,,,,,,,,,,,,,,,,,,,,,,,,,,,,,,
,,,,,,,,2023-08-16_08h55.21.854,HF_wild_card,2022.2.4,Win32,59.72645285,646b603e50eda67e0d6780d9,64d2fd46c836a06233681665,64dc7fec0febb1bc1cf75cdb,,,,,,,sngl,resources/Empty.png,resources/DR.BMP,Door4,0.285185213,-0.040740755,1,0,0,1.0291,optionRight,60,10975,5,26,0,26,0,1,,,,,,,,,,,,,,,,,,,,,,,,,,,,,,,,,,,,,,,
,,,,,,,,2023-08-16_08h55.21.854,HF_wild_card,2022.2.4,Win32,59.72645285,646b603e50eda67e0d6780d9,64d2fd46c836a06233681665,64dc7fec0febb1bc1cf75cdb,,,,,,,ctch,resources/DR.BMP,resources/DBN.BMP,Door4,-0.385185171,-0.025000007,1,0,0,1.1952,optionLeft,80,11055,5,27,0,27,0,1,,,,,,,,,,,,,,,,,,,,,,,,,,,,,,,,,,,,,,,
,,,,,,,,2023-08-16_08h55.21.854,HF_wild_card,2022.2.4,Win32,59.72645285,646b603e50eda67e0d6780d9,64d2fd46c836a06233681665,64dc7fec0febb1bc1cf75cdb,,,,,,,ctch,resources/DBN.BMP,resources/DR.BMP,Door4,0.258333347,-0.047222243,1,0,0,2.1785,optionRight,80,11135,5,28,0,28,0,1,,,,,,,,,,,,,,,,,,,,,,,,,,,,,,,,,,,,,,,
,,,,,,,,2023-08-16_08h55.21.854,HF_wild_card,2022.2.4,Win32,59.72645285,646b603e50eda67e0d6780d9,64d2fd46c836a06233681665,64dc7fec0febb1bc1cf75cdb,,,,,,,decisionTrl,resources/DP.BMP,resources/DR.BMP,Door3,-0.280555513,-0.093518504,1,0,0,1.9279,optionLeft,70,11205,5,29,0,29,0,1,,,,,,,,,,,,,,,,,,,,,,,,,,,,,,,,,,,,,,,
,,,,,,,,2023-08-16_08h55.21.854,HF_wild_card,2022.2.4,Win32,59.72645285,646b603e50eda67e0d6780d9,64d2fd46c836a06233681665,64dc7fec0febb1bc1cf75cdb,,,,,,,decisionTrl,resources/DBN.BMP,resources/DY.BMP,Door1,-0.35833334,-0.025925919,1,0,0,1.4956,optionLeft,30,11235,5,30,0,30,0,1,,,,,,,,,,,,,,,,,,,,,,,,,,,,,,,,,,,,,,,
,,,,,,,,2023-08-16_08h55.21.854,HF_wild_card,2022.2.4,Win32,59.72645285,646b603e50eda67e0d6780d9,64d2fd46c836a06233681665,64dc7fec0febb1bc1cf75cdb,,,,,,,sngl,resources/DP.BMP,resources/Empty.png,Door3,-0.27870369,-0.060185185,1,0,0,0.7115,optionLeft,70,11305,5,31,0,31,0,1,,,,,,,,,,,,,,,,,,,,,,,,,,,,,,,,,,,,,,,
,,,,,,,,2023-08-16_08h55.21.854,HF_wild_card,2022.2.4,Win32,59.72645285,646b603e50eda67e0d6780d9,64d2fd46c836a06233681665,64dc7fec0febb1bc1cf75cdb,,,,,,,sngl,resources/Empty.png,resources/DY.BMP,Door2,0.271296325,-0.032407407,1,0,0,0.7605,optionRight,20,11325,5,32,0,32,0,1,,,,,,,,,,,,,,,,,,,,,,,,,,,,,,,,,,,,,,,
,,,,,,,,2023-08-16_08h55.21.854,HF_wild_card,2022.2.4,Win32,59.72645285,646b603e50eda67e0d6780d9,64d2fd46c836a06233681665,64dc7fec0febb1bc1cf75cdb,,,,,,,decisionTrl,resources/DBN.BMP,resources/DG.BMP,WildCard_Ex,0.292592578,-0.00462963,1,0,0,0.9283,optionRight,55,11380,5,33,0,33,0,1,,,,,,,,,,,,,,,,,,,,,,,,,,,,,,,,,,,,,,,
,,,,,,,,2023-08-16_08h55.21.854,HF_wild_card,2022.2.4,Win32,59.72645285,646b603e50eda67e0d6780d9,64d2fd46c836a06233681665,64dc7fec0febb1bc1cf75cdb,,,,,,,decisionTrl,resources/DR.BMP,resources/DP.BMP,Door4,-0.439814815,-0.050000014,1,0,0,1.1448,optionLeft,80,11460,5,34,0,34,0,1,,,,,,,,,,,,,,,,,,,,,,,,,,,,,,,,,,,,,,,
,,,,,,,,2023-08-16_08h55.21.854,HF_wild_card,2022.2.4,Win32,59.72645285,646b603e50eda67e0d6780d9,64d2fd46c836a06233681665,64dc7fec0febb1bc1cf75cdb,,,,,,,sngl,resources/Empty.png,resources/DG.BMP,WildCard_Ex,0.335185157,-0.01666666,1,0,0,0.7613,optionRight,45,11505,5,35,0,35,0,1,,,,,,,,,,,,,,,,,,,,,,,,,,,,,,,,,,,,,,,
,,,,,,,,2023-08-16_08h55.21.854,HF_wild_card,2022.2.4,Win32,59.72645285,646b603e50eda67e0d6780d9,64d2fd46c836a06233681665,64dc7fec0febb1bc1cf75cdb,,,,,,,decisionTrl,resources/DR.BMP,resources/DP.BMP,Door3,0.342592593,-0.021296289,1,0,0,0.7287,optionRight,70,11575,5,36,0,36,0,1,,,,,,,,,,,,,,,,,,,,,,,,,,,,,,,,,,,,,,,
,,,,,,,,2023-08-16_08h55.21.854,HF_wild_card,2022.2.4,Win32,59.72645285,646b603e50eda67e0d6780d9,64d2fd46c836a06233681665,64dc7fec0febb1bc1cf75cdb,,,,,,,decisionTrl,resources/DG.BMP,resources/DBN.BMP,WildCard_Ex,-0.258333347,-0.058333326,1,0,0,1.1445,optionLeft,45,11620,5,37,0,37,0,1,,,,,,,,,,,,,,,,,,,,,,,,,,,,,,,,,,,,,,,
,,,,,,,,2023-08-16_08h55.21.854,HF_wild_card,2022.2.4,Win32,59.72645285,646b603e50eda67e0d6780d9,64d2fd46c836a06233681665,64dc7fec0febb1bc1cf75cdb,,,,,,,ctch,resources/DR.BMP,resources/DBN.BMP,Door4,-0.287962949,-0.025000007,1,0,0,1.1793,optionLeft,60,11680,5,38,0,38,0,1,,,,,,,,,,,,,,,,,,,,,,,,,,,,,,,,,,,,,,,
,,,,,,,,2023-08-16_08h55.21.854,HF_wild_card,2022.2.4,Win32,59.72645285,646b603e50eda67e0d6780d9,64d2fd46c836a06233681665,64dc7fec0febb1bc1cf75cdb,,,,,,,sngl,resources/DG.BMP,resources/Empty.png,WildCard_Ex,-0.255555541,-0.037962984,1,0,0,0.7786,optionLeft,55,11735,5,39,0,39,0,1,,,,,,,,,,,,,,,,,,,,,,,,,,,,,,,,,,,,,,,
,,,,,,,,2023-08-16_08h55.21.854,HF_wild_card,2022.2.4,Win32,59.72645285,646b603e50eda67e0d6780d9,64d2fd46c836a06233681665,64dc7fec0febb1bc1cf75cdb,,,,,,,sngl,resources/DBN.BMP,resources/Empty.png,Door1,-0.317592586,-0.057407414,1,0,0,0.8788,optionLeft,30,11765,5,40,0,40,0,1,,,,,,,,,,,,,,,,,,,,,,,,,,,,,,,,,,,,,,,
,,,,,,,,2023-08-16_08h55.21.854,HF_wild_card,2022.2.4,Win32,59.72645285,646b603e50eda67e0d6780d9,64d2fd46c836a06233681665,64dc7fec0febb1bc1cf75cdb,,,,,,,decisionTrl,resources/DR.BMP,resources/DP.BMP,Door3,0.453703704,-0.019444466,1,0,0,1.6785,optionRight,70,11835,5,41,0,41,0,1,,,,,,,,,,,,,,,,,,,,,,,,,,,,,,,,,,,,,,,
,,,,,,,,2023-08-16_08h55.21.854,HF_wild_card,2022.2.4,Win32,59.72645285,646b603e50eda67e0d6780d9,64d2fd46c836a06233681665,64dc7fec0febb1bc1cf75cdb,,,,,,,sngl,resources/DR.BMP,resources/Empty.png,Door4,-0.276851866,-0.050000014,1,0,0,0.7295,optionLeft,80,11915,5,42,0,42,0,1,,,,,,,,,,,,,,,,,,,,,,,,,,,,,,,,,,,,,,,
,,,,,,,,2023-08-16_08h55.21.854,HF_wild_card,2022.2.4,Win32,59.72645285,646b603e50eda67e0d6780d9,64d2fd46c836a06233681665,64dc7fec0febb1bc1cf75cdb,,,,,,,decisionTrl,resources/DG.BMP,resources/DY.BMP,WildCard_Ex,-0.357407393,-0.104629658,1,0,0,1.4788,optionLeft,45,11960,5,43,0,43,0,1,,,,,,,,,,,,,,,,,,,,,,,,,,,,,,,,,,,,,,,
,,,,,,,,2023-08-16_08h55.21.854,HF_wild_card,2022.2.4,Win32,59.72645285,646b603e50eda67e0d6780d9,64d2fd46c836a06233681665,64dc7fec0febb1bc1cf75cdb,,,,,,,,,,,,,,,,,,,,,,,,,,4,0,4,0,1,,,,,,,,,,,,,,,,,,,,,,,,,,,,,,,,,,
,,,,,,,,2023-08-16_08h55.21.854,HF_wild_card,2022.2.4,Win32,59.72645285,646b603e50eda67e0d6780d9,64d2fd46c836a06233681665,64dc7fec0febb1bc1cf75cdb,,,,,,,decisionTrl,resources/DP.BMP,resources/DR.BMP,Door3,-0.432407414,-0.167592578,1,0,0,1.2365,optionLeft,70,12030,6,0,0,0,0,1,,,,,,,,,,,,,,,,,,,,,,,,,,,,,,,,,,,,,,,
,,,,,,,,2023-08-16_08h55.21.854,HF_wild_card,2022.2.4,Win32,59.72645285,646b603e50eda67e0d6780d9,64d2fd46c836a06233681665,64dc7fec0febb1bc1cf75cdb,,,,,,,decisionTrl,resources/DBN.BMP,resources/DG.BMP,WildCard_Ex,0.346296381,-0.051851873,1,0,0,1.3776,optionRight,55,12085,6,1,0,1,0,1,,,,,,,,,,,,,,,,,,,,,,,,,,,,,,,,,,,,,,,
,,,,,,,,2023-08-16_08h55.21.854,HF_wild_card,2022.2.4,Win32,59.72645285,646b603e50eda67e0d6780d9,64d2fd46c836a06233681665,64dc7fec0febb1bc1cf75cdb,,,,,,,sngl,resources/Empty.png,resources/DG.BMP,WildCard_Ex,0.335185157,-0.026851866,1,0,0,0.796,optionRight,45,12130,6,2,0,2,0,1,,,,,,,,,,,,,,,,,,,,,,,,,,,,,,,,,,,,,,,
,,,,,,,,2023-08-16_08h55.21.854,HF_wild_card,2022.2.4,Win32,59.72645285,646b603e50eda67e0d6780d9,64d2fd46c836a06233681665,64dc7fec0febb1bc1cf75cdb,,,,,,,decisionTrl,resources/DG.BMP,resources/DY.BMP,WildCard_Ex,-0.323148127,-0.069444444,1,0,0,1.2623,optionLeft,55,12185,6,3,0,3,0,1,,,,,,,,,,,,,,,,,,,,,,,,,,,,,,,,,,,,,,,
,,,,,,,,2023-08-16_08h55.21.854,HF_wild_card,2022.2.4,Win32,59.72645285,646b603e50eda67e0d6780d9,64d2fd46c836a06233681665,64dc7fec0febb1bc1cf75cdb,,,,,,,ctch,resources/DR.BMP,resources/DBN.BMP,Door4,-0.331481474,-0.039814808,1,0,0,0.9603,optionLeft,60,12245,6,4,0,4,0,1,,,,,,,,,,,,,,,,,,,,,,,,,,,,,,,,,,,,,,,
,,,,,,,,2023-08-16_08h55.21.854,HF_wild_card,2022.2.4,Win32,59.72645285,646b603e50eda67e0d6780d9,64d2fd46c836a06233681665,64dc7fec0febb1bc1cf75cdb,,,,,,,sngl,resources/DR.BMP,resources/Empty.png,Door4,-0.313888868,-0.009259259,1,0,0,0.9954,optionLeft,60,12305,6,5,0,5,0,1,,,,,,,,,,,,,,,,,,,,,,,,,,,,,,,,,,,,,,,
,,,,,,,,2023-08-16_08h55.21.854,HF_wild_card,2022.2.4,Win32,59.72645285,646b603e50eda67e0d6780d9,64d2fd46c836a06233681665,64dc7fec0febb1bc1cf75cdb,,,,,,,decisionTrl,resources/DY.BMP,resources/DG.BMP,WildCard_Ex,0.40370376,-0.025000007,1,0,0,3.8443,optionRight,45,12350,6,6,0,6,0,1,,,,,,,,,,,,,,,,,,,,,,,,,,,,,,,,,,,,,,,
,,,,,,,,2023-08-16_08h55.21.854,HF_wild_card,2022.2.4,Win32,59.72645285,646b603e50eda67e0d6780d9,64d2fd46c836a06233681665,64dc7fec0febb1bc1cf75cdb,,,,,,,decisionTrl,resources/DG.BMP,resources/DP.BMP,WildCard_Ex,-0.281481496,-0.028703725,1,0,0,0.7786,optionLeft,45,12395,6,7,0,7,0,1,,,,,,,,,,,,,,,,,,,,,,,,,,,,,,,,,,,,,,,
,,,,,,,,2023-08-16_08h55.21.854,HF_wild_card,2022.2.4,Win32,59.72645285,646b603e50eda67e0d6780d9,64d2fd46c836a06233681665,64dc7fec0febb1bc1cf75cdb,,,,,,,decisionTrl,resources/DP.BMP,resources/DR.BMP,Door3,-0.372222229,-0.078703704,1,0,0,0.8615,optionLeft,70,12465,6,8,0,8,0,1,,,,,,,,,,,,,,,,,,,,,,,,,,,,,,,,,,,,,,,
,,,,,,,,2023-08-16_08h55.21.854,HF_wild_card,2022.2.4,Win32,59.72645285,646b603e50eda67e0d6780d9,64d2fd46c836a06233681665,64dc7fec0febb1bc1cf75cdb,,,,,,,decisionTrl,resources/DBN.BMP,resources/DY.BMP,Door1,-0.216666681,-0.022222236,1,0,0,3.3117,optionLeft,30,12495,6,9,0,9,0,1,,,,,,,,,,,,,,,,,,,,,,,,,,,,,,,,,,,,,,,
,,,,,,,,2023-08-16_08h55.21.854,HF_wild_card,2022.2.4,Win32,59.72645285,646b603e50eda67e0d6780d9,64d2fd46c836a06233681665,64dc7fec0febb1bc1cf75cdb,,,,,,,decisionTrl,resources/DY.BMP,resources/DBN.BMP,Door1,0.284259302,0.0074074,1,0,0,1.0786,optionRight,30,12525,6,10,0,10,0,1,,,,,,,,,,,,,,,,,,,,,,,,,,,,,,,,,,,,,,,
,,,,,,,,2023-08-16_08h55.21.854,HF_wild_card,2022.2.4,Win32,59.72645285,646b603e50eda67e0d6780d9,64d2fd46c836a06233681665,64dc7fec0febb1bc1cf75cdb,,,,,,,ctch,resources/DP.BMP,resources/DY.BMP,Door3,-0.285185143,-0.039814808,1,0,0,1.0793,optionLeft,70,12595,6,11,0,11,0,1,,,,,,,,,,,,,,,,,,,,,,,,,,,,,,,,,,,,,,,
,,,,,,,,2023-08-16_08h55.21.854,HF_wild_card,2022.2.4,Win32,59.72645285,646b603e50eda67e0d6780d9,64d2fd46c836a06233681665,64dc7fec0febb1bc1cf75cdb,,,,,,,decisionTrl,resources/DP.BMP,resources/DG.BMP,Door3,-0.366666653,-0.063888903,1,0,0,0.9289,optionLeft,70,12665,6,12,0,12,0,1,,,,,,,,,,,,,,,,,,,,,,,,,,,,,,,,,,,,,,,
,,,,,,,,2023-08-16_08h55.21.854,HF_wild_card,2022.2.4,Win32,59.72645285,646b603e50eda67e0d6780d9,64d2fd46c836a06233681665,64dc7fec0febb1bc1cf75cdb,,,,,,,ctch,resources/DY.BMP,resources/DP.BMP,Door3,0.374074159,-0.059259273,1,0,0,1.1452,optionRight,70,12735,6,13,0,13,0,1,,,,,,,,,,,,,,,,,,,,,,,,,,,,,,,,,,,,,,,
,,,,,,,,2023-08-16_08h55.21.854,HF_wild_card,2022.2.4,Win32,59.72645285,646b603e50eda67e0d6780d9,64d2fd46c836a06233681665,64dc7fec0febb1bc1cf75cdb,,,,,,,sngl,resources/DBN.BMP,resources/Empty.png,Door1,-0.473148134,-0.074074074,1,0,0,0.7784,optionLeft,30,12765,6,14,0,14,0,1,,,,,,,,,,,,,,,,,,,,,,,,,,,,,,,,,,,,,,,
,,,,,,,,2023-08-16_08h55.21.854,HF_wild_card,2022.2.4,Win32,59.72645285,646b603e50eda67e0d6780d9,64d2fd46c836a06233681665,64dc7fec0febb1bc1cf75cdb,,,,,,,decisionTrl,resources/DBN.BMP,resources/DY.BMP,Door1,-0.313888868,-0.098148134,1,0,0,1.9627,optionLeft,30,12795,6,15,0,15,0,1,,,,,,,,,,,,,,,,,,,,,,,,,,,,,,,,,,,,,,,
,,,,,,,,2023-08-16_08h55.21.854,HF_wild_card,2022.2.4,Win32,59.72645285,646b603e50eda67e0d6780d9,64d2fd46c836a06233681665,64dc7fec0febb1bc1cf75cdb,,,,,,,ctch,resources/DR.BMP,resources/DBN.BMP,Door4,-0.349999993,-0.01203703,1,0,0,0.9622,optionLeft,60,12855,6,16,0,16,0,1,,,,,,,,,,,,,,,,,,,,,,,,,,,,,,,,,,,,,,,
,,,,,,,,2023-08-16_08h55.21.854,HF_wild_card,2022.2.4,Win32,59.72645285,646b603e50eda67e0d6780d9,64d2fd46c836a06233681665,64dc7fec0febb1bc1cf75cdb,,,,,,,decisionTrl,resources/DG.BMP,resources/DR.BMP,Door4,0.318518603,-0.020370377,1,0,0,3.5432,optionRight,80,12935,6,17,0,17,0,1,,,,,,,,,,,,,,,,,,,,,,,,,,,,,,,,,,,,,,,
,,,,,,,,2023-08-16_08h55.21.854,HF_wild_card,2022.2.4,Win32,59.72645285,646b603e50eda67e0d6780d9,64d2fd46c836a06233681665,64dc7fec0febb1bc1cf75cdb,,,,,,,decisionTrl,resources/DBN.BMP,resources/DY.BMP,Door1,-0.198148162,0.005555541,1,0,0,4.9112,optionLeft,30,12965,6,18,0,18,0,1,,,,,,,,,,,,,,,,,,,,,,,,,,,,,,,,,,,,,,,
,,,,,,,,2023-08-16_08h55.21.854,HF_wild_card,2022.2.4,Win32,59.72645285,646b603e50eda67e0d6780d9,64d2fd46c836a06233681665,64dc7fec0febb1bc1cf75cdb,,,,,,,ctch,resources/DBN.BMP,resources/DR.BMP,Door4,0.236111111,-0.019444466,1,0,0,3.9453,optionRight,80,13045,6,19,0,19,0,1,,,,,,,,,,,,,,,,,,,,,,,,,,,,,,,,,,,,,,,
,,,,,,,,2023-08-16_08h55.21.854,HF_wild_card,2022.2.4,Win32,59.72645285,646b603e50eda67e0d6780d9,64d2fd46c836a06233681665,64dc7fec0febb1bc1cf75cdb,,,,,,,decisionTrl,resources/DP.BMP,resources/DR.BMP,Door3,-0.354629623,-0.041666667,1,0,0,0.8955,optionLeft,70,13115,6,20,0,20,0,1,,,,,,,,,,,,,,,,,,,,,,,,,,,,,,,,,,,,,,,
,,,,,,,,2023-08-16_08h55.21.854,HF_wild_card,2022.2.4,Win32,59.72645285,646b603e50eda67e0d6780d9,64d2fd46c836a06233681665,64dc7fec0febb1bc1cf75cdb,,,,,,,ctch,resources/DP.BMP,resources/DY.BMP,Door3,-0.380555541,-0.032407407,1,0,0,0.9627,optionLeft,70,13185,6,21,0,21,0,1,,,,,,,,,,,,,,,,,,,,,,,,,,,,,,,,,,,,,,,
,,,,,,,,2023-08-16_08h55.21.854,HF_wild_card,2022.2.4,Win32,59.72645285,646b603e50eda67e0d6780d9,64d2fd46c836a06233681665,64dc7fec0febb1bc1cf75cdb,,,,,,,sngl,resources/DY.BMP,resources/Empty.png,Door2,-0.295370384,-0.017592607,1,0,0,0.8798,optionLeft,20,13205,6,22,0,22,0,1,,,,,,,,,,,,,,,,,,,,,,,,,,,,,,,,,,,,,,,
,,,,,,,,2023-08-16_08h55.21.854,HF_wild_card,2022.2.4,Win32,59.72645285,646b603e50eda67e0d6780d9,64d2fd46c836a06233681665,64dc7fec0febb1bc1cf75cdb,,,,,,,ctch,resources/DY.BMP,resources/DP.BMP,Door3,0.315740797,-0.050925926,1,0,0,1.0127,optionRight,70,13275,6,23,0,23,0,1,,,,,,,,,,,,,,,,,,,,,,,,,,,,,,,,,,,,,,,
,,,,,,,,2023-08-16_08h55.21.854,HF_wild_card,2022.2.4,Win32,59.72645285,646b603e50eda67e0d6780d9,64d2fd46c836a06233681665,64dc7fec0febb1bc1cf75cdb,,,,,,,sngl,resources/DP.BMP,resources/Empty.png,Door3,-0.338888875,-0.077777792,1,0,0,0.7116,optionLeft,70,13345,6,24,0,24,0,1,,,,,,,,,,,,,,,,,,,,,,,,,,,,,,,,,,,,,,,
,,,,,,,,2023-08-16_08h55.21.854,HF_wild_card,2022.2.4,Win32,59.72645285,646b603e50eda67e0d6780d9,64d2fd46c836a06233681665,64dc7fec0febb1bc1cf75cdb,,,,,,,sngl,resources/DG.BMP,resources/Empty.png,WildCard_Ex,-0.312962956,-0.070370392,1,0,0,0.7455,optionLeft,55,13400,6,25,0,25,0,1,,,,,,,,,,,,,,,,,,,,,,,,,,,,,,,,,,,,,,,
,,,,,,,,2023-08-16_08h55.21.854,HF_wild_card,2022.2.4,Win32,59.72645285,646b603e50eda67e0d6780d9,64d2fd46c836a06233681665,64dc7fec0febb1bc1cf75cdb,,,,,,,decisionTrl,resources/DR.BMP,resources/DP.BMP,Door3,0.396296325,0.014814801,1,0,0,1.1745,optionRight,70,13470,6,26,0,26,0,1,,,,,,,,,,,,,,,,,,,,,,,,,,,,,,,,,,,,,,,
,,,,,,,,2023-08-16_08h55.21.854,HF_wild_card,2022.2.4,Win32,59.72645285,646b603e50eda67e0d6780d9,64d2fd46c836a06233681665,64dc7fec0febb1bc1cf75cdb,,,,,,,ctch,resources/DBN.BMP,resources/DR.BMP,Door4,0.341666751,-0.0074074,1,0,0,0.8781,optionRight,60,13530,6,27,0,27,0,1,,,,,,,,,,,,,,,,,,,,,,,,,,,,,,,,,,,,,,,
,,,,,,,,2023-08-16_08h55.21.854,HF_wild_card,2022.2.4,Win32,59.72645285,646b603e50eda67e0d6780d9,64d2fd46c836a06233681665,64dc7fec0febb1bc1cf75cdb,,,,,,,decisionTrl,resources/DR.BMP,resources/DP.BMP,Door3,0.330555527,-0.026851866,1,0,0,0.8809,optionRight,70,13600,6,28,0,28,0,1,,,,,,,,,,,,,,,,,,,,,,,,,,,,,,,,,,,,,,,
,,,,,,,,2023-08-16_08h55.21.854,HF_wild_card,2022.2.4,Win32,59.72645285,646b603e50eda67e0d6780d9,64d2fd46c836a06233681665,64dc7fec0febb1bc1cf75cdb,,,,,,,sngl,resources/Empty.png,resources/DR.BMP,Door4,0.299074102,-0.022222236,1,0,0,0.7793,optionRight,80,13680,6,29,0,29,0,1,,,,,,,,,,,,,,,,,,,,,,,,,,,,,,,,,,,,,,,
,,,,,,,,2023-08-16_08h55.21.854,HF_wild_card,2022.2.4,Win32,59.72645285,646b603e50eda67e0d6780d9,64d2fd46c836a06233681665,64dc7fec0febb1bc1cf75cdb,,,,,,,sngl,resources/Empty.png,resources/DG.BMP,WildCard_Ex,0.318518603,-0.008333347,1,0,0,0.7949,optionRight,55,13735,6,30,0,30,0,1,,,,,,,,,,,,,,,,,,,,,,,,,,,,,,,,,,,,,,,
,,,,,,,,2023-08-16_08h55.21.854,HF_wild_card,2022.2.4,Win32,59.72645285,646b603e50eda67e0d6780d9,64d2fd46c836a06233681665,64dc7fec0febb1bc1cf75cdb,,,,,,,decisionTrl,resources/DP.BMP,resources/DR.BMP,Door3,-0.412962949,-0.060185185,1,0,0,2.3622,optionLeft,70,13805,6,31,0,31,0,1,,,,,,,,,,,,,,,,,,,,,,,,,,,,,,,,,,,,,,,
,,,,,,,,2023-08-16_08h55.21.854,HF_wild_card,2022.2.4,Win32,59.72645285,646b603e50eda67e0d6780d9,64d2fd46c836a06233681665,64dc7fec0febb1bc1cf75cdb,,,,,,,sngl,resources/DG.BMP,resources/Empty.png,WildCard_Ex,-0.312037044,-0.038888896,1,0,0,0.6964,optionLeft,45,13850,6,32,0,32,0,1,,,,,,,,,,,,,,,,,,,,,,,,,,,,,,,,,,,,,,,
,,,,,,,,2023-08-16_08h55.21.854,HF_wild_card,2022.2.4,Win32,59.72645285,646b603e50eda67e0d6780d9,64d2fd46c836a06233681665,64dc7fec0febb1bc1cf75cdb,,,,,,,sngl,resources/Empty.png,resources/DP.BMP,Door3,0.393518519,-0.013888889,1,0,0,0.7794,optionRight,70,13920,6,33,0,33,0,1,,,,,,,,,,,,,,,,,,,,,,,,,,,,,,,,,,,,,,,
,,,,,,,,2023-08-16_08h55.21.854,HF_wild_card,2022.2.4,Win32,59.72645285,646b603e50eda67e0d6780d9,64d2fd46c836a06233681665,64dc7fec0febb1bc1cf75cdb,,,,,,,decisionTrl,resources/DR.BMP,resources/DG.BMP,Door4,-0.257407365,-0.082407422,1,0,0,1.1788,optionLeft,80,14000,6,34,0,34,0,1,,,,,,,,,,,,,,,,,,,,,,,,,,,,,,,,,,,,,,,
,,,,,,,,2023-08-16_08h55.21.854,HF_wild_card,2022.2.4,Win32,59.72645285,646b603e50eda67e0d6780d9,64d2fd46c836a06233681665,64dc7fec0febb1bc1cf75cdb,,,,,,,decisionTrl,resources/DG.BMP,resources/DBN.BMP,WildCard_Ex,-0.337037016,-0.060185185,1,0,0,1.8947,optionLeft,45,14045,6,35,0,35,0,1,,,,,,,,,,,,,,,,,,,,,,,,,,,,,,,,,,,,,,,
,,,,,,,,2023-08-16_08h55.21.854,HF_wild_card,2022.2.4,Win32,59.72645285,646b603e50eda67e0d6780d9,64d2fd46c836a06233681665,64dc7fec0febb1bc1cf75cdb,,,,,,,sngl,resources/Empty.png,resources/DY.BMP,Door2,0.397222307,-0.009259259,1,0,0,0.7458,optionRight,40,14085,6,36,0,36,0,1,,,,,,,,,,,,,,,,,,,,,,,,,,,,,,,,,,,,,,,
,,,,,,,,2023-08-16_08h55.21.854,HF_wild_card,2022.2.4,Win32,59.72645285,646b603e50eda67e0d6780d9,64d2fd46c836a06233681665,64dc7fec0febb1bc1cf75cdb,,,,,,,decisionTrl,resources/DBN.BMP,resources/DY.BMP,Door1,-0.366666653,-0.106481481,1,0,0,2.5786,optionLeft,30,14115,6,37,0,37,0,1,,,,,,,,,,,,,,,,,,,,,,,,,,,,,,,,,,,,,,,
,,,,,,,,2023-08-16_08h55.21.854,HF_wild_card,2022.2.4,Win32,59.72645285,646b603e50eda67e0d6780d9,64d2fd46c836a06233681665,64dc7fec0febb1bc1cf75cdb,,,,,,,decisionTrl,resources/DR.BMP,resources/DP.BMP,Door3,0.290740755,-0.023148148,1,0,0,2.3954,optionRight,70,14185,6,38,0,38,0,1,,,,,,,,,,,,,,,,,,,,,,,,,,,,,,,,,,,,,,,
,,,,,,,,2023-08-16_08h55.21.854,HF_wild_card,2022.2.4,Win32,59.72645285,646b603e50eda67e0d6780d9,64d2fd46c836a06233681665,64dc7fec0febb1bc1cf75cdb,,,,,,,decisionTrl,resources/DY.BMP,resources/DBN.BMP,Door1,0.199074074,0.002777771,1,0,0,1.7286,optionRight,30,14215,6,39,0,39,0,1,,,,,,,,,,,,,,,,,,,,,,,,,,,,,,,,,,,,,,,
,,,,,,,,2023-08-16_08h55.21.854,HF_wild_card,2022.2.4,Win32,59.72645285,646b603e50eda67e0d6780d9,64d2fd46c836a06233681665,64dc7fec0febb1bc1cf75cdb,,,,,,,decisionTrl,resources/DY.BMP,resources/DBN.BMP,Door1,0.259259259,-0.01203703,1,0,0,1.3123,optionRight,30,14245,6,40,0,40,0,1,,,,,,,,,,,,,,,,,,,,,,,,,,,,,,,,,,,,,,,
,,,,,,,,2023-08-16_08h55.21.854,HF_wild_card,2022.2.4,Win32,59.72645285,646b603e50eda67e0d6780d9,64d2fd46c836a06233681665,64dc7fec0febb1bc1cf75cdb,,,,,,,decisionTrl,resources/DY.BMP,resources/DBN.BMP,Door1,0.27407406,-0.037962984,1,0,0,0.8127,optionRight,30,14275,6,41,0,41,0,1,,,,,,,,,,,,,,,,,,,,,,,,,,,,,,,,,,,,,,,
,,,,,,,,2023-08-16_08h55.21.854,HF_wild_card,2022.2.4,Win32,59.72645285,646b603e50eda67e0d6780d9,64d2fd46c836a06233681665,64dc7fec0febb1bc1cf75cdb,,,,,,,sngl,resources/Empty.png,resources/DBN.BMP,Door1,0.291666667,0,1,0,0,0.7946,optionRight,30,14305,6,42,0,42,0,1,,,,,,,,,,,,,,,,,,,,,,,,,,,,,,,,,,,,,,,
,,,,,,,,2023-08-16_08h55.21.854,HF_wild_card,2022.2.4,Win32,59.72645285,646b603e50eda67e0d6780d9,64d2fd46c836a06233681665,64dc7fec0febb1bc1cf75cdb,,,,,,,decisionTrl,resources/DR.BMP,resources/DP.BMP,Door3,0.318518603,-0.034259266,1,0,0,1.362,optionRight,70,14375,6,43,0,43,0,1,,,,,,,,,,,,,,,,,,,,,,,,,,,,,,,,,,,,,,,
,,,,,,,,2023-08-16_08h55.21.854,HF_wild_card,2022.2.4,Win32,59.72645285,646b603e50eda67e0d6780d9,64d2fd46c836a06233681665,64dc7fec0febb1bc1cf75cdb,,,,,,,,,,,,,,,,,,,,,,,,,,5,0,5,0,1,,,,,,,,,,,,,,,,,,,,,,,,,,,,,,,,,,
,,,,,,,,2023-08-16_08h55.21.854,HF_wild_card,2022.2.4,Win32,59.72645285,646b603e50eda67e0d6780d9,64d2fd46c836a06233681665,64dc7fec0febb1bc1cf75cdb,,,,,,,decisionTrl,resources/DR.BMP,resources/DP.BMP,Door3,0.436111168,-0.012962977,1,0,0,1.4395,optionRight,70,14445,7,0,0,0,0,1,,,,,,,,,,,,,,,,,,,,,,,,,,,,,,,,,,,,,,,
,,,,,,,,2023-08-16_08h55.21.854,HF_wild_card,2022.2.4,Win32,59.72645285,646b603e50eda67e0d6780d9,64d2fd46c836a06233681665,64dc7fec0febb1bc1cf75cdb,,,,,,,decisionTrl,resources/DBN.BMP,resources/DY.BMP,Door1,-0.295370384,0.003703683,1,0,0,3.4139,optionLeft,30,14475,7,1,0,1,0,1,,,,,,,,,,,,,,,,,,,,,,,,,,,,,,,,,,,,,,,
,,,,,,,,2023-08-16_08h55.21.854,HF_wild_card,2022.2.4,Win32,59.72645285,646b603e50eda67e0d6780d9,64d2fd46c836a06233681665,64dc7fec0febb1bc1cf75cdb,,,,,,,ctch,resources/DR.BMP,resources/DBN.BMP,Door4,-0.309259238,-0.013888889,1,0,0,0.831,optionLeft,80,14555,7,2,0,2,0,1,,,,,,,,,,,,,,,,,,,,,,,,,,,,,,,,,,,,,,,
,,,,,,,,2023-08-16_08h55.21.854,HF_wild_card,2022.2.4,Win32,59.72645285,646b603e50eda67e0d6780d9,64d2fd46c836a06233681665,64dc7fec0febb1bc1cf75cdb,,,,,,,ctch,resources/DY.BMP,resources/DP.BMP,Door3,0.305555556,-0.045370384,1,0,0,0.9474,optionRight,70,14625,7,3,0,3,0,1,,,,,,,,,,,,,,,,,,,,,,,,,,,,,,,,,,,,,,,
,,,,,,,,2023-08-16_08h55.21.854,HF_wild_card,2022.2.4,Win32,59.72645285,646b603e50eda67e0d6780d9,64d2fd46c836a06233681665,64dc7fec0febb1bc1cf75cdb,,,,,,,decisionTrl,resources/DP.BMP,resources/DR.BMP,Door3,-0.209259245,-0.045370384,1,0,0,1.1978,optionLeft,70,14695,7,4,0,4,0,1,,,,,,,,,,,,,,,,,,,,,,,,,,,,,,,,,,,,,,,
,,,,,,,,2023-08-16_08h55.21.854,HF_wild_card,2022.2.4,Win32,59.72645285,646b603e50eda67e0d6780d9,64d2fd46c836a06233681665,64dc7fec0febb1bc1cf75cdb,,,,,,,decisionTrl,resources/DBN.BMP,resources/DY.BMP,Door1,-0.39444443,0.0074074,1,0,0,1.6949,optionLeft,30,14725,7,5,0,5,0,1,,,,,,,,,,,,,,,,,,,,,,,,,,,,,,,,,,,,,,,
,,,,,,,,2023-08-16_08h55.21.854,HF_wild_card,2022.2.4,Win32,59.72645285,646b603e50eda67e0d6780d9,64d2fd46c836a06233681665,64dc7fec0febb1bc1cf75cdb,,,,,,,decisionTrl,resources/DBN.BMP,resources/DY.BMP,Door1,-0.212962963,0.002777771,1,0,0,1.7477,optionLeft,30,14755,7,6,0,6,0,1,,,,,,,,,,,,,,,,,,,,,,,,,,,,,,,,,,,,,,,
,,,,,,,,2023-08-16_08h55.21.854,HF_wild_card,2022.2.4,Win32,59.72645285,646b603e50eda67e0d6780d9,64d2fd46c836a06233681665,64dc7fec0febb1bc1cf75cdb,,,,,,,ctch,resources/DY.BMP,resources/DP.BMP,Door3,0.26944443,-0.048148155,1,0,0,0.815,optionRight,70,14825,7,7,0,7,0,1,,,,,,,,,,,,,,,,,,,,,,,,,,,,,,,,,,,,,,,
,,,,,,,,2023-08-16_08h55.21.854,HF_wild_card,2022.2.4,Win32,59.72645285,646b603e50eda67e0d6780d9,64d2fd46c836a06233681665,64dc7fec0febb1bc1cf75cdb,,,,,,,decisionTrl,resources/DBN.BMP,resources/DY.BMP,Door1,-0.264814801,-0.024074095,1,0,0,1.18,optionLeft,30,14855,7,8,0,8,0,1,,,,,,,,,,,,,,,,,,,,,,,,,,,,,,,,,,,,,,,
,,,,,,,,2023-08-16_08h55.21.854,HF_wild_card,2022.2.4,Win32,59.72645285,646b603e50eda67e0d6780d9,64d2fd46c836a06233681665,64dc7fec0febb1bc1cf75cdb,,,,,,,ctch,resources/DP.BMP,resources/DY.BMP,Door3,-0.217592593,-0.097222222,1,0,0,1.6145,optionLeft,70,14925,7,9,0,9,0,1,,,,,,,,,,,,,,,,,,,,,,,,,,,,,,,,,,,,,,,
,,,,,,,,2023-08-16_08h55.21.854,HF_wild_card,2022.2.4,Win32,59.72645285,646b603e50eda67e0d6780d9,64d2fd46c836a06233681665,64dc7fec0febb1bc1cf75cdb,,,,,,,decisionTrl,resources/DY.BMP,resources/DBN.BMP,Door1,0.226851852,-0.075000021,1,0,0,1.0298,optionRight,30,14955,7,10,0,10,0,1,,,,,,,,,,,,,,,,,,,,,,,,,,,,,,,,,,,,,,,
,,,,,,,,2023-08-16_08h55.21.854,HF_wild_card,2022.2.4,Win32,59.72645285,646b603e50eda67e0d6780d9,64d2fd46c836a06233681665,64dc7fec0febb1bc1cf75cdb,,,,,,,decisionTrl,resources/DP.BMP,resources/DR.BMP,Door3,-0.383333312,-0.124074088,1,0,0,0.7807,optionLeft,70,15025,7,11,0,11,0,1,,,,,,,,,,,,,,,,,,,,,,,,,,,,,,,,,,,,,,,
,,,,,,,,2023-08-16_08h55.21.854,HF_wild_card,2022.2.4,Win32,59.72645285,646b603e50eda67e0d6780d9,64d2fd46c836a06233681665,64dc7fec0febb1bc1cf75cdb,,,,,,,decisionTrl,resources/DY.BMP,resources/DBN.BMP,Door1,0.273148148,-0.040740755,1,0,0,3.396,optionRight,30,15055,7,12,0,12,0,1,,,,,,,,,,,,,,,,,,,,,,,,,,,,,,,,,,,,,,,
,,,,,,,,2023-08-16_08h55.21.854,HF_wild_card,2022.2.4,Win32,59.72645285,646b603e50eda67e0d6780d9,64d2fd46c836a06233681665,64dc7fec0febb1bc1cf75cdb,,,,,,,decisionTrl,resources/DP.BMP,resources/DR.BMP,Door3,-0.287037037,-0.041666667,1,0,0,0.8639,optionLeft,70,15125,7,13,0,13,0,1,,,,,,,,,,,,,,,,,,,,,,,,,,,,,,,,,,,,,,,
,,,,,,,,2023-08-16_08h55.21.854,HF_wild_card,2022.2.4,Win32,59.72645285,646b603e50eda67e0d6780d9,64d2fd46c836a06233681665,64dc7fec0febb1bc1cf75cdb,,,,,,,decisionTrl,resources/DP.BMP,resources/DR.BMP,Door3,-0.158333319,-0.039814808,1,0,0,0.8624,optionLeft,70,15195,7,14,0,14,0,1,,,,,,,,,,,,,,,,,,,,,,,,,,,,,,,,,,,,,,,
,,,,,,,,2023-08-16_08h55.21.854,HF_wild_card,2022.2.4,Win32,59.72645285,646b603e50eda67e0d6780d9,64d2fd46c836a06233681665,64dc7fec0febb1bc1cf75cdb,,,,,,,decisionTrl,resources/DY.BMP,resources/DBN.BMP,Door1,0.368518547,-0.059259273,1,0,0,1.1975,optionRight,30,15225,7,15,0,15,0,1,,,,,,,,,,,,,,,,,,,,,,,,,,,,,,,,,,,,,,,
,,,,,,,,2023-08-16_08h55.21.854,HF_wild_card,2022.2.4,Win32,59.72645285,646b603e50eda67e0d6780d9,64d2fd46c836a06233681665,64dc7fec0febb1bc1cf75cdb,,,,,,,decisionTrl,resources/DY.BMP,resources/DBN.BMP,Door1,0.29814812,-0.028703725,1,0,0,0.7642,optionRight,30,15255,7,16,0,16,0,1,,,,,,,,,,,,,,,,,,,,,,,,,,,,,,,,,,,,,,,
,,,,,,,,2023-08-16_08h55.21.854,HF_wild_card,2022.2.4,Win32,59.72645285,646b603e50eda67e0d6780d9,64d2fd46c836a06233681665,64dc7fec0febb1bc1cf75cdb,,,,,,,ctch,resources/DP.BMP,resources/DY.BMP,Door3,-0.37962963,-0.034259266,1,0,0,1.4649,optionLeft,70,15325,7,17,0,17,0,1,,,,,,,,,,,,,,,,,,,,,,,,,,,,,,,,,,,,,,,
,,,,,,,,2023-08-16_08h55.21.854,HF_wild_card,2022.2.4,Win32,59.72645285,646b603e50eda67e0d6780d9,64d2fd46c836a06233681665,64dc7fec0febb1bc1cf75cdb,,,,,,,decisionTrl,resources/DY.BMP,resources/DBN.BMP,Door1,0.312037009,-0.078703704,1,0,0,1.0144,optionRight,30,15355,7,18,0,18,0,1,,,,,,,,,,,,,,,,,,,,,,,,,,,,,,,,,,,,,,,
,,,,,,,,2023-08-16_08h55.21.854,HF_wild_card,2022.2.4,Win32,59.72645285,646b603e50eda67e0d6780d9,64d2fd46c836a06233681665,64dc7fec0febb1bc1cf75cdb,,,,,,,ctch,resources/DP.BMP,resources/DY.BMP,Door3,-0.246296282,-0.059259273,1,0,0,0.7469,optionLeft,70,15425,7,19,0,19,0,1,,,,,,,,,,,,,,,,,,,,,,,,,,,,,,,,,,,,,,,
,,,,,,,,2023-08-16_08h55.21.854,HF_wild_card,2022.2.4,Win32,59.72645285,646b603e50eda67e0d6780d9,64d2fd46c836a06233681665,64dc7fec0febb1bc1cf75cdb,,,,,,,ctch,resources/DBN.BMP,resources/DR.BMP,Door4,0.441666638,-0.059259273,1,0,0,0.8627,optionRight,80,15505,7,20,0,20,0,1,,,,,,,,,,,,,,,,,,,,,,,,,,,,,,,,,,,,,,,
,,,,,,,,2023-08-16_08h55.21.854,HF_wild_card,2022.2.4,Win32,59.72645285,646b603e50eda67e0d6780d9,64d2fd46c836a06233681665,64dc7fec0febb1bc1cf75cdb,,,,,,,decisionTrl,resources/DR.BMP,resources/DP.BMP,Door3,0.232407393,-0.054629644,1,0,0,1.0469,optionRight,70,15575,7,21,0,21,0,1,,,,,,,,,,,,,,,,,,,,,,,,,,,,,,,,,,,,,,,
,,,,,,,,2023-08-16_08h55.21.854,HF_wild_card,2022.2.4,Win32,59.72645285,646b603e50eda67e0d6780d9,64d2fd46c836a06233681665,64dc7fec0febb1bc1cf75cdb,,,,,,,ctch,resources/DBN.BMP,resources/DR.BMP,Door4,0.320370427,-0.029629637,1,0,0,0.9152,optionRight,60,15635,7,22,0,22,0,1,,,,,,,,,,,,,,,,,,,,,,,,,,,,,,,,,,,,,,,
,,,,,,,,2023-08-16_08h55.21.854,HF_wild_card,2022.2.4,Win32,59.72645285,646b603e50eda67e0d6780d9,64d2fd46c836a06233681665,64dc7fec0febb1bc1cf75cdb,,,,,,,ctch,resources/DBN.BMP,resources/DR.BMP,Door4,0.339814787,-0.060185185,1,0,0,0.6645,optionRight,80,15715,7,23,0,23,0,1,,,,,,,,,,,,,,,,,,,,,,,,,,,,,,,,,,,,,,,
,,,,,,,,2023-08-16_08h55.21.854,HF_wild_card,2022.2.4,Win32,59.72645285,646b603e50eda67e0d6780d9,64d2fd46c836a06233681665,64dc7fec0febb1bc1cf75cdb,,,,,,,decisionTrl,resources/DP.BMP,resources/DR.BMP,Door3,-0.359259252,-0.014814836,1,0,0,0.7965,optionLeft,70,15785,7,24,0,24,0,1,,,,,,,,,,,,,,,,,,,,,,,,,,,,,,,,,,,,,,,
,,,,,,,,2023-08-16_08h55.21.854,HF_wild_card,2022.2.4,Win32,59.72645285,646b603e50eda67e0d6780d9,64d2fd46c836a06233681665,64dc7fec0febb1bc1cf75cdb,,,,,,,decisionTrl,resources/DY.BMP,resources/DBN.BMP,Door1,0.332407492,-0.017592607,1,0,0,1.8476,optionRight,30,15815,7,25,0,25,0,1,,,,,,,,,,,,,,,,,,,,,,,,,,,,,,,,,,,,,,,
,,,,,,,,2023-08-16_08h55.21.854,HF_wild_card,2022.2.4,Win32,59.72645285,646b603e50eda67e0d6780d9,64d2fd46c836a06233681665,64dc7fec0febb1bc1cf75cdb,,,,,,,decisionTrl,resources/DR.BMP,resources/DP.BMP,Door3,0.315740797,-0.033333355,1,0,0,1.7141,optionRight,70,15885,7,26,0,26,0,1,,,,,,,,,,,,,,,,,,,,,,,,,,,,,,,,,,,,,,,
,,,,,,,,2023-08-16_08h55.21.854,HF_wild_card,2022.2.4,Win32,59.72645285,646b603e50eda67e0d6780d9,64d2fd46c836a06233681665,64dc7fec0febb1bc1cf75cdb,,,,,,,ctch,resources/DR.BMP,resources/DBN.BMP,Door4,-0.268518519,-0.022222236,1,0,0,2.6306,optionLeft,60,15945,7,27,0,27,0,1,,,,,,,,,,,,,,,,,,,,,,,,,,,,,,,,,,,,,,,
,,,,,,,,2023-08-16_08h55.21.854,HF_wild_card,2022.2.4,Win32,59.72645285,646b603e50eda67e0d6780d9,64d2fd46c836a06233681665,64dc7fec0febb1bc1cf75cdb,,,,,,,decisionTrl,resources/DBN.BMP,resources/DY.BMP,Door1,-0.324074074,-0.0074074,1,0,0,1.4626,optionLeft,30,15975,7,28,0,28,0,1,,,,,,,,,,,,,,,,,,,,,,,,,,,,,,,,,,,,,,,
,,,,,,,,2023-08-16_08h55.21.854,HF_wild_card,2022.2.4,Win32,59.72645285,646b603e50eda67e0d6780d9,64d2fd46c836a06233681665,64dc7fec0febb1bc1cf75cdb,,,,,,,decisionTrl,resources/DR.BMP,resources/DP.BMP,Door3,0.25,-0.061111132,1,0,0,1.4142,optionRight,70,16045,7,29,0,29,0,1,,,,,,,,,,,,,,,,,,,,,,,,,,,,,,,,,,,,,,,
,,,,,,,,2023-08-16_08h55.21.854,HF_wild_card,2022.2.4,Win32,59.72645285,646b603e50eda67e0d6780d9,64d2fd46c836a06233681665,64dc7fec0febb1bc1cf75cdb,,,,,,,decisionTrl,resources/DP.BMP,resources/DR.BMP,Door3,-0.330555563,-0.038888896,1,0,0,0.9486,optionLeft,70,16115,7,30,0,30,0,1,,,,,,,,,,,,,,,,,,,,,,,,,,,,,,,,,,,,,,,
,,,,,,,,2023-08-16_08h55.21.854,HF_wild_card,2022.2.4,Win32,59.72645285,646b603e50eda67e0d6780d9,64d2fd46c836a06233681665,64dc7fec0febb1bc1cf75cdb,,,,,,,decisionTrl,resources/DR.BMP,resources/DP.BMP,Door3,0.347222222,-0.053703697,1,0,0,0.9144,optionRight,70,16185,7,31,0,31,0,1,,,,,,,,,,,,,,,,,,,,,,,,,,,,,,,,,,,,,,,
,,,,,,,,2023-08-16_08h55.21.854,HF_wild_card,2022.2.4,Win32,59.72645285,646b603e50eda67e0d6780d9,64d2fd46c836a06233681665,64dc7fec0febb1bc1cf75cdb,,,,,,,ctch,resources/DY.BMP,resources/DP.BMP,Door3,0.251851894,-0.037962984,1,0,0,0.8813,optionRight,70,16255,7,32,0,32,0,1,,,,,,,,,,,,,,,,,,,,,,,,,,,,,,,,,,,,,,,
,,,,,,,,2023-08-16_08h55.21.854,HF_wild_card,2022.2.4,Win32,59.72645285,646b603e50eda67e0d6780d9,64d2fd46c836a06233681665,64dc7fec0febb1bc1cf75cdb,,,,,,,ctch,resources/DR.BMP,resources/DBN.BMP,Door4,-0.342592593,-0.064814815,1,0,0,1.2315,optionLeft,80,16335,7,33,0,33,0,1,,,,,,,,,,,,,,,,,,,,,,,,,,,,,,,,,,,,,,,
,,,,,,,,2023-08-16_08h55.21.854,HF_wild_card,2022.2.4,Win32,59.72645285,646b603e50eda67e0d6780d9,64d2fd46c836a06233681665,64dc7fec0febb1bc1cf75cdb,,,,,,,decisionTrl,resources/DR.BMP,resources/DP.BMP,Door3,0.41851849,-0.050000014,1,0,0,0.8972,optionRight,70,16405,7,34,0,34,0,1,,,,,,,,,,,,,,,,,,,,,,,,,,,,,,,,,,,,,,,
,,,,,,,,2023-08-16_08h55.21.854,HF_wild_card,2022.2.4,Win32,59.72645285,646b603e50eda67e0d6780d9,64d2fd46c836a06233681665,64dc7fec0febb1bc1cf75cdb,,,,,,,decisionTrl,resources/DBN.BMP,resources/DY.BMP,Door1,-0.240740741,-0.061111132,1,0,0,1.6806,optionLeft,30,16435,7,35,0,35,0,1,,,,,,,,,,,,,,,,,,,,,,,,,,,,,,,,,,,,,,,
,,,,,,,,2023-08-16_08h55.21.854,HF_wild_card,2022.2.4,Win32,59.72645285,646b603e50eda67e0d6780d9,64d2fd46c836a06233681665,64dc7fec0febb1bc1cf75cdb,,,,,,,,,,,,,,,,,,,,,,,,,,6,0,6,0,1,,,,,,,,,,,,,,,,,,,,,,,,,,,,,,,,,,
,,,,,,,,2023-08-16_08h55.21.854,HF_wild_card,2022.2.4,Win32,59.72645285,646b603e50eda67e0d6780d9,64d2fd46c836a06233681665,64dc7fec0febb1bc1cf75cdb,,,,,,,,,,,,,,,,,,,,,,,,,,,,,,,4,,,,,,,,,,,,,,,,,,,,,,,,,,,,,,,,,
,,,,,,,,2023-08-16_08h55.21.854,HF_wild_card,2022.2.4,Win32,59.72645285,646b603e50eda67e0d6780d9,64d2fd46c836a06233681665,64dc7fec0febb1bc1cf75cdb,,,,,,,,,,,,,,,,,,,,,,,,,,,,,,,,,,,,,,,,,,,,,,,,,,,,,,,,,,,,,,,,
,,,,,,,,2023-08-16_08h55.21.854,HF_wild_card,2022.2.4,Win32,59.72645285,646b603e50eda67e0d6780d9,64d2fd46c836a06233681665,64dc7fec0febb1bc1cf75cdb,,,,,,,,,,,,,,,,,,,,,,,,,,,,,,,,20,Door2,resources/DY.BMP,0,0,0,0,1,,,,,,,,,,,,,,,,,,,,,,,,,
,,,,,,,,2023-08-16_08h55.21.854,HF_wild_card,2022.2.4,Win32,59.72645285,646b603e50eda67e0d6780d9,64d2fd46c836a06233681665,64dc7fec0febb1bc1cf75cdb,,,,,,,,,,,,,,,,,,,,,,,,,,,,,,,,30,Door1,resources/DBN.BMP,1,0,1,0,1,,,,,,,,,,,,,,,,,,,,,,,,,
,,,,,,,,2023-08-16_08h55.21.854,HF_wild_card,2022.2.4,Win32,59.72645285,646b603e50eda67e0d6780d9,64d2fd46c836a06233681665,64dc7fec0febb1bc1cf75cdb,,,,,,,,,,,,,,,,,,,,,,,,,,,,,,,,45,WC_extreme,resources/DG.BMP,2,0,2,0,1,,,,,,,,,,,,,,,,,,,,,,,,,
,,,,,,,,2023-08-16_08h55.21.854,HF_wild_card,2022.2.4,Win32,59.72645285,646b603e50eda67e0d6780d9,64d2fd46c836a06233681665,64dc7fec0febb1bc1cf75cdb,,,,,,,,,,,,,,,,,,,,,,,,,,,,,,,,60,Door4,resources/DR.BMP,3,0,3,0,1,,,,,,,,,,,,,,,,,,,,,,,,,
,,,,,,,,2023-08-16_08h55.21.854,HF_wild_card,2022.2.4,Win32,59.72645285,646b603e50eda67e0d6780d9,64d2fd46c836a06233681665,64dc7fec0febb1bc1cf75cdb,,,,,,,,,,,,,,,,,,,,,,,,,,,,,,,,70,Door3,resources/DP.BMP,4,0,4,0,1,,,,,,,,,,,,,,,,,,,,,,,,,
,,,,,,,,2023-08-16_08h55.21.854,HF_wild_card,2022.2.4,Win32,59.72645285,646b603e50eda67e0d6780d9,64d2fd46c836a06233681665,64dc7fec0febb1bc1cf75cdb,,,,,,,,,,,,,,,,,,,,,,,,,,,,,,,,45,WC_nonExtreme,resources/DB.BMP,5,0,5,0,1,,,,,,,,,,,,,,,,,,,,,,,,,
,,,,,,,,2023-08-16_08h55.21.854,HF_wild_card,2022.2.4,Win32,59.72645285,646b603e50eda67e0d6780d9,64d2fd46c836a06233681665,64dc7fec0febb1bc1cf75cdb,,,,,,,,,,,,,,,,,,,,,,,,,,,,,,,,,,,,,,,,,,,,,,,,,,,,,,,,,,,,,,,,
