Condition,Low fixed image (Door1),Low risky image (Door2),High fixed image (Door3),High risky image (Door4),Extreme Wild Card,NonExtreme Wild Card,,date,expName,psychopyVersion,OS,frameRate,PROLIFIC_PID,STUDY_ID,SESSION_ID,mouse_2.x,mouse_2.y,mouse_2.leftButton,mouse_2.midButton,mouse_2.rightButton,mouse_2.clicked_name,Trial Type,Left Option Image,Right Option Image,Chosen Door,mouse.x,mouse.y,mouse.leftButton,mouse.midButton,mouse.rightButton,mouse.time,mouse.clicked_name,Feedback,Cumulative Reward,Block,trial.thisRepN,trial.thisTrialN,trial.thisN,trial.thisIndex,trial.ran,blocks.thisRepN,blocks.thisTrialN,blocks.thisN,blocks.thisIndex,blocks.ran,Money conversion,First Outcome Reported,Shown Door (First Outcome),Displayed Image (First Outcome),outcomes.thisRepN,outcomes.thisTrialN,outcomes.thisN,outcomes.thisIndex,outcomes.ran,judgments.thisRepN,judgments.thisTrialN,judgments.thisN,judgments.thisIndex,judgments.ran,freqMouse.x,freqMouse.y,freqMouse.leftButton,freqMouse.midButton,freqMouse.rightButton,freqMouse.clicked_name,FQJ for first outcome,FQJ for second outcome,Shown Door,Displayed Image,trials.thisRepN,trials.thisTrialN,trials.thisN,trials.thisIndex,trials.ran,judgBlock.thisRepN,judgBlock.thisTrialN,judgBlock.thisN,judgBlock.thisIndex,judgBlock.ran
1,resources/DBN.BMP,resources/DP.BMP,resources/DY.BMP,resources/DR.BMP,resources/DG.BMP,resources/DB.BMP,,2023-08-16_08h38.16.592,HF_wild_card,2022.2.4,Win32,59.9880024,642b1c83e9a71c3d81d75b19,64d2fd46c836a06233681665,64dc7b4894becfe9b1f75cb8,,,,,,,,,,,,,,,,,,,,,,,,,,,,,,,,,,,,,,,,,,,,,,,,,,,,,,,,,,,,,,,,
,,,,,,,,2023-08-16_08h38.16.592,HF_wild_card,2022.2.4,Win32,59.9880024,642b1c83e9a71c3d81d75b19,64d2fd46c836a06233681665,64dc7b4894becfe9b1f75cb8,0.013888889,-0.412962949,1,0,0,agree,,,,,,,,,,,,,,,,,,,,,,,,,,,,,,,,,,,,,,,,,,,,,,,,,,,,,,,,,,
,,,,,,,,2023-08-16_08h38.16.592,HF_wild_card,2022.2.4,Win32,59.9880024,642b1c83e9a71c3d81d75b19,64d2fd46c836a06233681665,64dc7b4894becfe9b1f75cb8,,,,,,,,,,,,,,,,,,,,,,,,,,,,,,,,,,,,,,,,,,,,,,,,,,,,,,,,,,,,,,,,
,,,,,,,,2023-08-16_08h38.16.592,HF_wild_card,2022.2.4,Win32,59.9880024,642b1c83e9a71c3d81d75b19,64d2fd46c836a06233681665,64dc7b4894becfe9b1f75cb8,,,,,,,decisionTrl,resources/DR.BMP,resources/DY.BMP,Door3,0.500925982,-0.141666695,1,0,0,2.0083,optionRight,70,70,1,0,0,0,0,1,,,,,,,,,,,,,,,,,,,,,,,,,,,,,,,,,,,,,,,
,,,,,,,,2023-08-16_08h38.16.592,HF_wild_card,2022.2.4,Win32,59.9880024,642b1c83e9a71c3d81d75b19,64d2fd46c836a06233681665,64dc7b4894becfe9b1f75cb8,,,,,,,sngl,resources/DY.BMP,resources/Empty.png,Door3,-0.299999979,0.025000007,1,0,0,1.7282,optionLeft,70,140,1,1,0,1,0,1,,,,,,,,,,,,,,,,,,,,,,,,,,,,,,,,,,,,,,,
,,,,,,,,2023-08-16_08h38.16.592,HF_wild_card,2022.2.4,Win32,59.9880024,642b1c83e9a71c3d81d75b19,64d2fd46c836a06233681665,64dc7b4894becfe9b1f75cb8,,,,,,,decisionTrl,resources/DY.BMP,resources/DR.BMP,Door4,0.288888931,-0.044444437,1,0,0,4.7407,optionRight,80,220,1,2,0,2,0,1,,,,,,,,,,,,,,,,,,,,,,,,,,,,,,,,,,,,,,,
,,,,,,,,2023-08-16_08h38.16.592,HF_wild_card,2022.2.4,Win32,59.9880024,642b1c83e9a71c3d81d75b19,64d2fd46c836a06233681665,64dc7b4894becfe9b1f75cb8,,,,,,,decisionTrl,resources/DY.BMP,resources/DR.BMP,Door3,-0.241666653,0.027777778,1,0,0,1.2137,optionLeft,70,290,1,3,0,3,0,1,,,,,,,,,,,,,,,,,,,,,,,,,,,,,,,,,,,,,,,
,,,,,,,,2023-08-16_08h38.16.592,HF_wild_card,2022.2.4,Win32,59.9880024,642b1c83e9a71c3d81d75b19,64d2fd46c836a06233681665,64dc7b4894becfe9b1f75cb8,,,,,,,decisionTrl,resources/DR.BMP,resources/DB.BMP,WildCard_NonEx,0.424074102,-0.014814836,1,0,0,1.3448,optionRight,55,345,1,4,0,4,0,1,,,,,,,,,,,,,,,,,,,,,,,,,,,,,,,,,,,,,,,
,,,,,,,,2023-08-16_08h38.16.592,HF_wild_card,2022.2.4,Win32,59.9880024,642b1c83e9a71c3d81d75b19,64d2fd46c836a06233681665,64dc7b4894becfe9b1f75cb8,,,,,,,sngl,resources/Empty.png,resources/DB.BMP,WildCard_NonEx,0.268518519,-0.006481489,1,0,0,1.3834,optionRight,45,390,1,5,0,5,0,1,,,,,,,,,,,,,,,,,,,,,,,,,,,,,,,,,,,,,,,
,,,,,,,,2023-08-16_08h38.16.592,HF_wild_card,2022.2.4,Win32,59.9880024,642b1c83e9a71c3d81d75b19,64d2fd46c836a06233681665,64dc7b4894becfe9b1f75cb8,,,,,,,ctch,resources/DR.BMP,resources/DBN.BMP,Door1,0.497222194,0.015740748,1,0,0,1.3608,optionRight,30,420,1,6,0,6,0,1,,,,,,,,,,,,,,,,,,,,,,,,,,,,,,,,,,,,,,,
,,,,,,,,2023-08-16_08h38.16.592,HF_wild_card,2022.2.4,Win32,59.9880024,642b1c83e9a71c3d81d75b19,64d2fd46c836a06233681665,64dc7b4894becfe9b1f75cb8,,,,,,,sngl,resources/Empty.png,resources/DY.BMP,Door3,0.297222279,0.0074074,1,0,0,0.8671,optionRight,70,490,1,7,0,7,0,1,,,,,,,,,,,,,,,,,,,,,,,,,,,,,,,,,,,,,,,
,,,,,,,,2023-08-16_08h38.16.592,HF_wild_card,2022.2.4,Win32,59.9880024,642b1c83e9a71c3d81d75b19,64d2fd46c836a06233681665,64dc7b4894becfe9b1f75cb8,,,,,,,decisionTrl,resources/DBN.BMP,resources/DP.BMP,Door2,0.320370427,-0.013888889,1,0,0,2.2125,optionRight,40,530,1,8,0,8,0,1,,,,,,,,,,,,,,,,,,,,,,,,,,,,,,,,,,,,,,,
,,,,,,,,2023-08-16_08h38.16.592,HF_wild_card,2022.2.4,Win32,59.9880024,642b1c83e9a71c3d81d75b19,64d2fd46c836a06233681665,64dc7b4894becfe9b1f75cb8,,,,,,,decisionTrl,resources/DP.BMP,resources/DBN.BMP,Door1,0.334259316,-0.005555577,1,0,0,1.2514,optionRight,30,560,1,9,0,9,0,1,,,,,,,,,,,,,,,,,,,,,,,,,,,,,,,,,,,,,,,
,,,,,,,,2023-08-16_08h38.16.592,HF_wild_card,2022.2.4,Win32,59.9880024,642b1c83e9a71c3d81d75b19,64d2fd46c836a06233681665,64dc7b4894becfe9b1f75cb8,,,,,,,decisionTrl,resources/DP.BMP,resources/DB.BMP,WildCard_NonEx,0.395370342,0.039814808,1,0,0,1.1041,optionRight,55,615,1,10,0,10,0,1,,,,,,,,,,,,,,,,,,,,,,,,,,,,,,,,,,,,,,,
,,,,,,,,2023-08-16_08h38.16.592,HF_wild_card,2022.2.4,Win32,59.9880024,642b1c83e9a71c3d81d75b19,64d2fd46c836a06233681665,64dc7b4894becfe9b1f75cb8,,,,,,,sngl,resources/DR.BMP,resources/Empty.png,Door4,-0.314814815,0.013888889,1,0,0,0.7599,optionLeft,80,695,1,11,0,11,0,1,,,,,,,,,,,,,,,,,,,,,,,,,,,,,,,,,,,,,,,
,,,,,,,,2023-08-16_08h38.16.592,HF_wild_card,2022.2.4,Win32,59.9880024,642b1c83e9a71c3d81d75b19,64d2fd46c836a06233681665,64dc7b4894becfe9b1f75cb8,,,,,,,sngl,resources/Empty.png,resources/DP.BMP,Door2,0.253703718,-0.014814836,1,0,0,1.4931,optionRight,20,715,1,12,0,12,0,1,,,,,,,,,,,,,,,,,,,,,,,,,,,,,,,,,,,,,,,
,,,,,,,,2023-08-16_08h38.16.592,HF_wild_card,2022.2.4,Win32,59.9880024,642b1c83e9a71c3d81d75b19,64d2fd46c836a06233681665,64dc7b4894becfe9b1f75cb8,,,,,,,sngl,resources/Empty.png,resources/DBN.BMP,Door1,0.304629714,0.061111097,1,0,0,0.8759,optionRight,30,745,1,13,0,13,0,1,,,,,,,,,,,,,,,,,,,,,,,,,,,,,,,,,,,,,,,
,,,,,,,,2023-08-16_08h38.16.592,HF_wild_card,2022.2.4,Win32,59.9880024,642b1c83e9a71c3d81d75b19,64d2fd46c836a06233681665,64dc7b4894becfe9b1f75cb8,,,,,,,decisionTrl,resources/DR.BMP,resources/DY.BMP,Door4,-0.429629608,0.023148148,1,0,0,1.9602,optionLeft,60,805,1,14,0,14,0,1,,,,,,,,,,,,,,,,,,,,,,,,,,,,,,,,,,,,,,,
,,,,,,,,2023-08-16_08h38.16.592,HF_wild_card,2022.2.4,Win32,59.9880024,642b1c83e9a71c3d81d75b19,64d2fd46c836a06233681665,64dc7b4894becfe9b1f75cb8,,,,,,,decisionTrl,resources/DBN.BMP,resources/DB.BMP,WildCard_NonEx,0.365740741,0.029629637,1,0,0,1.5086,optionRight,45,850,1,15,0,15,0,1,,,,,,,,,,,,,,,,,,,,,,,,,,,,,,,,,,,,,,,
,,,,,,,,2023-08-16_08h38.16.592,HF_wild_card,2022.2.4,Win32,59.9880024,642b1c83e9a71c3d81d75b19,64d2fd46c836a06233681665,64dc7b4894becfe9b1f75cb8,,,,,,,ctch,resources/DBN.BMP,resources/DR.BMP,Door4,0.368518547,0.066666674,1,0,0,1.1605,optionRight,80,930,1,16,0,16,0,1,,,,,,,,,,,,,,,,,,,,,,,,,,,,,,,,,,,,,,,
,,,,,,,,2023-08-16_08h38.16.592,HF_wild_card,2022.2.4,Win32,59.9880024,642b1c83e9a71c3d81d75b19,64d2fd46c836a06233681665,64dc7b4894becfe9b1f75cb8,,,,,,,decisionTrl,resources/DB.BMP,resources/DY.BMP,Door3,0.425000085,0.026851831,1,0,0,1.5277,optionRight,70,1000,1,17,0,17,0,1,,,,,,,,,,,,,,,,,,,,,,,,,,,,,,,,,,,,,,,
,,,,,,,,2023-08-16_08h38.16.592,HF_wild_card,2022.2.4,Win32,59.9880024,642b1c83e9a71c3d81d75b19,64d2fd46c836a06233681665,64dc7b4894becfe9b1f75cb8,,,,,,,decisionTrl,resources/DR.BMP,resources/DY.BMP,Door4,-0.294444402,0.037962949,1,0,0,1.0597,optionLeft,80,1080,1,18,0,18,0,1,,,,,,,,,,,,,,,,,,,,,,,,,,,,,,,,,,,,,,,
,,,,,,,,2023-08-16_08h38.16.592,HF_wild_card,2022.2.4,Win32,59.9880024,642b1c83e9a71c3d81d75b19,64d2fd46c836a06233681665,64dc7b4894becfe9b1f75cb8,,,,,,,decisionTrl,resources/DB.BMP,resources/DR.BMP,Door4,0.376851824,0.012962942,1,0,0,0.8929,optionRight,80,1160,1,19,0,19,0,1,,,,,,,,,,,,,,,,,,,,,,,,,,,,,,,,,,,,,,,
,,,,,,,,2023-08-16_08h38.16.592,HF_wild_card,2022.2.4,Win32,59.9880024,642b1c83e9a71c3d81d75b19,64d2fd46c836a06233681665,64dc7b4894becfe9b1f75cb8,,,,,,,decisionTrl,resources/DP.BMP,resources/DBN.BMP,Door2,-0.386111118,0.02407406,1,0,0,1.558,optionLeft,40,1200,1,20,0,20,0,1,,,,,,,,,,,,,,,,,,,,,,,,,,,,,,,,,,,,,,,
,,,,,,,,2023-08-16_08h38.16.592,HF_wild_card,2022.2.4,Win32,59.9880024,642b1c83e9a71c3d81d75b19,64d2fd46c836a06233681665,64dc7b4894becfe9b1f75cb8,,,,,,,ctch,resources/DY.BMP,resources/DP.BMP,Door3,-0.305555556,0.043518526,1,0,0,1.0101,optionLeft,70,1270,1,21,0,21,0,1,,,,,,,,,,,,,,,,,,,,,,,,,,,,,,,,,,,,,,,
,,,,,,,,2023-08-16_08h38.16.592,HF_wild_card,2022.2.4,Win32,59.9880024,642b1c83e9a71c3d81d75b19,64d2fd46c836a06233681665,64dc7b4894becfe9b1f75cb8,,,,,,,ctch,resources/DP.BMP,resources/DY.BMP,Door3,0.412963019,0.04074072,1,0,0,1.5916,optionRight,70,1340,1,22,0,22,0,1,,,,,,,,,,,,,,,,,,,,,,,,,,,,,,,,,,,,,,,
,,,,,,,,2023-08-16_08h38.16.592,HF_wild_card,2022.2.4,Win32,59.9880024,642b1c83e9a71c3d81d75b19,64d2fd46c836a06233681665,64dc7b4894becfe9b1f75cb8,,,,,,,ctch,resources/DR.BMP,resources/DBN.BMP,Door4,-0.482407393,0.0074074,1,0,0,0.8428,optionLeft,80,1420,1,23,0,23,0,1,,,,,,,,,,,,,,,,,,,,,,,,,,,,,,,,,,,,,,,
,,,,,,,,2023-08-16_08h38.16.592,HF_wild_card,2022.2.4,Win32,59.9880024,642b1c83e9a71c3d81d75b19,64d2fd46c836a06233681665,64dc7b4894becfe9b1f75cb8,,,,,,,ctch,resources/DY.BMP,resources/DP.BMP,Door3,-0.454629616,0.025000007,1,0,0,1.8573,optionLeft,70,1490,1,24,0,24,0,1,,,,,,,,,,,,,,,,,,,,,,,,,,,,,,,,,,,,,,,
,,,,,,,,2023-08-16_08h38.16.592,HF_wild_card,2022.2.4,Win32,59.9880024,642b1c83e9a71c3d81d75b19,64d2fd46c836a06233681665,64dc7b4894becfe9b1f75cb8,,,,,,,decisionTrl,resources/DP.BMP,resources/DBN.BMP,Door1,0.319444444,0.020370377,1,0,0,1.526,optionRight,30,1520,1,25,0,25,0,1,,,,,,,,,,,,,,,,,,,,,,,,,,,,,,,,,,,,,,,
,,,,,,,,2023-08-16_08h38.16.592,HF_wild_card,2022.2.4,Win32,59.9880024,642b1c83e9a71c3d81d75b19,64d2fd46c836a06233681665,64dc7b4894becfe9b1f75cb8,,,,,,,decisionTrl,resources/DBN.BMP,resources/DP.BMP,Door1,-0.404629637,0.133333312,1,0,0,2.7433,optionLeft,30,1550,1,26,0,26,0,1,,,,,,,,,,,,,,,,,,,,,,,,,,,,,,,,,,,,,,,
,,,,,,,,2023-08-16_08h38.16.592,HF_wild_card,2022.2.4,Win32,59.9880024,642b1c83e9a71c3d81d75b19,64d2fd46c836a06233681665,64dc7b4894becfe9b1f75cb8,,,,,,,sngl,resources/DB.BMP,resources/Empty.png,WildCard_NonEx,-0.299074067,0.050925926,1,0,0,1.0763,optionLeft,55,1605,1,27,0,27,0,1,,,,,,,,,,,,,,,,,,,,,,,,,,,,,,,,,,,,,,,
,,,,,,,,2023-08-16_08h38.16.592,HF_wild_card,2022.2.4,Win32,59.9880024,642b1c83e9a71c3d81d75b19,64d2fd46c836a06233681665,64dc7b4894becfe9b1f75cb8,,,,,,,decisionTrl,resources/DP.BMP,resources/DBN.BMP,Door2,-0.290740755,0.098148134,1,0,0,1.7266,optionLeft,40,1645,1,28,0,28,0,1,,,,,,,,,,,,,,,,,,,,,,,,,,,,,,,,,,,,,,,
,,,,,,,,2023-08-16_08h38.16.592,HF_wild_card,2022.2.4,Win32,59.9880024,642b1c83e9a71c3d81d75b19,64d2fd46c836a06233681665,64dc7b4894becfe9b1f75cb8,,,,,,,decisionTrl,resources/DB.BMP,resources/DP.BMP,WildCard_NonEx,-0.303703697,0.053703697,1,0,0,1.659,optionLeft,45,1690,1,29,0,29,0,1,,,,,,,,,,,,,,,,,,,,,,,,,,,,,,,,,,,,,,,
,,,,,,,,2023-08-16_08h38.16.592,HF_wild_card,2022.2.4,Win32,59.9880024,642b1c83e9a71c3d81d75b19,64d2fd46c836a06233681665,64dc7b4894becfe9b1f75cb8,,,,,,,decisionTrl,resources/DR.BMP,resources/DY.BMP,Door4,-0.497222229,0.087962963,1,0,0,1.8762,optionLeft,60,1750,1,30,0,30,0,1,,,,,,,,,,,,,,,,,,,,,,,,,,,,,,,,,,,,,,,
,,,,,,,,2023-08-16_08h38.16.592,HF_wild_card,2022.2.4,Win32,59.9880024,642b1c83e9a71c3d81d75b19,64d2fd46c836a06233681665,64dc7b4894becfe9b1f75cb8,,,,,,,decisionTrl,resources/DY.BMP,resources/DR.BMP,Door4,0.37037037,0.010185171,1,0,0,0.9431,optionRight,80,1830,1,31,0,31,0,1,,,,,,,,,,,,,,,,,,,,,,,,,,,,,,,,,,,,,,,
,,,,,,,,2023-08-16_08h38.16.592,HF_wild_card,2022.2.4,Win32,59.9880024,642b1c83e9a71c3d81d75b19,64d2fd46c836a06233681665,64dc7b4894becfe9b1f75cb8,,,,,,,ctch,resources/DBN.BMP,resources/DR.BMP,Door4,0.338888945,0.04074072,1,0,0,0.9262,optionRight,80,1910,1,32,0,32,0,1,,,,,,,,,,,,,,,,,,,,,,,,,,,,,,,,,,,,,,,
,,,,,,,,2023-08-16_08h38.16.592,HF_wild_card,2022.2.4,Win32,59.9880024,642b1c83e9a71c3d81d75b19,64d2fd46c836a06233681665,64dc7b4894becfe9b1f75cb8,,,,,,,sngl,resources/DP.BMP,resources/Empty.png,Door2,-0.333333333,0.045370349,1,0,0,1.0254,optionLeft,40,1950,1,33,0,33,0,1,,,,,,,,,,,,,,,,,,,,,,,,,,,,,,,,,,,,,,,
,,,,,,,,2023-08-16_08h38.16.592,HF_wild_card,2022.2.4,Win32,59.9880024,642b1c83e9a71c3d81d75b19,64d2fd46c836a06233681665,64dc7b4894becfe9b1f75cb8,,,,,,,decisionTrl,resources/DB.BMP,resources/DBN.BMP,WildCard_NonEx,-0.309259238,0.034259266,1,0,0,1.6761,optionLeft,55,2005,1,34,0,34,0,1,,,,,,,,,,,,,,,,,,,,,,,,,,,,,,,,,,,,,,,
,,,,,,,,2023-08-16_08h38.16.592,HF_wild_card,2022.2.4,Win32,59.9880024,642b1c83e9a71c3d81d75b19,64d2fd46c836a06233681665,64dc7b4894becfe9b1f75cb8,,,,,,,decisionTrl,resources/DBN.BMP,resources/DP.BMP,Door1,-0.431481467,0.138888889,1,0,0,2.6923,optionLeft,30,2035,1,35,0,35,0,1,,,,,,,,,,,,,,,,,,,,,,,,,,,,,,,,,,,,,,,
,,,,,,,,2023-08-16_08h38.16.592,HF_wild_card,2022.2.4,Win32,59.9880024,642b1c83e9a71c3d81d75b19,64d2fd46c836a06233681665,64dc7b4894becfe9b1f75cb8,,,,,,,sngl,resources/Empty.png,resources/DB.BMP,WildCard_NonEx,0.27407406,0.02407406,1,0,0,0.8071,optionRight,55,2090,1,36,0,36,0,1,,,,,,,,,,,,,,,,,,,,,,,,,,,,,,,,,,,,,,,
,,,,,,,,2023-08-16_08h38.16.592,HF_wild_card,2022.2.4,Win32,59.9880024,642b1c83e9a71c3d81d75b19,64d2fd46c836a06233681665,64dc7b4894becfe9b1f75cb8,,,,,,,ctch,resources/DP.BMP,resources/DY.BMP,Door3,0.344444416,0.054629608,1,0,0,1.2935,optionRight,70,2160,1,37,0,37,0,1,,,,,,,,,,,,,,,,,,,,,,,,,,,,,,,,,,,,,,,
,,,,,,,,2023-08-16_08h38.16.592,HF_wild_card,2022.2.4,Win32,59.9880024,642b1c83e9a71c3d81d75b19,64d2fd46c836a06233681665,64dc7b4894becfe9b1f75cb8,,,,,,,decisionTrl,resources/DBN.BMP,resources/DP.BMP,Door2,0.338888945,0.159259266,1,0,0,3.6091,optionRight,20,2180,1,38,0,38,0,1,,,,,,,,,,,,,,,,,,,,,,,,,,,,,,,,,,,,,,,
,,,,,,,,2023-08-16_08h38.16.592,HF_wild_card,2022.2.4,Win32,59.9880024,642b1c83e9a71c3d81d75b19,64d2fd46c836a06233681665,64dc7b4894becfe9b1f75cb8,,,,,,,sngl,resources/DBN.BMP,resources/Empty.png,Door1,-0.16851849,-0.010185206,1,0,0,2.4495,optionLeft,30,2210,1,39,0,39,0,1,,,,,,,,,,,,,,,,,,,,,,,,,,,,,,,,,,,,,,,
,,,,,,,,2023-08-16_08h38.16.592,HF_wild_card,2022.2.4,Win32,59.9880024,642b1c83e9a71c3d81d75b19,64d2fd46c836a06233681665,64dc7b4894becfe9b1f75cb8,,,,,,,sngl,resources/DB.BMP,resources/Empty.png,WildCard_NonEx,-0.383333312,0.054629608,1,0,0,0.6485,optionLeft,45,2255,1,40,0,40,0,1,,,,,,,,,,,,,,,,,,,,,,,,,,,,,,,,,,,,,,,
,,,,,,,,2023-08-16_08h38.16.592,HF_wild_card,2022.2.4,Win32,59.9880024,642b1c83e9a71c3d81d75b19,64d2fd46c836a06233681665,64dc7b4894becfe9b1f75cb8,,,,,,,decisionTrl,resources/DY.BMP,resources/DR.BMP,Door4,0.376851824,0.006481489,1,0,0,0.8003,optionRight,60,2315,1,41,0,41,0,1,,,,,,,,,,,,,,,,,,,,,,,,,,,,,,,,,,,,,,,
,,,,,,,,2023-08-16_08h38.16.592,HF_wild_card,2022.2.4,Win32,59.9880024,642b1c83e9a71c3d81d75b19,64d2fd46c836a06233681665,64dc7b4894becfe9b1f75cb8,,,,,,,sngl,resources/Empty.png,resources/DR.BMP,Door4,0.311111168,-0.0074074,1,0,0,1.4151,optionRight,60,2375,1,42,0,42,0,1,,,,,,,,,,,,,,,,,,,,,,,,,,,,,,,,,,,,,,,
,,,,,,,,2023-08-16_08h38.16.592,HF_wild_card,2022.2.4,Win32,59.9880024,642b1c83e9a71c3d81d75b19,64d2fd46c836a06233681665,64dc7b4894becfe9b1f75cb8,,,,,,,decisionTrl,resources/DY.BMP,resources/DB.BMP,Door3,-0.214814787,0.084259245,1,0,0,1.3073,optionLeft,70,2445,1,43,0,43,0,1,,,,,,,,,,,,,,,,,,,,,,,,,,,,,,,,,,,,,,,
,,,,,,,,2023-08-16_08h38.16.592,HF_wild_card,2022.2.4,Win32,59.9880024,642b1c83e9a71c3d81d75b19,64d2fd46c836a06233681665,64dc7b4894becfe9b1f75cb8,,,,,,,,,,,,,,,,,,,,,,,,,,0,0,0,0,1,,,,,,,,,,,,,,,,,,,,,,,,,,,,,,,,,,
,,,,,,,,2023-08-16_08h38.16.592,HF_wild_card,2022.2.4,Win32,59.9880024,642b1c83e9a71c3d81d75b19,64d2fd46c836a06233681665,64dc7b4894becfe9b1f75cb8,,,,,,,sngl,resources/DP.BMP,resources/Empty.png,Door2,-0.310185185,0.027777778,1,0,0,1.2096,optionLeft,20,2465,2,0,0,0,0,1,,,,,,,,,,,,,,,,,,,,,,,,,,,,,,,,,,,,,,,
,,,,,,,,2023-08-16_08h38.16.592,HF_wild_card,2022.2.4,Win32,59.9880024,642b1c83e9a71c3d81d75b19,64d2fd46c836a06233681665,64dc7b4894becfe9b1f75cb8,,,,,,,decisionTrl,resources/DR.BMP,resources/DY.BMP,Door3,0.366666723,-0.008333347,1,0,0,0.7938,optionRight,70,2535,2,1,0,1,0,1,,,,,,,,,,,,,,,,,,,,,,,,,,,,,,,,,,,,,,,
,,,,,,,,2023-08-16_08h38.16.592,HF_wild_card,2022.2.4,Win32,59.9880024,642b1c83e9a71c3d81d75b19,64d2fd46c836a06233681665,64dc7b4894becfe9b1f75cb8,,,,,,,sngl,resources/Empty.png,resources/DBN.BMP,Door1,0.279629672,-0.003703718,1,0,0,0.7608,optionRight,30,2565,2,2,0,2,0,1,,,,,,,,,,,,,,,,,,,,,,,,,,,,,,,,,,,,,,,
,,,,,,,,2023-08-16_08h38.16.592,HF_wild_card,2022.2.4,Win32,59.9880024,642b1c83e9a71c3d81d75b19,64d2fd46c836a06233681665,64dc7b4894becfe9b1f75cb8,,,,,,,sngl,resources/Empty.png,resources/DY.BMP,Door3,0.341666751,-0.039814808,1,0,0,0.6435,optionRight,70,2635,2,3,0,3,0,1,,,,,,,,,,,,,,,,,,,,,,,,,,,,,,,,,,,,,,,
,,,,,,,,2023-08-16_08h38.16.592,HF_wild_card,2022.2.4,Win32,59.9880024,642b1c83e9a71c3d81d75b19,64d2fd46c836a06233681665,64dc7b4894becfe9b1f75cb8,,,,,,,decisionTrl,resources/DY.BMP,resources/DR.BMP,Door4,0.361111111,-0.048148155,1,0,0,1.1762,optionRight,80,2715,2,4,0,4,0,1,,,,,,,,,,,,,,,,,,,,,,,,,,,,,,,,,,,,,,,
,,,,,,,,2023-08-16_08h38.16.592,HF_wild_card,2022.2.4,Win32,59.9880024,642b1c83e9a71c3d81d75b19,64d2fd46c836a06233681665,64dc7b4894becfe9b1f75cb8,,,,,,,decisionTrl,resources/DR.BMP,resources/DY.BMP,Door4,-0.277777778,0.013888889,1,0,0,0.5937,optionLeft,80,2795,2,5,0,5,0,1,,,,,,,,,,,,,,,,,,,,,,,,,,,,,,,,,,,,,,,
,,,,,,,,2023-08-16_08h38.16.592,HF_wild_card,2022.2.4,Win32,59.9880024,642b1c83e9a71c3d81d75b19,64d2fd46c836a06233681665,64dc7b4894becfe9b1f75cb8,,,,,,,decisionTrl,resources/DP.BMP,resources/DB.BMP,WildCard_NonEx,0.455555527,0,1,0,0,2.0429,optionRight,55,2850,2,6,0,6,0,1,,,,,,,,,,,,,,,,,,,,,,,,,,,,,,,,,,,,,,,
,,,,,,,,2023-08-16_08h38.16.592,HF_wild_card,2022.2.4,Win32,59.9880024,642b1c83e9a71c3d81d75b19,64d2fd46c836a06233681665,64dc7b4894becfe9b1f75cb8,,,,,,,decisionTrl,resources/DP.BMP,resources/DBN.BMP,Door1,0.526851937,0.038888896,1,0,0,2.7768,optionRight,30,2880,2,7,0,7,0,1,,,,,,,,,,,,,,,,,,,,,,,,,,,,,,,,,,,,,,,
,,,,,,,,2023-08-16_08h38.16.592,HF_wild_card,2022.2.4,Win32,59.9880024,642b1c83e9a71c3d81d75b19,64d2fd46c836a06233681665,64dc7b4894becfe9b1f75cb8,,,,,,,ctch,resources/DP.BMP,resources/DY.BMP,Door3,0.312037009,0.00462963,1,0,0,0.9607,optionRight,70,2950,2,8,0,8,0,1,,,,,,,,,,,,,,,,,,,,,,,,,,,,,,,,,,,,,,,
,,,,,,,,2023-08-16_08h38.16.592,HF_wild_card,2022.2.4,Win32,59.9880024,642b1c83e9a71c3d81d75b19,64d2fd46c836a06233681665,64dc7b4894becfe9b1f75cb8,,,,,,,ctch,resources/DP.BMP,resources/DY.BMP,Door3,0.413888861,0.038888896,1,0,0,0.8939,optionRight,70,3020,2,9,0,9,0,1,,,,,,,,,,,,,,,,,,,,,,,,,,,,,,,,,,,,,,,
,,,,,,,,2023-08-16_08h38.16.592,HF_wild_card,2022.2.4,Win32,59.9880024,642b1c83e9a71c3d81d75b19,64d2fd46c836a06233681665,64dc7b4894becfe9b1f75cb8,,,,,,,decisionTrl,resources/DBN.BMP,resources/DP.BMP,Door2,0.491666723,0.13703703,1,0,0,2.0591,optionRight,20,3040,2,10,0,10,0,1,,,,,,,,,,,,,,,,,,,,,,,,,,,,,,,,,,,,,,,
,,,,,,,,2023-08-16_08h38.16.592,HF_wild_card,2022.2.4,Win32,59.9880024,642b1c83e9a71c3d81d75b19,64d2fd46c836a06233681665,64dc7b4894becfe9b1f75cb8,,,,,,,ctch,resources/DR.BMP,resources/DBN.BMP,Door4,-0.22129631,0.10833334,1,0,0,1.3098,optionLeft,60,3100,2,11,0,11,0,1,,,,,,,,,,,,,,,,,,,,,,,,,,,,,,,,,,,,,,,
,,,,,,,,2023-08-16_08h38.16.592,HF_wild_card,2022.2.4,Win32,59.9880024,642b1c83e9a71c3d81d75b19,64d2fd46c836a06233681665,64dc7b4894becfe9b1f75cb8,,,,,,,decisionTrl,resources/DP.BMP,resources/DBN.BMP,Door1,0.469444416,0.065740727,1,0,0,2.1087,optionRight,30,3130,2,12,0,12,0,1,,,,,,,,,,,,,,,,,,,,,,,,,,,,,,,,,,,,,,,
,,,,,,,,2023-08-16_08h38.16.592,HF_wild_card,2022.2.4,Win32,59.9880024,642b1c83e9a71c3d81d75b19,64d2fd46c836a06233681665,64dc7b4894becfe9b1f75cb8,,,,,,,decisionTrl,resources/DY.BMP,resources/DR.BMP,Door4,0.450925898,-0.005555577,1,0,0,1.0603,optionRight,80,3210,2,13,0,13,0,1,,,,,,,,,,,,,,,,,,,,,,,,,,,,,,,,,,,,,,,
,,,,,,,,2023-08-16_08h38.16.592,HF_wild_card,2022.2.4,Win32,59.9880024,642b1c83e9a71c3d81d75b19,64d2fd46c836a06233681665,64dc7b4894becfe9b1f75cb8,,,,,,,ctch,resources/DBN.BMP,resources/DR.BMP,Door4,0.359259288,0.010185171,1,0,0,1.0109,optionRight,80,3290,2,14,0,14,0,1,,,,,,,,,,,,,,,,,,,,,,,,,,,,,,,,,,,,,,,
,,,,,,,,2023-08-16_08h38.16.592,HF_wild_card,2022.2.4,Win32,59.9880024,642b1c83e9a71c3d81d75b19,64d2fd46c836a06233681665,64dc7b4894becfe9b1f75cb8,,,,,,,decisionTrl,resources/DP.BMP,resources/DBN.BMP,Door1,0.341666751,0.049999979,1,0,0,1.6105,optionRight,30,3320,2,15,0,15,0,1,,,,,,,,,,,,,,,,,,,,,,,,,,,,,,,,,,,,,,,
,,,,,,,,2023-08-16_08h38.16.592,HF_wild_card,2022.2.4,Win32,59.9880024,642b1c83e9a71c3d81d75b19,64d2fd46c836a06233681665,64dc7b4894becfe9b1f75cb8,,,,,,,decisionTrl,resources/DY.BMP,resources/DR.BMP,Door4,0.345370399,0.037037037,1,0,0,1.027,optionRight,80,3400,2,16,0,16,0,1,,,,,,,,,,,,,,,,,,,,,,,,,,,,,,,,,,,,,,,
,,,,,,,,2023-08-16_08h38.16.592,HF_wild_card,2022.2.4,Win32,59.9880024,642b1c83e9a71c3d81d75b19,64d2fd46c836a06233681665,64dc7b4894becfe9b1f75cb8,,,,,,,sngl,resources/Empty.png,resources/DP.BMP,Door2,0.350000028,0.01666666,1,0,0,0.9931,optionRight,40,3440,2,17,0,17,0,1,,,,,,,,,,,,,,,,,,,,,,,,,,,,,,,,,,,,,,,
,,,,,,,,2023-08-16_08h38.16.592,HF_wild_card,2022.2.4,Win32,59.9880024,642b1c83e9a71c3d81d75b19,64d2fd46c836a06233681665,64dc7b4894becfe9b1f75cb8,,,,,,,sngl,resources/DBN.BMP,resources/Empty.png,Door1,-0.324074074,0.058333326,1,0,0,0.9268,optionLeft,30,3470,2,18,0,18,0,1,,,,,,,,,,,,,,,,,,,,,,,,,,,,,,,,,,,,,,,
,,,,,,,,2023-08-16_08h38.16.592,HF_wild_card,2022.2.4,Win32,59.9880024,642b1c83e9a71c3d81d75b19,64d2fd46c836a06233681665,64dc7b4894becfe9b1f75cb8,,,,,,,decisionTrl,resources/DBN.BMP,resources/DP.BMP,Door1,-0.292592578,0.018518519,1,0,0,1.5596,optionLeft,30,3500,2,19,0,19,0,1,,,,,,,,,,,,,,,,,,,,,,,,,,,,,,,,,,,,,,,
,,,,,,,,2023-08-16_08h38.16.592,HF_wild_card,2022.2.4,Win32,59.9880024,642b1c83e9a71c3d81d75b19,64d2fd46c836a06233681665,64dc7b4894becfe9b1f75cb8,,,,,,,decisionTrl,resources/DR.BMP,resources/DB.BMP,Door4,-0.433333326,0.027777778,1,0,0,1.8121,optionLeft,60,3560,2,20,0,20,0,1,,,,,,,,,,,,,,,,,,,,,,,,,,,,,,,,,,,,,,,
,,,,,,,,2023-08-16_08h38.16.592,HF_wild_card,2022.2.4,Win32,59.9880024,642b1c83e9a71c3d81d75b19,64d2fd46c836a06233681665,64dc7b4894becfe9b1f75cb8,,,,,,,decisionTrl,resources/DBN.BMP,resources/DB.BMP,WildCard_NonEx,0.341666751,0.041666667,1,0,0,1.1619,optionRight,45,3605,2,21,0,21,0,1,,,,,,,,,,,,,,,,,,,,,,,,,,,,,,,,,,,,,,,
,,,,,,,,2023-08-16_08h38.16.592,HF_wild_card,2022.2.4,Win32,59.9880024,642b1c83e9a71c3d81d75b19,64d2fd46c836a06233681665,64dc7b4894becfe9b1f75cb8,,,,,,,decisionTrl,resources/DP.BMP,resources/DBN.BMP,Door1,0.300925926,0.105555534,1,0,0,2.1272,optionRight,30,3635,2,22,0,22,0,1,,,,,,,,,,,,,,,,,,,,,,,,,,,,,,,,,,,,,,,
,,,,,,,,2023-08-16_08h38.16.592,HF_wild_card,2022.2.4,Win32,59.9880024,642b1c83e9a71c3d81d75b19,64d2fd46c836a06233681665,64dc7b4894becfe9b1f75cb8,,,,,,,sngl,resources/Empty.png,resources/DB.BMP,WildCard_NonEx,0.195370356,-0.021296289,1,0,0,0.7943,optionRight,45,3680,2,23,0,23,0,1,,,,,,,,,,,,,,,,,,,,,,,,,,,,,,,,,,,,,,,
,,,,,,,,2023-08-16_08h38.16.592,HF_wild_card,2022.2.4,Win32,59.9880024,642b1c83e9a71c3d81d75b19,64d2fd46c836a06233681665,64dc7b4894becfe9b1f75cb8,,,,,,,decisionTrl,resources/DY.BMP,resources/DB.BMP,Door3,-0.214814787,0.032407407,1,0,0,0.91,optionLeft,70,3750,2,24,0,24,0,1,,,,,,,,,,,,,,,,,,,,,,,,,,,,,,,,,,,,,,,
,,,,,,,,2023-08-16_08h38.16.592,HF_wild_card,2022.2.4,Win32,59.9880024,642b1c83e9a71c3d81d75b19,64d2fd46c836a06233681665,64dc7b4894becfe9b1f75cb8,,,,,,,ctch,resources/DBN.BMP,resources/DR.BMP,Door4,0.286111125,-0.003703718,1,0,0,0.6766,optionRight,60,3810,2,25,0,25,0,1,,,,,,,,,,,,,,,,,,,,,,,,,,,,,,,,,,,,,,,
,,,,,,,,2023-08-16_08h38.16.592,HF_wild_card,2022.2.4,Win32,59.9880024,642b1c83e9a71c3d81d75b19,64d2fd46c836a06233681665,64dc7b4894becfe9b1f75cb8,,,,,,,decisionTrl,resources/DB.BMP,resources/DY.BMP,Door3,0.317592621,0.01944443,1,0,0,1.2439,optionRight,70,3880,2,26,0,26,0,1,,,,,,,,,,,,,,,,,,,,,,,,,,,,,,,,,,,,,,,
,,,,,,,,2023-08-16_08h38.16.592,HF_wild_card,2022.2.4,Win32,59.9880024,642b1c83e9a71c3d81d75b19,64d2fd46c836a06233681665,64dc7b4894becfe9b1f75cb8,,,,,,,decisionTrl,resources/DB.BMP,resources/DBN.BMP,WildCard_NonEx,-0.172222208,0.03148146,1,0,0,1.2776,optionLeft,45,3925,2,27,0,27,0,1,,,,,,,,,,,,,,,,,,,,,,,,,,,,,,,,,,,,,,,
,,,,,,,,2023-08-16_08h38.16.592,HF_wild_card,2022.2.4,Win32,59.9880024,642b1c83e9a71c3d81d75b19,64d2fd46c836a06233681665,64dc7b4894becfe9b1f75cb8,,,,,,,ctch,resources/DY.BMP,resources/DP.BMP,Door3,-0.263888889,0.041666667,1,0,0,1.0298,optionLeft,70,3995,2,28,0,28,0,1,,,,,,,,,,,,,,,,,,,,,,,,,,,,,,,,,,,,,,,
,,,,,,,,2023-08-16_08h38.16.592,HF_wild_card,2022.2.4,Win32,59.9880024,642b1c83e9a71c3d81d75b19,64d2fd46c836a06233681665,64dc7b4894becfe9b1f75cb8,,,,,,,sngl,resources/DB.BMP,resources/Empty.png,WildCard_NonEx,-0.198148162,0.000925912,1,0,0,1.9946,optionLeft,55,4050,2,29,0,29,0,1,,,,,,,,,,,,,,,,,,,,,,,,,,,,,,,,,,,,,,,
,,,,,,,,2023-08-16_08h38.16.592,HF_wild_card,2022.2.4,Win32,59.9880024,642b1c83e9a71c3d81d75b19,64d2fd46c836a06233681665,64dc7b4894becfe9b1f75cb8,,,,,,,decisionTrl,resources/DB.BMP,resources/DP.BMP,WildCard_NonEx,-0.383333312,0.02870369,1,0,0,1.5531,optionLeft,55,4105,2,30,0,30,0,1,,,,,,,,,,,,,,,,,,,,,,,,,,,,,,,,,,,,,,,
,,,,,,,,2023-08-16_08h38.16.592,HF_wild_card,2022.2.4,Win32,59.9880024,642b1c83e9a71c3d81d75b19,64d2fd46c836a06233681665,64dc7b4894becfe9b1f75cb8,,,,,,,sngl,resources/Empty.png,resources/DB.BMP,WildCard_NonEx,0.299074102,-0.00462963,1,0,0,0.844,optionRight,55,4160,2,31,0,31,0,1,,,,,,,,,,,,,,,,,,,,,,,,,,,,,,,,,,,,,,,
,,,,,,,,2023-08-16_08h38.16.592,HF_wild_card,2022.2.4,Win32,59.9880024,642b1c83e9a71c3d81d75b19,64d2fd46c836a06233681665,64dc7b4894becfe9b1f75cb8,,,,,,,decisionTrl,resources/DY.BMP,resources/DR.BMP,Door4,0.233333376,-0.000925947,1,0,0,1.0774,optionRight,60,4220,2,32,0,32,0,1,,,,,,,,,,,,,,,,,,,,,,,,,,,,,,,,,,,,,,,
,,,,,,,,2023-08-16_08h38.16.592,HF_wild_card,2022.2.4,Win32,59.9880024,642b1c83e9a71c3d81d75b19,64d2fd46c836a06233681665,64dc7b4894becfe9b1f75cb8,,,,,,,sngl,resources/DY.BMP,resources/Empty.png,Door3,-0.27870369,0.039814808,1,0,0,0.6277,optionLeft,70,4290,2,33,0,33,0,1,,,,,,,,,,,,,,,,,,,,,,,,,,,,,,,,,,,,,,,
,,,,,,,,2023-08-16_08h38.16.592,HF_wild_card,2022.2.4,Win32,59.9880024,642b1c83e9a71c3d81d75b19,64d2fd46c836a06233681665,64dc7b4894becfe9b1f75cb8,,,,,,,ctch,resources/DY.BMP,resources/DP.BMP,Door3,-0.288888861,0.025925919,1,0,0,1.1604,optionLeft,70,4360,2,34,0,34,0,1,,,,,,,,,,,,,,,,,,,,,,,,,,,,,,,,,,,,,,,
,,,,,,,,2023-08-16_08h38.16.592,HF_wild_card,2022.2.4,Win32,59.9880024,642b1c83e9a71c3d81d75b19,64d2fd46c836a06233681665,64dc7b4894becfe9b1f75cb8,,,,,,,decisionTrl,resources/DR.BMP,resources/DY.BMP,Door3,0.256481524,0.014814801,1,0,0,0.8927,optionRight,70,4430,2,35,0,35,0,1,,,,,,,,,,,,,,,,,,,,,,,,,,,,,,,,,,,,,,,
,,,,,,,,2023-08-16_08h38.16.592,HF_wild_card,2022.2.4,Win32,59.9880024,642b1c83e9a71c3d81d75b19,64d2fd46c836a06233681665,64dc7b4894becfe9b1f75cb8,,,,,,,sngl,resources/DR.BMP,resources/Empty.png,Door4,-0.265740712,0.042592578,1,0,0,0.677,optionLeft,60,4490,2,36,0,36,0,1,,,,,,,,,,,,,,,,,,,,,,,,,,,,,,,,,,,,,,,
,,,,,,,,2023-08-16_08h38.16.592,HF_wild_card,2022.2.4,Win32,59.9880024,642b1c83e9a71c3d81d75b19,64d2fd46c836a06233681665,64dc7b4894becfe9b1f75cb8,,,,,,,decisionTrl,resources/DBN.BMP,resources/DP.BMP,Door1,-0.418518526,0.168518526,1,0,0,49.27,optionLeft,30,4520,2,37,0,37,0,1,,,,,,,,,,,,,,,,,,,,,,,,,,,,,,,,,,,,,,,
,,,,,,,,2023-08-16_08h38.16.592,HF_wild_card,2022.2.4,Win32,59.9880024,642b1c83e9a71c3d81d75b19,64d2fd46c836a06233681665,64dc7b4894becfe9b1f75cb8,,,,,,,decisionTrl,resources/DBN.BMP,resources/DP.BMP,Door2,0.371296353,0.030555548,1,0,0,1.2404,optionRight,40,4560,2,38,0,38,0,1,,,,,,,,,,,,,,,,,,,,,,,,,,,,,,,,,,,,,,,
,,,,,,,,2023-08-16_08h38.16.592,HF_wild_card,2022.2.4,Win32,59.9880024,642b1c83e9a71c3d81d75b19,64d2fd46c836a06233681665,64dc7b4894becfe9b1f75cb8,,,,,,,ctch,resources/DR.BMP,resources/DBN.BMP,Door4,-0.298148155,0.058333326,1,0,0,1.1934,optionLeft,60,4620,2,39,0,39,0,1,,,,,,,,,,,,,,,,,,,,,,,,,,,,,,,,,,,,,,,
,,,,,,,,2023-08-16_08h38.16.592,HF_wild_card,2022.2.4,Win32,59.9880024,642b1c83e9a71c3d81d75b19,64d2fd46c836a06233681665,64dc7b4894becfe9b1f75cb8,,,,,,,decisionTrl,resources/DR.BMP,resources/DY.BMP,Door3,0.342592593,-0.037962984,1,0,0,0.6435,optionRight,70,4690,2,40,0,40,0,1,,,,,,,,,,,,,,,,,,,,,,,,,,,,,,,,,,,,,,,
,,,,,,,,2023-08-16_08h38.16.592,HF_wild_card,2022.2.4,Win32,59.9880024,642b1c83e9a71c3d81d75b19,64d2fd46c836a06233681665,64dc7b4894becfe9b1f75cb8,,,,,,,decisionTrl,resources/DB.BMP,resources/DR.BMP,Door4,0.367592564,0.025000007,1,0,0,1.1274,optionRight,80,4770,2,41,0,41,0,1,,,,,,,,,,,,,,,,,,,,,,,,,,,,,,,,,,,,,,,
,,,,,,,,2023-08-16_08h38.16.592,HF_wild_card,2022.2.4,Win32,59.9880024,642b1c83e9a71c3d81d75b19,64d2fd46c836a06233681665,64dc7b4894becfe9b1f75cb8,,,,,,,sngl,resources/DB.BMP,resources/Empty.png,WildCard_NonEx,-0.375,0.053703697,1,0,0,0.7444,optionLeft,45,4815,2,42,0,42,0,1,,,,,,,,,,,,,,,,,,,,,,,,,,,,,,,,,,,,,,,
,,,,,,,,2023-08-16_08h38.16.592,HF_wild_card,2022.2.4,Win32,59.9880024,642b1c83e9a71c3d81d75b19,64d2fd46c836a06233681665,64dc7b4894becfe9b1f75cb8,,,,,,,sngl,resources/Empty.png,resources/DR.BMP,Door4,0.237963005,0.002777771,1,0,0,0.6445,optionRight,80,4895,2,43,0,43,0,1,,,,,,,,,,,,,,,,,,,,,,,,,,,,,,,,,,,,,,,
,,,,,,,,2023-08-16_08h38.16.592,HF_wild_card,2022.2.4,Win32,59.9880024,642b1c83e9a71c3d81d75b19,64d2fd46c836a06233681665,64dc7b4894becfe9b1f75cb8,,,,,,,,,,,,,,,,,,,,,,,,,,1,0,1,0,1,,,,,,,,,,,,,,,,,,,,,,,,,,,,,,,,,,
,,,,,,,,2023-08-16_08h38.16.592,HF_wild_card,2022.2.4,Win32,59.9880024,642b1c83e9a71c3d81d75b19,64d2fd46c836a06233681665,64dc7b4894becfe9b1f75cb8,,,,,,,sngl,resources/DBN.BMP,resources/Empty.png,Door1,-0.301851838,-0.183333362,1,0,0,1.1921,optionLeft,30,4925,3,0,0,0,0,1,,,,,,,,,,,,,,,,,,,,,,,,,,,,,,,,,,,,,,,
,,,,,,,,2023-08-16_08h38.16.592,HF_wild_card,2022.2.4,Win32,59.9880024,642b1c83e9a71c3d81d75b19,64d2fd46c836a06233681665,64dc7b4894becfe9b1f75cb8,,,,,,,decisionTrl,resources/DR.BMP,resources/DY.BMP,Door3,0.472222222,0.000925912,1,0,0,1.3368,optionRight,70,4995,3,1,0,1,0,1,,,,,,,,,,,,,,,,,,,,,,,,,,,,,,,,,,,,,,,
,,,,,,,,2023-08-16_08h38.16.592,HF_wild_card,2022.2.4,Win32,59.9880024,642b1c83e9a71c3d81d75b19,64d2fd46c836a06233681665,64dc7b4894becfe9b1f75cb8,,,,,,,sngl,resources/Empty.png,resources/DY.BMP,Door3,0.389814871,0.003703683,1,0,0,0.7691,optionRight,70,5065,3,2,0,2,0,1,,,,,,,,,,,,,,,,,,,,,,,,,,,,,,,,,,,,,,,
,,,,,,,,2023-08-16_08h38.16.592,HF_wild_card,2022.2.4,Win32,59.9880024,642b1c83e9a71c3d81d75b19,64d2fd46c836a06233681665,64dc7b4894becfe9b1f75cb8,,,,,,,ctch,resources/DY.BMP,resources/DP.BMP,Door2,0.344444416,0.032407407,1,0,0,1.4432,optionRight,40,5105,3,3,0,3,0,1,,,,,,,,,,,,,,,,,,,,,,,,,,,,,,,,,,,,,,,
,,,,,,,,2023-08-16_08h38.16.592,HF_wild_card,2022.2.4,Win32,59.9880024,642b1c83e9a71c3d81d75b19,64d2fd46c836a06233681665,64dc7b4894becfe9b1f75cb8,,,,,,,decisionTrl,resources/DB.BMP,resources/DP.BMP,WildCard_NonEx,-0.251851824,0.03611109,1,0,0,1.4426,optionLeft,45,5150,3,4,0,4,0,1,,,,,,,,,,,,,,,,,,,,,,,,,,,,,,,,,,,,,,,
,,,,,,,,2023-08-16_08h38.16.592,HF_wild_card,2022.2.4,Win32,59.9880024,642b1c83e9a71c3d81d75b19,64d2fd46c836a06233681665,64dc7b4894becfe9b1f75cb8,,,,,,,decisionTrl,resources/DY.BMP,resources/DB.BMP,Door3,-0.338888875,0.059259238,1,0,0,1.0936,optionLeft,70,5220,3,5,0,5,0,1,,,,,,,,,,,,,,,,,,,,,,,,,,,,,,,,,,,,,,,
,,,,,,,,2023-08-16_08h38.16.592,HF_wild_card,2022.2.4,Win32,59.9880024,642b1c83e9a71c3d81d75b19,64d2fd46c836a06233681665,64dc7b4894becfe9b1f75cb8,,,,,,,sngl,resources/Empty.png,resources/DBN.BMP,Door1,0.338888945,0.020370377,1,0,0,0.8938,optionRight,30,5250,3,6,0,6,0,1,,,,,,,,,,,,,,,,,,,,,,,,,,,,,,,,,,,,,,,
,,,,,,,,2023-08-16_08h38.16.592,HF_wild_card,2022.2.4,Win32,59.9880024,642b1c83e9a71c3d81d75b19,64d2fd46c836a06233681665,64dc7b4894becfe9b1f75cb8,,,,,,,decisionTrl,resources/DR.BMP,resources/DB.BMP,Door4,-0.5074074,0.032407407,1,0,0,1.3774,optionLeft,60,5310,3,7,0,7,0,1,,,,,,,,,,,,,,,,,,,,,,,,,,,,,,,,,,,,,,,
,,,,,,,,2023-08-16_08h38.16.592,HF_wild_card,2022.2.4,Win32,59.9880024,642b1c83e9a71c3d81d75b19,64d2fd46c836a06233681665,64dc7b4894becfe9b1f75cb8,,,,,,,ctch,resources/DY.BMP,resources/DP.BMP,Door3,-0.387962942,0.045370349,1,0,0,0.9105,optionLeft,70,5380,3,8,0,8,0,1,,,,,,,,,,,,,,,,,,,,,,,,,,,,,,,,,,,,,,,
,,,,,,,,2023-08-16_08h38.16.592,HF_wild_card,2022.2.4,Win32,59.9880024,642b1c83e9a71c3d81d75b19,64d2fd46c836a06233681665,64dc7b4894becfe9b1f75cb8,,,,,,,sngl,resources/Empty.png,resources/DP.BMP,Door2,0.437962991,-0.003703718,1,0,0,0.9272,optionRight,20,5400,3,9,0,9,0,1,,,,,,,,,,,,,,,,,,,,,,,,,,,,,,,,,,,,,,,
,,,,,,,,2023-08-16_08h38.16.592,HF_wild_card,2022.2.4,Win32,59.9880024,642b1c83e9a71c3d81d75b19,64d2fd46c836a06233681665,64dc7b4894becfe9b1f75cb8,,,,,,,ctch,resources/DBN.BMP,resources/DR.BMP,Door4,0.446296268,0,1,0,0,1.2251,optionRight,60,5460,3,10,0,10,0,1,,,,,,,,,,,,,,,,,,,,,,,,,,,,,,,,,,,,,,,
,,,,,,,,2023-08-16_08h38.16.592,HF_wild_card,2022.2.4,Win32,59.9880024,642b1c83e9a71c3d81d75b19,64d2fd46c836a06233681665,64dc7b4894becfe9b1f75cb8,,,,,,,decisionTrl,resources/DY.BMP,resources/DR.BMP,Door3,-0.372222229,-0.006481489,1,0,0,0.7439,optionLeft,70,5530,3,11,0,11,0,1,,,,,,,,,,,,,,,,,,,,,,,,,,,,,,,,,,,,,,,
,,,,,,,,2023-08-16_08h38.16.592,HF_wild_card,2022.2.4,Win32,59.9880024,642b1c83e9a71c3d81d75b19,64d2fd46c836a06233681665,64dc7b4894becfe9b1f75cb8,,,,,,,ctch,resources/DR.BMP,resources/DBN.BMP,Door4,-0.39166666,0.018518519,1,0,0,0.8108,optionLeft,80,5610,3,12,0,12,0,1,,,,,,,,,,,,,,,,,,,,,,,,,,,,,,,,,,,,,,,
,,,,,,,,2023-08-16_08h38.16.592,HF_wild_card,2022.2.4,Win32,59.9880024,642b1c83e9a71c3d81d75b19,64d2fd46c836a06233681665,64dc7b4894becfe9b1f75cb8,,,,,,,decisionTrl,resources/DY.BMP,resources/DR.BMP,Door4,0.416666667,0.032407407,1,0,0,1.4093,optionRight,60,5670,3,13,0,13,0,1,,,,,,,,,,,,,,,,,,,,,,,,,,,,,,,,,,,,,,,
,,,,,,,,2023-08-16_08h38.16.592,HF_wild_card,2022.2.4,Win32,59.9880024,642b1c83e9a71c3d81d75b19,64d2fd46c836a06233681665,64dc7b4894becfe9b1f75cb8,,,,,,,ctch,resources/DR.BMP,resources/DBN.BMP,Door4,-0.324074074,0.048148155,1,0,0,0.9437,optionLeft,80,5750,3,14,0,14,0,1,,,,,,,,,,,,,,,,,,,,,,,,,,,,,,,,,,,,,,,
,,,,,,,,2023-08-16_08h38.16.592,HF_wild_card,2022.2.4,Win32,59.9880024,642b1c83e9a71c3d81d75b19,64d2fd46c836a06233681665,64dc7b4894becfe9b1f75cb8,,,,,,,decisionTrl,resources/DB.BMP,resources/DR.BMP,Door4,0.405555584,0.018518519,1,0,0,1.3262,optionRight,60,5810,3,15,0,15,0,1,,,,,,,,,,,,,,,,,,,,,,,,,,,,,,,,,,,,,,,
,,,,,,,,2023-08-16_08h38.16.592,HF_wild_card,2022.2.4,Win32,59.9880024,642b1c83e9a71c3d81d75b19,64d2fd46c836a06233681665,64dc7b4894becfe9b1f75cb8,,,,,,,decisionTrl,resources/DBN.BMP,resources/DB.BMP,WildCard_NonEx,0.433333362,0.069444444,1,0,0,1.5013,optionRight,55,5865,3,16,0,16,0,1,,,,,,,,,,,,,,,,,,,,,,,,,,,,,,,,,,,,,,,
,,,,,,,,2023-08-16_08h38.16.592,HF_wild_card,2022.2.4,Win32,59.9880024,642b1c83e9a71c3d81d75b19,64d2fd46c836a06233681665,64dc7b4894becfe9b1f75cb8,,,,,,,ctch,resources/DP.BMP,resources/DY.BMP,Door3,0.464814787,0.068518497,1,0,0,1.1433,optionRight,70,5935,3,17,0,17,0,1,,,,,,,,,,,,,,,,,,,,,,,,,,,,,,,,,,,,,,,
,,,,,,,,2023-08-16_08h38.16.592,HF_wild_card,2022.2.4,Win32,59.9880024,642b1c83e9a71c3d81d75b19,64d2fd46c836a06233681665,64dc7b4894becfe9b1f75cb8,,,,,,,decisionTrl,resources/DP.BMP,resources/DBN.BMP,Door2,-0.393518519,0.043518526,1,0,0,1.3772,optionLeft,20,5955,3,18,0,18,0,1,,,,,,,,,,,,,,,,,,,,,,,,,,,,,,,,,,,,,,,
,,,,,,,,2023-08-16_08h38.16.592,HF_wild_card,2022.2.4,Win32,59.9880024,642b1c83e9a71c3d81d75b19,64d2fd46c836a06233681665,64dc7b4894becfe9b1f75cb8,,,,,,,sngl,resources/DB.BMP,resources/Empty.png,WildCard_NonEx,-0.242592564,0.041666667,1,0,0,0.8768,optionLeft,55,6010,3,19,0,19,0,1,,,,,,,,,,,,,,,,,,,,,,,,,,,,,,,,,,,,,,,
,,,,,,,,2023-08-16_08h38.16.592,HF_wild_card,2022.2.4,Win32,59.9880024,642b1c83e9a71c3d81d75b19,64d2fd46c836a06233681665,64dc7b4894becfe9b1f75cb8,,,,,,,ctch,resources/DP.BMP,resources/DY.BMP,Door3,0.377777806,0.046296296,1,0,0,1.0437,optionRight,70,6080,3,20,0,20,0,1,,,,,,,,,,,,,,,,,,,,,,,,,,,,,,,,,,,,,,,
,,,,,,,,2023-08-16_08h38.16.592,HF_wild_card,2022.2.4,Win32,59.9880024,642b1c83e9a71c3d81d75b19,64d2fd46c836a06233681665,64dc7b4894becfe9b1f75cb8,,,,,,,decisionTrl,resources/DBN.BMP,resources/DP.BMP,Door1,-0.54074072,0.113888882,1,0,0,2.5724,optionLeft,30,6110,3,21,0,21,0,1,,,,,,,,,,,,,,,,,,,,,,,,,,,,,,,,,,,,,,,
,,,,,,,,2023-08-16_08h38.16.592,HF_wild_card,2022.2.4,Win32,59.9880024,642b1c83e9a71c3d81d75b19,64d2fd46c836a06233681665,64dc7b4894becfe9b1f75cb8,,,,,,,decisionTrl,resources/DP.BMP,resources/DBN.BMP,Door1,0.450925898,0.087037016,1,0,0,1.8085,optionRight,30,6140,3,22,0,22,0,1,,,,,,,,,,,,,,,,,,,,,,,,,,,,,,,,,,,,,,,
,,,,,,,,2023-08-16_08h38.16.592,HF_wild_card,2022.2.4,Win32,59.9880024,642b1c83e9a71c3d81d75b19,64d2fd46c836a06233681665,64dc7b4894becfe9b1f75cb8,,,,,,,decisionTrl,resources/DY.BMP,resources/DR.BMP,Door3,-0.337962963,0.068518497,1,0,0,1.5261,optionLeft,70,6210,3,23,0,23,0,1,,,,,,,,,,,,,,,,,,,,,,,,,,,,,,,,,,,,,,,
,,,,,,,,2023-08-16_08h38.16.592,HF_wild_card,2022.2.4,Win32,59.9880024,642b1c83e9a71c3d81d75b19,64d2fd46c836a06233681665,64dc7b4894becfe9b1f75cb8,,,,,,,sngl,resources/Empty.png,resources/DB.BMP,WildCard_NonEx,0.262962977,0.023148148,1,0,0,1.3104,optionRight,55,6265,3,24,0,24,0,1,,,,,,,,,,,,,,,,,,,,,,,,,,,,,,,,,,,,,,,
,,,,,,,,2023-08-16_08h38.16.592,HF_wild_card,2022.2.4,Win32,59.9880024,642b1c83e9a71c3d81d75b19,64d2fd46c836a06233681665,64dc7b4894becfe9b1f75cb8,,,,,,,sngl,resources/Empty.png,resources/DR.BMP,Door4,0.299074102,-0.001851859,1,0,0,0.7279,optionRight,60,6325,3,25,0,25,0,1,,,,,,,,,,,,,,,,,,,,,,,,,,,,,,,,,,,,,,,
,,,,,,,,2023-08-16_08h38.16.592,HF_wild_card,2022.2.4,Win32,59.9880024,642b1c83e9a71c3d81d75b19,64d2fd46c836a06233681665,64dc7b4894becfe9b1f75cb8,,,,,,,sngl,resources/DR.BMP,resources/Empty.png,Door4,-0.373148141,0.053703697,1,0,0,0.6771,optionLeft,80,6405,3,26,0,26,0,1,,,,,,,,,,,,,,,,,,,,,,,,,,,,,,,,,,,,,,,
,,,,,,,,2023-08-16_08h38.16.592,HF_wild_card,2022.2.4,Win32,59.9880024,642b1c83e9a71c3d81d75b19,64d2fd46c836a06233681665,64dc7b4894becfe9b1f75cb8,,,,,,,ctch,resources/DBN.BMP,resources/DR.BMP,Door4,0.352777834,0.022222201,1,0,0,0.9767,optionRight,80,6485,3,27,0,27,0,1,,,,,,,,,,,,,,,,,,,,,,,,,,,,,,,,,,,,,,,
,,,,,,,,2023-08-16_08h38.16.592,HF_wild_card,2022.2.4,Win32,59.9880024,642b1c83e9a71c3d81d75b19,64d2fd46c836a06233681665,64dc7b4894becfe9b1f75cb8,,,,,,,decisionTrl,resources/DBN.BMP,resources/DP.BMP,Door1,-0.319444444,0.093518504,1,0,0,1.3106,optionLeft,30,6515,3,28,0,28,0,1,,,,,,,,,,,,,,,,,,,,,,,,,,,,,,,,,,,,,,,
,,,,,,,,2023-08-16_08h38.16.592,HF_wild_card,2022.2.4,Win32,59.9880024,642b1c83e9a71c3d81d75b19,64d2fd46c836a06233681665,64dc7b4894becfe9b1f75cb8,,,,,,,decisionTrl,resources/DB.BMP,resources/DBN.BMP,WildCard_NonEx,-0.287962949,0.075925933,1,0,0,1.0279,optionLeft,55,6570,3,29,0,29,0,1,,,,,,,,,,,,,,,,,,,,,,,,,,,,,,,,,,,,,,,
,,,,,,,,2023-08-16_08h38.16.592,HF_wild_card,2022.2.4,Win32,59.9880024,642b1c83e9a71c3d81d75b19,64d2fd46c836a06233681665,64dc7b4894becfe9b1f75cb8,,,,,,,sngl,resources/DY.BMP,resources/Empty.png,Door3,-0.324999986,0.03148146,1,0,0,0.6442,optionLeft,70,6640,3,30,0,30,0,1,,,,,,,,,,,,,,,,,,,,,,,,,,,,,,,,,,,,,,,
,,,,,,,,2023-08-16_08h38.16.592,HF_wild_card,2022.2.4,Win32,59.9880024,642b1c83e9a71c3d81d75b19,64d2fd46c836a06233681665,64dc7b4894becfe9b1f75cb8,,,,,,,decisionTrl,resources/DR.BMP,resources/DY.BMP,Door3,0.292592578,0.00462963,1,0,0,0.6775,optionRight,70,6710,3,31,0,31,0,1,,,,,,,,,,,,,,,,,,,,,,,,,,,,,,,,,,,,,,,
,,,,,,,,2023-08-16_08h38.16.592,HF_wild_card,2022.2.4,Win32,59.9880024,642b1c83e9a71c3d81d75b19,64d2fd46c836a06233681665,64dc7b4894becfe9b1f75cb8,,,,,,,sngl,resources/DB.BMP,resources/Empty.png,WildCard_NonEx,-0.297222208,0.013888889,1,0,0,0.9098,optionLeft,45,6755,3,32,0,32,0,1,,,,,,,,,,,,,,,,,,,,,,,,,,,,,,,,,,,,,,,
,,,,,,,,2023-08-16_08h38.16.592,HF_wild_card,2022.2.4,Win32,59.9880024,642b1c83e9a71c3d81d75b19,64d2fd46c836a06233681665,64dc7b4894becfe9b1f75cb8,,,,,,,decisionTrl,resources/DP.BMP,resources/DBN.BMP,Door1,0.316666638,0.02870369,1,0,0,1.6104,optionRight,30,6785,3,33,0,33,0,1,,,,,,,,,,,,,,,,,,,,,,,,,,,,,,,,,,,,,,,
,,,,,,,,2023-08-16_08h38.16.592,HF_wild_card,2022.2.4,Win32,59.9880024,642b1c83e9a71c3d81d75b19,64d2fd46c836a06233681665,64dc7b4894becfe9b1f75cb8,,,,,,,decisionTrl,resources/DR.BMP,resources/DY.BMP,Door3,0.452777863,0.074074074,1,0,0,0.9603,optionRight,70,6855,3,34,0,34,0,1,,,,,,,,,,,,,,,,,,,,,,,,,,,,,,,,,,,,,,,
,,,,,,,,2023-08-16_08h38.16.592,HF_wild_card,2022.2.4,Win32,59.9880024,642b1c83e9a71c3d81d75b19,64d2fd46c836a06233681665,64dc7b4894becfe9b1f75cb8,,,,,,,decisionTrl,resources/DR.BMP,resources/DY.BMP,Door3,0.299074102,0.058333326,1,0,0,0.8268,optionRight,70,6925,3,35,0,35,0,1,,,,,,,,,,,,,,,,,,,,,,,,,,,,,,,,,,,,,,,
,,,,,,,,2023-08-16_08h38.16.592,HF_wild_card,2022.2.4,Win32,59.9880024,642b1c83e9a71c3d81d75b19,64d2fd46c836a06233681665,64dc7b4894becfe9b1f75cb8,,,,,,,decisionTrl,resources/DBN.BMP,resources/DP.BMP,Door1,-0.270370342,0.084259245,1,0,0,2.3926,optionLeft,30,6955,3,36,0,36,0,1,,,,,,,,,,,,,,,,,,,,,,,,,,,,,,,,,,,,,,,
,,,,,,,,2023-08-16_08h38.16.592,HF_wild_card,2022.2.4,Win32,59.9880024,642b1c83e9a71c3d81d75b19,64d2fd46c836a06233681665,64dc7b4894becfe9b1f75cb8,,,,,,,decisionTrl,resources/DBN.BMP,resources/DP.BMP,Door1,-0.295370384,0.106481481,1,0,0,1.9064,optionLeft,30,6985,3,37,0,37,0,1,,,,,,,,,,,,,,,,,,,,,,,,,,,,,,,,,,,,,,,
,,,,,,,,2023-08-16_08h38.16.592,HF_wild_card,2022.2.4,Win32,59.9880024,642b1c83e9a71c3d81d75b19,64d2fd46c836a06233681665,64dc7b4894becfe9b1f75cb8,,,,,,,sngl,resources/DP.BMP,resources/Empty.png,Door2,-0.289814772,0.011111118,1,0,0,6.5913,optionLeft,40,7025,3,38,0,38,0,1,,,,,,,,,,,,,,,,,,,,,,,,,,,,,,,,,,,,,,,
,,,,,,,,2023-08-16_08h38.16.592,HF_wild_card,2022.2.4,Win32,59.9880024,642b1c83e9a71c3d81d75b19,64d2fd46c836a06233681665,64dc7b4894becfe9b1f75cb8,,,,,,,decisionTrl,resources/DP.BMP,resources/DB.BMP,WildCard_NonEx,0.353703675,0.014814801,1,0,0,0.9923,optionRight,45,7070,3,39,0,39,0,1,,,,,,,,,,,,,,,,,,,,,,,,,,,,,,,,,,,,,,,
,,,,,,,,2023-08-16_08h38.16.592,HF_wild_card,2022.2.4,Win32,59.9880024,642b1c83e9a71c3d81d75b19,64d2fd46c836a06233681665,64dc7b4894becfe9b1f75cb8,,,,,,,decisionTrl,resources/DP.BMP,resources/DBN.BMP,Door1,0.473148205,0.211111104,1,0,0,1.611,optionRight,30,7100,3,40,0,40,0,1,,,,,,,,,,,,,,,,,,,,,,,,,,,,,,,,,,,,,,,
,,,,,,,,2023-08-16_08h38.16.592,HF_wild_card,2022.2.4,Win32,59.9880024,642b1c83e9a71c3d81d75b19,64d2fd46c836a06233681665,64dc7b4894becfe9b1f75cb8,,,,,,,decisionTrl,resources/DB.BMP,resources/DY.BMP,WildCard_NonEx,-0.424074067,0.068518497,1,0,0,1.1441,optionLeft,55,7155,3,41,0,41,0,1,,,,,,,,,,,,,,,,,,,,,,,,,,,,,,,,,,,,,,,
,,,,,,,,2023-08-16_08h38.16.592,HF_wild_card,2022.2.4,Win32,59.9880024,642b1c83e9a71c3d81d75b19,64d2fd46c836a06233681665,64dc7b4894becfe9b1f75cb8,,,,,,,decisionTrl,resources/DY.BMP,resources/DR.BMP,Door3,-0.372222229,0.082407386,1,0,0,0.9937,optionLeft,70,7225,3,42,0,42,0,1,,,,,,,,,,,,,,,,,,,,,,,,,,,,,,,,,,,,,,,
,,,,,,,,2023-08-16_08h38.16.592,HF_wild_card,2022.2.4,Win32,59.9880024,642b1c83e9a71c3d81d75b19,64d2fd46c836a06233681665,64dc7b4894becfe9b1f75cb8,,,,,,,sngl,resources/Empty.png,resources/DB.BMP,WildCard_NonEx,0.337962963,0.01203703,1,0,0,1.1605,optionRight,45,7270,3,43,0,43,0,1,,,,,,,,,,,,,,,,,,,,,,,,,,,,,,,,,,,,,,,
,,,,,,,,2023-08-16_08h38.16.592,HF_wild_card,2022.2.4,Win32,59.9880024,642b1c83e9a71c3d81d75b19,64d2fd46c836a06233681665,64dc7b4894becfe9b1f75cb8,,,,,,,,,,,,,,,,,,,,,,,,,,2,0,2,0,1,,,,,,,,,,,,,,,,,,,,,,,,,,,,,,,,,,
,,,,,,,,2023-08-16_08h38.16.592,HF_wild_card,2022.2.4,Win32,59.9880024,642b1c83e9a71c3d81d75b19,64d2fd46c836a06233681665,64dc7b4894becfe9b1f75cb8,,,,,,,decisionTrl,resources/DP.BMP,resources/DG.BMP,WildCard_Ex,0.42314812,-0.082407422,1,0,0,5.6188,optionRight,95,7365,4,0,0,0,0,1,,,,,,,,,,,,,,,,,,,,,,,,,,,,,,,,,,,,,,,
,,,,,,,,2023-08-16_08h38.16.592,HF_wild_card,2022.2.4,Win32,59.9880024,642b1c83e9a71c3d81d75b19,64d2fd46c836a06233681665,64dc7b4894becfe9b1f75cb8,,,,,,,decisionTrl,resources/DY.BMP,resources/DR.BMP,Door3,-0.348148134,-0.017592607,1,0,0,2.1893,optionLeft,70,7435,4,1,0,1,0,1,,,,,,,,,,,,,,,,,,,,,,,,,,,,,,,,,,,,,,,
,,,,,,,,2023-08-16_08h38.16.592,HF_wild_card,2022.2.4,Win32,59.9880024,642b1c83e9a71c3d81d75b19,64d2fd46c836a06233681665,64dc7b4894becfe9b1f75cb8,,,,,,,sngl,resources/Empty.png,resources/DBN.BMP,Door1,0.277777778,-0.059259273,1,0,0,0.7193,optionRight,30,7465,4,2,0,2,0,1,,,,,,,,,,,,,,,,,,,,,,,,,,,,,,,,,,,,,,,
,,,,,,,,2023-08-16_08h38.16.592,HF_wild_card,2022.2.4,Win32,59.9880024,642b1c83e9a71c3d81d75b19,64d2fd46c836a06233681665,64dc7b4894becfe9b1f75cb8,,,,,,,decisionTrl,resources/DP.BMP,resources/DBN.BMP,Door2,-0.264814801,0.030555548,1,0,0,4.4662,optionLeft,20,7485,4,3,0,3,0,1,,,,,,,,,,,,,,,,,,,,,,,,,,,,,,,,,,,,,,,
,,,,,,,,2023-08-16_08h38.16.592,HF_wild_card,2022.2.4,Win32,59.9880024,642b1c83e9a71c3d81d75b19,64d2fd46c836a06233681665,64dc7b4894becfe9b1f75cb8,,,,,,,decisionTrl,resources/DBN.BMP,resources/DP.BMP,Door1,-0.229629587,0.046296296,1,0,0,2.4241,optionLeft,30,7515,4,4,0,4,0,1,,,,,,,,,,,,,,,,,,,,,,,,,,,,,,,,,,,,,,,
,,,,,,,,2023-08-16_08h38.16.592,HF_wild_card,2022.2.4,Win32,59.9880024,642b1c83e9a71c3d81d75b19,64d2fd46c836a06233681665,64dc7b4894becfe9b1f75cb8,,,,,,,sngl,resources/Empty.png,resources/DG.BMP,WildCard_Ex,0.346296381,0.000925912,1,0,0,1.8322,optionRight,5,7520,4,5,0,5,0,1,,,,,,,,,,,,,,,,,,,,,,,,,,,,,,,,,,,,,,,
,,,,,,,,2023-08-16_08h38.16.592,HF_wild_card,2022.2.4,Win32,59.9880024,642b1c83e9a71c3d81d75b19,64d2fd46c836a06233681665,64dc7b4894becfe9b1f75cb8,,,,,,,decisionTrl,resources/DBN.BMP,resources/DG.BMP,WildCard_Ex,0.263888889,0.009259259,1,0,0,1.5681,optionRight,95,7615,4,6,0,6,0,1,,,,,,,,,,,,,,,,,,,,,,,,,,,,,,,,,,,,,,,
,,,,,,,,2023-08-16_08h38.16.592,HF_wild_card,2022.2.4,Win32,59.9880024,642b1c83e9a71c3d81d75b19,64d2fd46c836a06233681665,64dc7b4894becfe9b1f75cb8,,,,,,,decisionTrl,resources/DG.BMP,resources/DP.BMP,WildCard_Ex,-0.355555534,0.015740748,1,0,0,3.185,optionLeft,95,7710,4,7,0,7,0,1,,,,,,,,,,,,,,,,,,,,,,,,,,,,,,,,,,,,,,,
,,,,,,,,2023-08-16_08h38.16.592,HF_wild_card,2022.2.4,Win32,59.9880024,642b1c83e9a71c3d81d75b19,64d2fd46c836a06233681665,64dc7b4894becfe9b1f75cb8,,,,,,,decisionTrl,resources/DBN.BMP,resources/DP.BMP,Door1,-0.37962963,0.043518526,1,0,0,3.6827,optionLeft,30,7740,4,8,0,8,0,1,,,,,,,,,,,,,,,,,,,,,,,,,,,,,,,,,,,,,,,
,,,,,,,,2023-08-16_08h38.16.592,HF_wild_card,2022.2.4,Win32,59.9880024,642b1c83e9a71c3d81d75b19,64d2fd46c836a06233681665,64dc7b4894becfe9b1f75cb8,,,,,,,sngl,resources/DP.BMP,resources/Empty.png,Door2,-0.299999979,-0.006481489,1,0,0,2.6256,optionLeft,20,7760,4,9,0,9,0,1,,,,,,,,,,,,,,,,,,,,,,,,,,,,,,,,,,,,,,,
,,,,,,,,2023-08-16_08h38.16.592,HF_wild_card,2022.2.4,Win32,59.9880024,642b1c83e9a71c3d81d75b19,64d2fd46c836a06233681665,64dc7b4894becfe9b1f75cb8,,,,,,,ctch,resources/DR.BMP,resources/DBN.BMP,Door4,-0.312037044,0.030555548,1,0,0,1.9275,optionLeft,60,7820,4,10,0,10,0,1,,,,,,,,,,,,,,,,,,,,,,,,,,,,,,,,,,,,,,,
,,,,,,,,2023-08-16_08h38.16.592,HF_wild_card,2022.2.4,Win32,59.9880024,642b1c83e9a71c3d81d75b19,64d2fd46c836a06233681665,64dc7b4894becfe9b1f75cb8,,,,,,,sngl,resources/Empty.png,resources/DG.BMP,WildCard_Ex,0.316666638,-0.000925947,1,0,0,12.1238,optionRight,95,7915,4,11,0,11,0,1,,,,,,,,,,,,,,,,,,,,,,,,,,,,,,,,,,,,,,,
,,,,,,,,2023-08-16_08h38.16.592,HF_wild_card,2022.2.4,Win32,59.9880024,642b1c83e9a71c3d81d75b19,64d2fd46c836a06233681665,64dc7b4894becfe9b1f75cb8,,,,,,,ctch,resources/DP.BMP,resources/DY.BMP,Door3,0.32222225,-0.025925919,1,0,0,2.6264,optionRight,70,7985,4,12,0,12,0,1,,,,,,,,,,,,,,,,,,,,,,,,,,,,,,,,,,,,,,,
,,,,,,,,2023-08-16_08h38.16.592,HF_wild_card,2022.2.4,Win32,59.9880024,642b1c83e9a71c3d81d75b19,64d2fd46c836a06233681665,64dc7b4894becfe9b1f75cb8,,,,,,,decisionTrl,resources/DP.BMP,resources/DBN.BMP,Door1,0.332407492,-0.171296296,1,0,0,3.203,optionRight,30,8015,4,13,0,13,0,1,,,,,,,,,,,,,,,,,,,,,,,,,,,,,,,,,,,,,,,
,,,,,,,,2023-08-16_08h38.16.592,HF_wild_card,2022.2.4,Win32,59.9880024,642b1c83e9a71c3d81d75b19,64d2fd46c836a06233681665,64dc7b4894becfe9b1f75cb8,,,,,,,sngl,resources/DY.BMP,resources/Empty.png,Door3,-0.235185199,0.01944443,1,0,0,0.8438,optionLeft,70,8085,4,14,0,14,0,1,,,,,,,,,,,,,,,,,,,,,,,,,,,,,,,,,,,,,,,
,,,,,,,,2023-08-16_08h38.16.592,HF_wild_card,2022.2.4,Win32,59.9880024,642b1c83e9a71c3d81d75b19,64d2fd46c836a06233681665,64dc7b4894becfe9b1f75cb8,,,,,,,decisionTrl,resources/DBN.BMP,resources/DP.BMP,Door1,-0.352777764,0.021296289,1,0,0,1.1852,optionLeft,30,8115,4,15,0,15,0,1,,,,,,,,,,,,,,,,,,,,,,,,,,,,,,,,,,,,,,,
,,,,,,,,2023-08-16_08h38.16.592,HF_wild_card,2022.2.4,Win32,59.9880024,642b1c83e9a71c3d81d75b19,64d2fd46c836a06233681665,64dc7b4894becfe9b1f75cb8,,,,,,,decisionTrl,resources/DR.BMP,resources/DG.BMP,Door4,-0.337037016,0,1,0,0,1.8094,optionLeft,80,8195,4,16,0,16,0,1,,,,,,,,,,,,,,,,,,,,,,,,,,,,,,,,,,,,,,,
,,,,,,,,2023-08-16_08h38.16.592,HF_wild_card,2022.2.4,Win32,59.9880024,642b1c83e9a71c3d81d75b19,64d2fd46c836a06233681665,64dc7b4894becfe9b1f75cb8,,,,,,,sngl,resources/DG.BMP,resources/Empty.png,WildCard_Ex,-0.37962963,0.04074072,1,0,0,1.8887,optionLeft,95,8290,4,17,0,17,0,1,,,,,,,,,,,,,,,,,,,,,,,,,,,,,,,,,,,,,,,
,,,,,,,,2023-08-16_08h38.16.592,HF_wild_card,2022.2.4,Win32,59.9880024,642b1c83e9a71c3d81d75b19,64d2fd46c836a06233681665,64dc7b4894becfe9b1f75cb8,,,,,,,decisionTrl,resources/DY.BMP,resources/DR.BMP,Door4,0.386111083,-0.128703718,1,0,0,3.1525,optionRight,60,8350,4,18,0,18,0,1,,,,,,,,,,,,,,,,,,,,,,,,,,,,,,,,,,,,,,,
,,,,,,,,2023-08-16_08h38.16.592,HF_wild_card,2022.2.4,Win32,59.9880024,642b1c83e9a71c3d81d75b19,64d2fd46c836a06233681665,64dc7b4894becfe9b1f75cb8,,,,,,,decisionTrl,resources/DG.BMP,resources/DY.BMP,WildCard_Ex,-0.292592578,0.006481489,1,0,0,5.2566,optionLeft,95,8445,4,19,0,19,0,1,,,,,,,,,,,,,,,,,,,,,,,,,,,,,,,,,,,,,,,
,,,,,,,,2023-08-16_08h38.16.592,HF_wild_card,2022.2.4,Win32,59.9880024,642b1c83e9a71c3d81d75b19,64d2fd46c836a06233681665,64dc7b4894becfe9b1f75cb8,,,,,,,ctch,resources/DY.BMP,resources/DP.BMP,Door3,-0.371296282,-0.000925947,1,0,0,1.314,optionLeft,70,8515,4,20,0,20,0,1,,,,,,,,,,,,,,,,,,,,,,,,,,,,,,,,,,,,,,,
,,,,,,,,2023-08-16_08h38.16.592,HF_wild_card,2022.2.4,Win32,59.9880024,642b1c83e9a71c3d81d75b19,64d2fd46c836a06233681665,64dc7b4894becfe9b1f75cb8,,,,,,,decisionTrl,resources/DP.BMP,resources/DBN.BMP,Door1,0.173148191,-0.019444466,1,0,0,4.6662,optionRight,30,8545,4,21,0,21,0,1,,,,,,,,,,,,,,,,,,,,,,,,,,,,,,,,,,,,,,,
,,,,,,,,2023-08-16_08h38.16.592,HF_wild_card,2022.2.4,Win32,59.9880024,642b1c83e9a71c3d81d75b19,64d2fd46c836a06233681665,64dc7b4894becfe9b1f75cb8,,,,,,,decisionTrl,resources/DP.BMP,resources/DBN.BMP,Door1,0.306481538,-0.009259259,1,0,0,16.5876,optionRight,30,8575,4,22,0,22,0,1,,,,,,,,,,,,,,,,,,,,,,,,,,,,,,,,,,,,,,,
,,,,,,,,2023-08-16_08h38.16.592,HF_wild_card,2022.2.4,Win32,59.9880024,642b1c83e9a71c3d81d75b19,64d2fd46c836a06233681665,64dc7b4894becfe9b1f75cb8,,,,,,,decisionTrl,resources/DR.BMP,resources/DY.BMP,Door3,0.365740741,-0.015740748,1,0,0,5.7739,optionRight,70,8645,4,23,0,23,0,1,,,,,,,,,,,,,,,,,,,,,,,,,,,,,,,,,,,,,,,
,,,,,,,,2023-08-16_08h38.16.592,HF_wild_card,2022.2.4,Win32,59.9880024,642b1c83e9a71c3d81d75b19,64d2fd46c836a06233681665,64dc7b4894becfe9b1f75cb8,,,,,,,decisionTrl,resources/DR.BMP,resources/DY.BMP,Door4,-0.362037023,-0.006481489,1,0,0,1.4102,optionLeft,60,8705,4,24,0,24,0,1,,,,,,,,,,,,,,,,,,,,,,,,,,,,,,,,,,,,,,,
,,,,,,,,2023-08-16_08h38.16.592,HF_wild_card,2022.2.4,Win32,59.9880024,642b1c83e9a71c3d81d75b19,64d2fd46c836a06233681665,64dc7b4894becfe9b1f75cb8,,,,,,,sngl,resources/DG.BMP,resources/Empty.png,WildCard_Ex,-0.246296282,0.02407406,1,0,0,1.078,optionLeft,5,8710,4,25,0,25,0,1,,,,,,,,,,,,,,,,,,,,,,,,,,,,,,,,,,,,,,,
,,,,,,,,2023-08-16_08h38.16.592,HF_wild_card,2022.2.4,Win32,59.9880024,642b1c83e9a71c3d81d75b19,64d2fd46c836a06233681665,64dc7b4894becfe9b1f75cb8,,,,,,,decisionTrl,resources/DY.BMP,resources/DR.BMP,Door3,-0.393518519,-0.018518519,1,0,0,1.8078,optionLeft,70,8780,4,26,0,26,0,1,,,,,,,,,,,,,,,,,,,,,,,,,,,,,,,,,,,,,,,
,,,,,,,,2023-08-16_08h38.16.592,HF_wild_card,2022.2.4,Win32,59.9880024,642b1c83e9a71c3d81d75b19,64d2fd46c836a06233681665,64dc7b4894becfe9b1f75cb8,,,,,,,sngl,resources/DR.BMP,resources/Empty.png,Door4,-0.372222229,0.006481489,1,0,0,0.7238,optionLeft,60,8840,4,27,0,27,0,1,,,,,,,,,,,,,,,,,,,,,,,,,,,,,,,,,,,,,,,
,,,,,,,,2023-08-16_08h38.16.592,HF_wild_card,2022.2.4,Win32,59.9880024,642b1c83e9a71c3d81d75b19,64d2fd46c836a06233681665,64dc7b4894becfe9b1f75cb8,,,,,,,sngl,resources/DBN.BMP,resources/Empty.png,Door1,-0.299999979,0.013888889,1,0,0,0.7434,optionLeft,30,8870,4,28,0,28,0,1,,,,,,,,,,,,,,,,,,,,,,,,,,,,,,,,,,,,,,,
,,,,,,,,2023-08-16_08h38.16.592,HF_wild_card,2022.2.4,Win32,59.9880024,642b1c83e9a71c3d81d75b19,64d2fd46c836a06233681665,64dc7b4894becfe9b1f75cb8,,,,,,,ctch,resources/DBN.BMP,resources/DR.BMP,Door4,0.299074102,-0.010185206,1,0,0,1.0099,optionRight,80,8950,4,29,0,29,0,1,,,,,,,,,,,,,,,,,,,,,,,,,,,,,,,,,,,,,,,
,,,,,,,,2023-08-16_08h38.16.592,HF_wild_card,2022.2.4,Win32,59.9880024,642b1c83e9a71c3d81d75b19,64d2fd46c836a06233681665,64dc7b4894becfe9b1f75cb8,,,,,,,decisionTrl,resources/DG.BMP,resources/DR.BMP,WildCard_Ex,-0.373148141,0.02407406,1,0,0,2.2422,optionLeft,95,9045,4,30,0,30,0,1,,,,,,,,,,,,,,,,,,,,,,,,,,,,,,,,,,,,,,,
,,,,,,,,2023-08-16_08h38.16.592,HF_wild_card,2022.2.4,Win32,59.9880024,642b1c83e9a71c3d81d75b19,64d2fd46c836a06233681665,64dc7b4894becfe9b1f75cb8,,,,,,,sngl,resources/Empty.png,resources/DR.BMP,Door4,0.381481453,-0.028703725,1,0,0,0.8271,optionRight,80,9125,4,31,0,31,0,1,,,,,,,,,,,,,,,,,,,,,,,,,,,,,,,,,,,,,,,
,,,,,,,,2023-08-16_08h38.16.592,HF_wild_card,2022.2.4,Win32,59.9880024,642b1c83e9a71c3d81d75b19,64d2fd46c836a06233681665,64dc7b4894becfe9b1f75cb8,,,,,,,sngl,resources/Empty.png,resources/DY.BMP,Door3,0.453703704,0.005555541,1,0,0,0.8156,optionRight,70,9195,4,32,0,32,0,1,,,,,,,,,,,,,,,,,,,,,,,,,,,,,,,,,,,,,,,
,,,,,,,,2023-08-16_08h38.16.592,HF_wild_card,2022.2.4,Win32,59.9880024,642b1c83e9a71c3d81d75b19,64d2fd46c836a06233681665,64dc7b4894becfe9b1f75cb8,,,,,,,decisionTrl,resources/DR.BMP,resources/DY.BMP,Door4,-0.338888875,0.005555541,1,0,0,0.7445,optionLeft,80,9275,4,33,0,33,0,1,,,,,,,,,,,,,,,,,,,,,,,,,,,,,,,,,,,,,,,
,,,,,,,,2023-08-16_08h38.16.592,HF_wild_card,2022.2.4,Win32,59.9880024,642b1c83e9a71c3d81d75b19,64d2fd46c836a06233681665,64dc7b4894becfe9b1f75cb8,,,,,,,ctch,resources/DR.BMP,resources/DBN.BMP,Door4,-0.361111111,0.043518526,1,0,0,0.9594,optionLeft,60,9335,4,34,0,34,0,1,,,,,,,,,,,,,,,,,,,,,,,,,,,,,,,,,,,,,,,
,,,,,,,,2023-08-16_08h38.16.592,HF_wild_card,2022.2.4,Win32,59.9880024,642b1c83e9a71c3d81d75b19,64d2fd46c836a06233681665,64dc7b4894becfe9b1f75cb8,,,,,,,decisionTrl,resources/DBN.BMP,resources/DP.BMP,Door1,-0.375,0.056481467,1,0,0,1.3268,optionLeft,30,9365,4,35,0,35,0,1,,,,,,,,,,,,,,,,,,,,,,,,,,,,,,,,,,,,,,,
,,,,,,,,2023-08-16_08h38.16.592,HF_wild_card,2022.2.4,Win32,59.9880024,642b1c83e9a71c3d81d75b19,64d2fd46c836a06233681665,64dc7b4894becfe9b1f75cb8,,,,,,,decisionTrl,resources/DY.BMP,resources/DR.BMP,Door4,0.367592564,0.002777771,1,0,0,2.4846,optionRight,80,9445,4,36,0,36,0,1,,,,,,,,,,,,,,,,,,,,,,,,,,,,,,,,,,,,,,,
,,,,,,,,2023-08-16_08h38.16.592,HF_wild_card,2022.2.4,Win32,59.9880024,642b1c83e9a71c3d81d75b19,64d2fd46c836a06233681665,64dc7b4894becfe9b1f75cb8,,,,,,,ctch,resources/DBN.BMP,resources/DR.BMP,Door4,0.376851824,-0.008333347,1,0,0,0.9802,optionRight,80,9525,4,37,0,37,0,1,,,,,,,,,,,,,,,,,,,,,,,,,,,,,,,,,,,,,,,
,,,,,,,,2023-08-16_08h38.16.592,HF_wild_card,2022.2.4,Win32,59.9880024,642b1c83e9a71c3d81d75b19,64d2fd46c836a06233681665,64dc7b4894becfe9b1f75cb8,,,,,,,sngl,resources/Empty.png,resources/DP.BMP,Door2,0.444444444,0.029629637,1,0,0,0.7228,optionRight,40,9565,4,38,0,38,0,1,,,,,,,,,,,,,,,,,,,,,,,,,,,,,,,,,,,,,,,
,,,,,,,,2023-08-16_08h38.16.592,HF_wild_card,2022.2.4,Win32,59.9880024,642b1c83e9a71c3d81d75b19,64d2fd46c836a06233681665,64dc7b4894becfe9b1f75cb8,,,,,,,decisionTrl,resources/DY.BMP,resources/DG.BMP,WildCard_Ex,0.41851849,-0.113888917,1,0,0,110.065,optionRight,5,9570,4,39,0,39,0,1,,,,,,,,,,,,,,,,,,,,,,,,,,,,,,,,,,,,,,,
,,,,,,,,2023-08-16_08h38.16.592,HF_wild_card,2022.2.4,Win32,59.9880024,642b1c83e9a71c3d81d75b19,64d2fd46c836a06233681665,64dc7b4894becfe9b1f75cb8,,,,,,,ctch,resources/DY.BMP,resources/DP.BMP,Door3,-0.217592593,-0.028703725,1,0,0,1.2948,optionLeft,70,9640,4,40,0,40,0,1,,,,,,,,,,,,,,,,,,,,,,,,,,,,,,,,,,,,,,,
,,,,,,,,2023-08-16_08h38.16.592,HF_wild_card,2022.2.4,Win32,59.9880024,642b1c83e9a71c3d81d75b19,64d2fd46c836a06233681665,64dc7b4894becfe9b1f75cb8,,,,,,,ctch,resources/DP.BMP,resources/DY.BMP,Door3,0.351851852,-0.003703718,1,0,0,1.2069,optionRight,70,9710,4,41,0,41,0,1,,,,,,,,,,,,,,,,,,,,,,,,,,,,,,,,,,,,,,,
,,,,,,,,2023-08-16_08h38.16.592,HF_wild_card,2022.2.4,Win32,59.9880024,642b1c83e9a71c3d81d75b19,64d2fd46c836a06233681665,64dc7b4894becfe9b1f75cb8,,,,,,,decisionTrl,resources/DR.BMP,resources/DY.BMP,Door4,-0.357407393,0.049999979,1,0,0,1.8417,optionLeft,60,9770,4,42,0,42,0,1,,,,,,,,,,,,,,,,,,,,,,,,,,,,,,,,,,,,,,,
,,,,,,,,2023-08-16_08h38.16.592,HF_wild_card,2022.2.4,Win32,59.9880024,642b1c83e9a71c3d81d75b19,64d2fd46c836a06233681665,64dc7b4894becfe9b1f75cb8,,,,,,,decisionTrl,resources/DG.BMP,resources/DBN.BMP,WildCard_Ex,-0.331481474,0.010185171,1,0,0,1.2642,optionLeft,5,9775,4,43,0,43,0,1,,,,,,,,,,,,,,,,,,,,,,,,,,,,,,,,,,,,,,,
,,,,,,,,2023-08-16_08h38.16.592,HF_wild_card,2022.2.4,Win32,59.9880024,642b1c83e9a71c3d81d75b19,64d2fd46c836a06233681665,64dc7b4894becfe9b1f75cb8,,,,,,,,,,,,,,,,,,,,,,,,,,3,0,3,0,1,,,,,,,,,,,,,,,,,,,,,,,,,,,,,,,,,,
,,,,,,,,2023-08-16_08h38.16.592,HF_wild_card,2022.2.4,Win32,59.9880024,642b1c83e9a71c3d81d75b19,64d2fd46c836a06233681665,64dc7b4894becfe9b1f75cb8,,,,,,,decisionTrl,resources/DP.BMP,resources/DBN.BMP,Door1,0.342592593,-0.031481496,1,0,0,1.7039,optionRight,30,9805,5,0,0,0,0,1,,,,,,,,,,,,,,,,,,,,,,,,,,,,,,,,,,,,,,,
,,,,,,,,2023-08-16_08h38.16.592,HF_wild_card,2022.2.4,Win32,59.9880024,642b1c83e9a71c3d81d75b19,64d2fd46c836a06233681665,64dc7b4894becfe9b1f75cb8,,,,,,,sngl,resources/Empty.png,resources/DG.BMP,WildCard_Ex,0.341666751,-0.006481489,1,0,0,0.827,optionRight,5,9810,5,1,0,1,0,1,,,,,,,,,,,,,,,,,,,,,,,,,,,,,,,,,,,,,,,
,,,,,,,,2023-08-16_08h38.16.592,HF_wild_card,2022.2.4,Win32,59.9880024,642b1c83e9a71c3d81d75b19,64d2fd46c836a06233681665,64dc7b4894becfe9b1f75cb8,,,,,,,decisionTrl,resources/DR.BMP,resources/DY.BMP,Door3,0.312037009,0.020370377,1,0,0,2.2273,optionRight,70,9880,5,2,0,2,0,1,,,,,,,,,,,,,,,,,,,,,,,,,,,,,,,,,,,,,,,
,,,,,,,,2023-08-16_08h38.16.592,HF_wild_card,2022.2.4,Win32,59.9880024,642b1c83e9a71c3d81d75b19,64d2fd46c836a06233681665,64dc7b4894becfe9b1f75cb8,,,,,,,decisionTrl,resources/DBN.BMP,resources/DP.BMP,Door1,-0.346296275,0.072222215,1,0,0,1.5433,optionLeft,30,9910,5,3,0,3,0,1,,,,,,,,,,,,,,,,,,,,,,,,,,,,,,,,,,,,,,,
,,,,,,,,2023-08-16_08h38.16.592,HF_wild_card,2022.2.4,Win32,59.9880024,642b1c83e9a71c3d81d75b19,64d2fd46c836a06233681665,64dc7b4894becfe9b1f75cb8,,,,,,,decisionTrl,resources/DY.BMP,resources/DG.BMP,Door3,-0.463888875,0.084259245,1,0,0,1.5095,optionLeft,70,9980,5,4,0,4,0,1,,,,,,,,,,,,,,,,,,,,,,,,,,,,,,,,,,,,,,,
,,,,,,,,2023-08-16_08h38.16.592,HF_wild_card,2022.2.4,Win32,59.9880024,642b1c83e9a71c3d81d75b19,64d2fd46c836a06233681665,64dc7b4894becfe9b1f75cb8,,,,,,,decisionTrl,resources/DY.BMP,resources/DR.BMP,Door4,0.450000057,-0.008333347,1,0,0,1.1604,optionRight,80,10060,5,5,0,5,0,1,,,,,,,,,,,,,,,,,,,,,,,,,,,,,,,,,,,,,,,
,,,,,,,,2023-08-16_08h38.16.592,HF_wild_card,2022.2.4,Win32,59.9880024,642b1c83e9a71c3d81d75b19,64d2fd46c836a06233681665,64dc7b4894becfe9b1f75cb8,,,,,,,sngl,resources/DR.BMP,resources/Empty.png,Door4,-0.307407414,0.071296303,1,0,0,0.661,optionLeft,80,10140,5,6,0,6,0,1,,,,,,,,,,,,,,,,,,,,,,,,,,,,,,,,,,,,,,,
,,,,,,,,2023-08-16_08h38.16.592,HF_wild_card,2022.2.4,Win32,59.9880024,642b1c83e9a71c3d81d75b19,64d2fd46c836a06233681665,64dc7b4894becfe9b1f75cb8,,,,,,,sngl,resources/DG.BMP,resources/Empty.png,WildCard_Ex,-0.244444459,0.027777778,1,0,0,0.811,optionLeft,5,10145,5,7,0,7,0,1,,,,,,,,,,,,,,,,,,,,,,,,,,,,,,,,,,,,,,,
,,,,,,,,2023-08-16_08h38.16.592,HF_wild_card,2022.2.4,Win32,59.9880024,642b1c83e9a71c3d81d75b19,64d2fd46c836a06233681665,64dc7b4894becfe9b1f75cb8,,,,,,,sngl,resources/Empty.png,resources/DP.BMP,Door2,0.27407406,-0.017592607,1,0,0,1.244,optionRight,20,10165,5,8,0,8,0,1,,,,,,,,,,,,,,,,,,,,,,,,,,,,,,,,,,,,,,,
,,,,,,,,2023-08-16_08h38.16.592,HF_wild_card,2022.2.4,Win32,59.9880024,642b1c83e9a71c3d81d75b19,64d2fd46c836a06233681665,64dc7b4894becfe9b1f75cb8,,,,,,,sngl,resources/DP.BMP,resources/Empty.png,Door2,-0.273148148,0.032407407,1,0,0,0.6435,optionLeft,40,10205,5,9,0,9,0,1,,,,,,,,,,,,,,,,,,,,,,,,,,,,,,,,,,,,,,,
,,,,,,,,2023-08-16_08h38.16.592,HF_wild_card,2022.2.4,Win32,59.9880024,642b1c83e9a71c3d81d75b19,64d2fd46c836a06233681665,64dc7b4894becfe9b1f75cb8,,,,,,,decisionTrl,resources/DG.BMP,resources/DR.BMP,Door4,0.387037065,0.011111118,1,0,0,3.4422,optionRight,80,10285,5,10,0,10,0,1,,,,,,,,,,,,,,,,,,,,,,,,,,,,,,,,,,,,,,,
,,,,,,,,2023-08-16_08h38.16.592,HF_wild_card,2022.2.4,Win32,59.9880024,642b1c83e9a71c3d81d75b19,64d2fd46c836a06233681665,64dc7b4894becfe9b1f75cb8,,,,,,,decisionTrl,resources/DBN.BMP,resources/DP.BMP,Door1,-0.305555556,0.079629616,1,0,0,1.2581,optionLeft,30,10315,5,11,0,11,0,1,,,,,,,,,,,,,,,,,,,,,,,,,,,,,,,,,,,,,,,
,,,,,,,,2023-08-16_08h38.16.592,HF_wild_card,2022.2.4,Win32,59.9880024,642b1c83e9a71c3d81d75b19,64d2fd46c836a06233681665,64dc7b4894becfe9b1f75cb8,,,,,,,decisionTrl,resources/DBN.BMP,resources/DP.BMP,Door1,-0.401851831,0.178703697,1,0,0,1.4105,optionLeft,30,10345,5,12,0,12,0,1,,,,,,,,,,,,,,,,,,,,,,,,,,,,,,,,,,,,,,,
,,,,,,,,2023-08-16_08h38.16.592,HF_wild_card,2022.2.4,Win32,59.9880024,642b1c83e9a71c3d81d75b19,64d2fd46c836a06233681665,64dc7b4894becfe9b1f75cb8,,,,,,,decisionTrl,resources/DP.BMP,resources/DBN.BMP,Door2,-0.340740734,0.074999986,1,0,0,0.9161,optionLeft,20,10365,5,13,0,13,0,1,,,,,,,,,,,,,,,,,,,,,,,,,,,,,,,,,,,,,,,
,,,,,,,,2023-08-16_08h38.16.592,HF_wild_card,2022.2.4,Win32,59.9880024,642b1c83e9a71c3d81d75b19,64d2fd46c836a06233681665,64dc7b4894becfe9b1f75cb8,,,,,,,decisionTrl,resources/DR.BMP,resources/DY.BMP,Door3,0.336111139,0.063888868,1,0,0,1.274,optionRight,70,10435,5,14,0,14,0,1,,,,,,,,,,,,,,,,,,,,,,,,,,,,,,,,,,,,,,,
,,,,,,,,2023-08-16_08h38.16.592,HF_wild_card,2022.2.4,Win32,59.9880024,642b1c83e9a71c3d81d75b19,64d2fd46c836a06233681665,64dc7b4894becfe9b1f75cb8,,,,,,,sngl,resources/DG.BMP,resources/Empty.png,WildCard_Ex,-0.303703697,0.060185185,1,0,0,0.727,optionLeft,95,10530,5,15,0,15,0,1,,,,,,,,,,,,,,,,,,,,,,,,,,,,,,,,,,,,,,,
,,,,,,,,2023-08-16_08h38.16.592,HF_wild_card,2022.2.4,Win32,59.9880024,642b1c83e9a71c3d81d75b19,64d2fd46c836a06233681665,64dc7b4894becfe9b1f75cb8,,,,,,,ctch,resources/DP.BMP,resources/DY.BMP,Door3,0.437037009,-0.069444444,1,0,0,35.1322,optionRight,70,10600,5,16,0,16,0,1,,,,,,,,,,,,,,,,,,,,,,,,,,,,,,,,,,,,,,,
,,,,,,,,2023-08-16_08h38.16.592,HF_wild_card,2022.2.4,Win32,59.9880024,642b1c83e9a71c3d81d75b19,64d2fd46c836a06233681665,64dc7b4894becfe9b1f75cb8,,,,,,,decisionTrl,resources/DP.BMP,resources/DG.BMP,WildCard_Ex,0.350926011,-0.001851859,1,0,0,1.5431,optionRight,95,10695,5,17,0,17,0,1,,,,,,,,,,,,,,,,,,,,,,,,,,,,,,,,,,,,,,,
,,,,,,,,2023-08-16_08h38.16.592,HF_wild_card,2022.2.4,Win32,59.9880024,642b1c83e9a71c3d81d75b19,64d2fd46c836a06233681665,64dc7b4894becfe9b1f75cb8,,,,,,,ctch,resources/DBN.BMP,resources/DR.BMP,Door4,0.437962991,0.009259259,1,0,0,0.9759,optionRight,60,10755,5,18,0,18,0,1,,,,,,,,,,,,,,,,,,,,,,,,,,,,,,,,,,,,,,,
,,,,,,,,2023-08-16_08h38.16.592,HF_wild_card,2022.2.4,Win32,59.9880024,642b1c83e9a71c3d81d75b19,64d2fd46c836a06233681665,64dc7b4894becfe9b1f75cb8,,,,,,,decisionTrl,resources/DY.BMP,resources/DR.BMP,Door3,-0.326851845,0.033333319,1,0,0,1.4106,optionLeft,70,10825,5,19,0,19,0,1,,,,,,,,,,,,,,,,,,,,,,,,,,,,,,,,,,,,,,,
,,,,,,,,2023-08-16_08h38.16.592,HF_wild_card,2022.2.4,Win32,59.9880024,642b1c83e9a71c3d81d75b19,64d2fd46c836a06233681665,64dc7b4894becfe9b1f75cb8,,,,,,,ctch,resources/DR.BMP,resources/DBN.BMP,Door4,-0.417592578,0.002777771,1,0,0,0.8277,optionLeft,80,10905,5,20,0,20,0,1,,,,,,,,,,,,,,,,,,,,,,,,,,,,,,,,,,,,,,,
,,,,,,,,2023-08-16_08h38.16.592,HF_wild_card,2022.2.4,Win32,59.9880024,642b1c83e9a71c3d81d75b19,64d2fd46c836a06233681665,64dc7b4894becfe9b1f75cb8,,,,,,,decisionTrl,resources/DP.BMP,resources/DBN.BMP,Door1,0.366666723,0.041666667,1,0,0,2.026,optionRight,30,10935,5,21,0,21,0,1,,,,,,,,,,,,,,,,,,,,,,,,,,,,,,,,,,,,,,,
,,,,,,,,2023-08-16_08h38.16.592,HF_wild_card,2022.2.4,Win32,59.9880024,642b1c83e9a71c3d81d75b19,64d2fd46c836a06233681665,64dc7b4894becfe9b1f75cb8,,,,,,,ctch,resources/DY.BMP,resources/DP.BMP,Door3,-0.299074067,0.038888896,1,0,0,0.7753,optionLeft,70,11005,5,22,0,22,0,1,,,,,,,,,,,,,,,,,,,,,,,,,,,,,,,,,,,,,,,
,,,,,,,,2023-08-16_08h38.16.592,HF_wild_card,2022.2.4,Win32,59.9880024,642b1c83e9a71c3d81d75b19,64d2fd46c836a06233681665,64dc7b4894becfe9b1f75cb8,,,,,,,decisionTrl,resources/DP.BMP,resources/DBN.BMP,Door1,0.32222225,0.01666666,1,0,0,3.0925,optionRight,30,11035,5,23,0,23,0,1,,,,,,,,,,,,,,,,,,,,,,,,,,,,,,,,,,,,,,,
,,,,,,,,2023-08-16_08h38.16.592,HF_wild_card,2022.2.4,Win32,59.9880024,642b1c83e9a71c3d81d75b19,64d2fd46c836a06233681665,64dc7b4894becfe9b1f75cb8,,,,,,,sngl,resources/Empty.png,resources/DR.BMP,Door4,0.369444529,0.005555541,1,0,0,1.0562,optionRight,60,11095,5,24,0,24,0,1,,,,,,,,,,,,,,,,,,,,,,,,,,,,,,,,,,,,,,,
,,,,,,,,2023-08-16_08h38.16.592,HF_wild_card,2022.2.4,Win32,59.9880024,642b1c83e9a71c3d81d75b19,64d2fd46c836a06233681665,64dc7b4894becfe9b1f75cb8,,,,,,,decisionTrl,resources/DY.BMP,resources/DR.BMP,Door3,-0.330555563,0.027777778,1,0,0,1.1888,optionLeft,70,11165,5,25,0,25,0,1,,,,,,,,,,,,,,,,,,,,,,,,,,,,,,,,,,,,,,,
,,,,,,,,2023-08-16_08h38.16.592,HF_wild_card,2022.2.4,Win32,59.9880024,642b1c83e9a71c3d81d75b19,64d2fd46c836a06233681665,64dc7b4894becfe9b1f75cb8,,,,,,,sngl,resources/Empty.png,resources/DY.BMP,Door3,0.500925982,0.010185171,1,0,0,0.8425,optionRight,70,11235,5,26,0,26,0,1,,,,,,,,,,,,,,,,,,,,,,,,,,,,,,,,,,,,,,,
,,,,,,,,2023-08-16_08h38.16.592,HF_wild_card,2022.2.4,Win32,59.9880024,642b1c83e9a71c3d81d75b19,64d2fd46c836a06233681665,64dc7b4894becfe9b1f75cb8,,,,,,,decisionTrl,resources/DG.BMP,resources/DY.BMP,WildCard_Ex,-0.27870369,0.049999979,1,0,0,1.2102,optionLeft,5,11240,5,27,0,27,0,1,,,,,,,,,,,,,,,,,,,,,,,,,,,,,,,,,,,,,,,
,,,,,,,,2023-08-16_08h38.16.592,HF_wild_card,2022.2.4,Win32,59.9880024,642b1c83e9a71c3d81d75b19,64d2fd46c836a06233681665,64dc7b4894becfe9b1f75cb8,,,,,,,decisionTrl,resources/DG.BMP,resources/DBN.BMP,WildCard_Ex,-0.400000007,0.061111097,1,0,0,1.342,optionLeft,5,11245,5,28,0,28,0,1,,,,,,,,,,,,,,,,,,,,,,,,,,,,,,,,,,,,,,,
,,,,,,,,2023-08-16_08h38.16.592,HF_wild_card,2022.2.4,Win32,59.9880024,642b1c83e9a71c3d81d75b19,64d2fd46c836a06233681665,64dc7b4894becfe9b1f75cb8,,,,,,,decisionTrl,resources/DR.BMP,resources/DY.BMP,Door3,0.381481453,0.025925919,1,0,0,0.7788,optionRight,70,11315,5,29,0,29,0,1,,,,,,,,,,,,,,,,,,,,,,,,,,,,,,,,,,,,,,,
,,,,,,,,2023-08-16_08h38.16.592,HF_wild_card,2022.2.4,Win32,59.9880024,642b1c83e9a71c3d81d75b19,64d2fd46c836a06233681665,64dc7b4894becfe9b1f75cb8,,,,,,,decisionTrl,resources/DG.BMP,resources/DP.BMP,WildCard_Ex,-0.39166666,0.049074067,1,0,0,1.5102,optionLeft,95,11410,5,30,0,30,0,1,,,,,,,,,,,,,,,,,,,,,,,,,,,,,,,,,,,,,,,
,,,,,,,,2023-08-16_08h38.16.592,HF_wild_card,2022.2.4,Win32,59.9880024,642b1c83e9a71c3d81d75b19,64d2fd46c836a06233681665,64dc7b4894becfe9b1f75cb8,,,,,,,sngl,resources/DBN.BMP,resources/Empty.png,Door1,-0.335185192,0.044444437,1,0,0,0.9758,optionLeft,30,11440,5,31,0,31,0,1,,,,,,,,,,,,,,,,,,,,,,,,,,,,,,,,,,,,,,,
,,,,,,,,2023-08-16_08h38.16.592,HF_wild_card,2022.2.4,Win32,59.9880024,642b1c83e9a71c3d81d75b19,64d2fd46c836a06233681665,64dc7b4894becfe9b1f75cb8,,,,,,,decisionTrl,resources/DBN.BMP,resources/DG.BMP,WildCard_Ex,0.450925898,0.072222215,1,0,0,1.7264,optionRight,5,11445,5,32,0,32,0,1,,,,,,,,,,,,,,,,,,,,,,,,,,,,,,,,,,,,,,,
,,,,,,,,2023-08-16_08h38.16.592,HF_wild_card,2022.2.4,Win32,59.9880024,642b1c83e9a71c3d81d75b19,64d2fd46c836a06233681665,64dc7b4894becfe9b1f75cb8,,,,,,,sngl,resources/Empty.png,resources/DG.BMP,WildCard_Ex,0.501851824,0.051851838,1,0,0,0.7804,optionRight,95,11540,5,33,0,33,0,1,,,,,,,,,,,,,,,,,,,,,,,,,,,,,,,,,,,,,,,
,,,,,,,,2023-08-16_08h38.16.592,HF_wild_card,2022.2.4,Win32,59.9880024,642b1c83e9a71c3d81d75b19,64d2fd46c836a06233681665,64dc7b4894becfe9b1f75cb8,,,,,,,decisionTrl,resources/DBN.BMP,resources/DP.BMP,Door1,-0.39166666,0.125,1,0,0,4.1385,optionLeft,30,11570,5,34,0,34,0,1,,,,,,,,,,,,,,,,,,,,,,,,,,,,,,,,,,,,,,,
,,,,,,,,2023-08-16_08h38.16.592,HF_wild_card,2022.2.4,Win32,59.9880024,642b1c83e9a71c3d81d75b19,64d2fd46c836a06233681665,64dc7b4894becfe9b1f75cb8,,,,,,,ctch,resources/DP.BMP,resources/DY.BMP,Door3,0.343518575,0.147222201,1,0,0,1.3794,optionRight,70,11640,5,35,0,35,0,1,,,,,,,,,,,,,,,,,,,,,,,,,,,,,,,,,,,,,,,
,,,,,,,,2023-08-16_08h38.16.592,HF_wild_card,2022.2.4,Win32,59.9880024,642b1c83e9a71c3d81d75b19,64d2fd46c836a06233681665,64dc7b4894becfe9b1f75cb8,,,,,,,ctch,resources/DBN.BMP,resources/DR.BMP,Door4,0.339814787,0.162962949,1,0,0,1.1938,optionRight,80,11720,5,36,0,36,0,1,,,,,,,,,,,,,,,,,,,,,,,,,,,,,,,,,,,,,,,
,,,,,,,,2023-08-16_08h38.16.592,HF_wild_card,2022.2.4,Win32,59.9880024,642b1c83e9a71c3d81d75b19,64d2fd46c836a06233681665,64dc7b4894becfe9b1f75cb8,,,,,,,decisionTrl,resources/DY.BMP,resources/DR.BMP,Door4,0.353703675,0.095370363,1,0,0,1.5302,optionRight,80,11800,5,37,0,37,0,1,,,,,,,,,,,,,,,,,,,,,,,,,,,,,,,,,,,,,,,
,,,,,,,,2023-08-16_08h38.16.592,HF_wild_card,2022.2.4,Win32,59.9880024,642b1c83e9a71c3d81d75b19,64d2fd46c836a06233681665,64dc7b4894becfe9b1f75cb8,,,,,,,sngl,resources/DY.BMP,resources/Empty.png,Door3,-0.22592594,0.075925933,1,0,0,0.8973,optionLeft,70,11870,5,38,0,38,0,1,,,,,,,,,,,,,,,,,,,,,,,,,,,,,,,,,,,,,,,
,,,,,,,,2023-08-16_08h38.16.592,HF_wild_card,2022.2.4,Win32,59.9880024,642b1c83e9a71c3d81d75b19,64d2fd46c836a06233681665,64dc7b4894becfe9b1f75cb8,,,,,,,ctch,resources/DY.BMP,resources/DP.BMP,Door3,-0.368518511,0.164814808,1,0,0,1.3365,optionLeft,70,11940,5,39,0,39,0,1,,,,,,,,,,,,,,,,,,,,,,,,,,,,,,,,,,,,,,,
,,,,,,,,2023-08-16_08h38.16.592,HF_wild_card,2022.2.4,Win32,59.9880024,642b1c83e9a71c3d81d75b19,64d2fd46c836a06233681665,64dc7b4894becfe9b1f75cb8,,,,,,,decisionTrl,resources/DR.BMP,resources/DG.BMP,Door4,-0.537962949,0.174999979,1,0,0,2.2118,optionLeft,80,12020,5,40,0,40,0,1,,,,,,,,,,,,,,,,,,,,,,,,,,,,,,,,,,,,,,,
,,,,,,,,2023-08-16_08h38.16.592,HF_wild_card,2022.2.4,Win32,59.9880024,642b1c83e9a71c3d81d75b19,64d2fd46c836a06233681665,64dc7b4894becfe9b1f75cb8,,,,,,,sngl,resources/Empty.png,resources/DBN.BMP,Door1,0.433333362,0.198148127,1,0,0,1.0124,optionRight,30,12050,5,41,0,41,0,1,,,,,,,,,,,,,,,,,,,,,,,,,,,,,,,,,,,,,,,
,,,,,,,,2023-08-16_08h38.16.592,HF_wild_card,2022.2.4,Win32,59.9880024,642b1c83e9a71c3d81d75b19,64d2fd46c836a06233681665,64dc7b4894becfe9b1f75cb8,,,,,,,ctch,resources/DR.BMP,resources/DBN.BMP,Door4,-0.299999979,0.079629616,1,0,0,0.9964,optionLeft,80,12130,5,42,0,42,0,1,,,,,,,,,,,,,,,,,,,,,,,,,,,,,,,,,,,,,,,
,,,,,,,,2023-08-16_08h38.16.592,HF_wild_card,2022.2.4,Win32,59.9880024,642b1c83e9a71c3d81d75b19,64d2fd46c836a06233681665,64dc7b4894becfe9b1f75cb8,,,,,,,decisionTrl,resources/DR.BMP,resources/DY.BMP,Door3,0.478703675,0.198148127,1,0,0,2.8967,optionRight,70,12200,5,43,0,43,0,1,,,,,,,,,,,,,,,,,,,,,,,,,,,,,,,,,,,,,,,
,,,,,,,,2023-08-16_08h38.16.592,HF_wild_card,2022.2.4,Win32,59.9880024,642b1c83e9a71c3d81d75b19,64d2fd46c836a06233681665,64dc7b4894becfe9b1f75cb8,,,,,,,,,,,,,,,,,,,,,,,,,,4,0,4,0,1,,,,,,,,,,,,,,,,,,,,,,,,,,,,,,,,,,
,,,,,,,,2023-08-16_08h38.16.592,HF_wild_card,2022.2.4,Win32,59.9880024,642b1c83e9a71c3d81d75b19,64d2fd46c836a06233681665,64dc7b4894becfe9b1f75cb8,,,,,,,decisionTrl,resources/DP.BMP,resources/DBN.BMP,Door1,0.089814857,0.152777778,1,0,0,3.0071,optionRight,30,12230,6,0,0,0,0,1,,,,,,,,,,,,,,,,,,,,,,,,,,,,,,,,,,,,,,,
,,,,,,,,2023-08-16_08h38.16.592,HF_wild_card,2022.2.4,Win32,59.9880024,642b1c83e9a71c3d81d75b19,64d2fd46c836a06233681665,64dc7b4894becfe9b1f75cb8,,,,,,,decisionTrl,resources/DP.BMP,resources/DBN.BMP,Door1,0.482407464,0.122222229,1,0,0,1.7252,optionRight,30,12260,6,1,0,1,0,1,,,,,,,,,,,,,,,,,,,,,,,,,,,,,,,,,,,,,,,
,,,,,,,,2023-08-16_08h38.16.592,HF_wild_card,2022.2.4,Win32,59.9880024,642b1c83e9a71c3d81d75b19,64d2fd46c836a06233681665,64dc7b4894becfe9b1f75cb8,,,,,,,decisionTrl,resources/DBN.BMP,resources/DG.BMP,WildCard_Ex,0.312962991,0.066666674,1,0,0,53.6174,optionRight,95,12355,6,2,0,2,0,1,,,,,,,,,,,,,,,,,,,,,,,,,,,,,,,,,,,,,,,
,,,,,,,,2023-08-16_08h38.16.592,HF_wild_card,2022.2.4,Win32,59.9880024,642b1c83e9a71c3d81d75b19,64d2fd46c836a06233681665,64dc7b4894becfe9b1f75cb8,,,,,,,decisionTrl,resources/DG.BMP,resources/DR.BMP,Door4,0.474074046,0.041666667,1,0,0,1.2968,optionRight,80,12435,6,3,0,3,0,1,,,,,,,,,,,,,,,,,,,,,,,,,,,,,,,,,,,,,,,
,,,,,,,,2023-08-16_08h38.16.592,HF_wild_card,2022.2.4,Win32,59.9880024,642b1c83e9a71c3d81d75b19,64d2fd46c836a06233681665,64dc7b4894becfe9b1f75cb8,,,,,,,sngl,resources/Empty.png,resources/DY.BMP,Door3,0.300925926,0.041666667,1,0,0,0.718,optionRight,70,12505,6,4,0,4,0,1,,,,,,,,,,,,,,,,,,,,,,,,,,,,,,,,,,,,,,,
,,,,,,,,2023-08-16_08h38.16.592,HF_wild_card,2022.2.4,Win32,59.9880024,642b1c83e9a71c3d81d75b19,64d2fd46c836a06233681665,64dc7b4894becfe9b1f75cb8,,,,,,,decisionTrl,resources/DR.BMP,resources/DY.BMP,Door3,0.399999972,0.163888896,1,0,0,1.5107,optionRight,70,12575,6,5,0,5,0,1,,,,,,,,,,,,,,,,,,,,,,,,,,,,,,,,,,,,,,,
,,,,,,,,2023-08-16_08h38.16.592,HF_wild_card,2022.2.4,Win32,59.9880024,642b1c83e9a71c3d81d75b19,64d2fd46c836a06233681665,64dc7b4894becfe9b1f75cb8,,,,,,,decisionTrl,resources/DG.BMP,resources/DBN.BMP,WildCard_Ex,-0.400925919,0.106481481,1,0,0,1.4433,optionLeft,95,12670,6,6,0,6,0,1,,,,,,,,,,,,,,,,,,,,,,,,,,,,,,,,,,,,,,,
,,,,,,,,2023-08-16_08h38.16.592,HF_wild_card,2022.2.4,Win32,59.9880024,642b1c83e9a71c3d81d75b19,64d2fd46c836a06233681665,64dc7b4894becfe9b1f75cb8,,,,,,,sngl,resources/DBN.BMP,resources/Empty.png,Door1,-0.334259245,0.105555534,1,0,0,0.7972,optionLeft,30,12700,6,7,0,7,0,1,,,,,,,,,,,,,,,,,,,,,,,,,,,,,,,,,,,,,,,
,,,,,,,,2023-08-16_08h38.16.592,HF_wild_card,2022.2.4,Win32,59.9880024,642b1c83e9a71c3d81d75b19,64d2fd46c836a06233681665,64dc7b4894becfe9b1f75cb8,,,,,,,ctch,resources/DBN.BMP,resources/DR.BMP,Door4,0.441666638,0.179629608,1,0,0,1.0628,optionRight,80,12780,6,8,0,8,0,1,,,,,,,,,,,,,,,,,,,,,,,,,,,,,,,,,,,,,,,
,,,,,,,,2023-08-16_08h38.16.592,HF_wild_card,2022.2.4,Win32,59.9880024,642b1c83e9a71c3d81d75b19,64d2fd46c836a06233681665,64dc7b4894becfe9b1f75cb8,,,,,,,decisionTrl,resources/DY.BMP,resources/DR.BMP,Door3,-0.424074067,0.164814808,1,0,0,1.7519,optionLeft,70,12850,6,9,0,9,0,1,,,,,,,,,,,,,,,,,,,,,,,,,,,,,,,,,,,,,,,
,,,,,,,,2023-08-16_08h38.16.592,HF_wild_card,2022.2.4,Win32,59.9880024,642b1c83e9a71c3d81d75b19,64d2fd46c836a06233681665,64dc7b4894becfe9b1f75cb8,,,,,,,sngl,resources/Empty.png,resources/DG.BMP,WildCard_Ex,0.417592649,0.147222201,1,0,0,1.13,optionRight,95,12945,6,10,0,10,0,1,,,,,,,,,,,,,,,,,,,,,,,,,,,,,,,,,,,,,,,
,,,,,,,,2023-08-16_08h38.16.592,HF_wild_card,2022.2.4,Win32,59.9880024,642b1c83e9a71c3d81d75b19,64d2fd46c836a06233681665,64dc7b4894becfe9b1f75cb8,,,,,,,decisionTrl,resources/DY.BMP,resources/DR.BMP,Door4,0.325000057,0.171296296,1,0,0,3.9967,optionRight,80,13025,6,11,0,11,0,1,,,,,,,,,,,,,,,,,,,,,,,,,,,,,,,,,,,,,,,
,,,,,,,,2023-08-16_08h38.16.592,HF_wild_card,2022.2.4,Win32,59.9880024,642b1c83e9a71c3d81d75b19,64d2fd46c836a06233681665,64dc7b4894becfe9b1f75cb8,,,,,,,decisionTrl,resources/DY.BMP,resources/DR.BMP,Door3,-0.199999986,0.074999986,1,0,0,1.3968,optionLeft,70,13095,6,12,0,12,0,1,,,,,,,,,,,,,,,,,,,,,,,,,,,,,,,,,,,,,,,
,,,,,,,,2023-08-16_08h38.16.592,HF_wild_card,2022.2.4,Win32,59.9880024,642b1c83e9a71c3d81d75b19,64d2fd46c836a06233681665,64dc7b4894becfe9b1f75cb8,,,,,,,sngl,resources/Empty.png,resources/DR.BMP,Door4,0.244444459,0.092592593,1,0,0,0.698,optionRight,80,13175,6,13,0,13,0,1,,,,,,,,,,,,,,,,,,,,,,,,,,,,,,,,,,,,,,,
,,,,,,,,2023-08-16_08h38.16.592,HF_wild_card,2022.2.4,Win32,59.9880024,642b1c83e9a71c3d81d75b19,64d2fd46c836a06233681665,64dc7b4894becfe9b1f75cb8,,,,,,,ctch,resources/DR.BMP,resources/DBN.BMP,Door4,-0.219444416,0.055555556,1,0,0,1.3985,optionLeft,80,13255,6,14,0,14,0,1,,,,,,,,,,,,,,,,,,,,,,,,,,,,,,,,,,,,,,,
,,,,,,,,2023-08-16_08h38.16.592,HF_wild_card,2022.2.4,Win32,59.9880024,642b1c83e9a71c3d81d75b19,64d2fd46c836a06233681665,64dc7b4894becfe9b1f75cb8,,,,,,,sngl,resources/DR.BMP,resources/Empty.png,Door4,-0.213888875,0.042592578,1,0,0,0.657,optionLeft,60,13315,6,15,0,15,0,1,,,,,,,,,,,,,,,,,,,,,,,,,,,,,,,,,,,,,,,
,,,,,,,,2023-08-16_08h38.16.592,HF_wild_card,2022.2.4,Win32,59.9880024,642b1c83e9a71c3d81d75b19,64d2fd46c836a06233681665,64dc7b4894becfe9b1f75cb8,,,,,,,ctch,resources/DP.BMP,resources/DY.BMP,Door3,0.41851849,0.150000007,1,0,0,1.28,optionRight,70,13385,6,16,0,16,0,1,,,,,,,,,,,,,,,,,,,,,,,,,,,,,,,,,,,,,,,
,,,,,,,,2023-08-16_08h38.16.592,HF_wild_card,2022.2.4,Win32,59.9880024,642b1c83e9a71c3d81d75b19,64d2fd46c836a06233681665,64dc7b4894becfe9b1f75cb8,,,,,,,decisionTrl,resources/DR.BMP,resources/DY.BMP,Door3,0.431481538,0.140740748,1,0,0,1.4639,optionRight,70,13455,6,17,0,17,0,1,,,,,,,,,,,,,,,,,,,,,,,,,,,,,,,,,,,,,,,
,,,,,,,,2023-08-16_08h38.16.592,HF_wild_card,2022.2.4,Win32,59.9880024,642b1c83e9a71c3d81d75b19,64d2fd46c836a06233681665,64dc7b4894becfe9b1f75cb8,,,,,,,sngl,resources/DG.BMP,resources/Empty.png,WildCard_Ex,-0.302777785,0.085185192,1,0,0,0.7802,optionLeft,5,13460,6,18,0,18,0,1,,,,,,,,,,,,,,,,,,,,,,,,,,,,,,,,,,,,,,,
,,,,,,,,2023-08-16_08h38.16.592,HF_wild_card,2022.2.4,Win32,59.9880024,642b1c83e9a71c3d81d75b19,64d2fd46c836a06233681665,64dc7b4894becfe9b1f75cb8,,,,,,,sngl,resources/DP.BMP,resources/Empty.png,Door2,-0.25462963,0.143518519,1,0,0,0.8471,optionLeft,20,13480,6,19,0,19,0,1,,,,,,,,,,,,,,,,,,,,,,,,,,,,,,,,,,,,,,,
,,,,,,,,2023-08-16_08h38.16.592,HF_wild_card,2022.2.4,Win32,59.9880024,642b1c83e9a71c3d81d75b19,64d2fd46c836a06233681665,64dc7b4894becfe9b1f75cb8,,,,,,,decisionTrl,resources/DP.BMP,resources/DBN.BMP,Door1,0.369444529,0.169444437,1,0,0,0.9479,optionRight,30,13510,6,20,0,20,0,1,,,,,,,,,,,,,,,,,,,,,,,,,,,,,,,,,,,,,,,
,,,,,,,,2023-08-16_08h38.16.592,HF_wild_card,2022.2.4,Win32,59.9880024,642b1c83e9a71c3d81d75b19,64d2fd46c836a06233681665,64dc7b4894becfe9b1f75cb8,,,,,,,ctch,resources/DBN.BMP,resources/DR.BMP,Door4,0.333333333,0.182407414,1,0,0,0.9643,optionRight,60,13570,6,21,0,21,0,1,,,,,,,,,,,,,,,,,,,,,,,,,,,,,,,,,,,,,,,
,,,,,,,,2023-08-16_08h38.16.592,HF_wild_card,2022.2.4,Win32,59.9880024,642b1c83e9a71c3d81d75b19,64d2fd46c836a06233681665,64dc7b4894becfe9b1f75cb8,,,,,,,sngl,resources/Empty.png,resources/DBN.BMP,Door1,0.315740797,0.148148148,1,0,0,0.7814,optionRight,30,13600,6,22,0,22,0,1,,,,,,,,,,,,,,,,,,,,,,,,,,,,,,,,,,,,,,,
,,,,,,,,2023-08-16_08h38.16.592,HF_wild_card,2022.2.4,Win32,59.9880024,642b1c83e9a71c3d81d75b19,64d2fd46c836a06233681665,64dc7b4894becfe9b1f75cb8,,,,,,,sngl,resources/DG.BMP,resources/Empty.png,WildCard_Ex,-0.299074067,0.071296303,1,0,0,0.6713,optionLeft,95,13695,6,23,0,23,0,1,,,,,,,,,,,,,,,,,,,,,,,,,,,,,,,,,,,,,,,
,,,,,,,,2023-08-16_08h38.16.592,HF_wild_card,2022.2.4,Win32,59.9880024,642b1c83e9a71c3d81d75b19,64d2fd46c836a06233681665,64dc7b4894becfe9b1f75cb8,,,,,,,ctch,resources/DY.BMP,resources/DP.BMP,Door3,-0.392592571,0.124074053,1,0,0,1.215,optionLeft,70,13765,6,24,0,24,0,1,,,,,,,,,,,,,,,,,,,,,,,,,,,,,,,,,,,,,,,
,,,,,,,,2023-08-16_08h38.16.592,HF_wild_card,2022.2.4,Win32,59.9880024,642b1c83e9a71c3d81d75b19,64d2fd46c836a06233681665,64dc7b4894becfe9b1f75cb8,,,,,,,ctch,resources/DY.BMP,resources/DP.BMP,Door3,-0.37962963,0.059259238,1,0,0,1.097,optionLeft,70,13835,6,25,0,25,0,1,,,,,,,,,,,,,,,,,,,,,,,,,,,,,,,,,,,,,,,
,,,,,,,,2023-08-16_08h38.16.592,HF_wild_card,2022.2.4,Win32,59.9880024,642b1c83e9a71c3d81d75b19,64d2fd46c836a06233681665,64dc7b4894becfe9b1f75cb8,,,,,,,decisionTrl,resources/DY.BMP,resources/DR.BMP,Door4,0.389814871,0.096296275,1,0,0,2.1443,optionRight,60,13895,6,26,0,26,0,1,,,,,,,,,,,,,,,,,,,,,,,,,,,,,,,,,,,,,,,
,,,,,,,,2023-08-16_08h38.16.592,HF_wild_card,2022.2.4,Win32,59.9880024,642b1c83e9a71c3d81d75b19,64d2fd46c836a06233681665,64dc7b4894becfe9b1f75cb8,,,,,,,ctch,resources/DR.BMP,resources/DBN.BMP,Door4,-0.267592607,0.166666667,1,0,0,1.2814,optionLeft,80,13975,6,27,0,27,0,1,,,,,,,,,,,,,,,,,,,,,,,,,,,,,,,,,,,,,,,
,,,,,,,,2023-08-16_08h38.16.592,HF_wild_card,2022.2.4,Win32,59.9880024,642b1c83e9a71c3d81d75b19,64d2fd46c836a06233681665,64dc7b4894becfe9b1f75cb8,,,,,,,decisionTrl,resources/DG.BMP,resources/DP.BMP,WildCard_Ex,-0.283333319,0.079629616,1,0,0,1.1602,optionLeft,5,13980,6,28,0,28,0,1,,,,,,,,,,,,,,,,,,,,,,,,,,,,,,,,,,,,,,,
,,,,,,,,2023-08-16_08h38.16.592,HF_wild_card,2022.2.4,Win32,59.9880024,642b1c83e9a71c3d81d75b19,64d2fd46c836a06233681665,64dc7b4894becfe9b1f75cb8,,,,,,,sngl,resources/DY.BMP,resources/Empty.png,Door3,-0.228703675,0.056481467,1,0,0,0.6431,optionLeft,70,14050,6,29,0,29,0,1,,,,,,,,,,,,,,,,,,,,,,,,,,,,,,,,,,,,,,,
,,,,,,,,2023-08-16_08h38.16.592,HF_wild_card,2022.2.4,Win32,59.9880024,642b1c83e9a71c3d81d75b19,64d2fd46c836a06233681665,64dc7b4894becfe9b1f75cb8,,,,,,,decisionTrl,resources/DR.BMP,resources/DY.BMP,Door3,0.48055564,0.180555556,1,0,0,2.5612,optionRight,70,14120,6,30,0,30,0,1,,,,,,,,,,,,,,,,,,,,,,,,,,,,,,,,,,,,,,,
,,,,,,,,2023-08-16_08h38.16.592,HF_wild_card,2022.2.4,Win32,59.9880024,642b1c83e9a71c3d81d75b19,64d2fd46c836a06233681665,64dc7b4894becfe9b1f75cb8,,,,,,,sngl,resources/Empty.png,resources/DG.BMP,WildCard_Ex,0.397222307,0.146296289,1,0,0,1.1279,optionRight,5,14125,6,31,0,31,0,1,,,,,,,,,,,,,,,,,,,,,,,,,,,,,,,,,,,,,,,
,,,,,,,,2023-08-16_08h38.16.592,HF_wild_card,2022.2.4,Win32,59.9880024,642b1c83e9a71c3d81d75b19,64d2fd46c836a06233681665,64dc7b4894becfe9b1f75cb8,,,,,,,ctch,resources/DP.BMP,resources/DY.BMP,Door3,0.382407436,0.166666667,1,0,0,1.2108,optionRight,70,14195,6,32,0,32,0,1,,,,,,,,,,,,,,,,,,,,,,,,,,,,,,,,,,,,,,,
,,,,,,,,2023-08-16_08h38.16.592,HF_wild_card,2022.2.4,Win32,59.9880024,642b1c83e9a71c3d81d75b19,64d2fd46c836a06233681665,64dc7b4894becfe9b1f75cb8,,,,,,,sngl,resources/Empty.png,resources/DP.BMP,Door2,0.400925954,0.152777778,1,0,0,0.6413,optionRight,40,14235,6,33,0,33,0,1,,,,,,,,,,,,,,,,,,,,,,,,,,,,,,,,,,,,,,,
,,,,,,,,2023-08-16_08h38.16.592,HF_wild_card,2022.2.4,Win32,59.9880024,642b1c83e9a71c3d81d75b19,64d2fd46c836a06233681665,64dc7b4894becfe9b1f75cb8,,,,,,,decisionTrl,resources/DR.BMP,resources/DG.BMP,WildCard_Ex,0.348148205,0.188888868,1,0,0,1.8932,optionRight,95,14330,6,34,0,34,0,1,,,,,,,,,,,,,,,,,,,,,,,,,,,,,,,,,,,,,,,
,,,,,,,,2023-08-16_08h38.16.592,HF_wild_card,2022.2.4,Win32,59.9880024,642b1c83e9a71c3d81d75b19,64d2fd46c836a06233681665,64dc7b4894becfe9b1f75cb8,,,,,,,decisionTrl,resources/DBN.BMP,resources/DP.BMP,Door1,-0.378703683,0.213888892,1,0,0,2.4267,optionLeft,30,14360,6,35,0,35,0,1,,,,,,,,,,,,,,,,,,,,,,,,,,,,,,,,,,,,,,,
,,,,,,,,2023-08-16_08h38.16.592,HF_wild_card,2022.2.4,Win32,59.9880024,642b1c83e9a71c3d81d75b19,64d2fd46c836a06233681665,64dc7b4894becfe9b1f75cb8,,,,,,,decisionTrl,resources/DBN.BMP,resources/DP.BMP,Door1,-0.335185192,0.078703704,1,0,0,1.275,optionLeft,30,14390,6,36,0,36,0,1,,,,,,,,,,,,,,,,,,,,,,,,,,,,,,,,,,,,,,,
,,,,,,,,2023-08-16_08h38.16.592,HF_wild_card,2022.2.4,Win32,59.9880024,642b1c83e9a71c3d81d75b19,64d2fd46c836a06233681665,64dc7b4894becfe9b1f75cb8,,,,,,,decisionTrl,resources/DP.BMP,resources/DBN.BMP,Door1,0.416666667,0.035185178,1,0,0,1.3437,optionRight,30,14420,6,37,0,37,0,1,,,,,,,,,,,,,,,,,,,,,,,,,,,,,,,,,,,,,,,
,,,,,,,,2023-08-16_08h38.16.592,HF_wild_card,2022.2.4,Win32,59.9880024,642b1c83e9a71c3d81d75b19,64d2fd46c836a06233681665,64dc7b4894becfe9b1f75cb8,,,,,,,decisionTrl,resources/DY.BMP,resources/DG.BMP,WildCard_Ex,0.455555527,0.15648146,1,0,0,1.959,optionRight,5,14425,6,38,0,38,0,1,,,,,,,,,,,,,,,,,,,,,,,,,,,,,,,,,,,,,,,
,,,,,,,,2023-08-16_08h38.16.592,HF_wild_card,2022.2.4,Win32,59.9880024,642b1c83e9a71c3d81d75b19,64d2fd46c836a06233681665,64dc7b4894becfe9b1f75cb8,,,,,,,decisionTrl,resources/DBN.BMP,resources/DP.BMP,Door1,-0.449074074,0.261111101,1,0,0,1.4593,optionLeft,30,14455,6,39,0,39,0,1,,,,,,,,,,,,,,,,,,,,,,,,,,,,,,,,,,,,,,,
,,,,,,,,2023-08-16_08h38.16.592,HF_wild_card,2022.2.4,Win32,59.9880024,642b1c83e9a71c3d81d75b19,64d2fd46c836a06233681665,64dc7b4894becfe9b1f75cb8,,,,,,,decisionTrl,resources/DG.BMP,resources/DY.BMP,Door3,0.44722225,0.193518497,1,0,0,4.8084,optionRight,70,14525,6,40,0,40,0,1,,,,,,,,,,,,,,,,,,,,,,,,,,,,,,,,,,,,,,,
,,,,,,,,2023-08-16_08h38.16.592,HF_wild_card,2022.2.4,Win32,59.9880024,642b1c83e9a71c3d81d75b19,64d2fd46c836a06233681665,64dc7b4894becfe9b1f75cb8,,,,,,,decisionTrl,resources/DBN.BMP,resources/DP.BMP,Door1,-0.189814815,0.227777781,1,0,0,1.4762,optionLeft,30,14555,6,41,0,41,0,1,,,,,,,,,,,,,,,,,,,,,,,,,,,,,,,,,,,,,,,
,,,,,,,,2023-08-16_08h38.16.592,HF_wild_card,2022.2.4,Win32,59.9880024,642b1c83e9a71c3d81d75b19,64d2fd46c836a06233681665,64dc7b4894becfe9b1f75cb8,,,,,,,decisionTrl,resources/DP.BMP,resources/DG.BMP,WildCard_Ex,0.405555584,0.190740727,1,0,0,1.6597,optionRight,5,14560,6,42,0,42,0,1,,,,,,,,,,,,,,,,,,,,,,,,,,,,,,,,,,,,,,,
,,,,,,,,2023-08-16_08h38.16.592,HF_wild_card,2022.2.4,Win32,59.9880024,642b1c83e9a71c3d81d75b19,64d2fd46c836a06233681665,64dc7b4894becfe9b1f75cb8,,,,,,,decisionTrl,resources/DR.BMP,resources/DY.BMP,Door3,0.426851908,0.172222208,1,0,0,1.3273,optionRight,70,14630,6,43,0,43,0,1,,,,,,,,,,,,,,,,,,,,,,,,,,,,,,,,,,,,,,,
,,,,,,,,2023-08-16_08h38.16.592,HF_wild_card,2022.2.4,Win32,59.9880024,642b1c83e9a71c3d81d75b19,64d2fd46c836a06233681665,64dc7b4894becfe9b1f75cb8,,,,,,,,,,,,,,,,,,,,,,,,,,5,0,5,0,1,,,,,,,,,,,,,,,,,,,,,,,,,,,,,,,,,,
,,,,,,,,2023-08-16_08h38.16.592,HF_wild_card,2022.2.4,Win32,59.9880024,642b1c83e9a71c3d81d75b19,64d2fd46c836a06233681665,64dc7b4894becfe9b1f75cb8,,,,,,,decisionTrl,resources/DY.BMP,resources/DR.BMP,Door4,0.305555556,0.159259266,1,0,0,2.7986,optionRight,80,14710,7,0,0,0,0,1,,,,,,,,,,,,,,,,,,,,,,,,,,,,,,,,,,,,,,,
,,,,,,,,2023-08-16_08h38.16.592,HF_wild_card,2022.2.4,Win32,59.9880024,642b1c83e9a71c3d81d75b19,64d2fd46c836a06233681665,64dc7b4894becfe9b1f75cb8,,,,,,,ctch,resources/DR.BMP,resources/DBN.BMP,Door4,-0.37962963,0.04074072,1,0,0,0.9773,optionLeft,60,14770,7,1,0,1,0,1,,,,,,,,,,,,,,,,,,,,,,,,,,,,,,,,,,,,,,,
,,,,,,,,2023-08-16_08h38.16.592,HF_wild_card,2022.2.4,Win32,59.9880024,642b1c83e9a71c3d81d75b19,64d2fd46c836a06233681665,64dc7b4894becfe9b1f75cb8,,,,,,,ctch,resources/DR.BMP,resources/DBN.BMP,Door4,-0.372222229,0.045370349,1,0,0,0.9611,optionLeft,60,14830,7,2,0,2,0,1,,,,,,,,,,,,,,,,,,,,,,,,,,,,,,,,,,,,,,,
,,,,,,,,2023-08-16_08h38.16.592,HF_wild_card,2022.2.4,Win32,59.9880024,642b1c83e9a71c3d81d75b19,64d2fd46c836a06233681665,64dc7b4894becfe9b1f75cb8,,,,,,,decisionTrl,resources/DBN.BMP,resources/DP.BMP,Door1,-0.284259231,0.092592593,1,0,0,2.2943,optionLeft,30,14860,7,3,0,3,0,1,,,,,,,,,,,,,,,,,,,,,,,,,,,,,,,,,,,,,,,
,,,,,,,,2023-08-16_08h38.16.592,HF_wild_card,2022.2.4,Win32,59.9880024,642b1c83e9a71c3d81d75b19,64d2fd46c836a06233681665,64dc7b4894becfe9b1f75cb8,,,,,,,decisionTrl,resources/DY.BMP,resources/DR.BMP,Door4,0.320370427,0.125,1,0,0,1.6294,optionRight,80,14940,7,4,0,4,0,1,,,,,,,,,,,,,,,,,,,,,,,,,,,,,,,,,,,,,,,
,,,,,,,,2023-08-16_08h38.16.592,HF_wild_card,2022.2.4,Win32,59.9880024,642b1c83e9a71c3d81d75b19,64d2fd46c836a06233681665,64dc7b4894becfe9b1f75cb8,,,,,,,decisionTrl,resources/DP.BMP,resources/DBN.BMP,Door1,0.363888917,0.180555556,1,0,0,1.8779,optionRight,30,14970,7,5,0,5,0,1,,,,,,,,,,,,,,,,,,,,,,,,,,,,,,,,,,,,,,,
,,,,,,,,2023-08-16_08h38.16.592,HF_wild_card,2022.2.4,Win32,59.9880024,642b1c83e9a71c3d81d75b19,64d2fd46c836a06233681665,64dc7b4894becfe9b1f75cb8,,,,,,,decisionTrl,resources/DBN.BMP,resources/DP.BMP,Door1,-0.262962977,0.14166666,1,0,0,0.9291,optionLeft,30,15000,7,6,0,6,0,1,,,,,,,,,,,,,,,,,,,,,,,,,,,,,,,,,,,,,,,
,,,,,,,,2023-08-16_08h38.16.592,HF_wild_card,2022.2.4,Win32,59.9880024,642b1c83e9a71c3d81d75b19,64d2fd46c836a06233681665,64dc7b4894becfe9b1f75cb8,,,,,,,decisionTrl,resources/DR.BMP,resources/DY.BMP,Door3,0.393518519,0.179629608,1,0,0,3.1272,optionRight,70,15070,7,7,0,7,0,1,,,,,,,,,,,,,,,,,,,,,,,,,,,,,,,,,,,,,,,
,,,,,,,,2023-08-16_08h38.16.592,HF_wild_card,2022.2.4,Win32,59.9880024,642b1c83e9a71c3d81d75b19,64d2fd46c836a06233681665,64dc7b4894becfe9b1f75cb8,,,,,,,ctch,resources/DBN.BMP,resources/DR.BMP,Door4,0.366666723,0.147222201,1,0,0,1.6441,optionRight,80,15150,7,8,0,8,0,1,,,,,,,,,,,,,,,,,,,,,,,,,,,,,,,,,,,,,,,
,,,,,,,,2023-08-16_08h38.16.592,HF_wild_card,2022.2.4,Win32,59.9880024,642b1c83e9a71c3d81d75b19,64d2fd46c836a06233681665,64dc7b4894becfe9b1f75cb8,,,,,,,decisionTrl,resources/DY.BMP,resources/DR.BMP,Door3,-0.325925933,0.114814794,1,0,0,1.8436,optionLeft,70,15220,7,9,0,9,0,1,,,,,,,,,,,,,,,,,,,,,,,,,,,,,,,,,,,,,,,
,,,,,,,,2023-08-16_08h38.16.592,HF_wild_card,2022.2.4,Win32,59.9880024,642b1c83e9a71c3d81d75b19,64d2fd46c836a06233681665,64dc7b4894becfe9b1f75cb8,,,,,,,decisionTrl,resources/DR.BMP,resources/DY.BMP,Door3,0.378703788,0.125,1,0,0,1.118,optionRight,70,15290,7,10,0,10,0,1,,,,,,,,,,,,,,,,,,,,,,,,,,,,,,,,,,,,,,,
,,,,,,,,2023-08-16_08h38.16.592,HF_wild_card,2022.2.4,Win32,59.9880024,642b1c83e9a71c3d81d75b19,64d2fd46c836a06233681665,64dc7b4894becfe9b1f75cb8,,,,,,,ctch,resources/DBN.BMP,resources/DR.BMP,Door4,0.412963019,0.105555534,1,0,0,1.3644,optionRight,60,15350,7,11,0,11,0,1,,,,,,,,,,,,,,,,,,,,,,,,,,,,,,,,,,,,,,,
,,,,,,,,2023-08-16_08h38.16.592,HF_wild_card,2022.2.4,Win32,59.9880024,642b1c83e9a71c3d81d75b19,64d2fd46c836a06233681665,64dc7b4894becfe9b1f75cb8,,,,,,,ctch,resources/DP.BMP,resources/DY.BMP,Door3,0.399999972,0.138888889,1,0,0,1.3311,optionRight,70,15420,7,12,0,12,0,1,,,,,,,,,,,,,,,,,,,,,,,,,,,,,,,,,,,,,,,
,,,,,,,,2023-08-16_08h38.16.592,HF_wild_card,2022.2.4,Win32,59.9880024,642b1c83e9a71c3d81d75b19,64d2fd46c836a06233681665,64dc7b4894becfe9b1f75cb8,,,,,,,decisionTrl,resources/DBN.BMP,resources/DP.BMP,Door1,-0.263888889,0.071296303,1,0,0,1.581,optionLeft,30,15450,7,13,0,13,0,1,,,,,,,,,,,,,,,,,,,,,,,,,,,,,,,,,,,,,,,
,,,,,,,,2023-08-16_08h38.16.592,HF_wild_card,2022.2.4,Win32,59.9880024,642b1c83e9a71c3d81d75b19,64d2fd46c836a06233681665,64dc7b4894becfe9b1f75cb8,,,,,,,ctch,resources/DBN.BMP,resources/DR.BMP,Door4,0.487037094,0.086111104,1,0,0,1.215,optionRight,80,15530,7,14,0,14,0,1,,,,,,,,,,,,,,,,,,,,,,,,,,,,,,,,,,,,,,,
,,,,,,,,2023-08-16_08h38.16.592,HF_wild_card,2022.2.4,Win32,59.9880024,642b1c83e9a71c3d81d75b19,64d2fd46c836a06233681665,64dc7b4894becfe9b1f75cb8,,,,,,,decisionTrl,resources/DR.BMP,resources/DY.BMP,Door3,0.317592621,0.187962956,1,0,0,2.2311,optionRight,70,15600,7,15,0,15,0,1,,,,,,,,,,,,,,,,,,,,,,,,,,,,,,,,,,,,,,,
,,,,,,,,2023-08-16_08h38.16.592,HF_wild_card,2022.2.4,Win32,59.9880024,642b1c83e9a71c3d81d75b19,64d2fd46c836a06233681665,64dc7b4894becfe9b1f75cb8,,,,,,,decisionTrl,resources/DY.BMP,resources/DR.BMP,Door3,-0.304629608,0.062962956,1,0,0,0.9151,optionLeft,70,15670,7,16,0,16,0,1,,,,,,,,,,,,,,,,,,,,,,,,,,,,,,,,,,,,,,,
,,,,,,,,2023-08-16_08h38.16.592,HF_wild_card,2022.2.4,Win32,59.9880024,642b1c83e9a71c3d81d75b19,64d2fd46c836a06233681665,64dc7b4894becfe9b1f75cb8,,,,,,,decisionTrl,resources/DP.BMP,resources/DBN.BMP,Door1,0.431481538,0.14907406,1,0,0,2.1315,optionRight,30,15700,7,17,0,17,0,1,,,,,,,,,,,,,,,,,,,,,,,,,,,,,,,,,,,,,,,
,,,,,,,,2023-08-16_08h38.16.592,HF_wild_card,2022.2.4,Win32,59.9880024,642b1c83e9a71c3d81d75b19,64d2fd46c836a06233681665,64dc7b4894becfe9b1f75cb8,,,,,,,decisionTrl,resources/DP.BMP,resources/DBN.BMP,Door1,0.259259259,0.043518526,1,0,0,0.9159,optionRight,30,15730,7,18,0,18,0,1,,,,,,,,,,,,,,,,,,,,,,,,,,,,,,,,,,,,,,,
,,,,,,,,2023-08-16_08h38.16.592,HF_wild_card,2022.2.4,Win32,59.9880024,642b1c83e9a71c3d81d75b19,64d2fd46c836a06233681665,64dc7b4894becfe9b1f75cb8,,,,,,,ctch,resources/DY.BMP,resources/DP.BMP,Door3,-0.281481496,0.035185178,1,0,0,1.4474,optionLeft,70,15800,7,19,0,19,0,1,,,,,,,,,,,,,,,,,,,,,,,,,,,,,,,,,,,,,,,
,,,,,,,,2023-08-16_08h38.16.592,HF_wild_card,2022.2.4,Win32,59.9880024,642b1c83e9a71c3d81d75b19,64d2fd46c836a06233681665,64dc7b4894becfe9b1f75cb8,,,,,,,ctch,resources/DP.BMP,resources/DY.BMP,Door3,0.32685188,0.079629616,1,0,0,1.2318,optionRight,70,15870,7,20,0,20,0,1,,,,,,,,,,,,,,,,,,,,,,,,,,,,,,,,,,,,,,,
,,,,,,,,2023-08-16_08h38.16.592,HF_wild_card,2022.2.4,Win32,59.9880024,642b1c83e9a71c3d81d75b19,64d2fd46c836a06233681665,64dc7b4894becfe9b1f75cb8,,,,,,,ctch,resources/DR.BMP,resources/DBN.BMP,Door4,-0.384259259,0.072222215,1,0,0,1.2137,optionLeft,60,15930,7,21,0,21,0,1,,,,,,,,,,,,,,,,,,,,,,,,,,,,,,,,,,,,,,,
,,,,,,,,2023-08-16_08h38.16.592,HF_wild_card,2022.2.4,Win32,59.9880024,642b1c83e9a71c3d81d75b19,64d2fd46c836a06233681665,64dc7b4894becfe9b1f75cb8,,,,,,,ctch,resources/DY.BMP,resources/DP.BMP,Door3,-0.302777785,0.061111097,1,0,0,1.2802,optionLeft,70,16000,7,22,0,22,0,1,,,,,,,,,,,,,,,,,,,,,,,,,,,,,,,,,,,,,,,
,,,,,,,,2023-08-16_08h38.16.592,HF_wild_card,2022.2.4,Win32,59.9880024,642b1c83e9a71c3d81d75b19,64d2fd46c836a06233681665,64dc7b4894becfe9b1f75cb8,,,,,,,decisionTrl,resources/DBN.BMP,resources/DP.BMP,Door1,-0.281481496,0.058333326,1,0,0,1.7294,optionLeft,30,16030,7,23,0,23,0,1,,,,,,,,,,,,,,,,,,,,,,,,,,,,,,,,,,,,,,,
,,,,,,,,2023-08-16_08h38.16.592,HF_wild_card,2022.2.4,Win32,59.9880024,642b1c83e9a71c3d81d75b19,64d2fd46c836a06233681665,64dc7b4894becfe9b1f75cb8,,,,,,,decisionTrl,resources/DY.BMP,resources/DR.BMP,Door3,-0.337962963,0.090740734,1,0,0,1.2825,optionLeft,70,16100,7,24,0,24,0,1,,,,,,,,,,,,,,,,,,,,,,,,,,,,,,,,,,,,,,,
,,,,,,,,2023-08-16_08h38.16.592,HF_wild_card,2022.2.4,Win32,59.9880024,642b1c83e9a71c3d81d75b19,64d2fd46c836a06233681665,64dc7b4894becfe9b1f75cb8,,,,,,,decisionTrl,resources/DR.BMP,resources/DY.BMP,Door3,0.465740769,-0.001851859,1,0,0,0.9493,optionRight,70,16170,7,25,0,25,0,1,,,,,,,,,,,,,,,,,,,,,,,,,,,,,,,,,,,,,,,
,,,,,,,,2023-08-16_08h38.16.592,HF_wild_card,2022.2.4,Win32,59.9880024,642b1c83e9a71c3d81d75b19,64d2fd46c836a06233681665,64dc7b4894becfe9b1f75cb8,,,,,,,ctch,resources/DP.BMP,resources/DY.BMP,Door3,0.478703675,0.083333333,1,0,0,1.5642,optionRight,70,16240,7,26,0,26,0,1,,,,,,,,,,,,,,,,,,,,,,,,,,,,,,,,,,,,,,,
,,,,,,,,2023-08-16_08h38.16.592,HF_wild_card,2022.2.4,Win32,59.9880024,642b1c83e9a71c3d81d75b19,64d2fd46c836a06233681665,64dc7b4894becfe9b1f75cb8,,,,,,,decisionTrl,resources/DBN.BMP,resources/DP.BMP,Door1,-0.383333312,0.174999979,1,0,0,1.5311,optionLeft,30,16270,7,27,0,27,0,1,,,,,,,,,,,,,,,,,,,,,,,,,,,,,,,,,,,,,,,
,,,,,,,,2023-08-16_08h38.16.592,HF_wild_card,2022.2.4,Win32,59.9880024,642b1c83e9a71c3d81d75b19,64d2fd46c836a06233681665,64dc7b4894becfe9b1f75cb8,,,,,,,decisionTrl,resources/DBN.BMP,resources/DP.BMP,Door1,-0.195370356,0.017592571,1,0,0,1.3152,optionLeft,30,16300,7,28,0,28,0,1,,,,,,,,,,,,,,,,,,,,,,,,,,,,,,,,,,,,,,,
,,,,,,,,2023-08-16_08h38.16.592,HF_wild_card,2022.2.4,Win32,59.9880024,642b1c83e9a71c3d81d75b19,64d2fd46c836a06233681665,64dc7b4894becfe9b1f75cb8,,,,,,,ctch,resources/DY.BMP,resources/DP.BMP,Door3,-0.257407365,0.043518526,1,0,0,1.1451,optionLeft,70,16370,7,29,0,29,0,1,,,,,,,,,,,,,,,,,,,,,,,,,,,,,,,,,,,,,,,
,,,,,,,,2023-08-16_08h38.16.592,HF_wild_card,2022.2.4,Win32,59.9880024,642b1c83e9a71c3d81d75b19,64d2fd46c836a06233681665,64dc7b4894becfe9b1f75cb8,,,,,,,decisionTrl,resources/DP.BMP,resources/DBN.BMP,Door1,0.506481453,0.065740727,1,0,0,1.7245,optionRight,30,16400,7,30,0,30,0,1,,,,,,,,,,,,,,,,,,,,,,,,,,,,,,,,,,,,,,,
,,,,,,,,2023-08-16_08h38.16.592,HF_wild_card,2022.2.4,Win32,59.9880024,642b1c83e9a71c3d81d75b19,64d2fd46c836a06233681665,64dc7b4894becfe9b1f75cb8,,,,,,,decisionTrl,resources/DP.BMP,resources/DBN.BMP,Door1,0.25,0.015740748,1,0,0,0.8315,optionRight,30,16430,7,31,0,31,0,1,,,,,,,,,,,,,,,,,,,,,,,,,,,,,,,,,,,,,,,
,,,,,,,,2023-08-16_08h38.16.592,HF_wild_card,2022.2.4,Win32,59.9880024,642b1c83e9a71c3d81d75b19,64d2fd46c836a06233681665,64dc7b4894becfe9b1f75cb8,,,,,,,decisionTrl,resources/DR.BMP,resources/DY.BMP,Door3,0.425925926,0.011111118,1,0,0,1.074,optionRight,70,16500,7,32,0,32,0,1,,,,,,,,,,,,,,,,,,,,,,,,,,,,,,,,,,,,,,,
,,,,,,,,2023-08-16_08h38.16.592,HF_wild_card,2022.2.4,Win32,59.9880024,642b1c83e9a71c3d81d75b19,64d2fd46c836a06233681665,64dc7b4894becfe9b1f75cb8,,,,,,,decisionTrl,resources/DP.BMP,resources/DBN.BMP,Door1,0.425000085,-0.003703718,1,0,0,2.2306,optionRight,30,16530,7,33,0,33,0,1,,,,,,,,,,,,,,,,,,,,,,,,,,,,,,,,,,,,,,,
,,,,,,,,2023-08-16_08h38.16.592,HF_wild_card,2022.2.4,Win32,59.9880024,642b1c83e9a71c3d81d75b19,64d2fd46c836a06233681665,64dc7b4894becfe9b1f75cb8,,,,,,,decisionTrl,resources/DY.BMP,resources/DR.BMP,Door3,-0.190740727,0.027777778,1,0,0,1.3325,optionLeft,70,16600,7,34,0,34,0,1,,,,,,,,,,,,,,,,,,,,,,,,,,,,,,,,,,,,,,,
,,,,,,,,2023-08-16_08h38.16.592,HF_wild_card,2022.2.4,Win32,59.9880024,642b1c83e9a71c3d81d75b19,64d2fd46c836a06233681665,64dc7b4894becfe9b1f75cb8,,,,,,,decisionTrl,resources/DR.BMP,resources/DY.BMP,Door3,0.328703704,0.041666667,1,0,0,2.1298,optionRight,70,16670,7,35,0,35,0,1,,,,,,,,,,,,,,,,,,,,,,,,,,,,,,,,,,,,,,,
,,,,,,,,2023-08-16_08h38.16.592,HF_wild_card,2022.2.4,Win32,59.9880024,642b1c83e9a71c3d81d75b19,64d2fd46c836a06233681665,64dc7b4894becfe9b1f75cb8,,,,,,,,,,,,,,,,,,,,,,,,,,6,0,6,0,1,,,,,,,,,,,,,,,,,,,,,,,,,,,,,,,,,,
,,,,,,,,2023-08-16_08h38.16.592,HF_wild_card,2022.2.4,Win32,59.9880024,642b1c83e9a71c3d81d75b19,64d2fd46c836a06233681665,64dc7b4894becfe9b1f75cb8,,,,,,,,,,,,,,,,,,,,,,,,,,,,,,,4,,,,,,,,,,,,,,,,,,,,,,,,,,,,,,,,,
,,,,,,,,2023-08-16_08h38.16.592,HF_wild_card,2022.2.4,Win32,59.9880024,642b1c83e9a71c3d81d75b19,64d2fd46c836a06233681665,64dc7b4894becfe9b1f75cb8,,,,,,,,,,,,,,,,,,,,,,,,,,,,,,,,,,,,,,,,,,,,,,,,,,,,,,,,,,,,,,,,
,,,,,,,,2023-08-16_08h38.16.592,HF_wild_card,2022.2.4,Win32,59.9880024,642b1c83e9a71c3d81d75b19,64d2fd46c836a06233681665,64dc7b4894becfe9b1f75cb8,,,,,,,,,,,,,,,,,,,,,,,,,,,,,,,,95,WC_extreme,resources/DG.BMP,0,0,0,0,1,,,,,,,,,,,,,,,,,,,,,,,,,
,,,,,,,,2023-08-16_08h38.16.592,HF_wild_card,2022.2.4,Win32,59.9880024,642b1c83e9a71c3d81d75b19,64d2fd46c836a06233681665,64dc7b4894becfe9b1f75cb8,,,,,,,,,,,,,,,,,,,,,,,,,,,,,,,,45,WC_nonExtreme,resources/DB.BMP,1,0,1,0,1,,,,,,,,,,,,,,,,,,,,,,,,,
,,,,,,,,2023-08-16_08h38.16.592,HF_wild_card,2022.2.4,Win32,59.9880024,642b1c83e9a71c3d81d75b19,64d2fd46c836a06233681665,64dc7b4894becfe9b1f75cb8,,,,,,,,,,,,,,,,,,,,,,,,,,,,,,,,70,Door3,resources/DY.BMP,2,0,2,0,1,,,,,,,,,,,,,,,,,,,,,,,,,
,,,,,,,,2023-08-16_08h38.16.592,HF_wild_card,2022.2.4,Win32,59.9880024,642b1c83e9a71c3d81d75b19,64d2fd46c836a06233681665,64dc7b4894becfe9b1f75cb8,,,,,,,,,,,,,,,,,,,,,,,,,,,,,,,,20,Door2,resources/DP.BMP,3,0,3,0,1,,,,,,,,,,,,,,,,,,,,,,,,,
,,,,,,,,2023-08-16_08h38.16.592,HF_wild_card,2022.2.4,Win32,59.9880024,642b1c83e9a71c3d81d75b19,64d2fd46c836a06233681665,64dc7b4894becfe9b1f75cb8,,,,,,,,,,,,,,,,,,,,,,,,,,,,,,,,80,Door4,resources/DR.BMP,4,0,4,0,1,,,,,,,,,,,,,,,,,,,,,,,,,
,,,,,,,,2023-08-16_08h38.16.592,HF_wild_card,2022.2.4,Win32,59.9880024,642b1c83e9a71c3d81d75b19,64d2fd46c836a06233681665,64dc7b4894becfe9b1f75cb8,,,,,,,,,,,,,,,,,,,,,,,,,,,,,,,,30,Door1,resources/DBN.BMP,5,0,5,0,1,,,,,,,,,,,,,,,,,,,,,,,,,
,,,,,,,,2023-08-16_08h38.16.592,HF_wild_card,2022.2.4,Win32,59.9880024,642b1c83e9a71c3d81d75b19,64d2fd46c836a06233681665,64dc7b4894becfe9b1f75cb8,,,,,,,,,,,,,,,,,,,,,,,,,,,,,,,,,,,,,,,,,,,,,,,,,,,,,,,,,,,,,,,,
,,,,,,,,2023-08-16_08h38.16.592,HF_wild_card,2022.2.4,Win32,59.9880024,642b1c83e9a71c3d81d75b19,64d2fd46c836a06233681665,64dc7b4894becfe9b1f75cb8,,,,,,,,,,,,,,,,,,,,,,,,,,,,,,,,,,,,,,,,0,0,0,0,1,,,,,,,,,,,,,,,,,,,,
,,,,,,,,2023-08-16_08h38.16.592,HF_wild_card,2022.2.4,Win32,59.9880024,642b1c83e9a71c3d81d75b19,64d2fd46c836a06233681665,64dc7b4894becfe9b1f75cb8,,,,,,,,,,,,,,,,,,,,,,,,,,,,,,,,,,,,,,,,1,0,1,0,1,,,,,,,,,,,,,,,,,,,,
