Condition,Low fixed image (Door1),Low risky image (Door2),High fixed image (Door3),High risky image (Door4),Extreme Wild Card,NonExtreme Wild Card,,date,expName,psychopyVersion,OS,frameRate,PROLIFIC_PID,STUDY_ID,SESSION_ID,mouse_2.x,mouse_2.y,mouse_2.leftButton,mouse_2.midButton,mouse_2.rightButton,mouse_2.clicked_name,Trial Type,Left Option Image,Right Option Image,Chosen Door,mouse.x,mouse.y,mouse.leftButton,mouse.midButton,mouse.rightButton,mouse.time,mouse.clicked_name,Feedback,Cumulative Reward,Block,trial.thisRepN,trial.thisTrialN,trial.thisN,trial.thisIndex,trial.ran,blocks.thisRepN,blocks.thisTrialN,blocks.thisN,blocks.thisIndex,blocks.ran,Money conversion,First Outcome Reported,Shown Door (First Outcome),Displayed Image (First Outcome),outcomes.thisRepN,outcomes.thisTrialN,outcomes.thisN,outcomes.thisIndex,outcomes.ran,judgments.thisRepN,judgments.thisTrialN,judgments.thisN,judgments.thisIndex,judgments.ran,freqMouse.x,freqMouse.y,freqMouse.leftButton,freqMouse.midButton,freqMouse.rightButton,freqMouse.clicked_name,trials.thisRepN,trials.thisTrialN,trials.thisN,trials.thisIndex,trials.ran,FQJ for first outcome,FQJ for second outcome,Shown Door,Displayed Image,judgBlock.thisRepN,judgBlock.thisTrialN,judgBlock.thisN,judgBlock.thisIndex,judgBlock.ran
0,resources/DB.BMP,resources/DY.BMP,resources/DP.BMP,resources/DG.BMP,resources/DBN.BMP,resources/DR.BMP,64842d97a58fd50e158fd482,2023-08-16_08h40.38.116,HF_wild_card,2022.2.4,Linux x86_64,60.0024001,64842d97a58fd50e158fd482,64d2fd46c836a06233681665,64dc7cd470d1e514aee1fcf1,,,,,,,,,,,,,,,,,,,,,,,,,,,,,,,,,,,,,,,,,,,,,,,,,,,,,,,,,,,,,,,,
,,,,,,,64842d97a58fd50e158fd482,2023-08-16_08h40.38.116,HF_wild_card,2022.2.4,Linux x86_64,60.0024001,64842d97a58fd50e158fd482,64d2fd46c836a06233681665,64dc7cd470d1e514aee1fcf1,0.006270409,-0.418223858,1,0,0,agree,,,,,,,,,,,,,,,,,,,,,,,,,,,,,,,,,,,,,,,,,,,,,,,,,,,,,,,,,,
,,,,,,,64842d97a58fd50e158fd482,2023-08-16_08h40.38.116,HF_wild_card,2022.2.4,Linux x86_64,60.0024001,64842d97a58fd50e158fd482,64d2fd46c836a06233681665,64dc7cd470d1e514aee1fcf1,,,,,,,,,,,,,,,,,,,,,,,,,,,,,,,,,,,,,,,,,,,,,,,,,,,,,,,,,,,,,,,,
,,,,,,,64842d97a58fd50e158fd482,2023-08-16_08h40.38.116,HF_wild_card,2022.2.4,Linux x86_64,60.0024001,64842d97a58fd50e158fd482,64d2fd46c836a06233681665,64dc7cd470d1e514aee1fcf1,,,,,,,sngl,resources/Empty.png,resources/DG.BMP,Door4,0.432640314,-0.02965486,1,0,0,1.9638,optionRight,60,60,1,0,0,0,0,1,,,,,,,,,,,,,,,,,,,,,,,,,,,,,,,,,,,,,,,
,,,,,,,64842d97a58fd50e158fd482,2023-08-16_08h40.38.116,HF_wild_card,2022.2.4,Linux x86_64,60.0024001,64842d97a58fd50e158fd482,64d2fd46c836a06233681665,64dc7cd470d1e514aee1fcf1,,,,,,,decisionTrl,resources/DY.BMP,resources/DBN.BMP,Door2,-0.259366194,0.002684991,1,0,0,2.7439,optionLeft,20,80,1,1,0,1,0,1,,,,,,,,,,,,,,,,,,,,,,,,,,,,,,,,,,,,,,,
,,,,,,,64842d97a58fd50e158fd482,2023-08-16_08h40.38.116,HF_wild_card,2022.2.4,Linux x86_64,60.0024001,64842d97a58fd50e158fd482,64d2fd46c836a06233681665,64dc7cd470d1e514aee1fcf1,,,,,,,decisionTrl,resources/DB.BMP,resources/DY.BMP,Door2,0.284264406,0.035563986,1,0,0,2.4117,optionRight,40,120,1,2,0,2,0,1,,,,,,,,,,,,,,,,,,,,,,,,,,,,,,,,,,,,,,,
,,,,,,,64842d97a58fd50e158fd482,2023-08-16_08h40.38.116,HF_wild_card,2022.2.4,Linux x86_64,60.0024001,64842d97a58fd50e158fd482,64d2fd46c836a06233681665,64dc7cd470d1e514aee1fcf1,,,,,,,ctch,resources/DG.BMP,resources/DB.BMP,Door1,0.253451109,0.015456676,1,0,0,2.0611,optionRight,30,150,1,3,0,3,0,1,,,,,,,,,,,,,,,,,,,,,,,,,,,,,,,,,,,,,,,
,,,,,,,64842d97a58fd50e158fd482,2023-08-16_08h40.38.116,HF_wild_card,2022.2.4,Linux x86_64,60.0024001,64842d97a58fd50e158fd482,64d2fd46c836a06233681665,64dc7cd470d1e514aee1fcf1,,,,,,,decisionTrl,resources/DY.BMP,resources/DB.BMP,Door2,-0.273465633,-0.011936148,1,0,0,2.2773,optionLeft,20,170,1,4,0,4,0,1,,,,,,,,,,,,,,,,,,,,,,,,,,,,,,,,,,,,,,,
,,,,,,,64842d97a58fd50e158fd482,2023-08-16_08h40.38.116,HF_wild_card,2022.2.4,Linux x86_64,60.0024001,64842d97a58fd50e158fd482,64d2fd46c836a06233681665,64dc7cd470d1e514aee1fcf1,,,,,,,decisionTrl,resources/DG.BMP,resources/DBN.BMP,WildCard_Ex,0.268401702,0.034450452,1,0,0,1.5437,optionRight,95,265,1,5,0,5,0,1,,,,,,,,,,,,,,,,,,,,,,,,,,,,,,,,,,,,,,,
,,,,,,,64842d97a58fd50e158fd482,2023-08-16_08h40.38.116,HF_wild_card,2022.2.4,Linux x86_64,60.0024001,64842d97a58fd50e158fd482,64d2fd46c836a06233681665,64dc7cd470d1e514aee1fcf1,,,,,,,decisionTrl,resources/DB.BMP,resources/DY.BMP,Door1,-0.285829981,-0.016751568,1,0,0,1.6284,optionLeft,30,295,1,6,0,6,0,1,,,,,,,,,,,,,,,,,,,,,,,,,,,,,,,,,,,,,,,
,,,,,,,64842d97a58fd50e158fd482,2023-08-16_08h40.38.116,HF_wild_card,2022.2.4,Linux x86_64,60.0024001,64842d97a58fd50e158fd482,64d2fd46c836a06233681665,64dc7cd470d1e514aee1fcf1,,,,,,,sngl,resources/Empty.png,resources/DBN.BMP,WildCard_Ex,0.306410233,0.042590737,1,0,0,0.9623,optionRight,95,390,1,7,0,7,0,1,,,,,,,,,,,,,,,,,,,,,,,,,,,,,,,,,,,,,,,
,,,,,,,64842d97a58fd50e158fd482,2023-08-16_08h40.38.116,HF_wild_card,2022.2.4,Linux x86_64,60.0024001,64842d97a58fd50e158fd482,64d2fd46c836a06233681665,64dc7cd470d1e514aee1fcf1,,,,,,,ctch,resources/DP.BMP,resources/DY.BMP,Door3,-0.268672665,-0.015507976,1,0,0,1.5782,optionLeft,70,460,1,8,0,8,0,1,,,,,,,,,,,,,,,,,,,,,,,,,,,,,,,,,,,,,,,
,,,,,,,64842d97a58fd50e158fd482,2023-08-16_08h40.38.116,HF_wild_card,2022.2.4,Linux x86_64,60.0024001,64842d97a58fd50e158fd482,64d2fd46c836a06233681665,64dc7cd470d1e514aee1fcf1,,,,,,,decisionTrl,resources/DG.BMP,resources/DP.BMP,Door4,-0.186224699,-0.022544622,1,0,0,1.4768,optionLeft,80,540,1,9,0,9,0,1,,,,,,,,,,,,,,,,,,,,,,,,,,,,,,,,,,,,,,,
,,,,,,,64842d97a58fd50e158fd482,2023-08-16_08h40.38.116,HF_wild_card,2022.2.4,Linux x86_64,60.0024001,64842d97a58fd50e158fd482,64d2fd46c836a06233681665,64dc7cd470d1e514aee1fcf1,,,,,,,decisionTrl,resources/DY.BMP,resources/DB.BMP,Door1,0.277068853,0.011183818,1,0,0,1.0777,optionRight,30,570,1,10,0,10,0,1,,,,,,,,,,,,,,,,,,,,,,,,,,,,,,,,,,,,,,,
,,,,,,,64842d97a58fd50e158fd482,2023-08-16_08h40.38.116,HF_wild_card,2022.2.4,Linux x86_64,60.0024001,64842d97a58fd50e158fd482,64d2fd46c836a06233681665,64dc7cd470d1e514aee1fcf1,,,,,,,decisionTrl,resources/DG.BMP,resources/DP.BMP,Door3,0.311159134,0.007954955,1,0,0,1.2784,optionRight,70,640,1,11,0,11,0,1,,,,,,,,,,,,,,,,,,,,,,,,,,,,,,,,,,,,,,,
,,,,,,,64842d97a58fd50e158fd482,2023-08-16_08h40.38.116,HF_wild_card,2022.2.4,Linux x86_64,60.0024001,64842d97a58fd50e158fd482,64d2fd46c836a06233681665,64dc7cd470d1e514aee1fcf1,,,,,,,ctch,resources/DB.BMP,resources/DG.BMP,Door4,0.350912094,0.053883473,1,0,0,1.7453,optionRight,80,720,1,12,0,12,0,1,,,,,,,,,,,,,,,,,,,,,,,,,,,,,,,,,,,,,,,
,,,,,,,64842d97a58fd50e158fd482,2023-08-16_08h40.38.116,HF_wild_card,2022.2.4,Linux x86_64,60.0024001,64842d97a58fd50e158fd482,64d2fd46c836a06233681665,64dc7cd470d1e514aee1fcf1,,,,,,,decisionTrl,resources/DP.BMP,resources/DBN.BMP,WildCard_Ex,0.277095238,0.033811092,1,0,0,1.0624,optionRight,95,815,1,13,0,13,0,1,,,,,,,,,,,,,,,,,,,,,,,,,,,,,,,,,,,,,,,
,,,,,,,64842d97a58fd50e158fd482,2023-08-16_08h40.38.116,HF_wild_card,2022.2.4,Linux x86_64,60.0024001,64842d97a58fd50e158fd482,64d2fd46c836a06233681665,64dc7cd470d1e514aee1fcf1,,,,,,,decisionTrl,resources/DBN.BMP,resources/DY.BMP,WildCard_Ex,-0.204943657,0.005771359,1,0,0,0.7945,optionLeft,5,820,1,14,0,14,0,1,,,,,,,,,,,,,,,,,,,,,,,,,,,,,,,,,,,,,,,
,,,,,,,64842d97a58fd50e158fd482,2023-08-16_08h40.38.116,HF_wild_card,2022.2.4,Linux x86_64,60.0024001,64842d97a58fd50e158fd482,64d2fd46c836a06233681665,64dc7cd470d1e514aee1fcf1,,,,,,,sngl,resources/Empty.png,resources/DBN.BMP,WildCard_Ex,0.299002488,0.035595616,1,0,0,0.7953,optionRight,5,825,1,15,0,15,0,1,,,,,,,,,,,,,,,,,,,,,,,,,,,,,,,,,,,,,,,
,,,,,,,64842d97a58fd50e158fd482,2023-08-16_08h40.38.116,HF_wild_card,2022.2.4,Linux x86_64,60.0024001,64842d97a58fd50e158fd482,64d2fd46c836a06233681665,64dc7cd470d1e514aee1fcf1,,,,,,,decisionTrl,resources/DBN.BMP,resources/DG.BMP,Door4,0.251899481,0.060512225,1,0,0,1.1789,optionRight,60,885,1,16,0,16,0,1,,,,,,,,,,,,,,,,,,,,,,,,,,,,,,,,,,,,,,,
,,,,,,,64842d97a58fd50e158fd482,2023-08-16_08h40.38.116,HF_wild_card,2022.2.4,Linux x86_64,60.0024001,64842d97a58fd50e158fd482,64d2fd46c836a06233681665,64dc7cd470d1e514aee1fcf1,,,,,,,decisionTrl,resources/DB.BMP,resources/DY.BMP,Door2,0.26296099,0.034466028,1,0,0,1.4779,optionRight,20,905,1,17,0,17,0,1,,,,,,,,,,,,,,,,,,,,,,,,,,,,,,,,,,,,,,,
,,,,,,,64842d97a58fd50e158fd482,2023-08-16_08h40.38.116,HF_wild_card,2022.2.4,Linux x86_64,60.0024001,64842d97a58fd50e158fd482,64d2fd46c836a06233681665,64dc7cd470d1e514aee1fcf1,,,,,,,ctch,resources/DG.BMP,resources/DB.BMP,Door4,-0.171827078,0.002334158,1,0,0,1.9789,optionLeft,80,985,1,18,0,18,0,1,,,,,,,,,,,,,,,,,,,,,,,,,,,,,,,,,,,,,,,
,,,,,,,64842d97a58fd50e158fd482,2023-08-16_08h40.38.116,HF_wild_card,2022.2.4,Linux x86_64,60.0024001,64842d97a58fd50e158fd482,64d2fd46c836a06233681665,64dc7cd470d1e514aee1fcf1,,,,,,,ctch,resources/DY.BMP,resources/DP.BMP,Door3,0.285881519,0.016529083,1,0,0,1.2793,optionRight,70,1055,1,19,0,19,0,1,,,,,,,,,,,,,,,,,,,,,,,,,,,,,,,,,,,,,,,
,,,,,,,64842d97a58fd50e158fd482,2023-08-16_08h40.38.116,HF_wild_card,2022.2.4,Linux x86_64,60.0024001,64842d97a58fd50e158fd482,64d2fd46c836a06233681665,64dc7cd470d1e514aee1fcf1,,,,,,,decisionTrl,resources/DBN.BMP,resources/DP.BMP,WildCard_Ex,-0.234758536,0.007691344,1,0,0,1.1942,optionLeft,95,1150,1,20,0,20,0,1,,,,,,,,,,,,,,,,,,,,,,,,,,,,,,,,,,,,,,,
,,,,,,,64842d97a58fd50e158fd482,2023-08-16_08h40.38.116,HF_wild_card,2022.2.4,Linux x86_64,60.0024001,64842d97a58fd50e158fd482,64d2fd46c836a06233681665,64dc7cd470d1e514aee1fcf1,,,,,,,ctch,resources/DP.BMP,resources/DY.BMP,Door2,0.271821181,0.045262734,1,0,0,1.5288,optionRight,20,1170,1,21,0,21,0,1,,,,,,,,,,,,,,,,,,,,,,,,,,,,,,,,,,,,,,,
,,,,,,,64842d97a58fd50e158fd482,2023-08-16_08h40.38.116,HF_wild_card,2022.2.4,Linux x86_64,60.0024001,64842d97a58fd50e158fd482,64d2fd46c836a06233681665,64dc7cd470d1e514aee1fcf1,,,,,,,decisionTrl,resources/DY.BMP,resources/DB.BMP,Door1,0.31172514,0.060215553,1,0,0,1.6785,optionRight,30,1200,1,22,0,22,0,1,,,,,,,,,,,,,,,,,,,,,,,,,,,,,,,,,,,,,,,
,,,,,,,64842d97a58fd50e158fd482,2023-08-16_08h40.38.116,HF_wild_card,2022.2.4,Linux x86_64,60.0024001,64842d97a58fd50e158fd482,64d2fd46c836a06233681665,64dc7cd470d1e514aee1fcf1,,,,,,,sngl,resources/DB.BMP,resources/Empty.png,Door1,-0.180531581,0.000741045,1,0,0,0.9122,optionLeft,30,1230,1,23,0,23,0,1,,,,,,,,,,,,,,,,,,,,,,,,,,,,,,,,,,,,,,,
,,,,,,,64842d97a58fd50e158fd482,2023-08-16_08h40.38.116,HF_wild_card,2022.2.4,Linux x86_64,60.0024001,64842d97a58fd50e158fd482,64d2fd46c836a06233681665,64dc7cd470d1e514aee1fcf1,,,,,,,decisionTrl,resources/DG.BMP,resources/DP.BMP,Door4,-0.274775108,0.025045435,1,0,0,1.378,optionLeft,80,1310,1,24,0,24,0,1,,,,,,,,,,,,,,,,,,,,,,,,,,,,,,,,,,,,,,,
,,,,,,,64842d97a58fd50e158fd482,2023-08-16_08h40.38.116,HF_wild_card,2022.2.4,Linux x86_64,60.0024001,64842d97a58fd50e158fd482,64d2fd46c836a06233681665,64dc7cd470d1e514aee1fcf1,,,,,,,sngl,resources/DBN.BMP,resources/Empty.png,WildCard_Ex,-0.270501097,0.014337142,1,0,0,0.8287,optionLeft,5,1315,1,25,0,25,0,1,,,,,,,,,,,,,,,,,,,,,,,,,,,,,,,,,,,,,,,
,,,,,,,64842d97a58fd50e158fd482,2023-08-16_08h40.38.116,HF_wild_card,2022.2.4,Linux x86_64,60.0024001,64842d97a58fd50e158fd482,64d2fd46c836a06233681665,64dc7cd470d1e514aee1fcf1,,,,,,,sngl,resources/DY.BMP,resources/Empty.png,Door2,-0.275050879,0.018274387,1,0,0,0.7937,optionLeft,40,1355,1,26,0,26,0,1,,,,,,,,,,,,,,,,,,,,,,,,,,,,,,,,,,,,,,,
,,,,,,,64842d97a58fd50e158fd482,2023-08-16_08h40.38.116,HF_wild_card,2022.2.4,Linux x86_64,60.0024001,64842d97a58fd50e158fd482,64d2fd46c836a06233681665,64dc7cd470d1e514aee1fcf1,,,,,,,sngl,resources/Empty.png,resources/DB.BMP,Door1,0.294705073,0.044004877,1,0,0,0.6626,optionRight,30,1385,1,27,0,27,0,1,,,,,,,,,,,,,,,,,,,,,,,,,,,,,,,,,,,,,,,
,,,,,,,64842d97a58fd50e158fd482,2023-08-16_08h40.38.116,HF_wild_card,2022.2.4,Linux x86_64,60.0024001,64842d97a58fd50e158fd482,64d2fd46c836a06233681665,64dc7cd470d1e514aee1fcf1,,,,,,,sngl,resources/DP.BMP,resources/Empty.png,Door3,-0.295091629,0.022441427,1,0,0,1.3286,optionLeft,70,1455,1,28,0,28,0,1,,,,,,,,,,,,,,,,,,,,,,,,,,,,,,,,,,,,,,,
,,,,,,,64842d97a58fd50e158fd482,2023-08-16_08h40.38.116,HF_wild_card,2022.2.4,Linux x86_64,60.0024001,64842d97a58fd50e158fd482,64d2fd46c836a06233681665,64dc7cd470d1e514aee1fcf1,,,,,,,ctch,resources/DY.BMP,resources/DP.BMP,Door2,-0.227607091,0.031906883,1,0,0,1.029,optionLeft,20,1475,1,29,0,29,0,1,,,,,,,,,,,,,,,,,,,,,,,,,,,,,,,,,,,,,,,
,,,,,,,64842d97a58fd50e158fd482,2023-08-16_08h40.38.116,HF_wild_card,2022.2.4,Linux x86_64,60.0024001,64842d97a58fd50e158fd482,64d2fd46c836a06233681665,64dc7cd470d1e514aee1fcf1,,,,,,,decisionTrl,resources/DBN.BMP,resources/DB.BMP,WildCard_Ex,-0.213348627,0.042402546,1,0,0,1.1122,optionLeft,5,1480,1,30,0,30,0,1,,,,,,,,,,,,,,,,,,,,,,,,,,,,,,,,,,,,,,,
,,,,,,,64842d97a58fd50e158fd482,2023-08-16_08h40.38.116,HF_wild_card,2022.2.4,Linux x86_64,60.0024001,64842d97a58fd50e158fd482,64d2fd46c836a06233681665,64dc7cd470d1e514aee1fcf1,,,,,,,decisionTrl,resources/DP.BMP,resources/DG.BMP,Door4,0.284633319,0.057141662,1,0,0,0.928,optionRight,60,1540,1,31,0,31,0,1,,,,,,,,,,,,,,,,,,,,,,,,,,,,,,,,,,,,,,,
,,,,,,,64842d97a58fd50e158fd482,2023-08-16_08h40.38.116,HF_wild_card,2022.2.4,Linux x86_64,60.0024001,64842d97a58fd50e158fd482,64d2fd46c836a06233681665,64dc7cd470d1e514aee1fcf1,,,,,,,sngl,resources/DBN.BMP,resources/Empty.png,WildCard_Ex,-0.215693792,0.025085131,1,0,0,0.8289,optionLeft,95,1635,1,32,0,32,0,1,,,,,,,,,,,,,,,,,,,,,,,,,,,,,,,,,,,,,,,
,,,,,,,64842d97a58fd50e158fd482,2023-08-16_08h40.38.116,HF_wild_card,2022.2.4,Linux x86_64,60.0024001,64842d97a58fd50e158fd482,64d2fd46c836a06233681665,64dc7cd470d1e514aee1fcf1,,,,,,,ctch,resources/DB.BMP,resources/DG.BMP,Door4,0.272093455,0.044147611,1,0,0,1.4124,optionRight,80,1715,1,33,0,33,0,1,,,,,,,,,,,,,,,,,,,,,,,,,,,,,,,,,,,,,,,
,,,,,,,64842d97a58fd50e158fd482,2023-08-16_08h40.38.116,HF_wild_card,2022.2.4,Linux x86_64,60.0024001,64842d97a58fd50e158fd482,64d2fd46c836a06233681665,64dc7cd470d1e514aee1fcf1,,,,,,,sngl,resources/DG.BMP,resources/Empty.png,Door4,-0.223189791,-0.000100573,1,0,0,0.6793,optionLeft,80,1795,1,34,0,34,0,1,,,,,,,,,,,,,,,,,,,,,,,,,,,,,,,,,,,,,,,
,,,,,,,64842d97a58fd50e158fd482,2023-08-16_08h40.38.116,HF_wild_card,2022.2.4,Linux x86_64,60.0024001,64842d97a58fd50e158fd482,64d2fd46c836a06233681665,64dc7cd470d1e514aee1fcf1,,,,,,,decisionTrl,resources/DY.BMP,resources/DB.BMP,Door2,-0.251292706,0.010450085,1,0,0,1.0317,optionLeft,20,1815,1,35,0,35,0,1,,,,,,,,,,,,,,,,,,,,,,,,,,,,,,,,,,,,,,,
,,,,,,,64842d97a58fd50e158fd482,2023-08-16_08h40.38.116,HF_wild_card,2022.2.4,Linux x86_64,60.0024001,64842d97a58fd50e158fd482,64d2fd46c836a06233681665,64dc7cd470d1e514aee1fcf1,,,,,,,decisionTrl,resources/DP.BMP,resources/DG.BMP,Door3,-0.254676978,0.029329419,1,0,0,1.2774,optionLeft,70,1885,1,36,0,36,0,1,,,,,,,,,,,,,,,,,,,,,,,,,,,,,,,,,,,,,,,
,,,,,,,64842d97a58fd50e158fd482,2023-08-16_08h40.38.116,HF_wild_card,2022.2.4,Linux x86_64,60.0024001,64842d97a58fd50e158fd482,64d2fd46c836a06233681665,64dc7cd470d1e514aee1fcf1,,,,,,,decisionTrl,resources/DB.BMP,resources/DY.BMP,Door1,-0.200425784,0.028440158,1,0,0,1.6122,optionLeft,30,1915,1,37,0,37,0,1,,,,,,,,,,,,,,,,,,,,,,,,,,,,,,,,,,,,,,,
,,,,,,,64842d97a58fd50e158fd482,2023-08-16_08h40.38.116,HF_wild_card,2022.2.4,Linux x86_64,60.0024001,64842d97a58fd50e158fd482,64d2fd46c836a06233681665,64dc7cd470d1e514aee1fcf1,,,,,,,sngl,resources/Empty.png,resources/DY.BMP,Door2,0.29191494,0.049233278,1,0,0,0.7112,optionRight,20,1935,1,38,0,38,0,1,,,,,,,,,,,,,,,,,,,,,,,,,,,,,,,,,,,,,,,
,,,,,,,64842d97a58fd50e158fd482,2023-08-16_08h40.38.116,HF_wild_card,2022.2.4,Linux x86_64,60.0024001,64842d97a58fd50e158fd482,64d2fd46c836a06233681665,64dc7cd470d1e514aee1fcf1,,,,,,,decisionTrl,resources/DG.BMP,resources/DP.BMP,Door4,-0.217465401,0.015342673,1,0,0,1.6773,optionLeft,60,1995,1,39,0,39,0,1,,,,,,,,,,,,,,,,,,,,,,,,,,,,,,,,,,,,,,,
,,,,,,,64842d97a58fd50e158fd482,2023-08-16_08h40.38.116,HF_wild_card,2022.2.4,Linux x86_64,60.0024001,64842d97a58fd50e158fd482,64d2fd46c836a06233681665,64dc7cd470d1e514aee1fcf1,,,,,,,sngl,resources/Empty.png,resources/DP.BMP,Door3,0.251708428,0.031009038,1,0,0,0.7618,optionRight,70,2065,1,40,0,40,0,1,,,,,,,,,,,,,,,,,,,,,,,,,,,,,,,,,,,,,,,
,,,,,,,64842d97a58fd50e158fd482,2023-08-16_08h40.38.116,HF_wild_card,2022.2.4,Linux x86_64,60.0024001,64842d97a58fd50e158fd482,64d2fd46c836a06233681665,64dc7cd470d1e514aee1fcf1,,,,,,,decisionTrl,resources/DB.BMP,resources/DBN.BMP,WildCard_Ex,0.239412864,0.03532052,1,0,0,1.3128,optionRight,95,2160,1,41,0,41,0,1,,,,,,,,,,,,,,,,,,,,,,,,,,,,,,,,,,,,,,,
,,,,,,,64842d97a58fd50e158fd482,2023-08-16_08h40.38.116,HF_wild_card,2022.2.4,Linux x86_64,60.0024001,64842d97a58fd50e158fd482,64d2fd46c836a06233681665,64dc7cd470d1e514aee1fcf1,,,,,,,decisionTrl,resources/DP.BMP,resources/DG.BMP,Door4,0.2496593,0.042535305,1,0,0,1.4622,optionRight,60,2220,1,42,0,42,0,1,,,,,,,,,,,,,,,,,,,,,,,,,,,,,,,,,,,,,,,
,,,,,,,64842d97a58fd50e158fd482,2023-08-16_08h40.38.116,HF_wild_card,2022.2.4,Linux x86_64,60.0024001,64842d97a58fd50e158fd482,64d2fd46c836a06233681665,64dc7cd470d1e514aee1fcf1,,,,,,,decisionTrl,resources/DP.BMP,resources/DG.BMP,Door3,-0.166876952,0.014964422,1,0,0,1.3104,optionLeft,70,2290,1,43,0,43,0,1,,,,,,,,,,,,,,,,,,,,,,,,,,,,,,,,,,,,,,,
,,,,,,,64842d97a58fd50e158fd482,2023-08-16_08h40.38.116,HF_wild_card,2022.2.4,Linux x86_64,60.0024001,64842d97a58fd50e158fd482,64d2fd46c836a06233681665,64dc7cd470d1e514aee1fcf1,,,,,,,,,,,,,,,,,,,,,,,,,,0,0,0,0,1,,,,,,,,,,,,,,,,,,,,,,,,,,,,,,,,,,
,,,,,,,64842d97a58fd50e158fd482,2023-08-16_08h40.38.116,HF_wild_card,2022.2.4,Linux x86_64,60.0024001,64842d97a58fd50e158fd482,64d2fd46c836a06233681665,64dc7cd470d1e514aee1fcf1,,,,,,,ctch,resources/DP.BMP,resources/DY.BMP,Door3,-0.211783965,-0.210418542,1,0,0,1.0731,optionLeft,70,2360,2,0,0,0,0,1,,,,,,,,,,,,,,,,,,,,,,,,,,,,,,,,,,,,,,,
,,,,,,,64842d97a58fd50e158fd482,2023-08-16_08h40.38.116,HF_wild_card,2022.2.4,Linux x86_64,60.0024001,64842d97a58fd50e158fd482,64d2fd46c836a06233681665,64dc7cd470d1e514aee1fcf1,,,,,,,sngl,resources/DG.BMP,resources/Empty.png,Door4,-0.244634271,-0.037146926,1,0,0,0.7954,optionLeft,60,2420,2,1,0,1,0,1,,,,,,,,,,,,,,,,,,,,,,,,,,,,,,,,,,,,,,,
,,,,,,,64842d97a58fd50e158fd482,2023-08-16_08h40.38.116,HF_wild_card,2022.2.4,Linux x86_64,60.0024001,64842d97a58fd50e158fd482,64d2fd46c836a06233681665,64dc7cd470d1e514aee1fcf1,,,,,,,sngl,resources/Empty.png,resources/DBN.BMP,WildCard_Ex,0.340027968,0.006611784,1,0,0,0.8281,optionRight,95,2515,2,2,0,2,0,1,,,,,,,,,,,,,,,,,,,,,,,,,,,,,,,,,,,,,,,
,,,,,,,64842d97a58fd50e158fd482,2023-08-16_08h40.38.116,HF_wild_card,2022.2.4,Linux x86_64,60.0024001,64842d97a58fd50e158fd482,64d2fd46c836a06233681665,64dc7cd470d1e514aee1fcf1,,,,,,,sngl,resources/Empty.png,resources/DP.BMP,Door3,0.275924444,-0.017237385,1,0,0,0.7625,optionRight,70,2585,2,3,0,3,0,1,,,,,,,,,,,,,,,,,,,,,,,,,,,,,,,,,,,,,,,
,,,,,,,64842d97a58fd50e158fd482,2023-08-16_08h40.38.116,HF_wild_card,2022.2.4,Linux x86_64,60.0024001,64842d97a58fd50e158fd482,64d2fd46c836a06233681665,64dc7cd470d1e514aee1fcf1,,,,,,,decisionTrl,resources/DB.BMP,resources/DY.BMP,Door1,-0.214599848,-0.056232492,1,0,0,1.2939,optionLeft,30,2615,2,4,0,4,0,1,,,,,,,,,,,,,,,,,,,,,,,,,,,,,,,,,,,,,,,
,,,,,,,64842d97a58fd50e158fd482,2023-08-16_08h40.38.116,HF_wild_card,2022.2.4,Linux x86_64,60.0024001,64842d97a58fd50e158fd482,64d2fd46c836a06233681665,64dc7cd470d1e514aee1fcf1,,,,,,,decisionTrl,resources/DB.BMP,resources/DY.BMP,Door2,0.170475006,-0.021282554,1,0,0,1.1437,optionRight,20,2635,2,5,0,5,0,1,,,,,,,,,,,,,,,,,,,,,,,,,,,,,,,,,,,,,,,
,,,,,,,64842d97a58fd50e158fd482,2023-08-16_08h40.38.116,HF_wild_card,2022.2.4,Linux x86_64,60.0024001,64842d97a58fd50e158fd482,64d2fd46c836a06233681665,64dc7cd470d1e514aee1fcf1,,,,,,,decisionTrl,resources/DP.BMP,resources/DG.BMP,Door3,-0.176030715,-0.063854218,1,0,0,0.8459,optionLeft,70,2705,2,6,0,6,0,1,,,,,,,,,,,,,,,,,,,,,,,,,,,,,,,,,,,,,,,
,,,,,,,64842d97a58fd50e158fd482,2023-08-16_08h40.38.116,HF_wild_card,2022.2.4,Linux x86_64,60.0024001,64842d97a58fd50e158fd482,64d2fd46c836a06233681665,64dc7cd470d1e514aee1fcf1,,,,,,,sngl,resources/Empty.png,resources/DY.BMP,Door2,0.203480164,-0.040707628,1,0,0,0.7287,optionRight,40,2745,2,7,0,7,0,1,,,,,,,,,,,,,,,,,,,,,,,,,,,,,,,,,,,,,,,
,,,,,,,64842d97a58fd50e158fd482,2023-08-16_08h40.38.116,HF_wild_card,2022.2.4,Linux x86_64,60.0024001,64842d97a58fd50e158fd482,64d2fd46c836a06233681665,64dc7cd470d1e514aee1fcf1,,,,,,,sngl,resources/DP.BMP,resources/Empty.png,Door3,-0.240808328,-0.045860171,1,0,0,1.0435,optionLeft,70,2815,2,8,0,8,0,1,,,,,,,,,,,,,,,,,,,,,,,,,,,,,,,,,,,,,,,
,,,,,,,64842d97a58fd50e158fd482,2023-08-16_08h40.38.116,HF_wild_card,2022.2.4,Linux x86_64,60.0024001,64842d97a58fd50e158fd482,64d2fd46c836a06233681665,64dc7cd470d1e514aee1fcf1,,,,,,,sngl,resources/DB.BMP,resources/Empty.png,Door1,-0.204455137,-0.038598339,1,0,0,0.6963,optionLeft,30,2845,2,9,0,9,0,1,,,,,,,,,,,,,,,,,,,,,,,,,,,,,,,,,,,,,,,
,,,,,,,64842d97a58fd50e158fd482,2023-08-16_08h40.38.116,HF_wild_card,2022.2.4,Linux x86_64,60.0024001,64842d97a58fd50e158fd482,64d2fd46c836a06233681665,64dc7cd470d1e514aee1fcf1,,,,,,,ctch,resources/DP.BMP,resources/DY.BMP,Door3,-0.208911498,-0.056311647,1,0,0,0.929,optionLeft,70,2915,2,10,0,10,0,1,,,,,,,,,,,,,,,,,,,,,,,,,,,,,,,,,,,,,,,
,,,,,,,64842d97a58fd50e158fd482,2023-08-16_08h40.38.116,HF_wild_card,2022.2.4,Linux x86_64,60.0024001,64842d97a58fd50e158fd482,64d2fd46c836a06233681665,64dc7cd470d1e514aee1fcf1,,,,,,,decisionTrl,resources/DP.BMP,resources/DG.BMP,Door3,-0.167353868,-0.049887419,1,0,0,0.645,optionLeft,70,2985,2,11,0,11,0,1,,,,,,,,,,,,,,,,,,,,,,,,,,,,,,,,,,,,,,,
,,,,,,,64842d97a58fd50e158fd482,2023-08-16_08h40.38.116,HF_wild_card,2022.2.4,Linux x86_64,60.0024001,64842d97a58fd50e158fd482,64d2fd46c836a06233681665,64dc7cd470d1e514aee1fcf1,,,,,,,decisionTrl,resources/DG.BMP,resources/DP.BMP,Door3,0.268877745,-0.031876604,1,0,0,0.6128,optionRight,70,3055,2,12,0,12,0,1,,,,,,,,,,,,,,,,,,,,,,,,,,,,,,,,,,,,,,,
,,,,,,,64842d97a58fd50e158fd482,2023-08-16_08h40.38.116,HF_wild_card,2022.2.4,Linux x86_64,60.0024001,64842d97a58fd50e158fd482,64d2fd46c836a06233681665,64dc7cd470d1e514aee1fcf1,,,,,,,decisionTrl,resources/DY.BMP,resources/DB.BMP,Door2,-0.202469428,-0.060633699,1,0,0,0.9939,optionLeft,40,3095,2,13,0,13,0,1,,,,,,,,,,,,,,,,,,,,,,,,,,,,,,,,,,,,,,,
,,,,,,,64842d97a58fd50e158fd482,2023-08-16_08h40.38.116,HF_wild_card,2022.2.4,Linux x86_64,60.0024001,64842d97a58fd50e158fd482,64d2fd46c836a06233681665,64dc7cd470d1e514aee1fcf1,,,,,,,decisionTrl,resources/DB.BMP,resources/DY.BMP,Door1,-0.197079261,-0.052705089,1,0,0,0.7294,optionLeft,30,3125,2,14,0,14,0,1,,,,,,,,,,,,,,,,,,,,,,,,,,,,,,,,,,,,,,,
,,,,,,,64842d97a58fd50e158fd482,2023-08-16_08h40.38.116,HF_wild_card,2022.2.4,Linux x86_64,60.0024001,64842d97a58fd50e158fd482,64d2fd46c836a06233681665,64dc7cd470d1e514aee1fcf1,,,,,,,sngl,resources/Empty.png,resources/DBN.BMP,WildCard_Ex,0.293077707,-0.005563418,1,0,0,0.7125,optionRight,5,3130,2,15,0,15,0,1,,,,,,,,,,,,,,,,,,,,,,,,,,,,,,,,,,,,,,,
,,,,,,,64842d97a58fd50e158fd482,2023-08-16_08h40.38.116,HF_wild_card,2022.2.4,Linux x86_64,60.0024001,64842d97a58fd50e158fd482,64d2fd46c836a06233681665,64dc7cd470d1e514aee1fcf1,,,,,,,ctch,resources/DG.BMP,resources/DB.BMP,Door4,-0.148017963,-0.070474505,1,0,0,1.1604,optionLeft,80,3210,2,16,0,16,0,1,,,,,,,,,,,,,,,,,,,,,,,,,,,,,,,,,,,,,,,
,,,,,,,64842d97a58fd50e158fd482,2023-08-16_08h40.38.116,HF_wild_card,2022.2.4,Linux x86_64,60.0024001,64842d97a58fd50e158fd482,64d2fd46c836a06233681665,64dc7cd470d1e514aee1fcf1,,,,,,,ctch,resources/DB.BMP,resources/DG.BMP,Door4,0.239833673,-0.017407735,1,0,0,0.6119,optionRight,60,3270,2,17,0,17,0,1,,,,,,,,,,,,,,,,,,,,,,,,,,,,,,,,,,,,,,,
,,,,,,,64842d97a58fd50e158fd482,2023-08-16_08h40.38.116,HF_wild_card,2022.2.4,Linux x86_64,60.0024001,64842d97a58fd50e158fd482,64d2fd46c836a06233681665,64dc7cd470d1e514aee1fcf1,,,,,,,decisionTrl,resources/DY.BMP,resources/DB.BMP,Door1,0.179009676,-0.029677788,1,0,0,1.0291,optionRight,30,3300,2,18,0,18,0,1,,,,,,,,,,,,,,,,,,,,,,,,,,,,,,,,,,,,,,,
,,,,,,,64842d97a58fd50e158fd482,2023-08-16_08h40.38.116,HF_wild_card,2022.2.4,Linux x86_64,60.0024001,64842d97a58fd50e158fd482,64d2fd46c836a06233681665,64dc7cd470d1e514aee1fcf1,,,,,,,decisionTrl,resources/DY.BMP,resources/DB.BMP,Door2,-0.188126008,-0.035273035,1,0,0,0.8786,optionLeft,20,3320,2,19,0,19,0,1,,,,,,,,,,,,,,,,,,,,,,,,,,,,,,,,,,,,,,,
,,,,,,,64842d97a58fd50e158fd482,2023-08-16_08h40.38.116,HF_wild_card,2022.2.4,Linux x86_64,60.0024001,64842d97a58fd50e158fd482,64d2fd46c836a06233681665,64dc7cd470d1e514aee1fcf1,,,,,,,decisionTrl,resources/DG.BMP,resources/DP.BMP,Door3,-0.097326279,-0.037579258,1,0,0,1.2445,optionRight,70,3390,2,20,0,20,0,1,,,,,,,,,,,,,,,,,,,,,,,,,,,,,,,,,,,,,,,
,,,,,,,64842d97a58fd50e158fd482,2023-08-16_08h40.38.116,HF_wild_card,2022.2.4,Linux x86_64,60.0024001,64842d97a58fd50e158fd482,64d2fd46c836a06233681665,64dc7cd470d1e514aee1fcf1,,,,,,,decisionTrl,resources/DBN.BMP,resources/DG.BMP,Door4,0.205519358,-0.01848801,1,0,0,1.3946,optionRight,80,3470,2,21,0,21,0,1,,,,,,,,,,,,,,,,,,,,,,,,,,,,,,,,,,,,,,,
,,,,,,,64842d97a58fd50e158fd482,2023-08-16_08h40.38.116,HF_wild_card,2022.2.4,Linux x86_64,60.0024001,64842d97a58fd50e158fd482,64d2fd46c836a06233681665,64dc7cd470d1e514aee1fcf1,,,,,,,decisionTrl,resources/DBN.BMP,resources/DP.BMP,Door3,0.237623771,-0.028139353,1,0,0,1.1948,optionRight,70,3540,2,22,0,22,0,1,,,,,,,,,,,,,,,,,,,,,,,,,,,,,,,,,,,,,,,
,,,,,,,64842d97a58fd50e158fd482,2023-08-16_08h40.38.116,HF_wild_card,2022.2.4,Linux x86_64,60.0024001,64842d97a58fd50e158fd482,64d2fd46c836a06233681665,64dc7cd470d1e514aee1fcf1,,,,,,,decisionTrl,resources/DP.BMP,resources/DG.BMP,Door3,-0.115884225,-0.035195549,1,0,0,1.1106,optionLeft,70,3610,2,23,0,23,0,1,,,,,,,,,,,,,,,,,,,,,,,,,,,,,,,,,,,,,,,
,,,,,,,64842d97a58fd50e158fd482,2023-08-16_08h40.38.116,HF_wild_card,2022.2.4,Linux x86_64,60.0024001,64842d97a58fd50e158fd482,64d2fd46c836a06233681665,64dc7cd470d1e514aee1fcf1,,,,,,,ctch,resources/DY.BMP,resources/DP.BMP,Door3,0.254697959,-0.014722506,1,0,0,0.5791,optionRight,70,3680,2,24,0,24,0,1,,,,,,,,,,,,,,,,,,,,,,,,,,,,,,,,,,,,,,,
,,,,,,,64842d97a58fd50e158fd482,2023-08-16_08h40.38.116,HF_wild_card,2022.2.4,Linux x86_64,60.0024001,64842d97a58fd50e158fd482,64d2fd46c836a06233681665,64dc7cd470d1e514aee1fcf1,,,,,,,decisionTrl,resources/DBN.BMP,resources/DY.BMP,Door2,0.26588726,0.001710097,1,0,0,1.4124,optionRight,40,3720,2,25,0,25,0,1,,,,,,,,,,,,,,,,,,,,,,,,,,,,,,,,,,,,,,,
,,,,,,,64842d97a58fd50e158fd482,2023-08-16_08h40.38.116,HF_wild_card,2022.2.4,Linux x86_64,60.0024001,64842d97a58fd50e158fd482,64d2fd46c836a06233681665,64dc7cd470d1e514aee1fcf1,,,,,,,decisionTrl,resources/DG.BMP,resources/DBN.BMP,WildCard_Ex,0.296432972,0.020395478,1,0,0,1.4964,optionRight,95,3815,2,26,0,26,0,1,,,,,,,,,,,,,,,,,,,,,,,,,,,,,,,,,,,,,,,
,,,,,,,64842d97a58fd50e158fd482,2023-08-16_08h40.38.116,HF_wild_card,2022.2.4,Linux x86_64,60.0024001,64842d97a58fd50e158fd482,64d2fd46c836a06233681665,64dc7cd470d1e514aee1fcf1,,,,,,,ctch,resources/DG.BMP,resources/DB.BMP,Door4,-0.114750147,-0.026958783,1,0,0,1.5269,optionLeft,80,3895,2,27,0,27,0,1,,,,,,,,,,,,,,,,,,,,,,,,,,,,,,,,,,,,,,,
,,,,,,,64842d97a58fd50e158fd482,2023-08-16_08h40.38.116,HF_wild_card,2022.2.4,Linux x86_64,60.0024001,64842d97a58fd50e158fd482,64d2fd46c836a06233681665,64dc7cd470d1e514aee1fcf1,,,,,,,decisionTrl,resources/DP.BMP,resources/DG.BMP,Door4,0.260387818,0.005858342,1,0,0,0.7616,optionRight,60,3955,2,28,0,28,0,1,,,,,,,,,,,,,,,,,,,,,,,,,,,,,,,,,,,,,,,
,,,,,,,64842d97a58fd50e158fd482,2023-08-16_08h40.38.116,HF_wild_card,2022.2.4,Linux x86_64,60.0024001,64842d97a58fd50e158fd482,64d2fd46c836a06233681665,64dc7cd470d1e514aee1fcf1,,,,,,,sngl,resources/DBN.BMP,resources/Empty.png,WildCard_Ex,-0.178212643,-0.012662768,1,0,0,0.6943,optionLeft,5,3960,2,29,0,29,0,1,,,,,,,,,,,,,,,,,,,,,,,,,,,,,,,,,,,,,,,
,,,,,,,64842d97a58fd50e158fd482,2023-08-16_08h40.38.116,HF_wild_card,2022.2.4,Linux x86_64,60.0024001,64842d97a58fd50e158fd482,64d2fd46c836a06233681665,64dc7cd470d1e514aee1fcf1,,,,,,,sngl,resources/DBN.BMP,resources/Empty.png,WildCard_Ex,-0.216135899,0.000563939,1,0,0,0.6275,optionLeft,95,4055,2,30,0,30,0,1,,,,,,,,,,,,,,,,,,,,,,,,,,,,,,,,,,,,,,,
,,,,,,,64842d97a58fd50e158fd482,2023-08-16_08h40.38.116,HF_wild_card,2022.2.4,Linux x86_64,60.0024001,64842d97a58fd50e158fd482,64d2fd46c836a06233681665,64dc7cd470d1e514aee1fcf1,,,,,,,decisionTrl,resources/DY.BMP,resources/DBN.BMP,WildCard_Ex,0.229853948,0.010216355,1,0,0,0.9128,optionRight,5,4060,2,31,0,31,0,1,,,,,,,,,,,,,,,,,,,,,,,,,,,,,,,,,,,,,,,
,,,,,,,64842d97a58fd50e158fd482,2023-08-16_08h40.38.116,HF_wild_card,2022.2.4,Linux x86_64,60.0024001,64842d97a58fd50e158fd482,64d2fd46c836a06233681665,64dc7cd470d1e514aee1fcf1,,,,,,,sngl,resources/Empty.png,resources/DG.BMP,Door4,0.259952307,0.003934542,1,0,0,0.6454,optionRight,80,4140,2,32,0,32,0,1,,,,,,,,,,,,,,,,,,,,,,,,,,,,,,,,,,,,,,,
,,,,,,,64842d97a58fd50e158fd482,2023-08-16_08h40.38.116,HF_wild_card,2022.2.4,Linux x86_64,60.0024001,64842d97a58fd50e158fd482,64d2fd46c836a06233681665,64dc7cd470d1e514aee1fcf1,,,,,,,decisionTrl,resources/DP.BMP,resources/DBN.BMP,Door3,-0.191574574,-0.002560139,1,0,0,1.1639,optionLeft,70,4210,2,33,0,33,0,1,,,,,,,,,,,,,,,,,,,,,,,,,,,,,,,,,,,,,,,
,,,,,,,64842d97a58fd50e158fd482,2023-08-16_08h40.38.116,HF_wild_card,2022.2.4,Linux x86_64,60.0024001,64842d97a58fd50e158fd482,64d2fd46c836a06233681665,64dc7cd470d1e514aee1fcf1,,,,,,,decisionTrl,resources/DY.BMP,resources/DB.BMP,Door2,-0.131882747,0.00120461,1,0,0,0.9778,optionLeft,40,4250,2,34,0,34,0,1,,,,,,,,,,,,,,,,,,,,,,,,,,,,,,,,,,,,,,,
,,,,,,,64842d97a58fd50e158fd482,2023-08-16_08h40.38.116,HF_wild_card,2022.2.4,Linux x86_64,60.0024001,64842d97a58fd50e158fd482,64d2fd46c836a06233681665,64dc7cd470d1e514aee1fcf1,,,,,,,decisionTrl,resources/DB.BMP,resources/DY.BMP,Door2,0.214622815,0.007376075,1,0,0,0.6626,optionRight,20,4270,2,35,0,35,0,1,,,,,,,,,,,,,,,,,,,,,,,,,,,,,,,,,,,,,,,
,,,,,,,64842d97a58fd50e158fd482,2023-08-16_08h40.38.116,HF_wild_card,2022.2.4,Linux x86_64,60.0024001,64842d97a58fd50e158fd482,64d2fd46c836a06233681665,64dc7cd470d1e514aee1fcf1,,,,,,,decisionTrl,resources/DG.BMP,resources/DP.BMP,Door3,0.257094622,0.031168421,1,0,0,1.2297,optionRight,70,4340,2,36,0,36,0,1,,,,,,,,,,,,,,,,,,,,,,,,,,,,,,,,,,,,,,,
,,,,,,,64842d97a58fd50e158fd482,2023-08-16_08h40.38.116,HF_wild_card,2022.2.4,Linux x86_64,60.0024001,64842d97a58fd50e158fd482,64d2fd46c836a06233681665,64dc7cd470d1e514aee1fcf1,,,,,,,decisionTrl,resources/DB.BMP,resources/DBN.BMP,WildCard_Ex,0.202365319,0.01657331,1,0,0,1.1792,optionRight,5,4345,2,37,0,37,0,1,,,,,,,,,,,,,,,,,,,,,,,,,,,,,,,,,,,,,,,
,,,,,,,64842d97a58fd50e158fd482,2023-08-16_08h40.38.116,HF_wild_card,2022.2.4,Linux x86_64,60.0024001,64842d97a58fd50e158fd482,64d2fd46c836a06233681665,64dc7cd470d1e514aee1fcf1,,,,,,,ctch,resources/DB.BMP,resources/DG.BMP,Door1,-0.18168505,0.013265332,1,0,0,0.8293,optionLeft,30,4375,2,38,0,38,0,1,,,,,,,,,,,,,,,,,,,,,,,,,,,,,,,,,,,,,,,
,,,,,,,64842d97a58fd50e158fd482,2023-08-16_08h40.38.116,HF_wild_card,2022.2.4,Linux x86_64,60.0024001,64842d97a58fd50e158fd482,64d2fd46c836a06233681665,64dc7cd470d1e514aee1fcf1,,,,,,,decisionTrl,resources/DG.BMP,resources/DP.BMP,Door3,0.246687253,0.025654674,1,0,0,0.6126,optionRight,70,4445,2,39,0,39,0,1,,,,,,,,,,,,,,,,,,,,,,,,,,,,,,,,,,,,,,,
,,,,,,,64842d97a58fd50e158fd482,2023-08-16_08h40.38.116,HF_wild_card,2022.2.4,Linux x86_64,60.0024001,64842d97a58fd50e158fd482,64d2fd46c836a06233681665,64dc7cd470d1e514aee1fcf1,,,,,,,ctch,resources/DY.BMP,resources/DP.BMP,Door3,0.292389631,0.019715428,1,0,0,0.5627,optionRight,70,4515,2,40,0,40,0,1,,,,,,,,,,,,,,,,,,,,,,,,,,,,,,,,,,,,,,,
,,,,,,,64842d97a58fd50e158fd482,2023-08-16_08h40.38.116,HF_wild_card,2022.2.4,Linux x86_64,60.0024001,64842d97a58fd50e158fd482,64d2fd46c836a06233681665,64dc7cd470d1e514aee1fcf1,,,,,,,decisionTrl,resources/DBN.BMP,resources/DB.BMP,Door1,0.237019857,0.025679708,1,0,0,1.3769,optionRight,30,4545,2,41,0,41,0,1,,,,,,,,,,,,,,,,,,,,,,,,,,,,,,,,,,,,,,,
,,,,,,,64842d97a58fd50e158fd482,2023-08-16_08h40.38.116,HF_wild_card,2022.2.4,Linux x86_64,60.0024001,64842d97a58fd50e158fd482,64d2fd46c836a06233681665,64dc7cd470d1e514aee1fcf1,,,,,,,sngl,resources/DY.BMP,resources/Empty.png,Door2,-0.260065556,0.010329604,1,0,0,0.6618,optionLeft,20,4565,2,42,0,42,0,1,,,,,,,,,,,,,,,,,,,,,,,,,,,,,,,,,,,,,,,
,,,,,,,64842d97a58fd50e158fd482,2023-08-16_08h40.38.116,HF_wild_card,2022.2.4,Linux x86_64,60.0024001,64842d97a58fd50e158fd482,64d2fd46c836a06233681665,64dc7cd470d1e514aee1fcf1,,,,,,,sngl,resources/Empty.png,resources/DB.BMP,Door1,0.25053064,0.024404963,1,0,0,0.6777,optionRight,30,4595,2,43,0,43,0,1,,,,,,,,,,,,,,,,,,,,,,,,,,,,,,,,,,,,,,,
,,,,,,,64842d97a58fd50e158fd482,2023-08-16_08h40.38.116,HF_wild_card,2022.2.4,Linux x86_64,60.0024001,64842d97a58fd50e158fd482,64d2fd46c836a06233681665,64dc7cd470d1e514aee1fcf1,,,,,,,,,,,,,,,,,,,,,,,,,,1,0,1,0,1,,,,,,,,,,,,,,,,,,,,,,,,,,,,,,,,,,
,,,,,,,64842d97a58fd50e158fd482,2023-08-16_08h40.38.116,HF_wild_card,2022.2.4,Linux x86_64,60.0024001,64842d97a58fd50e158fd482,64d2fd46c836a06233681665,64dc7cd470d1e514aee1fcf1,,,,,,,sngl,resources/DY.BMP,resources/Empty.png,Door2,-0.229983409,-0.028265278,1,0,0,1.4082,optionLeft,40,4635,3,0,0,0,0,1,,,,,,,,,,,,,,,,,,,,,,,,,,,,,,,,,,,,,,,
,,,,,,,64842d97a58fd50e158fd482,2023-08-16_08h40.38.116,HF_wild_card,2022.2.4,Linux x86_64,60.0024001,64842d97a58fd50e158fd482,64d2fd46c836a06233681665,64dc7cd470d1e514aee1fcf1,,,,,,,ctch,resources/DB.BMP,resources/DG.BMP,Door4,0.228959401,0.013803283,1,0,0,1.0122,optionRight,60,4695,3,1,0,1,0,1,,,,,,,,,,,,,,,,,,,,,,,,,,,,,,,,,,,,,,,
,,,,,,,64842d97a58fd50e158fd482,2023-08-16_08h40.38.116,HF_wild_card,2022.2.4,Linux x86_64,60.0024001,64842d97a58fd50e158fd482,64d2fd46c836a06233681665,64dc7cd470d1e514aee1fcf1,,,,,,,ctch,resources/DG.BMP,resources/DB.BMP,Door4,-0.286971887,0.014597257,1,0,0,0.6949,optionLeft,80,4775,3,2,0,2,0,1,,,,,,,,,,,,,,,,,,,,,,,,,,,,,,,,,,,,,,,
,,,,,,,64842d97a58fd50e158fd482,2023-08-16_08h40.38.116,HF_wild_card,2022.2.4,Linux x86_64,60.0024001,64842d97a58fd50e158fd482,64d2fd46c836a06233681665,64dc7cd470d1e514aee1fcf1,,,,,,,ctch,resources/DB.BMP,resources/DG.BMP,Door4,0.231351376,0.022258441,1,0,0,0.5948,optionRight,80,4855,3,3,0,3,0,1,,,,,,,,,,,,,,,,,,,,,,,,,,,,,,,,,,,,,,,
,,,,,,,64842d97a58fd50e158fd482,2023-08-16_08h40.38.116,HF_wild_card,2022.2.4,Linux x86_64,60.0024001,64842d97a58fd50e158fd482,64d2fd46c836a06233681665,64dc7cd470d1e514aee1fcf1,,,,,,,sngl,resources/Empty.png,resources/DG.BMP,Door4,0.178420226,0.013630748,1,0,0,0.661,optionRight,60,4915,3,4,0,4,0,1,,,,,,,,,,,,,,,,,,,,,,,,,,,,,,,,,,,,,,,
,,,,,,,64842d97a58fd50e158fd482,2023-08-16_08h40.38.116,HF_wild_card,2022.2.4,Linux x86_64,60.0024001,64842d97a58fd50e158fd482,64d2fd46c836a06233681665,64dc7cd470d1e514aee1fcf1,,,,,,,decisionTrl,resources/DB.BMP,resources/DY.BMP,Door2,0.181262175,0.02532049,1,0,0,1.1594,optionRight,20,4935,3,5,0,5,0,1,,,,,,,,,,,,,,,,,,,,,,,,,,,,,,,,,,,,,,,
,,,,,,,64842d97a58fd50e158fd482,2023-08-16_08h40.38.116,HF_wild_card,2022.2.4,Linux x86_64,60.0024001,64842d97a58fd50e158fd482,64d2fd46c836a06233681665,64dc7cd470d1e514aee1fcf1,,,,,,,ctch,resources/DG.BMP,resources/DB.BMP,Door4,-0.276535392,0.018539786,1,0,0,1.0957,optionLeft,80,5015,3,6,0,6,0,1,,,,,,,,,,,,,,,,,,,,,,,,,,,,,,,,,,,,,,,
,,,,,,,64842d97a58fd50e158fd482,2023-08-16_08h40.38.116,HF_wild_card,2022.2.4,Linux x86_64,60.0024001,64842d97a58fd50e158fd482,64d2fd46c836a06233681665,64dc7cd470d1e514aee1fcf1,,,,,,,sngl,resources/Empty.png,resources/DBN.BMP,WildCard_Ex,0.204062303,0.023406506,1,0,0,0.7453,optionRight,5,5020,3,7,0,7,0,1,,,,,,,,,,,,,,,,,,,,,,,,,,,,,,,,,,,,,,,
,,,,,,,64842d97a58fd50e158fd482,2023-08-16_08h40.38.116,HF_wild_card,2022.2.4,Linux x86_64,60.0024001,64842d97a58fd50e158fd482,64d2fd46c836a06233681665,64dc7cd470d1e514aee1fcf1,,,,,,,decisionTrl,resources/DY.BMP,resources/DB.BMP,Door1,0.145908117,0.020961086,1,0,0,1.4611,optionRight,30,5050,3,8,0,8,0,1,,,,,,,,,,,,,,,,,,,,,,,,,,,,,,,,,,,,,,,
,,,,,,,64842d97a58fd50e158fd482,2023-08-16_08h40.38.116,HF_wild_card,2022.2.4,Linux x86_64,60.0024001,64842d97a58fd50e158fd482,64d2fd46c836a06233681665,64dc7cd470d1e514aee1fcf1,,,,,,,decisionTrl,resources/DG.BMP,resources/DP.BMP,Door4,-0.183052858,0.009656429,1,0,0,0.7964,optionLeft,80,5130,3,9,0,9,0,1,,,,,,,,,,,,,,,,,,,,,,,,,,,,,,,,,,,,,,,
,,,,,,,64842d97a58fd50e158fd482,2023-08-16_08h40.38.116,HF_wild_card,2022.2.4,Linux x86_64,60.0024001,64842d97a58fd50e158fd482,64d2fd46c836a06233681665,64dc7cd470d1e514aee1fcf1,,,,,,,ctch,resources/DY.BMP,resources/DP.BMP,Door2,-0.200516303,0.051045656,1,0,0,1.3135,optionLeft,20,5150,3,10,0,10,0,1,,,,,,,,,,,,,,,,,,,,,,,,,,,,,,,,,,,,,,,
,,,,,,,64842d97a58fd50e158fd482,2023-08-16_08h40.38.116,HF_wild_card,2022.2.4,Linux x86_64,60.0024001,64842d97a58fd50e158fd482,64d2fd46c836a06233681665,64dc7cd470d1e514aee1fcf1,,,,,,,sngl,resources/Empty.png,resources/DY.BMP,Door2,0.214683771,0.023180048,1,0,0,0.6948,optionRight,20,5170,3,11,0,11,0,1,,,,,,,,,,,,,,,,,,,,,,,,,,,,,,,,,,,,,,,
,,,,,,,64842d97a58fd50e158fd482,2023-08-16_08h40.38.116,HF_wild_card,2022.2.4,Linux x86_64,60.0024001,64842d97a58fd50e158fd482,64d2fd46c836a06233681665,64dc7cd470d1e514aee1fcf1,,,,,,,decisionTrl,resources/DY.BMP,resources/DB.BMP,Door2,-0.239749352,0.033716321,1,0,0,0.5451,optionLeft,20,5190,3,12,0,12,0,1,,,,,,,,,,,,,,,,,,,,,,,,,,,,,,,,,,,,,,,
,,,,,,,64842d97a58fd50e158fd482,2023-08-16_08h40.38.116,HF_wild_card,2022.2.4,Linux x86_64,60.0024001,64842d97a58fd50e158fd482,64d2fd46c836a06233681665,64dc7cd470d1e514aee1fcf1,,,,,,,decisionTrl,resources/DP.BMP,resources/DG.BMP,Door4,0.314080159,0.038354556,1,0,0,0.6777,optionRight,60,5250,3,13,0,13,0,1,,,,,,,,,,,,,,,,,,,,,,,,,,,,,,,,,,,,,,,
,,,,,,,64842d97a58fd50e158fd482,2023-08-16_08h40.38.116,HF_wild_card,2022.2.4,Linux x86_64,60.0024001,64842d97a58fd50e158fd482,64d2fd46c836a06233681665,64dc7cd470d1e514aee1fcf1,,,,,,,decisionTrl,resources/DBN.BMP,resources/DY.BMP,Door2,0.262020032,0.043859879,1,0,0,1.0118,optionRight,20,5270,3,14,0,14,0,1,,,,,,,,,,,,,,,,,,,,,,,,,,,,,,,,,,,,,,,
,,,,,,,64842d97a58fd50e158fd482,2023-08-16_08h40.38.116,HF_wild_card,2022.2.4,Linux x86_64,60.0024001,64842d97a58fd50e158fd482,64d2fd46c836a06233681665,64dc7cd470d1e514aee1fcf1,,,,,,,decisionTrl,resources/DY.BMP,resources/DB.BMP,Door1,0.25231719,0.027067701,1,0,0,1.0775,optionRight,30,5300,3,15,0,15,0,1,,,,,,,,,,,,,,,,,,,,,,,,,,,,,,,,,,,,,,,
,,,,,,,64842d97a58fd50e158fd482,2023-08-16_08h40.38.116,HF_wild_card,2022.2.4,Linux x86_64,60.0024001,64842d97a58fd50e158fd482,64d2fd46c836a06233681665,64dc7cd470d1e514aee1fcf1,,,,,,,sngl,resources/Empty.png,resources/DB.BMP,Door1,0.25940005,0.018517971,1,0,0,0.6114,optionRight,30,5330,3,16,0,16,0,1,,,,,,,,,,,,,,,,,,,,,,,,,,,,,,,,,,,,,,,
,,,,,,,64842d97a58fd50e158fd482,2023-08-16_08h40.38.116,HF_wild_card,2022.2.4,Linux x86_64,60.0024001,64842d97a58fd50e158fd482,64d2fd46c836a06233681665,64dc7cd470d1e514aee1fcf1,,,,,,,ctch,resources/DY.BMP,resources/DP.BMP,Door3,0.225108703,0.022477627,1,0,0,1.2623,optionRight,70,5400,3,17,0,17,0,1,,,,,,,,,,,,,,,,,,,,,,,,,,,,,,,,,,,,,,,
,,,,,,,64842d97a58fd50e158fd482,2023-08-16_08h40.38.116,HF_wild_card,2022.2.4,Linux x86_64,60.0024001,64842d97a58fd50e158fd482,64d2fd46c836a06233681665,64dc7cd470d1e514aee1fcf1,,,,,,,sngl,resources/DBN.BMP,resources/Empty.png,WildCard_Ex,-0.220717271,0.023365498,1,0,0,0.7122,optionLeft,5,5405,3,18,0,18,0,1,,,,,,,,,,,,,,,,,,,,,,,,,,,,,,,,,,,,,,,
,,,,,,,64842d97a58fd50e158fd482,2023-08-16_08h40.38.116,HF_wild_card,2022.2.4,Linux x86_64,60.0024001,64842d97a58fd50e158fd482,64d2fd46c836a06233681665,64dc7cd470d1e514aee1fcf1,,,,,,,ctch,resources/DP.BMP,resources/DY.BMP,Door3,-0.219447215,0.045372645,1,0,0,1.4939,optionLeft,70,5475,3,19,0,19,0,1,,,,,,,,,,,,,,,,,,,,,,,,,,,,,,,,,,,,,,,
,,,,,,,64842d97a58fd50e158fd482,2023-08-16_08h40.38.116,HF_wild_card,2022.2.4,Linux x86_64,60.0024001,64842d97a58fd50e158fd482,64d2fd46c836a06233681665,64dc7cd470d1e514aee1fcf1,,,,,,,decisionTrl,resources/DG.BMP,resources/DP.BMP,Door3,0.236681382,0.031357368,1,0,0,0.6292,optionRight,70,5545,3,20,0,20,0,1,,,,,,,,,,,,,,,,,,,,,,,,,,,,,,,,,,,,,,,
,,,,,,,64842d97a58fd50e158fd482,2023-08-16_08h40.38.116,HF_wild_card,2022.2.4,Linux x86_64,60.0024001,64842d97a58fd50e158fd482,64d2fd46c836a06233681665,64dc7cd470d1e514aee1fcf1,,,,,,,decisionTrl,resources/DBN.BMP,resources/DP.BMP,Door3,-0.006124973,0.005457362,1,0,0,0.0619,optionRight,70,5615,3,21,0,21,0,1,,,,,,,,,,,,,,,,,,,,,,,,,,,,,,,,,,,,,,,
,,,,,,,64842d97a58fd50e158fd482,2023-08-16_08h40.38.116,HF_wild_card,2022.2.4,Linux x86_64,60.0024001,64842d97a58fd50e158fd482,64d2fd46c836a06233681665,64dc7cd470d1e514aee1fcf1,,,,,,,decisionTrl,resources/DBN.BMP,resources/DG.BMP,WildCard_Ex,-0.231840054,0.034800808,1,0,0,1.6448,optionLeft,95,5710,3,22,0,22,0,1,,,,,,,,,,,,,,,,,,,,,,,,,,,,,,,,,,,,,,,
,,,,,,,64842d97a58fd50e158fd482,2023-08-16_08h40.38.116,HF_wild_card,2022.2.4,Linux x86_64,60.0024001,64842d97a58fd50e158fd482,64d2fd46c836a06233681665,64dc7cd470d1e514aee1fcf1,,,,,,,decisionTrl,resources/DG.BMP,resources/DP.BMP,Door3,0.178694566,0.022173365,1,0,0,2.9955,optionRight,70,5780,3,23,0,23,0,1,,,,,,,,,,,,,,,,,,,,,,,,,,,,,,,,,,,,,,,
,,,,,,,64842d97a58fd50e158fd482,2023-08-16_08h40.38.116,HF_wild_card,2022.2.4,Linux x86_64,60.0024001,64842d97a58fd50e158fd482,64d2fd46c836a06233681665,64dc7cd470d1e514aee1fcf1,,,,,,,decisionTrl,resources/DB.BMP,resources/DY.BMP,Door1,-0.148461024,0.013240695,1,0,0,1.5126,optionLeft,30,5810,3,24,0,24,0,1,,,,,,,,,,,,,,,,,,,,,,,,,,,,,,,,,,,,,,,
,,,,,,,64842d97a58fd50e158fd482,2023-08-16_08h40.38.116,HF_wild_card,2022.2.4,Linux x86_64,60.0024001,64842d97a58fd50e158fd482,64d2fd46c836a06233681665,64dc7cd470d1e514aee1fcf1,,,,,,,sngl,resources/DG.BMP,resources/Empty.png,Door4,-0.216698249,0.02676475,1,0,0,0.5961,optionLeft,80,5890,3,25,0,25,0,1,,,,,,,,,,,,,,,,,,,,,,,,,,,,,,,,,,,,,,,
,,,,,,,64842d97a58fd50e158fd482,2023-08-16_08h40.38.116,HF_wild_card,2022.2.4,Linux x86_64,60.0024001,64842d97a58fd50e158fd482,64d2fd46c836a06233681665,64dc7cd470d1e514aee1fcf1,,,,,,,decisionTrl,resources/DP.BMP,resources/DG.BMP,Door4,0.265666008,0.021476626,1,0,0,0.6456,optionRight,60,5950,3,26,0,26,0,1,,,,,,,,,,,,,,,,,,,,,,,,,,,,,,,,,,,,,,,
,,,,,,,64842d97a58fd50e158fd482,2023-08-16_08h40.38.116,HF_wild_card,2022.2.4,Linux x86_64,60.0024001,64842d97a58fd50e158fd482,64d2fd46c836a06233681665,64dc7cd470d1e514aee1fcf1,,,,,,,decisionTrl,resources/DG.BMP,resources/DP.BMP,Door4,-0.195620537,0.016768972,1,0,0,0.6289,optionLeft,80,6030,3,27,0,27,0,1,,,,,,,,,,,,,,,,,,,,,,,,,,,,,,,,,,,,,,,
,,,,,,,64842d97a58fd50e158fd482,2023-08-16_08h40.38.116,HF_wild_card,2022.2.4,Linux x86_64,60.0024001,64842d97a58fd50e158fd482,64d2fd46c836a06233681665,64dc7cd470d1e514aee1fcf1,,,,,,,decisionTrl,resources/DP.BMP,resources/DG.BMP,Door4,0.231978178,0.010758519,1,0,0,0.7616,optionRight,80,6110,3,28,0,28,0,1,,,,,,,,,,,,,,,,,,,,,,,,,,,,,,,,,,,,,,,
,,,,,,,64842d97a58fd50e158fd482,2023-08-16_08h40.38.116,HF_wild_card,2022.2.4,Linux x86_64,60.0024001,64842d97a58fd50e158fd482,64d2fd46c836a06233681665,64dc7cd470d1e514aee1fcf1,,,,,,,decisionTrl,resources/DB.BMP,resources/DY.BMP,Door1,-0.212807417,0.022888144,1,0,0,1.0803,optionLeft,30,6140,3,29,0,29,0,1,,,,,,,,,,,,,,,,,,,,,,,,,,,,,,,,,,,,,,,
,,,,,,,64842d97a58fd50e158fd482,2023-08-16_08h40.38.116,HF_wild_card,2022.2.4,Linux x86_64,60.0024001,64842d97a58fd50e158fd482,64d2fd46c836a06233681665,64dc7cd470d1e514aee1fcf1,,,,,,,decisionTrl,resources/DP.BMP,resources/DBN.BMP,WildCard_Ex,0.216470639,0.01886038,1,0,0,1.1613,optionRight,95,6235,3,30,0,30,0,1,,,,,,,,,,,,,,,,,,,,,,,,,,,,,,,,,,,,,,,
,,,,,,,64842d97a58fd50e158fd482,2023-08-16_08h40.38.116,HF_wild_card,2022.2.4,Linux x86_64,60.0024001,64842d97a58fd50e158fd482,64d2fd46c836a06233681665,64dc7cd470d1e514aee1fcf1,,,,,,,decisionTrl,resources/DP.BMP,resources/DG.BMP,Door3,-0.211800973,-0.002799034,1,0,0,2.9285,optionLeft,70,6305,3,31,0,31,0,1,,,,,,,,,,,,,,,,,,,,,,,,,,,,,,,,,,,,,,,
,,,,,,,64842d97a58fd50e158fd482,2023-08-16_08h40.38.116,HF_wild_card,2022.2.4,Linux x86_64,60.0024001,64842d97a58fd50e158fd482,64d2fd46c836a06233681665,64dc7cd470d1e514aee1fcf1,,,,,,,decisionTrl,resources/DY.BMP,resources/DB.BMP,Door1,0.20542264,0.010250052,1,0,0,1.2121,optionRight,30,6335,3,32,0,32,0,1,,,,,,,,,,,,,,,,,,,,,,,,,,,,,,,,,,,,,,,
,,,,,,,64842d97a58fd50e158fd482,2023-08-16_08h40.38.116,HF_wild_card,2022.2.4,Linux x86_64,60.0024001,64842d97a58fd50e158fd482,64d2fd46c836a06233681665,64dc7cd470d1e514aee1fcf1,,,,,,,sngl,resources/Empty.png,resources/DBN.BMP,WildCard_Ex,0.263416052,-0.004737536,1,0,0,0.68,optionRight,95,6430,3,33,0,33,0,1,,,,,,,,,,,,,,,,,,,,,,,,,,,,,,,,,,,,,,,
,,,,,,,64842d97a58fd50e158fd482,2023-08-16_08h40.38.116,HF_wild_card,2022.2.4,Linux x86_64,60.0024001,64842d97a58fd50e158fd482,64d2fd46c836a06233681665,64dc7cd470d1e514aee1fcf1,,,,,,,decisionTrl,resources/DBN.BMP,resources/DB.BMP,WildCard_Ex,-0.181960503,-0.003093561,1,0,0,0.6127,optionLeft,5,6435,3,34,0,34,0,1,,,,,,,,,,,,,,,,,,,,,,,,,,,,,,,,,,,,,,,
,,,,,,,64842d97a58fd50e158fd482,2023-08-16_08h40.38.116,HF_wild_card,2022.2.4,Linux x86_64,60.0024001,64842d97a58fd50e158fd482,64d2fd46c836a06233681665,64dc7cd470d1e514aee1fcf1,,,,,,,sngl,resources/DB.BMP,resources/Empty.png,Door1,-0.192388773,0.00755012,1,0,0,0.6317,optionLeft,30,6465,3,35,0,35,0,1,,,,,,,,,,,,,,,,,,,,,,,,,,,,,,,,,,,,,,,
,,,,,,,64842d97a58fd50e158fd482,2023-08-16_08h40.38.116,HF_wild_card,2022.2.4,Linux x86_64,60.0024001,64842d97a58fd50e158fd482,64d2fd46c836a06233681665,64dc7cd470d1e514aee1fcf1,,,,,,,sngl,resources/Empty.png,resources/DP.BMP,Door3,0.253762245,-0.012872696,1,0,0,0.7627,optionRight,70,6535,3,36,0,36,0,1,,,,,,,,,,,,,,,,,,,,,,,,,,,,,,,,,,,,,,,
,,,,,,,64842d97a58fd50e158fd482,2023-08-16_08h40.38.116,HF_wild_card,2022.2.4,Linux x86_64,60.0024001,64842d97a58fd50e158fd482,64d2fd46c836a06233681665,64dc7cd470d1e514aee1fcf1,,,,,,,decisionTrl,resources/DY.BMP,resources/DBN.BMP,Door2,-0.170778275,0.000128905,1,0,0,0.8964,optionLeft,20,6555,3,37,0,37,0,1,,,,,,,,,,,,,,,,,,,,,,,,,,,,,,,,,,,,,,,
,,,,,,,64842d97a58fd50e158fd482,2023-08-16_08h40.38.116,HF_wild_card,2022.2.4,Linux x86_64,60.0024001,64842d97a58fd50e158fd482,64d2fd46c836a06233681665,64dc7cd470d1e514aee1fcf1,,,,,,,decisionTrl,resources/DG.BMP,resources/DBN.BMP,WildCard_Ex,0.184450308,-0.019458254,1,0,0,0.858,optionRight,5,6560,3,38,0,38,0,1,,,,,,,,,,,,,,,,,,,,,,,,,,,,,,,,,,,,,,,
,,,,,,,64842d97a58fd50e158fd482,2023-08-16_08h40.38.116,HF_wild_card,2022.2.4,Linux x86_64,60.0024001,64842d97a58fd50e158fd482,64d2fd46c836a06233681665,64dc7cd470d1e514aee1fcf1,,,,,,,sngl,resources/DBN.BMP,resources/Empty.png,WildCard_Ex,-0.189909776,-0.001770933,1,0,0,0.6285,optionLeft,95,6655,3,39,0,39,0,1,,,,,,,,,,,,,,,,,,,,,,,,,,,,,,,,,,,,,,,
,,,,,,,64842d97a58fd50e158fd482,2023-08-16_08h40.38.116,HF_wild_card,2022.2.4,Linux x86_64,60.0024001,64842d97a58fd50e158fd482,64d2fd46c836a06233681665,64dc7cd470d1e514aee1fcf1,,,,,,,sngl,resources/DP.BMP,resources/Empty.png,Door3,-0.194198052,-0.004178882,1,0,0,0.6626,optionLeft,70,6725,3,40,0,40,0,1,,,,,,,,,,,,,,,,,,,,,,,,,,,,,,,,,,,,,,,
,,,,,,,64842d97a58fd50e158fd482,2023-08-16_08h40.38.116,HF_wild_card,2022.2.4,Linux x86_64,60.0024001,64842d97a58fd50e158fd482,64d2fd46c836a06233681665,64dc7cd470d1e514aee1fcf1,,,,,,,ctch,resources/DP.BMP,resources/DY.BMP,Door2,0.288342953,-0.003924529,1,0,0,0.9289,optionRight,20,6745,3,41,0,41,0,1,,,,,,,,,,,,,,,,,,,,,,,,,,,,,,,,,,,,,,,
,,,,,,,64842d97a58fd50e158fd482,2023-08-16_08h40.38.116,HF_wild_card,2022.2.4,Linux x86_64,60.0024001,64842d97a58fd50e158fd482,64d2fd46c836a06233681665,64dc7cd470d1e514aee1fcf1,,,,,,,decisionTrl,resources/DB.BMP,resources/DBN.BMP,WildCard_Ex,0.284921249,-0.013418277,1,0,0,1.0127,optionRight,5,6750,3,42,0,42,0,1,,,,,,,,,,,,,,,,,,,,,,,,,,,,,,,,,,,,,,,
,,,,,,,64842d97a58fd50e158fd482,2023-08-16_08h40.38.116,HF_wild_card,2022.2.4,Linux x86_64,60.0024001,64842d97a58fd50e158fd482,64d2fd46c836a06233681665,64dc7cd470d1e514aee1fcf1,,,,,,,decisionTrl,resources/DB.BMP,resources/DY.BMP,Door2,0.318450212,-0.033751965,1,0,0,1.2619,optionRight,40,6790,3,43,0,43,0,1,,,,,,,,,,,,,,,,,,,,,,,,,,,,,,,,,,,,,,,
,,,,,,,64842d97a58fd50e158fd482,2023-08-16_08h40.38.116,HF_wild_card,2022.2.4,Linux x86_64,60.0024001,64842d97a58fd50e158fd482,64d2fd46c836a06233681665,64dc7cd470d1e514aee1fcf1,,,,,,,,,,,,,,,,,,,,,,,,,,2,0,2,0,1,,,,,,,,,,,,,,,,,,,,,,,,,,,,,,,,,,
,,,,,,,64842d97a58fd50e158fd482,2023-08-16_08h40.38.116,HF_wild_card,2022.2.4,Linux x86_64,60.0024001,64842d97a58fd50e158fd482,64d2fd46c836a06233681665,64dc7cd470d1e514aee1fcf1,,,,,,,ctch,resources/DB.BMP,resources/DG.BMP,Door4,0.333619118,-0.046842019,1,0,0,1.1592,optionRight,80,6870,4,0,0,0,0,1,,,,,,,,,,,,,,,,,,,,,,,,,,,,,,,,,,,,,,,
,,,,,,,64842d97a58fd50e158fd482,2023-08-16_08h40.38.116,HF_wild_card,2022.2.4,Linux x86_64,60.0024001,64842d97a58fd50e158fd482,64d2fd46c836a06233681665,64dc7cd470d1e514aee1fcf1,,,,,,,decisionTrl,resources/DB.BMP,resources/DY.BMP,Door2,0.291655302,0.019550323,1,0,0,1.2288,optionRight,40,6910,4,1,0,1,0,1,,,,,,,,,,,,,,,,,,,,,,,,,,,,,,,,,,,,,,,
,,,,,,,64842d97a58fd50e158fd482,2023-08-16_08h40.38.116,HF_wild_card,2022.2.4,Linux x86_64,60.0024001,64842d97a58fd50e158fd482,64d2fd46c836a06233681665,64dc7cd470d1e514aee1fcf1,,,,,,,decisionTrl,resources/DB.BMP,resources/DY.BMP,Door2,0.2772487,0.005996625,1,0,0,0.746,optionRight,40,6950,4,2,0,2,0,1,,,,,,,,,,,,,,,,,,,,,,,,,,,,,,,,,,,,,,,
,,,,,,,64842d97a58fd50e158fd482,2023-08-16_08h40.38.116,HF_wild_card,2022.2.4,Linux x86_64,60.0024001,64842d97a58fd50e158fd482,64d2fd46c836a06233681665,64dc7cd470d1e514aee1fcf1,,,,,,,ctch,resources/DY.BMP,resources/DP.BMP,Door2,-0.190444231,-0.00539883,1,0,0,1.0283,optionLeft,40,6990,4,3,0,3,0,1,,,,,,,,,,,,,,,,,,,,,,,,,,,,,,,,,,,,,,,
,,,,,,,64842d97a58fd50e158fd482,2023-08-16_08h40.38.116,HF_wild_card,2022.2.4,Linux x86_64,60.0024001,64842d97a58fd50e158fd482,64d2fd46c836a06233681665,64dc7cd470d1e514aee1fcf1,,,,,,,decisionTrl,resources/DP.BMP,resources/DR.BMP,WildCard_NonEx,0.266287406,-0.000866731,1,0,0,0.961,optionRight,55,7045,4,4,0,4,0,1,,,,,,,,,,,,,,,,,,,,,,,,,,,,,,,,,,,,,,,
,,,,,,,64842d97a58fd50e158fd482,2023-08-16_08h40.38.116,HF_wild_card,2022.2.4,Linux x86_64,60.0024001,64842d97a58fd50e158fd482,64d2fd46c836a06233681665,64dc7cd470d1e514aee1fcf1,,,,,,,ctch,resources/DG.BMP,resources/DB.BMP,Door4,-0.195780913,-0.015890082,1,0,0,1.0459,optionLeft,80,7125,4,5,0,5,0,1,,,,,,,,,,,,,,,,,,,,,,,,,,,,,,,,,,,,,,,
,,,,,,,64842d97a58fd50e158fd482,2023-08-16_08h40.38.116,HF_wild_card,2022.2.4,Linux x86_64,60.0024001,64842d97a58fd50e158fd482,64d2fd46c836a06233681665,64dc7cd470d1e514aee1fcf1,,,,,,,decisionTrl,resources/DG.BMP,resources/DP.BMP,Door4,-0.217879375,-0.007651726,1,0,0,0.6127,optionLeft,60,7185,4,6,0,6,0,1,,,,,,,,,,,,,,,,,,,,,,,,,,,,,,,,,,,,,,,
,,,,,,,64842d97a58fd50e158fd482,2023-08-16_08h40.38.116,HF_wild_card,2022.2.4,Linux x86_64,60.0024001,64842d97a58fd50e158fd482,64d2fd46c836a06233681665,64dc7cd470d1e514aee1fcf1,,,,,,,sngl,resources/DG.BMP,resources/Empty.png,Door4,-0.227888703,-0.007163843,1,0,0,0.6454,optionLeft,60,7245,4,7,0,7,0,1,,,,,,,,,,,,,,,,,,,,,,,,,,,,,,,,,,,,,,,
,,,,,,,64842d97a58fd50e158fd482,2023-08-16_08h40.38.116,HF_wild_card,2022.2.4,Linux x86_64,60.0024001,64842d97a58fd50e158fd482,64d2fd46c836a06233681665,64dc7cd470d1e514aee1fcf1,,,,,,,decisionTrl,resources/DG.BMP,resources/DP.BMP,Door4,-0.201518933,0.001011928,1,0,0,0.7277,optionLeft,80,7325,4,8,0,8,0,1,,,,,,,,,,,,,,,,,,,,,,,,,,,,,,,,,,,,,,,
,,,,,,,64842d97a58fd50e158fd482,2023-08-16_08h40.38.116,HF_wild_card,2022.2.4,Linux x86_64,60.0024001,64842d97a58fd50e158fd482,64d2fd46c836a06233681665,64dc7cd470d1e514aee1fcf1,,,,,,,decisionTrl,resources/DP.BMP,resources/DG.BMP,Door4,0.259243488,0.029657046,1,0,0,0.6607,optionRight,80,7405,4,9,0,9,0,1,,,,,,,,,,,,,,,,,,,,,,,,,,,,,,,,,,,,,,,
,,,,,,,64842d97a58fd50e158fd482,2023-08-16_08h40.38.116,HF_wild_card,2022.2.4,Linux x86_64,60.0024001,64842d97a58fd50e158fd482,64d2fd46c836a06233681665,64dc7cd470d1e514aee1fcf1,,,,,,,sngl,resources/Empty.png,resources/DY.BMP,Door2,0.222664595,0.011512756,1,0,0,0.7122,optionRight,40,7445,4,10,0,10,0,1,,,,,,,,,,,,,,,,,,,,,,,,,,,,,,,,,,,,,,,
,,,,,,,64842d97a58fd50e158fd482,2023-08-16_08h40.38.116,HF_wild_card,2022.2.4,Linux x86_64,60.0024001,64842d97a58fd50e158fd482,64d2fd46c836a06233681665,64dc7cd470d1e514aee1fcf1,,,,,,,decisionTrl,resources/DR.BMP,resources/DP.BMP,WildCard_NonEx,-0.170842489,-0.015551289,1,0,0,0.8119,optionLeft,45,7490,4,11,0,11,0,1,,,,,,,,,,,,,,,,,,,,,,,,,,,,,,,,,,,,,,,
,,,,,,,64842d97a58fd50e158fd482,2023-08-16_08h40.38.116,HF_wild_card,2022.2.4,Linux x86_64,60.0024001,64842d97a58fd50e158fd482,64d2fd46c836a06233681665,64dc7cd470d1e514aee1fcf1,,,,,,,sngl,resources/DR.BMP,resources/Empty.png,WildCard_NonEx,-0.225548903,-0.007767081,1,0,0,0.6603,optionLeft,45,7535,4,12,0,12,0,1,,,,,,,,,,,,,,,,,,,,,,,,,,,,,,,,,,,,,,,
,,,,,,,64842d97a58fd50e158fd482,2023-08-16_08h40.38.116,HF_wild_card,2022.2.4,Linux x86_64,60.0024001,64842d97a58fd50e158fd482,64d2fd46c836a06233681665,64dc7cd470d1e514aee1fcf1,,,,,,,decisionTrl,resources/DB.BMP,resources/DR.BMP,Door1,-0.145000378,-0.018877308,1,0,0,1.2123,optionLeft,30,7565,4,13,0,13,0,1,,,,,,,,,,,,,,,,,,,,,,,,,,,,,,,,,,,,,,,
,,,,,,,64842d97a58fd50e158fd482,2023-08-16_08h40.38.116,HF_wild_card,2022.2.4,Linux x86_64,60.0024001,64842d97a58fd50e158fd482,64d2fd46c836a06233681665,64dc7cd470d1e514aee1fcf1,,,,,,,decisionTrl,resources/DY.BMP,resources/DB.BMP,Door2,-0.171800852,-0.011777719,1,0,0,1.0292,optionLeft,40,7605,4,14,0,14,0,1,,,,,,,,,,,,,,,,,,,,,,,,,,,,,,,,,,,,,,,
,,,,,,,64842d97a58fd50e158fd482,2023-08-16_08h40.38.116,HF_wild_card,2022.2.4,Linux x86_64,60.0024001,64842d97a58fd50e158fd482,64d2fd46c836a06233681665,64dc7cd470d1e514aee1fcf1,,,,,,,sngl,resources/Empty.png,resources/DB.BMP,Door1,0.293696801,0.007650693,1,0,0,0.6628,optionRight,30,7635,4,15,0,15,0,1,,,,,,,,,,,,,,,,,,,,,,,,,,,,,,,,,,,,,,,
,,,,,,,64842d97a58fd50e158fd482,2023-08-16_08h40.38.116,HF_wild_card,2022.2.4,Linux x86_64,60.0024001,64842d97a58fd50e158fd482,64d2fd46c836a06233681665,64dc7cd470d1e514aee1fcf1,,,,,,,ctch,resources/DB.BMP,resources/DG.BMP,Door4,0.266900857,-0.005263567,1,0,0,0.9285,optionRight,60,7695,4,16,0,16,0,1,,,,,,,,,,,,,,,,,,,,,,,,,,,,,,,,,,,,,,,
,,,,,,,64842d97a58fd50e158fd482,2023-08-16_08h40.38.116,HF_wild_card,2022.2.4,Linux x86_64,60.0024001,64842d97a58fd50e158fd482,64d2fd46c836a06233681665,64dc7cd470d1e514aee1fcf1,,,,,,,decisionTrl,resources/DY.BMP,resources/DR.BMP,WildCard_NonEx,0.265937408,0.011775374,1,0,0,1.3461,optionRight,55,7750,4,17,0,17,0,1,,,,,,,,,,,,,,,,,,,,,,,,,,,,,,,,,,,,,,,
,,,,,,,64842d97a58fd50e158fd482,2023-08-16_08h40.38.116,HF_wild_card,2022.2.4,Linux x86_64,60.0024001,64842d97a58fd50e158fd482,64d2fd46c836a06233681665,64dc7cd470d1e514aee1fcf1,,,,,,,decisionTrl,resources/DY.BMP,resources/DB.BMP,Door1,0.309036414,-0.011829178,1,0,0,1.0461,optionRight,30,7780,4,18,0,18,0,1,,,,,,,,,,,,,,,,,,,,,,,,,,,,,,,,,,,,,,,
,,,,,,,64842d97a58fd50e158fd482,2023-08-16_08h40.38.116,HF_wild_card,2022.2.4,Linux x86_64,60.0024001,64842d97a58fd50e158fd482,64d2fd46c836a06233681665,64dc7cd470d1e514aee1fcf1,,,,,,,ctch,resources/DP.BMP,resources/DY.BMP,Door3,-0.152593931,-0.019174298,1,0,0,0.9282,optionLeft,70,7850,4,19,0,19,0,1,,,,,,,,,,,,,,,,,,,,,,,,,,,,,,,,,,,,,,,
,,,,,,,64842d97a58fd50e158fd482,2023-08-16_08h40.38.116,HF_wild_card,2022.2.4,Linux x86_64,60.0024001,64842d97a58fd50e158fd482,64d2fd46c836a06233681665,64dc7cd470d1e514aee1fcf1,,,,,,,decisionTrl,resources/DY.BMP,resources/DB.BMP,Door2,-0.207538366,-0.026465734,1,0,0,0.7284,optionLeft,40,7890,4,20,0,20,0,1,,,,,,,,,,,,,,,,,,,,,,,,,,,,,,,,,,,,,,,
,,,,,,,64842d97a58fd50e158fd482,2023-08-16_08h40.38.116,HF_wild_card,2022.2.4,Linux x86_64,60.0024001,64842d97a58fd50e158fd482,64d2fd46c836a06233681665,64dc7cd470d1e514aee1fcf1,,,,,,,sngl,resources/Empty.png,resources/DP.BMP,Door3,0.269285758,-0.00474902,1,0,0,0.696,optionRight,70,7960,4,21,0,21,0,1,,,,,,,,,,,,,,,,,,,,,,,,,,,,,,,,,,,,,,,
,,,,,,,64842d97a58fd50e158fd482,2023-08-16_08h40.38.116,HF_wild_card,2022.2.4,Linux x86_64,60.0024001,64842d97a58fd50e158fd482,64d2fd46c836a06233681665,64dc7cd470d1e514aee1fcf1,,,,,,,sngl,resources/DP.BMP,resources/Empty.png,Door3,-0.23118484,-0.021019499,1,0,0,0.6789,optionLeft,70,8030,4,22,0,22,0,1,,,,,,,,,,,,,,,,,,,,,,,,,,,,,,,,,,,,,,,
,,,,,,,64842d97a58fd50e158fd482,2023-08-16_08h40.38.116,HF_wild_card,2022.2.4,Linux x86_64,60.0024001,64842d97a58fd50e158fd482,64d2fd46c836a06233681665,64dc7cd470d1e514aee1fcf1,,,,,,,decisionTrl,resources/DP.BMP,resources/DG.BMP,Door4,0.349748453,0.020748695,1,0,0,1.2123,optionRight,60,8090,4,23,0,23,0,1,,,,,,,,,,,,,,,,,,,,,,,,,,,,,,,,,,,,,,,
,,,,,,,64842d97a58fd50e158fd482,2023-08-16_08h40.38.116,HF_wild_card,2022.2.4,Linux x86_64,60.0024001,64842d97a58fd50e158fd482,64d2fd46c836a06233681665,64dc7cd470d1e514aee1fcf1,,,,,,,ctch,resources/DG.BMP,resources/DB.BMP,Door1,0.278117895,0.009163419,1,0,0,1.1621,optionRight,30,8120,4,24,0,24,0,1,,,,,,,,,,,,,,,,,,,,,,,,,,,,,,,,,,,,,,,
,,,,,,,64842d97a58fd50e158fd482,2023-08-16_08h40.38.116,HF_wild_card,2022.2.4,Linux x86_64,60.0024001,64842d97a58fd50e158fd482,64d2fd46c836a06233681665,64dc7cd470d1e514aee1fcf1,,,,,,,decisionTrl,resources/DG.BMP,resources/DP.BMP,Door4,-0.23738118,-0.03422761,1,0,0,0.7128,optionLeft,60,8180,4,25,0,25,0,1,,,,,,,,,,,,,,,,,,,,,,,,,,,,,,,,,,,,,,,
,,,,,,,64842d97a58fd50e158fd482,2023-08-16_08h40.38.116,HF_wild_card,2022.2.4,Linux x86_64,60.0024001,64842d97a58fd50e158fd482,64d2fd46c836a06233681665,64dc7cd470d1e514aee1fcf1,,,,,,,decisionTrl,resources/DR.BMP,resources/DY.BMP,Door2,0.248338938,-0.006448348,1,0,0,1.2628,optionRight,20,8200,4,26,0,26,0,1,,,,,,,,,,,,,,,,,,,,,,,,,,,,,,,,,,,,,,,
,,,,,,,64842d97a58fd50e158fd482,2023-08-16_08h40.38.116,HF_wild_card,2022.2.4,Linux x86_64,60.0024001,64842d97a58fd50e158fd482,64d2fd46c836a06233681665,64dc7cd470d1e514aee1fcf1,,,,,,,decisionTrl,resources/DG.BMP,resources/DP.BMP,Door4,-0.151992718,-0.011968056,1,0,0,0.9959,optionLeft,80,8280,4,27,0,27,0,1,,,,,,,,,,,,,,,,,,,,,,,,,,,,,,,,,,,,,,,
,,,,,,,64842d97a58fd50e158fd482,2023-08-16_08h40.38.116,HF_wild_card,2022.2.4,Linux x86_64,60.0024001,64842d97a58fd50e158fd482,64d2fd46c836a06233681665,64dc7cd470d1e514aee1fcf1,,,,,,,sngl,resources/DR.BMP,resources/Empty.png,WildCard_NonEx,-0.234401186,-0.026437521,1,0,0,0.7132,optionLeft,55,8335,4,28,0,28,0,1,,,,,,,,,,,,,,,,,,,,,,,,,,,,,,,,,,,,,,,
,,,,,,,64842d97a58fd50e158fd482,2023-08-16_08h40.38.116,HF_wild_card,2022.2.4,Linux x86_64,60.0024001,64842d97a58fd50e158fd482,64d2fd46c836a06233681665,64dc7cd470d1e514aee1fcf1,,,,,,,decisionTrl,resources/DG.BMP,resources/DR.BMP,WildCard_NonEx,0.211568673,-0.014124036,1,0,0,0.6962,optionRight,45,8380,4,29,0,29,0,1,,,,,,,,,,,,,,,,,,,,,,,,,,,,,,,,,,,,,,,
,,,,,,,64842d97a58fd50e158fd482,2023-08-16_08h40.38.116,HF_wild_card,2022.2.4,Linux x86_64,60.0024001,64842d97a58fd50e158fd482,64d2fd46c836a06233681665,64dc7cd470d1e514aee1fcf1,,,,,,,decisionTrl,resources/DP.BMP,resources/DG.BMP,Door3,-0.213733037,-0.040184498,1,0,0,1.0281,optionLeft,70,8450,4,30,0,30,0,1,,,,,,,,,,,,,,,,,,,,,,,,,,,,,,,,,,,,,,,
,,,,,,,64842d97a58fd50e158fd482,2023-08-16_08h40.38.116,HF_wild_card,2022.2.4,Linux x86_64,60.0024001,64842d97a58fd50e158fd482,64d2fd46c836a06233681665,64dc7cd470d1e514aee1fcf1,,,,,,,ctch,resources/DP.BMP,resources/DY.BMP,Door3,-0.223603447,-0.037123164,1,0,0,0.6794,optionLeft,70,8520,4,31,0,31,0,1,,,,,,,,,,,,,,,,,,,,,,,,,,,,,,,,,,,,,,,
,,,,,,,64842d97a58fd50e158fd482,2023-08-16_08h40.38.116,HF_wild_card,2022.2.4,Linux x86_64,60.0024001,64842d97a58fd50e158fd482,64d2fd46c836a06233681665,64dc7cd470d1e514aee1fcf1,,,,,,,decisionTrl,resources/DB.BMP,resources/DY.BMP,Door1,-0.181098382,-0.02760156,1,0,0,1.5923,optionLeft,30,8550,4,32,0,32,0,1,,,,,,,,,,,,,,,,,,,,,,,,,,,,,,,,,,,,,,,
,,,,,,,64842d97a58fd50e158fd482,2023-08-16_08h40.38.116,HF_wild_card,2022.2.4,Linux x86_64,60.0024001,64842d97a58fd50e158fd482,64d2fd46c836a06233681665,64dc7cd470d1e514aee1fcf1,,,,,,,ctch,resources/DY.BMP,resources/DP.BMP,Door2,-0.230955084,-0.006414851,1,0,0,1.0955,optionLeft,40,8590,4,33,0,33,0,1,,,,,,,,,,,,,,,,,,,,,,,,,,,,,,,,,,,,,,,
,,,,,,,64842d97a58fd50e158fd482,2023-08-16_08h40.38.116,HF_wild_card,2022.2.4,Linux x86_64,60.0024001,64842d97a58fd50e158fd482,64d2fd46c836a06233681665,64dc7cd470d1e514aee1fcf1,,,,,,,decisionTrl,resources/DB.BMP,resources/DY.BMP,Door2,0.297196309,-0.004330317,1,0,0,1.0474,optionRight,20,8610,4,34,0,34,0,1,,,,,,,,,,,,,,,,,,,,,,,,,,,,,,,,,,,,,,,
,,,,,,,64842d97a58fd50e158fd482,2023-08-16_08h40.38.116,HF_wild_card,2022.2.4,Linux x86_64,60.0024001,64842d97a58fd50e158fd482,64d2fd46c836a06233681665,64dc7cd470d1e514aee1fcf1,,,,,,,decisionTrl,resources/DY.BMP,resources/DB.BMP,Door1,0.278014421,-0.002210299,1,0,0,0.729,optionRight,30,8640,4,35,0,35,0,1,,,,,,,,,,,,,,,,,,,,,,,,,,,,,,,,,,,,,,,
,,,,,,,64842d97a58fd50e158fd482,2023-08-16_08h40.38.116,HF_wild_card,2022.2.4,Linux x86_64,60.0024001,64842d97a58fd50e158fd482,64d2fd46c836a06233681665,64dc7cd470d1e514aee1fcf1,,,,,,,sngl,resources/Empty.png,resources/DG.BMP,Door4,0.309943358,-0.017887354,1,0,0,0.7279,optionRight,80,8720,4,36,0,36,0,1,,,,,,,,,,,,,,,,,,,,,,,,,,,,,,,,,,,,,,,
,,,,,,,64842d97a58fd50e158fd482,2023-08-16_08h40.38.116,HF_wild_card,2022.2.4,Linux x86_64,60.0024001,64842d97a58fd50e158fd482,64d2fd46c836a06233681665,64dc7cd470d1e514aee1fcf1,,,,,,,sngl,resources/Empty.png,resources/DR.BMP,WildCard_NonEx,0.249994357,-0.028368394,1,0,0,0.729,optionRight,45,8765,4,37,0,37,0,1,,,,,,,,,,,,,,,,,,,,,,,,,,,,,,,,,,,,,,,
,,,,,,,64842d97a58fd50e158fd482,2023-08-16_08h40.38.116,HF_wild_card,2022.2.4,Linux x86_64,60.0024001,64842d97a58fd50e158fd482,64d2fd46c836a06233681665,64dc7cd470d1e514aee1fcf1,,,,,,,sngl,resources/DY.BMP,resources/Empty.png,Door2,-0.224756241,-0.017827789,1,0,0,0.696,optionLeft,20,8785,4,38,0,38,0,1,,,,,,,,,,,,,,,,,,,,,,,,,,,,,,,,,,,,,,,
,,,,,,,64842d97a58fd50e158fd482,2023-08-16_08h40.38.116,HF_wild_card,2022.2.4,Linux x86_64,60.0024001,64842d97a58fd50e158fd482,64d2fd46c836a06233681665,64dc7cd470d1e514aee1fcf1,,,,,,,sngl,resources/Empty.png,resources/DR.BMP,WildCard_NonEx,0.331254721,-0.042528113,1,0,0,0.7128,optionRight,55,8840,4,39,0,39,0,1,,,,,,,,,,,,,,,,,,,,,,,,,,,,,,,,,,,,,,,
,,,,,,,64842d97a58fd50e158fd482,2023-08-16_08h40.38.116,HF_wild_card,2022.2.4,Linux x86_64,60.0024001,64842d97a58fd50e158fd482,64d2fd46c836a06233681665,64dc7cd470d1e514aee1fcf1,,,,,,,decisionTrl,resources/DR.BMP,resources/DB.BMP,WildCard_NonEx,-0.240175406,-0.013141354,1,0,0,1.5121,optionLeft,55,8895,4,40,0,40,0,1,,,,,,,,,,,,,,,,,,,,,,,,,,,,,,,,,,,,,,,
,,,,,,,64842d97a58fd50e158fd482,2023-08-16_08h40.38.116,HF_wild_card,2022.2.4,Linux x86_64,60.0024001,64842d97a58fd50e158fd482,64d2fd46c836a06233681665,64dc7cd470d1e514aee1fcf1,,,,,,,sngl,resources/DB.BMP,resources/Empty.png,Door1,-0.193695863,-0.004854719,1,0,0,0.6449,optionLeft,30,8925,4,41,0,41,0,1,,,,,,,,,,,,,,,,,,,,,,,,,,,,,,,,,,,,,,,
,,,,,,,64842d97a58fd50e158fd482,2023-08-16_08h40.38.116,HF_wild_card,2022.2.4,Linux x86_64,60.0024001,64842d97a58fd50e158fd482,64d2fd46c836a06233681665,64dc7cd470d1e514aee1fcf1,,,,,,,decisionTrl,resources/DR.BMP,resources/DG.BMP,Door4,0.324024995,-0.009523869,1,0,0,0.8284,optionRight,80,9005,4,42,0,42,0,1,,,,,,,,,,,,,,,,,,,,,,,,,,,,,,,,,,,,,,,
,,,,,,,64842d97a58fd50e158fd482,2023-08-16_08h40.38.116,HF_wild_card,2022.2.4,Linux x86_64,60.0024001,64842d97a58fd50e158fd482,64d2fd46c836a06233681665,64dc7cd470d1e514aee1fcf1,,,,,,,decisionTrl,resources/DP.BMP,resources/DG.BMP,Door4,0.297195514,-0.018500845,1,0,0,0.6125,optionRight,80,9085,4,43,0,43,0,1,,,,,,,,,,,,,,,,,,,,,,,,,,,,,,,,,,,,,,,
,,,,,,,64842d97a58fd50e158fd482,2023-08-16_08h40.38.116,HF_wild_card,2022.2.4,Linux x86_64,60.0024001,64842d97a58fd50e158fd482,64d2fd46c836a06233681665,64dc7cd470d1e514aee1fcf1,,,,,,,,,,,,,,,,,,,,,,,,,,3,0,3,0,1,,,,,,,,,,,,,,,,,,,,,,,,,,,,,,,,,,
,,,,,,,64842d97a58fd50e158fd482,2023-08-16_08h40.38.116,HF_wild_card,2022.2.4,Linux x86_64,60.0024001,64842d97a58fd50e158fd482,64d2fd46c836a06233681665,64dc7cd470d1e514aee1fcf1,,,,,,,decisionTrl,resources/DP.BMP,resources/DG.BMP,Door3,-0.210008939,-0.041031559,1,0,0,1.8261,optionLeft,70,9155,5,0,0,0,0,1,,,,,,,,,,,,,,,,,,,,,,,,,,,,,,,,,,,,,,,
,,,,,,,64842d97a58fd50e158fd482,2023-08-16_08h40.38.116,HF_wild_card,2022.2.4,Linux x86_64,60.0024001,64842d97a58fd50e158fd482,64d2fd46c836a06233681665,64dc7cd470d1e514aee1fcf1,,,,,,,sngl,resources/Empty.png,resources/DR.BMP,WildCard_NonEx,0.333338896,-0.03918612,1,0,0,0.7294,optionRight,55,9210,5,1,0,1,0,1,,,,,,,,,,,,,,,,,,,,,,,,,,,,,,,,,,,,,,,
,,,,,,,64842d97a58fd50e158fd482,2023-08-16_08h40.38.116,HF_wild_card,2022.2.4,Linux x86_64,60.0024001,64842d97a58fd50e158fd482,64d2fd46c836a06233681665,64dc7cd470d1e514aee1fcf1,,,,,,,ctch,resources/DG.BMP,resources/DB.BMP,Door4,-0.197104454,0.016678174,1,0,0,0.9124,optionLeft,60,9270,5,2,0,2,0,1,,,,,,,,,,,,,,,,,,,,,,,,,,,,,,,,,,,,,,,
,,,,,,,64842d97a58fd50e158fd482,2023-08-16_08h40.38.116,HF_wild_card,2022.2.4,Linux x86_64,60.0024001,64842d97a58fd50e158fd482,64d2fd46c836a06233681665,64dc7cd470d1e514aee1fcf1,,,,,,,sngl,resources/DY.BMP,resources/Empty.png,Door2,-0.218845844,-0.002574642,1,0,0,0.6621,optionLeft,40,9310,5,3,0,3,0,1,,,,,,,,,,,,,,,,,,,,,,,,,,,,,,,,,,,,,,,
,,,,,,,64842d97a58fd50e158fd482,2023-08-16_08h40.38.116,HF_wild_card,2022.2.4,Linux x86_64,60.0024001,64842d97a58fd50e158fd482,64d2fd46c836a06233681665,64dc7cd470d1e514aee1fcf1,,,,,,,ctch,resources/DB.BMP,resources/DG.BMP,Door4,0.218218088,-0.010859172,1,0,0,0.7788,optionRight,80,9390,5,4,0,4,0,1,,,,,,,,,,,,,,,,,,,,,,,,,,,,,,,,,,,,,,,
,,,,,,,64842d97a58fd50e158fd482,2023-08-16_08h40.38.116,HF_wild_card,2022.2.4,Linux x86_64,60.0024001,64842d97a58fd50e158fd482,64d2fd46c836a06233681665,64dc7cd470d1e514aee1fcf1,,,,,,,decisionTrl,resources/DP.BMP,resources/DG.BMP,Door4,0.227162043,-0.008274118,1,0,0,0.9124,optionRight,60,9450,5,5,0,5,0,1,,,,,,,,,,,,,,,,,,,,,,,,,,,,,,,,,,,,,,,
,,,,,,,64842d97a58fd50e158fd482,2023-08-16_08h40.38.116,HF_wild_card,2022.2.4,Linux x86_64,60.0024001,64842d97a58fd50e158fd482,64d2fd46c836a06233681665,64dc7cd470d1e514aee1fcf1,,,,,,,ctch,resources/DG.BMP,resources/DB.BMP,Door4,-0.246193449,-0.013431907,1,0,0,0.9282,optionLeft,60,9510,5,6,0,6,0,1,,,,,,,,,,,,,,,,,,,,,,,,,,,,,,,,,,,,,,,
,,,,,,,64842d97a58fd50e158fd482,2023-08-16_08h40.38.116,HF_wild_card,2022.2.4,Linux x86_64,60.0024001,64842d97a58fd50e158fd482,64d2fd46c836a06233681665,64dc7cd470d1e514aee1fcf1,,,,,,,decisionTrl,resources/DR.BMP,resources/DG.BMP,Door4,0.330071529,-0.011136095,1,0,0,0.6124,optionRight,60,9570,5,7,0,7,0,1,,,,,,,,,,,,,,,,,,,,,,,,,,,,,,,,,,,,,,,
,,,,,,,64842d97a58fd50e158fd482,2023-08-16_08h40.38.116,HF_wild_card,2022.2.4,Linux x86_64,60.0024001,64842d97a58fd50e158fd482,64d2fd46c836a06233681665,64dc7cd470d1e514aee1fcf1,,,,,,,decisionTrl,resources/DB.BMP,resources/DR.BMP,WildCard_NonEx,0.281919161,0.004926642,1,0,0,1.5294,optionRight,55,9625,5,8,0,8,0,1,,,,,,,,,,,,,,,,,,,,,,,,,,,,,,,,,,,,,,,
,,,,,,,64842d97a58fd50e158fd482,2023-08-16_08h40.38.116,HF_wild_card,2022.2.4,Linux x86_64,60.0024001,64842d97a58fd50e158fd482,64d2fd46c836a06233681665,64dc7cd470d1e514aee1fcf1,,,,,,,ctch,resources/DB.BMP,resources/DG.BMP,Door4,0.227470557,0.004508535,1,0,0,0.7291,optionRight,80,9705,5,9,0,9,0,1,,,,,,,,,,,,,,,,,,,,,,,,,,,,,,,,,,,,,,,
,,,,,,,64842d97a58fd50e158fd482,2023-08-16_08h40.38.116,HF_wild_card,2022.2.4,Linux x86_64,60.0024001,64842d97a58fd50e158fd482,64d2fd46c836a06233681665,64dc7cd470d1e514aee1fcf1,,,,,,,decisionTrl,resources/DP.BMP,resources/DG.BMP,Door4,0.259346406,-0.010457238,1,0,0,0.6461,optionRight,80,9785,5,10,0,10,0,1,,,,,,,,,,,,,,,,,,,,,,,,,,,,,,,,,,,,,,,
,,,,,,,64842d97a58fd50e158fd482,2023-08-16_08h40.38.116,HF_wild_card,2022.2.4,Linux x86_64,60.0024001,64842d97a58fd50e158fd482,64d2fd46c836a06233681665,64dc7cd470d1e514aee1fcf1,,,,,,,ctch,resources/DP.BMP,resources/DY.BMP,Door3,-0.211044868,6.06378E-05,1,0,0,1.5953,optionLeft,70,9855,5,11,0,11,0,1,,,,,,,,,,,,,,,,,,,,,,,,,,,,,,,,,,,,,,,
,,,,,,,64842d97a58fd50e158fd482,2023-08-16_08h40.38.116,HF_wild_card,2022.2.4,Linux x86_64,60.0024001,64842d97a58fd50e158fd482,64d2fd46c836a06233681665,64dc7cd470d1e514aee1fcf1,,,,,,,sngl,resources/Empty.png,resources/DG.BMP,Door4,0.28749752,0.026696722,1,0,0,0.7295,optionRight,60,9915,5,12,0,12,0,1,,,,,,,,,,,,,,,,,,,,,,,,,,,,,,,,,,,,,,,
,,,,,,,64842d97a58fd50e158fd482,2023-08-16_08h40.38.116,HF_wild_card,2022.2.4,Linux x86_64,60.0024001,64842d97a58fd50e158fd482,64d2fd46c836a06233681665,64dc7cd470d1e514aee1fcf1,,,,,,,sngl,resources/Empty.png,resources/DP.BMP,Door3,0.274817149,-0.012328108,1,0,0,0.6289,optionRight,70,9985,5,13,0,13,0,1,,,,,,,,,,,,,,,,,,,,,,,,,,,,,,,,,,,,,,,
,,,,,,,64842d97a58fd50e158fd482,2023-08-16_08h40.38.116,HF_wild_card,2022.2.4,Linux x86_64,60.0024001,64842d97a58fd50e158fd482,64d2fd46c836a06233681665,64dc7cd470d1e514aee1fcf1,,,,,,,sngl,resources/Empty.png,resources/DR.BMP,WildCard_NonEx,0.297951221,-0.022006631,1,0,0,0.6965,optionRight,45,10030,5,14,0,14,0,1,,,,,,,,,,,,,,,,,,,,,,,,,,,,,,,,,,,,,,,
,,,,,,,64842d97a58fd50e158fd482,2023-08-16_08h40.38.116,HF_wild_card,2022.2.4,Linux x86_64,60.0024001,64842d97a58fd50e158fd482,64d2fd46c836a06233681665,64dc7cd470d1e514aee1fcf1,,,,,,,decisionTrl,resources/DP.BMP,resources/DG.BMP,Door3,-0.262076577,-0.002535423,1,0,0,0.8615,optionLeft,70,10100,5,15,0,15,0,1,,,,,,,,,,,,,,,,,,,,,,,,,,,,,,,,,,,,,,,
,,,,,,,64842d97a58fd50e158fd482,2023-08-16_08h40.38.116,HF_wild_card,2022.2.4,Linux x86_64,60.0024001,64842d97a58fd50e158fd482,64d2fd46c836a06233681665,64dc7cd470d1e514aee1fcf1,,,,,,,decisionTrl,resources/DR.BMP,resources/DB.BMP,Door1,0.27535828,0.006785512,1,0,0,1.5616,optionRight,30,10130,5,16,0,16,0,1,,,,,,,,,,,,,,,,,,,,,,,,,,,,,,,,,,,,,,,
,,,,,,,64842d97a58fd50e158fd482,2023-08-16_08h40.38.116,HF_wild_card,2022.2.4,Linux x86_64,60.0024001,64842d97a58fd50e158fd482,64d2fd46c836a06233681665,64dc7cd470d1e514aee1fcf1,,,,,,,sngl,resources/Empty.png,resources/DB.BMP,Door1,0.238696655,0.008438746,1,0,0,0.6611,optionRight,30,10160,5,17,0,17,0,1,,,,,,,,,,,,,,,,,,,,,,,,,,,,,,,,,,,,,,,
,,,,,,,64842d97a58fd50e158fd482,2023-08-16_08h40.38.116,HF_wild_card,2022.2.4,Linux x86_64,60.0024001,64842d97a58fd50e158fd482,64d2fd46c836a06233681665,64dc7cd470d1e514aee1fcf1,,,,,,,sngl,resources/DR.BMP,resources/Empty.png,WildCard_NonEx,-0.245842298,-0.016911666,1,0,0,0.6797,optionLeft,45,10205,5,18,0,18,0,1,,,,,,,,,,,,,,,,,,,,,,,,,,,,,,,,,,,,,,,
,,,,,,,64842d97a58fd50e158fd482,2023-08-16_08h40.38.116,HF_wild_card,2022.2.4,Linux x86_64,60.0024001,64842d97a58fd50e158fd482,64d2fd46c836a06233681665,64dc7cd470d1e514aee1fcf1,,,,,,,decisionTrl,resources/DG.BMP,resources/DP.BMP,Door3,0.293858687,0.003526608,1,0,0,1.0791,optionRight,70,10275,5,19,0,19,0,1,,,,,,,,,,,,,,,,,,,,,,,,,,,,,,,,,,,,,,,
,,,,,,,64842d97a58fd50e158fd482,2023-08-16_08h40.38.116,HF_wild_card,2022.2.4,Linux x86_64,60.0024001,64842d97a58fd50e158fd482,64d2fd46c836a06233681665,64dc7cd470d1e514aee1fcf1,,,,,,,decisionTrl,resources/DY.BMP,resources/DB.BMP,Door1,0.244208574,0.026372274,1,0,0,1.379,optionRight,30,10305,5,20,0,20,0,1,,,,,,,,,,,,,,,,,,,,,,,,,,,,,,,,,,,,,,,
,,,,,,,64842d97a58fd50e158fd482,2023-08-16_08h40.38.116,HF_wild_card,2022.2.4,Linux x86_64,60.0024001,64842d97a58fd50e158fd482,64d2fd46c836a06233681665,64dc7cd470d1e514aee1fcf1,,,,,,,sngl,resources/DR.BMP,resources/Empty.png,WildCard_NonEx,-0.19451944,0.016868909,1,0,0,0.7124,optionLeft,55,10360,5,21,0,21,0,1,,,,,,,,,,,,,,,,,,,,,,,,,,,,,,,,,,,,,,,
,,,,,,,64842d97a58fd50e158fd482,2023-08-16_08h40.38.116,HF_wild_card,2022.2.4,Linux x86_64,60.0024001,64842d97a58fd50e158fd482,64d2fd46c836a06233681665,64dc7cd470d1e514aee1fcf1,,,,,,,sngl,resources/Empty.png,resources/DY.BMP,Door2,0.24078536,0.034554084,1,0,0,0.6435,optionRight,20,10380,5,22,0,22,0,1,,,,,,,,,,,,,,,,,,,,,,,,,,,,,,,,,,,,,,,
,,,,,,,64842d97a58fd50e158fd482,2023-08-16_08h40.38.116,HF_wild_card,2022.2.4,Linux x86_64,60.0024001,64842d97a58fd50e158fd482,64d2fd46c836a06233681665,64dc7cd470d1e514aee1fcf1,,,,,,,decisionTrl,resources/DP.BMP,resources/DR.BMP,Door3,-0.225750367,0.014312863,1,0,0,1.175,optionLeft,70,10450,5,23,0,23,0,1,,,,,,,,,,,,,,,,,,,,,,,,,,,,,,,,,,,,,,,
,,,,,,,64842d97a58fd50e158fd482,2023-08-16_08h40.38.116,HF_wild_card,2022.2.4,Linux x86_64,60.0024001,64842d97a58fd50e158fd482,64d2fd46c836a06233681665,64dc7cd470d1e514aee1fcf1,,,,,,,decisionTrl,resources/DB.BMP,resources/DY.BMP,Door1,-0.240881602,0.008819024,1,0,0,1.3287,optionLeft,30,10480,5,24,0,24,0,1,,,,,,,,,,,,,,,,,,,,,,,,,,,,,,,,,,,,,,,
,,,,,,,64842d97a58fd50e158fd482,2023-08-16_08h40.38.116,HF_wild_card,2022.2.4,Linux x86_64,60.0024001,64842d97a58fd50e158fd482,64d2fd46c836a06233681665,64dc7cd470d1e514aee1fcf1,,,,,,,decisionTrl,resources/DB.BMP,resources/DY.BMP,Door2,0.264590343,0.003145774,1,0,0,0.5968,optionRight,40,10520,5,25,0,25,0,1,,,,,,,,,,,,,,,,,,,,,,,,,,,,,,,,,,,,,,,
,,,,,,,64842d97a58fd50e158fd482,2023-08-16_08h40.38.116,HF_wild_card,2022.2.4,Linux x86_64,60.0024001,64842d97a58fd50e158fd482,64d2fd46c836a06233681665,64dc7cd470d1e514aee1fcf1,,,,,,,decisionTrl,resources/DG.BMP,resources/DP.BMP,Door3,0.290455818,0.029331207,1,0,0,0.8625,optionRight,70,10590,5,26,0,26,0,1,,,,,,,,,,,,,,,,,,,,,,,,,,,,,,,,,,,,,,,
,,,,,,,64842d97a58fd50e158fd482,2023-08-16_08h40.38.116,HF_wild_card,2022.2.4,Linux x86_64,60.0024001,64842d97a58fd50e158fd482,64d2fd46c836a06233681665,64dc7cd470d1e514aee1fcf1,,,,,,,decisionTrl,resources/DY.BMP,resources/DB.BMP,Door1,0.183458328,0.021647533,1,0,0,1.0619,optionRight,30,10620,5,27,0,27,0,1,,,,,,,,,,,,,,,,,,,,,,,,,,,,,,,,,,,,,,,
,,,,,,,64842d97a58fd50e158fd482,2023-08-16_08h40.38.116,HF_wild_card,2022.2.4,Linux x86_64,60.0024001,64842d97a58fd50e158fd482,64d2fd46c836a06233681665,64dc7cd470d1e514aee1fcf1,,,,,,,decisionTrl,resources/DY.BMP,resources/DB.BMP,Door2,-0.22567145,0.016510129,1,0,0,1.179,optionLeft,40,10660,5,28,0,28,0,1,,,,,,,,,,,,,,,,,,,,,,,,,,,,,,,,,,,,,,,
,,,,,,,64842d97a58fd50e158fd482,2023-08-16_08h40.38.116,HF_wild_card,2022.2.4,Linux x86_64,60.0024001,64842d97a58fd50e158fd482,64d2fd46c836a06233681665,64dc7cd470d1e514aee1fcf1,,,,,,,ctch,resources/DY.BMP,resources/DP.BMP,Door3,0.244900465,0.022691766,1,0,0,0.912,optionRight,70,10730,5,29,0,29,0,1,,,,,,,,,,,,,,,,,,,,,,,,,,,,,,,,,,,,,,,
,,,,,,,64842d97a58fd50e158fd482,2023-08-16_08h40.38.116,HF_wild_card,2022.2.4,Linux x86_64,60.0024001,64842d97a58fd50e158fd482,64d2fd46c836a06233681665,64dc7cd470d1e514aee1fcf1,,,,,,,decisionTrl,resources/DY.BMP,resources/DB.BMP,Door2,-0.178294261,0.029371023,1,0,0,1.4127,optionLeft,20,10750,5,30,0,30,0,1,,,,,,,,,,,,,,,,,,,,,,,,,,,,,,,,,,,,,,,
,,,,,,,64842d97a58fd50e158fd482,2023-08-16_08h40.38.116,HF_wild_card,2022.2.4,Linux x86_64,60.0024001,64842d97a58fd50e158fd482,64d2fd46c836a06233681665,64dc7cd470d1e514aee1fcf1,,,,,,,sngl,resources/DP.BMP,resources/Empty.png,Door3,-0.195671956,0.014144142,1,0,0,0.9286,optionLeft,70,10820,5,31,0,31,0,1,,,,,,,,,,,,,,,,,,,,,,,,,,,,,,,,,,,,,,,
,,,,,,,64842d97a58fd50e158fd482,2023-08-16_08h40.38.116,HF_wild_card,2022.2.4,Linux x86_64,60.0024001,64842d97a58fd50e158fd482,64d2fd46c836a06233681665,64dc7cd470d1e514aee1fcf1,,,,,,,decisionTrl,resources/DR.BMP,resources/DP.BMP,Door3,0.229954004,0.022701502,1,0,0,0.7458,optionRight,70,10890,5,32,0,32,0,1,,,,,,,,,,,,,,,,,,,,,,,,,,,,,,,,,,,,,,,
,,,,,,,64842d97a58fd50e158fd482,2023-08-16_08h40.38.116,HF_wild_card,2022.2.4,Linux x86_64,60.0024001,64842d97a58fd50e158fd482,64d2fd46c836a06233681665,64dc7cd470d1e514aee1fcf1,,,,,,,decisionTrl,resources/DY.BMP,resources/DR.BMP,WildCard_NonEx,0.238986174,0.032878598,1,0,0,1.1953,optionRight,55,10945,5,33,0,33,0,1,,,,,,,,,,,,,,,,,,,,,,,,,,,,,,,,,,,,,,,
,,,,,,,64842d97a58fd50e158fd482,2023-08-16_08h40.38.116,HF_wild_card,2022.2.4,Linux x86_64,60.0024001,64842d97a58fd50e158fd482,64d2fd46c836a06233681665,64dc7cd470d1e514aee1fcf1,,,,,,,decisionTrl,resources/DG.BMP,resources/DR.BMP,WildCard_NonEx,0.1682295,0.033319314,1,0,0,1.9463,optionRight,55,11000,5,34,0,34,0,1,,,,,,,,,,,,,,,,,,,,,,,,,,,,,,,,,,,,,,,
,,,,,,,64842d97a58fd50e158fd482,2023-08-16_08h40.38.116,HF_wild_card,2022.2.4,Linux x86_64,60.0024001,64842d97a58fd50e158fd482,64d2fd46c836a06233681665,64dc7cd470d1e514aee1fcf1,,,,,,,sngl,resources/DG.BMP,resources/Empty.png,Door4,-0.197136879,0.013155778,1,0,0,0.5789,optionLeft,80,11080,5,35,0,35,0,1,,,,,,,,,,,,,,,,,,,,,,,,,,,,,,,,,,,,,,,
,,,,,,,64842d97a58fd50e158fd482,2023-08-16_08h40.38.116,HF_wild_card,2022.2.4,Linux x86_64,60.0024001,64842d97a58fd50e158fd482,64d2fd46c836a06233681665,64dc7cd470d1e514aee1fcf1,,,,,,,ctch,resources/DP.BMP,resources/DY.BMP,Door3,-0.212311745,0.023276329,1,0,0,0.8957,optionLeft,70,11150,5,36,0,36,0,1,,,,,,,,,,,,,,,,,,,,,,,,,,,,,,,,,,,,,,,
,,,,,,,64842d97a58fd50e158fd482,2023-08-16_08h40.38.116,HF_wild_card,2022.2.4,Linux x86_64,60.0024001,64842d97a58fd50e158fd482,64d2fd46c836a06233681665,64dc7cd470d1e514aee1fcf1,,,,,,,decisionTrl,resources/DG.BMP,resources/DP.BMP,Door3,0.230111837,0.035379966,1,0,0,0.7123,optionRight,70,11220,5,37,0,37,0,1,,,,,,,,,,,,,,,,,,,,,,,,,,,,,,,,,,,,,,,
,,,,,,,64842d97a58fd50e158fd482,2023-08-16_08h40.38.116,HF_wild_card,2022.2.4,Linux x86_64,60.0024001,64842d97a58fd50e158fd482,64d2fd46c836a06233681665,64dc7cd470d1e514aee1fcf1,,,,,,,decisionTrl,resources/DB.BMP,resources/DY.BMP,Door1,-0.21693182,0.011922956,1,0,0,1.1937,optionLeft,30,11250,5,38,0,38,0,1,,,,,,,,,,,,,,,,,,,,,,,,,,,,,,,,,,,,,,,
,,,,,,,64842d97a58fd50e158fd482,2023-08-16_08h40.38.116,HF_wild_card,2022.2.4,Linux x86_64,60.0024001,64842d97a58fd50e158fd482,64d2fd46c836a06233681665,64dc7cd470d1e514aee1fcf1,,,,,,,decisionTrl,resources/DG.BMP,resources/DP.BMP,Door3,0.239913305,0.029380361,1,0,0,1.3456,optionRight,70,11320,5,39,0,39,0,1,,,,,,,,,,,,,,,,,,,,,,,,,,,,,,,,,,,,,,,
,,,,,,,64842d97a58fd50e158fd482,2023-08-16_08h40.38.116,HF_wild_card,2022.2.4,Linux x86_64,60.0024001,64842d97a58fd50e158fd482,64d2fd46c836a06233681665,64dc7cd470d1e514aee1fcf1,,,,,,,decisionTrl,resources/DR.BMP,resources/DY.BMP,WildCard_NonEx,-0.245856762,0.017508348,1,0,0,1.3125,optionLeft,45,11365,5,40,0,40,0,1,,,,,,,,,,,,,,,,,,,,,,,,,,,,,,,,,,,,,,,
,,,,,,,64842d97a58fd50e158fd482,2023-08-16_08h40.38.116,HF_wild_card,2022.2.4,Linux x86_64,60.0024001,64842d97a58fd50e158fd482,64d2fd46c836a06233681665,64dc7cd470d1e514aee1fcf1,,,,,,,sngl,resources/DB.BMP,resources/Empty.png,Door1,-0.193714857,0.022377968,1,0,0,0.7122,optionLeft,30,11395,5,41,0,41,0,1,,,,,,,,,,,,,,,,,,,,,,,,,,,,,,,,,,,,,,,
,,,,,,,64842d97a58fd50e158fd482,2023-08-16_08h40.38.116,HF_wild_card,2022.2.4,Linux x86_64,60.0024001,64842d97a58fd50e158fd482,64d2fd46c836a06233681665,64dc7cd470d1e514aee1fcf1,,,,,,,ctch,resources/DY.BMP,resources/DP.BMP,Door3,0.246112585,0.024923086,1,0,0,0.8789,optionRight,70,11465,5,42,0,42,0,1,,,,,,,,,,,,,,,,,,,,,,,,,,,,,,,,,,,,,,,
,,,,,,,64842d97a58fd50e158fd482,2023-08-16_08h40.38.116,HF_wild_card,2022.2.4,Linux x86_64,60.0024001,64842d97a58fd50e158fd482,64d2fd46c836a06233681665,64dc7cd470d1e514aee1fcf1,,,,,,,decisionTrl,resources/DB.BMP,resources/DY.BMP,Door1,-0.194975694,0.016933242,1,0,0,1.0957,optionLeft,30,11495,5,43,0,43,0,1,,,,,,,,,,,,,,,,,,,,,,,,,,,,,,,,,,,,,,,
,,,,,,,64842d97a58fd50e158fd482,2023-08-16_08h40.38.116,HF_wild_card,2022.2.4,Linux x86_64,60.0024001,64842d97a58fd50e158fd482,64d2fd46c836a06233681665,64dc7cd470d1e514aee1fcf1,,,,,,,,,,,,,,,,,,,,,,,,,,4,0,4,0,1,,,,,,,,,,,,,,,,,,,,,,,,,,,,,,,,,,
,,,,,,,64842d97a58fd50e158fd482,2023-08-16_08h40.38.116,HF_wild_card,2022.2.4,Linux x86_64,60.0024001,64842d97a58fd50e158fd482,64d2fd46c836a06233681665,64dc7cd470d1e514aee1fcf1,,,,,,,sngl,resources/Empty.png,resources/DR.BMP,WildCard_NonEx,0.327525854,-0.053814212,1,0,0,0.8256,optionRight,55,11550,6,0,0,0,0,1,,,,,,,,,,,,,,,,,,,,,,,,,,,,,,,,,,,,,,,
,,,,,,,64842d97a58fd50e158fd482,2023-08-16_08h40.38.116,HF_wild_card,2022.2.4,Linux x86_64,60.0024001,64842d97a58fd50e158fd482,64d2fd46c836a06233681665,64dc7cd470d1e514aee1fcf1,,,,,,,decisionTrl,resources/DR.BMP,resources/DP.BMP,Door3,0.265976588,-0.004977385,1,0,0,0.7463,optionRight,70,11620,6,1,0,1,0,1,,,,,,,,,,,,,,,,,,,,,,,,,,,,,,,,,,,,,,,
,,,,,,,64842d97a58fd50e158fd482,2023-08-16_08h40.38.116,HF_wild_card,2022.2.4,Linux x86_64,60.0024001,64842d97a58fd50e158fd482,64d2fd46c836a06233681665,64dc7cd470d1e514aee1fcf1,,,,,,,decisionTrl,resources/DR.BMP,resources/DG.BMP,WildCard_NonEx,-0.21107022,0.0048304,1,0,0,1.9793,optionLeft,45,11665,6,2,0,2,0,1,,,,,,,,,,,,,,,,,,,,,,,,,,,,,,,,,,,,,,,
,,,,,,,64842d97a58fd50e158fd482,2023-08-16_08h40.38.116,HF_wild_card,2022.2.4,Linux x86_64,60.0024001,64842d97a58fd50e158fd482,64d2fd46c836a06233681665,64dc7cd470d1e514aee1fcf1,,,,,,,decisionTrl,resources/DY.BMP,resources/DR.BMP,WildCard_NonEx,0.214589198,0.011127432,1,0,0,0.9288,optionRight,55,11720,6,3,0,3,0,1,,,,,,,,,,,,,,,,,,,,,,,,,,,,,,,,,,,,,,,
,,,,,,,64842d97a58fd50e158fd482,2023-08-16_08h40.38.116,HF_wild_card,2022.2.4,Linux x86_64,60.0024001,64842d97a58fd50e158fd482,64d2fd46c836a06233681665,64dc7cd470d1e514aee1fcf1,,,,,,,decisionTrl,resources/DG.BMP,resources/DP.BMP,Door3,0.290885369,0.018178304,1,0,0,0.7444,optionRight,70,11790,6,4,0,4,0,1,,,,,,,,,,,,,,,,,,,,,,,,,,,,,,,,,,,,,,,
,,,,,,,64842d97a58fd50e158fd482,2023-08-16_08h40.38.116,HF_wild_card,2022.2.4,Linux x86_64,60.0024001,64842d97a58fd50e158fd482,64d2fd46c836a06233681665,64dc7cd470d1e514aee1fcf1,,,,,,,ctch,resources/DB.BMP,resources/DG.BMP,Door4,0.291947921,0.02383105,1,0,0,0.9126,optionRight,80,11870,6,5,0,5,0,1,,,,,,,,,,,,,,,,,,,,,,,,,,,,,,,,,,,,,,,
,,,,,,,64842d97a58fd50e158fd482,2023-08-16_08h40.38.116,HF_wild_card,2022.2.4,Linux x86_64,60.0024001,64842d97a58fd50e158fd482,64d2fd46c836a06233681665,64dc7cd470d1e514aee1fcf1,,,,,,,decisionTrl,resources/DB.BMP,resources/DY.BMP,Door1,-0.2582738,-0.002336502,1,0,0,1.1792,optionLeft,30,11900,6,6,0,6,0,1,,,,,,,,,,,,,,,,,,,,,,,,,,,,,,,,,,,,,,,
,,,,,,,64842d97a58fd50e158fd482,2023-08-16_08h40.38.116,HF_wild_card,2022.2.4,Linux x86_64,60.0024001,64842d97a58fd50e158fd482,64d2fd46c836a06233681665,64dc7cd470d1e514aee1fcf1,,,,,,,ctch,resources/DY.BMP,resources/DP.BMP,Door3,0.26657033,0.033467094,1,0,0,0.7957,optionRight,70,11970,6,7,0,7,0,1,,,,,,,,,,,,,,,,,,,,,,,,,,,,,,,,,,,,,,,
,,,,,,,64842d97a58fd50e158fd482,2023-08-16_08h40.38.116,HF_wild_card,2022.2.4,Linux x86_64,60.0024001,64842d97a58fd50e158fd482,64d2fd46c836a06233681665,64dc7cd470d1e514aee1fcf1,,,,,,,ctch,resources/DY.BMP,resources/DP.BMP,Door3,0.220864455,0.026364803,1,0,0,0.8952,optionRight,70,12040,6,8,0,8,0,1,,,,,,,,,,,,,,,,,,,,,,,,,,,,,,,,,,,,,,,
,,,,,,,64842d97a58fd50e158fd482,2023-08-16_08h40.38.116,HF_wild_card,2022.2.4,Linux x86_64,60.0024001,64842d97a58fd50e158fd482,64d2fd46c836a06233681665,64dc7cd470d1e514aee1fcf1,,,,,,,sngl,resources/DP.BMP,resources/Empty.png,Door3,-0.189852397,0.003589908,1,0,0,0.6626,optionLeft,70,12110,6,9,0,9,0,1,,,,,,,,,,,,,,,,,,,,,,,,,,,,,,,,,,,,,,,
,,,,,,,64842d97a58fd50e158fd482,2023-08-16_08h40.38.116,HF_wild_card,2022.2.4,Linux x86_64,60.0024001,64842d97a58fd50e158fd482,64d2fd46c836a06233681665,64dc7cd470d1e514aee1fcf1,,,,,,,decisionTrl,resources/DG.BMP,resources/DR.BMP,WildCard_NonEx,0.204844395,0.034714977,1,0,0,1.5948,optionRight,45,12155,6,10,0,10,0,1,,,,,,,,,,,,,,,,,,,,,,,,,,,,,,,,,,,,,,,
,,,,,,,64842d97a58fd50e158fd482,2023-08-16_08h40.38.116,HF_wild_card,2022.2.4,Linux x86_64,60.0024001,64842d97a58fd50e158fd482,64d2fd46c836a06233681665,64dc7cd470d1e514aee1fcf1,,,,,,,decisionTrl,resources/DB.BMP,resources/DR.BMP,WildCard_NonEx,0.201439142,0.019591967,1,0,0,0.7782,optionRight,55,12210,6,11,0,11,0,1,,,,,,,,,,,,,,,,,,,,,,,,,,,,,,,,,,,,,,,
,,,,,,,64842d97a58fd50e158fd482,2023-08-16_08h40.38.116,HF_wild_card,2022.2.4,Linux x86_64,60.0024001,64842d97a58fd50e158fd482,64d2fd46c836a06233681665,64dc7cd470d1e514aee1fcf1,,,,,,,sngl,resources/DY.BMP,resources/Empty.png,Door2,-0.246101499,-0.009200732,1,0,0,0.596,optionLeft,20,12230,6,12,0,12,0,1,,,,,,,,,,,,,,,,,,,,,,,,,,,,,,,,,,,,,,,
,,,,,,,64842d97a58fd50e158fd482,2023-08-16_08h40.38.116,HF_wild_card,2022.2.4,Linux x86_64,60.0024001,64842d97a58fd50e158fd482,64d2fd46c836a06233681665,64dc7cd470d1e514aee1fcf1,,,,,,,sngl,resources/DG.BMP,resources/Empty.png,Door4,-0.211397012,0.002182007,1,0,0,0.6631,optionLeft,60,12290,6,13,0,13,0,1,,,,,,,,,,,,,,,,,,,,,,,,,,,,,,,,,,,,,,,
,,,,,,,64842d97a58fd50e158fd482,2023-08-16_08h40.38.116,HF_wild_card,2022.2.4,Linux x86_64,60.0024001,64842d97a58fd50e158fd482,64d2fd46c836a06233681665,64dc7cd470d1e514aee1fcf1,,,,,,,decisionTrl,resources/DB.BMP,resources/DY.BMP,Door1,-0.209963719,0.011271596,1,0,0,1.2459,optionLeft,30,12320,6,14,0,14,0,1,,,,,,,,,,,,,,,,,,,,,,,,,,,,,,,,,,,,,,,
,,,,,,,64842d97a58fd50e158fd482,2023-08-16_08h40.38.116,HF_wild_card,2022.2.4,Linux x86_64,60.0024001,64842d97a58fd50e158fd482,64d2fd46c836a06233681665,64dc7cd470d1e514aee1fcf1,,,,,,,sngl,resources/DR.BMP,resources/Empty.png,WildCard_NonEx,-0.260366042,-0.007310748,1,0,0,0.6291,optionLeft,55,12375,6,15,0,15,0,1,,,,,,,,,,,,,,,,,,,,,,,,,,,,,,,,,,,,,,,
,,,,,,,64842d97a58fd50e158fd482,2023-08-16_08h40.38.116,HF_wild_card,2022.2.4,Linux x86_64,60.0024001,64842d97a58fd50e158fd482,64d2fd46c836a06233681665,64dc7cd470d1e514aee1fcf1,,,,,,,decisionTrl,resources/DG.BMP,resources/DP.BMP,Door3,0.180348158,0.02964286,1,0,0,1.3277,optionRight,70,12445,6,16,0,16,0,1,,,,,,,,,,,,,,,,,,,,,,,,,,,,,,,,,,,,,,,
,,,,,,,64842d97a58fd50e158fd482,2023-08-16_08h40.38.116,HF_wild_card,2022.2.4,Linux x86_64,60.0024001,64842d97a58fd50e158fd482,64d2fd46c836a06233681665,64dc7cd470d1e514aee1fcf1,,,,,,,decisionTrl,resources/DB.BMP,resources/DY.BMP,Door2,0.202339888,0.001957258,1,0,0,0.711,optionRight,40,12485,6,17,0,17,0,1,,,,,,,,,,,,,,,,,,,,,,,,,,,,,,,,,,,,,,,
,,,,,,,64842d97a58fd50e158fd482,2023-08-16_08h40.38.116,HF_wild_card,2022.2.4,Linux x86_64,60.0024001,64842d97a58fd50e158fd482,64d2fd46c836a06233681665,64dc7cd470d1e514aee1fcf1,,,,,,,decisionTrl,resources/DR.BMP,resources/DB.BMP,WildCard_NonEx,-0.203614632,0.011125565,1,0,0,1.8128,optionLeft,55,12540,6,18,0,18,0,1,,,,,,,,,,,,,,,,,,,,,,,,,,,,,,,,,,,,,,,
,,,,,,,64842d97a58fd50e158fd482,2023-08-16_08h40.38.116,HF_wild_card,2022.2.4,Linux x86_64,60.0024001,64842d97a58fd50e158fd482,64d2fd46c836a06233681665,64dc7cd470d1e514aee1fcf1,,,,,,,sngl,resources/Empty.png,resources/DG.BMP,Door4,0.226968447,0.014500697,1,0,0,0.6954,optionRight,80,12620,6,19,0,19,0,1,,,,,,,,,,,,,,,,,,,,,,,,,,,,,,,,,,,,,,,
,,,,,,,64842d97a58fd50e158fd482,2023-08-16_08h40.38.116,HF_wild_card,2022.2.4,Linux x86_64,60.0024001,64842d97a58fd50e158fd482,64d2fd46c836a06233681665,64dc7cd470d1e514aee1fcf1,,,,,,,decisionTrl,resources/DP.BMP,resources/DG.BMP,Door4,0.180447261,0.004178127,1,0,0,0.6964,optionRight,60,12680,6,20,0,20,0,1,,,,,,,,,,,,,,,,,,,,,,,,,,,,,,,,,,,,,,,
,,,,,,,64842d97a58fd50e158fd482,2023-08-16_08h40.38.116,HF_wild_card,2022.2.4,Linux x86_64,60.0024001,64842d97a58fd50e158fd482,64d2fd46c836a06233681665,64dc7cd470d1e514aee1fcf1,,,,,,,ctch,resources/DP.BMP,resources/DY.BMP,Door3,-0.171340863,-0.020491044,1,0,0,0.7474,optionLeft,70,12750,6,21,0,21,0,1,,,,,,,,,,,,,,,,,,,,,,,,,,,,,,,,,,,,,,,
,,,,,,,64842d97a58fd50e158fd482,2023-08-16_08h40.38.116,HF_wild_card,2022.2.4,Linux x86_64,60.0024001,64842d97a58fd50e158fd482,64d2fd46c836a06233681665,64dc7cd470d1e514aee1fcf1,,,,,,,decisionTrl,resources/DP.BMP,resources/DR.BMP,Door3,-0.224831343,-0.000672499,1,0,0,1.6782,optionLeft,70,12820,6,22,0,22,0,1,,,,,,,,,,,,,,,,,,,,,,,,,,,,,,,,,,,,,,,
,,,,,,,64842d97a58fd50e158fd482,2023-08-16_08h40.38.116,HF_wild_card,2022.2.4,Linux x86_64,60.0024001,64842d97a58fd50e158fd482,64d2fd46c836a06233681665,64dc7cd470d1e514aee1fcf1,,,,,,,ctch,resources/DP.BMP,resources/DY.BMP,Door3,-0.213849147,-0.019086838,1,0,0,0.6438,optionLeft,70,12890,6,23,0,23,0,1,,,,,,,,,,,,,,,,,,,,,,,,,,,,,,,,,,,,,,,
,,,,,,,64842d97a58fd50e158fd482,2023-08-16_08h40.38.116,HF_wild_card,2022.2.4,Linux x86_64,60.0024001,64842d97a58fd50e158fd482,64d2fd46c836a06233681665,64dc7cd470d1e514aee1fcf1,,,,,,,decisionTrl,resources/DY.BMP,resources/DB.BMP,Door1,0.207387447,-0.00944225,1,0,0,1.8791,optionRight,30,12920,6,24,0,24,0,1,,,,,,,,,,,,,,,,,,,,,,,,,,,,,,,,,,,,,,,
,,,,,,,64842d97a58fd50e158fd482,2023-08-16_08h40.38.116,HF_wild_card,2022.2.4,Linux x86_64,60.0024001,64842d97a58fd50e158fd482,64d2fd46c836a06233681665,64dc7cd470d1e514aee1fcf1,,,,,,,sngl,resources/Empty.png,resources/DP.BMP,Door3,0.199383418,-0.00427115,1,0,0,0.6468,optionRight,70,12990,6,25,0,25,0,1,,,,,,,,,,,,,,,,,,,,,,,,,,,,,,,,,,,,,,,
,,,,,,,64842d97a58fd50e158fd482,2023-08-16_08h40.38.116,HF_wild_card,2022.2.4,Linux x86_64,60.0024001,64842d97a58fd50e158fd482,64d2fd46c836a06233681665,64dc7cd470d1e514aee1fcf1,,,,,,,decisionTrl,resources/DP.BMP,resources/DG.BMP,Door3,-0.19836839,-0.01371932,1,0,0,1.2762,optionLeft,70,13060,6,26,0,26,0,1,,,,,,,,,,,,,,,,,,,,,,,,,,,,,,,,,,,,,,,
,,,,,,,64842d97a58fd50e158fd482,2023-08-16_08h40.38.116,HF_wild_card,2022.2.4,Linux x86_64,60.0024001,64842d97a58fd50e158fd482,64d2fd46c836a06233681665,64dc7cd470d1e514aee1fcf1,,,,,,,decisionTrl,resources/DB.BMP,resources/DY.BMP,Door1,-0.261550347,-0.037661791,1,0,0,1.379,optionLeft,30,13090,6,27,0,27,0,1,,,,,,,,,,,,,,,,,,,,,,,,,,,,,,,,,,,,,,,
,,,,,,,64842d97a58fd50e158fd482,2023-08-16_08h40.38.116,HF_wild_card,2022.2.4,Linux x86_64,60.0024001,64842d97a58fd50e158fd482,64d2fd46c836a06233681665,64dc7cd470d1e514aee1fcf1,,,,,,,sngl,resources/Empty.png,resources/DY.BMP,Door2,0.233188391,-0.021912058,1,0,0,0.6291,optionRight,40,13130,6,28,0,28,0,1,,,,,,,,,,,,,,,,,,,,,,,,,,,,,,,,,,,,,,,
,,,,,,,64842d97a58fd50e158fd482,2023-08-16_08h40.38.116,HF_wild_card,2022.2.4,Linux x86_64,60.0024001,64842d97a58fd50e158fd482,64d2fd46c836a06233681665,64dc7cd470d1e514aee1fcf1,,,,,,,decisionTrl,resources/DR.BMP,resources/DY.BMP,Door2,0.195652962,-0.01079758,1,0,0,1.4126,optionRight,20,13150,6,29,0,29,0,1,,,,,,,,,,,,,,,,,,,,,,,,,,,,,,,,,,,,,,,
,,,,,,,64842d97a58fd50e158fd482,2023-08-16_08h40.38.116,HF_wild_card,2022.2.4,Linux x86_64,60.0024001,64842d97a58fd50e158fd482,64d2fd46c836a06233681665,64dc7cd470d1e514aee1fcf1,,,,,,,decisionTrl,resources/DP.BMP,resources/DG.BMP,Door3,-0.201910973,-0.024995327,1,0,0,1.3782,optionLeft,70,13220,6,30,0,30,0,1,,,,,,,,,,,,,,,,,,,,,,,,,,,,,,,,,,,,,,,
,,,,,,,64842d97a58fd50e158fd482,2023-08-16_08h40.38.116,HF_wild_card,2022.2.4,Linux x86_64,60.0024001,64842d97a58fd50e158fd482,64d2fd46c836a06233681665,64dc7cd470d1e514aee1fcf1,,,,,,,sngl,resources/Empty.png,resources/DR.BMP,WildCard_NonEx,0.22908322,-0.022761067,1,0,0,0.6124,optionRight,45,13265,6,31,0,31,0,1,,,,,,,,,,,,,,,,,,,,,,,,,,,,,,,,,,,,,,,
,,,,,,,64842d97a58fd50e158fd482,2023-08-16_08h40.38.116,HF_wild_card,2022.2.4,Linux x86_64,60.0024001,64842d97a58fd50e158fd482,64d2fd46c836a06233681665,64dc7cd470d1e514aee1fcf1,,,,,,,ctch,resources/DG.BMP,resources/DB.BMP,Door4,-0.244184256,-0.032120307,1,0,0,1.0288,optionLeft,80,13345,6,32,0,32,0,1,,,,,,,,,,,,,,,,,,,,,,,,,,,,,,,,,,,,,,,
,,,,,,,64842d97a58fd50e158fd482,2023-08-16_08h40.38.116,HF_wild_card,2022.2.4,Linux x86_64,60.0024001,64842d97a58fd50e158fd482,64d2fd46c836a06233681665,64dc7cd470d1e514aee1fcf1,,,,,,,decisionTrl,resources/DY.BMP,resources/DB.BMP,Door2,-0.245558739,-0.031943639,1,0,0,1.0786,optionLeft,20,13365,6,33,0,33,0,1,,,,,,,,,,,,,,,,,,,,,,,,,,,,,,,,,,,,,,,
,,,,,,,64842d97a58fd50e158fd482,2023-08-16_08h40.38.116,HF_wild_card,2022.2.4,Linux x86_64,60.0024001,64842d97a58fd50e158fd482,64d2fd46c836a06233681665,64dc7cd470d1e514aee1fcf1,,,,,,,decisionTrl,resources/DG.BMP,resources/DP.BMP,Door4,-0.230143785,-0.017134706,1,0,0,1.0608,optionLeft,60,13425,6,34,0,34,0,1,,,,,,,,,,,,,,,,,,,,,,,,,,,,,,,,,,,,,,,
,,,,,,,64842d97a58fd50e158fd482,2023-08-16_08h40.38.116,HF_wild_card,2022.2.4,Linux x86_64,60.0024001,64842d97a58fd50e158fd482,64d2fd46c836a06233681665,64dc7cd470d1e514aee1fcf1,,,,,,,decisionTrl,resources/DY.BMP,resources/DB.BMP,Door1,0.307717721,-0.010718624,1,0,0,1.5624,optionRight,30,13455,6,35,0,35,0,1,,,,,,,,,,,,,,,,,,,,,,,,,,,,,,,,,,,,,,,
,,,,,,,64842d97a58fd50e158fd482,2023-08-16_08h40.38.116,HF_wild_card,2022.2.4,Linux x86_64,60.0024001,64842d97a58fd50e158fd482,64d2fd46c836a06233681665,64dc7cd470d1e514aee1fcf1,,,,,,,sngl,resources/DB.BMP,resources/Empty.png,Door1,-0.172934453,-0.017592748,1,0,0,0.6614,optionLeft,30,13485,6,36,0,36,0,1,,,,,,,,,,,,,,,,,,,,,,,,,,,,,,,,,,,,,,,
,,,,,,,64842d97a58fd50e158fd482,2023-08-16_08h40.38.116,HF_wild_card,2022.2.4,Linux x86_64,60.0024001,64842d97a58fd50e158fd482,64d2fd46c836a06233681665,64dc7cd470d1e514aee1fcf1,,,,,,,ctch,resources/DB.BMP,resources/DG.BMP,Door4,0.244135539,0.006621003,1,0,0,1.5125,optionRight,60,13545,6,37,0,37,0,1,,,,,,,,,,,,,,,,,,,,,,,,,,,,,,,,,,,,,,,
,,,,,,,64842d97a58fd50e158fd482,2023-08-16_08h40.38.116,HF_wild_card,2022.2.4,Linux x86_64,60.0024001,64842d97a58fd50e158fd482,64d2fd46c836a06233681665,64dc7cd470d1e514aee1fcf1,,,,,,,decisionTrl,resources/DG.BMP,resources/DP.BMP,Door3,0.293751319,-0.010316133,1,0,0,1.2469,optionRight,70,13615,6,38,0,38,0,1,,,,,,,,,,,,,,,,,,,,,,,,,,,,,,,,,,,,,,,
,,,,,,,64842d97a58fd50e158fd482,2023-08-16_08h40.38.116,HF_wild_card,2022.2.4,Linux x86_64,60.0024001,64842d97a58fd50e158fd482,64d2fd46c836a06233681665,64dc7cd470d1e514aee1fcf1,,,,,,,sngl,resources/DR.BMP,resources/Empty.png,WildCard_NonEx,-0.212200483,-0.029174447,1,0,0,0.5938,optionLeft,45,13660,6,39,0,39,0,1,,,,,,,,,,,,,,,,,,,,,,,,,,,,,,,,,,,,,,,
,,,,,,,64842d97a58fd50e158fd482,2023-08-16_08h40.38.116,HF_wild_card,2022.2.4,Linux x86_64,60.0024001,64842d97a58fd50e158fd482,64d2fd46c836a06233681665,64dc7cd470d1e514aee1fcf1,,,,,,,sngl,resources/Empty.png,resources/DB.BMP,Door1,0.278090477,-0.020394882,1,0,0,0.6119,optionRight,30,13690,6,40,0,40,0,1,,,,,,,,,,,,,,,,,,,,,,,,,,,,,,,,,,,,,,,
,,,,,,,64842d97a58fd50e158fd482,2023-08-16_08h40.38.116,HF_wild_card,2022.2.4,Linux x86_64,60.0024001,64842d97a58fd50e158fd482,64d2fd46c836a06233681665,64dc7cd470d1e514aee1fcf1,,,,,,,decisionTrl,resources/DY.BMP,resources/DB.BMP,Door2,-0.170850595,-0.022902767,1,0,0,1.1624,optionLeft,40,13730,6,41,0,41,0,1,,,,,,,,,,,,,,,,,,,,,,,,,,,,,,,,,,,,,,,
,,,,,,,64842d97a58fd50e158fd482,2023-08-16_08h40.38.116,HF_wild_card,2022.2.4,Linux x86_64,60.0024001,64842d97a58fd50e158fd482,64d2fd46c836a06233681665,64dc7cd470d1e514aee1fcf1,,,,,,,ctch,resources/DG.BMP,resources/DB.BMP,Door4,-0.220091581,-0.01743559,1,0,0,1.0446,optionLeft,60,13790,6,42,0,42,0,1,,,,,,,,,,,,,,,,,,,,,,,,,,,,,,,,,,,,,,,
,,,,,,,64842d97a58fd50e158fd482,2023-08-16_08h40.38.116,HF_wild_card,2022.2.4,Linux x86_64,60.0024001,64842d97a58fd50e158fd482,64d2fd46c836a06233681665,64dc7cd470d1e514aee1fcf1,,,,,,,decisionTrl,resources/DP.BMP,resources/DG.BMP,Door3,-0.172484001,-0.031082273,1,0,0,0.6116,optionLeft,70,13860,6,43,0,43,0,1,,,,,,,,,,,,,,,,,,,,,,,,,,,,,,,,,,,,,,,
,,,,,,,64842d97a58fd50e158fd482,2023-08-16_08h40.38.116,HF_wild_card,2022.2.4,Linux x86_64,60.0024001,64842d97a58fd50e158fd482,64d2fd46c836a06233681665,64dc7cd470d1e514aee1fcf1,,,,,,,,,,,,,,,,,,,,,,,,,,5,0,5,0,1,,,,,,,,,,,,,,,,,,,,,,,,,,,,,,,,,,
,,,,,,,64842d97a58fd50e158fd482,2023-08-16_08h40.38.116,HF_wild_card,2022.2.4,Linux x86_64,60.0024001,64842d97a58fd50e158fd482,64d2fd46c836a06233681665,64dc7cd470d1e514aee1fcf1,,,,,,,ctch,resources/DP.BMP,resources/DY.BMP,Door3,-0.301107804,-0.045048992,1,0,0,1.7091,optionLeft,70,13930,7,0,0,0,0,1,,,,,,,,,,,,,,,,,,,,,,,,,,,,,,,,,,,,,,,
,,,,,,,64842d97a58fd50e158fd482,2023-08-16_08h40.38.116,HF_wild_card,2022.2.4,Linux x86_64,60.0024001,64842d97a58fd50e158fd482,64d2fd46c836a06233681665,64dc7cd470d1e514aee1fcf1,,,,,,,decisionTrl,resources/DG.BMP,resources/DP.BMP,Door4,-0.200417916,0.019800107,1,0,0,1.6147,optionLeft,60,13990,7,1,0,1,0,1,,,,,,,,,,,,,,,,,,,,,,,,,,,,,,,,,,,,,,,
,,,,,,,64842d97a58fd50e158fd482,2023-08-16_08h40.38.116,HF_wild_card,2022.2.4,Linux x86_64,60.0024001,64842d97a58fd50e158fd482,64d2fd46c836a06233681665,64dc7cd470d1e514aee1fcf1,,,,,,,decisionTrl,resources/DB.BMP,resources/DY.BMP,Door1,-0.204460621,0.003584901,1,0,0,1.4132,optionLeft,30,14020,7,2,0,2,0,1,,,,,,,,,,,,,,,,,,,,,,,,,,,,,,,,,,,,,,,
,,,,,,,64842d97a58fd50e158fd482,2023-08-16_08h40.38.116,HF_wild_card,2022.2.4,Linux x86_64,60.0024001,64842d97a58fd50e158fd482,64d2fd46c836a06233681665,64dc7cd470d1e514aee1fcf1,,,,,,,ctch,resources/DB.BMP,resources/DG.BMP,Door4,0.323935191,0.016664187,1,0,0,1.2483,optionRight,80,14100,7,3,0,3,0,1,,,,,,,,,,,,,,,,,,,,,,,,,,,,,,,,,,,,,,,
,,,,,,,64842d97a58fd50e158fd482,2023-08-16_08h40.38.116,HF_wild_card,2022.2.4,Linux x86_64,60.0024001,64842d97a58fd50e158fd482,64d2fd46c836a06233681665,64dc7cd470d1e514aee1fcf1,,,,,,,decisionTrl,resources/DY.BMP,resources/DB.BMP,Door1,0.291457653,0.005432367,1,0,0,1.7814,optionRight,30,14130,7,4,0,4,0,1,,,,,,,,,,,,,,,,,,,,,,,,,,,,,,,,,,,,,,,
,,,,,,,64842d97a58fd50e158fd482,2023-08-16_08h40.38.116,HF_wild_card,2022.2.4,Linux x86_64,60.0024001,64842d97a58fd50e158fd482,64d2fd46c836a06233681665,64dc7cd470d1e514aee1fcf1,,,,,,,decisionTrl,resources/DB.BMP,resources/DY.BMP,Door2,0.341338158,0.013450265,1,0,0,1.3647,optionRight,20,14150,7,5,0,5,0,1,,,,,,,,,,,,,,,,,,,,,,,,,,,,,,,,,,,,,,,
,,,,,,,64842d97a58fd50e158fd482,2023-08-16_08h40.38.116,HF_wild_card,2022.2.4,Linux x86_64,60.0024001,64842d97a58fd50e158fd482,64d2fd46c836a06233681665,64dc7cd470d1e514aee1fcf1,,,,,,,decisionTrl,resources/DG.BMP,resources/DP.BMP,Door4,-0.197224617,0.006365816,1,0,0,2.0159,optionLeft,80,14230,7,6,0,6,0,1,,,,,,,,,,,,,,,,,,,,,,,,,,,,,,,,,,,,,,,
,,,,,,,64842d97a58fd50e158fd482,2023-08-16_08h40.38.116,HF_wild_card,2022.2.4,Linux x86_64,60.0024001,64842d97a58fd50e158fd482,64d2fd46c836a06233681665,64dc7cd470d1e514aee1fcf1,,,,,,,decisionTrl,resources/DG.BMP,resources/DP.BMP,Door4,-0.225815813,0.0060335,1,0,0,1.0319,optionLeft,80,14310,7,7,0,7,0,1,,,,,,,,,,,,,,,,,,,,,,,,,,,,,,,,,,,,,,,
,,,,,,,64842d97a58fd50e158fd482,2023-08-16_08h40.38.116,HF_wild_card,2022.2.4,Linux x86_64,60.0024001,64842d97a58fd50e158fd482,64d2fd46c836a06233681665,64dc7cd470d1e514aee1fcf1,,,,,,,ctch,resources/DY.BMP,resources/DP.BMP,Door3,0.334470987,-0.015156388,1,0,0,0.7645,optionRight,70,14380,7,8,0,8,0,1,,,,,,,,,,,,,,,,,,,,,,,,,,,,,,,,,,,,,,,
,,,,,,,64842d97a58fd50e158fd482,2023-08-16_08h40.38.116,HF_wild_card,2022.2.4,Linux x86_64,60.0024001,64842d97a58fd50e158fd482,64d2fd46c836a06233681665,64dc7cd470d1e514aee1fcf1,,,,,,,decisionTrl,resources/DG.BMP,resources/DP.BMP,Door4,-0.179892143,-0.00519383,1,0,0,1.1496,optionLeft,60,14440,7,9,0,9,0,1,,,,,,,,,,,,,,,,,,,,,,,,,,,,,,,,,,,,,,,
,,,,,,,64842d97a58fd50e158fd482,2023-08-16_08h40.38.116,HF_wild_card,2022.2.4,Linux x86_64,60.0024001,64842d97a58fd50e158fd482,64d2fd46c836a06233681665,64dc7cd470d1e514aee1fcf1,,,,,,,decisionTrl,resources/DP.BMP,resources/DG.BMP,Door4,0.207678,0.01535213,1,0,0,1.5812,optionRight,80,14520,7,10,0,10,0,1,,,,,,,,,,,,,,,,,,,,,,,,,,,,,,,,,,,,,,,
,,,,,,,64842d97a58fd50e158fd482,2023-08-16_08h40.38.116,HF_wild_card,2022.2.4,Linux x86_64,60.0024001,64842d97a58fd50e158fd482,64d2fd46c836a06233681665,64dc7cd470d1e514aee1fcf1,,,,,,,ctch,resources/DY.BMP,resources/DP.BMP,Door3,0.323455969,0.008430044,1,0,0,0.8983,optionRight,70,14590,7,11,0,11,0,1,,,,,,,,,,,,,,,,,,,,,,,,,,,,,,,,,,,,,,,
,,,,,,,64842d97a58fd50e158fd482,2023-08-16_08h40.38.116,HF_wild_card,2022.2.4,Linux x86_64,60.0024001,64842d97a58fd50e158fd482,64d2fd46c836a06233681665,64dc7cd470d1e514aee1fcf1,,,,,,,decisionTrl,resources/DP.BMP,resources/DG.BMP,Door4,0.265848319,0.023204207,1,0,0,1.5318,optionRight,60,14650,7,12,0,12,0,1,,,,,,,,,,,,,,,,,,,,,,,,,,,,,,,,,,,,,,,
,,,,,,,64842d97a58fd50e158fd482,2023-08-16_08h40.38.116,HF_wild_card,2022.2.4,Linux x86_64,60.0024001,64842d97a58fd50e158fd482,64d2fd46c836a06233681665,64dc7cd470d1e514aee1fcf1,,,,,,,decisionTrl,resources/DP.BMP,resources/DG.BMP,Door4,0.292580843,0.015475909,1,0,0,1.1322,optionRight,80,14730,7,13,0,13,0,1,,,,,,,,,,,,,,,,,,,,,,,,,,,,,,,,,,,,,,,
,,,,,,,64842d97a58fd50e158fd482,2023-08-16_08h40.38.116,HF_wild_card,2022.2.4,Linux x86_64,60.0024001,64842d97a58fd50e158fd482,64d2fd46c836a06233681665,64dc7cd470d1e514aee1fcf1,,,,,,,decisionTrl,resources/DB.BMP,resources/DY.BMP,Door1,-0.228218357,-0.001274467,1,0,0,1.5477,optionLeft,30,14760,7,14,0,14,0,1,,,,,,,,,,,,,,,,,,,,,,,,,,,,,,,,,,,,,,,
,,,,,,,64842d97a58fd50e158fd482,2023-08-16_08h40.38.116,HF_wild_card,2022.2.4,Linux x86_64,60.0024001,64842d97a58fd50e158fd482,64d2fd46c836a06233681665,64dc7cd470d1e514aee1fcf1,,,,,,,decisionTrl,resources/DP.BMP,resources/DG.BMP,Door4,0.274820964,0.015747547,1,0,0,1.7974,optionRight,60,14820,7,15,0,15,0,1,,,,,,,,,,,,,,,,,,,,,,,,,,,,,,,,,,,,,,,
