Condition,Low fixed image (Door1),Low risky image (Door2),High fixed image (Door3),High risky image (Door4),Extreme Wild Card,NonExtreme Wild Card,,date,expName,psychopyVersion,OS,frameRate,PROLIFIC_PID,STUDY_ID,SESSION_ID,mouse_2.x,mouse_2.y,mouse_2.leftButton,mouse_2.midButton,mouse_2.rightButton,mouse_2.clicked_name,Trial Type,Left Option Image,Right Option Image,Chosen Door,mouse.x,mouse.y,mouse.leftButton,mouse.midButton,mouse.rightButton,mouse.time,mouse.clicked_name,Feedback,Cumulative Reward,Block,trial.thisRepN,trial.thisTrialN,trial.thisN,trial.thisIndex,trial.ran,blocks.thisRepN,blocks.thisTrialN,blocks.thisN,blocks.thisIndex,blocks.ran,Money conversion,First Outcome Reported,Shown Door (First Outcome),Displayed Image (First Outcome),outcomes.thisRepN,outcomes.thisTrialN,outcomes.thisN,outcomes.thisIndex,outcomes.ran,judgments.thisRepN,judgments.thisTrialN,judgments.thisN,judgments.thisIndex,judgments.ran,freqMouse.x,freqMouse.y,freqMouse.leftButton,freqMouse.midButton,freqMouse.rightButton,freqMouse.clicked_name,FQJ for first outcome,FQJ for second outcome,Shown Door,Displayed Image,trials.thisRepN,trials.thisTrialN,trials.thisN,trials.thisIndex,trials.ran,judgBlock.thisRepN,judgBlock.thisTrialN,judgBlock.thisN,judgBlock.thisIndex,judgBlock.ran
0,resources/DP.BMP,resources/DY.BMP,resources/DR.BMP,resources/DB.BMP,resources/DBN.BMP,resources/DG.BMP,,2023-08-16_08h38.57.776,HF_wild_card,2022.2.4,Win32,60.29181237,5db48848cbe43e000c3c6c2d,64d2fd46c836a06233681665,64dc7cfab4bedd2148c86ce0,,,,,,,,,,,,,,,,,,,,,,,,,,,,,,,,,,,,,,,,,,,,,,,,,,,,,,,,,,,,,,,,
,,,,,,,,2023-08-16_08h38.57.776,HF_wild_card,2022.2.4,Win32,60.29181237,5db48848cbe43e000c3c6c2d,64d2fd46c836a06233681665,64dc7cfab4bedd2148c86ce0,0.016666667,-0.415740797,1,0,0,agree,,,,,,,,,,,,,,,,,,,,,,,,,,,,,,,,,,,,,,,,,,,,,,,,,,,,,,,,,,
,,,,,,,,2023-08-16_08h38.57.776,HF_wild_card,2022.2.4,Win32,60.29181237,5db48848cbe43e000c3c6c2d,64d2fd46c836a06233681665,64dc7cfab4bedd2148c86ce0,,,,,,,,,,,,,,,,,,,,,,,,,,,,,,,,,,,,,,,,,,,,,,,,,,,,,,,,,,,,,,,,
,,,,,,,,2023-08-16_08h38.57.776,HF_wild_card,2022.2.4,Win32,60.29181237,5db48848cbe43e000c3c6c2d,64d2fd46c836a06233681665,64dc7cfab4bedd2148c86ce0,,,,,,,decisionTrl,resources/DR.BMP,resources/DBN.BMP,Door3,-0.323148134,-0.105555556,1,0,0,2.8637,optionLeft,70,70,1,0,0,0,0,1,,,,,,,,,,,,,,,,,,,,,,,,,,,,,,,,,,,,,,,
,,,,,,,,2023-08-16_08h38.57.776,HF_wild_card,2022.2.4,Win32,60.29181237,5db48848cbe43e000c3c6c2d,64d2fd46c836a06233681665,64dc7cfab4bedd2148c86ce0,,,,,,,sngl,resources/DR.BMP,resources/Empty.png,Door3,-0.265740712,-0.077777778,1,0,0,2.033,optionLeft,70,140,1,1,0,1,0,1,,,,,,,,,,,,,,,,,,,,,,,,,,,,,,,,,,,,,,,
,,,,,,,,2023-08-16_08h38.57.776,HF_wild_card,2022.2.4,Win32,60.29181237,5db48848cbe43e000c3c6c2d,64d2fd46c836a06233681665,64dc7cfab4bedd2148c86ce0,,,,,,,sngl,resources/Empty.png,resources/DY.BMP,Door2,0.350925954,-0.095370399,1,0,0,1.7378,optionRight,20,160,1,2,0,2,0,1,,,,,,,,,,,,,,,,,,,,,,,,,,,,,,,,,,,,,,,
,,,,,,,,2023-08-16_08h38.57.776,HF_wild_card,2022.2.4,Win32,60.29181237,5db48848cbe43e000c3c6c2d,64d2fd46c836a06233681665,64dc7cfab4bedd2148c86ce0,,,,,,,decisionTrl,resources/DY.BMP,resources/DP.BMP,Door2,-0.311111111,-0.04629631,1,0,0,1.5355,optionLeft,20,180,1,3,0,3,0,1,,,,,,,,,,,,,,,,,,,,,,,,,,,,,,,,,,,,,,,
,,,,,,,,2023-08-16_08h38.57.776,HF_wild_card,2022.2.4,Win32,60.29181237,5db48848cbe43e000c3c6c2d,64d2fd46c836a06233681665,64dc7cfab4bedd2148c86ce0,,,,,,,decisionTrl,resources/DBN.BMP,resources/DY.BMP,WildCard_Ex,-0.3,0.010185157,1,0,0,1.4614,optionLeft,95,275,1,4,0,4,0,1,,,,,,,,,,,,,,,,,,,,,,,,,,,,,,,,,,,,,,,
,,,,,,,,2023-08-16_08h38.57.776,HF_wild_card,2022.2.4,Win32,60.29181237,5db48848cbe43e000c3c6c2d,64d2fd46c836a06233681665,64dc7cfab4bedd2148c86ce0,,,,,,,sngl,resources/Empty.png,resources/DR.BMP,Door3,0.291666667,-0.012037065,1,0,0,1.1439,optionRight,70,345,1,5,0,5,0,1,,,,,,,,,,,,,,,,,,,,,,,,,,,,,,,,,,,,,,,
,,,,,,,,2023-08-16_08h38.57.776,HF_wild_card,2022.2.4,Win32,60.29181237,5db48848cbe43e000c3c6c2d,64d2fd46c836a06233681665,64dc7cfab4bedd2148c86ce0,,,,,,,ctch,resources/DY.BMP,resources/DR.BMP,Door3,0.308333333,-0.003703732,1,0,0,1.7724,optionRight,70,415,1,6,0,6,0,1,,,,,,,,,,,,,,,,,,,,,,,,,,,,,,,,,,,,,,,
,,,,,,,,2023-08-16_08h38.57.776,HF_wild_card,2022.2.4,Win32,60.29181237,5db48848cbe43e000c3c6c2d,64d2fd46c836a06233681665,64dc7cfab4bedd2148c86ce0,,,,,,,sngl,resources/Empty.png,resources/DB.BMP,Door4,0.261111111,0,1,0,0,1.2275,optionRight,60,475,1,7,0,7,0,1,,,,,,,,,,,,,,,,,,,,,,,,,,,,,,,,,,,,,,,
,,,,,,,,2023-08-16_08h38.57.776,HF_wild_card,2022.2.4,Win32,60.29181237,5db48848cbe43e000c3c6c2d,64d2fd46c836a06233681665,64dc7cfab4bedd2148c86ce0,,,,,,,decisionTrl,resources/DB.BMP,resources/DR.BMP,Door4,-0.261111111,-0.019444444,1,0,0,1.3071,optionLeft,60,535,1,8,0,8,0,1,,,,,,,,,,,,,,,,,,,,,,,,,,,,,,,,,,,,,,,
,,,,,,,,2023-08-16_08h38.57.776,HF_wild_card,2022.2.4,Win32,60.29181237,5db48848cbe43e000c3c6c2d,64d2fd46c836a06233681665,64dc7cfab4bedd2148c86ce0,,,,,,,decisionTrl,resources/DR.BMP,resources/DB.BMP,Door4,0.314814843,0.001851824,1,0,0,1.057,optionRight,60,595,1,9,0,9,0,1,,,,,,,,,,,,,,,,,,,,,,,,,,,,,,,,,,,,,,,
,,,,,,,,2023-08-16_08h38.57.776,HF_wild_card,2022.2.4,Win32,60.29181237,5db48848cbe43e000c3c6c2d,64d2fd46c836a06233681665,64dc7cfab4bedd2148c86ce0,,,,,,,decisionTrl,resources/DY.BMP,resources/DP.BMP,Door2,-0.271296268,-0.018518533,1,0,0,1.3068,optionLeft,40,635,1,10,0,10,0,1,,,,,,,,,,,,,,,,,,,,,,,,,,,,,,,,,,,,,,,
,,,,,,,,2023-08-16_08h38.57.776,HF_wild_card,2022.2.4,Win32,60.29181237,5db48848cbe43e000c3c6c2d,64d2fd46c836a06233681665,64dc7cfab4bedd2148c86ce0,,,,,,,sngl,resources/DBN.BMP,resources/Empty.png,WildCard_Ex,-0.209259245,-0.025925954,1,0,0,1.279,optionLeft,5,640,1,11,0,11,0,1,,,,,,,,,,,,,,,,,,,,,,,,,,,,,,,,,,,,,,,
,,,,,,,,2023-08-16_08h38.57.776,HF_wild_card,2022.2.4,Win32,60.29181237,5db48848cbe43e000c3c6c2d,64d2fd46c836a06233681665,64dc7cfab4bedd2148c86ce0,,,,,,,decisionTrl,resources/DY.BMP,resources/DP.BMP,Door1,0.35648151,-0.015740755,1,0,0,1.3462,optionRight,30,670,1,12,0,12,0,1,,,,,,,,,,,,,,,,,,,,,,,,,,,,,,,,,,,,,,,
,,,,,,,,2023-08-16_08h38.57.776,HF_wild_card,2022.2.4,Win32,60.29181237,5db48848cbe43e000c3c6c2d,64d2fd46c836a06233681665,64dc7cfab4bedd2148c86ce0,,,,,,,decisionTrl,resources/DR.BMP,resources/DB.BMP,Door3,-0.164814758,-0.00648151,1,0,0,1.5349,optionLeft,70,740,1,13,0,13,0,1,,,,,,,,,,,,,,,,,,,,,,,,,,,,,,,,,,,,,,,
,,,,,,,,2023-08-16_08h38.57.776,HF_wild_card,2022.2.4,Win32,60.29181237,5db48848cbe43e000c3c6c2d,64d2fd46c836a06233681665,64dc7cfab4bedd2148c86ce0,,,,,,,sngl,resources/DP.BMP,resources/Empty.png,Door1,-0.234259245,-0.03148151,1,0,0,1.2762,optionLeft,30,770,1,14,0,14,0,1,,,,,,,,,,,,,,,,,,,,,,,,,,,,,,,,,,,,,,,
,,,,,,,,2023-08-16_08h38.57.776,HF_wild_card,2022.2.4,Win32,60.29181237,5db48848cbe43e000c3c6c2d,64d2fd46c836a06233681665,64dc7cfab4bedd2148c86ce0,,,,,,,decisionTrl,resources/DB.BMP,resources/DR.BMP,Door3,0.314814843,-0.008333333,1,0,0,1.024,optionRight,70,840,1,15,0,15,0,1,,,,,,,,,,,,,,,,,,,,,,,,,,,,,,,,,,,,,,,
,,,,,,,,2023-08-16_08h38.57.776,HF_wild_card,2022.2.4,Win32,60.29181237,5db48848cbe43e000c3c6c2d,64d2fd46c836a06233681665,64dc7cfab4bedd2148c86ce0,,,,,,,sngl,resources/Empty.png,resources/DBN.BMP,WildCard_Ex,0.303703732,0.004629601,1,0,0,0.9792,optionRight,5,845,1,16,0,16,0,1,,,,,,,,,,,,,,,,,,,,,,,,,,,,,,,,,,,,,,,
,,,,,,,,2023-08-16_08h38.57.776,HF_wild_card,2022.2.4,Win32,60.29181237,5db48848cbe43e000c3c6c2d,64d2fd46c836a06233681665,64dc7cfab4bedd2148c86ce0,,,,,,,decisionTrl,resources/DP.BMP,resources/DY.BMP,Door1,-0.26851849,-0.029629644,1,0,0,1.674,optionLeft,30,875,1,17,0,17,0,1,,,,,,,,,,,,,,,,,,,,,,,,,,,,,,,,,,,,,,,
,,,,,,,,2023-08-16_08h38.57.776,HF_wild_card,2022.2.4,Win32,60.29181237,5db48848cbe43e000c3c6c2d,64d2fd46c836a06233681665,64dc7cfab4bedd2148c86ce0,,,,,,,decisionTrl,resources/DB.BMP,resources/DR.BMP,Door3,0.329629686,0.037962935,1,0,0,1.3088,optionRight,70,945,1,18,0,18,0,1,,,,,,,,,,,,,,,,,,,,,,,,,,,,,,,,,,,,,,,
,,,,,,,,2023-08-16_08h38.57.776,HF_wild_card,2022.2.4,Win32,60.29181237,5db48848cbe43e000c3c6c2d,64d2fd46c836a06233681665,64dc7cfab4bedd2148c86ce0,,,,,,,decisionTrl,resources/DY.BMP,resources/DP.BMP,Door1,0.299074131,0.040740712,1,0,0,2.0073,optionRight,30,975,1,19,0,19,0,1,,,,,,,,,,,,,,,,,,,,,,,,,,,,,,,,,,,,,,,
,,,,,,,,2023-08-16_08h38.57.776,HF_wild_card,2022.2.4,Win32,60.29181237,5db48848cbe43e000c3c6c2d,64d2fd46c836a06233681665,64dc7cfab4bedd2148c86ce0,,,,,,,decisionTrl,resources/DR.BMP,resources/DB.BMP,Door3,-0.291666667,-0.02129631,1,0,0,1.3586,optionLeft,70,1045,1,20,0,20,0,1,,,,,,,,,,,,,,,,,,,,,,,,,,,,,,,,,,,,,,,
,,,,,,,,2023-08-16_08h38.57.776,HF_wild_card,2022.2.4,Win32,60.29181237,5db48848cbe43e000c3c6c2d,64d2fd46c836a06233681665,64dc7cfab4bedd2148c86ce0,,,,,,,decisionTrl,resources/DP.BMP,resources/DBN.BMP,Door1,-0.256481467,-0.030555556,1,0,0,1.226,optionLeft,30,1075,1,21,0,21,0,1,,,,,,,,,,,,,,,,,,,,,,,,,,,,,,,,,,,,,,,
,,,,,,,,2023-08-16_08h38.57.776,HF_wild_card,2022.2.4,Win32,60.29181237,5db48848cbe43e000c3c6c2d,64d2fd46c836a06233681665,64dc7cfab4bedd2148c86ce0,,,,,,,ctch,resources/DY.BMP,resources/DR.BMP,Door3,0.265740797,0.014814801,1,0,0,1.6941,optionRight,70,1145,1,22,0,22,0,1,,,,,,,,,,,,,,,,,,,,,,,,,,,,,,,,,,,,,,,
,,,,,,,,2023-08-16_08h38.57.776,HF_wild_card,2022.2.4,Win32,60.29181237,5db48848cbe43e000c3c6c2d,64d2fd46c836a06233681665,64dc7cfab4bedd2148c86ce0,,,,,,,decisionTrl,resources/DBN.BMP,resources/DB.BMP,Door4,0.267592621,-0.009259288,1,0,0,1.5404,optionRight,60,1205,1,23,0,23,0,1,,,,,,,,,,,,,,,,,,,,,,,,,,,,,,,,,,,,,,,
,,,,,,,,2023-08-16_08h38.57.776,HF_wild_card,2022.2.4,Win32,60.29181237,5db48848cbe43e000c3c6c2d,64d2fd46c836a06233681665,64dc7cfab4bedd2148c86ce0,,,,,,,decisionTrl,resources/DBN.BMP,resources/DR.BMP,Door3,0.328703732,-0.003703732,1,0,0,1.4269,optionRight,70,1275,1,24,0,24,0,1,,,,,,,,,,,,,,,,,,,,,,,,,,,,,,,,,,,,,,,
,,,,,,,,2023-08-16_08h38.57.776,HF_wild_card,2022.2.4,Win32,60.29181237,5db48848cbe43e000c3c6c2d,64d2fd46c836a06233681665,64dc7cfab4bedd2148c86ce0,,,,,,,ctch,resources/DP.BMP,resources/DB.BMP,Door4,0.284259288,0.005555556,1,0,0,1.7436,optionRight,80,1355,1,25,0,25,0,1,,,,,,,,,,,,,,,,,,,,,,,,,,,,,,,,,,,,,,,
,,,,,,,,2023-08-16_08h38.57.776,HF_wild_card,2022.2.4,Win32,60.29181237,5db48848cbe43e000c3c6c2d,64d2fd46c836a06233681665,64dc7cfab4bedd2148c86ce0,,,,,,,ctch,resources/DB.BMP,resources/DP.BMP,Door4,-0.241666667,-0.012962977,1,0,0,1.2239,optionLeft,60,1415,1,26,0,26,0,1,,,,,,,,,,,,,,,,,,,,,,,,,,,,,,,,,,,,,,,
,,,,,,,,2023-08-16_08h38.57.776,HF_wild_card,2022.2.4,Win32,60.29181237,5db48848cbe43e000c3c6c2d,64d2fd46c836a06233681665,64dc7cfab4bedd2148c86ce0,,,,,,,ctch,resources/DP.BMP,resources/DB.BMP,Door4,0.33148151,-0.016666667,1,0,0,1.443,optionRight,60,1475,1,27,0,27,0,1,,,,,,,,,,,,,,,,,,,,,,,,,,,,,,,,,,,,,,,
,,,,,,,,2023-08-16_08h38.57.776,HF_wild_card,2022.2.4,Win32,60.29181237,5db48848cbe43e000c3c6c2d,64d2fd46c836a06233681665,64dc7cfab4bedd2148c86ce0,,,,,,,decisionTrl,resources/DP.BMP,resources/DY.BMP,Door1,-0.255555556,-0.024074088,1,0,0,1.3764,optionLeft,30,1505,1,28,0,28,0,1,,,,,,,,,,,,,,,,,,,,,,,,,,,,,,,,,,,,,,,
,,,,,,,,2023-08-16_08h38.57.776,HF_wild_card,2022.2.4,Win32,60.29181237,5db48848cbe43e000c3c6c2d,64d2fd46c836a06233681665,64dc7cfab4bedd2148c86ce0,,,,,,,decisionTrl,resources/DB.BMP,resources/DBN.BMP,Door4,-0.27870369,-0.037962977,1,0,0,1.3423,optionLeft,60,1565,1,29,0,29,0,1,,,,,,,,,,,,,,,,,,,,,,,,,,,,,,,,,,,,,,,
,,,,,,,,2023-08-16_08h38.57.776,HF_wild_card,2022.2.4,Win32,60.29181237,5db48848cbe43e000c3c6c2d,64d2fd46c836a06233681665,64dc7cfab4bedd2148c86ce0,,,,,,,ctch,resources/DB.BMP,resources/DP.BMP,Door4,-0.27870369,-0.029629644,1,0,0,2.319,optionLeft,60,1625,1,30,0,30,0,1,,,,,,,,,,,,,,,,,,,,,,,,,,,,,,,,,,,,,,,
,,,,,,,,2023-08-16_08h38.57.776,HF_wild_card,2022.2.4,Win32,60.29181237,5db48848cbe43e000c3c6c2d,64d2fd46c836a06233681665,64dc7cfab4bedd2148c86ce0,,,,,,,sngl,resources/Empty.png,resources/DP.BMP,Door1,0.312963019,-0.002777778,1,0,0,0.9278,optionRight,30,1655,1,31,0,31,0,1,,,,,,,,,,,,,,,,,,,,,,,,,,,,,,,,,,,,,,,
,,,,,,,,2023-08-16_08h38.57.776,HF_wild_card,2022.2.4,Win32,60.29181237,5db48848cbe43e000c3c6c2d,64d2fd46c836a06233681665,64dc7cfab4bedd2148c86ce0,,,,,,,sngl,resources/DBN.BMP,resources/Empty.png,WildCard_Ex,-0.410185157,-0.091666667,1,0,0,1.1068,optionLeft,95,1750,1,32,0,32,0,1,,,,,,,,,,,,,,,,,,,,,,,,,,,,,,,,,,,,,,,
,,,,,,,,2023-08-16_08h38.57.776,HF_wild_card,2022.2.4,Win32,60.29181237,5db48848cbe43e000c3c6c2d,64d2fd46c836a06233681665,64dc7cfab4bedd2148c86ce0,,,,,,,sngl,resources/DB.BMP,resources/Empty.png,Door4,-0.325925912,-0.045370399,1,0,0,1.0084,optionLeft,80,1830,1,33,0,33,0,1,,,,,,,,,,,,,,,,,,,,,,,,,,,,,,,,,,,,,,,
,,,,,,,,2023-08-16_08h38.57.776,HF_wild_card,2022.2.4,Win32,60.29181237,5db48848cbe43e000c3c6c2d,64d2fd46c836a06233681665,64dc7cfab4bedd2148c86ce0,,,,,,,decisionTrl,resources/DR.BMP,resources/DB.BMP,Door3,-0.314814801,-0.043518533,1,0,0,2.0521,optionLeft,70,1900,1,34,0,34,0,1,,,,,,,,,,,,,,,,,,,,,,,,,,,,,,,,,,,,,,,
,,,,,,,,2023-08-16_08h38.57.776,HF_wild_card,2022.2.4,Win32,60.29181237,5db48848cbe43e000c3c6c2d,64d2fd46c836a06233681665,64dc7cfab4bedd2148c86ce0,,,,,,,decisionTrl,resources/DB.BMP,resources/DR.BMP,Door3,0.445370399,0.020370356,1,0,0,1.0999,optionRight,70,1970,1,35,0,35,0,1,,,,,,,,,,,,,,,,,,,,,,,,,,,,,,,,,,,,,,,
,,,,,,,,2023-08-16_08h38.57.776,HF_wild_card,2022.2.4,Win32,60.29181237,5db48848cbe43e000c3c6c2d,64d2fd46c836a06233681665,64dc7cfab4bedd2148c86ce0,,,,,,,ctch,resources/DR.BMP,resources/DY.BMP,Door3,-0.262962935,-0.018518533,1,0,0,1.5719,optionLeft,70,2040,1,36,0,36,0,1,,,,,,,,,,,,,,,,,,,,,,,,,,,,,,,,,,,,,,,
,,,,,,,,2023-08-16_08h38.57.776,HF_wild_card,2022.2.4,Win32,60.29181237,5db48848cbe43e000c3c6c2d,64d2fd46c836a06233681665,64dc7cfab4bedd2148c86ce0,,,,,,,ctch,resources/DR.BMP,resources/DY.BMP,Door2,0.292592621,0.01851849,1,0,0,1.5915,optionRight,40,2080,1,37,0,37,0,1,,,,,,,,,,,,,,,,,,,,,,,,,,,,,,,,,,,,,,,
,,,,,,,,2023-08-16_08h38.57.776,HF_wild_card,2022.2.4,Win32,60.29181237,5db48848cbe43e000c3c6c2d,64d2fd46c836a06233681665,64dc7cfab4bedd2148c86ce0,,,,,,,decisionTrl,resources/DY.BMP,resources/DBN.BMP,WildCard_Ex,0.404629686,0.061111111,1,0,0,1.0368,optionRight,95,2175,1,38,0,38,0,1,,,,,,,,,,,,,,,,,,,,,,,,,,,,,,,,,,,,,,,
,,,,,,,,2023-08-16_08h38.57.776,HF_wild_card,2022.2.4,Win32,60.29181237,5db48848cbe43e000c3c6c2d,64d2fd46c836a06233681665,64dc7cfab4bedd2148c86ce0,,,,,,,decisionTrl,resources/DP.BMP,resources/DY.BMP,Door1,-0.264814801,-0.013888889,1,0,0,1.574,optionLeft,30,2205,1,39,0,39,0,1,,,,,,,,,,,,,,,,,,,,,,,,,,,,,,,,,,,,,,,
,,,,,,,,2023-08-16_08h38.57.776,HF_wild_card,2022.2.4,Win32,60.29181237,5db48848cbe43e000c3c6c2d,64d2fd46c836a06233681665,64dc7cfab4bedd2148c86ce0,,,,,,,decisionTrl,resources/DBN.BMP,resources/DP.BMP,WildCard_Ex,-0.21851849,-0.018518533,1,0,0,1.0603,optionLeft,5,2210,1,40,0,40,0,1,,,,,,,,,,,,,,,,,,,,,,,,,,,,,,,,,,,,,,,
,,,,,,,,2023-08-16_08h38.57.776,HF_wild_card,2022.2.4,Win32,60.29181237,5db48848cbe43e000c3c6c2d,64d2fd46c836a06233681665,64dc7cfab4bedd2148c86ce0,,,,,,,sngl,resources/Empty.png,resources/DBN.BMP,WildCard_Ex,0.298148176,0.016666667,1,0,0,0.874,optionRight,95,2305,1,41,0,41,0,1,,,,,,,,,,,,,,,,,,,,,,,,,,,,,,,,,,,,,,,
,,,,,,,,2023-08-16_08h38.57.776,HF_wild_card,2022.2.4,Win32,60.29181237,5db48848cbe43e000c3c6c2d,64d2fd46c836a06233681665,64dc7cfab4bedd2148c86ce0,,,,,,,decisionTrl,resources/DP.BMP,resources/DY.BMP,Door1,-0.287037023,-0.035185199,1,0,0,1.6367,optionLeft,30,2335,1,42,0,42,0,1,,,,,,,,,,,,,,,,,,,,,,,,,,,,,,,,,,,,,,,
,,,,,,,,2023-08-16_08h38.57.776,HF_wild_card,2022.2.4,Win32,60.29181237,5db48848cbe43e000c3c6c2d,64d2fd46c836a06233681665,64dc7cfab4bedd2148c86ce0,,,,,,,sngl,resources/DY.BMP,resources/Empty.png,Door2,-0.234259245,-0.030555556,1,0,0,1.2856,optionLeft,40,2375,1,43,0,43,0,1,,,,,,,,,,,,,,,,,,,,,,,,,,,,,,,,,,,,,,,
,,,,,,,,2023-08-16_08h38.57.776,HF_wild_card,2022.2.4,Win32,60.29181237,5db48848cbe43e000c3c6c2d,64d2fd46c836a06233681665,64dc7cfab4bedd2148c86ce0,,,,,,,,,,,,,,,,,,,,,,,,,,0,0,0,0,1,,,,,,,,,,,,,,,,,,,,,,,,,,,,,,,,,,
,,,,,,,,2023-08-16_08h38.57.776,HF_wild_card,2022.2.4,Win32,60.29181237,5db48848cbe43e000c3c6c2d,64d2fd46c836a06233681665,64dc7cfab4bedd2148c86ce0,,,,,,,sngl,resources/Empty.png,resources/DP.BMP,Door1,0.315740797,-0.072222222,1,0,0,1.5851,optionRight,30,2405,2,0,0,0,0,1,,,,,,,,,,,,,,,,,,,,,,,,,,,,,,,,,,,,,,,
,,,,,,,,2023-08-16_08h38.57.776,HF_wild_card,2022.2.4,Win32,60.29181237,5db48848cbe43e000c3c6c2d,64d2fd46c836a06233681665,64dc7cfab4bedd2148c86ce0,,,,,,,sngl,resources/DR.BMP,resources/Empty.png,Door3,-0.25370369,-0.043518533,1,0,0,0.9097,optionLeft,70,2475,2,1,0,1,0,1,,,,,,,,,,,,,,,,,,,,,,,,,,,,,,,,,,,,,,,
,,,,,,,,2023-08-16_08h38.57.776,HF_wild_card,2022.2.4,Win32,60.29181237,5db48848cbe43e000c3c6c2d,64d2fd46c836a06233681665,64dc7cfab4bedd2148c86ce0,,,,,,,sngl,resources/DY.BMP,resources/Empty.png,Door2,-0.245370356,-0.040740755,1,0,0,0.9813,optionLeft,20,2495,2,2,0,2,0,1,,,,,,,,,,,,,,,,,,,,,,,,,,,,,,,,,,,,,,,
,,,,,,,,2023-08-16_08h38.57.776,HF_wild_card,2022.2.4,Win32,60.29181237,5db48848cbe43e000c3c6c2d,64d2fd46c836a06233681665,64dc7cfab4bedd2148c86ce0,,,,,,,decisionTrl,resources/DP.BMP,resources/DY.BMP,Door1,-0.236111111,-0.029629644,1,0,0,1.3173,optionLeft,30,2525,2,3,0,3,0,1,,,,,,,,,,,,,,,,,,,,,,,,,,,,,,,,,,,,,,,
,,,,,,,,2023-08-16_08h38.57.776,HF_wild_card,2022.2.4,Win32,60.29181237,5db48848cbe43e000c3c6c2d,64d2fd46c836a06233681665,64dc7cfab4bedd2148c86ce0,,,,,,,ctch,resources/DR.BMP,resources/DY.BMP,Door3,-0.266666667,-0.037037065,1,0,0,1.22,optionLeft,70,2595,2,4,0,4,0,1,,,,,,,,,,,,,,,,,,,,,,,,,,,,,,,,,,,,,,,
,,,,,,,,2023-08-16_08h38.57.776,HF_wild_card,2022.2.4,Win32,60.29181237,5db48848cbe43e000c3c6c2d,64d2fd46c836a06233681665,64dc7cfab4bedd2148c86ce0,,,,,,,ctch,resources/DB.BMP,resources/DP.BMP,Door4,-0.304629601,-0.005555556,1,0,0,1.259,optionLeft,60,2655,2,5,0,5,0,1,,,,,,,,,,,,,,,,,,,,,,,,,,,,,,,,,,,,,,,
,,,,,,,,2023-08-16_08h38.57.776,HF_wild_card,2022.2.4,Win32,60.29181237,5db48848cbe43e000c3c6c2d,64d2fd46c836a06233681665,64dc7cfab4bedd2148c86ce0,,,,,,,decisionTrl,resources/DR.BMP,resources/DBN.BMP,WildCard_Ex,0.337037065,0.046296268,1,0,0,1.0455,optionRight,95,2750,2,6,0,6,0,1,,,,,,,,,,,,,,,,,,,,,,,,,,,,,,,,,,,,,,,
,,,,,,,,2023-08-16_08h38.57.776,HF_wild_card,2022.2.4,Win32,60.29181237,5db48848cbe43e000c3c6c2d,64d2fd46c836a06233681665,64dc7cfab4bedd2148c86ce0,,,,,,,decisionTrl,resources/DP.BMP,resources/DY.BMP,Door2,0.358333333,0.013888889,1,0,0,1.2384,optionRight,20,2770,2,7,0,7,0,1,,,,,,,,,,,,,,,,,,,,,,,,,,,,,,,,,,,,,,,
,,,,,,,,2023-08-16_08h38.57.776,HF_wild_card,2022.2.4,Win32,60.29181237,5db48848cbe43e000c3c6c2d,64d2fd46c836a06233681665,64dc7cfab4bedd2148c86ce0,,,,,,,decisionTrl,resources/DR.BMP,resources/DB.BMP,Door4,0.277777778,0.016666667,1,0,0,1.5204,optionRight,60,2830,2,8,0,8,0,1,,,,,,,,,,,,,,,,,,,,,,,,,,,,,,,,,,,,,,,
,,,,,,,,2023-08-16_08h38.57.776,HF_wild_card,2022.2.4,Win32,60.29181237,5db48848cbe43e000c3c6c2d,64d2fd46c836a06233681665,64dc7cfab4bedd2148c86ce0,,,,,,,decisionTrl,resources/DBN.BMP,resources/DB.BMP,WildCard_Ex,-0.316666667,-0.012037065,1,0,0,1.0373,optionLeft,5,2835,2,9,0,9,0,1,,,,,,,,,,,,,,,,,,,,,,,,,,,,,,,,,,,,,,,
,,,,,,,,2023-08-16_08h38.57.776,HF_wild_card,2022.2.4,Win32,60.29181237,5db48848cbe43e000c3c6c2d,64d2fd46c836a06233681665,64dc7cfab4bedd2148c86ce0,,,,,,,sngl,resources/Empty.png,resources/DY.BMP,Door2,0.3,-0.008333333,1,0,0,0.8551,optionRight,40,2875,2,10,0,10,0,1,,,,,,,,,,,,,,,,,,,,,,,,,,,,,,,,,,,,,,,
,,,,,,,,2023-08-16_08h38.57.776,HF_wild_card,2022.2.4,Win32,60.29181237,5db48848cbe43e000c3c6c2d,64d2fd46c836a06233681665,64dc7cfab4bedd2148c86ce0,,,,,,,decisionTrl,resources/DBN.BMP,resources/DY.BMP,Door2,0.261111111,-0.011111111,1,0,0,1.2697,optionRight,20,2895,2,11,0,11,0,1,,,,,,,,,,,,,,,,,,,,,,,,,,,,,,,,,,,,,,,
,,,,,,,,2023-08-16_08h38.57.776,HF_wild_card,2022.2.4,Win32,60.29181237,5db48848cbe43e000c3c6c2d,64d2fd46c836a06233681665,64dc7cfab4bedd2148c86ce0,,,,,,,decisionTrl,resources/DP.BMP,resources/DBN.BMP,WildCard_Ex,0.325,0.05,1,0,0,0.9387,optionRight,95,2990,2,12,0,12,0,1,,,,,,,,,,,,,,,,,,,,,,,,,,,,,,,,,,,,,,,
,,,,,,,,2023-08-16_08h38.57.776,HF_wild_card,2022.2.4,Win32,60.29181237,5db48848cbe43e000c3c6c2d,64d2fd46c836a06233681665,64dc7cfab4bedd2148c86ce0,,,,,,,decisionTrl,resources/DR.BMP,resources/DB.BMP,Door3,-0.289814801,-0.025,1,0,0,1.1195,optionLeft,70,3060,2,13,0,13,0,1,,,,,,,,,,,,,,,,,,,,,,,,,,,,,,,,,,,,,,,
,,,,,,,,2023-08-16_08h38.57.776,HF_wild_card,2022.2.4,Win32,60.29181237,5db48848cbe43e000c3c6c2d,64d2fd46c836a06233681665,64dc7cfab4bedd2148c86ce0,,,,,,,sngl,resources/Empty.png,resources/DBN.BMP,WildCard_Ex,0.290740797,0.021296268,1,0,0,0.8421,optionRight,95,3155,2,14,0,14,0,1,,,,,,,,,,,,,,,,,,,,,,,,,,,,,,,,,,,,,,,
,,,,,,,,2023-08-16_08h38.57.776,HF_wild_card,2022.2.4,Win32,60.29181237,5db48848cbe43e000c3c6c2d,64d2fd46c836a06233681665,64dc7cfab4bedd2148c86ce0,,,,,,,decisionTrl,resources/DY.BMP,resources/DP.BMP,Door1,0.340740797,0.061111111,1,0,0,1.829,optionRight,30,3185,2,15,0,15,0,1,,,,,,,,,,,,,,,,,,,,,,,,,,,,,,,,,,,,,,,
,,,,,,,,2023-08-16_08h38.57.776,HF_wild_card,2022.2.4,Win32,60.29181237,5db48848cbe43e000c3c6c2d,64d2fd46c836a06233681665,64dc7cfab4bedd2148c86ce0,,,,,,,sngl,resources/DP.BMP,resources/Empty.png,Door1,-0.263888889,-0.075,1,0,0,1.2569,optionLeft,30,3215,2,16,0,16,0,1,,,,,,,,,,,,,,,,,,,,,,,,,,,,,,,,,,,,,,,
,,,,,,,,2023-08-16_08h38.57.776,HF_wild_card,2022.2.4,Win32,60.29181237,5db48848cbe43e000c3c6c2d,64d2fd46c836a06233681665,64dc7cfab4bedd2148c86ce0,,,,,,,decisionTrl,resources/DB.BMP,resources/DR.BMP,Door3,0.4,0.066666667,1,0,0,1.0269,optionRight,70,3285,2,17,0,17,0,1,,,,,,,,,,,,,,,,,,,,,,,,,,,,,,,,,,,,,,,
,,,,,,,,2023-08-16_08h38.57.776,HF_wild_card,2022.2.4,Win32,60.29181237,5db48848cbe43e000c3c6c2d,64d2fd46c836a06233681665,64dc7cfab4bedd2148c86ce0,,,,,,,decisionTrl,resources/DY.BMP,resources/DBN.BMP,WildCard_Ex,0.325925954,0.038888889,1,0,0,0.972,optionRight,5,3290,2,18,0,18,0,1,,,,,,,,,,,,,,,,,,,,,,,,,,,,,,,,,,,,,,,
,,,,,,,,2023-08-16_08h38.57.776,HF_wild_card,2022.2.4,Win32,60.29181237,5db48848cbe43e000c3c6c2d,64d2fd46c836a06233681665,64dc7cfab4bedd2148c86ce0,,,,,,,sngl,resources/DBN.BMP,resources/Empty.png,WildCard_Ex,-0.323148134,-0.037037065,1,0,0,0.8452,optionLeft,5,3295,2,19,0,19,0,1,,,,,,,,,,,,,,,,,,,,,,,,,,,,,,,,,,,,,,,
,,,,,,,,2023-08-16_08h38.57.776,HF_wild_card,2022.2.4,Win32,60.29181237,5db48848cbe43e000c3c6c2d,64d2fd46c836a06233681665,64dc7cfab4bedd2148c86ce0,,,,,,,ctch,resources/DR.BMP,resources/DY.BMP,Door3,-0.325925912,-0.068518533,1,0,0,1.1054,optionLeft,70,3365,2,20,0,20,0,1,,,,,,,,,,,,,,,,,,,,,,,,,,,,,,,,,,,,,,,
,,,,,,,,2023-08-16_08h38.57.776,HF_wild_card,2022.2.4,Win32,60.29181237,5db48848cbe43e000c3c6c2d,64d2fd46c836a06233681665,64dc7cfab4bedd2148c86ce0,,,,,,,decisionTrl,resources/DP.BMP,resources/DY.BMP,Door1,-0.265740712,-0.053703732,1,0,0,1.6918,optionLeft,30,3395,2,21,0,21,0,1,,,,,,,,,,,,,,,,,,,,,,,,,,,,,,,,,,,,,,,
,,,,,,,,2023-08-16_08h38.57.776,HF_wild_card,2022.2.4,Win32,60.29181237,5db48848cbe43e000c3c6c2d,64d2fd46c836a06233681665,64dc7cfab4bedd2148c86ce0,,,,,,,decisionTrl,resources/DB.BMP,resources/DBN.BMP,WildCard_Ex,0.170370399,0.021296268,1,0,0,1.1545,optionRight,95,3490,2,22,0,22,0,1,,,,,,,,,,,,,,,,,,,,,,,,,,,,,,,,,,,,,,,
,,,,,,,,2023-08-16_08h38.57.776,HF_wild_card,2022.2.4,Win32,60.29181237,5db48848cbe43e000c3c6c2d,64d2fd46c836a06233681665,64dc7cfab4bedd2148c86ce0,,,,,,,decisionTrl,resources/DB.BMP,resources/DR.BMP,Door3,0.247222222,0.002777778,1,0,0,1.2015,optionRight,70,3560,2,23,0,23,0,1,,,,,,,,,,,,,,,,,,,,,,,,,,,,,,,,,,,,,,,
,,,,,,,,2023-08-16_08h38.57.776,HF_wild_card,2022.2.4,Win32,60.29181237,5db48848cbe43e000c3c6c2d,64d2fd46c836a06233681665,64dc7cfab4bedd2148c86ce0,,,,,,,decisionTrl,resources/DB.BMP,resources/DR.BMP,Door3,0.275,0.037037023,1,0,0,0.9589,optionRight,70,3630,2,24,0,24,0,1,,,,,,,,,,,,,,,,,,,,,,,,,,,,,,,,,,,,,,,
,,,,,,,,2023-08-16_08h38.57.776,HF_wild_card,2022.2.4,Win32,60.29181237,5db48848cbe43e000c3c6c2d,64d2fd46c836a06233681665,64dc7cfab4bedd2148c86ce0,,,,,,,ctch,resources/DY.BMP,resources/DR.BMP,Door3,0.317592621,0.013888889,1,0,0,1.1035,optionRight,70,3700,2,25,0,25,0,1,,,,,,,,,,,,,,,,,,,,,,,,,,,,,,,,,,,,,,,
,,,,,,,,2023-08-16_08h38.57.776,HF_wild_card,2022.2.4,Win32,60.29181237,5db48848cbe43e000c3c6c2d,64d2fd46c836a06233681665,64dc7cfab4bedd2148c86ce0,,,,,,,sngl,resources/DB.BMP,resources/Empty.png,Door4,-0.317592578,-0.069444444,1,0,0,0.9045,optionLeft,60,3760,2,26,0,26,0,1,,,,,,,,,,,,,,,,,,,,,,,,,,,,,,,,,,,,,,,
,,,,,,,,2023-08-16_08h38.57.776,HF_wild_card,2022.2.4,Win32,60.29181237,5db48848cbe43e000c3c6c2d,64d2fd46c836a06233681665,64dc7cfab4bedd2148c86ce0,,,,,,,decisionTrl,resources/DR.BMP,resources/DB.BMP,Door3,-0.30370369,-0.036111111,1,0,0,2.0529,optionLeft,70,3830,2,27,0,27,0,1,,,,,,,,,,,,,,,,,,,,,,,,,,,,,,,,,,,,,,,
,,,,,,,,2023-08-16_08h38.57.776,HF_wild_card,2022.2.4,Win32,60.29181237,5db48848cbe43e000c3c6c2d,64d2fd46c836a06233681665,64dc7cfab4bedd2148c86ce0,,,,,,,ctch,resources/DP.BMP,resources/DB.BMP,Door1,-0.280555556,-0.025925954,1,0,0,2.3825,optionLeft,30,3860,2,28,0,28,0,1,,,,,,,,,,,,,,,,,,,,,,,,,,,,,,,,,,,,,,,
,,,,,,,,2023-08-16_08h38.57.776,HF_wild_card,2022.2.4,Win32,60.29181237,5db48848cbe43e000c3c6c2d,64d2fd46c836a06233681665,64dc7cfab4bedd2148c86ce0,,,,,,,decisionTrl,resources/DP.BMP,resources/DY.BMP,Door1,-0.310185157,-0.090740755,1,0,0,1.9836,optionLeft,30,3890,2,29,0,29,0,1,,,,,,,,,,,,,,,,,,,,,,,,,,,,,,,,,,,,,,,
,,,,,,,,2023-08-16_08h38.57.776,HF_wild_card,2022.2.4,Win32,60.29181237,5db48848cbe43e000c3c6c2d,64d2fd46c836a06233681665,64dc7cfab4bedd2148c86ce0,,,,,,,decisionTrl,resources/DR.BMP,resources/DB.BMP,Door3,-0.247222222,-0.047222222,1,0,0,1.4035,optionLeft,70,3960,2,30,0,30,0,1,,,,,,,,,,,,,,,,,,,,,,,,,,,,,,,,,,,,,,,
,,,,,,,,2023-08-16_08h38.57.776,HF_wild_card,2022.2.4,Win32,60.29181237,5db48848cbe43e000c3c6c2d,64d2fd46c836a06233681665,64dc7cfab4bedd2148c86ce0,,,,,,,ctch,resources/DY.BMP,resources/DR.BMP,Door3,0.329629686,-0.026851866,1,0,0,2.5864,optionRight,70,4030,2,31,0,31,0,1,,,,,,,,,,,,,,,,,,,,,,,,,,,,,,,,,,,,,,,
,,,,,,,,2023-08-16_08h38.57.776,HF_wild_card,2022.2.4,Win32,60.29181237,5db48848cbe43e000c3c6c2d,64d2fd46c836a06233681665,64dc7cfab4bedd2148c86ce0,,,,,,,sngl,resources/DBN.BMP,resources/Empty.png,WildCard_Ex,-0.294444444,-0.049074088,1,0,0,1.3203,optionLeft,95,4125,2,32,0,32,0,1,,,,,,,,,,,,,,,,,,,,,,,,,,,,,,,,,,,,,,,
,,,,,,,,2023-08-16_08h38.57.776,HF_wild_card,2022.2.4,Win32,60.29181237,5db48848cbe43e000c3c6c2d,64d2fd46c836a06233681665,64dc7cfab4bedd2148c86ce0,,,,,,,ctch,resources/DB.BMP,resources/DP.BMP,Door4,-0.292592578,-0.038888889,1,0,0,1.5342,optionLeft,60,4185,2,33,0,33,0,1,,,,,,,,,,,,,,,,,,,,,,,,,,,,,,,,,,,,,,,
,,,,,,,,2023-08-16_08h38.57.776,HF_wild_card,2022.2.4,Win32,60.29181237,5db48848cbe43e000c3c6c2d,64d2fd46c836a06233681665,64dc7cfab4bedd2148c86ce0,,,,,,,ctch,resources/DP.BMP,resources/DB.BMP,Door4,0.376851908,0.012037023,1,0,0,1.0025,optionRight,80,4265,2,34,0,34,0,1,,,,,,,,,,,,,,,,,,,,,,,,,,,,,,,,,,,,,,,
,,,,,,,,2023-08-16_08h38.57.776,HF_wild_card,2022.2.4,Win32,60.29181237,5db48848cbe43e000c3c6c2d,64d2fd46c836a06233681665,64dc7cfab4bedd2148c86ce0,,,,,,,decisionTrl,resources/DY.BMP,resources/DP.BMP,Door1,0.278703732,-0.03148151,1,0,0,1.7365,optionRight,30,4295,2,35,0,35,0,1,,,,,,,,,,,,,,,,,,,,,,,,,,,,,,,,,,,,,,,
,,,,,,,,2023-08-16_08h38.57.776,HF_wild_card,2022.2.4,Win32,60.29181237,5db48848cbe43e000c3c6c2d,64d2fd46c836a06233681665,64dc7cfab4bedd2148c86ce0,,,,,,,sngl,resources/Empty.png,resources/DBN.BMP,WildCard_Ex,0.258333333,0.014814801,1,0,0,0.8809,optionRight,5,4300,2,36,0,36,0,1,,,,,,,,,,,,,,,,,,,,,,,,,,,,,,,,,,,,,,,
,,,,,,,,2023-08-16_08h38.57.776,HF_wild_card,2022.2.4,Win32,60.29181237,5db48848cbe43e000c3c6c2d,64d2fd46c836a06233681665,64dc7cfab4bedd2148c86ce0,,,,,,,decisionTrl,resources/DB.BMP,resources/DR.BMP,Door3,0.325925954,0.012037023,1,0,0,0.9551,optionRight,70,4370,2,37,0,37,0,1,,,,,,,,,,,,,,,,,,,,,,,,,,,,,,,,,,,,,,,
,,,,,,,,2023-08-16_08h38.57.776,HF_wild_card,2022.2.4,Win32,60.29181237,5db48848cbe43e000c3c6c2d,64d2fd46c836a06233681665,64dc7cfab4bedd2148c86ce0,,,,,,,decisionTrl,resources/DY.BMP,resources/DP.BMP,Door2,-0.290740712,-0.063888889,1,0,0,2.8023,optionLeft,20,4390,2,38,0,38,0,1,,,,,,,,,,,,,,,,,,,,,,,,,,,,,,,,,,,,,,,
,,,,,,,,2023-08-16_08h38.57.776,HF_wild_card,2022.2.4,Win32,60.29181237,5db48848cbe43e000c3c6c2d,64d2fd46c836a06233681665,64dc7cfab4bedd2148c86ce0,,,,,,,sngl,resources/Empty.png,resources/DB.BMP,Door4,0.308333333,0.027777778,1,0,0,0.8498,optionRight,80,4470,2,39,0,39,0,1,,,,,,,,,,,,,,,,,,,,,,,,,,,,,,,,,,,,,,,
,,,,,,,,2023-08-16_08h38.57.776,HF_wild_card,2022.2.4,Win32,60.29181237,5db48848cbe43e000c3c6c2d,64d2fd46c836a06233681665,64dc7cfab4bedd2148c86ce0,,,,,,,decisionTrl,resources/DY.BMP,resources/DP.BMP,Door1,0.278703732,-0.00648151,1,0,0,1.7345,optionRight,30,4500,2,40,0,40,0,1,,,,,,,,,,,,,,,,,,,,,,,,,,,,,,,,,,,,,,,
,,,,,,,,2023-08-16_08h38.57.776,HF_wild_card,2022.2.4,Win32,60.29181237,5db48848cbe43e000c3c6c2d,64d2fd46c836a06233681665,64dc7cfab4bedd2148c86ce0,,,,,,,decisionTrl,resources/DBN.BMP,resources/DP.BMP,WildCard_Ex,-0.275925912,-0.027777778,1,0,0,1.0944,optionLeft,95,4595,2,41,0,41,0,1,,,,,,,,,,,,,,,,,,,,,,,,,,,,,,,,,,,,,,,
,,,,,,,,2023-08-16_08h38.57.776,HF_wild_card,2022.2.4,Win32,60.29181237,5db48848cbe43e000c3c6c2d,64d2fd46c836a06233681665,64dc7cfab4bedd2148c86ce0,,,,,,,decisionTrl,resources/DBN.BMP,resources/DR.BMP,Door3,0.275925954,0.020370356,1,0,0,1.9635,optionRight,70,4665,2,42,0,42,0,1,,,,,,,,,,,,,,,,,,,,,,,,,,,,,,,,,,,,,,,
,,,,,,,,2023-08-16_08h38.57.776,HF_wild_card,2022.2.4,Win32,60.29181237,5db48848cbe43e000c3c6c2d,64d2fd46c836a06233681665,64dc7cfab4bedd2148c86ce0,,,,,,,sngl,resources/Empty.png,resources/DR.BMP,Door3,0.252777778,-0.008333333,1,0,0,0.8688,optionRight,70,4735,2,43,0,43,0,1,,,,,,,,,,,,,,,,,,,,,,,,,,,,,,,,,,,,,,,
,,,,,,,,2023-08-16_08h38.57.776,HF_wild_card,2022.2.4,Win32,60.29181237,5db48848cbe43e000c3c6c2d,64d2fd46c836a06233681665,64dc7cfab4bedd2148c86ce0,,,,,,,,,,,,,,,,,,,,,,,,,,1,0,1,0,1,,,,,,,,,,,,,,,,,,,,,,,,,,,,,,,,,,
,,,,,,,,2023-08-16_08h38.57.776,HF_wild_card,2022.2.4,Win32,60.29181237,5db48848cbe43e000c3c6c2d,64d2fd46c836a06233681665,64dc7cfab4bedd2148c86ce0,,,,,,,decisionTrl,resources/DBN.BMP,resources/DP.BMP,WildCard_Ex,-0.390740712,-0.102777778,1,0,0,1.0149,optionLeft,95,4830,3,0,0,0,0,1,,,,,,,,,,,,,,,,,,,,,,,,,,,,,,,,,,,,,,,
,,,,,,,,2023-08-16_08h38.57.776,HF_wild_card,2022.2.4,Win32,60.29181237,5db48848cbe43e000c3c6c2d,64d2fd46c836a06233681665,64dc7cfab4bedd2148c86ce0,,,,,,,decisionTrl,resources/DB.BMP,resources/DR.BMP,Door3,0.307407464,-0.042592621,1,0,0,0.9916,optionRight,70,4900,3,1,0,1,0,1,,,,,,,,,,,,,,,,,,,,,,,,,,,,,,,,,,,,,,,
,,,,,,,,2023-08-16_08h38.57.776,HF_wild_card,2022.2.4,Win32,60.29181237,5db48848cbe43e000c3c6c2d,64d2fd46c836a06233681665,64dc7cfab4bedd2148c86ce0,,,,,,,decisionTrl,resources/DP.BMP,resources/DY.BMP,Door1,-0.321296268,-0.073148176,1,0,0,1.5251,optionLeft,30,4930,3,2,0,2,0,1,,,,,,,,,,,,,,,,,,,,,,,,,,,,,,,,,,,,,,,
,,,,,,,,2023-08-16_08h38.57.776,HF_wild_card,2022.2.4,Win32,60.29181237,5db48848cbe43e000c3c6c2d,64d2fd46c836a06233681665,64dc7cfab4bedd2148c86ce0,,,,,,,decisionTrl,resources/DR.BMP,resources/DB.BMP,Door3,-0.206481467,-0.04629631,1,0,0,1.2668,optionLeft,70,5000,3,3,0,3,0,1,,,,,,,,,,,,,,,,,,,,,,,,,,,,,,,,,,,,,,,
,,,,,,,,2023-08-16_08h38.57.776,HF_wild_card,2022.2.4,Win32,60.29181237,5db48848cbe43e000c3c6c2d,64d2fd46c836a06233681665,64dc7cfab4bedd2148c86ce0,,,,,,,decisionTrl,resources/DBN.BMP,resources/DR.BMP,WildCard_Ex,-0.223148134,-0.024074088,1,0,0,1.1244,optionLeft,5,5005,3,4,0,4,0,1,,,,,,,,,,,,,,,,,,,,,,,,,,,,,,,,,,,,,,,
,,,,,,,,2023-08-16_08h38.57.776,HF_wild_card,2022.2.4,Win32,60.29181237,5db48848cbe43e000c3c6c2d,64d2fd46c836a06233681665,64dc7cfab4bedd2148c86ce0,,,,,,,ctch,resources/DB.BMP,resources/DP.BMP,Door4,-0.25370369,-0.014814843,1,0,0,1.094,optionLeft,60,5065,3,5,0,5,0,1,,,,,,,,,,,,,,,,,,,,,,,,,,,,,,,,,,,,,,,
,,,,,,,,2023-08-16_08h38.57.776,HF_wild_card,2022.2.4,Win32,60.29181237,5db48848cbe43e000c3c6c2d,64d2fd46c836a06233681665,64dc7cfab4bedd2148c86ce0,,,,,,,decisionTrl,resources/DY.BMP,resources/DP.BMP,Door2,-0.290740712,-0.064814843,1,0,0,1.6415,optionLeft,40,5105,3,6,0,6,0,1,,,,,,,,,,,,,,,,,,,,,,,,,,,,,,,,,,,,,,,
,,,,,,,,2023-08-16_08h38.57.776,HF_wild_card,2022.2.4,Win32,60.29181237,5db48848cbe43e000c3c6c2d,64d2fd46c836a06233681665,64dc7cfab4bedd2148c86ce0,,,,,,,ctch,resources/DP.BMP,resources/DB.BMP,Door4,0.286111111,0.00370369,1,0,0,1.0858,optionRight,60,5165,3,7,0,7,0,1,,,,,,,,,,,,,,,,,,,,,,,,,,,,,,,,,,,,,,,
,,,,,,,,2023-08-16_08h38.57.776,HF_wild_card,2022.2.4,Win32,60.29181237,5db48848cbe43e000c3c6c2d,64d2fd46c836a06233681665,64dc7cfab4bedd2148c86ce0,,,,,,,decisionTrl,resources/DBN.BMP,resources/DB.BMP,WildCard_Ex,-0.332407379,-0.05648151,1,0,0,0.9745,optionLeft,95,5260,3,8,0,8,0,1,,,,,,,,,,,,,,,,,,,,,,,,,,,,,,,,,,,,,,,
,,,,,,,,2023-08-16_08h38.57.776,HF_wild_card,2022.2.4,Win32,60.29181237,5db48848cbe43e000c3c6c2d,64d2fd46c836a06233681665,64dc7cfab4bedd2148c86ce0,,,,,,,sngl,resources/Empty.png,resources/DBN.BMP,WildCard_Ex,0.312037065,0.017592578,1,0,0,0.808,optionRight,5,5265,3,9,0,9,0,1,,,,,,,,,,,,,,,,,,,,,,,,,,,,,,,,,,,,,,,
,,,,,,,,2023-08-16_08h38.57.776,HF_wild_card,2022.2.4,Win32,60.29181237,5db48848cbe43e000c3c6c2d,64d2fd46c836a06233681665,64dc7cfab4bedd2148c86ce0,,,,,,,decisionTrl,resources/DR.BMP,resources/DB.BMP,Door3,-0.236111111,-0.040740755,1,0,0,1.1416,optionLeft,70,5335,3,10,0,10,0,1,,,,,,,,,,,,,,,,,,,,,,,,,,,,,,,,,,,,,,,
,,,,,,,,2023-08-16_08h38.57.776,HF_wild_card,2022.2.4,Win32,60.29181237,5db48848cbe43e000c3c6c2d,64d2fd46c836a06233681665,64dc7cfab4bedd2148c86ce0,,,,,,,decisionTrl,resources/DR.BMP,resources/DB.BMP,Door3,-0.269444444,-0.041666667,1,0,0,0.9928,optionLeft,70,5405,3,11,0,11,0,1,,,,,,,,,,,,,,,,,,,,,,,,,,,,,,,,,,,,,,,
,,,,,,,,2023-08-16_08h38.57.776,HF_wild_card,2022.2.4,Win32,60.29181237,5db48848cbe43e000c3c6c2d,64d2fd46c836a06233681665,64dc7cfab4bedd2148c86ce0,,,,,,,sngl,resources/Empty.png,resources/DB.BMP,Door4,0.266666667,0.012962935,1,0,0,0.8528,optionRight,60,5465,3,12,0,12,0,1,,,,,,,,,,,,,,,,,,,,,,,,,,,,,,,,,,,,,,,
,,,,,,,,2023-08-16_08h38.57.776,HF_wild_card,2022.2.4,Win32,60.29181237,5db48848cbe43e000c3c6c2d,64d2fd46c836a06233681665,64dc7cfab4bedd2148c86ce0,,,,,,,sngl,resources/DBN.BMP,resources/Empty.png,WildCard_Ex,-0.277777778,-0.049074088,1,0,0,0.9421,optionLeft,5,5470,3,13,0,13,0,1,,,,,,,,,,,,,,,,,,,,,,,,,,,,,,,,,,,,,,,
,,,,,,,,2023-08-16_08h38.57.776,HF_wild_card,2022.2.4,Win32,60.29181237,5db48848cbe43e000c3c6c2d,64d2fd46c836a06233681665,64dc7cfab4bedd2148c86ce0,,,,,,,sngl,resources/DR.BMP,resources/Empty.png,Door3,-0.262962935,-0.053703732,1,0,0,0.8752,optionLeft,70,5540,3,14,0,14,0,1,,,,,,,,,,,,,,,,,,,,,,,,,,,,,,,,,,,,,,,
,,,,,,,,2023-08-16_08h38.57.776,HF_wild_card,2022.2.4,Win32,60.29181237,5db48848cbe43e000c3c6c2d,64d2fd46c836a06233681665,64dc7cfab4bedd2148c86ce0,,,,,,,ctch,resources/DB.BMP,resources/DP.BMP,Door4,-0.237962935,-0.025,1,0,0,1.3034,optionLeft,80,5620,3,15,0,15,0,1,,,,,,,,,,,,,,,,,,,,,,,,,,,,,,,,,,,,,,,
,,,,,,,,2023-08-16_08h38.57.776,HF_wild_card,2022.2.4,Win32,60.29181237,5db48848cbe43e000c3c6c2d,64d2fd46c836a06233681665,64dc7cfab4bedd2148c86ce0,,,,,,,decisionTrl,resources/DBN.BMP,resources/DY.BMP,WildCard_Ex,-0.326851824,-0.008333333,1,0,0,1.9318,optionLeft,5,5625,3,16,0,16,0,1,,,,,,,,,,,,,,,,,,,,,,,,,,,,,,,,,,,,,,,
,,,,,,,,2023-08-16_08h38.57.776,HF_wild_card,2022.2.4,Win32,60.29181237,5db48848cbe43e000c3c6c2d,64d2fd46c836a06233681665,64dc7cfab4bedd2148c86ce0,,,,,,,sngl,resources/DY.BMP,resources/Empty.png,Door2,-0.20370369,-0.035185199,1,0,0,0.824,optionLeft,40,5665,3,17,0,17,0,1,,,,,,,,,,,,,,,,,,,,,,,,,,,,,,,,,,,,,,,
,,,,,,,,2023-08-16_08h38.57.776,HF_wild_card,2022.2.4,Win32,60.29181237,5db48848cbe43e000c3c6c2d,64d2fd46c836a06233681665,64dc7cfab4bedd2148c86ce0,,,,,,,decisionTrl,resources/DR.BMP,resources/DBN.BMP,Door3,-0.247222222,-0.040740755,1,0,0,1.1903,optionLeft,70,5735,3,18,0,18,0,1,,,,,,,,,,,,,,,,,,,,,,,,,,,,,,,,,,,,,,,
,,,,,,,,2023-08-16_08h38.57.776,HF_wild_card,2022.2.4,Win32,60.29181237,5db48848cbe43e000c3c6c2d,64d2fd46c836a06233681665,64dc7cfab4bedd2148c86ce0,,,,,,,sngl,resources/Empty.png,resources/DP.BMP,Door1,0.415740797,0.025,1,0,0,0.8708,optionRight,30,5765,3,19,0,19,0,1,,,,,,,,,,,,,,,,,,,,,,,,,,,,,,,,,,,,,,,
,,,,,,,,2023-08-16_08h38.57.776,HF_wild_card,2022.2.4,Win32,60.29181237,5db48848cbe43e000c3c6c2d,64d2fd46c836a06233681665,64dc7cfab4bedd2148c86ce0,,,,,,,ctch,resources/DY.BMP,resources/DR.BMP,Door3,0.332407464,-0.001851866,1,0,0,1.2076,optionRight,70,5835,3,20,0,20,0,1,,,,,,,,,,,,,,,,,,,,,,,,,,,,,,,,,,,,,,,
,,,,,,,,2023-08-16_08h38.57.776,HF_wild_card,2022.2.4,Win32,60.29181237,5db48848cbe43e000c3c6c2d,64d2fd46c836a06233681665,64dc7cfab4bedd2148c86ce0,,,,,,,decisionTrl,resources/DY.BMP,resources/DBN.BMP,WildCard_Ex,0.296296353,0.023148134,1,0,0,1.226,optionRight,5,5840,3,21,0,21,0,1,,,,,,,,,,,,,,,,,,,,,,,,,,,,,,,,,,,,,,,
,,,,,,,,2023-08-16_08h38.57.776,HF_wild_card,2022.2.4,Win32,60.29181237,5db48848cbe43e000c3c6c2d,64d2fd46c836a06233681665,64dc7cfab4bedd2148c86ce0,,,,,,,decisionTrl,resources/DR.BMP,resources/DB.BMP,Door3,-0.249074046,-0.039814843,1,0,0,1.342,optionLeft,70,5910,3,22,0,22,0,1,,,,,,,,,,,,,,,,,,,,,,,,,,,,,,,,,,,,,,,
,,,,,,,,2023-08-16_08h38.57.776,HF_wild_card,2022.2.4,Win32,60.29181237,5db48848cbe43e000c3c6c2d,64d2fd46c836a06233681665,64dc7cfab4bedd2148c86ce0,,,,,,,decisionTrl,resources/DY.BMP,resources/DP.BMP,Door2,-0.277777778,-0.025925954,1,0,0,1.4064,optionLeft,40,5950,3,23,0,23,0,1,,,,,,,,,,,,,,,,,,,,,,,,,,,,,,,,,,,,,,,
,,,,,,,,2023-08-16_08h38.57.776,HF_wild_card,2022.2.4,Win32,60.29181237,5db48848cbe43e000c3c6c2d,64d2fd46c836a06233681665,64dc7cfab4bedd2148c86ce0,,,,,,,decisionTrl,resources/DP.BMP,resources/DY.BMP,Door2,0.362037065,0.005555556,1,0,0,1.1412,optionRight,40,5990,3,24,0,24,0,1,,,,,,,,,,,,,,,,,,,,,,,,,,,,,,,,,,,,,,,
,,,,,,,,2023-08-16_08h38.57.776,HF_wild_card,2022.2.4,Win32,60.29181237,5db48848cbe43e000c3c6c2d,64d2fd46c836a06233681665,64dc7cfab4bedd2148c86ce0,,,,,,,sngl,resources/Empty.png,resources/DBN.BMP,WildCard_Ex,0.311111111,-0.018518533,1,0,0,1.7336,optionRight,95,6085,3,25,0,25,0,1,,,,,,,,,,,,,,,,,,,,,,,,,,,,,,,,,,,,,,,
,,,,,,,,2023-08-16_08h38.57.776,HF_wild_card,2022.2.4,Win32,60.29181237,5db48848cbe43e000c3c6c2d,64d2fd46c836a06233681665,64dc7cfab4bedd2148c86ce0,,,,,,,sngl,resources/DP.BMP,resources/Empty.png,Door1,-0.274074046,-0.074074088,1,0,0,0.8334,optionLeft,30,6115,3,26,0,26,0,1,,,,,,,,,,,,,,,,,,,,,,,,,,,,,,,,,,,,,,,
,,,,,,,,2023-08-16_08h38.57.776,HF_wild_card,2022.2.4,Win32,60.29181237,5db48848cbe43e000c3c6c2d,64d2fd46c836a06233681665,64dc7cfab4bedd2148c86ce0,,,,,,,decisionTrl,resources/DP.BMP,resources/DY.BMP,Door2,0.437037065,0.045370356,1,0,0,0.9081,optionRight,20,6135,3,27,0,27,0,1,,,,,,,,,,,,,,,,,,,,,,,,,,,,,,,,,,,,,,,
,,,,,,,,2023-08-16_08h38.57.776,HF_wild_card,2022.2.4,Win32,60.29181237,5db48848cbe43e000c3c6c2d,64d2fd46c836a06233681665,64dc7cfab4bedd2148c86ce0,,,,,,,ctch,resources/DR.BMP,resources/DY.BMP,Door3,-0.260185157,-0.049074088,1,0,0,1.0411,optionLeft,70,6205,3,28,0,28,0,1,,,,,,,,,,,,,,,,,,,,,,,,,,,,,,,,,,,,,,,
,,,,,,,,2023-08-16_08h38.57.776,HF_wild_card,2022.2.4,Win32,60.29181237,5db48848cbe43e000c3c6c2d,64d2fd46c836a06233681665,64dc7cfab4bedd2148c86ce0,,,,,,,decisionTrl,resources/DP.BMP,resources/DY.BMP,Door2,0.349074131,-0.001851866,1,0,0,1.2916,optionRight,40,6245,3,29,0,29,0,1,,,,,,,,,,,,,,,,,,,,,,,,,,,,,,,,,,,,,,,
,,,,,,,,2023-08-16_08h38.57.776,HF_wild_card,2022.2.4,Win32,60.29181237,5db48848cbe43e000c3c6c2d,64d2fd46c836a06233681665,64dc7cfab4bedd2148c86ce0,,,,,,,sngl,resources/DBN.BMP,resources/Empty.png,WildCard_Ex,-0.26851849,-0.036111111,1,0,0,0.8927,optionLeft,95,6340,3,30,0,30,0,1,,,,,,,,,,,,,,,,,,,,,,,,,,,,,,,,,,,,,,,
,,,,,,,,2023-08-16_08h38.57.776,HF_wild_card,2022.2.4,Win32,60.29181237,5db48848cbe43e000c3c6c2d,64d2fd46c836a06233681665,64dc7cfab4bedd2148c86ce0,,,,,,,sngl,resources/Empty.png,resources/DR.BMP,Door3,0.253703732,-0.008333333,1,0,0,0.8585,optionRight,70,6410,3,31,0,31,0,1,,,,,,,,,,,,,,,,,,,,,,,,,,,,,,,,,,,,,,,
,,,,,,,,2023-08-16_08h38.57.776,HF_wild_card,2022.2.4,Win32,60.29181237,5db48848cbe43e000c3c6c2d,64d2fd46c836a06233681665,64dc7cfab4bedd2148c86ce0,,,,,,,sngl,resources/DB.BMP,resources/Empty.png,Door4,-0.25,-0.016666667,1,0,0,0.8764,optionLeft,80,6490,3,32,0,32,0,1,,,,,,,,,,,,,,,,,,,,,,,,,,,,,,,,,,,,,,,
,,,,,,,,2023-08-16_08h38.57.776,HF_wild_card,2022.2.4,Win32,60.29181237,5db48848cbe43e000c3c6c2d,64d2fd46c836a06233681665,64dc7cfab4bedd2148c86ce0,,,,,,,decisionTrl,resources/DP.BMP,resources/DBN.BMP,WildCard_Ex,0.234259288,0,1,0,0,0.8745,optionRight,5,6495,3,33,0,33,0,1,,,,,,,,,,,,,,,,,,,,,,,,,,,,,,,,,,,,,,,
,,,,,,,,2023-08-16_08h38.57.776,HF_wild_card,2022.2.4,Win32,60.29181237,5db48848cbe43e000c3c6c2d,64d2fd46c836a06233681665,64dc7cfab4bedd2148c86ce0,,,,,,,decisionTrl,resources/DB.BMP,resources/DR.BMP,Door3,0.301851908,-0.007407422,1,0,0,0.9755,optionRight,70,6565,3,34,0,34,0,1,,,,,,,,,,,,,,,,,,,,,,,,,,,,,,,,,,,,,,,
,,,,,,,,2023-08-16_08h38.57.776,HF_wild_card,2022.2.4,Win32,60.29181237,5db48848cbe43e000c3c6c2d,64d2fd46c836a06233681665,64dc7cfab4bedd2148c86ce0,,,,,,,ctch,resources/DY.BMP,resources/DR.BMP,Door3,0.355555556,0.012962935,1,0,0,0.9091,optionRight,70,6635,3,35,0,35,0,1,,,,,,,,,,,,,,,,,,,,,,,,,,,,,,,,,,,,,,,
,,,,,,,,2023-08-16_08h38.57.776,HF_wild_card,2022.2.4,Win32,60.29181237,5db48848cbe43e000c3c6c2d,64d2fd46c836a06233681665,64dc7cfab4bedd2148c86ce0,,,,,,,ctch,resources/DP.BMP,resources/DB.BMP,Door4,0.382407464,0.021296268,1,0,0,1.058,optionRight,80,6715,3,36,0,36,0,1,,,,,,,,,,,,,,,,,,,,,,,,,,,,,,,,,,,,,,,
,,,,,,,,2023-08-16_08h38.57.776,HF_wild_card,2022.2.4,Win32,60.29181237,5db48848cbe43e000c3c6c2d,64d2fd46c836a06233681665,64dc7cfab4bedd2148c86ce0,,,,,,,decisionTrl,resources/DY.BMP,resources/DP.BMP,Door1,0.254629686,-0.033333333,1,0,0,1.0426,optionRight,30,6745,3,37,0,37,0,1,,,,,,,,,,,,,,,,,,,,,,,,,,,,,,,,,,,,,,,
,,,,,,,,2023-08-16_08h38.57.776,HF_wild_card,2022.2.4,Win32,60.29181237,5db48848cbe43e000c3c6c2d,64d2fd46c836a06233681665,64dc7cfab4bedd2148c86ce0,,,,,,,sngl,resources/Empty.png,resources/DY.BMP,Door2,0.323148176,-0.028703732,1,0,0,0.7926,optionRight,20,6765,3,38,0,38,0,1,,,,,,,,,,,,,,,,,,,,,,,,,,,,,,,,,,,,,,,
,,,,,,,,2023-08-16_08h38.57.776,HF_wild_card,2022.2.4,Win32,60.29181237,5db48848cbe43e000c3c6c2d,64d2fd46c836a06233681665,64dc7cfab4bedd2148c86ce0,,,,,,,decisionTrl,resources/DY.BMP,resources/DP.BMP,Door2,-0.310185157,-0.050925954,1,0,0,1.5311,optionLeft,40,6805,3,39,0,39,0,1,,,,,,,,,,,,,,,,,,,,,,,,,,,,,,,,,,,,,,,
,,,,,,,,2023-08-16_08h38.57.776,HF_wild_card,2022.2.4,Win32,60.29181237,5db48848cbe43e000c3c6c2d,64d2fd46c836a06233681665,64dc7cfab4bedd2148c86ce0,,,,,,,decisionTrl,resources/DB.BMP,resources/DR.BMP,Door3,0.437037065,0.023148134,1,0,0,1.1525,optionRight,70,6875,3,40,0,40,0,1,,,,,,,,,,,,,,,,,,,,,,,,,,,,,,,,,,,,,,,
,,,,,,,,2023-08-16_08h38.57.776,HF_wild_card,2022.2.4,Win32,60.29181237,5db48848cbe43e000c3c6c2d,64d2fd46c836a06233681665,64dc7cfab4bedd2148c86ce0,,,,,,,decisionTrl,resources/DB.BMP,resources/DR.BMP,Door3,0.296296353,-0.012962977,1,0,0,0.7913,optionRight,70,6945,3,41,0,41,0,1,,,,,,,,,,,,,,,,,,,,,,,,,,,,,,,,,,,,,,,
,,,,,,,,2023-08-16_08h38.57.776,HF_wild_card,2022.2.4,Win32,60.29181237,5db48848cbe43e000c3c6c2d,64d2fd46c836a06233681665,64dc7cfab4bedd2148c86ce0,,,,,,,ctch,resources/DR.BMP,resources/DY.BMP,Door3,-0.355555556,-0.082407422,1,0,0,1.1445,optionLeft,70,7015,3,42,0,42,0,1,,,,,,,,,,,,,,,,,,,,,,,,,,,,,,,,,,,,,,,
,,,,,,,,2023-08-16_08h38.57.776,HF_wild_card,2022.2.4,Win32,60.29181237,5db48848cbe43e000c3c6c2d,64d2fd46c836a06233681665,64dc7cfab4bedd2148c86ce0,,,,,,,decisionTrl,resources/DB.BMP,resources/DBN.BMP,WildCard_Ex,0.366666667,-0.001851866,1,0,0,0.9413,optionRight,95,7110,3,43,0,43,0,1,,,,,,,,,,,,,,,,,,,,,,,,,,,,,,,,,,,,,,,
,,,,,,,,2023-08-16_08h38.57.776,HF_wild_card,2022.2.4,Win32,60.29181237,5db48848cbe43e000c3c6c2d,64d2fd46c836a06233681665,64dc7cfab4bedd2148c86ce0,,,,,,,,,,,,,,,,,,,,,,,,,,2,0,2,0,1,,,,,,,,,,,,,,,,,,,,,,,,,,,,,,,,,,
,,,,,,,,2023-08-16_08h38.57.776,HF_wild_card,2022.2.4,Win32,60.29181237,5db48848cbe43e000c3c6c2d,64d2fd46c836a06233681665,64dc7cfab4bedd2148c86ce0,,,,,,,decisionTrl,resources/DY.BMP,resources/DP.BMP,Door2,-0.25370369,-0.065740755,1,0,0,1.3676,optionLeft,20,7130,4,0,0,0,0,1,,,,,,,,,,,,,,,,,,,,,,,,,,,,,,,,,,,,,,,
,,,,,,,,2023-08-16_08h38.57.776,HF_wild_card,2022.2.4,Win32,60.29181237,5db48848cbe43e000c3c6c2d,64d2fd46c836a06233681665,64dc7cfab4bedd2148c86ce0,,,,,,,ctch,resources/DP.BMP,resources/DB.BMP,Door4,0.379629686,0.035185157,1,0,0,0.9618,optionRight,60,7190,4,1,0,1,0,1,,,,,,,,,,,,,,,,,,,,,,,,,,,,,,,,,,,,,,,
,,,,,,,,2023-08-16_08h38.57.776,HF_wild_card,2022.2.4,Win32,60.29181237,5db48848cbe43e000c3c6c2d,64d2fd46c836a06233681665,64dc7cfab4bedd2148c86ce0,,,,,,,sngl,resources/DY.BMP,resources/Empty.png,Door2,-0.267592578,-0.051851866,1,0,0,0.8681,optionLeft,20,7210,4,2,0,2,0,1,,,,,,,,,,,,,,,,,,,,,,,,,,,,,,,,,,,,,,,
,,,,,,,,2023-08-16_08h38.57.776,HF_wild_card,2022.2.4,Win32,60.29181237,5db48848cbe43e000c3c6c2d,64d2fd46c836a06233681665,64dc7cfab4bedd2148c86ce0,,,,,,,sngl,resources/Empty.png,resources/DG.BMP,WildCard_NonEx,0.269444444,-0.004629644,1,0,0,1.6672,optionRight,55,7265,4,3,0,3,0,1,,,,,,,,,,,,,,,,,,,,,,,,,,,,,,,,,,,,,,,
,,,,,,,,2023-08-16_08h38.57.776,HF_wild_card,2022.2.4,Win32,60.29181237,5db48848cbe43e000c3c6c2d,64d2fd46c836a06233681665,64dc7cfab4bedd2148c86ce0,,,,,,,decisionTrl,resources/DR.BMP,resources/DB.BMP,Door3,-0.272222222,-0.022222222,1,0,0,1.0429,optionLeft,70,7335,4,4,0,4,0,1,,,,,,,,,,,,,,,,,,,,,,,,,,,,,,,,,,,,,,,
,,,,,,,,2023-08-16_08h38.57.776,HF_wild_card,2022.2.4,Win32,60.29181237,5db48848cbe43e000c3c6c2d,64d2fd46c836a06233681665,64dc7cfab4bedd2148c86ce0,,,,,,,sngl,resources/Empty.png,resources/DR.BMP,Door3,0.334259288,0.017592578,1,0,0,0.8426,optionRight,70,7405,4,5,0,5,0,1,,,,,,,,,,,,,,,,,,,,,,,,,,,,,,,,,,,,,,,
,,,,,,,,2023-08-16_08h38.57.776,HF_wild_card,2022.2.4,Win32,60.29181237,5db48848cbe43e000c3c6c2d,64d2fd46c836a06233681665,64dc7cfab4bedd2148c86ce0,,,,,,,decisionTrl,resources/DY.BMP,resources/DP.BMP,Door2,-0.258333333,-0.043518533,1,0,0,1.301,optionLeft,20,7425,4,6,0,6,0,1,,,,,,,,,,,,,,,,,,,,,,,,,,,,,,,,,,,,,,,
,,,,,,,,2023-08-16_08h38.57.776,HF_wild_card,2022.2.4,Win32,60.29181237,5db48848cbe43e000c3c6c2d,64d2fd46c836a06233681665,64dc7cfab4bedd2148c86ce0,,,,,,,decisionTrl,resources/DR.BMP,resources/DB.BMP,Door3,-0.270370356,-0.062962977,1,0,0,1.1586,optionLeft,70,7495,4,7,0,7,0,1,,,,,,,,,,,,,,,,,,,,,,,,,,,,,,,,,,,,,,,
,,,,,,,,2023-08-16_08h38.57.776,HF_wild_card,2022.2.4,Win32,60.29181237,5db48848cbe43e000c3c6c2d,64d2fd46c836a06233681665,64dc7cfab4bedd2148c86ce0,,,,,,,ctch,resources/DR.BMP,resources/DY.BMP,Door3,-0.284259245,-0.054629644,1,0,0,1.2096,optionLeft,70,7565,4,8,0,8,0,1,,,,,,,,,,,,,,,,,,,,,,,,,,,,,,,,,,,,,,,
,,,,,,,,2023-08-16_08h38.57.776,HF_wild_card,2022.2.4,Win32,60.29181237,5db48848cbe43e000c3c6c2d,64d2fd46c836a06233681665,64dc7cfab4bedd2148c86ce0,,,,,,,decisionTrl,resources/DP.BMP,resources/DG.BMP,WildCard_NonEx,0.384259288,0.025,1,0,0,1.1395,optionRight,45,7610,4,9,0,9,0,1,,,,,,,,,,,,,,,,,,,,,,,,,,,,,,,,,,,,,,,
,,,,,,,,2023-08-16_08h38.57.776,HF_wild_card,2022.2.4,Win32,60.29181237,5db48848cbe43e000c3c6c2d,64d2fd46c836a06233681665,64dc7cfab4bedd2148c86ce0,,,,,,,decisionTrl,resources/DR.BMP,resources/DB.BMP,Door3,-0.333333333,-0.048148176,1,0,0,1.1592,optionLeft,70,7680,4,10,0,10,0,1,,,,,,,,,,,,,,,,,,,,,,,,,,,,,,,,,,,,,,,
,,,,,,,,2023-08-16_08h38.57.776,HF_wild_card,2022.2.4,Win32,60.29181237,5db48848cbe43e000c3c6c2d,64d2fd46c836a06233681665,64dc7cfab4bedd2148c86ce0,,,,,,,decisionTrl,resources/DB.BMP,resources/DR.BMP,Door3,0.387037065,0.001851824,1,0,0,1.325,optionRight,70,7750,4,11,0,11,0,1,,,,,,,,,,,,,,,,,,,,,,,,,,,,,,,,,,,,,,,
,,,,,,,,2023-08-16_08h38.57.776,HF_wild_card,2022.2.4,Win32,60.29181237,5db48848cbe43e000c3c6c2d,64d2fd46c836a06233681665,64dc7cfab4bedd2148c86ce0,,,,,,,decisionTrl,resources/DG.BMP,resources/DB.BMP,WildCard_NonEx,-0.29351849,-0.039814843,1,0,0,0.9923,optionLeft,55,7805,4,12,0,12,0,1,,,,,,,,,,,,,,,,,,,,,,,,,,,,,,,,,,,,,,,
,,,,,,,,2023-08-16_08h38.57.776,HF_wild_card,2022.2.4,Win32,60.29181237,5db48848cbe43e000c3c6c2d,64d2fd46c836a06233681665,64dc7cfab4bedd2148c86ce0,,,,,,,decisionTrl,resources/DY.BMP,resources/DP.BMP,Door2,-0.311111111,-0.048148176,1,0,0,1.243,optionLeft,40,7845,4,13,0,13,0,1,,,,,,,,,,,,,,,,,,,,,,,,,,,,,,,,,,,,,,,
,,,,,,,,2023-08-16_08h38.57.776,HF_wild_card,2022.2.4,Win32,60.29181237,5db48848cbe43e000c3c6c2d,64d2fd46c836a06233681665,64dc7cfab4bedd2148c86ce0,,,,,,,ctch,resources/DY.BMP,resources/DR.BMP,Door3,0.323148176,0.027777778,1,0,0,1.0083,optionRight,70,7915,4,14,0,14,0,1,,,,,,,,,,,,,,,,,,,,,,,,,,,,,,,,,,,,,,,
,,,,,,,,2023-08-16_08h38.57.776,HF_wild_card,2022.2.4,Win32,60.29181237,5db48848cbe43e000c3c6c2d,64d2fd46c836a06233681665,64dc7cfab4bedd2148c86ce0,,,,,,,decisionTrl,resources/DP.BMP,resources/DY.BMP,Door2,0.232407464,0.012037023,1,0,0,1.8243,optionRight,20,7935,4,15,0,15,0,1,,,,,,,,,,,,,,,,,,,,,,,,,,,,,,,,,,,,,,,
,,,,,,,,2023-08-16_08h38.57.776,HF_wild_card,2022.2.4,Win32,60.29181237,5db48848cbe43e000c3c6c2d,64d2fd46c836a06233681665,64dc7cfab4bedd2148c86ce0,,,,,,,decisionTrl,resources/DY.BMP,resources/DG.BMP,WildCard_NonEx,0.301851908,0.030555556,1,0,0,1.9753,optionRight,55,7990,4,16,0,16,0,1,,,,,,,,,,,,,,,,,,,,,,,,,,,,,,,,,,,,,,,
,,,,,,,,2023-08-16_08h38.57.776,HF_wild_card,2022.2.4,Win32,60.29181237,5db48848cbe43e000c3c6c2d,64d2fd46c836a06233681665,64dc7cfab4bedd2148c86ce0,,,,,,,decisionTrl,resources/DR.BMP,resources/DG.BMP,Door3,-0.305555556,-0.062037065,1,0,0,1.1081,optionLeft,70,8060,4,17,0,17,0,1,,,,,,,,,,,,,,,,,,,,,,,,,,,,,,,,,,,,,,,
,,,,,,,,2023-08-16_08h38.57.776,HF_wild_card,2022.2.4,Win32,60.29181237,5db48848cbe43e000c3c6c2d,64d2fd46c836a06233681665,64dc7cfab4bedd2148c86ce0,,,,,,,decisionTrl,resources/DB.BMP,resources/DG.BMP,Door4,-0.207407379,-0.03148151,1,0,0,1.6588,optionLeft,80,8140,4,18,0,18,0,1,,,,,,,,,,,,,,,,,,,,,,,,,,,,,,,,,,,,,,,
,,,,,,,,2023-08-16_08h38.57.776,HF_wild_card,2022.2.4,Win32,60.29181237,5db48848cbe43e000c3c6c2d,64d2fd46c836a06233681665,64dc7cfab4bedd2148c86ce0,,,,,,,decisionTrl,resources/DP.BMP,resources/DY.BMP,Door1,-0.307407379,-0.035185199,1,0,0,1.2246,optionLeft,30,8170,4,19,0,19,0,1,,,,,,,,,,,,,,,,,,,,,,,,,,,,,,,,,,,,,,,
,,,,,,,,2023-08-16_08h38.57.776,HF_wild_card,2022.2.4,Win32,60.29181237,5db48848cbe43e000c3c6c2d,64d2fd46c836a06233681665,64dc7cfab4bedd2148c86ce0,,,,,,,sngl,resources/Empty.png,resources/DB.BMP,Door4,0.236111111,0.015740712,1,0,0,0.8588,optionRight,80,8250,4,20,0,20,0,1,,,,,,,,,,,,,,,,,,,,,,,,,,,,,,,,,,,,,,,
,,,,,,,,2023-08-16_08h38.57.776,HF_wild_card,2022.2.4,Win32,60.29181237,5db48848cbe43e000c3c6c2d,64d2fd46c836a06233681665,64dc7cfab4bedd2148c86ce0,,,,,,,sngl,resources/Empty.png,resources/DG.BMP,WildCard_NonEx,0.357407464,0.023148134,1,0,0,0.9128,optionRight,45,8295,4,21,0,21,0,1,,,,,,,,,,,,,,,,,,,,,,,,,,,,,,,,,,,,,,,
,,,,,,,,2023-08-16_08h38.57.776,HF_wild_card,2022.2.4,Win32,60.29181237,5db48848cbe43e000c3c6c2d,64d2fd46c836a06233681665,64dc7cfab4bedd2148c86ce0,,,,,,,decisionTrl,resources/DG.BMP,resources/DY.BMP,WildCard_NonEx,-0.32870369,-0.040740755,1,0,0,1.2335,optionLeft,45,8340,4,22,0,22,0,1,,,,,,,,,,,,,,,,,,,,,,,,,,,,,,,,,,,,,,,
,,,,,,,,2023-08-16_08h38.57.776,HF_wild_card,2022.2.4,Win32,60.29181237,5db48848cbe43e000c3c6c2d,64d2fd46c836a06233681665,64dc7cfab4bedd2148c86ce0,,,,,,,ctch,resources/DY.BMP,resources/DR.BMP,Door3,0.338888889,0.033333333,1,0,0,1.0585,optionRight,70,8410,4,23,0,23,0,1,,,,,,,,,,,,,,,,,,,,,,,,,,,,,,,,,,,,,,,
,,,,,,,,2023-08-16_08h38.57.776,HF_wild_card,2022.2.4,Win32,60.29181237,5db48848cbe43e000c3c6c2d,64d2fd46c836a06233681665,64dc7cfab4bedd2148c86ce0,,,,,,,decisionTrl,resources/DP.BMP,resources/DY.BMP,Door1,-0.319444444,-0.060185199,1,0,0,3.091,optionLeft,30,8440,4,24,0,24,0,1,,,,,,,,,,,,,,,,,,,,,,,,,,,,,,,,,,,,,,,
,,,,,,,,2023-08-16_08h38.57.776,HF_wild_card,2022.2.4,Win32,60.29181237,5db48848cbe43e000c3c6c2d,64d2fd46c836a06233681665,64dc7cfab4bedd2148c86ce0,,,,,,,sngl,resources/DG.BMP,resources/Empty.png,WildCard_NonEx,-0.298148134,-0.016666667,1,0,0,0.9157,optionLeft,45,8485,4,25,0,25,0,1,,,,,,,,,,,,,,,,,,,,,,,,,,,,,,,,,,,,,,,
,,,,,,,,2023-08-16_08h38.57.776,HF_wild_card,2022.2.4,Win32,60.29181237,5db48848cbe43e000c3c6c2d,64d2fd46c836a06233681665,64dc7cfab4bedd2148c86ce0,,,,,,,decisionTrl,resources/DB.BMP,resources/DR.BMP,Door3,0.376851908,0.032407379,1,0,0,1.2235,optionRight,70,8555,4,26,0,26,0,1,,,,,,,,,,,,,,,,,,,,,,,,,,,,,,,,,,,,,,,
,,,,,,,,2023-08-16_08h38.57.776,HF_wild_card,2022.2.4,Win32,60.29181237,5db48848cbe43e000c3c6c2d,64d2fd46c836a06233681665,64dc7cfab4bedd2148c86ce0,,,,,,,decisionTrl,resources/DR.BMP,resources/DB.BMP,Door3,-0.294444444,-0.033333333,1,0,0,1.1029,optionLeft,70,8625,4,27,0,27,0,1,,,,,,,,,,,,,,,,,,,,,,,,,,,,,,,,,,,,,,,
,,,,,,,,2023-08-16_08h38.57.776,HF_wild_card,2022.2.4,Win32,60.29181237,5db48848cbe43e000c3c6c2d,64d2fd46c836a06233681665,64dc7cfab4bedd2148c86ce0,,,,,,,sngl,resources/DP.BMP,resources/Empty.png,Door1,-0.200925912,-0.028703732,1,0,0,0.8742,optionLeft,30,8655,4,28,0,28,0,1,,,,,,,,,,,,,,,,,,,,,,,,,,,,,,,,,,,,,,,
,,,,,,,,2023-08-16_08h38.57.776,HF_wild_card,2022.2.4,Win32,60.29181237,5db48848cbe43e000c3c6c2d,64d2fd46c836a06233681665,64dc7cfab4bedd2148c86ce0,,,,,,,decisionTrl,resources/DB.BMP,resources/DR.BMP,Door3,0.332407464,-0.007407422,1,0,0,1.0756,optionRight,70,8725,4,29,0,29,0,1,,,,,,,,,,,,,,,,,,,,,,,,,,,,,,,,,,,,,,,
,,,,,,,,2023-08-16_08h38.57.776,HF_wild_card,2022.2.4,Win32,60.29181237,5db48848cbe43e000c3c6c2d,64d2fd46c836a06233681665,64dc7cfab4bedd2148c86ce0,,,,,,,ctch,resources/DB.BMP,resources/DP.BMP,Door4,-0.291666667,-0.047222222,1,0,0,0.9259,optionLeft,60,8785,4,30,0,30,0,1,,,,,,,,,,,,,,,,,,,,,,,,,,,,,,,,,,,,,,,
,,,,,,,,2023-08-16_08h38.57.776,HF_wild_card,2022.2.4,Win32,60.29181237,5db48848cbe43e000c3c6c2d,64d2fd46c836a06233681665,64dc7cfab4bedd2148c86ce0,,,,,,,sngl,resources/DG.BMP,resources/Empty.png,WildCard_NonEx,-0.286111111,-0.05648151,1,0,0,0.9097,optionLeft,55,8840,4,31,0,31,0,1,,,,,,,,,,,,,,,,,,,,,,,,,,,,,,,,,,,,,,,
,,,,,,,,2023-08-16_08h38.57.776,HF_wild_card,2022.2.4,Win32,60.29181237,5db48848cbe43e000c3c6c2d,64d2fd46c836a06233681665,64dc7cfab4bedd2148c86ce0,,,,,,,ctch,resources/DP.BMP,resources/DB.BMP,Door4,0.302777778,0.007407379,1,0,0,1.198,optionRight,60,8900,4,32,0,32,0,1,,,,,,,,,,,,,,,,,,,,,,,,,,,,,,,,,,,,,,,
,,,,,,,,2023-08-16_08h38.57.776,HF_wild_card,2022.2.4,Win32,60.29181237,5db48848cbe43e000c3c6c2d,64d2fd46c836a06233681665,64dc7cfab4bedd2148c86ce0,,,,,,,decisionTrl,resources/DY.BMP,resources/DP.BMP,Door2,-0.25370369,-0.05,1,0,0,1.5218,optionLeft,20,8920,4,33,0,33,0,1,,,,,,,,,,,,,,,,,,,,,,,,,,,,,,,,,,,,,,,
,,,,,,,,2023-08-16_08h38.57.776,HF_wild_card,2022.2.4,Win32,60.29181237,5db48848cbe43e000c3c6c2d,64d2fd46c836a06233681665,64dc7cfab4bedd2148c86ce0,,,,,,,ctch,resources/DB.BMP,resources/DP.BMP,Door4,-0.214814801,-0.027777778,1,0,0,1.1091,optionLeft,80,9000,4,34,0,34,0,1,,,,,,,,,,,,,,,,,,,,,,,,,,,,,,,,,,,,,,,
,,,,,,,,2023-08-16_08h38.57.776,HF_wild_card,2022.2.4,Win32,60.29181237,5db48848cbe43e000c3c6c2d,64d2fd46c836a06233681665,64dc7cfab4bedd2148c86ce0,,,,,,,decisionTrl,resources/DG.BMP,resources/DR.BMP,Door3,0.390740797,0.012037023,1,0,0,1.2584,optionRight,70,9070,4,35,0,35,0,1,,,,,,,,,,,,,,,,,,,,,,,,,,,,,,,,,,,,,,,
,,,,,,,,2023-08-16_08h38.57.776,HF_wild_card,2022.2.4,Win32,60.29181237,5db48848cbe43e000c3c6c2d,64d2fd46c836a06233681665,64dc7cfab4bedd2148c86ce0,,,,,,,ctch,resources/DR.BMP,resources/DY.BMP,Door3,-0.305555556,-0.090740755,1,0,0,1.0145,optionLeft,70,9140,4,36,0,36,0,1,,,,,,,,,,,,,,,,,,,,,,,,,,,,,,,,,,,,,,,
,,,,,,,,2023-08-16_08h38.57.776,HF_wild_card,2022.2.4,Win32,60.29181237,5db48848cbe43e000c3c6c2d,64d2fd46c836a06233681665,64dc7cfab4bedd2148c86ce0,,,,,,,decisionTrl,resources/DB.BMP,resources/DR.BMP,Door3,-0.000925869,-0.015740755,1,0,0,0.5425,optionRight,70,9210,4,37,0,37,0,1,,,,,,,,,,,,,,,,,,,,,,,,,,,,,,,,,,,,,,,
,,,,,,,,2023-08-16_08h38.57.776,HF_wild_card,2022.2.4,Win32,60.29181237,5db48848cbe43e000c3c6c2d,64d2fd46c836a06233681665,64dc7cfab4bedd2148c86ce0,,,,,,,sngl,resources/Empty.png,resources/DP.BMP,Door1,0.299074131,0.008333333,1,0,0,0.9477,optionRight,30,9240,4,38,0,38,0,1,,,,,,,,,,,,,,,,,,,,,,,,,,,,,,,,,,,,,,,
,,,,,,,,2023-08-16_08h38.57.776,HF_wild_card,2022.2.4,Win32,60.29181237,5db48848cbe43e000c3c6c2d,64d2fd46c836a06233681665,64dc7cfab4bedd2148c86ce0,,,,,,,sngl,resources/DB.BMP,resources/Empty.png,Door4,-0.277777778,-0.05648151,1,0,0,0.8583,optionLeft,60,9300,4,39,0,39,0,1,,,,,,,,,,,,,,,,,,,,,,,,,,,,,,,,,,,,,,,
,,,,,,,,2023-08-16_08h38.57.776,HF_wild_card,2022.2.4,Win32,60.29181237,5db48848cbe43e000c3c6c2d,64d2fd46c836a06233681665,64dc7cfab4bedd2148c86ce0,,,,,,,decisionTrl,resources/DP.BMP,resources/DY.BMP,Door1,-0.238888889,-0.02129631,1,0,0,1.542,optionLeft,30,9330,4,40,0,40,0,1,,,,,,,,,,,,,,,,,,,,,,,,,,,,,,,,,,,,,,,
,,,,,,,,2023-08-16_08h38.57.776,HF_wild_card,2022.2.4,Win32,60.29181237,5db48848cbe43e000c3c6c2d,64d2fd46c836a06233681665,64dc7cfab4bedd2148c86ce0,,,,,,,sngl,resources/DR.BMP,resources/Empty.png,Door3,-0.259259245,-0.04629631,1,0,0,0.892,optionLeft,70,9400,4,41,0,41,0,1,,,,,,,,,,,,,,,,,,,,,,,,,,,,,,,,,,,,,,,
,,,,,,,,2023-08-16_08h38.57.776,HF_wild_card,2022.2.4,Win32,60.29181237,5db48848cbe43e000c3c6c2d,64d2fd46c836a06233681665,64dc7cfab4bedd2148c86ce0,,,,,,,sngl,resources/Empty.png,resources/DY.BMP,Door2,0.328703732,-0.022222222,1,0,0,0.8073,optionRight,40,9440,4,42,0,42,0,1,,,,,,,,,,,,,,,,,,,,,,,,,,,,,,,,,,,,,,,
,,,,,,,,2023-08-16_08h38.57.776,HF_wild_card,2022.2.4,Win32,60.29181237,5db48848cbe43e000c3c6c2d,64d2fd46c836a06233681665,64dc7cfab4bedd2148c86ce0,,,,,,,decisionTrl,resources/DG.BMP,resources/DP.BMP,WildCard_NonEx,-0.264814801,-0.02129631,1,0,0,1.3357,optionLeft,55,9495,4,43,0,43,0,1,,,,,,,,,,,,,,,,,,,,,,,,,,,,,,,,,,,,,,,
,,,,,,,,2023-08-16_08h38.57.776,HF_wild_card,2022.2.4,Win32,60.29181237,5db48848cbe43e000c3c6c2d,64d2fd46c836a06233681665,64dc7cfab4bedd2148c86ce0,,,,,,,,,,,,,,,,,,,,,,,,,,3,0,3,0,1,,,,,,,,,,,,,,,,,,,,,,,,,,,,,,,,,,
,,,,,,,,2023-08-16_08h38.57.776,HF_wild_card,2022.2.4,Win32,60.29181237,5db48848cbe43e000c3c6c2d,64d2fd46c836a06233681665,64dc7cfab4bedd2148c86ce0,,,,,,,decisionTrl,resources/DB.BMP,resources/DG.BMP,Door4,-0.319444444,-0.108333333,1,0,0,1.7265,optionLeft,80,9575,5,0,0,0,0,1,,,,,,,,,,,,,,,,,,,,,,,,,,,,,,,,,,,,,,,
,,,,,,,,2023-08-16_08h38.57.776,HF_wild_card,2022.2.4,Win32,60.29181237,5db48848cbe43e000c3c6c2d,64d2fd46c836a06233681665,64dc7cfab4bedd2148c86ce0,,,,,,,decisionTrl,resources/DY.BMP,resources/DP.BMP,Door2,-0.289814801,-0.076851866,1,0,0,1.3407,optionLeft,20,9595,5,1,0,1,0,1,,,,,,,,,,,,,,,,,,,,,,,,,,,,,,,,,,,,,,,
,,,,,,,,2023-08-16_08h38.57.776,HF_wild_card,2022.2.4,Win32,60.29181237,5db48848cbe43e000c3c6c2d,64d2fd46c836a06233681665,64dc7cfab4bedd2148c86ce0,,,,,,,ctch,resources/DR.BMP,resources/DY.BMP,Door3,-0.337037023,-0.052777778,1,0,0,1.0413,optionLeft,70,9665,5,2,0,2,0,1,,,,,,,,,,,,,,,,,,,,,,,,,,,,,,,,,,,,,,,
,,,,,,,,2023-08-16_08h38.57.776,HF_wild_card,2022.2.4,Win32,60.29181237,5db48848cbe43e000c3c6c2d,64d2fd46c836a06233681665,64dc7cfab4bedd2148c86ce0,,,,,,,decisionTrl,resources/DB.BMP,resources/DR.BMP,Door3,0.379629686,-0.016666667,1,0,0,1.6242,optionRight,70,9735,5,3,0,3,0,1,,,,,,,,,,,,,,,,,,,,,,,,,,,,,,,,,,,,,,,
,,,,,,,,2023-08-16_08h38.57.776,HF_wild_card,2022.2.4,Win32,60.29181237,5db48848cbe43e000c3c6c2d,64d2fd46c836a06233681665,64dc7cfab4bedd2148c86ce0,,,,,,,decisionTrl,resources/DR.BMP,resources/DG.BMP,Door3,-0.326851824,-0.060185199,1,0,0,1.2646,optionLeft,70,9805,5,4,0,4,0,1,,,,,,,,,,,,,,,,,,,,,,,,,,,,,,,,,,,,,,,
,,,,,,,,2023-08-16_08h38.57.776,HF_wild_card,2022.2.4,Win32,60.29181237,5db48848cbe43e000c3c6c2d,64d2fd46c836a06233681665,64dc7cfab4bedd2148c86ce0,,,,,,,sngl,resources/Empty.png,resources/DG.BMP,WildCard_NonEx,0.361111111,0.02870369,1,0,0,1.0091,optionRight,55,9860,5,5,0,5,0,1,,,,,,,,,,,,,,,,,,,,,,,,,,,,,,,,,,,,,,,
,,,,,,,,2023-08-16_08h38.57.776,HF_wild_card,2022.2.4,Win32,60.29181237,5db48848cbe43e000c3c6c2d,64d2fd46c836a06233681665,64dc7cfab4bedd2148c86ce0,,,,,,,sngl,resources/DG.BMP,resources/Empty.png,WildCard_NonEx,-0.297222222,-0.043518533,1,0,0,0.8592,optionLeft,45,9905,5,6,0,6,0,1,,,,,,,,,,,,,,,,,,,,,,,,,,,,,,,,,,,,,,,
,,,,,,,,2023-08-16_08h38.57.776,HF_wild_card,2022.2.4,Win32,60.29181237,5db48848cbe43e000c3c6c2d,64d2fd46c836a06233681665,64dc7cfab4bedd2148c86ce0,,,,,,,decisionTrl,resources/DP.BMP,resources/DY.BMP,Door1,-0.325,-0.083333333,1,0,0,1.5461,optionLeft,30,9935,5,7,0,7,0,1,,,,,,,,,,,,,,,,,,,,,,,,,,,,,,,,,,,,,,,
,,,,,,,,2023-08-16_08h38.57.776,HF_wild_card,2022.2.4,Win32,60.29181237,5db48848cbe43e000c3c6c2d,64d2fd46c836a06233681665,64dc7cfab4bedd2148c86ce0,,,,,,,decisionTrl,resources/DR.BMP,resources/DB.BMP,Door3,-0.273148134,-0.041666667,1,0,0,1.1996,optionLeft,70,10005,5,8,0,8,0,1,,,,,,,,,,,,,,,,,,,,,,,,,,,,,,,,,,,,,,,
,,,,,,,,2023-08-16_08h38.57.776,HF_wild_card,2022.2.4,Win32,60.29181237,5db48848cbe43e000c3c6c2d,64d2fd46c836a06233681665,64dc7cfab4bedd2148c86ce0,,,,,,,decisionTrl,resources/DY.BMP,resources/DP.BMP,Door1,0.296296353,0.013888889,1,0,0,1.5912,optionRight,30,10035,5,9,0,9,0,1,,,,,,,,,,,,,,,,,,,,,,,,,,,,,,,,,,,,,,,
,,,,,,,,2023-08-16_08h38.57.776,HF_wild_card,2022.2.4,Win32,60.29181237,5db48848cbe43e000c3c6c2d,64d2fd46c836a06233681665,64dc7cfab4bedd2148c86ce0,,,,,,,decisionTrl,resources/DY.BMP,resources/DP.BMP,Door2,-0.259259245,-0.052777778,1,0,0,1.0087,optionLeft,20,10055,5,10,0,10,0,1,,,,,,,,,,,,,,,,,,,,,,,,,,,,,,,,,,,,,,,
,,,,,,,,2023-08-16_08h38.57.776,HF_wild_card,2022.2.4,Win32,60.29181237,5db48848cbe43e000c3c6c2d,64d2fd46c836a06233681665,64dc7cfab4bedd2148c86ce0,,,,,,,ctch,resources/DB.BMP,resources/DP.BMP,Door4,-0.237962935,-0.039814843,1,0,0,1.1254,optionLeft,80,10135,5,11,0,11,0,1,,,,,,,,,,,,,,,,,,,,,,,,,,,,,,,,,,,,,,,
,,,,,,,,2023-08-16_08h38.57.776,HF_wild_card,2022.2.4,Win32,60.29181237,5db48848cbe43e000c3c6c2d,64d2fd46c836a06233681665,64dc7cfab4bedd2148c86ce0,,,,,,,decisionTrl,resources/DP.BMP,resources/DG.BMP,WildCard_NonEx,0.248148176,0.037037023,1,0,0,1.5243,optionRight,45,10180,5,12,0,12,0,1,,,,,,,,,,,,,,,,,,,,,,,,,,,,,,,,,,,,,,,
,,,,,,,,2023-08-16_08h38.57.776,HF_wild_card,2022.2.4,Win32,60.29181237,5db48848cbe43e000c3c6c2d,64d2fd46c836a06233681665,64dc7cfab4bedd2148c86ce0,,,,,,,ctch,resources/DP.BMP,resources/DB.BMP,Door4,0.317592621,0,1,0,0,1.1088,optionRight,80,10260,5,13,0,13,0,1,,,,,,,,,,,,,,,,,,,,,,,,,,,,,,,,,,,,,,,
,,,,,,,,2023-08-16_08h38.57.776,HF_wild_card,2022.2.4,Win32,60.29181237,5db48848cbe43e000c3c6c2d,64d2fd46c836a06233681665,64dc7cfab4bedd2148c86ce0,,,,,,,decisionTrl,resources/DG.BMP,resources/DP.BMP,WildCard_NonEx,-0.290740712,-0.060185199,1,0,0,1.459,optionLeft,45,10305,5,14,0,14,0,1,,,,,,,,,,,,,,,,,,,,,,,,,,,,,,,,,,,,,,,
,,,,,,,,2023-08-16_08h38.57.776,HF_wild_card,2022.2.4,Win32,60.29181237,5db48848cbe43e000c3c6c2d,64d2fd46c836a06233681665,64dc7cfab4bedd2148c86ce0,,,,,,,decisionTrl,resources/DG.BMP,resources/DB.BMP,Door4,0.337037065,-0.027777778,1,0,0,2.4394,optionRight,80,10385,5,15,0,15,0,1,,,,,,,,,,,,,,,,,,,,,,,,,,,,,,,,,,,,,,,
,,,,,,,,2023-08-16_08h38.57.776,HF_wild_card,2022.2.4,Win32,60.29181237,5db48848cbe43e000c3c6c2d,64d2fd46c836a06233681665,64dc7cfab4bedd2148c86ce0,,,,,,,sngl,resources/DP.BMP,resources/Empty.png,Door1,-0.298148134,-0.049074088,1,0,0,0.9477,optionLeft,30,10415,5,16,0,16,0,1,,,,,,,,,,,,,,,,,,,,,,,,,,,,,,,,,,,,,,,
,,,,,,,,2023-08-16_08h38.57.776,HF_wild_card,2022.2.4,Win32,60.29181237,5db48848cbe43e000c3c6c2d,64d2fd46c836a06233681665,64dc7cfab4bedd2148c86ce0,,,,,,,sngl,resources/Empty.png,resources/DG.BMP,WildCard_NonEx,0.335185242,-0.002777778,1,0,0,0.8263,optionRight,45,10460,5,17,0,17,0,1,,,,,,,,,,,,,,,,,,,,,,,,,,,,,,,,,,,,,,,
,,,,,,,,2023-08-16_08h38.57.776,HF_wild_card,2022.2.4,Win32,60.29181237,5db48848cbe43e000c3c6c2d,64d2fd46c836a06233681665,64dc7cfab4bedd2148c86ce0,,,,,,,ctch,resources/DY.BMP,resources/DR.BMP,Door3,0.346296353,-0.004629644,1,0,0,0.8878,optionRight,70,10530,5,18,0,18,0,1,,,,,,,,,,,,,,,,,,,,,,,,,,,,,,,,,,,,,,,
,,,,,,,,2023-08-16_08h38.57.776,HF_wild_card,2022.2.4,Win32,60.29181237,5db48848cbe43e000c3c6c2d,64d2fd46c836a06233681665,64dc7cfab4bedd2148c86ce0,,,,,,,decisionTrl,resources/DG.BMP,resources/DR.BMP,Door3,0.345370399,-0.009259288,1,0,0,0.8996,optionRight,70,10600,5,19,0,19,0,1,,,,,,,,,,,,,,,,,,,,,,,,,,,,,,,,,,,,,,,
,,,,,,,,2023-08-16_08h38.57.776,HF_wild_card,2022.2.4,Win32,60.29181237,5db48848cbe43e000c3c6c2d,64d2fd46c836a06233681665,64dc7cfab4bedd2148c86ce0,,,,,,,ctch,resources/DR.BMP,resources/DY.BMP,Door3,-0.31851849,-0.054629644,1,0,0,0.924,optionLeft,70,10670,5,20,0,20,0,1,,,,,,,,,,,,,,,,,,,,,,,,,,,,,,,,,,,,,,,
,,,,,,,,2023-08-16_08h38.57.776,HF_wild_card,2022.2.4,Win32,60.29181237,5db48848cbe43e000c3c6c2d,64d2fd46c836a06233681665,64dc7cfab4bedd2148c86ce0,,,,,,,sngl,resources/DR.BMP,resources/Empty.png,Door3,-0.297222222,-0.070370399,1,0,0,0.878,optionLeft,70,10740,5,21,0,21,0,1,,,,,,,,,,,,,,,,,,,,,,,,,,,,,,,,,,,,,,,
,,,,,,,,2023-08-16_08h38.57.776,HF_wild_card,2022.2.4,Win32,60.29181237,5db48848cbe43e000c3c6c2d,64d2fd46c836a06233681665,64dc7cfab4bedd2148c86ce0,,,,,,,sngl,resources/Empty.png,resources/DY.BMP,Door2,0.395370399,0.020370356,1,0,0,0.917,optionRight,20,10760,5,22,0,22,0,1,,,,,,,,,,,,,,,,,,,,,,,,,,,,,,,,,,,,,,,
,,,,,,,,2023-08-16_08h38.57.776,HF_wild_card,2022.2.4,Win32,60.29181237,5db48848cbe43e000c3c6c2d,64d2fd46c836a06233681665,64dc7cfab4bedd2148c86ce0,,,,,,,sngl,resources/DY.BMP,resources/Empty.png,Door2,-0.285185157,-0.051851866,1,0,0,0.8419,optionLeft,40,10800,5,23,0,23,0,1,,,,,,,,,,,,,,,,,,,,,,,,,,,,,,,,,,,,,,,
,,,,,,,,2023-08-16_08h38.57.776,HF_wild_card,2022.2.4,Win32,60.29181237,5db48848cbe43e000c3c6c2d,64d2fd46c836a06233681665,64dc7cfab4bedd2148c86ce0,,,,,,,decisionTrl,resources/DR.BMP,resources/DB.BMP,Door3,-0.265740712,-0.027777778,1,0,0,1.3071,optionLeft,70,10870,5,24,0,24,0,1,,,,,,,,,,,,,,,,,,,,,,,,,,,,,,,,,,,,,,,
,,,,,,,,2023-08-16_08h38.57.776,HF_wild_card,2022.2.4,Win32,60.29181237,5db48848cbe43e000c3c6c2d,64d2fd46c836a06233681665,64dc7cfab4bedd2148c86ce0,,,,,,,decisionTrl,resources/DB.BMP,resources/DR.BMP,Door3,0.272222222,0.021296268,1,0,0,1.5071,optionRight,70,10940,5,25,0,25,0,1,,,,,,,,,,,,,,,,,,,,,,,,,,,,,,,,,,,,,,,
,,,,,,,,2023-08-16_08h38.57.776,HF_wild_card,2022.2.4,Win32,60.29181237,5db48848cbe43e000c3c6c2d,64d2fd46c836a06233681665,64dc7cfab4bedd2148c86ce0,,,,,,,decisionTrl,resources/DP.BMP,resources/DY.BMP,Door1,-0.308333333,-0.087962977,1,0,0,1.3413,optionLeft,30,10970,5,26,0,26,0,1,,,,,,,,,,,,,,,,,,,,,,,,,,,,,,,,,,,,,,,
,,,,,,,,2023-08-16_08h38.57.776,HF_wild_card,2022.2.4,Win32,60.29181237,5db48848cbe43e000c3c6c2d,64d2fd46c836a06233681665,64dc7cfab4bedd2148c86ce0,,,,,,,decisionTrl,resources/DB.BMP,resources/DR.BMP,Door3,0.370370399,-0.005555556,1,0,0,1.2901,optionRight,70,11040,5,27,0,27,0,1,,,,,,,,,,,,,,,,,,,,,,,,,,,,,,,,,,,,,,,
,,,,,,,,2023-08-16_08h38.57.776,HF_wild_card,2022.2.4,Win32,60.29181237,5db48848cbe43e000c3c6c2d,64d2fd46c836a06233681665,64dc7cfab4bedd2148c86ce0,,,,,,,ctch,resources/DB.BMP,resources/DP.BMP,Door4,-0.289814801,-0.062037065,1,0,0,1.458,optionLeft,80,11120,5,28,0,28,0,1,,,,,,,,,,,,,,,,,,,,,,,,,,,,,,,,,,,,,,,
,,,,,,,,2023-08-16_08h38.57.776,HF_wild_card,2022.2.4,Win32,60.29181237,5db48848cbe43e000c3c6c2d,64d2fd46c836a06233681665,64dc7cfab4bedd2148c86ce0,,,,,,,decisionTrl,resources/DB.BMP,resources/DR.BMP,Door4,-0.241666667,-0.044444444,1,0,0,1.207,optionLeft,80,11200,5,29,0,29,0,1,,,,,,,,,,,,,,,,,,,,,,,,,,,,,,,,,,,,,,,
,,,,,,,,2023-08-16_08h38.57.776,HF_wild_card,2022.2.4,Win32,60.29181237,5db48848cbe43e000c3c6c2d,64d2fd46c836a06233681665,64dc7cfab4bedd2148c86ce0,,,,,,,decisionTrl,resources/DY.BMP,resources/DG.BMP,WildCard_NonEx,0.345370399,0.005555556,1,0,0,1.0917,optionRight,55,11255,5,30,0,30,0,1,,,,,,,,,,,,,,,,,,,,,,,,,,,,,,,,,,,,,,,
,,,,,,,,2023-08-16_08h38.57.776,HF_wild_card,2022.2.4,Win32,60.29181237,5db48848cbe43e000c3c6c2d,64d2fd46c836a06233681665,64dc7cfab4bedd2148c86ce0,,,,,,,sngl,resources/Empty.png,resources/DB.BMP,Door4,0.314814843,-0.000925954,1,0,0,0.9096,optionRight,60,11315,5,31,0,31,0,1,,,,,,,,,,,,,,,,,,,,,,,,,,,,,,,,,,,,,,,
,,,,,,,,2023-08-16_08h38.57.776,HF_wild_card,2022.2.4,Win32,60.29181237,5db48848cbe43e000c3c6c2d,64d2fd46c836a06233681665,64dc7cfab4bedd2148c86ce0,,,,,,,decisionTrl,resources/DP.BMP,resources/DY.BMP,Door2,0.362037065,0.027777778,1,0,0,1.5923,optionRight,20,11335,5,32,0,32,0,1,,,,,,,,,,,,,,,,,,,,,,,,,,,,,,,,,,,,,,,
,,,,,,,,2023-08-16_08h38.57.776,HF_wild_card,2022.2.4,Win32,60.29181237,5db48848cbe43e000c3c6c2d,64d2fd46c836a06233681665,64dc7cfab4bedd2148c86ce0,,,,,,,sngl,resources/Empty.png,resources/DP.BMP,Door1,0.362037065,-0.036111111,1,0,0,0.8732,optionRight,30,11365,5,33,0,33,0,1,,,,,,,,,,,,,,,,,,,,,,,,,,,,,,,,,,,,,,,
,,,,,,,,2023-08-16_08h38.57.776,HF_wild_card,2022.2.4,Win32,60.29181237,5db48848cbe43e000c3c6c2d,64d2fd46c836a06233681665,64dc7cfab4bedd2148c86ce0,,,,,,,decisionTrl,resources/DY.BMP,resources/DP.BMP,Door2,-0.281481467,-0.051851866,1,0,0,1.3915,optionLeft,40,11405,5,34,0,34,0,1,,,,,,,,,,,,,,,,,,,,,,,,,,,,,,,,,,,,,,,
,,,,,,,,2023-08-16_08h38.57.776,HF_wild_card,2022.2.4,Win32,60.29181237,5db48848cbe43e000c3c6c2d,64d2fd46c836a06233681665,64dc7cfab4bedd2148c86ce0,,,,,,,ctch,resources/DY.BMP,resources/DR.BMP,Door3,0.278703732,0.002777778,1,0,0,0.9252,optionRight,70,11475,5,35,0,35,0,1,,,,,,,,,,,,,,,,,,,,,,,,,,,,,,,,,,,,,,,
,,,,,,,,2023-08-16_08h38.57.776,HF_wild_card,2022.2.4,Win32,60.29181237,5db48848cbe43e000c3c6c2d,64d2fd46c836a06233681665,64dc7cfab4bedd2148c86ce0,,,,,,,decisionTrl,resources/DG.BMP,resources/DY.BMP,WildCard_NonEx,-0.361111111,-0.04629631,1,0,0,0.9799,optionLeft,45,11520,5,36,0,36,0,1,,,,,,,,,,,,,,,,,,,,,,,,,,,,,,,,,,,,,,,
,,,,,,,,2023-08-16_08h38.57.776,HF_wild_card,2022.2.4,Win32,60.29181237,5db48848cbe43e000c3c6c2d,64d2fd46c836a06233681665,64dc7cfab4bedd2148c86ce0,,,,,,,sngl,resources/Empty.png,resources/DR.BMP,Door3,0.423148176,0.017592578,1,0,0,0.8592,optionRight,70,11590,5,37,0,37,0,1,,,,,,,,,,,,,,,,,,,,,,,,,,,,,,,,,,,,,,,
,,,,,,,,2023-08-16_08h38.57.776,HF_wild_card,2022.2.4,Win32,60.29181237,5db48848cbe43e000c3c6c2d,64d2fd46c836a06233681665,64dc7cfab4bedd2148c86ce0,,,,,,,ctch,resources/DP.BMP,resources/DB.BMP,Door4,0.435185242,0.050925912,1,0,0,1.0277,optionRight,80,11670,5,38,0,38,0,1,,,,,,,,,,,,,,,,,,,,,,,,,,,,,,,,,,,,,,,
,,,,,,,,2023-08-16_08h38.57.776,HF_wild_card,2022.2.4,Win32,60.29181237,5db48848cbe43e000c3c6c2d,64d2fd46c836a06233681665,64dc7cfab4bedd2148c86ce0,,,,,,,decisionTrl,resources/DR.BMP,resources/DB.BMP,Door4,0.338888889,0.032407379,1,0,0,1.7688,optionRight,80,11750,5,39,0,39,0,1,,,,,,,,,,,,,,,,,,,,,,,,,,,,,,,,,,,,,,,
,,,,,,,,2023-08-16_08h38.57.776,HF_wild_card,2022.2.4,Win32,60.29181237,5db48848cbe43e000c3c6c2d,64d2fd46c836a06233681665,64dc7cfab4bedd2148c86ce0,,,,,,,decisionTrl,resources/DP.BMP,resources/DY.BMP,Door1,-0.3,-0.049074088,1,0,0,1.6781,optionLeft,30,11780,5,40,0,40,0,1,,,,,,,,,,,,,,,,,,,,,,,,,,,,,,,,,,,,,,,
,,,,,,,,2023-08-16_08h38.57.776,HF_wild_card,2022.2.4,Win32,60.29181237,5db48848cbe43e000c3c6c2d,64d2fd46c836a06233681665,64dc7cfab4bedd2148c86ce0,,,,,,,sngl,resources/DG.BMP,resources/Empty.png,WildCard_NonEx,-0.270370356,-0.009259288,1,0,0,0.8835,optionLeft,55,11835,5,41,0,41,0,1,,,,,,,,,,,,,,,,,,,,,,,,,,,,,,,,,,,,,,,
,,,,,,,,2023-08-16_08h38.57.776,HF_wild_card,2022.2.4,Win32,60.29181237,5db48848cbe43e000c3c6c2d,64d2fd46c836a06233681665,64dc7cfab4bedd2148c86ce0,,,,,,,sngl,resources/DB.BMP,resources/Empty.png,Door4,-0.30370369,-0.062962977,1,0,0,0.8624,optionLeft,80,11915,5,42,0,42,0,1,,,,,,,,,,,,,,,,,,,,,,,,,,,,,,,,,,,,,,,
,,,,,,,,2023-08-16_08h38.57.776,HF_wild_card,2022.2.4,Win32,60.29181237,5db48848cbe43e000c3c6c2d,64d2fd46c836a06233681665,64dc7cfab4bedd2148c86ce0,,,,,,,decisionTrl,resources/DR.BMP,resources/DB.BMP,Door3,-0.276851824,-0.042592621,1,0,0,1.8243,optionLeft,70,11985,5,43,0,43,0,1,,,,,,,,,,,,,,,,,,,,,,,,,,,,,,,,,,,,,,,
,,,,,,,,2023-08-16_08h38.57.776,HF_wild_card,2022.2.4,Win32,60.29181237,5db48848cbe43e000c3c6c2d,64d2fd46c836a06233681665,64dc7cfab4bedd2148c86ce0,,,,,,,,,,,,,,,,,,,,,,,,,,4,0,4,0,1,,,,,,,,,,,,,,,,,,,,,,,,,,,,,,,,,,
,,,,,,,,2023-08-16_08h38.57.776,HF_wild_card,2022.2.4,Win32,60.29181237,5db48848cbe43e000c3c6c2d,64d2fd46c836a06233681665,64dc7cfab4bedd2148c86ce0,,,,,,,ctch,resources/DB.BMP,resources/DP.BMP,Door4,-0.304629601,-0.101851866,1,0,0,1.875,optionLeft,80,12065,6,0,0,0,0,1,,,,,,,,,,,,,,,,,,,,,,,,,,,,,,,,,,,,,,,
,,,,,,,,2023-08-16_08h38.57.776,HF_wild_card,2022.2.4,Win32,60.29181237,5db48848cbe43e000c3c6c2d,64d2fd46c836a06233681665,64dc7cfab4bedd2148c86ce0,,,,,,,sngl,resources/Empty.png,resources/DG.BMP,WildCard_NonEx,0.383333333,-0.004629644,1,0,0,0.9042,optionRight,45,12110,6,1,0,1,0,1,,,,,,,,,,,,,,,,,,,,,,,,,,,,,,,,,,,,,,,
,,,,,,,,2023-08-16_08h38.57.776,HF_wild_card,2022.2.4,Win32,60.29181237,5db48848cbe43e000c3c6c2d,64d2fd46c836a06233681665,64dc7cfab4bedd2148c86ce0,,,,,,,ctch,resources/DY.BMP,resources/DR.BMP,Door3,0.348148176,-0.03148151,1,0,0,1.0437,optionRight,70,12180,6,2,0,2,0,1,,,,,,,,,,,,,,,,,,,,,,,,,,,,,,,,,,,,,,,
,,,,,,,,2023-08-16_08h38.57.776,HF_wild_card,2022.2.4,Win32,60.29181237,5db48848cbe43e000c3c6c2d,64d2fd46c836a06233681665,64dc7cfab4bedd2148c86ce0,,,,,,,ctch,resources/DR.BMP,resources/DY.BMP,Door3,-0.333333333,-0.043518533,1,0,0,1.3767,optionLeft,70,12250,6,3,0,3,0,1,,,,,,,,,,,,,,,,,,,,,,,,,,,,,,,,,,,,,,,
,,,,,,,,2023-08-16_08h38.57.776,HF_wild_card,2022.2.4,Win32,60.29181237,5db48848cbe43e000c3c6c2d,64d2fd46c836a06233681665,64dc7cfab4bedd2148c86ce0,,,,,,,ctch,resources/DR.BMP,resources/DY.BMP,Door3,-0.294444444,-0.08148151,1,0,0,1.9194,optionLeft,70,12320,6,4,0,4,0,1,,,,,,,,,,,,,,,,,,,,,,,,,,,,,,,,,,,,,,,
,,,,,,,,2023-08-16_08h38.57.776,HF_wild_card,2022.2.4,Win32,60.29181237,5db48848cbe43e000c3c6c2d,64d2fd46c836a06233681665,64dc7cfab4bedd2148c86ce0,,,,,,,decisionTrl,resources/DG.BMP,resources/DB.BMP,Door4,0.380555556,0.010185157,1,0,0,1.1984,optionRight,60,12380,6,5,0,5,0,1,,,,,,,,,,,,,,,,,,,,,,,,,,,,,,,,,,,,,,,
,,,,,,,,2023-08-16_08h38.57.776,HF_wild_card,2022.2.4,Win32,60.29181237,5db48848cbe43e000c3c6c2d,64d2fd46c836a06233681665,64dc7cfab4bedd2148c86ce0,,,,,,,decisionTrl,resources/DB.BMP,resources/DR.BMP,Door4,-0.267592578,-0.039814843,1,0,0,1.5075,optionLeft,80,12460,6,6,0,6,0,1,,,,,,,,,,,,,,,,,,,,,,,,,,,,,,,,,,,,,,,
,,,,,,,,2023-08-16_08h38.57.776,HF_wild_card,2022.2.4,Win32,60.29181237,5db48848cbe43e000c3c6c2d,64d2fd46c836a06233681665,64dc7cfab4bedd2148c86ce0,,,,,,,decisionTrl,resources/DB.BMP,resources/DR.BMP,Door4,-0.275925912,-0.029629644,1,0,0,0.9906,optionLeft,80,12540,6,7,0,7,0,1,,,,,,,,,,,,,,,,,,,,,,,,,,,,,,,,,,,,,,,
,,,,,,,,2023-08-16_08h38.57.776,HF_wild_card,2022.2.4,Win32,60.29181237,5db48848cbe43e000c3c6c2d,64d2fd46c836a06233681665,64dc7cfab4bedd2148c86ce0,,,,,,,ctch,resources/DP.BMP,resources/DB.BMP,Door4,0.340740797,-0.017592621,1,0,0,0.975,optionRight,80,12620,6,8,0,8,0,1,,,,,,,,,,,,,,,,,,,,,,,,,,,,,,,,,,,,,,,
,,,,,,,,2023-08-16_08h38.57.776,HF_wild_card,2022.2.4,Win32,60.29181237,5db48848cbe43e000c3c6c2d,64d2fd46c836a06233681665,64dc7cfab4bedd2148c86ce0,,,,,,,sngl,resources/Empty.png,resources/DP.BMP,Door1,0.339814843,-0.009259288,1,0,0,0.9178,optionRight,30,12650,6,9,0,9,0,1,,,,,,,,,,,,,,,,,,,,,,,,,,,,,,,,,,,,,,,
,,,,,,,,2023-08-16_08h38.57.776,HF_wild_card,2022.2.4,Win32,60.29181237,5db48848cbe43e000c3c6c2d,64d2fd46c836a06233681665,64dc7cfab4bedd2148c86ce0,,,,,,,sngl,resources/DG.BMP,resources/Empty.png,WildCard_NonEx,-0.287037023,-0.024074088,1,0,0,0.9103,optionLeft,55,12705,6,10,0,10,0,1,,,,,,,,,,,,,,,,,,,,,,,,,,,,,,,,,,,,,,,
,,,,,,,,2023-08-16_08h38.57.776,HF_wild_card,2022.2.4,Win32,60.29181237,5db48848cbe43e000c3c6c2d,64d2fd46c836a06233681665,64dc7cfab4bedd2148c86ce0,,,,,,,decisionTrl,resources/DG.BMP,resources/DY.BMP,WildCard_NonEx,-0.350925912,-0.05648151,1,0,0,1.1931,optionLeft,45,12750,6,11,0,11,0,1,,,,,,,,,,,,,,,,,,,,,,,,,,,,,,,,,,,,,,,
,,,,,,,,2023-08-16_08h38.57.776,HF_wild_card,2022.2.4,Win32,60.29181237,5db48848cbe43e000c3c6c2d,64d2fd46c836a06233681665,64dc7cfab4bedd2148c86ce0,,,,,,,sngl,resources/DY.BMP,resources/Empty.png,Door2,-0.287962935,-0.029629644,1,0,0,0.9429,optionLeft,20,12770,6,12,0,12,0,1,,,,,,,,,,,,,,,,,,,,,,,,,,,,,,,,,,,,,,,
,,,,,,,,2023-08-16_08h38.57.776,HF_wild_card,2022.2.4,Win32,60.29181237,5db48848cbe43e000c3c6c2d,64d2fd46c836a06233681665,64dc7cfab4bedd2148c86ce0,,,,,,,decisionTrl,resources/DR.BMP,resources/DB.BMP,Door3,-0.316666667,-0.025925954,1,0,0,1.512,optionLeft,70,12840,6,13,0,13,0,1,,,,,,,,,,,,,,,,,,,,,,,,,,,,,,,,,,,,,,,
,,,,,,,,2023-08-16_08h38.57.776,HF_wild_card,2022.2.4,Win32,60.29181237,5db48848cbe43e000c3c6c2d,64d2fd46c836a06233681665,64dc7cfab4bedd2148c86ce0,,,,,,,ctch,resources/DY.BMP,resources/DR.BMP,Door3,0.053703732,-0.015740755,1,0,0,0.8716,optionRight,70,12910,6,14,0,14,0,1,,,,,,,,,,,,,,,,,,,,,,,,,,,,,,,,,,,,,,,
,,,,,,,,2023-08-16_08h38.57.776,HF_wild_card,2022.2.4,Win32,60.29181237,5db48848cbe43e000c3c6c2d,64d2fd46c836a06233681665,64dc7cfab4bedd2148c86ce0,,,,,,,sngl,resources/Empty.png,resources/DY.BMP,Door2,0.336111111,0.017592578,1,0,0,0.8437,optionRight,40,12950,6,15,0,15,0,1,,,,,,,,,,,,,,,,,,,,,,,,,,,,,,,,,,,,,,,
,,,,,,,,2023-08-16_08h38.57.776,HF_wild_card,2022.2.4,Win32,60.29181237,5db48848cbe43e000c3c6c2d,64d2fd46c836a06233681665,64dc7cfab4bedd2148c86ce0,,,,,,,decisionTrl,resources/DP.BMP,resources/DY.BMP,Door2,0.395370399,0.013888889,1,0,0,1.0078,optionRight,40,12990,6,16,0,16,0,1,,,,,,,,,,,,,,,,,,,,,,,,,,,,,,,,,,,,,,,
,,,,,,,,2023-08-16_08h38.57.776,HF_wild_card,2022.2.4,Win32,60.29181237,5db48848cbe43e000c3c6c2d,64d2fd46c836a06233681665,64dc7cfab4bedd2148c86ce0,,,,,,,ctch,resources/DB.BMP,resources/DP.BMP,Door4,-0.322222222,-0.016666667,1,0,0,1.1929,optionLeft,60,13050,6,17,0,17,0,1,,,,,,,,,,,,,,,,,,,,,,,,,,,,,,,,,,,,,,,
,,,,,,,,2023-08-16_08h38.57.776,HF_wild_card,2022.2.4,Win32,60.29181237,5db48848cbe43e000c3c6c2d,64d2fd46c836a06233681665,64dc7cfab4bedd2148c86ce0,,,,,,,sngl,resources/Empty.png,resources/DR.BMP,Door3,0.336111111,-0.002777778,1,0,0,0.8912,optionRight,70,13120,6,18,0,18,0,1,,,,,,,,,,,,,,,,,,,,,,,,,,,,,,,,,,,,,,,
,,,,,,,,2023-08-16_08h38.57.776,HF_wild_card,2022.2.4,Win32,60.29181237,5db48848cbe43e000c3c6c2d,64d2fd46c836a06233681665,64dc7cfab4bedd2148c86ce0,,,,,,,decisionTrl,resources/DG.BMP,resources/DP.BMP,WildCard_NonEx,-0.317592578,-0.040740755,1,0,0,1.1414,optionLeft,45,13165,6,19,0,19,0,1,,,,,,,,,,,,,,,,,,,,,,,,,,,,,,,,,,,,,,,
,,,,,,,,2023-08-16_08h38.57.776,HF_wild_card,2022.2.4,Win32,60.29181237,5db48848cbe43e000c3c6c2d,64d2fd46c836a06233681665,64dc7cfab4bedd2148c86ce0,,,,,,,decisionTrl,resources/DG.BMP,resources/DR.BMP,Door3,0.363888889,-0.012037065,1,0,0,1.2089,optionRight,70,13235,6,20,0,20,0,1,,,,,,,,,,,,,,,,,,,,,,,,,,,,,,,,,,,,,,,
,,,,,,,,2023-08-16_08h38.57.776,HF_wild_card,2022.2.4,Win32,60.29181237,5db48848cbe43e000c3c6c2d,64d2fd46c836a06233681665,64dc7cfab4bedd2148c86ce0,,,,,,,ctch,resources/DP.BMP,resources/DB.BMP,Door4,0.382407464,0.000925912,1,0,0,0.9776,optionRight,60,13295,6,21,0,21,0,1,,,,,,,,,,,,,,,,,,,,,,,,,,,,,,,,,,,,,,,
,,,,,,,,2023-08-16_08h38.57.776,HF_wild_card,2022.2.4,Win32,60.29181237,5db48848cbe43e000c3c6c2d,64d2fd46c836a06233681665,64dc7cfab4bedd2148c86ce0,,,,,,,sngl,resources/DB.BMP,resources/Empty.png,Door4,-0.315740712,-0.044444444,1,0,0,0.8775,optionLeft,60,13355,6,22,0,22,0,1,,,,,,,,,,,,,,,,,,,,,,,,,,,,,,,,,,,,,,,
,,,,,,,,2023-08-16_08h38.57.776,HF_wild_card,2022.2.4,Win32,60.29181237,5db48848cbe43e000c3c6c2d,64d2fd46c836a06233681665,64dc7cfab4bedd2148c86ce0,,,,,,,decisionTrl,resources/DP.BMP,resources/DY.BMP,Door2,0.337037065,0.001851824,1,0,0,1.8573,optionRight,40,13395,6,23,0,23,0,1,,,,,,,,,,,,,,,,,,,,,,,,,,,,,,,,,,,,,,,
,,,,,,,,2023-08-16_08h38.57.776,HF_wild_card,2022.2.4,Win32,60.29181237,5db48848cbe43e000c3c6c2d,64d2fd46c836a06233681665,64dc7cfab4bedd2148c86ce0,,,,,,,decisionTrl,resources/DY.BMP,resources/DP.BMP,Door2,-0.311111111,-0.015740755,1,0,0,0.9918,optionLeft,20,13415,6,24,0,24,0,1,,,,,,,,,,,,,,,,,,,,,,,,,,,,,,,,,,,,,,,
,,,,,,,,2023-08-16_08h38.57.776,HF_wild_card,2022.2.4,Win32,60.29181237,5db48848cbe43e000c3c6c2d,64d2fd46c836a06233681665,64dc7cfab4bedd2148c86ce0,,,,,,,decisionTrl,resources/DR.BMP,resources/DB.BMP,Door4,0.35,0.006481467,1,0,0,1.7413,optionRight,80,13495,6,25,0,25,0,1,,,,,,,,,,,,,,,,,,,,,,,,,,,,,,,,,,,,,,,
,,,,,,,,2023-08-16_08h38.57.776,HF_wild_card,2022.2.4,Win32,60.29181237,5db48848cbe43e000c3c6c2d,64d2fd46c836a06233681665,64dc7cfab4bedd2148c86ce0,,,,,,,decisionTrl,resources/DB.BMP,resources/DR.BMP,Door4,-0.383333333,-0.032407422,1,0,0,1.2584,optionLeft,80,13575,6,26,0,26,0,1,,,,,,,,,,,,,,,,,,,,,,,,,,,,,,,,,,,,,,,
,,,,,,,,2023-08-16_08h38.57.776,HF_wild_card,2022.2.4,Win32,60.29181237,5db48848cbe43e000c3c6c2d,64d2fd46c836a06233681665,64dc7cfab4bedd2148c86ce0,,,,,,,sngl,resources/DR.BMP,resources/Empty.png,Door3,-0.266666667,-0.019444444,1,0,0,0.9078,optionLeft,70,13645,6,27,0,27,0,1,,,,,,,,,,,,,,,,,,,,,,,,,,,,,,,,,,,,,,,
,,,,,,,,2023-08-16_08h38.57.776,HF_wild_card,2022.2.4,Win32,60.29181237,5db48848cbe43e000c3c6c2d,64d2fd46c836a06233681665,64dc7cfab4bedd2148c86ce0,,,,,,,decisionTrl,resources/DP.BMP,resources/DY.BMP,Door2,0.484259288,0.01851849,1,0,0,2.39,optionRight,20,13665,6,28,0,28,0,1,,,,,,,,,,,,,,,,,,,,,,,,,,,,,,,,,,,,,,,
,,,,,,,,2023-08-16_08h38.57.776,HF_wild_card,2022.2.4,Win32,60.29181237,5db48848cbe43e000c3c6c2d,64d2fd46c836a06233681665,64dc7cfab4bedd2148c86ce0,,,,,,,decisionTrl,resources/DP.BMP,resources/DY.BMP,Door2,0.359259288,0.008333333,1,0,0,1.4936,optionRight,40,13705,6,29,0,29,0,1,,,,,,,,,,,,,,,,,,,,,,,,,,,,,,,,,,,,,,,
,,,,,,,,2023-08-16_08h38.57.776,HF_wild_card,2022.2.4,Win32,60.29181237,5db48848cbe43e000c3c6c2d,64d2fd46c836a06233681665,64dc7cfab4bedd2148c86ce0,,,,,,,decisionTrl,resources/DB.BMP,resources/DG.BMP,Door4,-0.359259245,-0.047222222,1,0,0,1.2406,optionLeft,60,13765,6,30,0,30,0,1,,,,,,,,,,,,,,,,,,,,,,,,,,,,,,,,,,,,,,,
,,,,,,,,2023-08-16_08h38.57.776,HF_wild_card,2022.2.4,Win32,60.29181237,5db48848cbe43e000c3c6c2d,64d2fd46c836a06233681665,64dc7cfab4bedd2148c86ce0,,,,,,,decisionTrl,resources/DY.BMP,resources/DP.BMP,Door2,-0.337037023,-0.051851866,1,0,0,1.8095,optionLeft,20,13785,6,31,0,31,0,1,,,,,,,,,,,,,,,,,,,,,,,,,,,,,,,,,,,,,,,
,,,,,,,,2023-08-16_08h38.57.776,HF_wild_card,2022.2.4,Win32,60.29181237,5db48848cbe43e000c3c6c2d,64d2fd46c836a06233681665,64dc7cfab4bedd2148c86ce0,,,,,,,sngl,resources/Empty.png,resources/DB.BMP,Door4,0.375925954,0.039814801,1,0,0,0.9595,optionRight,80,13865,6,32,0,32,0,1,,,,,,,,,,,,,,,,,,,,,,,,,,,,,,,,,,,,,,,
,,,,,,,,2023-08-16_08h38.57.776,HF_wild_card,2022.2.4,Win32,60.29181237,5db48848cbe43e000c3c6c2d,64d2fd46c836a06233681665,64dc7cfab4bedd2148c86ce0,,,,,,,sngl,resources/DP.BMP,resources/Empty.png,Door1,-0.296296268,-0.030555556,1,0,0,0.9584,optionLeft,30,13895,6,33,0,33,0,1,,,,,,,,,,,,,,,,,,,,,,,,,,,,,,,,,,,,,,,
,,,,,,,,2023-08-16_08h38.57.776,HF_wild_card,2022.2.4,Win32,60.29181237,5db48848cbe43e000c3c6c2d,64d2fd46c836a06233681665,64dc7cfab4bedd2148c86ce0,,,,,,,sngl,resources/Empty.png,resources/DG.BMP,WildCard_NonEx,0.398148176,0.023148134,1,0,0,0.8585,optionRight,55,13950,6,34,0,34,0,1,,,,,,,,,,,,,,,,,,,,,,,,,,,,,,,,,,,,,,,
,,,,,,,,2023-08-16_08h38.57.776,HF_wild_card,2022.2.4,Win32,60.29181237,5db48848cbe43e000c3c6c2d,64d2fd46c836a06233681665,64dc7cfab4bedd2148c86ce0,,,,,,,decisionTrl,resources/DR.BMP,resources/DB.BMP,Door3,-0.344444444,-0.062037065,1,0,0,1.4089,optionLeft,70,14020,6,35,0,35,0,1,,,,,,,,,,,,,,,,,,,,,,,,,,,,,,,,,,,,,,,
,,,,,,,,2023-08-16_08h38.57.776,HF_wild_card,2022.2.4,Win32,60.29181237,5db48848cbe43e000c3c6c2d,64d2fd46c836a06233681665,64dc7cfab4bedd2148c86ce0,,,,,,,decisionTrl,resources/DR.BMP,resources/DB.BMP,Door4,0.342592621,-0.003703732,1,0,0,0.9421,optionRight,80,14100,6,36,0,36,0,1,,,,,,,,,,,,,,,,,,,,,,,,,,,,,,,,,,,,,,,
,,,,,,,,2023-08-16_08h38.57.776,HF_wild_card,2022.2.4,Win32,60.29181237,5db48848cbe43e000c3c6c2d,64d2fd46c836a06233681665,64dc7cfab4bedd2148c86ce0,,,,,,,decisionTrl,resources/DR.BMP,resources/DG.BMP,Door3,-0.295370356,-0.047222222,1,0,0,1.2419,optionLeft,70,14170,6,37,0,37,0,1,,,,,,,,,,,,,,,,,,,,,,,,,,,,,,,,,,,,,,,
,,,,,,,,2023-08-16_08h38.57.776,HF_wild_card,2022.2.4,Win32,60.29181237,5db48848cbe43e000c3c6c2d,64d2fd46c836a06233681665,64dc7cfab4bedd2148c86ce0,,,,,,,decisionTrl,resources/DY.BMP,resources/DP.BMP,Door2,-0.319444444,-0.04629631,1,0,0,1.6574,optionLeft,40,14210,6,38,0,38,0,1,,,,,,,,,,,,,,,,,,,,,,,,,,,,,,,,,,,,,,,
,,,,,,,,2023-08-16_08h38.57.776,HF_wild_card,2022.2.4,Win32,60.29181237,5db48848cbe43e000c3c6c2d,64d2fd46c836a06233681665,64dc7cfab4bedd2148c86ce0,,,,,,,decisionTrl,resources/DY.BMP,resources/DP.BMP,Door2,-0.337962935,-0.025925954,1,0,0,1.0576,optionLeft,20,14230,6,39,0,39,0,1,,,,,,,,,,,,,,,,,,,,,,,,,,,,,,,,,,,,,,,
,,,,,,,,2023-08-16_08h38.57.776,HF_wild_card,2022.2.4,Win32,60.29181237,5db48848cbe43e000c3c6c2d,64d2fd46c836a06233681665,64dc7cfab4bedd2148c86ce0,,,,,,,decisionTrl,resources/DP.BMP,resources/DG.BMP,WildCard_NonEx,0.341666667,0.016666667,1,0,0,1.6081,optionRight,45,14275,6,40,0,40,0,1,,,,,,,,,,,,,,,,,,,,,,,,,,,,,,,,,,,,,,,
,,,,,,,,2023-08-16_08h38.57.776,HF_wild_card,2022.2.4,Win32,60.29181237,5db48848cbe43e000c3c6c2d,64d2fd46c836a06233681665,64dc7cfab4bedd2148c86ce0,,,,,,,decisionTrl,resources/DB.BMP,resources/DR.BMP,Door4,-0.289814801,-0.034259288,1,0,0,1.2137,optionLeft,60,14335,6,41,0,41,0,1,,,,,,,,,,,,,,,,,,,,,,,,,,,,,,,,,,,,,,,
,,,,,,,,2023-08-16_08h38.57.776,HF_wild_card,2022.2.4,Win32,60.29181237,5db48848cbe43e000c3c6c2d,64d2fd46c836a06233681665,64dc7cfab4bedd2148c86ce0,,,,,,,sngl,resources/DG.BMP,resources/Empty.png,WildCard_NonEx,-0.30370369,-0.033333333,1,0,0,0.9046,optionLeft,45,14380,6,42,0,42,0,1,,,,,,,,,,,,,,,,,,,,,,,,,,,,,,,,,,,,,,,
,,,,,,,,2023-08-16_08h38.57.776,HF_wild_card,2022.2.4,Win32,60.29181237,5db48848cbe43e000c3c6c2d,64d2fd46c836a06233681665,64dc7cfab4bedd2148c86ce0,,,,,,,decisionTrl,resources/DY.BMP,resources/DG.BMP,WildCard_NonEx,0.373148176,0.006481467,1,0,0,1.2178,optionRight,45,14425,6,43,0,43,0,1,,,,,,,,,,,,,,,,,,,,,,,,,,,,,,,,,,,,,,,
,,,,,,,,2023-08-16_08h38.57.776,HF_wild_card,2022.2.4,Win32,60.29181237,5db48848cbe43e000c3c6c2d,64d2fd46c836a06233681665,64dc7cfab4bedd2148c86ce0,,,,,,,,,,,,,,,,,,,,,,,,,,5,0,5,0,1,,,,,,,,,,,,,,,,,,,,,,,,,,,,,,,,,,
,,,,,,,,2023-08-16_08h38.57.776,HF_wild_card,2022.2.4,Win32,60.29181237,5db48848cbe43e000c3c6c2d,64d2fd46c836a06233681665,64dc7cfab4bedd2148c86ce0,,,,,,,decisionTrl,resources/DR.BMP,resources/DB.BMP,Door3,-0.374074046,-0.057407422,1,0,0,1.9084,optionLeft,70,14495,7,0,0,0,0,1,,,,,,,,,,,,,,,,,,,,,,,,,,,,,,,,,,,,,,,
,,,,,,,,2023-08-16_08h38.57.776,HF_wild_card,2022.2.4,Win32,60.29181237,5db48848cbe43e000c3c6c2d,64d2fd46c836a06233681665,64dc7cfab4bedd2148c86ce0,,,,,,,decisionTrl,resources/DR.BMP,resources/DB.BMP,Door3,-0.351851824,-0.065740755,1,0,0,1.1064,optionLeft,70,14565,7,1,0,1,0,1,,,,,,,,,,,,,,,,,,,,,,,,,,,,,,,,,,,,,,,
,,,,,,,,2023-08-16_08h38.57.776,HF_wild_card,2022.2.4,Win32,60.29181237,5db48848cbe43e000c3c6c2d,64d2fd46c836a06233681665,64dc7cfab4bedd2148c86ce0,,,,,,,ctch,resources/DY.BMP,resources/DR.BMP,Door3,0.420370399,-0.015740755,1,0,0,1.1455,optionRight,70,14635,7,2,0,2,0,1,,,,,,,,,,,,,,,,,,,,,,,,,,,,,,,,,,,,,,,
,,,,,,,,2023-08-16_08h38.57.776,HF_wild_card,2022.2.4,Win32,60.29181237,5db48848cbe43e000c3c6c2d,64d2fd46c836a06233681665,64dc7cfab4bedd2148c86ce0,,,,,,,decisionTrl,resources/DB.BMP,resources/DR.BMP,Door3,0.291666667,-0.035185199,1,0,0,1.0632,optionRight,70,14705,7,3,0,3,0,1,,,,,,,,,,,,,,,,,,,,,,,,,,,,,,,,,,,,,,,
,,,,,,,,2023-08-16_08h38.57.776,HF_wild_card,2022.2.4,Win32,60.29181237,5db48848cbe43e000c3c6c2d,64d2fd46c836a06233681665,64dc7cfab4bedd2148c86ce0,,,,,,,decisionTrl,resources/DB.BMP,resources/DR.BMP,Door4,-0.30370369,-0.050925954,1,0,0,0.7983,optionLeft,60,14765,7,4,0,4,0,1,,,,,,,,,,,,,,,,,,,,,,,,,,,,,,,,,,,,,,,
,,,,,,,,2023-08-16_08h38.57.776,HF_wild_card,2022.2.4,Win32,60.29181237,5db48848cbe43e000c3c6c2d,64d2fd46c836a06233681665,64dc7cfab4bedd2148c86ce0,,,,,,,decisionTrl,resources/DP.BMP,resources/DY.BMP,Door2,0.354629686,-0.016666667,1,0,0,1.3253,optionRight,20,14785,7,5,0,5,0,1,,,,,,,,,,,,,,,,,,,,,,,,,,,,,,,,,,,,,,,
,,,,,,,,2023-08-16_08h38.57.776,HF_wild_card,2022.2.4,Win32,60.29181237,5db48848cbe43e000c3c6c2d,64d2fd46c836a06233681665,64dc7cfab4bedd2148c86ce0,,,,,,,decisionTrl,resources/DP.BMP,resources/DY.BMP,Door2,0.378703732,-0.040740755,1,0,0,1.0404,optionRight,40,14825,7,6,0,6,0,1,,,,,,,,,,,,,,,,,,,,,,,,,,,,,,,,,,,,,,,
,,,,,,,,2023-08-16_08h38.57.776,HF_wild_card,2022.2.4,Win32,60.29181237,5db48848cbe43e000c3c6c2d,64d2fd46c836a06233681665,64dc7cfab4bedd2148c86ce0,,,,,,,ctch,resources/DB.BMP,resources/DP.BMP,Door4,-0.324074046,-0.041666667,1,0,0,1.3306,optionLeft,60,14885,7,7,0,7,0,1,,,,,,,,,,,,,,,,,,,,,,,,,,,,,,,,,,,,,,,
,,,,,,,,2023-08-16_08h38.57.776,HF_wild_card,2022.2.4,Win32,60.29181237,5db48848cbe43e000c3c6c2d,64d2fd46c836a06233681665,64dc7cfab4bedd2148c86ce0,,,,,,,ctch,resources/DB.BMP,resources/DP.BMP,Door4,-0.346296268,-0.050925954,1,0,0,0.9328,optionLeft,80,14965,7,8,0,8,0,1,,,,,,,,,,,,,,,,,,,,,,,,,,,,,,,,,,,,,,,
,,,,,,,,2023-08-16_08h38.57.776,HF_wild_card,2022.2.4,Win32,60.29181237,5db48848cbe43e000c3c6c2d,64d2fd46c836a06233681665,64dc7cfab4bedd2148c86ce0,,,,,,,ctch,resources/DY.BMP,resources/DR.BMP,Door3,0.393518575,-0.038888889,1,0,0,1.063,optionRight,70,15035,7,9,0,9,0,1,,,,,,,,,,,,,,,,,,,,,,,,,,,,,,,,,,,,,,,
,,,,,,,,2023-08-16_08h38.57.776,HF_wild_card,2022.2.4,Win32,60.29181237,5db48848cbe43e000c3c6c2d,64d2fd46c836a06233681665,64dc7cfab4bedd2148c86ce0,,,,,,,decisionTrl,resources/DY.BMP,resources/DP.BMP,Door2,-0.250925912,-0.035185199,1,0,0,1.5462,optionLeft,20,15055,7,10,0,10,0,1,,,,,,,,,,,,,,,,,,,,,,,,,,,,,,,,,,,,,,,
,,,,,,,,2023-08-16_08h38.57.776,HF_wild_card,2022.2.4,Win32,60.29181237,5db48848cbe43e000c3c6c2d,64d2fd46c836a06233681665,64dc7cfab4bedd2148c86ce0,,,,,,,decisionTrl,resources/DR.BMP,resources/DB.BMP,Door3,-0.282407379,-0.051851866,1,0,0,1.3486,optionLeft,70,15125,7,11,0,11,0,1,,,,,,,,,,,,,,,,,,,,,,,,,,,,,,,,,,,,,,,
,,,,,,,,2023-08-16_08h38.57.776,HF_wild_card,2022.2.4,Win32,60.29181237,5db48848cbe43e000c3c6c2d,64d2fd46c836a06233681665,64dc7cfab4bedd2148c86ce0,,,,,,,ctch,resources/DY.BMP,resources/DR.BMP,Door3,0.308333333,-0.008333333,1,0,0,0.9058,optionRight,70,15195,7,12,0,12,0,1,,,,,,,,,,,,,,,,,,,,,,,,,,,,,,,,,,,,,,,
,,,,,,,,2023-08-16_08h38.57.776,HF_wild_card,2022.2.4,Win32,60.29181237,5db48848cbe43e000c3c6c2d,64d2fd46c836a06233681665,64dc7cfab4bedd2148c86ce0,,,,,,,decisionTrl,resources/DY.BMP,resources/DP.BMP,Door2,-0.321296268,-0.073148176,1,0,0,1.1398,optionLeft,20,15215,7,13,0,13,0,1,,,,,,,,,,,,,,,,,,,,,,,,,,,,,,,,,,,,,,,
,,,,,,,,2023-08-16_08h38.57.776,HF_wild_card,2022.2.4,Win32,60.29181237,5db48848cbe43e000c3c6c2d,64d2fd46c836a06233681665,64dc7cfab4bedd2148c86ce0,,,,,,,decisionTrl,resources/DY.BMP,resources/DP.BMP,Door2,-0.31851849,-0.039814843,1,0,0,1.4169,optionLeft,20,15235,7,14,0,14,0,1,,,,,,,,,,,,,,,,,,,,,,,,,,,,,,,,,,,,,,,
,,,,,,,,2023-08-16_08h38.57.776,HF_wild_card,2022.2.4,Win32,60.29181237,5db48848cbe43e000c3c6c2d,64d2fd46c836a06233681665,64dc7cfab4bedd2148c86ce0,,,,,,,decisionTrl,resources/DR.BMP,resources/DB.BMP,Door3,-0.375,-0.025925954,1,0,0,1.0559,optionLeft,70,15305,7,15,0,15,0,1,,,,,,,,,,,,,,,,,,,,,,,,,,,,,,,,,,,,,,,
,,,,,,,,2023-08-16_08h38.57.776,HF_wild_card,2022.2.4,Win32,60.29181237,5db48848cbe43e000c3c6c2d,64d2fd46c836a06233681665,64dc7cfab4bedd2148c86ce0,,,,,,,ctch,resources/DR.BMP,resources/DY.BMP,Door3,-0.448148134,-0.075,1,0,0,0.9466,optionLeft,70,15375,7,16,0,16,0,1,,,,,,,,,,,,,,,,,,,,,,,,,,,,,,,,,,,,,,,
,,,,,,,,2023-08-16_08h38.57.776,HF_wild_card,2022.2.4,Win32,60.29181237,5db48848cbe43e000c3c6c2d,64d2fd46c836a06233681665,64dc7cfab4bedd2148c86ce0,,,,,,,ctch,resources/DB.BMP,resources/DP.BMP,Door4,-0.325925912,-0.05,1,0,0,1.5504,optionLeft,80,15455,7,17,0,17,0,1,,,,,,,,,,,,,,,,,,,,,,,,,,,,,,,,,,,,,,,
,,,,,,,,2023-08-16_08h38.57.776,HF_wild_card,2022.2.4,Win32,60.29181237,5db48848cbe43e000c3c6c2d,64d2fd46c836a06233681665,64dc7cfab4bedd2148c86ce0,,,,,,,ctch,resources/DP.BMP,resources/DB.BMP,Door4,0.353703732,-0.043518533,1,0,0,1.1269,optionRight,60,15515,7,18,0,18,0,1,,,,,,,,,,,,,,,,,,,,,,,,,,,,,,,,,,,,,,,
,,,,,,,,2023-08-16_08h38.57.776,HF_wild_card,2022.2.4,Win32,60.29181237,5db48848cbe43e000c3c6c2d,64d2fd46c836a06233681665,64dc7cfab4bedd2148c86ce0,,,,,,,ctch,resources/DP.BMP,resources/DB.BMP,Door4,0.391666667,-0.03148151,1,0,0,1.7761,optionRight,80,15595,7,19,0,19,0,1,,,,,,,,,,,,,,,,,,,,,,,,,,,,,,,,,,,,,,,
,,,,,,,,2023-08-16_08h38.57.776,HF_wild_card,2022.2.4,Win32,60.29181237,5db48848cbe43e000c3c6c2d,64d2fd46c836a06233681665,64dc7cfab4bedd2148c86ce0,,,,,,,decisionTrl,resources/DP.BMP,resources/DY.BMP,Door2,0.277777778,-0.027777778,1,0,0,1.4778,optionRight,40,15635,7,20,0,20,0,1,,,,,,,,,,,,,,,,,,,,,,,,,,,,,,,,,,,,,,,
,,,,,,,,2023-08-16_08h38.57.776,HF_wild_card,2022.2.4,Win32,60.29181237,5db48848cbe43e000c3c6c2d,64d2fd46c836a06233681665,64dc7cfab4bedd2148c86ce0,,,,,,,decisionTrl,resources/DP.BMP,resources/DY.BMP,Door2,0.404629686,0.027777778,1,0,0,1.0816,optionRight,40,15675,7,21,0,21,0,1,,,,,,,,,,,,,,,,,,,,,,,,,,,,,,,,,,,,,,,
,,,,,,,,2023-08-16_08h38.57.776,HF_wild_card,2022.2.4,Win32,60.29181237,5db48848cbe43e000c3c6c2d,64d2fd46c836a06233681665,64dc7cfab4bedd2148c86ce0,,,,,,,decisionTrl,resources/DR.BMP,resources/DB.BMP,Door4,0.357407464,0.011111111,1,0,0,1.0131,optionRight,60,15735,7,22,0,22,0,1,,,,,,,,,,,,,,,,,,,,,,,,,,,,,,,,,,,,,,,
,,,,,,,,2023-08-16_08h38.57.776,HF_wild_card,2022.2.4,Win32,60.29181237,5db48848cbe43e000c3c6c2d,64d2fd46c836a06233681665,64dc7cfab4bedd2148c86ce0,,,,,,,decisionTrl,resources/DB.BMP,resources/DR.BMP,Door3,0.265740797,-0.002777778,1,0,0,1.1978,optionRight,70,15805,7,23,0,23,0,1,,,,,,,,,,,,,,,,,,,,,,,,,,,,,,,,,,,,,,,
,,,,,,,,2023-08-16_08h38.57.776,HF_wild_card,2022.2.4,Win32,60.29181237,5db48848cbe43e000c3c6c2d,64d2fd46c836a06233681665,64dc7cfab4bedd2148c86ce0,,,,,,,decisionTrl,resources/DB.BMP,resources/DR.BMP,Door4,-0.426851824,-0.105555556,1,0,0,1.3493,optionLeft,60,15865,7,24,0,24,0,1,,,,,,,,,,,,,,,,,,,,,,,,,,,,,,,,,,,,,,,
,,,,,,,,2023-08-16_08h38.57.776,HF_wild_card,2022.2.4,Win32,60.29181237,5db48848cbe43e000c3c6c2d,64d2fd46c836a06233681665,64dc7cfab4bedd2148c86ce0,,,,,,,decisionTrl,resources/DP.BMP,resources/DY.BMP,Door2,0.440740797,-0.013888889,1,0,0,1.0795,optionRight,20,15885,7,25,0,25,0,1,,,,,,,,,,,,,,,,,,,,,,,,,,,,,,,,,,,,,,,
,,,,,,,,2023-08-16_08h38.57.776,HF_wild_card,2022.2.4,Win32,60.29181237,5db48848cbe43e000c3c6c2d,64d2fd46c836a06233681665,64dc7cfab4bedd2148c86ce0,,,,,,,ctch,resources/DR.BMP,resources/DY.BMP,Door3,-0.312962935,-0.061111111,1,0,0,1.015,optionLeft,70,15955,7,26,0,26,0,1,,,,,,,,,,,,,,,,,,,,,,,,,,,,,,,,,,,,,,,
,,,,,,,,2023-08-16_08h38.57.776,HF_wild_card,2022.2.4,Win32,60.29181237,5db48848cbe43e000c3c6c2d,64d2fd46c836a06233681665,64dc7cfab4bedd2148c86ce0,,,,,,,decisionTrl,resources/DY.BMP,resources/DP.BMP,Door2,-0.346296268,-0.060185199,1,0,0,1.6132,optionLeft,20,15975,7,27,0,27,0,1,,,,,,,,,,,,,,,,,,,,,,,,,,,,,,,,,,,,,,,
,,,,,,,,2023-08-16_08h38.57.776,HF_wild_card,2022.2.4,Win32,60.29181237,5db48848cbe43e000c3c6c2d,64d2fd46c836a06233681665,64dc7cfab4bedd2148c86ce0,,,,,,,decisionTrl,resources/DY.BMP,resources/DP.BMP,Door2,-0.396296268,-0.089814843,1,0,0,0.9636,optionLeft,20,15995,7,28,0,28,0,1,,,,,,,,,,,,,,,,,,,,,,,,,,,,,,,,,,,,,,,
,,,,,,,,2023-08-16_08h38.57.776,HF_wild_card,2022.2.4,Win32,60.29181237,5db48848cbe43e000c3c6c2d,64d2fd46c836a06233681665,64dc7cfab4bedd2148c86ce0,,,,,,,decisionTrl,resources/DR.BMP,resources/DB.BMP,Door3,-0.306481467,-0.049074088,1,0,0,1.3815,optionLeft,70,16065,7,29,0,29,0,1,,,,,,,,,,,,,,,,,,,,,,,,,,,,,,,,,,,,,,,
,,,,,,,,2023-08-16_08h38.57.776,HF_wild_card,2022.2.4,Win32,60.29181237,5db48848cbe43e000c3c6c2d,64d2fd46c836a06233681665,64dc7cfab4bedd2148c86ce0,,,,,,,decisionTrl,resources/DP.BMP,resources/DY.BMP,Door2,0.380555556,0.014814801,1,0,0,1.2338,optionRight,20,16085,7,30,0,30,0,1,,,,,,,,,,,,,,,,,,,,,,,,,,,,,,,,,,,,,,,
,,,,,,,,2023-08-16_08h38.57.776,HF_wild_card,2022.2.4,Win32,60.29181237,5db48848cbe43e000c3c6c2d,64d2fd46c836a06233681665,64dc7cfab4bedd2148c86ce0,,,,,,,ctch,resources/DP.BMP,resources/DB.BMP,Door4,0.312037065,-0.011111111,1,0,0,1.0765,optionRight,80,16165,7,31,0,31,0,1,,,,,,,,,,,,,,,,,,,,,,,,,,,,,,,,,,,,,,,
,,,,,,,,2023-08-16_08h38.57.776,HF_wild_card,2022.2.4,Win32,60.29181237,5db48848cbe43e000c3c6c2d,64d2fd46c836a06233681665,64dc7cfab4bedd2148c86ce0,,,,,,,decisionTrl,resources/DB.BMP,resources/DR.BMP,Door3,0.363888889,-0.012037065,1,0,0,1.2914,optionRight,70,16235,7,32,0,32,0,1,,,,,,,,,,,,,,,,,,,,,,,,,,,,,,,,,,,,,,,
,,,,,,,,2023-08-16_08h38.57.776,HF_wild_card,2022.2.4,Win32,60.29181237,5db48848cbe43e000c3c6c2d,64d2fd46c836a06233681665,64dc7cfab4bedd2148c86ce0,,,,,,,ctch,resources/DR.BMP,resources/DY.BMP,Door3,-0.390740712,-0.076851866,1,0,0,0.8631,optionLeft,70,16305,7,33,0,33,0,1,,,,,,,,,,,,,,,,,,,,,,,,,,,,,,,,,,,,,,,
,,,,,,,,2023-08-16_08h38.57.776,HF_wild_card,2022.2.4,Win32,60.29181237,5db48848cbe43e000c3c6c2d,64d2fd46c836a06233681665,64dc7cfab4bedd2148c86ce0,,,,,,,decisionTrl,resources/DB.BMP,resources/DR.BMP,Door3,0.326851908,-0.014814843,1,0,0,0.864,optionRight,70,16375,7,34,0,34,0,1,,,,,,,,,,,,,,,,,,,,,,,,,,,,,,,,,,,,,,,
,,,,,,,,2023-08-16_08h38.57.776,HF_wild_card,2022.2.4,Win32,60.29181237,5db48848cbe43e000c3c6c2d,64d2fd46c836a06233681665,64dc7cfab4bedd2148c86ce0,,,,,,,decisionTrl,resources/DY.BMP,resources/DP.BMP,Door2,-0.349074046,-0.091666667,1,0,0,1.2474,optionLeft,20,16395,7,35,0,35,0,1,,,,,,,,,,,,,,,,,,,,,,,,,,,,,,,,,,,,,,,
,,,,,,,,2023-08-16_08h38.57.776,HF_wild_card,2022.2.4,Win32,60.29181237,5db48848cbe43e000c3c6c2d,64d2fd46c836a06233681665,64dc7cfab4bedd2148c86ce0,,,,,,,,,,,,,,,,,,,,,,,,,,6,0,6,0,1,,,,,,,,,,,,,,,,,,,,,,,,,,,,,,,,,,
,,,,,,,,2023-08-16_08h38.57.776,HF_wild_card,2022.2.4,Win32,60.29181237,5db48848cbe43e000c3c6c2d,64d2fd46c836a06233681665,64dc7cfab4bedd2148c86ce0,,,,,,,,,,,,,,,,,,,,,,,,,,,,,,,4,,,,,,,,,,,,,,,,,,,,,,,,,,,,,,,,,
,,,,,,,,2023-08-16_08h38.57.776,HF_wild_card,2022.2.4,Win32,60.29181237,5db48848cbe43e000c3c6c2d,64d2fd46c836a06233681665,64dc7cfab4bedd2148c86ce0,,,,,,,,,,,,,,,,,,,,,,,,,,,,,,,,,,,,,,,,,,,,,,,,,,,,,,,,,,,,,,,,
,,,,,,,,2023-08-16_08h38.57.776,HF_wild_card,2022.2.4,Win32,60.29181237,5db48848cbe43e000c3c6c2d,64d2fd46c836a06233681665,64dc7cfab4bedd2148c86ce0,,,,,,,,,,,,,,,,,,,,,,,,,,,,,,,,5,WC_nonExtreme,resources/DG.BMP,0,0,0,0,1,,,,,,,,,,,,,,,,,,,,,,,,,
,,,,,,,,2023-08-16_08h38.57.776,HF_wild_card,2022.2.4,Win32,60.29181237,5db48848cbe43e000c3c6c2d,64d2fd46c836a06233681665,64dc7cfab4bedd2148c86ce0,,,,,,,,,,,,,,,,,,,,,,,,,,,,,,,,70,Door3,resources/DR.BMP,1,0,1,0,1,,,,,,,,,,,,,,,,,,,,,,,,,
,,,,,,,,2023-08-16_08h38.57.776,HF_wild_card,2022.2.4,Win32,60.29181237,5db48848cbe43e000c3c6c2d,64d2fd46c836a06233681665,64dc7cfab4bedd2148c86ce0,,,,,,,,,,,,,,,,,,,,,,,,,,,,,,,,60,Door4,resources/DB.BMP,2,0,2,0,1,,,,,,,,,,,,,,,,,,,,,,,,,
,,,,,,,,2023-08-16_08h38.57.776,HF_wild_card,2022.2.4,Win32,60.29181237,5db48848cbe43e000c3c6c2d,64d2fd46c836a06233681665,64dc7cfab4bedd2148c86ce0,,,,,,,,,,,,,,,,,,,,,,,,,,,,,,,,5,WC_extreme,resources/DBN.BMP,3,0,3,0,1,,,,,,,,,,,,,,,,,,,,,,,,,
,,,,,,,,2023-08-16_08h38.57.776,HF_wild_card,2022.2.4,Win32,60.29181237,5db48848cbe43e000c3c6c2d,64d2fd46c836a06233681665,64dc7cfab4bedd2148c86ce0,,,,,,,,,,,,,,,,,,,,,,,,,,,,,,,,30,Door1,resources/DP.BMP,4,0,4,0,1,,,,,,,,,,,,,,,,,,,,,,,,,
,,,,,,,,2023-08-16_08h38.57.776,HF_wild_card,2022.2.4,Win32,60.29181237,5db48848cbe43e000c3c6c2d,64d2fd46c836a06233681665,64dc7cfab4bedd2148c86ce0,,,,,,,,,,,,,,,,,,,,,,,,,,,,,,,,40,Door2,resources/DY.BMP,5,0,5,0,1,,,,,,,,,,,,,,,,,,,,,,,,,
,,,,,,,,2023-08-16_08h38.57.776,HF_wild_card,2022.2.4,Win32,60.29181237,5db48848cbe43e000c3c6c2d,64d2fd46c836a06233681665,64dc7cfab4bedd2148c86ce0,,,,,,,,,,,,,,,,,,,,,,,,,,,,,,,,,,,,,,,,,,,,,,,,,,,,,,,,,,,,,,,,
,,,,,,,,2023-08-16_08h38.57.776,HF_wild_card,2022.2.4,Win32,60.29181237,5db48848cbe43e000c3c6c2d,64d2fd46c836a06233681665,64dc7cfab4bedd2148c86ce0,,,,,,,,,,,,,,,,,,,,,,,,,,,,,,,,,,,,,,,,0,0,0,0,1,,,,,,,,,,,,,,,,,,,,
