Condition,Low fixed image (Door1),Low risky image (Door2),High fixed image (Door3),High risky image (Door4),NonExtreme Wild Card 1,NonExtreme Wild Card 2,,date,expName,psychopyVersion,OS,frameRate,PROLIFIC_PID,STUDY_ID,SESSION_ID,mouse_2.x,mouse_2.y,mouse_2.leftButton,mouse_2.midButton,mouse_2.rightButton,mouse_2.clicked_name,Trial Type,Left Option Image,Right Option Image,Chosen Door,mouse.x,mouse.y,mouse.leftButton,mouse.midButton,mouse.rightButton,mouse.time,mouse.clicked_name,Feedback,Cumulative Reward,Block,trial.thisRepN,trial.thisTrialN,trial.thisN,trial.thisIndex,trial.ran,blocks.thisRepN,blocks.thisTrialN,blocks.thisN,blocks.thisIndex,blocks.ran,Money conversion,First Outcome Reported,Shown Door (First Outcome),Displayed Image (First Outcome),outcomes.thisRepN,outcomes.thisTrialN,outcomes.thisN,outcomes.thisIndex,outcomes.ran,judgments.thisRepN,judgments.thisTrialN,judgments.thisN,judgments.thisIndex,judgments.ran,freqMouse.x,freqMouse.y,freqMouse.leftButton,freqMouse.midButton,freqMouse.rightButton,freqMouse.clicked_name,FQJ for first outcome,FQJ for second outcome,Shown Door,Displayed Image,trials.thisRepN,trials.thisTrialN,trials.thisN,trials.thisIndex,trials.ran,judgBlock.thisRepN,judgBlock.thisTrialN,judgBlock.thisN,judgBlock.thisIndex,judgBlock.ran
2,resources/DBN.BMP,resources/DR.BMP,resources/DY.BMP,resources/DG.BMP,resources/DP.BMP,resources/DB.BMP,,2023-08-16_08h40.27.301,HF_wild_card,2022.2.4,Win32,60.48874909,5ea20fd571038c119083a8df,64d2fd46c836a06233681665,64dc7d3b2cc2e184b3a08d98,,,,,,,,,,,,,,,,,,,,,,,,,,,,,,,,,,,,,,,,,,,,,,,,,,,,,,,,,,,,,,,,
,,,,,,,,2023-08-16_08h40.27.301,HF_wild_card,2022.2.4,Win32,60.48874909,5ea20fd571038c119083a8df,64d2fd46c836a06233681665,64dc7d3b2cc2e184b3a08d98,0,-0.417592578,1,0,0,agree,,,,,,,,,,,,,,,,,,,,,,,,,,,,,,,,,,,,,,,,,,,,,,,,,,,,,,,,,,
,,,,,,,,2023-08-16_08h40.27.301,HF_wild_card,2022.2.4,Win32,60.48874909,5ea20fd571038c119083a8df,64d2fd46c836a06233681665,64dc7d3b2cc2e184b3a08d98,,,,,,,,,,,,,,,,,,,,,,,,,,,,,,,,,,,,,,,,,,,,,,,,,,,,,,,,,,,,,,,,
,,,,,,,,2023-08-16_08h40.27.301,HF_wild_card,2022.2.4,Win32,60.48874909,5ea20fd571038c119083a8df,64d2fd46c836a06233681665,64dc7d3b2cc2e184b3a08d98,,,,,,,sngl,resources/Empty.png,resources/DR.BMP,Door2,0.387963048,-0.038888896,1,0,0,4.619,optionRight,20,20,1,0,0,0,0,1,,,,,,,,,,,,,,,,,,,,,,,,,,,,,,,,,,,,,,,
,,,,,,,,2023-08-16_08h40.27.301,HF_wild_card,2022.2.4,Win32,60.48874909,5ea20fd571038c119083a8df,64d2fd46c836a06233681665,64dc7d3b2cc2e184b3a08d98,,,,,,,sngl,resources/DBN.BMP,resources/Empty.png,Door1,-0.377777771,0.018518519,1,0,0,3.7155,optionLeft,30,50,1,1,0,1,0,1,,,,,,,,,,,,,,,,,,,,,,,,,,,,,,,,,,,,,,,
,,,,,,,,2023-08-16_08h40.27.301,HF_wild_card,2022.2.4,Win32,60.48874909,5ea20fd571038c119083a8df,64d2fd46c836a06233681665,64dc7d3b2cc2e184b3a08d98,,,,,,,ctch,resources/DG.BMP,resources/DBN.BMP,Door1,0.422222279,0.043518526,1,0,0,2.5718,optionRight,30,80,1,2,0,2,0,1,,,,,,,,,,,,,,,,,,,,,,,,,,,,,,,,,,,,,,,
,,,,,,,,2023-08-16_08h40.27.301,HF_wild_card,2022.2.4,Win32,60.48874909,5ea20fd571038c119083a8df,64d2fd46c836a06233681665,64dc7d3b2cc2e184b3a08d98,,,,,,,sngl,resources/Empty.png,resources/DBN.BMP,Door1,0.40833339,0.079629616,1,0,0,1.7546,optionRight,30,110,1,3,0,3,0,1,,,,,,,,,,,,,,,,,,,,,,,,,,,,,,,,,,,,,,,
,,,,,,,,2023-08-16_08h40.27.301,HF_wild_card,2022.2.4,Win32,60.48874909,5ea20fd571038c119083a8df,64d2fd46c836a06233681665,64dc7d3b2cc2e184b3a08d98,,,,,,,decisionTrl,resources/DB.BMP,resources/DG.BMP,Door4,0.421296296,0.041666667,1,0,0,2.4993,optionRight,80,190,1,4,0,4,0,1,,,,,,,,,,,,,,,,,,,,,,,,,,,,,,,,,,,,,,,
,,,,,,,,2023-08-16_08h40.27.301,HF_wild_card,2022.2.4,Win32,60.48874909,5ea20fd571038c119083a8df,64d2fd46c836a06233681665,64dc7d3b2cc2e184b3a08d98,,,,,,,decisionTrl,resources/DR.BMP,resources/DBN.BMP,Door1,0.374074159,0.062962956,1,0,0,1.3824,optionRight,30,220,1,5,0,5,0,1,,,,,,,,,,,,,,,,,,,,,,,,,,,,,,,,,,,,,,,
,,,,,,,,2023-08-16_08h40.27.301,HF_wild_card,2022.2.4,Win32,60.48874909,5ea20fd571038c119083a8df,64d2fd46c836a06233681665,64dc7d3b2cc2e184b3a08d98,,,,,,,decisionTrl,resources/DY.BMP,resources/DB.BMP,WildCard_NonEx,0.338888945,0.043518526,1,0,0,6.1835,optionRight,45,265,1,6,0,6,0,1,,,,,,,,,,,,,,,,,,,,,,,,,,,,,,,,,,,,,,,
,,,,,,,,2023-08-16_08h40.27.301,HF_wild_card,2022.2.4,Win32,60.48874909,5ea20fd571038c119083a8df,64d2fd46c836a06233681665,64dc7d3b2cc2e184b3a08d98,,,,,,,ctch,resources/DBN.BMP,resources/DG.BMP,Door1,-0.240740741,0.002777771,1,0,0,3.992,optionLeft,30,295,1,7,0,7,0,1,,,,,,,,,,,,,,,,,,,,,,,,,,,,,,,,,,,,,,,
,,,,,,,,2023-08-16_08h40.27.301,HF_wild_card,2022.2.4,Win32,60.48874909,5ea20fd571038c119083a8df,64d2fd46c836a06233681665,64dc7d3b2cc2e184b3a08d98,,,,,,,decisionTrl,resources/DR.BMP,resources/DBN.BMP,Door1,0.341666751,0.049999979,1,0,0,1.9457,optionRight,30,325,1,8,0,8,0,1,,,,,,,,,,,,,,,,,,,,,,,,,,,,,,,,,,,,,,,
,,,,,,,,2023-08-16_08h40.27.301,HF_wild_card,2022.2.4,Win32,60.48874909,5ea20fd571038c119083a8df,64d2fd46c836a06233681665,64dc7d3b2cc2e184b3a08d98,,,,,,,sngl,resources/DY.BMP,resources/Empty.png,Door3,-0.263888889,-0.032407407,1,0,0,1.555,optionLeft,70,395,1,9,0,9,0,1,,,,,,,,,,,,,,,,,,,,,,,,,,,,,,,,,,,,,,,
,,,,,,,,2023-08-16_08h40.27.301,HF_wild_card,2022.2.4,Win32,60.48874909,5ea20fd571038c119083a8df,64d2fd46c836a06233681665,64dc7d3b2cc2e184b3a08d98,,,,,,,decisionTrl,resources/DY.BMP,resources/DG.BMP,Door3,-0.267592607,-0.050925926,1,0,0,1.1056,optionLeft,70,465,1,10,0,10,0,1,,,,,,,,,,,,,,,,,,,,,,,,,,,,,,,,,,,,,,,
,,,,,,,,2023-08-16_08h40.27.301,HF_wild_card,2022.2.4,Win32,60.48874909,5ea20fd571038c119083a8df,64d2fd46c836a06233681665,64dc7d3b2cc2e184b3a08d98,,,,,,,decisionTrl,resources/DG.BMP,resources/DY.BMP,Door3,0.40370376,0.014814801,1,0,0,1.1456,optionRight,70,535,1,11,0,11,0,1,,,,,,,,,,,,,,,,,,,,,,,,,,,,,,,,,,,,,,,
,,,,,,,,2023-08-16_08h40.27.301,HF_wild_card,2022.2.4,Win32,60.48874909,5ea20fd571038c119083a8df,64d2fd46c836a06233681665,64dc7d3b2cc2e184b3a08d98,,,,,,,sngl,resources/Empty.png,resources/DB.BMP,WildCard_NonEx,0.301851908,0.018518519,1,0,0,1.438,optionRight,55,590,1,12,0,12,0,1,,,,,,,,,,,,,,,,,,,,,,,,,,,,,,,,,,,,,,,
,,,,,,,,2023-08-16_08h40.27.301,HF_wild_card,2022.2.4,Win32,60.48874909,5ea20fd571038c119083a8df,64d2fd46c836a06233681665,64dc7d3b2cc2e184b3a08d98,,,,,,,decisionTrl,resources/DG.BMP,resources/DB.BMP,WildCard_NonEx,0.340740769,0.006481489,1,0,0,1.5308,optionRight,55,645,1,13,0,13,0,1,,,,,,,,,,,,,,,,,,,,,,,,,,,,,,,,,,,,,,,
,,,,,,,,2023-08-16_08h40.27.301,HF_wild_card,2022.2.4,Win32,60.48874909,5ea20fd571038c119083a8df,64d2fd46c836a06233681665,64dc7d3b2cc2e184b3a08d98,,,,,,,decisionTrl,resources/DBN.BMP,resources/DB.BMP,WildCard_NonEx,0.375,0.013888889,1,0,0,1.0941,optionRight,55,700,1,14,0,14,0,1,,,,,,,,,,,,,,,,,,,,,,,,,,,,,,,,,,,,,,,
,,,,,,,,2023-08-16_08h40.27.301,HF_wild_card,2022.2.4,Win32,60.48874909,5ea20fd571038c119083a8df,64d2fd46c836a06233681665,64dc7d3b2cc2e184b3a08d98,,,,,,,ctch,resources/DY.BMP,resources/DR.BMP,Door3,-0.284259231,-0.061111132,1,0,0,1.0761,optionLeft,70,770,1,15,0,15,0,1,,,,,,,,,,,,,,,,,,,,,,,,,,,,,,,,,,,,,,,
,,,,,,,,2023-08-16_08h40.27.301,HF_wild_card,2022.2.4,Win32,60.48874909,5ea20fd571038c119083a8df,64d2fd46c836a06233681665,64dc7d3b2cc2e184b3a08d98,,,,,,,ctch,resources/DR.BMP,resources/DY.BMP,Door3,0.458333333,-0.009259259,1,0,0,1.4085,optionRight,70,840,1,16,0,16,0,1,,,,,,,,,,,,,,,,,,,,,,,,,,,,,,,,,,,,,,,
,,,,,,,,2023-08-16_08h40.27.301,HF_wild_card,2022.2.4,Win32,60.48874909,5ea20fd571038c119083a8df,64d2fd46c836a06233681665,64dc7d3b2cc2e184b3a08d98,,,,,,,decisionTrl,resources/DG.BMP,resources/DY.BMP,Door3,0.381481453,-0.062037044,1,0,0,2.8353,optionRight,70,910,1,17,0,17,0,1,,,,,,,,,,,,,,,,,,,,,,,,,,,,,,,,,,,,,,,
,,,,,,,,2023-08-16_08h40.27.301,HF_wild_card,2022.2.4,Win32,60.48874909,5ea20fd571038c119083a8df,64d2fd46c836a06233681665,64dc7d3b2cc2e184b3a08d98,,,,,,,ctch,resources/DBN.BMP,resources/DG.BMP,Door4,0.280555584,0.006481489,1,0,0,2.5389,optionRight,80,990,1,18,0,18,0,1,,,,,,,,,,,,,,,,,,,,,,,,,,,,,,,,,,,,,,,
,,,,,,,,2023-08-16_08h40.27.301,HF_wild_card,2022.2.4,Win32,60.48874909,5ea20fd571038c119083a8df,64d2fd46c836a06233681665,64dc7d3b2cc2e184b3a08d98,,,,,,,ctch,resources/DY.BMP,resources/DR.BMP,Door3,-0.275925884,-0.034259266,1,0,0,2.0702,optionLeft,70,1060,1,19,0,19,0,1,,,,,,,,,,,,,,,,,,,,,,,,,,,,,,,,,,,,,,,
,,,,,,,,2023-08-16_08h40.27.301,HF_wild_card,2022.2.4,Win32,60.48874909,5ea20fd571038c119083a8df,64d2fd46c836a06233681665,64dc7d3b2cc2e184b3a08d98,,,,,,,decisionTrl,resources/DBN.BMP,resources/DR.BMP,Door2,0.373148176,0.013888889,1,0,0,0.8871,optionRight,40,1100,1,20,0,20,0,1,,,,,,,,,,,,,,,,,,,,,,,,,,,,,,,,,,,,,,,
,,,,,,,,2023-08-16_08h40.27.301,HF_wild_card,2022.2.4,Win32,60.48874909,5ea20fd571038c119083a8df,64d2fd46c836a06233681665,64dc7d3b2cc2e184b3a08d98,,,,,,,sngl,resources/DB.BMP,resources/Empty.png,WildCard_NonEx,-0.313888868,-0.067592586,1,0,0,1.4553,optionLeft,45,1145,1,21,0,21,0,1,,,,,,,,,,,,,,,,,,,,,,,,,,,,,,,,,,,,,,,
,,,,,,,,2023-08-16_08h40.27.301,HF_wild_card,2022.2.4,Win32,60.48874909,5ea20fd571038c119083a8df,64d2fd46c836a06233681665,64dc7d3b2cc2e184b3a08d98,,,,,,,sngl,resources/Empty.png,resources/DB.BMP,WildCard_NonEx,0.310185185,0.003703683,1,0,0,1.0529,optionRight,45,1190,1,22,0,22,0,1,,,,,,,,,,,,,,,,,,,,,,,,,,,,,,,,,,,,,,,
,,,,,,,,2023-08-16_08h40.27.301,HF_wild_card,2022.2.4,Win32,60.48874909,5ea20fd571038c119083a8df,64d2fd46c836a06233681665,64dc7d3b2cc2e184b3a08d98,,,,,,,decisionTrl,resources/DB.BMP,resources/DY.BMP,Door3,0.311111168,0.013888889,1,0,0,1.0872,optionRight,70,1260,1,23,0,23,0,1,,,,,,,,,,,,,,,,,,,,,,,,,,,,,,,,,,,,,,,
,,,,,,,,2023-08-16_08h40.27.301,HF_wild_card,2022.2.4,Win32,60.48874909,5ea20fd571038c119083a8df,64d2fd46c836a06233681665,64dc7d3b2cc2e184b3a08d98,,,,,,,decisionTrl,resources/DBN.BMP,resources/DR.BMP,Door2,0.300000085,-0.010185206,1,0,0,1.1948,optionRight,20,1280,1,24,0,24,0,1,,,,,,,,,,,,,,,,,,,,,,,,,,,,,,,,,,,,,,,
,,,,,,,,2023-08-16_08h40.27.301,HF_wild_card,2022.2.4,Win32,60.48874909,5ea20fd571038c119083a8df,64d2fd46c836a06233681665,64dc7d3b2cc2e184b3a08d98,,,,,,,decisionTrl,resources/DY.BMP,resources/DG.BMP,Door3,-0.27870369,-0.048148155,1,0,0,1.2689,optionLeft,70,1350,1,25,0,25,0,1,,,,,,,,,,,,,,,,,,,,,,,,,,,,,,,,,,,,,,,
,,,,,,,,2023-08-16_08h40.27.301,HF_wild_card,2022.2.4,Win32,60.48874909,5ea20fd571038c119083a8df,64d2fd46c836a06233681665,64dc7d3b2cc2e184b3a08d98,,,,,,,decisionTrl,resources/DG.BMP,resources/DY.BMP,Door3,0.443518603,-0.002777771,1,0,0,1.0445,optionRight,70,1420,1,26,0,26,0,1,,,,,,,,,,,,,,,,,,,,,,,,,,,,,,,,,,,,,,,
,,,,,,,,2023-08-16_08h40.27.301,HF_wild_card,2022.2.4,Win32,60.48874909,5ea20fd571038c119083a8df,64d2fd46c836a06233681665,64dc7d3b2cc2e184b3a08d98,,,,,,,sngl,resources/Empty.png,resources/DG.BMP,Door4,0.258333347,0.011111118,1,0,0,1.2801,optionRight,60,1480,1,27,0,27,0,1,,,,,,,,,,,,,,,,,,,,,,,,,,,,,,,,,,,,,,,
,,,,,,,,2023-08-16_08h40.27.301,HF_wild_card,2022.2.4,Win32,60.48874909,5ea20fd571038c119083a8df,64d2fd46c836a06233681665,64dc7d3b2cc2e184b3a08d98,,,,,,,decisionTrl,resources/DBN.BMP,resources/DR.BMP,Door2,0.247222265,-0.011111118,1,0,0,2.0878,optionRight,20,1500,1,28,0,28,0,1,,,,,,,,,,,,,,,,,,,,,,,,,,,,,,,,,,,,,,,
,,,,,,,,2023-08-16_08h40.27.301,HF_wild_card,2022.2.4,Win32,60.48874909,5ea20fd571038c119083a8df,64d2fd46c836a06233681665,64dc7d3b2cc2e184b3a08d98,,,,,,,decisionTrl,resources/DBN.BMP,resources/DR.BMP,Door1,-0.284259231,-0.027777778,1,0,0,1.1719,optionLeft,30,1530,1,29,0,29,0,1,,,,,,,,,,,,,,,,,,,,,,,,,,,,,,,,,,,,,,,
,,,,,,,,2023-08-16_08h40.27.301,HF_wild_card,2022.2.4,Win32,60.48874909,5ea20fd571038c119083a8df,64d2fd46c836a06233681665,64dc7d3b2cc2e184b3a08d98,,,,,,,sngl,resources/DG.BMP,resources/Empty.png,Door4,-0.248148106,-0.036111125,1,0,0,1.2253,optionLeft,80,1610,1,30,0,30,0,1,,,,,,,,,,,,,,,,,,,,,,,,,,,,,,,,,,,,,,,
,,,,,,,,2023-08-16_08h40.27.301,HF_wild_card,2022.2.4,Win32,60.48874909,5ea20fd571038c119083a8df,64d2fd46c836a06233681665,64dc7d3b2cc2e184b3a08d98,,,,,,,decisionTrl,resources/DG.BMP,resources/DY.BMP,Door4,-0.22129631,-0.028703725,1,0,0,1.0361,optionLeft,60,1670,1,31,0,31,0,1,,,,,,,,,,,,,,,,,,,,,,,,,,,,,,,,,,,,,,,
,,,,,,,,2023-08-16_08h40.27.301,HF_wild_card,2022.2.4,Win32,60.48874909,5ea20fd571038c119083a8df,64d2fd46c836a06233681665,64dc7d3b2cc2e184b3a08d98,,,,,,,decisionTrl,resources/DY.BMP,resources/DG.BMP,Door4,0.291666667,-0.012962977,1,0,0,1.4067,optionRight,60,1730,1,32,0,32,0,1,,,,,,,,,,,,,,,,,,,,,,,,,,,,,,,,,,,,,,,
,,,,,,,,2023-08-16_08h40.27.301,HF_wild_card,2022.2.4,Win32,60.48874909,5ea20fd571038c119083a8df,64d2fd46c836a06233681665,64dc7d3b2cc2e184b3a08d98,,,,,,,sngl,resources/Empty.png,resources/DY.BMP,Door3,0.32685188,0.012962942,1,0,0,1.0903,optionRight,70,1800,1,33,0,33,0,1,,,,,,,,,,,,,,,,,,,,,,,,,,,,,,,,,,,,,,,
,,,,,,,,2023-08-16_08h40.27.301,HF_wild_card,2022.2.4,Win32,60.48874909,5ea20fd571038c119083a8df,64d2fd46c836a06233681665,64dc7d3b2cc2e184b3a08d98,,,,,,,decisionTrl,resources/DR.BMP,resources/DBN.BMP,Door1,0.268518519,0.005555541,1,0,0,3.8932,optionRight,30,1830,1,34,0,34,0,1,,,,,,,,,,,,,,,,,,,,,,,,,,,,,,,,,,,,,,,
,,,,,,,,2023-08-16_08h40.27.301,HF_wild_card,2022.2.4,Win32,60.48874909,5ea20fd571038c119083a8df,64d2fd46c836a06233681665,64dc7d3b2cc2e184b3a08d98,,,,,,,ctch,resources/DG.BMP,resources/DBN.BMP,Door4,-0.3675926,-0.067592586,1,0,0,1.4814,optionLeft,60,1890,1,35,0,35,0,1,,,,,,,,,,,,,,,,,,,,,,,,,,,,,,,,,,,,,,,
,,,,,,,,2023-08-16_08h40.27.301,HF_wild_card,2022.2.4,Win32,60.48874909,5ea20fd571038c119083a8df,64d2fd46c836a06233681665,64dc7d3b2cc2e184b3a08d98,,,,,,,sngl,resources/DB.BMP,resources/Empty.png,WildCard_NonEx,-0.288888861,-0.028703725,1,0,0,1.1429,optionLeft,55,1945,1,36,0,36,0,1,,,,,,,,,,,,,,,,,,,,,,,,,,,,,,,,,,,,,,,
,,,,,,,,2023-08-16_08h40.27.301,HF_wild_card,2022.2.4,Win32,60.48874909,5ea20fd571038c119083a8df,64d2fd46c836a06233681665,64dc7d3b2cc2e184b3a08d98,,,,,,,decisionTrl,resources/DB.BMP,resources/DBN.BMP,WildCard_NonEx,-0.247222194,-0.042592614,1,0,0,1.6284,optionLeft,55,2000,1,37,0,37,0,1,,,,,,,,,,,,,,,,,,,,,,,,,,,,,,,,,,,,,,,
,,,,,,,,2023-08-16_08h40.27.301,HF_wild_card,2022.2.4,Win32,60.48874909,5ea20fd571038c119083a8df,64d2fd46c836a06233681665,64dc7d3b2cc2e184b3a08d98,,,,,,,ctch,resources/DR.BMP,resources/DY.BMP,Door3,0.26944443,-0.028703725,1,0,0,1.4899,optionRight,70,2070,1,38,0,38,0,1,,,,,,,,,,,,,,,,,,,,,,,,,,,,,,,,,,,,,,,
,,,,,,,,2023-08-16_08h40.27.301,HF_wild_card,2022.2.4,Win32,60.48874909,5ea20fd571038c119083a8df,64d2fd46c836a06233681665,64dc7d3b2cc2e184b3a08d98,,,,,,,decisionTrl,resources/DY.BMP,resources/DG.BMP,Door3,-0.22592594,-0.024074095,1,0,0,1.7256,optionLeft,70,2140,1,39,0,39,0,1,,,,,,,,,,,,,,,,,,,,,,,,,,,,,,,,,,,,,,,
,,,,,,,,2023-08-16_08h40.27.301,HF_wild_card,2022.2.4,Win32,60.48874909,5ea20fd571038c119083a8df,64d2fd46c836a06233681665,64dc7d3b2cc2e184b3a08d98,,,,,,,decisionTrl,resources/DB.BMP,resources/DR.BMP,WildCard_NonEx,-0.180555556,-0.024074095,1,0,0,1.8532,optionLeft,45,2185,1,40,0,40,0,1,,,,,,,,,,,,,,,,,,,,,,,,,,,,,,,,,,,,,,,
,,,,,,,,2023-08-16_08h40.27.301,HF_wild_card,2022.2.4,Win32,60.48874909,5ea20fd571038c119083a8df,64d2fd46c836a06233681665,64dc7d3b2cc2e184b3a08d98,,,,,,,decisionTrl,resources/DR.BMP,resources/DB.BMP,WildCard_NonEx,0.263888889,-0.011111118,1,0,0,1.5336,optionRight,45,2230,1,41,0,41,0,1,,,,,,,,,,,,,,,,,,,,,,,,,,,,,,,,,,,,,,,
,,,,,,,,2023-08-16_08h40.27.301,HF_wild_card,2022.2.4,Win32,60.48874909,5ea20fd571038c119083a8df,64d2fd46c836a06233681665,64dc7d3b2cc2e184b3a08d98,,,,,,,decisionTrl,resources/DR.BMP,resources/DBN.BMP,Door2,-0.251851824,-0.062962956,1,0,0,1.0327,optionLeft,40,2270,1,42,0,42,0,1,,,,,,,,,,,,,,,,,,,,,,,,,,,,,,,,,,,,,,,
,,,,,,,,2023-08-16_08h40.27.301,HF_wild_card,2022.2.4,Win32,60.48874909,5ea20fd571038c119083a8df,64d2fd46c836a06233681665,64dc7d3b2cc2e184b3a08d98,,,,,,,sngl,resources/DR.BMP,resources/Empty.png,Door2,-0.262962977,-0.065740762,1,0,0,1.1462,optionLeft,40,2310,1,43,0,43,0,1,,,,,,,,,,,,,,,,,,,,,,,,,,,,,,,,,,,,,,,
,,,,,,,,2023-08-16_08h40.27.301,HF_wild_card,2022.2.4,Win32,60.48874909,5ea20fd571038c119083a8df,64d2fd46c836a06233681665,64dc7d3b2cc2e184b3a08d98,,,,,,,,,,,,,,,,,,,,,,,,,,0,0,0,0,1,,,,,,,,,,,,,,,,,,,,,,,,,,,,,,,,,,
,,,,,,,,2023-08-16_08h40.27.301,HF_wild_card,2022.2.4,Win32,60.48874909,5ea20fd571038c119083a8df,64d2fd46c836a06233681665,64dc7d3b2cc2e184b3a08d98,,,,,,,sngl,resources/DBN.BMP,resources/Empty.png,Door1,-0.321296303,0.017592571,1,0,0,1.9901,optionLeft,30,2340,2,0,0,0,0,1,,,,,,,,,,,,,,,,,,,,,,,,,,,,,,,,,,,,,,,
,,,,,,,,2023-08-16_08h40.27.301,HF_wild_card,2022.2.4,Win32,60.48874909,5ea20fd571038c119083a8df,64d2fd46c836a06233681665,64dc7d3b2cc2e184b3a08d98,,,,,,,decisionTrl,resources/DY.BMP,resources/DG.BMP,Door3,-0.308333326,-0.00462963,1,0,0,1.3449,optionLeft,70,2410,2,1,0,1,0,1,,,,,,,,,,,,,,,,,,,,,,,,,,,,,,,,,,,,,,,
,,,,,,,,2023-08-16_08h40.27.301,HF_wild_card,2022.2.4,Win32,60.48874909,5ea20fd571038c119083a8df,64d2fd46c836a06233681665,64dc7d3b2cc2e184b3a08d98,,,,,,,ctch,resources/DBN.BMP,resources/DG.BMP,Door4,0.35555564,-0.013888889,1,0,0,1.4514,optionRight,60,2470,2,2,0,2,0,1,,,,,,,,,,,,,,,,,,,,,,,,,,,,,,,,,,,,,,,
,,,,,,,,2023-08-16_08h40.27.301,HF_wild_card,2022.2.4,Win32,60.48874909,5ea20fd571038c119083a8df,64d2fd46c836a06233681665,64dc7d3b2cc2e184b3a08d98,,,,,,,decisionTrl,resources/DY.BMP,resources/DG.BMP,Door4,0.373148176,0.069444444,1,0,0,1.0851,optionRight,60,2530,2,3,0,3,0,1,,,,,,,,,,,,,,,,,,,,,,,,,,,,,,,,,,,,,,,
,,,,,,,,2023-08-16_08h40.27.301,HF_wild_card,2022.2.4,Win32,60.48874909,5ea20fd571038c119083a8df,64d2fd46c836a06233681665,64dc7d3b2cc2e184b3a08d98,,,,,,,sngl,resources/DG.BMP,resources/Empty.png,Door4,-0.271296254,-0.032407407,1,0,0,1.0471,optionLeft,60,2590,2,4,0,4,0,1,,,,,,,,,,,,,,,,,,,,,,,,,,,,,,,,,,,,,,,
,,,,,,,,2023-08-16_08h40.27.301,HF_wild_card,2022.2.4,Win32,60.48874909,5ea20fd571038c119083a8df,64d2fd46c836a06233681665,64dc7d3b2cc2e184b3a08d98,,,,,,,decisionTrl,resources/DG.BMP,resources/DY.BMP,Door3,0.365740741,-0.000925947,1,0,0,1.2759,optionRight,70,2660,2,5,0,5,0,1,,,,,,,,,,,,,,,,,,,,,,,,,,,,,,,,,,,,,,,
,,,,,,,,2023-08-16_08h40.27.301,HF_wild_card,2022.2.4,Win32,60.48874909,5ea20fd571038c119083a8df,64d2fd46c836a06233681665,64dc7d3b2cc2e184b3a08d98,,,,,,,decisionTrl,resources/DBN.BMP,resources/DR.BMP,Door2,0.292592578,-0.014814836,1,0,0,1.6082,optionRight,20,2680,2,6,0,6,0,1,,,,,,,,,,,,,,,,,,,,,,,,,,,,,,,,,,,,,,,
,,,,,,,,2023-08-16_08h40.27.301,HF_wild_card,2022.2.4,Win32,60.48874909,5ea20fd571038c119083a8df,64d2fd46c836a06233681665,64dc7d3b2cc2e184b3a08d98,,,,,,,sngl,resources/DR.BMP,resources/Empty.png,Door2,-0.303703697,-0.017592607,1,0,0,1.2436,optionLeft,20,2700,2,7,0,7,0,1,,,,,,,,,,,,,,,,,,,,,,,,,,,,,,,,,,,,,,,
,,,,,,,,2023-08-16_08h40.27.301,HF_wild_card,2022.2.4,Win32,60.48874909,5ea20fd571038c119083a8df,64d2fd46c836a06233681665,64dc7d3b2cc2e184b3a08d98,,,,,,,ctch,resources/DR.BMP,resources/DY.BMP,Door3,0.294444473,-0.024074095,1,0,0,1.9796,optionRight,70,2770,2,8,0,8,0,1,,,,,,,,,,,,,,,,,,,,,,,,,,,,,,,,,,,,,,,
,,,,,,,,2023-08-16_08h40.27.301,HF_wild_card,2022.2.4,Win32,60.48874909,5ea20fd571038c119083a8df,64d2fd46c836a06233681665,64dc7d3b2cc2e184b3a08d98,,,,,,,decisionTrl,resources/DG.BMP,resources/DY.BMP,Door3,0.312037009,-0.006481489,1,0,0,1.1167,optionRight,70,2840,2,9,0,9,0,1,,,,,,,,,,,,,,,,,,,,,,,,,,,,,,,,,,,,,,,
,,,,,,,,2023-08-16_08h40.27.301,HF_wild_card,2022.2.4,Win32,60.48874909,5ea20fd571038c119083a8df,64d2fd46c836a06233681665,64dc7d3b2cc2e184b3a08d98,,,,,,,ctch,resources/DG.BMP,resources/DBN.BMP,Door4,-0.240740741,0.029629637,1,0,0,1.2771,optionLeft,80,2920,2,10,0,10,0,1,,,,,,,,,,,,,,,,,,,,,,,,,,,,,,,,,,,,,,,
,,,,,,,,2023-08-16_08h40.27.301,HF_wild_card,2022.2.4,Win32,60.48874909,5ea20fd571038c119083a8df,64d2fd46c836a06233681665,64dc7d3b2cc2e184b3a08d98,,,,,,,ctch,resources/DR.BMP,resources/DY.BMP,Door3,0.337962963,-0.000925947,1,0,0,1.2166,optionRight,70,2990,2,11,0,11,0,1,,,,,,,,,,,,,,,,,,,,,,,,,,,,,,,,,,,,,,,
,,,,,,,,2023-08-16_08h40.27.301,HF_wild_card,2022.2.4,Win32,60.48874909,5ea20fd571038c119083a8df,64d2fd46c836a06233681665,64dc7d3b2cc2e184b3a08d98,,,,,,,decisionTrl,resources/DY.BMP,resources/DG.BMP,Door4,0.226851852,0.000925912,1,0,0,2.9277,optionRight,80,3070,2,12,0,12,0,1,,,,,,,,,,,,,,,,,,,,,,,,,,,,,,,,,,,,,,,
,,,,,,,,2023-08-16_08h40.27.301,HF_wild_card,2022.2.4,Win32,60.48874909,5ea20fd571038c119083a8df,64d2fd46c836a06233681665,64dc7d3b2cc2e184b3a08d98,,,,,,,decisionTrl,resources/DBN.BMP,resources/DR.BMP,Door2,0.184259273,-0.024074095,1,0,0,1.6717,optionRight,20,3090,2,13,0,13,0,1,,,,,,,,,,,,,,,,,,,,,,,,,,,,,,,,,,,,,,,
,,,,,,,,2023-08-16_08h40.27.301,HF_wild_card,2022.2.4,Win32,60.48874909,5ea20fd571038c119083a8df,64d2fd46c836a06233681665,64dc7d3b2cc2e184b3a08d98,,,,,,,ctch,resources/DBN.BMP,resources/DG.BMP,Door4,0.294444473,-0.049074067,1,0,0,1.3479,optionRight,60,3150,2,14,0,14,0,1,,,,,,,,,,,,,,,,,,,,,,,,,,,,,,,,,,,,,,,
,,,,,,,,2023-08-16_08h40.27.301,HF_wild_card,2022.2.4,Win32,60.48874909,5ea20fd571038c119083a8df,64d2fd46c836a06233681665,64dc7d3b2cc2e184b3a08d98,,,,,,,sngl,resources/Empty.png,resources/DY.BMP,Door3,0.367592564,-0.011111118,1,0,0,0.9833,optionRight,70,3220,2,15,0,15,0,1,,,,,,,,,,,,,,,,,,,,,,,,,,,,,,,,,,,,,,,
,,,,,,,,2023-08-16_08h40.27.301,HF_wild_card,2022.2.4,Win32,60.48874909,5ea20fd571038c119083a8df,64d2fd46c836a06233681665,64dc7d3b2cc2e184b3a08d98,,,,,,,decisionTrl,resources/DB.BMP,resources/DY.BMP,Door3,0.299074102,-0.055555556,1,0,0,1.6203,optionRight,70,3290,2,16,0,16,0,1,,,,,,,,,,,,,,,,,,,,,,,,,,,,,,,,,,,,,,,
,,,,,,,,2023-08-16_08h40.27.301,HF_wild_card,2022.2.4,Win32,60.48874909,5ea20fd571038c119083a8df,64d2fd46c836a06233681665,64dc7d3b2cc2e184b3a08d98,,,,,,,decisionTrl,resources/DBN.BMP,resources/DR.BMP,Door2,0.291666667,-0.024074095,1,0,0,1.4938,optionRight,20,3310,2,17,0,17,0,1,,,,,,,,,,,,,,,,,,,,,,,,,,,,,,,,,,,,,,,
,,,,,,,,2023-08-16_08h40.27.301,HF_wild_card,2022.2.4,Win32,60.48874909,5ea20fd571038c119083a8df,64d2fd46c836a06233681665,64dc7d3b2cc2e184b3a08d98,,,,,,,sngl,resources/DY.BMP,resources/Empty.png,Door3,-0.312037044,-0.058333326,1,0,0,1.0694,optionLeft,70,3380,2,18,0,18,0,1,,,,,,,,,,,,,,,,,,,,,,,,,,,,,,,,,,,,,,,
,,,,,,,,2023-08-16_08h40.27.301,HF_wild_card,2022.2.4,Win32,60.48874909,5ea20fd571038c119083a8df,64d2fd46c836a06233681665,64dc7d3b2cc2e184b3a08d98,,,,,,,decisionTrl,resources/DG.BMP,resources/DB.BMP,WildCard_NonEx,0.285185213,-0.057407414,1,0,0,2.3479,optionRight,55,3435,2,19,0,19,0,1,,,,,,,,,,,,,,,,,,,,,,,,,,,,,,,,,,,,,,,
,,,,,,,,2023-08-16_08h40.27.301,HF_wild_card,2022.2.4,Win32,60.48874909,5ea20fd571038c119083a8df,64d2fd46c836a06233681665,64dc7d3b2cc2e184b3a08d98,,,,,,,decisionTrl,resources/DY.BMP,resources/DG.BMP,Door3,-0.326851845,-0.087037051,1,0,0,1.8771,optionLeft,70,3505,2,20,0,20,0,1,,,,,,,,,,,,,,,,,,,,,,,,,,,,,,,,,,,,,,,
,,,,,,,,2023-08-16_08h40.27.301,HF_wild_card,2022.2.4,Win32,60.48874909,5ea20fd571038c119083a8df,64d2fd46c836a06233681665,64dc7d3b2cc2e184b3a08d98,,,,,,,sngl,resources/DB.BMP,resources/Empty.png,WildCard_NonEx,-0.24537037,-0.060185185,1,0,0,1.3436,optionLeft,45,3550,2,21,0,21,0,1,,,,,,,,,,,,,,,,,,,,,,,,,,,,,,,,,,,,,,,
,,,,,,,,2023-08-16_08h40.27.301,HF_wild_card,2022.2.4,Win32,60.48874909,5ea20fd571038c119083a8df,64d2fd46c836a06233681665,64dc7d3b2cc2e184b3a08d98,,,,,,,decisionTrl,resources/DB.BMP,resources/DBN.BMP,WildCard_NonEx,-0.199999986,-0.023148148,1,0,0,1.3365,optionLeft,45,3595,2,22,0,22,0,1,,,,,,,,,,,,,,,,,,,,,,,,,,,,,,,,,,,,,,,
,,,,,,,,2023-08-16_08h40.27.301,HF_wild_card,2022.2.4,Win32,60.48874909,5ea20fd571038c119083a8df,64d2fd46c836a06233681665,64dc7d3b2cc2e184b3a08d98,,,,,,,decisionTrl,resources/DR.BMP,resources/DBN.BMP,Door1,0.211111139,-0.013888889,1,0,0,1.7579,optionRight,30,3625,2,23,0,23,0,1,,,,,,,,,,,,,,,,,,,,,,,,,,,,,,,,,,,,,,,
,,,,,,,,2023-08-16_08h40.27.301,HF_wild_card,2022.2.4,Win32,60.48874909,5ea20fd571038c119083a8df,64d2fd46c836a06233681665,64dc7d3b2cc2e184b3a08d98,,,,,,,sngl,resources/Empty.png,resources/DR.BMP,Door2,0.250925912,-0.002777771,1,0,0,1.1861,optionRight,40,3665,2,24,0,24,0,1,,,,,,,,,,,,,,,,,,,,,,,,,,,,,,,,,,,,,,,
,,,,,,,,2023-08-16_08h40.27.301,HF_wild_card,2022.2.4,Win32,60.48874909,5ea20fd571038c119083a8df,64d2fd46c836a06233681665,64dc7d3b2cc2e184b3a08d98,,,,,,,decisionTrl,resources/DB.BMP,resources/DR.BMP,WildCard_NonEx,-0.258333347,-0.079629651,1,0,0,1.9151,optionLeft,45,3710,2,25,0,25,0,1,,,,,,,,,,,,,,,,,,,,,,,,,,,,,,,,,,,,,,,
,,,,,,,,2023-08-16_08h40.27.301,HF_wild_card,2022.2.4,Win32,60.48874909,5ea20fd571038c119083a8df,64d2fd46c836a06233681665,64dc7d3b2cc2e184b3a08d98,,,,,,,decisionTrl,resources/DBN.BMP,resources/DB.BMP,WildCard_NonEx,0.294444473,-0.011111118,1,0,0,1.3083,optionRight,55,3765,2,26,0,26,0,1,,,,,,,,,,,,,,,,,,,,,,,,,,,,,,,,,,,,,,,
,,,,,,,,2023-08-16_08h40.27.301,HF_wild_card,2022.2.4,Win32,60.48874909,5ea20fd571038c119083a8df,64d2fd46c836a06233681665,64dc7d3b2cc2e184b3a08d98,,,,,,,decisionTrl,resources/DG.BMP,resources/DY.BMP,Door3,0.226851852,-0.063888903,1,0,0,1.2617,optionRight,70,3835,2,27,0,27,0,1,,,,,,,,,,,,,,,,,,,,,,,,,,,,,,,,,,,,,,,
,,,,,,,,2023-08-16_08h40.27.301,HF_wild_card,2022.2.4,Win32,60.48874909,5ea20fd571038c119083a8df,64d2fd46c836a06233681665,64dc7d3b2cc2e184b3a08d98,,,,,,,decisionTrl,resources/DR.BMP,resources/DBN.BMP,Door2,-0.261111083,-0.071296303,1,0,0,1.76,optionLeft,20,3855,2,28,0,28,0,1,,,,,,,,,,,,,,,,,,,,,,,,,,,,,,,,,,,,,,,
,,,,,,,,2023-08-16_08h40.27.301,HF_wild_card,2022.2.4,Win32,60.48874909,5ea20fd571038c119083a8df,64d2fd46c836a06233681665,64dc7d3b2cc2e184b3a08d98,,,,,,,sngl,resources/Empty.png,resources/DB.BMP,WildCard_NonEx,0.301851908,0.029629637,1,0,0,0.9498,optionRight,55,3910,2,29,0,29,0,1,,,,,,,,,,,,,,,,,,,,,,,,,,,,,,,,,,,,,,,
,,,,,,,,2023-08-16_08h40.27.301,HF_wild_card,2022.2.4,Win32,60.48874909,5ea20fd571038c119083a8df,64d2fd46c836a06233681665,64dc7d3b2cc2e184b3a08d98,,,,,,,sngl,resources/Empty.png,resources/DB.BMP,WildCard_NonEx,0.257407436,-0.00462963,1,0,0,0.9997,optionRight,45,3955,2,30,0,30,0,1,,,,,,,,,,,,,,,,,,,,,,,,,,,,,,,,,,,,,,,
,,,,,,,,2023-08-16_08h40.27.301,HF_wild_card,2022.2.4,Win32,60.48874909,5ea20fd571038c119083a8df,64d2fd46c836a06233681665,64dc7d3b2cc2e184b3a08d98,,,,,,,ctch,resources/DY.BMP,resources/DR.BMP,Door3,-0.294444402,-0.052777785,1,0,0,1.5108,optionLeft,70,4025,2,31,0,31,0,1,,,,,,,,,,,,,,,,,,,,,,,,,,,,,,,,,,,,,,,
,,,,,,,,2023-08-16_08h40.27.301,HF_wild_card,2022.2.4,Win32,60.48874909,5ea20fd571038c119083a8df,64d2fd46c836a06233681665,64dc7d3b2cc2e184b3a08d98,,,,,,,decisionTrl,resources/DB.BMP,resources/DG.BMP,WildCard_NonEx,-0.178703661,-0.00462963,1,0,0,4.0702,optionLeft,45,4070,2,32,0,32,0,1,,,,,,,,,,,,,,,,,,,,,,,,,,,,,,,,,,,,,,,
,,,,,,,,2023-08-16_08h40.27.301,HF_wild_card,2022.2.4,Win32,60.48874909,5ea20fd571038c119083a8df,64d2fd46c836a06233681665,64dc7d3b2cc2e184b3a08d98,,,,,,,decisionTrl,resources/DG.BMP,resources/DY.BMP,Door3,0.27870369,-0.012962977,1,0,0,1.5925,optionRight,70,4140,2,33,0,33,0,1,,,,,,,,,,,,,,,,,,,,,,,,,,,,,,,,,,,,,,,
,,,,,,,,2023-08-16_08h40.27.301,HF_wild_card,2022.2.4,Win32,60.48874909,5ea20fd571038c119083a8df,64d2fd46c836a06233681665,64dc7d3b2cc2e184b3a08d98,,,,,,,decisionTrl,resources/DY.BMP,resources/DB.BMP,Door3,-0.238888847,-0.083333333,1,0,0,1.516,optionLeft,70,4210,2,34,0,34,0,1,,,,,,,,,,,,,,,,,,,,,,,,,,,,,,,,,,,,,,,
,,,,,,,,2023-08-16_08h40.27.301,HF_wild_card,2022.2.4,Win32,60.48874909,5ea20fd571038c119083a8df,64d2fd46c836a06233681665,64dc7d3b2cc2e184b3a08d98,,,,,,,sngl,resources/Empty.png,resources/DBN.BMP,Door1,0.263888889,-0.017592607,1,0,0,1.319,optionRight,30,4240,2,35,0,35,0,1,,,,,,,,,,,,,,,,,,,,,,,,,,,,,,,,,,,,,,,
,,,,,,,,2023-08-16_08h40.27.301,HF_wild_card,2022.2.4,Win32,60.48874909,5ea20fd571038c119083a8df,64d2fd46c836a06233681665,64dc7d3b2cc2e184b3a08d98,,,,,,,decisionTrl,resources/DR.BMP,resources/DBN.BMP,Door2,-0.287962949,-0.080555563,1,0,0,1.1616,optionLeft,40,4280,2,36,0,36,0,1,,,,,,,,,,,,,,,,,,,,,,,,,,,,,,,,,,,,,,,
,,,,,,,,2023-08-16_08h40.27.301,HF_wild_card,2022.2.4,Win32,60.48874909,5ea20fd571038c119083a8df,64d2fd46c836a06233681665,64dc7d3b2cc2e184b3a08d98,,,,,,,decisionTrl,resources/DR.BMP,resources/DB.BMP,Door2,-0.187037009,-0.064814815,1,0,0,1.1219,optionLeft,40,4320,2,37,0,37,0,1,,,,,,,,,,,,,,,,,,,,,,,,,,,,,,,,,,,,,,,
,,,,,,,,2023-08-16_08h40.27.301,HF_wild_card,2022.2.4,Win32,60.48874909,5ea20fd571038c119083a8df,64d2fd46c836a06233681665,64dc7d3b2cc2e184b3a08d98,,,,,,,ctch,resources/DG.BMP,resources/DBN.BMP,Door4,-0.136111083,-0.058333326,1,0,0,1.2146,optionLeft,60,4380,2,38,0,38,0,1,,,,,,,,,,,,,,,,,,,,,,,,,,,,,,,,,,,,,,,
,,,,,,,,2023-08-16_08h40.27.301,HF_wild_card,2022.2.4,Win32,60.48874909,5ea20fd571038c119083a8df,64d2fd46c836a06233681665,64dc7d3b2cc2e184b3a08d98,,,,,,,ctch,resources/DY.BMP,resources/DR.BMP,Door3,-0.204629616,-0.073148162,1,0,0,1.1925,optionLeft,70,4450,2,39,0,39,0,1,,,,,,,,,,,,,,,,,,,,,,,,,,,,,,,,,,,,,,,
,,,,,,,,2023-08-16_08h40.27.301,HF_wild_card,2022.2.4,Win32,60.48874909,5ea20fd571038c119083a8df,64d2fd46c836a06233681665,64dc7d3b2cc2e184b3a08d98,,,,,,,sngl,resources/DB.BMP,resources/Empty.png,WildCard_NonEx,-0.253703718,-0.078703704,1,0,0,1.0565,optionLeft,55,4505,2,40,0,40,0,1,,,,,,,,,,,,,,,,,,,,,,,,,,,,,,,,,,,,,,,
,,,,,,,,2023-08-16_08h40.27.301,HF_wild_card,2022.2.4,Win32,60.48874909,5ea20fd571038c119083a8df,64d2fd46c836a06233681665,64dc7d3b2cc2e184b3a08d98,,,,,,,sngl,resources/Empty.png,resources/DG.BMP,Door4,0.281481496,0.006481489,1,0,0,1.2436,optionRight,80,4585,2,41,0,41,0,1,,,,,,,,,,,,,,,,,,,,,,,,,,,,,,,,,,,,,,,
,,,,,,,,2023-08-16_08h40.27.301,HF_wild_card,2022.2.4,Win32,60.48874909,5ea20fd571038c119083a8df,64d2fd46c836a06233681665,64dc7d3b2cc2e184b3a08d98,,,,,,,decisionTrl,resources/DBN.BMP,resources/DR.BMP,Door2,0.329629686,0.005555541,1,0,0,1.7034,optionRight,40,4625,2,42,0,42,0,1,,,,,,,,,,,,,,,,,,,,,,,,,,,,,,,,,,,,,,,
,,,,,,,,2023-08-16_08h40.27.301,HF_wild_card,2022.2.4,Win32,60.48874909,5ea20fd571038c119083a8df,64d2fd46c836a06233681665,64dc7d3b2cc2e184b3a08d98,,,,,,,decisionTrl,resources/DR.BMP,resources/DBN.BMP,Door2,-0.253703718,-0.045370384,1,0,0,1.515,optionLeft,20,4645,2,43,0,43,0,1,,,,,,,,,,,,,,,,,,,,,,,,,,,,,,,,,,,,,,,
,,,,,,,,2023-08-16_08h40.27.301,HF_wild_card,2022.2.4,Win32,60.48874909,5ea20fd571038c119083a8df,64d2fd46c836a06233681665,64dc7d3b2cc2e184b3a08d98,,,,,,,,,,,,,,,,,,,,,,,,,,1,0,1,0,1,,,,,,,,,,,,,,,,,,,,,,,,,,,,,,,,,,
,,,,,,,,2023-08-16_08h40.27.301,HF_wild_card,2022.2.4,Win32,60.48874909,5ea20fd571038c119083a8df,64d2fd46c836a06233681665,64dc7d3b2cc2e184b3a08d98,,,,,,,decisionTrl,resources/DY.BMP,resources/DG.BMP,Door3,-0.174074032,-0.127777806,1,0,0,1.7316,optionLeft,70,4715,3,0,0,0,0,1,,,,,,,,,,,,,,,,,,,,,,,,,,,,,,,,,,,,,,,
,,,,,,,,2023-08-16_08h40.27.301,HF_wild_card,2022.2.4,Win32,60.48874909,5ea20fd571038c119083a8df,64d2fd46c836a06233681665,64dc7d3b2cc2e184b3a08d98,,,,,,,sngl,resources/Empty.png,resources/DR.BMP,Door2,0.243518547,-0.011111118,1,0,0,1.1541,optionRight,20,4735,3,1,0,1,0,1,,,,,,,,,,,,,,,,,,,,,,,,,,,,,,,,,,,,,,,
,,,,,,,,2023-08-16_08h40.27.301,HF_wild_card,2022.2.4,Win32,60.48874909,5ea20fd571038c119083a8df,64d2fd46c836a06233681665,64dc7d3b2cc2e184b3a08d98,,,,,,,ctch,resources/DG.BMP,resources/DBN.BMP,Door4,-0.235185199,-0.070370392,1,0,0,1.3333,optionLeft,80,4815,3,2,0,2,0,1,,,,,,,,,,,,,,,,,,,,,,,,,,,,,,,,,,,,,,,
,,,,,,,,2023-08-16_08h40.27.301,HF_wild_card,2022.2.4,Win32,60.48874909,5ea20fd571038c119083a8df,64d2fd46c836a06233681665,64dc7d3b2cc2e184b3a08d98,,,,,,,decisionTrl,resources/DY.BMP,resources/DG.BMP,Door4,0.277777778,0.013888889,1,0,0,1.4688,optionRight,60,4875,3,3,0,3,0,1,,,,,,,,,,,,,,,,,,,,,,,,,,,,,,,,,,,,,,,
,,,,,,,,2023-08-16_08h40.27.301,HF_wild_card,2022.2.4,Win32,60.48874909,5ea20fd571038c119083a8df,64d2fd46c836a06233681665,64dc7d3b2cc2e184b3a08d98,,,,,,,decisionTrl,resources/DY.BMP,resources/DG.BMP,Door3,-0.258333347,-0.057407414,1,0,0,1.3358,optionLeft,70,4945,3,4,0,4,0,1,,,,,,,,,,,,,,,,,,,,,,,,,,,,,,,,,,,,,,,
,,,,,,,,2023-08-16_08h40.27.301,HF_wild_card,2022.2.4,Win32,60.48874909,5ea20fd571038c119083a8df,64d2fd46c836a06233681665,64dc7d3b2cc2e184b3a08d98,,,,,,,decisionTrl,resources/DBN.BMP,resources/DR.BMP,Door2,0.27407406,-0.013888889,1,0,0,1.2772,optionRight,20,4965,3,5,0,5,0,1,,,,,,,,,,,,,,,,,,,,,,,,,,,,,,,,,,,,,,,
,,,,,,,,2023-08-16_08h40.27.301,HF_wild_card,2022.2.4,Win32,60.48874909,5ea20fd571038c119083a8df,64d2fd46c836a06233681665,64dc7d3b2cc2e184b3a08d98,,,,,,,decisionTrl,resources/DR.BMP,resources/DB.BMP,WildCard_NonEx,0.317592621,0,1,0,0,1.6448,optionRight,45,5010,3,6,0,6,0,1,,,,,,,,,,,,,,,,,,,,,,,,,,,,,,,,,,,,,,,
,,,,,,,,2023-08-16_08h40.27.301,HF_wild_card,2022.2.4,Win32,60.48874909,5ea20fd571038c119083a8df,64d2fd46c836a06233681665,64dc7d3b2cc2e184b3a08d98,,,,,,,decisionTrl,resources/DG.BMP,resources/DY.BMP,Door4,-0.266666624,-0.059259273,1,0,0,1.4016,optionLeft,60,5070,3,7,0,7,0,1,,,,,,,,,,,,,,,,,,,,,,,,,,,,,,,,,,,,,,,
,,,,,,,,2023-08-16_08h40.27.301,HF_wild_card,2022.2.4,Win32,60.48874909,5ea20fd571038c119083a8df,64d2fd46c836a06233681665,64dc7d3b2cc2e184b3a08d98,,,,,,,sngl,resources/DG.BMP,resources/Empty.png,Door4,-0.228703675,-0.073148162,1,0,0,1.1837,optionLeft,80,5150,3,8,0,8,0,1,,,,,,,,,,,,,,,,,,,,,,,,,,,,,,,,,,,,,,,
,,,,,,,,2023-08-16_08h40.27.301,HF_wild_card,2022.2.4,Win32,60.48874909,5ea20fd571038c119083a8df,64d2fd46c836a06233681665,64dc7d3b2cc2e184b3a08d98,,,,,,,decisionTrl,resources/DG.BMP,resources/DB.BMP,Door4,-0.205555527,-0.071296303,1,0,0,1.1018,optionLeft,60,5210,3,9,0,9,0,1,,,,,,,,,,,,,,,,,,,,,,,,,,,,,,,,,,,,,,,
,,,,,,,,2023-08-16_08h40.27.301,HF_wild_card,2022.2.4,Win32,60.48874909,5ea20fd571038c119083a8df,64d2fd46c836a06233681665,64dc7d3b2cc2e184b3a08d98,,,,,,,sngl,resources/Empty.png,resources/DY.BMP,Door3,0.262037065,0.021296289,1,0,0,0.9657,optionRight,70,5280,3,10,0,10,0,1,,,,,,,,,,,,,,,,,,,,,,,,,,,,,,,,,,,,,,,
,,,,,,,,2023-08-16_08h40.27.301,HF_wild_card,2022.2.4,Win32,60.48874909,5ea20fd571038c119083a8df,64d2fd46c836a06233681665,64dc7d3b2cc2e184b3a08d98,,,,,,,decisionTrl,resources/DR.BMP,resources/DBN.BMP,Door2,-0.260185171,-0.103703746,1,0,0,1.2684,optionLeft,20,5300,3,11,0,11,0,1,,,,,,,,,,,,,,,,,,,,,,,,,,,,,,,,,,,,,,,
,,,,,,,,2023-08-16_08h40.27.301,HF_wild_card,2022.2.4,Win32,60.48874909,5ea20fd571038c119083a8df,64d2fd46c836a06233681665,64dc7d3b2cc2e184b3a08d98,,,,,,,decisionTrl,resources/DG.BMP,resources/DY.BMP,Door3,0.235185199,0.017592571,1,0,0,1.0615,optionRight,70,5370,3,12,0,12,0,1,,,,,,,,,,,,,,,,,,,,,,,,,,,,,,,,,,,,,,,
,,,,,,,,2023-08-16_08h40.27.301,HF_wild_card,2022.2.4,Win32,60.48874909,5ea20fd571038c119083a8df,64d2fd46c836a06233681665,64dc7d3b2cc2e184b3a08d98,,,,,,,decisionTrl,resources/DB.BMP,resources/DR.BMP,WildCard_NonEx,-0.15370369,-0.058333326,1,0,0,1.385,optionLeft,55,5425,3,13,0,13,0,1,,,,,,,,,,,,,,,,,,,,,,,,,,,,,,,,,,,,,,,
,,,,,,,,2023-08-16_08h40.27.301,HF_wild_card,2022.2.4,Win32,60.48874909,5ea20fd571038c119083a8df,64d2fd46c836a06233681665,64dc7d3b2cc2e184b3a08d98,,,,,,,decisionTrl,resources/DY.BMP,resources/DG.BMP,Door3,-0.272222236,-0.020370377,1,0,0,1.8222,optionLeft,70,5495,3,14,0,14,0,1,,,,,,,,,,,,,,,,,,,,,,,,,,,,,,,,,,,,,,,
,,,,,,,,2023-08-16_08h40.27.301,HF_wild_card,2022.2.4,Win32,60.48874909,5ea20fd571038c119083a8df,64d2fd46c836a06233681665,64dc7d3b2cc2e184b3a08d98,,,,,,,decisionTrl,resources/DBN.BMP,resources/DR.BMP,Door1,-0.196296268,0.00462963,1,0,0,2.078,optionLeft,30,5525,3,15,0,15,0,1,,,,,,,,,,,,,,,,,,,,,,,,,,,,,,,,,,,,,,,
,,,,,,,,2023-08-16_08h40.27.301,HF_wild_card,2022.2.4,Win32,60.48874909,5ea20fd571038c119083a8df,64d2fd46c836a06233681665,64dc7d3b2cc2e184b3a08d98,,,,,,,ctch,resources/DR.BMP,resources/DY.BMP,Door3,0.267592607,0.047222208,1,0,0,1.6511,optionRight,70,5595,3,16,0,16,0,1,,,,,,,,,,,,,,,,,,,,,,,,,,,,,,,,,,,,,,,
,,,,,,,,2023-08-16_08h40.27.301,HF_wild_card,2022.2.4,Win32,60.48874909,5ea20fd571038c119083a8df,64d2fd46c836a06233681665,64dc7d3b2cc2e184b3a08d98,,,,,,,decisionTrl,resources/DR.BMP,resources/DBN.BMP,Door2,-0.201851809,0,1,0,0,1.5874,optionLeft,20,5615,3,17,0,17,0,1,,,,,,,,,,,,,,,,,,,,,,,,,,,,,,,,,,,,,,,
,,,,,,,,2023-08-16_08h40.27.301,HF_wild_card,2022.2.4,Win32,60.48874909,5ea20fd571038c119083a8df,64d2fd46c836a06233681665,64dc7d3b2cc2e184b3a08d98,,,,,,,sngl,resources/Empty.png,resources/DB.BMP,WildCard_NonEx,0.209259245,0.025000007,1,0,0,0.9548,optionRight,45,5660,3,18,0,18,0,1,,,,,,,,,,,,,,,,,,,,,,,,,,,,,,,,,,,,,,,
,,,,,,,,2023-08-16_08h40.27.301,HF_wild_card,2022.2.4,Win32,60.48874909,5ea20fd571038c119083a8df,64d2fd46c836a06233681665,64dc7d3b2cc2e184b3a08d98,,,,,,,decisionTrl,resources/DB.BMP,resources/DG.BMP,WildCard_NonEx,-0.273148148,-0.042592614,1,0,0,2.7215,optionLeft,45,5705,3,19,0,19,0,1,,,,,,,,,,,,,,,,,,,,,,,,,,,,,,,,,,,,,,,
,,,,,,,,2023-08-16_08h40.27.301,HF_wild_card,2022.2.4,Win32,60.48874909,5ea20fd571038c119083a8df,64d2fd46c836a06233681665,64dc7d3b2cc2e184b3a08d98,,,,,,,decisionTrl,resources/DY.BMP,resources/DB.BMP,Door3,-0.200925898,-0.047222243,1,0,0,1.2294,optionLeft,70,5775,3,20,0,20,0,1,,,,,,,,,,,,,,,,,,,,,,,,,,,,,,,,,,,,,,,
,,,,,,,,2023-08-16_08h40.27.301,HF_wild_card,2022.2.4,Win32,60.48874909,5ea20fd571038c119083a8df,64d2fd46c836a06233681665,64dc7d3b2cc2e184b3a08d98,,,,,,,ctch,resources/DY.BMP,resources/DR.BMP,Door3,-0.250925912,-0.037962984,1,0,0,1.3018,optionLeft,70,5845,3,21,0,21,0,1,,,,,,,,,,,,,,,,,,,,,,,,,,,,,,,,,,,,,,,
,,,,,,,,2023-08-16_08h40.27.301,HF_wild_card,2022.2.4,Win32,60.48874909,5ea20fd571038c119083a8df,64d2fd46c836a06233681665,64dc7d3b2cc2e184b3a08d98,,,,,,,sngl,resources/DB.BMP,resources/Empty.png,WildCard_NonEx,-0.255555541,-0.055555556,1,0,0,1.2068,optionLeft,55,5900,3,22,0,22,0,1,,,,,,,,,,,,,,,,,,,,,,,,,,,,,,,,,,,,,,,
,,,,,,,,2023-08-16_08h40.27.301,HF_wild_card,2022.2.4,Win32,60.48874909,5ea20fd571038c119083a8df,64d2fd46c836a06233681665,64dc7d3b2cc2e184b3a08d98,,,,,,,decisionTrl,resources/DBN.BMP,resources/DR.BMP,Door1,-0.186111097,-0.00462963,1,0,0,2.6528,optionLeft,30,5930,3,23,0,23,0,1,,,,,,,,,,,,,,,,,,,,,,,,,,,,,,,,,,,,,,,
,,,,,,,,2023-08-16_08h40.27.301,HF_wild_card,2022.2.4,Win32,60.48874909,5ea20fd571038c119083a8df,64d2fd46c836a06233681665,64dc7d3b2cc2e184b3a08d98,,,,,,,ctch,resources/DBN.BMP,resources/DG.BMP,Door4,0.223148134,0.015740748,1,0,0,1.6807,optionRight,80,6010,3,24,0,24,0,1,,,,,,,,,,,,,,,,,,,,,,,,,,,,,,,,,,,,,,,
,,,,,,,,2023-08-16_08h40.27.301,HF_wild_card,2022.2.4,Win32,60.48874909,5ea20fd571038c119083a8df,64d2fd46c836a06233681665,64dc7d3b2cc2e184b3a08d98,,,,,,,decisionTrl,resources/DBN.BMP,resources/DB.BMP,WildCard_NonEx,0.174074102,0.027777778,1,0,0,1.2705,optionRight,45,6055,3,25,0,25,0,1,,,,,,,,,,,,,,,,,,,,,,,,,,,,,,,,,,,,,,,
,,,,,,,,2023-08-16_08h40.27.301,HF_wild_card,2022.2.4,Win32,60.48874909,5ea20fd571038c119083a8df,64d2fd46c836a06233681665,64dc7d3b2cc2e184b3a08d98,,,,,,,decisionTrl,resources/DB.BMP,resources/DBN.BMP,WildCard_NonEx,-0.22592594,-0.053703697,1,0,0,1.1887,optionLeft,45,6100,3,26,0,26,0,1,,,,,,,,,,,,,,,,,,,,,,,,,,,,,,,,,,,,,,,
,,,,,,,,2023-08-16_08h40.27.301,HF_wild_card,2022.2.4,Win32,60.48874909,5ea20fd571038c119083a8df,64d2fd46c836a06233681665,64dc7d3b2cc2e184b3a08d98,,,,,,,sngl,resources/Empty.png,resources/DG.BMP,Door4,0.240740741,0.01944443,1,0,0,1.4602,optionRight,60,6160,3,27,0,27,0,1,,,,,,,,,,,,,,,,,,,,,,,,,,,,,,,,,,,,,,,
,,,,,,,,2023-08-16_08h40.27.301,HF_wild_card,2022.2.4,Win32,60.48874909,5ea20fd571038c119083a8df,64d2fd46c836a06233681665,64dc7d3b2cc2e184b3a08d98,,,,,,,decisionTrl,resources/DR.BMP,resources/DBN.BMP,Door2,-0.233333305,-0.025925919,1,0,0,1.9085,optionLeft,20,6180,3,28,0,28,0,1,,,,,,,,,,,,,,,,,,,,,,,,,,,,,,,,,,,,,,,
,,,,,,,,2023-08-16_08h40.27.301,HF_wild_card,2022.2.4,Win32,60.48874909,5ea20fd571038c119083a8df,64d2fd46c836a06233681665,64dc7d3b2cc2e184b3a08d98,,,,,,,sngl,resources/Empty.png,resources/DBN.BMP,Door1,0.20648151,0.023148148,1,0,0,1.273,optionRight,30,6210,3,29,0,29,0,1,,,,,,,,,,,,,,,,,,,,,,,,,,,,,,,,,,,,,,,
,,,,,,,,2023-08-16_08h40.27.301,HF_wild_card,2022.2.4,Win32,60.48874909,5ea20fd571038c119083a8df,64d2fd46c836a06233681665,64dc7d3b2cc2e184b3a08d98,,,,,,,decisionTrl,resources/DBN.BMP,resources/DR.BMP,Door1,-0.282407407,-0.002777771,1,0,0,1.6556,optionLeft,30,6240,3,30,0,30,0,1,,,,,,,,,,,,,,,,,,,,,,,,,,,,,,,,,,,,,,,
,,,,,,,,2023-08-16_08h40.27.301,HF_wild_card,2022.2.4,Win32,60.48874909,5ea20fd571038c119083a8df,64d2fd46c836a06233681665,64dc7d3b2cc2e184b3a08d98,,,,,,,ctch,resources/DR.BMP,resources/DY.BMP,Door3,0.267592607,0.010185171,1,0,0,1.1021,optionRight,70,6310,3,31,0,31,0,1,,,,,,,,,,,,,,,,,,,,,,,,,,,,,,,,,,,,,,,
,,,,,,,,2023-08-16_08h40.27.301,HF_wild_card,2022.2.4,Win32,60.48874909,5ea20fd571038c119083a8df,64d2fd46c836a06233681665,64dc7d3b2cc2e184b3a08d98,,,,,,,sngl,resources/DY.BMP,resources/Empty.png,Door3,-0.297222208,-0.056481503,1,0,0,1.1654,optionLeft,70,6380,3,32,0,32,0,1,,,,,,,,,,,,,,,,,,,,,,,,,,,,,,,,,,,,,,,
,,,,,,,,2023-08-16_08h40.27.301,HF_wild_card,2022.2.4,Win32,60.48874909,5ea20fd571038c119083a8df,64d2fd46c836a06233681665,64dc7d3b2cc2e184b3a08d98,,,,,,,ctch,resources/DBN.BMP,resources/DG.BMP,Door4,0.374074159,-0.0074074,1,0,0,1.5123,optionRight,60,6440,3,33,0,33,0,1,,,,,,,,,,,,,,,,,,,,,,,,,,,,,,,,,,,,,,,
,,,,,,,,2023-08-16_08h40.27.301,HF_wild_card,2022.2.4,Win32,60.48874909,5ea20fd571038c119083a8df,64d2fd46c836a06233681665,64dc7d3b2cc2e184b3a08d98,,,,,,,decisionTrl,resources/DB.BMP,resources/DY.BMP,Door3,0.264814801,-0.000925947,1,0,0,1.2157,optionRight,70,6510,3,34,0,34,0,1,,,,,,,,,,,,,,,,,,,,,,,,,,,,,,,,,,,,,,,
,,,,,,,,2023-08-16_08h40.27.301,HF_wild_card,2022.2.4,Win32,60.48874909,5ea20fd571038c119083a8df,64d2fd46c836a06233681665,64dc7d3b2cc2e184b3a08d98,,,,,,,decisionTrl,resources/DG.BMP,resources/DY.BMP,Door3,0.312962991,0.022222201,1,0,0,1.3909,optionRight,70,6580,3,35,0,35,0,1,,,,,,,,,,,,,,,,,,,,,,,,,,,,,,,,,,,,,,,
,,,,,,,,2023-08-16_08h40.27.301,HF_wild_card,2022.2.4,Win32,60.48874909,5ea20fd571038c119083a8df,64d2fd46c836a06233681665,64dc7d3b2cc2e184b3a08d98,,,,,,,ctch,resources/DY.BMP,resources/DR.BMP,Door3,-0.35833334,-0.040740755,1,0,0,1.0167,optionLeft,70,6650,3,36,0,36,0,1,,,,,,,,,,,,,,,,,,,,,,,,,,,,,,,,,,,,,,,
,,,,,,,,2023-08-16_08h40.27.301,HF_wild_card,2022.2.4,Win32,60.48874909,5ea20fd571038c119083a8df,64d2fd46c836a06233681665,64dc7d3b2cc2e184b3a08d98,,,,,,,sngl,resources/Empty.png,resources/DB.BMP,WildCard_NonEx,0.262962977,0.00462963,1,0,0,1.3002,optionRight,55,6705,3,37,0,37,0,1,,,,,,,,,,,,,,,,,,,,,,,,,,,,,,,,,,,,,,,
,,,,,,,,2023-08-16_08h40.27.301,HF_wild_card,2022.2.4,Win32,60.48874909,5ea20fd571038c119083a8df,64d2fd46c836a06233681665,64dc7d3b2cc2e184b3a08d98,,,,,,,sngl,resources/DB.BMP,resources/Empty.png,WildCard_NonEx,-0.307407414,-0.000925947,1,0,0,1.4768,optionLeft,45,6750,3,38,0,38,0,1,,,,,,,,,,,,,,,,,,,,,,,,,,,,,,,,,,,,,,,
,,,,,,,,2023-08-16_08h40.27.301,HF_wild_card,2022.2.4,Win32,60.48874909,5ea20fd571038c119083a8df,64d2fd46c836a06233681665,64dc7d3b2cc2e184b3a08d98,,,,,,,sngl,resources/DBN.BMP,resources/Empty.png,Door1,-0.198148162,-0.025000007,1,0,0,1.7789,optionLeft,30,6780,3,39,0,39,0,1,,,,,,,,,,,,,,,,,,,,,,,,,,,,,,,,,,,,,,,
,,,,,,,,2023-08-16_08h40.27.301,HF_wild_card,2022.2.4,Win32,60.48874909,5ea20fd571038c119083a8df,64d2fd46c836a06233681665,64dc7d3b2cc2e184b3a08d98,,,,,,,decisionTrl,resources/DG.BMP,resources/DY.BMP,Door3,0.310185185,0.010185171,1,0,0,1.3314,optionRight,70,6850,3,40,0,40,0,1,,,,,,,,,,,,,,,,,,,,,,,,,,,,,,,,,,,,,,,
,,,,,,,,2023-08-16_08h40.27.301,HF_wild_card,2022.2.4,Win32,60.48874909,5ea20fd571038c119083a8df,64d2fd46c836a06233681665,64dc7d3b2cc2e184b3a08d98,,,,,,,ctch,resources/DG.BMP,resources/DBN.BMP,Door4,-0.247222194,-0.034259266,1,0,0,2.8795,optionLeft,80,6930,3,41,0,41,0,1,,,,,,,,,,,,,,,,,,,,,,,,,,,,,,,,,,,,,,,
,,,,,,,,2023-08-16_08h40.27.301,HF_wild_card,2022.2.4,Win32,60.48874909,5ea20fd571038c119083a8df,64d2fd46c836a06233681665,64dc7d3b2cc2e184b3a08d98,,,,,,,decisionTrl,resources/DR.BMP,resources/DBN.BMP,Door1,0.234259288,-0.014814836,1,0,0,3.2031,optionRight,30,6960,3,42,0,42,0,1,,,,,,,,,,,,,,,,,,,,,,,,,,,,,,,,,,,,,,,
,,,,,,,,2023-08-16_08h40.27.301,HF_wild_card,2022.2.4,Win32,60.48874909,5ea20fd571038c119083a8df,64d2fd46c836a06233681665,64dc7d3b2cc2e184b3a08d98,,,,,,,sngl,resources/DR.BMP,resources/Empty.png,Door2,-0.285185143,-0.08425928,1,0,0,1.4036,optionLeft,40,7000,3,43,0,43,0,1,,,,,,,,,,,,,,,,,,,,,,,,,,,,,,,,,,,,,,,
,,,,,,,,2023-08-16_08h40.27.301,HF_wild_card,2022.2.4,Win32,60.48874909,5ea20fd571038c119083a8df,64d2fd46c836a06233681665,64dc7d3b2cc2e184b3a08d98,,,,,,,,,,,,,,,,,,,,,,,,,,2,0,2,0,1,,,,,,,,,,,,,,,,,,,,,,,,,,,,,,,,,,
,,,,,,,,2023-08-16_08h40.27.301,HF_wild_card,2022.2.4,Win32,60.48874909,5ea20fd571038c119083a8df,64d2fd46c836a06233681665,64dc7d3b2cc2e184b3a08d98,,,,,,,decisionTrl,resources/DR.BMP,resources/DBN.BMP,Door2,-0.272222236,-0.047222243,1,0,0,2.8493,optionLeft,20,7020,4,0,0,0,0,1,,,,,,,,,,,,,,,,,,,,,,,,,,,,,,,,,,,,,,,
,,,,,,,,2023-08-16_08h40.27.301,HF_wild_card,2022.2.4,Win32,60.48874909,5ea20fd571038c119083a8df,64d2fd46c836a06233681665,64dc7d3b2cc2e184b3a08d98,,,,,,,decisionTrl,resources/DY.BMP,resources/DG.BMP,Door3,-0.303703697,-0.023148148,1,0,0,1.3965,optionLeft,70,7090,4,1,0,1,0,1,,,,,,,,,,,,,,,,,,,,,,,,,,,,,,,,,,,,,,,
,,,,,,,,2023-08-16_08h40.27.301,HF_wild_card,2022.2.4,Win32,60.48874909,5ea20fd571038c119083a8df,64d2fd46c836a06233681665,64dc7d3b2cc2e184b3a08d98,,,,,,,decisionTrl,resources/DG.BMP,resources/DY.BMP,Door3,0.281481496,-0.012962977,1,0,0,1.1022,optionRight,70,7160,4,2,0,2,0,1,,,,,,,,,,,,,,,,,,,,,,,,,,,,,,,,,,,,,,,
,,,,,,,,2023-08-16_08h40.27.301,HF_wild_card,2022.2.4,Win32,60.48874909,5ea20fd571038c119083a8df,64d2fd46c836a06233681665,64dc7d3b2cc2e184b3a08d98,,,,,,,decisionTrl,resources/DY.BMP,resources/DG.BMP,Door3,-0.240740741,-0.032407407,1,0,0,1.0888,optionLeft,70,7230,4,3,0,3,0,1,,,,,,,,,,,,,,,,,,,,,,,,,,,,,,,,,,,,,,,
,,,,,,,,2023-08-16_08h40.27.301,HF_wild_card,2022.2.4,Win32,60.48874909,5ea20fd571038c119083a8df,64d2fd46c836a06233681665,64dc7d3b2cc2e184b3a08d98,,,,,,,decisionTrl,resources/DR.BMP,resources/DBN.BMP,Door1,0.199074074,0.021296289,1,0,0,1.9486,optionRight,30,7260,4,4,0,4,0,1,,,,,,,,,,,,,,,,,,,,,,,,,,,,,,,,,,,,,,,
,,,,,,,,2023-08-16_08h40.27.301,HF_wild_card,2022.2.4,Win32,60.48874909,5ea20fd571038c119083a8df,64d2fd46c836a06233681665,64dc7d3b2cc2e184b3a08d98,,,,,,,decisionTrl,resources/DY.BMP,resources/DP.BMP,Door3,-0.244444459,-0.051851873,1,0,0,1.212,optionLeft,70,7330,4,5,0,5,0,1,,,,,,,,,,,,,,,,,,,,,,,,,,,,,,,,,,,,,,,
,,,,,,,,2023-08-16_08h40.27.301,HF_wild_card,2022.2.4,Win32,60.48874909,5ea20fd571038c119083a8df,64d2fd46c836a06233681665,64dc7d3b2cc2e184b3a08d98,,,,,,,decisionTrl,resources/DBN.BMP,resources/DR.BMP,Door1,-0.199074074,-0.005555577,1,0,0,1.9718,optionLeft,30,7360,4,6,0,6,0,1,,,,,,,,,,,,,,,,,,,,,,,,,,,,,,,,,,,,,,,
,,,,,,,,2023-08-16_08h40.27.301,HF_wild_card,2022.2.4,Win32,60.48874909,5ea20fd571038c119083a8df,64d2fd46c836a06233681665,64dc7d3b2cc2e184b3a08d98,,,,,,,decisionTrl,resources/DY.BMP,resources/DG.BMP,Door3,-0.246296282,-0.050000014,1,0,0,1.1482,optionLeft,70,7430,4,7,0,7,0,1,,,,,,,,,,,,,,,,,,,,,,,,,,,,,,,,,,,,,,,
,,,,,,,,2023-08-16_08h40.27.301,HF_wild_card,2022.2.4,Win32,60.48874909,5ea20fd571038c119083a8df,64d2fd46c836a06233681665,64dc7d3b2cc2e184b3a08d98,,,,,,,sngl,resources/Empty.png,resources/DY.BMP,Door3,0.387037065,-0.031481496,1,0,0,1.0489,optionRight,70,7500,4,8,0,8,0,1,,,,,,,,,,,,,,,,,,,,,,,,,,,,,,,,,,,,,,,
,,,,,,,,2023-08-16_08h40.27.301,HF_wild_card,2022.2.4,Win32,60.48874909,5ea20fd571038c119083a8df,64d2fd46c836a06233681665,64dc7d3b2cc2e184b3a08d98,,,,,,,ctch,resources/DG.BMP,resources/DBN.BMP,Door4,-0.252777735,-0.019444466,1,0,0,1.5776,optionLeft,60,7560,4,9,0,9,0,1,,,,,,,,,,,,,,,,,,,,,,,,,,,,,,,,,,,,,,,
,,,,,,,,2023-08-16_08h40.27.301,HF_wild_card,2022.2.4,Win32,60.48874909,5ea20fd571038c119083a8df,64d2fd46c836a06233681665,64dc7d3b2cc2e184b3a08d98,,,,,,,sngl,resources/Empty.png,resources/DP.BMP,WildCard_Ex,0.336111139,-0.027777778,1,0,0,1.0228,optionRight,45,7605,4,10,0,10,0,1,,,,,,,,,,,,,,,,,,,,,,,,,,,,,,,,,,,,,,,
,,,,,,,,2023-08-16_08h40.27.301,HF_wild_card,2022.2.4,Win32,60.48874909,5ea20fd571038c119083a8df,64d2fd46c836a06233681665,64dc7d3b2cc2e184b3a08d98,,,,,,,decisionTrl,resources/DBN.BMP,resources/DP.BMP,WildCard_Ex,0.301851908,-0.030555548,1,0,0,1.3227,optionRight,55,7660,4,11,0,11,0,1,,,,,,,,,,,,,,,,,,,,,,,,,,,,,,,,,,,,,,,
,,,,,,,,2023-08-16_08h40.27.301,HF_wild_card,2022.2.4,Win32,60.48874909,5ea20fd571038c119083a8df,64d2fd46c836a06233681665,64dc7d3b2cc2e184b3a08d98,,,,,,,decisionTrl,resources/DBN.BMP,resources/DR.BMP,Door1,-0.175000014,-0.030555548,1,0,0,2.2122,optionLeft,30,7690,4,12,0,12,0,1,,,,,,,,,,,,,,,,,,,,,,,,,,,,,,,,,,,,,,,
,,,,,,,,2023-08-16_08h40.27.301,HF_wild_card,2022.2.4,Win32,60.48874909,5ea20fd571038c119083a8df,64d2fd46c836a06233681665,64dc7d3b2cc2e184b3a08d98,,,,,,,sngl,resources/DR.BMP,resources/Empty.png,Door2,-0.260185171,-0.049074067,1,0,0,1.486,optionLeft,20,7710,4,13,0,13,0,1,,,,,,,,,,,,,,,,,,,,,,,,,,,,,,,,,,,,,,,
,,,,,,,,2023-08-16_08h40.27.301,HF_wild_card,2022.2.4,Win32,60.48874909,5ea20fd571038c119083a8df,64d2fd46c836a06233681665,64dc7d3b2cc2e184b3a08d98,,,,,,,sngl,resources/Empty.png,resources/DG.BMP,Door4,0.317592621,0.002777771,1,0,0,0.9855,optionRight,80,7790,4,14,0,14,0,1,,,,,,,,,,,,,,,,,,,,,,,,,,,,,,,,,,,,,,,
,,,,,,,,2023-08-16_08h40.27.301,HF_wild_card,2022.2.4,Win32,60.48874909,5ea20fd571038c119083a8df,64d2fd46c836a06233681665,64dc7d3b2cc2e184b3a08d98,,,,,,,ctch,resources/DBN.BMP,resources/DG.BMP,Door4,0.220370399,0,1,0,0,1.8477,optionRight,60,7850,4,15,0,15,0,1,,,,,,,,,,,,,,,,,,,,,,,,,,,,,,,,,,,,,,,
,,,,,,,,2023-08-16_08h40.27.301,HF_wild_card,2022.2.4,Win32,60.48874909,5ea20fd571038c119083a8df,64d2fd46c836a06233681665,64dc7d3b2cc2e184b3a08d98,,,,,,,decisionTrl,resources/DP.BMP,resources/DY.BMP,Door3,0.262037065,0.01203703,1,0,0,1.9864,optionRight,70,7920,4,16,0,16,0,1,,,,,,,,,,,,,,,,,,,,,,,,,,,,,,,,,,,,,,,
,,,,,,,,2023-08-16_08h40.27.301,HF_wild_card,2022.2.4,Win32,60.48874909,5ea20fd571038c119083a8df,64d2fd46c836a06233681665,64dc7d3b2cc2e184b3a08d98,,,,,,,decisionTrl,resources/DR.BMP,resources/DBN.BMP,Door2,-0.23055557,-0.080555563,1,0,0,2.233,optionLeft,40,7960,4,17,0,17,0,1,,,,,,,,,,,,,,,,,,,,,,,,,,,,,,,,,,,,,,,
,,,,,,,,2023-08-16_08h40.27.301,HF_wild_card,2022.2.4,Win32,60.48874909,5ea20fd571038c119083a8df,64d2fd46c836a06233681665,64dc7d3b2cc2e184b3a08d98,,,,,,,sngl,resources/Empty.png,resources/DR.BMP,Door2,0.281481496,-0.020370377,1,0,0,1.1558,optionRight,40,8000,4,18,0,18,0,1,,,,,,,,,,,,,,,,,,,,,,,,,,,,,,,,,,,,,,,
,,,,,,,,2023-08-16_08h40.27.301,HF_wild_card,2022.2.4,Win32,60.48874909,5ea20fd571038c119083a8df,64d2fd46c836a06233681665,64dc7d3b2cc2e184b3a08d98,,,,,,,ctch,resources/DY.BMP,resources/DR.BMP,Door3,-0.346296275,-0.023148148,1,0,0,1.2735,optionLeft,70,8070,4,19,0,19,0,1,,,,,,,,,,,,,,,,,,,,,,,,,,,,,,,,,,,,,,,
,,,,,,,,2023-08-16_08h40.27.301,HF_wild_card,2022.2.4,Win32,60.48874909,5ea20fd571038c119083a8df,64d2fd46c836a06233681665,64dc7d3b2cc2e184b3a08d98,,,,,,,sngl,resources/Empty.png,resources/DP.BMP,WildCard_Ex,0.251851894,0.003703683,1,0,0,1.2052,optionRight,55,8125,4,20,0,20,0,1,,,,,,,,,,,,,,,,,,,,,,,,,,,,,,,,,,,,,,,
,,,,,,,,2023-08-16_08h40.27.301,HF_wild_card,2022.2.4,Win32,60.48874909,5ea20fd571038c119083a8df,64d2fd46c836a06233681665,64dc7d3b2cc2e184b3a08d98,,,,,,,ctch,resources/DR.BMP,resources/DY.BMP,Door3,0.262037065,-0.000925947,1,0,0,1.2065,optionRight,70,8195,4,21,0,21,0,1,,,,,,,,,,,,,,,,,,,,,,,,,,,,,,,,,,,,,,,
,,,,,,,,2023-08-16_08h40.27.301,HF_wild_card,2022.2.4,Win32,60.48874909,5ea20fd571038c119083a8df,64d2fd46c836a06233681665,64dc7d3b2cc2e184b3a08d98,,,,,,,decisionTrl,resources/DP.BMP,resources/DBN.BMP,WildCard_Ex,-0.322222215,-0.062962956,1,0,0,1.2836,optionLeft,55,8250,4,22,0,22,0,1,,,,,,,,,,,,,,,,,,,,,,,,,,,,,,,,,,,,,,,
,,,,,,,,2023-08-16_08h40.27.301,HF_wild_card,2022.2.4,Win32,60.48874909,5ea20fd571038c119083a8df,64d2fd46c836a06233681665,64dc7d3b2cc2e184b3a08d98,,,,,,,decisionTrl,resources/DBN.BMP,resources/DR.BMP,Door1,-0.206481439,-0.031481496,1,0,0,2.3873,optionLeft,30,8280,4,23,0,23,0,1,,,,,,,,,,,,,,,,,,,,,,,,,,,,,,,,,,,,,,,
,,,,,,,,2023-08-16_08h40.27.301,HF_wild_card,2022.2.4,Win32,60.48874909,5ea20fd571038c119083a8df,64d2fd46c836a06233681665,64dc7d3b2cc2e184b3a08d98,,,,,,,decisionTrl,resources/DY.BMP,resources/DG.BMP,Door3,-0.169444402,-0.025000007,1,0,0,2.2336,optionLeft,70,8350,4,24,0,24,0,1,,,,,,,,,,,,,,,,,,,,,,,,,,,,,,,,,,,,,,,
,,,,,,,,2023-08-16_08h40.27.301,HF_wild_card,2022.2.4,Win32,60.48874909,5ea20fd571038c119083a8df,64d2fd46c836a06233681665,64dc7d3b2cc2e184b3a08d98,,,,,,,decisionTrl,resources/DP.BMP,resources/DG.BMP,Door4,0.226851852,-0.0074074,1,0,0,2.3605,optionRight,80,8430,4,25,0,25,0,1,,,,,,,,,,,,,,,,,,,,,,,,,,,,,,,,,,,,,,,
,,,,,,,,2023-08-16_08h40.27.301,HF_wild_card,2022.2.4,Win32,60.48874909,5ea20fd571038c119083a8df,64d2fd46c836a06233681665,64dc7d3b2cc2e184b3a08d98,,,,,,,ctch,resources/DY.BMP,resources/DR.BMP,Door3,-0.22592594,-0.053703697,1,0,0,1.3041,optionLeft,70,8500,4,26,0,26,0,1,,,,,,,,,,,,,,,,,,,,,,,,,,,,,,,,,,,,,,,
,,,,,,,,2023-08-16_08h40.27.301,HF_wild_card,2022.2.4,Win32,60.48874909,5ea20fd571038c119083a8df,64d2fd46c836a06233681665,64dc7d3b2cc2e184b3a08d98,,,,,,,sngl,resources/DP.BMP,resources/Empty.png,WildCard_Ex,-0.268518519,-0.049074067,1,0,0,1.3367,optionLeft,45,8545,4,27,0,27,0,1,,,,,,,,,,,,,,,,,,,,,,,,,,,,,,,,,,,,,,,
,,,,,,,,2023-08-16_08h40.27.301,HF_wild_card,2022.2.4,Win32,60.48874909,5ea20fd571038c119083a8df,64d2fd46c836a06233681665,64dc7d3b2cc2e184b3a08d98,,,,,,,decisionTrl,resources/DG.BMP,resources/DY.BMP,Door4,-0.232407393,-0.050000014,1,0,0,1.168,optionLeft,60,8605,4,28,0,28,0,1,,,,,,,,,,,,,,,,,,,,,,,,,,,,,,,,,,,,,,,
,,,,,,,,2023-08-16_08h40.27.301,HF_wild_card,2022.2.4,Win32,60.48874909,5ea20fd571038c119083a8df,64d2fd46c836a06233681665,64dc7d3b2cc2e184b3a08d98,,,,,,,decisionTrl,resources/DG.BMP,resources/DY.BMP,Door3,0.260185171,-0.021296289,1,0,0,1.9665,optionRight,70,8675,4,29,0,29,0,1,,,,,,,,,,,,,,,,,,,,,,,,,,,,,,,,,,,,,,,
,,,,,,,,2023-08-16_08h40.27.301,HF_wild_card,2022.2.4,Win32,60.48874909,5ea20fd571038c119083a8df,64d2fd46c836a06233681665,64dc7d3b2cc2e184b3a08d98,,,,,,,decisionTrl,resources/DG.BMP,resources/DY.BMP,Door3,0.248148176,-0.0074074,1,0,0,1.3903,optionRight,70,8745,4,30,0,30,0,1,,,,,,,,,,,,,,,,,,,,,,,,,,,,,,,,,,,,,,,
,,,,,,,,2023-08-16_08h40.27.301,HF_wild_card,2022.2.4,Win32,60.48874909,5ea20fd571038c119083a8df,64d2fd46c836a06233681665,64dc7d3b2cc2e184b3a08d98,,,,,,,sngl,resources/DG.BMP,resources/Empty.png,Door4,-0.263888889,0.005555541,1,0,0,1.6941,optionLeft,60,8805,4,31,0,31,0,1,,,,,,,,,,,,,,,,,,,,,,,,,,,,,,,,,,,,,,,
,,,,,,,,2023-08-16_08h40.27.301,HF_wild_card,2022.2.4,Win32,60.48874909,5ea20fd571038c119083a8df,64d2fd46c836a06233681665,64dc7d3b2cc2e184b3a08d98,,,,,,,ctch,resources/DBN.BMP,resources/DG.BMP,Door4,0.273148148,0.01944443,1,0,0,2.0164,optionRight,80,8885,4,32,0,32,0,1,,,,,,,,,,,,,,,,,,,,,,,,,,,,,,,,,,,,,,,
,,,,,,,,2023-08-16_08h40.27.301,HF_wild_card,2022.2.4,Win32,60.48874909,5ea20fd571038c119083a8df,64d2fd46c836a06233681665,64dc7d3b2cc2e184b3a08d98,,,,,,,decisionTrl,resources/DR.BMP,resources/DBN.BMP,Door1,0.158333319,0.003703683,1,0,0,2.9435,optionRight,30,8915,4,33,0,33,0,1,,,,,,,,,,,,,,,,,,,,,,,,,,,,,,,,,,,,,,,
,,,,,,,,2023-08-16_08h40.27.301,HF_wild_card,2022.2.4,Win32,60.48874909,5ea20fd571038c119083a8df,64d2fd46c836a06233681665,64dc7d3b2cc2e184b3a08d98,,,,,,,sngl,resources/DBN.BMP,resources/Empty.png,Door1,-0.299999979,-0.074074074,1,0,0,1.1825,optionLeft,30,8945,4,34,0,34,0,1,,,,,,,,,,,,,,,,,,,,,,,,,,,,,,,,,,,,,,,
,,,,,,,,2023-08-16_08h40.27.301,HF_wild_card,2022.2.4,Win32,60.48874909,5ea20fd571038c119083a8df,64d2fd46c836a06233681665,64dc7d3b2cc2e184b3a08d98,,,,,,,sngl,resources/Empty.png,resources/DBN.BMP,Door1,0.238888917,0.020370377,1,0,0,1.2033,optionRight,30,8975,4,35,0,35,0,1,,,,,,,,,,,,,,,,,,,,,,,,,,,,,,,,,,,,,,,
,,,,,,,,2023-08-16_08h40.27.301,HF_wild_card,2022.2.4,Win32,60.48874909,5ea20fd571038c119083a8df,64d2fd46c836a06233681665,64dc7d3b2cc2e184b3a08d98,,,,,,,sngl,resources/DY.BMP,resources/Empty.png,Door3,-0.323148127,-0.071296303,1,0,0,1.0367,optionLeft,70,9045,4,36,0,36,0,1,,,,,,,,,,,,,,,,,,,,,,,,,,,,,,,,,,,,,,,
,,,,,,,,2023-08-16_08h40.27.301,HF_wild_card,2022.2.4,Win32,60.48874909,5ea20fd571038c119083a8df,64d2fd46c836a06233681665,64dc7d3b2cc2e184b3a08d98,,,,,,,decisionTrl,resources/DP.BMP,resources/DR.BMP,WildCard_Ex,-0.195370356,-0.01203703,1,0,0,1.8167,optionLeft,55,9100,4,37,0,37,0,1,,,,,,,,,,,,,,,,,,,,,,,,,,,,,,,,,,,,,,,
,,,,,,,,2023-08-16_08h40.27.301,HF_wild_card,2022.2.4,Win32,60.48874909,5ea20fd571038c119083a8df,64d2fd46c836a06233681665,64dc7d3b2cc2e184b3a08d98,,,,,,,ctch,resources/DR.BMP,resources/DY.BMP,Door3,0.224074116,-0.022222236,1,0,0,1.4337,optionRight,70,9170,4,38,0,38,0,1,,,,,,,,,,,,,,,,,,,,,,,,,,,,,,,,,,,,,,,
,,,,,,,,2023-08-16_08h40.27.301,HF_wild_card,2022.2.4,Win32,60.48874909,5ea20fd571038c119083a8df,64d2fd46c836a06233681665,64dc7d3b2cc2e184b3a08d98,,,,,,,decisionTrl,resources/DBN.BMP,resources/DR.BMP,Door1,-0.317592586,-0.077777792,1,0,0,2.5848,optionLeft,30,9200,4,39,0,39,0,1,,,,,,,,,,,,,,,,,,,,,,,,,,,,,,,,,,,,,,,
,,,,,,,,2023-08-16_08h40.27.301,HF_wild_card,2022.2.4,Win32,60.48874909,5ea20fd571038c119083a8df,64d2fd46c836a06233681665,64dc7d3b2cc2e184b3a08d98,,,,,,,decisionTrl,resources/DR.BMP,resources/DP.BMP,WildCard_Ex,0.271296325,-0.049074067,1,0,0,1.2918,optionRight,55,9255,4,40,0,40,0,1,,,,,,,,,,,,,,,,,,,,,,,,,,,,,,,,,,,,,,,
,,,,,,,,2023-08-16_08h40.27.301,HF_wild_card,2022.2.4,Win32,60.48874909,5ea20fd571038c119083a8df,64d2fd46c836a06233681665,64dc7d3b2cc2e184b3a08d98,,,,,,,sngl,resources/DP.BMP,resources/Empty.png,WildCard_Ex,-0.283333319,-0.072222215,1,0,0,1.1769,optionLeft,55,9310,4,41,0,41,0,1,,,,,,,,,,,,,,,,,,,,,,,,,,,,,,,,,,,,,,,
,,,,,,,,2023-08-16_08h40.27.301,HF_wild_card,2022.2.4,Win32,60.48874909,5ea20fd571038c119083a8df,64d2fd46c836a06233681665,64dc7d3b2cc2e184b3a08d98,,,,,,,ctch,resources/DG.BMP,resources/DBN.BMP,Door4,-0.227777764,-0.041666667,1,0,0,1.6022,optionLeft,60,9370,4,42,0,42,0,1,,,,,,,,,,,,,,,,,,,,,,,,,,,,,,,,,,,,,,,
,,,,,,,,2023-08-16_08h40.27.301,HF_wild_card,2022.2.4,Win32,60.48874909,5ea20fd571038c119083a8df,64d2fd46c836a06233681665,64dc7d3b2cc2e184b3a08d98,,,,,,,decisionTrl,resources/DG.BMP,resources/DP.BMP,Door4,-0.302777785,-0.079629651,1,0,0,1.0068,optionLeft,60,9430,4,43,0,43,0,1,,,,,,,,,,,,,,,,,,,,,,,,,,,,,,,,,,,,,,,
,,,,,,,,2023-08-16_08h40.27.301,HF_wild_card,2022.2.4,Win32,60.48874909,5ea20fd571038c119083a8df,64d2fd46c836a06233681665,64dc7d3b2cc2e184b3a08d98,,,,,,,,,,,,,,,,,,,,,,,,,,3,0,3,0,1,,,,,,,,,,,,,,,,,,,,,,,,,,,,,,,,,,
,,,,,,,,2023-08-16_08h40.27.301,HF_wild_card,2022.2.4,Win32,60.48874909,5ea20fd571038c119083a8df,64d2fd46c836a06233681665,64dc7d3b2cc2e184b3a08d98,,,,,,,ctch,resources/DR.BMP,resources/DY.BMP,Door3,0.362962935,0.020370377,1,0,0,1.8402,optionRight,70,9500,5,0,0,0,0,1,,,,,,,,,,,,,,,,,,,,,,,,,,,,,,,,,,,,,,,
,,,,,,,,2023-08-16_08h40.27.301,HF_wild_card,2022.2.4,Win32,60.48874909,5ea20fd571038c119083a8df,64d2fd46c836a06233681665,64dc7d3b2cc2e184b3a08d98,,,,,,,sngl,resources/Empty.png,resources/DG.BMP,Door4,0.303703732,-0.006481489,1,0,0,1.1296,optionRight,60,9560,5,1,0,1,0,1,,,,,,,,,,,,,,,,,,,,,,,,,,,,,,,,,,,,,,,
,,,,,,,,2023-08-16_08h40.27.301,HF_wild_card,2022.2.4,Win32,60.48874909,5ea20fd571038c119083a8df,64d2fd46c836a06233681665,64dc7d3b2cc2e184b3a08d98,,,,,,,decisionTrl,resources/DR.BMP,resources/DBN.BMP,Door1,0.234259288,0.052777785,1,0,0,2.6062,optionRight,30,9590,5,2,0,2,0,1,,,,,,,,,,,,,,,,,,,,,,,,,,,,,,,,,,,,,,,
,,,,,,,,2023-08-16_08h40.27.301,HF_wild_card,2022.2.4,Win32,60.48874909,5ea20fd571038c119083a8df,64d2fd46c836a06233681665,64dc7d3b2cc2e184b3a08d98,,,,,,,decisionTrl,resources/DG.BMP,resources/DY.BMP,Door3,0.287962949,-0.009259259,1,0,0,1.2204,optionRight,70,9660,5,3,0,3,0,1,,,,,,,,,,,,,,,,,,,,,,,,,,,,,,,,,,,,,,,
,,,,,,,,2023-08-16_08h40.27.301,HF_wild_card,2022.2.4,Win32,60.48874909,5ea20fd571038c119083a8df,64d2fd46c836a06233681665,64dc7d3b2cc2e184b3a08d98,,,,,,,ctch,resources/DY.BMP,resources/DR.BMP,Door3,-0.306481467,-0.072222215,1,0,0,1.3156,optionLeft,70,9730,5,4,0,4,0,1,,,,,,,,,,,,,,,,,,,,,,,,,,,,,,,,,,,,,,,
,,,,,,,,2023-08-16_08h40.27.301,HF_wild_card,2022.2.4,Win32,60.48874909,5ea20fd571038c119083a8df,64d2fd46c836a06233681665,64dc7d3b2cc2e184b3a08d98,,,,,,,decisionTrl,resources/DR.BMP,resources/DBN.BMP,Door1,0.225000028,0.021296289,1,0,0,2.1937,optionRight,30,9760,5,5,0,5,0,1,,,,,,,,,,,,,,,,,,,,,,,,,,,,,,,,,,,,,,,
,,,,,,,,2023-08-16_08h40.27.301,HF_wild_card,2022.2.4,Win32,60.48874909,5ea20fd571038c119083a8df,64d2fd46c836a06233681665,64dc7d3b2cc2e184b3a08d98,,,,,,,ctch,resources/DG.BMP,resources/DBN.BMP,Door4,-0.303703697,-0.045370384,1,0,0,1.3883,optionLeft,80,9840,5,6,0,6,0,1,,,,,,,,,,,,,,,,,,,,,,,,,,,,,,,,,,,,,,,
,,,,,,,,2023-08-16_08h40.27.301,HF_wild_card,2022.2.4,Win32,60.48874909,5ea20fd571038c119083a8df,64d2fd46c836a06233681665,64dc7d3b2cc2e184b3a08d98,,,,,,,sngl,resources/Empty.png,resources/DP.BMP,WildCard_Ex,0.350926011,-0.01666666,1,0,0,1.023,optionRight,45,9885,5,7,0,7,0,1,,,,,,,,,,,,,,,,,,,,,,,,,,,,,,,,,,,,,,,
,,,,,,,,2023-08-16_08h40.27.301,HF_wild_card,2022.2.4,Win32,60.48874909,5ea20fd571038c119083a8df,64d2fd46c836a06233681665,64dc7d3b2cc2e184b3a08d98,,,,,,,decisionTrl,resources/DG.BMP,resources/DP.BMP,Door4,-0.292592578,-0.058333326,1,0,0,1.9848,optionLeft,80,9965,5,8,0,8,0,1,,,,,,,,,,,,,,,,,,,,,,,,,,,,,,,,,,,,,,,
,,,,,,,,2023-08-16_08h40.27.301,HF_wild_card,2022.2.4,Win32,60.48874909,5ea20fd571038c119083a8df,64d2fd46c836a06233681665,64dc7d3b2cc2e184b3a08d98,,,,,,,decisionTrl,resources/DY.BMP,resources/DG.BMP,Door3,-0.270370342,-0.014814836,1,0,0,1.7711,optionLeft,70,10035,5,9,0,9,0,1,,,,,,,,,,,,,,,,,,,,,,,,,,,,,,,,,,,,,,,
,,,,,,,,2023-08-16_08h40.27.301,HF_wild_card,2022.2.4,Win32,60.48874909,5ea20fd571038c119083a8df,64d2fd46c836a06233681665,64dc7d3b2cc2e184b3a08d98,,,,,,,sngl,resources/DP.BMP,resources/Empty.png,WildCard_Ex,-0.330555563,-0.092592593,1,0,0,1.069,optionLeft,55,10090,5,10,0,10,0,1,,,,,,,,,,,,,,,,,,,,,,,,,,,,,,,,,,,,,,,
,,,,,,,,2023-08-16_08h40.27.301,HF_wild_card,2022.2.4,Win32,60.48874909,5ea20fd571038c119083a8df,64d2fd46c836a06233681665,64dc7d3b2cc2e184b3a08d98,,,,,,,ctch,resources/DBN.BMP,resources/DG.BMP,Door4,0.393518519,0.01203703,1,0,0,2.5168,optionRight,60,10150,5,11,0,11,0,1,,,,,,,,,,,,,,,,,,,,,,,,,,,,,,,,,,,,,,,
,,,,,,,,2023-08-16_08h40.27.301,HF_wild_card,2022.2.4,Win32,60.48874909,5ea20fd571038c119083a8df,64d2fd46c836a06233681665,64dc7d3b2cc2e184b3a08d98,,,,,,,decisionTrl,resources/DP.BMP,resources/DG.BMP,Door4,0.236111111,-0.035185178,1,0,0,2.3348,optionRight,80,10230,5,12,0,12,0,1,,,,,,,,,,,,,,,,,,,,,,,,,,,,,,,,,,,,,,,
,,,,,,,,2023-08-16_08h40.27.301,HF_wild_card,2022.2.4,Win32,60.48874909,5ea20fd571038c119083a8df,64d2fd46c836a06233681665,64dc7d3b2cc2e184b3a08d98,,,,,,,sngl,resources/Empty.png,resources/DR.BMP,Door2,0.293518561,-0.025000007,1,0,0,1.7152,optionRight,20,10250,5,13,0,13,0,1,,,,,,,,,,,,,,,,,,,,,,,,,,,,,,,,,,,,,,,
,,,,,,,,2023-08-16_08h40.27.301,HF_wild_card,2022.2.4,Win32,60.48874909,5ea20fd571038c119083a8df,64d2fd46c836a06233681665,64dc7d3b2cc2e184b3a08d98,,,,,,,decisionTrl,resources/DY.BMP,resources/DG.BMP,Door4,0.37962963,-0.021296289,1,0,0,1.9053,optionRight,60,10310,5,14,0,14,0,1,,,,,,,,,,,,,,,,,,,,,,,,,,,,,,,,,,,,,,,
,,,,,,,,2023-08-16_08h40.27.301,HF_wild_card,2022.2.4,Win32,60.48874909,5ea20fd571038c119083a8df,64d2fd46c836a06233681665,64dc7d3b2cc2e184b3a08d98,,,,,,,decisionTrl,resources/DBN.BMP,resources/DR.BMP,Door1,-0.312037044,-0.109259288,1,0,0,1.8645,optionLeft,30,10340,5,15,0,15,0,1,,,,,,,,,,,,,,,,,,,,,,,,,,,,,,,,,,,,,,,
,,,,,,,,2023-08-16_08h40.27.301,HF_wild_card,2022.2.4,Win32,60.48874909,5ea20fd571038c119083a8df,64d2fd46c836a06233681665,64dc7d3b2cc2e184b3a08d98,,,,,,,sngl,resources/DP.BMP,resources/Empty.png,WildCard_Ex,-0.312037044,-0.08888891,1,0,0,1.0456,optionLeft,45,10385,5,16,0,16,0,1,,,,,,,,,,,,,,,,,,,,,,,,,,,,,,,,,,,,,,,
,,,,,,,,2023-08-16_08h40.27.301,HF_wild_card,2022.2.4,Win32,60.48874909,5ea20fd571038c119083a8df,64d2fd46c836a06233681665,64dc7d3b2cc2e184b3a08d98,,,,,,,decisionTrl,resources/DBN.BMP,resources/DP.BMP,WildCard_Ex,0.319444444,0.011111118,1,0,0,1.7617,optionRight,45,10430,5,17,0,17,0,1,,,,,,,,,,,,,,,,,,,,,,,,,,,,,,,,,,,,,,,
,,,,,,,,2023-08-16_08h40.27.301,HF_wild_card,2022.2.4,Win32,60.48874909,5ea20fd571038c119083a8df,64d2fd46c836a06233681665,64dc7d3b2cc2e184b3a08d98,,,,,,,sngl,resources/DY.BMP,resources/Empty.png,Door3,-0.319444444,-0.063888903,1,0,0,1.442,optionLeft,70,10500,5,18,0,18,0,1,,,,,,,,,,,,,,,,,,,,,,,,,,,,,,,,,,,,,,,
,,,,,,,,2023-08-16_08h40.27.301,HF_wild_card,2022.2.4,Win32,60.48874909,5ea20fd571038c119083a8df,64d2fd46c836a06233681665,64dc7d3b2cc2e184b3a08d98,,,,,,,ctch,resources/DG.BMP,resources/DBN.BMP,Door4,-0.270370342,-0.011111118,1,0,0,1.7319,optionLeft,60,10560,5,19,0,19,0,1,,,,,,,,,,,,,,,,,,,,,,,,,,,,,,,,,,,,,,,
,,,,,,,,2023-08-16_08h40.27.301,HF_wild_card,2022.2.4,Win32,60.48874909,5ea20fd571038c119083a8df,64d2fd46c836a06233681665,64dc7d3b2cc2e184b3a08d98,,,,,,,decisionTrl,resources/DG.BMP,resources/DY.BMP,Door3,0.294444473,-0.01666666,1,0,0,1.9312,optionRight,70,10630,5,20,0,20,0,1,,,,,,,,,,,,,,,,,,,,,,,,,,,,,,,,,,,,,,,
,,,,,,,,2023-08-16_08h40.27.301,HF_wild_card,2022.2.4,Win32,60.48874909,5ea20fd571038c119083a8df,64d2fd46c836a06233681665,64dc7d3b2cc2e184b3a08d98,,,,,,,decisionTrl,resources/DP.BMP,resources/DY.BMP,Door3,0.237963005,-0.037037037,1,0,0,1.7355,optionRight,70,10700,5,21,0,21,0,1,,,,,,,,,,,,,,,,,,,,,,,,,,,,,,,,,,,,,,,
,,,,,,,,2023-08-16_08h40.27.301,HF_wild_card,2022.2.4,Win32,60.48874909,5ea20fd571038c119083a8df,64d2fd46c836a06233681665,64dc7d3b2cc2e184b3a08d98,,,,,,,decisionTrl,resources/DBN.BMP,resources/DR.BMP,Door1,-0.217592593,-0.051851873,1,0,0,1.9867,optionLeft,30,10730,5,22,0,22,0,1,,,,,,,,,,,,,,,,,,,,,,,,,,,,,,,,,,,,,,,
,,,,,,,,2023-08-16_08h40.27.301,HF_wild_card,2022.2.4,Win32,60.48874909,5ea20fd571038c119083a8df,64d2fd46c836a06233681665,64dc7d3b2cc2e184b3a08d98,,,,,,,decisionTrl,resources/DBN.BMP,resources/DR.BMP,Door1,-0.19259255,-0.056481503,1,0,0,1.0063,optionLeft,30,10760,5,23,0,23,0,1,,,,,,,,,,,,,,,,,,,,,,,,,,,,,,,,,,,,,,,
,,,,,,,,2023-08-16_08h40.27.301,HF_wild_card,2022.2.4,Win32,60.48874909,5ea20fd571038c119083a8df,64d2fd46c836a06233681665,64dc7d3b2cc2e184b3a08d98,,,,,,,ctch,resources/DBN.BMP,resources/DG.BMP,Door4,0.409259231,-0.055555556,1,0,0,1.2664,optionRight,60,10820,5,24,0,24,0,1,,,,,,,,,,,,,,,,,,,,,,,,,,,,,,,,,,,,,,,
,,,,,,,,2023-08-16_08h40.27.301,HF_wild_card,2022.2.4,Win32,60.48874909,5ea20fd571038c119083a8df,64d2fd46c836a06233681665,64dc7d3b2cc2e184b3a08d98,,,,,,,decisionTrl,resources/DG.BMP,resources/DY.BMP,Door3,0.279629672,-0.08888891,1,0,0,1.3111,optionRight,70,10890,5,25,0,25,0,1,,,,,,,,,,,,,,,,,,,,,,,,,,,,,,,,,,,,,,,
,,,,,,,,2023-08-16_08h40.27.301,HF_wild_card,2022.2.4,Win32,60.48874909,5ea20fd571038c119083a8df,64d2fd46c836a06233681665,64dc7d3b2cc2e184b3a08d98,,,,,,,decisionTrl,resources/DR.BMP,resources/DBN.BMP,Door1,0.30277775,-0.062037044,1,0,0,1.6496,optionRight,30,10920,5,26,0,26,0,1,,,,,,,,,,,,,,,,,,,,,,,,,,,,,,,,,,,,,,,
,,,,,,,,2023-08-16_08h40.27.301,HF_wild_card,2022.2.4,Win32,60.48874909,5ea20fd571038c119083a8df,64d2fd46c836a06233681665,64dc7d3b2cc2e184b3a08d98,,,,,,,decisionTrl,resources/DG.BMP,resources/DY.BMP,Door4,-0.203703704,-0.077777792,1,0,0,1.5717,optionLeft,80,11000,5,27,0,27,0,1,,,,,,,,,,,,,,,,,,,,,,,,,,,,,,,,,,,,,,,
,,,,,,,,2023-08-16_08h40.27.301,HF_wild_card,2022.2.4,Win32,60.48874909,5ea20fd571038c119083a8df,64d2fd46c836a06233681665,64dc7d3b2cc2e184b3a08d98,,,,,,,ctch,resources/DR.BMP,resources/DY.BMP,Door3,0.315740797,-0.116666653,1,0,0,1.1676,optionRight,70,11070,5,28,0,28,0,1,,,,,,,,,,,,,,,,,,,,,,,,,,,,,,,,,,,,,,,
,,,,,,,,2023-08-16_08h40.27.301,HF_wild_card,2022.2.4,Win32,60.48874909,5ea20fd571038c119083a8df,64d2fd46c836a06233681665,64dc7d3b2cc2e184b3a08d98,,,,,,,sngl,resources/DBN.BMP,resources/Empty.png,Door1,-0.313888868,-0.039814808,1,0,0,1.8033,optionLeft,30,11100,5,29,0,29,0,1,,,,,,,,,,,,,,,,,,,,,,,,,,,,,,,,,,,,,,,
,,,,,,,,2023-08-16_08h40.27.301,HF_wild_card,2022.2.4,Win32,60.48874909,5ea20fd571038c119083a8df,64d2fd46c836a06233681665,64dc7d3b2cc2e184b3a08d98,,,,,,,decisionTrl,resources/DY.BMP,resources/DG.BMP,Door4,0.25462963,-0.033333355,1,0,0,1.6796,optionRight,60,11160,5,30,0,30,0,1,,,,,,,,,,,,,,,,,,,,,,,,,,,,,,,,,,,,,,,
,,,,,,,,2023-08-16_08h40.27.301,HF_wild_card,2022.2.4,Win32,60.48874909,5ea20fd571038c119083a8df,64d2fd46c836a06233681665,64dc7d3b2cc2e184b3a08d98,,,,,,,decisionTrl,resources/DY.BMP,resources/DG.BMP,Door3,-0.227777764,-0.046296296,1,0,0,1.0963,optionLeft,70,11230,5,31,0,31,0,1,,,,,,,,,,,,,,,,,,,,,,,,,,,,,,,,,,,,,,,
,,,,,,,,2023-08-16_08h40.27.301,HF_wild_card,2022.2.4,Win32,60.48874909,5ea20fd571038c119083a8df,64d2fd46c836a06233681665,64dc7d3b2cc2e184b3a08d98,,,,,,,decisionTrl,resources/DR.BMP,resources/DP.BMP,WildCard_Ex,0.265740783,-0.051851873,1,0,0,2.4042,optionRight,55,11285,5,32,0,32,0,1,,,,,,,,,,,,,,,,,,,,,,,,,,,,,,,,,,,,,,,
,,,,,,,,2023-08-16_08h40.27.301,HF_wild_card,2022.2.4,Win32,60.48874909,5ea20fd571038c119083a8df,64d2fd46c836a06233681665,64dc7d3b2cc2e184b3a08d98,,,,,,,decisionTrl,resources/DP.BMP,resources/DR.BMP,WildCard_Ex,-0.357407393,-0.12962963,1,0,0,1.0438,optionLeft,45,11330,5,33,0,33,0,1,,,,,,,,,,,,,,,,,,,,,,,,,,,,,,,,,,,,,,,
,,,,,,,,2023-08-16_08h40.27.301,HF_wild_card,2022.2.4,Win32,60.48874909,5ea20fd571038c119083a8df,64d2fd46c836a06233681665,64dc7d3b2cc2e184b3a08d98,,,,,,,decisionTrl,resources/DBN.BMP,resources/DR.BMP,Door1,-0.187037009,-0.058333326,1,0,0,1.2772,optionLeft,30,11360,5,34,0,34,0,1,,,,,,,,,,,,,,,,,,,,,,,,,,,,,,,,,,,,,,,
,,,,,,,,2023-08-16_08h40.27.301,HF_wild_card,2022.2.4,Win32,60.48874909,5ea20fd571038c119083a8df,64d2fd46c836a06233681665,64dc7d3b2cc2e184b3a08d98,,,,,,,decisionTrl,resources/DY.BMP,resources/DP.BMP,Door3,-0.226851852,-0.069444444,1,0,0,2.1163,optionLeft,70,11430,5,35,0,35,0,1,,,,,,,,,,,,,,,,,,,,,,,,,,,,,,,,,,,,,,,
,,,,,,,,2023-08-16_08h40.27.301,HF_wild_card,2022.2.4,Win32,60.48874909,5ea20fd571038c119083a8df,64d2fd46c836a06233681665,64dc7d3b2cc2e184b3a08d98,,,,,,,decisionTrl,resources/DR.BMP,resources/DBN.BMP,Door1,0.328703704,-0.067592586,1,0,0,1.886,optionRight,30,11460,5,36,0,36,0,1,,,,,,,,,,,,,,,,,,,,,,,,,,,,,,,,,,,,,,,
,,,,,,,,2023-08-16_08h40.27.301,HF_wild_card,2022.2.4,Win32,60.48874909,5ea20fd571038c119083a8df,64d2fd46c836a06233681665,64dc7d3b2cc2e184b3a08d98,,,,,,,ctch,resources/DY.BMP,resources/DR.BMP,Door3,-0.242592564,-0.070370392,1,0,0,1.6621,optionLeft,70,11530,5,37,0,37,0,1,,,,,,,,,,,,,,,,,,,,,,,,,,,,,,,,,,,,,,,
,,,,,,,,2023-08-16_08h40.27.301,HF_wild_card,2022.2.4,Win32,60.48874909,5ea20fd571038c119083a8df,64d2fd46c836a06233681665,64dc7d3b2cc2e184b3a08d98,,,,,,,decisionTrl,resources/DP.BMP,resources/DBN.BMP,WildCard_Ex,-0.252777735,-0.072222215,1,0,0,2.4548,optionLeft,55,11585,5,38,0,38,0,1,,,,,,,,,,,,,,,,,,,,,,,,,,,,,,,,,,,,,,,
,,,,,,,,2023-08-16_08h40.27.301,HF_wild_card,2022.2.4,Win32,60.48874909,5ea20fd571038c119083a8df,64d2fd46c836a06233681665,64dc7d3b2cc2e184b3a08d98,,,,,,,sngl,resources/Empty.png,resources/DP.BMP,WildCard_Ex,0.316666638,-0.048148155,1,0,0,1.7668,optionRight,55,11640,5,39,0,39,0,1,,,,,,,,,,,,,,,,,,,,,,,,,,,,,,,,,,,,,,,
,,,,,,,,2023-08-16_08h40.27.301,HF_wild_card,2022.2.4,Win32,60.48874909,5ea20fd571038c119083a8df,64d2fd46c836a06233681665,64dc7d3b2cc2e184b3a08d98,,,,,,,sngl,resources/DR.BMP,resources/Empty.png,Door2,-0.327777757,-0.059259273,1,0,0,1.2608,optionLeft,40,11680,5,40,0,40,0,1,,,,,,,,,,,,,,,,,,,,,,,,,,,,,,,,,,,,,,,
,,,,,,,,2023-08-16_08h40.27.301,HF_wild_card,2022.2.4,Win32,60.48874909,5ea20fd571038c119083a8df,64d2fd46c836a06233681665,64dc7d3b2cc2e184b3a08d98,,,,,,,sngl,resources/Empty.png,resources/DY.BMP,Door3,0.319444444,-0.050925926,1,0,0,1.0211,optionRight,70,11750,5,41,0,41,0,1,,,,,,,,,,,,,,,,,,,,,,,,,,,,,,,,,,,,,,,
,,,,,,,,2023-08-16_08h40.27.301,HF_wild_card,2022.2.4,Win32,60.48874909,5ea20fd571038c119083a8df,64d2fd46c836a06233681665,64dc7d3b2cc2e184b3a08d98,,,,,,,sngl,resources/Empty.png,resources/DBN.BMP,Door1,0.311111168,-0.000925947,1,0,0,3.3601,optionRight,30,11780,5,42,0,42,0,1,,,,,,,,,,,,,,,,,,,,,,,,,,,,,,,,,,,,,,,
,,,,,,,,2023-08-16_08h40.27.301,HF_wild_card,2022.2.4,Win32,60.48874909,5ea20fd571038c119083a8df,64d2fd46c836a06233681665,64dc7d3b2cc2e184b3a08d98,,,,,,,sngl,resources/DG.BMP,resources/Empty.png,Door4,-0.430555556,-0.08425928,1,0,0,1.582,optionLeft,80,11860,5,43,0,43,0,1,,,,,,,,,,,,,,,,,,,,,,,,,,,,,,,,,,,,,,,
,,,,,,,,2023-08-16_08h40.27.301,HF_wild_card,2022.2.4,Win32,60.48874909,5ea20fd571038c119083a8df,64d2fd46c836a06233681665,64dc7d3b2cc2e184b3a08d98,,,,,,,,,,,,,,,,,,,,,,,,,,4,0,4,0,1,,,,,,,,,,,,,,,,,,,,,,,,,,,,,,,,,,
,,,,,,,,2023-08-16_08h40.27.301,HF_wild_card,2022.2.4,Win32,60.48874909,5ea20fd571038c119083a8df,64d2fd46c836a06233681665,64dc7d3b2cc2e184b3a08d98,,,,,,,sngl,resources/Empty.png,resources/DR.BMP,Door2,0.275000042,-0.022222236,1,0,0,1.6437,optionRight,40,11900,6,0,0,0,0,1,,,,,,,,,,,,,,,,,,,,,,,,,,,,,,,,,,,,,,,
,,,,,,,,2023-08-16_08h40.27.301,HF_wild_card,2022.2.4,Win32,60.48874909,5ea20fd571038c119083a8df,64d2fd46c836a06233681665,64dc7d3b2cc2e184b3a08d98,,,,,,,sngl,resources/Empty.png,resources/DG.BMP,Door4,0.299074102,-0.003703718,1,0,0,1.1567,optionRight,80,11980,6,1,0,1,0,1,,,,,,,,,,,,,,,,,,,,,,,,,,,,,,,,,,,,,,,
,,,,,,,,2023-08-16_08h40.27.301,HF_wild_card,2022.2.4,Win32,60.48874909,5ea20fd571038c119083a8df,64d2fd46c836a06233681665,64dc7d3b2cc2e184b3a08d98,,,,,,,ctch,resources/DY.BMP,resources/DR.BMP,Door3,-0.300925926,-0.003703718,1,0,0,2.1498,optionLeft,70,12050,6,2,0,2,0,1,,,,,,,,,,,,,,,,,,,,,,,,,,,,,,,,,,,,,,,
,,,,,,,,2023-08-16_08h40.27.301,HF_wild_card,2022.2.4,Win32,60.48874909,5ea20fd571038c119083a8df,64d2fd46c836a06233681665,64dc7d3b2cc2e184b3a08d98,,,,,,,decisionTrl,resources/DBN.BMP,resources/DR.BMP,Door2,0.336111139,-0.002777771,1,0,0,1.2989,optionRight,40,12090,6,3,0,3,0,1,,,,,,,,,,,,,,,,,,,,,,,,,,,,,,,,,,,,,,,
,,,,,,,,2023-08-16_08h40.27.301,HF_wild_card,2022.2.4,Win32,60.48874909,5ea20fd571038c119083a8df,64d2fd46c836a06233681665,64dc7d3b2cc2e184b3a08d98,,,,,,,decisionTrl,resources/DG.BMP,resources/DY.BMP,Door3,0.275925954,-0.010185206,1,0,0,1.9978,optionRight,70,12160,6,4,0,4,0,1,,,,,,,,,,,,,,,,,,,,,,,,,,,,,,,,,,,,,,,
,,,,,,,,2023-08-16_08h40.27.301,HF_wild_card,2022.2.4,Win32,60.48874909,5ea20fd571038c119083a8df,64d2fd46c836a06233681665,64dc7d3b2cc2e184b3a08d98,,,,,,,decisionTrl,resources/DR.BMP,resources/DBN.BMP,Door2,-0.366666653,-0.051851873,1,0,0,2.5105,optionLeft,40,12200,6,5,0,5,0,1,,,,,,,,,,,,,,,,,,,,,,,,,,,,,,,,,,,,,,,
,,,,,,,,2023-08-16_08h40.27.301,HF_wild_card,2022.2.4,Win32,60.48874909,5ea20fd571038c119083a8df,64d2fd46c836a06233681665,64dc7d3b2cc2e184b3a08d98,,,,,,,decisionTrl,resources/DR.BMP,resources/DBN.BMP,Door2,-0.193518533,-0.054629644,1,0,0,1.0548,optionLeft,20,12220,6,6,0,6,0,1,,,,,,,,,,,,,,,,,,,,,,,,,,,,,,,,,,,,,,,
,,,,,,,,2023-08-16_08h40.27.301,HF_wild_card,2022.2.4,Win32,60.48874909,5ea20fd571038c119083a8df,64d2fd46c836a06233681665,64dc7d3b2cc2e184b3a08d98,,,,,,,sngl,resources/Empty.png,resources/DY.BMP,Door3,0.30277775,-0.023148148,1,0,0,1.0114,optionRight,70,12290,6,7,0,7,0,1,,,,,,,,,,,,,,,,,,,,,,,,,,,,,,,,,,,,,,,
,,,,,,,,2023-08-16_08h40.27.301,HF_wild_card,2022.2.4,Win32,60.48874909,5ea20fd571038c119083a8df,64d2fd46c836a06233681665,64dc7d3b2cc2e184b3a08d98,,,,,,,decisionTrl,resources/DP.BMP,resources/DR.BMP,WildCard_Ex,-0.260185171,-0.047222243,1,0,0,1.5156,optionLeft,45,12335,6,8,0,8,0,1,,,,,,,,,,,,,,,,,,,,,,,,,,,,,,,,,,,,,,,
,,,,,,,,2023-08-16_08h40.27.301,HF_wild_card,2022.2.4,Win32,60.48874909,5ea20fd571038c119083a8df,64d2fd46c836a06233681665,64dc7d3b2cc2e184b3a08d98,,,,,,,decisionTrl,resources/DP.BMP,resources/DBN.BMP,WildCard_Ex,-0.234259217,-0.077777792,1,0,0,1.2235,optionLeft,55,12390,6,9,0,9,0,1,,,,,,,,,,,,,,,,,,,,,,,,,,,,,,,,,,,,,,,
,,,,,,,,2023-08-16_08h40.27.301,HF_wild_card,2022.2.4,Win32,60.48874909,5ea20fd571038c119083a8df,64d2fd46c836a06233681665,64dc7d3b2cc2e184b3a08d98,,,,,,,decisionTrl,resources/DG.BMP,resources/DP.BMP,WildCard_Ex,0.256481524,0.029629637,1,0,0,1.8209,optionRight,55,12445,6,10,0,10,0,1,,,,,,,,,,,,,,,,,,,,,,,,,,,,,,,,,,,,,,,
,,,,,,,,2023-08-16_08h40.27.301,HF_wild_card,2022.2.4,Win32,60.48874909,5ea20fd571038c119083a8df,64d2fd46c836a06233681665,64dc7d3b2cc2e184b3a08d98,,,,,,,decisionTrl,resources/DR.BMP,resources/DP.BMP,WildCard_Ex,0.233333376,-0.01203703,1,0,0,1.2379,optionRight,55,12500,6,11,0,11,0,1,,,,,,,,,,,,,,,,,,,,,,,,,,,,,,,,,,,,,,,
,,,,,,,,2023-08-16_08h40.27.301,HF_wild_card,2022.2.4,Win32,60.48874909,5ea20fd571038c119083a8df,64d2fd46c836a06233681665,64dc7d3b2cc2e184b3a08d98,,,,,,,ctch,resources/DBN.BMP,resources/DG.BMP,Door4,0.276851866,-0.045370384,1,0,0,1.7453,optionRight,80,12580,6,12,0,12,0,1,,,,,,,,,,,,,,,,,,,,,,,,,,,,,,,,,,,,,,,
,,,,,,,,2023-08-16_08h40.27.301,HF_wild_card,2022.2.4,Win32,60.48874909,5ea20fd571038c119083a8df,64d2fd46c836a06233681665,64dc7d3b2cc2e184b3a08d98,,,,,,,decisionTrl,resources/DY.BMP,resources/DP.BMP,Door3,-0.214814787,-0.063888903,1,0,0,1.8605,optionLeft,70,12650,6,13,0,13,0,1,,,,,,,,,,,,,,,,,,,,,,,,,,,,,,,,,,,,,,,
,,,,,,,,2023-08-16_08h40.27.301,HF_wild_card,2022.2.4,Win32,60.48874909,5ea20fd571038c119083a8df,64d2fd46c836a06233681665,64dc7d3b2cc2e184b3a08d98,,,,,,,sngl,resources/Empty.png,resources/DBN.BMP,Door1,0.25462963,-0.011111118,1,0,0,1.101,optionRight,30,12680,6,14,0,14,0,1,,,,,,,,,,,,,,,,,,,,,,,,,,,,,,,,,,,,,,,
,,,,,,,,2023-08-16_08h40.27.301,HF_wild_card,2022.2.4,Win32,60.48874909,5ea20fd571038c119083a8df,64d2fd46c836a06233681665,64dc7d3b2cc2e184b3a08d98,,,,,,,decisionTrl,resources/DY.BMP,resources/DG.BMP,Door3,-0.249074088,-0.075000021,1,0,0,1.2828,optionLeft,70,12750,6,15,0,15,0,1,,,,,,,,,,,,,,,,,,,,,,,,,,,,,,,,,,,,,,,
,,,,,,,,2023-08-16_08h40.27.301,HF_wild_card,2022.2.4,Win32,60.48874909,5ea20fd571038c119083a8df,64d2fd46c836a06233681665,64dc7d3b2cc2e184b3a08d98,,,,,,,decisionTrl,resources/DG.BMP,resources/DY.BMP,Door3,0.296296296,0.000925912,1,0,0,1.0608,optionRight,70,12820,6,16,0,16,0,1,,,,,,,,,,,,,,,,,,,,,,,,,,,,,,,,,,,,,,,
,,,,,,,,2023-08-16_08h40.27.301,HF_wild_card,2022.2.4,Win32,60.48874909,5ea20fd571038c119083a8df,64d2fd46c836a06233681665,64dc7d3b2cc2e184b3a08d98,,,,,,,sngl,resources/DR.BMP,resources/Empty.png,Door2,-0.286111125,-0.039814808,1,0,0,1.0432,optionLeft,20,12840,6,17,0,17,0,1,,,,,,,,,,,,,,,,,,,,,,,,,,,,,,,,,,,,,,,
,,,,,,,,2023-08-16_08h40.27.301,HF_wild_card,2022.2.4,Win32,60.48874909,5ea20fd571038c119083a8df,64d2fd46c836a06233681665,64dc7d3b2cc2e184b3a08d98,,,,,,,decisionTrl,resources/DP.BMP,resources/DG.BMP,WildCard_Ex,-0.27407406,-0.085185192,1,0,0,1.9873,optionLeft,55,12895,6,18,0,18,0,1,,,,,,,,,,,,,,,,,,,,,,,,,,,,,,,,,,,,,,,
,,,,,,,,2023-08-16_08h40.27.301,HF_wild_card,2022.2.4,Win32,60.48874909,5ea20fd571038c119083a8df,64d2fd46c836a06233681665,64dc7d3b2cc2e184b3a08d98,,,,,,,decisionTrl,resources/DP.BMP,resources/DY.BMP,Door3,0.27870369,-0.020370377,1,0,0,1.1991,optionRight,70,12965,6,19,0,19,0,1,,,,,,,,,,,,,,,,,,,,,,,,,,,,,,,,,,,,,,,
,,,,,,,,2023-08-16_08h40.27.301,HF_wild_card,2022.2.4,Win32,60.48874909,5ea20fd571038c119083a8df,64d2fd46c836a06233681665,64dc7d3b2cc2e184b3a08d98,,,,,,,decisionTrl,resources/DR.BMP,resources/DBN.BMP,Door2,-0.279629601,-0.044444437,1,0,0,1.2922,optionLeft,20,12985,6,20,0,20,0,1,,,,,,,,,,,,,,,,,,,,,,,,,,,,,,,,,,,,,,,
,,,,,,,,2023-08-16_08h40.27.301,HF_wild_card,2022.2.4,Win32,60.48874909,5ea20fd571038c119083a8df,64d2fd46c836a06233681665,64dc7d3b2cc2e184b3a08d98,,,,,,,ctch,resources/DG.BMP,resources/DBN.BMP,Door4,-0.161111125,-0.040740755,1,0,0,1.2996,optionLeft,80,13065,6,21,0,21,0,1,,,,,,,,,,,,,,,,,,,,,,,,,,,,,,,,,,,,,,,
,,,,,,,,2023-08-16_08h40.27.301,HF_wild_card,2022.2.4,Win32,60.48874909,5ea20fd571038c119083a8df,64d2fd46c836a06233681665,64dc7d3b2cc2e184b3a08d98,,,,,,,sngl,resources/DG.BMP,resources/Empty.png,Door4,-0.208333333,-0.001851859,1,0,0,0.9939,optionLeft,60,13125,6,22,0,22,0,1,,,,,,,,,,,,,,,,,,,,,,,,,,,,,,,,,,,,,,,
,,,,,,,,2023-08-16_08h40.27.301,HF_wild_card,2022.2.4,Win32,60.48874909,5ea20fd571038c119083a8df,64d2fd46c836a06233681665,64dc7d3b2cc2e184b3a08d98,,,,,,,ctch,resources/DR.BMP,resources/DY.BMP,Door3,0.22592594,-0.058333326,1,0,0,1.2441,optionRight,70,13195,6,23,0,23,0,1,,,,,,,,,,,,,,,,,,,,,,,,,,,,,,,,,,,,,,,
,,,,,,,,2023-08-16_08h40.27.301,HF_wild_card,2022.2.4,Win32,60.48874909,5ea20fd571038c119083a8df,64d2fd46c836a06233681665,64dc7d3b2cc2e184b3a08d98,,,,,,,decisionTrl,resources/DY.BMP,resources/DG.BMP,Door3,-0.305555556,-0.052777785,1,0,0,1.044,optionLeft,70,13265,6,24,0,24,0,1,,,,,,,,,,,,,,,,,,,,,,,,,,,,,,,,,,,,,,,
,,,,,,,,2023-08-16_08h40.27.301,HF_wild_card,2022.2.4,Win32,60.48874909,5ea20fd571038c119083a8df,64d2fd46c836a06233681665,64dc7d3b2cc2e184b3a08d98,,,,,,,sngl,resources/Empty.png,resources/DP.BMP,WildCard_Ex,0.319444444,-0.014814836,1,0,0,0.9599,optionRight,55,13320,6,25,0,25,0,1,,,,,,,,,,,,,,,,,,,,,,,,,,,,,,,,,,,,,,,
,,,,,,,,2023-08-16_08h40.27.301,HF_wild_card,2022.2.4,Win32,60.48874909,5ea20fd571038c119083a8df,64d2fd46c836a06233681665,64dc7d3b2cc2e184b3a08d98,,,,,,,decisionTrl,resources/DY.BMP,resources/DG.BMP,Door3,-0.257407365,-0.028703725,1,0,0,1.4603,optionLeft,70,13390,6,26,0,26,0,1,,,,,,,,,,,,,,,,,,,,,,,,,,,,,,,,,,,,,,,
,,,,,,,,2023-08-16_08h40.27.301,HF_wild_card,2022.2.4,Win32,60.48874909,5ea20fd571038c119083a8df,64d2fd46c836a06233681665,64dc7d3b2cc2e184b3a08d98,,,,,,,sngl,resources/DBN.BMP,resources/Empty.png,Door1,-0.283333319,-0.010185206,1,0,0,1.2324,optionLeft,30,13420,6,27,0,27,0,1,,,,,,,,,,,,,,,,,,,,,,,,,,,,,,,,,,,,,,,
,,,,,,,,2023-08-16_08h40.27.301,HF_wild_card,2022.2.4,Win32,60.48874909,5ea20fd571038c119083a8df,64d2fd46c836a06233681665,64dc7d3b2cc2e184b3a08d98,,,,,,,ctch,resources/DBN.BMP,resources/DG.BMP,Door4,0.312962991,-0.0074074,1,0,0,1.1005,optionRight,60,13480,6,28,0,28,0,1,,,,,,,,,,,,,,,,,,,,,,,,,,,,,,,,,,,,,,,
,,,,,,,,2023-08-16_08h40.27.301,HF_wild_card,2022.2.4,Win32,60.48874909,5ea20fd571038c119083a8df,64d2fd46c836a06233681665,64dc7d3b2cc2e184b3a08d98,,,,,,,decisionTrl,resources/DR.BMP,resources/DBN.BMP,Door1,0.204629616,-0.023148148,1,0,0,2.7236,optionRight,30,13510,6,29,0,29,0,1,,,,,,,,,,,,,,,,,,,,,,,,,,,,,,,,,,,,,,,
,,,,,,,,2023-08-16_08h40.27.301,HF_wild_card,2022.2.4,Win32,60.48874909,5ea20fd571038c119083a8df,64d2fd46c836a06233681665,64dc7d3b2cc2e184b3a08d98,,,,,,,decisionTrl,resources/DBN.BMP,resources/DR.BMP,Door1,-0.24537037,-0.035185178,1,0,0,1.3564,optionLeft,30,13540,6,30,0,30,0,1,,,,,,,,,,,,,,,,,,,,,,,,,,,,,,,,,,,,,,,
,,,,,,,,2023-08-16_08h40.27.301,HF_wild_card,2022.2.4,Win32,60.48874909,5ea20fd571038c119083a8df,64d2fd46c836a06233681665,64dc7d3b2cc2e184b3a08d98,,,,,,,sngl,resources/DP.BMP,resources/Empty.png,WildCard_Ex,-0.256481453,-0.045370384,1,0,0,1.032,optionLeft,55,13595,6,31,0,31,0,1,,,,,,,,,,,,,,,,,,,,,,,,,,,,,,,,,,,,,,,
,,,,,,,,2023-08-16_08h40.27.301,HF_wild_card,2022.2.4,Win32,60.48874909,5ea20fd571038c119083a8df,64d2fd46c836a06233681665,64dc7d3b2cc2e184b3a08d98,,,,,,,ctch,resources/DG.BMP,resources/DBN.BMP,Door4,-0.297222208,-0.039814808,1,0,0,0.9878,optionLeft,60,13655,6,32,0,32,0,1,,,,,,,,,,,,,,,,,,,,,,,,,,,,,,,,,,,,,,,
,,,,,,,,2023-08-16_08h40.27.301,HF_wild_card,2022.2.4,Win32,60.48874909,5ea20fd571038c119083a8df,64d2fd46c836a06233681665,64dc7d3b2cc2e184b3a08d98,,,,,,,ctch,resources/DR.BMP,resources/DY.BMP,Door3,0.398148148,-0.069444444,1,0,0,1.1072,optionRight,70,13725,6,33,0,33,0,1,,,,,,,,,,,,,,,,,,,,,,,,,,,,,,,,,,,,,,,
,,,,,,,,2023-08-16_08h40.27.301,HF_wild_card,2022.2.4,Win32,60.48874909,5ea20fd571038c119083a8df,64d2fd46c836a06233681665,64dc7d3b2cc2e184b3a08d98,,,,,,,sngl,resources/DY.BMP,resources/Empty.png,Door3,-0.325925933,-0.029629637,1,0,0,0.9692,optionLeft,70,13795,6,34,0,34,0,1,,,,,,,,,,,,,,,,,,,,,,,,,,,,,,,,,,,,,,,
,,,,,,,,2023-08-16_08h40.27.301,HF_wild_card,2022.2.4,Win32,60.48874909,5ea20fd571038c119083a8df,64d2fd46c836a06233681665,64dc7d3b2cc2e184b3a08d98,,,,,,,decisionTrl,resources/DG.BMP,resources/DY.BMP,Door3,0.270370413,-0.025925919,1,0,0,1.1829,optionRight,70,13865,6,35,0,35,0,1,,,,,,,,,,,,,,,,,,,,,,,,,,,,,,,,,,,,,,,
,,,,,,,,2023-08-16_08h40.27.301,HF_wild_card,2022.2.4,Win32,60.48874909,5ea20fd571038c119083a8df,64d2fd46c836a06233681665,64dc7d3b2cc2e184b3a08d98,,,,,,,decisionTrl,resources/DBN.BMP,resources/DR.BMP,Door1,-0.281481496,-0.028703725,1,0,0,2.3703,optionLeft,30,13895,6,36,0,36,0,1,,,,,,,,,,,,,,,,,,,,,,,,,,,,,,,,,,,,,,,
,,,,,,,,2023-08-16_08h40.27.301,HF_wild_card,2022.2.4,Win32,60.48874909,5ea20fd571038c119083a8df,64d2fd46c836a06233681665,64dc7d3b2cc2e184b3a08d98,,,,,,,ctch,resources/DY.BMP,resources/DR.BMP,Door3,-0.169444402,-0.035185178,1,0,0,1.2276,optionLeft,70,13965,6,37,0,37,0,1,,,,,,,,,,,,,,,,,,,,,,,,,,,,,,,,,,,,,,,
,,,,,,,,2023-08-16_08h40.27.301,HF_wild_card,2022.2.4,Win32,60.48874909,5ea20fd571038c119083a8df,64d2fd46c836a06233681665,64dc7d3b2cc2e184b3a08d98,,,,,,,sngl,resources/Empty.png,resources/DP.BMP,WildCard_Ex,0.291666667,-0.038888896,1,0,0,1.1616,optionRight,45,14010,6,38,0,38,0,1,,,,,,,,,,,,,,,,,,,,,,,,,,,,,,,,,,,,,,,
,,,,,,,,2023-08-16_08h40.27.301,HF_wild_card,2022.2.4,Win32,60.48874909,5ea20fd571038c119083a8df,64d2fd46c836a06233681665,64dc7d3b2cc2e184b3a08d98,,,,,,,decisionTrl,resources/DBN.BMP,resources/DR.BMP,Door2,0.211111139,-0.081481474,1,0,0,1.4172,optionRight,20,14030,6,39,0,39,0,1,,,,,,,,,,,,,,,,,,,,,,,,,,,,,,,,,,,,,,,
,,,,,,,,2023-08-16_08h40.27.301,HF_wild_card,2022.2.4,Win32,60.48874909,5ea20fd571038c119083a8df,64d2fd46c836a06233681665,64dc7d3b2cc2e184b3a08d98,,,,,,,decisionTrl,resources/DBN.BMP,resources/DP.BMP,WildCard_Ex,0.213888875,-0.065740762,1,0,0,1.4393,optionRight,55,14085,6,40,0,40,0,1,,,,,,,,,,,,,,,,,,,,,,,,,,,,,,,,,,,,,,,
,,,,,,,,2023-08-16_08h40.27.301,HF_wild_card,2022.2.4,Win32,60.48874909,5ea20fd571038c119083a8df,64d2fd46c836a06233681665,64dc7d3b2cc2e184b3a08d98,,,,,,,sngl,resources/DP.BMP,resources/Empty.png,WildCard_Ex,-0.322222215,-0.085185192,1,0,0,1.034,optionLeft,45,14130,6,41,0,41,0,1,,,,,,,,,,,,,,,,,,,,,,,,,,,,,,,,,,,,,,,
,,,,,,,,2023-08-16_08h40.27.301,HF_wild_card,2022.2.4,Win32,60.48874909,5ea20fd571038c119083a8df,64d2fd46c836a06233681665,64dc7d3b2cc2e184b3a08d98,,,,,,,decisionTrl,resources/DG.BMP,resources/DY.BMP,Door3,0.192592621,-0.023148148,1,0,0,1.6976,optionRight,70,14200,6,42,0,42,0,1,,,,,,,,,,,,,,,,,,,,,,,,,,,,,,,,,,,,,,,
,,,,,,,,2023-08-16_08h40.27.301,HF_wild_card,2022.2.4,Win32,60.48874909,5ea20fd571038c119083a8df,64d2fd46c836a06233681665,64dc7d3b2cc2e184b3a08d98,,,,,,,decisionTrl,resources/DY.BMP,resources/DG.BMP,Door3,-0.261111083,-0.100000028,1,0,0,1.0904,optionLeft,70,14270,6,43,0,43,0,1,,,,,,,,,,,,,,,,,,,,,,,,,,,,,,,,,,,,,,,
,,,,,,,,2023-08-16_08h40.27.301,HF_wild_card,2022.2.4,Win32,60.48874909,5ea20fd571038c119083a8df,64d2fd46c836a06233681665,64dc7d3b2cc2e184b3a08d98,,,,,,,,,,,,,,,,,,,,,,,,,,5,0,5,0,1,,,,,,,,,,,,,,,,,,,,,,,,,,,,,,,,,,
,,,,,,,,2023-08-16_08h40.27.301,HF_wild_card,2022.2.4,Win32,60.48874909,5ea20fd571038c119083a8df,64d2fd46c836a06233681665,64dc7d3b2cc2e184b3a08d98,,,,,,,decisionTrl,resources/DBN.BMP,resources/DR.BMP,Door1,-0.239814829,0.057407414,1,0,0,2.8926,optionLeft,30,14300,7,0,0,0,0,1,,,,,,,,,,,,,,,,,,,,,,,,,,,,,,,,,,,,,,,
,,,,,,,,2023-08-16_08h40.27.301,HF_wild_card,2022.2.4,Win32,60.48874909,5ea20fd571038c119083a8df,64d2fd46c836a06233681665,64dc7d3b2cc2e184b3a08d98,,,,,,,decisionTrl,resources/DBN.BMP,resources/DR.BMP,Door1,-0.265740712,-0.057407414,1,0,0,1.4263,optionLeft,30,14330,7,1,0,1,0,1,,,,,,,,,,,,,,,,,,,,,,,,,,,,,,,,,,,,,,,
,,,,,,,,2023-08-16_08h40.27.301,HF_wild_card,2022.2.4,Win32,60.48874909,5ea20fd571038c119083a8df,64d2fd46c836a06233681665,64dc7d3b2cc2e184b3a08d98,,,,,,,decisionTrl,resources/DG.BMP,resources/DY.BMP,Door3,0.323148233,-0.035185178,1,0,0,1.2572,optionRight,70,14400,7,2,0,2,0,1,,,,,,,,,,,,,,,,,,,,,,,,,,,,,,,,,,,,,,,
,,,,,,,,2023-08-16_08h40.27.301,HF_wild_card,2022.2.4,Win32,60.48874909,5ea20fd571038c119083a8df,64d2fd46c836a06233681665,64dc7d3b2cc2e184b3a08d98,,,,,,,decisionTrl,resources/DY.BMP,resources/DG.BMP,Door3,-0.27407406,-0.087037051,1,0,0,1.0156,optionLeft,70,14470,7,3,0,3,0,1,,,,,,,,,,,,,,,,,,,,,,,,,,,,,,,,,,,,,,,
,,,,,,,,2023-08-16_08h40.27.301,HF_wild_card,2022.2.4,Win32,60.48874909,5ea20fd571038c119083a8df,64d2fd46c836a06233681665,64dc7d3b2cc2e184b3a08d98,,,,,,,decisionTrl,resources/DBN.BMP,resources/DR.BMP,Door1,-0.211111069,-0.059259273,1,0,0,1.1429,optionLeft,30,14500,7,4,0,4,0,1,,,,,,,,,,,,,,,,,,,,,,,,,,,,,,,,,,,,,,,
,,,,,,,,2023-08-16_08h40.27.301,HF_wild_card,2022.2.4,Win32,60.48874909,5ea20fd571038c119083a8df,64d2fd46c836a06233681665,64dc7d3b2cc2e184b3a08d98,,,,,,,ctch,resources/DBN.BMP,resources/DG.BMP,Door4,0.288888931,-0.056481503,1,0,0,1.8563,optionRight,60,14560,7,5,0,5,0,1,,,,,,,,,,,,,,,,,,,,,,,,,,,,,,,,,,,,,,,
,,,,,,,,2023-08-16_08h40.27.301,HF_wild_card,2022.2.4,Win32,60.48874909,5ea20fd571038c119083a8df,64d2fd46c836a06233681665,64dc7d3b2cc2e184b3a08d98,,,,,,,decisionTrl,resources/DR.BMP,resources/DBN.BMP,Door1,0.283333319,-0.005555577,1,0,0,1.3581,optionRight,30,14590,7,6,0,6,0,1,,,,,,,,,,,,,,,,,,,,,,,,,,,,,,,,,,,,,,,
,,,,,,,,2023-08-16_08h40.27.301,HF_wild_card,2022.2.4,Win32,60.48874909,5ea20fd571038c119083a8df,64d2fd46c836a06233681665,64dc7d3b2cc2e184b3a08d98,,,,,,,decisionTrl,resources/DG.BMP,resources/DY.BMP,Door3,0.264814801,-0.026851866,1,0,0,1.3224,optionRight,70,14660,7,7,0,7,0,1,,,,,,,,,,,,,,,,,,,,,,,,,,,,,,,,,,,,,,,
,,,,,,,,2023-08-16_08h40.27.301,HF_wild_card,2022.2.4,Win32,60.48874909,5ea20fd571038c119083a8df,64d2fd46c836a06233681665,64dc7d3b2cc2e184b3a08d98,,,,,,,decisionTrl,resources/DG.BMP,resources/DY.BMP,Door3,0.288888931,-0.031481496,1,0,0,0.9217,optionRight,70,14730,7,8,0,8,0,1,,,,,,,,,,,,,,,,,,,,,,,,,,,,,,,,,,,,,,,
,,,,,,,,2023-08-16_08h40.27.301,HF_wild_card,2022.2.4,Win32,60.48874909,5ea20fd571038c119083a8df,64d2fd46c836a06233681665,64dc7d3b2cc2e184b3a08d98,,,,,,,decisionTrl,resources/DY.BMP,resources/DG.BMP,Door3,-0.241666653,-0.056481503,1,0,0,1.3527,optionLeft,70,14800,7,9,0,9,0,1,,,,,,,,,,,,,,,,,,,,,,,,,,,,,,,,,,,,,,,
,,,,,,,,2023-08-16_08h40.27.301,HF_wild_card,2022.2.4,Win32,60.48874909,5ea20fd571038c119083a8df,64d2fd46c836a06233681665,64dc7d3b2cc2e184b3a08d98,,,,,,,ctch,resources/DR.BMP,resources/DY.BMP,Door3,0.338888945,-0.081481474,1,0,0,1.0812,optionRight,70,14870,7,10,0,10,0,1,,,,,,,,,,,,,,,,,,,,,,,,,,,,,,,,,,,,,,,
,,,,,,,,2023-08-16_08h40.27.301,HF_wild_card,2022.2.4,Win32,60.48874909,5ea20fd571038c119083a8df,64d2fd46c836a06233681665,64dc7d3b2cc2e184b3a08d98,,,,,,,decisionTrl,resources/DR.BMP,resources/DBN.BMP,Door1,0.243518547,-0.054629644,1,0,0,1.2478,optionRight,30,14900,7,11,0,11,0,1,,,,,,,,,,,,,,,,,,,,,,,,,,,,,,,,,,,,,,,
,,,,,,,,2023-08-16_08h40.27.301,HF_wild_card,2022.2.4,Win32,60.48874909,5ea20fd571038c119083a8df,64d2fd46c836a06233681665,64dc7d3b2cc2e184b3a08d98,,,,,,,decisionTrl,resources/DY.BMP,resources/DG.BMP,Door3,-0.29351849,-0.126851894,1,0,0,1.0543,optionLeft,70,14970,7,12,0,12,0,1,,,,,,,,,,,,,,,,,,,,,,,,,,,,,,,,,,,,,,,
,,,,,,,,2023-08-16_08h40.27.301,HF_wild_card,2022.2.4,Win32,60.48874909,5ea20fd571038c119083a8df,64d2fd46c836a06233681665,64dc7d3b2cc2e184b3a08d98,,,,,,,decisionTrl,resources/DR.BMP,resources/DBN.BMP,Door1,0.246296282,-0.046296296,1,0,0,1.1824,optionRight,30,15000,7,13,0,13,0,1,,,,,,,,,,,,,,,,,,,,,,,,,,,,,,,,,,,,,,,
,,,,,,,,2023-08-16_08h40.27.301,HF_wild_card,2022.2.4,Win32,60.48874909,5ea20fd571038c119083a8df,64d2fd46c836a06233681665,64dc7d3b2cc2e184b3a08d98,,,,,,,decisionTrl,resources/DG.BMP,resources/DY.BMP,Door3,0.290740755,-0.026851866,1,0,0,1.6684,optionRight,70,15070,7,14,0,14,0,1,,,,,,,,,,,,,,,,,,,,,,,,,,,,,,,,,,,,,,,
,,,,,,,,2023-08-16_08h40.27.301,HF_wild_card,2022.2.4,Win32,60.48874909,5ea20fd571038c119083a8df,64d2fd46c836a06233681665,64dc7d3b2cc2e184b3a08d98,,,,,,,ctch,resources/DG.BMP,resources/DBN.BMP,Door4,-0.287962949,-0.025000007,1,0,0,1.1624,optionLeft,80,15150,7,15,0,15,0,1,,,,,,,,,,,,,,,,,,,,,,,,,,,,,,,,,,,,,,,
,,,,,,,,2023-08-16_08h40.27.301,HF_wild_card,2022.2.4,Win32,60.48874909,5ea20fd571038c119083a8df,64d2fd46c836a06233681665,64dc7d3b2cc2e184b3a08d98,,,,,,,ctch,resources/DG.BMP,resources/DBN.BMP,Door4,-0.240740741,-0.070370392,1,0,0,0.9926,optionLeft,80,15230,7,16,0,16,0,1,,,,,,,,,,,,,,,,,,,,,,,,,,,,,,,,,,,,,,,
,,,,,,,,2023-08-16_08h40.27.301,HF_wild_card,2022.2.4,Win32,60.48874909,5ea20fd571038c119083a8df,64d2fd46c836a06233681665,64dc7d3b2cc2e184b3a08d98,,,,,,,decisionTrl,resources/DY.BMP,resources/DG.BMP,Door3,-0.272222236,-0.080555563,1,0,0,1.097,optionLeft,70,15300,7,17,0,17,0,1,,,,,,,,,,,,,,,,,,,,,,,,,,,,,,,,,,,,,,,
,,,,,,,,2023-08-16_08h40.27.301,HF_wild_card,2022.2.4,Win32,60.48874909,5ea20fd571038c119083a8df,64d2fd46c836a06233681665,64dc7d3b2cc2e184b3a08d98,,,,,,,decisionTrl,resources/DBN.BMP,resources/DR.BMP,Door1,-0.237962935,-0.037037037,1,0,0,1.262,optionLeft,30,15330,7,18,0,18,0,1,,,,,,,,,,,,,,,,,,,,,,,,,,,,,,,,,,,,,,,
,,,,,,,,2023-08-16_08h40.27.301,HF_wild_card,2022.2.4,Win32,60.48874909,5ea20fd571038c119083a8df,64d2fd46c836a06233681665,64dc7d3b2cc2e184b3a08d98,,,,,,,ctch,resources/DBN.BMP,resources/DG.BMP,Door4,0.270370413,-0.055555556,1,0,0,1.0861,optionRight,60,15390,7,19,0,19,0,1,,,,,,,,,,,,,,,,,,,,,,,,,,,,,,,,,,,,,,,
,,,,,,,,2023-08-16_08h40.27.301,HF_wild_card,2022.2.4,Win32,60.48874909,5ea20fd571038c119083a8df,64d2fd46c836a06233681665,64dc7d3b2cc2e184b3a08d98,,,,,,,decisionTrl,resources/DBN.BMP,resources/DR.BMP,Door1,-0.198148162,-0.081481474,1,0,0,1.0427,optionLeft,30,15420,7,20,0,20,0,1,,,,,,,,,,,,,,,,,,,,,,,,,,,,,,,,,,,,,,,
,,,,,,,,2023-08-16_08h40.27.301,HF_wild_card,2022.2.4,Win32,60.48874909,5ea20fd571038c119083a8df,64d2fd46c836a06233681665,64dc7d3b2cc2e184b3a08d98,,,,,,,decisionTrl,resources/DBN.BMP,resources/DR.BMP,Door1,-0.188888903,-0.059259273,1,0,0,1.3307,optionLeft,30,15450,7,21,0,21,0,1,,,,,,,,,,,,,,,,,,,,,,,,,,,,,,,,,,,,,,,
,,,,,,,,2023-08-16_08h40.27.301,HF_wild_card,2022.2.4,Win32,60.48874909,5ea20fd571038c119083a8df,64d2fd46c836a06233681665,64dc7d3b2cc2e184b3a08d98,,,,,,,decisionTrl,resources/DR.BMP,resources/DBN.BMP,Door1,0.222222222,-0.014814836,1,0,0,1.5428,optionRight,30,15480,7,22,0,22,0,1,,,,,,,,,,,,,,,,,,,,,,,,,,,,,,,,,,,,,,,
,,,,,,,,2023-08-16_08h40.27.301,HF_wild_card,2022.2.4,Win32,60.48874909,5ea20fd571038c119083a8df,64d2fd46c836a06233681665,64dc7d3b2cc2e184b3a08d98,,,,,,,ctch,resources/DG.BMP,resources/DBN.BMP,Door4,-0.239814829,-0.08425928,1,0,0,1.6152,optionLeft,60,15540,7,23,0,23,0,1,,,,,,,,,,,,,,,,,,,,,,,,,,,,,,,,,,,,,,,
,,,,,,,,2023-08-16_08h40.27.301,HF_wild_card,2022.2.4,Win32,60.48874909,5ea20fd571038c119083a8df,64d2fd46c836a06233681665,64dc7d3b2cc2e184b3a08d98,,,,,,,decisionTrl,resources/DY.BMP,resources/DG.BMP,Door3,-0.17314812,-0.09629631,1,0,0,1.0746,optionLeft,70,15610,7,24,0,24,0,1,,,,,,,,,,,,,,,,,,,,,,,,,,,,,,,,,,,,,,,
,,,,,,,,2023-08-16_08h40.27.301,HF_wild_card,2022.2.4,Win32,60.48874909,5ea20fd571038c119083a8df,64d2fd46c836a06233681665,64dc7d3b2cc2e184b3a08d98,,,,,,,ctch,resources/DR.BMP,resources/DY.BMP,Door3,0.296296296,-0.072222215,1,0,0,1.1326,optionRight,70,15680,7,25,0,25,0,1,,,,,,,,,,,,,,,,,,,,,,,,,,,,,,,,,,,,,,,
,,,,,,,,2023-08-16_08h40.27.301,HF_wild_card,2022.2.4,Win32,60.48874909,5ea20fd571038c119083a8df,64d2fd46c836a06233681665,64dc7d3b2cc2e184b3a08d98,,,,,,,decisionTrl,resources/DR.BMP,resources/DBN.BMP,Door1,0.192592621,-0.021296289,1,0,0,2.2021,optionRight,30,15710,7,26,0,26,0,1,,,,,,,,,,,,,,,,,,,,,,,,,,,,,,,,,,,,,,,
,,,,,,,,2023-08-16_08h40.27.301,HF_wild_card,2022.2.4,Win32,60.48874909,5ea20fd571038c119083a8df,64d2fd46c836a06233681665,64dc7d3b2cc2e184b3a08d98,,,,,,,decisionTrl,resources/DR.BMP,resources/DBN.BMP,Door1,0.234259288,-0.064814815,1,0,0,1.032,optionRight,30,15740,7,27,0,27,0,1,,,,,,,,,,,,,,,,,,,,,,,,,,,,,,,,,,,,,,,
,,,,,,,,2023-08-16_08h40.27.301,HF_wild_card,2022.2.4,Win32,60.48874909,5ea20fd571038c119083a8df,64d2fd46c836a06233681665,64dc7d3b2cc2e184b3a08d98,,,,,,,decisionTrl,resources/DG.BMP,resources/DY.BMP,Door3,0.261111153,-0.057407414,1,0,0,1.0187,optionRight,70,15810,7,28,0,28,0,1,,,,,,,,,,,,,,,,,,,,,,,,,,,,,,,,,,,,,,,
,,,,,,,,2023-08-16_08h40.27.301,HF_wild_card,2022.2.4,Win32,60.48874909,5ea20fd571038c119083a8df,64d2fd46c836a06233681665,64dc7d3b2cc2e184b3a08d98,,,,,,,ctch,resources/DY.BMP,resources/DR.BMP,Door3,-0.286111125,-0.167592578,1,0,0,0.9163,optionLeft,70,15880,7,29,0,29,0,1,,,,,,,,,,,,,,,,,,,,,,,,,,,,,,,,,,,,,,,
,,,,,,,,2023-08-16_08h40.27.301,HF_wild_card,2022.2.4,Win32,60.48874909,5ea20fd571038c119083a8df,64d2fd46c836a06233681665,64dc7d3b2cc2e184b3a08d98,,,,,,,ctch,resources/DR.BMP,resources/DY.BMP,Door3,0.226851852,-0.057407414,1,0,0,1.052,optionRight,70,15950,7,30,0,30,0,1,,,,,,,,,,,,,,,,,,,,,,,,,,,,,,,,,,,,,,,
,,,,,,,,2023-08-16_08h40.27.301,HF_wild_card,2022.2.4,Win32,60.48874909,5ea20fd571038c119083a8df,64d2fd46c836a06233681665,64dc7d3b2cc2e184b3a08d98,,,,,,,ctch,resources/DY.BMP,resources/DR.BMP,Door3,-0.337962963,-0.094444487,1,0,0,0.9254,optionLeft,70,16020,7,31,0,31,0,1,,,,,,,,,,,,,,,,,,,,,,,,,,,,,,,,,,,,,,,
,,,,,,,,2023-08-16_08h40.27.301,HF_wild_card,2022.2.4,Win32,60.48874909,5ea20fd571038c119083a8df,64d2fd46c836a06233681665,64dc7d3b2cc2e184b3a08d98,,,,,,,ctch,resources/DY.BMP,resources/DR.BMP,Door3,-0.183333291,-0.099074116,1,0,0,0.9259,optionLeft,70,16090,7,32,0,32,0,1,,,,,,,,,,,,,,,,,,,,,,,,,,,,,,,,,,,,,,,
,,,,,,,,2023-08-16_08h40.27.301,HF_wild_card,2022.2.4,Win32,60.48874909,5ea20fd571038c119083a8df,64d2fd46c836a06233681665,64dc7d3b2cc2e184b3a08d98,,,,,,,ctch,resources/DBN.BMP,resources/DG.BMP,Door4,0.225000028,-0.039814808,1,0,0,1.1838,optionRight,80,16170,7,33,0,33,0,1,,,,,,,,,,,,,,,,,,,,,,,,,,,,,,,,,,,,,,,
,,,,,,,,2023-08-16_08h40.27.301,HF_wild_card,2022.2.4,Win32,60.48874909,5ea20fd571038c119083a8df,64d2fd46c836a06233681665,64dc7d3b2cc2e184b3a08d98,,,,,,,decisionTrl,resources/DY.BMP,resources/DG.BMP,Door3,-0.389814801,-0.119444459,1,0,0,1.5093,optionLeft,70,16240,7,34,0,34,0,1,,,,,,,,,,,,,,,,,,,,,,,,,,,,,,,,,,,,,,,
,,,,,,,,2023-08-16_08h40.27.301,HF_wild_card,2022.2.4,Win32,60.48874909,5ea20fd571038c119083a8df,64d2fd46c836a06233681665,64dc7d3b2cc2e184b3a08d98,,,,,,,decisionTrl,resources/DG.BMP,resources/DY.BMP,Door3,0.320370427,-0.070370392,1,0,0,0.9441,optionRight,70,16310,7,35,0,35,0,1,,,,,,,,,,,,,,,,,,,,,,,,,,,,,,,,,,,,,,,
,,,,,,,,2023-08-16_08h40.27.301,HF_wild_card,2022.2.4,Win32,60.48874909,5ea20fd571038c119083a8df,64d2fd46c836a06233681665,64dc7d3b2cc2e184b3a08d98,,,,,,,,,,,,,,,,,,,,,,,,,,6,0,6,0,1,,,,,,,,,,,,,,,,,,,,,,,,,,,,,,,,,,
,,,,,,,,2023-08-16_08h40.27.301,HF_wild_card,2022.2.4,Win32,60.48874909,5ea20fd571038c119083a8df,64d2fd46c836a06233681665,64dc7d3b2cc2e184b3a08d98,,,,,,,,,,,,,,,,,,,,,,,,,,,,,,,4,,,,,,,,,,,,,,,,,,,,,,,,,,,,,,,,,
,,,,,,,,2023-08-16_08h40.27.301,HF_wild_card,2022.2.4,Win32,60.48874909,5ea20fd571038c119083a8df,64d2fd46c836a06233681665,64dc7d3b2cc2e184b3a08d98,,,,,,,,,,,,,,,,,,,,,,,,,,,,,,,,,,,,,,,,,,,,,,,,,,,,,,,,,,,,,,,,
,,,,,,,,2023-08-16_08h40.27.301,HF_wild_card,2022.2.4,Win32,60.48874909,5ea20fd571038c119083a8df,64d2fd46c836a06233681665,64dc7d3b2cc2e184b3a08d98,,,,,,,,,,,,,,,,,,,,,,,,,,,,,,,,70,Door3,resources/DY.BMP,0,0,0,0,1,,,,,,,,,,,,,,,,,,,,,,,,,
,,,,,,,,2023-08-16_08h40.27.301,HF_wild_card,2022.2.4,Win32,60.48874909,5ea20fd571038c119083a8df,64d2fd46c836a06233681665,64dc7d3b2cc2e184b3a08d98,,,,,,,,,,,,,,,,,,,,,,,,,,,,,,,,20,Door2,resources/DR.BMP,1,0,1,0,1,,,,,,,,,,,,,,,,,,,,,,,,,
,,,,,,,,2023-08-16_08h40.27.301,HF_wild_card,2022.2.4,Win32,60.48874909,5ea20fd571038c119083a8df,64d2fd46c836a06233681665,64dc7d3b2cc2e184b3a08d98,,,,,,,,,,,,,,,,,,,,,,,,,,,,,,,,45,WC_extreme,resources/DP.BMP,2,0,2,0,1,,,,,,,,,,,,,,,,,,,,,,,,,
,,,,,,,,2023-08-16_08h40.27.301,HF_wild_card,2022.2.4,Win32,60.48874909,5ea20fd571038c119083a8df,64d2fd46c836a06233681665,64dc7d3b2cc2e184b3a08d98,,,,,,,,,,,,,,,,,,,,,,,,,,,,,,,,55,WC_nonExtreme,resources/DB.BMP,3,0,3,0,1,,,,,,,,,,,,,,,,,,,,,,,,,
,,,,,,,,2023-08-16_08h40.27.301,HF_wild_card,2022.2.4,Win32,60.48874909,5ea20fd571038c119083a8df,64d2fd46c836a06233681665,64dc7d3b2cc2e184b3a08d98,,,,,,,,,,,,,,,,,,,,,,,,,,,,,,,,30,Door1,resources/DBN.BMP,4,0,4,0,1,,,,,,,,,,,,,,,,,,,,,,,,,
,,,,,,,,2023-08-16_08h40.27.301,HF_wild_card,2022.2.4,Win32,60.48874909,5ea20fd571038c119083a8df,64d2fd46c836a06233681665,64dc7d3b2cc2e184b3a08d98,,,,,,,,,,,,,,,,,,,,,,,,,,,,,,,,45,Door4,resources/DG.BMP,5,0,5,0,1,,,,,,,,,,,,,,,,,,,,,,,,,
