Condition,Low fixed image (Door1),Low risky image (Door2),High fixed image (Door3),High risky image (Door4),NonExtreme Wild Card 1,NonExtreme Wild Card 2,,date,expName,psychopyVersion,OS,frameRate,PROLIFIC_PID,STUDY_ID,SESSION_ID,mouse_2.x,mouse_2.y,mouse_2.leftButton,mouse_2.midButton,mouse_2.rightButton,mouse_2.clicked_name,Trial Type,Left Option Image,Right Option Image,Chosen Door,mouse.x,mouse.y,mouse.leftButton,mouse.midButton,mouse.rightButton,mouse.time,mouse.clicked_name,Feedback,Cumulative Reward,Block,trial.thisRepN,trial.thisTrialN,trial.thisN,trial.thisIndex,trial.ran,blocks.thisRepN,blocks.thisTrialN,blocks.thisN,blocks.thisIndex,blocks.ran,Money conversion,First Outcome Reported,Shown Door (First Outcome),Displayed Image (First Outcome),outcomes.thisRepN,outcomes.thisTrialN,outcomes.thisN,outcomes.thisIndex,outcomes.ran,judgments.thisRepN,judgments.thisTrialN,judgments.thisN,judgments.thisIndex,judgments.ran,freqMouse.x,freqMouse.y,freqMouse.leftButton,freqMouse.midButton,freqMouse.rightButton,freqMouse.clicked_name,FQJ for first outcome,FQJ for second outcome,Shown Door,Displayed Image,trials.thisRepN,trials.thisTrialN,trials.thisN,trials.thisIndex,trials.ran,judgBlock.thisRepN,judgBlock.thisTrialN,judgBlock.thisN,judgBlock.thisIndex,judgBlock.ran
2,resources/DBN.BMP,resources/DP.BMP,resources/DB.BMP,resources/DG.BMP,resources/DY.BMP,resources/DR.BMP,,2023-08-06_08h21.41.686,HF_wild_card,2022.2.4,Win32,59.97720866,5fbe45eab09bc501700e1c46,64ce5acb97489d65b14ecc7a,64cf49f3d35b7aeaf7852cc0,,,,,,,,,,,,,,,,,,,,,,,,,,,,,,,,,,,,,,,,,,,,,,,,,,,,,,,,,,,,,,,,
,,,,,,,,2023-08-06_08h21.41.686,HF_wild_card,2022.2.4,Win32,59.97720866,5fbe45eab09bc501700e1c46,64ce5acb97489d65b14ecc7a,64cf49f3d35b7aeaf7852cc0,-0.02037037,-0.415740741,1,0,0,agree,,,,,,,,,,,,,,,,,,,,,,,,,,,,,,,,,,,,,,,,,,,,,,,,,,,,,,,,,,
,,,,,,,,2023-08-06_08h21.41.686,HF_wild_card,2022.2.4,Win32,59.97720866,5fbe45eab09bc501700e1c46,64ce5acb97489d65b14ecc7a,64cf49f3d35b7aeaf7852cc0,,,,,,,,,,,,,,,,,,,,,,,,,,,,,,,,,,,,,,,,,,,,,,,,,,,,,,,,,,,,,,,,
,,,,,,,,2023-08-06_08h21.41.686,HF_wild_card,2022.2.4,Win32,59.97720866,5fbe45eab09bc501700e1c46,64ce5acb97489d65b14ecc7a,64cf49f3d35b7aeaf7852cc0,,,,,,,decisionTrl,resources/DG.BMP,resources/DB.BMP,Door3,0.266666667,-0.199074074,1,0,0,3.7286,optionRight,70,70,1,0,0,0,0,1,,,,,,,,,,,,,,,,,,,,,,,,,,,,,,,,,,,,,,,
,,,,,,,,2023-08-06_08h21.41.686,HF_wild_card,2022.2.4,Win32,59.97720866,5fbe45eab09bc501700e1c46,64ce5acb97489d65b14ecc7a,64cf49f3d35b7aeaf7852cc0,,,,,,,decisionTrl,resources/DBN.BMP,resources/DP.BMP,Door1,-0.289814815,-0.181481481,1,0,0,3.4017,optionLeft,30,100,1,1,0,1,0,1,,,,,,,,,,,,,,,,,,,,,,,,,,,,,,,,,,,,,,,
,,,,,,,,2023-08-06_08h21.41.686,HF_wild_card,2022.2.4,Win32,59.97720866,5fbe45eab09bc501700e1c46,64ce5acb97489d65b14ecc7a,64cf49f3d35b7aeaf7852cc0,,,,,,,decisionTrl,resources/DP.BMP,resources/DBN.BMP,Door2,-0.301851852,-0.162037037,1,0,0,3.5854,optionLeft,20,120,1,2,0,2,0,1,,,,,,,,,,,,,,,,,,,,,,,,,,,,,,,,,,,,,,,
,,,,,,,,2023-08-06_08h21.41.686,HF_wild_card,2022.2.4,Win32,59.97720866,5fbe45eab09bc501700e1c46,64ce5acb97489d65b14ecc7a,64cf49f3d35b7aeaf7852cc0,,,,,,,sngl,resources/Empty.png,resources/DB.BMP,Door3,0.332407407,-0.134259259,1,0,0,1.6836,optionRight,70,190,1,3,0,3,0,1,,,,,,,,,,,,,,,,,,,,,,,,,,,,,,,,,,,,,,,
,,,,,,,,2023-08-06_08h21.41.686,HF_wild_card,2022.2.4,Win32,59.97720866,5fbe45eab09bc501700e1c46,64ce5acb97489d65b14ecc7a,64cf49f3d35b7aeaf7852cc0,,,,,,,ctch,resources/DB.BMP,resources/DP.BMP,Door2,0.30462963,-0.103703704,1,0,0,2.8346,optionRight,40,230,1,4,0,4,0,1,,,,,,,,,,,,,,,,,,,,,,,,,,,,,,,,,,,,,,,
,,,,,,,,2023-08-06_08h21.41.686,HF_wild_card,2022.2.4,Win32,59.97720866,5fbe45eab09bc501700e1c46,64ce5acb97489d65b14ecc7a,64cf49f3d35b7aeaf7852cc0,,,,,,,sngl,resources/Empty.png,resources/DBN.BMP,Door1,0.336111111,-0.090740741,1,0,0,2.0007,optionRight,30,260,1,5,0,5,0,1,,,,,,,,,,,,,,,,,,,,,,,,,,,,,,,,,,,,,,,
,,,,,,,,2023-08-06_08h21.41.686,HF_wild_card,2022.2.4,Win32,59.97720866,5fbe45eab09bc501700e1c46,64ce5acb97489d65b14ecc7a,64cf49f3d35b7aeaf7852cc0,,,,,,,decisionTrl,resources/DG.BMP,resources/DB.BMP,Door3,0.282407407,-0.100925926,1,0,0,1.5836,optionRight,70,330,1,6,0,6,0,1,,,,,,,,,,,,,,,,,,,,,,,,,,,,,,,,,,,,,,,
,,,,,,,,2023-08-06_08h21.41.686,HF_wild_card,2022.2.4,Win32,59.97720866,5fbe45eab09bc501700e1c46,64ce5acb97489d65b14ecc7a,64cf49f3d35b7aeaf7852cc0,,,,,,,decisionTrl,resources/DB.BMP,resources/DG.BMP,Door3,-0.399074074,-0.10462963,1,0,0,1.1,optionLeft,70,400,1,7,0,7,0,1,,,,,,,,,,,,,,,,,,,,,,,,,,,,,,,,,,,,,,,
,,,,,,,,2023-08-06_08h21.41.686,HF_wild_card,2022.2.4,Win32,59.97720866,5fbe45eab09bc501700e1c46,64ce5acb97489d65b14ecc7a,64cf49f3d35b7aeaf7852cc0,,,,,,,ctch,resources/DG.BMP,resources/DBN.BMP,Door4,-0.286111111,-0.07037037,1,0,0,3.0137,optionLeft,80,480,1,8,0,8,0,1,,,,,,,,,,,,,,,,,,,,,,,,,,,,,,,,,,,,,,,
,,,,,,,,2023-08-06_08h21.41.686,HF_wild_card,2022.2.4,Win32,59.97720866,5fbe45eab09bc501700e1c46,64ce5acb97489d65b14ecc7a,64cf49f3d35b7aeaf7852cc0,,,,,,,sngl,resources/Empty.png,resources/DR.BMP,WildCard_NonEx,0.427777778,-0.083333333,1,0,0,1.9009,optionRight,55,535,1,9,0,9,0,1,,,,,,,,,,,,,,,,,,,,,,,,,,,,,,,,,,,,,,,
,,,,,,,,2023-08-06_08h21.41.686,HF_wild_card,2022.2.4,Win32,59.97720866,5fbe45eab09bc501700e1c46,64ce5acb97489d65b14ecc7a,64cf49f3d35b7aeaf7852cc0,,,,,,,ctch,resources/DBN.BMP,resources/DG.BMP,Door1,-0.344444444,-0.12037037,1,0,0,5.4041,optionLeft,30,565,1,10,0,10,0,1,,,,,,,,,,,,,,,,,,,,,,,,,,,,,,,,,,,,,,,
,,,,,,,,2023-08-06_08h21.41.686,HF_wild_card,2022.2.4,Win32,59.97720866,5fbe45eab09bc501700e1c46,64ce5acb97489d65b14ecc7a,64cf49f3d35b7aeaf7852cc0,,,,,,,decisionTrl,resources/DBN.BMP,resources/DP.BMP,Door2,0.282407407,-0.082407407,1,0,0,1.4336,optionRight,40,605,1,11,0,11,0,1,,,,,,,,,,,,,,,,,,,,,,,,,,,,,,,,,,,,,,,
,,,,,,,,2023-08-06_08h21.41.686,HF_wild_card,2022.2.4,Win32,59.97720866,5fbe45eab09bc501700e1c46,64ce5acb97489d65b14ecc7a,64cf49f3d35b7aeaf7852cc0,,,,,,,decisionTrl,resources/DBN.BMP,resources/DR.BMP,WildCard_NonEx,0.237962963,-0.07037037,1,0,0,1.7341,optionRight,45,650,1,12,0,12,0,1,,,,,,,,,,,,,,,,,,,,,,,,,,,,,,,,,,,,,,,
,,,,,,,,2023-08-06_08h21.41.686,HF_wild_card,2022.2.4,Win32,59.97720866,5fbe45eab09bc501700e1c46,64ce5acb97489d65b14ecc7a,64cf49f3d35b7aeaf7852cc0,,,,,,,decisionTrl,resources/DB.BMP,resources/DR.BMP,Door3,-0.382407407,-0.081481481,1,0,0,2.0175,optionLeft,70,720,1,13,0,13,0,1,,,,,,,,,,,,,,,,,,,,,,,,,,,,,,,,,,,,,,,
,,,,,,,,2023-08-06_08h21.41.686,HF_wild_card,2022.2.4,Win32,59.97720866,5fbe45eab09bc501700e1c46,64ce5acb97489d65b14ecc7a,64cf49f3d35b7aeaf7852cc0,,,,,,,decisionTrl,resources/DR.BMP,resources/DB.BMP,Door3,0.294444444,-0.082407407,1,0,0,1,optionRight,70,790,1,14,0,14,0,1,,,,,,,,,,,,,,,,,,,,,,,,,,,,,,,,,,,,,,,
,,,,,,,,2023-08-06_08h21.41.686,HF_wild_card,2022.2.4,Win32,59.97720866,5fbe45eab09bc501700e1c46,64ce5acb97489d65b14ecc7a,64cf49f3d35b7aeaf7852cc0,,,,,,,sngl,resources/Empty.png,resources/DP.BMP,Door2,0.403703704,-0.07962963,1,0,0,2.0843,optionRight,20,810,1,15,0,15,0,1,,,,,,,,,,,,,,,,,,,,,,,,,,,,,,,,,,,,,,,
,,,,,,,,2023-08-06_08h21.41.686,HF_wild_card,2022.2.4,Win32,59.97720866,5fbe45eab09bc501700e1c46,64ce5acb97489d65b14ecc7a,64cf49f3d35b7aeaf7852cc0,,,,,,,decisionTrl,resources/DB.BMP,resources/DG.BMP,Door3,-0.289814815,-0.097222222,1,0,0,1.3668,optionLeft,70,880,1,16,0,16,0,1,,,,,,,,,,,,,,,,,,,,,,,,,,,,,,,,,,,,,,,
,,,,,,,,2023-08-06_08h21.41.686,HF_wild_card,2022.2.4,Win32,59.97720866,5fbe45eab09bc501700e1c46,64ce5acb97489d65b14ecc7a,64cf49f3d35b7aeaf7852cc0,,,,,,,decisionTrl,resources/DP.BMP,resources/DBN.BMP,Door1,0.287037037,-0.087037037,1,0,0,2.2679,optionRight,30,910,1,17,0,17,0,1,,,,,,,,,,,,,,,,,,,,,,,,,,,,,,,,,,,,,,,
,,,,,,,,2023-08-06_08h21.41.686,HF_wild_card,2022.2.4,Win32,59.97720866,5fbe45eab09bc501700e1c46,64ce5acb97489d65b14ecc7a,64cf49f3d35b7aeaf7852cc0,,,,,,,sngl,resources/DP.BMP,resources/Empty.png,Door2,-0.262962963,-0.126851852,1,0,0,1.3837,optionLeft,40,950,1,18,0,18,0,1,,,,,,,,,,,,,,,,,,,,,,,,,,,,,,,,,,,,,,,
,,,,,,,,2023-08-06_08h21.41.686,HF_wild_card,2022.2.4,Win32,59.97720866,5fbe45eab09bc501700e1c46,64ce5acb97489d65b14ecc7a,64cf49f3d35b7aeaf7852cc0,,,,,,,sngl,resources/DG.BMP,resources/Empty.png,Door4,-0.237962963,-0.101851852,1,0,0,1.5838,optionLeft,80,1030,1,19,0,19,0,1,,,,,,,,,,,,,,,,,,,,,,,,,,,,,,,,,,,,,,,
,,,,,,,,2023-08-06_08h21.41.686,HF_wild_card,2022.2.4,Win32,59.97720866,5fbe45eab09bc501700e1c46,64ce5acb97489d65b14ecc7a,64cf49f3d35b7aeaf7852cc0,,,,,,,sngl,resources/DR.BMP,resources/Empty.png,WildCard_NonEx,-0.277777778,-0.150925926,1,0,0,1.2669,optionLeft,55,1085,1,20,0,20,0,1,,,,,,,,,,,,,,,,,,,,,,,,,,,,,,,,,,,,,,,
,,,,,,,,2023-08-06_08h21.41.686,HF_wild_card,2022.2.4,Win32,59.97720866,5fbe45eab09bc501700e1c46,64ce5acb97489d65b14ecc7a,64cf49f3d35b7aeaf7852cc0,,,,,,,decisionTrl,resources/DR.BMP,resources/DP.BMP,WildCard_NonEx,-0.261111111,-0.139814815,1,0,0,3.152,optionLeft,45,1130,1,21,0,21,0,1,,,,,,,,,,,,,,,,,,,,,,,,,,,,,,,,,,,,,,,
,,,,,,,,2023-08-06_08h21.41.686,HF_wild_card,2022.2.4,Win32,59.97720866,5fbe45eab09bc501700e1c46,64ce5acb97489d65b14ecc7a,64cf49f3d35b7aeaf7852cc0,,,,,,,decisionTrl,resources/DG.BMP,resources/DR.BMP,WildCard_NonEx,0.30462963,-0.083333333,1,0,0,1.7171,optionRight,55,1185,1,22,0,22,0,1,,,,,,,,,,,,,,,,,,,,,,,,,,,,,,,,,,,,,,,
,,,,,,,,2023-08-06_08h21.41.686,HF_wild_card,2022.2.4,Win32,59.97720866,5fbe45eab09bc501700e1c46,64ce5acb97489d65b14ecc7a,64cf49f3d35b7aeaf7852cc0,,,,,,,sngl,resources/DB.BMP,resources/Empty.png,Door3,-0.230555556,-0.127777778,1,0,0,1.5671,optionLeft,70,1255,1,23,0,23,0,1,,,,,,,,,,,,,,,,,,,,,,,,,,,,,,,,,,,,,,,
,,,,,,,,2023-08-06_08h21.41.686,HF_wild_card,2022.2.4,Win32,59.97720866,5fbe45eab09bc501700e1c46,64ce5acb97489d65b14ecc7a,64cf49f3d35b7aeaf7852cc0,,,,,,,decisionTrl,resources/DB.BMP,resources/DG.BMP,Door3,-0.256481481,-0.1,1,0,0,1.3002,optionLeft,70,1325,1,24,0,24,0,1,,,,,,,,,,,,,,,,,,,,,,,,,,,,,,,,,,,,,,,
,,,,,,,,2023-08-06_08h21.41.686,HF_wild_card,2022.2.4,Win32,59.97720866,5fbe45eab09bc501700e1c46,64ce5acb97489d65b14ecc7a,64cf49f3d35b7aeaf7852cc0,,,,,,,sngl,resources/Empty.png,resources/DR.BMP,WildCard_NonEx,0.232407407,-0.036111111,1,0,0,1.5004,optionRight,45,1370,1,25,0,25,0,1,,,,,,,,,,,,,,,,,,,,,,,,,,,,,,,,,,,,,,,
,,,,,,,,2023-08-06_08h21.41.686,HF_wild_card,2022.2.4,Win32,59.97720866,5fbe45eab09bc501700e1c46,64ce5acb97489d65b14ecc7a,64cf49f3d35b7aeaf7852cc0,,,,,,,decisionTrl,resources/DP.BMP,resources/DBN.BMP,Door1,0.244444444,-0.023148148,1,0,0,4.2863,optionRight,30,1400,1,26,0,26,0,1,,,,,,,,,,,,,,,,,,,,,,,,,,,,,,,,,,,,,,,
,,,,,,,,2023-08-06_08h21.41.686,HF_wild_card,2022.2.4,Win32,59.97720866,5fbe45eab09bc501700e1c46,64ce5acb97489d65b14ecc7a,64cf49f3d35b7aeaf7852cc0,,,,,,,sngl,resources/Empty.png,resources/DG.BMP,Door4,0.281481481,-0.084259259,1,0,0,1.4002,optionRight,60,1460,1,27,0,27,0,1,,,,,,,,,,,,,,,,,,,,,,,,,,,,,,,,,,,,,,,
,,,,,,,,2023-08-06_08h21.41.686,HF_wild_card,2022.2.4,Win32,59.97720866,5fbe45eab09bc501700e1c46,64ce5acb97489d65b14ecc7a,64cf49f3d35b7aeaf7852cc0,,,,,,,ctch,resources/DBN.BMP,resources/DG.BMP,Door4,0.202777778,-0.07962963,1,0,0,1.3169,optionRight,60,1520,1,28,0,28,0,1,,,,,,,,,,,,,,,,,,,,,,,,,,,,,,,,,,,,,,,
,,,,,,,,2023-08-06_08h21.41.686,HF_wild_card,2022.2.4,Win32,59.97720866,5fbe45eab09bc501700e1c46,64ce5acb97489d65b14ecc7a,64cf49f3d35b7aeaf7852cc0,,,,,,,decisionTrl,resources/DP.BMP,resources/DBN.BMP,Door2,-0.293518519,-0.138888889,1,0,0,2.436,optionLeft,20,1540,1,29,0,29,0,1,,,,,,,,,,,,,,,,,,,,,,,,,,,,,,,,,,,,,,,
,,,,,,,,2023-08-06_08h21.41.686,HF_wild_card,2022.2.4,Win32,59.97720866,5fbe45eab09bc501700e1c46,64ce5acb97489d65b14ecc7a,64cf49f3d35b7aeaf7852cc0,,,,,,,decisionTrl,resources/DP.BMP,resources/DR.BMP,WildCard_NonEx,0.274074074,-0.07037037,1,0,0,2.1001,optionRight,45,1585,1,30,0,30,0,1,,,,,,,,,,,,,,,,,,,,,,,,,,,,,,,,,,,,,,,
,,,,,,,,2023-08-06_08h21.41.686,HF_wild_card,2022.2.4,Win32,59.97720866,5fbe45eab09bc501700e1c46,64ce5acb97489d65b14ecc7a,64cf49f3d35b7aeaf7852cc0,,,,,,,decisionTrl,resources/DR.BMP,resources/DG.BMP,WildCard_NonEx,-0.261111111,-0.118518519,1,0,0,2.4011,optionLeft,45,1630,1,31,0,31,0,1,,,,,,,,,,,,,,,,,,,,,,,,,,,,,,,,,,,,,,,
,,,,,,,,2023-08-06_08h21.41.686,HF_wild_card,2022.2.4,Win32,59.97720866,5fbe45eab09bc501700e1c46,64ce5acb97489d65b14ecc7a,64cf49f3d35b7aeaf7852cc0,,,,,,,ctch,resources/DP.BMP,resources/DB.BMP,Door3,0.24537037,-0.098148148,1,0,0,1.1956,optionRight,70,1700,1,32,0,32,0,1,,,,,,,,,,,,,,,,,,,,,,,,,,,,,,,,,,,,,,,
,,,,,,,,2023-08-06_08h21.41.686,HF_wild_card,2022.2.4,Win32,59.97720866,5fbe45eab09bc501700e1c46,64ce5acb97489d65b14ecc7a,64cf49f3d35b7aeaf7852cc0,,,,,,,ctch,resources/DG.BMP,resources/DBN.BMP,Door4,-0.280555556,-0.148148148,1,0,0,2.1021,optionLeft,60,1760,1,33,0,33,0,1,,,,,,,,,,,,,,,,,,,,,,,,,,,,,,,,,,,,,,,
,,,,,,,,2023-08-06_08h21.41.686,HF_wild_card,2022.2.4,Win32,59.97720866,5fbe45eab09bc501700e1c46,64ce5acb97489d65b14ecc7a,64cf49f3d35b7aeaf7852cc0,,,,,,,decisionTrl,resources/DBN.BMP,resources/DP.BMP,Door1,-0.232407407,-0.137962963,1,0,0,2.5515,optionLeft,30,1790,1,34,0,34,0,1,,,,,,,,,,,,,,,,,,,,,,,,,,,,,,,,,,,,,,,
,,,,,,,,2023-08-06_08h21.41.686,HF_wild_card,2022.2.4,Win32,59.97720866,5fbe45eab09bc501700e1c46,64ce5acb97489d65b14ecc7a,64cf49f3d35b7aeaf7852cc0,,,,,,,decisionTrl,resources/DB.BMP,resources/DG.BMP,Door3,-0.235185185,-0.166666667,1,0,0,1.3,optionLeft,70,1860,1,35,0,35,0,1,,,,,,,,,,,,,,,,,,,,,,,,,,,,,,,,,,,,,,,
,,,,,,,,2023-08-06_08h21.41.686,HF_wild_card,2022.2.4,Win32,59.97720866,5fbe45eab09bc501700e1c46,64ce5acb97489d65b14ecc7a,64cf49f3d35b7aeaf7852cc0,,,,,,,ctch,resources/DP.BMP,resources/DB.BMP,Door3,0.225,-0.077777778,1,0,0,1.9008,optionRight,70,1930,1,36,0,36,0,1,,,,,,,,,,,,,,,,,,,,,,,,,,,,,,,,,,,,,,,
,,,,,,,,2023-08-06_08h21.41.686,HF_wild_card,2022.2.4,Win32,59.97720866,5fbe45eab09bc501700e1c46,64ce5acb97489d65b14ecc7a,64cf49f3d35b7aeaf7852cc0,,,,,,,decisionTrl,resources/DBN.BMP,resources/DP.BMP,Door1,-0.302777778,-0.140740741,1,0,0,2.0834,optionLeft,30,1960,1,37,0,37,0,1,,,,,,,,,,,,,,,,,,,,,,,,,,,,,,,,,,,,,,,
,,,,,,,,2023-08-06_08h21.41.686,HF_wild_card,2022.2.4,Win32,59.97720866,5fbe45eab09bc501700e1c46,64ce5acb97489d65b14ecc7a,64cf49f3d35b7aeaf7852cc0,,,,,,,decisionTrl,resources/DG.BMP,resources/DB.BMP,Door3,0.237037037,-0.111111111,1,0,0,1.1834,optionRight,70,2030,1,38,0,38,0,1,,,,,,,,,,,,,,,,,,,,,,,,,,,,,,,,,,,,,,,
,,,,,,,,2023-08-06_08h21.41.686,HF_wild_card,2022.2.4,Win32,59.97720866,5fbe45eab09bc501700e1c46,64ce5acb97489d65b14ecc7a,64cf49f3d35b7aeaf7852cc0,,,,,,,decisionTrl,resources/DG.BMP,resources/DB.BMP,Door3,0.206481481,-0.087962963,1,0,0,1.167,optionRight,70,2100,1,39,0,39,0,1,,,,,,,,,,,,,,,,,,,,,,,,,,,,,,,,,,,,,,,
,,,,,,,,2023-08-06_08h21.41.686,HF_wild_card,2022.2.4,Win32,59.97720866,5fbe45eab09bc501700e1c46,64ce5acb97489d65b14ecc7a,64cf49f3d35b7aeaf7852cc0,,,,,,,sngl,resources/DR.BMP,resources/Empty.png,WildCard_NonEx,-0.339814815,-0.164814815,1,0,0,1.1656,optionLeft,45,2145,1,40,0,40,0,1,,,,,,,,,,,,,,,,,,,,,,,,,,,,,,,,,,,,,,,
,,,,,,,,2023-08-06_08h21.41.686,HF_wild_card,2022.2.4,Win32,59.97720866,5fbe45eab09bc501700e1c46,64ce5acb97489d65b14ecc7a,64cf49f3d35b7aeaf7852cc0,,,,,,,decisionTrl,resources/DR.BMP,resources/DBN.BMP,Door1,0.324074074,-0.056481481,1,0,0,2.9506,optionRight,30,2175,1,41,0,41,0,1,,,,,,,,,,,,,,,,,,,,,,,,,,,,,,,,,,,,,,,
,,,,,,,,2023-08-06_08h21.41.686,HF_wild_card,2022.2.4,Win32,59.97720866,5fbe45eab09bc501700e1c46,64ce5acb97489d65b14ecc7a,64cf49f3d35b7aeaf7852cc0,,,,,,,sngl,resources/DBN.BMP,resources/Empty.png,Door1,-0.285185185,-0.134259259,1,0,0,1.1667,optionLeft,30,2205,1,42,0,42,0,1,,,,,,,,,,,,,,,,,,,,,,,,,,,,,,,,,,,,,,,
,,,,,,,,2023-08-06_08h21.41.686,HF_wild_card,2022.2.4,Win32,59.97720866,5fbe45eab09bc501700e1c46,64ce5acb97489d65b14ecc7a,64cf49f3d35b7aeaf7852cc0,,,,,,,ctch,resources/DB.BMP,resources/DP.BMP,Door3,-0.382407407,-0.113888889,1,0,0,1.8507,optionLeft,70,2275,1,43,0,43,0,1,,,,,,,,,,,,,,,,,,,,,,,,,,,,,,,,,,,,,,,
,,,,,,,,2023-08-06_08h21.41.686,HF_wild_card,2022.2.4,Win32,59.97720866,5fbe45eab09bc501700e1c46,64ce5acb97489d65b14ecc7a,64cf49f3d35b7aeaf7852cc0,,,,,,,,,,,,,,,,,,,,,,,,,,0,0,0,0,1,,,,,,,,,,,,,,,,,,,,,,,,,,,,,,,,,,
,,,,,,,,2023-08-06_08h21.41.686,HF_wild_card,2022.2.4,Win32,59.97720866,5fbe45eab09bc501700e1c46,64ce5acb97489d65b14ecc7a,64cf49f3d35b7aeaf7852cc0,,,,,,,decisionTrl,resources/DB.BMP,resources/DG.BMP,Door3,-0.209259259,-0.082407407,1,0,0,1.2607,optionLeft,70,2345,2,0,0,0,0,1,,,,,,,,,,,,,,,,,,,,,,,,,,,,,,,,,,,,,,,
,,,,,,,,2023-08-06_08h21.41.686,HF_wild_card,2022.2.4,Win32,59.97720866,5fbe45eab09bc501700e1c46,64ce5acb97489d65b14ecc7a,64cf49f3d35b7aeaf7852cc0,,,,,,,decisionTrl,resources/DR.BMP,resources/DP.BMP,WildCard_NonEx,-0.292592593,-0.140740741,1,0,0,1.9625,optionLeft,45,2390,2,1,0,1,0,1,,,,,,,,,,,,,,,,,,,,,,,,,,,,,,,,,,,,,,,
,,,,,,,,2023-08-06_08h21.41.686,HF_wild_card,2022.2.4,Win32,59.97720866,5fbe45eab09bc501700e1c46,64ce5acb97489d65b14ecc7a,64cf49f3d35b7aeaf7852cc0,,,,,,,decisionTrl,resources/DG.BMP,resources/DR.BMP,WildCard_NonEx,0.362037037,-0.078703704,1,0,0,1.5672,optionRight,45,2435,2,2,0,2,0,1,,,,,,,,,,,,,,,,,,,,,,,,,,,,,,,,,,,,,,,
,,,,,,,,2023-08-06_08h21.41.686,HF_wild_card,2022.2.4,Win32,59.97720866,5fbe45eab09bc501700e1c46,64ce5acb97489d65b14ecc7a,64cf49f3d35b7aeaf7852cc0,,,,,,,ctch,resources/DB.BMP,resources/DP.BMP,Door3,-0.316666667,-0.072222222,1,0,0,0.9669,optionLeft,70,2505,2,3,0,3,0,1,,,,,,,,,,,,,,,,,,,,,,,,,,,,,,,,,,,,,,,
,,,,,,,,2023-08-06_08h21.41.686,HF_wild_card,2022.2.4,Win32,59.97720866,5fbe45eab09bc501700e1c46,64ce5acb97489d65b14ecc7a,64cf49f3d35b7aeaf7852cc0,,,,,,,decisionTrl,resources/DP.BMP,resources/DBN.BMP,Door1,0.258333333,-0.05,1,0,0,4.3201,optionRight,30,2535,2,4,0,4,0,1,,,,,,,,,,,,,,,,,,,,,,,,,,,,,,,,,,,,,,,
,,,,,,,,2023-08-06_08h21.41.686,HF_wild_card,2022.2.4,Win32,59.97720866,5fbe45eab09bc501700e1c46,64ce5acb97489d65b14ecc7a,64cf49f3d35b7aeaf7852cc0,,,,,,,sngl,resources/Empty.png,resources/DB.BMP,Door3,0.283333333,-0.05462963,1,0,0,1.1501,optionRight,70,2605,2,5,0,5,0,1,,,,,,,,,,,,,,,,,,,,,,,,,,,,,,,,,,,,,,,
,,,,,,,,2023-08-06_08h21.41.686,HF_wild_card,2022.2.4,Win32,59.97720866,5fbe45eab09bc501700e1c46,64ce5acb97489d65b14ecc7a,64cf49f3d35b7aeaf7852cc0,,,,,,,decisionTrl,resources/DG.BMP,resources/DB.BMP,Door3,0.260185185,-0.036111111,1,0,0,1.6509,optionRight,70,2675,2,6,0,6,0,1,,,,,,,,,,,,,,,,,,,,,,,,,,,,,,,,,,,,,,,
,,,,,,,,2023-08-06_08h21.41.686,HF_wild_card,2022.2.4,Win32,59.97720866,5fbe45eab09bc501700e1c46,64ce5acb97489d65b14ecc7a,64cf49f3d35b7aeaf7852cc0,,,,,,,sngl,resources/Empty.png,resources/DBN.BMP,Door1,0.287037037,0.000925926,1,0,0,1.7838,optionRight,30,2705,2,7,0,7,0,1,,,,,,,,,,,,,,,,,,,,,,,,,,,,,,,,,,,,,,,
,,,,,,,,2023-08-06_08h21.41.686,HF_wild_card,2022.2.4,Win32,59.97720866,5fbe45eab09bc501700e1c46,64ce5acb97489d65b14ecc7a,64cf49f3d35b7aeaf7852cc0,,,,,,,decisionTrl,resources/DP.BMP,resources/DBN.BMP,Door2,-0.294444444,-0.099074074,1,0,0,3.0972,optionLeft,20,2725,2,8,0,8,0,1,,,,,,,,,,,,,,,,,,,,,,,,,,,,,,,,,,,,,,,
,,,,,,,,2023-08-06_08h21.41.686,HF_wild_card,2022.2.4,Win32,59.97720866,5fbe45eab09bc501700e1c46,64ce5acb97489d65b14ecc7a,64cf49f3d35b7aeaf7852cc0,,,,,,,sngl,resources/Empty.png,resources/DP.BMP,Door2,0.172222222,-0.062037037,1,0,0,1.1167,optionRight,40,2765,2,9,0,9,0,1,,,,,,,,,,,,,,,,,,,,,,,,,,,,,,,,,,,,,,,
,,,,,,,,2023-08-06_08h21.41.686,HF_wild_card,2022.2.4,Win32,59.97720866,5fbe45eab09bc501700e1c46,64ce5acb97489d65b14ecc7a,64cf49f3d35b7aeaf7852cc0,,,,,,,decisionTrl,resources/DP.BMP,resources/DBN.BMP,Door2,-0.275,-0.101851852,1,0,0,2.001,optionLeft,40,2805,2,10,0,10,0,1,,,,,,,,,,,,,,,,,,,,,,,,,,,,,,,,,,,,,,,
,,,,,,,,2023-08-06_08h21.41.686,HF_wild_card,2022.2.4,Win32,59.97720866,5fbe45eab09bc501700e1c46,64ce5acb97489d65b14ecc7a,64cf49f3d35b7aeaf7852cc0,,,,,,,ctch,resources/DBN.BMP,resources/DG.BMP,Door4,0.184259259,-0.053703704,1,0,0,1.883,optionRight,60,2865,2,11,0,11,0,1,,,,,,,,,,,,,,,,,,,,,,,,,,,,,,,,,,,,,,,
,,,,,,,,2023-08-06_08h21.41.686,HF_wild_card,2022.2.4,Win32,59.97720866,5fbe45eab09bc501700e1c46,64ce5acb97489d65b14ecc7a,64cf49f3d35b7aeaf7852cc0,,,,,,,decisionTrl,resources/DR.BMP,resources/DBN.BMP,WildCard_NonEx,-0.313888889,-0.150925926,1,0,0,1.7006,optionLeft,55,2920,2,12,0,12,0,1,,,,,,,,,,,,,,,,,,,,,,,,,,,,,,,,,,,,,,,
,,,,,,,,2023-08-06_08h21.41.686,HF_wild_card,2022.2.4,Win32,59.97720866,5fbe45eab09bc501700e1c46,64ce5acb97489d65b14ecc7a,64cf49f3d35b7aeaf7852cc0,,,,,,,sngl,resources/DG.BMP,resources/Empty.png,Door4,-0.211111111,-0.137962963,1,0,0,1.2501,optionLeft,60,2980,2,13,0,13,0,1,,,,,,,,,,,,,,,,,,,,,,,,,,,,,,,,,,,,,,,
,,,,,,,,2023-08-06_08h21.41.686,HF_wild_card,2022.2.4,Win32,59.97720866,5fbe45eab09bc501700e1c46,64ce5acb97489d65b14ecc7a,64cf49f3d35b7aeaf7852cc0,,,,,,,decisionTrl,resources/DP.BMP,resources/DR.BMP,Door2,-0.243518519,-0.140740741,1,0,0,3.8371,optionLeft,20,3000,2,14,0,14,0,1,,,,,,,,,,,,,,,,,,,,,,,,,,,,,,,,,,,,,,,
,,,,,,,,2023-08-06_08h21.41.686,HF_wild_card,2022.2.4,Win32,59.97720866,5fbe45eab09bc501700e1c46,64ce5acb97489d65b14ecc7a,64cf49f3d35b7aeaf7852cc0,,,,,,,sngl,resources/DBN.BMP,resources/Empty.png,Door1,-0.19537037,-0.112962963,1,0,0,1.0495,optionLeft,30,3030,2,15,0,15,0,1,,,,,,,,,,,,,,,,,,,,,,,,,,,,,,,,,,,,,,,
,,,,,,,,2023-08-06_08h21.41.686,HF_wild_card,2022.2.4,Win32,59.97720866,5fbe45eab09bc501700e1c46,64ce5acb97489d65b14ecc7a,64cf49f3d35b7aeaf7852cc0,,,,,,,decisionTrl,resources/DG.BMP,resources/DB.BMP,Door3,0.212037037,-0.051851852,1,0,0,1.8517,optionRight,70,3100,2,16,0,16,0,1,,,,,,,,,,,,,,,,,,,,,,,,,,,,,,,,,,,,,,,
,,,,,,,,2023-08-06_08h21.41.686,HF_wild_card,2022.2.4,Win32,59.97720866,5fbe45eab09bc501700e1c46,64ce5acb97489d65b14ecc7a,64cf49f3d35b7aeaf7852cc0,,,,,,,ctch,resources/DG.BMP,resources/DBN.BMP,Door4,-0.265740741,-0.160185185,1,0,0,1.7018,optionLeft,80,3180,2,17,0,17,0,1,,,,,,,,,,,,,,,,,,,,,,,,,,,,,,,,,,,,,,,
,,,,,,,,2023-08-06_08h21.41.686,HF_wild_card,2022.2.4,Win32,59.97720866,5fbe45eab09bc501700e1c46,64ce5acb97489d65b14ecc7a,64cf49f3d35b7aeaf7852cc0,,,,,,,ctch,resources/DP.BMP,resources/DB.BMP,Door3,0.174074074,-0.05,1,0,0,1.5337,optionRight,70,3250,2,18,0,18,0,1,,,,,,,,,,,,,,,,,,,,,,,,,,,,,,,,,,,,,,,
,,,,,,,,2023-08-06_08h21.41.686,HF_wild_card,2022.2.4,Win32,59.97720866,5fbe45eab09bc501700e1c46,64ce5acb97489d65b14ecc7a,64cf49f3d35b7aeaf7852cc0,,,,,,,ctch,resources/DP.BMP,resources/DB.BMP,Door3,0.168518519,-0.12037037,1,0,0,1.1508,optionRight,70,3320,2,19,0,19,0,1,,,,,,,,,,,,,,,,,,,,,,,,,,,,,,,,,,,,,,,
,,,,,,,,2023-08-06_08h21.41.686,HF_wild_card,2022.2.4,Win32,59.97720866,5fbe45eab09bc501700e1c46,64ce5acb97489d65b14ecc7a,64cf49f3d35b7aeaf7852cc0,,,,,,,decisionTrl,resources/DP.BMP,resources/DBN.BMP,Door2,-0.294444444,-0.146296296,1,0,0,1.7353,optionLeft,40,3360,2,20,0,20,0,1,,,,,,,,,,,,,,,,,,,,,,,,,,,,,,,,,,,,,,,
,,,,,,,,2023-08-06_08h21.41.686,HF_wild_card,2022.2.4,Win32,59.97720866,5fbe45eab09bc501700e1c46,64ce5acb97489d65b14ecc7a,64cf49f3d35b7aeaf7852cc0,,,,,,,decisionTrl,resources/DG.BMP,resources/DB.BMP,Door4,-0.25462963,-0.149074074,1,0,0,1.1503,optionLeft,80,3440,2,21,0,21,0,1,,,,,,,,,,,,,,,,,,,,,,,,,,,,,,,,,,,,,,,
,,,,,,,,2023-08-06_08h21.41.686,HF_wild_card,2022.2.4,Win32,59.97720866,5fbe45eab09bc501700e1c46,64ce5acb97489d65b14ecc7a,64cf49f3d35b7aeaf7852cc0,,,,,,,ctch,resources/DG.BMP,resources/DBN.BMP,Door4,-0.293518519,-0.138888889,1,0,0,1.6173,optionLeft,60,3500,2,22,0,22,0,1,,,,,,,,,,,,,,,,,,,,,,,,,,,,,,,,,,,,,,,
,,,,,,,,2023-08-06_08h21.41.686,HF_wild_card,2022.2.4,Win32,59.97720866,5fbe45eab09bc501700e1c46,64ce5acb97489d65b14ecc7a,64cf49f3d35b7aeaf7852cc0,,,,,,,decisionTrl,resources/DG.BMP,resources/DB.BMP,Door3,0.248148148,-0.056481481,1,0,0,1.4339,optionRight,70,3570,2,23,0,23,0,1,,,,,,,,,,,,,,,,,,,,,,,,,,,,,,,,,,,,,,,
,,,,,,,,2023-08-06_08h21.41.686,HF_wild_card,2022.2.4,Win32,59.97720866,5fbe45eab09bc501700e1c46,64ce5acb97489d65b14ecc7a,64cf49f3d35b7aeaf7852cc0,,,,,,,ctch,resources/DBN.BMP,resources/DG.BMP,Door4,0.172222222,-0.091666667,1,0,0,2.0354,optionRight,80,3650,2,24,0,24,0,1,,,,,,,,,,,,,,,,,,,,,,,,,,,,,,,,,,,,,,,
,,,,,,,,2023-08-06_08h21.41.686,HF_wild_card,2022.2.4,Win32,59.97720866,5fbe45eab09bc501700e1c46,64ce5acb97489d65b14ecc7a,64cf49f3d35b7aeaf7852cc0,,,,,,,sngl,resources/Empty.png,resources/DR.BMP,WildCard_NonEx,0.266666667,-0.096296296,1,0,0,1.3827,optionRight,55,3705,2,25,0,25,0,1,,,,,,,,,,,,,,,,,,,,,,,,,,,,,,,,,,,,,,,
,,,,,,,,2023-08-06_08h21.41.686,HF_wild_card,2022.2.4,Win32,59.97720866,5fbe45eab09bc501700e1c46,64ce5acb97489d65b14ecc7a,64cf49f3d35b7aeaf7852cc0,,,,,,,sngl,resources/Empty.png,resources/DG.BMP,Door4,0.250925926,-0.067592593,1,0,0,1.6339,optionRight,80,3785,2,26,0,26,0,1,,,,,,,,,,,,,,,,,,,,,,,,,,,,,,,,,,,,,,,
,,,,,,,,2023-08-06_08h21.41.686,HF_wild_card,2022.2.4,Win32,59.97720866,5fbe45eab09bc501700e1c46,64ce5acb97489d65b14ecc7a,64cf49f3d35b7aeaf7852cc0,,,,,,,decisionTrl,resources/DB.BMP,resources/DG.BMP,Door4,0.274074074,-0.09537037,1,0,0,1.4015,optionRight,80,3865,2,27,0,27,0,1,,,,,,,,,,,,,,,,,,,,,,,,,,,,,,,,,,,,,,,
,,,,,,,,2023-08-06_08h21.41.686,HF_wild_card,2022.2.4,Win32,59.97720866,5fbe45eab09bc501700e1c46,64ce5acb97489d65b14ecc7a,64cf49f3d35b7aeaf7852cc0,,,,,,,decisionTrl,resources/DBN.BMP,resources/DP.BMP,Door2,0.212037037,-0.084259259,1,0,0,3.4358,optionRight,20,3885,2,28,0,28,0,1,,,,,,,,,,,,,,,,,,,,,,,,,,,,,,,,,,,,,,,
,,,,,,,,2023-08-06_08h21.41.686,HF_wild_card,2022.2.4,Win32,59.97720866,5fbe45eab09bc501700e1c46,64ce5acb97489d65b14ecc7a,64cf49f3d35b7aeaf7852cc0,,,,,,,decisionTrl,resources/DB.BMP,resources/DR.BMP,Door3,-0.267592593,-0.114814815,1,0,0,1.5006,optionLeft,70,3955,2,29,0,29,0,1,,,,,,,,,,,,,,,,,,,,,,,,,,,,,,,,,,,,,,,
,,,,,,,,2023-08-06_08h21.41.686,HF_wild_card,2022.2.4,Win32,59.97720866,5fbe45eab09bc501700e1c46,64ce5acb97489d65b14ecc7a,64cf49f3d35b7aeaf7852cc0,,,,,,,decisionTrl,resources/DR.BMP,resources/DG.BMP,Door4,0.316666667,-0.078703704,1,0,0,1.3183,optionRight,80,4035,2,30,0,30,0,1,,,,,,,,,,,,,,,,,,,,,,,,,,,,,,,,,,,,,,,
,,,,,,,,2023-08-06_08h21.41.686,HF_wild_card,2022.2.4,Win32,59.97720866,5fbe45eab09bc501700e1c46,64ce5acb97489d65b14ecc7a,64cf49f3d35b7aeaf7852cc0,,,,,,,ctch,resources/DB.BMP,resources/DP.BMP,Door3,-0.22962963,-0.135185185,1,0,0,1.05,optionLeft,70,4105,2,31,0,31,0,1,,,,,,,,,,,,,,,,,,,,,,,,,,,,,,,,,,,,,,,
,,,,,,,,2023-08-06_08h21.41.686,HF_wild_card,2022.2.4,Win32,59.97720866,5fbe45eab09bc501700e1c46,64ce5acb97489d65b14ecc7a,64cf49f3d35b7aeaf7852cc0,,,,,,,decisionTrl,resources/DBN.BMP,resources/DP.BMP,Door1,-0.243518519,-0.075,1,0,0,4.4856,optionLeft,30,4135,2,32,0,32,0,1,,,,,,,,,,,,,,,,,,,,,,,,,,,,,,,,,,,,,,,
,,,,,,,,2023-08-06_08h21.41.686,HF_wild_card,2022.2.4,Win32,59.97720866,5fbe45eab09bc501700e1c46,64ce5acb97489d65b14ecc7a,64cf49f3d35b7aeaf7852cc0,,,,,,,decisionTrl,resources/DBN.BMP,resources/DP.BMP,Door2,0.206481481,-0.080555556,1,0,0,2.5013,optionRight,20,4155,2,33,0,33,0,1,,,,,,,,,,,,,,,,,,,,,,,,,,,,,,,,,,,,,,,
,,,,,,,,2023-08-06_08h21.41.686,HF_wild_card,2022.2.4,Win32,59.97720866,5fbe45eab09bc501700e1c46,64ce5acb97489d65b14ecc7a,64cf49f3d35b7aeaf7852cc0,,,,,,,decisionTrl,resources/DBN.BMP,resources/DR.BMP,WildCard_NonEx,0.231481481,-0.066666667,1,0,0,2.5682,optionRight,55,4210,2,34,0,34,0,1,,,,,,,,,,,,,,,,,,,,,,,,,,,,,,,,,,,,,,,
,,,,,,,,2023-08-06_08h21.41.686,HF_wild_card,2022.2.4,Win32,59.97720866,5fbe45eab09bc501700e1c46,64ce5acb97489d65b14ecc7a,64cf49f3d35b7aeaf7852cc0,,,,,,,decisionTrl,resources/DR.BMP,resources/DB.BMP,Door3,0.172222222,-0.108333333,1,0,0,1.4683,optionRight,70,4280,2,35,0,35,0,1,,,,,,,,,,,,,,,,,,,,,,,,,,,,,,,,,,,,,,,
,,,,,,,,2023-08-06_08h21.41.686,HF_wild_card,2022.2.4,Win32,59.97720866,5fbe45eab09bc501700e1c46,64ce5acb97489d65b14ecc7a,64cf49f3d35b7aeaf7852cc0,,,,,,,sngl,resources/DP.BMP,resources/Empty.png,Door2,-0.294444444,-0.168518519,1,0,0,1.3493,optionLeft,20,4300,2,36,0,36,0,1,,,,,,,,,,,,,,,,,,,,,,,,,,,,,,,,,,,,,,,
,,,,,,,,2023-08-06_08h21.41.686,HF_wild_card,2022.2.4,Win32,59.97720866,5fbe45eab09bc501700e1c46,64ce5acb97489d65b14ecc7a,64cf49f3d35b7aeaf7852cc0,,,,,,,sngl,resources/DR.BMP,resources/Empty.png,WildCard_NonEx,-0.266666667,-0.102777778,1,0,0,1.3671,optionLeft,55,4355,2,37,0,37,0,1,,,,,,,,,,,,,,,,,,,,,,,,,,,,,,,,,,,,,,,
,,,,,,,,2023-08-06_08h21.41.686,HF_wild_card,2022.2.4,Win32,59.97720866,5fbe45eab09bc501700e1c46,64ce5acb97489d65b14ecc7a,64cf49f3d35b7aeaf7852cc0,,,,,,,sngl,resources/Empty.png,resources/DR.BMP,WildCard_NonEx,0.350925926,-0.092592593,1,0,0,1.1012,optionRight,45,4400,2,38,0,38,0,1,,,,,,,,,,,,,,,,,,,,,,,,,,,,,,,,,,,,,,,
,,,,,,,,2023-08-06_08h21.41.686,HF_wild_card,2022.2.4,Win32,59.97720866,5fbe45eab09bc501700e1c46,64ce5acb97489d65b14ecc7a,64cf49f3d35b7aeaf7852cc0,,,,,,,decisionTrl,resources/DB.BMP,resources/DG.BMP,Door4,0.183333333,-0.101851852,1,0,0,2.0833,optionRight,80,4480,2,39,0,39,0,1,,,,,,,,,,,,,,,,,,,,,,,,,,,,,,,,,,,,,,,
,,,,,,,,2023-08-06_08h21.41.686,HF_wild_card,2022.2.4,Win32,59.97720866,5fbe45eab09bc501700e1c46,64ce5acb97489d65b14ecc7a,64cf49f3d35b7aeaf7852cc0,,,,,,,sngl,resources/DR.BMP,resources/Empty.png,WildCard_NonEx,-0.431481481,-0.10462963,1,0,0,1.3336,optionLeft,45,4525,2,40,0,40,0,1,,,,,,,,,,,,,,,,,,,,,,,,,,,,,,,,,,,,,,,
,,,,,,,,2023-08-06_08h21.41.686,HF_wild_card,2022.2.4,Win32,59.97720866,5fbe45eab09bc501700e1c46,64ce5acb97489d65b14ecc7a,64cf49f3d35b7aeaf7852cc0,,,,,,,decisionTrl,resources/DB.BMP,resources/DG.BMP,Door4,0.130555556,-0.058333333,1,0,0,1.9165,optionRight,80,4605,2,41,0,41,0,1,,,,,,,,,,,,,,,,,,,,,,,,,,,,,,,,,,,,,,,
,,,,,,,,2023-08-06_08h21.41.686,HF_wild_card,2022.2.4,Win32,59.97720866,5fbe45eab09bc501700e1c46,64ce5acb97489d65b14ecc7a,64cf49f3d35b7aeaf7852cc0,,,,,,,decisionTrl,resources/DBN.BMP,resources/DP.BMP,Door1,-0.278703704,-0.122222222,1,0,0,2.568,optionLeft,30,4635,2,42,0,42,0,1,,,,,,,,,,,,,,,,,,,,,,,,,,,,,,,,,,,,,,,
,,,,,,,,2023-08-06_08h21.41.686,HF_wild_card,2022.2.4,Win32,59.97720866,5fbe45eab09bc501700e1c46,64ce5acb97489d65b14ecc7a,64cf49f3d35b7aeaf7852cc0,,,,,,,sngl,resources/DB.BMP,resources/Empty.png,Door3,-0.217592593,-0.085185185,1,0,0,1.15,optionLeft,70,4705,2,43,0,43,0,1,,,,,,,,,,,,,,,,,,,,,,,,,,,,,,,,,,,,,,,
,,,,,,,,2023-08-06_08h21.41.686,HF_wild_card,2022.2.4,Win32,59.97720866,5fbe45eab09bc501700e1c46,64ce5acb97489d65b14ecc7a,64cf49f3d35b7aeaf7852cc0,,,,,,,,,,,,,,,,,,,,,,,,,,1,0,1,0,1,,,,,,,,,,,,,,,,,,,,,,,,,,,,,,,,,,
,,,,,,,,2023-08-06_08h21.41.686,HF_wild_card,2022.2.4,Win32,59.97720866,5fbe45eab09bc501700e1c46,64ce5acb97489d65b14ecc7a,64cf49f3d35b7aeaf7852cc0,,,,,,,decisionTrl,resources/DBN.BMP,resources/DR.BMP,WildCard_NonEx,0.373148148,-0.068518519,1,0,0,2.2458,optionRight,45,4750,3,0,0,0,0,1,,,,,,,,,,,,,,,,,,,,,,,,,,,,,,,,,,,,,,,
,,,,,,,,2023-08-06_08h21.41.686,HF_wild_card,2022.2.4,Win32,59.97720866,5fbe45eab09bc501700e1c46,64ce5acb97489d65b14ecc7a,64cf49f3d35b7aeaf7852cc0,,,,,,,decisionTrl,resources/DG.BMP,resources/DR.BMP,Door4,-0.436111111,-0.139814815,1,0,0,2.2001,optionLeft,80,4830,3,1,0,1,0,1,,,,,,,,,,,,,,,,,,,,,,,,,,,,,,,,,,,,,,,
,,,,,,,,2023-08-06_08h21.41.686,HF_wild_card,2022.2.4,Win32,59.97720866,5fbe45eab09bc501700e1c46,64ce5acb97489d65b14ecc7a,64cf49f3d35b7aeaf7852cc0,,,,,,,sngl,resources/DBN.BMP,resources/Empty.png,Door1,-0.257407407,-0.04537037,1,0,0,1.5518,optionLeft,30,4860,3,2,0,2,0,1,,,,,,,,,,,,,,,,,,,,,,,,,,,,,,,,,,,,,,,
,,,,,,,,2023-08-06_08h21.41.686,HF_wild_card,2022.2.4,Win32,59.97720866,5fbe45eab09bc501700e1c46,64ce5acb97489d65b14ecc7a,64cf49f3d35b7aeaf7852cc0,,,,,,,decisionTrl,resources/DG.BMP,resources/DB.BMP,Door4,-0.207407407,-0.073148148,1,0,0,2.1009,optionLeft,60,4920,3,3,0,3,0,1,,,,,,,,,,,,,,,,,,,,,,,,,,,,,,,,,,,,,,,
,,,,,,,,2023-08-06_08h21.41.686,HF_wild_card,2022.2.4,Win32,59.97720866,5fbe45eab09bc501700e1c46,64ce5acb97489d65b14ecc7a,64cf49f3d35b7aeaf7852cc0,,,,,,,decisionTrl,resources/DBN.BMP,resources/DP.BMP,Door1,-0.29537037,-0.092592593,1,0,0,4.203,optionLeft,30,4950,3,4,0,4,0,1,,,,,,,,,,,,,,,,,,,,,,,,,,,,,,,,,,,,,,,
,,,,,,,,2023-08-06_08h21.41.686,HF_wild_card,2022.2.4,Win32,59.97720866,5fbe45eab09bc501700e1c46,64ce5acb97489d65b14ecc7a,64cf49f3d35b7aeaf7852cc0,,,,,,,sngl,resources/DB.BMP,resources/Empty.png,Door3,-0.287037037,-0.065740741,1,0,0,1.0344,optionLeft,70,5020,3,5,0,5,0,1,,,,,,,,,,,,,,,,,,,,,,,,,,,,,,,,,,,,,,,
,,,,,,,,2023-08-06_08h21.41.686,HF_wild_card,2022.2.4,Win32,59.97720866,5fbe45eab09bc501700e1c46,64ce5acb97489d65b14ecc7a,64cf49f3d35b7aeaf7852cc0,,,,,,,sngl,resources/Empty.png,resources/DBN.BMP,Door1,0.161111111,-0.034259259,1,0,0,1.368,optionRight,30,5050,3,6,0,6,0,1,,,,,,,,,,,,,,,,,,,,,,,,,,,,,,,,,,,,,,,
,,,,,,,,2023-08-06_08h21.41.686,HF_wild_card,2022.2.4,Win32,59.97720866,5fbe45eab09bc501700e1c46,64ce5acb97489d65b14ecc7a,64cf49f3d35b7aeaf7852cc0,,,,,,,ctch,resources/DBN.BMP,resources/DG.BMP,Door4,0.141666667,-0.05462963,1,0,0,2.4349,optionRight,80,5130,3,7,0,7,0,1,,,,,,,,,,,,,,,,,,,,,,,,,,,,,,,,,,,,,,,
,,,,,,,,2023-08-06_08h21.41.686,HF_wild_card,2022.2.4,Win32,59.97720866,5fbe45eab09bc501700e1c46,64ce5acb97489d65b14ecc7a,64cf49f3d35b7aeaf7852cc0,,,,,,,sngl,resources/Empty.png,resources/DB.BMP,Door3,0.207407407,-0.071296296,1,0,0,1.0165,optionRight,70,5200,3,8,0,8,0,1,,,,,,,,,,,,,,,,,,,,,,,,,,,,,,,,,,,,,,,
,,,,,,,,2023-08-06_08h21.41.686,HF_wild_card,2022.2.4,Win32,59.97720866,5fbe45eab09bc501700e1c46,64ce5acb97489d65b14ecc7a,64cf49f3d35b7aeaf7852cc0,,,,,,,ctch,resources/DP.BMP,resources/DB.BMP,Door3,0.298148148,-0.055555556,1,0,0,1.3682,optionRight,70,5270,3,9,0,9,0,1,,,,,,,,,,,,,,,,,,,,,,,,,,,,,,,,,,,,,,,
,,,,,,,,2023-08-06_08h21.41.686,HF_wild_card,2022.2.4,Win32,59.97720866,5fbe45eab09bc501700e1c46,64ce5acb97489d65b14ecc7a,64cf49f3d35b7aeaf7852cc0,,,,,,,ctch,resources/DG.BMP,resources/DBN.BMP,Door4,-0.286111111,-0.073148148,1,0,0,1.4171,optionLeft,60,5330,3,10,0,10,0,1,,,,,,,,,,,,,,,,,,,,,,,,,,,,,,,,,,,,,,,
,,,,,,,,2023-08-06_08h21.41.686,HF_wild_card,2022.2.4,Win32,59.97720866,5fbe45eab09bc501700e1c46,64ce5acb97489d65b14ecc7a,64cf49f3d35b7aeaf7852cc0,,,,,,,decisionTrl,resources/DP.BMP,resources/DBN.BMP,Door1,0.163888889,-0.042592593,1,0,0,2.0176,optionRight,30,5360,3,11,0,11,0,1,,,,,,,,,,,,,,,,,,,,,,,,,,,,,,,,,,,,,,,
,,,,,,,,2023-08-06_08h21.41.686,HF_wild_card,2022.2.4,Win32,59.97720866,5fbe45eab09bc501700e1c46,64ce5acb97489d65b14ecc7a,64cf49f3d35b7aeaf7852cc0,,,,,,,ctch,resources/DB.BMP,resources/DP.BMP,Door3,-0.307407407,-0.132407407,1,0,0,1.2002,optionLeft,70,5430,3,12,0,12,0,1,,,,,,,,,,,,,,,,,,,,,,,,,,,,,,,,,,,,,,,
,,,,,,,,2023-08-06_08h21.41.686,HF_wild_card,2022.2.4,Win32,59.97720866,5fbe45eab09bc501700e1c46,64ce5acb97489d65b14ecc7a,64cf49f3d35b7aeaf7852cc0,,,,,,,decisionTrl,resources/DB.BMP,resources/DG.BMP,Door4,0.206481481,-0.065740741,1,0,0,2.6015,optionRight,60,5490,3,13,0,13,0,1,,,,,,,,,,,,,,,,,,,,,,,,,,,,,,,,,,,,,,,
,,,,,,,,2023-08-06_08h21.41.686,HF_wild_card,2022.2.4,Win32,59.97720866,5fbe45eab09bc501700e1c46,64ce5acb97489d65b14ecc7a,64cf49f3d35b7aeaf7852cc0,,,,,,,sngl,resources/DP.BMP,resources/Empty.png,Door2,-0.29537037,-0.086111111,1,0,0,1.4171,optionLeft,40,5530,3,14,0,14,0,1,,,,,,,,,,,,,,,,,,,,,,,,,,,,,,,,,,,,,,,
,,,,,,,,2023-08-06_08h21.41.686,HF_wild_card,2022.2.4,Win32,59.97720866,5fbe45eab09bc501700e1c46,64ce5acb97489d65b14ecc7a,64cf49f3d35b7aeaf7852cc0,,,,,,,decisionTrl,resources/DB.BMP,resources/DG.BMP,Door3,-0.226851852,-0.09537037,1,0,0,3.0519,optionLeft,70,5600,3,15,0,15,0,1,,,,,,,,,,,,,,,,,,,,,,,,,,,,,,,,,,,,,,,
,,,,,,,,2023-08-06_08h21.41.686,HF_wild_card,2022.2.4,Win32,59.97720866,5fbe45eab09bc501700e1c46,64ce5acb97489d65b14ecc7a,64cf49f3d35b7aeaf7852cc0,,,,,,,ctch,resources/DBN.BMP,resources/DG.BMP,Door4,0.163888889,-0.086111111,1,0,0,1.7353,optionRight,60,5660,3,16,0,16,0,1,,,,,,,,,,,,,,,,,,,,,,,,,,,,,,,,,,,,,,,
,,,,,,,,2023-08-06_08h21.41.686,HF_wild_card,2022.2.4,Win32,59.97720866,5fbe45eab09bc501700e1c46,64ce5acb97489d65b14ecc7a,64cf49f3d35b7aeaf7852cc0,,,,,,,decisionTrl,resources/DB.BMP,resources/DG.BMP,Door3,-0.190740741,-0.087962963,1,0,0,1.6672,optionLeft,70,5730,3,17,0,17,0,1,,,,,,,,,,,,,,,,,,,,,,,,,,,,,,,,,,,,,,,
,,,,,,,,2023-08-06_08h21.41.686,HF_wild_card,2022.2.4,Win32,59.97720866,5fbe45eab09bc501700e1c46,64ce5acb97489d65b14ecc7a,64cf49f3d35b7aeaf7852cc0,,,,,,,decisionTrl,resources/DG.BMP,resources/DB.BMP,Door3,0.206481481,-0.052777778,1,0,0,1.7686,optionRight,70,5800,3,18,0,18,0,1,,,,,,,,,,,,,,,,,,,,,,,,,,,,,,,,,,,,,,,
,,,,,,,,2023-08-06_08h21.41.686,HF_wild_card,2022.2.4,Win32,59.97720866,5fbe45eab09bc501700e1c46,64ce5acb97489d65b14ecc7a,64cf49f3d35b7aeaf7852cc0,,,,,,,decisionTrl,resources/DP.BMP,resources/DR.BMP,WildCard_NonEx,0.266666667,-0.074074074,1,0,0,4.8859,optionRight,55,5855,3,19,0,19,0,1,,,,,,,,,,,,,,,,,,,,,,,,,,,,,,,,,,,,,,,
,,,,,,,,2023-08-06_08h21.41.686,HF_wild_card,2022.2.4,Win32,59.97720866,5fbe45eab09bc501700e1c46,64ce5acb97489d65b14ecc7a,64cf49f3d35b7aeaf7852cc0,,,,,,,sngl,resources/DR.BMP,resources/Empty.png,WildCard_NonEx,-0.215740741,-0.066666667,1,0,0,1.1,optionLeft,45,5900,3,20,0,20,0,1,,,,,,,,,,,,,,,,,,,,,,,,,,,,,,,,,,,,,,,
,,,,,,,,2023-08-06_08h21.41.686,HF_wild_card,2022.2.4,Win32,59.97720866,5fbe45eab09bc501700e1c46,64ce5acb97489d65b14ecc7a,64cf49f3d35b7aeaf7852cc0,,,,,,,decisionTrl,resources/DG.BMP,resources/DB.BMP,Door4,-0.165740741,-0.084259259,1,0,0,2.38,optionLeft,80,5980,3,21,0,21,0,1,,,,,,,,,,,,,,,,,,,,,,,,,,,,,,,,,,,,,,,
,,,,,,,,2023-08-06_08h21.41.686,HF_wild_card,2022.2.4,Win32,59.97720866,5fbe45eab09bc501700e1c46,64ce5acb97489d65b14ecc7a,64cf49f3d35b7aeaf7852cc0,,,,,,,sngl,resources/Empty.png,resources/DR.BMP,WildCard_NonEx,0.249074074,-0.038888889,1,0,0,1.5504,optionRight,45,6025,3,22,0,22,0,1,,,,,,,,,,,,,,,,,,,,,,,,,,,,,,,,,,,,,,,
,,,,,,,,2023-08-06_08h21.41.686,HF_wild_card,2022.2.4,Win32,59.97720866,5fbe45eab09bc501700e1c46,64ce5acb97489d65b14ecc7a,64cf49f3d35b7aeaf7852cc0,,,,,,,decisionTrl,resources/DR.BMP,resources/DP.BMP,Door2,0.205555556,-0.04537037,1,0,0,3.5799,optionRight,40,6065,3,23,0,23,0,1,,,,,,,,,,,,,,,,,,,,,,,,,,,,,,,,,,,,,,,
,,,,,,,,2023-08-06_08h21.41.686,HF_wild_card,2022.2.4,Win32,59.97720866,5fbe45eab09bc501700e1c46,64ce5acb97489d65b14ecc7a,64cf49f3d35b7aeaf7852cc0,,,,,,,decisionTrl,resources/DP.BMP,resources/DBN.BMP,Door2,-0.250925926,-0.084259259,1,0,0,2.53,optionLeft,40,6105,3,24,0,24,0,1,,,,,,,,,,,,,,,,,,,,,,,,,,,,,,,,,,,,,,,
,,,,,,,,2023-08-06_08h21.41.686,HF_wild_card,2022.2.4,Win32,59.97720866,5fbe45eab09bc501700e1c46,64ce5acb97489d65b14ecc7a,64cf49f3d35b7aeaf7852cc0,,,,,,,ctch,resources/DB.BMP,resources/DP.BMP,Door3,-0.223148148,-0.084259259,1,0,0,1.4837,optionLeft,70,6175,3,25,0,25,0,1,,,,,,,,,,,,,,,,,,,,,,,,,,,,,,,,,,,,,,,
,,,,,,,,2023-08-06_08h21.41.686,HF_wild_card,2022.2.4,Win32,59.97720866,5fbe45eab09bc501700e1c46,64ce5acb97489d65b14ecc7a,64cf49f3d35b7aeaf7852cc0,,,,,,,ctch,resources/DP.BMP,resources/DB.BMP,Door3,0.12037037,0.000925926,1,0,0,1.4005,optionRight,70,6245,3,26,0,26,0,1,,,,,,,,,,,,,,,,,,,,,,,,,,,,,,,,,,,,,,,
,,,,,,,,2023-08-06_08h21.41.686,HF_wild_card,2022.2.4,Win32,59.97720866,5fbe45eab09bc501700e1c46,64ce5acb97489d65b14ecc7a,64cf49f3d35b7aeaf7852cc0,,,,,,,sngl,resources/Empty.png,resources/DG.BMP,Door4,0.248148148,-0.001851852,1,0,0,1.7114,optionRight,60,6305,3,27,0,27,0,1,,,,,,,,,,,,,,,,,,,,,,,,,,,,,,,,,,,,,,,
,,,,,,,,2023-08-06_08h21.41.686,HF_wild_card,2022.2.4,Win32,59.97720866,5fbe45eab09bc501700e1c46,64ce5acb97489d65b14ecc7a,64cf49f3d35b7aeaf7852cc0,,,,,,,ctch,resources/DG.BMP,resources/DBN.BMP,Door4,-0.287037037,-0.137037037,1,0,0,1.1845,optionLeft,60,6365,3,28,0,28,0,1,,,,,,,,,,,,,,,,,,,,,,,,,,,,,,,,,,,,,,,
,,,,,,,,2023-08-06_08h21.41.686,HF_wild_card,2022.2.4,Win32,59.97720866,5fbe45eab09bc501700e1c46,64ce5acb97489d65b14ecc7a,64cf49f3d35b7aeaf7852cc0,,,,,,,sngl,resources/DR.BMP,resources/Empty.png,WildCard_NonEx,-0.319444444,-0.099074074,1,0,0,1.3335,optionLeft,55,6420,3,29,0,29,0,1,,,,,,,,,,,,,,,,,,,,,,,,,,,,,,,,,,,,,,,
,,,,,,,,2023-08-06_08h21.41.686,HF_wild_card,2022.2.4,Win32,59.97720866,5fbe45eab09bc501700e1c46,64ce5acb97489d65b14ecc7a,64cf49f3d35b7aeaf7852cc0,,,,,,,sngl,resources/DG.BMP,resources/Empty.png,Door4,-0.361111111,-0.106481481,1,0,0,1.3016,optionLeft,80,6500,3,30,0,30,0,1,,,,,,,,,,,,,,,,,,,,,,,,,,,,,,,,,,,,,,,
,,,,,,,,2023-08-06_08h21.41.686,HF_wild_card,2022.2.4,Win32,59.97720866,5fbe45eab09bc501700e1c46,64ce5acb97489d65b14ecc7a,64cf49f3d35b7aeaf7852cc0,,,,,,,sngl,resources/Empty.png,resources/DR.BMP,WildCard_NonEx,0.253703704,0.013888889,1,0,0,1.6504,optionRight,55,6555,3,31,0,31,0,1,,,,,,,,,,,,,,,,,,,,,,,,,,,,,,,,,,,,,,,
,,,,,,,,2023-08-06_08h21.41.686,HF_wild_card,2022.2.4,Win32,59.97720866,5fbe45eab09bc501700e1c46,64ce5acb97489d65b14ecc7a,64cf49f3d35b7aeaf7852cc0,,,,,,,decisionTrl,resources/DR.BMP,resources/DG.BMP,Door4,0.110185185,0.02037037,1,0,0,1.3495,optionRight,60,6615,3,32,0,32,0,1,,,,,,,,,,,,,,,,,,,,,,,,,,,,,,,,,,,,,,,
,,,,,,,,2023-08-06_08h21.41.686,HF_wild_card,2022.2.4,Win32,59.97720866,5fbe45eab09bc501700e1c46,64ce5acb97489d65b14ecc7a,64cf49f3d35b7aeaf7852cc0,,,,,,,decisionTrl,resources/DBN.BMP,resources/DP.BMP,Door2,0.296296296,0.023148148,1,0,0,2.8685,optionRight,40,6655,3,33,0,33,0,1,,,,,,,,,,,,,,,,,,,,,,,,,,,,,,,,,,,,,,,
,,,,,,,,2023-08-06_08h21.41.686,HF_wild_card,2022.2.4,Win32,59.97720866,5fbe45eab09bc501700e1c46,64ce5acb97489d65b14ecc7a,64cf49f3d35b7aeaf7852cc0,,,,,,,decisionTrl,resources/DP.BMP,resources/DBN.BMP,Door2,-0.32037037,-0.07037037,1,0,0,1.3658,optionLeft,20,6675,3,34,0,34,0,1,,,,,,,,,,,,,,,,,,,,,,,,,,,,,,,,,,,,,,,
,,,,,,,,2023-08-06_08h21.41.686,HF_wild_card,2022.2.4,Win32,59.97720866,5fbe45eab09bc501700e1c46,64ce5acb97489d65b14ecc7a,64cf49f3d35b7aeaf7852cc0,,,,,,,decisionTrl,resources/DR.BMP,resources/DBN.BMP,WildCard_NonEx,-0.322222222,-0.061111111,1,0,0,1.2169,optionLeft,55,6730,3,35,0,35,0,1,,,,,,,,,,,,,,,,,,,,,,,,,,,,,,,,,,,,,,,
,,,,,,,,2023-08-06_08h21.41.686,HF_wild_card,2022.2.4,Win32,59.97720866,5fbe45eab09bc501700e1c46,64ce5acb97489d65b14ecc7a,64cf49f3d35b7aeaf7852cc0,,,,,,,decisionTrl,resources/DBN.BMP,resources/DP.BMP,Door1,-0.271296296,-0.02962963,1,0,0,3.1855,optionLeft,30,6760,3,36,0,36,0,1,,,,,,,,,,,,,,,,,,,,,,,,,,,,,,,,,,,,,,,
,,,,,,,,2023-08-06_08h21.41.686,HF_wild_card,2022.2.4,Win32,59.97720866,5fbe45eab09bc501700e1c46,64ce5acb97489d65b14ecc7a,64cf49f3d35b7aeaf7852cc0,,,,,,,decisionTrl,resources/DB.BMP,resources/DR.BMP,Door3,-0.311111111,-0.071296296,1,0,0,1.6002,optionLeft,70,6830,3,37,0,37,0,1,,,,,,,,,,,,,,,,,,,,,,,,,,,,,,,,,,,,,,,
,,,,,,,,2023-08-06_08h21.41.686,HF_wild_card,2022.2.4,Win32,59.97720866,5fbe45eab09bc501700e1c46,64ce5acb97489d65b14ecc7a,64cf49f3d35b7aeaf7852cc0,,,,,,,decisionTrl,resources/DP.BMP,resources/DBN.BMP,Door2,-0.184259259,-0.068518519,1,0,0,4.1521,optionLeft,20,6850,3,38,0,38,0,1,,,,,,,,,,,,,,,,,,,,,,,,,,,,,,,,,,,,,,,
,,,,,,,,2023-08-06_08h21.41.686,HF_wild_card,2022.2.4,Win32,59.97720866,5fbe45eab09bc501700e1c46,64ce5acb97489d65b14ecc7a,64cf49f3d35b7aeaf7852cc0,,,,,,,sngl,resources/Empty.png,resources/DP.BMP,Door2,0.363888889,0.025925926,1,0,0,1.4848,optionRight,20,6870,3,39,0,39,0,1,,,,,,,,,,,,,,,,,,,,,,,,,,,,,,,,,,,,,,,
,,,,,,,,2023-08-06_08h21.41.686,HF_wild_card,2022.2.4,Win32,59.97720866,5fbe45eab09bc501700e1c46,64ce5acb97489d65b14ecc7a,64cf49f3d35b7aeaf7852cc0,,,,,,,decisionTrl,resources/DB.BMP,resources/DG.BMP,Door3,-0.250925926,-0.058333333,1,0,0,3.9697,optionLeft,70,6940,3,40,0,40,0,1,,,,,,,,,,,,,,,,,,,,,,,,,,,,,,,,,,,,,,,
,,,,,,,,2023-08-06_08h21.41.686,HF_wild_card,2022.2.4,Win32,59.97720866,5fbe45eab09bc501700e1c46,64ce5acb97489d65b14ecc7a,64cf49f3d35b7aeaf7852cc0,,,,,,,decisionTrl,resources/DG.BMP,resources/DB.BMP,Door3,0.17962963,0.005555556,1,0,0,1.5003,optionRight,70,7010,3,41,0,41,0,1,,,,,,,,,,,,,,,,,,,,,,,,,,,,,,,,,,,,,,,
,,,,,,,,2023-08-06_08h21.41.686,HF_wild_card,2022.2.4,Win32,59.97720866,5fbe45eab09bc501700e1c46,64ce5acb97489d65b14ecc7a,64cf49f3d35b7aeaf7852cc0,,,,,,,decisionTrl,resources/DR.BMP,resources/DB.BMP,Door3,0.17037037,-0.010185185,1,0,0,1.5519,optionRight,70,7080,3,42,0,42,0,1,,,,,,,,,,,,,,,,,,,,,,,,,,,,,,,,,,,,,,,
,,,,,,,,2023-08-06_08h21.41.686,HF_wild_card,2022.2.4,Win32,59.97720866,5fbe45eab09bc501700e1c46,64ce5acb97489d65b14ecc7a,64cf49f3d35b7aeaf7852cc0,,,,,,,decisionTrl,resources/DBN.BMP,resources/DP.BMP,Door1,-0.215740741,-0.078703704,1,0,0,2.0024,optionLeft,30,7110,3,43,0,43,0,1,,,,,,,,,,,,,,,,,,,,,,,,,,,,,,,,,,,,,,,
,,,,,,,,2023-08-06_08h21.41.686,HF_wild_card,2022.2.4,Win32,59.97720866,5fbe45eab09bc501700e1c46,64ce5acb97489d65b14ecc7a,64cf49f3d35b7aeaf7852cc0,,,,,,,,,,,,,,,,,,,,,,,,,,2,0,2,0,1,,,,,,,,,,,,,,,,,,,,,,,,,,,,,,,,,,
,,,,,,,,2023-08-06_08h21.41.686,HF_wild_card,2022.2.4,Win32,59.97720866,5fbe45eab09bc501700e1c46,64ce5acb97489d65b14ecc7a,64cf49f3d35b7aeaf7852cc0,,,,,,,sngl,resources/Empty.png,resources/DP.BMP,Door2,0.24537037,-0.264814815,1,0,0,2.3303,optionRight,40,7150,4,0,0,0,0,1,,,,,,,,,,,,,,,,,,,,,,,,,,,,,,,,,,,,,,,
,,,,,,,,2023-08-06_08h21.41.686,HF_wild_card,2022.2.4,Win32,59.97720866,5fbe45eab09bc501700e1c46,64ce5acb97489d65b14ecc7a,64cf49f3d35b7aeaf7852cc0,,,,,,,decisionTrl,resources/DB.BMP,resources/DY.BMP,Door3,-0.358333333,-0.061111111,1,0,0,1.0333,optionLeft,70,7220,4,1,0,1,0,1,,,,,,,,,,,,,,,,,,,,,,,,,,,,,,,,,,,,,,,
,,,,,,,,2023-08-06_08h21.41.686,HF_wild_card,2022.2.4,Win32,59.97720866,5fbe45eab09bc501700e1c46,64ce5acb97489d65b14ecc7a,64cf49f3d35b7aeaf7852cc0,,,,,,,decisionTrl,resources/DP.BMP,resources/DBN.BMP,Door1,0.288888889,-0.116666667,1,0,0,2.251,optionRight,30,7250,4,2,0,2,0,1,,,,,,,,,,,,,,,,,,,,,,,,,,,,,,,,,,,,,,,
,,,,,,,,2023-08-06_08h21.41.686,HF_wild_card,2022.2.4,Win32,59.97720866,5fbe45eab09bc501700e1c46,64ce5acb97489d65b14ecc7a,64cf49f3d35b7aeaf7852cc0,,,,,,,decisionTrl,resources/DG.BMP,resources/DB.BMP,Door4,-0.200925926,-0.07962963,1,0,0,1.8173,optionLeft,60,7310,4,3,0,3,0,1,,,,,,,,,,,,,,,,,,,,,,,,,,,,,,,,,,,,,,,
,,,,,,,,2023-08-06_08h21.41.686,HF_wild_card,2022.2.4,Win32,59.97720866,5fbe45eab09bc501700e1c46,64ce5acb97489d65b14ecc7a,64cf49f3d35b7aeaf7852cc0,,,,,,,decisionTrl,resources/DG.BMP,resources/DY.BMP,WildCard_Ex,0.234259259,-0.166666667,1,0,0,3.1687,optionRight,55,7365,4,4,0,4,0,1,,,,,,,,,,,,,,,,,,,,,,,,,,,,,,,,,,,,,,,
,,,,,,,,2023-08-06_08h21.41.686,HF_wild_card,2022.2.4,Win32,59.97720866,5fbe45eab09bc501700e1c46,64ce5acb97489d65b14ecc7a,64cf49f3d35b7aeaf7852cc0,,,,,,,sngl,resources/DY.BMP,resources/Empty.png,WildCard_Ex,-0.242592593,-0.085185185,1,0,0,1.1289,optionLeft,55,7420,4,5,0,5,0,1,,,,,,,,,,,,,,,,,,,,,,,,,,,,,,,,,,,,,,,
,,,,,,,,2023-08-06_08h21.41.686,HF_wild_card,2022.2.4,Win32,59.97720866,5fbe45eab09bc501700e1c46,64ce5acb97489d65b14ecc7a,64cf49f3d35b7aeaf7852cc0,,,,,,,ctch,resources/DP.BMP,resources/DB.BMP,Door3,0.307407407,-0.119444444,1,0,0,1.2669,optionRight,70,7490,4,6,0,6,0,1,,,,,,,,,,,,,,,,,,,,,,,,,,,,,,,,,,,,,,,
,,,,,,,,2023-08-06_08h21.41.686,HF_wild_card,2022.2.4,Win32,59.97720866,5fbe45eab09bc501700e1c46,64ce5acb97489d65b14ecc7a,64cf49f3d35b7aeaf7852cc0,,,,,,,ctch,resources/DBN.BMP,resources/DG.BMP,Door4,0.217592593,-0.117592593,1,0,0,2.8686,optionRight,80,7570,4,7,0,7,0,1,,,,,,,,,,,,,,,,,,,,,,,,,,,,,,,,,,,,,,,
,,,,,,,,2023-08-06_08h21.41.686,HF_wild_card,2022.2.4,Win32,59.97720866,5fbe45eab09bc501700e1c46,64ce5acb97489d65b14ecc7a,64cf49f3d35b7aeaf7852cc0,,,,,,,sngl,resources/DY.BMP,resources/Empty.png,WildCard_Ex,-0.257407407,-0.083333333,1,0,0,1.299,optionLeft,45,7615,4,8,0,8,0,1,,,,,,,,,,,,,,,,,,,,,,,,,,,,,,,,,,,,,,,
,,,,,,,,2023-08-06_08h21.41.686,HF_wild_card,2022.2.4,Win32,59.97720866,5fbe45eab09bc501700e1c46,64ce5acb97489d65b14ecc7a,64cf49f3d35b7aeaf7852cc0,,,,,,,decisionTrl,resources/DB.BMP,resources/DG.BMP,Door3,-0.162962963,-0.040740741,1,0,0,1.7007,optionLeft,70,7685,4,9,0,9,0,1,,,,,,,,,,,,,,,,,,,,,,,,,,,,,,,,,,,,,,,
,,,,,,,,2023-08-06_08h21.41.686,HF_wild_card,2022.2.4,Win32,59.97720866,5fbe45eab09bc501700e1c46,64ce5acb97489d65b14ecc7a,64cf49f3d35b7aeaf7852cc0,,,,,,,ctch,resources/DBN.BMP,resources/DG.BMP,Door4,0.237962963,-0.071296296,1,0,0,1.385,optionRight,60,7745,4,10,0,10,0,1,,,,,,,,,,,,,,,,,,,,,,,,,,,,,,,,,,,,,,,
,,,,,,,,2023-08-06_08h21.41.686,HF_wild_card,2022.2.4,Win32,59.97720866,5fbe45eab09bc501700e1c46,64ce5acb97489d65b14ecc7a,64cf49f3d35b7aeaf7852cc0,,,,,,,sngl,resources/Empty.png,resources/DY.BMP,WildCard_Ex,0.166666667,-0.066666667,1,0,0,1.1657,optionRight,45,7790,4,11,0,11,0,1,,,,,,,,,,,,,,,,,,,,,,,,,,,,,,,,,,,,,,,
,,,,,,,,2023-08-06_08h21.41.686,HF_wild_card,2022.2.4,Win32,59.97720866,5fbe45eab09bc501700e1c46,64ce5acb97489d65b14ecc7a,64cf49f3d35b7aeaf7852cc0,,,,,,,sngl,resources/Empty.png,resources/DBN.BMP,Door1,0.160185185,-0.086111111,1,0,0,1.4671,optionRight,30,7820,4,12,0,12,0,1,,,,,,,,,,,,,,,,,,,,,,,,,,,,,,,,,,,,,,,
,,,,,,,,2023-08-06_08h21.41.686,HF_wild_card,2022.2.4,Win32,59.97720866,5fbe45eab09bc501700e1c46,64ce5acb97489d65b14ecc7a,64cf49f3d35b7aeaf7852cc0,,,,,,,decisionTrl,resources/DB.BMP,resources/DG.BMP,Door3,-0.165740741,-0.05462963,1,0,0,3.3675,optionLeft,70,7890,4,13,0,13,0,1,,,,,,,,,,,,,,,,,,,,,,,,,,,,,,,,,,,,,,,
,,,,,,,,2023-08-06_08h21.41.686,HF_wild_card,2022.2.4,Win32,59.97720866,5fbe45eab09bc501700e1c46,64ce5acb97489d65b14ecc7a,64cf49f3d35b7aeaf7852cc0,,,,,,,ctch,resources/DB.BMP,resources/DP.BMP,Door3,-0.198148148,-0.05462963,1,0,0,1.217,optionLeft,70,7960,4,14,0,14,0,1,,,,,,,,,,,,,,,,,,,,,,,,,,,,,,,,,,,,,,,
,,,,,,,,2023-08-06_08h21.41.686,HF_wild_card,2022.2.4,Win32,59.97720866,5fbe45eab09bc501700e1c46,64ce5acb97489d65b14ecc7a,64cf49f3d35b7aeaf7852cc0,,,,,,,sngl,resources/Empty.png,resources/DG.BMP,Door4,0.178703704,-0.069444444,1,0,0,1.1501,optionRight,80,8040,4,15,0,15,0,1,,,,,,,,,,,,,,,,,,,,,,,,,,,,,,,,,,,,,,,
,,,,,,,,2023-08-06_08h21.41.686,HF_wild_card,2022.2.4,Win32,59.97720866,5fbe45eab09bc501700e1c46,64ce5acb97489d65b14ecc7a,64cf49f3d35b7aeaf7852cc0,,,,,,,decisionTrl,resources/DG.BMP,resources/DB.BMP,Door4,-0.196296296,-0.043518519,1,0,0,2.2507,optionLeft,80,8120,4,16,0,16,0,1,,,,,,,,,,,,,,,,,,,,,,,,,,,,,,,,,,,,,,,
,,,,,,,,2023-08-06_08h21.41.686,HF_wild_card,2022.2.4,Win32,59.97720866,5fbe45eab09bc501700e1c46,64ce5acb97489d65b14ecc7a,64cf49f3d35b7aeaf7852cc0,,,,,,,decisionTrl,resources/DBN.BMP,resources/DP.BMP,Door1,-0.168518519,-0.023148148,1,0,0,2.4514,optionLeft,30,8150,4,17,0,17,0,1,,,,,,,,,,,,,,,,,,,,,,,,,,,,,,,,,,,,,,,
,,,,,,,,2023-08-06_08h21.41.686,HF_wild_card,2022.2.4,Win32,59.97720866,5fbe45eab09bc501700e1c46,64ce5acb97489d65b14ecc7a,64cf49f3d35b7aeaf7852cc0,,,,,,,sngl,resources/DB.BMP,resources/Empty.png,Door3,-0.228703704,-0.026851852,1,0,0,1.0011,optionLeft,70,8220,4,18,0,18,0,1,,,,,,,,,,,,,,,,,,,,,,,,,,,,,,,,,,,,,,,
,,,,,,,,2023-08-06_08h21.41.686,HF_wild_card,2022.2.4,Win32,59.97720866,5fbe45eab09bc501700e1c46,64ce5acb97489d65b14ecc7a,64cf49f3d35b7aeaf7852cc0,,,,,,,decisionTrl,resources/DP.BMP,resources/DY.BMP,WildCard_Ex,0.160185185,-0.085185185,1,0,0,4.1876,optionRight,55,8275,4,19,0,19,0,1,,,,,,,,,,,,,,,,,,,,,,,,,,,,,,,,,,,,,,,
,,,,,,,,2023-08-06_08h21.41.686,HF_wild_card,2022.2.4,Win32,59.97720866,5fbe45eab09bc501700e1c46,64ce5acb97489d65b14ecc7a,64cf49f3d35b7aeaf7852cc0,,,,,,,decisionTrl,resources/DBN.BMP,resources/DP.BMP,Door1,-0.128703704,-0.094444444,1,0,0,3.5191,optionLeft,30,8305,4,20,0,20,0,1,,,,,,,,,,,,,,,,,,,,,,,,,,,,,,,,,,,,,,,
,,,,,,,,2023-08-06_08h21.41.686,HF_wild_card,2022.2.4,Win32,59.97720866,5fbe45eab09bc501700e1c46,64ce5acb97489d65b14ecc7a,64cf49f3d35b7aeaf7852cc0,,,,,,,ctch,resources/DG.BMP,resources/DBN.BMP,Door4,-0.165740741,-0.040740741,1,0,0,2.3178,optionLeft,60,8365,4,21,0,21,0,1,,,,,,,,,,,,,,,,,,,,,,,,,,,,,,,,,,,,,,,
,,,,,,,,2023-08-06_08h21.41.686,HF_wild_card,2022.2.4,Win32,59.97720866,5fbe45eab09bc501700e1c46,64ce5acb97489d65b14ecc7a,64cf49f3d35b7aeaf7852cc0,,,,,,,ctch,resources/DP.BMP,resources/DB.BMP,Door3,0.166666667,-0.071296296,1,0,0,1.1999,optionRight,70,8435,4,22,0,22,0,1,,,,,,,,,,,,,,,,,,,,,,,,,,,,,,,,,,,,,,,
,,,,,,,,2023-08-06_08h21.41.686,HF_wild_card,2022.2.4,Win32,59.97720866,5fbe45eab09bc501700e1c46,64ce5acb97489d65b14ecc7a,64cf49f3d35b7aeaf7852cc0,,,,,,,decisionTrl,resources/DG.BMP,resources/DB.BMP,Door4,-0.188888889,-0.042592593,1,0,0,0.9989,optionLeft,80,8515,4,23,0,23,0,1,,,,,,,,,,,,,,,,,,,,,,,,,,,,,,,,,,,,,,,
,,,,,,,,2023-08-06_08h21.41.686,HF_wild_card,2022.2.4,Win32,59.97720866,5fbe45eab09bc501700e1c46,64ce5acb97489d65b14ecc7a,64cf49f3d35b7aeaf7852cc0,,,,,,,decisionTrl,resources/DY.BMP,resources/DBN.BMP,WildCard_Ex,-0.156481481,-0.028703704,1,0,0,2.0999,optionLeft,55,8570,4,24,0,24,0,1,,,,,,,,,,,,,,,,,,,,,,,,,,,,,,,,,,,,,,,
,,,,,,,,2023-08-06_08h21.41.686,HF_wild_card,2022.2.4,Win32,59.97720866,5fbe45eab09bc501700e1c46,64ce5acb97489d65b14ecc7a,64cf49f3d35b7aeaf7852cc0,,,,,,,decisionTrl,resources/DBN.BMP,resources/DY.BMP,WildCard_Ex,0.130555556,-0.037962963,1,0,0,1.5828,optionRight,45,8615,4,25,0,25,0,1,,,,,,,,,,,,,,,,,,,,,,,,,,,,,,,,,,,,,,,
,,,,,,,,2023-08-06_08h21.41.686,HF_wild_card,2022.2.4,Win32,59.97720866,5fbe45eab09bc501700e1c46,64ce5acb97489d65b14ecc7a,64cf49f3d35b7aeaf7852cc0,,,,,,,decisionTrl,resources/DP.BMP,resources/DBN.BMP,Door1,0.117592593,-0.1,1,0,0,3.2012,optionRight,30,8645,4,26,0,26,0,1,,,,,,,,,,,,,,,,,,,,,,,,,,,,,,,,,,,,,,,
,,,,,,,,2023-08-06_08h21.41.686,HF_wild_card,2022.2.4,Win32,59.97720866,5fbe45eab09bc501700e1c46,64ce5acb97489d65b14ecc7a,64cf49f3d35b7aeaf7852cc0,,,,,,,decisionTrl,resources/DBN.BMP,resources/DP.BMP,Door2,0.142592593,-0.080555556,1,0,0,2.1844,optionRight,40,8685,4,27,0,27,0,1,,,,,,,,,,,,,,,,,,,,,,,,,,,,,,,,,,,,,,,
,,,,,,,,2023-08-06_08h21.41.686,HF_wild_card,2022.2.4,Win32,59.97720866,5fbe45eab09bc501700e1c46,64ce5acb97489d65b14ecc7a,64cf49f3d35b7aeaf7852cc0,,,,,,,decisionTrl,resources/DY.BMP,resources/DB.BMP,Door3,0.108333333,-0.052777778,1,0,0,2.2846,optionRight,70,8755,4,28,0,28,0,1,,,,,,,,,,,,,,,,,,,,,,,,,,,,,,,,,,,,,,,
,,,,,,,,2023-08-06_08h21.41.686,HF_wild_card,2022.2.4,Win32,59.97720866,5fbe45eab09bc501700e1c46,64ce5acb97489d65b14ecc7a,64cf49f3d35b7aeaf7852cc0,,,,,,,sngl,resources/Empty.png,resources/DY.BMP,WildCard_Ex,0.137962963,-0.07037037,1,0,0,1.1167,optionRight,55,8810,4,29,0,29,0,1,,,,,,,,,,,,,,,,,,,,,,,,,,,,,,,,,,,,,,,
,,,,,,,,2023-08-06_08h21.41.686,HF_wild_card,2022.2.4,Win32,59.97720866,5fbe45eab09bc501700e1c46,64ce5acb97489d65b14ecc7a,64cf49f3d35b7aeaf7852cc0,,,,,,,decisionTrl,resources/DB.BMP,resources/DG.BMP,Door4,0.101851852,-0.059259259,1,0,0,3.4524,optionRight,80,8890,4,30,0,30,0,1,,,,,,,,,,,,,,,,,,,,,,,,,,,,,,,,,,,,,,,
,,,,,,,,2023-08-06_08h21.41.686,HF_wild_card,2022.2.4,Win32,59.97720866,5fbe45eab09bc501700e1c46,64ce5acb97489d65b14ecc7a,64cf49f3d35b7aeaf7852cc0,,,,,,,decisionTrl,resources/DB.BMP,resources/DG.BMP,Door4,0.107407407,-0.074074074,1,0,0,1.4005,optionRight,80,8970,4,31,0,31,0,1,,,,,,,,,,,,,,,,,,,,,,,,,,,,,,,,,,,,,,,
,,,,,,,,2023-08-06_08h21.41.686,HF_wild_card,2022.2.4,Win32,59.97720866,5fbe45eab09bc501700e1c46,64ce5acb97489d65b14ecc7a,64cf49f3d35b7aeaf7852cc0,,,,,,,decisionTrl,resources/DG.BMP,resources/DB.BMP,Door3,0.113888889,-0.089814815,1,0,0,2.5348,optionRight,70,9040,4,32,0,32,0,1,,,,,,,,,,,,,,,,,,,,,,,,,,,,,,,,,,,,,,,
,,,,,,,,2023-08-06_08h21.41.686,HF_wild_card,2022.2.4,Win32,59.97720866,5fbe45eab09bc501700e1c46,64ce5acb97489d65b14ecc7a,64cf49f3d35b7aeaf7852cc0,,,,,,,sngl,resources/DP.BMP,resources/Empty.png,Door2,-0.155555556,-0.060185185,1,0,0,1.2335,optionLeft,20,9060,4,33,0,33,0,1,,,,,,,,,,,,,,,,,,,,,,,,,,,,,,,,,,,,,,,
,,,,,,,,2023-08-06_08h21.41.686,HF_wild_card,2022.2.4,Win32,59.97720866,5fbe45eab09bc501700e1c46,64ce5acb97489d65b14ecc7a,64cf49f3d35b7aeaf7852cc0,,,,,,,ctch,resources/DB.BMP,resources/DP.BMP,Door3,-0.181481481,-0.068518519,1,0,0,1.3335,optionLeft,70,9130,4,34,0,34,0,1,,,,,,,,,,,,,,,,,,,,,,,,,,,,,,,,,,,,,,,
,,,,,,,,2023-08-06_08h21.41.686,HF_wild_card,2022.2.4,Win32,59.97720866,5fbe45eab09bc501700e1c46,64ce5acb97489d65b14ecc7a,64cf49f3d35b7aeaf7852cc0,,,,,,,ctch,resources/DG.BMP,resources/DBN.BMP,Door4,-0.187962963,-0.052777778,1,0,0,1.7006,optionLeft,60,9190,4,35,0,35,0,1,,,,,,,,,,,,,,,,,,,,,,,,,,,,,,,,,,,,,,,
,,,,,,,,2023-08-06_08h21.41.686,HF_wild_card,2022.2.4,Win32,59.97720866,5fbe45eab09bc501700e1c46,64ce5acb97489d65b14ecc7a,64cf49f3d35b7aeaf7852cc0,,,,,,,sngl,resources/Empty.png,resources/DB.BMP,Door3,0.162962963,-0.077777778,1,0,0,1.1,optionRight,70,9260,4,36,0,36,0,1,,,,,,,,,,,,,,,,,,,,,,,,,,,,,,,,,,,,,,,
,,,,,,,,2023-08-06_08h21.41.686,HF_wild_card,2022.2.4,Win32,59.97720866,5fbe45eab09bc501700e1c46,64ce5acb97489d65b14ecc7a,64cf49f3d35b7aeaf7852cc0,,,,,,,sngl,resources/DBN.BMP,resources/Empty.png,Door1,-0.167592593,-0.04537037,1,0,0,1.1501,optionLeft,30,9290,4,37,0,37,0,1,,,,,,,,,,,,,,,,,,,,,,,,,,,,,,,,,,,,,,,
,,,,,,,,2023-08-06_08h21.41.686,HF_wild_card,2022.2.4,Win32,59.97720866,5fbe45eab09bc501700e1c46,64ce5acb97489d65b14ecc7a,64cf49f3d35b7aeaf7852cc0,,,,,,,decisionTrl,resources/DP.BMP,resources/DBN.BMP,Door1,0.144444444,-0.05462963,1,0,0,4.3213,optionRight,30,9320,4,38,0,38,0,1,,,,,,,,,,,,,,,,,,,,,,,,,,,,,,,,,,,,,,,
,,,,,,,,2023-08-06_08h21.41.686,HF_wild_card,2022.2.4,Win32,59.97720866,5fbe45eab09bc501700e1c46,64ce5acb97489d65b14ecc7a,64cf49f3d35b7aeaf7852cc0,,,,,,,decisionTrl,resources/DBN.BMP,resources/DP.BMP,Door2,0.100925926,-0.048148148,1,0,0,3.2533,optionRight,20,9340,4,39,0,39,0,1,,,,,,,,,,,,,,,,,,,,,,,,,,,,,,,,,,,,,,,
,,,,,,,,2023-08-06_08h21.41.686,HF_wild_card,2022.2.4,Win32,59.97720866,5fbe45eab09bc501700e1c46,64ce5acb97489d65b14ecc7a,64cf49f3d35b7aeaf7852cc0,,,,,,,decisionTrl,resources/DY.BMP,resources/DP.BMP,WildCard_Ex,-0.175,-0.076851852,1,0,0,1.4671,optionLeft,45,9385,4,40,0,40,0,1,,,,,,,,,,,,,,,,,,,,,,,,,,,,,,,,,,,,,,,
,,,,,,,,2023-08-06_08h21.41.686,HF_wild_card,2022.2.4,Win32,59.97720866,5fbe45eab09bc501700e1c46,64ce5acb97489d65b14ecc7a,64cf49f3d35b7aeaf7852cc0,,,,,,,decisionTrl,resources/DP.BMP,resources/DBN.BMP,Door2,-0.15462963,-0.041666667,1,0,0,2.7017,optionLeft,20,9405,4,41,0,41,0,1,,,,,,,,,,,,,,,,,,,,,,,,,,,,,,,,,,,,,,,
,,,,,,,,2023-08-06_08h21.41.686,HF_wild_card,2022.2.4,Win32,59.97720866,5fbe45eab09bc501700e1c46,64ce5acb97489d65b14ecc7a,64cf49f3d35b7aeaf7852cc0,,,,,,,sngl,resources/DG.BMP,resources/Empty.png,Door4,-0.211111111,-0.05462963,1,0,0,1.1501,optionLeft,60,9465,4,42,0,42,0,1,,,,,,,,,,,,,,,,,,,,,,,,,,,,,,,,,,,,,,,
,,,,,,,,2023-08-06_08h21.41.686,HF_wild_card,2022.2.4,Win32,59.97720866,5fbe45eab09bc501700e1c46,64ce5acb97489d65b14ecc7a,64cf49f3d35b7aeaf7852cc0,,,,,,,decisionTrl,resources/DY.BMP,resources/DG.BMP,Door4,0.160185185,-0.072222222,1,0,0,1.3015,optionRight,60,9525,4,43,0,43,0,1,,,,,,,,,,,,,,,,,,,,,,,,,,,,,,,,,,,,,,,
,,,,,,,,2023-08-06_08h21.41.686,HF_wild_card,2022.2.4,Win32,59.97720866,5fbe45eab09bc501700e1c46,64ce5acb97489d65b14ecc7a,64cf49f3d35b7aeaf7852cc0,,,,,,,,,,,,,,,,,,,,,,,,,,3,0,3,0,1,,,,,,,,,,,,,,,,,,,,,,,,,,,,,,,,,,
,,,,,,,,2023-08-06_08h21.41.686,HF_wild_card,2022.2.4,Win32,59.97720866,5fbe45eab09bc501700e1c46,64ce5acb97489d65b14ecc7a,64cf49f3d35b7aeaf7852cc0,,,,,,,decisionTrl,resources/DBN.BMP,resources/DP.BMP,Door1,-0.213888889,0.025,1,0,0,3.8988,optionLeft,30,9555,5,0,0,0,0,1,,,,,,,,,,,,,,,,,,,,,,,,,,,,,,,,,,,,,,,
,,,,,,,,2023-08-06_08h21.41.686,HF_wild_card,2022.2.4,Win32,59.97720866,5fbe45eab09bc501700e1c46,64ce5acb97489d65b14ecc7a,64cf49f3d35b7aeaf7852cc0,,,,,,,sngl,resources/Empty.png,resources/DY.BMP,WildCard_Ex,0.152777778,-0.030555556,1,0,0,1.0332,optionRight,45,9600,5,1,0,1,0,1,,,,,,,,,,,,,,,,,,,,,,,,,,,,,,,,,,,,,,,
,,,,,,,,2023-08-06_08h21.41.686,HF_wild_card,2022.2.4,Win32,59.97720866,5fbe45eab09bc501700e1c46,64ce5acb97489d65b14ecc7a,64cf49f3d35b7aeaf7852cc0,,,,,,,decisionTrl,resources/DBN.BMP,resources/DY.BMP,WildCard_Ex,0.140740741,-0.058333333,1,0,0,1.317,optionRight,45,9645,5,2,0,2,0,1,,,,,,,,,,,,,,,,,,,,,,,,,,,,,,,,,,,,,,,
,,,,,,,,2023-08-06_08h21.41.686,HF_wild_card,2022.2.4,Win32,59.97720866,5fbe45eab09bc501700e1c46,64ce5acb97489d65b14ecc7a,64cf49f3d35b7aeaf7852cc0,,,,,,,decisionTrl,resources/DBN.BMP,resources/DP.BMP,Door1,-0.336111111,-0.153703704,1,0,0,4.0853,optionLeft,30,9675,5,3,0,3,0,1,,,,,,,,,,,,,,,,,,,,,,,,,,,,,,,,,,,,,,,
,,,,,,,,2023-08-06_08h21.41.686,HF_wild_card,2022.2.4,Win32,59.97720866,5fbe45eab09bc501700e1c46,64ce5acb97489d65b14ecc7a,64cf49f3d35b7aeaf7852cc0,,,,,,,decisionTrl,resources/DY.BMP,resources/DB.BMP,Door3,0.239814815,-0.097222222,1,0,0,1.1001,optionRight,70,9745,5,4,0,4,0,1,,,,,,,,,,,,,,,,,,,,,,,,,,,,,,,,,,,,,,,
,,,,,,,,2023-08-06_08h21.41.686,HF_wild_card,2022.2.4,Win32,59.97720866,5fbe45eab09bc501700e1c46,64ce5acb97489d65b14ecc7a,64cf49f3d35b7aeaf7852cc0,,,,,,,sngl,resources/DBN.BMP,resources/Empty.png,Door1,-0.231481481,-0.062037037,1,0,0,0.8991,optionLeft,30,9775,5,5,0,5,0,1,,,,,,,,,,,,,,,,,,,,,,,,,,,,,,,,,,,,,,,
,,,,,,,,2023-08-06_08h21.41.686,HF_wild_card,2022.2.4,Win32,59.97720866,5fbe45eab09bc501700e1c46,64ce5acb97489d65b14ecc7a,64cf49f3d35b7aeaf7852cc0,,,,,,,ctch,resources/DG.BMP,resources/DBN.BMP,Door4,-0.212037037,-0.046296296,1,0,0,1.3174,optionLeft,80,9855,5,6,0,6,0,1,,,,,,,,,,,,,,,,,,,,,,,,,,,,,,,,,,,,,,,
,,,,,,,,2023-08-06_08h21.41.686,HF_wild_card,2022.2.4,Win32,59.97720866,5fbe45eab09bc501700e1c46,64ce5acb97489d65b14ecc7a,64cf49f3d35b7aeaf7852cc0,,,,,,,decisionTrl,resources/DB.BMP,resources/DG.BMP,Door4,0.165740741,-0.069444444,1,0,0,1.9121,optionRight,60,9915,5,7,0,7,0,1,,,,,,,,,,,,,,,,,,,,,,,,,,,,,,,,,,,,,,,
,,,,,,,,2023-08-06_08h21.41.686,HF_wild_card,2022.2.4,Win32,59.97720866,5fbe45eab09bc501700e1c46,64ce5acb97489d65b14ecc7a,64cf49f3d35b7aeaf7852cc0,,,,,,,decisionTrl,resources/DY.BMP,resources/DP.BMP,WildCard_Ex,-0.222222222,-0.065740741,1,0,0,2.9186,optionLeft,55,9970,5,8,0,8,0,1,,,,,,,,,,,,,,,,,,,,,,,,,,,,,,,,,,,,,,,
,,,,,,,,2023-08-06_08h21.41.686,HF_wild_card,2022.2.4,Win32,59.97720866,5fbe45eab09bc501700e1c46,64ce5acb97489d65b14ecc7a,64cf49f3d35b7aeaf7852cc0,,,,,,,sngl,resources/DP.BMP,resources/Empty.png,Door2,-0.146296296,-0.051851852,1,0,0,1.2502,optionLeft,40,10010,5,9,0,9,0,1,,,,,,,,,,,,,,,,,,,,,,,,,,,,,,,,,,,,,,,
,,,,,,,,2023-08-06_08h21.41.686,HF_wild_card,2022.2.4,Win32,59.97720866,5fbe45eab09bc501700e1c46,64ce5acb97489d65b14ecc7a,64cf49f3d35b7aeaf7852cc0,,,,,,,decisionTrl,resources/DP.BMP,resources/DBN.BMP,Door1,0.172222222,-0.067592593,1,0,0,3.1691,optionRight,30,10040,5,10,0,10,0,1,,,,,,,,,,,,,,,,,,,,,,,,,,,,,,,,,,,,,,,
,,,,,,,,2023-08-06_08h21.41.686,HF_wild_card,2022.2.4,Win32,59.97720866,5fbe45eab09bc501700e1c46,64ce5acb97489d65b14ecc7a,64cf49f3d35b7aeaf7852cc0,,,,,,,sngl,resources/DY.BMP,resources/Empty.png,WildCard_Ex,-0.181481481,-0.086111111,1,0,0,1.1167,optionLeft,45,10085,5,11,0,11,0,1,,,,,,,,,,,,,,,,,,,,,,,,,,,,,,,,,,,,,,,
,,,,,,,,2023-08-06_08h21.41.686,HF_wild_card,2022.2.4,Win32,59.97720866,5fbe45eab09bc501700e1c46,64ce5acb97489d65b14ecc7a,64cf49f3d35b7aeaf7852cc0,,,,,,,decisionTrl,resources/DP.BMP,resources/DBN.BMP,Door1,0.124074074,-0.090740741,1,0,0,2.8517,optionRight,30,10115,5,12,0,12,0,1,,,,,,,,,,,,,,,,,,,,,,,,,,,,,,,,,,,,,,,
,,,,,,,,2023-08-06_08h21.41.686,HF_wild_card,2022.2.4,Win32,59.97720866,5fbe45eab09bc501700e1c46,64ce5acb97489d65b14ecc7a,64cf49f3d35b7aeaf7852cc0,,,,,,,decisionTrl,resources/DY.BMP,resources/DG.BMP,Door4,0.184259259,-0.103703704,1,0,0,1.1834,optionRight,60,10175,5,13,0,13,0,1,,,,,,,,,,,,,,,,,,,,,,,,,,,,,,,,,,,,,,,
,,,,,,,,2023-08-06_08h21.41.686,HF_wild_card,2022.2.4,Win32,59.97720866,5fbe45eab09bc501700e1c46,64ce5acb97489d65b14ecc7a,64cf49f3d35b7aeaf7852cc0,,,,,,,sngl,resources/Empty.png,resources/DY.BMP,WildCard_Ex,0.134259259,-0.083333333,1,0,0,1.0334,optionRight,55,10230,5,14,0,14,0,1,,,,,,,,,,,,,,,,,,,,,,,,,,,,,,,,,,,,,,,
,,,,,,,,2023-08-06_08h21.41.686,HF_wild_card,2022.2.4,Win32,59.97720866,5fbe45eab09bc501700e1c46,64ce5acb97489d65b14ecc7a,64cf49f3d35b7aeaf7852cc0,,,,,,,decisionTrl,resources/DP.BMP,resources/DBN.BMP,Door1,0.144444444,-0.075,1,0,0,1.634,optionRight,30,10260,5,15,0,15,0,1,,,,,,,,,,,,,,,,,,,,,,,,,,,,,,,,,,,,,,,
,,,,,,,,2023-08-06_08h21.41.686,HF_wild_card,2022.2.4,Win32,59.97720866,5fbe45eab09bc501700e1c46,64ce5acb97489d65b14ecc7a,64cf49f3d35b7aeaf7852cc0,,,,,,,decisionTrl,resources/DB.BMP,resources/DY.BMP,Door3,-0.15462963,-0.047222222,1,0,0,2.1011,optionLeft,70,10330,5,16,0,16,0,1,,,,,,,,,,,,,,,,,,,,,,,,,,,,,,,,,,,,,,,
,,,,,,,,2023-08-06_08h21.41.686,HF_wild_card,2022.2.4,Win32,59.97720866,5fbe45eab09bc501700e1c46,64ce5acb97489d65b14ecc7a,64cf49f3d35b7aeaf7852cc0,,,,,,,decisionTrl,resources/DY.BMP,resources/DBN.BMP,WildCard_Ex,-0.174074074,-0.049074074,1,0,0,1.5292,optionLeft,55,10385,5,17,0,17,0,1,,,,,,,,,,,,,,,,,,,,,,,,,,,,,,,,,,,,,,,
,,,,,,,,2023-08-06_08h21.41.686,HF_wild_card,2022.2.4,Win32,59.97720866,5fbe45eab09bc501700e1c46,64ce5acb97489d65b14ecc7a,64cf49f3d35b7aeaf7852cc0,,,,,,,ctch,resources/DBN.BMP,resources/DG.BMP,Door4,0.113888889,-0.085185185,1,0,0,2.5839,optionRight,60,10445,5,18,0,18,0,1,,,,,,,,,,,,,,,,,,,,,,,,,,,,,,,,,,,,,,,
,,,,,,,,2023-08-06_08h21.41.686,HF_wild_card,2022.2.4,Win32,59.97720866,5fbe45eab09bc501700e1c46,64ce5acb97489d65b14ecc7a,64cf49f3d35b7aeaf7852cc0,,,,,,,decisionTrl,resources/DG.BMP,resources/DB.BMP,Door3,0.102777778,-0.069444444,1,0,0,2.4334,optionRight,70,10515,5,19,0,19,0,1,,,,,,,,,,,,,,,,,,,,,,,,,,,,,,,,,,,,,,,
,,,,,,,,2023-08-06_08h21.41.686,HF_wild_card,2022.2.4,Win32,59.97720866,5fbe45eab09bc501700e1c46,64ce5acb97489d65b14ecc7a,64cf49f3d35b7aeaf7852cc0,,,,,,,decisionTrl,resources/DP.BMP,resources/DY.BMP,WildCard_Ex,0.164814815,-0.087037037,1,0,0,1.9973,optionRight,55,10570,5,20,0,20,0,1,,,,,,,,,,,,,,,,,,,,,,,,,,,,,,,,,,,,,,,
,,,,,,,,2023-08-06_08h21.41.686,HF_wild_card,2022.2.4,Win32,59.97720866,5fbe45eab09bc501700e1c46,64ce5acb97489d65b14ecc7a,64cf49f3d35b7aeaf7852cc0,,,,,,,ctch,resources/DB.BMP,resources/DP.BMP,Door3,-0.167592593,-0.050925926,1,0,0,1.0665,optionLeft,70,10640,5,21,0,21,0,1,,,,,,,,,,,,,,,,,,,,,,,,,,,,,,,,,,,,,,,
,,,,,,,,2023-08-06_08h21.41.686,HF_wild_card,2022.2.4,Win32,59.97720866,5fbe45eab09bc501700e1c46,64ce5acb97489d65b14ecc7a,64cf49f3d35b7aeaf7852cc0,,,,,,,ctch,resources/DP.BMP,resources/DB.BMP,Door3,0.169444444,-0.07962963,1,0,0,1.1825,optionRight,70,10710,5,22,0,22,0,1,,,,,,,,,,,,,,,,,,,,,,,,,,,,,,,,,,,,,,,
,,,,,,,,2023-08-06_08h21.41.686,HF_wild_card,2022.2.4,Win32,59.97720866,5fbe45eab09bc501700e1c46,64ce5acb97489d65b14ecc7a,64cf49f3d35b7aeaf7852cc0,,,,,,,ctch,resources/DP.BMP,resources/DB.BMP,Door3,0.174074074,-0.096296296,1,0,0,0.9668,optionRight,70,10780,5,23,0,23,0,1,,,,,,,,,,,,,,,,,,,,,,,,,,,,,,,,,,,,,,,
,,,,,,,,2023-08-06_08h21.41.686,HF_wild_card,2022.2.4,Win32,59.97720866,5fbe45eab09bc501700e1c46,64ce5acb97489d65b14ecc7a,64cf49f3d35b7aeaf7852cc0,,,,,,,sngl,resources/DB.BMP,resources/Empty.png,Door3,-0.187037037,-0.075,1,0,0,2.8519,optionLeft,70,10850,5,24,0,24,0,1,,,,,,,,,,,,,,,,,,,,,,,,,,,,,,,,,,,,,,,
,,,,,,,,2023-08-06_08h21.41.686,HF_wild_card,2022.2.4,Win32,59.97720866,5fbe45eab09bc501700e1c46,64ce5acb97489d65b14ecc7a,64cf49f3d35b7aeaf7852cc0,,,,,,,sngl,resources/DY.BMP,resources/Empty.png,WildCard_Ex,-0.178703704,-0.042592593,1,0,0,1.05,optionLeft,55,10905,5,25,0,25,0,1,,,,,,,,,,,,,,,,,,,,,,,,,,,,,,,,,,,,,,,
,,,,,,,,2023-08-06_08h21.41.686,HF_wild_card,2022.2.4,Win32,59.97720866,5fbe45eab09bc501700e1c46,64ce5acb97489d65b14ecc7a,64cf49f3d35b7aeaf7852cc0,,,,,,,ctch,resources/DB.BMP,resources/DP.BMP,Door3,-0.156481481,-0.039814815,1,0,0,0.9846,optionLeft,70,10975,5,26,0,26,0,1,,,,,,,,,,,,,,,,,,,,,,,,,,,,,,,,,,,,,,,
,,,,,,,,2023-08-06_08h21.41.686,HF_wild_card,2022.2.4,Win32,59.97720866,5fbe45eab09bc501700e1c46,64ce5acb97489d65b14ecc7a,64cf49f3d35b7aeaf7852cc0,,,,,,,decisionTrl,resources/DG.BMP,resources/DB.BMP,Door4,-0.153703704,-0.059259259,1,0,0,2.0128,optionLeft,80,11055,5,27,0,27,0,1,,,,,,,,,,,,,,,,,,,,,,,,,,,,,,,,,,,,,,,
,,,,,,,,2023-08-06_08h21.41.686,HF_wild_card,2022.2.4,Win32,59.97720866,5fbe45eab09bc501700e1c46,64ce5acb97489d65b14ecc7a,64cf49f3d35b7aeaf7852cc0,,,,,,,decisionTrl,resources/DG.BMP,resources/DB.BMP,Door4,-0.136111111,-0.064814815,1,0,0,1.5172,optionLeft,80,11135,5,28,0,28,0,1,,,,,,,,,,,,,,,,,,,,,,,,,,,,,,,,,,,,,,,
,,,,,,,,2023-08-06_08h21.41.686,HF_wild_card,2022.2.4,Win32,59.97720866,5fbe45eab09bc501700e1c46,64ce5acb97489d65b14ecc7a,64cf49f3d35b7aeaf7852cc0,,,,,,,decisionTrl,resources/DG.BMP,resources/DB.BMP,Door4,-0.135185185,-0.059259259,1,0,0,1.285,optionLeft,80,11215,5,29,0,29,0,1,,,,,,,,,,,,,,,,,,,,,,,,,,,,,,,,,,,,,,,
,,,,,,,,2023-08-06_08h21.41.686,HF_wild_card,2022.2.4,Win32,59.97720866,5fbe45eab09bc501700e1c46,64ce5acb97489d65b14ecc7a,64cf49f3d35b7aeaf7852cc0,,,,,,,sngl,resources/Empty.png,resources/DBN.BMP,Door1,0.160185185,-0.080555556,1,0,0,1.2501,optionRight,30,11245,5,30,0,30,0,1,,,,,,,,,,,,,,,,,,,,,,,,,,,,,,,,,,,,,,,
,,,,,,,,2023-08-06_08h21.41.686,HF_wild_card,2022.2.4,Win32,59.97720866,5fbe45eab09bc501700e1c46,64ce5acb97489d65b14ecc7a,64cf49f3d35b7aeaf7852cc0,,,,,,,sngl,resources/Empty.png,resources/DG.BMP,Door4,0.209259259,-0.106481481,1,0,0,1.0282,optionRight,60,11305,5,31,0,31,0,1,,,,,,,,,,,,,,,,,,,,,,,,,,,,,,,,,,,,,,,
,,,,,,,,2023-08-06_08h21.41.686,HF_wild_card,2022.2.4,Win32,59.97720866,5fbe45eab09bc501700e1c46,64ce5acb97489d65b14ecc7a,64cf49f3d35b7aeaf7852cc0,,,,,,,decisionTrl,resources/DBN.BMP,resources/DP.BMP,Door1,-0.166666667,-0.066666667,1,0,0,2.4014,optionLeft,30,11335,5,32,0,32,0,1,,,,,,,,,,,,,,,,,,,,,,,,,,,,,,,,,,,,,,,
,,,,,,,,2023-08-06_08h21.41.686,HF_wild_card,2022.2.4,Win32,59.97720866,5fbe45eab09bc501700e1c46,64ce5acb97489d65b14ecc7a,64cf49f3d35b7aeaf7852cc0,,,,,,,decisionTrl,resources/DG.BMP,resources/DY.BMP,Door4,-0.132407407,-0.065740741,1,0,0,2.1009,optionLeft,60,11395,5,33,0,33,0,1,,,,,,,,,,,,,,,,,,,,,,,,,,,,,,,,,,,,,,,
,,,,,,,,2023-08-06_08h21.41.686,HF_wild_card,2022.2.4,Win32,59.97720866,5fbe45eab09bc501700e1c46,64ce5acb97489d65b14ecc7a,64cf49f3d35b7aeaf7852cc0,,,,,,,decisionTrl,resources/DB.BMP,resources/DG.BMP,Door4,0.121296296,-0.091666667,1,0,0,2.6697,optionRight,80,11475,5,34,0,34,0,1,,,,,,,,,,,,,,,,,,,,,,,,,,,,,,,,,,,,,,,
,,,,,,,,2023-08-06_08h21.41.686,HF_wild_card,2022.2.4,Win32,59.97720866,5fbe45eab09bc501700e1c46,64ce5acb97489d65b14ecc7a,64cf49f3d35b7aeaf7852cc0,,,,,,,decisionTrl,resources/DP.BMP,resources/DBN.BMP,Door1,0.084259259,-0.077777778,1,0,0,3.164,optionRight,30,11505,5,35,0,35,0,1,,,,,,,,,,,,,,,,,,,,,,,,,,,,,,,,,,,,,,,
,,,,,,,,2023-08-06_08h21.41.686,HF_wild_card,2022.2.4,Win32,59.97720866,5fbe45eab09bc501700e1c46,64ce5acb97489d65b14ecc7a,64cf49f3d35b7aeaf7852cc0,,,,,,,decisionTrl,resources/DB.BMP,resources/DG.BMP,Door4,0.113888889,-0.060185185,1,0,0,1.283,optionRight,60,11565,5,36,0,36,0,1,,,,,,,,,,,,,,,,,,,,,,,,,,,,,,,,,,,,,,,
,,,,,,,,2023-08-06_08h21.41.686,HF_wild_card,2022.2.4,Win32,59.97720866,5fbe45eab09bc501700e1c46,64ce5acb97489d65b14ecc7a,64cf49f3d35b7aeaf7852cc0,,,,,,,ctch,resources/DG.BMP,resources/DBN.BMP,Door4,-0.150925926,-0.041666667,1,0,0,1.3836,optionLeft,60,11625,5,37,0,37,0,1,,,,,,,,,,,,,,,,,,,,,,,,,,,,,,,,,,,,,,,
,,,,,,,,2023-08-06_08h21.41.686,HF_wild_card,2022.2.4,Win32,59.97720866,5fbe45eab09bc501700e1c46,64ce5acb97489d65b14ecc7a,64cf49f3d35b7aeaf7852cc0,,,,,,,sngl,resources/DG.BMP,resources/Empty.png,Door4,-0.183333333,-0.02962963,1,0,0,1.1835,optionLeft,80,11705,5,38,0,38,0,1,,,,,,,,,,,,,,,,,,,,,,,,,,,,,,,,,,,,,,,
,,,,,,,,2023-08-06_08h21.41.686,HF_wild_card,2022.2.4,Win32,59.97720866,5fbe45eab09bc501700e1c46,64ce5acb97489d65b14ecc7a,64cf49f3d35b7aeaf7852cc0,,,,,,,ctch,resources/DBN.BMP,resources/DG.BMP,Door4,0.137962963,-0.064814815,1,0,0,1.1491,optionRight,60,11765,5,39,0,39,0,1,,,,,,,,,,,,,,,,,,,,,,,,,,,,,,,,,,,,,,,
,,,,,,,,2023-08-06_08h21.41.686,HF_wild_card,2022.2.4,Win32,59.97720866,5fbe45eab09bc501700e1c46,64ce5acb97489d65b14ecc7a,64cf49f3d35b7aeaf7852cc0,,,,,,,decisionTrl,resources/DBN.BMP,resources/DP.BMP,Door1,-0.146296296,-0.060185185,1,0,0,1.7508,optionLeft,30,11795,5,40,0,40,0,1,,,,,,,,,,,,,,,,,,,,,,,,,,,,,,,,,,,,,,,
,,,,,,,,2023-08-06_08h21.41.686,HF_wild_card,2022.2.4,Win32,59.97720866,5fbe45eab09bc501700e1c46,64ce5acb97489d65b14ecc7a,64cf49f3d35b7aeaf7852cc0,,,,,,,sngl,resources/Empty.png,resources/DB.BMP,Door3,0.187962963,-0.086111111,1,0,0,1.05,optionRight,70,11865,5,41,0,41,0,1,,,,,,,,,,,,,,,,,,,,,,,,,,,,,,,,,,,,,,,
,,,,,,,,2023-08-06_08h21.41.686,HF_wild_card,2022.2.4,Win32,59.97720866,5fbe45eab09bc501700e1c46,64ce5acb97489d65b14ecc7a,64cf49f3d35b7aeaf7852cc0,,,,,,,decisionTrl,resources/DB.BMP,resources/DG.BMP,Door3,-0.162962963,-0.059259259,1,0,0,1.2165,optionLeft,70,11935,5,42,0,42,0,1,,,,,,,,,,,,,,,,,,,,,,,,,,,,,,,,,,,,,,,
,,,,,,,,2023-08-06_08h21.41.686,HF_wild_card,2022.2.4,Win32,59.97720866,5fbe45eab09bc501700e1c46,64ce5acb97489d65b14ecc7a,64cf49f3d35b7aeaf7852cc0,,,,,,,sngl,resources/Empty.png,resources/DP.BMP,Door2,0.122222222,-0.07962963,1,0,0,1.4325,optionRight,20,11955,5,43,0,43,0,1,,,,,,,,,,,,,,,,,,,,,,,,,,,,,,,,,,,,,,,
,,,,,,,,2023-08-06_08h21.41.686,HF_wild_card,2022.2.4,Win32,59.97720866,5fbe45eab09bc501700e1c46,64ce5acb97489d65b14ecc7a,64cf49f3d35b7aeaf7852cc0,,,,,,,,,,,,,,,,,,,,,,,,,,4,0,4,0,1,,,,,,,,,,,,,,,,,,,,,,,,,,,,,,,,,,
,,,,,,,,2023-08-06_08h21.41.686,HF_wild_card,2022.2.4,Win32,59.97720866,5fbe45eab09bc501700e1c46,64ce5acb97489d65b14ecc7a,64cf49f3d35b7aeaf7852cc0,,,,,,,ctch,resources/DP.BMP,resources/DB.BMP,Door3,0.240740741,-0.142592593,1,0,0,1.2288,optionRight,70,12025,6,0,0,0,0,1,,,,,,,,,,,,,,,,,,,,,,,,,,,,,,,,,,,,,,,
,,,,,,,,2023-08-06_08h21.41.686,HF_wild_card,2022.2.4,Win32,59.97720866,5fbe45eab09bc501700e1c46,64ce5acb97489d65b14ecc7a,64cf49f3d35b7aeaf7852cc0,,,,,,,sngl,resources/DG.BMP,resources/Empty.png,Door4,-0.348148148,-0.047222222,1,0,0,0.9328,optionLeft,60,12085,6,1,0,1,0,1,,,,,,,,,,,,,,,,,,,,,,,,,,,,,,,,,,,,,,,
,,,,,,,,2023-08-06_08h21.41.686,HF_wild_card,2022.2.4,Win32,59.97720866,5fbe45eab09bc501700e1c46,64ce5acb97489d65b14ecc7a,64cf49f3d35b7aeaf7852cc0,,,,,,,ctch,resources/DBN.BMP,resources/DG.BMP,Door4,0.124074074,-0.025,1,0,0,1.2003,optionRight,80,12165,6,2,0,2,0,1,,,,,,,,,,,,,,,,,,,,,,,,,,,,,,,,,,,,,,,
,,,,,,,,2023-08-06_08h21.41.686,HF_wild_card,2022.2.4,Win32,59.97720866,5fbe45eab09bc501700e1c46,64ce5acb97489d65b14ecc7a,64cf49f3d35b7aeaf7852cc0,,,,,,,decisionTrl,resources/DB.BMP,resources/DG.BMP,Door4,0.125,-0.055555556,1,0,0,1.0833,optionRight,60,12225,6,3,0,3,0,1,,,,,,,,,,,,,,,,,,,,,,,,,,,,,,,,,,,,,,,
,,,,,,,,2023-08-06_08h21.41.686,HF_wild_card,2022.2.4,Win32,59.97720866,5fbe45eab09bc501700e1c46,64ce5acb97489d65b14ecc7a,64cf49f3d35b7aeaf7852cc0,,,,,,,decisionTrl,resources/DG.BMP,resources/DB.BMP,Door3,0.100925926,-0.057407407,1,0,0,1.566,optionRight,70,12295,6,4,0,4,0,1,,,,,,,,,,,,,,,,,,,,,,,,,,,,,,,,,,,,,,,
,,,,,,,,2023-08-06_08h21.41.686,HF_wild_card,2022.2.4,Win32,59.97720866,5fbe45eab09bc501700e1c46,64ce5acb97489d65b14ecc7a,64cf49f3d35b7aeaf7852cc0,,,,,,,sngl,resources/DBN.BMP,resources/Empty.png,Door1,-0.164814815,-0.043518519,1,0,0,1.2667,optionLeft,30,12325,6,5,0,5,0,1,,,,,,,,,,,,,,,,,,,,,,,,,,,,,,,,,,,,,,,
,,,,,,,,2023-08-06_08h21.41.686,HF_wild_card,2022.2.4,Win32,59.97720866,5fbe45eab09bc501700e1c46,64ce5acb97489d65b14ecc7a,64cf49f3d35b7aeaf7852cc0,,,,,,,sngl,resources/Empty.png,resources/DY.BMP,WildCard_Ex,0.219444444,-0.090740741,1,0,0,0.9154,optionRight,55,12380,6,6,0,6,0,1,,,,,,,,,,,,,,,,,,,,,,,,,,,,,,,,,,,,,,,
,,,,,,,,2023-08-06_08h21.41.686,HF_wild_card,2022.2.4,Win32,59.97720866,5fbe45eab09bc501700e1c46,64ce5acb97489d65b14ecc7a,64cf49f3d35b7aeaf7852cc0,,,,,,,sngl,resources/DY.BMP,resources/Empty.png,WildCard_Ex,-0.219444444,-0.033333333,1,0,0,0.7823,optionLeft,45,12425,6,7,0,7,0,1,,,,,,,,,,,,,,,,,,,,,,,,,,,,,,,,,,,,,,,
,,,,,,,,2023-08-06_08h21.41.686,HF_wild_card,2022.2.4,Win32,59.97720866,5fbe45eab09bc501700e1c46,64ce5acb97489d65b14ecc7a,64cf49f3d35b7aeaf7852cc0,,,,,,,decisionTrl,resources/DB.BMP,resources/DG.BMP,Door4,0.130555556,-0.067592593,1,0,0,2.0002,optionRight,80,12505,6,8,0,8,0,1,,,,,,,,,,,,,,,,,,,,,,,,,,,,,,,,,,,,,,,
,,,,,,,,2023-08-06_08h21.41.686,HF_wild_card,2022.2.4,Win32,59.97720866,5fbe45eab09bc501700e1c46,64ce5acb97489d65b14ecc7a,64cf49f3d35b7aeaf7852cc0,,,,,,,decisionTrl,resources/DB.BMP,resources/DY.BMP,Door3,-0.193518519,-0.060185185,1,0,0,1.3334,optionLeft,70,12575,6,9,0,9,0,1,,,,,,,,,,,,,,,,,,,,,,,,,,,,,,,,,,,,,,,
,,,,,,,,2023-08-06_08h21.41.686,HF_wild_card,2022.2.4,Win32,59.97720866,5fbe45eab09bc501700e1c46,64ce5acb97489d65b14ecc7a,64cf49f3d35b7aeaf7852cc0,,,,,,,decisionTrl,resources/DG.BMP,resources/DY.BMP,Door4,-0.142592593,-0.027777778,1,0,0,1.3503,optionLeft,60,12635,6,10,0,10,0,1,,,,,,,,,,,,,,,,,,,,,,,,,,,,,,,,,,,,,,,
,,,,,,,,2023-08-06_08h21.41.686,HF_wild_card,2022.2.4,Win32,59.97720866,5fbe45eab09bc501700e1c46,64ce5acb97489d65b14ecc7a,64cf49f3d35b7aeaf7852cc0,,,,,,,sngl,resources/Empty.png,resources/DG.BMP,Door4,0.14537037,-0.080555556,1,0,0,1.0831,optionRight,80,12715,6,11,0,11,0,1,,,,,,,,,,,,,,,,,,,,,,,,,,,,,,,,,,,,,,,
,,,,,,,,2023-08-06_08h21.41.686,HF_wild_card,2022.2.4,Win32,59.97720866,5fbe45eab09bc501700e1c46,64ce5acb97489d65b14ecc7a,64cf49f3d35b7aeaf7852cc0,,,,,,,decisionTrl,resources/DBN.BMP,resources/DP.BMP,Door1,-0.141666667,-0.050925926,1,0,0,2.001,optionLeft,30,12745,6,12,0,12,0,1,,,,,,,,,,,,,,,,,,,,,,,,,,,,,,,,,,,,,,,
,,,,,,,,2023-08-06_08h21.41.686,HF_wild_card,2022.2.4,Win32,59.97720866,5fbe45eab09bc501700e1c46,64ce5acb97489d65b14ecc7a,64cf49f3d35b7aeaf7852cc0,,,,,,,decisionTrl,resources/DB.BMP,resources/DG.BMP,Door4,0.131481481,-0.075,1,0,0,2.1177,optionRight,80,12825,6,13,0,13,0,1,,,,,,,,,,,,,,,,,,,,,,,,,,,,,,,,,,,,,,,
,,,,,,,,2023-08-06_08h21.41.686,HF_wild_card,2022.2.4,Win32,59.97720866,5fbe45eab09bc501700e1c46,64ce5acb97489d65b14ecc7a,64cf49f3d35b7aeaf7852cc0,,,,,,,sngl,resources/Empty.png,resources/DP.BMP,Door2,0.101851852,-0.077777778,1,0,0,1.3503,optionRight,40,12865,6,14,0,14,0,1,,,,,,,,,,,,,,,,,,,,,,,,,,,,,,,,,,,,,,,
,,,,,,,,2023-08-06_08h21.41.686,HF_wild_card,2022.2.4,Win32,59.97720866,5fbe45eab09bc501700e1c46,64ce5acb97489d65b14ecc7a,64cf49f3d35b7aeaf7852cc0,,,,,,,decisionTrl,resources/DBN.BMP,resources/DP.BMP,Door2,0.123148148,-0.069444444,1,0,0,1.95,optionRight,20,12885,6,15,0,15,0,1,,,,,,,,,,,,,,,,,,,,,,,,,,,,,,,,,,,,,,,
,,,,,,,,2023-08-06_08h21.41.686,HF_wild_card,2022.2.4,Win32,59.97720866,5fbe45eab09bc501700e1c46,64ce5acb97489d65b14ecc7a,64cf49f3d35b7aeaf7852cc0,,,,,,,decisionTrl,resources/DB.BMP,resources/DG.BMP,Door4,0.161111111,-0.084259259,1,0,0,1.5171,optionRight,60,12945,6,16,0,16,0,1,,,,,,,,,,,,,,,,,,,,,,,,,,,,,,,,,,,,,,,
,,,,,,,,2023-08-06_08h21.41.686,HF_wild_card,2022.2.4,Win32,59.97720866,5fbe45eab09bc501700e1c46,64ce5acb97489d65b14ecc7a,64cf49f3d35b7aeaf7852cc0,,,,,,,decisionTrl,resources/DBN.BMP,resources/DY.BMP,WildCard_Ex,0.121296296,-0.096296296,1,0,0,3.002,optionRight,55,13000,6,17,0,17,0,1,,,,,,,,,,,,,,,,,,,,,,,,,,,,,,,,,,,,,,,
,,,,,,,,2023-08-06_08h21.41.686,HF_wild_card,2022.2.4,Win32,59.97720866,5fbe45eab09bc501700e1c46,64ce5acb97489d65b14ecc7a,64cf49f3d35b7aeaf7852cc0,,,,,,,decisionTrl,resources/DBN.BMP,resources/DP.BMP,Door2,0.134259259,-0.098148148,1,0,0,3.3189,optionRight,20,13020,6,18,0,18,0,1,,,,,,,,,,,,,,,,,,,,,,,,,,,,,,,,,,,,,,,
,,,,,,,,2023-08-06_08h21.41.686,HF_wild_card,2022.2.4,Win32,59.97720866,5fbe45eab09bc501700e1c46,64ce5acb97489d65b14ecc7a,64cf49f3d35b7aeaf7852cc0,,,,,,,ctch,resources/DB.BMP,resources/DP.BMP,Door3,-0.133333333,-0.093518519,1,0,0,1.5673,optionLeft,70,13090,6,19,0,19,0,1,,,,,,,,,,,,,,,,,,,,,,,,,,,,,,,,,,,,,,,
,,,,,,,,2023-08-06_08h21.41.686,HF_wild_card,2022.2.4,Win32,59.97720866,5fbe45eab09bc501700e1c46,64ce5acb97489d65b14ecc7a,64cf49f3d35b7aeaf7852cc0,,,,,,,decisionTrl,resources/DP.BMP,resources/DBN.BMP,Door1,0.119444444,-0.069444444,1,0,0,2.1178,optionRight,30,13120,6,20,0,20,0,1,,,,,,,,,,,,,,,,,,,,,,,,,,,,,,,,,,,,,,,
,,,,,,,,2023-08-06_08h21.41.686,HF_wild_card,2022.2.4,Win32,59.97720866,5fbe45eab09bc501700e1c46,64ce5acb97489d65b14ecc7a,64cf49f3d35b7aeaf7852cc0,,,,,,,sngl,resources/DY.BMP,resources/Empty.png,WildCard_Ex,-0.143518519,-0.062962963,1,0,0,1.1667,optionLeft,55,13175,6,21,0,21,0,1,,,,,,,,,,,,,,,,,,,,,,,,,,,,,,,,,,,,,,,
,,,,,,,,2023-08-06_08h21.41.686,HF_wild_card,2022.2.4,Win32,59.97720866,5fbe45eab09bc501700e1c46,64ce5acb97489d65b14ecc7a,64cf49f3d35b7aeaf7852cc0,,,,,,,ctch,resources/DBN.BMP,resources/DG.BMP,Door4,0.171296296,-0.087962963,1,0,0,2.4513,optionRight,60,13235,6,22,0,22,0,1,,,,,,,,,,,,,,,,,,,,,,,,,,,,,,,,,,,,,,,
,,,,,,,,2023-08-06_08h21.41.686,HF_wild_card,2022.2.4,Win32,59.97720866,5fbe45eab09bc501700e1c46,64ce5acb97489d65b14ecc7a,64cf49f3d35b7aeaf7852cc0,,,,,,,ctch,resources/DB.BMP,resources/DP.BMP,Door3,-0.144444444,-0.062037037,1,0,0,1.1181,optionLeft,70,13305,6,23,0,23,0,1,,,,,,,,,,,,,,,,,,,,,,,,,,,,,,,,,,,,,,,
,,,,,,,,2023-08-06_08h21.41.686,HF_wild_card,2022.2.4,Win32,59.97720866,5fbe45eab09bc501700e1c46,64ce5acb97489d65b14ecc7a,64cf49f3d35b7aeaf7852cc0,,,,,,,decisionTrl,resources/DP.BMP,resources/DY.BMP,WildCard_Ex,0.131481481,-0.064814815,1,0,0,2.1355,optionRight,55,13360,6,24,0,24,0,1,,,,,,,,,,,,,,,,,,,,,,,,,,,,,,,,,,,,,,,
,,,,,,,,2023-08-06_08h21.41.686,HF_wild_card,2022.2.4,Win32,59.97720866,5fbe45eab09bc501700e1c46,64ce5acb97489d65b14ecc7a,64cf49f3d35b7aeaf7852cc0,,,,,,,decisionTrl,resources/DY.BMP,resources/DB.BMP,Door3,0.125925926,-0.074074074,1,0,0,1.2334,optionRight,70,13430,6,25,0,25,0,1,,,,,,,,,,,,,,,,,,,,,,,,,,,,,,,,,,,,,,,
,,,,,,,,2023-08-06_08h21.41.686,HF_wild_card,2022.2.4,Win32,59.97720866,5fbe45eab09bc501700e1c46,64ce5acb97489d65b14ecc7a,64cf49f3d35b7aeaf7852cc0,,,,,,,ctch,resources/DP.BMP,resources/DB.BMP,Door3,0.12037037,-0.066666667,1,0,0,1.1657,optionRight,70,13500,6,26,0,26,0,1,,,,,,,,,,,,,,,,,,,,,,,,,,,,,,,,,,,,,,,
,,,,,,,,2023-08-06_08h21.41.686,HF_wild_card,2022.2.4,Win32,59.97720866,5fbe45eab09bc501700e1c46,64ce5acb97489d65b14ecc7a,64cf49f3d35b7aeaf7852cc0,,,,,,,decisionTrl,resources/DY.BMP,resources/DP.BMP,WildCard_Ex,-0.137037037,-0.072222222,1,0,0,2.1012,optionLeft,55,13555,6,27,0,27,0,1,,,,,,,,,,,,,,,,,,,,,,,,,,,,,,,,,,,,,,,
,,,,,,,,2023-08-06_08h21.41.686,HF_wild_card,2022.2.4,Win32,59.97720866,5fbe45eab09bc501700e1c46,64ce5acb97489d65b14ecc7a,64cf49f3d35b7aeaf7852cc0,,,,,,,sngl,resources/DP.BMP,resources/Empty.png,Door2,-0.125925926,-0.067592593,1,0,0,2.0125,optionLeft,20,13575,6,28,0,28,0,1,,,,,,,,,,,,,,,,,,,,,,,,,,,,,,,,,,,,,,,
,,,,,,,,2023-08-06_08h21.41.686,HF_wild_card,2022.2.4,Win32,59.97720866,5fbe45eab09bc501700e1c46,64ce5acb97489d65b14ecc7a,64cf49f3d35b7aeaf7852cc0,,,,,,,decisionTrl,resources/DY.BMP,resources/DBN.BMP,WildCard_Ex,-0.141666667,-0.062037037,1,0,0,1.7519,optionLeft,45,13620,6,29,0,29,0,1,,,,,,,,,,,,,,,,,,,,,,,,,,,,,,,,,,,,,,,
,,,,,,,,2023-08-06_08h21.41.686,HF_wild_card,2022.2.4,Win32,59.97720866,5fbe45eab09bc501700e1c46,64ce5acb97489d65b14ecc7a,64cf49f3d35b7aeaf7852cc0,,,,,,,decisionTrl,resources/DP.BMP,resources/DBN.BMP,Door1,0.125925926,-0.048148148,1,0,0,2.2692,optionRight,30,13650,6,30,0,30,0,1,,,,,,,,,,,,,,,,,,,,,,,,,,,,,,,,,,,,,,,
,,,,,,,,2023-08-06_08h21.41.686,HF_wild_card,2022.2.4,Win32,59.97720866,5fbe45eab09bc501700e1c46,64ce5acb97489d65b14ecc7a,64cf49f3d35b7aeaf7852cc0,,,,,,,decisionTrl,resources/DG.BMP,resources/DB.BMP,Door3,0.130555556,-0.072222222,1,0,0,4.2705,optionRight,70,13720,6,31,0,31,0,1,,,,,,,,,,,,,,,,,,,,,,,,,,,,,,,,,,,,,,,
,,,,,,,,2023-08-06_08h21.41.686,HF_wild_card,2022.2.4,Win32,59.97720866,5fbe45eab09bc501700e1c46,64ce5acb97489d65b14ecc7a,64cf49f3d35b7aeaf7852cc0,,,,,,,ctch,resources/DG.BMP,resources/DBN.BMP,Door4,-0.155555556,-0.056481481,1,0,0,1.5172,optionLeft,80,13800,6,32,0,32,0,1,,,,,,,,,,,,,,,,,,,,,,,,,,,,,,,,,,,,,,,
,,,,,,,,2023-08-06_08h21.41.686,HF_wild_card,2022.2.4,Win32,59.97720866,5fbe45eab09bc501700e1c46,64ce5acb97489d65b14ecc7a,64cf49f3d35b7aeaf7852cc0,,,,,,,decisionTrl,resources/DY.BMP,resources/DG.BMP,Door4,0.138888889,-0.063888889,1,0,0,1.3827,optionRight,60,13860,6,33,0,33,0,1,,,,,,,,,,,,,,,,,,,,,,,,,,,,,,,,,,,,,,,
,,,,,,,,2023-08-06_08h21.41.686,HF_wild_card,2022.2.4,Win32,59.97720866,5fbe45eab09bc501700e1c46,64ce5acb97489d65b14ecc7a,64cf49f3d35b7aeaf7852cc0,,,,,,,sngl,resources/Empty.png,resources/DY.BMP,WildCard_Ex,0.167592593,-0.088888889,1,0,0,0.9994,optionRight,45,13905,6,34,0,34,0,1,,,,,,,,,,,,,,,,,,,,,,,,,,,,,,,,,,,,,,,
,,,,,,,,2023-08-06_08h21.41.686,HF_wild_card,2022.2.4,Win32,59.97720866,5fbe45eab09bc501700e1c46,64ce5acb97489d65b14ecc7a,64cf49f3d35b7aeaf7852cc0,,,,,,,decisionTrl,resources/DBN.BMP,resources/DP.BMP,Door1,-0.244444444,-0.078703704,1,0,0,2.9184,optionLeft,30,13935,6,35,0,35,0,1,,,,,,,,,,,,,,,,,,,,,,,,,,,,,,,,,,,,,,,
,,,,,,,,2023-08-06_08h21.41.686,HF_wild_card,2022.2.4,Win32,59.97720866,5fbe45eab09bc501700e1c46,64ce5acb97489d65b14ecc7a,64cf49f3d35b7aeaf7852cc0,,,,,,,decisionTrl,resources/DG.BMP,resources/DB.BMP,Door4,-0.159259259,-0.087962963,1,0,0,2.0176,optionLeft,80,14015,6,36,0,36,0,1,,,,,,,,,,,,,,,,,,,,,,,,,,,,,,,,,,,,,,,
,,,,,,,,2023-08-06_08h21.41.686,HF_wild_card,2022.2.4,Win32,59.97720866,5fbe45eab09bc501700e1c46,64ce5acb97489d65b14ecc7a,64cf49f3d35b7aeaf7852cc0,,,,,,,sngl,resources/Empty.png,resources/DB.BMP,Door3,0.137037037,-0.072222222,1,0,0,0.8165,optionRight,70,14085,6,37,0,37,0,1,,,,,,,,,,,,,,,,,,,,,,,,,,,,,,,,,,,,,,,
,,,,,,,,2023-08-06_08h21.41.686,HF_wild_card,2022.2.4,Win32,59.97720866,5fbe45eab09bc501700e1c46,64ce5acb97489d65b14ecc7a,64cf49f3d35b7aeaf7852cc0,,,,,,,sngl,resources/DB.BMP,resources/Empty.png,Door3,-0.187037037,-0.075,1,0,0,0.7831,optionLeft,70,14155,6,38,0,38,0,1,,,,,,,,,,,,,,,,,,,,,,,,,,,,,,,,,,,,,,,
,,,,,,,,2023-08-06_08h21.41.686,HF_wild_card,2022.2.4,Win32,59.97720866,5fbe45eab09bc501700e1c46,64ce5acb97489d65b14ecc7a,64cf49f3d35b7aeaf7852cc0,,,,,,,ctch,resources/DG.BMP,resources/DBN.BMP,Door4,-0.2,-0.081481481,1,0,0,1.0667,optionLeft,60,14215,6,39,0,39,0,1,,,,,,,,,,,,,,,,,,,,,,,,,,,,,,,,,,,,,,,
,,,,,,,,2023-08-06_08h21.41.686,HF_wild_card,2022.2.4,Win32,59.97720866,5fbe45eab09bc501700e1c46,64ce5acb97489d65b14ecc7a,64cf49f3d35b7aeaf7852cc0,,,,,,,decisionTrl,resources/DP.BMP,resources/DBN.BMP,Door1,0.149074074,-0.037037037,1,0,0,3.0362,optionRight,30,14245,6,40,0,40,0,1,,,,,,,,,,,,,,,,,,,,,,,,,,,,,,,,,,,,,,,
,,,,,,,,2023-08-06_08h21.41.686,HF_wild_card,2022.2.4,Win32,59.97720866,5fbe45eab09bc501700e1c46,64ce5acb97489d65b14ecc7a,64cf49f3d35b7aeaf7852cc0,,,,,,,decisionTrl,resources/DG.BMP,resources/DB.BMP,Door4,-0.130555556,-0.063888889,1,0,0,2.5183,optionLeft,80,14325,6,41,0,41,0,1,,,,,,,,,,,,,,,,,,,,,,,,,,,,,,,,,,,,,,,
,,,,,,,,2023-08-06_08h21.41.686,HF_wild_card,2022.2.4,Win32,59.97720866,5fbe45eab09bc501700e1c46,64ce5acb97489d65b14ecc7a,64cf49f3d35b7aeaf7852cc0,,,,,,,sngl,resources/Empty.png,resources/DBN.BMP,Door1,0.132407407,-0.083333333,1,0,0,1.1334,optionRight,30,14355,6,42,0,42,0,1,,,,,,,,,,,,,,,,,,,,,,,,,,,,,,,,,,,,,,,
,,,,,,,,2023-08-06_08h21.41.686,HF_wild_card,2022.2.4,Win32,59.97720866,5fbe45eab09bc501700e1c46,64ce5acb97489d65b14ecc7a,64cf49f3d35b7aeaf7852cc0,,,,,,,decisionTrl,resources/DP.BMP,resources/DBN.BMP,Door2,-0.160185185,-0.075,1,0,0,2.5514,optionLeft,20,14375,6,43,0,43,0,1,,,,,,,,,,,,,,,,,,,,,,,,,,,,,,,,,,,,,,,
,,,,,,,,2023-08-06_08h21.41.686,HF_wild_card,2022.2.4,Win32,59.97720866,5fbe45eab09bc501700e1c46,64ce5acb97489d65b14ecc7a,64cf49f3d35b7aeaf7852cc0,,,,,,,,,,,,,,,,,,,,,,,,,,5,0,5,0,1,,,,,,,,,,,,,,,,,,,,,,,,,,,,,,,,,,
,,,,,,,,2023-08-06_08h21.41.686,HF_wild_card,2022.2.4,Win32,59.97720866,5fbe45eab09bc501700e1c46,64ce5acb97489d65b14ecc7a,64cf49f3d35b7aeaf7852cc0,,,,,,,ctch,resources/DG.BMP,resources/DBN.BMP,Door4,-0.203703704,-0.236111111,1,0,0,1.6616,optionLeft,60,14435,7,0,0,0,0,1,,,,,,,,,,,,,,,,,,,,,,,,,,,,,,,,,,,,,,,
,,,,,,,,2023-08-06_08h21.41.686,HF_wild_card,2022.2.4,Win32,59.97720866,5fbe45eab09bc501700e1c46,64ce5acb97489d65b14ecc7a,64cf49f3d35b7aeaf7852cc0,,,,,,,ctch,resources/DP.BMP,resources/DB.BMP,Door3,0.081481481,-0.082407407,1,0,0,1.1295,optionRight,70,14505,7,1,0,1,0,1,,,,,,,,,,,,,,,,,,,,,,,,,,,,,,,,,,,,,,,
,,,,,,,,2023-08-06_08h21.41.686,HF_wild_card,2022.2.4,Win32,59.97720866,5fbe45eab09bc501700e1c46,64ce5acb97489d65b14ecc7a,64cf49f3d35b7aeaf7852cc0,,,,,,,decisionTrl,resources/DBN.BMP,resources/DP.BMP,Door1,-0.164814815,-0.05,1,0,0,1.9846,optionLeft,30,14535,7,2,0,2,0,1,,,,,,,,,,,,,,,,,,,,,,,,,,,,,,,,,,,,,,,
,,,,,,,,2023-08-06_08h21.41.686,HF_wild_card,2022.2.4,Win32,59.97720866,5fbe45eab09bc501700e1c46,64ce5acb97489d65b14ecc7a,64cf49f3d35b7aeaf7852cc0,,,,,,,decisionTrl,resources/DB.BMP,resources/DG.BMP,Door4,0.175925926,-0.075,1,0,0,3.2539,optionRight,80,14615,7,3,0,3,0,1,,,,,,,,,,,,,,,,,,,,,,,,,,,,,,,,,,,,,,,
,,,,,,,,2023-08-06_08h21.41.686,HF_wild_card,2022.2.4,Win32,59.97720866,5fbe45eab09bc501700e1c46,64ce5acb97489d65b14ecc7a,64cf49f3d35b7aeaf7852cc0,,,,,,,decisionTrl,resources/DP.BMP,resources/DBN.BMP,Door1,0.099074074,-0.059259259,1,0,0,2.0467,optionRight,30,14645,7,4,0,4,0,1,,,,,,,,,,,,,,,,,,,,,,,,,,,,,,,,,,,,,,,
,,,,,,,,2023-08-06_08h21.41.686,HF_wild_card,2022.2.4,Win32,59.97720866,5fbe45eab09bc501700e1c46,64ce5acb97489d65b14ecc7a,64cf49f3d35b7aeaf7852cc0,,,,,,,decisionTrl,resources/DB.BMP,resources/DG.BMP,Door3,-0.183333333,-0.102777778,1,0,0,3.3863,optionLeft,70,14715,7,5,0,5,0,1,,,,,,,,,,,,,,,,,,,,,,,,,,,,,,,,,,,,,,,
,,,,,,,,2023-08-06_08h21.41.686,HF_wild_card,2022.2.4,Win32,59.97720866,5fbe45eab09bc501700e1c46,64ce5acb97489d65b14ecc7a,64cf49f3d35b7aeaf7852cc0,,,,,,,decisionTrl,resources/DBN.BMP,resources/DP.BMP,Door2,0.117592593,-0.068518519,1,0,0,2.3472,optionRight,20,14735,7,6,0,6,0,1,,,,,,,,,,,,,,,,,,,,,,,,,,,,,,,,,,,,,,,
,,,,,,,,2023-08-06_08h21.41.686,HF_wild_card,2022.2.4,Win32,59.97720866,5fbe45eab09bc501700e1c46,64ce5acb97489d65b14ecc7a,64cf49f3d35b7aeaf7852cc0,,,,,,,decisionTrl,resources/DB.BMP,resources/DG.BMP,Door4,0.137962963,-0.091666667,1,0,0,1.6669,optionRight,60,14795,7,7,0,7,0,1,,,,,,,,,,,,,,,,,,,,,,,,,,,,,,,,,,,,,,,
,,,,,,,,2023-08-06_08h21.41.686,HF_wild_card,2022.2.4,Win32,59.97720866,5fbe45eab09bc501700e1c46,64ce5acb97489d65b14ecc7a,64cf49f3d35b7aeaf7852cc0,,,,,,,decisionTrl,resources/DP.BMP,resources/DBN.BMP,Door1,0.140740741,-0.073148148,1,0,0,2.4174,optionRight,30,14825,7,8,0,8,0,1,,,,,,,,,,,,,,,,,,,,,,,,,,,,,,,,,,,,,,,
,,,,,,,,2023-08-06_08h21.41.686,HF_wild_card,2022.2.4,Win32,59.97720866,5fbe45eab09bc501700e1c46,64ce5acb97489d65b14ecc7a,64cf49f3d35b7aeaf7852cc0,,,,,,,decisionTrl,resources/DBN.BMP,resources/DP.BMP,Door2,0.112037037,-0.075,1,0,0,3.2849,optionRight,40,14865,7,9,0,9,0,1,,,,,,,,,,,,,,,,,,,,,,,,,,,,,,,,,,,,,,,
,,,,,,,,2023-08-06_08h21.41.686,HF_wild_card,2022.2.4,Win32,59.97720866,5fbe45eab09bc501700e1c46,64ce5acb97489d65b14ecc7a,64cf49f3d35b7aeaf7852cc0,,,,,,,decisionTrl,resources/DBN.BMP,resources/DP.BMP,Door1,-0.152777778,-0.048148148,1,0,0,1.5467,optionLeft,30,14895,7,10,0,10,0,1,,,,,,,,,,,,,,,,,,,,,,,,,,,,,,,,,,,,,,,
,,,,,,,,2023-08-06_08h21.41.686,HF_wild_card,2022.2.4,Win32,59.97720866,5fbe45eab09bc501700e1c46,64ce5acb97489d65b14ecc7a,64cf49f3d35b7aeaf7852cc0,,,,,,,decisionTrl,resources/DP.BMP,resources/DBN.BMP,Door1,0.12037037,-0.064814815,1,0,0,2.6187,optionRight,30,14925,7,11,0,11,0,1,,,,,,,,,,,,,,,,,,,,,,,,,,,,,,,,,,,,,,,
,,,,,,,,2023-08-06_08h21.41.686,HF_wild_card,2022.2.4,Win32,59.97720866,5fbe45eab09bc501700e1c46,64ce5acb97489d65b14ecc7a,64cf49f3d35b7aeaf7852cc0,,,,,,,ctch,resources/DP.BMP,resources/DB.BMP,Door3,0.188888889,-0.087037037,1,0,0,1.3342,optionRight,70,14995,7,12,0,12,0,1,,,,,,,,,,,,,,,,,,,,,,,,,,,,,,,,,,,,,,,
,,,,,,,,2023-08-06_08h21.41.686,HF_wild_card,2022.2.4,Win32,59.97720866,5fbe45eab09bc501700e1c46,64ce5acb97489d65b14ecc7a,64cf49f3d35b7aeaf7852cc0,,,,,,,decisionTrl,resources/DG.BMP,resources/DB.BMP,Door4,-0.137962963,-0.061111111,1,0,0,1.8344,optionLeft,80,15075,7,13,0,13,0,1,,,,,,,,,,,,,,,,,,,,,,,,,,,,,,,,,,,,,,,
,,,,,,,,2023-08-06_08h21.41.686,HF_wild_card,2022.2.4,Win32,59.97720866,5fbe45eab09bc501700e1c46,64ce5acb97489d65b14ecc7a,64cf49f3d35b7aeaf7852cc0,,,,,,,decisionTrl,resources/DB.BMP,resources/DG.BMP,Door3,-0.113888889,-0.069444444,1,0,0,2.9312,optionLeft,70,15145,7,14,0,14,0,1,,,,,,,,,,,,,,,,,,,,,,,,,,,,,,,,,,,,,,,
,,,,,,,,2023-08-06_08h21.41.686,HF_wild_card,2022.2.4,Win32,59.97720866,5fbe45eab09bc501700e1c46,64ce5acb97489d65b14ecc7a,64cf49f3d35b7aeaf7852cc0,,,,,,,decisionTrl,resources/DG.BMP,resources/DB.BMP,Door4,-0.139814815,-0.05,1,0,0,1.6667,optionLeft,60,15205,7,15,0,15,0,1,,,,,,,,,,,,,,,,,,,,,,,,,,,,,,,,,,,,,,,
,,,,,,,,2023-08-06_08h21.41.686,HF_wild_card,2022.2.4,Win32,59.97720866,5fbe45eab09bc501700e1c46,64ce5acb97489d65b14ecc7a,64cf49f3d35b7aeaf7852cc0,,,,,,,decisionTrl,resources/DB.BMP,resources/DG.BMP,Door3,-0.116666667,-0.066666667,1,0,0,1.7288,optionLeft,70,15275,7,16,0,16,0,1,,,,,,,,,,,,,,,,,,,,,,,,,,,,,,,,,,,,,,,
,,,,,,,,2023-08-06_08h21.41.686,HF_wild_card,2022.2.4,Win32,59.97720866,5fbe45eab09bc501700e1c46,64ce5acb97489d65b14ecc7a,64cf49f3d35b7aeaf7852cc0,,,,,,,decisionTrl,resources/DG.BMP,resources/DB.BMP,Door3,0.121296296,-0.047222222,1,0,0,1.7691,optionRight,70,15345,7,17,0,17,0,1,,,,,,,,,,,,,,,,,,,,,,,,,,,,,,,,,,,,,,,
,,,,,,,,2023-08-06_08h21.41.686,HF_wild_card,2022.2.4,Win32,59.97720866,5fbe45eab09bc501700e1c46,64ce5acb97489d65b14ecc7a,64cf49f3d35b7aeaf7852cc0,,,,,,,ctch,resources/DBN.BMP,resources/DG.BMP,Door4,0.14537037,-0.064814815,1,0,0,1.9359,optionRight,60,15405,7,18,0,18,0,1,,,,,,,,,,,,,,,,,,,,,,,,,,,,,,,,,,,,,,,
,,,,,,,,2023-08-06_08h21.41.686,HF_wild_card,2022.2.4,Win32,59.97720866,5fbe45eab09bc501700e1c46,64ce5acb97489d65b14ecc7a,64cf49f3d35b7aeaf7852cc0,,,,,,,decisionTrl,resources/DG.BMP,resources/DB.BMP,Door3,0.127777778,-0.085185185,1,0,0,3.6531,optionRight,70,15475,7,19,0,19,0,1,,,,,,,,,,,,,,,,,,,,,,,,,,,,,,,,,,,,,,,
,,,,,,,,2023-08-06_08h21.41.686,HF_wild_card,2022.2.4,Win32,59.97720866,5fbe45eab09bc501700e1c46,64ce5acb97489d65b14ecc7a,64cf49f3d35b7aeaf7852cc0,,,,,,,decisionTrl,resources/DBN.BMP,resources/DP.BMP,Door2,0.136111111,-0.074074074,1,0,0,2.9857,optionRight,20,15495,7,20,0,20,0,1,,,,,,,,,,,,,,,,,,,,,,,,,,,,,,,,,,,,,,,
,,,,,,,,2023-08-06_08h21.41.686,HF_wild_card,2022.2.4,Win32,59.97720866,5fbe45eab09bc501700e1c46,64ce5acb97489d65b14ecc7a,64cf49f3d35b7aeaf7852cc0,,,,,,,ctch,resources/DBN.BMP,resources/DG.BMP,Door4,0.155555556,-0.066666667,1,0,0,1.6634,optionRight,60,15555,7,21,0,21,0,1,,,,,,,,,,,,,,,,,,,,,,,,,,,,,,,,,,,,,,,
,,,,,,,,2023-08-06_08h21.41.686,HF_wild_card,2022.2.4,Win32,59.97720866,5fbe45eab09bc501700e1c46,64ce5acb97489d65b14ecc7a,64cf49f3d35b7aeaf7852cc0,,,,,,,ctch,resources/DB.BMP,resources/DP.BMP,Door3,-0.213888889,-0.07037037,1,0,0,1.1005,optionLeft,70,15625,7,22,0,22,0,1,,,,,,,,,,,,,,,,,,,,,,,,,,,,,,,,,,,,,,,
,,,,,,,,2023-08-06_08h21.41.686,HF_wild_card,2022.2.4,Win32,59.97720866,5fbe45eab09bc501700e1c46,64ce5acb97489d65b14ecc7a,64cf49f3d35b7aeaf7852cc0,,,,,,,ctch,resources/DP.BMP,resources/DB.BMP,Door3,0.167592593,-0.073148148,1,0,0,1.0171,optionRight,70,15695,7,23,0,23,0,1,,,,,,,,,,,,,,,,,,,,,,,,,,,,,,,,,,,,,,,
,,,,,,,,2023-08-06_08h21.41.686,HF_wild_card,2022.2.4,Win32,59.97720866,5fbe45eab09bc501700e1c46,64ce5acb97489d65b14ecc7a,64cf49f3d35b7aeaf7852cc0,,,,,,,decisionTrl,resources/DG.BMP,resources/DB.BMP,Door4,-0.126851852,-0.086111111,1,0,0,2.8689,optionLeft,60,15755,7,24,0,24,0,1,,,,,,,,,,,,,,,,,,,,,,,,,,,,,,,,,,,,,,,
,,,,,,,,2023-08-06_08h21.41.686,HF_wild_card,2022.2.4,Win32,59.97720866,5fbe45eab09bc501700e1c46,64ce5acb97489d65b14ecc7a,64cf49f3d35b7aeaf7852cc0,,,,,,,ctch,resources/DB.BMP,resources/DP.BMP,Door3,-0.185185185,-0.07962963,1,0,0,1.0673,optionLeft,70,15825,7,25,0,25,0,1,,,,,,,,,,,,,,,,,,,,,,,,,,,,,,,,,,,,,,,
,,,,,,,,2023-08-06_08h21.41.686,HF_wild_card,2022.2.4,Win32,59.97720866,5fbe45eab09bc501700e1c46,64ce5acb97489d65b14ecc7a,64cf49f3d35b7aeaf7852cc0,,,,,,,decisionTrl,resources/DP.BMP,resources/DBN.BMP,Door1,0.137037037,-0.092592593,1,0,0,2.0838,optionRight,30,15855,7,26,0,26,0,1,,,,,,,,,,,,,,,,,,,,,,,,,,,,,,,,,,,,,,,
,,,,,,,,2023-08-06_08h21.41.686,HF_wild_card,2022.2.4,Win32,59.97720866,5fbe45eab09bc501700e1c46,64ce5acb97489d65b14ecc7a,64cf49f3d35b7aeaf7852cc0,,,,,,,ctch,resources/DG.BMP,resources/DBN.BMP,Door4,-0.200925926,-0.084259259,1,0,0,1.2341,optionLeft,60,15915,7,27,0,27,0,1,,,,,,,,,,,,,,,,,,,,,,,,,,,,,,,,,,,,,,,
,,,,,,,,2023-08-06_08h21.41.686,HF_wild_card,2022.2.4,Win32,59.97720866,5fbe45eab09bc501700e1c46,64ce5acb97489d65b14ecc7a,64cf49f3d35b7aeaf7852cc0,,,,,,,decisionTrl,resources/DP.BMP,resources/DBN.BMP,Door1,0.153703704,-0.060185185,1,0,0,2.3852,optionRight,30,15945,7,28,0,28,0,1,,,,,,,,,,,,,,,,,,,,,,,,,,,,,,,,,,,,,,,
,,,,,,,,2023-08-06_08h21.41.686,HF_wild_card,2022.2.4,Win32,59.97720866,5fbe45eab09bc501700e1c46,64ce5acb97489d65b14ecc7a,64cf49f3d35b7aeaf7852cc0,,,,,,,ctch,resources/DB.BMP,resources/DP.BMP,Door3,-0.186111111,-0.086111111,1,0,0,0.9516,optionLeft,70,16015,7,29,0,29,0,1,,,,,,,,,,,,,,,,,,,,,,,,,,,,,,,,,,,,,,,
,,,,,,,,2023-08-06_08h21.41.686,HF_wild_card,2022.2.4,Win32,59.97720866,5fbe45eab09bc501700e1c46,64ce5acb97489d65b14ecc7a,64cf49f3d35b7aeaf7852cc0,,,,,,,decisionTrl,resources/DBN.BMP,resources/DP.BMP,Door2,0.167592593,-0.103703704,1,0,0,3.2028,optionRight,20,16035,7,30,0,30,0,1,,,,,,,,,,,,,,,,,,,,,,,,,,,,,,,,,,,,,,,
,,,,,,,,2023-08-06_08h21.41.686,HF_wild_card,2022.2.4,Win32,59.97720866,5fbe45eab09bc501700e1c46,64ce5acb97489d65b14ecc7a,64cf49f3d35b7aeaf7852cc0,,,,,,,decisionTrl,resources/DG.BMP,resources/DB.BMP,Door4,-0.148148148,-0.065740741,1,0,0,1.7964,optionLeft,80,16115,7,31,0,31,0,1,,,,,,,,,,,,,,,,,,,,,,,,,,,,,,,,,,,,,,,
,,,,,,,,2023-08-06_08h21.41.686,HF_wild_card,2022.2.4,Win32,59.97720866,5fbe45eab09bc501700e1c46,64ce5acb97489d65b14ecc7a,64cf49f3d35b7aeaf7852cc0,,,,,,,decisionTrl,resources/DP.BMP,resources/DBN.BMP,Door1,0.111111111,-0.064814815,1,0,0,2.4184,optionRight,30,16145,7,32,0,32,0,1,,,,,,,,,,,,,,,,,,,,,,,,,,,,,,,,,,,,,,,
,,,,,,,,2023-08-06_08h21.41.686,HF_wild_card,2022.2.4,Win32,59.97720866,5fbe45eab09bc501700e1c46,64ce5acb97489d65b14ecc7a,64cf49f3d35b7aeaf7852cc0,,,,,,,ctch,resources/DBN.BMP,resources/DG.BMP,Door4,0.115740741,-0.077777778,1,0,0,1.6844,optionRight,80,16225,7,33,0,33,0,1,,,,,,,,,,,,,,,,,,,,,,,,,,,,,,,,,,,,,,,
,,,,,,,,2023-08-06_08h21.41.686,HF_wild_card,2022.2.4,Win32,59.97720866,5fbe45eab09bc501700e1c46,64ce5acb97489d65b14ecc7a,64cf49f3d35b7aeaf7852cc0,,,,,,,decisionTrl,resources/DB.BMP,resources/DG.BMP,Door3,-0.132407407,-0.063888889,1,0,0,2.285,optionLeft,70,16295,7,34,0,34,0,1,,,,,,,,,,,,,,,,,,,,,,,,,,,,,,,,,,,,,,,
,,,,,,,,2023-08-06_08h21.41.686,HF_wild_card,2022.2.4,Win32,59.97720866,5fbe45eab09bc501700e1c46,64ce5acb97489d65b14ecc7a,64cf49f3d35b7aeaf7852cc0,,,,,,,ctch,resources/DG.BMP,resources/DBN.BMP,Door4,-0.125925926,-0.05462963,1,0,0,1.5689,optionLeft,80,16375,7,35,0,35,0,1,,,,,,,,,,,,,,,,,,,,,,,,,,,,,,,,,,,,,,,
,,,,,,,,2023-08-06_08h21.41.686,HF_wild_card,2022.2.4,Win32,59.97720866,5fbe45eab09bc501700e1c46,64ce5acb97489d65b14ecc7a,64cf49f3d35b7aeaf7852cc0,,,,,,,,,,,,,,,,,,,,,,,,,,6,0,6,0,1,,,,,,,,,,,,,,,,,,,,,,,,,,,,,,,,,,
,,,,,,,,2023-08-06_08h21.41.686,HF_wild_card,2022.2.4,Win32,59.97720866,5fbe45eab09bc501700e1c46,64ce5acb97489d65b14ecc7a,64cf49f3d35b7aeaf7852cc0,,,,,,,,,,,,,,,,,,,,,,,,,,,,,,,4,,,,,,,,,,,,,,,,,,,,,,,,,,,,,,,,,
,,,,,,,,2023-08-06_08h21.41.686,HF_wild_card,2022.2.4,Win32,59.97720866,5fbe45eab09bc501700e1c46,64ce5acb97489d65b14ecc7a,64cf49f3d35b7aeaf7852cc0,,,,,,,,,,,,,,,,,,,,,,,,,,,,,,,,,,,,,,,,,,,,,,,,,,,,,,,,,,,,,,,,
,,,,,,,,2023-08-06_08h21.41.686,HF_wild_card,2022.2.4,Win32,59.97720866,5fbe45eab09bc501700e1c46,64ce5acb97489d65b14ecc7a,64cf49f3d35b7aeaf7852cc0,,,,,,,,,,,,,,,,,,,,,,,,,,,,,,,,70,Door3,resources/DB.BMP,0,0,0,0,1,,,,,,,,,,,,,,,,,,,,,,,,,
,,,,,,,,2023-08-06_08h21.41.686,HF_wild_card,2022.2.4,Win32,59.97720866,5fbe45eab09bc501700e1c46,64ce5acb97489d65b14ecc7a,64cf49f3d35b7aeaf7852cc0,,,,,,,,,,,,,,,,,,,,,,,,,,,,,,,,55,WC_extreme,resources/DY.BMP,1,0,1,0,1,,,,,,,,,,,,,,,,,,,,,,,,,
,,,,,,,,2023-08-06_08h21.41.686,HF_wild_card,2022.2.4,Win32,59.97720866,5fbe45eab09bc501700e1c46,64ce5acb97489d65b14ecc7a,64cf49f3d35b7aeaf7852cc0,,,,,,,,,,,,,,,,,,,,,,,,,,,,,,,,20,Door2,resources/DP.BMP,2,0,2,0,1,,,,,,,,,,,,,,,,,,,,,,,,,
,,,,,,,,2023-08-06_08h21.41.686,HF_wild_card,2022.2.4,Win32,59.97720866,5fbe45eab09bc501700e1c46,64ce5acb97489d65b14ecc7a,64cf49f3d35b7aeaf7852cc0,,,,,,,,,,,,,,,,,,,,,,,,,,,,,,,,30,Door1,resources/DBN.BMP,3,0,3,0,1,,,,,,,,,,,,,,,,,,,,,,,,,
,,,,,,,,2023-08-06_08h21.41.686,HF_wild_card,2022.2.4,Win32,59.97720866,5fbe45eab09bc501700e1c46,64ce5acb97489d65b14ecc7a,64cf49f3d35b7aeaf7852cc0,,,,,,,,,,,,,,,,,,,,,,,,,,,,,,,,80,Door4,resources/DG.BMP,4,0,4,0,1,,,,,,,,,,,,,,,,,,,,,,,,,
,,,,,,,,2023-08-06_08h21.41.686,HF_wild_card,2022.2.4,Win32,59.97720866,5fbe45eab09bc501700e1c46,64ce5acb97489d65b14ecc7a,64cf49f3d35b7aeaf7852cc0,,,,,,,,,,,,,,,,,,,,,,,,,,,,,,,,45,WC_nonExtreme,resources/DR.BMP,5,0,5,0,1,,,,,,,,,,,,,,,,,,,,,,,,,
,,,,,,,,2023-08-06_08h21.41.686,HF_wild_card,2022.2.4,Win32,59.97720866,5fbe45eab09bc501700e1c46,64ce5acb97489d65b14ecc7a,64cf49f3d35b7aeaf7852cc0,,,,,,,,,,,,,,,,,,,,,,,,,,,,,,,,,,,,,,,,,,,,,,,,,,,,,,,,,,,,,,,,
