Condition,Low fixed image (Door1),Low risky image (Door2),High fixed image (Door3),High risky image (Door4),Extreme Wild Card,NonExtreme Wild Card,,date,expName,psychopyVersion,OS,frameRate,PROLIFIC_PID,STUDY_ID,SESSION_ID,mouse_2.x,mouse_2.y,mouse_2.leftButton,mouse_2.midButton,mouse_2.rightButton,mouse_2.clicked_name,Trial Type,Left Option Image,Right Option Image,Chosen Door,mouse.x,mouse.y,mouse.leftButton,mouse.midButton,mouse.rightButton,mouse.time,mouse.clicked_name,Feedback,Cumulative Reward,Block,trial.thisRepN,trial.thisTrialN,trial.thisN,trial.thisIndex,trial.ran,blocks.thisRepN,blocks.thisTrialN,blocks.thisN,blocks.thisIndex,blocks.ran,Money conversion,First Outcome Reported,Shown Door (First Outcome),Displayed Image (First Outcome),outcomes.thisRepN,outcomes.thisTrialN,outcomes.thisN,outcomes.thisIndex,outcomes.ran,judgments.thisRepN,judgments.thisTrialN,judgments.thisN,judgments.thisIndex,judgments.ran,freqMouse.x,freqMouse.y,freqMouse.leftButton,freqMouse.midButton,freqMouse.rightButton,freqMouse.clicked_name,FQJ for first outcome,FQJ for second outcome,Shown Door,Displayed Image,trials.thisRepN,trials.thisTrialN,trials.thisN,trials.thisIndex,trials.ran,judgBlock.thisRepN,judgBlock.thisTrialN,judgBlock.thisN,judgBlock.thisIndex,judgBlock.ran
1,resources/DG.BMP,resources/DY.BMP,resources/DBN.BMP,resources/DB.BMP,resources/DP.BMP,resources/DR.BMP,,2023-08-16_08h45.10.716,HF_wild_card,2022.2.4,Win32,60.0528465,5efc6a4ba720250009909dfe,64d2fd46c836a06233681665,64dc7e79463047e8be8a3d6b,,,,,,,,,,,,,,,,,,,,,,,,,,,,,,,,,,,,,,,,,,,,,,,,,,,,,,,,,,,,,,,,
,,,,,,,,2023-08-16_08h45.10.716,HF_wild_card,2022.2.4,Win32,60.0528465,5efc6a4ba720250009909dfe,64d2fd46c836a06233681665,64dc7e79463047e8be8a3d6b,-0.009259203,-0.425925954,1,0,0,agree,,,,,,,,,,,,,,,,,,,,,,,,,,,,,,,,,,,,,,,,,,,,,,,,,,,,,,,,,,
,,,,,,,,2023-08-16_08h45.10.716,HF_wild_card,2022.2.4,Win32,60.0528465,5efc6a4ba720250009909dfe,64d2fd46c836a06233681665,64dc7e79463047e8be8a3d6b,,,,,,,,,,,,,,,,,,,,,,,,,,,,,,,,,,,,,,,,,,,,,,,,,,,,,,,,,,,,,,,,
,,,,,,,,2023-08-16_08h45.10.716,HF_wild_card,2022.2.4,Win32,60.0528465,5efc6a4ba720250009909dfe,64d2fd46c836a06233681665,64dc7e79463047e8be8a3d6b,,,,,,,decisionTrl,resources/DR.BMP,resources/DG.BMP,Door1,0.236111111,-0.155555556,1,0,0,6.2776,optionRight,30,30,1,0,0,0,0,1,,,,,,,,,,,,,,,,,,,,,,,,,,,,,,,,,,,,,,,
,,,,,,,,2023-08-16_08h45.10.716,HF_wild_card,2022.2.4,Win32,60.0528465,5efc6a4ba720250009909dfe,64d2fd46c836a06233681665,64dc7e79463047e8be8a3d6b,,,,,,,decisionTrl,resources/DY.BMP,resources/DR.BMP,Door2,-0.244444444,-0.102777778,1,0,0,1.8799,optionLeft,40,70,1,1,0,1,0,1,,,,,,,,,,,,,,,,,,,,,,,,,,,,,,,,,,,,,,,
,,,,,,,,2023-08-16_08h45.10.716,HF_wild_card,2022.2.4,Win32,60.0528465,5efc6a4ba720250009909dfe,64d2fd46c836a06233681665,64dc7e79463047e8be8a3d6b,,,,,,,decisionTrl,resources/DY.BMP,resources/DG.BMP,Door2,-0.312962935,-0.077777778,1,0,0,1.3807,optionLeft,20,90,1,2,0,2,0,1,,,,,,,,,,,,,,,,,,,,,,,,,,,,,,,,,,,,,,,
,,,,,,,,2023-08-16_08h45.10.716,HF_wild_card,2022.2.4,Win32,60.0528465,5efc6a4ba720250009909dfe,64d2fd46c836a06233681665,64dc7e79463047e8be8a3d6b,,,,,,,ctch,resources/DG.BMP,resources/DB.BMP,Door1,-0.374074046,-0.063888889,1,0,0,1.1974,optionLeft,30,120,1,3,0,3,0,1,,,,,,,,,,,,,,,,,,,,,,,,,,,,,,,,,,,,,,,
,,,,,,,,2023-08-16_08h45.10.716,HF_wild_card,2022.2.4,Win32,60.0528465,5efc6a4ba720250009909dfe,64d2fd46c836a06233681665,64dc7e79463047e8be8a3d6b,,,,,,,sngl,resources/DB.BMP,resources/Empty.png,Door4,-0.237037023,-0.047222222,1,0,0,1.4457,optionLeft,80,200,1,4,0,4,0,1,,,,,,,,,,,,,,,,,,,,,,,,,,,,,,,,,,,,,,,
,,,,,,,,2023-08-16_08h45.10.716,HF_wild_card,2022.2.4,Win32,60.0528465,5efc6a4ba720250009909dfe,64d2fd46c836a06233681665,64dc7e79463047e8be8a3d6b,,,,,,,sngl,resources/DG.BMP,resources/Empty.png,Door1,-0.29351849,-0.125925954,1,0,0,1.4614,optionLeft,30,230,1,5,0,5,0,1,,,,,,,,,,,,,,,,,,,,,,,,,,,,,,,,,,,,,,,
,,,,,,,,2023-08-16_08h45.10.716,HF_wild_card,2022.2.4,Win32,60.0528465,5efc6a4ba720250009909dfe,64d2fd46c836a06233681665,64dc7e79463047e8be8a3d6b,,,,,,,decisionTrl,resources/DG.BMP,resources/DY.BMP,Door2,0.300925954,-0.015740755,1,0,0,1.2365,optionRight,40,270,1,6,0,6,0,1,,,,,,,,,,,,,,,,,,,,,,,,,,,,,,,,,,,,,,,
,,,,,,,,2023-08-16_08h45.10.716,HF_wild_card,2022.2.4,Win32,60.0528465,5efc6a4ba720250009909dfe,64d2fd46c836a06233681665,64dc7e79463047e8be8a3d6b,,,,,,,ctch,resources/DB.BMP,resources/DG.BMP,Door4,-0.267592578,-0.064814843,1,0,0,1.3352,optionLeft,60,330,1,7,0,7,0,1,,,,,,,,,,,,,,,,,,,,,,,,,,,,,,,,,,,,,,,
,,,,,,,,2023-08-16_08h45.10.716,HF_wild_card,2022.2.4,Win32,60.0528465,5efc6a4ba720250009909dfe,64d2fd46c836a06233681665,64dc7e79463047e8be8a3d6b,,,,,,,sngl,resources/Empty.png,resources/DBN.BMP,Door3,0.282407464,-0.012962977,1,0,0,1.5018,optionRight,70,400,1,8,0,8,0,1,,,,,,,,,,,,,,,,,,,,,,,,,,,,,,,,,,,,,,,
,,,,,,,,2023-08-16_08h45.10.716,HF_wild_card,2022.2.4,Win32,60.0528465,5efc6a4ba720250009909dfe,64d2fd46c836a06233681665,64dc7e79463047e8be8a3d6b,,,,,,,decisionTrl,resources/DBN.BMP,resources/DB.BMP,Door3,-0.249074046,-0.032407422,1,0,0,1.5358,optionLeft,70,470,1,9,0,9,0,1,,,,,,,,,,,,,,,,,,,,,,,,,,,,,,,,,,,,,,,
,,,,,,,,2023-08-16_08h45.10.716,HF_wild_card,2022.2.4,Win32,60.0528465,5efc6a4ba720250009909dfe,64d2fd46c836a06233681665,64dc7e79463047e8be8a3d6b,,,,,,,ctch,resources/DY.BMP,resources/DBN.BMP,Door2,-0.237037023,-0.047222222,1,0,0,1.2446,optionLeft,40,510,1,10,0,10,0,1,,,,,,,,,,,,,,,,,,,,,,,,,,,,,,,,,,,,,,,
,,,,,,,,2023-08-16_08h45.10.716,HF_wild_card,2022.2.4,Win32,60.0528465,5efc6a4ba720250009909dfe,64d2fd46c836a06233681665,64dc7e79463047e8be8a3d6b,,,,,,,ctch,resources/DBN.BMP,resources/DY.BMP,Door2,0.202777778,-0.003703732,1,0,0,1.2606,optionRight,20,530,1,11,0,11,0,1,,,,,,,,,,,,,,,,,,,,,,,,,,,,,,,,,,,,,,,
,,,,,,,,2023-08-16_08h45.10.716,HF_wild_card,2022.2.4,Win32,60.0528465,5efc6a4ba720250009909dfe,64d2fd46c836a06233681665,64dc7e79463047e8be8a3d6b,,,,,,,sngl,resources/Empty.png,resources/DG.BMP,Door1,0.20648151,0.017592578,1,0,0,1.1281,optionRight,30,560,1,12,0,12,0,1,,,,,,,,,,,,,,,,,,,,,,,,,,,,,,,,,,,,,,,
,,,,,,,,2023-08-16_08h45.10.716,HF_wild_card,2022.2.4,Win32,60.0528465,5efc6a4ba720250009909dfe,64d2fd46c836a06233681665,64dc7e79463047e8be8a3d6b,,,,,,,decisionTrl,resources/DB.BMP,resources/DBN.BMP,Door4,-0.308333333,-0.025925954,1,0,0,1.3627,optionLeft,60,620,1,13,0,13,0,1,,,,,,,,,,,,,,,,,,,,,,,,,,,,,,,,,,,,,,,
,,,,,,,,2023-08-16_08h45.10.716,HF_wild_card,2022.2.4,Win32,60.0528465,5efc6a4ba720250009909dfe,64d2fd46c836a06233681665,64dc7e79463047e8be8a3d6b,,,,,,,sngl,resources/Empty.png,resources/DY.BMP,Door2,0.225,0.020370356,1,0,0,1.0115,optionRight,20,640,1,14,0,14,0,1,,,,,,,,,,,,,,,,,,,,,,,,,,,,,,,,,,,,,,,
,,,,,,,,2023-08-16_08h45.10.716,HF_wild_card,2022.2.4,Win32,60.0528465,5efc6a4ba720250009909dfe,64d2fd46c836a06233681665,64dc7e79463047e8be8a3d6b,,,,,,,decisionTrl,resources/DG.BMP,resources/DR.BMP,WildCard_NonEx,0.170370399,0.014814801,1,0,0,2.3959,optionRight,45,685,1,15,0,15,0,1,,,,,,,,,,,,,,,,,,,,,,,,,,,,,,,,,,,,,,,
,,,,,,,,2023-08-16_08h45.10.716,HF_wild_card,2022.2.4,Win32,60.0528465,5efc6a4ba720250009909dfe,64d2fd46c836a06233681665,64dc7e79463047e8be8a3d6b,,,,,,,decisionTrl,resources/DR.BMP,resources/DB.BMP,Door4,0.275925954,-0.04629631,1,0,0,1.1453,optionRight,80,765,1,16,0,16,0,1,,,,,,,,,,,,,,,,,,,,,,,,,,,,,,,,,,,,,,,
,,,,,,,,2023-08-16_08h45.10.716,HF_wild_card,2022.2.4,Win32,60.0528465,5efc6a4ba720250009909dfe,64d2fd46c836a06233681665,64dc7e79463047e8be8a3d6b,,,,,,,sngl,resources/Empty.png,resources/DR.BMP,WildCard_NonEx,0.199074131,0.004629601,1,0,0,1.3002,optionRight,55,820,1,17,0,17,0,1,,,,,,,,,,,,,,,,,,,,,,,,,,,,,,,,,,,,,,,
,,,,,,,,2023-08-16_08h45.10.716,HF_wild_card,2022.2.4,Win32,60.0528465,5efc6a4ba720250009909dfe,64d2fd46c836a06233681665,64dc7e79463047e8be8a3d6b,,,,,,,sngl,resources/DR.BMP,resources/Empty.png,WildCard_NonEx,-0.156481425,-0.013888889,1,0,0,1.7614,optionLeft,55,875,1,18,0,18,0,1,,,,,,,,,,,,,,,,,,,,,,,,,,,,,,,,,,,,,,,
,,,,,,,,2023-08-16_08h45.10.716,HF_wild_card,2022.2.4,Win32,60.0528465,5efc6a4ba720250009909dfe,64d2fd46c836a06233681665,64dc7e79463047e8be8a3d6b,,,,,,,decisionTrl,resources/DB.BMP,resources/DBN.BMP,Door4,-0.26851849,-0.045370399,1,0,0,1.379,optionLeft,80,955,1,19,0,19,0,1,,,,,,,,,,,,,,,,,,,,,,,,,,,,,,,,,,,,,,,
,,,,,,,,2023-08-16_08h45.10.716,HF_wild_card,2022.2.4,Win32,60.0528465,5efc6a4ba720250009909dfe,64d2fd46c836a06233681665,64dc7e79463047e8be8a3d6b,,,,,,,decisionTrl,resources/DB.BMP,resources/DBN.BMP,Door4,-0.20370369,-0.053703732,1,0,0,0.8956,optionLeft,80,1035,1,20,0,20,0,1,,,,,,,,,,,,,,,,,,,,,,,,,,,,,,,,,,,,,,,
,,,,,,,,2023-08-16_08h45.10.716,HF_wild_card,2022.2.4,Win32,60.0528465,5efc6a4ba720250009909dfe,64d2fd46c836a06233681665,64dc7e79463047e8be8a3d6b,,,,,,,sngl,resources/DBN.BMP,resources/Empty.png,Door3,-0.195370356,-0.065740755,1,0,0,1.1114,optionLeft,70,1105,1,21,0,21,0,1,,,,,,,,,,,,,,,,,,,,,,,,,,,,,,,,,,,,,,,
,,,,,,,,2023-08-16_08h45.10.716,HF_wild_card,2022.2.4,Win32,60.0528465,5efc6a4ba720250009909dfe,64d2fd46c836a06233681665,64dc7e79463047e8be8a3d6b,,,,,,,decisionTrl,resources/DBN.BMP,resources/DR.BMP,Door3,-0.258333333,-0.062962977,1,0,0,1.1951,optionLeft,70,1175,1,22,0,22,0,1,,,,,,,,,,,,,,,,,,,,,,,,,,,,,,,,,,,,,,,
,,,,,,,,2023-08-16_08h45.10.716,HF_wild_card,2022.2.4,Win32,60.0528465,5efc6a4ba720250009909dfe,64d2fd46c836a06233681665,64dc7e79463047e8be8a3d6b,,,,,,,decisionTrl,resources/DR.BMP,resources/DY.BMP,Door2,0.210185242,-0.023148176,1,0,0,1.0631,optionRight,20,1195,1,23,0,23,0,1,,,,,,,,,,,,,,,,,,,,,,,,,,,,,,,,,,,,,,,
,,,,,,,,2023-08-16_08h45.10.716,HF_wild_card,2022.2.4,Win32,60.0528465,5efc6a4ba720250009909dfe,64d2fd46c836a06233681665,64dc7e79463047e8be8a3d6b,,,,,,,sngl,resources/Empty.png,resources/DB.BMP,Door4,0.175,-0.011111111,1,0,0,1.0449,optionRight,60,1255,1,24,0,24,0,1,,,,,,,,,,,,,,,,,,,,,,,,,,,,,,,,,,,,,,,
,,,,,,,,2023-08-16_08h45.10.716,HF_wild_card,2022.2.4,Win32,60.0528465,5efc6a4ba720250009909dfe,64d2fd46c836a06233681665,64dc7e79463047e8be8a3d6b,,,,,,,decisionTrl,resources/DG.BMP,resources/DY.BMP,Door1,-0.326851824,-0.058333333,1,0,0,1.2284,optionLeft,30,1285,1,25,0,25,0,1,,,,,,,,,,,,,,,,,,,,,,,,,,,,,,,,,,,,,,,
,,,,,,,,2023-08-16_08h45.10.716,HF_wild_card,2022.2.4,Win32,60.0528465,5efc6a4ba720250009909dfe,64d2fd46c836a06233681665,64dc7e79463047e8be8a3d6b,,,,,,,ctch,resources/DBN.BMP,resources/DY.BMP,Door3,-0.249074046,-0.051851866,1,0,0,1.4784,optionLeft,70,1355,1,26,0,26,0,1,,,,,,,,,,,,,,,,,,,,,,,,,,,,,,,,,,,,,,,
,,,,,,,,2023-08-16_08h45.10.716,HF_wild_card,2022.2.4,Win32,60.0528465,5efc6a4ba720250009909dfe,64d2fd46c836a06233681665,64dc7e79463047e8be8a3d6b,,,,,,,decisionTrl,resources/DB.BMP,resources/DBN.BMP,Door4,-0.236111111,-0.048148176,1,0,0,1.1451,optionLeft,60,1415,1,27,0,27,0,1,,,,,,,,,,,,,,,,,,,,,,,,,,,,,,,,,,,,,,,
,,,,,,,,2023-08-16_08h45.10.716,HF_wild_card,2022.2.4,Win32,60.0528465,5efc6a4ba720250009909dfe,64d2fd46c836a06233681665,64dc7e79463047e8be8a3d6b,,,,,,,decisionTrl,resources/DBN.BMP,resources/DB.BMP,Door4,0.319444444,0.000925912,1,0,0,1.53,optionRight,60,1475,1,28,0,28,0,1,,,,,,,,,,,,,,,,,,,,,,,,,,,,,,,,,,,,,,,
,,,,,,,,2023-08-16_08h45.10.716,HF_wild_card,2022.2.4,Win32,60.0528465,5efc6a4ba720250009909dfe,64d2fd46c836a06233681665,64dc7e79463047e8be8a3d6b,,,,,,,decisionTrl,resources/DG.BMP,resources/DY.BMP,Door1,-0.212962935,-0.039814843,1,0,0,1.6281,optionLeft,30,1505,1,29,0,29,0,1,,,,,,,,,,,,,,,,,,,,,,,,,,,,,,,,,,,,,,,
,,,,,,,,2023-08-16_08h45.10.716,HF_wild_card,2022.2.4,Win32,60.0528465,5efc6a4ba720250009909dfe,64d2fd46c836a06233681665,64dc7e79463047e8be8a3d6b,,,,,,,decisionTrl,resources/DB.BMP,resources/DR.BMP,Door4,-0.25,-0.064814843,1,0,0,1.163,optionLeft,80,1585,1,30,0,30,0,1,,,,,,,,,,,,,,,,,,,,,,,,,,,,,,,,,,,,,,,
,,,,,,,,2023-08-16_08h45.10.716,HF_wild_card,2022.2.4,Win32,60.0528465,5efc6a4ba720250009909dfe,64d2fd46c836a06233681665,64dc7e79463047e8be8a3d6b,,,,,,,decisionTrl,resources/DBN.BMP,resources/DB.BMP,Door4,0.312037065,-0.005555556,1,0,0,1.2956,optionRight,80,1665,1,31,0,31,0,1,,,,,,,,,,,,,,,,,,,,,,,,,,,,,,,,,,,,,,,
,,,,,,,,2023-08-16_08h45.10.716,HF_wild_card,2022.2.4,Win32,60.0528465,5efc6a4ba720250009909dfe,64d2fd46c836a06233681665,64dc7e79463047e8be8a3d6b,,,,,,,ctch,resources/DY.BMP,resources/DBN.BMP,Door2,-0.187037023,-0.005555556,1,0,0,1.5109,optionLeft,20,1685,1,32,0,32,0,1,,,,,,,,,,,,,,,,,,,,,,,,,,,,,,,,,,,,,,,
,,,,,,,,2023-08-16_08h45.10.716,HF_wild_card,2022.2.4,Win32,60.0528465,5efc6a4ba720250009909dfe,64d2fd46c836a06233681665,64dc7e79463047e8be8a3d6b,,,,,,,sngl,resources/DY.BMP,resources/Empty.png,Door2,-0.145370314,-0.011111111,1,0,0,1.4457,optionLeft,40,1725,1,33,0,33,0,1,,,,,,,,,,,,,,,,,,,,,,,,,,,,,,,,,,,,,,,
,,,,,,,,2023-08-16_08h45.10.716,HF_wild_card,2022.2.4,Win32,60.0528465,5efc6a4ba720250009909dfe,64d2fd46c836a06233681665,64dc7e79463047e8be8a3d6b,,,,,,,decisionTrl,resources/DG.BMP,resources/DY.BMP,Door1,-0.276851824,-0.038888889,1,0,0,2.0117,optionLeft,30,1755,1,34,0,34,0,1,,,,,,,,,,,,,,,,,,,,,,,,,,,,,,,,,,,,,,,
,,,,,,,,2023-08-16_08h45.10.716,HF_wild_card,2022.2.4,Win32,60.0528465,5efc6a4ba720250009909dfe,64d2fd46c836a06233681665,64dc7e79463047e8be8a3d6b,,,,,,,sngl,resources/DR.BMP,resources/Empty.png,WildCard_NonEx,-0.227777778,-0.041666667,1,0,0,1.0119,optionLeft,45,1800,1,35,0,35,0,1,,,,,,,,,,,,,,,,,,,,,,,,,,,,,,,,,,,,,,,
,,,,,,,,2023-08-16_08h45.10.716,HF_wild_card,2022.2.4,Win32,60.0528465,5efc6a4ba720250009909dfe,64d2fd46c836a06233681665,64dc7e79463047e8be8a3d6b,,,,,,,decisionTrl,resources/DR.BMP,resources/DBN.BMP,Door3,0.238888889,0.01851849,1,0,0,1.0791,optionRight,70,1870,1,36,0,36,0,1,,,,,,,,,,,,,,,,,,,,,,,,,,,,,,,,,,,,,,,
,,,,,,,,2023-08-16_08h45.10.716,HF_wild_card,2022.2.4,Win32,60.0528465,5efc6a4ba720250009909dfe,64d2fd46c836a06233681665,64dc7e79463047e8be8a3d6b,,,,,,,ctch,resources/DG.BMP,resources/DB.BMP,Door4,0.241666667,0.05370369,1,0,0,1.0459,optionRight,80,1950,1,37,0,37,0,1,,,,,,,,,,,,,,,,,,,,,,,,,,,,,,,,,,,,,,,
,,,,,,,,2023-08-16_08h45.10.716,HF_wild_card,2022.2.4,Win32,60.0528465,5efc6a4ba720250009909dfe,64d2fd46c836a06233681665,64dc7e79463047e8be8a3d6b,,,,,,,decisionTrl,resources/DY.BMP,resources/DG.BMP,Door2,-0.233333333,-0.037962977,1,0,0,2.1618,optionLeft,20,1970,1,38,0,38,0,1,,,,,,,,,,,,,,,,,,,,,,,,,,,,,,,,,,,,,,,
,,,,,,,,2023-08-16_08h45.10.716,HF_wild_card,2022.2.4,Win32,60.0528465,5efc6a4ba720250009909dfe,64d2fd46c836a06233681665,64dc7e79463047e8be8a3d6b,,,,,,,decisionTrl,resources/DBN.BMP,resources/DB.BMP,Door4,0.258333333,0.007407379,1,0,0,1.2792,optionRight,60,2030,1,39,0,39,0,1,,,,,,,,,,,,,,,,,,,,,,,,,,,,,,,,,,,,,,,
,,,,,,,,2023-08-16_08h45.10.716,HF_wild_card,2022.2.4,Win32,60.0528465,5efc6a4ba720250009909dfe,64d2fd46c836a06233681665,64dc7e79463047e8be8a3d6b,,,,,,,decisionTrl,resources/DY.BMP,resources/DG.BMP,Door1,0.243518575,0.007407379,1,0,0,1.3457,optionRight,30,2060,1,40,0,40,0,1,,,,,,,,,,,,,,,,,,,,,,,,,,,,,,,,,,,,,,,
,,,,,,,,2023-08-16_08h45.10.716,HF_wild_card,2022.2.4,Win32,60.0528465,5efc6a4ba720250009909dfe,64d2fd46c836a06233681665,64dc7e79463047e8be8a3d6b,,,,,,,decisionTrl,resources/DY.BMP,resources/DG.BMP,Door2,-0.197222222,-0.023148176,1,0,0,1.8781,optionLeft,20,2080,1,41,0,41,0,1,,,,,,,,,,,,,,,,,,,,,,,,,,,,,,,,,,,,,,,
,,,,,,,,2023-08-16_08h45.10.716,HF_wild_card,2022.2.4,Win32,60.0528465,5efc6a4ba720250009909dfe,64d2fd46c836a06233681665,64dc7e79463047e8be8a3d6b,,,,,,,sngl,resources/Empty.png,resources/DR.BMP,WildCard_NonEx,0.175,0.004629601,1,0,0,1.0291,optionRight,45,2125,1,42,0,42,0,1,,,,,,,,,,,,,,,,,,,,,,,,,,,,,,,,,,,,,,,
,,,,,,,,2023-08-16_08h45.10.716,HF_wild_card,2022.2.4,Win32,60.0528465,5efc6a4ba720250009909dfe,64d2fd46c836a06233681665,64dc7e79463047e8be8a3d6b,,,,,,,ctch,resources/DB.BMP,resources/DG.BMP,Door4,-0.248148134,-0.057407422,1,0,0,1.1452,optionLeft,80,2205,1,43,0,43,0,1,,,,,,,,,,,,,,,,,,,,,,,,,,,,,,,,,,,,,,,
,,,,,,,,2023-08-16_08h45.10.716,HF_wild_card,2022.2.4,Win32,60.0528465,5efc6a4ba720250009909dfe,64d2fd46c836a06233681665,64dc7e79463047e8be8a3d6b,,,,,,,,,,,,,,,,,,,,,,,,,,0,0,0,0,1,,,,,,,,,,,,,,,,,,,,,,,,,,,,,,,,,,
,,,,,,,,2023-08-16_08h45.10.716,HF_wild_card,2022.2.4,Win32,60.0528465,5efc6a4ba720250009909dfe,64d2fd46c836a06233681665,64dc7e79463047e8be8a3d6b,,,,,,,sngl,resources/Empty.png,resources/DB.BMP,Door4,0.208333333,-0.038888889,1,0,0,2.2658,optionRight,80,2285,2,0,0,0,0,1,,,,,,,,,,,,,,,,,,,,,,,,,,,,,,,,,,,,,,,
,,,,,,,,2023-08-16_08h45.10.716,HF_wild_card,2022.2.4,Win32,60.0528465,5efc6a4ba720250009909dfe,64d2fd46c836a06233681665,64dc7e79463047e8be8a3d6b,,,,,,,decisionTrl,resources/DB.BMP,resources/DBN.BMP,Door4,-0.295370356,-0.067592621,1,0,0,1.012,optionLeft,60,2345,2,1,0,1,0,1,,,,,,,,,,,,,,,,,,,,,,,,,,,,,,,,,,,,,,,
,,,,,,,,2023-08-16_08h45.10.716,HF_wild_card,2022.2.4,Win32,60.0528465,5efc6a4ba720250009909dfe,64d2fd46c836a06233681665,64dc7e79463047e8be8a3d6b,,,,,,,ctch,resources/DY.BMP,resources/DBN.BMP,Door3,0.280555556,-0.005555556,1,0,0,0.9968,optionRight,70,2415,2,2,0,2,0,1,,,,,,,,,,,,,,,,,,,,,,,,,,,,,,,,,,,,,,,
,,,,,,,,2023-08-16_08h45.10.716,HF_wild_card,2022.2.4,Win32,60.0528465,5efc6a4ba720250009909dfe,64d2fd46c836a06233681665,64dc7e79463047e8be8a3d6b,,,,,,,ctch,resources/DB.BMP,resources/DG.BMP,Door4,-0.357407379,-0.051851866,1,0,0,1.0447,optionLeft,80,2495,2,3,0,3,0,1,,,,,,,,,,,,,,,,,,,,,,,,,,,,,,,,,,,,,,,
,,,,,,,,2023-08-16_08h45.10.716,HF_wild_card,2022.2.4,Win32,60.0528465,5efc6a4ba720250009909dfe,64d2fd46c836a06233681665,64dc7e79463047e8be8a3d6b,,,,,,,sngl,resources/Empty.png,resources/DY.BMP,Door2,0.198148176,0.050925912,1,0,0,0.929,optionRight,40,2535,2,4,0,4,0,1,,,,,,,,,,,,,,,,,,,,,,,,,,,,,,,,,,,,,,,
,,,,,,,,2023-08-16_08h45.10.716,HF_wild_card,2022.2.4,Win32,60.0528465,5efc6a4ba720250009909dfe,64d2fd46c836a06233681665,64dc7e79463047e8be8a3d6b,,,,,,,decisionTrl,resources/DBN.BMP,resources/DB.BMP,Door4,0.275925954,0.007407379,1,0,0,1.0114,optionRight,60,2595,2,5,0,5,0,1,,,,,,,,,,,,,,,,,,,,,,,,,,,,,,,,,,,,,,,
,,,,,,,,2023-08-16_08h45.10.716,HF_wild_card,2022.2.4,Win32,60.0528465,5efc6a4ba720250009909dfe,64d2fd46c836a06233681665,64dc7e79463047e8be8a3d6b,,,,,,,decisionTrl,resources/DG.BMP,resources/DY.BMP,Door2,0.169444444,0.008333333,1,0,0,2.6438,optionRight,40,2635,2,6,0,6,0,1,,,,,,,,,,,,,,,,,,,,,,,,,,,,,,,,,,,,,,,
,,,,,,,,2023-08-16_08h45.10.716,HF_wild_card,2022.2.4,Win32,60.0528465,5efc6a4ba720250009909dfe,64d2fd46c836a06233681665,64dc7e79463047e8be8a3d6b,,,,,,,decisionTrl,resources/DY.BMP,resources/DG.BMP,Door2,-0.244444444,-0.013888889,1,0,0,0.9956,optionLeft,20,2655,2,7,0,7,0,1,,,,,,,,,,,,,,,,,,,,,,,,,,,,,,,,,,,,,,,
,,,,,,,,2023-08-16_08h45.10.716,HF_wild_card,2022.2.4,Win32,60.0528465,5efc6a4ba720250009909dfe,64d2fd46c836a06233681665,64dc7e79463047e8be8a3d6b,,,,,,,decisionTrl,resources/DG.BMP,resources/DY.BMP,Door2,0.253703732,0.013888889,1,0,0,1.6788,optionRight,20,2675,2,8,0,8,0,1,,,,,,,,,,,,,,,,,,,,,,,,,,,,,,,,,,,,,,,
,,,,,,,,2023-08-16_08h45.10.716,HF_wild_card,2022.2.4,Win32,60.0528465,5efc6a4ba720250009909dfe,64d2fd46c836a06233681665,64dc7e79463047e8be8a3d6b,,,,,,,decisionTrl,resources/DB.BMP,resources/DR.BMP,Door4,-0.265740712,-0.027777778,1,0,0,0.9775,optionLeft,60,2735,2,9,0,9,0,1,,,,,,,,,,,,,,,,,,,,,,,,,,,,,,,,,,,,,,,
,,,,,,,,2023-08-16_08h45.10.716,HF_wild_card,2022.2.4,Win32,60.0528465,5efc6a4ba720250009909dfe,64d2fd46c836a06233681665,64dc7e79463047e8be8a3d6b,,,,,,,decisionTrl,resources/DB.BMP,resources/DBN.BMP,Door4,-0.4,-0.019444444,1,0,0,1.5126,optionLeft,60,2795,2,10,0,10,0,1,,,,,,,,,,,,,,,,,,,,,,,,,,,,,,,,,,,,,,,
,,,,,,,,2023-08-16_08h45.10.716,HF_wild_card,2022.2.4,Win32,60.0528465,5efc6a4ba720250009909dfe,64d2fd46c836a06233681665,64dc7e79463047e8be8a3d6b,,,,,,,ctch,resources/DG.BMP,resources/DB.BMP,Door4,0.202777778,-0.026851866,1,0,0,1.3622,optionRight,60,2855,2,11,0,11,0,1,,,,,,,,,,,,,,,,,,,,,,,,,,,,,,,,,,,,,,,
,,,,,,,,2023-08-16_08h45.10.716,HF_wild_card,2022.2.4,Win32,60.0528465,5efc6a4ba720250009909dfe,64d2fd46c836a06233681665,64dc7e79463047e8be8a3d6b,,,,,,,decisionTrl,resources/DG.BMP,resources/DY.BMP,Door1,-0.257407379,-0.016666667,1,0,0,1.8289,optionLeft,30,2885,2,12,0,12,0,1,,,,,,,,,,,,,,,,,,,,,,,,,,,,,,,,,,,,,,,
,,,,,,,,2023-08-16_08h45.10.716,HF_wild_card,2022.2.4,Win32,60.0528465,5efc6a4ba720250009909dfe,64d2fd46c836a06233681665,64dc7e79463047e8be8a3d6b,,,,,,,sngl,resources/Empty.png,resources/DG.BMP,Door1,0.223148176,0.001851824,1,0,0,0.9127,optionRight,30,2915,2,13,0,13,0,1,,,,,,,,,,,,,,,,,,,,,,,,,,,,,,,,,,,,,,,
,,,,,,,,2023-08-16_08h45.10.716,HF_wild_card,2022.2.4,Win32,60.0528465,5efc6a4ba720250009909dfe,64d2fd46c836a06233681665,64dc7e79463047e8be8a3d6b,,,,,,,sngl,resources/DG.BMP,resources/Empty.png,Door1,-0.29351849,-0.025925954,1,0,0,0.8611,optionLeft,30,2945,2,14,0,14,0,1,,,,,,,,,,,,,,,,,,,,,,,,,,,,,,,,,,,,,,,
,,,,,,,,2023-08-16_08h45.10.716,HF_wild_card,2022.2.4,Win32,60.0528465,5efc6a4ba720250009909dfe,64d2fd46c836a06233681665,64dc7e79463047e8be8a3d6b,,,,,,,decisionTrl,resources/DB.BMP,resources/DBN.BMP,Door4,-0.311111111,-0.043518533,1,0,0,1.1295,optionLeft,80,3025,2,15,0,15,0,1,,,,,,,,,,,,,,,,,,,,,,,,,,,,,,,,,,,,,,,
,,,,,,,,2023-08-16_08h45.10.716,HF_wild_card,2022.2.4,Win32,60.0528465,5efc6a4ba720250009909dfe,64d2fd46c836a06233681665,64dc7e79463047e8be8a3d6b,,,,,,,decisionTrl,resources/DY.BMP,resources/DG.BMP,Door2,-0.21851849,-0.036111111,1,0,0,1.7786,optionLeft,40,3065,2,16,0,16,0,1,,,,,,,,,,,,,,,,,,,,,,,,,,,,,,,,,,,,,,,
,,,,,,,,2023-08-16_08h45.10.716,HF_wild_card,2022.2.4,Win32,60.0528465,5efc6a4ba720250009909dfe,64d2fd46c836a06233681665,64dc7e79463047e8be8a3d6b,,,,,,,sngl,resources/Empty.png,resources/DBN.BMP,Door3,0.243518575,0.012962935,1,0,0,0.9274,optionRight,70,3135,2,17,0,17,0,1,,,,,,,,,,,,,,,,,,,,,,,,,,,,,,,,,,,,,,,
,,,,,,,,2023-08-16_08h45.10.716,HF_wild_card,2022.2.4,Win32,60.0528465,5efc6a4ba720250009909dfe,64d2fd46c836a06233681665,64dc7e79463047e8be8a3d6b,,,,,,,decisionTrl,resources/DR.BMP,resources/DG.BMP,WildCard_NonEx,-0.216666667,-0.040740755,1,0,0,1.2779,optionLeft,45,3180,2,18,0,18,0,1,,,,,,,,,,,,,,,,,,,,,,,,,,,,,,,,,,,,,,,
,,,,,,,,2023-08-16_08h45.10.716,HF_wild_card,2022.2.4,Win32,60.0528465,5efc6a4ba720250009909dfe,64d2fd46c836a06233681665,64dc7e79463047e8be8a3d6b,,,,,,,decisionTrl,resources/DBN.BMP,resources/DB.BMP,Door4,0.229629686,-0.037962977,1,0,0,1.4622,optionRight,60,3240,2,19,0,19,0,1,,,,,,,,,,,,,,,,,,,,,,,,,,,,,,,,,,,,,,,
,,,,,,,,2023-08-16_08h45.10.716,HF_wild_card,2022.2.4,Win32,60.0528465,5efc6a4ba720250009909dfe,64d2fd46c836a06233681665,64dc7e79463047e8be8a3d6b,,,,,,,sngl,resources/Empty.png,resources/DR.BMP,WildCard_NonEx,0.166666667,-0.012962977,1,0,0,1.0782,optionRight,45,3285,2,20,0,20,0,1,,,,,,,,,,,,,,,,,,,,,,,,,,,,,,,,,,,,,,,
,,,,,,,,2023-08-16_08h45.10.716,HF_wild_card,2022.2.4,Win32,60.0528465,5efc6a4ba720250009909dfe,64d2fd46c836a06233681665,64dc7e79463047e8be8a3d6b,,,,,,,ctch,resources/DG.BMP,resources/DB.BMP,Door4,0.215740797,0.008333333,1,0,0,0.9782,optionRight,80,3365,2,21,0,21,0,1,,,,,,,,,,,,,,,,,,,,,,,,,,,,,,,,,,,,,,,
,,,,,,,,2023-08-16_08h45.10.716,HF_wild_card,2022.2.4,Win32,60.0528465,5efc6a4ba720250009909dfe,64d2fd46c836a06233681665,64dc7e79463047e8be8a3d6b,,,,,,,decisionTrl,resources/DBN.BMP,resources/DR.BMP,Door3,-0.24351849,-0.023148176,1,0,0,0.9298,optionLeft,70,3435,2,22,0,22,0,1,,,,,,,,,,,,,,,,,,,,,,,,,,,,,,,,,,,,,,,
,,,,,,,,2023-08-16_08h45.10.716,HF_wild_card,2022.2.4,Win32,60.0528465,5efc6a4ba720250009909dfe,64d2fd46c836a06233681665,64dc7e79463047e8be8a3d6b,,,,,,,decisionTrl,resources/DR.BMP,resources/DBN.BMP,Door3,0.245370399,0.013888889,1,0,0,1.2958,optionRight,70,3505,2,23,0,23,0,1,,,,,,,,,,,,,,,,,,,,,,,,,,,,,,,,,,,,,,,
,,,,,,,,2023-08-16_08h45.10.716,HF_wild_card,2022.2.4,Win32,60.0528465,5efc6a4ba720250009909dfe,64d2fd46c836a06233681665,64dc7e79463047e8be8a3d6b,,,,,,,decisionTrl,resources/DBN.BMP,resources/DB.BMP,Door4,0.237963019,-0.018518533,1,0,0,1.1447,optionRight,80,3585,2,24,0,24,0,1,,,,,,,,,,,,,,,,,,,,,,,,,,,,,,,,,,,,,,,
,,,,,,,,2023-08-16_08h45.10.716,HF_wild_card,2022.2.4,Win32,60.0528465,5efc6a4ba720250009909dfe,64d2fd46c836a06233681665,64dc7e79463047e8be8a3d6b,,,,,,,sngl,resources/DBN.BMP,resources/Empty.png,Door3,-0.221296268,-0.043518533,1,0,0,0.862,optionLeft,70,3655,2,25,0,25,0,1,,,,,,,,,,,,,,,,,,,,,,,,,,,,,,,,,,,,,,,
,,,,,,,,2023-08-16_08h45.10.716,HF_wild_card,2022.2.4,Win32,60.0528465,5efc6a4ba720250009909dfe,64d2fd46c836a06233681665,64dc7e79463047e8be8a3d6b,,,,,,,ctch,resources/DY.BMP,resources/DBN.BMP,Door3,0.238888889,0.017592578,1,0,0,0.9283,optionRight,70,3725,2,26,0,26,0,1,,,,,,,,,,,,,,,,,,,,,,,,,,,,,,,,,,,,,,,
,,,,,,,,2023-08-16_08h45.10.716,HF_wild_card,2022.2.4,Win32,60.0528465,5efc6a4ba720250009909dfe,64d2fd46c836a06233681665,64dc7e79463047e8be8a3d6b,,,,,,,decisionTrl,resources/DY.BMP,resources/DG.BMP,Door1,0.174074131,0.016666667,1,0,0,1.4625,optionRight,30,3755,2,27,0,27,0,1,,,,,,,,,,,,,,,,,,,,,,,,,,,,,,,,,,,,,,,
,,,,,,,,2023-08-16_08h45.10.716,HF_wild_card,2022.2.4,Win32,60.0528465,5efc6a4ba720250009909dfe,64d2fd46c836a06233681665,64dc7e79463047e8be8a3d6b,,,,,,,ctch,resources/DBN.BMP,resources/DY.BMP,Door3,-0.3,-0.008333333,1,0,0,1.279,optionLeft,70,3825,2,28,0,28,0,1,,,,,,,,,,,,,,,,,,,,,,,,,,,,,,,,,,,,,,,
,,,,,,,,2023-08-16_08h45.10.716,HF_wild_card,2022.2.4,Win32,60.0528465,5efc6a4ba720250009909dfe,64d2fd46c836a06233681665,64dc7e79463047e8be8a3d6b,,,,,,,sngl,resources/DY.BMP,resources/Empty.png,Door2,-0.271296268,-0.034259288,1,0,0,0.9634,optionLeft,20,3845,2,29,0,29,0,1,,,,,,,,,,,,,,,,,,,,,,,,,,,,,,,,,,,,,,,
,,,,,,,,2023-08-16_08h45.10.716,HF_wild_card,2022.2.4,Win32,60.0528465,5efc6a4ba720250009909dfe,64d2fd46c836a06233681665,64dc7e79463047e8be8a3d6b,,,,,,,decisionTrl,resources/DY.BMP,resources/DG.BMP,Door1,0.242592621,-0.002777778,1,0,0,2.9291,optionRight,30,3875,2,30,0,30,0,1,,,,,,,,,,,,,,,,,,,,,,,,,,,,,,,,,,,,,,,
,,,,,,,,2023-08-16_08h45.10.716,HF_wild_card,2022.2.4,Win32,60.0528465,5efc6a4ba720250009909dfe,64d2fd46c836a06233681665,64dc7e79463047e8be8a3d6b,,,,,,,decisionTrl,resources/DG.BMP,resources/DR.BMP,WildCard_NonEx,0.217592621,-0.002777778,1,0,0,1.4383,optionRight,45,3920,2,31,0,31,0,1,,,,,,,,,,,,,,,,,,,,,,,,,,,,,,,,,,,,,,,
,,,,,,,,2023-08-16_08h45.10.716,HF_wild_card,2022.2.4,Win32,60.0528465,5efc6a4ba720250009909dfe,64d2fd46c836a06233681665,64dc7e79463047e8be8a3d6b,,,,,,,decisionTrl,resources/DB.BMP,resources/DBN.BMP,Door4,-0.264814801,-0.029629644,1,0,0,1.3778,optionLeft,60,3980,2,32,0,32,0,1,,,,,,,,,,,,,,,,,,,,,,,,,,,,,,,,,,,,,,,
,,,,,,,,2023-08-16_08h45.10.716,HF_wild_card,2022.2.4,Win32,60.0528465,5efc6a4ba720250009909dfe,64d2fd46c836a06233681665,64dc7e79463047e8be8a3d6b,,,,,,,sngl,resources/Empty.png,resources/DR.BMP,WildCard_NonEx,0.214814843,0.002777778,1,0,0,0.9461,optionRight,55,4035,2,33,0,33,0,1,,,,,,,,,,,,,,,,,,,,,,,,,,,,,,,,,,,,,,,
,,,,,,,,2023-08-16_08h45.10.716,HF_wild_card,2022.2.4,Win32,60.0528465,5efc6a4ba720250009909dfe,64d2fd46c836a06233681665,64dc7e79463047e8be8a3d6b,,,,,,,decisionTrl,resources/DBN.BMP,resources/DB.BMP,Door4,0.201851908,-0.041666667,1,0,0,1.1448,optionRight,80,4115,2,34,0,34,0,1,,,,,,,,,,,,,,,,,,,,,,,,,,,,,,,,,,,,,,,
,,,,,,,,2023-08-16_08h45.10.716,HF_wild_card,2022.2.4,Win32,60.0528465,5efc6a4ba720250009909dfe,64d2fd46c836a06233681665,64dc7e79463047e8be8a3d6b,,,,,,,decisionTrl,resources/DG.BMP,resources/DY.BMP,Door2,0.204629686,-0.040740755,1,0,0,2.7114,optionRight,40,4155,2,35,0,35,0,1,,,,,,,,,,,,,,,,,,,,,,,,,,,,,,,,,,,,,,,
,,,,,,,,2023-08-16_08h45.10.716,HF_wild_card,2022.2.4,Win32,60.0528465,5efc6a4ba720250009909dfe,64d2fd46c836a06233681665,64dc7e79463047e8be8a3d6b,,,,,,,decisionTrl,resources/DR.BMP,resources/DB.BMP,Door4,0.187037065,0.023148134,1,0,0,1.1871,optionRight,80,4235,2,36,0,36,0,1,,,,,,,,,,,,,,,,,,,,,,,,,,,,,,,,,,,,,,,
,,,,,,,,2023-08-16_08h45.10.716,HF_wild_card,2022.2.4,Win32,60.0528465,5efc6a4ba720250009909dfe,64d2fd46c836a06233681665,64dc7e79463047e8be8a3d6b,,,,,,,ctch,resources/DB.BMP,resources/DG.BMP,Door4,-0.283333333,-0.022222222,1,0,0,1.0452,optionLeft,80,4315,2,37,0,37,0,1,,,,,,,,,,,,,,,,,,,,,,,,,,,,,,,,,,,,,,,
,,,,,,,,2023-08-16_08h45.10.716,HF_wild_card,2022.2.4,Win32,60.0528465,5efc6a4ba720250009909dfe,64d2fd46c836a06233681665,64dc7e79463047e8be8a3d6b,,,,,,,sngl,resources/DB.BMP,resources/Empty.png,Door4,-0.251851824,-0.028703732,1,0,0,0.7948,optionLeft,60,4375,2,38,0,38,0,1,,,,,,,,,,,,,,,,,,,,,,,,,,,,,,,,,,,,,,,
,,,,,,,,2023-08-16_08h45.10.716,HF_wild_card,2022.2.4,Win32,60.0528465,5efc6a4ba720250009909dfe,64d2fd46c836a06233681665,64dc7e79463047e8be8a3d6b,,,,,,,sngl,resources/DR.BMP,resources/Empty.png,WildCard_NonEx,-0.302777778,-0.037962977,1,0,0,0.897,optionLeft,45,4420,2,39,0,39,0,1,,,,,,,,,,,,,,,,,,,,,,,,,,,,,,,,,,,,,,,
,,,,,,,,2023-08-16_08h45.10.716,HF_wild_card,2022.2.4,Win32,60.0528465,5efc6a4ba720250009909dfe,64d2fd46c836a06233681665,64dc7e79463047e8be8a3d6b,,,,,,,ctch,resources/DBN.BMP,resources/DY.BMP,Door3,-0.223148134,-0.042592621,1,0,0,1.3955,optionLeft,70,4490,2,40,0,40,0,1,,,,,,,,,,,,,,,,,,,,,,,,,,,,,,,,,,,,,,,
,,,,,,,,2023-08-16_08h45.10.716,HF_wild_card,2022.2.4,Win32,60.0528465,5efc6a4ba720250009909dfe,64d2fd46c836a06233681665,64dc7e79463047e8be8a3d6b,,,,,,,decisionTrl,resources/DY.BMP,resources/DR.BMP,WildCard_NonEx,0.300925954,0.036111111,1,0,0,2.2277,optionRight,55,4545,2,41,0,41,0,1,,,,,,,,,,,,,,,,,,,,,,,,,,,,,,,,,,,,,,,
,,,,,,,,2023-08-16_08h45.10.716,HF_wild_card,2022.2.4,Win32,60.0528465,5efc6a4ba720250009909dfe,64d2fd46c836a06233681665,64dc7e79463047e8be8a3d6b,,,,,,,sngl,resources/DR.BMP,resources/Empty.png,WildCard_NonEx,-0.20370369,-0.030555556,1,0,0,0.8931,optionLeft,55,4600,2,42,0,42,0,1,,,,,,,,,,,,,,,,,,,,,,,,,,,,,,,,,,,,,,,
,,,,,,,,2023-08-16_08h45.10.716,HF_wild_card,2022.2.4,Win32,60.0528465,5efc6a4ba720250009909dfe,64d2fd46c836a06233681665,64dc7e79463047e8be8a3d6b,,,,,,,decisionTrl,resources/DR.BMP,resources/DY.BMP,WildCard_NonEx,-0.226851824,-0.025925954,1,0,0,1.0617,optionLeft,45,4645,2,43,0,43,0,1,,,,,,,,,,,,,,,,,,,,,,,,,,,,,,,,,,,,,,,
,,,,,,,,2023-08-16_08h45.10.716,HF_wild_card,2022.2.4,Win32,60.0528465,5efc6a4ba720250009909dfe,64d2fd46c836a06233681665,64dc7e79463047e8be8a3d6b,,,,,,,,,,,,,,,,,,,,,,,,,,1,0,1,0,1,,,,,,,,,,,,,,,,,,,,,,,,,,,,,,,,,,
,,,,,,,,2023-08-16_08h45.10.716,HF_wild_card,2022.2.4,Win32,60.0528465,5efc6a4ba720250009909dfe,64d2fd46c836a06233681665,64dc7e79463047e8be8a3d6b,,,,,,,ctch,resources/DY.BMP,resources/DBN.BMP,Door3,0.237963019,-0.135185199,1,0,0,1.1687,optionRight,70,4715,3,0,0,0,0,1,,,,,,,,,,,,,,,,,,,,,,,,,,,,,,,,,,,,,,,
,,,,,,,,2023-08-16_08h45.10.716,HF_wild_card,2022.2.4,Win32,60.0528465,5efc6a4ba720250009909dfe,64d2fd46c836a06233681665,64dc7e79463047e8be8a3d6b,,,,,,,sngl,resources/DY.BMP,resources/Empty.png,Door2,-0.230555556,-0.063888889,1,0,0,0.9294,optionLeft,40,4755,3,1,0,1,0,1,,,,,,,,,,,,,,,,,,,,,,,,,,,,,,,,,,,,,,,
,,,,,,,,2023-08-16_08h45.10.716,HF_wild_card,2022.2.4,Win32,60.0528465,5efc6a4ba720250009909dfe,64d2fd46c836a06233681665,64dc7e79463047e8be8a3d6b,,,,,,,decisionTrl,resources/DB.BMP,resources/DBN.BMP,Door4,-0.325925912,-0.032407422,1,0,0,1.1287,optionLeft,80,4835,3,2,0,2,0,1,,,,,,,,,,,,,,,,,,,,,,,,,,,,,,,,,,,,,,,
,,,,,,,,2023-08-16_08h45.10.716,HF_wild_card,2022.2.4,Win32,60.0528465,5efc6a4ba720250009909dfe,64d2fd46c836a06233681665,64dc7e79463047e8be8a3d6b,,,,,,,sngl,resources/DR.BMP,resources/Empty.png,WildCard_NonEx,-0.285185157,-0.045370399,1,0,0,0.9447,optionLeft,45,4880,3,3,0,3,0,1,,,,,,,,,,,,,,,,,,,,,,,,,,,,,,,,,,,,,,,
,,,,,,,,2023-08-16_08h45.10.716,HF_wild_card,2022.2.4,Win32,60.0528465,5efc6a4ba720250009909dfe,64d2fd46c836a06233681665,64dc7e79463047e8be8a3d6b,,,,,,,ctch,resources/DG.BMP,resources/DB.BMP,Door4,0.251851908,0.001851824,1,0,0,1.1283,optionRight,80,4960,3,4,0,4,0,1,,,,,,,,,,,,,,,,,,,,,,,,,,,,,,,,,,,,,,,
,,,,,,,,2023-08-16_08h45.10.716,HF_wild_card,2022.2.4,Win32,60.0528465,5efc6a4ba720250009909dfe,64d2fd46c836a06233681665,64dc7e79463047e8be8a3d6b,,,,,,,sngl,resources/Empty.png,resources/DB.BMP,Door4,0.201851908,-0.001851866,1,0,0,0.8789,optionRight,60,5020,3,5,0,5,0,1,,,,,,,,,,,,,,,,,,,,,,,,,,,,,,,,,,,,,,,
,,,,,,,,2023-08-16_08h45.10.716,HF_wild_card,2022.2.4,Win32,60.0528465,5efc6a4ba720250009909dfe,64d2fd46c836a06233681665,64dc7e79463047e8be8a3d6b,,,,,,,ctch,resources/DY.BMP,resources/DBN.BMP,Door3,0.254629686,-0.024074088,1,0,0,1.1945,optionRight,70,5090,3,6,0,6,0,1,,,,,,,,,,,,,,,,,,,,,,,,,,,,,,,,,,,,,,,
,,,,,,,,2023-08-16_08h45.10.716,HF_wild_card,2022.2.4,Win32,60.0528465,5efc6a4ba720250009909dfe,64d2fd46c836a06233681665,64dc7e79463047e8be8a3d6b,,,,,,,sngl,resources/DBN.BMP,resources/Empty.png,Door3,-0.319444444,-0.05,1,0,0,0.9277,optionLeft,70,5160,3,7,0,7,0,1,,,,,,,,,,,,,,,,,,,,,,,,,,,,,,,,,,,,,,,
,,,,,,,,2023-08-16_08h45.10.716,HF_wild_card,2022.2.4,Win32,60.0528465,5efc6a4ba720250009909dfe,64d2fd46c836a06233681665,64dc7e79463047e8be8a3d6b,,,,,,,sngl,resources/Empty.png,resources/DR.BMP,WildCard_NonEx,0.208333333,-0.008333333,1,0,0,1.7245,optionRight,55,5215,3,8,0,8,0,1,,,,,,,,,,,,,,,,,,,,,,,,,,,,,,,,,,,,,,,
,,,,,,,,2023-08-16_08h45.10.716,HF_wild_card,2022.2.4,Win32,60.0528465,5efc6a4ba720250009909dfe,64d2fd46c836a06233681665,64dc7e79463047e8be8a3d6b,,,,,,,sngl,resources/Empty.png,resources/DY.BMP,Door2,0.193518575,0.007407379,1,0,0,3.1777,optionRight,20,5235,3,9,0,9,0,1,,,,,,,,,,,,,,,,,,,,,,,,,,,,,,,,,,,,,,,
,,,,,,,,2023-08-16_08h45.10.716,HF_wild_card,2022.2.4,Win32,60.0528465,5efc6a4ba720250009909dfe,64d2fd46c836a06233681665,64dc7e79463047e8be8a3d6b,,,,,,,decisionTrl,resources/DG.BMP,resources/DY.BMP,Door2,0.217592621,-0.001851866,1,0,0,1.3121,optionRight,20,5255,3,10,0,10,0,1,,,,,,,,,,,,,,,,,,,,,,,,,,,,,,,,,,,,,,,
,,,,,,,,2023-08-16_08h45.10.716,HF_wild_card,2022.2.4,Win32,60.0528465,5efc6a4ba720250009909dfe,64d2fd46c836a06233681665,64dc7e79463047e8be8a3d6b,,,,,,,sngl,resources/Empty.png,resources/DR.BMP,WildCard_NonEx,0.191666667,0.023148134,1,0,0,0.9778,optionRight,45,5300,3,11,0,11,0,1,,,,,,,,,,,,,,,,,,,,,,,,,,,,,,,,,,,,,,,
,,,,,,,,2023-08-16_08h45.10.716,HF_wild_card,2022.2.4,Win32,60.0528465,5efc6a4ba720250009909dfe,64d2fd46c836a06233681665,64dc7e79463047e8be8a3d6b,,,,,,,sngl,resources/DB.BMP,resources/Empty.png,Door4,-0.225925912,-0.03148151,1,0,0,0.912,optionLeft,80,5380,3,12,0,12,0,1,,,,,,,,,,,,,,,,,,,,,,,,,,,,,,,,,,,,,,,
,,,,,,,,2023-08-16_08h45.10.716,HF_wild_card,2022.2.4,Win32,60.0528465,5efc6a4ba720250009909dfe,64d2fd46c836a06233681665,64dc7e79463047e8be8a3d6b,,,,,,,decisionTrl,resources/DB.BMP,resources/DR.BMP,Door4,-0.216666667,-0.059259288,1,0,0,1.2797,optionLeft,60,5440,3,13,0,13,0,1,,,,,,,,,,,,,,,,,,,,,,,,,,,,,,,,,,,,,,,
,,,,,,,,2023-08-16_08h45.10.716,HF_wild_card,2022.2.4,Win32,60.0528465,5efc6a4ba720250009909dfe,64d2fd46c836a06233681665,64dc7e79463047e8be8a3d6b,,,,,,,sngl,resources/DR.BMP,resources/Empty.png,WildCard_NonEx,-0.225,-0.083333333,1,0,0,0.912,optionLeft,55,5495,3,14,0,14,0,1,,,,,,,,,,,,,,,,,,,,,,,,,,,,,,,,,,,,,,,
,,,,,,,,2023-08-16_08h45.10.716,HF_wild_card,2022.2.4,Win32,60.0528465,5efc6a4ba720250009909dfe,64d2fd46c836a06233681665,64dc7e79463047e8be8a3d6b,,,,,,,decisionTrl,resources/DB.BMP,resources/DBN.BMP,Door4,-0.224074046,-0.040740755,1,0,0,1.0786,optionLeft,60,5555,3,15,0,15,0,1,,,,,,,,,,,,,,,,,,,,,,,,,,,,,,,,,,,,,,,
,,,,,,,,2023-08-16_08h45.10.716,HF_wild_card,2022.2.4,Win32,60.0528465,5efc6a4ba720250009909dfe,64d2fd46c836a06233681665,64dc7e79463047e8be8a3d6b,,,,,,,decisionTrl,resources/DBN.BMP,resources/DB.BMP,Door4,0.285185242,-0.033333333,1,0,0,1.1451,optionRight,80,5635,3,16,0,16,0,1,,,,,,,,,,,,,,,,,,,,,,,,,,,,,,,,,,,,,,,
,,,,,,,,2023-08-16_08h45.10.716,HF_wild_card,2022.2.4,Win32,60.0528465,5efc6a4ba720250009909dfe,64d2fd46c836a06233681665,64dc7e79463047e8be8a3d6b,,,,,,,decisionTrl,resources/DY.BMP,resources/DG.BMP,Door2,-0.183333333,-0.02129631,1,0,0,1.3947,optionLeft,40,5675,3,17,0,17,0,1,,,,,,,,,,,,,,,,,,,,,,,,,,,,,,,,,,,,,,,
,,,,,,,,2023-08-16_08h45.10.716,HF_wild_card,2022.2.4,Win32,60.0528465,5efc6a4ba720250009909dfe,64d2fd46c836a06233681665,64dc7e79463047e8be8a3d6b,,,,,,,ctch,resources/DBN.BMP,resources/DY.BMP,Door3,-0.291666667,-0.026851866,1,0,0,1.079,optionLeft,70,5745,3,18,0,18,0,1,,,,,,,,,,,,,,,,,,,,,,,,,,,,,,,,,,,,,,,
,,,,,,,,2023-08-16_08h45.10.716,HF_wild_card,2022.2.4,Win32,60.0528465,5efc6a4ba720250009909dfe,64d2fd46c836a06233681665,64dc7e79463047e8be8a3d6b,,,,,,,decisionTrl,resources/DBN.BMP,resources/DB.BMP,Door4,0.3,0.035185157,1,0,0,1.4433,optionRight,60,5805,3,19,0,19,0,1,,,,,,,,,,,,,,,,,,,,,,,,,,,,,,,,,,,,,,,
,,,,,,,,2023-08-16_08h45.10.716,HF_wild_card,2022.2.4,Win32,60.0528465,5efc6a4ba720250009909dfe,64d2fd46c836a06233681665,64dc7e79463047e8be8a3d6b,,,,,,,decisionTrl,resources/DR.BMP,resources/DB.BMP,Door4,0.301851908,0.004629601,1,0,0,1.1444,optionRight,80,5885,3,20,0,20,0,1,,,,,,,,,,,,,,,,,,,,,,,,,,,,,,,,,,,,,,,
,,,,,,,,2023-08-16_08h45.10.716,HF_wild_card,2022.2.4,Win32,60.0528465,5efc6a4ba720250009909dfe,64d2fd46c836a06233681665,64dc7e79463047e8be8a3d6b,,,,,,,decisionTrl,resources/DB.BMP,resources/DBN.BMP,Door3,0.209259288,0.023148134,1,0,0,1.012,optionRight,70,5955,3,21,0,21,0,1,,,,,,,,,,,,,,,,,,,,,,,,,,,,,,,,,,,,,,,
,,,,,,,,2023-08-16_08h45.10.716,HF_wild_card,2022.2.4,Win32,60.0528465,5efc6a4ba720250009909dfe,64d2fd46c836a06233681665,64dc7e79463047e8be8a3d6b,,,,,,,decisionTrl,resources/DG.BMP,resources/DY.BMP,Door2,0.209259288,0.034259245,1,0,0,1.4276,optionRight,40,5995,3,22,0,22,0,1,,,,,,,,,,,,,,,,,,,,,,,,,,,,,,,,,,,,,,,
,,,,,,,,2023-08-16_08h45.10.716,HF_wild_card,2022.2.4,Win32,60.0528465,5efc6a4ba720250009909dfe,64d2fd46c836a06233681665,64dc7e79463047e8be8a3d6b,,,,,,,ctch,resources/DBN.BMP,resources/DY.BMP,Door3,-0.287962935,-0.020370399,1,0,0,0.9637,optionLeft,70,6065,3,23,0,23,0,1,,,,,,,,,,,,,,,,,,,,,,,,,,,,,,,,,,,,,,,
,,,,,,,,2023-08-16_08h45.10.716,HF_wild_card,2022.2.4,Win32,60.0528465,5efc6a4ba720250009909dfe,64d2fd46c836a06233681665,64dc7e79463047e8be8a3d6b,,,,,,,decisionTrl,resources/DG.BMP,resources/DY.BMP,Door2,0.205555556,0.01851849,1,0,0,1.0797,optionRight,40,6105,3,24,0,24,0,1,,,,,,,,,,,,,,,,,,,,,,,,,,,,,,,,,,,,,,,
,,,,,,,,2023-08-16_08h45.10.716,HF_wild_card,2022.2.4,Win32,60.0528465,5efc6a4ba720250009909dfe,64d2fd46c836a06233681665,64dc7e79463047e8be8a3d6b,,,,,,,decisionTrl,resources/DB.BMP,resources/DBN.BMP,Door4,-0.214814801,-0.042592621,1,0,0,1.1132,optionLeft,80,6185,3,25,0,25,0,1,,,,,,,,,,,,,,,,,,,,,,,,,,,,,,,,,,,,,,,
,,,,,,,,2023-08-16_08h45.10.716,HF_wild_card,2022.2.4,Win32,60.0528465,5efc6a4ba720250009909dfe,64d2fd46c836a06233681665,64dc7e79463047e8be8a3d6b,,,,,,,decisionTrl,resources/DR.BMP,resources/DBN.BMP,Door3,0.204629686,0.008333333,1,0,0,0.8794,optionRight,70,6255,3,26,0,26,0,1,,,,,,,,,,,,,,,,,,,,,,,,,,,,,,,,,,,,,,,
,,,,,,,,2023-08-16_08h45.10.716,HF_wild_card,2022.2.4,Win32,60.0528465,5efc6a4ba720250009909dfe,64d2fd46c836a06233681665,64dc7e79463047e8be8a3d6b,,,,,,,decisionTrl,resources/DY.BMP,resources/DG.BMP,Door2,-0.255555556,-0.055555556,1,0,0,1.0119,optionLeft,20,6275,3,27,0,27,0,1,,,,,,,,,,,,,,,,,,,,,,,,,,,,,,,,,,,,,,,
,,,,,,,,2023-08-16_08h45.10.716,HF_wild_card,2022.2.4,Win32,60.0528465,5efc6a4ba720250009909dfe,64d2fd46c836a06233681665,64dc7e79463047e8be8a3d6b,,,,,,,ctch,resources/DB.BMP,resources/DG.BMP,Door4,-0.219444444,-0.041666667,1,0,0,1.0614,optionLeft,60,6335,3,28,0,28,0,1,,,,,,,,,,,,,,,,,,,,,,,,,,,,,,,,,,,,,,,
,,,,,,,,2023-08-16_08h45.10.716,HF_wild_card,2022.2.4,Win32,60.0528465,5efc6a4ba720250009909dfe,64d2fd46c836a06233681665,64dc7e79463047e8be8a3d6b,,,,,,,decisionTrl,resources/DBN.BMP,resources/DR.BMP,Door3,-0.211111111,-0.027777778,1,0,0,0.9622,optionLeft,70,6405,3,29,0,29,0,1,,,,,,,,,,,,,,,,,,,,,,,,,,,,,,,,,,,,,,,
,,,,,,,,2023-08-16_08h45.10.716,HF_wild_card,2022.2.4,Win32,60.0528465,5efc6a4ba720250009909dfe,64d2fd46c836a06233681665,64dc7e79463047e8be8a3d6b,,,,,,,decisionTrl,resources/DR.BMP,resources/DG.BMP,WildCard_NonEx,-0.248148134,-0.03148151,1,0,0,1.0788,optionLeft,55,6460,3,30,0,30,0,1,,,,,,,,,,,,,,,,,,,,,,,,,,,,,,,,,,,,,,,
,,,,,,,,2023-08-16_08h45.10.716,HF_wild_card,2022.2.4,Win32,60.0528465,5efc6a4ba720250009909dfe,64d2fd46c836a06233681665,64dc7e79463047e8be8a3d6b,,,,,,,ctch,resources/DB.BMP,resources/DG.BMP,Door4,-0.248148134,-0.043518533,1,0,0,0.9958,optionLeft,60,6520,3,31,0,31,0,1,,,,,,,,,,,,,,,,,,,,,,,,,,,,,,,,,,,,,,,
,,,,,,,,2023-08-16_08h45.10.716,HF_wild_card,2022.2.4,Win32,60.0528465,5efc6a4ba720250009909dfe,64d2fd46c836a06233681665,64dc7e79463047e8be8a3d6b,,,,,,,sngl,resources/Empty.png,resources/DG.BMP,Door1,0.222222222,-0.007407422,1,0,0,0.8966,optionRight,30,6550,3,32,0,32,0,1,,,,,,,,,,,,,,,,,,,,,,,,,,,,,,,,,,,,,,,
,,,,,,,,2023-08-16_08h45.10.716,HF_wild_card,2022.2.4,Win32,60.0528465,5efc6a4ba720250009909dfe,64d2fd46c836a06233681665,64dc7e79463047e8be8a3d6b,,,,,,,decisionTrl,resources/DBN.BMP,resources/DB.BMP,Door3,-0.165740712,-0.043518533,1,0,0,1.3462,optionLeft,70,6620,3,33,0,33,0,1,,,,,,,,,,,,,,,,,,,,,,,,,,,,,,,,,,,,,,,
,,,,,,,,2023-08-16_08h45.10.716,HF_wild_card,2022.2.4,Win32,60.0528465,5efc6a4ba720250009909dfe,64d2fd46c836a06233681665,64dc7e79463047e8be8a3d6b,,,,,,,decisionTrl,resources/DY.BMP,resources/DG.BMP,Door2,-0.197222222,-0.050925954,1,0,0,1.3129,optionLeft,20,6640,3,34,0,34,0,1,,,,,,,,,,,,,,,,,,,,,,,,,,,,,,,,,,,,,,,
,,,,,,,,2023-08-16_08h45.10.716,HF_wild_card,2022.2.4,Win32,60.0528465,5efc6a4ba720250009909dfe,64d2fd46c836a06233681665,64dc7e79463047e8be8a3d6b,,,,,,,decisionTrl,resources/DBN.BMP,resources/DB.BMP,Door4,0.124074131,-0.03148151,1,0,0,1.5116,optionRight,80,6720,3,35,0,35,0,1,,,,,,,,,,,,,,,,,,,,,,,,,,,,,,,,,,,,,,,
,,,,,,,,2023-08-16_08h45.10.716,HF_wild_card,2022.2.4,Win32,60.0528465,5efc6a4ba720250009909dfe,64d2fd46c836a06233681665,64dc7e79463047e8be8a3d6b,,,,,,,sngl,resources/DG.BMP,resources/Empty.png,Door1,-0.254629601,-0.054629644,1,0,0,0.9794,optionLeft,30,6750,3,36,0,36,0,1,,,,,,,,,,,,,,,,,,,,,,,,,,,,,,,,,,,,,,,
,,,,,,,,2023-08-16_08h45.10.716,HF_wild_card,2022.2.4,Win32,60.0528465,5efc6a4ba720250009909dfe,64d2fd46c836a06233681665,64dc7e79463047e8be8a3d6b,,,,,,,decisionTrl,resources/DY.BMP,resources/DG.BMP,Door1,0.174074131,-0.013888889,1,0,0,1.4947,optionRight,30,6780,3,37,0,37,0,1,,,,,,,,,,,,,,,,,,,,,,,,,,,,,,,,,,,,,,,
,,,,,,,,2023-08-16_08h45.10.716,HF_wild_card,2022.2.4,Win32,60.0528465,5efc6a4ba720250009909dfe,64d2fd46c836a06233681665,64dc7e79463047e8be8a3d6b,,,,,,,decisionTrl,resources/DY.BMP,resources/DR.BMP,WildCard_NonEx,0.224074131,-0.051851866,1,0,0,1.1779,optionRight,45,6825,3,38,0,38,0,1,,,,,,,,,,,,,,,,,,,,,,,,,,,,,,,,,,,,,,,
,,,,,,,,2023-08-16_08h45.10.716,HF_wild_card,2022.2.4,Win32,60.0528465,5efc6a4ba720250009909dfe,64d2fd46c836a06233681665,64dc7e79463047e8be8a3d6b,,,,,,,decisionTrl,resources/DG.BMP,resources/DR.BMP,WildCard_NonEx,0.25,0.01851849,1,0,0,0.9629,optionRight,45,6870,3,39,0,39,0,1,,,,,,,,,,,,,,,,,,,,,,,,,,,,,,,,,,,,,,,
,,,,,,,,2023-08-16_08h45.10.716,HF_wild_card,2022.2.4,Win32,60.0528465,5efc6a4ba720250009909dfe,64d2fd46c836a06233681665,64dc7e79463047e8be8a3d6b,,,,,,,ctch,resources/DG.BMP,resources/DB.BMP,Door4,0.15648151,-0.011111111,1,0,0,1.2117,optionRight,60,6930,3,40,0,40,0,1,,,,,,,,,,,,,,,,,,,,,,,,,,,,,,,,,,,,,,,
,,,,,,,,2023-08-16_08h45.10.716,HF_wild_card,2022.2.4,Win32,60.0528465,5efc6a4ba720250009909dfe,64d2fd46c836a06233681665,64dc7e79463047e8be8a3d6b,,,,,,,decisionTrl,resources/DR.BMP,resources/DY.BMP,WildCard_NonEx,-0.160185157,-0.041666667,1,0,0,1.7617,optionLeft,45,6975,3,41,0,41,0,1,,,,,,,,,,,,,,,,,,,,,,,,,,,,,,,,,,,,,,,
,,,,,,,,2023-08-16_08h45.10.716,HF_wild_card,2022.2.4,Win32,60.0528465,5efc6a4ba720250009909dfe,64d2fd46c836a06233681665,64dc7e79463047e8be8a3d6b,,,,,,,sngl,resources/Empty.png,resources/DBN.BMP,Door3,0.229629686,0.034259245,1,0,0,0.9288,optionRight,70,7045,3,42,0,42,0,1,,,,,,,,,,,,,,,,,,,,,,,,,,,,,,,,,,,,,,,
,,,,,,,,2023-08-16_08h45.10.716,HF_wild_card,2022.2.4,Win32,60.0528465,5efc6a4ba720250009909dfe,64d2fd46c836a06233681665,64dc7e79463047e8be8a3d6b,,,,,,,decisionTrl,resources/DG.BMP,resources/DY.BMP,Door2,0.230555556,-0.012037065,1,0,0,1.2285,optionRight,20,7065,3,43,0,43,0,1,,,,,,,,,,,,,,,,,,,,,,,,,,,,,,,,,,,,,,,
,,,,,,,,2023-08-16_08h45.10.716,HF_wild_card,2022.2.4,Win32,60.0528465,5efc6a4ba720250009909dfe,64d2fd46c836a06233681665,64dc7e79463047e8be8a3d6b,,,,,,,,,,,,,,,,,,,,,,,,,,2,0,2,0,1,,,,,,,,,,,,,,,,,,,,,,,,,,,,,,,,,,
,,,,,,,,2023-08-16_08h45.10.716,HF_wild_card,2022.2.4,Win32,60.0528465,5efc6a4ba720250009909dfe,64d2fd46c836a06233681665,64dc7e79463047e8be8a3d6b,,,,,,,sngl,resources/Empty.png,resources/DB.BMP,Door4,0.247222222,-0.090740755,1,0,0,2.3605,optionRight,80,7145,4,0,0,0,0,1,,,,,,,,,,,,,,,,,,,,,,,,,,,,,,,,,,,,,,,
,,,,,,,,2023-08-16_08h45.10.716,HF_wild_card,2022.2.4,Win32,60.0528465,5efc6a4ba720250009909dfe,64d2fd46c836a06233681665,64dc7e79463047e8be8a3d6b,,,,,,,decisionTrl,resources/DBN.BMP,resources/DP.BMP,WildCard_Ex,0.154629686,-0.033333333,1,0,0,1.4461,optionRight,5,7150,4,1,0,1,0,1,,,,,,,,,,,,,,,,,,,,,,,,,,,,,,,,,,,,,,,
,,,,,,,,2023-08-16_08h45.10.716,HF_wild_card,2022.2.4,Win32,60.0528465,5efc6a4ba720250009909dfe,64d2fd46c836a06233681665,64dc7e79463047e8be8a3d6b,,,,,,,decisionTrl,resources/DY.BMP,resources/DG.BMP,Door2,-0.202777778,-0.036111111,1,0,0,1.3283,optionLeft,20,7170,4,2,0,2,0,1,,,,,,,,,,,,,,,,,,,,,,,,,,,,,,,,,,,,,,,
,,,,,,,,2023-08-16_08h45.10.716,HF_wild_card,2022.2.4,Win32,60.0528465,5efc6a4ba720250009909dfe,64d2fd46c836a06233681665,64dc7e79463047e8be8a3d6b,,,,,,,decisionTrl,resources/DG.BMP,resources/DY.BMP,Door1,-0.258333333,-0.041666667,1,0,0,1.1289,optionLeft,30,7200,4,3,0,3,0,1,,,,,,,,,,,,,,,,,,,,,,,,,,,,,,,,,,,,,,,
,,,,,,,,2023-08-16_08h45.10.716,HF_wild_card,2022.2.4,Win32,60.0528465,5efc6a4ba720250009909dfe,64d2fd46c836a06233681665,64dc7e79463047e8be8a3d6b,,,,,,,decisionTrl,resources/DBN.BMP,resources/DB.BMP,Door4,0.237037065,-0.013888889,1,0,0,1.1622,optionRight,60,7260,4,4,0,4,0,1,,,,,,,,,,,,,,,,,,,,,,,,,,,,,,,,,,,,,,,
,,,,,,,,2023-08-16_08h45.10.716,HF_wild_card,2022.2.4,Win32,60.0528465,5efc6a4ba720250009909dfe,64d2fd46c836a06233681665,64dc7e79463047e8be8a3d6b,,,,,,,decisionTrl,resources/DP.BMP,resources/DG.BMP,Door1,0.183333333,-0.001851866,1,0,0,1.6117,optionRight,30,7290,4,5,0,5,0,1,,,,,,,,,,,,,,,,,,,,,,,,,,,,,,,,,,,,,,,
,,,,,,,,2023-08-16_08h45.10.716,HF_wild_card,2022.2.4,Win32,60.0528465,5efc6a4ba720250009909dfe,64d2fd46c836a06233681665,64dc7e79463047e8be8a3d6b,,,,,,,decisionTrl,resources/DY.BMP,resources/DG.BMP,Door2,-0.256481467,-0.018518533,1,0,0,1.5121,optionLeft,40,7330,4,6,0,6,0,1,,,,,,,,,,,,,,,,,,,,,,,,,,,,,,,,,,,,,,,
,,,,,,,,2023-08-16_08h45.10.716,HF_wild_card,2022.2.4,Win32,60.0528465,5efc6a4ba720250009909dfe,64d2fd46c836a06233681665,64dc7e79463047e8be8a3d6b,,,,,,,ctch,resources/DBN.BMP,resources/DY.BMP,Door3,-0.220370356,-0.037037065,1,0,0,1.2291,optionLeft,70,7400,4,7,0,7,0,1,,,,,,,,,,,,,,,,,,,,,,,,,,,,,,,,,,,,,,,
,,,,,,,,2023-08-16_08h45.10.716,HF_wild_card,2022.2.4,Win32,60.0528465,5efc6a4ba720250009909dfe,64d2fd46c836a06233681665,64dc7e79463047e8be8a3d6b,,,,,,,decisionTrl,resources/DB.BMP,resources/DP.BMP,Door4,-0.20370369,-0.068518533,1,0,0,1.1945,optionLeft,80,7480,4,8,0,8,0,1,,,,,,,,,,,,,,,,,,,,,,,,,,,,,,,,,,,,,,,
,,,,,,,,2023-08-16_08h45.10.716,HF_wild_card,2022.2.4,Win32,60.0528465,5efc6a4ba720250009909dfe,64d2fd46c836a06233681665,64dc7e79463047e8be8a3d6b,,,,,,,decisionTrl,resources/DB.BMP,resources/DBN.BMP,Door4,-0.224074046,-0.065740755,1,0,0,0.9455,optionLeft,60,7540,4,9,0,9,0,1,,,,,,,,,,,,,,,,,,,,,,,,,,,,,,,,,,,,,,,
,,,,,,,,2023-08-16_08h45.10.716,HF_wild_card,2022.2.4,Win32,60.0528465,5efc6a4ba720250009909dfe,64d2fd46c836a06233681665,64dc7e79463047e8be8a3d6b,,,,,,,decisionTrl,resources/DBN.BMP,resources/DB.BMP,Door3,-0.241666667,-0.065740755,1,0,0,0.8951,optionLeft,70,7610,4,10,0,10,0,1,,,,,,,,,,,,,,,,,,,,,,,,,,,,,,,,,,,,,,,
,,,,,,,,2023-08-16_08h45.10.716,HF_wild_card,2022.2.4,Win32,60.0528465,5efc6a4ba720250009909dfe,64d2fd46c836a06233681665,64dc7e79463047e8be8a3d6b,,,,,,,ctch,resources/DG.BMP,resources/DB.BMP,Door4,0.196296353,0.011111111,1,0,0,1.0633,optionRight,60,7670,4,11,0,11,0,1,,,,,,,,,,,,,,,,,,,,,,,,,,,,,,,,,,,,,,,
,,,,,,,,2023-08-16_08h45.10.716,HF_wild_card,2022.2.4,Win32,60.0528465,5efc6a4ba720250009909dfe,64d2fd46c836a06233681665,64dc7e79463047e8be8a3d6b,,,,,,,decisionTrl,resources/DP.BMP,resources/DBN.BMP,Door3,0.260185242,-0.008333333,1,0,0,1.5611,optionRight,70,7740,4,12,0,12,0,1,,,,,,,,,,,,,,,,,,,,,,,,,,,,,,,,,,,,,,,
,,,,,,,,2023-08-16_08h45.10.716,HF_wild_card,2022.2.4,Win32,60.0528465,5efc6a4ba720250009909dfe,64d2fd46c836a06233681665,64dc7e79463047e8be8a3d6b,,,,,,,sngl,resources/Empty.png,resources/DBN.BMP,Door3,0.173148176,-0.000925954,1,0,0,0.8122,optionRight,70,7810,4,13,0,13,0,1,,,,,,,,,,,,,,,,,,,,,,,,,,,,,,,,,,,,,,,
,,,,,,,,2023-08-16_08h45.10.716,HF_wild_card,2022.2.4,Win32,60.0528465,5efc6a4ba720250009909dfe,64d2fd46c836a06233681665,64dc7e79463047e8be8a3d6b,,,,,,,decisionTrl,resources/DB.BMP,resources/DBN.BMP,Door4,-0.310185157,-0.051851866,1,0,0,1.7622,optionLeft,80,7890,4,14,0,14,0,1,,,,,,,,,,,,,,,,,,,,,,,,,,,,,,,,,,,,,,,
,,,,,,,,2023-08-16_08h45.10.716,HF_wild_card,2022.2.4,Win32,60.0528465,5efc6a4ba720250009909dfe,64d2fd46c836a06233681665,64dc7e79463047e8be8a3d6b,,,,,,,ctch,resources/DG.BMP,resources/DB.BMP,Door4,0.189814843,-0.012037065,1,0,0,1.1134,optionRight,80,7970,4,15,0,15,0,1,,,,,,,,,,,,,,,,,,,,,,,,,,,,,,,,,,,,,,,
,,,,,,,,2023-08-16_08h45.10.716,HF_wild_card,2022.2.4,Win32,60.0528465,5efc6a4ba720250009909dfe,64d2fd46c836a06233681665,64dc7e79463047e8be8a3d6b,,,,,,,sngl,resources/DP.BMP,resources/Empty.png,WildCard_Ex,-0.233333333,-0.066666667,1,0,0,0.9288,optionLeft,5,7975,4,16,0,16,0,1,,,,,,,,,,,,,,,,,,,,,,,,,,,,,,,,,,,,,,,
,,,,,,,,2023-08-16_08h45.10.716,HF_wild_card,2022.2.4,Win32,60.0528465,5efc6a4ba720250009909dfe,64d2fd46c836a06233681665,64dc7e79463047e8be8a3d6b,,,,,,,decisionTrl,resources/DG.BMP,resources/DP.BMP,Door1,-0.212037023,-0.033333333,1,0,0,0.979,optionLeft,30,8005,4,17,0,17,0,1,,,,,,,,,,,,,,,,,,,,,,,,,,,,,,,,,,,,,,,
,,,,,,,,2023-08-16_08h45.10.716,HF_wild_card,2022.2.4,Win32,60.0528465,5efc6a4ba720250009909dfe,64d2fd46c836a06233681665,64dc7e79463047e8be8a3d6b,,,,,,,ctch,resources/DBN.BMP,resources/DY.BMP,Door3,-0.231481467,-0.029629644,1,0,0,1.1125,optionLeft,70,8075,4,18,0,18,0,1,,,,,,,,,,,,,,,,,,,,,,,,,,,,,,,,,,,,,,,
,,,,,,,,2023-08-16_08h45.10.716,HF_wild_card,2022.2.4,Win32,60.0528465,5efc6a4ba720250009909dfe,64d2fd46c836a06233681665,64dc7e79463047e8be8a3d6b,,,,,,,decisionTrl,resources/DP.BMP,resources/DB.BMP,Door4,0.23148151,-0.024074088,1,0,0,1.1788,optionRight,80,8155,4,19,0,19,0,1,,,,,,,,,,,,,,,,,,,,,,,,,,,,,,,,,,,,,,,
,,,,,,,,2023-08-16_08h45.10.716,HF_wild_card,2022.2.4,Win32,60.0528465,5efc6a4ba720250009909dfe,64d2fd46c836a06233681665,64dc7e79463047e8be8a3d6b,,,,,,,ctch,resources/DY.BMP,resources/DBN.BMP,Door3,0.237037065,-0.02129631,1,0,0,1.062,optionRight,70,8225,4,20,0,20,0,1,,,,,,,,,,,,,,,,,,,,,,,,,,,,,,,,,,,,,,,
,,,,,,,,2023-08-16_08h45.10.716,HF_wild_card,2022.2.4,Win32,60.0528465,5efc6a4ba720250009909dfe,64d2fd46c836a06233681665,64dc7e79463047e8be8a3d6b,,,,,,,sngl,resources/DBN.BMP,resources/Empty.png,Door3,-0.190740712,-0.022222222,1,0,0,0.8296,optionLeft,70,8295,4,21,0,21,0,1,,,,,,,,,,,,,,,,,,,,,,,,,,,,,,,,,,,,,,,
,,,,,,,,2023-08-16_08h45.10.716,HF_wild_card,2022.2.4,Win32,60.0528465,5efc6a4ba720250009909dfe,64d2fd46c836a06233681665,64dc7e79463047e8be8a3d6b,,,,,,,sngl,resources/DG.BMP,resources/Empty.png,Door1,-0.194444444,-0.042592621,1,0,0,0.8628,optionLeft,30,8325,4,22,0,22,0,1,,,,,,,,,,,,,,,,,,,,,,,,,,,,,,,,,,,,,,,
,,,,,,,,2023-08-16_08h45.10.716,HF_wild_card,2022.2.4,Win32,60.0528465,5efc6a4ba720250009909dfe,64d2fd46c836a06233681665,64dc7e79463047e8be8a3d6b,,,,,,,decisionTrl,resources/DB.BMP,resources/DBN.BMP,Door4,-0.263888889,-0.052777778,1,0,0,1.1785,optionLeft,80,8405,4,23,0,23,0,1,,,,,,,,,,,,,,,,,,,,,,,,,,,,,,,,,,,,,,,
,,,,,,,,2023-08-16_08h45.10.716,HF_wild_card,2022.2.4,Win32,60.0528465,5efc6a4ba720250009909dfe,64d2fd46c836a06233681665,64dc7e79463047e8be8a3d6b,,,,,,,ctch,resources/DB.BMP,resources/DG.BMP,Door4,-0.256481467,-0.039814843,1,0,0,1.0955,optionLeft,60,8465,4,24,0,24,0,1,,,,,,,,,,,,,,,,,,,,,,,,,,,,,,,,,,,,,,,
,,,,,,,,2023-08-16_08h45.10.716,HF_wild_card,2022.2.4,Win32,60.0528465,5efc6a4ba720250009909dfe,64d2fd46c836a06233681665,64dc7e79463047e8be8a3d6b,,,,,,,sngl,resources/Empty.png,resources/DP.BMP,WildCard_Ex,0.190740797,-0.012037065,1,0,0,0.9211,optionRight,5,8470,4,25,0,25,0,1,,,,,,,,,,,,,,,,,,,,,,,,,,,,,,,,,,,,,,,
,,,,,,,,2023-08-16_08h45.10.716,HF_wild_card,2022.2.4,Win32,60.0528465,5efc6a4ba720250009909dfe,64d2fd46c836a06233681665,64dc7e79463047e8be8a3d6b,,,,,,,decisionTrl,resources/DG.BMP,resources/DY.BMP,Door2,0.216666667,-0.037037065,1,0,0,1.862,optionRight,20,8490,4,26,0,26,0,1,,,,,,,,,,,,,,,,,,,,,,,,,,,,,,,,,,,,,,,
,,,,,,,,2023-08-16_08h45.10.716,HF_wild_card,2022.2.4,Win32,60.0528465,5efc6a4ba720250009909dfe,64d2fd46c836a06233681665,64dc7e79463047e8be8a3d6b,,,,,,,decisionTrl,resources/DG.BMP,resources/DY.BMP,Door1,-0.272222222,-0.026851866,1,0,0,0.829,optionLeft,30,8520,4,27,0,27,0,1,,,,,,,,,,,,,,,,,,,,,,,,,,,,,,,,,,,,,,,
,,,,,,,,2023-08-16_08h45.10.716,HF_wild_card,2022.2.4,Win32,60.0528465,5efc6a4ba720250009909dfe,64d2fd46c836a06233681665,64dc7e79463047e8be8a3d6b,,,,,,,decisionTrl,resources/DBN.BMP,resources/DB.BMP,Door4,0.312963019,-0.05,1,0,0,1.2283,optionRight,80,8600,4,28,0,28,0,1,,,,,,,,,,,,,,,,,,,,,,,,,,,,,,,,,,,,,,,
,,,,,,,,2023-08-16_08h45.10.716,HF_wild_card,2022.2.4,Win32,60.0528465,5efc6a4ba720250009909dfe,64d2fd46c836a06233681665,64dc7e79463047e8be8a3d6b,,,,,,,ctch,resources/DB.BMP,resources/DG.BMP,Door4,-0.259259245,-0.042592621,1,0,0,0.9451,optionLeft,60,8660,4,29,0,29,0,1,,,,,,,,,,,,,,,,,,,,,,,,,,,,,,,,,,,,,,,
,,,,,,,,2023-08-16_08h45.10.716,HF_wild_card,2022.2.4,Win32,60.0528465,5efc6a4ba720250009909dfe,64d2fd46c836a06233681665,64dc7e79463047e8be8a3d6b,,,,,,,sngl,resources/DY.BMP,resources/Empty.png,Door2,-0.22870369,-0.033333333,1,0,0,0.8631,optionLeft,20,8680,4,30,0,30,0,1,,,,,,,,,,,,,,,,,,,,,,,,,,,,,,,,,,,,,,,
,,,,,,,,2023-08-16_08h45.10.716,HF_wild_card,2022.2.4,Win32,60.0528465,5efc6a4ba720250009909dfe,64d2fd46c836a06233681665,64dc7e79463047e8be8a3d6b,,,,,,,sngl,resources/DB.BMP,resources/Empty.png,Door4,-0.249074046,-0.032407422,1,0,0,0.8619,optionLeft,60,8740,4,31,0,31,0,1,,,,,,,,,,,,,,,,,,,,,,,,,,,,,,,,,,,,,,,
,,,,,,,,2023-08-16_08h45.10.716,HF_wild_card,2022.2.4,Win32,60.0528465,5efc6a4ba720250009909dfe,64d2fd46c836a06233681665,64dc7e79463047e8be8a3d6b,,,,,,,sngl,resources/DP.BMP,resources/Empty.png,WildCard_Ex,-0.183333333,-0.025925954,1,0,0,1.0628,optionLeft,95,8835,4,32,0,32,0,1,,,,,,,,,,,,,,,,,,,,,,,,,,,,,,,,,,,,,,,
,,,,,,,,2023-08-16_08h45.10.716,HF_wild_card,2022.2.4,Win32,60.0528465,5efc6a4ba720250009909dfe,64d2fd46c836a06233681665,64dc7e79463047e8be8a3d6b,,,,,,,decisionTrl,resources/DG.BMP,resources/DY.BMP,Door2,0.193518575,-0.023148176,1,0,0,1.1778,optionRight,20,8855,4,33,0,33,0,1,,,,,,,,,,,,,,,,,,,,,,,,,,,,,,,,,,,,,,,
,,,,,,,,2023-08-16_08h45.10.716,HF_wild_card,2022.2.4,Win32,60.0528465,5efc6a4ba720250009909dfe,64d2fd46c836a06233681665,64dc7e79463047e8be8a3d6b,,,,,,,ctch,resources/DY.BMP,resources/DBN.BMP,Door3,0.179629686,-0.010185199,1,0,0,1.2288,optionRight,70,8925,4,34,0,34,0,1,,,,,,,,,,,,,,,,,,,,,,,,,,,,,,,,,,,,,,,
,,,,,,,,2023-08-16_08h45.10.716,HF_wild_card,2022.2.4,Win32,60.0528465,5efc6a4ba720250009909dfe,64d2fd46c836a06233681665,64dc7e79463047e8be8a3d6b,,,,,,,sngl,resources/Empty.png,resources/DP.BMP,WildCard_Ex,0.184259288,0.031481467,1,0,0,0.8289,optionRight,95,9020,4,35,0,35,0,1,,,,,,,,,,,,,,,,,,,,,,,,,,,,,,,,,,,,,,,
,,,,,,,,2023-08-16_08h45.10.716,HF_wild_card,2022.2.4,Win32,60.0528465,5efc6a4ba720250009909dfe,64d2fd46c836a06233681665,64dc7e79463047e8be8a3d6b,,,,,,,decisionTrl,resources/DBN.BMP,resources/DB.BMP,Door4,0.254629686,-0.023148176,1,0,0,1.1952,optionRight,80,9100,4,36,0,36,0,1,,,,,,,,,,,,,,,,,,,,,,,,,,,,,,,,,,,,,,,
,,,,,,,,2023-08-16_08h45.10.716,HF_wild_card,2022.2.4,Win32,60.0528465,5efc6a4ba720250009909dfe,64d2fd46c836a06233681665,64dc7e79463047e8be8a3d6b,,,,,,,decisionTrl,resources/DY.BMP,resources/DG.BMP,Door1,0.191666667,-0.026851866,1,0,0,1.4457,optionRight,30,9130,4,37,0,37,0,1,,,,,,,,,,,,,,,,,,,,,,,,,,,,,,,,,,,,,,,
,,,,,,,,2023-08-16_08h45.10.716,HF_wild_card,2022.2.4,Win32,60.0528465,5efc6a4ba720250009909dfe,64d2fd46c836a06233681665,64dc7e79463047e8be8a3d6b,,,,,,,sngl,resources/Empty.png,resources/DY.BMP,Door2,0.149074131,0.017592578,1,0,0,0.8521,optionRight,40,9170,4,38,0,38,0,1,,,,,,,,,,,,,,,,,,,,,,,,,,,,,,,,,,,,,,,
,,,,,,,,2023-08-16_08h45.10.716,HF_wild_card,2022.2.4,Win32,60.0528465,5efc6a4ba720250009909dfe,64d2fd46c836a06233681665,64dc7e79463047e8be8a3d6b,,,,,,,decisionTrl,resources/DP.BMP,resources/DY.BMP,WildCard_Ex,-0.212037023,-0.023148176,1,0,0,0.8291,optionLeft,95,9265,4,39,0,39,0,1,,,,,,,,,,,,,,,,,,,,,,,,,,,,,,,,,,,,,,,
,,,,,,,,2023-08-16_08h45.10.716,HF_wild_card,2022.2.4,Win32,60.0528465,5efc6a4ba720250009909dfe,64d2fd46c836a06233681665,64dc7e79463047e8be8a3d6b,,,,,,,decisionTrl,resources/DY.BMP,resources/DP.BMP,WildCard_Ex,0.230555556,0.005555556,1,0,0,0.8788,optionRight,95,9360,4,40,0,40,0,1,,,,,,,,,,,,,,,,,,,,,,,,,,,,,,,,,,,,,,,
,,,,,,,,2023-08-16_08h45.10.716,HF_wild_card,2022.2.4,Win32,60.0528465,5efc6a4ba720250009909dfe,64d2fd46c836a06233681665,64dc7e79463047e8be8a3d6b,,,,,,,decisionTrl,resources/DY.BMP,resources/DG.BMP,Door1,0.175,-0.001851866,1,0,0,1.2627,optionRight,30,9390,4,41,0,41,0,1,,,,,,,,,,,,,,,,,,,,,,,,,,,,,,,,,,,,,,,
,,,,,,,,2023-08-16_08h45.10.716,HF_wild_card,2022.2.4,Win32,60.0528465,5efc6a4ba720250009909dfe,64d2fd46c836a06233681665,64dc7e79463047e8be8a3d6b,,,,,,,sngl,resources/Empty.png,resources/DG.BMP,Door1,0.147222222,0.030555556,1,0,0,0.9619,optionRight,30,9420,4,42,0,42,0,1,,,,,,,,,,,,,,,,,,,,,,,,,,,,,,,,,,,,,,,
,,,,,,,,2023-08-16_08h45.10.716,HF_wild_card,2022.2.4,Win32,60.0528465,5efc6a4ba720250009909dfe,64d2fd46c836a06233681665,64dc7e79463047e8be8a3d6b,,,,,,,decisionTrl,resources/DB.BMP,resources/DBN.BMP,Door3,0.212963019,0.033333333,1,0,0,1.5123,optionRight,70,9490,4,43,0,43,0,1,,,,,,,,,,,,,,,,,,,,,,,,,,,,,,,,,,,,,,,
,,,,,,,,2023-08-16_08h45.10.716,HF_wild_card,2022.2.4,Win32,60.0528465,5efc6a4ba720250009909dfe,64d2fd46c836a06233681665,64dc7e79463047e8be8a3d6b,,,,,,,,,,,,,,,,,,,,,,,,,,3,0,3,0,1,,,,,,,,,,,,,,,,,,,,,,,,,,,,,,,,,,
,,,,,,,,2023-08-16_08h45.10.716,HF_wild_card,2022.2.4,Win32,60.0528465,5efc6a4ba720250009909dfe,64d2fd46c836a06233681665,64dc7e79463047e8be8a3d6b,,,,,,,sngl,resources/Empty.png,resources/DB.BMP,Door4,0.252777778,-0.067592621,1,0,0,0.9637,optionRight,60,9550,5,0,0,0,0,1,,,,,,,,,,,,,,,,,,,,,,,,,,,,,,,,,,,,,,,
,,,,,,,,2023-08-16_08h45.10.716,HF_wild_card,2022.2.4,Win32,60.0528465,5efc6a4ba720250009909dfe,64d2fd46c836a06233681665,64dc7e79463047e8be8a3d6b,,,,,,,decisionTrl,resources/DY.BMP,resources/DG.BMP,Door2,-0.165740712,-0.052777778,1,0,0,1.3116,optionLeft,20,9570,5,1,0,1,0,1,,,,,,,,,,,,,,,,,,,,,,,,,,,,,,,,,,,,,,,
,,,,,,,,2023-08-16_08h45.10.716,HF_wild_card,2022.2.4,Win32,60.0528465,5efc6a4ba720250009909dfe,64d2fd46c836a06233681665,64dc7e79463047e8be8a3d6b,,,,,,,decisionTrl,resources/DB.BMP,resources/DBN.BMP,Door4,-0.199074046,-0.070370399,1,0,0,1.1622,optionLeft,60,9630,5,2,0,2,0,1,,,,,,,,,,,,,,,,,,,,,,,,,,,,,,,,,,,,,,,
,,,,,,,,2023-08-16_08h45.10.716,HF_wild_card,2022.2.4,Win32,60.0528465,5efc6a4ba720250009909dfe,64d2fd46c836a06233681665,64dc7e79463047e8be8a3d6b,,,,,,,sngl,resources/Empty.png,resources/DY.BMP,Door2,0.190740797,0.04351849,1,0,0,0.8631,optionRight,20,9650,5,3,0,3,0,1,,,,,,,,,,,,,,,,,,,,,,,,,,,,,,,,,,,,,,,
,,,,,,,,2023-08-16_08h45.10.716,HF_wild_card,2022.2.4,Win32,60.0528465,5efc6a4ba720250009909dfe,64d2fd46c836a06233681665,64dc7e79463047e8be8a3d6b,,,,,,,ctch,resources/DG.BMP,resources/DB.BMP,Door4,0.251851908,-0.018518533,1,0,0,1.5458,optionRight,80,9730,5,4,0,4,0,1,,,,,,,,,,,,,,,,,,,,,,,,,,,,,,,,,,,,,,,
,,,,,,,,2023-08-16_08h45.10.716,HF_wild_card,2022.2.4,Win32,60.0528465,5efc6a4ba720250009909dfe,64d2fd46c836a06233681665,64dc7e79463047e8be8a3d6b,,,,,,,sngl,resources/DBN.BMP,resources/Empty.png,Door3,-0.175925869,-0.029629644,1,0,0,0.8629,optionLeft,70,9800,5,5,0,5,0,1,,,,,,,,,,,,,,,,,,,,,,,,,,,,,,,,,,,,,,,
,,,,,,,,2023-08-16_08h45.10.716,HF_wild_card,2022.2.4,Win32,60.0528465,5efc6a4ba720250009909dfe,64d2fd46c836a06233681665,64dc7e79463047e8be8a3d6b,,,,,,,decisionTrl,resources/DB.BMP,resources/DP.BMP,WildCard_Ex,0.298148176,0.025,1,0,0,1.2124,optionRight,95,9895,5,6,0,6,0,1,,,,,,,,,,,,,,,,,,,,,,,,,,,,,,,,,,,,,,,
,,,,,,,,2023-08-16_08h45.10.716,HF_wild_card,2022.2.4,Win32,60.0528465,5efc6a4ba720250009909dfe,64d2fd46c836a06233681665,64dc7e79463047e8be8a3d6b,,,,,,,decisionTrl,resources/DP.BMP,resources/DG.BMP,WildCard_Ex,-0.240740712,-0.032407422,1,0,0,0.846,optionLeft,5,9900,5,7,0,7,0,1,,,,,,,,,,,,,,,,,,,,,,,,,,,,,,,,,,,,,,,
,,,,,,,,2023-08-16_08h45.10.716,HF_wild_card,2022.2.4,Win32,60.0528465,5efc6a4ba720250009909dfe,64d2fd46c836a06233681665,64dc7e79463047e8be8a3d6b,,,,,,,decisionTrl,resources/DP.BMP,resources/DY.BMP,WildCard_Ex,-0.162962935,-0.032407422,1,0,0,0.8622,optionLeft,95,9995,5,8,0,8,0,1,,,,,,,,,,,,,,,,,,,,,,,,,,,,,,,,,,,,,,,
,,,,,,,,2023-08-16_08h45.10.716,HF_wild_card,2022.2.4,Win32,60.0528465,5efc6a4ba720250009909dfe,64d2fd46c836a06233681665,64dc7e79463047e8be8a3d6b,,,,,,,sngl,resources/Empty.png,resources/DP.BMP,WildCard_Ex,0.220370399,0.012962935,1,0,0,0.8438,optionRight,95,10090,5,9,0,9,0,1,,,,,,,,,,,,,,,,,,,,,,,,,,,,,,,,,,,,,,,
,,,,,,,,2023-08-16_08h45.10.716,HF_wild_card,2022.2.4,Win32,60.0528465,5efc6a4ba720250009909dfe,64d2fd46c836a06233681665,64dc7e79463047e8be8a3d6b,,,,,,,sngl,resources/DY.BMP,resources/Empty.png,Door2,-0.220370356,-0.024074088,1,0,0,0.8791,optionLeft,40,10130,5,10,0,10,0,1,,,,,,,,,,,,,,,,,,,,,,,,,,,,,,,,,,,,,,,
,,,,,,,,2023-08-16_08h45.10.716,HF_wild_card,2022.2.4,Win32,60.0528465,5efc6a4ba720250009909dfe,64d2fd46c836a06233681665,64dc7e79463047e8be8a3d6b,,,,,,,decisionTrl,resources/DG.BMP,resources/DP.BMP,WildCard_Ex,0.165740797,-0.003703732,1,0,0,1.2787,optionRight,95,10225,5,11,0,11,0,1,,,,,,,,,,,,,,,,,,,,,,,,,,,,,,,,,,,,,,,
,,,,,,,,2023-08-16_08h45.10.716,HF_wild_card,2022.2.4,Win32,60.0528465,5efc6a4ba720250009909dfe,64d2fd46c836a06233681665,64dc7e79463047e8be8a3d6b,,,,,,,decisionTrl,resources/DBN.BMP,resources/DB.BMP,Door3,-0.239814801,-0.041666667,1,0,0,1.8112,optionLeft,70,10295,5,12,0,12,0,1,,,,,,,,,,,,,,,,,,,,,,,,,,,,,,,,,,,,,,,
,,,,,,,,2023-08-16_08h45.10.716,HF_wild_card,2022.2.4,Win32,60.0528465,5efc6a4ba720250009909dfe,64d2fd46c836a06233681665,64dc7e79463047e8be8a3d6b,,,,,,,sngl,resources/DP.BMP,resources/Empty.png,WildCard_Ex,-0.222222222,-0.036111111,1,0,0,0.8288,optionLeft,95,10390,5,13,0,13,0,1,,,,,,,,,,,,,,,,,,,,,,,,,,,,,,,,,,,,,,,
,,,,,,,,2023-08-16_08h45.10.716,HF_wild_card,2022.2.4,Win32,60.0528465,5efc6a4ba720250009909dfe,64d2fd46c836a06233681665,64dc7e79463047e8be8a3d6b,,,,,,,decisionTrl,resources/DY.BMP,resources/DG.BMP,Door1,0.167592621,-0.034259288,1,0,0,1.6614,optionRight,30,10420,5,14,0,14,0,1,,,,,,,,,,,,,,,,,,,,,,,,,,,,,,,,,,,,,,,
,,,,,,,,2023-08-16_08h45.10.716,HF_wild_card,2022.2.4,Win32,60.0528465,5efc6a4ba720250009909dfe,64d2fd46c836a06233681665,64dc7e79463047e8be8a3d6b,,,,,,,ctch,resources/DY.BMP,resources/DBN.BMP,Door3,0.167592621,-0.041666667,1,0,0,1.2626,optionRight,70,10490,5,15,0,15,0,1,,,,,,,,,,,,,,,,,,,,,,,,,,,,,,,,,,,,,,,
,,,,,,,,2023-08-16_08h45.10.716,HF_wild_card,2022.2.4,Win32,60.0528465,5efc6a4ba720250009909dfe,64d2fd46c836a06233681665,64dc7e79463047e8be8a3d6b,,,,,,,decisionTrl,resources/DY.BMP,resources/DG.BMP,Door2,-0.257407379,-0.037962977,1,0,0,0.9126,optionLeft,20,10510,5,16,0,16,0,1,,,,,,,,,,,,,,,,,,,,,,,,,,,,,,,,,,,,,,,
,,,,,,,,2023-08-16_08h45.10.716,HF_wild_card,2022.2.4,Win32,60.0528465,5efc6a4ba720250009909dfe,64d2fd46c836a06233681665,64dc7e79463047e8be8a3d6b,,,,,,,decisionTrl,resources/DBN.BMP,resources/DB.BMP,Door4,0.199074131,-0.034259288,1,0,0,1.4444,optionRight,80,10590,5,17,0,17,0,1,,,,,,,,,,,,,,,,,,,,,,,,,,,,,,,,,,,,,,,
,,,,,,,,2023-08-16_08h45.10.716,HF_wild_card,2022.2.4,Win32,60.0528465,5efc6a4ba720250009909dfe,64d2fd46c836a06233681665,64dc7e79463047e8be8a3d6b,,,,,,,decisionTrl,resources/DB.BMP,resources/DBN.BMP,Door4,-0.30370369,-0.015740755,1,0,0,1.2795,optionLeft,60,10650,5,18,0,18,0,1,,,,,,,,,,,,,,,,,,,,,,,,,,,,,,,,,,,,,,,
,,,,,,,,2023-08-16_08h45.10.716,HF_wild_card,2022.2.4,Win32,60.0528465,5efc6a4ba720250009909dfe,64d2fd46c836a06233681665,64dc7e79463047e8be8a3d6b,,,,,,,ctch,resources/DG.BMP,resources/DB.BMP,Door4,0.216666667,0.00370369,1,0,0,1.111,optionRight,80,10730,5,19,0,19,0,1,,,,,,,,,,,,,,,,,,,,,,,,,,,,,,,,,,,,,,,
,,,,,,,,2023-08-16_08h45.10.716,HF_wild_card,2022.2.4,Win32,60.0528465,5efc6a4ba720250009909dfe,64d2fd46c836a06233681665,64dc7e79463047e8be8a3d6b,,,,,,,sngl,resources/DP.BMP,resources/Empty.png,WildCard_Ex,-0.262962935,-0.023148176,1,0,0,0.8296,optionLeft,5,10735,5,20,0,20,0,1,,,,,,,,,,,,,,,,,,,,,,,,,,,,,,,,,,,,,,,
,,,,,,,,2023-08-16_08h45.10.716,HF_wild_card,2022.2.4,Win32,60.0528465,5efc6a4ba720250009909dfe,64d2fd46c836a06233681665,64dc7e79463047e8be8a3d6b,,,,,,,sngl,resources/Empty.png,resources/DG.BMP,Door1,0.197222222,0.012037023,1,0,0,0.8784,optionRight,30,10765,5,21,0,21,0,1,,,,,,,,,,,,,,,,,,,,,,,,,,,,,,,,,,,,,,,
,,,,,,,,2023-08-16_08h45.10.716,HF_wild_card,2022.2.4,Win32,60.0528465,5efc6a4ba720250009909dfe,64d2fd46c836a06233681665,64dc7e79463047e8be8a3d6b,,,,,,,ctch,resources/DB.BMP,resources/DG.BMP,Door4,-0.311111111,-0.037962977,1,0,0,1.0963,optionLeft,60,10825,5,22,0,22,0,1,,,,,,,,,,,,,,,,,,,,,,,,,,,,,,,,,,,,,,,
,,,,,,,,2023-08-16_08h45.10.716,HF_wild_card,2022.2.4,Win32,60.0528465,5efc6a4ba720250009909dfe,64d2fd46c836a06233681665,64dc7e79463047e8be8a3d6b,,,,,,,decisionTrl,resources/DBN.BMP,resources/DB.BMP,Door3,-0.261111111,-0.023148176,1,0,0,1.4789,optionLeft,70,10895,5,23,0,23,0,1,,,,,,,,,,,,,,,,,,,,,,,,,,,,,,,,,,,,,,,
,,,,,,,,2023-08-16_08h45.10.716,HF_wild_card,2022.2.4,Win32,60.0528465,5efc6a4ba720250009909dfe,64d2fd46c836a06233681665,64dc7e79463047e8be8a3d6b,,,,,,,decisionTrl,resources/DP.BMP,resources/DBN.BMP,WildCard_Ex,-0.206481467,-0.051851866,1,0,0,1.0116,optionLeft,5,10900,5,24,0,24,0,1,,,,,,,,,,,,,,,,,,,,,,,,,,,,,,,,,,,,,,,
,,,,,,,,2023-08-16_08h45.10.716,HF_wild_card,2022.2.4,Win32,60.0528465,5efc6a4ba720250009909dfe,64d2fd46c836a06233681665,64dc7e79463047e8be8a3d6b,,,,,,,decisionTrl,resources/DY.BMP,resources/DG.BMP,Door1,0.128703732,-0.015740755,1,0,0,1.4289,optionRight,30,10930,5,25,0,25,0,1,,,,,,,,,,,,,,,,,,,,,,,,,,,,,,,,,,,,,,,
,,,,,,,,2023-08-16_08h45.10.716,HF_wild_card,2022.2.4,Win32,60.0528465,5efc6a4ba720250009909dfe,64d2fd46c836a06233681665,64dc7e79463047e8be8a3d6b,,,,,,,sngl,resources/Empty.png,resources/DBN.BMP,Door3,0.201851908,0.024074046,1,0,0,0.8794,optionRight,70,11000,5,26,0,26,0,1,,,,,,,,,,,,,,,,,,,,,,,,,,,,,,,,,,,,,,,
,,,,,,,,2023-08-16_08h45.10.716,HF_wild_card,2022.2.4,Win32,60.0528465,5efc6a4ba720250009909dfe,64d2fd46c836a06233681665,64dc7e79463047e8be8a3d6b,,,,,,,ctch,resources/DBN.BMP,resources/DY.BMP,Door3,-0.24351849,-0.033333333,1,0,0,1.0954,optionLeft,70,11070,5,27,0,27,0,1,,,,,,,,,,,,,,,,,,,,,,,,,,,,,,,,,,,,,,,
,,,,,,,,2023-08-16_08h45.10.716,HF_wild_card,2022.2.4,Win32,60.0528465,5efc6a4ba720250009909dfe,64d2fd46c836a06233681665,64dc7e79463047e8be8a3d6b,,,,,,,ctch,resources/DY.BMP,resources/DBN.BMP,Door3,0.194444444,0.012037023,1,0,0,1.1121,optionRight,70,11140,5,28,0,28,0,1,,,,,,,,,,,,,,,,,,,,,,,,,,,,,,,,,,,,,,,
,,,,,,,,2023-08-16_08h45.10.716,HF_wild_card,2022.2.4,Win32,60.0528465,5efc6a4ba720250009909dfe,64d2fd46c836a06233681665,64dc7e79463047e8be8a3d6b,,,,,,,decisionTrl,resources/DG.BMP,resources/DY.BMP,Door1,-0.282407379,-0.032407422,1,0,0,1.4454,optionLeft,30,11170,5,29,0,29,0,1,,,,,,,,,,,,,,,,,,,,,,,,,,,,,,,,,,,,,,,
,,,,,,,,2023-08-16_08h45.10.716,HF_wild_card,2022.2.4,Win32,60.0528465,5efc6a4ba720250009909dfe,64d2fd46c836a06233681665,64dc7e79463047e8be8a3d6b,,,,,,,decisionTrl,resources/DG.BMP,resources/DY.BMP,Door1,-0.211111111,-0.040740755,1,0,0,1.079,optionLeft,30,11200,5,30,0,30,0,1,,,,,,,,,,,,,,,,,,,,,,,,,,,,,,,,,,,,,,,
,,,,,,,,2023-08-16_08h45.10.716,HF_wild_card,2022.2.4,Win32,60.0528465,5efc6a4ba720250009909dfe,64d2fd46c836a06233681665,64dc7e79463047e8be8a3d6b,,,,,,,sngl,resources/Empty.png,resources/DP.BMP,WildCard_Ex,0.209259288,0.001851824,1,0,0,0.8462,optionRight,5,11205,5,31,0,31,0,1,,,,,,,,,,,,,,,,,,,,,,,,,,,,,,,,,,,,,,,
,,,,,,,,2023-08-16_08h45.10.716,HF_wild_card,2022.2.4,Win32,60.0528465,5efc6a4ba720250009909dfe,64d2fd46c836a06233681665,64dc7e79463047e8be8a3d6b,,,,,,,decisionTrl,resources/DP.BMP,resources/DB.BMP,WildCard_Ex,-0.25370369,-0.027777778,1,0,0,0.8949,optionLeft,95,11300,5,32,0,32,0,1,,,,,,,,,,,,,,,,,,,,,,,,,,,,,,,,,,,,,,,
,,,,,,,,2023-08-16_08h45.10.716,HF_wild_card,2022.2.4,Win32,60.0528465,5efc6a4ba720250009909dfe,64d2fd46c836a06233681665,64dc7e79463047e8be8a3d6b,,,,,,,ctch,resources/DBN.BMP,resources/DY.BMP,Door3,-0.221296268,-0.053703732,1,0,0,1.0952,optionLeft,70,11370,5,33,0,33,0,1,,,,,,,,,,,,,,,,,,,,,,,,,,,,,,,,,,,,,,,
,,,,,,,,2023-08-16_08h45.10.716,HF_wild_card,2022.2.4,Win32,60.0528465,5efc6a4ba720250009909dfe,64d2fd46c836a06233681665,64dc7e79463047e8be8a3d6b,,,,,,,decisionTrl,resources/DBN.BMP,resources/DB.BMP,Door3,-0.204629601,-0.022222222,1,0,0,1.0963,optionLeft,70,11440,5,34,0,34,0,1,,,,,,,,,,,,,,,,,,,,,,,,,,,,,,,,,,,,,,,
,,,,,,,,2023-08-16_08h45.10.716,HF_wild_card,2022.2.4,Win32,60.0528465,5efc6a4ba720250009909dfe,64d2fd46c836a06233681665,64dc7e79463047e8be8a3d6b,,,,,,,decisionTrl,resources/DBN.BMP,resources/DP.BMP,WildCard_Ex,0.271296353,0.011111111,1,0,0,1.1789,optionRight,5,11445,5,35,0,35,0,1,,,,,,,,,,,,,,,,,,,,,,,,,,,,,,,,,,,,,,,
,,,,,,,,2023-08-16_08h45.10.716,HF_wild_card,2022.2.4,Win32,60.0528465,5efc6a4ba720250009909dfe,64d2fd46c836a06233681665,64dc7e79463047e8be8a3d6b,,,,,,,ctch,resources/DB.BMP,resources/DG.BMP,Door4,-0.245370356,-0.035185199,1,0,0,0.9125,optionLeft,60,11505,5,36,0,36,0,1,,,,,,,,,,,,,,,,,,,,,,,,,,,,,,,,,,,,,,,
,,,,,,,,2023-08-16_08h45.10.716,HF_wild_card,2022.2.4,Win32,60.0528465,5efc6a4ba720250009909dfe,64d2fd46c836a06233681665,64dc7e79463047e8be8a3d6b,,,,,,,sngl,resources/DG.BMP,resources/Empty.png,Door1,-0.215740712,-0.018518533,1,0,0,0.8786,optionLeft,30,11535,5,37,0,37,0,1,,,,,,,,,,,,,,,,,,,,,,,,,,,,,,,,,,,,,,,
,,,,,,,,2023-08-16_08h45.10.716,HF_wild_card,2022.2.4,Win32,60.0528465,5efc6a4ba720250009909dfe,64d2fd46c836a06233681665,64dc7e79463047e8be8a3d6b,,,,,,,sngl,resources/DB.BMP,resources/Empty.png,Door4,-0.212962935,-0.030555556,1,0,0,0.8956,optionLeft,80,11615,5,38,0,38,0,1,,,,,,,,,,,,,,,,,,,,,,,,,,,,,,,,,,,,,,,
,,,,,,,,2023-08-16_08h45.10.716,HF_wild_card,2022.2.4,Win32,60.0528465,5efc6a4ba720250009909dfe,64d2fd46c836a06233681665,64dc7e79463047e8be8a3d6b,,,,,,,decisionTrl,resources/DG.BMP,resources/DY.BMP,Door1,-0.187037023,-0.027777778,1,0,0,1.3953,optionLeft,30,11645,5,39,0,39,0,1,,,,,,,,,,,,,,,,,,,,,,,,,,,,,,,,,,,,,,,
,,,,,,,,2023-08-16_08h45.10.716,HF_wild_card,2022.2.4,Win32,60.0528465,5efc6a4ba720250009909dfe,64d2fd46c836a06233681665,64dc7e79463047e8be8a3d6b,,,,,,,decisionTrl,resources/DG.BMP,resources/DY.BMP,Door1,-0.212037023,-0.033333333,1,0,0,1.0298,optionLeft,30,11675,5,40,0,40,0,1,,,,,,,,,,,,,,,,,,,,,,,,,,,,,,,,,,,,,,,
,,,,,,,,2023-08-16_08h45.10.716,HF_wild_card,2022.2.4,Win32,60.0528465,5efc6a4ba720250009909dfe,64d2fd46c836a06233681665,64dc7e79463047e8be8a3d6b,,,,,,,decisionTrl,resources/DB.BMP,resources/DBN.BMP,Door4,-0.223148134,-0.017592621,1,0,0,1.0442,optionLeft,80,11755,5,41,0,41,0,1,,,,,,,,,,,,,,,,,,,,,,,,,,,,,,,,,,,,,,,
,,,,,,,,2023-08-16_08h45.10.716,HF_wild_card,2022.2.4,Win32,60.0528465,5efc6a4ba720250009909dfe,64d2fd46c836a06233681665,64dc7e79463047e8be8a3d6b,,,,,,,decisionTrl,resources/DB.BMP,resources/DBN.BMP,Door4,-0.251851824,-0.030555556,1,0,0,1.0131,optionLeft,60,11815,5,42,0,42,0,1,,,,,,,,,,,,,,,,,,,,,,,,,,,,,,,,,,,,,,,
,,,,,,,,2023-08-16_08h45.10.716,HF_wild_card,2022.2.4,Win32,60.0528465,5efc6a4ba720250009909dfe,64d2fd46c836a06233681665,64dc7e79463047e8be8a3d6b,,,,,,,decisionTrl,resources/DY.BMP,resources/DP.BMP,WildCard_Ex,0.192592621,0.014814801,1,0,0,0.9625,optionRight,95,11910,5,43,0,43,0,1,,,,,,,,,,,,,,,,,,,,,,,,,,,,,,,,,,,,,,,
,,,,,,,,2023-08-16_08h45.10.716,HF_wild_card,2022.2.4,Win32,60.0528465,5efc6a4ba720250009909dfe,64d2fd46c836a06233681665,64dc7e79463047e8be8a3d6b,,,,,,,,,,,,,,,,,,,,,,,,,,4,0,4,0,1,,,,,,,,,,,,,,,,,,,,,,,,,,,,,,,,,,
,,,,,,,,2023-08-16_08h45.10.716,HF_wild_card,2022.2.4,Win32,60.0528465,5efc6a4ba720250009909dfe,64d2fd46c836a06233681665,64dc7e79463047e8be8a3d6b,,,,,,,decisionTrl,resources/DP.BMP,resources/DB.BMP,Door4,0.212037065,-0.125,1,0,0,1.3438,optionRight,60,11970,6,0,0,0,0,1,,,,,,,,,,,,,,,,,,,,,,,,,,,,,,,,,,,,,,,
,,,,,,,,2023-08-16_08h45.10.716,HF_wild_card,2022.2.4,Win32,60.0528465,5efc6a4ba720250009909dfe,64d2fd46c836a06233681665,64dc7e79463047e8be8a3d6b,,,,,,,sngl,resources/Empty.png,resources/DP.BMP,WildCard_Ex,0.15,0.006481467,1,0,0,0.8456,optionRight,95,12065,6,1,0,1,0,1,,,,,,,,,,,,,,,,,,,,,,,,,,,,,,,,,,,,,,,
,,,,,,,,2023-08-16_08h45.10.716,HF_wild_card,2022.2.4,Win32,60.0528465,5efc6a4ba720250009909dfe,64d2fd46c836a06233681665,64dc7e79463047e8be8a3d6b,,,,,,,decisionTrl,resources/DBN.BMP,resources/DB.BMP,Door4,0.291666667,0.012962935,1,0,0,1.4294,optionRight,80,12145,6,2,0,2,0,1,,,,,,,,,,,,,,,,,,,,,,,,,,,,,,,,,,,,,,,
,,,,,,,,2023-08-16_08h45.10.716,HF_wild_card,2022.2.4,Win32,60.0528465,5efc6a4ba720250009909dfe,64d2fd46c836a06233681665,64dc7e79463047e8be8a3d6b,,,,,,,decisionTrl,resources/DG.BMP,resources/DY.BMP,Door1,-0.209259245,-0.018518533,1,0,0,1.0793,optionLeft,30,12175,6,3,0,3,0,1,,,,,,,,,,,,,,,,,,,,,,,,,,,,,,,,,,,,,,,
,,,,,,,,2023-08-16_08h45.10.716,HF_wild_card,2022.2.4,Win32,60.0528465,5efc6a4ba720250009909dfe,64d2fd46c836a06233681665,64dc7e79463047e8be8a3d6b,,,,,,,decisionTrl,resources/DG.BMP,resources/DY.BMP,Door2,0.263888889,0.037962935,1,0,0,1.0622,optionRight,20,12195,6,4,0,4,0,1,,,,,,,,,,,,,,,,,,,,,,,,,,,,,,,,,,,,,,,
,,,,,,,,2023-08-16_08h45.10.716,HF_wild_card,2022.2.4,Win32,60.0528465,5efc6a4ba720250009909dfe,64d2fd46c836a06233681665,64dc7e79463047e8be8a3d6b,,,,,,,decisionTrl,resources/DY.BMP,resources/DG.BMP,Door1,0.229629686,0.020370356,1,0,0,0.9632,optionRight,30,12225,6,5,0,5,0,1,,,,,,,,,,,,,,,,,,,,,,,,,,,,,,,,,,,,,,,
,,,,,,,,2023-08-16_08h45.10.716,HF_wild_card,2022.2.4,Win32,60.0528465,5efc6a4ba720250009909dfe,64d2fd46c836a06233681665,64dc7e79463047e8be8a3d6b,,,,,,,sngl,resources/Empty.png,resources/DBN.BMP,Door3,0.197222222,0.045370356,1,0,0,0.8627,optionRight,70,12295,6,6,0,6,0,1,,,,,,,,,,,,,,,,,,,,,,,,,,,,,,,,,,,,,,,
,,,,,,,,2023-08-16_08h45.10.716,HF_wild_card,2022.2.4,Win32,60.0528465,5efc6a4ba720250009909dfe,64d2fd46c836a06233681665,64dc7e79463047e8be8a3d6b,,,,,,,decisionTrl,resources/DB.BMP,resources/DBN.BMP,Door4,-0.187962935,-0.020370399,1,0,0,0.8292,optionLeft,60,12355,6,7,0,7,0,1,,,,,,,,,,,,,,,,,,,,,,,,,,,,,,,,,,,,,,,
,,,,,,,,2023-08-16_08h45.10.716,HF_wild_card,2022.2.4,Win32,60.0528465,5efc6a4ba720250009909dfe,64d2fd46c836a06233681665,64dc7e79463047e8be8a3d6b,,,,,,,decisionTrl,resources/DB.BMP,resources/DP.BMP,WildCard_Ex,0.209259288,0.012962935,1,0,0,1.0289,optionRight,95,12450,6,8,0,8,0,1,,,,,,,,,,,,,,,,,,,,,,,,,,,,,,,,,,,,,,,
,,,,,,,,2023-08-16_08h45.10.716,HF_wild_card,2022.2.4,Win32,60.0528465,5efc6a4ba720250009909dfe,64d2fd46c836a06233681665,64dc7e79463047e8be8a3d6b,,,,,,,ctch,resources/DG.BMP,resources/DB.BMP,Door4,0.195370399,0.012962935,1,0,0,0.9787,optionRight,60,12510,6,9,0,9,0,1,,,,,,,,,,,,,,,,,,,,,,,,,,,,,,,,,,,,,,,
,,,,,,,,2023-08-16_08h45.10.716,HF_wild_card,2022.2.4,Win32,60.0528465,5efc6a4ba720250009909dfe,64d2fd46c836a06233681665,64dc7e79463047e8be8a3d6b,,,,,,,decisionTrl,resources/DBN.BMP,resources/DB.BMP,Door3,-0.169444444,-0.049074088,1,0,0,1.1461,optionLeft,70,12580,6,10,0,10,0,1,,,,,,,,,,,,,,,,,,,,,,,,,,,,,,,,,,,,,,,
,,,,,,,,2023-08-16_08h45.10.716,HF_wild_card,2022.2.4,Win32,60.0528465,5efc6a4ba720250009909dfe,64d2fd46c836a06233681665,64dc7e79463047e8be8a3d6b,,,,,,,decisionTrl,resources/DY.BMP,resources/DG.BMP,Door2,-0.155555556,-0.009259288,1,0,0,1.6294,optionLeft,40,12620,6,11,0,11,0,1,,,,,,,,,,,,,,,,,,,,,,,,,,,,,,,,,,,,,,,
,,,,,,,,2023-08-16_08h45.10.716,HF_wild_card,2022.2.4,Win32,60.0528465,5efc6a4ba720250009909dfe,64d2fd46c836a06233681665,64dc7e79463047e8be8a3d6b,,,,,,,sngl,resources/DP.BMP,resources/Empty.png,WildCard_Ex,-0.204629601,-0.029629644,1,0,0,0.8791,optionLeft,95,12715,6,12,0,12,0,1,,,,,,,,,,,,,,,,,,,,,,,,,,,,,,,,,,,,,,,
,,,,,,,,2023-08-16_08h45.10.716,HF_wild_card,2022.2.4,Win32,60.0528465,5efc6a4ba720250009909dfe,64d2fd46c836a06233681665,64dc7e79463047e8be8a3d6b,,,,,,,decisionTrl,resources/DBN.BMP,resources/DP.BMP,WildCard_Ex,0.324074131,0.034259245,1,0,0,0.8118,optionRight,95,12810,6,13,0,13,0,1,,,,,,,,,,,,,,,,,,,,,,,,,,,,,,,,,,,,,,,
,,,,,,,,2023-08-16_08h45.10.716,HF_wild_card,2022.2.4,Win32,60.0528465,5efc6a4ba720250009909dfe,64d2fd46c836a06233681665,64dc7e79463047e8be8a3d6b,,,,,,,sngl,resources/Empty.png,resources/DB.BMP,Door4,0.225,0.023148134,1,0,0,0.8291,optionRight,80,12890,6,14,0,14,0,1,,,,,,,,,,,,,,,,,,,,,,,,,,,,,,,,,,,,,,,
,,,,,,,,2023-08-16_08h45.10.716,HF_wild_card,2022.2.4,Win32,60.0528465,5efc6a4ba720250009909dfe,64d2fd46c836a06233681665,64dc7e79463047e8be8a3d6b,,,,,,,sngl,resources/Empty.png,resources/DG.BMP,Door1,0.219444444,0.047222222,1,0,0,0.9267,optionRight,30,12920,6,15,0,15,0,1,,,,,,,,,,,,,,,,,,,,,,,,,,,,,,,,,,,,,,,
,,,,,,,,2023-08-16_08h45.10.716,HF_wild_card,2022.2.4,Win32,60.0528465,5efc6a4ba720250009909dfe,64d2fd46c836a06233681665,64dc7e79463047e8be8a3d6b,,,,,,,decisionTrl,resources/DG.BMP,resources/DP.BMP,WildCard_Ex,0.264814843,0.024074046,1,0,0,1.0951,optionRight,5,12925,6,16,0,16,0,1,,,,,,,,,,,,,,,,,,,,,,,,,,,,,,,,,,,,,,,
,,,,,,,,2023-08-16_08h45.10.716,HF_wild_card,2022.2.4,Win32,60.0528465,5efc6a4ba720250009909dfe,64d2fd46c836a06233681665,64dc7e79463047e8be8a3d6b,,,,,,,decisionTrl,resources/DP.BMP,resources/DY.BMP,WildCard_Ex,-0.266666667,-0.037037065,1,0,0,1.428,optionLeft,5,12930,6,17,0,17,0,1,,,,,,,,,,,,,,,,,,,,,,,,,,,,,,,,,,,,,,,
,,,,,,,,2023-08-16_08h45.10.716,HF_wild_card,2022.2.4,Win32,60.0528465,5efc6a4ba720250009909dfe,64d2fd46c836a06233681665,64dc7e79463047e8be8a3d6b,,,,,,,sngl,resources/DP.BMP,resources/Empty.png,WildCard_Ex,-0.225925912,-0.037962977,1,0,0,0.8121,optionLeft,5,12935,6,18,0,18,0,1,,,,,,,,,,,,,,,,,,,,,,,,,,,,,,,,,,,,,,,
,,,,,,,,2023-08-16_08h45.10.716,HF_wild_card,2022.2.4,Win32,60.0528465,5efc6a4ba720250009909dfe,64d2fd46c836a06233681665,64dc7e79463047e8be8a3d6b,,,,,,,ctch,resources/DY.BMP,resources/DBN.BMP,Door3,0.200925954,-0.026851866,1,0,0,1.3955,optionRight,70,13005,6,19,0,19,0,1,,,,,,,,,,,,,,,,,,,,,,,,,,,,,,,,,,,,,,,
,,,,,,,,2023-08-16_08h45.10.716,HF_wild_card,2022.2.4,Win32,60.0528465,5efc6a4ba720250009909dfe,64d2fd46c836a06233681665,64dc7e79463047e8be8a3d6b,,,,,,,ctch,resources/DB.BMP,resources/DG.BMP,Door4,-0.186111111,-0.025925954,1,0,0,0.8725,optionLeft,60,13065,6,20,0,20,0,1,,,,,,,,,,,,,,,,,,,,,,,,,,,,,,,,,,,,,,,
,,,,,,,,2023-08-16_08h45.10.716,HF_wild_card,2022.2.4,Win32,60.0528465,5efc6a4ba720250009909dfe,64d2fd46c836a06233681665,64dc7e79463047e8be8a3d6b,,,,,,,decisionTrl,resources/DBN.BMP,resources/DB.BMP,Door3,-0.346296268,-0.040740755,1,0,0,1.2287,optionLeft,70,13135,6,21,0,21,0,1,,,,,,,,,,,,,,,,,,,,,,,,,,,,,,,,,,,,,,,
,,,,,,,,2023-08-16_08h45.10.716,HF_wild_card,2022.2.4,Win32,60.0528465,5efc6a4ba720250009909dfe,64d2fd46c836a06233681665,64dc7e79463047e8be8a3d6b,,,,,,,ctch,resources/DBN.BMP,resources/DY.BMP,Door3,-0.242592578,-0.064814843,1,0,0,0.9958,optionLeft,70,13205,6,22,0,22,0,1,,,,,,,,,,,,,,,,,,,,,,,,,,,,,,,,,,,,,,,
,,,,,,,,2023-08-16_08h45.10.716,HF_wild_card,2022.2.4,Win32,60.0528465,5efc6a4ba720250009909dfe,64d2fd46c836a06233681665,64dc7e79463047e8be8a3d6b,,,,,,,sngl,resources/Empty.png,resources/DY.BMP,Door2,0.147222222,-0.005555556,1,0,0,0.8453,optionRight,40,13245,6,23,0,23,0,1,,,,,,,,,,,,,,,,,,,,,,,,,,,,,,,,,,,,,,,
,,,,,,,,2023-08-16_08h45.10.716,HF_wild_card,2022.2.4,Win32,60.0528465,5efc6a4ba720250009909dfe,64d2fd46c836a06233681665,64dc7e79463047e8be8a3d6b,,,,,,,ctch,resources/DY.BMP,resources/DBN.BMP,Door3,0.237963019,0.039814801,1,0,0,1.0625,optionRight,70,13315,6,24,0,24,0,1,,,,,,,,,,,,,,,,,,,,,,,,,,,,,,,,,,,,,,,
,,,,,,,,2023-08-16_08h45.10.716,HF_wild_card,2022.2.4,Win32,60.0528465,5efc6a4ba720250009909dfe,64d2fd46c836a06233681665,64dc7e79463047e8be8a3d6b,,,,,,,sngl,resources/Empty.png,resources/DP.BMP,WildCard_Ex,0.218518575,0.05,1,0,0,0.7796,optionRight,5,13320,6,25,0,25,0,1,,,,,,,,,,,,,,,,,,,,,,,,,,,,,,,,,,,,,,,
,,,,,,,,2023-08-16_08h45.10.716,HF_wild_card,2022.2.4,Win32,60.0528465,5efc6a4ba720250009909dfe,64d2fd46c836a06233681665,64dc7e79463047e8be8a3d6b,,,,,,,decisionTrl,resources/DB.BMP,resources/DBN.BMP,Door4,-0.21851849,0.011111111,1,0,0,0.9794,optionLeft,80,13400,6,26,0,26,0,1,,,,,,,,,,,,,,,,,,,,,,,,,,,,,,,,,,,,,,,
,,,,,,,,2023-08-16_08h45.10.716,HF_wild_card,2022.2.4,Win32,60.0528465,5efc6a4ba720250009909dfe,64d2fd46c836a06233681665,64dc7e79463047e8be8a3d6b,,,,,,,decisionTrl,resources/DP.BMP,resources/DG.BMP,WildCard_Ex,-0.166666667,-0.033333333,1,0,0,1.1796,optionLeft,5,13405,6,27,0,27,0,1,,,,,,,,,,,,,,,,,,,,,,,,,,,,,,,,,,,,,,,
,,,,,,,,2023-08-16_08h45.10.716,HF_wild_card,2022.2.4,Win32,60.0528465,5efc6a4ba720250009909dfe,64d2fd46c836a06233681665,64dc7e79463047e8be8a3d6b,,,,,,,decisionTrl,resources/DY.BMP,resources/DG.BMP,Door2,-0.204629601,-0.017592621,1,0,0,1.3607,optionLeft,40,13445,6,28,0,28,0,1,,,,,,,,,,,,,,,,,,,,,,,,,,,,,,,,,,,,,,,
,,,,,,,,2023-08-16_08h45.10.716,HF_wild_card,2022.2.4,Win32,60.0528465,5efc6a4ba720250009909dfe,64d2fd46c836a06233681665,64dc7e79463047e8be8a3d6b,,,,,,,decisionTrl,resources/DY.BMP,resources/DP.BMP,Door2,-0.224074046,-0.002777778,1,0,0,1.2625,optionLeft,20,13465,6,29,0,29,0,1,,,,,,,,,,,,,,,,,,,,,,,,,,,,,,,,,,,,,,,
,,,,,,,,2023-08-16_08h45.10.716,HF_wild_card,2022.2.4,Win32,60.0528465,5efc6a4ba720250009909dfe,64d2fd46c836a06233681665,64dc7e79463047e8be8a3d6b,,,,,,,decisionTrl,resources/DB.BMP,resources/DBN.BMP,Door4,-0.215740712,-0.025925954,1,0,0,0.9282,optionLeft,80,13545,6,30,0,30,0,1,,,,,,,,,,,,,,,,,,,,,,,,,,,,,,,,,,,,,,,
,,,,,,,,2023-08-16_08h45.10.716,HF_wild_card,2022.2.4,Win32,60.0528465,5efc6a4ba720250009909dfe,64d2fd46c836a06233681665,64dc7e79463047e8be8a3d6b,,,,,,,decisionTrl,resources/DB.BMP,resources/DBN.BMP,Door4,-0.226851824,-0.030555556,1,0,0,0.8458,optionLeft,60,13605,6,31,0,31,0,1,,,,,,,,,,,,,,,,,,,,,,,,,,,,,,,,,,,,,,,
,,,,,,,,2023-08-16_08h45.10.716,HF_wild_card,2022.2.4,Win32,60.0528465,5efc6a4ba720250009909dfe,64d2fd46c836a06233681665,64dc7e79463047e8be8a3d6b,,,,,,,sngl,resources/DBN.BMP,resources/Empty.png,Door3,-0.235185157,-0.022222222,1,0,0,0.8454,optionLeft,70,13675,6,32,0,32,0,1,,,,,,,,,,,,,,,,,,,,,,,,,,,,,,,,,,,,,,,
,,,,,,,,2023-08-16_08h45.10.716,HF_wild_card,2022.2.4,Win32,60.0528465,5efc6a4ba720250009909dfe,64d2fd46c836a06233681665,64dc7e79463047e8be8a3d6b,,,,,,,ctch,resources/DB.BMP,resources/DG.BMP,Door4,-0.179629601,0.012962935,1,0,0,1.0117,optionLeft,80,13755,6,33,0,33,0,1,,,,,,,,,,,,,,,,,,,,,,,,,,,,,,,,,,,,,,,
,,,,,,,,2023-08-16_08h45.10.716,HF_wild_card,2022.2.4,Win32,60.0528465,5efc6a4ba720250009909dfe,64d2fd46c836a06233681665,64dc7e79463047e8be8a3d6b,,,,,,,decisionTrl,resources/DG.BMP,resources/DY.BMP,Door2,0.179629686,0.024074046,1,0,0,1.9961,optionRight,40,13795,6,34,0,34,0,1,,,,,,,,,,,,,,,,,,,,,,,,,,,,,,,,,,,,,,,
,,,,,,,,2023-08-16_08h45.10.716,HF_wild_card,2022.2.4,Win32,60.0528465,5efc6a4ba720250009909dfe,64d2fd46c836a06233681665,64dc7e79463047e8be8a3d6b,,,,,,,decisionTrl,resources/DG.BMP,resources/DY.BMP,Door2,0.177777778,0.000925912,1,0,0,0.9455,optionRight,20,13815,6,35,0,35,0,1,,,,,,,,,,,,,,,,,,,,,,,,,,,,,,,,,,,,,,,
,,,,,,,,2023-08-16_08h45.10.716,HF_wild_card,2022.2.4,Win32,60.0528465,5efc6a4ba720250009909dfe,64d2fd46c836a06233681665,64dc7e79463047e8be8a3d6b,,,,,,,sngl,resources/DY.BMP,resources/Empty.png,Door2,-0.230555556,-0.018518533,1,0,0,0.8678,optionLeft,20,13835,6,36,0,36,0,1,,,,,,,,,,,,,,,,,,,,,,,,,,,,,,,,,,,,,,,
,,,,,,,,2023-08-16_08h45.10.716,HF_wild_card,2022.2.4,Win32,60.0528465,5efc6a4ba720250009909dfe,64d2fd46c836a06233681665,64dc7e79463047e8be8a3d6b,,,,,,,ctch,resources/DG.BMP,resources/DB.BMP,Door4,0.185185242,0.010185157,1,0,0,1.1459,optionRight,60,13895,6,37,0,37,0,1,,,,,,,,,,,,,,,,,,,,,,,,,,,,,,,,,,,,,,,
,,,,,,,,2023-08-16_08h45.10.716,HF_wild_card,2022.2.4,Win32,60.0528465,5efc6a4ba720250009909dfe,64d2fd46c836a06233681665,64dc7e79463047e8be8a3d6b,,,,,,,sngl,resources/DB.BMP,resources/Empty.png,Door4,-0.215740712,-0.026851866,1,0,0,0.8121,optionLeft,60,13955,6,38,0,38,0,1,,,,,,,,,,,,,,,,,,,,,,,,,,,,,,,,,,,,,,,
,,,,,,,,2023-08-16_08h45.10.716,HF_wild_card,2022.2.4,Win32,60.0528465,5efc6a4ba720250009909dfe,64d2fd46c836a06233681665,64dc7e79463047e8be8a3d6b,,,,,,,decisionTrl,resources/DP.BMP,resources/DBN.BMP,Door3,0.197222222,-0.003703732,1,0,0,1.6614,optionRight,70,14025,6,39,0,39,0,1,,,,,,,,,,,,,,,,,,,,,,,,,,,,,,,,,,,,,,,
,,,,,,,,2023-08-16_08h45.10.716,HF_wild_card,2022.2.4,Win32,60.0528465,5efc6a4ba720250009909dfe,64d2fd46c836a06233681665,64dc7e79463047e8be8a3d6b,,,,,,,decisionTrl,resources/DY.BMP,resources/DG.BMP,Door2,-0.191666667,-0.020370399,1,0,0,1.2782,optionLeft,20,14045,6,40,0,40,0,1,,,,,,,,,,,,,,,,,,,,,,,,,,,,,,,,,,,,,,,
,,,,,,,,2023-08-16_08h45.10.716,HF_wild_card,2022.2.4,Win32,60.0528465,5efc6a4ba720250009909dfe,64d2fd46c836a06233681665,64dc7e79463047e8be8a3d6b,,,,,,,sngl,resources/DG.BMP,resources/Empty.png,Door1,-0.255555556,-0.029629644,1,0,0,0.9791,optionLeft,30,14075,6,41,0,41,0,1,,,,,,,,,,,,,,,,,,,,,,,,,,,,,,,,,,,,,,,
,,,,,,,,2023-08-16_08h45.10.716,HF_wild_card,2022.2.4,Win32,60.0528465,5efc6a4ba720250009909dfe,64d2fd46c836a06233681665,64dc7e79463047e8be8a3d6b,,,,,,,decisionTrl,resources/DBN.BMP,resources/DB.BMP,Door4,0.202777778,-0.013888889,1,0,0,1.0781,optionRight,80,14155,6,42,0,42,0,1,,,,,,,,,,,,,,,,,,,,,,,,,,,,,,,,,,,,,,,
,,,,,,,,2023-08-16_08h45.10.716,HF_wild_card,2022.2.4,Win32,60.0528465,5efc6a4ba720250009909dfe,64d2fd46c836a06233681665,64dc7e79463047e8be8a3d6b,,,,,,,ctch,resources/DBN.BMP,resources/DY.BMP,Door3,-0.279629601,-0.028703732,1,0,0,0.8628,optionLeft,70,14225,6,43,0,43,0,1,,,,,,,,,,,,,,,,,,,,,,,,,,,,,,,,,,,,,,,
,,,,,,,,2023-08-16_08h45.10.716,HF_wild_card,2022.2.4,Win32,60.0528465,5efc6a4ba720250009909dfe,64d2fd46c836a06233681665,64dc7e79463047e8be8a3d6b,,,,,,,,,,,,,,,,,,,,,,,,,,5,0,5,0,1,,,,,,,,,,,,,,,,,,,,,,,,,,,,,,,,,,
,,,,,,,,2023-08-16_08h45.10.716,HF_wild_card,2022.2.4,Win32,60.0528465,5efc6a4ba720250009909dfe,64d2fd46c836a06233681665,64dc7e79463047e8be8a3d6b,,,,,,,decisionTrl,resources/DG.BMP,resources/DY.BMP,Door2,0.150925954,-0.092592621,1,0,0,1.3771,optionRight,40,14265,7,0,0,0,0,1,,,,,,,,,,,,,,,,,,,,,,,,,,,,,,,,,,,,,,,
,,,,,,,,2023-08-16_08h45.10.716,HF_wild_card,2022.2.4,Win32,60.0528465,5efc6a4ba720250009909dfe,64d2fd46c836a06233681665,64dc7e79463047e8be8a3d6b,,,,,,,decisionTrl,resources/DY.BMP,resources/DG.BMP,Door2,-0.187037023,-0.019444444,1,0,0,1.0472,optionLeft,20,14285,7,1,0,1,0,1,,,,,,,,,,,,,,,,,,,,,,,,,,,,,,,,,,,,,,,
,,,,,,,,2023-08-16_08h45.10.716,HF_wild_card,2022.2.4,Win32,60.0528465,5efc6a4ba720250009909dfe,64d2fd46c836a06233681665,64dc7e79463047e8be8a3d6b,,,,,,,decisionTrl,resources/DB.BMP,resources/DBN.BMP,Door4,-0.225925912,-0.022222222,1,0,0,0.9302,optionLeft,80,14365,7,2,0,2,0,1,,,,,,,,,,,,,,,,,,,,,,,,,,,,,,,,,,,,,,,
,,,,,,,,2023-08-16_08h45.10.716,HF_wild_card,2022.2.4,Win32,60.0528465,5efc6a4ba720250009909dfe,64d2fd46c836a06233681665,64dc7e79463047e8be8a3d6b,,,,,,,decisionTrl,resources/DB.BMP,resources/DBN.BMP,Door4,-0.262037023,-0.022222222,1,0,0,1.0316,optionLeft,60,14425,7,3,0,3,0,1,,,,,,,,,,,,,,,,,,,,,,,,,,,,,,,,,,,,,,,
,,,,,,,,2023-08-16_08h45.10.716,HF_wild_card,2022.2.4,Win32,60.0528465,5efc6a4ba720250009909dfe,64d2fd46c836a06233681665,64dc7e79463047e8be8a3d6b,,,,,,,decisionTrl,resources/DBN.BMP,resources/DB.BMP,Door3,-0.27870369,-0.016666667,1,0,0,1.4635,optionLeft,70,14495,7,4,0,4,0,1,,,,,,,,,,,,,,,,,,,,,,,,,,,,,,,,,,,,,,,
,,,,,,,,2023-08-16_08h45.10.716,HF_wild_card,2022.2.4,Win32,60.0528465,5efc6a4ba720250009909dfe,64d2fd46c836a06233681665,64dc7e79463047e8be8a3d6b,,,,,,,decisionTrl,resources/DB.BMP,resources/DBN.BMP,Door3,0.289814843,-0.034259288,1,0,0,1.2138,optionRight,70,14565,7,5,0,5,0,1,,,,,,,,,,,,,,,,,,,,,,,,,,,,,,,,,,,,,,,
,,,,,,,,2023-08-16_08h45.10.716,HF_wild_card,2022.2.4,Win32,60.0528465,5efc6a4ba720250009909dfe,64d2fd46c836a06233681665,64dc7e79463047e8be8a3d6b,,,,,,,decisionTrl,resources/DG.BMP,resources/DY.BMP,Door2,0.223148176,-0.029629644,1,0,0,1.0613,optionRight,20,14585,7,6,0,6,0,1,,,,,,,,,,,,,,,,,,,,,,,,,,,,,,,,,,,,,,,
,,,,,,,,2023-08-16_08h45.10.716,HF_wild_card,2022.2.4,Win32,60.0528465,5efc6a4ba720250009909dfe,64d2fd46c836a06233681665,64dc7e79463047e8be8a3d6b,,,,,,,decisionTrl,resources/DY.BMP,resources/DG.BMP,Door2,-0.229629601,-0.016666667,1,0,0,1.0312,optionLeft,40,14625,7,7,0,7,0,1,,,,,,,,,,,,,,,,,,,,,,,,,,,,,,,,,,,,,,,
,,,,,,,,2023-08-16_08h45.10.716,HF_wild_card,2022.2.4,Win32,60.0528465,5efc6a4ba720250009909dfe,64d2fd46c836a06233681665,64dc7e79463047e8be8a3d6b,,,,,,,ctch,resources/DBN.BMP,resources/DY.BMP,Door3,-0.202777778,0,1,0,0,0.9955,optionLeft,70,14695,7,8,0,8,0,1,,,,,,,,,,,,,,,,,,,,,,,,,,,,,,,,,,,,,,,
,,,,,,,,2023-08-16_08h45.10.716,HF_wild_card,2022.2.4,Win32,60.0528465,5efc6a4ba720250009909dfe,64d2fd46c836a06233681665,64dc7e79463047e8be8a3d6b,,,,,,,decisionTrl,resources/DY.BMP,resources/DG.BMP,Door2,-0.22870369,-0.040740755,1,0,0,1.6645,optionLeft,20,14715,7,9,0,9,0,1,,,,,,,,,,,,,,,,,,,,,,,,,,,,,,,,,,,,,,,
,,,,,,,,2023-08-16_08h45.10.716,HF_wild_card,2022.2.4,Win32,60.0528465,5efc6a4ba720250009909dfe,64d2fd46c836a06233681665,64dc7e79463047e8be8a3d6b,,,,,,,ctch,resources/DB.BMP,resources/DG.BMP,Door4,-0.21851849,-0.03148151,1,0,0,0.9636,optionLeft,60,14775,7,10,0,10,0,1,,,,,,,,,,,,,,,,,,,,,,,,,,,,,,,,,,,,,,,
,,,,,,,,2023-08-16_08h45.10.716,HF_wild_card,2022.2.4,Win32,60.0528465,5efc6a4ba720250009909dfe,64d2fd46c836a06233681665,64dc7e79463047e8be8a3d6b,,,,,,,ctch,resources/DY.BMP,resources/DBN.BMP,Door3,0.183333333,-0.009259288,1,0,0,0.9645,optionRight,70,14845,7,11,0,11,0,1,,,,,,,,,,,,,,,,,,,,,,,,,,,,,,,,,,,,,,,
,,,,,,,,2023-08-16_08h45.10.716,HF_wild_card,2022.2.4,Win32,60.0528465,5efc6a4ba720250009909dfe,64d2fd46c836a06233681665,64dc7e79463047e8be8a3d6b,,,,,,,decisionTrl,resources/DY.BMP,resources/DG.BMP,Door2,-0.20370369,-0.047222222,1,0,0,1.3814,optionLeft,40,14885,7,12,0,12,0,1,,,,,,,,,,,,,,,,,,,,,,,,,,,,,,,,,,,,,,,
,,,,,,,,2023-08-16_08h45.10.716,HF_wild_card,2022.2.4,Win32,60.0528465,5efc6a4ba720250009909dfe,64d2fd46c836a06233681665,64dc7e79463047e8be8a3d6b,,,,,,,ctch,resources/DG.BMP,resources/DB.BMP,Door4,0.213888889,0.014814801,1,0,0,0.9971,optionRight,80,14965,7,13,0,13,0,1,,,,,,,,,,,,,,,,,,,,,,,,,,,,,,,,,,,,,,,
,,,,,,,,2023-08-16_08h45.10.716,HF_wild_card,2022.2.4,Win32,60.0528465,5efc6a4ba720250009909dfe,64d2fd46c836a06233681665,64dc7e79463047e8be8a3d6b,,,,,,,ctch,resources/DY.BMP,resources/DBN.BMP,Door3,0.262963019,0.001851824,1,0,0,1.002,optionRight,70,15035,7,14,0,14,0,1,,,,,,,,,,,,,,,,,,,,,,,,,,,,,,,,,,,,,,,
,,,,,,,,2023-08-16_08h45.10.716,HF_wild_card,2022.2.4,Win32,60.0528465,5efc6a4ba720250009909dfe,64d2fd46c836a06233681665,64dc7e79463047e8be8a3d6b,,,,,,,decisionTrl,resources/DBN.BMP,resources/DB.BMP,Door4,0.234259288,-0.001851866,1,0,0,0.9306,optionRight,60,15095,7,15,0,15,0,1,,,,,,,,,,,,,,,,,,,,,,,,,,,,,,,,,,,,,,,
,,,,,,,,2023-08-16_08h45.10.716,HF_wild_card,2022.2.4,Win32,60.0528465,5efc6a4ba720250009909dfe,64d2fd46c836a06233681665,64dc7e79463047e8be8a3d6b,,,,,,,decisionTrl,resources/DB.BMP,resources/DBN.BMP,Door4,-0.191666667,-0.03148151,1,0,0,1.1637,optionLeft,60,15155,7,16,0,16,0,1,,,,,,,,,,,,,,,,,,,,,,,,,,,,,,,,,,,,,,,
,,,,,,,,2023-08-16_08h45.10.716,HF_wild_card,2022.2.4,Win32,60.0528465,5efc6a4ba720250009909dfe,64d2fd46c836a06233681665,64dc7e79463047e8be8a3d6b,,,,,,,decisionTrl,resources/DBN.BMP,resources/DB.BMP,Door4,0.237037065,-0.034259288,1,0,0,0.9472,optionRight,80,15235,7,17,0,17,0,1,,,,,,,,,,,,,,,,,,,,,,,,,,,,,,,,,,,,,,,
,,,,,,,,2023-08-16_08h45.10.716,HF_wild_card,2022.2.4,Win32,60.0528465,5efc6a4ba720250009909dfe,64d2fd46c836a06233681665,64dc7e79463047e8be8a3d6b,,,,,,,decisionTrl,resources/DG.BMP,resources/DY.BMP,Door2,0.230555556,0.002777778,1,0,0,1.0146,optionRight,40,15275,7,18,0,18,0,1,,,,,,,,,,,,,,,,,,,,,,,,,,,,,,,,,,,,,,,
,,,,,,,,2023-08-16_08h45.10.716,HF_wild_card,2022.2.4,Win32,60.0528465,5efc6a4ba720250009909dfe,64d2fd46c836a06233681665,64dc7e79463047e8be8a3d6b,,,,,,,ctch,resources/DB.BMP,resources/DG.BMP,Door4,-0.198148134,-0.016666667,1,0,0,0.9639,optionLeft,60,15335,7,19,0,19,0,1,,,,,,,,,,,,,,,,,,,,,,,,,,,,,,,,,,,,,,,
,,,,,,,,2023-08-16_08h45.10.716,HF_wild_card,2022.2.4,Win32,60.0528465,5efc6a4ba720250009909dfe,64d2fd46c836a06233681665,64dc7e79463047e8be8a3d6b,,,,,,,decisionTrl,resources/DB.BMP,resources/DBN.BMP,Door4,-0.198148134,-0.012962977,1,0,0,0.931,optionLeft,80,15415,7,20,0,20,0,1,,,,,,,,,,,,,,,,,,,,,,,,,,,,,,,,,,,,,,,
,,,,,,,,2023-08-16_08h45.10.716,HF_wild_card,2022.2.4,Win32,60.0528465,5efc6a4ba720250009909dfe,64d2fd46c836a06233681665,64dc7e79463047e8be8a3d6b,,,,,,,ctch,resources/DB.BMP,resources/DG.BMP,Door4,-0.240740712,-0.055555556,1,0,0,0.947,optionLeft,60,15475,7,21,0,21,0,1,,,,,,,,,,,,,,,,,,,,,,,,,,,,,,,,,,,,,,,
,,,,,,,,2023-08-16_08h45.10.716,HF_wild_card,2022.2.4,Win32,60.0528465,5efc6a4ba720250009909dfe,64d2fd46c836a06233681665,64dc7e79463047e8be8a3d6b,,,,,,,ctch,resources/DG.BMP,resources/DB.BMP,Door4,0.243518575,0.002777778,1,0,0,0.831,optionRight,80,15555,7,22,0,22,0,1,,,,,,,,,,,,,,,,,,,,,,,,,,,,,,,,,,,,,,,
,,,,,,,,2023-08-16_08h45.10.716,HF_wild_card,2022.2.4,Win32,60.0528465,5efc6a4ba720250009909dfe,64d2fd46c836a06233681665,64dc7e79463047e8be8a3d6b,,,,,,,decisionTrl,resources/DBN.BMP,resources/DB.BMP,Door3,-0.225925912,-0.04629631,1,0,0,1.5476,optionLeft,70,15625,7,23,0,23,0,1,,,,,,,,,,,,,,,,,,,,,,,,,,,,,,,,,,,,,,,
,,,,,,,,2023-08-16_08h45.10.716,HF_wild_card,2022.2.4,Win32,60.0528465,5efc6a4ba720250009909dfe,64d2fd46c836a06233681665,64dc7e79463047e8be8a3d6b,,,,,,,decisionTrl,resources/DBN.BMP,resources/DB.BMP,Door4,0.118518575,0.024074046,1,0,0,1.0314,optionRight,60,15685,7,24,0,24,0,1,,,,,,,,,,,,,,,,,,,,,,,,,,,,,,,,,,,,,,,
,,,,,,,,2023-08-16_08h45.10.716,HF_wild_card,2022.2.4,Win32,60.0528465,5efc6a4ba720250009909dfe,64d2fd46c836a06233681665,64dc7e79463047e8be8a3d6b,,,,,,,decisionTrl,resources/DG.BMP,resources/DY.BMP,Door2,0.177777778,0.027777778,1,0,0,0.9807,optionRight,40,15725,7,25,0,25,0,1,,,,,,,,,,,,,,,,,,,,,,,,,,,,,,,,,,,,,,,
,,,,,,,,2023-08-16_08h45.10.716,HF_wild_card,2022.2.4,Win32,60.0528465,5efc6a4ba720250009909dfe,64d2fd46c836a06233681665,64dc7e79463047e8be8a3d6b,,,,,,,ctch,resources/DBN.BMP,resources/DY.BMP,Door3,-0.285185157,-0.007407422,1,0,0,1.0807,optionLeft,70,15795,7,26,0,26,0,1,,,,,,,,,,,,,,,,,,,,,,,,,,,,,,,,,,,,,,,
,,,,,,,,2023-08-16_08h45.10.716,HF_wild_card,2022.2.4,Win32,60.0528465,5efc6a4ba720250009909dfe,64d2fd46c836a06233681665,64dc7e79463047e8be8a3d6b,,,,,,,ctch,resources/DY.BMP,resources/DBN.BMP,Door3,0.225,-0.005555556,1,0,0,0.8655,optionRight,70,15865,7,27,0,27,0,1,,,,,,,,,,,,,,,,,,,,,,,,,,,,,,,,,,,,,,,
,,,,,,,,2023-08-16_08h45.10.716,HF_wild_card,2022.2.4,Win32,60.0528465,5efc6a4ba720250009909dfe,64d2fd46c836a06233681665,64dc7e79463047e8be8a3d6b,,,,,,,decisionTrl,resources/DB.BMP,resources/DBN.BMP,Door4,-0.186111111,-0.005555556,1,0,0,1.1482,optionLeft,80,15945,7,28,0,28,0,1,,,,,,,,,,,,,,,,,,,,,,,,,,,,,,,,,,,,,,,
,,,,,,,,2023-08-16_08h45.10.716,HF_wild_card,2022.2.4,Win32,60.0528465,5efc6a4ba720250009909dfe,64d2fd46c836a06233681665,64dc7e79463047e8be8a3d6b,,,,,,,decisionTrl,resources/DG.BMP,resources/DY.BMP,Door2,0.184259288,0.014814801,1,0,0,0.9147,optionRight,40,15985,7,29,0,29,0,1,,,,,,,,,,,,,,,,,,,,,,,,,,,,,,,,,,,,,,,
,,,,,,,,2023-08-16_08h45.10.716,HF_wild_card,2022.2.4,Win32,60.0528465,5efc6a4ba720250009909dfe,64d2fd46c836a06233681665,64dc7e79463047e8be8a3d6b,,,,,,,decisionTrl,resources/DY.BMP,resources/DG.BMP,Door2,-0.156481425,-0.029629644,1,0,0,0.8477,optionLeft,40,16025,7,30,0,30,0,1,,,,,,,,,,,,,,,,,,,,,,,,,,,,,,,,,,,,,,,
,,,,,,,,2023-08-16_08h45.10.716,HF_wild_card,2022.2.4,Win32,60.0528465,5efc6a4ba720250009909dfe,64d2fd46c836a06233681665,64dc7e79463047e8be8a3d6b,,,,,,,ctch,resources/DBN.BMP,resources/DY.BMP,Door3,-0.263888889,-0.061111111,1,0,0,0.9642,optionLeft,70,16095,7,31,0,31,0,1,,,,,,,,,,,,,,,,,,,,,,,,,,,,,,,,,,,,,,,
,,,,,,,,2023-08-16_08h45.10.716,HF_wild_card,2022.2.4,Win32,60.0528465,5efc6a4ba720250009909dfe,64d2fd46c836a06233681665,64dc7e79463047e8be8a3d6b,,,,,,,decisionTrl,resources/DY.BMP,resources/DG.BMP,Door2,-0.249074046,-0.053703732,1,0,0,0.9318,optionLeft,40,16135,7,32,0,32,0,1,,,,,,,,,,,,,,,,,,,,,,,,,,,,,,,,,,,,,,,
,,,,,,,,2023-08-16_08h45.10.716,HF_wild_card,2022.2.4,Win32,60.0528465,5efc6a4ba720250009909dfe,64d2fd46c836a06233681665,64dc7e79463047e8be8a3d6b,,,,,,,decisionTrl,resources/DBN.BMP,resources/DB.BMP,Door4,0.172222222,-0.029629644,1,0,0,0.9973,optionRight,80,16215,7,33,0,33,0,1,,,,,,,,,,,,,,,,,,,,,,,,,,,,,,,,,,,,,,,
,,,,,,,,2023-08-16_08h45.10.716,HF_wild_card,2022.2.4,Win32,60.0528465,5efc6a4ba720250009909dfe,64d2fd46c836a06233681665,64dc7e79463047e8be8a3d6b,,,,,,,decisionTrl,resources/DG.BMP,resources/DY.BMP,Door2,0.141666667,-0.013888889,1,0,0,0.9479,optionRight,40,16255,7,34,0,34,0,1,,,,,,,,,,,,,,,,,,,,,,,,,,,,,,,,,,,,,,,
,,,,,,,,2023-08-16_08h45.10.716,HF_wild_card,2022.2.4,Win32,60.0528465,5efc6a4ba720250009909dfe,64d2fd46c836a06233681665,64dc7e79463047e8be8a3d6b,,,,,,,ctch,resources/DG.BMP,resources/DB.BMP,Door4,0.158333333,-0.010185199,1,0,0,0.9976,optionRight,60,16315,7,35,0,35,0,1,,,,,,,,,,,,,,,,,,,,,,,,,,,,,,,,,,,,,,,
,,,,,,,,2023-08-16_08h45.10.716,HF_wild_card,2022.2.4,Win32,60.0528465,5efc6a4ba720250009909dfe,64d2fd46c836a06233681665,64dc7e79463047e8be8a3d6b,,,,,,,,,,,,,,,,,,,,,,,,,,6,0,6,0,1,,,,,,,,,,,,,,,,,,,,,,,,,,,,,,,,,,
,,,,,,,,2023-08-16_08h45.10.716,HF_wild_card,2022.2.4,Win32,60.0528465,5efc6a4ba720250009909dfe,64d2fd46c836a06233681665,64dc7e79463047e8be8a3d6b,,,,,,,,,,,,,,,,,,,,,,,,,,,,,,,4,,,,,,,,,,,,,,,,,,,,,,,,,,,,,,,,,
,,,,,,,,2023-08-16_08h45.10.716,HF_wild_card,2022.2.4,Win32,60.0528465,5efc6a4ba720250009909dfe,64d2fd46c836a06233681665,64dc7e79463047e8be8a3d6b,,,,,,,,,,,,,,,,,,,,,,,,,,,,,,,,,,,,,,,,,,,,,,,,,,,,,,,,,,,,,,,,
,,,,,,,,2023-08-16_08h45.10.716,HF_wild_card,2022.2.4,Win32,60.0528465,5efc6a4ba720250009909dfe,64d2fd46c836a06233681665,64dc7e79463047e8be8a3d6b,,,,,,,,,,,,,,,,,,,,,,,,,,,,,,,,70,Door3,resources/DBN.BMP,0,0,0,0,1,,,,,,,,,,,,,,,,,,,,,,,,,
,,,,,,,,2023-08-16_08h45.10.716,HF_wild_card,2022.2.4,Win32,60.0528465,5efc6a4ba720250009909dfe,64d2fd46c836a06233681665,64dc7e79463047e8be8a3d6b,,,,,,,,,,,,,,,,,,,,,,,,,,,,,,,,95,WC_extreme,resources/DP.BMP,1,0,1,0,1,,,,,,,,,,,,,,,,,,,,,,,,,
,,,,,,,,2023-08-16_08h45.10.716,HF_wild_card,2022.2.4,Win32,60.0528465,5efc6a4ba720250009909dfe,64d2fd46c836a06233681665,64dc7e79463047e8be8a3d6b,,,,,,,,,,,,,,,,,,,,,,,,,,,,,,,,30,Door2,resources/DY.BMP,2,0,2,0,1,,,,,,,,,,,,,,,,,,,,,,,,,
,,,,,,,,2023-08-16_08h45.10.716,HF_wild_card,2022.2.4,Win32,60.0528465,5efc6a4ba720250009909dfe,64d2fd46c836a06233681665,64dc7e79463047e8be8a3d6b,,,,,,,,,,,,,,,,,,,,,,,,,,,,,,,,55,WC_nonExtreme,resources/DR.BMP,3,0,3,0,1,,,,,,,,,,,,,,,,,,,,,,,,,
,,,,,,,,2023-08-16_08h45.10.716,HF_wild_card,2022.2.4,Win32,60.0528465,5efc6a4ba720250009909dfe,64d2fd46c836a06233681665,64dc7e79463047e8be8a3d6b,,,,,,,,,,,,,,,,,,,,,,,,,,,,,,,,30,Door1,resources/DG.BMP,4,0,4,0,1,,,,,,,,,,,,,,,,,,,,,,,,,
,,,,,,,,2023-08-16_08h45.10.716,HF_wild_card,2022.2.4,Win32,60.0528465,5efc6a4ba720250009909dfe,64d2fd46c836a06233681665,64dc7e79463047e8be8a3d6b,,,,,,,,,,,,,,,,,,,,,,,,,,,,,,,,80,Door4,resources/DB.BMP,5,0,5,0,1,,,,,,,,,,,,,,,,,,,,,,,,,
,,,,,,,,2023-08-16_08h45.10.716,HF_wild_card,2022.2.4,Win32,60.0528465,5efc6a4ba720250009909dfe,64d2fd46c836a06233681665,64dc7e79463047e8be8a3d6b,,,,,,,,,,,,,,,,,,,,,,,,,,,,,,,,,,,,,,,,,,,,,,,,,,,,,,,,,,,,,,,,
,,,,,,,,2023-08-16_08h45.10.716,HF_wild_card,2022.2.4,Win32,60.0528465,5efc6a4ba720250009909dfe,64d2fd46c836a06233681665,64dc7e79463047e8be8a3d6b,,,,,,,,,,,,,,,,,,,,,,,,,,,,,,,,,,,,,,,,0,0,0,0,1,,,,,,,,,,,,,,,,,,,,
,,,,,,,,2023-08-16_08h45.10.716,HF_wild_card,2022.2.4,Win32,60.0528465,5efc6a4ba720250009909dfe,64d2fd46c836a06233681665,64dc7e79463047e8be8a3d6b,,,,,,,,,,,,,,,,,,,,,,,,,,,,,,,,,,,,,,,,1,0,1,0,1,,,,,,,,,,,,,,,,,,,,
