Condition,Low fixed image (Door1),Low risky image (Door2),High fixed image (Door3),High risky image (Door4),NonExtreme Wild Card 1,NonExtreme Wild Card 2,,date,expName,psychopyVersion,OS,frameRate,PROLIFIC_PID,STUDY_ID,SESSION_ID,mouse_2.x,mouse_2.y,mouse_2.leftButton,mouse_2.midButton,mouse_2.rightButton,mouse_2.clicked_name,Trial Type,Left Option Image,Right Option Image,Chosen Door,mouse.x,mouse.y,mouse.leftButton,mouse.midButton,mouse.rightButton,mouse.time,mouse.clicked_name,Feedback,Cumulative Reward,Block,trial.thisRepN,trial.thisTrialN,trial.thisN,trial.thisIndex,trial.ran,blocks.thisRepN,blocks.thisTrialN,blocks.thisN,blocks.thisIndex,blocks.ran,Money conversion,First Outcome Reported,Shown Door (First Outcome),Displayed Image (First Outcome),outcomes.thisRepN,outcomes.thisTrialN,outcomes.thisN,outcomes.thisIndex,outcomes.ran,judgments.thisRepN,judgments.thisTrialN,judgments.thisN,judgments.thisIndex,judgments.ran,freqMouse.x,freqMouse.y,freqMouse.leftButton,freqMouse.midButton,freqMouse.rightButton,freqMouse.clicked_name,FQJ for first outcome,FQJ for second outcome,Shown Door,Displayed Image,trials.thisRepN,trials.thisTrialN,trials.thisN,trials.thisIndex,trials.ran,judgBlock.thisRepN,judgBlock.thisTrialN,judgBlock.thisN,judgBlock.thisIndex,judgBlock.ran
2,resources/DBN.BMP,resources/DY.BMP,resources/DG.BMP,resources/DR.BMP,resources/DP.BMP,resources/DB.BMP,,2023-08-16_08h37.55.516,HF_wild_card,2022.2.4,Win32,10.00040002,5ea0141f476817000946fdc5,64d2fd46c836a06233681665,64dc7cb512bc9838b71f2151,,,,,,,,,,,,,,,,,,,,,,,,,,,,,,,,,,,,,,,,,,,,,,,,,,,,,,,,,,,,,,,,
,,,,,,,,2023-08-16_08h37.55.516,HF_wild_card,2022.2.4,Win32,10.00040002,5ea0141f476817000946fdc5,64d2fd46c836a06233681665,64dc7cb512bc9838b71f2151,-0.003703704,-0.416666667,1,0,0,agree,,,,,,,,,,,,,,,,,,,,,,,,,,,,,,,,,,,,,,,,,,,,,,,,,,,,,,,,,,
,,,,,,,,2023-08-16_08h37.55.516,HF_wild_card,2022.2.4,Win32,10.00040002,5ea0141f476817000946fdc5,64d2fd46c836a06233681665,64dc7cb512bc9838b71f2151,,,,,,,,,,,,,,,,,,,,,,,,,,,,,,,,,,,,,,,,,,,,,,,,,,,,,,,,,,,,,,,,
,,,,,,,,2023-08-16_08h37.55.516,HF_wild_card,2022.2.4,Win32,10.00040002,5ea0141f476817000946fdc5,64d2fd46c836a06233681665,64dc7cb512bc9838b71f2151,,,,,,,ctch,resources/DR.BMP,resources/DBN.BMP,Door1,0.401851852,-0.037962963,1,0,0,9.195,optionRight,30,30,1,0,0,0,0,1,,,,,,,,,,,,,,,,,,,,,,,,,,,,,,,,,,,,,,,
,,,,,,,,2023-08-16_08h37.55.516,HF_wild_card,2022.2.4,Win32,10.00040002,5ea0141f476817000946fdc5,64d2fd46c836a06233681665,64dc7cb512bc9838b71f2151,,,,,,,ctch,resources/DG.BMP,resources/DY.BMP,Door2,0.398148148,-0.169444444,1,0,0,5.436,optionRight,20,50,1,1,0,1,0,1,,,,,,,,,,,,,,,,,,,,,,,,,,,,,,,,,,,,,,,
,,,,,,,,2023-08-16_08h37.55.516,HF_wild_card,2022.2.4,Win32,10.00040002,5ea0141f476817000946fdc5,64d2fd46c836a06233681665,64dc7cb512bc9838b71f2151,,,,,,,decisionTrl,resources/DG.BMP,resources/DR.BMP,Door3,-0.308333333,-0.109259259,1,0,0,2.714,optionLeft,70,120,1,2,0,2,0,1,,,,,,,,,,,,,,,,,,,,,,,,,,,,,,,,,,,,,,,
,,,,,,,,2023-08-16_08h37.55.516,HF_wild_card,2022.2.4,Win32,10.00040002,5ea0141f476817000946fdc5,64d2fd46c836a06233681665,64dc7cb512bc9838b71f2151,,,,,,,decisionTrl,resources/DY.BMP,resources/DBN.BMP,Door2,-0.301851852,-0.060185185,1,0,0,4.296,optionLeft,20,140,1,3,0,3,0,1,,,,,,,,,,,,,,,,,,,,,,,,,,,,,,,,,,,,,,,
,,,,,,,,2023-08-16_08h37.55.516,HF_wild_card,2022.2.4,Win32,10.00040002,5ea0141f476817000946fdc5,64d2fd46c836a06233681665,64dc7cb512bc9838b71f2151,,,,,,,decisionTrl,resources/DG.BMP,resources/DB.BMP,Door3,-0.277777778,-0.057407407,1,0,0,2.812,optionLeft,70,210,1,4,0,4,0,1,,,,,,,,,,,,,,,,,,,,,,,,,,,,,,,,,,,,,,,
,,,,,,,,2023-08-16_08h37.55.516,HF_wild_card,2022.2.4,Win32,10.00040002,5ea0141f476817000946fdc5,64d2fd46c836a06233681665,64dc7cb512bc9838b71f2151,,,,,,,sngl,resources/Empty.png,resources/DB.BMP,WildCard_NonEx,0.339814815,-0.046296296,1,0,0,1.516,optionRight,55,265,1,5,0,5,0,1,,,,,,,,,,,,,,,,,,,,,,,,,,,,,,,,,,,,,,,
,,,,,,,,2023-08-16_08h37.55.516,HF_wild_card,2022.2.4,Win32,10.00040002,5ea0141f476817000946fdc5,64d2fd46c836a06233681665,64dc7cb512bc9838b71f2151,,,,,,,decisionTrl,resources/DY.BMP,resources/DBN.BMP,Door1,0.473148148,-0.021296296,1,0,0,4.622,optionRight,30,295,1,6,0,6,0,1,,,,,,,,,,,,,,,,,,,,,,,,,,,,,,,,,,,,,,,
,,,,,,,,2023-08-16_08h37.55.516,HF_wild_card,2022.2.4,Win32,10.00040002,5ea0141f476817000946fdc5,64d2fd46c836a06233681665,64dc7cb512bc9838b71f2151,,,,,,,decisionTrl,resources/DG.BMP,resources/DR.BMP,Door3,-0.410185185,-0.064814815,1,0,0,2.054,optionLeft,70,365,1,7,0,7,0,1,,,,,,,,,,,,,,,,,,,,,,,,,,,,,,,,,,,,,,,
,,,,,,,,2023-08-16_08h37.55.516,HF_wild_card,2022.2.4,Win32,10.00040002,5ea0141f476817000946fdc5,64d2fd46c836a06233681665,64dc7cb512bc9838b71f2151,,,,,,,sngl,resources/Empty.png,resources/DB.BMP,WildCard_NonEx,0.373148148,-0.040740741,1,0,0,1.392,optionRight,45,410,1,8,0,8,0,1,,,,,,,,,,,,,,,,,,,,,,,,,,,,,,,,,,,,,,,
,,,,,,,,2023-08-16_08h37.55.516,HF_wild_card,2022.2.4,Win32,10.00040002,5ea0141f476817000946fdc5,64d2fd46c836a06233681665,64dc7cb512bc9838b71f2151,,,,,,,decisionTrl,resources/DG.BMP,resources/DR.BMP,Door3,-0.29537037,-0.031481481,1,0,0,1.238,optionLeft,70,480,1,9,0,9,0,1,,,,,,,,,,,,,,,,,,,,,,,,,,,,,,,,,,,,,,,
,,,,,,,,2023-08-16_08h37.55.516,HF_wild_card,2022.2.4,Win32,10.00040002,5ea0141f476817000946fdc5,64d2fd46c836a06233681665,64dc7cb512bc9838b71f2151,,,,,,,decisionTrl,resources/DBN.BMP,resources/DY.BMP,Door2,0.405555556,-0.052777778,1,0,0,3.427,optionRight,20,500,1,10,0,10,0,1,,,,,,,,,,,,,,,,,,,,,,,,,,,,,,,,,,,,,,,
,,,,,,,,2023-08-16_08h37.55.516,HF_wild_card,2022.2.4,Win32,10.00040002,5ea0141f476817000946fdc5,64d2fd46c836a06233681665,64dc7cb512bc9838b71f2151,,,,,,,sngl,resources/Empty.png,resources/DY.BMP,Door2,0.356481481,-0.012037037,1,0,0,1.313,optionRight,20,520,1,11,0,11,0,1,,,,,,,,,,,,,,,,,,,,,,,,,,,,,,,,,,,,,,,
,,,,,,,,2023-08-16_08h37.55.516,HF_wild_card,2022.2.4,Win32,10.00040002,5ea0141f476817000946fdc5,64d2fd46c836a06233681665,64dc7cb512bc9838b71f2151,,,,,,,decisionTrl,resources/DR.BMP,resources/DB.BMP,WildCard_NonEx,0.350925926,-0.006481481,1,0,0,3.41,optionRight,45,565,1,12,0,12,0,1,,,,,,,,,,,,,,,,,,,,,,,,,,,,,,,,,,,,,,,
,,,,,,,,2023-08-16_08h37.55.516,HF_wild_card,2022.2.4,Win32,10.00040002,5ea0141f476817000946fdc5,64d2fd46c836a06233681665,64dc7cb512bc9838b71f2151,,,,,,,decisionTrl,resources/DR.BMP,resources/DG.BMP,Door3,0.402777778,-0.011111111,1,0,0,1.711,optionRight,70,635,1,13,0,13,0,1,,,,,,,,,,,,,,,,,,,,,,,,,,,,,,,,,,,,,,,
,,,,,,,,2023-08-16_08h37.55.516,HF_wild_card,2022.2.4,Win32,10.00040002,5ea0141f476817000946fdc5,64d2fd46c836a06233681665,64dc7cb512bc9838b71f2151,,,,,,,ctch,resources/DBN.BMP,resources/DR.BMP,Door1,-0.311111111,-0.027777778,1,0,0,2.239,optionLeft,30,665,1,14,0,14,0,1,,,,,,,,,,,,,,,,,,,,,,,,,,,,,,,,,,,,,,,
,,,,,,,,2023-08-16_08h37.55.516,HF_wild_card,2022.2.4,Win32,10.00040002,5ea0141f476817000946fdc5,64d2fd46c836a06233681665,64dc7cb512bc9838b71f2151,,,,,,,sngl,resources/DB.BMP,resources/Empty.png,WildCard_NonEx,-0.427777778,-0.046296296,1,0,0,1.263,optionLeft,45,710,1,15,0,15,0,1,,,,,,,,,,,,,,,,,,,,,,,,,,,,,,,,,,,,,,,
,,,,,,,,2023-08-16_08h37.55.516,HF_wild_card,2022.2.4,Win32,10.00040002,5ea0141f476817000946fdc5,64d2fd46c836a06233681665,64dc7cb512bc9838b71f2151,,,,,,,sngl,resources/Empty.png,resources/DR.BMP,Door4,0.474074074,-0.069444444,1,0,0,1.351,optionRight,60,770,1,16,0,16,0,1,,,,,,,,,,,,,,,,,,,,,,,,,,,,,,,,,,,,,,,
,,,,,,,,2023-08-16_08h37.55.516,HF_wild_card,2022.2.4,Win32,10.00040002,5ea0141f476817000946fdc5,64d2fd46c836a06233681665,64dc7cb512bc9838b71f2151,,,,,,,ctch,resources/DBN.BMP,resources/DR.BMP,Door4,0.421296296,-0.04537037,1,0,0,1.589,optionRight,60,830,1,17,0,17,0,1,,,,,,,,,,,,,,,,,,,,,,,,,,,,,,,,,,,,,,,
,,,,,,,,2023-08-16_08h37.55.516,HF_wild_card,2022.2.4,Win32,10.00040002,5ea0141f476817000946fdc5,64d2fd46c836a06233681665,64dc7cb512bc9838b71f2151,,,,,,,decisionTrl,resources/DY.BMP,resources/DB.BMP,WildCard_NonEx,0.342592593,-0.037037037,1,0,0,2.132,optionRight,45,875,1,18,0,18,0,1,,,,,,,,,,,,,,,,,,,,,,,,,,,,,,,,,,,,,,,
,,,,,,,,2023-08-16_08h37.55.516,HF_wild_card,2022.2.4,Win32,10.00040002,5ea0141f476817000946fdc5,64d2fd46c836a06233681665,64dc7cb512bc9838b71f2151,,,,,,,decisionTrl,resources/DB.BMP,resources/DG.BMP,Door3,0.341666667,-0.043518519,1,0,0,1.718,optionRight,70,945,1,19,0,19,0,1,,,,,,,,,,,,,,,,,,,,,,,,,,,,,,,,,,,,,,,
,,,,,,,,2023-08-16_08h37.55.516,HF_wild_card,2022.2.4,Win32,10.00040002,5ea0141f476817000946fdc5,64d2fd46c836a06233681665,64dc7cb512bc9838b71f2151,,,,,,,sngl,resources/DB.BMP,resources/Empty.png,WildCard_NonEx,-0.346296296,-0.086111111,1,0,0,1.529,optionLeft,55,1000,1,20,0,20,0,1,,,,,,,,,,,,,,,,,,,,,,,,,,,,,,,,,,,,,,,
,,,,,,,,2023-08-16_08h37.55.516,HF_wild_card,2022.2.4,Win32,10.00040002,5ea0141f476817000946fdc5,64d2fd46c836a06233681665,64dc7cb512bc9838b71f2151,,,,,,,decisionTrl,resources/DB.BMP,resources/DY.BMP,WildCard_NonEx,-0.362962963,-0.089814815,1,0,0,1.587,optionLeft,55,1055,1,21,0,21,0,1,,,,,,,,,,,,,,,,,,,,,,,,,,,,,,,,,,,,,,,
,,,,,,,,2023-08-16_08h37.55.516,HF_wild_card,2022.2.4,Win32,10.00040002,5ea0141f476817000946fdc5,64d2fd46c836a06233681665,64dc7cb512bc9838b71f2151,,,,,,,decisionTrl,resources/DY.BMP,resources/DBN.BMP,Door1,0.382407407,-0.044444444,1,0,0,2.428,optionRight,30,1085,1,22,0,22,0,1,,,,,,,,,,,,,,,,,,,,,,,,,,,,,,,,,,,,,,,
,,,,,,,,2023-08-16_08h37.55.516,HF_wild_card,2022.2.4,Win32,10.00040002,5ea0141f476817000946fdc5,64d2fd46c836a06233681665,64dc7cb512bc9838b71f2151,,,,,,,decisionTrl,resources/DB.BMP,resources/DBN.BMP,WildCard_NonEx,-0.300925926,-0.089814815,1,0,0,1.618,optionLeft,45,1130,1,23,0,23,0,1,,,,,,,,,,,,,,,,,,,,,,,,,,,,,,,,,,,,,,,
,,,,,,,,2023-08-16_08h37.55.516,HF_wild_card,2022.2.4,Win32,10.00040002,5ea0141f476817000946fdc5,64d2fd46c836a06233681665,64dc7cb512bc9838b71f2151,,,,,,,sngl,resources/DBN.BMP,resources/Empty.png,Door1,-0.301851852,-0.04537037,1,0,0,1.139,optionLeft,30,1160,1,24,0,24,0,1,,,,,,,,,,,,,,,,,,,,,,,,,,,,,,,,,,,,,,,
,,,,,,,,2023-08-16_08h37.55.516,HF_wild_card,2022.2.4,Win32,10.00040002,5ea0141f476817000946fdc5,64d2fd46c836a06233681665,64dc7cb512bc9838b71f2151,,,,,,,ctch,resources/DY.BMP,resources/DG.BMP,Door3,0.385185185,-0.036111111,1,0,0,1.363,optionRight,70,1230,1,25,0,25,0,1,,,,,,,,,,,,,,,,,,,,,,,,,,,,,,,,,,,,,,,
,,,,,,,,2023-08-16_08h37.55.516,HF_wild_card,2022.2.4,Win32,10.00040002,5ea0141f476817000946fdc5,64d2fd46c836a06233681665,64dc7cb512bc9838b71f2151,,,,,,,sngl,resources/DG.BMP,resources/Empty.png,Door3,-0.325925926,-0.059259259,1,0,0,0.899,optionLeft,70,1300,1,26,0,26,0,1,,,,,,,,,,,,,,,,,,,,,,,,,,,,,,,,,,,,,,,
,,,,,,,,2023-08-16_08h37.55.516,HF_wild_card,2022.2.4,Win32,10.00040002,5ea0141f476817000946fdc5,64d2fd46c836a06233681665,64dc7cb512bc9838b71f2151,,,,,,,decisionTrl,resources/DR.BMP,resources/DG.BMP,Door3,0.387037037,-0.064814815,1,0,0,1.172,optionRight,70,1370,1,27,0,27,0,1,,,,,,,,,,,,,,,,,,,,,,,,,,,,,,,,,,,,,,,
,,,,,,,,2023-08-16_08h37.55.516,HF_wild_card,2022.2.4,Win32,10.00040002,5ea0141f476817000946fdc5,64d2fd46c836a06233681665,64dc7cb512bc9838b71f2151,,,,,,,decisionTrl,resources/DR.BMP,resources/DG.BMP,Door3,0.387037037,-0.059259259,1,0,0,1.059,optionRight,70,1440,1,28,0,28,0,1,,,,,,,,,,,,,,,,,,,,,,,,,,,,,,,,,,,,,,,
,,,,,,,,2023-08-16_08h37.55.516,HF_wild_card,2022.2.4,Win32,10.00040002,5ea0141f476817000946fdc5,64d2fd46c836a06233681665,64dc7cb512bc9838b71f2151,,,,,,,decisionTrl,resources/DBN.BMP,resources/DY.BMP,Door1,-0.325925926,-0.068518519,1,0,0,2.569,optionLeft,30,1470,1,29,0,29,0,1,,,,,,,,,,,,,,,,,,,,,,,,,,,,,,,,,,,,,,,
,,,,,,,,2023-08-16_08h37.55.516,HF_wild_card,2022.2.4,Win32,10.00040002,5ea0141f476817000946fdc5,64d2fd46c836a06233681665,64dc7cb512bc9838b71f2151,,,,,,,decisionTrl,resources/DBN.BMP,resources/DY.BMP,Door1,-0.301851852,-0.066666667,1,0,0,1.499,optionLeft,30,1500,1,30,0,30,0,1,,,,,,,,,,,,,,,,,,,,,,,,,,,,,,,,,,,,,,,
,,,,,,,,2023-08-16_08h37.55.516,HF_wild_card,2022.2.4,Win32,10.00040002,5ea0141f476817000946fdc5,64d2fd46c836a06233681665,64dc7cb512bc9838b71f2151,,,,,,,decisionTrl,resources/DBN.BMP,resources/DB.BMP,WildCard_NonEx,0.351851852,-0.030555556,1,0,0,1.587,optionRight,55,1555,1,31,0,31,0,1,,,,,,,,,,,,,,,,,,,,,,,,,,,,,,,,,,,,,,,
,,,,,,,,2023-08-16_08h37.55.516,HF_wild_card,2022.2.4,Win32,10.00040002,5ea0141f476817000946fdc5,64d2fd46c836a06233681665,64dc7cb512bc9838b71f2151,,,,,,,decisionTrl,resources/DB.BMP,resources/DR.BMP,WildCard_NonEx,-0.315740741,-0.027777778,1,0,0,1.449,optionLeft,45,1600,1,32,0,32,0,1,,,,,,,,,,,,,,,,,,,,,,,,,,,,,,,,,,,,,,,
,,,,,,,,2023-08-16_08h37.55.516,HF_wild_card,2022.2.4,Win32,10.00040002,5ea0141f476817000946fdc5,64d2fd46c836a06233681665,64dc7cb512bc9838b71f2151,,,,,,,ctch,resources/DG.BMP,resources/DY.BMP,Door3,-0.331481481,-0.050925926,1,0,0,1.845,optionLeft,70,1670,1,33,0,33,0,1,,,,,,,,,,,,,,,,,,,,,,,,,,,,,,,,,,,,,,,
,,,,,,,,2023-08-16_08h37.55.516,HF_wild_card,2022.2.4,Win32,10.00040002,5ea0141f476817000946fdc5,64d2fd46c836a06233681665,64dc7cb512bc9838b71f2151,,,,,,,sngl,resources/DY.BMP,resources/Empty.png,Door2,-0.333333333,-0.05462963,1,0,0,1.284,optionLeft,40,1710,1,34,0,34,0,1,,,,,,,,,,,,,,,,,,,,,,,,,,,,,,,,,,,,,,,
,,,,,,,,2023-08-16_08h37.55.516,HF_wild_card,2022.2.4,Win32,10.00040002,5ea0141f476817000946fdc5,64d2fd46c836a06233681665,64dc7cb512bc9838b71f2151,,,,,,,decisionTrl,resources/DR.BMP,resources/DG.BMP,Door3,0.460185185,-0.024074074,1,0,0,1.124,optionRight,70,1780,1,35,0,35,0,1,,,,,,,,,,,,,,,,,,,,,,,,,,,,,,,,,,,,,,,
,,,,,,,,2023-08-16_08h37.55.516,HF_wild_card,2022.2.4,Win32,10.00040002,5ea0141f476817000946fdc5,64d2fd46c836a06233681665,64dc7cb512bc9838b71f2151,,,,,,,decisionTrl,resources/DBN.BMP,resources/DY.BMP,Door2,0.386111111,-0.028703704,1,0,0,2.196,optionRight,40,1820,1,36,0,36,0,1,,,,,,,,,,,,,,,,,,,,,,,,,,,,,,,,,,,,,,,
,,,,,,,,2023-08-16_08h37.55.516,HF_wild_card,2022.2.4,Win32,10.00040002,5ea0141f476817000946fdc5,64d2fd46c836a06233681665,64dc7cb512bc9838b71f2151,,,,,,,decisionTrl,resources/DG.BMP,resources/DR.BMP,Door3,-0.367592593,-0.050925926,1,0,0,1.172,optionLeft,70,1890,1,37,0,37,0,1,,,,,,,,,,,,,,,,,,,,,,,,,,,,,,,,,,,,,,,
,,,,,,,,2023-08-16_08h37.55.516,HF_wild_card,2022.2.4,Win32,10.00040002,5ea0141f476817000946fdc5,64d2fd46c836a06233681665,64dc7cb512bc9838b71f2151,,,,,,,sngl,resources/Empty.png,resources/DG.BMP,Door3,0.398148148,-0.034259259,1,0,0,1.189,optionRight,70,1960,1,38,0,38,0,1,,,,,,,,,,,,,,,,,,,,,,,,,,,,,,,,,,,,,,,
,,,,,,,,2023-08-16_08h37.55.516,HF_wild_card,2022.2.4,Win32,10.00040002,5ea0141f476817000946fdc5,64d2fd46c836a06233681665,64dc7cb512bc9838b71f2151,,,,,,,sngl,resources/DR.BMP,resources/Empty.png,Door4,-0.368518519,-0.063888889,1,0,0,1.242,optionLeft,80,2040,1,39,0,39,0,1,,,,,,,,,,,,,,,,,,,,,,,,,,,,,,,,,,,,,,,
,,,,,,,,2023-08-16_08h37.55.516,HF_wild_card,2022.2.4,Win32,10.00040002,5ea0141f476817000946fdc5,64d2fd46c836a06233681665,64dc7cb512bc9838b71f2151,,,,,,,sngl,resources/Empty.png,resources/DBN.BMP,Door1,0.362962963,-0.040740741,1,0,0,1.276,optionRight,30,2070,1,40,0,40,0,1,,,,,,,,,,,,,,,,,,,,,,,,,,,,,,,,,,,,,,,
,,,,,,,,2023-08-16_08h37.55.516,HF_wild_card,2022.2.4,Win32,10.00040002,5ea0141f476817000946fdc5,64d2fd46c836a06233681665,64dc7cb512bc9838b71f2151,,,,,,,ctch,resources/DR.BMP,resources/DBN.BMP,Door4,-0.438888889,-0.062037037,1,0,0,1.147,optionLeft,60,2130,1,41,0,41,0,1,,,,,,,,,,,,,,,,,,,,,,,,,,,,,,,,,,,,,,,
,,,,,,,,2023-08-16_08h37.55.516,HF_wild_card,2022.2.4,Win32,10.00040002,5ea0141f476817000946fdc5,64d2fd46c836a06233681665,64dc7cb512bc9838b71f2151,,,,,,,decisionTrl,resources/DY.BMP,resources/DBN.BMP,Door1,0.338888889,-0.069444444,1,0,0,2.954,optionRight,30,2160,1,42,0,42,0,1,,,,,,,,,,,,,,,,,,,,,,,,,,,,,,,,,,,,,,,
,,,,,,,,2023-08-16_08h37.55.516,HF_wild_card,2022.2.4,Win32,10.00040002,5ea0141f476817000946fdc5,64d2fd46c836a06233681665,64dc7cb512bc9838b71f2151,,,,,,,ctch,resources/DY.BMP,resources/DG.BMP,Door3,0.443518519,-0.036111111,1,0,0,1.36,optionRight,70,2230,1,43,0,43,0,1,,,,,,,,,,,,,,,,,,,,,,,,,,,,,,,,,,,,,,,
,,,,,,,,2023-08-16_08h37.55.516,HF_wild_card,2022.2.4,Win32,10.00040002,5ea0141f476817000946fdc5,64d2fd46c836a06233681665,64dc7cb512bc9838b71f2151,,,,,,,,,,,,,,,,,,,,,,,,,,0,0,0,0,1,,,,,,,,,,,,,,,,,,,,,,,,,,,,,,,,,,
,,,,,,,,2023-08-16_08h37.55.516,HF_wild_card,2022.2.4,Win32,10.00040002,5ea0141f476817000946fdc5,64d2fd46c836a06233681665,64dc7cb512bc9838b71f2151,,,,,,,ctch,resources/DY.BMP,resources/DG.BMP,Door3,0.45462963,-0.062962963,1,0,0,1.367,optionRight,70,2300,2,0,0,0,0,1,,,,,,,,,,,,,,,,,,,,,,,,,,,,,,,,,,,,,,,
,,,,,,,,2023-08-16_08h37.55.516,HF_wild_card,2022.2.4,Win32,10.00040002,5ea0141f476817000946fdc5,64d2fd46c836a06233681665,64dc7cb512bc9838b71f2151,,,,,,,decisionTrl,resources/DR.BMP,resources/DG.BMP,Door3,0.374074074,-0.027777778,1,0,0,1.043,optionRight,70,2370,2,1,0,1,0,1,,,,,,,,,,,,,,,,,,,,,,,,,,,,,,,,,,,,,,,
,,,,,,,,2023-08-16_08h37.55.516,HF_wild_card,2022.2.4,Win32,10.00040002,5ea0141f476817000946fdc5,64d2fd46c836a06233681665,64dc7cb512bc9838b71f2151,,,,,,,sngl,resources/Empty.png,resources/DY.BMP,Door2,0.382407407,-0.044444444,1,0,0,1.157,optionRight,40,2410,2,2,0,2,0,1,,,,,,,,,,,,,,,,,,,,,,,,,,,,,,,,,,,,,,,
,,,,,,,,2023-08-16_08h37.55.516,HF_wild_card,2022.2.4,Win32,10.00040002,5ea0141f476817000946fdc5,64d2fd46c836a06233681665,64dc7cb512bc9838b71f2151,,,,,,,decisionTrl,resources/DG.BMP,resources/DB.BMP,Door3,-0.253703704,-0.012962963,1,0,0,1.26,optionLeft,70,2480,2,3,0,3,0,1,,,,,,,,,,,,,,,,,,,,,,,,,,,,,,,,,,,,,,,
,,,,,,,,2023-08-16_08h37.55.516,HF_wild_card,2022.2.4,Win32,10.00040002,5ea0141f476817000946fdc5,64d2fd46c836a06233681665,64dc7cb512bc9838b71f2151,,,,,,,decisionTrl,resources/DY.BMP,resources/DBN.BMP,Door2,-0.322222222,-0.046296296,1,0,0,1.83,optionLeft,40,2520,2,4,0,4,0,1,,,,,,,,,,,,,,,,,,,,,,,,,,,,,,,,,,,,,,,
,,,,,,,,2023-08-16_08h37.55.516,HF_wild_card,2022.2.4,Win32,10.00040002,5ea0141f476817000946fdc5,64d2fd46c836a06233681665,64dc7cb512bc9838b71f2151,,,,,,,decisionTrl,resources/DR.BMP,resources/DB.BMP,WildCard_NonEx,0.331481481,-0.047222222,1,0,0,2.951,optionRight,55,2575,2,5,0,5,0,1,,,,,,,,,,,,,,,,,,,,,,,,,,,,,,,,,,,,,,,
,,,,,,,,2023-08-16_08h37.55.516,HF_wild_card,2022.2.4,Win32,10.00040002,5ea0141f476817000946fdc5,64d2fd46c836a06233681665,64dc7cb512bc9838b71f2151,,,,,,,decisionTrl,resources/DBN.BMP,resources/DY.BMP,Door2,0.375,-0.033333333,1,0,0,2.246,optionRight,20,2595,2,6,0,6,0,1,,,,,,,,,,,,,,,,,,,,,,,,,,,,,,,,,,,,,,,
,,,,,,,,2023-08-16_08h37.55.516,HF_wild_card,2022.2.4,Win32,10.00040002,5ea0141f476817000946fdc5,64d2fd46c836a06233681665,64dc7cb512bc9838b71f2151,,,,,,,decisionTrl,resources/DR.BMP,resources/DG.BMP,Door3,0.374074074,-0.043518519,1,0,0,1.332,optionRight,70,2665,2,7,0,7,0,1,,,,,,,,,,,,,,,,,,,,,,,,,,,,,,,,,,,,,,,
,,,,,,,,2023-08-16_08h37.55.516,HF_wild_card,2022.2.4,Win32,10.00040002,5ea0141f476817000946fdc5,64d2fd46c836a06233681665,64dc7cb512bc9838b71f2151,,,,,,,sngl,resources/DR.BMP,resources/Empty.png,Door4,-0.439814815,0.000925926,1,0,0,0.975,optionLeft,60,2725,2,8,0,8,0,1,,,,,,,,,,,,,,,,,,,,,,,,,,,,,,,,,,,,,,,
,,,,,,,,2023-08-16_08h37.55.516,HF_wild_card,2022.2.4,Win32,10.00040002,5ea0141f476817000946fdc5,64d2fd46c836a06233681665,64dc7cb512bc9838b71f2151,,,,,,,sngl,resources/Empty.png,resources/DG.BMP,Door3,0.485185185,-0.103703704,1,0,0,1.016,optionRight,70,2795,2,9,0,9,0,1,,,,,,,,,,,,,,,,,,,,,,,,,,,,,,,,,,,,,,,
,,,,,,,,2023-08-16_08h37.55.516,HF_wild_card,2022.2.4,Win32,10.00040002,5ea0141f476817000946fdc5,64d2fd46c836a06233681665,64dc7cb512bc9838b71f2151,,,,,,,decisionTrl,resources/DB.BMP,resources/DY.BMP,WildCard_NonEx,-0.311111111,-0.036111111,1,0,0,2.137,optionLeft,55,2850,2,10,0,10,0,1,,,,,,,,,,,,,,,,,,,,,,,,,,,,,,,,,,,,,,,
,,,,,,,,2023-08-16_08h37.55.516,HF_wild_card,2022.2.4,Win32,10.00040002,5ea0141f476817000946fdc5,64d2fd46c836a06233681665,64dc7cb512bc9838b71f2151,,,,,,,decisionTrl,resources/DR.BMP,resources/DG.BMP,Door3,0.374074074,-0.041666667,1,0,0,1.254,optionRight,70,2920,2,11,0,11,0,1,,,,,,,,,,,,,,,,,,,,,,,,,,,,,,,,,,,,,,,
,,,,,,,,2023-08-16_08h37.55.516,HF_wild_card,2022.2.4,Win32,10.00040002,5ea0141f476817000946fdc5,64d2fd46c836a06233681665,64dc7cb512bc9838b71f2151,,,,,,,sngl,resources/Empty.png,resources/DB.BMP,WildCard_NonEx,0.353703704,-0.028703704,1,0,0,1.064,optionRight,45,2965,2,12,0,12,0,1,,,,,,,,,,,,,,,,,,,,,,,,,,,,,,,,,,,,,,,
,,,,,,,,2023-08-16_08h37.55.516,HF_wild_card,2022.2.4,Win32,10.00040002,5ea0141f476817000946fdc5,64d2fd46c836a06233681665,64dc7cb512bc9838b71f2151,,,,,,,decisionTrl,resources/DY.BMP,resources/DB.BMP,WildCard_NonEx,0.373148148,-0.048148148,1,0,0,1.625,optionRight,55,3020,2,13,0,13,0,1,,,,,,,,,,,,,,,,,,,,,,,,,,,,,,,,,,,,,,,
,,,,,,,,2023-08-16_08h37.55.516,HF_wild_card,2022.2.4,Win32,10.00040002,5ea0141f476817000946fdc5,64d2fd46c836a06233681665,64dc7cb512bc9838b71f2151,,,,,,,decisionTrl,resources/DB.BMP,resources/DR.BMP,Door4,0.309259259,-0.05462963,1,0,0,2.619,optionRight,60,3080,2,14,0,14,0,1,,,,,,,,,,,,,,,,,,,,,,,,,,,,,,,,,,,,,,,
,,,,,,,,2023-08-16_08h37.55.516,HF_wild_card,2022.2.4,Win32,10.00040002,5ea0141f476817000946fdc5,64d2fd46c836a06233681665,64dc7cb512bc9838b71f2151,,,,,,,decisionTrl,resources/DB.BMP,resources/DG.BMP,Door3,0.349074074,-0.075925926,1,0,0,1.559,optionRight,70,3150,2,15,0,15,0,1,,,,,,,,,,,,,,,,,,,,,,,,,,,,,,,,,,,,,,,
,,,,,,,,2023-08-16_08h37.55.516,HF_wild_card,2022.2.4,Win32,10.00040002,5ea0141f476817000946fdc5,64d2fd46c836a06233681665,64dc7cb512bc9838b71f2151,,,,,,,sngl,resources/DBN.BMP,resources/Empty.png,Door1,-0.239814815,-0.037962963,1,0,0,1.151,optionLeft,30,3180,2,16,0,16,0,1,,,,,,,,,,,,,,,,,,,,,,,,,,,,,,,,,,,,,,,
,,,,,,,,2023-08-16_08h37.55.516,HF_wild_card,2022.2.4,Win32,10.00040002,5ea0141f476817000946fdc5,64d2fd46c836a06233681665,64dc7cb512bc9838b71f2151,,,,,,,ctch,resources/DR.BMP,resources/DBN.BMP,Door4,-0.368518519,-0.04537037,1,0,0,1.867,optionLeft,80,3260,2,17,0,17,0,1,,,,,,,,,,,,,,,,,,,,,,,,,,,,,,,,,,,,,,,
,,,,,,,,2023-08-16_08h37.55.516,HF_wild_card,2022.2.4,Win32,10.00040002,5ea0141f476817000946fdc5,64d2fd46c836a06233681665,64dc7cb512bc9838b71f2151,,,,,,,decisionTrl,resources/DG.BMP,resources/DR.BMP,Door4,0.384259259,-0.046296296,1,0,0,1.189,optionRight,80,3340,2,18,0,18,0,1,,,,,,,,,,,,,,,,,,,,,,,,,,,,,,,,,,,,,,,
,,,,,,,,2023-08-16_08h37.55.516,HF_wild_card,2022.2.4,Win32,10.00040002,5ea0141f476817000946fdc5,64d2fd46c836a06233681665,64dc7cb512bc9838b71f2151,,,,,,,ctch,resources/DY.BMP,resources/DG.BMP,Door3,0.387037037,-0.057407407,1,0,0,1.544,optionRight,70,3410,2,19,0,19,0,1,,,,,,,,,,,,,,,,,,,,,,,,,,,,,,,,,,,,,,,
,,,,,,,,2023-08-16_08h37.55.516,HF_wild_card,2022.2.4,Win32,10.00040002,5ea0141f476817000946fdc5,64d2fd46c836a06233681665,64dc7cb512bc9838b71f2151,,,,,,,decisionTrl,resources/DY.BMP,resources/DBN.BMP,Door1,0.40462963,-0.032407407,1,0,0,1.695,optionRight,30,3440,2,20,0,20,0,1,,,,,,,,,,,,,,,,,,,,,,,,,,,,,,,,,,,,,,,
,,,,,,,,2023-08-16_08h37.55.516,HF_wild_card,2022.2.4,Win32,10.00040002,5ea0141f476817000946fdc5,64d2fd46c836a06233681665,64dc7cb512bc9838b71f2151,,,,,,,sngl,resources/Empty.png,resources/DB.BMP,WildCard_NonEx,0.331481481,-0.049074074,1,0,0,1.243,optionRight,55,3495,2,21,0,21,0,1,,,,,,,,,,,,,,,,,,,,,,,,,,,,,,,,,,,,,,,
,,,,,,,,2023-08-16_08h37.55.516,HF_wild_card,2022.2.4,Win32,10.00040002,5ea0141f476817000946fdc5,64d2fd46c836a06233681665,64dc7cb512bc9838b71f2151,,,,,,,ctch,resources/DG.BMP,resources/DY.BMP,Door3,-0.280555556,-0.039814815,1,0,0,1.231,optionLeft,70,3565,2,22,0,22,0,1,,,,,,,,,,,,,,,,,,,,,,,,,,,,,,,,,,,,,,,
,,,,,,,,2023-08-16_08h37.55.516,HF_wild_card,2022.2.4,Win32,10.00040002,5ea0141f476817000946fdc5,64d2fd46c836a06233681665,64dc7cb512bc9838b71f2151,,,,,,,decisionTrl,resources/DY.BMP,resources/DBN.BMP,Door1,0.347222222,-0.058333333,1,0,0,1.903,optionRight,30,3595,2,23,0,23,0,1,,,,,,,,,,,,,,,,,,,,,,,,,,,,,,,,,,,,,,,
,,,,,,,,2023-08-16_08h37.55.516,HF_wild_card,2022.2.4,Win32,10.00040002,5ea0141f476817000946fdc5,64d2fd46c836a06233681665,64dc7cb512bc9838b71f2151,,,,,,,sngl,resources/Empty.png,resources/DBN.BMP,Door1,0.300925926,-0.036111111,1,0,0,1.014,optionRight,30,3625,2,24,0,24,0,1,,,,,,,,,,,,,,,,,,,,,,,,,,,,,,,,,,,,,,,
,,,,,,,,2023-08-16_08h37.55.516,HF_wild_card,2022.2.4,Win32,10.00040002,5ea0141f476817000946fdc5,64d2fd46c836a06233681665,64dc7cb512bc9838b71f2151,,,,,,,sngl,resources/DB.BMP,resources/Empty.png,WildCard_NonEx,-0.282407407,-0.063888889,1,0,0,1.193,optionLeft,55,3680,2,25,0,25,0,1,,,,,,,,,,,,,,,,,,,,,,,,,,,,,,,,,,,,,,,
,,,,,,,,2023-08-16_08h37.55.516,HF_wild_card,2022.2.4,Win32,10.00040002,5ea0141f476817000946fdc5,64d2fd46c836a06233681665,64dc7cb512bc9838b71f2151,,,,,,,ctch,resources/DBN.BMP,resources/DR.BMP,Door4,0.365740741,-0.060185185,1,0,0,1.867,optionRight,80,3760,2,26,0,26,0,1,,,,,,,,,,,,,,,,,,,,,,,,,,,,,,,,,,,,,,,
,,,,,,,,2023-08-16_08h37.55.516,HF_wild_card,2022.2.4,Win32,10.00040002,5ea0141f476817000946fdc5,64d2fd46c836a06233681665,64dc7cb512bc9838b71f2151,,,,,,,decisionTrl,resources/DG.BMP,resources/DR.BMP,Door4,0.37037037,-0.053703704,1,0,0,1.125,optionRight,60,3820,2,27,0,27,0,1,,,,,,,,,,,,,,,,,,,,,,,,,,,,,,,,,,,,,,,
,,,,,,,,2023-08-16_08h37.55.516,HF_wild_card,2022.2.4,Win32,10.00040002,5ea0141f476817000946fdc5,64d2fd46c836a06233681665,64dc7cb512bc9838b71f2151,,,,,,,ctch,resources/DR.BMP,resources/DBN.BMP,Door4,-0.325925926,-0.047222222,1,0,0,1.579,optionLeft,80,3900,2,28,0,28,0,1,,,,,,,,,,,,,,,,,,,,,,,,,,,,,,,,,,,,,,,
,,,,,,,,2023-08-16_08h37.55.516,HF_wild_card,2022.2.4,Win32,10.00040002,5ea0141f476817000946fdc5,64d2fd46c836a06233681665,64dc7cb512bc9838b71f2151,,,,,,,decisionTrl,resources/DBN.BMP,resources/DY.BMP,Door1,-0.347222222,-0.048148148,1,0,0,1.532,optionLeft,30,3930,2,29,0,29,0,1,,,,,,,,,,,,,,,,,,,,,,,,,,,,,,,,,,,,,,,
,,,,,,,,2023-08-16_08h37.55.516,HF_wild_card,2022.2.4,Win32,10.00040002,5ea0141f476817000946fdc5,64d2fd46c836a06233681665,64dc7cb512bc9838b71f2151,,,,,,,decisionTrl,resources/DBN.BMP,resources/DY.BMP,Door1,-0.290740741,0.025,1,0,0,8.331,optionLeft,30,3960,2,30,0,30,0,1,,,,,,,,,,,,,,,,,,,,,,,,,,,,,,,,,,,,,,,
,,,,,,,,2023-08-16_08h37.55.516,HF_wild_card,2022.2.4,Win32,10.00040002,5ea0141f476817000946fdc5,64d2fd46c836a06233681665,64dc7cb512bc9838b71f2151,,,,,,,decisionTrl,resources/DBN.BMP,resources/DB.BMP,WildCard_NonEx,0.346296296,-0.072222222,1,0,0,1.602,optionRight,55,4015,2,31,0,31,0,1,,,,,,,,,,,,,,,,,,,,,,,,,,,,,,,,,,,,,,,
,,,,,,,,2023-08-16_08h37.55.516,HF_wild_card,2022.2.4,Win32,10.00040002,5ea0141f476817000946fdc5,64d2fd46c836a06233681665,64dc7cb512bc9838b71f2151,,,,,,,ctch,resources/DG.BMP,resources/DY.BMP,Door3,-0.35,-0.005555556,1,0,0,1.085,optionLeft,70,4085,2,32,0,32,0,1,,,,,,,,,,,,,,,,,,,,,,,,,,,,,,,,,,,,,,,
,,,,,,,,2023-08-16_08h37.55.516,HF_wild_card,2022.2.4,Win32,10.00040002,5ea0141f476817000946fdc5,64d2fd46c836a06233681665,64dc7cb512bc9838b71f2151,,,,,,,sngl,resources/Empty.png,resources/DR.BMP,Door4,0.442592593,-0.07962963,1,0,0,0.788,optionRight,80,4165,2,33,0,33,0,1,,,,,,,,,,,,,,,,,,,,,,,,,,,,,,,,,,,,,,,
,,,,,,,,2023-08-16_08h37.55.516,HF_wild_card,2022.2.4,Win32,10.00040002,5ea0141f476817000946fdc5,64d2fd46c836a06233681665,64dc7cb512bc9838b71f2151,,,,,,,sngl,resources/DB.BMP,resources/Empty.png,WildCard_NonEx,-0.438888889,-0.009259259,1,0,0,0.946,optionLeft,45,4210,2,34,0,34,0,1,,,,,,,,,,,,,,,,,,,,,,,,,,,,,,,,,,,,,,,
,,,,,,,,2023-08-16_08h37.55.516,HF_wild_card,2022.2.4,Win32,10.00040002,5ea0141f476817000946fdc5,64d2fd46c836a06233681665,64dc7cb512bc9838b71f2151,,,,,,,decisionTrl,resources/DG.BMP,resources/DR.BMP,Door4,0.406481481,-0.105555556,1,0,0,1.868,optionRight,80,4290,2,35,0,35,0,1,,,,,,,,,,,,,,,,,,,,,,,,,,,,,,,,,,,,,,,
,,,,,,,,2023-08-16_08h37.55.516,HF_wild_card,2022.2.4,Win32,10.00040002,5ea0141f476817000946fdc5,64d2fd46c836a06233681665,64dc7cb512bc9838b71f2151,,,,,,,sngl,resources/DY.BMP,resources/Empty.png,Door2,-0.359259259,-0.019444444,1,0,0,1.056,optionLeft,20,4310,2,36,0,36,0,1,,,,,,,,,,,,,,,,,,,,,,,,,,,,,,,,,,,,,,,
,,,,,,,,2023-08-16_08h37.55.516,HF_wild_card,2022.2.4,Win32,10.00040002,5ea0141f476817000946fdc5,64d2fd46c836a06233681665,64dc7cb512bc9838b71f2151,,,,,,,decisionTrl,resources/DBN.BMP,resources/DY.BMP,Door1,-0.362962963,-0.013888889,1,0,0,1.22,optionLeft,30,4340,2,37,0,37,0,1,,,,,,,,,,,,,,,,,,,,,,,,,,,,,,,,,,,,,,,
,,,,,,,,2023-08-16_08h37.55.516,HF_wild_card,2022.2.4,Win32,10.00040002,5ea0141f476817000946fdc5,64d2fd46c836a06233681665,64dc7cb512bc9838b71f2151,,,,,,,decisionTrl,resources/DB.BMP,resources/DBN.BMP,WildCard_NonEx,-0.330555556,-0.025,1,0,0,1.596,optionLeft,55,4395,2,38,0,38,0,1,,,,,,,,,,,,,,,,,,,,,,,,,,,,,,,,,,,,,,,
,,,,,,,,2023-08-16_08h37.55.516,HF_wild_card,2022.2.4,Win32,10.00040002,5ea0141f476817000946fdc5,64d2fd46c836a06233681665,64dc7cb512bc9838b71f2151,,,,,,,decisionTrl,resources/DR.BMP,resources/DG.BMP,Door4,-0.34537037,-0.003703704,1,0,0,1.554,optionLeft,80,4475,2,39,0,39,0,1,,,,,,,,,,,,,,,,,,,,,,,,,,,,,,,,,,,,,,,
,,,,,,,,2023-08-16_08h37.55.516,HF_wild_card,2022.2.4,Win32,10.00040002,5ea0141f476817000946fdc5,64d2fd46c836a06233681665,64dc7cb512bc9838b71f2151,,,,,,,ctch,resources/DBN.BMP,resources/DR.BMP,Door4,0.359259259,-0.087962963,1,0,0,1.409,optionRight,80,4555,2,40,0,40,0,1,,,,,,,,,,,,,,,,,,,,,,,,,,,,,,,,,,,,,,,
,,,,,,,,2023-08-16_08h37.55.516,HF_wild_card,2022.2.4,Win32,10.00040002,5ea0141f476817000946fdc5,64d2fd46c836a06233681665,64dc7cb512bc9838b71f2151,,,,,,,sngl,resources/DG.BMP,resources/Empty.png,Door3,-0.439814815,-0.024074074,1,0,0,1.147,optionLeft,70,4625,2,41,0,41,0,1,,,,,,,,,,,,,,,,,,,,,,,,,,,,,,,,,,,,,,,
,,,,,,,,2023-08-16_08h37.55.516,HF_wild_card,2022.2.4,Win32,10.00040002,5ea0141f476817000946fdc5,64d2fd46c836a06233681665,64dc7cb512bc9838b71f2151,,,,,,,decisionTrl,resources/DY.BMP,resources/DBN.BMP,Door1,0.39537037,-0.092592593,1,0,0,1.529,optionRight,30,4655,2,42,0,42,0,1,,,,,,,,,,,,,,,,,,,,,,,,,,,,,,,,,,,,,,,
,,,,,,,,2023-08-16_08h37.55.516,HF_wild_card,2022.2.4,Win32,10.00040002,5ea0141f476817000946fdc5,64d2fd46c836a06233681665,64dc7cb512bc9838b71f2151,,,,,,,decisionTrl,resources/DG.BMP,resources/DR.BMP,Door4,0.453703704,-0.098148148,1,0,0,1.66,optionRight,80,4735,2,43,0,43,0,1,,,,,,,,,,,,,,,,,,,,,,,,,,,,,,,,,,,,,,,
,,,,,,,,2023-08-16_08h37.55.516,HF_wild_card,2022.2.4,Win32,10.00040002,5ea0141f476817000946fdc5,64d2fd46c836a06233681665,64dc7cb512bc9838b71f2151,,,,,,,,,,,,,,,,,,,,,,,,,,1,0,1,0,1,,,,,,,,,,,,,,,,,,,,,,,,,,,,,,,,,,
,,,,,,,,2023-08-16_08h37.55.516,HF_wild_card,2022.2.4,Win32,10.00040002,5ea0141f476817000946fdc5,64d2fd46c836a06233681665,64dc7cb512bc9838b71f2151,,,,,,,decisionTrl,resources/DR.BMP,resources/DB.BMP,Door4,-0.382407407,-0.110185185,1,0,0,1.431,optionLeft,80,4815,3,0,0,0,0,1,,,,,,,,,,,,,,,,,,,,,,,,,,,,,,,,,,,,,,,
,,,,,,,,2023-08-16_08h37.55.516,HF_wild_card,2022.2.4,Win32,10.00040002,5ea0141f476817000946fdc5,64d2fd46c836a06233681665,64dc7cb512bc9838b71f2151,,,,,,,decisionTrl,resources/DG.BMP,resources/DR.BMP,Door4,0.375925926,-0.112962963,1,0,0,1.392,optionRight,60,4875,3,1,0,1,0,1,,,,,,,,,,,,,,,,,,,,,,,,,,,,,,,,,,,,,,,
,,,,,,,,2023-08-16_08h37.55.516,HF_wild_card,2022.2.4,Win32,10.00040002,5ea0141f476817000946fdc5,64d2fd46c836a06233681665,64dc7cb512bc9838b71f2151,,,,,,,sngl,resources/Empty.png,resources/DBN.BMP,Door1,0.321296296,-0.07037037,1,0,0,1.177,optionRight,30,4905,3,2,0,2,0,1,,,,,,,,,,,,,,,,,,,,,,,,,,,,,,,,,,,,,,,
,,,,,,,,2023-08-16_08h37.55.516,HF_wild_card,2022.2.4,Win32,10.00040002,5ea0141f476817000946fdc5,64d2fd46c836a06233681665,64dc7cb512bc9838b71f2151,,,,,,,decisionTrl,resources/DG.BMP,resources/DR.BMP,Door3,-0.431481481,-0.065740741,1,0,0,1.754,optionLeft,70,4975,3,3,0,3,0,1,,,,,,,,,,,,,,,,,,,,,,,,,,,,,,,,,,,,,,,
,,,,,,,,2023-08-16_08h37.55.516,HF_wild_card,2022.2.4,Win32,10.00040002,5ea0141f476817000946fdc5,64d2fd46c836a06233681665,64dc7cb512bc9838b71f2151,,,,,,,sngl,resources/DY.BMP,resources/Empty.png,Door2,-0.214814815,-0.038888889,1,0,0,1.244,optionLeft,40,5015,3,4,0,4,0,1,,,,,,,,,,,,,,,,,,,,,,,,,,,,,,,,,,,,,,,
,,,,,,,,2023-08-16_08h37.55.516,HF_wild_card,2022.2.4,Win32,10.00040002,5ea0141f476817000946fdc5,64d2fd46c836a06233681665,64dc7cb512bc9838b71f2151,,,,,,,decisionTrl,resources/DBN.BMP,resources/DB.BMP,WildCard_NonEx,0.282407407,-0.044444444,1,0,0,1.931,optionRight,55,5070,3,5,0,5,0,1,,,,,,,,,,,,,,,,,,,,,,,,,,,,,,,,,,,,,,,
,,,,,,,,2023-08-16_08h37.55.516,HF_wild_card,2022.2.4,Win32,10.00040002,5ea0141f476817000946fdc5,64d2fd46c836a06233681665,64dc7cb512bc9838b71f2151,,,,,,,decisionTrl,resources/DY.BMP,resources/DBN.BMP,Door2,-0.264814815,-0.042592593,1,0,0,1.381,optionLeft,40,5110,3,6,0,6,0,1,,,,,,,,,,,,,,,,,,,,,,,,,,,,,,,,,,,,,,,
,,,,,,,,2023-08-16_08h37.55.516,HF_wild_card,2022.2.4,Win32,10.00040002,5ea0141f476817000946fdc5,64d2fd46c836a06233681665,64dc7cb512bc9838b71f2151,,,,,,,ctch,resources/DR.BMP,resources/DBN.BMP,Door4,-0.316666667,-0.061111111,1,0,0,1.609,optionLeft,60,5170,3,7,0,7,0,1,,,,,,,,,,,,,,,,,,,,,,,,,,,,,,,,,,,,,,,
,,,,,,,,2023-08-16_08h37.55.516,HF_wild_card,2022.2.4,Win32,10.00040002,5ea0141f476817000946fdc5,64d2fd46c836a06233681665,64dc7cb512bc9838b71f2151,,,,,,,sngl,resources/Empty.png,resources/DB.BMP,WildCard_NonEx,0.303703704,-0.072222222,1,0,0,1.619,optionRight,45,5215,3,8,0,8,0,1,,,,,,,,,,,,,,,,,,,,,,,,,,,,,,,,,,,,,,,
,,,,,,,,2023-08-16_08h37.55.516,HF_wild_card,2022.2.4,Win32,10.00040002,5ea0141f476817000946fdc5,64d2fd46c836a06233681665,64dc7cb512bc9838b71f2151,,,,,,,sngl,resources/DR.BMP,resources/Empty.png,Door4,-0.296296296,-0.044444444,1,0,0,1.91,optionLeft,80,5295,3,9,0,9,0,1,,,,,,,,,,,,,,,,,,,,,,,,,,,,,,,,,,,,,,,
,,,,,,,,2023-08-16_08h37.55.516,HF_wild_card,2022.2.4,Win32,10.00040002,5ea0141f476817000946fdc5,64d2fd46c836a06233681665,64dc7cb512bc9838b71f2151,,,,,,,decisionTrl,resources/DB.BMP,resources/DBN.BMP,WildCard_NonEx,-0.363888889,-0.044444444,1,0,0,1.472,optionLeft,45,5340,3,10,0,10,0,1,,,,,,,,,,,,,,,,,,,,,,,,,,,,,,,,,,,,,,,
,,,,,,,,2023-08-16_08h37.55.516,HF_wild_card,2022.2.4,Win32,10.00040002,5ea0141f476817000946fdc5,64d2fd46c836a06233681665,64dc7cb512bc9838b71f2151,,,,,,,decisionTrl,resources/DBN.BMP,resources/DY.BMP,Door2,0.324074074,-0.076851852,1,0,0,1.712,optionRight,20,5360,3,11,0,11,0,1,,,,,,,,,,,,,,,,,,,,,,,,,,,,,,,,,,,,,,,
,,,,,,,,2023-08-16_08h37.55.516,HF_wild_card,2022.2.4,Win32,10.00040002,5ea0141f476817000946fdc5,64d2fd46c836a06233681665,64dc7cb512bc9838b71f2151,,,,,,,sngl,resources/Empty.png,resources/DR.BMP,Door4,0.341666667,-0.067592593,1,0,0,1.025,optionRight,60,5420,3,12,0,12,0,1,,,,,,,,,,,,,,,,,,,,,,,,,,,,,,,,,,,,,,,
,,,,,,,,2023-08-16_08h37.55.516,HF_wild_card,2022.2.4,Win32,10.00040002,5ea0141f476817000946fdc5,64d2fd46c836a06233681665,64dc7cb512bc9838b71f2151,,,,,,,decisionTrl,resources/DY.BMP,resources/DB.BMP,WildCard_NonEx,0.313888889,-0.064814815,1,0,0,1.893,optionRight,55,5475,3,13,0,13,0,1,,,,,,,,,,,,,,,,,,,,,,,,,,,,,,,,,,,,,,,
,,,,,,,,2023-08-16_08h37.55.516,HF_wild_card,2022.2.4,Win32,10.00040002,5ea0141f476817000946fdc5,64d2fd46c836a06233681665,64dc7cb512bc9838b71f2151,,,,,,,decisionTrl,resources/DB.BMP,resources/DG.BMP,Door3,0.418518519,-0.07037037,1,0,0,1.37,optionRight,70,5545,3,14,0,14,0,1,,,,,,,,,,,,,,,,,,,,,,,,,,,,,,,,,,,,,,,
,,,,,,,,2023-08-16_08h37.55.516,HF_wild_card,2022.2.4,Win32,10.00040002,5ea0141f476817000946fdc5,64d2fd46c836a06233681665,64dc7cb512bc9838b71f2151,,,,,,,decisionTrl,resources/DG.BMP,resources/DR.BMP,Door4,0.413888889,-0.080555556,1,0,0,1.852,optionRight,60,5605,3,15,0,15,0,1,,,,,,,,,,,,,,,,,,,,,,,,,,,,,,,,,,,,,,,
,,,,,,,,2023-08-16_08h37.55.516,HF_wild_card,2022.2.4,Win32,10.00040002,5ea0141f476817000946fdc5,64d2fd46c836a06233681665,64dc7cb512bc9838b71f2151,,,,,,,decisionTrl,resources/DB.BMP,resources/DR.BMP,Door4,0.369444444,-0.068518519,1,0,0,3.223,optionRight,80,5685,3,16,0,16,0,1,,,,,,,,,,,,,,,,,,,,,,,,,,,,,,,,,,,,,,,
,,,,,,,,2023-08-16_08h37.55.516,HF_wild_card,2022.2.4,Win32,10.00040002,5ea0141f476817000946fdc5,64d2fd46c836a06233681665,64dc7cb512bc9838b71f2151,,,,,,,ctch,resources/DG.BMP,resources/DY.BMP,Door3,-0.375925926,-0.060185185,1,0,0,1.263,optionLeft,70,5755,3,17,0,17,0,1,,,,,,,,,,,,,,,,,,,,,,,,,,,,,,,,,,,,,,,
,,,,,,,,2023-08-16_08h37.55.516,HF_wild_card,2022.2.4,Win32,10.00040002,5ea0141f476817000946fdc5,64d2fd46c836a06233681665,64dc7cb512bc9838b71f2151,,,,,,,sngl,resources/DBN.BMP,resources/Empty.png,Door1,-0.283333333,-0.056481481,1,0,0,1.006,optionLeft,30,5785,3,18,0,18,0,1,,,,,,,,,,,,,,,,,,,,,,,,,,,,,,,,,,,,,,,
,,,,,,,,2023-08-16_08h37.55.516,HF_wild_card,2022.2.4,Win32,10.00040002,5ea0141f476817000946fdc5,64d2fd46c836a06233681665,64dc7cb512bc9838b71f2151,,,,,,,decisionTrl,resources/DY.BMP,resources/DBN.BMP,Door1,0.425,-0.07037037,1,0,0,2.679,optionRight,30,5815,3,19,0,19,0,1,,,,,,,,,,,,,,,,,,,,,,,,,,,,,,,,,,,,,,,
,,,,,,,,2023-08-16_08h37.55.516,HF_wild_card,2022.2.4,Win32,10.00040002,5ea0141f476817000946fdc5,64d2fd46c836a06233681665,64dc7cb512bc9838b71f2151,,,,,,,sngl,resources/Empty.png,resources/DY.BMP,Door2,0.288888889,-0.040740741,1,0,0,0.928,optionRight,20,5835,3,20,0,20,0,1,,,,,,,,,,,,,,,,,,,,,,,,,,,,,,,,,,,,,,,
,,,,,,,,2023-08-16_08h37.55.516,HF_wild_card,2022.2.4,Win32,10.00040002,5ea0141f476817000946fdc5,64d2fd46c836a06233681665,64dc7cb512bc9838b71f2151,,,,,,,sngl,resources/DB.BMP,resources/Empty.png,WildCard_NonEx,-0.275,-0.047222222,1,0,0,1,optionLeft,55,5890,3,21,0,21,0,1,,,,,,,,,,,,,,,,,,,,,,,,,,,,,,,,,,,,,,,
,,,,,,,,2023-08-16_08h37.55.516,HF_wild_card,2022.2.4,Win32,10.00040002,5ea0141f476817000946fdc5,64d2fd46c836a06233681665,64dc7cb512bc9838b71f2151,,,,,,,decisionTrl,resources/DBN.BMP,resources/DY.BMP,Door1,-0.268518519,-0.031481481,1,0,0,2.231,optionLeft,30,5920,3,22,0,22,0,1,,,,,,,,,,,,,,,,,,,,,,,,,,,,,,,,,,,,,,,
,,,,,,,,2023-08-16_08h37.55.516,HF_wild_card,2022.2.4,Win32,10.00040002,5ea0141f476817000946fdc5,64d2fd46c836a06233681665,64dc7cb512bc9838b71f2151,,,,,,,ctch,resources/DY.BMP,resources/DG.BMP,Door3,0.461111111,-0.059259259,1,0,0,1.23,optionRight,70,5990,3,23,0,23,0,1,,,,,,,,,,,,,,,,,,,,,,,,,,,,,,,,,,,,,,,
,,,,,,,,2023-08-16_08h37.55.516,HF_wild_card,2022.2.4,Win32,10.00040002,5ea0141f476817000946fdc5,64d2fd46c836a06233681665,64dc7cb512bc9838b71f2151,,,,,,,decisionTrl,resources/DY.BMP,resources/DBN.BMP,Door1,0.398148148,-0.068518519,1,0,0,2.503,optionRight,30,6020,3,24,0,24,0,1,,,,,,,,,,,,,,,,,,,,,,,,,,,,,,,,,,,,,,,
,,,,,,,,2023-08-16_08h37.55.516,HF_wild_card,2022.2.4,Win32,10.00040002,5ea0141f476817000946fdc5,64d2fd46c836a06233681665,64dc7cb512bc9838b71f2151,,,,,,,decisionTrl,resources/DG.BMP,resources/DB.BMP,Door3,-0.271296296,-0.043518519,1,0,0,1.608,optionLeft,70,6090,3,25,0,25,0,1,,,,,,,,,,,,,,,,,,,,,,,,,,,,,,,,,,,,,,,
,,,,,,,,2023-08-16_08h37.55.516,HF_wild_card,2022.2.4,Win32,10.00040002,5ea0141f476817000946fdc5,64d2fd46c836a06233681665,64dc7cb512bc9838b71f2151,,,,,,,ctch,resources/DBN.BMP,resources/DR.BMP,Door4,0.40462963,-0.1,1,0,0,2.398,optionRight,80,6170,3,26,0,26,0,1,,,,,,,,,,,,,,,,,,,,,,,,,,,,,,,,,,,,,,,
,,,,,,,,2023-08-16_08h37.55.516,HF_wild_card,2022.2.4,Win32,10.00040002,5ea0141f476817000946fdc5,64d2fd46c836a06233681665,64dc7cb512bc9838b71f2151,,,,,,,decisionTrl,resources/DY.BMP,resources/DBN.BMP,Door1,0.351851852,-0.062037037,1,0,0,1.266,optionRight,30,6200,3,27,0,27,0,1,,,,,,,,,,,,,,,,,,,,,,,,,,,,,,,,,,,,,,,
,,,,,,,,2023-08-16_08h37.55.516,HF_wild_card,2022.2.4,Win32,10.00040002,5ea0141f476817000946fdc5,64d2fd46c836a06233681665,64dc7cb512bc9838b71f2151,,,,,,,decisionTrl,resources/DBN.BMP,resources/DY.BMP,Door1,-0.310185185,-0.037037037,1,0,0,2.485,optionLeft,30,6230,3,28,0,28,0,1,,,,,,,,,,,,,,,,,,,,,,,,,,,,,,,,,,,,,,,
,,,,,,,,2023-08-16_08h37.55.516,HF_wild_card,2022.2.4,Win32,10.00040002,5ea0141f476817000946fdc5,64d2fd46c836a06233681665,64dc7cb512bc9838b71f2151,,,,,,,sngl,resources/Empty.png,resources/DB.BMP,WildCard_NonEx,0.324074074,-0.039814815,1,0,0,1.023,optionRight,55,6285,3,29,0,29,0,1,,,,,,,,,,,,,,,,,,,,,,,,,,,,,,,,,,,,,,,
,,,,,,,,2023-08-16_08h37.55.516,HF_wild_card,2022.2.4,Win32,10.00040002,5ea0141f476817000946fdc5,64d2fd46c836a06233681665,64dc7cb512bc9838b71f2151,,,,,,,sngl,resources/Empty.png,resources/DG.BMP,Door3,0.333333333,-0.040740741,1,0,0,1.017,optionRight,70,6355,3,30,0,30,0,1,,,,,,,,,,,,,,,,,,,,,,,,,,,,,,,,,,,,,,,
,,,,,,,,2023-08-16_08h37.55.516,HF_wild_card,2022.2.4,Win32,10.00040002,5ea0141f476817000946fdc5,64d2fd46c836a06233681665,64dc7cb512bc9838b71f2151,,,,,,,decisionTrl,resources/DR.BMP,resources/DG.BMP,Door4,-0.402777778,-0.032407407,1,0,0,2.95,optionLeft,80,6435,3,31,0,31,0,1,,,,,,,,,,,,,,,,,,,,,,,,,,,,,,,,,,,,,,,
,,,,,,,,2023-08-16_08h37.55.516,HF_wild_card,2022.2.4,Win32,10.00040002,5ea0141f476817000946fdc5,64d2fd46c836a06233681665,64dc7cb512bc9838b71f2151,,,,,,,decisionTrl,resources/DR.BMP,resources/DG.BMP,Door4,-0.362962963,-0.048148148,1,0,0,3.525,optionLeft,80,6515,3,32,0,32,0,1,,,,,,,,,,,,,,,,,,,,,,,,,,,,,,,,,,,,,,,
,,,,,,,,2023-08-16_08h37.55.516,HF_wild_card,2022.2.4,Win32,10.00040002,5ea0141f476817000946fdc5,64d2fd46c836a06233681665,64dc7cb512bc9838b71f2151,,,,,,,decisionTrl,resources/DR.BMP,resources/DG.BMP,Door4,-0.390740741,-0.056481481,1,0,0,1.366,optionLeft,60,6575,3,33,0,33,0,1,,,,,,,,,,,,,,,,,,,,,,,,,,,,,,,,,,,,,,,
,,,,,,,,2023-08-16_08h37.55.516,HF_wild_card,2022.2.4,Win32,10.00040002,5ea0141f476817000946fdc5,64d2fd46c836a06233681665,64dc7cb512bc9838b71f2151,,,,,,,decisionTrl,resources/DR.BMP,resources/DG.BMP,Door3,0.377777778,-0.039814815,1,0,0,2.276,optionRight,70,6645,3,34,0,34,0,1,,,,,,,,,,,,,,,,,,,,,,,,,,,,,,,,,,,,,,,
,,,,,,,,2023-08-16_08h37.55.516,HF_wild_card,2022.2.4,Win32,10.00040002,5ea0141f476817000946fdc5,64d2fd46c836a06233681665,64dc7cb512bc9838b71f2151,,,,,,,decisionTrl,resources/DBN.BMP,resources/DY.BMP,Door1,-0.42962963,-0.048148148,1,0,0,2.402,optionLeft,30,6675,3,35,0,35,0,1,,,,,,,,,,,,,,,,,,,,,,,,,,,,,,,,,,,,,,,
,,,,,,,,2023-08-16_08h37.55.516,HF_wild_card,2022.2.4,Win32,10.00040002,5ea0141f476817000946fdc5,64d2fd46c836a06233681665,64dc7cb512bc9838b71f2151,,,,,,,ctch,resources/DBN.BMP,resources/DR.BMP,Door4,0.440740741,-0.069444444,1,0,0,1.749,optionRight,60,6735,3,36,0,36,0,1,,,,,,,,,,,,,,,,,,,,,,,,,,,,,,,,,,,,,,,
,,,,,,,,2023-08-16_08h37.55.516,HF_wild_card,2022.2.4,Win32,10.00040002,5ea0141f476817000946fdc5,64d2fd46c836a06233681665,64dc7cb512bc9838b71f2151,,,,,,,decisionTrl,resources/DG.BMP,resources/DR.BMP,Door3,-0.306481481,-0.073148148,1,0,0,3.639,optionLeft,70,6805,3,37,0,37,0,1,,,,,,,,,,,,,,,,,,,,,,,,,,,,,,,,,,,,,,,
,,,,,,,,2023-08-16_08h37.55.516,HF_wild_card,2022.2.4,Win32,10.00040002,5ea0141f476817000946fdc5,64d2fd46c836a06233681665,64dc7cb512bc9838b71f2151,,,,,,,ctch,resources/DG.BMP,resources/DY.BMP,Door3,-0.321296296,-0.025925926,1,0,0,1.156,optionLeft,70,6875,3,38,0,38,0,1,,,,,,,,,,,,,,,,,,,,,,,,,,,,,,,,,,,,,,,
,,,,,,,,2023-08-16_08h37.55.516,HF_wild_card,2022.2.4,Win32,10.00040002,5ea0141f476817000946fdc5,64d2fd46c836a06233681665,64dc7cb512bc9838b71f2151,,,,,,,sngl,resources/DG.BMP,resources/Empty.png,Door3,-0.358333333,-0.014814815,1,0,0,0.79,optionLeft,70,6945,3,39,0,39,0,1,,,,,,,,,,,,,,,,,,,,,,,,,,,,,,,,,,,,,,,
,,,,,,,,2023-08-16_08h37.55.516,HF_wild_card,2022.2.4,Win32,10.00040002,5ea0141f476817000946fdc5,64d2fd46c836a06233681665,64dc7cb512bc9838b71f2151,,,,,,,decisionTrl,resources/DB.BMP,resources/DY.BMP,WildCard_NonEx,-0.40462963,-0.049074074,1,0,0,1.953,optionLeft,55,7000,3,40,0,40,0,1,,,,,,,,,,,,,,,,,,,,,,,,,,,,,,,,,,,,,,,
,,,,,,,,2023-08-16_08h37.55.516,HF_wild_card,2022.2.4,Win32,10.00040002,5ea0141f476817000946fdc5,64d2fd46c836a06233681665,64dc7cb512bc9838b71f2151,,,,,,,sngl,resources/DB.BMP,resources/Empty.png,WildCard_NonEx,-0.426851852,-0.043518519,1,0,0,0.796,optionLeft,45,7045,3,41,0,41,0,1,,,,,,,,,,,,,,,,,,,,,,,,,,,,,,,,,,,,,,,
,,,,,,,,2023-08-16_08h37.55.516,HF_wild_card,2022.2.4,Win32,10.00040002,5ea0141f476817000946fdc5,64d2fd46c836a06233681665,64dc7cb512bc9838b71f2151,,,,,,,ctch,resources/DY.BMP,resources/DG.BMP,Door3,0.310185185,-0.057407407,1,0,0,3.006,optionRight,70,7115,3,42,0,42,0,1,,,,,,,,,,,,,,,,,,,,,,,,,,,,,,,,,,,,,,,
,,,,,,,,2023-08-16_08h37.55.516,HF_wild_card,2022.2.4,Win32,10.00040002,5ea0141f476817000946fdc5,64d2fd46c836a06233681665,64dc7cb512bc9838b71f2151,,,,,,,ctch,resources/DR.BMP,resources/DBN.BMP,Door4,-0.384259259,-0.053703704,1,0,0,1.254,optionLeft,60,7175,3,43,0,43,0,1,,,,,,,,,,,,,,,,,,,,,,,,,,,,,,,,,,,,,,,
,,,,,,,,2023-08-16_08h37.55.516,HF_wild_card,2022.2.4,Win32,10.00040002,5ea0141f476817000946fdc5,64d2fd46c836a06233681665,64dc7cb512bc9838b71f2151,,,,,,,,,,,,,,,,,,,,,,,,,,2,0,2,0,1,,,,,,,,,,,,,,,,,,,,,,,,,,,,,,,,,,
,,,,,,,,2023-08-16_08h37.55.516,HF_wild_card,2022.2.4,Win32,10.00040002,5ea0141f476817000946fdc5,64d2fd46c836a06233681665,64dc7cb512bc9838b71f2151,,,,,,,ctch,resources/DR.BMP,resources/DBN.BMP,Door4,-0.340740741,-0.124074074,1,0,0,1.787,optionLeft,80,7255,4,0,0,0,0,1,,,,,,,,,,,,,,,,,,,,,,,,,,,,,,,,,,,,,,,
,,,,,,,,2023-08-16_08h37.55.516,HF_wild_card,2022.2.4,Win32,10.00040002,5ea0141f476817000946fdc5,64d2fd46c836a06233681665,64dc7cb512bc9838b71f2151,,,,,,,ctch,resources/DG.BMP,resources/DY.BMP,Door3,-0.389814815,-0.061111111,1,0,0,1.369,optionLeft,70,7325,4,1,0,1,0,1,,,,,,,,,,,,,,,,,,,,,,,,,,,,,,,,,,,,,,,
,,,,,,,,2023-08-16_08h37.55.516,HF_wild_card,2022.2.4,Win32,10.00040002,5ea0141f476817000946fdc5,64d2fd46c836a06233681665,64dc7cb512bc9838b71f2151,,,,,,,sngl,resources/DP.BMP,resources/Empty.png,WildCard_Ex,-0.325,-0.074074074,1,0,0,1.795,optionLeft,45,7370,4,2,0,2,0,1,,,,,,,,,,,,,,,,,,,,,,,,,,,,,,,,,,,,,,,
,,,,,,,,2023-08-16_08h37.55.516,HF_wild_card,2022.2.4,Win32,10.00040002,5ea0141f476817000946fdc5,64d2fd46c836a06233681665,64dc7cb512bc9838b71f2151,,,,,,,decisionTrl,resources/DY.BMP,resources/DBN.BMP,Door1,0.339814815,-0.092592593,1,0,0,3.436,optionRight,30,7400,4,3,0,3,0,1,,,,,,,,,,,,,,,,,,,,,,,,,,,,,,,,,,,,,,,
,,,,,,,,2023-08-16_08h37.55.516,HF_wild_card,2022.2.4,Win32,10.00040002,5ea0141f476817000946fdc5,64d2fd46c836a06233681665,64dc7cb512bc9838b71f2151,,,,,,,sngl,resources/DBN.BMP,resources/Empty.png,Door1,-0.431481481,-0.056481481,1,0,0,1.125,optionLeft,30,7430,4,4,0,4,0,1,,,,,,,,,,,,,,,,,,,,,,,,,,,,,,,,,,,,,,,
,,,,,,,,2023-08-16_08h37.55.516,HF_wild_card,2022.2.4,Win32,10.00040002,5ea0141f476817000946fdc5,64d2fd46c836a06233681665,64dc7cb512bc9838b71f2151,,,,,,,ctch,resources/DG.BMP,resources/DY.BMP,Door3,-0.397222222,-0.048148148,1,0,0,1.944,optionLeft,70,7500,4,5,0,5,0,1,,,,,,,,,,,,,,,,,,,,,,,,,,,,,,,,,,,,,,,
,,,,,,,,2023-08-16_08h37.55.516,HF_wild_card,2022.2.4,Win32,10.00040002,5ea0141f476817000946fdc5,64d2fd46c836a06233681665,64dc7cb512bc9838b71f2151,,,,,,,ctch,resources/DBN.BMP,resources/DR.BMP,Door4,0.272222222,-0.057407407,1,0,0,1.738,optionRight,60,7560,4,6,0,6,0,1,,,,,,,,,,,,,,,,,,,,,,,,,,,,,,,,,,,,,,,
,,,,,,,,2023-08-16_08h37.55.516,HF_wild_card,2022.2.4,Win32,10.00040002,5ea0141f476817000946fdc5,64d2fd46c836a06233681665,64dc7cb512bc9838b71f2151,,,,,,,decisionTrl,resources/DR.BMP,resources/DG.BMP,Door4,-0.409259259,-0.041666667,1,0,0,1.652,optionLeft,80,7640,4,7,0,7,0,1,,,,,,,,,,,,,,,,,,,,,,,,,,,,,,,,,,,,,,,
,,,,,,,,2023-08-16_08h37.55.516,HF_wild_card,2022.2.4,Win32,10.00040002,5ea0141f476817000946fdc5,64d2fd46c836a06233681665,64dc7cb512bc9838b71f2151,,,,,,,decisionTrl,resources/DBN.BMP,resources/DY.BMP,Door1,-0.302777778,-0.023148148,1,0,0,1.475,optionLeft,30,7670,4,8,0,8,0,1,,,,,,,,,,,,,,,,,,,,,,,,,,,,,,,,,,,,,,,
,,,,,,,,2023-08-16_08h37.55.516,HF_wild_card,2022.2.4,Win32,10.00040002,5ea0141f476817000946fdc5,64d2fd46c836a06233681665,64dc7cb512bc9838b71f2151,,,,,,,decisionTrl,resources/DY.BMP,resources/DP.BMP,WildCard_Ex,0.349074074,-0.077777778,1,0,0,1.603,optionRight,55,7725,4,9,0,9,0,1,,,,,,,,,,,,,,,,,,,,,,,,,,,,,,,,,,,,,,,
,,,,,,,,2023-08-16_08h37.55.516,HF_wild_card,2022.2.4,Win32,10.00040002,5ea0141f476817000946fdc5,64d2fd46c836a06233681665,64dc7cb512bc9838b71f2151,,,,,,,decisionTrl,resources/DG.BMP,resources/DR.BMP,Door4,0.330555556,-0.080555556,1,0,0,2.128,optionRight,80,7805,4,10,0,10,0,1,,,,,,,,,,,,,,,,,,,,,,,,,,,,,,,,,,,,,,,
,,,,,,,,2023-08-16_08h37.55.516,HF_wild_card,2022.2.4,Win32,10.00040002,5ea0141f476817000946fdc5,64d2fd46c836a06233681665,64dc7cb512bc9838b71f2151,,,,,,,decisionTrl,resources/DR.BMP,resources/DG.BMP,Door4,-0.32037037,-0.037037037,1,0,0,2.336,optionLeft,80,7885,4,11,0,11,0,1,,,,,,,,,,,,,,,,,,,,,,,,,,,,,,,,,,,,,,,
,,,,,,,,2023-08-16_08h37.55.516,HF_wild_card,2022.2.4,Win32,10.00040002,5ea0141f476817000946fdc5,64d2fd46c836a06233681665,64dc7cb512bc9838b71f2151,,,,,,,ctch,resources/DY.BMP,resources/DG.BMP,Door3,0.376851852,-0.060185185,1,0,0,2.275,optionRight,70,7955,4,12,0,12,0,1,,,,,,,,,,,,,,,,,,,,,,,,,,,,,,,,,,,,,,,
,,,,,,,,2023-08-16_08h37.55.516,HF_wild_card,2022.2.4,Win32,10.00040002,5ea0141f476817000946fdc5,64d2fd46c836a06233681665,64dc7cb512bc9838b71f2151,,,,,,,decisionTrl,resources/DR.BMP,resources/DG.BMP,Door4,-0.360185185,-0.035185185,1,0,0,1.841,optionLeft,80,8035,4,13,0,13,0,1,,,,,,,,,,,,,,,,,,,,,,,,,,,,,,,,,,,,,,,
,,,,,,,,2023-08-16_08h37.55.516,HF_wild_card,2022.2.4,Win32,10.00040002,5ea0141f476817000946fdc5,64d2fd46c836a06233681665,64dc7cb512bc9838b71f2151,,,,,,,ctch,resources/DR.BMP,resources/DBN.BMP,Door4,-0.333333333,-0.05462963,1,0,0,1.309,optionLeft,60,8095,4,14,0,14,0,1,,,,,,,,,,,,,,,,,,,,,,,,,,,,,,,,,,,,,,,
,,,,,,,,2023-08-16_08h37.55.516,HF_wild_card,2022.2.4,Win32,10.00040002,5ea0141f476817000946fdc5,64d2fd46c836a06233681665,64dc7cb512bc9838b71f2151,,,,,,,sngl,resources/Empty.png,resources/DP.BMP,WildCard_Ex,0.327777778,-0.068518519,1,0,0,1.368,optionRight,45,8140,4,15,0,15,0,1,,,,,,,,,,,,,,,,,,,,,,,,,,,,,,,,,,,,,,,
,,,,,,,,2023-08-16_08h37.55.516,HF_wild_card,2022.2.4,Win32,10.00040002,5ea0141f476817000946fdc5,64d2fd46c836a06233681665,64dc7cb512bc9838b71f2151,,,,,,,decisionTrl,resources/DBN.BMP,resources/DY.BMP,Door1,-0.296296296,-0.036111111,1,0,0,1.883,optionLeft,30,8170,4,16,0,16,0,1,,,,,,,,,,,,,,,,,,,,,,,,,,,,,,,,,,,,,,,
,,,,,,,,2023-08-16_08h37.55.516,HF_wild_card,2022.2.4,Win32,10.00040002,5ea0141f476817000946fdc5,64d2fd46c836a06233681665,64dc7cb512bc9838b71f2151,,,,,,,decisionTrl,resources/DP.BMP,resources/DR.BMP,Door4,0.416666667,-0.064814815,1,0,0,2.244,optionRight,60,8230,4,17,0,17,0,1,,,,,,,,,,,,,,,,,,,,,,,,,,,,,,,,,,,,,,,
,,,,,,,,2023-08-16_08h37.55.516,HF_wild_card,2022.2.4,Win32,10.00040002,5ea0141f476817000946fdc5,64d2fd46c836a06233681665,64dc7cb512bc9838b71f2151,,,,,,,sngl,resources/Empty.png,resources/DG.BMP,Door3,0.390740741,-0.060185185,1,0,0,0.959,optionRight,70,8300,4,18,0,18,0,1,,,,,,,,,,,,,,,,,,,,,,,,,,,,,,,,,,,,,,,
,,,,,,,,2023-08-16_08h37.55.516,HF_wild_card,2022.2.4,Win32,10.00040002,5ea0141f476817000946fdc5,64d2fd46c836a06233681665,64dc7cb512bc9838b71f2151,,,,,,,sngl,resources/DG.BMP,resources/Empty.png,Door3,-0.340740741,-0.047222222,1,0,0,1.237,optionLeft,70,8370,4,19,0,19,0,1,,,,,,,,,,,,,,,,,,,,,,,,,,,,,,,,,,,,,,,
,,,,,,,,2023-08-16_08h37.55.516,HF_wild_card,2022.2.4,Win32,10.00040002,5ea0141f476817000946fdc5,64d2fd46c836a06233681665,64dc7cb512bc9838b71f2151,,,,,,,decisionTrl,resources/DP.BMP,resources/DG.BMP,Door3,0.388888889,-0.063888889,1,0,0,1.92,optionRight,70,8440,4,20,0,20,0,1,,,,,,,,,,,,,,,,,,,,,,,,,,,,,,,,,,,,,,,
,,,,,,,,2023-08-16_08h37.55.516,HF_wild_card,2022.2.4,Win32,10.00040002,5ea0141f476817000946fdc5,64d2fd46c836a06233681665,64dc7cb512bc9838b71f2151,,,,,,,sngl,resources/Empty.png,resources/DY.BMP,Door2,0.416666667,-0.081481481,1,0,0,1.401,optionRight,40,8480,4,21,0,21,0,1,,,,,,,,,,,,,,,,,,,,,,,,,,,,,,,,,,,,,,,
,,,,,,,,2023-08-16_08h37.55.516,HF_wild_card,2022.2.4,Win32,10.00040002,5ea0141f476817000946fdc5,64d2fd46c836a06233681665,64dc7cb512bc9838b71f2151,,,,,,,decisionTrl,resources/DY.BMP,resources/DBN.BMP,Door2,-0.309259259,-0.060185185,1,0,0,1.569,optionLeft,40,8520,4,22,0,22,0,1,,,,,,,,,,,,,,,,,,,,,,,,,,,,,,,,,,,,,,,
,,,,,,,,2023-08-16_08h37.55.516,HF_wild_card,2022.2.4,Win32,10.00040002,5ea0141f476817000946fdc5,64d2fd46c836a06233681665,64dc7cb512bc9838b71f2151,,,,,,,decisionTrl,resources/DBN.BMP,resources/DY.BMP,Door2,0.406481481,-0.059259259,1,0,0,1.19,optionRight,40,8560,4,23,0,23,0,1,,,,,,,,,,,,,,,,,,,,,,,,,,,,,,,,,,,,,,,
,,,,,,,,2023-08-16_08h37.55.516,HF_wild_card,2022.2.4,Win32,10.00040002,5ea0141f476817000946fdc5,64d2fd46c836a06233681665,64dc7cb512bc9838b71f2151,,,,,,,sngl,resources/Empty.png,resources/DP.BMP,WildCard_Ex,0.416666667,-0.069444444,1,0,0,1.127,optionRight,55,8615,4,24,0,24,0,1,,,,,,,,,,,,,,,,,,,,,,,,,,,,,,,,,,,,,,,
,,,,,,,,2023-08-16_08h37.55.516,HF_wild_card,2022.2.4,Win32,10.00040002,5ea0141f476817000946fdc5,64d2fd46c836a06233681665,64dc7cb512bc9838b71f2151,,,,,,,sngl,resources/DY.BMP,resources/Empty.png,Door2,-0.319444444,-0.067592593,1,0,0,1.02,optionLeft,20,8635,4,25,0,25,0,1,,,,,,,,,,,,,,,,,,,,,,,,,,,,,,,,,,,,,,,
,,,,,,,,2023-08-16_08h37.55.516,HF_wild_card,2022.2.4,Win32,10.00040002,5ea0141f476817000946fdc5,64d2fd46c836a06233681665,64dc7cb512bc9838b71f2151,,,,,,,sngl,resources/Empty.png,resources/DR.BMP,Door4,0.489814815,-0.086111111,1,0,0,1.134,optionRight,80,8715,4,26,0,26,0,1,,,,,,,,,,,,,,,,,,,,,,,,,,,,,,,,,,,,,,,
,,,,,,,,2023-08-16_08h37.55.516,HF_wild_card,2022.2.4,Win32,10.00040002,5ea0141f476817000946fdc5,64d2fd46c836a06233681665,64dc7cb512bc9838b71f2151,,,,,,,sngl,resources/DP.BMP,resources/Empty.png,WildCard_Ex,-0.298148148,-0.05462963,1,0,0,1.013,optionLeft,55,8770,4,27,0,27,0,1,,,,,,,,,,,,,,,,,,,,,,,,,,,,,,,,,,,,,,,
,,,,,,,,2023-08-16_08h37.55.516,HF_wild_card,2022.2.4,Win32,10.00040002,5ea0141f476817000946fdc5,64d2fd46c836a06233681665,64dc7cb512bc9838b71f2151,,,,,,,ctch,resources/DY.BMP,resources/DG.BMP,Door3,0.442592593,-0.074074074,1,0,0,1.584,optionRight,70,8840,4,28,0,28,0,1,,,,,,,,,,,,,,,,,,,,,,,,,,,,,,,,,,,,,,,
,,,,,,,,2023-08-16_08h37.55.516,HF_wild_card,2022.2.4,Win32,10.00040002,5ea0141f476817000946fdc5,64d2fd46c836a06233681665,64dc7cb512bc9838b71f2151,,,,,,,decisionTrl,resources/DG.BMP,resources/DP.BMP,Door3,-0.301851852,-0.058333333,1,0,0,1.379,optionLeft,70,8910,4,29,0,29,0,1,,,,,,,,,,,,,,,,,,,,,,,,,,,,,,,,,,,,,,,
,,,,,,,,2023-08-16_08h37.55.516,HF_wild_card,2022.2.4,Win32,10.00040002,5ea0141f476817000946fdc5,64d2fd46c836a06233681665,64dc7cb512bc9838b71f2151,,,,,,,decisionTrl,resources/DP.BMP,resources/DY.BMP,WildCard_Ex,-0.380555556,-0.093518519,1,0,0,2.218,optionLeft,55,8965,4,30,0,30,0,1,,,,,,,,,,,,,,,,,,,,,,,,,,,,,,,,,,,,,,,
,,,,,,,,2023-08-16_08h37.55.516,HF_wild_card,2022.2.4,Win32,10.00040002,5ea0141f476817000946fdc5,64d2fd46c836a06233681665,64dc7cb512bc9838b71f2151,,,,,,,decisionTrl,resources/DG.BMP,resources/DR.BMP,Door4,0.362037037,-0.108333333,1,0,0,1.649,optionRight,60,9025,4,31,0,31,0,1,,,,,,,,,,,,,,,,,,,,,,,,,,,,,,,,,,,,,,,
,,,,,,,,2023-08-16_08h37.55.516,HF_wild_card,2022.2.4,Win32,10.00040002,5ea0141f476817000946fdc5,64d2fd46c836a06233681665,64dc7cb512bc9838b71f2151,,,,,,,decisionTrl,resources/DBN.BMP,resources/DP.BMP,WildCard_Ex,0.351851852,-0.063888889,1,0,0,2.245,optionRight,45,9070,4,32,0,32,0,1,,,,,,,,,,,,,,,,,,,,,,,,,,,,,,,,,,,,,,,
,,,,,,,,2023-08-16_08h37.55.516,HF_wild_card,2022.2.4,Win32,10.00040002,5ea0141f476817000946fdc5,64d2fd46c836a06233681665,64dc7cb512bc9838b71f2151,,,,,,,decisionTrl,resources/DY.BMP,resources/DBN.BMP,Door2,-0.256481481,-0.07037037,1,0,0,2.469,optionLeft,40,9110,4,33,0,33,0,1,,,,,,,,,,,,,,,,,,,,,,,,,,,,,,,,,,,,,,,
,,,,,,,,2023-08-16_08h37.55.516,HF_wild_card,2022.2.4,Win32,10.00040002,5ea0141f476817000946fdc5,64d2fd46c836a06233681665,64dc7cb512bc9838b71f2151,,,,,,,sngl,resources/Empty.png,resources/DBN.BMP,Door1,0.311111111,-0.023148148,1,0,0,0.9,optionRight,30,9140,4,34,0,34,0,1,,,,,,,,,,,,,,,,,,,,,,,,,,,,,,,,,,,,,,,
,,,,,,,,2023-08-16_08h37.55.516,HF_wild_card,2022.2.4,Win32,10.00040002,5ea0141f476817000946fdc5,64d2fd46c836a06233681665,64dc7cb512bc9838b71f2151,,,,,,,decisionTrl,resources/DP.BMP,resources/DBN.BMP,WildCard_Ex,-0.334259259,-0.050925926,1,0,0,2.097,optionLeft,55,9195,4,35,0,35,0,1,,,,,,,,,,,,,,,,,,,,,,,,,,,,,,,,,,,,,,,
,,,,,,,,2023-08-16_08h37.55.516,HF_wild_card,2022.2.4,Win32,10.00040002,5ea0141f476817000946fdc5,64d2fd46c836a06233681665,64dc7cb512bc9838b71f2151,,,,,,,decisionTrl,resources/DY.BMP,resources/DBN.BMP,Door2,-0.37962963,-0.059259259,1,0,0,1.648,optionLeft,40,9235,4,36,0,36,0,1,,,,,,,,,,,,,,,,,,,,,,,,,,,,,,,,,,,,,,,
,,,,,,,,2023-08-16_08h37.55.516,HF_wild_card,2022.2.4,Win32,10.00040002,5ea0141f476817000946fdc5,64d2fd46c836a06233681665,64dc7cb512bc9838b71f2151,,,,,,,decisionTrl,resources/DG.BMP,resources/DR.BMP,Door4,0.375,-0.065740741,1,0,0,2.211,optionRight,80,9315,4,37,0,37,0,1,,,,,,,,,,,,,,,,,,,,,,,,,,,,,,,,,,,,,,,
,,,,,,,,2023-08-16_08h37.55.516,HF_wild_card,2022.2.4,Win32,10.00040002,5ea0141f476817000946fdc5,64d2fd46c836a06233681665,64dc7cb512bc9838b71f2151,,,,,,,decisionTrl,resources/DBN.BMP,resources/DY.BMP,Door2,0.375,-0.049074074,1,0,0,2.17,optionRight,40,9355,4,38,0,38,0,1,,,,,,,,,,,,,,,,,,,,,,,,,,,,,,,,,,,,,,,
,,,,,,,,2023-08-16_08h37.55.516,HF_wild_card,2022.2.4,Win32,10.00040002,5ea0141f476817000946fdc5,64d2fd46c836a06233681665,64dc7cb512bc9838b71f2151,,,,,,,decisionTrl,resources/DR.BMP,resources/DP.BMP,Door4,-0.335185185,-0.05462963,1,0,0,1.898,optionLeft,80,9435,4,39,0,39,0,1,,,,,,,,,,,,,,,,,,,,,,,,,,,,,,,,,,,,,,,
,,,,,,,,2023-08-16_08h37.55.516,HF_wild_card,2022.2.4,Win32,10.00040002,5ea0141f476817000946fdc5,64d2fd46c836a06233681665,64dc7cb512bc9838b71f2151,,,,,,,decisionTrl,resources/DR.BMP,resources/DG.BMP,Door4,-0.391666667,-0.07962963,1,0,0,1.43,optionLeft,60,9495,4,40,0,40,0,1,,,,,,,,,,,,,,,,,,,,,,,,,,,,,,,,,,,,,,,
,,,,,,,,2023-08-16_08h37.55.516,HF_wild_card,2022.2.4,Win32,10.00040002,5ea0141f476817000946fdc5,64d2fd46c836a06233681665,64dc7cb512bc9838b71f2151,,,,,,,ctch,resources/DBN.BMP,resources/DR.BMP,Door4,0.309259259,-0.071296296,1,0,0,1.617,optionRight,60,9555,4,41,0,41,0,1,,,,,,,,,,,,,,,,,,,,,,,,,,,,,,,,,,,,,,,
,,,,,,,,2023-08-16_08h37.55.516,HF_wild_card,2022.2.4,Win32,10.00040002,5ea0141f476817000946fdc5,64d2fd46c836a06233681665,64dc7cb512bc9838b71f2151,,,,,,,decisionTrl,resources/DG.BMP,resources/DR.BMP,Door3,-0.284259259,-0.061111111,1,0,0,1.855,optionLeft,70,9625,4,42,0,42,0,1,,,,,,,,,,,,,,,,,,,,,,,,,,,,,,,,,,,,,,,
,,,,,,,,2023-08-16_08h37.55.516,HF_wild_card,2022.2.4,Win32,10.00040002,5ea0141f476817000946fdc5,64d2fd46c836a06233681665,64dc7cb512bc9838b71f2151,,,,,,,sngl,resources/DR.BMP,resources/Empty.png,Door4,-0.338888889,-0.048148148,1,0,0,1.119,optionLeft,60,9685,4,43,0,43,0,1,,,,,,,,,,,,,,,,,,,,,,,,,,,,,,,,,,,,,,,
,,,,,,,,2023-08-16_08h37.55.516,HF_wild_card,2022.2.4,Win32,10.00040002,5ea0141f476817000946fdc5,64d2fd46c836a06233681665,64dc7cb512bc9838b71f2151,,,,,,,,,,,,,,,,,,,,,,,,,,3,0,3,0,1,,,,,,,,,,,,,,,,,,,,,,,,,,,,,,,,,,
,,,,,,,,2023-08-16_08h37.55.516,HF_wild_card,2022.2.4,Win32,10.00040002,5ea0141f476817000946fdc5,64d2fd46c836a06233681665,64dc7cb512bc9838b71f2151,,,,,,,sngl,resources/DR.BMP,resources/Empty.png,Door4,-0.287962963,-0.112037037,1,0,0,1.888,optionLeft,80,9765,5,0,0,0,0,1,,,,,,,,,,,,,,,,,,,,,,,,,,,,,,,,,,,,,,,
,,,,,,,,2023-08-16_08h37.55.516,HF_wild_card,2022.2.4,Win32,10.00040002,5ea0141f476817000946fdc5,64d2fd46c836a06233681665,64dc7cb512bc9838b71f2151,,,,,,,decisionTrl,resources/DBN.BMP,resources/DY.BMP,Door2,0.352777778,-0.049074074,1,0,0,2.002,optionRight,40,9805,5,1,0,1,0,1,,,,,,,,,,,,,,,,,,,,,,,,,,,,,,,,,,,,,,,
,,,,,,,,2023-08-16_08h37.55.516,HF_wild_card,2022.2.4,Win32,10.00040002,5ea0141f476817000946fdc5,64d2fd46c836a06233681665,64dc7cb512bc9838b71f2151,,,,,,,decisionTrl,resources/DG.BMP,resources/DR.BMP,Door3,-0.281481481,-0.09537037,1,0,0,2.729,optionLeft,70,9875,5,2,0,2,0,1,,,,,,,,,,,,,,,,,,,,,,,,,,,,,,,,,,,,,,,
,,,,,,,,2023-08-16_08h37.55.516,HF_wild_card,2022.2.4,Win32,10.00040002,5ea0141f476817000946fdc5,64d2fd46c836a06233681665,64dc7cb512bc9838b71f2151,,,,,,,decisionTrl,resources/DP.BMP,resources/DBN.BMP,WildCard_Ex,-0.337037037,-0.07962963,1,0,0,1.639,optionLeft,55,9930,5,3,0,3,0,1,,,,,,,,,,,,,,,,,,,,,,,,,,,,,,,,,,,,,,,
,,,,,,,,2023-08-16_08h37.55.516,HF_wild_card,2022.2.4,Win32,10.00040002,5ea0141f476817000946fdc5,64d2fd46c836a06233681665,64dc7cb512bc9838b71f2151,,,,,,,sngl,resources/DBN.BMP,resources/Empty.png,Door1,-0.275925926,-0.047222222,1,0,0,1.09,optionLeft,30,9960,5,4,0,4,0,1,,,,,,,,,,,,,,,,,,,,,,,,,,,,,,,,,,,,,,,
,,,,,,,,2023-08-16_08h37.55.516,HF_wild_card,2022.2.4,Win32,10.00040002,5ea0141f476817000946fdc5,64d2fd46c836a06233681665,64dc7cb512bc9838b71f2151,,,,,,,sngl,resources/Empty.png,resources/DG.BMP,Door3,0.387037037,-0.023148148,1,0,0,1.02,optionRight,70,10030,5,5,0,5,0,1,,,,,,,,,,,,,,,,,,,,,,,,,,,,,,,,,,,,,,,
,,,,,,,,2023-08-16_08h37.55.516,HF_wild_card,2022.2.4,Win32,10.00040002,5ea0141f476817000946fdc5,64d2fd46c836a06233681665,64dc7cb512bc9838b71f2151,,,,,,,ctch,resources/DR.BMP,resources/DBN.BMP,Door4,-0.350925926,-0.051851852,1,0,0,1.302,optionLeft,60,10090,5,6,0,6,0,1,,,,,,,,,,,,,,,,,,,,,,,,,,,,,,,,,,,,,,,
,,,,,,,,2023-08-16_08h37.55.516,HF_wild_card,2022.2.4,Win32,10.00040002,5ea0141f476817000946fdc5,64d2fd46c836a06233681665,64dc7cb512bc9838b71f2151,,,,,,,decisionTrl,resources/DBN.BMP,resources/DY.BMP,Door2,0.357407407,-0.055555556,1,0,0,1.982,optionRight,20,10110,5,7,0,7,0,1,,,,,,,,,,,,,,,,,,,,,,,,,,,,,,,,,,,,,,,
,,,,,,,,2023-08-16_08h37.55.516,HF_wild_card,2022.2.4,Win32,10.00040002,5ea0141f476817000946fdc5,64d2fd46c836a06233681665,64dc7cb512bc9838b71f2151,,,,,,,sngl,resources/Empty.png,resources/DP.BMP,WildCard_Ex,0.425,-0.085185185,1,0,0,1.146,optionRight,55,10165,5,8,0,8,0,1,,,,,,,,,,,,,,,,,,,,,,,,,,,,,,,,,,,,,,,
,,,,,,,,2023-08-16_08h37.55.516,HF_wild_card,2022.2.4,Win32,10.00040002,5ea0141f476817000946fdc5,64d2fd46c836a06233681665,64dc7cb512bc9838b71f2151,,,,,,,sngl,resources/DP.BMP,resources/Empty.png,WildCard_Ex,-0.247222222,-0.072222222,1,0,0,1.234,optionLeft,45,10210,5,9,0,9,0,1,,,,,,,,,,,,,,,,,,,,,,,,,,,,,,,,,,,,,,,
,,,,,,,,2023-08-16_08h37.55.516,HF_wild_card,2022.2.4,Win32,10.00040002,5ea0141f476817000946fdc5,64d2fd46c836a06233681665,64dc7cb512bc9838b71f2151,,,,,,,ctch,resources/DY.BMP,resources/DG.BMP,Door3,0.364814815,-0.043518519,1,0,0,1.645,optionRight,70,10280,5,10,0,10,0,1,,,,,,,,,,,,,,,,,,,,,,,,,,,,,,,,,,,,,,,
,,,,,,,,2023-08-16_08h37.55.516,HF_wild_card,2022.2.4,Win32,10.00040002,5ea0141f476817000946fdc5,64d2fd46c836a06233681665,64dc7cb512bc9838b71f2151,,,,,,,decisionTrl,resources/DBN.BMP,resources/DP.BMP,WildCard_Ex,0.376851852,-0.050925926,1,0,0,1.857,optionRight,55,10335,5,11,0,11,0,1,,,,,,,,,,,,,,,,,,,,,,,,,,,,,,,,,,,,,,,
,,,,,,,,2023-08-16_08h37.55.516,HF_wild_card,2022.2.4,Win32,10.00040002,5ea0141f476817000946fdc5,64d2fd46c836a06233681665,64dc7cb512bc9838b71f2151,,,,,,,decisionTrl,resources/DR.BMP,resources/DP.BMP,Door4,-0.325,-0.062037037,1,0,0,1.55,optionLeft,60,10395,5,12,0,12,0,1,,,,,,,,,,,,,,,,,,,,,,,,,,,,,,,,,,,,,,,
,,,,,,,,2023-08-16_08h37.55.516,HF_wild_card,2022.2.4,Win32,10.00040002,5ea0141f476817000946fdc5,64d2fd46c836a06233681665,64dc7cb512bc9838b71f2151,,,,,,,sngl,resources/DP.BMP,resources/Empty.png,WildCard_Ex,-0.273148148,-0.049074074,1,0,0,1.17,optionLeft,55,10450,5,13,0,13,0,1,,,,,,,,,,,,,,,,,,,,,,,,,,,,,,,,,,,,,,,
,,,,,,,,2023-08-16_08h37.55.516,HF_wild_card,2022.2.4,Win32,10.00040002,5ea0141f476817000946fdc5,64d2fd46c836a06233681665,64dc7cb512bc9838b71f2151,,,,,,,decisionTrl,resources/DY.BMP,resources/DBN.BMP,Door2,-0.327777778,-0.085185185,1,0,0,1.633,optionLeft,20,10470,5,14,0,14,0,1,,,,,,,,,,,,,,,,,,,,,,,,,,,,,,,,,,,,,,,
,,,,,,,,2023-08-16_08h37.55.516,HF_wild_card,2022.2.4,Win32,10.00040002,5ea0141f476817000946fdc5,64d2fd46c836a06233681665,64dc7cb512bc9838b71f2151,,,,,,,decisionTrl,resources/DP.BMP,resources/DG.BMP,Door3,0.348148148,-0.072222222,1,0,0,2.207,optionRight,70,10540,5,15,0,15,0,1,,,,,,,,,,,,,,,,,,,,,,,,,,,,,,,,,,,,,,,
,,,,,,,,2023-08-16_08h37.55.516,HF_wild_card,2022.2.4,Win32,10.00040002,5ea0141f476817000946fdc5,64d2fd46c836a06233681665,64dc7cb512bc9838b71f2151,,,,,,,sngl,resources/Empty.png,resources/DR.BMP,Door4,0.399074074,-0.073148148,1,0,0,1.025,optionRight,60,10600,5,16,0,16,0,1,,,,,,,,,,,,,,,,,,,,,,,,,,,,,,,,,,,,,,,
,,,,,,,,2023-08-16_08h37.55.516,HF_wild_card,2022.2.4,Win32,10.00040002,5ea0141f476817000946fdc5,64d2fd46c836a06233681665,64dc7cb512bc9838b71f2151,,,,,,,ctch,resources/DBN.BMP,resources/DR.BMP,Door4,0.314814815,-0.057407407,1,0,0,1.846,optionRight,80,10680,5,17,0,17,0,1,,,,,,,,,,,,,,,,,,,,,,,,,,,,,,,,,,,,,,,
,,,,,,,,2023-08-16_08h37.55.516,HF_wild_card,2022.2.4,Win32,10.00040002,5ea0141f476817000946fdc5,64d2fd46c836a06233681665,64dc7cb512bc9838b71f2151,,,,,,,decisionTrl,resources/DG.BMP,resources/DR.BMP,Door4,0.418518519,-0.051851852,1,0,0,2.957,optionRight,80,10760,5,18,0,18,0,1,,,,,,,,,,,,,,,,,,,,,,,,,,,,,,,,,,,,,,,
,,,,,,,,2023-08-16_08h37.55.516,HF_wild_card,2022.2.4,Win32,10.00040002,5ea0141f476817000946fdc5,64d2fd46c836a06233681665,64dc7cb512bc9838b71f2151,,,,,,,decisionTrl,resources/DG.BMP,resources/DR.BMP,Door4,0.392592593,-0.050925926,1,0,0,2.279,optionRight,80,10840,5,19,0,19,0,1,,,,,,,,,,,,,,,,,,,,,,,,,,,,,,,,,,,,,,,
,,,,,,,,2023-08-16_08h37.55.516,HF_wild_card,2022.2.4,Win32,10.00040002,5ea0141f476817000946fdc5,64d2fd46c836a06233681665,64dc7cb512bc9838b71f2151,,,,,,,decisionTrl,resources/DBN.BMP,resources/DY.BMP,Door2,0.39537037,-0.076851852,1,0,0,3.105,optionRight,20,10860,5,20,0,20,0,1,,,,,,,,,,,,,,,,,,,,,,,,,,,,,,,,,,,,,,,
,,,,,,,,2023-08-16_08h37.55.516,HF_wild_card,2022.2.4,Win32,10.00040002,5ea0141f476817000946fdc5,64d2fd46c836a06233681665,64dc7cb512bc9838b71f2151,,,,,,,decisionTrl,resources/DR.BMP,resources/DG.BMP,Door4,-0.391666667,-0.056481481,1,0,0,1.926,optionLeft,60,10920,5,21,0,21,0,1,,,,,,,,,,,,,,,,,,,,,,,,,,,,,,,,,,,,,,,
,,,,,,,,2023-08-16_08h37.55.516,HF_wild_card,2022.2.4,Win32,10.00040002,5ea0141f476817000946fdc5,64d2fd46c836a06233681665,64dc7cb512bc9838b71f2151,,,,,,,sngl,resources/Empty.png,resources/DY.BMP,Door2,0.351851852,-0.039814815,1,0,0,1.186,optionRight,20,10940,5,22,0,22,0,1,,,,,,,,,,,,,,,,,,,,,,,,,,,,,,,,,,,,,,,
,,,,,,,,2023-08-16_08h37.55.516,HF_wild_card,2022.2.4,Win32,10.00040002,5ea0141f476817000946fdc5,64d2fd46c836a06233681665,64dc7cb512bc9838b71f2151,,,,,,,decisionTrl,resources/DY.BMP,resources/DBN.BMP,Door1,0.308333333,-0.048148148,1,0,0,1.425,optionRight,30,10970,5,23,0,23,0,1,,,,,,,,,,,,,,,,,,,,,,,,,,,,,,,,,,,,,,,
,,,,,,,,2023-08-16_08h37.55.516,HF_wild_card,2022.2.4,Win32,10.00040002,5ea0141f476817000946fdc5,64d2fd46c836a06233681665,64dc7cb512bc9838b71f2151,,,,,,,ctch,resources/DG.BMP,resources/DY.BMP,Door3,-0.425,-0.069444444,1,0,0,1.635,optionLeft,70,11040,5,24,0,24,0,1,,,,,,,,,,,,,,,,,,,,,,,,,,,,,,,,,,,,,,,
,,,,,,,,2023-08-16_08h37.55.516,HF_wild_card,2022.2.4,Win32,10.00040002,5ea0141f476817000946fdc5,64d2fd46c836a06233681665,64dc7cb512bc9838b71f2151,,,,,,,sngl,resources/Empty.png,resources/DBN.BMP,Door1,0.311111111,-0.05462963,1,0,0,1.021,optionRight,30,11070,5,25,0,25,0,1,,,,,,,,,,,,,,,,,,,,,,,,,,,,,,,,,,,,,,,
,,,,,,,,2023-08-16_08h37.55.516,HF_wild_card,2022.2.4,Win32,10.00040002,5ea0141f476817000946fdc5,64d2fd46c836a06233681665,64dc7cb512bc9838b71f2151,,,,,,,decisionTrl,resources/DR.BMP,resources/DG.BMP,Door4,-0.310185185,-0.058333333,1,0,0,2.632,optionLeft,60,11130,5,26,0,26,0,1,,,,,,,,,,,,,,,,,,,,,,,,,,,,,,,,,,,,,,,
,,,,,,,,2023-08-16_08h37.55.516,HF_wild_card,2022.2.4,Win32,10.00040002,5ea0141f476817000946fdc5,64d2fd46c836a06233681665,64dc7cb512bc9838b71f2151,,,,,,,decisionTrl,resources/DP.BMP,resources/DY.BMP,WildCard_Ex,-0.326851852,-0.076851852,1,0,0,2.063,optionLeft,45,11175,5,27,0,27,0,1,,,,,,,,,,,,,,,,,,,,,,,,,,,,,,,,,,,,,,,
,,,,,,,,2023-08-16_08h37.55.516,HF_wild_card,2022.2.4,Win32,10.00040002,5ea0141f476817000946fdc5,64d2fd46c836a06233681665,64dc7cb512bc9838b71f2151,,,,,,,decisionTrl,resources/DP.BMP,resources/DR.BMP,Door4,0.312037037,-0.075,1,0,0,2.027,optionRight,80,11255,5,28,0,28,0,1,,,,,,,,,,,,,,,,,,,,,,,,,,,,,,,,,,,,,,,
,,,,,,,,2023-08-16_08h37.55.516,HF_wild_card,2022.2.4,Win32,10.00040002,5ea0141f476817000946fdc5,64d2fd46c836a06233681665,64dc7cb512bc9838b71f2151,,,,,,,decisionTrl,resources/DBN.BMP,resources/DY.BMP,Door2,0.343518519,-0.077777778,1,0,0,2.226,optionRight,40,11295,5,29,0,29,0,1,,,,,,,,,,,,,,,,,,,,,,,,,,,,,,,,,,,,,,,
,,,,,,,,2023-08-16_08h37.55.516,HF_wild_card,2022.2.4,Win32,10.00040002,5ea0141f476817000946fdc5,64d2fd46c836a06233681665,64dc7cb512bc9838b71f2151,,,,,,,decisionTrl,resources/DY.BMP,resources/DBN.BMP,Door2,-0.356481481,-0.055555556,1,0,0,1.157,optionLeft,20,11315,5,30,0,30,0,1,,,,,,,,,,,,,,,,,,,,,,,,,,,,,,,,,,,,,,,
,,,,,,,,2023-08-16_08h37.55.516,HF_wild_card,2022.2.4,Win32,10.00040002,5ea0141f476817000946fdc5,64d2fd46c836a06233681665,64dc7cb512bc9838b71f2151,,,,,,,sngl,resources/DG.BMP,resources/Empty.png,Door3,-0.287037037,-0.02962963,1,0,0,0.957,optionLeft,70,11385,5,31,0,31,0,1,,,,,,,,,,,,,,,,,,,,,,,,,,,,,,,,,,,,,,,
,,,,,,,,2023-08-16_08h37.55.516,HF_wild_card,2022.2.4,Win32,10.00040002,5ea0141f476817000946fdc5,64d2fd46c836a06233681665,64dc7cb512bc9838b71f2151,,,,,,,decisionTrl,resources/DY.BMP,resources/DBN.BMP,Door1,0.335185185,-0.048148148,1,0,0,2.884,optionRight,30,11415,5,32,0,32,0,1,,,,,,,,,,,,,,,,,,,,,,,,,,,,,,,,,,,,,,,
,,,,,,,,2023-08-16_08h37.55.516,HF_wild_card,2022.2.4,Win32,10.00040002,5ea0141f476817000946fdc5,64d2fd46c836a06233681665,64dc7cb512bc9838b71f2151,,,,,,,ctch,resources/DBN.BMP,resources/DR.BMP,Door4,0.331481481,-0.063888889,1,0,0,1.336,optionRight,80,11495,5,33,0,33,0,1,,,,,,,,,,,,,,,,,,,,,,,,,,,,,,,,,,,,,,,
,,,,,,,,2023-08-16_08h37.55.516,HF_wild_card,2022.2.4,Win32,10.00040002,5ea0141f476817000946fdc5,64d2fd46c836a06233681665,64dc7cb512bc9838b71f2151,,,,,,,ctch,resources/DG.BMP,resources/DY.BMP,Door3,-0.3,-0.043518519,1,0,0,1.338,optionLeft,70,11565,5,34,0,34,0,1,,,,,,,,,,,,,,,,,,,,,,,,,,,,,,,,,,,,,,,
,,,,,,,,2023-08-16_08h37.55.516,HF_wild_card,2022.2.4,Win32,10.00040002,5ea0141f476817000946fdc5,64d2fd46c836a06233681665,64dc7cb512bc9838b71f2151,,,,,,,sngl,resources/Empty.png,resources/DP.BMP,WildCard_Ex,0.313888889,-0.051851852,1,0,0,1.161,optionRight,45,11610,5,35,0,35,0,1,,,,,,,,,,,,,,,,,,,,,,,,,,,,,,,,,,,,,,,
,,,,,,,,2023-08-16_08h37.55.516,HF_wild_card,2022.2.4,Win32,10.00040002,5ea0141f476817000946fdc5,64d2fd46c836a06233681665,64dc7cb512bc9838b71f2151,,,,,,,decisionTrl,resources/DG.BMP,resources/DP.BMP,Door3,-0.291666667,-0.060185185,1,0,0,1.94,optionLeft,70,11680,5,36,0,36,0,1,,,,,,,,,,,,,,,,,,,,,,,,,,,,,,,,,,,,,,,
,,,,,,,,2023-08-16_08h37.55.516,HF_wild_card,2022.2.4,Win32,10.00040002,5ea0141f476817000946fdc5,64d2fd46c836a06233681665,64dc7cb512bc9838b71f2151,,,,,,,decisionTrl,resources/DR.BMP,resources/DG.BMP,Door3,0.338888889,-0.078703704,1,0,0,2.489,optionRight,70,11750,5,37,0,37,0,1,,,,,,,,,,,,,,,,,,,,,,,,,,,,,,,,,,,,,,,
,,,,,,,,2023-08-16_08h37.55.516,HF_wild_card,2022.2.4,Win32,10.00040002,5ea0141f476817000946fdc5,64d2fd46c836a06233681665,64dc7cb512bc9838b71f2151,,,,,,,sngl,resources/DY.BMP,resources/Empty.png,Door2,-0.301851852,-0.086111111,1,0,0,1.551,optionLeft,40,11790,5,38,0,38,0,1,,,,,,,,,,,,,,,,,,,,,,,,,,,,,,,,,,,,,,,
,,,,,,,,2023-08-16_08h37.55.516,HF_wild_card,2022.2.4,Win32,10.00040002,5ea0141f476817000946fdc5,64d2fd46c836a06233681665,64dc7cb512bc9838b71f2151,,,,,,,ctch,resources/DY.BMP,resources/DG.BMP,Door3,0.338888889,-0.067592593,1,0,0,1.176,optionRight,70,11860,5,39,0,39,0,1,,,,,,,,,,,,,,,,,,,,,,,,,,,,,,,,,,,,,,,
,,,,,,,,2023-08-16_08h37.55.516,HF_wild_card,2022.2.4,Win32,10.00040002,5ea0141f476817000946fdc5,64d2fd46c836a06233681665,64dc7cb512bc9838b71f2151,,,,,,,decisionTrl,resources/DG.BMP,resources/DR.BMP,Door4,0.382407407,-0.032407407,1,0,0,2.398,optionRight,80,11940,5,40,0,40,0,1,,,,,,,,,,,,,,,,,,,,,,,,,,,,,,,,,,,,,,,
,,,,,,,,2023-08-16_08h37.55.516,HF_wild_card,2022.2.4,Win32,10.00040002,5ea0141f476817000946fdc5,64d2fd46c836a06233681665,64dc7cb512bc9838b71f2151,,,,,,,ctch,resources/DR.BMP,resources/DBN.BMP,Door4,-0.37962963,-0.082407407,1,0,0,1.392,optionLeft,80,12020,5,41,0,41,0,1,,,,,,,,,,,,,,,,,,,,,,,,,,,,,,,,,,,,,,,
,,,,,,,,2023-08-16_08h37.55.516,HF_wild_card,2022.2.4,Win32,10.00040002,5ea0141f476817000946fdc5,64d2fd46c836a06233681665,64dc7cb512bc9838b71f2151,,,,,,,decisionTrl,resources/DY.BMP,resources/DP.BMP,WildCard_Ex,0.365740741,-0.069444444,1,0,0,1.535,optionRight,45,12065,5,42,0,42,0,1,,,,,,,,,,,,,,,,,,,,,,,,,,,,,,,,,,,,,,,
,,,,,,,,2023-08-16_08h37.55.516,HF_wild_card,2022.2.4,Win32,10.00040002,5ea0141f476817000946fdc5,64d2fd46c836a06233681665,64dc7cb512bc9838b71f2151,,,,,,,decisionTrl,resources/DR.BMP,resources/DG.BMP,Door4,-0.315740741,-0.081481481,1,0,0,2.065,optionLeft,80,12145,5,43,0,43,0,1,,,,,,,,,,,,,,,,,,,,,,,,,,,,,,,,,,,,,,,
,,,,,,,,2023-08-16_08h37.55.516,HF_wild_card,2022.2.4,Win32,10.00040002,5ea0141f476817000946fdc5,64d2fd46c836a06233681665,64dc7cb512bc9838b71f2151,,,,,,,,,,,,,,,,,,,,,,,,,,4,0,4,0,1,,,,,,,,,,,,,,,,,,,,,,,,,,,,,,,,,,
,,,,,,,,2023-08-16_08h37.55.516,HF_wild_card,2022.2.4,Win32,10.00040002,5ea0141f476817000946fdc5,64d2fd46c836a06233681665,64dc7cb512bc9838b71f2151,,,,,,,decisionTrl,resources/DR.BMP,resources/DG.BMP,Door4,-0.348148148,-0.105555556,1,0,0,1.897,optionLeft,80,12225,6,0,0,0,0,1,,,,,,,,,,,,,,,,,,,,,,,,,,,,,,,,,,,,,,,
,,,,,,,,2023-08-16_08h37.55.516,HF_wild_card,2022.2.4,Win32,10.00040002,5ea0141f476817000946fdc5,64d2fd46c836a06233681665,64dc7cb512bc9838b71f2151,,,,,,,decisionTrl,resources/DR.BMP,resources/DG.BMP,Door4,-0.358333333,-0.07962963,1,0,0,1.258,optionLeft,80,12305,6,1,0,1,0,1,,,,,,,,,,,,,,,,,,,,,,,,,,,,,,,,,,,,,,,
,,,,,,,,2023-08-16_08h37.55.516,HF_wild_card,2022.2.4,Win32,10.00040002,5ea0141f476817000946fdc5,64d2fd46c836a06233681665,64dc7cb512bc9838b71f2151,,,,,,,decisionTrl,resources/DP.BMP,resources/DR.BMP,Door4,0.413888889,-0.057407407,1,0,0,1.384,optionRight,80,12385,6,2,0,2,0,1,,,,,,,,,,,,,,,,,,,,,,,,,,,,,,,,,,,,,,,
,,,,,,,,2023-08-16_08h37.55.516,HF_wild_card,2022.2.4,Win32,10.00040002,5ea0141f476817000946fdc5,64d2fd46c836a06233681665,64dc7cb512bc9838b71f2151,,,,,,,ctch,resources/DG.BMP,resources/DY.BMP,Door3,-0.322222222,-0.075,1,0,0,1.262,optionLeft,70,12455,6,3,0,3,0,1,,,,,,,,,,,,,,,,,,,,,,,,,,,,,,,,,,,,,,,
,,,,,,,,2023-08-16_08h37.55.516,HF_wild_card,2022.2.4,Win32,10.00040002,5ea0141f476817000946fdc5,64d2fd46c836a06233681665,64dc7cb512bc9838b71f2151,,,,,,,decisionTrl,resources/DBN.BMP,resources/DY.BMP,Door1,-0.334259259,-0.065740741,1,0,0,2.564,optionLeft,30,12485,6,4,0,4,0,1,,,,,,,,,,,,,,,,,,,,,,,,,,,,,,,,,,,,,,,
,,,,,,,,2023-08-16_08h37.55.516,HF_wild_card,2022.2.4,Win32,10.00040002,5ea0141f476817000946fdc5,64d2fd46c836a06233681665,64dc7cb512bc9838b71f2151,,,,,,,decisionTrl,resources/DR.BMP,resources/DG.BMP,Door4,-0.396296296,-0.049074074,1,0,0,1.481,optionLeft,80,12565,6,5,0,5,0,1,,,,,,,,,,,,,,,,,,,,,,,,,,,,,,,,,,,,,,,
,,,,,,,,2023-08-16_08h37.55.516,HF_wild_card,2022.2.4,Win32,10.00040002,5ea0141f476817000946fdc5,64d2fd46c836a06233681665,64dc7cb512bc9838b71f2151,,,,,,,sngl,resources/Empty.png,resources/DY.BMP,Door2,0.300925926,-0.062037037,1,0,0,1.126,optionRight,40,12605,6,6,0,6,0,1,,,,,,,,,,,,,,,,,,,,,,,,,,,,,,,,,,,,,,,
,,,,,,,,2023-08-16_08h37.55.516,HF_wild_card,2022.2.4,Win32,10.00040002,5ea0141f476817000946fdc5,64d2fd46c836a06233681665,64dc7cb512bc9838b71f2151,,,,,,,ctch,resources/DG.BMP,resources/DY.BMP,Door3,-0.330555556,-0.060185185,1,0,0,1.484,optionLeft,70,12675,6,7,0,7,0,1,,,,,,,,,,,,,,,,,,,,,,,,,,,,,,,,,,,,,,,
,,,,,,,,2023-08-16_08h37.55.516,HF_wild_card,2022.2.4,Win32,10.00040002,5ea0141f476817000946fdc5,64d2fd46c836a06233681665,64dc7cb512bc9838b71f2151,,,,,,,decisionTrl,resources/DG.BMP,resources/DR.BMP,Door4,0.321296296,-0.105555556,1,0,0,2.088,optionRight,60,12735,6,8,0,8,0,1,,,,,,,,,,,,,,,,,,,,,,,,,,,,,,,,,,,,,,,
,,,,,,,,2023-08-16_08h37.55.516,HF_wild_card,2022.2.4,Win32,10.00040002,5ea0141f476817000946fdc5,64d2fd46c836a06233681665,64dc7cb512bc9838b71f2151,,,,,,,sngl,resources/DP.BMP,resources/Empty.png,WildCard_Ex,-0.32037037,-0.089814815,1,0,0,1.016,optionLeft,55,12790,6,9,0,9,0,1,,,,,,,,,,,,,,,,,,,,,,,,,,,,,,,,,,,,,,,
,,,,,,,,2023-08-16_08h37.55.516,HF_wild_card,2022.2.4,Win32,10.00040002,5ea0141f476817000946fdc5,64d2fd46c836a06233681665,64dc7cb512bc9838b71f2151,,,,,,,sngl,resources/DP.BMP,resources/Empty.png,WildCard_Ex,-0.221296296,-0.069444444,1,0,0,0.921,optionLeft,45,12835,6,10,0,10,0,1,,,,,,,,,,,,,,,,,,,,,,,,,,,,,,,,,,,,,,,
,,,,,,,,2023-08-16_08h37.55.516,HF_wild_card,2022.2.4,Win32,10.00040002,5ea0141f476817000946fdc5,64d2fd46c836a06233681665,64dc7cb512bc9838b71f2151,,,,,,,decisionTrl,resources/DR.BMP,resources/DG.BMP,Door4,-0.308333333,-0.030555556,1,0,0,3.121,optionLeft,80,12915,6,11,0,11,0,1,,,,,,,,,,,,,,,,,,,,,,,,,,,,,,,,,,,,,,,
,,,,,,,,2023-08-16_08h37.55.516,HF_wild_card,2022.2.4,Win32,10.00040002,5ea0141f476817000946fdc5,64d2fd46c836a06233681665,64dc7cb512bc9838b71f2151,,,,,,,decisionTrl,resources/DG.BMP,resources/DP.BMP,Door3,-0.350925926,-0.037962963,1,0,0,1.172,optionLeft,70,12985,6,12,0,12,0,1,,,,,,,,,,,,,,,,,,,,,,,,,,,,,,,,,,,,,,,
,,,,,,,,2023-08-16_08h37.55.516,HF_wild_card,2022.2.4,Win32,10.00040002,5ea0141f476817000946fdc5,64d2fd46c836a06233681665,64dc7cb512bc9838b71f2151,,,,,,,decisionTrl,resources/DG.BMP,resources/DR.BMP,Door4,0.347222222,-0.033333333,1,0,0,3.436,optionRight,60,13045,6,13,0,13,0,1,,,,,,,,,,,,,,,,,,,,,,,,,,,,,,,,,,,,,,,
,,,,,,,,2023-08-16_08h37.55.516,HF_wild_card,2022.2.4,Win32,10.00040002,5ea0141f476817000946fdc5,64d2fd46c836a06233681665,64dc7cb512bc9838b71f2151,,,,,,,decisionTrl,resources/DY.BMP,resources/DBN.BMP,Door1,0.314814815,-0.039814815,1,0,0,1.316,optionRight,30,13075,6,14,0,14,0,1,,,,,,,,,,,,,,,,,,,,,,,,,,,,,,,,,,,,,,,
,,,,,,,,2023-08-16_08h37.55.516,HF_wild_card,2022.2.4,Win32,10.00040002,5ea0141f476817000946fdc5,64d2fd46c836a06233681665,64dc7cb512bc9838b71f2151,,,,,,,ctch,resources/DR.BMP,resources/DBN.BMP,Door4,-0.385185185,-0.087962963,1,0,0,1.546,optionLeft,60,13135,6,15,0,15,0,1,,,,,,,,,,,,,,,,,,,,,,,,,,,,,,,,,,,,,,,
,,,,,,,,2023-08-16_08h37.55.516,HF_wild_card,2022.2.4,Win32,10.00040002,5ea0141f476817000946fdc5,64d2fd46c836a06233681665,64dc7cb512bc9838b71f2151,,,,,,,decisionTrl,resources/DBN.BMP,resources/DY.BMP,Door2,0.378703704,-0.083333333,1,0,0,2.158,optionRight,40,13175,6,16,0,16,0,1,,,,,,,,,,,,,,,,,,,,,,,,,,,,,,,,,,,,,,,
,,,,,,,,2023-08-16_08h37.55.516,HF_wild_card,2022.2.4,Win32,10.00040002,5ea0141f476817000946fdc5,64d2fd46c836a06233681665,64dc7cb512bc9838b71f2151,,,,,,,ctch,resources/DBN.BMP,resources/DR.BMP,Door4,0.336111111,-0.061111111,1,0,0,1.676,optionRight,80,13255,6,17,0,17,0,1,,,,,,,,,,,,,,,,,,,,,,,,,,,,,,,,,,,,,,,
,,,,,,,,2023-08-16_08h37.55.516,HF_wild_card,2022.2.4,Win32,10.00040002,5ea0141f476817000946fdc5,64d2fd46c836a06233681665,64dc7cb512bc9838b71f2151,,,,,,,decisionTrl,resources/DG.BMP,resources/DR.BMP,Door4,0.385185185,-0.051851852,1,0,0,1.201,optionRight,80,13335,6,18,0,18,0,1,,,,,,,,,,,,,,,,,,,,,,,,,,,,,,,,,,,,,,,
,,,,,,,,2023-08-16_08h37.55.516,HF_wild_card,2022.2.4,Win32,10.00040002,5ea0141f476817000946fdc5,64d2fd46c836a06233681665,64dc7cb512bc9838b71f2151,,,,,,,sngl,resources/DBN.BMP,resources/Empty.png,Door1,-0.175,-0.031481481,1,0,0,1.152,optionLeft,30,13365,6,19,0,19,0,1,,,,,,,,,,,,,,,,,,,,,,,,,,,,,,,,,,,,,,,
,,,,,,,,2023-08-16_08h37.55.516,HF_wild_card,2022.2.4,Win32,10.00040002,5ea0141f476817000946fdc5,64d2fd46c836a06233681665,64dc7cb512bc9838b71f2151,,,,,,,decisionTrl,resources/DG.BMP,resources/DR.BMP,Door4,0.372222222,-0.038888889,1,0,0,1.427,optionRight,80,13445,6,20,0,20,0,1,,,,,,,,,,,,,,,,,,,,,,,,,,,,,,,,,,,,,,,
,,,,,,,,2023-08-16_08h37.55.516,HF_wild_card,2022.2.4,Win32,10.00040002,5ea0141f476817000946fdc5,64d2fd46c836a06233681665,64dc7cb512bc9838b71f2151,,,,,,,sngl,resources/Empty.png,resources/DP.BMP,WildCard_Ex,0.343518519,-0.037037037,1,0,0,1.161,optionRight,55,13500,6,21,0,21,0,1,,,,,,,,,,,,,,,,,,,,,,,,,,,,,,,,,,,,,,,
,,,,,,,,2023-08-16_08h37.55.516,HF_wild_card,2022.2.4,Win32,10.00040002,5ea0141f476817000946fdc5,64d2fd46c836a06233681665,64dc7cb512bc9838b71f2151,,,,,,,sngl,resources/DR.BMP,resources/Empty.png,Door4,-0.192592593,-0.062962963,1,0,0,1.103,optionLeft,60,13560,6,22,0,22,0,1,,,,,,,,,,,,,,,,,,,,,,,,,,,,,,,,,,,,,,,
,,,,,,,,2023-08-16_08h37.55.516,HF_wild_card,2022.2.4,Win32,10.00040002,5ea0141f476817000946fdc5,64d2fd46c836a06233681665,64dc7cb512bc9838b71f2151,,,,,,,ctch,resources/DY.BMP,resources/DG.BMP,Door3,0.393518519,-0.046296296,1,0,0,1.264,optionRight,70,13630,6,23,0,23,0,1,,,,,,,,,,,,,,,,,,,,,,,,,,,,,,,,,,,,,,,
,,,,,,,,2023-08-16_08h37.55.516,HF_wild_card,2022.2.4,Win32,10.00040002,5ea0141f476817000946fdc5,64d2fd46c836a06233681665,64dc7cb512bc9838b71f2151,,,,,,,sngl,resources/Empty.png,resources/DR.BMP,Door4,0.271296296,-0.040740741,1,0,0,1.296,optionRight,80,13710,6,24,0,24,0,1,,,,,,,,,,,,,,,,,,,,,,,,,,,,,,,,,,,,,,,
,,,,,,,,2023-08-16_08h37.55.516,HF_wild_card,2022.2.4,Win32,10.00040002,5ea0141f476817000946fdc5,64d2fd46c836a06233681665,64dc7cb512bc9838b71f2151,,,,,,,decisionTrl,resources/DY.BMP,resources/DP.BMP,WildCard_Ex,0.308333333,-0.085185185,1,0,0,2.164,optionRight,55,13765,6,25,0,25,0,1,,,,,,,,,,,,,,,,,,,,,,,,,,,,,,,,,,,,,,,
,,,,,,,,2023-08-16_08h37.55.516,HF_wild_card,2022.2.4,Win32,10.00040002,5ea0141f476817000946fdc5,64d2fd46c836a06233681665,64dc7cb512bc9838b71f2151,,,,,,,decisionTrl,resources/DY.BMP,resources/DBN.BMP,Door2,-0.205555556,-0.087962963,1,0,0,2.47,optionLeft,40,13805,6,26,0,26,0,1,,,,,,,,,,,,,,,,,,,,,,,,,,,,,,,,,,,,,,,
,,,,,,,,2023-08-16_08h37.55.516,HF_wild_card,2022.2.4,Win32,10.00040002,5ea0141f476817000946fdc5,64d2fd46c836a06233681665,64dc7cb512bc9838b71f2151,,,,,,,sngl,resources/DG.BMP,resources/Empty.png,Door3,-0.271296296,-0.065740741,1,0,0,1.01,optionLeft,70,13875,6,27,0,27,0,1,,,,,,,,,,,,,,,,,,,,,,,,,,,,,,,,,,,,,,,
,,,,,,,,2023-08-16_08h37.55.516,HF_wild_card,2022.2.4,Win32,10.00040002,5ea0141f476817000946fdc5,64d2fd46c836a06233681665,64dc7cb512bc9838b71f2151,,,,,,,decisionTrl,resources/DR.BMP,resources/DP.BMP,Door4,-0.315740741,-0.078703704,1,0,0,1.257,optionLeft,80,13955,6,28,0,28,0,1,,,,,,,,,,,,,,,,,,,,,,,,,,,,,,,,,,,,,,,
,,,,,,,,2023-08-16_08h37.55.516,HF_wild_card,2022.2.4,Win32,10.00040002,5ea0141f476817000946fdc5,64d2fd46c836a06233681665,64dc7cb512bc9838b71f2151,,,,,,,decisionTrl,resources/DBN.BMP,resources/DY.BMP,Door2,0.375,-0.07962963,1,0,0,2.128,optionRight,40,13995,6,29,0,29,0,1,,,,,,,,,,,,,,,,,,,,,,,,,,,,,,,,,,,,,,,
,,,,,,,,2023-08-16_08h37.55.516,HF_wild_card,2022.2.4,Win32,10.00040002,5ea0141f476817000946fdc5,64d2fd46c836a06233681665,64dc7cb512bc9838b71f2151,,,,,,,decisionTrl,resources/DY.BMP,resources/DBN.BMP,Door2,-0.288888889,-0.078703704,1,0,0,1.305,optionLeft,40,14035,6,30,0,30,0,1,,,,,,,,,,,,,,,,,,,,,,,,,,,,,,,,,,,,,,,
,,,,,,,,2023-08-16_08h37.55.516,HF_wild_card,2022.2.4,Win32,10.00040002,5ea0141f476817000946fdc5,64d2fd46c836a06233681665,64dc7cb512bc9838b71f2151,,,,,,,decisionTrl,resources/DY.BMP,resources/DBN.BMP,Door2,-0.355555556,-0.087962963,1,0,0,1.285,optionLeft,40,14075,6,31,0,31,0,1,,,,,,,,,,,,,,,,,,,,,,,,,,,,,,,,,,,,,,,
,,,,,,,,2023-08-16_08h37.55.516,HF_wild_card,2022.2.4,Win32,10.00040002,5ea0141f476817000946fdc5,64d2fd46c836a06233681665,64dc7cb512bc9838b71f2151,,,,,,,sngl,resources/Empty.png,resources/DP.BMP,WildCard_Ex,0.262037037,-0.02962963,1,0,0,1.152,optionRight,45,14120,6,32,0,32,0,1,,,,,,,,,,,,,,,,,,,,,,,,,,,,,,,,,,,,,,,
,,,,,,,,2023-08-16_08h37.55.516,HF_wild_card,2022.2.4,Win32,10.00040002,5ea0141f476817000946fdc5,64d2fd46c836a06233681665,64dc7cb512bc9838b71f2151,,,,,,,ctch,resources/DY.BMP,resources/DG.BMP,Door3,0.30462963,-0.030555556,1,0,0,1.766,optionRight,70,14190,6,33,0,33,0,1,,,,,,,,,,,,,,,,,,,,,,,,,,,,,,,,,,,,,,,
,,,,,,,,2023-08-16_08h37.55.516,HF_wild_card,2022.2.4,Win32,10.00040002,5ea0141f476817000946fdc5,64d2fd46c836a06233681665,64dc7cb512bc9838b71f2151,,,,,,,ctch,resources/DBN.BMP,resources/DR.BMP,Door4,0.330555556,-0.060185185,1,0,0,1.766,optionRight,80,14270,6,34,0,34,0,1,,,,,,,,,,,,,,,,,,,,,,,,,,,,,,,,,,,,,,,
,,,,,,,,2023-08-16_08h37.55.516,HF_wild_card,2022.2.4,Win32,10.00040002,5ea0141f476817000946fdc5,64d2fd46c836a06233681665,64dc7cb512bc9838b71f2151,,,,,,,sngl,resources/Empty.png,resources/DBN.BMP,Door1,0.284259259,-0.030555556,1,0,0,1.117,optionRight,30,14300,6,35,0,35,0,1,,,,,,,,,,,,,,,,,,,,,,,,,,,,,,,,,,,,,,,
,,,,,,,,2023-08-16_08h37.55.516,HF_wild_card,2022.2.4,Win32,10.00040002,5ea0141f476817000946fdc5,64d2fd46c836a06233681665,64dc7cb512bc9838b71f2151,,,,,,,sngl,resources/Empty.png,resources/DG.BMP,Door3,0.311111111,-0.035185185,1,0,0,1.004,optionRight,70,14370,6,36,0,36,0,1,,,,,,,,,,,,,,,,,,,,,,,,,,,,,,,,,,,,,,,
,,,,,,,,2023-08-16_08h37.55.516,HF_wild_card,2022.2.4,Win32,10.00040002,5ea0141f476817000946fdc5,64d2fd46c836a06233681665,64dc7cb512bc9838b71f2151,,,,,,,decisionTrl,resources/DP.BMP,resources/DY.BMP,WildCard_Ex,-0.27962963,-0.075,1,0,0,2.206,optionLeft,45,14415,6,37,0,37,0,1,,,,,,,,,,,,,,,,,,,,,,,,,,,,,,,,,,,,,,,
,,,,,,,,2023-08-16_08h37.55.516,HF_wild_card,2022.2.4,Win32,10.00040002,5ea0141f476817000946fdc5,64d2fd46c836a06233681665,64dc7cb512bc9838b71f2151,,,,,,,decisionTrl,resources/DP.BMP,resources/DBN.BMP,WildCard_Ex,-0.299074074,-0.085185185,1,0,0,1.802,optionLeft,55,14470,6,38,0,38,0,1,,,,,,,,,,,,,,,,,,,,,,,,,,,,,,,,,,,,,,,
,,,,,,,,2023-08-16_08h37.55.516,HF_wild_card,2022.2.4,Win32,10.00040002,5ea0141f476817000946fdc5,64d2fd46c836a06233681665,64dc7cb512bc9838b71f2151,,,,,,,ctch,resources/DR.BMP,resources/DBN.BMP,Door4,-0.312962963,-0.077777778,1,0,0,1.883,optionLeft,80,14550,6,39,0,39,0,1,,,,,,,,,,,,,,,,,,,,,,,,,,,,,,,,,,,,,,,
,,,,,,,,2023-08-16_08h37.55.516,HF_wild_card,2022.2.4,Win32,10.00040002,5ea0141f476817000946fdc5,64d2fd46c836a06233681665,64dc7cb512bc9838b71f2151,,,,,,,sngl,resources/DY.BMP,resources/Empty.png,Door2,-0.27037037,-0.066666667,1,0,0,1.097,optionLeft,20,14570,6,40,0,40,0,1,,,,,,,,,,,,,,,,,,,,,,,,,,,,,,,,,,,,,,,
,,,,,,,,2023-08-16_08h37.55.516,HF_wild_card,2022.2.4,Win32,10.00040002,5ea0141f476817000946fdc5,64d2fd46c836a06233681665,64dc7cb512bc9838b71f2151,,,,,,,decisionTrl,resources/DBN.BMP,resources/DP.BMP,WildCard_Ex,0.339814815,-0.062962963,1,0,0,1.767,optionRight,45,14615,6,41,0,41,0,1,,,,,,,,,,,,,,,,,,,,,,,,,,,,,,,,,,,,,,,
,,,,,,,,2023-08-16_08h37.55.516,HF_wild_card,2022.2.4,Win32,10.00040002,5ea0141f476817000946fdc5,64d2fd46c836a06233681665,64dc7cb512bc9838b71f2151,,,,,,,decisionTrl,resources/DP.BMP,resources/DG.BMP,Door3,0.327777778,-0.050925926,1,0,0,1.565,optionRight,70,14685,6,42,0,42,0,1,,,,,,,,,,,,,,,,,,,,,,,,,,,,,,,,,,,,,,,
,,,,,,,,2023-08-16_08h37.55.516,HF_wild_card,2022.2.4,Win32,10.00040002,5ea0141f476817000946fdc5,64d2fd46c836a06233681665,64dc7cb512bc9838b71f2151,,,,,,,decisionTrl,resources/DBN.BMP,resources/DY.BMP,Door2,0.409259259,-0.044444444,1,0,0,2.033,optionRight,20,14705,6,43,0,43,0,1,,,,,,,,,,,,,,,,,,,,,,,,,,,,,,,,,,,,,,,
,,,,,,,,2023-08-16_08h37.55.516,HF_wild_card,2022.2.4,Win32,10.00040002,5ea0141f476817000946fdc5,64d2fd46c836a06233681665,64dc7cb512bc9838b71f2151,,,,,,,,,,,,,,,,,,,,,,,,,,5,0,5,0,1,,,,,,,,,,,,,,,,,,,,,,,,,,,,,,,,,,
,,,,,,,,2023-08-16_08h37.55.516,HF_wild_card,2022.2.4,Win32,10.00040002,5ea0141f476817000946fdc5,64d2fd46c836a06233681665,64dc7cb512bc9838b71f2151,,,,,,,decisionTrl,resources/DG.BMP,resources/DR.BMP,Door3,-0.289814815,-0.098148148,1,0,0,1.624,optionLeft,70,14775,7,0,0,0,0,1,,,,,,,,,,,,,,,,,,,,,,,,,,,,,,,,,,,,,,,
,,,,,,,,2023-08-16_08h37.55.516,HF_wild_card,2022.2.4,Win32,10.00040002,5ea0141f476817000946fdc5,64d2fd46c836a06233681665,64dc7cb512bc9838b71f2151,,,,,,,decisionTrl,resources/DG.BMP,resources/DR.BMP,Door3,-0.35,-0.075925926,1,0,0,2.55,optionLeft,70,14845,7,1,0,1,0,1,,,,,,,,,,,,,,,,,,,,,,,,,,,,,,,,,,,,,,,
,,,,,,,,2023-08-16_08h37.55.516,HF_wild_card,2022.2.4,Win32,10.00040002,5ea0141f476817000946fdc5,64d2fd46c836a06233681665,64dc7cb512bc9838b71f2151,,,,,,,decisionTrl,resources/DR.BMP,resources/DG.BMP,Door4,-0.346296296,-0.065740741,1,0,0,1.42,optionLeft,80,14925,7,2,0,2,0,1,,,,,,,,,,,,,,,,,,,,,,,,,,,,,,,,,,,,,,,
,,,,,,,,2023-08-16_08h37.55.516,HF_wild_card,2022.2.4,Win32,10.00040002,5ea0141f476817000946fdc5,64d2fd46c836a06233681665,64dc7cb512bc9838b71f2151,,,,,,,decisionTrl,resources/DBN.BMP,resources/DY.BMP,Door2,0.353703704,-0.112962963,1,0,0,3.42,optionRight,20,14945,7,3,0,3,0,1,,,,,,,,,,,,,,,,,,,,,,,,,,,,,,,,,,,,,,,
,,,,,,,,2023-08-16_08h37.55.516,HF_wild_card,2022.2.4,Win32,10.00040002,5ea0141f476817000946fdc5,64d2fd46c836a06233681665,64dc7cb512bc9838b71f2151,,,,,,,decisionTrl,resources/DBN.BMP,resources/DY.BMP,Door1,-0.335185185,-0.065740741,1,0,0,3.238,optionLeft,30,14975,7,4,0,4,0,1,,,,,,,,,,,,,,,,,,,,,,,,,,,,,,,,,,,,,,,
,,,,,,,,2023-08-16_08h37.55.516,HF_wild_card,2022.2.4,Win32,10.00040002,5ea0141f476817000946fdc5,64d2fd46c836a06233681665,64dc7cb512bc9838b71f2151,,,,,,,decisionTrl,resources/DR.BMP,resources/DG.BMP,Door4,-0.37037037,-0.055555556,1,0,0,1.492,optionLeft,80,15055,7,5,0,5,0,1,,,,,,,,,,,,,,,,,,,,,,,,,,,,,,,,,,,,,,,
,,,,,,,,2023-08-16_08h37.55.516,HF_wild_card,2022.2.4,Win32,10.00040002,5ea0141f476817000946fdc5,64d2fd46c836a06233681665,64dc7cb512bc9838b71f2151,,,,,,,decisionTrl,resources/DBN.BMP,resources/DY.BMP,Door2,0.337037037,-0.102777778,1,0,0,4.029,optionRight,40,15095,7,6,0,6,0,1,,,,,,,,,,,,,,,,,,,,,,,,,,,,,,,,,,,,,,,
,,,,,,,,2023-08-16_08h37.55.516,HF_wild_card,2022.2.4,Win32,10.00040002,5ea0141f476817000946fdc5,64d2fd46c836a06233681665,64dc7cb512bc9838b71f2151,,,,,,,ctch,resources/DY.BMP,resources/DG.BMP,Door3,0.337962963,-0.074074074,1,0,0,1.39,optionRight,70,15165,7,7,0,7,0,1,,,,,,,,,,,,,,,,,,,,,,,,,,,,,,,,,,,,,,,
,,,,,,,,2023-08-16_08h37.55.516,HF_wild_card,2022.2.4,Win32,10.00040002,5ea0141f476817000946fdc5,64d2fd46c836a06233681665,64dc7cb512bc9838b71f2151,,,,,,,ctch,resources/DG.BMP,resources/DY.BMP,Door3,-0.368518519,-0.061111111,1,0,0,1.05,optionLeft,70,15235,7,8,0,8,0,1,,,,,,,,,,,,,,,,,,,,,,,,,,,,,,,,,,,,,,,
,,,,,,,,2023-08-16_08h37.55.516,HF_wild_card,2022.2.4,Win32,10.00040002,5ea0141f476817000946fdc5,64d2fd46c836a06233681665,64dc7cb512bc9838b71f2151,,,,,,,decisionTrl,resources/DY.BMP,resources/DBN.BMP,Door2,-0.313888889,-0.068518519,1,0,0,2.395,optionLeft,20,15255,7,9,0,9,0,1,,,,,,,,,,,,,,,,,,,,,,,,,,,,,,,,,,,,,,,
,,,,,,,,2023-08-16_08h37.55.516,HF_wild_card,2022.2.4,Win32,10.00040002,5ea0141f476817000946fdc5,64d2fd46c836a06233681665,64dc7cb512bc9838b71f2151,,,,,,,ctch,resources/DR.BMP,resources/DBN.BMP,Door4,-0.374074074,-0.067592593,1,0,0,1.13,optionLeft,80,15335,7,10,0,10,0,1,,,,,,,,,,,,,,,,,,,,,,,,,,,,,,,,,,,,,,,
,,,,,,,,2023-08-16_08h37.55.516,HF_wild_card,2022.2.4,Win32,10.00040002,5ea0141f476817000946fdc5,64d2fd46c836a06233681665,64dc7cb512bc9838b71f2151,,,,,,,ctch,resources/DG.BMP,resources/DY.BMP,Door3,-0.358333333,-0.101851852,1,0,0,1.287,optionLeft,70,15405,7,11,0,11,0,1,,,,,,,,,,,,,,,,,,,,,,,,,,,,,,,,,,,,,,,
,,,,,,,,2023-08-16_08h37.55.516,HF_wild_card,2022.2.4,Win32,10.00040002,5ea0141f476817000946fdc5,64d2fd46c836a06233681665,64dc7cb512bc9838b71f2151,,,,,,,decisionTrl,resources/DY.BMP,resources/DBN.BMP,Door2,-0.306481481,-0.05,1,0,0,2.186,optionLeft,40,15445,7,12,0,12,0,1,,,,,,,,,,,,,,,,,,,,,,,,,,,,,,,,,,,,,,,
,,,,,,,,2023-08-16_08h37.55.516,HF_wild_card,2022.2.4,Win32,10.00040002,5ea0141f476817000946fdc5,64d2fd46c836a06233681665,64dc7cb512bc9838b71f2151,,,,,,,decisionTrl,resources/DG.BMP,resources/DR.BMP,Door4,0.376851852,-0.065740741,1,0,0,1.852,optionRight,60,15505,7,13,0,13,0,1,,,,,,,,,,,,,,,,,,,,,,,,,,,,,,,,,,,,,,,
,,,,,,,,2023-08-16_08h37.55.516,HF_wild_card,2022.2.4,Win32,10.00040002,5ea0141f476817000946fdc5,64d2fd46c836a06233681665,64dc7cb512bc9838b71f2151,,,,,,,decisionTrl,resources/DR.BMP,resources/DG.BMP,Door3,0.410185185,-0.101851852,1,0,0,3.735,optionRight,70,15575,7,14,0,14,0,1,,,,,,,,,,,,,,,,,,,,,,,,,,,,,,,,,,,,,,,
,,,,,,,,2023-08-16_08h37.55.516,HF_wild_card,2022.2.4,Win32,10.00040002,5ea0141f476817000946fdc5,64d2fd46c836a06233681665,64dc7cb512bc9838b71f2151,,,,,,,ctch,resources/DY.BMP,resources/DG.BMP,Door3,0.361111111,-0.046296296,1,0,0,1.464,optionRight,70,15645,7,15,0,15,0,1,,,,,,,,,,,,,,,,,,,,,,,,,,,,,,,,,,,,,,,
,,,,,,,,2023-08-16_08h37.55.516,HF_wild_card,2022.2.4,Win32,10.00040002,5ea0141f476817000946fdc5,64d2fd46c836a06233681665,64dc7cb512bc9838b71f2151,,,,,,,ctch,resources/DBN.BMP,resources/DR.BMP,Door4,0.390740741,-0.047222222,1,0,0,1.151,optionRight,80,15725,7,16,0,16,0,1,,,,,,,,,,,,,,,,,,,,,,,,,,,,,,,,,,,,,,,
,,,,,,,,2023-08-16_08h37.55.516,HF_wild_card,2022.2.4,Win32,10.00040002,5ea0141f476817000946fdc5,64d2fd46c836a06233681665,64dc7cb512bc9838b71f2151,,,,,,,ctch,resources/DR.BMP,resources/DBN.BMP,Door4,-0.322222222,-0.102777778,1,0,0,1.642,optionLeft,80,15805,7,17,0,17,0,1,,,,,,,,,,,,,,,,,,,,,,,,,,,,,,,,,,,,,,,
,,,,,,,,2023-08-16_08h37.55.516,HF_wild_card,2022.2.4,Win32,10.00040002,5ea0141f476817000946fdc5,64d2fd46c836a06233681665,64dc7cb512bc9838b71f2151,,,,,,,decisionTrl,resources/DY.BMP,resources/DBN.BMP,Door2,-0.373148148,-0.062962963,1,0,0,2.428,optionLeft,20,15825,7,18,0,18,0,1,,,,,,,,,,,,,,,,,,,,,,,,,,,,,,,,,,,,,,,
,,,,,,,,2023-08-16_08h37.55.516,HF_wild_card,2022.2.4,Win32,10.00040002,5ea0141f476817000946fdc5,64d2fd46c836a06233681665,64dc7cb512bc9838b71f2151,,,,,,,decisionTrl,resources/DG.BMP,resources/DR.BMP,Door4,0.4,-0.068518519,1,0,0,1.516,optionRight,80,15905,7,19,0,19,0,1,,,,,,,,,,,,,,,,,,,,,,,,,,,,,,,,,,,,,,,
,,,,,,,,2023-08-16_08h37.55.516,HF_wild_card,2022.2.4,Win32,10.00040002,5ea0141f476817000946fdc5,64d2fd46c836a06233681665,64dc7cb512bc9838b71f2151,,,,,,,decisionTrl,resources/DY.BMP,resources/DBN.BMP,Door2,-0.288888889,-0.075925926,1,0,0,2.296,optionLeft,40,15945,7,20,0,20,0,1,,,,,,,,,,,,,,,,,,,,,,,,,,,,,,,,,,,,,,,
,,,,,,,,2023-08-16_08h37.55.516,HF_wild_card,2022.2.4,Win32,10.00040002,5ea0141f476817000946fdc5,64d2fd46c836a06233681665,64dc7cb512bc9838b71f2151,,,,,,,decisionTrl,resources/DG.BMP,resources/DR.BMP,Door4,0.338888889,-0.073148148,1,0,0,2.152,optionRight,80,16025,7,21,0,21,0,1,,,,,,,,,,,,,,,,,,,,,,,,,,,,,,,,,,,,,,,
,,,,,,,,2023-08-16_08h37.55.516,HF_wild_card,2022.2.4,Win32,10.00040002,5ea0141f476817000946fdc5,64d2fd46c836a06233681665,64dc7cb512bc9838b71f2151,,,,,,,decisionTrl,resources/DR.BMP,resources/DG.BMP,Door3,0.355555556,-0.050925926,1,0,0,2.57,optionRight,70,16095,7,22,0,22,0,1,,,,,,,,,,,,,,,,,,,,,,,,,,,,,,,,,,,,,,,
,,,,,,,,2023-08-16_08h37.55.516,HF_wild_card,2022.2.4,Win32,10.00040002,5ea0141f476817000946fdc5,64d2fd46c836a06233681665,64dc7cb512bc9838b71f2151,,,,,,,ctch,resources/DR.BMP,resources/DBN.BMP,Door4,-0.363888889,-0.048148148,1,0,0,1.359,optionLeft,80,16175,7,23,0,23,0,1,,,,,,,,,,,,,,,,,,,,,,,,,,,,,,,,,,,,,,,
,,,,,,,,2023-08-16_08h37.55.516,HF_wild_card,2022.2.4,Win32,10.00040002,5ea0141f476817000946fdc5,64d2fd46c836a06233681665,64dc7cb512bc9838b71f2151,,,,,,,decisionTrl,resources/DBN.BMP,resources/DY.BMP,Door2,0.375,-0.064814815,1,0,0,2.345,optionRight,20,16195,7,24,0,24,0,1,,,,,,,,,,,,,,,,,,,,,,,,,,,,,,,,,,,,,,,
,,,,,,,,2023-08-16_08h37.55.516,HF_wild_card,2022.2.4,Win32,10.00040002,5ea0141f476817000946fdc5,64d2fd46c836a06233681665,64dc7cb512bc9838b71f2151,,,,,,,ctch,resources/DY.BMP,resources/DG.BMP,Door3,0.372222222,-0.04537037,1,0,0,1.624,optionRight,70,16265,7,25,0,25,0,1,,,,,,,,,,,,,,,,,,,,,,,,,,,,,,,,,,,,,,,
,,,,,,,,2023-08-16_08h37.55.516,HF_wild_card,2022.2.4,Win32,10.00040002,5ea0141f476817000946fdc5,64d2fd46c836a06233681665,64dc7cb512bc9838b71f2151,,,,,,,decisionTrl,resources/DBN.BMP,resources/DY.BMP,Door1,-0.275,-0.074074074,1,0,0,1.862,optionLeft,30,16295,7,26,0,26,0,1,,,,,,,,,,,,,,,,,,,,,,,,,,,,,,,,,,,,,,,
,,,,,,,,2023-08-16_08h37.55.516,HF_wild_card,2022.2.4,Win32,10.00040002,5ea0141f476817000946fdc5,64d2fd46c836a06233681665,64dc7cb512bc9838b71f2151,,,,,,,decisionTrl,resources/DY.BMP,resources/DBN.BMP,Door2,-0.273148148,-0.068518519,1,0,0,3.36,optionLeft,40,16335,7,27,0,27,0,1,,,,,,,,,,,,,,,,,,,,,,,,,,,,,,,,,,,,,,,
,,,,,,,,2023-08-16_08h37.55.516,HF_wild_card,2022.2.4,Win32,10.00040002,5ea0141f476817000946fdc5,64d2fd46c836a06233681665,64dc7cb512bc9838b71f2151,,,,,,,decisionTrl,resources/DBN.BMP,resources/DY.BMP,Door2,0.405555556,-0.057407407,1,0,0,1.717,optionRight,40,16375,7,28,0,28,0,1,,,,,,,,,,,,,,,,,,,,,,,,,,,,,,,,,,,,,,,
,,,,,,,,2023-08-16_08h37.55.516,HF_wild_card,2022.2.4,Win32,10.00040002,5ea0141f476817000946fdc5,64d2fd46c836a06233681665,64dc7cb512bc9838b71f2151,,,,,,,ctch,resources/DG.BMP,resources/DY.BMP,Door3,-0.34537037,-0.039814815,1,0,0,1.068,optionLeft,70,16445,7,29,0,29,0,1,,,,,,,,,,,,,,,,,,,,,,,,,,,,,,,,,,,,,,,
,,,,,,,,2023-08-16_08h37.55.516,HF_wild_card,2022.2.4,Win32,10.00040002,5ea0141f476817000946fdc5,64d2fd46c836a06233681665,64dc7cb512bc9838b71f2151,,,,,,,decisionTrl,resources/DR.BMP,resources/DG.BMP,Door4,-0.355555556,-0.062962963,1,0,0,1.776,optionLeft,80,16525,7,30,0,30,0,1,,,,,,,,,,,,,,,,,,,,,,,,,,,,,,,,,,,,,,,
,,,,,,,,2023-08-16_08h37.55.516,HF_wild_card,2022.2.4,Win32,10.00040002,5ea0141f476817000946fdc5,64d2fd46c836a06233681665,64dc7cb512bc9838b71f2151,,,,,,,decisionTrl,resources/DG.BMP,resources/DR.BMP,Door3,-0.319444444,-0.042592593,1,0,0,1.517,optionLeft,70,16595,7,31,0,31,0,1,,,,,,,,,,,,,,,,,,,,,,,,,,,,,,,,,,,,,,,
,,,,,,,,2023-08-16_08h37.55.516,HF_wild_card,2022.2.4,Win32,10.00040002,5ea0141f476817000946fdc5,64d2fd46c836a06233681665,64dc7cb512bc9838b71f2151,,,,,,,ctch,resources/DBN.BMP,resources/DR.BMP,Door4,0.319444444,-0.073148148,1,0,0,1.425,optionRight,60,16655,7,32,0,32,0,1,,,,,,,,,,,,,,,,,,,,,,,,,,,,,,,,,,,,,,,
,,,,,,,,2023-08-16_08h37.55.516,HF_wild_card,2022.2.4,Win32,10.00040002,5ea0141f476817000946fdc5,64d2fd46c836a06233681665,64dc7cb512bc9838b71f2151,,,,,,,decisionTrl,resources/DY.BMP,resources/DBN.BMP,Door2,-0.286111111,-0.057407407,1,0,0,1.852,optionLeft,20,16675,7,33,0,33,0,1,,,,,,,,,,,,,,,,,,,,,,,,,,,,,,,,,,,,,,,
,,,,,,,,2023-08-16_08h37.55.516,HF_wild_card,2022.2.4,Win32,10.00040002,5ea0141f476817000946fdc5,64d2fd46c836a06233681665,64dc7cb512bc9838b71f2151,,,,,,,decisionTrl,resources/DR.BMP,resources/DG.BMP,Door4,-0.336111111,-0.063888889,1,0,0,1.686,optionLeft,60,16735,7,34,0,34,0,1,,,,,,,,,,,,,,,,,,,,,,,,,,,,,,,,,,,,,,,
,,,,,,,,2023-08-16_08h37.55.516,HF_wild_card,2022.2.4,Win32,10.00040002,5ea0141f476817000946fdc5,64d2fd46c836a06233681665,64dc7cb512bc9838b71f2151,,,,,,,ctch,resources/DBN.BMP,resources/DR.BMP,Door4,0.323148148,-0.07037037,1,0,0,1.328,optionRight,80,16815,7,35,0,35,0,1,,,,,,,,,,,,,,,,,,,,,,,,,,,,,,,,,,,,,,,
,,,,,,,,2023-08-16_08h37.55.516,HF_wild_card,2022.2.4,Win32,10.00040002,5ea0141f476817000946fdc5,64d2fd46c836a06233681665,64dc7cb512bc9838b71f2151,,,,,,,,,,,,,,,,,,,,,,,,,,6,0,6,0,1,,,,,,,,,,,,,,,,,,,,,,,,,,,,,,,,,,
,,,,,,,,2023-08-16_08h37.55.516,HF_wild_card,2022.2.4,Win32,10.00040002,5ea0141f476817000946fdc5,64d2fd46c836a06233681665,64dc7cb512bc9838b71f2151,,,,,,,,,,,,,,,,,,,,,,,,,,,,,,,4,,,,,,,,,,,,,,,,,,,,,,,,,,,,,,,,,
,,,,,,,,2023-08-16_08h37.55.516,HF_wild_card,2022.2.4,Win32,10.00040002,5ea0141f476817000946fdc5,64d2fd46c836a06233681665,64dc7cb512bc9838b71f2151,,,,,,,,,,,,,,,,,,,,,,,,,,,,,,,,,,,,,,,,,,,,,,,,,,,,,,,,,,,,,,,,
,,,,,,,,2023-08-16_08h37.55.516,HF_wild_card,2022.2.4,Win32,10.00040002,5ea0141f476817000946fdc5,64d2fd46c836a06233681665,64dc7cb512bc9838b71f2151,,,,,,,,,,,,,,,,,,,,,,,,,,,,,,,,55,WC_extreme,resources/DP.BMP,0,0,0,0,1,,,,,,,,,,,,,,,,,,,,,,,,,
,,,,,,,,2023-08-16_08h37.55.516,HF_wild_card,2022.2.4,Win32,10.00040002,5ea0141f476817000946fdc5,64d2fd46c836a06233681665,64dc7cb512bc9838b71f2151,,,,,,,,,,,,,,,,,,,,,,,,,,,,,,,,40,Door2,resources/DY.BMP,1,0,1,0,1,,,,,,,,,,,,,,,,,,,,,,,,,
,,,,,,,,2023-08-16_08h37.55.516,HF_wild_card,2022.2.4,Win32,10.00040002,5ea0141f476817000946fdc5,64d2fd46c836a06233681665,64dc7cb512bc9838b71f2151,,,,,,,,,,,,,,,,,,,,,,,,,,,,,,,,70,Door3,resources/DG.BMP,2,0,2,0,1,,,,,,,,,,,,,,,,,,,,,,,,,
,,,,,,,,2023-08-16_08h37.55.516,HF_wild_card,2022.2.4,Win32,10.00040002,5ea0141f476817000946fdc5,64d2fd46c836a06233681665,64dc7cb512bc9838b71f2151,,,,,,,,,,,,,,,,,,,,,,,,,,,,,,,,30,Door1,resources/DBN.BMP,3,0,3,0,1,,,,,,,,,,,,,,,,,,,,,,,,,
,,,,,,,,2023-08-16_08h37.55.516,HF_wild_card,2022.2.4,Win32,10.00040002,5ea0141f476817000946fdc5,64d2fd46c836a06233681665,64dc7cb512bc9838b71f2151,,,,,,,,,,,,,,,,,,,,,,,,,,,,,,,,55,WC_nonExtreme,resources/DB.BMP,4,0,4,0,1,,,,,,,,,,,,,,,,,,,,,,,,,
,,,,,,,,2023-08-16_08h37.55.516,HF_wild_card,2022.2.4,Win32,10.00040002,5ea0141f476817000946fdc5,64d2fd46c836a06233681665,64dc7cb512bc9838b71f2151,,,,,,,,,,,,,,,,,,,,,,,,,,,,,,,,80,Door4,resources/DR.BMP,5,0,5,0,1,,,,,,,,,,,,,,,,,,,,,,,,,
,,,,,,,,2023-08-16_08h37.55.516,HF_wild_card,2022.2.4,Win32,10.00040002,5ea0141f476817000946fdc5,64d2fd46c836a06233681665,64dc7cb512bc9838b71f2151,,,,,,,,,,,,,,,,,,,,,,,,,,,,,,,,,,,,,,,,,,,,,,,,,,,,,,,,,,,,,,,,
,,,,,,,,2023-08-16_08h37.55.516,HF_wild_card,2022.2.4,Win32,10.00040002,5ea0141f476817000946fdc5,64d2fd46c836a06233681665,64dc7cb512bc9838b71f2151,,,,,,,,,,,,,,,,,,,,,,,,,,,,,,,,,,,,,,,,0,0,0,0,1,,,,,,,,,,,,,,,,,,,,
