Condition,Low fixed image (Door1),Low risky image (Door2),High fixed image (Door3),High risky image (Door4),NonExtreme Wild Card 1,NonExtreme Wild Card 2,,date,expName,psychopyVersion,OS,frameRate,PROLIFIC_PID,STUDY_ID,SESSION_ID,mouse_2.x,mouse_2.y,mouse_2.leftButton,mouse_2.midButton,mouse_2.rightButton,mouse_2.clicked_name,Trial Type,Left Option Image,Right Option Image,Chosen Door,mouse.x,mouse.y,mouse.leftButton,mouse.midButton,mouse.rightButton,mouse.time,mouse.clicked_name,Feedback,Cumulative Reward,Block,trial.thisRepN,trial.thisTrialN,trial.thisN,trial.thisIndex,trial.ran,blocks.thisRepN,blocks.thisTrialN,blocks.thisN,blocks.thisIndex,blocks.ran,Money conversion,First Outcome Reported,Shown Door (First Outcome),Displayed Image (First Outcome),outcomes.thisRepN,outcomes.thisTrialN,outcomes.thisN,outcomes.thisIndex,outcomes.ran,judgments.thisRepN,judgments.thisTrialN,judgments.thisN,judgments.thisIndex,judgments.ran,freqMouse.x,freqMouse.y,freqMouse.leftButton,freqMouse.midButton,freqMouse.rightButton,freqMouse.clicked_name,FQJ for first outcome,FQJ for second outcome,Shown Door,Displayed Image,trials.thisRepN,trials.thisTrialN,trials.thisN,trials.thisIndex,trials.ran,judgBlock.thisRepN,judgBlock.thisTrialN,judgBlock.thisN,judgBlock.thisIndex,judgBlock.ran
2,resources/DP.BMP,resources/DR.BMP,resources/DG.BMP,resources/DBN.BMP,resources/DB.BMP,resources/DY.BMP,,2023-08-16_08h51.05.748,HF_wild_card,2022.2.4,Win32,53.41024408,5cedaba627d8ce00018469bb,64d2fd46c836a06233681665,64dc7f88201c200f1b779dae,,,,,,,,,,,,,,,,,,,,,,,,,,,,,,,,,,,,,,,,,,,,,,,,,,,,,,,,,,,,,,,,
,,,,,,,,2023-08-16_08h51.05.748,HF_wild_card,2022.2.4,Win32,53.41024408,5cedaba627d8ce00018469bb,64d2fd46c836a06233681665,64dc7f88201c200f1b779dae,-0.00374347,-0.415364623,1,0,0,agree,,,,,,,,,,,,,,,,,,,,,,,,,,,,,,,,,,,,,,,,,,,,,,,,,,,,,,,,,,
,,,,,,,,2023-08-16_08h51.05.748,HF_wild_card,2022.2.4,Win32,53.41024408,5cedaba627d8ce00018469bb,64d2fd46c836a06233681665,64dc7f88201c200f1b779dae,,,,,,,,,,,,,,,,,,,,,,,,,,,,,,,,,,,,,,,,,,,,,,,,,,,,,,,,,,,,,,,,
,,,,,,,,2023-08-16_08h51.05.748,HF_wild_card,2022.2.4,Win32,53.41024408,5cedaba627d8ce00018469bb,64d2fd46c836a06233681665,64dc7f88201c200f1b779dae,,,,,,,decisionTrl,resources/DP.BMP,resources/DR.BMP,Door2,0.32438159,-0.09765625,1,0,0,5.035,optionRight,20,20,1,0,0,0,0,1,,,,,,,,,,,,,,,,,,,,,,,,,,,,,,,,,,,,,,,
,,,,,,,,2023-08-16_08h51.05.748,HF_wild_card,2022.2.4,Win32,53.41024408,5cedaba627d8ce00018469bb,64d2fd46c836a06233681665,64dc7f88201c200f1b779dae,,,,,,,decisionTrl,resources/DP.BMP,resources/DR.BMP,Door1,-0.287597656,-0.111979187,1,0,0,2.8575,optionLeft,30,50,1,1,0,1,0,1,,,,,,,,,,,,,,,,,,,,,,,,,,,,,,,,,,,,,,,
,,,,,,,,2023-08-16_08h51.05.748,HF_wild_card,2022.2.4,Win32,53.41024408,5cedaba627d8ce00018469bb,64d2fd46c836a06233681665,64dc7f88201c200f1b779dae,,,,,,,decisionTrl,resources/DR.BMP,resources/DP.BMP,Door2,-0.305826783,-0.05078125,1,0,0,4.1257,optionLeft,40,90,1,2,0,2,0,1,,,,,,,,,,,,,,,,,,,,,,,,,,,,,,,,,,,,,,,
,,,,,,,,2023-08-16_08h51.05.748,HF_wild_card,2022.2.4,Win32,53.41024408,5cedaba627d8ce00018469bb,64d2fd46c836a06233681665,64dc7f88201c200f1b779dae,,,,,,,decisionTrl,resources/DY.BMP,resources/DG.BMP,Door3,0.388183594,-0.040364623,1,0,0,3.0447,optionRight,70,160,1,3,0,3,0,1,,,,,,,,,,,,,,,,,,,,,,,,,,,,,,,,,,,,,,,
,,,,,,,,2023-08-16_08h51.05.748,HF_wild_card,2022.2.4,Win32,53.41024408,5cedaba627d8ce00018469bb,64d2fd46c836a06233681665,64dc7f88201c200f1b779dae,,,,,,,sngl,resources/DBN.BMP,resources/Empty.png,Door4,0.005371094,0.00390625,1,0,0,1.4665,optionLeft,80,240,1,4,0,4,0,1,,,,,,,,,,,,,,,,,,,,,,,,,,,,,,,,,,,,,,,
,,,,,,,,2023-08-16_08h51.05.748,HF_wild_card,2022.2.4,Win32,53.41024408,5cedaba627d8ce00018469bb,64d2fd46c836a06233681665,64dc7f88201c200f1b779dae,,,,,,,ctch,resources/DR.BMP,resources/DG.BMP,Door3,0.315266967,-0.028645873,1,0,0,4.2355,optionRight,70,310,1,5,0,5,0,1,,,,,,,,,,,,,,,,,,,,,,,,,,,,,,,,,,,,,,,
,,,,,,,,2023-08-16_08h51.05.748,HF_wild_card,2022.2.4,Win32,53.41024408,5cedaba627d8ce00018469bb,64d2fd46c836a06233681665,64dc7f88201c200f1b779dae,,,,,,,sngl,resources/DY.BMP,resources/Empty.png,WildCard_NonEx,-0.354003906,-0.05859375,1,0,0,0.8748,optionLeft,45,355,1,6,0,6,0,1,,,,,,,,,,,,,,,,,,,,,,,,,,,,,,,,,,,,,,,
,,,,,,,,2023-08-16_08h51.05.748,HF_wild_card,2022.2.4,Win32,53.41024408,5cedaba627d8ce00018469bb,64d2fd46c836a06233681665,64dc7f88201c200f1b779dae,,,,,,,decisionTrl,resources/DBN.BMP,resources/DG.BMP,Door3,0.45328784,-0.063802123,1,0,0,2.1475,optionRight,70,425,1,7,0,7,0,1,,,,,,,,,,,,,,,,,,,,,,,,,,,,,,,,,,,,,,,
,,,,,,,,2023-08-16_08h51.05.748,HF_wild_card,2022.2.4,Win32,53.41024408,5cedaba627d8ce00018469bb,64d2fd46c836a06233681665,64dc7f88201c200f1b779dae,,,,,,,decisionTrl,resources/DG.BMP,resources/DBN.BMP,Door4,0.278808594,-0.006510437,1,0,0,3.5205,optionRight,60,485,1,8,0,8,0,1,,,,,,,,,,,,,,,,,,,,,,,,,,,,,,,,,,,,,,,
,,,,,,,,2023-08-16_08h51.05.748,HF_wild_card,2022.2.4,Win32,53.41024408,5cedaba627d8ce00018469bb,64d2fd46c836a06233681665,64dc7f88201c200f1b779dae,,,,,,,decisionTrl,resources/DG.BMP,resources/DBN.BMP,Door3,-0.36311847,-0.044270873,1,0,0,4.486,optionLeft,70,555,1,9,0,9,0,1,,,,,,,,,,,,,,,,,,,,,,,,,,,,,,,,,,,,,,,
,,,,,,,,2023-08-16_08h51.05.748,HF_wild_card,2022.2.4,Win32,53.41024408,5cedaba627d8ce00018469bb,64d2fd46c836a06233681665,64dc7f88201c200f1b779dae,,,,,,,decisionTrl,resources/DP.BMP,resources/DY.BMP,WildCard_NonEx,0.27360034,-0.065104187,1,0,0,3.8227,optionRight,45,600,1,10,0,10,0,1,,,,,,,,,,,,,,,,,,,,,,,,,,,,,,,,,,,,,,,
,,,,,,,,2023-08-16_08h51.05.748,HF_wild_card,2022.2.4,Win32,53.41024408,5cedaba627d8ce00018469bb,64d2fd46c836a06233681665,64dc7f88201c200f1b779dae,,,,,,,decisionTrl,resources/DY.BMP,resources/DP.BMP,Door1,0.26188159,-0.07421875,1,0,0,1.4848,optionRight,30,630,1,11,0,11,0,1,,,,,,,,,,,,,,,,,,,,,,,,,,,,,,,,,,,,,,,
,,,,,,,,2023-08-16_08h51.05.748,HF_wild_card,2022.2.4,Win32,53.41024408,5cedaba627d8ce00018469bb,64d2fd46c836a06233681665,64dc7f88201c200f1b779dae,,,,,,,decisionTrl,resources/DR.BMP,resources/DP.BMP,Door1,0.376464844,-0.131510437,1,0,0,6.8611,optionRight,30,660,1,12,0,12,0,1,,,,,,,,,,,,,,,,,,,,,,,,,,,,,,,,,,,,,,,
,,,,,,,,2023-08-16_08h51.05.748,HF_wild_card,2022.2.4,Win32,53.41024408,5cedaba627d8ce00018469bb,64d2fd46c836a06233681665,64dc7f88201c200f1b779dae,,,,,,,decisionTrl,resources/DR.BMP,resources/DP.BMP,Door2,-0.360514283,-0.049479187,1,0,0,0.9344,optionLeft,40,700,1,13,0,13,0,1,,,,,,,,,,,,,,,,,,,,,,,,,,,,,,,,,,,,,,,
,,,,,,,,2023-08-16_08h51.05.748,HF_wild_card,2022.2.4,Win32,53.41024408,5cedaba627d8ce00018469bb,64d2fd46c836a06233681665,64dc7f88201c200f1b779dae,,,,,,,ctch,resources/DP.BMP,resources/DBN.BMP,Door1,-0.383951783,-0.028645873,1,0,0,2.583,optionLeft,30,730,1,14,0,14,0,1,,,,,,,,,,,,,,,,,,,,,,,,,,,,,,,,,,,,,,,
,,,,,,,,2023-08-16_08h51.05.748,HF_wild_card,2022.2.4,Win32,53.41024408,5cedaba627d8ce00018469bb,64d2fd46c836a06233681665,64dc7f88201c200f1b779dae,,,,,,,decisionTrl,resources/DP.BMP,resources/DR.BMP,Door1,-0.329264283,-0.065104187,1,0,0,2.2184,optionLeft,30,760,1,15,0,15,0,1,,,,,,,,,,,,,,,,,,,,,,,,,,,,,,,,,,,,,,,
,,,,,,,,2023-08-16_08h51.05.748,HF_wild_card,2022.2.4,Win32,53.41024408,5cedaba627d8ce00018469bb,64d2fd46c836a06233681665,64dc7f88201c200f1b779dae,,,,,,,sngl,resources/Empty.png,resources/DBN.BMP,Door4,0.30094409,-0.063802123,1,0,0,1.2079,optionRight,60,820,1,16,0,16,0,1,,,,,,,,,,,,,,,,,,,,,,,,,,,,,,,,,,,,,,,
,,,,,,,,2023-08-16_08h51.05.748,HF_wild_card,2022.2.4,Win32,53.41024408,5cedaba627d8ce00018469bb,64d2fd46c836a06233681665,64dc7f88201c200f1b779dae,,,,,,,sngl,resources/Empty.png,resources/DR.BMP,Door2,0.338704467,-0.1171875,1,0,0,1.0101,optionRight,20,840,1,17,0,17,0,1,,,,,,,,,,,,,,,,,,,,,,,,,,,,,,,,,,,,,,,
,,,,,,,,2023-08-16_08h51.05.748,HF_wild_card,2022.2.4,Win32,53.41024408,5cedaba627d8ce00018469bb,64d2fd46c836a06233681665,64dc7f88201c200f1b779dae,,,,,,,decisionTrl,resources/DBN.BMP,resources/DY.BMP,Door4,-0.317545533,-0.040364623,1,0,0,1.4865,optionLeft,60,900,1,18,0,18,0,1,,,,,,,,,,,,,,,,,,,,,,,,,,,,,,,,,,,,,,,
,,,,,,,,2023-08-16_08h51.05.748,HF_wild_card,2022.2.4,Win32,53.41024408,5cedaba627d8ce00018469bb,64d2fd46c836a06233681665,64dc7f88201c200f1b779dae,,,,,,,sngl,resources/DG.BMP,resources/Empty.png,Door3,-0.37874347,0.015625,1,0,0,0.7477,optionLeft,70,970,1,19,0,19,0,1,,,,,,,,,,,,,,,,,,,,,,,,,,,,,,,,,,,,,,,
,,,,,,,,2023-08-16_08h51.05.748,HF_wild_card,2022.2.4,Win32,53.41024408,5cedaba627d8ce00018469bb,64d2fd46c836a06233681665,64dc7f88201c200f1b779dae,,,,,,,sngl,resources/DR.BMP,resources/Empty.png,Door2,-0.340983033,-0.05859375,1,0,0,0.785,optionLeft,40,1010,1,20,0,20,0,1,,,,,,,,,,,,,,,,,,,,,,,,,,,,,,,,,,,,,,,
,,,,,,,,2023-08-16_08h51.05.748,HF_wild_card,2022.2.4,Win32,53.41024408,5cedaba627d8ce00018469bb,64d2fd46c836a06233681665,64dc7f88201c200f1b779dae,,,,,,,sngl,resources/DY.BMP,resources/Empty.png,WildCard_NonEx,-0.35139972,-0.076822937,1,0,0,0.7962,optionLeft,55,1065,1,21,0,21,0,1,,,,,,,,,,,,,,,,,,,,,,,,,,,,,,,,,,,,,,,
,,,,,,,,2023-08-16_08h51.05.748,HF_wild_card,2022.2.4,Win32,53.41024408,5cedaba627d8ce00018469bb,64d2fd46c836a06233681665,64dc7f88201c200f1b779dae,,,,,,,decisionTrl,resources/DY.BMP,resources/DBN.BMP,Door4,0.444173217,-0.029947937,1,0,0,1.7222,optionRight,60,1125,1,22,0,22,0,1,,,,,,,,,,,,,,,,,,,,,,,,,,,,,,,,,,,,,,,
,,,,,,,,2023-08-16_08h51.05.748,HF_wild_card,2022.2.4,Win32,53.41024408,5cedaba627d8ce00018469bb,64d2fd46c836a06233681665,64dc7f88201c200f1b779dae,,,,,,,ctch,resources/DP.BMP,resources/DBN.BMP,Door1,-0.408691406,-0.078125,1,0,0,3.2649,optionLeft,30,1155,1,23,0,23,0,1,,,,,,,,,,,,,,,,,,,,,,,,,,,,,,,,,,,,,,,
,,,,,,,,2023-08-16_08h51.05.748,HF_wild_card,2022.2.4,Win32,53.41024408,5cedaba627d8ce00018469bb,64d2fd46c836a06233681665,64dc7f88201c200f1b779dae,,,,,,,sngl,resources/Empty.png,resources/DP.BMP,Door1,0.342610717,-0.05078125,1,0,0,1.2657,optionRight,30,1185,1,24,0,24,0,1,,,,,,,,,,,,,,,,,,,,,,,,,,,,,,,,,,,,,,,
,,,,,,,,2023-08-16_08h51.05.748,HF_wild_card,2022.2.4,Win32,53.41024408,5cedaba627d8ce00018469bb,64d2fd46c836a06233681665,64dc7f88201c200f1b779dae,,,,,,,decisionTrl,resources/DG.BMP,resources/DBN.BMP,Door3,-0.346191406,-0.046875,1,0,0,1.8654,optionLeft,70,1255,1,25,0,25,0,1,,,,,,,,,,,,,,,,,,,,,,,,,,,,,,,,,,,,,,,
,,,,,,,,2023-08-16_08h51.05.748,HF_wild_card,2022.2.4,Win32,53.41024408,5cedaba627d8ce00018469bb,64d2fd46c836a06233681665,64dc7f88201c200f1b779dae,,,,,,,decisionTrl,resources/DR.BMP,resources/DY.BMP,Door2,-0.439941406,-0.0546875,1,0,0,1.3191,optionLeft,20,1275,1,26,0,26,0,1,,,,,,,,,,,,,,,,,,,,,,,,,,,,,,,,,,,,,,,
,,,,,,,,2023-08-16_08h51.05.748,HF_wild_card,2022.2.4,Win32,53.41024408,5cedaba627d8ce00018469bb,64d2fd46c836a06233681665,64dc7f88201c200f1b779dae,,,,,,,ctch,resources/DR.BMP,resources/DG.BMP,Door3,0.291829467,0.00390625,1,0,0,1.9787,optionRight,70,1345,1,27,0,27,0,1,,,,,,,,,,,,,,,,,,,,,,,,,,,,,,,,,,,,,,,
,,,,,,,,2023-08-16_08h51.05.748,HF_wild_card,2022.2.4,Win32,53.41024408,5cedaba627d8ce00018469bb,64d2fd46c836a06233681665,64dc7f88201c200f1b779dae,,,,,,,ctch,resources/DBN.BMP,resources/DP.BMP,Door4,-0.354003906,-0.059895873,1,0,0,1.9035,optionLeft,80,1425,1,28,0,28,0,1,,,,,,,,,,,,,,,,,,,,,,,,,,,,,,,,,,,,,,,
,,,,,,,,2023-08-16_08h51.05.748,HF_wild_card,2022.2.4,Win32,53.41024408,5cedaba627d8ce00018469bb,64d2fd46c836a06233681665,64dc7f88201c200f1b779dae,,,,,,,decisionTrl,resources/DR.BMP,resources/DP.BMP,Door2,-0.34749347,-0.044270873,1,0,0,2.6837,optionLeft,40,1465,1,29,0,29,0,1,,,,,,,,,,,,,,,,,,,,,,,,,,,,,,,,,,,,,,,
,,,,,,,,2023-08-16_08h51.05.748,HF_wild_card,2022.2.4,Win32,53.41024408,5cedaba627d8ce00018469bb,64d2fd46c836a06233681665,64dc7f88201c200f1b779dae,,,,,,,ctch,resources/DG.BMP,resources/DR.BMP,Door3,-0.393066406,-0.057291687,1,0,0,1.7127,optionLeft,70,1535,1,30,0,30,0,1,,,,,,,,,,,,,,,,,,,,,,,,,,,,,,,,,,,,,,,
,,,,,,,,2023-08-16_08h51.05.748,HF_wild_card,2022.2.4,Win32,53.41024408,5cedaba627d8ce00018469bb,64d2fd46c836a06233681665,64dc7f88201c200f1b779dae,,,,,,,decisionTrl,resources/DBN.BMP,resources/DG.BMP,Door4,-0.307128906,-0.015625,1,0,0,2.1146,optionLeft,60,1595,1,31,0,31,0,1,,,,,,,,,,,,,,,,,,,,,,,,,,,,,,,,,,,,,,,
,,,,,,,,2023-08-16_08h51.05.748,HF_wild_card,2022.2.4,Win32,53.41024408,5cedaba627d8ce00018469bb,64d2fd46c836a06233681665,64dc7f88201c200f1b779dae,,,,,,,decisionTrl,resources/DG.BMP,resources/DY.BMP,Door3,-0.270670533,-0.013020873,1,0,0,1.4343,optionLeft,70,1665,1,32,0,32,0,1,,,,,,,,,,,,,,,,,,,,,,,,,,,,,,,,,,,,,,,
,,,,,,,,2023-08-16_08h51.05.748,HF_wild_card,2022.2.4,Win32,53.41024408,5cedaba627d8ce00018469bb,64d2fd46c836a06233681665,64dc7f88201c200f1b779dae,,,,,,,decisionTrl,resources/DBN.BMP,resources/DG.BMP,Door3,0.334798217,-0.049479187,1,0,0,2.2094,optionRight,70,1735,1,33,0,33,0,1,,,,,,,,,,,,,,,,,,,,,,,,,,,,,,,,,,,,,,,
,,,,,,,,2023-08-16_08h51.05.748,HF_wild_card,2022.2.4,Win32,53.41024408,5cedaba627d8ce00018469bb,64d2fd46c836a06233681665,64dc7f88201c200f1b779dae,,,,,,,sngl,resources/DP.BMP,resources/Empty.png,Door1,-0.28499347,-0.032552123,1,0,0,0.8569,optionLeft,30,1765,1,34,0,34,0,1,,,,,,,,,,,,,,,,,,,,,,,,,,,,,,,,,,,,,,,
,,,,,,,,2023-08-16_08h51.05.748,HF_wild_card,2022.2.4,Win32,53.41024408,5cedaba627d8ce00018469bb,64d2fd46c836a06233681665,64dc7f88201c200f1b779dae,,,,,,,decisionTrl,resources/DG.BMP,resources/DBN.BMP,Door3,-0.213378906,-0.022135437,1,0,0,1.601,optionLeft,70,1835,1,35,0,35,0,1,,,,,,,,,,,,,,,,,,,,,,,,,,,,,,,,,,,,,,,
,,,,,,,,2023-08-16_08h51.05.748,HF_wild_card,2022.2.4,Win32,53.41024408,5cedaba627d8ce00018469bb,64d2fd46c836a06233681665,64dc7f88201c200f1b779dae,,,,,,,decisionTrl,resources/DBN.BMP,resources/DG.BMP,Door3,0.26578784,-0.053385437,1,0,0,1.0388,optionRight,70,1905,1,36,0,36,0,1,,,,,,,,,,,,,,,,,,,,,,,,,,,,,,,,,,,,,,,
,,,,,,,,2023-08-16_08h51.05.748,HF_wild_card,2022.2.4,Win32,53.41024408,5cedaba627d8ce00018469bb,64d2fd46c836a06233681665,64dc7f88201c200f1b779dae,,,,,,,ctch,resources/DG.BMP,resources/DR.BMP,Door3,-0.299316406,-0.083333373,1,0,0,0.861,optionLeft,70,1975,1,37,0,37,0,1,,,,,,,,,,,,,,,,,,,,,,,,,,,,,,,,,,,,,,,
,,,,,,,,2023-08-16_08h51.05.748,HF_wild_card,2022.2.4,Win32,53.41024408,5cedaba627d8ce00018469bb,64d2fd46c836a06233681665,64dc7f88201c200f1b779dae,,,,,,,sngl,resources/Empty.png,resources/DY.BMP,WildCard_NonEx,0.32438159,-0.065104187,1,0,0,0.8493,optionRight,55,2030,1,38,0,38,0,1,,,,,,,,,,,,,,,,,,,,,,,,,,,,,,,,,,,,,,,
,,,,,,,,2023-08-16_08h51.05.748,HF_wild_card,2022.2.4,Win32,53.41024408,5cedaba627d8ce00018469bb,64d2fd46c836a06233681665,64dc7f88201c200f1b779dae,,,,,,,ctch,resources/DBN.BMP,resources/DP.BMP,Door1,0.358235717,-0.12890625,1,0,0,2.1363,optionRight,30,2060,1,39,0,39,0,1,,,,,,,,,,,,,,,,,,,,,,,,,,,,,,,,,,,,,,,
,,,,,,,,2023-08-16_08h51.05.748,HF_wild_card,2022.2.4,Win32,53.41024408,5cedaba627d8ce00018469bb,64d2fd46c836a06233681665,64dc7f88201c200f1b779dae,,,,,,,sngl,resources/Empty.png,resources/DG.BMP,Door3,0.284016967,-0.0703125,1,0,0,0.807,optionRight,70,2130,1,40,0,40,0,1,,,,,,,,,,,,,,,,,,,,,,,,,,,,,,,,,,,,,,,
,,,,,,,,2023-08-16_08h51.05.748,HF_wild_card,2022.2.4,Win32,53.41024408,5cedaba627d8ce00018469bb,64d2fd46c836a06233681665,64dc7f88201c200f1b779dae,,,,,,,sngl,resources/Empty.png,resources/DY.BMP,WildCard_NonEx,0.291829467,-0.10546875,1,0,0,0.8058,optionRight,45,2175,1,41,0,41,0,1,,,,,,,,,,,,,,,,,,,,,,,,,,,,,,,,,,,,,,,
,,,,,,,,2023-08-16_08h51.05.748,HF_wild_card,2022.2.4,Win32,53.41024408,5cedaba627d8ce00018469bb,64d2fd46c836a06233681665,64dc7f88201c200f1b779dae,,,,,,,decisionTrl,resources/DP.BMP,resources/DR.BMP,Door1,-0.255045533,-0.075520873,1,0,0,3.2529,optionLeft,30,2205,1,42,0,42,0,1,,,,,,,,,,,,,,,,,,,,,,,,,,,,,,,,,,,,,,,
,,,,,,,,2023-08-16_08h51.05.748,HF_wild_card,2022.2.4,Win32,53.41024408,5cedaba627d8ce00018469bb,64d2fd46c836a06233681665,64dc7f88201c200f1b779dae,,,,,,,decisionTrl,resources/DY.BMP,resources/DR.BMP,WildCard_NonEx,-0.35530597,-0.126302123,1,0,0,1.8161,optionLeft,55,2260,1,43,0,43,0,1,,,,,,,,,,,,,,,,,,,,,,,,,,,,,,,,,,,,,,,
,,,,,,,,2023-08-16_08h51.05.748,HF_wild_card,2022.2.4,Win32,53.41024408,5cedaba627d8ce00018469bb,64d2fd46c836a06233681665,64dc7f88201c200f1b779dae,,,,,,,,,,,,,,,,,,,,,,,,,,0,0,0,0,1,,,,,,,,,,,,,,,,,,,,,,,,,,,,,,,,,,
,,,,,,,,2023-08-16_08h51.05.748,HF_wild_card,2022.2.4,Win32,53.41024408,5cedaba627d8ce00018469bb,64d2fd46c836a06233681665,64dc7f88201c200f1b779dae,,,,,,,decisionTrl,resources/DP.BMP,resources/DY.BMP,WildCard_NonEx,0.48844409,-0.032552123,1,0,0,1.6545,optionRight,45,2305,2,0,0,0,0,1,,,,,,,,,,,,,,,,,,,,,,,,,,,,,,,,,,,,,,,
,,,,,,,,2023-08-16_08h51.05.748,HF_wild_card,2022.2.4,Win32,53.41024408,5cedaba627d8ce00018469bb,64d2fd46c836a06233681665,64dc7f88201c200f1b779dae,,,,,,,decisionTrl,resources/DR.BMP,resources/DP.BMP,Door2,-0.271972656,-0.09375,1,0,0,3.7711,optionLeft,40,2345,2,1,0,1,0,1,,,,,,,,,,,,,,,,,,,,,,,,,,,,,,,,,,,,,,,
,,,,,,,,2023-08-16_08h51.05.748,HF_wild_card,2022.2.4,Win32,53.41024408,5cedaba627d8ce00018469bb,64d2fd46c836a06233681665,64dc7f88201c200f1b779dae,,,,,,,ctch,resources/DP.BMP,resources/DBN.BMP,Door4,0.32828784,-0.029947937,1,0,0,4.3304,optionRight,80,2425,2,2,0,2,0,1,,,,,,,,,,,,,,,,,,,,,,,,,,,,,,,,,,,,,,,
,,,,,,,,2023-08-16_08h51.05.748,HF_wild_card,2022.2.4,Win32,53.41024408,5cedaba627d8ce00018469bb,64d2fd46c836a06233681665,64dc7f88201c200f1b779dae,,,,,,,sngl,resources/Empty.png,resources/DP.BMP,Door1,0.341308594,-0.02734375,1,0,0,10.4214,optionRight,30,2455,2,3,0,3,0,1,,,,,,,,,,,,,,,,,,,,,,,,,,,,,,,,,,,,,,,
,,,,,,,,2023-08-16_08h51.05.748,HF_wild_card,2022.2.4,Win32,53.41024408,5cedaba627d8ce00018469bb,64d2fd46c836a06233681665,64dc7f88201c200f1b779dae,,,,,,,decisionTrl,resources/DP.BMP,resources/DR.BMP,Door2,0.278808594,-0.048177123,1,0,0,2.4111,optionRight,40,2495,2,4,0,4,0,1,,,,,,,,,,,,,,,,,,,,,,,,,,,,,,,,,,,,,,,
,,,,,,,,2023-08-16_08h51.05.748,HF_wild_card,2022.2.4,Win32,53.41024408,5cedaba627d8ce00018469bb,64d2fd46c836a06233681665,64dc7f88201c200f1b779dae,,,,,,,sngl,resources/Empty.png,resources/DR.BMP,Door2,0.35953784,-0.01953125,1,0,0,8.5454,optionRight,40,2535,2,5,0,5,0,1,,,,,,,,,,,,,,,,,,,,,,,,,,,,,,,,,,,,,,,
,,,,,,,,2023-08-16_08h51.05.748,HF_wild_card,2022.2.4,Win32,53.41024408,5cedaba627d8ce00018469bb,64d2fd46c836a06233681665,64dc7f88201c200f1b779dae,,,,,,,ctch,resources/DR.BMP,resources/DG.BMP,Door3,0.44938159,0.001302063,1,0,0,1.6616,optionRight,70,2605,2,6,0,6,0,1,,,,,,,,,,,,,,,,,,,,,,,,,,,,,,,,,,,,,,,
,,,,,,,,2023-08-16_08h51.05.748,HF_wild_card,2022.2.4,Win32,53.41024408,5cedaba627d8ce00018469bb,64d2fd46c836a06233681665,64dc7f88201c200f1b779dae,,,,,,,ctch,resources/DG.BMP,resources/DR.BMP,Door3,-0.34749347,-0.0625,1,0,0,1.0805,optionLeft,70,2675,2,7,0,7,0,1,,,,,,,,,,,,,,,,,,,,,,,,,,,,,,,,,,,,,,,
,,,,,,,,2023-08-16_08h51.05.748,HF_wild_card,2022.2.4,Win32,53.41024408,5cedaba627d8ce00018469bb,64d2fd46c836a06233681665,64dc7f88201c200f1b779dae,,,,,,,decisionTrl,resources/DR.BMP,resources/DP.BMP,Door2,-0.342285156,-0.024739623,1,0,0,1.3319,optionLeft,40,2715,2,8,0,8,0,1,,,,,,,,,,,,,,,,,,,,,,,,,,,,,,,,,,,,,,,
,,,,,,,,2023-08-16_08h51.05.748,HF_wild_card,2022.2.4,Win32,53.41024408,5cedaba627d8ce00018469bb,64d2fd46c836a06233681665,64dc7f88201c200f1b779dae,,,,,,,decisionTrl,resources/DG.BMP,resources/DBN.BMP,Door4,0.419433594,-0.022135437,1,0,0,1.2348,optionRight,60,2775,2,9,0,9,0,1,,,,,,,,,,,,,,,,,,,,,,,,,,,,,,,,,,,,,,,
,,,,,,,,2023-08-16_08h51.05.748,HF_wild_card,2022.2.4,Win32,53.41024408,5cedaba627d8ce00018469bb,64d2fd46c836a06233681665,64dc7f88201c200f1b779dae,,,,,,,decisionTrl,resources/DBN.BMP,resources/DG.BMP,Door3,0.333496094,-0.075520873,1,0,0,2.9798,optionRight,70,2845,2,10,0,10,0,1,,,,,,,,,,,,,,,,,,,,,,,,,,,,,,,,,,,,,,,
,,,,,,,,2023-08-16_08h51.05.748,HF_wild_card,2022.2.4,Win32,53.41024408,5cedaba627d8ce00018469bb,64d2fd46c836a06233681665,64dc7f88201c200f1b779dae,,,,,,,ctch,resources/DBN.BMP,resources/DP.BMP,Door4,-0.31233722,-0.024739623,1,0,0,1.4332,optionLeft,80,2925,2,11,0,11,0,1,,,,,,,,,,,,,,,,,,,,,,,,,,,,,,,,,,,,,,,
,,,,,,,,2023-08-16_08h51.05.748,HF_wild_card,2022.2.4,Win32,53.41024408,5cedaba627d8ce00018469bb,64d2fd46c836a06233681665,64dc7f88201c200f1b779dae,,,,,,,decisionTrl,resources/DBN.BMP,resources/DG.BMP,Door4,-0.365722656,-0.083333373,1,0,0,1.1396,optionLeft,80,3005,2,12,0,12,0,1,,,,,,,,,,,,,,,,,,,,,,,,,,,,,,,,,,,,,,,
,,,,,,,,2023-08-16_08h51.05.748,HF_wild_card,2022.2.4,Win32,53.41024408,5cedaba627d8ce00018469bb,64d2fd46c836a06233681665,64dc7f88201c200f1b779dae,,,,,,,sngl,resources/Empty.png,resources/DG.BMP,Door3,0.423339844,0.0234375,1,0,0,1.1762,optionRight,70,3075,2,13,0,13,0,1,,,,,,,,,,,,,,,,,,,,,,,,,,,,,,,,,,,,,,,
,,,,,,,,2023-08-16_08h51.05.748,HF_wild_card,2022.2.4,Win32,53.41024408,5cedaba627d8ce00018469bb,64d2fd46c836a06233681665,64dc7f88201c200f1b779dae,,,,,,,decisionTrl,resources/DBN.BMP,resources/DG.BMP,Door4,-0.387858033,-0.024739623,1,0,0,0.932,optionLeft,80,3155,2,14,0,14,0,1,,,,,,,,,,,,,,,,,,,,,,,,,,,,,,,,,,,,,,,
,,,,,,,,2023-08-16_08h51.05.748,HF_wild_card,2022.2.4,Win32,53.41024408,5cedaba627d8ce00018469bb,64d2fd46c836a06233681665,64dc7f88201c200f1b779dae,,,,,,,decisionTrl,resources/DR.BMP,resources/DY.BMP,Door2,-0.357910156,-0.03515625,1,0,0,1.4865,optionLeft,40,3195,2,15,0,15,0,1,,,,,,,,,,,,,,,,,,,,,,,,,,,,,,,,,,,,,,,
,,,,,,,,2023-08-16_08h51.05.748,HF_wild_card,2022.2.4,Win32,53.41024408,5cedaba627d8ce00018469bb,64d2fd46c836a06233681665,64dc7f88201c200f1b779dae,,,,,,,decisionTrl,resources/DG.BMP,resources/DBN.BMP,Door4,0.299641967,0.037760407,1,0,0,1.4287,optionRight,80,3275,2,16,0,16,0,1,,,,,,,,,,,,,,,,,,,,,,,,,,,,,,,,,,,,,,,
,,,,,,,,2023-08-16_08h51.05.748,HF_wild_card,2022.2.4,Win32,53.41024408,5cedaba627d8ce00018469bb,64d2fd46c836a06233681665,64dc7f88201c200f1b779dae,,,,,,,sngl,resources/DY.BMP,resources/Empty.png,WildCard_NonEx,-0.271972656,-0.032552123,1,0,0,0.8831,optionLeft,45,3320,2,17,0,17,0,1,,,,,,,,,,,,,,,,,,,,,,,,,,,,,,,,,,,,,,,
,,,,,,,,2023-08-16_08h51.05.748,HF_wild_card,2022.2.4,Win32,53.41024408,5cedaba627d8ce00018469bb,64d2fd46c836a06233681665,64dc7f88201c200f1b779dae,,,,,,,decisionTrl,resources/DY.BMP,resources/DR.BMP,WildCard_NonEx,-0.38264972,-0.045572937,1,0,0,1.3379,optionLeft,55,3375,2,18,0,18,0,1,,,,,,,,,,,,,,,,,,,,,,,,,,,,,,,,,,,,,,,
,,,,,,,,2023-08-16_08h51.05.748,HF_wild_card,2022.2.4,Win32,53.41024408,5cedaba627d8ce00018469bb,64d2fd46c836a06233681665,64dc7f88201c200f1b779dae,,,,,,,decisionTrl,resources/DR.BMP,resources/DP.BMP,Door2,-0.352701783,0.002604157,1,0,0,2.2049,optionLeft,20,3395,2,19,0,19,0,1,,,,,,,,,,,,,,,,,,,,,,,,,,,,,,,,,,,,,,,
,,,,,,,,2023-08-16_08h51.05.748,HF_wild_card,2022.2.4,Win32,53.41024408,5cedaba627d8ce00018469bb,64d2fd46c836a06233681665,64dc7f88201c200f1b779dae,,,,,,,ctch,resources/DR.BMP,resources/DG.BMP,Door3,0.38688159,0.014322907,1,0,0,1.157,optionRight,70,3465,2,20,0,20,0,1,,,,,,,,,,,,,,,,,,,,,,,,,,,,,,,,,,,,,,,
,,,,,,,,2023-08-16_08h51.05.748,HF_wild_card,2022.2.4,Win32,53.41024408,5cedaba627d8ce00018469bb,64d2fd46c836a06233681665,64dc7f88201c200f1b779dae,,,,,,,decisionTrl,resources/DBN.BMP,resources/DY.BMP,Door4,-0.43343097,-0.044270873,1,0,0,1.1862,optionLeft,60,3525,2,21,0,21,0,1,,,,,,,,,,,,,,,,,,,,,,,,,,,,,,,,,,,,,,,
,,,,,,,,2023-08-16_08h51.05.748,HF_wild_card,2022.2.4,Win32,53.41024408,5cedaba627d8ce00018469bb,64d2fd46c836a06233681665,64dc7f88201c200f1b779dae,,,,,,,ctch,resources/DG.BMP,resources/DR.BMP,Door3,-0.32014972,-0.001302123,1,0,0,1.3732,optionLeft,70,3595,2,22,0,22,0,1,,,,,,,,,,,,,,,,,,,,,,,,,,,,,,,,,,,,,,,
,,,,,,,,2023-08-16_08h51.05.748,HF_wild_card,2022.2.4,Win32,53.41024408,5cedaba627d8ce00018469bb,64d2fd46c836a06233681665,64dc7f88201c200f1b779dae,,,,,,,decisionTrl,resources/DP.BMP,resources/DR.BMP,Door2,0.362141967,-0.045572937,1,0,0,2.4284,optionRight,20,3615,2,23,0,23,0,1,,,,,,,,,,,,,,,,,,,,,,,,,,,,,,,,,,,,,,,
,,,,,,,,2023-08-16_08h51.05.748,HF_wild_card,2022.2.4,Win32,53.41024408,5cedaba627d8ce00018469bb,64d2fd46c836a06233681665,64dc7f88201c200f1b779dae,,,,,,,sngl,resources/DR.BMP,resources/Empty.png,Door2,-0.364420533,-0.02734375,1,0,0,0.9734,optionLeft,20,3635,2,24,0,24,0,1,,,,,,,,,,,,,,,,,,,,,,,,,,,,,,,,,,,,,,,
,,,,,,,,2023-08-16_08h51.05.748,HF_wild_card,2022.2.4,Win32,53.41024408,5cedaba627d8ce00018469bb,64d2fd46c836a06233681665,64dc7f88201c200f1b779dae,,,,,,,sngl,resources/Empty.png,resources/DBN.BMP,Door4,0.31656909,0.046875,1,0,0,0.8821,optionRight,80,3715,2,25,0,25,0,1,,,,,,,,,,,,,,,,,,,,,,,,,,,,,,,,,,,,,,,
,,,,,,,,2023-08-16_08h51.05.748,HF_wild_card,2022.2.4,Win32,53.41024408,5cedaba627d8ce00018469bb,64d2fd46c836a06233681665,64dc7f88201c200f1b779dae,,,,,,,sngl,resources/DY.BMP,resources/Empty.png,WildCard_NonEx,-0.248535156,-0.036458373,1,0,0,0.8205,optionLeft,55,3770,2,26,0,26,0,1,,,,,,,,,,,,,,,,,,,,,,,,,,,,,,,,,,,,,,,
,,,,,,,,2023-08-16_08h51.05.748,HF_wild_card,2022.2.4,Win32,53.41024408,5cedaba627d8ce00018469bb,64d2fd46c836a06233681665,64dc7f88201c200f1b779dae,,,,,,,decisionTrl,resources/DG.BMP,resources/DBN.BMP,Door4,0.337402344,-0.013020873,1,0,0,1.2742,optionRight,80,3850,2,27,0,27,0,1,,,,,,,,,,,,,,,,,,,,,,,,,,,,,,,,,,,,,,,
,,,,,,,,2023-08-16_08h51.05.748,HF_wild_card,2022.2.4,Win32,53.41024408,5cedaba627d8ce00018469bb,64d2fd46c836a06233681665,64dc7f88201c200f1b779dae,,,,,,,decisionTrl,resources/DR.BMP,resources/DP.BMP,Door1,0.36735034,-0.067708373,1,0,0,4.4263,optionRight,30,3880,2,28,0,28,0,1,,,,,,,,,,,,,,,,,,,,,,,,,,,,,,,,,,,,,,,
,,,,,,,,2023-08-16_08h51.05.748,HF_wild_card,2022.2.4,Win32,53.41024408,5cedaba627d8ce00018469bb,64d2fd46c836a06233681665,64dc7f88201c200f1b779dae,,,,,,,sngl,resources/Empty.png,resources/DY.BMP,WildCard_NonEx,0.356933594,0.009114563,1,0,0,0.9118,optionRight,45,3925,2,29,0,29,0,1,,,,,,,,,,,,,,,,,,,,,,,,,,,,,,,,,,,,,,,
,,,,,,,,2023-08-16_08h51.05.748,HF_wild_card,2022.2.4,Win32,53.41024408,5cedaba627d8ce00018469bb,64d2fd46c836a06233681665,64dc7f88201c200f1b779dae,,,,,,,decisionTrl,resources/DBN.BMP,resources/DG.BMP,Door4,-0.369628906,-0.001302123,1,0,0,2.2488,optionLeft,60,3985,2,30,0,30,0,1,,,,,,,,,,,,,,,,,,,,,,,,,,,,,,,,,,,,,,,
,,,,,,,,2023-08-16_08h51.05.748,HF_wild_card,2022.2.4,Win32,53.41024408,5cedaba627d8ce00018469bb,64d2fd46c836a06233681665,64dc7f88201c200f1b779dae,,,,,,,decisionTrl,resources/DY.BMP,resources/DBN.BMP,Door4,0.385579467,0.010416657,1,0,0,1.64,optionRight,80,4065,2,31,0,31,0,1,,,,,,,,,,,,,,,,,,,,,,,,,,,,,,,,,,,,,,,
,,,,,,,,2023-08-16_08h51.05.748,HF_wild_card,2022.2.4,Win32,53.41024408,5cedaba627d8ce00018469bb,64d2fd46c836a06233681665,64dc7f88201c200f1b779dae,,,,,,,sngl,resources/DP.BMP,resources/Empty.png,Door1,-0.318847656,-0.022135437,1,0,0,0.8501,optionLeft,30,4095,2,32,0,32,0,1,,,,,,,,,,,,,,,,,,,,,,,,,,,,,,,,,,,,,,,
,,,,,,,,2023-08-16_08h51.05.748,HF_wild_card,2022.2.4,Win32,53.41024408,5cedaba627d8ce00018469bb,64d2fd46c836a06233681665,64dc7f88201c200f1b779dae,,,,,,,decisionTrl,resources/DP.BMP,resources/DR.BMP,Door2,0.40641284,-0.009114623,1,0,0,5.4058,optionRight,20,4115,2,33,0,33,0,1,,,,,,,,,,,,,,,,,,,,,,,,,,,,,,,,,,,,,,,
,,,,,,,,2023-08-16_08h51.05.748,HF_wild_card,2022.2.4,Win32,53.41024408,5cedaba627d8ce00018469bb,64d2fd46c836a06233681665,64dc7f88201c200f1b779dae,,,,,,,decisionTrl,resources/DY.BMP,resources/DP.BMP,WildCard_NonEx,-0.301920533,-0.09375,1,0,0,1.6066,optionLeft,55,4170,2,34,0,34,0,1,,,,,,,,,,,,,,,,,,,,,,,,,,,,,,,,,,,,,,,
,,,,,,,,2023-08-16_08h51.05.748,HF_wild_card,2022.2.4,Win32,53.41024408,5cedaba627d8ce00018469bb,64d2fd46c836a06233681665,64dc7f88201c200f1b779dae,,,,,,,decisionTrl,resources/DG.BMP,resources/DBN.BMP,Door4,0.364746094,0.016927063,1,0,0,1.2594,optionRight,80,4250,2,35,0,35,0,1,,,,,,,,,,,,,,,,,,,,,,,,,,,,,,,,,,,,,,,
,,,,,,,,2023-08-16_08h51.05.748,HF_wild_card,2022.2.4,Win32,53.41024408,5cedaba627d8ce00018469bb,64d2fd46c836a06233681665,64dc7f88201c200f1b779dae,,,,,,,decisionTrl,resources/DP.BMP,resources/DR.BMP,Door1,-0.396972656,-0.0703125,1,0,0,2.4269,optionLeft,30,4280,2,36,0,36,0,1,,,,,,,,,,,,,,,,,,,,,,,,,,,,,,,,,,,,,,,
,,,,,,,,2023-08-16_08h51.05.748,HF_wild_card,2022.2.4,Win32,53.41024408,5cedaba627d8ce00018469bb,64d2fd46c836a06233681665,64dc7f88201c200f1b779dae,,,,,,,sngl,resources/DBN.BMP,resources/Empty.png,Door4,-0.31624347,-0.032552123,1,0,0,0.8318,optionLeft,60,4340,2,37,0,37,0,1,,,,,,,,,,,,,,,,,,,,,,,,,,,,,,,,,,,,,,,
,,,,,,,,2023-08-16_08h51.05.748,HF_wild_card,2022.2.4,Win32,53.41024408,5cedaba627d8ce00018469bb,64d2fd46c836a06233681665,64dc7f88201c200f1b779dae,,,,,,,ctch,resources/DP.BMP,resources/DBN.BMP,Door4,0.290527344,0.002604157,1,0,0,2.3677,optionRight,60,4400,2,38,0,38,0,1,,,,,,,,,,,,,,,,,,,,,,,,,,,,,,,,,,,,,,,
,,,,,,,,2023-08-16_08h51.05.748,HF_wild_card,2022.2.4,Win32,53.41024408,5cedaba627d8ce00018469bb,64d2fd46c836a06233681665,64dc7f88201c200f1b779dae,,,,,,,decisionTrl,resources/DG.BMP,resources/DY.BMP,Door3,-0.298014283,0.002604157,1,0,0,1.4319,optionLeft,70,4470,2,39,0,39,0,1,,,,,,,,,,,,,,,,,,,,,,,,,,,,,,,,,,,,,,,
,,,,,,,,2023-08-16_08h51.05.748,HF_wild_card,2022.2.4,Win32,53.41024408,5cedaba627d8ce00018469bb,64d2fd46c836a06233681665,64dc7f88201c200f1b779dae,,,,,,,sngl,resources/DG.BMP,resources/Empty.png,Door3,-0.31624347,-0.016927123,1,0,0,0.8598,optionLeft,70,4540,2,40,0,40,0,1,,,,,,,,,,,,,,,,,,,,,,,,,,,,,,,,,,,,,,,
,,,,,,,,2023-08-16_08h51.05.748,HF_wild_card,2022.2.4,Win32,53.41024408,5cedaba627d8ce00018469bb,64d2fd46c836a06233681665,64dc7f88201c200f1b779dae,,,,,,,sngl,resources/Empty.png,resources/DY.BMP,WildCard_NonEx,0.291829467,0.005208313,1,0,0,1.4383,optionRight,55,4595,2,41,0,41,0,1,,,,,,,,,,,,,,,,,,,,,,,,,,,,,,,,,,,,,,,
,,,,,,,,2023-08-16_08h51.05.748,HF_wild_card,2022.2.4,Win32,53.41024408,5cedaba627d8ce00018469bb,64d2fd46c836a06233681665,64dc7f88201c200f1b779dae,,,,,,,ctch,resources/DBN.BMP,resources/DP.BMP,Door4,-0.25764972,-0.009114623,1,0,0,1.2602,optionLeft,60,4655,2,42,0,42,0,1,,,,,,,,,,,,,,,,,,,,,,,,,,,,,,,,,,,,,,,
,,,,,,,,2023-08-16_08h51.05.748,HF_wild_card,2022.2.4,Win32,53.41024408,5cedaba627d8ce00018469bb,64d2fd46c836a06233681665,64dc7f88201c200f1b779dae,,,,,,,decisionTrl,resources/DY.BMP,resources/DG.BMP,Door3,0.337402344,0.01171875,1,0,0,1.1487,optionRight,70,4725,2,43,0,43,0,1,,,,,,,,,,,,,,,,,,,,,,,,,,,,,,,,,,,,,,,
,,,,,,,,2023-08-16_08h51.05.748,HF_wild_card,2022.2.4,Win32,53.41024408,5cedaba627d8ce00018469bb,64d2fd46c836a06233681665,64dc7f88201c200f1b779dae,,,,,,,,,,,,,,,,,,,,,,,,,,1,0,1,0,1,,,,,,,,,,,,,,,,,,,,,,,,,,,,,,,,,,
,,,,,,,,2023-08-16_08h51.05.748,HF_wild_card,2022.2.4,Win32,53.41024408,5cedaba627d8ce00018469bb,64d2fd46c836a06233681665,64dc7f88201c200f1b779dae,,,,,,,decisionTrl,resources/DG.BMP,resources/DBN.BMP,Door4,0.455891967,-0.016927123,1,0,0,1.2341,optionRight,60,4785,3,0,0,0,0,1,,,,,,,,,,,,,,,,,,,,,,,,,,,,,,,,,,,,,,,
,,,,,,,,2023-08-16_08h51.05.748,HF_wild_card,2022.2.4,Win32,53.41024408,5cedaba627d8ce00018469bb,64d2fd46c836a06233681665,64dc7f88201c200f1b779dae,,,,,,,sngl,resources/DR.BMP,resources/Empty.png,Door2,-0.262858033,-0.037760437,1,0,0,1.054,optionLeft,40,4825,3,1,0,1,0,1,,,,,,,,,,,,,,,,,,,,,,,,,,,,,,,,,,,,,,,
,,,,,,,,2023-08-16_08h51.05.748,HF_wild_card,2022.2.4,Win32,53.41024408,5cedaba627d8ce00018469bb,64d2fd46c836a06233681665,64dc7f88201c200f1b779dae,,,,,,,ctch,resources/DR.BMP,resources/DG.BMP,Door3,0.299641967,-0.005208373,1,0,0,1.4562,optionRight,70,4895,3,2,0,2,0,1,,,,,,,,,,,,,,,,,,,,,,,,,,,,,,,,,,,,,,,
,,,,,,,,2023-08-16_08h51.05.748,HF_wild_card,2022.2.4,Win32,53.41024408,5cedaba627d8ce00018469bb,64d2fd46c836a06233681665,64dc7f88201c200f1b779dae,,,,,,,sngl,resources/Empty.png,resources/DP.BMP,Door1,0.303548217,0.03515625,1,0,0,0.8902,optionRight,30,4925,3,3,0,3,0,1,,,,,,,,,,,,,,,,,,,,,,,,,,,,,,,,,,,,,,,
,,,,,,,,2023-08-16_08h51.05.748,HF_wild_card,2022.2.4,Win32,53.41024408,5cedaba627d8ce00018469bb,64d2fd46c836a06233681665,64dc7f88201c200f1b779dae,,,,,,,sngl,resources/Empty.png,resources/DG.BMP,Door3,0.358235717,0.05078125,1,0,0,0.9137,optionRight,70,4995,3,4,0,4,0,1,,,,,,,,,,,,,,,,,,,,,,,,,,,,,,,,,,,,,,,
,,,,,,,,2023-08-16_08h51.05.748,HF_wild_card,2022.2.4,Win32,53.41024408,5cedaba627d8ce00018469bb,64d2fd46c836a06233681665,64dc7f88201c200f1b779dae,,,,,,,decisionTrl,resources/DBN.BMP,resources/DG.BMP,Door4,-0.40608722,-0.041666687,1,0,0,1.1095,optionLeft,80,5075,3,5,0,5,0,1,,,,,,,,,,,,,,,,,,,,,,,,,,,,,,,,,,,,,,,
,,,,,,,,2023-08-16_08h51.05.748,HF_wild_card,2022.2.4,Win32,53.41024408,5cedaba627d8ce00018469bb,64d2fd46c836a06233681665,64dc7f88201c200f1b779dae,,,,,,,ctch,resources/DR.BMP,resources/DG.BMP,Door3,0.33610034,0.03515625,1,0,0,1.4171,optionRight,70,5145,3,6,0,6,0,1,,,,,,,,,,,,,,,,,,,,,,,,,,,,,,,,,,,,,,,
,,,,,,,,2023-08-16_08h51.05.748,HF_wild_card,2022.2.4,Win32,53.41024408,5cedaba627d8ce00018469bb,64d2fd46c836a06233681665,64dc7f88201c200f1b779dae,,,,,,,ctch,resources/DP.BMP,resources/DBN.BMP,Door4,0.28141284,0.01171875,1,0,0,1.1196,optionRight,60,5205,3,7,0,7,0,1,,,,,,,,,,,,,,,,,,,,,,,,,,,,,,,,,,,,,,,
,,,,,,,,2023-08-16_08h51.05.748,HF_wild_card,2022.2.4,Win32,53.41024408,5cedaba627d8ce00018469bb,64d2fd46c836a06233681665,64dc7f88201c200f1b779dae,,,,,,,decisionTrl,resources/DP.BMP,resources/DY.BMP,WildCard_NonEx,0.217610717,-0.020833373,1,0,0,2.2799,optionRight,55,5260,3,8,0,8,0,1,,,,,,,,,,,,,,,,,,,,,,,,,,,,,,,,,,,,,,,
,,,,,,,,2023-08-16_08h51.05.748,HF_wild_card,2022.2.4,Win32,53.41024408,5cedaba627d8ce00018469bb,64d2fd46c836a06233681665,64dc7f88201c200f1b779dae,,,,,,,decisionTrl,resources/DR.BMP,resources/DP.BMP,Door1,0.36735034,-0.037760437,1,0,0,2.6734,optionRight,30,5290,3,9,0,9,0,1,,,,,,,,,,,,,,,,,,,,,,,,,,,,,,,,,,,,,,,
,,,,,,,,2023-08-16_08h51.05.748,HF_wild_card,2022.2.4,Win32,53.41024408,5cedaba627d8ce00018469bb,64d2fd46c836a06233681665,64dc7f88201c200f1b779dae,,,,,,,ctch,resources/DG.BMP,resources/DR.BMP,Door3,-0.005045533,-0.013020873,1,0,0,0.5025,optionLeft,70,5360,3,10,0,10,0,1,,,,,,,,,,,,,,,,,,,,,,,,,,,,,,,,,,,,,,,
,,,,,,,,2023-08-16_08h51.05.748,HF_wild_card,2022.2.4,Win32,53.41024408,5cedaba627d8ce00018469bb,64d2fd46c836a06233681665,64dc7f88201c200f1b779dae,,,,,,,ctch,resources/DP.BMP,resources/DBN.BMP,Door4,0.26188159,-0.010416687,1,0,0,1.7695,optionRight,60,5420,3,11,0,11,0,1,,,,,,,,,,,,,,,,,,,,,,,,,,,,,,,,,,,,,,,
,,,,,,,,2023-08-16_08h51.05.748,HF_wild_card,2022.2.4,Win32,53.41024408,5cedaba627d8ce00018469bb,64d2fd46c836a06233681665,64dc7f88201c200f1b779dae,,,,,,,decisionTrl,resources/DR.BMP,resources/DP.BMP,Door1,0.290527344,-0.1015625,1,0,0,2.0166,optionRight,30,5450,3,12,0,12,0,1,,,,,,,,,,,,,,,,,,,,,,,,,,,,,,,,,,,,,,,
,,,,,,,,2023-08-16_08h51.05.748,HF_wild_card,2022.2.4,Win32,53.41024408,5cedaba627d8ce00018469bb,64d2fd46c836a06233681665,64dc7f88201c200f1b779dae,,,,,,,decisionTrl,resources/DY.BMP,resources/DG.BMP,Door3,0.30094409,-0.12890625,1,0,0,1.1855,optionRight,70,5520,3,13,0,13,0,1,,,,,,,,,,,,,,,,,,,,,,,,,,,,,,,,,,,,,,,
,,,,,,,,2023-08-16_08h51.05.748,HF_wild_card,2022.2.4,Win32,53.41024408,5cedaba627d8ce00018469bb,64d2fd46c836a06233681665,64dc7f88201c200f1b779dae,,,,,,,sngl,resources/Empty.png,resources/DY.BMP,WildCard_NonEx,0.353027344,0.029947907,1,0,0,0.9157,optionRight,45,5565,3,14,0,14,0,1,,,,,,,,,,,,,,,,,,,,,,,,,,,,,,,,,,,,,,,
,,,,,,,,2023-08-16_08h51.05.748,HF_wild_card,2022.2.4,Win32,53.41024408,5cedaba627d8ce00018469bb,64d2fd46c836a06233681665,64dc7f88201c200f1b779dae,,,,,,,sngl,resources/DY.BMP,resources/Empty.png,WildCard_NonEx,-0.196451783,-0.010416687,1,0,0,0.7512,optionLeft,45,5610,3,15,0,15,0,1,,,,,,,,,,,,,,,,,,,,,,,,,,,,,,,,,,,,,,,
,,,,,,,,2023-08-16_08h51.05.748,HF_wild_card,2022.2.4,Win32,53.41024408,5cedaba627d8ce00018469bb,64d2fd46c836a06233681665,64dc7f88201c200f1b779dae,,,,,,,sngl,resources/DP.BMP,resources/Empty.png,Door1,-0.24983722,-0.001302123,1,0,0,0.7771,optionLeft,30,5640,3,16,0,16,0,1,,,,,,,,,,,,,,,,,,,,,,,,,,,,,,,,,,,,,,,
,,,,,,,,2023-08-16_08h51.05.748,HF_wild_card,2022.2.4,Win32,53.41024408,5cedaba627d8ce00018469bb,64d2fd46c836a06233681665,64dc7f88201c200f1b779dae,,,,,,,sngl,resources/DBN.BMP,resources/Empty.png,Door4,-0.329264283,-0.03515625,1,0,0,0.7306,optionLeft,80,5720,3,17,0,17,0,1,,,,,,,,,,,,,,,,,,,,,,,,,,,,,,,,,,,,,,,
,,,,,,,,2023-08-16_08h51.05.748,HF_wild_card,2022.2.4,Win32,53.41024408,5cedaba627d8ce00018469bb,64d2fd46c836a06233681665,64dc7f88201c200f1b779dae,,,,,,,decisionTrl,resources/DBN.BMP,resources/DG.BMP,Door3,0.49235034,0.040364563,1,0,0,2.2821,optionRight,70,5790,3,18,0,18,0,1,,,,,,,,,,,,,,,,,,,,,,,,,,,,,,,,,,,,,,,
,,,,,,,,2023-08-16_08h51.05.748,HF_wild_card,2022.2.4,Win32,53.41024408,5cedaba627d8ce00018469bb,64d2fd46c836a06233681665,64dc7f88201c200f1b779dae,,,,,,,sngl,resources/Empty.png,resources/DY.BMP,WildCard_NonEx,0.267089844,-0.020833373,1,0,0,1.0128,optionRight,55,5845,3,19,0,19,0,1,,,,,,,,,,,,,,,,,,,,,,,,,,,,,,,,,,,,,,,
,,,,,,,,2023-08-16_08h51.05.748,HF_wild_card,2022.2.4,Win32,53.41024408,5cedaba627d8ce00018469bb,64d2fd46c836a06233681665,64dc7f88201c200f1b779dae,,,,,,,decisionTrl,resources/DBN.BMP,resources/DG.BMP,Door3,0.34391284,-0.03515625,1,0,0,4.1092,optionRight,70,5915,3,20,0,20,0,1,,,,,,,,,,,,,,,,,,,,,,,,,,,,,,,,,,,,,,,
,,,,,,,,2023-08-16_08h51.05.748,HF_wild_card,2022.2.4,Win32,53.41024408,5cedaba627d8ce00018469bb,64d2fd46c836a06233681665,64dc7f88201c200f1b779dae,,,,,,,ctch,resources/DBN.BMP,resources/DP.BMP,Door4,-0.41389972,-0.01171875,1,0,0,1.4688,optionLeft,60,5975,3,21,0,21,0,1,,,,,,,,,,,,,,,,,,,,,,,,,,,,,,,,,,,,,,,
,,,,,,,,2023-08-16_08h51.05.748,HF_wild_card,2022.2.4,Win32,53.41024408,5cedaba627d8ce00018469bb,64d2fd46c836a06233681665,64dc7f88201c200f1b779dae,,,,,,,decisionTrl,resources/DG.BMP,resources/DBN.BMP,Door3,-0.291503906,-0.04296875,1,0,0,1.4864,optionLeft,70,6045,3,22,0,22,0,1,,,,,,,,,,,,,,,,,,,,,,,,,,,,,,,,,,,,,,,
,,,,,,,,2023-08-16_08h51.05.748,HF_wild_card,2022.2.4,Win32,53.41024408,5cedaba627d8ce00018469bb,64d2fd46c836a06233681665,64dc7f88201c200f1b779dae,,,,,,,decisionTrl,resources/DBN.BMP,resources/DG.BMP,Door3,0.388183594,0.033854157,1,0,0,1.1249,optionRight,70,6115,3,23,0,23,0,1,,,,,,,,,,,,,,,,,,,,,,,,,,,,,,,,,,,,,,,
,,,,,,,,2023-08-16_08h51.05.748,HF_wild_card,2022.2.4,Win32,53.41024408,5cedaba627d8ce00018469bb,64d2fd46c836a06233681665,64dc7f88201c200f1b779dae,,,,,,,sngl,resources/Empty.png,resources/DR.BMP,Door2,0.282714844,0,1,0,0,0.8611,optionRight,20,6135,3,24,0,24,0,1,,,,,,,,,,,,,,,,,,,,,,,,,,,,,,,,,,,,,,,
,,,,,,,,2023-08-16_08h51.05.748,HF_wild_card,2022.2.4,Win32,53.41024408,5cedaba627d8ce00018469bb,64d2fd46c836a06233681665,64dc7f88201c200f1b779dae,,,,,,,decisionTrl,resources/DR.BMP,resources/DP.BMP,Door1,0.32438159,-0.01171875,1,0,0,1.0909,optionRight,30,6165,3,25,0,25,0,1,,,,,,,,,,,,,,,,,,,,,,,,,,,,,,,,,,,,,,,
,,,,,,,,2023-08-16_08h51.05.748,HF_wild_card,2022.2.4,Win32,53.41024408,5cedaba627d8ce00018469bb,64d2fd46c836a06233681665,64dc7f88201c200f1b779dae,,,,,,,decisionTrl,resources/DY.BMP,resources/DP.BMP,WildCard_NonEx,-0.33186847,-0.05078125,1,0,0,2.1018,optionLeft,45,6210,3,26,0,26,0,1,,,,,,,,,,,,,,,,,,,,,,,,,,,,,,,,,,,,,,,
,,,,,,,,2023-08-16_08h51.05.748,HF_wild_card,2022.2.4,Win32,53.41024408,5cedaba627d8ce00018469bb,64d2fd46c836a06233681665,64dc7f88201c200f1b779dae,,,,,,,decisionTrl,resources/DG.BMP,resources/DY.BMP,Door3,-0.268066406,-0.002604187,1,0,0,1.1344,optionLeft,70,6280,3,27,0,27,0,1,,,,,,,,,,,,,,,,,,,,,,,,,,,,,,,,,,,,,,,
,,,,,,,,2023-08-16_08h51.05.748,HF_wild_card,2022.2.4,Win32,53.41024408,5cedaba627d8ce00018469bb,64d2fd46c836a06233681665,64dc7f88201c200f1b779dae,,,,,,,decisionTrl,resources/DG.BMP,resources/DBN.BMP,Door3,-0.256347656,-0.01953125,1,0,0,4.0967,optionLeft,70,6350,3,28,0,28,0,1,,,,,,,,,,,,,,,,,,,,,,,,,,,,,,,,,,,,,,,
,,,,,,,,2023-08-16_08h51.05.748,HF_wild_card,2022.2.4,Win32,53.41024408,5cedaba627d8ce00018469bb,64d2fd46c836a06233681665,64dc7f88201c200f1b779dae,,,,,,,decisionTrl,resources/DBN.BMP,resources/DY.BMP,Door4,-0.006347656,0.0078125,1,0,0,0.7348,optionLeft,80,6430,3,29,0,29,0,1,,,,,,,,,,,,,,,,,,,,,,,,,,,,,,,,,,,,,,,
,,,,,,,,2023-08-16_08h51.05.748,HF_wild_card,2022.2.4,Win32,53.41024408,5cedaba627d8ce00018469bb,64d2fd46c836a06233681665,64dc7f88201c200f1b779dae,,,,,,,sngl,resources/DY.BMP,resources/Empty.png,WildCard_NonEx,-0.278483033,-0.015625,1,0,0,1.1235,optionLeft,55,6485,3,30,0,30,0,1,,,,,,,,,,,,,,,,,,,,,,,,,,,,,,,,,,,,,,,
,,,,,,,,2023-08-16_08h51.05.748,HF_wild_card,2022.2.4,Win32,53.41024408,5cedaba627d8ce00018469bb,64d2fd46c836a06233681665,64dc7f88201c200f1b779dae,,,,,,,decisionTrl,resources/DR.BMP,resources/DP.BMP,Door2,-0.251139283,-0.01953125,1,0,0,2.2471,optionLeft,40,6525,3,31,0,31,0,1,,,,,,,,,,,,,,,,,,,,,,,,,,,,,,,,,,,,,,,
,,,,,,,,2023-08-16_08h51.05.748,HF_wild_card,2022.2.4,Win32,53.41024408,5cedaba627d8ce00018469bb,64d2fd46c836a06233681665,64dc7f88201c200f1b779dae,,,,,,,decisionTrl,resources/DY.BMP,resources/DR.BMP,WildCard_NonEx,-0.262858033,-0.01171875,1,0,0,1.4256,optionLeft,45,6570,3,32,0,32,0,1,,,,,,,,,,,,,,,,,,,,,,,,,,,,,,,,,,,,,,,
,,,,,,,,2023-08-16_08h51.05.748,HF_wild_card,2022.2.4,Win32,53.41024408,5cedaba627d8ce00018469bb,64d2fd46c836a06233681665,64dc7f88201c200f1b779dae,,,,,,,ctch,resources/DG.BMP,resources/DR.BMP,Door3,-0.32014972,-0.05078125,1,0,0,1.2632,optionLeft,70,6640,3,33,0,33,0,1,,,,,,,,,,,,,,,,,,,,,,,,,,,,,,,,,,,,,,,
,,,,,,,,2023-08-16_08h51.05.748,HF_wild_card,2022.2.4,Win32,53.41024408,5cedaba627d8ce00018469bb,64d2fd46c836a06233681665,64dc7f88201c200f1b779dae,,,,,,,decisionTrl,resources/DP.BMP,resources/DR.BMP,Door1,-0.256347656,-0.041666687,1,0,0,1.0835,optionLeft,30,6670,3,34,0,34,0,1,,,,,,,,,,,,,,,,,,,,,,,,,,,,,,,,,,,,,,,
,,,,,,,,2023-08-16_08h51.05.748,HF_wild_card,2022.2.4,Win32,53.41024408,5cedaba627d8ce00018469bb,64d2fd46c836a06233681665,64dc7f88201c200f1b779dae,,,,,,,decisionTrl,resources/DY.BMP,resources/DBN.BMP,Door4,0.389485717,0.005208313,1,0,0,1.2864,optionRight,60,6730,3,35,0,35,0,1,,,,,,,,,,,,,,,,,,,,,,,,,,,,,,,,,,,,,,,
,,,,,,,,2023-08-16_08h51.05.748,HF_wild_card,2022.2.4,Win32,53.41024408,5cedaba627d8ce00018469bb,64d2fd46c836a06233681665,64dc7f88201c200f1b779dae,,,,,,,sngl,resources/Empty.png,resources/DBN.BMP,Door4,0.313964844,0.0234375,1,0,0,1.0454,optionRight,60,6790,3,36,0,36,0,1,,,,,,,,,,,,,,,,,,,,,,,,,,,,,,,,,,,,,,,
,,,,,,,,2023-08-16_08h51.05.748,HF_wild_card,2022.2.4,Win32,53.41024408,5cedaba627d8ce00018469bb,64d2fd46c836a06233681665,64dc7f88201c200f1b779dae,,,,,,,decisionTrl,resources/DG.BMP,resources/DBN.BMP,Door3,-0.243326783,-0.016927123,1,0,0,1.321,optionLeft,70,6860,3,37,0,37,0,1,,,,,,,,,,,,,,,,,,,,,,,,,,,,,,,,,,,,,,,
,,,,,,,,2023-08-16_08h51.05.748,HF_wild_card,2022.2.4,Win32,53.41024408,5cedaba627d8ce00018469bb,64d2fd46c836a06233681665,64dc7f88201c200f1b779dae,,,,,,,decisionTrl,resources/DR.BMP,resources/DY.BMP,WildCard_NonEx,0.31266284,-0.0546875,1,0,0,2.9165,optionRight,55,6915,3,38,0,38,0,1,,,,,,,,,,,,,,,,,,,,,,,,,,,,,,,,,,,,,,,
,,,,,,,,2023-08-16_08h51.05.748,HF_wild_card,2022.2.4,Win32,53.41024408,5cedaba627d8ce00018469bb,64d2fd46c836a06233681665,64dc7f88201c200f1b779dae,,,,,,,decisionTrl,resources/DP.BMP,resources/DR.BMP,Door1,-0.25374347,-0.134114623,1,0,0,3.0088,optionLeft,30,6945,3,39,0,39,0,1,,,,,,,,,,,,,,,,,,,,,,,,,,,,,,,,,,,,,,,
,,,,,,,,2023-08-16_08h51.05.748,HF_wild_card,2022.2.4,Win32,53.41024408,5cedaba627d8ce00018469bb,64d2fd46c836a06233681665,64dc7f88201c200f1b779dae,,,,,,,ctch,resources/DBN.BMP,resources/DP.BMP,Door4,-0.28108722,-0.0703125,1,0,0,1.4395,optionLeft,80,7025,3,40,0,40,0,1,,,,,,,,,,,,,,,,,,,,,,,,,,,,,,,,,,,,,,,
,,,,,,,,2023-08-16_08h51.05.748,HF_wild_card,2022.2.4,Win32,53.41024408,5cedaba627d8ce00018469bb,64d2fd46c836a06233681665,64dc7f88201c200f1b779dae,,,,,,,decisionTrl,resources/DP.BMP,resources/DR.BMP,Door1,-0.322753906,-0.048177123,1,0,0,4.0319,optionLeft,30,7055,3,41,0,41,0,1,,,,,,,,,,,,,,,,,,,,,,,,,,,,,,,,,,,,,,,
,,,,,,,,2023-08-16_08h51.05.748,HF_wild_card,2022.2.4,Win32,53.41024408,5cedaba627d8ce00018469bb,64d2fd46c836a06233681665,64dc7f88201c200f1b779dae,,,,,,,sngl,resources/DG.BMP,resources/Empty.png,Door3,-0.236816406,-0.028645873,1,0,0,0.7747,optionLeft,70,7125,3,42,0,42,0,1,,,,,,,,,,,,,,,,,,,,,,,,,,,,,,,,,,,,,,,
,,,,,,,,2023-08-16_08h51.05.748,HF_wild_card,2022.2.4,Win32,53.41024408,5cedaba627d8ce00018469bb,64d2fd46c836a06233681665,64dc7f88201c200f1b779dae,,,,,,,decisionTrl,resources/DP.BMP,resources/DR.BMP,Door1,-0.28108722,-0.126302123,1,0,0,2.0836,optionLeft,30,7155,3,43,0,43,0,1,,,,,,,,,,,,,,,,,,,,,,,,,,,,,,,,,,,,,,,
,,,,,,,,2023-08-16_08h51.05.748,HF_wild_card,2022.2.4,Win32,53.41024408,5cedaba627d8ce00018469bb,64d2fd46c836a06233681665,64dc7f88201c200f1b779dae,,,,,,,,,,,,,,,,,,,,,,,,,,2,0,2,0,1,,,,,,,,,,,,,,,,,,,,,,,,,,,,,,,,,,
,,,,,,,,2023-08-16_08h51.05.748,HF_wild_card,2022.2.4,Win32,53.41024408,5cedaba627d8ce00018469bb,64d2fd46c836a06233681665,64dc7f88201c200f1b779dae,,,,,,,decisionTrl,resources/DG.BMP,resources/DBN.BMP,Door4,0.30485034,-0.084635437,1,0,0,5.5994,optionRight,80,7235,4,0,0,0,0,1,,,,,,,,,,,,,,,,,,,,,,,,,,,,,,,,,,,,,,,
,,,,,,,,2023-08-16_08h51.05.748,HF_wild_card,2022.2.4,Win32,53.41024408,5cedaba627d8ce00018469bb,64d2fd46c836a06233681665,64dc7f88201c200f1b779dae,,,,,,,decisionTrl,resources/DR.BMP,resources/DP.BMP,Door1,0.307454467,-0.108072937,1,0,0,5.4173,optionRight,30,7265,4,1,0,1,0,1,,,,,,,,,,,,,,,,,,,,,,,,,,,,,,,,,,,,,,,
,,,,,,,,2023-08-16_08h51.05.748,HF_wild_card,2022.2.4,Win32,53.41024408,5cedaba627d8ce00018469bb,64d2fd46c836a06233681665,64dc7f88201c200f1b779dae,,,,,,,decisionTrl,resources/DBN.BMP,resources/DB.BMP,Door4,-0.309733033,-0.0234375,1,0,0,2.1713,optionLeft,80,7345,4,2,0,2,0,1,,,,,,,,,,,,,,,,,,,,,,,,,,,,,,,,,,,,,,,
,,,,,,,,2023-08-16_08h51.05.748,HF_wild_card,2022.2.4,Win32,53.41024408,5cedaba627d8ce00018469bb,64d2fd46c836a06233681665,64dc7f88201c200f1b779dae,,,,,,,decisionTrl,resources/DR.BMP,resources/DP.BMP,Door1,0.274902344,-0.072916687,1,0,0,2.663,optionRight,30,7375,4,3,0,3,0,1,,,,,,,,,,,,,,,,,,,,,,,,,,,,,,,,,,,,,,,
,,,,,,,,2023-08-16_08h51.05.748,HF_wild_card,2022.2.4,Win32,53.41024408,5cedaba627d8ce00018469bb,64d2fd46c836a06233681665,64dc7f88201c200f1b779dae,,,,,,,ctch,resources/DBN.BMP,resources/DP.BMP,Door4,-0.28108722,-0.033854187,1,0,0,0.9712,optionLeft,80,7455,4,4,0,4,0,1,,,,,,,,,,,,,,,,,,,,,,,,,,,,,,,,,,,,,,,
,,,,,,,,2023-08-16_08h51.05.748,HF_wild_card,2022.2.4,Win32,53.41024408,5cedaba627d8ce00018469bb,64d2fd46c836a06233681665,64dc7f88201c200f1b779dae,,,,,,,decisionTrl,resources/DG.BMP,resources/DBN.BMP,Door4,0.360839844,-0.0546875,1,0,0,1.5156,optionRight,80,7535,4,5,0,5,0,1,,,,,,,,,,,,,,,,,,,,,,,,,,,,,,,,,,,,,,,
,,,,,,,,2023-08-16_08h51.05.748,HF_wild_card,2022.2.4,Win32,53.41024408,5cedaba627d8ce00018469bb,64d2fd46c836a06233681665,64dc7f88201c200f1b779dae,,,,,,,decisionTrl,resources/DBN.BMP,resources/DG.BMP,Door4,-0.28108722,0,1,0,0,1.3856,optionLeft,60,7595,4,6,0,6,0,1,,,,,,,,,,,,,,,,,,,,,,,,,,,,,,,,,,,,,,,
,,,,,,,,2023-08-16_08h51.05.748,HF_wild_card,2022.2.4,Win32,53.41024408,5cedaba627d8ce00018469bb,64d2fd46c836a06233681665,64dc7f88201c200f1b779dae,,,,,,,ctch,resources/DP.BMP,resources/DBN.BMP,Door4,0.302246094,0.010416657,1,0,0,2.1756,optionRight,80,7675,4,7,0,7,0,1,,,,,,,,,,,,,,,,,,,,,,,,,,,,,,,,,,,,,,,
,,,,,,,,2023-08-16_08h51.05.748,HF_wild_card,2022.2.4,Win32,53.41024408,5cedaba627d8ce00018469bb,64d2fd46c836a06233681665,64dc7f88201c200f1b779dae,,,,,,,sngl,resources/DP.BMP,resources/Empty.png,Door1,-0.244628906,-0.0390625,1,0,0,1.2568,optionLeft,30,7705,4,8,0,8,0,1,,,,,,,,,,,,,,,,,,,,,,,,,,,,,,,,,,,,,,,
,,,,,,,,2023-08-16_08h51.05.748,HF_wild_card,2022.2.4,Win32,53.41024408,5cedaba627d8ce00018469bb,64d2fd46c836a06233681665,64dc7f88201c200f1b779dae,,,,,,,sngl,resources/Empty.png,resources/DG.BMP,Door3,0.235839844,-0.09375,1,0,0,0.9256,optionRight,70,7775,4,9,0,9,0,1,,,,,,,,,,,,,,,,,,,,,,,,,,,,,,,,,,,,,,,
,,,,,,,,2023-08-16_08h51.05.748,HF_wild_card,2022.2.4,Win32,53.41024408,5cedaba627d8ce00018469bb,64d2fd46c836a06233681665,64dc7f88201c200f1b779dae,,,,,,,decisionTrl,resources/DBN.BMP,resources/DG.BMP,Door4,-0.282389283,0.03125,1,0,0,2.4087,optionLeft,80,7855,4,10,0,10,0,1,,,,,,,,,,,,,,,,,,,,,,,,,,,,,,,,,,,,,,,
,,,,,,,,2023-08-16_08h51.05.748,HF_wild_card,2022.2.4,Win32,53.41024408,5cedaba627d8ce00018469bb,64d2fd46c836a06233681665,64dc7f88201c200f1b779dae,,,,,,,decisionTrl,resources/DR.BMP,resources/DP.BMP,Door1,0.337402344,-0.061197937,1,0,0,1.9303,optionRight,30,7885,4,11,0,11,0,1,,,,,,,,,,,,,,,,,,,,,,,,,,,,,,,,,,,,,,,
,,,,,,,,2023-08-16_08h51.05.748,HF_wild_card,2022.2.4,Win32,53.41024408,5cedaba627d8ce00018469bb,64d2fd46c836a06233681665,64dc7f88201c200f1b779dae,,,,,,,decisionTrl,resources/DP.BMP,resources/DB.BMP,WildCard_Ex,0.35172534,-0.028645873,1,0,0,3.1667,optionRight,45,7930,4,12,0,12,0,1,,,,,,,,,,,,,,,,,,,,,,,,,,,,,,,,,,,,,,,
,,,,,,,,2023-08-16_08h51.05.748,HF_wild_card,2022.2.4,Win32,53.41024408,5cedaba627d8ce00018469bb,64d2fd46c836a06233681665,64dc7f88201c200f1b779dae,,,,,,,sngl,resources/DG.BMP,resources/Empty.png,Door3,-0.333170533,0.0078125,1,0,0,0.9142,optionLeft,70,8000,4,13,0,13,0,1,,,,,,,,,,,,,,,,,,,,,,,,,,,,,,,,,,,,,,,
,,,,,,,,2023-08-16_08h51.05.748,HF_wild_card,2022.2.4,Win32,53.41024408,5cedaba627d8ce00018469bb,64d2fd46c836a06233681665,64dc7f88201c200f1b779dae,,,,,,,sngl,resources/DB.BMP,resources/Empty.png,WildCard_Ex,-0.271972656,-0.029947937,1,0,0,0.7184,optionLeft,55,8055,4,14,0,14,0,1,,,,,,,,,,,,,,,,,,,,,,,,,,,,,,,,,,,,,,,
,,,,,,,,2023-08-16_08h51.05.748,HF_wild_card,2022.2.4,Win32,53.41024408,5cedaba627d8ce00018469bb,64d2fd46c836a06233681665,64dc7f88201c200f1b779dae,,,,,,,sngl,resources/Empty.png,resources/DR.BMP,Door2,0.302246094,-0.110677123,1,0,0,1.1631,optionRight,40,8095,4,15,0,15,0,1,,,,,,,,,,,,,,,,,,,,,,,,,,,,,,,,,,,,,,,
,,,,,,,,2023-08-16_08h51.05.748,HF_wild_card,2022.2.4,Win32,53.41024408,5cedaba627d8ce00018469bb,64d2fd46c836a06233681665,64dc7f88201c200f1b779dae,,,,,,,decisionTrl,resources/DR.BMP,resources/DP.BMP,Door2,-0.330566406,-0.04296875,1,0,0,2.273,optionLeft,40,8135,4,16,0,16,0,1,,,,,,,,,,,,,,,,,,,,,,,,,,,,,,,,,,,,,,,
,,,,,,,,2023-08-16_08h51.05.748,HF_wild_card,2022.2.4,Win32,53.41024408,5cedaba627d8ce00018469bb,64d2fd46c836a06233681665,64dc7f88201c200f1b779dae,,,,,,,decisionTrl,resources/DB.BMP,resources/DG.BMP,Door3,0.42594409,0.005208313,1,0,0,2.3355,optionRight,70,8205,4,17,0,17,0,1,,,,,,,,,,,,,,,,,,,,,,,,,,,,,,,,,,,,,,,
,,,,,,,,2023-08-16_08h51.05.748,HF_wild_card,2022.2.4,Win32,53.41024408,5cedaba627d8ce00018469bb,64d2fd46c836a06233681665,64dc7f88201c200f1b779dae,,,,,,,ctch,resources/DP.BMP,resources/DBN.BMP,Door4,0.333496094,-0.016927123,1,0,0,1.6813,optionRight,80,8285,4,18,0,18,0,1,,,,,,,,,,,,,,,,,,,,,,,,,,,,,,,,,,,,,,,
,,,,,,,,2023-08-16_08h51.05.748,HF_wild_card,2022.2.4,Win32,53.41024408,5cedaba627d8ce00018469bb,64d2fd46c836a06233681665,64dc7f88201c200f1b779dae,,,,,,,decisionTrl,resources/DR.BMP,resources/DB.BMP,WildCard_Ex,0.295735717,-0.046875,1,0,0,1.4843,optionRight,45,8330,4,19,0,19,0,1,,,,,,,,,,,,,,,,,,,,,,,,,,,,,,,,,,,,,,,
,,,,,,,,2023-08-16_08h51.05.748,HF_wild_card,2022.2.4,Win32,53.41024408,5cedaba627d8ce00018469bb,64d2fd46c836a06233681665,64dc7f88201c200f1b779dae,,,,,,,decisionTrl,resources/DP.BMP,resources/DR.BMP,Door2,0.330891967,-0.040364623,1,0,0,2.8547,optionRight,20,8350,4,20,0,20,0,1,,,,,,,,,,,,,,,,,,,,,,,,,,,,,,,,,,,,,,,
,,,,,,,,2023-08-16_08h51.05.748,HF_wild_card,2022.2.4,Win32,53.41024408,5cedaba627d8ce00018469bb,64d2fd46c836a06233681665,64dc7f88201c200f1b779dae,,,,,,,decisionTrl,resources/DP.BMP,resources/DR.BMP,Door1,-0.27327472,-0.0546875,1,0,0,1.9264,optionLeft,30,8380,4,21,0,21,0,1,,,,,,,,,,,,,,,,,,,,,,,,,,,,,,,,,,,,,,,
,,,,,,,,2023-08-16_08h51.05.748,HF_wild_card,2022.2.4,Win32,53.41024408,5cedaba627d8ce00018469bb,64d2fd46c836a06233681665,64dc7f88201c200f1b779dae,,,,,,,decisionTrl,resources/DB.BMP,resources/DBN.BMP,Door4,0.36344409,-0.00390625,1,0,0,1.8737,optionRight,80,8460,4,22,0,22,0,1,,,,,,,,,,,,,,,,,,,,,,,,,,,,,,,,,,,,,,,
,,,,,,,,2023-08-16_08h51.05.748,HF_wild_card,2022.2.4,Win32,53.41024408,5cedaba627d8ce00018469bb,64d2fd46c836a06233681665,64dc7f88201c200f1b779dae,,,,,,,decisionTrl,resources/DB.BMP,resources/DR.BMP,Door2,0.21891284,-0.02734375,1,0,0,5.5831,optionRight,40,8500,4,23,0,23,0,1,,,,,,,,,,,,,,,,,,,,,,,,,,,,,,,,,,,,,,,
,,,,,,,,2023-08-16_08h51.05.748,HF_wild_card,2022.2.4,Win32,53.41024408,5cedaba627d8ce00018469bb,64d2fd46c836a06233681665,64dc7f88201c200f1b779dae,,,,,,,sngl,resources/DBN.BMP,resources/Empty.png,Door4,-0.318847656,-0.014322937,1,0,0,0.7619,optionLeft,60,8560,4,24,0,24,0,1,,,,,,,,,,,,,,,,,,,,,,,,,,,,,,,,,,,,,,,
,,,,,,,,2023-08-16_08h51.05.748,HF_wild_card,2022.2.4,Win32,53.41024408,5cedaba627d8ce00018469bb,64d2fd46c836a06233681665,64dc7f88201c200f1b779dae,,,,,,,decisionTrl,resources/DP.BMP,resources/DR.BMP,Door2,0.294433594,-0.029947937,1,0,0,2.4537,optionRight,20,8580,4,25,0,25,0,1,,,,,,,,,,,,,,,,,,,,,,,,,,,,,,,,,,,,,,,
,,,,,,,,2023-08-16_08h51.05.748,HF_wild_card,2022.2.4,Win32,53.41024408,5cedaba627d8ce00018469bb,64d2fd46c836a06233681665,64dc7f88201c200f1b779dae,,,,,,,sngl,resources/Empty.png,resources/DP.BMP,Door1,0.33610034,-0.02734375,1,0,0,1.0139,optionRight,30,8610,4,26,0,26,0,1,,,,,,,,,,,,,,,,,,,,,,,,,,,,,,,,,,,,,,,
,,,,,,,,2023-08-16_08h51.05.748,HF_wild_card,2022.2.4,Win32,53.41024408,5cedaba627d8ce00018469bb,64d2fd46c836a06233681665,64dc7f88201c200f1b779dae,,,,,,,sngl,resources/Empty.png,resources/DB.BMP,WildCard_Ex,0.369954467,-0.048177123,1,0,0,0.7831,optionRight,45,8655,4,27,0,27,0,1,,,,,,,,,,,,,,,,,,,,,,,,,,,,,,,,,,,,,,,
,,,,,,,,2023-08-16_08h51.05.748,HF_wild_card,2022.2.4,Win32,53.41024408,5cedaba627d8ce00018469bb,64d2fd46c836a06233681665,64dc7f88201c200f1b779dae,,,,,,,sngl,resources/DR.BMP,resources/Empty.png,Door2,-0.23030597,-0.0390625,1,0,0,0.8641,optionLeft,20,8675,4,28,0,28,0,1,,,,,,,,,,,,,,,,,,,,,,,,,,,,,,,,,,,,,,,
,,,,,,,,2023-08-16_08h51.05.748,HF_wild_card,2022.2.4,Win32,53.41024408,5cedaba627d8ce00018469bb,64d2fd46c836a06233681665,64dc7f88201c200f1b779dae,,,,,,,sngl,resources/Empty.png,resources/DB.BMP,WildCard_Ex,0.259277344,-0.0234375,1,0,0,0.8689,optionRight,55,8730,4,29,0,29,0,1,,,,,,,,,,,,,,,,,,,,,,,,,,,,,,,,,,,,,,,
,,,,,,,,2023-08-16_08h51.05.748,HF_wild_card,2022.2.4,Win32,53.41024408,5cedaba627d8ce00018469bb,64d2fd46c836a06233681665,64dc7f88201c200f1b779dae,,,,,,,sngl,resources/Empty.png,resources/DBN.BMP,Door4,0.241048217,-0.024739623,1,0,0,0.8649,optionRight,80,8810,4,30,0,30,0,1,,,,,,,,,,,,,,,,,,,,,,,,,,,,,,,,,,,,,,,
,,,,,,,,2023-08-16_08h51.05.748,HF_wild_card,2022.2.4,Win32,53.41024408,5cedaba627d8ce00018469bb,64d2fd46c836a06233681665,64dc7f88201c200f1b779dae,,,,,,,sngl,resources/DB.BMP,resources/Empty.png,WildCard_Ex,-0.247233033,-0.032552123,1,0,0,0.7235,optionLeft,45,8855,4,31,0,31,0,1,,,,,,,,,,,,,,,,,,,,,,,,,,,,,,,,,,,,,,,
,,,,,,,,2023-08-16_08h51.05.748,HF_wild_card,2022.2.4,Win32,53.41024408,5cedaba627d8ce00018469bb,64d2fd46c836a06233681665,64dc7f88201c200f1b779dae,,,,,,,ctch,resources/DBN.BMP,resources/DP.BMP,Door4,-0.32796222,-0.061197937,1,0,0,1.2507,optionLeft,80,8935,4,32,0,32,0,1,,,,,,,,,,,,,,,,,,,,,,,,,,,,,,,,,,,,,,,
,,,,,,,,2023-08-16_08h51.05.748,HF_wild_card,2022.2.4,Win32,53.41024408,5cedaba627d8ce00018469bb,64d2fd46c836a06233681665,64dc7f88201c200f1b779dae,,,,,,,decisionTrl,resources/DB.BMP,resources/DP.BMP,WildCard_Ex,-0.303222656,-0.06640625,1,0,0,1.8225,optionLeft,45,8980,4,33,0,33,0,1,,,,,,,,,,,,,,,,,,,,,,,,,,,,,,,,,,,,,,,
,,,,,,,,2023-08-16_08h51.05.748,HF_wild_card,2022.2.4,Win32,53.41024408,5cedaba627d8ce00018469bb,64d2fd46c836a06233681665,64dc7f88201c200f1b779dae,,,,,,,ctch,resources/DR.BMP,resources/DG.BMP,Door3,0.415527344,-0.022135437,1,0,0,1.2755,optionRight,70,9050,4,34,0,34,0,1,,,,,,,,,,,,,,,,,,,,,,,,,,,,,,,,,,,,,,,
,,,,,,,,2023-08-16_08h51.05.748,HF_wild_card,2022.2.4,Win32,53.41024408,5cedaba627d8ce00018469bb,64d2fd46c836a06233681665,64dc7f88201c200f1b779dae,,,,,,,ctch,resources/DG.BMP,resources/DR.BMP,Door3,-0.385253906,-0.0234375,1,0,0,1.9522,optionLeft,70,9120,4,35,0,35,0,1,,,,,,,,,,,,,,,,,,,,,,,,,,,,,,,,,,,,,,,
,,,,,,,,2023-08-16_08h51.05.748,HF_wild_card,2022.2.4,Win32,53.41024408,5cedaba627d8ce00018469bb,64d2fd46c836a06233681665,64dc7f88201c200f1b779dae,,,,,,,ctch,resources/DR.BMP,resources/DG.BMP,Door3,0.274902344,0.016927063,1,0,0,1.0853,optionRight,70,9190,4,36,0,36,0,1,,,,,,,,,,,,,,,,,,,,,,,,,,,,,,,,,,,,,,,
,,,,,,,,2023-08-16_08h51.05.748,HF_wild_card,2022.2.4,Win32,53.41024408,5cedaba627d8ce00018469bb,64d2fd46c836a06233681665,64dc7f88201c200f1b779dae,,,,,,,decisionTrl,resources/DBN.BMP,resources/DG.BMP,Door4,-0.381347656,0.015625,1,0,0,1.6561,optionLeft,80,9270,4,37,0,37,0,1,,,,,,,,,,,,,,,,,,,,,,,,,,,,,,,,,,,,,,,
,,,,,,,,2023-08-16_08h51.05.748,HF_wild_card,2022.2.4,Win32,53.41024408,5cedaba627d8ce00018469bb,64d2fd46c836a06233681665,64dc7f88201c200f1b779dae,,,,,,,decisionTrl,resources/DBN.BMP,resources/DG.BMP,Door4,-0.369628906,-0.028645873,1,0,0,0.9241,optionLeft,80,9350,4,38,0,38,0,1,,,,,,,,,,,,,,,,,,,,,,,,,,,,,,,,,,,,,,,
,,,,,,,,2023-08-16_08h51.05.748,HF_wild_card,2022.2.4,Win32,53.41024408,5cedaba627d8ce00018469bb,64d2fd46c836a06233681665,64dc7f88201c200f1b779dae,,,,,,,decisionTrl,resources/DG.BMP,resources/DBN.BMP,Door4,0.34781909,0.041666657,1,0,0,1.2581,optionRight,80,9430,4,39,0,39,0,1,,,,,,,,,,,,,,,,,,,,,,,,,,,,,,,,,,,,,,,
,,,,,,,,2023-08-16_08h51.05.748,HF_wild_card,2022.2.4,Win32,53.41024408,5cedaba627d8ce00018469bb,64d2fd46c836a06233681665,64dc7f88201c200f1b779dae,,,,,,,decisionTrl,resources/DP.BMP,resources/DR.BMP,Door2,0.282714844,-0.046875,1,0,0,7.8571,optionRight,40,9470,4,40,0,40,0,1,,,,,,,,,,,,,,,,,,,,,,,,,,,,,,,,,,,,,,,
,,,,,,,,2023-08-16_08h51.05.748,HF_wild_card,2022.2.4,Win32,53.41024408,5cedaba627d8ce00018469bb,64d2fd46c836a06233681665,64dc7f88201c200f1b779dae,,,,,,,ctch,resources/DG.BMP,resources/DR.BMP,Door3,0.005371094,0.0078125,1,0,0,0.7767,optionLeft,70,9540,4,41,0,41,0,1,,,,,,,,,,,,,,,,,,,,,,,,,,,,,,,,,,,,,,,
,,,,,,,,2023-08-16_08h51.05.748,HF_wild_card,2022.2.4,Win32,53.41024408,5cedaba627d8ce00018469bb,64d2fd46c836a06233681665,64dc7f88201c200f1b779dae,,,,,,,decisionTrl,resources/DG.BMP,resources/DB.BMP,Door3,-0.283691406,-0.013020873,1,0,0,0.981,optionLeft,70,9610,4,42,0,42,0,1,,,,,,,,,,,,,,,,,,,,,,,,,,,,,,,,,,,,,,,
,,,,,,,,2023-08-16_08h51.05.748,HF_wild_card,2022.2.4,Win32,53.41024408,5cedaba627d8ce00018469bb,64d2fd46c836a06233681665,64dc7f88201c200f1b779dae,,,,,,,decisionTrl,resources/DG.BMP,resources/DBN.BMP,Door4,0.317871094,0.03515625,1,0,0,1.3412,optionRight,80,9690,4,43,0,43,0,1,,,,,,,,,,,,,,,,,,,,,,,,,,,,,,,,,,,,,,,
,,,,,,,,2023-08-16_08h51.05.748,HF_wild_card,2022.2.4,Win32,53.41024408,5cedaba627d8ce00018469bb,64d2fd46c836a06233681665,64dc7f88201c200f1b779dae,,,,,,,,,,,,,,,,,,,,,,,,,,3,0,3,0,1,,,,,,,,,,,,,,,,,,,,,,,,,,,,,,,,,,
,,,,,,,,2023-08-16_08h51.05.748,HF_wild_card,2022.2.4,Win32,53.41024408,5cedaba627d8ce00018469bb,64d2fd46c836a06233681665,64dc7f88201c200f1b779dae,,,,,,,sngl,resources/Empty.png,resources/DB.BMP,WildCard_Ex,0.520996094,-0.020833373,1,0,0,1.2512,optionRight,55,9745,5,0,0,0,0,1,,,,,,,,,,,,,,,,,,,,,,,,,,,,,,,,,,,,,,,
,,,,,,,,2023-08-16_08h51.05.748,HF_wild_card,2022.2.4,Win32,53.41024408,5cedaba627d8ce00018469bb,64d2fd46c836a06233681665,64dc7f88201c200f1b779dae,,,,,,,ctch,resources/DG.BMP,resources/DR.BMP,Door3,-0.301920533,-0.065104187,1,0,0,1.0064,optionLeft,70,9815,5,1,0,1,0,1,,,,,,,,,,,,,,,,,,,,,,,,,,,,,,,,,,,,,,,
,,,,,,,,2023-08-16_08h51.05.748,HF_wild_card,2022.2.4,Win32,53.41024408,5cedaba627d8ce00018469bb,64d2fd46c836a06233681665,64dc7f88201c200f1b779dae,,,,,,,decisionTrl,resources/DR.BMP,resources/DP.BMP,Door2,-0.197753906,-0.022135437,1,0,0,3.2395,optionLeft,20,9835,5,2,0,2,0,1,,,,,,,,,,,,,,,,,,,,,,,,,,,,,,,,,,,,,,,
,,,,,,,,2023-08-16_08h51.05.748,HF_wild_card,2022.2.4,Win32,53.41024408,5cedaba627d8ce00018469bb,64d2fd46c836a06233681665,64dc7f88201c200f1b779dae,,,,,,,decisionTrl,resources/DB.BMP,resources/DBN.BMP,Door4,0.33219409,0.032552063,1,0,0,1.3028,optionRight,80,9915,5,3,0,3,0,1,,,,,,,,,,,,,,,,,,,,,,,,,,,,,,,,,,,,,,,
,,,,,,,,2023-08-16_08h51.05.748,HF_wild_card,2022.2.4,Win32,53.41024408,5cedaba627d8ce00018469bb,64d2fd46c836a06233681665,64dc7f88201c200f1b779dae,,,,,,,decisionTrl,resources/DBN.BMP,resources/DG.BMP,Door4,-0.368326783,-0.029947937,1,0,0,2.051,optionLeft,80,9995,5,4,0,4,0,1,,,,,,,,,,,,,,,,,,,,,,,,,,,,,,,,,,,,,,,
,,,,,,,,2023-08-16_08h51.05.748,HF_wild_card,2022.2.4,Win32,53.41024408,5cedaba627d8ce00018469bb,64d2fd46c836a06233681665,64dc7f88201c200f1b779dae,,,,,,,decisionTrl,resources/DR.BMP,resources/DB.BMP,Door2,-0.275878906,-0.03125,1,0,0,8.0017,optionLeft,40,10035,5,5,0,5,0,1,,,,,,,,,,,,,,,,,,,,,,,,,,,,,,,,,,,,,,,
,,,,,,,,2023-08-16_08h51.05.748,HF_wild_card,2022.2.4,Win32,53.41024408,5cedaba627d8ce00018469bb,64d2fd46c836a06233681665,64dc7f88201c200f1b779dae,,,,,,,decisionTrl,resources/DBN.BMP,resources/DG.BMP,Door4,-0.299316406,-0.01953125,1,0,0,2.2897,optionLeft,80,10115,5,6,0,6,0,1,,,,,,,,,,,,,,,,,,,,,,,,,,,,,,,,,,,,,,,
,,,,,,,,2023-08-16_08h51.05.748,HF_wild_card,2022.2.4,Win32,53.41024408,5cedaba627d8ce00018469bb,64d2fd46c836a06233681665,64dc7f88201c200f1b779dae,,,,,,,decisionTrl,resources/DB.BMP,resources/DR.BMP,WildCard_Ex,-0.283691406,0.010416657,1,0,0,3.2481,optionLeft,55,10170,5,7,0,7,0,1,,,,,,,,,,,,,,,,,,,,,,,,,,,,,,,,,,,,,,,
,,,,,,,,2023-08-16_08h51.05.748,HF_wild_card,2022.2.4,Win32,53.41024408,5cedaba627d8ce00018469bb,64d2fd46c836a06233681665,64dc7f88201c200f1b779dae,,,,,,,decisionTrl,resources/DR.BMP,resources/DP.BMP,Door2,-0.322753906,-0.024739623,1,0,0,2.217,optionLeft,20,10190,5,8,0,8,0,1,,,,,,,,,,,,,,,,,,,,,,,,,,,,,,,,,,,,,,,
,,,,,,,,2023-08-16_08h51.05.748,HF_wild_card,2022.2.4,Win32,53.41024408,5cedaba627d8ce00018469bb,64d2fd46c836a06233681665,64dc7f88201c200f1b779dae,,,,,,,decisionTrl,resources/DR.BMP,resources/DP.BMP,Door1,0.403808594,-0.02734375,1,0,0,2.1252,optionRight,30,10220,5,9,0,9,0,1,,,,,,,,,,,,,,,,,,,,,,,,,,,,,,,,,,,,,,,
,,,,,,,,2023-08-16_08h51.05.748,HF_wild_card,2022.2.4,Win32,53.41024408,5cedaba627d8ce00018469bb,64d2fd46c836a06233681665,64dc7f88201c200f1b779dae,,,,,,,sngl,resources/DP.BMP,resources/Empty.png,Door1,-0.33186847,-0.0390625,1,0,0,1.0329,optionLeft,30,10250,5,10,0,10,0,1,,,,,,,,,,,,,,,,,,,,,,,,,,,,,,,,,,,,,,,
,,,,,,,,2023-08-16_08h51.05.748,HF_wild_card,2022.2.4,Win32,53.41024408,5cedaba627d8ce00018469bb,64d2fd46c836a06233681665,64dc7f88201c200f1b779dae,,,,,,,sngl,resources/DBN.BMP,resources/Empty.png,Door4,-0.317545533,0.010416657,1,0,0,0.9897,optionLeft,80,10330,5,11,0,11,0,1,,,,,,,,,,,,,,,,,,,,,,,,,,,,,,,,,,,,,,,
,,,,,,,,2023-08-16_08h51.05.748,HF_wild_card,2022.2.4,Win32,53.41024408,5cedaba627d8ce00018469bb,64d2fd46c836a06233681665,64dc7f88201c200f1b779dae,,,,,,,decisionTrl,resources/DG.BMP,resources/DBN.BMP,Door4,0.41422534,0.022135407,1,0,0,1.6519,optionRight,80,10410,5,12,0,12,0,1,,,,,,,,,,,,,,,,,,,,,,,,,,,,,,,,,,,,,,,
,,,,,,,,2023-08-16_08h51.05.748,HF_wild_card,2022.2.4,Win32,53.41024408,5cedaba627d8ce00018469bb,64d2fd46c836a06233681665,64dc7f88201c200f1b779dae,,,,,,,sngl,resources/DR.BMP,resources/Empty.png,Door2,-0.29280597,-0.016927123,1,0,0,0.8301,optionLeft,40,10450,5,13,0,13,0,1,,,,,,,,,,,,,,,,,,,,,,,,,,,,,,,,,,,,,,,
,,,,,,,,2023-08-16_08h51.05.748,HF_wild_card,2022.2.4,Win32,53.41024408,5cedaba627d8ce00018469bb,64d2fd46c836a06233681665,64dc7f88201c200f1b779dae,,,,,,,ctch,resources/DR.BMP,resources/DG.BMP,Door3,0.373860717,0.009114563,1,0,0,1.379,optionRight,70,10520,5,14,0,14,0,1,,,,,,,,,,,,,,,,,,,,,,,,,,,,,,,,,,,,,,,
,,,,,,,,2023-08-16_08h51.05.748,HF_wild_card,2022.2.4,Win32,53.41024408,5cedaba627d8ce00018469bb,64d2fd46c836a06233681665,64dc7f88201c200f1b779dae,,,,,,,decisionTrl,resources/DBN.BMP,resources/DG.BMP,Door4,-0.39436847,-0.020833373,1,0,0,2.0696,optionLeft,80,10600,5,15,0,15,0,1,,,,,,,,,,,,,,,,,,,,,,,,,,,,,,,,,,,,,,,
,,,,,,,,2023-08-16_08h51.05.748,HF_wild_card,2022.2.4,Win32,53.41024408,5cedaba627d8ce00018469bb,64d2fd46c836a06233681665,64dc7f88201c200f1b779dae,,,,,,,decisionTrl,resources/DBN.BMP,resources/DB.BMP,Door4,-0.338378906,0.006510407,1,0,0,2.8288,optionLeft,60,10660,5,16,0,16,0,1,,,,,,,,,,,,,,,,,,,,,,,,,,,,,,,,,,,,,,,
,,,,,,,,2023-08-16_08h51.05.748,HF_wild_card,2022.2.4,Win32,53.41024408,5cedaba627d8ce00018469bb,64d2fd46c836a06233681665,64dc7f88201c200f1b779dae,,,,,,,decisionTrl,resources/DP.BMP,resources/DR.BMP,Door2,0.317871094,0,1,0,0,3.7269,optionRight,20,10680,5,17,0,17,0,1,,,,,,,,,,,,,,,,,,,,,,,,,,,,,,,,,,,,,,,
,,,,,,,,2023-08-16_08h51.05.748,HF_wild_card,2022.2.4,Win32,53.41024408,5cedaba627d8ce00018469bb,64d2fd46c836a06233681665,64dc7f88201c200f1b779dae,,,,,,,ctch,resources/DP.BMP,resources/DBN.BMP,Door4,0.55875659,0.095052063,1,0,0,1.4666,optionRight,80,10760,5,18,0,18,0,1,,,,,,,,,,,,,,,,,,,,,,,,,,,,,,,,,,,,,,,
,,,,,,,,2023-08-16_08h51.05.748,HF_wild_card,2022.2.4,Win32,53.41024408,5cedaba627d8ce00018469bb,64d2fd46c836a06233681665,64dc7f88201c200f1b779dae,,,,,,,decisionTrl,resources/DG.BMP,resources/DBN.BMP,Door4,0.36735034,0.072916657,1,0,0,1.3365,optionRight,60,10820,5,19,0,19,0,1,,,,,,,,,,,,,,,,,,,,,,,,,,,,,,,,,,,,,,,
,,,,,,,,2023-08-16_08h51.05.748,HF_wild_card,2022.2.4,Win32,53.41024408,5cedaba627d8ce00018469bb,64d2fd46c836a06233681665,64dc7f88201c200f1b779dae,,,,,,,decisionTrl,resources/DR.BMP,resources/DP.BMP,Door1,0.341308594,-0.024739623,1,0,0,5.7345,optionRight,30,10850,5,20,0,20,0,1,,,,,,,,,,,,,,,,,,,,,,,,,,,,,,,,,,,,,,,
,,,,,,,,2023-08-16_08h51.05.748,HF_wild_card,2022.2.4,Win32,53.41024408,5cedaba627d8ce00018469bb,64d2fd46c836a06233681665,64dc7f88201c200f1b779dae,,,,,,,sngl,resources/Empty.png,resources/DB.BMP,WildCard_Ex,0.23063159,-0.005208373,1,0,0,1.1169,optionRight,45,10895,5,21,0,21,0,1,,,,,,,,,,,,,,,,,,,,,,,,,,,,,,,,,,,,,,,
,,,,,,,,2023-08-16_08h51.05.748,HF_wild_card,2022.2.4,Win32,53.41024408,5cedaba627d8ce00018469bb,64d2fd46c836a06233681665,64dc7f88201c200f1b779dae,,,,,,,ctch,resources/DP.BMP,resources/DBN.BMP,Door4,0.31656909,0.05859375,1,0,0,1.9286,optionRight,60,10955,5,22,0,22,0,1,,,,,,,,,,,,,,,,,,,,,,,,,,,,,,,,,,,,,,,
,,,,,,,,2023-08-16_08h51.05.748,HF_wild_card,2022.2.4,Win32,53.41024408,5cedaba627d8ce00018469bb,64d2fd46c836a06233681665,64dc7f88201c200f1b779dae,,,,,,,sngl,resources/DB.BMP,resources/Empty.png,WildCard_Ex,-0.244628906,-0.005208373,1,0,0,0.8799,optionLeft,55,11010,5,23,0,23,0,1,,,,,,,,,,,,,,,,,,,,,,,,,,,,,,,,,,,,,,,
,,,,,,,,2023-08-16_08h51.05.748,HF_wild_card,2022.2.4,Win32,53.41024408,5cedaba627d8ce00018469bb,64d2fd46c836a06233681665,64dc7f88201c200f1b779dae,,,,,,,ctch,resources/DBN.BMP,resources/DP.BMP,Door4,-0.360514283,0.005208313,1,0,0,1.3359,optionLeft,80,11090,5,24,0,24,0,1,,,,,,,,,,,,,,,,,,,,,,,,,,,,,,,,,,,,,,,
,,,,,,,,2023-08-16_08h51.05.748,HF_wild_card,2022.2.4,Win32,53.41024408,5cedaba627d8ce00018469bb,64d2fd46c836a06233681665,64dc7f88201c200f1b779dae,,,,,,,decisionTrl,resources/DP.BMP,resources/DB.BMP,WildCard_Ex,0.37125659,0.005208313,1,0,0,1.9736,optionRight,45,11135,5,25,0,25,0,1,,,,,,,,,,,,,,,,,,,,,,,,,,,,,,,,,,,,,,,
,,,,,,,,2023-08-16_08h51.05.748,HF_wild_card,2022.2.4,Win32,53.41024408,5cedaba627d8ce00018469bb,64d2fd46c836a06233681665,64dc7f88201c200f1b779dae,,,,,,,decisionTrl,resources/DB.BMP,resources/DG.BMP,Door3,0.330891967,0.048177063,1,0,0,1.2023,optionRight,70,11205,5,26,0,26,0,1,,,,,,,,,,,,,,,,,,,,,,,,,,,,,,,,,,,,,,,
,,,,,,,,2023-08-16_08h51.05.748,HF_wild_card,2022.2.4,Win32,53.41024408,5cedaba627d8ce00018469bb,64d2fd46c836a06233681665,64dc7f88201c200f1b779dae,,,,,,,decisionTrl,resources/DG.BMP,resources/DBN.BMP,Door4,0.372558594,-0.00390625,1,0,0,0.9627,optionRight,60,11265,5,27,0,27,0,1,,,,,,,,,,,,,,,,,,,,,,,,,,,,,,,,,,,,,,,
,,,,,,,,2023-08-16_08h51.05.748,HF_wild_card,2022.2.4,Win32,53.41024408,5cedaba627d8ce00018469bb,64d2fd46c836a06233681665,64dc7f88201c200f1b779dae,,,,,,,sngl,resources/DB.BMP,resources/Empty.png,WildCard_Ex,-0.239420533,0.001302063,1,0,0,1.8979,optionLeft,45,11310,5,28,0,28,0,1,,,,,,,,,,,,,,,,,,,,,,,,,,,,,,,,,,,,,,,
,,,,,,,,2023-08-16_08h51.05.748,HF_wild_card,2022.2.4,Win32,53.41024408,5cedaba627d8ce00018469bb,64d2fd46c836a06233681665,64dc7f88201c200f1b779dae,,,,,,,ctch,resources/DR.BMP,resources/DG.BMP,Door3,0.333496094,0.02734375,1,0,0,2.0635,optionRight,70,11380,5,29,0,29,0,1,,,,,,,,,,,,,,,,,,,,,,,,,,,,,,,,,,,,,,,
,,,,,,,,2023-08-16_08h51.05.748,HF_wild_card,2022.2.4,Win32,53.41024408,5cedaba627d8ce00018469bb,64d2fd46c836a06233681665,64dc7f88201c200f1b779dae,,,,,,,decisionTrl,resources/DBN.BMP,resources/DG.BMP,Door3,0.338704467,0.00390625,1,0,0,1.8435,optionRight,70,11450,5,30,0,30,0,1,,,,,,,,,,,,,,,,,,,,,,,,,,,,,,,,,,,,,,,
,,,,,,,,2023-08-16_08h51.05.748,HF_wild_card,2022.2.4,Win32,53.41024408,5cedaba627d8ce00018469bb,64d2fd46c836a06233681665,64dc7f88201c200f1b779dae,,,,,,,sngl,resources/Empty.png,resources/DG.BMP,Door3,0.282714844,0.01171875,1,0,0,2.2256,optionRight,70,11520,5,31,0,31,0,1,,,,,,,,,,,,,,,,,,,,,,,,,,,,,,,,,,,,,,,
,,,,,,,,2023-08-16_08h51.05.748,HF_wild_card,2022.2.4,Win32,53.41024408,5cedaba627d8ce00018469bb,64d2fd46c836a06233681665,64dc7f88201c200f1b779dae,,,,,,,decisionTrl,resources/DP.BMP,resources/DR.BMP,Door2,0.326985717,-0.041666687,1,0,0,3.387,optionRight,20,11540,5,32,0,32,0,1,,,,,,,,,,,,,,,,,,,,,,,,,,,,,,,,,,,,,,,
,,,,,,,,2023-08-16_08h51.05.748,HF_wild_card,2022.2.4,Win32,53.41024408,5cedaba627d8ce00018469bb,64d2fd46c836a06233681665,64dc7f88201c200f1b779dae,,,,,,,decisionTrl,resources/DP.BMP,resources/DR.BMP,Door1,-0.291503906,-0.026041687,1,0,0,1.4675,optionLeft,30,11570,5,33,0,33,0,1,,,,,,,,,,,,,,,,,,,,,,,,,,,,,,,,,,,,,,,
,,,,,,,,2023-08-16_08h51.05.748,HF_wild_card,2022.2.4,Win32,53.41024408,5cedaba627d8ce00018469bb,64d2fd46c836a06233681665,64dc7f88201c200f1b779dae,,,,,,,sngl,resources/Empty.png,resources/DBN.BMP,Door4,0.26578784,0.010416657,1,0,0,0.8678,optionRight,60,11630,5,34,0,34,0,1,,,,,,,,,,,,,,,,,,,,,,,,,,,,,,,,,,,,,,,
,,,,,,,,2023-08-16_08h51.05.748,HF_wild_card,2022.2.4,Win32,53.41024408,5cedaba627d8ce00018469bb,64d2fd46c836a06233681665,64dc7f88201c200f1b779dae,,,,,,,decisionTrl,resources/DG.BMP,resources/DBN.BMP,Door3,-0.268066406,-0.0234375,1,0,0,1.3826,optionLeft,70,11700,5,35,0,35,0,1,,,,,,,,,,,,,,,,,,,,,,,,,,,,,,,,,,,,,,,
,,,,,,,,2023-08-16_08h51.05.748,HF_wild_card,2022.2.4,Win32,53.41024408,5cedaba627d8ce00018469bb,64d2fd46c836a06233681665,64dc7f88201c200f1b779dae,,,,,,,ctch,resources/DBN.BMP,resources/DP.BMP,Door4,-0.28889972,-0.006510437,1,0,0,1.193,optionLeft,60,11760,5,36,0,36,0,1,,,,,,,,,,,,,,,,,,,,,,,,,,,,,,,,,,,,,,,
,,,,,,,,2023-08-16_08h51.05.748,HF_wild_card,2022.2.4,Win32,53.41024408,5cedaba627d8ce00018469bb,64d2fd46c836a06233681665,64dc7f88201c200f1b779dae,,,,,,,sngl,resources/Empty.png,resources/DR.BMP,Door2,0.31266284,-0.029947937,1,0,0,0.9943,optionRight,20,11780,5,37,0,37,0,1,,,,,,,,,,,,,,,,,,,,,,,,,,,,,,,,,,,,,,,
,,,,,,,,2023-08-16_08h51.05.748,HF_wild_card,2022.2.4,Win32,53.41024408,5cedaba627d8ce00018469bb,64d2fd46c836a06233681665,64dc7f88201c200f1b779dae,,,,,,,ctch,resources/DG.BMP,resources/DR.BMP,Door3,-0.365722656,-0.01953125,1,0,0,1.0359,optionLeft,70,11850,5,38,0,38,0,1,,,,,,,,,,,,,,,,,,,,,,,,,,,,,,,,,,,,,,,
,,,,,,,,2023-08-16_08h51.05.748,HF_wild_card,2022.2.4,Win32,53.41024408,5cedaba627d8ce00018469bb,64d2fd46c836a06233681665,64dc7f88201c200f1b779dae,,,,,,,sngl,resources/Empty.png,resources/DP.BMP,Door1,0.291829467,0.016927063,1,0,0,0.8296,optionRight,30,11880,5,39,0,39,0,1,,,,,,,,,,,,,,,,,,,,,,,,,,,,,,,,,,,,,,,
,,,,,,,,2023-08-16_08h51.05.748,HF_wild_card,2022.2.4,Win32,53.41024408,5cedaba627d8ce00018469bb,64d2fd46c836a06233681665,64dc7f88201c200f1b779dae,,,,,,,decisionTrl,resources/DG.BMP,resources/DB.BMP,Door3,-0.21858722,-0.0078125,1,0,0,1.5151,optionLeft,70,11950,5,40,0,40,0,1,,,,,,,,,,,,,,,,,,,,,,,,,,,,,,,,,,,,,,,
,,,,,,,,2023-08-16_08h51.05.748,HF_wild_card,2022.2.4,Win32,53.41024408,5cedaba627d8ce00018469bb,64d2fd46c836a06233681665,64dc7f88201c200f1b779dae,,,,,,,decisionTrl,resources/DP.BMP,resources/DR.BMP,Door1,-0.075358033,-0.001302123,1,0,0,0.9804,optionLeft,30,11980,5,41,0,41,0,1,,,,,,,,,,,,,,,,,,,,,,,,,,,,,,,,,,,,,,,
,,,,,,,,2023-08-16_08h51.05.748,HF_wild_card,2022.2.4,Win32,53.41024408,5cedaba627d8ce00018469bb,64d2fd46c836a06233681665,64dc7f88201c200f1b779dae,,,,,,,sngl,resources/DG.BMP,resources/Empty.png,Door3,-0.27327472,-0.002604187,1,0,0,0.7585,optionLeft,70,12050,5,42,0,42,0,1,,,,,,,,,,,,,,,,,,,,,,,,,,,,,,,,,,,,,,,
,,,,,,,,2023-08-16_08h51.05.748,HF_wild_card,2022.2.4,Win32,53.41024408,5cedaba627d8ce00018469bb,64d2fd46c836a06233681665,64dc7f88201c200f1b779dae,,,,,,,decisionTrl,resources/DB.BMP,resources/DP.BMP,WildCard_Ex,-0.309733033,-0.006510437,1,0,0,2.151,optionLeft,45,12095,5,43,0,43,0,1,,,,,,,,,,,,,,,,,,,,,,,,,,,,,,,,,,,,,,,
,,,,,,,,2023-08-16_08h51.05.748,HF_wild_card,2022.2.4,Win32,53.41024408,5cedaba627d8ce00018469bb,64d2fd46c836a06233681665,64dc7f88201c200f1b779dae,,,,,,,,,,,,,,,,,,,,,,,,,,4,0,4,0,1,,,,,,,,,,,,,,,,,,,,,,,,,,,,,,,,,,
,,,,,,,,2023-08-16_08h51.05.748,HF_wild_card,2022.2.4,Win32,53.41024408,5cedaba627d8ce00018469bb,64d2fd46c836a06233681665,64dc7f88201c200f1b779dae,,,,,,,decisionTrl,resources/DBN.BMP,resources/DG.BMP,Door3,0.368652344,-0.09375,1,0,0,4.0664,optionRight,70,12165,6,0,0,0,0,1,,,,,,,,,,,,,,,,,,,,,,,,,,,,,,,,,,,,,,,
,,,,,,,,2023-08-16_08h51.05.748,HF_wild_card,2022.2.4,Win32,53.41024408,5cedaba627d8ce00018469bb,64d2fd46c836a06233681665,64dc7f88201c200f1b779dae,,,,,,,ctch,resources/DR.BMP,resources/DG.BMP,Door3,0.290527344,-0.0546875,1,0,0,1.4935,optionRight,70,12235,6,1,0,1,0,1,,,,,,,,,,,,,,,,,,,,,,,,,,,,,,,,,,,,,,,
,,,,,,,,2023-08-16_08h51.05.748,HF_wild_card,2022.2.4,Win32,53.41024408,5cedaba627d8ce00018469bb,64d2fd46c836a06233681665,64dc7f88201c200f1b779dae,,,,,,,decisionTrl,resources/DR.BMP,resources/DP.BMP,Door1,0.360839844,-0.153645873,1,0,0,3.3818,optionRight,30,12265,6,2,0,2,0,1,,,,,,,,,,,,,,,,,,,,,,,,,,,,,,,,,,,,,,,
,,,,,,,,2023-08-16_08h51.05.748,HF_wild_card,2022.2.4,Win32,53.41024408,5cedaba627d8ce00018469bb,64d2fd46c836a06233681665,64dc7f88201c200f1b779dae,,,,,,,sngl,resources/DG.BMP,resources/Empty.png,Door3,-0.283691406,0.022135407,1,0,0,0.9011,optionLeft,70,12335,6,3,0,3,0,1,,,,,,,,,,,,,,,,,,,,,,,,,,,,,,,,,,,,,,,
,,,,,,,,2023-08-16_08h51.05.748,HF_wild_card,2022.2.4,Win32,53.41024408,5cedaba627d8ce00018469bb,64d2fd46c836a06233681665,64dc7f88201c200f1b779dae,,,,,,,ctch,resources/DP.BMP,resources/DBN.BMP,Door4,0.358235717,0.029947907,1,0,0,1.3455,optionRight,60,12395,6,4,0,4,0,1,,,,,,,,,,,,,,,,,,,,,,,,,,,,,,,,,,,,,,,
,,,,,,,,2023-08-16_08h51.05.748,HF_wild_card,2022.2.4,Win32,53.41024408,5cedaba627d8ce00018469bb,64d2fd46c836a06233681665,64dc7f88201c200f1b779dae,,,,,,,decisionTrl,resources/DBN.BMP,resources/DB.BMP,Door4,-0.337076783,0.020833313,1,0,0,1.3442,optionLeft,80,12475,6,5,0,5,0,1,,,,,,,,,,,,,,,,,,,,,,,,,,,,,,,,,,,,,,,
,,,,,,,,2023-08-16_08h51.05.748,HF_wild_card,2022.2.4,Win32,53.41024408,5cedaba627d8ce00018469bb,64d2fd46c836a06233681665,64dc7f88201c200f1b779dae,,,,,,,decisionTrl,resources/DP.BMP,resources/DR.BMP,Door2,0.32828784,0.001302063,1,0,0,3.5181,optionRight,40,12515,6,6,0,6,0,1,,,,,,,,,,,,,,,,,,,,,,,,,,,,,,,,,,,,,,,
,,,,,,,,2023-08-16_08h51.05.748,HF_wild_card,2022.2.4,Win32,53.41024408,5cedaba627d8ce00018469bb,64d2fd46c836a06233681665,64dc7f88201c200f1b779dae,,,,,,,sngl,resources/Empty.png,resources/DG.BMP,Door3,0.30875659,-0.020833373,1,0,0,1.0236,optionRight,70,12585,6,7,0,7,0,1,,,,,,,,,,,,,,,,,,,,,,,,,,,,,,,,,,,,,,,
,,,,,,,,2023-08-16_08h51.05.748,HF_wild_card,2022.2.4,Win32,53.41024408,5cedaba627d8ce00018469bb,64d2fd46c836a06233681665,64dc7f88201c200f1b779dae,,,,,,,sngl,resources/Empty.png,resources/DP.BMP,Door1,0.23844409,-0.001302123,1,0,0,0.97,optionRight,30,12615,6,8,0,8,0,1,,,,,,,,,,,,,,,,,,,,,,,,,,,,,,,,,,,,,,,
,,,,,,,,2023-08-16_08h51.05.748,HF_wild_card,2022.2.4,Win32,53.41024408,5cedaba627d8ce00018469bb,64d2fd46c836a06233681665,64dc7f88201c200f1b779dae,,,,,,,ctch,resources/DP.BMP,resources/DBN.BMP,Door4,0.284016967,-0.00390625,1,0,0,1.2678,optionRight,60,12675,6,9,0,9,0,1,,,,,,,,,,,,,,,,,,,,,,,,,,,,,,,,,,,,,,,
,,,,,,,,2023-08-16_08h51.05.748,HF_wild_card,2022.2.4,Win32,53.41024408,5cedaba627d8ce00018469bb,64d2fd46c836a06233681665,64dc7f88201c200f1b779dae,,,,,,,decisionTrl,resources/DB.BMP,resources/DG.BMP,Door3,0.21110034,-0.045572937,1,0,0,1.4553,optionRight,70,12745,6,10,0,10,0,1,,,,,,,,,,,,,,,,,,,,,,,,,,,,,,,,,,,,,,,
,,,,,,,,2023-08-16_08h51.05.748,HF_wild_card,2022.2.4,Win32,53.41024408,5cedaba627d8ce00018469bb,64d2fd46c836a06233681665,64dc7f88201c200f1b779dae,,,,,,,decisionTrl,resources/DR.BMP,resources/DP.BMP,Door1,0.45328784,-0.0234375,1,0,0,4.7461,optionRight,30,12775,6,11,0,11,0,1,,,,,,,,,,,,,,,,,,,,,,,,,,,,,,,,,,,,,,,
,,,,,,,,2023-08-16_08h51.05.748,HF_wild_card,2022.2.4,Win32,53.41024408,5cedaba627d8ce00018469bb,64d2fd46c836a06233681665,64dc7f88201c200f1b779dae,,,,,,,sngl,resources/DP.BMP,resources/Empty.png,Door1,-0.36702472,-0.014322937,1,0,0,1.7969,optionLeft,30,12805,6,12,0,12,0,1,,,,,,,,,,,,,,,,,,,,,,,,,,,,,,,,,,,,,,,
,,,,,,,,2023-08-16_08h51.05.748,HF_wild_card,2022.2.4,Win32,53.41024408,5cedaba627d8ce00018469bb,64d2fd46c836a06233681665,64dc7f88201c200f1b779dae,,,,,,,decisionTrl,resources/DG.BMP,resources/DBN.BMP,Door3,-0.279785156,-0.013020873,1,0,0,2.043,optionLeft,70,12875,6,13,0,13,0,1,,,,,,,,,,,,,,,,,,,,,,,,,,,,,,,,,,,,,,,
,,,,,,,,2023-08-16_08h51.05.748,HF_wild_card,2022.2.4,Win32,53.41024408,5cedaba627d8ce00018469bb,64d2fd46c836a06233681665,64dc7f88201c200f1b779dae,,,,,,,decisionTrl,resources/DG.BMP,resources/DBN.BMP,Door4,0.313964844,-0.015625,1,0,0,0.9282,optionRight,60,12935,6,14,0,14,0,1,,,,,,,,,,,,,,,,,,,,,,,,,,,,,,,,,,,,,,,
,,,,,,,,2023-08-16_08h51.05.748,HF_wild_card,2022.2.4,Win32,53.41024408,5cedaba627d8ce00018469bb,64d2fd46c836a06233681665,64dc7f88201c200f1b779dae,,,,,,,decisionTrl,resources/DG.BMP,resources/DBN.BMP,Door3,-0.35530597,0.016927063,1,0,0,1.6234,optionLeft,70,13005,6,15,0,15,0,1,,,,,,,,,,,,,,,,,,,,,,,,,,,,,,,,,,,,,,,
,,,,,,,,2023-08-16_08h51.05.748,HF_wild_card,2022.2.4,Win32,53.41024408,5cedaba627d8ce00018469bb,64d2fd46c836a06233681665,64dc7f88201c200f1b779dae,,,,,,,sngl,resources/Empty.png,resources/DR.BMP,Door2,0.342610717,-0.013020873,1,0,0,0.8992,optionRight,40,13045,6,16,0,16,0,1,,,,,,,,,,,,,,,,,,,,,,,,,,,,,,,,,,,,,,,
,,,,,,,,2023-08-16_08h51.05.748,HF_wild_card,2022.2.4,Win32,53.41024408,5cedaba627d8ce00018469bb,64d2fd46c836a06233681665,64dc7f88201c200f1b779dae,,,,,,,decisionTrl,resources/DR.BMP,resources/DB.BMP,WildCard_Ex,0.415527344,0.005208313,1,0,0,2.2918,optionRight,45,13090,6,17,0,17,0,1,,,,,,,,,,,,,,,,,,,,,,,,,,,,,,,,,,,,,,,
,,,,,,,,2023-08-16_08h51.05.748,HF_wild_card,2022.2.4,Win32,53.41024408,5cedaba627d8ce00018469bb,64d2fd46c836a06233681665,64dc7f88201c200f1b779dae,,,,,,,decisionTrl,resources/DG.BMP,resources/DBN.BMP,Door3,-0.340983033,-0.028645873,1,0,0,1.5094,optionLeft,70,13160,6,18,0,18,0,1,,,,,,,,,,,,,,,,,,,,,,,,,,,,,,,,,,,,,,,
,,,,,,,,2023-08-16_08h51.05.748,HF_wild_card,2022.2.4,Win32,53.41024408,5cedaba627d8ce00018469bb,64d2fd46c836a06233681665,64dc7f88201c200f1b779dae,,,,,,,decisionTrl,resources/DB.BMP,resources/DR.BMP,Door2,0.247558594,-0.045572937,1,0,0,4.4271,optionRight,40,13200,6,19,0,19,0,1,,,,,,,,,,,,,,,,,,,,,,,,,,,,,,,,,,,,,,,
,,,,,,,,2023-08-16_08h51.05.748,HF_wild_card,2022.2.4,Win32,53.41024408,5cedaba627d8ce00018469bb,64d2fd46c836a06233681665,64dc7f88201c200f1b779dae,,,,,,,decisionTrl,resources/DP.BMP,resources/DB.BMP,WildCard_Ex,0.307454467,-0.01171875,1,0,0,1.2257,optionRight,55,13255,6,20,0,20,0,1,,,,,,,,,,,,,,,,,,,,,,,,,,,,,,,,,,,,,,,
,,,,,,,,2023-08-16_08h51.05.748,HF_wild_card,2022.2.4,Win32,53.41024408,5cedaba627d8ce00018469bb,64d2fd46c836a06233681665,64dc7f88201c200f1b779dae,,,,,,,sngl,resources/DB.BMP,resources/Empty.png,WildCard_Ex,-0.294108033,-0.001302123,1,0,0,0.8409,optionLeft,45,13300,6,21,0,21,0,1,,,,,,,,,,,,,,,,,,,,,,,,,,,,,,,,,,,,,,,
,,,,,,,,2023-08-16_08h51.05.748,HF_wild_card,2022.2.4,Win32,53.41024408,5cedaba627d8ce00018469bb,64d2fd46c836a06233681665,64dc7f88201c200f1b779dae,,,,,,,decisionTrl,resources/DBN.BMP,resources/DG.BMP,Door4,-0.29280597,0.020833313,1,0,0,6.051,optionLeft,60,13360,6,22,0,22,0,1,,,,,,,,,,,,,,,,,,,,,,,,,,,,,,,,,,,,,,,
,,,,,,,,2023-08-16_08h51.05.748,HF_wild_card,2022.2.4,Win32,53.41024408,5cedaba627d8ce00018469bb,64d2fd46c836a06233681665,64dc7f88201c200f1b779dae,,,,,,,sngl,resources/DB.BMP,resources/Empty.png,WildCard_Ex,-0.294108033,-0.015625,1,0,0,0.8509,optionLeft,55,13415,6,23,0,23,0,1,,,,,,,,,,,,,,,,,,,,,,,,,,,,,,,,,,,,,,,
,,,,,,,,2023-08-16_08h51.05.748,HF_wild_card,2022.2.4,Win32,53.41024408,5cedaba627d8ce00018469bb,64d2fd46c836a06233681665,64dc7f88201c200f1b779dae,,,,,,,ctch,resources/DR.BMP,resources/DG.BMP,Door3,0.263183594,-0.05859375,1,0,0,0.8566,optionRight,70,13485,6,24,0,24,0,1,,,,,,,,,,,,,,,,,,,,,,,,,,,,,,,,,,,,,,,
,,,,,,,,2023-08-16_08h51.05.748,HF_wild_card,2022.2.4,Win32,53.41024408,5cedaba627d8ce00018469bb,64d2fd46c836a06233681665,64dc7f88201c200f1b779dae,,,,,,,decisionTrl,resources/DP.BMP,resources/DR.BMP,Door2,0.264485717,-0.013020873,1,0,0,2.1676,optionRight,40,13525,6,25,0,25,0,1,,,,,,,,,,,,,,,,,,,,,,,,,,,,,,,,,,,,,,,
,,,,,,,,2023-08-16_08h51.05.748,HF_wild_card,2022.2.4,Win32,53.41024408,5cedaba627d8ce00018469bb,64d2fd46c836a06233681665,64dc7f88201c200f1b779dae,,,,,,,decisionTrl,resources/DBN.BMP,resources/DG.BMP,Door3,0.30094409,-0.01171875,1,0,0,1.27,optionRight,70,13595,6,26,0,26,0,1,,,,,,,,,,,,,,,,,,,,,,,,,,,,,,,,,,,,,,,
,,,,,,,,2023-08-16_08h51.05.748,HF_wild_card,2022.2.4,Win32,53.41024408,5cedaba627d8ce00018469bb,64d2fd46c836a06233681665,64dc7f88201c200f1b779dae,,,,,,,decisionTrl,resources/DP.BMP,resources/DR.BMP,Door2,0.295735717,-0.010416687,1,0,0,2.2691,optionRight,40,13635,6,27,0,27,0,1,,,,,,,,,,,,,,,,,,,,,,,,,,,,,,,,,,,,,,,
,,,,,,,,2023-08-16_08h51.05.748,HF_wild_card,2022.2.4,Win32,53.41024408,5cedaba627d8ce00018469bb,64d2fd46c836a06233681665,64dc7f88201c200f1b779dae,,,,,,,decisionTrl,resources/DB.BMP,resources/DP.BMP,WildCard_Ex,-0.39046222,-0.014322937,1,0,0,1.0697,optionLeft,45,13680,6,28,0,28,0,1,,,,,,,,,,,,,,,,,,,,,,,,,,,,,,,,,,,,,,,
,,,,,,,,2023-08-16_08h51.05.748,HF_wild_card,2022.2.4,Win32,53.41024408,5cedaba627d8ce00018469bb,64d2fd46c836a06233681665,64dc7f88201c200f1b779dae,,,,,,,sngl,resources/DR.BMP,resources/Empty.png,Door2,-0.321451783,0.001302063,1,0,0,1.6248,optionLeft,20,13700,6,29,0,29,0,1,,,,,,,,,,,,,,,,,,,,,,,,,,,,,,,,,,,,,,,
,,,,,,,,2023-08-16_08h51.05.748,HF_wild_card,2022.2.4,Win32,53.41024408,5cedaba627d8ce00018469bb,64d2fd46c836a06233681665,64dc7f88201c200f1b779dae,,,,,,,decisionTrl,resources/DB.BMP,resources/DBN.BMP,Door4,0.255371094,-0.0078125,1,0,0,1.4422,optionRight,60,13760,6,30,0,30,0,1,,,,,,,,,,,,,,,,,,,,,,,,,,,,,,,,,,,,,,,
,,,,,,,,2023-08-16_08h51.05.748,HF_wild_card,2022.2.4,Win32,53.41024408,5cedaba627d8ce00018469bb,64d2fd46c836a06233681665,64dc7f88201c200f1b779dae,,,,,,,sngl,resources/Empty.png,resources/DBN.BMP,Door4,0.248860717,0.05078125,1,0,0,0.8284,optionRight,80,13840,6,31,0,31,0,1,,,,,,,,,,,,,,,,,,,,,,,,,,,,,,,,,,,,,,,
,,,,,,,,2023-08-16_08h51.05.748,HF_wild_card,2022.2.4,Win32,53.41024408,5cedaba627d8ce00018469bb,64d2fd46c836a06233681665,64dc7f88201c200f1b779dae,,,,,,,decisionTrl,resources/DR.BMP,resources/DP.BMP,Door2,-0.260253906,-0.006510437,1,0,0,1.7752,optionLeft,20,13860,6,32,0,32,0,1,,,,,,,,,,,,,,,,,,,,,,,,,,,,,,,,,,,,,,,
,,,,,,,,2023-08-16_08h51.05.748,HF_wild_card,2022.2.4,Win32,53.41024408,5cedaba627d8ce00018469bb,64d2fd46c836a06233681665,64dc7f88201c200f1b779dae,,,,,,,sngl,resources/Empty.png,resources/DB.BMP,WildCard_Ex,0.326985717,-0.028645873,1,0,0,0.702,optionRight,55,13915,6,33,0,33,0,1,,,,,,,,,,,,,,,,,,,,,,,,,,,,,,,,,,,,,,,
,,,,,,,,2023-08-16_08h51.05.748,HF_wild_card,2022.2.4,Win32,53.41024408,5cedaba627d8ce00018469bb,64d2fd46c836a06233681665,64dc7f88201c200f1b779dae,,,,,,,decisionTrl,resources/DP.BMP,resources/DR.BMP,Door2,0.372558594,0.005208313,1,0,0,1.4235,optionRight,40,13955,6,34,0,34,0,1,,,,,,,,,,,,,,,,,,,,,,,,,,,,,,,,,,,,,,,
,,,,,,,,2023-08-16_08h51.05.748,HF_wild_card,2022.2.4,Win32,53.41024408,5cedaba627d8ce00018469bb,64d2fd46c836a06233681665,64dc7f88201c200f1b779dae,,,,,,,decisionTrl,resources/DG.BMP,resources/DB.BMP,Door3,-0.271972656,-0.04296875,1,0,0,0.999,optionLeft,70,14025,6,35,0,35,0,1,,,,,,,,,,,,,,,,,,,,,,,,,,,,,,,,,,,,,,,
,,,,,,,,2023-08-16_08h51.05.748,HF_wild_card,2022.2.4,Win32,53.41024408,5cedaba627d8ce00018469bb,64d2fd46c836a06233681665,64dc7f88201c200f1b779dae,,,,,,,ctch,resources/DBN.BMP,resources/DP.BMP,Door4,-0.475097656,-0.0234375,1,0,0,1.6569,optionLeft,80,14105,6,36,0,36,0,1,,,,,,,,,,,,,,,,,,,,,,,,,,,,,,,,,,,,,,,
,,,,,,,,2023-08-16_08h51.05.748,HF_wild_card,2022.2.4,Win32,53.41024408,5cedaba627d8ce00018469bb,64d2fd46c836a06233681665,64dc7f88201c200f1b779dae,,,,,,,ctch,resources/DG.BMP,resources/DR.BMP,Door3,-0.282389283,-0.040364623,1,0,0,1.4528,optionLeft,70,14175,6,37,0,37,0,1,,,,,,,,,,,,,,,,,,,,,,,,,,,,,,,,,,,,,,,
,,,,,,,,2023-08-16_08h51.05.748,HF_wild_card,2022.2.4,Win32,53.41024408,5cedaba627d8ce00018469bb,64d2fd46c836a06233681665,64dc7f88201c200f1b779dae,,,,,,,decisionTrl,resources/DR.BMP,resources/DP.BMP,Door1,0.26188159,-0.036458373,1,0,0,2.2906,optionRight,30,14205,6,38,0,38,0,1,,,,,,,,,,,,,,,,,,,,,,,,,,,,,,,,,,,,,,,
,,,,,,,,2023-08-16_08h51.05.748,HF_wild_card,2022.2.4,Win32,53.41024408,5cedaba627d8ce00018469bb,64d2fd46c836a06233681665,64dc7f88201c200f1b779dae,,,,,,,ctch,resources/DBN.BMP,resources/DP.BMP,Door4,-0.282389283,-0.041666687,1,0,0,1.3158,optionLeft,80,14285,6,39,0,39,0,1,,,,,,,,,,,,,,,,,,,,,,,,,,,,,,,,,,,,,,,
,,,,,,,,2023-08-16_08h51.05.748,HF_wild_card,2022.2.4,Win32,53.41024408,5cedaba627d8ce00018469bb,64d2fd46c836a06233681665,64dc7f88201c200f1b779dae,,,,,,,sngl,resources/DBN.BMP,resources/Empty.png,Door4,-0.243326783,-0.016927123,1,0,0,0.7089,optionLeft,60,14345,6,40,0,40,0,1,,,,,,,,,,,,,,,,,,,,,,,,,,,,,,,,,,,,,,,
,,,,,,,,2023-08-16_08h51.05.748,HF_wild_card,2022.2.4,Win32,53.41024408,5cedaba627d8ce00018469bb,64d2fd46c836a06233681665,64dc7f88201c200f1b779dae,,,,,,,ctch,resources/DG.BMP,resources/DR.BMP,Door3,-0.298014283,-0.001302123,1,0,0,0.8336,optionLeft,70,14415,6,41,0,41,0,1,,,,,,,,,,,,,,,,,,,,,,,,,,,,,,,,,,,,,,,
,,,,,,,,2023-08-16_08h51.05.748,HF_wild_card,2022.2.4,Win32,53.41024408,5cedaba627d8ce00018469bb,64d2fd46c836a06233681665,64dc7f88201c200f1b779dae,,,,,,,decisionTrl,resources/DBN.BMP,resources/DG.BMP,Door3,0.18375659,-0.0234375,1,0,0,1.1488,optionRight,70,14485,6,42,0,42,0,1,,,,,,,,,,,,,,,,,,,,,,,,,,,,,,,,,,,,,,,
,,,,,,,,2023-08-16_08h51.05.748,HF_wild_card,2022.2.4,Win32,53.41024408,5cedaba627d8ce00018469bb,64d2fd46c836a06233681665,64dc7f88201c200f1b779dae,,,,,,,sngl,resources/Empty.png,resources/DB.BMP,WildCard_Ex,0.28531909,-0.0234375,1,0,0,0.9095,optionRight,45,14530,6,43,0,43,0,1,,,,,,,,,,,,,,,,,,,,,,,,,,,,,,,,,,,,,,,
,,,,,,,,2023-08-16_08h51.05.748,HF_wild_card,2022.2.4,Win32,53.41024408,5cedaba627d8ce00018469bb,64d2fd46c836a06233681665,64dc7f88201c200f1b779dae,,,,,,,,,,,,,,,,,,,,,,,,,,5,0,5,0,1,,,,,,,,,,,,,,,,,,,,,,,,,,,,,,,,,,
,,,,,,,,2023-08-16_08h51.05.748,HF_wild_card,2022.2.4,Win32,53.41024408,5cedaba627d8ce00018469bb,64d2fd46c836a06233681665,64dc7f88201c200f1b779dae,,,,,,,decisionTrl,resources/DG.BMP,resources/DBN.BMP,Door3,-0.334472656,-0.05859375,1,0,0,3.4265,optionLeft,70,14600,7,0,0,0,0,1,,,,,,,,,,,,,,,,,,,,,,,,,,,,,,,,,,,,,,,
,,,,,,,,2023-08-16_08h51.05.748,HF_wild_card,2022.2.4,Win32,53.41024408,5cedaba627d8ce00018469bb,64d2fd46c836a06233681665,64dc7f88201c200f1b779dae,,,,,,,ctch,resources/DG.BMP,resources/DR.BMP,Door3,-0.227701783,-0.036458373,1,0,0,0.9399,optionLeft,70,14670,7,1,0,1,0,1,,,,,,,,,,,,,,,,,,,,,,,,,,,,,,,,,,,,,,,
,,,,,,,,2023-08-16_08h51.05.748,HF_wild_card,2022.2.4,Win32,53.41024408,5cedaba627d8ce00018469bb,64d2fd46c836a06233681665,64dc7f88201c200f1b779dae,,,,,,,decisionTrl,resources/DBN.BMP,resources/DG.BMP,Door3,0.260579467,-0.01953125,1,0,0,2.0529,optionRight,70,14740,7,2,0,2,0,1,,,,,,,,,,,,,,,,,,,,,,,,,,,,,,,,,,,,,,,
,,,,,,,,2023-08-16_08h51.05.748,HF_wild_card,2022.2.4,Win32,53.41024408,5cedaba627d8ce00018469bb,64d2fd46c836a06233681665,64dc7f88201c200f1b779dae,,,,,,,ctch,resources/DP.BMP,resources/DBN.BMP,Door4,0.326985717,-0.040364623,1,0,0,1.1168,optionRight,60,14800,7,3,0,3,0,1,,,,,,,,,,,,,,,,,,,,,,,,,,,,,,,,,,,,,,,
,,,,,,,,2023-08-16_08h51.05.748,HF_wild_card,2022.2.4,Win32,53.41024408,5cedaba627d8ce00018469bb,64d2fd46c836a06233681665,64dc7f88201c200f1b779dae,,,,,,,decisionTrl,resources/DR.BMP,resources/DP.BMP,Door2,-0.35139972,-0.063802123,1,0,0,1.8277,optionLeft,40,14840,7,4,0,4,0,1,,,,,,,,,,,,,,,,,,,,,,,,,,,,,,,,,,,,,,,
,,,,,,,,2023-08-16_08h51.05.748,HF_wild_card,2022.2.4,Win32,53.41024408,5cedaba627d8ce00018469bb,64d2fd46c836a06233681665,64dc7f88201c200f1b779dae,,,,,,,decisionTrl,resources/DP.BMP,resources/DR.BMP,Door2,0.213704467,-0.045572937,1,0,0,1.0437,optionRight,20,14860,7,5,0,5,0,1,,,,,,,,,,,,,,,,,,,,,,,,,,,,,,,,,,,,,,,
,,,,,,,,2023-08-16_08h51.05.748,HF_wild_card,2022.2.4,Win32,53.41024408,5cedaba627d8ce00018469bb,64d2fd46c836a06233681665,64dc7f88201c200f1b779dae,,,,,,,decisionTrl,resources/DBN.BMP,resources/DG.BMP,Door3,0.303548217,-0.069010437,1,0,0,1.0173,optionRight,70,14930,7,6,0,6,0,1,,,,,,,,,,,,,,,,,,,,,,,,,,,,,,,,,,,,,,,
,,,,,,,,2023-08-16_08h51.05.748,HF_wild_card,2022.2.4,Win32,53.41024408,5cedaba627d8ce00018469bb,64d2fd46c836a06233681665,64dc7f88201c200f1b779dae,,,,,,,ctch,resources/DR.BMP,resources/DG.BMP,Door3,0.360839844,-0.018229187,1,0,0,0.8808,optionRight,70,15000,7,7,0,7,0,1,,,,,,,,,,,,,,,,,,,,,,,,,,,,,,,,,,,,,,,
,,,,,,,,2023-08-16_08h51.05.748,HF_wild_card,2022.2.4,Win32,53.41024408,5cedaba627d8ce00018469bb,64d2fd46c836a06233681665,64dc7f88201c200f1b779dae,,,,,,,ctch,resources/DR.BMP,resources/DG.BMP,Door3,0.26969409,0.006510407,1,0,0,1.148,optionRight,70,15070,7,8,0,8,0,1,,,,,,,,,,,,,,,,,,,,,,,,,,,,,,,,,,,,,,,
,,,,,,,,2023-08-16_08h51.05.748,HF_wild_card,2022.2.4,Win32,53.41024408,5cedaba627d8ce00018469bb,64d2fd46c836a06233681665,64dc7f88201c200f1b779dae,,,,,,,decisionTrl,resources/DG.BMP,resources/DBN.BMP,Door4,0.284016967,0,1,0,0,1.1343,optionRight,80,15150,7,9,0,9,0,1,,,,,,,,,,,,,,,,,,,,,,,,,,,,,,,,,,,,,,,
,,,,,,,,2023-08-16_08h51.05.748,HF_wild_card,2022.2.4,Win32,53.41024408,5cedaba627d8ce00018469bb,64d2fd46c836a06233681665,64dc7f88201c200f1b779dae,,,,,,,ctch,resources/DR.BMP,resources/DG.BMP,Door3,0.280110717,0.0078125,1,0,0,1.225,optionRight,70,15220,7,10,0,10,0,1,,,,,,,,,,,,,,,,,,,,,,,,,,,,,,,,,,,,,,,
,,,,,,,,2023-08-16_08h51.05.748,HF_wild_card,2022.2.4,Win32,53.41024408,5cedaba627d8ce00018469bb,64d2fd46c836a06233681665,64dc7f88201c200f1b779dae,,,,,,,ctch,resources/DG.BMP,resources/DR.BMP,Door3,-0.260253906,-0.018229187,1,0,0,0.8483,optionLeft,70,15290,7,11,0,11,0,1,,,,,,,,,,,,,,,,,,,,,,,,,,,,,,,,,,,,,,,
,,,,,,,,2023-08-16_08h51.05.748,HF_wild_card,2022.2.4,Win32,53.41024408,5cedaba627d8ce00018469bb,64d2fd46c836a06233681665,64dc7f88201c200f1b779dae,,,,,,,ctch,resources/DP.BMP,resources/DBN.BMP,Door4,0.205891967,-0.00390625,1,0,0,1.4596,optionRight,60,15350,7,12,0,12,0,1,,,,,,,,,,,,,,,,,,,,,,,,,,,,,,,,,,,,,,,
,,,,,,,,2023-08-16_08h51.05.748,HF_wild_card,2022.2.4,Win32,53.41024408,5cedaba627d8ce00018469bb,64d2fd46c836a06233681665,64dc7f88201c200f1b779dae,,,,,,,ctch,resources/DP.BMP,resources/DBN.BMP,Door4,0.22281909,-0.04296875,1,0,0,1.0458,optionRight,80,15430,7,13,0,13,0,1,,,,,,,,,,,,,,,,,,,,,,,,,,,,,,,,,,,,,,,
,,,,,,,,2023-08-16_08h51.05.748,HF_wild_card,2022.2.4,Win32,53.41024408,5cedaba627d8ce00018469bb,64d2fd46c836a06233681665,64dc7f88201c200f1b779dae,,,,,,,decisionTrl,resources/DR.BMP,resources/DP.BMP,Door1,0.264485717,-0.049479187,1,0,0,2.5468,optionRight,30,15460,7,14,0,14,0,1,,,,,,,,,,,,,,,,,,,,,,,,,,,,,,,,,,,,,,,
,,,,,,,,2023-08-16_08h51.05.748,HF_wild_card,2022.2.4,Win32,53.41024408,5cedaba627d8ce00018469bb,64d2fd46c836a06233681665,64dc7f88201c200f1b779dae,,,,,,,decisionTrl,resources/DR.BMP,resources/DP.BMP,Door2,-0.365722656,0.001302063,1,0,0,1.2749,optionLeft,20,15480,7,15,0,15,0,1,,,,,,,,,,,,,,,,,,,,,,,,,,,,,,,,,,,,,,,
,,,,,,,,2023-08-16_08h51.05.748,HF_wild_card,2022.2.4,Win32,53.41024408,5cedaba627d8ce00018469bb,64d2fd46c836a06233681665,64dc7f88201c200f1b779dae,,,,,,,decisionTrl,resources/DP.BMP,resources/DR.BMP,Door2,0.287923217,-0.072916687,1,0,0,2.4538,optionRight,20,15500,7,16,0,16,0,1,,,,,,,,,,,,,,,,,,,,,,,,,,,,,,,,,,,,,,,
,,,,,,,,2023-08-16_08h51.05.748,HF_wild_card,2022.2.4,Win32,53.41024408,5cedaba627d8ce00018469bb,64d2fd46c836a06233681665,64dc7f88201c200f1b779dae,,,,,,,ctch,resources/DBN.BMP,resources/DP.BMP,Door4,-0.23421222,-0.057291687,1,0,0,1.2599,optionLeft,60,15560,7,17,0,17,0,1,,,,,,,,,,,,,,,,,,,,,,,,,,,,,,,,,,,,,,,
,,,,,,,,2023-08-16_08h51.05.748,HF_wild_card,2022.2.4,Win32,53.41024408,5cedaba627d8ce00018469bb,64d2fd46c836a06233681665,64dc7f88201c200f1b779dae,,,,,,,decisionTrl,resources/DR.BMP,resources/DP.BMP,Door2,-0.26936847,-0.040364623,1,0,0,1.8639,optionLeft,20,15580,7,18,0,18,0,1,,,,,,,,,,,,,,,,,,,,,,,,,,,,,,,,,,,,,,,
,,,,,,,,2023-08-16_08h51.05.748,HF_wild_card,2022.2.4,Win32,53.41024408,5cedaba627d8ce00018469bb,64d2fd46c836a06233681665,64dc7f88201c200f1b779dae,,,,,,,decisionTrl,resources/DBN.BMP,resources/DG.BMP,Door3,0.23844409,-0.04296875,1,0,0,1.5161,optionRight,70,15650,7,19,0,19,0,1,,,,,,,,,,,,,,,,,,,,,,,,,,,,,,,,,,,,,,,
,,,,,,,,2023-08-16_08h51.05.748,HF_wild_card,2022.2.4,Win32,53.41024408,5cedaba627d8ce00018469bb,64d2fd46c836a06233681665,64dc7f88201c200f1b779dae,,,,,,,decisionTrl,resources/DR.BMP,resources/DP.BMP,Door2,-0.264160156,-0.02734375,1,0,0,2.0235,optionLeft,40,15690,7,20,0,20,0,1,,,,,,,,,,,,,,,,,,,,,,,,,,,,,,,,,,,,,,,
,,,,,,,,2023-08-16_08h51.05.748,HF_wild_card,2022.2.4,Win32,53.41024408,5cedaba627d8ce00018469bb,64d2fd46c836a06233681665,64dc7f88201c200f1b779dae,,,,,,,decisionTrl,resources/DBN.BMP,resources/DG.BMP,Door3,0.282714844,0.001302063,1,0,0,1.0758,optionRight,70,15760,7,21,0,21,0,1,,,,,,,,,,,,,,,,,,,,,,,,,,,,,,,,,,,,,,,
,,,,,,,,2023-08-16_08h51.05.748,HF_wild_card,2022.2.4,Win32,53.41024408,5cedaba627d8ce00018469bb,64d2fd46c836a06233681665,64dc7f88201c200f1b779dae,,,,,,,decisionTrl,resources/DP.BMP,resources/DR.BMP,Door2,0.28531909,-0.033854187,1,0,0,1.3422,optionRight,20,15780,7,22,0,22,0,1,,,,,,,,,,,,,,,,,,,,,,,,,,,,,,,,,,,,,,,
,,,,,,,,2023-08-16_08h51.05.748,HF_wild_card,2022.2.4,Win32,53.41024408,5cedaba627d8ce00018469bb,64d2fd46c836a06233681665,64dc7f88201c200f1b779dae,,,,,,,decisionTrl,resources/DP.BMP,resources/DR.BMP,Door2,0.264485717,-0.04296875,1,0,0,0.7994,optionRight,20,15800,7,23,0,23,0,1,,,,,,,,,,,,,,,,,,,,,,,,,,,,,,,,,,,,,,,
,,,,,,,,2023-08-16_08h51.05.748,HF_wild_card,2022.2.4,Win32,53.41024408,5cedaba627d8ce00018469bb,64d2fd46c836a06233681665,64dc7f88201c200f1b779dae,,,,,,,decisionTrl,resources/DG.BMP,resources/DBN.BMP,Door3,-0.274576783,-0.026041687,1,0,0,1.4369,optionLeft,70,15870,7,24,0,24,0,1,,,,,,,,,,,,,,,,,,,,,,,,,,,,,,,,,,,,,,,
,,,,,,,,2023-08-16_08h51.05.748,HF_wild_card,2022.2.4,Win32,53.41024408,5cedaba627d8ce00018469bb,64d2fd46c836a06233681665,64dc7f88201c200f1b779dae,,,,,,,decisionTrl,resources/DP.BMP,resources/DR.BMP,Door2,0.252766967,-0.020833373,1,0,0,1.2783,optionRight,40,15910,7,25,0,25,0,1,,,,,,,,,,,,,,,,,,,,,,,,,,,,,,,,,,,,,,,
,,,,,,,,2023-08-16_08h51.05.748,HF_wild_card,2022.2.4,Win32,53.41024408,5cedaba627d8ce00018469bb,64d2fd46c836a06233681665,64dc7f88201c200f1b779dae,,,,,,,decisionTrl,resources/DR.BMP,resources/DP.BMP,Door2,-0.248535156,-0.041666687,1,0,0,0.8286,optionLeft,40,15950,7,26,0,26,0,1,,,,,,,,,,,,,,,,,,,,,,,,,,,,,,,,,,,,,,,
,,,,,,,,2023-08-16_08h51.05.748,HF_wild_card,2022.2.4,Win32,53.41024408,5cedaba627d8ce00018469bb,64d2fd46c836a06233681665,64dc7f88201c200f1b779dae,,,,,,,decisionTrl,resources/DG.BMP,resources/DBN.BMP,Door3,-0.240722656,-0.03125,1,0,0,1.1914,optionLeft,70,16020,7,27,0,27,0,1,,,,,,,,,,,,,,,,,,,,,,,,,,,,,,,,,,,,,,,
,,,,,,,,2023-08-16_08h51.05.748,HF_wild_card,2022.2.4,Win32,53.41024408,5cedaba627d8ce00018469bb,64d2fd46c836a06233681665,64dc7f88201c200f1b779dae,,,,,,,ctch,resources/DG.BMP,resources/DR.BMP,Door3,-0.229003906,-0.05859375,1,0,0,0.7811,optionLeft,70,16090,7,28,0,28,0,1,,,,,,,,,,,,,,,,,,,,,,,,,,,,,,,,,,,,,,,
,,,,,,,,2023-08-16_08h51.05.748,HF_wild_card,2022.2.4,Win32,53.41024408,5cedaba627d8ce00018469bb,64d2fd46c836a06233681665,64dc7f88201c200f1b779dae,,,,,,,decisionTrl,resources/DBN.BMP,resources/DG.BMP,Door3,0.217610717,-0.052083373,1,0,0,0.7852,optionRight,70,16160,7,29,0,29,0,1,,,,,,,,,,,,,,,,,,,,,,,,,,,,,,,,,,,,,,,
,,,,,,,,2023-08-16_08h51.05.748,HF_wild_card,2022.2.4,Win32,53.41024408,5cedaba627d8ce00018469bb,64d2fd46c836a06233681665,64dc7f88201c200f1b779dae,,,,,,,decisionTrl,resources/DG.BMP,resources/DBN.BMP,Door3,-0.31624347,-0.032552123,1,0,0,0.8323,optionLeft,70,16230,7,30,0,30,0,1,,,,,,,,,,,,,,,,,,,,,,,,,,,,,,,,,,,,,,,
,,,,,,,,2023-08-16_08h51.05.748,HF_wild_card,2022.2.4,Win32,53.41024408,5cedaba627d8ce00018469bb,64d2fd46c836a06233681665,64dc7f88201c200f1b779dae,,,,,,,ctch,resources/DBN.BMP,resources/DP.BMP,Door4,-0.215983033,0.013020813,1,0,0,1.0034,optionLeft,60,16290,7,31,0,31,0,1,,,,,,,,,,,,,,,,,,,,,,,,,,,,,,,,,,,,,,,
,,,,,,,,2023-08-16_08h51.05.748,HF_wild_card,2022.2.4,Win32,53.41024408,5cedaba627d8ce00018469bb,64d2fd46c836a06233681665,64dc7f88201c200f1b779dae,,,,,,,decisionTrl,resources/DBN.BMP,resources/DG.BMP,Door3,0.326985717,-0.03125,1,0,0,2.3019,optionRight,70,16360,7,32,0,32,0,1,,,,,,,,,,,,,,,,,,,,,,,,,,,,,,,,,,,,,,,
,,,,,,,,2023-08-16_08h51.05.748,HF_wild_card,2022.2.4,Win32,53.41024408,5cedaba627d8ce00018469bb,64d2fd46c836a06233681665,64dc7f88201c200f1b779dae,,,,,,,decisionTrl,resources/DP.BMP,resources/DR.BMP,Door2,0.24235034,-0.033854187,1,0,0,0.925,optionRight,40,16400,7,33,0,33,0,1,,,,,,,,,,,,,,,,,,,,,,,,,,,,,,,,,,,,,,,
,,,,,,,,2023-08-16_08h51.05.748,HF_wild_card,2022.2.4,Win32,53.41024408,5cedaba627d8ce00018469bb,64d2fd46c836a06233681665,64dc7f88201c200f1b779dae,,,,,,,ctch,resources/DBN.BMP,resources/DP.BMP,Door4,-0.29671222,-0.06640625,1,0,0,1.9734,optionLeft,80,16480,7,34,0,34,0,1,,,,,,,,,,,,,,,,,,,,,,,,,,,,,,,,,,,,,,,
,,,,,,,,2023-08-16_08h51.05.748,HF_wild_card,2022.2.4,Win32,53.41024408,5cedaba627d8ce00018469bb,64d2fd46c836a06233681665,64dc7f88201c200f1b779dae,,,,,,,decisionTrl,resources/DG.BMP,resources/DBN.BMP,Door3,-0.192545533,-0.014322937,1,0,0,1.6714,optionLeft,70,16550,7,35,0,35,0,1,,,,,,,,,,,,,,,,,,,,,,,,,,,,,,,,,,,,,,,
,,,,,,,,2023-08-16_08h51.05.748,HF_wild_card,2022.2.4,Win32,53.41024408,5cedaba627d8ce00018469bb,64d2fd46c836a06233681665,64dc7f88201c200f1b779dae,,,,,,,,,,,,,,,,,,,,,,,,,,6,0,6,0,1,,,,,,,,,,,,,,,,,,,,,,,,,,,,,,,,,,
,,,,,,,,2023-08-16_08h51.05.748,HF_wild_card,2022.2.4,Win32,53.41024408,5cedaba627d8ce00018469bb,64d2fd46c836a06233681665,64dc7f88201c200f1b779dae,,,,,,,,,,,,,,,,,,,,,,,,,,,,,,,4,,,,,,,,,,,,,,,,,,,,,,,,,,,,,,,,,
,,,,,,,,2023-08-16_08h51.05.748,HF_wild_card,2022.2.4,Win32,53.41024408,5cedaba627d8ce00018469bb,64d2fd46c836a06233681665,64dc7f88201c200f1b779dae,,,,,,,,,,,,,,,,,,,,,,,,,,,,,,,,,,,,,,,,,,,,,,,,,,,,,,,,,,,,,,,,
,,,,,,,,2023-08-16_08h51.05.748,HF_wild_card,2022.2.4,Win32,53.41024408,5cedaba627d8ce00018469bb,64d2fd46c836a06233681665,64dc7f88201c200f1b779dae,,,,,,,,,,,,,,,,,,,,,,,,,,,,,,,,30,WC_extreme,resources/DB.BMP,0,0,0,0,1,,,,,,,,,,,,,,,,,,,,,,,,,
,,,,,,,,2023-08-16_08h51.05.748,HF_wild_card,2022.2.4,Win32,53.41024408,5cedaba627d8ce00018469bb,64d2fd46c836a06233681665,64dc7f88201c200f1b779dae,,,,,,,,,,,,,,,,,,,,,,,,,,,,,,,,45,Door2,resources/DR.BMP,1,0,1,0,1,,,,,,,,,,,,,,,,,,,,,,,,,
,,,,,,,,2023-08-16_08h51.05.748,HF_wild_card,2022.2.4,Win32,53.41024408,5cedaba627d8ce00018469bb,64d2fd46c836a06233681665,64dc7f88201c200f1b779dae,,,,,,,,,,,,,,,,,,,,,,,,,,,,,,,,20,Door1,resources/DP.BMP,2,0,2,0,1,,,,,,,,,,,,,,,,,,,,,,,,,
,,,,,,,,2023-08-16_08h51.05.748,HF_wild_card,2022.2.4,Win32,53.41024408,5cedaba627d8ce00018469bb,64d2fd46c836a06233681665,64dc7f88201c200f1b779dae,,,,,,,,,,,,,,,,,,,,,,,,,,,,,,,,70,Door3,resources/DG.BMP,3,0,3,0,1,,,,,,,,,,,,,,,,,,,,,,,,,
,,,,,,,,2023-08-16_08h51.05.748,HF_wild_card,2022.2.4,Win32,53.41024408,5cedaba627d8ce00018469bb,64d2fd46c836a06233681665,64dc7f88201c200f1b779dae,,,,,,,,,,,,,,,,,,,,,,,,,,,,,,,,80,Door4,resources/DBN.BMP,4,0,4,0,1,,,,,,,,,,,,,,,,,,,,,,,,,
,,,,,,,,2023-08-16_08h51.05.748,HF_wild_card,2022.2.4,Win32,53.41024408,5cedaba627d8ce00018469bb,64d2fd46c836a06233681665,64dc7f88201c200f1b779dae,,,,,,,,,,,,,,,,,,,,,,,,,,,,,,,,55,WC_nonExtreme,resources/DY.BMP,5,0,5,0,1,,,,,,,,,,,,,,,,,,,,,,,,,
,,,,,,,,2023-08-16_08h51.05.748,HF_wild_card,2022.2.4,Win32,53.41024408,5cedaba627d8ce00018469bb,64d2fd46c836a06233681665,64dc7f88201c200f1b779dae,,,,,,,,,,,,,,,,,,,,,,,,,,,,,,,,,,,,,,,,,,,,,,,,,,,,,,,,,,,,,,,,
,,,,,,,,2023-08-16_08h51.05.748,HF_wild_card,2022.2.4,Win32,53.41024408,5cedaba627d8ce00018469bb,64d2fd46c836a06233681665,64dc7f88201c200f1b779dae,,,,,,,,,,,,,,,,,,,,,,,,,,,,,,,,,,,,,,,,0,0,0,0,1,,,,,,,,,,,,,,,,,,,,
