Condition,Low fixed image (Door1),Low risky image (Door2),High fixed image (Door3),High risky image (Door4),Extreme Wild Card,NonExtreme Wild Card,,date,expName,psychopyVersion,OS,frameRate,PROLIFIC_PID,STUDY_ID,SESSION_ID,mouse_2.x,mouse_2.y,mouse_2.leftButton,mouse_2.midButton,mouse_2.rightButton,mouse_2.clicked_name,Trial Type,Left Option Image,Right Option Image,Chosen Door,mouse.x,mouse.y,mouse.leftButton,mouse.midButton,mouse.rightButton,mouse.time,mouse.clicked_name,Feedback,Cumulative Reward,Block,trial.thisRepN,trial.thisTrialN,trial.thisN,trial.thisIndex,trial.ran,blocks.thisRepN,blocks.thisTrialN,blocks.thisN,blocks.thisIndex,blocks.ran,Money conversion,First Outcome Reported,Shown Door (First Outcome),Displayed Image (First Outcome),outcomes.thisRepN,outcomes.thisTrialN,outcomes.thisN,outcomes.thisIndex,outcomes.ran,judgments.thisRepN,judgments.thisTrialN,judgments.thisN,judgments.thisIndex,judgments.ran,freqMouse.x,freqMouse.y,freqMouse.leftButton,freqMouse.midButton,freqMouse.rightButton,freqMouse.clicked_name,FQJ for first outcome,FQJ for second outcome,Shown Door,Displayed Image,trials.thisRepN,trials.thisTrialN,trials.thisN,trials.thisIndex,trials.ran,judgBlock.thisRepN,judgBlock.thisTrialN,judgBlock.thisN,judgBlock.thisIndex,judgBlock.ran
0,resources/DP.BMP,resources/DBN.BMP,resources/DG.BMP,resources/DY.BMP,resources/DB.BMP,resources/DR.BMP,,2023-08-16_08h46.28.565,HF_wild_card,2022.2.4,Win32,59.96641881,607deec383975f3377a28b9e,64d2fd46c836a06233681665,64dc7ebf82aaae7350779d47,,,,,,,,,,,,,,,,,,,,,,,,,,,,,,,,,,,,,,,,,,,,,,,,,,,,,,,,,,,,,,,,
,,,,,,,,2023-08-16_08h46.28.565,HF_wild_card,2022.2.4,Win32,59.96641881,607deec383975f3377a28b9e,64d2fd46c836a06233681665,64dc7ebf82aaae7350779d47,0,-0.413888931,1,0,0,agree,,,,,,,,,,,,,,,,,,,,,,,,,,,,,,,,,,,,,,,,,,,,,,,,,,,,,,,,,,
,,,,,,,,2023-08-16_08h46.28.565,HF_wild_card,2022.2.4,Win32,59.96641881,607deec383975f3377a28b9e,64d2fd46c836a06233681665,64dc7ebf82aaae7350779d47,,,,,,,,,,,,,,,,,,,,,,,,,,,,,,,,,,,,,,,,,,,,,,,,,,,,,,,,,,,,,,,,
,,,,,,,,2023-08-16_08h46.28.565,HF_wild_card,2022.2.4,Win32,59.96641881,607deec383975f3377a28b9e,64d2fd46c836a06233681665,64dc7ebf82aaae7350779d47,,,,,,,decisionTrl,resources/DBN.BMP,resources/DB.BMP,Door2,-0.218518504,-0.12962963,1,0,0,3.5164,optionLeft,20,20,1,0,0,0,0,1,,,,,,,,,,,,,,,,,,,,,,,,,,,,,,,,,,,,,,,
,,,,,,,,2023-08-16_08h46.28.565,HF_wild_card,2022.2.4,Win32,59.96641881,607deec383975f3377a28b9e,64d2fd46c836a06233681665,64dc7ebf82aaae7350779d47,,,,,,,decisionTrl,resources/DP.BMP,resources/DBN.BMP,Door1,-0.252777735,-0.075000021,1,0,0,1.2851,optionLeft,30,50,1,1,0,1,0,1,,,,,,,,,,,,,,,,,,,,,,,,,,,,,,,,,,,,,,,
,,,,,,,,2023-08-16_08h46.28.565,HF_wild_card,2022.2.4,Win32,59.96641881,607deec383975f3377a28b9e,64d2fd46c836a06233681665,64dc7ebf82aaae7350779d47,,,,,,,sngl,resources/Empty.png,resources/DG.BMP,Door3,0.352777834,-0.006481489,1,0,0,1.6467,optionRight,70,120,1,2,0,2,0,1,,,,,,,,,,,,,,,,,,,,,,,,,,,,,,,,,,,,,,,
,,,,,,,,2023-08-16_08h46.28.565,HF_wild_card,2022.2.4,Win32,59.96641881,607deec383975f3377a28b9e,64d2fd46c836a06233681665,64dc7ebf82aaae7350779d47,,,,,,,decisionTrl,resources/DP.BMP,resources/DB.BMP,WildCard_Ex,0.297222279,0.02870369,1,0,0,1.2947,optionRight,95,215,1,3,0,3,0,1,,,,,,,,,,,,,,,,,,,,,,,,,,,,,,,,,,,,,,,
,,,,,,,,2023-08-16_08h46.28.565,HF_wild_card,2022.2.4,Win32,59.96641881,607deec383975f3377a28b9e,64d2fd46c836a06233681665,64dc7ebf82aaae7350779d47,,,,,,,sngl,resources/Empty.png,resources/DY.BMP,Door4,0.307407379,0.026851831,1,0,0,1.8584,optionRight,60,275,1,4,0,4,0,1,,,,,,,,,,,,,,,,,,,,,,,,,,,,,,,,,,,,,,,
,,,,,,,,2023-08-16_08h46.28.565,HF_wild_card,2022.2.4,Win32,59.96641881,607deec383975f3377a28b9e,64d2fd46c836a06233681665,64dc7ebf82aaae7350779d47,,,,,,,sngl,resources/DY.BMP,resources/Empty.png,Door4,-0.262962977,0.018518519,1,0,0,1.0302,optionLeft,80,355,1,5,0,5,0,1,,,,,,,,,,,,,,,,,,,,,,,,,,,,,,,,,,,,,,,
,,,,,,,,2023-08-16_08h46.28.565,HF_wild_card,2022.2.4,Win32,59.96641881,607deec383975f3377a28b9e,64d2fd46c836a06233681665,64dc7ebf82aaae7350779d47,,,,,,,sngl,resources/DP.BMP,resources/Empty.png,Door1,-0.270370342,-0.017592607,1,0,0,0.9594,optionLeft,30,385,1,6,0,6,0,1,,,,,,,,,,,,,,,,,,,,,,,,,,,,,,,,,,,,,,,
,,,,,,,,2023-08-16_08h46.28.565,HF_wild_card,2022.2.4,Win32,59.96641881,607deec383975f3377a28b9e,64d2fd46c836a06233681665,64dc7ebf82aaae7350779d47,,,,,,,ctch,resources/DY.BMP,resources/DP.BMP,Door1,0.25462963,-0.011111118,1,0,0,1.1964,optionRight,30,415,1,7,0,7,0,1,,,,,,,,,,,,,,,,,,,,,,,,,,,,,,,,,,,,,,,
,,,,,,,,2023-08-16_08h46.28.565,HF_wild_card,2022.2.4,Win32,59.96641881,607deec383975f3377a28b9e,64d2fd46c836a06233681665,64dc7ebf82aaae7350779d47,,,,,,,ctch,resources/DBN.BMP,resources/DG.BMP,Door3,0.250925912,0.006481489,1,0,0,1.1471,optionRight,70,485,1,8,0,8,0,1,,,,,,,,,,,,,,,,,,,,,,,,,,,,,,,,,,,,,,,
,,,,,,,,2023-08-16_08h46.28.565,HF_wild_card,2022.2.4,Win32,59.96641881,607deec383975f3377a28b9e,64d2fd46c836a06233681665,64dc7ebf82aaae7350779d47,,,,,,,decisionTrl,resources/DB.BMP,resources/DG.BMP,Door3,0.312962991,-0.017592607,1,0,0,1.231,optionRight,70,555,1,9,0,9,0,1,,,,,,,,,,,,,,,,,,,,,,,,,,,,,,,,,,,,,,,
,,,,,,,,2023-08-16_08h46.28.565,HF_wild_card,2022.2.4,Win32,59.96641881,607deec383975f3377a28b9e,64d2fd46c836a06233681665,64dc7ebf82aaae7350779d47,,,,,,,decisionTrl,resources/DP.BMP,resources/DBN.BMP,Door1,-0.3824074,-0.133333347,1,0,0,1.4137,optionLeft,30,585,1,10,0,10,0,1,,,,,,,,,,,,,,,,,,,,,,,,,,,,,,,,,,,,,,,
,,,,,,,,2023-08-16_08h46.28.565,HF_wild_card,2022.2.4,Win32,59.96641881,607deec383975f3377a28b9e,64d2fd46c836a06233681665,64dc7ebf82aaae7350779d47,,,,,,,decisionTrl,resources/DY.BMP,resources/DB.BMP,WildCard_Ex,0.264814801,-0.011111118,1,0,0,1.3793,optionRight,95,680,1,11,0,11,0,1,,,,,,,,,,,,,,,,,,,,,,,,,,,,,,,,,,,,,,,
,,,,,,,,2023-08-16_08h46.28.565,HF_wild_card,2022.2.4,Win32,59.96641881,607deec383975f3377a28b9e,64d2fd46c836a06233681665,64dc7ebf82aaae7350779d47,,,,,,,sngl,resources/Empty.png,resources/DB.BMP,WildCard_Ex,0.271296325,0.033333319,1,0,0,0.9969,optionRight,95,775,1,12,0,12,0,1,,,,,,,,,,,,,,,,,,,,,,,,,,,,,,,,,,,,,,,
,,,,,,,,2023-08-16_08h46.28.565,HF_wild_card,2022.2.4,Win32,59.96641881,607deec383975f3377a28b9e,64d2fd46c836a06233681665,64dc7ebf82aaae7350779d47,,,,,,,decisionTrl,resources/DBN.BMP,resources/DP.BMP,Door1,0.300000085,-0.025925919,1,0,0,1.1636,optionRight,30,805,1,13,0,13,0,1,,,,,,,,,,,,,,,,,,,,,,,,,,,,,,,,,,,,,,,
,,,,,,,,2023-08-16_08h46.28.565,HF_wild_card,2022.2.4,Win32,59.96641881,607deec383975f3377a28b9e,64d2fd46c836a06233681665,64dc7ebf82aaae7350779d47,,,,,,,decisionTrl,resources/DB.BMP,resources/DY.BMP,WildCard_Ex,-0.282407407,-0.021296289,1,0,0,1.0636,optionLeft,5,810,1,14,0,14,0,1,,,,,,,,,,,,,,,,,,,,,,,,,,,,,,,,,,,,,,,
,,,,,,,,2023-08-16_08h46.28.565,HF_wild_card,2022.2.4,Win32,59.96641881,607deec383975f3377a28b9e,64d2fd46c836a06233681665,64dc7ebf82aaae7350779d47,,,,,,,decisionTrl,resources/DB.BMP,resources/DP.BMP,Door1,0.268518519,0.000925912,1,0,0,0.8641,optionRight,30,840,1,15,0,15,0,1,,,,,,,,,,,,,,,,,,,,,,,,,,,,,,,,,,,,,,,
,,,,,,,,2023-08-16_08h46.28.565,HF_wild_card,2022.2.4,Win32,59.96641881,607deec383975f3377a28b9e,64d2fd46c836a06233681665,64dc7ebf82aaae7350779d47,,,,,,,sngl,resources/DG.BMP,resources/Empty.png,Door3,-0.214814787,-0.011111118,1,0,0,1.4634,optionLeft,70,910,1,16,0,16,0,1,,,,,,,,,,,,,,,,,,,,,,,,,,,,,,,,,,,,,,,
,,,,,,,,2023-08-16_08h46.28.565,HF_wild_card,2022.2.4,Win32,59.96641881,607deec383975f3377a28b9e,64d2fd46c836a06233681665,64dc7ebf82aaae7350779d47,,,,,,,decisionTrl,resources/DG.BMP,resources/DY.BMP,Door3,-0.224999958,-0.008333347,1,0,0,1.9637,optionLeft,70,980,1,17,0,17,0,1,,,,,,,,,,,,,,,,,,,,,,,,,,,,,,,,,,,,,,,
,,,,,,,,2023-08-16_08h46.28.565,HF_wild_card,2022.2.4,Win32,59.96641881,607deec383975f3377a28b9e,64d2fd46c836a06233681665,64dc7ebf82aaae7350779d47,,,,,,,decisionTrl,resources/DY.BMP,resources/DG.BMP,Door3,0.264814801,-0.025925919,1,0,0,0.9284,optionRight,70,1050,1,18,0,18,0,1,,,,,,,,,,,,,,,,,,,,,,,,,,,,,,,,,,,,,,,
,,,,,,,,2023-08-16_08h46.28.565,HF_wild_card,2022.2.4,Win32,59.96641881,607deec383975f3377a28b9e,64d2fd46c836a06233681665,64dc7ebf82aaae7350779d47,,,,,,,sngl,resources/DB.BMP,resources/Empty.png,WildCard_Ex,-0.196296268,-0.046296296,1,0,0,0.713,optionLeft,95,1145,1,19,0,19,0,1,,,,,,,,,,,,,,,,,,,,,,,,,,,,,,,,,,,,,,,
,,,,,,,,2023-08-16_08h46.28.565,HF_wild_card,2022.2.4,Win32,59.96641881,607deec383975f3377a28b9e,64d2fd46c836a06233681665,64dc7ebf82aaae7350779d47,,,,,,,decisionTrl,resources/DB.BMP,resources/DBN.BMP,WildCard_Ex,-0.235185199,-0.060185185,1,0,0,0.878,optionLeft,5,1150,1,20,0,20,0,1,,,,,,,,,,,,,,,,,,,,,,,,,,,,,,,,,,,,,,,
,,,,,,,,2023-08-16_08h46.28.565,HF_wild_card,2022.2.4,Win32,59.96641881,607deec383975f3377a28b9e,64d2fd46c836a06233681665,64dc7ebf82aaae7350779d47,,,,,,,ctch,resources/DG.BMP,resources/DBN.BMP,Door3,-0.336111104,-0.059259273,1,0,0,0.662,optionLeft,70,1220,1,21,0,21,0,1,,,,,,,,,,,,,,,,,,,,,,,,,,,,,,,,,,,,,,,
,,,,,,,,2023-08-16_08h46.28.565,HF_wild_card,2022.2.4,Win32,59.96641881,607deec383975f3377a28b9e,64d2fd46c836a06233681665,64dc7ebf82aaae7350779d47,,,,,,,ctch,resources/DY.BMP,resources/DP.BMP,Door1,0.30277775,0.003703683,1,0,0,0.7958,optionRight,30,1250,1,22,0,22,0,1,,,,,,,,,,,,,,,,,,,,,,,,,,,,,,,,,,,,,,,
,,,,,,,,2023-08-16_08h46.28.565,HF_wild_card,2022.2.4,Win32,59.96641881,607deec383975f3377a28b9e,64d2fd46c836a06233681665,64dc7ebf82aaae7350779d47,,,,,,,decisionTrl,resources/DG.BMP,resources/DB.BMP,Door3,-0.353703711,-0.098148134,1,0,0,0.6487,optionLeft,70,1320,1,23,0,23,0,1,,,,,,,,,,,,,,,,,,,,,,,,,,,,,,,,,,,,,,,
,,,,,,,,2023-08-16_08h46.28.565,HF_wild_card,2022.2.4,Win32,59.96641881,607deec383975f3377a28b9e,64d2fd46c836a06233681665,64dc7ebf82aaae7350779d47,,,,,,,decisionTrl,resources/DP.BMP,resources/DBN.BMP,Door1,-0.181481467,-0.025000007,1,0,0,0.8009,optionLeft,30,1350,1,24,0,24,0,1,,,,,,,,,,,,,,,,,,,,,,,,,,,,,,,,,,,,,,,
,,,,,,,,2023-08-16_08h46.28.565,HF_wild_card,2022.2.4,Win32,59.96641881,607deec383975f3377a28b9e,64d2fd46c836a06233681665,64dc7ebf82aaae7350779d47,,,,,,,decisionTrl,resources/DG.BMP,resources/DY.BMP,Door3,-0.219444416,-0.026851866,1,0,0,0.9416,optionLeft,70,1420,1,25,0,25,0,1,,,,,,,,,,,,,,,,,,,,,,,,,,,,,,,,,,,,,,,
,,,,,,,,2023-08-16_08h46.28.565,HF_wild_card,2022.2.4,Win32,59.96641881,607deec383975f3377a28b9e,64d2fd46c836a06233681665,64dc7ebf82aaae7350779d47,,,,,,,decisionTrl,resources/DG.BMP,resources/DY.BMP,Door3,-0.26944443,-0.075925933,1,0,0,0.7929,optionLeft,70,1490,1,26,0,26,0,1,,,,,,,,,,,,,,,,,,,,,,,,,,,,,,,,,,,,,,,
,,,,,,,,2023-08-16_08h46.28.565,HF_wild_card,2022.2.4,Win32,59.96641881,607deec383975f3377a28b9e,64d2fd46c836a06233681665,64dc7ebf82aaae7350779d47,,,,,,,sngl,resources/Empty.png,resources/DBN.BMP,Door2,0.422222279,0,1,0,0,0.6633,optionRight,20,1510,1,27,0,27,0,1,,,,,,,,,,,,,,,,,,,,,,,,,,,,,,,,,,,,,,,
,,,,,,,,2023-08-16_08h46.28.565,HF_wild_card,2022.2.4,Win32,59.96641881,607deec383975f3377a28b9e,64d2fd46c836a06233681665,64dc7ebf82aaae7350779d47,,,,,,,decisionTrl,resources/DY.BMP,resources/DG.BMP,Door3,0.222222222,0.001851859,1,0,0,0.8953,optionRight,70,1580,1,28,0,28,0,1,,,,,,,,,,,,,,,,,,,,,,,,,,,,,,,,,,,,,,,
,,,,,,,,2023-08-16_08h46.28.565,HF_wild_card,2022.2.4,Win32,59.96641881,607deec383975f3377a28b9e,64d2fd46c836a06233681665,64dc7ebf82aaae7350779d47,,,,,,,decisionTrl,resources/DBN.BMP,resources/DP.BMP,Door1,0.426851908,-0.043518526,1,0,0,0.8625,optionRight,30,1610,1,29,0,29,0,1,,,,,,,,,,,,,,,,,,,,,,,,,,,,,,,,,,,,,,,
,,,,,,,,2023-08-16_08h46.28.565,HF_wild_card,2022.2.4,Win32,59.96641881,607deec383975f3377a28b9e,64d2fd46c836a06233681665,64dc7ebf82aaae7350779d47,,,,,,,sngl,resources/DBN.BMP,resources/Empty.png,Door2,-0.316666674,0.012962942,1,0,0,0.8457,optionLeft,40,1650,1,30,0,30,0,1,,,,,,,,,,,,,,,,,,,,,,,,,,,,,,,,,,,,,,,
,,,,,,,,2023-08-16_08h46.28.565,HF_wild_card,2022.2.4,Win32,59.96641881,607deec383975f3377a28b9e,64d2fd46c836a06233681665,64dc7ebf82aaae7350779d47,,,,,,,ctch,resources/DG.BMP,resources/DBN.BMP,Door3,-0.229629587,-0.01203703,1,0,0,0.5953,optionLeft,70,1720,1,31,0,31,0,1,,,,,,,,,,,,,,,,,,,,,,,,,,,,,,,,,,,,,,,
,,,,,,,,2023-08-16_08h46.28.565,HF_wild_card,2022.2.4,Win32,59.96641881,607deec383975f3377a28b9e,64d2fd46c836a06233681665,64dc7ebf82aaae7350779d47,,,,,,,ctch,resources/DBN.BMP,resources/DG.BMP,Door3,0.294444473,0.032407407,1,0,0,2.3623,optionRight,70,1790,1,32,0,32,0,1,,,,,,,,,,,,,,,,,,,,,,,,,,,,,,,,,,,,,,,
,,,,,,,,2023-08-16_08h46.28.565,HF_wild_card,2022.2.4,Win32,59.96641881,607deec383975f3377a28b9e,64d2fd46c836a06233681665,64dc7ebf82aaae7350779d47,,,,,,,decisionTrl,resources/DY.BMP,resources/DG.BMP,Door3,0.299074102,0.020370377,1,0,0,0.7457,optionRight,70,1860,1,33,0,33,0,1,,,,,,,,,,,,,,,,,,,,,,,,,,,,,,,,,,,,,,,
,,,,,,,,2023-08-16_08h46.28.565,HF_wild_card,2022.2.4,Win32,59.96641881,607deec383975f3377a28b9e,64d2fd46c836a06233681665,64dc7ebf82aaae7350779d47,,,,,,,sngl,resources/Empty.png,resources/DB.BMP,WildCard_Ex,0.208333333,-0.018518519,1,0,0,0.8809,optionRight,5,1865,1,34,0,34,0,1,,,,,,,,,,,,,,,,,,,,,,,,,,,,,,,,,,,,,,,
,,,,,,,,2023-08-16_08h46.28.565,HF_wild_card,2022.2.4,Win32,59.96641881,607deec383975f3377a28b9e,64d2fd46c836a06233681665,64dc7ebf82aaae7350779d47,,,,,,,decisionTrl,resources/DG.BMP,resources/DY.BMP,Door3,-0.319444444,-0.025925919,1,0,0,0.7814,optionLeft,70,1935,1,35,0,35,0,1,,,,,,,,,,,,,,,,,,,,,,,,,,,,,,,,,,,,,,,
,,,,,,,,2023-08-16_08h46.28.565,HF_wild_card,2022.2.4,Win32,59.96641881,607deec383975f3377a28b9e,64d2fd46c836a06233681665,64dc7ebf82aaae7350779d47,,,,,,,decisionTrl,resources/DBN.BMP,resources/DP.BMP,Door2,-0.250925912,-0.034259266,1,0,0,0.7683,optionLeft,20,1955,1,36,0,36,0,1,,,,,,,,,,,,,,,,,,,,,,,,,,,,,,,,,,,,,,,
,,,,,,,,2023-08-16_08h46.28.565,HF_wild_card,2022.2.4,Win32,59.96641881,607deec383975f3377a28b9e,64d2fd46c836a06233681665,64dc7ebf82aaae7350779d47,,,,,,,decisionTrl,resources/DY.BMP,resources/DG.BMP,Door3,0.241666653,0.023148148,1,0,0,0.7296,optionRight,70,2025,1,37,0,37,0,1,,,,,,,,,,,,,,,,,,,,,,,,,,,,,,,,,,,,,,,
,,,,,,,,2023-08-16_08h46.28.565,HF_wild_card,2022.2.4,Win32,59.96641881,607deec383975f3377a28b9e,64d2fd46c836a06233681665,64dc7ebf82aaae7350779d47,,,,,,,decisionTrl,resources/DP.BMP,resources/DBN.BMP,Door1,-0.311111097,-0.013888889,1,0,0,1.7975,optionLeft,30,2055,1,38,0,38,0,1,,,,,,,,,,,,,,,,,,,,,,,,,,,,,,,,,,,,,,,
,,,,,,,,2023-08-16_08h46.28.565,HF_wild_card,2022.2.4,Win32,59.96641881,607deec383975f3377a28b9e,64d2fd46c836a06233681665,64dc7ebf82aaae7350779d47,,,,,,,ctch,resources/DP.BMP,resources/DY.BMP,Door1,-0.23055557,-0.015740748,1,0,0,0.814,optionLeft,30,2085,1,39,0,39,0,1,,,,,,,,,,,,,,,,,,,,,,,,,,,,,,,,,,,,,,,
,,,,,,,,2023-08-16_08h46.28.565,HF_wild_card,2022.2.4,Win32,59.96641881,607deec383975f3377a28b9e,64d2fd46c836a06233681665,64dc7ebf82aaae7350779d47,,,,,,,ctch,resources/DP.BMP,resources/DY.BMP,Door4,0.184259273,0.01203703,1,0,0,1.7137,optionRight,80,2165,1,40,0,40,0,1,,,,,,,,,,,,,,,,,,,,,,,,,,,,,,,,,,,,,,,
,,,,,,,,2023-08-16_08h46.28.565,HF_wild_card,2022.2.4,Win32,59.96641881,607deec383975f3377a28b9e,64d2fd46c836a06233681665,64dc7ebf82aaae7350779d47,,,,,,,sngl,resources/DB.BMP,resources/Empty.png,WildCard_Ex,-0.27407406,-0.070370392,1,0,0,0.9468,optionLeft,5,2170,1,41,0,41,0,1,,,,,,,,,,,,,,,,,,,,,,,,,,,,,,,,,,,,,,,
,,,,,,,,2023-08-16_08h46.28.565,HF_wild_card,2022.2.4,Win32,59.96641881,607deec383975f3377a28b9e,64d2fd46c836a06233681665,64dc7ebf82aaae7350779d47,,,,,,,decisionTrl,resources/DBN.BMP,resources/DP.BMP,Door1,0.284259302,-0.00462963,1,0,0,2.3618,optionRight,30,2200,1,42,0,42,0,1,,,,,,,,,,,,,,,,,,,,,,,,,,,,,,,,,,,,,,,
,,,,,,,,2023-08-16_08h46.28.565,HF_wild_card,2022.2.4,Win32,59.96641881,607deec383975f3377a28b9e,64d2fd46c836a06233681665,64dc7ebf82aaae7350779d47,,,,,,,sngl,resources/Empty.png,resources/DP.BMP,Door1,0.215740769,-0.038888896,1,0,0,1.0131,optionRight,30,2230,1,43,0,43,0,1,,,,,,,,,,,,,,,,,,,,,,,,,,,,,,,,,,,,,,,
,,,,,,,,2023-08-16_08h46.28.565,HF_wild_card,2022.2.4,Win32,59.96641881,607deec383975f3377a28b9e,64d2fd46c836a06233681665,64dc7ebf82aaae7350779d47,,,,,,,,,,,,,,,,,,,,,,,,,,0,0,0,0,1,,,,,,,,,,,,,,,,,,,,,,,,,,,,,,,,,,
,,,,,,,,2023-08-16_08h46.28.565,HF_wild_card,2022.2.4,Win32,59.96641881,607deec383975f3377a28b9e,64d2fd46c836a06233681665,64dc7ebf82aaae7350779d47,,,,,,,decisionTrl,resources/DY.BMP,resources/DG.BMP,Door3,0.261111153,-0.117592635,1,0,0,0.7909,optionRight,70,2300,2,0,0,0,0,1,,,,,,,,,,,,,,,,,,,,,,,,,,,,,,,,,,,,,,,
,,,,,,,,2023-08-16_08h46.28.565,HF_wild_card,2022.2.4,Win32,59.96641881,607deec383975f3377a28b9e,64d2fd46c836a06233681665,64dc7ebf82aaae7350779d47,,,,,,,sngl,resources/Empty.png,resources/DP.BMP,Door1,0.259259259,-0.054629644,1,0,0,0.9813,optionRight,30,2330,2,1,0,1,0,1,,,,,,,,,,,,,,,,,,,,,,,,,,,,,,,,,,,,,,,
,,,,,,,,2023-08-16_08h46.28.565,HF_wild_card,2022.2.4,Win32,59.96641881,607deec383975f3377a28b9e,64d2fd46c836a06233681665,64dc7ebf82aaae7350779d47,,,,,,,ctch,resources/DBN.BMP,resources/DG.BMP,Door3,0.270370413,-0.045370384,1,0,0,1.7798,optionRight,70,2400,2,2,0,2,0,1,,,,,,,,,,,,,,,,,,,,,,,,,,,,,,,,,,,,,,,
,,,,,,,,2023-08-16_08h46.28.565,HF_wild_card,2022.2.4,Win32,59.96641881,607deec383975f3377a28b9e,64d2fd46c836a06233681665,64dc7ebf82aaae7350779d47,,,,,,,decisionTrl,resources/DG.BMP,resources/DB.BMP,Door3,-0.267592607,-0.003703718,1,0,0,1.0455,optionLeft,70,2470,2,3,0,3,0,1,,,,,,,,,,,,,,,,,,,,,,,,,,,,,,,,,,,,,,,
,,,,,,,,2023-08-16_08h46.28.565,HF_wild_card,2022.2.4,Win32,59.96641881,607deec383975f3377a28b9e,64d2fd46c836a06233681665,64dc7ebf82aaae7350779d47,,,,,,,sngl,resources/Empty.png,resources/DG.BMP,Door3,0.249074088,-0.024074095,1,0,0,0.7644,optionRight,70,2540,2,4,0,4,0,1,,,,,,,,,,,,,,,,,,,,,,,,,,,,,,,,,,,,,,,
,,,,,,,,2023-08-16_08h46.28.565,HF_wild_card,2022.2.4,Win32,59.96641881,607deec383975f3377a28b9e,64d2fd46c836a06233681665,64dc7ebf82aaae7350779d47,,,,,,,ctch,resources/DP.BMP,resources/DY.BMP,Door4,0.224074116,-0.083333333,1,0,0,1.5972,optionRight,60,2600,2,5,0,5,0,1,,,,,,,,,,,,,,,,,,,,,,,,,,,,,,,,,,,,,,,
,,,,,,,,2023-08-16_08h46.28.565,HF_wild_card,2022.2.4,Win32,59.96641881,607deec383975f3377a28b9e,64d2fd46c836a06233681665,64dc7ebf82aaae7350779d47,,,,,,,ctch,resources/DBN.BMP,resources/DG.BMP,Door3,0.225000028,0.010185171,1,0,0,0.6296,optionRight,70,2670,2,6,0,6,0,1,,,,,,,,,,,,,,,,,,,,,,,,,,,,,,,,,,,,,,,
,,,,,,,,2023-08-16_08h46.28.565,HF_wild_card,2022.2.4,Win32,59.96641881,607deec383975f3377a28b9e,64d2fd46c836a06233681665,64dc7ebf82aaae7350779d47,,,,,,,sngl,resources/DY.BMP,resources/Empty.png,Door4,-0.251851824,-0.061111132,1,0,0,0.5804,optionLeft,60,2730,2,7,0,7,0,1,,,,,,,,,,,,,,,,,,,,,,,,,,,,,,,,,,,,,,,
,,,,,,,,2023-08-16_08h46.28.565,HF_wild_card,2022.2.4,Win32,59.96641881,607deec383975f3377a28b9e,64d2fd46c836a06233681665,64dc7ebf82aaae7350779d47,,,,,,,decisionTrl,resources/DY.BMP,resources/DG.BMP,Door3,0.375925982,-0.025000007,1,0,0,0.6456,optionRight,70,2800,2,8,0,8,0,1,,,,,,,,,,,,,,,,,,,,,,,,,,,,,,,,,,,,,,,
,,,,,,,,2023-08-16_08h46.28.565,HF_wild_card,2022.2.4,Win32,59.96641881,607deec383975f3377a28b9e,64d2fd46c836a06233681665,64dc7ebf82aaae7350779d47,,,,,,,sngl,resources/DG.BMP,resources/Empty.png,Door3,-0.351851852,-0.006481489,1,0,0,0.7752,optionLeft,70,2870,2,9,0,9,0,1,,,,,,,,,,,,,,,,,,,,,,,,,,,,,,,,,,,,,,,
,,,,,,,,2023-08-16_08h46.28.565,HF_wild_card,2022.2.4,Win32,59.96641881,607deec383975f3377a28b9e,64d2fd46c836a06233681665,64dc7ebf82aaae7350779d47,,,,,,,decisionTrl,resources/DBN.BMP,resources/DP.BMP,Door2,-0.228703675,-0.048148155,1,0,0,3.1305,optionLeft,20,2890,2,10,0,10,0,1,,,,,,,,,,,,,,,,,,,,,,,,,,,,,,,,,,,,,,,
,,,,,,,,2023-08-16_08h46.28.565,HF_wild_card,2022.2.4,Win32,59.96641881,607deec383975f3377a28b9e,64d2fd46c836a06233681665,64dc7ebf82aaae7350779d47,,,,,,,ctch,resources/DY.BMP,resources/DP.BMP,Door4,-0.290740755,-0.029629637,1,0,0,1.0306,optionLeft,80,2970,2,11,0,11,0,1,,,,,,,,,,,,,,,,,,,,,,,,,,,,,,,,,,,,,,,
,,,,,,,,2023-08-16_08h46.28.565,HF_wild_card,2022.2.4,Win32,59.96641881,607deec383975f3377a28b9e,64d2fd46c836a06233681665,64dc7ebf82aaae7350779d47,,,,,,,decisionTrl,resources/DP.BMP,resources/DBN.BMP,Door1,-0.242592564,-0.055555556,1,0,0,1.5143,optionLeft,30,3000,2,12,0,12,0,1,,,,,,,,,,,,,,,,,,,,,,,,,,,,,,,,,,,,,,,
,,,,,,,,2023-08-16_08h46.28.565,HF_wild_card,2022.2.4,Win32,59.96641881,607deec383975f3377a28b9e,64d2fd46c836a06233681665,64dc7ebf82aaae7350779d47,,,,,,,decisionTrl,resources/DB.BMP,resources/DBN.BMP,WildCard_Ex,-0.06759255,-0.00462963,1,0,0,0.833,optionLeft,5,3005,2,13,0,13,0,1,,,,,,,,,,,,,,,,,,,,,,,,,,,,,,,,,,,,,,,
,,,,,,,,2023-08-16_08h46.28.565,HF_wild_card,2022.2.4,Win32,59.96641881,607deec383975f3377a28b9e,64d2fd46c836a06233681665,64dc7ebf82aaae7350779d47,,,,,,,decisionTrl,resources/DG.BMP,resources/DY.BMP,Door3,-0.285185143,-0.057407414,1,0,0,0.9311,optionLeft,70,3075,2,14,0,14,0,1,,,,,,,,,,,,,,,,,,,,,,,,,,,,,,,,,,,,,,,
,,,,,,,,2023-08-16_08h46.28.565,HF_wild_card,2022.2.4,Win32,59.96641881,607deec383975f3377a28b9e,64d2fd46c836a06233681665,64dc7ebf82aaae7350779d47,,,,,,,sngl,resources/DP.BMP,resources/Empty.png,Door1,-0.290740755,-0.055555556,1,0,0,0.7292,optionLeft,30,3105,2,15,0,15,0,1,,,,,,,,,,,,,,,,,,,,,,,,,,,,,,,,,,,,,,,
,,,,,,,,2023-08-16_08h46.28.565,HF_wild_card,2022.2.4,Win32,59.96641881,607deec383975f3377a28b9e,64d2fd46c836a06233681665,64dc7ebf82aaae7350779d47,,,,,,,decisionTrl,resources/DP.BMP,resources/DB.BMP,Door1,-0.317592586,-0.049074067,1,0,0,0.8626,optionLeft,30,3135,2,16,0,16,0,1,,,,,,,,,,,,,,,,,,,,,,,,,,,,,,,,,,,,,,,
,,,,,,,,2023-08-16_08h46.28.565,HF_wild_card,2022.2.4,Win32,59.96641881,607deec383975f3377a28b9e,64d2fd46c836a06233681665,64dc7ebf82aaae7350779d47,,,,,,,decisionTrl,resources/DY.BMP,resources/DB.BMP,Door4,-0.360185164,-0.040740755,1,0,0,0.6307,optionLeft,60,3195,2,17,0,17,0,1,,,,,,,,,,,,,,,,,,,,,,,,,,,,,,,,,,,,,,,
,,,,,,,,2023-08-16_08h46.28.565,HF_wild_card,2022.2.4,Win32,59.96641881,607deec383975f3377a28b9e,64d2fd46c836a06233681665,64dc7ebf82aaae7350779d47,,,,,,,decisionTrl,resources/DY.BMP,resources/DG.BMP,Door4,-0.224074046,-0.017592607,1,0,0,0.664,optionLeft,60,3255,2,18,0,18,0,1,,,,,,,,,,,,,,,,,,,,,,,,,,,,,,,,,,,,,,,
,,,,,,,,2023-08-16_08h46.28.565,HF_wild_card,2022.2.4,Win32,59.96641881,607deec383975f3377a28b9e,64d2fd46c836a06233681665,64dc7ebf82aaae7350779d47,,,,,,,sngl,resources/Empty.png,resources/DBN.BMP,Door2,0.179629644,0.003703683,1,0,0,0.9977,optionRight,40,3295,2,19,0,19,0,1,,,,,,,,,,,,,,,,,,,,,,,,,,,,,,,,,,,,,,,
,,,,,,,,2023-08-16_08h46.28.565,HF_wild_card,2022.2.4,Win32,59.96641881,607deec383975f3377a28b9e,64d2fd46c836a06233681665,64dc7ebf82aaae7350779d47,,,,,,,sngl,resources/Empty.png,resources/DB.BMP,WildCard_Ex,0.237963005,0.01666666,1,0,0,1.0471,optionRight,95,3390,2,20,0,20,0,1,,,,,,,,,,,,,,,,,,,,,,,,,,,,,,,,,,,,,,,
,,,,,,,,2023-08-16_08h46.28.565,HF_wild_card,2022.2.4,Win32,59.96641881,607deec383975f3377a28b9e,64d2fd46c836a06233681665,64dc7ebf82aaae7350779d47,,,,,,,decisionTrl,resources/DP.BMP,resources/DBN.BMP,Door1,-0.204629616,-0.043518526,1,0,0,1.1618,optionLeft,30,3420,2,21,0,21,0,1,,,,,,,,,,,,,,,,,,,,,,,,,,,,,,,,,,,,,,,
,,,,,,,,2023-08-16_08h46.28.565,HF_wild_card,2022.2.4,Win32,59.96641881,607deec383975f3377a28b9e,64d2fd46c836a06233681665,64dc7ebf82aaae7350779d47,,,,,,,decisionTrl,resources/DP.BMP,resources/DBN.BMP,Door1,-0.239814829,-0.01666666,1,0,0,1.0808,optionLeft,30,3450,2,22,0,22,0,1,,,,,,,,,,,,,,,,,,,,,,,,,,,,,,,,,,,,,,,
,,,,,,,,2023-08-16_08h46.28.565,HF_wild_card,2022.2.4,Win32,59.96641881,607deec383975f3377a28b9e,64d2fd46c836a06233681665,64dc7ebf82aaae7350779d47,,,,,,,ctch,resources/DG.BMP,resources/DBN.BMP,Door3,-0.25,0.027777778,1,0,0,0.814,optionLeft,70,3520,2,23,0,23,0,1,,,,,,,,,,,,,,,,,,,,,,,,,,,,,,,,,,,,,,,
,,,,,,,,2023-08-16_08h46.28.565,HF_wild_card,2022.2.4,Win32,59.96641881,607deec383975f3377a28b9e,64d2fd46c836a06233681665,64dc7ebf82aaae7350779d47,,,,,,,decisionTrl,resources/DBN.BMP,resources/DB.BMP,WildCard_Ex,0.285185213,-0.00462963,1,0,0,0.8124,optionRight,95,3615,2,24,0,24,0,1,,,,,,,,,,,,,,,,,,,,,,,,,,,,,,,,,,,,,,,
,,,,,,,,2023-08-16_08h46.28.565,HF_wild_card,2022.2.4,Win32,59.96641881,607deec383975f3377a28b9e,64d2fd46c836a06233681665,64dc7ebf82aaae7350779d47,,,,,,,ctch,resources/DY.BMP,resources/DP.BMP,Door4,-0.243518476,-0.047222243,1,0,0,1.3715,optionLeft,60,3675,2,25,0,25,0,1,,,,,,,,,,,,,,,,,,,,,,,,,,,,,,,,,,,,,,,
,,,,,,,,2023-08-16_08h46.28.565,HF_wild_card,2022.2.4,Win32,59.96641881,607deec383975f3377a28b9e,64d2fd46c836a06233681665,64dc7ebf82aaae7350779d47,,,,,,,decisionTrl,resources/DG.BMP,resources/DY.BMP,Door3,-0.189814815,-0.057407414,1,0,0,1.9126,optionLeft,70,3745,2,26,0,26,0,1,,,,,,,,,,,,,,,,,,,,,,,,,,,,,,,,,,,,,,,
,,,,,,,,2023-08-16_08h46.28.565,HF_wild_card,2022.2.4,Win32,59.96641881,607deec383975f3377a28b9e,64d2fd46c836a06233681665,64dc7ebf82aaae7350779d47,,,,,,,decisionTrl,resources/DBN.BMP,resources/DP.BMP,Door1,0.179629644,-0.023148148,1,0,0,0.912,optionRight,30,3775,2,27,0,27,0,1,,,,,,,,,,,,,,,,,,,,,,,,,,,,,,,,,,,,,,,
,,,,,,,,2023-08-16_08h46.28.565,HF_wild_card,2022.2.4,Win32,59.96641881,607deec383975f3377a28b9e,64d2fd46c836a06233681665,64dc7ebf82aaae7350779d47,,,,,,,sngl,resources/DBN.BMP,resources/Empty.png,Door2,-0.149999972,-0.01666666,1,0,0,1.1507,optionLeft,20,3795,2,28,0,28,0,1,,,,,,,,,,,,,,,,,,,,,,,,,,,,,,,,,,,,,,,
,,,,,,,,2023-08-16_08h46.28.565,HF_wild_card,2022.2.4,Win32,59.96641881,607deec383975f3377a28b9e,64d2fd46c836a06233681665,64dc7ebf82aaae7350779d47,,,,,,,decisionTrl,resources/DB.BMP,resources/DP.BMP,WildCard_Ex,-0.207407422,-0.035185178,1,0,0,0.9309,optionLeft,5,3800,2,29,0,29,0,1,,,,,,,,,,,,,,,,,,,,,,,,,,,,,,,,,,,,,,,
,,,,,,,,2023-08-16_08h46.28.565,HF_wild_card,2022.2.4,Win32,59.96641881,607deec383975f3377a28b9e,64d2fd46c836a06233681665,64dc7ebf82aaae7350779d47,,,,,,,ctch,resources/DP.BMP,resources/DY.BMP,Door4,0.263888889,-0.024074095,1,0,0,0.9253,optionRight,60,3860,2,30,0,30,0,1,,,,,,,,,,,,,,,,,,,,,,,,,,,,,,,,,,,,,,,
,,,,,,,,2023-08-16_08h46.28.565,HF_wild_card,2022.2.4,Win32,59.96641881,607deec383975f3377a28b9e,64d2fd46c836a06233681665,64dc7ebf82aaae7350779d47,,,,,,,decisionTrl,resources/DBN.BMP,resources/DP.BMP,Door1,0.283333319,-0.026851866,1,0,0,1.2141,optionRight,30,3890,2,31,0,31,0,1,,,,,,,,,,,,,,,,,,,,,,,,,,,,,,,,,,,,,,,
,,,,,,,,2023-08-16_08h46.28.565,HF_wild_card,2022.2.4,Win32,59.96641881,607deec383975f3377a28b9e,64d2fd46c836a06233681665,64dc7ebf82aaae7350779d47,,,,,,,decisionTrl,resources/DG.BMP,resources/DY.BMP,Door3,-0.421296296,0.00462963,1,0,0,2.3305,optionLeft,70,3960,2,32,0,32,0,1,,,,,,,,,,,,,,,,,,,,,,,,,,,,,,,,,,,,,,,
,,,,,,,,2023-08-16_08h46.28.565,HF_wild_card,2022.2.4,Win32,59.96641881,607deec383975f3377a28b9e,64d2fd46c836a06233681665,64dc7ebf82aaae7350779d47,,,,,,,decisionTrl,resources/DG.BMP,resources/DY.BMP,Door3,-0.312962956,-0.065740762,1,0,0,0.9269,optionLeft,70,4030,2,33,0,33,0,1,,,,,,,,,,,,,,,,,,,,,,,,,,,,,,,,,,,,,,,
,,,,,,,,2023-08-16_08h46.28.565,HF_wild_card,2022.2.4,Win32,59.96641881,607deec383975f3377a28b9e,64d2fd46c836a06233681665,64dc7ebf82aaae7350779d47,,,,,,,decisionTrl,resources/DP.BMP,resources/DBN.BMP,Door1,-0.324999986,-0.049074067,1,0,0,1.2507,optionLeft,30,4060,2,34,0,34,0,1,,,,,,,,,,,,,,,,,,,,,,,,,,,,,,,,,,,,,,,
,,,,,,,,2023-08-16_08h46.28.565,HF_wild_card,2022.2.4,Win32,59.96641881,607deec383975f3377a28b9e,64d2fd46c836a06233681665,64dc7ebf82aaae7350779d47,,,,,,,decisionTrl,resources/DY.BMP,resources/DG.BMP,Door3,0.064814815,0.01944443,1,0,0,1.409,optionRight,70,4130,2,35,0,35,0,1,,,,,,,,,,,,,,,,,,,,,,,,,,,,,,,,,,,,,,,
,,,,,,,,2023-08-16_08h46.28.565,HF_wild_card,2022.2.4,Win32,59.96641881,607deec383975f3377a28b9e,64d2fd46c836a06233681665,64dc7ebf82aaae7350779d47,,,,,,,sngl,resources/DB.BMP,resources/Empty.png,WildCard_Ex,-0.25,-0.041666667,1,0,0,1.0137,optionLeft,5,4135,2,36,0,36,0,1,,,,,,,,,,,,,,,,,,,,,,,,,,,,,,,,,,,,,,,
,,,,,,,,2023-08-16_08h46.28.565,HF_wild_card,2022.2.4,Win32,59.96641881,607deec383975f3377a28b9e,64d2fd46c836a06233681665,64dc7ebf82aaae7350779d47,,,,,,,decisionTrl,resources/DB.BMP,resources/DG.BMP,Door3,0.213888875,-0.021296289,1,0,0,1.2181,optionRight,70,4205,2,37,0,37,0,1,,,,,,,,,,,,,,,,,,,,,,,,,,,,,,,,,,,,,,,
,,,,,,,,2023-08-16_08h46.28.565,HF_wild_card,2022.2.4,Win32,59.96641881,607deec383975f3377a28b9e,64d2fd46c836a06233681665,64dc7ebf82aaae7350779d47,,,,,,,ctch,resources/DG.BMP,resources/DBN.BMP,Door3,-0.193518533,-0.047222243,1,0,0,0.931,optionLeft,70,4275,2,38,0,38,0,1,,,,,,,,,,,,,,,,,,,,,,,,,,,,,,,,,,,,,,,
,,,,,,,,2023-08-16_08h46.28.565,HF_wild_card,2022.2.4,Win32,59.96641881,607deec383975f3377a28b9e,64d2fd46c836a06233681665,64dc7ebf82aaae7350779d47,,,,,,,sngl,resources/Empty.png,resources/DY.BMP,Door4,0.162962949,-0.013888889,1,0,0,0.8132,optionRight,80,4355,2,39,0,39,0,1,,,,,,,,,,,,,,,,,,,,,,,,,,,,,,,,,,,,,,,
,,,,,,,,2023-08-16_08h46.28.565,HF_wild_card,2022.2.4,Win32,59.96641881,607deec383975f3377a28b9e,64d2fd46c836a06233681665,64dc7ebf82aaae7350779d47,,,,,,,decisionTrl,resources/DB.BMP,resources/DY.BMP,Door4,0.291666667,-0.052777785,1,0,0,0.6806,optionRight,80,4435,2,40,0,40,0,1,,,,,,,,,,,,,,,,,,,,,,,,,,,,,,,,,,,,,,,
,,,,,,,,2023-08-16_08h46.28.565,HF_wild_card,2022.2.4,Win32,59.96641881,607deec383975f3377a28b9e,64d2fd46c836a06233681665,64dc7ebf82aaae7350779d47,,,,,,,sngl,resources/Empty.png,resources/DB.BMP,WildCard_Ex,0.187962991,-0.049074067,1,0,0,0.8126,optionRight,5,4440,2,41,0,41,0,1,,,,,,,,,,,,,,,,,,,,,,,,,,,,,,,,,,,,,,,
,,,,,,,,2023-08-16_08h46.28.565,HF_wild_card,2022.2.4,Win32,59.96641881,607deec383975f3377a28b9e,64d2fd46c836a06233681665,64dc7ebf82aaae7350779d47,,,,,,,decisionTrl,resources/DBN.BMP,resources/DP.BMP,Door1,0.287962949,-0.050925926,1,0,0,0.8761,optionRight,30,4470,2,42,0,42,0,1,,,,,,,,,,,,,,,,,,,,,,,,,,,,,,,,,,,,,,,
,,,,,,,,2023-08-16_08h46.28.565,HF_wild_card,2022.2.4,Win32,59.96641881,607deec383975f3377a28b9e,64d2fd46c836a06233681665,64dc7ebf82aaae7350779d47,,,,,,,sngl,resources/DB.BMP,resources/Empty.png,WildCard_Ex,-0.229629587,0.002777771,1,0,0,0.8468,optionLeft,95,4565,2,43,0,43,0,1,,,,,,,,,,,,,,,,,,,,,,,,,,,,,,,,,,,,,,,
,,,,,,,,2023-08-16_08h46.28.565,HF_wild_card,2022.2.4,Win32,59.96641881,607deec383975f3377a28b9e,64d2fd46c836a06233681665,64dc7ebf82aaae7350779d47,,,,,,,,,,,,,,,,,,,,,,,,,,1,0,1,0,1,,,,,,,,,,,,,,,,,,,,,,,,,,,,,,,,,,
,,,,,,,,2023-08-16_08h46.28.565,HF_wild_card,2022.2.4,Win32,59.96641881,607deec383975f3377a28b9e,64d2fd46c836a06233681665,64dc7ebf82aaae7350779d47,,,,,,,sngl,resources/DG.BMP,resources/Empty.png,Door3,-0.298148155,-0.112037023,1,0,0,1.0124,optionLeft,70,4635,3,0,0,0,0,1,,,,,,,,,,,,,,,,,,,,,,,,,,,,,,,,,,,,,,,
,,,,,,,,2023-08-16_08h46.28.565,HF_wild_card,2022.2.4,Win32,59.96641881,607deec383975f3377a28b9e,64d2fd46c836a06233681665,64dc7ebf82aaae7350779d47,,,,,,,decisionTrl,resources/DG.BMP,resources/DY.BMP,Door4,0.22129631,-0.024074095,1,0,0,1.143,optionRight,80,4715,3,1,0,1,0,1,,,,,,,,,,,,,,,,,,,,,,,,,,,,,,,,,,,,,,,
,,,,,,,,2023-08-16_08h46.28.565,HF_wild_card,2022.2.4,Win32,59.96641881,607deec383975f3377a28b9e,64d2fd46c836a06233681665,64dc7ebf82aaae7350779d47,,,,,,,decisionTrl,resources/DB.BMP,resources/DP.BMP,WildCard_Ex,-0.235185199,-0.064814815,1,0,0,0.9319,optionLeft,95,4810,3,2,0,2,0,1,,,,,,,,,,,,,,,,,,,,,,,,,,,,,,,,,,,,,,,
,,,,,,,,2023-08-16_08h46.28.565,HF_wild_card,2022.2.4,Win32,59.96641881,607deec383975f3377a28b9e,64d2fd46c836a06233681665,64dc7ebf82aaae7350779d47,,,,,,,decisionTrl,resources/DG.BMP,resources/DY.BMP,Door4,0.257407436,-0.033333355,1,0,0,1.6389,optionRight,60,4870,3,3,0,3,0,1,,,,,,,,,,,,,,,,,,,,,,,,,,,,,,,,,,,,,,,
,,,,,,,,2023-08-16_08h46.28.565,HF_wild_card,2022.2.4,Win32,59.96641881,607deec383975f3377a28b9e,64d2fd46c836a06233681665,64dc7ebf82aaae7350779d47,,,,,,,decisionTrl,resources/DBN.BMP,resources/DP.BMP,Door1,0.257407436,-0.008333347,1,0,0,1.2962,optionRight,30,4900,3,4,0,4,0,1,,,,,,,,,,,,,,,,,,,,,,,,,,,,,,,,,,,,,,,
,,,,,,,,2023-08-16_08h46.28.565,HF_wild_card,2022.2.4,Win32,59.96641881,607deec383975f3377a28b9e,64d2fd46c836a06233681665,64dc7ebf82aaae7350779d47,,,,,,,sngl,resources/DBN.BMP,resources/Empty.png,Door2,-0.348148134,-0.032407407,1,0,0,0.5954,optionLeft,40,4940,3,5,0,5,0,1,,,,,,,,,,,,,,,,,,,,,,,,,,,,,,,,,,,,,,,
,,,,,,,,2023-08-16_08h46.28.565,HF_wild_card,2022.2.4,Win32,59.96641881,607deec383975f3377a28b9e,64d2fd46c836a06233681665,64dc7ebf82aaae7350779d47,,,,,,,decisionTrl,resources/DY.BMP,resources/DG.BMP,Door3,0.212962963,-0.049074067,1,0,0,2.0155,optionRight,70,5010,3,6,0,6,0,1,,,,,,,,,,,,,,,,,,,,,,,,,,,,,,,,,,,,,,,
,,,,,,,,2023-08-16_08h46.28.565,HF_wild_card,2022.2.4,Win32,59.96641881,607deec383975f3377a28b9e,64d2fd46c836a06233681665,64dc7ebf82aaae7350779d47,,,,,,,decisionTrl,resources/DB.BMP,resources/DBN.BMP,WildCard_Ex,-0.251851824,0.000925912,1,0,0,0.8084,optionLeft,5,5015,3,7,0,7,0,1,,,,,,,,,,,,,,,,,,,,,,,,,,,,,,,,,,,,,,,
,,,,,,,,2023-08-16_08h46.28.565,HF_wild_card,2022.2.4,Win32,59.96641881,607deec383975f3377a28b9e,64d2fd46c836a06233681665,64dc7ebf82aaae7350779d47,,,,,,,ctch,resources/DP.BMP,resources/DY.BMP,Door4,0.213888875,-0.009259259,1,0,0,1.1282,optionRight,80,5095,3,8,0,8,0,1,,,,,,,,,,,,,,,,,,,,,,,,,,,,,,,,,,,,,,,
,,,,,,,,2023-08-16_08h46.28.565,HF_wild_card,2022.2.4,Win32,59.96641881,607deec383975f3377a28b9e,64d2fd46c836a06233681665,64dc7ebf82aaae7350779d47,,,,,,,decisionTrl,resources/DY.BMP,resources/DG.BMP,Door4,-0.285185143,0.010185171,1,0,0,0.7656,optionLeft,80,5175,3,9,0,9,0,1,,,,,,,,,,,,,,,,,,,,,,,,,,,,,,,,,,,,,,,
,,,,,,,,2023-08-16_08h46.28.565,HF_wild_card,2022.2.4,Win32,59.96641881,607deec383975f3377a28b9e,64d2fd46c836a06233681665,64dc7ebf82aaae7350779d47,,,,,,,sngl,resources/DP.BMP,resources/Empty.png,Door1,-0.22129631,-0.019444466,1,0,0,0.8185,optionLeft,30,5205,3,10,0,10,0,1,,,,,,,,,,,,,,,,,,,,,,,,,,,,,,,,,,,,,,,
,,,,,,,,2023-08-16_08h46.28.565,HF_wild_card,2022.2.4,Win32,59.96641881,607deec383975f3377a28b9e,64d2fd46c836a06233681665,64dc7ebf82aaae7350779d47,,,,,,,sngl,resources/Empty.png,resources/DP.BMP,Door1,0.335185157,-0.017592607,1,0,0,0.678,optionRight,30,5235,3,11,0,11,0,1,,,,,,,,,,,,,,,,,,,,,,,,,,,,,,,,,,,,,,,
,,,,,,,,2023-08-16_08h46.28.565,HF_wild_card,2022.2.4,Win32,59.96641881,607deec383975f3377a28b9e,64d2fd46c836a06233681665,64dc7ebf82aaae7350779d47,,,,,,,sngl,resources/DB.BMP,resources/Empty.png,WildCard_Ex,-0.263888889,-0.002777771,1,0,0,0.7465,optionLeft,95,5330,3,12,0,12,0,1,,,,,,,,,,,,,,,,,,,,,,,,,,,,,,,,,,,,,,,
,,,,,,,,2023-08-16_08h46.28.565,HF_wild_card,2022.2.4,Win32,59.96641881,607deec383975f3377a28b9e,64d2fd46c836a06233681665,64dc7ebf82aaae7350779d47,,,,,,,decisionTrl,resources/DP.BMP,resources/DB.BMP,Door1,-0.264814801,-0.040740755,1,0,0,1.243,optionLeft,30,5360,3,13,0,13,0,1,,,,,,,,,,,,,,,,,,,,,,,,,,,,,,,,,,,,,,,
,,,,,,,,2023-08-16_08h46.28.565,HF_wild_card,2022.2.4,Win32,59.96641881,607deec383975f3377a28b9e,64d2fd46c836a06233681665,64dc7ebf82aaae7350779d47,,,,,,,sngl,resources/Empty.png,resources/DB.BMP,WildCard_Ex,0.285185213,-0.030555548,1,0,0,0.614,optionRight,5,5365,3,14,0,14,0,1,,,,,,,,,,,,,,,,,,,,,,,,,,,,,,,,,,,,,,,
,,,,,,,,2023-08-16_08h46.28.565,HF_wild_card,2022.2.4,Win32,59.96641881,607deec383975f3377a28b9e,64d2fd46c836a06233681665,64dc7ebf82aaae7350779d47,,,,,,,decisionTrl,resources/DY.BMP,resources/DG.BMP,Door4,-0.315740727,0,1,0,0,0.6985,optionLeft,80,5445,3,15,0,15,0,1,,,,,,,,,,,,,,,,,,,,,,,,,,,,,,,,,,,,,,,
,,,,,,,,2023-08-16_08h46.28.565,HF_wild_card,2022.2.4,Win32,59.96641881,607deec383975f3377a28b9e,64d2fd46c836a06233681665,64dc7ebf82aaae7350779d47,,,,,,,decisionTrl,resources/DG.BMP,resources/DY.BMP,Door3,-0.324999986,0.01203703,1,0,0,0.591,optionLeft,70,5515,3,16,0,16,0,1,,,,,,,,,,,,,,,,,,,,,,,,,,,,,,,,,,,,,,,
,,,,,,,,2023-08-16_08h46.28.565,HF_wild_card,2022.2.4,Win32,59.96641881,607deec383975f3377a28b9e,64d2fd46c836a06233681665,64dc7ebf82aaae7350779d47,,,,,,,decisionTrl,resources/DP.BMP,resources/DBN.BMP,Door1,-0.353703711,0.01203703,1,0,0,0.7638,optionLeft,30,5545,3,17,0,17,0,1,,,,,,,,,,,,,,,,,,,,,,,,,,,,,,,,,,,,,,,
,,,,,,,,2023-08-16_08h46.28.565,HF_wild_card,2022.2.4,Win32,59.96641881,607deec383975f3377a28b9e,64d2fd46c836a06233681665,64dc7ebf82aaae7350779d47,,,,,,,ctch,resources/DG.BMP,resources/DBN.BMP,Door3,-0.352777764,-0.005555577,1,0,0,0.6124,optionLeft,70,5615,3,18,0,18,0,1,,,,,,,,,,,,,,,,,,,,,,,,,,,,,,,,,,,,,,,
,,,,,,,,2023-08-16_08h46.28.565,HF_wild_card,2022.2.4,Win32,59.96641881,607deec383975f3377a28b9e,64d2fd46c836a06233681665,64dc7ebf82aaae7350779d47,,,,,,,ctch,resources/DBN.BMP,resources/DG.BMP,Door3,0.224074116,-0.012962977,1,0,0,0.6308,optionRight,70,5685,3,19,0,19,0,1,,,,,,,,,,,,,,,,,,,,,,,,,,,,,,,,,,,,,,,
,,,,,,,,2023-08-16_08h46.28.565,HF_wild_card,2022.2.4,Win32,59.96641881,607deec383975f3377a28b9e,64d2fd46c836a06233681665,64dc7ebf82aaae7350779d47,,,,,,,decisionTrl,resources/DB.BMP,resources/DY.BMP,WildCard_Ex,-0.275925884,-0.069444444,1,0,0,1.1806,optionLeft,95,5780,3,20,0,20,0,1,,,,,,,,,,,,,,,,,,,,,,,,,,,,,,,,,,,,,,,
,,,,,,,,2023-08-16_08h46.28.565,HF_wild_card,2022.2.4,Win32,59.96641881,607deec383975f3377a28b9e,64d2fd46c836a06233681665,64dc7ebf82aaae7350779d47,,,,,,,ctch,resources/DY.BMP,resources/DP.BMP,Door4,-0.256481453,0.014814801,1,0,0,0.625,optionLeft,60,5840,3,21,0,21,0,1,,,,,,,,,,,,,,,,,,,,,,,,,,,,,,,,,,,,,,,
,,,,,,,,2023-08-16_08h46.28.565,HF_wild_card,2022.2.4,Win32,59.96641881,607deec383975f3377a28b9e,64d2fd46c836a06233681665,64dc7ebf82aaae7350779d47,,,,,,,decisionTrl,resources/DY.BMP,resources/DB.BMP,Door4,-0.271296254,-0.008333347,1,0,0,0.7797,optionLeft,80,5920,3,22,0,22,0,1,,,,,,,,,,,,,,,,,,,,,,,,,,,,,,,,,,,,,,,
,,,,,,,,2023-08-16_08h46.28.565,HF_wild_card,2022.2.4,Win32,59.96641881,607deec383975f3377a28b9e,64d2fd46c836a06233681665,64dc7ebf82aaae7350779d47,,,,,,,sngl,resources/Empty.png,resources/DG.BMP,Door3,0.259259259,-0.017592607,1,0,0,0.6609,optionRight,70,5990,3,23,0,23,0,1,,,,,,,,,,,,,,,,,,,,,,,,,,,,,,,,,,,,,,,
,,,,,,,,2023-08-16_08h46.28.565,HF_wild_card,2022.2.4,Win32,59.96641881,607deec383975f3377a28b9e,64d2fd46c836a06233681665,64dc7ebf82aaae7350779d47,,,,,,,decisionTrl,resources/DBN.BMP,resources/DP.BMP,Door2,-0.302777785,-0.029629637,1,0,0,1.0981,optionLeft,20,6010,3,24,0,24,0,1,,,,,,,,,,,,,,,,,,,,,,,,,,,,,,,,,,,,,,,
,,,,,,,,2023-08-16_08h46.28.565,HF_wild_card,2022.2.4,Win32,59.96641881,607deec383975f3377a28b9e,64d2fd46c836a06233681665,64dc7ebf82aaae7350779d47,,,,,,,decisionTrl,resources/DBN.BMP,resources/DB.BMP,WildCard_Ex,0.338888945,-0.0074074,1,0,0,0.7468,optionRight,5,6015,3,25,0,25,0,1,,,,,,,,,,,,,,,,,,,,,,,,,,,,,,,,,,,,,,,
,,,,,,,,2023-08-16_08h46.28.565,HF_wild_card,2022.2.4,Win32,59.96641881,607deec383975f3377a28b9e,64d2fd46c836a06233681665,64dc7ebf82aaae7350779d47,,,,,,,decisionTrl,resources/DG.BMP,resources/DB.BMP,Door3,-0.263888889,-0.012962977,1,0,0,0.7767,optionLeft,70,6085,3,26,0,26,0,1,,,,,,,,,,,,,,,,,,,,,,,,,,,,,,,,,,,,,,,
,,,,,,,,2023-08-16_08h46.28.565,HF_wild_card,2022.2.4,Win32,59.96641881,607deec383975f3377a28b9e,64d2fd46c836a06233681665,64dc7ebf82aaae7350779d47,,,,,,,decisionTrl,resources/DP.BMP,resources/DBN.BMP,Door1,-0.246296282,-0.009259259,1,0,0,0.8475,optionLeft,30,6115,3,27,0,27,0,1,,,,,,,,,,,,,,,,,,,,,,,,,,,,,,,,,,,,,,,
,,,,,,,,2023-08-16_08h46.28.565,HF_wild_card,2022.2.4,Win32,59.96641881,607deec383975f3377a28b9e,64d2fd46c836a06233681665,64dc7ebf82aaae7350779d47,,,,,,,decisionTrl,resources/DB.BMP,resources/DG.BMP,WildCard_Ex,-0.213888875,-0.025000007,1,0,0,0.9813,optionLeft,5,6120,3,28,0,28,0,1,,,,,,,,,,,,,,,,,,,,,,,,,,,,,,,,,,,,,,,
,,,,,,,,2023-08-16_08h46.28.565,HF_wild_card,2022.2.4,Win32,59.96641881,607deec383975f3377a28b9e,64d2fd46c836a06233681665,64dc7ebf82aaae7350779d47,,,,,,,sngl,resources/Empty.png,resources/DBN.BMP,Door2,0.255555541,-0.034259266,1,0,0,0.8175,optionRight,20,6140,3,29,0,29,0,1,,,,,,,,,,,,,,,,,,,,,,,,,,,,,,,,,,,,,,,
,,,,,,,,2023-08-16_08h46.28.565,HF_wild_card,2022.2.4,Win32,59.96641881,607deec383975f3377a28b9e,64d2fd46c836a06233681665,64dc7ebf82aaae7350779d47,,,,,,,decisionTrl,resources/DBN.BMP,resources/DP.BMP,Door1,0.186111097,-0.052777785,1,0,0,1.113,optionRight,30,6170,3,30,0,30,0,1,,,,,,,,,,,,,,,,,,,,,,,,,,,,,,,,,,,,,,,
,,,,,,,,2023-08-16_08h46.28.565,HF_wild_card,2022.2.4,Win32,59.96641881,607deec383975f3377a28b9e,64d2fd46c836a06233681665,64dc7ebf82aaae7350779d47,,,,,,,sngl,resources/Empty.png,resources/DY.BMP,Door4,0.329629686,-0.024074095,1,0,0,0.6971,optionRight,60,6230,3,31,0,31,0,1,,,,,,,,,,,,,,,,,,,,,,,,,,,,,,,,,,,,,,,
,,,,,,,,2023-08-16_08h46.28.565,HF_wild_card,2022.2.4,Win32,59.96641881,607deec383975f3377a28b9e,64d2fd46c836a06233681665,64dc7ebf82aaae7350779d47,,,,,,,sngl,resources/DB.BMP,resources/Empty.png,WildCard_Ex,-0.314814815,-0.015740748,1,0,0,0.692,optionLeft,5,6235,3,32,0,32,0,1,,,,,,,,,,,,,,,,,,,,,,,,,,,,,,,,,,,,,,,
,,,,,,,,2023-08-16_08h46.28.565,HF_wild_card,2022.2.4,Win32,59.96641881,607deec383975f3377a28b9e,64d2fd46c836a06233681665,64dc7ebf82aaae7350779d47,,,,,,,ctch,resources/DG.BMP,resources/DBN.BMP,Door3,-0.249074088,-0.011111118,1,0,0,0.6468,optionLeft,70,6305,3,33,0,33,0,1,,,,,,,,,,,,,,,,,,,,,,,,,,,,,,,,,,,,,,,
,,,,,,,,2023-08-16_08h46.28.565,HF_wild_card,2022.2.4,Win32,59.96641881,607deec383975f3377a28b9e,64d2fd46c836a06233681665,64dc7ebf82aaae7350779d47,,,,,,,ctch,resources/DBN.BMP,resources/DG.BMP,Door3,0.213888875,-0.01666666,1,0,0,0.663,optionRight,70,6375,3,34,0,34,0,1,,,,,,,,,,,,,,,,,,,,,,,,,,,,,,,,,,,,,,,
,,,,,,,,2023-08-16_08h46.28.565,HF_wild_card,2022.2.4,Win32,59.96641881,607deec383975f3377a28b9e,64d2fd46c836a06233681665,64dc7ebf82aaae7350779d47,,,,,,,decisionTrl,resources/DBN.BMP,resources/DP.BMP,Door1,0.198148162,-0.034259266,1,0,0,1.0643,optionRight,30,6405,3,35,0,35,0,1,,,,,,,,,,,,,,,,,,,,,,,,,,,,,,,,,,,,,,,
,,,,,,,,2023-08-16_08h46.28.565,HF_wild_card,2022.2.4,Win32,59.96641881,607deec383975f3377a28b9e,64d2fd46c836a06233681665,64dc7ebf82aaae7350779d47,,,,,,,ctch,resources/DP.BMP,resources/DY.BMP,Door1,-0.202777792,0.001851859,1,0,0,0.6752,optionLeft,30,6435,3,36,0,36,0,1,,,,,,,,,,,,,,,,,,,,,,,,,,,,,,,,,,,,,,,
,,,,,,,,2023-08-16_08h46.28.565,HF_wild_card,2022.2.4,Win32,59.96641881,607deec383975f3377a28b9e,64d2fd46c836a06233681665,64dc7ebf82aaae7350779d47,,,,,,,decisionTrl,resources/DY.BMP,resources/DG.BMP,Door4,-0.291666667,0.000925912,1,0,0,0.6144,optionLeft,60,6495,3,37,0,37,0,1,,,,,,,,,,,,,,,,,,,,,,,,,,,,,,,,,,,,,,,
,,,,,,,,2023-08-16_08h46.28.565,HF_wild_card,2022.2.4,Win32,59.96641881,607deec383975f3377a28b9e,64d2fd46c836a06233681665,64dc7ebf82aaae7350779d47,,,,,,,decisionTrl,resources/DG.BMP,resources/DY.BMP,Door4,0.102777764,0.000925912,1,0,0,0.9836,optionRight,60,6555,3,38,0,38,0,1,,,,,,,,,,,,,,,,,,,,,,,,,,,,,,,,,,,,,,,
,,,,,,,,2023-08-16_08h46.28.565,HF_wild_card,2022.2.4,Win32,59.96641881,607deec383975f3377a28b9e,64d2fd46c836a06233681665,64dc7ebf82aaae7350779d47,,,,,,,sngl,resources/DY.BMP,resources/Empty.png,Door4,-0.297222208,-0.000925947,1,0,0,0.6644,optionLeft,80,6635,3,39,0,39,0,1,,,,,,,,,,,,,,,,,,,,,,,,,,,,,,,,,,,,,,,
,,,,,,,,2023-08-16_08h46.28.565,HF_wild_card,2022.2.4,Win32,59.96641881,607deec383975f3377a28b9e,64d2fd46c836a06233681665,64dc7ebf82aaae7350779d47,,,,,,,decisionTrl,resources/DP.BMP,resources/DBN.BMP,Door2,0.27870369,0.01944443,1,0,0,0.9802,optionRight,40,6675,3,40,0,40,0,1,,,,,,,,,,,,,,,,,,,,,,,,,,,,,,,,,,,,,,,
,,,,,,,,2023-08-16_08h46.28.565,HF_wild_card,2022.2.4,Win32,59.96641881,607deec383975f3377a28b9e,64d2fd46c836a06233681665,64dc7ebf82aaae7350779d47,,,,,,,sngl,resources/Empty.png,resources/DB.BMP,WildCard_Ex,0.262962977,-0.008333347,1,0,0,0.8141,optionRight,95,6770,3,41,0,41,0,1,,,,,,,,,,,,,,,,,,,,,,,,,,,,,,,,,,,,,,,
,,,,,,,,2023-08-16_08h46.28.565,HF_wild_card,2022.2.4,Win32,59.96641881,607deec383975f3377a28b9e,64d2fd46c836a06233681665,64dc7ebf82aaae7350779d47,,,,,,,decisionTrl,resources/DP.BMP,resources/DBN.BMP,Door1,-0.335185192,-0.057407414,1,0,0,0.6496,optionLeft,30,6800,3,42,0,42,0,1,,,,,,,,,,,,,,,,,,,,,,,,,,,,,,,,,,,,,,,
,,,,,,,,2023-08-16_08h46.28.565,HF_wild_card,2022.2.4,Win32,59.96641881,607deec383975f3377a28b9e,64d2fd46c836a06233681665,64dc7ebf82aaae7350779d47,,,,,,,ctch,resources/DY.BMP,resources/DP.BMP,Door4,-0.212962963,-0.018518519,1,0,0,0.5975,optionLeft,80,6880,3,43,0,43,0,1,,,,,,,,,,,,,,,,,,,,,,,,,,,,,,,,,,,,,,,
,,,,,,,,2023-08-16_08h46.28.565,HF_wild_card,2022.2.4,Win32,59.96641881,607deec383975f3377a28b9e,64d2fd46c836a06233681665,64dc7ebf82aaae7350779d47,,,,,,,,,,,,,,,,,,,,,,,,,,2,0,2,0,1,,,,,,,,,,,,,,,,,,,,,,,,,,,,,,,,,,
,,,,,,,,2023-08-16_08h46.28.565,HF_wild_card,2022.2.4,Win32,59.96641881,607deec383975f3377a28b9e,64d2fd46c836a06233681665,64dc7ebf82aaae7350779d47,,,,,,,ctch,resources/DY.BMP,resources/DP.BMP,Door4,-0.282407407,-0.111111111,1,0,0,0.7294,optionLeft,60,6940,4,0,0,0,0,1,,,,,,,,,,,,,,,,,,,,,,,,,,,,,,,,,,,,,,,
,,,,,,,,2023-08-16_08h46.28.565,HF_wild_card,2022.2.4,Win32,59.96641881,607deec383975f3377a28b9e,64d2fd46c836a06233681665,64dc7ebf82aaae7350779d47,,,,,,,decisionTrl,resources/DBN.BMP,resources/DP.BMP,Door1,0.20185188,-0.015740748,1,0,0,0.7305,optionRight,30,6970,4,1,0,1,0,1,,,,,,,,,,,,,,,,,,,,,,,,,,,,,,,,,,,,,,,
,,,,,,,,2023-08-16_08h46.28.565,HF_wild_card,2022.2.4,Win32,59.96641881,607deec383975f3377a28b9e,64d2fd46c836a06233681665,64dc7ebf82aaae7350779d47,,,,,,,decisionTrl,resources/DBN.BMP,resources/DP.BMP,Door2,-0.174074032,0.027777778,1,0,0,0.6976,optionLeft,20,6990,4,2,0,2,0,1,,,,,,,,,,,,,,,,,,,,,,,,,,,,,,,,,,,,,,,
,,,,,,,,2023-08-16_08h46.28.565,HF_wild_card,2022.2.4,Win32,59.96641881,607deec383975f3377a28b9e,64d2fd46c836a06233681665,64dc7ebf82aaae7350779d47,,,,,,,decisionTrl,resources/DG.BMP,resources/DY.BMP,Door4,0.22592594,-0.003703718,1,0,0,0.627,optionRight,60,7050,4,3,0,3,0,1,,,,,,,,,,,,,,,,,,,,,,,,,,,,,,,,,,,,,,,
,,,,,,,,2023-08-16_08h46.28.565,HF_wild_card,2022.2.4,Win32,59.96641881,607deec383975f3377a28b9e,64d2fd46c836a06233681665,64dc7ebf82aaae7350779d47,,,,,,,sngl,resources/DY.BMP,resources/Empty.png,Door4,-0.223148134,0.025925919,1,0,0,0.548,optionLeft,60,7110,4,4,0,4,0,1,,,,,,,,,,,,,,,,,,,,,,,,,,,,,,,,,,,,,,,
,,,,,,,,2023-08-16_08h46.28.565,HF_wild_card,2022.2.4,Win32,59.96641881,607deec383975f3377a28b9e,64d2fd46c836a06233681665,64dc7ebf82aaae7350779d47,,,,,,,decisionTrl,resources/DP.BMP,resources/DBN.BMP,Door1,-0.286111125,-0.002777771,1,0,0,0.648,optionLeft,30,7140,4,5,0,5,0,1,,,,,,,,,,,,,,,,,,,,,,,,,,,,,,,,,,,,,,,
,,,,,,,,2023-08-16_08h46.28.565,HF_wild_card,2022.2.4,Win32,59.96641881,607deec383975f3377a28b9e,64d2fd46c836a06233681665,64dc7ebf82aaae7350779d47,,,,,,,ctch,resources/DBN.BMP,resources/DG.BMP,Door3,0.235185199,-0.018518519,1,0,0,0.5971,optionRight,70,7210,4,6,0,6,0,1,,,,,,,,,,,,,,,,,,,,,,,,,,,,,,,,,,,,,,,
,,,,,,,,2023-08-16_08h46.28.565,HF_wild_card,2022.2.4,Win32,59.96641881,607deec383975f3377a28b9e,64d2fd46c836a06233681665,64dc7ebf82aaae7350779d47,,,,,,,decisionTrl,resources/DP.BMP,resources/DBN.BMP,Door1,-0.301851838,0.002777771,1,0,0,0.5806,optionLeft,30,7240,4,7,0,7,0,1,,,,,,,,,,,,,,,,,,,,,,,,,,,,,,,,,,,,,,,
,,,,,,,,2023-08-16_08h46.28.565,HF_wild_card,2022.2.4,Win32,59.96641881,607deec383975f3377a28b9e,64d2fd46c836a06233681665,64dc7ebf82aaae7350779d47,,,,,,,sngl,resources/DP.BMP,resources/Empty.png,Door1,-0.265740712,-0.024074095,1,0,0,0.5304,optionLeft,30,7270,4,8,0,8,0,1,,,,,,,,,,,,,,,,,,,,,,,,,,,,,,,,,,,,,,,
,,,,,,,,2023-08-16_08h46.28.565,HF_wild_card,2022.2.4,Win32,59.96641881,607deec383975f3377a28b9e,64d2fd46c836a06233681665,64dc7ebf82aaae7350779d47,,,,,,,decisionTrl,resources/DBN.BMP,resources/DP.BMP,Door1,0.279629672,0.001851859,1,0,0,0.6308,optionRight,30,7300,4,9,0,9,0,1,,,,,,,,,,,,,,,,,,,,,,,,,,,,,,,,,,,,,,,
,,,,,,,,2023-08-16_08h46.28.565,HF_wild_card,2022.2.4,Win32,59.96641881,607deec383975f3377a28b9e,64d2fd46c836a06233681665,64dc7ebf82aaae7350779d47,,,,,,,sngl,resources/Empty.png,resources/DY.BMP,Door4,0.225000028,-0.023148148,1,0,0,0.6302,optionRight,80,7380,4,10,0,10,0,1,,,,,,,,,,,,,,,,,,,,,,,,,,,,,,,,,,,,,,,
,,,,,,,,2023-08-16_08h46.28.565,HF_wild_card,2022.2.4,Win32,59.96641881,607deec383975f3377a28b9e,64d2fd46c836a06233681665,64dc7ebf82aaae7350779d47,,,,,,,ctch,resources/DG.BMP,resources/DBN.BMP,Door3,-0.249074088,0.000925912,1,0,0,0.6145,optionLeft,70,7450,4,11,0,11,0,1,,,,,,,,,,,,,,,,,,,,,,,,,,,,,,,,,,,,,,,
,,,,,,,,2023-08-16_08h46.28.565,HF_wild_card,2022.2.4,Win32,59.96641881,607deec383975f3377a28b9e,64d2fd46c836a06233681665,64dc7ebf82aaae7350779d47,,,,,,,sngl,resources/Empty.png,resources/DG.BMP,Door3,0.225000028,-0.006481489,1,0,0,0.5624,optionRight,70,7520,4,12,0,12,0,1,,,,,,,,,,,,,,,,,,,,,,,,,,,,,,,,,,,,,,,
,,,,,,,,2023-08-16_08h46.28.565,HF_wild_card,2022.2.4,Win32,59.96641881,607deec383975f3377a28b9e,64d2fd46c836a06233681665,64dc7ebf82aaae7350779d47,,,,,,,decisionTrl,resources/DR.BMP,resources/DG.BMP,WildCard_NonEx,-0.284259231,-0.025000007,1,0,0,1.0636,optionLeft,55,7575,4,13,0,13,0,1,,,,,,,,,,,,,,,,,,,,,,,,,,,,,,,,,,,,,,,
,,,,,,,,2023-08-16_08h46.28.565,HF_wild_card,2022.2.4,Win32,59.96641881,607deec383975f3377a28b9e,64d2fd46c836a06233681665,64dc7ebf82aaae7350779d47,,,,,,,decisionTrl,resources/DP.BMP,resources/DBN.BMP,Door1,-0.281481496,-0.003703718,1,0,0,0.5975,optionLeft,30,7605,4,14,0,14,0,1,,,,,,,,,,,,,,,,,,,,,,,,,,,,,,,,,,,,,,,
,,,,,,,,2023-08-16_08h46.28.565,HF_wild_card,2022.2.4,Win32,59.96641881,607deec383975f3377a28b9e,64d2fd46c836a06233681665,64dc7ebf82aaae7350779d47,,,,,,,sngl,resources/DBN.BMP,resources/Empty.png,Door2,-0.191666638,-0.000925947,1,0,0,0.53,optionLeft,20,7625,4,15,0,15,0,1,,,,,,,,,,,,,,,,,,,,,,,,,,,,,,,,,,,,,,,
,,,,,,,,2023-08-16_08h46.28.565,HF_wild_card,2022.2.4,Win32,59.96641881,607deec383975f3377a28b9e,64d2fd46c836a06233681665,64dc7ebf82aaae7350779d47,,,,,,,decisionTrl,resources/DY.BMP,resources/DR.BMP,Door4,-0.26944443,-0.020370377,1,0,0,0.5924,optionLeft,60,7685,4,16,0,16,0,1,,,,,,,,,,,,,,,,,,,,,,,,,,,,,,,,,,,,,,,
,,,,,,,,2023-08-16_08h46.28.565,HF_wild_card,2022.2.4,Win32,59.96641881,607deec383975f3377a28b9e,64d2fd46c836a06233681665,64dc7ebf82aaae7350779d47,,,,,,,sngl,resources/Empty.png,resources/DR.BMP,WildCard_NonEx,0.263888889,0.010185171,1,0,0,0.5628,optionRight,45,7730,4,17,0,17,0,1,,,,,,,,,,,,,,,,,,,,,,,,,,,,,,,,,,,,,,,
,,,,,,,,2023-08-16_08h46.28.565,HF_wild_card,2022.2.4,Win32,59.96641881,607deec383975f3377a28b9e,64d2fd46c836a06233681665,64dc7ebf82aaae7350779d47,,,,,,,sngl,resources/Empty.png,resources/DP.BMP,Door1,0.187037079,-0.020370377,1,0,0,0.6948,optionRight,30,7760,4,18,0,18,0,1,,,,,,,,,,,,,,,,,,,,,,,,,,,,,,,,,,,,,,,
,,,,,,,,2023-08-16_08h46.28.565,HF_wild_card,2022.2.4,Win32,59.96641881,607deec383975f3377a28b9e,64d2fd46c836a06233681665,64dc7ebf82aaae7350779d47,,,,,,,sngl,resources/DG.BMP,resources/Empty.png,Door3,-0.158333319,0.012962942,1,0,0,0.5498,optionLeft,70,7830,4,19,0,19,0,1,,,,,,,,,,,,,,,,,,,,,,,,,,,,,,,,,,,,,,,
,,,,,,,,2023-08-16_08h46.28.565,HF_wild_card,2022.2.4,Win32,59.96641881,607deec383975f3377a28b9e,64d2fd46c836a06233681665,64dc7ebf82aaae7350779d47,,,,,,,decisionTrl,resources/DR.BMP,resources/DY.BMP,WildCard_NonEx,-0.216666681,-0.025925919,1,0,0,1.3306,optionLeft,45,7875,4,20,0,20,0,1,,,,,,,,,,,,,,,,,,,,,,,,,,,,,,,,,,,,,,,
,,,,,,,,2023-08-16_08h46.28.565,HF_wild_card,2022.2.4,Win32,59.96641881,607deec383975f3377a28b9e,64d2fd46c836a06233681665,64dc7ebf82aaae7350779d47,,,,,,,decisionTrl,resources/DBN.BMP,resources/DR.BMP,WildCard_NonEx,0.20185188,-0.022222236,1,0,0,0.7636,optionRight,55,7930,4,21,0,21,0,1,,,,,,,,,,,,,,,,,,,,,,,,,,,,,,,,,,,,,,,
,,,,,,,,2023-08-16_08h46.28.565,HF_wild_card,2022.2.4,Win32,59.96641881,607deec383975f3377a28b9e,64d2fd46c836a06233681665,64dc7ebf82aaae7350779d47,,,,,,,decisionTrl,resources/DR.BMP,resources/DP.BMP,WildCard_NonEx,-0.243518476,-0.002777771,1,0,0,0.6946,optionLeft,55,7985,4,22,0,22,0,1,,,,,,,,,,,,,,,,,,,,,,,,,,,,,,,,,,,,,,,
,,,,,,,,2023-08-16_08h46.28.565,HF_wild_card,2022.2.4,Win32,59.96641881,607deec383975f3377a28b9e,64d2fd46c836a06233681665,64dc7ebf82aaae7350779d47,,,,,,,decisionTrl,resources/DY.BMP,resources/DG.BMP,Door4,-0.223148134,-0.001851859,1,0,0,0.612,optionLeft,60,8045,4,23,0,23,0,1,,,,,,,,,,,,,,,,,,,,,,,,,,,,,,,,,,,,,,,
,,,,,,,,2023-08-16_08h46.28.565,HF_wild_card,2022.2.4,Win32,59.96641881,607deec383975f3377a28b9e,64d2fd46c836a06233681665,64dc7ebf82aaae7350779d47,,,,,,,ctch,resources/DP.BMP,resources/DY.BMP,Door4,0.268518519,-0.038888896,1,0,0,0.5924,optionRight,60,8105,4,24,0,24,0,1,,,,,,,,,,,,,,,,,,,,,,,,,,,,,,,,,,,,,,,
,,,,,,,,2023-08-16_08h46.28.565,HF_wild_card,2022.2.4,Win32,59.96641881,607deec383975f3377a28b9e,64d2fd46c836a06233681665,64dc7ebf82aaae7350779d47,,,,,,,ctch,resources/DP.BMP,resources/DY.BMP,Door4,0.247222265,0,1,0,0,0.6303,optionRight,80,8185,4,25,0,25,0,1,,,,,,,,,,,,,,,,,,,,,,,,,,,,,,,,,,,,,,,
,,,,,,,,2023-08-16_08h46.28.565,HF_wild_card,2022.2.4,Win32,59.96641881,607deec383975f3377a28b9e,64d2fd46c836a06233681665,64dc7ebf82aaae7350779d47,,,,,,,sngl,resources/Empty.png,resources/DR.BMP,WildCard_NonEx,0.276851866,-0.017592607,1,0,0,0.8924,optionRight,55,8240,4,26,0,26,0,1,,,,,,,,,,,,,,,,,,,,,,,,,,,,,,,,,,,,,,,
,,,,,,,,2023-08-16_08h46.28.565,HF_wild_card,2022.2.4,Win32,59.96641881,607deec383975f3377a28b9e,64d2fd46c836a06233681665,64dc7ebf82aaae7350779d47,,,,,,,sngl,resources/Empty.png,resources/DBN.BMP,Door2,0.305555556,-0.020370377,1,0,0,0.6806,optionRight,40,8280,4,27,0,27,0,1,,,,,,,,,,,,,,,,,,,,,,,,,,,,,,,,,,,,,,,
,,,,,,,,2023-08-16_08h46.28.565,HF_wild_card,2022.2.4,Win32,59.96641881,607deec383975f3377a28b9e,64d2fd46c836a06233681665,64dc7ebf82aaae7350779d47,,,,,,,decisionTrl,resources/DG.BMP,resources/DY.BMP,Door3,-0.23055557,-0.024074095,1,0,0,0.6818,optionLeft,70,8350,4,28,0,28,0,1,,,,,,,,,,,,,,,,,,,,,,,,,,,,,,,,,,,,,,,
,,,,,,,,2023-08-16_08h46.28.565,HF_wild_card,2022.2.4,Win32,59.96641881,607deec383975f3377a28b9e,64d2fd46c836a06233681665,64dc7ebf82aaae7350779d47,,,,,,,ctch,resources/DY.BMP,resources/DP.BMP,Door4,-0.260185171,-0.026851866,1,0,0,0.576,optionLeft,80,8430,4,29,0,29,0,1,,,,,,,,,,,,,,,,,,,,,,,,,,,,,,,,,,,,,,,
,,,,,,,,2023-08-16_08h46.28.565,HF_wild_card,2022.2.4,Win32,59.96641881,607deec383975f3377a28b9e,64d2fd46c836a06233681665,64dc7ebf82aaae7350779d47,,,,,,,decisionTrl,resources/DG.BMP,resources/DR.BMP,Door3,-0.217592593,-0.01666666,1,0,0,0.5965,optionLeft,70,8500,4,30,0,30,0,1,,,,,,,,,,,,,,,,,,,,,,,,,,,,,,,,,,,,,,,
,,,,,,,,2023-08-16_08h46.28.565,HF_wild_card,2022.2.4,Win32,59.96641881,607deec383975f3377a28b9e,64d2fd46c836a06233681665,64dc7ebf82aaae7350779d47,,,,,,,sngl,resources/DR.BMP,resources/Empty.png,WildCard_NonEx,-0.198148162,0,1,0,0,0.5582,optionLeft,55,8555,4,31,0,31,0,1,,,,,,,,,,,,,,,,,,,,,,,,,,,,,,,,,,,,,,,
,,,,,,,,2023-08-16_08h46.28.565,HF_wild_card,2022.2.4,Win32,59.96641881,607deec383975f3377a28b9e,64d2fd46c836a06233681665,64dc7ebf82aaae7350779d47,,,,,,,decisionTrl,resources/DP.BMP,resources/DBN.BMP,Door1,-0.264814801,-0.050000014,1,0,0,0.6126,optionLeft,30,8585,4,32,0,32,0,1,,,,,,,,,,,,,,,,,,,,,,,,,,,,,,,,,,,,,,,
,,,,,,,,2023-08-16_08h46.28.565,HF_wild_card,2022.2.4,Win32,59.96641881,607deec383975f3377a28b9e,64d2fd46c836a06233681665,64dc7ebf82aaae7350779d47,,,,,,,ctch,resources/DG.BMP,resources/DBN.BMP,Door3,-0.170370384,-0.030555548,1,0,0,0.7807,optionLeft,70,8655,4,33,0,33,0,1,,,,,,,,,,,,,,,,,,,,,,,,,,,,,,,,,,,,,,,
,,,,,,,,2023-08-16_08h46.28.565,HF_wild_card,2022.2.4,Win32,59.96641881,607deec383975f3377a28b9e,64d2fd46c836a06233681665,64dc7ebf82aaae7350779d47,,,,,,,decisionTrl,resources/DG.BMP,resources/DY.BMP,Door4,0.260185171,0.015740748,1,0,0,0.8625,optionRight,60,8715,4,34,0,34,0,1,,,,,,,,,,,,,,,,,,,,,,,,,,,,,,,,,,,,,,,
,,,,,,,,2023-08-16_08h46.28.565,HF_wild_card,2022.2.4,Win32,59.96641881,607deec383975f3377a28b9e,64d2fd46c836a06233681665,64dc7ebf82aaae7350779d47,,,,,,,ctch,resources/DBN.BMP,resources/DG.BMP,Door3,0.175925926,-0.01203703,1,0,0,0.7273,optionRight,70,8785,4,35,0,35,0,1,,,,,,,,,,,,,,,,,,,,,,,,,,,,,,,,,,,,,,,
,,,,,,,,2023-08-16_08h46.28.565,HF_wild_card,2022.2.4,Win32,59.96641881,607deec383975f3377a28b9e,64d2fd46c836a06233681665,64dc7ebf82aaae7350779d47,,,,,,,decisionTrl,resources/DP.BMP,resources/DR.BMP,Door1,-0.178703661,-0.014814836,1,0,0,0.6302,optionLeft,30,8815,4,36,0,36,0,1,,,,,,,,,,,,,,,,,,,,,,,,,,,,,,,,,,,,,,,
,,,,,,,,2023-08-16_08h46.28.565,HF_wild_card,2022.2.4,Win32,59.96641881,607deec383975f3377a28b9e,64d2fd46c836a06233681665,64dc7ebf82aaae7350779d47,,,,,,,decisionTrl,resources/DY.BMP,resources/DG.BMP,Door3,0.264814801,-0.029629637,1,0,0,1.4495,optionRight,70,8885,4,37,0,37,0,1,,,,,,,,,,,,,,,,,,,,,,,,,,,,,,,,,,,,,,,
,,,,,,,,2023-08-16_08h46.28.565,HF_wild_card,2022.2.4,Win32,59.96641881,607deec383975f3377a28b9e,64d2fd46c836a06233681665,64dc7ebf82aaae7350779d47,,,,,,,sngl,resources/DR.BMP,resources/Empty.png,WildCard_NonEx,-0.143518519,-0.005555577,1,0,0,0.608,optionLeft,45,8930,4,38,0,38,0,1,,,,,,,,,,,,,,,,,,,,,,,,,,,,,,,,,,,,,,,
,,,,,,,,2023-08-16_08h46.28.565,HF_wild_card,2022.2.4,Win32,59.96641881,607deec383975f3377a28b9e,64d2fd46c836a06233681665,64dc7ebf82aaae7350779d47,,,,,,,decisionTrl,resources/DY.BMP,resources/DG.BMP,Door4,-0.241666653,-0.022222236,1,0,0,0.7307,optionLeft,80,9010,4,39,0,39,0,1,,,,,,,,,,,,,,,,,,,,,,,,,,,,,,,,,,,,,,,
,,,,,,,,2023-08-16_08h46.28.565,HF_wild_card,2022.2.4,Win32,59.96641881,607deec383975f3377a28b9e,64d2fd46c836a06233681665,64dc7ebf82aaae7350779d47,,,,,,,decisionTrl,resources/DBN.BMP,resources/DP.BMP,Door2,-0.195370356,-0.022222236,1,0,0,0.685,optionLeft,20,9030,4,40,0,40,0,1,,,,,,,,,,,,,,,,,,,,,,,,,,,,,,,,,,,,,,,
,,,,,,,,2023-08-16_08h46.28.565,HF_wild_card,2022.2.4,Win32,59.96641881,607deec383975f3377a28b9e,64d2fd46c836a06233681665,64dc7ebf82aaae7350779d47,,,,,,,decisionTrl,resources/DR.BMP,resources/DBN.BMP,WildCard_NonEx,-0.083333333,-0.014814836,1,0,0,0.6758,optionLeft,45,9075,4,41,0,41,0,1,,,,,,,,,,,,,,,,,,,,,,,,,,,,,,,,,,,,,,,
,,,,,,,,2023-08-16_08h46.28.565,HF_wild_card,2022.2.4,Win32,59.96641881,607deec383975f3377a28b9e,64d2fd46c836a06233681665,64dc7ebf82aaae7350779d47,,,,,,,decisionTrl,resources/DG.BMP,resources/DY.BMP,Door4,0.235185199,0.01944443,1,0,0,0.7306,optionRight,80,9155,4,42,0,42,0,1,,,,,,,,,,,,,,,,,,,,,,,,,,,,,,,,,,,,,,,
,,,,,,,,2023-08-16_08h46.28.565,HF_wild_card,2022.2.4,Win32,59.96641881,607deec383975f3377a28b9e,64d2fd46c836a06233681665,64dc7ebf82aaae7350779d47,,,,,,,decisionTrl,resources/DY.BMP,resources/DG.BMP,Door4,-0.216666681,-0.061111132,1,0,0,0.6478,optionLeft,80,9235,4,43,0,43,0,1,,,,,,,,,,,,,,,,,,,,,,,,,,,,,,,,,,,,,,,
,,,,,,,,2023-08-16_08h46.28.565,HF_wild_card,2022.2.4,Win32,59.96641881,607deec383975f3377a28b9e,64d2fd46c836a06233681665,64dc7ebf82aaae7350779d47,,,,,,,,,,,,,,,,,,,,,,,,,,3,0,3,0,1,,,,,,,,,,,,,,,,,,,,,,,,,,,,,,,,,,
,,,,,,,,2023-08-16_08h46.28.565,HF_wild_card,2022.2.4,Win32,59.96641881,607deec383975f3377a28b9e,64d2fd46c836a06233681665,64dc7ebf82aaae7350779d47,,,,,,,sngl,resources/Empty.png,resources/DBN.BMP,Door2,0.458333333,-0.099074116,1,0,0,0.7288,optionRight,20,9255,5,0,0,0,0,1,,,,,,,,,,,,,,,,,,,,,,,,,,,,,,,,,,,,,,,
,,,,,,,,2023-08-16_08h46.28.565,HF_wild_card,2022.2.4,Win32,59.96641881,607deec383975f3377a28b9e,64d2fd46c836a06233681665,64dc7ebf82aaae7350779d47,,,,,,,decisionTrl,resources/DY.BMP,resources/DR.BMP,Door4,-0.217592593,-0.077777792,1,0,0,0.7145,optionLeft,80,9335,5,1,0,1,0,1,,,,,,,,,,,,,,,,,,,,,,,,,,,,,,,,,,,,,,,
,,,,,,,,2023-08-16_08h46.28.565,HF_wild_card,2022.2.4,Win32,59.96641881,607deec383975f3377a28b9e,64d2fd46c836a06233681665,64dc7ebf82aaae7350779d47,,,,,,,decisionTrl,resources/DP.BMP,resources/DBN.BMP,Door1,-0.19259255,-0.079629651,1,0,0,1.0181,optionLeft,30,9365,5,2,0,2,0,1,,,,,,,,,,,,,,,,,,,,,,,,,,,,,,,,,,,,,,,
,,,,,,,,2023-08-16_08h46.28.565,HF_wild_card,2022.2.4,Win32,59.96641881,607deec383975f3377a28b9e,64d2fd46c836a06233681665,64dc7ebf82aaae7350779d47,,,,,,,sngl,resources/DP.BMP,resources/Empty.png,Door1,-0.252777735,-0.071296303,1,0,0,0.9807,optionLeft,30,9395,5,3,0,3,0,1,,,,,,,,,,,,,,,,,,,,,,,,,,,,,,,,,,,,,,,
,,,,,,,,2023-08-16_08h46.28.565,HF_wild_card,2022.2.4,Win32,59.96641881,607deec383975f3377a28b9e,64d2fd46c836a06233681665,64dc7ebf82aaae7350779d47,,,,,,,decisionTrl,resources/DBN.BMP,resources/DP.BMP,Door2,-0.124074088,-0.036111125,1,0,0,1.2637,optionLeft,40,9435,5,4,0,4,0,1,,,,,,,,,,,,,,,,,,,,,,,,,,,,,,,,,,,,,,,
,,,,,,,,2023-08-16_08h46.28.565,HF_wild_card,2022.2.4,Win32,59.96641881,607deec383975f3377a28b9e,64d2fd46c836a06233681665,64dc7ebf82aaae7350779d47,,,,,,,sngl,resources/DG.BMP,resources/Empty.png,Door3,-0.194444444,-0.046296296,1,0,0,0.7801,optionLeft,70,9505,5,5,0,5,0,1,,,,,,,,,,,,,,,,,,,,,,,,,,,,,,,,,,,,,,,
,,,,,,,,2023-08-16_08h46.28.565,HF_wild_card,2022.2.4,Win32,59.96641881,607deec383975f3377a28b9e,64d2fd46c836a06233681665,64dc7ebf82aaae7350779d47,,,,,,,ctch,resources/DBN.BMP,resources/DG.BMP,Door3,0.237963005,0.022222201,1,0,0,0.7308,optionRight,70,9575,5,6,0,6,0,1,,,,,,,,,,,,,,,,,,,,,,,,,,,,,,,,,,,,,,,
,,,,,,,,2023-08-16_08h46.28.565,HF_wild_card,2022.2.4,Win32,59.96641881,607deec383975f3377a28b9e,64d2fd46c836a06233681665,64dc7ebf82aaae7350779d47,,,,,,,ctch,resources/DBN.BMP,resources/DG.BMP,Door3,0.14907406,-0.000925947,1,0,0,0.7149,optionRight,70,9645,5,7,0,7,0,1,,,,,,,,,,,,,,,,,,,,,,,,,,,,,,,,,,,,,,,
,,,,,,,,2023-08-16_08h46.28.565,HF_wild_card,2022.2.4,Win32,59.96641881,607deec383975f3377a28b9e,64d2fd46c836a06233681665,64dc7ebf82aaae7350779d47,,,,,,,ctch,resources/DY.BMP,resources/DP.BMP,Door4,-0.364814794,-0.067592586,1,0,0,0.6307,optionLeft,60,9705,5,8,0,8,0,1,,,,,,,,,,,,,,,,,,,,,,,,,,,,,,,,,,,,,,,
,,,,,,,,2023-08-16_08h46.28.565,HF_wild_card,2022.2.4,Win32,59.96641881,607deec383975f3377a28b9e,64d2fd46c836a06233681665,64dc7ebf82aaae7350779d47,,,,,,,sngl,resources/DR.BMP,resources/Empty.png,WildCard_NonEx,-0.226851852,-0.035185178,1,0,0,0.5648,optionLeft,45,9750,5,9,0,9,0,1,,,,,,,,,,,,,,,,,,,,,,,,,,,,,,,,,,,,,,,
,,,,,,,,2023-08-16_08h46.28.565,HF_wild_card,2022.2.4,Win32,59.96641881,607deec383975f3377a28b9e,64d2fd46c836a06233681665,64dc7ebf82aaae7350779d47,,,,,,,sngl,resources/Empty.png,resources/DP.BMP,Door1,0.175000014,-0.00462963,1,0,0,0.6141,optionRight,30,9780,5,10,0,10,0,1,,,,,,,,,,,,,,,,,,,,,,,,,,,,,,,,,,,,,,,
,,,,,,,,2023-08-16_08h46.28.565,HF_wild_card,2022.2.4,Win32,59.96641881,607deec383975f3377a28b9e,64d2fd46c836a06233681665,64dc7ebf82aaae7350779d47,,,,,,,decisionTrl,resources/DG.BMP,resources/DR.BMP,Door3,-0.180555556,-0.012962977,1,0,0,0.5972,optionLeft,70,9850,5,11,0,11,0,1,,,,,,,,,,,,,,,,,,,,,,,,,,,,,,,,,,,,,,,
,,,,,,,,2023-08-16_08h46.28.565,HF_wild_card,2022.2.4,Win32,59.96641881,607deec383975f3377a28b9e,64d2fd46c836a06233681665,64dc7ebf82aaae7350779d47,,,,,,,decisionTrl,resources/DBN.BMP,resources/DR.BMP,WildCard_NonEx,0.280555584,0.064814815,1,0,0,0.5481,optionRight,45,9895,5,12,0,12,0,1,,,,,,,,,,,,,,,,,,,,,,,,,,,,,,,,,,,,,,,
,,,,,,,,2023-08-16_08h46.28.565,HF_wild_card,2022.2.4,Win32,59.96641881,607deec383975f3377a28b9e,64d2fd46c836a06233681665,64dc7ebf82aaae7350779d47,,,,,,,sngl,resources/Empty.png,resources/DG.BMP,Door3,0.15370369,0.001851859,1,0,0,0.5624,optionRight,70,9965,5,13,0,13,0,1,,,,,,,,,,,,,,,,,,,,,,,,,,,,,,,,,,,,,,,
,,,,,,,,2023-08-16_08h46.28.565,HF_wild_card,2022.2.4,Win32,59.96641881,607deec383975f3377a28b9e,64d2fd46c836a06233681665,64dc7ebf82aaae7350779d47,,,,,,,decisionTrl,resources/DR.BMP,resources/DG.BMP,Door3,0.172222208,-0.014814836,1,0,0,1.0125,optionRight,70,10035,5,14,0,14,0,1,,,,,,,,,,,,,,,,,,,,,,,,,,,,,,,,,,,,,,,
,,,,,,,,2023-08-16_08h46.28.565,HF_wild_card,2022.2.4,Win32,59.96641881,607deec383975f3377a28b9e,64d2fd46c836a06233681665,64dc7ebf82aaae7350779d47,,,,,,,sngl,resources/DY.BMP,resources/Empty.png,Door4,-0.261111083,-0.059259273,1,0,0,0.5788,optionLeft,80,10115,5,15,0,15,0,1,,,,,,,,,,,,,,,,,,,,,,,,,,,,,,,,,,,,,,,
,,,,,,,,2023-08-16_08h46.28.565,HF_wild_card,2022.2.4,Win32,59.96641881,607deec383975f3377a28b9e,64d2fd46c836a06233681665,64dc7ebf82aaae7350779d47,,,,,,,ctch,resources/DP.BMP,resources/DY.BMP,Door4,0.194444444,0.01666666,1,0,0,0.6134,optionRight,80,10195,5,16,0,16,0,1,,,,,,,,,,,,,,,,,,,,,,,,,,,,,,,,,,,,,,,
,,,,,,,,2023-08-16_08h46.28.565,HF_wild_card,2022.2.4,Win32,59.96641881,607deec383975f3377a28b9e,64d2fd46c836a06233681665,64dc7ebf82aaae7350779d47,,,,,,,decisionTrl,resources/DP.BMP,resources/DBN.BMP,Door1,-0.162962949,-0.008333347,1,0,0,0.5975,optionLeft,30,10225,5,17,0,17,0,1,,,,,,,,,,,,,,,,,,,,,,,,,,,,,,,,,,,,,,,
,,,,,,,,2023-08-16_08h46.28.565,HF_wild_card,2022.2.4,Win32,59.96641881,607deec383975f3377a28b9e,64d2fd46c836a06233681665,64dc7ebf82aaae7350779d47,,,,,,,decisionTrl,resources/DP.BMP,resources/DBN.BMP,Door1,-0.229629587,-0.030555548,1,0,0,0.6141,optionLeft,30,10255,5,18,0,18,0,1,,,,,,,,,,,,,,,,,,,,,,,,,,,,,,,,,,,,,,,
,,,,,,,,2023-08-16_08h46.28.565,HF_wild_card,2022.2.4,Win32,59.96641881,607deec383975f3377a28b9e,64d2fd46c836a06233681665,64dc7ebf82aaae7350779d47,,,,,,,decisionTrl,resources/DY.BMP,resources/DG.BMP,Door4,-0.23055557,-0.043518526,1,0,0,0.5797,optionLeft,80,10335,5,19,0,19,0,1,,,,,,,,,,,,,,,,,,,,,,,,,,,,,,,,,,,,,,,
,,,,,,,,2023-08-16_08h46.28.565,HF_wild_card,2022.2.4,Win32,59.96641881,607deec383975f3377a28b9e,64d2fd46c836a06233681665,64dc7ebf82aaae7350779d47,,,,,,,decisionTrl,resources/DY.BMP,resources/DG.BMP,Door4,-0.216666681,-0.035185178,1,0,0,0.8146,optionLeft,60,10395,5,20,0,20,0,1,,,,,,,,,,,,,,,,,,,,,,,,,,,,,,,,,,,,,,,
,,,,,,,,2023-08-16_08h46.28.565,HF_wild_card,2022.2.4,Win32,59.96641881,607deec383975f3377a28b9e,64d2fd46c836a06233681665,64dc7ebf82aaae7350779d47,,,,,,,decisionTrl,resources/DBN.BMP,resources/DP.BMP,Door2,-0.215740698,-0.025925919,1,0,0,0.5802,optionLeft,40,10435,5,21,0,21,0,1,,,,,,,,,,,,,,,,,,,,,,,,,,,,,,,,,,,,,,,
,,,,,,,,2023-08-16_08h46.28.565,HF_wild_card,2022.2.4,Win32,59.96641881,607deec383975f3377a28b9e,64d2fd46c836a06233681665,64dc7ebf82aaae7350779d47,,,,,,,decisionTrl,resources/DR.BMP,resources/DP.BMP,Door1,0.268518519,-0.027777778,1,0,0,0.5644,optionRight,30,10465,5,22,0,22,0,1,,,,,,,,,,,,,,,,,,,,,,,,,,,,,,,,,,,,,,,
,,,,,,,,2023-08-16_08h46.28.565,HF_wild_card,2022.2.4,Win32,59.96641881,607deec383975f3377a28b9e,64d2fd46c836a06233681665,64dc7ebf82aaae7350779d47,,,,,,,sngl,resources/DR.BMP,resources/Empty.png,WildCard_NonEx,-0.191666638,-0.0074074,1,0,0,0.5465,optionLeft,55,10520,5,23,0,23,0,1,,,,,,,,,,,,,,,,,,,,,,,,,,,,,,,,,,,,,,,
,,,,,,,,2023-08-16_08h46.28.565,HF_wild_card,2022.2.4,Win32,59.96641881,607deec383975f3377a28b9e,64d2fd46c836a06233681665,64dc7ebf82aaae7350779d47,,,,,,,decisionTrl,resources/DP.BMP,resources/DBN.BMP,Door1,-0.172222208,-0.039814808,1,0,0,0.5973,optionLeft,30,10550,5,24,0,24,0,1,,,,,,,,,,,,,,,,,,,,,,,,,,,,,,,,,,,,,,,
,,,,,,,,2023-08-16_08h46.28.565,HF_wild_card,2022.2.4,Win32,59.96641881,607deec383975f3377a28b9e,64d2fd46c836a06233681665,64dc7ebf82aaae7350779d47,,,,,,,ctch,resources/DG.BMP,resources/DBN.BMP,Door3,-0.182407379,-0.054629644,1,0,0,0.581,optionLeft,70,10620,5,25,0,25,0,1,,,,,,,,,,,,,,,,,,,,,,,,,,,,,,,,,,,,,,,
,,,,,,,,2023-08-16_08h46.28.565,HF_wild_card,2022.2.4,Win32,59.96641881,607deec383975f3377a28b9e,64d2fd46c836a06233681665,64dc7ebf82aaae7350779d47,,,,,,,ctch,resources/DY.BMP,resources/DP.BMP,Door4,-0.17777775,-0.032407407,1,0,0,0.663,optionLeft,60,10680,5,26,0,26,0,1,,,,,,,,,,,,,,,,,,,,,,,,,,,,,,,,,,,,,,,
,,,,,,,,2023-08-16_08h46.28.565,HF_wild_card,2022.2.4,Win32,59.96641881,607deec383975f3377a28b9e,64d2fd46c836a06233681665,64dc7ebf82aaae7350779d47,,,,,,,decisionTrl,resources/DP.BMP,resources/DR.BMP,WildCard_NonEx,0.121296282,-0.017592607,1,0,0,3.1974,optionRight,45,10725,5,27,0,27,0,1,,,,,,,,,,,,,,,,,,,,,,,,,,,,,,,,,,,,,,,
,,,,,,,,2023-08-16_08h46.28.565,HF_wild_card,2022.2.4,Win32,59.96641881,607deec383975f3377a28b9e,64d2fd46c836a06233681665,64dc7ebf82aaae7350779d47,,,,,,,decisionTrl,resources/DY.BMP,resources/DG.BMP,Door4,-0.199074074,-0.032407407,1,0,0,0.4997,optionLeft,60,10785,5,28,0,28,0,1,,,,,,,,,,,,,,,,,,,,,,,,,,,,,,,,,,,,,,,
,,,,,,,,2023-08-16_08h46.28.565,HF_wild_card,2022.2.4,Win32,59.96641881,607deec383975f3377a28b9e,64d2fd46c836a06233681665,64dc7ebf82aaae7350779d47,,,,,,,ctch,resources/DG.BMP,resources/DBN.BMP,Door3,-0.202777792,-0.066666674,1,0,0,0.5643,optionLeft,70,10855,5,29,0,29,0,1,,,,,,,,,,,,,,,,,,,,,,,,,,,,,,,,,,,,,,,
,,,,,,,,2023-08-16_08h46.28.565,HF_wild_card,2022.2.4,Win32,59.96641881,607deec383975f3377a28b9e,64d2fd46c836a06233681665,64dc7ebf82aaae7350779d47,,,,,,,decisionTrl,resources/DBN.BMP,resources/DP.BMP,Door1,0.185185185,-0.00462963,1,0,0,0.7839,optionRight,30,10885,5,30,0,30,0,1,,,,,,,,,,,,,,,,,,,,,,,,,,,,,,,,,,,,,,,
,,,,,,,,2023-08-16_08h46.28.565,HF_wild_card,2022.2.4,Win32,59.96641881,607deec383975f3377a28b9e,64d2fd46c836a06233681665,64dc7ebf82aaae7350779d47,,,,,,,sngl,resources/DBN.BMP,resources/Empty.png,Door2,-0.29351849,-0.061111132,1,0,0,0.4922,optionLeft,40,10925,5,31,0,31,0,1,,,,,,,,,,,,,,,,,,,,,,,,,,,,,,,,,,,,,,,
,,,,,,,,2023-08-16_08h46.28.565,HF_wild_card,2022.2.4,Win32,59.96641881,607deec383975f3377a28b9e,64d2fd46c836a06233681665,64dc7ebf82aaae7350779d47,,,,,,,decisionTrl,resources/DBN.BMP,resources/DP.BMP,Door2,-0.191666638,-0.051851873,1,0,0,0.5978,optionLeft,20,10945,5,32,0,32,0,1,,,,,,,,,,,,,,,,,,,,,,,,,,,,,,,,,,,,,,,
,,,,,,,,2023-08-16_08h46.28.565,HF_wild_card,2022.2.4,Win32,59.96641881,607deec383975f3377a28b9e,64d2fd46c836a06233681665,64dc7ebf82aaae7350779d47,,,,,,,decisionTrl,resources/DY.BMP,resources/DG.BMP,Door4,-0.178703661,-0.040740755,1,0,0,0.4979,optionLeft,60,11005,5,33,0,33,0,1,,,,,,,,,,,,,,,,,,,,,,,,,,,,,,,,,,,,,,,
,,,,,,,,2023-08-16_08h46.28.565,HF_wild_card,2022.2.4,Win32,59.96641881,607deec383975f3377a28b9e,64d2fd46c836a06233681665,64dc7ebf82aaae7350779d47,,,,,,,decisionTrl,resources/DG.BMP,resources/DY.BMP,Door3,-0.228703675,-0.041666667,1,0,0,0.4974,optionLeft,70,11075,5,34,0,34,0,1,,,,,,,,,,,,,,,,,,,,,,,,,,,,,,,,,,,,,,,
,,,,,,,,2023-08-16_08h46.28.565,HF_wild_card,2022.2.4,Win32,59.96641881,607deec383975f3377a28b9e,64d2fd46c836a06233681665,64dc7ebf82aaae7350779d47,,,,,,,decisionTrl,resources/DG.BMP,resources/DY.BMP,Door3,-0.260185171,-0.061111132,1,0,0,0.4641,optionLeft,70,11145,5,35,0,35,0,1,,,,,,,,,,,,,,,,,,,,,,,,,,,,,,,,,,,,,,,
,,,,,,,,2023-08-16_08h46.28.565,HF_wild_card,2022.2.4,Win32,59.96641881,607deec383975f3377a28b9e,64d2fd46c836a06233681665,64dc7ebf82aaae7350779d47,,,,,,,decisionTrl,resources/DG.BMP,resources/DY.BMP,Door3,-0.212962963,-0.030555548,1,0,0,0.4644,optionLeft,70,11215,5,36,0,36,0,1,,,,,,,,,,,,,,,,,,,,,,,,,,,,,,,,,,,,,,,
,,,,,,,,2023-08-16_08h46.28.565,HF_wild_card,2022.2.4,Win32,59.96641881,607deec383975f3377a28b9e,64d2fd46c836a06233681665,64dc7ebf82aaae7350779d47,,,,,,,ctch,resources/DP.BMP,resources/DY.BMP,Door4,0.222222222,0.023148148,1,0,0,0.7804,optionRight,80,11295,5,37,0,37,0,1,,,,,,,,,,,,,,,,,,,,,,,,,,,,,,,,,,,,,,,
,,,,,,,,2023-08-16_08h46.28.565,HF_wild_card,2022.2.4,Win32,59.96641881,607deec383975f3377a28b9e,64d2fd46c836a06233681665,64dc7ebf82aaae7350779d47,,,,,,,sngl,resources/Empty.png,resources/DR.BMP,WildCard_NonEx,0.268518519,-0.0074074,1,0,0,0.5673,optionRight,45,11340,5,38,0,38,0,1,,,,,,,,,,,,,,,,,,,,,,,,,,,,,,,,,,,,,,,
,,,,,,,,2023-08-16_08h46.28.565,HF_wild_card,2022.2.4,Win32,59.96641881,607deec383975f3377a28b9e,64d2fd46c836a06233681665,64dc7ebf82aaae7350779d47,,,,,,,decisionTrl,resources/DR.BMP,resources/DY.BMP,Door4,0.300925926,0.010185171,1,0,0,0.8405,optionRight,60,11400,5,39,0,39,0,1,,,,,,,,,,,,,,,,,,,,,,,,,,,,,,,,,,,,,,,
,,,,,,,,2023-08-16_08h46.28.565,HF_wild_card,2022.2.4,Win32,59.96641881,607deec383975f3377a28b9e,64d2fd46c836a06233681665,64dc7ebf82aaae7350779d47,,,,,,,decisionTrl,resources/DG.BMP,resources/DY.BMP,Door3,-0.165740755,-0.026851866,1,0,0,0.9803,optionLeft,70,11470,5,40,0,40,0,1,,,,,,,,,,,,,,,,,,,,,,,,,,,,,,,,,,,,,,,
,,,,,,,,2023-08-16_08h46.28.565,HF_wild_card,2022.2.4,Win32,59.96641881,607deec383975f3377a28b9e,64d2fd46c836a06233681665,64dc7ebf82aaae7350779d47,,,,,,,sngl,resources/Empty.png,resources/DY.BMP,Door4,0.309259344,0.078703704,1,0,0,0.5473,optionRight,60,11530,5,41,0,41,0,1,,,,,,,,,,,,,,,,,,,,,,,,,,,,,,,,,,,,,,,
,,,,,,,,2023-08-16_08h46.28.565,HF_wild_card,2022.2.4,Win32,59.96641881,607deec383975f3377a28b9e,64d2fd46c836a06233681665,64dc7ebf82aaae7350779d47,,,,,,,sngl,resources/Empty.png,resources/DR.BMP,WildCard_NonEx,0.193518533,0.010185171,1,0,0,0.5633,optionRight,55,11585,5,42,0,42,0,1,,,,,,,,,,,,,,,,,,,,,,,,,,,,,,,,,,,,,,,
,,,,,,,,2023-08-16_08h46.28.565,HF_wild_card,2022.2.4,Win32,59.96641881,607deec383975f3377a28b9e,64d2fd46c836a06233681665,64dc7ebf82aaae7350779d47,,,,,,,decisionTrl,resources/DR.BMP,resources/DBN.BMP,WildCard_NonEx,-0.349999993,-0.028703725,1,0,0,0.5317,optionLeft,45,11630,5,43,0,43,0,1,,,,,,,,,,,,,,,,,,,,,,,,,,,,,,,,,,,,,,,
,,,,,,,,2023-08-16_08h46.28.565,HF_wild_card,2022.2.4,Win32,59.96641881,607deec383975f3377a28b9e,64d2fd46c836a06233681665,64dc7ebf82aaae7350779d47,,,,,,,,,,,,,,,,,,,,,,,,,,4,0,4,0,1,,,,,,,,,,,,,,,,,,,,,,,,,,,,,,,,,,
,,,,,,,,2023-08-16_08h46.28.565,HF_wild_card,2022.2.4,Win32,59.96641881,607deec383975f3377a28b9e,64d2fd46c836a06233681665,64dc7ebf82aaae7350779d47,,,,,,,ctch,resources/DP.BMP,resources/DY.BMP,Door4,0.312962991,0.038888896,1,0,0,0.8435,optionRight,80,11710,6,0,0,0,0,1,,,,,,,,,,,,,,,,,,,,,,,,,,,,,,,,,,,,,,,
,,,,,,,,2023-08-16_08h46.28.565,HF_wild_card,2022.2.4,Win32,59.96641881,607deec383975f3377a28b9e,64d2fd46c836a06233681665,64dc7ebf82aaae7350779d47,,,,,,,sngl,resources/Empty.png,resources/DR.BMP,WildCard_NonEx,0.237963005,0.01203703,1,0,0,0.5286,optionRight,45,11755,6,1,0,1,0,1,,,,,,,,,,,,,,,,,,,,,,,,,,,,,,,,,,,,,,,
,,,,,,,,2023-08-16_08h46.28.565,HF_wild_card,2022.2.4,Win32,59.96641881,607deec383975f3377a28b9e,64d2fd46c836a06233681665,64dc7ebf82aaae7350779d47,,,,,,,decisionTrl,resources/DR.BMP,resources/DY.BMP,Door4,0.187962991,0.011111118,1,0,0,0.5127,optionRight,60,11815,6,2,0,2,0,1,,,,,,,,,,,,,,,,,,,,,,,,,,,,,,,,,,,,,,,
,,,,,,,,2023-08-16_08h46.28.565,HF_wild_card,2022.2.4,Win32,59.96641881,607deec383975f3377a28b9e,64d2fd46c836a06233681665,64dc7ebf82aaae7350779d47,,,,,,,decisionTrl,resources/DP.BMP,resources/DBN.BMP,Door1,-0.199999986,0.002777771,1,0,0,0.546,optionLeft,30,11845,6,3,0,3,0,1,,,,,,,,,,,,,,,,,,,,,,,,,,,,,,,,,,,,,,,
,,,,,,,,2023-08-16_08h46.28.565,HF_wild_card,2022.2.4,Win32,59.96641881,607deec383975f3377a28b9e,64d2fd46c836a06233681665,64dc7ebf82aaae7350779d47,,,,,,,sngl,resources/DBN.BMP,resources/Empty.png,Door2,-0.229629587,-0.059259273,1,0,0,0.5121,optionLeft,20,11865,6,4,0,4,0,1,,,,,,,,,,,,,,,,,,,,,,,,,,,,,,,,,,,,,,,
,,,,,,,,2023-08-16_08h46.28.565,HF_wild_card,2022.2.4,Win32,59.96641881,607deec383975f3377a28b9e,64d2fd46c836a06233681665,64dc7ebf82aaae7350779d47,,,,,,,decisionTrl,resources/DG.BMP,resources/DY.BMP,Door4,0.307407379,-0.010185206,1,0,0,0.6173,optionRight,60,11925,6,5,0,5,0,1,,,,,,,,,,,,,,,,,,,,,,,,,,,,,,,,,,,,,,,
,,,,,,,,2023-08-16_08h46.28.565,HF_wild_card,2022.2.4,Win32,59.96641881,607deec383975f3377a28b9e,64d2fd46c836a06233681665,64dc7ebf82aaae7350779d47,,,,,,,decisionTrl,resources/DBN.BMP,resources/DP.BMP,Door1,0.23055557,-0.017592607,1,0,0,0.7146,optionRight,30,11955,6,6,0,6,0,1,,,,,,,,,,,,,,,,,,,,,,,,,,,,,,,,,,,,,,,
,,,,,,,,2023-08-16_08h46.28.565,HF_wild_card,2022.2.4,Win32,59.96641881,607deec383975f3377a28b9e,64d2fd46c836a06233681665,64dc7ebf82aaae7350779d47,,,,,,,ctch,resources/DY.BMP,resources/DP.BMP,Door4,-0.204629616,-0.014814836,1,0,0,0.4969,optionLeft,60,12015,6,7,0,7,0,1,,,,,,,,,,,,,,,,,,,,,,,,,,,,,,,,,,,,,,,
,,,,,,,,2023-08-16_08h46.28.565,HF_wild_card,2022.2.4,Win32,59.96641881,607deec383975f3377a28b9e,64d2fd46c836a06233681665,64dc7ebf82aaae7350779d47,,,,,,,decisionTrl,resources/DG.BMP,resources/DY.BMP,Door3,-0.214814787,-0.050000014,1,0,0,0.7795,optionLeft,70,12085,6,8,0,8,0,1,,,,,,,,,,,,,,,,,,,,,,,,,,,,,,,,,,,,,,,
,,,,,,,,2023-08-16_08h46.28.565,HF_wild_card,2022.2.4,Win32,59.96641881,607deec383975f3377a28b9e,64d2fd46c836a06233681665,64dc7ebf82aaae7350779d47,,,,,,,sngl,resources/Empty.png,resources/DG.BMP,Door3,0.233333376,0,1,0,0,0.6622,optionRight,70,12155,6,9,0,9,0,1,,,,,,,,,,,,,,,,,,,,,,,,,,,,,,,,,,,,,,,
,,,,,,,,2023-08-16_08h46.28.565,HF_wild_card,2022.2.4,Win32,59.96641881,607deec383975f3377a28b9e,64d2fd46c836a06233681665,64dc7ebf82aaae7350779d47,,,,,,,decisionTrl,resources/DBN.BMP,resources/DP.BMP,Door1,0.138888889,-0.025000007,1,0,0,0.9142,optionRight,30,12185,6,10,0,10,0,1,,,,,,,,,,,,,,,,,,,,,,,,,,,,,,,,,,,,,,,
,,,,,,,,2023-08-16_08h46.28.565,HF_wild_card,2022.2.4,Win32,59.96641881,607deec383975f3377a28b9e,64d2fd46c836a06233681665,64dc7ebf82aaae7350779d47,,,,,,,sngl,resources/Empty.png,resources/DY.BMP,Door4,0.198148162,0.01203703,1,0,0,0.5978,optionRight,80,12265,6,11,0,11,0,1,,,,,,,,,,,,,,,,,,,,,,,,,,,,,,,,,,,,,,,
,,,,,,,,2023-08-16_08h46.28.565,HF_wild_card,2022.2.4,Win32,59.96641881,607deec383975f3377a28b9e,64d2fd46c836a06233681665,64dc7ebf82aaae7350779d47,,,,,,,decisionTrl,resources/DR.BMP,resources/DBN.BMP,WildCard_NonEx,-0.228703675,-0.025925919,1,0,0,0.6143,optionLeft,55,12320,6,12,0,12,0,1,,,,,,,,,,,,,,,,,,,,,,,,,,,,,,,,,,,,,,,
,,,,,,,,2023-08-16_08h46.28.565,HF_wild_card,2022.2.4,Win32,59.96641881,607deec383975f3377a28b9e,64d2fd46c836a06233681665,64dc7ebf82aaae7350779d47,,,,,,,decisionTrl,resources/DG.BMP,resources/DR.BMP,Door3,-0.228703675,-0.054629644,1,0,0,1.4807,optionLeft,70,12390,6,13,0,13,0,1,,,,,,,,,,,,,,,,,,,,,,,,,,,,,,,,,,,,,,,
,,,,,,,,2023-08-16_08h46.28.565,HF_wild_card,2022.2.4,Win32,59.96641881,607deec383975f3377a28b9e,64d2fd46c836a06233681665,64dc7ebf82aaae7350779d47,,,,,,,sngl,resources/DR.BMP,resources/Empty.png,WildCard_NonEx,-0.273148148,-0.078703704,1,0,0,0.6306,optionLeft,45,12435,6,14,0,14,0,1,,,,,,,,,,,,,,,,,,,,,,,,,,,,,,,,,,,,,,,
,,,,,,,,2023-08-16_08h46.28.565,HF_wild_card,2022.2.4,Win32,59.96641881,607deec383975f3377a28b9e,64d2fd46c836a06233681665,64dc7ebf82aaae7350779d47,,,,,,,decisionTrl,resources/DY.BMP,resources/DG.BMP,Door4,-0.266666624,-0.055555556,1,0,0,0.5639,optionLeft,60,12495,6,15,0,15,0,1,,,,,,,,,,,,,,,,,,,,,,,,,,,,,,,,,,,,,,,
,,,,,,,,2023-08-16_08h46.28.565,HF_wild_card,2022.2.4,Win32,59.96641881,607deec383975f3377a28b9e,64d2fd46c836a06233681665,64dc7ebf82aaae7350779d47,,,,,,,sngl,resources/Empty.png,resources/DBN.BMP,Door2,0.223148134,0.022222201,1,0,0,0.6567,optionRight,40,12535,6,16,0,16,0,1,,,,,,,,,,,,,,,,,,,,,,,,,,,,,,,,,,,,,,,
,,,,,,,,2023-08-16_08h46.28.565,HF_wild_card,2022.2.4,Win32,59.96641881,607deec383975f3377a28b9e,64d2fd46c836a06233681665,64dc7ebf82aaae7350779d47,,,,,,,sngl,resources/Empty.png,resources/DP.BMP,Door1,0.264814801,0.023148148,1,0,0,0.5755,optionRight,30,12565,6,17,0,17,0,1,,,,,,,,,,,,,,,,,,,,,,,,,,,,,,,,,,,,,,,
,,,,,,,,2023-08-16_08h46.28.565,HF_wild_card,2022.2.4,Win32,59.96641881,607deec383975f3377a28b9e,64d2fd46c836a06233681665,64dc7ebf82aaae7350779d47,,,,,,,decisionTrl,resources/DP.BMP,resources/DBN.BMP,Door1,-0.24537037,0.001851859,1,0,0,0.501,optionLeft,30,12595,6,18,0,18,0,1,,,,,,,,,,,,,,,,,,,,,,,,,,,,,,,,,,,,,,,
,,,,,,,,2023-08-16_08h46.28.565,HF_wild_card,2022.2.4,Win32,59.96641881,607deec383975f3377a28b9e,64d2fd46c836a06233681665,64dc7ebf82aaae7350779d47,,,,,,,ctch,resources/DBN.BMP,resources/DG.BMP,Door3,0.225000028,0.015740748,1,0,0,0.5473,optionRight,70,12665,6,19,0,19,0,1,,,,,,,,,,,,,,,,,,,,,,,,,,,,,,,,,,,,,,,
,,,,,,,,2023-08-16_08h46.28.565,HF_wild_card,2022.2.4,Win32,59.96641881,607deec383975f3377a28b9e,64d2fd46c836a06233681665,64dc7ebf82aaae7350779d47,,,,,,,decisionTrl,resources/DBN.BMP,resources/DP.BMP,Door2,-0.252777735,-0.019444466,1,0,0,0.6309,optionLeft,20,12685,6,20,0,20,0,1,,,,,,,,,,,,,,,,,,,,,,,,,,,,,,,,,,,,,,,
,,,,,,,,2023-08-16_08h46.28.565,HF_wild_card,2022.2.4,Win32,59.96641881,607deec383975f3377a28b9e,64d2fd46c836a06233681665,64dc7ebf82aaae7350779d47,,,,,,,sngl,resources/DR.BMP,resources/Empty.png,WildCard_NonEx,-0.182407379,-0.0074074,1,0,0,0.5635,optionLeft,55,12740,6,21,0,21,0,1,,,,,,,,,,,,,,,,,,,,,,,,,,,,,,,,,,,,,,,
,,,,,,,,2023-08-16_08h46.28.565,HF_wild_card,2022.2.4,Win32,59.96641881,607deec383975f3377a28b9e,64d2fd46c836a06233681665,64dc7ebf82aaae7350779d47,,,,,,,ctch,resources/DBN.BMP,resources/DG.BMP,Door3,0.318518603,0.000925912,1,0,0,0.5141,optionRight,70,12810,6,22,0,22,0,1,,,,,,,,,,,,,,,,,,,,,,,,,,,,,,,,,,,,,,,
,,,,,,,,2023-08-16_08h46.28.565,HF_wild_card,2022.2.4,Win32,59.96641881,607deec383975f3377a28b9e,64d2fd46c836a06233681665,64dc7ebf82aaae7350779d47,,,,,,,decisionTrl,resources/DP.BMP,resources/DR.BMP,Door1,-0.134259259,0.009259259,1,0,0,0.6017,optionLeft,30,12840,6,23,0,23,0,1,,,,,,,,,,,,,,,,,,,,,,,,,,,,,,,,,,,,,,,
,,,,,,,,2023-08-16_08h46.28.565,HF_wild_card,2022.2.4,Win32,59.96641881,607deec383975f3377a28b9e,64d2fd46c836a06233681665,64dc7ebf82aaae7350779d47,,,,,,,decisionTrl,resources/DP.BMP,resources/DBN.BMP,Door2,0.192592621,0.000925912,1,0,0,0.4486,optionRight,40,12880,6,24,0,24,0,1,,,,,,,,,,,,,,,,,,,,,,,,,,,,,,,,,,,,,,,
,,,,,,,,2023-08-16_08h46.28.565,HF_wild_card,2022.2.4,Win32,59.96641881,607deec383975f3377a28b9e,64d2fd46c836a06233681665,64dc7ebf82aaae7350779d47,,,,,,,decisionTrl,resources/DG.BMP,resources/DY.BMP,Door3,-0.284259231,-0.031481496,1,0,0,2.0973,optionLeft,70,12950,6,25,0,25,0,1,,,,,,,,,,,,,,,,,,,,,,,,,,,,,,,,,,,,,,,
,,,,,,,,2023-08-16_08h46.28.565,HF_wild_card,2022.2.4,Win32,59.96641881,607deec383975f3377a28b9e,64d2fd46c836a06233681665,64dc7ebf82aaae7350779d47,,,,,,,sngl,resources/DY.BMP,resources/Empty.png,Door4,-0.252777735,-0.051851873,1,0,0,0.5093,optionLeft,60,13010,6,26,0,26,0,1,,,,,,,,,,,,,,,,,,,,,,,,,,,,,,,,,,,,,,,
,,,,,,,,2023-08-16_08h46.28.565,HF_wild_card,2022.2.4,Win32,59.96641881,607deec383975f3377a28b9e,64d2fd46c836a06233681665,64dc7ebf82aaae7350779d47,,,,,,,decisionTrl,resources/DY.BMP,resources/DR.BMP,Door4,-0.300925926,-0.085185192,1,0,0,0.6928,optionLeft,80,13090,6,27,0,27,0,1,,,,,,,,,,,,,,,,,,,,,,,,,,,,,,,,,,,,,,,
,,,,,,,,2023-08-16_08h46.28.565,HF_wild_card,2022.2.4,Win32,59.96641881,607deec383975f3377a28b9e,64d2fd46c836a06233681665,64dc7ebf82aaae7350779d47,,,,,,,sngl,resources/Empty.png,resources/DR.BMP,WildCard_NonEx,0.237963005,0.020370377,1,0,0,0.5442,optionRight,55,13145,6,28,0,28,0,1,,,,,,,,,,,,,,,,,,,,,,,,,,,,,,,,,,,,,,,
,,,,,,,,2023-08-16_08h46.28.565,HF_wild_card,2022.2.4,Win32,59.96641881,607deec383975f3377a28b9e,64d2fd46c836a06233681665,64dc7ebf82aaae7350779d47,,,,,,,decisionTrl,resources/DBN.BMP,resources/DR.BMP,WildCard_NonEx,0.068518533,-0.014814836,1,0,0,0.6976,optionRight,45,13190,6,29,0,29,0,1,,,,,,,,,,,,,,,,,,,,,,,,,,,,,,,,,,,,,,,
,,,,,,,,2023-08-16_08h46.28.565,HF_wild_card,2022.2.4,Win32,59.96641881,607deec383975f3377a28b9e,64d2fd46c836a06233681665,64dc7ebf82aaae7350779d47,,,,,,,ctch,resources/DY.BMP,resources/DP.BMP,Door4,-0.257407365,-0.018518519,1,0,0,0.5457,optionLeft,80,13270,6,30,0,30,0,1,,,,,,,,,,,,,,,,,,,,,,,,,,,,,,,,,,,,,,,
,,,,,,,,2023-08-16_08h46.28.565,HF_wild_card,2022.2.4,Win32,59.96641881,607deec383975f3377a28b9e,64d2fd46c836a06233681665,64dc7ebf82aaae7350779d47,,,,,,,sngl,resources/DP.BMP,resources/Empty.png,Door1,-0.049074032,-0.0074074,1,0,0,0.6472,optionLeft,30,13300,6,31,0,31,0,1,,,,,,,,,,,,,,,,,,,,,,,,,,,,,,,,,,,,,,,
,,,,,,,,2023-08-16_08h46.28.565,HF_wild_card,2022.2.4,Win32,59.96641881,607deec383975f3377a28b9e,64d2fd46c836a06233681665,64dc7ebf82aaae7350779d47,,,,,,,ctch,resources/DG.BMP,resources/DBN.BMP,Door3,-0.170370384,-0.064814815,1,0,0,1.0809,optionLeft,70,13370,6,32,0,32,0,1,,,,,,,,,,,,,,,,,,,,,,,,,,,,,,,,,,,,,,,
,,,,,,,,2023-08-16_08h46.28.565,HF_wild_card,2022.2.4,Win32,59.96641881,607deec383975f3377a28b9e,64d2fd46c836a06233681665,64dc7ebf82aaae7350779d47,,,,,,,sngl,resources/DG.BMP,resources/Empty.png,Door3,-0.249074088,-0.037037037,1,0,0,0.5814,optionLeft,70,13440,6,33,0,33,0,1,,,,,,,,,,,,,,,,,,,,,,,,,,,,,,,,,,,,,,,
,,,,,,,,2023-08-16_08h46.28.565,HF_wild_card,2022.2.4,Win32,59.96641881,607deec383975f3377a28b9e,64d2fd46c836a06233681665,64dc7ebf82aaae7350779d47,,,,,,,ctch,resources/DG.BMP,resources/DBN.BMP,Door3,-0.178703661,-0.054629644,1,0,0,0.6177,optionLeft,70,13510,6,34,0,34,0,1,,,,,,,,,,,,,,,,,,,,,,,,,,,,,,,,,,,,,,,
,,,,,,,,2023-08-16_08h46.28.565,HF_wild_card,2022.2.4,Win32,59.96641881,607deec383975f3377a28b9e,64d2fd46c836a06233681665,64dc7ebf82aaae7350779d47,,,,,,,decisionTrl,resources/DP.BMP,resources/DBN.BMP,Door1,-0.187037009,-0.071296303,1,0,0,0.9675,optionLeft,30,13540,6,35,0,35,0,1,,,,,,,,,,,,,,,,,,,,,,,,,,,,,,,,,,,,,,,
,,,,,,,,2023-08-16_08h46.28.565,HF_wild_card,2022.2.4,Win32,59.96641881,607deec383975f3377a28b9e,64d2fd46c836a06233681665,64dc7ebf82aaae7350779d47,,,,,,,decisionTrl,resources/DY.BMP,resources/DG.BMP,Door3,0.239814829,0.048148155,1,0,0,0.7123,optionRight,70,13610,6,36,0,36,0,1,,,,,,,,,,,,,,,,,,,,,,,,,,,,,,,,,,,,,,,
,,,,,,,,2023-08-16_08h46.28.565,HF_wild_card,2022.2.4,Win32,59.96641881,607deec383975f3377a28b9e,64d2fd46c836a06233681665,64dc7ebf82aaae7350779d47,,,,,,,decisionTrl,resources/DBN.BMP,resources/DP.BMP,Door2,-0.167592578,0.01203703,1,0,0,1.0918,optionLeft,40,13650,6,37,0,37,0,1,,,,,,,,,,,,,,,,,,,,,,,,,,,,,,,,,,,,,,,
,,,,,,,,2023-08-16_08h46.28.565,HF_wild_card,2022.2.4,Win32,59.96641881,607deec383975f3377a28b9e,64d2fd46c836a06233681665,64dc7ebf82aaae7350779d47,,,,,,,decisionTrl,resources/DY.BMP,resources/DG.BMP,Door4,-0.143518519,-0.018518519,1,0,0,0.6957,optionLeft,80,13730,6,38,0,38,0,1,,,,,,,,,,,,,,,,,,,,,,,,,,,,,,,,,,,,,,,
,,,,,,,,2023-08-16_08h46.28.565,HF_wild_card,2022.2.4,Win32,59.96641881,607deec383975f3377a28b9e,64d2fd46c836a06233681665,64dc7ebf82aaae7350779d47,,,,,,,decisionTrl,resources/DR.BMP,resources/DP.BMP,WildCard_NonEx,-0.199074074,-0.037037037,1,0,0,0.7646,optionLeft,55,13785,6,39,0,39,0,1,,,,,,,,,,,,,,,,,,,,,,,,,,,,,,,,,,,,,,,
,,,,,,,,2023-08-16_08h46.28.565,HF_wild_card,2022.2.4,Win32,59.96641881,607deec383975f3377a28b9e,64d2fd46c836a06233681665,64dc7ebf82aaae7350779d47,,,,,,,ctch,resources/DP.BMP,resources/DY.BMP,Door4,0.215740769,0.027777778,1,0,0,0.5973,optionRight,60,13845,6,40,0,40,0,1,,,,,,,,,,,,,,,,,,,,,,,,,,,,,,,,,,,,,,,
,,,,,,,,2023-08-16_08h46.28.565,HF_wild_card,2022.2.4,Win32,59.96641881,607deec383975f3377a28b9e,64d2fd46c836a06233681665,64dc7ebf82aaae7350779d47,,,,,,,decisionTrl,resources/DG.BMP,resources/DY.BMP,Door4,0.181481467,-0.013888889,1,0,0,0.7141,optionRight,80,13925,6,41,0,41,0,1,,,,,,,,,,,,,,,,,,,,,,,,,,,,,,,,,,,,,,,
,,,,,,,,2023-08-16_08h46.28.565,HF_wild_card,2022.2.4,Win32,59.96641881,607deec383975f3377a28b9e,64d2fd46c836a06233681665,64dc7ebf82aaae7350779d47,,,,,,,decisionTrl,resources/DR.BMP,resources/DG.BMP,WildCard_NonEx,-0.256481453,0.025925919,1,0,0,0.7144,optionLeft,55,13980,6,42,0,42,0,1,,,,,,,,,,,,,,,,,,,,,,,,,,,,,,,,,,,,,,,
,,,,,,,,2023-08-16_08h46.28.565,HF_wild_card,2022.2.4,Win32,59.96641881,607deec383975f3377a28b9e,64d2fd46c836a06233681665,64dc7ebf82aaae7350779d47,,,,,,,decisionTrl,resources/DY.BMP,resources/DG.BMP,Door4,-0.246296282,0.025000007,1,0,0,0.9308,optionLeft,60,14040,6,43,0,43,0,1,,,,,,,,,,,,,,,,,,,,,,,,,,,,,,,,,,,,,,,
,,,,,,,,2023-08-16_08h46.28.565,HF_wild_card,2022.2.4,Win32,59.96641881,607deec383975f3377a28b9e,64d2fd46c836a06233681665,64dc7ebf82aaae7350779d47,,,,,,,,,,,,,,,,,,,,,,,,,,5,0,5,0,1,,,,,,,,,,,,,,,,,,,,,,,,,,,,,,,,,,
,,,,,,,,2023-08-16_08h46.28.565,HF_wild_card,2022.2.4,Win32,59.96641881,607deec383975f3377a28b9e,64d2fd46c836a06233681665,64dc7ebf82aaae7350779d47,,,,,,,decisionTrl,resources/DG.BMP,resources/DY.BMP,Door4,0.275925954,-0.095370399,1,0,0,1.0823,optionRight,60,14100,7,0,0,0,0,1,,,,,,,,,,,,,,,,,,,,,,,,,,,,,,,,,,,,,,,
,,,,,,,,2023-08-16_08h46.28.565,HF_wild_card,2022.2.4,Win32,59.96641881,607deec383975f3377a28b9e,64d2fd46c836a06233681665,64dc7ebf82aaae7350779d47,,,,,,,decisionTrl,resources/DBN.BMP,resources/DP.BMP,Door2,-0.231481481,-0.052777785,1,0,0,1.8317,optionLeft,40,14140,7,1,0,1,0,1,,,,,,,,,,,,,,,,,,,,,,,,,,,,,,,,,,,,,,,
,,,,,,,,2023-08-16_08h46.28.565,HF_wild_card,2022.2.4,Win32,59.96641881,607deec383975f3377a28b9e,64d2fd46c836a06233681665,64dc7ebf82aaae7350779d47,,,,,,,decisionTrl,resources/DG.BMP,resources/DY.BMP,Door4,0.17777782,-0.025000007,1,0,0,1.0444,optionRight,80,14220,7,2,0,2,0,1,,,,,,,,,,,,,,,,,,,,,,,,,,,,,,,,,,,,,,,
,,,,,,,,2023-08-16_08h46.28.565,HF_wild_card,2022.2.4,Win32,59.96641881,607deec383975f3377a28b9e,64d2fd46c836a06233681665,64dc7ebf82aaae7350779d47,,,,,,,decisionTrl,resources/DG.BMP,resources/DY.BMP,Door4,0.248148176,-0.002777771,1,0,0,0.9151,optionRight,60,14280,7,3,0,3,0,1,,,,,,,,,,,,,,,,,,,,,,,,,,,,,,,,,,,,,,,
,,,,,,,,2023-08-16_08h46.28.565,HF_wild_card,2022.2.4,Win32,59.96641881,607deec383975f3377a28b9e,64d2fd46c836a06233681665,64dc7ebf82aaae7350779d47,,,,,,,decisionTrl,resources/DP.BMP,resources/DBN.BMP,Door1,-0.229629587,-0.066666674,1,0,0,0.9964,optionLeft,30,14310,7,4,0,4,0,1,,,,,,,,,,,,,,,,,,,,,,,,,,,,,,,,,,,,,,,
,,,,,,,,2023-08-16_08h46.28.565,HF_wild_card,2022.2.4,Win32,59.96641881,607deec383975f3377a28b9e,64d2fd46c836a06233681665,64dc7ebf82aaae7350779d47,,,,,,,decisionTrl,resources/DG.BMP,resources/DY.BMP,Door4,0.162037037,-0.006481489,1,0,0,0.8983,optionRight,60,14370,7,5,0,5,0,1,,,,,,,,,,,,,,,,,,,,,,,,,,,,,,,,,,,,,,,
,,,,,,,,2023-08-16_08h46.28.565,HF_wild_card,2022.2.4,Win32,59.96641881,607deec383975f3377a28b9e,64d2fd46c836a06233681665,64dc7ebf82aaae7350779d47,,,,,,,decisionTrl,resources/DY.BMP,resources/DG.BMP,Door4,-0.226851852,-0.00462963,1,0,0,0.6988,optionLeft,60,14430,7,6,0,6,0,1,,,,,,,,,,,,,,,,,,,,,,,,,,,,,,,,,,,,,,,
,,,,,,,,2023-08-16_08h46.28.565,HF_wild_card,2022.2.4,Win32,59.96641881,607deec383975f3377a28b9e,64d2fd46c836a06233681665,64dc7ebf82aaae7350779d47,,,,,,,decisionTrl,resources/DY.BMP,resources/DG.BMP,Door4,-0.183333291,-0.031481496,1,0,0,0.7488,optionLeft,80,14510,7,7,0,7,0,1,,,,,,,,,,,,,,,,,,,,,,,,,,,,,,,,,,,,,,,
,,,,,,,,2023-08-16_08h46.28.565,HF_wild_card,2022.2.4,Win32,59.96641881,607deec383975f3377a28b9e,64d2fd46c836a06233681665,64dc7ebf82aaae7350779d47,,,,,,,ctch,resources/DP.BMP,resources/DY.BMP,Door4,0.241666653,0.01203703,1,0,0,0.8981,optionRight,80,14590,7,8,0,8,0,1,,,,,,,,,,,,,,,,,,,,,,,,,,,,,,,,,,,,,,,
,,,,,,,,2023-08-16_08h46.28.565,HF_wild_card,2022.2.4,Win32,59.96641881,607deec383975f3377a28b9e,64d2fd46c836a06233681665,64dc7ebf82aaae7350779d47,,,,,,,decisionTrl,resources/DBN.BMP,resources/DP.BMP,Door2,-0.298148155,-0.050925926,1,0,0,1.9326,optionLeft,20,14610,7,9,0,9,0,1,,,,,,,,,,,,,,,,,,,,,,,,,,,,,,,,,,,,,,,
,,,,,,,,2023-08-16_08h46.28.565,HF_wild_card,2022.2.4,Win32,59.96641881,607deec383975f3377a28b9e,64d2fd46c836a06233681665,64dc7ebf82aaae7350779d47,,,,,,,decisionTrl,resources/DP.BMP,resources/DBN.BMP,Door1,-0.175000014,-0.017592607,1,0,0,1.178,optionLeft,30,14640,7,10,0,10,0,1,,,,,,,,,,,,,,,,,,,,,,,,,,,,,,,,,,,,,,,
,,,,,,,,2023-08-16_08h46.28.565,HF_wild_card,2022.2.4,Win32,59.96641881,607deec383975f3377a28b9e,64d2fd46c836a06233681665,64dc7ebf82aaae7350779d47,,,,,,,ctch,resources/DP.BMP,resources/DY.BMP,Door4,0.287962949,0.014814801,1,0,0,0.7477,optionRight,80,14720,7,11,0,11,0,1,,,,,,,,,,,,,,,,,,,,,,,,,,,,,,,,,,,,,,,
,,,,,,,,2023-08-16_08h46.28.565,HF_wild_card,2022.2.4,Win32,59.96641881,607deec383975f3377a28b9e,64d2fd46c836a06233681665,64dc7ebf82aaae7350779d47,,,,,,,ctch,resources/DY.BMP,resources/DP.BMP,Door4,-0.010185171,-0.0074074,1,0,0,0.6151,optionLeft,80,14800,7,12,0,12,0,1,,,,,,,,,,,,,,,,,,,,,,,,,,,,,,,,,,,,,,,
,,,,,,,,2023-08-16_08h46.28.565,HF_wild_card,2022.2.4,Win32,59.96641881,607deec383975f3377a28b9e,64d2fd46c836a06233681665,64dc7ebf82aaae7350779d47,,,,,,,decisionTrl,resources/DBN.BMP,resources/DP.BMP,Door1,0.156481496,0.025925919,1,0,0,1.8771,optionRight,30,14830,7,13,0,13,0,1,,,,,,,,,,,,,,,,,,,,,,,,,,,,,,,,,,,,,,,
,,,,,,,,2023-08-16_08h46.28.565,HF_wild_card,2022.2.4,Win32,59.96641881,607deec383975f3377a28b9e,64d2fd46c836a06233681665,64dc7ebf82aaae7350779d47,,,,,,,decisionTrl,resources/DP.BMP,resources/DBN.BMP,Door1,-0.164814772,-0.085185192,1,0,0,1.1777,optionLeft,30,14860,7,14,0,14,0,1,,,,,,,,,,,,,,,,,,,,,,,,,,,,,,,,,,,,,,,
,,,,,,,,2023-08-16_08h46.28.565,HF_wild_card,2022.2.4,Win32,59.96641881,607deec383975f3377a28b9e,64d2fd46c836a06233681665,64dc7ebf82aaae7350779d47,,,,,,,decisionTrl,resources/DP.BMP,resources/DBN.BMP,Door1,-0.185185185,-0.038888896,1,0,0,0.8492,optionLeft,30,14890,7,15,0,15,0,1,,,,,,,,,,,,,,,,,,,,,,,,,,,,,,,,,,,,,,,
,,,,,,,,2023-08-16_08h46.28.565,HF_wild_card,2022.2.4,Win32,59.96641881,607deec383975f3377a28b9e,64d2fd46c836a06233681665,64dc7ebf82aaae7350779d47,,,,,,,decisionTrl,resources/DG.BMP,resources/DY.BMP,Door4,0.239814829,0,1,0,0,0.9524,optionRight,80,14970,7,16,0,16,0,1,,,,,,,,,,,,,,,,,,,,,,,,,,,,,,,,,,,,,,,
,,,,,,,,2023-08-16_08h46.28.565,HF_wild_card,2022.2.4,Win32,59.96641881,607deec383975f3377a28b9e,64d2fd46c836a06233681665,64dc7ebf82aaae7350779d47,,,,,,,ctch,resources/DG.BMP,resources/DBN.BMP,Door3,-0.180555556,-0.038888896,1,0,0,1.0317,optionLeft,70,15040,7,17,0,17,0,1,,,,,,,,,,,,,,,,,,,,,,,,,,,,,,,,,,,,,,,
,,,,,,,,2023-08-16_08h46.28.565,HF_wild_card,2022.2.4,Win32,59.96641881,607deec383975f3377a28b9e,64d2fd46c836a06233681665,64dc7ebf82aaae7350779d47,,,,,,,decisionTrl,resources/DBN.BMP,resources/DP.BMP,Door2,-0.15370369,-0.023148148,1,0,0,1.2526,optionLeft,40,15080,7,18,0,18,0,1,,,,,,,,,,,,,,,,,,,,,,,,,,,,,,,,,,,,,,,
,,,,,,,,2023-08-16_08h46.28.565,HF_wild_card,2022.2.4,Win32,59.96641881,607deec383975f3377a28b9e,64d2fd46c836a06233681665,64dc7ebf82aaae7350779d47,,,,,,,decisionTrl,resources/DG.BMP,resources/DY.BMP,Door4,0.213888875,0.038888896,1,0,0,0.9119,optionRight,60,15140,7,19,0,19,0,1,,,,,,,,,,,,,,,,,,,,,,,,,,,,,,,,,,,,,,,
,,,,,,,,2023-08-16_08h46.28.565,HF_wild_card,2022.2.4,Win32,59.96641881,607deec383975f3377a28b9e,64d2fd46c836a06233681665,64dc7ebf82aaae7350779d47,,,,,,,ctch,resources/DY.BMP,resources/DP.BMP,Door4,-0.098148134,-0.023148148,1,0,0,0.8178,optionLeft,80,15220,7,20,0,20,0,1,,,,,,,,,,,,,,,,,,,,,,,,,,,,,,,,,,,,,,,
,,,,,,,,2023-08-16_08h46.28.565,HF_wild_card,2022.2.4,Win32,59.96641881,607deec383975f3377a28b9e,64d2fd46c836a06233681665,64dc7ebf82aaae7350779d47,,,,,,,decisionTrl,resources/DY.BMP,resources/DG.BMP,Door4,-0.256481453,-0.063888903,1,0,0,0.7305,optionLeft,60,15280,7,21,0,21,0,1,,,,,,,,,,,,,,,,,,,,,,,,,,,,,,,,,,,,,,,
,,,,,,,,2023-08-16_08h46.28.565,HF_wild_card,2022.2.4,Win32,59.96641881,607deec383975f3377a28b9e,64d2fd46c836a06233681665,64dc7ebf82aaae7350779d47,,,,,,,ctch,resources/DY.BMP,resources/DP.BMP,Door4,-0.284259231,-0.030555548,1,0,0,0.665,optionLeft,60,15340,7,22,0,22,0,1,,,,,,,,,,,,,,,,,,,,,,,,,,,,,,,,,,,,,,,
,,,,,,,,2023-08-16_08h46.28.565,HF_wild_card,2022.2.4,Win32,59.96641881,607deec383975f3377a28b9e,64d2fd46c836a06233681665,64dc7ebf82aaae7350779d47,,,,,,,decisionTrl,resources/DY.BMP,resources/DG.BMP,Door4,-0.290740755,-0.051851873,1,0,0,0.5873,optionLeft,60,15400,7,23,0,23,0,1,,,,,,,,,,,,,,,,,,,,,,,,,,,,,,,,,,,,,,,
,,,,,,,,2023-08-16_08h46.28.565,HF_wild_card,2022.2.4,Win32,59.96641881,607deec383975f3377a28b9e,64d2fd46c836a06233681665,64dc7ebf82aaae7350779d47,,,,,,,decisionTrl,resources/DBN.BMP,resources/DP.BMP,Door2,-0.19259255,-0.037962984,1,0,0,1.3487,optionLeft,40,15440,7,24,0,24,0,1,,,,,,,,,,,,,,,,,,,,,,,,,,,,,,,,,,,,,,,
,,,,,,,,2023-08-16_08h46.28.565,HF_wild_card,2022.2.4,Win32,59.96641881,607deec383975f3377a28b9e,64d2fd46c836a06233681665,64dc7ebf82aaae7350779d47,,,,,,,ctch,resources/DG.BMP,resources/DBN.BMP,Door3,-0.239814829,-0.053703697,1,0,0,1.0696,optionLeft,70,15510,7,25,0,25,0,1,,,,,,,,,,,,,,,,,,,,,,,,,,,,,,,,,,,,,,,
,,,,,,,,2023-08-16_08h46.28.565,HF_wild_card,2022.2.4,Win32,59.96641881,607deec383975f3377a28b9e,64d2fd46c836a06233681665,64dc7ebf82aaae7350779d47,,,,,,,ctch,resources/DBN.BMP,resources/DG.BMP,Door3,0.207407422,0.015740748,1,0,0,0.7653,optionRight,70,15580,7,26,0,26,0,1,,,,,,,,,,,,,,,,,,,,,,,,,,,,,,,,,,,,,,,
,,,,,,,,2023-08-16_08h46.28.565,HF_wild_card,2022.2.4,Win32,59.96641881,607deec383975f3377a28b9e,64d2fd46c836a06233681665,64dc7ebf82aaae7350779d47,,,,,,,decisionTrl,resources/DBN.BMP,resources/DP.BMP,Door2,-0.270370342,-0.040740755,1,0,0,1.0663,optionLeft,20,15600,7,27,0,27,0,1,,,,,,,,,,,,,,,,,,,,,,,,,,,,,,,,,,,,,,,
,,,,,,,,2023-08-16_08h46.28.565,HF_wild_card,2022.2.4,Win32,59.96641881,607deec383975f3377a28b9e,64d2fd46c836a06233681665,64dc7ebf82aaae7350779d47,,,,,,,ctch,resources/DBN.BMP,resources/DG.BMP,Door3,0.282407407,0.025925919,1,0,0,0.7495,optionRight,70,15670,7,28,0,28,0,1,,,,,,,,,,,,,,,,,,,,,,,,,,,,,,,,,,,,,,,
,,,,,,,,2023-08-16_08h46.28.565,HF_wild_card,2022.2.4,Win32,59.96641881,607deec383975f3377a28b9e,64d2fd46c836a06233681665,64dc7ebf82aaae7350779d47,,,,,,,decisionTrl,resources/DY.BMP,resources/DG.BMP,Door4,-0.246296282,-0.053703697,1,0,0,0.7657,optionLeft,80,15750,7,29,0,29,0,1,,,,,,,,,,,,,,,,,,,,,,,,,,,,,,,,,,,,,,,
,,,,,,,,2023-08-16_08h46.28.565,HF_wild_card,2022.2.4,Win32,59.96641881,607deec383975f3377a28b9e,64d2fd46c836a06233681665,64dc7ebf82aaae7350779d47,,,,,,,decisionTrl,resources/DP.BMP,resources/DBN.BMP,Door1,-0.203703704,-0.046296296,1,0,0,0.7485,optionLeft,30,15780,7,30,0,30,0,1,,,,,,,,,,,,,,,,,,,,,,,,,,,,,,,,,,,,,,,
,,,,,,,,2023-08-16_08h46.28.565,HF_wild_card,2022.2.4,Win32,59.96641881,607deec383975f3377a28b9e,64d2fd46c836a06233681665,64dc7ebf82aaae7350779d47,,,,,,,decisionTrl,resources/DY.BMP,resources/DG.BMP,Door4,-0.196296268,-0.037037037,1,0,0,0.6318,optionLeft,60,15840,7,31,0,31,0,1,,,,,,,,,,,,,,,,,,,,,,,,,,,,,,,,,,,,,,,
,,,,,,,,2023-08-16_08h46.28.565,HF_wild_card,2022.2.4,Win32,59.96641881,607deec383975f3377a28b9e,64d2fd46c836a06233681665,64dc7ebf82aaae7350779d47,,,,,,,ctch,resources/DP.BMP,resources/DY.BMP,Door4,0.320370427,-0.015740748,1,0,0,0.6474,optionRight,80,15920,7,32,0,32,0,1,,,,,,,,,,,,,,,,,,,,,,,,,,,,,,,,,,,,,,,
,,,,,,,,2023-08-16_08h46.28.565,HF_wild_card,2022.2.4,Win32,59.96641881,607deec383975f3377a28b9e,64d2fd46c836a06233681665,64dc7ebf82aaae7350779d47,,,,,,,decisionTrl,resources/DP.BMP,resources/DBN.BMP,Door2,0.32222225,-0.019444466,1,0,0,0.8669,optionRight,40,15960,7,33,0,33,0,1,,,,,,,,,,,,,,,,,,,,,,,,,,,,,,,,,,,,,,,
,,,,,,,,2023-08-16_08h46.28.565,HF_wild_card,2022.2.4,Win32,59.96641881,607deec383975f3377a28b9e,64d2fd46c836a06233681665,64dc7ebf82aaae7350779d47,,,,,,,ctch,resources/DG.BMP,resources/DBN.BMP,Door3,-0.284259231,-0.076851845,1,0,0,0.6815,optionLeft,70,16030,7,34,0,34,0,1,,,,,,,,,,,,,,,,,,,,,,,,,,,,,,,,,,,,,,,
,,,,,,,,2023-08-16_08h46.28.565,HF_wild_card,2022.2.4,Win32,59.96641881,607deec383975f3377a28b9e,64d2fd46c836a06233681665,64dc7ebf82aaae7350779d47,,,,,,,ctch,resources/DBN.BMP,resources/DG.BMP,Door3,0.336111139,0.03148146,1,0,0,0.7326,optionRight,70,16100,7,35,0,35,0,1,,,,,,,,,,,,,,,,,,,,,,,,,,,,,,,,,,,,,,,
,,,,,,,,2023-08-16_08h46.28.565,HF_wild_card,2022.2.4,Win32,59.96641881,607deec383975f3377a28b9e,64d2fd46c836a06233681665,64dc7ebf82aaae7350779d47,,,,,,,,,,,,,,,,,,,,,,,,,,6,0,6,0,1,,,,,,,,,,,,,,,,,,,,,,,,,,,,,,,,,,
,,,,,,,,2023-08-16_08h46.28.565,HF_wild_card,2022.2.4,Win32,59.96641881,607deec383975f3377a28b9e,64d2fd46c836a06233681665,64dc7ebf82aaae7350779d47,,,,,,,,,,,,,,,,,,,,,,,,,,,,,,,4,,,,,,,,,,,,,,,,,,,,,,,,,,,,,,,,,
,,,,,,,,2023-08-16_08h46.28.565,HF_wild_card,2022.2.4,Win32,59.96641881,607deec383975f3377a28b9e,64d2fd46c836a06233681665,64dc7ebf82aaae7350779d47,,,,,,,,,,,,,,,,,,,,,,,,,,,,,,,,,,,,,,,,,,,,,,,,,,,,,,,,,,,,,,,,
,,,,,,,,2023-08-16_08h46.28.565,HF_wild_card,2022.2.4,Win32,59.96641881,607deec383975f3377a28b9e,64d2fd46c836a06233681665,64dc7ebf82aaae7350779d47,,,,,,,,,,,,,,,,,,,,,,,,,,,,,,,,45,Door2,resources/DBN.BMP,0,0,0,0,1,,,,,,,,,,,,,,,,,,,,,,,,,
,,,,,,,,2023-08-16_08h46.28.565,HF_wild_card,2022.2.4,Win32,59.96641881,607deec383975f3377a28b9e,64d2fd46c836a06233681665,64dc7ebf82aaae7350779d47,,,,,,,,,,,,,,,,,,,,,,,,,,,,,,,,70,Door3,resources/DG.BMP,1,0,1,0,1,,,,,,,,,,,,,,,,,,,,,,,,,
,,,,,,,,2023-08-16_08h46.28.565,HF_wild_card,2022.2.4,Win32,59.96641881,607deec383975f3377a28b9e,64d2fd46c836a06233681665,64dc7ebf82aaae7350779d47,,,,,,,,,,,,,,,,,,,,,,,,,,,,,,,,30,Door1,resources/DP.BMP,2,0,2,0,1,,,,,,,,,,,,,,,,,,,,,,,,,
,,,,,,,,2023-08-16_08h46.28.565,HF_wild_card,2022.2.4,Win32,59.96641881,607deec383975f3377a28b9e,64d2fd46c836a06233681665,64dc7ebf82aaae7350779d47,,,,,,,,,,,,,,,,,,,,,,,,,,,,,,,,80,Door4,resources/DY.BMP,3,0,3,0,1,,,,,,,,,,,,,,,,,,,,,,,,,
,,,,,,,,2023-08-16_08h46.28.565,HF_wild_card,2022.2.4,Win32,59.96641881,607deec383975f3377a28b9e,64d2fd46c836a06233681665,64dc7ebf82aaae7350779d47,,,,,,,,,,,,,,,,,,,,,,,,,,,,,,,,55,WC_extreme,resources/DB.BMP,4,0,4,0,1,,,,,,,,,,,,,,,,,,,,,,,,,
,,,,,,,,2023-08-16_08h46.28.565,HF_wild_card,2022.2.4,Win32,59.96641881,607deec383975f3377a28b9e,64d2fd46c836a06233681665,64dc7ebf82aaae7350779d47,,,,,,,,,,,,,,,,,,,,,,,,,,,,,,,,85,WC_nonExtreme,resources/DR.BMP,5,0,5,0,1,,,,,,,,,,,,,,,,,,,,,,,,,
,,,,,,,,2023-08-16_08h46.28.565,HF_wild_card,2022.2.4,Win32,59.96641881,607deec383975f3377a28b9e,64d2fd46c836a06233681665,64dc7ebf82aaae7350779d47,,,,,,,,,,,,,,,,,,,,,,,,,,,,,,,,,,,,,,,,,,,,,,,,,,,,,,,,,,,,,,,,
