Condition,Low fixed image (Door1),Low risky image (Door2),High fixed image (Door3),High risky image (Door4),NonExtreme Wild Card 1,NonExtreme Wild Card 2,,date,expName,psychopyVersion,OS,frameRate,PROLIFIC_PID,STUDY_ID,SESSION_ID,mouse_2.x,mouse_2.y,mouse_2.leftButton,mouse_2.midButton,mouse_2.rightButton,mouse_2.clicked_name,Trial Type,Left Option Image,Right Option Image,Chosen Door,mouse.x,mouse.y,mouse.leftButton,mouse.midButton,mouse.rightButton,mouse.time,mouse.clicked_name,Feedback,Cumulative Reward,Block,trial.thisRepN,trial.thisTrialN,trial.thisN,trial.thisIndex,trial.ran,blocks.thisRepN,blocks.thisTrialN,blocks.thisN,blocks.thisIndex,blocks.ran,Money conversion,First Outcome Reported,Shown Door (First Outcome),Displayed Image (First Outcome),outcomes.thisRepN,outcomes.thisTrialN,outcomes.thisN,outcomes.thisIndex,outcomes.ran,judgments.thisRepN,judgments.thisTrialN,judgments.thisN,judgments.thisIndex,judgments.ran,freqMouse.x,freqMouse.y,freqMouse.leftButton,freqMouse.midButton,freqMouse.rightButton,freqMouse.clicked_name,FQJ for first outcome,FQJ for second outcome,Shown Door,Displayed Image,trials.thisRepN,trials.thisTrialN,trials.thisN,trials.thisIndex,trials.ran,judgBlock.thisRepN,judgBlock.thisTrialN,judgBlock.thisN,judgBlock.thisIndex,judgBlock.ran
2,resources/DP.BMP,resources/DY.BMP,resources/DR.BMP,resources/DG.BMP,resources/DBN.BMP,resources/DB.BMP,,2023-08-16_08h36.27.242,HF_wild_card,2022.2.4,Win32,57.60368664,5ffa12927eb1463a5c45b788,64d2fd46c836a06233681665,64dc7c63de5d1fe09df02f89,,,,,,,,,,,,,,,,,,,,,,,,,,,,,,,,,,,,,,,,,,,,,,,,,,,,,,,,,,,,,,,,
,,,,,,,,2023-08-16_08h36.27.242,HF_wild_card,2022.2.4,Win32,57.60368664,5ffa12927eb1463a5c45b788,64d2fd46c836a06233681665,64dc7c63de5d1fe09df02f89,0.000925926,-0.411111111,1,0,0,agree,,,,,,,,,,,,,,,,,,,,,,,,,,,,,,,,,,,,,,,,,,,,,,,,,,,,,,,,,,
,,,,,,,,2023-08-16_08h36.27.242,HF_wild_card,2022.2.4,Win32,57.60368664,5ffa12927eb1463a5c45b788,64d2fd46c836a06233681665,64dc7c63de5d1fe09df02f89,,,,,,,,,,,,,,,,,,,,,,,,,,,,,,,,,,,,,,,,,,,,,,,,,,,,,,,,,,,,,,,,
,,,,,,,,2023-08-16_08h36.27.242,HF_wild_card,2022.2.4,Win32,57.60368664,5ffa12927eb1463a5c45b788,64d2fd46c836a06233681665,64dc7c63de5d1fe09df02f89,,,,,,,decisionTrl,resources/DG.BMP,resources/DR.BMP,Door4,-0.365740741,-0.153703704,1,0,0,2.177,optionLeft,60,60,1,0,0,0,0,1,,,,,,,,,,,,,,,,,,,,,,,,,,,,,,,,,,,,,,,
,,,,,,,,2023-08-16_08h36.27.242,HF_wild_card,2022.2.4,Win32,57.60368664,5ffa12927eb1463a5c45b788,64d2fd46c836a06233681665,64dc7c63de5d1fe09df02f89,,,,,,,decisionTrl,resources/DG.BMP,resources/DR.BMP,Door4,-0.284259259,-0.078703704,1,0,0,1.11,optionLeft,60,120,1,1,0,1,0,1,,,,,,,,,,,,,,,,,,,,,,,,,,,,,,,,,,,,,,,
,,,,,,,,2023-08-16_08h36.27.242,HF_wild_card,2022.2.4,Win32,57.60368664,5ffa12927eb1463a5c45b788,64d2fd46c836a06233681665,64dc7c63de5d1fe09df02f89,,,,,,,decisionTrl,resources/DP.BMP,resources/DB.BMP,Door1,-0.334259259,-0.066666667,1,0,0,2.1298,optionLeft,30,150,1,2,0,2,0,1,,,,,,,,,,,,,,,,,,,,,,,,,,,,,,,,,,,,,,,
,,,,,,,,2023-08-16_08h36.27.242,HF_wild_card,2022.2.4,Win32,57.60368664,5ffa12927eb1463a5c45b788,64d2fd46c836a06233681665,64dc7c63de5d1fe09df02f89,,,,,,,sngl,resources/DY.BMP,resources/Empty.png,Door2,-0.434259259,-0.009259259,1,0,0,1.4891,optionLeft,40,190,1,3,0,3,0,1,,,,,,,,,,,,,,,,,,,,,,,,,,,,,,,,,,,,,,,
,,,,,,,,2023-08-16_08h36.27.242,HF_wild_card,2022.2.4,Win32,57.60368664,5ffa12927eb1463a5c45b788,64d2fd46c836a06233681665,64dc7c63de5d1fe09df02f89,,,,,,,sngl,resources/Empty.png,resources/DP.BMP,Door1,0.374074074,-0.04537037,1,0,0,1.1153,optionRight,30,220,1,4,0,4,0,1,,,,,,,,,,,,,,,,,,,,,,,,,,,,,,,,,,,,,,,
,,,,,,,,2023-08-16_08h36.27.242,HF_wild_card,2022.2.4,Win32,57.60368664,5ffa12927eb1463a5c45b788,64d2fd46c836a06233681665,64dc7c63de5d1fe09df02f89,,,,,,,ctch,resources/DR.BMP,resources/DY.BMP,Door2,0.392592593,-0.00462963,1,0,0,0.9842,optionRight,20,240,1,5,0,5,0,1,,,,,,,,,,,,,,,,,,,,,,,,,,,,,,,,,,,,,,,
,,,,,,,,2023-08-16_08h36.27.242,HF_wild_card,2022.2.4,Win32,57.60368664,5ffa12927eb1463a5c45b788,64d2fd46c836a06233681665,64dc7c63de5d1fe09df02f89,,,,,,,decisionTrl,resources/DR.BMP,resources/DG.BMP,Door4,0.418518519,-0.023148148,1,0,0,2.2527,optionRight,60,300,1,6,0,6,0,1,,,,,,,,,,,,,,,,,,,,,,,,,,,,,,,,,,,,,,,
,,,,,,,,2023-08-16_08h36.27.242,HF_wild_card,2022.2.4,Win32,57.60368664,5ffa12927eb1463a5c45b788,64d2fd46c836a06233681665,64dc7c63de5d1fe09df02f89,,,,,,,sngl,resources/DB.BMP,resources/Empty.png,WildCard_NonEx,-0.382407407,0.018518519,1,0,0,1.1268,optionLeft,55,355,1,7,0,7,0,1,,,,,,,,,,,,,,,,,,,,,,,,,,,,,,,,,,,,,,,
,,,,,,,,2023-08-16_08h36.27.242,HF_wild_card,2022.2.4,Win32,57.60368664,5ffa12927eb1463a5c45b788,64d2fd46c836a06233681665,64dc7c63de5d1fe09df02f89,,,,,,,ctch,resources/DY.BMP,resources/DR.BMP,Door2,-0.247222222,-0.006481481,1,0,0,1.1279,optionLeft,40,395,1,8,0,8,0,1,,,,,,,,,,,,,,,,,,,,,,,,,,,,,,,,,,,,,,,
,,,,,,,,2023-08-16_08h36.27.242,HF_wild_card,2022.2.4,Win32,57.60368664,5ffa12927eb1463a5c45b788,64d2fd46c836a06233681665,64dc7c63de5d1fe09df02f89,,,,,,,ctch,resources/DG.BMP,resources/DP.BMP,Door4,-0.307407407,0.040740741,1,0,0,1.2359,optionLeft,80,475,1,9,0,9,0,1,,,,,,,,,,,,,,,,,,,,,,,,,,,,,,,,,,,,,,,
,,,,,,,,2023-08-16_08h36.27.242,HF_wild_card,2022.2.4,Win32,57.60368664,5ffa12927eb1463a5c45b788,64d2fd46c836a06233681665,64dc7c63de5d1fe09df02f89,,,,,,,decisionTrl,resources/DB.BMP,resources/DG.BMP,WildCard_NonEx,-0.364814815,-0.012037037,1,0,0,1.233,optionLeft,45,520,1,10,0,10,0,1,,,,,,,,,,,,,,,,,,,,,,,,,,,,,,,,,,,,,,,
,,,,,,,,2023-08-16_08h36.27.242,HF_wild_card,2022.2.4,Win32,57.60368664,5ffa12927eb1463a5c45b788,64d2fd46c836a06233681665,64dc7c63de5d1fe09df02f89,,,,,,,decisionTrl,resources/DP.BMP,resources/DY.BMP,Door2,0.271296296,-0.003703704,1,0,0,1.6329,optionRight,40,560,1,11,0,11,0,1,,,,,,,,,,,,,,,,,,,,,,,,,,,,,,,,,,,,,,,
,,,,,,,,2023-08-16_08h36.27.242,HF_wild_card,2022.2.4,Win32,57.60368664,5ffa12927eb1463a5c45b788,64d2fd46c836a06233681665,64dc7c63de5d1fe09df02f89,,,,,,,ctch,resources/DR.BMP,resources/DY.BMP,Door3,-0.262962963,0.012037037,1,0,0,1.4494,optionLeft,70,630,1,12,0,12,0,1,,,,,,,,,,,,,,,,,,,,,,,,,,,,,,,,,,,,,,,
,,,,,,,,2023-08-16_08h36.27.242,HF_wild_card,2022.2.4,Win32,57.60368664,5ffa12927eb1463a5c45b788,64d2fd46c836a06233681665,64dc7c63de5d1fe09df02f89,,,,,,,decisionTrl,resources/DY.BMP,resources/DB.BMP,Door2,-0.212962963,-0.047222222,1,0,0,1.7765,optionLeft,40,670,1,13,0,13,0,1,,,,,,,,,,,,,,,,,,,,,,,,,,,,,,,,,,,,,,,
,,,,,,,,2023-08-16_08h36.27.242,HF_wild_card,2022.2.4,Win32,57.60368664,5ffa12927eb1463a5c45b788,64d2fd46c836a06233681665,64dc7c63de5d1fe09df02f89,,,,,,,decisionTrl,resources/DR.BMP,resources/DG.BMP,Door4,0.447222222,-0.033333333,1,0,0,0.8735,optionRight,60,730,1,14,0,14,0,1,,,,,,,,,,,,,,,,,,,,,,,,,,,,,,,,,,,,,,,
,,,,,,,,2023-08-16_08h36.27.242,HF_wild_card,2022.2.4,Win32,57.60368664,5ffa12927eb1463a5c45b788,64d2fd46c836a06233681665,64dc7c63de5d1fe09df02f89,,,,,,,decisionTrl,resources/DB.BMP,resources/DP.BMP,Door1,0.403703704,-0.021296296,1,0,0,0.7151,optionRight,30,760,1,15,0,15,0,1,,,,,,,,,,,,,,,,,,,,,,,,,,,,,,,,,,,,,,,
,,,,,,,,2023-08-16_08h36.27.242,HF_wild_card,2022.2.4,Win32,57.60368664,5ffa12927eb1463a5c45b788,64d2fd46c836a06233681665,64dc7c63de5d1fe09df02f89,,,,,,,decisionTrl,resources/DB.BMP,resources/DY.BMP,Door2,0.463888889,-0.000925926,1,0,0,0.6489,optionRight,20,780,1,16,0,16,0,1,,,,,,,,,,,,,,,,,,,,,,,,,,,,,,,,,,,,,,,
,,,,,,,,2023-08-16_08h36.27.242,HF_wild_card,2022.2.4,Win32,57.60368664,5ffa12927eb1463a5c45b788,64d2fd46c836a06233681665,64dc7c63de5d1fe09df02f89,,,,,,,ctch,resources/DP.BMP,resources/DG.BMP,Door4,0.018518519,-0.013888889,1,0,0,0.6975,optionRight,80,860,1,17,0,17,0,1,,,,,,,,,,,,,,,,,,,,,,,,,,,,,,,,,,,,,,,
,,,,,,,,2023-08-16_08h36.27.242,HF_wild_card,2022.2.4,Win32,57.60368664,5ffa12927eb1463a5c45b788,64d2fd46c836a06233681665,64dc7c63de5d1fe09df02f89,,,,,,,decisionTrl,resources/DY.BMP,resources/DP.BMP,Door1,0.326851852,-0.021296296,1,0,0,2.0594,optionRight,30,890,1,18,0,18,0,1,,,,,,,,,,,,,,,,,,,,,,,,,,,,,,,,,,,,,,,
,,,,,,,,2023-08-16_08h36.27.242,HF_wild_card,2022.2.4,Win32,57.60368664,5ffa12927eb1463a5c45b788,64d2fd46c836a06233681665,64dc7c63de5d1fe09df02f89,,,,,,,sngl,resources/DB.BMP,resources/Empty.png,WildCard_NonEx,-0.268518519,0.037037037,1,0,0,0.4866,optionLeft,45,935,1,19,0,19,0,1,,,,,,,,,,,,,,,,,,,,,,,,,,,,,,,,,,,,,,,
,,,,,,,,2023-08-16_08h36.27.242,HF_wild_card,2022.2.4,Win32,57.60368664,5ffa12927eb1463a5c45b788,64d2fd46c836a06233681665,64dc7c63de5d1fe09df02f89,,,,,,,ctch,resources/DP.BMP,resources/DG.BMP,Door1,-0.501851852,0.116666667,1,0,0,0.614,optionLeft,30,965,1,20,0,20,0,1,,,,,,,,,,,,,,,,,,,,,,,,,,,,,,,,,,,,,,,
,,,,,,,,2023-08-16_08h36.27.242,HF_wild_card,2022.2.4,Win32,57.60368664,5ffa12927eb1463a5c45b788,64d2fd46c836a06233681665,64dc7c63de5d1fe09df02f89,,,,,,,decisionTrl,resources/DG.BMP,resources/DB.BMP,Door4,-0.216666667,-0.006481481,1,0,0,0.7548,optionLeft,60,1025,1,21,0,21,0,1,,,,,,,,,,,,,,,,,,,,,,,,,,,,,,,,,,,,,,,
,,,,,,,,2023-08-16_08h36.27.242,HF_wild_card,2022.2.4,Win32,57.60368664,5ffa12927eb1463a5c45b788,64d2fd46c836a06233681665,64dc7c63de5d1fe09df02f89,,,,,,,sngl,resources/Empty.png,resources/DB.BMP,WildCard_NonEx,0.484259259,-0.012962963,1,0,0,0.6368,optionRight,55,1080,1,22,0,22,0,1,,,,,,,,,,,,,,,,,,,,,,,,,,,,,,,,,,,,,,,
,,,,,,,,2023-08-16_08h36.27.242,HF_wild_card,2022.2.4,Win32,57.60368664,5ffa12927eb1463a5c45b788,64d2fd46c836a06233681665,64dc7c63de5d1fe09df02f89,,,,,,,sngl,resources/Empty.png,resources/DY.BMP,Door2,0.439814815,-0.060185185,1,0,0,0.6095,optionRight,20,1100,1,23,0,23,0,1,,,,,,,,,,,,,,,,,,,,,,,,,,,,,,,,,,,,,,,
,,,,,,,,2023-08-16_08h36.27.242,HF_wild_card,2022.2.4,Win32,57.60368664,5ffa12927eb1463a5c45b788,64d2fd46c836a06233681665,64dc7c63de5d1fe09df02f89,,,,,,,decisionTrl,resources/DY.BMP,resources/DP.BMP,Door2,-0.377777778,0.037962963,1,0,0,1.2496,optionLeft,20,1120,1,24,0,24,0,1,,,,,,,,,,,,,,,,,,,,,,,,,,,,,,,,,,,,,,,
,,,,,,,,2023-08-16_08h36.27.242,HF_wild_card,2022.2.4,Win32,57.60368664,5ffa12927eb1463a5c45b788,64d2fd46c836a06233681665,64dc7c63de5d1fe09df02f89,,,,,,,decisionTrl,resources/DP.BMP,resources/DY.BMP,Door1,-0.387037037,0.116666667,1,0,0,0.8428,optionLeft,30,1150,1,25,0,25,0,1,,,,,,,,,,,,,,,,,,,,,,,,,,,,,,,,,,,,,,,
,,,,,,,,2023-08-16_08h36.27.242,HF_wild_card,2022.2.4,Win32,57.60368664,5ffa12927eb1463a5c45b788,64d2fd46c836a06233681665,64dc7c63de5d1fe09df02f89,,,,,,,ctch,resources/DY.BMP,resources/DR.BMP,Door2,-0.309259259,-0.006481481,1,0,0,1.0725,optionLeft,20,1170,1,26,0,26,0,1,,,,,,,,,,,,,,,,,,,,,,,,,,,,,,,,,,,,,,,
,,,,,,,,2023-08-16_08h36.27.242,HF_wild_card,2022.2.4,Win32,57.60368664,5ffa12927eb1463a5c45b788,64d2fd46c836a06233681665,64dc7c63de5d1fe09df02f89,,,,,,,decisionTrl,resources/DG.BMP,resources/DR.BMP,Door4,-0.275,-0.010185185,1,0,0,0.7005,optionLeft,80,1250,1,27,0,27,0,1,,,,,,,,,,,,,,,,,,,,,,,,,,,,,,,,,,,,,,,
,,,,,,,,2023-08-16_08h36.27.242,HF_wild_card,2022.2.4,Win32,57.60368664,5ffa12927eb1463a5c45b788,64d2fd46c836a06233681665,64dc7c63de5d1fe09df02f89,,,,,,,decisionTrl,resources/DR.BMP,resources/DB.BMP,Door3,-0.430555556,-0.034259259,1,0,0,1.3178,optionLeft,70,1320,1,28,0,28,0,1,,,,,,,,,,,,,,,,,,,,,,,,,,,,,,,,,,,,,,,
,,,,,,,,2023-08-16_08h36.27.242,HF_wild_card,2022.2.4,Win32,57.60368664,5ffa12927eb1463a5c45b788,64d2fd46c836a06233681665,64dc7c63de5d1fe09df02f89,,,,,,,decisionTrl,resources/DR.BMP,resources/DG.BMP,Door3,-0.397222222,-0.022222222,1,0,0,0.8586,optionLeft,70,1390,1,29,0,29,0,1,,,,,,,,,,,,,,,,,,,,,,,,,,,,,,,,,,,,,,,
,,,,,,,,2023-08-16_08h36.27.242,HF_wild_card,2022.2.4,Win32,57.60368664,5ffa12927eb1463a5c45b788,64d2fd46c836a06233681665,64dc7c63de5d1fe09df02f89,,,,,,,decisionTrl,resources/DR.BMP,resources/DG.BMP,Door3,-0.428703704,-0.021296296,1,0,0,0.8617,optionLeft,70,1460,1,30,0,30,0,1,,,,,,,,,,,,,,,,,,,,,,,,,,,,,,,,,,,,,,,
,,,,,,,,2023-08-16_08h36.27.242,HF_wild_card,2022.2.4,Win32,57.60368664,5ffa12927eb1463a5c45b788,64d2fd46c836a06233681665,64dc7c63de5d1fe09df02f89,,,,,,,decisionTrl,resources/DY.BMP,resources/DP.BMP,Door1,0.327777778,-0.088888889,1,0,0,1.6675,optionRight,30,1490,1,31,0,31,0,1,,,,,,,,,,,,,,,,,,,,,,,,,,,,,,,,,,,,,,,
,,,,,,,,2023-08-16_08h36.27.242,HF_wild_card,2022.2.4,Win32,57.60368664,5ffa12927eb1463a5c45b788,64d2fd46c836a06233681665,64dc7c63de5d1fe09df02f89,,,,,,,decisionTrl,resources/DP.BMP,resources/DY.BMP,Door1,-0.284259259,-0.021296296,1,0,0,0.5587,optionLeft,30,1520,1,32,0,32,0,1,,,,,,,,,,,,,,,,,,,,,,,,,,,,,,,,,,,,,,,
,,,,,,,,2023-08-16_08h36.27.242,HF_wild_card,2022.2.4,Win32,57.60368664,5ffa12927eb1463a5c45b788,64d2fd46c836a06233681665,64dc7c63de5d1fe09df02f89,,,,,,,decisionTrl,resources/DP.BMP,resources/DY.BMP,Door2,0.463888889,0.012962963,1,0,0,0.556,optionRight,20,1540,1,33,0,33,0,1,,,,,,,,,,,,,,,,,,,,,,,,,,,,,,,,,,,,,,,
,,,,,,,,2023-08-16_08h36.27.242,HF_wild_card,2022.2.4,Win32,57.60368664,5ffa12927eb1463a5c45b788,64d2fd46c836a06233681665,64dc7c63de5d1fe09df02f89,,,,,,,sngl,resources/Empty.png,resources/DR.BMP,Door3,0.447222222,-0.007407407,1,0,0,1.0227,optionRight,70,1610,1,34,0,34,0,1,,,,,,,,,,,,,,,,,,,,,,,,,,,,,,,,,,,,,,,
,,,,,,,,2023-08-16_08h36.27.242,HF_wild_card,2022.2.4,Win32,57.60368664,5ffa12927eb1463a5c45b788,64d2fd46c836a06233681665,64dc7c63de5d1fe09df02f89,,,,,,,decisionTrl,resources/DB.BMP,resources/DR.BMP,WildCard_NonEx,-0.503703704,-0.011111111,1,0,0,0.8976,optionLeft,55,1665,1,35,0,35,0,1,,,,,,,,,,,,,,,,,,,,,,,,,,,,,,,,,,,,,,,
,,,,,,,,2023-08-16_08h36.27.242,HF_wild_card,2022.2.4,Win32,57.60368664,5ffa12927eb1463a5c45b788,64d2fd46c836a06233681665,64dc7c63de5d1fe09df02f89,,,,,,,ctch,resources/DG.BMP,resources/DP.BMP,Door4,-0.350925926,-0.057407407,1,0,0,0.9152,optionLeft,80,1745,1,36,0,36,0,1,,,,,,,,,,,,,,,,,,,,,,,,,,,,,,,,,,,,,,,
,,,,,,,,2023-08-16_08h36.27.242,HF_wild_card,2022.2.4,Win32,57.60368664,5ffa12927eb1463a5c45b788,64d2fd46c836a06233681665,64dc7c63de5d1fe09df02f89,,,,,,,sngl,resources/DG.BMP,resources/Empty.png,Door4,-0.412962963,-0.02037037,1,0,0,1.2137,optionLeft,80,1825,1,37,0,37,0,1,,,,,,,,,,,,,,,,,,,,,,,,,,,,,,,,,,,,,,,
,,,,,,,,2023-08-16_08h36.27.242,HF_wild_card,2022.2.4,Win32,57.60368664,5ffa12927eb1463a5c45b788,64d2fd46c836a06233681665,64dc7c63de5d1fe09df02f89,,,,,,,sngl,resources/DR.BMP,resources/Empty.png,Door3,-0.343518519,0.023148148,1,0,0,0.7881,optionLeft,70,1895,1,38,0,38,0,1,,,,,,,,,,,,,,,,,,,,,,,,,,,,,,,,,,,,,,,
,,,,,,,,2023-08-16_08h36.27.242,HF_wild_card,2022.2.4,Win32,57.60368664,5ffa12927eb1463a5c45b788,64d2fd46c836a06233681665,64dc7c63de5d1fe09df02f89,,,,,,,decisionTrl,resources/DY.BMP,resources/DP.BMP,Door2,-0.412037037,0.027777778,1,0,0,1.1362,optionLeft,40,1935,1,39,0,39,0,1,,,,,,,,,,,,,,,,,,,,,,,,,,,,,,,,,,,,,,,
,,,,,,,,2023-08-16_08h36.27.242,HF_wild_card,2022.2.4,Win32,57.60368664,5ffa12927eb1463a5c45b788,64d2fd46c836a06233681665,64dc7c63de5d1fe09df02f89,,,,,,,sngl,resources/DP.BMP,resources/Empty.png,Door1,-0.547222222,-0.026851852,1,0,0,0.614,optionLeft,30,1965,1,40,0,40,0,1,,,,,,,,,,,,,,,,,,,,,,,,,,,,,,,,,,,,,,,
,,,,,,,,2023-08-16_08h36.27.242,HF_wild_card,2022.2.4,Win32,57.60368664,5ffa12927eb1463a5c45b788,64d2fd46c836a06233681665,64dc7c63de5d1fe09df02f89,,,,,,,sngl,resources/Empty.png,resources/DB.BMP,WildCard_NonEx,0.487037037,-0.016666667,1,0,0,0.7001,optionRight,45,2010,1,41,0,41,0,1,,,,,,,,,,,,,,,,,,,,,,,,,,,,,,,,,,,,,,,
,,,,,,,,2023-08-16_08h36.27.242,HF_wild_card,2022.2.4,Win32,57.60368664,5ffa12927eb1463a5c45b788,64d2fd46c836a06233681665,64dc7c63de5d1fe09df02f89,,,,,,,decisionTrl,resources/DG.BMP,resources/DR.BMP,Door3,0.298148148,-0.002777778,1,0,0,1.0004,optionRight,70,2080,1,42,0,42,0,1,,,,,,,,,,,,,,,,,,,,,,,,,,,,,,,,,,,,,,,
,,,,,,,,2023-08-16_08h36.27.242,HF_wild_card,2022.2.4,Win32,57.60368664,5ffa12927eb1463a5c45b788,64d2fd46c836a06233681665,64dc7c63de5d1fe09df02f89,,,,,,,sngl,resources/Empty.png,resources/DG.BMP,Door4,0.347222222,-0.019444444,1,0,0,0.8994,optionRight,60,2140,1,43,0,43,0,1,,,,,,,,,,,,,,,,,,,,,,,,,,,,,,,,,,,,,,,
,,,,,,,,2023-08-16_08h36.27.242,HF_wild_card,2022.2.4,Win32,57.60368664,5ffa12927eb1463a5c45b788,64d2fd46c836a06233681665,64dc7c63de5d1fe09df02f89,,,,,,,,,,,,,,,,,,,,,,,,,,0,0,0,0,1,,,,,,,,,,,,,,,,,,,,,,,,,,,,,,,,,,
,,,,,,,,2023-08-16_08h36.27.242,HF_wild_card,2022.2.4,Win32,57.60368664,5ffa12927eb1463a5c45b788,64d2fd46c836a06233681665,64dc7c63de5d1fe09df02f89,,,,,,,decisionTrl,resources/DP.BMP,resources/DY.BMP,Door1,-0.52037037,0.049074074,1,0,0,0.8258,optionLeft,30,2170,2,0,0,0,0,1,,,,,,,,,,,,,,,,,,,,,,,,,,,,,,,,,,,,,,,
,,,,,,,,2023-08-16_08h36.27.242,HF_wild_card,2022.2.4,Win32,57.60368664,5ffa12927eb1463a5c45b788,64d2fd46c836a06233681665,64dc7c63de5d1fe09df02f89,,,,,,,decisionTrl,resources/DB.BMP,resources/DP.BMP,WildCard_NonEx,-0.375925926,0,1,0,0,0.4193,optionLeft,45,2215,2,1,0,1,0,1,,,,,,,,,,,,,,,,,,,,,,,,,,,,,,,,,,,,,,,
,,,,,,,,2023-08-16_08h36.27.242,HF_wild_card,2022.2.4,Win32,57.60368664,5ffa12927eb1463a5c45b788,64d2fd46c836a06233681665,64dc7c63de5d1fe09df02f89,,,,,,,decisionTrl,resources/DB.BMP,resources/DR.BMP,WildCard_NonEx,-0.542592593,-0.035185185,1,0,0,0.5628,optionLeft,55,2270,2,2,0,2,0,1,,,,,,,,,,,,,,,,,,,,,,,,,,,,,,,,,,,,,,,
,,,,,,,,2023-08-16_08h36.27.242,HF_wild_card,2022.2.4,Win32,57.60368664,5ffa12927eb1463a5c45b788,64d2fd46c836a06233681665,64dc7c63de5d1fe09df02f89,,,,,,,decisionTrl,resources/DR.BMP,resources/DG.BMP,Door3,-0.397222222,-0.000925926,1,0,0,0.4543,optionLeft,70,2340,2,3,0,3,0,1,,,,,,,,,,,,,,,,,,,,,,,,,,,,,,,,,,,,,,,
,,,,,,,,2023-08-16_08h36.27.242,HF_wild_card,2022.2.4,Win32,57.60368664,5ffa12927eb1463a5c45b788,64d2fd46c836a06233681665,64dc7c63de5d1fe09df02f89,,,,,,,decisionTrl,resources/DR.BMP,resources/DB.BMP,Door3,-0.302777778,0.021296296,1,0,0,0.3986,optionLeft,70,2410,2,4,0,4,0,1,,,,,,,,,,,,,,,,,,,,,,,,,,,,,,,,,,,,,,,
,,,,,,,,2023-08-16_08h36.27.242,HF_wild_card,2022.2.4,Win32,57.60368664,5ffa12927eb1463a5c45b788,64d2fd46c836a06233681665,64dc7c63de5d1fe09df02f89,,,,,,,decisionTrl,resources/DR.BMP,resources/DG.BMP,Door3,-0.391666667,0.052777778,1,0,0,0.4037,optionLeft,70,2480,2,5,0,5,0,1,,,,,,,,,,,,,,,,,,,,,,,,,,,,,,,,,,,,,,,
,,,,,,,,2023-08-16_08h36.27.242,HF_wild_card,2022.2.4,Win32,57.60368664,5ffa12927eb1463a5c45b788,64d2fd46c836a06233681665,64dc7c63de5d1fe09df02f89,,,,,,,decisionTrl,resources/DP.BMP,resources/DB.BMP,Door1,-0.284259259,0.009259259,1,0,0,0.4159,optionLeft,30,2510,2,6,0,6,0,1,,,,,,,,,,,,,,,,,,,,,,,,,,,,,,,,,,,,,,,
,,,,,,,,2023-08-16_08h36.27.242,HF_wild_card,2022.2.4,Win32,57.60368664,5ffa12927eb1463a5c45b788,64d2fd46c836a06233681665,64dc7c63de5d1fe09df02f89,,,,,,,ctch,resources/DG.BMP,resources/DP.BMP,Door1,0.481481481,0.007407407,1,0,0,0.5235,optionRight,30,2540,2,7,0,7,0,1,,,,,,,,,,,,,,,,,,,,,,,,,,,,,,,,,,,,,,,
,,,,,,,,2023-08-16_08h36.27.242,HF_wild_card,2022.2.4,Win32,57.60368664,5ffa12927eb1463a5c45b788,64d2fd46c836a06233681665,64dc7c63de5d1fe09df02f89,,,,,,,decisionTrl,resources/DP.BMP,resources/DY.BMP,Door2,0.409259259,0.019444444,1,0,0,0.472,optionRight,40,2580,2,8,0,8,0,1,,,,,,,,,,,,,,,,,,,,,,,,,,,,,,,,,,,,,,,
,,,,,,,,2023-08-16_08h36.27.242,HF_wild_card,2022.2.4,Win32,57.60368664,5ffa12927eb1463a5c45b788,64d2fd46c836a06233681665,64dc7c63de5d1fe09df02f89,,,,,,,decisionTrl,resources/DY.BMP,resources/DP.BMP,Door1,0.341666667,0.038888889,1,0,0,0.4543,optionRight,30,2610,2,9,0,9,0,1,,,,,,,,,,,,,,,,,,,,,,,,,,,,,,,,,,,,,,,
,,,,,,,,2023-08-16_08h36.27.242,HF_wild_card,2022.2.4,Win32,57.60368664,5ffa12927eb1463a5c45b788,64d2fd46c836a06233681665,64dc7c63de5d1fe09df02f89,,,,,,,decisionTrl,resources/DG.BMP,resources/DR.BMP,Door3,0.337037037,0.04537037,1,0,0,0.4014,optionRight,70,2680,2,10,0,10,0,1,,,,,,,,,,,,,,,,,,,,,,,,,,,,,,,,,,,,,,,
,,,,,,,,2023-08-16_08h36.27.242,HF_wild_card,2022.2.4,Win32,57.60368664,5ffa12927eb1463a5c45b788,64d2fd46c836a06233681665,64dc7c63de5d1fe09df02f89,,,,,,,ctch,resources/DP.BMP,resources/DG.BMP,Door4,0.471296296,0.031481481,1,0,0,0.6296,optionRight,60,2740,2,11,0,11,0,1,,,,,,,,,,,,,,,,,,,,,,,,,,,,,,,,,,,,,,,
,,,,,,,,2023-08-16_08h36.27.242,HF_wild_card,2022.2.4,Win32,57.60368664,5ffa12927eb1463a5c45b788,64d2fd46c836a06233681665,64dc7c63de5d1fe09df02f89,,,,,,,decisionTrl,resources/DY.BMP,resources/DP.BMP,Door2,-0.309259259,0.02037037,1,0,0,0.4943,optionLeft,20,2760,2,12,0,12,0,1,,,,,,,,,,,,,,,,,,,,,,,,,,,,,,,,,,,,,,,
,,,,,,,,2023-08-16_08h36.27.242,HF_wild_card,2022.2.4,Win32,57.60368664,5ffa12927eb1463a5c45b788,64d2fd46c836a06233681665,64dc7c63de5d1fe09df02f89,,,,,,,sngl,resources/DY.BMP,resources/Empty.png,Door2,-0.321296296,-0.018518519,1,0,0,0.72,optionLeft,20,2780,2,13,0,13,0,1,,,,,,,,,,,,,,,,,,,,,,,,,,,,,,,,,,,,,,,
,,,,,,,,2023-08-16_08h36.27.242,HF_wild_card,2022.2.4,Win32,57.60368664,5ffa12927eb1463a5c45b788,64d2fd46c836a06233681665,64dc7c63de5d1fe09df02f89,,,,,,,decisionTrl,resources/DP.BMP,resources/DY.BMP,Door2,0.362037037,0.008333333,1,0,0,1.0588,optionRight,20,2800,2,14,0,14,0,1,,,,,,,,,,,,,,,,,,,,,,,,,,,,,,,,,,,,,,,
,,,,,,,,2023-08-16_08h36.27.242,HF_wild_card,2022.2.4,Win32,57.60368664,5ffa12927eb1463a5c45b788,64d2fd46c836a06233681665,64dc7c63de5d1fe09df02f89,,,,,,,sngl,resources/DR.BMP,resources/Empty.png,Door3,-0.160185185,-0.02037037,1,0,0,0.5399,optionLeft,70,2870,2,15,0,15,0,1,,,,,,,,,,,,,,,,,,,,,,,,,,,,,,,,,,,,,,,
,,,,,,,,2023-08-16_08h36.27.242,HF_wild_card,2022.2.4,Win32,57.60368664,5ffa12927eb1463a5c45b788,64d2fd46c836a06233681665,64dc7c63de5d1fe09df02f89,,,,,,,decisionTrl,resources/DG.BMP,resources/DB.BMP,Door4,-0.278703704,-0.067592593,1,0,0,0.696,optionLeft,80,2950,2,16,0,16,0,1,,,,,,,,,,,,,,,,,,,,,,,,,,,,,,,,,,,,,,,
,,,,,,,,2023-08-16_08h36.27.242,HF_wild_card,2022.2.4,Win32,57.60368664,5ffa12927eb1463a5c45b788,64d2fd46c836a06233681665,64dc7c63de5d1fe09df02f89,,,,,,,decisionTrl,resources/DG.BMP,resources/DR.BMP,Door4,-0.464814815,0.044444444,1,0,0,0.4937,optionLeft,60,3010,2,17,0,17,0,1,,,,,,,,,,,,,,,,,,,,,,,,,,,,,,,,,,,,,,,
,,,,,,,,2023-08-16_08h36.27.242,HF_wild_card,2022.2.4,Win32,57.60368664,5ffa12927eb1463a5c45b788,64d2fd46c836a06233681665,64dc7c63de5d1fe09df02f89,,,,,,,decisionTrl,resources/DY.BMP,resources/DB.BMP,Door2,-0.249074074,-0.00462963,1,0,0,0.9542,optionLeft,20,3030,2,18,0,18,0,1,,,,,,,,,,,,,,,,,,,,,,,,,,,,,,,,,,,,,,,
,,,,,,,,2023-08-16_08h36.27.242,HF_wild_card,2022.2.4,Win32,57.60368664,5ffa12927eb1463a5c45b788,64d2fd46c836a06233681665,64dc7c63de5d1fe09df02f89,,,,,,,sngl,resources/Empty.png,resources/DP.BMP,Door1,0.580555556,0.005555556,1,0,0,0.4738,optionRight,30,3060,2,19,0,19,0,1,,,,,,,,,,,,,,,,,,,,,,,,,,,,,,,,,,,,,,,
,,,,,,,,2023-08-16_08h36.27.242,HF_wild_card,2022.2.4,Win32,57.60368664,5ffa12927eb1463a5c45b788,64d2fd46c836a06233681665,64dc7c63de5d1fe09df02f89,,,,,,,decisionTrl,resources/DR.BMP,resources/DG.BMP,Door4,0.44537037,-0.011111111,1,0,0,1.0951,optionRight,80,3140,2,20,0,20,0,1,,,,,,,,,,,,,,,,,,,,,,,,,,,,,,,,,,,,,,,
,,,,,,,,2023-08-16_08h36.27.242,HF_wild_card,2022.2.4,Win32,57.60368664,5ffa12927eb1463a5c45b788,64d2fd46c836a06233681665,64dc7c63de5d1fe09df02f89,,,,,,,ctch,resources/DG.BMP,resources/DP.BMP,Door1,0.267592593,0.033333333,1,0,0,0.4178,optionRight,30,3170,2,21,0,21,0,1,,,,,,,,,,,,,,,,,,,,,,,,,,,,,,,,,,,,,,,
,,,,,,,,2023-08-16_08h36.27.242,HF_wild_card,2022.2.4,Win32,57.60368664,5ffa12927eb1463a5c45b788,64d2fd46c836a06233681665,64dc7c63de5d1fe09df02f89,,,,,,,sngl,resources/DB.BMP,resources/Empty.png,WildCard_NonEx,0.226851852,0.017592593,1,0,0,0.3305,optionLeft,55,3225,2,22,0,22,0,1,,,,,,,,,,,,,,,,,,,,,,,,,,,,,,,,,,,,,,,
,,,,,,,,2023-08-16_08h36.27.242,HF_wild_card,2022.2.4,Win32,57.60368664,5ffa12927eb1463a5c45b788,64d2fd46c836a06233681665,64dc7c63de5d1fe09df02f89,,,,,,,sngl,resources/Empty.png,resources/DR.BMP,Door3,0.152777778,0.001851852,1,0,0,0.4351,optionRight,70,3295,2,23,0,23,0,1,,,,,,,,,,,,,,,,,,,,,,,,,,,,,,,,,,,,,,,
,,,,,,,,2023-08-16_08h36.27.242,HF_wild_card,2022.2.4,Win32,57.60368664,5ffa12927eb1463a5c45b788,64d2fd46c836a06233681665,64dc7c63de5d1fe09df02f89,,,,,,,sngl,resources/Empty.png,resources/DY.BMP,Door2,0.347222222,-0.005555556,1,0,0,0.4529,optionRight,40,3335,2,24,0,24,0,1,,,,,,,,,,,,,,,,,,,,,,,,,,,,,,,,,,,,,,,
,,,,,,,,2023-08-16_08h36.27.242,HF_wild_card,2022.2.4,Win32,57.60368664,5ffa12927eb1463a5c45b788,64d2fd46c836a06233681665,64dc7c63de5d1fe09df02f89,,,,,,,ctch,resources/DY.BMP,resources/DR.BMP,Door2,-0.311111111,0.026851852,1,0,0,0.933,optionLeft,20,3355,2,25,0,25,0,1,,,,,,,,,,,,,,,,,,,,,,,,,,,,,,,,,,,,,,,
,,,,,,,,2023-08-16_08h36.27.242,HF_wild_card,2022.2.4,Win32,57.60368664,5ffa12927eb1463a5c45b788,64d2fd46c836a06233681665,64dc7c63de5d1fe09df02f89,,,,,,,decisionTrl,resources/DG.BMP,resources/DR.BMP,Door4,-0.34537037,0.090740741,1,0,0,0.3299,optionLeft,60,3415,2,26,0,26,0,1,,,,,,,,,,,,,,,,,,,,,,,,,,,,,,,,,,,,,,,
,,,,,,,,2023-08-16_08h36.27.242,HF_wild_card,2022.2.4,Win32,57.60368664,5ffa12927eb1463a5c45b788,64d2fd46c836a06233681665,64dc7c63de5d1fe09df02f89,,,,,,,decisionTrl,resources/DG.BMP,resources/DR.BMP,Door4,-0.358333333,0.050925926,1,0,0,0.33,optionLeft,60,3475,2,27,0,27,0,1,,,,,,,,,,,,,,,,,,,,,,,,,,,,,,,,,,,,,,,
,,,,,,,,2023-08-16_08h36.27.242,HF_wild_card,2022.2.4,Win32,57.60368664,5ffa12927eb1463a5c45b788,64d2fd46c836a06233681665,64dc7c63de5d1fe09df02f89,,,,,,,decisionTrl,resources/DY.BMP,resources/DP.BMP,Door2,-0.260185185,0.011111111,1,0,0,0.3293,optionLeft,20,3495,2,28,0,28,0,1,,,,,,,,,,,,,,,,,,,,,,,,,,,,,,,,,,,,,,,
,,,,,,,,2023-08-16_08h36.27.242,HF_wild_card,2022.2.4,Win32,57.60368664,5ffa12927eb1463a5c45b788,64d2fd46c836a06233681665,64dc7c63de5d1fe09df02f89,,,,,,,ctch,resources/DP.BMP,resources/DG.BMP,Door1,-0.265740741,0.00462963,1,0,0,0.4024,optionLeft,30,3525,2,29,0,29,0,1,,,,,,,,,,,,,,,,,,,,,,,,,,,,,,,,,,,,,,,
,,,,,,,,2023-08-16_08h36.27.242,HF_wild_card,2022.2.4,Win32,57.60368664,5ffa12927eb1463a5c45b788,64d2fd46c836a06233681665,64dc7c63de5d1fe09df02f89,,,,,,,sngl,resources/DB.BMP,resources/Empty.png,WildCard_NonEx,-0.362037037,0.002777778,1,0,0,0.3328,optionLeft,45,3570,2,30,0,30,0,1,,,,,,,,,,,,,,,,,,,,,,,,,,,,,,,,,,,,,,,
,,,,,,,,2023-08-16_08h36.27.242,HF_wild_card,2022.2.4,Win32,57.60368664,5ffa12927eb1463a5c45b788,64d2fd46c836a06233681665,64dc7c63de5d1fe09df02f89,,,,,,,decisionTrl,resources/DY.BMP,resources/DP.BMP,Door2,-0.333333333,0.027777778,1,0,0,0.5435,optionLeft,20,3590,2,31,0,31,0,1,,,,,,,,,,,,,,,,,,,,,,,,,,,,,,,,,,,,,,,
,,,,,,,,2023-08-16_08h36.27.242,HF_wild_card,2022.2.4,Win32,57.60368664,5ffa12927eb1463a5c45b788,64d2fd46c836a06233681665,64dc7c63de5d1fe09df02f89,,,,,,,sngl,resources/DG.BMP,resources/Empty.png,Door4,-0.29537037,0.001851852,1,0,0,0.4919,optionLeft,60,3650,2,32,0,32,0,1,,,,,,,,,,,,,,,,,,,,,,,,,,,,,,,,,,,,,,,
,,,,,,,,2023-08-16_08h36.27.242,HF_wild_card,2022.2.4,Win32,57.60368664,5ffa12927eb1463a5c45b788,64d2fd46c836a06233681665,64dc7c63de5d1fe09df02f89,,,,,,,sngl,resources/Empty.png,resources/DG.BMP,Door4,0.324074074,0.001851852,1,0,0,0.8378,optionRight,80,3730,2,33,0,33,0,1,,,,,,,,,,,,,,,,,,,,,,,,,,,,,,,,,,,,,,,
,,,,,,,,2023-08-16_08h36.27.242,HF_wild_card,2022.2.4,Win32,57.60368664,5ffa12927eb1463a5c45b788,64d2fd46c836a06233681665,64dc7c63de5d1fe09df02f89,,,,,,,sngl,resources/Empty.png,resources/DB.BMP,WildCard_NonEx,0.301851852,0.000925926,1,0,0,0.5073,optionRight,55,3785,2,34,0,34,0,1,,,,,,,,,,,,,,,,,,,,,,,,,,,,,,,,,,,,,,,
,,,,,,,,2023-08-16_08h36.27.242,HF_wild_card,2022.2.4,Win32,57.60368664,5ffa12927eb1463a5c45b788,64d2fd46c836a06233681665,64dc7c63de5d1fe09df02f89,,,,,,,decisionTrl,resources/DB.BMP,resources/DY.BMP,WildCard_NonEx,-0.313888889,0.039814815,1,0,0,0.6293,optionLeft,55,3840,2,35,0,35,0,1,,,,,,,,,,,,,,,,,,,,,,,,,,,,,,,,,,,,,,,
,,,,,,,,2023-08-16_08h36.27.242,HF_wild_card,2022.2.4,Win32,57.60368664,5ffa12927eb1463a5c45b788,64d2fd46c836a06233681665,64dc7c63de5d1fe09df02f89,,,,,,,ctch,resources/DY.BMP,resources/DR.BMP,Door2,-0.371296296,0.011111111,1,0,0,0.5421,optionLeft,20,3860,2,36,0,36,0,1,,,,,,,,,,,,,,,,,,,,,,,,,,,,,,,,,,,,,,,
,,,,,,,,2023-08-16_08h36.27.242,HF_wild_card,2022.2.4,Win32,57.60368664,5ffa12927eb1463a5c45b788,64d2fd46c836a06233681665,64dc7c63de5d1fe09df02f89,,,,,,,sngl,resources/DP.BMP,resources/Empty.png,Door1,-0.267592593,-0.008333333,1,0,0,0.6485,optionLeft,30,3890,2,37,0,37,0,1,,,,,,,,,,,,,,,,,,,,,,,,,,,,,,,,,,,,,,,
,,,,,,,,2023-08-16_08h36.27.242,HF_wild_card,2022.2.4,Win32,57.60368664,5ffa12927eb1463a5c45b788,64d2fd46c836a06233681665,64dc7c63de5d1fe09df02f89,,,,,,,ctch,resources/DR.BMP,resources/DY.BMP,Door3,-0.530555556,0.018518519,1,0,0,0.701,optionLeft,70,3960,2,38,0,38,0,1,,,,,,,,,,,,,,,,,,,,,,,,,,,,,,,,,,,,,,,
,,,,,,,,2023-08-16_08h36.27.242,HF_wild_card,2022.2.4,Win32,57.60368664,5ffa12927eb1463a5c45b788,64d2fd46c836a06233681665,64dc7c63de5d1fe09df02f89,,,,,,,decisionTrl,resources/DB.BMP,resources/DG.BMP,WildCard_NonEx,-0.202777778,-0.002777778,1,0,0,0.5073,optionLeft,45,4005,2,39,0,39,0,1,,,,,,,,,,,,,,,,,,,,,,,,,,,,,,,,,,,,,,,
,,,,,,,,2023-08-16_08h36.27.242,HF_wild_card,2022.2.4,Win32,57.60368664,5ffa12927eb1463a5c45b788,64d2fd46c836a06233681665,64dc7c63de5d1fe09df02f89,,,,,,,decisionTrl,resources/DP.BMP,resources/DY.BMP,Door1,-0.237962963,-0.00462963,1,0,0,0.5255,optionLeft,30,4035,2,40,0,40,0,1,,,,,,,,,,,,,,,,,,,,,,,,,,,,,,,,,,,,,,,
,,,,,,,,2023-08-16_08h36.27.242,HF_wild_card,2022.2.4,Win32,57.60368664,5ffa12927eb1463a5c45b788,64d2fd46c836a06233681665,64dc7c63de5d1fe09df02f89,,,,,,,ctch,resources/DR.BMP,resources/DY.BMP,Door3,-0.348148148,0.001851852,1,0,0,0.5578,optionLeft,70,4105,2,41,0,41,0,1,,,,,,,,,,,,,,,,,,,,,,,,,,,,,,,,,,,,,,,
,,,,,,,,2023-08-16_08h36.27.242,HF_wild_card,2022.2.4,Win32,57.60368664,5ffa12927eb1463a5c45b788,64d2fd46c836a06233681665,64dc7c63de5d1fe09df02f89,,,,,,,sngl,resources/Empty.png,resources/DB.BMP,WildCard_NonEx,0.444444444,-0.067592593,1,0,0,0.6132,optionRight,45,4150,2,42,0,42,0,1,,,,,,,,,,,,,,,,,,,,,,,,,,,,,,,,,,,,,,,
,,,,,,,,2023-08-16_08h36.27.242,HF_wild_card,2022.2.4,Win32,57.60368664,5ffa12927eb1463a5c45b788,64d2fd46c836a06233681665,64dc7c63de5d1fe09df02f89,,,,,,,decisionTrl,resources/DR.BMP,resources/DG.BMP,Door3,-0.314814815,-0.001851852,1,0,0,0.4868,optionLeft,70,4220,2,43,0,43,0,1,,,,,,,,,,,,,,,,,,,,,,,,,,,,,,,,,,,,,,,
,,,,,,,,2023-08-16_08h36.27.242,HF_wild_card,2022.2.4,Win32,57.60368664,5ffa12927eb1463a5c45b788,64d2fd46c836a06233681665,64dc7c63de5d1fe09df02f89,,,,,,,,,,,,,,,,,,,,,,,,,,1,0,1,0,1,,,,,,,,,,,,,,,,,,,,,,,,,,,,,,,,,,
,,,,,,,,2023-08-16_08h36.27.242,HF_wild_card,2022.2.4,Win32,57.60368664,5ffa12927eb1463a5c45b788,64d2fd46c836a06233681665,64dc7c63de5d1fe09df02f89,,,,,,,decisionTrl,resources/DB.BMP,resources/DY.BMP,WildCard_NonEx,-0.311111111,-0.116666667,1,0,0,0.86,optionLeft,55,4275,3,0,0,0,0,1,,,,,,,,,,,,,,,,,,,,,,,,,,,,,,,,,,,,,,,
,,,,,,,,2023-08-16_08h36.27.242,HF_wild_card,2022.2.4,Win32,57.60368664,5ffa12927eb1463a5c45b788,64d2fd46c836a06233681665,64dc7c63de5d1fe09df02f89,,,,,,,sngl,resources/DG.BMP,resources/Empty.png,Door4,-0.385185185,0.058333333,1,0,0,0.6294,optionLeft,80,4355,3,1,0,1,0,1,,,,,,,,,,,,,,,,,,,,,,,,,,,,,,,,,,,,,,,
,,,,,,,,2023-08-16_08h36.27.242,HF_wild_card,2022.2.4,Win32,57.60368664,5ffa12927eb1463a5c45b788,64d2fd46c836a06233681665,64dc7c63de5d1fe09df02f89,,,,,,,decisionTrl,resources/DB.BMP,resources/DR.BMP,Door3,0.476851852,-0.017592593,1,0,0,0.8155,optionRight,70,4425,3,2,0,2,0,1,,,,,,,,,,,,,,,,,,,,,,,,,,,,,,,,,,,,,,,
,,,,,,,,2023-08-16_08h36.27.242,HF_wild_card,2022.2.4,Win32,57.60368664,5ffa12927eb1463a5c45b788,64d2fd46c836a06233681665,64dc7c63de5d1fe09df02f89,,,,,,,ctch,resources/DG.BMP,resources/DP.BMP,Door4,-0.362962963,0.073148148,1,0,0,0.5976,optionLeft,60,4485,3,3,0,3,0,1,,,,,,,,,,,,,,,,,,,,,,,,,,,,,,,,,,,,,,,
,,,,,,,,2023-08-16_08h36.27.242,HF_wild_card,2022.2.4,Win32,57.60368664,5ffa12927eb1463a5c45b788,64d2fd46c836a06233681665,64dc7c63de5d1fe09df02f89,,,,,,,ctch,resources/DR.BMP,resources/DY.BMP,Door3,-0.217592593,0.013888889,1,0,0,0.3998,optionLeft,70,4555,3,4,0,4,0,1,,,,,,,,,,,,,,,,,,,,,,,,,,,,,,,,,,,,,,,
,,,,,,,,2023-08-16_08h36.27.242,HF_wild_card,2022.2.4,Win32,57.60368664,5ffa12927eb1463a5c45b788,64d2fd46c836a06233681665,64dc7c63de5d1fe09df02f89,,,,,,,decisionTrl,resources/DP.BMP,resources/DB.BMP,Door1,-0.274074074,0.012962963,1,0,0,0.3315,optionLeft,30,4585,3,5,0,5,0,1,,,,,,,,,,,,,,,,,,,,,,,,,,,,,,,,,,,,,,,
,,,,,,,,2023-08-16_08h36.27.242,HF_wild_card,2022.2.4,Win32,57.60368664,5ffa12927eb1463a5c45b788,64d2fd46c836a06233681665,64dc7c63de5d1fe09df02f89,,,,,,,decisionTrl,resources/DP.BMP,resources/DY.BMP,Door2,0.286111111,0.041666667,1,0,0,0.331,optionRight,20,4605,3,6,0,6,0,1,,,,,,,,,,,,,,,,,,,,,,,,,,,,,,,,,,,,,,,
,,,,,,,,2023-08-16_08h36.27.242,HF_wild_card,2022.2.4,Win32,57.60368664,5ffa12927eb1463a5c45b788,64d2fd46c836a06233681665,64dc7c63de5d1fe09df02f89,,,,,,,decisionTrl,resources/DG.BMP,resources/DR.BMP,Door3,0.316666667,0.011111111,1,0,0,0.3107,optionRight,70,4675,3,7,0,7,0,1,,,,,,,,,,,,,,,,,,,,,,,,,,,,,,,,,,,,,,,
,,,,,,,,2023-08-16_08h36.27.242,HF_wild_card,2022.2.4,Win32,57.60368664,5ffa12927eb1463a5c45b788,64d2fd46c836a06233681665,64dc7c63de5d1fe09df02f89,,,,,,,sngl,resources/Empty.png,resources/DR.BMP,Door3,0.355555556,0.038888889,1,0,0,0.3322,optionRight,70,4745,3,8,0,8,0,1,,,,,,,,,,,,,,,,,,,,,,,,,,,,,,,,,,,,,,,
,,,,,,,,2023-08-16_08h36.27.242,HF_wild_card,2022.2.4,Win32,57.60368664,5ffa12927eb1463a5c45b788,64d2fd46c836a06233681665,64dc7c63de5d1fe09df02f89,,,,,,,ctch,resources/DG.BMP,resources/DP.BMP,Door1,0.374074074,0.006481481,1,0,0,0.3649,optionRight,30,4775,3,9,0,9,0,1,,,,,,,,,,,,,,,,,,,,,,,,,,,,,,,,,,,,,,,
,,,,,,,,2023-08-16_08h36.27.242,HF_wild_card,2022.2.4,Win32,57.60368664,5ffa12927eb1463a5c45b788,64d2fd46c836a06233681665,64dc7c63de5d1fe09df02f89,,,,,,,decisionTrl,resources/DR.BMP,resources/DG.BMP,Door4,0.310185185,0.008333333,1,0,0,0.294,optionRight,80,4855,3,10,0,10,0,1,,,,,,,,,,,,,,,,,,,,,,,,,,,,,,,,,,,,,,,
,,,,,,,,2023-08-16_08h36.27.242,HF_wild_card,2022.2.4,Win32,57.60368664,5ffa12927eb1463a5c45b788,64d2fd46c836a06233681665,64dc7c63de5d1fe09df02f89,,,,,,,sngl,resources/Empty.png,resources/DB.BMP,WildCard_NonEx,-0.227777778,0.021296296,1,0,0,0.365,optionRight,45,4900,3,11,0,11,0,1,,,,,,,,,,,,,,,,,,,,,,,,,,,,,,,,,,,,,,,
,,,,,,,,2023-08-16_08h36.27.242,HF_wild_card,2022.2.4,Win32,57.60368664,5ffa12927eb1463a5c45b788,64d2fd46c836a06233681665,64dc7c63de5d1fe09df02f89,,,,,,,decisionTrl,resources/DR.BMP,resources/DG.BMP,Door3,-0.476851852,0.1,1,0,0,0.3928,optionLeft,70,4970,3,12,0,12,0,1,,,,,,,,,,,,,,,,,,,,,,,,,,,,,,,,,,,,,,,
,,,,,,,,2023-08-16_08h36.27.242,HF_wild_card,2022.2.4,Win32,57.60368664,5ffa12927eb1463a5c45b788,64d2fd46c836a06233681665,64dc7c63de5d1fe09df02f89,,,,,,,decisionTrl,resources/DB.BMP,resources/DG.BMP,WildCard_NonEx,-0.293518519,0.009259259,1,0,0,0.7705,optionLeft,55,5025,3,13,0,13,0,1,,,,,,,,,,,,,,,,,,,,,,,,,,,,,,,,,,,,,,,
,,,,,,,,2023-08-16_08h36.27.242,HF_wild_card,2022.2.4,Win32,57.60368664,5ffa12927eb1463a5c45b788,64d2fd46c836a06233681665,64dc7c63de5d1fe09df02f89,,,,,,,decisionTrl,resources/DB.BMP,resources/DP.BMP,Door1,0.286111111,-0.053703704,1,0,0,0.5625,optionRight,30,5055,3,14,0,14,0,1,,,,,,,,,,,,,,,,,,,,,,,,,,,,,,,,,,,,,,,
,,,,,,,,2023-08-16_08h36.27.242,HF_wild_card,2022.2.4,Win32,57.60368664,5ffa12927eb1463a5c45b788,64d2fd46c836a06233681665,64dc7c63de5d1fe09df02f89,,,,,,,ctch,resources/DP.BMP,resources/DG.BMP,Door1,-0.211111111,0.015740741,1,0,0,0.4004,optionLeft,30,5085,3,15,0,15,0,1,,,,,,,,,,,,,,,,,,,,,,,,,,,,,,,,,,,,,,,
,,,,,,,,2023-08-16_08h36.27.242,HF_wild_card,2022.2.4,Win32,57.60368664,5ffa12927eb1463a5c45b788,64d2fd46c836a06233681665,64dc7c63de5d1fe09df02f89,,,,,,,decisionTrl,resources/DY.BMP,resources/DP.BMP,Door2,-0.225925926,0.003703704,1,0,0,0.2791,optionLeft,40,5125,3,16,0,16,0,1,,,,,,,,,,,,,,,,,,,,,,,,,,,,,,,,,,,,,,,
,,,,,,,,2023-08-16_08h36.27.242,HF_wild_card,2022.2.4,Win32,57.60368664,5ffa12927eb1463a5c45b788,64d2fd46c836a06233681665,64dc7c63de5d1fe09df02f89,,,,,,,sngl,resources/Empty.png,resources/DP.BMP,Door1,-0.346296296,0.018518519,1,0,0,0.2916,optionRight,30,5155,3,17,0,17,0,1,,,,,,,,,,,,,,,,,,,,,,,,,,,,,,,,,,,,,,,
,,,,,,,,2023-08-16_08h36.27.242,HF_wild_card,2022.2.4,Win32,57.60368664,5ffa12927eb1463a5c45b788,64d2fd46c836a06233681665,64dc7c63de5d1fe09df02f89,,,,,,,decisionTrl,resources/DY.BMP,resources/DP.BMP,Door2,-0.190740741,-0.007407407,1,0,0,0.5062,optionLeft,40,5195,3,18,0,18,0,1,,,,,,,,,,,,,,,,,,,,,,,,,,,,,,,,,,,,,,,
,,,,,,,,2023-08-16_08h36.27.242,HF_wild_card,2022.2.4,Win32,57.60368664,5ffa12927eb1463a5c45b788,64d2fd46c836a06233681665,64dc7c63de5d1fe09df02f89,,,,,,,sngl,resources/DY.BMP,resources/Empty.png,Door2,-0.442592593,0.131481481,1,0,0,0.4004,optionLeft,40,5235,3,19,0,19,0,1,,,,,,,,,,,,,,,,,,,,,,,,,,,,,,,,,,,,,,,
,,,,,,,,2023-08-16_08h36.27.242,HF_wild_card,2022.2.4,Win32,57.60368664,5ffa12927eb1463a5c45b788,64d2fd46c836a06233681665,64dc7c63de5d1fe09df02f89,,,,,,,decisionTrl,resources/DP.BMP,resources/DY.BMP,Door1,-0.232407407,0.016666667,1,0,0,0.4022,optionLeft,30,5265,3,20,0,20,0,1,,,,,,,,,,,,,,,,,,,,,,,,,,,,,,,,,,,,,,,
,,,,,,,,2023-08-16_08h36.27.242,HF_wild_card,2022.2.4,Win32,57.60368664,5ffa12927eb1463a5c45b788,64d2fd46c836a06233681665,64dc7c63de5d1fe09df02f89,,,,,,,decisionTrl,resources/DP.BMP,resources/DY.BMP,Door2,0.261111111,0.02037037,1,0,0,0.3676,optionRight,20,5285,3,21,0,21,0,1,,,,,,,,,,,,,,,,,,,,,,,,,,,,,,,,,,,,,,,
,,,,,,,,2023-08-16_08h36.27.242,HF_wild_card,2022.2.4,Win32,57.60368664,5ffa12927eb1463a5c45b788,64d2fd46c836a06233681665,64dc7c63de5d1fe09df02f89,,,,,,,sngl,resources/DR.BMP,resources/Empty.png,Door3,-0.203703704,0.000925926,1,0,0,0.6311,optionLeft,70,5355,3,22,0,22,0,1,,,,,,,,,,,,,,,,,,,,,,,,,,,,,,,,,,,,,,,
,,,,,,,,2023-08-16_08h36.27.242,HF_wild_card,2022.2.4,Win32,57.60368664,5ffa12927eb1463a5c45b788,64d2fd46c836a06233681665,64dc7c63de5d1fe09df02f89,,,,,,,decisionTrl,resources/DY.BMP,resources/DB.BMP,Door2,-0.466666667,-0.00462963,1,0,0,0.5621,optionLeft,40,5395,3,23,0,23,0,1,,,,,,,,,,,,,,,,,,,,,,,,,,,,,,,,,,,,,,,
,,,,,,,,2023-08-16_08h36.27.242,HF_wild_card,2022.2.4,Win32,57.60368664,5ffa12927eb1463a5c45b788,64d2fd46c836a06233681665,64dc7c63de5d1fe09df02f89,,,,,,,ctch,resources/DR.BMP,resources/DY.BMP,Door3,-0.325925926,-0.024074074,1,0,0,0.4114,optionLeft,70,5465,3,24,0,24,0,1,,,,,,,,,,,,,,,,,,,,,,,,,,,,,,,,,,,,,,,
,,,,,,,,2023-08-16_08h36.27.242,HF_wild_card,2022.2.4,Win32,57.60368664,5ffa12927eb1463a5c45b788,64d2fd46c836a06233681665,64dc7c63de5d1fe09df02f89,,,,,,,decisionTrl,resources/DG.BMP,resources/DR.BMP,Door4,-0.358333333,-0.003703704,1,0,0,0.2837,optionLeft,80,5545,3,25,0,25,0,1,,,,,,,,,,,,,,,,,,,,,,,,,,,,,,,,,,,,,,,
,,,,,,,,2023-08-16_08h36.27.242,HF_wild_card,2022.2.4,Win32,57.60368664,5ffa12927eb1463a5c45b788,64d2fd46c836a06233681665,64dc7c63de5d1fe09df02f89,,,,,,,decisionTrl,resources/DY.BMP,resources/DP.BMP,Door2,-0.4,-0.032407407,1,0,0,0.2803,optionLeft,20,5565,3,26,0,26,0,1,,,,,,,,,,,,,,,,,,,,,,,,,,,,,,,,,,,,,,,
,,,,,,,,2023-08-16_08h36.27.242,HF_wild_card,2022.2.4,Win32,57.60368664,5ffa12927eb1463a5c45b788,64d2fd46c836a06233681665,64dc7c63de5d1fe09df02f89,,,,,,,sngl,resources/DB.BMP,resources/Empty.png,WildCard_NonEx,-0.37037037,-0.021296296,1,0,0,0.4203,optionLeft,55,5620,3,27,0,27,0,1,,,,,,,,,,,,,,,,,,,,,,,,,,,,,,,,,,,,,,,
,,,,,,,,2023-08-16_08h36.27.242,HF_wild_card,2022.2.4,Win32,57.60368664,5ffa12927eb1463a5c45b788,64d2fd46c836a06233681665,64dc7c63de5d1fe09df02f89,,,,,,,sngl,resources/DB.BMP,resources/Empty.png,WildCard_NonEx,-0.27962963,-0.053703704,1,0,0,1.1464,optionLeft,45,5665,3,28,0,28,0,1,,,,,,,,,,,,,,,,,,,,,,,,,,,,,,,,,,,,,,,
,,,,,,,,2023-08-16_08h36.27.242,HF_wild_card,2022.2.4,Win32,57.60368664,5ffa12927eb1463a5c45b788,64d2fd46c836a06233681665,64dc7c63de5d1fe09df02f89,,,,,,,ctch,resources/DP.BMP,resources/DG.BMP,Door4,0.39537037,-0.013888889,1,0,0,1.0391,optionRight,80,5745,3,29,0,29,0,1,,,,,,,,,,,,,,,,,,,,,,,,,,,,,,,,,,,,,,,
,,,,,,,,2023-08-16_08h36.27.242,HF_wild_card,2022.2.4,Win32,57.60368664,5ffa12927eb1463a5c45b788,64d2fd46c836a06233681665,64dc7c63de5d1fe09df02f89,,,,,,,decisionTrl,resources/DG.BMP,resources/DB.BMP,Door4,-0.185185185,-0.094444444,1,0,0,1.7677,optionLeft,60,5805,3,30,0,30,0,1,,,,,,,,,,,,,,,,,,,,,,,,,,,,,,,,,,,,,,,
,,,,,,,,2023-08-16_08h36.27.242,HF_wild_card,2022.2.4,Win32,57.60368664,5ffa12927eb1463a5c45b788,64d2fd46c836a06233681665,64dc7c63de5d1fe09df02f89,,,,,,,sngl,resources/Empty.png,resources/DG.BMP,Door4,-0.191666667,-0.061111111,1,0,0,0.297,optionRight,60,5865,3,31,0,31,0,1,,,,,,,,,,,,,,,,,,,,,,,,,,,,,,,,,,,,,,,
,,,,,,,,2023-08-16_08h36.27.242,HF_wild_card,2022.2.4,Win32,57.60368664,5ffa12927eb1463a5c45b788,64d2fd46c836a06233681665,64dc7c63de5d1fe09df02f89,,,,,,,decisionTrl,resources/DR.BMP,resources/DB.BMP,WildCard_NonEx,0.355555556,-0.127777778,1,0,0,0.5089,optionRight,55,5920,3,32,0,32,0,1,,,,,,,,,,,,,,,,,,,,,,,,,,,,,,,,,,,,,,,
,,,,,,,,2023-08-16_08h36.27.242,HF_wild_card,2022.2.4,Win32,57.60368664,5ffa12927eb1463a5c45b788,64d2fd46c836a06233681665,64dc7c63de5d1fe09df02f89,,,,,,,decisionTrl,resources/DR.BMP,resources/DG.BMP,Door4,0.231481481,-0.018518519,1,0,0,0.5084,optionRight,80,6000,3,33,0,33,0,1,,,,,,,,,,,,,,,,,,,,,,,,,,,,,,,,,,,,,,,
,,,,,,,,2023-08-16_08h36.27.242,HF_wild_card,2022.2.4,Win32,57.60368664,5ffa12927eb1463a5c45b788,64d2fd46c836a06233681665,64dc7c63de5d1fe09df02f89,,,,,,,decisionTrl,resources/DG.BMP,resources/DR.BMP,Door4,-0.193518519,-0.005555556,1,0,0,0.5262,optionLeft,60,6060,3,34,0,34,0,1,,,,,,,,,,,,,,,,,,,,,,,,,,,,,,,,,,,,,,,
,,,,,,,,2023-08-16_08h36.27.242,HF_wild_card,2022.2.4,Win32,57.60368664,5ffa12927eb1463a5c45b788,64d2fd46c836a06233681665,64dc7c63de5d1fe09df02f89,,,,,,,sngl,resources/Empty.png,resources/DY.BMP,Door2,0.398148148,-0.066666667,1,0,0,0.4208,optionRight,20,6080,3,35,0,35,0,1,,,,,,,,,,,,,,,,,,,,,,,,,,,,,,,,,,,,,,,
,,,,,,,,2023-08-16_08h36.27.242,HF_wild_card,2022.2.4,Win32,57.60368664,5ffa12927eb1463a5c45b788,64d2fd46c836a06233681665,64dc7c63de5d1fe09df02f89,,,,,,,decisionTrl,resources/DR.BMP,resources/DG.BMP,Door3,-0.196296296,-0.003703704,1,0,0,0.4531,optionLeft,70,6150,3,36,0,36,0,1,,,,,,,,,,,,,,,,,,,,,,,,,,,,,,,,,,,,,,,
,,,,,,,,2023-08-16_08h36.27.242,HF_wild_card,2022.2.4,Win32,57.60368664,5ffa12927eb1463a5c45b788,64d2fd46c836a06233681665,64dc7c63de5d1fe09df02f89,,,,,,,decisionTrl,resources/DY.BMP,resources/DP.BMP,Door1,0.299074074,-0.006481481,1,0,0,0.5398,optionRight,30,6180,3,37,0,37,0,1,,,,,,,,,,,,,,,,,,,,,,,,,,,,,,,,,,,,,,,
,,,,,,,,2023-08-16_08h36.27.242,HF_wild_card,2022.2.4,Win32,57.60368664,5ffa12927eb1463a5c45b788,64d2fd46c836a06233681665,64dc7c63de5d1fe09df02f89,,,,,,,ctch,resources/DY.BMP,resources/DR.BMP,Door2,-0.180555556,-0.016666667,1,0,0,0.5245,optionLeft,20,6200,3,38,0,38,0,1,,,,,,,,,,,,,,,,,,,,,,,,,,,,,,,,,,,,,,,
,,,,,,,,2023-08-16_08h36.27.242,HF_wild_card,2022.2.4,Win32,57.60368664,5ffa12927eb1463a5c45b788,64d2fd46c836a06233681665,64dc7c63de5d1fe09df02f89,,,,,,,sngl,resources/DP.BMP,resources/Empty.png,Door1,0.405555556,-0.164814815,1,0,0,0.634,optionLeft,30,6230,3,39,0,39,0,1,,,,,,,,,,,,,,,,,,,,,,,,,,,,,,,,,,,,,,,
,,,,,,,,2023-08-16_08h36.27.242,HF_wild_card,2022.2.4,Win32,57.60368664,5ffa12927eb1463a5c45b788,64d2fd46c836a06233681665,64dc7c63de5d1fe09df02f89,,,,,,,decisionTrl,resources/DG.BMP,resources/DR.BMP,Door3,0.266666667,-0.013888889,1,0,0,0.7377,optionRight,70,6300,3,40,0,40,0,1,,,,,,,,,,,,,,,,,,,,,,,,,,,,,,,,,,,,,,,
,,,,,,,,2023-08-16_08h36.27.242,HF_wild_card,2022.2.4,Win32,57.60368664,5ffa12927eb1463a5c45b788,64d2fd46c836a06233681665,64dc7c63de5d1fe09df02f89,,,,,,,decisionTrl,resources/DP.BMP,resources/DY.BMP,Door1,-0.19537037,-0.012037037,1,0,0,0.3701,optionLeft,30,6330,3,41,0,41,0,1,,,,,,,,,,,,,,,,,,,,,,,,,,,,,,,,,,,,,,,
,,,,,,,,2023-08-16_08h36.27.242,HF_wild_card,2022.2.4,Win32,57.60368664,5ffa12927eb1463a5c45b788,64d2fd46c836a06233681665,64dc7c63de5d1fe09df02f89,,,,,,,sngl,resources/Empty.png,resources/DB.BMP,WildCard_NonEx,0.209259259,0.035185185,1,0,0,0.7429,optionRight,55,6385,3,42,0,42,0,1,,,,,,,,,,,,,,,,,,,,,,,,,,,,,,,,,,,,,,,
,,,,,,,,2023-08-16_08h36.27.242,HF_wild_card,2022.2.4,Win32,57.60368664,5ffa12927eb1463a5c45b788,64d2fd46c836a06233681665,64dc7c63de5d1fe09df02f89,,,,,,,ctch,resources/DY.BMP,resources/DR.BMP,Door3,0.380555556,0.011111111,1,0,0,0.3978,optionRight,70,6455,3,43,0,43,0,1,,,,,,,,,,,,,,,,,,,,,,,,,,,,,,,,,,,,,,,
,,,,,,,,2023-08-16_08h36.27.242,HF_wild_card,2022.2.4,Win32,57.60368664,5ffa12927eb1463a5c45b788,64d2fd46c836a06233681665,64dc7c63de5d1fe09df02f89,,,,,,,,,,,,,,,,,,,,,,,,,,2,0,2,0,1,,,,,,,,,,,,,,,,,,,,,,,,,,,,,,,,,,
,,,,,,,,2023-08-16_08h36.27.242,HF_wild_card,2022.2.4,Win32,57.60368664,5ffa12927eb1463a5c45b788,64d2fd46c836a06233681665,64dc7c63de5d1fe09df02f89,,,,,,,decisionTrl,resources/DG.BMP,resources/DR.BMP,Door4,-0.390740741,0.038888889,1,0,0,0.5844,optionLeft,80,6535,4,0,0,0,0,1,,,,,,,,,,,,,,,,,,,,,,,,,,,,,,,,,,,,,,,
,,,,,,,,2023-08-16_08h36.27.242,HF_wild_card,2022.2.4,Win32,57.60368664,5ffa12927eb1463a5c45b788,64d2fd46c836a06233681665,64dc7c63de5d1fe09df02f89,,,,,,,decisionTrl,resources/DP.BMP,resources/DY.BMP,Door2,0.477777778,-0.023148148,1,0,0,1.087,optionRight,20,6555,4,1,0,1,0,1,,,,,,,,,,,,,,,,,,,,,,,,,,,,,,,,,,,,,,,
,,,,,,,,2023-08-16_08h36.27.242,HF_wild_card,2022.2.4,Win32,57.60368664,5ffa12927eb1463a5c45b788,64d2fd46c836a06233681665,64dc7c63de5d1fe09df02f89,,,,,,,decisionTrl,resources/DY.BMP,resources/DP.BMP,Door1,0.439814815,-0.003703704,1,0,0,0.3701,optionRight,30,6585,4,2,0,2,0,1,,,,,,,,,,,,,,,,,,,,,,,,,,,,,,,,,,,,,,,
,,,,,,,,2023-08-16_08h36.27.242,HF_wild_card,2022.2.4,Win32,57.60368664,5ffa12927eb1463a5c45b788,64d2fd46c836a06233681665,64dc7c63de5d1fe09df02f89,,,,,,,decisionTrl,resources/DP.BMP,resources/DY.BMP,Door2,0.393518519,0.025,1,0,0,0.3306,optionRight,40,6625,4,3,0,3,0,1,,,,,,,,,,,,,,,,,,,,,,,,,,,,,,,,,,,,,,,
,,,,,,,,2023-08-16_08h36.27.242,HF_wild_card,2022.2.4,Win32,57.60368664,5ffa12927eb1463a5c45b788,64d2fd46c836a06233681665,64dc7c63de5d1fe09df02f89,,,,,,,sngl,resources/Empty.png,resources/DY.BMP,Door2,0.362962963,0.012037037,1,0,0,0.4534,optionRight,40,6665,4,4,0,4,0,1,,,,,,,,,,,,,,,,,,,,,,,,,,,,,,,,,,,,,,,
,,,,,,,,2023-08-16_08h36.27.242,HF_wild_card,2022.2.4,Win32,57.60368664,5ffa12927eb1463a5c45b788,64d2fd46c836a06233681665,64dc7c63de5d1fe09df02f89,,,,,,,decisionTrl,resources/DP.BMP,resources/DY.BMP,Door2,0.451851852,0.000925926,1,0,0,0.355,optionRight,40,6705,4,5,0,5,0,1,,,,,,,,,,,,,,,,,,,,,,,,,,,,,,,,,,,,,,,
,,,,,,,,2023-08-16_08h36.27.242,HF_wild_card,2022.2.4,Win32,57.60368664,5ffa12927eb1463a5c45b788,64d2fd46c836a06233681665,64dc7c63de5d1fe09df02f89,,,,,,,decisionTrl,resources/DY.BMP,resources/DBN.BMP,WildCard_Ex,0.299074074,0.010185185,1,0,0,0.3297,optionRight,55,6760,4,6,0,6,0,1,,,,,,,,,,,,,,,,,,,,,,,,,,,,,,,,,,,,,,,
,,,,,,,,2023-08-16_08h36.27.242,HF_wild_card,2022.2.4,Win32,57.60368664,5ffa12927eb1463a5c45b788,64d2fd46c836a06233681665,64dc7c63de5d1fe09df02f89,,,,,,,decisionTrl,resources/DBN.BMP,resources/DY.BMP,WildCard_Ex,-0.433333333,0.042592593,1,0,0,0.774,optionLeft,55,6815,4,7,0,7,0,1,,,,,,,,,,,,,,,,,,,,,,,,,,,,,,,,,,,,,,,
,,,,,,,,2023-08-16_08h36.27.242,HF_wild_card,2022.2.4,Win32,57.60368664,5ffa12927eb1463a5c45b788,64d2fd46c836a06233681665,64dc7c63de5d1fe09df02f89,,,,,,,ctch,resources/DR.BMP,resources/DY.BMP,Door2,0.342592593,-0.039814815,1,0,0,0.3658,optionRight,40,6855,4,8,0,8,0,1,,,,,,,,,,,,,,,,,,,,,,,,,,,,,,,,,,,,,,,
,,,,,,,,2023-08-16_08h36.27.242,HF_wild_card,2022.2.4,Win32,57.60368664,5ffa12927eb1463a5c45b788,64d2fd46c836a06233681665,64dc7c63de5d1fe09df02f89,,,,,,,ctch,resources/DY.BMP,resources/DR.BMP,Door2,-0.312037037,0.025,1,0,0,0.3454,optionLeft,20,6875,4,9,0,9,0,1,,,,,,,,,,,,,,,,,,,,,,,,,,,,,,,,,,,,,,,
,,,,,,,,2023-08-16_08h36.27.242,HF_wild_card,2022.2.4,Win32,57.60368664,5ffa12927eb1463a5c45b788,64d2fd46c836a06233681665,64dc7c63de5d1fe09df02f89,,,,,,,decisionTrl,resources/DG.BMP,resources/DBN.BMP,Door4,-0.196296296,0.002777778,1,0,0,0.4541,optionLeft,80,6955,4,10,0,10,0,1,,,,,,,,,,,,,,,,,,,,,,,,,,,,,,,,,,,,,,,
,,,,,,,,2023-08-16_08h36.27.242,HF_wild_card,2022.2.4,Win32,57.60368664,5ffa12927eb1463a5c45b788,64d2fd46c836a06233681665,64dc7c63de5d1fe09df02f89,,,,,,,decisionTrl,resources/DBN.BMP,resources/DG.BMP,WildCard_Ex,-0.166666667,-0.046296296,1,0,0,0.6473,optionLeft,45,7000,4,11,0,11,0,1,,,,,,,,,,,,,,,,,,,,,,,,,,,,,,,,,,,,,,,
,,,,,,,,2023-08-16_08h36.27.242,HF_wild_card,2022.2.4,Win32,57.60368664,5ffa12927eb1463a5c45b788,64d2fd46c836a06233681665,64dc7c63de5d1fe09df02f89,,,,,,,decisionTrl,resources/DR.BMP,resources/DBN.BMP,WildCard_Ex,0.336111111,-0.003703704,1,0,0,0.6376,optionRight,55,7055,4,12,0,12,0,1,,,,,,,,,,,,,,,,,,,,,,,,,,,,,,,,,,,,,,,
,,,,,,,,2023-08-16_08h36.27.242,HF_wild_card,2022.2.4,Win32,57.60368664,5ffa12927eb1463a5c45b788,64d2fd46c836a06233681665,64dc7c63de5d1fe09df02f89,,,,,,,sngl,resources/DBN.BMP,resources/Empty.png,WildCard_Ex,-0.251851852,0.012037037,1,0,0,0.5426,optionLeft,45,7100,4,13,0,13,0,1,,,,,,,,,,,,,,,,,,,,,,,,,,,,,,,,,,,,,,,
,,,,,,,,2023-08-16_08h36.27.242,HF_wild_card,2022.2.4,Win32,57.60368664,5ffa12927eb1463a5c45b788,64d2fd46c836a06233681665,64dc7c63de5d1fe09df02f89,,,,,,,sngl,resources/Empty.png,resources/DBN.BMP,WildCard_Ex,0.587962963,-0.09537037,1,0,0,0.5065,optionRight,55,7155,4,14,0,14,0,1,,,,,,,,,,,,,,,,,,,,,,,,,,,,,,,,,,,,,,,
,,,,,,,,2023-08-16_08h36.27.242,HF_wild_card,2022.2.4,Win32,57.60368664,5ffa12927eb1463a5c45b788,64d2fd46c836a06233681665,64dc7c63de5d1fe09df02f89,,,,,,,decisionTrl,resources/DBN.BMP,resources/DP.BMP,WildCard_Ex,-0.39537037,0.011111111,1,0,0,0.6357,optionLeft,45,7200,4,15,0,15,0,1,,,,,,,,,,,,,,,,,,,,,,,,,,,,,,,,,,,,,,,
,,,,,,,,2023-08-16_08h36.27.242,HF_wild_card,2022.2.4,Win32,57.60368664,5ffa12927eb1463a5c45b788,64d2fd46c836a06233681665,64dc7c63de5d1fe09df02f89,,,,,,,decisionTrl,resources/DP.BMP,resources/DBN.BMP,WildCard_Ex,0.337962963,-0.02962963,1,0,0,0.527,optionRight,55,7255,4,16,0,16,0,1,,,,,,,,,,,,,,,,,,,,,,,,,,,,,,,,,,,,,,,
,,,,,,,,2023-08-16_08h36.27.242,HF_wild_card,2022.2.4,Win32,57.60368664,5ffa12927eb1463a5c45b788,64d2fd46c836a06233681665,64dc7c63de5d1fe09df02f89,,,,,,,sngl,resources/DP.BMP,resources/Empty.png,Door1,-0.424074074,0.032407407,1,0,0,0.6665,optionLeft,30,7285,4,17,0,17,0,1,,,,,,,,,,,,,,,,,,,,,,,,,,,,,,,,,,,,,,,
,,,,,,,,2023-08-16_08h36.27.242,HF_wild_card,2022.2.4,Win32,57.60368664,5ffa12927eb1463a5c45b788,64d2fd46c836a06233681665,64dc7c63de5d1fe09df02f89,,,,,,,decisionTrl,resources/DG.BMP,resources/DR.BMP,Door4,-0.236111111,-0.008333333,1,0,0,0.6647,optionLeft,60,7345,4,18,0,18,0,1,,,,,,,,,,,,,,,,,,,,,,,,,,,,,,,,,,,,,,,
,,,,,,,,2023-08-16_08h36.27.242,HF_wild_card,2022.2.4,Win32,57.60368664,5ffa12927eb1463a5c45b788,64d2fd46c836a06233681665,64dc7c63de5d1fe09df02f89,,,,,,,ctch,resources/DY.BMP,resources/DR.BMP,Door3,0.397222222,0.001851852,1,0,0,0.5067,optionRight,70,7415,4,19,0,19,0,1,,,,,,,,,,,,,,,,,,,,,,,,,,,,,,,,,,,,,,,
,,,,,,,,2023-08-16_08h36.27.242,HF_wild_card,2022.2.4,Win32,57.60368664,5ffa12927eb1463a5c45b788,64d2fd46c836a06233681665,64dc7c63de5d1fe09df02f89,,,,,,,decisionTrl,resources/DG.BMP,resources/DR.BMP,Door4,-0.332407407,-0.069444444,1,0,0,0.7723,optionLeft,60,7475,4,20,0,20,0,1,,,,,,,,,,,,,,,,,,,,,,,,,,,,,,,,,,,,,,,
,,,,,,,,2023-08-16_08h36.27.242,HF_wild_card,2022.2.4,Win32,57.60368664,5ffa12927eb1463a5c45b788,64d2fd46c836a06233681665,64dc7c63de5d1fe09df02f89,,,,,,,decisionTrl,resources/DY.BMP,resources/DP.BMP,Door2,-0.134259259,-0.015740741,1,0,0,0.5208,optionLeft,40,7515,4,21,0,21,0,1,,,,,,,,,,,,,,,,,,,,,,,,,,,,,,,,,,,,,,,
,,,,,,,,2023-08-16_08h36.27.242,HF_wild_card,2022.2.4,Win32,57.60368664,5ffa12927eb1463a5c45b788,64d2fd46c836a06233681665,64dc7c63de5d1fe09df02f89,,,,,,,decisionTrl,resources/DR.BMP,resources/DG.BMP,Door4,0.673148148,-0.041666667,1,0,0,0.4191,optionRight,60,7575,4,22,0,22,0,1,,,,,,,,,,,,,,,,,,,,,,,,,,,,,,,,,,,,,,,
,,,,,,,,2023-08-16_08h36.27.242,HF_wild_card,2022.2.4,Win32,57.60368664,5ffa12927eb1463a5c45b788,64d2fd46c836a06233681665,64dc7c63de5d1fe09df02f89,,,,,,,decisionTrl,resources/DP.BMP,resources/DY.BMP,Door1,-0.218518519,0.007407407,1,0,0,0.4362,optionLeft,30,7605,4,23,0,23,0,1,,,,,,,,,,,,,,,,,,,,,,,,,,,,,,,,,,,,,,,
,,,,,,,,2023-08-16_08h36.27.242,HF_wild_card,2022.2.4,Win32,57.60368664,5ffa12927eb1463a5c45b788,64d2fd46c836a06233681665,64dc7c63de5d1fe09df02f89,,,,,,,sngl,resources/Empty.png,resources/DR.BMP,Door3,0.243518519,0.008333333,1,0,0,0.5629,optionRight,70,7675,4,24,0,24,0,1,,,,,,,,,,,,,,,,,,,,,,,,,,,,,,,,,,,,,,,
,,,,,,,,2023-08-16_08h36.27.242,HF_wild_card,2022.2.4,Win32,57.60368664,5ffa12927eb1463a5c45b788,64d2fd46c836a06233681665,64dc7c63de5d1fe09df02f89,,,,,,,sngl,resources/DR.BMP,resources/Empty.png,Door3,-0.25,-0.065740741,1,0,0,0.7928,optionLeft,70,7745,4,25,0,25,0,1,,,,,,,,,,,,,,,,,,,,,,,,,,,,,,,,,,,,,,,
,,,,,,,,2023-08-16_08h36.27.242,HF_wild_card,2022.2.4,Win32,57.60368664,5ffa12927eb1463a5c45b788,64d2fd46c836a06233681665,64dc7c63de5d1fe09df02f89,,,,,,,decisionTrl,resources/DY.BMP,resources/DP.BMP,Door1,0.252777778,-0.091666667,1,0,0,0.6506,optionRight,30,7775,4,26,0,26,0,1,,,,,,,,,,,,,,,,,,,,,,,,,,,,,,,,,,,,,,,
,,,,,,,,2023-08-16_08h36.27.242,HF_wild_card,2022.2.4,Win32,57.60368664,5ffa12927eb1463a5c45b788,64d2fd46c836a06233681665,64dc7c63de5d1fe09df02f89,,,,,,,sngl,resources/Empty.png,resources/DP.BMP,Door1,0.303703704,-0.015740741,1,0,0,0.4568,optionRight,30,7805,4,27,0,27,0,1,,,,,,,,,,,,,,,,,,,,,,,,,,,,,,,,,,,,,,,
,,,,,,,,2023-08-16_08h36.27.242,HF_wild_card,2022.2.4,Win32,57.60368664,5ffa12927eb1463a5c45b788,64d2fd46c836a06233681665,64dc7c63de5d1fe09df02f89,,,,,,,decisionTrl,resources/DR.BMP,resources/DG.BMP,Door4,0.415740741,-0.025,1,0,0,0.5605,optionRight,60,7865,4,28,0,28,0,1,,,,,,,,,,,,,,,,,,,,,,,,,,,,,,,,,,,,,,,
,,,,,,,,2023-08-16_08h36.27.242,HF_wild_card,2022.2.4,Win32,57.60368664,5ffa12927eb1463a5c45b788,64d2fd46c836a06233681665,64dc7c63de5d1fe09df02f89,,,,,,,ctch,resources/DG.BMP,resources/DP.BMP,Door4,-0.158333333,0.025,1,0,0,0.3651,optionLeft,60,7925,4,29,0,29,0,1,,,,,,,,,,,,,,,,,,,,,,,,,,,,,,,,,,,,,,,
,,,,,,,,2023-08-16_08h36.27.242,HF_wild_card,2022.2.4,Win32,57.60368664,5ffa12927eb1463a5c45b788,64d2fd46c836a06233681665,64dc7c63de5d1fe09df02f89,,,,,,,ctch,resources/DP.BMP,resources/DG.BMP,Door4,0.359259259,-0.005555556,1,0,0,0.492,optionRight,80,8005,4,30,0,30,0,1,,,,,,,,,,,,,,,,,,,,,,,,,,,,,,,,,,,,,,,
,,,,,,,,2023-08-16_08h36.27.242,HF_wild_card,2022.2.4,Win32,57.60368664,5ffa12927eb1463a5c45b788,64d2fd46c836a06233681665,64dc7c63de5d1fe09df02f89,,,,,,,decisionTrl,resources/DR.BMP,resources/DG.BMP,Door4,0.353703704,0.005555556,1,0,0,0.4936,optionRight,60,8065,4,31,0,31,0,1,,,,,,,,,,,,,,,,,,,,,,,,,,,,,,,,,,,,,,,
,,,,,,,,2023-08-16_08h36.27.242,HF_wild_card,2022.2.4,Win32,57.60368664,5ffa12927eb1463a5c45b788,64d2fd46c836a06233681665,64dc7c63de5d1fe09df02f89,,,,,,,decisionTrl,resources/DBN.BMP,resources/DR.BMP,WildCard_Ex,-0.258333333,0.047222222,1,0,0,0.67,optionLeft,45,8110,4,32,0,32,0,1,,,,,,,,,,,,,,,,,,,,,,,,,,,,,,,,,,,,,,,
,,,,,,,,2023-08-16_08h36.27.242,HF_wild_card,2022.2.4,Win32,57.60368664,5ffa12927eb1463a5c45b788,64d2fd46c836a06233681665,64dc7c63de5d1fe09df02f89,,,,,,,decisionTrl,resources/DR.BMP,resources/DG.BMP,Door4,0.535185185,0.010185185,1,0,0,0.6177,optionRight,60,8170,4,33,0,33,0,1,,,,,,,,,,,,,,,,,,,,,,,,,,,,,,,,,,,,,,,
,,,,,,,,2023-08-16_08h36.27.242,HF_wild_card,2022.2.4,Win32,57.60368664,5ffa12927eb1463a5c45b788,64d2fd46c836a06233681665,64dc7c63de5d1fe09df02f89,,,,,,,ctch,resources/DG.BMP,resources/DP.BMP,Door4,-0.384259259,0.056481481,1,0,0,0.654,optionLeft,80,8250,4,34,0,34,0,1,,,,,,,,,,,,,,,,,,,,,,,,,,,,,,,,,,,,,,,
,,,,,,,,2023-08-16_08h36.27.242,HF_wild_card,2022.2.4,Win32,57.60368664,5ffa12927eb1463a5c45b788,64d2fd46c836a06233681665,64dc7c63de5d1fe09df02f89,,,,,,,sngl,resources/DY.BMP,resources/Empty.png,Door2,-0.260185185,0.044444444,1,0,0,0.5965,optionLeft,20,8270,4,35,0,35,0,1,,,,,,,,,,,,,,,,,,,,,,,,,,,,,,,,,,,,,,,
,,,,,,,,2023-08-16_08h36.27.242,HF_wild_card,2022.2.4,Win32,57.60368664,5ffa12927eb1463a5c45b788,64d2fd46c836a06233681665,64dc7c63de5d1fe09df02f89,,,,,,,ctch,resources/DP.BMP,resources/DG.BMP,Door4,0.642592593,-0.022222222,1,0,0,0.5979,optionRight,80,8350,4,36,0,36,0,1,,,,,,,,,,,,,,,,,,,,,,,,,,,,,,,,,,,,,,,
,,,,,,,,2023-08-16_08h36.27.242,HF_wild_card,2022.2.4,Win32,57.60368664,5ffa12927eb1463a5c45b788,64d2fd46c836a06233681665,64dc7c63de5d1fe09df02f89,,,,,,,sngl,resources/Empty.png,resources/DG.BMP,Door4,0.421296296,-0.027777778,1,0,0,0.508,optionRight,80,8430,4,37,0,37,0,1,,,,,,,,,,,,,,,,,,,,,,,,,,,,,,,,,,,,,,,
,,,,,,,,2023-08-16_08h36.27.242,HF_wild_card,2022.2.4,Win32,57.60368664,5ffa12927eb1463a5c45b788,64d2fd46c836a06233681665,64dc7c63de5d1fe09df02f89,,,,,,,decisionTrl,resources/DG.BMP,resources/DR.BMP,Door4,-0.391666667,-0.000925926,1,0,0,0.5973,optionLeft,80,8510,4,38,0,38,0,1,,,,,,,,,,,,,,,,,,,,,,,,,,,,,,,,,,,,,,,
,,,,,,,,2023-08-16_08h36.27.242,HF_wild_card,2022.2.4,Win32,57.60368664,5ffa12927eb1463a5c45b788,64d2fd46c836a06233681665,64dc7c63de5d1fe09df02f89,,,,,,,sngl,resources/DG.BMP,resources/Empty.png,Door4,-0.263888889,-0.008333333,1,0,0,0.4564,optionLeft,60,8570,4,39,0,39,0,1,,,,,,,,,,,,,,,,,,,,,,,,,,,,,,,,,,,,,,,
,,,,,,,,2023-08-16_08h36.27.242,HF_wild_card,2022.2.4,Win32,57.60368664,5ffa12927eb1463a5c45b788,64d2fd46c836a06233681665,64dc7c63de5d1fe09df02f89,,,,,,,ctch,resources/DR.BMP,resources/DY.BMP,Door3,-0.32962963,-0.036111111,1,0,0,0.8284,optionLeft,70,8640,4,40,0,40,0,1,,,,,,,,,,,,,,,,,,,,,,,,,,,,,,,,,,,,,,,
,,,,,,,,2023-08-16_08h36.27.242,HF_wild_card,2022.2.4,Win32,57.60368664,5ffa12927eb1463a5c45b788,64d2fd46c836a06233681665,64dc7c63de5d1fe09df02f89,,,,,,,sngl,resources/Empty.png,resources/DBN.BMP,WildCard_Ex,0.29537037,-0.000925926,1,0,0,0.6459,optionRight,45,8685,4,41,0,41,0,1,,,,,,,,,,,,,,,,,,,,,,,,,,,,,,,,,,,,,,,
,,,,,,,,2023-08-16_08h36.27.242,HF_wild_card,2022.2.4,Win32,57.60368664,5ffa12927eb1463a5c45b788,64d2fd46c836a06233681665,64dc7c63de5d1fe09df02f89,,,,,,,decisionTrl,resources/DY.BMP,resources/DP.BMP,Door1,0.344444444,-0.12962963,1,0,0,0.9705,optionRight,30,8715,4,42,0,42,0,1,,,,,,,,,,,,,,,,,,,,,,,,,,,,,,,,,,,,,,,
,,,,,,,,2023-08-16_08h36.27.242,HF_wild_card,2022.2.4,Win32,57.60368664,5ffa12927eb1463a5c45b788,64d2fd46c836a06233681665,64dc7c63de5d1fe09df02f89,,,,,,,sngl,resources/DBN.BMP,resources/Empty.png,WildCard_Ex,-0.238888889,-0.042592593,1,0,0,0.5776,optionLeft,55,8770,4,43,0,43,0,1,,,,,,,,,,,,,,,,,,,,,,,,,,,,,,,,,,,,,,,
,,,,,,,,2023-08-16_08h36.27.242,HF_wild_card,2022.2.4,Win32,57.60368664,5ffa12927eb1463a5c45b788,64d2fd46c836a06233681665,64dc7c63de5d1fe09df02f89,,,,,,,,,,,,,,,,,,,,,,,,,,3,0,3,0,1,,,,,,,,,,,,,,,,,,,,,,,,,,,,,,,,,,
,,,,,,,,2023-08-16_08h36.27.242,HF_wild_card,2022.2.4,Win32,57.60368664,5ffa12927eb1463a5c45b788,64d2fd46c836a06233681665,64dc7c63de5d1fe09df02f89,,,,,,,sngl,resources/DY.BMP,resources/Empty.png,Door2,-0.360185185,0.023148148,1,0,0,0.7311,optionLeft,40,8810,5,0,0,0,0,1,,,,,,,,,,,,,,,,,,,,,,,,,,,,,,,,,,,,,,,
,,,,,,,,2023-08-16_08h36.27.242,HF_wild_card,2022.2.4,Win32,57.60368664,5ffa12927eb1463a5c45b788,64d2fd46c836a06233681665,64dc7c63de5d1fe09df02f89,,,,,,,ctch,resources/DP.BMP,resources/DG.BMP,Door4,0.435185185,-0.008333333,1,0,0,1.3546,optionRight,80,8890,5,1,0,1,0,1,,,,,,,,,,,,,,,,,,,,,,,,,,,,,,,,,,,,,,,
,,,,,,,,2023-08-16_08h36.27.242,HF_wild_card,2022.2.4,Win32,57.60368664,5ffa12927eb1463a5c45b788,64d2fd46c836a06233681665,64dc7c63de5d1fe09df02f89,,,,,,,ctch,resources/DP.BMP,resources/DG.BMP,Door4,0.353703704,0.05,1,0,0,0.4367,optionRight,60,8950,5,2,0,2,0,1,,,,,,,,,,,,,,,,,,,,,,,,,,,,,,,,,,,,,,,
,,,,,,,,2023-08-16_08h36.27.242,HF_wild_card,2022.2.4,Win32,57.60368664,5ffa12927eb1463a5c45b788,64d2fd46c836a06233681665,64dc7c63de5d1fe09df02f89,,,,,,,sngl,resources/Empty.png,resources/DY.BMP,Door2,0.235185185,-0.019444444,1,0,0,0.6136,optionRight,20,8970,5,3,0,3,0,1,,,,,,,,,,,,,,,,,,,,,,,,,,,,,,,,,,,,,,,
,,,,,,,,2023-08-16_08h36.27.242,HF_wild_card,2022.2.4,Win32,57.60368664,5ffa12927eb1463a5c45b788,64d2fd46c836a06233681665,64dc7c63de5d1fe09df02f89,,,,,,,decisionTrl,resources/DBN.BMP,resources/DR.BMP,WildCard_Ex,-0.286111111,0.010185185,1,0,0,0.7876,optionLeft,55,9025,5,4,0,4,0,1,,,,,,,,,,,,,,,,,,,,,,,,,,,,,,,,,,,,,,,
,,,,,,,,2023-08-16_08h36.27.242,HF_wild_card,2022.2.4,Win32,57.60368664,5ffa12927eb1463a5c45b788,64d2fd46c836a06233681665,64dc7c63de5d1fe09df02f89,,,,,,,decisionTrl,resources/DP.BMP,resources/DY.BMP,Door1,-0.235185185,-0.016666667,1,0,0,0.9491,optionLeft,30,9055,5,5,0,5,0,1,,,,,,,,,,,,,,,,,,,,,,,,,,,,,,,,,,,,,,,
,,,,,,,,2023-08-16_08h36.27.242,HF_wild_card,2022.2.4,Win32,57.60368664,5ffa12927eb1463a5c45b788,64d2fd46c836a06233681665,64dc7c63de5d1fe09df02f89,,,,,,,decisionTrl,resources/DY.BMP,resources/DP.BMP,Door2,-0.328703704,-0.050925926,1,0,0,0.6141,optionLeft,20,9075,5,6,0,6,0,1,,,,,,,,,,,,,,,,,,,,,,,,,,,,,,,,,,,,,,,
,,,,,,,,2023-08-16_08h36.27.242,HF_wild_card,2022.2.4,Win32,57.60368664,5ffa12927eb1463a5c45b788,64d2fd46c836a06233681665,64dc7c63de5d1fe09df02f89,,,,,,,decisionTrl,resources/DR.BMP,resources/DG.BMP,Door4,0.452777778,-0.052777778,1,0,0,0.6314,optionRight,60,9135,5,7,0,7,0,1,,,,,,,,,,,,,,,,,,,,,,,,,,,,,,,,,,,,,,,
,,,,,,,,2023-08-16_08h36.27.242,HF_wild_card,2022.2.4,Win32,57.60368664,5ffa12927eb1463a5c45b788,64d2fd46c836a06233681665,64dc7c63de5d1fe09df02f89,,,,,,,decisionTrl,resources/DBN.BMP,resources/DP.BMP,WildCard_Ex,-0.366666667,-0.035185185,1,0,0,0.7333,optionLeft,45,9180,5,8,0,8,0,1,,,,,,,,,,,,,,,,,,,,,,,,,,,,,,,,,,,,,,,
,,,,,,,,2023-08-16_08h36.27.242,HF_wild_card,2022.2.4,Win32,57.60368664,5ffa12927eb1463a5c45b788,64d2fd46c836a06233681665,64dc7c63de5d1fe09df02f89,,,,,,,decisionTrl,resources/DY.BMP,resources/DP.BMP,Door1,0.309259259,-0.044444444,1,0,0,0.9845,optionRight,30,9210,5,9,0,9,0,1,,,,,,,,,,,,,,,,,,,,,,,,,,,,,,,,,,,,,,,
,,,,,,,,2023-08-16_08h36.27.242,HF_wild_card,2022.2.4,Win32,57.60368664,5ffa12927eb1463a5c45b788,64d2fd46c836a06233681665,64dc7c63de5d1fe09df02f89,,,,,,,ctch,resources/DR.BMP,resources/DY.BMP,Door3,-0.403703704,-0.037037037,1,0,0,0.7076,optionLeft,70,9280,5,10,0,10,0,1,,,,,,,,,,,,,,,,,,,,,,,,,,,,,,,,,,,,,,,
,,,,,,,,2023-08-16_08h36.27.242,HF_wild_card,2022.2.4,Win32,57.60368664,5ffa12927eb1463a5c45b788,64d2fd46c836a06233681665,64dc7c63de5d1fe09df02f89,,,,,,,ctch,resources/DY.BMP,resources/DR.BMP,Door3,0.306481481,-0.059259259,1,0,0,0.5801,optionRight,70,9350,5,11,0,11,0,1,,,,,,,,,,,,,,,,,,,,,,,,,,,,,,,,,,,,,,,
,,,,,,,,2023-08-16_08h36.27.242,HF_wild_card,2022.2.4,Win32,57.60368664,5ffa12927eb1463a5c45b788,64d2fd46c836a06233681665,64dc7c63de5d1fe09df02f89,,,,,,,decisionTrl,resources/DY.BMP,resources/DP.BMP,Door1,0.321296296,-0.040740741,1,0,0,0.8628,optionRight,30,9380,5,12,0,12,0,1,,,,,,,,,,,,,,,,,,,,,,,,,,,,,,,,,,,,,,,
,,,,,,,,2023-08-16_08h36.27.242,HF_wild_card,2022.2.4,Win32,57.60368664,5ffa12927eb1463a5c45b788,64d2fd46c836a06233681665,64dc7c63de5d1fe09df02f89,,,,,,,sngl,resources/DR.BMP,resources/Empty.png,Door3,-0.339814815,-0.033333333,1,0,0,0.5222,optionLeft,70,9450,5,13,0,13,0,1,,,,,,,,,,,,,,,,,,,,,,,,,,,,,,,,,,,,,,,
,,,,,,,,2023-08-16_08h36.27.242,HF_wild_card,2022.2.4,Win32,57.60368664,5ffa12927eb1463a5c45b788,64d2fd46c836a06233681665,64dc7c63de5d1fe09df02f89,,,,,,,decisionTrl,resources/DG.BMP,resources/DR.BMP,Door4,-0.266666667,-0.062037037,1,0,0,0.8603,optionLeft,60,9510,5,14,0,14,0,1,,,,,,,,,,,,,,,,,,,,,,,,,,,,,,,,,,,,,,,
,,,,,,,,2023-08-16_08h36.27.242,HF_wild_card,2022.2.4,Win32,57.60368664,5ffa12927eb1463a5c45b788,64d2fd46c836a06233681665,64dc7c63de5d1fe09df02f89,,,,,,,decisionTrl,resources/DY.BMP,resources/DBN.BMP,Door2,-0.325925926,-0.013888889,1,0,0,0.5792,optionLeft,20,9530,5,15,0,15,0,1,,,,,,,,,,,,,,,,,,,,,,,,,,,,,,,,,,,,,,,
,,,,,,,,2023-08-16_08h36.27.242,HF_wild_card,2022.2.4,Win32,57.60368664,5ffa12927eb1463a5c45b788,64d2fd46c836a06233681665,64dc7c63de5d1fe09df02f89,,,,,,,sngl,resources/Empty.png,resources/DBN.BMP,WildCard_Ex,0.377777778,0,1,0,0,0.5374,optionRight,55,9585,5,16,0,16,0,1,,,,,,,,,,,,,,,,,,,,,,,,,,,,,,,,,,,,,,,
,,,,,,,,2023-08-16_08h36.27.242,HF_wild_card,2022.2.4,Win32,57.60368664,5ffa12927eb1463a5c45b788,64d2fd46c836a06233681665,64dc7c63de5d1fe09df02f89,,,,,,,decisionTrl,resources/DBN.BMP,resources/DG.BMP,Door4,0.241666667,-0.003703704,1,0,0,2.1482,optionRight,80,9665,5,17,0,17,0,1,,,,,,,,,,,,,,,,,,,,,,,,,,,,,,,,,,,,,,,
,,,,,,,,2023-08-16_08h36.27.242,HF_wild_card,2022.2.4,Win32,57.60368664,5ffa12927eb1463a5c45b788,64d2fd46c836a06233681665,64dc7c63de5d1fe09df02f89,,,,,,,sngl,resources/DBN.BMP,resources/Empty.png,WildCard_Ex,-0.346296296,0.006481481,1,0,0,0.5441,optionLeft,45,9710,5,18,0,18,0,1,,,,,,,,,,,,,,,,,,,,,,,,,,,,,,,,,,,,,,,
,,,,,,,,2023-08-16_08h36.27.242,HF_wild_card,2022.2.4,Win32,57.60368664,5ffa12927eb1463a5c45b788,64d2fd46c836a06233681665,64dc7c63de5d1fe09df02f89,,,,,,,decisionTrl,resources/DP.BMP,resources/DBN.BMP,WildCard_Ex,0.277777778,-0.00462963,1,0,0,1.0557,optionRight,55,9765,5,19,0,19,0,1,,,,,,,,,,,,,,,,,,,,,,,,,,,,,,,,,,,,,,,
,,,,,,,,2023-08-16_08h36.27.242,HF_wild_card,2022.2.4,Win32,57.60368664,5ffa12927eb1463a5c45b788,64d2fd46c836a06233681665,64dc7c63de5d1fe09df02f89,,,,,,,decisionTrl,resources/DG.BMP,resources/DBN.BMP,Door4,-0.398148148,-0.005555556,1,0,0,0.5787,optionLeft,60,9825,5,20,0,20,0,1,,,,,,,,,,,,,,,,,,,,,,,,,,,,,,,,,,,,,,,
,,,,,,,,2023-08-16_08h36.27.242,HF_wild_card,2022.2.4,Win32,57.60368664,5ffa12927eb1463a5c45b788,64d2fd46c836a06233681665,64dc7c63de5d1fe09df02f89,,,,,,,ctch,resources/DY.BMP,resources/DR.BMP,Door3,0.431481481,-0.010185185,1,0,0,0.9346,optionRight,70,9895,5,21,0,21,0,1,,,,,,,,,,,,,,,,,,,,,,,,,,,,,,,,,,,,,,,
,,,,,,,,2023-08-16_08h36.27.242,HF_wild_card,2022.2.4,Win32,57.60368664,5ffa12927eb1463a5c45b788,64d2fd46c836a06233681665,64dc7c63de5d1fe09df02f89,,,,,,,ctch,resources/DR.BMP,resources/DY.BMP,Door3,-0.32962963,0.017592593,1,0,0,0.5412,optionLeft,70,9965,5,22,0,22,0,1,,,,,,,,,,,,,,,,,,,,,,,,,,,,,,,,,,,,,,,
,,,,,,,,2023-08-16_08h36.27.242,HF_wild_card,2022.2.4,Win32,57.60368664,5ffa12927eb1463a5c45b788,64d2fd46c836a06233681665,64dc7c63de5d1fe09df02f89,,,,,,,decisionTrl,resources/DR.BMP,resources/DBN.BMP,Door3,-0.311111111,-0.02037037,1,0,0,0.5111,optionLeft,70,10035,5,23,0,23,0,1,,,,,,,,,,,,,,,,,,,,,,,,,,,,,,,,,,,,,,,
,,,,,,,,2023-08-16_08h36.27.242,HF_wild_card,2022.2.4,Win32,57.60368664,5ffa12927eb1463a5c45b788,64d2fd46c836a06233681665,64dc7c63de5d1fe09df02f89,,,,,,,decisionTrl,resources/DR.BMP,resources/DG.BMP,Door3,-0.209259259,-0.035185185,1,0,0,1.4404,optionLeft,70,10105,5,24,0,24,0,1,,,,,,,,,,,,,,,,,,,,,,,,,,,,,,,,,,,,,,,
,,,,,,,,2023-08-16_08h36.27.242,HF_wild_card,2022.2.4,Win32,57.60368664,5ffa12927eb1463a5c45b788,64d2fd46c836a06233681665,64dc7c63de5d1fe09df02f89,,,,,,,sngl,resources/DP.BMP,resources/Empty.png,Door1,-0.256481481,-0.066666667,1,0,0,0.7711,optionLeft,30,10135,5,25,0,25,0,1,,,,,,,,,,,,,,,,,,,,,,,,,,,,,,,,,,,,,,,
,,,,,,,,2023-08-16_08h36.27.242,HF_wild_card,2022.2.4,Win32,57.60368664,5ffa12927eb1463a5c45b788,64d2fd46c836a06233681665,64dc7c63de5d1fe09df02f89,,,,,,,ctch,resources/DG.BMP,resources/DP.BMP,Door4,-0.294444444,-0.042592593,1,0,0,1.1635,optionLeft,60,10195,5,26,0,26,0,1,,,,,,,,,,,,,,,,,,,,,,,,,,,,,,,,,,,,,,,
,,,,,,,,2023-08-16_08h36.27.242,HF_wild_card,2022.2.4,Win32,57.60368664,5ffa12927eb1463a5c45b788,64d2fd46c836a06233681665,64dc7c63de5d1fe09df02f89,,,,,,,decisionTrl,resources/DP.BMP,resources/DY.BMP,Door1,-0.474074074,-0.068518519,1,0,0,2.3615,optionLeft,30,10225,5,27,0,27,0,1,,,,,,,,,,,,,,,,,,,,,,,,,,,,,,,,,,,,,,,
,,,,,,,,2023-08-16_08h36.27.242,HF_wild_card,2022.2.4,Win32,57.60368664,5ffa12927eb1463a5c45b788,64d2fd46c836a06233681665,64dc7c63de5d1fe09df02f89,,,,,,,sngl,resources/DG.BMP,resources/Empty.png,Door4,-0.262037037,-0.002777778,1,0,0,0.576,optionLeft,80,10305,5,28,0,28,0,1,,,,,,,,,,,,,,,,,,,,,,,,,,,,,,,,,,,,,,,
,,,,,,,,2023-08-16_08h36.27.242,HF_wild_card,2022.2.4,Win32,57.60368664,5ffa12927eb1463a5c45b788,64d2fd46c836a06233681665,64dc7c63de5d1fe09df02f89,,,,,,,sngl,resources/DBN.BMP,resources/Empty.png,WildCard_Ex,-0.216666667,-0.003703704,1,0,0,0.7767,optionLeft,55,10360,5,29,0,29,0,1,,,,,,,,,,,,,,,,,,,,,,,,,,,,,,,,,,,,,,,
,,,,,,,,2023-08-16_08h36.27.242,HF_wild_card,2022.2.4,Win32,57.60368664,5ffa12927eb1463a5c45b788,64d2fd46c836a06233681665,64dc7c63de5d1fe09df02f89,,,,,,,sngl,resources/Empty.png,resources/DG.BMP,Door4,0.382407407,-0.024074074,1,0,0,0.5096,optionRight,60,10420,5,30,0,30,0,1,,,,,,,,,,,,,,,,,,,,,,,,,,,,,,,,,,,,,,,
,,,,,,,,2023-08-16_08h36.27.242,HF_wild_card,2022.2.4,Win32,57.60368664,5ffa12927eb1463a5c45b788,64d2fd46c836a06233681665,64dc7c63de5d1fe09df02f89,,,,,,,decisionTrl,resources/DG.BMP,resources/DR.BMP,Door4,-0.292592593,-0.018518519,1,0,0,0.7742,optionLeft,60,10480,5,31,0,31,0,1,,,,,,,,,,,,,,,,,,,,,,,,,,,,,,,,,,,,,,,
,,,,,,,,2023-08-16_08h36.27.242,HF_wild_card,2022.2.4,Win32,57.60368664,5ffa12927eb1463a5c45b788,64d2fd46c836a06233681665,64dc7c63de5d1fe09df02f89,,,,,,,sngl,resources/Empty.png,resources/DP.BMP,Door1,0.371296296,-0.022222222,1,0,0,0.5441,optionRight,30,10510,5,32,0,32,0,1,,,,,,,,,,,,,,,,,,,,,,,,,,,,,,,,,,,,,,,
,,,,,,,,2023-08-16_08h36.27.242,HF_wild_card,2022.2.4,Win32,57.60368664,5ffa12927eb1463a5c45b788,64d2fd46c836a06233681665,64dc7c63de5d1fe09df02f89,,,,,,,decisionTrl,resources/DP.BMP,resources/DY.BMP,Door2,0.443518519,-0.00462963,1,0,0,0.8928,optionRight,20,10530,5,33,0,33,0,1,,,,,,,,,,,,,,,,,,,,,,,,,,,,,,,,,,,,,,,
,,,,,,,,2023-08-16_08h36.27.242,HF_wild_card,2022.2.4,Win32,57.60368664,5ffa12927eb1463a5c45b788,64d2fd46c836a06233681665,64dc7c63de5d1fe09df02f89,,,,,,,sngl,resources/Empty.png,resources/DBN.BMP,WildCard_Ex,0.440740741,0.036111111,1,0,0,0.8423,optionRight,45,10575,5,34,0,34,0,1,,,,,,,,,,,,,,,,,,,,,,,,,,,,,,,,,,,,,,,
,,,,,,,,2023-08-16_08h36.27.242,HF_wild_card,2022.2.4,Win32,57.60368664,5ffa12927eb1463a5c45b788,64d2fd46c836a06233681665,64dc7c63de5d1fe09df02f89,,,,,,,decisionTrl,resources/DR.BMP,resources/DG.BMP,Door3,-0.389814815,0.053703704,1,0,0,1.2104,optionLeft,70,10645,5,35,0,35,0,1,,,,,,,,,,,,,,,,,,,,,,,,,,,,,,,,,,,,,,,
,,,,,,,,2023-08-16_08h36.27.242,HF_wild_card,2022.2.4,Win32,57.60368664,5ffa12927eb1463a5c45b788,64d2fd46c836a06233681665,64dc7c63de5d1fe09df02f89,,,,,,,decisionTrl,resources/DG.BMP,resources/DR.BMP,Door4,-0.262037037,0.003703704,1,0,0,0.667,optionLeft,60,10705,5,36,0,36,0,1,,,,,,,,,,,,,,,,,,,,,,,,,,,,,,,,,,,,,,,
,,,,,,,,2023-08-16_08h36.27.242,HF_wild_card,2022.2.4,Win32,57.60368664,5ffa12927eb1463a5c45b788,64d2fd46c836a06233681665,64dc7c63de5d1fe09df02f89,,,,,,,decisionTrl,resources/DG.BMP,resources/DR.BMP,Door3,0.35,0.012037037,1,0,0,0.5969,optionRight,70,10775,5,37,0,37,0,1,,,,,,,,,,,,,,,,,,,,,,,,,,,,,,,,,,,,,,,
,,,,,,,,2023-08-16_08h36.27.242,HF_wild_card,2022.2.4,Win32,57.60368664,5ffa12927eb1463a5c45b788,64d2fd46c836a06233681665,64dc7c63de5d1fe09df02f89,,,,,,,decisionTrl,resources/DBN.BMP,resources/DY.BMP,WildCard_Ex,-0.350925926,0.061111111,1,0,0,1.4342,optionLeft,45,10820,5,38,0,38,0,1,,,,,,,,,,,,,,,,,,,,,,,,,,,,,,,,,,,,,,,
,,,,,,,,2023-08-16_08h36.27.242,HF_wild_card,2022.2.4,Win32,57.60368664,5ffa12927eb1463a5c45b788,64d2fd46c836a06233681665,64dc7c63de5d1fe09df02f89,,,,,,,decisionTrl,resources/DY.BMP,resources/DP.BMP,Door1,0.412962963,-0.023148148,1,0,0,0.8579,optionRight,30,10850,5,39,0,39,0,1,,,,,,,,,,,,,,,,,,,,,,,,,,,,,,,,,,,,,,,
,,,,,,,,2023-08-16_08h36.27.242,HF_wild_card,2022.2.4,Win32,57.60368664,5ffa12927eb1463a5c45b788,64d2fd46c836a06233681665,64dc7c63de5d1fe09df02f89,,,,,,,decisionTrl,resources/DR.BMP,resources/DG.BMP,Door3,-0.301851852,0.035185185,1,0,0,1.0021,optionLeft,70,10920,5,40,0,40,0,1,,,,,,,,,,,,,,,,,,,,,,,,,,,,,,,,,,,,,,,
,,,,,,,,2023-08-16_08h36.27.242,HF_wild_card,2022.2.4,Win32,57.60368664,5ffa12927eb1463a5c45b788,64d2fd46c836a06233681665,64dc7c63de5d1fe09df02f89,,,,,,,ctch,resources/DG.BMP,resources/DP.BMP,Door4,-0.332407407,0.046296296,1,0,0,0.5548,optionLeft,80,11000,5,41,0,41,0,1,,,,,,,,,,,,,,,,,,,,,,,,,,,,,,,,,,,,,,,
,,,,,,,,2023-08-16_08h36.27.242,HF_wild_card,2022.2.4,Win32,57.60368664,5ffa12927eb1463a5c45b788,64d2fd46c836a06233681665,64dc7c63de5d1fe09df02f89,,,,,,,sngl,resources/Empty.png,resources/DR.BMP,Door3,0.3,-0.001851852,1,0,0,0.6318,optionRight,70,11070,5,42,0,42,0,1,,,,,,,,,,,,,,,,,,,,,,,,,,,,,,,,,,,,,,,
,,,,,,,,2023-08-16_08h36.27.242,HF_wild_card,2022.2.4,Win32,57.60368664,5ffa12927eb1463a5c45b788,64d2fd46c836a06233681665,64dc7c63de5d1fe09df02f89,,,,,,,decisionTrl,resources/DP.BMP,resources/DY.BMP,Door1,-0.207407407,0.00462963,1,0,0,1.0675,optionLeft,30,11100,5,43,0,43,0,1,,,,,,,,,,,,,,,,,,,,,,,,,,,,,,,,,,,,,,,
,,,,,,,,2023-08-16_08h36.27.242,HF_wild_card,2022.2.4,Win32,57.60368664,5ffa12927eb1463a5c45b788,64d2fd46c836a06233681665,64dc7c63de5d1fe09df02f89,,,,,,,,,,,,,,,,,,,,,,,,,,4,0,4,0,1,,,,,,,,,,,,,,,,,,,,,,,,,,,,,,,,,,
,,,,,,,,2023-08-16_08h36.27.242,HF_wild_card,2022.2.4,Win32,57.60368664,5ffa12927eb1463a5c45b788,64d2fd46c836a06233681665,64dc7c63de5d1fe09df02f89,,,,,,,ctch,resources/DR.BMP,resources/DY.BMP,Door3,-0.318518519,-0.049074074,1,0,0,1.1893,optionLeft,70,11170,6,0,0,0,0,1,,,,,,,,,,,,,,,,,,,,,,,,,,,,,,,,,,,,,,,
,,,,,,,,2023-08-16_08h36.27.242,HF_wild_card,2022.2.4,Win32,57.60368664,5ffa12927eb1463a5c45b788,64d2fd46c836a06233681665,64dc7c63de5d1fe09df02f89,,,,,,,ctch,resources/DR.BMP,resources/DY.BMP,Door3,-0.30462963,-0.00462963,1,0,0,0.4883,optionLeft,70,11240,6,1,0,1,0,1,,,,,,,,,,,,,,,,,,,,,,,,,,,,,,,,,,,,,,,
,,,,,,,,2023-08-16_08h36.27.242,HF_wild_card,2022.2.4,Win32,57.60368664,5ffa12927eb1463a5c45b788,64d2fd46c836a06233681665,64dc7c63de5d1fe09df02f89,,,,,,,decisionTrl,resources/DR.BMP,resources/DG.BMP,Door3,-0.342592593,0.031481481,1,0,0,0.93,optionLeft,70,11310,6,2,0,2,0,1,,,,,,,,,,,,,,,,,,,,,,,,,,,,,,,,,,,,,,,
,,,,,,,,2023-08-16_08h36.27.242,HF_wild_card,2022.2.4,Win32,57.60368664,5ffa12927eb1463a5c45b788,64d2fd46c836a06233681665,64dc7c63de5d1fe09df02f89,,,,,,,sngl,resources/DBN.BMP,resources/Empty.png,WildCard_Ex,-0.291666667,0.022222222,1,0,0,0.5814,optionLeft,55,11365,6,3,0,3,0,1,,,,,,,,,,,,,,,,,,,,,,,,,,,,,,,,,,,,,,,
,,,,,,,,2023-08-16_08h36.27.242,HF_wild_card,2022.2.4,Win32,57.60368664,5ffa12927eb1463a5c45b788,64d2fd46c836a06233681665,64dc7c63de5d1fe09df02f89,,,,,,,sngl,resources/Empty.png,resources/DG.BMP,Door4,0.465740741,-0.037962963,1,0,0,0.5603,optionRight,80,11445,6,4,0,4,0,1,,,,,,,,,,,,,,,,,,,,,,,,,,,,,,,,,,,,,,,
,,,,,,,,2023-08-16_08h36.27.242,HF_wild_card,2022.2.4,Win32,57.60368664,5ffa12927eb1463a5c45b788,64d2fd46c836a06233681665,64dc7c63de5d1fe09df02f89,,,,,,,decisionTrl,resources/DP.BMP,resources/DY.BMP,Door1,-0.325,-0.077777778,1,0,0,1.5188,optionLeft,30,11475,6,5,0,5,0,1,,,,,,,,,,,,,,,,,,,,,,,,,,,,,,,,,,,,,,,
,,,,,,,,2023-08-16_08h36.27.242,HF_wild_card,2022.2.4,Win32,57.60368664,5ffa12927eb1463a5c45b788,64d2fd46c836a06233681665,64dc7c63de5d1fe09df02f89,,,,,,,sngl,resources/Empty.png,resources/DP.BMP,Door1,0.233333333,-0.017592593,1,0,0,0.9635,optionRight,30,11505,6,6,0,6,0,1,,,,,,,,,,,,,,,,,,,,,,,,,,,,,,,,,,,,,,,
,,,,,,,,2023-08-16_08h36.27.242,HF_wild_card,2022.2.4,Win32,57.60368664,5ffa12927eb1463a5c45b788,64d2fd46c836a06233681665,64dc7c63de5d1fe09df02f89,,,,,,,decisionTrl,resources/DG.BMP,resources/DR.BMP,Door4,-0.428703704,0.013888889,1,0,0,1.018,optionLeft,60,11565,6,7,0,7,0,1,,,,,,,,,,,,,,,,,,,,,,,,,,,,,,,,,,,,,,,
,,,,,,,,2023-08-16_08h36.27.242,HF_wild_card,2022.2.4,Win32,57.60368664,5ffa12927eb1463a5c45b788,64d2fd46c836a06233681665,64dc7c63de5d1fe09df02f89,,,,,,,decisionTrl,resources/DP.BMP,resources/DY.BMP,Door1,-0.25,-0.106481481,1,0,0,1.2681,optionLeft,30,11595,6,8,0,8,0,1,,,,,,,,,,,,,,,,,,,,,,,,,,,,,,,,,,,,,,,
,,,,,,,,2023-08-16_08h36.27.242,HF_wild_card,2022.2.4,Win32,57.60368664,5ffa12927eb1463a5c45b788,64d2fd46c836a06233681665,64dc7c63de5d1fe09df02f89,,,,,,,decisionTrl,resources/DG.BMP,resources/DR.BMP,Door3,0.318518519,-0.035185185,1,0,0,0.699,optionRight,70,11665,6,9,0,9,0,1,,,,,,,,,,,,,,,,,,,,,,,,,,,,,,,,,,,,,,,
,,,,,,,,2023-08-16_08h36.27.242,HF_wild_card,2022.2.4,Win32,57.60368664,5ffa12927eb1463a5c45b788,64d2fd46c836a06233681665,64dc7c63de5d1fe09df02f89,,,,,,,decisionTrl,resources/DR.BMP,resources/DBN.BMP,Door3,-0.296296296,-0.015740741,1,0,0,0.6309,optionLeft,70,11735,6,10,0,10,0,1,,,,,,,,,,,,,,,,,,,,,,,,,,,,,,,,,,,,,,,
,,,,,,,,2023-08-16_08h36.27.242,HF_wild_card,2022.2.4,Win32,57.60368664,5ffa12927eb1463a5c45b788,64d2fd46c836a06233681665,64dc7c63de5d1fe09df02f89,,,,,,,ctch,resources/DG.BMP,resources/DP.BMP,Door4,-0.276851852,-0.056481481,1,0,0,0.8256,optionLeft,80,11815,6,11,0,11,0,1,,,,,,,,,,,,,,,,,,,,,,,,,,,,,,,,,,,,,,,
,,,,,,,,2023-08-16_08h36.27.242,HF_wild_card,2022.2.4,Win32,57.60368664,5ffa12927eb1463a5c45b788,64d2fd46c836a06233681665,64dc7c63de5d1fe09df02f89,,,,,,,decisionTrl,resources/DY.BMP,resources/DP.BMP,Door1,0.401851852,-0.100925926,1,0,0,1.3729,optionRight,30,11845,6,12,0,12,0,1,,,,,,,,,,,,,,,,,,,,,,,,,,,,,,,,,,,,,,,
,,,,,,,,2023-08-16_08h36.27.242,HF_wild_card,2022.2.4,Win32,57.60368664,5ffa12927eb1463a5c45b788,64d2fd46c836a06233681665,64dc7c63de5d1fe09df02f89,,,,,,,decisionTrl,resources/DBN.BMP,resources/DG.BMP,Door4,0.419444444,-0.07962963,1,0,0,0.8586,optionRight,80,11925,6,13,0,13,0,1,,,,,,,,,,,,,,,,,,,,,,,,,,,,,,,,,,,,,,,
,,,,,,,,2023-08-16_08h36.27.242,HF_wild_card,2022.2.4,Win32,57.60368664,5ffa12927eb1463a5c45b788,64d2fd46c836a06233681665,64dc7c63de5d1fe09df02f89,,,,,,,sngl,resources/DBN.BMP,resources/Empty.png,WildCard_Ex,-0.187037037,-0.010185185,1,0,0,0.6877,optionLeft,45,11970,6,14,0,14,0,1,,,,,,,,,,,,,,,,,,,,,,,,,,,,,,,,,,,,,,,
,,,,,,,,2023-08-16_08h36.27.242,HF_wild_card,2022.2.4,Win32,57.60368664,5ffa12927eb1463a5c45b788,64d2fd46c836a06233681665,64dc7c63de5d1fe09df02f89,,,,,,,sngl,resources/DG.BMP,resources/Empty.png,Door4,-0.340740741,0.011111111,1,0,0,0.5261,optionLeft,60,12030,6,15,0,15,0,1,,,,,,,,,,,,,,,,,,,,,,,,,,,,,,,,,,,,,,,
,,,,,,,,2023-08-16_08h36.27.242,HF_wild_card,2022.2.4,Win32,57.60368664,5ffa12927eb1463a5c45b788,64d2fd46c836a06233681665,64dc7c63de5d1fe09df02f89,,,,,,,decisionTrl,resources/DP.BMP,resources/DY.BMP,Door1,-0.35,-0.040740741,1,0,0,1.4603,optionLeft,30,12060,6,16,0,16,0,1,,,,,,,,,,,,,,,,,,,,,,,,,,,,,,,,,,,,,,,
,,,,,,,,2023-08-16_08h36.27.242,HF_wild_card,2022.2.4,Win32,57.60368664,5ffa12927eb1463a5c45b788,64d2fd46c836a06233681665,64dc7c63de5d1fe09df02f89,,,,,,,decisionTrl,resources/DR.BMP,resources/DG.BMP,Door4,0.290740741,-0.030555556,1,0,0,1.8771,optionRight,60,12120,6,17,0,17,0,1,,,,,,,,,,,,,,,,,,,,,,,,,,,,,,,,,,,,,,,
,,,,,,,,2023-08-16_08h36.27.242,HF_wild_card,2022.2.4,Win32,57.60368664,5ffa12927eb1463a5c45b788,64d2fd46c836a06233681665,64dc7c63de5d1fe09df02f89,,,,,,,decisionTrl,resources/DG.BMP,resources/DR.BMP,Door3,0.287962963,-0.012037037,1,0,0,0.9118,optionRight,70,12190,6,18,0,18,0,1,,,,,,,,,,,,,,,,,,,,,,,,,,,,,,,,,,,,,,,
,,,,,,,,2023-08-16_08h36.27.242,HF_wild_card,2022.2.4,Win32,57.60368664,5ffa12927eb1463a5c45b788,64d2fd46c836a06233681665,64dc7c63de5d1fe09df02f89,,,,,,,decisionTrl,resources/DBN.BMP,resources/DP.BMP,WildCard_Ex,-0.187962963,-0.000925926,1,0,0,0.9307,optionLeft,55,12245,6,19,0,19,0,1,,,,,,,,,,,,,,,,,,,,,,,,,,,,,,,,,,,,,,,
,,,,,,,,2023-08-16_08h36.27.242,HF_wild_card,2022.2.4,Win32,57.60368664,5ffa12927eb1463a5c45b788,64d2fd46c836a06233681665,64dc7c63de5d1fe09df02f89,,,,,,,decisionTrl,resources/DBN.BMP,resources/DY.BMP,WildCard_Ex,-0.314814815,0.031481481,1,0,0,0.818,optionLeft,45,12290,6,20,0,20,0,1,,,,,,,,,,,,,,,,,,,,,,,,,,,,,,,,,,,,,,,
,,,,,,,,2023-08-16_08h36.27.242,HF_wild_card,2022.2.4,Win32,57.60368664,5ffa12927eb1463a5c45b788,64d2fd46c836a06233681665,64dc7c63de5d1fe09df02f89,,,,,,,sngl,resources/DY.BMP,resources/Empty.png,Door2,-0.312037037,0.008333333,1,0,0,0.7837,optionLeft,20,12310,6,21,0,21,0,1,,,,,,,,,,,,,,,,,,,,,,,,,,,,,,,,,,,,,,,
,,,,,,,,2023-08-16_08h36.27.242,HF_wild_card,2022.2.4,Win32,57.60368664,5ffa12927eb1463a5c45b788,64d2fd46c836a06233681665,64dc7c63de5d1fe09df02f89,,,,,,,decisionTrl,resources/DY.BMP,resources/DP.BMP,Door2,-0.231481481,-0.006481481,1,0,0,1.5881,optionLeft,20,12330,6,22,0,22,0,1,,,,,,,,,,,,,,,,,,,,,,,,,,,,,,,,,,,,,,,
,,,,,,,,2023-08-16_08h36.27.242,HF_wild_card,2022.2.4,Win32,57.60368664,5ffa12927eb1463a5c45b788,64d2fd46c836a06233681665,64dc7c63de5d1fe09df02f89,,,,,,,ctch,resources/DY.BMP,resources/DR.BMP,Door3,0.358333333,-0.011111111,1,0,0,0.6696,optionRight,70,12400,6,23,0,23,0,1,,,,,,,,,,,,,,,,,,,,,,,,,,,,,,,,,,,,,,,
,,,,,,,,2023-08-16_08h36.27.242,HF_wild_card,2022.2.4,Win32,57.60368664,5ffa12927eb1463a5c45b788,64d2fd46c836a06233681665,64dc7c63de5d1fe09df02f89,,,,,,,sngl,resources/Empty.png,resources/DY.BMP,Door2,0.402777778,-0.011111111,1,0,0,0.7735,optionRight,40,12440,6,24,0,24,0,1,,,,,,,,,,,,,,,,,,,,,,,,,,,,,,,,,,,,,,,
,,,,,,,,2023-08-16_08h36.27.242,HF_wild_card,2022.2.4,Win32,57.60368664,5ffa12927eb1463a5c45b788,64d2fd46c836a06233681665,64dc7c63de5d1fe09df02f89,,,,,,,sngl,resources/Empty.png,resources/DBN.BMP,WildCard_Ex,0.388888889,0,1,0,0,0.5951,optionRight,45,12485,6,25,0,25,0,1,,,,,,,,,,,,,,,,,,,,,,,,,,,,,,,,,,,,,,,
,,,,,,,,2023-08-16_08h36.27.242,HF_wild_card,2022.2.4,Win32,57.60368664,5ffa12927eb1463a5c45b788,64d2fd46c836a06233681665,64dc7c63de5d1fe09df02f89,,,,,,,ctch,resources/DY.BMP,resources/DR.BMP,Door3,0.261111111,0,1,0,0,0.8278,optionRight,70,12555,6,26,0,26,0,1,,,,,,,,,,,,,,,,,,,,,,,,,,,,,,,,,,,,,,,
,,,,,,,,2023-08-16_08h36.27.242,HF_wild_card,2022.2.4,Win32,57.60368664,5ffa12927eb1463a5c45b788,64d2fd46c836a06233681665,64dc7c63de5d1fe09df02f89,,,,,,,decisionTrl,resources/DY.BMP,resources/DP.BMP,Door1,0.196296296,0.010185185,1,0,0,1.2162,optionRight,30,12585,6,27,0,27,0,1,,,,,,,,,,,,,,,,,,,,,,,,,,,,,,,,,,,,,,,
,,,,,,,,2023-08-16_08h36.27.242,HF_wild_card,2022.2.4,Win32,57.60368664,5ffa12927eb1463a5c45b788,64d2fd46c836a06233681665,64dc7c63de5d1fe09df02f89,,,,,,,decisionTrl,resources/DY.BMP,resources/DBN.BMP,WildCard_Ex,0.296296296,0.025,1,0,0,0.7081,optionRight,45,12630,6,28,0,28,0,1,,,,,,,,,,,,,,,,,,,,,,,,,,,,,,,,,,,,,,,
,,,,,,,,2023-08-16_08h36.27.242,HF_wild_card,2022.2.4,Win32,57.60368664,5ffa12927eb1463a5c45b788,64d2fd46c836a06233681665,64dc7c63de5d1fe09df02f89,,,,,,,decisionTrl,resources/DP.BMP,resources/DY.BMP,Door1,-0.25,-0.011111111,1,0,0,0.9159,optionLeft,30,12660,6,29,0,29,0,1,,,,,,,,,,,,,,,,,,,,,,,,,,,,,,,,,,,,,,,
,,,,,,,,2023-08-16_08h36.27.242,HF_wild_card,2022.2.4,Win32,57.60368664,5ffa12927eb1463a5c45b788,64d2fd46c836a06233681665,64dc7c63de5d1fe09df02f89,,,,,,,decisionTrl,resources/DY.BMP,resources/DP.BMP,Door1,0.293518519,-0.018518519,1,0,0,1.0559,optionRight,30,12690,6,30,0,30,0,1,,,,,,,,,,,,,,,,,,,,,,,,,,,,,,,,,,,,,,,
,,,,,,,,2023-08-16_08h36.27.242,HF_wild_card,2022.2.4,Win32,57.60368664,5ffa12927eb1463a5c45b788,64d2fd46c836a06233681665,64dc7c63de5d1fe09df02f89,,,,,,,ctch,resources/DG.BMP,resources/DP.BMP,Door4,-0.305555556,0.012962963,1,0,0,0.8254,optionLeft,80,12770,6,31,0,31,0,1,,,,,,,,,,,,,,,,,,,,,,,,,,,,,,,,,,,,,,,
,,,,,,,,2023-08-16_08h36.27.242,HF_wild_card,2022.2.4,Win32,57.60368664,5ffa12927eb1463a5c45b788,64d2fd46c836a06233681665,64dc7c63de5d1fe09df02f89,,,,,,,ctch,resources/DP.BMP,resources/DG.BMP,Door4,0.389814815,0.028703704,1,0,0,0.575,optionRight,60,12830,6,32,0,32,0,1,,,,,,,,,,,,,,,,,,,,,,,,,,,,,,,,,,,,,,,
,,,,,,,,2023-08-16_08h36.27.242,HF_wild_card,2022.2.4,Win32,57.60368664,5ffa12927eb1463a5c45b788,64d2fd46c836a06233681665,64dc7c63de5d1fe09df02f89,,,,,,,sngl,resources/Empty.png,resources/DBN.BMP,WildCard_Ex,0.438888889,0.002777778,1,0,0,0.6344,optionRight,55,12885,6,33,0,33,0,1,,,,,,,,,,,,,,,,,,,,,,,,,,,,,,,,,,,,,,,
,,,,,,,,2023-08-16_08h36.27.242,HF_wild_card,2022.2.4,Win32,57.60368664,5ffa12927eb1463a5c45b788,64d2fd46c836a06233681665,64dc7c63de5d1fe09df02f89,,,,,,,sngl,resources/DP.BMP,resources/Empty.png,Door1,-0.209259259,-0.023148148,1,0,0,0.6659,optionLeft,30,12915,6,34,0,34,0,1,,,,,,,,,,,,,,,,,,,,,,,,,,,,,,,,,,,,,,,
,,,,,,,,2023-08-16_08h36.27.242,HF_wild_card,2022.2.4,Win32,57.60368664,5ffa12927eb1463a5c45b788,64d2fd46c836a06233681665,64dc7c63de5d1fe09df02f89,,,,,,,decisionTrl,resources/DBN.BMP,resources/DR.BMP,Door3,0.336111111,0,1,0,0,0.7204,optionRight,70,12985,6,35,0,35,0,1,,,,,,,,,,,,,,,,,,,,,,,,,,,,,,,,,,,,,,,
,,,,,,,,2023-08-16_08h36.27.242,HF_wild_card,2022.2.4,Win32,57.60368664,5ffa12927eb1463a5c45b788,64d2fd46c836a06233681665,64dc7c63de5d1fe09df02f89,,,,,,,decisionTrl,resources/DP.BMP,resources/DBN.BMP,WildCard_Ex,0.378703704,-0.012962963,1,0,0,0.9324,optionRight,45,13030,6,36,0,36,0,1,,,,,,,,,,,,,,,,,,,,,,,,,,,,,,,,,,,,,,,
,,,,,,,,2023-08-16_08h36.27.242,HF_wild_card,2022.2.4,Win32,57.60368664,5ffa12927eb1463a5c45b788,64d2fd46c836a06233681665,64dc7c63de5d1fe09df02f89,,,,,,,sngl,resources/Empty.png,resources/DR.BMP,Door3,0.306481481,-0.00462963,1,0,0,0.5597,optionRight,70,13100,6,37,0,37,0,1,,,,,,,,,,,,,,,,,,,,,,,,,,,,,,,,,,,,,,,
,,,,,,,,2023-08-16_08h36.27.242,HF_wild_card,2022.2.4,Win32,57.60368664,5ffa12927eb1463a5c45b788,64d2fd46c836a06233681665,64dc7c63de5d1fe09df02f89,,,,,,,ctch,resources/DP.BMP,resources/DG.BMP,Door4,0.356481481,-0.014814815,1,0,0,0.8762,optionRight,60,13160,6,38,0,38,0,1,,,,,,,,,,,,,,,,,,,,,,,,,,,,,,,,,,,,,,,
,,,,,,,,2023-08-16_08h36.27.242,HF_wild_card,2022.2.4,Win32,57.60368664,5ffa12927eb1463a5c45b788,64d2fd46c836a06233681665,64dc7c63de5d1fe09df02f89,,,,,,,sngl,resources/DR.BMP,resources/Empty.png,Door3,-0.298148148,0.044444444,1,0,0,0.67,optionLeft,70,13230,6,39,0,39,0,1,,,,,,,,,,,,,,,,,,,,,,,,,,,,,,,,,,,,,,,
,,,,,,,,2023-08-16_08h36.27.242,HF_wild_card,2022.2.4,Win32,57.60368664,5ffa12927eb1463a5c45b788,64d2fd46c836a06233681665,64dc7c63de5d1fe09df02f89,,,,,,,decisionTrl,resources/DG.BMP,resources/DBN.BMP,Door4,-0.287962963,-0.008333333,1,0,0,0.8022,optionLeft,60,13290,6,40,0,40,0,1,,,,,,,,,,,,,,,,,,,,,,,,,,,,,,,,,,,,,,,
,,,,,,,,2023-08-16_08h36.27.242,HF_wild_card,2022.2.4,Win32,57.60368664,5ffa12927eb1463a5c45b788,64d2fd46c836a06233681665,64dc7c63de5d1fe09df02f89,,,,,,,decisionTrl,resources/DR.BMP,resources/DG.BMP,Door3,-0.333333333,-0.025925926,1,0,0,1.0218,optionLeft,70,13360,6,41,0,41,0,1,,,,,,,,,,,,,,,,,,,,,,,,,,,,,,,,,,,,,,,
,,,,,,,,2023-08-16_08h36.27.242,HF_wild_card,2022.2.4,Win32,57.60368664,5ffa12927eb1463a5c45b788,64d2fd46c836a06233681665,64dc7c63de5d1fe09df02f89,,,,,,,decisionTrl,resources/DR.BMP,resources/DG.BMP,Door4,0.416666667,-0.018518519,1,0,0,0.5775,optionRight,80,13440,6,42,0,42,0,1,,,,,,,,,,,,,,,,,,,,,,,,,,,,,,,,,,,,,,,
,,,,,,,,2023-08-16_08h36.27.242,HF_wild_card,2022.2.4,Win32,57.60368664,5ffa12927eb1463a5c45b788,64d2fd46c836a06233681665,64dc7c63de5d1fe09df02f89,,,,,,,decisionTrl,resources/DG.BMP,resources/DR.BMP,Door4,-0.126851852,-0.073148148,1,0,0,1.4085,optionLeft,60,13500,6,43,0,43,0,1,,,,,,,,,,,,,,,,,,,,,,,,,,,,,,,,,,,,,,,
,,,,,,,,2023-08-16_08h36.27.242,HF_wild_card,2022.2.4,Win32,57.60368664,5ffa12927eb1463a5c45b788,64d2fd46c836a06233681665,64dc7c63de5d1fe09df02f89,,,,,,,,,,,,,,,,,,,,,,,,,,5,0,5,0,1,,,,,,,,,,,,,,,,,,,,,,,,,,,,,,,,,,
,,,,,,,,2023-08-16_08h36.27.242,HF_wild_card,2022.2.4,Win32,57.60368664,5ffa12927eb1463a5c45b788,64d2fd46c836a06233681665,64dc7c63de5d1fe09df02f89,,,,,,,decisionTrl,resources/DP.BMP,resources/DY.BMP,Door1,-0.233333333,0.053703704,1,0,0,2.1137,optionLeft,30,13530,7,0,0,0,0,1,,,,,,,,,,,,,,,,,,,,,,,,,,,,,,,,,,,,,,,
,,,,,,,,2023-08-16_08h36.27.242,HF_wild_card,2022.2.4,Win32,57.60368664,5ffa12927eb1463a5c45b788,64d2fd46c836a06233681665,64dc7c63de5d1fe09df02f89,,,,,,,decisionTrl,resources/DR.BMP,resources/DG.BMP,Door3,-0.141666667,-0.047222222,1,0,0,1.5343,optionLeft,70,13600,7,1,0,1,0,1,,,,,,,,,,,,,,,,,,,,,,,,,,,,,,,,,,,,,,,
,,,,,,,,2023-08-16_08h36.27.242,HF_wild_card,2022.2.4,Win32,57.60368664,5ffa12927eb1463a5c45b788,64d2fd46c836a06233681665,64dc7c63de5d1fe09df02f89,,,,,,,decisionTrl,resources/DG.BMP,resources/DR.BMP,Door3,0.422222222,-0.139814815,1,0,0,1.3077,optionRight,70,13670,7,2,0,2,0,1,,,,,,,,,,,,,,,,,,,,,,,,,,,,,,,,,,,,,,,
,,,,,,,,2023-08-16_08h36.27.242,HF_wild_card,2022.2.4,Win32,57.60368664,5ffa12927eb1463a5c45b788,64d2fd46c836a06233681665,64dc7c63de5d1fe09df02f89,,,,,,,decisionTrl,resources/DG.BMP,resources/DR.BMP,Door3,0.30462963,-0.061111111,1,0,0,0.883,optionRight,70,13740,7,3,0,3,0,1,,,,,,,,,,,,,,,,,,,,,,,,,,,,,,,,,,,,,,,
,,,,,,,,2023-08-16_08h36.27.242,HF_wild_card,2022.2.4,Win32,57.60368664,5ffa12927eb1463a5c45b788,64d2fd46c836a06233681665,64dc7c63de5d1fe09df02f89,,,,,,,decisionTrl,resources/DG.BMP,resources/DR.BMP,Door3,0.425,-0.074074074,1,0,0,0.8298,optionRight,70,13810,7,4,0,4,0,1,,,,,,,,,,,,,,,,,,,,,,,,,,,,,,,,,,,,,,,
,,,,,,,,2023-08-16_08h36.27.242,HF_wild_card,2022.2.4,Win32,57.60368664,5ffa12927eb1463a5c45b788,64d2fd46c836a06233681665,64dc7c63de5d1fe09df02f89,,,,,,,ctch,resources/DY.BMP,resources/DR.BMP,Door3,0.45462963,-0.087037037,1,0,0,1.0617,optionRight,70,13880,7,5,0,5,0,1,,,,,,,,,,,,,,,,,,,,,,,,,,,,,,,,,,,,,,,
,,,,,,,,2023-08-16_08h36.27.242,HF_wild_card,2022.2.4,Win32,57.60368664,5ffa12927eb1463a5c45b788,64d2fd46c836a06233681665,64dc7c63de5d1fe09df02f89,,,,,,,ctch,resources/DP.BMP,resources/DG.BMP,Door4,0.463888889,-0.10462963,1,0,0,1.0199,optionRight,80,13960,7,6,0,6,0,1,,,,,,,,,,,,,,,,,,,,,,,,,,,,,,,,,,,,,,,
,,,,,,,,2023-08-16_08h36.27.242,HF_wild_card,2022.2.4,Win32,57.60368664,5ffa12927eb1463a5c45b788,64d2fd46c836a06233681665,64dc7c63de5d1fe09df02f89,,,,,,,decisionTrl,resources/DR.BMP,resources/DG.BMP,Door4,0.414814815,-0.044444444,1,0,0,0.851,optionRight,80,14040,7,7,0,7,0,1,,,,,,,,,,,,,,,,,,,,,,,,,,,,,,,,,,,,,,,
,,,,,,,,2023-08-16_08h36.27.242,HF_wild_card,2022.2.4,Win32,57.60368664,5ffa12927eb1463a5c45b788,64d2fd46c836a06233681665,64dc7c63de5d1fe09df02f89,,,,,,,decisionTrl,resources/DY.BMP,resources/DP.BMP,Door1,0.394444444,-0.071296296,1,0,0,1.0599,optionRight,30,14070,7,8,0,8,0,1,,,,,,,,,,,,,,,,,,,,,,,,,,,,,,,,,,,,,,,
,,,,,,,,2023-08-16_08h36.27.242,HF_wild_card,2022.2.4,Win32,57.60368664,5ffa12927eb1463a5c45b788,64d2fd46c836a06233681665,64dc7c63de5d1fe09df02f89,,,,,,,decisionTrl,resources/DY.BMP,resources/DP.BMP,Door1,0.428703704,-0.056481481,1,0,0,0.9021,optionRight,30,14100,7,9,0,9,0,1,,,,,,,,,,,,,,,,,,,,,,,,,,,,,,,,,,,,,,,
,,,,,,,,2023-08-16_08h36.27.242,HF_wild_card,2022.2.4,Win32,57.60368664,5ffa12927eb1463a5c45b788,64d2fd46c836a06233681665,64dc7c63de5d1fe09df02f89,,,,,,,decisionTrl,resources/DR.BMP,resources/DG.BMP,Door3,-0.284259259,-0.050925926,1,0,0,0.954,optionLeft,70,14170,7,10,0,10,0,1,,,,,,,,,,,,,,,,,,,,,,,,,,,,,,,,,,,,,,,
,,,,,,,,2023-08-16_08h36.27.242,HF_wild_card,2022.2.4,Win32,57.60368664,5ffa12927eb1463a5c45b788,64d2fd46c836a06233681665,64dc7c63de5d1fe09df02f89,,,,,,,ctch,resources/DP.BMP,resources/DG.BMP,Door4,0.382407407,-0.087037037,1,0,0,0.8337,optionRight,60,14230,7,11,0,11,0,1,,,,,,,,,,,,,,,,,,,,,,,,,,,,,,,,,,,,,,,
,,,,,,,,2023-08-16_08h36.27.242,HF_wild_card,2022.2.4,Win32,57.60368664,5ffa12927eb1463a5c45b788,64d2fd46c836a06233681665,64dc7c63de5d1fe09df02f89,,,,,,,ctch,resources/DP.BMP,resources/DG.BMP,Door4,0.491666667,0.012962963,1,0,0,0.9159,optionRight,60,14290,7,12,0,12,0,1,,,,,,,,,,,,,,,,,,,,,,,,,,,,,,,,,,,,,,,
,,,,,,,,2023-08-16_08h36.27.242,HF_wild_card,2022.2.4,Win32,57.60368664,5ffa12927eb1463a5c45b788,64d2fd46c836a06233681665,64dc7c63de5d1fe09df02f89,,,,,,,decisionTrl,resources/DR.BMP,resources/DG.BMP,Door3,-0.421296296,0.026851852,1,0,0,0.7934,optionLeft,70,14360,7,13,0,13,0,1,,,,,,,,,,,,,,,,,,,,,,,,,,,,,,,,,,,,,,,
,,,,,,,,2023-08-16_08h36.27.242,HF_wild_card,2022.2.4,Win32,57.60368664,5ffa12927eb1463a5c45b788,64d2fd46c836a06233681665,64dc7c63de5d1fe09df02f89,,,,,,,decisionTrl,resources/DP.BMP,resources/DY.BMP,Door1,-0.302777778,0.011111111,1,0,0,1.0613,optionLeft,30,14390,7,14,0,14,0,1,,,,,,,,,,,,,,,,,,,,,,,,,,,,,,,,,,,,,,,
,,,,,,,,2023-08-16_08h36.27.242,HF_wild_card,2022.2.4,Win32,57.60368664,5ffa12927eb1463a5c45b788,64d2fd46c836a06233681665,64dc7c63de5d1fe09df02f89,,,,,,,decisionTrl,resources/DY.BMP,resources/DP.BMP,Door1,0.386111111,-0.02962963,1,0,0,0.8434,optionRight,30,14420,7,15,0,15,0,1,,,,,,,,,,,,,,,,,,,,,,,,,,,,,,,,,,,,,,,
,,,,,,,,2023-08-16_08h36.27.242,HF_wild_card,2022.2.4,Win32,57.60368664,5ffa12927eb1463a5c45b788,64d2fd46c836a06233681665,64dc7c63de5d1fe09df02f89,,,,,,,decisionTrl,resources/DP.BMP,resources/DY.BMP,Door1,-0.247222222,0.05,1,0,0,1.0347,optionLeft,30,14450,7,16,0,16,0,1,,,,,,,,,,,,,,,,,,,,,,,,,,,,,,,,,,,,,,,
,,,,,,,,2023-08-16_08h36.27.242,HF_wild_card,2022.2.4,Win32,57.60368664,5ffa12927eb1463a5c45b788,64d2fd46c836a06233681665,64dc7c63de5d1fe09df02f89,,,,,,,ctch,resources/DR.BMP,resources/DY.BMP,Door3,-0.39537037,0.037962963,1,0,0,1.2905,optionLeft,70,14520,7,17,0,17,0,1,,,,,,,,,,,,,,,,,,,,,,,,,,,,,,,,,,,,,,,
,,,,,,,,2023-08-16_08h36.27.242,HF_wild_card,2022.2.4,Win32,57.60368664,5ffa12927eb1463a5c45b788,64d2fd46c836a06233681665,64dc7c63de5d1fe09df02f89,,,,,,,ctch,resources/DR.BMP,resources/DY.BMP,Door3,-0.367592593,0.051851852,1,0,0,0.8434,optionLeft,70,14590,7,18,0,18,0,1,,,,,,,,,,,,,,,,,,,,,,,,,,,,,,,,,,,,,,,
,,,,,,,,2023-08-16_08h36.27.242,HF_wild_card,2022.2.4,Win32,57.60368664,5ffa12927eb1463a5c45b788,64d2fd46c836a06233681665,64dc7c63de5d1fe09df02f89,,,,,,,decisionTrl,resources/DY.BMP,resources/DP.BMP,Door1,0.394444444,-0.075,1,0,0,1.9459,optionRight,30,14620,7,19,0,19,0,1,,,,,,,,,,,,,,,,,,,,,,,,,,,,,,,,,,,,,,,
,,,,,,,,2023-08-16_08h36.27.242,HF_wild_card,2022.2.4,Win32,57.60368664,5ffa12927eb1463a5c45b788,64d2fd46c836a06233681665,64dc7c63de5d1fe09df02f89,,,,,,,decisionTrl,resources/DR.BMP,resources/DG.BMP,Door3,-0.407407407,0.013888889,1,0,0,1.0709,optionLeft,70,14690,7,20,0,20,0,1,,,,,,,,,,,,,,,,,,,,,,,,,,,,,,,,,,,,,,,
,,,,,,,,2023-08-16_08h36.27.242,HF_wild_card,2022.2.4,Win32,57.60368664,5ffa12927eb1463a5c45b788,64d2fd46c836a06233681665,64dc7c63de5d1fe09df02f89,,,,,,,ctch,resources/DG.BMP,resources/DP.BMP,Door4,-0.22037037,-0.000925926,1,0,0,0.9665,optionLeft,80,14770,7,21,0,21,0,1,,,,,,,,,,,,,,,,,,,,,,,,,,,,,,,,,,,,,,,
,,,,,,,,2023-08-16_08h36.27.242,HF_wild_card,2022.2.4,Win32,57.60368664,5ffa12927eb1463a5c45b788,64d2fd46c836a06233681665,64dc7c63de5d1fe09df02f89,,,,,,,ctch,resources/DG.BMP,resources/DP.BMP,Door4,-0.25,0.015740741,1,0,0,0.6181,optionLeft,80,14850,7,22,0,22,0,1,,,,,,,,,,,,,,,,,,,,,,,,,,,,,,,,,,,,,,,
,,,,,,,,2023-08-16_08h36.27.242,HF_wild_card,2022.2.4,Win32,57.60368664,5ffa12927eb1463a5c45b788,64d2fd46c836a06233681665,64dc7c63de5d1fe09df02f89,,,,,,,decisionTrl,resources/DY.BMP,resources/DP.BMP,Door1,0.365740741,-0.053703704,1,0,0,0.7729,optionRight,30,14880,7,23,0,23,0,1,,,,,,,,,,,,,,,,,,,,,,,,,,,,,,,,,,,,,,,
,,,,,,,,2023-08-16_08h36.27.242,HF_wild_card,2022.2.4,Win32,57.60368664,5ffa12927eb1463a5c45b788,64d2fd46c836a06233681665,64dc7c63de5d1fe09df02f89,,,,,,,decisionTrl,resources/DP.BMP,resources/DY.BMP,Door1,-0.253703704,-0.018518519,1,0,0,0.6645,optionLeft,30,14910,7,24,0,24,0,1,,,,,,,,,,,,,,,,,,,,,,,,,,,,,,,,,,,,,,,
,,,,,,,,2023-08-16_08h36.27.242,HF_wild_card,2022.2.4,Win32,57.60368664,5ffa12927eb1463a5c45b788,64d2fd46c836a06233681665,64dc7c63de5d1fe09df02f89,,,,,,,decisionTrl,resources/DR.BMP,resources/DG.BMP,Door3,-0.258333333,-0.018518519,1,0,0,0.7382,optionLeft,70,14980,7,25,0,25,0,1,,,,,,,,,,,,,,,,,,,,,,,,,,,,,,,,,,,,,,,
,,,,,,,,2023-08-16_08h36.27.242,HF_wild_card,2022.2.4,Win32,57.60368664,5ffa12927eb1463a5c45b788,64d2fd46c836a06233681665,64dc7c63de5d1fe09df02f89,,,,,,,decisionTrl,resources/DG.BMP,resources/DR.BMP,Door3,0.317592593,-0.04537037,1,0,0,0.7233,optionRight,70,15050,7,26,0,26,0,1,,,,,,,,,,,,,,,,,,,,,,,,,,,,,,,,,,,,,,,
,,,,,,,,2023-08-16_08h36.27.242,HF_wild_card,2022.2.4,Win32,57.60368664,5ffa12927eb1463a5c45b788,64d2fd46c836a06233681665,64dc7c63de5d1fe09df02f89,,,,,,,decisionTrl,resources/DY.BMP,resources/DP.BMP,Door1,0.40462963,-0.05462963,1,0,0,0.9666,optionRight,30,15080,7,27,0,27,0,1,,,,,,,,,,,,,,,,,,,,,,,,,,,,,,,,,,,,,,,
,,,,,,,,2023-08-16_08h36.27.242,HF_wild_card,2022.2.4,Win32,57.60368664,5ffa12927eb1463a5c45b788,64d2fd46c836a06233681665,64dc7c63de5d1fe09df02f89,,,,,,,ctch,resources/DY.BMP,resources/DR.BMP,Door3,0.356481481,0.016666667,1,0,0,0.8497,optionRight,70,15150,7,28,0,28,0,1,,,,,,,,,,,,,,,,,,,,,,,,,,,,,,,,,,,,,,,
,,,,,,,,2023-08-16_08h36.27.242,HF_wild_card,2022.2.4,Win32,57.60368664,5ffa12927eb1463a5c45b788,64d2fd46c836a06233681665,64dc7c63de5d1fe09df02f89,,,,,,,decisionTrl,resources/DG.BMP,resources/DR.BMP,Door3,0.277777778,-0.036111111,1,0,0,0.9656,optionRight,70,15220,7,29,0,29,0,1,,,,,,,,,,,,,,,,,,,,,,,,,,,,,,,,,,,,,,,
,,,,,,,,2023-08-16_08h36.27.242,HF_wild_card,2022.2.4,Win32,57.60368664,5ffa12927eb1463a5c45b788,64d2fd46c836a06233681665,64dc7c63de5d1fe09df02f89,,,,,,,ctch,resources/DY.BMP,resources/DR.BMP,Door3,0.285185185,-0.041666667,1,0,0,0.5806,optionRight,70,15290,7,30,0,30,0,1,,,,,,,,,,,,,,,,,,,,,,,,,,,,,,,,,,,,,,,
,,,,,,,,2023-08-16_08h36.27.242,HF_wild_card,2022.2.4,Win32,57.60368664,5ffa12927eb1463a5c45b788,64d2fd46c836a06233681665,64dc7c63de5d1fe09df02f89,,,,,,,ctch,resources/DG.BMP,resources/DP.BMP,Door4,-0.252777778,-0.002777778,1,0,0,0.9178,optionLeft,80,15370,7,31,0,31,0,1,,,,,,,,,,,,,,,,,,,,,,,,,,,,,,,,,,,,,,,
,,,,,,,,2023-08-16_08h36.27.242,HF_wild_card,2022.2.4,Win32,57.60368664,5ffa12927eb1463a5c45b788,64d2fd46c836a06233681665,64dc7c63de5d1fe09df02f89,,,,,,,decisionTrl,resources/DG.BMP,resources/DR.BMP,Door4,-0.285185185,-0.009259259,1,0,0,0.9826,optionLeft,80,15450,7,32,0,32,0,1,,,,,,,,,,,,,,,,,,,,,,,,,,,,,,,,,,,,,,,
,,,,,,,,2023-08-16_08h36.27.242,HF_wild_card,2022.2.4,Win32,57.60368664,5ffa12927eb1463a5c45b788,64d2fd46c836a06233681665,64dc7c63de5d1fe09df02f89,,,,,,,decisionTrl,resources/DP.BMP,resources/DY.BMP,Door1,-0.259259259,-0.048148148,1,0,0,3.2702,optionLeft,30,15480,7,33,0,33,0,1,,,,,,,,,,,,,,,,,,,,,,,,,,,,,,,,,,,,,,,
,,,,,,,,2023-08-16_08h36.27.242,HF_wild_card,2022.2.4,Win32,57.60368664,5ffa12927eb1463a5c45b788,64d2fd46c836a06233681665,64dc7c63de5d1fe09df02f89,,,,,,,ctch,resources/DR.BMP,resources/DY.BMP,Door3,-0.147222222,-0.022222222,1,0,0,0.7562,optionLeft,70,15550,7,34,0,34,0,1,,,,,,,,,,,,,,,,,,,,,,,,,,,,,,,,,,,,,,,
,,,,,,,,2023-08-16_08h36.27.242,HF_wild_card,2022.2.4,Win32,57.60368664,5ffa12927eb1463a5c45b788,64d2fd46c836a06233681665,64dc7c63de5d1fe09df02f89,,,,,,,decisionTrl,resources/DP.BMP,resources/DY.BMP,Door1,-0.366666667,-0.013888889,1,0,0,0.9853,optionLeft,30,15580,7,35,0,35,0,1,,,,,,,,,,,,,,,,,,,,,,,,,,,,,,,,,,,,,,,
,,,,,,,,2023-08-16_08h36.27.242,HF_wild_card,2022.2.4,Win32,57.60368664,5ffa12927eb1463a5c45b788,64d2fd46c836a06233681665,64dc7c63de5d1fe09df02f89,,,,,,,,,,,,,,,,,,,,,,,,,,6,0,6,0,1,,,,,,,,,,,,,,,,,,,,,,,,,,,,,,,,,,
,,,,,,,,2023-08-16_08h36.27.242,HF_wild_card,2022.2.4,Win32,57.60368664,5ffa12927eb1463a5c45b788,64d2fd46c836a06233681665,64dc7c63de5d1fe09df02f89,,,,,,,,,,,,,,,,,,,,,,,,,,,,,,,3,,,,,,,,,,,,,,,,,,,,,,,,,,,,,,,,,
,,,,,,,,2023-08-16_08h36.27.242,HF_wild_card,2022.2.4,Win32,57.60368664,5ffa12927eb1463a5c45b788,64d2fd46c836a06233681665,64dc7c63de5d1fe09df02f89,,,,,,,,,,,,,,,,,,,,,,,,,,,,,,,,,,,,,,,,,,,,,,,,,,,,,,,,,,,,,,,,
,,,,,,,,2023-08-16_08h36.27.242,HF_wild_card,2022.2.4,Win32,57.60368664,5ffa12927eb1463a5c45b788,64d2fd46c836a06233681665,64dc7c63de5d1fe09df02f89,,,,,,,,,,,,,,,,,,,,,,,,,,,,,,,,20,Door2,resources/DY.BMP,0,0,0,0,1,,,,,,,,,,,,,,,,,,,,,,,,,
,,,,,,,,2023-08-16_08h36.27.242,HF_wild_card,2022.2.4,Win32,57.60368664,5ffa12927eb1463a5c45b788,64d2fd46c836a06233681665,64dc7c63de5d1fe09df02f89,,,,,,,,,,,,,,,,,,,,,,,,,,,,,,,,55,WC_extreme,resources/DBN.BMP,1,0,1,0,1,,,,,,,,,,,,,,,,,,,,,,,,,
,,,,,,,,2023-08-16_08h36.27.242,HF_wild_card,2022.2.4,Win32,57.60368664,5ffa12927eb1463a5c45b788,64d2fd46c836a06233681665,64dc7c63de5d1fe09df02f89,,,,,,,,,,,,,,,,,,,,,,,,,,,,,,,,30,Door1,resources/DP.BMP,2,0,2,0,1,,,,,,,,,,,,,,,,,,,,,,,,,
,,,,,,,,2023-08-16_08h36.27.242,HF_wild_card,2022.2.4,Win32,57.60368664,5ffa12927eb1463a5c45b788,64d2fd46c836a06233681665,64dc7c63de5d1fe09df02f89,,,,,,,,,,,,,,,,,,,,,,,,,,,,,,,,40,WC_nonExtreme,resources/DB.BMP,3,0,3,0,1,,,,,,,,,,,,,,,,,,,,,,,,,
,,,,,,,,2023-08-16_08h36.27.242,HF_wild_card,2022.2.4,Win32,57.60368664,5ffa12927eb1463a5c45b788,64d2fd46c836a06233681665,64dc7c63de5d1fe09df02f89,,,,,,,,,,,,,,,,,,,,,,,,,,,,,,,,70,Door4,resources/DG.BMP,4,0,4,0,1,,,,,,,,,,,,,,,,,,,,,,,,,
,,,,,,,,2023-08-16_08h36.27.242,HF_wild_card,2022.2.4,Win32,57.60368664,5ffa12927eb1463a5c45b788,64d2fd46c836a06233681665,64dc7c63de5d1fe09df02f89,,,,,,,,,,,,,,,,,,,,,,,,,,,,,,,,80,Door3,resources/DR.BMP,5,0,5,0,1,,,,,,,,,,,,,,,,,,,,,,,,,
,,,,,,,,2023-08-16_08h36.27.242,HF_wild_card,2022.2.4,Win32,57.60368664,5ffa12927eb1463a5c45b788,64d2fd46c836a06233681665,64dc7c63de5d1fe09df02f89,,,,,,,,,,,,,,,,,,,,,,,,,,,,,,,,,,,,,,,,,,,,,,,,,,,,,,,,,,,,,,,,
,,,,,,,,2023-08-16_08h36.27.242,HF_wild_card,2022.2.4,Win32,57.60368664,5ffa12927eb1463a5c45b788,64d2fd46c836a06233681665,64dc7c63de5d1fe09df02f89,,,,,,,,,,,,,,,,,,,,,,,,,,,,,,,,,,,,,,,,0,0,0,0,1,,,,,,,,,,,,,,,,,,,,
