Condition,Low fixed image (Door1),Low risky image (Door2),High fixed image (Door3),High risky image (Door4),Extreme Wild Card,NonExtreme Wild Card,,date,expName,psychopyVersion,OS,frameRate,PROLIFIC_PID,STUDY_ID,SESSION_ID,mouse_2.x,mouse_2.y,mouse_2.leftButton,mouse_2.midButton,mouse_2.rightButton,mouse_2.clicked_name,Trial Type,Left Option Image,Right Option Image,Chosen Door,mouse.x,mouse.y,mouse.leftButton,mouse.midButton,mouse.rightButton,mouse.time,mouse.clicked_name,Feedback,Cumulative Reward,Block,trial.thisRepN,trial.thisTrialN,trial.thisN,trial.thisIndex,trial.ran,blocks.thisRepN,blocks.thisTrialN,blocks.thisN,blocks.thisIndex,blocks.ran,Money conversion,First Outcome Reported,Shown Door (First Outcome),Displayed Image (First Outcome),outcomes.thisRepN,outcomes.thisTrialN,outcomes.thisN,outcomes.thisIndex,outcomes.ran,judgments.thisRepN,judgments.thisTrialN,judgments.thisN,judgments.thisIndex,judgments.ran,freqMouse.x,freqMouse.y,freqMouse.leftButton,freqMouse.midButton,freqMouse.rightButton,freqMouse.clicked_name,FQJ for first outcome,FQJ for second outcome,Shown Door,Displayed Image,trials.thisRepN,trials.thisTrialN,trials.thisN,trials.thisIndex,trials.ran,judgBlock.thisRepN,judgBlock.thisTrialN,judgBlock.thisN,judgBlock.thisIndex,judgBlock.ran
1,resources/DBN.BMP,resources/DR.BMP,resources/DG.BMP,resources/DP.BMP,resources/DY.BMP,resources/DB.BMP,,2023-08-16_08h54.15.714,HF_wild_card,2022.2.4,Win32,11.99472232,5a3c0b842f91ec0001dc9bb4,64d2fd46c836a06233681665,64dc7f683620a5cc972da86b,,,,,,,,,,,,,,,,,,,,,,,,,,,,,,,,,,,,,,,,,,,,,,,,,,,,,,,,,,,,,,,,
,,,,,,,,2023-08-16_08h54.15.714,HF_wild_card,2022.2.4,Win32,11.99472232,5a3c0b842f91ec0001dc9bb4,64d2fd46c836a06233681665,64dc7f683620a5cc972da86b,0.001610157,-0.426145567,1,0,0,agree,,,,,,,,,,,,,,,,,,,,,,,,,,,,,,,,,,,,,,,,,,,,,,,,,,,,,,,,,,
,,,,,,,,2023-08-16_08h54.15.714,HF_wild_card,2022.2.4,Win32,11.99472232,5a3c0b842f91ec0001dc9bb4,64d2fd46c836a06233681665,64dc7f683620a5cc972da86b,,,,,,,,,,,,,,,,,,,,,,,,,,,,,,,,,,,,,,,,,,,,,,,,,,,,,,,,,,,,,,,,
,,,,,,,,2023-08-16_08h54.15.714,HF_wild_card,2022.2.4,Win32,11.99472232,5a3c0b842f91ec0001dc9bb4,64d2fd46c836a06233681665,64dc7f683620a5cc972da86b,,,,,,,sngl,resources/Empty.png,resources/DB.BMP,WildCard_NonEx,0.445960299,-0.039211429,1,0,0,5.194,optionRight,45,45,1,0,0,0,0,1,,,,,,,,,,,,,,,,,,,,,,,,,,,,,,,,,,,,,,,
,,,,,,,,2023-08-16_08h54.15.714,HF_wild_card,2022.2.4,Win32,11.99472232,5a3c0b842f91ec0001dc9bb4,64d2fd46c836a06233681665,64dc7f683620a5cc972da86b,,,,,,,decisionTrl,resources/DG.BMP,resources/DP.BMP,Door3,-0.265499142,-0.06667131,1,0,0,2.445,optionLeft,70,115,1,1,0,1,0,1,,,,,,,,,,,,,,,,,,,,,,,,,,,,,,,,,,,,,,,
,,,,,,,,2023-08-16_08h54.15.714,HF_wild_card,2022.2.4,Win32,11.99472232,5a3c0b842f91ec0001dc9bb4,64d2fd46c836a06233681665,64dc7f683620a5cc972da86b,,,,,,,decisionTrl,resources/DP.BMP,resources/DG.BMP,Door3,0.323639217,-0.037963222,1,0,0,1.797,optionRight,70,185,1,2,0,2,0,1,,,,,,,,,,,,,,,,,,,,,,,,,,,,,,,,,,,,,,,
,,,,,,,,2023-08-16_08h54.15.714,HF_wild_card,2022.2.4,Win32,11.99472232,5a3c0b842f91ec0001dc9bb4,64d2fd46c836a06233681665,64dc7f683620a5cc972da86b,,,,,,,decisionTrl,resources/DBN.BMP,resources/DR.BMP,Door1,-0.319170695,-0.031722355,1,0,0,2.055,optionLeft,30,215,1,3,0,3,0,1,,,,,,,,,,,,,,,,,,,,,,,,,,,,,,,,,,,,,,,
,,,,,,,,2023-08-16_08h54.15.714,HF_wild_card,2022.2.4,Win32,11.99472232,5a3c0b842f91ec0001dc9bb4,64d2fd46c836a06233681665,64dc7f683620a5cc972da86b,,,,,,,ctch,resources/DP.BMP,resources/DBN.BMP,Door4,-0.322915232,-0.067919431,1,0,0,1.736,optionLeft,60,275,1,4,0,4,0,1,,,,,,,,,,,,,,,,,,,,,,,,,,,,,,,,,,,,,,,
,,,,,,,,2023-08-16_08h54.15.714,HF_wild_card,2022.2.4,Win32,11.99472232,5a3c0b842f91ec0001dc9bb4,64d2fd46c836a06233681665,64dc7f683620a5cc972da86b,,,,,,,decisionTrl,resources/DB.BMP,resources/DG.BMP,Door3,0.379807057,-0.008007055,1,0,0,1.823,optionRight,70,345,1,5,0,5,0,1,,,,,,,,,,,,,,,,,,,,,,,,,,,,,,,,,,,,,,,
,,,,,,,,2023-08-16_08h54.15.714,HF_wild_card,2022.2.4,Win32,11.99472232,5a3c0b842f91ec0001dc9bb4,64d2fd46c836a06233681665,64dc7f683620a5cc972da86b,,,,,,,decisionTrl,resources/DB.BMP,resources/DR.BMP,Door2,0.35983625,-0.036715057,1,0,0,2.325,optionRight,20,365,1,6,0,6,0,1,,,,,,,,,,,,,,,,,,,,,,,,,,,,,,,,,,,,,,,
,,,,,,,,2023-08-16_08h54.15.714,HF_wild_card,2022.2.4,Win32,11.99472232,5a3c0b842f91ec0001dc9bb4,64d2fd46c836a06233681665,64dc7f683620a5cc972da86b,,,,,,,sngl,resources/DG.BMP,resources/Empty.png,Door3,-0.290462693,-0.027977818,1,0,0,1.326,optionLeft,70,435,1,7,0,7,0,1,,,,,,,,,,,,,,,,,,,,,,,,,,,,,,,,,,,,,,,
,,,,,,,,2023-08-16_08h54.15.714,HF_wild_card,2022.2.4,Win32,11.99472232,5a3c0b842f91ec0001dc9bb4,64d2fd46c836a06233681665,64dc7f683620a5cc972da86b,,,,,,,sngl,resources/Empty.png,resources/DBN.BMP,Door1,0.353595341,-0.025481489,1,0,0,1.457,optionRight,30,465,1,8,0,8,0,1,,,,,,,,,,,,,,,,,,,,,,,,,,,,,,,,,,,,,,,
,,,,,,,,2023-08-16_08h54.15.714,HF_wild_card,2022.2.4,Win32,11.99472232,5a3c0b842f91ec0001dc9bb4,64d2fd46c836a06233681665,64dc7f683620a5cc972da86b,,,,,,,sngl,resources/Empty.png,resources/DG.BMP,Door3,0.377310813,-0.014247921,1,0,0,1.392,optionRight,70,535,1,9,0,9,0,1,,,,,,,,,,,,,,,,,,,,,,,,,,,,,,,,,,,,,,,
,,,,,,,,2023-08-16_08h54.15.714,HF_wild_card,2022.2.4,Win32,11.99472232,5a3c0b842f91ec0001dc9bb4,64d2fd46c836a06233681665,64dc7f683620a5cc972da86b,,,,,,,decisionTrl,resources/DP.BMP,resources/DG.BMP,Door3,0.329880041,-0.059182193,1,0,0,1.858,optionRight,70,605,1,10,0,10,0,1,,,,,,,,,,,,,,,,,,,,,,,,,,,,,,,,,,,,,,,
,,,,,,,,2023-08-16_08h54.15.714,HF_wild_card,2022.2.4,Win32,11.99472232,5a3c0b842f91ec0001dc9bb4,64d2fd46c836a06233681665,64dc7f683620a5cc972da86b,,,,,,,ctch,resources/DG.BMP,resources/DR.BMP,Door3,-0.287966364,-0.03297052,1,0,0,1.623,optionLeft,70,675,1,11,0,11,0,1,,,,,,,,,,,,,,,,,,,,,,,,,,,,,,,,,,,,,,,
,,,,,,,,2023-08-16_08h54.15.714,HF_wild_card,2022.2.4,Win32,11.99472232,5a3c0b842f91ec0001dc9bb4,64d2fd46c836a06233681665,64dc7f683620a5cc972da86b,,,,,,,decisionTrl,resources/DR.BMP,resources/DB.BMP,WildCard_NonEx,0.357339921,-0.052941326,1,0,0,2.257,optionRight,55,730,1,12,0,12,0,1,,,,,,,,,,,,,,,,,,,,,,,,,,,,,,,,,,,,,,,
,,,,,,,,2023-08-16_08h54.15.714,HF_wild_card,2022.2.4,Win32,11.99472232,5a3c0b842f91ec0001dc9bb4,64d2fd46c836a06233681665,64dc7f683620a5cc972da86b,,,,,,,sngl,resources/Empty.png,resources/DB.BMP,WildCard_NonEx,0.332376456,-0.035466892,1,0,0,1.217,optionRight,55,785,1,13,0,13,0,1,,,,,,,,,,,,,,,,,,,,,,,,,,,,,,,,,,,,,,,
,,,,,,,,2023-08-16_08h54.15.714,HF_wild_card,2022.2.4,Win32,11.99472232,5a3c0b842f91ec0001dc9bb4,64d2fd46c836a06233681665,64dc7f683620a5cc972da86b,,,,,,,decisionTrl,resources/DG.BMP,resources/DP.BMP,Door3,-0.31417795,-0.07041576,1,0,0,1.806,optionLeft,70,855,1,14,0,14,0,1,,,,,,,,,,,,,,,,,,,,,,,,,,,,,,,,,,,,,,,
,,,,,,,,2023-08-16_08h54.15.714,HF_wild_card,2022.2.4,Win32,11.99472232,5a3c0b842f91ec0001dc9bb4,64d2fd46c836a06233681665,64dc7f683620a5cc972da86b,,,,,,,decisionTrl,resources/DP.BMP,resources/DG.BMP,Door4,-0.270491887,-0.041707759,1,0,0,2.308,optionLeft,80,935,1,15,0,15,0,1,,,,,,,,,,,,,,,,,,,,,,,,,,,,,,,,,,,,,,,
,,,,,,,,2023-08-16_08h54.15.714,HF_wild_card,2022.2.4,Win32,11.99472232,5a3c0b842f91ec0001dc9bb4,64d2fd46c836a06233681665,64dc7f683620a5cc972da86b,,,,,,,ctch,resources/DR.BMP,resources/DG.BMP,Door3,0.346106353,-0.024233324,1,0,0,1.917,optionRight,70,1005,1,16,0,16,0,1,,,,,,,,,,,,,,,,,,,,,,,,,,,,,,,,,,,,,,,
,,,,,,,,2023-08-16_08h54.15.714,HF_wild_card,2022.2.4,Win32,11.99472232,5a3c0b842f91ec0001dc9bb4,64d2fd46c836a06233681665,64dc7f683620a5cc972da86b,,,,,,,sngl,resources/Empty.png,resources/DP.BMP,Door4,0.344858274,-0.00925522,1,0,0,1.014,optionRight,60,1065,1,17,0,17,0,1,,,,,,,,,,,,,,,,,,,,,,,,,,,,,,,,,,,,,,,
,,,,,,,,2023-08-16_08h54.15.714,HF_wild_card,2022.2.4,Win32,11.99472232,5a3c0b842f91ec0001dc9bb4,64d2fd46c836a06233681665,64dc7f683620a5cc972da86b,,,,,,,sngl,resources/DP.BMP,resources/Empty.png,Door4,-0.339141501,-0.059182193,1,0,0,1.323,optionLeft,80,1145,1,18,0,18,0,1,,,,,,,,,,,,,,,,,,,,,,,,,,,,,,,,,,,,,,,
,,,,,,,,2023-08-16_08h54.15.714,HF_wild_card,2022.2.4,Win32,11.99472232,5a3c0b842f91ec0001dc9bb4,64d2fd46c836a06233681665,64dc7f683620a5cc972da86b,,,,,,,sngl,resources/DR.BMP,resources/Empty.png,Door2,-0.291710858,-0.020488787,1,0,0,1.262,optionLeft,40,1185,1,19,0,19,0,1,,,,,,,,,,,,,,,,,,,,,,,,,,,,,,,,,,,,,,,
,,,,,,,,2023-08-16_08h54.15.714,HF_wild_card,2022.2.4,Win32,11.99472232,5a3c0b842f91ec0001dc9bb4,64d2fd46c836a06233681665,64dc7f683620a5cc972da86b,,,,,,,decisionTrl,resources/DR.BMP,resources/DBN.BMP,Door2,-0.300448096,-0.017992501,1,0,0,1.842,optionLeft,40,1225,1,20,0,20,0,1,,,,,,,,,,,,,,,,,,,,,,,,,,,,,,,,,,,,,,,
,,,,,,,,2023-08-16_08h54.15.714,HF_wild_card,2022.2.4,Win32,11.99472232,5a3c0b842f91ec0001dc9bb4,64d2fd46c836a06233681665,64dc7f683620a5cc972da86b,,,,,,,sngl,resources/Empty.png,resources/DR.BMP,Door2,0.366077246,0.02070099,1,0,0,1.074,optionRight,20,1245,1,21,0,21,0,1,,,,,,,,,,,,,,,,,,,,,,,,,,,,,,,,,,,,,,,
,,,,,,,,2023-08-16_08h54.15.714,HF_wild_card,2022.2.4,Win32,11.99472232,5a3c0b842f91ec0001dc9bb4,64d2fd46c836a06233681665,64dc7f683620a5cc972da86b,,,,,,,sngl,resources/DB.BMP,resources/Empty.png,WildCard_NonEx,-0.28047729,-0.047948625,1,0,0,2.292,optionLeft,45,1290,1,22,0,22,0,1,,,,,,,,,,,,,,,,,,,,,,,,,,,,,,,,,,,,,,,
,,,,,,,,2023-08-16_08h54.15.714,HF_wild_card,2022.2.4,Win32,11.99472232,5a3c0b842f91ec0001dc9bb4,64d2fd46c836a06233681665,64dc7f683620a5cc972da86b,,,,,,,decisionTrl,resources/DB.BMP,resources/DP.BMP,Door4,0.302420246,-0.039211429,1,0,0,3.195,optionRight,60,1350,1,23,0,23,0,1,,,,,,,,,,,,,,,,,,,,,,,,,,,,,,,,,,,,,,,
,,,,,,,,2023-08-16_08h54.15.714,HF_wild_card,2022.2.4,Win32,11.99472232,5a3c0b842f91ec0001dc9bb4,64d2fd46c836a06233681665,64dc7f683620a5cc972da86b,,,,,,,decisionTrl,resources/DG.BMP,resources/DB.BMP,Door3,-0.325411561,0.019452782,1,0,0,1.376,optionLeft,70,1420,1,24,0,24,0,1,,,,,,,,,,,,,,,,,,,,,,,,,,,,,,,,,,,,,,,
,,,,,,,,2023-08-16_08h54.15.714,HF_wild_card,2022.2.4,Win32,11.99472232,5a3c0b842f91ec0001dc9bb4,64d2fd46c836a06233681665,64dc7f683620a5cc972da86b,,,,,,,decisionTrl,resources/DR.BMP,resources/DBN.BMP,Door2,-0.320418903,-0.01674425,1,0,0,1.419,optionLeft,40,1460,1,25,0,25,0,1,,,,,,,,,,,,,,,,,,,,,,,,,,,,,,,,,,,,,,,
,,,,,,,,2023-08-16_08h54.15.714,HF_wild_card,2022.2.4,Win32,11.99472232,5a3c0b842f91ec0001dc9bb4,64d2fd46c836a06233681665,64dc7f683620a5cc972da86b,,,,,,,decisionTrl,resources/DBN.BMP,resources/DR.BMP,Door2,0.382303386,0.008219215,1,0,0,1.503,optionRight,40,1500,1,26,0,26,0,1,,,,,,,,,,,,,,,,,,,,,,,,,,,,,,,,,,,,,,,
,,,,,,,,2023-08-16_08h54.15.714,HF_wild_card,2022.2.4,Win32,11.99472232,5a3c0b842f91ec0001dc9bb4,64d2fd46c836a06233681665,64dc7f683620a5cc972da86b,,,,,,,decisionTrl,resources/DG.BMP,resources/DP.BMP,Door3,-0.24053572,-0.036715057,1,0,0,2.8,optionLeft,70,1570,1,27,0,27,0,1,,,,,,,,,,,,,,,,,,,,,,,,,,,,,,,,,,,,,,,
,,,,,,,,2023-08-16_08h54.15.714,HF_wild_card,2022.2.4,Win32,11.99472232,5a3c0b842f91ec0001dc9bb4,64d2fd46c836a06233681665,64dc7f683620a5cc972da86b,,,,,,,decisionTrl,resources/DBN.BMP,resources/DB.BMP,WildCard_NonEx,0.403522357,-0.03297052,1,0,0,1.297,optionRight,45,1615,1,28,0,28,0,1,,,,,,,,,,,,,,,,,,,,,,,,,,,,,,,,,,,,,,,
,,,,,,,,2023-08-16_08h54.15.714,HF_wild_card,2022.2.4,Win32,11.99472232,5a3c0b842f91ec0001dc9bb4,64d2fd46c836a06233681665,64dc7f683620a5cc972da86b,,,,,,,decisionTrl,resources/DP.BMP,resources/DG.BMP,Door3,0.301172168,0.025693649,1,0,0,1.186,optionRight,70,1685,1,29,0,29,0,1,,,,,,,,,,,,,,,,,,,,,,,,,,,,,,,,,,,,,,,
,,,,,,,,2023-08-16_08h54.15.714,HF_wild_card,2022.2.4,Win32,11.99472232,5a3c0b842f91ec0001dc9bb4,64d2fd46c836a06233681665,64dc7f683620a5cc972da86b,,,,,,,ctch,resources/DBN.BMP,resources/DP.BMP,Door4,0.343610024,0.025693649,1,0,0,1.701,optionRight,80,1765,1,30,0,30,0,1,,,,,,,,,,,,,,,,,,,,,,,,,,,,,,,,,,,,,,,
,,,,,,,,2023-08-16_08h54.15.714,HF_wild_card,2022.2.4,Win32,11.99472232,5a3c0b842f91ec0001dc9bb4,64d2fd46c836a06233681665,64dc7f683620a5cc972da86b,,,,,,,sngl,resources/DB.BMP,resources/Empty.png,WildCard_NonEx,-0.290462693,-0.044204088,1,0,0,1.218,optionLeft,55,1820,1,31,0,31,0,1,,,,,,,,,,,,,,,,,,,,,,,,,,,,,,,,,,,,,,,
,,,,,,,,2023-08-16_08h54.15.714,HF_wild_card,2022.2.4,Win32,11.99472232,5a3c0b842f91ec0001dc9bb4,64d2fd46c836a06233681665,64dc7f683620a5cc972da86b,,,,,,,decisionTrl,resources/DR.BMP,resources/DBN.BMP,Door2,-0.241783885,-0.02298516,1,0,0,1.75,optionLeft,20,1840,1,32,0,32,0,1,,,,,,,,,,,,,,,,,,,,,,,,,,,,,,,,,,,,,,,
,,,,,,,,2023-08-16_08h54.15.714,HF_wild_card,2022.2.4,Win32,11.99472232,5a3c0b842f91ec0001dc9bb4,64d2fd46c836a06233681665,64dc7f683620a5cc972da86b,,,,,,,sngl,resources/DBN.BMP,resources/Empty.png,Door1,-0.301696261,-0.021736952,1,0,0,1.172,optionLeft,30,1870,1,33,0,33,0,1,,,,,,,,,,,,,,,,,,,,,,,,,,,,,,,,,,,,,,,
,,,,,,,,2023-08-16_08h54.15.714,HF_wild_card,2022.2.4,Win32,11.99472232,5a3c0b842f91ec0001dc9bb4,64d2fd46c836a06233681665,64dc7f683620a5cc972da86b,,,,,,,decisionTrl,resources/DBN.BMP,resources/DR.BMP,Door1,-0.37159404,0.038175424,1,0,0,1.733,optionLeft,30,1900,1,34,0,34,0,1,,,,,,,,,,,,,,,,,,,,,,,,,,,,,,,,,,,,,,,
,,,,,,,,2023-08-16_08h54.15.714,HF_wild_card,2022.2.4,Win32,11.99472232,5a3c0b842f91ec0001dc9bb4,64d2fd46c836a06233681665,64dc7f683620a5cc972da86b,,,,,,,decisionTrl,resources/DG.BMP,resources/DP.BMP,Door4,0.323639217,-0.004262518,1,0,0,1.756,optionRight,80,1980,1,35,0,35,0,1,,,,,,,,,,,,,,,,,,,,,,,,,,,,,,,,,,,,,,,
,,,,,,,,2023-08-16_08h54.15.714,HF_wild_card,2022.2.4,Win32,11.99472232,5a3c0b842f91ec0001dc9bb4,64d2fd46c836a06233681665,64dc7f683620a5cc972da86b,,,,,,,ctch,resources/DR.BMP,resources/DG.BMP,Door3,0.237515168,-0.024233324,1,0,0,2.144,optionRight,70,2050,1,36,0,36,0,1,,,,,,,,,,,,,,,,,,,,,,,,,,,,,,,,,,,,,,,
,,,,,,,,2023-08-16_08h54.15.714,HF_wild_card,2022.2.4,Win32,11.99472232,5a3c0b842f91ec0001dc9bb4,64d2fd46c836a06233681665,64dc7f683620a5cc972da86b,,,,,,,ctch,resources/DG.BMP,resources/DR.BMP,Door3,-0.322915232,-0.005510683,1,0,0,1.657,optionLeft,70,2120,1,37,0,37,0,1,,,,,,,,,,,,,,,,,,,,,,,,,,,,,,,,,,,,,,,
,,,,,,,,2023-08-16_08h54.15.714,HF_wild_card,2022.2.4,Win32,11.99472232,5a3c0b842f91ec0001dc9bb4,64d2fd46c836a06233681665,64dc7f683620a5cc972da86b,,,,,,,ctch,resources/DP.BMP,resources/DBN.BMP,Door4,-0.245528422,-0.060430357,1,0,0,1.888,optionLeft,60,2180,1,38,0,38,0,1,,,,,,,,,,,,,,,,,,,,,,,,,,,,,,,,,,,,,,,
,,,,,,,,2023-08-16_08h54.15.714,HF_wild_card,2022.2.4,Win32,11.99472232,5a3c0b842f91ec0001dc9bb4,64d2fd46c836a06233681665,64dc7f683620a5cc972da86b,,,,,,,decisionTrl,resources/DBN.BMP,resources/DR.BMP,Door1,0.001610157,-0.012999757,1,0,0,1.238,optionLeft,30,2210,1,39,0,39,0,1,,,,,,,,,,,,,,,,,,,,,,,,,,,,,,,,,,,,,,,
,,,,,,,,2023-08-16_08h54.15.714,HF_wild_card,2022.2.4,Win32,11.99472232,5a3c0b842f91ec0001dc9bb4,64d2fd46c836a06233681665,64dc7f683620a5cc972da86b,,,,,,,decisionTrl,resources/DP.BMP,resources/DB.BMP,Door4,-0.21057951,0.016956453,1,0,0,1.829,optionLeft,80,2290,1,40,0,40,0,1,,,,,,,,,,,,,,,,,,,,,,,,,,,,,,,,,,,,,,,
,,,,,,,,2023-08-16_08h54.15.714,HF_wild_card,2022.2.4,Win32,11.99472232,5a3c0b842f91ec0001dc9bb4,64d2fd46c836a06233681665,64dc7f683620a5cc972da86b,,,,,,,decisionTrl,resources/DR.BMP,resources/DBN.BMP,Door1,0.281201275,0.036927216,1,0,0,2.292,optionRight,30,2320,1,41,0,41,0,1,,,,,,,,,,,,,,,,,,,,,,,,,,,,,,,,,,,,,,,
,,,,,,,,2023-08-16_08h54.15.714,HF_wild_card,2022.2.4,Win32,11.99472232,5a3c0b842f91ec0001dc9bb4,64d2fd46c836a06233681665,64dc7f683620a5cc972da86b,,,,,,,decisionTrl,resources/DB.BMP,resources/DBN.BMP,WildCard_NonEx,-0.26425102,-0.014247921,1,0,0,1.245,optionLeft,55,2375,1,42,0,42,0,1,,,,,,,,,,,,,,,,,,,,,,,,,,,,,,,,,,,,,,,
,,,,,,,,2023-08-16_08h54.15.714,HF_wild_card,2022.2.4,Win32,11.99472232,5a3c0b842f91ec0001dc9bb4,64d2fd46c836a06233681665,64dc7f683620a5cc972da86b,,,,,,,ctch,resources/DBN.BMP,resources/DP.BMP,Door4,0.343610024,0.03068635,1,0,0,1.295,optionRight,80,2455,1,43,0,43,0,1,,,,,,,,,,,,,,,,,,,,,,,,,,,,,,,,,,,,,,,
,,,,,,,,2023-08-16_08h54.15.714,HF_wild_card,2022.2.4,Win32,11.99472232,5a3c0b842f91ec0001dc9bb4,64d2fd46c836a06233681665,64dc7f683620a5cc972da86b,,,,,,,,,,,,,,,,,,,,,,,,,,0,0,0,0,1,,,,,,,,,,,,,,,,,,,,,,,,,,,,,,,,,,
,,,,,,,,2023-08-16_08h54.15.714,HF_wild_card,2022.2.4,Win32,11.99472232,5a3c0b842f91ec0001dc9bb4,64d2fd46c836a06233681665,64dc7f683620a5cc972da86b,,,,,,,sngl,resources/Empty.png,resources/DR.BMP,Door2,0.357339921,-0.087890238,1,0,0,2.907,optionRight,40,2495,2,0,0,0,0,1,,,,,,,,,,,,,,,,,,,,,,,,,,,,,,,,,,,,,,,
,,,,,,,,2023-08-16_08h54.15.714,HF_wild_card,2022.2.4,Win32,11.99472232,5a3c0b842f91ec0001dc9bb4,64d2fd46c836a06233681665,64dc7f683620a5cc972da86b,,,,,,,sngl,resources/DR.BMP,resources/Empty.png,Door2,-0.249272872,-0.03297052,1,0,0,0.906,optionLeft,20,2515,2,1,0,1,0,1,,,,,,,,,,,,,,,,,,,,,,,,,,,,,,,,,,,,,,,
,,,,,,,,2023-08-16_08h54.15.714,HF_wild_card,2022.2.4,Win32,11.99472232,5a3c0b842f91ec0001dc9bb4,64d2fd46c836a06233681665,64dc7f683620a5cc972da86b,,,,,,,sngl,resources/DBN.BMP,resources/Empty.png,Door1,-0.17313427,-0.012999757,1,0,0,0.982,optionLeft,30,2545,2,2,0,2,0,1,,,,,,,,,,,,,,,,,,,,,,,,,,,,,,,,,,,,,,,
,,,,,,,,2023-08-16_08h54.15.714,HF_wild_card,2022.2.4,Win32,11.99472232,5a3c0b842f91ec0001dc9bb4,64d2fd46c836a06233681665,64dc7f683620a5cc972da86b,,,,,,,ctch,resources/DP.BMP,resources/DBN.BMP,Door4,-0.168141525,-0.054189491,1,0,0,1.34,optionLeft,60,2605,2,3,0,3,0,1,,,,,,,,,,,,,,,,,,,,,,,,,,,,,,,,,,,,,,,
,,,,,,,,2023-08-16_08h54.15.714,HF_wild_card,2022.2.4,Win32,11.99472232,5a3c0b842f91ec0001dc9bb4,64d2fd46c836a06233681665,64dc7f683620a5cc972da86b,,,,,,,sngl,resources/DB.BMP,resources/Empty.png,WildCard_NonEx,-0.169389776,-0.008007055,1,0,0,1.03,optionLeft,45,2650,2,4,0,4,0,1,,,,,,,,,,,,,,,,,,,,,,,,,,,,,,,,,,,,,,,
,,,,,,,,2023-08-16_08h54.15.714,HF_wild_card,2022.2.4,Win32,11.99472232,5a3c0b842f91ec0001dc9bb4,64d2fd46c836a06233681665,64dc7f683620a5cc972da86b,,,,,,,sngl,resources/Empty.png,resources/DB.BMP,WildCard_NonEx,0.22877793,-0.01674425,1,0,0,1.042,optionRight,55,2705,2,5,0,5,0,1,,,,,,,,,,,,,,,,,,,,,,,,,,,,,,,,,,,,,,,
,,,,,,,,2023-08-16_08h54.15.714,HF_wild_card,2022.2.4,Win32,11.99472232,5a3c0b842f91ec0001dc9bb4,64d2fd46c836a06233681665,64dc7f683620a5cc972da86b,,,,,,,ctch,resources/DR.BMP,resources/DG.BMP,Door3,0.256237724,0.04441629,1,0,0,2.303,optionRight,70,2775,2,6,0,6,0,1,,,,,,,,,,,,,,,,,,,,,,,,,,,,,,,,,,,,,,,
,,,,,,,,2023-08-16_08h54.15.714,HF_wild_card,2022.2.4,Win32,11.99472232,5a3c0b842f91ec0001dc9bb4,64d2fd46c836a06233681665,64dc7f683620a5cc972da86b,,,,,,,decisionTrl,resources/DG.BMP,resources/DB.BMP,Door3,-0.194353241,-0.049196789,1,0,0,1.646,optionLeft,70,2845,2,7,0,7,0,1,,,,,,,,,,,,,,,,,,,,,,,,,,,,,,,,,,,,,,,
,,,,,,,,2023-08-16_08h54.15.714,HF_wild_card,2022.2.4,Win32,11.99472232,5a3c0b842f91ec0001dc9bb4,64d2fd46c836a06233681665,64dc7f683620a5cc972da86b,,,,,,,decisionTrl,resources/DP.BMP,resources/DG.BMP,Door4,-0.153163506,-0.027977818,1,0,0,1.189,optionLeft,80,2925,2,8,0,8,0,1,,,,,,,,,,,,,,,,,,,,,,,,,,,,,,,,,,,,,,,
,,,,,,,,2023-08-16_08h54.15.714,HF_wild_card,2022.2.4,Win32,11.99472232,5a3c0b842f91ec0001dc9bb4,64d2fd46c836a06233681665,64dc7f683620a5cc972da86b,,,,,,,sngl,resources/Empty.png,resources/DG.BMP,Door3,0.22877793,0.040671753,1,0,0,0.977,optionRight,70,2995,2,9,0,9,0,1,,,,,,,,,,,,,,,,,,,,,,,,,,,,,,,,,,,,,,,
,,,,,,,,2023-08-16_08h54.15.714,HF_wild_card,2022.2.4,Win32,11.99472232,5a3c0b842f91ec0001dc9bb4,64d2fd46c836a06233681665,64dc7f683620a5cc972da86b,,,,,,,ctch,resources/DG.BMP,resources/DR.BMP,Door3,-0.17313427,-0.001766232,1,0,0,1.401,optionLeft,70,3065,2,10,0,10,0,1,,,,,,,,,,,,,,,,,,,,,,,,,,,,,,,,,,,,,,,
,,,,,,,,2023-08-16_08h54.15.714,HF_wild_card,2022.2.4,Win32,11.99472232,5a3c0b842f91ec0001dc9bb4,64d2fd46c836a06233681665,64dc7f683620a5cc972da86b,,,,,,,decisionTrl,resources/DG.BMP,resources/DP.BMP,Door4,0.207558959,0.015708288,1,0,0,1.142,optionRight,80,3145,2,11,0,11,0,1,,,,,,,,,,,,,,,,,,,,,,,,,,,,,,,,,,,,,,,
,,,,,,,,2023-08-16_08h54.15.714,HF_wild_card,2022.2.4,Win32,11.99472232,5a3c0b842f91ec0001dc9bb4,64d2fd46c836a06233681665,64dc7f683620a5cc972da86b,,,,,,,decisionTrl,resources/DP.BMP,resources/DB.BMP,Door4,-0.18686421,-0.012999757,1,0,0,1.273,optionLeft,80,3225,2,12,0,12,0,1,,,,,,,,,,,,,,,,,,,,,,,,,,,,,,,,,,,,,,,
,,,,,,,,2023-08-16_08h54.15.714,HF_wild_card,2022.2.4,Win32,11.99472232,5a3c0b842f91ec0001dc9bb4,64d2fd46c836a06233681665,64dc7f683620a5cc972da86b,,,,,,,decisionTrl,resources/DBN.BMP,resources/DR.BMP,Door1,-0.22680578,-0.012999757,1,0,0,1.664,optionLeft,30,3255,2,13,0,13,0,1,,,,,,,,,,,,,,,,,,,,,,,,,,,,,,,,,,,,,,,
,,,,,,,,2023-08-16_08h54.15.714,HF_wild_card,2022.2.4,Win32,11.99472232,5a3c0b842f91ec0001dc9bb4,64d2fd46c836a06233681665,64dc7f683620a5cc972da86b,,,,,,,sngl,resources/Empty.png,resources/DB.BMP,WildCard_NonEx,0.230026094,0.029438186,1,0,0,0.977,optionRight,45,3300,2,14,0,14,0,1,,,,,,,,,,,,,,,,,,,,,,,,,,,,,,,,,,,,,,,
,,,,,,,,2023-08-16_08h54.15.714,HF_wild_card,2022.2.4,Win32,11.99472232,5a3c0b842f91ec0001dc9bb4,64d2fd46c836a06233681665,64dc7f683620a5cc972da86b,,,,,,,sngl,resources/Empty.png,resources/DP.BMP,Door4,0.212551617,0.011963751,1,0,0,0.912,optionRight,80,3380,2,15,0,15,0,1,,,,,,,,,,,,,,,,,,,,,,,,,,,,,,,,,,,,,,,
,,,,,,,,2023-08-16_08h54.15.714,HF_wild_card,2022.2.4,Win32,11.99472232,5a3c0b842f91ec0001dc9bb4,64d2fd46c836a06233681665,64dc7f683620a5cc972da86b,,,,,,,decisionTrl,resources/DR.BMP,resources/DBN.BMP,Door1,0.191332646,0.013211916,1,0,0,2.488,optionRight,30,3410,2,16,0,16,0,1,,,,,,,,,,,,,,,,,,,,,,,,,,,,,,,,,,,,,,,
,,,,,,,,2023-08-16_08h54.15.714,HF_wild_card,2022.2.4,Win32,11.99472232,5a3c0b842f91ec0001dc9bb4,64d2fd46c836a06233681665,64dc7f683620a5cc972da86b,,,,,,,ctch,resources/DR.BMP,resources/DG.BMP,Door3,0.181347329,0.016956453,1,0,0,3.744,optionRight,70,3480,2,17,0,17,0,1,,,,,,,,,,,,,,,,,,,,,,,,,,,,,,,,,,,,,,,
,,,,,,,,2023-08-16_08h54.15.714,HF_wild_card,2022.2.4,Win32,11.99472232,5a3c0b842f91ec0001dc9bb4,64d2fd46c836a06233681665,64dc7f683620a5cc972da86b,,,,,,,decisionTrl,resources/DR.BMP,resources/DBN.BMP,Door1,0.231274259,0.038175424,1,0,0,1.453,optionRight,30,3510,2,18,0,18,0,1,,,,,,,,,,,,,,,,,,,,,,,,,,,,,,,,,,,,,,,
,,,,,,,,2023-08-16_08h54.15.714,HF_wild_card,2022.2.4,Win32,11.99472232,5a3c0b842f91ec0001dc9bb4,64d2fd46c836a06233681665,64dc7f683620a5cc972da86b,,,,,,,ctch,resources/DP.BMP,resources/DBN.BMP,Door4,-0.136937237,-0.001766232,1,0,0,1.139,optionLeft,80,3590,2,19,0,19,0,1,,,,,,,,,,,,,,,,,,,,,,,,,,,,,,,,,,,,,,,
,,,,,,,,2023-08-16_08h54.15.714,HF_wild_card,2022.2.4,Win32,11.99472232,5a3c0b842f91ec0001dc9bb4,64d2fd46c836a06233681665,64dc7f683620a5cc972da86b,,,,,,,sngl,resources/DP.BMP,resources/Empty.png,Door4,-0.140681731,0.001978348,1,0,0,1.375,optionLeft,60,3650,2,20,0,20,0,1,,,,,,,,,,,,,,,,,,,,,,,,,,,,,,,,,,,,,,,
,,,,,,,,2023-08-16_08h54.15.714,HF_wild_card,2022.2.4,Win32,11.99472232,5a3c0b842f91ec0001dc9bb4,64d2fd46c836a06233681665,64dc7f683620a5cc972da86b,,,,,,,decisionTrl,resources/DR.BMP,resources/DBN.BMP,Door1,0.237515168,0.019452782,1,0,0,1.771,optionRight,30,3680,2,21,0,21,0,1,,,,,,,,,,,,,,,,,,,,,,,,,,,,,,,,,,,,,,,
,,,,,,,,2023-08-16_08h54.15.714,HF_wild_card,2022.2.4,Win32,11.99472232,5a3c0b842f91ec0001dc9bb4,64d2fd46c836a06233681665,64dc7f683620a5cc972da86b,,,,,,,decisionTrl,resources/DG.BMP,resources/DP.BMP,Door4,0.245004156,0.056898023,1,0,0,1.484,optionRight,60,3740,2,22,0,22,0,1,,,,,,,,,,,,,,,,,,,,,,,,,,,,,,,,,,,,,,,
,,,,,,,,2023-08-16_08h54.15.714,HF_wild_card,2022.2.4,Win32,11.99472232,5a3c0b842f91ec0001dc9bb4,64d2fd46c836a06233681665,64dc7f683620a5cc972da86b,,,,,,,decisionTrl,resources/DP.BMP,resources/DG.BMP,Door4,-0.261754691,-0.001766232,1,0,0,1.165,optionLeft,60,3800,2,23,0,23,0,1,,,,,,,,,,,,,,,,,,,,,,,,,,,,,,,,,,,,,,,
,,,,,,,,2023-08-16_08h54.15.714,HF_wild_card,2022.2.4,Win32,11.99472232,5a3c0b842f91ec0001dc9bb4,64d2fd46c836a06233681665,64dc7f683620a5cc972da86b,,,,,,,decisionTrl,resources/DBN.BMP,resources/DB.BMP,WildCard_NonEx,0.226281601,0.021949155,1,0,0,1.611,optionRight,55,3855,2,24,0,24,0,1,,,,,,,,,,,,,,,,,,,,,,,,,,,,,,,,,,,,,,,
,,,,,,,,2023-08-16_08h54.15.714,HF_wild_card,2022.2.4,Win32,11.99472232,5a3c0b842f91ec0001dc9bb4,64d2fd46c836a06233681665,64dc7f683620a5cc972da86b,,,,,,,ctch,resources/DG.BMP,resources/DR.BMP,Door3,-0.165645239,-0.008007055,1,0,0,1.51,optionLeft,70,3925,2,25,0,25,0,1,,,,,,,,,,,,,,,,,,,,,,,,,,,,,,,,,,,,,,,
,,,,,,,,2023-08-16_08h54.15.714,HF_wild_card,2022.2.4,Win32,11.99472232,5a3c0b842f91ec0001dc9bb4,64d2fd46c836a06233681665,64dc7f683620a5cc972da86b,,,,,,,ctch,resources/DBN.BMP,resources/DP.BMP,Door4,0.197573556,-0.00925522,1,0,0,1.051,optionRight,60,3985,2,26,0,26,0,1,,,,,,,,,,,,,,,,,,,,,,,,,,,,,,,,,,,,,,,
,,,,,,,,2023-08-16_08h54.15.714,HF_wild_card,2022.2.4,Win32,11.99472232,5a3c0b842f91ec0001dc9bb4,64d2fd46c836a06233681665,64dc7f683620a5cc972da86b,,,,,,,decisionTrl,resources/DR.BMP,resources/DB.BMP,WildCard_NonEx,0.150142955,0.008219215,1,0,0,1.642,optionRight,45,4030,2,27,0,27,0,1,,,,,,,,,,,,,,,,,,,,,,,,,,,,,,,,,,,,,,,
,,,,,,,,2023-08-16_08h54.15.714,HF_wild_card,2022.2.4,Win32,11.99472232,5a3c0b842f91ec0001dc9bb4,64d2fd46c836a06233681665,64dc7f683620a5cc972da86b,,,,,,,decisionTrl,resources/DB.BMP,resources/DG.BMP,Door3,0.168865511,0.035679052,1,0,0,4.182,optionRight,70,4100,2,28,0,28,0,1,,,,,,,,,,,,,,,,,,,,,,,,,,,,,,,,,,,,,,,
,,,,,,,,2023-08-16_08h54.15.714,HF_wild_card,2022.2.4,Win32,11.99472232,5a3c0b842f91ec0001dc9bb4,64d2fd46c836a06233681665,64dc7f683620a5cc972da86b,,,,,,,decisionTrl,resources/DG.BMP,resources/DP.BMP,Door4,0.226281601,0.034430887,1,0,0,1.156,optionRight,80,4180,2,29,0,29,0,1,,,,,,,,,,,,,,,,,,,,,,,,,,,,,,,,,,,,,,,
,,,,,,,,2023-08-16_08h54.15.714,HF_wild_card,2022.2.4,Win32,11.99472232,5a3c0b842f91ec0001dc9bb4,64d2fd46c836a06233681665,64dc7f683620a5cc972da86b,,,,,,,sngl,resources/Empty.png,resources/DBN.BMP,Door1,0.195077226,0.005722885,1,0,0,1.15,optionRight,30,4210,2,30,0,30,0,1,,,,,,,,,,,,,,,,,,,,,,,,,,,,,,,,,,,,,,,
,,,,,,,,2023-08-16_08h54.15.714,HF_wild_card,2022.2.4,Win32,11.99472232,5a3c0b842f91ec0001dc9bb4,64d2fd46c836a06233681665,64dc7f683620a5cc972da86b,,,,,,,ctch,resources/DBN.BMP,resources/DP.BMP,Door4,0.152639284,-0.000517981,1,0,0,1.477,optionRight,80,4290,2,31,0,31,0,1,,,,,,,,,,,,,,,,,,,,,,,,,,,,,,,,,,,,,,,
,,,,,,,,2023-08-16_08h54.15.714,HF_wild_card,2022.2.4,Win32,11.99472232,5a3c0b842f91ec0001dc9bb4,64d2fd46c836a06233681665,64dc7f683620a5cc972da86b,,,,,,,decisionTrl,resources/DB.BMP,resources/DR.BMP,WildCard_NonEx,-0.134440865,-0.001766232,1,0,0,1.675,optionLeft,45,4335,2,32,0,32,0,1,,,,,,,,,,,,,,,,,,,,,,,,,,,,,,,,,,,,,,,
,,,,,,,,2023-08-16_08h54.15.714,HF_wild_card,2022.2.4,Win32,11.99472232,5a3c0b842f91ec0001dc9bb4,64d2fd46c836a06233681665,64dc7f683620a5cc972da86b,,,,,,,decisionTrl,resources/DG.BMP,resources/DP.BMP,Door4,0.187588152,0.02070099,1,0,0,1.289,optionRight,80,4415,2,33,0,33,0,1,,,,,,,,,,,,,,,,,,,,,,,,,,,,,,,,,,,,,,,
,,,,,,,,2023-08-16_08h54.15.714,HF_wild_card,2022.2.4,Win32,11.99472232,5a3c0b842f91ec0001dc9bb4,64d2fd46c836a06233681665,64dc7f683620a5cc972da86b,,,,,,,decisionTrl,resources/DP.BMP,resources/DG.BMP,Door4,-0.145674432,0.005722885,1,0,0,1.385,optionLeft,80,4495,2,34,0,34,0,1,,,,,,,,,,,,,,,,,,,,,,,,,,,,,,,,,,,,,,,
,,,,,,,,2023-08-16_08h54.15.714,HF_wild_card,2022.2.4,Win32,11.99472232,5a3c0b842f91ec0001dc9bb4,64d2fd46c836a06233681665,64dc7f683620a5cc972da86b,,,,,,,sngl,resources/DB.BMP,resources/Empty.png,WildCard_NonEx,-0.21057951,-0.008007055,1,0,0,1.02,optionLeft,55,4550,2,35,0,35,0,1,,,,,,,,,,,,,,,,,,,,,,,,,,,,,,,,,,,,,,,
,,,,,,,,2023-08-16_08h54.15.714,HF_wild_card,2022.2.4,Win32,11.99472232,5a3c0b842f91ec0001dc9bb4,64d2fd46c836a06233681665,64dc7f683620a5cc972da86b,,,,,,,decisionTrl,resources/DBN.BMP,resources/DR.BMP,Door1,-0.154411671,-0.004262518,1,0,0,1.603,optionLeft,30,4580,2,36,0,36,0,1,,,,,,,,,,,,,,,,,,,,,,,,,,,,,,,,,,,,,,,
,,,,,,,,2023-08-16_08h54.15.714,HF_wild_card,2022.2.4,Win32,11.99472232,5a3c0b842f91ec0001dc9bb4,64d2fd46c836a06233681665,64dc7f683620a5cc972da86b,,,,,,,decisionTrl,resources/DB.BMP,resources/DBN.BMP,WildCard_NonEx,-0.17313427,-0.003014353,1,0,0,1.483,optionLeft,55,4635,2,37,0,37,0,1,,,,,,,,,,,,,,,,,,,,,,,,,,,,,,,,,,,,,,,
,,,,,,,,2023-08-16_08h54.15.714,HF_wild_card,2022.2.4,Win32,11.99472232,5a3c0b842f91ec0001dc9bb4,64d2fd46c836a06233681665,64dc7f683620a5cc972da86b,,,,,,,decisionTrl,resources/DR.BMP,resources/DBN.BMP,Door2,-0.228053944,-0.001766232,1,0,0,1.336,optionLeft,40,4675,2,38,0,38,0,1,,,,,,,,,,,,,,,,,,,,,,,,,,,,,,,,,,,,,,,
,,,,,,,,2023-08-16_08h54.15.714,HF_wild_card,2022.2.4,Win32,11.99472232,5a3c0b842f91ec0001dc9bb4,64d2fd46c836a06233681665,64dc7f683620a5cc972da86b,,,,,,,decisionTrl,resources/DBN.BMP,resources/DR.BMP,Door2,0.221288856,0.010715587,1,0,0,1.215,optionRight,40,4715,2,39,0,39,0,1,,,,,,,,,,,,,,,,,,,,,,,,,,,,,,,,,,,,,,,
,,,,,,,,2023-08-16_08h54.15.714,HF_wild_card,2022.2.4,Win32,11.99472232,5a3c0b842f91ec0001dc9bb4,64d2fd46c836a06233681665,64dc7f683620a5cc972da86b,,,,,,,sngl,resources/DG.BMP,resources/Empty.png,Door3,-0.189360539,-0.025481489,1,0,0,1.137,optionLeft,70,4785,2,40,0,40,0,1,,,,,,,,,,,,,,,,,,,,,,,,,,,,,,,,,,,,,,,
,,,,,,,,2023-08-16_08h54.15.714,HF_wild_card,2022.2.4,Win32,11.99472232,5a3c0b842f91ec0001dc9bb4,64d2fd46c836a06233681665,64dc7f683620a5cc972da86b,,,,,,,decisionTrl,resources/DP.BMP,resources/DG.BMP,Door4,-0.191856912,-0.017992501,1,0,0,1.106,optionLeft,80,4865,2,41,0,41,0,1,,,,,,,,,,,,,,,,,,,,,,,,,,,,,,,,,,,,,,,
,,,,,,,,2023-08-16_08h54.15.714,HF_wild_card,2022.2.4,Win32,11.99472232,5a3c0b842f91ec0001dc9bb4,64d2fd46c836a06233681665,64dc7f683620a5cc972da86b,,,,,,,decisionTrl,resources/DB.BMP,resources/DP.BMP,Door4,0.193829062,0.015708288,1,0,0,1.029,optionRight,80,4945,2,42,0,42,0,1,,,,,,,,,,,,,,,,,,,,,,,,,,,,,,,,,,,,,,,
,,,,,,,,2023-08-16_08h54.15.714,HF_wild_card,2022.2.4,Win32,11.99472232,5a3c0b842f91ec0001dc9bb4,64d2fd46c836a06233681665,64dc7f683620a5cc972da86b,,,,,,,decisionTrl,resources/DBN.BMP,resources/DR.BMP,Door2,0.241259662,0.034430887,1,0,0,1.216,optionRight,40,4985,2,43,0,43,0,1,,,,,,,,,,,,,,,,,,,,,,,,,,,,,,,,,,,,,,,
,,,,,,,,2023-08-16_08h54.15.714,HF_wild_card,2022.2.4,Win32,11.99472232,5a3c0b842f91ec0001dc9bb4,64d2fd46c836a06233681665,64dc7f683620a5cc972da86b,,,,,,,,,,,,,,,,,,,,,,,,,,1,0,1,0,1,,,,,,,,,,,,,,,,,,,,,,,,,,,,,,,,,,
,,,,,,,,2023-08-16_08h54.15.714,HF_wild_card,2022.2.4,Win32,11.99472232,5a3c0b842f91ec0001dc9bb4,64d2fd46c836a06233681665,64dc7f683620a5cc972da86b,,,,,,,decisionTrl,resources/DR.BMP,resources/DBN.BMP,Door2,-0.274236424,-0.087890238,1,0,0,1.378,optionLeft,20,5005,3,0,0,0,0,1,,,,,,,,,,,,,,,,,,,,,,,,,,,,,,,,,,,,,,,
,,,,,,,,2023-08-16_08h54.15.714,HF_wild_card,2022.2.4,Win32,11.99472232,5a3c0b842f91ec0001dc9bb4,64d2fd46c836a06233681665,64dc7f683620a5cc972da86b,,,,,,,sngl,resources/Empty.png,resources/DBN.BMP,Door1,0.262478633,0.013211916,1,0,0,0.962,optionRight,30,5035,3,1,0,1,0,1,,,,,,,,,,,,,,,,,,,,,,,,,,,,,,,,,,,,,,,
,,,,,,,,2023-08-16_08h54.15.714,HF_wild_card,2022.2.4,Win32,11.99472232,5a3c0b842f91ec0001dc9bb4,64d2fd46c836a06233681665,64dc7f683620a5cc972da86b,,,,,,,decisionTrl,resources/DR.BMP,resources/DBN.BMP,Door2,-0.158156208,-0.020488787,1,0,0,1.281,optionLeft,20,5055,3,2,0,2,0,1,,,,,,,,,,,,,,,,,,,,,,,,,,,,,,,,,,,,,,,
,,,,,,,,2023-08-16_08h54.15.714,HF_wild_card,2022.2.4,Win32,11.99472232,5a3c0b842f91ec0001dc9bb4,64d2fd46c836a06233681665,64dc7f683620a5cc972da86b,,,,,,,sngl,resources/DG.BMP,resources/Empty.png,Door3,-0.17313427,-0.00675889,1,0,0,1.124,optionLeft,70,5125,3,3,0,3,0,1,,,,,,,,,,,,,,,,,,,,,,,,,,,,,,,,,,,,,,,
,,,,,,,,2023-08-16_08h54.15.714,HF_wild_card,2022.2.4,Win32,11.99472232,5a3c0b842f91ec0001dc9bb4,64d2fd46c836a06233681665,64dc7f683620a5cc972da86b,,,,,,,sngl,resources/Empty.png,resources/DB.BMP,WildCard_NonEx,0.161376523,0.00697105,1,0,0,0.953,optionRight,55,5180,3,4,0,4,0,1,,,,,,,,,,,,,,,,,,,,,,,,,,,,,,,,,,,,,,,
,,,,,,,,2023-08-16_08h54.15.714,HF_wild_card,2022.2.4,Win32,11.99472232,5a3c0b842f91ec0001dc9bb4,64d2fd46c836a06233681665,64dc7f683620a5cc972da86b,,,,,,,sngl,resources/Empty.png,resources/DR.BMP,Door2,0.210055288,0.053153486,1,0,0,0.952,optionRight,20,5200,3,5,0,5,0,1,,,,,,,,,,,,,,,,,,,,,,,,,,,,,,,,,,,,,,,
,,,,,,,,2023-08-16_08h54.15.714,HF_wild_card,2022.2.4,Win32,11.99472232,5a3c0b842f91ec0001dc9bb4,64d2fd46c836a06233681665,64dc7f683620a5cc972da86b,,,,,,,decisionTrl,resources/DP.BMP,resources/DG.BMP,Door4,-0.148170805,0.004474721,1,0,0,1.151,optionLeft,60,5260,3,6,0,6,0,1,,,,,,,,,,,,,,,,,,,,,,,,,,,,,,,,,,,,,,,
,,,,,,,,2023-08-16_08h54.15.714,HF_wild_card,2022.2.4,Win32,11.99472232,5a3c0b842f91ec0001dc9bb4,64d2fd46c836a06233681665,64dc7f683620a5cc972da86b,,,,,,,decisionTrl,resources/DBN.BMP,resources/DR.BMP,Door2,0.231274259,-0.008007055,1,0,0,1.091,optionRight,20,5280,3,7,0,7,0,1,,,,,,,,,,,,,,,,,,,,,,,,,,,,,,,,,,,,,,,
,,,,,,,,2023-08-16_08h54.15.714,HF_wild_card,2022.2.4,Win32,11.99472232,5a3c0b842f91ec0001dc9bb4,64d2fd46c836a06233681665,64dc7f683620a5cc972da86b,,,,,,,ctch,resources/DG.BMP,resources/DR.BMP,Door3,-0.214324047,-0.037963222,1,0,0,0.957,optionLeft,70,5350,3,8,0,8,0,1,,,,,,,,,,,,,,,,,,,,,,,,,,,,,,,,,,,,,,,
,,,,,,,,2023-08-16_08h54.15.714,HF_wild_card,2022.2.4,Win32,11.99472232,5a3c0b842f91ec0001dc9bb4,64d2fd46c836a06233681665,64dc7f683620a5cc972da86b,,,,,,,decisionTrl,resources/DB.BMP,resources/DBN.BMP,WildCard_NonEx,-0.200594064,-0.012999757,1,0,0,1.285,optionLeft,45,5395,3,9,0,9,0,1,,,,,,,,,,,,,,,,,,,,,,,,,,,,,,,,,,,,,,,
,,,,,,,,2023-08-16_08h54.15.714,HF_wild_card,2022.2.4,Win32,11.99472232,5a3c0b842f91ec0001dc9bb4,64d2fd46c836a06233681665,64dc7f683620a5cc972da86b,,,,,,,decisionTrl,resources/DR.BMP,resources/DBN.BMP,Door2,0.005354651,0.003226513,1,0,0,2.58,optionLeft,40,5435,3,10,0,10,0,1,,,,,,,,,,,,,,,,,,,,,,,,,,,,,,,,,,,,,,,
,,,,,,,,2023-08-16_08h54.15.714,HF_wild_card,2022.2.4,Win32,11.99472232,5a3c0b842f91ec0001dc9bb4,64d2fd46c836a06233681665,64dc7f683620a5cc972da86b,,,,,,,ctch,resources/DP.BMP,resources/DBN.BMP,Door4,-0.155659836,-0.003014353,1,0,0,1.089,optionLeft,80,5515,3,11,0,11,0,1,,,,,,,,,,,,,,,,,,,,,,,,,,,,,,,,,,,,,,,
,,,,,,,,2023-08-16_08h54.15.714,HF_wild_card,2022.2.4,Win32,11.99472232,5a3c0b842f91ec0001dc9bb4,64d2fd46c836a06233681665,64dc7f683620a5cc972da86b,,,,,,,sngl,resources/Empty.png,resources/DP.BMP,Door4,0.22877793,0.049408992,1,0,0,0.905,optionRight,60,5575,3,12,0,12,0,1,,,,,,,,,,,,,,,,,,,,,,,,,,,,,,,,,,,,,,,
,,,,,,,,2023-08-16_08h54.15.714,HF_wild_card,2022.2.4,Win32,11.99472232,5a3c0b842f91ec0001dc9bb4,64d2fd46c836a06233681665,64dc7f683620a5cc972da86b,,,,,,,decisionTrl,resources/DG.BMP,resources/DP.BMP,Door4,0.186339988,0.023197319,1,0,0,1.16,optionRight,80,5655,3,13,0,13,0,1,,,,,,,,,,,,,,,,,,,,,,,,,,,,,,,,,,,,,,,
,,,,,,,,2023-08-16_08h54.15.714,HF_wild_card,2022.2.4,Win32,11.99472232,5a3c0b842f91ec0001dc9bb4,64d2fd46c836a06233681665,64dc7f683620a5cc972da86b,,,,,,,decisionTrl,resources/DP.BMP,resources/DG.BMP,Door4,-0.213075883,-0.026729654,1,0,0,1.092,optionLeft,60,5715,3,14,0,14,0,1,,,,,,,,,,,,,,,,,,,,,,,,,,,,,,,,,,,,,,,
,,,,,,,,2023-08-16_08h54.15.714,HF_wild_card,2022.2.4,Win32,11.99472232,5a3c0b842f91ec0001dc9bb4,64d2fd46c836a06233681665,64dc7f683620a5cc972da86b,,,,,,,sngl,resources/DP.BMP,resources/Empty.png,Door4,-0.184367795,0.011963751,1,0,0,1.101,optionLeft,80,5795,3,15,0,15,0,1,,,,,,,,,,,,,,,,,,,,,,,,,,,,,,,,,,,,,,,
,,,,,,,,2023-08-16_08h54.15.714,HF_wild_card,2022.2.4,Win32,11.99472232,5a3c0b842f91ec0001dc9bb4,64d2fd46c836a06233681665,64dc7f683620a5cc972da86b,,,,,,,decisionTrl,resources/DBN.BMP,resources/DR.BMP,Door2,0.14515021,0.025693649,1,0,0,2.342,optionRight,20,5815,3,16,0,16,0,1,,,,,,,,,,,,,,,,,,,,,,,,,,,,,,,,,,,,,,,
,,,,,,,,2023-08-16_08h54.15.714,HF_wild_card,2022.2.4,Win32,11.99472232,5a3c0b842f91ec0001dc9bb4,64d2fd46c836a06233681665,64dc7f683620a5cc972da86b,,,,,,,decisionTrl,resources/DBN.BMP,resources/DR.BMP,Door1,-0.204338644,0.016956453,1,0,0,0.975,optionLeft,30,5845,3,17,0,17,0,1,,,,,,,,,,,,,,,,,,,,,,,,,,,,,,,,,,,,,,,
,,,,,,,,2023-08-16_08h54.15.714,HF_wild_card,2022.2.4,Win32,11.99472232,5a3c0b842f91ec0001dc9bb4,64d2fd46c836a06233681665,64dc7f683620a5cc972da86b,,,,,,,ctch,resources/DBN.BMP,resources/DP.BMP,Door4,-0.004630752,0.008219215,1,0,0,0.831,optionRight,60,5905,3,18,0,18,0,1,,,,,,,,,,,,,,,,,,,,,,,,,,,,,,,,,,,,,,,
,,,,,,,,2023-08-16_08h54.15.714,HF_wild_card,2022.2.4,Win32,11.99472232,5a3c0b842f91ec0001dc9bb4,64d2fd46c836a06233681665,64dc7f683620a5cc972da86b,,,,,,,decisionTrl,resources/DG.BMP,resources/DP.BMP,Door3,-0.138185402,0.00697105,1,0,0,2.424,optionLeft,70,5975,3,19,0,19,0,1,,,,,,,,,,,,,,,,,,,,,,,,,,,,,,,,,,,,,,,
,,,,,,,,2023-08-16_08h54.15.714,HF_wild_card,2022.2.4,Win32,11.99472232,5a3c0b842f91ec0001dc9bb4,64d2fd46c836a06233681665,64dc7f683620a5cc972da86b,,,,,,,decisionTrl,resources/DB.BMP,resources/DR.BMP,WildCard_NonEx,-0.208083181,0.001978348,1,0,0,2.125,optionLeft,55,6030,3,20,0,20,0,1,,,,,,,,,,,,,,,,,,,,,,,,,,,,,,,,,,,,,,,
,,,,,,,,2023-08-16_08h54.15.714,HF_wild_card,2022.2.4,Win32,11.99472232,5a3c0b842f91ec0001dc9bb4,64d2fd46c836a06233681665,64dc7f683620a5cc972da86b,,,,,,,sngl,resources/Empty.png,resources/DG.BMP,Door3,0.178850914,0.004474721,1,0,0,1.714,optionRight,70,6100,3,21,0,21,0,1,,,,,,,,,,,,,,,,,,,,,,,,,,,,,,,,,,,,,,,
,,,,,,,,2023-08-16_08h54.15.714,HF_wild_card,2022.2.4,Win32,11.99472232,5a3c0b842f91ec0001dc9bb4,64d2fd46c836a06233681665,64dc7f683620a5cc972da86b,,,,,,,sngl,resources/Empty.png,resources/DB.BMP,WildCard_NonEx,0.205062629,0.050657157,1,0,0,0.89,optionRight,45,6145,3,22,0,22,0,1,,,,,,,,,,,,,,,,,,,,,,,,,,,,,,,,,,,,,,,
,,,,,,,,2023-08-16_08h54.15.714,HF_wild_card,2022.2.4,Win32,11.99472232,5a3c0b842f91ec0001dc9bb4,64d2fd46c836a06233681665,64dc7f683620a5cc972da86b,,,,,,,ctch,resources/DG.BMP,resources/DR.BMP,Door3,-0.1331927,-0.027977818,1,0,0,1.792,optionLeft,70,6215,3,23,0,23,0,1,,,,,,,,,,,,,,,,,,,,,,,,,,,,,,,,,,,,,,,
,,,,,,,,2023-08-16_08h54.15.714,HF_wild_card,2022.2.4,Win32,11.99472232,5a3c0b842f91ec0001dc9bb4,64d2fd46c836a06233681665,64dc7f683620a5cc972da86b,,,,,,,decisionTrl,resources/DR.BMP,resources/DB.BMP,WildCard_NonEx,0.14515021,0.028190021,1,0,0,1.631,optionRight,45,6260,3,24,0,24,0,1,,,,,,,,,,,,,,,,,,,,,,,,,,,,,,,,,,,,,,,
,,,,,,,,2023-08-16_08h54.15.714,HF_wild_card,2022.2.4,Win32,11.99472232,5a3c0b842f91ec0001dc9bb4,64d2fd46c836a06233681665,64dc7f683620a5cc972da86b,,,,,,,decisionTrl,resources/DB.BMP,resources/DG.BMP,Door3,0.141405716,0.005722885,1,0,0,2.106,optionRight,70,6330,3,25,0,25,0,1,,,,,,,,,,,,,,,,,,,,,,,,,,,,,,,,,,,,,,,
,,,,,,,,2023-08-16_08h54.15.714,HF_wild_card,2022.2.4,Win32,11.99472232,5a3c0b842f91ec0001dc9bb4,64d2fd46c836a06233681665,64dc7f683620a5cc972da86b,,,,,,,sngl,resources/DBN.BMP,resources/Empty.png,Door1,-0.213075883,-0.011751549,1,0,0,1.906,optionLeft,30,6360,3,26,0,26,0,1,,,,,,,,,,,,,,,,,,,,,,,,,,,,,,,,,,,,,,,
,,,,,,,,2023-08-16_08h54.15.714,HF_wild_card,2022.2.4,Win32,11.99472232,5a3c0b842f91ec0001dc9bb4,64d2fd46c836a06233681665,64dc7f683620a5cc972da86b,,,,,,,decisionTrl,resources/DP.BMP,resources/DG.BMP,Door4,-0.204338644,0.02070099,1,0,0,1.367,optionLeft,80,6440,3,27,0,27,0,1,,,,,,,,,,,,,,,,,,,,,,,,,,,,,,,,,,,,,,,
,,,,,,,,2023-08-16_08h54.15.714,HF_wild_card,2022.2.4,Win32,11.99472232,5a3c0b842f91ec0001dc9bb4,64d2fd46c836a06233681665,64dc7f683620a5cc972da86b,,,,,,,ctch,resources/DR.BMP,resources/DG.BMP,Door3,0.161376523,0.029438186,1,0,0,1.625,optionRight,70,6510,3,28,0,28,0,1,,,,,,,,,,,,,,,,,,,,,,,,,,,,,,,,,,,,,,,
,,,,,,,,2023-08-16_08h54.15.714,HF_wild_card,2022.2.4,Win32,11.99472232,5a3c0b842f91ec0001dc9bb4,64d2fd46c836a06233681665,64dc7f683620a5cc972da86b,,,,,,,sngl,resources/DR.BMP,resources/Empty.png,Door2,-0.139433566,0.004474721,1,0,0,1.069,optionLeft,40,6550,3,29,0,29,0,1,,,,,,,,,,,,,,,,,,,,,,,,,,,,,,,,,,,,,,,
,,,,,,,,2023-08-16_08h54.15.714,HF_wild_card,2022.2.4,Win32,11.99472232,5a3c0b842f91ec0001dc9bb4,64d2fd46c836a06233681665,64dc7f683620a5cc972da86b,,,,,,,sngl,resources/DB.BMP,resources/Empty.png,WildCard_NonEx,-0.140681731,0.008219215,1,0,0,1.366,optionLeft,55,6605,3,30,0,30,0,1,,,,,,,,,,,,,,,,,,,,,,,,,,,,,,,,,,,,,,,
,,,,,,,,2023-08-16_08h54.15.714,HF_wild_card,2022.2.4,Win32,11.99472232,5a3c0b842f91ec0001dc9bb4,64d2fd46c836a06233681665,64dc7f683620a5cc972da86b,,,,,,,decisionTrl,resources/DBN.BMP,resources/DR.BMP,Door1,-0.1094774,0.005722885,1,0,0,2.226,optionLeft,30,6635,3,31,0,31,0,1,,,,,,,,,,,,,,,,,,,,,,,,,,,,,,,,,,,,,,,
,,,,,,,,2023-08-16_08h54.15.714,HF_wild_card,2022.2.4,Win32,11.99472232,5a3c0b842f91ec0001dc9bb4,64d2fd46c836a06233681665,64dc7f683620a5cc972da86b,,,,,,,decisionTrl,resources/DBN.BMP,resources/DB.BMP,WildCard_NonEx,0.215048033,0.039423589,1,0,0,1.433,optionRight,45,6680,3,32,0,32,0,1,,,,,,,,,,,,,,,,,,,,,,,,,,,,,,,,,,,,,,,
,,,,,,,,2023-08-16_08h54.15.714,HF_wild_card,2022.2.4,Win32,11.99472232,5a3c0b842f91ec0001dc9bb4,64d2fd46c836a06233681665,64dc7f683620a5cc972da86b,,,,,,,sngl,resources/DB.BMP,resources/Empty.png,WildCard_NonEx,-0.191856912,0.00697105,1,0,0,0.888,optionLeft,45,6725,3,33,0,33,0,1,,,,,,,,,,,,,,,,,,,,,,,,,,,,,,,,,,,,,,,
,,,,,,,,2023-08-16_08h54.15.714,HF_wild_card,2022.2.4,Win32,11.99472232,5a3c0b842f91ec0001dc9bb4,64d2fd46c836a06233681665,64dc7f683620a5cc972da86b,,,,,,,decisionTrl,resources/DG.BMP,resources/DB.BMP,Door3,-0.219316749,0.004474721,1,0,0,1.084,optionLeft,70,6795,3,34,0,34,0,1,,,,,,,,,,,,,,,,,,,,,,,,,,,,,,,,,,,,,,,
,,,,,,,,2023-08-16_08h54.15.714,HF_wild_card,2022.2.4,Win32,11.99472232,5a3c0b842f91ec0001dc9bb4,64d2fd46c836a06233681665,64dc7f683620a5cc972da86b,,,,,,,decisionTrl,resources/DP.BMP,resources/DG.BMP,Door4,-0.144426268,0.00697105,1,0,0,2.274,optionLeft,80,6875,3,35,0,35,0,1,,,,,,,,,,,,,,,,,,,,,,,,,,,,,,,,,,,,,,,
,,,,,,,,2023-08-16_08h54.15.714,HF_wild_card,2022.2.4,Win32,11.99472232,5a3c0b842f91ec0001dc9bb4,64d2fd46c836a06233681665,64dc7f683620a5cc972da86b,,,,,,,decisionTrl,resources/DB.BMP,resources/DP.BMP,Door4,0.210055288,0.00697105,1,0,0,3.213,optionRight,80,6955,3,36,0,36,0,1,,,,,,,,,,,,,,,,,,,,,,,,,,,,,,,,,,,,,,,
,,,,,,,,2023-08-16_08h54.15.714,HF_wild_card,2022.2.4,Win32,11.99472232,5a3c0b842f91ec0001dc9bb4,64d2fd46c836a06233681665,64dc7f683620a5cc972da86b,,,,,,,decisionTrl,resources/DP.BMP,resources/DB.BMP,Door4,-0.156908,-0.031722355,1,0,0,1.467,optionLeft,60,7015,3,37,0,37,0,1,,,,,,,,,,,,,,,,,,,,,,,,,,,,,,,,,,,,,,,
,,,,,,,,2023-08-16_08h54.15.714,HF_wild_card,2022.2.4,Win32,11.99472232,5a3c0b842f91ec0001dc9bb4,64d2fd46c836a06233681665,64dc7f683620a5cc972da86b,,,,,,,decisionTrl,resources/DR.BMP,resources/DBN.BMP,Door1,0.01409189,-0.003014353,1,0,0,1.844,optionRight,30,7045,3,38,0,38,0,1,,,,,,,,,,,,,,,,,,,,,,,,,,,,,,,,,,,,,,,
,,,,,,,,2023-08-16_08h54.15.714,HF_wild_card,2022.2.4,Win32,11.99472232,5a3c0b842f91ec0001dc9bb4,64d2fd46c836a06233681665,64dc7f683620a5cc972da86b,,,,,,,decisionTrl,resources/DG.BMP,resources/DP.BMP,Door3,-0.149418969,-0.004262518,1,0,0,2.695,optionLeft,70,7115,3,39,0,39,0,1,,,,,,,,,,,,,,,,,,,,,,,,,,,,,,,,,,,,,,,
,,,,,,,,2023-08-16_08h54.15.714,HF_wild_card,2022.2.4,Win32,11.99472232,5a3c0b842f91ec0001dc9bb4,64d2fd46c836a06233681665,64dc7f683620a5cc972da86b,,,,,,,decisionTrl,resources/DG.BMP,resources/DP.BMP,Door3,-0.118214595,0.004474721,1,0,0,1.214,optionLeft,70,7185,3,40,0,40,0,1,,,,,,,,,,,,,,,,,,,,,,,,,,,,,,,,,,,,,,,
,,,,,,,,2023-08-16_08h54.15.714,HF_wild_card,2022.2.4,Win32,11.99472232,5a3c0b842f91ec0001dc9bb4,64d2fd46c836a06233681665,64dc7f683620a5cc972da86b,,,,,,,ctch,resources/DP.BMP,resources/DBN.BMP,Door4,-0.165645239,-0.005510683,1,0,0,1.459,optionLeft,80,7265,3,41,0,41,0,1,,,,,,,,,,,,,,,,,,,,,,,,,,,,,,,,,,,,,,,
,,,,,,,,2023-08-16_08h54.15.714,HF_wild_card,2022.2.4,Win32,11.99472232,5a3c0b842f91ec0001dc9bb4,64d2fd46c836a06233681665,64dc7f683620a5cc972da86b,,,,,,,ctch,resources/DR.BMP,resources/DG.BMP,Door3,0.158880107,0.010715587,1,0,0,2.314,optionRight,70,7335,3,42,0,42,0,1,,,,,,,,,,,,,,,,,,,,,,,,,,,,,,,,,,,,,,,
,,,,,,,,2023-08-16_08h54.15.714,HF_wild_card,2022.2.4,Win32,11.99472232,5a3c0b842f91ec0001dc9bb4,64d2fd46c836a06233681665,64dc7f683620a5cc972da86b,,,,,,,ctch,resources/DBN.BMP,resources/DP.BMP,Door4,0.218792527,0.065635261,1,0,0,1.275,optionRight,80,7415,3,43,0,43,0,1,,,,,,,,,,,,,,,,,,,,,,,,,,,,,,,,,,,,,,,
,,,,,,,,2023-08-16_08h54.15.714,HF_wild_card,2022.2.4,Win32,11.99472232,5a3c0b842f91ec0001dc9bb4,64d2fd46c836a06233681665,64dc7f683620a5cc972da86b,,,,,,,,,,,,,,,,,,,,,,,,,,2,0,2,0,1,,,,,,,,,,,,,,,,,,,,,,,,,,,,,,,,,,
,,,,,,,,2023-08-16_08h54.15.714,HF_wild_card,2022.2.4,Win32,11.99472232,5a3c0b842f91ec0001dc9bb4,64d2fd46c836a06233681665,64dc7f683620a5cc972da86b,,,,,,,sngl,resources/DBN.BMP,resources/Empty.png,Door1,-0.216820334,-0.142809912,1,0,0,1.658,optionLeft,30,7445,4,0,0,0,0,1,,,,,,,,,,,,,,,,,,,,,,,,,,,,,,,,,,,,,,,
,,,,,,,,2023-08-16_08h54.15.714,HF_wild_card,2022.2.4,Win32,11.99472232,5a3c0b842f91ec0001dc9bb4,64d2fd46c836a06233681665,64dc7f683620a5cc972da86b,,,,,,,sngl,resources/Empty.png,resources/DY.BMP,WildCard_Ex,0.201318049,-0.000517981,1,0,0,1.236,optionRight,95,7540,4,1,0,1,0,1,,,,,,,,,,,,,,,,,,,,,,,,,,,,,,,,,,,,,,,
,,,,,,,,2023-08-16_08h54.15.714,HF_wild_card,2022.2.4,Win32,11.99472232,5a3c0b842f91ec0001dc9bb4,64d2fd46c836a06233681665,64dc7f683620a5cc972da86b,,,,,,,decisionTrl,resources/DG.BMP,resources/DP.BMP,Door3,-0.129448163,0.014460038,1,0,0,2.443,optionLeft,70,7610,4,2,0,2,0,1,,,,,,,,,,,,,,,,,,,,,,,,,,,,,,,,,,,,,,,
,,,,,,,,2023-08-16_08h54.15.714,HF_wild_card,2022.2.4,Win32,11.99472232,5a3c0b842f91ec0001dc9bb4,64d2fd46c836a06233681665,64dc7f683620a5cc972da86b,,,,,,,decisionTrl,resources/DY.BMP,resources/DG.BMP,WildCard_Ex,-0.221813078,0.003226513,1,0,0,0.969,optionLeft,5,7615,4,3,0,3,0,1,,,,,,,,,,,,,,,,,,,,,,,,,,,,,,,,,,,,,,,
,,,,,,,,2023-08-16_08h54.15.714,HF_wild_card,2022.2.4,Win32,11.99472232,5a3c0b842f91ec0001dc9bb4,64d2fd46c836a06233681665,64dc7f683620a5cc972da86b,,,,,,,decisionTrl,resources/DP.BMP,resources/DG.BMP,Door3,0.248748736,0.061890725,1,0,0,1.789,optionRight,70,7685,4,4,0,4,0,1,,,,,,,,,,,,,,,,,,,,,,,,,,,,,,,,,,,,,,,
,,,,,,,,2023-08-16_08h54.15.714,HF_wild_card,2022.2.4,Win32,11.99472232,5a3c0b842f91ec0001dc9bb4,64d2fd46c836a06233681665,64dc7f683620a5cc972da86b,,,,,,,ctch,resources/DBN.BMP,resources/DP.BMP,Door4,0.220040691,0.040671753,1,0,0,1.167,optionRight,80,7765,4,5,0,5,0,1,,,,,,,,,,,,,,,,,,,,,,,,,,,,,,,,,,,,,,,
,,,,,,,,2023-08-16_08h54.15.714,HF_wild_card,2022.2.4,Win32,11.99472232,5a3c0b842f91ec0001dc9bb4,64d2fd46c836a06233681665,64dc7f683620a5cc972da86b,,,,,,,decisionTrl,resources/DR.BMP,resources/DBN.BMP,Door1,0.009099231,-0.003014353,1,0,0,1.399,optionRight,30,7795,4,6,0,6,0,1,,,,,,,,,,,,,,,,,,,,,,,,,,,,,,,,,,,,,,,
,,,,,,,,2023-08-16_08h54.15.714,HF_wild_card,2022.2.4,Win32,11.99472232,5a3c0b842f91ec0001dc9bb4,64d2fd46c836a06233681665,64dc7f683620a5cc972da86b,,,,,,,decisionTrl,resources/DR.BMP,resources/DY.BMP,WildCard_Ex,0.28244944,0.065635261,1,0,0,1.082,optionRight,5,7800,4,7,0,7,0,1,,,,,,,,,,,,,,,,,,,,,,,,,,,,,,,,,,,,,,,
,,,,,,,,2023-08-16_08h54.15.714,HF_wild_card,2022.2.4,Win32,11.99472232,5a3c0b842f91ec0001dc9bb4,64d2fd46c836a06233681665,64dc7f683620a5cc972da86b,,,,,,,sngl,resources/DG.BMP,resources/Empty.png,Door3,-0.245528422,-0.004262518,1,0,0,0.95,optionLeft,70,7870,4,8,0,8,0,1,,,,,,,,,,,,,,,,,,,,,,,,,,,,,,,,,,,,,,,
,,,,,,,,2023-08-16_08h54.15.714,HF_wild_card,2022.2.4,Win32,11.99472232,5a3c0b842f91ec0001dc9bb4,64d2fd46c836a06233681665,64dc7f683620a5cc972da86b,,,,,,,decisionTrl,resources/DR.BMP,resources/DBN.BMP,Door2,-0.194353241,0.001978348,1,0,0,1.576,optionLeft,20,7890,4,9,0,9,0,1,,,,,,,,,,,,,,,,,,,,,,,,,,,,,,,,,,,,,,,
,,,,,,,,2023-08-16_08h54.15.714,HF_wild_card,2022.2.4,Win32,11.99472232,5a3c0b842f91ec0001dc9bb4,64d2fd46c836a06233681665,64dc7f683620a5cc972da86b,,,,,,,sngl,resources/Empty.png,resources/DY.BMP,WildCard_Ex,0.156383778,0.025693649,1,0,0,0.849,optionRight,5,7895,4,10,0,10,0,1,,,,,,,,,,,,,,,,,,,,,,,,,,,,,,,,,,,,,,,
,,,,,,,,2023-08-16_08h54.15.714,HF_wild_card,2022.2.4,Win32,11.99472232,5a3c0b842f91ec0001dc9bb4,64d2fd46c836a06233681665,64dc7f683620a5cc972da86b,,,,,,,ctch,resources/DR.BMP,resources/DG.BMP,Door3,0.135164807,0.016956453,1,0,0,1.234,optionRight,70,7965,4,11,0,11,0,1,,,,,,,,,,,,,,,,,,,,,,,,,,,,,,,,,,,,,,,
,,,,,,,,2023-08-16_08h54.15.714,HF_wild_card,2022.2.4,Win32,11.99472232,5a3c0b842f91ec0001dc9bb4,64d2fd46c836a06233681665,64dc7f683620a5cc972da86b,,,,,,,decisionTrl,resources/DY.BMP,resources/DR.BMP,Door2,0.163872852,0.040671753,1,0,0,2.297,optionRight,40,8005,4,12,0,12,0,1,,,,,,,,,,,,,,,,,,,,,,,,,,,,,,,,,,,,,,,
,,,,,,,,2023-08-16_08h54.15.714,HF_wild_card,2022.2.4,Win32,11.99472232,5a3c0b842f91ec0001dc9bb4,64d2fd46c836a06233681665,64dc7f683620a5cc972da86b,,,,,,,decisionTrl,resources/DBN.BMP,resources/DR.BMP,Door1,-0.129448163,0.024445484,1,0,0,2.368,optionLeft,30,8035,4,13,0,13,0,1,,,,,,,,,,,,,,,,,,,,,,,,,,,,,,,,,,,,,,,
,,,,,,,,2023-08-16_08h54.15.714,HF_wild_card,2022.2.4,Win32,11.99472232,5a3c0b842f91ec0001dc9bb4,64d2fd46c836a06233681665,64dc7f683620a5cc972da86b,,,,,,,decisionTrl,resources/DBN.BMP,resources/DR.BMP,Door1,-0.196849613,-0.00675889,1,0,0,2.351,optionLeft,30,8065,4,14,0,14,0,1,,,,,,,,,,,,,,,,,,,,,,,,,,,,,,,,,,,,,,,
,,,,,,,,2023-08-16_08h54.15.714,HF_wild_card,2022.2.4,Win32,11.99472232,5a3c0b842f91ec0001dc9bb4,64d2fd46c836a06233681665,64dc7f683620a5cc972da86b,,,,,,,decisionTrl,resources/DP.BMP,resources/DG.BMP,Door3,0.200069885,0.048160827,1,0,0,2.033,optionRight,70,8135,4,15,0,15,0,1,,,,,,,,,,,,,,,,,,,,,,,,,,,,,,,,,,,,,,,
,,,,,,,,2023-08-16_08h54.15.714,HF_wild_card,2022.2.4,Win32,11.99472232,5a3c0b842f91ec0001dc9bb4,64d2fd46c836a06233681665,64dc7f683620a5cc972da86b,,,,,,,ctch,resources/DR.BMP,resources/DG.BMP,Door3,0.161376523,0.04691262,1,0,0,1.482,optionRight,70,8205,4,16,0,16,0,1,,,,,,,,,,,,,,,,,,,,,,,,,,,,,,,,,,,,,,,
,,,,,,,,2023-08-16_08h54.15.714,HF_wild_card,2022.2.4,Win32,11.99472232,5a3c0b842f91ec0001dc9bb4,64d2fd46c836a06233681665,64dc7f683620a5cc972da86b,,,,,,,decisionTrl,resources/DP.BMP,resources/DY.BMP,WildCard_Ex,0.180099078,-0.000517981,1,0,0,1.615,optionRight,95,8300,4,17,0,17,0,1,,,,,,,,,,,,,,,,,,,,,,,,,,,,,,,,,,,,,,,
,,,,,,,,2023-08-16_08h54.15.714,HF_wild_card,2022.2.4,Win32,11.99472232,5a3c0b842f91ec0001dc9bb4,64d2fd46c836a06233681665,64dc7f683620a5cc972da86b,,,,,,,decisionTrl,resources/DY.BMP,resources/DP.BMP,WildCard_Ex,-0.17063794,-0.014247921,1,0,0,1.521,optionLeft,95,8395,4,18,0,18,0,1,,,,,,,,,,,,,,,,,,,,,,,,,,,,,,,,,,,,,,,
,,,,,,,,2023-08-16_08h54.15.714,HF_wild_card,2022.2.4,Win32,11.99472232,5a3c0b842f91ec0001dc9bb4,64d2fd46c836a06233681665,64dc7f683620a5cc972da86b,,,,,,,decisionTrl,resources/DG.BMP,resources/DY.BMP,WildCard_Ex,0.17510642,0.033182723,1,0,0,1.29,optionRight,5,8400,4,19,0,19,0,1,,,,,,,,,,,,,,,,,,,,,,,,,,,,,,,,,,,,,,,
,,,,,,,,2023-08-16_08h54.15.714,HF_wild_card,2022.2.4,Win32,11.99472232,5a3c0b842f91ec0001dc9bb4,64d2fd46c836a06233681665,64dc7f683620a5cc972da86b,,,,,,,sngl,resources/Empty.png,resources/DR.BMP,Door2,0.180099078,0.064387097,1,0,0,1.013,optionRight,40,8440,4,20,0,20,0,1,,,,,,,,,,,,,,,,,,,,,,,,,,,,,,,,,,,,,,,
,,,,,,,,2023-08-16_08h54.15.714,HF_wild_card,2022.2.4,Win32,11.99472232,5a3c0b842f91ec0001dc9bb4,64d2fd46c836a06233681665,64dc7f683620a5cc972da86b,,,,,,,decisionTrl,resources/DBN.BMP,resources/DR.BMP,Door2,0.180099078,0.033182723,1,0,0,1.164,optionRight,40,8480,4,21,0,21,0,1,,,,,,,,,,,,,,,,,,,,,,,,,,,,,,,,,,,,,,,
,,,,,,,,2023-08-16_08h54.15.714,HF_wild_card,2022.2.4,Win32,11.99472232,5a3c0b842f91ec0001dc9bb4,64d2fd46c836a06233681665,64dc7f683620a5cc972da86b,,,,,,,sngl,resources/Empty.png,resources/DBN.BMP,Door1,0.266223127,0.024445484,1,0,0,0.901,optionRight,30,8510,4,22,0,22,0,1,,,,,,,,,,,,,,,,,,,,,,,,,,,,,,,,,,,,,,,
,,,,,,,,2023-08-16_08h54.15.714,HF_wild_card,2022.2.4,Win32,11.99472232,5a3c0b842f91ec0001dc9bb4,64d2fd46c836a06233681665,64dc7f683620a5cc972da86b,,,,,,,decisionTrl,resources/DG.BMP,resources/DP.BMP,Door3,-0.151915299,-0.015496086,1,0,0,1.414,optionLeft,70,8580,4,23,0,23,0,1,,,,,,,,,,,,,,,,,,,,,,,,,,,,,,,,,,,,,,,
,,,,,,,,2023-08-16_08h54.15.714,HF_wild_card,2022.2.4,Win32,11.99472232,5a3c0b842f91ec0001dc9bb4,64d2fd46c836a06233681665,64dc7f683620a5cc972da86b,,,,,,,decisionTrl,resources/DBN.BMP,resources/DR.BMP,Door1,0.029070038,-0.000517981,1,0,0,2.166,optionLeft,30,8610,4,24,0,24,0,1,,,,,,,,,,,,,,,,,,,,,,,,,,,,,,,,,,,,,,,
,,,,,,,,2023-08-16_08h54.15.714,HF_wild_card,2022.2.4,Win32,11.99472232,5a3c0b842f91ec0001dc9bb4,64d2fd46c836a06233681665,64dc7f683620a5cc972da86b,,,,,,,sngl,resources/Empty.png,resources/DG.BMP,Door3,0.156383778,0.034430887,1,0,0,0.971,optionRight,70,8680,4,25,0,25,0,1,,,,,,,,,,,,,,,,,,,,,,,,,,,,,,,,,,,,,,,
,,,,,,,,2023-08-16_08h54.15.714,HF_wild_card,2022.2.4,Win32,11.99472232,5a3c0b842f91ec0001dc9bb4,64d2fd46c836a06233681665,64dc7f683620a5cc972da86b,,,,,,,decisionTrl,resources/DBN.BMP,resources/DY.BMP,WildCard_Ex,0.216296197,0.080613366,1,0,0,1.305,optionRight,5,8685,4,26,0,26,0,1,,,,,,,,,,,,,,,,,,,,,,,,,,,,,,,,,,,,,,,
,,,,,,,,2023-08-16_08h54.15.714,HF_wild_card,2022.2.4,Win32,11.99472232,5a3c0b842f91ec0001dc9bb4,64d2fd46c836a06233681665,64dc7f683620a5cc972da86b,,,,,,,decisionTrl,resources/DG.BMP,resources/DP.BMP,Door4,0.200069885,0.03068635,1,0,0,1.432,optionRight,60,8745,4,27,0,27,0,1,,,,,,,,,,,,,,,,,,,,,,,,,,,,,,,,,,,,,,,
,,,,,,,,2023-08-16_08h54.15.714,HF_wild_card,2022.2.4,Win32,11.99472232,5a3c0b842f91ec0001dc9bb4,64d2fd46c836a06233681665,64dc7f683620a5cc972da86b,,,,,,,decisionTrl,resources/DR.BMP,resources/DBN.BMP,Door1,0.183843658,0.023197319,1,0,0,2.367,optionRight,30,8775,4,28,0,28,0,1,,,,,,,,,,,,,,,,,,,,,,,,,,,,,,,,,,,,,,,
,,,,,,,,2023-08-16_08h54.15.714,HF_wild_card,2022.2.4,Win32,11.99472232,5a3c0b842f91ec0001dc9bb4,64d2fd46c836a06233681665,64dc7f683620a5cc972da86b,,,,,,,sngl,resources/DY.BMP,resources/Empty.png,WildCard_Ex,-0.18686421,-0.034218771,1,0,0,1.144,optionLeft,5,8780,4,29,0,29,0,1,,,,,,,,,,,,,,,,,,,,,,,,,,,,,,,,,,,,,,,
,,,,,,,,2023-08-16_08h54.15.714,HF_wild_card,2022.2.4,Win32,11.99472232,5a3c0b842f91ec0001dc9bb4,64d2fd46c836a06233681665,64dc7f683620a5cc972da86b,,,,,,,decisionTrl,resources/DG.BMP,resources/DP.BMP,Door4,0.205062629,0.034430887,1,0,0,1.128,optionRight,60,8840,4,30,0,30,0,1,,,,,,,,,,,,,,,,,,,,,,,,,,,,,,,,,,,,,,,
,,,,,,,,2023-08-16_08h54.15.714,HF_wild_card,2022.2.4,Win32,11.99472232,5a3c0b842f91ec0001dc9bb4,64d2fd46c836a06233681665,64dc7f683620a5cc972da86b,,,,,,,decisionTrl,resources/DY.BMP,resources/DBN.BMP,WildCard_Ex,-0.221813078,-0.06667131,1,0,0,2.161,optionLeft,95,8935,4,31,0,31,0,1,,,,,,,,,,,,,,,,,,,,,,,,,,,,,,,,,,,,,,,
,,,,,,,,2023-08-16_08h54.15.714,HF_wild_card,2022.2.4,Win32,11.99472232,5a3c0b842f91ec0001dc9bb4,64d2fd46c836a06233681665,64dc7f683620a5cc972da86b,,,,,,,ctch,resources/DP.BMP,resources/DBN.BMP,Door4,-0.178126971,-0.001766232,1,0,0,1.449,optionLeft,80,9015,4,32,0,32,0,1,,,,,,,,,,,,,,,,,,,,,,,,,,,,,,,,,,,,,,,
,,,,,,,,2023-08-16_08h54.15.714,HF_wild_card,2022.2.4,Win32,11.99472232,5a3c0b842f91ec0001dc9bb4,64d2fd46c836a06233681665,64dc7f683620a5cc972da86b,,,,,,,decisionTrl,resources/DR.BMP,resources/DBN.BMP,Door2,-0.249272872,-0.075408462,1,0,0,1.833,optionLeft,20,9035,4,33,0,33,0,1,,,,,,,,,,,,,,,,,,,,,,,,,,,,,,,,,,,,,,,
,,,,,,,,2023-08-16_08h54.15.714,HF_wild_card,2022.2.4,Win32,11.99472232,5a3c0b842f91ec0001dc9bb4,64d2fd46c836a06233681665,64dc7f683620a5cc972da86b,,,,,,,sngl,resources/Empty.png,resources/DP.BMP,Door4,0.173858255,0.014460038,1,0,0,0.934,optionRight,80,9115,4,34,0,34,0,1,,,,,,,,,,,,,,,,,,,,,,,,,,,,,,,,,,,,,,,
,,,,,,,,2023-08-16_08h54.15.714,HF_wild_card,2022.2.4,Win32,11.99472232,5a3c0b842f91ec0001dc9bb4,64d2fd46c836a06233681665,64dc7f683620a5cc972da86b,,,,,,,ctch,resources/DG.BMP,resources/DR.BMP,Door3,-0.153163506,-0.010503384,1,0,0,1.6,optionLeft,70,9185,4,35,0,35,0,1,,,,,,,,,,,,,,,,,,,,,,,,,,,,,,,,,,,,,,,
,,,,,,,,2023-08-16_08h54.15.714,HF_wild_card,2022.2.4,Win32,11.99472232,5a3c0b842f91ec0001dc9bb4,64d2fd46c836a06233681665,64dc7f683620a5cc972da86b,,,,,,,ctch,resources/DP.BMP,resources/DBN.BMP,Door4,-0.176878807,0.02070099,1,0,0,1.156,optionLeft,80,9265,4,36,0,36,0,1,,,,,,,,,,,,,,,,,,,,,,,,,,,,,,,,,,,,,,,
,,,,,,,,2023-08-16_08h54.15.714,HF_wild_card,2022.2.4,Win32,11.99472232,5a3c0b842f91ec0001dc9bb4,64d2fd46c836a06233681665,64dc7f683620a5cc972da86b,,,,,,,sngl,resources/DP.BMP,resources/Empty.png,Door4,-0.218068584,0.010715587,1,0,0,0.802,optionLeft,60,9325,4,37,0,37,0,1,,,,,,,,,,,,,,,,,,,,,,,,,,,,,,,,,,,,,,,
,,,,,,,,2023-08-16_08h54.15.714,HF_wild_card,2022.2.4,Win32,11.99472232,5a3c0b842f91ec0001dc9bb4,64d2fd46c836a06233681665,64dc7f683620a5cc972da86b,,,,,,,sngl,resources/DR.BMP,resources/Empty.png,Door2,-0.216820334,-0.024233324,1,0,0,0.825,optionLeft,20,9345,4,38,0,38,0,1,,,,,,,,,,,,,,,,,,,,,,,,,,,,,,,,,,,,,,,
,,,,,,,,2023-08-16_08h54.15.714,HF_wild_card,2022.2.4,Win32,11.99472232,5a3c0b842f91ec0001dc9bb4,64d2fd46c836a06233681665,64dc7f683620a5cc972da86b,,,,,,,decisionTrl,resources/DP.BMP,resources/DG.BMP,Door3,0.166369181,0.015708288,1,0,0,2.032,optionRight,70,9415,4,39,0,39,0,1,,,,,,,,,,,,,,,,,,,,,,,,,,,,,,,,,,,,,,,
,,,,,,,,2023-08-16_08h54.15.714,HF_wild_card,2022.2.4,Win32,11.99472232,5a3c0b842f91ec0001dc9bb4,64d2fd46c836a06233681665,64dc7f683620a5cc972da86b,,,,,,,ctch,resources/DBN.BMP,resources/DP.BMP,Door4,0.266223127,0.071876128,1,0,0,1.467,optionRight,80,9495,4,40,0,40,0,1,,,,,,,,,,,,,,,,,,,,,,,,,,,,,,,,,,,,,,,
,,,,,,,,2023-08-16_08h54.15.714,HF_wild_card,2022.2.4,Win32,11.99472232,5a3c0b842f91ec0001dc9bb4,64d2fd46c836a06233681665,64dc7f683620a5cc972da86b,,,,,,,ctch,resources/DG.BMP,resources/DR.BMP,Door3,-0.136937237,-0.01674425,1,0,0,1.279,optionLeft,70,9565,4,41,0,41,0,1,,,,,,,,,,,,,,,,,,,,,,,,,,,,,,,,,,,,,,,
,,,,,,,,2023-08-16_08h54.15.714,HF_wild_card,2022.2.4,Win32,11.99472232,5a3c0b842f91ec0001dc9bb4,64d2fd46c836a06233681665,64dc7f683620a5cc972da86b,,,,,,,decisionTrl,resources/DP.BMP,resources/DG.BMP,Door3,0.176354584,0.018204618,1,0,0,1.538,optionRight,70,9635,4,42,0,42,0,1,,,,,,,,,,,,,,,,,,,,,,,,,,,,,,,,,,,,,,,
,,,,,,,,2023-08-16_08h54.15.714,HF_wild_card,2022.2.4,Win32,11.99472232,5a3c0b842f91ec0001dc9bb4,64d2fd46c836a06233681665,64dc7f683620a5cc972da86b,,,,,,,sngl,resources/DY.BMP,resources/Empty.png,WildCard_Ex,-0.151915299,0.014460038,1,0,0,1.022,optionLeft,95,9730,4,43,0,43,0,1,,,,,,,,,,,,,,,,,,,,,,,,,,,,,,,,,,,,,,,
,,,,,,,,2023-08-16_08h54.15.714,HF_wild_card,2022.2.4,Win32,11.99472232,5a3c0b842f91ec0001dc9bb4,64d2fd46c836a06233681665,64dc7f683620a5cc972da86b,,,,,,,,,,,,,,,,,,,,,,,,,,3,0,3,0,1,,,,,,,,,,,,,,,,,,,,,,,,,,,,,,,,,,
,,,,,,,,2023-08-16_08h54.15.714,HF_wild_card,2022.2.4,Win32,11.99472232,5a3c0b842f91ec0001dc9bb4,64d2fd46c836a06233681665,64dc7f683620a5cc972da86b,,,,,,,decisionTrl,resources/DR.BMP,resources/DY.BMP,WildCard_Ex,0.284945769,-0.089138402,1,0,0,1.851,optionRight,95,9825,5,0,0,0,0,1,,,,,,,,,,,,,,,,,,,,,,,,,,,,,,,,,,,,,,,
,,,,,,,,2023-08-16_08h54.15.714,HF_wild_card,2022.2.4,Win32,11.99472232,5a3c0b842f91ec0001dc9bb4,64d2fd46c836a06233681665,64dc7f683620a5cc972da86b,,,,,,,ctch,resources/DR.BMP,resources/DG.BMP,Door3,0.001610157,-0.015496086,1,0,0,0.573,optionRight,70,9895,5,1,0,1,0,1,,,,,,,,,,,,,,,,,,,,,,,,,,,,,,,,,,,,,,,
,,,,,,,,2023-08-16_08h54.15.714,HF_wild_card,2022.2.4,Win32,11.99472232,5a3c0b842f91ec0001dc9bb4,64d2fd46c836a06233681665,64dc7f683620a5cc972da86b,,,,,,,sngl,resources/DY.BMP,resources/Empty.png,WildCard_Ex,-0.198097778,-0.03297052,1,0,0,0.955,optionLeft,95,9990,5,2,0,2,0,1,,,,,,,,,,,,,,,,,,,,,,,,,,,,,,,,,,,,,,,
,,,,,,,,2023-08-16_08h54.15.714,HF_wild_card,2022.2.4,Win32,11.99472232,5a3c0b842f91ec0001dc9bb4,64d2fd46c836a06233681665,64dc7f683620a5cc972da86b,,,,,,,decisionTrl,resources/DY.BMP,resources/DR.BMP,WildCard_Ex,-0.168141525,-0.00675889,1,0,0,2.416,optionLeft,5,9995,5,3,0,3,0,1,,,,,,,,,,,,,,,,,,,,,,,,,,,,,,,,,,,,,,,
,,,,,,,,2023-08-16_08h54.15.714,HF_wild_card,2022.2.4,Win32,11.99472232,5a3c0b842f91ec0001dc9bb4,64d2fd46c836a06233681665,64dc7f683620a5cc972da86b,,,,,,,sngl,resources/DR.BMP,resources/Empty.png,Door2,-0.176878807,-0.025481489,1,0,0,1,optionLeft,40,10035,5,4,0,4,0,1,,,,,,,,,,,,,,,,,,,,,,,,,,,,,,,,,,,,,,,
,,,,,,,,2023-08-16_08h54.15.714,HF_wild_card,2022.2.4,Win32,11.99472232,5a3c0b842f91ec0001dc9bb4,64d2fd46c836a06233681665,64dc7f683620a5cc972da86b,,,,,,,decisionTrl,resources/DBN.BMP,resources/DR.BMP,Door2,0.163872852,0.048160827,1,0,0,1.274,optionRight,40,10075,5,5,0,5,0,1,,,,,,,,,,,,,,,,,,,,,,,,,,,,,,,,,,,,,,,
,,,,,,,,2023-08-16_08h54.15.714,HF_wild_card,2022.2.4,Win32,11.99472232,5a3c0b842f91ec0001dc9bb4,64d2fd46c836a06233681665,64dc7f683620a5cc972da86b,,,,,,,sngl,resources/Empty.png,resources/DY.BMP,WildCard_Ex,0.190084482,0.034430887,1,0,0,0.943,optionRight,95,10170,5,6,0,6,0,1,,,,,,,,,,,,,,,,,,,,,,,,,,,,,,,,,,,,,,,
,,,,,,,,2023-08-16_08h54.15.714,HF_wild_card,2022.2.4,Win32,11.99472232,5a3c0b842f91ec0001dc9bb4,64d2fd46c836a06233681665,64dc7f683620a5cc972da86b,,,,,,,sngl,resources/Empty.png,resources/DR.BMP,Door2,0.213799868,0.038175424,1,0,0,0.909,optionRight,20,10190,5,7,0,7,0,1,,,,,,,,,,,,,,,,,,,,,,,,,,,,,,,,,,,,,,,
,,,,,,,,2023-08-16_08h54.15.714,HF_wild_card,2022.2.4,Win32,11.99472232,5a3c0b842f91ec0001dc9bb4,64d2fd46c836a06233681665,64dc7f683620a5cc972da86b,,,,,,,decisionTrl,resources/DBN.BMP,resources/DR.BMP,Door1,-0.11946276,-0.012999757,1,0,0,2.05,optionLeft,30,10220,5,8,0,8,0,1,,,,,,,,,,,,,,,,,,,,,,,,,,,,,,,,,,,,,,,
,,,,,,,,2023-08-16_08h54.15.714,HF_wild_card,2022.2.4,Win32,11.99472232,5a3c0b842f91ec0001dc9bb4,64d2fd46c836a06233681665,64dc7f683620a5cc972da86b,,,,,,,sngl,resources/DP.BMP,resources/Empty.png,Door4,-0.195601405,-0.059182193,1,0,0,0.893,optionLeft,80,10300,5,9,0,9,0,1,,,,,,,,,,,,,,,,,,,,,,,,,,,,,,,,,,,,,,,
,,,,,,,,2023-08-16_08h54.15.714,HF_wild_card,2022.2.4,Win32,11.99472232,5a3c0b842f91ec0001dc9bb4,64d2fd46c836a06233681665,64dc7f683620a5cc972da86b,,,,,,,decisionTrl,resources/DG.BMP,resources/DP.BMP,Door4,0.17510642,0.021949155,1,0,0,0.846,optionRight,80,10380,5,10,0,10,0,1,,,,,,,,,,,,,,,,,,,,,,,,,,,,,,,,,,,,,,,
,,,,,,,,2023-08-16_08h54.15.714,HF_wild_card,2022.2.4,Win32,11.99472232,5a3c0b842f91ec0001dc9bb4,64d2fd46c836a06233681665,64dc7f683620a5cc972da86b,,,,,,,decisionTrl,resources/DBN.BMP,resources/DR.BMP,Door2,0.208807123,0.024445484,1,0,0,1.656,optionRight,40,10420,5,11,0,11,0,1,,,,,,,,,,,,,,,,,,,,,,,,,,,,,,,,,,,,,,,
,,,,,,,,2023-08-16_08h54.15.714,HF_wild_card,2022.2.4,Win32,11.99472232,5a3c0b842f91ec0001dc9bb4,64d2fd46c836a06233681665,64dc7f683620a5cc972da86b,,,,,,,decisionTrl,resources/DG.BMP,resources/DP.BMP,Door3,-0.1331927,0.033182723,1,0,0,1.8,optionLeft,70,10490,5,12,0,12,0,1,,,,,,,,,,,,,,,,,,,,,,,,,,,,,,,,,,,,,,,
,,,,,,,,2023-08-16_08h54.15.714,HF_wild_card,2022.2.4,Win32,11.99472232,5a3c0b842f91ec0001dc9bb4,64d2fd46c836a06233681665,64dc7f683620a5cc972da86b,,,,,,,decisionTrl,resources/DP.BMP,resources/DG.BMP,Door4,-0.171886105,-0.015496086,1,0,0,0.959,optionLeft,80,10570,5,13,0,13,0,1,,,,,,,,,,,,,,,,,,,,,,,,,,,,,,,,,,,,,,,
,,,,,,,,2023-08-16_08h54.15.714,HF_wild_card,2022.2.4,Win32,11.99472232,5a3c0b842f91ec0001dc9bb4,64d2fd46c836a06233681665,64dc7f683620a5cc972da86b,,,,,,,decisionTrl,resources/DY.BMP,resources/DP.BMP,Door4,0.147646539,-0.001766232,1,0,0,2.03,optionRight,60,10630,5,14,0,14,0,1,,,,,,,,,,,,,,,,,,,,,,,,,,,,,,,,,,,,,,,
,,,,,,,,2023-08-16_08h54.15.714,HF_wild_card,2022.2.4,Win32,11.99472232,5a3c0b842f91ec0001dc9bb4,64d2fd46c836a06233681665,64dc7f683620a5cc972da86b,,,,,,,ctch,resources/DBN.BMP,resources/DP.BMP,Door4,0.188836317,0.054401694,1,0,0,1.089,optionRight,60,10690,5,15,0,15,0,1,,,,,,,,,,,,,,,,,,,,,,,,,,,,,,,,,,,,,,,
,,,,,,,,2023-08-16_08h54.15.714,HF_wild_card,2022.2.4,Win32,11.99472232,5a3c0b842f91ec0001dc9bb4,64d2fd46c836a06233681665,64dc7f683620a5cc972da86b,,,,,,,decisionTrl,resources/DY.BMP,resources/DBN.BMP,WildCard_Ex,-0.123207297,-0.003014353,1,0,0,1.214,optionLeft,95,10785,5,16,0,16,0,1,,,,,,,,,,,,,,,,,,,,,,,,,,,,,,,,,,,,,,,
,,,,,,,,2023-08-16_08h54.15.714,HF_wild_card,2022.2.4,Win32,11.99472232,5a3c0b842f91ec0001dc9bb4,64d2fd46c836a06233681665,64dc7f683620a5cc972da86b,,,,,,,decisionTrl,resources/DP.BMP,resources/DG.BMP,Door4,-0.185616045,-0.00675889,1,0,0,0.958,optionLeft,80,10865,5,17,0,17,0,1,,,,,,,,,,,,,,,,,,,,,,,,,,,,,,,,,,,,,,,
,,,,,,,,2023-08-16_08h54.15.714,HF_wild_card,2022.2.4,Win32,11.99472232,5a3c0b842f91ec0001dc9bb4,64d2fd46c836a06233681665,64dc7f683620a5cc972da86b,,,,,,,sngl,resources/DG.BMP,resources/Empty.png,Door3,-0.148170805,-0.00925522,1,0,0,0.892,optionLeft,70,10935,5,18,0,18,0,1,,,,,,,,,,,,,,,,,,,,,,,,,,,,,,,,,,,,,,,
,,,,,,,,2023-08-16_08h54.15.714,HF_wild_card,2022.2.4,Win32,11.99472232,5a3c0b842f91ec0001dc9bb4,64d2fd46c836a06233681665,64dc7f683620a5cc972da86b,,,,,,,sngl,resources/Empty.png,resources/DG.BMP,Door3,0.254989559,0.045664455,1,0,0,0.954,optionRight,70,11005,5,19,0,19,0,1,,,,,,,,,,,,,,,,,,,,,,,,,,,,,,,,,,,,,,,
,,,,,,,,2023-08-16_08h54.15.714,HF_wild_card,2022.2.4,Win32,11.99472232,5a3c0b842f91ec0001dc9bb4,64d2fd46c836a06233681665,64dc7f683620a5cc972da86b,,,,,,,ctch,resources/DP.BMP,resources/DBN.BMP,Door4,-0.184367795,-0.01674425,1,0,0,1.107,optionLeft,60,11065,5,20,0,20,0,1,,,,,,,,,,,,,,,,,,,,,,,,,,,,,,,,,,,,,,,
,,,,,,,,2023-08-16_08h54.15.714,HF_wild_card,2022.2.4,Win32,11.99472232,5a3c0b842f91ec0001dc9bb4,64d2fd46c836a06233681665,64dc7f683620a5cc972da86b,,,,,,,sngl,resources/Empty.png,resources/DY.BMP,WildCard_Ex,0.206310794,0.064387097,1,0,0,0.835,optionRight,5,11070,5,21,0,21,0,1,,,,,,,,,,,,,,,,,,,,,,,,,,,,,,,,,,,,,,,
,,,,,,,,2023-08-16_08h54.15.714,HF_wild_card,2022.2.4,Win32,11.99472232,5a3c0b842f91ec0001dc9bb4,64d2fd46c836a06233681665,64dc7f683620a5cc972da86b,,,,,,,decisionTrl,resources/DR.BMP,resources/DBN.BMP,Door2,-0.095747459,0.026941856,1,0,0,1.941,optionLeft,20,11090,5,22,0,22,0,1,,,,,,,,,,,,,,,,,,,,,,,,,,,,,,,,,,,,,,,
,,,,,,,,2023-08-16_08h54.15.714,HF_wild_card,2022.2.4,Win32,11.99472232,5a3c0b842f91ec0001dc9bb4,64d2fd46c836a06233681665,64dc7f683620a5cc972da86b,,,,,,,decisionTrl,resources/DG.BMP,resources/DP.BMP,Door4,0.17510642,0.064387097,1,0,0,1.304,optionRight,60,11150,5,23,0,23,0,1,,,,,,,,,,,,,,,,,,,,,,,,,,,,,,,,,,,,,,,
,,,,,,,,2023-08-16_08h54.15.714,HF_wild_card,2022.2.4,Win32,11.99472232,5a3c0b842f91ec0001dc9bb4,64d2fd46c836a06233681665,64dc7f683620a5cc972da86b,,,,,,,sngl,resources/Empty.png,resources/DBN.BMP,Door1,0.210055288,0.053153486,1,0,0,0.897,optionRight,30,11180,5,24,0,24,0,1,,,,,,,,,,,,,,,,,,,,,,,,,,,,,,,,,,,,,,,
,,,,,,,,2023-08-16_08h54.15.714,HF_wild_card,2022.2.4,Win32,11.99472232,5a3c0b842f91ec0001dc9bb4,64d2fd46c836a06233681665,64dc7f683620a5cc972da86b,,,,,,,decisionTrl,resources/DP.BMP,resources/DG.BMP,Door3,0.166369181,0.043168126,1,0,0,1.361,optionRight,70,11250,5,25,0,25,0,1,,,,,,,,,,,,,,,,,,,,,,,,,,,,,,,,,,,,,,,
,,,,,,,,2023-08-16_08h54.15.714,HF_wild_card,2022.2.4,Win32,11.99472232,5a3c0b842f91ec0001dc9bb4,64d2fd46c836a06233681665,64dc7f683620a5cc972da86b,,,,,,,decisionTrl,resources/DG.BMP,resources/DP.BMP,Door4,0.155135613,0.00697105,1,0,0,1.846,optionRight,80,11330,5,26,0,26,0,1,,,,,,,,,,,,,,,,,,,,,,,,,,,,,,,,,,,,,,,
,,,,,,,,2023-08-16_08h54.15.714,HF_wild_card,2022.2.4,Win32,11.99472232,5a3c0b842f91ec0001dc9bb4,64d2fd46c836a06233681665,64dc7f683620a5cc972da86b,,,,,,,ctch,resources/DP.BMP,resources/DBN.BMP,Door4,-0.17063794,-0.031722355,1,0,0,1.096,optionLeft,60,11390,5,27,0,27,0,1,,,,,,,,,,,,,,,,,,,,,,,,,,,,,,,,,,,,,,,
,,,,,,,,2023-08-16_08h54.15.714,HF_wild_card,2022.2.4,Win32,11.99472232,5a3c0b842f91ec0001dc9bb4,64d2fd46c836a06233681665,64dc7f683620a5cc972da86b,,,,,,,ctch,resources/DG.BMP,resources/DR.BMP,Door3,-0.164397074,-0.01674425,1,0,0,1.592,optionLeft,70,11460,5,28,0,28,0,1,,,,,,,,,,,,,,,,,,,,,,,,,,,,,,,,,,,,,,,
,,,,,,,,2023-08-16_08h54.15.714,HF_wild_card,2022.2.4,Win32,11.99472232,5a3c0b842f91ec0001dc9bb4,64d2fd46c836a06233681665,64dc7f683620a5cc972da86b,,,,,,,sngl,resources/Empty.png,resources/DP.BMP,Door4,0.190084482,0.045664455,1,0,0,0.881,optionRight,60,11520,5,29,0,29,0,1,,,,,,,,,,,,,,,,,,,,,,,,,,,,,,,,,,,,,,,
,,,,,,,,2023-08-16_08h54.15.714,HF_wild_card,2022.2.4,Win32,11.99472232,5a3c0b842f91ec0001dc9bb4,64d2fd46c836a06233681665,64dc7f683620a5cc972da86b,,,,,,,ctch,resources/DR.BMP,resources/DG.BMP,Door3,0.205062629,0.023197319,1,0,0,1.835,optionRight,70,11590,5,30,0,30,0,1,,,,,,,,,,,,,,,,,,,,,,,,,,,,,,,,,,,,,,,
,,,,,,,,2023-08-16_08h54.15.714,HF_wild_card,2022.2.4,Win32,11.99472232,5a3c0b842f91ec0001dc9bb4,64d2fd46c836a06233681665,64dc7f683620a5cc972da86b,,,,,,,ctch,resources/DBN.BMP,resources/DP.BMP,Door4,0.254989559,0.06064256,1,0,0,1.333,optionRight,60,11650,5,31,0,31,0,1,,,,,,,,,,,,,,,,,,,,,,,,,,,,,,,,,,,,,,,
,,,,,,,,2023-08-16_08h54.15.714,HF_wild_card,2022.2.4,Win32,11.99472232,5a3c0b842f91ec0001dc9bb4,64d2fd46c836a06233681665,64dc7f683620a5cc972da86b,,,,,,,decisionTrl,resources/DP.BMP,resources/DG.BMP,Door3,0.237515168,0.038175424,1,0,0,1.66,optionRight,70,11720,5,32,0,32,0,1,,,,,,,,,,,,,,,,,,,,,,,,,,,,,,,,,,,,,,,
,,,,,,,,2023-08-16_08h54.15.714,HF_wild_card,2022.2.4,Win32,11.99472232,5a3c0b842f91ec0001dc9bb4,64d2fd46c836a06233681665,64dc7f683620a5cc972da86b,,,,,,,decisionTrl,resources/DR.BMP,resources/DBN.BMP,Door1,0.187588152,0.008219215,1,0,0,2.609,optionRight,30,11750,5,33,0,33,0,1,,,,,,,,,,,,,,,,,,,,,,,,,,,,,,,,,,,,,,,
,,,,,,,,2023-08-16_08h54.15.714,HF_wild_card,2022.2.4,Win32,11.99472232,5a3c0b842f91ec0001dc9bb4,64d2fd46c836a06233681665,64dc7f683620a5cc972da86b,,,,,,,sngl,resources/DY.BMP,resources/Empty.png,WildCard_Ex,-0.161900702,-0.019240623,1,0,0,0.952,optionLeft,5,11755,5,34,0,34,0,1,,,,,,,,,,,,,,,,,,,,,,,,,,,,,,,,,,,,,,,
,,,,,,,,2023-08-16_08h54.15.714,HF_wild_card,2022.2.4,Win32,11.99472232,5a3c0b842f91ec0001dc9bb4,64d2fd46c836a06233681665,64dc7f683620a5cc972da86b,,,,,,,decisionTrl,resources/DY.BMP,resources/DG.BMP,Door3,0.176354584,0.001978348,1,0,0,1.721,optionRight,70,11825,5,35,0,35,0,1,,,,,,,,,,,,,,,,,,,,,,,,,,,,,,,,,,,,,,,
,,,,,,,,2023-08-16_08h54.15.714,HF_wild_card,2022.2.4,Win32,11.99472232,5a3c0b842f91ec0001dc9bb4,64d2fd46c836a06233681665,64dc7f683620a5cc972da86b,,,,,,,decisionTrl,resources/DBN.BMP,resources/DY.BMP,WildCard_Ex,0.196325391,0.029438186,1,0,0,0.895,optionRight,5,11830,5,36,0,36,0,1,,,,,,,,,,,,,,,,,,,,,,,,,,,,,,,,,,,,,,,
,,,,,,,,2023-08-16_08h54.15.714,HF_wild_card,2022.2.4,Win32,11.99472232,5a3c0b842f91ec0001dc9bb4,64d2fd46c836a06233681665,64dc7f683620a5cc972da86b,,,,,,,decisionTrl,resources/DP.BMP,resources/DY.BMP,Door4,-0.223061286,-0.057934028,1,0,0,1.466,optionLeft,60,11890,5,37,0,37,0,1,,,,,,,,,,,,,,,,,,,,,,,,,,,,,,,,,,,,,,,
,,,,,,,,2023-08-16_08h54.15.714,HF_wild_card,2022.2.4,Win32,11.99472232,5a3c0b842f91ec0001dc9bb4,64d2fd46c836a06233681665,64dc7f683620a5cc972da86b,,,,,,,decisionTrl,resources/DR.BMP,resources/DBN.BMP,Door1,0.212551617,0.066883426,1,0,0,1.341,optionRight,30,11920,5,38,0,38,0,1,,,,,,,,,,,,,,,,,,,,,,,,,,,,,,,,,,,,,,,
,,,,,,,,2023-08-16_08h54.15.714,HF_wild_card,2022.2.4,Win32,11.99472232,5a3c0b842f91ec0001dc9bb4,64d2fd46c836a06233681665,64dc7f683620a5cc972da86b,,,,,,,decisionTrl,resources/DBN.BMP,resources/DR.BMP,Door2,0.210055288,0.076868829,1,0,0,1.164,optionRight,40,11960,5,39,0,39,0,1,,,,,,,,,,,,,,,,,,,,,,,,,,,,,,,,,,,,,,,
,,,,,,,,2023-08-16_08h54.15.714,HF_wild_card,2022.2.4,Win32,11.99472232,5a3c0b842f91ec0001dc9bb4,64d2fd46c836a06233681665,64dc7f683620a5cc972da86b,,,,,,,decisionTrl,resources/DG.BMP,resources/DY.BMP,WildCard_Ex,0.217544362,0.049408992,1,0,0,1.082,optionRight,95,12055,5,40,0,40,0,1,,,,,,,,,,,,,,,,,,,,,,,,,,,,,,,,,,,,,,,
,,,,,,,,2023-08-16_08h54.15.714,HF_wild_card,2022.2.4,Win32,11.99472232,5a3c0b842f91ec0001dc9bb4,64d2fd46c836a06233681665,64dc7f683620a5cc972da86b,,,,,,,ctch,resources/DG.BMP,resources/DR.BMP,Door3,-0.144426268,-0.003014353,1,0,0,1.823,optionLeft,70,12125,5,41,0,41,0,1,,,,,,,,,,,,,,,,,,,,,,,,,,,,,,,,,,,,,,,
,,,,,,,,2023-08-16_08h54.15.714,HF_wild_card,2022.2.4,Win32,11.99472232,5a3c0b842f91ec0001dc9bb4,64d2fd46c836a06233681665,64dc7f683620a5cc972da86b,,,,,,,sngl,resources/DBN.BMP,resources/Empty.png,Door1,-0.22430945,0.003226513,1,0,0,0.881,optionLeft,30,12155,5,42,0,42,0,1,,,,,,,,,,,,,,,,,,,,,,,,,,,,,,,,,,,,,,,
,,,,,,,,2023-08-16_08h54.15.714,HF_wild_card,2022.2.4,Win32,11.99472232,5a3c0b842f91ec0001dc9bb4,64d2fd46c836a06233681665,64dc7f683620a5cc972da86b,,,,,,,decisionTrl,resources/DR.BMP,resources/DBN.BMP,Door2,-0.181871508,-0.031722355,1,0,0,1.979,optionLeft,20,12175,5,43,0,43,0,1,,,,,,,,,,,,,,,,,,,,,,,,,,,,,,,,,,,,,,,
,,,,,,,,2023-08-16_08h54.15.714,HF_wild_card,2022.2.4,Win32,11.99472232,5a3c0b842f91ec0001dc9bb4,64d2fd46c836a06233681665,64dc7f683620a5cc972da86b,,,,,,,,,,,,,,,,,,,,,,,,,,4,0,4,0,1,,,,,,,,,,,,,,,,,,,,,,,,,,,,,,,,,,
,,,,,,,,2023-08-16_08h54.15.714,HF_wild_card,2022.2.4,Win32,11.99472232,5a3c0b842f91ec0001dc9bb4,64d2fd46c836a06233681665,64dc7f683620a5cc972da86b,,,,,,,decisionTrl,resources/DP.BMP,resources/DY.BMP,WildCard_Ex,0.226281601,-0.119094569,1,0,0,1.285,optionRight,95,12270,6,0,0,0,0,1,,,,,,,,,,,,,,,,,,,,,,,,,,,,,,,,,,,,,,,
,,,,,,,,2023-08-16_08h54.15.714,HF_wild_card,2022.2.4,Win32,11.99472232,5a3c0b842f91ec0001dc9bb4,64d2fd46c836a06233681665,64dc7f683620a5cc972da86b,,,,,,,sngl,resources/Empty.png,resources/DG.BMP,Door3,0.165121017,0.00697105,1,0,0,0.835,optionRight,70,12340,6,1,0,1,0,1,,,,,,,,,,,,,,,,,,,,,,,,,,,,,,,,,,,,,,,
,,,,,,,,2023-08-16_08h54.15.714,HF_wild_card,2022.2.4,Win32,11.99472232,5a3c0b842f91ec0001dc9bb4,64d2fd46c836a06233681665,64dc7f683620a5cc972da86b,,,,,,,decisionTrl,resources/DG.BMP,resources/DP.BMP,Door4,0.201318049,0.009467379,1,0,0,1.384,optionRight,80,12420,6,2,0,2,0,1,,,,,,,,,,,,,,,,,,,,,,,,,,,,,,,,,,,,,,,
,,,,,,,,2023-08-16_08h54.15.714,HF_wild_card,2022.2.4,Win32,11.99472232,5a3c0b842f91ec0001dc9bb4,64d2fd46c836a06233681665,64dc7f683620a5cc972da86b,,,,,,,decisionTrl,resources/DG.BMP,resources/DP.BMP,Door4,0.215048033,0.034430887,1,0,0,0.966,optionRight,60,12480,6,3,0,3,0,1,,,,,,,,,,,,,,,,,,,,,,,,,,,,,,,,,,,,,,,
,,,,,,,,2023-08-16_08h54.15.714,HF_wild_card,2022.2.4,Win32,11.99472232,5a3c0b842f91ec0001dc9bb4,64d2fd46c836a06233681665,64dc7f683620a5cc972da86b,,,,,,,decisionTrl,resources/DBN.BMP,resources/DR.BMP,Door1,-0.158156208,-0.04670046,1,0,0,1.726,optionLeft,30,12510,6,4,0,4,0,1,,,,,,,,,,,,,,,,,,,,,,,,,,,,,,,,,,,,,,,
,,,,,,,,2023-08-16_08h54.15.714,HF_wild_card,2022.2.4,Win32,11.99472232,5a3c0b842f91ec0001dc9bb4,64d2fd46c836a06233681665,64dc7f683620a5cc972da86b,,,,,,,decisionTrl,resources/DBN.BMP,resources/DR.BMP,Door1,-0.183119673,-0.010503384,1,0,0,1.268,optionLeft,30,12540,6,5,0,5,0,1,,,,,,,,,,,,,,,,,,,,,,,,,,,,,,,,,,,,,,,
,,,,,,,,2023-08-16_08h54.15.714,HF_wild_card,2022.2.4,Win32,11.99472232,5a3c0b842f91ec0001dc9bb4,64d2fd46c836a06233681665,64dc7f683620a5cc972da86b,,,,,,,decisionTrl,resources/DR.BMP,resources/DBN.BMP,Door2,-0.158156208,0.005722885,1,0,0,1.306,optionLeft,20,12560,6,6,0,6,0,1,,,,,,,,,,,,,,,,,,,,,,,,,,,,,,,,,,,,,,,
,,,,,,,,2023-08-16_08h54.15.714,HF_wild_card,2022.2.4,Win32,11.99472232,5a3c0b842f91ec0001dc9bb4,64d2fd46c836a06233681665,64dc7f683620a5cc972da86b,,,,,,,sngl,resources/DG.BMP,resources/Empty.png,Door3,-0.189360539,-0.019240623,1,0,0,0.88,optionLeft,70,12630,6,7,0,7,0,1,,,,,,,,,,,,,,,,,,,,,,,,,,,,,,,,,,,,,,,
,,,,,,,,2023-08-16_08h54.15.714,HF_wild_card,2022.2.4,Win32,11.99472232,5a3c0b842f91ec0001dc9bb4,64d2fd46c836a06233681665,64dc7f683620a5cc972da86b,,,,,,,sngl,resources/Empty.png,resources/DP.BMP,Door4,0.217544362,0.045664455,1,0,0,0.881,optionRight,80,12710,6,8,0,8,0,1,,,,,,,,,,,,,,,,,,,,,,,,,,,,,,,,,,,,,,,
,,,,,,,,2023-08-16_08h54.15.714,HF_wild_card,2022.2.4,Win32,11.99472232,5a3c0b842f91ec0001dc9bb4,64d2fd46c836a06233681665,64dc7f683620a5cc972da86b,,,,,,,decisionTrl,resources/DP.BMP,resources/DG.BMP,Door4,-0.175630642,-0.00675889,1,0,0,1.02,optionLeft,60,12770,6,9,0,9,0,1,,,,,,,,,,,,,,,,,,,,,,,,,,,,,,,,,,,,,,,
,,,,,,,,2023-08-16_08h54.15.714,HF_wild_card,2022.2.4,Win32,11.99472232,5a3c0b842f91ec0001dc9bb4,64d2fd46c836a06233681665,64dc7f683620a5cc972da86b,,,,,,,decisionTrl,resources/DP.BMP,resources/DG.BMP,Door4,-0.189360539,-0.02298516,1,0,0,0.899,optionLeft,60,12830,6,10,0,10,0,1,,,,,,,,,,,,,,,,,,,,,,,,,,,,,,,,,,,,,,,
,,,,,,,,2023-08-16_08h54.15.714,HF_wild_card,2022.2.4,Win32,11.99472232,5a3c0b842f91ec0001dc9bb4,64d2fd46c836a06233681665,64dc7f683620a5cc972da86b,,,,,,,decisionTrl,resources/DG.BMP,resources/DP.BMP,Door4,0.215048033,0.009467379,1,0,0,1.524,optionRight,60,12890,6,11,0,11,0,1,,,,,,,,,,,,,,,,,,,,,,,,,,,,,,,,,,,,,,,
,,,,,,,,2023-08-16_08h54.15.714,HF_wild_card,2022.2.4,Win32,11.99472232,5a3c0b842f91ec0001dc9bb4,64d2fd46c836a06233681665,64dc7f683620a5cc972da86b,,,,,,,ctch,resources/DG.BMP,resources/DR.BMP,Door3,0.002858322,-0.003014353,1,0,0,1.012,optionLeft,70,12960,6,12,0,12,0,1,,,,,,,,,,,,,,,,,,,,,,,,,,,,,,,,,,,,,,,
,,,,,,,,2023-08-16_08h54.15.714,HF_wild_card,2022.2.4,Win32,11.99472232,5a3c0b842f91ec0001dc9bb4,64d2fd46c836a06233681665,64dc7f683620a5cc972da86b,,,,,,,decisionTrl,resources/DP.BMP,resources/DG.BMP,Door3,0.19882172,0.043168126,1,0,0,1.137,optionRight,70,13030,6,13,0,13,0,1,,,,,,,,,,,,,,,,,,,,,,,,,,,,,,,,,,,,,,,
,,,,,,,,2023-08-16_08h54.15.714,HF_wild_card,2022.2.4,Win32,11.99472232,5a3c0b842f91ec0001dc9bb4,64d2fd46c836a06233681665,64dc7f683620a5cc972da86b,,,,,,,ctch,resources/DBN.BMP,resources/DP.BMP,Door4,0.190084482,0.023197319,1,0,0,1.013,optionRight,60,13090,6,14,0,14,0,1,,,,,,,,,,,,,,,,,,,,,,,,,,,,,,,,,,,,,,,
,,,,,,,,2023-08-16_08h54.15.714,HF_wild_card,2022.2.4,Win32,11.99472232,5a3c0b842f91ec0001dc9bb4,64d2fd46c836a06233681665,64dc7f683620a5cc972da86b,,,,,,,ctch,resources/DP.BMP,resources/DBN.BMP,Door4,-0.150667134,0.010715587,1,0,0,1.268,optionLeft,60,13150,6,15,0,15,0,1,,,,,,,,,,,,,,,,,,,,,,,,,,,,,,,,,,,,,,,
,,,,,,,,2023-08-16_08h54.15.714,HF_wild_card,2022.2.4,Win32,11.99472232,5a3c0b842f91ec0001dc9bb4,64d2fd46c836a06233681665,64dc7f683620a5cc972da86b,,,,,,,ctch,resources/DG.BMP,resources/DR.BMP,Door3,-0.138185402,0.016956453,1,0,0,1.707,optionLeft,70,13220,6,16,0,16,0,1,,,,,,,,,,,,,,,,,,,,,,,,,,,,,,,,,,,,,,,
,,,,,,,,2023-08-16_08h54.15.714,HF_wild_card,2022.2.4,Win32,11.99472232,5a3c0b842f91ec0001dc9bb4,64d2fd46c836a06233681665,64dc7f683620a5cc972da86b,,,,,,,ctch,resources/DBN.BMP,resources/DP.BMP,Door4,0.190084482,0.04691262,1,0,0,1.063,optionRight,80,13300,6,17,0,17,0,1,,,,,,,,,,,,,,,,,,,,,,,,,,,,,,,,,,,,,,,
,,,,,,,,2023-08-16_08h54.15.714,HF_wild_card,2022.2.4,Win32,11.99472232,5a3c0b842f91ec0001dc9bb4,64d2fd46c836a06233681665,64dc7f683620a5cc972da86b,,,,,,,sngl,resources/Empty.png,resources/DY.BMP,WildCard_Ex,0.206310794,0.019452782,1,0,0,0.937,optionRight,95,13395,6,18,0,18,0,1,,,,,,,,,,,,,,,,,,,,,,,,,,,,,,,,,,,,,,,
,,,,,,,,2023-08-16_08h54.15.714,HF_wild_card,2022.2.4,Win32,11.99472232,5a3c0b842f91ec0001dc9bb4,64d2fd46c836a06233681665,64dc7f683620a5cc972da86b,,,,,,,decisionTrl,resources/DR.BMP,resources/DBN.BMP,Door1,0.147646539,0.016956453,1,0,0,1.852,optionRight,30,13425,6,19,0,19,0,1,,,,,,,,,,,,,,,,,,,,,,,,,,,,,,,,,,,,,,,
,,,,,,,,2023-08-16_08h54.15.714,HF_wild_card,2022.2.4,Win32,11.99472232,5a3c0b842f91ec0001dc9bb4,64d2fd46c836a06233681665,64dc7f683620a5cc972da86b,,,,,,,sngl,resources/Empty.png,resources/DBN.BMP,Door1,0.193829062,0.025693649,1,0,0,0.866,optionRight,30,13455,6,20,0,20,0,1,,,,,,,,,,,,,,,,,,,,,,,,,,,,,,,,,,,,,,,
,,,,,,,,2023-08-16_08h54.15.714,HF_wild_card,2022.2.4,Win32,11.99472232,5a3c0b842f91ec0001dc9bb4,64d2fd46c836a06233681665,64dc7f683620a5cc972da86b,,,,,,,decisionTrl,resources/DY.BMP,resources/DP.BMP,WildCard_Ex,-0.155659836,-0.026729654,1,0,0,2.16,optionLeft,5,13460,6,21,0,21,0,1,,,,,,,,,,,,,,,,,,,,,,,,,,,,,,,,,,,,,,,
,,,,,,,,2023-08-16_08h54.15.714,HF_wild_card,2022.2.4,Win32,11.99472232,5a3c0b842f91ec0001dc9bb4,64d2fd46c836a06233681665,64dc7f683620a5cc972da86b,,,,,,,ctch,resources/DR.BMP,resources/DG.BMP,Door3,0.158880107,0.024445484,1,0,0,1.215,optionRight,70,13530,6,22,0,22,0,1,,,,,,,,,,,,,,,,,,,,,,,,,,,,,,,,,,,,,,,
,,,,,,,,2023-08-16_08h54.15.714,HF_wild_card,2022.2.4,Win32,11.99472232,5a3c0b842f91ec0001dc9bb4,64d2fd46c836a06233681665,64dc7f683620a5cc972da86b,,,,,,,sngl,resources/Empty.png,resources/DR.BMP,Door2,0.193829062,0.039423589,1,0,0,0.824,optionRight,40,13570,6,23,0,23,0,1,,,,,,,,,,,,,,,,,,,,,,,,,,,,,,,,,,,,,,,
,,,,,,,,2023-08-16_08h54.15.714,HF_wild_card,2022.2.4,Win32,11.99472232,5a3c0b842f91ec0001dc9bb4,64d2fd46c836a06233681665,64dc7f683620a5cc972da86b,,,,,,,sngl,resources/Empty.png,resources/DY.BMP,WildCard_Ex,0.178850914,0.026941856,1,0,0,0.776,optionRight,5,13575,6,24,0,24,0,1,,,,,,,,,,,,,,,,,,,,,,,,,,,,,,,,,,,,,,,
,,,,,,,,2023-08-16_08h54.15.714,HF_wild_card,2022.2.4,Win32,11.99472232,5a3c0b842f91ec0001dc9bb4,64d2fd46c836a06233681665,64dc7f683620a5cc972da86b,,,,,,,sngl,resources/DBN.BMP,resources/Empty.png,Door1,-0.166893404,-0.021736952,1,0,0,0.949,optionLeft,30,13605,6,25,0,25,0,1,,,,,,,,,,,,,,,,,,,,,,,,,,,,,,,,,,,,,,,
,,,,,,,,2023-08-16_08h54.15.714,HF_wild_card,2022.2.4,Win32,11.99472232,5a3c0b842f91ec0001dc9bb4,64d2fd46c836a06233681665,64dc7f683620a5cc972da86b,,,,,,,sngl,resources/DP.BMP,resources/Empty.png,Door4,-0.164397074,-0.029226026,1,0,0,0.882,optionLeft,60,13665,6,26,0,26,0,1,,,,,,,,,,,,,,,,,,,,,,,,,,,,,,,,,,,,,,,
,,,,,,,,2023-08-16_08h54.15.714,HF_wild_card,2022.2.4,Win32,11.99472232,5a3c0b842f91ec0001dc9bb4,64d2fd46c836a06233681665,64dc7f683620a5cc972da86b,,,,,,,decisionTrl,resources/DBN.BMP,resources/DR.BMP,Door1,-0.168141525,-0.011751549,1,0,0,1.336,optionLeft,30,13695,6,27,0,27,0,1,,,,,,,,,,,,,,,,,,,,,,,,,,,,,,,,,,,,,,,
,,,,,,,,2023-08-16_08h54.15.714,HF_wild_card,2022.2.4,Win32,11.99472232,5a3c0b842f91ec0001dc9bb4,64d2fd46c836a06233681665,64dc7f683620a5cc972da86b,,,,,,,decisionTrl,resources/DG.BMP,resources/DY.BMP,WildCard_Ex,0.226281601,0.039423589,1,0,0,1.272,optionRight,95,13790,6,28,0,28,0,1,,,,,,,,,,,,,,,,,,,,,,,,,,,,,,,,,,,,,,,
,,,,,,,,2023-08-16_08h54.15.714,HF_wild_card,2022.2.4,Win32,11.99472232,5a3c0b842f91ec0001dc9bb4,64d2fd46c836a06233681665,64dc7f683620a5cc972da86b,,,,,,,decisionTrl,resources/DBN.BMP,resources/DY.BMP,WildCard_Ex,0.213799868,0.045664455,1,0,0,0.822,optionRight,95,13885,6,29,0,29,0,1,,,,,,,,,,,,,,,,,,,,,,,,,,,,,,,,,,,,,,,
,,,,,,,,2023-08-16_08h54.15.714,HF_wild_card,2022.2.4,Win32,11.99472232,5a3c0b842f91ec0001dc9bb4,64d2fd46c836a06233681665,64dc7f683620a5cc972da86b,,,,,,,decisionTrl,resources/DY.BMP,resources/DG.BMP,WildCard_Ex,-0.118214595,-0.000517981,1,0,0,1.018,optionLeft,95,13980,6,30,0,30,0,1,,,,,,,,,,,,,,,,,,,,,,,,,,,,,,,,,,,,,,,
,,,,,,,,2023-08-16_08h54.15.714,HF_wild_card,2022.2.4,Win32,11.99472232,5a3c0b842f91ec0001dc9bb4,64d2fd46c836a06233681665,64dc7f683620a5cc972da86b,,,,,,,decisionTrl,resources/DBN.BMP,resources/DR.BMP,Door1,-0.195601405,-0.030474191,1,0,0,1.25,optionLeft,30,14010,6,31,0,31,0,1,,,,,,,,,,,,,,,,,,,,,,,,,,,,,,,,,,,,,,,
,,,,,,,,2023-08-16_08h54.15.714,HF_wild_card,2022.2.4,Win32,11.99472232,5a3c0b842f91ec0001dc9bb4,64d2fd46c836a06233681665,64dc7f683620a5cc972da86b,,,,,,,decisionTrl,resources/DP.BMP,resources/DG.BMP,Door4,-0.171886105,-0.017992501,1,0,0,1.33,optionLeft,60,14070,6,32,0,32,0,1,,,,,,,,,,,,,,,,,,,,,,,,,,,,,,,,,,,,,,,
,,,,,,,,2023-08-16_08h54.15.714,HF_wild_card,2022.2.4,Win32,11.99472232,5a3c0b842f91ec0001dc9bb4,64d2fd46c836a06233681665,64dc7f683620a5cc972da86b,,,,,,,decisionTrl,resources/DY.BMP,resources/DBN.BMP,WildCard_Ex,-0.166893404,-0.003014353,1,0,0,1.327,optionLeft,5,14075,6,33,0,33,0,1,,,,,,,,,,,,,,,,,,,,,,,,,,,,,,,,,,,,,,,
,,,,,,,,2023-08-16_08h54.15.714,HF_wild_card,2022.2.4,Win32,11.99472232,5a3c0b842f91ec0001dc9bb4,64d2fd46c836a06233681665,64dc7f683620a5cc972da86b,,,,,,,sngl,resources/DR.BMP,resources/Empty.png,Door2,-0.174382477,0.00697105,1,0,0,0.823,optionLeft,20,14095,6,34,0,34,0,1,,,,,,,,,,,,,,,,,,,,,,,,,,,,,,,,,,,,,,,
,,,,,,,,2023-08-16_08h54.15.714,HF_wild_card,2022.2.4,Win32,11.99472232,5a3c0b842f91ec0001dc9bb4,64d2fd46c836a06233681665,64dc7f683620a5cc972da86b,,,,,,,decisionTrl,resources/DR.BMP,resources/DBN.BMP,Door1,0.14515021,-0.00675889,1,0,0,1.828,optionRight,30,14125,6,35,0,35,0,1,,,,,,,,,,,,,,,,,,,,,,,,,,,,,,,,,,,,,,,
,,,,,,,,2023-08-16_08h54.15.714,HF_wild_card,2022.2.4,Win32,11.99472232,5a3c0b842f91ec0001dc9bb4,64d2fd46c836a06233681665,64dc7f683620a5cc972da86b,,,,,,,sngl,resources/DY.BMP,resources/Empty.png,WildCard_Ex,-0.175630642,-0.021736952,1,0,0,0.816,optionLeft,95,14220,6,36,0,36,0,1,,,,,,,,,,,,,,,,,,,,,,,,,,,,,,,,,,,,,,,
,,,,,,,,2023-08-16_08h54.15.714,HF_wild_card,2022.2.4,Win32,11.99472232,5a3c0b842f91ec0001dc9bb4,64d2fd46c836a06233681665,64dc7f683620a5cc972da86b,,,,,,,decisionTrl,resources/DR.BMP,resources/DY.BMP,WildCard_Ex,0.172610091,0.021949155,1,0,0,1.012,optionRight,5,14225,6,37,0,37,0,1,,,,,,,,,,,,,,,,,,,,,,,,,,,,,,,,,,,,,,,
,,,,,,,,2023-08-16_08h54.15.714,HF_wild_card,2022.2.4,Win32,11.99472232,5a3c0b842f91ec0001dc9bb4,64d2fd46c836a06233681665,64dc7f683620a5cc972da86b,,,,,,,decisionTrl,resources/DG.BMP,resources/DP.BMP,Door3,-0.143178103,-0.02298516,1,0,0,1.499,optionLeft,70,14295,6,38,0,38,0,1,,,,,,,,,,,,,,,,,,,,,,,,,,,,,,,,,,,,,,,
,,,,,,,,2023-08-16_08h54.15.714,HF_wild_card,2022.2.4,Win32,11.99472232,5a3c0b842f91ec0001dc9bb4,64d2fd46c836a06233681665,64dc7f683620a5cc972da86b,,,,,,,sngl,resources/DY.BMP,resources/Empty.png,WildCard_Ex,-0.193105076,-0.015496086,1,0,0,0.816,optionLeft,5,14300,6,39,0,39,0,1,,,,,,,,,,,,,,,,,,,,,,,,,,,,,,,,,,,,,,,
,,,,,,,,2023-08-16_08h54.15.714,HF_wild_card,2022.2.4,Win32,11.99472232,5a3c0b842f91ec0001dc9bb4,64d2fd46c836a06233681665,64dc7f683620a5cc972da86b,,,,,,,ctch,resources/DR.BMP,resources/DG.BMP,Door3,0.188836317,0.043168126,1,0,0,1.266,optionRight,70,14370,6,40,0,40,0,1,,,,,,,,,,,,,,,,,,,,,,,,,,,,,,,,,,,,,,,
,,,,,,,,2023-08-16_08h54.15.714,HF_wild_card,2022.2.4,Win32,11.99472232,5a3c0b842f91ec0001dc9bb4,64d2fd46c836a06233681665,64dc7f683620a5cc972da86b,,,,,,,decisionTrl,resources/DR.BMP,resources/DBN.BMP,Door2,-0.163148867,-0.00925522,1,0,0,1.12,optionLeft,20,14390,6,41,0,41,0,1,,,,,,,,,,,,,,,,,,,,,,,,,,,,,,,,,,,,,,,
,,,,,,,,2023-08-16_08h54.15.714,HF_wild_card,2022.2.4,Win32,11.99472232,5a3c0b842f91ec0001dc9bb4,64d2fd46c836a06233681665,64dc7f683620a5cc972da86b,,,,,,,decisionTrl,resources/DY.BMP,resources/DR.BMP,WildCard_Ex,-0.171886105,-0.012999757,1,0,0,1.718,optionLeft,5,14395,6,42,0,42,0,1,,,,,,,,,,,,,,,,,,,,,,,,,,,,,,,,,,,,,,,
,,,,,,,,2023-08-16_08h54.15.714,HF_wild_card,2022.2.4,Win32,11.99472232,5a3c0b842f91ec0001dc9bb4,64d2fd46c836a06233681665,64dc7f683620a5cc972da86b,,,,,,,ctch,resources/DP.BMP,resources/DBN.BMP,Door4,-0.003382501,-0.00675889,1,0,0,1.275,optionLeft,80,14475,6,43,0,43,0,1,,,,,,,,,,,,,,,,,,,,,,,,,,,,,,,,,,,,,,,
,,,,,,,,2023-08-16_08h54.15.714,HF_wild_card,2022.2.4,Win32,11.99472232,5a3c0b842f91ec0001dc9bb4,64d2fd46c836a06233681665,64dc7f683620a5cc972da86b,,,,,,,,,,,,,,,,,,,,,,,,,,5,0,5,0,1,,,,,,,,,,,,,,,,,,,,,,,,,,,,,,,,,,
,,,,,,,,2023-08-16_08h54.15.714,HF_wild_card,2022.2.4,Win32,11.99472232,5a3c0b842f91ec0001dc9bb4,64d2fd46c836a06233681665,64dc7f683620a5cc972da86b,,,,,,,ctch,resources/DR.BMP,resources/DG.BMP,Door3,0.210055288,-0.137817211,1,0,0,1.638,optionRight,70,14545,7,0,0,0,0,1,,,,,,,,,,,,,,,,,,,,,,,,,,,,,,,,,,,,,,,
,,,,,,,,2023-08-16_08h54.15.714,HF_wild_card,2022.2.4,Win32,11.99472232,5a3c0b842f91ec0001dc9bb4,64d2fd46c836a06233681665,64dc7f683620a5cc972da86b,,,,,,,ctch,resources/DP.BMP,resources/DBN.BMP,Door4,-0.159404373,-0.069167596,1,0,0,1.275,optionLeft,60,14605,7,1,0,1,0,1,,,,,,,,,,,,,,,,,,,,,,,,,,,,,,,,,,,,,,,
,,,,,,,,2023-08-16_08h54.15.714,HF_wild_card,2022.2.4,Win32,11.99472232,5a3c0b842f91ec0001dc9bb4,64d2fd46c836a06233681665,64dc7f683620a5cc972da86b,,,,,,,decisionTrl,resources/DR.BMP,resources/DBN.BMP,Door1,0.17510642,0.02070099,1,0,0,1.34,optionRight,30,14635,7,2,0,2,0,1,,,,,,,,,,,,,,,,,,,,,,,,,,,,,,,,,,,,,,,
,,,,,,,,2023-08-16_08h54.15.714,HF_wild_card,2022.2.4,Win32,11.99472232,5a3c0b842f91ec0001dc9bb4,64d2fd46c836a06233681665,64dc7f683620a5cc972da86b,,,,,,,decisionTrl,resources/DBN.BMP,resources/DR.BMP,Door1,-0.219316749,0.000730184,1,0,0,1.466,optionLeft,30,14665,7,3,0,3,0,1,,,,,,,,,,,,,,,,,,,,,,,,,,,,,,,,,,,,,,,
,,,,,,,,2023-08-16_08h54.15.714,HF_wild_card,2022.2.4,Win32,11.99472232,5a3c0b842f91ec0001dc9bb4,64d2fd46c836a06233681665,64dc7f683620a5cc972da86b,,,,,,,decisionTrl,resources/DP.BMP,resources/DG.BMP,Door3,0.203814551,0.029438186,1,0,0,1.605,optionRight,70,14735,7,4,0,4,0,1,,,,,,,,,,,,,,,,,,,,,,,,,,,,,,,,,,,,,,,
,,,,,,,,2023-08-16_08h54.15.714,HF_wild_card,2022.2.4,Win32,11.99472232,5a3c0b842f91ec0001dc9bb4,64d2fd46c836a06233681665,64dc7f683620a5cc972da86b,,,,,,,ctch,resources/DG.BMP,resources/DR.BMP,Door3,-0.17063794,-0.026729654,1,0,0,1.718,optionLeft,70,14805,7,5,0,5,0,1,,,,,,,,,,,,,,,,,,,,,,,,,,,,,,,,,,,,,,,
,,,,,,,,2023-08-16_08h54.15.714,HF_wild_card,2022.2.4,Win32,11.99472232,5a3c0b842f91ec0001dc9bb4,64d2fd46c836a06233681665,64dc7f683620a5cc972da86b,,,,,,,decisionTrl,resources/DR.BMP,resources/DBN.BMP,Door1,0.216296197,0.036927216,1,0,0,1.34,optionRight,30,14835,7,6,0,6,0,1,,,,,,,,,,,,,,,,,,,,,,,,,,,,,,,,,,,,,,,
,,,,,,,,2023-08-16_08h54.15.714,HF_wild_card,2022.2.4,Win32,11.99472232,5a3c0b842f91ec0001dc9bb4,64d2fd46c836a06233681665,64dc7f683620a5cc972da86b,,,,,,,decisionTrl,resources/DG.BMP,resources/DP.BMP,Door3,-0.17313427,-0.06292673,1,0,0,1.596,optionLeft,70,14905,7,7,0,7,0,1,,,,,,,,,,,,,,,,,,,,,,,,,,,,,,,,,,,,,,,
,,,,,,,,2023-08-16_08h54.15.714,HF_wild_card,2022.2.4,Win32,11.99472232,5a3c0b842f91ec0001dc9bb4,64d2fd46c836a06233681665,64dc7f683620a5cc972da86b,,,,,,,decisionTrl,resources/DG.BMP,resources/DP.BMP,Door3,-0.158156208,-0.031722355,1,0,0,1.274,optionLeft,70,14975,7,8,0,8,0,1,,,,,,,,,,,,,,,,,,,,,,,,,,,,,,,,,,,,,,,
,,,,,,,,2023-08-16_08h54.15.714,HF_wild_card,2022.2.4,Win32,11.99472232,5a3c0b842f91ec0001dc9bb4,64d2fd46c836a06233681665,64dc7f683620a5cc972da86b,,,,,,,ctch,resources/DP.BMP,resources/DBN.BMP,Door4,-0.169389776,-0.008007055,1,0,0,1.026,optionLeft,80,15055,7,9,0,9,0,1,,,,,,,,,,,,,,,,,,,,,,,,,,,,,,,,,,,,,,,
,,,,,,,,2023-08-16_08h54.15.714,HF_wild_card,2022.2.4,Win32,11.99472232,5a3c0b842f91ec0001dc9bb4,64d2fd46c836a06233681665,64dc7f683620a5cc972da86b,,,,,,,decisionTrl,resources/DG.BMP,resources/DP.BMP,Door3,-0.196849613,0.010715587,1,0,0,1.246,optionLeft,70,15125,7,10,0,10,0,1,,,,,,,,,,,,,,,,,,,,,,,,,,,,,,,,,,,,,,,
,,,,,,,,2023-08-16_08h54.15.714,HF_wild_card,2022.2.4,Win32,11.99472232,5a3c0b842f91ec0001dc9bb4,64d2fd46c836a06233681665,64dc7f683620a5cc972da86b,,,,,,,decisionTrl,resources/DBN.BMP,resources/DR.BMP,Door1,-0.120710967,0.004474721,1,0,0,1.629,optionLeft,30,15155,7,11,0,11,0,1,,,,,,,,,,,,,,,,,,,,,,,,,,,,,,,,,,,,,,,
,,,,,,,,2023-08-16_08h54.15.714,HF_wild_card,2022.2.4,Win32,11.99472232,5a3c0b842f91ec0001dc9bb4,64d2fd46c836a06233681665,64dc7f683620a5cc972da86b,,,,,,,decisionTrl,resources/DP.BMP,resources/DG.BMP,Door3,0.208807123,-0.021736952,1,0,0,1.66,optionRight,70,15225,7,12,0,12,0,1,,,,,,,,,,,,,,,,,,,,,,,,,,,,,,,,,,,,,,,
,,,,,,,,2023-08-16_08h54.15.714,HF_wild_card,2022.2.4,Win32,11.99472232,5a3c0b842f91ec0001dc9bb4,64d2fd46c836a06233681665,64dc7f683620a5cc972da86b,,,,,,,decisionTrl,resources/DBN.BMP,resources/DR.BMP,Door1,-0.26425102,-0.052941326,1,0,0,1.661,optionLeft,30,15255,7,13,0,13,0,1,,,,,,,,,,,,,,,,,,,,,,,,,,,,,,,,,,,,,,,
,,,,,,,,2023-08-16_08h54.15.714,HF_wild_card,2022.2.4,Win32,11.99472232,5a3c0b842f91ec0001dc9bb4,64d2fd46c836a06233681665,64dc7f683620a5cc972da86b,,,,,,,decisionTrl,resources/DG.BMP,resources/DP.BMP,Door3,-0.139433566,-0.010503384,1,0,0,1.399,optionLeft,70,15325,7,14,0,14,0,1,,,,,,,,,,,,,,,,,,,,,,,,,,,,,,,,,,,,,,,
,,,,,,,,2023-08-16_08h54.15.714,HF_wild_card,2022.2.4,Win32,11.99472232,5a3c0b842f91ec0001dc9bb4,64d2fd46c836a06233681665,64dc7f683620a5cc972da86b,,,,,,,decisionTrl,resources/DR.BMP,resources/DBN.BMP,Door1,0.176354584,0.03068635,1,0,0,1.429,optionRight,30,15355,7,15,0,15,0,1,,,,,,,,,,,,,,,,,,,,,,,,,,,,,,,,,,,,,,,
,,,,,,,,2023-08-16_08h54.15.714,HF_wild_card,2022.2.4,Win32,11.99472232,5a3c0b842f91ec0001dc9bb4,64d2fd46c836a06233681665,64dc7f683620a5cc972da86b,,,,,,,decisionTrl,resources/DBN.BMP,resources/DR.BMP,Door1,-0.178126971,-0.02298516,1,0,0,1.074,optionLeft,30,15385,7,16,0,16,0,1,,,,,,,,,,,,,,,,,,,,,,,,,,,,,,,,,,,,,,,
,,,,,,,,2023-08-16_08h54.15.714,HF_wild_card,2022.2.4,Win32,11.99472232,5a3c0b842f91ec0001dc9bb4,64d2fd46c836a06233681665,64dc7f683620a5cc972da86b,,,,,,,decisionTrl,resources/DBN.BMP,resources/DR.BMP,Door1,-0.18686421,-0.017992501,1,0,0,0.945,optionLeft,30,15415,7,17,0,17,0,1,,,,,,,,,,,,,,,,,,,,,,,,,,,,,,,,,,,,,,,
,,,,,,,,2023-08-16_08h54.15.714,HF_wild_card,2022.2.4,Win32,11.99472232,5a3c0b842f91ec0001dc9bb4,64d2fd46c836a06233681665,64dc7f683620a5cc972da86b,,,,,,,ctch,resources/DBN.BMP,resources/DP.BMP,Door4,0.223785185,-0.015496086,1,0,0,1.436,optionRight,60,15475,7,18,0,18,0,1,,,,,,,,,,,,,,,,,,,,,,,,,,,,,,,,,,,,,,,
,,,,,,,,2023-08-16_08h54.15.714,HF_wild_card,2022.2.4,Win32,11.99472232,5a3c0b842f91ec0001dc9bb4,64d2fd46c836a06233681665,64dc7f683620a5cc972da86b,,,,,,,decisionTrl,resources/DG.BMP,resources/DP.BMP,Door3,-0.18686421,-0.089138402,1,0,0,1.163,optionLeft,70,15545,7,19,0,19,0,1,,,,,,,,,,,,,,,,,,,,,,,,,,,,,,,,,,,,,,,
,,,,,,,,2023-08-16_08h54.15.714,HF_wild_card,2022.2.4,Win32,11.99472232,5a3c0b842f91ec0001dc9bb4,64d2fd46c836a06233681665,64dc7f683620a5cc972da86b,,,,,,,decisionTrl,resources/DP.BMP,resources/DG.BMP,Door3,0.163872852,-0.021736952,1,0,0,1.769,optionRight,70,15615,7,20,0,20,0,1,,,,,,,,,,,,,,,,,,,,,,,,,,,,,,,,,,,,,,,
,,,,,,,,2023-08-16_08h54.15.714,HF_wild_card,2022.2.4,Win32,11.99472232,5a3c0b842f91ec0001dc9bb4,64d2fd46c836a06233681665,64dc7f683620a5cc972da86b,,,,,,,ctch,resources/DBN.BMP,resources/DP.BMP,Door4,-0.014616155,0.000730184,1,0,0,1.05,optionRight,60,15675,7,21,0,21,0,1,,,,,,,,,,,,,,,,,,,,,,,,,,,,,,,,,,,,,,,
,,,,,,,,2023-08-16_08h54.15.714,HF_wild_card,2022.2.4,Win32,11.99472232,5a3c0b842f91ec0001dc9bb4,64d2fd46c836a06233681665,64dc7f683620a5cc972da86b,,,,,,,decisionTrl,resources/DP.BMP,resources/DG.BMP,Door3,0.165121017,-0.021736952,1,0,0,1.69,optionRight,70,15745,7,22,0,22,0,1,,,,,,,,,,,,,,,,,,,,,,,,,,,,,,,,,,,,,,,
,,,,,,,,2023-08-16_08h54.15.714,HF_wild_card,2022.2.4,Win32,11.99472232,5a3c0b842f91ec0001dc9bb4,64d2fd46c836a06233681665,64dc7f683620a5cc972da86b,,,,,,,ctch,resources/DR.BMP,resources/DG.BMP,Door3,0.225033436,0.053153486,1,0,0,1.251,optionRight,70,15815,7,23,0,23,0,1,,,,,,,,,,,,,,,,,,,,,,,,,,,,,,,,,,,,,,,
,,,,,,,,2023-08-16_08h54.15.714,HF_wild_card,2022.2.4,Win32,11.99472232,5a3c0b842f91ec0001dc9bb4,64d2fd46c836a06233681665,64dc7f683620a5cc972da86b,,,,,,,decisionTrl,resources/DR.BMP,resources/DBN.BMP,Door1,0.178850914,0.040671753,1,0,0,1.65,optionRight,30,15845,7,24,0,24,0,1,,,,,,,,,,,,,,,,,,,,,,,,,,,,,,,,,,,,,,,
,,,,,,,,2023-08-16_08h54.15.714,HF_wild_card,2022.2.4,Win32,11.99472232,5a3c0b842f91ec0001dc9bb4,64d2fd46c836a06233681665,64dc7f683620a5cc972da86b,,,,,,,ctch,resources/DP.BMP,resources/DBN.BMP,Door4,-0.17313427,-0.025481489,1,0,0,2.143,optionLeft,80,15925,7,25,0,25,0,1,,,,,,,,,,,,,,,,,,,,,,,,,,,,,,,,,,,,,,,
,,,,,,,,2023-08-16_08h54.15.714,HF_wild_card,2022.2.4,Win32,11.99472232,5a3c0b842f91ec0001dc9bb4,64d2fd46c836a06233681665,64dc7f683620a5cc972da86b,,,,,,,decisionTrl,resources/DP.BMP,resources/DG.BMP,Door3,0.193829062,0.065635261,1,0,0,1.201,optionRight,70,15995,7,26,0,26,0,1,,,,,,,,,,,,,,,,,,,,,,,,,,,,,,,,,,,,,,,
,,,,,,,,2023-08-16_08h54.15.714,HF_wild_card,2022.2.4,Win32,11.99472232,5a3c0b842f91ec0001dc9bb4,64d2fd46c836a06233681665,64dc7f683620a5cc972da86b,,,,,,,decisionTrl,resources/DP.BMP,resources/DG.BMP,Door3,0.182595494,0.019452782,1,0,0,1.113,optionRight,70,16065,7,27,0,27,0,1,,,,,,,,,,,,,,,,,,,,,,,,,,,,,,,,,,,,,,,
,,,,,,,,2023-08-16_08h54.15.714,HF_wild_card,2022.2.4,Win32,11.99472232,5a3c0b842f91ec0001dc9bb4,64d2fd46c836a06233681665,64dc7f683620a5cc972da86b,,,,,,,decisionTrl,resources/DR.BMP,resources/DBN.BMP,Door1,0.171362012,0.005722885,1,0,0,1.644,optionRight,30,16095,7,28,0,28,0,1,,,,,,,,,,,,,,,,,,,,,,,,,,,,,,,,,,,,,,,
,,,,,,,,2023-08-16_08h54.15.714,HF_wild_card,2022.2.4,Win32,11.99472232,5a3c0b842f91ec0001dc9bb4,64d2fd46c836a06233681665,64dc7f683620a5cc972da86b,,,,,,,decisionTrl,resources/DR.BMP,resources/DBN.BMP,Door1,0.170113761,0.023197319,1,0,0,0.882,optionRight,30,16125,7,29,0,29,0,1,,,,,,,,,,,,,,,,,,,,,,,,,,,,,,,,,,,,,,,
,,,,,,,,2023-08-16_08h54.15.714,HF_wild_card,2022.2.4,Win32,11.99472232,5a3c0b842f91ec0001dc9bb4,64d2fd46c836a06233681665,64dc7f683620a5cc972da86b,,,,,,,ctch,resources/DG.BMP,resources/DR.BMP,Door3,-0.158156208,-0.084145701,1,0,0,1.606,optionLeft,70,16195,7,30,0,30,0,1,,,,,,,,,,,,,,,,,,,,,,,,,,,,,,,,,,,,,,,
,,,,,,,,2023-08-16_08h54.15.714,HF_wild_card,2022.2.4,Win32,11.99472232,5a3c0b842f91ec0001dc9bb4,64d2fd46c836a06233681665,64dc7f683620a5cc972da86b,,,,,,,ctch,resources/DBN.BMP,resources/DP.BMP,Door4,0.125179404,-0.040459594,1,0,0,1.077,optionRight,80,16275,7,31,0,31,0,1,,,,,,,,,,,,,,,,,,,,,,,,,,,,,,,,,,,,,,,
,,,,,,,,2023-08-16_08h54.15.714,HF_wild_card,2022.2.4,Win32,11.99472232,5a3c0b842f91ec0001dc9bb4,64d2fd46c836a06233681665,64dc7f683620a5cc972da86b,,,,,,,decisionTrl,resources/DBN.BMP,resources/DR.BMP,Door1,-0.22680578,-0.052941326,1,0,0,1.011,optionLeft,30,16305,7,32,0,32,0,1,,,,,,,,,,,,,,,,,,,,,,,,,,,,,,,,,,,,,,,
,,,,,,,,2023-08-16_08h54.15.714,HF_wild_card,2022.2.4,Win32,11.99472232,5a3c0b842f91ec0001dc9bb4,64d2fd46c836a06233681665,64dc7f683620a5cc972da86b,,,,,,,decisionTrl,resources/DG.BMP,resources/DP.BMP,Door3,-0.138185402,0.008219215,1,0,0,1.416,optionLeft,70,16375,7,33,0,33,0,1,,,,,,,,,,,,,,,,,,,,,,,,,,,,,,,,,,,,,,,
,,,,,,,,2023-08-16_08h54.15.714,HF_wild_card,2022.2.4,Win32,11.99472232,5a3c0b842f91ec0001dc9bb4,64d2fd46c836a06233681665,64dc7f683620a5cc972da86b,,,,,,,ctch,resources/DG.BMP,resources/DR.BMP,Door3,-0.213075883,-0.031722355,1,0,0,1.693,optionLeft,70,16445,7,34,0,34,0,1,,,,,,,,,,,,,,,,,,,,,,,,,,,,,,,,,,,,,,,
,,,,,,,,2023-08-16_08h54.15.714,HF_wild_card,2022.2.4,Win32,11.99472232,5a3c0b842f91ec0001dc9bb4,64d2fd46c836a06233681665,64dc7f683620a5cc972da86b,,,,,,,ctch,resources/DR.BMP,resources/DG.BMP,Door3,0.113945836,0.00697105,1,0,0,1.019,optionRight,70,16515,7,35,0,35,0,1,,,,,,,,,,,,,,,,,,,,,,,,,,,,,,,,,,,,,,,
,,,,,,,,2023-08-16_08h54.15.714,HF_wild_card,2022.2.4,Win32,11.99472232,5a3c0b842f91ec0001dc9bb4,64d2fd46c836a06233681665,64dc7f683620a5cc972da86b,,,,,,,,,,,,,,,,,,,,,,,,,,6,0,6,0,1,,,,,,,,,,,,,,,,,,,,,,,,,,,,,,,,,,
,,,,,,,,2023-08-16_08h54.15.714,HF_wild_card,2022.2.4,Win32,11.99472232,5a3c0b842f91ec0001dc9bb4,64d2fd46c836a06233681665,64dc7f683620a5cc972da86b,,,,,,,,,,,,,,,,,,,,,,,,,,,,,,,4,,,,,,,,,,,,,,,,,,,,,,,,,,,,,,,,,
,,,,,,,,2023-08-16_08h54.15.714,HF_wild_card,2022.2.4,Win32,11.99472232,5a3c0b842f91ec0001dc9bb4,64d2fd46c836a06233681665,64dc7f683620a5cc972da86b,,,,,,,,,,,,,,,,,,,,,,,,,,,,,,,,,,,,,,,,,,,,,,,,,,,,,,,,,,,,,,,,
,,,,,,,,2023-08-16_08h54.15.714,HF_wild_card,2022.2.4,Win32,11.99472232,5a3c0b842f91ec0001dc9bb4,64d2fd46c836a06233681665,64dc7f683620a5cc972da86b,,,,,,,,,,,,,,,,,,,,,,,,,,,,,,,,95,WC_extreme,resources/DY.BMP,0,0,0,0,1,,,,,,,,,,,,,,,,,,,,,,,,,
,,,,,,,,2023-08-16_08h54.15.714,HF_wild_card,2022.2.4,Win32,11.99472232,5a3c0b842f91ec0001dc9bb4,64d2fd46c836a06233681665,64dc7f683620a5cc972da86b,,,,,,,,,,,,,,,,,,,,,,,,,,,,,,,,30,Door1,resources/DBN.BMP,1,0,1,0,1,,,,,,,,,,,,,,,,,,,,,,,,,
,,,,,,,,2023-08-16_08h54.15.714,HF_wild_card,2022.2.4,Win32,11.99472232,5a3c0b842f91ec0001dc9bb4,64d2fd46c836a06233681665,64dc7f683620a5cc972da86b,,,,,,,,,,,,,,,,,,,,,,,,,,,,,,,,40,WC_nonExtreme,resources/DB.BMP,2,0,2,0,1,,,,,,,,,,,,,,,,,,,,,,,,,
,,,,,,,,2023-08-16_08h54.15.714,HF_wild_card,2022.2.4,Win32,11.99472232,5a3c0b842f91ec0001dc9bb4,64d2fd46c836a06233681665,64dc7f683620a5cc972da86b,,,,,,,,,,,,,,,,,,,,,,,,,,,,,,,,70,Door3,resources/DG.BMP,3,0,3,0,1,,,,,,,,,,,,,,,,,,,,,,,,,
,,,,,,,,2023-08-16_08h54.15.714,HF_wild_card,2022.2.4,Win32,11.99472232,5a3c0b842f91ec0001dc9bb4,64d2fd46c836a06233681665,64dc7f683620a5cc972da86b,,,,,,,,,,,,,,,,,,,,,,,,,,,,,,,,80,Door4,resources/DP.BMP,4,0,4,0,1,,,,,,,,,,,,,,,,,,,,,,,,,
,,,,,,,,2023-08-16_08h54.15.714,HF_wild_card,2022.2.4,Win32,11.99472232,5a3c0b842f91ec0001dc9bb4,64d2fd46c836a06233681665,64dc7f683620a5cc972da86b,,,,,,,,,,,,,,,,,,,,,,,,,,,,,,,,20,Door2,resources/DR.BMP,5,0,5,0,1,,,,,,,,,,,,,,,,,,,,,,,,,
,,,,,,,,2023-08-16_08h54.15.714,HF_wild_card,2022.2.4,Win32,11.99472232,5a3c0b842f91ec0001dc9bb4,64d2fd46c836a06233681665,64dc7f683620a5cc972da86b,,,,,,,,,,,,,,,,,,,,,,,,,,,,,,,,,,,,,,,,,,,,,,,,,,,,,,,,,,,,,,,,
,,,,,,,,2023-08-16_08h54.15.714,HF_wild_card,2022.2.4,Win32,11.99472232,5a3c0b842f91ec0001dc9bb4,64d2fd46c836a06233681665,64dc7f683620a5cc972da86b,,,,,,,,,,,,,,,,,,,,,,,,,,,,,,,,,,,,,,,,0,0,0,0,1,,,,,,,,,,,,,,,,,,,,
