Condition,Low fixed image (Door1),Low risky image (Door2),High fixed image (Door3),High risky image (Door4),NonExtreme Wild Card 1,NonExtreme Wild Card 2,,date,expName,psychopyVersion,OS,frameRate,PROLIFIC_PID,STUDY_ID,SESSION_ID,mouse_2.x,mouse_2.y,mouse_2.leftButton,mouse_2.midButton,mouse_2.rightButton,mouse_2.clicked_name,Trial Type,Left Option Image,Right Option Image,Chosen Door,mouse.x,mouse.y,mouse.leftButton,mouse.midButton,mouse.rightButton,mouse.time,mouse.clicked_name,Feedback,Cumulative Reward,Block,trial.thisRepN,trial.thisTrialN,trial.thisN,trial.thisIndex,trial.ran,blocks.thisRepN,blocks.thisTrialN,blocks.thisN,blocks.thisIndex,blocks.ran,Money conversion,First Outcome Reported,Shown Door (First Outcome),Displayed Image (First Outcome),outcomes.thisRepN,outcomes.thisTrialN,outcomes.thisN,outcomes.thisIndex,outcomes.ran,judgments.thisRepN,judgments.thisTrialN,judgments.thisN,judgments.thisIndex,judgments.ran,freqMouse.x,freqMouse.y,freqMouse.leftButton,freqMouse.midButton,freqMouse.rightButton,freqMouse.clicked_name,FQJ for first outcome,FQJ for second outcome,Shown Door,Displayed Image,trials.thisRepN,trials.thisTrialN,trials.thisN,trials.thisIndex,trials.ran,judgBlock.thisRepN,judgBlock.thisTrialN,judgBlock.thisN,judgBlock.thisIndex,judgBlock.ran
2,resources/DG.BMP,resources/DY.BMP,resources/DR.BMP,resources/DBN.BMP,resources/DB.BMP,resources/DP.BMP,,2023-08-16_08h07.45.702,HF_wild_card,2022.2.4,Win32,60.06006006,5a4e26a8f4c9dc0001b7a1b5,64d2fd46c836a06233681665,64dc75a355f70a6055c54717,,,,,,,,,,,,,,,,,,,,,,,,,,,,,,,,,,,,,,,,,,,,,,,,,,,,,,,,,,,,,,,,
,,,,,,,,2023-08-16_08h07.45.702,HF_wild_card,2022.2.4,Win32,60.06006006,5a4e26a8f4c9dc0001b7a1b5,64d2fd46c836a06233681665,64dc75a355f70a6055c54717,-0.00390625,-0.412760417,1,0,0,agree,,,,,,,,,,,,,,,,,,,,,,,,,,,,,,,,,,,,,,,,,,,,,,,,,,,,,,,,,,
,,,,,,,,2023-08-16_08h07.45.702,HF_wild_card,2022.2.4,Win32,60.06006006,5a4e26a8f4c9dc0001b7a1b5,64d2fd46c836a06233681665,64dc75a355f70a6055c54717,,,,,,,,,,,,,,,,,,,,,,,,,,,,,,,,,,,,,,,,,,,,,,,,,,,,,,,,,,,,,,,,
,,,,,,,,2023-08-16_08h07.45.702,HF_wild_card,2022.2.4,Win32,60.06006006,5a4e26a8f4c9dc0001b7a1b5,64d2fd46c836a06233681665,64dc75a355f70a6055c54717,,,,,,,decisionTrl,resources/DBN.BMP,resources/DP.BMP,WildCard_NonEx,0.28515625,-0.016927083,1,0,0,5.6672,optionRight,55,55,1,0,0,0,0,1,,,,,,,,,,,,,,,,,,,,,,,,,,,,,,,,,,,,,,,
,,,,,,,,2023-08-16_08h07.45.702,HF_wild_card,2022.2.4,Win32,60.06006006,5a4e26a8f4c9dc0001b7a1b5,64d2fd46c836a06233681665,64dc75a355f70a6055c54717,,,,,,,decisionTrl,resources/DG.BMP,resources/DY.BMP,Door1,-0.235677083,0.048177083,1,0,0,2.0663,optionLeft,30,85,1,1,0,1,0,1,,,,,,,,,,,,,,,,,,,,,,,,,,,,,,,,,,,,,,,
,,,,,,,,2023-08-16_08h07.45.702,HF_wild_card,2022.2.4,Win32,60.06006006,5a4e26a8f4c9dc0001b7a1b5,64d2fd46c836a06233681665,64dc75a355f70a6055c54717,,,,,,,decisionTrl,resources/DG.BMP,resources/DP.BMP,Door1,-0.260416667,-0.006510417,1,0,0,0.9736,optionLeft,30,115,1,2,0,2,0,1,,,,,,,,,,,,,,,,,,,,,,,,,,,,,,,,,,,,,,,
,,,,,,,,2023-08-16_08h07.45.702,HF_wild_card,2022.2.4,Win32,60.06006006,5a4e26a8f4c9dc0001b7a1b5,64d2fd46c836a06233681665,64dc75a355f70a6055c54717,,,,,,,decisionTrl,resources/DG.BMP,resources/DY.BMP,Door1,-0.21484375,-0.006510417,1,0,0,0.988,optionLeft,30,145,1,3,0,3,0,1,,,,,,,,,,,,,,,,,,,,,,,,,,,,,,,,,,,,,,,
,,,,,,,,2023-08-16_08h07.45.702,HF_wild_card,2022.2.4,Win32,60.06006006,5a4e26a8f4c9dc0001b7a1b5,64d2fd46c836a06233681665,64dc75a355f70a6055c54717,,,,,,,ctch,resources/DY.BMP,resources/DR.BMP,Door2,-0.188802083,-0.024739583,1,0,0,1.2418,optionLeft,40,185,1,4,0,4,0,1,,,,,,,,,,,,,,,,,,,,,,,,,,,,,,,,,,,,,,,
,,,,,,,,2023-08-16_08h07.45.702,HF_wild_card,2022.2.4,Win32,60.06006006,5a4e26a8f4c9dc0001b7a1b5,64d2fd46c836a06233681665,64dc75a355f70a6055c54717,,,,,,,ctch,resources/DBN.BMP,resources/DG.BMP,Door4,-0.1953125,0.04296875,1,0,0,1.7247,optionLeft,60,245,1,5,0,5,0,1,,,,,,,,,,,,,,,,,,,,,,,,,,,,,,,,,,,,,,,
,,,,,,,,2023-08-16_08h07.45.702,HF_wild_card,2022.2.4,Win32,60.06006006,5a4e26a8f4c9dc0001b7a1b5,64d2fd46c836a06233681665,64dc75a355f70a6055c54717,,,,,,,sngl,resources/Empty.png,resources/DBN.BMP,Door4,0.302083333,0.013020833,1,0,0,1.0593,optionRight,60,305,1,6,0,6,0,1,,,,,,,,,,,,,,,,,,,,,,,,,,,,,,,,,,,,,,,
,,,,,,,,2023-08-16_08h07.45.702,HF_wild_card,2022.2.4,Win32,60.06006006,5a4e26a8f4c9dc0001b7a1b5,64d2fd46c836a06233681665,64dc75a355f70a6055c54717,,,,,,,sngl,resources/DR.BMP,resources/Empty.png,Door3,-0.204427083,0.010416667,1,0,0,0.8357,optionLeft,70,375,1,7,0,7,0,1,,,,,,,,,,,,,,,,,,,,,,,,,,,,,,,,,,,,,,,
,,,,,,,,2023-08-16_08h07.45.702,HF_wild_card,2022.2.4,Win32,60.06006006,5a4e26a8f4c9dc0001b7a1b5,64d2fd46c836a06233681665,64dc75a355f70a6055c54717,,,,,,,decisionTrl,resources/DY.BMP,resources/DG.BMP,Door2,-0.177083333,-0.022135417,1,0,0,1.6378,optionLeft,20,395,1,8,0,8,0,1,,,,,,,,,,,,,,,,,,,,,,,,,,,,,,,,,,,,,,,
,,,,,,,,2023-08-16_08h07.45.702,HF_wild_card,2022.2.4,Win32,60.06006006,5a4e26a8f4c9dc0001b7a1b5,64d2fd46c836a06233681665,64dc75a355f70a6055c54717,,,,,,,ctch,resources/DY.BMP,resources/DR.BMP,Door3,0.25,0,1,0,0,1.5349,optionRight,70,465,1,9,0,9,0,1,,,,,,,,,,,,,,,,,,,,,,,,,,,,,,,,,,,,,,,
,,,,,,,,2023-08-16_08h07.45.702,HF_wild_card,2022.2.4,Win32,60.06006006,5a4e26a8f4c9dc0001b7a1b5,64d2fd46c836a06233681665,64dc75a355f70a6055c54717,,,,,,,decisionTrl,resources/DBN.BMP,resources/DR.BMP,Door3,0.201822917,0.018229167,1,0,0,1.2967,optionRight,70,535,1,10,0,10,0,1,,,,,,,,,,,,,,,,,,,,,,,,,,,,,,,,,,,,,,,
,,,,,,,,2023-08-16_08h07.45.702,HF_wild_card,2022.2.4,Win32,60.06006006,5a4e26a8f4c9dc0001b7a1b5,64d2fd46c836a06233681665,64dc75a355f70a6055c54717,,,,,,,decisionTrl,resources/DP.BMP,resources/DBN.BMP,Door4,0.151041667,0.063802083,1,0,0,2.706,optionRight,80,615,1,11,0,11,0,1,,,,,,,,,,,,,,,,,,,,,,,,,,,,,,,,,,,,,,,
,,,,,,,,2023-08-16_08h07.45.702,HF_wild_card,2022.2.4,Win32,60.06006006,5a4e26a8f4c9dc0001b7a1b5,64d2fd46c836a06233681665,64dc75a355f70a6055c54717,,,,,,,decisionTrl,resources/DR.BMP,resources/DBN.BMP,Door4,0.161458333,0.015625,1,0,0,2.2994,optionRight,60,675,1,12,0,12,0,1,,,,,,,,,,,,,,,,,,,,,,,,,,,,,,,,,,,,,,,
,,,,,,,,2023-08-16_08h07.45.702,HF_wild_card,2022.2.4,Win32,60.06006006,5a4e26a8f4c9dc0001b7a1b5,64d2fd46c836a06233681665,64dc75a355f70a6055c54717,,,,,,,sngl,resources/Empty.png,resources/DP.BMP,WildCard_NonEx,0.165364583,0.00390625,1,0,0,1.3665,optionRight,55,730,1,13,0,13,0,1,,,,,,,,,,,,,,,,,,,,,,,,,,,,,,,,,,,,,,,
,,,,,,,,2023-08-16_08h07.45.702,HF_wild_card,2022.2.4,Win32,60.06006006,5a4e26a8f4c9dc0001b7a1b5,64d2fd46c836a06233681665,64dc75a355f70a6055c54717,,,,,,,sngl,resources/DBN.BMP,resources/Empty.png,Door4,-0.165364583,-0.026041667,1,0,0,0.788,optionLeft,80,810,1,14,0,14,0,1,,,,,,,,,,,,,,,,,,,,,,,,,,,,,,,,,,,,,,,
,,,,,,,,2023-08-16_08h07.45.702,HF_wild_card,2022.2.4,Win32,60.06006006,5a4e26a8f4c9dc0001b7a1b5,64d2fd46c836a06233681665,64dc75a355f70a6055c54717,,,,,,,decisionTrl,resources/DBN.BMP,resources/DR.BMP,Door4,-0.19921875,0.022135417,1,0,0,2.7166,optionLeft,80,890,1,15,0,15,0,1,,,,,,,,,,,,,,,,,,,,,,,,,,,,,,,,,,,,,,,
,,,,,,,,2023-08-16_08h07.45.702,HF_wild_card,2022.2.4,Win32,60.06006006,5a4e26a8f4c9dc0001b7a1b5,64d2fd46c836a06233681665,64dc75a355f70a6055c54717,,,,,,,sngl,resources/Empty.png,resources/DP.BMP,WildCard_NonEx,0.153645833,0.006510417,1,0,0,1.1304,optionRight,45,935,1,16,0,16,0,1,,,,,,,,,,,,,,,,,,,,,,,,,,,,,,,,,,,,,,,
,,,,,,,,2023-08-16_08h07.45.702,HF_wild_card,2022.2.4,Win32,60.06006006,5a4e26a8f4c9dc0001b7a1b5,64d2fd46c836a06233681665,64dc75a355f70a6055c54717,,,,,,,decisionTrl,resources/DR.BMP,resources/DBN.BMP,Door3,-0.15625,0.048177083,1,0,0,1.8313,optionLeft,70,1005,1,17,0,17,0,1,,,,,,,,,,,,,,,,,,,,,,,,,,,,,,,,,,,,,,,
,,,,,,,,2023-08-16_08h07.45.702,HF_wild_card,2022.2.4,Win32,60.06006006,5a4e26a8f4c9dc0001b7a1b5,64d2fd46c836a06233681665,64dc75a355f70a6055c54717,,,,,,,decisionTrl,resources/DR.BMP,resources/DBN.BMP,Door3,-0.140625,-0.014322917,1,0,0,3.7104,optionLeft,70,1075,1,18,0,18,0,1,,,,,,,,,,,,,,,,,,,,,,,,,,,,,,,,,,,,,,,
,,,,,,,,2023-08-16_08h07.45.702,HF_wild_card,2022.2.4,Win32,60.06006006,5a4e26a8f4c9dc0001b7a1b5,64d2fd46c836a06233681665,64dc75a355f70a6055c54717,,,,,,,decisionTrl,resources/DY.BMP,resources/DP.BMP,WildCard_NonEx,0.143229167,0.022135417,1,0,0,1.8692,optionRight,45,1120,1,19,0,19,0,1,,,,,,,,,,,,,,,,,,,,,,,,,,,,,,,,,,,,,,,
,,,,,,,,2023-08-16_08h07.45.702,HF_wild_card,2022.2.4,Win32,60.06006006,5a4e26a8f4c9dc0001b7a1b5,64d2fd46c836a06233681665,64dc75a355f70a6055c54717,,,,,,,sngl,resources/Empty.png,resources/DR.BMP,Door3,-0.016927083,-0.001302083,1,0,0,0.8583,optionRight,70,1190,1,20,0,20,0,1,,,,,,,,,,,,,,,,,,,,,,,,,,,,,,,,,,,,,,,
,,,,,,,,2023-08-16_08h07.45.702,HF_wild_card,2022.2.4,Win32,60.06006006,5a4e26a8f4c9dc0001b7a1b5,64d2fd46c836a06233681665,64dc75a355f70a6055c54717,,,,,,,sngl,resources/Empty.png,resources/DG.BMP,Door1,0.247395833,0.005208333,1,0,0,0.9851,optionRight,30,1220,1,21,0,21,0,1,,,,,,,,,,,,,,,,,,,,,,,,,,,,,,,,,,,,,,,
,,,,,,,,2023-08-16_08h07.45.702,HF_wild_card,2022.2.4,Win32,60.06006006,5a4e26a8f4c9dc0001b7a1b5,64d2fd46c836a06233681665,64dc75a355f70a6055c54717,,,,,,,decisionTrl,resources/DY.BMP,resources/DG.BMP,Door2,-0.1875,0.03125,1,0,0,1.5231,optionLeft,40,1260,1,22,0,22,0,1,,,,,,,,,,,,,,,,,,,,,,,,,,,,,,,,,,,,,,,
,,,,,,,,2023-08-16_08h07.45.702,HF_wild_card,2022.2.4,Win32,60.06006006,5a4e26a8f4c9dc0001b7a1b5,64d2fd46c836a06233681665,64dc75a355f70a6055c54717,,,,,,,sngl,resources/DP.BMP,resources/Empty.png,WildCard_NonEx,-0.147135417,0.0234375,1,0,0,0.9328,optionLeft,55,1315,1,23,0,23,0,1,,,,,,,,,,,,,,,,,,,,,,,,,,,,,,,,,,,,,,,
,,,,,,,,2023-08-16_08h07.45.702,HF_wild_card,2022.2.4,Win32,60.06006006,5a4e26a8f4c9dc0001b7a1b5,64d2fd46c836a06233681665,64dc75a355f70a6055c54717,,,,,,,ctch,resources/DR.BMP,resources/DY.BMP,Door3,-0.147135417,0.010416667,1,0,0,1.1303,optionLeft,70,1385,1,24,0,24,0,1,,,,,,,,,,,,,,,,,,,,,,,,,,,,,,,,,,,,,,,
,,,,,,,,2023-08-16_08h07.45.702,HF_wild_card,2022.2.4,Win32,60.06006006,5a4e26a8f4c9dc0001b7a1b5,64d2fd46c836a06233681665,64dc75a355f70a6055c54717,,,,,,,decisionTrl,resources/DP.BMP,resources/DR.BMP,Door3,0.143229167,0.0078125,1,0,0,1.51,optionRight,70,1455,1,25,0,25,0,1,,,,,,,,,,,,,,,,,,,,,,,,,,,,,,,,,,,,,,,
,,,,,,,,2023-08-16_08h07.45.702,HF_wild_card,2022.2.4,Win32,60.06006006,5a4e26a8f4c9dc0001b7a1b5,64d2fd46c836a06233681665,64dc75a355f70a6055c54717,,,,,,,ctch,resources/DBN.BMP,resources/DG.BMP,Door4,-0.161458333,0.010416667,1,0,0,0.8969,optionLeft,80,1535,1,26,0,26,0,1,,,,,,,,,,,,,,,,,,,,,,,,,,,,,,,,,,,,,,,
,,,,,,,,2023-08-16_08h07.45.702,HF_wild_card,2022.2.4,Win32,60.06006006,5a4e26a8f4c9dc0001b7a1b5,64d2fd46c836a06233681665,64dc75a355f70a6055c54717,,,,,,,sngl,resources/DG.BMP,resources/Empty.png,Door1,-0.188802083,0.0234375,1,0,0,0.8813,optionLeft,30,1565,1,27,0,27,0,1,,,,,,,,,,,,,,,,,,,,,,,,,,,,,,,,,,,,,,,
,,,,,,,,2023-08-16_08h07.45.702,HF_wild_card,2022.2.4,Win32,60.06006006,5a4e26a8f4c9dc0001b7a1b5,64d2fd46c836a06233681665,64dc75a355f70a6055c54717,,,,,,,sngl,resources/DP.BMP,resources/Empty.png,WildCard_NonEx,-0.173177083,0.009114583,1,0,0,0.6965,optionLeft,45,1610,1,28,0,28,0,1,,,,,,,,,,,,,,,,,,,,,,,,,,,,,,,,,,,,,,,
,,,,,,,,2023-08-16_08h07.45.702,HF_wild_card,2022.2.4,Win32,60.06006006,5a4e26a8f4c9dc0001b7a1b5,64d2fd46c836a06233681665,64dc75a355f70a6055c54717,,,,,,,sngl,resources/DY.BMP,resources/Empty.png,Door2,-0.17578125,0.018229167,1,0,0,0.6353,optionLeft,40,1650,1,29,0,29,0,1,,,,,,,,,,,,,,,,,,,,,,,,,,,,,,,,,,,,,,,
,,,,,,,,2023-08-16_08h07.45.702,HF_wild_card,2022.2.4,Win32,60.06006006,5a4e26a8f4c9dc0001b7a1b5,64d2fd46c836a06233681665,64dc75a355f70a6055c54717,,,,,,,decisionTrl,resources/DG.BMP,resources/DY.BMP,Door1,-0.141927083,-0.013020833,1,0,0,1.7806,optionLeft,30,1680,1,30,0,30,0,1,,,,,,,,,,,,,,,,,,,,,,,,,,,,,,,,,,,,,,,
,,,,,,,,2023-08-16_08h07.45.702,HF_wild_card,2022.2.4,Win32,60.06006006,5a4e26a8f4c9dc0001b7a1b5,64d2fd46c836a06233681665,64dc75a355f70a6055c54717,,,,,,,decisionTrl,resources/DP.BMP,resources/DG.BMP,WildCard_NonEx,-0.177083333,0.01953125,1,0,0,1.2584,optionLeft,45,1725,1,31,0,31,0,1,,,,,,,,,,,,,,,,,,,,,,,,,,,,,,,,,,,,,,,
,,,,,,,,2023-08-16_08h07.45.702,HF_wild_card,2022.2.4,Win32,60.06006006,5a4e26a8f4c9dc0001b7a1b5,64d2fd46c836a06233681665,64dc75a355f70a6055c54717,,,,,,,decisionTrl,resources/DP.BMP,resources/DY.BMP,WildCard_NonEx,-0.208333333,-0.002604167,1,0,0,1.2484,optionLeft,55,1780,1,32,0,32,0,1,,,,,,,,,,,,,,,,,,,,,,,,,,,,,,,,,,,,,,,
,,,,,,,,2023-08-16_08h07.45.702,HF_wild_card,2022.2.4,Win32,60.06006006,5a4e26a8f4c9dc0001b7a1b5,64d2fd46c836a06233681665,64dc75a355f70a6055c54717,,,,,,,decisionTrl,resources/DBN.BMP,resources/DR.BMP,Door4,-0.14453125,-0.0234375,1,0,0,0.8802,optionLeft,80,1860,1,33,0,33,0,1,,,,,,,,,,,,,,,,,,,,,,,,,,,,,,,,,,,,,,,
,,,,,,,,2023-08-16_08h07.45.702,HF_wild_card,2022.2.4,Win32,60.06006006,5a4e26a8f4c9dc0001b7a1b5,64d2fd46c836a06233681665,64dc75a355f70a6055c54717,,,,,,,decisionTrl,resources/DR.BMP,resources/DP.BMP,Door3,-0.138020833,-0.045572917,1,0,0,1.9019,optionLeft,70,1930,1,34,0,34,0,1,,,,,,,,,,,,,,,,,,,,,,,,,,,,,,,,,,,,,,,
,,,,,,,,2023-08-16_08h07.45.702,HF_wild_card,2022.2.4,Win32,60.06006006,5a4e26a8f4c9dc0001b7a1b5,64d2fd46c836a06233681665,64dc75a355f70a6055c54717,,,,,,,ctch,resources/DG.BMP,resources/DBN.BMP,Door4,0.154947917,0.013020833,1,0,0,1.0411,optionRight,80,2010,1,35,0,35,0,1,,,,,,,,,,,,,,,,,,,,,,,,,,,,,,,,,,,,,,,
,,,,,,,,2023-08-16_08h07.45.702,HF_wild_card,2022.2.4,Win32,60.06006006,5a4e26a8f4c9dc0001b7a1b5,64d2fd46c836a06233681665,64dc75a355f70a6055c54717,,,,,,,decisionTrl,resources/DR.BMP,resources/DBN.BMP,Door4,0.2265625,0.01953125,1,0,0,0.8324,optionRight,80,2090,1,36,0,36,0,1,,,,,,,,,,,,,,,,,,,,,,,,,,,,,,,,,,,,,,,
,,,,,,,,2023-08-16_08h07.45.702,HF_wild_card,2022.2.4,Win32,60.06006006,5a4e26a8f4c9dc0001b7a1b5,64d2fd46c836a06233681665,64dc75a355f70a6055c54717,,,,,,,decisionTrl,resources/DBN.BMP,resources/DR.BMP,Door4,-0.184895833,0.024739583,1,0,0,0.9249,optionLeft,60,2150,1,37,0,37,0,1,,,,,,,,,,,,,,,,,,,,,,,,,,,,,,,,,,,,,,,
,,,,,,,,2023-08-16_08h07.45.702,HF_wild_card,2022.2.4,Win32,60.06006006,5a4e26a8f4c9dc0001b7a1b5,64d2fd46c836a06233681665,64dc75a355f70a6055c54717,,,,,,,sngl,resources/Empty.png,resources/DY.BMP,Door2,0.209635417,0.01171875,1,0,0,0.7628,optionRight,20,2170,1,38,0,38,0,1,,,,,,,,,,,,,,,,,,,,,,,,,,,,,,,,,,,,,,,
,,,,,,,,2023-08-16_08h07.45.702,HF_wild_card,2022.2.4,Win32,60.06006006,5a4e26a8f4c9dc0001b7a1b5,64d2fd46c836a06233681665,64dc75a355f70a6055c54717,,,,,,,decisionTrl,resources/DG.BMP,resources/DY.BMP,Door1,-0.17578125,0.026041667,1,0,0,1.0808,optionLeft,30,2200,1,39,0,39,0,1,,,,,,,,,,,,,,,,,,,,,,,,,,,,,,,,,,,,,,,
,,,,,,,,2023-08-16_08h07.45.702,HF_wild_card,2022.2.4,Win32,60.06006006,5a4e26a8f4c9dc0001b7a1b5,64d2fd46c836a06233681665,64dc75a355f70a6055c54717,,,,,,,ctch,resources/DG.BMP,resources/DBN.BMP,Door4,0.368489583,0.092447917,1,0,0,0.809,optionRight,60,2260,1,40,0,40,0,1,,,,,,,,,,,,,,,,,,,,,,,,,,,,,,,,,,,,,,,
,,,,,,,,2023-08-16_08h07.45.702,HF_wild_card,2022.2.4,Win32,60.06006006,5a4e26a8f4c9dc0001b7a1b5,64d2fd46c836a06233681665,64dc75a355f70a6055c54717,,,,,,,decisionTrl,resources/DY.BMP,resources/DG.BMP,Door2,-0.196614583,0.013020833,1,0,0,0.9008,optionLeft,20,2280,1,41,0,41,0,1,,,,,,,,,,,,,,,,,,,,,,,,,,,,,,,,,,,,,,,
,,,,,,,,2023-08-16_08h07.45.702,HF_wild_card,2022.2.4,Win32,60.06006006,5a4e26a8f4c9dc0001b7a1b5,64d2fd46c836a06233681665,64dc75a355f70a6055c54717,,,,,,,decisionTrl,resources/DY.BMP,resources/DG.BMP,Door1,0.186197917,0.009114583,1,0,0,1.0595,optionRight,30,2310,1,42,0,42,0,1,,,,,,,,,,,,,,,,,,,,,,,,,,,,,,,,,,,,,,,
,,,,,,,,2023-08-16_08h07.45.702,HF_wild_card,2022.2.4,Win32,60.06006006,5a4e26a8f4c9dc0001b7a1b5,64d2fd46c836a06233681665,64dc75a355f70a6055c54717,,,,,,,ctch,resources/DR.BMP,resources/DY.BMP,Door3,-0.194010417,0.036458333,1,0,0,1.2344,optionLeft,70,2380,1,43,0,43,0,1,,,,,,,,,,,,,,,,,,,,,,,,,,,,,,,,,,,,,,,
,,,,,,,,2023-08-16_08h07.45.702,HF_wild_card,2022.2.4,Win32,60.06006006,5a4e26a8f4c9dc0001b7a1b5,64d2fd46c836a06233681665,64dc75a355f70a6055c54717,,,,,,,,,,,,,,,,,,,,,,,,,,0,0,0,0,1,,,,,,,,,,,,,,,,,,,,,,,,,,,,,,,,,,
,,,,,,,,2023-08-16_08h07.45.702,HF_wild_card,2022.2.4,Win32,60.06006006,5a4e26a8f4c9dc0001b7a1b5,64d2fd46c836a06233681665,64dc75a355f70a6055c54717,,,,,,,decisionTrl,resources/DR.BMP,resources/DBN.BMP,Door4,0.2109375,0.018229167,1,0,0,1.5143,optionRight,60,2440,2,0,0,0,0,1,,,,,,,,,,,,,,,,,,,,,,,,,,,,,,,,,,,,,,,
,,,,,,,,2023-08-16_08h07.45.702,HF_wild_card,2022.2.4,Win32,60.06006006,5a4e26a8f4c9dc0001b7a1b5,64d2fd46c836a06233681665,64dc75a355f70a6055c54717,,,,,,,ctch,resources/DR.BMP,resources/DY.BMP,Door3,-0.109375,-0.028645833,1,0,0,1.271,optionLeft,70,2510,2,1,0,1,0,1,,,,,,,,,,,,,,,,,,,,,,,,,,,,,,,,,,,,,,,
,,,,,,,,2023-08-16_08h07.45.702,HF_wild_card,2022.2.4,Win32,60.06006006,5a4e26a8f4c9dc0001b7a1b5,64d2fd46c836a06233681665,64dc75a355f70a6055c54717,,,,,,,decisionTrl,resources/DP.BMP,resources/DBN.BMP,Door4,0.162760417,0.033854167,1,0,0,1.2645,optionRight,60,2570,2,2,0,2,0,1,,,,,,,,,,,,,,,,,,,,,,,,,,,,,,,,,,,,,,,
,,,,,,,,2023-08-16_08h07.45.702,HF_wild_card,2022.2.4,Win32,60.06006006,5a4e26a8f4c9dc0001b7a1b5,64d2fd46c836a06233681665,64dc75a355f70a6055c54717,,,,,,,decisionTrl,resources/DP.BMP,resources/DY.BMP,WildCard_NonEx,-0.16015625,0.046875,1,0,0,1.131,optionLeft,55,2625,2,3,0,3,0,1,,,,,,,,,,,,,,,,,,,,,,,,,,,,,,,,,,,,,,,
,,,,,,,,2023-08-16_08h07.45.702,HF_wild_card,2022.2.4,Win32,60.06006006,5a4e26a8f4c9dc0001b7a1b5,64d2fd46c836a06233681665,64dc75a355f70a6055c54717,,,,,,,decisionTrl,resources/DP.BMP,resources/DR.BMP,WildCard_NonEx,-0.19921875,-0.002604167,1,0,0,0.9929,optionLeft,45,2670,2,4,0,4,0,1,,,,,,,,,,,,,,,,,,,,,,,,,,,,,,,,,,,,,,,
,,,,,,,,2023-08-16_08h07.45.702,HF_wild_card,2022.2.4,Win32,60.06006006,5a4e26a8f4c9dc0001b7a1b5,64d2fd46c836a06233681665,64dc75a355f70a6055c54717,,,,,,,decisionTrl,resources/DG.BMP,resources/DY.BMP,Door1,-0.190104167,0.009114583,0,0,1,1.4087,optionLeft,30,2700,2,5,0,5,0,1,,,,,,,,,,,,,,,,,,,,,,,,,,,,,,,,,,,,,,,
,,,,,,,,2023-08-16_08h07.45.702,HF_wild_card,2022.2.4,Win32,60.06006006,5a4e26a8f4c9dc0001b7a1b5,64d2fd46c836a06233681665,64dc75a355f70a6055c54717,,,,,,,sngl,resources/Empty.png,resources/DR.BMP,Door3,0.229166667,0.002604167,1,0,0,0.9329,optionRight,70,2770,2,6,0,6,0,1,,,,,,,,,,,,,,,,,,,,,,,,,,,,,,,,,,,,,,,
,,,,,,,,2023-08-16_08h07.45.702,HF_wild_card,2022.2.4,Win32,60.06006006,5a4e26a8f4c9dc0001b7a1b5,64d2fd46c836a06233681665,64dc75a355f70a6055c54717,,,,,,,sngl,resources/Empty.png,resources/DBN.BMP,Door4,0.209635417,0.041666667,1,0,0,0.7684,optionRight,80,2850,2,7,0,7,0,1,,,,,,,,,,,,,,,,,,,,,,,,,,,,,,,,,,,,,,,
,,,,,,,,2023-08-16_08h07.45.702,HF_wild_card,2022.2.4,Win32,60.06006006,5a4e26a8f4c9dc0001b7a1b5,64d2fd46c836a06233681665,64dc75a355f70a6055c54717,,,,,,,sngl,resources/DY.BMP,resources/Empty.png,Door2,-0.205729167,-0.02734375,1,0,0,1.1755,optionLeft,20,2870,2,8,0,8,0,1,,,,,,,,,,,,,,,,,,,,,,,,,,,,,,,,,,,,,,,
,,,,,,,,2023-08-16_08h07.45.702,HF_wild_card,2022.2.4,Win32,60.06006006,5a4e26a8f4c9dc0001b7a1b5,64d2fd46c836a06233681665,64dc75a355f70a6055c54717,,,,,,,ctch,resources/DG.BMP,resources/DBN.BMP,Door4,0.1328125,0.010416667,1,0,0,1.2625,optionRight,60,2930,2,9,0,9,0,1,,,,,,,,,,,,,,,,,,,,,,,,,,,,,,,,,,,,,,,
,,,,,,,,2023-08-16_08h07.45.702,HF_wild_card,2022.2.4,Win32,60.06006006,5a4e26a8f4c9dc0001b7a1b5,64d2fd46c836a06233681665,64dc75a355f70a6055c54717,,,,,,,decisionTrl,resources/DG.BMP,resources/DY.BMP,Door1,-0.21875,-0.02734375,1,0,0,1.086,optionLeft,30,2960,2,10,0,10,0,1,,,,,,,,,,,,,,,,,,,,,,,,,,,,,,,,,,,,,,,
,,,,,,,,2023-08-16_08h07.45.702,HF_wild_card,2022.2.4,Win32,60.06006006,5a4e26a8f4c9dc0001b7a1b5,64d2fd46c836a06233681665,64dc75a355f70a6055c54717,,,,,,,decisionTrl,resources/DR.BMP,resources/DBN.BMP,Door4,0.162760417,0.104166667,1,0,0,1.2387,optionRight,60,3020,2,11,0,11,0,1,,,,,,,,,,,,,,,,,,,,,,,,,,,,,,,,,,,,,,,
,,,,,,,,2023-08-16_08h07.45.702,HF_wild_card,2022.2.4,Win32,60.06006006,5a4e26a8f4c9dc0001b7a1b5,64d2fd46c836a06233681665,64dc75a355f70a6055c54717,,,,,,,decisionTrl,resources/DBN.BMP,resources/DP.BMP,Door4,-0.154947917,-0.01171875,1,0,0,1.8564,optionLeft,80,3100,2,12,0,12,0,1,,,,,,,,,,,,,,,,,,,,,,,,,,,,,,,,,,,,,,,
,,,,,,,,2023-08-16_08h07.45.702,HF_wild_card,2022.2.4,Win32,60.06006006,5a4e26a8f4c9dc0001b7a1b5,64d2fd46c836a06233681665,64dc75a355f70a6055c54717,,,,,,,decisionTrl,resources/DY.BMP,resources/DG.BMP,Door1,0.225260417,0.065104167,1,0,0,1.5429,optionRight,30,3130,2,13,0,13,0,1,,,,,,,,,,,,,,,,,,,,,,,,,,,,,,,,,,,,,,,
,,,,,,,,2023-08-16_08h07.45.702,HF_wild_card,2022.2.4,Win32,60.06006006,5a4e26a8f4c9dc0001b7a1b5,64d2fd46c836a06233681665,64dc75a355f70a6055c54717,,,,,,,decisionTrl,resources/DY.BMP,resources/DG.BMP,Door1,0.138020833,-0.03125,1,0,0,1.6758,optionRight,30,3160,2,14,0,14,0,1,,,,,,,,,,,,,,,,,,,,,,,,,,,,,,,,,,,,,,,
,,,,,,,,2023-08-16_08h07.45.702,HF_wild_card,2022.2.4,Win32,60.06006006,5a4e26a8f4c9dc0001b7a1b5,64d2fd46c836a06233681665,64dc75a355f70a6055c54717,,,,,,,decisionTrl,resources/DP.BMP,resources/DG.BMP,WildCard_NonEx,-0.161458333,0.02734375,1,0,0,0.9902,optionLeft,45,3205,2,15,0,15,0,1,,,,,,,,,,,,,,,,,,,,,,,,,,,,,,,,,,,,,,,
,,,,,,,,2023-08-16_08h07.45.702,HF_wild_card,2022.2.4,Win32,60.06006006,5a4e26a8f4c9dc0001b7a1b5,64d2fd46c836a06233681665,64dc75a355f70a6055c54717,,,,,,,ctch,resources/DR.BMP,resources/DY.BMP,Door3,-0.220052083,0.002604167,1,0,0,0.9941,optionLeft,70,3275,2,16,0,16,0,1,,,,,,,,,,,,,,,,,,,,,,,,,,,,,,,,,,,,,,,
,,,,,,,,2023-08-16_08h07.45.702,HF_wild_card,2022.2.4,Win32,60.06006006,5a4e26a8f4c9dc0001b7a1b5,64d2fd46c836a06233681665,64dc75a355f70a6055c54717,,,,,,,sngl,resources/Empty.png,resources/DP.BMP,WildCard_NonEx,0.225260417,0.002604167,1,0,0,0.8146,optionRight,55,3330,2,17,0,17,0,1,,,,,,,,,,,,,,,,,,,,,,,,,,,,,,,,,,,,,,,
,,,,,,,,2023-08-16_08h07.45.702,HF_wild_card,2022.2.4,Win32,60.06006006,5a4e26a8f4c9dc0001b7a1b5,64d2fd46c836a06233681665,64dc75a355f70a6055c54717,,,,,,,decisionTrl,resources/DR.BMP,resources/DBN.BMP,Door4,0.134114583,0.0390625,1,0,0,0.8919,optionRight,60,3390,2,18,0,18,0,1,,,,,,,,,,,,,,,,,,,,,,,,,,,,,,,,,,,,,,,
,,,,,,,,2023-08-16_08h07.45.702,HF_wild_card,2022.2.4,Win32,60.06006006,5a4e26a8f4c9dc0001b7a1b5,64d2fd46c836a06233681665,64dc75a355f70a6055c54717,,,,,,,decisionTrl,resources/DG.BMP,resources/DP.BMP,Door1,-0.165364583,0.052083333,1,0,0,0.8947,optionLeft,30,3420,2,19,0,19,0,1,,,,,,,,,,,,,,,,,,,,,,,,,,,,,,,,,,,,,,,
,,,,,,,,2023-08-16_08h07.45.702,HF_wild_card,2022.2.4,Win32,60.06006006,5a4e26a8f4c9dc0001b7a1b5,64d2fd46c836a06233681665,64dc75a355f70a6055c54717,,,,,,,ctch,resources/DY.BMP,resources/DR.BMP,Door3,0.180989583,0.080729167,1,0,0,1.0249,optionRight,70,3490,2,20,0,20,0,1,,,,,,,,,,,,,,,,,,,,,,,,,,,,,,,,,,,,,,,
,,,,,,,,2023-08-16_08h07.45.702,HF_wild_card,2022.2.4,Win32,60.06006006,5a4e26a8f4c9dc0001b7a1b5,64d2fd46c836a06233681665,64dc75a355f70a6055c54717,,,,,,,decisionTrl,resources/DY.BMP,resources/DP.BMP,WildCard_NonEx,0.10546875,0.005208333,1,0,0,1.1505,optionRight,55,3545,2,21,0,21,0,1,,,,,,,,,,,,,,,,,,,,,,,,,,,,,,,,,,,,,,,
,,,,,,,,2023-08-16_08h07.45.702,HF_wild_card,2022.2.4,Win32,60.06006006,5a4e26a8f4c9dc0001b7a1b5,64d2fd46c836a06233681665,64dc75a355f70a6055c54717,,,,,,,sngl,resources/Empty.png,resources/DG.BMP,Door1,0.154947917,0,1,0,0,0.673,optionRight,30,3575,2,22,0,22,0,1,,,,,,,,,,,,,,,,,,,,,,,,,,,,,,,,,,,,,,,
,,,,,,,,2023-08-16_08h07.45.702,HF_wild_card,2022.2.4,Win32,60.06006006,5a4e26a8f4c9dc0001b7a1b5,64d2fd46c836a06233681665,64dc75a355f70a6055c54717,,,,,,,decisionTrl,resources/DBN.BMP,resources/DR.BMP,Door4,-0.217447917,0.03515625,1,0,0,0.616,optionLeft,60,3635,2,23,0,23,0,1,,,,,,,,,,,,,,,,,,,,,,,,,,,,,,,,,,,,,,,
,,,,,,,,2023-08-16_08h07.45.702,HF_wild_card,2022.2.4,Win32,60.06006006,5a4e26a8f4c9dc0001b7a1b5,64d2fd46c836a06233681665,64dc75a355f70a6055c54717,,,,,,,decisionTrl,resources/DR.BMP,resources/DBN.BMP,Door4,0.17578125,0,1,0,0,0.8493,optionRight,80,3715,2,24,0,24,0,1,,,,,,,,,,,,,,,,,,,,,,,,,,,,,,,,,,,,,,,
,,,,,,,,2023-08-16_08h07.45.702,HF_wild_card,2022.2.4,Win32,60.06006006,5a4e26a8f4c9dc0001b7a1b5,64d2fd46c836a06233681665,64dc75a355f70a6055c54717,,,,,,,decisionTrl,resources/DBN.BMP,resources/DR.BMP,Door4,-0.18359375,0.022135417,1,0,0,0.6856,optionLeft,60,3775,2,25,0,25,0,1,,,,,,,,,,,,,,,,,,,,,,,,,,,,,,,,,,,,,,,
,,,,,,,,2023-08-16_08h07.45.702,HF_wild_card,2022.2.4,Win32,60.06006006,5a4e26a8f4c9dc0001b7a1b5,64d2fd46c836a06233681665,64dc75a355f70a6055c54717,,,,,,,decisionTrl,resources/DBN.BMP,resources/DR.BMP,Door4,-0.196614583,0.01171875,1,0,0,0.9918,optionLeft,80,3855,2,26,0,26,0,1,,,,,,,,,,,,,,,,,,,,,,,,,,,,,,,,,,,,,,,
,,,,,,,,2023-08-16_08h07.45.702,HF_wild_card,2022.2.4,Win32,60.06006006,5a4e26a8f4c9dc0001b7a1b5,64d2fd46c836a06233681665,64dc75a355f70a6055c54717,,,,,,,decisionTrl,resources/DR.BMP,resources/DP.BMP,WildCard_NonEx,0.174479167,0.005208333,1,0,0,0.9494,optionRight,55,3910,2,27,0,27,0,1,,,,,,,,,,,,,,,,,,,,,,,,,,,,,,,,,,,,,,,
,,,,,,,,2023-08-16_08h07.45.702,HF_wild_card,2022.2.4,Win32,60.06006006,5a4e26a8f4c9dc0001b7a1b5,64d2fd46c836a06233681665,64dc75a355f70a6055c54717,,,,,,,sngl,resources/DP.BMP,resources/Empty.png,WildCard_NonEx,-0.209635417,-0.033854167,1,0,0,0.7305,optionLeft,45,3955,2,28,0,28,0,1,,,,,,,,,,,,,,,,,,,,,,,,,,,,,,,,,,,,,,,
,,,,,,,,2023-08-16_08h07.45.702,HF_wild_card,2022.2.4,Win32,60.06006006,5a4e26a8f4c9dc0001b7a1b5,64d2fd46c836a06233681665,64dc75a355f70a6055c54717,,,,,,,ctch,resources/DBN.BMP,resources/DG.BMP,Door4,-0.184895833,0.028645833,1,0,0,1.1638,optionLeft,60,4015,2,29,0,29,0,1,,,,,,,,,,,,,,,,,,,,,,,,,,,,,,,,,,,,,,,
,,,,,,,,2023-08-16_08h07.45.702,HF_wild_card,2022.2.4,Win32,60.06006006,5a4e26a8f4c9dc0001b7a1b5,64d2fd46c836a06233681665,64dc75a355f70a6055c54717,,,,,,,decisionTrl,resources/DY.BMP,resources/DG.BMP,Door1,0.16796875,0.048177083,1,0,0,1.026,optionRight,30,4045,2,30,0,30,0,1,,,,,,,,,,,,,,,,,,,,,,,,,,,,,,,,,,,,,,,
,,,,,,,,2023-08-16_08h07.45.702,HF_wild_card,2022.2.4,Win32,60.06006006,5a4e26a8f4c9dc0001b7a1b5,64d2fd46c836a06233681665,64dc75a355f70a6055c54717,,,,,,,ctch,resources/DBN.BMP,resources/DG.BMP,Door4,-0.180989583,0.03125,1,0,0,0.5922,optionLeft,60,4105,2,31,0,31,0,1,,,,,,,,,,,,,,,,,,,,,,,,,,,,,,,,,,,,,,,
,,,,,,,,2023-08-16_08h07.45.702,HF_wild_card,2022.2.4,Win32,60.06006006,5a4e26a8f4c9dc0001b7a1b5,64d2fd46c836a06233681665,64dc75a355f70a6055c54717,,,,,,,decisionTrl,resources/DG.BMP,resources/DY.BMP,Door1,-0.231770833,-0.026041667,1,0,0,0.6986,optionLeft,30,4135,2,32,0,32,0,1,,,,,,,,,,,,,,,,,,,,,,,,,,,,,,,,,,,,,,,
,,,,,,,,2023-08-16_08h07.45.702,HF_wild_card,2022.2.4,Win32,60.06006006,5a4e26a8f4c9dc0001b7a1b5,64d2fd46c836a06233681665,64dc75a355f70a6055c54717,,,,,,,sngl,resources/Empty.png,resources/DY.BMP,Door2,0.173177083,-0.009114583,1,0,0,0.5592,optionRight,40,4175,2,33,0,33,0,1,,,,,,,,,,,,,,,,,,,,,,,,,,,,,,,,,,,,,,,
,,,,,,,,2023-08-16_08h07.45.702,HF_wild_card,2022.2.4,Win32,60.06006006,5a4e26a8f4c9dc0001b7a1b5,64d2fd46c836a06233681665,64dc75a355f70a6055c54717,,,,,,,ctch,resources/DG.BMP,resources/DBN.BMP,Door4,0.184895833,0.024739583,1,0,0,0.7248,optionRight,80,4255,2,34,0,34,0,1,,,,,,,,,,,,,,,,,,,,,,,,,,,,,,,,,,,,,,,
,,,,,,,,2023-08-16_08h07.45.702,HF_wild_card,2022.2.4,Win32,60.06006006,5a4e26a8f4c9dc0001b7a1b5,64d2fd46c836a06233681665,64dc75a355f70a6055c54717,,,,,,,sngl,resources/DG.BMP,resources/Empty.png,Door1,-0.204427083,-0.036458333,1,0,0,0.6923,optionLeft,30,4285,2,35,0,35,0,1,,,,,,,,,,,,,,,,,,,,,,,,,,,,,,,,,,,,,,,
,,,,,,,,2023-08-16_08h07.45.702,HF_wild_card,2022.2.4,Win32,60.06006006,5a4e26a8f4c9dc0001b7a1b5,64d2fd46c836a06233681665,64dc75a355f70a6055c54717,,,,,,,sngl,resources/DP.BMP,resources/Empty.png,WildCard_NonEx,-0.18359375,0,1,0,0,0.7267,optionLeft,55,4340,2,36,0,36,0,1,,,,,,,,,,,,,,,,,,,,,,,,,,,,,,,,,,,,,,,
,,,,,,,,2023-08-16_08h07.45.702,HF_wild_card,2022.2.4,Win32,60.06006006,5a4e26a8f4c9dc0001b7a1b5,64d2fd46c836a06233681665,64dc75a355f70a6055c54717,,,,,,,decisionTrl,resources/DBN.BMP,resources/DR.BMP,Door4,-0.212239583,-0.002604167,1,0,0,0.7517,optionLeft,60,4400,2,37,0,37,0,1,,,,,,,,,,,,,,,,,,,,,,,,,,,,,,,,,,,,,,,
,,,,,,,,2023-08-16_08h07.45.702,HF_wild_card,2022.2.4,Win32,60.06006006,5a4e26a8f4c9dc0001b7a1b5,64d2fd46c836a06233681665,64dc75a355f70a6055c54717,,,,,,,sngl,resources/DR.BMP,resources/Empty.png,Door3,-0.234375,0,1,0,0,0.6588,optionLeft,70,4470,2,38,0,38,0,1,,,,,,,,,,,,,,,,,,,,,,,,,,,,,,,,,,,,,,,
,,,,,,,,2023-08-16_08h07.45.702,HF_wild_card,2022.2.4,Win32,60.06006006,5a4e26a8f4c9dc0001b7a1b5,64d2fd46c836a06233681665,64dc75a355f70a6055c54717,,,,,,,sngl,resources/Empty.png,resources/DP.BMP,WildCard_NonEx,0.15625,0.002604167,1,0,0,0.7298,optionRight,45,4515,2,39,0,39,0,1,,,,,,,,,,,,,,,,,,,,,,,,,,,,,,,,,,,,,,,
,,,,,,,,2023-08-16_08h07.45.702,HF_wild_card,2022.2.4,Win32,60.06006006,5a4e26a8f4c9dc0001b7a1b5,64d2fd46c836a06233681665,64dc75a355f70a6055c54717,,,,,,,ctch,resources/DY.BMP,resources/DR.BMP,Door3,0.065104167,0.020833333,1,0,0,1.5242,optionRight,70,4585,2,40,0,40,0,1,,,,,,,,,,,,,,,,,,,,,,,,,,,,,,,,,,,,,,,
,,,,,,,,2023-08-16_08h07.45.702,HF_wild_card,2022.2.4,Win32,60.06006006,5a4e26a8f4c9dc0001b7a1b5,64d2fd46c836a06233681665,64dc75a355f70a6055c54717,,,,,,,decisionTrl,resources/DG.BMP,resources/DY.BMP,Door1,-0.178385417,0.013020833,1,0,0,0.6995,optionLeft,30,4615,2,41,0,41,0,1,,,,,,,,,,,,,,,,,,,,,,,,,,,,,,,,,,,,,,,
,,,,,,,,2023-08-16_08h07.45.702,HF_wild_card,2022.2.4,Win32,60.06006006,5a4e26a8f4c9dc0001b7a1b5,64d2fd46c836a06233681665,64dc75a355f70a6055c54717,,,,,,,decisionTrl,resources/DY.BMP,resources/DG.BMP,Door1,0.20703125,0.036458333,1,0,0,1.0454,optionRight,30,4645,2,42,0,42,0,1,,,,,,,,,,,,,,,,,,,,,,,,,,,,,,,,,,,,,,,
,,,,,,,,2023-08-16_08h07.45.702,HF_wild_card,2022.2.4,Win32,60.06006006,5a4e26a8f4c9dc0001b7a1b5,64d2fd46c836a06233681665,64dc75a355f70a6055c54717,,,,,,,sngl,resources/DBN.BMP,resources/Empty.png,Door4,-0.240885417,-0.010416667,1,0,0,0.6515,optionLeft,60,4705,2,43,0,43,0,1,,,,,,,,,,,,,,,,,,,,,,,,,,,,,,,,,,,,,,,
,,,,,,,,2023-08-16_08h07.45.702,HF_wild_card,2022.2.4,Win32,60.06006006,5a4e26a8f4c9dc0001b7a1b5,64d2fd46c836a06233681665,64dc75a355f70a6055c54717,,,,,,,,,,,,,,,,,,,,,,,,,,1,0,1,0,1,,,,,,,,,,,,,,,,,,,,,,,,,,,,,,,,,,
,,,,,,,,2023-08-16_08h07.45.702,HF_wild_card,2022.2.4,Win32,60.06006006,5a4e26a8f4c9dc0001b7a1b5,64d2fd46c836a06233681665,64dc75a355f70a6055c54717,,,,,,,decisionTrl,resources/DBN.BMP,resources/DR.BMP,Door4,-0.165364583,-0.145833333,1,0,0,0.8159,optionLeft,60,4765,3,0,0,0,0,1,,,,,,,,,,,,,,,,,,,,,,,,,,,,,,,,,,,,,,,
,,,,,,,,2023-08-16_08h07.45.702,HF_wild_card,2022.2.4,Win32,60.06006006,5a4e26a8f4c9dc0001b7a1b5,64d2fd46c836a06233681665,64dc75a355f70a6055c54717,,,,,,,decisionTrl,resources/DG.BMP,resources/DP.BMP,Door1,-0.256510417,0.009114583,1,0,0,1.3045,optionLeft,30,4795,3,1,0,1,0,1,,,,,,,,,,,,,,,,,,,,,,,,,,,,,,,,,,,,,,,
,,,,,,,,2023-08-16_08h07.45.702,HF_wild_card,2022.2.4,Win32,60.06006006,5a4e26a8f4c9dc0001b7a1b5,64d2fd46c836a06233681665,64dc75a355f70a6055c54717,,,,,,,sngl,resources/Empty.png,resources/DP.BMP,WildCard_NonEx,0.171875,-0.013020833,1,0,0,0.5814,optionRight,55,4850,3,2,0,2,0,1,,,,,,,,,,,,,,,,,,,,,,,,,,,,,,,,,,,,,,,
,,,,,,,,2023-08-16_08h07.45.702,HF_wild_card,2022.2.4,Win32,60.06006006,5a4e26a8f4c9dc0001b7a1b5,64d2fd46c836a06233681665,64dc75a355f70a6055c54717,,,,,,,decisionTrl,resources/DG.BMP,resources/DY.BMP,Door1,-0.16796875,0.022135417,1,0,0,0.7145,optionLeft,30,4880,3,3,0,3,0,1,,,,,,,,,,,,,,,,,,,,,,,,,,,,,,,,,,,,,,,
,,,,,,,,2023-08-16_08h07.45.702,HF_wild_card,2022.2.4,Win32,60.06006006,5a4e26a8f4c9dc0001b7a1b5,64d2fd46c836a06233681665,64dc75a355f70a6055c54717,,,,,,,decisionTrl,resources/DBN.BMP,resources/DR.BMP,Door4,-0.19140625,0.022135417,1,0,0,0.6596,optionLeft,80,4960,3,4,0,4,0,1,,,,,,,,,,,,,,,,,,,,,,,,,,,,,,,,,,,,,,,
,,,,,,,,2023-08-16_08h07.45.702,HF_wild_card,2022.2.4,Win32,60.06006006,5a4e26a8f4c9dc0001b7a1b5,64d2fd46c836a06233681665,64dc75a355f70a6055c54717,,,,,,,ctch,resources/DR.BMP,resources/DY.BMP,Door3,-0.12109375,0.026041667,1,0,0,1.1449,optionLeft,70,5030,3,5,0,5,0,1,,,,,,,,,,,,,,,,,,,,,,,,,,,,,,,,,,,,,,,
,,,,,,,,2023-08-16_08h07.45.702,HF_wild_card,2022.2.4,Win32,60.06006006,5a4e26a8f4c9dc0001b7a1b5,64d2fd46c836a06233681665,64dc75a355f70a6055c54717,,,,,,,decisionTrl,resources/DBN.BMP,resources/DP.BMP,Door4,-0.1875,0.014322917,1,0,0,0.6749,optionLeft,60,5090,3,6,0,6,0,1,,,,,,,,,,,,,,,,,,,,,,,,,,,,,,,,,,,,,,,
,,,,,,,,2023-08-16_08h07.45.702,HF_wild_card,2022.2.4,Win32,60.06006006,5a4e26a8f4c9dc0001b7a1b5,64d2fd46c836a06233681665,64dc75a355f70a6055c54717,,,,,,,decisionTrl,resources/DBN.BMP,resources/DR.BMP,Door4,-0.184895833,0.009114583,1,0,0,0.6604,optionLeft,80,5170,3,7,0,7,0,1,,,,,,,,,,,,,,,,,,,,,,,,,,,,,,,,,,,,,,,
,,,,,,,,2023-08-16_08h07.45.702,HF_wild_card,2022.2.4,Win32,60.06006006,5a4e26a8f4c9dc0001b7a1b5,64d2fd46c836a06233681665,64dc75a355f70a6055c54717,,,,,,,decisionTrl,resources/DR.BMP,resources/DBN.BMP,Door4,0.263020833,0.0390625,1,0,0,0.7427,optionRight,60,5230,3,8,0,8,0,1,,,,,,,,,,,,,,,,,,,,,,,,,,,,,,,,,,,,,,,
,,,,,,,,2023-08-16_08h07.45.702,HF_wild_card,2022.2.4,Win32,60.06006006,5a4e26a8f4c9dc0001b7a1b5,64d2fd46c836a06233681665,64dc75a355f70a6055c54717,,,,,,,sngl,resources/Empty.png,resources/DP.BMP,WildCard_NonEx,0.1796875,-0.020833333,1,0,0,0.6048,optionRight,45,5275,3,9,0,9,0,1,,,,,,,,,,,,,,,,,,,,,,,,,,,,,,,,,,,,,,,
,,,,,,,,2023-08-16_08h07.45.702,HF_wild_card,2022.2.4,Win32,60.06006006,5a4e26a8f4c9dc0001b7a1b5,64d2fd46c836a06233681665,64dc75a355f70a6055c54717,,,,,,,decisionTrl,resources/DR.BMP,resources/DBN.BMP,Door4,0.157552083,0.041666667,1,0,0,1.0393,optionRight,80,5355,3,10,0,10,0,1,,,,,,,,,,,,,,,,,,,,,,,,,,,,,,,,,,,,,,,
,,,,,,,,2023-08-16_08h07.45.702,HF_wild_card,2022.2.4,Win32,60.06006006,5a4e26a8f4c9dc0001b7a1b5,64d2fd46c836a06233681665,64dc75a355f70a6055c54717,,,,,,,ctch,resources/DG.BMP,resources/DBN.BMP,Door4,0.203125,0.03125,1,0,0,0.949,optionRight,80,5435,3,11,0,11,0,1,,,,,,,,,,,,,,,,,,,,,,,,,,,,,,,,,,,,,,,
,,,,,,,,2023-08-16_08h07.45.702,HF_wild_card,2022.2.4,Win32,60.06006006,5a4e26a8f4c9dc0001b7a1b5,64d2fd46c836a06233681665,64dc75a355f70a6055c54717,,,,,,,decisionTrl,resources/DG.BMP,resources/DY.BMP,Door2,0.131510417,0.0390625,1,0,0,1.0199,optionRight,20,5455,3,12,0,12,0,1,,,,,,,,,,,,,,,,,,,,,,,,,,,,,,,,,,,,,,,
,,,,,,,,2023-08-16_08h07.45.702,HF_wild_card,2022.2.4,Win32,60.06006006,5a4e26a8f4c9dc0001b7a1b5,64d2fd46c836a06233681665,64dc75a355f70a6055c54717,,,,,,,decisionTrl,resources/DP.BMP,resources/DY.BMP,WildCard_NonEx,-0.15234375,-0.029947917,1,0,0,1.3408,optionLeft,45,5500,3,13,0,13,0,1,,,,,,,,,,,,,,,,,,,,,,,,,,,,,,,,,,,,,,,
,,,,,,,,2023-08-16_08h07.45.702,HF_wild_card,2022.2.4,Win32,60.06006006,5a4e26a8f4c9dc0001b7a1b5,64d2fd46c836a06233681665,64dc75a355f70a6055c54717,,,,,,,ctch,resources/DBN.BMP,resources/DG.BMP,Door4,-0.204427083,0.014322917,1,0,0,0.8497,optionLeft,60,5560,3,14,0,14,0,1,,,,,,,,,,,,,,,,,,,,,,,,,,,,,,,,,,,,,,,
,,,,,,,,2023-08-16_08h07.45.702,HF_wild_card,2022.2.4,Win32,60.06006006,5a4e26a8f4c9dc0001b7a1b5,64d2fd46c836a06233681665,64dc75a355f70a6055c54717,,,,,,,sngl,resources/Empty.png,resources/DR.BMP,Door3,0.231770833,0.006510417,1,0,0,0.6858,optionRight,70,5630,3,15,0,15,0,1,,,,,,,,,,,,,,,,,,,,,,,,,,,,,,,,,,,,,,,
,,,,,,,,2023-08-16_08h07.45.702,HF_wild_card,2022.2.4,Win32,60.06006006,5a4e26a8f4c9dc0001b7a1b5,64d2fd46c836a06233681665,64dc75a355f70a6055c54717,,,,,,,sngl,resources/DR.BMP,resources/Empty.png,Door3,-0.23046875,0.00390625,1,0,0,1.1437,optionLeft,70,5700,3,16,0,16,0,1,,,,,,,,,,,,,,,,,,,,,,,,,,,,,,,,,,,,,,,
,,,,,,,,2023-08-16_08h07.45.702,HF_wild_card,2022.2.4,Win32,60.06006006,5a4e26a8f4c9dc0001b7a1b5,64d2fd46c836a06233681665,64dc75a355f70a6055c54717,,,,,,,sngl,resources/Empty.png,resources/DY.BMP,Door2,0.171875,0.046875,1,0,0,0.6977,optionRight,20,5720,3,17,0,17,0,1,,,,,,,,,,,,,,,,,,,,,,,,,,,,,,,,,,,,,,,
,,,,,,,,2023-08-16_08h07.45.702,HF_wild_card,2022.2.4,Win32,60.06006006,5a4e26a8f4c9dc0001b7a1b5,64d2fd46c836a06233681665,64dc75a355f70a6055c54717,,,,,,,sngl,resources/DP.BMP,resources/Empty.png,WildCard_NonEx,-0.234375,0.037760417,1,0,0,0.5406,optionLeft,55,5775,3,18,0,18,0,1,,,,,,,,,,,,,,,,,,,,,,,,,,,,,,,,,,,,,,,
,,,,,,,,2023-08-16_08h07.45.702,HF_wild_card,2022.2.4,Win32,60.06006006,5a4e26a8f4c9dc0001b7a1b5,64d2fd46c836a06233681665,64dc75a355f70a6055c54717,,,,,,,sngl,resources/Empty.png,resources/DBN.BMP,Door4,0.1875,0.029947917,1,0,0,0.7084,optionRight,60,5835,3,19,0,19,0,1,,,,,,,,,,,,,,,,,,,,,,,,,,,,,,,,,,,,,,,
,,,,,,,,2023-08-16_08h07.45.702,HF_wild_card,2022.2.4,Win32,60.06006006,5a4e26a8f4c9dc0001b7a1b5,64d2fd46c836a06233681665,64dc75a355f70a6055c54717,,,,,,,decisionTrl,resources/DY.BMP,resources/DG.BMP,Door2,-0.1484375,0.014322917,1,0,0,1.2954,optionLeft,40,5875,3,20,0,20,0,1,,,,,,,,,,,,,,,,,,,,,,,,,,,,,,,,,,,,,,,
,,,,,,,,2023-08-16_08h07.45.702,HF_wild_card,2022.2.4,Win32,60.06006006,5a4e26a8f4c9dc0001b7a1b5,64d2fd46c836a06233681665,64dc75a355f70a6055c54717,,,,,,,ctch,resources/DG.BMP,resources/DBN.BMP,Door4,0.158854167,-0.00390625,1,0,0,0.9104,optionRight,60,5935,3,21,0,21,0,1,,,,,,,,,,,,,,,,,,,,,,,,,,,,,,,,,,,,,,,
,,,,,,,,2023-08-16_08h07.45.702,HF_wild_card,2022.2.4,Win32,60.06006006,5a4e26a8f4c9dc0001b7a1b5,64d2fd46c836a06233681665,64dc75a355f70a6055c54717,,,,,,,decisionTrl,resources/DP.BMP,resources/DR.BMP,WildCard_NonEx,-0.22265625,-0.0078125,1,0,0,0.5536,optionLeft,45,5980,3,22,0,22,0,1,,,,,,,,,,,,,,,,,,,,,,,,,,,,,,,,,,,,,,,
,,,,,,,,2023-08-16_08h07.45.702,HF_wild_card,2022.2.4,Win32,60.06006006,5a4e26a8f4c9dc0001b7a1b5,64d2fd46c836a06233681665,64dc75a355f70a6055c54717,,,,,,,decisionTrl,resources/DP.BMP,resources/DG.BMP,WildCard_NonEx,-0.21484375,-0.014322917,1,0,0,0.629,optionLeft,55,6035,3,23,0,23,0,1,,,,,,,,,,,,,,,,,,,,,,,,,,,,,,,,,,,,,,,
,,,,,,,,2023-08-16_08h07.45.702,HF_wild_card,2022.2.4,Win32,60.06006006,5a4e26a8f4c9dc0001b7a1b5,64d2fd46c836a06233681665,64dc75a355f70a6055c54717,,,,,,,decisionTrl,resources/DP.BMP,resources/DBN.BMP,Door4,0.178385417,0.032552083,1,0,0,0.6649,optionRight,60,6095,3,24,0,24,0,1,,,,,,,,,,,,,,,,,,,,,,,,,,,,,,,,,,,,,,,
,,,,,,,,2023-08-16_08h07.45.702,HF_wild_card,2022.2.4,Win32,60.06006006,5a4e26a8f4c9dc0001b7a1b5,64d2fd46c836a06233681665,64dc75a355f70a6055c54717,,,,,,,sngl,resources/DY.BMP,resources/Empty.png,Door2,-0.157552083,-0.009114583,1,0,0,0.6583,optionLeft,40,6135,3,25,0,25,0,1,,,,,,,,,,,,,,,,,,,,,,,,,,,,,,,,,,,,,,,
,,,,,,,,2023-08-16_08h07.45.702,HF_wild_card,2022.2.4,Win32,60.06006006,5a4e26a8f4c9dc0001b7a1b5,64d2fd46c836a06233681665,64dc75a355f70a6055c54717,,,,,,,decisionTrl,resources/DY.BMP,resources/DG.BMP,Door2,-0.196614583,0.010416667,1,0,0,0.8749,optionLeft,40,6175,3,26,0,26,0,1,,,,,,,,,,,,,,,,,,,,,,,,,,,,,,,,,,,,,,,
,,,,,,,,2023-08-16_08h07.45.702,HF_wild_card,2022.2.4,Win32,60.06006006,5a4e26a8f4c9dc0001b7a1b5,64d2fd46c836a06233681665,64dc75a355f70a6055c54717,,,,,,,sngl,resources/DP.BMP,resources/Empty.png,WildCard_NonEx,-0.201822917,-0.020833333,1,0,0,0.7191,optionLeft,45,6220,3,27,0,27,0,1,,,,,,,,,,,,,,,,,,,,,,,,,,,,,,,,,,,,,,,
,,,,,,,,2023-08-16_08h07.45.702,HF_wild_card,2022.2.4,Win32,60.06006006,5a4e26a8f4c9dc0001b7a1b5,64d2fd46c836a06233681665,64dc75a355f70a6055c54717,,,,,,,sngl,resources/DBN.BMP,resources/Empty.png,Door4,-0.169270833,0.016927083,1,0,0,0.6264,optionLeft,80,6300,3,28,0,28,0,1,,,,,,,,,,,,,,,,,,,,,,,,,,,,,,,,,,,,,,,
,,,,,,,,2023-08-16_08h07.45.702,HF_wild_card,2022.2.4,Win32,60.06006006,5a4e26a8f4c9dc0001b7a1b5,64d2fd46c836a06233681665,64dc75a355f70a6055c54717,,,,,,,ctch,resources/DY.BMP,resources/DR.BMP,Door2,-0.1640625,0.009114583,1,0,0,0.9423,optionLeft,40,6340,3,29,0,29,0,1,,,,,,,,,,,,,,,,,,,,,,,,,,,,,,,,,,,,,,,
,,,,,,,,2023-08-16_08h07.45.702,HF_wild_card,2022.2.4,Win32,60.06006006,5a4e26a8f4c9dc0001b7a1b5,64d2fd46c836a06233681665,64dc75a355f70a6055c54717,,,,,,,decisionTrl,resources/DG.BMP,resources/DY.BMP,Door1,-0.143229167,0.0234375,1,0,0,0.725,optionLeft,30,6370,3,30,0,30,0,1,,,,,,,,,,,,,,,,,,,,,,,,,,,,,,,,,,,,,,,
,,,,,,,,2023-08-16_08h07.45.702,HF_wild_card,2022.2.4,Win32,60.06006006,5a4e26a8f4c9dc0001b7a1b5,64d2fd46c836a06233681665,64dc75a355f70a6055c54717,,,,,,,sngl,resources/Empty.png,resources/DG.BMP,Door1,0.12109375,0.00390625,1,0,0,0.7113,optionRight,30,6400,3,31,0,31,0,1,,,,,,,,,,,,,,,,,,,,,,,,,,,,,,,,,,,,,,,
,,,,,,,,2023-08-16_08h07.45.702,HF_wild_card,2022.2.4,Win32,60.06006006,5a4e26a8f4c9dc0001b7a1b5,64d2fd46c836a06233681665,64dc75a355f70a6055c54717,,,,,,,sngl,resources/DG.BMP,resources/Empty.png,Door1,-0.190104167,0.014322917,1,0,0,0.5805,optionLeft,30,6430,3,32,0,32,0,1,,,,,,,,,,,,,,,,,,,,,,,,,,,,,,,,,,,,,,,
,,,,,,,,2023-08-16_08h07.45.702,HF_wild_card,2022.2.4,Win32,60.06006006,5a4e26a8f4c9dc0001b7a1b5,64d2fd46c836a06233681665,64dc75a355f70a6055c54717,,,,,,,decisionTrl,resources/DR.BMP,resources/DBN.BMP,Door4,0.196614583,0.010416667,1,0,0,0.7017,optionRight,60,6490,3,33,0,33,0,1,,,,,,,,,,,,,,,,,,,,,,,,,,,,,,,,,,,,,,,
,,,,,,,,2023-08-16_08h07.45.702,HF_wild_card,2022.2.4,Win32,60.06006006,5a4e26a8f4c9dc0001b7a1b5,64d2fd46c836a06233681665,64dc75a355f70a6055c54717,,,,,,,ctch,resources/DR.BMP,resources/DY.BMP,Door3,-0.122395833,0.014322917,1,0,0,0.8461,optionLeft,70,6560,3,34,0,34,0,1,,,,,,,,,,,,,,,,,,,,,,,,,,,,,,,,,,,,,,,
,,,,,,,,2023-08-16_08h07.45.702,HF_wild_card,2022.2.4,Win32,60.06006006,5a4e26a8f4c9dc0001b7a1b5,64d2fd46c836a06233681665,64dc75a355f70a6055c54717,,,,,,,decisionTrl,resources/DY.BMP,resources/DP.BMP,WildCard_NonEx,0.240885417,0.033854167,1,0,0,0.8095,optionRight,55,6615,3,35,0,35,0,1,,,,,,,,,,,,,,,,,,,,,,,,,,,,,,,,,,,,,,,
,,,,,,,,2023-08-16_08h07.45.702,HF_wild_card,2022.2.4,Win32,60.06006006,5a4e26a8f4c9dc0001b7a1b5,64d2fd46c836a06233681665,64dc75a355f70a6055c54717,,,,,,,ctch,resources/DY.BMP,resources/DR.BMP,Door3,0.209635417,0.016927083,1,0,0,0.7096,optionRight,70,6685,3,36,0,36,0,1,,,,,,,,,,,,,,,,,,,,,,,,,,,,,,,,,,,,,,,
,,,,,,,,2023-08-16_08h07.45.702,HF_wild_card,2022.2.4,Win32,60.06006006,5a4e26a8f4c9dc0001b7a1b5,64d2fd46c836a06233681665,64dc75a355f70a6055c54717,,,,,,,decisionTrl,resources/DY.BMP,resources/DG.BMP,Door1,0.1875,0.072916667,1,0,0,1.0606,optionRight,30,6715,3,37,0,37,0,1,,,,,,,,,,,,,,,,,,,,,,,,,,,,,,,,,,,,,,,
,,,,,,,,2023-08-16_08h07.45.702,HF_wild_card,2022.2.4,Win32,60.06006006,5a4e26a8f4c9dc0001b7a1b5,64d2fd46c836a06233681665,64dc75a355f70a6055c54717,,,,,,,decisionTrl,resources/DG.BMP,resources/DY.BMP,Door2,0.1484375,0.069010417,1,0,0,1.0584,optionRight,40,6755,3,38,0,38,0,1,,,,,,,,,,,,,,,,,,,,,,,,,,,,,,,,,,,,,,,
,,,,,,,,2023-08-16_08h07.45.702,HF_wild_card,2022.2.4,Win32,60.06006006,5a4e26a8f4c9dc0001b7a1b5,64d2fd46c836a06233681665,64dc75a355f70a6055c54717,,,,,,,decisionTrl,resources/DBN.BMP,resources/DR.BMP,Door4,-0.212239583,0.015625,1,0,0,0.6872,optionLeft,60,6815,3,39,0,39,0,1,,,,,,,,,,,,,,,,,,,,,,,,,,,,,,,,,,,,,,,
,,,,,,,,2023-08-16_08h07.45.702,HF_wild_card,2022.2.4,Win32,60.06006006,5a4e26a8f4c9dc0001b7a1b5,64d2fd46c836a06233681665,64dc75a355f70a6055c54717,,,,,,,decisionTrl,resources/DY.BMP,resources/DG.BMP,Door2,-0.16796875,-0.016927083,1,0,0,0.6309,optionLeft,20,6835,3,40,0,40,0,1,,,,,,,,,,,,,,,,,,,,,,,,,,,,,,,,,,,,,,,
,,,,,,,,2023-08-16_08h07.45.702,HF_wild_card,2022.2.4,Win32,60.06006006,5a4e26a8f4c9dc0001b7a1b5,64d2fd46c836a06233681665,64dc75a355f70a6055c54717,,,,,,,decisionTrl,resources/DR.BMP,resources/DP.BMP,Door3,-0.13671875,0.04296875,1,0,0,2.3184,optionLeft,70,6905,3,41,0,41,0,1,,,,,,,,,,,,,,,,,,,,,,,,,,,,,,,,,,,,,,,
,,,,,,,,2023-08-16_08h07.45.702,HF_wild_card,2022.2.4,Win32,60.06006006,5a4e26a8f4c9dc0001b7a1b5,64d2fd46c836a06233681665,64dc75a355f70a6055c54717,,,,,,,ctch,resources/DBN.BMP,resources/DG.BMP,Door4,-0.205729167,0.018229167,1,0,0,0.6516,optionLeft,60,6965,3,42,0,42,0,1,,,,,,,,,,,,,,,,,,,,,,,,,,,,,,,,,,,,,,,
,,,,,,,,2023-08-16_08h07.45.702,HF_wild_card,2022.2.4,Win32,60.06006006,5a4e26a8f4c9dc0001b7a1b5,64d2fd46c836a06233681665,64dc75a355f70a6055c54717,,,,,,,decisionTrl,resources/DR.BMP,resources/DBN.BMP,Door4,0.151041667,0.002604167,1,0,0,1.8211,optionRight,80,7045,3,43,0,43,0,1,,,,,,,,,,,,,,,,,,,,,,,,,,,,,,,,,,,,,,,
,,,,,,,,2023-08-16_08h07.45.702,HF_wild_card,2022.2.4,Win32,60.06006006,5a4e26a8f4c9dc0001b7a1b5,64d2fd46c836a06233681665,64dc75a355f70a6055c54717,,,,,,,,,,,,,,,,,,,,,,,,,,2,0,2,0,1,,,,,,,,,,,,,,,,,,,,,,,,,,,,,,,,,,
,,,,,,,,2023-08-16_08h07.45.702,HF_wild_card,2022.2.4,Win32,60.06006006,5a4e26a8f4c9dc0001b7a1b5,64d2fd46c836a06233681665,64dc75a355f70a6055c54717,,,,,,,decisionTrl,resources/DBN.BMP,resources/DB.BMP,Door4,-0.37109375,-0.002604167,1,0,0,1.0665,optionLeft,80,7125,4,0,0,0,0,1,,,,,,,,,,,,,,,,,,,,,,,,,,,,,,,,,,,,,,,
,,,,,,,,2023-08-16_08h07.45.702,HF_wild_card,2022.2.4,Win32,60.06006006,5a4e26a8f4c9dc0001b7a1b5,64d2fd46c836a06233681665,64dc75a355f70a6055c54717,,,,,,,ctch,resources/DBN.BMP,resources/DG.BMP,Door4,-0.20703125,0.029947917,1,0,0,0.6317,optionLeft,80,7205,4,1,0,1,0,1,,,,,,,,,,,,,,,,,,,,,,,,,,,,,,,,,,,,,,,
,,,,,,,,2023-08-16_08h07.45.702,HF_wild_card,2022.2.4,Win32,60.06006006,5a4e26a8f4c9dc0001b7a1b5,64d2fd46c836a06233681665,64dc75a355f70a6055c54717,,,,,,,sngl,resources/Empty.png,resources/DY.BMP,Door2,0.1640625,0.03515625,1,0,0,0.5829,optionRight,40,7245,4,2,0,2,0,1,,,,,,,,,,,,,,,,,,,,,,,,,,,,,,,,,,,,,,,
,,,,,,,,2023-08-16_08h07.45.702,HF_wild_card,2022.2.4,Win32,60.06006006,5a4e26a8f4c9dc0001b7a1b5,64d2fd46c836a06233681665,64dc75a355f70a6055c54717,,,,,,,sngl,resources/DB.BMP,resources/Empty.png,WildCard_Ex,-0.256510417,0.052083333,1,0,0,0.5172,optionLeft,55,7300,4,3,0,3,0,1,,,,,,,,,,,,,,,,,,,,,,,,,,,,,,,,,,,,,,,
,,,,,,,,2023-08-16_08h07.45.702,HF_wild_card,2022.2.4,Win32,60.06006006,5a4e26a8f4c9dc0001b7a1b5,64d2fd46c836a06233681665,64dc75a355f70a6055c54717,,,,,,,sngl,resources/DY.BMP,resources/Empty.png,Door2,-0.169270833,0.015625,1,0,0,0.61,optionLeft,20,7320,4,4,0,4,0,1,,,,,,,,,,,,,,,,,,,,,,,,,,,,,,,,,,,,,,,
,,,,,,,,2023-08-16_08h07.45.702,HF_wild_card,2022.2.4,Win32,60.06006006,5a4e26a8f4c9dc0001b7a1b5,64d2fd46c836a06233681665,64dc75a355f70a6055c54717,,,,,,,decisionTrl,resources/DY.BMP,resources/DG.BMP,Door1,0.20703125,0.022135417,1,0,0,0.831,optionRight,30,7350,4,5,0,5,0,1,,,,,,,,,,,,,,,,,,,,,,,,,,,,,,,,,,,,,,,
,,,,,,,,2023-08-16_08h07.45.702,HF_wild_card,2022.2.4,Win32,60.06006006,5a4e26a8f4c9dc0001b7a1b5,64d2fd46c836a06233681665,64dc75a355f70a6055c54717,,,,,,,decisionTrl,resources/DBN.BMP,resources/DR.BMP,Door4,-0.208333333,0.036458333,1,0,0,0.6312,optionLeft,60,7410,4,6,0,6,0,1,,,,,,,,,,,,,,,,,,,,,,,,,,,,,,,,,,,,,,,
,,,,,,,,2023-08-16_08h07.45.702,HF_wild_card,2022.2.4,Win32,60.06006006,5a4e26a8f4c9dc0001b7a1b5,64d2fd46c836a06233681665,64dc75a355f70a6055c54717,,,,,,,decisionTrl,resources/DR.BMP,resources/DBN.BMP,Door4,0.114583333,-0.013020833,1,0,0,1.1463,optionRight,60,7470,4,7,0,7,0,1,,,,,,,,,,,,,,,,,,,,,,,,,,,,,,,,,,,,,,,
,,,,,,,,2023-08-16_08h07.45.702,HF_wild_card,2022.2.4,Win32,60.06006006,5a4e26a8f4c9dc0001b7a1b5,64d2fd46c836a06233681665,64dc75a355f70a6055c54717,,,,,,,sngl,resources/DG.BMP,resources/Empty.png,Door1,-0.173177083,-0.014322917,1,0,0,0.7474,optionLeft,30,7500,4,8,0,8,0,1,,,,,,,,,,,,,,,,,,,,,,,,,,,,,,,,,,,,,,,
,,,,,,,,2023-08-16_08h07.45.702,HF_wild_card,2022.2.4,Win32,60.06006006,5a4e26a8f4c9dc0001b7a1b5,64d2fd46c836a06233681665,64dc75a355f70a6055c54717,,,,,,,decisionTrl,resources/DR.BMP,resources/DB.BMP,Door3,-0.2109375,0.048177083,1,0,0,1.664,optionLeft,70,7570,4,9,0,9,0,1,,,,,,,,,,,,,,,,,,,,,,,,,,,,,,,,,,,,,,,
,,,,,,,,2023-08-16_08h07.45.702,HF_wild_card,2022.2.4,Win32,60.06006006,5a4e26a8f4c9dc0001b7a1b5,64d2fd46c836a06233681665,64dc75a355f70a6055c54717,,,,,,,decisionTrl,resources/DG.BMP,resources/DY.BMP,Door1,-0.162760417,0.036458333,1,0,0,1.129,optionLeft,30,7600,4,10,0,10,0,1,,,,,,,,,,,,,,,,,,,,,,,,,,,,,,,,,,,,,,,
,,,,,,,,2023-08-16_08h07.45.702,HF_wild_card,2022.2.4,Win32,60.06006006,5a4e26a8f4c9dc0001b7a1b5,64d2fd46c836a06233681665,64dc75a355f70a6055c54717,,,,,,,decisionTrl,resources/DY.BMP,resources/DB.BMP,WildCard_Ex,0.27734375,0.080729167,1,0,0,0.7785,optionRight,45,7645,4,11,0,11,0,1,,,,,,,,,,,,,,,,,,,,,,,,,,,,,,,,,,,,,,,
,,,,,,,,2023-08-16_08h07.45.702,HF_wild_card,2022.2.4,Win32,60.06006006,5a4e26a8f4c9dc0001b7a1b5,64d2fd46c836a06233681665,64dc75a355f70a6055c54717,,,,,,,decisionTrl,resources/DB.BMP,resources/DR.BMP,Door3,0.244791667,0.048177083,1,0,0,1.1903,optionRight,70,7715,4,12,0,12,0,1,,,,,,,,,,,,,,,,,,,,,,,,,,,,,,,,,,,,,,,
,,,,,,,,2023-08-16_08h07.45.702,HF_wild_card,2022.2.4,Win32,60.06006006,5a4e26a8f4c9dc0001b7a1b5,64d2fd46c836a06233681665,64dc75a355f70a6055c54717,,,,,,,sngl,resources/DR.BMP,resources/Empty.png,Door3,-0.157552083,0.014322917,1,0,0,0.811,optionLeft,70,7785,4,13,0,13,0,1,,,,,,,,,,,,,,,,,,,,,,,,,,,,,,,,,,,,,,,
,,,,,,,,2023-08-16_08h07.45.702,HF_wild_card,2022.2.4,Win32,60.06006006,5a4e26a8f4c9dc0001b7a1b5,64d2fd46c836a06233681665,64dc75a355f70a6055c54717,,,,,,,sngl,resources/Empty.png,resources/DB.BMP,WildCard_Ex,0.287760417,-0.00390625,1,0,0,1.1748,optionRight,45,7830,4,14,0,14,0,1,,,,,,,,,,,,,,,,,,,,,,,,,,,,,,,,,,,,,,,
,,,,,,,,2023-08-16_08h07.45.702,HF_wild_card,2022.2.4,Win32,60.06006006,5a4e26a8f4c9dc0001b7a1b5,64d2fd46c836a06233681665,64dc75a355f70a6055c54717,,,,,,,decisionTrl,resources/DBN.BMP,resources/DR.BMP,Door4,-0.201822917,0.049479167,1,0,0,0.7308,optionLeft,60,7890,4,15,0,15,0,1,,,,,,,,,,,,,,,,,,,,,,,,,,,,,,,,,,,,,,,
,,,,,,,,2023-08-16_08h07.45.702,HF_wild_card,2022.2.4,Win32,60.06006006,5a4e26a8f4c9dc0001b7a1b5,64d2fd46c836a06233681665,64dc75a355f70a6055c54717,,,,,,,decisionTrl,resources/DY.BMP,resources/DG.BMP,Door1,0.157552083,0.065104167,1,0,0,1.67,optionRight,30,7920,4,16,0,16,0,1,,,,,,,,,,,,,,,,,,,,,,,,,,,,,,,,,,,,,,,
,,,,,,,,2023-08-16_08h07.45.702,HF_wild_card,2022.2.4,Win32,60.06006006,5a4e26a8f4c9dc0001b7a1b5,64d2fd46c836a06233681665,64dc75a355f70a6055c54717,,,,,,,ctch,resources/DY.BMP,resources/DR.BMP,Door3,0.147135417,0.057291667,1,0,0,1.2079,optionRight,70,7990,4,17,0,17,0,1,,,,,,,,,,,,,,,,,,,,,,,,,,,,,,,,,,,,,,,
,,,,,,,,2023-08-16_08h07.45.702,HF_wild_card,2022.2.4,Win32,60.06006006,5a4e26a8f4c9dc0001b7a1b5,64d2fd46c836a06233681665,64dc75a355f70a6055c54717,,,,,,,decisionTrl,resources/DR.BMP,resources/DBN.BMP,Door4,0.21484375,0.05078125,1,0,0,1.5264,optionRight,60,8050,4,18,0,18,0,1,,,,,,,,,,,,,,,,,,,,,,,,,,,,,,,,,,,,,,,
,,,,,,,,2023-08-16_08h07.45.702,HF_wild_card,2022.2.4,Win32,60.06006006,5a4e26a8f4c9dc0001b7a1b5,64d2fd46c836a06233681665,64dc75a355f70a6055c54717,,,,,,,decisionTrl,resources/DBN.BMP,resources/DR.BMP,Door4,-0.188802083,0.014322917,1,0,0,1.1793,optionLeft,60,8110,4,19,0,19,0,1,,,,,,,,,,,,,,,,,,,,,,,,,,,,,,,,,,,,,,,
,,,,,,,,2023-08-16_08h07.45.702,HF_wild_card,2022.2.4,Win32,60.06006006,5a4e26a8f4c9dc0001b7a1b5,64d2fd46c836a06233681665,64dc75a355f70a6055c54717,,,,,,,decisionTrl,resources/DR.BMP,resources/DBN.BMP,Door4,0.169270833,-0.002604167,1,0,0,1.2401,optionRight,80,8190,4,20,0,20,0,1,,,,,,,,,,,,,,,,,,,,,,,,,,,,,,,,,,,,,,,
,,,,,,,,2023-08-16_08h07.45.702,HF_wild_card,2022.2.4,Win32,60.06006006,5a4e26a8f4c9dc0001b7a1b5,64d2fd46c836a06233681665,64dc75a355f70a6055c54717,,,,,,,decisionTrl,resources/DBN.BMP,resources/DR.BMP,Door4,-0.201822917,0.029947917,1,0,0,0.7949,optionLeft,60,8250,4,21,0,21,0,1,,,,,,,,,,,,,,,,,,,,,,,,,,,,,,,,,,,,,,,
,,,,,,,,2023-08-16_08h07.45.702,HF_wild_card,2022.2.4,Win32,60.06006006,5a4e26a8f4c9dc0001b7a1b5,64d2fd46c836a06233681665,64dc75a355f70a6055c54717,,,,,,,decisionTrl,resources/DG.BMP,resources/DB.BMP,WildCard_Ex,0.213541667,0.0078125,1,0,0,0.7415,optionRight,55,8305,4,22,0,22,0,1,,,,,,,,,,,,,,,,,,,,,,,,,,,,,,,,,,,,,,,
,,,,,,,,2023-08-16_08h07.45.702,HF_wild_card,2022.2.4,Win32,60.06006006,5a4e26a8f4c9dc0001b7a1b5,64d2fd46c836a06233681665,64dc75a355f70a6055c54717,,,,,,,sngl,resources/Empty.png,resources/DR.BMP,Door3,0.21484375,0.001302083,1,0,0,0.8114,optionRight,70,8375,4,23,0,23,0,1,,,,,,,,,,,,,,,,,,,,,,,,,,,,,,,,,,,,,,,
,,,,,,,,2023-08-16_08h07.45.702,HF_wild_card,2022.2.4,Win32,60.06006006,5a4e26a8f4c9dc0001b7a1b5,64d2fd46c836a06233681665,64dc75a355f70a6055c54717,,,,,,,sngl,resources/DBN.BMP,resources/Empty.png,Door4,-0.190104167,0.053385417,1,0,0,0.5431,optionLeft,60,8435,4,24,0,24,0,1,,,,,,,,,,,,,,,,,,,,,,,,,,,,,,,,,,,,,,,
,,,,,,,,2023-08-16_08h07.45.702,HF_wild_card,2022.2.4,Win32,60.06006006,5a4e26a8f4c9dc0001b7a1b5,64d2fd46c836a06233681665,64dc75a355f70a6055c54717,,,,,,,ctch,resources/DG.BMP,resources/DBN.BMP,Door4,0.278645833,0.11328125,1,0,0,0.855,optionRight,60,8495,4,25,0,25,0,1,,,,,,,,,,,,,,,,,,,,,,,,,,,,,,,,,,,,,,,
,,,,,,,,2023-08-16_08h07.45.702,HF_wild_card,2022.2.4,Win32,60.06006006,5a4e26a8f4c9dc0001b7a1b5,64d2fd46c836a06233681665,64dc75a355f70a6055c54717,,,,,,,decisionTrl,resources/DY.BMP,resources/DG.BMP,Door1,0.126302083,0.061197917,1,0,0,0.9312,optionRight,30,8525,4,26,0,26,0,1,,,,,,,,,,,,,,,,,,,,,,,,,,,,,,,,,,,,,,,
,,,,,,,,2023-08-16_08h07.45.702,HF_wild_card,2022.2.4,Win32,60.06006006,5a4e26a8f4c9dc0001b7a1b5,64d2fd46c836a06233681665,64dc75a355f70a6055c54717,,,,,,,decisionTrl,resources/DB.BMP,resources/DG.BMP,WildCard_Ex,-0.13671875,0.020833333,1,0,0,0.7411,optionLeft,45,8570,4,27,0,27,0,1,,,,,,,,,,,,,,,,,,,,,,,,,,,,,,,,,,,,,,,
,,,,,,,,2023-08-16_08h07.45.702,HF_wild_card,2022.2.4,Win32,60.06006006,5a4e26a8f4c9dc0001b7a1b5,64d2fd46c836a06233681665,64dc75a355f70a6055c54717,,,,,,,decisionTrl,resources/DR.BMP,resources/DBN.BMP,Door4,0.244791667,0.0234375,1,0,0,0.7105,optionRight,60,8630,4,28,0,28,0,1,,,,,,,,,,,,,,,,,,,,,,,,,,,,,,,,,,,,,,,
,,,,,,,,2023-08-16_08h07.45.702,HF_wild_card,2022.2.4,Win32,60.06006006,5a4e26a8f4c9dc0001b7a1b5,64d2fd46c836a06233681665,64dc75a355f70a6055c54717,,,,,,,decisionTrl,resources/DG.BMP,resources/DY.BMP,Door1,-0.166666667,0.02734375,1,0,0,0.6148,optionLeft,30,8660,4,29,0,29,0,1,,,,,,,,,,,,,,,,,,,,,,,,,,,,,,,,,,,,,,,
,,,,,,,,2023-08-16_08h07.45.702,HF_wild_card,2022.2.4,Win32,60.06006006,5a4e26a8f4c9dc0001b7a1b5,64d2fd46c836a06233681665,64dc75a355f70a6055c54717,,,,,,,sngl,resources/Empty.png,resources/DB.BMP,WildCard_Ex,0.217447917,0.01171875,1,0,0,0.6806,optionRight,55,8715,4,30,0,30,0,1,,,,,,,,,,,,,,,,,,,,,,,,,,,,,,,,,,,,,,,
,,,,,,,,2023-08-16_08h07.45.702,HF_wild_card,2022.2.4,Win32,60.06006006,5a4e26a8f4c9dc0001b7a1b5,64d2fd46c836a06233681665,64dc75a355f70a6055c54717,,,,,,,ctch,resources/DY.BMP,resources/DR.BMP,Door3,0.125,-0.0078125,1,0,0,1.0649,optionRight,70,8785,4,31,0,31,0,1,,,,,,,,,,,,,,,,,,,,,,,,,,,,,,,,,,,,,,,
,,,,,,,,2023-08-16_08h07.45.702,HF_wild_card,2022.2.4,Win32,60.06006006,5a4e26a8f4c9dc0001b7a1b5,64d2fd46c836a06233681665,64dc75a355f70a6055c54717,,,,,,,sngl,resources/Empty.png,resources/DG.BMP,Door1,0.1796875,0.032552083,1,0,0,0.6918,optionRight,30,8815,4,32,0,32,0,1,,,,,,,,,,,,,,,,,,,,,,,,,,,,,,,,,,,,,,,
,,,,,,,,2023-08-16_08h07.45.702,HF_wild_card,2022.2.4,Win32,60.06006006,5a4e26a8f4c9dc0001b7a1b5,64d2fd46c836a06233681665,64dc75a355f70a6055c54717,,,,,,,decisionTrl,resources/DB.BMP,resources/DY.BMP,WildCard_Ex,-0.15234375,0.02734375,1,0,0,0.9016,optionLeft,55,8870,4,33,0,33,0,1,,,,,,,,,,,,,,,,,,,,,,,,,,,,,,,,,,,,,,,
,,,,,,,,2023-08-16_08h07.45.702,HF_wild_card,2022.2.4,Win32,60.06006006,5a4e26a8f4c9dc0001b7a1b5,64d2fd46c836a06233681665,64dc75a355f70a6055c54717,,,,,,,sngl,resources/Empty.png,resources/DBN.BMP,Door4,0.2734375,0.015625,1,0,0,0.9495,optionRight,80,8950,4,34,0,34,0,1,,,,,,,,,,,,,,,,,,,,,,,,,,,,,,,,,,,,,,,
,,,,,,,,2023-08-16_08h07.45.702,HF_wild_card,2022.2.4,Win32,60.06006006,5a4e26a8f4c9dc0001b7a1b5,64d2fd46c836a06233681665,64dc75a355f70a6055c54717,,,,,,,ctch,resources/DR.BMP,resources/DY.BMP,Door3,-0.165364583,-0.020833333,1,0,0,1.4343,optionLeft,70,9020,4,35,0,35,0,1,,,,,,,,,,,,,,,,,,,,,,,,,,,,,,,,,,,,,,,
,,,,,,,,2023-08-16_08h07.45.702,HF_wild_card,2022.2.4,Win32,60.06006006,5a4e26a8f4c9dc0001b7a1b5,64d2fd46c836a06233681665,64dc75a355f70a6055c54717,,,,,,,decisionTrl,resources/DG.BMP,resources/DY.BMP,Door2,0.229166667,0.016927083,1,0,0,1.4211,optionRight,20,9040,4,36,0,36,0,1,,,,,,,,,,,,,,,,,,,,,,,,,,,,,,,,,,,,,,,
,,,,,,,,2023-08-16_08h07.45.702,HF_wild_card,2022.2.4,Win32,60.06006006,5a4e26a8f4c9dc0001b7a1b5,64d2fd46c836a06233681665,64dc75a355f70a6055c54717,,,,,,,sngl,resources/DB.BMP,resources/Empty.png,WildCard_Ex,-0.182291667,0.020833333,1,0,0,0.6961,optionLeft,45,9085,4,37,0,37,0,1,,,,,,,,,,,,,,,,,,,,,,,,,,,,,,,,,,,,,,,
,,,,,,,,2023-08-16_08h07.45.702,HF_wild_card,2022.2.4,Win32,60.06006006,5a4e26a8f4c9dc0001b7a1b5,64d2fd46c836a06233681665,64dc75a355f70a6055c54717,,,,,,,ctch,resources/DBN.BMP,resources/DG.BMP,Door4,-0.134114583,0.0625,1,0,0,0.7655,optionLeft,80,9165,4,38,0,38,0,1,,,,,,,,,,,,,,,,,,,,,,,,,,,,,,,,,,,,,,,
,,,,,,,,2023-08-16_08h07.45.702,HF_wild_card,2022.2.4,Win32,60.06006006,5a4e26a8f4c9dc0001b7a1b5,64d2fd46c836a06233681665,64dc75a355f70a6055c54717,,,,,,,decisionTrl,resources/DB.BMP,resources/DBN.BMP,Door4,0.188802083,0.0625,1,0,0,0.7936,optionRight,60,9225,4,39,0,39,0,1,,,,,,,,,,,,,,,,,,,,,,,,,,,,,,,,,,,,,,,
,,,,,,,,2023-08-16_08h07.45.702,HF_wild_card,2022.2.4,Win32,60.06006006,5a4e26a8f4c9dc0001b7a1b5,64d2fd46c836a06233681665,64dc75a355f70a6055c54717,,,,,,,decisionTrl,resources/DY.BMP,resources/DG.BMP,Door1,0.1328125,0.071614583,1,0,0,2.4232,optionRight,30,9255,4,40,0,40,0,1,,,,,,,,,,,,,,,,,,,,,,,,,,,,,,,,,,,,,,,
,,,,,,,,2023-08-16_08h07.45.702,HF_wild_card,2022.2.4,Win32,60.06006006,5a4e26a8f4c9dc0001b7a1b5,64d2fd46c836a06233681665,64dc75a355f70a6055c54717,,,,,,,ctch,resources/DG.BMP,resources/DBN.BMP,Door4,0.19140625,0.040364583,1,0,0,0.9186,optionRight,80,9335,4,41,0,41,0,1,,,,,,,,,,,,,,,,,,,,,,,,,,,,,,,,,,,,,,,
,,,,,,,,2023-08-16_08h07.45.702,HF_wild_card,2022.2.4,Win32,60.06006006,5a4e26a8f4c9dc0001b7a1b5,64d2fd46c836a06233681665,64dc75a355f70a6055c54717,,,,,,,ctch,resources/DR.BMP,resources/DY.BMP,Door3,-0.130208333,0.029947917,1,0,0,1.1254,optionLeft,70,9405,4,42,0,42,0,1,,,,,,,,,,,,,,,,,,,,,,,,,,,,,,,,,,,,,,,
,,,,,,,,2023-08-16_08h07.45.702,HF_wild_card,2022.2.4,Win32,60.06006006,5a4e26a8f4c9dc0001b7a1b5,64d2fd46c836a06233681665,64dc75a355f70a6055c54717,,,,,,,decisionTrl,resources/DG.BMP,resources/DY.BMP,Door2,0.227864583,0.029947917,1,0,0,1.1065,optionRight,20,9425,4,43,0,43,0,1,,,,,,,,,,,,,,,,,,,,,,,,,,,,,,,,,,,,,,,
,,,,,,,,2023-08-16_08h07.45.702,HF_wild_card,2022.2.4,Win32,60.06006006,5a4e26a8f4c9dc0001b7a1b5,64d2fd46c836a06233681665,64dc75a355f70a6055c54717,,,,,,,,,,,,,,,,,,,,,,,,,,3,0,3,0,1,,,,,,,,,,,,,,,,,,,,,,,,,,,,,,,,,,
,,,,,,,,2023-08-16_08h07.45.702,HF_wild_card,2022.2.4,Win32,60.06006006,5a4e26a8f4c9dc0001b7a1b5,64d2fd46c836a06233681665,64dc75a355f70a6055c54717,,,,,,,decisionTrl,resources/DG.BMP,resources/DY.BMP,Door1,-0.173177083,-0.16796875,1,0,0,1.0814,optionLeft,30,9455,5,0,0,0,0,1,,,,,,,,,,,,,,,,,,,,,,,,,,,,,,,,,,,,,,,
,,,,,,,,2023-08-16_08h07.45.702,HF_wild_card,2022.2.4,Win32,60.06006006,5a4e26a8f4c9dc0001b7a1b5,64d2fd46c836a06233681665,64dc75a355f70a6055c54717,,,,,,,ctch,resources/DR.BMP,resources/DY.BMP,Door3,-0.19140625,0,1,0,0,0.7975,optionLeft,70,9525,5,1,0,1,0,1,,,,,,,,,,,,,,,,,,,,,,,,,,,,,,,,,,,,,,,
,,,,,,,,2023-08-16_08h07.45.702,HF_wild_card,2022.2.4,Win32,60.06006006,5a4e26a8f4c9dc0001b7a1b5,64d2fd46c836a06233681665,64dc75a355f70a6055c54717,,,,,,,ctch,resources/DBN.BMP,resources/DG.BMP,Door4,-0.244791667,-0.024739583,1,0,0,1.1704,optionLeft,80,9605,5,2,0,2,0,1,,,,,,,,,,,,,,,,,,,,,,,,,,,,,,,,,,,,,,,
,,,,,,,,2023-08-16_08h07.45.702,HF_wild_card,2022.2.4,Win32,60.06006006,5a4e26a8f4c9dc0001b7a1b5,64d2fd46c836a06233681665,64dc75a355f70a6055c54717,,,,,,,sngl,resources/DG.BMP,resources/Empty.png,Door1,-0.180989583,0.016927083,1,0,0,0.6402,optionLeft,30,9635,5,3,0,3,0,1,,,,,,,,,,,,,,,,,,,,,,,,,,,,,,,,,,,,,,,
,,,,,,,,2023-08-16_08h07.45.702,HF_wild_card,2022.2.4,Win32,60.06006006,5a4e26a8f4c9dc0001b7a1b5,64d2fd46c836a06233681665,64dc75a355f70a6055c54717,,,,,,,ctch,resources/DG.BMP,resources/DBN.BMP,Door4,0.217447917,0.020833333,1,0,0,0.7207,optionRight,60,9695,5,4,0,4,0,1,,,,,,,,,,,,,,,,,,,,,,,,,,,,,,,,,,,,,,,
,,,,,,,,2023-08-16_08h07.45.702,HF_wild_card,2022.2.4,Win32,60.06006006,5a4e26a8f4c9dc0001b7a1b5,64d2fd46c836a06233681665,64dc75a355f70a6055c54717,,,,,,,decisionTrl,resources/DY.BMP,resources/DB.BMP,Door2,-0.196614583,-0.036458333,1,0,0,0.7165,optionLeft,40,9735,5,5,0,5,0,1,,,,,,,,,,,,,,,,,,,,,,,,,,,,,,,,,,,,,,,
,,,,,,,,2023-08-16_08h07.45.702,HF_wild_card,2022.2.4,Win32,60.06006006,5a4e26a8f4c9dc0001b7a1b5,64d2fd46c836a06233681665,64dc75a355f70a6055c54717,,,,,,,decisionTrl,resources/DBN.BMP,resources/DR.BMP,Door4,-0.23046875,0.010416667,1,0,0,0.7144,optionLeft,60,9795,5,6,0,6,0,1,,,,,,,,,,,,,,,,,,,,,,,,,,,,,,,,,,,,,,,
,,,,,,,,2023-08-16_08h07.45.702,HF_wild_card,2022.2.4,Win32,60.06006006,5a4e26a8f4c9dc0001b7a1b5,64d2fd46c836a06233681665,64dc75a355f70a6055c54717,,,,,,,sngl,resources/DR.BMP,resources/Empty.png,Door3,-0.1484375,0.002604167,1,0,0,0.5651,optionLeft,70,9865,5,7,0,7,0,1,,,,,,,,,,,,,,,,,,,,,,,,,,,,,,,,,,,,,,,
,,,,,,,,2023-08-16_08h07.45.702,HF_wild_card,2022.2.4,Win32,60.06006006,5a4e26a8f4c9dc0001b7a1b5,64d2fd46c836a06233681665,64dc75a355f70a6055c54717,,,,,,,decisionTrl,resources/DB.BMP,resources/DG.BMP,WildCard_Ex,-0.153645833,-0.006510417,1,0,0,0.8346,optionLeft,55,9920,5,8,0,8,0,1,,,,,,,,,,,,,,,,,,,,,,,,,,,,,,,,,,,,,,,
,,,,,,,,2023-08-16_08h07.45.702,HF_wild_card,2022.2.4,Win32,60.06006006,5a4e26a8f4c9dc0001b7a1b5,64d2fd46c836a06233681665,64dc75a355f70a6055c54717,,,,,,,sngl,resources/Empty.png,resources/DB.BMP,WildCard_Ex,0.19140625,-0.028645833,1,0,0,0.7044,optionRight,55,9975,5,9,0,9,0,1,,,,,,,,,,,,,,,,,,,,,,,,,,,,,,,,,,,,,,,
,,,,,,,,2023-08-16_08h07.45.702,HF_wild_card,2022.2.4,Win32,60.06006006,5a4e26a8f4c9dc0001b7a1b5,64d2fd46c836a06233681665,64dc75a355f70a6055c54717,,,,,,,sngl,resources/DB.BMP,resources/Empty.png,WildCard_Ex,-0.2109375,0.024739583,1,0,0,0.5782,optionLeft,45,10020,5,10,0,10,0,1,,,,,,,,,,,,,,,,,,,,,,,,,,,,,,,,,,,,,,,
,,,,,,,,2023-08-16_08h07.45.702,HF_wild_card,2022.2.4,Win32,60.06006006,5a4e26a8f4c9dc0001b7a1b5,64d2fd46c836a06233681665,64dc75a355f70a6055c54717,,,,,,,decisionTrl,resources/DBN.BMP,resources/DR.BMP,Door4,-0.108072917,0.028645833,1,0,0,1.1517,optionLeft,80,10100,5,11,0,11,0,1,,,,,,,,,,,,,,,,,,,,,,,,,,,,,,,,,,,,,,,
,,,,,,,,2023-08-16_08h07.45.702,HF_wild_card,2022.2.4,Win32,60.06006006,5a4e26a8f4c9dc0001b7a1b5,64d2fd46c836a06233681665,64dc75a355f70a6055c54717,,,,,,,sngl,resources/Empty.png,resources/DG.BMP,Door1,0.111979167,0.00390625,1,0,0,0.6425,optionRight,30,10130,5,12,0,12,0,1,,,,,,,,,,,,,,,,,,,,,,,,,,,,,,,,,,,,,,,
,,,,,,,,2023-08-16_08h07.45.702,HF_wild_card,2022.2.4,Win32,60.06006006,5a4e26a8f4c9dc0001b7a1b5,64d2fd46c836a06233681665,64dc75a355f70a6055c54717,,,,,,,decisionTrl,resources/DG.BMP,resources/DY.BMP,Door1,-0.200520833,0.006510417,1,0,0,0.6649,optionLeft,30,10160,5,13,0,13,0,1,,,,,,,,,,,,,,,,,,,,,,,,,,,,,,,,,,,,,,,
,,,,,,,,2023-08-16_08h07.45.702,HF_wild_card,2022.2.4,Win32,60.06006006,5a4e26a8f4c9dc0001b7a1b5,64d2fd46c836a06233681665,64dc75a355f70a6055c54717,,,,,,,sngl,resources/DY.BMP,resources/Empty.png,Door2,-0.234375,-0.001302083,1,0,0,0.6165,optionLeft,40,10200,5,14,0,14,0,1,,,,,,,,,,,,,,,,,,,,,,,,,,,,,,,,,,,,,,,
,,,,,,,,2023-08-16_08h07.45.702,HF_wild_card,2022.2.4,Win32,60.06006006,5a4e26a8f4c9dc0001b7a1b5,64d2fd46c836a06233681665,64dc75a355f70a6055c54717,,,,,,,decisionTrl,resources/DG.BMP,resources/DB.BMP,WildCard_Ex,0.111979167,-0.028645833,1,0,0,1.1292,optionRight,45,10245,5,15,0,15,0,1,,,,,,,,,,,,,,,,,,,,,,,,,,,,,,,,,,,,,,,
,,,,,,,,2023-08-16_08h07.45.702,HF_wild_card,2022.2.4,Win32,60.06006006,5a4e26a8f4c9dc0001b7a1b5,64d2fd46c836a06233681665,64dc75a355f70a6055c54717,,,,,,,decisionTrl,resources/DR.BMP,resources/DBN.BMP,Door4,0.240885417,-0.069010417,1,0,0,2.0826,optionRight,60,10305,5,16,0,16,0,1,,,,,,,,,,,,,,,,,,,,,,,,,,,,,,,,,,,,,,,
,,,,,,,,2023-08-16_08h07.45.702,HF_wild_card,2022.2.4,Win32,60.06006006,5a4e26a8f4c9dc0001b7a1b5,64d2fd46c836a06233681665,64dc75a355f70a6055c54717,,,,,,,decisionTrl,resources/DY.BMP,resources/DG.BMP,Door1,0.14453125,0.024739583,1,0,0,3.2592,optionRight,30,10335,5,17,0,17,0,1,,,,,,,,,,,,,,,,,,,,,,,,,,,,,,,,,,,,,,,
,,,,,,,,2023-08-16_08h07.45.702,HF_wild_card,2022.2.4,Win32,60.06006006,5a4e26a8f4c9dc0001b7a1b5,64d2fd46c836a06233681665,64dc75a355f70a6055c54717,,,,,,,ctch,resources/DY.BMP,resources/DR.BMP,Door3,0.145833333,-0.009114583,1,0,0,0.6735,optionRight,70,10405,5,18,0,18,0,1,,,,,,,,,,,,,,,,,,,,,,,,,,,,,,,,,,,,,,,
,,,,,,,,2023-08-16_08h07.45.702,HF_wild_card,2022.2.4,Win32,60.06006006,5a4e26a8f4c9dc0001b7a1b5,64d2fd46c836a06233681665,64dc75a355f70a6055c54717,,,,,,,sngl,resources/DBN.BMP,resources/Empty.png,Door4,-0.177083333,-0.001302083,1,0,0,0.559,optionLeft,80,10485,5,19,0,19,0,1,,,,,,,,,,,,,,,,,,,,,,,,,,,,,,,,,,,,,,,
,,,,,,,,2023-08-16_08h07.45.702,HF_wild_card,2022.2.4,Win32,60.06006006,5a4e26a8f4c9dc0001b7a1b5,64d2fd46c836a06233681665,64dc75a355f70a6055c54717,,,,,,,decisionTrl,resources/DY.BMP,resources/DG.BMP,Door1,0.26171875,0.03515625,1,0,0,1.0597,optionRight,30,10515,5,20,0,20,0,1,,,,,,,,,,,,,,,,,,,,,,,,,,,,,,,,,,,,,,,
,,,,,,,,2023-08-16_08h07.45.702,HF_wild_card,2022.2.4,Win32,60.06006006,5a4e26a8f4c9dc0001b7a1b5,64d2fd46c836a06233681665,64dc75a355f70a6055c54717,,,,,,,decisionTrl,resources/DB.BMP,resources/DR.BMP,Door3,0.171875,0,1,0,0,1.0329,optionRight,70,10585,5,21,0,21,0,1,,,,,,,,,,,,,,,,,,,,,,,,,,,,,,,,,,,,,,,
,,,,,,,,2023-08-16_08h07.45.702,HF_wild_card,2022.2.4,Win32,60.06006006,5a4e26a8f4c9dc0001b7a1b5,64d2fd46c836a06233681665,64dc75a355f70a6055c54717,,,,,,,decisionTrl,resources/DY.BMP,resources/DG.BMP,Door1,0.166666667,0.015625,1,0,0,5.2051,optionRight,30,10615,5,22,0,22,0,1,,,,,,,,,,,,,,,,,,,,,,,,,,,,,,,,,,,,,,,
,,,,,,,,2023-08-16_08h07.45.702,HF_wild_card,2022.2.4,Win32,60.06006006,5a4e26a8f4c9dc0001b7a1b5,64d2fd46c836a06233681665,64dc75a355f70a6055c54717,,,,,,,decisionTrl,resources/DR.BMP,resources/DB.BMP,Door3,0.09765625,0.002604167,1,0,0,1.1961,optionLeft,70,10685,5,23,0,23,0,1,,,,,,,,,,,,,,,,,,,,,,,,,,,,,,,,,,,,,,,
,,,,,,,,2023-08-16_08h07.45.702,HF_wild_card,2022.2.4,Win32,60.06006006,5a4e26a8f4c9dc0001b7a1b5,64d2fd46c836a06233681665,64dc75a355f70a6055c54717,,,,,,,sngl,resources/Empty.png,resources/DBN.BMP,Door4,0.333333333,0.0625,1,0,0,0.7939,optionRight,60,10745,5,24,0,24,0,1,,,,,,,,,,,,,,,,,,,,,,,,,,,,,,,,,,,,,,,
,,,,,,,,2023-08-16_08h07.45.702,HF_wild_card,2022.2.4,Win32,60.06006006,5a4e26a8f4c9dc0001b7a1b5,64d2fd46c836a06233681665,64dc75a355f70a6055c54717,,,,,,,ctch,resources/DG.BMP,resources/DBN.BMP,Door4,0.23046875,0.029947917,1,0,0,0.7816,optionRight,60,10805,5,25,0,25,0,1,,,,,,,,,,,,,,,,,,,,,,,,,,,,,,,,,,,,,,,
,,,,,,,,2023-08-16_08h07.45.702,HF_wild_card,2022.2.4,Win32,60.06006006,5a4e26a8f4c9dc0001b7a1b5,64d2fd46c836a06233681665,64dc75a355f70a6055c54717,,,,,,,decisionTrl,resources/DBN.BMP,resources/DR.BMP,Door4,-0.171875,0.020833333,1,0,0,1.0857,optionLeft,80,10885,5,26,0,26,0,1,,,,,,,,,,,,,,,,,,,,,,,,,,,,,,,,,,,,,,,
,,,,,,,,2023-08-16_08h07.45.702,HF_wild_card,2022.2.4,Win32,60.06006006,5a4e26a8f4c9dc0001b7a1b5,64d2fd46c836a06233681665,64dc75a355f70a6055c54717,,,,,,,sngl,resources/DB.BMP,resources/Empty.png,WildCard_Ex,-0.19140625,0.029947917,1,0,0,0.7089,optionLeft,55,10940,5,27,0,27,0,1,,,,,,,,,,,,,,,,,,,,,,,,,,,,,,,,,,,,,,,
,,,,,,,,2023-08-16_08h07.45.702,HF_wild_card,2022.2.4,Win32,60.06006006,5a4e26a8f4c9dc0001b7a1b5,64d2fd46c836a06233681665,64dc75a355f70a6055c54717,,,,,,,decisionTrl,resources/DB.BMP,resources/DY.BMP,WildCard_Ex,-0.138020833,0.036458333,1,0,0,0.8538,optionLeft,55,10995,5,28,0,28,0,1,,,,,,,,,,,,,,,,,,,,,,,,,,,,,,,,,,,,,,,
,,,,,,,,2023-08-16_08h07.45.702,HF_wild_card,2022.2.4,Win32,60.06006006,5a4e26a8f4c9dc0001b7a1b5,64d2fd46c836a06233681665,64dc75a355f70a6055c54717,,,,,,,ctch,resources/DBN.BMP,resources/DG.BMP,Door4,-0.13671875,0.029947917,1,0,0,0.7303,optionLeft,80,11075,5,29,0,29,0,1,,,,,,,,,,,,,,,,,,,,,,,,,,,,,,,,,,,,,,,
,,,,,,,,2023-08-16_08h07.45.702,HF_wild_card,2022.2.4,Win32,60.06006006,5a4e26a8f4c9dc0001b7a1b5,64d2fd46c836a06233681665,64dc75a355f70a6055c54717,,,,,,,decisionTrl,resources/DBN.BMP,resources/DR.BMP,Door4,-0.234375,0.006510417,1,0,0,0.6781,optionLeft,60,11135,5,30,0,30,0,1,,,,,,,,,,,,,,,,,,,,,,,,,,,,,,,,,,,,,,,
,,,,,,,,2023-08-16_08h07.45.702,HF_wild_card,2022.2.4,Win32,60.06006006,5a4e26a8f4c9dc0001b7a1b5,64d2fd46c836a06233681665,64dc75a355f70a6055c54717,,,,,,,sngl,resources/Empty.png,resources/DR.BMP,Door3,0.377604167,-0.00390625,1,0,0,1.058,optionRight,70,11205,5,31,0,31,0,1,,,,,,,,,,,,,,,,,,,,,,,,,,,,,,,,,,,,,,,
,,,,,,,,2023-08-16_08h07.45.702,HF_wild_card,2022.2.4,Win32,60.06006006,5a4e26a8f4c9dc0001b7a1b5,64d2fd46c836a06233681665,64dc75a355f70a6055c54717,,,,,,,decisionTrl,resources/DB.BMP,resources/DBN.BMP,Door4,0.26171875,0.016927083,1,0,0,0.7467,optionRight,60,11265,5,32,0,32,0,1,,,,,,,,,,,,,,,,,,,,,,,,,,,,,,,,,,,,,,,
,,,,,,,,2023-08-16_08h07.45.702,HF_wild_card,2022.2.4,Win32,60.06006006,5a4e26a8f4c9dc0001b7a1b5,64d2fd46c836a06233681665,64dc75a355f70a6055c54717,,,,,,,ctch,resources/DR.BMP,resources/DY.BMP,Door3,-0.223958333,0.03125,1,0,0,0.63,optionLeft,70,11335,5,33,0,33,0,1,,,,,,,,,,,,,,,,,,,,,,,,,,,,,,,,,,,,,,,
,,,,,,,,2023-08-16_08h07.45.702,HF_wild_card,2022.2.4,Win32,60.06006006,5a4e26a8f4c9dc0001b7a1b5,64d2fd46c836a06233681665,64dc75a355f70a6055c54717,,,,,,,decisionTrl,resources/DY.BMP,resources/DG.BMP,Door1,0.200520833,0.00390625,1,0,0,1.0148,optionRight,30,11365,5,34,0,34,0,1,,,,,,,,,,,,,,,,,,,,,,,,,,,,,,,,,,,,,,,
,,,,,,,,2023-08-16_08h07.45.702,HF_wild_card,2022.2.4,Win32,60.06006006,5a4e26a8f4c9dc0001b7a1b5,64d2fd46c836a06233681665,64dc75a355f70a6055c54717,,,,,,,sngl,resources/Empty.png,resources/DY.BMP,Door2,0.20703125,0.020833333,1,0,0,0.9299,optionRight,20,11385,5,35,0,35,0,1,,,,,,,,,,,,,,,,,,,,,,,,,,,,,,,,,,,,,,,
,,,,,,,,2023-08-16_08h07.45.702,HF_wild_card,2022.2.4,Win32,60.06006006,5a4e26a8f4c9dc0001b7a1b5,64d2fd46c836a06233681665,64dc75a355f70a6055c54717,,,,,,,decisionTrl,resources/DR.BMP,resources/DBN.BMP,Door4,0.217447917,0.020833333,1,0,0,0.8354,optionRight,60,11445,5,36,0,36,0,1,,,,,,,,,,,,,,,,,,,,,,,,,,,,,,,,,,,,,,,
,,,,,,,,2023-08-16_08h07.45.702,HF_wild_card,2022.2.4,Win32,60.06006006,5a4e26a8f4c9dc0001b7a1b5,64d2fd46c836a06233681665,64dc75a355f70a6055c54717,,,,,,,decisionTrl,resources/DG.BMP,resources/DY.BMP,Door1,-0.174479167,0.026041667,1,0,0,0.7938,optionLeft,30,11475,5,37,0,37,0,1,,,,,,,,,,,,,,,,,,,,,,,,,,,,,,,,,,,,,,,
,,,,,,,,2023-08-16_08h07.45.702,HF_wild_card,2022.2.4,Win32,60.06006006,5a4e26a8f4c9dc0001b7a1b5,64d2fd46c836a06233681665,64dc75a355f70a6055c54717,,,,,,,sngl,resources/Empty.png,resources/DB.BMP,WildCard_Ex,0.298177083,0.041666667,1,0,0,0.6746,optionRight,45,11520,5,38,0,38,0,1,,,,,,,,,,,,,,,,,,,,,,,,,,,,,,,,,,,,,,,
,,,,,,,,2023-08-16_08h07.45.702,HF_wild_card,2022.2.4,Win32,60.06006006,5a4e26a8f4c9dc0001b7a1b5,64d2fd46c836a06233681665,64dc75a355f70a6055c54717,,,,,,,decisionTrl,resources/DBN.BMP,resources/DB.BMP,Door4,-0.2265625,0.057291667,1,0,0,0.593,optionLeft,60,11580,5,39,0,39,0,1,,,,,,,,,,,,,,,,,,,,,,,,,,,,,,,,,,,,,,,
,,,,,,,,2023-08-16_08h07.45.702,HF_wild_card,2022.2.4,Win32,60.06006006,5a4e26a8f4c9dc0001b7a1b5,64d2fd46c836a06233681665,64dc75a355f70a6055c54717,,,,,,,decisionTrl,resources/DR.BMP,resources/DBN.BMP,Door4,0.141927083,-0.014322917,1,0,0,0.8673,optionRight,80,11660,5,40,0,40,0,1,,,,,,,,,,,,,,,,,,,,,,,,,,,,,,,,,,,,,,,
,,,,,,,,2023-08-16_08h07.45.702,HF_wild_card,2022.2.4,Win32,60.06006006,5a4e26a8f4c9dc0001b7a1b5,64d2fd46c836a06233681665,64dc75a355f70a6055c54717,,,,,,,decisionTrl,resources/DR.BMP,resources/DBN.BMP,Door4,0.190104167,0.002604167,1,0,0,0.8959,optionRight,80,11740,5,41,0,41,0,1,,,,,,,,,,,,,,,,,,,,,,,,,,,,,,,,,,,,,,,
,,,,,,,,2023-08-16_08h07.45.702,HF_wild_card,2022.2.4,Win32,60.06006006,5a4e26a8f4c9dc0001b7a1b5,64d2fd46c836a06233681665,64dc75a355f70a6055c54717,,,,,,,ctch,resources/DY.BMP,resources/DR.BMP,Door3,0.321614583,0.044270833,1,0,0,1.1142,optionRight,70,11810,5,42,0,42,0,1,,,,,,,,,,,,,,,,,,,,,,,,,,,,,,,,,,,,,,,
,,,,,,,,2023-08-16_08h07.45.702,HF_wild_card,2022.2.4,Win32,60.06006006,5a4e26a8f4c9dc0001b7a1b5,64d2fd46c836a06233681665,64dc75a355f70a6055c54717,,,,,,,decisionTrl,resources/DG.BMP,resources/DY.BMP,Door1,-0.21484375,0.009114583,1,0,0,2.0631,optionLeft,30,11840,5,43,0,43,0,1,,,,,,,,,,,,,,,,,,,,,,,,,,,,,,,,,,,,,,,
,,,,,,,,2023-08-16_08h07.45.702,HF_wild_card,2022.2.4,Win32,60.06006006,5a4e26a8f4c9dc0001b7a1b5,64d2fd46c836a06233681665,64dc75a355f70a6055c54717,,,,,,,,,,,,,,,,,,,,,,,,,,4,0,4,0,1,,,,,,,,,,,,,,,,,,,,,,,,,,,,,,,,,,
,,,,,,,,2023-08-16_08h07.45.702,HF_wild_card,2022.2.4,Win32,60.06006006,5a4e26a8f4c9dc0001b7a1b5,64d2fd46c836a06233681665,64dc75a355f70a6055c54717,,,,,,,sngl,resources/Empty.png,resources/DB.BMP,WildCard_Ex,0.29296875,-0.138020833,1,0,0,1.1801,optionRight,45,11885,6,0,0,0,0,1,,,,,,,,,,,,,,,,,,,,,,,,,,,,,,,,,,,,,,,
,,,,,,,,2023-08-16_08h07.45.702,HF_wild_card,2022.2.4,Win32,60.06006006,5a4e26a8f4c9dc0001b7a1b5,64d2fd46c836a06233681665,64dc75a355f70a6055c54717,,,,,,,ctch,resources/DY.BMP,resources/DR.BMP,Door3,0.1953125,-0.03515625,1,0,0,1.0739,optionRight,70,11955,6,1,0,1,0,1,,,,,,,,,,,,,,,,,,,,,,,,,,,,,,,,,,,,,,,
,,,,,,,,2023-08-16_08h07.45.702,HF_wild_card,2022.2.4,Win32,60.06006006,5a4e26a8f4c9dc0001b7a1b5,64d2fd46c836a06233681665,64dc75a355f70a6055c54717,,,,,,,sngl,resources/DB.BMP,resources/Empty.png,WildCard_Ex,-0.1796875,0.040364583,1,0,0,1.2816,optionLeft,45,12000,6,2,0,2,0,1,,,,,,,,,,,,,,,,,,,,,,,,,,,,,,,,,,,,,,,
,,,,,,,,2023-08-16_08h07.45.702,HF_wild_card,2022.2.4,Win32,60.06006006,5a4e26a8f4c9dc0001b7a1b5,64d2fd46c836a06233681665,64dc75a355f70a6055c54717,,,,,,,ctch,resources/DBN.BMP,resources/DG.BMP,Door4,-0.17578125,0.055989583,1,0,0,1.0945,optionLeft,80,12080,6,3,0,3,0,1,,,,,,,,,,,,,,,,,,,,,,,,,,,,,,,,,,,,,,,
,,,,,,,,2023-08-16_08h07.45.702,HF_wild_card,2022.2.4,Win32,60.06006006,5a4e26a8f4c9dc0001b7a1b5,64d2fd46c836a06233681665,64dc75a355f70a6055c54717,,,,,,,sngl,resources/Empty.png,resources/DG.BMP,Door1,0.1875,0.0234375,1,0,0,0.6924,optionRight,30,12110,6,4,0,4,0,1,,,,,,,,,,,,,,,,,,,,,,,,,,,,,,,,,,,,,,,
,,,,,,,,2023-08-16_08h07.45.702,HF_wild_card,2022.2.4,Win32,60.06006006,5a4e26a8f4c9dc0001b7a1b5,64d2fd46c836a06233681665,64dc75a355f70a6055c54717,,,,,,,decisionTrl,resources/DR.BMP,resources/DB.BMP,Door3,-0.20703125,0.046875,1,0,0,1.2604,optionLeft,70,12180,6,5,0,5,0,1,,,,,,,,,,,,,,,,,,,,,,,,,,,,,,,,,,,,,,,
,,,,,,,,2023-08-16_08h07.45.702,HF_wild_card,2022.2.4,Win32,60.06006006,5a4e26a8f4c9dc0001b7a1b5,64d2fd46c836a06233681665,64dc75a355f70a6055c54717,,,,,,,decisionTrl,resources/DG.BMP,resources/DY.BMP,Door1,-0.1640625,0.016927083,1,0,0,0.9655,optionLeft,30,12210,6,6,0,6,0,1,,,,,,,,,,,,,,,,,,,,,,,,,,,,,,,,,,,,,,,
,,,,,,,,2023-08-16_08h07.45.702,HF_wild_card,2022.2.4,Win32,60.06006006,5a4e26a8f4c9dc0001b7a1b5,64d2fd46c836a06233681665,64dc75a355f70a6055c54717,,,,,,,ctch,resources/DY.BMP,resources/DR.BMP,Door3,0.212239583,0.028645833,1,0,0,0.8585,optionRight,70,12280,6,7,0,7,0,1,,,,,,,,,,,,,,,,,,,,,,,,,,,,,,,,,,,,,,,
,,,,,,,,2023-08-16_08h07.45.702,HF_wild_card,2022.2.4,Win32,60.06006006,5a4e26a8f4c9dc0001b7a1b5,64d2fd46c836a06233681665,64dc75a355f70a6055c54717,,,,,,,decisionTrl,resources/DR.BMP,resources/DBN.BMP,Door4,0.220052083,0.0625,1,0,0,0.9902,optionRight,60,12340,6,8,0,8,0,1,,,,,,,,,,,,,,,,,,,,,,,,,,,,,,,,,,,,,,,
,,,,,,,,2023-08-16_08h07.45.702,HF_wild_card,2022.2.4,Win32,60.06006006,5a4e26a8f4c9dc0001b7a1b5,64d2fd46c836a06233681665,64dc75a355f70a6055c54717,,,,,,,decisionTrl,resources/DY.BMP,resources/DG.BMP,Door2,-0.143229167,0.055989583,1,0,0,1.7628,optionLeft,40,12380,6,9,0,9,0,1,,,,,,,,,,,,,,,,,,,,,,,,,,,,,,,,,,,,,,,
,,,,,,,,2023-08-16_08h07.45.702,HF_wild_card,2022.2.4,Win32,60.06006006,5a4e26a8f4c9dc0001b7a1b5,64d2fd46c836a06233681665,64dc75a355f70a6055c54717,,,,,,,decisionTrl,resources/DY.BMP,resources/DG.BMP,Door2,-0.188802083,0.022135417,1,0,0,0.7448,optionLeft,40,12420,6,10,0,10,0,1,,,,,,,,,,,,,,,,,,,,,,,,,,,,,,,,,,,,,,,
,,,,,,,,2023-08-16_08h07.45.702,HF_wild_card,2022.2.4,Win32,60.06006006,5a4e26a8f4c9dc0001b7a1b5,64d2fd46c836a06233681665,64dc75a355f70a6055c54717,,,,,,,decisionTrl,resources/DY.BMP,resources/DB.BMP,WildCard_Ex,0.17578125,0.049479167,1,0,0,0.9994,optionRight,45,12465,6,11,0,11,0,1,,,,,,,,,,,,,,,,,,,,,,,,,,,,,,,,,,,,,,,
,,,,,,,,2023-08-16_08h07.45.702,HF_wild_card,2022.2.4,Win32,60.06006006,5a4e26a8f4c9dc0001b7a1b5,64d2fd46c836a06233681665,64dc75a355f70a6055c54717,,,,,,,decisionTrl,resources/DG.BMP,resources/DB.BMP,WildCard_Ex,-0.0078125,0.009114583,1,0,0,0.3694,optionRight,45,12510,6,12,0,12,0,1,,,,,,,,,,,,,,,,,,,,,,,,,,,,,,,,,,,,,,,
,,,,,,,,2023-08-16_08h07.45.702,HF_wild_card,2022.2.4,Win32,60.06006006,5a4e26a8f4c9dc0001b7a1b5,64d2fd46c836a06233681665,64dc75a355f70a6055c54717,,,,,,,sngl,resources/Empty.png,resources/DB.BMP,WildCard_Ex,0.19140625,0.010416667,1,0,0,0.8396,optionRight,55,12565,6,13,0,13,0,1,,,,,,,,,,,,,,,,,,,,,,,,,,,,,,,,,,,,,,,
,,,,,,,,2023-08-16_08h07.45.702,HF_wild_card,2022.2.4,Win32,60.06006006,5a4e26a8f4c9dc0001b7a1b5,64d2fd46c836a06233681665,64dc75a355f70a6055c54717,,,,,,,sngl,resources/DY.BMP,resources/Empty.png,Door2,-0.170572917,0.02734375,1,0,0,0.5698,optionLeft,20,12585,6,14,0,14,0,1,,,,,,,,,,,,,,,,,,,,,,,,,,,,,,,,,,,,,,,
,,,,,,,,2023-08-16_08h07.45.702,HF_wild_card,2022.2.4,Win32,60.06006006,5a4e26a8f4c9dc0001b7a1b5,64d2fd46c836a06233681665,64dc75a355f70a6055c54717,,,,,,,sngl,resources/Empty.png,resources/DY.BMP,Door2,0.276041667,0.095052083,1,0,0,0.6566,optionRight,40,12625,6,15,0,15,0,1,,,,,,,,,,,,,,,,,,,,,,,,,,,,,,,,,,,,,,,
,,,,,,,,2023-08-16_08h07.45.702,HF_wild_card,2022.2.4,Win32,60.06006006,5a4e26a8f4c9dc0001b7a1b5,64d2fd46c836a06233681665,64dc75a355f70a6055c54717,,,,,,,sngl,resources/DB.BMP,resources/Empty.png,WildCard_Ex,-0.209635417,-0.010416667,1,0,0,0.6182,optionLeft,55,12680,6,16,0,16,0,1,,,,,,,,,,,,,,,,,,,,,,,,,,,,,,,,,,,,,,,
,,,,,,,,2023-08-16_08h07.45.702,HF_wild_card,2022.2.4,Win32,60.06006006,5a4e26a8f4c9dc0001b7a1b5,64d2fd46c836a06233681665,64dc75a355f70a6055c54717,,,,,,,sngl,resources/Empty.png,resources/DBN.BMP,Door4,0.18359375,0.032552083,1,0,0,0.6298,optionRight,80,12760,6,17,0,17,0,1,,,,,,,,,,,,,,,,,,,,,,,,,,,,,,,,,,,,,,,
,,,,,,,,2023-08-16_08h07.45.702,HF_wild_card,2022.2.4,Win32,60.06006006,5a4e26a8f4c9dc0001b7a1b5,64d2fd46c836a06233681665,64dc75a355f70a6055c54717,,,,,,,decisionTrl,resources/DG.BMP,resources/DY.BMP,Door1,-0.177083333,-0.013020833,1,0,0,1.5584,optionLeft,30,12790,6,18,0,18,0,1,,,,,,,,,,,,,,,,,,,,,,,,,,,,,,,,,,,,,,,
,,,,,,,,2023-08-16_08h07.45.702,HF_wild_card,2022.2.4,Win32,60.06006006,5a4e26a8f4c9dc0001b7a1b5,64d2fd46c836a06233681665,64dc75a355f70a6055c54717,,,,,,,decisionTrl,resources/DG.BMP,resources/DY.BMP,Door2,0.2109375,0.0234375,1,0,0,0.7694,optionRight,40,12830,6,19,0,19,0,1,,,,,,,,,,,,,,,,,,,,,,,,,,,,,,,,,,,,,,,
,,,,,,,,2023-08-16_08h07.45.702,HF_wild_card,2022.2.4,Win32,60.06006006,5a4e26a8f4c9dc0001b7a1b5,64d2fd46c836a06233681665,64dc75a355f70a6055c54717,,,,,,,ctch,resources/DR.BMP,resources/DY.BMP,Door3,-0.209635417,0.0390625,1,0,0,0.8644,optionLeft,70,12900,6,20,0,20,0,1,,,,,,,,,,,,,,,,,,,,,,,,,,,,,,,,,,,,,,,
,,,,,,,,2023-08-16_08h07.45.702,HF_wild_card,2022.2.4,Win32,60.06006006,5a4e26a8f4c9dc0001b7a1b5,64d2fd46c836a06233681665,64dc75a355f70a6055c54717,,,,,,,decisionTrl,resources/DR.BMP,resources/DBN.BMP,Door4,0.197916667,0.01171875,1,0,0,0.6961,optionRight,60,12960,6,21,0,21,0,1,,,,,,,,,,,,,,,,,,,,,,,,,,,,,,,,,,,,,,,
,,,,,,,,2023-08-16_08h07.45.702,HF_wild_card,2022.2.4,Win32,60.06006006,5a4e26a8f4c9dc0001b7a1b5,64d2fd46c836a06233681665,64dc75a355f70a6055c54717,,,,,,,decisionTrl,resources/DY.BMP,resources/DG.BMP,Door2,-0.111979167,0.01171875,1,0,0,1.383,optionLeft,20,12980,6,22,0,22,0,1,,,,,,,,,,,,,,,,,,,,,,,,,,,,,,,,,,,,,,,
,,,,,,,,2023-08-16_08h07.45.702,HF_wild_card,2022.2.4,Win32,60.06006006,5a4e26a8f4c9dc0001b7a1b5,64d2fd46c836a06233681665,64dc75a355f70a6055c54717,,,,,,,decisionTrl,resources/DB.BMP,resources/DY.BMP,WildCard_Ex,-0.151041667,0.013020833,1,0,0,0.7642,optionLeft,55,13035,6,23,0,23,0,1,,,,,,,,,,,,,,,,,,,,,,,,,,,,,,,,,,,,,,,
,,,,,,,,2023-08-16_08h07.45.702,HF_wild_card,2022.2.4,Win32,60.06006006,5a4e26a8f4c9dc0001b7a1b5,64d2fd46c836a06233681665,64dc75a355f70a6055c54717,,,,,,,decisionTrl,resources/DR.BMP,resources/DBN.BMP,Door3,-0.139322917,0.046875,1,0,0,0.9081,optionLeft,70,13105,6,24,0,24,0,1,,,,,,,,,,,,,,,,,,,,,,,,,,,,,,,,,,,,,,,
,,,,,,,,2023-08-16_08h07.45.702,HF_wild_card,2022.2.4,Win32,60.06006006,5a4e26a8f4c9dc0001b7a1b5,64d2fd46c836a06233681665,64dc75a355f70a6055c54717,,,,,,,ctch,resources/DR.BMP,resources/DY.BMP,Door3,-0.165364583,0.044270833,1,0,0,0.7418,optionLeft,70,13175,6,25,0,25,0,1,,,,,,,,,,,,,,,,,,,,,,,,,,,,,,,,,,,,,,,
,,,,,,,,2023-08-16_08h07.45.702,HF_wild_card,2022.2.4,Win32,60.06006006,5a4e26a8f4c9dc0001b7a1b5,64d2fd46c836a06233681665,64dc75a355f70a6055c54717,,,,,,,decisionTrl,resources/DB.BMP,resources/DBN.BMP,Door4,0.162760417,0.0625,1,0,0,0.9265,optionRight,60,13235,6,26,0,26,0,1,,,,,,,,,,,,,,,,,,,,,,,,,,,,,,,,,,,,,,,
,,,,,,,,2023-08-16_08h07.45.702,HF_wild_card,2022.2.4,Win32,60.06006006,5a4e26a8f4c9dc0001b7a1b5,64d2fd46c836a06233681665,64dc75a355f70a6055c54717,,,,,,,sngl,resources/DR.BMP,resources/Empty.png,Door3,-0.188802083,0.028645833,1,0,0,0.691,optionLeft,70,13305,6,27,0,27,0,1,,,,,,,,,,,,,,,,,,,,,,,,,,,,,,,,,,,,,,,
,,,,,,,,2023-08-16_08h07.45.702,HF_wild_card,2022.2.4,Win32,60.06006006,5a4e26a8f4c9dc0001b7a1b5,64d2fd46c836a06233681665,64dc75a355f70a6055c54717,,,,,,,decisionTrl,resources/DB.BMP,resources/DR.BMP,Door3,0.200520833,-0.0078125,1,0,0,1.2335,optionRight,70,13375,6,28,0,28,0,1,,,,,,,,,,,,,,,,,,,,,,,,,,,,,,,,,,,,,,,
,,,,,,,,2023-08-16_08h07.45.702,HF_wild_card,2022.2.4,Win32,60.06006006,5a4e26a8f4c9dc0001b7a1b5,64d2fd46c836a06233681665,64dc75a355f70a6055c54717,,,,,,,decisionTrl,resources/DBN.BMP,resources/DR.BMP,Door4,-0.216145833,0.026041667,1,0,0,0.6942,optionLeft,60,13435,6,29,0,29,0,1,,,,,,,,,,,,,,,,,,,,,,,,,,,,,,,,,,,,,,,
,,,,,,,,2023-08-16_08h07.45.702,HF_wild_card,2022.2.4,Win32,60.06006006,5a4e26a8f4c9dc0001b7a1b5,64d2fd46c836a06233681665,64dc75a355f70a6055c54717,,,,,,,decisionTrl,resources/DBN.BMP,resources/DR.BMP,Door4,-0.2265625,-0.010416667,1,0,0,0.644,optionLeft,80,13515,6,30,0,30,0,1,,,,,,,,,,,,,,,,,,,,,,,,,,,,,,,,,,,,,,,
,,,,,,,,2023-08-16_08h07.45.702,HF_wild_card,2022.2.4,Win32,60.06006006,5a4e26a8f4c9dc0001b7a1b5,64d2fd46c836a06233681665,64dc75a355f70a6055c54717,,,,,,,decisionTrl,resources/DR.BMP,resources/DBN.BMP,Door3,-0.20703125,-0.020833333,1,0,0,0.6418,optionLeft,70,13585,6,31,0,31,0,1,,,,,,,,,,,,,,,,,,,,,,,,,,,,,,,,,,,,,,,
,,,,,,,,2023-08-16_08h07.45.702,HF_wild_card,2022.2.4,Win32,60.06006006,5a4e26a8f4c9dc0001b7a1b5,64d2fd46c836a06233681665,64dc75a355f70a6055c54717,,,,,,,decisionTrl,resources/DY.BMP,resources/DG.BMP,Door1,0.194010417,-0.029947917,1,0,0,1.7355,optionRight,30,13615,6,32,0,32,0,1,,,,,,,,,,,,,,,,,,,,,,,,,,,,,,,,,,,,,,,
,,,,,,,,2023-08-16_08h07.45.702,HF_wild_card,2022.2.4,Win32,60.06006006,5a4e26a8f4c9dc0001b7a1b5,64d2fd46c836a06233681665,64dc75a355f70a6055c54717,,,,,,,sngl,resources/Empty.png,resources/DR.BMP,Door3,0.247395833,0.020833333,1,0,0,1.0329,optionRight,70,13685,6,33,0,33,0,1,,,,,,,,,,,,,,,,,,,,,,,,,,,,,,,,,,,,,,,
,,,,,,,,2023-08-16_08h07.45.702,HF_wild_card,2022.2.4,Win32,60.06006006,5a4e26a8f4c9dc0001b7a1b5,64d2fd46c836a06233681665,64dc75a355f70a6055c54717,,,,,,,ctch,resources/DBN.BMP,resources/DG.BMP,Door4,-0.165364583,-0.013020833,1,0,0,2.6588,optionLeft,80,13765,6,34,0,34,0,1,,,,,,,,,,,,,,,,,,,,,,,,,,,,,,,,,,,,,,,
,,,,,,,,2023-08-16_08h07.45.702,HF_wild_card,2022.2.4,Win32,60.06006006,5a4e26a8f4c9dc0001b7a1b5,64d2fd46c836a06233681665,64dc75a355f70a6055c54717,,,,,,,decisionTrl,resources/DBN.BMP,resources/DR.BMP,Door4,-0.19921875,-0.022135417,1,0,0,1.1309,optionLeft,80,13845,6,35,0,35,0,1,,,,,,,,,,,,,,,,,,,,,,,,,,,,,,,,,,,,,,,
,,,,,,,,2023-08-16_08h07.45.702,HF_wild_card,2022.2.4,Win32,60.06006006,5a4e26a8f4c9dc0001b7a1b5,64d2fd46c836a06233681665,64dc75a355f70a6055c54717,,,,,,,sngl,resources/DBN.BMP,resources/Empty.png,Door4,-0.19140625,-0.00390625,1,0,0,0.691,optionLeft,60,13905,6,36,0,36,0,1,,,,,,,,,,,,,,,,,,,,,,,,,,,,,,,,,,,,,,,
,,,,,,,,2023-08-16_08h07.45.702,HF_wild_card,2022.2.4,Win32,60.06006006,5a4e26a8f4c9dc0001b7a1b5,64d2fd46c836a06233681665,64dc75a355f70a6055c54717,,,,,,,decisionTrl,resources/DBN.BMP,resources/DR.BMP,Door4,-0.25,0.009114583,1,0,0,0.6914,optionLeft,60,13965,6,37,0,37,0,1,,,,,,,,,,,,,,,,,,,,,,,,,,,,,,,,,,,,,,,
,,,,,,,,2023-08-16_08h07.45.702,HF_wild_card,2022.2.4,Win32,60.06006006,5a4e26a8f4c9dc0001b7a1b5,64d2fd46c836a06233681665,64dc75a355f70a6055c54717,,,,,,,ctch,resources/DG.BMP,resources/DBN.BMP,Door4,0.140625,0.010416667,1,0,0,0.7419,optionRight,80,14045,6,38,0,38,0,1,,,,,,,,,,,,,,,,,,,,,,,,,,,,,,,,,,,,,,,
,,,,,,,,2023-08-16_08h07.45.702,HF_wild_card,2022.2.4,Win32,60.06006006,5a4e26a8f4c9dc0001b7a1b5,64d2fd46c836a06233681665,64dc75a355f70a6055c54717,,,,,,,decisionTrl,resources/DG.BMP,resources/DY.BMP,Door1,-0.196614583,0.03125,1,0,0,0.5424,optionLeft,30,14075,6,39,0,39,0,1,,,,,,,,,,,,,,,,,,,,,,,,,,,,,,,,,,,,,,,
,,,,,,,,2023-08-16_08h07.45.702,HF_wild_card,2022.2.4,Win32,60.06006006,5a4e26a8f4c9dc0001b7a1b5,64d2fd46c836a06233681665,64dc75a355f70a6055c54717,,,,,,,ctch,resources/DG.BMP,resources/DBN.BMP,Door4,0.20703125,-0.040364583,1,0,0,1.5296,optionRight,60,14135,6,40,0,40,0,1,,,,,,,,,,,,,,,,,,,,,,,,,,,,,,,,,,,,,,,
,,,,,,,,2023-08-16_08h07.45.702,HF_wild_card,2022.2.4,Win32,60.06006006,5a4e26a8f4c9dc0001b7a1b5,64d2fd46c836a06233681665,64dc75a355f70a6055c54717,,,,,,,sngl,resources/DG.BMP,resources/Empty.png,Door1,-0.334635417,0.055989583,1,0,0,1.9573,optionLeft,30,14165,6,41,0,41,0,1,,,,,,,,,,,,,,,,,,,,,,,,,,,,,,,,,,,,,,,
,,,,,,,,2023-08-16_08h07.45.702,HF_wild_card,2022.2.4,Win32,60.06006006,5a4e26a8f4c9dc0001b7a1b5,64d2fd46c836a06233681665,64dc75a355f70a6055c54717,,,,,,,decisionTrl,resources/DB.BMP,resources/DG.BMP,WildCard_Ex,-0.26171875,-0.044270833,1,0,0,0.6431,optionLeft,55,14220,6,42,0,42,0,1,,,,,,,,,,,,,,,,,,,,,,,,,,,,,,,,,,,,,,,
,,,,,,,,2023-08-16_08h07.45.702,HF_wild_card,2022.2.4,Win32,60.06006006,5a4e26a8f4c9dc0001b7a1b5,64d2fd46c836a06233681665,64dc75a355f70a6055c54717,,,,,,,decisionTrl,resources/DBN.BMP,resources/DB.BMP,Door4,-0.200520833,0.005208333,1,0,0,0.6603,optionLeft,80,14300,6,43,0,43,0,1,,,,,,,,,,,,,,,,,,,,,,,,,,,,,,,,,,,,,,,
,,,,,,,,2023-08-16_08h07.45.702,HF_wild_card,2022.2.4,Win32,60.06006006,5a4e26a8f4c9dc0001b7a1b5,64d2fd46c836a06233681665,64dc75a355f70a6055c54717,,,,,,,,,,,,,,,,,,,,,,,,,,5,0,5,0,1,,,,,,,,,,,,,,,,,,,,,,,,,,,,,,,,,,
,,,,,,,,2023-08-16_08h07.45.702,HF_wild_card,2022.2.4,Win32,60.06006006,5a4e26a8f4c9dc0001b7a1b5,64d2fd46c836a06233681665,64dc75a355f70a6055c54717,,,,,,,decisionTrl,resources/DY.BMP,resources/DG.BMP,Door2,-0.170572917,-0.057291667,1,0,0,1.1899,optionLeft,40,14340,7,0,0,0,0,1,,,,,,,,,,,,,,,,,,,,,,,,,,,,,,,,,,,,,,,
,,,,,,,,2023-08-16_08h07.45.702,HF_wild_card,2022.2.4,Win32,60.06006006,5a4e26a8f4c9dc0001b7a1b5,64d2fd46c836a06233681665,64dc75a355f70a6055c54717,,,,,,,ctch,resources/DR.BMP,resources/DY.BMP,Door3,-0.118489583,0.005208333,1,0,0,0.9443,optionLeft,70,14410,7,1,0,1,0,1,,,,,,,,,,,,,,,,,,,,,,,,,,,,,,,,,,,,,,,
,,,,,,,,2023-08-16_08h07.45.702,HF_wild_card,2022.2.4,Win32,60.06006006,5a4e26a8f4c9dc0001b7a1b5,64d2fd46c836a06233681665,64dc75a355f70a6055c54717,,,,,,,ctch,resources/DR.BMP,resources/DY.BMP,Door3,-0.18359375,0.016927083,1,0,0,0.6802,optionLeft,70,14480,7,2,0,2,0,1,,,,,,,,,,,,,,,,,,,,,,,,,,,,,,,,,,,,,,,
,,,,,,,,2023-08-16_08h07.45.702,HF_wild_card,2022.2.4,Win32,60.06006006,5a4e26a8f4c9dc0001b7a1b5,64d2fd46c836a06233681665,64dc75a355f70a6055c54717,,,,,,,decisionTrl,resources/DY.BMP,resources/DG.BMP,Door2,-0.196614583,0.095052083,1,0,0,1.518,optionLeft,20,14500,7,3,0,3,0,1,,,,,,,,,,,,,,,,,,,,,,,,,,,,,,,,,,,,,,,
,,,,,,,,2023-08-16_08h07.45.702,HF_wild_card,2022.2.4,Win32,60.06006006,5a4e26a8f4c9dc0001b7a1b5,64d2fd46c836a06233681665,64dc75a355f70a6055c54717,,,,,,,decisionTrl,resources/DY.BMP,resources/DG.BMP,Door2,-0.233072917,0.05859375,1,0,0,0.7648,optionLeft,40,14540,7,4,0,4,0,1,,,,,,,,,,,,,,,,,,,,,,,,,,,,,,,,,,,,,,,
,,,,,,,,2023-08-16_08h07.45.702,HF_wild_card,2022.2.4,Win32,60.06006006,5a4e26a8f4c9dc0001b7a1b5,64d2fd46c836a06233681665,64dc75a355f70a6055c54717,,,,,,,decisionTrl,resources/DBN.BMP,resources/DR.BMP,Door4,-0.2109375,0.0390625,1,0,0,0.6938,optionLeft,60,14600,7,5,0,5,0,1,,,,,,,,,,,,,,,,,,,,,,,,,,,,,,,,,,,,,,,
,,,,,,,,2023-08-16_08h07.45.702,HF_wild_card,2022.2.4,Win32,60.06006006,5a4e26a8f4c9dc0001b7a1b5,64d2fd46c836a06233681665,64dc75a355f70a6055c54717,,,,,,,ctch,resources/DR.BMP,resources/DY.BMP,Door3,-0.173177083,-0.009114583,1,0,0,0.8104,optionLeft,70,14670,7,6,0,6,0,1,,,,,,,,,,,,,,,,,,,,,,,,,,,,,,,,,,,,,,,
,,,,,,,,2023-08-16_08h07.45.702,HF_wild_card,2022.2.4,Win32,60.06006006,5a4e26a8f4c9dc0001b7a1b5,64d2fd46c836a06233681665,64dc75a355f70a6055c54717,,,,,,,ctch,resources/DY.BMP,resources/DR.BMP,Door3,0.223958333,0.02734375,1,0,0,0.8484,optionRight,70,14740,7,7,0,7,0,1,,,,,,,,,,,,,,,,,,,,,,,,,,,,,,,,,,,,,,,
,,,,,,,,2023-08-16_08h07.45.702,HF_wild_card,2022.2.4,Win32,60.06006006,5a4e26a8f4c9dc0001b7a1b5,64d2fd46c836a06233681665,64dc75a355f70a6055c54717,,,,,,,decisionTrl,resources/DR.BMP,resources/DBN.BMP,Door4,0.216145833,0.0390625,1,0,0,0.7972,optionRight,80,14820,7,8,0,8,0,1,,,,,,,,,,,,,,,,,,,,,,,,,,,,,,,,,,,,,,,
,,,,,,,,2023-08-16_08h07.45.702,HF_wild_card,2022.2.4,Win32,60.06006006,5a4e26a8f4c9dc0001b7a1b5,64d2fd46c836a06233681665,64dc75a355f70a6055c54717,,,,,,,decisionTrl,resources/DY.BMP,resources/DG.BMP,Door1,0.162760417,0.00390625,1,0,0,1.5264,optionRight,30,14850,7,9,0,9,0,1,,,,,,,,,,,,,,,,,,,,,,,,,,,,,,,,,,,,,,,
,,,,,,,,2023-08-16_08h07.45.702,HF_wild_card,2022.2.4,Win32,60.06006006,5a4e26a8f4c9dc0001b7a1b5,64d2fd46c836a06233681665,64dc75a355f70a6055c54717,,,,,,,ctch,resources/DG.BMP,resources/DBN.BMP,Door4,0.25390625,0.029947917,1,0,0,0.8311,optionRight,80,14930,7,10,0,10,0,1,,,,,,,,,,,,,,,,,,,,,,,,,,,,,,,,,,,,,,,
,,,,,,,,2023-08-16_08h07.45.702,HF_wild_card,2022.2.4,Win32,60.06006006,5a4e26a8f4c9dc0001b7a1b5,64d2fd46c836a06233681665,64dc75a355f70a6055c54717,,,,,,,decisionTrl,resources/DG.BMP,resources/DY.BMP,Door1,-0.180989583,0.001302083,1,0,0,0.7624,optionLeft,30,14960,7,11,0,11,0,1,,,,,,,,,,,,,,,,,,,,,,,,,,,,,,,,,,,,,,,
,,,,,,,,2023-08-16_08h07.45.702,HF_wild_card,2022.2.4,Win32,60.06006006,5a4e26a8f4c9dc0001b7a1b5,64d2fd46c836a06233681665,64dc75a355f70a6055c54717,,,,,,,ctch,resources/DG.BMP,resources/DBN.BMP,Door4,0.272135417,0.0546875,1,0,0,0.6905,optionRight,60,15020,7,12,0,12,0,1,,,,,,,,,,,,,,,,,,,,,,,,,,,,,,,,,,,,,,,
,,,,,,,,2023-08-16_08h07.45.702,HF_wild_card,2022.2.4,Win32,60.06006006,5a4e26a8f4c9dc0001b7a1b5,64d2fd46c836a06233681665,64dc75a355f70a6055c54717,,,,,,,decisionTrl,resources/DR.BMP,resources/DBN.BMP,Door4,0.21484375,0.055989583,1,0,0,0.7467,optionRight,60,15080,7,13,0,13,0,1,,,,,,,,,,,,,,,,,,,,,,,,,,,,,,,,,,,,,,,
,,,,,,,,2023-08-16_08h07.45.702,HF_wild_card,2022.2.4,Win32,60.06006006,5a4e26a8f4c9dc0001b7a1b5,64d2fd46c836a06233681665,64dc75a355f70a6055c54717,,,,,,,ctch,resources/DBN.BMP,resources/DG.BMP,Door4,-0.217447917,0.02734375,1,0,0,0.7346,optionLeft,80,15160,7,14,0,14,0,1,,,,,,,,,,,,,,,,,,,,,,,,,,,,,,,,,,,,,,,
,,,,,,,,2023-08-16_08h07.45.702,HF_wild_card,2022.2.4,Win32,60.06006006,5a4e26a8f4c9dc0001b7a1b5,64d2fd46c836a06233681665,64dc75a355f70a6055c54717,,,,,,,decisionTrl,resources/DG.BMP,resources/DY.BMP,Door1,-0.229166667,0.01953125,1,0,0,0.8082,optionLeft,30,15190,7,15,0,15,0,1,,,,,,,,,,,,,,,,,,,,,,,,,,,,,,,,,,,,,,,
,,,,,,,,2023-08-16_08h07.45.702,HF_wild_card,2022.2.4,Win32,60.06006006,5a4e26a8f4c9dc0001b7a1b5,64d2fd46c836a06233681665,64dc75a355f70a6055c54717,,,,,,,decisionTrl,resources/DBN.BMP,resources/DR.BMP,Door4,-0.225260417,0.037760417,1,0,0,0.7972,optionLeft,80,15270,7,16,0,16,0,1,,,,,,,,,,,,,,,,,,,,,,,,,,,,,,,,,,,,,,,
,,,,,,,,2023-08-16_08h07.45.702,HF_wild_card,2022.2.4,Win32,60.06006006,5a4e26a8f4c9dc0001b7a1b5,64d2fd46c836a06233681665,64dc75a355f70a6055c54717,,,,,,,decisionTrl,resources/DBN.BMP,resources/DR.BMP,Door4,-0.283854167,0.067708333,1,0,0,0.9314,optionLeft,80,15350,7,17,0,17,0,1,,,,,,,,,,,,,,,,,,,,,,,,,,,,,,,,,,,,,,,
,,,,,,,,2023-08-16_08h07.45.702,HF_wild_card,2022.2.4,Win32,60.06006006,5a4e26a8f4c9dc0001b7a1b5,64d2fd46c836a06233681665,64dc75a355f70a6055c54717,,,,,,,decisionTrl,resources/DG.BMP,resources/DY.BMP,Door2,0.27734375,0.053385417,1,0,0,1.6405,optionRight,20,15370,7,18,0,18,0,1,,,,,,,,,,,,,,,,,,,,,,,,,,,,,,,,,,,,,,,
,,,,,,,,2023-08-16_08h07.45.702,HF_wild_card,2022.2.4,Win32,60.06006006,5a4e26a8f4c9dc0001b7a1b5,64d2fd46c836a06233681665,64dc75a355f70a6055c54717,,,,,,,decisionTrl,resources/DR.BMP,resources/DBN.BMP,Door4,0.287760417,0.05078125,1,0,0,0.7928,optionRight,80,15450,7,19,0,19,0,1,,,,,,,,,,,,,,,,,,,,,,,,,,,,,,,,,,,,,,,
,,,,,,,,2023-08-16_08h07.45.702,HF_wild_card,2022.2.4,Win32,60.06006006,5a4e26a8f4c9dc0001b7a1b5,64d2fd46c836a06233681665,64dc75a355f70a6055c54717,,,,,,,decisionTrl,resources/DG.BMP,resources/DY.BMP,Door1,-0.21875,0.015625,1,0,0,0.6777,optionLeft,30,15480,7,20,0,20,0,1,,,,,,,,,,,,,,,,,,,,,,,,,,,,,,,,,,,,,,,
,,,,,,,,2023-08-16_08h07.45.702,HF_wild_card,2022.2.4,Win32,60.06006006,5a4e26a8f4c9dc0001b7a1b5,64d2fd46c836a06233681665,64dc75a355f70a6055c54717,,,,,,,ctch,resources/DBN.BMP,resources/DG.BMP,Door4,-0.2734375,0.020833333,1,0,0,0.6912,optionLeft,80,15560,7,21,0,21,0,1,,,,,,,,,,,,,,,,,,,,,,,,,,,,,,,,,,,,,,,
,,,,,,,,2023-08-16_08h07.45.702,HF_wild_card,2022.2.4,Win32,60.06006006,5a4e26a8f4c9dc0001b7a1b5,64d2fd46c836a06233681665,64dc75a355f70a6055c54717,,,,,,,decisionTrl,resources/DG.BMP,resources/DY.BMP,Door1,-0.223958333,0.0390625,1,0,0,0.6419,optionLeft,30,15590,7,22,0,22,0,1,,,,,,,,,,,,,,,,,,,,,,,,,,,,,,,,,,,,,,,
,,,,,,,,2023-08-16_08h07.45.702,HF_wild_card,2022.2.4,Win32,60.06006006,5a4e26a8f4c9dc0001b7a1b5,64d2fd46c836a06233681665,64dc75a355f70a6055c54717,,,,,,,decisionTrl,resources/DBN.BMP,resources/DR.BMP,Door4,-0.213541667,0.028645833,1,0,0,0.7966,optionLeft,60,15650,7,23,0,23,0,1,,,,,,,,,,,,,,,,,,,,,,,,,,,,,,,,,,,,,,,
,,,,,,,,2023-08-16_08h07.45.702,HF_wild_card,2022.2.4,Win32,60.06006006,5a4e26a8f4c9dc0001b7a1b5,64d2fd46c836a06233681665,64dc75a355f70a6055c54717,,,,,,,decisionTrl,resources/DR.BMP,resources/DBN.BMP,Door4,0.190104167,0.057291667,1,0,0,0.8438,optionRight,60,15710,7,24,0,24,0,1,,,,,,,,,,,,,,,,,,,,,,,,,,,,,,,,,,,,,,,
,,,,,,,,2023-08-16_08h07.45.702,HF_wild_card,2022.2.4,Win32,60.06006006,5a4e26a8f4c9dc0001b7a1b5,64d2fd46c836a06233681665,64dc75a355f70a6055c54717,,,,,,,ctch,resources/DY.BMP,resources/DR.BMP,Door3,0.28515625,0.026041667,1,0,0,0.8287,optionRight,70,15780,7,25,0,25,0,1,,,,,,,,,,,,,,,,,,,,,,,,,,,,,,,,,,,,,,,
,,,,,,,,2023-08-16_08h07.45.702,HF_wild_card,2022.2.4,Win32,60.06006006,5a4e26a8f4c9dc0001b7a1b5,64d2fd46c836a06233681665,64dc75a355f70a6055c54717,,,,,,,decisionTrl,resources/DY.BMP,resources/DG.BMP,Door1,0.33203125,0.071614583,1,0,0,0.7092,optionRight,30,15810,7,26,0,26,0,1,,,,,,,,,,,,,,,,,,,,,,,,,,,,,,,,,,,,,,,
,,,,,,,,2023-08-16_08h07.45.702,HF_wild_card,2022.2.4,Win32,60.06006006,5a4e26a8f4c9dc0001b7a1b5,64d2fd46c836a06233681665,64dc75a355f70a6055c54717,,,,,,,ctch,resources/DG.BMP,resources/DBN.BMP,Door4,0.240885417,-0.009114583,1,0,0,0.78,optionRight,80,15890,7,27,0,27,0,1,,,,,,,,,,,,,,,,,,,,,,,,,,,,,,,,,,,,,,,
,,,,,,,,2023-08-16_08h07.45.702,HF_wild_card,2022.2.4,Win32,60.06006006,5a4e26a8f4c9dc0001b7a1b5,64d2fd46c836a06233681665,64dc75a355f70a6055c54717,,,,,,,ctch,resources/DBN.BMP,resources/DG.BMP,Door4,-0.1640625,0.033854167,1,0,0,0.6629,optionLeft,80,15970,7,28,0,28,0,1,,,,,,,,,,,,,,,,,,,,,,,,,,,,,,,,,,,,,,,
,,,,,,,,2023-08-16_08h07.45.702,HF_wild_card,2022.2.4,Win32,60.06006006,5a4e26a8f4c9dc0001b7a1b5,64d2fd46c836a06233681665,64dc75a355f70a6055c54717,,,,,,,decisionTrl,resources/DR.BMP,resources/DBN.BMP,Door4,0.256510417,0.005208333,1,0,0,0.6401,optionRight,60,16030,7,29,0,29,0,1,,,,,,,,,,,,,,,,,,,,,,,,,,,,,,,,,,,,,,,
,,,,,,,,2023-08-16_08h07.45.702,HF_wild_card,2022.2.4,Win32,60.06006006,5a4e26a8f4c9dc0001b7a1b5,64d2fd46c836a06233681665,64dc75a355f70a6055c54717,,,,,,,decisionTrl,resources/DBN.BMP,resources/DR.BMP,Door4,-0.244791667,0.022135417,1,0,0,0.5699,optionLeft,80,16110,7,30,0,30,0,1,,,,,,,,,,,,,,,,,,,,,,,,,,,,,,,,,,,,,,,
,,,,,,,,2023-08-16_08h07.45.702,HF_wild_card,2022.2.4,Win32,60.06006006,5a4e26a8f4c9dc0001b7a1b5,64d2fd46c836a06233681665,64dc75a355f70a6055c54717,,,,,,,decisionTrl,resources/DY.BMP,resources/DG.BMP,Door1,0.2578125,0.005208333,1,0,0,0.6795,optionRight,30,16140,7,31,0,31,0,1,,,,,,,,,,,,,,,,,,,,,,,,,,,,,,,,,,,,,,,
,,,,,,,,2023-08-16_08h07.45.702,HF_wild_card,2022.2.4,Win32,60.06006006,5a4e26a8f4c9dc0001b7a1b5,64d2fd46c836a06233681665,64dc75a355f70a6055c54717,,,,,,,ctch,resources/DY.BMP,resources/DR.BMP,Door3,0.26171875,-0.013020833,1,0,0,1.2453,optionRight,70,16210,7,32,0,32,0,1,,,,,,,,,,,,,,,,,,,,,,,,,,,,,,,,,,,,,,,
,,,,,,,,2023-08-16_08h07.45.702,HF_wild_card,2022.2.4,Win32,60.06006006,5a4e26a8f4c9dc0001b7a1b5,64d2fd46c836a06233681665,64dc75a355f70a6055c54717,,,,,,,decisionTrl,resources/DBN.BMP,resources/DR.BMP,Door4,-0.143229167,0.055989583,1,0,0,0.68,optionLeft,60,16270,7,33,0,33,0,1,,,,,,,,,,,,,,,,,,,,,,,,,,,,,,,,,,,,,,,
,,,,,,,,2023-08-16_08h07.45.702,HF_wild_card,2022.2.4,Win32,60.06006006,5a4e26a8f4c9dc0001b7a1b5,64d2fd46c836a06233681665,64dc75a355f70a6055c54717,,,,,,,decisionTrl,resources/DR.BMP,resources/DBN.BMP,Door4,0.1796875,0.015625,1,0,0,0.6435,optionRight,60,16330,7,34,0,34,0,1,,,,,,,,,,,,,,,,,,,,,,,,,,,,,,,,,,,,,,,
,,,,,,,,2023-08-16_08h07.45.702,HF_wild_card,2022.2.4,Win32,60.06006006,5a4e26a8f4c9dc0001b7a1b5,64d2fd46c836a06233681665,64dc75a355f70a6055c54717,,,,,,,decisionTrl,resources/DG.BMP,resources/DY.BMP,Door1,-0.2421875,0.040364583,1,0,0,0.5882,optionLeft,30,16360,7,35,0,35,0,1,,,,,,,,,,,,,,,,,,,,,,,,,,,,,,,,,,,,,,,
,,,,,,,,2023-08-16_08h07.45.702,HF_wild_card,2022.2.4,Win32,60.06006006,5a4e26a8f4c9dc0001b7a1b5,64d2fd46c836a06233681665,64dc75a355f70a6055c54717,,,,,,,,,,,,,,,,,,,,,,,,,,6,0,6,0,1,,,,,,,,,,,,,,,,,,,,,,,,,,,,,,,,,,
,,,,,,,,2023-08-16_08h07.45.702,HF_wild_card,2022.2.4,Win32,60.06006006,5a4e26a8f4c9dc0001b7a1b5,64d2fd46c836a06233681665,64dc75a355f70a6055c54717,,,,,,,,,,,,,,,,,,,,,,,,,,,,,,,4,,,,,,,,,,,,,,,,,,,,,,,,,,,,,,,,,
,,,,,,,,2023-08-16_08h07.45.702,HF_wild_card,2022.2.4,Win32,60.06006006,5a4e26a8f4c9dc0001b7a1b5,64d2fd46c836a06233681665,64dc75a355f70a6055c54717,,,,,,,,,,,,,,,,,,,,,,,,,,,,,,,,,,,,,,,,,,,,,,,,,,,,,,,,,,,,,,,,
,,,,,,,,2023-08-16_08h07.45.702,HF_wild_card,2022.2.4,Win32,60.06006006,5a4e26a8f4c9dc0001b7a1b5,64d2fd46c836a06233681665,64dc75a355f70a6055c54717,,,,,,,,,,,,,,,,,,,,,,,,,,,,,,,,60,Door3,resources/DR.BMP,0,0,0,0,1,,,,,,,,,,,,,,,,,,,,,,,,,
,,,,,,,,2023-08-16_08h07.45.702,HF_wild_card,2022.2.4,Win32,60.06006006,5a4e26a8f4c9dc0001b7a1b5,64d2fd46c836a06233681665,64dc75a355f70a6055c54717,,,,,,,,,,,,,,,,,,,,,,,,,,,,,,,,45,WC_extreme,resources/DB.BMP,1,0,1,0,1,,,,,,,,,,,,,,,,,,,,,,,,,
,,,,,,,,2023-08-16_08h07.45.702,HF_wild_card,2022.2.4,Win32,60.06006006,5a4e26a8f4c9dc0001b7a1b5,64d2fd46c836a06233681665,64dc75a355f70a6055c54717,,,,,,,,,,,,,,,,,,,,,,,,,,,,,,,,55,WC_nonExtreme,resources/DP.BMP,2,0,2,0,1,,,,,,,,,,,,,,,,,,,,,,,,,
,,,,,,,,2023-08-16_08h07.45.702,HF_wild_card,2022.2.4,Win32,60.06006006,5a4e26a8f4c9dc0001b7a1b5,64d2fd46c836a06233681665,64dc75a355f70a6055c54717,,,,,,,,,,,,,,,,,,,,,,,,,,,,,,,,80,Door4,resources/DBN.BMP,3,0,3,0,1,,,,,,,,,,,,,,,,,,,,,,,,,
,,,,,,,,2023-08-16_08h07.45.702,HF_wild_card,2022.2.4,Win32,60.06006006,5a4e26a8f4c9dc0001b7a1b5,64d2fd46c836a06233681665,64dc75a355f70a6055c54717,,,,,,,,,,,,,,,,,,,,,,,,,,,,,,,,30,Door1,resources/DG.BMP,4,0,4,0,1,,,,,,,,,,,,,,,,,,,,,,,,,
,,,,,,,,2023-08-16_08h07.45.702,HF_wild_card,2022.2.4,Win32,60.06006006,5a4e26a8f4c9dc0001b7a1b5,64d2fd46c836a06233681665,64dc75a355f70a6055c54717,,,,,,,,,,,,,,,,,,,,,,,,,,,,,,,,20,Door2,resources/DY.BMP,5,0,5,0,1,,,,,,,,,,,,,,,,,,,,,,,,,
,,,,,,,,2023-08-16_08h07.45.702,HF_wild_card,2022.2.4,Win32,60.06006006,5a4e26a8f4c9dc0001b7a1b5,64d2fd46c836a06233681665,64dc75a355f70a6055c54717,,,,,,,,,,,,,,,,,,,,,,,,,,,,,,,,,,,,,,,,,,,,,,,,,,,,,,,,,,,,,,,,
,,,,,,,,2023-08-16_08h07.45.702,HF_wild_card,2022.2.4,Win32,60.06006006,5a4e26a8f4c9dc0001b7a1b5,64d2fd46c836a06233681665,64dc75a355f70a6055c54717,,,,,,,,,,,,,,,,,,,,,,,,,,,,,,,,,,,,,,,,0,0,0,0,1,,,,,,,,,,,,,,,,,,,,
,,,,,,,,2023-08-16_08h07.45.702,HF_wild_card,2022.2.4,Win32,60.06006006,5a4e26a8f4c9dc0001b7a1b5,64d2fd46c836a06233681665,64dc75a355f70a6055c54717,,,,,,,,,,,,,,,,,,,,,,,,,,,,,,,,,,,,,,,,1,0,1,0,1,,,,,,,,,,,,,,,,,,,,
