Condition,Low fixed image (Door1),Low risky image (Door2),High fixed image (Door3),High risky image (Door4),Extreme Wild Card,NonExtreme Wild Card,,date,expName,psychopyVersion,OS,frameRate,PROLIFIC_PID,STUDY_ID,SESSION_ID,mouse_2.x,mouse_2.y,mouse_2.leftButton,mouse_2.midButton,mouse_2.rightButton,mouse_2.clicked_name,Trial Type,Left Option Image,Right Option Image,Chosen Door,mouse.x,mouse.y,mouse.leftButton,mouse.midButton,mouse.rightButton,mouse.time,mouse.clicked_name,Feedback,Cumulative Reward,Block,trial.thisRepN,trial.thisTrialN,trial.thisN,trial.thisIndex,trial.ran,blocks.thisRepN,blocks.thisTrialN,blocks.thisN,blocks.thisIndex,blocks.ran,Money conversion,First Outcome Reported,Shown Door (First Outcome),Displayed Image (First Outcome),outcomes.thisRepN,outcomes.thisTrialN,outcomes.thisN,outcomes.thisIndex,outcomes.ran,judgments.thisRepN,judgments.thisTrialN,judgments.thisN,judgments.thisIndex,judgments.ran,freqMouse.x,freqMouse.y,freqMouse.leftButton,freqMouse.midButton,freqMouse.rightButton,freqMouse.clicked_name,FQJ for first outcome,FQJ for second outcome,Shown Door,Displayed Image,trials.thisRepN,trials.thisTrialN,trials.thisN,trials.thisIndex,trials.ran,judgBlock.thisRepN,judgBlock.thisTrialN,judgBlock.thisN,judgBlock.thisIndex,judgBlock.ran
0,resources/DY.BMP,resources/DB.BMP,resources/DR.BMP,resources/DBN.BMP,resources/DG.BMP,resources/DP.BMP,,2023-08-16_08h34.27.608,HF_wild_card,2022.2.4,MacIntel,55.55555556,55d4e57958c35800113dc3f6,64d2fd46c836a06233681665,64dc7b752f00dfc201b5d4e2,,,,,,,,,,,,,,,,,,,,,,,,,,,,,,,,,,,,,,,,,,,,,,,,,,,,,,,,,,,,,,,,
,,,,,,,,2023-08-16_08h34.27.608,HF_wild_card,2022.2.4,MacIntel,55.55555556,55d4e57958c35800113dc3f6,64d2fd46c836a06233681665,64dc7b752f00dfc201b5d4e2,-0.013333333,-0.425555556,1,0,0,agree,,,,,,,,,,,,,,,,,,,,,,,,,,,,,,,,,,,,,,,,,,,,,,,,,,,,,,,,,,
,,,,,,,,2023-08-16_08h34.27.608,HF_wild_card,2022.2.4,MacIntel,55.55555556,55d4e57958c35800113dc3f6,64d2fd46c836a06233681665,64dc7b752f00dfc201b5d4e2,,,,,,,,,,,,,,,,,,,,,,,,,,,,,,,,,,,,,,,,,,,,,,,,,,,,,,,,,,,,,,,,
,,,,,,,,2023-08-16_08h34.27.608,HF_wild_card,2022.2.4,MacIntel,55.55555556,55d4e57958c35800113dc3f6,64d2fd46c836a06233681665,64dc7b752f00dfc201b5d4e2,,,,,,,decisionTrl,resources/DY.BMP,resources/DG.BMP,Door1,-0.3,-0.024444444,1,0,0,6.711,optionLeft,30,30,1,0,0,0,0,1,,,,,,,,,,,,,,,,,,,,,,,,,,,,,,,,,,,,,,,
,,,,,,,,2023-08-16_08h34.27.608,HF_wild_card,2022.2.4,MacIntel,55.55555556,55d4e57958c35800113dc3f6,64d2fd46c836a06233681665,64dc7b752f00dfc201b5d4e2,,,,,,,sngl,resources/DG.BMP,resources/Empty.png,WildCard_Ex,-0.371111111,-0.012222222,1,0,0,2.489,optionLeft,5,35,1,1,0,1,0,1,,,,,,,,,,,,,,,,,,,,,,,,,,,,,,,,,,,,,,,
,,,,,,,,2023-08-16_08h34.27.608,HF_wild_card,2022.2.4,MacIntel,55.55555556,55d4e57958c35800113dc3f6,64d2fd46c836a06233681665,64dc7b752f00dfc201b5d4e2,,,,,,,ctch,resources/DY.BMP,resources/DBN.BMP,Door4,0.385555556,-0.008888889,1,0,0,5.842,optionRight,80,115,1,2,0,2,0,1,,,,,,,,,,,,,,,,,,,,,,,,,,,,,,,,,,,,,,,
,,,,,,,,2023-08-16_08h34.27.608,HF_wild_card,2022.2.4,MacIntel,55.55555556,55d4e57958c35800113dc3f6,64d2fd46c836a06233681665,64dc7b752f00dfc201b5d4e2,,,,,,,decisionTrl,resources/DBN.BMP,resources/DR.BMP,Door3,0.37,-0.026666667,1,0,0,2.291,optionRight,70,185,1,3,0,3,0,1,,,,,,,,,,,,,,,,,,,,,,,,,,,,,,,,,,,,,,,
,,,,,,,,2023-08-16_08h34.27.608,HF_wild_card,2022.2.4,MacIntel,55.55555556,55d4e57958c35800113dc3f6,64d2fd46c836a06233681665,64dc7b752f00dfc201b5d4e2,,,,,,,ctch,resources/DBN.BMP,resources/DY.BMP,Door4,-0.317777778,-0.016666667,1,0,0,3.228,optionLeft,80,265,1,4,0,4,0,1,,,,,,,,,,,,,,,,,,,,,,,,,,,,,,,,,,,,,,,
,,,,,,,,2023-08-16_08h34.27.608,HF_wild_card,2022.2.4,MacIntel,55.55555556,55d4e57958c35800113dc3f6,64d2fd46c836a06233681665,64dc7b752f00dfc201b5d4e2,,,,,,,decisionTrl,resources/DG.BMP,resources/DBN.BMP,WildCard_Ex,-0.388888889,-0.031111111,1,0,0,3.278,optionLeft,5,270,1,5,0,5,0,1,,,,,,,,,,,,,,,,,,,,,,,,,,,,,,,,,,,,,,,
,,,,,,,,2023-08-16_08h34.27.608,HF_wild_card,2022.2.4,MacIntel,55.55555556,55d4e57958c35800113dc3f6,64d2fd46c836a06233681665,64dc7b752f00dfc201b5d4e2,,,,,,,decisionTrl,resources/DB.BMP,resources/DY.BMP,Door2,-0.433333333,-0.036666667,1,0,0,2.557,optionLeft,20,290,1,6,0,6,0,1,,,,,,,,,,,,,,,,,,,,,,,,,,,,,,,,,,,,,,,
,,,,,,,,2023-08-16_08h34.27.608,HF_wild_card,2022.2.4,MacIntel,55.55555556,55d4e57958c35800113dc3f6,64d2fd46c836a06233681665,64dc7b752f00dfc201b5d4e2,,,,,,,sngl,resources/Empty.png,resources/DR.BMP,Door3,0.337777778,-0.054444444,1,0,0,1.417,optionRight,70,360,1,7,0,7,0,1,,,,,,,,,,,,,,,,,,,,,,,,,,,,,,,,,,,,,,,
,,,,,,,,2023-08-16_08h34.27.608,HF_wild_card,2022.2.4,MacIntel,55.55555556,55d4e57958c35800113dc3f6,64d2fd46c836a06233681665,64dc7b752f00dfc201b5d4e2,,,,,,,ctch,resources/DY.BMP,resources/DBN.BMP,Door4,0.394444444,0.004444444,1,0,0,1.77,optionRight,80,440,1,8,0,8,0,1,,,,,,,,,,,,,,,,,,,,,,,,,,,,,,,,,,,,,,,
,,,,,,,,2023-08-16_08h34.27.608,HF_wild_card,2022.2.4,MacIntel,55.55555556,55d4e57958c35800113dc3f6,64d2fd46c836a06233681665,64dc7b752f00dfc201b5d4e2,,,,,,,decisionTrl,resources/DG.BMP,resources/DB.BMP,Door2,0.364444444,-0.025555556,1,0,0,2.675,optionRight,20,460,1,9,0,9,0,1,,,,,,,,,,,,,,,,,,,,,,,,,,,,,,,,,,,,,,,
,,,,,,,,2023-08-16_08h34.27.608,HF_wild_card,2022.2.4,MacIntel,55.55555556,55d4e57958c35800113dc3f6,64d2fd46c836a06233681665,64dc7b752f00dfc201b5d4e2,,,,,,,sngl,resources/DBN.BMP,resources/Empty.png,Door4,-0.38,0.004444444,1,0,0,1.32,optionLeft,80,540,1,10,0,10,0,1,,,,,,,,,,,,,,,,,,,,,,,,,,,,,,,,,,,,,,,
,,,,,,,,2023-08-16_08h34.27.608,HF_wild_card,2022.2.4,MacIntel,55.55555556,55d4e57958c35800113dc3f6,64d2fd46c836a06233681665,64dc7b752f00dfc201b5d4e2,,,,,,,decisionTrl,resources/DBN.BMP,resources/DR.BMP,Door3,0.408888889,-0.025555556,1,0,0,5.171,optionRight,70,610,1,11,0,11,0,1,,,,,,,,,,,,,,,,,,,,,,,,,,,,,,,,,,,,,,,
,,,,,,,,2023-08-16_08h34.27.608,HF_wild_card,2022.2.4,MacIntel,55.55555556,55d4e57958c35800113dc3f6,64d2fd46c836a06233681665,64dc7b752f00dfc201b5d4e2,,,,,,,ctch,resources/DR.BMP,resources/DB.BMP,Door2,0.368888889,-0.027777778,1,0,0,3.364,optionRight,40,650,1,12,0,12,0,1,,,,,,,,,,,,,,,,,,,,,,,,,,,,,,,,,,,,,,,
,,,,,,,,2023-08-16_08h34.27.608,HF_wild_card,2022.2.4,MacIntel,55.55555556,55d4e57958c35800113dc3f6,64d2fd46c836a06233681665,64dc7b752f00dfc201b5d4e2,,,,,,,decisionTrl,resources/DY.BMP,resources/DB.BMP,Door1,-0.403333333,-0.024444444,1,0,0,2.157,optionLeft,30,680,1,13,0,13,0,1,,,,,,,,,,,,,,,,,,,,,,,,,,,,,,,,,,,,,,,
,,,,,,,,2023-08-16_08h34.27.608,HF_wild_card,2022.2.4,MacIntel,55.55555556,55d4e57958c35800113dc3f6,64d2fd46c836a06233681665,64dc7b752f00dfc201b5d4e2,,,,,,,decisionTrl,resources/DY.BMP,resources/DB.BMP,Door2,0.317777778,-0.015555556,1,0,0,1.355,optionRight,40,720,1,14,0,14,0,1,,,,,,,,,,,,,,,,,,,,,,,,,,,,,,,,,,,,,,,
,,,,,,,,2023-08-16_08h34.27.608,HF_wild_card,2022.2.4,MacIntel,55.55555556,55d4e57958c35800113dc3f6,64d2fd46c836a06233681665,64dc7b752f00dfc201b5d4e2,,,,,,,sngl,resources/DG.BMP,resources/Empty.png,WildCard_Ex,-0.39,-0.008888889,1,0,0,1.351,optionLeft,95,815,1,15,0,15,0,1,,,,,,,,,,,,,,,,,,,,,,,,,,,,,,,,,,,,,,,
,,,,,,,,2023-08-16_08h34.27.608,HF_wild_card,2022.2.4,MacIntel,55.55555556,55d4e57958c35800113dc3f6,64d2fd46c836a06233681665,64dc7b752f00dfc201b5d4e2,,,,,,,decisionTrl,resources/DR.BMP,resources/DBN.BMP,Door4,0.4,-0.003333333,1,0,0,1.837,optionRight,60,875,1,16,0,16,0,1,,,,,,,,,,,,,,,,,,,,,,,,,,,,,,,,,,,,,,,
,,,,,,,,2023-08-16_08h34.27.608,HF_wild_card,2022.2.4,MacIntel,55.55555556,55d4e57958c35800113dc3f6,64d2fd46c836a06233681665,64dc7b752f00dfc201b5d4e2,,,,,,,decisionTrl,resources/DY.BMP,resources/DB.BMP,Door1,-0.388888889,-0.022222222,1,0,0,1.872,optionLeft,30,905,1,17,0,17,0,1,,,,,,,,,,,,,,,,,,,,,,,,,,,,,,,,,,,,,,,
,,,,,,,,2023-08-16_08h34.27.608,HF_wild_card,2022.2.4,MacIntel,55.55555556,55d4e57958c35800113dc3f6,64d2fd46c836a06233681665,64dc7b752f00dfc201b5d4e2,,,,,,,decisionTrl,resources/DBN.BMP,resources/DG.BMP,WildCard_Ex,0.394444444,-0.01,1,0,0,2.191,optionRight,95,1000,1,18,0,18,0,1,,,,,,,,,,,,,,,,,,,,,,,,,,,,,,,,,,,,,,,
,,,,,,,,2023-08-16_08h34.27.608,HF_wild_card,2022.2.4,MacIntel,55.55555556,55d4e57958c35800113dc3f6,64d2fd46c836a06233681665,64dc7b752f00dfc201b5d4e2,,,,,,,ctch,resources/DBN.BMP,resources/DY.BMP,Door4,-0.431111111,0.025555556,1,0,0,3.951,optionLeft,60,1060,1,19,0,19,0,1,,,,,,,,,,,,,,,,,,,,,,,,,,,,,,,,,,,,,,,
,,,,,,,,2023-08-16_08h34.27.608,HF_wild_card,2022.2.4,MacIntel,55.55555556,55d4e57958c35800113dc3f6,64d2fd46c836a06233681665,64dc7b752f00dfc201b5d4e2,,,,,,,decisionTrl,resources/DBN.BMP,resources/DR.BMP,Door4,-0.425555556,0.017777778,1,0,0,3.715,optionLeft,60,1120,1,20,0,20,0,1,,,,,,,,,,,,,,,,,,,,,,,,,,,,,,,,,,,,,,,
,,,,,,,,2023-08-16_08h34.27.608,HF_wild_card,2022.2.4,MacIntel,55.55555556,55d4e57958c35800113dc3f6,64d2fd46c836a06233681665,64dc7b752f00dfc201b5d4e2,,,,,,,sngl,resources/DR.BMP,resources/Empty.png,Door3,-0.391111111,-0.016666667,1,0,0,1.254,optionLeft,70,1190,1,21,0,21,0,1,,,,,,,,,,,,,,,,,,,,,,,,,,,,,,,,,,,,,,,
,,,,,,,,2023-08-16_08h34.27.608,HF_wild_card,2022.2.4,MacIntel,55.55555556,55d4e57958c35800113dc3f6,64d2fd46c836a06233681665,64dc7b752f00dfc201b5d4e2,,,,,,,ctch,resources/DB.BMP,resources/DR.BMP,Door3,0.387777778,-0.012222222,1,0,0,2.309,optionRight,70,1260,1,22,0,22,0,1,,,,,,,,,,,,,,,,,,,,,,,,,,,,,,,,,,,,,,,
,,,,,,,,2023-08-16_08h34.27.608,HF_wild_card,2022.2.4,MacIntel,55.55555556,55d4e57958c35800113dc3f6,64d2fd46c836a06233681665,64dc7b752f00dfc201b5d4e2,,,,,,,decisionTrl,resources/DR.BMP,resources/DG.BMP,WildCard_Ex,0.365555556,-0.005555556,1,0,0,3.028,optionRight,5,1265,1,23,0,23,0,1,,,,,,,,,,,,,,,,,,,,,,,,,,,,,,,,,,,,,,,
,,,,,,,,2023-08-16_08h34.27.608,HF_wild_card,2022.2.4,MacIntel,55.55555556,55d4e57958c35800113dc3f6,64d2fd46c836a06233681665,64dc7b752f00dfc201b5d4e2,,,,,,,sngl,resources/DY.BMP,resources/Empty.png,Door1,-0.394444444,-0.007777778,1,0,0,2.375,optionLeft,30,1295,1,24,0,24,0,1,,,,,,,,,,,,,,,,,,,,,,,,,,,,,,,,,,,,,,,
,,,,,,,,2023-08-16_08h34.27.608,HF_wild_card,2022.2.4,MacIntel,55.55555556,55d4e57958c35800113dc3f6,64d2fd46c836a06233681665,64dc7b752f00dfc201b5d4e2,,,,,,,decisionTrl,resources/DB.BMP,resources/DY.BMP,Door2,-0.377777778,-0.025555556,1,0,0,2.291,optionLeft,40,1335,1,25,0,25,0,1,,,,,,,,,,,,,,,,,,,,,,,,,,,,,,,,,,,,,,,
,,,,,,,,2023-08-16_08h34.27.608,HF_wild_card,2022.2.4,MacIntel,55.55555556,55d4e57958c35800113dc3f6,64d2fd46c836a06233681665,64dc7b752f00dfc201b5d4e2,,,,,,,decisionTrl,resources/DR.BMP,resources/DBN.BMP,Door4,0.388888889,-0.013333333,1,0,0,2.577,optionRight,80,1415,1,26,0,26,0,1,,,,,,,,,,,,,,,,,,,,,,,,,,,,,,,,,,,,,,,
,,,,,,,,2023-08-16_08h34.27.608,HF_wild_card,2022.2.4,MacIntel,55.55555556,55d4e57958c35800113dc3f6,64d2fd46c836a06233681665,64dc7b752f00dfc201b5d4e2,,,,,,,decisionTrl,resources/DB.BMP,resources/DY.BMP,Door2,-0.395555556,-0.017777778,1,0,0,4.688,optionLeft,20,1435,1,27,0,27,0,1,,,,,,,,,,,,,,,,,,,,,,,,,,,,,,,,,,,,,,,
,,,,,,,,2023-08-16_08h34.27.608,HF_wild_card,2022.2.4,MacIntel,55.55555556,55d4e57958c35800113dc3f6,64d2fd46c836a06233681665,64dc7b752f00dfc201b5d4e2,,,,,,,sngl,resources/Empty.png,resources/DBN.BMP,Door4,0.387777778,0.003333333,1,0,0,1.385,optionRight,60,1495,1,28,0,28,0,1,,,,,,,,,,,,,,,,,,,,,,,,,,,,,,,,,,,,,,,
,,,,,,,,2023-08-16_08h34.27.608,HF_wild_card,2022.2.4,MacIntel,55.55555556,55d4e57958c35800113dc3f6,64d2fd46c836a06233681665,64dc7b752f00dfc201b5d4e2,,,,,,,decisionTrl,resources/DG.BMP,resources/DY.BMP,WildCard_Ex,-0.383333333,-0.025555556,1,0,0,6.009,optionLeft,5,1500,1,29,0,29,0,1,,,,,,,,,,,,,,,,,,,,,,,,,,,,,,,,,,,,,,,
,,,,,,,,2023-08-16_08h34.27.608,HF_wild_card,2022.2.4,MacIntel,55.55555556,55d4e57958c35800113dc3f6,64d2fd46c836a06233681665,64dc7b752f00dfc201b5d4e2,,,,,,,decisionTrl,resources/DBN.BMP,resources/DR.BMP,Door4,-0.421111111,0.003333333,1,0,0,2.091,optionLeft,60,1560,1,30,0,30,0,1,,,,,,,,,,,,,,,,,,,,,,,,,,,,,,,,,,,,,,,
,,,,,,,,2023-08-16_08h34.27.608,HF_wild_card,2022.2.4,MacIntel,55.55555556,55d4e57958c35800113dc3f6,64d2fd46c836a06233681665,64dc7b752f00dfc201b5d4e2,,,,,,,decisionTrl,resources/DG.BMP,resources/DR.BMP,WildCard_Ex,-0.377777778,-0.021111111,1,0,0,1.974,optionLeft,95,1655,1,31,0,31,0,1,,,,,,,,,,,,,,,,,,,,,,,,,,,,,,,,,,,,,,,
,,,,,,,,2023-08-16_08h34.27.608,HF_wild_card,2022.2.4,MacIntel,55.55555556,55d4e57958c35800113dc3f6,64d2fd46c836a06233681665,64dc7b752f00dfc201b5d4e2,,,,,,,sngl,resources/Empty.png,resources/DG.BMP,WildCard_Ex,0.356666667,0.002222222,1,0,0,1.137,optionRight,5,1660,1,32,0,32,0,1,,,,,,,,,,,,,,,,,,,,,,,,,,,,,,,,,,,,,,,
,,,,,,,,2023-08-16_08h34.27.608,HF_wild_card,2022.2.4,MacIntel,55.55555556,55d4e57958c35800113dc3f6,64d2fd46c836a06233681665,64dc7b752f00dfc201b5d4e2,,,,,,,decisionTrl,resources/DB.BMP,resources/DG.BMP,WildCard_Ex,0.407777778,-0.031111111,1,0,0,3.748,optionRight,5,1665,1,33,0,33,0,1,,,,,,,,,,,,,,,,,,,,,,,,,,,,,,,,,,,,,,,
,,,,,,,,2023-08-16_08h34.27.608,HF_wild_card,2022.2.4,MacIntel,55.55555556,55d4e57958c35800113dc3f6,64d2fd46c836a06233681665,64dc7b752f00dfc201b5d4e2,,,,,,,sngl,resources/Empty.png,resources/DY.BMP,Door1,0.337777778,0.004444444,1,0,0,0.852,optionRight,30,1695,1,34,0,34,0,1,,,,,,,,,,,,,,,,,,,,,,,,,,,,,,,,,,,,,,,
,,,,,,,,2023-08-16_08h34.27.608,HF_wild_card,2022.2.4,MacIntel,55.55555556,55d4e57958c35800113dc3f6,64d2fd46c836a06233681665,64dc7b752f00dfc201b5d4e2,,,,,,,sngl,resources/DB.BMP,resources/Empty.png,Door2,-0.37,-0.015555556,1,0,0,0.65,optionLeft,40,1735,1,35,0,35,0,1,,,,,,,,,,,,,,,,,,,,,,,,,,,,,,,,,,,,,,,
,,,,,,,,2023-08-16_08h34.27.608,HF_wild_card,2022.2.4,MacIntel,55.55555556,55d4e57958c35800113dc3f6,64d2fd46c836a06233681665,64dc7b752f00dfc201b5d4e2,,,,,,,ctch,resources/DB.BMP,resources/DR.BMP,Door3,0.411111111,0.005555556,1,0,0,2.896,optionRight,70,1805,1,36,0,36,0,1,,,,,,,,,,,,,,,,,,,,,,,,,,,,,,,,,,,,,,,
,,,,,,,,2023-08-16_08h34.27.608,HF_wild_card,2022.2.4,MacIntel,55.55555556,55d4e57958c35800113dc3f6,64d2fd46c836a06233681665,64dc7b752f00dfc201b5d4e2,,,,,,,decisionTrl,resources/DR.BMP,resources/DBN.BMP,Door4,0.337777778,-0.005555556,1,0,0,1.739,optionRight,80,1885,1,37,0,37,0,1,,,,,,,,,,,,,,,,,,,,,,,,,,,,,,,,,,,,,,,
,,,,,,,,2023-08-16_08h34.27.608,HF_wild_card,2022.2.4,MacIntel,55.55555556,55d4e57958c35800113dc3f6,64d2fd46c836a06233681665,64dc7b752f00dfc201b5d4e2,,,,,,,decisionTrl,resources/DY.BMP,resources/DB.BMP,Door1,-0.375555556,0.015555556,1,0,0,2.776,optionLeft,30,1915,1,38,0,38,0,1,,,,,,,,,,,,,,,,,,,,,,,,,,,,,,,,,,,,,,,
,,,,,,,,2023-08-16_08h34.27.608,HF_wild_card,2022.2.4,MacIntel,55.55555556,55d4e57958c35800113dc3f6,64d2fd46c836a06233681665,64dc7b752f00dfc201b5d4e2,,,,,,,decisionTrl,resources/DR.BMP,resources/DBN.BMP,Door4,0.433333333,0.013333333,1,0,0,1.402,optionRight,60,1975,1,39,0,39,0,1,,,,,,,,,,,,,,,,,,,,,,,,,,,,,,,,,,,,,,,
,,,,,,,,2023-08-16_08h34.27.608,HF_wild_card,2022.2.4,MacIntel,55.55555556,55d4e57958c35800113dc3f6,64d2fd46c836a06233681665,64dc7b752f00dfc201b5d4e2,,,,,,,ctch,resources/DR.BMP,resources/DB.BMP,Door3,-0.308888889,-0.004444444,1,0,0,4.35,optionLeft,70,2045,1,40,0,40,0,1,,,,,,,,,,,,,,,,,,,,,,,,,,,,,,,,,,,,,,,
,,,,,,,,2023-08-16_08h34.27.608,HF_wild_card,2022.2.4,MacIntel,55.55555556,55d4e57958c35800113dc3f6,64d2fd46c836a06233681665,64dc7b752f00dfc201b5d4e2,,,,,,,decisionTrl,resources/DB.BMP,resources/DY.BMP,Door1,0.376666667,0.028888889,1,0,0,2.208,optionRight,30,2075,1,41,0,41,0,1,,,,,,,,,,,,,,,,,,,,,,,,,,,,,,,,,,,,,,,
,,,,,,,,2023-08-16_08h34.27.608,HF_wild_card,2022.2.4,MacIntel,55.55555556,55d4e57958c35800113dc3f6,64d2fd46c836a06233681665,64dc7b752f00dfc201b5d4e2,,,,,,,sngl,resources/Empty.png,resources/DB.BMP,Door2,0.354444444,-0.035555556,1,0,0,0.934,optionRight,20,2095,1,42,0,42,0,1,,,,,,,,,,,,,,,,,,,,,,,,,,,,,,,,,,,,,,,
,,,,,,,,2023-08-16_08h34.27.608,HF_wild_card,2022.2.4,MacIntel,55.55555556,55d4e57958c35800113dc3f6,64d2fd46c836a06233681665,64dc7b752f00dfc201b5d4e2,,,,,,,sngl,resources/Empty.png,resources/DG.BMP,WildCard_Ex,0.38,0.02,1,0,0,0.986,optionRight,95,2190,1,43,0,43,0,1,,,,,,,,,,,,,,,,,,,,,,,,,,,,,,,,,,,,,,,
,,,,,,,,2023-08-16_08h34.27.608,HF_wild_card,2022.2.4,MacIntel,55.55555556,55d4e57958c35800113dc3f6,64d2fd46c836a06233681665,64dc7b752f00dfc201b5d4e2,,,,,,,,,,,,,,,,,,,,,,,,,,0,0,0,0,1,,,,,,,,,,,,,,,,,,,,,,,,,,,,,,,,,,
,,,,,,,,2023-08-16_08h34.27.608,HF_wild_card,2022.2.4,MacIntel,55.55555556,55d4e57958c35800113dc3f6,64d2fd46c836a06233681665,64dc7b752f00dfc201b5d4e2,,,,,,,sngl,resources/Empty.png,resources/DG.BMP,WildCard_Ex,0.406666667,-0.017777778,1,0,0,1.616,optionRight,5,2195,2,0,0,0,0,1,,,,,,,,,,,,,,,,,,,,,,,,,,,,,,,,,,,,,,,
,,,,,,,,2023-08-16_08h34.27.608,HF_wild_card,2022.2.4,MacIntel,55.55555556,55d4e57958c35800113dc3f6,64d2fd46c836a06233681665,64dc7b752f00dfc201b5d4e2,,,,,,,decisionTrl,resources/DBN.BMP,resources/DR.BMP,Door4,-0.396666667,0.006666667,1,0,0,1.773,optionLeft,80,2275,2,1,0,1,0,1,,,,,,,,,,,,,,,,,,,,,,,,,,,,,,,,,,,,,,,
,,,,,,,,2023-08-16_08h34.27.608,HF_wild_card,2022.2.4,MacIntel,55.55555556,55d4e57958c35800113dc3f6,64d2fd46c836a06233681665,64dc7b752f00dfc201b5d4e2,,,,,,,ctch,resources/DBN.BMP,resources/DY.BMP,Door4,-0.404444444,0.016666667,1,0,0,1.42,optionLeft,60,2335,2,2,0,2,0,1,,,,,,,,,,,,,,,,,,,,,,,,,,,,,,,,,,,,,,,
,,,,,,,,2023-08-16_08h34.27.608,HF_wild_card,2022.2.4,MacIntel,55.55555556,55d4e57958c35800113dc3f6,64d2fd46c836a06233681665,64dc7b752f00dfc201b5d4e2,,,,,,,sngl,resources/DB.BMP,resources/Empty.png,Door2,-0.425555556,-0.026666667,1,0,0,2.326,optionLeft,20,2355,2,3,0,3,0,1,,,,,,,,,,,,,,,,,,,,,,,,,,,,,,,,,,,,,,,
,,,,,,,,2023-08-16_08h34.27.608,HF_wild_card,2022.2.4,MacIntel,55.55555556,55d4e57958c35800113dc3f6,64d2fd46c836a06233681665,64dc7b752f00dfc201b5d4e2,,,,,,,decisionTrl,resources/DR.BMP,resources/DBN.BMP,Door4,0.346666667,0.007777778,1,0,0,1.219,optionRight,80,2435,2,4,0,4,0,1,,,,,,,,,,,,,,,,,,,,,,,,,,,,,,,,,,,,,,,
,,,,,,,,2023-08-16_08h34.27.608,HF_wild_card,2022.2.4,MacIntel,55.55555556,55d4e57958c35800113dc3f6,64d2fd46c836a06233681665,64dc7b752f00dfc201b5d4e2,,,,,,,decisionTrl,resources/DR.BMP,resources/DG.BMP,WildCard_Ex,0.375555556,-0.006666667,1,0,0,1.086,optionRight,95,2530,2,5,0,5,0,1,,,,,,,,,,,,,,,,,,,,,,,,,,,,,,,,,,,,,,,
,,,,,,,,2023-08-16_08h34.27.608,HF_wild_card,2022.2.4,MacIntel,55.55555556,55d4e57958c35800113dc3f6,64d2fd46c836a06233681665,64dc7b752f00dfc201b5d4e2,,,,,,,decisionTrl,resources/DBN.BMP,resources/DR.BMP,Door4,-0.394444444,0.005555556,1,0,0,1.268,optionLeft,80,2610,2,6,0,6,0,1,,,,,,,,,,,,,,,,,,,,,,,,,,,,,,,,,,,,,,,
,,,,,,,,2023-08-16_08h34.27.608,HF_wild_card,2022.2.4,MacIntel,55.55555556,55d4e57958c35800113dc3f6,64d2fd46c836a06233681665,64dc7b752f00dfc201b5d4e2,,,,,,,ctch,resources/DB.BMP,resources/DR.BMP,Door3,0.387777778,-0.035555556,1,0,0,2.761,optionRight,70,2680,2,7,0,7,0,1,,,,,,,,,,,,,,,,,,,,,,,,,,,,,,,,,,,,,,,
,,,,,,,,2023-08-16_08h34.27.608,HF_wild_card,2022.2.4,MacIntel,55.55555556,55d4e57958c35800113dc3f6,64d2fd46c836a06233681665,64dc7b752f00dfc201b5d4e2,,,,,,,decisionTrl,resources/DB.BMP,resources/DY.BMP,Door1,0.393333333,-0.043333333,1,0,0,2.625,optionRight,30,2710,2,8,0,8,0,1,,,,,,,,,,,,,,,,,,,,,,,,,,,,,,,,,,,,,,,
,,,,,,,,2023-08-16_08h34.27.608,HF_wild_card,2022.2.4,MacIntel,55.55555556,55d4e57958c35800113dc3f6,64d2fd46c836a06233681665,64dc7b752f00dfc201b5d4e2,,,,,,,decisionTrl,resources/DY.BMP,resources/DG.BMP,Door1,-0.385555556,0.004444444,1,0,0,1.805,optionLeft,30,2740,2,9,0,9,0,1,,,,,,,,,,,,,,,,,,,,,,,,,,,,,,,,,,,,,,,
,,,,,,,,2023-08-16_08h34.27.608,HF_wild_card,2022.2.4,MacIntel,55.55555556,55d4e57958c35800113dc3f6,64d2fd46c836a06233681665,64dc7b752f00dfc201b5d4e2,,,,,,,ctch,resources/DR.BMP,resources/DB.BMP,Door3,-0.416666667,-0.034444444,1,0,0,2.995,optionLeft,70,2810,2,10,0,10,0,1,,,,,,,,,,,,,,,,,,,,,,,,,,,,,,,,,,,,,,,
,,,,,,,,2023-08-16_08h34.27.608,HF_wild_card,2022.2.4,MacIntel,55.55555556,55d4e57958c35800113dc3f6,64d2fd46c836a06233681665,64dc7b752f00dfc201b5d4e2,,,,,,,decisionTrl,resources/DB.BMP,resources/DY.BMP,Door2,-0.398888889,-0.038888889,1,0,0,3.514,optionLeft,20,2830,2,11,0,11,0,1,,,,,,,,,,,,,,,,,,,,,,,,,,,,,,,,,,,,,,,
,,,,,,,,2023-08-16_08h34.27.608,HF_wild_card,2022.2.4,MacIntel,55.55555556,55d4e57958c35800113dc3f6,64d2fd46c836a06233681665,64dc7b752f00dfc201b5d4e2,,,,,,,decisionTrl,resources/DB.BMP,resources/DY.BMP,Door1,0.385555556,-0.01,1,0,0,1.12,optionRight,30,2860,2,12,0,12,0,1,,,,,,,,,,,,,,,,,,,,,,,,,,,,,,,,,,,,,,,
,,,,,,,,2023-08-16_08h34.27.608,HF_wild_card,2022.2.4,MacIntel,55.55555556,55d4e57958c35800113dc3f6,64d2fd46c836a06233681665,64dc7b752f00dfc201b5d4e2,,,,,,,decisionTrl,resources/DG.BMP,resources/DBN.BMP,Door4,0.37,-0.008888889,1,0,0,1.203,optionRight,60,2920,2,13,0,13,0,1,,,,,,,,,,,,,,,,,,,,,,,,,,,,,,,,,,,,,,,
,,,,,,,,2023-08-16_08h34.27.608,HF_wild_card,2022.2.4,MacIntel,55.55555556,55d4e57958c35800113dc3f6,64d2fd46c836a06233681665,64dc7b752f00dfc201b5d4e2,,,,,,,sngl,resources/DG.BMP,resources/Empty.png,WildCard_Ex,-0.368888889,-0.018888889,1,0,0,0.989,optionLeft,5,2925,2,14,0,14,0,1,,,,,,,,,,,,,,,,,,,,,,,,,,,,,,,,,,,,,,,
,,,,,,,,2023-08-16_08h34.27.608,HF_wild_card,2022.2.4,MacIntel,55.55555556,55d4e57958c35800113dc3f6,64d2fd46c836a06233681665,64dc7b752f00dfc201b5d4e2,,,,,,,sngl,resources/DR.BMP,resources/Empty.png,Door3,-0.405555556,-0.007777778,1,0,0,1.405,optionLeft,70,2995,2,15,0,15,0,1,,,,,,,,,,,,,,,,,,,,,,,,,,,,,,,,,,,,,,,
,,,,,,,,2023-08-16_08h34.27.608,HF_wild_card,2022.2.4,MacIntel,55.55555556,55d4e57958c35800113dc3f6,64d2fd46c836a06233681665,64dc7b752f00dfc201b5d4e2,,,,,,,decisionTrl,resources/DG.BMP,resources/DR.BMP,WildCard_Ex,-0.348888889,-0.026666667,1,0,0,1.571,optionLeft,95,3090,2,16,0,16,0,1,,,,,,,,,,,,,,,,,,,,,,,,,,,,,,,,,,,,,,,
,,,,,,,,2023-08-16_08h34.27.608,HF_wild_card,2022.2.4,MacIntel,55.55555556,55d4e57958c35800113dc3f6,64d2fd46c836a06233681665,64dc7b752f00dfc201b5d4e2,,,,,,,ctch,resources/DY.BMP,resources/DBN.BMP,Door4,0.394444444,-0.001111111,1,0,0,1.102,optionRight,80,3170,2,17,0,17,0,1,,,,,,,,,,,,,,,,,,,,,,,,,,,,,,,,,,,,,,,
,,,,,,,,2023-08-16_08h34.27.608,HF_wild_card,2022.2.4,MacIntel,55.55555556,55d4e57958c35800113dc3f6,64d2fd46c836a06233681665,64dc7b752f00dfc201b5d4e2,,,,,,,ctch,resources/DR.BMP,resources/DB.BMP,Door3,-0.39,-0.024444444,1,0,0,1.169,optionLeft,70,3240,2,18,0,18,0,1,,,,,,,,,,,,,,,,,,,,,,,,,,,,,,,,,,,,,,,
,,,,,,,,2023-08-16_08h34.27.608,HF_wild_card,2022.2.4,MacIntel,55.55555556,55d4e57958c35800113dc3f6,64d2fd46c836a06233681665,64dc7b752f00dfc201b5d4e2,,,,,,,sngl,resources/Empty.png,resources/DR.BMP,Door3,0.355555556,0,1,0,0,0.819,optionRight,70,3310,2,19,0,19,0,1,,,,,,,,,,,,,,,,,,,,,,,,,,,,,,,,,,,,,,,
,,,,,,,,2023-08-16_08h34.27.608,HF_wild_card,2022.2.4,MacIntel,55.55555556,55d4e57958c35800113dc3f6,64d2fd46c836a06233681665,64dc7b752f00dfc201b5d4e2,,,,,,,ctch,resources/DB.BMP,resources/DR.BMP,Door3,0.377777778,-0.002222222,1,0,0,1.021,optionRight,70,3380,2,20,0,20,0,1,,,,,,,,,,,,,,,,,,,,,,,,,,,,,,,,,,,,,,,
,,,,,,,,2023-08-16_08h34.27.608,HF_wild_card,2022.2.4,MacIntel,55.55555556,55d4e57958c35800113dc3f6,64d2fd46c836a06233681665,64dc7b752f00dfc201b5d4e2,,,,,,,decisionTrl,resources/DB.BMP,resources/DG.BMP,WildCard_Ex,0.392222222,0.002222222,1,0,0,1.539,optionRight,95,3475,2,21,0,21,0,1,,,,,,,,,,,,,,,,,,,,,,,,,,,,,,,,,,,,,,,
,,,,,,,,2023-08-16_08h34.27.608,HF_wild_card,2022.2.4,MacIntel,55.55555556,55d4e57958c35800113dc3f6,64d2fd46c836a06233681665,64dc7b752f00dfc201b5d4e2,,,,,,,decisionTrl,resources/DBN.BMP,resources/DG.BMP,WildCard_Ex,0.407777778,-0.032222222,1,0,0,2.158,optionRight,95,3570,2,22,0,22,0,1,,,,,,,,,,,,,,,,,,,,,,,,,,,,,,,,,,,,,,,
,,,,,,,,2023-08-16_08h34.27.608,HF_wild_card,2022.2.4,MacIntel,55.55555556,55d4e57958c35800113dc3f6,64d2fd46c836a06233681665,64dc7b752f00dfc201b5d4e2,,,,,,,decisionTrl,resources/DBN.BMP,resources/DR.BMP,Door4,-0.394444444,0.02,1,0,0,1.421,optionLeft,80,3650,2,23,0,23,0,1,,,,,,,,,,,,,,,,,,,,,,,,,,,,,,,,,,,,,,,
,,,,,,,,2023-08-16_08h34.27.608,HF_wild_card,2022.2.4,MacIntel,55.55555556,55d4e57958c35800113dc3f6,64d2fd46c836a06233681665,64dc7b752f00dfc201b5d4e2,,,,,,,decisionTrl,resources/DR.BMP,resources/DBN.BMP,Door4,0.363333333,0.022222222,1,0,0,0.986,optionRight,80,3730,2,24,0,24,0,1,,,,,,,,,,,,,,,,,,,,,,,,,,,,,,,,,,,,,,,
,,,,,,,,2023-08-16_08h34.27.608,HF_wild_card,2022.2.4,MacIntel,55.55555556,55d4e57958c35800113dc3f6,64d2fd46c836a06233681665,64dc7b752f00dfc201b5d4e2,,,,,,,decisionTrl,resources/DG.BMP,resources/DY.BMP,WildCard_Ex,-0.376666667,-0.011111111,1,0,0,1.923,optionLeft,5,3735,2,25,0,25,0,1,,,,,,,,,,,,,,,,,,,,,,,,,,,,,,,,,,,,,,,
,,,,,,,,2023-08-16_08h34.27.608,HF_wild_card,2022.2.4,MacIntel,55.55555556,55d4e57958c35800113dc3f6,64d2fd46c836a06233681665,64dc7b752f00dfc201b5d4e2,,,,,,,sngl,resources/Empty.png,resources/DG.BMP,WildCard_Ex,0.433333333,0.013333333,1,0,0,0.734,optionRight,95,3830,2,26,0,26,0,1,,,,,,,,,,,,,,,,,,,,,,,,,,,,,,,,,,,,,,,
,,,,,,,,2023-08-16_08h34.27.608,HF_wild_card,2022.2.4,MacIntel,55.55555556,55d4e57958c35800113dc3f6,64d2fd46c836a06233681665,64dc7b752f00dfc201b5d4e2,,,,,,,decisionTrl,resources/DR.BMP,resources/DBN.BMP,Door4,0.408888889,-0.011111111,1,0,0,1.135,optionRight,60,3890,2,27,0,27,0,1,,,,,,,,,,,,,,,,,,,,,,,,,,,,,,,,,,,,,,,
,,,,,,,,2023-08-16_08h34.27.608,HF_wild_card,2022.2.4,MacIntel,55.55555556,55d4e57958c35800113dc3f6,64d2fd46c836a06233681665,64dc7b752f00dfc201b5d4e2,,,,,,,decisionTrl,resources/DR.BMP,resources/DBN.BMP,Door3,-0.38,-0.01,1,0,0,3.766,optionLeft,70,3960,2,28,0,28,0,1,,,,,,,,,,,,,,,,,,,,,,,,,,,,,,,,,,,,,,,
,,,,,,,,2023-08-16_08h34.27.608,HF_wild_card,2022.2.4,MacIntel,55.55555556,55d4e57958c35800113dc3f6,64d2fd46c836a06233681665,64dc7b752f00dfc201b5d4e2,,,,,,,sngl,resources/Empty.png,resources/DB.BMP,Door2,0.376666667,-0.023333333,1,0,0,1.237,optionRight,40,4000,2,29,0,29,0,1,,,,,,,,,,,,,,,,,,,,,,,,,,,,,,,,,,,,,,,
,,,,,,,,2023-08-16_08h34.27.608,HF_wild_card,2022.2.4,MacIntel,55.55555556,55d4e57958c35800113dc3f6,64d2fd46c836a06233681665,64dc7b752f00dfc201b5d4e2,,,,,,,decisionTrl,resources/DY.BMP,resources/DB.BMP,Door1,-0.374444444,-0.016666667,1,0,0,1.254,optionLeft,30,4030,2,30,0,30,0,1,,,,,,,,,,,,,,,,,,,,,,,,,,,,,,,,,,,,,,,
,,,,,,,,2023-08-16_08h34.27.608,HF_wild_card,2022.2.4,MacIntel,55.55555556,55d4e57958c35800113dc3f6,64d2fd46c836a06233681665,64dc7b752f00dfc201b5d4e2,,,,,,,sngl,resources/DG.BMP,resources/Empty.png,WildCard_Ex,-0.35,-0.024444444,1,0,0,0.851,optionLeft,95,4125,2,31,0,31,0,1,,,,,,,,,,,,,,,,,,,,,,,,,,,,,,,,,,,,,,,
,,,,,,,,2023-08-16_08h34.27.608,HF_wild_card,2022.2.4,MacIntel,55.55555556,55d4e57958c35800113dc3f6,64d2fd46c836a06233681665,64dc7b752f00dfc201b5d4e2,,,,,,,sngl,resources/Empty.png,resources/DBN.BMP,Door4,0.411111111,0.002222222,1,0,0,0.785,optionRight,80,4205,2,32,0,32,0,1,,,,,,,,,,,,,,,,,,,,,,,,,,,,,,,,,,,,,,,
,,,,,,,,2023-08-16_08h34.27.608,HF_wild_card,2022.2.4,MacIntel,55.55555556,55d4e57958c35800113dc3f6,64d2fd46c836a06233681665,64dc7b752f00dfc201b5d4e2,,,,,,,sngl,resources/Empty.png,resources/DY.BMP,Door1,0.365555556,-0.035555556,1,0,0,1.772,optionRight,30,4235,2,33,0,33,0,1,,,,,,,,,,,,,,,,,,,,,,,,,,,,,,,,,,,,,,,
,,,,,,,,2023-08-16_08h34.27.608,HF_wild_card,2022.2.4,MacIntel,55.55555556,55d4e57958c35800113dc3f6,64d2fd46c836a06233681665,64dc7b752f00dfc201b5d4e2,,,,,,,decisionTrl,resources/DBN.BMP,resources/DR.BMP,Door4,-0.41,0.013333333,1,0,0,1.137,optionLeft,80,4315,2,34,0,34,0,1,,,,,,,,,,,,,,,,,,,,,,,,,,,,,,,,,,,,,,,
,,,,,,,,2023-08-16_08h34.27.608,HF_wild_card,2022.2.4,MacIntel,55.55555556,55d4e57958c35800113dc3f6,64d2fd46c836a06233681665,64dc7b752f00dfc201b5d4e2,,,,,,,decisionTrl,resources/DY.BMP,resources/DB.BMP,Door2,0.383333333,-0.016666667,1,0,0,2.275,optionRight,20,4335,2,35,0,35,0,1,,,,,,,,,,,,,,,,,,,,,,,,,,,,,,,,,,,,,,,
,,,,,,,,2023-08-16_08h34.27.608,HF_wild_card,2022.2.4,MacIntel,55.55555556,55d4e57958c35800113dc3f6,64d2fd46c836a06233681665,64dc7b752f00dfc201b5d4e2,,,,,,,decisionTrl,resources/DB.BMP,resources/DY.BMP,Door1,0.35,-0.008888889,1,0,0,0.9,optionRight,30,4365,2,36,0,36,0,1,,,,,,,,,,,,,,,,,,,,,,,,,,,,,,,,,,,,,,,
,,,,,,,,2023-08-16_08h34.27.608,HF_wild_card,2022.2.4,MacIntel,55.55555556,55d4e57958c35800113dc3f6,64d2fd46c836a06233681665,64dc7b752f00dfc201b5d4e2,,,,,,,ctch,resources/DY.BMP,resources/DBN.BMP,Door4,0.436666667,0.014444444,1,0,0,1.354,optionRight,60,4425,2,37,0,37,0,1,,,,,,,,,,,,,,,,,,,,,,,,,,,,,,,,,,,,,,,
,,,,,,,,2023-08-16_08h34.27.608,HF_wild_card,2022.2.4,MacIntel,55.55555556,55d4e57958c35800113dc3f6,64d2fd46c836a06233681665,64dc7b752f00dfc201b5d4e2,,,,,,,ctch,resources/DBN.BMP,resources/DY.BMP,Door4,-0.368888889,-0.012222222,1,0,0,0.885,optionLeft,60,4485,2,38,0,38,0,1,,,,,,,,,,,,,,,,,,,,,,,,,,,,,,,,,,,,,,,
,,,,,,,,2023-08-16_08h34.27.608,HF_wild_card,2022.2.4,MacIntel,55.55555556,55d4e57958c35800113dc3f6,64d2fd46c836a06233681665,64dc7b752f00dfc201b5d4e2,,,,,,,sngl,resources/DBN.BMP,resources/Empty.png,Door4,-0.355555556,-0.011111111,1,0,0,0.766,optionLeft,60,4545,2,39,0,39,0,1,,,,,,,,,,,,,,,,,,,,,,,,,,,,,,,,,,,,,,,
,,,,,,,,2023-08-16_08h34.27.608,HF_wild_card,2022.2.4,MacIntel,55.55555556,55d4e57958c35800113dc3f6,64d2fd46c836a06233681665,64dc7b752f00dfc201b5d4e2,,,,,,,decisionTrl,resources/DG.BMP,resources/DB.BMP,WildCard_Ex,-0.411111111,-0.022222222,1,0,0,1.32,optionLeft,95,4640,2,40,0,40,0,1,,,,,,,,,,,,,,,,,,,,,,,,,,,,,,,,,,,,,,,
,,,,,,,,2023-08-16_08h34.27.608,HF_wild_card,2022.2.4,MacIntel,55.55555556,55d4e57958c35800113dc3f6,64d2fd46c836a06233681665,64dc7b752f00dfc201b5d4e2,,,,,,,decisionTrl,resources/DY.BMP,resources/DB.BMP,Door1,-0.35,-0.057777778,1,0,0,1.354,optionLeft,30,4670,2,41,0,41,0,1,,,,,,,,,,,,,,,,,,,,,,,,,,,,,,,,,,,,,,,
,,,,,,,,2023-08-16_08h34.27.608,HF_wild_card,2022.2.4,MacIntel,55.55555556,55d4e57958c35800113dc3f6,64d2fd46c836a06233681665,64dc7b752f00dfc201b5d4e2,,,,,,,sngl,resources/DY.BMP,resources/Empty.png,Door1,-0.382222222,-0.022222222,1,0,0,0.951,optionLeft,30,4700,2,42,0,42,0,1,,,,,,,,,,,,,,,,,,,,,,,,,,,,,,,,,,,,,,,
,,,,,,,,2023-08-16_08h34.27.608,HF_wild_card,2022.2.4,MacIntel,55.55555556,55d4e57958c35800113dc3f6,64d2fd46c836a06233681665,64dc7b752f00dfc201b5d4e2,,,,,,,decisionTrl,resources/DY.BMP,resources/DB.BMP,Door1,-0.311111111,0.021111111,1,0,0,0.835,optionLeft,30,4730,2,43,0,43,0,1,,,,,,,,,,,,,,,,,,,,,,,,,,,,,,,,,,,,,,,
,,,,,,,,2023-08-16_08h34.27.608,HF_wild_card,2022.2.4,MacIntel,55.55555556,55d4e57958c35800113dc3f6,64d2fd46c836a06233681665,64dc7b752f00dfc201b5d4e2,,,,,,,,,,,,,,,,,,,,,,,,,,1,0,1,0,1,,,,,,,,,,,,,,,,,,,,,,,,,,,,,,,,,,
,,,,,,,,2023-08-16_08h34.27.608,HF_wild_card,2022.2.4,MacIntel,55.55555556,55d4e57958c35800113dc3f6,64d2fd46c836a06233681665,64dc7b752f00dfc201b5d4e2,,,,,,,sngl,resources/Empty.png,resources/DG.BMP,WildCard_Ex,0.404444444,-0.05,1,0,0,1.267,optionRight,5,4735,3,0,0,0,0,1,,,,,,,,,,,,,,,,,,,,,,,,,,,,,,,,,,,,,,,
,,,,,,,,2023-08-16_08h34.27.608,HF_wild_card,2022.2.4,MacIntel,55.55555556,55d4e57958c35800113dc3f6,64d2fd46c836a06233681665,64dc7b752f00dfc201b5d4e2,,,,,,,ctch,resources/DY.BMP,resources/DBN.BMP,Door4,0.366666667,-0.014444444,1,0,0,1.369,optionRight,60,4795,3,1,0,1,0,1,,,,,,,,,,,,,,,,,,,,,,,,,,,,,,,,,,,,,,,
,,,,,,,,2023-08-16_08h34.27.608,HF_wild_card,2022.2.4,MacIntel,55.55555556,55d4e57958c35800113dc3f6,64d2fd46c836a06233681665,64dc7b752f00dfc201b5d4e2,,,,,,,decisionTrl,resources/DBN.BMP,resources/DG.BMP,Door4,-0.298888889,0.011111111,1,0,0,0.968,optionLeft,60,4855,3,2,0,2,0,1,,,,,,,,,,,,,,,,,,,,,,,,,,,,,,,,,,,,,,,
,,,,,,,,2023-08-16_08h34.27.608,HF_wild_card,2022.2.4,MacIntel,55.55555556,55d4e57958c35800113dc3f6,64d2fd46c836a06233681665,64dc7b752f00dfc201b5d4e2,,,,,,,decisionTrl,resources/DB.BMP,resources/DY.BMP,Door1,0.33,-0.003333333,1,0,0,1.867,optionRight,30,4885,3,3,0,3,0,1,,,,,,,,,,,,,,,,,,,,,,,,,,,,,,,,,,,,,,,
,,,,,,,,2023-08-16_08h34.27.608,HF_wild_card,2022.2.4,MacIntel,55.55555556,55d4e57958c35800113dc3f6,64d2fd46c836a06233681665,64dc7b752f00dfc201b5d4e2,,,,,,,ctch,resources/DBN.BMP,resources/DY.BMP,Door4,-0.393333333,-0.001111111,1,0,0,1.219,optionLeft,60,4945,3,4,0,4,0,1,,,,,,,,,,,,,,,,,,,,,,,,,,,,,,,,,,,,,,,
,,,,,,,,2023-08-16_08h34.27.608,HF_wild_card,2022.2.4,MacIntel,55.55555556,55d4e57958c35800113dc3f6,64d2fd46c836a06233681665,64dc7b752f00dfc201b5d4e2,,,,,,,decisionTrl,resources/DB.BMP,resources/DY.BMP,Door1,0.383333333,-0.017777778,1,0,0,1.253,optionRight,30,4975,3,5,0,5,0,1,,,,,,,,,,,,,,,,,,,,,,,,,,,,,,,,,,,,,,,
,,,,,,,,2023-08-16_08h34.27.608,HF_wild_card,2022.2.4,MacIntel,55.55555556,55d4e57958c35800113dc3f6,64d2fd46c836a06233681665,64dc7b752f00dfc201b5d4e2,,,,,,,sngl,resources/DBN.BMP,resources/Empty.png,Door4,-0.438888889,0.001111111,1,0,0,0.835,optionLeft,80,5055,3,6,0,6,0,1,,,,,,,,,,,,,,,,,,,,,,,,,,,,,,,,,,,,,,,
,,,,,,,,2023-08-16_08h34.27.608,HF_wild_card,2022.2.4,MacIntel,55.55555556,55d4e57958c35800113dc3f6,64d2fd46c836a06233681665,64dc7b752f00dfc201b5d4e2,,,,,,,sngl,resources/Empty.png,resources/DR.BMP,Door3,0.431111111,-0.005555556,1,0,0,0.834,optionRight,70,5125,3,7,0,7,0,1,,,,,,,,,,,,,,,,,,,,,,,,,,,,,,,,,,,,,,,
,,,,,,,,2023-08-16_08h34.27.608,HF_wild_card,2022.2.4,MacIntel,55.55555556,55d4e57958c35800113dc3f6,64d2fd46c836a06233681665,64dc7b752f00dfc201b5d4e2,,,,,,,decisionTrl,resources/DY.BMP,resources/DB.BMP,Door2,0.355555556,-0.022222222,1,0,0,2.343,optionRight,40,5165,3,8,0,8,0,1,,,,,,,,,,,,,,,,,,,,,,,,,,,,,,,,,,,,,,,
,,,,,,,,2023-08-16_08h34.27.608,HF_wild_card,2022.2.4,MacIntel,55.55555556,55d4e57958c35800113dc3f6,64d2fd46c836a06233681665,64dc7b752f00dfc201b5d4e2,,,,,,,decisionTrl,resources/DBN.BMP,resources/DR.BMP,Door4,-0.407777778,-0.004444444,1,0,0,1.906,optionLeft,80,5245,3,9,0,9,0,1,,,,,,,,,,,,,,,,,,,,,,,,,,,,,,,,,,,,,,,
,,,,,,,,2023-08-16_08h34.27.608,HF_wild_card,2022.2.4,MacIntel,55.55555556,55d4e57958c35800113dc3f6,64d2fd46c836a06233681665,64dc7b752f00dfc201b5d4e2,,,,,,,decisionTrl,resources/DR.BMP,resources/DG.BMP,WildCard_Ex,0.392222222,-0.005555556,1,0,0,1.168,optionRight,5,5250,3,10,0,10,0,1,,,,,,,,,,,,,,,,,,,,,,,,,,,,,,,,,,,,,,,
,,,,,,,,2023-08-16_08h34.27.608,HF_wild_card,2022.2.4,MacIntel,55.55555556,55d4e57958c35800113dc3f6,64d2fd46c836a06233681665,64dc7b752f00dfc201b5d4e2,,,,,,,sngl,resources/Empty.png,resources/DY.BMP,Door1,0.348888889,-0.017777778,1,0,0,0.75,optionRight,30,5280,3,11,0,11,0,1,,,,,,,,,,,,,,,,,,,,,,,,,,,,,,,,,,,,,,,
,,,,,,,,2023-08-16_08h34.27.608,HF_wild_card,2022.2.4,MacIntel,55.55555556,55d4e57958c35800113dc3f6,64d2fd46c836a06233681665,64dc7b752f00dfc201b5d4e2,,,,,,,decisionTrl,resources/DB.BMP,resources/DY.BMP,Door2,-0.383333333,-0.03,1,0,0,0.852,optionLeft,20,5300,3,12,0,12,0,1,,,,,,,,,,,,,,,,,,,,,,,,,,,,,,,,,,,,,,,
,,,,,,,,2023-08-16_08h34.27.608,HF_wild_card,2022.2.4,MacIntel,55.55555556,55d4e57958c35800113dc3f6,64d2fd46c836a06233681665,64dc7b752f00dfc201b5d4e2,,,,,,,sngl,resources/DB.BMP,resources/Empty.png,Door2,-0.356666667,0.002222222,1,0,0,1.053,optionLeft,40,5340,3,13,0,13,0,1,,,,,,,,,,,,,,,,,,,,,,,,,,,,,,,,,,,,,,,
,,,,,,,,2023-08-16_08h34.27.608,HF_wild_card,2022.2.4,MacIntel,55.55555556,55d4e57958c35800113dc3f6,64d2fd46c836a06233681665,64dc7b752f00dfc201b5d4e2,,,,,,,decisionTrl,resources/DB.BMP,resources/DY.BMP,Door2,-0.363333333,-0.008888889,1,0,0,0.836,optionLeft,20,5360,3,14,0,14,0,1,,,,,,,,,,,,,,,,,,,,,,,,,,,,,,,,,,,,,,,
,,,,,,,,2023-08-16_08h34.27.608,HF_wild_card,2022.2.4,MacIntel,55.55555556,55d4e57958c35800113dc3f6,64d2fd46c836a06233681665,64dc7b752f00dfc201b5d4e2,,,,,,,decisionTrl,resources/DR.BMP,resources/DBN.BMP,Door4,0.365555556,-0.011111111,1,0,0,0.969,optionRight,60,5420,3,15,0,15,0,1,,,,,,,,,,,,,,,,,,,,,,,,,,,,,,,,,,,,,,,
,,,,,,,,2023-08-16_08h34.27.608,HF_wild_card,2022.2.4,MacIntel,55.55555556,55d4e57958c35800113dc3f6,64d2fd46c836a06233681665,64dc7b752f00dfc201b5d4e2,,,,,,,sngl,resources/DR.BMP,resources/Empty.png,Door3,-0.367777778,-0.035555556,1,0,0,0.751,optionLeft,70,5490,3,16,0,16,0,1,,,,,,,,,,,,,,,,,,,,,,,,,,,,,,,,,,,,,,,
,,,,,,,,2023-08-16_08h34.27.608,HF_wild_card,2022.2.4,MacIntel,55.55555556,55d4e57958c35800113dc3f6,64d2fd46c836a06233681665,64dc7b752f00dfc201b5d4e2,,,,,,,decisionTrl,resources/DG.BMP,resources/DR.BMP,WildCard_Ex,-0.35,-0.022222222,1,0,0,1.706,optionLeft,5,5495,3,17,0,17,0,1,,,,,,,,,,,,,,,,,,,,,,,,,,,,,,,,,,,,,,,
,,,,,,,,2023-08-16_08h34.27.608,HF_wild_card,2022.2.4,MacIntel,55.55555556,55d4e57958c35800113dc3f6,64d2fd46c836a06233681665,64dc7b752f00dfc201b5d4e2,,,,,,,decisionTrl,resources/DG.BMP,resources/DBN.BMP,Door4,0.354444444,0.024444444,1,0,0,2.107,optionRight,60,5555,3,18,0,18,0,1,,,,,,,,,,,,,,,,,,,,,,,,,,,,,,,,,,,,,,,
,,,,,,,,2023-08-16_08h34.27.608,HF_wild_card,2022.2.4,MacIntel,55.55555556,55d4e57958c35800113dc3f6,64d2fd46c836a06233681665,64dc7b752f00dfc201b5d4e2,,,,,,,sngl,resources/Empty.png,resources/DB.BMP,Door2,0.33,-0.02,1,0,0,0.884,optionRight,20,5575,3,19,0,19,0,1,,,,,,,,,,,,,,,,,,,,,,,,,,,,,,,,,,,,,,,
,,,,,,,,2023-08-16_08h34.27.608,HF_wild_card,2022.2.4,MacIntel,55.55555556,55d4e57958c35800113dc3f6,64d2fd46c836a06233681665,64dc7b752f00dfc201b5d4e2,,,,,,,decisionTrl,resources/DR.BMP,resources/DBN.BMP,Door4,0.373333333,0.011111111,1,0,0,2.441,optionRight,60,5635,3,20,0,20,0,1,,,,,,,,,,,,,,,,,,,,,,,,,,,,,,,,,,,,,,,
,,,,,,,,2023-08-16_08h34.27.608,HF_wild_card,2022.2.4,MacIntel,55.55555556,55d4e57958c35800113dc3f6,64d2fd46c836a06233681665,64dc7b752f00dfc201b5d4e2,,,,,,,ctch,resources/DR.BMP,resources/DB.BMP,Door3,-0.395555556,-0.028888889,1,0,0,1.722,optionLeft,70,5705,3,21,0,21,0,1,,,,,,,,,,,,,,,,,,,,,,,,,,,,,,,,,,,,,,,
,,,,,,,,2023-08-16_08h34.27.608,HF_wild_card,2022.2.4,MacIntel,55.55555556,55d4e57958c35800113dc3f6,64d2fd46c836a06233681665,64dc7b752f00dfc201b5d4e2,,,,,,,ctch,resources/DB.BMP,resources/DR.BMP,Door3,0.358888889,-0.022222222,1,0,0,1.237,optionRight,70,5775,3,22,0,22,0,1,,,,,,,,,,,,,,,,,,,,,,,,,,,,,,,,,,,,,,,
,,,,,,,,2023-08-16_08h34.27.608,HF_wild_card,2022.2.4,MacIntel,55.55555556,55d4e57958c35800113dc3f6,64d2fd46c836a06233681665,64dc7b752f00dfc201b5d4e2,,,,,,,decisionTrl,resources/DBN.BMP,resources/DR.BMP,Door3,0.372222222,-0.021111111,1,0,0,1.47,optionRight,70,5845,3,23,0,23,0,1,,,,,,,,,,,,,,,,,,,,,,,,,,,,,,,,,,,,,,,
,,,,,,,,2023-08-16_08h34.27.608,HF_wild_card,2022.2.4,MacIntel,55.55555556,55d4e57958c35800113dc3f6,64d2fd46c836a06233681665,64dc7b752f00dfc201b5d4e2,,,,,,,sngl,resources/DY.BMP,resources/Empty.png,Door1,-0.38,-0.014444444,1,0,0,1.974,optionLeft,30,5875,3,24,0,24,0,1,,,,,,,,,,,,,,,,,,,,,,,,,,,,,,,,,,,,,,,
,,,,,,,,2023-08-16_08h34.27.608,HF_wild_card,2022.2.4,MacIntel,55.55555556,55d4e57958c35800113dc3f6,64d2fd46c836a06233681665,64dc7b752f00dfc201b5d4e2,,,,,,,sngl,resources/Empty.png,resources/DG.BMP,WildCard_Ex,0.448888889,-0.007777778,1,0,0,0.783,optionRight,95,5970,3,25,0,25,0,1,,,,,,,,,,,,,,,,,,,,,,,,,,,,,,,,,,,,,,,
,,,,,,,,2023-08-16_08h34.27.608,HF_wild_card,2022.2.4,MacIntel,55.55555556,55d4e57958c35800113dc3f6,64d2fd46c836a06233681665,64dc7b752f00dfc201b5d4e2,,,,,,,sngl,resources/DG.BMP,resources/Empty.png,WildCard_Ex,-0.34,0.001111111,1,0,0,0.616,optionLeft,95,6065,3,26,0,26,0,1,,,,,,,,,,,,,,,,,,,,,,,,,,,,,,,,,,,,,,,
,,,,,,,,2023-08-16_08h34.27.608,HF_wild_card,2022.2.4,MacIntel,55.55555556,55d4e57958c35800113dc3f6,64d2fd46c836a06233681665,64dc7b752f00dfc201b5d4e2,,,,,,,decisionTrl,resources/DY.BMP,resources/DB.BMP,Door2,0.283333333,0.017777778,1,0,0,4.738,optionRight,20,6085,3,27,0,27,0,1,,,,,,,,,,,,,,,,,,,,,,,,,,,,,,,,,,,,,,,
,,,,,,,,2023-08-16_08h34.27.608,HF_wild_card,2022.2.4,MacIntel,55.55555556,55d4e57958c35800113dc3f6,64d2fd46c836a06233681665,64dc7b752f00dfc201b5d4e2,,,,,,,decisionTrl,resources/DR.BMP,resources/DBN.BMP,Door3,-0.384444444,-0.01,1,0,0,1.655,optionLeft,70,6155,3,28,0,28,0,1,,,,,,,,,,,,,,,,,,,,,,,,,,,,,,,,,,,,,,,
,,,,,,,,2023-08-16_08h34.27.608,HF_wild_card,2022.2.4,MacIntel,55.55555556,55d4e57958c35800113dc3f6,64d2fd46c836a06233681665,64dc7b752f00dfc201b5d4e2,,,,,,,decisionTrl,resources/DY.BMP,resources/DB.BMP,Door1,-0.316666667,-0.023333333,1,0,0,2.823,optionLeft,30,6185,3,29,0,29,0,1,,,,,,,,,,,,,,,,,,,,,,,,,,,,,,,,,,,,,,,
,,,,,,,,2023-08-16_08h34.27.608,HF_wild_card,2022.2.4,MacIntel,55.55555556,55d4e57958c35800113dc3f6,64d2fd46c836a06233681665,64dc7b752f00dfc201b5d4e2,,,,,,,sngl,resources/Empty.png,resources/DBN.BMP,Door4,0.48,0.022222222,1,0,0,0.683,optionRight,60,6245,3,30,0,30,0,1,,,,,,,,,,,,,,,,,,,,,,,,,,,,,,,,,,,,,,,
,,,,,,,,2023-08-16_08h34.27.608,HF_wild_card,2022.2.4,MacIntel,55.55555556,55d4e57958c35800113dc3f6,64d2fd46c836a06233681665,64dc7b752f00dfc201b5d4e2,,,,,,,decisionTrl,resources/DG.BMP,resources/DB.BMP,WildCard_Ex,-0.383333333,-0.003333333,1,0,0,1.458,optionLeft,5,6250,3,31,0,31,0,1,,,,,,,,,,,,,,,,,,,,,,,,,,,,,,,,,,,,,,,
,,,,,,,,2023-08-16_08h34.27.608,HF_wild_card,2022.2.4,MacIntel,55.55555556,55d4e57958c35800113dc3f6,64d2fd46c836a06233681665,64dc7b752f00dfc201b5d4e2,,,,,,,decisionTrl,resources/DY.BMP,resources/DB.BMP,Door1,-0.381111111,-0.011111111,1,0,0,1.823,optionLeft,30,6280,3,32,0,32,0,1,,,,,,,,,,,,,,,,,,,,,,,,,,,,,,,,,,,,,,,
,,,,,,,,2023-08-16_08h34.27.608,HF_wild_card,2022.2.4,MacIntel,55.55555556,55d4e57958c35800113dc3f6,64d2fd46c836a06233681665,64dc7b752f00dfc201b5d4e2,,,,,,,decisionTrl,resources/DBN.BMP,resources/DR.BMP,Door4,-0.396666667,0,1,0,0,1.138,optionLeft,60,6340,3,33,0,33,0,1,,,,,,,,,,,,,,,,,,,,,,,,,,,,,,,,,,,,,,,
,,,,,,,,2023-08-16_08h34.27.608,HF_wild_card,2022.2.4,MacIntel,55.55555556,55d4e57958c35800113dc3f6,64d2fd46c836a06233681665,64dc7b752f00dfc201b5d4e2,,,,,,,ctch,resources/DB.BMP,resources/DR.BMP,Door3,0.371111111,-0.006666667,1,0,0,1.371,optionRight,70,6410,3,34,0,34,0,1,,,,,,,,,,,,,,,,,,,,,,,,,,,,,,,,,,,,,,,
,,,,,,,,2023-08-16_08h34.27.608,HF_wild_card,2022.2.4,MacIntel,55.55555556,55d4e57958c35800113dc3f6,64d2fd46c836a06233681665,64dc7b752f00dfc201b5d4e2,,,,,,,decisionTrl,resources/DB.BMP,resources/DG.BMP,WildCard_Ex,0.381111111,-0.041111111,1,0,0,1.724,optionRight,95,6505,3,35,0,35,0,1,,,,,,,,,,,,,,,,,,,,,,,,,,,,,,,,,,,,,,,
,,,,,,,,2023-08-16_08h34.27.608,HF_wild_card,2022.2.4,MacIntel,55.55555556,55d4e57958c35800113dc3f6,64d2fd46c836a06233681665,64dc7b752f00dfc201b5d4e2,,,,,,,decisionTrl,resources/DR.BMP,resources/DBN.BMP,Door4,0.388888889,0.024444444,1,0,0,3.609,optionRight,60,6565,3,36,0,36,0,1,,,,,,,,,,,,,,,,,,,,,,,,,,,,,,,,,,,,,,,
,,,,,,,,2023-08-16_08h34.27.608,HF_wild_card,2022.2.4,MacIntel,55.55555556,55d4e57958c35800113dc3f6,64d2fd46c836a06233681665,64dc7b752f00dfc201b5d4e2,,,,,,,decisionTrl,resources/DBN.BMP,resources/DR.BMP,Door4,-0.403333333,-0.007777778,1,0,0,1.051,optionLeft,60,6625,3,37,0,37,0,1,,,,,,,,,,,,,,,,,,,,,,,,,,,,,,,,,,,,,,,
,,,,,,,,2023-08-16_08h34.27.608,HF_wild_card,2022.2.4,MacIntel,55.55555556,55d4e57958c35800113dc3f6,64d2fd46c836a06233681665,64dc7b752f00dfc201b5d4e2,,,,,,,ctch,resources/DY.BMP,resources/DBN.BMP,Door4,0.4,-0.021111111,1,0,0,2.441,optionRight,60,6685,3,38,0,38,0,1,,,,,,,,,,,,,,,,,,,,,,,,,,,,,,,,,,,,,,,
,,,,,,,,2023-08-16_08h34.27.608,HF_wild_card,2022.2.4,MacIntel,55.55555556,55d4e57958c35800113dc3f6,64d2fd46c836a06233681665,64dc7b752f00dfc201b5d4e2,,,,,,,ctch,resources/DR.BMP,resources/DB.BMP,Door3,-0.407777778,-0.02,1,0,0,6.648,optionLeft,70,6755,3,39,0,39,0,1,,,,,,,,,,,,,,,,,,,,,,,,,,,,,,,,,,,,,,,
,,,,,,,,2023-08-16_08h34.27.608,HF_wild_card,2022.2.4,MacIntel,55.55555556,55d4e57958c35800113dc3f6,64d2fd46c836a06233681665,64dc7b752f00dfc201b5d4e2,,,,,,,decisionTrl,resources/DY.BMP,resources/DG.BMP,WildCard_Ex,0.394444444,-0.003333333,1,0,0,1.471,optionRight,5,6760,3,40,0,40,0,1,,,,,,,,,,,,,,,,,,,,,,,,,,,,,,,,,,,,,,,
,,,,,,,,2023-08-16_08h34.27.608,HF_wild_card,2022.2.4,MacIntel,55.55555556,55d4e57958c35800113dc3f6,64d2fd46c836a06233681665,64dc7b752f00dfc201b5d4e2,,,,,,,decisionTrl,resources/DG.BMP,resources/DY.BMP,WildCard_Ex,-0.326666667,-0.006666667,1,0,0,0.9,optionLeft,95,6855,3,41,0,41,0,1,,,,,,,,,,,,,,,,,,,,,,,,,,,,,,,,,,,,,,,
,,,,,,,,2023-08-16_08h34.27.608,HF_wild_card,2022.2.4,MacIntel,55.55555556,55d4e57958c35800113dc3f6,64d2fd46c836a06233681665,64dc7b752f00dfc201b5d4e2,,,,,,,ctch,resources/DBN.BMP,resources/DY.BMP,Door4,-0.39,0,1,0,0,1.487,optionLeft,80,6935,3,42,0,42,0,1,,,,,,,,,,,,,,,,,,,,,,,,,,,,,,,,,,,,,,,
,,,,,,,,2023-08-16_08h34.27.608,HF_wild_card,2022.2.4,MacIntel,55.55555556,55d4e57958c35800113dc3f6,64d2fd46c836a06233681665,64dc7b752f00dfc201b5d4e2,,,,,,,sngl,resources/DG.BMP,resources/Empty.png,WildCard_Ex,-0.351111111,0.013333333,1,0,0,0.864,optionLeft,5,6940,3,43,0,43,0,1,,,,,,,,,,,,,,,,,,,,,,,,,,,,,,,,,,,,,,,
,,,,,,,,2023-08-16_08h34.27.608,HF_wild_card,2022.2.4,MacIntel,55.55555556,55d4e57958c35800113dc3f6,64d2fd46c836a06233681665,64dc7b752f00dfc201b5d4e2,,,,,,,,,,,,,,,,,,,,,,,,,,2,0,2,0,1,,,,,,,,,,,,,,,,,,,,,,,,,,,,,,,,,,
,,,,,,,,2023-08-16_08h34.27.608,HF_wild_card,2022.2.4,MacIntel,55.55555556,55d4e57958c35800113dc3f6,64d2fd46c836a06233681665,64dc7b752f00dfc201b5d4e2,,,,,,,decisionTrl,resources/DB.BMP,resources/DY.BMP,Door1,0.414444444,-0.004444444,1,0,0,1.786,optionRight,30,6970,4,0,0,0,0,1,,,,,,,,,,,,,,,,,,,,,,,,,,,,,,,,,,,,,,,
,,,,,,,,2023-08-16_08h34.27.608,HF_wild_card,2022.2.4,MacIntel,55.55555556,55d4e57958c35800113dc3f6,64d2fd46c836a06233681665,64dc7b752f00dfc201b5d4e2,,,,,,,sngl,resources/Empty.png,resources/DB.BMP,Door2,0.332222222,-0.011111111,1,0,0,0.834,optionRight,40,7010,4,1,0,1,0,1,,,,,,,,,,,,,,,,,,,,,,,,,,,,,,,,,,,,,,,
,,,,,,,,2023-08-16_08h34.27.608,HF_wild_card,2022.2.4,MacIntel,55.55555556,55d4e57958c35800113dc3f6,64d2fd46c836a06233681665,64dc7b752f00dfc201b5d4e2,,,,,,,ctch,resources/DY.BMP,resources/DBN.BMP,Door4,0.422222222,0.041111111,1,0,0,1.305,optionRight,60,7070,4,2,0,2,0,1,,,,,,,,,,,,,,,,,,,,,,,,,,,,,,,,,,,,,,,
,,,,,,,,2023-08-16_08h34.27.608,HF_wild_card,2022.2.4,MacIntel,55.55555556,55d4e57958c35800113dc3f6,64d2fd46c836a06233681665,64dc7b752f00dfc201b5d4e2,,,,,,,sngl,resources/DR.BMP,resources/Empty.png,Door3,-0.348888889,0.01,1,0,0,6.53,optionLeft,70,7140,4,3,0,3,0,1,,,,,,,,,,,,,,,,,,,,,,,,,,,,,,,,,,,,,,,
,,,,,,,,2023-08-16_08h34.27.608,HF_wild_card,2022.2.4,MacIntel,55.55555556,55d4e57958c35800113dc3f6,64d2fd46c836a06233681665,64dc7b752f00dfc201b5d4e2,,,,,,,ctch,resources/DR.BMP,resources/DB.BMP,Door3,-0.35,-0.023333333,1,0,0,1.57,optionLeft,70,7210,4,4,0,4,0,1,,,,,,,,,,,,,,,,,,,,,,,,,,,,,,,,,,,,,,,
,,,,,,,,2023-08-16_08h34.27.608,HF_wild_card,2022.2.4,MacIntel,55.55555556,55d4e57958c35800113dc3f6,64d2fd46c836a06233681665,64dc7b752f00dfc201b5d4e2,,,,,,,decisionTrl,resources/DBN.BMP,resources/DR.BMP,Door4,-0.356666667,-0.016666667,1,0,0,1.484,optionLeft,80,7290,4,5,0,5,0,1,,,,,,,,,,,,,,,,,,,,,,,,,,,,,,,,,,,,,,,
,,,,,,,,2023-08-16_08h34.27.608,HF_wild_card,2022.2.4,MacIntel,55.55555556,55d4e57958c35800113dc3f6,64d2fd46c836a06233681665,64dc7b752f00dfc201b5d4e2,,,,,,,decisionTrl,resources/DP.BMP,resources/DY.BMP,WildCard_NonEx,-0.415555556,-0.031111111,1,0,0,2.761,optionLeft,45,7335,4,6,0,6,0,1,,,,,,,,,,,,,,,,,,,,,,,,,,,,,,,,,,,,,,,
,,,,,,,,2023-08-16_08h34.27.608,HF_wild_card,2022.2.4,MacIntel,55.55555556,55d4e57958c35800113dc3f6,64d2fd46c836a06233681665,64dc7b752f00dfc201b5d4e2,,,,,,,decisionTrl,resources/DY.BMP,resources/DB.BMP,Door2,0.348888889,0,1,0,0,5.14,optionRight,40,7375,4,7,0,7,0,1,,,,,,,,,,,,,,,,,,,,,,,,,,,,,,,,,,,,,,,
,,,,,,,,2023-08-16_08h34.27.608,HF_wild_card,2022.2.4,MacIntel,55.55555556,55d4e57958c35800113dc3f6,64d2fd46c836a06233681665,64dc7b752f00dfc201b5d4e2,,,,,,,decisionTrl,resources/DR.BMP,resources/DBN.BMP,Door4,0.375555556,0.003333333,1,0,0,1.907,optionRight,60,7435,4,8,0,8,0,1,,,,,,,,,,,,,,,,,,,,,,,,,,,,,,,,,,,,,,,
,,,,,,,,2023-08-16_08h34.27.608,HF_wild_card,2022.2.4,MacIntel,55.55555556,55d4e57958c35800113dc3f6,64d2fd46c836a06233681665,64dc7b752f00dfc201b5d4e2,,,,,,,decisionTrl,resources/DR.BMP,resources/DBN.BMP,Door4,0.364444444,-0.01,1,0,0,1.12,optionRight,60,7495,4,9,0,9,0,1,,,,,,,,,,,,,,,,,,,,,,,,,,,,,,,,,,,,,,,
,,,,,,,,2023-08-16_08h34.27.608,HF_wild_card,2022.2.4,MacIntel,55.55555556,55d4e57958c35800113dc3f6,64d2fd46c836a06233681665,64dc7b752f00dfc201b5d4e2,,,,,,,decisionTrl,resources/DB.BMP,resources/DY.BMP,Door2,-0.404444444,-0.014444444,1,0,0,1.723,optionLeft,20,7515,4,10,0,10,0,1,,,,,,,,,,,,,,,,,,,,,,,,,,,,,,,,,,,,,,,
,,,,,,,,2023-08-16_08h34.27.608,HF_wild_card,2022.2.4,MacIntel,55.55555556,55d4e57958c35800113dc3f6,64d2fd46c836a06233681665,64dc7b752f00dfc201b5d4e2,,,,,,,decisionTrl,resources/DR.BMP,resources/DBN.BMP,Door4,0.381111111,-0.01,1,0,0,1.404,optionRight,60,7575,4,11,0,11,0,1,,,,,,,,,,,,,,,,,,,,,,,,,,,,,,,,,,,,,,,
,,,,,,,,2023-08-16_08h34.27.608,HF_wild_card,2022.2.4,MacIntel,55.55555556,55d4e57958c35800113dc3f6,64d2fd46c836a06233681665,64dc7b752f00dfc201b5d4e2,,,,,,,ctch,resources/DB.BMP,resources/DR.BMP,Door3,0.388888889,-0.027777778,1,0,0,1.974,optionRight,70,7645,4,12,0,12,0,1,,,,,,,,,,,,,,,,,,,,,,,,,,,,,,,,,,,,,,,
,,,,,,,,2023-08-16_08h34.27.608,HF_wild_card,2022.2.4,MacIntel,55.55555556,55d4e57958c35800113dc3f6,64d2fd46c836a06233681665,64dc7b752f00dfc201b5d4e2,,,,,,,decisionTrl,resources/DBN.BMP,resources/DR.BMP,Door4,-0.346666667,-0.015555556,1,0,0,1.271,optionLeft,80,7725,4,13,0,13,0,1,,,,,,,,,,,,,,,,,,,,,,,,,,,,,,,,,,,,,,,
,,,,,,,,2023-08-16_08h34.27.608,HF_wild_card,2022.2.4,MacIntel,55.55555556,55d4e57958c35800113dc3f6,64d2fd46c836a06233681665,64dc7b752f00dfc201b5d4e2,,,,,,,decisionTrl,resources/DBN.BMP,resources/DR.BMP,Door4,-0.372222222,-0.001111111,1,0,0,1.243,optionLeft,60,7785,4,14,0,14,0,1,,,,,,,,,,,,,,,,,,,,,,,,,,,,,,,,,,,,,,,
,,,,,,,,2023-08-16_08h34.27.608,HF_wild_card,2022.2.4,MacIntel,55.55555556,55d4e57958c35800113dc3f6,64d2fd46c836a06233681665,64dc7b752f00dfc201b5d4e2,,,,,,,decisionTrl,resources/DBN.BMP,resources/DR.BMP,Door4,-0.384444444,-0.012222222,1,0,0,1.037,optionLeft,80,7865,4,15,0,15,0,1,,,,,,,,,,,,,,,,,,,,,,,,,,,,,,,,,,,,,,,
,,,,,,,,2023-08-16_08h34.27.608,HF_wild_card,2022.2.4,MacIntel,55.55555556,55d4e57958c35800113dc3f6,64d2fd46c836a06233681665,64dc7b752f00dfc201b5d4e2,,,,,,,sngl,resources/Empty.png,resources/DY.BMP,Door1,0.417777778,-0.012222222,1,0,0,8.957,optionRight,30,7895,4,16,0,16,0,1,,,,,,,,,,,,,,,,,,,,,,,,,,,,,,,,,,,,,,,
,,,,,,,,2023-08-16_08h34.27.608,HF_wild_card,2022.2.4,MacIntel,55.55555556,55d4e57958c35800113dc3f6,64d2fd46c836a06233681665,64dc7b752f00dfc201b5d4e2,,,,,,,sngl,resources/DB.BMP,resources/Empty.png,Door2,-0.47,-0.032222222,1,0,0,0.852,optionLeft,20,7915,4,17,0,17,0,1,,,,,,,,,,,,,,,,,,,,,,,,,,,,,,,,,,,,,,,
,,,,,,,,2023-08-16_08h34.27.608,HF_wild_card,2022.2.4,MacIntel,55.55555556,55d4e57958c35800113dc3f6,64d2fd46c836a06233681665,64dc7b752f00dfc201b5d4e2,,,,,,,sngl,resources/Empty.png,resources/DR.BMP,Door3,0.362222222,-0.013333333,1,0,0,2.275,optionRight,70,7985,4,18,0,18,0,1,,,,,,,,,,,,,,,,,,,,,,,,,,,,,,,,,,,,,,,
,,,,,,,,2023-08-16_08h34.27.608,HF_wild_card,2022.2.4,MacIntel,55.55555556,55d4e57958c35800113dc3f6,64d2fd46c836a06233681665,64dc7b752f00dfc201b5d4e2,,,,,,,ctch,resources/DY.BMP,resources/DBN.BMP,Door4,0.411111111,-0.003333333,1,0,0,1.487,optionRight,80,8065,4,19,0,19,0,1,,,,,,,,,,,,,,,,,,,,,,,,,,,,,,,,,,,,,,,
,,,,,,,,2023-08-16_08h34.27.608,HF_wild_card,2022.2.4,MacIntel,55.55555556,55d4e57958c35800113dc3f6,64d2fd46c836a06233681665,64dc7b752f00dfc201b5d4e2,,,,,,,sngl,resources/DBN.BMP,resources/Empty.png,Door4,-0.327777778,0.006666667,1,0,0,0.802,optionLeft,60,8125,4,20,0,20,0,1,,,,,,,,,,,,,,,,,,,,,,,,,,,,,,,,,,,,,,,
,,,,,,,,2023-08-16_08h34.27.608,HF_wild_card,2022.2.4,MacIntel,55.55555556,55d4e57958c35800113dc3f6,64d2fd46c836a06233681665,64dc7b752f00dfc201b5d4e2,,,,,,,sngl,resources/Empty.png,resources/DP.BMP,WildCard_NonEx,0.338888889,-0.038888889,1,0,0,0.886,optionRight,45,8170,4,21,0,21,0,1,,,,,,,,,,,,,,,,,,,,,,,,,,,,,,,,,,,,,,,
,,,,,,,,2023-08-16_08h34.27.608,HF_wild_card,2022.2.4,MacIntel,55.55555556,55d4e57958c35800113dc3f6,64d2fd46c836a06233681665,64dc7b752f00dfc201b5d4e2,,,,,,,sngl,resources/Empty.png,resources/DBN.BMP,Door4,0.377777778,0.016666667,1,0,0,1.085,optionRight,80,8250,4,22,0,22,0,1,,,,,,,,,,,,,,,,,,,,,,,,,,,,,,,,,,,,,,,
,,,,,,,,2023-08-16_08h34.27.608,HF_wild_card,2022.2.4,MacIntel,55.55555556,55d4e57958c35800113dc3f6,64d2fd46c836a06233681665,64dc7b752f00dfc201b5d4e2,,,,,,,sngl,resources/DP.BMP,resources/Empty.png,WildCard_NonEx,-0.327777778,-0.017777778,1,0,0,0.902,optionLeft,45,8295,4,23,0,23,0,1,,,,,,,,,,,,,,,,,,,,,,,,,,,,,,,,,,,,,,,
,,,,,,,,2023-08-16_08h34.27.608,HF_wild_card,2022.2.4,MacIntel,55.55555556,55d4e57958c35800113dc3f6,64d2fd46c836a06233681665,64dc7b752f00dfc201b5d4e2,,,,,,,decisionTrl,resources/DB.BMP,resources/DY.BMP,Door2,-0.363333333,-0.036666667,1,0,0,9.612,optionLeft,40,8335,4,24,0,24,0,1,,,,,,,,,,,,,,,,,,,,,,,,,,,,,,,,,,,,,,,
,,,,,,,,2023-08-16_08h34.27.608,HF_wild_card,2022.2.4,MacIntel,55.55555556,55d4e57958c35800113dc3f6,64d2fd46c836a06233681665,64dc7b752f00dfc201b5d4e2,,,,,,,decisionTrl,resources/DY.BMP,resources/DB.BMP,Door2,0.391111111,-0.01,1,0,0,1.555,optionRight,20,8355,4,25,0,25,0,1,,,,,,,,,,,,,,,,,,,,,,,,,,,,,,,,,,,,,,,
,,,,,,,,2023-08-16_08h34.27.608,HF_wild_card,2022.2.4,MacIntel,55.55555556,55d4e57958c35800113dc3f6,64d2fd46c836a06233681665,64dc7b752f00dfc201b5d4e2,,,,,,,decisionTrl,resources/DP.BMP,resources/DR.BMP,Door3,0.401111111,-0.053333333,1,0,0,1.941,optionRight,70,8425,4,26,0,26,0,1,,,,,,,,,,,,,,,,,,,,,,,,,,,,,,,,,,,,,,,
,,,,,,,,2023-08-16_08h34.27.608,HF_wild_card,2022.2.4,MacIntel,55.55555556,55d4e57958c35800113dc3f6,64d2fd46c836a06233681665,64dc7b752f00dfc201b5d4e2,,,,,,,sngl,resources/DP.BMP,resources/Empty.png,WildCard_NonEx,-0.381111111,0.021111111,1,0,0,0.918,optionLeft,55,8480,4,27,0,27,0,1,,,,,,,,,,,,,,,,,,,,,,,,,,,,,,,,,,,,,,,
,,,,,,,,2023-08-16_08h34.27.608,HF_wild_card,2022.2.4,MacIntel,55.55555556,55d4e57958c35800113dc3f6,64d2fd46c836a06233681665,64dc7b752f00dfc201b5d4e2,,,,,,,ctch,resources/DR.BMP,resources/DB.BMP,Door3,-0.378888889,-0.026666667,1,0,0,2.125,optionLeft,70,8550,4,28,0,28,0,1,,,,,,,,,,,,,,,,,,,,,,,,,,,,,,,,,,,,,,,
,,,,,,,,2023-08-16_08h34.27.608,HF_wild_card,2022.2.4,MacIntel,55.55555556,55d4e57958c35800113dc3f6,64d2fd46c836a06233681665,64dc7b752f00dfc201b5d4e2,,,,,,,decisionTrl,resources/DY.BMP,resources/DP.BMP,WildCard_NonEx,0.401111111,-0.037777778,1,0,0,7.235,optionRight,55,8605,4,29,0,29,0,1,,,,,,,,,,,,,,,,,,,,,,,,,,,,,,,,,,,,,,,
,,,,,,,,2023-08-16_08h34.27.608,HF_wild_card,2022.2.4,MacIntel,55.55555556,55d4e57958c35800113dc3f6,64d2fd46c836a06233681665,64dc7b752f00dfc201b5d4e2,,,,,,,decisionTrl,resources/DR.BMP,resources/DP.BMP,Door3,-0.378888889,-0.007777778,1,0,0,1.706,optionLeft,70,8675,4,30,0,30,0,1,,,,,,,,,,,,,,,,,,,,,,,,,,,,,,,,,,,,,,,
,,,,,,,,2023-08-16_08h34.27.608,HF_wild_card,2022.2.4,MacIntel,55.55555556,55d4e57958c35800113dc3f6,64d2fd46c836a06233681665,64dc7b752f00dfc201b5d4e2,,,,,,,decisionTrl,resources/DY.BMP,resources/DB.BMP,Door2,0.363333333,0.008888889,1,0,0,1.923,optionRight,40,8715,4,31,0,31,0,1,,,,,,,,,,,,,,,,,,,,,,,,,,,,,,,,,,,,,,,
,,,,,,,,2023-08-16_08h34.27.608,HF_wild_card,2022.2.4,MacIntel,55.55555556,55d4e57958c35800113dc3f6,64d2fd46c836a06233681665,64dc7b752f00dfc201b5d4e2,,,,,,,sngl,resources/Empty.png,resources/DP.BMP,WildCard_NonEx,0.328888889,0,1,0,0,0.984,optionRight,55,8770,4,32,0,32,0,1,,,,,,,,,,,,,,,,,,,,,,,,,,,,,,,,,,,,,,,
,,,,,,,,2023-08-16_08h34.27.608,HF_wild_card,2022.2.4,MacIntel,55.55555556,55d4e57958c35800113dc3f6,64d2fd46c836a06233681665,64dc7b752f00dfc201b5d4e2,,,,,,,decisionTrl,resources/DP.BMP,resources/DBN.BMP,Door4,0.38,0.001111111,1,0,0,2.373,optionRight,60,8830,4,33,0,33,0,1,,,,,,,,,,,,,,,,,,,,,,,,,,,,,,,,,,,,,,,
,,,,,,,,2023-08-16_08h34.27.608,HF_wild_card,2022.2.4,MacIntel,55.55555556,55d4e57958c35800113dc3f6,64d2fd46c836a06233681665,64dc7b752f00dfc201b5d4e2,,,,,,,decisionTrl,resources/DY.BMP,resources/DB.BMP,Door2,0.427777778,-0.042222222,1,0,0,4.503,optionRight,20,8850,4,34,0,34,0,1,,,,,,,,,,,,,,,,,,,,,,,,,,,,,,,,,,,,,,,
,,,,,,,,2023-08-16_08h34.27.608,HF_wild_card,2022.2.4,MacIntel,55.55555556,55d4e57958c35800113dc3f6,64d2fd46c836a06233681665,64dc7b752f00dfc201b5d4e2,,,,,,,decisionTrl,resources/DB.BMP,resources/DP.BMP,Door2,-0.35,-0.031111111,1,0,0,1.185,optionLeft,20,8870,4,35,0,35,0,1,,,,,,,,,,,,,,,,,,,,,,,,,,,,,,,,,,,,,,,
,,,,,,,,2023-08-16_08h34.27.608,HF_wild_card,2022.2.4,MacIntel,55.55555556,55d4e57958c35800113dc3f6,64d2fd46c836a06233681665,64dc7b752f00dfc201b5d4e2,,,,,,,decisionTrl,resources/DBN.BMP,resources/DP.BMP,Door4,-0.395555556,0.003333333,1,0,0,1.588,optionLeft,60,8930,4,36,0,36,0,1,,,,,,,,,,,,,,,,,,,,,,,,,,,,,,,,,,,,,,,
,,,,,,,,2023-08-16_08h34.27.608,HF_wild_card,2022.2.4,MacIntel,55.55555556,55d4e57958c35800113dc3f6,64d2fd46c836a06233681665,64dc7b752f00dfc201b5d4e2,,,,,,,ctch,resources/DBN.BMP,resources/DY.BMP,Door4,-0.406666667,-0.045555556,1,0,0,1.992,optionLeft,80,9010,4,37,0,37,0,1,,,,,,,,,,,,,,,,,,,,,,,,,,,,,,,,,,,,,,,
,,,,,,,,2023-08-16_08h34.27.608,HF_wild_card,2022.2.4,MacIntel,55.55555556,55d4e57958c35800113dc3f6,64d2fd46c836a06233681665,64dc7b752f00dfc201b5d4e2,,,,,,,decisionTrl,resources/DR.BMP,resources/DBN.BMP,Door3,-0.371111111,-0.037777778,1,0,0,2.626,optionLeft,70,9080,4,38,0,38,0,1,,,,,,,,,,,,,,,,,,,,,,,,,,,,,,,,,,,,,,,
,,,,,,,,2023-08-16_08h34.27.608,HF_wild_card,2022.2.4,MacIntel,55.55555556,55d4e57958c35800113dc3f6,64d2fd46c836a06233681665,64dc7b752f00dfc201b5d4e2,,,,,,,ctch,resources/DBN.BMP,resources/DY.BMP,Door4,-0.375555556,0,1,0,0,1.504,optionLeft,60,9140,4,39,0,39,0,1,,,,,,,,,,,,,,,,,,,,,,,,,,,,,,,,,,,,,,,
,,,,,,,,2023-08-16_08h34.27.608,HF_wild_card,2022.2.4,MacIntel,55.55555556,55d4e57958c35800113dc3f6,64d2fd46c836a06233681665,64dc7b752f00dfc201b5d4e2,,,,,,,sngl,resources/DY.BMP,resources/Empty.png,Door1,-0.456666667,0.026666667,1,0,0,5.489,optionLeft,30,9170,4,40,0,40,0,1,,,,,,,,,,,,,,,,,,,,,,,,,,,,,,,,,,,,,,,
,,,,,,,,2023-08-16_08h34.27.608,HF_wild_card,2022.2.4,MacIntel,55.55555556,55d4e57958c35800113dc3f6,64d2fd46c836a06233681665,64dc7b752f00dfc201b5d4e2,,,,,,,ctch,resources/DB.BMP,resources/DR.BMP,Door3,0.4,-0.018888889,1,0,0,4.086,optionRight,70,9240,4,41,0,41,0,1,,,,,,,,,,,,,,,,,,,,,,,,,,,,,,,,,,,,,,,
,,,,,,,,2023-08-16_08h34.27.608,HF_wild_card,2022.2.4,MacIntel,55.55555556,55d4e57958c35800113dc3f6,64d2fd46c836a06233681665,64dc7b752f00dfc201b5d4e2,,,,,,,decisionTrl,resources/DB.BMP,resources/DY.BMP,Door2,-0.37,-0.003333333,1,0,0,2.868,optionLeft,40,9280,4,42,0,42,0,1,,,,,,,,,,,,,,,,,,,,,,,,,,,,,,,,,,,,,,,
,,,,,,,,2023-08-16_08h34.27.608,HF_wild_card,2022.2.4,MacIntel,55.55555556,55d4e57958c35800113dc3f6,64d2fd46c836a06233681665,64dc7b752f00dfc201b5d4e2,,,,,,,decisionTrl,resources/DP.BMP,resources/DB.BMP,WildCard_NonEx,-0.344444444,-0.006666667,1,0,0,2.894,optionLeft,55,9335,4,43,0,43,0,1,,,,,,,,,,,,,,,,,,,,,,,,,,,,,,,,,,,,,,,
,,,,,,,,2023-08-16_08h34.27.608,HF_wild_card,2022.2.4,MacIntel,55.55555556,55d4e57958c35800113dc3f6,64d2fd46c836a06233681665,64dc7b752f00dfc201b5d4e2,,,,,,,,,,,,,,,,,,,,,,,,,,3,0,3,0,1,,,,,,,,,,,,,,,,,,,,,,,,,,,,,,,,,,
,,,,,,,,2023-08-16_08h34.27.608,HF_wild_card,2022.2.4,MacIntel,55.55555556,55d4e57958c35800113dc3f6,64d2fd46c836a06233681665,64dc7b752f00dfc201b5d4e2,,,,,,,sngl,resources/Empty.png,resources/DBN.BMP,Door4,0.387777778,-0.021111111,1,0,0,1.768,optionRight,60,9395,5,0,0,0,0,1,,,,,,,,,,,,,,,,,,,,,,,,,,,,,,,,,,,,,,,
,,,,,,,,2023-08-16_08h34.27.608,HF_wild_card,2022.2.4,MacIntel,55.55555556,55d4e57958c35800113dc3f6,64d2fd46c836a06233681665,64dc7b752f00dfc201b5d4e2,,,,,,,sngl,resources/DP.BMP,resources/Empty.png,WildCard_NonEx,-0.364444444,-0.023333333,1,0,0,0.85,optionLeft,45,9440,5,1,0,1,0,1,,,,,,,,,,,,,,,,,,,,,,,,,,,,,,,,,,,,,,,
,,,,,,,,2023-08-16_08h34.27.608,HF_wild_card,2022.2.4,MacIntel,55.55555556,55d4e57958c35800113dc3f6,64d2fd46c836a06233681665,64dc7b752f00dfc201b5d4e2,,,,,,,decisionTrl,resources/DB.BMP,resources/DY.BMP,Door2,-0.362222222,-0.031111111,1,0,0,2.709,optionLeft,20,9460,5,2,0,2,0,1,,,,,,,,,,,,,,,,,,,,,,,,,,,,,,,,,,,,,,,
,,,,,,,,2023-08-16_08h34.27.608,HF_wild_card,2022.2.4,MacIntel,55.55555556,55d4e57958c35800113dc3f6,64d2fd46c836a06233681665,64dc7b752f00dfc201b5d4e2,,,,,,,decisionTrl,resources/DBN.BMP,resources/DR.BMP,Door4,-0.391111111,0.02,1,0,0,1.772,optionLeft,60,9520,5,3,0,3,0,1,,,,,,,,,,,,,,,,,,,,,,,,,,,,,,,,,,,,,,,
,,,,,,,,2023-08-16_08h34.27.608,HF_wild_card,2022.2.4,MacIntel,55.55555556,55d4e57958c35800113dc3f6,64d2fd46c836a06233681665,64dc7b752f00dfc201b5d4e2,,,,,,,decisionTrl,resources/DB.BMP,resources/DY.BMP,Door2,-0.353333333,-0.022222222,1,0,0,9.796,optionLeft,20,9540,5,4,0,4,0,1,,,,,,,,,,,,,,,,,,,,,,,,,,,,,,,,,,,,,,,
,,,,,,,,2023-08-16_08h34.27.608,HF_wild_card,2022.2.4,MacIntel,55.55555556,55d4e57958c35800113dc3f6,64d2fd46c836a06233681665,64dc7b752f00dfc201b5d4e2,,,,,,,sngl,resources/DY.BMP,resources/Empty.png,Door1,-0.375555556,-0.006666667,1,0,0,0.734,optionLeft,30,9570,5,5,0,5,0,1,,,,,,,,,,,,,,,,,,,,,,,,,,,,,,,,,,,,,,,
,,,,,,,,2023-08-16_08h34.27.608,HF_wild_card,2022.2.4,MacIntel,55.55555556,55d4e57958c35800113dc3f6,64d2fd46c836a06233681665,64dc7b752f00dfc201b5d4e2,,,,,,,sngl,resources/Empty.png,resources/DY.BMP,Door1,0.364444444,-0.037777778,1,0,0,0.767,optionRight,30,9600,5,6,0,6,0,1,,,,,,,,,,,,,,,,,,,,,,,,,,,,,,,,,,,,,,,
,,,,,,,,2023-08-16_08h34.27.608,HF_wild_card,2022.2.4,MacIntel,55.55555556,55d4e57958c35800113dc3f6,64d2fd46c836a06233681665,64dc7b752f00dfc201b5d4e2,,,,,,,ctch,resources/DB.BMP,resources/DR.BMP,Door3,0.356666667,-0.038888889,1,0,0,2.157,optionRight,70,9670,5,7,0,7,0,1,,,,,,,,,,,,,,,,,,,,,,,,,,,,,,,,,,,,,,,
,,,,,,,,2023-08-16_08h34.27.608,HF_wild_card,2022.2.4,MacIntel,55.55555556,55d4e57958c35800113dc3f6,64d2fd46c836a06233681665,64dc7b752f00dfc201b5d4e2,,,,,,,decisionTrl,resources/DR.BMP,resources/DBN.BMP,Door4,0.414444444,-0.026666667,1,0,0,1.32,optionRight,60,9730,5,8,0,8,0,1,,,,,,,,,,,,,,,,,,,,,,,,,,,,,,,,,,,,,,,
,,,,,,,,2023-08-16_08h34.27.608,HF_wild_card,2022.2.4,MacIntel,55.55555556,55d4e57958c35800113dc3f6,64d2fd46c836a06233681665,64dc7b752f00dfc201b5d4e2,,,,,,,decisionTrl,resources/DR.BMP,resources/DBN.BMP,Door4,0.363333333,-0.01,1,0,0,1.354,optionRight,80,9810,5,9,0,9,0,1,,,,,,,,,,,,,,,,,,,,,,,,,,,,,,,,,,,,,,,
,,,,,,,,2023-08-16_08h34.27.608,HF_wild_card,2022.2.4,MacIntel,55.55555556,55d4e57958c35800113dc3f6,64d2fd46c836a06233681665,64dc7b752f00dfc201b5d4e2,,,,,,,ctch,resources/DR.BMP,resources/DB.BMP,Door3,-0.337777778,-0.01,1,0,0,1.756,optionLeft,70,9880,5,10,0,10,0,1,,,,,,,,,,,,,,,,,,,,,,,,,,,,,,,,,,,,,,,
,,,,,,,,2023-08-16_08h34.27.608,HF_wild_card,2022.2.4,MacIntel,55.55555556,55d4e57958c35800113dc3f6,64d2fd46c836a06233681665,64dc7b752f00dfc201b5d4e2,,,,,,,decisionTrl,resources/DP.BMP,resources/DB.BMP,WildCard_NonEx,-0.364444444,-0.021111111,1,0,0,5.173,optionLeft,55,9935,5,11,0,11,0,1,,,,,,,,,,,,,,,,,,,,,,,,,,,,,,,,,,,,,,,
,,,,,,,,2023-08-16_08h34.27.608,HF_wild_card,2022.2.4,MacIntel,55.55555556,55d4e57958c35800113dc3f6,64d2fd46c836a06233681665,64dc7b752f00dfc201b5d4e2,,,,,,,sngl,resources/DB.BMP,resources/Empty.png,Door2,-0.358888889,0.004444444,1,0,0,1.003,optionLeft,40,9975,5,12,0,12,0,1,,,,,,,,,,,,,,,,,,,,,,,,,,,,,,,,,,,,,,,
,,,,,,,,2023-08-16_08h34.27.608,HF_wild_card,2022.2.4,MacIntel,55.55555556,55d4e57958c35800113dc3f6,64d2fd46c836a06233681665,64dc7b752f00dfc201b5d4e2,,,,,,,decisionTrl,resources/DY.BMP,resources/DB.BMP,Door2,0.367777778,0.008888889,1,0,0,11.774,optionRight,20,9995,5,13,0,13,0,1,,,,,,,,,,,,,,,,,,,,,,,,,,,,,,,,,,,,,,,
,,,,,,,,2023-08-16_08h34.27.608,HF_wild_card,2022.2.4,MacIntel,55.55555556,55d4e57958c35800113dc3f6,64d2fd46c836a06233681665,64dc7b752f00dfc201b5d4e2,,,,,,,decisionTrl,resources/DR.BMP,resources/DBN.BMP,Door4,0.387777778,-0.003333333,1,0,0,1.907,optionRight,80,10075,5,14,0,14,0,1,,,,,,,,,,,,,,,,,,,,,,,,,,,,,,,,,,,,,,,
,,,,,,,,2023-08-16_08h34.27.608,HF_wild_card,2022.2.4,MacIntel,55.55555556,55d4e57958c35800113dc3f6,64d2fd46c836a06233681665,64dc7b752f00dfc201b5d4e2,,,,,,,sngl,resources/DR.BMP,resources/Empty.png,Door3,-0.367777778,0.014444444,1,0,0,0.734,optionLeft,70,10145,5,15,0,15,0,1,,,,,,,,,,,,,,,,,,,,,,,,,,,,,,,,,,,,,,,
,,,,,,,,2023-08-16_08h34.27.608,HF_wild_card,2022.2.4,MacIntel,55.55555556,55d4e57958c35800113dc3f6,64d2fd46c836a06233681665,64dc7b752f00dfc201b5d4e2,,,,,,,decisionTrl,resources/DP.BMP,resources/DY.BMP,WildCard_NonEx,-0.337777778,-0.013333333,1,0,0,1.473,optionLeft,45,10190,5,16,0,16,0,1,,,,,,,,,,,,,,,,,,,,,,,,,,,,,,,,,,,,,,,
,,,,,,,,2023-08-16_08h34.27.608,HF_wild_card,2022.2.4,MacIntel,55.55555556,55d4e57958c35800113dc3f6,64d2fd46c836a06233681665,64dc7b752f00dfc201b5d4e2,,,,,,,decisionTrl,resources/DP.BMP,resources/DBN.BMP,Door4,0.363333333,-0.003333333,1,0,0,2.392,optionRight,80,10270,5,17,0,17,0,1,,,,,,,,,,,,,,,,,,,,,,,,,,,,,,,,,,,,,,,
,,,,,,,,2023-08-16_08h34.27.608,HF_wild_card,2022.2.4,MacIntel,55.55555556,55d4e57958c35800113dc3f6,64d2fd46c836a06233681665,64dc7b752f00dfc201b5d4e2,,,,,,,ctch,resources/DR.BMP,resources/DB.BMP,Door3,-0.375555556,-0.03,1,0,0,4.336,optionLeft,70,10340,5,18,0,18,0,1,,,,,,,,,,,,,,,,,,,,,,,,,,,,,,,,,,,,,,,
,,,,,,,,2023-08-16_08h34.27.608,HF_wild_card,2022.2.4,MacIntel,55.55555556,55d4e57958c35800113dc3f6,64d2fd46c836a06233681665,64dc7b752f00dfc201b5d4e2,,,,,,,sngl,resources/DP.BMP,resources/Empty.png,WildCard_NonEx,-0.415555556,-0.007777778,1,0,0,0.767,optionLeft,55,10395,5,19,0,19,0,1,,,,,,,,,,,,,,,,,,,,,,,,,,,,,,,,,,,,,,,
,,,,,,,,2023-08-16_08h34.27.608,HF_wild_card,2022.2.4,MacIntel,55.55555556,55d4e57958c35800113dc3f6,64d2fd46c836a06233681665,64dc7b752f00dfc201b5d4e2,,,,,,,decisionTrl,resources/DB.BMP,resources/DY.BMP,Door2,-0.321111111,-0.022222222,1,0,0,1.472,optionLeft,40,10435,5,20,0,20,0,1,,,,,,,,,,,,,,,,,,,,,,,,,,,,,,,,,,,,,,,
,,,,,,,,2023-08-16_08h34.27.608,HF_wild_card,2022.2.4,MacIntel,55.55555556,55d4e57958c35800113dc3f6,64d2fd46c836a06233681665,64dc7b752f00dfc201b5d4e2,,,,,,,decisionTrl,resources/DR.BMP,resources/DBN.BMP,Door4,0.392222222,-0.003333333,1,0,0,2.27,optionRight,80,10515,5,21,0,21,0,1,,,,,,,,,,,,,,,,,,,,,,,,,,,,,,,,,,,,,,,
,,,,,,,,2023-08-16_08h34.27.608,HF_wild_card,2022.2.4,MacIntel,55.55555556,55d4e57958c35800113dc3f6,64d2fd46c836a06233681665,64dc7b752f00dfc201b5d4e2,,,,,,,sngl,resources/Empty.png,resources/DP.BMP,WildCard_NonEx,0.411111111,-0.032222222,1,0,0,0.986,optionRight,55,10570,5,22,0,22,0,1,,,,,,,,,,,,,,,,,,,,,,,,,,,,,,,,,,,,,,,
,,,,,,,,2023-08-16_08h34.27.608,HF_wild_card,2022.2.4,MacIntel,55.55555556,55d4e57958c35800113dc3f6,64d2fd46c836a06233681665,64dc7b752f00dfc201b5d4e2,,,,,,,decisionTrl,resources/DY.BMP,resources/DB.BMP,Door2,0.358888889,0.004444444,1,0,0,1.706,optionRight,40,10610,5,23,0,23,0,1,,,,,,,,,,,,,,,,,,,,,,,,,,,,,,,,,,,,,,,
,,,,,,,,2023-08-16_08h34.27.608,HF_wild_card,2022.2.4,MacIntel,55.55555556,55d4e57958c35800113dc3f6,64d2fd46c836a06233681665,64dc7b752f00dfc201b5d4e2,,,,,,,decisionTrl,resources/DB.BMP,resources/DP.BMP,WildCard_NonEx,0.424444444,-0.032222222,1,0,0,1.354,optionRight,55,10665,5,24,0,24,0,1,,,,,,,,,,,,,,,,,,,,,,,,,,,,,,,,,,,,,,,
,,,,,,,,2023-08-16_08h34.27.608,HF_wild_card,2022.2.4,MacIntel,55.55555556,55d4e57958c35800113dc3f6,64d2fd46c836a06233681665,64dc7b752f00dfc201b5d4e2,,,,,,,sngl,resources/Empty.png,resources/DP.BMP,WildCard_NonEx,0.342222222,-0.054444444,1,0,0,0.886,optionRight,45,10710,5,25,0,25,0,1,,,,,,,,,,,,,,,,,,,,,,,,,,,,,,,,,,,,,,,
,,,,,,,,2023-08-16_08h34.27.608,HF_wild_card,2022.2.4,MacIntel,55.55555556,55d4e57958c35800113dc3f6,64d2fd46c836a06233681665,64dc7b752f00dfc201b5d4e2,,,,,,,decisionTrl,resources/DBN.BMP,resources/DR.BMP,Door3,0.38,-0.021111111,1,0,0,2.023,optionRight,70,10780,5,26,0,26,0,1,,,,,,,,,,,,,,,,,,,,,,,,,,,,,,,,,,,,,,,
,,,,,,,,2023-08-16_08h34.27.608,HF_wild_card,2022.2.4,MacIntel,55.55555556,55d4e57958c35800113dc3f6,64d2fd46c836a06233681665,64dc7b752f00dfc201b5d4e2,,,,,,,sngl,resources/Empty.png,resources/DR.BMP,Door3,0.35,0.004444444,1,0,0,0.851,optionRight,70,10850,5,27,0,27,0,1,,,,,,,,,,,,,,,,,,,,,,,,,,,,,,,,,,,,,,,
,,,,,,,,2023-08-16_08h34.27.608,HF_wild_card,2022.2.4,MacIntel,55.55555556,55d4e57958c35800113dc3f6,64d2fd46c836a06233681665,64dc7b752f00dfc201b5d4e2,,,,,,,decisionTrl,resources/DBN.BMP,resources/DR.BMP,Door3,0.357777778,-0.026666667,1,0,0,2.325,optionRight,70,10920,5,28,0,28,0,1,,,,,,,,,,,,,,,,,,,,,,,,,,,,,,,,,,,,,,,
,,,,,,,,2023-08-16_08h34.27.608,HF_wild_card,2022.2.4,MacIntel,55.55555556,55d4e57958c35800113dc3f6,64d2fd46c836a06233681665,64dc7b752f00dfc201b5d4e2,,,,,,,decisionTrl,resources/DB.BMP,resources/DY.BMP,Door2,-0.398888889,-0.027777778,1,0,0,3.231,optionLeft,20,10940,5,29,0,29,0,1,,,,,,,,,,,,,,,,,,,,,,,,,,,,,,,,,,,,,,,
,,,,,,,,2023-08-16_08h34.27.608,HF_wild_card,2022.2.4,MacIntel,55.55555556,55d4e57958c35800113dc3f6,64d2fd46c836a06233681665,64dc7b752f00dfc201b5d4e2,,,,,,,decisionTrl,resources/DY.BMP,resources/DB.BMP,Door2,0.396666667,-0.016666667,1,0,0,0.918,optionRight,40,10980,5,30,0,30,0,1,,,,,,,,,,,,,,,,,,,,,,,,,,,,,,,,,,,,,,,
,,,,,,,,2023-08-16_08h34.27.608,HF_wild_card,2022.2.4,MacIntel,55.55555556,55d4e57958c35800113dc3f6,64d2fd46c836a06233681665,64dc7b752f00dfc201b5d4e2,,,,,,,decisionTrl,resources/DP.BMP,resources/DR.BMP,Door3,0.377777778,-0.01,1,0,0,1.555,optionRight,70,11050,5,31,0,31,0,1,,,,,,,,,,,,,,,,,,,,,,,,,,,,,,,,,,,,,,,
,,,,,,,,2023-08-16_08h34.27.608,HF_wild_card,2022.2.4,MacIntel,55.55555556,55d4e57958c35800113dc3f6,64d2fd46c836a06233681665,64dc7b752f00dfc201b5d4e2,,,,,,,ctch,resources/DY.BMP,resources/DBN.BMP,Door4,0.384444444,0.005555556,1,0,0,1.438,optionRight,80,11130,5,32,0,32,0,1,,,,,,,,,,,,,,,,,,,,,,,,,,,,,,,,,,,,,,,
,,,,,,,,2023-08-16_08h34.27.608,HF_wild_card,2022.2.4,MacIntel,55.55555556,55d4e57958c35800113dc3f6,64d2fd46c836a06233681665,64dc7b752f00dfc201b5d4e2,,,,,,,decisionTrl,resources/DBN.BMP,resources/DR.BMP,Door4,-0.385555556,0.062222222,1,0,0,1.99,optionLeft,80,11210,5,33,0,33,0,1,,,,,,,,,,,,,,,,,,,,,,,,,,,,,,,,,,,,,,,
,,,,,,,,2023-08-16_08h34.27.608,HF_wild_card,2022.2.4,MacIntel,55.55555556,55d4e57958c35800113dc3f6,64d2fd46c836a06233681665,64dc7b752f00dfc201b5d4e2,,,,,,,ctch,resources/DY.BMP,resources/DBN.BMP,Door4,0.43,0.02,1,0,0,1.187,optionRight,80,11290,5,34,0,34,0,1,,,,,,,,,,,,,,,,,,,,,,,,,,,,,,,,,,,,,,,
,,,,,,,,2023-08-16_08h34.27.608,HF_wild_card,2022.2.4,MacIntel,55.55555556,55d4e57958c35800113dc3f6,64d2fd46c836a06233681665,64dc7b752f00dfc201b5d4e2,,,,,,,ctch,resources/DBN.BMP,resources/DY.BMP,Door4,-0.341111111,0.006666667,1,0,0,1.002,optionLeft,80,11370,5,35,0,35,0,1,,,,,,,,,,,,,,,,,,,,,,,,,,,,,,,,,,,,,,,
,,,,,,,,2023-08-16_08h34.27.608,HF_wild_card,2022.2.4,MacIntel,55.55555556,55d4e57958c35800113dc3f6,64d2fd46c836a06233681665,64dc7b752f00dfc201b5d4e2,,,,,,,ctch,resources/DB.BMP,resources/DR.BMP,Door3,0.284444444,-0.013333333,1,0,0,2.643,optionRight,70,11440,5,36,0,36,0,1,,,,,,,,,,,,,,,,,,,,,,,,,,,,,,,,,,,,,,,
,,,,,,,,2023-08-16_08h34.27.608,HF_wild_card,2022.2.4,MacIntel,55.55555556,55d4e57958c35800113dc3f6,64d2fd46c836a06233681665,64dc7b752f00dfc201b5d4e2,,,,,,,decisionTrl,resources/DY.BMP,resources/DB.BMP,Door2,0.38,-0.024444444,1,0,0,2.191,optionRight,40,11480,5,37,0,37,0,1,,,,,,,,,,,,,,,,,,,,,,,,,,,,,,,,,,,,,,,
,,,,,,,,2023-08-16_08h34.27.608,HF_wild_card,2022.2.4,MacIntel,55.55555556,55d4e57958c35800113dc3f6,64d2fd46c836a06233681665,64dc7b752f00dfc201b5d4e2,,,,,,,decisionTrl,resources/DY.BMP,resources/DP.BMP,WildCard_NonEx,0.366666667,-0.006666667,1,0,0,1.705,optionRight,45,11525,5,38,0,38,0,1,,,,,,,,,,,,,,,,,,,,,,,,,,,,,,,,,,,,,,,
,,,,,,,,2023-08-16_08h34.27.608,HF_wild_card,2022.2.4,MacIntel,55.55555556,55d4e57958c35800113dc3f6,64d2fd46c836a06233681665,64dc7b752f00dfc201b5d4e2,,,,,,,decisionTrl,resources/DBN.BMP,resources/DP.BMP,Door4,-0.372222222,0.025555556,1,0,0,1.169,optionLeft,80,11605,5,39,0,39,0,1,,,,,,,,,,,,,,,,,,,,,,,,,,,,,,,,,,,,,,,
,,,,,,,,2023-08-16_08h34.27.608,HF_wild_card,2022.2.4,MacIntel,55.55555556,55d4e57958c35800113dc3f6,64d2fd46c836a06233681665,64dc7b752f00dfc201b5d4e2,,,,,,,decisionTrl,resources/DR.BMP,resources/DP.BMP,Door3,-0.432222222,-0.032222222,1,0,0,3.968,optionLeft,70,11675,5,40,0,40,0,1,,,,,,,,,,,,,,,,,,,,,,,,,,,,,,,,,,,,,,,
,,,,,,,,2023-08-16_08h34.27.608,HF_wild_card,2022.2.4,MacIntel,55.55555556,55d4e57958c35800113dc3f6,64d2fd46c836a06233681665,64dc7b752f00dfc201b5d4e2,,,,,,,ctch,resources/DBN.BMP,resources/DY.BMP,Door4,-0.353333333,0.028888889,1,0,0,0.986,optionLeft,80,11755,5,41,0,41,0,1,,,,,,,,,,,,,,,,,,,,,,,,,,,,,,,,,,,,,,,
,,,,,,,,2023-08-16_08h34.27.608,HF_wild_card,2022.2.4,MacIntel,55.55555556,55d4e57958c35800113dc3f6,64d2fd46c836a06233681665,64dc7b752f00dfc201b5d4e2,,,,,,,sngl,resources/DBN.BMP,resources/Empty.png,Door4,-0.366666667,-0.008888889,1,0,0,0.903,optionLeft,80,11835,5,42,0,42,0,1,,,,,,,,,,,,,,,,,,,,,,,,,,,,,,,,,,,,,,,
,,,,,,,,2023-08-16_08h34.27.608,HF_wild_card,2022.2.4,MacIntel,55.55555556,55d4e57958c35800113dc3f6,64d2fd46c836a06233681665,64dc7b752f00dfc201b5d4e2,,,,,,,sngl,resources/Empty.png,resources/DB.BMP,Door2,0.34,-0.05,1,0,0,1.321,optionRight,20,11855,5,43,0,43,0,1,,,,,,,,,,,,,,,,,,,,,,,,,,,,,,,,,,,,,,,
,,,,,,,,2023-08-16_08h34.27.608,HF_wild_card,2022.2.4,MacIntel,55.55555556,55d4e57958c35800113dc3f6,64d2fd46c836a06233681665,64dc7b752f00dfc201b5d4e2,,,,,,,,,,,,,,,,,,,,,,,,,,4,0,4,0,1,,,,,,,,,,,,,,,,,,,,,,,,,,,,,,,,,,
,,,,,,,,2023-08-16_08h34.27.608,HF_wild_card,2022.2.4,MacIntel,55.55555556,55d4e57958c35800113dc3f6,64d2fd46c836a06233681665,64dc7b752f00dfc201b5d4e2,,,,,,,sngl,resources/Empty.png,resources/DBN.BMP,Door4,0.404444444,0.001111111,1,0,0,1.485,optionRight,80,11935,6,0,0,0,0,1,,,,,,,,,,,,,,,,,,,,,,,,,,,,,,,,,,,,,,,
,,,,,,,,2023-08-16_08h34.27.608,HF_wild_card,2022.2.4,MacIntel,55.55555556,55d4e57958c35800113dc3f6,64d2fd46c836a06233681665,64dc7b752f00dfc201b5d4e2,,,,,,,ctch,resources/DR.BMP,resources/DB.BMP,Door3,-0.378888889,-0.005555556,1,0,0,3.129,optionLeft,70,12005,6,1,0,1,0,1,,,,,,,,,,,,,,,,,,,,,,,,,,,,,,,,,,,,,,,
,,,,,,,,2023-08-16_08h34.27.608,HF_wild_card,2022.2.4,MacIntel,55.55555556,55d4e57958c35800113dc3f6,64d2fd46c836a06233681665,64dc7b752f00dfc201b5d4e2,,,,,,,sngl,resources/Empty.png,resources/DP.BMP,WildCard_NonEx,0.385555556,-0.021111111,1,0,0,0.768,optionRight,55,12060,6,2,0,2,0,1,,,,,,,,,,,,,,,,,,,,,,,,,,,,,,,,,,,,,,,
,,,,,,,,2023-08-16_08h34.27.608,HF_wild_card,2022.2.4,MacIntel,55.55555556,55d4e57958c35800113dc3f6,64d2fd46c836a06233681665,64dc7b752f00dfc201b5d4e2,,,,,,,decisionTrl,resources/DP.BMP,resources/DR.BMP,Door3,0.324444444,-0.022222222,1,0,0,1.036,optionRight,70,12130,6,3,0,3,0,1,,,,,,,,,,,,,,,,,,,,,,,,,,,,,,,,,,,,,,,
,,,,,,,,2023-08-16_08h34.27.608,HF_wild_card,2022.2.4,MacIntel,55.55555556,55d4e57958c35800113dc3f6,64d2fd46c836a06233681665,64dc7b752f00dfc201b5d4e2,,,,,,,decisionTrl,resources/DBN.BMP,resources/DR.BMP,Door3,0.385555556,-0.011111111,1,0,0,1.924,optionRight,70,12200,6,4,0,4,0,1,,,,,,,,,,,,,,,,,,,,,,,,,,,,,,,,,,,,,,,
,,,,,,,,2023-08-16_08h34.27.608,HF_wild_card,2022.2.4,MacIntel,55.55555556,55d4e57958c35800113dc3f6,64d2fd46c836a06233681665,64dc7b752f00dfc201b5d4e2,,,,,,,sngl,resources/DP.BMP,resources/Empty.png,WildCard_NonEx,-0.362222222,-0.008888889,1,0,0,0.682,optionLeft,45,12245,6,5,0,5,0,1,,,,,,,,,,,,,,,,,,,,,,,,,,,,,,,,,,,,,,,
,,,,,,,,2023-08-16_08h34.27.608,HF_wild_card,2022.2.4,MacIntel,55.55555556,55d4e57958c35800113dc3f6,64d2fd46c836a06233681665,64dc7b752f00dfc201b5d4e2,,,,,,,decisionTrl,resources/DBN.BMP,resources/DR.BMP,Door3,0.352222222,-0.011111111,1,0,0,1.304,optionRight,70,12315,6,6,0,6,0,1,,,,,,,,,,,,,,,,,,,,,,,,,,,,,,,,,,,,,,,
,,,,,,,,2023-08-16_08h34.27.608,HF_wild_card,2022.2.4,MacIntel,55.55555556,55d4e57958c35800113dc3f6,64d2fd46c836a06233681665,64dc7b752f00dfc201b5d4e2,,,,,,,decisionTrl,resources/DR.BMP,resources/DBN.BMP,Door3,-0.322222222,0.002222222,1,0,0,1.27,optionLeft,70,12385,6,7,0,7,0,1,,,,,,,,,,,,,,,,,,,,,,,,,,,,,,,,,,,,,,,
,,,,,,,,2023-08-16_08h34.27.608,HF_wild_card,2022.2.4,MacIntel,55.55555556,55d4e57958c35800113dc3f6,64d2fd46c836a06233681665,64dc7b752f00dfc201b5d4e2,,,,,,,ctch,resources/DR.BMP,resources/DB.BMP,Door3,-0.337777778,0.022222222,1,0,0,1.438,optionLeft,70,12455,6,8,0,8,0,1,,,,,,,,,,,,,,,,,,,,,,,,,,,,,,,,,,,,,,,
,,,,,,,,2023-08-16_08h34.27.608,HF_wild_card,2022.2.4,MacIntel,55.55555556,55d4e57958c35800113dc3f6,64d2fd46c836a06233681665,64dc7b752f00dfc201b5d4e2,,,,,,,decisionTrl,resources/DY.BMP,resources/DP.BMP,WildCard_NonEx,0.385555556,-0.036666667,1,0,0,1.722,optionRight,55,12510,6,9,0,9,0,1,,,,,,,,,,,,,,,,,,,,,,,,,,,,,,,,,,,,,,,
,,,,,,,,2023-08-16_08h34.27.608,HF_wild_card,2022.2.4,MacIntel,55.55555556,55d4e57958c35800113dc3f6,64d2fd46c836a06233681665,64dc7b752f00dfc201b5d4e2,,,,,,,sngl,resources/Empty.png,resources/DY.BMP,Door1,0.343333333,0.008888889,1,0,0,0.852,optionRight,30,12540,6,10,0,10,0,1,,,,,,,,,,,,,,,,,,,,,,,,,,,,,,,,,,,,,,,
,,,,,,,,2023-08-16_08h34.27.608,HF_wild_card,2022.2.4,MacIntel,55.55555556,55d4e57958c35800113dc3f6,64d2fd46c836a06233681665,64dc7b752f00dfc201b5d4e2,,,,,,,decisionTrl,resources/DR.BMP,resources/DP.BMP,Door3,-0.396666667,-0.024444444,1,0,0,1.672,optionLeft,70,12610,6,11,0,11,0,1,,,,,,,,,,,,,,,,,,,,,,,,,,,,,,,,,,,,,,,
,,,,,,,,2023-08-16_08h34.27.608,HF_wild_card,2022.2.4,MacIntel,55.55555556,55d4e57958c35800113dc3f6,64d2fd46c836a06233681665,64dc7b752f00dfc201b5d4e2,,,,,,,decisionTrl,resources/DR.BMP,resources/DBN.BMP,Door3,-0.343333333,-0.006666667,1,0,0,1.286,optionLeft,70,12680,6,12,0,12,0,1,,,,,,,,,,,,,,,,,,,,,,,,,,,,,,,,,,,,,,,
,,,,,,,,2023-08-16_08h34.27.608,HF_wild_card,2022.2.4,MacIntel,55.55555556,55d4e57958c35800113dc3f6,64d2fd46c836a06233681665,64dc7b752f00dfc201b5d4e2,,,,,,,sngl,resources/Empty.png,resources/DP.BMP,WildCard_NonEx,0.278888889,-0.045555556,1,0,0,1.572,optionRight,45,12725,6,13,0,13,0,1,,,,,,,,,,,,,,,,,,,,,,,,,,,,,,,,,,,,,,,
,,,,,,,,2023-08-16_08h34.27.608,HF_wild_card,2022.2.4,MacIntel,55.55555556,55d4e57958c35800113dc3f6,64d2fd46c836a06233681665,64dc7b752f00dfc201b5d4e2,,,,,,,sngl,resources/DY.BMP,resources/Empty.png,Door1,-0.355555556,-0.002222222,1,0,0,2.443,optionLeft,30,12755,6,14,0,14,0,1,,,,,,,,,,,,,,,,,,,,,,,,,,,,,,,,,,,,,,,
,,,,,,,,2023-08-16_08h34.27.608,HF_wild_card,2022.2.4,MacIntel,55.55555556,55d4e57958c35800113dc3f6,64d2fd46c836a06233681665,64dc7b752f00dfc201b5d4e2,,,,,,,sngl,resources/Empty.png,resources/DR.BMP,Door3,0.355555556,-0.015555556,1,0,0,0.698,optionRight,70,12825,6,15,0,15,0,1,,,,,,,,,,,,,,,,,,,,,,,,,,,,,,,,,,,,,,,
,,,,,,,,2023-08-16_08h34.27.608,HF_wild_card,2022.2.4,MacIntel,55.55555556,55d4e57958c35800113dc3f6,64d2fd46c836a06233681665,64dc7b752f00dfc201b5d4e2,,,,,,,decisionTrl,resources/DP.BMP,resources/DB.BMP,WildCard_NonEx,-0.377777778,-0.014444444,1,0,0,4.035,optionLeft,55,12880,6,16,0,16,0,1,,,,,,,,,,,,,,,,,,,,,,,,,,,,,,,,,,,,,,,
,,,,,,,,2023-08-16_08h34.27.608,HF_wild_card,2022.2.4,MacIntel,55.55555556,55d4e57958c35800113dc3f6,64d2fd46c836a06233681665,64dc7b752f00dfc201b5d4e2,,,,,,,decisionTrl,resources/DY.BMP,resources/DB.BMP,Door2,0.376666667,0.004444444,1,0,0,1.37,optionRight,40,12920,6,17,0,17,0,1,,,,,,,,,,,,,,,,,,,,,,,,,,,,,,,,,,,,,,,
,,,,,,,,2023-08-16_08h34.27.608,HF_wild_card,2022.2.4,MacIntel,55.55555556,55d4e57958c35800113dc3f6,64d2fd46c836a06233681665,64dc7b752f00dfc201b5d4e2,,,,,,,sngl,resources/DBN.BMP,resources/Empty.png,Door4,-0.406666667,0.01,1,0,0,0.716,optionLeft,60,12980,6,18,0,18,0,1,,,,,,,,,,,,,,,,,,,,,,,,,,,,,,,,,,,,,,,
,,,,,,,,2023-08-16_08h34.27.608,HF_wild_card,2022.2.4,MacIntel,55.55555556,55d4e57958c35800113dc3f6,64d2fd46c836a06233681665,64dc7b752f00dfc201b5d4e2,,,,,,,decisionTrl,resources/DR.BMP,resources/DBN.BMP,Door4,0.358888889,0.021111111,1,0,0,0.869,optionRight,60,13040,6,19,0,19,0,1,,,,,,,,,,,,,,,,,,,,,,,,,,,,,,,,,,,,,,,
,,,,,,,,2023-08-16_08h34.27.608,HF_wild_card,2022.2.4,MacIntel,55.55555556,55d4e57958c35800113dc3f6,64d2fd46c836a06233681665,64dc7b752f00dfc201b5d4e2,,,,,,,ctch,resources/DB.BMP,resources/DR.BMP,Door3,0.388888889,-0.002222222,1,0,0,1.071,optionRight,70,13110,6,20,0,20,0,1,,,,,,,,,,,,,,,,,,,,,,,,,,,,,,,,,,,,,,,
,,,,,,,,2023-08-16_08h34.27.608,HF_wild_card,2022.2.4,MacIntel,55.55555556,55d4e57958c35800113dc3f6,64d2fd46c836a06233681665,64dc7b752f00dfc201b5d4e2,,,,,,,decisionTrl,resources/DBN.BMP,resources/DR.BMP,Door4,-0.385555556,0.001111111,1,0,0,0.683,optionLeft,60,13170,6,21,0,21,0,1,,,,,,,,,,,,,,,,,,,,,,,,,,,,,,,,,,,,,,,
,,,,,,,,2023-08-16_08h34.27.608,HF_wild_card,2022.2.4,MacIntel,55.55555556,55d4e57958c35800113dc3f6,64d2fd46c836a06233681665,64dc7b752f00dfc201b5d4e2,,,,,,,decisionTrl,resources/DY.BMP,resources/DB.BMP,Door2,0.376666667,-0.005555556,1,0,0,1.755,optionRight,40,13210,6,22,0,22,0,1,,,,,,,,,,,,,,,,,,,,,,,,,,,,,,,,,,,,,,,
,,,,,,,,2023-08-16_08h34.27.608,HF_wild_card,2022.2.4,MacIntel,55.55555556,55d4e57958c35800113dc3f6,64d2fd46c836a06233681665,64dc7b752f00dfc201b5d4e2,,,,,,,decisionTrl,resources/DB.BMP,resources/DY.BMP,Door2,-0.401111111,-0.026666667,1,0,0,1.388,optionLeft,40,13250,6,23,0,23,0,1,,,,,,,,,,,,,,,,,,,,,,,,,,,,,,,,,,,,,,,
,,,,,,,,2023-08-16_08h34.27.608,HF_wild_card,2022.2.4,MacIntel,55.55555556,55d4e57958c35800113dc3f6,64d2fd46c836a06233681665,64dc7b752f00dfc201b5d4e2,,,,,,,sngl,resources/DP.BMP,resources/Empty.png,WildCard_NonEx,-0.271111111,-0.007777778,1,0,0,0.684,optionLeft,55,13305,6,24,0,24,0,1,,,,,,,,,,,,,,,,,,,,,,,,,,,,,,,,,,,,,,,
,,,,,,,,2023-08-16_08h34.27.608,HF_wild_card,2022.2.4,MacIntel,55.55555556,55d4e57958c35800113dc3f6,64d2fd46c836a06233681665,64dc7b752f00dfc201b5d4e2,,,,,,,decisionTrl,resources/DP.BMP,resources/DY.BMP,WildCard_NonEx,-0.332222222,-0.007777778,1,0,0,3.113,optionLeft,55,13360,6,25,0,25,0,1,,,,,,,,,,,,,,,,,,,,,,,,,,,,,,,,,,,,,,,
,,,,,,,,2023-08-16_08h34.27.608,HF_wild_card,2022.2.4,MacIntel,55.55555556,55d4e57958c35800113dc3f6,64d2fd46c836a06233681665,64dc7b752f00dfc201b5d4e2,,,,,,,ctch,resources/DBN.BMP,resources/DY.BMP,Door4,-0.35,-0.022222222,1,0,0,1.034,optionLeft,60,13420,6,26,0,26,0,1,,,,,,,,,,,,,,,,,,,,,,,,,,,,,,,,,,,,,,,
,,,,,,,,2023-08-16_08h34.27.608,HF_wild_card,2022.2.4,MacIntel,55.55555556,55d4e57958c35800113dc3f6,64d2fd46c836a06233681665,64dc7b752f00dfc201b5d4e2,,,,,,,decisionTrl,resources/DBN.BMP,resources/DR.BMP,Door3,0.382222222,0.002222222,1,0,0,0.99,optionRight,70,13490,6,27,0,27,0,1,,,,,,,,,,,,,,,,,,,,,,,,,,,,,,,,,,,,,,,
,,,,,,,,2023-08-16_08h34.27.608,HF_wild_card,2022.2.4,MacIntel,55.55555556,55d4e57958c35800113dc3f6,64d2fd46c836a06233681665,64dc7b752f00dfc201b5d4e2,,,,,,,decisionTrl,resources/DB.BMP,resources/DP.BMP,WildCard_NonEx,0.361111111,-0.036666667,1,0,0,1.422,optionRight,45,13535,6,28,0,28,0,1,,,,,,,,,,,,,,,,,,,,,,,,,,,,,,,,,,,,,,,
,,,,,,,,2023-08-16_08h34.27.608,HF_wild_card,2022.2.4,MacIntel,55.55555556,55d4e57958c35800113dc3f6,64d2fd46c836a06233681665,64dc7b752f00dfc201b5d4e2,,,,,,,decisionTrl,resources/DB.BMP,resources/DY.BMP,Door2,-0.373333333,-0.04,1,0,0,1.571,optionLeft,20,13555,6,29,0,29,0,1,,,,,,,,,,,,,,,,,,,,,,,,,,,,,,,,,,,,,,,
,,,,,,,,2023-08-16_08h34.27.608,HF_wild_card,2022.2.4,MacIntel,55.55555556,55d4e57958c35800113dc3f6,64d2fd46c836a06233681665,64dc7b752f00dfc201b5d4e2,,,,,,,sngl,resources/DR.BMP,resources/Empty.png,Door3,-0.423333333,-0.037777778,1,0,0,0.717,optionLeft,70,13625,6,30,0,30,0,1,,,,,,,,,,,,,,,,,,,,,,,,,,,,,,,,,,,,,,,
,,,,,,,,2023-08-16_08h34.27.608,HF_wild_card,2022.2.4,MacIntel,55.55555556,55d4e57958c35800113dc3f6,64d2fd46c836a06233681665,64dc7b752f00dfc201b5d4e2,,,,,,,ctch,resources/DY.BMP,resources/DBN.BMP,Door4,0.386666667,-0.021111111,1,0,0,1.17,optionRight,80,13705,6,31,0,31,0,1,,,,,,,,,,,,,,,,,,,,,,,,,,,,,,,,,,,,,,,
,,,,,,,,2023-08-16_08h34.27.608,HF_wild_card,2022.2.4,MacIntel,55.55555556,55d4e57958c35800113dc3f6,64d2fd46c836a06233681665,64dc7b752f00dfc201b5d4e2,,,,,,,decisionTrl,resources/DB.BMP,resources/DY.BMP,Door2,-0.398888889,-0.012222222,1,0,0,0.951,optionLeft,40,13745,6,32,0,32,0,1,,,,,,,,,,,,,,,,,,,,,,,,,,,,,,,,,,,,,,,
,,,,,,,,2023-08-16_08h34.27.608,HF_wild_card,2022.2.4,MacIntel,55.55555556,55d4e57958c35800113dc3f6,64d2fd46c836a06233681665,64dc7b752f00dfc201b5d4e2,,,,,,,ctch,resources/DY.BMP,resources/DBN.BMP,Door4,0.4,0.008888889,1,0,0,0.852,optionRight,60,13805,6,33,0,33,0,1,,,,,,,,,,,,,,,,,,,,,,,,,,,,,,,,,,,,,,,
,,,,,,,,2023-08-16_08h34.27.608,HF_wild_card,2022.2.4,MacIntel,55.55555556,55d4e57958c35800113dc3f6,64d2fd46c836a06233681665,64dc7b752f00dfc201b5d4e2,,,,,,,ctch,resources/DB.BMP,resources/DR.BMP,Door3,0.371111111,-0.014444444,1,0,0,1.538,optionRight,70,13875,6,34,0,34,0,1,,,,,,,,,,,,,,,,,,,,,,,,,,,,,,,,,,,,,,,
,,,,,,,,2023-08-16_08h34.27.608,HF_wild_card,2022.2.4,MacIntel,55.55555556,55d4e57958c35800113dc3f6,64d2fd46c836a06233681665,64dc7b752f00dfc201b5d4e2,,,,,,,decisionTrl,resources/DY.BMP,resources/DB.BMP,Door2,0.388888889,-0.012222222,1,0,0,1.856,optionRight,20,13895,6,35,0,35,0,1,,,,,,,,,,,,,,,,,,,,,,,,,,,,,,,,,,,,,,,
,,,,,,,,2023-08-16_08h34.27.608,HF_wild_card,2022.2.4,MacIntel,55.55555556,55d4e57958c35800113dc3f6,64d2fd46c836a06233681665,64dc7b752f00dfc201b5d4e2,,,,,,,sngl,resources/DB.BMP,resources/Empty.png,Door2,-0.354444444,0.005555556,1,0,0,0.766,optionLeft,20,13915,6,36,0,36,0,1,,,,,,,,,,,,,,,,,,,,,,,,,,,,,,,,,,,,,,,
,,,,,,,,2023-08-16_08h34.27.608,HF_wild_card,2022.2.4,MacIntel,55.55555556,55d4e57958c35800113dc3f6,64d2fd46c836a06233681665,64dc7b752f00dfc201b5d4e2,,,,,,,decisionTrl,resources/DP.BMP,resources/DBN.BMP,Door4,0.401111111,0.008888889,1,0,0,1.337,optionRight,80,13995,6,37,0,37,0,1,,,,,,,,,,,,,,,,,,,,,,,,,,,,,,,,,,,,,,,
,,,,,,,,2023-08-16_08h34.27.608,HF_wild_card,2022.2.4,MacIntel,55.55555556,55d4e57958c35800113dc3f6,64d2fd46c836a06233681665,64dc7b752f00dfc201b5d4e2,,,,,,,sngl,resources/Empty.png,resources/DB.BMP,Door2,0.326666667,-0.031111111,1,0,0,0.767,optionRight,40,14035,6,38,0,38,0,1,,,,,,,,,,,,,,,,,,,,,,,,,,,,,,,,,,,,,,,
,,,,,,,,2023-08-16_08h34.27.608,HF_wild_card,2022.2.4,MacIntel,55.55555556,55d4e57958c35800113dc3f6,64d2fd46c836a06233681665,64dc7b752f00dfc201b5d4e2,,,,,,,decisionTrl,resources/DB.BMP,resources/DY.BMP,Door2,-0.337777778,-0.002222222,1,0,0,2.542,optionLeft,20,14055,6,39,0,39,0,1,,,,,,,,,,,,,,,,,,,,,,,,,,,,,,,,,,,,,,,
,,,,,,,,2023-08-16_08h34.27.608,HF_wild_card,2022.2.4,MacIntel,55.55555556,55d4e57958c35800113dc3f6,64d2fd46c836a06233681665,64dc7b752f00dfc201b5d4e2,,,,,,,ctch,resources/DBN.BMP,resources/DY.BMP,Door4,-0.366666667,0.002222222,1,0,0,1.405,optionLeft,60,14115,6,40,0,40,0,1,,,,,,,,,,,,,,,,,,,,,,,,,,,,,,,,,,,,,,,
,,,,,,,,2023-08-16_08h34.27.608,HF_wild_card,2022.2.4,MacIntel,55.55555556,55d4e57958c35800113dc3f6,64d2fd46c836a06233681665,64dc7b752f00dfc201b5d4e2,,,,,,,decisionTrl,resources/DBN.BMP,resources/DP.BMP,Door4,-0.362222222,0.026666667,1,0,0,1.838,optionLeft,80,14195,6,41,0,41,0,1,,,,,,,,,,,,,,,,,,,,,,,,,,,,,,,,,,,,,,,
,,,,,,,,2023-08-16_08h34.27.608,HF_wild_card,2022.2.4,MacIntel,55.55555556,55d4e57958c35800113dc3f6,64d2fd46c836a06233681665,64dc7b752f00dfc201b5d4e2,,,,,,,decisionTrl,resources/DY.BMP,resources/DB.BMP,Door2,0.334444444,-0.023333333,1,0,0,1.405,optionRight,40,14235,6,42,0,42,0,1,,,,,,,,,,,,,,,,,,,,,,,,,,,,,,,,,,,,,,,
,,,,,,,,2023-08-16_08h34.27.608,HF_wild_card,2022.2.4,MacIntel,55.55555556,55d4e57958c35800113dc3f6,64d2fd46c836a06233681665,64dc7b752f00dfc201b5d4e2,,,,,,,decisionTrl,resources/DR.BMP,resources/DBN.BMP,Door3,-0.441111111,-0.017777778,1,0,0,2.545,optionLeft,70,14305,6,43,0,43,0,1,,,,,,,,,,,,,,,,,,,,,,,,,,,,,,,,,,,,,,,
,,,,,,,,2023-08-16_08h34.27.608,HF_wild_card,2022.2.4,MacIntel,55.55555556,55d4e57958c35800113dc3f6,64d2fd46c836a06233681665,64dc7b752f00dfc201b5d4e2,,,,,,,,,,,,,,,,,,,,,,,,,,5,0,5,0,1,,,,,,,,,,,,,,,,,,,,,,,,,,,,,,,,,,
,,,,,,,,2023-08-16_08h34.27.608,HF_wild_card,2022.2.4,MacIntel,55.55555556,55d4e57958c35800113dc3f6,64d2fd46c836a06233681665,64dc7b752f00dfc201b5d4e2,,,,,,,decisionTrl,resources/DBN.BMP,resources/DR.BMP,Door3,0.364444444,-0.02,1,0,0,1.819,optionRight,70,14375,7,0,0,0,0,1,,,,,,,,,,,,,,,,,,,,,,,,,,,,,,,,,,,,,,,
,,,,,,,,2023-08-16_08h34.27.608,HF_wild_card,2022.2.4,MacIntel,55.55555556,55d4e57958c35800113dc3f6,64d2fd46c836a06233681665,64dc7b752f00dfc201b5d4e2,,,,,,,decisionTrl,resources/DB.BMP,resources/DY.BMP,Door2,-0.358888889,-0.023333333,1,0,0,2.761,optionLeft,40,14415,7,1,0,1,0,1,,,,,,,,,,,,,,,,,,,,,,,,,,,,,,,,,,,,,,,
,,,,,,,,2023-08-16_08h34.27.608,HF_wild_card,2022.2.4,MacIntel,55.55555556,55d4e57958c35800113dc3f6,64d2fd46c836a06233681665,64dc7b752f00dfc201b5d4e2,,,,,,,ctch,resources/DBN.BMP,resources/DY.BMP,Door4,-0.403333333,0.02,1,0,0,1.071,optionLeft,60,14475,7,2,0,2,0,1,,,,,,,,,,,,,,,,,,,,,,,,,,,,,,,,,,,,,,,
,,,,,,,,2023-08-16_08h34.27.608,HF_wild_card,2022.2.4,MacIntel,55.55555556,55d4e57958c35800113dc3f6,64d2fd46c836a06233681665,64dc7b752f00dfc201b5d4e2,,,,,,,decisionTrl,resources/DY.BMP,resources/DB.BMP,Door2,0.372222222,-0.034444444,1,0,0,1.522,optionRight,40,14515,7,3,0,3,0,1,,,,,,,,,,,,,,,,,,,,,,,,,,,,,,,,,,,,,,,
,,,,,,,,2023-08-16_08h34.27.608,HF_wild_card,2022.2.4,MacIntel,55.55555556,55d4e57958c35800113dc3f6,64d2fd46c836a06233681665,64dc7b752f00dfc201b5d4e2,,,,,,,ctch,resources/DB.BMP,resources/DR.BMP,Door3,0.403333333,0.005555556,1,0,0,1.607,optionRight,70,14585,7,4,0,4,0,1,,,,,,,,,,,,,,,,,,,,,,,,,,,,,,,,,,,,,,,
,,,,,,,,2023-08-16_08h34.27.608,HF_wild_card,2022.2.4,MacIntel,55.55555556,55d4e57958c35800113dc3f6,64d2fd46c836a06233681665,64dc7b752f00dfc201b5d4e2,,,,,,,decisionTrl,resources/DR.BMP,resources/DBN.BMP,Door3,-0.325555556,-0.004444444,1,0,0,1.003,optionLeft,70,14655,7,5,0,5,0,1,,,,,,,,,,,,,,,,,,,,,,,,,,,,,,,,,,,,,,,
,,,,,,,,2023-08-16_08h34.27.608,HF_wild_card,2022.2.4,MacIntel,55.55555556,55d4e57958c35800113dc3f6,64d2fd46c836a06233681665,64dc7b752f00dfc201b5d4e2,,,,,,,ctch,resources/DR.BMP,resources/DB.BMP,Door3,-0.384444444,-0.006666667,1,0,0,0.804,optionLeft,70,14725,7,6,0,6,0,1,,,,,,,,,,,,,,,,,,,,,,,,,,,,,,,,,,,,,,,
,,,,,,,,2023-08-16_08h34.27.608,HF_wild_card,2022.2.4,MacIntel,55.55555556,55d4e57958c35800113dc3f6,64d2fd46c836a06233681665,64dc7b752f00dfc201b5d4e2,,,,,,,decisionTrl,resources/DBN.BMP,resources/DR.BMP,Door3,0.342222222,-0.037777778,1,0,0,0.936,optionRight,70,14795,7,7,0,7,0,1,,,,,,,,,,,,,,,,,,,,,,,,,,,,,,,,,,,,,,,
,,,,,,,,2023-08-16_08h34.27.608,HF_wild_card,2022.2.4,MacIntel,55.55555556,55d4e57958c35800113dc3f6,64d2fd46c836a06233681665,64dc7b752f00dfc201b5d4e2,,,,,,,decisionTrl,resources/DB.BMP,resources/DY.BMP,Door2,-0.396666667,-0.011111111,1,0,0,5.628,optionLeft,20,14815,7,8,0,8,0,1,,,,,,,,,,,,,,,,,,,,,,,,,,,,,,,,,,,,,,,
,,,,,,,,2023-08-16_08h34.27.608,HF_wild_card,2022.2.4,MacIntel,55.55555556,55d4e57958c35800113dc3f6,64d2fd46c836a06233681665,64dc7b752f00dfc201b5d4e2,,,,,,,ctch,resources/DY.BMP,resources/DBN.BMP,Door4,0.393333333,0.002222222,1,0,0,1.005,optionRight,80,14895,7,9,0,9,0,1,,,,,,,,,,,,,,,,,,,,,,,,,,,,,,,,,,,,,,,
,,,,,,,,2023-08-16_08h34.27.608,HF_wild_card,2022.2.4,MacIntel,55.55555556,55d4e57958c35800113dc3f6,64d2fd46c836a06233681665,64dc7b752f00dfc201b5d4e2,,,,,,,decisionTrl,resources/DBN.BMP,resources/DR.BMP,Door3,0.44,-0.027777778,1,0,0,1.855,optionRight,70,14965,7,10,0,10,0,1,,,,,,,,,,,,,,,,,,,,,,,,,,,,,,,,,,,,,,,
,,,,,,,,2023-08-16_08h34.27.608,HF_wild_card,2022.2.4,MacIntel,55.55555556,55d4e57958c35800113dc3f6,64d2fd46c836a06233681665,64dc7b752f00dfc201b5d4e2,,,,,,,decisionTrl,resources/DY.BMP,resources/DB.BMP,Door2,0.383333333,-0.025555556,1,0,0,4.556,optionRight,20,14985,7,11,0,11,0,1,,,,,,,,,,,,,,,,,,,,,,,,,,,,,,,,,,,,,,,
,,,,,,,,2023-08-16_08h34.27.608,HF_wild_card,2022.2.4,MacIntel,55.55555556,55d4e57958c35800113dc3f6,64d2fd46c836a06233681665,64dc7b752f00dfc201b5d4e2,,,,,,,ctch,resources/DB.BMP,resources/DR.BMP,Door3,0.377777778,-0.042222222,1,0,0,1.27,optionRight,70,15055,7,12,0,12,0,1,,,,,,,,,,,,,,,,,,,,,,,,,,,,,,,,,,,,,,,
,,,,,,,,2023-08-16_08h34.27.608,HF_wild_card,2022.2.4,MacIntel,55.55555556,55d4e57958c35800113dc3f6,64d2fd46c836a06233681665,64dc7b752f00dfc201b5d4e2,,,,,,,decisionTrl,resources/DBN.BMP,resources/DR.BMP,Door3,0.368888889,-0.003333333,1,0,0,2.11,optionRight,70,15125,7,13,0,13,0,1,,,,,,,,,,,,,,,,,,,,,,,,,,,,,,,,,,,,,,,
,,,,,,,,2023-08-16_08h34.27.608,HF_wild_card,2022.2.4,MacIntel,55.55555556,55d4e57958c35800113dc3f6,64d2fd46c836a06233681665,64dc7b752f00dfc201b5d4e2,,,,,,,decisionTrl,resources/DR.BMP,resources/DBN.BMP,Door3,-0.403333333,-0.012222222,1,0,0,1.121,optionLeft,70,15195,7,14,0,14,0,1,,,,,,,,,,,,,,,,,,,,,,,,,,,,,,,,,,,,,,,
,,,,,,,,2023-08-16_08h34.27.608,HF_wild_card,2022.2.4,MacIntel,55.55555556,55d4e57958c35800113dc3f6,64d2fd46c836a06233681665,64dc7b752f00dfc201b5d4e2,,,,,,,ctch,resources/DY.BMP,resources/DBN.BMP,Door4,0.386666667,-0.005555556,1,0,0,0.837,optionRight,60,15255,7,15,0,15,0,1,,,,,,,,,,,,,,,,,,,,,,,,,,,,,,,,,,,,,,,
,,,,,,,,2023-08-16_08h34.27.608,HF_wild_card,2022.2.4,MacIntel,55.55555556,55d4e57958c35800113dc3f6,64d2fd46c836a06233681665,64dc7b752f00dfc201b5d4e2,,,,,,,ctch,resources/DBN.BMP,resources/DY.BMP,Door4,-0.398888889,-0.003333333,1,0,0,0.836,optionLeft,60,15315,7,16,0,16,0,1,,,,,,,,,,,,,,,,,,,,,,,,,,,,,,,,,,,,,,,
,,,,,,,,2023-08-16_08h34.27.608,HF_wild_card,2022.2.4,MacIntel,55.55555556,55d4e57958c35800113dc3f6,64d2fd46c836a06233681665,64dc7b752f00dfc201b5d4e2,,,,,,,decisionTrl,resources/DBN.BMP,resources/DR.BMP,Door3,0.434444444,-0.021111111,1,0,0,1.575,optionRight,70,15385,7,17,0,17,0,1,,,,,,,,,,,,,,,,,,,,,,,,,,,,,,,,,,,,,,,
,,,,,,,,2023-08-16_08h34.27.608,HF_wild_card,2022.2.4,MacIntel,55.55555556,55d4e57958c35800113dc3f6,64d2fd46c836a06233681665,64dc7b752f00dfc201b5d4e2,,,,,,,decisionTrl,resources/DBN.BMP,resources/DR.BMP,Door3,0.398888889,-0.026666667,1,0,0,1.659,optionRight,70,15455,7,18,0,18,0,1,,,,,,,,,,,,,,,,,,,,,,,,,,,,,,,,,,,,,,,
,,,,,,,,2023-08-16_08h34.27.608,HF_wild_card,2022.2.4,MacIntel,55.55555556,55d4e57958c35800113dc3f6,64d2fd46c836a06233681665,64dc7b752f00dfc201b5d4e2,,,,,,,decisionTrl,resources/DY.BMP,resources/DB.BMP,Door2,0.348888889,-0.014444444,1,0,0,2.946,optionRight,20,15475,7,19,0,19,0,1,,,,,,,,,,,,,,,,,,,,,,,,,,,,,,,,,,,,,,,
,,,,,,,,2023-08-16_08h34.27.608,HF_wild_card,2022.2.4,MacIntel,55.55555556,55d4e57958c35800113dc3f6,64d2fd46c836a06233681665,64dc7b752f00dfc201b5d4e2,,,,,,,ctch,resources/DR.BMP,resources/DB.BMP,Door2,0.401111111,-0.023333333,1,0,0,1.071,optionRight,40,15515,7,20,0,20,0,1,,,,,,,,,,,,,,,,,,,,,,,,,,,,,,,,,,,,,,,
,,,,,,,,2023-08-16_08h34.27.608,HF_wild_card,2022.2.4,MacIntel,55.55555556,55d4e57958c35800113dc3f6,64d2fd46c836a06233681665,64dc7b752f00dfc201b5d4e2,,,,,,,decisionTrl,resources/DR.BMP,resources/DBN.BMP,Door3,-0.426666667,0.016666667,1,0,0,1.087,optionLeft,70,15585,7,21,0,21,0,1,,,,,,,,,,,,,,,,,,,,,,,,,,,,,,,,,,,,,,,
,,,,,,,,2023-08-16_08h34.27.608,HF_wild_card,2022.2.4,MacIntel,55.55555556,55d4e57958c35800113dc3f6,64d2fd46c836a06233681665,64dc7b752f00dfc201b5d4e2,,,,,,,decisionTrl,resources/DB.BMP,resources/DY.BMP,Door2,-0.348888889,-0.013333333,1,0,0,1.724,optionLeft,40,15625,7,22,0,22,0,1,,,,,,,,,,,,,,,,,,,,,,,,,,,,,,,,,,,,,,,
,,,,,,,,2023-08-16_08h34.27.608,HF_wild_card,2022.2.4,MacIntel,55.55555556,55d4e57958c35800113dc3f6,64d2fd46c836a06233681665,64dc7b752f00dfc201b5d4e2,,,,,,,decisionTrl,resources/DR.BMP,resources/DBN.BMP,Door3,-0.366666667,-0.023333333,1,0,0,1.473,optionLeft,70,15695,7,23,0,23,0,1,,,,,,,,,,,,,,,,,,,,,,,,,,,,,,,,,,,,,,,
,,,,,,,,2023-08-16_08h34.27.608,HF_wild_card,2022.2.4,MacIntel,55.55555556,55d4e57958c35800113dc3f6,64d2fd46c836a06233681665,64dc7b752f00dfc201b5d4e2,,,,,,,decisionTrl,resources/DB.BMP,resources/DY.BMP,Door2,-0.333333333,-0.031111111,1,0,0,1.959,optionLeft,40,15735,7,24,0,24,0,1,,,,,,,,,,,,,,,,,,,,,,,,,,,,,,,,,,,,,,,
,,,,,,,,2023-08-16_08h34.27.608,HF_wild_card,2022.2.4,MacIntel,55.55555556,55d4e57958c35800113dc3f6,64d2fd46c836a06233681665,64dc7b752f00dfc201b5d4e2,,,,,,,decisionTrl,resources/DR.BMP,resources/DBN.BMP,Door3,-0.368888889,-0.033333333,1,0,0,1.271,optionLeft,70,15805,7,25,0,25,0,1,,,,,,,,,,,,,,,,,,,,,,,,,,,,,,,,,,,,,,,
,,,,,,,,2023-08-16_08h34.27.608,HF_wild_card,2022.2.4,MacIntel,55.55555556,55d4e57958c35800113dc3f6,64d2fd46c836a06233681665,64dc7b752f00dfc201b5d4e2,,,,,,,decisionTrl,resources/DB.BMP,resources/DY.BMP,Door2,-0.318888889,-0.018888889,1,0,0,2.814,optionLeft,40,15845,7,26,0,26,0,1,,,,,,,,,,,,,,,,,,,,,,,,,,,,,,,,,,,,,,,
,,,,,,,,2023-08-16_08h34.27.608,HF_wild_card,2022.2.4,MacIntel,55.55555556,55d4e57958c35800113dc3f6,64d2fd46c836a06233681665,64dc7b752f00dfc201b5d4e2,,,,,,,decisionTrl,resources/DY.BMP,resources/DB.BMP,Door2,0.287777778,-0.031111111,1,0,0,1.187,optionRight,40,15885,7,27,0,27,0,1,,,,,,,,,,,,,,,,,,,,,,,,,,,,,,,,,,,,,,,
,,,,,,,,2023-08-16_08h34.27.608,HF_wild_card,2022.2.4,MacIntel,55.55555556,55d4e57958c35800113dc3f6,64d2fd46c836a06233681665,64dc7b752f00dfc201b5d4e2,,,,,,,ctch,resources/DY.BMP,resources/DBN.BMP,Door4,0.377777778,0.022222222,1,0,0,1.205,optionRight,80,15965,7,28,0,28,0,1,,,,,,,,,,,,,,,,,,,,,,,,,,,,,,,,,,,,,,,
,,,,,,,,2023-08-16_08h34.27.608,HF_wild_card,2022.2.4,MacIntel,55.55555556,55d4e57958c35800113dc3f6,64d2fd46c836a06233681665,64dc7b752f00dfc201b5d4e2,,,,,,,ctch,resources/DBN.BMP,resources/DY.BMP,Door4,-0.38,0.004444444,1,0,0,0.853,optionLeft,60,16025,7,29,0,29,0,1,,,,,,,,,,,,,,,,,,,,,,,,,,,,,,,,,,,,,,,
,,,,,,,,2023-08-16_08h34.27.608,HF_wild_card,2022.2.4,MacIntel,55.55555556,55d4e57958c35800113dc3f6,64d2fd46c836a06233681665,64dc7b752f00dfc201b5d4e2,,,,,,,decisionTrl,resources/DB.BMP,resources/DY.BMP,Door2,-0.341111111,-0.022222222,1,0,0,1.306,optionLeft,20,16045,7,30,0,30,0,1,,,,,,,,,,,,,,,,,,,,,,,,,,,,,,,,,,,,,,,
,,,,,,,,2023-08-16_08h34.27.608,HF_wild_card,2022.2.4,MacIntel,55.55555556,55d4e57958c35800113dc3f6,64d2fd46c836a06233681665,64dc7b752f00dfc201b5d4e2,,,,,,,ctch,resources/DB.BMP,resources/DR.BMP,Door3,0.373333333,-0.063333333,1,0,0,1.036,optionRight,70,16115,7,31,0,31,0,1,,,,,,,,,,,,,,,,,,,,,,,,,,,,,,,,,,,,,,,
,,,,,,,,2023-08-16_08h34.27.608,HF_wild_card,2022.2.4,MacIntel,55.55555556,55d4e57958c35800113dc3f6,64d2fd46c836a06233681665,64dc7b752f00dfc201b5d4e2,,,,,,,ctch,resources/DR.BMP,resources/DB.BMP,Door3,-0.343333333,-0.015555556,1,0,0,1.237,optionLeft,70,16185,7,32,0,32,0,1,,,,,,,,,,,,,,,,,,,,,,,,,,,,,,,,,,,,,,,
,,,,,,,,2023-08-16_08h34.27.608,HF_wild_card,2022.2.4,MacIntel,55.55555556,55d4e57958c35800113dc3f6,64d2fd46c836a06233681665,64dc7b752f00dfc201b5d4e2,,,,,,,decisionTrl,resources/DY.BMP,resources/DB.BMP,Door2,0.318888889,-0.057777778,1,0,0,1.203,optionRight,40,16225,7,33,0,33,0,1,,,,,,,,,,,,,,,,,,,,,,,,,,,,,,,,,,,,,,,
,,,,,,,,2023-08-16_08h34.27.608,HF_wild_card,2022.2.4,MacIntel,55.55555556,55d4e57958c35800113dc3f6,64d2fd46c836a06233681665,64dc7b752f00dfc201b5d4e2,,,,,,,decisionTrl,resources/DR.BMP,resources/DBN.BMP,Door3,-0.326666667,-0.044444444,1,0,0,1.422,optionLeft,70,16295,7,34,0,34,0,1,,,,,,,,,,,,,,,,,,,,,,,,,,,,,,,,,,,,,,,
,,,,,,,,2023-08-16_08h34.27.608,HF_wild_card,2022.2.4,MacIntel,55.55555556,55d4e57958c35800113dc3f6,64d2fd46c836a06233681665,64dc7b752f00dfc201b5d4e2,,,,,,,decisionTrl,resources/DY.BMP,resources/DB.BMP,Door2,0.325555556,-0.003333333,1,0,0,0.969,optionRight,20,16315,7,35,0,35,0,1,,,,,,,,,,,,,,,,,,,,,,,,,,,,,,,,,,,,,,,
,,,,,,,,2023-08-16_08h34.27.608,HF_wild_card,2022.2.4,MacIntel,55.55555556,55d4e57958c35800113dc3f6,64d2fd46c836a06233681665,64dc7b752f00dfc201b5d4e2,,,,,,,,,,,,,,,,,,,,,,,,,,6,0,6,0,1,,,,,,,,,,,,,,,,,,,,,,,,,,,,,,,,,,
,,,,,,,,2023-08-16_08h34.27.608,HF_wild_card,2022.2.4,MacIntel,55.55555556,55d4e57958c35800113dc3f6,64d2fd46c836a06233681665,64dc7b752f00dfc201b5d4e2,,,,,,,,,,,,,,,,,,,,,,,,,,,,,,,4,,,,,,,,,,,,,,,,,,,,,,,,,,,,,,,,,
,,,,,,,,2023-08-16_08h34.27.608,HF_wild_card,2022.2.4,MacIntel,55.55555556,55d4e57958c35800113dc3f6,64d2fd46c836a06233681665,64dc7b752f00dfc201b5d4e2,,,,,,,,,,,,,,,,,,,,,,,,,,,,,,,,,,,,,,,,,,,,,,,,,,,,,,,,,,,,,,,,
,,,,,,,,2023-08-16_08h34.27.608,HF_wild_card,2022.2.4,MacIntel,55.55555556,55d4e57958c35800113dc3f6,64d2fd46c836a06233681665,64dc7b752f00dfc201b5d4e2,,,,,,,,,,,,,,,,,,,,,,,,,,,,,,,,70,Door3,resources/DR.BMP,0,0,0,0,1,,,,,,,,,,,,,,,,,,,,,,,,,
,,,,,,,,2023-08-16_08h34.27.608,HF_wild_card,2022.2.4,MacIntel,55.55555556,55d4e57958c35800113dc3f6,64d2fd46c836a06233681665,64dc7b752f00dfc201b5d4e2,,,,,,,,,,,,,,,,,,,,,,,,,,,,,,,,40,Door2,resources/DB.BMP,1,0,1,0,1,,,,,,,,,,,,,,,,,,,,,,,,,
,,,,,,,,2023-08-16_08h34.27.608,HF_wild_card,2022.2.4,MacIntel,55.55555556,55d4e57958c35800113dc3f6,64d2fd46c836a06233681665,64dc7b752f00dfc201b5d4e2,,,,,,,,,,,,,,,,,,,,,,,,,,,,,,,,80,Door4,resources/DBN.BMP,2,0,2,0,1,,,,,,,,,,,,,,,,,,,,,,,,,
,,,,,,,,2023-08-16_08h34.27.608,HF_wild_card,2022.2.4,MacIntel,55.55555556,55d4e57958c35800113dc3f6,64d2fd46c836a06233681665,64dc7b752f00dfc201b5d4e2,,,,,,,,,,,,,,,,,,,,,,,,,,,,,,,,30,Door1,resources/DY.BMP,3,0,3,0,1,,,,,,,,,,,,,,,,,,,,,,,,,
,,,,,,,,2023-08-16_08h34.27.608,HF_wild_card,2022.2.4,MacIntel,55.55555556,55d4e57958c35800113dc3f6,64d2fd46c836a06233681665,64dc7b752f00dfc201b5d4e2,,,,,,,,,,,,,,,,,,,,,,,,,,,,,,,,5,WC_extreme,resources/DG.BMP,4,0,4,0,1,,,,,,,,,,,,,,,,,,,,,,,,,
,,,,,,,,2023-08-16_08h34.27.608,HF_wild_card,2022.2.4,MacIntel,55.55555556,55d4e57958c35800113dc3f6,64d2fd46c836a06233681665,64dc7b752f00dfc201b5d4e2,,,,,,,,,,,,,,,,,,,,,,,,,,,,,,,,45,WC_nonExtreme,resources/DP.BMP,5,0,5,0,1,,,,,,,,,,,,,,,,,,,,,,,,,
