Condition,Low fixed image (Door1),Low risky image (Door2),High fixed image (Door3),High risky image (Door4),Extreme Wild Card,NonExtreme Wild Card,,date,expName,psychopyVersion,OS,frameRate,PROLIFIC_PID,STUDY_ID,SESSION_ID,mouse_2.x,mouse_2.y,mouse_2.leftButton,mouse_2.midButton,mouse_2.rightButton,mouse_2.clicked_name,Trial Type,Left Option Image,Right Option Image,Chosen Door,mouse.x,mouse.y,mouse.leftButton,mouse.midButton,mouse.rightButton,mouse.time,mouse.clicked_name,Feedback,Cumulative Reward,Block,trial.thisRepN,trial.thisTrialN,trial.thisN,trial.thisIndex,trial.ran,blocks.thisRepN,blocks.thisTrialN,blocks.thisN,blocks.thisIndex,blocks.ran,Money conversion,First Outcome Reported,Shown Door (First Outcome),Displayed Image (First Outcome),outcomes.thisRepN,outcomes.thisTrialN,outcomes.thisN,outcomes.thisIndex,outcomes.ran,judgments.thisRepN,judgments.thisTrialN,judgments.thisN,judgments.thisIndex,judgments.ran,freqMouse.x,freqMouse.y,freqMouse.leftButton,freqMouse.midButton,freqMouse.rightButton,freqMouse.clicked_name,FQJ for first outcome,FQJ for second outcome,Shown Door,Displayed Image,trials.thisRepN,trials.thisTrialN,trials.thisN,trials.thisIndex,trials.ran,judgBlock.thisRepN,judgBlock.thisTrialN,judgBlock.thisN,judgBlock.thisIndex,judgBlock.ran
0,resources/DY.BMP,resources/DG.BMP,resources/DBN.BMP,resources/DP.BMP,resources/DB.BMP,resources/DR.BMP,,2023-08-16_08h38.40.848,HF_wild_card,2022.2.4,Win32,59.99880002,5e9c8fed2d191903edc5d16b,64d2fd46c836a06233681665,64dc7ce6cd581e52bf779d94,,,,,,,,,,,,,,,,,,,,,,,,,,,,,,,,,,,,,,,,,,,,,,,,,,,,,,,,,,,,,,,,
,,,,,,,,2023-08-16_08h38.40.848,HF_wild_card,2022.2.4,Win32,59.99880002,5e9c8fed2d191903edc5d16b,64d2fd46c836a06233681665,64dc7ce6cd581e52bf779d94,0.013020833,-0.41015625,1,0,0,agree,,,,,,,,,,,,,,,,,,,,,,,,,,,,,,,,,,,,,,,,,,,,,,,,,,,,,,,,,,
,,,,,,,,2023-08-16_08h38.40.848,HF_wild_card,2022.2.4,Win32,59.99880002,5e9c8fed2d191903edc5d16b,64d2fd46c836a06233681665,64dc7ce6cd581e52bf779d94,,,,,,,,,,,,,,,,,,,,,,,,,,,,,,,,,,,,,,,,,,,,,,,,,,,,,,,,,,,,,,,,
,,,,,,,,2023-08-16_08h38.40.848,HF_wild_card,2022.2.4,Win32,59.99880002,5e9c8fed2d191903edc5d16b,64d2fd46c836a06233681665,64dc7ce6cd581e52bf779d94,,,,,,,sngl,resources/DBN.BMP,resources/Empty.png,Door3,-0.467447917,-0.216145833,1,0,0,3.3103,optionLeft,70,70,1,0,0,0,0,1,,,,,,,,,,,,,,,,,,,,,,,,,,,,,,,,,,,,,,,
,,,,,,,,2023-08-16_08h38.40.848,HF_wild_card,2022.2.4,Win32,59.99880002,5e9c8fed2d191903edc5d16b,64d2fd46c836a06233681665,64dc7ce6cd581e52bf779d94,,,,,,,decisionTrl,resources/DP.BMP,resources/DBN.BMP,Door3,0.286458333,-0.033854167,1,0,0,5.125,optionRight,70,140,1,1,0,1,0,1,,,,,,,,,,,,,,,,,,,,,,,,,,,,,,,,,,,,,,,
,,,,,,,,2023-08-16_08h38.40.848,HF_wild_card,2022.2.4,Win32,59.99880002,5e9c8fed2d191903edc5d16b,64d2fd46c836a06233681665,64dc7ce6cd581e52bf779d94,,,,,,,decisionTrl,resources/DBN.BMP,resources/DB.BMP,WildCard_Ex,0.302083333,-0.02734375,1,0,0,3.3082,optionRight,5,145,1,2,0,2,0,1,,,,,,,,,,,,,,,,,,,,,,,,,,,,,,,,,,,,,,,
,,,,,,,,2023-08-16_08h38.40.848,HF_wild_card,2022.2.4,Win32,59.99880002,5e9c8fed2d191903edc5d16b,64d2fd46c836a06233681665,64dc7ce6cd581e52bf779d94,,,,,,,ctch,resources/DBN.BMP,resources/DG.BMP,Door2,0.264322917,-0.032552083,1,0,0,1.4664,optionRight,20,165,1,3,0,3,0,1,,,,,,,,,,,,,,,,,,,,,,,,,,,,,,,,,,,,,,,
,,,,,,,,2023-08-16_08h38.40.848,HF_wild_card,2022.2.4,Win32,59.99880002,5e9c8fed2d191903edc5d16b,64d2fd46c836a06233681665,64dc7ce6cd581e52bf779d94,,,,,,,decisionTrl,resources/DY.BMP,resources/DG.BMP,Door1,-0.216145833,-0.041666667,1,0,0,2.4457,optionLeft,30,195,1,4,0,4,0,1,,,,,,,,,,,,,,,,,,,,,,,,,,,,,,,,,,,,,,,
,,,,,,,,2023-08-16_08h38.40.848,HF_wild_card,2022.2.4,Win32,59.99880002,5e9c8fed2d191903edc5d16b,64d2fd46c836a06233681665,64dc7ce6cd581e52bf779d94,,,,,,,decisionTrl,resources/DP.BMP,resources/DBN.BMP,Door3,0.3203125,0.00390625,1,0,0,3.5407,optionRight,70,265,1,5,0,5,0,1,,,,,,,,,,,,,,,,,,,,,,,,,,,,,,,,,,,,,,,
,,,,,,,,2023-08-16_08h38.40.848,HF_wild_card,2022.2.4,Win32,59.99880002,5e9c8fed2d191903edc5d16b,64d2fd46c836a06233681665,64dc7ce6cd581e52bf779d94,,,,,,,sngl,resources/DB.BMP,resources/Empty.png,WildCard_Ex,-0.303385417,-0.01953125,1,0,0,3.2584,optionLeft,5,270,1,6,0,6,0,1,,,,,,,,,,,,,,,,,,,,,,,,,,,,,,,,,,,,,,,
,,,,,,,,2023-08-16_08h38.40.848,HF_wild_card,2022.2.4,Win32,59.99880002,5e9c8fed2d191903edc5d16b,64d2fd46c836a06233681665,64dc7ce6cd581e52bf779d94,,,,,,,decisionTrl,resources/DY.BMP,resources/DB.BMP,Door1,-0.223958333,0.001302083,1,0,0,3.9645,optionLeft,30,300,1,7,0,7,0,1,,,,,,,,,,,,,,,,,,,,,,,,,,,,,,,,,,,,,,,
,,,,,,,,2023-08-16_08h38.40.848,HF_wild_card,2022.2.4,Win32,59.99880002,5e9c8fed2d191903edc5d16b,64d2fd46c836a06233681665,64dc7ce6cd581e52bf779d94,,,,,,,ctch,resources/DG.BMP,resources/DBN.BMP,Door3,0.360677083,-0.00390625,1,0,0,2.2087,optionRight,70,370,1,8,0,8,0,1,,,,,,,,,,,,,,,,,,,,,,,,,,,,,,,,,,,,,,,
,,,,,,,,2023-08-16_08h38.40.848,HF_wild_card,2022.2.4,Win32,59.99880002,5e9c8fed2d191903edc5d16b,64d2fd46c836a06233681665,64dc7ce6cd581e52bf779d94,,,,,,,ctch,resources/DBN.BMP,resources/DG.BMP,Door3,-0.25,-0.015625,1,0,0,2.1601,optionLeft,70,440,1,9,0,9,0,1,,,,,,,,,,,,,,,,,,,,,,,,,,,,,,,,,,,,,,,
,,,,,,,,2023-08-16_08h38.40.848,HF_wild_card,2022.2.4,Win32,59.99880002,5e9c8fed2d191903edc5d16b,64d2fd46c836a06233681665,64dc7ce6cd581e52bf779d94,,,,,,,decisionTrl,resources/DY.BMP,resources/DG.BMP,Door1,-0.236979167,-0.013020833,1,0,0,3.6425,optionLeft,30,470,1,10,0,10,0,1,,,,,,,,,,,,,,,,,,,,,,,,,,,,,,,,,,,,,,,
,,,,,,,,2023-08-16_08h38.40.848,HF_wild_card,2022.2.4,Win32,59.99880002,5e9c8fed2d191903edc5d16b,64d2fd46c836a06233681665,64dc7ce6cd581e52bf779d94,,,,,,,decisionTrl,resources/DB.BMP,resources/DP.BMP,Door4,0.30078125,0.009114583,1,0,0,1.4328,optionRight,80,550,1,11,0,11,0,1,,,,,,,,,,,,,,,,,,,,,,,,,,,,,,,,,,,,,,,
,,,,,,,,2023-08-16_08h38.40.848,HF_wild_card,2022.2.4,Win32,59.99880002,5e9c8fed2d191903edc5d16b,64d2fd46c836a06233681665,64dc7ce6cd581e52bf779d94,,,,,,,sngl,resources/Empty.png,resources/DG.BMP,Door2,0.354166667,0.01171875,1,0,0,1.5267,optionRight,20,570,1,12,0,12,0,1,,,,,,,,,,,,,,,,,,,,,,,,,,,,,,,,,,,,,,,
,,,,,,,,2023-08-16_08h38.40.848,HF_wild_card,2022.2.4,Win32,59.99880002,5e9c8fed2d191903edc5d16b,64d2fd46c836a06233681665,64dc7ce6cd581e52bf779d94,,,,,,,decisionTrl,resources/DB.BMP,resources/DG.BMP,Door2,0.31640625,0.006510417,1,0,0,2.2784,optionRight,40,610,1,13,0,13,0,1,,,,,,,,,,,,,,,,,,,,,,,,,,,,,,,,,,,,,,,
,,,,,,,,2023-08-16_08h38.40.848,HF_wild_card,2022.2.4,Win32,59.99880002,5e9c8fed2d191903edc5d16b,64d2fd46c836a06233681665,64dc7ce6cd581e52bf779d94,,,,,,,decisionTrl,resources/DBN.BMP,resources/DP.BMP,Door3,-0.315104167,-0.001302083,1,0,0,1.7258,optionLeft,70,680,1,14,0,14,0,1,,,,,,,,,,,,,,,,,,,,,,,,,,,,,,,,,,,,,,,
,,,,,,,,2023-08-16_08h38.40.848,HF_wild_card,2022.2.4,Win32,59.99880002,5e9c8fed2d191903edc5d16b,64d2fd46c836a06233681665,64dc7ce6cd581e52bf779d94,,,,,,,decisionTrl,resources/DY.BMP,resources/DG.BMP,Door2,0.37890625,-0.001302083,1,0,0,2.6941,optionRight,20,700,1,15,0,15,0,1,,,,,,,,,,,,,,,,,,,,,,,,,,,,,,,,,,,,,,,
,,,,,,,,2023-08-16_08h38.40.848,HF_wild_card,2022.2.4,Win32,59.99880002,5e9c8fed2d191903edc5d16b,64d2fd46c836a06233681665,64dc7ce6cd581e52bf779d94,,,,,,,decisionTrl,resources/DG.BMP,resources/DY.BMP,Door1,0.279947917,-0.020833333,1,0,0,1.7107,optionRight,30,730,1,16,0,16,0,1,,,,,,,,,,,,,,,,,,,,,,,,,,,,,,,,,,,,,,,
,,,,,,,,2023-08-16_08h38.40.848,HF_wild_card,2022.2.4,Win32,59.99880002,5e9c8fed2d191903edc5d16b,64d2fd46c836a06233681665,64dc7ce6cd581e52bf779d94,,,,,,,ctch,resources/DP.BMP,resources/DY.BMP,Door4,-0.259114583,-0.002604167,1,0,0,1.2594,optionLeft,60,790,1,17,0,17,0,1,,,,,,,,,,,,,,,,,,,,,,,,,,,,,,,,,,,,,,,
,,,,,,,,2023-08-16_08h38.40.848,HF_wild_card,2022.2.4,Win32,59.99880002,5e9c8fed2d191903edc5d16b,64d2fd46c836a06233681665,64dc7ce6cd581e52bf779d94,,,,,,,decisionTrl,resources/DG.BMP,resources/DY.BMP,Door2,-0.20703125,0.00390625,1,0,0,2.0414,optionLeft,20,810,1,18,0,18,0,1,,,,,,,,,,,,,,,,,,,,,,,,,,,,,,,,,,,,,,,
,,,,,,,,2023-08-16_08h38.40.848,HF_wild_card,2022.2.4,Win32,59.99880002,5e9c8fed2d191903edc5d16b,64d2fd46c836a06233681665,64dc7ce6cd581e52bf779d94,,,,,,,decisionTrl,resources/DP.BMP,resources/DBN.BMP,Door3,0.278645833,-0.00390625,1,0,0,3.261,optionRight,70,880,1,19,0,19,0,1,,,,,,,,,,,,,,,,,,,,,,,,,,,,,,,,,,,,,,,
,,,,,,,,2023-08-16_08h38.40.848,HF_wild_card,2022.2.4,Win32,59.99880002,5e9c8fed2d191903edc5d16b,64d2fd46c836a06233681665,64dc7ce6cd581e52bf779d94,,,,,,,decisionTrl,resources/DBN.BMP,resources/DP.BMP,Door4,0.329427083,-0.001302083,1,0,0,3.944,optionRight,60,940,1,20,0,20,0,1,,,,,,,,,,,,,,,,,,,,,,,,,,,,,,,,,,,,,,,
,,,,,,,,2023-08-16_08h38.40.848,HF_wild_card,2022.2.4,Win32,59.99880002,5e9c8fed2d191903edc5d16b,64d2fd46c836a06233681665,64dc7ce6cd581e52bf779d94,,,,,,,decisionTrl,resources/DP.BMP,resources/DBN.BMP,Door4,-0.276041667,-0.0390625,1,0,0,3.5126,optionLeft,80,1020,1,21,0,21,0,1,,,,,,,,,,,,,,,,,,,,,,,,,,,,,,,,,,,,,,,
,,,,,,,,2023-08-16_08h38.40.848,HF_wild_card,2022.2.4,Win32,59.99880002,5e9c8fed2d191903edc5d16b,64d2fd46c836a06233681665,64dc7ce6cd581e52bf779d94,,,,,,,decisionTrl,resources/DP.BMP,resources/DB.BMP,Door4,-0.268229167,-0.024739583,1,0,0,1.3306,optionLeft,80,1100,1,22,0,22,0,1,,,,,,,,,,,,,,,,,,,,,,,,,,,,,,,,,,,,,,,
,,,,,,,,2023-08-16_08h38.40.848,HF_wild_card,2022.2.4,Win32,59.99880002,5e9c8fed2d191903edc5d16b,64d2fd46c836a06233681665,64dc7ce6cd581e52bf779d94,,,,,,,sngl,resources/DP.BMP,resources/Empty.png,Door4,-0.270833333,-0.069010417,1,0,0,1.3617,optionLeft,80,1180,1,23,0,23,0,1,,,,,,,,,,,,,,,,,,,,,,,,,,,,,,,,,,,,,,,
,,,,,,,,2023-08-16_08h38.40.848,HF_wild_card,2022.2.4,Win32,59.99880002,5e9c8fed2d191903edc5d16b,64d2fd46c836a06233681665,64dc7ce6cd581e52bf779d94,,,,,,,decisionTrl,resources/DY.BMP,resources/DG.BMP,Door1,-0.321614583,-0.029947917,1,0,0,2.56,optionLeft,30,1210,1,24,0,24,0,1,,,,,,,,,,,,,,,,,,,,,,,,,,,,,,,,,,,,,,,
,,,,,,,,2023-08-16_08h38.40.848,HF_wild_card,2022.2.4,Win32,59.99880002,5e9c8fed2d191903edc5d16b,64d2fd46c836a06233681665,64dc7ce6cd581e52bf779d94,,,,,,,sngl,resources/DG.BMP,resources/Empty.png,Door2,-0.282552083,-0.049479167,1,0,0,1.0934,optionLeft,40,1250,1,25,0,25,0,1,,,,,,,,,,,,,,,,,,,,,,,,,,,,,,,,,,,,,,,
,,,,,,,,2023-08-16_08h38.40.848,HF_wild_card,2022.2.4,Win32,59.99880002,5e9c8fed2d191903edc5d16b,64d2fd46c836a06233681665,64dc7ce6cd581e52bf779d94,,,,,,,decisionTrl,resources/DG.BMP,resources/DB.BMP,Door2,-0.266927083,-0.03125,1,0,0,6.6084,optionLeft,20,1270,1,26,0,26,0,1,,,,,,,,,,,,,,,,,,,,,,,,,,,,,,,,,,,,,,,
,,,,,,,,2023-08-16_08h38.40.848,HF_wild_card,2022.2.4,Win32,59.99880002,5e9c8fed2d191903edc5d16b,64d2fd46c836a06233681665,64dc7ce6cd581e52bf779d94,,,,,,,sngl,resources/Empty.png,resources/DP.BMP,Door4,0.348958333,-0.052083333,1,0,0,0.8942,optionRight,60,1330,1,27,0,27,0,1,,,,,,,,,,,,,,,,,,,,,,,,,,,,,,,,,,,,,,,
,,,,,,,,2023-08-16_08h38.40.848,HF_wild_card,2022.2.4,Win32,59.99880002,5e9c8fed2d191903edc5d16b,64d2fd46c836a06233681665,64dc7ce6cd581e52bf779d94,,,,,,,ctch,resources/DY.BMP,resources/DP.BMP,Door4,0.315104167,-0.0703125,1,0,0,1.343,optionRight,60,1390,1,28,0,28,0,1,,,,,,,,,,,,,,,,,,,,,,,,,,,,,,,,,,,,,,,
,,,,,,,,2023-08-16_08h38.40.848,HF_wild_card,2022.2.4,Win32,59.99880002,5e9c8fed2d191903edc5d16b,64d2fd46c836a06233681665,64dc7ce6cd581e52bf779d94,,,,,,,sngl,resources/Empty.png,resources/DB.BMP,WildCard_Ex,0.311197917,-0.022135417,1,0,0,1.0301,optionRight,5,1395,1,29,0,29,0,1,,,,,,,,,,,,,,,,,,,,,,,,,,,,,,,,,,,,,,,
,,,,,,,,2023-08-16_08h38.40.848,HF_wild_card,2022.2.4,Win32,59.99880002,5e9c8fed2d191903edc5d16b,64d2fd46c836a06233681665,64dc7ce6cd581e52bf779d94,,,,,,,sngl,resources/Empty.png,resources/DY.BMP,Door1,0.346354167,-0.00390625,1,0,0,1.4436,optionRight,30,1425,1,30,0,30,0,1,,,,,,,,,,,,,,,,,,,,,,,,,,,,,,,,,,,,,,,
,,,,,,,,2023-08-16_08h38.40.848,HF_wild_card,2022.2.4,Win32,59.99880002,5e9c8fed2d191903edc5d16b,64d2fd46c836a06233681665,64dc7ce6cd581e52bf779d94,,,,,,,decisionTrl,resources/DB.BMP,resources/DY.BMP,Door1,0.2890625,-0.015625,1,0,0,1.9994,optionRight,30,1455,1,31,0,31,0,1,,,,,,,,,,,,,,,,,,,,,,,,,,,,,,,,,,,,,,,
,,,,,,,,2023-08-16_08h38.40.848,HF_wild_card,2022.2.4,Win32,59.99880002,5e9c8fed2d191903edc5d16b,64d2fd46c836a06233681665,64dc7ce6cd581e52bf779d94,,,,,,,ctch,resources/DP.BMP,resources/DY.BMP,Door4,-0.263020833,-0.018229167,1,0,0,2.4777,optionLeft,80,1535,1,32,0,32,0,1,,,,,,,,,,,,,,,,,,,,,,,,,,,,,,,,,,,,,,,
,,,,,,,,2023-08-16_08h38.40.848,HF_wild_card,2022.2.4,Win32,59.99880002,5e9c8fed2d191903edc5d16b,64d2fd46c836a06233681665,64dc7ce6cd581e52bf779d94,,,,,,,decisionTrl,resources/DBN.BMP,resources/DP.BMP,Door4,0.291666667,-0.052083333,1,0,0,1.96,optionRight,60,1595,1,33,0,33,0,1,,,,,,,,,,,,,,,,,,,,,,,,,,,,,,,,,,,,,,,
,,,,,,,,2023-08-16_08h38.40.848,HF_wild_card,2022.2.4,Win32,59.99880002,5e9c8fed2d191903edc5d16b,64d2fd46c836a06233681665,64dc7ce6cd581e52bf779d94,,,,,,,sngl,resources/DB.BMP,resources/Empty.png,WildCard_Ex,-0.325520833,-0.0078125,1,0,0,1.2275,optionLeft,95,1690,1,34,0,34,0,1,,,,,,,,,,,,,,,,,,,,,,,,,,,,,,,,,,,,,,,
,,,,,,,,2023-08-16_08h38.40.848,HF_wild_card,2022.2.4,Win32,59.99880002,5e9c8fed2d191903edc5d16b,64d2fd46c836a06233681665,64dc7ce6cd581e52bf779d94,,,,,,,sngl,resources/Empty.png,resources/DBN.BMP,Door3,0.307291667,-0.005208333,1,0,0,1.2085,optionRight,70,1760,1,35,0,35,0,1,,,,,,,,,,,,,,,,,,,,,,,,,,,,,,,,,,,,,,,
,,,,,,,,2023-08-16_08h38.40.848,HF_wild_card,2022.2.4,Win32,59.99880002,5e9c8fed2d191903edc5d16b,64d2fd46c836a06233681665,64dc7ce6cd581e52bf779d94,,,,,,,decisionTrl,resources/DBN.BMP,resources/DP.BMP,Door4,0.31640625,-0.040364583,1,0,0,4.1285,optionRight,60,1820,1,36,0,36,0,1,,,,,,,,,,,,,,,,,,,,,,,,,,,,,,,,,,,,,,,
,,,,,,,,2023-08-16_08h38.40.848,HF_wild_card,2022.2.4,Win32,59.99880002,5e9c8fed2d191903edc5d16b,64d2fd46c836a06233681665,64dc7ce6cd581e52bf779d94,,,,,,,sngl,resources/Empty.png,resources/DB.BMP,WildCard_Ex,0.3359375,-0.010416667,1,0,0,1.2759,optionRight,95,1915,1,37,0,37,0,1,,,,,,,,,,,,,,,,,,,,,,,,,,,,,,,,,,,,,,,
,,,,,,,,2023-08-16_08h38.40.848,HF_wild_card,2022.2.4,Win32,59.99880002,5e9c8fed2d191903edc5d16b,64d2fd46c836a06233681665,64dc7ce6cd581e52bf779d94,,,,,,,decisionTrl,resources/DG.BMP,resources/DY.BMP,Door2,-0.225260417,-0.040364583,1,0,0,2.6114,optionLeft,20,1935,1,38,0,38,0,1,,,,,,,,,,,,,,,,,,,,,,,,,,,,,,,,,,,,,,,
,,,,,,,,2023-08-16_08h38.40.848,HF_wild_card,2022.2.4,Win32,59.99880002,5e9c8fed2d191903edc5d16b,64d2fd46c836a06233681665,64dc7ce6cd581e52bf779d94,,,,,,,sngl,resources/DY.BMP,resources/Empty.png,Door1,-0.157552083,-0.00390625,1,0,0,0.6906,optionLeft,30,1965,1,39,0,39,0,1,,,,,,,,,,,,,,,,,,,,,,,,,,,,,,,,,,,,,,,
,,,,,,,,2023-08-16_08h38.40.848,HF_wild_card,2022.2.4,Win32,59.99880002,5e9c8fed2d191903edc5d16b,64d2fd46c836a06233681665,64dc7ce6cd581e52bf779d94,,,,,,,ctch,resources/DG.BMP,resources/DBN.BMP,Door3,0.330729167,-0.022135417,1,0,0,1.4679,optionRight,70,2035,1,40,0,40,0,1,,,,,,,,,,,,,,,,,,,,,,,,,,,,,,,,,,,,,,,
,,,,,,,,2023-08-16_08h38.40.848,HF_wild_card,2022.2.4,Win32,59.99880002,5e9c8fed2d191903edc5d16b,64d2fd46c836a06233681665,64dc7ce6cd581e52bf779d94,,,,,,,decisionTrl,resources/DG.BMP,resources/DY.BMP,Door1,0.326822917,0.002604167,1,0,0,2.3456,optionRight,30,2065,1,41,0,41,0,1,,,,,,,,,,,,,,,,,,,,,,,,,,,,,,,,,,,,,,,
,,,,,,,,2023-08-16_08h38.40.848,HF_wild_card,2022.2.4,Win32,59.99880002,5e9c8fed2d191903edc5d16b,64d2fd46c836a06233681665,64dc7ce6cd581e52bf779d94,,,,,,,ctch,resources/DY.BMP,resources/DP.BMP,Door4,0.360677083,0.00390625,1,0,0,1.3762,optionRight,80,2145,1,42,0,42,0,1,,,,,,,,,,,,,,,,,,,,,,,,,,,,,,,,,,,,,,,
,,,,,,,,2023-08-16_08h38.40.848,HF_wild_card,2022.2.4,Win32,59.99880002,5e9c8fed2d191903edc5d16b,64d2fd46c836a06233681665,64dc7ce6cd581e52bf779d94,,,,,,,decisionTrl,resources/DB.BMP,resources/DBN.BMP,Door3,0.328125,-0.009114583,1,0,0,1.6431,optionRight,70,2215,1,43,0,43,0,1,,,,,,,,,,,,,,,,,,,,,,,,,,,,,,,,,,,,,,,
,,,,,,,,2023-08-16_08h38.40.848,HF_wild_card,2022.2.4,Win32,59.99880002,5e9c8fed2d191903edc5d16b,64d2fd46c836a06233681665,64dc7ce6cd581e52bf779d94,,,,,,,,,,,,,,,,,,,,,,,,,,0,0,0,0,1,,,,,,,,,,,,,,,,,,,,,,,,,,,,,,,,,,
,,,,,,,,2023-08-16_08h38.40.848,HF_wild_card,2022.2.4,Win32,59.99880002,5e9c8fed2d191903edc5d16b,64d2fd46c836a06233681665,64dc7ce6cd581e52bf779d94,,,,,,,decisionTrl,resources/DG.BMP,resources/DY.BMP,Door1,0.286458333,-0.102864583,1,0,0,5.0722,optionRight,30,2245,2,0,0,0,0,1,,,,,,,,,,,,,,,,,,,,,,,,,,,,,,,,,,,,,,,
,,,,,,,,2023-08-16_08h38.40.848,HF_wild_card,2022.2.4,Win32,59.99880002,5e9c8fed2d191903edc5d16b,64d2fd46c836a06233681665,64dc7ce6cd581e52bf779d94,,,,,,,decisionTrl,resources/DP.BMP,resources/DBN.BMP,Door3,0.352864583,-0.002604167,1,0,0,1.5434,optionRight,70,2315,2,1,0,1,0,1,,,,,,,,,,,,,,,,,,,,,,,,,,,,,,,,,,,,,,,
,,,,,,,,2023-08-16_08h38.40.848,HF_wild_card,2022.2.4,Win32,59.99880002,5e9c8fed2d191903edc5d16b,64d2fd46c836a06233681665,64dc7ce6cd581e52bf779d94,,,,,,,decisionTrl,resources/DBN.BMP,resources/DP.BMP,Door3,-0.309895833,0.0078125,1,0,0,2.0241,optionLeft,70,2385,2,2,0,2,0,1,,,,,,,,,,,,,,,,,,,,,,,,,,,,,,,,,,,,,,,
,,,,,,,,2023-08-16_08h38.40.848,HF_wild_card,2022.2.4,Win32,59.99880002,5e9c8fed2d191903edc5d16b,64d2fd46c836a06233681665,64dc7ce6cd581e52bf779d94,,,,,,,decisionTrl,resources/DY.BMP,resources/DG.BMP,Door1,-0.174479167,0.01171875,1,0,0,2.5454,optionLeft,30,2415,2,3,0,3,0,1,,,,,,,,,,,,,,,,,,,,,,,,,,,,,,,,,,,,,,,
,,,,,,,,2023-08-16_08h38.40.848,HF_wild_card,2022.2.4,Win32,59.99880002,5e9c8fed2d191903edc5d16b,64d2fd46c836a06233681665,64dc7ce6cd581e52bf779d94,,,,,,,decisionTrl,resources/DB.BMP,resources/DG.BMP,Door2,0.415364583,0.00390625,1,0,0,1.4947,optionRight,20,2435,2,4,0,4,0,1,,,,,,,,,,,,,,,,,,,,,,,,,,,,,,,,,,,,,,,
,,,,,,,,2023-08-16_08h38.40.848,HF_wild_card,2022.2.4,Win32,59.99880002,5e9c8fed2d191903edc5d16b,64d2fd46c836a06233681665,64dc7ce6cd581e52bf779d94,,,,,,,decisionTrl,resources/DB.BMP,resources/DY.BMP,Door1,0.385416667,-0.005208333,1,0,0,1.4291,optionRight,30,2465,2,5,0,5,0,1,,,,,,,,,,,,,,,,,,,,,,,,,,,,,,,,,,,,,,,
,,,,,,,,2023-08-16_08h38.40.848,HF_wild_card,2022.2.4,Win32,59.99880002,5e9c8fed2d191903edc5d16b,64d2fd46c836a06233681665,64dc7ce6cd581e52bf779d94,,,,,,,sngl,resources/Empty.png,resources/DBN.BMP,Door3,0.328125,0.0078125,1,0,0,0.8446,optionRight,70,2535,2,6,0,6,0,1,,,,,,,,,,,,,,,,,,,,,,,,,,,,,,,,,,,,,,,
,,,,,,,,2023-08-16_08h38.40.848,HF_wild_card,2022.2.4,Win32,59.99880002,5e9c8fed2d191903edc5d16b,64d2fd46c836a06233681665,64dc7ce6cd581e52bf779d94,,,,,,,decisionTrl,resources/DG.BMP,resources/DY.BMP,Door1,0.204427083,-0.020833333,1,0,0,4.9938,optionRight,30,2565,2,7,0,7,0,1,,,,,,,,,,,,,,,,,,,,,,,,,,,,,,,,,,,,,,,
,,,,,,,,2023-08-16_08h38.40.848,HF_wild_card,2022.2.4,Win32,59.99880002,5e9c8fed2d191903edc5d16b,64d2fd46c836a06233681665,64dc7ce6cd581e52bf779d94,,,,,,,sngl,resources/DB.BMP,resources/Empty.png,WildCard_Ex,-0.2734375,0.00390625,1,0,0,0.8092,optionLeft,5,2570,2,8,0,8,0,1,,,,,,,,,,,,,,,,,,,,,,,,,,,,,,,,,,,,,,,
,,,,,,,,2023-08-16_08h38.40.848,HF_wild_card,2022.2.4,Win32,59.99880002,5e9c8fed2d191903edc5d16b,64d2fd46c836a06233681665,64dc7ce6cd581e52bf779d94,,,,,,,decisionTrl,resources/DY.BMP,resources/DG.BMP,Door1,-0.166666667,0.002604167,1,0,0,2.109,optionLeft,30,2600,2,9,0,9,0,1,,,,,,,,,,,,,,,,,,,,,,,,,,,,,,,,,,,,,,,
,,,,,,,,2023-08-16_08h38.40.848,HF_wild_card,2022.2.4,Win32,59.99880002,5e9c8fed2d191903edc5d16b,64d2fd46c836a06233681665,64dc7ce6cd581e52bf779d94,,,,,,,ctch,resources/DG.BMP,resources/DBN.BMP,Door3,0.303385417,0.013020833,1,0,0,2.4102,optionRight,70,2670,2,10,0,10,0,1,,,,,,,,,,,,,,,,,,,,,,,,,,,,,,,,,,,,,,,
,,,,,,,,2023-08-16_08h38.40.848,HF_wild_card,2022.2.4,Win32,59.99880002,5e9c8fed2d191903edc5d16b,64d2fd46c836a06233681665,64dc7ce6cd581e52bf779d94,,,,,,,decisionTrl,resources/DBN.BMP,resources/DP.BMP,Door3,-0.2890625,0,1,0,0,2.3994,optionLeft,70,2740,2,11,0,11,0,1,,,,,,,,,,,,,,,,,,,,,,,,,,,,,,,,,,,,,,,
,,,,,,,,2023-08-16_08h38.40.848,HF_wild_card,2022.2.4,Win32,59.99880002,5e9c8fed2d191903edc5d16b,64d2fd46c836a06233681665,64dc7ce6cd581e52bf779d94,,,,,,,ctch,resources/DBN.BMP,resources/DG.BMP,Door3,-0.356770833,0.00390625,1,0,0,2.3752,optionLeft,70,2810,2,12,0,12,0,1,,,,,,,,,,,,,,,,,,,,,,,,,,,,,,,,,,,,,,,
,,,,,,,,2023-08-16_08h38.40.848,HF_wild_card,2022.2.4,Win32,59.99880002,5e9c8fed2d191903edc5d16b,64d2fd46c836a06233681665,64dc7ce6cd581e52bf779d94,,,,,,,decisionTrl,resources/DY.BMP,resources/DG.BMP,Door2,0.276041667,0,1,0,0,2.4772,optionRight,20,2830,2,13,0,13,0,1,,,,,,,,,,,,,,,,,,,,,,,,,,,,,,,,,,,,,,,
,,,,,,,,2023-08-16_08h38.40.848,HF_wild_card,2022.2.4,Win32,59.99880002,5e9c8fed2d191903edc5d16b,64d2fd46c836a06233681665,64dc7ce6cd581e52bf779d94,,,,,,,decisionTrl,resources/DBN.BMP,resources/DB.BMP,Door3,-0.329427083,-0.001302083,1,0,0,1.0889,optionLeft,70,2900,2,14,0,14,0,1,,,,,,,,,,,,,,,,,,,,,,,,,,,,,,,,,,,,,,,
,,,,,,,,2023-08-16_08h38.40.848,HF_wild_card,2022.2.4,Win32,59.99880002,5e9c8fed2d191903edc5d16b,64d2fd46c836a06233681665,64dc7ce6cd581e52bf779d94,,,,,,,decisionTrl,resources/DP.BMP,resources/DBN.BMP,Door4,-0.279947917,0.00390625,1,0,0,2.9138,optionLeft,80,2980,2,15,0,15,0,1,,,,,,,,,,,,,,,,,,,,,,,,,,,,,,,,,,,,,,,
,,,,,,,,2023-08-16_08h38.40.848,HF_wild_card,2022.2.4,Win32,59.99880002,5e9c8fed2d191903edc5d16b,64d2fd46c836a06233681665,64dc7ce6cd581e52bf779d94,,,,,,,ctch,resources/DY.BMP,resources/DP.BMP,Door4,0.328125,-0.01171875,1,0,0,2.2246,optionRight,60,3040,2,16,0,16,0,1,,,,,,,,,,,,,,,,,,,,,,,,,,,,,,,,,,,,,,,
,,,,,,,,2023-08-16_08h38.40.848,HF_wild_card,2022.2.4,Win32,59.99880002,5e9c8fed2d191903edc5d16b,64d2fd46c836a06233681665,64dc7ce6cd581e52bf779d94,,,,,,,sngl,resources/Empty.png,resources/DP.BMP,Door4,0.34375,0.009114583,1,0,0,0.8941,optionRight,80,3120,2,17,0,17,0,1,,,,,,,,,,,,,,,,,,,,,,,,,,,,,,,,,,,,,,,
,,,,,,,,2023-08-16_08h38.40.848,HF_wild_card,2022.2.4,Win32,59.99880002,5e9c8fed2d191903edc5d16b,64d2fd46c836a06233681665,64dc7ce6cd581e52bf779d94,,,,,,,decisionTrl,resources/DG.BMP,resources/DY.BMP,Door2,-0.28125,0.0234375,1,0,0,6.0762,optionLeft,20,3140,2,18,0,18,0,1,,,,,,,,,,,,,,,,,,,,,,,,,,,,,,,,,,,,,,,
,,,,,,,,2023-08-16_08h38.40.848,HF_wild_card,2022.2.4,Win32,59.99880002,5e9c8fed2d191903edc5d16b,64d2fd46c836a06233681665,64dc7ce6cd581e52bf779d94,,,,,,,decisionTrl,resources/DG.BMP,resources/DY.BMP,Door1,0.2578125,0.010416667,1,0,0,3.4262,optionRight,30,3170,2,19,0,19,0,1,,,,,,,,,,,,,,,,,,,,,,,,,,,,,,,,,,,,,,,
,,,,,,,,2023-08-16_08h38.40.848,HF_wild_card,2022.2.4,Win32,59.99880002,5e9c8fed2d191903edc5d16b,64d2fd46c836a06233681665,64dc7ce6cd581e52bf779d94,,,,,,,decisionTrl,resources/DBN.BMP,resources/DP.BMP,Door4,0.36328125,-0.0078125,1,0,0,2.7933,optionRight,80,3250,2,20,0,20,0,1,,,,,,,,,,,,,,,,,,,,,,,,,,,,,,,,,,,,,,,
,,,,,,,,2023-08-16_08h38.40.848,HF_wild_card,2022.2.4,Win32,59.99880002,5e9c8fed2d191903edc5d16b,64d2fd46c836a06233681665,64dc7ce6cd581e52bf779d94,,,,,,,sngl,resources/Empty.png,resources/DB.BMP,WildCard_Ex,0.325520833,-0.002604167,1,0,0,0.9765,optionRight,95,3345,2,21,0,21,0,1,,,,,,,,,,,,,,,,,,,,,,,,,,,,,,,,,,,,,,,
,,,,,,,,2023-08-16_08h38.40.848,HF_wild_card,2022.2.4,Win32,59.99880002,5e9c8fed2d191903edc5d16b,64d2fd46c836a06233681665,64dc7ce6cd581e52bf779d94,,,,,,,decisionTrl,resources/DBN.BMP,resources/DP.BMP,Door4,0.369791667,0.010416667,1,0,0,2.9597,optionRight,80,3425,2,22,0,22,0,1,,,,,,,,,,,,,,,,,,,,,,,,,,,,,,,,,,,,,,,
,,,,,,,,2023-08-16_08h38.40.848,HF_wild_card,2022.2.4,Win32,59.99880002,5e9c8fed2d191903edc5d16b,64d2fd46c836a06233681665,64dc7ce6cd581e52bf779d94,,,,,,,ctch,resources/DY.BMP,resources/DP.BMP,Door4,0.31640625,0.001302083,1,0,0,1.4784,optionRight,80,3505,2,23,0,23,0,1,,,,,,,,,,,,,,,,,,,,,,,,,,,,,,,,,,,,,,,
,,,,,,,,2023-08-16_08h38.40.848,HF_wild_card,2022.2.4,Win32,59.99880002,5e9c8fed2d191903edc5d16b,64d2fd46c836a06233681665,64dc7ce6cd581e52bf779d94,,,,,,,decisionTrl,resources/DG.BMP,resources/DB.BMP,Door2,-0.2265625,0.032552083,1,0,0,1.9433,optionLeft,20,3525,2,24,0,24,0,1,,,,,,,,,,,,,,,,,,,,,,,,,,,,,,,,,,,,,,,
,,,,,,,,2023-08-16_08h38.40.848,HF_wild_card,2022.2.4,Win32,59.99880002,5e9c8fed2d191903edc5d16b,64d2fd46c836a06233681665,64dc7ce6cd581e52bf779d94,,,,,,,decisionTrl,resources/DP.BMP,resources/DB.BMP,Door4,-0.321614583,0,1,0,0,2.2948,optionLeft,60,3585,2,25,0,25,0,1,,,,,,,,,,,,,,,,,,,,,,,,,,,,,,,,,,,,,,,
,,,,,,,,2023-08-16_08h38.40.848,HF_wild_card,2022.2.4,Win32,59.99880002,5e9c8fed2d191903edc5d16b,64d2fd46c836a06233681665,64dc7ce6cd581e52bf779d94,,,,,,,sngl,resources/Empty.png,resources/DB.BMP,WildCard_Ex,0.296875,-0.013020833,1,0,0,0.8618,optionRight,5,3590,2,26,0,26,0,1,,,,,,,,,,,,,,,,,,,,,,,,,,,,,,,,,,,,,,,
,,,,,,,,2023-08-16_08h38.40.848,HF_wild_card,2022.2.4,Win32,59.99880002,5e9c8fed2d191903edc5d16b,64d2fd46c836a06233681665,64dc7ce6cd581e52bf779d94,,,,,,,sngl,resources/Empty.png,resources/DG.BMP,Door2,0.305989583,-0.00390625,1,0,0,0.7774,optionRight,40,3630,2,27,0,27,0,1,,,,,,,,,,,,,,,,,,,,,,,,,,,,,,,,,,,,,,,
,,,,,,,,2023-08-16_08h38.40.848,HF_wild_card,2022.2.4,Win32,59.99880002,5e9c8fed2d191903edc5d16b,64d2fd46c836a06233681665,64dc7ce6cd581e52bf779d94,,,,,,,sngl,resources/Empty.png,resources/DY.BMP,Door1,0.359375,0.00390625,1,0,0,1.4768,optionRight,30,3660,2,28,0,28,0,1,,,,,,,,,,,,,,,,,,,,,,,,,,,,,,,,,,,,,,,
,,,,,,,,2023-08-16_08h38.40.848,HF_wild_card,2022.2.4,Win32,59.99880002,5e9c8fed2d191903edc5d16b,64d2fd46c836a06233681665,64dc7ce6cd581e52bf779d94,,,,,,,decisionTrl,resources/DY.BMP,resources/DG.BMP,Door1,-0.227864583,0.029947917,1,0,0,3.8606,optionLeft,30,3690,2,29,0,29,0,1,,,,,,,,,,,,,,,,,,,,,,,,,,,,,,,,,,,,,,,
,,,,,,,,2023-08-16_08h38.40.848,HF_wild_card,2022.2.4,Win32,59.99880002,5e9c8fed2d191903edc5d16b,64d2fd46c836a06233681665,64dc7ce6cd581e52bf779d94,,,,,,,sngl,resources/DP.BMP,resources/Empty.png,Door4,-0.239583333,0.009114583,1,0,0,1.3276,optionLeft,60,3750,2,30,0,30,0,1,,,,,,,,,,,,,,,,,,,,,,,,,,,,,,,,,,,,,,,
,,,,,,,,2023-08-16_08h38.40.848,HF_wild_card,2022.2.4,Win32,59.99880002,5e9c8fed2d191903edc5d16b,64d2fd46c836a06233681665,64dc7ce6cd581e52bf779d94,,,,,,,decisionTrl,resources/DY.BMP,resources/DB.BMP,Door1,-0.23828125,0.009114583,1,0,0,2.6094,optionLeft,30,3780,2,31,0,31,0,1,,,,,,,,,,,,,,,,,,,,,,,,,,,,,,,,,,,,,,,
,,,,,,,,2023-08-16_08h38.40.848,HF_wild_card,2022.2.4,Win32,59.99880002,5e9c8fed2d191903edc5d16b,64d2fd46c836a06233681665,64dc7ce6cd581e52bf779d94,,,,,,,ctch,resources/DG.BMP,resources/DBN.BMP,Door3,0.299479167,0.001302083,1,0,0,2.3254,optionRight,70,3850,2,32,0,32,0,1,,,,,,,,,,,,,,,,,,,,,,,,,,,,,,,,,,,,,,,
,,,,,,,,2023-08-16_08h38.40.848,HF_wild_card,2022.2.4,Win32,59.99880002,5e9c8fed2d191903edc5d16b,64d2fd46c836a06233681665,64dc7ce6cd581e52bf779d94,,,,,,,decisionTrl,resources/DB.BMP,resources/DP.BMP,Door4,0.365885417,0.015625,1,0,0,2.0932,optionRight,80,3930,2,33,0,33,0,1,,,,,,,,,,,,,,,,,,,,,,,,,,,,,,,,,,,,,,,
,,,,,,,,2023-08-16_08h38.40.848,HF_wild_card,2022.2.4,Win32,59.99880002,5e9c8fed2d191903edc5d16b,64d2fd46c836a06233681665,64dc7ce6cd581e52bf779d94,,,,,,,sngl,resources/DBN.BMP,resources/Empty.png,Door3,-0.27734375,0.018229167,1,0,0,2.6601,optionLeft,70,4000,2,34,0,34,0,1,,,,,,,,,,,,,,,,,,,,,,,,,,,,,,,,,,,,,,,
,,,,,,,,2023-08-16_08h38.40.848,HF_wild_card,2022.2.4,Win32,59.99880002,5e9c8fed2d191903edc5d16b,64d2fd46c836a06233681665,64dc7ce6cd581e52bf779d94,,,,,,,sngl,resources/DB.BMP,resources/Empty.png,WildCard_Ex,-0.334635417,0.01171875,1,0,0,1.2267,optionLeft,95,4095,2,35,0,35,0,1,,,,,,,,,,,,,,,,,,,,,,,,,,,,,,,,,,,,,,,
,,,,,,,,2023-08-16_08h38.40.848,HF_wild_card,2022.2.4,Win32,59.99880002,5e9c8fed2d191903edc5d16b,64d2fd46c836a06233681665,64dc7ce6cd581e52bf779d94,,,,,,,decisionTrl,resources/DB.BMP,resources/DBN.BMP,Door3,0.276041667,0.002604167,1,0,0,1.3944,optionRight,70,4165,2,36,0,36,0,1,,,,,,,,,,,,,,,,,,,,,,,,,,,,,,,,,,,,,,,
,,,,,,,,2023-08-16_08h38.40.848,HF_wild_card,2022.2.4,Win32,59.99880002,5e9c8fed2d191903edc5d16b,64d2fd46c836a06233681665,64dc7ce6cd581e52bf779d94,,,,,,,decisionTrl,resources/DP.BMP,resources/DBN.BMP,Door4,-0.350260417,-0.002604167,1,0,0,3.097,optionLeft,60,4225,2,37,0,37,0,1,,,,,,,,,,,,,,,,,,,,,,,,,,,,,,,,,,,,,,,
,,,,,,,,2023-08-16_08h38.40.848,HF_wild_card,2022.2.4,Win32,59.99880002,5e9c8fed2d191903edc5d16b,64d2fd46c836a06233681665,64dc7ce6cd581e52bf779d94,,,,,,,ctch,resources/DP.BMP,resources/DY.BMP,Door4,-0.359375,-0.014322917,1,0,0,1.7928,optionLeft,60,4285,2,38,0,38,0,1,,,,,,,,,,,,,,,,,,,,,,,,,,,,,,,,,,,,,,,
,,,,,,,,2023-08-16_08h38.40.848,HF_wild_card,2022.2.4,Win32,59.99880002,5e9c8fed2d191903edc5d16b,64d2fd46c836a06233681665,64dc7ce6cd581e52bf779d94,,,,,,,sngl,resources/DY.BMP,resources/Empty.png,Door1,-0.205729167,-0.00390625,1,0,0,1.4433,optionLeft,30,4315,2,39,0,39,0,1,,,,,,,,,,,,,,,,,,,,,,,,,,,,,,,,,,,,,,,
,,,,,,,,2023-08-16_08h38.40.848,HF_wild_card,2022.2.4,Win32,59.99880002,5e9c8fed2d191903edc5d16b,64d2fd46c836a06233681665,64dc7ce6cd581e52bf779d94,,,,,,,sngl,resources/DG.BMP,resources/Empty.png,Door2,-0.25390625,-0.00390625,1,0,0,0.693,optionLeft,20,4335,2,40,0,40,0,1,,,,,,,,,,,,,,,,,,,,,,,,,,,,,,,,,,,,,,,
,,,,,,,,2023-08-16_08h38.40.848,HF_wild_card,2022.2.4,Win32,59.99880002,5e9c8fed2d191903edc5d16b,64d2fd46c836a06233681665,64dc7ce6cd581e52bf779d94,,,,,,,ctch,resources/DP.BMP,resources/DY.BMP,Door4,-0.28125,-0.006510417,1,0,0,1.3419,optionLeft,60,4395,2,41,0,41,0,1,,,,,,,,,,,,,,,,,,,,,,,,,,,,,,,,,,,,,,,
,,,,,,,,2023-08-16_08h38.40.848,HF_wild_card,2022.2.4,Win32,59.99880002,5e9c8fed2d191903edc5d16b,64d2fd46c836a06233681665,64dc7ce6cd581e52bf779d94,,,,,,,decisionTrl,resources/DP.BMP,resources/DBN.BMP,Door3,0.252604167,0.029947917,1,0,0,2.0429,optionRight,70,4465,2,42,0,42,0,1,,,,,,,,,,,,,,,,,,,,,,,,,,,,,,,,,,,,,,,
,,,,,,,,2023-08-16_08h38.40.848,HF_wild_card,2022.2.4,Win32,59.99880002,5e9c8fed2d191903edc5d16b,64d2fd46c836a06233681665,64dc7ce6cd581e52bf779d94,,,,,,,ctch,resources/DBN.BMP,resources/DG.BMP,Door3,-0.239583333,-0.001302083,1,0,0,2.0426,optionLeft,70,4535,2,43,0,43,0,1,,,,,,,,,,,,,,,,,,,,,,,,,,,,,,,,,,,,,,,
,,,,,,,,2023-08-16_08h38.40.848,HF_wild_card,2022.2.4,Win32,59.99880002,5e9c8fed2d191903edc5d16b,64d2fd46c836a06233681665,64dc7ce6cd581e52bf779d94,,,,,,,,,,,,,,,,,,,,,,,,,,1,0,1,0,1,,,,,,,,,,,,,,,,,,,,,,,,,,,,,,,,,,
,,,,,,,,2023-08-16_08h38.40.848,HF_wild_card,2022.2.4,Win32,59.99880002,5e9c8fed2d191903edc5d16b,64d2fd46c836a06233681665,64dc7ce6cd581e52bf779d94,,,,,,,decisionTrl,resources/DY.BMP,resources/DB.BMP,Door1,-0.123697917,-0.095052083,1,0,0,8.9412,optionLeft,30,4565,3,0,0,0,0,1,,,,,,,,,,,,,,,,,,,,,,,,,,,,,,,,,,,,,,,
,,,,,,,,2023-08-16_08h38.40.848,HF_wild_card,2022.2.4,Win32,59.99880002,5e9c8fed2d191903edc5d16b,64d2fd46c836a06233681665,64dc7ce6cd581e52bf779d94,,,,,,,ctch,resources/DBN.BMP,resources/DG.BMP,Door3,-0.220052083,-0.020833333,1,0,0,1.2993,optionLeft,70,4635,3,1,0,1,0,1,,,,,,,,,,,,,,,,,,,,,,,,,,,,,,,,,,,,,,,
,,,,,,,,2023-08-16_08h38.40.848,HF_wild_card,2022.2.4,Win32,59.99880002,5e9c8fed2d191903edc5d16b,64d2fd46c836a06233681665,64dc7ce6cd581e52bf779d94,,,,,,,decisionTrl,resources/DY.BMP,resources/DG.BMP,Door1,-0.173177083,-0.045572917,1,0,0,2.3283,optionLeft,30,4665,3,2,0,2,0,1,,,,,,,,,,,,,,,,,,,,,,,,,,,,,,,,,,,,,,,
,,,,,,,,2023-08-16_08h38.40.848,HF_wild_card,2022.2.4,Win32,59.99880002,5e9c8fed2d191903edc5d16b,64d2fd46c836a06233681665,64dc7ce6cd581e52bf779d94,,,,,,,ctch,resources/DG.BMP,resources/DBN.BMP,Door3,0.265625,-0.009114583,1,0,0,1.1934,optionRight,70,4735,3,3,0,3,0,1,,,,,,,,,,,,,,,,,,,,,,,,,,,,,,,,,,,,,,,
,,,,,,,,2023-08-16_08h38.40.848,HF_wild_card,2022.2.4,Win32,59.99880002,5e9c8fed2d191903edc5d16b,64d2fd46c836a06233681665,64dc7ce6cd581e52bf779d94,,,,,,,ctch,resources/DP.BMP,resources/DY.BMP,Door4,-0.356770833,-0.0390625,1,0,0,1.593,optionLeft,60,4795,3,4,0,4,0,1,,,,,,,,,,,,,,,,,,,,,,,,,,,,,,,,,,,,,,,
,,,,,,,,2023-08-16_08h38.40.848,HF_wild_card,2022.2.4,Win32,59.99880002,5e9c8fed2d191903edc5d16b,64d2fd46c836a06233681665,64dc7ce6cd581e52bf779d94,,,,,,,sngl,resources/Empty.png,resources/DP.BMP,Door4,0.251302083,-0.0078125,1,0,0,0.8374,optionRight,60,4855,3,5,0,5,0,1,,,,,,,,,,,,,,,,,,,,,,,,,,,,,,,,,,,,,,,
,,,,,,,,2023-08-16_08h38.40.848,HF_wild_card,2022.2.4,Win32,59.99880002,5e9c8fed2d191903edc5d16b,64d2fd46c836a06233681665,64dc7ce6cd581e52bf779d94,,,,,,,decisionTrl,resources/DY.BMP,resources/DG.BMP,Door1,-0.154947917,-0.05078125,1,0,0,5.1579,optionLeft,30,4885,3,6,0,6,0,1,,,,,,,,,,,,,,,,,,,,,,,,,,,,,,,,,,,,,,,
,,,,,,,,2023-08-16_08h38.40.848,HF_wild_card,2022.2.4,Win32,59.99880002,5e9c8fed2d191903edc5d16b,64d2fd46c836a06233681665,64dc7ce6cd581e52bf779d94,,,,,,,decisionTrl,resources/DG.BMP,resources/DY.BMP,Door2,-0.252604167,-0.0234375,1,0,0,3.6436,optionLeft,20,4905,3,7,0,7,0,1,,,,,,,,,,,,,,,,,,,,,,,,,,,,,,,,,,,,,,,
,,,,,,,,2023-08-16_08h38.40.848,HF_wild_card,2022.2.4,Win32,59.99880002,5e9c8fed2d191903edc5d16b,64d2fd46c836a06233681665,64dc7ce6cd581e52bf779d94,,,,,,,ctch,resources/DP.BMP,resources/DY.BMP,Door4,-0.3046875,-0.071614583,1,0,0,1.1777,optionLeft,80,4985,3,8,0,8,0,1,,,,,,,,,,,,,,,,,,,,,,,,,,,,,,,,,,,,,,,
,,,,,,,,2023-08-16_08h38.40.848,HF_wild_card,2022.2.4,Win32,59.99880002,5e9c8fed2d191903edc5d16b,64d2fd46c836a06233681665,64dc7ce6cd581e52bf779d94,,,,,,,decisionTrl,resources/DBN.BMP,resources/DP.BMP,Door4,0.30859375,-0.005208333,1,0,0,3.8594,optionRight,60,5045,3,9,0,9,0,1,,,,,,,,,,,,,,,,,,,,,,,,,,,,,,,,,,,,,,,
,,,,,,,,2023-08-16_08h38.40.848,HF_wild_card,2022.2.4,Win32,59.99880002,5e9c8fed2d191903edc5d16b,64d2fd46c836a06233681665,64dc7ce6cd581e52bf779d94,,,,,,,sngl,resources/DG.BMP,resources/Empty.png,Door2,-0.276041667,-0.0234375,1,0,0,1.0248,optionLeft,40,5085,3,10,0,10,0,1,,,,,,,,,,,,,,,,,,,,,,,,,,,,,,,,,,,,,,,
,,,,,,,,2023-08-16_08h38.40.848,HF_wild_card,2022.2.4,Win32,59.99880002,5e9c8fed2d191903edc5d16b,64d2fd46c836a06233681665,64dc7ce6cd581e52bf779d94,,,,,,,decisionTrl,resources/DG.BMP,resources/DY.BMP,Door2,-0.1796875,-0.029947917,1,0,0,3.9085,optionLeft,20,5105,3,11,0,11,0,1,,,,,,,,,,,,,,,,,,,,,,,,,,,,,,,,,,,,,,,
,,,,,,,,2023-08-16_08h38.40.848,HF_wild_card,2022.2.4,Win32,59.99880002,5e9c8fed2d191903edc5d16b,64d2fd46c836a06233681665,64dc7ce6cd581e52bf779d94,,,,,,,decisionTrl,resources/DP.BMP,resources/DBN.BMP,Door4,-0.263020833,-0.029947917,1,0,0,4.8237,optionLeft,60,5165,3,12,0,12,0,1,,,,,,,,,,,,,,,,,,,,,,,,,,,,,,,,,,,,,,,
,,,,,,,,2023-08-16_08h38.40.848,HF_wild_card,2022.2.4,Win32,59.99880002,5e9c8fed2d191903edc5d16b,64d2fd46c836a06233681665,64dc7ce6cd581e52bf779d94,,,,,,,decisionTrl,resources/DBN.BMP,resources/DP.BMP,Door4,0.247395833,-0.010416667,1,0,0,2.9941,optionRight,60,5225,3,13,0,13,0,1,,,,,,,,,,,,,,,,,,,,,,,,,,,,,,,,,,,,,,,
,,,,,,,,2023-08-16_08h38.40.848,HF_wild_card,2022.2.4,Win32,59.99880002,5e9c8fed2d191903edc5d16b,64d2fd46c836a06233681665,64dc7ce6cd581e52bf779d94,,,,,,,decisionTrl,resources/DBN.BMP,resources/DB.BMP,Door3,-0.341145833,-0.032552083,1,0,0,1.4261,optionLeft,70,5295,3,14,0,14,0,1,,,,,,,,,,,,,,,,,,,,,,,,,,,,,,,,,,,,,,,
,,,,,,,,2023-08-16_08h38.40.848,HF_wild_card,2022.2.4,Win32,59.99880002,5e9c8fed2d191903edc5d16b,64d2fd46c836a06233681665,64dc7ce6cd581e52bf779d94,,,,,,,sngl,resources/DB.BMP,resources/Empty.png,WildCard_Ex,-0.225260417,-0.00390625,1,0,0,0.7432,optionLeft,95,5390,3,15,0,15,0,1,,,,,,,,,,,,,,,,,,,,,,,,,,,,,,,,,,,,,,,
,,,,,,,,2023-08-16_08h38.40.848,HF_wild_card,2022.2.4,Win32,59.99880002,5e9c8fed2d191903edc5d16b,64d2fd46c836a06233681665,64dc7ce6cd581e52bf779d94,,,,,,,ctch,resources/DG.BMP,resources/DBN.BMP,Door3,0.4296875,0.02734375,1,0,0,0.9253,optionRight,70,5460,3,16,0,16,0,1,,,,,,,,,,,,,,,,,,,,,,,,,,,,,,,,,,,,,,,
,,,,,,,,2023-08-16_08h38.40.848,HF_wild_card,2022.2.4,Win32,59.99880002,5e9c8fed2d191903edc5d16b,64d2fd46c836a06233681665,64dc7ce6cd581e52bf779d94,,,,,,,decisionTrl,resources/DG.BMP,resources/DY.BMP,Door1,0.2109375,-0.005208333,1,0,0,2.3416,optionRight,30,5490,3,17,0,17,0,1,,,,,,,,,,,,,,,,,,,,,,,,,,,,,,,,,,,,,,,
,,,,,,,,2023-08-16_08h38.40.848,HF_wild_card,2022.2.4,Win32,59.99880002,5e9c8fed2d191903edc5d16b,64d2fd46c836a06233681665,64dc7ce6cd581e52bf779d94,,,,,,,decisionTrl,resources/DY.BMP,resources/DG.BMP,Door2,0.319010417,-0.002604167,1,0,0,2.1575,optionRight,20,5510,3,18,0,18,0,1,,,,,,,,,,,,,,,,,,,,,,,,,,,,,,,,,,,,,,,
,,,,,,,,2023-08-16_08h38.40.848,HF_wild_card,2022.2.4,Win32,59.99880002,5e9c8fed2d191903edc5d16b,64d2fd46c836a06233681665,64dc7ce6cd581e52bf779d94,,,,,,,sngl,resources/DB.BMP,resources/Empty.png,WildCard_Ex,-0.216145833,-0.002604167,1,0,0,0.7266,optionLeft,5,5515,3,19,0,19,0,1,,,,,,,,,,,,,,,,,,,,,,,,,,,,,,,,,,,,,,,
,,,,,,,,2023-08-16_08h38.40.848,HF_wild_card,2022.2.4,Win32,59.99880002,5e9c8fed2d191903edc5d16b,64d2fd46c836a06233681665,64dc7ce6cd581e52bf779d94,,,,,,,ctch,resources/DY.BMP,resources/DP.BMP,Door4,0.404947917,-0.010416667,1,0,0,0.8597,optionRight,80,5595,3,20,0,20,0,1,,,,,,,,,,,,,,,,,,,,,,,,,,,,,,,,,,,,,,,
,,,,,,,,2023-08-16_08h38.40.848,HF_wild_card,2022.2.4,Win32,59.99880002,5e9c8fed2d191903edc5d16b,64d2fd46c836a06233681665,64dc7ce6cd581e52bf779d94,,,,,,,decisionTrl,resources/DP.BMP,resources/DB.BMP,Door4,-0.299479167,-0.01171875,1,0,0,1.1605,optionLeft,80,5675,3,21,0,21,0,1,,,,,,,,,,,,,,,,,,,,,,,,,,,,,,,,,,,,,,,
,,,,,,,,2023-08-16_08h38.40.848,HF_wild_card,2022.2.4,Win32,59.99880002,5e9c8fed2d191903edc5d16b,64d2fd46c836a06233681665,64dc7ce6cd581e52bf779d94,,,,,,,sngl,resources/Empty.png,resources/DB.BMP,WildCard_Ex,0.268229167,-0.002604167,1,0,0,0.8286,optionRight,95,5770,3,22,0,22,0,1,,,,,,,,,,,,,,,,,,,,,,,,,,,,,,,,,,,,,,,
,,,,,,,,2023-08-16_08h38.40.848,HF_wild_card,2022.2.4,Win32,59.99880002,5e9c8fed2d191903edc5d16b,64d2fd46c836a06233681665,64dc7ce6cd581e52bf779d94,,,,,,,sngl,resources/Empty.png,resources/DBN.BMP,Door3,0.3125,0.010416667,1,0,0,0.8275,optionRight,70,5840,3,23,0,23,0,1,,,,,,,,,,,,,,,,,,,,,,,,,,,,,,,,,,,,,,,
,,,,,,,,2023-08-16_08h38.40.848,HF_wild_card,2022.2.4,Win32,59.99880002,5e9c8fed2d191903edc5d16b,64d2fd46c836a06233681665,64dc7ce6cd581e52bf779d94,,,,,,,decisionTrl,resources/DY.BMP,resources/DG.BMP,Door2,0.29296875,-0.002604167,1,0,0,1.876,optionRight,40,5880,3,24,0,24,0,1,,,,,,,,,,,,,,,,,,,,,,,,,,,,,,,,,,,,,,,
,,,,,,,,2023-08-16_08h38.40.848,HF_wild_card,2022.2.4,Win32,59.99880002,5e9c8fed2d191903edc5d16b,64d2fd46c836a06233681665,64dc7ce6cd581e52bf779d94,,,,,,,decisionTrl,resources/DP.BMP,resources/DBN.BMP,Door4,-0.319010417,0.002604167,1,0,0,2.2617,optionLeft,80,5960,3,25,0,25,0,1,,,,,,,,,,,,,,,,,,,,,,,,,,,,,,,,,,,,,,,
,,,,,,,,2023-08-16_08h38.40.848,HF_wild_card,2022.2.4,Win32,59.99880002,5e9c8fed2d191903edc5d16b,64d2fd46c836a06233681665,64dc7ce6cd581e52bf779d94,,,,,,,sngl,resources/DP.BMP,resources/Empty.png,Door4,-0.404947917,0.020833333,1,0,0,1.1417,optionLeft,80,6040,3,26,0,26,0,1,,,,,,,,,,,,,,,,,,,,,,,,,,,,,,,,,,,,,,,
,,,,,,,,2023-08-16_08h38.40.848,HF_wild_card,2022.2.4,Win32,59.99880002,5e9c8fed2d191903edc5d16b,64d2fd46c836a06233681665,64dc7ce6cd581e52bf779d94,,,,,,,sngl,resources/DBN.BMP,resources/Empty.png,Door3,-0.377604167,0.013020833,1,0,0,1.3358,optionLeft,70,6110,3,27,0,27,0,1,,,,,,,,,,,,,,,,,,,,,,,,,,,,,,,,,,,,,,,
,,,,,,,,2023-08-16_08h38.40.848,HF_wild_card,2022.2.4,Win32,59.99880002,5e9c8fed2d191903edc5d16b,64d2fd46c836a06233681665,64dc7ce6cd581e52bf779d94,,,,,,,decisionTrl,resources/DG.BMP,resources/DB.BMP,WildCard_Ex,0.248697917,-0.053385417,1,0,0,3.4788,optionRight,5,6115,3,28,0,28,0,1,,,,,,,,,,,,,,,,,,,,,,,,,,,,,,,,,,,,,,,
,,,,,,,,2023-08-16_08h38.40.848,HF_wild_card,2022.2.4,Win32,59.99880002,5e9c8fed2d191903edc5d16b,64d2fd46c836a06233681665,64dc7ce6cd581e52bf779d94,,,,,,,decisionTrl,resources/DP.BMP,resources/DBN.BMP,Door4,-0.171875,0.005208333,1,0,0,2.1448,optionLeft,60,6175,3,29,0,29,0,1,,,,,,,,,,,,,,,,,,,,,,,,,,,,,,,,,,,,,,,
,,,,,,,,2023-08-16_08h38.40.848,HF_wild_card,2022.2.4,Win32,59.99880002,5e9c8fed2d191903edc5d16b,64d2fd46c836a06233681665,64dc7ce6cd581e52bf779d94,,,,,,,decisionTrl,resources/DG.BMP,resources/DY.BMP,Door1,0.231770833,-0.009114583,1,0,0,1.6793,optionRight,30,6205,3,30,0,30,0,1,,,,,,,,,,,,,,,,,,,,,,,,,,,,,,,,,,,,,,,
,,,,,,,,2023-08-16_08h38.40.848,HF_wild_card,2022.2.4,Win32,59.99880002,5e9c8fed2d191903edc5d16b,64d2fd46c836a06233681665,64dc7ce6cd581e52bf779d94,,,,,,,decisionTrl,resources/DP.BMP,resources/DBN.BMP,Door3,0.19921875,0.010416667,1,0,0,2.4585,optionRight,70,6275,3,31,0,31,0,1,,,,,,,,,,,,,,,,,,,,,,,,,,,,,,,,,,,,,,,
,,,,,,,,2023-08-16_08h38.40.848,HF_wild_card,2022.2.4,Win32,59.99880002,5e9c8fed2d191903edc5d16b,64d2fd46c836a06233681665,64dc7ce6cd581e52bf779d94,,,,,,,decisionTrl,resources/DB.BMP,resources/DG.BMP,Door2,0.216145833,0.001302083,1,0,0,2.0575,optionRight,20,6295,3,32,0,32,0,1,,,,,,,,,,,,,,,,,,,,,,,,,,,,,,,,,,,,,,,
,,,,,,,,2023-08-16_08h38.40.848,HF_wild_card,2022.2.4,Win32,59.99880002,5e9c8fed2d191903edc5d16b,64d2fd46c836a06233681665,64dc7ce6cd581e52bf779d94,,,,,,,decisionTrl,resources/DBN.BMP,resources/DP.BMP,Door4,0.1875,0.0078125,1,0,0,2.0922,optionRight,60,6355,3,33,0,33,0,1,,,,,,,,,,,,,,,,,,,,,,,,,,,,,,,,,,,,,,,
,,,,,,,,2023-08-16_08h38.40.848,HF_wild_card,2022.2.4,Win32,59.99880002,5e9c8fed2d191903edc5d16b,64d2fd46c836a06233681665,64dc7ce6cd581e52bf779d94,,,,,,,decisionTrl,resources/DB.BMP,resources/DBN.BMP,Door3,0.235677083,0.01171875,1,0,0,1.1586,optionRight,70,6425,3,34,0,34,0,1,,,,,,,,,,,,,,,,,,,,,,,,,,,,,,,,,,,,,,,
,,,,,,,,2023-08-16_08h38.40.848,HF_wild_card,2022.2.4,Win32,59.99880002,5e9c8fed2d191903edc5d16b,64d2fd46c836a06233681665,64dc7ce6cd581e52bf779d94,,,,,,,sngl,resources/Empty.png,resources/DB.BMP,WildCard_Ex,0.233072917,0.022135417,1,0,0,0.6409,optionRight,5,6430,3,35,0,35,0,1,,,,,,,,,,,,,,,,,,,,,,,,,,,,,,,,,,,,,,,
,,,,,,,,2023-08-16_08h38.40.848,HF_wild_card,2022.2.4,Win32,59.99880002,5e9c8fed2d191903edc5d16b,64d2fd46c836a06233681665,64dc7ce6cd581e52bf779d94,,,,,,,sngl,resources/Empty.png,resources/DY.BMP,Door1,0.225260417,0.0234375,1,0,0,0.7261,optionRight,30,6460,3,36,0,36,0,1,,,,,,,,,,,,,,,,,,,,,,,,,,,,,,,,,,,,,,,
,,,,,,,,2023-08-16_08h38.40.848,HF_wild_card,2022.2.4,Win32,59.99880002,5e9c8fed2d191903edc5d16b,64d2fd46c836a06233681665,64dc7ce6cd581e52bf779d94,,,,,,,decisionTrl,resources/DB.BMP,resources/DY.BMP,Door1,0.154947917,0.03515625,1,0,0,1.7756,optionRight,30,6490,3,37,0,37,0,1,,,,,,,,,,,,,,,,,,,,,,,,,,,,,,,,,,,,,,,
,,,,,,,,2023-08-16_08h38.40.848,HF_wild_card,2022.2.4,Win32,59.99880002,5e9c8fed2d191903edc5d16b,64d2fd46c836a06233681665,64dc7ce6cd581e52bf779d94,,,,,,,sngl,resources/DY.BMP,resources/Empty.png,Door1,-0.2578125,0.028645833,1,0,0,0.8244,optionLeft,30,6520,3,38,0,38,0,1,,,,,,,,,,,,,,,,,,,,,,,,,,,,,,,,,,,,,,,
,,,,,,,,2023-08-16_08h38.40.848,HF_wild_card,2022.2.4,Win32,59.99880002,5e9c8fed2d191903edc5d16b,64d2fd46c836a06233681665,64dc7ce6cd581e52bf779d94,,,,,,,sngl,resources/Empty.png,resources/DG.BMP,Door2,0.194010417,0.013020833,1,0,0,0.7269,optionRight,20,6540,3,39,0,39,0,1,,,,,,,,,,,,,,,,,,,,,,,,,,,,,,,,,,,,,,,
,,,,,,,,2023-08-16_08h38.40.848,HF_wild_card,2022.2.4,Win32,59.99880002,5e9c8fed2d191903edc5d16b,64d2fd46c836a06233681665,64dc7ce6cd581e52bf779d94,,,,,,,ctch,resources/DY.BMP,resources/DP.BMP,Door4,0.2578125,0.005208333,1,0,0,1.0622,optionRight,80,6620,3,40,0,40,0,1,,,,,,,,,,,,,,,,,,,,,,,,,,,,,,,,,,,,,,,
,,,,,,,,2023-08-16_08h38.40.848,HF_wild_card,2022.2.4,Win32,59.99880002,5e9c8fed2d191903edc5d16b,64d2fd46c836a06233681665,64dc7ce6cd581e52bf779d94,,,,,,,decisionTrl,resources/DB.BMP,resources/DP.BMP,Door4,0.30078125,-0.005208333,1,0,0,0.9425,optionRight,80,6700,3,41,0,41,0,1,,,,,,,,,,,,,,,,,,,,,,,,,,,,,,,,,,,,,,,
,,,,,,,,2023-08-16_08h38.40.848,HF_wild_card,2022.2.4,Win32,59.99880002,5e9c8fed2d191903edc5d16b,64d2fd46c836a06233681665,64dc7ce6cd581e52bf779d94,,,,,,,ctch,resources/DBN.BMP,resources/DG.BMP,Door3,-0.28125,0.033854167,1,0,0,2.2583,optionLeft,70,6770,3,42,0,42,0,1,,,,,,,,,,,,,,,,,,,,,,,,,,,,,,,,,,,,,,,
,,,,,,,,2023-08-16_08h38.40.848,HF_wild_card,2022.2.4,Win32,59.99880002,5e9c8fed2d191903edc5d16b,64d2fd46c836a06233681665,64dc7ce6cd581e52bf779d94,,,,,,,decisionTrl,resources/DBN.BMP,resources/DP.BMP,Door3,-0.221354167,0.00390625,1,0,0,2.8281,optionLeft,70,6840,3,43,0,43,0,1,,,,,,,,,,,,,,,,,,,,,,,,,,,,,,,,,,,,,,,
,,,,,,,,2023-08-16_08h38.40.848,HF_wild_card,2022.2.4,Win32,59.99880002,5e9c8fed2d191903edc5d16b,64d2fd46c836a06233681665,64dc7ce6cd581e52bf779d94,,,,,,,,,,,,,,,,,,,,,,,,,,2,0,2,0,1,,,,,,,,,,,,,,,,,,,,,,,,,,,,,,,,,,
,,,,,,,,2023-08-16_08h38.40.848,HF_wild_card,2022.2.4,Win32,59.99880002,5e9c8fed2d191903edc5d16b,64d2fd46c836a06233681665,64dc7ce6cd581e52bf779d94,,,,,,,sngl,resources/Empty.png,resources/DG.BMP,Door2,0.393229167,-0.088541667,1,0,0,0.7931,optionRight,40,6880,4,0,0,0,0,1,,,,,,,,,,,,,,,,,,,,,,,,,,,,,,,,,,,,,,,
,,,,,,,,2023-08-16_08h38.40.848,HF_wild_card,2022.2.4,Win32,59.99880002,5e9c8fed2d191903edc5d16b,64d2fd46c836a06233681665,64dc7ce6cd581e52bf779d94,,,,,,,decisionTrl,resources/DP.BMP,resources/DBN.BMP,Door4,-0.325520833,-0.05859375,1,0,0,2.4106,optionLeft,60,6940,4,1,0,1,0,1,,,,,,,,,,,,,,,,,,,,,,,,,,,,,,,,,,,,,,,
,,,,,,,,2023-08-16_08h38.40.848,HF_wild_card,2022.2.4,Win32,59.99880002,5e9c8fed2d191903edc5d16b,64d2fd46c836a06233681665,64dc7ce6cd581e52bf779d94,,,,,,,decisionTrl,resources/DY.BMP,resources/DR.BMP,WildCard_NonEx,0.286458333,-0.029947917,1,0,0,2.5769,optionRight,45,6985,4,2,0,2,0,1,,,,,,,,,,,,,,,,,,,,,,,,,,,,,,,,,,,,,,,
,,,,,,,,2023-08-16_08h38.40.848,HF_wild_card,2022.2.4,Win32,59.99880002,5e9c8fed2d191903edc5d16b,64d2fd46c836a06233681665,64dc7ce6cd581e52bf779d94,,,,,,,decisionTrl,resources/DP.BMP,resources/DBN.BMP,Door3,0.2421875,-0.053385417,1,0,0,2.3909,optionRight,70,7055,4,3,0,3,0,1,,,,,,,,,,,,,,,,,,,,,,,,,,,,,,,,,,,,,,,
,,,,,,,,2023-08-16_08h38.40.848,HF_wild_card,2022.2.4,Win32,59.99880002,5e9c8fed2d191903edc5d16b,64d2fd46c836a06233681665,64dc7ce6cd581e52bf779d94,,,,,,,decisionTrl,resources/DY.BMP,resources/DG.BMP,Door2,0.3203125,-0.006510417,1,0,0,1.6602,optionRight,40,7095,4,4,0,4,0,1,,,,,,,,,,,,,,,,,,,,,,,,,,,,,,,,,,,,,,,
,,,,,,,,2023-08-16_08h38.40.848,HF_wild_card,2022.2.4,Win32,59.99880002,5e9c8fed2d191903edc5d16b,64d2fd46c836a06233681665,64dc7ce6cd581e52bf779d94,,,,,,,decisionTrl,resources/DBN.BMP,resources/DR.BMP,WildCard_NonEx,0.263020833,0,1,0,0,1.0743,optionRight,55,7150,4,5,0,5,0,1,,,,,,,,,,,,,,,,,,,,,,,,,,,,,,,,,,,,,,,
,,,,,,,,2023-08-16_08h38.40.848,HF_wild_card,2022.2.4,Win32,59.99880002,5e9c8fed2d191903edc5d16b,64d2fd46c836a06233681665,64dc7ce6cd581e52bf779d94,,,,,,,sngl,resources/Empty.png,resources/DR.BMP,WildCard_NonEx,0.256510417,0,1,0,0,0.8432,optionRight,45,7195,4,6,0,6,0,1,,,,,,,,,,,,,,,,,,,,,,,,,,,,,,,,,,,,,,,
,,,,,,,,2023-08-16_08h38.40.848,HF_wild_card,2022.2.4,Win32,59.99880002,5e9c8fed2d191903edc5d16b,64d2fd46c836a06233681665,64dc7ce6cd581e52bf779d94,,,,,,,decisionTrl,resources/DY.BMP,resources/DG.BMP,Door1,-0.15625,-0.03125,1,0,0,3.1083,optionLeft,30,7225,4,7,0,7,0,1,,,,,,,,,,,,,,,,,,,,,,,,,,,,,,,,,,,,,,,
,,,,,,,,2023-08-16_08h38.40.848,HF_wild_card,2022.2.4,Win32,59.99880002,5e9c8fed2d191903edc5d16b,64d2fd46c836a06233681665,64dc7ce6cd581e52bf779d94,,,,,,,decisionTrl,resources/DG.BMP,resources/DR.BMP,WildCard_NonEx,0.247395833,-0.013020833,1,0,0,1.0932,optionRight,45,7270,4,8,0,8,0,1,,,,,,,,,,,,,,,,,,,,,,,,,,,,,,,,,,,,,,,
,,,,,,,,2023-08-16_08h38.40.848,HF_wild_card,2022.2.4,Win32,59.99880002,5e9c8fed2d191903edc5d16b,64d2fd46c836a06233681665,64dc7ce6cd581e52bf779d94,,,,,,,ctch,resources/DP.BMP,resources/DY.BMP,Door4,-0.236979167,-0.029947917,1,0,0,1.5778,optionLeft,80,7350,4,9,0,9,0,1,,,,,,,,,,,,,,,,,,,,,,,,,,,,,,,,,,,,,,,
,,,,,,,,2023-08-16_08h38.40.848,HF_wild_card,2022.2.4,Win32,59.99880002,5e9c8fed2d191903edc5d16b,64d2fd46c836a06233681665,64dc7ce6cd581e52bf779d94,,,,,,,sngl,resources/DBN.BMP,resources/Empty.png,Door3,-0.235677083,0.010416667,1,0,0,0.8271,optionLeft,70,7420,4,10,0,10,0,1,,,,,,,,,,,,,,,,,,,,,,,,,,,,,,,,,,,,,,,
,,,,,,,,2023-08-16_08h38.40.848,HF_wild_card,2022.2.4,Win32,59.99880002,5e9c8fed2d191903edc5d16b,64d2fd46c836a06233681665,64dc7ce6cd581e52bf779d94,,,,,,,decisionTrl,resources/DP.BMP,resources/DBN.BMP,Door3,0.303385417,0.052083333,1,0,0,2.3582,optionRight,70,7490,4,11,0,11,0,1,,,,,,,,,,,,,,,,,,,,,,,,,,,,,,,,,,,,,,,
,,,,,,,,2023-08-16_08h38.40.848,HF_wild_card,2022.2.4,Win32,59.99880002,5e9c8fed2d191903edc5d16b,64d2fd46c836a06233681665,64dc7ce6cd581e52bf779d94,,,,,,,decisionTrl,resources/DG.BMP,resources/DY.BMP,Door2,-0.192708333,0.026041667,1,0,0,2.5768,optionLeft,20,7510,4,12,0,12,0,1,,,,,,,,,,,,,,,,,,,,,,,,,,,,,,,,,,,,,,,
,,,,,,,,2023-08-16_08h38.40.848,HF_wild_card,2022.2.4,Win32,59.99880002,5e9c8fed2d191903edc5d16b,64d2fd46c836a06233681665,64dc7ce6cd581e52bf779d94,,,,,,,ctch,resources/DBN.BMP,resources/DG.BMP,Door3,-0.29296875,0.022135417,1,0,0,1.1437,optionLeft,70,7580,4,13,0,13,0,1,,,,,,,,,,,,,,,,,,,,,,,,,,,,,,,,,,,,,,,
,,,,,,,,2023-08-16_08h38.40.848,HF_wild_card,2022.2.4,Win32,59.99880002,5e9c8fed2d191903edc5d16b,64d2fd46c836a06233681665,64dc7ce6cd581e52bf779d94,,,,,,,decisionTrl,resources/DBN.BMP,resources/DP.BMP,Door3,-0.14453125,0.018229167,1,0,0,3.1938,optionLeft,70,7650,4,14,0,14,0,1,,,,,,,,,,,,,,,,,,,,,,,,,,,,,,,,,,,,,,,
,,,,,,,,2023-08-16_08h38.40.848,HF_wild_card,2022.2.4,Win32,59.99880002,5e9c8fed2d191903edc5d16b,64d2fd46c836a06233681665,64dc7ce6cd581e52bf779d94,,,,,,,sngl,resources/Empty.png,resources/DY.BMP,Door1,0.15234375,0.014322917,1,0,0,0.7776,optionRight,30,7680,4,15,0,15,0,1,,,,,,,,,,,,,,,,,,,,,,,,,,,,,,,,,,,,,,,
,,,,,,,,2023-08-16_08h38.40.848,HF_wild_card,2022.2.4,Win32,59.99880002,5e9c8fed2d191903edc5d16b,64d2fd46c836a06233681665,64dc7ce6cd581e52bf779d94,,,,,,,sngl,resources/DR.BMP,resources/Empty.png,WildCard_NonEx,-0.182291667,0.01171875,1,0,0,0.8258,optionLeft,55,7735,4,16,0,16,0,1,,,,,,,,,,,,,,,,,,,,,,,,,,,,,,,,,,,,,,,
,,,,,,,,2023-08-16_08h38.40.848,HF_wild_card,2022.2.4,Win32,59.99880002,5e9c8fed2d191903edc5d16b,64d2fd46c836a06233681665,64dc7ce6cd581e52bf779d94,,,,,,,sngl,resources/DR.BMP,resources/Empty.png,WildCard_NonEx,-0.213541667,0.006510417,1,0,0,0.5912,optionLeft,45,7780,4,17,0,17,0,1,,,,,,,,,,,,,,,,,,,,,,,,,,,,,,,,,,,,,,,
,,,,,,,,2023-08-16_08h38.40.848,HF_wild_card,2022.2.4,Win32,59.99880002,5e9c8fed2d191903edc5d16b,64d2fd46c836a06233681665,64dc7ce6cd581e52bf779d94,,,,,,,decisionTrl,resources/DBN.BMP,resources/DP.BMP,Door4,0.212239583,-0.0390625,1,0,0,2.0295,optionRight,80,7860,4,18,0,18,0,1,,,,,,,,,,,,,,,,,,,,,,,,,,,,,,,,,,,,,,,
,,,,,,,,2023-08-16_08h38.40.848,HF_wild_card,2022.2.4,Win32,59.99880002,5e9c8fed2d191903edc5d16b,64d2fd46c836a06233681665,64dc7ce6cd581e52bf779d94,,,,,,,decisionTrl,resources/DP.BMP,resources/DR.BMP,WildCard_NonEx,0.227864583,-0.029947917,1,0,0,5.1766,optionRight,45,7905,4,19,0,19,0,1,,,,,,,,,,,,,,,,,,,,,,,,,,,,,,,,,,,,,,,
,,,,,,,,2023-08-16_08h38.40.848,HF_wild_card,2022.2.4,Win32,59.99880002,5e9c8fed2d191903edc5d16b,64d2fd46c836a06233681665,64dc7ce6cd581e52bf779d94,,,,,,,decisionTrl,resources/DR.BMP,resources/DY.BMP,WildCard_NonEx,-0.3046875,-0.0078125,1,0,0,1.3232,optionLeft,45,7950,4,20,0,20,0,1,,,,,,,,,,,,,,,,,,,,,,,,,,,,,,,,,,,,,,,
,,,,,,,,2023-08-16_08h38.40.848,HF_wild_card,2022.2.4,Win32,59.99880002,5e9c8fed2d191903edc5d16b,64d2fd46c836a06233681665,64dc7ce6cd581e52bf779d94,,,,,,,ctch,resources/DP.BMP,resources/DY.BMP,Door4,-0.333333333,-0.0078125,1,0,0,1.2464,optionLeft,80,8030,4,21,0,21,0,1,,,,,,,,,,,,,,,,,,,,,,,,,,,,,,,,,,,,,,,
,,,,,,,,2023-08-16_08h38.40.848,HF_wild_card,2022.2.4,Win32,59.99880002,5e9c8fed2d191903edc5d16b,64d2fd46c836a06233681665,64dc7ce6cd581e52bf779d94,,,,,,,sngl,resources/DP.BMP,resources/Empty.png,Door4,-0.369791667,0.010416667,1,0,0,3.864,optionLeft,60,8090,4,22,0,22,0,1,,,,,,,,,,,,,,,,,,,,,,,,,,,,,,,,,,,,,,,
,,,,,,,,2023-08-16_08h38.40.848,HF_wild_card,2022.2.4,Win32,59.99880002,5e9c8fed2d191903edc5d16b,64d2fd46c836a06233681665,64dc7ce6cd581e52bf779d94,,,,,,,decisionTrl,resources/DBN.BMP,resources/DP.BMP,Door3,-0.255208333,-0.0234375,1,0,0,2.9783,optionLeft,70,8160,4,23,0,23,0,1,,,,,,,,,,,,,,,,,,,,,,,,,,,,,,,,,,,,,,,
,,,,,,,,2023-08-16_08h38.40.848,HF_wild_card,2022.2.4,Win32,59.99880002,5e9c8fed2d191903edc5d16b,64d2fd46c836a06233681665,64dc7ce6cd581e52bf779d94,,,,,,,ctch,resources/DY.BMP,resources/DP.BMP,Door4,0.286458333,-0.01171875,1,0,0,1.995,optionRight,60,8220,4,24,0,24,0,1,,,,,,,,,,,,,,,,,,,,,,,,,,,,,,,,,,,,,,,
,,,,,,,,2023-08-16_08h38.40.848,HF_wild_card,2022.2.4,Win32,59.99880002,5e9c8fed2d191903edc5d16b,64d2fd46c836a06233681665,64dc7ce6cd581e52bf779d94,,,,,,,decisionTrl,resources/DY.BMP,resources/DG.BMP,Door1,-0.119791667,-0.040364583,1,0,0,4.9437,optionLeft,30,8250,4,25,0,25,0,1,,,,,,,,,,,,,,,,,,,,,,,,,,,,,,,,,,,,,,,
,,,,,,,,2023-08-16_08h38.40.848,HF_wild_card,2022.2.4,Win32,59.99880002,5e9c8fed2d191903edc5d16b,64d2fd46c836a06233681665,64dc7ce6cd581e52bf779d94,,,,,,,decisionTrl,resources/DR.BMP,resources/DG.BMP,WildCard_NonEx,-0.203125,-0.020833333,1,0,0,1.6788,optionLeft,55,8305,4,26,0,26,0,1,,,,,,,,,,,,,,,,,,,,,,,,,,,,,,,,,,,,,,,
,,,,,,,,2023-08-16_08h38.40.848,HF_wild_card,2022.2.4,Win32,59.99880002,5e9c8fed2d191903edc5d16b,64d2fd46c836a06233681665,64dc7ce6cd581e52bf779d94,,,,,,,decisionTrl,resources/DG.BMP,resources/DY.BMP,Door2,-0.403645833,0.028645833,1,0,0,2.7118,optionLeft,20,8325,4,27,0,27,0,1,,,,,,,,,,,,,,,,,,,,,,,,,,,,,,,,,,,,,,,
,,,,,,,,2023-08-16_08h38.40.848,HF_wild_card,2022.2.4,Win32,59.99880002,5e9c8fed2d191903edc5d16b,64d2fd46c836a06233681665,64dc7ce6cd581e52bf779d94,,,,,,,sngl,resources/Empty.png,resources/DP.BMP,Door4,0.220052083,0.005208333,1,0,0,0.7581,optionRight,80,8405,4,28,0,28,0,1,,,,,,,,,,,,,,,,,,,,,,,,,,,,,,,,,,,,,,,
,,,,,,,,2023-08-16_08h38.40.848,HF_wild_card,2022.2.4,Win32,59.99880002,5e9c8fed2d191903edc5d16b,64d2fd46c836a06233681665,64dc7ce6cd581e52bf779d94,,,,,,,sngl,resources/Empty.png,resources/DR.BMP,WildCard_NonEx,0.23046875,0,1,0,0,0.6447,optionRight,55,8460,4,29,0,29,0,1,,,,,,,,,,,,,,,,,,,,,,,,,,,,,,,,,,,,,,,
,,,,,,,,2023-08-16_08h38.40.848,HF_wild_card,2022.2.4,Win32,59.99880002,5e9c8fed2d191903edc5d16b,64d2fd46c836a06233681665,64dc7ce6cd581e52bf779d94,,,,,,,sngl,resources/Empty.png,resources/DBN.BMP,Door3,0.234375,0.002604167,1,0,0,0.6588,optionRight,70,8530,4,30,0,30,0,1,,,,,,,,,,,,,,,,,,,,,,,,,,,,,,,,,,,,,,,
,,,,,,,,2023-08-16_08h38.40.848,HF_wild_card,2022.2.4,Win32,59.99880002,5e9c8fed2d191903edc5d16b,64d2fd46c836a06233681665,64dc7ce6cd581e52bf779d94,,,,,,,ctch,resources/DG.BMP,resources/DBN.BMP,Door3,0.29296875,0.002604167,1,0,0,1.0485,optionRight,70,8600,4,31,0,31,0,1,,,,,,,,,,,,,,,,,,,,,,,,,,,,,,,,,,,,,,,
,,,,,,,,2023-08-16_08h38.40.848,HF_wild_card,2022.2.4,Win32,59.99880002,5e9c8fed2d191903edc5d16b,64d2fd46c836a06233681665,64dc7ce6cd581e52bf779d94,,,,,,,decisionTrl,resources/DP.BMP,resources/DBN.BMP,Door4,-0.446614583,0.028645833,1,0,0,6.4282,optionLeft,60,8660,4,32,0,32,0,1,,,,,,,,,,,,,,,,,,,,,,,,,,,,,,,,,,,,,,,
,,,,,,,,2023-08-16_08h38.40.848,HF_wild_card,2022.2.4,Win32,59.99880002,5e9c8fed2d191903edc5d16b,64d2fd46c836a06233681665,64dc7ce6cd581e52bf779d94,,,,,,,decisionTrl,resources/DG.BMP,resources/DY.BMP,Door1,0.20703125,-0.036458333,1,0,0,2.2125,optionRight,30,8690,4,33,0,33,0,1,,,,,,,,,,,,,,,,,,,,,,,,,,,,,,,,,,,,,,,
,,,,,,,,2023-08-16_08h38.40.848,HF_wild_card,2022.2.4,Win32,59.99880002,5e9c8fed2d191903edc5d16b,64d2fd46c836a06233681665,64dc7ce6cd581e52bf779d94,,,,,,,decisionTrl,resources/DR.BMP,resources/DP.BMP,Door4,0.166666667,-0.10546875,1,0,0,2.5114,optionRight,80,8770,4,34,0,34,0,1,,,,,,,,,,,,,,,,,,,,,,,,,,,,,,,,,,,,,,,
,,,,,,,,2023-08-16_08h38.40.848,HF_wild_card,2022.2.4,Win32,59.99880002,5e9c8fed2d191903edc5d16b,64d2fd46c836a06233681665,64dc7ce6cd581e52bf779d94,,,,,,,ctch,resources/DBN.BMP,resources/DG.BMP,Door3,-0.364583333,-0.002604167,1,0,0,1.1942,optionLeft,70,8840,4,35,0,35,0,1,,,,,,,,,,,,,,,,,,,,,,,,,,,,,,,,,,,,,,,
,,,,,,,,2023-08-16_08h38.40.848,HF_wild_card,2022.2.4,Win32,59.99880002,5e9c8fed2d191903edc5d16b,64d2fd46c836a06233681665,64dc7ce6cd581e52bf779d94,,,,,,,sngl,resources/DG.BMP,resources/Empty.png,Door2,-0.244791667,0.006510417,1,0,0,0.6453,optionLeft,20,8860,4,36,0,36,0,1,,,,,,,,,,,,,,,,,,,,,,,,,,,,,,,,,,,,,,,
,,,,,,,,2023-08-16_08h38.40.848,HF_wild_card,2022.2.4,Win32,59.99880002,5e9c8fed2d191903edc5d16b,64d2fd46c836a06233681665,64dc7ce6cd581e52bf779d94,,,,,,,decisionTrl,resources/DG.BMP,resources/DY.BMP,Door2,-0.3125,0.0078125,1,0,0,1.0785,optionLeft,40,8900,4,37,0,37,0,1,,,,,,,,,,,,,,,,,,,,,,,,,,,,,,,,,,,,,,,
,,,,,,,,2023-08-16_08h38.40.848,HF_wild_card,2022.2.4,Win32,59.99880002,5e9c8fed2d191903edc5d16b,64d2fd46c836a06233681665,64dc7ce6cd581e52bf779d94,,,,,,,decisionTrl,resources/DR.BMP,resources/DBN.BMP,Door3,0.279947917,0.044270833,1,0,0,3.6121,optionRight,70,8970,4,38,0,38,0,1,,,,,,,,,,,,,,,,,,,,,,,,,,,,,,,,,,,,,,,
,,,,,,,,2023-08-16_08h38.40.848,HF_wild_card,2022.2.4,Win32,59.99880002,5e9c8fed2d191903edc5d16b,64d2fd46c836a06233681665,64dc7ce6cd581e52bf779d94,,,,,,,ctch,resources/DG.BMP,resources/DBN.BMP,Door3,0.313802083,0.018229167,1,0,0,1.046,optionRight,70,9040,4,39,0,39,0,1,,,,,,,,,,,,,,,,,,,,,,,,,,,,,,,,,,,,,,,
,,,,,,,,2023-08-16_08h38.40.848,HF_wild_card,2022.2.4,Win32,59.99880002,5e9c8fed2d191903edc5d16b,64d2fd46c836a06233681665,64dc7ce6cd581e52bf779d94,,,,,,,decisionTrl,resources/DY.BMP,resources/DG.BMP,Door1,-0.16015625,-0.01953125,1,0,0,4.0268,optionLeft,30,9070,4,40,0,40,0,1,,,,,,,,,,,,,,,,,,,,,,,,,,,,,,,,,,,,,,,
,,,,,,,,2023-08-16_08h38.40.848,HF_wild_card,2022.2.4,Win32,59.99880002,5e9c8fed2d191903edc5d16b,64d2fd46c836a06233681665,64dc7ce6cd581e52bf779d94,,,,,,,decisionTrl,resources/DBN.BMP,resources/DP.BMP,Door4,0.302083333,0.002604167,1,0,0,3.0935,optionRight,60,9130,4,41,0,41,0,1,,,,,,,,,,,,,,,,,,,,,,,,,,,,,,,,,,,,,,,
,,,,,,,,2023-08-16_08h38.40.848,HF_wild_card,2022.2.4,Win32,59.99880002,5e9c8fed2d191903edc5d16b,64d2fd46c836a06233681665,64dc7ce6cd581e52bf779d94,,,,,,,sngl,resources/DY.BMP,resources/Empty.png,Door1,-0.18359375,0.016927083,1,0,0,0.6417,optionLeft,30,9160,4,42,0,42,0,1,,,,,,,,,,,,,,,,,,,,,,,,,,,,,,,,,,,,,,,
,,,,,,,,2023-08-16_08h38.40.848,HF_wild_card,2022.2.4,Win32,59.99880002,5e9c8fed2d191903edc5d16b,64d2fd46c836a06233681665,64dc7ce6cd581e52bf779d94,,,,,,,ctch,resources/DY.BMP,resources/DP.BMP,Door4,0.2890625,0.00390625,1,0,0,1.3653,optionRight,80,9240,4,43,0,43,0,1,,,,,,,,,,,,,,,,,,,,,,,,,,,,,,,,,,,,,,,
,,,,,,,,2023-08-16_08h38.40.848,HF_wild_card,2022.2.4,Win32,59.99880002,5e9c8fed2d191903edc5d16b,64d2fd46c836a06233681665,64dc7ce6cd581e52bf779d94,,,,,,,,,,,,,,,,,,,,,,,,,,3,0,3,0,1,,,,,,,,,,,,,,,,,,,,,,,,,,,,,,,,,,
,,,,,,,,2023-08-16_08h38.40.848,HF_wild_card,2022.2.4,Win32,59.99880002,5e9c8fed2d191903edc5d16b,64d2fd46c836a06233681665,64dc7ce6cd581e52bf779d94,,,,,,,decisionTrl,resources/DBN.BMP,resources/DP.BMP,Door3,-0.26953125,-0.098958333,1,0,0,1.4738,optionLeft,70,9310,5,0,0,0,0,1,,,,,,,,,,,,,,,,,,,,,,,,,,,,,,,,,,,,,,,
,,,,,,,,2023-08-16_08h38.40.848,HF_wild_card,2022.2.4,Win32,59.99880002,5e9c8fed2d191903edc5d16b,64d2fd46c836a06233681665,64dc7ce6cd581e52bf779d94,,,,,,,decisionTrl,resources/DG.BMP,resources/DY.BMP,Door1,0.119791667,-0.055989583,1,0,0,1.4318,optionRight,30,9340,5,1,0,1,0,1,,,,,,,,,,,,,,,,,,,,,,,,,,,,,,,,,,,,,,,
,,,,,,,,2023-08-16_08h38.40.848,HF_wild_card,2022.2.4,Win32,59.99880002,5e9c8fed2d191903edc5d16b,64d2fd46c836a06233681665,64dc7ce6cd581e52bf779d94,,,,,,,sngl,resources/Empty.png,resources/DR.BMP,WildCard_NonEx,0.2890625,0.009114583,1,0,0,0.7116,optionRight,45,9385,5,2,0,2,0,1,,,,,,,,,,,,,,,,,,,,,,,,,,,,,,,,,,,,,,,
,,,,,,,,2023-08-16_08h38.40.848,HF_wild_card,2022.2.4,Win32,59.99880002,5e9c8fed2d191903edc5d16b,64d2fd46c836a06233681665,64dc7ce6cd581e52bf779d94,,,,,,,decisionTrl,resources/DG.BMP,resources/DR.BMP,WildCard_NonEx,0.27734375,-0.015625,1,0,0,1.5883,optionRight,55,9440,5,3,0,3,0,1,,,,,,,,,,,,,,,,,,,,,,,,,,,,,,,,,,,,,,,
,,,,,,,,2023-08-16_08h38.40.848,HF_wild_card,2022.2.4,Win32,59.99880002,5e9c8fed2d191903edc5d16b,64d2fd46c836a06233681665,64dc7ce6cd581e52bf779d94,,,,,,,ctch,resources/DP.BMP,resources/DY.BMP,Door4,-0.248697917,0.01171875,1,0,0,1.7662,optionLeft,80,9520,5,4,0,4,0,1,,,,,,,,,,,,,,,,,,,,,,,,,,,,,,,,,,,,,,,
,,,,,,,,2023-08-16_08h38.40.848,HF_wild_card,2022.2.4,Win32,59.99880002,5e9c8fed2d191903edc5d16b,64d2fd46c836a06233681665,64dc7ce6cd581e52bf779d94,,,,,,,decisionTrl,resources/DY.BMP,resources/DG.BMP,Door2,0.29296875,-0.0625,1,0,0,2.3756,optionRight,20,9540,5,5,0,5,0,1,,,,,,,,,,,,,,,,,,,,,,,,,,,,,,,,,,,,,,,
,,,,,,,,2023-08-16_08h38.40.848,HF_wild_card,2022.2.4,Win32,59.99880002,5e9c8fed2d191903edc5d16b,64d2fd46c836a06233681665,64dc7ce6cd581e52bf779d94,,,,,,,decisionTrl,resources/DP.BMP,resources/DBN.BMP,Door3,0.33203125,-0.015625,1,0,0,0.9115,optionRight,70,9610,5,6,0,6,0,1,,,,,,,,,,,,,,,,,,,,,,,,,,,,,,,,,,,,,,,
,,,,,,,,2023-08-16_08h38.40.848,HF_wild_card,2022.2.4,Win32,59.99880002,5e9c8fed2d191903edc5d16b,64d2fd46c836a06233681665,64dc7ce6cd581e52bf779d94,,,,,,,ctch,resources/DP.BMP,resources/DY.BMP,Door4,-0.243489583,0.002604167,1,0,0,1.0287,optionLeft,80,9690,5,7,0,7,0,1,,,,,,,,,,,,,,,,,,,,,,,,,,,,,,,,,,,,,,,
,,,,,,,,2023-08-16_08h38.40.848,HF_wild_card,2022.2.4,Win32,59.99880002,5e9c8fed2d191903edc5d16b,64d2fd46c836a06233681665,64dc7ce6cd581e52bf779d94,,,,,,,sngl,resources/DP.BMP,resources/Empty.png,Door4,-0.209635417,-0.001302083,1,0,0,0.7613,optionLeft,80,9770,5,8,0,8,0,1,,,,,,,,,,,,,,,,,,,,,,,,,,,,,,,,,,,,,,,
,,,,,,,,2023-08-16_08h38.40.848,HF_wild_card,2022.2.4,Win32,59.99880002,5e9c8fed2d191903edc5d16b,64d2fd46c836a06233681665,64dc7ce6cd581e52bf779d94,,,,,,,decisionTrl,resources/DY.BMP,resources/DG.BMP,Door1,-0.227864583,0.002604167,1,0,0,3.8754,optionLeft,30,9800,5,9,0,9,0,1,,,,,,,,,,,,,,,,,,,,,,,,,,,,,,,,,,,,,,,
,,,,,,,,2023-08-16_08h38.40.848,HF_wild_card,2022.2.4,Win32,59.99880002,5e9c8fed2d191903edc5d16b,64d2fd46c836a06233681665,64dc7ce6cd581e52bf779d94,,,,,,,sngl,resources/DR.BMP,resources/Empty.png,WildCard_NonEx,-0.22265625,0.005208333,1,0,0,0.6942,optionLeft,55,9855,5,10,0,10,0,1,,,,,,,,,,,,,,,,,,,,,,,,,,,,,,,,,,,,,,,
,,,,,,,,2023-08-16_08h38.40.848,HF_wild_card,2022.2.4,Win32,59.99880002,5e9c8fed2d191903edc5d16b,64d2fd46c836a06233681665,64dc7ce6cd581e52bf779d94,,,,,,,decisionTrl,resources/DG.BMP,resources/DY.BMP,Door1,0.30859375,0.002604167,1,0,0,1.6111,optionRight,30,9885,5,11,0,11,0,1,,,,,,,,,,,,,,,,,,,,,,,,,,,,,,,,,,,,,,,
,,,,,,,,2023-08-16_08h38.40.848,HF_wild_card,2022.2.4,Win32,59.99880002,5e9c8fed2d191903edc5d16b,64d2fd46c836a06233681665,64dc7ce6cd581e52bf779d94,,,,,,,decisionTrl,resources/DP.BMP,resources/DBN.BMP,Door4,-0.213541667,0.018229167,1,0,0,3.3285,optionLeft,80,9965,5,12,0,12,0,1,,,,,,,,,,,,,,,,,,,,,,,,,,,,,,,,,,,,,,,
,,,,,,,,2023-08-16_08h38.40.848,HF_wild_card,2022.2.4,Win32,59.99880002,5e9c8fed2d191903edc5d16b,64d2fd46c836a06233681665,64dc7ce6cd581e52bf779d94,,,,,,,decisionTrl,resources/DBN.BMP,resources/DP.BMP,Door3,-0.270833333,0.018229167,1,0,0,1.856,optionLeft,70,10035,5,13,0,13,0,1,,,,,,,,,,,,,,,,,,,,,,,,,,,,,,,,,,,,,,,
,,,,,,,,2023-08-16_08h38.40.848,HF_wild_card,2022.2.4,Win32,59.99880002,5e9c8fed2d191903edc5d16b,64d2fd46c836a06233681665,64dc7ce6cd581e52bf779d94,,,,,,,decisionTrl,resources/DP.BMP,resources/DR.BMP,Door4,-0.248697917,0.0234375,1,0,0,1.812,optionLeft,60,10095,5,14,0,14,0,1,,,,,,,,,,,,,,,,,,,,,,,,,,,,,,,,,,,,,,,
,,,,,,,,2023-08-16_08h38.40.848,HF_wild_card,2022.2.4,Win32,59.99880002,5e9c8fed2d191903edc5d16b,64d2fd46c836a06233681665,64dc7ce6cd581e52bf779d94,,,,,,,decisionTrl,resources/DY.BMP,resources/DR.BMP,WildCard_NonEx,0.265625,0.010416667,1,0,0,1.2784,optionRight,45,10140,5,15,0,15,0,1,,,,,,,,,,,,,,,,,,,,,,,,,,,,,,,,,,,,,,,
,,,,,,,,2023-08-16_08h38.40.848,HF_wild_card,2022.2.4,Win32,59.99880002,5e9c8fed2d191903edc5d16b,64d2fd46c836a06233681665,64dc7ce6cd581e52bf779d94,,,,,,,decisionTrl,resources/DP.BMP,resources/DBN.BMP,Door4,-0.2421875,0.01953125,1,0,0,2.0454,optionLeft,80,10220,5,16,0,16,0,1,,,,,,,,,,,,,,,,,,,,,,,,,,,,,,,,,,,,,,,
,,,,,,,,2023-08-16_08h38.40.848,HF_wild_card,2022.2.4,Win32,59.99880002,5e9c8fed2d191903edc5d16b,64d2fd46c836a06233681665,64dc7ce6cd581e52bf779d94,,,,,,,decisionTrl,resources/DG.BMP,resources/DY.BMP,Door1,0.15234375,-0.0390625,1,0,0,3.2793,optionRight,30,10250,5,17,0,17,0,1,,,,,,,,,,,,,,,,,,,,,,,,,,,,,,,,,,,,,,,
,,,,,,,,2023-08-16_08h38.40.848,HF_wild_card,2022.2.4,Win32,59.99880002,5e9c8fed2d191903edc5d16b,64d2fd46c836a06233681665,64dc7ce6cd581e52bf779d94,,,,,,,decisionTrl,resources/DR.BMP,resources/DP.BMP,Door4,0.24609375,-0.01953125,1,0,0,2.4934,optionRight,60,10310,5,18,0,18,0,1,,,,,,,,,,,,,,,,,,,,,,,,,,,,,,,,,,,,,,,
,,,,,,,,2023-08-16_08h38.40.848,HF_wild_card,2022.2.4,Win32,59.99880002,5e9c8fed2d191903edc5d16b,64d2fd46c836a06233681665,64dc7ce6cd581e52bf779d94,,,,,,,decisionTrl,resources/DR.BMP,resources/DBN.BMP,WildCard_NonEx,-0.205729167,0.046875,1,0,0,3.277,optionLeft,55,10365,5,19,0,19,0,1,,,,,,,,,,,,,,,,,,,,,,,,,,,,,,,,,,,,,,,
,,,,,,,,2023-08-16_08h38.40.848,HF_wild_card,2022.2.4,Win32,59.99880002,5e9c8fed2d191903edc5d16b,64d2fd46c836a06233681665,64dc7ce6cd581e52bf779d94,,,,,,,sngl,resources/Empty.png,resources/DY.BMP,Door1,0.17578125,0.022135417,1,0,0,0.6761,optionRight,30,10395,5,20,0,20,0,1,,,,,,,,,,,,,,,,,,,,,,,,,,,,,,,,,,,,,,,
,,,,,,,,2023-08-16_08h38.40.848,HF_wild_card,2022.2.4,Win32,59.99880002,5e9c8fed2d191903edc5d16b,64d2fd46c836a06233681665,64dc7ce6cd581e52bf779d94,,,,,,,decisionTrl,resources/DY.BMP,resources/DG.BMP,Door1,-0.184895833,0.029947917,1,0,0,1.8746,optionLeft,30,10425,5,21,0,21,0,1,,,,,,,,,,,,,,,,,,,,,,,,,,,,,,,,,,,,,,,
,,,,,,,,2023-08-16_08h38.40.848,HF_wild_card,2022.2.4,Win32,59.99880002,5e9c8fed2d191903edc5d16b,64d2fd46c836a06233681665,64dc7ce6cd581e52bf779d94,,,,,,,sngl,resources/DY.BMP,resources/Empty.png,Door1,-0.18359375,0.018229167,1,0,0,0.7262,optionLeft,30,10455,5,22,0,22,0,1,,,,,,,,,,,,,,,,,,,,,,,,,,,,,,,,,,,,,,,
,,,,,,,,2023-08-16_08h38.40.848,HF_wild_card,2022.2.4,Win32,59.99880002,5e9c8fed2d191903edc5d16b,64d2fd46c836a06233681665,64dc7ce6cd581e52bf779d94,,,,,,,decisionTrl,resources/DBN.BMP,resources/DR.BMP,Door3,-0.2421875,0.01171875,1,0,0,1.3786,optionLeft,70,10525,5,23,0,23,0,1,,,,,,,,,,,,,,,,,,,,,,,,,,,,,,,,,,,,,,,
,,,,,,,,2023-08-16_08h38.40.848,HF_wild_card,2022.2.4,Win32,59.99880002,5e9c8fed2d191903edc5d16b,64d2fd46c836a06233681665,64dc7ce6cd581e52bf779d94,,,,,,,decisionTrl,resources/DP.BMP,resources/DBN.BMP,Door4,-0.13671875,-0.001302083,1,0,0,1.6436,optionLeft,60,10585,5,24,0,24,0,1,,,,,,,,,,,,,,,,,,,,,,,,,,,,,,,,,,,,,,,
,,,,,,,,2023-08-16_08h38.40.848,HF_wild_card,2022.2.4,Win32,59.99880002,5e9c8fed2d191903edc5d16b,64d2fd46c836a06233681665,64dc7ce6cd581e52bf779d94,,,,,,,sngl,resources/DR.BMP,resources/Empty.png,WildCard_NonEx,-0.165364583,-0.001302083,1,0,0,0.6414,optionLeft,45,10630,5,25,0,25,0,1,,,,,,,,,,,,,,,,,,,,,,,,,,,,,,,,,,,,,,,
,,,,,,,,2023-08-16_08h38.40.848,HF_wild_card,2022.2.4,Win32,59.99880002,5e9c8fed2d191903edc5d16b,64d2fd46c836a06233681665,64dc7ce6cd581e52bf779d94,,,,,,,sngl,resources/Empty.png,resources/DBN.BMP,Door3,0.21875,-0.006510417,1,0,0,0.71,optionRight,70,10700,5,26,0,26,0,1,,,,,,,,,,,,,,,,,,,,,,,,,,,,,,,,,,,,,,,
,,,,,,,,2023-08-16_08h38.40.848,HF_wild_card,2022.2.4,Win32,59.99880002,5e9c8fed2d191903edc5d16b,64d2fd46c836a06233681665,64dc7ce6cd581e52bf779d94,,,,,,,ctch,resources/DG.BMP,resources/DBN.BMP,Door3,0.2578125,-0.005208333,1,0,0,0.9272,optionRight,70,10770,5,27,0,27,0,1,,,,,,,,,,,,,,,,,,,,,,,,,,,,,,,,,,,,,,,
,,,,,,,,2023-08-16_08h38.40.848,HF_wild_card,2022.2.4,Win32,59.99880002,5e9c8fed2d191903edc5d16b,64d2fd46c836a06233681665,64dc7ce6cd581e52bf779d94,,,,,,,sngl,resources/Empty.png,resources/DR.BMP,WildCard_NonEx,0.239583333,-0.006510417,1,0,0,0.674,optionRight,55,10825,5,28,0,28,0,1,,,,,,,,,,,,,,,,,,,,,,,,,,,,,,,,,,,,,,,
,,,,,,,,2023-08-16_08h38.40.848,HF_wild_card,2022.2.4,Win32,59.99880002,5e9c8fed2d191903edc5d16b,64d2fd46c836a06233681665,64dc7ce6cd581e52bf779d94,,,,,,,decisionTrl,resources/DR.BMP,resources/DY.BMP,WildCard_NonEx,-0.154947917,0.018229167,1,0,0,1.2935,optionLeft,55,10880,5,29,0,29,0,1,,,,,,,,,,,,,,,,,,,,,,,,,,,,,,,,,,,,,,,
,,,,,,,,2023-08-16_08h38.40.848,HF_wild_card,2022.2.4,Win32,59.99880002,5e9c8fed2d191903edc5d16b,64d2fd46c836a06233681665,64dc7ce6cd581e52bf779d94,,,,,,,ctch,resources/DY.BMP,resources/DP.BMP,Door4,0.252604167,0.016927083,1,0,0,0.9935,optionRight,80,10960,5,30,0,30,0,1,,,,,,,,,,,,,,,,,,,,,,,,,,,,,,,,,,,,,,,
,,,,,,,,2023-08-16_08h38.40.848,HF_wild_card,2022.2.4,Win32,59.99880002,5e9c8fed2d191903edc5d16b,64d2fd46c836a06233681665,64dc7ce6cd581e52bf779d94,,,,,,,decisionTrl,resources/DBN.BMP,resources/DP.BMP,Door4,0.204427083,0.015625,1,0,0,0.7774,optionRight,80,11040,5,31,0,31,0,1,,,,,,,,,,,,,,,,,,,,,,,,,,,,,,,,,,,,,,,
,,,,,,,,2023-08-16_08h38.40.848,HF_wild_card,2022.2.4,Win32,59.99880002,5e9c8fed2d191903edc5d16b,64d2fd46c836a06233681665,64dc7ce6cd581e52bf779d94,,,,,,,sngl,resources/Empty.png,resources/DG.BMP,Door2,0.216145833,0.014322917,1,0,0,0.7434,optionRight,20,11060,5,32,0,32,0,1,,,,,,,,,,,,,,,,,,,,,,,,,,,,,,,,,,,,,,,
,,,,,,,,2023-08-16_08h38.40.848,HF_wild_card,2022.2.4,Win32,59.99880002,5e9c8fed2d191903edc5d16b,64d2fd46c836a06233681665,64dc7ce6cd581e52bf779d94,,,,,,,decisionTrl,resources/DBN.BMP,resources/DP.BMP,Door4,0.22265625,-0.0390625,1,0,0,2.9763,optionRight,80,11140,5,33,0,33,0,1,,,,,,,,,,,,,,,,,,,,,,,,,,,,,,,,,,,,,,,
,,,,,,,,2023-08-16_08h38.40.848,HF_wild_card,2022.2.4,Win32,59.99880002,5e9c8fed2d191903edc5d16b,64d2fd46c836a06233681665,64dc7ce6cd581e52bf779d94,,,,,,,decisionTrl,resources/DY.BMP,resources/DG.BMP,Door1,-0.126302083,-0.00390625,1,0,0,1.7087,optionLeft,30,11170,5,34,0,34,0,1,,,,,,,,,,,,,,,,,,,,,,,,,,,,,,,,,,,,,,,
,,,,,,,,2023-08-16_08h38.40.848,HF_wild_card,2022.2.4,Win32,59.99880002,5e9c8fed2d191903edc5d16b,64d2fd46c836a06233681665,64dc7ce6cd581e52bf779d94,,,,,,,ctch,resources/DG.BMP,resources/DBN.BMP,Door3,0.274739583,0.001302083,1,0,0,0.9613,optionRight,70,11240,5,35,0,35,0,1,,,,,,,,,,,,,,,,,,,,,,,,,,,,,,,,,,,,,,,
,,,,,,,,2023-08-16_08h38.40.848,HF_wild_card,2022.2.4,Win32,59.99880002,5e9c8fed2d191903edc5d16b,64d2fd46c836a06233681665,64dc7ce6cd581e52bf779d94,,,,,,,sngl,resources/DG.BMP,resources/Empty.png,Door2,-0.188802083,0.001302083,1,0,0,0.7784,optionLeft,40,11280,5,36,0,36,0,1,,,,,,,,,,,,,,,,,,,,,,,,,,,,,,,,,,,,,,,
,,,,,,,,2023-08-16_08h38.40.848,HF_wild_card,2022.2.4,Win32,59.99880002,5e9c8fed2d191903edc5d16b,64d2fd46c836a06233681665,64dc7ce6cd581e52bf779d94,,,,,,,ctch,resources/DY.BMP,resources/DP.BMP,Door4,0.221354167,0.024739583,1,0,0,0.7767,optionRight,80,11360,5,37,0,37,0,1,,,,,,,,,,,,,,,,,,,,,,,,,,,,,,,,,,,,,,,
,,,,,,,,2023-08-16_08h38.40.848,HF_wild_card,2022.2.4,Win32,59.99880002,5e9c8fed2d191903edc5d16b,64d2fd46c836a06233681665,64dc7ce6cd581e52bf779d94,,,,,,,sngl,resources/Empty.png,resources/DP.BMP,Door4,0.291666667,0.020833333,1,0,0,1.0065,optionRight,60,11420,5,38,0,38,0,1,,,,,,,,,,,,,,,,,,,,,,,,,,,,,,,,,,,,,,,
,,,,,,,,2023-08-16_08h38.40.848,HF_wild_card,2022.2.4,Win32,59.99880002,5e9c8fed2d191903edc5d16b,64d2fd46c836a06233681665,64dc7ce6cd581e52bf779d94,,,,,,,decisionTrl,resources/DG.BMP,resources/DY.BMP,Door1,0.16796875,0.006510417,1,0,0,2.5559,optionRight,30,11450,5,39,0,39,0,1,,,,,,,,,,,,,,,,,,,,,,,,,,,,,,,,,,,,,,,
,,,,,,,,2023-08-16_08h38.40.848,HF_wild_card,2022.2.4,Win32,59.99880002,5e9c8fed2d191903edc5d16b,64d2fd46c836a06233681665,64dc7ce6cd581e52bf779d94,,,,,,,sngl,resources/DBN.BMP,resources/Empty.png,Door3,-0.192708333,0.006510417,1,0,0,0.6344,optionLeft,70,11520,5,40,0,40,0,1,,,,,,,,,,,,,,,,,,,,,,,,,,,,,,,,,,,,,,,
,,,,,,,,2023-08-16_08h38.40.848,HF_wild_card,2022.2.4,Win32,59.99880002,5e9c8fed2d191903edc5d16b,64d2fd46c836a06233681665,64dc7ce6cd581e52bf779d94,,,,,,,ctch,resources/DBN.BMP,resources/DG.BMP,Door3,-0.2109375,0.005208333,1,0,0,1.2438,optionLeft,70,11590,5,41,0,41,0,1,,,,,,,,,,,,,,,,,,,,,,,,,,,,,,,,,,,,,,,
,,,,,,,,2023-08-16_08h38.40.848,HF_wild_card,2022.2.4,Win32,59.99880002,5e9c8fed2d191903edc5d16b,64d2fd46c836a06233681665,64dc7ce6cd581e52bf779d94,,,,,,,ctch,resources/DBN.BMP,resources/DG.BMP,Door3,-0.25,-0.015625,1,0,0,1.0597,optionLeft,70,11660,5,42,0,42,0,1,,,,,,,,,,,,,,,,,,,,,,,,,,,,,,,,,,,,,,,
,,,,,,,,2023-08-16_08h38.40.848,HF_wild_card,2022.2.4,Win32,59.99880002,5e9c8fed2d191903edc5d16b,64d2fd46c836a06233681665,64dc7ce6cd581e52bf779d94,,,,,,,decisionTrl,resources/DR.BMP,resources/DG.BMP,WildCard_NonEx,-0.322916667,-0.0546875,1,0,0,1.1965,optionLeft,45,11705,5,43,0,43,0,1,,,,,,,,,,,,,,,,,,,,,,,,,,,,,,,,,,,,,,,
,,,,,,,,2023-08-16_08h38.40.848,HF_wild_card,2022.2.4,Win32,59.99880002,5e9c8fed2d191903edc5d16b,64d2fd46c836a06233681665,64dc7ce6cd581e52bf779d94,,,,,,,,,,,,,,,,,,,,,,,,,,4,0,4,0,1,,,,,,,,,,,,,,,,,,,,,,,,,,,,,,,,,,
,,,,,,,,2023-08-16_08h38.40.848,HF_wild_card,2022.2.4,Win32,59.99880002,5e9c8fed2d191903edc5d16b,64d2fd46c836a06233681665,64dc7ce6cd581e52bf779d94,,,,,,,decisionTrl,resources/DR.BMP,resources/DG.BMP,WildCard_NonEx,-0.266927083,-0.092447917,1,0,0,1.2236,optionLeft,45,11750,6,0,0,0,0,1,,,,,,,,,,,,,,,,,,,,,,,,,,,,,,,,,,,,,,,
,,,,,,,,2023-08-16_08h38.40.848,HF_wild_card,2022.2.4,Win32,59.99880002,5e9c8fed2d191903edc5d16b,64d2fd46c836a06233681665,64dc7ce6cd581e52bf779d94,,,,,,,decisionTrl,resources/DY.BMP,resources/DG.BMP,Door1,-0.16796875,-0.048177083,1,0,0,1.3788,optionLeft,30,11780,6,1,0,1,0,1,,,,,,,,,,,,,,,,,,,,,,,,,,,,,,,,,,,,,,,
,,,,,,,,2023-08-16_08h38.40.848,HF_wild_card,2022.2.4,Win32,59.99880002,5e9c8fed2d191903edc5d16b,64d2fd46c836a06233681665,64dc7ce6cd581e52bf779d94,,,,,,,sngl,resources/Empty.png,resources/DR.BMP,WildCard_NonEx,0.231770833,-0.01171875,1,0,0,0.688,optionRight,55,11835,6,2,0,2,0,1,,,,,,,,,,,,,,,,,,,,,,,,,,,,,,,,,,,,,,,
,,,,,,,,2023-08-16_08h38.40.848,HF_wild_card,2022.2.4,Win32,59.99880002,5e9c8fed2d191903edc5d16b,64d2fd46c836a06233681665,64dc7ce6cd581e52bf779d94,,,,,,,ctch,resources/DG.BMP,resources/DBN.BMP,Door3,0.259114583,0.005208333,1,0,0,0.9778,optionRight,70,11905,6,3,0,3,0,1,,,,,,,,,,,,,,,,,,,,,,,,,,,,,,,,,,,,,,,
,,,,,,,,2023-08-16_08h38.40.848,HF_wild_card,2022.2.4,Win32,59.99880002,5e9c8fed2d191903edc5d16b,64d2fd46c836a06233681665,64dc7ce6cd581e52bf779d94,,,,,,,decisionTrl,resources/DG.BMP,resources/DR.BMP,WildCard_NonEx,0.234375,0.02734375,1,0,0,3.2785,optionRight,55,11960,6,4,0,4,0,1,,,,,,,,,,,,,,,,,,,,,,,,,,,,,,,,,,,,,,,
,,,,,,,,2023-08-16_08h38.40.848,HF_wild_card,2022.2.4,Win32,59.99880002,5e9c8fed2d191903edc5d16b,64d2fd46c836a06233681665,64dc7ce6cd581e52bf779d94,,,,,,,sngl,resources/Empty.png,resources/DBN.BMP,Door3,0.229166667,0.020833333,1,0,0,0.7057,optionRight,70,12030,6,5,0,5,0,1,,,,,,,,,,,,,,,,,,,,,,,,,,,,,,,,,,,,,,,
,,,,,,,,2023-08-16_08h38.40.848,HF_wild_card,2022.2.4,Win32,59.99880002,5e9c8fed2d191903edc5d16b,64d2fd46c836a06233681665,64dc7ce6cd581e52bf779d94,,,,,,,decisionTrl,resources/DP.BMP,resources/DBN.BMP,Door4,-0.23046875,0.009114583,1,0,0,1.3946,optionLeft,80,12110,6,6,0,6,0,1,,,,,,,,,,,,,,,,,,,,,,,,,,,,,,,,,,,,,,,
,,,,,,,,2023-08-16_08h38.40.848,HF_wild_card,2022.2.4,Win32,59.99880002,5e9c8fed2d191903edc5d16b,64d2fd46c836a06233681665,64dc7ce6cd581e52bf779d94,,,,,,,decisionTrl,resources/DG.BMP,resources/DY.BMP,Door1,0.166666667,0.015625,1,0,0,2.7787,optionRight,30,12140,6,7,0,7,0,1,,,,,,,,,,,,,,,,,,,,,,,,,,,,,,,,,,,,,,,
,,,,,,,,2023-08-16_08h38.40.848,HF_wild_card,2022.2.4,Win32,59.99880002,5e9c8fed2d191903edc5d16b,64d2fd46c836a06233681665,64dc7ce6cd581e52bf779d94,,,,,,,decisionTrl,resources/DBN.BMP,resources/DP.BMP,Door3,-0.25390625,-0.010416667,1,0,0,3.7311,optionLeft,70,12210,6,8,0,8,0,1,,,,,,,,,,,,,,,,,,,,,,,,,,,,,,,,,,,,,,,
,,,,,,,,2023-08-16_08h38.40.848,HF_wild_card,2022.2.4,Win32,59.99880002,5e9c8fed2d191903edc5d16b,64d2fd46c836a06233681665,64dc7ce6cd581e52bf779d94,,,,,,,decisionTrl,resources/DBN.BMP,resources/DR.BMP,Door3,-0.234375,-0.022135417,1,0,0,1.1607,optionLeft,70,12280,6,9,0,9,0,1,,,,,,,,,,,,,,,,,,,,,,,,,,,,,,,,,,,,,,,
,,,,,,,,2023-08-16_08h38.40.848,HF_wild_card,2022.2.4,Win32,59.99880002,5e9c8fed2d191903edc5d16b,64d2fd46c836a06233681665,64dc7ce6cd581e52bf779d94,,,,,,,ctch,resources/DP.BMP,resources/DY.BMP,Door4,-0.25,0.00390625,1,0,0,0.9601,optionLeft,80,12360,6,10,0,10,0,1,,,,,,,,,,,,,,,,,,,,,,,,,,,,,,,,,,,,,,,
,,,,,,,,2023-08-16_08h38.40.848,HF_wild_card,2022.2.4,Win32,59.99880002,5e9c8fed2d191903edc5d16b,64d2fd46c836a06233681665,64dc7ce6cd581e52bf779d94,,,,,,,decisionTrl,resources/DY.BMP,resources/DG.BMP,Door1,-0.234375,0.002604167,1,0,0,0.845,optionLeft,30,12390,6,11,0,11,0,1,,,,,,,,,,,,,,,,,,,,,,,,,,,,,,,,,,,,,,,
,,,,,,,,2023-08-16_08h38.40.848,HF_wild_card,2022.2.4,Win32,59.99880002,5e9c8fed2d191903edc5d16b,64d2fd46c836a06233681665,64dc7ce6cd581e52bf779d94,,,,,,,ctch,resources/DBN.BMP,resources/DG.BMP,Door3,-0.233072917,0.001302083,1,0,0,0.8594,optionLeft,70,12460,6,12,0,12,0,1,,,,,,,,,,,,,,,,,,,,,,,,,,,,,,,,,,,,,,,
,,,,,,,,2023-08-16_08h38.40.848,HF_wild_card,2022.2.4,Win32,59.99880002,5e9c8fed2d191903edc5d16b,64d2fd46c836a06233681665,64dc7ce6cd581e52bf779d94,,,,,,,decisionTrl,resources/DP.BMP,resources/DR.BMP,Door4,-0.1484375,0.005208333,1,0,0,1.2298,optionLeft,80,12540,6,13,0,13,0,1,,,,,,,,,,,,,,,,,,,,,,,,,,,,,,,,,,,,,,,
,,,,,,,,2023-08-16_08h38.40.848,HF_wild_card,2022.2.4,Win32,59.99880002,5e9c8fed2d191903edc5d16b,64d2fd46c836a06233681665,64dc7ce6cd581e52bf779d94,,,,,,,decisionTrl,resources/DG.BMP,resources/DY.BMP,Door1,0.255208333,-0.020833333,1,0,0,2.7779,optionRight,30,12570,6,14,0,14,0,1,,,,,,,,,,,,,,,,,,,,,,,,,,,,,,,,,,,,,,,
,,,,,,,,2023-08-16_08h38.40.848,HF_wild_card,2022.2.4,Win32,59.99880002,5e9c8fed2d191903edc5d16b,64d2fd46c836a06233681665,64dc7ce6cd581e52bf779d94,,,,,,,decisionTrl,resources/DY.BMP,resources/DG.BMP,Door1,-0.220052083,0.018229167,1,0,0,2.2425,optionLeft,30,12600,6,15,0,15,0,1,,,,,,,,,,,,,,,,,,,,,,,,,,,,,,,,,,,,,,,
,,,,,,,,2023-08-16_08h38.40.848,HF_wild_card,2022.2.4,Win32,59.99880002,5e9c8fed2d191903edc5d16b,64d2fd46c836a06233681665,64dc7ce6cd581e52bf779d94,,,,,,,decisionTrl,resources/DY.BMP,resources/DR.BMP,WildCard_NonEx,0.190104167,0.013020833,1,0,0,1.2102,optionRight,45,12645,6,16,0,16,0,1,,,,,,,,,,,,,,,,,,,,,,,,,,,,,,,,,,,,,,,
,,,,,,,,2023-08-16_08h38.40.848,HF_wild_card,2022.2.4,Win32,59.99880002,5e9c8fed2d191903edc5d16b,64d2fd46c836a06233681665,64dc7ce6cd581e52bf779d94,,,,,,,decisionTrl,resources/DR.BMP,resources/DY.BMP,WildCard_NonEx,-0.223958333,0.00390625,1,0,0,1.0088,optionLeft,55,12700,6,17,0,17,0,1,,,,,,,,,,,,,,,,,,,,,,,,,,,,,,,,,,,,,,,
,,,,,,,,2023-08-16_08h38.40.848,HF_wild_card,2022.2.4,Win32,59.99880002,5e9c8fed2d191903edc5d16b,64d2fd46c836a06233681665,64dc7ce6cd581e52bf779d94,,,,,,,sngl,resources/DR.BMP,resources/Empty.png,WildCard_NonEx,-0.2265625,0.002604167,1,0,0,0.5601,optionLeft,45,12745,6,18,0,18,0,1,,,,,,,,,,,,,,,,,,,,,,,,,,,,,,,,,,,,,,,
,,,,,,,,2023-08-16_08h38.40.848,HF_wild_card,2022.2.4,Win32,59.99880002,5e9c8fed2d191903edc5d16b,64d2fd46c836a06233681665,64dc7ce6cd581e52bf779d94,,,,,,,sngl,resources/DBN.BMP,resources/Empty.png,Door3,-0.209635417,0.005208333,1,0,0,0.5915,optionLeft,70,12815,6,19,0,19,0,1,,,,,,,,,,,,,,,,,,,,,,,,,,,,,,,,,,,,,,,
,,,,,,,,2023-08-16_08h38.40.848,HF_wild_card,2022.2.4,Win32,59.99880002,5e9c8fed2d191903edc5d16b,64d2fd46c836a06233681665,64dc7ce6cd581e52bf779d94,,,,,,,decisionTrl,resources/DP.BMP,resources/DBN.BMP,Door4,-0.25390625,0.013020833,1,0,0,1.5765,optionLeft,60,12875,6,20,0,20,0,1,,,,,,,,,,,,,,,,,,,,,,,,,,,,,,,,,,,,,,,
,,,,,,,,2023-08-16_08h38.40.848,HF_wild_card,2022.2.4,Win32,59.99880002,5e9c8fed2d191903edc5d16b,64d2fd46c836a06233681665,64dc7ce6cd581e52bf779d94,,,,,,,decisionTrl,resources/DP.BMP,resources/DBN.BMP,Door4,-0.194010417,0.0234375,1,0,0,0.8443,optionLeft,60,12935,6,21,0,21,0,1,,,,,,,,,,,,,,,,,,,,,,,,,,,,,,,,,,,,,,,
,,,,,,,,2023-08-16_08h38.40.848,HF_wild_card,2022.2.4,Win32,59.99880002,5e9c8fed2d191903edc5d16b,64d2fd46c836a06233681665,64dc7ce6cd581e52bf779d94,,,,,,,ctch,resources/DY.BMP,resources/DP.BMP,Door4,0.231770833,0.0078125,1,0,0,1.5141,optionRight,60,12995,6,22,0,22,0,1,,,,,,,,,,,,,,,,,,,,,,,,,,,,,,,,,,,,,,,
,,,,,,,,2023-08-16_08h38.40.848,HF_wild_card,2022.2.4,Win32,59.99880002,5e9c8fed2d191903edc5d16b,64d2fd46c836a06233681665,64dc7ce6cd581e52bf779d94,,,,,,,sngl,resources/DR.BMP,resources/Empty.png,WildCard_NonEx,-0.177083333,0.0078125,1,0,0,0.5939,optionLeft,55,13050,6,23,0,23,0,1,,,,,,,,,,,,,,,,,,,,,,,,,,,,,,,,,,,,,,,
,,,,,,,,2023-08-16_08h38.40.848,HF_wild_card,2022.2.4,Win32,59.99880002,5e9c8fed2d191903edc5d16b,64d2fd46c836a06233681665,64dc7ce6cd581e52bf779d94,,,,,,,sngl,resources/Empty.png,resources/DP.BMP,Door4,0.186197917,0.002604167,1,0,0,0.5763,optionRight,80,13130,6,24,0,24,0,1,,,,,,,,,,,,,,,,,,,,,,,,,,,,,,,,,,,,,,,
,,,,,,,,2023-08-16_08h38.40.848,HF_wild_card,2022.2.4,Win32,59.99880002,5e9c8fed2d191903edc5d16b,64d2fd46c836a06233681665,64dc7ce6cd581e52bf779d94,,,,,,,decisionTrl,resources/DR.BMP,resources/DP.BMP,Door4,0.212239583,-0.029947917,1,0,0,2.5109,optionRight,80,13210,6,25,0,25,0,1,,,,,,,,,,,,,,,,,,,,,,,,,,,,,,,,,,,,,,,
,,,,,,,,2023-08-16_08h38.40.848,HF_wild_card,2022.2.4,Win32,59.99880002,5e9c8fed2d191903edc5d16b,64d2fd46c836a06233681665,64dc7ce6cd581e52bf779d94,,,,,,,decisionTrl,resources/DY.BMP,resources/DG.BMP,Door1,-0.151041667,-0.026041667,1,0,0,1.1596,optionLeft,30,13240,6,26,0,26,0,1,,,,,,,,,,,,,,,,,,,,,,,,,,,,,,,,,,,,,,,
,,,,,,,,2023-08-16_08h38.40.848,HF_wild_card,2022.2.4,Win32,59.99880002,5e9c8fed2d191903edc5d16b,64d2fd46c836a06233681665,64dc7ce6cd581e52bf779d94,,,,,,,decisionTrl,resources/DBN.BMP,resources/DP.BMP,Door4,0.11328125,-0.010416667,1,0,0,1.6109,optionRight,80,13320,6,27,0,27,0,1,,,,,,,,,,,,,,,,,,,,,,,,,,,,,,,,,,,,,,,
,,,,,,,,2023-08-16_08h38.40.848,HF_wild_card,2022.2.4,Win32,59.99880002,5e9c8fed2d191903edc5d16b,64d2fd46c836a06233681665,64dc7ce6cd581e52bf779d94,,,,,,,sngl,resources/DG.BMP,resources/Empty.png,Door2,-0.161458333,-0.00390625,1,0,0,0.6443,optionLeft,20,13340,6,28,0,28,0,1,,,,,,,,,,,,,,,,,,,,,,,,,,,,,,,,,,,,,,,
,,,,,,,,2023-08-16_08h38.40.848,HF_wild_card,2022.2.4,Win32,59.99880002,5e9c8fed2d191903edc5d16b,64d2fd46c836a06233681665,64dc7ce6cd581e52bf779d94,,,,,,,sngl,resources/Empty.png,resources/DY.BMP,Door1,0.169270833,-0.002604167,1,0,0,0.6098,optionRight,30,13370,6,29,0,29,0,1,,,,,,,,,,,,,,,,,,,,,,,,,,,,,,,,,,,,,,,
,,,,,,,,2023-08-16_08h38.40.848,HF_wild_card,2022.2.4,Win32,59.99880002,5e9c8fed2d191903edc5d16b,64d2fd46c836a06233681665,64dc7ce6cd581e52bf779d94,,,,,,,decisionTrl,resources/DP.BMP,resources/DBN.BMP,Door3,0.184895833,0.0078125,1,0,0,1.8816,optionRight,70,13440,6,30,0,30,0,1,,,,,,,,,,,,,,,,,,,,,,,,,,,,,,,,,,,,,,,
,,,,,,,,2023-08-16_08h38.40.848,HF_wild_card,2022.2.4,Win32,59.99880002,5e9c8fed2d191903edc5d16b,64d2fd46c836a06233681665,64dc7ce6cd581e52bf779d94,,,,,,,ctch,resources/DBN.BMP,resources/DG.BMP,Door3,-0.204427083,0.002604167,1,0,0,0.9783,optionLeft,70,13510,6,31,0,31,0,1,,,,,,,,,,,,,,,,,,,,,,,,,,,,,,,,,,,,,,,
,,,,,,,,2023-08-16_08h38.40.848,HF_wild_card,2022.2.4,Win32,59.99880002,5e9c8fed2d191903edc5d16b,64d2fd46c836a06233681665,64dc7ce6cd581e52bf779d94,,,,,,,decisionTrl,resources/DBN.BMP,resources/DP.BMP,Door4,0.252604167,-0.0234375,1,0,0,2.5552,optionRight,60,13570,6,32,0,32,0,1,,,,,,,,,,,,,,,,,,,,,,,,,,,,,,,,,,,,,,,
,,,,,,,,2023-08-16_08h38.40.848,HF_wild_card,2022.2.4,Win32,59.99880002,5e9c8fed2d191903edc5d16b,64d2fd46c836a06233681665,64dc7ce6cd581e52bf779d94,,,,,,,ctch,resources/DG.BMP,resources/DBN.BMP,Door3,0.239583333,-0.010416667,1,0,0,1.4752,optionRight,70,13640,6,33,0,33,0,1,,,,,,,,,,,,,,,,,,,,,,,,,,,,,,,,,,,,,,,
,,,,,,,,2023-08-16_08h38.40.848,HF_wild_card,2022.2.4,Win32,59.99880002,5e9c8fed2d191903edc5d16b,64d2fd46c836a06233681665,64dc7ce6cd581e52bf779d94,,,,,,,sngl,resources/Empty.png,resources/DG.BMP,Door2,0.244791667,0.006510417,1,0,0,0.7751,optionRight,40,13680,6,34,0,34,0,1,,,,,,,,,,,,,,,,,,,,,,,,,,,,,,,,,,,,,,,
,,,,,,,,2023-08-16_08h38.40.848,HF_wild_card,2022.2.4,Win32,59.99880002,5e9c8fed2d191903edc5d16b,64d2fd46c836a06233681665,64dc7ce6cd581e52bf779d94,,,,,,,decisionTrl,resources/DBN.BMP,resources/DP.BMP,Door4,0.161458333,-0.026041667,1,0,0,2.3773,optionRight,60,13740,6,35,0,35,0,1,,,,,,,,,,,,,,,,,,,,,,,,,,,,,,,,,,,,,,,
,,,,,,,,2023-08-16_08h38.40.848,HF_wild_card,2022.2.4,Win32,59.99880002,5e9c8fed2d191903edc5d16b,64d2fd46c836a06233681665,64dc7ce6cd581e52bf779d94,,,,,,,sngl,resources/DY.BMP,resources/Empty.png,Door1,-0.143229167,-0.01171875,1,0,0,0.5604,optionLeft,30,13770,6,36,0,36,0,1,,,,,,,,,,,,,,,,,,,,,,,,,,,,,,,,,,,,,,,
,,,,,,,,2023-08-16_08h38.40.848,HF_wild_card,2022.2.4,Win32,59.99880002,5e9c8fed2d191903edc5d16b,64d2fd46c836a06233681665,64dc7ce6cd581e52bf779d94,,,,,,,ctch,resources/DP.BMP,resources/DY.BMP,Door4,-0.240885417,-0.006510417,1,0,0,0.8413,optionLeft,60,13830,6,37,0,37,0,1,,,,,,,,,,,,,,,,,,,,,,,,,,,,,,,,,,,,,,,
,,,,,,,,2023-08-16_08h38.40.848,HF_wild_card,2022.2.4,Win32,59.99880002,5e9c8fed2d191903edc5d16b,64d2fd46c836a06233681665,64dc7ce6cd581e52bf779d94,,,,,,,sngl,resources/DP.BMP,resources/Empty.png,Door4,-0.19921875,0.001302083,1,0,0,0.579,optionLeft,60,13890,6,38,0,38,0,1,,,,,,,,,,,,,,,,,,,,,,,,,,,,,,,,,,,,,,,
,,,,,,,,2023-08-16_08h38.40.848,HF_wild_card,2022.2.4,Win32,59.99880002,5e9c8fed2d191903edc5d16b,64d2fd46c836a06233681665,64dc7ce6cd581e52bf779d94,,,,,,,decisionTrl,resources/DR.BMP,resources/DBN.BMP,WildCard_NonEx,-0.192708333,0.0078125,1,0,0,1.9595,optionLeft,45,13935,6,39,0,39,0,1,,,,,,,,,,,,,,,,,,,,,,,,,,,,,,,,,,,,,,,
,,,,,,,,2023-08-16_08h38.40.848,HF_wild_card,2022.2.4,Win32,59.99880002,5e9c8fed2d191903edc5d16b,64d2fd46c836a06233681665,64dc7ce6cd581e52bf779d94,,,,,,,decisionTrl,resources/DG.BMP,resources/DY.BMP,Door1,0.18359375,0.016927083,1,0,0,1.9607,optionRight,30,13965,6,40,0,40,0,1,,,,,,,,,,,,,,,,,,,,,,,,,,,,,,,,,,,,,,,
,,,,,,,,2023-08-16_08h38.40.848,HF_wild_card,2022.2.4,Win32,59.99880002,5e9c8fed2d191903edc5d16b,64d2fd46c836a06233681665,64dc7ce6cd581e52bf779d94,,,,,,,sngl,resources/Empty.png,resources/DR.BMP,WildCard_NonEx,0.205729167,0.015625,1,0,0,0.6936,optionRight,45,14010,6,41,0,41,0,1,,,,,,,,,,,,,,,,,,,,,,,,,,,,,,,,,,,,,,,
,,,,,,,,2023-08-16_08h38.40.848,HF_wild_card,2022.2.4,Win32,59.99880002,5e9c8fed2d191903edc5d16b,64d2fd46c836a06233681665,64dc7ce6cd581e52bf779d94,,,,,,,ctch,resources/DY.BMP,resources/DP.BMP,Door4,0.264322917,0.006510417,1,0,0,0.9098,optionRight,80,14090,6,42,0,42,0,1,,,,,,,,,,,,,,,,,,,,,,,,,,,,,,,,,,,,,,,
,,,,,,,,2023-08-16_08h38.40.848,HF_wild_card,2022.2.4,Win32,59.99880002,5e9c8fed2d191903edc5d16b,64d2fd46c836a06233681665,64dc7ce6cd581e52bf779d94,,,,,,,decisionTrl,resources/DG.BMP,resources/DY.BMP,Door1,0.272135417,0,1,0,0,1.6768,optionRight,30,14120,6,43,0,43,0,1,,,,,,,,,,,,,,,,,,,,,,,,,,,,,,,,,,,,,,,
,,,,,,,,2023-08-16_08h38.40.848,HF_wild_card,2022.2.4,Win32,59.99880002,5e9c8fed2d191903edc5d16b,64d2fd46c836a06233681665,64dc7ce6cd581e52bf779d94,,,,,,,,,,,,,,,,,,,,,,,,,,5,0,5,0,1,,,,,,,,,,,,,,,,,,,,,,,,,,,,,,,,,,
,,,,,,,,2023-08-16_08h38.40.848,HF_wild_card,2022.2.4,Win32,59.99880002,5e9c8fed2d191903edc5d16b,64d2fd46c836a06233681665,64dc7ce6cd581e52bf779d94,,,,,,,ctch,resources/DP.BMP,resources/DY.BMP,Door4,-0.229166667,-0.13671875,1,0,0,2.3391,optionLeft,60,14180,7,0,0,0,0,1,,,,,,,,,,,,,,,,,,,,,,,,,,,,,,,,,,,,,,,
,,,,,,,,2023-08-16_08h38.40.848,HF_wild_card,2022.2.4,Win32,59.99880002,5e9c8fed2d191903edc5d16b,64d2fd46c836a06233681665,64dc7ce6cd581e52bf779d94,,,,,,,decisionTrl,resources/DY.BMP,resources/DG.BMP,Door1,-0.24609375,0.005208333,1,0,0,5.1792,optionLeft,30,14210,7,1,0,1,0,1,,,,,,,,,,,,,,,,,,,,,,,,,,,,,,,,,,,,,,,
,,,,,,,,2023-08-16_08h38.40.848,HF_wild_card,2022.2.4,Win32,59.99880002,5e9c8fed2d191903edc5d16b,64d2fd46c836a06233681665,64dc7ce6cd581e52bf779d94,,,,,,,decisionTrl,resources/DBN.BMP,resources/DP.BMP,Door4,0.209635417,0.010416667,1,0,0,6.8285,optionRight,60,14270,7,2,0,2,0,1,,,,,,,,,,,,,,,,,,,,,,,,,,,,,,,,,,,,,,,
,,,,,,,,2023-08-16_08h38.40.848,HF_wild_card,2022.2.4,Win32,59.99880002,5e9c8fed2d191903edc5d16b,64d2fd46c836a06233681665,64dc7ce6cd581e52bf779d94,,,,,,,decisionTrl,resources/DY.BMP,resources/DG.BMP,Door1,-0.196614583,-0.01171875,1,0,0,1.8952,optionLeft,30,14300,7,3,0,3,0,1,,,,,,,,,,,,,,,,,,,,,,,,,,,,,,,,,,,,,,,
,,,,,,,,2023-08-16_08h38.40.848,HF_wild_card,2022.2.4,Win32,59.99880002,5e9c8fed2d191903edc5d16b,64d2fd46c836a06233681665,64dc7ce6cd581e52bf779d94,,,,,,,decisionTrl,resources/DY.BMP,resources/DG.BMP,Door1,-0.234375,-0.01171875,1,0,0,1.2963,optionLeft,30,14330,7,4,0,4,0,1,,,,,,,,,,,,,,,,,,,,,,,,,,,,,,,,,,,,,,,
,,,,,,,,2023-08-16_08h38.40.848,HF_wild_card,2022.2.4,Win32,59.99880002,5e9c8fed2d191903edc5d16b,64d2fd46c836a06233681665,64dc7ce6cd581e52bf779d94,,,,,,,decisionTrl,resources/DBN.BMP,resources/DP.BMP,Door4,0.2109375,0.006510417,1,0,0,1.3798,optionRight,60,14390,7,5,0,5,0,1,,,,,,,,,,,,,,,,,,,,,,,,,,,,,,,,,,,,,,,
,,,,,,,,2023-08-16_08h38.40.848,HF_wild_card,2022.2.4,Win32,59.99880002,5e9c8fed2d191903edc5d16b,64d2fd46c836a06233681665,64dc7ce6cd581e52bf779d94,,,,,,,ctch,resources/DY.BMP,resources/DP.BMP,Door4,0.291666667,0.005208333,1,0,0,1.997,optionRight,80,14470,7,6,0,6,0,1,,,,,,,,,,,,,,,,,,,,,,,,,,,,,,,,,,,,,,,
,,,,,,,,2023-08-16_08h38.40.848,HF_wild_card,2022.2.4,Win32,59.99880002,5e9c8fed2d191903edc5d16b,64d2fd46c836a06233681665,64dc7ce6cd581e52bf779d94,,,,,,,ctch,resources/DY.BMP,resources/DP.BMP,Door4,0.31640625,0.01953125,1,0,0,1.0632,optionRight,80,14550,7,7,0,7,0,1,,,,,,,,,,,,,,,,,,,,,,,,,,,,,,,,,,,,,,,
,,,,,,,,2023-08-16_08h38.40.848,HF_wild_card,2022.2.4,Win32,59.99880002,5e9c8fed2d191903edc5d16b,64d2fd46c836a06233681665,64dc7ce6cd581e52bf779d94,,,,,,,decisionTrl,resources/DP.BMP,resources/DBN.BMP,Door3,0.23828125,-0.005208333,1,0,0,2.0436,optionRight,70,14620,7,8,0,8,0,1,,,,,,,,,,,,,,,,,,,,,,,,,,,,,,,,,,,,,,,
,,,,,,,,2023-08-16_08h38.40.848,HF_wild_card,2022.2.4,Win32,59.99880002,5e9c8fed2d191903edc5d16b,64d2fd46c836a06233681665,64dc7ce6cd581e52bf779d94,,,,,,,ctch,resources/DG.BMP,resources/DBN.BMP,Door3,0.19140625,-0.005208333,1,0,0,1.2949,optionRight,70,14690,7,9,0,9,0,1,,,,,,,,,,,,,,,,,,,,,,,,,,,,,,,,,,,,,,,
,,,,,,,,2023-08-16_08h38.40.848,HF_wild_card,2022.2.4,Win32,59.99880002,5e9c8fed2d191903edc5d16b,64d2fd46c836a06233681665,64dc7ce6cd581e52bf779d94,,,,,,,decisionTrl,resources/DG.BMP,resources/DY.BMP,Door1,0.279947917,0.006510417,1,0,0,1.8458,optionRight,30,14720,7,10,0,10,0,1,,,,,,,,,,,,,,,,,,,,,,,,,,,,,,,,,,,,,,,
,,,,,,,,2023-08-16_08h38.40.848,HF_wild_card,2022.2.4,Win32,59.99880002,5e9c8fed2d191903edc5d16b,64d2fd46c836a06233681665,64dc7ce6cd581e52bf779d94,,,,,,,ctch,resources/DBN.BMP,resources/DG.BMP,Door3,-0.251302083,0.010416667,1,0,0,1.0463,optionLeft,70,14790,7,11,0,11,0,1,,,,,,,,,,,,,,,,,,,,,,,,,,,,,,,,,,,,,,,
,,,,,,,,2023-08-16_08h38.40.848,HF_wild_card,2022.2.4,Win32,59.99880002,5e9c8fed2d191903edc5d16b,64d2fd46c836a06233681665,64dc7ce6cd581e52bf779d94,,,,,,,ctch,resources/DP.BMP,resources/DY.BMP,Door4,-0.265625,-0.0078125,1,0,0,2.0791,optionLeft,80,14870,7,12,0,12,0,1,,,,,,,,,,,,,,,,,,,,,,,,,,,,,,,,,,,,,,,
,,,,,,,,2023-08-16_08h38.40.848,HF_wild_card,2022.2.4,Win32,59.99880002,5e9c8fed2d191903edc5d16b,64d2fd46c836a06233681665,64dc7ce6cd581e52bf779d94,,,,,,,ctch,resources/DP.BMP,resources/DY.BMP,Door4,-0.266927083,-0.00390625,1,0,0,0.915,optionLeft,80,14950,7,13,0,13,0,1,,,,,,,,,,,,,,,,,,,,,,,,,,,,,,,,,,,,,,,
,,,,,,,,2023-08-16_08h38.40.848,HF_wild_card,2022.2.4,Win32,59.99880002,5e9c8fed2d191903edc5d16b,64d2fd46c836a06233681665,64dc7ce6cd581e52bf779d94,,,,,,,decisionTrl,resources/DP.BMP,resources/DBN.BMP,Door3,0.2265625,0.0234375,1,0,0,3.913,optionRight,70,15020,7,14,0,14,0,1,,,,,,,,,,,,,,,,,,,,,,,,,,,,,,,,,,,,,,,
,,,,,,,,2023-08-16_08h38.40.848,HF_wild_card,2022.2.4,Win32,59.99880002,5e9c8fed2d191903edc5d16b,64d2fd46c836a06233681665,64dc7ce6cd581e52bf779d94,,,,,,,decisionTrl,resources/DG.BMP,resources/DY.BMP,Door1,0.223958333,0.001302083,1,0,0,1.73,optionRight,30,15050,7,15,0,15,0,1,,,,,,,,,,,,,,,,,,,,,,,,,,,,,,,,,,,,,,,
,,,,,,,,2023-08-16_08h38.40.848,HF_wild_card,2022.2.4,Win32,59.99880002,5e9c8fed2d191903edc5d16b,64d2fd46c836a06233681665,64dc7ce6cd581e52bf779d94,,,,,,,ctch,resources/DBN.BMP,resources/DG.BMP,Door3,-0.23828125,0.006510417,1,0,0,1.412,optionLeft,70,15120,7,16,0,16,0,1,,,,,,,,,,,,,,,,,,,,,,,,,,,,,,,,,,,,,,,
,,,,,,,,2023-08-16_08h38.40.848,HF_wild_card,2022.2.4,Win32,59.99880002,5e9c8fed2d191903edc5d16b,64d2fd46c836a06233681665,64dc7ce6cd581e52bf779d94,,,,,,,decisionTrl,resources/DG.BMP,resources/DY.BMP,Door1,0.190104167,0.002604167,1,0,0,1.9128,optionRight,30,15150,7,17,0,17,0,1,,,,,,,,,,,,,,,,,,,,,,,,,,,,,,,,,,,,,,,
,,,,,,,,2023-08-16_08h38.40.848,HF_wild_card,2022.2.4,Win32,59.99880002,5e9c8fed2d191903edc5d16b,64d2fd46c836a06233681665,64dc7ce6cd581e52bf779d94,,,,,,,decisionTrl,resources/DY.BMP,resources/DG.BMP,Door1,-0.114583333,0.01171875,1,0,0,1.5963,optionLeft,30,15180,7,18,0,18,0,1,,,,,,,,,,,,,,,,,,,,,,,,,,,,,,,,,,,,,,,
,,,,,,,,2023-08-16_08h38.40.848,HF_wild_card,2022.2.4,Win32,59.99880002,5e9c8fed2d191903edc5d16b,64d2fd46c836a06233681665,64dc7ce6cd581e52bf779d94,,,,,,,decisionTrl,resources/DG.BMP,resources/DY.BMP,Door1,0.233072917,0.022135417,1,0,0,1.8122,optionRight,30,15210,7,19,0,19,0,1,,,,,,,,,,,,,,,,,,,,,,,,,,,,,,,,,,,,,,,
,,,,,,,,2023-08-16_08h38.40.848,HF_wild_card,2022.2.4,Win32,59.99880002,5e9c8fed2d191903edc5d16b,64d2fd46c836a06233681665,64dc7ce6cd581e52bf779d94,,,,,,,ctch,resources/DBN.BMP,resources/DG.BMP,Door3,-0.296875,0.01171875,1,0,0,1.0793,optionLeft,70,15280,7,20,0,20,0,1,,,,,,,,,,,,,,,,,,,,,,,,,,,,,,,,,,,,,,,
,,,,,,,,2023-08-16_08h38.40.848,HF_wild_card,2022.2.4,Win32,59.99880002,5e9c8fed2d191903edc5d16b,64d2fd46c836a06233681665,64dc7ce6cd581e52bf779d94,,,,,,,ctch,resources/DG.BMP,resources/DBN.BMP,Door3,0.255208333,0.028645833,1,0,0,1.2799,optionRight,70,15350,7,21,0,21,0,1,,,,,,,,,,,,,,,,,,,,,,,,,,,,,,,,,,,,,,,
,,,,,,,,2023-08-16_08h38.40.848,HF_wild_card,2022.2.4,Win32,59.99880002,5e9c8fed2d191903edc5d16b,64d2fd46c836a06233681665,64dc7ce6cd581e52bf779d94,,,,,,,decisionTrl,resources/DBN.BMP,resources/DP.BMP,Door4,0.223958333,0.014322917,1,0,0,2.4959,optionRight,60,15410,7,22,0,22,0,1,,,,,,,,,,,,,,,,,,,,,,,,,,,,,,,,,,,,,,,
,,,,,,,,2023-08-16_08h38.40.848,HF_wild_card,2022.2.4,Win32,59.99880002,5e9c8fed2d191903edc5d16b,64d2fd46c836a06233681665,64dc7ce6cd581e52bf779d94,,,,,,,decisionTrl,resources/DP.BMP,resources/DBN.BMP,Door3,0.223958333,0.029947917,1,0,0,1.9286,optionRight,70,15480,7,23,0,23,0,1,,,,,,,,,,,,,,,,,,,,,,,,,,,,,,,,,,,,,,,
,,,,,,,,2023-08-16_08h38.40.848,HF_wild_card,2022.2.4,Win32,59.99880002,5e9c8fed2d191903edc5d16b,64d2fd46c836a06233681665,64dc7ce6cd581e52bf779d94,,,,,,,ctch,resources/DY.BMP,resources/DP.BMP,Door4,0.244791667,0.0078125,1,0,0,1.0792,optionRight,80,15560,7,24,0,24,0,1,,,,,,,,,,,,,,,,,,,,,,,,,,,,,,,,,,,,,,,
,,,,,,,,2023-08-16_08h38.40.848,HF_wild_card,2022.2.4,Win32,59.99880002,5e9c8fed2d191903edc5d16b,64d2fd46c836a06233681665,64dc7ce6cd581e52bf779d94,,,,,,,decisionTrl,resources/DG.BMP,resources/DY.BMP,Door1,0.177083333,0.020833333,1,0,0,1.6955,optionRight,30,15590,7,25,0,25,0,1,,,,,,,,,,,,,,,,,,,,,,,,,,,,,,,,,,,,,,,
,,,,,,,,2023-08-16_08h38.40.848,HF_wild_card,2022.2.4,Win32,59.99880002,5e9c8fed2d191903edc5d16b,64d2fd46c836a06233681665,64dc7ce6cd581e52bf779d94,,,,,,,decisionTrl,resources/DG.BMP,resources/DY.BMP,Door2,-0.170572917,0.01171875,1,0,0,1.9302,optionLeft,40,15630,7,26,0,26,0,1,,,,,,,,,,,,,,,,,,,,,,,,,,,,,,,,,,,,,,,
,,,,,,,,2023-08-16_08h38.40.848,HF_wild_card,2022.2.4,Win32,59.99880002,5e9c8fed2d191903edc5d16b,64d2fd46c836a06233681665,64dc7ce6cd581e52bf779d94,,,,,,,decisionTrl,resources/DP.BMP,resources/DBN.BMP,Door3,0.171875,0.029947917,1,0,0,2.844,optionRight,70,15700,7,27,0,27,0,1,,,,,,,,,,,,,,,,,,,,,,,,,,,,,,,,,,,,,,,
,,,,,,,,2023-08-16_08h38.40.848,HF_wild_card,2022.2.4,Win32,59.99880002,5e9c8fed2d191903edc5d16b,64d2fd46c836a06233681665,64dc7ce6cd581e52bf779d94,,,,,,,decisionTrl,resources/DBN.BMP,resources/DP.BMP,Door4,0.216145833,0.002604167,1,0,0,1.6629,optionRight,60,15760,7,28,0,28,0,1,,,,,,,,,,,,,,,,,,,,,,,,,,,,,,,,,,,,,,,
,,,,,,,,2023-08-16_08h38.40.848,HF_wild_card,2022.2.4,Win32,59.99880002,5e9c8fed2d191903edc5d16b,64d2fd46c836a06233681665,64dc7ce6cd581e52bf779d94,,,,,,,decisionTrl,resources/DY.BMP,resources/DG.BMP,Door1,-0.126302083,-0.001302083,1,0,0,1.4123,optionLeft,30,15790,7,29,0,29,0,1,,,,,,,,,,,,,,,,,,,,,,,,,,,,,,,,,,,,,,,
,,,,,,,,2023-08-16_08h38.40.848,HF_wild_card,2022.2.4,Win32,59.99880002,5e9c8fed2d191903edc5d16b,64d2fd46c836a06233681665,64dc7ce6cd581e52bf779d94,,,,,,,ctch,resources/DG.BMP,resources/DBN.BMP,Door3,0.240885417,0.009114583,1,0,0,0.9298,optionRight,70,15860,7,30,0,30,0,1,,,,,,,,,,,,,,,,,,,,,,,,,,,,,,,,,,,,,,,
,,,,,,,,2023-08-16_08h38.40.848,HF_wild_card,2022.2.4,Win32,59.99880002,5e9c8fed2d191903edc5d16b,64d2fd46c836a06233681665,64dc7ce6cd581e52bf779d94,,,,,,,decisionTrl,resources/DP.BMP,resources/DBN.BMP,Door3,0.243489583,0.01171875,1,0,0,0.8273,optionRight,70,15930,7,31,0,31,0,1,,,,,,,,,,,,,,,,,,,,,,,,,,,,,,,,,,,,,,,
,,,,,,,,2023-08-16_08h38.40.848,HF_wild_card,2022.2.4,Win32,59.99880002,5e9c8fed2d191903edc5d16b,64d2fd46c836a06233681665,64dc7ce6cd581e52bf779d94,,,,,,,decisionTrl,resources/DY.BMP,resources/DG.BMP,Door1,-0.141927083,0.018229167,1,0,0,1.6292,optionLeft,30,15960,7,32,0,32,0,1,,,,,,,,,,,,,,,,,,,,,,,,,,,,,,,,,,,,,,,
,,,,,,,,2023-08-16_08h38.40.848,HF_wild_card,2022.2.4,Win32,59.99880002,5e9c8fed2d191903edc5d16b,64d2fd46c836a06233681665,64dc7ce6cd581e52bf779d94,,,,,,,decisionTrl,resources/DP.BMP,resources/DBN.BMP,Door3,0.223958333,-0.006510417,1,0,0,2.8952,optionRight,70,16030,7,33,0,33,0,1,,,,,,,,,,,,,,,,,,,,,,,,,,,,,,,,,,,,,,,
,,,,,,,,2023-08-16_08h38.40.848,HF_wild_card,2022.2.4,Win32,59.99880002,5e9c8fed2d191903edc5d16b,64d2fd46c836a06233681665,64dc7ce6cd581e52bf779d94,,,,,,,decisionTrl,resources/DBN.BMP,resources/DP.BMP,Door4,0.23828125,0.01171875,1,0,0,3.0303,optionRight,60,16090,7,34,0,34,0,1,,,,,,,,,,,,,,,,,,,,,,,,,,,,,,,,,,,,,,,
,,,,,,,,2023-08-16_08h38.40.848,HF_wild_card,2022.2.4,Win32,59.99880002,5e9c8fed2d191903edc5d16b,64d2fd46c836a06233681665,64dc7ce6cd581e52bf779d94,,,,,,,decisionTrl,resources/DBN.BMP,resources/DP.BMP,Door4,0.165364583,0.005208333,1,0,0,1.6466,optionRight,60,16150,7,35,0,35,0,1,,,,,,,,,,,,,,,,,,,,,,,,,,,,,,,,,,,,,,,
,,,,,,,,2023-08-16_08h38.40.848,HF_wild_card,2022.2.4,Win32,59.99880002,5e9c8fed2d191903edc5d16b,64d2fd46c836a06233681665,64dc7ce6cd581e52bf779d94,,,,,,,,,,,,,,,,,,,,,,,,,,6,0,6,0,1,,,,,,,,,,,,,,,,,,,,,,,,,,,,,,,,,,
,,,,,,,,2023-08-16_08h38.40.848,HF_wild_card,2022.2.4,Win32,59.99880002,5e9c8fed2d191903edc5d16b,64d2fd46c836a06233681665,64dc7ce6cd581e52bf779d94,,,,,,,,,,,,,,,,,,,,,,,,,,,,,,,4,,,,,,,,,,,,,,,,,,,,,,,,,,,,,,,,,
,,,,,,,,2023-08-16_08h38.40.848,HF_wild_card,2022.2.4,Win32,59.99880002,5e9c8fed2d191903edc5d16b,64d2fd46c836a06233681665,64dc7ce6cd581e52bf779d94,,,,,,,,,,,,,,,,,,,,,,,,,,,,,,,,,,,,,,,,,,,,,,,,,,,,,,,,,,,,,,,,
,,,,,,,,2023-08-16_08h38.40.848,HF_wild_card,2022.2.4,Win32,59.99880002,5e9c8fed2d191903edc5d16b,64d2fd46c836a06233681665,64dc7ce6cd581e52bf779d94,,,,,,,,,,,,,,,,,,,,,,,,,,,,,,,,55,WC_nonExtreme,resources/DR.BMP,0,0,0,0,1,,,,,,,,,,,,,,,,,,,,,,,,,
,,,,,,,,2023-08-16_08h38.40.848,HF_wild_card,2022.2.4,Win32,59.99880002,5e9c8fed2d191903edc5d16b,64d2fd46c836a06233681665,64dc7ce6cd581e52bf779d94,,,,,,,,,,,,,,,,,,,,,,,,,,,,,,,,80,Door4,resources/DP.BMP,1,0,1,0,1,,,,,,,,,,,,,,,,,,,,,,,,,
,,,,,,,,2023-08-16_08h38.40.848,HF_wild_card,2022.2.4,Win32,59.99880002,5e9c8fed2d191903edc5d16b,64d2fd46c836a06233681665,64dc7ce6cd581e52bf779d94,,,,,,,,,,,,,,,,,,,,,,,,,,,,,,,,20,Door2,resources/DG.BMP,2,0,2,0,1,,,,,,,,,,,,,,,,,,,,,,,,,
,,,,,,,,2023-08-16_08h38.40.848,HF_wild_card,2022.2.4,Win32,59.99880002,5e9c8fed2d191903edc5d16b,64d2fd46c836a06233681665,64dc7ce6cd581e52bf779d94,,,,,,,,,,,,,,,,,,,,,,,,,,,,,,,,70,Door3,resources/DBN.BMP,3,0,3,0,1,,,,,,,,,,,,,,,,,,,,,,,,,
,,,,,,,,2023-08-16_08h38.40.848,HF_wild_card,2022.2.4,Win32,59.99880002,5e9c8fed2d191903edc5d16b,64d2fd46c836a06233681665,64dc7ce6cd581e52bf779d94,,,,,,,,,,,,,,,,,,,,,,,,,,,,,,,,20,WC_extreme,resources/DB.BMP,4,0,4,0,1,,,,,,,,,,,,,,,,,,,,,,,,,
,,,,,,,,2023-08-16_08h38.40.848,HF_wild_card,2022.2.4,Win32,59.99880002,5e9c8fed2d191903edc5d16b,64d2fd46c836a06233681665,64dc7ce6cd581e52bf779d94,,,,,,,,,,,,,,,,,,,,,,,,,,,,,,,,20,Door1,resources/DY.BMP,5,0,5,0,1,,,,,,,,,,,,,,,,,,,,,,,,,
,,,,,,,,2023-08-16_08h38.40.848,HF_wild_card,2022.2.4,Win32,59.99880002,5e9c8fed2d191903edc5d16b,64d2fd46c836a06233681665,64dc7ce6cd581e52bf779d94,,,,,,,,,,,,,,,,,,,,,,,,,,,,,,,,,,,,,,,,,,,,,,,,,,,,,,,,,,,,,,,,
,,,,,,,,2023-08-16_08h38.40.848,HF_wild_card,2022.2.4,Win32,59.99880002,5e9c8fed2d191903edc5d16b,64d2fd46c836a06233681665,64dc7ce6cd581e52bf779d94,,,,,,,,,,,,,,,,,,,,,,,,,,,,,,,,,,,,,,,,0,0,0,0,1,,,,,,,,,,,,,,,,,,,,
,,,,,,,,2023-08-16_08h38.40.848,HF_wild_card,2022.2.4,Win32,59.99880002,5e9c8fed2d191903edc5d16b,64d2fd46c836a06233681665,64dc7ce6cd581e52bf779d94,,,,,,,,,,,,,,,,,,,,,,,,,,,,,,,,,,,,,,,,1,0,1,0,1,,,,,,,,,,,,,,,,,,,,
