Condition,Low fixed image (Door1),Low risky image (Door2),High fixed image (Door3),High risky image (Door4),Extreme Wild Card,NonExtreme Wild Card,,date,expName,psychopyVersion,OS,frameRate,PROLIFIC_PID,STUDY_ID,SESSION_ID,mouse_2.x,mouse_2.y,mouse_2.leftButton,mouse_2.midButton,mouse_2.rightButton,mouse_2.clicked_name,Trial Type,Left Option Image,Right Option Image,Chosen Door,mouse.x,mouse.y,mouse.leftButton,mouse.midButton,mouse.rightButton,mouse.time,mouse.clicked_name,Feedback,Cumulative Reward,Block,trial.thisRepN,trial.thisTrialN,trial.thisN,trial.thisIndex,trial.ran,blocks.thisRepN,blocks.thisTrialN,blocks.thisN,blocks.thisIndex,blocks.ran,Money conversion,First Outcome Reported,Shown Door (First Outcome),Displayed Image (First Outcome),outcomes.thisRepN,outcomes.thisTrialN,outcomes.thisN,outcomes.thisIndex,outcomes.ran,judgments.thisRepN,judgments.thisTrialN,judgments.thisN,judgments.thisIndex,judgments.ran,freqMouse.x,freqMouse.y,freqMouse.leftButton,freqMouse.midButton,freqMouse.rightButton,freqMouse.clicked_name,FQJ for first outcome,FQJ for second outcome,Shown Door,Displayed Image,trials.thisRepN,trials.thisTrialN,trials.thisN,trials.thisIndex,trials.ran,judgBlock.thisRepN,judgBlock.thisTrialN,judgBlock.thisN,judgBlock.thisIndex,judgBlock.ran
1,resources/DB.BMP,resources/DR.BMP,resources/DG.BMP,resources/DBN.BMP,resources/DY.BMP,resources/DP.BMP,,2023-08-24_09h01.23.055,HF_wild_card,2022.2.4,Win32,59.85515054,56ca0400b30699000bd9d94f,64e63663dbcaf322d2eec8da,64e703ae4d17421b1fb7e83a,,,,,,,,,,,,,,,,,,,,,,,,,,,,,,,,,,,,,,,,,,,,,,,,,,,,,,,,,,,,,,,,
,,,,,,,,2023-08-24_09h01.23.055,HF_wild_card,2022.2.4,Win32,59.85515054,56ca0400b30699000bd9d94f,64e63663dbcaf322d2eec8da,64e703ae4d17421b1fb7e83a,0.011111153,-0.418518561,1,0,0,agree,,,,,,,,,,,,,,,,,,,,,,,,,,,,,,,,,,,,,,,,,,,,,,,,,,,,,,,,,,
,,,,,,,,2023-08-24_09h01.23.055,HF_wild_card,2022.2.4,Win32,59.85515054,56ca0400b30699000bd9d94f,64e63663dbcaf322d2eec8da,64e703ae4d17421b1fb7e83a,,,,,,,,,,,,,,,,,,,,,,,,,,,,,,,,,,,,,,,,,,,,,,,,,,,,,,,,,,,,,,,,
,,,,,,,,2023-08-24_09h01.23.055,HF_wild_card,2022.2.4,Win32,59.85515054,56ca0400b30699000bd9d94f,64e63663dbcaf322d2eec8da,64e703ae4d17421b1fb7e83a,,,,,,,ctch,resources/DG.BMP,resources/DR.BMP,Door2,0.41851849,0.037037037,1,0,0,2.3521,optionRight,20,20,1,0,0,0,0,1,,,,,,,,,,,,,,,,,,,,,,,,,,,,,,,,,,,,,,,
,,,,,,,,2023-08-24_09h01.23.055,HF_wild_card,2022.2.4,Win32,59.85515054,56ca0400b30699000bd9d94f,64e63663dbcaf322d2eec8da,64e703ae4d17421b1fb7e83a,,,,,,,ctch,resources/DBN.BMP,resources/DB.BMP,Door4,-0.29351849,-0.018518519,1,0,0,1.4908,optionLeft,60,80,1,1,0,1,0,1,,,,,,,,,,,,,,,,,,,,,,,,,,,,,,,,,,,,,,,
,,,,,,,,2023-08-24_09h01.23.055,HF_wild_card,2022.2.4,Win32,59.85515054,56ca0400b30699000bd9d94f,64e63663dbcaf322d2eec8da,64e703ae4d17421b1fb7e83a,,,,,,,sngl,resources/DP.BMP,resources/Empty.png,WildCard_NonEx,-0.273148148,-0.055555556,1,0,0,0.9047,optionLeft,55,135,1,2,0,2,0,1,,,,,,,,,,,,,,,,,,,,,,,,,,,,,,,,,,,,,,,
,,,,,,,,2023-08-24_09h01.23.055,HF_wild_card,2022.2.4,Win32,59.85515054,56ca0400b30699000bd9d94f,64e63663dbcaf322d2eec8da,64e703ae4d17421b1fb7e83a,,,,,,,sngl,resources/Empty.png,resources/DP.BMP,WildCard_NonEx,0.424074102,-0.052777785,1,0,0,1.7397,optionRight,45,180,1,3,0,3,0,1,,,,,,,,,,,,,,,,,,,,,,,,,,,,,,,,,,,,,,,
,,,,,,,,2023-08-24_09h01.23.055,HF_wild_card,2022.2.4,Win32,59.85515054,56ca0400b30699000bd9d94f,64e63663dbcaf322d2eec8da,64e703ae4d17421b1fb7e83a,,,,,,,decisionTrl,resources/DP.BMP,resources/DBN.BMP,WildCard_NonEx,-0.29351849,-0.025925919,1,0,0,1.4573,optionLeft,55,235,1,4,0,4,0,1,,,,,,,,,,,,,,,,,,,,,,,,,,,,,,,,,,,,,,,
,,,,,,,,2023-08-24_09h01.23.055,HF_wild_card,2022.2.4,Win32,59.85515054,56ca0400b30699000bd9d94f,64e63663dbcaf322d2eec8da,64e703ae4d17421b1fb7e83a,,,,,,,sngl,resources/DB.BMP,resources/Empty.png,Door1,-0.296296296,-0.047222243,1,0,0,0.9273,optionLeft,30,265,1,5,0,5,0,1,,,,,,,,,,,,,,,,,,,,,,,,,,,,,,,,,,,,,,,
,,,,,,,,2023-08-24_09h01.23.055,HF_wild_card,2022.2.4,Win32,59.85515054,56ca0400b30699000bd9d94f,64e63663dbcaf322d2eec8da,64e703ae4d17421b1fb7e83a,,,,,,,decisionTrl,resources/DBN.BMP,resources/DG.BMP,Door3,0.250925912,-0.051851873,1,0,0,1.281,optionRight,70,335,1,6,0,6,0,1,,,,,,,,,,,,,,,,,,,,,,,,,,,,,,,,,,,,,,,
,,,,,,,,2023-08-24_09h01.23.055,HF_wild_card,2022.2.4,Win32,59.85515054,56ca0400b30699000bd9d94f,64e63663dbcaf322d2eec8da,64e703ae4d17421b1fb7e83a,,,,,,,decisionTrl,resources/DBN.BMP,resources/DG.BMP,Door3,0.376851824,-0.010185206,1,0,0,0.9496,optionRight,70,405,1,7,0,7,0,1,,,,,,,,,,,,,,,,,,,,,,,,,,,,,,,,,,,,,,,
,,,,,,,,2023-08-24_09h01.23.055,HF_wild_card,2022.2.4,Win32,59.85515054,56ca0400b30699000bd9d94f,64e63663dbcaf322d2eec8da,64e703ae4d17421b1fb7e83a,,,,,,,decisionTrl,resources/DBN.BMP,resources/DP.BMP,WildCard_NonEx,0.292592578,-0.079629651,1,0,0,2.0355,optionRight,55,460,1,8,0,8,0,1,,,,,,,,,,,,,,,,,,,,,,,,,,,,,,,,,,,,,,,
,,,,,,,,2023-08-24_09h01.23.055,HF_wild_card,2022.2.4,Win32,59.85515054,56ca0400b30699000bd9d94f,64e63663dbcaf322d2eec8da,64e703ae4d17421b1fb7e83a,,,,,,,decisionTrl,resources/DG.BMP,resources/DBN.BMP,Door3,-0.287037037,-0.029629637,1,0,0,0.982,optionLeft,70,530,1,9,0,9,0,1,,,,,,,,,,,,,,,,,,,,,,,,,,,,,,,,,,,,,,,
,,,,,,,,2023-08-24_09h01.23.055,HF_wild_card,2022.2.4,Win32,59.85515054,56ca0400b30699000bd9d94f,64e63663dbcaf322d2eec8da,64e703ae4d17421b1fb7e83a,,,,,,,decisionTrl,resources/DG.BMP,resources/DP.BMP,Door3,-0.279629601,-0.031481496,1,0,0,1,optionLeft,70,600,1,10,0,10,0,1,,,,,,,,,,,,,,,,,,,,,,,,,,,,,,,,,,,,,,,
,,,,,,,,2023-08-24_09h01.23.055,HF_wild_card,2022.2.4,Win32,59.85515054,56ca0400b30699000bd9d94f,64e63663dbcaf322d2eec8da,64e703ae4d17421b1fb7e83a,,,,,,,decisionTrl,resources/DR.BMP,resources/DB.BMP,Door2,-0.275925884,-0.019444466,1,0,0,1.9021,optionLeft,20,620,1,11,0,11,0,1,,,,,,,,,,,,,,,,,,,,,,,,,,,,,,,,,,,,,,,
,,,,,,,,2023-08-24_09h01.23.055,HF_wild_card,2022.2.4,Win32,59.85515054,56ca0400b30699000bd9d94f,64e63663dbcaf322d2eec8da,64e703ae4d17421b1fb7e83a,,,,,,,decisionTrl,resources/DP.BMP,resources/DB.BMP,WildCard_NonEx,-0.237037023,-0.015740748,1,0,0,1.175,optionLeft,45,665,1,12,0,12,0,1,,,,,,,,,,,,,,,,,,,,,,,,,,,,,,,,,,,,,,,
,,,,,,,,2023-08-24_09h01.23.055,HF_wild_card,2022.2.4,Win32,59.85515054,56ca0400b30699000bd9d94f,64e63663dbcaf322d2eec8da,64e703ae4d17421b1fb7e83a,,,,,,,decisionTrl,resources/DR.BMP,resources/DB.BMP,Door1,0.258333347,-0.034259266,1,0,0,0.9865,optionRight,30,695,1,13,0,13,0,1,,,,,,,,,,,,,,,,,,,,,,,,,,,,,,,,,,,,,,,
,,,,,,,,2023-08-24_09h01.23.055,HF_wild_card,2022.2.4,Win32,59.85515054,56ca0400b30699000bd9d94f,64e63663dbcaf322d2eec8da,64e703ae4d17421b1fb7e83a,,,,,,,decisionTrl,resources/DR.BMP,resources/DB.BMP,Door2,-0.318518497,-0.01203703,1,0,0,0.9636,optionLeft,40,735,1,14,0,14,0,1,,,,,,,,,,,,,,,,,,,,,,,,,,,,,,,,,,,,,,,
,,,,,,,,2023-08-24_09h01.23.055,HF_wild_card,2022.2.4,Win32,59.85515054,56ca0400b30699000bd9d94f,64e63663dbcaf322d2eec8da,64e703ae4d17421b1fb7e83a,,,,,,,decisionTrl,resources/DB.BMP,resources/DR.BMP,Door1,-0.267592607,-0.01203703,1,0,0,1.0455,optionLeft,30,765,1,15,0,15,0,1,,,,,,,,,,,,,,,,,,,,,,,,,,,,,,,,,,,,,,,
,,,,,,,,2023-08-24_09h01.23.055,HF_wild_card,2022.2.4,Win32,59.85515054,56ca0400b30699000bd9d94f,64e63663dbcaf322d2eec8da,64e703ae4d17421b1fb7e83a,,,,,,,decisionTrl,resources/DG.BMP,resources/DBN.BMP,Door4,0.222222222,-0.015740748,1,0,0,0.7779,optionRight,80,845,1,16,0,16,0,1,,,,,,,,,,,,,,,,,,,,,,,,,,,,,,,,,,,,,,,
,,,,,,,,2023-08-24_09h01.23.055,HF_wild_card,2022.2.4,Win32,59.85515054,56ca0400b30699000bd9d94f,64e63663dbcaf322d2eec8da,64e703ae4d17421b1fb7e83a,,,,,,,sngl,resources/DP.BMP,resources/Empty.png,WildCard_NonEx,-0.195370356,-0.017592607,1,0,0,0.8451,optionLeft,45,890,1,17,0,17,0,1,,,,,,,,,,,,,,,,,,,,,,,,,,,,,,,,,,,,,,,
,,,,,,,,2023-08-24_09h01.23.055,HF_wild_card,2022.2.4,Win32,59.85515054,56ca0400b30699000bd9d94f,64e63663dbcaf322d2eec8da,64e703ae4d17421b1fb7e83a,,,,,,,decisionTrl,resources/DG.BMP,resources/DBN.BMP,Door4,0.223148134,-0.011111118,1,0,0,1.0261,optionRight,80,970,1,18,0,18,0,1,,,,,,,,,,,,,,,,,,,,,,,,,,,,,,,,,,,,,,,
,,,,,,,,2023-08-24_09h01.23.055,HF_wild_card,2022.2.4,Win32,59.85515054,56ca0400b30699000bd9d94f,64e63663dbcaf322d2eec8da,64e703ae4d17421b1fb7e83a,,,,,,,decisionTrl,resources/DP.BMP,resources/DR.BMP,WildCard_NonEx,-0.22592594,-0.075000021,1,0,0,0.8927,optionLeft,55,1025,1,19,0,19,0,1,,,,,,,,,,,,,,,,,,,,,,,,,,,,,,,,,,,,,,,
,,,,,,,,2023-08-24_09h01.23.055,HF_wild_card,2022.2.4,Win32,59.85515054,56ca0400b30699000bd9d94f,64e63663dbcaf322d2eec8da,64e703ae4d17421b1fb7e83a,,,,,,,sngl,resources/DBN.BMP,resources/Empty.png,Door4,-0.288888861,-0.037037037,1,0,0,0.8438,optionLeft,80,1105,1,20,0,20,0,1,,,,,,,,,,,,,,,,,,,,,,,,,,,,,,,,,,,,,,,
,,,,,,,,2023-08-24_09h01.23.055,HF_wild_card,2022.2.4,Win32,59.85515054,56ca0400b30699000bd9d94f,64e63663dbcaf322d2eec8da,64e703ae4d17421b1fb7e83a,,,,,,,decisionTrl,resources/DB.BMP,resources/DR.BMP,Door2,0.428703732,-0.054629644,1,0,0,0.6913,optionRight,20,1125,1,21,0,21,0,1,,,,,,,,,,,,,,,,,,,,,,,,,,,,,,,,,,,,,,,
,,,,,,,,2023-08-24_09h01.23.055,HF_wild_card,2022.2.4,Win32,59.85515054,56ca0400b30699000bd9d94f,64e63663dbcaf322d2eec8da,64e703ae4d17421b1fb7e83a,,,,,,,ctch,resources/DR.BMP,resources/DG.BMP,Door2,-0.325925933,-0.042592614,1,0,0,0.8131,optionLeft,20,1145,1,22,0,22,0,1,,,,,,,,,,,,,,,,,,,,,,,,,,,,,,,,,,,,,,,
,,,,,,,,2023-08-24_09h01.23.055,HF_wild_card,2022.2.4,Win32,59.85515054,56ca0400b30699000bd9d94f,64e63663dbcaf322d2eec8da,64e703ae4d17421b1fb7e83a,,,,,,,decisionTrl,resources/DB.BMP,resources/DR.BMP,Door2,0.413888861,-0.116666653,1,0,0,0.8613,optionRight,40,1185,1,23,0,23,0,1,,,,,,,,,,,,,,,,,,,,,,,,,,,,,,,,,,,,,,,
,,,,,,,,2023-08-24_09h01.23.055,HF_wild_card,2022.2.4,Win32,59.85515054,56ca0400b30699000bd9d94f,64e63663dbcaf322d2eec8da,64e703ae4d17421b1fb7e83a,,,,,,,decisionTrl,resources/DG.BMP,resources/DBN.BMP,Door3,-0.223148134,-0.049074067,1,0,0,0.8614,optionLeft,70,1255,1,24,0,24,0,1,,,,,,,,,,,,,,,,,,,,,,,,,,,,,,,,,,,,,,,
,,,,,,,,2023-08-24_09h01.23.055,HF_wild_card,2022.2.4,Win32,59.85515054,56ca0400b30699000bd9d94f,64e63663dbcaf322d2eec8da,64e703ae4d17421b1fb7e83a,,,,,,,ctch,resources/DR.BMP,resources/DG.BMP,Door2,-0.284259231,-0.082407422,1,0,0,0.8587,optionLeft,40,1295,1,25,0,25,0,1,,,,,,,,,,,,,,,,,,,,,,,,,,,,,,,,,,,,,,,
,,,,,,,,2023-08-24_09h01.23.055,HF_wild_card,2022.2.4,Win32,59.85515054,56ca0400b30699000bd9d94f,64e63663dbcaf322d2eec8da,64e703ae4d17421b1fb7e83a,,,,,,,decisionTrl,resources/DB.BMP,resources/DP.BMP,WildCard_NonEx,0.368518547,-0.108333376,1,0,0,0.9249,optionRight,45,1340,1,26,0,26,0,1,,,,,,,,,,,,,,,,,,,,,,,,,,,,,,,,,,,,,,,
,,,,,,,,2023-08-24_09h01.23.055,HF_wild_card,2022.2.4,Win32,59.85515054,56ca0400b30699000bd9d94f,64e63663dbcaf322d2eec8da,64e703ae4d17421b1fb7e83a,,,,,,,decisionTrl,resources/DBN.BMP,resources/DG.BMP,Door4,-0.331481474,-0.070370392,1,0,0,0.8774,optionLeft,80,1420,1,27,0,27,0,1,,,,,,,,,,,,,,,,,,,,,,,,,,,,,,,,,,,,,,,
,,,,,,,,2023-08-24_09h01.23.055,HF_wild_card,2022.2.4,Win32,59.85515054,56ca0400b30699000bd9d94f,64e63663dbcaf322d2eec8da,64e703ae4d17421b1fb7e83a,,,,,,,sngl,resources/Empty.png,resources/DP.BMP,WildCard_NonEx,0.383333418,-0.070370392,1,0,0,0.7998,optionRight,55,1475,1,28,0,28,0,1,,,,,,,,,,,,,,,,,,,,,,,,,,,,,,,,,,,,,,,
,,,,,,,,2023-08-24_09h01.23.055,HF_wild_card,2022.2.4,Win32,59.85515054,56ca0400b30699000bd9d94f,64e63663dbcaf322d2eec8da,64e703ae4d17421b1fb7e83a,,,,,,,decisionTrl,resources/DR.BMP,resources/DB.BMP,Door1,0.300000085,-0.092592593,1,0,0,0.8618,optionRight,30,1505,1,29,0,29,0,1,,,,,,,,,,,,,,,,,,,,,,,,,,,,,,,,,,,,,,,
,,,,,,,,2023-08-24_09h01.23.055,HF_wild_card,2022.2.4,Win32,59.85515054,56ca0400b30699000bd9d94f,64e63663dbcaf322d2eec8da,64e703ae4d17421b1fb7e83a,,,,,,,sngl,resources/Empty.png,resources/DB.BMP,Door1,0.200925968,-0.087037051,1,0,0,0.9138,optionRight,30,1535,1,30,0,30,0,1,,,,,,,,,,,,,,,,,,,,,,,,,,,,,,,,,,,,,,,
,,,,,,,,2023-08-24_09h01.23.055,HF_wild_card,2022.2.4,Win32,59.85515054,56ca0400b30699000bd9d94f,64e63663dbcaf322d2eec8da,64e703ae4d17421b1fb7e83a,,,,,,,ctch,resources/DBN.BMP,resources/DB.BMP,Door4,-0.336111104,-0.027777778,1,0,0,0.6944,optionLeft,60,1595,1,31,0,31,0,1,,,,,,,,,,,,,,,,,,,,,,,,,,,,,,,,,,,,,,,
,,,,,,,,2023-08-24_09h01.23.055,HF_wild_card,2022.2.4,Win32,59.85515054,56ca0400b30699000bd9d94f,64e63663dbcaf322d2eec8da,64e703ae4d17421b1fb7e83a,,,,,,,sngl,resources/DG.BMP,resources/Empty.png,Door3,-0.247222194,-0.08425928,1,0,0,0.7776,optionLeft,70,1665,1,32,0,32,0,1,,,,,,,,,,,,,,,,,,,,,,,,,,,,,,,,,,,,,,,
,,,,,,,,2023-08-24_09h01.23.055,HF_wild_card,2022.2.4,Win32,59.85515054,56ca0400b30699000bd9d94f,64e63663dbcaf322d2eec8da,64e703ae4d17421b1fb7e83a,,,,,,,sngl,resources/Empty.png,resources/DR.BMP,Door2,0.316666638,-0.035185178,1,0,0,0.8273,optionRight,20,1685,1,33,0,33,0,1,,,,,,,,,,,,,,,,,,,,,,,,,,,,,,,,,,,,,,,
,,,,,,,,2023-08-24_09h01.23.055,HF_wild_card,2022.2.4,Win32,59.85515054,56ca0400b30699000bd9d94f,64e63663dbcaf322d2eec8da,64e703ae4d17421b1fb7e83a,,,,,,,decisionTrl,resources/DP.BMP,resources/DG.BMP,WildCard_NonEx,-0.22592594,-0.064814815,1,0,0,0.8769,optionLeft,45,1730,1,34,0,34,0,1,,,,,,,,,,,,,,,,,,,,,,,,,,,,,,,,,,,,,,,
,,,,,,,,2023-08-24_09h01.23.055,HF_wild_card,2022.2.4,Win32,59.85515054,56ca0400b30699000bd9d94f,64e63663dbcaf322d2eec8da,64e703ae4d17421b1fb7e83a,,,,,,,sngl,resources/Empty.png,resources/DBN.BMP,Door4,0.273148148,0,1,0,0,0.7609,optionRight,60,1790,1,35,0,35,0,1,,,,,,,,,,,,,,,,,,,,,,,,,,,,,,,,,,,,,,,
,,,,,,,,2023-08-24_09h01.23.055,HF_wild_card,2022.2.4,Win32,59.85515054,56ca0400b30699000bd9d94f,64e63663dbcaf322d2eec8da,64e703ae4d17421b1fb7e83a,,,,,,,decisionTrl,resources/DR.BMP,resources/DP.BMP,Door2,-0.207407422,-0.033333355,1,0,0,0.8773,optionLeft,20,1810,1,36,0,36,0,1,,,,,,,,,,,,,,,,,,,,,,,,,,,,,,,,,,,,,,,
,,,,,,,,2023-08-24_09h01.23.055,HF_wild_card,2022.2.4,Win32,59.85515054,56ca0400b30699000bd9d94f,64e63663dbcaf322d2eec8da,64e703ae4d17421b1fb7e83a,,,,,,,sngl,resources/Empty.png,resources/DG.BMP,Door3,0.330555527,-0.047222243,1,0,0,0.7765,optionRight,70,1880,1,37,0,37,0,1,,,,,,,,,,,,,,,,,,,,,,,,,,,,,,,,,,,,,,,
,,,,,,,,2023-08-24_09h01.23.055,HF_wild_card,2022.2.4,Win32,59.85515054,56ca0400b30699000bd9d94f,64e63663dbcaf322d2eec8da,64e703ae4d17421b1fb7e83a,,,,,,,ctch,resources/DB.BMP,resources/DBN.BMP,Door1,-0.223148134,-0.050000014,1,0,0,0.8716,optionLeft,30,1910,1,38,0,38,0,1,,,,,,,,,,,,,,,,,,,,,,,,,,,,,,,,,,,,,,,
,,,,,,,,2023-08-24_09h01.23.055,HF_wild_card,2022.2.4,Win32,59.85515054,56ca0400b30699000bd9d94f,64e63663dbcaf322d2eec8da,64e703ae4d17421b1fb7e83a,,,,,,,decisionTrl,resources/DB.BMP,resources/DR.BMP,Door2,0.282407407,-0.003703718,1,0,0,0.6546,optionRight,40,1950,1,39,0,39,0,1,,,,,,,,,,,,,,,,,,,,,,,,,,,,,,,,,,,,,,,
,,,,,,,,2023-08-24_09h01.23.055,HF_wild_card,2022.2.4,Win32,59.85515054,56ca0400b30699000bd9d94f,64e63663dbcaf322d2eec8da,64e703ae4d17421b1fb7e83a,,,,,,,decisionTrl,resources/DBN.BMP,resources/DG.BMP,Door4,-0.260185171,-0.006481489,1,0,0,0.7584,optionLeft,60,2010,1,40,0,40,0,1,,,,,,,,,,,,,,,,,,,,,,,,,,,,,,,,,,,,,,,
,,,,,,,,2023-08-24_09h01.23.055,HF_wild_card,2022.2.4,Win32,59.85515054,56ca0400b30699000bd9d94f,64e63663dbcaf322d2eec8da,64e703ae4d17421b1fb7e83a,,,,,,,sngl,resources/DR.BMP,resources/Empty.png,Door2,-0.243518476,-0.045370384,1,0,0,0.8277,optionLeft,40,2050,1,41,0,41,0,1,,,,,,,,,,,,,,,,,,,,,,,,,,,,,,,,,,,,,,,
,,,,,,,,2023-08-24_09h01.23.055,HF_wild_card,2022.2.4,Win32,59.85515054,56ca0400b30699000bd9d94f,64e63663dbcaf322d2eec8da,64e703ae4d17421b1fb7e83a,,,,,,,ctch,resources/DG.BMP,resources/DR.BMP,Door3,-0.38703703,-0.073148162,1,0,0,0.9445,optionLeft,70,2120,1,42,0,42,0,1,,,,,,,,,,,,,,,,,,,,,,,,,,,,,,,,,,,,,,,
,,,,,,,,2023-08-24_09h01.23.055,HF_wild_card,2022.2.4,Win32,59.85515054,56ca0400b30699000bd9d94f,64e63663dbcaf322d2eec8da,64e703ae4d17421b1fb7e83a,,,,,,,ctch,resources/DB.BMP,resources/DBN.BMP,Door1,-0.348148134,-0.069444444,1,0,0,0.9436,optionLeft,30,2150,1,43,0,43,0,1,,,,,,,,,,,,,,,,,,,,,,,,,,,,,,,,,,,,,,,
,,,,,,,,2023-08-24_09h01.23.055,HF_wild_card,2022.2.4,Win32,59.85515054,56ca0400b30699000bd9d94f,64e63663dbcaf322d2eec8da,64e703ae4d17421b1fb7e83a,,,,,,,,,,,,,,,,,,,,,,,,,,0,0,0,0,1,,,,,,,,,,,,,,,,,,,,,,,,,,,,,,,,,,
,,,,,,,,2023-08-24_09h01.23.055,HF_wild_card,2022.2.4,Win32,59.85515054,56ca0400b30699000bd9d94f,64e63663dbcaf322d2eec8da,64e703ae4d17421b1fb7e83a,,,,,,,sngl,resources/Empty.png,resources/DP.BMP,WildCard_NonEx,0.351851852,-0.060185185,1,0,0,0.8225,optionRight,55,2205,2,0,0,0,0,1,,,,,,,,,,,,,,,,,,,,,,,,,,,,,,,,,,,,,,,
,,,,,,,,2023-08-24_09h01.23.055,HF_wild_card,2022.2.4,Win32,59.85515054,56ca0400b30699000bd9d94f,64e63663dbcaf322d2eec8da,64e703ae4d17421b1fb7e83a,,,,,,,sngl,resources/DG.BMP,resources/Empty.png,Door3,-0.323148127,-0.046296296,1,0,0,0.8453,optionLeft,70,2275,2,1,0,1,0,1,,,,,,,,,,,,,,,,,,,,,,,,,,,,,,,,,,,,,,,
,,,,,,,,2023-08-24_09h01.23.055,HF_wild_card,2022.2.4,Win32,59.85515054,56ca0400b30699000bd9d94f,64e63663dbcaf322d2eec8da,64e703ae4d17421b1fb7e83a,,,,,,,decisionTrl,resources/DG.BMP,resources/DP.BMP,WildCard_NonEx,0.426851908,-0.068518533,1,0,0,0.9451,optionRight,55,2330,2,2,0,2,0,1,,,,,,,,,,,,,,,,,,,,,,,,,,,,,,,,,,,,,,,
,,,,,,,,2023-08-24_09h01.23.055,HF_wild_card,2022.2.4,Win32,59.85515054,56ca0400b30699000bd9d94f,64e63663dbcaf322d2eec8da,64e703ae4d17421b1fb7e83a,,,,,,,decisionTrl,resources/DBN.BMP,resources/DG.BMP,Door4,-0.25,-0.028703725,1,0,0,0.7583,optionLeft,80,2410,2,3,0,3,0,1,,,,,,,,,,,,,,,,,,,,,,,,,,,,,,,,,,,,,,,
,,,,,,,,2023-08-24_09h01.23.055,HF_wild_card,2022.2.4,Win32,59.85515054,56ca0400b30699000bd9d94f,64e63663dbcaf322d2eec8da,64e703ae4d17421b1fb7e83a,,,,,,,ctch,resources/DG.BMP,resources/DR.BMP,Door2,0.375,-0.063888903,1,0,0,0.9668,optionRight,20,2430,2,4,0,4,0,1,,,,,,,,,,,,,,,,,,,,,,,,,,,,,,,,,,,,,,,
,,,,,,,,2023-08-24_09h01.23.055,HF_wild_card,2022.2.4,Win32,59.85515054,56ca0400b30699000bd9d94f,64e63663dbcaf322d2eec8da,64e703ae4d17421b1fb7e83a,,,,,,,sngl,resources/DB.BMP,resources/Empty.png,Door1,-0.248148106,-0.047222243,1,0,0,0.8302,optionLeft,30,2460,2,5,0,5,0,1,,,,,,,,,,,,,,,,,,,,,,,,,,,,,,,,,,,,,,,
,,,,,,,,2023-08-24_09h01.23.055,HF_wild_card,2022.2.4,Win32,59.85515054,56ca0400b30699000bd9d94f,64e63663dbcaf322d2eec8da,64e703ae4d17421b1fb7e83a,,,,,,,decisionTrl,resources/DBN.BMP,resources/DG.BMP,Door4,-0.276851866,-0.029629637,1,0,0,0.8576,optionLeft,60,2520,2,6,0,6,0,1,,,,,,,,,,,,,,,,,,,,,,,,,,,,,,,,,,,,,,,
,,,,,,,,2023-08-24_09h01.23.055,HF_wild_card,2022.2.4,Win32,59.85515054,56ca0400b30699000bd9d94f,64e63663dbcaf322d2eec8da,64e703ae4d17421b1fb7e83a,,,,,,,sngl,resources/DP.BMP,resources/Empty.png,WildCard_NonEx,-0.286111125,-0.061111132,1,0,0,0.8624,optionLeft,55,2575,2,7,0,7,0,1,,,,,,,,,,,,,,,,,,,,,,,,,,,,,,,,,,,,,,,
,,,,,,,,2023-08-24_09h01.23.055,HF_wild_card,2022.2.4,Win32,59.85515054,56ca0400b30699000bd9d94f,64e63663dbcaf322d2eec8da,64e703ae4d17421b1fb7e83a,,,,,,,decisionTrl,resources/DP.BMP,resources/DR.BMP,WildCard_NonEx,-0.292592578,-0.074074074,1,0,0,1.4081,optionLeft,45,2620,2,8,0,8,0,1,,,,,,,,,,,,,,,,,,,,,,,,,,,,,,,,,,,,,,,
,,,,,,,,2023-08-24_09h01.23.055,HF_wild_card,2022.2.4,Win32,59.85515054,56ca0400b30699000bd9d94f,64e63663dbcaf322d2eec8da,64e703ae4d17421b1fb7e83a,,,,,,,decisionTrl,resources/DBN.BMP,resources/DG.BMP,Door4,-0.389814801,-0.098148134,1,0,0,0.9121,optionLeft,60,2680,2,9,0,9,0,1,,,,,,,,,,,,,,,,,,,,,,,,,,,,,,,,,,,,,,,
,,,,,,,,2023-08-24_09h01.23.055,HF_wild_card,2022.2.4,Win32,59.85515054,56ca0400b30699000bd9d94f,64e63663dbcaf322d2eec8da,64e703ae4d17421b1fb7e83a,,,,,,,decisionTrl,resources/DB.BMP,resources/DP.BMP,WildCard_NonEx,0.37037037,-0.10092594,1,0,0,0.9452,optionRight,55,2735,2,10,0,10,0,1,,,,,,,,,,,,,,,,,,,,,,,,,,,,,,,,,,,,,,,
,,,,,,,,2023-08-24_09h01.23.055,HF_wild_card,2022.2.4,Win32,59.85515054,56ca0400b30699000bd9d94f,64e63663dbcaf322d2eec8da,64e703ae4d17421b1fb7e83a,,,,,,,decisionTrl,resources/DBN.BMP,resources/DG.BMP,Door4,-0.395370377,-0.087962963,1,0,0,0.8118,optionLeft,80,2815,2,11,0,11,0,1,,,,,,,,,,,,,,,,,,,,,,,,,,,,,,,,,,,,,,,
,,,,,,,,2023-08-24_09h01.23.055,HF_wild_card,2022.2.4,Win32,59.85515054,56ca0400b30699000bd9d94f,64e63663dbcaf322d2eec8da,64e703ae4d17421b1fb7e83a,,,,,,,sngl,resources/Empty.png,resources/DG.BMP,Door3,0.304629714,-0.062962956,1,0,0,0.8295,optionRight,70,2885,2,12,0,12,0,1,,,,,,,,,,,,,,,,,,,,,,,,,,,,,,,,,,,,,,,
,,,,,,,,2023-08-24_09h01.23.055,HF_wild_card,2022.2.4,Win32,59.85515054,56ca0400b30699000bd9d94f,64e63663dbcaf322d2eec8da,64e703ae4d17421b1fb7e83a,,,,,,,decisionTrl,resources/DR.BMP,resources/DB.BMP,Door2,-0.285185143,-0.038888896,1,0,0,0.7444,optionLeft,20,2905,2,13,0,13,0,1,,,,,,,,,,,,,,,,,,,,,,,,,,,,,,,,,,,,,,,
,,,,,,,,2023-08-24_09h01.23.055,HF_wild_card,2022.2.4,Win32,59.85515054,56ca0400b30699000bd9d94f,64e63663dbcaf322d2eec8da,64e703ae4d17421b1fb7e83a,,,,,,,decisionTrl,resources/DB.BMP,resources/DR.BMP,Door2,0.301851908,-0.073148162,1,0,0,1.028,optionRight,40,2945,2,14,0,14,0,1,,,,,,,,,,,,,,,,,,,,,,,,,,,,,,,,,,,,,,,
,,,,,,,,2023-08-24_09h01.23.055,HF_wild_card,2022.2.4,Win32,59.85515054,56ca0400b30699000bd9d94f,64e63663dbcaf322d2eec8da,64e703ae4d17421b1fb7e83a,,,,,,,decisionTrl,resources/DB.BMP,resources/DR.BMP,Door1,-0.387962942,-0.078703704,1,0,0,0.8947,optionLeft,30,2975,2,15,0,15,0,1,,,,,,,,,,,,,,,,,,,,,,,,,,,,,,,,,,,,,,,
,,,,,,,,2023-08-24_09h01.23.055,HF_wild_card,2022.2.4,Win32,59.85515054,56ca0400b30699000bd9d94f,64e63663dbcaf322d2eec8da,64e703ae4d17421b1fb7e83a,,,,,,,decisionTrl,resources/DR.BMP,resources/DB.BMP,Door2,-0.298148155,-0.057407414,1,0,0,1.0422,optionLeft,20,2995,2,16,0,16,0,1,,,,,,,,,,,,,,,,,,,,,,,,,,,,,,,,,,,,,,,
,,,,,,,,2023-08-24_09h01.23.055,HF_wild_card,2022.2.4,Win32,59.85515054,56ca0400b30699000bd9d94f,64e63663dbcaf322d2eec8da,64e703ae4d17421b1fb7e83a,,,,,,,decisionTrl,resources/DP.BMP,resources/DBN.BMP,Door4,0.257407436,-0.025000007,1,0,0,0.8099,optionRight,60,3055,2,17,0,17,0,1,,,,,,,,,,,,,,,,,,,,,,,,,,,,,,,,,,,,,,,
,,,,,,,,2023-08-24_09h01.23.055,HF_wild_card,2022.2.4,Win32,59.85515054,56ca0400b30699000bd9d94f,64e63663dbcaf322d2eec8da,64e703ae4d17421b1fb7e83a,,,,,,,decisionTrl,resources/DBN.BMP,resources/DP.BMP,Door4,-0.277777778,-0.040740755,1,0,0,0.9268,optionLeft,80,3135,2,18,0,18,0,1,,,,,,,,,,,,,,,,,,,,,,,,,,,,,,,,,,,,,,,
,,,,,,,,2023-08-24_09h01.23.055,HF_wild_card,2022.2.4,Win32,59.85515054,56ca0400b30699000bd9d94f,64e63663dbcaf322d2eec8da,64e703ae4d17421b1fb7e83a,,,,,,,ctch,resources/DB.BMP,resources/DBN.BMP,Door4,0.324074074,-0.082407422,1,0,0,0.9624,optionRight,80,3215,2,19,0,19,0,1,,,,,,,,,,,,,,,,,,,,,,,,,,,,,,,,,,,,,,,
,,,,,,,,2023-08-24_09h01.23.055,HF_wild_card,2022.2.4,Win32,59.85515054,56ca0400b30699000bd9d94f,64e63663dbcaf322d2eec8da,64e703ae4d17421b1fb7e83a,,,,,,,ctch,resources/DBN.BMP,resources/DB.BMP,Door4,-0.261111083,-0.0074074,1,0,0,0.8456,optionLeft,80,3295,2,20,0,20,0,1,,,,,,,,,,,,,,,,,,,,,,,,,,,,,,,,,,,,,,,
,,,,,,,,2023-08-24_09h01.23.055,HF_wild_card,2022.2.4,Win32,59.85515054,56ca0400b30699000bd9d94f,64e63663dbcaf322d2eec8da,64e703ae4d17421b1fb7e83a,,,,,,,sngl,resources/DP.BMP,resources/Empty.png,WildCard_NonEx,-0.283333319,-0.022222236,1,0,0,0.8282,optionLeft,45,3340,2,21,0,21,0,1,,,,,,,,,,,,,,,,,,,,,,,,,,,,,,,,,,,,,,,
,,,,,,,,2023-08-24_09h01.23.055,HF_wild_card,2022.2.4,Win32,59.85515054,56ca0400b30699000bd9d94f,64e63663dbcaf322d2eec8da,64e703ae4d17421b1fb7e83a,,,,,,,decisionTrl,resources/DR.BMP,resources/DP.BMP,WildCard_NonEx,0.243518547,-0.008333347,1,0,0,1.0295,optionRight,45,3385,2,22,0,22,0,1,,,,,,,,,,,,,,,,,,,,,,,,,,,,,,,,,,,,,,,
,,,,,,,,2023-08-24_09h01.23.055,HF_wild_card,2022.2.4,Win32,59.85515054,56ca0400b30699000bd9d94f,64e63663dbcaf322d2eec8da,64e703ae4d17421b1fb7e83a,,,,,,,ctch,resources/DR.BMP,resources/DG.BMP,Door2,-0.296296296,-0.01203703,1,0,0,0.8594,optionLeft,20,3405,2,23,0,23,0,1,,,,,,,,,,,,,,,,,,,,,,,,,,,,,,,,,,,,,,,
,,,,,,,,2023-08-24_09h01.23.055,HF_wild_card,2022.2.4,Win32,59.85515054,56ca0400b30699000bd9d94f,64e63663dbcaf322d2eec8da,64e703ae4d17421b1fb7e83a,,,,,,,decisionTrl,resources/DP.BMP,resources/DB.BMP,Door1,0.324074074,-0.01666666,1,0,0,0.8073,optionRight,30,3435,2,24,0,24,0,1,,,,,,,,,,,,,,,,,,,,,,,,,,,,,,,,,,,,,,,
,,,,,,,,2023-08-24_09h01.23.055,HF_wild_card,2022.2.4,Win32,59.85515054,56ca0400b30699000bd9d94f,64e63663dbcaf322d2eec8da,64e703ae4d17421b1fb7e83a,,,,,,,sngl,resources/DBN.BMP,resources/Empty.png,Door4,-0.329629616,0.021296289,1,0,0,0.641,optionLeft,60,3495,2,25,0,25,0,1,,,,,,,,,,,,,,,,,,,,,,,,,,,,,,,,,,,,,,,
,,,,,,,,2023-08-24_09h01.23.055,HF_wild_card,2022.2.4,Win32,59.85515054,56ca0400b30699000bd9d94f,64e63663dbcaf322d2eec8da,64e703ae4d17421b1fb7e83a,,,,,,,sngl,resources/DR.BMP,resources/Empty.png,Door2,-0.292592578,-0.042592614,1,0,0,0.8196,optionLeft,20,3515,2,26,0,26,0,1,,,,,,,,,,,,,,,,,,,,,,,,,,,,,,,,,,,,,,,
,,,,,,,,2023-08-24_09h01.23.055,HF_wild_card,2022.2.4,Win32,59.85515054,56ca0400b30699000bd9d94f,64e63663dbcaf322d2eec8da,64e703ae4d17421b1fb7e83a,,,,,,,decisionTrl,resources/DG.BMP,resources/DBN.BMP,Door4,0.437962991,-0.028703725,1,0,0,0.8318,optionRight,80,3595,2,27,0,27,0,1,,,,,,,,,,,,,,,,,,,,,,,,,,,,,,,,,,,,,,,
,,,,,,,,2023-08-24_09h01.23.055,HF_wild_card,2022.2.4,Win32,59.85515054,56ca0400b30699000bd9d94f,64e63663dbcaf322d2eec8da,64e703ae4d17421b1fb7e83a,,,,,,,sngl,resources/Empty.png,resources/DR.BMP,Door2,0.404629601,-0.052777785,1,0,0,0.8094,optionRight,40,3635,2,28,0,28,0,1,,,,,,,,,,,,,,,,,,,,,,,,,,,,,,,,,,,,,,,
,,,,,,,,2023-08-24_09h01.23.055,HF_wild_card,2022.2.4,Win32,59.85515054,56ca0400b30699000bd9d94f,64e63663dbcaf322d2eec8da,64e703ae4d17421b1fb7e83a,,,,,,,ctch,resources/DG.BMP,resources/DR.BMP,Door3,-0.232407393,-0.035185178,1,0,0,1.1817,optionLeft,70,3705,2,29,0,29,0,1,,,,,,,,,,,,,,,,,,,,,,,,,,,,,,,,,,,,,,,
,,,,,,,,2023-08-24_09h01.23.055,HF_wild_card,2022.2.4,Win32,59.85515054,56ca0400b30699000bd9d94f,64e63663dbcaf322d2eec8da,64e703ae4d17421b1fb7e83a,,,,,,,ctch,resources/DBN.BMP,resources/DB.BMP,Door4,-0.235185199,-0.049074067,1,0,0,1.394,optionLeft,80,3785,2,30,0,30,0,1,,,,,,,,,,,,,,,,,,,,,,,,,,,,,,,,,,,,,,,
,,,,,,,,2023-08-24_09h01.23.055,HF_wild_card,2022.2.4,Win32,59.85515054,56ca0400b30699000bd9d94f,64e63663dbcaf322d2eec8da,64e703ae4d17421b1fb7e83a,,,,,,,decisionTrl,resources/DG.BMP,resources/DBN.BMP,Door4,0.395370342,-0.077777792,1,0,0,0.8916,optionRight,80,3865,2,31,0,31,0,1,,,,,,,,,,,,,,,,,,,,,,,,,,,,,,,,,,,,,,,
,,,,,,,,2023-08-24_09h01.23.055,HF_wild_card,2022.2.4,Win32,59.85515054,56ca0400b30699000bd9d94f,64e63663dbcaf322d2eec8da,64e703ae4d17421b1fb7e83a,,,,,,,decisionTrl,resources/DP.BMP,resources/DG.BMP,Door3,0.384259259,-0.000925947,1,0,0,0.8636,optionRight,70,3935,2,32,0,32,0,1,,,,,,,,,,,,,,,,,,,,,,,,,,,,,,,,,,,,,,,
,,,,,,,,2023-08-24_09h01.23.055,HF_wild_card,2022.2.4,Win32,59.85515054,56ca0400b30699000bd9d94f,64e63663dbcaf322d2eec8da,64e703ae4d17421b1fb7e83a,,,,,,,sngl,resources/Empty.png,resources/DBN.BMP,Door4,0.390740712,0.005555541,1,0,0,0.8637,optionRight,80,4015,2,33,0,33,0,1,,,,,,,,,,,,,,,,,,,,,,,,,,,,,,,,,,,,,,,
,,,,,,,,2023-08-24_09h01.23.055,HF_wild_card,2022.2.4,Win32,59.85515054,56ca0400b30699000bd9d94f,64e63663dbcaf322d2eec8da,64e703ae4d17421b1fb7e83a,,,,,,,ctch,resources/DR.BMP,resources/DG.BMP,Door3,0.226851852,-0.028703725,1,0,0,1.9969,optionRight,70,4085,2,34,0,34,0,1,,,,,,,,,,,,,,,,,,,,,,,,,,,,,,,,,,,,,,,
,,,,,,,,2023-08-24_09h01.23.055,HF_wild_card,2022.2.4,Win32,59.85515054,56ca0400b30699000bd9d94f,64e63663dbcaf322d2eec8da,64e703ae4d17421b1fb7e83a,,,,,,,sngl,resources/Empty.png,resources/DB.BMP,Door1,0.400925954,-0.011111118,1,0,0,0.861,optionRight,30,4115,2,35,0,35,0,1,,,,,,,,,,,,,,,,,,,,,,,,,,,,,,,,,,,,,,,
,,,,,,,,2023-08-24_09h01.23.055,HF_wild_card,2022.2.4,Win32,59.85515054,56ca0400b30699000bd9d94f,64e63663dbcaf322d2eec8da,64e703ae4d17421b1fb7e83a,,,,,,,ctch,resources/DB.BMP,resources/DBN.BMP,Door4,0.363888917,-0.028703725,1,0,0,0.9306,optionRight,80,4195,2,36,0,36,0,1,,,,,,,,,,,,,,,,,,,,,,,,,,,,,,,,,,,,,,,
,,,,,,,,2023-08-24_09h01.23.055,HF_wild_card,2022.2.4,Win32,59.85515054,56ca0400b30699000bd9d94f,64e63663dbcaf322d2eec8da,64e703ae4d17421b1fb7e83a,,,,,,,decisionTrl,resources/DB.BMP,resources/DR.BMP,Door1,-0.232407393,-0.01203703,1,0,0,1.8188,optionLeft,30,4225,2,37,0,37,0,1,,,,,,,,,,,,,,,,,,,,,,,,,,,,,,,,,,,,,,,
,,,,,,,,2023-08-24_09h01.23.055,HF_wild_card,2022.2.4,Win32,59.85515054,56ca0400b30699000bd9d94f,64e63663dbcaf322d2eec8da,64e703ae4d17421b1fb7e83a,,,,,,,decisionTrl,resources/DR.BMP,resources/DB.BMP,Door1,0.271296325,-0.015740748,1,0,0,0.9979,optionRight,30,4255,2,38,0,38,0,1,,,,,,,,,,,,,,,,,,,,,,,,,,,,,,,,,,,,,,,
,,,,,,,,2023-08-24_09h01.23.055,HF_wild_card,2022.2.4,Win32,59.85515054,56ca0400b30699000bd9d94f,64e63663dbcaf322d2eec8da,64e703ae4d17421b1fb7e83a,,,,,,,decisionTrl,resources/DB.BMP,resources/DR.BMP,Door1,-0.17777775,-0.029629637,1,0,0,1.2572,optionLeft,30,4285,2,39,0,39,0,1,,,,,,,,,,,,,,,,,,,,,,,,,,,,,,,,,,,,,,,
,,,,,,,,2023-08-24_09h01.23.055,HF_wild_card,2022.2.4,Win32,59.85515054,56ca0400b30699000bd9d94f,64e63663dbcaf322d2eec8da,64e703ae4d17421b1fb7e83a,,,,,,,sngl,resources/Empty.png,resources/DP.BMP,WildCard_NonEx,0.313888974,-0.052777785,1,0,0,0.7972,optionRight,45,4330,2,40,0,40,0,1,,,,,,,,,,,,,,,,,,,,,,,,,,,,,,,,,,,,,,,
,,,,,,,,2023-08-24_09h01.23.055,HF_wild_card,2022.2.4,Win32,59.85515054,56ca0400b30699000bd9d94f,64e63663dbcaf322d2eec8da,64e703ae4d17421b1fb7e83a,,,,,,,decisionTrl,resources/DG.BMP,resources/DBN.BMP,Door4,0.396296325,-0.019444466,1,0,0,0.9146,optionRight,60,4390,2,41,0,41,0,1,,,,,,,,,,,,,,,,,,,,,,,,,,,,,,,,,,,,,,,
,,,,,,,,2023-08-24_09h01.23.055,HF_wild_card,2022.2.4,Win32,59.85515054,56ca0400b30699000bd9d94f,64e63663dbcaf322d2eec8da,64e703ae4d17421b1fb7e83a,,,,,,,decisionTrl,resources/DR.BMP,resources/DB.BMP,Door2,-0.175925926,-0.053703697,1,0,0,1.192,optionLeft,40,4430,2,42,0,42,0,1,,,,,,,,,,,,,,,,,,,,,,,,,,,,,,,,,,,,,,,
,,,,,,,,2023-08-24_09h01.23.055,HF_wild_card,2022.2.4,Win32,59.85515054,56ca0400b30699000bd9d94f,64e63663dbcaf322d2eec8da,64e703ae4d17421b1fb7e83a,,,,,,,decisionTrl,resources/DG.BMP,resources/DBN.BMP,Door4,0.347222222,-0.019444466,1,0,0,0.8111,optionRight,60,4490,2,43,0,43,0,1,,,,,,,,,,,,,,,,,,,,,,,,,,,,,,,,,,,,,,,
,,,,,,,,2023-08-24_09h01.23.055,HF_wild_card,2022.2.4,Win32,59.85515054,56ca0400b30699000bd9d94f,64e63663dbcaf322d2eec8da,64e703ae4d17421b1fb7e83a,,,,,,,,,,,,,,,,,,,,,,,,,,1,0,1,0,1,,,,,,,,,,,,,,,,,,,,,,,,,,,,,,,,,,
,,,,,,,,2023-08-24_09h01.23.055,HF_wild_card,2022.2.4,Win32,59.85515054,56ca0400b30699000bd9d94f,64e63663dbcaf322d2eec8da,64e703ae4d17421b1fb7e83a,,,,,,,decisionTrl,resources/DB.BMP,resources/DR.BMP,Door1,-0.261111083,-0.044444437,1,0,0,1.2037,optionLeft,30,4520,3,0,0,0,0,1,,,,,,,,,,,,,,,,,,,,,,,,,,,,,,,,,,,,,,,
,,,,,,,,2023-08-24_09h01.23.055,HF_wild_card,2022.2.4,Win32,59.85515054,56ca0400b30699000bd9d94f,64e63663dbcaf322d2eec8da,64e703ae4d17421b1fb7e83a,,,,,,,sngl,resources/Empty.png,resources/DR.BMP,Door2,0.329629686,-0.026851866,1,0,0,0.793,optionRight,20,4540,3,1,0,1,0,1,,,,,,,,,,,,,,,,,,,,,,,,,,,,,,,,,,,,,,,
,,,,,,,,2023-08-24_09h01.23.055,HF_wild_card,2022.2.4,Win32,59.85515054,56ca0400b30699000bd9d94f,64e63663dbcaf322d2eec8da,64e703ae4d17421b1fb7e83a,,,,,,,decisionTrl,resources/DG.BMP,resources/DBN.BMP,Door4,0.460185157,-0.043518526,1,0,0,0.8429,optionRight,60,4600,3,2,0,2,0,1,,,,,,,,,,,,,,,,,,,,,,,,,,,,,,,,,,,,,,,
,,,,,,,,2023-08-24_09h01.23.055,HF_wild_card,2022.2.4,Win32,59.85515054,56ca0400b30699000bd9d94f,64e63663dbcaf322d2eec8da,64e703ae4d17421b1fb7e83a,,,,,,,decisionTrl,resources/DBN.BMP,resources/DG.BMP,Door4,-0.277777778,-0.034259266,1,0,0,0.8451,optionLeft,60,4660,3,3,0,3,0,1,,,,,,,,,,,,,,,,,,,,,,,,,,,,,,,,,,,,,,,
,,,,,,,,2023-08-24_09h01.23.055,HF_wild_card,2022.2.4,Win32,59.85515054,56ca0400b30699000bd9d94f,64e63663dbcaf322d2eec8da,64e703ae4d17421b1fb7e83a,,,,,,,ctch,resources/DG.BMP,resources/DR.BMP,Door2,0.359259288,0.01666666,1,0,0,1.0125,optionRight,40,4700,3,4,0,4,0,1,,,,,,,,,,,,,,,,,,,,,,,,,,,,,,,,,,,,,,,
,,,,,,,,2023-08-24_09h01.23.055,HF_wild_card,2022.2.4,Win32,59.85515054,56ca0400b30699000bd9d94f,64e63663dbcaf322d2eec8da,64e703ae4d17421b1fb7e83a,,,,,,,sngl,resources/DBN.BMP,resources/Empty.png,Door4,-0.407407407,-0.026851866,1,0,0,0.8615,optionLeft,80,4780,3,5,0,5,0,1,,,,,,,,,,,,,,,,,,,,,,,,,,,,,,,,,,,,,,,
,,,,,,,,2023-08-24_09h01.23.055,HF_wild_card,2022.2.4,Win32,59.85515054,56ca0400b30699000bd9d94f,64e63663dbcaf322d2eec8da,64e703ae4d17421b1fb7e83a,,,,,,,sngl,resources/DP.BMP,resources/Empty.png,WildCard_NonEx,-0.273148148,-0.027777778,1,0,0,0.8245,optionLeft,45,4825,3,6,0,6,0,1,,,,,,,,,,,,,,,,,,,,,,,,,,,,,,,,,,,,,,,
,,,,,,,,2023-08-24_09h01.23.055,HF_wild_card,2022.2.4,Win32,59.85515054,56ca0400b30699000bd9d94f,64e63663dbcaf322d2eec8da,64e703ae4d17421b1fb7e83a,,,,,,,ctch,resources/DBN.BMP,resources/DB.BMP,Door4,-0.35833334,-0.033333355,1,0,0,0.8101,optionLeft,60,4885,3,7,0,7,0,1,,,,,,,,,,,,,,,,,,,,,,,,,,,,,,,,,,,,,,,
,,,,,,,,2023-08-24_09h01.23.055,HF_wild_card,2022.2.4,Win32,59.85515054,56ca0400b30699000bd9d94f,64e63663dbcaf322d2eec8da,64e703ae4d17421b1fb7e83a,,,,,,,decisionTrl,resources/DR.BMP,resources/DB.BMP,Door2,-0.185185185,-0.090740734,1,0,0,1.4915,optionLeft,20,4905,3,8,0,8,0,1,,,,,,,,,,,,,,,,,,,,,,,,,,,,,,,,,,,,,,,
,,,,,,,,2023-08-24_09h01.23.055,HF_wild_card,2022.2.4,Win32,59.85515054,56ca0400b30699000bd9d94f,64e63663dbcaf322d2eec8da,64e703ae4d17421b1fb7e83a,,,,,,,decisionTrl,resources/DB.BMP,resources/DP.BMP,WildCard_NonEx,0.487037094,-0.08888891,1,0,0,1.5237,optionRight,45,4950,3,9,0,9,0,1,,,,,,,,,,,,,,,,,,,,,,,,,,,,,,,,,,,,,,,
,,,,,,,,2023-08-24_09h01.23.055,HF_wild_card,2022.2.4,Win32,59.85515054,56ca0400b30699000bd9d94f,64e63663dbcaf322d2eec8da,64e703ae4d17421b1fb7e83a,,,,,,,sngl,resources/Empty.png,resources/DP.BMP,WildCard_NonEx,0.250925912,-0.01203703,1,0,0,0.7869,optionRight,45,4995,3,10,0,10,0,1,,,,,,,,,,,,,,,,,,,,,,,,,,,,,,,,,,,,,,,
,,,,,,,,2023-08-24_09h01.23.055,HF_wild_card,2022.2.4,Win32,59.85515054,56ca0400b30699000bd9d94f,64e63663dbcaf322d2eec8da,64e703ae4d17421b1fb7e83a,,,,,,,decisionTrl,resources/DG.BMP,resources/DBN.BMP,Door4,0.276851866,-0.056481503,1,0,0,1.0485,optionRight,80,5075,3,11,0,11,0,1,,,,,,,,,,,,,,,,,,,,,,,,,,,,,,,,,,,,,,,
,,,,,,,,2023-08-24_09h01.23.055,HF_wild_card,2022.2.4,Win32,59.85515054,56ca0400b30699000bd9d94f,64e63663dbcaf322d2eec8da,64e703ae4d17421b1fb7e83a,,,,,,,decisionTrl,resources/DBN.BMP,resources/DG.BMP,Door4,-0.39907406,-0.069444444,1,0,0,0.8243,optionLeft,80,5155,3,12,0,12,0,1,,,,,,,,,,,,,,,,,,,,,,,,,,,,,,,,,,,,,,,
,,,,,,,,2023-08-24_09h01.23.055,HF_wild_card,2022.2.4,Win32,59.85515054,56ca0400b30699000bd9d94f,64e63663dbcaf322d2eec8da,64e703ae4d17421b1fb7e83a,,,,,,,ctch,resources/DR.BMP,resources/DG.BMP,Door3,0.316666638,-0.063888903,1,0,0,0.9153,optionRight,70,5225,3,13,0,13,0,1,,,,,,,,,,,,,,,,,,,,,,,,,,,,,,,,,,,,,,,
,,,,,,,,2023-08-24_09h01.23.055,HF_wild_card,2022.2.4,Win32,59.85515054,56ca0400b30699000bd9d94f,64e63663dbcaf322d2eec8da,64e703ae4d17421b1fb7e83a,,,,,,,ctch,resources/DBN.BMP,resources/DB.BMP,Door4,-0.296296296,-0.028703725,1,0,0,0.798,optionLeft,60,5285,3,14,0,14,0,1,,,,,,,,,,,,,,,,,,,,,,,,,,,,,,,,,,,,,,,
,,,,,,,,2023-08-24_09h01.23.055,HF_wild_card,2022.2.4,Win32,59.85515054,56ca0400b30699000bd9d94f,64e63663dbcaf322d2eec8da,64e703ae4d17421b1fb7e83a,,,,,,,decisionTrl,resources/DR.BMP,resources/DB.BMP,Door2,-0.299074067,-0.048148155,1,0,0,0.9682,optionLeft,40,5325,3,15,0,15,0,1,,,,,,,,,,,,,,,,,,,,,,,,,,,,,,,,,,,,,,,
,,,,,,,,2023-08-24_09h01.23.055,HF_wild_card,2022.2.4,Win32,59.85515054,56ca0400b30699000bd9d94f,64e63663dbcaf322d2eec8da,64e703ae4d17421b1fb7e83a,,,,,,,ctch,resources/DR.BMP,resources/DG.BMP,Door3,0.240740741,-0.020370377,1,0,0,0.8926,optionRight,70,5395,3,16,0,16,0,1,,,,,,,,,,,,,,,,,,,,,,,,,,,,,,,,,,,,,,,
,,,,,,,,2023-08-24_09h01.23.055,HF_wild_card,2022.2.4,Win32,59.85515054,56ca0400b30699000bd9d94f,64e63663dbcaf322d2eec8da,64e703ae4d17421b1fb7e83a,,,,,,,decisionTrl,resources/DBN.BMP,resources/DP.BMP,Door4,-0.303703697,-0.010185206,1,0,0,0.7917,optionLeft,80,5475,3,17,0,17,0,1,,,,,,,,,,,,,,,,,,,,,,,,,,,,,,,,,,,,,,,
,,,,,,,,2023-08-24_09h01.23.055,HF_wild_card,2022.2.4,Win32,59.85515054,56ca0400b30699000bd9d94f,64e63663dbcaf322d2eec8da,64e703ae4d17421b1fb7e83a,,,,,,,sngl,resources/Empty.png,resources/DP.BMP,WildCard_NonEx,0.341666751,-0.012962977,1,0,0,0.8577,optionRight,55,5530,3,18,0,18,0,1,,,,,,,,,,,,,,,,,,,,,,,,,,,,,,,,,,,,,,,
,,,,,,,,2023-08-24_09h01.23.055,HF_wild_card,2022.2.4,Win32,59.85515054,56ca0400b30699000bd9d94f,64e63663dbcaf322d2eec8da,64e703ae4d17421b1fb7e83a,,,,,,,decisionTrl,resources/DG.BMP,resources/DP.BMP,Door3,-0.233333305,-0.022222236,1,0,0,0.895,optionLeft,70,5600,3,19,0,19,0,1,,,,,,,,,,,,,,,,,,,,,,,,,,,,,,,,,,,,,,,
,,,,,,,,2023-08-24_09h01.23.055,HF_wild_card,2022.2.4,Win32,59.85515054,56ca0400b30699000bd9d94f,64e63663dbcaf322d2eec8da,64e703ae4d17421b1fb7e83a,,,,,,,decisionTrl,resources/DR.BMP,resources/DB.BMP,Door1,0.369444529,-0.008333347,1,0,0,0.9081,optionRight,30,5630,3,20,0,20,0,1,,,,,,,,,,,,,,,,,,,,,,,,,,,,,,,,,,,,,,,
,,,,,,,,2023-08-24_09h01.23.055,HF_wild_card,2022.2.4,Win32,59.85515054,56ca0400b30699000bd9d94f,64e63663dbcaf322d2eec8da,64e703ae4d17421b1fb7e83a,,,,,,,decisionTrl,resources/DP.BMP,resources/DG.BMP,Door3,0.332407492,-0.025000007,1,0,0,0.8786,optionRight,70,5700,3,21,0,21,0,1,,,,,,,,,,,,,,,,,,,,,,,,,,,,,,,,,,,,,,,
,,,,,,,,2023-08-24_09h01.23.055,HF_wild_card,2022.2.4,Win32,59.85515054,56ca0400b30699000bd9d94f,64e63663dbcaf322d2eec8da,64e703ae4d17421b1fb7e83a,,,,,,,sngl,resources/DR.BMP,resources/Empty.png,Door2,-0.235185199,-0.031481496,1,0,0,0.7954,optionLeft,40,5740,3,22,0,22,0,1,,,,,,,,,,,,,,,,,,,,,,,,,,,,,,,,,,,,,,,
,,,,,,,,2023-08-24_09h01.23.055,HF_wild_card,2022.2.4,Win32,59.85515054,56ca0400b30699000bd9d94f,64e63663dbcaf322d2eec8da,64e703ae4d17421b1fb7e83a,,,,,,,decisionTrl,resources/DR.BMP,resources/DP.BMP,Door2,-0.259259259,-0.038888896,1,0,0,0.996,optionLeft,20,5760,3,23,0,23,0,1,,,,,,,,,,,,,,,,,,,,,,,,,,,,,,,,,,,,,,,
,,,,,,,,2023-08-24_09h01.23.055,HF_wild_card,2022.2.4,Win32,59.85515054,56ca0400b30699000bd9d94f,64e63663dbcaf322d2eec8da,64e703ae4d17421b1fb7e83a,,,,,,,sngl,resources/DP.BMP,resources/Empty.png,WildCard_NonEx,-0.276851866,0.014814801,1,0,0,0.844,optionLeft,55,5815,3,24,0,24,0,1,,,,,,,,,,,,,,,,,,,,,,,,,,,,,,,,,,,,,,,
,,,,,,,,2023-08-24_09h01.23.055,HF_wild_card,2022.2.4,Win32,59.85515054,56ca0400b30699000bd9d94f,64e63663dbcaf322d2eec8da,64e703ae4d17421b1fb7e83a,,,,,,,decisionTrl,resources/DG.BMP,resources/DBN.BMP,Door4,0.335185157,-0.041666667,1,0,0,0.9241,optionRight,60,5875,3,25,0,25,0,1,,,,,,,,,,,,,,,,,,,,,,,,,,,,,,,,,,,,,,,
,,,,,,,,2023-08-24_09h01.23.055,HF_wild_card,2022.2.4,Win32,59.85515054,56ca0400b30699000bd9d94f,64e63663dbcaf322d2eec8da,64e703ae4d17421b1fb7e83a,,,,,,,decisionTrl,resources/DG.BMP,resources/DBN.BMP,Door4,0.362962935,-0.051851873,1,0,0,0.7798,optionRight,80,5955,3,26,0,26,0,1,,,,,,,,,,,,,,,,,,,,,,,,,,,,,,,,,,,,,,,
,,,,,,,,2023-08-24_09h01.23.055,HF_wild_card,2022.2.4,Win32,59.85515054,56ca0400b30699000bd9d94f,64e63663dbcaf322d2eec8da,64e703ae4d17421b1fb7e83a,,,,,,,decisionTrl,resources/DR.BMP,resources/DB.BMP,Door2,-0.334259245,-0.066666674,1,0,0,0.8962,optionLeft,20,5975,3,27,0,27,0,1,,,,,,,,,,,,,,,,,,,,,,,,,,,,,,,,,,,,,,,
,,,,,,,,2023-08-24_09h01.23.055,HF_wild_card,2022.2.4,Win32,59.85515054,56ca0400b30699000bd9d94f,64e63663dbcaf322d2eec8da,64e703ae4d17421b1fb7e83a,,,,,,,sngl,resources/DB.BMP,resources/Empty.png,Door1,-0.256481453,-0.040740755,1,0,0,0.7787,optionLeft,30,6005,3,28,0,28,0,1,,,,,,,,,,,,,,,,,,,,,,,,,,,,,,,,,,,,,,,
,,,,,,,,2023-08-24_09h01.23.055,HF_wild_card,2022.2.4,Win32,59.85515054,56ca0400b30699000bd9d94f,64e63663dbcaf322d2eec8da,64e703ae4d17421b1fb7e83a,,,,,,,decisionTrl,resources/DP.BMP,resources/DB.BMP,Door1,0.324074074,0.006481489,1,0,0,0.841,optionRight,30,6035,3,29,0,29,0,1,,,,,,,,,,,,,,,,,,,,,,,,,,,,,,,,,,,,,,,
,,,,,,,,2023-08-24_09h01.23.055,HF_wild_card,2022.2.4,Win32,59.85515054,56ca0400b30699000bd9d94f,64e63663dbcaf322d2eec8da,64e703ae4d17421b1fb7e83a,,,,,,,ctch,resources/DG.BMP,resources/DR.BMP,Door3,-0.267592607,-0.040740755,1,0,0,0.9206,optionLeft,70,6105,3,30,0,30,0,1,,,,,,,,,,,,,,,,,,,,,,,,,,,,,,,,,,,,,,,
,,,,,,,,2023-08-24_09h01.23.055,HF_wild_card,2022.2.4,Win32,59.85515054,56ca0400b30699000bd9d94f,64e63663dbcaf322d2eec8da,64e703ae4d17421b1fb7e83a,,,,,,,ctch,resources/DB.BMP,resources/DBN.BMP,Door4,0.366666723,-0.060185185,1,0,0,0.8623,optionRight,60,6165,3,31,0,31,0,1,,,,,,,,,,,,,,,,,,,,,,,,,,,,,,,,,,,,,,,
,,,,,,,,2023-08-24_09h01.23.055,HF_wild_card,2022.2.4,Win32,59.85515054,56ca0400b30699000bd9d94f,64e63663dbcaf322d2eec8da,64e703ae4d17421b1fb7e83a,,,,,,,ctch,resources/DB.BMP,resources/DBN.BMP,Door4,0.334259316,-0.12037037,1,0,0,0.891,optionRight,60,6225,3,32,0,32,0,1,,,,,,,,,,,,,,,,,,,,,,,,,,,,,,,,,,,,,,,
,,,,,,,,2023-08-24_09h01.23.055,HF_wild_card,2022.2.4,Win32,59.85515054,56ca0400b30699000bd9d94f,64e63663dbcaf322d2eec8da,64e703ae4d17421b1fb7e83a,,,,,,,decisionTrl,resources/DP.BMP,resources/DR.BMP,WildCard_NonEx,-0.312037044,-0.101851852,1,0,0,1.0346,optionLeft,55,6280,3,33,0,33,0,1,,,,,,,,,,,,,,,,,,,,,,,,,,,,,,,,,,,,,,,
,,,,,,,,2023-08-24_09h01.23.055,HF_wild_card,2022.2.4,Win32,59.85515054,56ca0400b30699000bd9d94f,64e63663dbcaf322d2eec8da,64e703ae4d17421b1fb7e83a,,,,,,,decisionTrl,resources/DBN.BMP,resources/DG.BMP,Door4,-0.247222194,-0.052777785,1,0,0,0.9907,optionLeft,60,6340,3,34,0,34,0,1,,,,,,,,,,,,,,,,,,,,,,,,,,,,,,,,,,,,,,,
,,,,,,,,2023-08-24_09h01.23.055,HF_wild_card,2022.2.4,Win32,59.85515054,56ca0400b30699000bd9d94f,64e63663dbcaf322d2eec8da,64e703ae4d17421b1fb7e83a,,,,,,,decisionTrl,resources/DBN.BMP,resources/DG.BMP,Door3,0.439814815,-0.026851866,1,0,0,0.915,optionRight,70,6410,3,35,0,35,0,1,,,,,,,,,,,,,,,,,,,,,,,,,,,,,,,,,,,,,,,
,,,,,,,,2023-08-24_09h01.23.055,HF_wild_card,2022.2.4,Win32,59.85515054,56ca0400b30699000bd9d94f,64e63663dbcaf322d2eec8da,64e703ae4d17421b1fb7e83a,,,,,,,sngl,resources/Empty.png,resources/DB.BMP,Door1,0.303703732,-0.10092594,1,0,0,1.1644,optionRight,30,6440,3,36,0,36,0,1,,,,,,,,,,,,,,,,,,,,,,,,,,,,,,,,,,,,,,,
,,,,,,,,2023-08-24_09h01.23.055,HF_wild_card,2022.2.4,Win32,59.85515054,56ca0400b30699000bd9d94f,64e63663dbcaf322d2eec8da,64e703ae4d17421b1fb7e83a,,,,,,,sngl,resources/Empty.png,resources/DBN.BMP,Door4,-0.020370342,-0.013888889,1,0,0,0.1806,optionRight,60,6500,3,37,0,37,0,1,,,,,,,,,,,,,,,,,,,,,,,,,,,,,,,,,,,,,,,
,,,,,,,,2023-08-24_09h01.23.055,HF_wild_card,2022.2.4,Win32,59.85515054,56ca0400b30699000bd9d94f,64e63663dbcaf322d2eec8da,64e703ae4d17421b1fb7e83a,,,,,,,decisionTrl,resources/DB.BMP,resources/DR.BMP,Door2,0.312037009,-0.057407414,1,0,0,1.0648,optionRight,20,6520,3,38,0,38,0,1,,,,,,,,,,,,,,,,,,,,,,,,,,,,,,,,,,,,,,,
,,,,,,,,2023-08-24_09h01.23.055,HF_wild_card,2022.2.4,Win32,59.85515054,56ca0400b30699000bd9d94f,64e63663dbcaf322d2eec8da,64e703ae4d17421b1fb7e83a,,,,,,,decisionTrl,resources/DB.BMP,resources/DR.BMP,Door1,-0.273148148,-0.068518533,1,0,0,0.894,optionLeft,30,6550,3,39,0,39,0,1,,,,,,,,,,,,,,,,,,,,,,,,,,,,,,,,,,,,,,,
,,,,,,,,2023-08-24_09h01.23.055,HF_wild_card,2022.2.4,Win32,59.85515054,56ca0400b30699000bd9d94f,64e63663dbcaf322d2eec8da,64e703ae4d17421b1fb7e83a,,,,,,,decisionTrl,resources/DP.BMP,resources/DBN.BMP,Door4,0.433333362,-0.033333355,1,0,0,0.8568,optionRight,80,6630,3,40,0,40,0,1,,,,,,,,,,,,,,,,,,,,,,,,,,,,,,,,,,,,,,,
,,,,,,,,2023-08-24_09h01.23.055,HF_wild_card,2022.2.4,Win32,59.85515054,56ca0400b30699000bd9d94f,64e63663dbcaf322d2eec8da,64e703ae4d17421b1fb7e83a,,,,,,,decisionTrl,resources/DB.BMP,resources/DR.BMP,Door1,-0.325925933,-0.076851845,1,0,0,0.9922,optionLeft,30,6660,3,41,0,41,0,1,,,,,,,,,,,,,,,,,,,,,,,,,,,,,,,,,,,,,,,
,,,,,,,,2023-08-24_09h01.23.055,HF_wild_card,2022.2.4,Win32,59.85515054,56ca0400b30699000bd9d94f,64e63663dbcaf322d2eec8da,64e703ae4d17421b1fb7e83a,,,,,,,sngl,resources/DG.BMP,resources/Empty.png,Door3,-0.300925926,-0.106481481,1,0,0,0.8316,optionLeft,70,6730,3,42,0,42,0,1,,,,,,,,,,,,,,,,,,,,,,,,,,,,,,,,,,,,,,,
,,,,,,,,2023-08-24_09h01.23.055,HF_wild_card,2022.2.4,Win32,59.85515054,56ca0400b30699000bd9d94f,64e63663dbcaf322d2eec8da,64e703ae4d17421b1fb7e83a,,,,,,,sngl,resources/Empty.png,resources/DG.BMP,Door3,0.387037065,-0.040740755,1,0,0,0.8243,optionRight,70,6800,3,43,0,43,0,1,,,,,,,,,,,,,,,,,,,,,,,,,,,,,,,,,,,,,,,
,,,,,,,,2023-08-24_09h01.23.055,HF_wild_card,2022.2.4,Win32,59.85515054,56ca0400b30699000bd9d94f,64e63663dbcaf322d2eec8da,64e703ae4d17421b1fb7e83a,,,,,,,,,,,,,,,,,,,,,,,,,,2,0,2,0,1,,,,,,,,,,,,,,,,,,,,,,,,,,,,,,,,,,
,,,,,,,,2023-08-24_09h01.23.055,HF_wild_card,2022.2.4,Win32,59.85515054,56ca0400b30699000bd9d94f,64e63663dbcaf322d2eec8da,64e703ae4d17421b1fb7e83a,,,,,,,decisionTrl,resources/DY.BMP,resources/DB.BMP,Door1,0.210185228,-0.147222236,1,0,0,1.2176,optionRight,30,6830,4,0,0,0,0,1,,,,,,,,,,,,,,,,,,,,,,,,,,,,,,,,,,,,,,,
,,,,,,,,2023-08-24_09h01.23.055,HF_wild_card,2022.2.4,Win32,59.85515054,56ca0400b30699000bd9d94f,64e63663dbcaf322d2eec8da,64e703ae4d17421b1fb7e83a,,,,,,,decisionTrl,resources/DBN.BMP,resources/DG.BMP,Door4,-0.309259238,-0.055555556,1,0,0,0.8617,optionLeft,80,6910,4,1,0,1,0,1,,,,,,,,,,,,,,,,,,,,,,,,,,,,,,,,,,,,,,,
,,,,,,,,2023-08-24_09h01.23.055,HF_wild_card,2022.2.4,Win32,59.85515054,56ca0400b30699000bd9d94f,64e63663dbcaf322d2eec8da,64e703ae4d17421b1fb7e83a,,,,,,,decisionTrl,resources/DY.BMP,resources/DBN.BMP,Door4,0.342592593,-0.024074095,1,0,0,1.1401,optionRight,80,6990,4,2,0,2,0,1,,,,,,,,,,,,,,,,,,,,,,,,,,,,,,,,,,,,,,,
,,,,,,,,2023-08-24_09h01.23.055,HF_wild_card,2022.2.4,Win32,59.85515054,56ca0400b30699000bd9d94f,64e63663dbcaf322d2eec8da,64e703ae4d17421b1fb7e83a,,,,,,,decisionTrl,resources/DG.BMP,resources/DBN.BMP,Door4,0.488888917,-0.01666666,1,0,0,0.9329,optionRight,80,7070,4,3,0,3,0,1,,,,,,,,,,,,,,,,,,,,,,,,,,,,,,,,,,,,,,,
,,,,,,,,2023-08-24_09h01.23.055,HF_wild_card,2022.2.4,Win32,59.85515054,56ca0400b30699000bd9d94f,64e63663dbcaf322d2eec8da,64e703ae4d17421b1fb7e83a,,,,,,,decisionTrl,resources/DR.BMP,resources/DB.BMP,Door2,-0.302777785,-0.076851845,1,0,0,0.9729,optionLeft,20,7090,4,4,0,4,0,1,,,,,,,,,,,,,,,,,,,,,,,,,,,,,,,,,,,,,,,
,,,,,,,,2023-08-24_09h01.23.055,HF_wild_card,2022.2.4,Win32,59.85515054,56ca0400b30699000bd9d94f,64e63663dbcaf322d2eec8da,64e703ae4d17421b1fb7e83a,,,,,,,decisionTrl,resources/DBN.BMP,resources/DY.BMP,Door4,-0.289814772,-0.039814808,1,0,0,1.0118,optionLeft,60,7150,4,5,0,5,0,1,,,,,,,,,,,,,,,,,,,,,,,,,,,,,,,,,,,,,,,
,,,,,,,,2023-08-24_09h01.23.055,HF_wild_card,2022.2.4,Win32,59.85515054,56ca0400b30699000bd9d94f,64e63663dbcaf322d2eec8da,64e703ae4d17421b1fb7e83a,,,,,,,sngl,resources/DB.BMP,resources/Empty.png,Door1,-0.206481439,-0.043518526,1,0,0,0.8031,optionLeft,30,7180,4,6,0,6,0,1,,,,,,,,,,,,,,,,,,,,,,,,,,,,,,,,,,,,,,,
,,,,,,,,2023-08-24_09h01.23.055,HF_wild_card,2022.2.4,Win32,59.85515054,56ca0400b30699000bd9d94f,64e63663dbcaf322d2eec8da,64e703ae4d17421b1fb7e83a,,,,,,,ctch,resources/DG.BMP,resources/DR.BMP,Door3,-0.237962935,-0.086111104,1,0,0,1.2522,optionLeft,70,7250,4,7,0,7,0,1,,,,,,,,,,,,,,,,,,,,,,,,,,,,,,,,,,,,,,,
,,,,,,,,2023-08-24_09h01.23.055,HF_wild_card,2022.2.4,Win32,59.85515054,56ca0400b30699000bd9d94f,64e63663dbcaf322d2eec8da,64e703ae4d17421b1fb7e83a,,,,,,,sngl,resources/Empty.png,resources/DR.BMP,Door2,0.285185213,-0.054629644,1,0,0,0.8627,optionRight,40,7290,4,8,0,8,0,1,,,,,,,,,,,,,,,,,,,,,,,,,,,,,,,,,,,,,,,
,,,,,,,,2023-08-24_09h01.23.055,HF_wild_card,2022.2.4,Win32,59.85515054,56ca0400b30699000bd9d94f,64e63663dbcaf322d2eec8da,64e703ae4d17421b1fb7e83a,,,,,,,decisionTrl,resources/DR.BMP,resources/DB.BMP,Door2,-0.335185192,-0.070370392,1,0,0,0.928,optionLeft,40,7330,4,9,0,9,0,1,,,,,,,,,,,,,,,,,,,,,,,,,,,,,,,,,,,,,,,
,,,,,,,,2023-08-24_09h01.23.055,HF_wild_card,2022.2.4,Win32,59.85515054,56ca0400b30699000bd9d94f,64e63663dbcaf322d2eec8da,64e703ae4d17421b1fb7e83a,,,,,,,sngl,resources/DBN.BMP,resources/Empty.png,Door4,-0.263888889,-0.021296289,1,0,0,0.8769,optionLeft,60,7390,4,10,0,10,0,1,,,,,,,,,,,,,,,,,,,,,,,,,,,,,,,,,,,,,,,
,,,,,,,,2023-08-24_09h01.23.055,HF_wild_card,2022.2.4,Win32,59.85515054,56ca0400b30699000bd9d94f,64e63663dbcaf322d2eec8da,64e703ae4d17421b1fb7e83a,,,,,,,sngl,resources/Empty.png,resources/DBN.BMP,Door4,0.387037065,0.002777771,1,0,0,0.8932,optionRight,80,7470,4,11,0,11,0,1,,,,,,,,,,,,,,,,,,,,,,,,,,,,,,,,,,,,,,,
,,,,,,,,2023-08-24_09h01.23.055,HF_wild_card,2022.2.4,Win32,59.85515054,56ca0400b30699000bd9d94f,64e63663dbcaf322d2eec8da,64e703ae4d17421b1fb7e83a,,,,,,,ctch,resources/DR.BMP,resources/DG.BMP,Door2,-0.26944443,-0.015740748,1,0,0,0.9122,optionLeft,40,7510,4,12,0,12,0,1,,,,,,,,,,,,,,,,,,,,,,,,,,,,,,,,,,,,,,,
,,,,,,,,2023-08-24_09h01.23.055,HF_wild_card,2022.2.4,Win32,59.85515054,56ca0400b30699000bd9d94f,64e63663dbcaf322d2eec8da,64e703ae4d17421b1fb7e83a,,,,,,,decisionTrl,resources/DY.BMP,resources/DG.BMP,Door3,0.349074046,-0.001851859,1,0,0,1.4507,optionRight,70,7580,4,13,0,13,0,1,,,,,,,,,,,,,,,,,,,,,,,,,,,,,,,,,,,,,,,
,,,,,,,,2023-08-24_09h01.23.055,HF_wild_card,2022.2.4,Win32,59.85515054,56ca0400b30699000bd9d94f,64e63663dbcaf322d2eec8da,64e703ae4d17421b1fb7e83a,,,,,,,decisionTrl,resources/DBN.BMP,resources/DG.BMP,Door3,0.263888889,0.005555541,1,0,0,1.7056,optionRight,70,7650,4,14,0,14,0,1,,,,,,,,,,,,,,,,,,,,,,,,,,,,,,,,,,,,,,,
,,,,,,,,2023-08-24_09h01.23.055,HF_wild_card,2022.2.4,Win32,59.85515054,56ca0400b30699000bd9d94f,64e63663dbcaf322d2eec8da,64e703ae4d17421b1fb7e83a,,,,,,,ctch,resources/DB.BMP,resources/DBN.BMP,Door4,0.37962963,0.035185178,1,0,0,0.9437,optionRight,80,7730,4,15,0,15,0,1,,,,,,,,,,,,,,,,,,,,,,,,,,,,,,,,,,,,,,,
,,,,,,,,2023-08-24_09h01.23.055,HF_wild_card,2022.2.4,Win32,59.85515054,56ca0400b30699000bd9d94f,64e63663dbcaf322d2eec8da,64e703ae4d17421b1fb7e83a,,,,,,,decisionTrl,resources/DBN.BMP,resources/DG.BMP,Door4,-0.305555556,-0.029629637,1,0,0,1.1415,optionLeft,80,7810,4,16,0,16,0,1,,,,,,,,,,,,,,,,,,,,,,,,,,,,,,,,,,,,,,,
,,,,,,,,2023-08-24_09h01.23.055,HF_wild_card,2022.2.4,Win32,59.85515054,56ca0400b30699000bd9d94f,64e63663dbcaf322d2eec8da,64e703ae4d17421b1fb7e83a,,,,,,,sngl,resources/Empty.png,resources/DB.BMP,Door1,0.325925898,-0.011111118,1,0,0,0.8479,optionRight,30,7840,4,17,0,17,0,1,,,,,,,,,,,,,,,,,,,,,,,,,,,,,,,,,,,,,,,
,,,,,,,,2023-08-24_09h01.23.055,HF_wild_card,2022.2.4,Win32,59.85515054,56ca0400b30699000bd9d94f,64e63663dbcaf322d2eec8da,64e703ae4d17421b1fb7e83a,,,,,,,decisionTrl,resources/DG.BMP,resources/DBN.BMP,Door4,0.412963019,-0.017592607,1,0,0,0.9436,optionRight,60,7900,4,18,0,18,0,1,,,,,,,,,,,,,,,,,,,,,,,,,,,,,,,,,,,,,,,
,,,,,,,,2023-08-24_09h01.23.055,HF_wild_card,2022.2.4,Win32,59.85515054,56ca0400b30699000bd9d94f,64e63663dbcaf322d2eec8da,64e703ae4d17421b1fb7e83a,,,,,,,decisionTrl,resources/DG.BMP,resources/DBN.BMP,Door3,-0.240740741,-0.029629637,1,0,0,1.0995,optionLeft,70,7970,4,19,0,19,0,1,,,,,,,,,,,,,,,,,,,,,,,,,,,,,,,,,,,,,,,
,,,,,,,,2023-08-24_09h01.23.055,HF_wild_card,2022.2.4,Win32,59.85515054,56ca0400b30699000bd9d94f,64e63663dbcaf322d2eec8da,64e703ae4d17421b1fb7e83a,,,,,,,decisionTrl,resources/DBN.BMP,resources/DG.BMP,Door3,0.436111168,-0.052777785,1,0,0,4.032,optionRight,70,8040,4,20,0,20,0,1,,,,,,,,,,,,,,,,,,,,,,,,,,,,,,,,,,,,,,,
,,,,,,,,2023-08-24_09h01.23.055,HF_wild_card,2022.2.4,Win32,59.85515054,56ca0400b30699000bd9d94f,64e63663dbcaf322d2eec8da,64e703ae4d17421b1fb7e83a,,,,,,,decisionTrl,resources/DG.BMP,resources/DY.BMP,Door3,-0.375,-0.081481474,1,0,0,1.3417,optionLeft,70,8110,4,21,0,21,0,1,,,,,,,,,,,,,,,,,,,,,,,,,,,,,,,,,,,,,,,
,,,,,,,,2023-08-24_09h01.23.055,HF_wild_card,2022.2.4,Win32,59.85515054,56ca0400b30699000bd9d94f,64e63663dbcaf322d2eec8da,64e703ae4d17421b1fb7e83a,,,,,,,decisionTrl,resources/DB.BMP,resources/DR.BMP,Door1,-0.212037051,-0.043518526,1,0,0,1.1219,optionLeft,30,8140,4,22,0,22,0,1,,,,,,,,,,,,,,,,,,,,,,,,,,,,,,,,,,,,,,,
,,,,,,,,2023-08-24_09h01.23.055,HF_wild_card,2022.2.4,Win32,59.85515054,56ca0400b30699000bd9d94f,64e63663dbcaf322d2eec8da,64e703ae4d17421b1fb7e83a,,,,,,,decisionTrl,resources/DB.BMP,resources/DR.BMP,Door2,0.296296296,-0.063888903,1,0,0,0.9625,optionRight,40,8180,4,23,0,23,0,1,,,,,,,,,,,,,,,,,,,,,,,,,,,,,,,,,,,,,,,
,,,,,,,,2023-08-24_09h01.23.055,HF_wild_card,2022.2.4,Win32,59.85515054,56ca0400b30699000bd9d94f,64e63663dbcaf322d2eec8da,64e703ae4d17421b1fb7e83a,,,,,,,ctch,resources/DBN.BMP,resources/DB.BMP,Door4,-0.318518497,-0.017592607,1,0,0,0.9489,optionLeft,60,8240,4,24,0,24,0,1,,,,,,,,,,,,,,,,,,,,,,,,,,,,,,,,,,,,,,,
,,,,,,,,2023-08-24_09h01.23.055,HF_wild_card,2022.2.4,Win32,59.85515054,56ca0400b30699000bd9d94f,64e63663dbcaf322d2eec8da,64e703ae4d17421b1fb7e83a,,,,,,,ctch,resources/DR.BMP,resources/DG.BMP,Door2,-0.401851831,-0.074074074,1,0,0,1.0804,optionLeft,40,8280,4,25,0,25,0,1,,,,,,,,,,,,,,,,,,,,,,,,,,,,,,,,,,,,,,,
,,,,,,,,2023-08-24_09h01.23.055,HF_wild_card,2022.2.4,Win32,59.85515054,56ca0400b30699000bd9d94f,64e63663dbcaf322d2eec8da,64e703ae4d17421b1fb7e83a,,,,,,,decisionTrl,resources/DR.BMP,resources/DB.BMP,Door1,0.219444487,-0.037962984,1,0,0,1.1045,optionRight,30,8310,4,26,0,26,0,1,,,,,,,,,,,,,,,,,,,,,,,,,,,,,,,,,,,,,,,
,,,,,,,,2023-08-24_09h01.23.055,HF_wild_card,2022.2.4,Win32,59.85515054,56ca0400b30699000bd9d94f,64e63663dbcaf322d2eec8da,64e703ae4d17421b1fb7e83a,,,,,,,decisionTrl,resources/DY.BMP,resources/DR.BMP,WildCard_Ex,-0.300925926,-0.040740755,1,0,0,2.2001,optionLeft,5,8315,4,27,0,27,0,1,,,,,,,,,,,,,,,,,,,,,,,,,,,,,,,,,,,,,,,
,,,,,,,,2023-08-24_09h01.23.055,HF_wild_card,2022.2.4,Win32,59.85515054,56ca0400b30699000bd9d94f,64e63663dbcaf322d2eec8da,64e703ae4d17421b1fb7e83a,,,,,,,sngl,resources/DY.BMP,resources/Empty.png,WildCard_Ex,-0.343518504,-0.071296303,1,0,0,0.8388,optionLeft,5,8320,4,28,0,28,0,1,,,,,,,,,,,,,,,,,,,,,,,,,,,,,,,,,,,,,,,
,,,,,,,,2023-08-24_09h01.23.055,HF_wild_card,2022.2.4,Win32,59.85515054,56ca0400b30699000bd9d94f,64e63663dbcaf322d2eec8da,64e703ae4d17421b1fb7e83a,,,,,,,sngl,resources/DR.BMP,resources/Empty.png,Door2,-0.289814772,-0.037037037,1,0,0,0.878,optionLeft,20,8340,4,29,0,29,0,1,,,,,,,,,,,,,,,,,,,,,,,,,,,,,,,,,,,,,,,
,,,,,,,,2023-08-24_09h01.23.055,HF_wild_card,2022.2.4,Win32,59.85515054,56ca0400b30699000bd9d94f,64e63663dbcaf322d2eec8da,64e703ae4d17421b1fb7e83a,,,,,,,sngl,resources/DY.BMP,resources/Empty.png,WildCard_Ex,-0.291666667,-0.066666674,1,0,0,0.748,optionLeft,95,8435,4,30,0,30,0,1,,,,,,,,,,,,,,,,,,,,,,,,,,,,,,,,,,,,,,,
,,,,,,,,2023-08-24_09h01.23.055,HF_wild_card,2022.2.4,Win32,59.85515054,56ca0400b30699000bd9d94f,64e63663dbcaf322d2eec8da,64e703ae4d17421b1fb7e83a,,,,,,,ctch,resources/DG.BMP,resources/DR.BMP,Door3,-0.312037044,-0.047222243,1,0,0,1.2961,optionLeft,70,8505,4,31,0,31,0,1,,,,,,,,,,,,,,,,,,,,,,,,,,,,,,,,,,,,,,,
,,,,,,,,2023-08-24_09h01.23.055,HF_wild_card,2022.2.4,Win32,59.85515054,56ca0400b30699000bd9d94f,64e63663dbcaf322d2eec8da,64e703ae4d17421b1fb7e83a,,,,,,,decisionTrl,resources/DR.BMP,resources/DY.BMP,WildCard_Ex,0.358333305,-0.037962984,1,0,0,1.4101,optionRight,5,8510,4,32,0,32,0,1,,,,,,,,,,,,,,,,,,,,,,,,,,,,,,,,,,,,,,,
,,,,,,,,2023-08-24_09h01.23.055,HF_wild_card,2022.2.4,Win32,59.85515054,56ca0400b30699000bd9d94f,64e63663dbcaf322d2eec8da,64e703ae4d17421b1fb7e83a,,,,,,,decisionTrl,resources/DB.BMP,resources/DR.BMP,Door1,-0.361111111,-0.068518533,1,0,0,0.9517,optionLeft,30,8540,4,33,0,33,0,1,,,,,,,,,,,,,,,,,,,,,,,,,,,,,,,,,,,,,,,
,,,,,,,,2023-08-24_09h01.23.055,HF_wild_card,2022.2.4,Win32,59.85515054,56ca0400b30699000bd9d94f,64e63663dbcaf322d2eec8da,64e703ae4d17421b1fb7e83a,,,,,,,decisionTrl,resources/DG.BMP,resources/DBN.BMP,Door4,0.378703788,-0.043518526,1,0,0,0.9096,optionRight,80,8620,4,34,0,34,0,1,,,,,,,,,,,,,,,,,,,,,,,,,,,,,,,,,,,,,,,
,,,,,,,,2023-08-24_09h01.23.055,HF_wild_card,2022.2.4,Win32,59.85515054,56ca0400b30699000bd9d94f,64e63663dbcaf322d2eec8da,64e703ae4d17421b1fb7e83a,,,,,,,sngl,resources/Empty.png,resources/DG.BMP,Door3,0.333333333,-0.028703725,1,0,0,0.92,optionRight,70,8690,4,35,0,35,0,1,,,,,,,,,,,,,,,,,,,,,,,,,,,,,,,,,,,,,,,
,,,,,,,,2023-08-24_09h01.23.055,HF_wild_card,2022.2.4,Win32,59.85515054,56ca0400b30699000bd9d94f,64e63663dbcaf322d2eec8da,64e703ae4d17421b1fb7e83a,,,,,,,decisionTrl,resources/DB.BMP,resources/DR.BMP,Door1,-0.335185192,-0.070370392,1,0,0,0.8267,optionLeft,30,8720,4,36,0,36,0,1,,,,,,,,,,,,,,,,,,,,,,,,,,,,,,,,,,,,,,,
,,,,,,,,2023-08-24_09h01.23.055,HF_wild_card,2022.2.4,Win32,59.85515054,56ca0400b30699000bd9d94f,64e63663dbcaf322d2eec8da,64e703ae4d17421b1fb7e83a,,,,,,,sngl,resources/DG.BMP,resources/Empty.png,Door3,-0.286111125,-0.053703697,1,0,0,0.8278,optionLeft,70,8790,4,37,0,37,0,1,,,,,,,,,,,,,,,,,,,,,,,,,,,,,,,,,,,,,,,
,,,,,,,,2023-08-24_09h01.23.055,HF_wild_card,2022.2.4,Win32,59.85515054,56ca0400b30699000bd9d94f,64e63663dbcaf322d2eec8da,64e703ae4d17421b1fb7e83a,,,,,,,ctch,resources/DB.BMP,resources/DBN.BMP,Door4,0.384259259,-0.025925919,1,0,0,0.9726,optionRight,80,8870,4,38,0,38,0,1,,,,,,,,,,,,,,,,,,,,,,,,,,,,,,,,,,,,,,,
,,,,,,,,2023-08-24_09h01.23.055,HF_wild_card,2022.2.4,Win32,59.85515054,56ca0400b30699000bd9d94f,64e63663dbcaf322d2eec8da,64e703ae4d17421b1fb7e83a,,,,,,,ctch,resources/DBN.BMP,resources/DB.BMP,Door4,-0.255555541,-0.002777771,1,0,0,0.8084,optionLeft,80,8950,4,39,0,39,0,1,,,,,,,,,,,,,,,,,,,,,,,,,,,,,,,,,,,,,,,
,,,,,,,,2023-08-24_09h01.23.055,HF_wild_card,2022.2.4,Win32,59.85515054,56ca0400b30699000bd9d94f,64e63663dbcaf322d2eec8da,64e703ae4d17421b1fb7e83a,,,,,,,sngl,resources/Empty.png,resources/DY.BMP,WildCard_Ex,0.246296282,-0.015740748,1,0,0,0.7939,optionRight,5,8955,4,40,0,40,0,1,,,,,,,,,,,,,,,,,,,,,,,,,,,,,,,,,,,,,,,
,,,,,,,,2023-08-24_09h01.23.055,HF_wild_card,2022.2.4,Win32,59.85515054,56ca0400b30699000bd9d94f,64e63663dbcaf322d2eec8da,64e703ae4d17421b1fb7e83a,,,,,,,decisionTrl,resources/DR.BMP,resources/DB.BMP,Door2,-0.256481453,-0.064814815,1,0,0,0.8639,optionLeft,20,8975,4,41,0,41,0,1,,,,,,,,,,,,,,,,,,,,,,,,,,,,,,,,,,,,,,,
,,,,,,,,2023-08-24_09h01.23.055,HF_wild_card,2022.2.4,Win32,59.85515054,56ca0400b30699000bd9d94f,64e63663dbcaf322d2eec8da,64e703ae4d17421b1fb7e83a,,,,,,,decisionTrl,resources/DB.BMP,resources/DY.BMP,WildCard_Ex,0.266666695,-0.021296289,1,0,0,1.132,optionRight,95,9070,4,42,0,42,0,1,,,,,,,,,,,,,,,,,,,,,,,,,,,,,,,,,,,,,,,
,,,,,,,,2023-08-24_09h01.23.055,HF_wild_card,2022.2.4,Win32,59.85515054,56ca0400b30699000bd9d94f,64e63663dbcaf322d2eec8da,64e703ae4d17421b1fb7e83a,,,,,,,sngl,resources/Empty.png,resources/DY.BMP,WildCard_Ex,0.309259344,0.000925912,1,0,0,0.8459,optionRight,95,9165,4,43,0,43,0,1,,,,,,,,,,,,,,,,,,,,,,,,,,,,,,,,,,,,,,,
,,,,,,,,2023-08-24_09h01.23.055,HF_wild_card,2022.2.4,Win32,59.85515054,56ca0400b30699000bd9d94f,64e63663dbcaf322d2eec8da,64e703ae4d17421b1fb7e83a,,,,,,,,,,,,,,,,,,,,,,,,,,3,0,3,0,1,,,,,,,,,,,,,,,,,,,,,,,,,,,,,,,,,,
,,,,,,,,2023-08-24_09h01.23.055,HF_wild_card,2022.2.4,Win32,59.85515054,56ca0400b30699000bd9d94f,64e63663dbcaf322d2eec8da,64e703ae4d17421b1fb7e83a,,,,,,,decisionTrl,resources/DY.BMP,resources/DR.BMP,WildCard_Ex,-0.139814801,-0.092592593,1,0,0,1.2385,optionLeft,95,9260,5,0,0,0,0,1,,,,,,,,,,,,,,,,,,,,,,,,,,,,,,,,,,,,,,,
,,,,,,,,2023-08-24_09h01.23.055,HF_wild_card,2022.2.4,Win32,59.85515054,56ca0400b30699000bd9d94f,64e63663dbcaf322d2eec8da,64e703ae4d17421b1fb7e83a,,,,,,,sngl,resources/Empty.png,resources/DY.BMP,WildCard_Ex,0.150925954,-0.017592607,1,0,0,0.7687,optionRight,5,9265,5,1,0,1,0,1,,,,,,,,,,,,,,,,,,,,,,,,,,,,,,,,,,,,,,,
,,,,,,,,2023-08-24_09h01.23.055,HF_wild_card,2022.2.4,Win32,59.85515054,56ca0400b30699000bd9d94f,64e63663dbcaf322d2eec8da,64e703ae4d17421b1fb7e83a,,,,,,,decisionTrl,resources/DY.BMP,resources/DG.BMP,WildCard_Ex,-0.287037037,-0.042592614,1,0,0,0.8951,optionLeft,95,9360,5,2,0,2,0,1,,,,,,,,,,,,,,,,,,,,,,,,,,,,,,,,,,,,,,,
,,,,,,,,2023-08-24_09h01.23.055,HF_wild_card,2022.2.4,Win32,59.85515054,56ca0400b30699000bd9d94f,64e63663dbcaf322d2eec8da,64e703ae4d17421b1fb7e83a,,,,,,,decisionTrl,resources/DB.BMP,resources/DR.BMP,Door2,0.389814871,0.012962942,1,0,0,1.1745,optionRight,40,9400,5,3,0,3,0,1,,,,,,,,,,,,,,,,,,,,,,,,,,,,,,,,,,,,,,,
,,,,,,,,2023-08-24_09h01.23.055,HF_wild_card,2022.2.4,Win32,59.85515054,56ca0400b30699000bd9d94f,64e63663dbcaf322d2eec8da,64e703ae4d17421b1fb7e83a,,,,,,,decisionTrl,resources/DBN.BMP,resources/DG.BMP,Door4,-0.25,-0.047222243,1,0,0,0.7998,optionLeft,80,9480,5,4,0,4,0,1,,,,,,,,,,,,,,,,,,,,,,,,,,,,,,,,,,,,,,,
,,,,,,,,2023-08-24_09h01.23.055,HF_wild_card,2022.2.4,Win32,59.85515054,56ca0400b30699000bd9d94f,64e63663dbcaf322d2eec8da,64e703ae4d17421b1fb7e83a,,,,,,,decisionTrl,resources/DG.BMP,resources/DBN.BMP,Door4,0.399074131,-0.055555556,1,0,0,0.8456,optionRight,80,9560,5,5,0,5,0,1,,,,,,,,,,,,,,,,,,,,,,,,,,,,,,,,,,,,,,,
,,,,,,,,2023-08-24_09h01.23.055,HF_wild_card,2022.2.4,Win32,59.85515054,56ca0400b30699000bd9d94f,64e63663dbcaf322d2eec8da,64e703ae4d17421b1fb7e83a,,,,,,,decisionTrl,resources/DBN.BMP,resources/DY.BMP,Door4,-0.267592607,-0.029629637,1,0,0,0.8777,optionLeft,60,9620,5,6,0,6,0,1,,,,,,,,,,,,,,,,,,,,,,,,,,,,,,,,,,,,,,,
,,,,,,,,2023-08-24_09h01.23.055,HF_wild_card,2022.2.4,Win32,59.85515054,56ca0400b30699000bd9d94f,64e63663dbcaf322d2eec8da,64e703ae4d17421b1fb7e83a,,,,,,,decisionTrl,resources/DBN.BMP,resources/DG.BMP,Door4,-0.339814822,-0.044444437,1,0,0,0.8706,optionLeft,60,9680,5,7,0,7,0,1,,,,,,,,,,,,,,,,,,,,,,,,,,,,,,,,,,,,,,,
,,,,,,,,2023-08-24_09h01.23.055,HF_wild_card,2022.2.4,Win32,59.85515054,56ca0400b30699000bd9d94f,64e63663dbcaf322d2eec8da,64e703ae4d17421b1fb7e83a,,,,,,,ctch,resources/DR.BMP,resources/DG.BMP,Door3,0.377777806,-0.023148148,1,0,0,0.8028,optionRight,70,9750,5,8,0,8,0,1,,,,,,,,,,,,,,,,,,,,,,,,,,,,,,,,,,,,,,,
,,,,,,,,2023-08-24_09h01.23.055,HF_wild_card,2022.2.4,Win32,59.85515054,56ca0400b30699000bd9d94f,64e63663dbcaf322d2eec8da,64e703ae4d17421b1fb7e83a,,,,,,,decisionTrl,resources/DG.BMP,resources/DBN.BMP,Door3,-0.212962963,-0.055555556,1,0,0,0.8633,optionLeft,70,9820,5,9,0,9,0,1,,,,,,,,,,,,,,,,,,,,,,,,,,,,,,,,,,,,,,,
,,,,,,,,2023-08-24_09h01.23.055,HF_wild_card,2022.2.4,Win32,59.85515054,56ca0400b30699000bd9d94f,64e63663dbcaf322d2eec8da,64e703ae4d17421b1fb7e83a,,,,,,,ctch,resources/DR.BMP,resources/DG.BMP,Door3,0.332407492,-0.034259266,1,0,0,0.8243,optionRight,70,9890,5,10,0,10,0,1,,,,,,,,,,,,,,,,,,,,,,,,,,,,,,,,,,,,,,,
,,,,,,,,2023-08-24_09h01.23.055,HF_wild_card,2022.2.4,Win32,59.85515054,56ca0400b30699000bd9d94f,64e63663dbcaf322d2eec8da,64e703ae4d17421b1fb7e83a,,,,,,,decisionTrl,resources/DB.BMP,resources/DY.BMP,WildCard_Ex,0.387963048,-0.037037037,1,0,0,1.184,optionRight,5,9895,5,11,0,11,0,1,,,,,,,,,,,,,,,,,,,,,,,,,,,,,,,,,,,,,,,
,,,,,,,,2023-08-24_09h01.23.055,HF_wild_card,2022.2.4,Win32,59.85515054,56ca0400b30699000bd9d94f,64e63663dbcaf322d2eec8da,64e703ae4d17421b1fb7e83a,,,,,,,ctch,resources/DB.BMP,resources/DBN.BMP,Door4,0.262962977,-0.058333326,1,0,0,1.5692,optionRight,60,9955,5,12,0,12,0,1,,,,,,,,,,,,,,,,,,,,,,,,,,,,,,,,,,,,,,,
,,,,,,,,2023-08-24_09h01.23.055,HF_wild_card,2022.2.4,Win32,59.85515054,56ca0400b30699000bd9d94f,64e63663dbcaf322d2eec8da,64e703ae4d17421b1fb7e83a,,,,,,,sngl,resources/DG.BMP,resources/Empty.png,Door3,-0.283333319,-0.049074067,1,0,0,0.8396,optionLeft,70,10025,5,13,0,13,0,1,,,,,,,,,,,,,,,,,,,,,,,,,,,,,,,,,,,,,,,
,,,,,,,,2023-08-24_09h01.23.055,HF_wild_card,2022.2.4,Win32,59.85515054,56ca0400b30699000bd9d94f,64e63663dbcaf322d2eec8da,64e703ae4d17421b1fb7e83a,,,,,,,sngl,resources/Empty.png,resources/DY.BMP,WildCard_Ex,0.312037009,-0.044444437,1,0,0,0.8984,optionRight,95,10120,5,14,0,14,0,1,,,,,,,,,,,,,,,,,,,,,,,,,,,,,,,,,,,,,,,
,,,,,,,,2023-08-24_09h01.23.055,HF_wild_card,2022.2.4,Win32,59.85515054,56ca0400b30699000bd9d94f,64e63663dbcaf322d2eec8da,64e703ae4d17421b1fb7e83a,,,,,,,decisionTrl,resources/DR.BMP,resources/DB.BMP,Door2,-0.210185157,-0.080555563,1,0,0,1.1503,optionLeft,40,10160,5,15,0,15,0,1,,,,,,,,,,,,,,,,,,,,,,,,,,,,,,,,,,,,,,,
,,,,,,,,2023-08-24_09h01.23.055,HF_wild_card,2022.2.4,Win32,59.85515054,56ca0400b30699000bd9d94f,64e63663dbcaf322d2eec8da,64e703ae4d17421b1fb7e83a,,,,,,,decisionTrl,resources/DBN.BMP,resources/DG.BMP,Door4,-0.235185199,0.001851859,1,0,0,1.2225,optionLeft,80,10240,5,16,0,16,0,1,,,,,,,,,,,,,,,,,,,,,,,,,,,,,,,,,,,,,,,
,,,,,,,,2023-08-24_09h01.23.055,HF_wild_card,2022.2.4,Win32,59.85515054,56ca0400b30699000bd9d94f,64e63663dbcaf322d2eec8da,64e703ae4d17421b1fb7e83a,,,,,,,ctch,resources/DBN.BMP,resources/DB.BMP,Door4,-0.365740741,-0.051851873,1,0,0,0.8912,optionLeft,80,10320,5,17,0,17,0,1,,,,,,,,,,,,,,,,,,,,,,,,,,,,,,,,,,,,,,,
,,,,,,,,2023-08-24_09h01.23.055,HF_wild_card,2022.2.4,Win32,59.85515054,56ca0400b30699000bd9d94f,64e63663dbcaf322d2eec8da,64e703ae4d17421b1fb7e83a,,,,,,,decisionTrl,resources/DG.BMP,resources/DBN.BMP,Door4,0.487962935,-0.014814836,1,0,0,0.8741,optionRight,80,10400,5,18,0,18,0,1,,,,,,,,,,,,,,,,,,,,,,,,,,,,,,,,,,,,,,,
,,,,,,,,2023-08-24_09h01.23.055,HF_wild_card,2022.2.4,Win32,59.85515054,56ca0400b30699000bd9d94f,64e63663dbcaf322d2eec8da,64e703ae4d17421b1fb7e83a,,,,,,,sngl,resources/DBN.BMP,resources/Empty.png,Door4,-0.264814801,-0.0074074,1,0,0,0.7585,optionLeft,80,10480,5,19,0,19,0,1,,,,,,,,,,,,,,,,,,,,,,,,,,,,,,,,,,,,,,,
,,,,,,,,2023-08-24_09h01.23.055,HF_wild_card,2022.2.4,Win32,59.85515054,56ca0400b30699000bd9d94f,64e63663dbcaf322d2eec8da,64e703ae4d17421b1fb7e83a,,,,,,,decisionTrl,resources/DY.BMP,resources/DBN.BMP,Door4,0.411111196,-0.046296296,1,0,0,0.8854,optionRight,60,10540,5,20,0,20,0,1,,,,,,,,,,,,,,,,,,,,,,,,,,,,,,,,,,,,,,,
,,,,,,,,2023-08-24_09h01.23.055,HF_wild_card,2022.2.4,Win32,59.85515054,56ca0400b30699000bd9d94f,64e63663dbcaf322d2eec8da,64e703ae4d17421b1fb7e83a,,,,,,,decisionTrl,resources/DB.BMP,resources/DR.BMP,Door1,-0.310185185,-0.059259273,1,0,0,1.1303,optionLeft,30,10570,5,21,0,21,0,1,,,,,,,,,,,,,,,,,,,,,,,,,,,,,,,,,,,,,,,
,,,,,,,,2023-08-24_09h01.23.055,HF_wild_card,2022.2.4,Win32,59.85515054,56ca0400b30699000bd9d94f,64e63663dbcaf322d2eec8da,64e703ae4d17421b1fb7e83a,,,,,,,decisionTrl,resources/DY.BMP,resources/DB.BMP,Door1,0.223148134,-0.034259266,1,0,0,1.081,optionRight,30,10600,5,22,0,22,0,1,,,,,,,,,,,,,,,,,,,,,,,,,,,,,,,,,,,,,,,
,,,,,,,,2023-08-24_09h01.23.055,HF_wild_card,2022.2.4,Win32,59.85515054,56ca0400b30699000bd9d94f,64e63663dbcaf322d2eec8da,64e703ae4d17421b1fb7e83a,,,,,,,sngl,resources/DB.BMP,resources/Empty.png,Door1,-0.356481481,-0.048148155,1,0,0,0.892,optionLeft,30,10630,5,23,0,23,0,1,,,,,,,,,,,,,,,,,,,,,,,,,,,,,,,,,,,,,,,
,,,,,,,,2023-08-24_09h01.23.055,HF_wild_card,2022.2.4,Win32,59.85515054,56ca0400b30699000bd9d94f,64e63663dbcaf322d2eec8da,64e703ae4d17421b1fb7e83a,,,,,,,decisionTrl,resources/DG.BMP,resources/DBN.BMP,Door3,-0.310185185,-0.048148155,1,0,0,0.9494,optionLeft,70,10700,5,24,0,24,0,1,,,,,,,,,,,,,,,,,,,,,,,,,,,,,,,,,,,,,,,
,,,,,,,,2023-08-24_09h01.23.055,HF_wild_card,2022.2.4,Win32,59.85515054,56ca0400b30699000bd9d94f,64e63663dbcaf322d2eec8da,64e703ae4d17421b1fb7e83a,,,,,,,ctch,resources/DB.BMP,resources/DBN.BMP,Door4,0.285185213,-0.021296289,1,0,0,0.814,optionRight,60,10760,5,25,0,25,0,1,,,,,,,,,,,,,,,,,,,,,,,,,,,,,,,,,,,,,,,
,,,,,,,,2023-08-24_09h01.23.055,HF_wild_card,2022.2.4,Win32,59.85515054,56ca0400b30699000bd9d94f,64e63663dbcaf322d2eec8da,64e703ae4d17421b1fb7e83a,,,,,,,ctch,resources/DG.BMP,resources/DR.BMP,Door3,-0.205555527,-0.050000014,1,0,0,1.0753,optionLeft,70,10830,5,26,0,26,0,1,,,,,,,,,,,,,,,,,,,,,,,,,,,,,,,,,,,,,,,
,,,,,,,,2023-08-24_09h01.23.055,HF_wild_card,2022.2.4,Win32,59.85515054,56ca0400b30699000bd9d94f,64e63663dbcaf322d2eec8da,64e703ae4d17421b1fb7e83a,,,,,,,decisionTrl,resources/DB.BMP,resources/DR.BMP,Door2,0.32685188,-0.01666666,1,0,0,1.2315,optionRight,40,10870,5,27,0,27,0,1,,,,,,,,,,,,,,,,,,,,,,,,,,,,,,,,,,,,,,,
,,,,,,,,2023-08-24_09h01.23.055,HF_wild_card,2022.2.4,Win32,59.85515054,56ca0400b30699000bd9d94f,64e63663dbcaf322d2eec8da,64e703ae4d17421b1fb7e83a,,,,,,,ctch,resources/DG.BMP,resources/DR.BMP,Door3,-0.23055557,-0.010185206,1,0,0,1.1356,optionLeft,70,10940,5,28,0,28,0,1,,,,,,,,,,,,,,,,,,,,,,,,,,,,,,,,,,,,,,,
,,,,,,,,2023-08-24_09h01.23.055,HF_wild_card,2022.2.4,Win32,59.85515054,56ca0400b30699000bd9d94f,64e63663dbcaf322d2eec8da,64e703ae4d17421b1fb7e83a,,,,,,,decisionTrl,resources/DG.BMP,resources/DY.BMP,Door3,-0.205555527,0.003703683,1,0,0,1.1143,optionLeft,70,11010,5,29,0,29,0,1,,,,,,,,,,,,,,,,,,,,,,,,,,,,,,,,,,,,,,,
,,,,,,,,2023-08-24_09h01.23.055,HF_wild_card,2022.2.4,Win32,59.85515054,56ca0400b30699000bd9d94f,64e63663dbcaf322d2eec8da,64e703ae4d17421b1fb7e83a,,,,,,,sngl,resources/DY.BMP,resources/Empty.png,WildCard_Ex,-0.263888889,-0.002777771,1,0,0,0.8111,optionLeft,95,11105,5,30,0,30,0,1,,,,,,,,,,,,,,,,,,,,,,,,,,,,,,,,,,,,,,,
,,,,,,,,2023-08-24_09h01.23.055,HF_wild_card,2022.2.4,Win32,59.85515054,56ca0400b30699000bd9d94f,64e63663dbcaf322d2eec8da,64e703ae4d17421b1fb7e83a,,,,,,,sngl,resources/DR.BMP,resources/Empty.png,Door2,-0.267592607,-0.036111125,1,0,0,0.8206,optionLeft,40,11145,5,31,0,31,0,1,,,,,,,,,,,,,,,,,,,,,,,,,,,,,,,,,,,,,,,
,,,,,,,,2023-08-24_09h01.23.055,HF_wild_card,2022.2.4,Win32,59.85515054,56ca0400b30699000bd9d94f,64e63663dbcaf322d2eec8da,64e703ae4d17421b1fb7e83a,,,,,,,sngl,resources/Empty.png,resources/DB.BMP,Door1,0.399074131,-0.012962977,1,0,0,1.2413,optionRight,30,11175,5,32,0,32,0,1,,,,,,,,,,,,,,,,,,,,,,,,,,,,,,,,,,,,,,,
,,,,,,,,2023-08-24_09h01.23.055,HF_wild_card,2022.2.4,Win32,59.85515054,56ca0400b30699000bd9d94f,64e63663dbcaf322d2eec8da,64e703ae4d17421b1fb7e83a,,,,,,,decisionTrl,resources/DR.BMP,resources/DY.BMP,Door2,-0.240740741,-0.024074095,1,0,0,1.5907,optionLeft,40,11215,5,33,0,33,0,1,,,,,,,,,,,,,,,,,,,,,,,,,,,,,,,,,,,,,,,
,,,,,,,,2023-08-24_09h01.23.055,HF_wild_card,2022.2.4,Win32,59.85515054,56ca0400b30699000bd9d94f,64e63663dbcaf322d2eec8da,64e703ae4d17421b1fb7e83a,,,,,,,ctch,resources/DBN.BMP,resources/DB.BMP,Door4,-0.346296275,-0.050000014,1,0,0,0.9122,optionLeft,80,11295,5,34,0,34,0,1,,,,,,,,,,,,,,,,,,,,,,,,,,,,,,,,,,,,,,,
,,,,,,,,2023-08-24_09h01.23.055,HF_wild_card,2022.2.4,Win32,59.85515054,56ca0400b30699000bd9d94f,64e63663dbcaf322d2eec8da,64e703ae4d17421b1fb7e83a,,,,,,,decisionTrl,resources/DR.BMP,resources/DB.BMP,Door2,-0.237962935,-0.057407414,1,0,0,0.9422,optionLeft,40,11335,5,35,0,35,0,1,,,,,,,,,,,,,,,,,,,,,,,,,,,,,,,,,,,,,,,
,,,,,,,,2023-08-24_09h01.23.055,HF_wild_card,2022.2.4,Win32,59.85515054,56ca0400b30699000bd9d94f,64e63663dbcaf322d2eec8da,64e703ae4d17421b1fb7e83a,,,,,,,sngl,resources/DY.BMP,resources/Empty.png,WildCard_Ex,-0.246296282,-0.052777785,1,0,0,0.8762,optionLeft,5,11340,5,36,0,36,0,1,,,,,,,,,,,,,,,,,,,,,,,,,,,,,,,,,,,,,,,
,,,,,,,,2023-08-24_09h01.23.055,HF_wild_card,2022.2.4,Win32,59.85515054,56ca0400b30699000bd9d94f,64e63663dbcaf322d2eec8da,64e703ae4d17421b1fb7e83a,,,,,,,sngl,resources/Empty.png,resources/DG.BMP,Door3,0.290740755,-0.020370377,1,0,0,0.8609,optionRight,70,11410,5,37,0,37,0,1,,,,,,,,,,,,,,,,,,,,,,,,,,,,,,,,,,,,,,,
,,,,,,,,2023-08-24_09h01.23.055,HF_wild_card,2022.2.4,Win32,59.85515054,56ca0400b30699000bd9d94f,64e63663dbcaf322d2eec8da,64e703ae4d17421b1fb7e83a,,,,,,,decisionTrl,resources/DR.BMP,resources/DB.BMP,Door2,-0.212037051,-0.036111125,1,0,0,0.8912,optionLeft,40,11450,5,38,0,38,0,1,,,,,,,,,,,,,,,,,,,,,,,,,,,,,,,,,,,,,,,
,,,,,,,,2023-08-24_09h01.23.055,HF_wild_card,2022.2.4,Win32,59.85515054,56ca0400b30699000bd9d94f,64e63663dbcaf322d2eec8da,64e703ae4d17421b1fb7e83a,,,,,,,decisionTrl,resources/DR.BMP,resources/DB.BMP,Door1,0.371296353,-0.050000014,1,0,0,0.9417,optionRight,30,11480,5,39,0,39,0,1,,,,,,,,,,,,,,,,,,,,,,,,,,,,,,,,,,,,,,,
,,,,,,,,2023-08-24_09h01.23.055,HF_wild_card,2022.2.4,Win32,59.85515054,56ca0400b30699000bd9d94f,64e63663dbcaf322d2eec8da,64e703ae4d17421b1fb7e83a,,,,,,,decisionTrl,resources/DB.BMP,resources/DR.BMP,Door1,-0.326851845,-0.026851866,1,0,0,0.9753,optionLeft,30,11510,5,40,0,40,0,1,,,,,,,,,,,,,,,,,,,,,,,,,,,,,,,,,,,,,,,
,,,,,,,,2023-08-24_09h01.23.055,HF_wild_card,2022.2.4,Win32,59.85515054,56ca0400b30699000bd9d94f,64e63663dbcaf322d2eec8da,64e703ae4d17421b1fb7e83a,,,,,,,sngl,resources/Empty.png,resources/DR.BMP,Door2,0.280555584,-0.034259266,1,0,0,0.8691,optionRight,20,11530,5,41,0,41,0,1,,,,,,,,,,,,,,,,,,,,,,,,,,,,,,,,,,,,,,,
,,,,,,,,2023-08-24_09h01.23.055,HF_wild_card,2022.2.4,Win32,59.85515054,56ca0400b30699000bd9d94f,64e63663dbcaf322d2eec8da,64e703ae4d17421b1fb7e83a,,,,,,,decisionTrl,resources/DBN.BMP,resources/DG.BMP,Door4,-0.339814822,-0.059259273,1,0,0,0.875,optionLeft,60,11590,5,42,0,42,0,1,,,,,,,,,,,,,,,,,,,,,,,,,,,,,,,,,,,,,,,
,,,,,,,,2023-08-24_09h01.23.055,HF_wild_card,2022.2.4,Win32,59.85515054,56ca0400b30699000bd9d94f,64e63663dbcaf322d2eec8da,64e703ae4d17421b1fb7e83a,,,,,,,sngl,resources/Empty.png,resources/DBN.BMP,Door4,0.26944443,-0.023148148,1,0,0,0.7907,optionRight,60,11650,5,43,0,43,0,1,,,,,,,,,,,,,,,,,,,,,,,,,,,,,,,,,,,,,,,
,,,,,,,,2023-08-24_09h01.23.055,HF_wild_card,2022.2.4,Win32,59.85515054,56ca0400b30699000bd9d94f,64e63663dbcaf322d2eec8da,64e703ae4d17421b1fb7e83a,,,,,,,,,,,,,,,,,,,,,,,,,,4,0,4,0,1,,,,,,,,,,,,,,,,,,,,,,,,,,,,,,,,,,
,,,,,,,,2023-08-24_09h01.23.055,HF_wild_card,2022.2.4,Win32,59.85515054,56ca0400b30699000bd9d94f,64e63663dbcaf322d2eec8da,64e703ae4d17421b1fb7e83a,,,,,,,sngl,resources/DR.BMP,resources/Empty.png,Door2,-0.369444423,-0.01666666,1,0,0,0.8732,optionLeft,20,11670,6,0,0,0,0,1,,,,,,,,,,,,,,,,,,,,,,,,,,,,,,,,,,,,,,,
,,,,,,,,2023-08-24_09h01.23.055,HF_wild_card,2022.2.4,Win32,59.85515054,56ca0400b30699000bd9d94f,64e63663dbcaf322d2eec8da,64e703ae4d17421b1fb7e83a,,,,,,,decisionTrl,resources/DR.BMP,resources/DB.BMP,Door2,-0.29351849,-0.025925919,1,0,0,1.1828,optionLeft,20,11690,6,1,0,1,0,1,,,,,,,,,,,,,,,,,,,,,,,,,,,,,,,,,,,,,,,
,,,,,,,,2023-08-24_09h01.23.055,HF_wild_card,2022.2.4,Win32,59.85515054,56ca0400b30699000bd9d94f,64e63663dbcaf322d2eec8da,64e703ae4d17421b1fb7e83a,,,,,,,decisionTrl,resources/DG.BMP,resources/DBN.BMP,Door4,0.431481538,-0.054629644,1,0,0,0.8945,optionRight,60,11750,6,2,0,2,0,1,,,,,,,,,,,,,,,,,,,,,,,,,,,,,,,,,,,,,,,
,,,,,,,,2023-08-24_09h01.23.055,HF_wild_card,2022.2.4,Win32,59.85515054,56ca0400b30699000bd9d94f,64e63663dbcaf322d2eec8da,64e703ae4d17421b1fb7e83a,,,,,,,sngl,resources/DY.BMP,resources/Empty.png,WildCard_Ex,-0.303703697,-0.032407407,1,0,0,0.7546,optionLeft,95,11845,6,3,0,3,0,1,,,,,,,,,,,,,,,,,,,,,,,,,,,,,,,,,,,,,,,
,,,,,,,,2023-08-24_09h01.23.055,HF_wild_card,2022.2.4,Win32,59.85515054,56ca0400b30699000bd9d94f,64e63663dbcaf322d2eec8da,64e703ae4d17421b1fb7e83a,,,,,,,decisionTrl,resources/DR.BMP,resources/DB.BMP,Door2,-0.364814794,-0.041666667,1,0,0,1.0408,optionLeft,40,11885,6,4,0,4,0,1,,,,,,,,,,,,,,,,,,,,,,,,,,,,,,,,,,,,,,,
,,,,,,,,2023-08-24_09h01.23.055,HF_wild_card,2022.2.4,Win32,59.85515054,56ca0400b30699000bd9d94f,64e63663dbcaf322d2eec8da,64e703ae4d17421b1fb7e83a,,,,,,,ctch,resources/DB.BMP,resources/DBN.BMP,Door4,0.344444416,-0.023148148,1,0,0,1.0066,optionRight,60,11945,6,5,0,5,0,1,,,,,,,,,,,,,,,,,,,,,,,,,,,,,,,,,,,,,,,
,,,,,,,,2023-08-24_09h01.23.055,HF_wild_card,2022.2.4,Win32,59.85515054,56ca0400b30699000bd9d94f,64e63663dbcaf322d2eec8da,64e703ae4d17421b1fb7e83a,,,,,,,ctch,resources/DBN.BMP,resources/DB.BMP,Door4,-0.337037016,-0.038888896,1,0,0,0.8257,optionLeft,80,12025,6,6,0,6,0,1,,,,,,,,,,,,,,,,,,,,,,,,,,,,,,,,,,,,,,,
,,,,,,,,2023-08-24_09h01.23.055,HF_wild_card,2022.2.4,Win32,59.85515054,56ca0400b30699000bd9d94f,64e63663dbcaf322d2eec8da,64e703ae4d17421b1fb7e83a,,,,,,,ctch,resources/DR.BMP,resources/DG.BMP,Door3,0.510185242,-0.034259266,1,0,0,0.873,optionRight,70,12095,6,7,0,7,0,1,,,,,,,,,,,,,,,,,,,,,,,,,,,,,,,,,,,,,,,
,,,,,,,,2023-08-24_09h01.23.055,HF_wild_card,2022.2.4,Win32,59.85515054,56ca0400b30699000bd9d94f,64e63663dbcaf322d2eec8da,64e703ae4d17421b1fb7e83a,,,,,,,decisionTrl,resources/DBN.BMP,resources/DG.BMP,Door3,0.422222279,-0.045370384,1,0,0,1.2457,optionRight,70,12165,6,8,0,8,0,1,,,,,,,,,,,,,,,,,,,,,,,,,,,,,,,,,,,,,,,
,,,,,,,,2023-08-24_09h01.23.055,HF_wild_card,2022.2.4,Win32,59.85515054,56ca0400b30699000bd9d94f,64e63663dbcaf322d2eec8da,64e703ae4d17421b1fb7e83a,,,,,,,decisionTrl,resources/DY.BMP,resources/DB.BMP,WildCard_Ex,-0.274999972,-0.079629651,1,0,0,1.0082,optionLeft,95,12260,6,9,0,9,0,1,,,,,,,,,,,,,,,,,,,,,,,,,,,,,,,,,,,,,,,
,,,,,,,,2023-08-24_09h01.23.055,HF_wild_card,2022.2.4,Win32,59.85515054,56ca0400b30699000bd9d94f,64e63663dbcaf322d2eec8da,64e703ae4d17421b1fb7e83a,,,,,,,ctch,resources/DBN.BMP,resources/DB.BMP,Door4,-0.318518497,-0.029629637,1,0,0,0.8788,optionLeft,80,12340,6,10,0,10,0,1,,,,,,,,,,,,,,,,,,,,,,,,,,,,,,,,,,,,,,,
,,,,,,,,2023-08-24_09h01.23.055,HF_wild_card,2022.2.4,Win32,59.85515054,56ca0400b30699000bd9d94f,64e63663dbcaf322d2eec8da,64e703ae4d17421b1fb7e83a,,,,,,,decisionTrl,resources/DBN.BMP,resources/DG.BMP,Door3,0.362962935,-0.060185185,1,0,0,1.8583,optionRight,70,12410,6,11,0,11,0,1,,,,,,,,,,,,,,,,,,,,,,,,,,,,,,,,,,,,,,,
,,,,,,,,2023-08-24_09h01.23.055,HF_wild_card,2022.2.4,Win32,59.85515054,56ca0400b30699000bd9d94f,64e63663dbcaf322d2eec8da,64e703ae4d17421b1fb7e83a,,,,,,,sngl,resources/Empty.png,resources/DBN.BMP,Door4,0.40370376,0.038888896,1,0,0,0.8755,optionRight,80,12490,6,12,0,12,0,1,,,,,,,,,,,,,,,,,,,,,,,,,,,,,,,,,,,,,,,
,,,,,,,,2023-08-24_09h01.23.055,HF_wild_card,2022.2.4,Win32,59.85515054,56ca0400b30699000bd9d94f,64e63663dbcaf322d2eec8da,64e703ae4d17421b1fb7e83a,,,,,,,decisionTrl,resources/DY.BMP,resources/DG.BMP,Door3,0.389814871,0.006481489,1,0,0,1.2081,optionRight,70,12560,6,13,0,13,0,1,,,,,,,,,,,,,,,,,,,,,,,,,,,,,,,,,,,,,,,
,,,,,,,,2023-08-24_09h01.23.055,HF_wild_card,2022.2.4,Win32,59.85515054,56ca0400b30699000bd9d94f,64e63663dbcaf322d2eec8da,64e703ae4d17421b1fb7e83a,,,,,,,sngl,resources/Empty.png,resources/DY.BMP,WildCard_Ex,0.280555584,-0.002777771,1,0,0,0.9789,optionRight,5,12565,6,14,0,14,0,1,,,,,,,,,,,,,,,,,,,,,,,,,,,,,,,,,,,,,,,
,,,,,,,,2023-08-24_09h01.23.055,HF_wild_card,2022.2.4,Win32,59.85515054,56ca0400b30699000bd9d94f,64e63663dbcaf322d2eec8da,64e703ae4d17421b1fb7e83a,,,,,,,ctch,resources/DG.BMP,resources/DR.BMP,Door3,-0.280555513,-0.000925947,1,0,0,1.3781,optionLeft,70,12635,6,15,0,15,0,1,,,,,,,,,,,,,,,,,,,,,,,,,,,,,,,,,,,,,,,
,,,,,,,,2023-08-24_09h01.23.055,HF_wild_card,2022.2.4,Win32,59.85515054,56ca0400b30699000bd9d94f,64e63663dbcaf322d2eec8da,64e703ae4d17421b1fb7e83a,,,,,,,decisionTrl,resources/DBN.BMP,resources/DY.BMP,Door4,-0.303703697,-0.00462963,1,0,0,3.5543,optionLeft,80,12715,6,16,0,16,0,1,,,,,,,,,,,,,,,,,,,,,,,,,,,,,,,,,,,,,,,
,,,,,,,,2023-08-24_09h01.23.055,HF_wild_card,2022.2.4,Win32,59.85515054,56ca0400b30699000bd9d94f,64e63663dbcaf322d2eec8da,64e703ae4d17421b1fb7e83a,,,,,,,sngl,resources/DB.BMP,resources/Empty.png,Door1,-0.299074067,-0.048148155,1,0,0,1.1541,optionLeft,30,12745,6,17,0,17,0,1,,,,,,,,,,,,,,,,,,,,,,,,,,,,,,,,,,,,,,,
,,,,,,,,2023-08-24_09h01.23.055,HF_wild_card,2022.2.4,Win32,59.85515054,56ca0400b30699000bd9d94f,64e63663dbcaf322d2eec8da,64e703ae4d17421b1fb7e83a,,,,,,,decisionTrl,resources/DB.BMP,resources/DR.BMP,Door1,-0.248148106,0,1,0,0,1.2457,optionLeft,30,12775,6,18,0,18,0,1,,,,,,,,,,,,,,,,,,,,,,,,,,,,,,,,,,,,,,,
,,,,,,,,2023-08-24_09h01.23.055,HF_wild_card,2022.2.4,Win32,59.85515054,56ca0400b30699000bd9d94f,64e63663dbcaf322d2eec8da,64e703ae4d17421b1fb7e83a,,,,,,,ctch,resources/DG.BMP,resources/DR.BMP,Door3,-0.162962949,-0.008333347,1,0,0,3.3579,optionLeft,70,12845,6,19,0,19,0,1,,,,,,,,,,,,,,,,,,,,,,,,,,,,,,,,,,,,,,,
,,,,,,,,2023-08-24_09h01.23.055,HF_wild_card,2022.2.4,Win32,59.85515054,56ca0400b30699000bd9d94f,64e63663dbcaf322d2eec8da,64e703ae4d17421b1fb7e83a,,,,,,,sngl,resources/DY.BMP,resources/Empty.png,WildCard_Ex,-0.263888889,-0.011111118,1,0,0,0.8457,optionLeft,5,12850,6,20,0,20,0,1,,,,,,,,,,,,,,,,,,,,,,,,,,,,,,,,,,,,,,,
,,,,,,,,2023-08-24_09h01.23.055,HF_wild_card,2022.2.4,Win32,59.85515054,56ca0400b30699000bd9d94f,64e63663dbcaf322d2eec8da,64e703ae4d17421b1fb7e83a,,,,,,,decisionTrl,resources/DG.BMP,resources/DBN.BMP,Door4,0.349074046,0.025925919,1,0,0,0.9203,optionRight,80,12930,6,21,0,21,0,1,,,,,,,,,,,,,,,,,,,,,,,,,,,,,,,,,,,,,,,
,,,,,,,,2023-08-24_09h01.23.055,HF_wild_card,2022.2.4,Win32,59.85515054,56ca0400b30699000bd9d94f,64e63663dbcaf322d2eec8da,64e703ae4d17421b1fb7e83a,,,,,,,decisionTrl,resources/DB.BMP,resources/DR.BMP,Door2,0.280555584,-0.006481489,1,0,0,1.0111,optionRight,40,12970,6,22,0,22,0,1,,,,,,,,,,,,,,,,,,,,,,,,,,,,,,,,,,,,,,,
,,,,,,,,2023-08-24_09h01.23.055,HF_wild_card,2022.2.4,Win32,59.85515054,56ca0400b30699000bd9d94f,64e63663dbcaf322d2eec8da,64e703ae4d17421b1fb7e83a,,,,,,,sngl,resources/Empty.png,resources/DG.BMP,Door3,0.334259316,0.014814801,1,0,0,0.8452,optionRight,70,13040,6,23,0,23,0,1,,,,,,,,,,,,,,,,,,,,,,,,,,,,,,,,,,,,,,,
,,,,,,,,2023-08-24_09h01.23.055,HF_wild_card,2022.2.4,Win32,59.85515054,56ca0400b30699000bd9d94f,64e63663dbcaf322d2eec8da,64e703ae4d17421b1fb7e83a,,,,,,,decisionTrl,resources/DG.BMP,resources/DBN.BMP,Door3,-0.213888875,0.023148148,1,0,0,1.5099,optionLeft,70,13110,6,24,0,24,0,1,,,,,,,,,,,,,,,,,,,,,,,,,,,,,,,,,,,,,,,
,,,,,,,,2023-08-24_09h01.23.055,HF_wild_card,2022.2.4,Win32,59.85515054,56ca0400b30699000bd9d94f,64e63663dbcaf322d2eec8da,64e703ae4d17421b1fb7e83a,,,,,,,decisionTrl,resources/DG.BMP,resources/DBN.BMP,Door3,-0.290740755,-0.000925947,1,0,0,1.1942,optionLeft,70,13180,6,25,0,25,0,1,,,,,,,,,,,,,,,,,,,,,,,,,,,,,,,,,,,,,,,
,,,,,,,,2023-08-24_09h01.23.055,HF_wild_card,2022.2.4,Win32,59.85515054,56ca0400b30699000bd9d94f,64e63663dbcaf322d2eec8da,64e703ae4d17421b1fb7e83a,,,,,,,decisionTrl,resources/DBN.BMP,resources/DG.BMP,Door4,-0.199999986,0.03148146,1,0,0,1.4605,optionLeft,60,13240,6,26,0,26,0,1,,,,,,,,,,,,,,,,,,,,,,,,,,,,,,,,,,,,,,,
,,,,,,,,2023-08-24_09h01.23.055,HF_wild_card,2022.2.4,Win32,59.85515054,56ca0400b30699000bd9d94f,64e63663dbcaf322d2eec8da,64e703ae4d17421b1fb7e83a,,,,,,,sngl,resources/DBN.BMP,resources/Empty.png,Door4,-0.311111097,-0.014814836,1,0,0,0.8753,optionLeft,60,13300,6,27,0,27,0,1,,,,,,,,,,,,,,,,,,,,,,,,,,,,,,,,,,,,,,,
,,,,,,,,2023-08-24_09h01.23.055,HF_wild_card,2022.2.4,Win32,59.85515054,56ca0400b30699000bd9d94f,64e63663dbcaf322d2eec8da,64e703ae4d17421b1fb7e83a,,,,,,,decisionTrl,resources/DR.BMP,resources/DB.BMP,Door1,0.323148233,0.000925912,1,0,0,1.2085,optionRight,30,13330,6,28,0,28,0,1,,,,,,,,,,,,,,,,,,,,,,,,,,,,,,,,,,,,,,,
,,,,,,,,2023-08-24_09h01.23.055,HF_wild_card,2022.2.4,Win32,59.85515054,56ca0400b30699000bd9d94f,64e63663dbcaf322d2eec8da,64e703ae4d17421b1fb7e83a,,,,,,,decisionTrl,resources/DB.BMP,resources/DR.BMP,Door1,-0.353703711,-0.085185192,1,0,0,0.9358,optionLeft,30,13360,6,29,0,29,0,1,,,,,,,,,,,,,,,,,,,,,,,,,,,,,,,,,,,,,,,
,,,,,,,,2023-08-24_09h01.23.055,HF_wild_card,2022.2.4,Win32,59.85515054,56ca0400b30699000bd9d94f,64e63663dbcaf322d2eec8da,64e703ae4d17421b1fb7e83a,,,,,,,sngl,resources/Empty.png,resources/DY.BMP,WildCard_Ex,0.398148148,0.000925912,1,0,0,0.9015,optionRight,95,13455,6,30,0,30,0,1,,,,,,,,,,,,,,,,,,,,,,,,,,,,,,,,,,,,,,,
,,,,,,,,2023-08-24_09h01.23.055,HF_wild_card,2022.2.4,Win32,59.85515054,56ca0400b30699000bd9d94f,64e63663dbcaf322d2eec8da,64e703ae4d17421b1fb7e83a,,,,,,,decisionTrl,resources/DR.BMP,resources/DB.BMP,Door2,-0.228703675,-0.021296289,1,0,0,0.9864,optionLeft,40,13495,6,31,0,31,0,1,,,,,,,,,,,,,,,,,,,,,,,,,,,,,,,,,,,,,,,
,,,,,,,,2023-08-24_09h01.23.055,HF_wild_card,2022.2.4,Win32,59.85515054,56ca0400b30699000bd9d94f,64e63663dbcaf322d2eec8da,64e703ae4d17421b1fb7e83a,,,,,,,ctch,resources/DB.BMP,resources/DBN.BMP,Door4,0.332407492,-0.025925919,1,0,0,0.9491,optionRight,80,13575,6,32,0,32,0,1,,,,,,,,,,,,,,,,,,,,,,,,,,,,,,,,,,,,,,,
,,,,,,,,2023-08-24_09h01.23.055,HF_wild_card,2022.2.4,Win32,59.85515054,56ca0400b30699000bd9d94f,64e63663dbcaf322d2eec8da,64e703ae4d17421b1fb7e83a,,,,,,,decisionTrl,resources/DG.BMP,resources/DY.BMP,WildCard_Ex,0.336111139,-0.023148148,1,0,0,0.9628,optionRight,95,13670,6,33,0,33,0,1,,,,,,,,,,,,,,,,,,,,,,,,,,,,,,,,,,,,,,,
,,,,,,,,2023-08-24_09h01.23.055,HF_wild_card,2022.2.4,Win32,59.85515054,56ca0400b30699000bd9d94f,64e63663dbcaf322d2eec8da,64e703ae4d17421b1fb7e83a,,,,,,,decisionTrl,resources/DBN.BMP,resources/DG.BMP,Door4,-0.302777785,-0.035185178,1,0,0,1.3441,optionLeft,80,13750,6,34,0,34,0,1,,,,,,,,,,,,,,,,,,,,,,,,,,,,,,,,,,,,,,,
,,,,,,,,2023-08-24_09h01.23.055,HF_wild_card,2022.2.4,Win32,59.85515054,56ca0400b30699000bd9d94f,64e63663dbcaf322d2eec8da,64e703ae4d17421b1fb7e83a,,,,,,,decisionTrl,resources/DY.BMP,resources/DBN.BMP,Door4,0.237963005,0.001851859,1,0,0,0.8738,optionRight,60,13810,6,35,0,35,0,1,,,,,,,,,,,,,,,,,,,,,,,,,,,,,,,,,,,,,,,
,,,,,,,,2023-08-24_09h01.23.055,HF_wild_card,2022.2.4,Win32,59.85515054,56ca0400b30699000bd9d94f,64e63663dbcaf322d2eec8da,64e703ae4d17421b1fb7e83a,,,,,,,sngl,resources/Empty.png,resources/DB.BMP,Door1,0.340740769,0.000925912,1,0,0,0.8817,optionRight,30,13840,6,36,0,36,0,1,,,,,,,,,,,,,,,,,,,,,,,,,,,,,,,,,,,,,,,
,,,,,,,,2023-08-24_09h01.23.055,HF_wild_card,2022.2.4,Win32,59.85515054,56ca0400b30699000bd9d94f,64e63663dbcaf322d2eec8da,64e703ae4d17421b1fb7e83a,,,,,,,decisionTrl,resources/DB.BMP,resources/DY.BMP,WildCard_Ex,0.335185157,-0.0074074,1,0,0,1.8619,optionRight,95,13935,6,37,0,37,0,1,,,,,,,,,,,,,,,,,,,,,,,,,,,,,,,,,,,,,,,
,,,,,,,,2023-08-24_09h01.23.055,HF_wild_card,2022.2.4,Win32,59.85515054,56ca0400b30699000bd9d94f,64e63663dbcaf322d2eec8da,64e703ae4d17421b1fb7e83a,,,,,,,decisionTrl,resources/DR.BMP,resources/DY.BMP,Door2,-0.143518519,0.009259259,1,0,0,1.1919,optionLeft,20,13955,6,38,0,38,0,1,,,,,,,,,,,,,,,,,,,,,,,,,,,,,,,,,,,,,,,
,,,,,,,,2023-08-24_09h01.23.055,HF_wild_card,2022.2.4,Win32,59.85515054,56ca0400b30699000bd9d94f,64e63663dbcaf322d2eec8da,64e703ae4d17421b1fb7e83a,,,,,,,sngl,resources/DG.BMP,resources/Empty.png,Door3,-0.238888847,-0.017592607,1,0,0,0.845,optionLeft,70,14025,6,39,0,39,0,1,,,,,,,,,,,,,,,,,,,,,,,,,,,,,,,,,,,,,,,
,,,,,,,,2023-08-24_09h01.23.055,HF_wild_card,2022.2.4,Win32,59.85515054,56ca0400b30699000bd9d94f,64e63663dbcaf322d2eec8da,64e703ae4d17421b1fb7e83a,,,,,,,decisionTrl,resources/DY.BMP,resources/DR.BMP,Door2,0.328703704,-0.028703725,1,0,0,1.3261,optionRight,40,14065,6,40,0,40,0,1,,,,,,,,,,,,,,,,,,,,,,,,,,,,,,,,,,,,,,,
,,,,,,,,2023-08-24_09h01.23.055,HF_wild_card,2022.2.4,Win32,59.85515054,56ca0400b30699000bd9d94f,64e63663dbcaf322d2eec8da,64e703ae4d17421b1fb7e83a,,,,,,,sngl,resources/Empty.png,resources/DR.BMP,Door2,0.382407436,-0.011111118,1,0,0,0.8602,optionRight,40,14105,6,41,0,41,0,1,,,,,,,,,,,,,,,,,,,,,,,,,,,,,,,,,,,,,,,
,,,,,,,,2023-08-24_09h01.23.055,HF_wild_card,2022.2.4,Win32,59.85515054,56ca0400b30699000bd9d94f,64e63663dbcaf322d2eec8da,64e703ae4d17421b1fb7e83a,,,,,,,ctch,resources/DR.BMP,resources/DG.BMP,Door3,0.422222279,-0.021296289,1,0,0,1.3949,optionRight,70,14175,6,42,0,42,0,1,,,,,,,,,,,,,,,,,,,,,,,,,,,,,,,,,,,,,,,
,,,,,,,,2023-08-24_09h01.23.055,HF_wild_card,2022.2.4,Win32,59.85515054,56ca0400b30699000bd9d94f,64e63663dbcaf322d2eec8da,64e703ae4d17421b1fb7e83a,,,,,,,decisionTrl,resources/DB.BMP,resources/DR.BMP,Door2,0.316666638,0.023148148,1,0,0,1.9268,optionRight,20,14195,6,43,0,43,0,1,,,,,,,,,,,,,,,,,,,,,,,,,,,,,,,,,,,,,,,
,,,,,,,,2023-08-24_09h01.23.055,HF_wild_card,2022.2.4,Win32,59.85515054,56ca0400b30699000bd9d94f,64e63663dbcaf322d2eec8da,64e703ae4d17421b1fb7e83a,,,,,,,,,,,,,,,,,,,,,,,,,,5,0,5,0,1,,,,,,,,,,,,,,,,,,,,,,,,,,,,,,,,,,
,,,,,,,,2023-08-24_09h01.23.055,HF_wild_card,2022.2.4,Win32,59.85515054,56ca0400b30699000bd9d94f,64e63663dbcaf322d2eec8da,64e703ae4d17421b1fb7e83a,,,,,,,decisionTrl,resources/DBN.BMP,resources/DG.BMP,Door4,-0.261111083,0.010185171,1,0,0,1.3618,optionLeft,80,14275,7,0,0,0,0,1,,,,,,,,,,,,,,,,,,,,,,,,,,,,,,,,,,,,,,,
,,,,,,,,2023-08-24_09h01.23.055,HF_wild_card,2022.2.4,Win32,59.85515054,56ca0400b30699000bd9d94f,64e63663dbcaf322d2eec8da,64e703ae4d17421b1fb7e83a,,,,,,,decisionTrl,resources/DB.BMP,resources/DR.BMP,Door2,0.349074046,0.014814801,1,0,0,0.9606,optionRight,40,14315,7,1,0,1,0,1,,,,,,,,,,,,,,,,,,,,,,,,,,,,,,,,,,,,,,,
,,,,,,,,2023-08-24_09h01.23.055,HF_wild_card,2022.2.4,Win32,59.85515054,56ca0400b30699000bd9d94f,64e63663dbcaf322d2eec8da,64e703ae4d17421b1fb7e83a,,,,,,,decisionTrl,resources/DB.BMP,resources/DR.BMP,Door1,-0.350925905,-0.051851873,1,0,0,0.8445,optionLeft,30,14345,7,2,0,2,0,1,,,,,,,,,,,,,,,,,,,,,,,,,,,,,,,,,,,,,,,
,,,,,,,,2023-08-24_09h01.23.055,HF_wild_card,2022.2.4,Win32,59.85515054,56ca0400b30699000bd9d94f,64e63663dbcaf322d2eec8da,64e703ae4d17421b1fb7e83a,,,,,,,ctch,resources/DG.BMP,resources/DR.BMP,Door3,-0.242592564,-0.028703725,1,0,0,1.4436,optionLeft,70,14415,7,3,0,3,0,1,,,,,,,,,,,,,,,,,,,,,,,,,,,,,,,,,,,,,,,
,,,,,,,,2023-08-24_09h01.23.055,HF_wild_card,2022.2.4,Win32,59.85515054,56ca0400b30699000bd9d94f,64e63663dbcaf322d2eec8da,64e703ae4d17421b1fb7e83a,,,,,,,decisionTrl,resources/DR.BMP,resources/DB.BMP,Door1,0.363888917,-0.01203703,1,0,0,1.3113,optionRight,30,14445,7,4,0,4,0,1,,,,,,,,,,,,,,,,,,,,,,,,,,,,,,,,,,,,,,,
,,,,,,,,2023-08-24_09h01.23.055,HF_wild_card,2022.2.4,Win32,59.85515054,56ca0400b30699000bd9d94f,64e63663dbcaf322d2eec8da,64e703ae4d17421b1fb7e83a,,,,,,,decisionTrl,resources/DB.BMP,resources/DR.BMP,Door1,-0.37037037,-0.01666666,1,0,0,1.1608,optionLeft,30,14475,7,5,0,5,0,1,,,,,,,,,,,,,,,,,,,,,,,,,,,,,,,,,,,,,,,
,,,,,,,,2023-08-24_09h01.23.055,HF_wild_card,2022.2.4,Win32,59.85515054,56ca0400b30699000bd9d94f,64e63663dbcaf322d2eec8da,64e703ae4d17421b1fb7e83a,,,,,,,ctch,resources/DB.BMP,resources/DBN.BMP,Door4,0.487037094,0.009259259,1,0,0,1.1662,optionRight,60,14535,7,6,0,6,0,1,,,,,,,,,,,,,,,,,,,,,,,,,,,,,,,,,,,,,,,
,,,,,,,,2023-08-24_09h01.23.055,HF_wild_card,2022.2.4,Win32,59.85515054,56ca0400b30699000bd9d94f,64e63663dbcaf322d2eec8da,64e703ae4d17421b1fb7e83a,,,,,,,ctch,resources/DBN.BMP,resources/DB.BMP,Door4,-0.322222215,-0.039814808,1,0,0,0.8305,optionLeft,60,14595,7,7,0,7,0,1,,,,,,,,,,,,,,,,,,,,,,,,,,,,,,,,,,,,,,,
,,,,,,,,2023-08-24_09h01.23.055,HF_wild_card,2022.2.4,Win32,59.85515054,56ca0400b30699000bd9d94f,64e63663dbcaf322d2eec8da,64e703ae4d17421b1fb7e83a,,,,,,,decisionTrl,resources/DB.BMP,resources/DR.BMP,Door1,-0.258333347,-0.0074074,1,0,0,1.1731,optionLeft,30,14625,7,8,0,8,0,1,,,,,,,,,,,,,,,,,,,,,,,,,,,,,,,,,,,,,,,
,,,,,,,,2023-08-24_09h01.23.055,HF_wild_card,2022.2.4,Win32,59.85515054,56ca0400b30699000bd9d94f,64e63663dbcaf322d2eec8da,64e703ae4d17421b1fb7e83a,,,,,,,decisionTrl,resources/DG.BMP,resources/DBN.BMP,Door4,0.27870369,-0.019444466,1,0,0,0.9901,optionRight,80,14705,7,9,0,9,0,1,,,,,,,,,,,,,,,,,,,,,,,,,,,,,,,,,,,,,,,
,,,,,,,,2023-08-24_09h01.23.055,HF_wild_card,2022.2.4,Win32,59.85515054,56ca0400b30699000bd9d94f,64e63663dbcaf322d2eec8da,64e703ae4d17421b1fb7e83a,,,,,,,ctch,resources/DG.BMP,resources/DR.BMP,Door3,-0.226851852,0.008333312,1,0,0,2.1685,optionLeft,70,14775,7,10,0,10,0,1,,,,,,,,,,,,,,,,,,,,,,,,,,,,,,,,,,,,,,,
,,,,,,,,2023-08-24_09h01.23.055,HF_wild_card,2022.2.4,Win32,59.85515054,56ca0400b30699000bd9d94f,64e63663dbcaf322d2eec8da,64e703ae4d17421b1fb7e83a,,,,,,,ctch,resources/DG.BMP,resources/DR.BMP,Door3,-0.324999986,-0.037962984,1,0,0,1.1294,optionLeft,70,14845,7,11,0,11,0,1,,,,,,,,,,,,,,,,,,,,,,,,,,,,,,,,,,,,,,,
,,,,,,,,2023-08-24_09h01.23.055,HF_wild_card,2022.2.4,Win32,59.85515054,56ca0400b30699000bd9d94f,64e63663dbcaf322d2eec8da,64e703ae4d17421b1fb7e83a,,,,,,,decisionTrl,resources/DB.BMP,resources/DR.BMP,Door1,-0.236111111,-0.000925947,1,0,0,1.2663,optionLeft,30,14875,7,12,0,12,0,1,,,,,,,,,,,,,,,,,,,,,,,,,,,,,,,,,,,,,,,
,,,,,,,,2023-08-24_09h01.23.055,HF_wild_card,2022.2.4,Win32,59.85515054,56ca0400b30699000bd9d94f,64e63663dbcaf322d2eec8da,64e703ae4d17421b1fb7e83a,,,,,,,ctch,resources/DB.BMP,resources/DBN.BMP,Door4,0.434259344,0.03148146,1,0,0,1.0093,optionRight,60,14935,7,13,0,13,0,1,,,,,,,,,,,,,,,,,,,,,,,,,,,,,,,,,,,,,,,
,,,,,,,,2023-08-24_09h01.23.055,HF_wild_card,2022.2.4,Win32,59.85515054,56ca0400b30699000bd9d94f,64e63663dbcaf322d2eec8da,64e703ae4d17421b1fb7e83a,,,,,,,decisionTrl,resources/DR.BMP,resources/DB.BMP,Door1,0.395370342,-0.027777778,1,0,0,1.4154,optionRight,30,14965,7,14,0,14,0,1,,,,,,,,,,,,,,,,,,,,,,,,,,,,,,,,,,,,,,,
,,,,,,,,2023-08-24_09h01.23.055,HF_wild_card,2022.2.4,Win32,59.85515054,56ca0400b30699000bd9d94f,64e63663dbcaf322d2eec8da,64e703ae4d17421b1fb7e83a,,,,,,,decisionTrl,resources/DR.BMP,resources/DB.BMP,Door1,0.305555556,-0.020370377,1,0,0,1.3336,optionRight,30,14995,7,15,0,15,0,1,,,,,,,,,,,,,,,,,,,,,,,,,,,,,,,,,,,,,,,
,,,,,,,,2023-08-24_09h01.23.055,HF_wild_card,2022.2.4,Win32,59.85515054,56ca0400b30699000bd9d94f,64e63663dbcaf322d2eec8da,64e703ae4d17421b1fb7e83a,,,,,,,decisionTrl,resources/DB.BMP,resources/DR.BMP,Door1,-0.371296282,-0.042592614,1,0,0,0.9961,optionLeft,30,15025,7,16,0,16,0,1,,,,,,,,,,,,,,,,,,,,,,,,,,,,,,,,,,,,,,,
,,,,,,,,2023-08-24_09h01.23.055,HF_wild_card,2022.2.4,Win32,59.85515054,56ca0400b30699000bd9d94f,64e63663dbcaf322d2eec8da,64e703ae4d17421b1fb7e83a,,,,,,,decisionTrl,resources/DR.BMP,resources/DB.BMP,Door1,0.300000085,-0.043518526,1,0,0,1.2637,optionRight,30,15055,7,17,0,17,0,1,,,,,,,,,,,,,,,,,,,,,,,,,,,,,,,,,,,,,,,
,,,,,,,,2023-08-24_09h01.23.055,HF_wild_card,2022.2.4,Win32,59.85515054,56ca0400b30699000bd9d94f,64e63663dbcaf322d2eec8da,64e703ae4d17421b1fb7e83a,,,,,,,decisionTrl,resources/DG.BMP,resources/DBN.BMP,Door4,0.399074131,-0.001851859,1,0,0,1.0305,optionRight,60,15115,7,18,0,18,0,1,,,,,,,,,,,,,,,,,,,,,,,,,,,,,,,,,,,,,,,
,,,,,,,,2023-08-24_09h01.23.055,HF_wild_card,2022.2.4,Win32,59.85515054,56ca0400b30699000bd9d94f,64e63663dbcaf322d2eec8da,64e703ae4d17421b1fb7e83a,,,,,,,decisionTrl,resources/DR.BMP,resources/DB.BMP,Door1,0.325925898,0.008333312,1,0,0,1.2284,optionRight,30,15145,7,19,0,19,0,1,,,,,,,,,,,,,,,,,,,,,,,,,,,,,,,,,,,,,,,
,,,,,,,,2023-08-24_09h01.23.055,HF_wild_card,2022.2.4,Win32,59.85515054,56ca0400b30699000bd9d94f,64e63663dbcaf322d2eec8da,64e703ae4d17421b1fb7e83a,,,,,,,decisionTrl,resources/DG.BMP,resources/DBN.BMP,Door3,-0.235185199,-0.023148148,1,0,0,1.2478,optionLeft,70,15215,7,20,0,20,0,1,,,,,,,,,,,,,,,,,,,,,,,,,,,,,,,,,,,,,,,
,,,,,,,,2023-08-24_09h01.23.055,HF_wild_card,2022.2.4,Win32,59.85515054,56ca0400b30699000bd9d94f,64e63663dbcaf322d2eec8da,64e703ae4d17421b1fb7e83a,,,,,,,ctch,resources/DR.BMP,resources/DG.BMP,Door3,0.303703732,-0.003703718,1,0,0,0.9653,optionRight,70,15285,7,21,0,21,0,1,,,,,,,,,,,,,,,,,,,,,,,,,,,,,,,,,,,,,,,
,,,,,,,,2023-08-24_09h01.23.055,HF_wild_card,2022.2.4,Win32,59.85515054,56ca0400b30699000bd9d94f,64e63663dbcaf322d2eec8da,64e703ae4d17421b1fb7e83a,,,,,,,decisionTrl,resources/DG.BMP,resources/DBN.BMP,Door3,-0.22129631,-0.022222236,1,0,0,1.0925,optionLeft,70,15355,7,22,0,22,0,1,,,,,,,,,,,,,,,,,,,,,,,,,,,,,,,,,,,,,,,
,,,,,,,,2023-08-24_09h01.23.055,HF_wild_card,2022.2.4,Win32,59.85515054,56ca0400b30699000bd9d94f,64e63663dbcaf322d2eec8da,64e703ae4d17421b1fb7e83a,,,,,,,ctch,resources/DB.BMP,resources/DBN.BMP,Door4,0.288888931,-0.006481489,1,0,0,0.8992,optionRight,80,15435,7,23,0,23,0,1,,,,,,,,,,,,,,,,,,,,,,,,,,,,,,,,,,,,,,,
,,,,,,,,2023-08-24_09h01.23.055,HF_wild_card,2022.2.4,Win32,59.85515054,56ca0400b30699000bd9d94f,64e63663dbcaf322d2eec8da,64e703ae4d17421b1fb7e83a,,,,,,,decisionTrl,resources/DBN.BMP,resources/DG.BMP,Door4,-0.299074067,-0.042592614,1,0,0,1.1368,optionLeft,60,15495,7,24,0,24,0,1,,,,,,,,,,,,,,,,,,,,,,,,,,,,,,,,,,,,,,,
,,,,,,,,2023-08-24_09h01.23.055,HF_wild_card,2022.2.4,Win32,59.85515054,56ca0400b30699000bd9d94f,64e63663dbcaf322d2eec8da,64e703ae4d17421b1fb7e83a,,,,,,,decisionTrl,resources/DBN.BMP,resources/DG.BMP,Door3,0.333333333,-0.017592607,1,0,0,0.8137,optionRight,70,15565,7,25,0,25,0,1,,,,,,,,,,,,,,,,,,,,,,,,,,,,,,,,,,,,,,,
,,,,,,,,2023-08-24_09h01.23.055,HF_wild_card,2022.2.4,Win32,59.85515054,56ca0400b30699000bd9d94f,64e63663dbcaf322d2eec8da,64e703ae4d17421b1fb7e83a,,,,,,,decisionTrl,resources/DBN.BMP,resources/DG.BMP,Door3,0.316666638,-0.026851866,1,0,0,0.7981,optionRight,70,15635,7,26,0,26,0,1,,,,,,,,,,,,,,,,,,,,,,,,,,,,,,,,,,,,,,,
,,,,,,,,2023-08-24_09h01.23.055,HF_wild_card,2022.2.4,Win32,59.85515054,56ca0400b30699000bd9d94f,64e63663dbcaf322d2eec8da,64e703ae4d17421b1fb7e83a,,,,,,,decisionTrl,resources/DG.BMP,resources/DBN.BMP,Door3,-0.287962949,-0.071296303,1,0,0,0.8802,optionLeft,70,15705,7,27,0,27,0,1,,,,,,,,,,,,,,,,,,,,,,,,,,,,,,,,,,,,,,,
,,,,,,,,2023-08-24_09h01.23.055,HF_wild_card,2022.2.4,Win32,59.85515054,56ca0400b30699000bd9d94f,64e63663dbcaf322d2eec8da,64e703ae4d17421b1fb7e83a,,,,,,,decisionTrl,resources/DR.BMP,resources/DB.BMP,Door1,0.200925968,-0.000925947,1,0,0,1.4984,optionRight,30,15735,7,28,0,28,0,1,,,,,,,,,,,,,,,,,,,,,,,,,,,,,,,,,,,,,,,
,,,,,,,,2023-08-24_09h01.23.055,HF_wild_card,2022.2.4,Win32,59.85515054,56ca0400b30699000bd9d94f,64e63663dbcaf322d2eec8da,64e703ae4d17421b1fb7e83a,,,,,,,ctch,resources/DBN.BMP,resources/DB.BMP,Door4,-0.349999993,-0.048148155,1,0,0,1.0808,optionLeft,60,15795,7,29,0,29,0,1,,,,,,,,,,,,,,,,,,,,,,,,,,,,,,,,,,,,,,,
,,,,,,,,2023-08-24_09h01.23.055,HF_wild_card,2022.2.4,Win32,59.85515054,56ca0400b30699000bd9d94f,64e63663dbcaf322d2eec8da,64e703ae4d17421b1fb7e83a,,,,,,,ctch,resources/DR.BMP,resources/DG.BMP,Door3,0.30277775,-0.023148148,1,0,0,0.9611,optionRight,70,15865,7,30,0,30,0,1,,,,,,,,,,,,,,,,,,,,,,,,,,,,,,,,,,,,,,,
,,,,,,,,2023-08-24_09h01.23.055,HF_wild_card,2022.2.4,Win32,59.85515054,56ca0400b30699000bd9d94f,64e63663dbcaf322d2eec8da,64e703ae4d17421b1fb7e83a,,,,,,,decisionTrl,resources/DG.BMP,resources/DBN.BMP,Door3,-0.326851845,-0.033333355,1,0,0,0.8802,optionLeft,70,15935,7,31,0,31,0,1,,,,,,,,,,,,,,,,,,,,,,,,,,,,,,,,,,,,,,,
,,,,,,,,2023-08-24_09h01.23.055,HF_wild_card,2022.2.4,Win32,59.85515054,56ca0400b30699000bd9d94f,64e63663dbcaf322d2eec8da,64e703ae4d17421b1fb7e83a,,,,,,,ctch,resources/DBN.BMP,resources/DB.BMP,Door4,-0.275925884,-0.000925947,1,0,0,0.8933,optionLeft,60,15995,7,32,0,32,0,1,,,,,,,,,,,,,,,,,,,,,,,,,,,,,,,,,,,,,,,
,,,,,,,,2023-08-24_09h01.23.055,HF_wild_card,2022.2.4,Win32,59.85515054,56ca0400b30699000bd9d94f,64e63663dbcaf322d2eec8da,64e703ae4d17421b1fb7e83a,,,,,,,ctch,resources/DR.BMP,resources/DG.BMP,Door3,0.340740769,0.026851831,1,0,0,1.0612,optionRight,70,16065,7,33,0,33,0,1,,,,,,,,,,,,,,,,,,,,,,,,,,,,,,,,,,,,,,,
,,,,,,,,2023-08-24_09h01.23.055,HF_wild_card,2022.2.4,Win32,59.85515054,56ca0400b30699000bd9d94f,64e63663dbcaf322d2eec8da,64e703ae4d17421b1fb7e83a,,,,,,,decisionTrl,resources/DBN.BMP,resources/DG.BMP,Door4,-0.290740755,-0.037037037,1,0,0,0.881,optionLeft,80,16145,7,34,0,34,0,1,,,,,,,,,,,,,,,,,,,,,,,,,,,,,,,,,,,,,,,
,,,,,,,,2023-08-24_09h01.23.055,HF_wild_card,2022.2.4,Win32,59.85515054,56ca0400b30699000bd9d94f,64e63663dbcaf322d2eec8da,64e703ae4d17421b1fb7e83a,,,,,,,decisionTrl,resources/DBN.BMP,resources/DG.BMP,Door3,0.336111139,-0.038888896,1,0,0,0.8117,optionRight,70,16215,7,35,0,35,0,1,,,,,,,,,,,,,,,,,,,,,,,,,,,,,,,,,,,,,,,
,,,,,,,,2023-08-24_09h01.23.055,HF_wild_card,2022.2.4,Win32,59.85515054,56ca0400b30699000bd9d94f,64e63663dbcaf322d2eec8da,64e703ae4d17421b1fb7e83a,,,,,,,,,,,,,,,,,,,,,,,,,,6,0,6,0,1,,,,,,,,,,,,,,,,,,,,,,,,,,,,,,,,,,
,,,,,,,,2023-08-24_09h01.23.055,HF_wild_card,2022.2.4,Win32,59.85515054,56ca0400b30699000bd9d94f,64e63663dbcaf322d2eec8da,64e703ae4d17421b1fb7e83a,,,,,,,,,,,,,,,,,,,,,,,,,,,,,,,4,,,,,,,,,,,,,,,,,,,,,,,,,,,,,,,,,
,,,,,,,,2023-08-24_09h01.23.055,HF_wild_card,2022.2.4,Win32,59.85515054,56ca0400b30699000bd9d94f,64e63663dbcaf322d2eec8da,64e703ae4d17421b1fb7e83a,,,,,,,,,,,,,,,,,,,,,,,,,,,,,,,,,,,,,,,,,,,,,,,,,,,,,,,,,,,,,,,,
,,,,,,,,2023-08-24_09h01.23.055,HF_wild_card,2022.2.4,Win32,59.85515054,56ca0400b30699000bd9d94f,64e63663dbcaf322d2eec8da,64e703ae4d17421b1fb7e83a,,,,,,,,,,,,,,,,,,,,,,,,,,,,,,,,55,Door4,resources/DBN.BMP,0,0,0,0,1,,,,,,,,,,,,,,,,,,,,,,,,,
,,,,,,,,2023-08-24_09h01.23.055,HF_wild_card,2022.2.4,Win32,59.85515054,56ca0400b30699000bd9d94f,64e63663dbcaf322d2eec8da,64e703ae4d17421b1fb7e83a,,,,,,,,,,,,,,,,,,,,,,,,,,,,,,,,60,Door3,resources/DG.BMP,1,0,1,0,1,,,,,,,,,,,,,,,,,,,,,,,,,
,,,,,,,,2023-08-24_09h01.23.055,HF_wild_card,2022.2.4,Win32,59.85515054,56ca0400b30699000bd9d94f,64e63663dbcaf322d2eec8da,64e703ae4d17421b1fb7e83a,,,,,,,,,,,,,,,,,,,,,,,,,,,,,,,,45,WC_nonExtreme,resources/DP.BMP,2,0,2,0,1,,,,,,,,,,,,,,,,,,,,,,,,,
,,,,,,,,2023-08-24_09h01.23.055,HF_wild_card,2022.2.4,Win32,59.85515054,56ca0400b30699000bd9d94f,64e63663dbcaf322d2eec8da,64e703ae4d17421b1fb7e83a,,,,,,,,,,,,,,,,,,,,,,,,,,,,,,,,35,Door2,resources/DR.BMP,3,0,3,0,1,,,,,,,,,,,,,,,,,,,,,,,,,
,,,,,,,,2023-08-24_09h01.23.055,HF_wild_card,2022.2.4,Win32,59.85515054,56ca0400b30699000bd9d94f,64e63663dbcaf322d2eec8da,64e703ae4d17421b1fb7e83a,,,,,,,,,,,,,,,,,,,,,,,,,,,,,,,,30,WC_extreme,resources/DY.BMP,4,0,4,0,1,,,,,,,,,,,,,,,,,,,,,,,,,
,,,,,,,,2023-08-24_09h01.23.055,HF_wild_card,2022.2.4,Win32,59.85515054,56ca0400b30699000bd9d94f,64e63663dbcaf322d2eec8da,64e703ae4d17421b1fb7e83a,,,,,,,,,,,,,,,,,,,,,,,,,,,,,,,,45,Door1,resources/DB.BMP,5,0,5,0,1,,,,,,,,,,,,,,,,,,,,,,,,,
,,,,,,,,2023-08-24_09h01.23.055,HF_wild_card,2022.2.4,Win32,59.85515054,56ca0400b30699000bd9d94f,64e63663dbcaf322d2eec8da,64e703ae4d17421b1fb7e83a,,,,,,,,,,,,,,,,,,,,,,,,,,,,,,,,,,,,,,,,,,,,,,,,,,,,,,,,,,,,,,,,
