Condition,Low fixed image (Door1),Low risky image (Door2),High fixed image (Door3),High risky image (Door4),NonExtreme Wild Card 1,NonExtreme Wild Card 2,,date,expName,psychopyVersion,OS,frameRate,PROLIFIC_PID,STUDY_ID,SESSION_ID,mouse_2.x,mouse_2.y,mouse_2.leftButton,mouse_2.midButton,mouse_2.rightButton,mouse_2.clicked_name,Trial Type,Left Option Image,Right Option Image,Chosen Door,mouse.x,mouse.y,mouse.leftButton,mouse.midButton,mouse.rightButton,mouse.time,mouse.clicked_name,Feedback,Cumulative Reward,Block,trial.thisRepN,trial.thisTrialN,trial.thisN,trial.thisIndex,trial.ran,blocks.thisRepN,blocks.thisTrialN,blocks.thisN,blocks.thisIndex,blocks.ran,Money conversion,First Outcome Reported,Shown Door (First Outcome),Displayed Image (First Outcome),outcomes.thisRepN,outcomes.thisTrialN,outcomes.thisN,outcomes.thisIndex,outcomes.ran,judgments.thisRepN,judgments.thisTrialN,judgments.thisN,judgments.thisIndex,judgments.ran,freqMouse.x,freqMouse.y,freqMouse.leftButton,freqMouse.midButton,freqMouse.rightButton,freqMouse.clicked_name,FQJ for first outcome,FQJ for second outcome,Shown Door,Displayed Image,trials.thisRepN,trials.thisTrialN,trials.thisN,trials.thisIndex,trials.ran,judgBlock.thisRepN,judgBlock.thisTrialN,judgBlock.thisN,judgBlock.thisIndex,judgBlock.ran
2,resources/DY.BMP,resources/DBN.BMP,resources/DG.BMP,resources/DB.BMP,resources/DR.BMP,resources/DP.BMP,5ed403a89542210ab77530b7,2023-08-16_08h46.03.200,HF_wild_card,2022.2.4,Win32,62.5,5ed403a89542210ab77530b7,64d2fd46c836a06233681665,64dc7e7a93b2ef5a07ade3c7,,,,,,,,,,,,,,,,,,,,,,,,,,,,,,,,,,,,,,,,,,,,,,,,,,,,,,,,,,,,,,,,
,,,,,,,5ed403a89542210ab77530b7,2023-08-16_08h46.03.200,HF_wild_card,2022.2.4,Win32,62.5,5ed403a89542210ab77530b7,64d2fd46c836a06233681665,64dc7e7a93b2ef5a07ade3c7,-0.015625,-0.421875,1,0,0,agree,,,,,,,,,,,,,,,,,,,,,,,,,,,,,,,,,,,,,,,,,,,,,,,,,,,,,,,,,,
,,,,,,,5ed403a89542210ab77530b7,2023-08-16_08h46.03.200,HF_wild_card,2022.2.4,Win32,62.5,5ed403a89542210ab77530b7,64d2fd46c836a06233681665,64dc7e7a93b2ef5a07ade3c7,,,,,,,,,,,,,,,,,,,,,,,,,,,,,,,,,,,,,,,,,,,,,,,,,,,,,,,,,,,,,,,,
,,,,,,,5ed403a89542210ab77530b7,2023-08-16_08h46.03.200,HF_wild_card,2022.2.4,Win32,62.5,5ed403a89542210ab77530b7,64d2fd46c836a06233681665,64dc7e7a93b2ef5a07ade3c7,,,,,,,decisionTrl,resources/DBN.BMP,resources/DY.BMP,Door1,0.360472155,-0.029661017,1,0,0,2.267,optionRight,30,30,1,0,0,0,0,1,,,,,,,,,,,,,,,,,,,,,,,,,,,,,,,,,,,,,,,
,,,,,,,5ed403a89542210ab77530b7,2023-08-16_08h46.03.200,HF_wild_card,2022.2.4,Win32,62.5,5ed403a89542210ab77530b7,64d2fd46c836a06233681665,64dc7e7a93b2ef5a07ade3c7,,,,,,,ctch,resources/DG.BMP,resources/DBN.BMP,Door2,0.351392252,-0.032687651,1,0,0,0.93,optionRight,20,50,1,1,0,1,0,1,,,,,,,,,,,,,,,,,,,,,,,,,,,,,,,,,,,,,,,
,,,,,,,5ed403a89542210ab77530b7,2023-08-16_08h46.03.200,HF_wild_card,2022.2.4,Win32,62.5,5ed403a89542210ab77530b7,64d2fd46c836a06233681665,64dc7e7a93b2ef5a07ade3c7,,,,,,,sngl,resources/Empty.png,resources/DP.BMP,WildCard_NonEx,0.37409201,-0.032687651,1,0,0,0.857,optionRight,45,95,1,2,0,2,0,1,,,,,,,,,,,,,,,,,,,,,,,,,,,,,,,,,,,,,,,
,,,,,,,5ed403a89542210ab77530b7,2023-08-16_08h46.03.200,HF_wild_card,2022.2.4,Win32,62.5,5ed403a89542210ab77530b7,64d2fd46c836a06233681665,64dc7e7a93b2ef5a07ade3c7,,,,,,,decisionTrl,resources/DB.BMP,resources/DG.BMP,Door4,-0.275121065,-0.061440678,1,0,0,1.913,optionLeft,80,175,1,3,0,3,0,1,,,,,,,,,,,,,,,,,,,,,,,,,,,,,,,,,,,,,,,
,,,,,,,5ed403a89542210ab77530b7,2023-08-16_08h46.03.200,HF_wild_card,2022.2.4,Win32,62.5,5ed403a89542210ab77530b7,64d2fd46c836a06233681665,64dc7e7a93b2ef5a07ade3c7,,,,,,,decisionTrl,resources/DY.BMP,resources/DBN.BMP,Door1,-0.288802083,-0.022135417,1,0,0,2.453,optionLeft,30,205,1,4,0,4,0,1,,,,,,,,,,,,,,,,,,,,,,,,,,,,,,,,,,,,,,,
,,,,,,,5ed403a89542210ab77530b7,2023-08-16_08h46.03.200,HF_wild_card,2022.2.4,Win32,62.5,5ed403a89542210ab77530b7,64d2fd46c836a06233681665,64dc7e7a93b2ef5a07ade3c7,,,,,,,sngl,resources/DBN.BMP,resources/Empty.png,Door2,-0.296614583,-0.024739583,1,0,0,0.986,optionLeft,40,245,1,5,0,5,0,1,,,,,,,,,,,,,,,,,,,,,,,,,,,,,,,,,,,,,,,
,,,,,,,5ed403a89542210ab77530b7,2023-08-16_08h46.03.200,HF_wild_card,2022.2.4,Win32,62.5,5ed403a89542210ab77530b7,64d2fd46c836a06233681665,64dc7e7a93b2ef5a07ade3c7,,,,,,,decisionTrl,resources/DBN.BMP,resources/DP.BMP,WildCard_NonEx,0.207291667,-0.00390625,1,0,0,1.548,optionRight,45,290,1,6,0,6,0,1,,,,,,,,,,,,,,,,,,,,,,,,,,,,,,,,,,,,,,,
,,,,,,,5ed403a89542210ab77530b7,2023-08-16_08h46.03.200,HF_wild_card,2022.2.4,Win32,62.5,5ed403a89542210ab77530b7,64d2fd46c836a06233681665,64dc7e7a93b2ef5a07ade3c7,,,,,,,decisionTrl,resources/DG.BMP,resources/DB.BMP,Door3,-0.368229167,0.005208333,1,0,0,1.309,optionLeft,70,360,1,7,0,7,0,1,,,,,,,,,,,,,,,,,,,,,,,,,,,,,,,,,,,,,,,
,,,,,,,5ed403a89542210ab77530b7,2023-08-16_08h46.03.200,HF_wild_card,2022.2.4,Win32,62.5,5ed403a89542210ab77530b7,64d2fd46c836a06233681665,64dc7e7a93b2ef5a07ade3c7,,,,,,,decisionTrl,resources/DY.BMP,resources/DBN.BMP,Door1,-0.343489583,-0.036458333,1,0,0,1.347,optionLeft,30,390,1,8,0,8,0,1,,,,,,,,,,,,,,,,,,,,,,,,,,,,,,,,,,,,,,,
,,,,,,,5ed403a89542210ab77530b7,2023-08-16_08h46.03.200,HF_wild_card,2022.2.4,Win32,62.5,5ed403a89542210ab77530b7,64d2fd46c836a06233681665,64dc7e7a93b2ef5a07ade3c7,,,,,,,sngl,resources/DY.BMP,resources/Empty.png,Door1,-0.29921875,0,1,0,0,0.828,optionLeft,30,420,1,9,0,9,0,1,,,,,,,,,,,,,,,,,,,,,,,,,,,,,,,,,,,,,,,
,,,,,,,5ed403a89542210ab77530b7,2023-08-16_08h46.03.200,HF_wild_card,2022.2.4,Win32,62.5,5ed403a89542210ab77530b7,64d2fd46c836a06233681665,64dc7e7a93b2ef5a07ade3c7,,,,,,,sngl,resources/Empty.png,resources/DB.BMP,Door4,0.426041667,-0.04296875,1,0,0,1.33,optionRight,60,480,1,10,0,10,0,1,,,,,,,,,,,,,,,,,,,,,,,,,,,,,,,,,,,,,,,
,,,,,,,5ed403a89542210ab77530b7,2023-08-16_08h46.03.200,HF_wild_card,2022.2.4,Win32,62.5,5ed403a89542210ab77530b7,64d2fd46c836a06233681665,64dc7e7a93b2ef5a07ade3c7,,,,,,,sngl,resources/DP.BMP,resources/Empty.png,WildCard_NonEx,-0.313541667,-0.018229167,1,0,0,0.913,optionLeft,45,525,1,11,0,11,0,1,,,,,,,,,,,,,,,,,,,,,,,,,,,,,,,,,,,,,,,
,,,,,,,5ed403a89542210ab77530b7,2023-08-16_08h46.03.200,HF_wild_card,2022.2.4,Win32,62.5,5ed403a89542210ab77530b7,64d2fd46c836a06233681665,64dc7e7a93b2ef5a07ade3c7,,,,,,,sngl,resources/Empty.png,resources/DY.BMP,Door1,0.288020833,0.04296875,1,0,0,0.863,optionRight,30,555,1,12,0,12,0,1,,,,,,,,,,,,,,,,,,,,,,,,,,,,,,,,,,,,,,,
,,,,,,,5ed403a89542210ab77530b7,2023-08-16_08h46.03.200,HF_wild_card,2022.2.4,Win32,62.5,5ed403a89542210ab77530b7,64d2fd46c836a06233681665,64dc7e7a93b2ef5a07ade3c7,,,,,,,decisionTrl,resources/DBN.BMP,resources/DY.BMP,Door1,0.203385417,-0.022135417,1,0,0,1.214,optionRight,30,585,1,13,0,13,0,1,,,,,,,,,,,,,,,,,,,,,,,,,,,,,,,,,,,,,,,
,,,,,,,5ed403a89542210ab77530b7,2023-08-16_08h46.03.200,HF_wild_card,2022.2.4,Win32,62.5,5ed403a89542210ab77530b7,64d2fd46c836a06233681665,64dc7e7a93b2ef5a07ade3c7,,,,,,,decisionTrl,resources/DG.BMP,resources/DP.BMP,WildCard_NonEx,0.245052083,-0.016927083,1,0,0,2.572,optionRight,55,640,1,14,0,14,0,1,,,,,,,,,,,,,,,,,,,,,,,,,,,,,,,,,,,,,,,
,,,,,,,5ed403a89542210ab77530b7,2023-08-16_08h46.03.200,HF_wild_card,2022.2.4,Win32,62.5,5ed403a89542210ab77530b7,64d2fd46c836a06233681665,64dc7e7a93b2ef5a07ade3c7,,,,,,,ctch,resources/DY.BMP,resources/DB.BMP,Door4,0.327083333,-0.002604167,1,0,0,1.547,optionRight,80,720,1,15,0,15,0,1,,,,,,,,,,,,,,,,,,,,,,,,,,,,,,,,,,,,,,,
,,,,,,,5ed403a89542210ab77530b7,2023-08-16_08h46.03.200,HF_wild_card,2022.2.4,Win32,62.5,5ed403a89542210ab77530b7,64d2fd46c836a06233681665,64dc7e7a93b2ef5a07ade3c7,,,,,,,decisionTrl,resources/DP.BMP,resources/DG.BMP,Door3,0.234635417,0.006510417,1,0,0,0.938,optionRight,70,790,1,16,0,16,0,1,,,,,,,,,,,,,,,,,,,,,,,,,,,,,,,,,,,,,,,
,,,,,,,5ed403a89542210ab77530b7,2023-08-16_08h46.03.200,HF_wild_card,2022.2.4,Win32,62.5,5ed403a89542210ab77530b7,64d2fd46c836a06233681665,64dc7e7a93b2ef5a07ade3c7,,,,,,,decisionTrl,resources/DBN.BMP,resources/DY.BMP,Door1,0.156510417,-0.032552083,1,0,0,2.272,optionRight,30,820,1,17,0,17,0,1,,,,,,,,,,,,,,,,,,,,,,,,,,,,,,,,,,,,,,,
,,,,,,,5ed403a89542210ab77530b7,2023-08-16_08h46.03.200,HF_wild_card,2022.2.4,Win32,62.5,5ed403a89542210ab77530b7,64d2fd46c836a06233681665,64dc7e7a93b2ef5a07ade3c7,,,,,,,decisionTrl,resources/DB.BMP,resources/DG.BMP,Door3,0.2828125,-0.022135417,1,0,0,1.739,optionRight,70,890,1,18,0,18,0,1,,,,,,,,,,,,,,,,,,,,,,,,,,,,,,,,,,,,,,,
,,,,,,,5ed403a89542210ab77530b7,2023-08-16_08h46.03.200,HF_wild_card,2022.2.4,Win32,62.5,5ed403a89542210ab77530b7,64d2fd46c836a06233681665,64dc7e7a93b2ef5a07ade3c7,,,,,,,decisionTrl,resources/DB.BMP,resources/DG.BMP,Door4,-0.262760417,-0.036458333,1,0,0,0.813,optionLeft,60,950,1,19,0,19,0,1,,,,,,,,,,,,,,,,,,,,,,,,,,,,,,,,,,,,,,,
,,,,,,,5ed403a89542210ab77530b7,2023-08-16_08h46.03.200,HF_wild_card,2022.2.4,Win32,62.5,5ed403a89542210ab77530b7,64d2fd46c836a06233681665,64dc7e7a93b2ef5a07ade3c7,,,,,,,ctch,resources/DBN.BMP,resources/DG.BMP,Door3,0.225520833,-0.009114583,1,0,0,0.765,optionRight,70,1020,1,20,0,20,0,1,,,,,,,,,,,,,,,,,,,,,,,,,,,,,,,,,,,,,,,
,,,,,,,5ed403a89542210ab77530b7,2023-08-16_08h46.03.200,HF_wild_card,2022.2.4,Win32,62.5,5ed403a89542210ab77530b7,64d2fd46c836a06233681665,64dc7e7a93b2ef5a07ade3c7,,,,,,,ctch,resources/DB.BMP,resources/DY.BMP,Door4,-0.265364583,-0.03125,1,0,0,1.565,optionLeft,60,1080,1,21,0,21,0,1,,,,,,,,,,,,,,,,,,,,,,,,,,,,,,,,,,,,,,,
,,,,,,,5ed403a89542210ab77530b7,2023-08-16_08h46.03.200,HF_wild_card,2022.2.4,Win32,62.5,5ed403a89542210ab77530b7,64d2fd46c836a06233681665,64dc7e7a93b2ef5a07ade3c7,,,,,,,sngl,resources/DP.BMP,resources/Empty.png,WildCard_NonEx,-0.269270833,-0.015625,1,0,0,0.993,optionLeft,55,1135,1,22,0,22,0,1,,,,,,,,,,,,,,,,,,,,,,,,,,,,,,,,,,,,,,,
,,,,,,,5ed403a89542210ab77530b7,2023-08-16_08h46.03.200,HF_wild_card,2022.2.4,Win32,62.5,5ed403a89542210ab77530b7,64d2fd46c836a06233681665,64dc7e7a93b2ef5a07ade3c7,,,,,,,ctch,resources/DB.BMP,resources/DY.BMP,Door4,-0.25625,-0.01171875,1,0,0,1.705,optionLeft,60,1195,1,23,0,23,0,1,,,,,,,,,,,,,,,,,,,,,,,,,,,,,,,,,,,,,,,
,,,,,,,5ed403a89542210ab77530b7,2023-08-16_08h46.03.200,HF_wild_card,2022.2.4,Win32,62.5,5ed403a89542210ab77530b7,64d2fd46c836a06233681665,64dc7e7a93b2ef5a07ade3c7,,,,,,,decisionTrl,resources/DB.BMP,resources/DG.BMP,Door3,0.30234375,-0.014322917,1,0,0,1.618,optionRight,70,1265,1,24,0,24,0,1,,,,,,,,,,,,,,,,,,,,,,,,,,,,,,,,,,,,,,,
,,,,,,,5ed403a89542210ab77530b7,2023-08-16_08h46.03.200,HF_wild_card,2022.2.4,Win32,62.5,5ed403a89542210ab77530b7,64d2fd46c836a06233681665,64dc7e7a93b2ef5a07ade3c7,,,,,,,decisionTrl,resources/DBN.BMP,resources/DY.BMP,Door1,0.273697917,0.001302083,1,0,0,3.659,optionRight,30,1295,1,25,0,25,0,1,,,,,,,,,,,,,,,,,,,,,,,,,,,,,,,,,,,,,,,
,,,,,,,5ed403a89542210ab77530b7,2023-08-16_08h46.03.200,HF_wild_card,2022.2.4,Win32,62.5,5ed403a89542210ab77530b7,64d2fd46c836a06233681665,64dc7e7a93b2ef5a07ade3c7,,,,,,,decisionTrl,resources/DY.BMP,resources/DBN.BMP,Door1,-0.214583333,-0.016927083,1,0,0,1.898,optionLeft,30,1325,1,26,0,26,0,1,,,,,,,,,,,,,,,,,,,,,,,,,,,,,,,,,,,,,,,
,,,,,,,5ed403a89542210ab77530b7,2023-08-16_08h46.03.200,HF_wild_card,2022.2.4,Win32,62.5,5ed403a89542210ab77530b7,64d2fd46c836a06233681665,64dc7e7a93b2ef5a07ade3c7,,,,,,,sngl,resources/Empty.png,resources/DG.BMP,Door3,0.276302083,-0.0234375,1,0,0,0.874,optionRight,70,1395,1,27,0,27,0,1,,,,,,,,,,,,,,,,,,,,,,,,,,,,,,,,,,,,,,,
,,,,,,,5ed403a89542210ab77530b7,2023-08-16_08h46.03.200,HF_wild_card,2022.2.4,Win32,62.5,5ed403a89542210ab77530b7,64d2fd46c836a06233681665,64dc7e7a93b2ef5a07ade3c7,,,,,,,ctch,resources/DBN.BMP,resources/DG.BMP,Door3,0.242447917,-0.036458333,1,0,0,2.847,optionRight,70,1465,1,28,0,28,0,1,,,,,,,,,,,,,,,,,,,,,,,,,,,,,,,,,,,,,,,
,,,,,,,5ed403a89542210ab77530b7,2023-08-16_08h46.03.200,HF_wild_card,2022.2.4,Win32,62.5,5ed403a89542210ab77530b7,64d2fd46c836a06233681665,64dc7e7a93b2ef5a07ade3c7,,,,,,,decisionTrl,resources/DB.BMP,resources/DP.BMP,Door4,-0.25234375,-0.006510417,1,0,0,1.387,optionLeft,80,1545,1,29,0,29,0,1,,,,,,,,,,,,,,,,,,,,,,,,,,,,,,,,,,,,,,,
,,,,,,,5ed403a89542210ab77530b7,2023-08-16_08h46.03.200,HF_wild_card,2022.2.4,Win32,62.5,5ed403a89542210ab77530b7,64d2fd46c836a06233681665,64dc7e7a93b2ef5a07ade3c7,,,,,,,sngl,resources/DB.BMP,resources/Empty.png,Door4,-0.243229167,-0.014322917,1,0,0,0.876,optionLeft,80,1625,1,30,0,30,0,1,,,,,,,,,,,,,,,,,,,,,,,,,,,,,,,,,,,,,,,
,,,,,,,5ed403a89542210ab77530b7,2023-08-16_08h46.03.200,HF_wild_card,2022.2.4,Win32,62.5,5ed403a89542210ab77530b7,64d2fd46c836a06233681665,64dc7e7a93b2ef5a07ade3c7,,,,,,,sngl,resources/Empty.png,resources/DP.BMP,WildCard_NonEx,0.289322917,0.014322917,1,0,0,1.172,optionRight,55,1680,1,31,0,31,0,1,,,,,,,,,,,,,,,,,,,,,,,,,,,,,,,,,,,,,,,
,,,,,,,5ed403a89542210ab77530b7,2023-08-16_08h46.03.200,HF_wild_card,2022.2.4,Win32,62.5,5ed403a89542210ab77530b7,64d2fd46c836a06233681665,64dc7e7a93b2ef5a07ade3c7,,,,,,,decisionTrl,resources/DP.BMP,resources/DY.BMP,WildCard_NonEx,-0.226302083,0.036458333,1,0,0,2.35,optionLeft,55,1735,1,32,0,32,0,1,,,,,,,,,,,,,,,,,,,,,,,,,,,,,,,,,,,,,,,
,,,,,,,5ed403a89542210ab77530b7,2023-08-16_08h46.03.200,HF_wild_card,2022.2.4,Win32,62.5,5ed403a89542210ab77530b7,64d2fd46c836a06233681665,64dc7e7a93b2ef5a07ade3c7,,,,,,,decisionTrl,resources/DY.BMP,resources/DP.BMP,WildCard_NonEx,0.1890625,0.00390625,1,0,0,1.208,optionRight,45,1780,1,33,0,33,0,1,,,,,,,,,,,,,,,,,,,,,,,,,,,,,,,,,,,,,,,
,,,,,,,5ed403a89542210ab77530b7,2023-08-16_08h46.03.200,HF_wild_card,2022.2.4,Win32,62.5,5ed403a89542210ab77530b7,64d2fd46c836a06233681665,64dc7e7a93b2ef5a07ade3c7,,,,,,,decisionTrl,resources/DG.BMP,resources/DB.BMP,Door3,-0.261458333,0.010416667,1,0,0,2.185,optionLeft,70,1850,1,34,0,34,0,1,,,,,,,,,,,,,,,,,,,,,,,,,,,,,,,,,,,,,,,
,,,,,,,5ed403a89542210ab77530b7,2023-08-16_08h46.03.200,HF_wild_card,2022.2.4,Win32,62.5,5ed403a89542210ab77530b7,64d2fd46c836a06233681665,64dc7e7a93b2ef5a07ade3c7,,,,,,,sngl,resources/Empty.png,resources/DBN.BMP,Door2,0.25546875,-0.013020833,1,0,0,0.852,optionRight,20,1870,1,35,0,35,0,1,,,,,,,,,,,,,,,,,,,,,,,,,,,,,,,,,,,,,,,
,,,,,,,5ed403a89542210ab77530b7,2023-08-16_08h46.03.200,HF_wild_card,2022.2.4,Win32,62.5,5ed403a89542210ab77530b7,64d2fd46c836a06233681665,64dc7e7a93b2ef5a07ade3c7,,,,,,,ctch,resources/DG.BMP,resources/DBN.BMP,Door3,-0.007552083,-0.006510417,1,0,0,0.272,optionLeft,70,1940,1,36,0,36,0,1,,,,,,,,,,,,,,,,,,,,,,,,,,,,,,,,,,,,,,,
,,,,,,,5ed403a89542210ab77530b7,2023-08-16_08h46.03.200,HF_wild_card,2022.2.4,Win32,62.5,5ed403a89542210ab77530b7,64d2fd46c836a06233681665,64dc7e7a93b2ef5a07ade3c7,,,,,,,ctch,resources/DY.BMP,resources/DB.BMP,Door4,0.25546875,-0.03515625,1,0,0,1.886,optionRight,60,2000,1,37,0,37,0,1,,,,,,,,,,,,,,,,,,,,,,,,,,,,,,,,,,,,,,,
,,,,,,,5ed403a89542210ab77530b7,2023-08-16_08h46.03.200,HF_wild_card,2022.2.4,Win32,62.5,5ed403a89542210ab77530b7,64d2fd46c836a06233681665,64dc7e7a93b2ef5a07ade3c7,,,,,,,decisionTrl,resources/DP.BMP,resources/DBN.BMP,WildCard_NonEx,-0.22890625,-0.024739583,1,0,0,2.348,optionLeft,45,2045,1,38,0,38,0,1,,,,,,,,,,,,,,,,,,,,,,,,,,,,,,,,,,,,,,,
,,,,,,,5ed403a89542210ab77530b7,2023-08-16_08h46.03.200,HF_wild_card,2022.2.4,Win32,62.5,5ed403a89542210ab77530b7,64d2fd46c836a06233681665,64dc7e7a93b2ef5a07ade3c7,,,,,,,decisionTrl,resources/DG.BMP,resources/DB.BMP,Door3,-0.269270833,0.044270833,1,0,0,2.35,optionLeft,70,2115,1,39,0,39,0,1,,,,,,,,,,,,,,,,,,,,,,,,,,,,,,,,,,,,,,,
,,,,,,,5ed403a89542210ab77530b7,2023-08-16_08h46.03.200,HF_wild_card,2022.2.4,Win32,62.5,5ed403a89542210ab77530b7,64d2fd46c836a06233681665,64dc7e7a93b2ef5a07ade3c7,,,,,,,sngl,resources/DG.BMP,resources/Empty.png,Door3,-0.238020833,-0.022135417,1,0,0,0.905,optionLeft,70,2185,1,40,0,40,0,1,,,,,,,,,,,,,,,,,,,,,,,,,,,,,,,,,,,,,,,
,,,,,,,5ed403a89542210ab77530b7,2023-08-16_08h46.03.200,HF_wild_card,2022.2.4,Win32,62.5,5ed403a89542210ab77530b7,64d2fd46c836a06233681665,64dc7e7a93b2ef5a07ade3c7,,,,,,,decisionTrl,resources/DY.BMP,resources/DBN.BMP,Door1,-0.303125,-0.048177083,1,0,0,1.242,optionLeft,30,2215,1,41,0,41,0,1,,,,,,,,,,,,,,,,,,,,,,,,,,,,,,,,,,,,,,,
,,,,,,,5ed403a89542210ab77530b7,2023-08-16_08h46.03.200,HF_wild_card,2022.2.4,Win32,62.5,5ed403a89542210ab77530b7,64d2fd46c836a06233681665,64dc7e7a93b2ef5a07ade3c7,,,,,,,decisionTrl,resources/DG.BMP,resources/DB.BMP,Door3,-0.269270833,-0.048177083,1,0,0,1.507,optionLeft,70,2285,1,42,0,42,0,1,,,,,,,,,,,,,,,,,,,,,,,,,,,,,,,,,,,,,,,
,,,,,,,5ed403a89542210ab77530b7,2023-08-16_08h46.03.200,HF_wild_card,2022.2.4,Win32,62.5,5ed403a89542210ab77530b7,64d2fd46c836a06233681665,64dc7e7a93b2ef5a07ade3c7,,,,,,,decisionTrl,resources/DP.BMP,resources/DB.BMP,WildCard_NonEx,-0.239322917,-0.013020833,1,0,0,2.784,optionLeft,45,2330,1,43,0,43,0,1,,,,,,,,,,,,,,,,,,,,,,,,,,,,,,,,,,,,,,,
,,,,,,,5ed403a89542210ab77530b7,2023-08-16_08h46.03.200,HF_wild_card,2022.2.4,Win32,62.5,5ed403a89542210ab77530b7,64d2fd46c836a06233681665,64dc7e7a93b2ef5a07ade3c7,,,,,,,,,,,,,,,,,,,,,,,,,,0,0,0,0,1,,,,,,,,,,,,,,,,,,,,,,,,,,,,,,,,,,
,,,,,,,5ed403a89542210ab77530b7,2023-08-16_08h46.03.200,HF_wild_card,2022.2.4,Win32,62.5,5ed403a89542210ab77530b7,64d2fd46c836a06233681665,64dc7e7a93b2ef5a07ade3c7,,,,,,,decisionTrl,resources/DB.BMP,resources/DP.BMP,WildCard_NonEx,0.211197917,-0.02734375,1,0,0,1.945,optionRight,55,2385,2,0,0,0,0,1,,,,,,,,,,,,,,,,,,,,,,,,,,,,,,,,,,,,,,,
,,,,,,,5ed403a89542210ab77530b7,2023-08-16_08h46.03.200,HF_wild_card,2022.2.4,Win32,62.5,5ed403a89542210ab77530b7,64d2fd46c836a06233681665,64dc7e7a93b2ef5a07ade3c7,,,,,,,sngl,resources/Empty.png,resources/DP.BMP,WildCard_NonEx,0.276302083,0.013020833,1,0,0,0.819,optionRight,55,2440,2,1,0,1,0,1,,,,,,,,,,,,,,,,,,,,,,,,,,,,,,,,,,,,,,,
,,,,,,,5ed403a89542210ab77530b7,2023-08-16_08h46.03.200,HF_wild_card,2022.2.4,Win32,62.5,5ed403a89542210ab77530b7,64d2fd46c836a06233681665,64dc7e7a93b2ef5a07ade3c7,,,,,,,decisionTrl,resources/DBN.BMP,resources/DY.BMP,Door1,0.248958333,-0.029947917,1,0,0,1.317,optionRight,30,2470,2,2,0,2,0,1,,,,,,,,,,,,,,,,,,,,,,,,,,,,,,,,,,,,,,,
,,,,,,,5ed403a89542210ab77530b7,2023-08-16_08h46.03.200,HF_wild_card,2022.2.4,Win32,62.5,5ed403a89542210ab77530b7,64d2fd46c836a06233681665,64dc7e7a93b2ef5a07ade3c7,,,,,,,decisionTrl,resources/DY.BMP,resources/DBN.BMP,Door1,-0.278385417,0.001302083,1,0,0,1.114,optionLeft,30,2500,2,3,0,3,0,1,,,,,,,,,,,,,,,,,,,,,,,,,,,,,,,,,,,,,,,
,,,,,,,5ed403a89542210ab77530b7,2023-08-16_08h46.03.200,HF_wild_card,2022.2.4,Win32,62.5,5ed403a89542210ab77530b7,64d2fd46c836a06233681665,64dc7e7a93b2ef5a07ade3c7,,,,,,,decisionTrl,resources/DY.BMP,resources/DBN.BMP,Door1,-0.234114583,0.01171875,1,0,0,1.109,optionLeft,30,2530,2,4,0,4,0,1,,,,,,,,,,,,,,,,,,,,,,,,,,,,,,,,,,,,,,,
,,,,,,,5ed403a89542210ab77530b7,2023-08-16_08h46.03.200,HF_wild_card,2022.2.4,Win32,62.5,5ed403a89542210ab77530b7,64d2fd46c836a06233681665,64dc7e7a93b2ef5a07ade3c7,,,,,,,decisionTrl,resources/DBN.BMP,resources/DY.BMP,Door1,0.237239583,0.00390625,1,0,0,0.996,optionRight,30,2560,2,5,0,5,0,1,,,,,,,,,,,,,,,,,,,,,,,,,,,,,,,,,,,,,,,
,,,,,,,5ed403a89542210ab77530b7,2023-08-16_08h46.03.200,HF_wild_card,2022.2.4,Win32,62.5,5ed403a89542210ab77530b7,64d2fd46c836a06233681665,64dc7e7a93b2ef5a07ade3c7,,,,,,,ctch,resources/DY.BMP,resources/DB.BMP,Door1,-0.179427083,-0.0078125,1,0,0,1.019,optionLeft,30,2590,2,6,0,6,0,1,,,,,,,,,,,,,,,,,,,,,,,,,,,,,,,,,,,,,,,
,,,,,,,5ed403a89542210ab77530b7,2023-08-16_08h46.03.200,HF_wild_card,2022.2.4,Win32,62.5,5ed403a89542210ab77530b7,64d2fd46c836a06233681665,64dc7e7a93b2ef5a07ade3c7,,,,,,,sngl,resources/DP.BMP,resources/Empty.png,WildCard_NonEx,-0.183333333,-0.013020833,1,0,0,1.018,optionLeft,45,2635,2,7,0,7,0,1,,,,,,,,,,,,,,,,,,,,,,,,,,,,,,,,,,,,,,,
,,,,,,,5ed403a89542210ab77530b7,2023-08-16_08h46.03.200,HF_wild_card,2022.2.4,Win32,62.5,5ed403a89542210ab77530b7,64d2fd46c836a06233681665,64dc7e7a93b2ef5a07ade3c7,,,,,,,decisionTrl,resources/DG.BMP,resources/DP.BMP,Door3,-0.22890625,-0.03515625,1,0,0,2.749,optionLeft,70,2705,2,8,0,8,0,1,,,,,,,,,,,,,,,,,,,,,,,,,,,,,,,,,,,,,,,
,,,,,,,5ed403a89542210ab77530b7,2023-08-16_08h46.03.200,HF_wild_card,2022.2.4,Win32,62.5,5ed403a89542210ab77530b7,64d2fd46c836a06233681665,64dc7e7a93b2ef5a07ade3c7,,,,,,,decisionTrl,resources/DY.BMP,resources/DBN.BMP,Door1,-0.183333333,-0.002604167,1,0,0,1.178,optionLeft,30,2735,2,9,0,9,0,1,,,,,,,,,,,,,,,,,,,,,,,,,,,,,,,,,,,,,,,
,,,,,,,5ed403a89542210ab77530b7,2023-08-16_08h46.03.200,HF_wild_card,2022.2.4,Win32,62.5,5ed403a89542210ab77530b7,64d2fd46c836a06233681665,64dc7e7a93b2ef5a07ade3c7,,,,,,,sngl,resources/Empty.png,resources/DBN.BMP,Door2,0.276302083,0.026041667,1,0,0,1.23,optionRight,40,2775,2,10,0,10,0,1,,,,,,,,,,,,,,,,,,,,,,,,,,,,,,,,,,,,,,,
,,,,,,,5ed403a89542210ab77530b7,2023-08-16_08h46.03.200,HF_wild_card,2022.2.4,Win32,62.5,5ed403a89542210ab77530b7,64d2fd46c836a06233681665,64dc7e7a93b2ef5a07ade3c7,,,,,,,decisionTrl,resources/DB.BMP,resources/DG.BMP,Door3,0.25546875,-0.002604167,1,0,0,1.828,optionRight,70,2845,2,11,0,11,0,1,,,,,,,,,,,,,,,,,,,,,,,,,,,,,,,,,,,,,,,
,,,,,,,5ed403a89542210ab77530b7,2023-08-16_08h46.03.200,HF_wild_card,2022.2.4,Win32,62.5,5ed403a89542210ab77530b7,64d2fd46c836a06233681665,64dc7e7a93b2ef5a07ade3c7,,,,,,,ctch,resources/DBN.BMP,resources/DG.BMP,Door3,0.304947917,-0.016927083,1,0,0,1.08,optionRight,70,2915,2,12,0,12,0,1,,,,,,,,,,,,,,,,,,,,,,,,,,,,,,,,,,,,,,,
,,,,,,,5ed403a89542210ab77530b7,2023-08-16_08h46.03.200,HF_wild_card,2022.2.4,Win32,62.5,5ed403a89542210ab77530b7,64d2fd46c836a06233681665,64dc7e7a93b2ef5a07ade3c7,,,,,,,decisionTrl,resources/DB.BMP,resources/DG.BMP,Door3,0.299739583,-0.014322917,1,0,0,0.865,optionRight,70,2985,2,13,0,13,0,1,,,,,,,,,,,,,,,,,,,,,,,,,,,,,,,,,,,,,,,
,,,,,,,5ed403a89542210ab77530b7,2023-08-16_08h46.03.200,HF_wild_card,2022.2.4,Win32,62.5,5ed403a89542210ab77530b7,64d2fd46c836a06233681665,64dc7e7a93b2ef5a07ade3c7,,,,,,,decisionTrl,resources/DG.BMP,resources/DB.BMP,Door3,-0.363020833,0.009114583,1,0,0,0.931,optionLeft,70,3055,2,14,0,14,0,1,,,,,,,,,,,,,,,,,,,,,,,,,,,,,,,,,,,,,,,
,,,,,,,5ed403a89542210ab77530b7,2023-08-16_08h46.03.200,HF_wild_card,2022.2.4,Win32,62.5,5ed403a89542210ab77530b7,64d2fd46c836a06233681665,64dc7e7a93b2ef5a07ade3c7,,,,,,,ctch,resources/DG.BMP,resources/DBN.BMP,Door3,-0.284895833,-0.00390625,1,0,0,0.864,optionLeft,70,3125,2,15,0,15,0,1,,,,,,,,,,,,,,,,,,,,,,,,,,,,,,,,,,,,,,,
,,,,,,,5ed403a89542210ab77530b7,2023-08-16_08h46.03.200,HF_wild_card,2022.2.4,Win32,62.5,5ed403a89542210ab77530b7,64d2fd46c836a06233681665,64dc7e7a93b2ef5a07ade3c7,,,,,,,ctch,resources/DG.BMP,resources/DBN.BMP,Door3,-0.265364583,-0.015625,1,0,0,0.927,optionLeft,70,3195,2,16,0,16,0,1,,,,,,,,,,,,,,,,,,,,,,,,,,,,,,,,,,,,,,,
,,,,,,,5ed403a89542210ab77530b7,2023-08-16_08h46.03.200,HF_wild_card,2022.2.4,Win32,62.5,5ed403a89542210ab77530b7,64d2fd46c836a06233681665,64dc7e7a93b2ef5a07ade3c7,,,,,,,decisionTrl,resources/DBN.BMP,resources/DY.BMP,Door1,0.252864583,-0.013020833,1,0,0,1.195,optionRight,30,3225,2,17,0,17,0,1,,,,,,,,,,,,,,,,,,,,,,,,,,,,,,,,,,,,,,,
,,,,,,,5ed403a89542210ab77530b7,2023-08-16_08h46.03.200,HF_wild_card,2022.2.4,Win32,62.5,5ed403a89542210ab77530b7,64d2fd46c836a06233681665,64dc7e7a93b2ef5a07ade3c7,,,,,,,ctch,resources/DB.BMP,resources/DY.BMP,Door4,-0.308333333,0.006510417,1,0,0,1.214,optionLeft,80,3305,2,18,0,18,0,1,,,,,,,,,,,,,,,,,,,,,,,,,,,,,,,,,,,,,,,
,,,,,,,5ed403a89542210ab77530b7,2023-08-16_08h46.03.200,HF_wild_card,2022.2.4,Win32,62.5,5ed403a89542210ab77530b7,64d2fd46c836a06233681665,64dc7e7a93b2ef5a07ade3c7,,,,,,,decisionTrl,resources/DB.BMP,resources/DG.BMP,Door4,-0.25625,-0.001302083,1,0,0,1.069,optionLeft,80,3385,2,19,0,19,0,1,,,,,,,,,,,,,,,,,,,,,,,,,,,,,,,,,,,,,,,
,,,,,,,5ed403a89542210ab77530b7,2023-08-16_08h46.03.200,HF_wild_card,2022.2.4,Win32,62.5,5ed403a89542210ab77530b7,64d2fd46c836a06233681665,64dc7e7a93b2ef5a07ade3c7,,,,,,,decisionTrl,resources/DBN.BMP,resources/DY.BMP,Door1,0.159114583,-0.006510417,1,0,0,0.954,optionRight,30,3415,2,20,0,20,0,1,,,,,,,,,,,,,,,,,,,,,,,,,,,,,,,,,,,,,,,
,,,,,,,5ed403a89542210ab77530b7,2023-08-16_08h46.03.200,HF_wild_card,2022.2.4,Win32,62.5,5ed403a89542210ab77530b7,64d2fd46c836a06233681665,64dc7e7a93b2ef5a07ade3c7,,,,,,,decisionTrl,resources/DP.BMP,resources/DBN.BMP,WildCard_NonEx,-0.188541667,0.0078125,1,0,0,1.8,optionLeft,55,3470,2,21,0,21,0,1,,,,,,,,,,,,,,,,,,,,,,,,,,,,,,,,,,,,,,,
,,,,,,,5ed403a89542210ab77530b7,2023-08-16_08h46.03.200,HF_wild_card,2022.2.4,Win32,62.5,5ed403a89542210ab77530b7,64d2fd46c836a06233681665,64dc7e7a93b2ef5a07ade3c7,,,,,,,sngl,resources/DB.BMP,resources/Empty.png,Door4,-0.31484375,0.006510417,1,0,0,0.778,optionLeft,60,3530,2,22,0,22,0,1,,,,,,,,,,,,,,,,,,,,,,,,,,,,,,,,,,,,,,,
,,,,,,,5ed403a89542210ab77530b7,2023-08-16_08h46.03.200,HF_wild_card,2022.2.4,Win32,62.5,5ed403a89542210ab77530b7,64d2fd46c836a06233681665,64dc7e7a93b2ef5a07ade3c7,,,,,,,sngl,resources/Empty.png,resources/DG.BMP,Door3,0.215104167,-0.015625,1,0,0,0.821,optionRight,70,3600,2,23,0,23,0,1,,,,,,,,,,,,,,,,,,,,,,,,,,,,,,,,,,,,,,,
,,,,,,,5ed403a89542210ab77530b7,2023-08-16_08h46.03.200,HF_wild_card,2022.2.4,Win32,62.5,5ed403a89542210ab77530b7,64d2fd46c836a06233681665,64dc7e7a93b2ef5a07ade3c7,,,,,,,decisionTrl,resources/DP.BMP,resources/DB.BMP,Door4,0.23203125,-0.016927083,1,0,0,1.585,optionRight,80,3680,2,24,0,24,0,1,,,,,,,,,,,,,,,,,,,,,,,,,,,,,,,,,,,,,,,
,,,,,,,5ed403a89542210ab77530b7,2023-08-16_08h46.03.200,HF_wild_card,2022.2.4,Win32,62.5,5ed403a89542210ab77530b7,64d2fd46c836a06233681665,64dc7e7a93b2ef5a07ade3c7,,,,,,,sngl,resources/DY.BMP,resources/Empty.png,Door1,-0.239322917,-0.009114583,1,0,0,0.943,optionLeft,30,3710,2,25,0,25,0,1,,,,,,,,,,,,,,,,,,,,,,,,,,,,,,,,,,,,,,,
,,,,,,,5ed403a89542210ab77530b7,2023-08-16_08h46.03.200,HF_wild_card,2022.2.4,Win32,62.5,5ed403a89542210ab77530b7,64d2fd46c836a06233681665,64dc7e7a93b2ef5a07ade3c7,,,,,,,decisionTrl,resources/DG.BMP,resources/DB.BMP,Door4,0.250260417,-0.014322917,1,0,0,2.581,optionRight,80,3790,2,26,0,26,0,1,,,,,,,,,,,,,,,,,,,,,,,,,,,,,,,,,,,,,,,
,,,,,,,5ed403a89542210ab77530b7,2023-08-16_08h46.03.200,HF_wild_card,2022.2.4,Win32,62.5,5ed403a89542210ab77530b7,64d2fd46c836a06233681665,64dc7e7a93b2ef5a07ade3c7,,,,,,,sngl,resources/DBN.BMP,resources/Empty.png,Door2,-0.198958333,-0.010416667,1,0,0,1.289,optionLeft,20,3810,2,27,0,27,0,1,,,,,,,,,,,,,,,,,,,,,,,,,,,,,,,,,,,,,,,
,,,,,,,5ed403a89542210ab77530b7,2023-08-16_08h46.03.200,HF_wild_card,2022.2.4,Win32,62.5,5ed403a89542210ab77530b7,64d2fd46c836a06233681665,64dc7e7a93b2ef5a07ade3c7,,,,,,,ctch,resources/DY.BMP,resources/DB.BMP,Door4,0.291927083,-0.006510417,1,0,0,1.18,optionRight,60,3870,2,28,0,28,0,1,,,,,,,,,,,,,,,,,,,,,,,,,,,,,,,,,,,,,,,
,,,,,,,5ed403a89542210ab77530b7,2023-08-16_08h46.03.200,HF_wild_card,2022.2.4,Win32,62.5,5ed403a89542210ab77530b7,64d2fd46c836a06233681665,64dc7e7a93b2ef5a07ade3c7,,,,,,,decisionTrl,resources/DBN.BMP,resources/DP.BMP,WildCard_NonEx,0.258072917,-0.009114583,1,0,0,1.384,optionRight,45,3915,2,29,0,29,0,1,,,,,,,,,,,,,,,,,,,,,,,,,,,,,,,,,,,,,,,
,,,,,,,5ed403a89542210ab77530b7,2023-08-16_08h46.03.200,HF_wild_card,2022.2.4,Win32,62.5,5ed403a89542210ab77530b7,64d2fd46c836a06233681665,64dc7e7a93b2ef5a07ade3c7,,,,,,,sngl,resources/DP.BMP,resources/Empty.png,WildCard_NonEx,-0.290104167,-0.0078125,1,0,0,0.855,optionLeft,55,3970,2,30,0,30,0,1,,,,,,,,,,,,,,,,,,,,,,,,,,,,,,,,,,,,,,,
,,,,,,,5ed403a89542210ab77530b7,2023-08-16_08h46.03.200,HF_wild_card,2022.2.4,Win32,62.5,5ed403a89542210ab77530b7,64d2fd46c836a06233681665,64dc7e7a93b2ef5a07ade3c7,,,,,,,decisionTrl,resources/DG.BMP,resources/DB.BMP,Door4,0.190364583,0.009114583,1,0,0,2.231,optionRight,60,4030,2,31,0,31,0,1,,,,,,,,,,,,,,,,,,,,,,,,,,,,,,,,,,,,,,,
,,,,,,,5ed403a89542210ab77530b7,2023-08-16_08h46.03.200,HF_wild_card,2022.2.4,Win32,62.5,5ed403a89542210ab77530b7,64d2fd46c836a06233681665,64dc7e7a93b2ef5a07ade3c7,,,,,,,ctch,resources/DBN.BMP,resources/DG.BMP,Door3,0.242447917,-0.00390625,1,0,0,0.816,optionRight,70,4100,2,32,0,32,0,1,,,,,,,,,,,,,,,,,,,,,,,,,,,,,,,,,,,,,,,
,,,,,,,5ed403a89542210ab77530b7,2023-08-16_08h46.03.200,HF_wild_card,2022.2.4,Win32,62.5,5ed403a89542210ab77530b7,64d2fd46c836a06233681665,64dc7e7a93b2ef5a07ade3c7,,,,,,,ctch,resources/DB.BMP,resources/DY.BMP,Door4,-0.230208333,-0.01171875,1,0,0,0.903,optionLeft,60,4160,2,33,0,33,0,1,,,,,,,,,,,,,,,,,,,,,,,,,,,,,,,,,,,,,,,
,,,,,,,5ed403a89542210ab77530b7,2023-08-16_08h46.03.200,HF_wild_card,2022.2.4,Win32,62.5,5ed403a89542210ab77530b7,64d2fd46c836a06233681665,64dc7e7a93b2ef5a07ade3c7,,,,,,,sngl,resources/Empty.png,resources/DB.BMP,Door4,0.18125,0.015625,1,0,0,0.829,optionRight,80,4240,2,34,0,34,0,1,,,,,,,,,,,,,,,,,,,,,,,,,,,,,,,,,,,,,,,
,,,,,,,5ed403a89542210ab77530b7,2023-08-16_08h46.03.200,HF_wild_card,2022.2.4,Win32,62.5,5ed403a89542210ab77530b7,64d2fd46c836a06233681665,64dc7e7a93b2ef5a07ade3c7,,,,,,,decisionTrl,resources/DP.BMP,resources/DG.BMP,Door3,0.182552083,-0.006510417,1,0,0,1.624,optionRight,70,4310,2,35,0,35,0,1,,,,,,,,,,,,,,,,,,,,,,,,,,,,,,,,,,,,,,,
,,,,,,,5ed403a89542210ab77530b7,2023-08-16_08h46.03.200,HF_wild_card,2022.2.4,Win32,62.5,5ed403a89542210ab77530b7,64d2fd46c836a06233681665,64dc7e7a93b2ef5a07ade3c7,,,,,,,sngl,resources/Empty.png,resources/DP.BMP,WildCard_NonEx,0.166927083,-0.022135417,1,0,0,1.171,optionRight,45,4355,2,36,0,36,0,1,,,,,,,,,,,,,,,,,,,,,,,,,,,,,,,,,,,,,,,
,,,,,,,5ed403a89542210ab77530b7,2023-08-16_08h46.03.200,HF_wild_card,2022.2.4,Win32,62.5,5ed403a89542210ab77530b7,64d2fd46c836a06233681665,64dc7e7a93b2ef5a07ade3c7,,,,,,,decisionTrl,resources/DB.BMP,resources/DG.BMP,Door4,-0.251041667,-0.055989583,1,0,0,1.717,optionLeft,80,4435,2,37,0,37,0,1,,,,,,,,,,,,,,,,,,,,,,,,,,,,,,,,,,,,,,,
,,,,,,,5ed403a89542210ab77530b7,2023-08-16_08h46.03.200,HF_wild_card,2022.2.4,Win32,62.5,5ed403a89542210ab77530b7,64d2fd46c836a06233681665,64dc7e7a93b2ef5a07ade3c7,,,,,,,decisionTrl,resources/DG.BMP,resources/DB.BMP,Door4,0.2125,0.006510417,1,0,0,1.635,optionRight,80,4515,2,38,0,38,0,1,,,,,,,,,,,,,,,,,,,,,,,,,,,,,,,,,,,,,,,
,,,,,,,5ed403a89542210ab77530b7,2023-08-16_08h46.03.200,HF_wild_card,2022.2.4,Win32,62.5,5ed403a89542210ab77530b7,64d2fd46c836a06233681665,64dc7e7a93b2ef5a07ade3c7,,,,,,,decisionTrl,resources/DP.BMP,resources/DY.BMP,WildCard_NonEx,-0.198958333,0.001302083,1,0,0,1.429,optionLeft,55,4570,2,39,0,39,0,1,,,,,,,,,,,,,,,,,,,,,,,,,,,,,,,,,,,,,,,
,,,,,,,5ed403a89542210ab77530b7,2023-08-16_08h46.03.200,HF_wild_card,2022.2.4,Win32,62.5,5ed403a89542210ab77530b7,64d2fd46c836a06233681665,64dc7e7a93b2ef5a07ade3c7,,,,,,,decisionTrl,resources/DY.BMP,resources/DP.BMP,WildCard_NonEx,0.222916667,0.00390625,1,0,0,1.018,optionRight,45,4615,2,40,0,40,0,1,,,,,,,,,,,,,,,,,,,,,,,,,,,,,,,,,,,,,,,
,,,,,,,5ed403a89542210ab77530b7,2023-08-16_08h46.03.200,HF_wild_card,2022.2.4,Win32,62.5,5ed403a89542210ab77530b7,64d2fd46c836a06233681665,64dc7e7a93b2ef5a07ade3c7,,,,,,,sngl,resources/Empty.png,resources/DY.BMP,Door1,0.207291667,-0.0078125,1,0,0,0.886,optionRight,30,4645,2,41,0,41,0,1,,,,,,,,,,,,,,,,,,,,,,,,,,,,,,,,,,,,,,,
,,,,,,,5ed403a89542210ab77530b7,2023-08-16_08h46.03.200,HF_wild_card,2022.2.4,Win32,62.5,5ed403a89542210ab77530b7,64d2fd46c836a06233681665,64dc7e7a93b2ef5a07ade3c7,,,,,,,decisionTrl,resources/DY.BMP,resources/DBN.BMP,Door1,-0.2640625,-0.055989583,1,0,0,1.4,optionLeft,30,4675,2,42,0,42,0,1,,,,,,,,,,,,,,,,,,,,,,,,,,,,,,,,,,,,,,,
,,,,,,,5ed403a89542210ab77530b7,2023-08-16_08h46.03.200,HF_wild_card,2022.2.4,Win32,62.5,5ed403a89542210ab77530b7,64d2fd46c836a06233681665,64dc7e7a93b2ef5a07ade3c7,,,,,,,sngl,resources/DG.BMP,resources/Empty.png,Door3,-0.25625,-0.009114583,1,0,0,0.896,optionLeft,70,4745,2,43,0,43,0,1,,,,,,,,,,,,,,,,,,,,,,,,,,,,,,,,,,,,,,,
,,,,,,,5ed403a89542210ab77530b7,2023-08-16_08h46.03.200,HF_wild_card,2022.2.4,Win32,62.5,5ed403a89542210ab77530b7,64d2fd46c836a06233681665,64dc7e7a93b2ef5a07ade3c7,,,,,,,,,,,,,,,,,,,,,,,,,,1,0,1,0,1,,,,,,,,,,,,,,,,,,,,,,,,,,,,,,,,,,
,,,,,,,5ed403a89542210ab77530b7,2023-08-16_08h46.03.200,HF_wild_card,2022.2.4,Win32,62.5,5ed403a89542210ab77530b7,64d2fd46c836a06233681665,64dc7e7a93b2ef5a07ade3c7,,,,,,,sngl,resources/DY.BMP,resources/Empty.png,Door1,-0.254947917,-0.033854167,1,0,0,0.98,optionLeft,30,4775,3,0,0,0,0,1,,,,,,,,,,,,,,,,,,,,,,,,,,,,,,,,,,,,,,,
,,,,,,,5ed403a89542210ab77530b7,2023-08-16_08h46.03.200,HF_wild_card,2022.2.4,Win32,62.5,5ed403a89542210ab77530b7,64d2fd46c836a06233681665,64dc7e7a93b2ef5a07ade3c7,,,,,,,decisionTrl,resources/DG.BMP,resources/DB.BMP,Door3,-0.270572917,-0.015625,1,0,0,1.946,optionLeft,70,4845,3,1,0,1,0,1,,,,,,,,,,,,,,,,,,,,,,,,,,,,,,,,,,,,,,,
,,,,,,,5ed403a89542210ab77530b7,2023-08-16_08h46.03.200,HF_wild_card,2022.2.4,Win32,62.5,5ed403a89542210ab77530b7,64d2fd46c836a06233681665,64dc7e7a93b2ef5a07ade3c7,,,,,,,decisionTrl,resources/DB.BMP,resources/DG.BMP,Door3,0.24765625,0.026041667,1,0,0,1.415,optionRight,70,4915,3,2,0,2,0,1,,,,,,,,,,,,,,,,,,,,,,,,,,,,,,,,,,,,,,,
,,,,,,,5ed403a89542210ab77530b7,2023-08-16_08h46.03.200,HF_wild_card,2022.2.4,Win32,62.5,5ed403a89542210ab77530b7,64d2fd46c836a06233681665,64dc7e7a93b2ef5a07ade3c7,,,,,,,decisionTrl,resources/DP.BMP,resources/DG.BMP,Door3,0.233333333,-0.033854167,1,0,0,2.114,optionRight,70,4985,3,3,0,3,0,1,,,,,,,,,,,,,,,,,,,,,,,,,,,,,,,,,,,,,,,
,,,,,,,5ed403a89542210ab77530b7,2023-08-16_08h46.03.200,HF_wild_card,2022.2.4,Win32,62.5,5ed403a89542210ab77530b7,64d2fd46c836a06233681665,64dc7e7a93b2ef5a07ade3c7,,,,,,,decisionTrl,resources/DY.BMP,resources/DBN.BMP,Door1,-0.25625,-0.026041667,1,0,0,1.111,optionLeft,30,5015,3,4,0,4,0,1,,,,,,,,,,,,,,,,,,,,,,,,,,,,,,,,,,,,,,,
,,,,,,,5ed403a89542210ab77530b7,2023-08-16_08h46.03.200,HF_wild_card,2022.2.4,Win32,62.5,5ed403a89542210ab77530b7,64d2fd46c836a06233681665,64dc7e7a93b2ef5a07ade3c7,,,,,,,decisionTrl,resources/DG.BMP,resources/DB.BMP,Door4,0.24375,0.026041667,1,0,0,2.501,optionRight,80,5095,3,5,0,5,0,1,,,,,,,,,,,,,,,,,,,,,,,,,,,,,,,,,,,,,,,
,,,,,,,5ed403a89542210ab77530b7,2023-08-16_08h46.03.200,HF_wild_card,2022.2.4,Win32,62.5,5ed403a89542210ab77530b7,64d2fd46c836a06233681665,64dc7e7a93b2ef5a07ade3c7,,,,,,,ctch,resources/DG.BMP,resources/DBN.BMP,Door3,-0.249739583,-0.006510417,1,0,0,0.861,optionLeft,70,5165,3,6,0,6,0,1,,,,,,,,,,,,,,,,,,,,,,,,,,,,,,,,,,,,,,,
,,,,,,,5ed403a89542210ab77530b7,2023-08-16_08h46.03.200,HF_wild_card,2022.2.4,Win32,62.5,5ed403a89542210ab77530b7,64d2fd46c836a06233681665,64dc7e7a93b2ef5a07ade3c7,,,,,,,decisionTrl,resources/DY.BMP,resources/DBN.BMP,Door1,-0.3421875,-0.006510417,1,0,0,0.994,optionLeft,30,5195,3,7,0,7,0,1,,,,,,,,,,,,,,,,,,,,,,,,,,,,,,,,,,,,,,,
,,,,,,,5ed403a89542210ab77530b7,2023-08-16_08h46.03.200,HF_wild_card,2022.2.4,Win32,62.5,5ed403a89542210ab77530b7,64d2fd46c836a06233681665,64dc7e7a93b2ef5a07ade3c7,,,,,,,decisionTrl,resources/DG.BMP,resources/DB.BMP,Door4,0.334895833,-0.037760417,1,0,0,1.535,optionRight,80,5275,3,8,0,8,0,1,,,,,,,,,,,,,,,,,,,,,,,,,,,,,,,,,,,,,,,
,,,,,,,5ed403a89542210ab77530b7,2023-08-16_08h46.03.200,HF_wild_card,2022.2.4,Win32,62.5,5ed403a89542210ab77530b7,64d2fd46c836a06233681665,64dc7e7a93b2ef5a07ade3c7,,,,,,,decisionTrl,resources/DBN.BMP,resources/DP.BMP,WildCard_NonEx,0.131770833,-0.013020833,1,0,0,1.898,optionRight,55,5330,3,9,0,9,0,1,,,,,,,,,,,,,,,,,,,,,,,,,,,,,,,,,,,,,,,
,,,,,,,5ed403a89542210ab77530b7,2023-08-16_08h46.03.200,HF_wild_card,2022.2.4,Win32,62.5,5ed403a89542210ab77530b7,64d2fd46c836a06233681665,64dc7e7a93b2ef5a07ade3c7,,,,,,,decisionTrl,resources/DBN.BMP,resources/DY.BMP,Door1,0.35703125,0.015625,1,0,0,1.153,optionRight,30,5360,3,10,0,10,0,1,,,,,,,,,,,,,,,,,,,,,,,,,,,,,,,,,,,,,,,
,,,,,,,5ed403a89542210ab77530b7,2023-08-16_08h46.03.200,HF_wild_card,2022.2.4,Win32,62.5,5ed403a89542210ab77530b7,64d2fd46c836a06233681665,64dc7e7a93b2ef5a07ade3c7,,,,,,,ctch,resources/DG.BMP,resources/DBN.BMP,Door3,-0.382552083,-0.044270833,1,0,0,1.148,optionLeft,70,5430,3,11,0,11,0,1,,,,,,,,,,,,,,,,,,,,,,,,,,,,,,,,,,,,,,,
,,,,,,,5ed403a89542210ab77530b7,2023-08-16_08h46.03.200,HF_wild_card,2022.2.4,Win32,62.5,5ed403a89542210ab77530b7,64d2fd46c836a06233681665,64dc7e7a93b2ef5a07ade3c7,,,,,,,decisionTrl,resources/DY.BMP,resources/DBN.BMP,Door1,-0.396875,0.013020833,1,0,0,1.481,optionLeft,30,5460,3,12,0,12,0,1,,,,,,,,,,,,,,,,,,,,,,,,,,,,,,,,,,,,,,,
,,,,,,,5ed403a89542210ab77530b7,2023-08-16_08h46.03.200,HF_wild_card,2022.2.4,Win32,62.5,5ed403a89542210ab77530b7,64d2fd46c836a06233681665,64dc7e7a93b2ef5a07ade3c7,,,,,,,decisionTrl,resources/DP.BMP,resources/DBN.BMP,WildCard_NonEx,-0.335677083,0.022135417,1,0,0,1.6,optionLeft,45,5505,3,13,0,13,0,1,,,,,,,,,,,,,,,,,,,,,,,,,,,,,,,,,,,,,,,
,,,,,,,5ed403a89542210ab77530b7,2023-08-16_08h46.03.200,HF_wild_card,2022.2.4,Win32,62.5,5ed403a89542210ab77530b7,64d2fd46c836a06233681665,64dc7e7a93b2ef5a07ade3c7,,,,,,,sngl,resources/Empty.png,resources/DY.BMP,Door1,0.340104167,0.022135417,1,0,0,1.137,optionRight,30,5535,3,14,0,14,0,1,,,,,,,,,,,,,,,,,,,,,,,,,,,,,,,,,,,,,,,
,,,,,,,5ed403a89542210ab77530b7,2023-08-16_08h46.03.200,HF_wild_card,2022.2.4,Win32,62.5,5ed403a89542210ab77530b7,64d2fd46c836a06233681665,64dc7e7a93b2ef5a07ade3c7,,,,,,,decisionTrl,resources/DB.BMP,resources/DP.BMP,Door4,-0.490625,0.052083333,1,0,0,1.58,optionLeft,60,5595,3,15,0,15,0,1,,,,,,,,,,,,,,,,,,,,,,,,,,,,,,,,,,,,,,,
,,,,,,,5ed403a89542210ab77530b7,2023-08-16_08h46.03.200,HF_wild_card,2022.2.4,Win32,62.5,5ed403a89542210ab77530b7,64d2fd46c836a06233681665,64dc7e7a93b2ef5a07ade3c7,,,,,,,sngl,resources/DBN.BMP,resources/Empty.png,Door2,-0.379947917,0.032552083,1,0,0,1.016,optionLeft,40,5635,3,16,0,16,0,1,,,,,,,,,,,,,,,,,,,,,,,,,,,,,,,,,,,,,,,
,,,,,,,5ed403a89542210ab77530b7,2023-08-16_08h46.03.200,HF_wild_card,2022.2.4,Win32,62.5,5ed403a89542210ab77530b7,64d2fd46c836a06233681665,64dc7e7a93b2ef5a07ade3c7,,,,,,,ctch,resources/DY.BMP,resources/DB.BMP,Door4,0.39609375,-0.00390625,1,0,0,1.106,optionRight,80,5715,3,17,0,17,0,1,,,,,,,,,,,,,,,,,,,,,,,,,,,,,,,,,,,,,,,
,,,,,,,5ed403a89542210ab77530b7,2023-08-16_08h46.03.200,HF_wild_card,2022.2.4,Win32,62.5,5ed403a89542210ab77530b7,64d2fd46c836a06233681665,64dc7e7a93b2ef5a07ade3c7,,,,,,,sngl,resources/DG.BMP,resources/Empty.png,Door3,-0.458072917,-0.005208333,1,0,0,0.931,optionLeft,70,5785,3,18,0,18,0,1,,,,,,,,,,,,,,,,,,,,,,,,,,,,,,,,,,,,,,,
,,,,,,,5ed403a89542210ab77530b7,2023-08-16_08h46.03.200,HF_wild_card,2022.2.4,Win32,62.5,5ed403a89542210ab77530b7,64d2fd46c836a06233681665,64dc7e7a93b2ef5a07ade3c7,,,,,,,sngl,resources/Empty.png,resources/DG.BMP,Door3,0.346614583,0,1,0,0,1.049,optionRight,70,5855,3,19,0,19,0,1,,,,,,,,,,,,,,,,,,,,,,,,,,,,,,,,,,,,,,,
,,,,,,,5ed403a89542210ab77530b7,2023-08-16_08h46.03.200,HF_wild_card,2022.2.4,Win32,62.5,5ed403a89542210ab77530b7,64d2fd46c836a06233681665,64dc7e7a93b2ef5a07ade3c7,,,,,,,decisionTrl,resources/DB.BMP,resources/DG.BMP,Door4,-0.437239583,0.015625,1,0,0,1.54,optionLeft,80,5935,3,20,0,20,0,1,,,,,,,,,,,,,,,,,,,,,,,,,,,,,,,,,,,,,,,
,,,,,,,5ed403a89542210ab77530b7,2023-08-16_08h46.03.200,HF_wild_card,2022.2.4,Win32,62.5,5ed403a89542210ab77530b7,64d2fd46c836a06233681665,64dc7e7a93b2ef5a07ade3c7,,,,,,,decisionTrl,resources/DBN.BMP,resources/DY.BMP,Door1,0.330989583,-0.044270833,1,0,0,1.193,optionRight,30,5965,3,21,0,21,0,1,,,,,,,,,,,,,,,,,,,,,,,,,,,,,,,,,,,,,,,
,,,,,,,5ed403a89542210ab77530b7,2023-08-16_08h46.03.200,HF_wild_card,2022.2.4,Win32,62.5,5ed403a89542210ab77530b7,64d2fd46c836a06233681665,64dc7e7a93b2ef5a07ade3c7,,,,,,,ctch,resources/DY.BMP,resources/DB.BMP,Door4,0.205989583,-0.010416667,1,0,0,0.895,optionRight,60,6025,3,22,0,22,0,1,,,,,,,,,,,,,,,,,,,,,,,,,,,,,,,,,,,,,,,
,,,,,,,5ed403a89542210ab77530b7,2023-08-16_08h46.03.200,HF_wild_card,2022.2.4,Win32,62.5,5ed403a89542210ab77530b7,64d2fd46c836a06233681665,64dc7e7a93b2ef5a07ade3c7,,,,,,,sngl,resources/Empty.png,resources/DP.BMP,WildCard_NonEx,0.34140625,-0.044270833,1,0,0,0.876,optionRight,45,6070,3,23,0,23,0,1,,,,,,,,,,,,,,,,,,,,,,,,,,,,,,,,,,,,,,,
,,,,,,,5ed403a89542210ab77530b7,2023-08-16_08h46.03.200,HF_wild_card,2022.2.4,Win32,62.5,5ed403a89542210ab77530b7,64d2fd46c836a06233681665,64dc7e7a93b2ef5a07ade3c7,,,,,,,decisionTrl,resources/DB.BMP,resources/DG.BMP,Door4,-0.317447917,0.032552083,1,0,0,1.331,optionLeft,60,6130,3,24,0,24,0,1,,,,,,,,,,,,,,,,,,,,,,,,,,,,,,,,,,,,,,,
,,,,,,,5ed403a89542210ab77530b7,2023-08-16_08h46.03.200,HF_wild_card,2022.2.4,Win32,62.5,5ed403a89542210ab77530b7,64d2fd46c836a06233681665,64dc7e7a93b2ef5a07ade3c7,,,,,,,sngl,resources/DP.BMP,resources/Empty.png,WildCard_NonEx,-0.355208333,-0.046875,1,0,0,0.932,optionLeft,45,6175,3,25,0,25,0,1,,,,,,,,,,,,,,,,,,,,,,,,,,,,,,,,,,,,,,,
,,,,,,,5ed403a89542210ab77530b7,2023-08-16_08h46.03.200,HF_wild_card,2022.2.4,Win32,62.5,5ed403a89542210ab77530b7,64d2fd46c836a06233681665,64dc7e7a93b2ef5a07ade3c7,,,,,,,decisionTrl,resources/DBN.BMP,resources/DY.BMP,Door1,0.183854167,-0.028645833,1,0,0,1.425,optionRight,30,6205,3,26,0,26,0,1,,,,,,,,,,,,,,,,,,,,,,,,,,,,,,,,,,,,,,,
,,,,,,,5ed403a89542210ab77530b7,2023-08-16_08h46.03.200,HF_wild_card,2022.2.4,Win32,62.5,5ed403a89542210ab77530b7,64d2fd46c836a06233681665,64dc7e7a93b2ef5a07ade3c7,,,,,,,decisionTrl,resources/DG.BMP,resources/DB.BMP,Door4,0.276302083,-0.044270833,1,0,0,0.947,optionRight,60,6265,3,27,0,27,0,1,,,,,,,,,,,,,,,,,,,,,,,,,,,,,,,,,,,,,,,
,,,,,,,5ed403a89542210ab77530b7,2023-08-16_08h46.03.200,HF_wild_card,2022.2.4,Win32,62.5,5ed403a89542210ab77530b7,64d2fd46c836a06233681665,64dc7e7a93b2ef5a07ade3c7,,,,,,,decisionTrl,resources/DP.BMP,resources/DY.BMP,WildCard_NonEx,-0.249739583,0.018229167,1,0,0,1.92,optionLeft,55,6320,3,28,0,28,0,1,,,,,,,,,,,,,,,,,,,,,,,,,,,,,,,,,,,,,,,
,,,,,,,5ed403a89542210ab77530b7,2023-08-16_08h46.03.200,HF_wild_card,2022.2.4,Win32,62.5,5ed403a89542210ab77530b7,64d2fd46c836a06233681665,64dc7e7a93b2ef5a07ade3c7,,,,,,,sngl,resources/DB.BMP,resources/Empty.png,Door4,-0.301822917,0.00390625,1,0,0,0.81,optionLeft,80,6400,3,29,0,29,0,1,,,,,,,,,,,,,,,,,,,,,,,,,,,,,,,,,,,,,,,
,,,,,,,5ed403a89542210ab77530b7,2023-08-16_08h46.03.200,HF_wild_card,2022.2.4,Win32,62.5,5ed403a89542210ab77530b7,64d2fd46c836a06233681665,64dc7e7a93b2ef5a07ade3c7,,,,,,,ctch,resources/DB.BMP,resources/DY.BMP,Door4,-0.28359375,-0.03125,1,0,0,1.115,optionLeft,80,6480,3,30,0,30,0,1,,,,,,,,,,,,,,,,,,,,,,,,,,,,,,,,,,,,,,,
,,,,,,,5ed403a89542210ab77530b7,2023-08-16_08h46.03.200,HF_wild_card,2022.2.4,Win32,62.5,5ed403a89542210ab77530b7,64d2fd46c836a06233681665,64dc7e7a93b2ef5a07ade3c7,,,,,,,ctch,resources/DBN.BMP,resources/DG.BMP,Door3,0.332291667,-0.028645833,1,0,0,1.166,optionRight,70,6550,3,31,0,31,0,1,,,,,,,,,,,,,,,,,,,,,,,,,,,,,,,,,,,,,,,
,,,,,,,5ed403a89542210ab77530b7,2023-08-16_08h46.03.200,HF_wild_card,2022.2.4,Win32,62.5,5ed403a89542210ab77530b7,64d2fd46c836a06233681665,64dc7e7a93b2ef5a07ade3c7,,,,,,,decisionTrl,resources/DG.BMP,resources/DP.BMP,Door3,-0.296614583,-0.037760417,1,0,0,1.39,optionLeft,70,6620,3,32,0,32,0,1,,,,,,,,,,,,,,,,,,,,,,,,,,,,,,,,,,,,,,,
,,,,,,,5ed403a89542210ab77530b7,2023-08-16_08h46.03.200,HF_wild_card,2022.2.4,Win32,62.5,5ed403a89542210ab77530b7,64d2fd46c836a06233681665,64dc7e7a93b2ef5a07ade3c7,,,,,,,ctch,resources/DB.BMP,resources/DY.BMP,Door4,-0.340885417,0.015625,1,0,0,0.975,optionLeft,60,6680,3,33,0,33,0,1,,,,,,,,,,,,,,,,,,,,,,,,,,,,,,,,,,,,,,,
,,,,,,,5ed403a89542210ab77530b7,2023-08-16_08h46.03.200,HF_wild_card,2022.2.4,Win32,62.5,5ed403a89542210ab77530b7,64d2fd46c836a06233681665,64dc7e7a93b2ef5a07ade3c7,,,,,,,ctch,resources/DBN.BMP,resources/DG.BMP,Door3,0.370052083,0.006510417,1,0,0,0.947,optionRight,70,6750,3,34,0,34,0,1,,,,,,,,,,,,,,,,,,,,,,,,,,,,,,,,,,,,,,,
,,,,,,,5ed403a89542210ab77530b7,2023-08-16_08h46.03.200,HF_wild_card,2022.2.4,Win32,62.5,5ed403a89542210ab77530b7,64d2fd46c836a06233681665,64dc7e7a93b2ef5a07ade3c7,,,,,,,sngl,resources/DP.BMP,resources/Empty.png,WildCard_NonEx,-0.422916667,-0.061197917,1,0,0,0.777,optionLeft,55,6805,3,35,0,35,0,1,,,,,,,,,,,,,,,,,,,,,,,,,,,,,,,,,,,,,,,
,,,,,,,5ed403a89542210ab77530b7,2023-08-16_08h46.03.200,HF_wild_card,2022.2.4,Win32,62.5,5ed403a89542210ab77530b7,64d2fd46c836a06233681665,64dc7e7a93b2ef5a07ade3c7,,,,,,,sngl,resources/Empty.png,resources/DP.BMP,WildCard_NonEx,0.225520833,-0.006510417,1,0,0,0.946,optionRight,55,6860,3,36,0,36,0,1,,,,,,,,,,,,,,,,,,,,,,,,,,,,,,,,,,,,,,,
,,,,,,,5ed403a89542210ab77530b7,2023-08-16_08h46.03.200,HF_wild_card,2022.2.4,Win32,62.5,5ed403a89542210ab77530b7,64d2fd46c836a06233681665,64dc7e7a93b2ef5a07ade3c7,,,,,,,sngl,resources/Empty.png,resources/DB.BMP,Door4,0.2984375,-0.005208333,1,0,0,1.029,optionRight,60,6920,3,37,0,37,0,1,,,,,,,,,,,,,,,,,,,,,,,,,,,,,,,,,,,,,,,
,,,,,,,5ed403a89542210ab77530b7,2023-08-16_08h46.03.200,HF_wild_card,2022.2.4,Win32,62.5,5ed403a89542210ab77530b7,64d2fd46c836a06233681665,64dc7e7a93b2ef5a07ade3c7,,,,,,,sngl,resources/Empty.png,resources/DBN.BMP,Door2,0.34140625,-0.03515625,1,0,0,5.414,optionRight,20,6940,3,38,0,38,0,1,,,,,,,,,,,,,,,,,,,,,,,,,,,,,,,,,,,,,,,
,,,,,,,5ed403a89542210ab77530b7,2023-08-16_08h46.03.200,HF_wild_card,2022.2.4,Win32,62.5,5ed403a89542210ab77530b7,64d2fd46c836a06233681665,64dc7e7a93b2ef5a07ade3c7,,,,,,,decisionTrl,resources/DY.BMP,resources/DBN.BMP,Door1,-0.23671875,0.020833333,1,0,0,1.467,optionLeft,30,6970,3,39,0,39,0,1,,,,,,,,,,,,,,,,,,,,,,,,,,,,,,,,,,,,,,,
,,,,,,,5ed403a89542210ab77530b7,2023-08-16_08h46.03.200,HF_wild_card,2022.2.4,Win32,62.5,5ed403a89542210ab77530b7,64d2fd46c836a06233681665,64dc7e7a93b2ef5a07ade3c7,,,,,,,decisionTrl,resources/DB.BMP,resources/DG.BMP,Door4,-0.363020833,0,1,0,0,1.58,optionLeft,60,7030,3,40,0,40,0,1,,,,,,,,,,,,,,,,,,,,,,,,,,,,,,,,,,,,,,,
,,,,,,,5ed403a89542210ab77530b7,2023-08-16_08h46.03.200,HF_wild_card,2022.2.4,Win32,62.5,5ed403a89542210ab77530b7,64d2fd46c836a06233681665,64dc7e7a93b2ef5a07ade3c7,,,,,,,decisionTrl,resources/DY.BMP,resources/DP.BMP,WildCard_NonEx,0.299739583,-0.033854167,1,0,0,3.281,optionRight,55,7085,3,41,0,41,0,1,,,,,,,,,,,,,,,,,,,,,,,,,,,,,,,,,,,,,,,
,,,,,,,5ed403a89542210ab77530b7,2023-08-16_08h46.03.200,HF_wild_card,2022.2.4,Win32,62.5,5ed403a89542210ab77530b7,64d2fd46c836a06233681665,64dc7e7a93b2ef5a07ade3c7,,,,,,,decisionTrl,resources/DP.BMP,resources/DB.BMP,Door4,0.2125,0.053385417,1,0,0,1.638,optionRight,60,7145,3,42,0,42,0,1,,,,,,,,,,,,,,,,,,,,,,,,,,,,,,,,,,,,,,,
,,,,,,,5ed403a89542210ab77530b7,2023-08-16_08h46.03.200,HF_wild_card,2022.2.4,Win32,62.5,5ed403a89542210ab77530b7,64d2fd46c836a06233681665,64dc7e7a93b2ef5a07ade3c7,,,,,,,decisionTrl,resources/DBN.BMP,resources/DY.BMP,Door1,0.30234375,0.029947917,1,0,0,1.251,optionRight,30,7175,3,43,0,43,0,1,,,,,,,,,,,,,,,,,,,,,,,,,,,,,,,,,,,,,,,
,,,,,,,5ed403a89542210ab77530b7,2023-08-16_08h46.03.200,HF_wild_card,2022.2.4,Win32,62.5,5ed403a89542210ab77530b7,64d2fd46c836a06233681665,64dc7e7a93b2ef5a07ade3c7,,,,,,,,,,,,,,,,,,,,,,,,,,2,0,2,0,1,,,,,,,,,,,,,,,,,,,,,,,,,,,,,,,,,,
,,,,,,,5ed403a89542210ab77530b7,2023-08-16_08h46.03.200,HF_wild_card,2022.2.4,Win32,62.5,5ed403a89542210ab77530b7,64d2fd46c836a06233681665,64dc7e7a93b2ef5a07ade3c7,,,,,,,ctch,resources/DBN.BMP,resources/DG.BMP,Door3,0.418229167,-0.135416667,1,0,0,1.542,optionRight,70,7245,4,0,0,0,0,1,,,,,,,,,,,,,,,,,,,,,,,,,,,,,,,,,,,,,,,
,,,,,,,5ed403a89542210ab77530b7,2023-08-16_08h46.03.200,HF_wild_card,2022.2.4,Win32,62.5,5ed403a89542210ab77530b7,64d2fd46c836a06233681665,64dc7e7a93b2ef5a07ade3c7,,,,,,,sngl,resources/Empty.png,resources/DY.BMP,Door1,0.34140625,0.01171875,1,0,0,0.895,optionRight,30,7275,4,1,0,1,0,1,,,,,,,,,,,,,,,,,,,,,,,,,,,,,,,,,,,,,,,
,,,,,,,5ed403a89542210ab77530b7,2023-08-16_08h46.03.200,HF_wild_card,2022.2.4,Win32,62.5,5ed403a89542210ab77530b7,64d2fd46c836a06233681665,64dc7e7a93b2ef5a07ade3c7,,,,,,,decisionTrl,resources/DR.BMP,resources/DBN.BMP,WildCard_Ex,-0.387760417,-0.013020833,1,0,0,1.71,optionLeft,55,7330,4,2,0,2,0,1,,,,,,,,,,,,,,,,,,,,,,,,,,,,,,,,,,,,,,,
,,,,,,,5ed403a89542210ab77530b7,2023-08-16_08h46.03.200,HF_wild_card,2022.2.4,Win32,62.5,5ed403a89542210ab77530b7,64d2fd46c836a06233681665,64dc7e7a93b2ef5a07ade3c7,,,,,,,decisionTrl,resources/DG.BMP,resources/DR.BMP,Door3,-0.356510417,-0.010416667,1,0,0,1.294,optionLeft,70,7400,4,3,0,3,0,1,,,,,,,,,,,,,,,,,,,,,,,,,,,,,,,,,,,,,,,
,,,,,,,5ed403a89542210ab77530b7,2023-08-16_08h46.03.200,HF_wild_card,2022.2.4,Win32,62.5,5ed403a89542210ab77530b7,64d2fd46c836a06233681665,64dc7e7a93b2ef5a07ade3c7,,,,,,,sngl,resources/DR.BMP,resources/Empty.png,WildCard_Ex,-0.297916667,-0.0234375,1,0,0,0.91,optionLeft,55,7455,4,4,0,4,0,1,,,,,,,,,,,,,,,,,,,,,,,,,,,,,,,,,,,,,,,
,,,,,,,5ed403a89542210ab77530b7,2023-08-16_08h46.03.200,HF_wild_card,2022.2.4,Win32,62.5,5ed403a89542210ab77530b7,64d2fd46c836a06233681665,64dc7e7a93b2ef5a07ade3c7,,,,,,,decisionTrl,resources/DG.BMP,resources/DB.BMP,Door4,0.213802083,0,1,0,0,2.228,optionRight,60,7515,4,5,0,5,0,1,,,,,,,,,,,,,,,,,,,,,,,,,,,,,,,,,,,,,,,
,,,,,,,5ed403a89542210ab77530b7,2023-08-16_08h46.03.200,HF_wild_card,2022.2.4,Win32,62.5,5ed403a89542210ab77530b7,64d2fd46c836a06233681665,64dc7e7a93b2ef5a07ade3c7,,,,,,,ctch,resources/DY.BMP,resources/DB.BMP,Door4,0.254166667,-0.001302083,1,0,0,2.093,optionRight,80,7595,4,6,0,6,0,1,,,,,,,,,,,,,,,,,,,,,,,,,,,,,,,,,,,,,,,
,,,,,,,5ed403a89542210ab77530b7,2023-08-16_08h46.03.200,HF_wild_card,2022.2.4,Win32,62.5,5ed403a89542210ab77530b7,64d2fd46c836a06233681665,64dc7e7a93b2ef5a07ade3c7,,,,,,,decisionTrl,resources/DR.BMP,resources/DG.BMP,Door3,0.35703125,-0.01171875,1,0,0,1.713,optionRight,70,7665,4,7,0,7,0,1,,,,,,,,,,,,,,,,,,,,,,,,,,,,,,,,,,,,,,,
,,,,,,,5ed403a89542210ab77530b7,2023-08-16_08h46.03.200,HF_wild_card,2022.2.4,Win32,62.5,5ed403a89542210ab77530b7,64d2fd46c836a06233681665,64dc7e7a93b2ef5a07ade3c7,,,,,,,sngl,resources/Empty.png,resources/DG.BMP,Door3,0.384375,-0.033854167,1,0,0,0.986,optionRight,70,7735,4,8,0,8,0,1,,,,,,,,,,,,,,,,,,,,,,,,,,,,,,,,,,,,,,,
,,,,,,,5ed403a89542210ab77530b7,2023-08-16_08h46.03.200,HF_wild_card,2022.2.4,Win32,62.5,5ed403a89542210ab77530b7,64d2fd46c836a06233681665,64dc7e7a93b2ef5a07ade3c7,,,,,,,decisionTrl,resources/DY.BMP,resources/DBN.BMP,Door1,-0.40859375,-0.00390625,1,0,0,1.267,optionLeft,30,7765,4,9,0,9,0,1,,,,,,,,,,,,,,,,,,,,,,,,,,,,,,,,,,,,,,,
,,,,,,,5ed403a89542210ab77530b7,2023-08-16_08h46.03.200,HF_wild_card,2022.2.4,Win32,62.5,5ed403a89542210ab77530b7,64d2fd46c836a06233681665,64dc7e7a93b2ef5a07ade3c7,,,,,,,decisionTrl,resources/DY.BMP,resources/DR.BMP,WildCard_Ex,0.355729167,0.03125,1,0,0,1.689,optionRight,55,7820,4,10,0,10,0,1,,,,,,,,,,,,,,,,,,,,,,,,,,,,,,,,,,,,,,,
,,,,,,,5ed403a89542210ab77530b7,2023-08-16_08h46.03.200,HF_wild_card,2022.2.4,Win32,62.5,5ed403a89542210ab77530b7,64d2fd46c836a06233681665,64dc7e7a93b2ef5a07ade3c7,,,,,,,decisionTrl,resources/DR.BMP,resources/DB.BMP,Door4,0.34921875,-0.002604167,1,0,0,1.285,optionRight,80,7900,4,11,0,11,0,1,,,,,,,,,,,,,,,,,,,,,,,,,,,,,,,,,,,,,,,
,,,,,,,5ed403a89542210ab77530b7,2023-08-16_08h46.03.200,HF_wild_card,2022.2.4,Win32,62.5,5ed403a89542210ab77530b7,64d2fd46c836a06233681665,64dc7e7a93b2ef5a07ade3c7,,,,,,,decisionTrl,resources/DG.BMP,resources/DB.BMP,Door4,0.29453125,0.026041667,1,0,0,1.954,optionRight,60,7960,4,12,0,12,0,1,,,,,,,,,,,,,,,,,,,,,,,,,,,,,,,,,,,,,,,
,,,,,,,5ed403a89542210ab77530b7,2023-08-16_08h46.03.200,HF_wild_card,2022.2.4,Win32,62.5,5ed403a89542210ab77530b7,64d2fd46c836a06233681665,64dc7e7a93b2ef5a07ade3c7,,,,,,,ctch,resources/DB.BMP,resources/DY.BMP,Door4,-0.386458333,-0.055989583,1,0,0,1.309,optionLeft,80,8040,4,13,0,13,0,1,,,,,,,,,,,,,,,,,,,,,,,,,,,,,,,,,,,,,,,
,,,,,,,5ed403a89542210ab77530b7,2023-08-16_08h46.03.200,HF_wild_card,2022.2.4,Win32,62.5,5ed403a89542210ab77530b7,64d2fd46c836a06233681665,64dc7e7a93b2ef5a07ade3c7,,,,,,,decisionTrl,resources/DBN.BMP,resources/DR.BMP,WildCard_Ex,0.252864583,0.014322917,1,0,0,1.797,optionRight,55,8095,4,14,0,14,0,1,,,,,,,,,,,,,,,,,,,,,,,,,,,,,,,,,,,,,,,
,,,,,,,5ed403a89542210ab77530b7,2023-08-16_08h46.03.200,HF_wild_card,2022.2.4,Win32,62.5,5ed403a89542210ab77530b7,64d2fd46c836a06233681665,64dc7e7a93b2ef5a07ade3c7,,,,,,,decisionTrl,resources/DBN.BMP,resources/DY.BMP,Door1,0.2828125,0.006510417,1,0,0,1.64,optionRight,30,8125,4,15,0,15,0,1,,,,,,,,,,,,,,,,,,,,,,,,,,,,,,,,,,,,,,,
,,,,,,,5ed403a89542210ab77530b7,2023-08-16_08h46.03.200,HF_wild_card,2022.2.4,Win32,62.5,5ed403a89542210ab77530b7,64d2fd46c836a06233681665,64dc7e7a93b2ef5a07ade3c7,,,,,,,sngl,resources/Empty.png,resources/DB.BMP,Door4,0.366145833,0.001302083,1,0,0,1.016,optionRight,80,8205,4,16,0,16,0,1,,,,,,,,,,,,,,,,,,,,,,,,,,,,,,,,,,,,,,,
,,,,,,,5ed403a89542210ab77530b7,2023-08-16_08h46.03.200,HF_wild_card,2022.2.4,Win32,62.5,5ed403a89542210ab77530b7,64d2fd46c836a06233681665,64dc7e7a93b2ef5a07ade3c7,,,,,,,ctch,resources/DG.BMP,resources/DBN.BMP,Door3,-0.308333333,0.009114583,1,0,0,3.245,optionLeft,70,8275,4,17,0,17,0,1,,,,,,,,,,,,,,,,,,,,,,,,,,,,,,,,,,,,,,,
,,,,,,,5ed403a89542210ab77530b7,2023-08-16_08h46.03.200,HF_wild_card,2022.2.4,Win32,62.5,5ed403a89542210ab77530b7,64d2fd46c836a06233681665,64dc7e7a93b2ef5a07ade3c7,,,,,,,decisionTrl,resources/DBN.BMP,resources/DY.BMP,Door1,0.252864583,-0.005208333,1,0,0,1.262,optionRight,30,8305,4,18,0,18,0,1,,,,,,,,,,,,,,,,,,,,,,,,,,,,,,,,,,,,,,,
,,,,,,,5ed403a89542210ab77530b7,2023-08-16_08h46.03.200,HF_wild_card,2022.2.4,Win32,62.5,5ed403a89542210ab77530b7,64d2fd46c836a06233681665,64dc7e7a93b2ef5a07ade3c7,,,,,,,decisionTrl,resources/DBN.BMP,resources/DY.BMP,Door1,0.405208333,0.016927083,1,0,0,1.488,optionRight,30,8335,4,19,0,19,0,1,,,,,,,,,,,,,,,,,,,,,,,,,,,,,,,,,,,,,,,
,,,,,,,5ed403a89542210ab77530b7,2023-08-16_08h46.03.200,HF_wild_card,2022.2.4,Win32,62.5,5ed403a89542210ab77530b7,64d2fd46c836a06233681665,64dc7e7a93b2ef5a07ade3c7,,,,,,,sngl,resources/DY.BMP,resources/Empty.png,Door1,-0.215885417,-0.014322917,1,0,0,0.905,optionLeft,30,8365,4,20,0,20,0,1,,,,,,,,,,,,,,,,,,,,,,,,,,,,,,,,,,,,,,,
,,,,,,,5ed403a89542210ab77530b7,2023-08-16_08h46.03.200,HF_wild_card,2022.2.4,Win32,62.5,5ed403a89542210ab77530b7,64d2fd46c836a06233681665,64dc7e7a93b2ef5a07ade3c7,,,,,,,decisionTrl,resources/DB.BMP,resources/DG.BMP,Door4,-0.303125,-0.01171875,1,0,0,2.068,optionLeft,60,8425,4,21,0,21,0,1,,,,,,,,,,,,,,,,,,,,,,,,,,,,,,,,,,,,,,,
,,,,,,,5ed403a89542210ab77530b7,2023-08-16_08h46.03.200,HF_wild_card,2022.2.4,Win32,62.5,5ed403a89542210ab77530b7,64d2fd46c836a06233681665,64dc7e7a93b2ef5a07ade3c7,,,,,,,decisionTrl,resources/DR.BMP,resources/DY.BMP,WildCard_Ex,-0.292708333,0.010416667,1,0,0,2.264,optionLeft,55,8480,4,22,0,22,0,1,,,,,,,,,,,,,,,,,,,,,,,,,,,,,,,,,,,,,,,
,,,,,,,5ed403a89542210ab77530b7,2023-08-16_08h46.03.200,HF_wild_card,2022.2.4,Win32,62.5,5ed403a89542210ab77530b7,64d2fd46c836a06233681665,64dc7e7a93b2ef5a07ade3c7,,,,,,,decisionTrl,resources/DG.BMP,resources/DB.BMP,Door4,0.241145833,0.0234375,1,0,0,1.94,optionRight,60,8540,4,23,0,23,0,1,,,,,,,,,,,,,,,,,,,,,,,,,,,,,,,,,,,,,,,
,,,,,,,5ed403a89542210ab77530b7,2023-08-16_08h46.03.200,HF_wild_card,2022.2.4,Win32,62.5,5ed403a89542210ab77530b7,64d2fd46c836a06233681665,64dc7e7a93b2ef5a07ade3c7,,,,,,,ctch,resources/DB.BMP,resources/DY.BMP,Door4,-0.31484375,-0.018229167,1,0,0,1.015,optionLeft,60,8600,4,24,0,24,0,1,,,,,,,,,,,,,,,,,,,,,,,,,,,,,,,,,,,,,,,
,,,,,,,5ed403a89542210ab77530b7,2023-08-16_08h46.03.200,HF_wild_card,2022.2.4,Win32,62.5,5ed403a89542210ab77530b7,64d2fd46c836a06233681665,64dc7e7a93b2ef5a07ade3c7,,,,,,,sngl,resources/Empty.png,resources/DR.BMP,WildCard_Ex,0.4078125,0.00390625,1,0,0,0.867,optionRight,45,8645,4,25,0,25,0,1,,,,,,,,,,,,,,,,,,,,,,,,,,,,,,,,,,,,,,,
,,,,,,,5ed403a89542210ab77530b7,2023-08-16_08h46.03.200,HF_wild_card,2022.2.4,Win32,62.5,5ed403a89542210ab77530b7,64d2fd46c836a06233681665,64dc7e7a93b2ef5a07ade3c7,,,,,,,decisionTrl,resources/DY.BMP,resources/DBN.BMP,Door1,-0.312239583,-0.018229167,1,0,0,1.297,optionLeft,30,8675,4,26,0,26,0,1,,,,,,,,,,,,,,,,,,,,,,,,,,,,,,,,,,,,,,,
,,,,,,,5ed403a89542210ab77530b7,2023-08-16_08h46.03.200,HF_wild_card,2022.2.4,Win32,62.5,5ed403a89542210ab77530b7,64d2fd46c836a06233681665,64dc7e7a93b2ef5a07ade3c7,,,,,,,sngl,resources/DB.BMP,resources/Empty.png,Door4,-0.26015625,-0.00390625,1,0,0,0.791,optionLeft,60,8735,4,27,0,27,0,1,,,,,,,,,,,,,,,,,,,,,,,,,,,,,,,,,,,,,,,
,,,,,,,5ed403a89542210ab77530b7,2023-08-16_08h46.03.200,HF_wild_card,2022.2.4,Win32,62.5,5ed403a89542210ab77530b7,64d2fd46c836a06233681665,64dc7e7a93b2ef5a07ade3c7,,,,,,,sngl,resources/Empty.png,resources/DBN.BMP,Door2,0.36875,-0.032552083,1,0,0,0.86,optionRight,40,8775,4,28,0,28,0,1,,,,,,,,,,,,,,,,,,,,,,,,,,,,,,,,,,,,,,,
,,,,,,,5ed403a89542210ab77530b7,2023-08-16_08h46.03.200,HF_wild_card,2022.2.4,Win32,62.5,5ed403a89542210ab77530b7,64d2fd46c836a06233681665,64dc7e7a93b2ef5a07ade3c7,,,,,,,decisionTrl,resources/DB.BMP,resources/DR.BMP,Door4,-0.316145833,-0.0234375,1,0,0,2.903,optionLeft,80,8855,4,29,0,29,0,1,,,,,,,,,,,,,,,,,,,,,,,,,,,,,,,,,,,,,,,
,,,,,,,5ed403a89542210ab77530b7,2023-08-16_08h46.03.200,HF_wild_card,2022.2.4,Win32,62.5,5ed403a89542210ab77530b7,64d2fd46c836a06233681665,64dc7e7a93b2ef5a07ade3c7,,,,,,,decisionTrl,resources/DBN.BMP,resources/DY.BMP,Door1,0.35703125,0.03125,1,0,0,1.023,optionRight,30,8885,4,30,0,30,0,1,,,,,,,,,,,,,,,,,,,,,,,,,,,,,,,,,,,,,,,
,,,,,,,5ed403a89542210ab77530b7,2023-08-16_08h46.03.200,HF_wild_card,2022.2.4,Win32,62.5,5ed403a89542210ab77530b7,64d2fd46c836a06233681665,64dc7e7a93b2ef5a07ade3c7,,,,,,,decisionTrl,resources/DG.BMP,resources/DB.BMP,Door4,0.196875,0.016927083,1,0,0,0.861,optionRight,80,8965,4,31,0,31,0,1,,,,,,,,,,,,,,,,,,,,,,,,,,,,,,,,,,,,,,,
,,,,,,,5ed403a89542210ab77530b7,2023-08-16_08h46.03.200,HF_wild_card,2022.2.4,Win32,62.5,5ed403a89542210ab77530b7,64d2fd46c836a06233681665,64dc7e7a93b2ef5a07ade3c7,,,,,,,ctch,resources/DBN.BMP,resources/DG.BMP,Door3,0.321875,-0.0234375,1,0,0,0.964,optionRight,70,9035,4,32,0,32,0,1,,,,,,,,,,,,,,,,,,,,,,,,,,,,,,,,,,,,,,,
,,,,,,,5ed403a89542210ab77530b7,2023-08-16_08h46.03.200,HF_wild_card,2022.2.4,Win32,62.5,5ed403a89542210ab77530b7,64d2fd46c836a06233681665,64dc7e7a93b2ef5a07ade3c7,,,,,,,ctch,resources/DG.BMP,resources/DBN.BMP,Door3,-0.413802083,-0.083333333,1,0,0,1.165,optionLeft,70,9105,4,33,0,33,0,1,,,,,,,,,,,,,,,,,,,,,,,,,,,,,,,,,,,,,,,
,,,,,,,5ed403a89542210ab77530b7,2023-08-16_08h46.03.200,HF_wild_card,2022.2.4,Win32,62.5,5ed403a89542210ab77530b7,64d2fd46c836a06233681665,64dc7e7a93b2ef5a07ade3c7,,,,,,,sngl,resources/DG.BMP,resources/Empty.png,Door3,-0.309635417,-0.045572917,1,0,0,0.857,optionLeft,70,9175,4,34,0,34,0,1,,,,,,,,,,,,,,,,,,,,,,,,,,,,,,,,,,,,,,,
,,,,,,,5ed403a89542210ab77530b7,2023-08-16_08h46.03.200,HF_wild_card,2022.2.4,Win32,62.5,5ed403a89542210ab77530b7,64d2fd46c836a06233681665,64dc7e7a93b2ef5a07ade3c7,,,,,,,sngl,resources/DBN.BMP,resources/Empty.png,Door2,-0.2953125,-0.055989583,1,0,0,0.827,optionLeft,20,9195,4,35,0,35,0,1,,,,,,,,,,,,,,,,,,,,,,,,,,,,,,,,,,,,,,,
,,,,,,,5ed403a89542210ab77530b7,2023-08-16_08h46.03.200,HF_wild_card,2022.2.4,Win32,62.5,5ed403a89542210ab77530b7,64d2fd46c836a06233681665,64dc7e7a93b2ef5a07ade3c7,,,,,,,sngl,resources/Empty.png,resources/DR.BMP,WildCard_Ex,0.384375,-0.049479167,1,0,0,0.964,optionRight,55,9250,4,36,0,36,0,1,,,,,,,,,,,,,,,,,,,,,,,,,,,,,,,,,,,,,,,
,,,,,,,5ed403a89542210ab77530b7,2023-08-16_08h46.03.200,HF_wild_card,2022.2.4,Win32,62.5,5ed403a89542210ab77530b7,64d2fd46c836a06233681665,64dc7e7a93b2ef5a07ade3c7,,,,,,,decisionTrl,resources/DB.BMP,resources/DG.BMP,Door4,-0.31875,-0.0234375,1,0,0,1.449,optionLeft,60,9310,4,37,0,37,0,1,,,,,,,,,,,,,,,,,,,,,,,,,,,,,,,,,,,,,,,
,,,,,,,5ed403a89542210ab77530b7,2023-08-16_08h46.03.200,HF_wild_card,2022.2.4,Win32,62.5,5ed403a89542210ab77530b7,64d2fd46c836a06233681665,64dc7e7a93b2ef5a07ade3c7,,,,,,,ctch,resources/DY.BMP,resources/DB.BMP,Door4,0.344010417,-0.04296875,1,0,0,0.835,optionRight,60,9370,4,38,0,38,0,1,,,,,,,,,,,,,,,,,,,,,,,,,,,,,,,,,,,,,,,
,,,,,,,5ed403a89542210ab77530b7,2023-08-16_08h46.03.200,HF_wild_card,2022.2.4,Win32,62.5,5ed403a89542210ab77530b7,64d2fd46c836a06233681665,64dc7e7a93b2ef5a07ade3c7,,,,,,,decisionTrl,resources/DY.BMP,resources/DBN.BMP,Door1,-0.286197917,-0.010416667,1,0,0,1.079,optionLeft,30,9400,4,39,0,39,0,1,,,,,,,,,,,,,,,,,,,,,,,,,,,,,,,,,,,,,,,
,,,,,,,5ed403a89542210ab77530b7,2023-08-16_08h46.03.200,HF_wild_card,2022.2.4,Win32,62.5,5ed403a89542210ab77530b7,64d2fd46c836a06233681665,64dc7e7a93b2ef5a07ade3c7,,,,,,,sngl,resources/DR.BMP,resources/Empty.png,WildCard_Ex,-0.25234375,-0.015625,1,0,0,0.868,optionLeft,45,9445,4,40,0,40,0,1,,,,,,,,,,,,,,,,,,,,,,,,,,,,,,,,,,,,,,,
,,,,,,,5ed403a89542210ab77530b7,2023-08-16_08h46.03.200,HF_wild_card,2022.2.4,Win32,62.5,5ed403a89542210ab77530b7,64d2fd46c836a06233681665,64dc7e7a93b2ef5a07ade3c7,,,,,,,decisionTrl,resources/DY.BMP,resources/DBN.BMP,Door1,-0.35390625,-0.04296875,1,0,0,1.609,optionLeft,30,9475,4,41,0,41,0,1,,,,,,,,,,,,,,,,,,,,,,,,,,,,,,,,,,,,,,,
,,,,,,,5ed403a89542210ab77530b7,2023-08-16_08h46.03.200,HF_wild_card,2022.2.4,Win32,62.5,5ed403a89542210ab77530b7,64d2fd46c836a06233681665,64dc7e7a93b2ef5a07ade3c7,,,,,,,decisionTrl,resources/DB.BMP,resources/DG.BMP,Door4,-0.01796875,0.001302083,1,0,0,1.066,optionLeft,60,9535,4,42,0,42,0,1,,,,,,,,,,,,,,,,,,,,,,,,,,,,,,,,,,,,,,,
,,,,,,,5ed403a89542210ab77530b7,2023-08-16_08h46.03.200,HF_wild_card,2022.2.4,Win32,62.5,5ed403a89542210ab77530b7,64d2fd46c836a06233681665,64dc7e7a93b2ef5a07ade3c7,,,,,,,decisionTrl,resources/DB.BMP,resources/DG.BMP,Door4,-0.3734375,-0.018229167,1,0,0,1.071,optionLeft,80,9615,4,43,0,43,0,1,,,,,,,,,,,,,,,,,,,,,,,,,,,,,,,,,,,,,,,
,,,,,,,5ed403a89542210ab77530b7,2023-08-16_08h46.03.200,HF_wild_card,2022.2.4,Win32,62.5,5ed403a89542210ab77530b7,64d2fd46c836a06233681665,64dc7e7a93b2ef5a07ade3c7,,,,,,,,,,,,,,,,,,,,,,,,,,3,0,3,0,1,,,,,,,,,,,,,,,,,,,,,,,,,,,,,,,,,,
,,,,,,,5ed403a89542210ab77530b7,2023-08-16_08h46.03.200,HF_wild_card,2022.2.4,Win32,62.5,5ed403a89542210ab77530b7,64d2fd46c836a06233681665,64dc7e7a93b2ef5a07ade3c7,,,,,,,sngl,resources/DR.BMP,resources/Empty.png,WildCard_Ex,-0.34609375,-0.0703125,1,0,0,0.879,optionLeft,45,9660,5,0,0,0,0,1,,,,,,,,,,,,,,,,,,,,,,,,,,,,,,,,,,,,,,,
,,,,,,,5ed403a89542210ab77530b7,2023-08-16_08h46.03.200,HF_wild_card,2022.2.4,Win32,62.5,5ed403a89542210ab77530b7,64d2fd46c836a06233681665,64dc7e7a93b2ef5a07ade3c7,,,,,,,decisionTrl,resources/DB.BMP,resources/DG.BMP,Door4,-0.294010417,0.013020833,1,0,0,1.043,optionLeft,60,9720,5,1,0,1,0,1,,,,,,,,,,,,,,,,,,,,,,,,,,,,,,,,,,,,,,,
,,,,,,,5ed403a89542210ab77530b7,2023-08-16_08h46.03.200,HF_wild_card,2022.2.4,Win32,62.5,5ed403a89542210ab77530b7,64d2fd46c836a06233681665,64dc7e7a93b2ef5a07ade3c7,,,,,,,decisionTrl,resources/DR.BMP,resources/DB.BMP,Door4,0.28671875,-0.03125,1,0,0,0.773,optionRight,80,9800,5,2,0,2,0,1,,,,,,,,,,,,,,,,,,,,,,,,,,,,,,,,,,,,,,,
,,,,,,,5ed403a89542210ab77530b7,2023-08-16_08h46.03.200,HF_wild_card,2022.2.4,Win32,62.5,5ed403a89542210ab77530b7,64d2fd46c836a06233681665,64dc7e7a93b2ef5a07ade3c7,,,,,,,sngl,resources/DBN.BMP,resources/Empty.png,Door2,-0.296614583,0.0234375,1,0,0,1.191,optionLeft,40,9840,5,3,0,3,0,1,,,,,,,,,,,,,,,,,,,,,,,,,,,,,,,,,,,,,,,
,,,,,,,5ed403a89542210ab77530b7,2023-08-16_08h46.03.200,HF_wild_card,2022.2.4,Win32,62.5,5ed403a89542210ab77530b7,64d2fd46c836a06233681665,64dc7e7a93b2ef5a07ade3c7,,,,,,,sngl,resources/Empty.png,resources/DR.BMP,WildCard_Ex,0.260677083,-0.01171875,1,0,0,0.807,optionRight,55,9895,5,4,0,4,0,1,,,,,,,,,,,,,,,,,,,,,,,,,,,,,,,,,,,,,,,
,,,,,,,5ed403a89542210ab77530b7,2023-08-16_08h46.03.200,HF_wild_card,2022.2.4,Win32,62.5,5ed403a89542210ab77530b7,64d2fd46c836a06233681665,64dc7e7a93b2ef5a07ade3c7,,,,,,,sngl,resources/DR.BMP,resources/Empty.png,WildCard_Ex,-0.247135417,0.001302083,1,0,0,0.706,optionLeft,55,9950,5,5,0,5,0,1,,,,,,,,,,,,,,,,,,,,,,,,,,,,,,,,,,,,,,,
,,,,,,,5ed403a89542210ab77530b7,2023-08-16_08h46.03.200,HF_wild_card,2022.2.4,Win32,62.5,5ed403a89542210ab77530b7,64d2fd46c836a06233681665,64dc7e7a93b2ef5a07ade3c7,,,,,,,decisionTrl,resources/DY.BMP,resources/DR.BMP,WildCard_Ex,0.273697917,-0.010416667,1,0,0,1.026,optionRight,45,9995,5,6,0,6,0,1,,,,,,,,,,,,,,,,,,,,,,,,,,,,,,,,,,,,,,,
,,,,,,,5ed403a89542210ab77530b7,2023-08-16_08h46.03.200,HF_wild_card,2022.2.4,Win32,62.5,5ed403a89542210ab77530b7,64d2fd46c836a06233681665,64dc7e7a93b2ef5a07ade3c7,,,,,,,decisionTrl,resources/DBN.BMP,resources/DY.BMP,Door1,0.183854167,-0.005208333,1,0,0,1.549,optionRight,30,10025,5,7,0,7,0,1,,,,,,,,,,,,,,,,,,,,,,,,,,,,,,,,,,,,,,,
,,,,,,,5ed403a89542210ab77530b7,2023-08-16_08h46.03.200,HF_wild_card,2022.2.4,Win32,62.5,5ed403a89542210ab77530b7,64d2fd46c836a06233681665,64dc7e7a93b2ef5a07ade3c7,,,,,,,sngl,resources/Empty.png,resources/DG.BMP,Door3,0.288020833,-0.00390625,1,0,0,0.89,optionRight,70,10095,5,8,0,8,0,1,,,,,,,,,,,,,,,,,,,,,,,,,,,,,,,,,,,,,,,
,,,,,,,5ed403a89542210ab77530b7,2023-08-16_08h46.03.200,HF_wild_card,2022.2.4,Win32,62.5,5ed403a89542210ab77530b7,64d2fd46c836a06233681665,64dc7e7a93b2ef5a07ade3c7,,,,,,,ctch,resources/DB.BMP,resources/DY.BMP,Door4,-0.300520833,0.005208333,1,0,0,0.929,optionLeft,60,10155,5,9,0,9,0,1,,,,,,,,,,,,,,,,,,,,,,,,,,,,,,,,,,,,,,,
,,,,,,,5ed403a89542210ab77530b7,2023-08-16_08h46.03.200,HF_wild_card,2022.2.4,Win32,62.5,5ed403a89542210ab77530b7,64d2fd46c836a06233681665,64dc7e7a93b2ef5a07ade3c7,,,,,,,decisionTrl,resources/DBN.BMP,resources/DY.BMP,Door2,-0.23671875,0.009114583,1,0,0,1.296,optionLeft,40,10195,5,10,0,10,0,1,,,,,,,,,,,,,,,,,,,,,,,,,,,,,,,,,,,,,,,
,,,,,,,5ed403a89542210ab77530b7,2023-08-16_08h46.03.200,HF_wild_card,2022.2.4,Win32,62.5,5ed403a89542210ab77530b7,64d2fd46c836a06233681665,64dc7e7a93b2ef5a07ade3c7,,,,,,,decisionTrl,resources/DB.BMP,resources/DG.BMP,Door4,-0.245833333,0.006510417,1,0,0,1.786,optionLeft,80,10275,5,11,0,11,0,1,,,,,,,,,,,,,,,,,,,,,,,,,,,,,,,,,,,,,,,
,,,,,,,5ed403a89542210ab77530b7,2023-08-16_08h46.03.200,HF_wild_card,2022.2.4,Win32,62.5,5ed403a89542210ab77530b7,64d2fd46c836a06233681665,64dc7e7a93b2ef5a07ade3c7,,,,,,,decisionTrl,resources/DR.BMP,resources/DBN.BMP,WildCard_Ex,-0.278385417,0.00390625,1,0,0,1.369,optionLeft,45,10320,5,12,0,12,0,1,,,,,,,,,,,,,,,,,,,,,,,,,,,,,,,,,,,,,,,
,,,,,,,5ed403a89542210ab77530b7,2023-08-16_08h46.03.200,HF_wild_card,2022.2.4,Win32,62.5,5ed403a89542210ab77530b7,64d2fd46c836a06233681665,64dc7e7a93b2ef5a07ade3c7,,,,,,,ctch,resources/DB.BMP,resources/DY.BMP,Door4,-0.235416667,-0.00390625,1,0,0,2.056,optionLeft,80,10400,5,13,0,13,0,1,,,,,,,,,,,,,,,,,,,,,,,,,,,,,,,,,,,,,,,
,,,,,,,5ed403a89542210ab77530b7,2023-08-16_08h46.03.200,HF_wild_card,2022.2.4,Win32,62.5,5ed403a89542210ab77530b7,64d2fd46c836a06233681665,64dc7e7a93b2ef5a07ade3c7,,,,,,,sngl,resources/Empty.png,resources/DB.BMP,Door4,0.29453125,0.00390625,1,0,0,1.084,optionRight,60,10460,5,14,0,14,0,1,,,,,,,,,,,,,,,,,,,,,,,,,,,,,,,,,,,,,,,
,,,,,,,5ed403a89542210ab77530b7,2023-08-16_08h46.03.200,HF_wild_card,2022.2.4,Win32,62.5,5ed403a89542210ab77530b7,64d2fd46c836a06233681665,64dc7e7a93b2ef5a07ade3c7,,,,,,,sngl,resources/Empty.png,resources/DY.BMP,Door1,0.51328125,0.01953125,1,0,0,1.212,optionRight,30,10490,5,15,0,15,0,1,,,,,,,,,,,,,,,,,,,,,,,,,,,,,,,,,,,,,,,
,,,,,,,5ed403a89542210ab77530b7,2023-08-16_08h46.03.200,HF_wild_card,2022.2.4,Win32,62.5,5ed403a89542210ab77530b7,64d2fd46c836a06233681665,64dc7e7a93b2ef5a07ade3c7,,,,,,,decisionTrl,resources/DB.BMP,resources/DG.BMP,Door4,-0.3890625,-0.022135417,1,0,0,1.686,optionLeft,80,10570,5,16,0,16,0,1,,,,,,,,,,,,,,,,,,,,,,,,,,,,,,,,,,,,,,,
,,,,,,,5ed403a89542210ab77530b7,2023-08-16_08h46.03.200,HF_wild_card,2022.2.4,Win32,62.5,5ed403a89542210ab77530b7,64d2fd46c836a06233681665,64dc7e7a93b2ef5a07ade3c7,,,,,,,decisionTrl,resources/DG.BMP,resources/DR.BMP,Door3,-0.37734375,-0.052083333,1,0,0,1.779,optionLeft,70,10640,5,17,0,17,0,1,,,,,,,,,,,,,,,,,,,,,,,,,,,,,,,,,,,,,,,
,,,,,,,5ed403a89542210ab77530b7,2023-08-16_08h46.03.200,HF_wild_card,2022.2.4,Win32,62.5,5ed403a89542210ab77530b7,64d2fd46c836a06233681665,64dc7e7a93b2ef5a07ade3c7,,,,,,,decisionTrl,resources/DY.BMP,resources/DBN.BMP,Door1,-0.360416667,-0.0234375,1,0,0,1.326,optionLeft,30,10670,5,18,0,18,0,1,,,,,,,,,,,,,,,,,,,,,,,,,,,,,,,,,,,,,,,
,,,,,,,5ed403a89542210ab77530b7,2023-08-16_08h46.03.200,HF_wild_card,2022.2.4,Win32,62.5,5ed403a89542210ab77530b7,64d2fd46c836a06233681665,64dc7e7a93b2ef5a07ade3c7,,,,,,,ctch,resources/DY.BMP,resources/DB.BMP,Door4,0.4,-0.001302083,1,0,0,1.647,optionRight,80,10750,5,19,0,19,0,1,,,,,,,,,,,,,,,,,,,,,,,,,,,,,,,,,,,,,,,
,,,,,,,5ed403a89542210ab77530b7,2023-08-16_08h46.03.200,HF_wild_card,2022.2.4,Win32,62.5,5ed403a89542210ab77530b7,64d2fd46c836a06233681665,64dc7e7a93b2ef5a07ade3c7,,,,,,,decisionTrl,resources/DBN.BMP,resources/DY.BMP,Door1,0.410416667,-0.037760417,1,0,0,1.481,optionRight,30,10780,5,20,0,20,0,1,,,,,,,,,,,,,,,,,,,,,,,,,,,,,,,,,,,,,,,
,,,,,,,5ed403a89542210ab77530b7,2023-08-16_08h46.03.200,HF_wild_card,2022.2.4,Win32,62.5,5ed403a89542210ab77530b7,64d2fd46c836a06233681665,64dc7e7a93b2ef5a07ade3c7,,,,,,,decisionTrl,resources/DR.BMP,resources/DG.BMP,Door3,0.445572917,0.005208333,1,0,0,1.798,optionRight,70,10850,5,21,0,21,0,1,,,,,,,,,,,,,,,,,,,,,,,,,,,,,,,,,,,,,,,
,,,,,,,5ed403a89542210ab77530b7,2023-08-16_08h46.03.200,HF_wild_card,2022.2.4,Win32,62.5,5ed403a89542210ab77530b7,64d2fd46c836a06233681665,64dc7e7a93b2ef5a07ade3c7,,,,,,,decisionTrl,resources/DB.BMP,resources/DG.BMP,Door4,-0.430729167,-0.014322917,1,0,0,3.43,optionLeft,80,10930,5,22,0,22,0,1,,,,,,,,,,,,,,,,,,,,,,,,,,,,,,,,,,,,,,,
,,,,,,,5ed403a89542210ab77530b7,2023-08-16_08h46.03.200,HF_wild_card,2022.2.4,Win32,62.5,5ed403a89542210ab77530b7,64d2fd46c836a06233681665,64dc7e7a93b2ef5a07ade3c7,,,,,,,sngl,resources/DB.BMP,resources/Empty.png,Door4,-0.261458333,-0.055989583,1,0,0,0.901,optionLeft,80,11010,5,23,0,23,0,1,,,,,,,,,,,,,,,,,,,,,,,,,,,,,,,,,,,,,,,
,,,,,,,5ed403a89542210ab77530b7,2023-08-16_08h46.03.200,HF_wild_card,2022.2.4,Win32,62.5,5ed403a89542210ab77530b7,64d2fd46c836a06233681665,64dc7e7a93b2ef5a07ade3c7,,,,,,,sngl,resources/Empty.png,resources/DR.BMP,WildCard_Ex,0.315364583,0.014322917,1,0,0,0.939,optionRight,45,11055,5,24,0,24,0,1,,,,,,,,,,,,,,,,,,,,,,,,,,,,,,,,,,,,,,,
,,,,,,,5ed403a89542210ab77530b7,2023-08-16_08h46.03.200,HF_wild_card,2022.2.4,Win32,62.5,5ed403a89542210ab77530b7,64d2fd46c836a06233681665,64dc7e7a93b2ef5a07ade3c7,,,,,,,decisionTrl,resources/DG.BMP,resources/DB.BMP,Door4,0.390885417,0.059895833,1,0,0,2.418,optionRight,60,11115,5,25,0,25,0,1,,,,,,,,,,,,,,,,,,,,,,,,,,,,,,,,,,,,,,,
,,,,,,,5ed403a89542210ab77530b7,2023-08-16_08h46.03.200,HF_wild_card,2022.2.4,Win32,62.5,5ed403a89542210ab77530b7,64d2fd46c836a06233681665,64dc7e7a93b2ef5a07ade3c7,,,,,,,ctch,resources/DBN.BMP,resources/DG.BMP,Door3,0.328385417,0.018229167,1,0,0,1.181,optionRight,70,11185,5,26,0,26,0,1,,,,,,,,,,,,,,,,,,,,,,,,,,,,,,,,,,,,,,,
,,,,,,,5ed403a89542210ab77530b7,2023-08-16_08h46.03.200,HF_wild_card,2022.2.4,Win32,62.5,5ed403a89542210ab77530b7,64d2fd46c836a06233681665,64dc7e7a93b2ef5a07ade3c7,,,,,,,decisionTrl,resources/DY.BMP,resources/DBN.BMP,Door1,-0.265364583,0.0703125,1,0,0,1.162,optionLeft,30,11215,5,27,0,27,0,1,,,,,,,,,,,,,,,,,,,,,,,,,,,,,,,,,,,,,,,
,,,,,,,5ed403a89542210ab77530b7,2023-08-16_08h46.03.200,HF_wild_card,2022.2.4,Win32,62.5,5ed403a89542210ab77530b7,64d2fd46c836a06233681665,64dc7e7a93b2ef5a07ade3c7,,,,,,,decisionTrl,resources/DY.BMP,resources/DBN.BMP,Door2,0.36875,-0.05078125,1,0,0,1.475,optionRight,20,11235,5,28,0,28,0,1,,,,,,,,,,,,,,,,,,,,,,,,,,,,,,,,,,,,,,,
,,,,,,,5ed403a89542210ab77530b7,2023-08-16_08h46.03.200,HF_wild_card,2022.2.4,Win32,62.5,5ed403a89542210ab77530b7,64d2fd46c836a06233681665,64dc7e7a93b2ef5a07ade3c7,,,,,,,decisionTrl,resources/DB.BMP,resources/DR.BMP,Door4,-0.2953125,-0.024739583,1,0,0,1.28,optionLeft,80,11315,5,29,0,29,0,1,,,,,,,,,,,,,,,,,,,,,,,,,,,,,,,,,,,,,,,
,,,,,,,5ed403a89542210ab77530b7,2023-08-16_08h46.03.200,HF_wild_card,2022.2.4,Win32,62.5,5ed403a89542210ab77530b7,64d2fd46c836a06233681665,64dc7e7a93b2ef5a07ade3c7,,,,,,,sngl,resources/DG.BMP,resources/Empty.png,Door3,-0.266666667,-0.006510417,1,0,0,0.907,optionLeft,70,11385,5,30,0,30,0,1,,,,,,,,,,,,,,,,,,,,,,,,,,,,,,,,,,,,,,,
,,,,,,,5ed403a89542210ab77530b7,2023-08-16_08h46.03.200,HF_wild_card,2022.2.4,Win32,62.5,5ed403a89542210ab77530b7,64d2fd46c836a06233681665,64dc7e7a93b2ef5a07ade3c7,,,,,,,decisionTrl,resources/DR.BMP,resources/DY.BMP,WildCard_Ex,-0.31484375,-0.026041667,1,0,0,1.814,optionLeft,45,11430,5,31,0,31,0,1,,,,,,,,,,,,,,,,,,,,,,,,,,,,,,,,,,,,,,,
,,,,,,,5ed403a89542210ab77530b7,2023-08-16_08h46.03.200,HF_wild_card,2022.2.4,Win32,62.5,5ed403a89542210ab77530b7,64d2fd46c836a06233681665,64dc7e7a93b2ef5a07ade3c7,,,,,,,decisionTrl,resources/DY.BMP,resources/DBN.BMP,Door1,-0.461979167,0.01953125,1,0,0,1.16,optionLeft,30,11460,5,32,0,32,0,1,,,,,,,,,,,,,,,,,,,,,,,,,,,,,,,,,,,,,,,
,,,,,,,5ed403a89542210ab77530b7,2023-08-16_08h46.03.200,HF_wild_card,2022.2.4,Win32,62.5,5ed403a89542210ab77530b7,64d2fd46c836a06233681665,64dc7e7a93b2ef5a07ade3c7,,,,,,,decisionTrl,resources/DG.BMP,resources/DB.BMP,Door4,0.215104167,0.040364583,1,0,0,1.481,optionRight,60,11520,5,33,0,33,0,1,,,,,,,,,,,,,,,,,,,,,,,,,,,,,,,,,,,,,,,
,,,,,,,5ed403a89542210ab77530b7,2023-08-16_08h46.03.200,HF_wild_card,2022.2.4,Win32,62.5,5ed403a89542210ab77530b7,64d2fd46c836a06233681665,64dc7e7a93b2ef5a07ade3c7,,,,,,,ctch,resources/DG.BMP,resources/DBN.BMP,Door3,-0.286197917,0.00390625,1,0,0,1.658,optionLeft,70,11590,5,34,0,34,0,1,,,,,,,,,,,,,,,,,,,,,,,,,,,,,,,,,,,,,,,
,,,,,,,5ed403a89542210ab77530b7,2023-08-16_08h46.03.200,HF_wild_card,2022.2.4,Win32,62.5,5ed403a89542210ab77530b7,64d2fd46c836a06233681665,64dc7e7a93b2ef5a07ade3c7,,,,,,,ctch,resources/DY.BMP,resources/DB.BMP,Door4,0.394791667,-0.0078125,1,0,0,1.342,optionRight,80,11670,5,35,0,35,0,1,,,,,,,,,,,,,,,,,,,,,,,,,,,,,,,,,,,,,,,
,,,,,,,5ed403a89542210ab77530b7,2023-08-16_08h46.03.200,HF_wild_card,2022.2.4,Win32,62.5,5ed403a89542210ab77530b7,64d2fd46c836a06233681665,64dc7e7a93b2ef5a07ade3c7,,,,,,,decisionTrl,resources/DBN.BMP,resources/DR.BMP,WildCard_Ex,0.354427083,0.01171875,1,0,0,1.779,optionRight,55,11725,5,36,0,36,0,1,,,,,,,,,,,,,,,,,,,,,,,,,,,,,,,,,,,,,,,
,,,,,,,5ed403a89542210ab77530b7,2023-08-16_08h46.03.200,HF_wild_card,2022.2.4,Win32,62.5,5ed403a89542210ab77530b7,64d2fd46c836a06233681665,64dc7e7a93b2ef5a07ade3c7,,,,,,,ctch,resources/DBN.BMP,resources/DG.BMP,Door3,0.330989583,0.0859375,1,0,0,1.027,optionRight,70,11795,5,37,0,37,0,1,,,,,,,,,,,,,,,,,,,,,,,,,,,,,,,,,,,,,,,
,,,,,,,5ed403a89542210ab77530b7,2023-08-16_08h46.03.200,HF_wild_card,2022.2.4,Win32,62.5,5ed403a89542210ab77530b7,64d2fd46c836a06233681665,64dc7e7a93b2ef5a07ade3c7,,,,,,,sngl,resources/Empty.png,resources/DBN.BMP,Door2,0.336197917,0.024739583,1,0,0,1.03,optionRight,20,11815,5,38,0,38,0,1,,,,,,,,,,,,,,,,,,,,,,,,,,,,,,,,,,,,,,,
,,,,,,,5ed403a89542210ab77530b7,2023-08-16_08h46.03.200,HF_wild_card,2022.2.4,Win32,62.5,5ed403a89542210ab77530b7,64d2fd46c836a06233681665,64dc7e7a93b2ef5a07ade3c7,,,,,,,decisionTrl,resources/DG.BMP,resources/DB.BMP,Door4,0.291927083,-0.01171875,1,0,0,1.591,optionRight,60,11875,5,39,0,39,0,1,,,,,,,,,,,,,,,,,,,,,,,,,,,,,,,,,,,,,,,
,,,,,,,5ed403a89542210ab77530b7,2023-08-16_08h46.03.200,HF_wild_card,2022.2.4,Win32,62.5,5ed403a89542210ab77530b7,64d2fd46c836a06233681665,64dc7e7a93b2ef5a07ade3c7,,,,,,,decisionTrl,resources/DG.BMP,resources/DB.BMP,Door4,0.315364583,0.048177083,1,0,0,0.791,optionRight,80,11955,5,40,0,40,0,1,,,,,,,,,,,,,,,,,,,,,,,,,,,,,,,,,,,,,,,
,,,,,,,5ed403a89542210ab77530b7,2023-08-16_08h46.03.200,HF_wild_card,2022.2.4,Win32,62.5,5ed403a89542210ab77530b7,64d2fd46c836a06233681665,64dc7e7a93b2ef5a07ade3c7,,,,,,,ctch,resources/DG.BMP,resources/DBN.BMP,Door3,-0.43984375,-0.0390625,1,0,0,1.609,optionLeft,70,12025,5,41,0,41,0,1,,,,,,,,,,,,,,,,,,,,,,,,,,,,,,,,,,,,,,,
,,,,,,,5ed403a89542210ab77530b7,2023-08-16_08h46.03.200,HF_wild_card,2022.2.4,Win32,62.5,5ed403a89542210ab77530b7,64d2fd46c836a06233681665,64dc7e7a93b2ef5a07ade3c7,,,,,,,sngl,resources/DY.BMP,resources/Empty.png,Door1,-0.274479167,0.014322917,1,0,0,0.903,optionLeft,30,12055,5,42,0,42,0,1,,,,,,,,,,,,,,,,,,,,,,,,,,,,,,,,,,,,,,,
,,,,,,,5ed403a89542210ab77530b7,2023-08-16_08h46.03.200,HF_wild_card,2022.2.4,Win32,62.5,5ed403a89542210ab77530b7,64d2fd46c836a06233681665,64dc7e7a93b2ef5a07ade3c7,,,,,,,decisionTrl,resources/DBN.BMP,resources/DY.BMP,Door2,-0.359114583,0.0234375,1,0,0,0.981,optionLeft,20,12075,5,43,0,43,0,1,,,,,,,,,,,,,,,,,,,,,,,,,,,,,,,,,,,,,,,
,,,,,,,5ed403a89542210ab77530b7,2023-08-16_08h46.03.200,HF_wild_card,2022.2.4,Win32,62.5,5ed403a89542210ab77530b7,64d2fd46c836a06233681665,64dc7e7a93b2ef5a07ade3c7,,,,,,,,,,,,,,,,,,,,,,,,,,4,0,4,0,1,,,,,,,,,,,,,,,,,,,,,,,,,,,,,,,,,,
,,,,,,,5ed403a89542210ab77530b7,2023-08-16_08h46.03.200,HF_wild_card,2022.2.4,Win32,62.5,5ed403a89542210ab77530b7,64d2fd46c836a06233681665,64dc7e7a93b2ef5a07ade3c7,,,,,,,ctch,resources/DG.BMP,resources/DBN.BMP,Door3,-0.396875,-0.087239583,1,0,0,1.624,optionLeft,70,12145,6,0,0,0,0,1,,,,,,,,,,,,,,,,,,,,,,,,,,,,,,,,,,,,,,,
,,,,,,,5ed403a89542210ab77530b7,2023-08-16_08h46.03.200,HF_wild_card,2022.2.4,Win32,62.5,5ed403a89542210ab77530b7,64d2fd46c836a06233681665,64dc7e7a93b2ef5a07ade3c7,,,,,,,decisionTrl,resources/DY.BMP,resources/DBN.BMP,Door2,0.217708333,0.001302083,1,0,0,1.129,optionRight,40,12185,6,1,0,1,0,1,,,,,,,,,,,,,,,,,,,,,,,,,,,,,,,,,,,,,,,
,,,,,,,5ed403a89542210ab77530b7,2023-08-16_08h46.03.200,HF_wild_card,2022.2.4,Win32,62.5,5ed403a89542210ab77530b7,64d2fd46c836a06233681665,64dc7e7a93b2ef5a07ade3c7,,,,,,,ctch,resources/DY.BMP,resources/DB.BMP,Door4,0.199479167,0.032552083,1,0,0,1.555,optionRight,80,12265,6,2,0,2,0,1,,,,,,,,,,,,,,,,,,,,,,,,,,,,,,,,,,,,,,,
,,,,,,,5ed403a89542210ab77530b7,2023-08-16_08h46.03.200,HF_wild_card,2022.2.4,Win32,62.5,5ed403a89542210ab77530b7,64d2fd46c836a06233681665,64dc7e7a93b2ef5a07ade3c7,,,,,,,decisionTrl,resources/DG.BMP,resources/DB.BMP,Door4,0.308854167,0.061197917,1,0,0,1.546,optionRight,60,12325,6,3,0,3,0,1,,,,,,,,,,,,,,,,,,,,,,,,,,,,,,,,,,,,,,,
,,,,,,,5ed403a89542210ab77530b7,2023-08-16_08h46.03.200,HF_wild_card,2022.2.4,Win32,62.5,5ed403a89542210ab77530b7,64d2fd46c836a06233681665,64dc7e7a93b2ef5a07ade3c7,,,,,,,sngl,resources/Empty.png,resources/DY.BMP,Door1,0.1578125,-0.014322917,1,0,0,1.064,optionRight,30,12355,6,4,0,4,0,1,,,,,,,,,,,,,,,,,,,,,,,,,,,,,,,,,,,,,,,
,,,,,,,5ed403a89542210ab77530b7,2023-08-16_08h46.03.200,HF_wild_card,2022.2.4,Win32,62.5,5ed403a89542210ab77530b7,64d2fd46c836a06233681665,64dc7e7a93b2ef5a07ade3c7,,,,,,,decisionTrl,resources/DR.BMP,resources/DG.BMP,Door3,0.2828125,-0.014322917,1,0,0,1.662,optionRight,70,12425,6,5,0,5,0,1,,,,,,,,,,,,,,,,,,,,,,,,,,,,,,,,,,,,,,,
,,,,,,,5ed403a89542210ab77530b7,2023-08-16_08h46.03.200,HF_wild_card,2022.2.4,Win32,62.5,5ed403a89542210ab77530b7,64d2fd46c836a06233681665,64dc7e7a93b2ef5a07ade3c7,,,,,,,sngl,resources/DB.BMP,resources/Empty.png,Door4,-0.24453125,-0.010416667,1,0,0,0.812,optionLeft,60,12485,6,6,0,6,0,1,,,,,,,,,,,,,,,,,,,,,,,,,,,,,,,,,,,,,,,
,,,,,,,5ed403a89542210ab77530b7,2023-08-16_08h46.03.200,HF_wild_card,2022.2.4,Win32,62.5,5ed403a89542210ab77530b7,64d2fd46c836a06233681665,64dc7e7a93b2ef5a07ade3c7,,,,,,,ctch,resources/DBN.BMP,resources/DG.BMP,Door3,0.207291667,0.010416667,1,0,0,1.328,optionRight,70,12555,6,7,0,7,0,1,,,,,,,,,,,,,,,,,,,,,,,,,,,,,,,,,,,,,,,
,,,,,,,5ed403a89542210ab77530b7,2023-08-16_08h46.03.200,HF_wild_card,2022.2.4,Win32,62.5,5ed403a89542210ab77530b7,64d2fd46c836a06233681665,64dc7e7a93b2ef5a07ade3c7,,,,,,,decisionTrl,resources/DG.BMP,resources/DB.BMP,Door4,0.27109375,-0.01171875,1,0,0,2.616,optionRight,60,12615,6,8,0,8,0,1,,,,,,,,,,,,,,,,,,,,,,,,,,,,,,,,,,,,,,,
,,,,,,,5ed403a89542210ab77530b7,2023-08-16_08h46.03.200,HF_wild_card,2022.2.4,Win32,62.5,5ed403a89542210ab77530b7,64d2fd46c836a06233681665,64dc7e7a93b2ef5a07ade3c7,,,,,,,ctch,resources/DG.BMP,resources/DBN.BMP,Door3,-0.001041667,-0.0078125,1,0,0,1.12,optionLeft,70,12685,6,9,0,9,0,1,,,,,,,,,,,,,,,,,,,,,,,,,,,,,,,,,,,,,,,
,,,,,,,5ed403a89542210ab77530b7,2023-08-16_08h46.03.200,HF_wild_card,2022.2.4,Win32,62.5,5ed403a89542210ab77530b7,64d2fd46c836a06233681665,64dc7e7a93b2ef5a07ade3c7,,,,,,,decisionTrl,resources/DB.BMP,resources/DG.BMP,Door4,-0.28359375,-0.00390625,1,0,0,3.568,optionLeft,60,12745,6,10,0,10,0,1,,,,,,,,,,,,,,,,,,,,,,,,,,,,,,,,,,,,,,,
,,,,,,,5ed403a89542210ab77530b7,2023-08-16_08h46.03.200,HF_wild_card,2022.2.4,Win32,62.5,5ed403a89542210ab77530b7,64d2fd46c836a06233681665,64dc7e7a93b2ef5a07ade3c7,,,,,,,decisionTrl,resources/DR.BMP,resources/DB.BMP,Door4,0.273697917,-0.018229167,1,0,0,3.829,optionRight,60,12805,6,11,0,11,0,1,,,,,,,,,,,,,,,,,,,,,,,,,,,,,,,,,,,,,,,
,,,,,,,5ed403a89542210ab77530b7,2023-08-16_08h46.03.200,HF_wild_card,2022.2.4,Win32,62.5,5ed403a89542210ab77530b7,64d2fd46c836a06233681665,64dc7e7a93b2ef5a07ade3c7,,,,,,,decisionTrl,resources/DR.BMP,resources/DBN.BMP,WildCard_Ex,-0.284895833,0.001302083,1,0,0,1.535,optionLeft,55,12860,6,12,0,12,0,1,,,,,,,,,,,,,,,,,,,,,,,,,,,,,,,,,,,,,,,
,,,,,,,5ed403a89542210ab77530b7,2023-08-16_08h46.03.200,HF_wild_card,2022.2.4,Win32,62.5,5ed403a89542210ab77530b7,64d2fd46c836a06233681665,64dc7e7a93b2ef5a07ade3c7,,,,,,,sngl,resources/DG.BMP,resources/Empty.png,Door3,-0.204166667,0.020833333,1,0,0,0.947,optionLeft,70,12930,6,13,0,13,0,1,,,,,,,,,,,,,,,,,,,,,,,,,,,,,,,,,,,,,,,
,,,,,,,5ed403a89542210ab77530b7,2023-08-16_08h46.03.200,HF_wild_card,2022.2.4,Win32,62.5,5ed403a89542210ab77530b7,64d2fd46c836a06233681665,64dc7e7a93b2ef5a07ade3c7,,,,,,,decisionTrl,resources/DBN.BMP,resources/DY.BMP,Door1,0.172135417,0.013020833,1,0,0,1.514,optionRight,30,12960,6,14,0,14,0,1,,,,,,,,,,,,,,,,,,,,,,,,,,,,,,,,,,,,,,,
,,,,,,,5ed403a89542210ab77530b7,2023-08-16_08h46.03.200,HF_wild_card,2022.2.4,Win32,62.5,5ed403a89542210ab77530b7,64d2fd46c836a06233681665,64dc7e7a93b2ef5a07ade3c7,,,,,,,decisionTrl,resources/DY.BMP,resources/DBN.BMP,Door2,0.327083333,0.0859375,1,0,0,2.869,optionRight,40,13000,6,15,0,15,0,1,,,,,,,,,,,,,,,,,,,,,,,,,,,,,,,,,,,,,,,
,,,,,,,5ed403a89542210ab77530b7,2023-08-16_08h46.03.200,HF_wild_card,2022.2.4,Win32,62.5,5ed403a89542210ab77530b7,64d2fd46c836a06233681665,64dc7e7a93b2ef5a07ade3c7,,,,,,,decisionTrl,resources/DR.BMP,resources/DY.BMP,WildCard_Ex,-0.2953125,-0.005208333,1,0,0,1.73,optionLeft,55,13055,6,16,0,16,0,1,,,,,,,,,,,,,,,,,,,,,,,,,,,,,,,,,,,,,,,
,,,,,,,5ed403a89542210ab77530b7,2023-08-16_08h46.03.200,HF_wild_card,2022.2.4,Win32,62.5,5ed403a89542210ab77530b7,64d2fd46c836a06233681665,64dc7e7a93b2ef5a07ade3c7,,,,,,,decisionTrl,resources/DBN.BMP,resources/DY.BMP,Door1,0.293229167,-0.046875,1,0,0,0.946,optionRight,30,13085,6,17,0,17,0,1,,,,,,,,,,,,,,,,,,,,,,,,,,,,,,,,,,,,,,,
,,,,,,,5ed403a89542210ab77530b7,2023-08-16_08h46.03.200,HF_wild_card,2022.2.4,Win32,62.5,5ed403a89542210ab77530b7,64d2fd46c836a06233681665,64dc7e7a93b2ef5a07ade3c7,,,,,,,ctch,resources/DY.BMP,resources/DB.BMP,Door4,0.164322917,-0.018229167,1,0,0,4.108,optionRight,80,13165,6,18,0,18,0,1,,,,,,,,,,,,,,,,,,,,,,,,,,,,,,,,,,,,,,,
,,,,,,,5ed403a89542210ab77530b7,2023-08-16_08h46.03.200,HF_wild_card,2022.2.4,Win32,62.5,5ed403a89542210ab77530b7,64d2fd46c836a06233681665,64dc7e7a93b2ef5a07ade3c7,,,,,,,sngl,resources/Empty.png,resources/DR.BMP,WildCard_Ex,0.284114583,-0.015625,1,0,0,1.432,optionRight,55,13220,6,19,0,19,0,1,,,,,,,,,,,,,,,,,,,,,,,,,,,,,,,,,,,,,,,
,,,,,,,5ed403a89542210ab77530b7,2023-08-16_08h46.03.200,HF_wild_card,2022.2.4,Win32,62.5,5ed403a89542210ab77530b7,64d2fd46c836a06233681665,64dc7e7a93b2ef5a07ade3c7,,,,,,,sngl,resources/DR.BMP,resources/Empty.png,WildCard_Ex,-0.309635417,-0.061197917,1,0,0,1.009,optionLeft,45,13265,6,20,0,20,0,1,,,,,,,,,,,,,,,,,,,,,,,,,,,,,,,,,,,,,,,
,,,,,,,5ed403a89542210ab77530b7,2023-08-16_08h46.03.200,HF_wild_card,2022.2.4,Win32,62.5,5ed403a89542210ab77530b7,64d2fd46c836a06233681665,64dc7e7a93b2ef5a07ade3c7,,,,,,,ctch,resources/DBN.BMP,resources/DG.BMP,Door3,0.332291667,-0.020833333,1,0,0,4.682,optionRight,70,13335,6,21,0,21,0,1,,,,,,,,,,,,,,,,,,,,,,,,,,,,,,,,,,,,,,,
,,,,,,,5ed403a89542210ab77530b7,2023-08-16_08h46.03.200,HF_wild_card,2022.2.4,Win32,62.5,5ed403a89542210ab77530b7,64d2fd46c836a06233681665,64dc7e7a93b2ef5a07ade3c7,,,,,,,sngl,resources/DY.BMP,resources/Empty.png,Door1,-0.34609375,0.0078125,1,0,0,1.269,optionLeft,30,13365,6,22,0,22,0,1,,,,,,,,,,,,,,,,,,,,,,,,,,,,,,,,,,,,,,,
,,,,,,,5ed403a89542210ab77530b7,2023-08-16_08h46.03.200,HF_wild_card,2022.2.4,Win32,62.5,5ed403a89542210ab77530b7,64d2fd46c836a06233681665,64dc7e7a93b2ef5a07ade3c7,,,,,,,decisionTrl,resources/DG.BMP,resources/DR.BMP,Door3,-0.296614583,0.005208333,1,0,0,1.174,optionLeft,70,13435,6,23,0,23,0,1,,,,,,,,,,,,,,,,,,,,,,,,,,,,,,,,,,,,,,,
,,,,,,,5ed403a89542210ab77530b7,2023-08-16_08h46.03.200,HF_wild_card,2022.2.4,Win32,62.5,5ed403a89542210ab77530b7,64d2fd46c836a06233681665,64dc7e7a93b2ef5a07ade3c7,,,,,,,sngl,resources/DBN.BMP,resources/Empty.png,Door2,-0.30703125,0.001302083,1,0,0,0.932,optionLeft,20,13455,6,24,0,24,0,1,,,,,,,,,,,,,,,,,,,,,,,,,,,,,,,,,,,,,,,
,,,,,,,5ed403a89542210ab77530b7,2023-08-16_08h46.03.200,HF_wild_card,2022.2.4,Win32,62.5,5ed403a89542210ab77530b7,64d2fd46c836a06233681665,64dc7e7a93b2ef5a07ade3c7,,,,,,,decisionTrl,resources/DB.BMP,resources/DG.BMP,Door4,-0.36171875,-0.03515625,1,0,0,1.819,optionLeft,80,13535,6,25,0,25,0,1,,,,,,,,,,,,,,,,,,,,,,,,,,,,,,,,,,,,,,,
,,,,,,,5ed403a89542210ab77530b7,2023-08-16_08h46.03.200,HF_wild_card,2022.2.4,Win32,62.5,5ed403a89542210ab77530b7,64d2fd46c836a06233681665,64dc7e7a93b2ef5a07ade3c7,,,,,,,sngl,resources/Empty.png,resources/DB.BMP,Door4,0.381770833,-0.02734375,1,0,0,0.899,optionRight,80,13615,6,26,0,26,0,1,,,,,,,,,,,,,,,,,,,,,,,,,,,,,,,,,,,,,,,
,,,,,,,5ed403a89542210ab77530b7,2023-08-16_08h46.03.200,HF_wild_card,2022.2.4,Win32,62.5,5ed403a89542210ab77530b7,64d2fd46c836a06233681665,64dc7e7a93b2ef5a07ade3c7,,,,,,,decisionTrl,resources/DG.BMP,resources/DB.BMP,Door4,0.363541667,0.010416667,1,0,0,2.152,optionRight,60,13675,6,27,0,27,0,1,,,,,,,,,,,,,,,,,,,,,,,,,,,,,,,,,,,,,,,
,,,,,,,5ed403a89542210ab77530b7,2023-08-16_08h46.03.200,HF_wild_card,2022.2.4,Win32,62.5,5ed403a89542210ab77530b7,64d2fd46c836a06233681665,64dc7e7a93b2ef5a07ade3c7,,,,,,,decisionTrl,resources/DBN.BMP,resources/DR.BMP,WildCard_Ex,0.225520833,0.00390625,1,0,0,1.163,optionRight,45,13720,6,28,0,28,0,1,,,,,,,,,,,,,,,,,,,,,,,,,,,,,,,,,,,,,,,
,,,,,,,5ed403a89542210ab77530b7,2023-08-16_08h46.03.200,HF_wild_card,2022.2.4,Win32,62.5,5ed403a89542210ab77530b7,64d2fd46c836a06233681665,64dc7e7a93b2ef5a07ade3c7,,,,,,,sngl,resources/Empty.png,resources/DBN.BMP,Door2,0.246354167,0.015625,1,0,0,0.865,optionRight,40,13760,6,29,0,29,0,1,,,,,,,,,,,,,,,,,,,,,,,,,,,,,,,,,,,,,,,
,,,,,,,5ed403a89542210ab77530b7,2023-08-16_08h46.03.200,HF_wild_card,2022.2.4,Win32,62.5,5ed403a89542210ab77530b7,64d2fd46c836a06233681665,64dc7e7a93b2ef5a07ade3c7,,,,,,,decisionTrl,resources/DBN.BMP,resources/DY.BMP,Door1,0.34921875,-0.001302083,1,0,0,2.282,optionRight,30,13790,6,30,0,30,0,1,,,,,,,,,,,,,,,,,,,,,,,,,,,,,,,,,,,,,,,
,,,,,,,5ed403a89542210ab77530b7,2023-08-16_08h46.03.200,HF_wild_card,2022.2.4,Win32,62.5,5ed403a89542210ab77530b7,64d2fd46c836a06233681665,64dc7e7a93b2ef5a07ade3c7,,,,,,,decisionTrl,resources/DG.BMP,resources/DB.BMP,Door4,0.353125,0.0234375,1,0,0,1.715,optionRight,60,13850,6,31,0,31,0,1,,,,,,,,,,,,,,,,,,,,,,,,,,,,,,,,,,,,,,,
,,,,,,,5ed403a89542210ab77530b7,2023-08-16_08h46.03.200,HF_wild_card,2022.2.4,Win32,62.5,5ed403a89542210ab77530b7,64d2fd46c836a06233681665,64dc7e7a93b2ef5a07ade3c7,,,,,,,decisionTrl,resources/DBN.BMP,resources/DY.BMP,Door2,-0.29140625,-0.015625,1,0,0,1.848,optionLeft,20,13870,6,32,0,32,0,1,,,,,,,,,,,,,,,,,,,,,,,,,,,,,,,,,,,,,,,
,,,,,,,5ed403a89542210ab77530b7,2023-08-16_08h46.03.200,HF_wild_card,2022.2.4,Win32,62.5,5ed403a89542210ab77530b7,64d2fd46c836a06233681665,64dc7e7a93b2ef5a07ade3c7,,,,,,,sngl,resources/DR.BMP,resources/Empty.png,WildCard_Ex,-0.282291667,-0.015625,1,0,0,0.779,optionLeft,55,13925,6,33,0,33,0,1,,,,,,,,,,,,,,,,,,,,,,,,,,,,,,,,,,,,,,,
,,,,,,,5ed403a89542210ab77530b7,2023-08-16_08h46.03.200,HF_wild_card,2022.2.4,Win32,62.5,5ed403a89542210ab77530b7,64d2fd46c836a06233681665,64dc7e7a93b2ef5a07ade3c7,,,,,,,decisionTrl,resources/DB.BMP,resources/DG.BMP,Door4,-0.321354167,-0.028645833,1,0,0,1.699,optionLeft,60,13985,6,34,0,34,0,1,,,,,,,,,,,,,,,,,,,,,,,,,,,,,,,,,,,,,,,
,,,,,,,5ed403a89542210ab77530b7,2023-08-16_08h46.03.200,HF_wild_card,2022.2.4,Win32,62.5,5ed403a89542210ab77530b7,64d2fd46c836a06233681665,64dc7e7a93b2ef5a07ade3c7,,,,,,,ctch,resources/DB.BMP,resources/DY.BMP,Door4,-0.195052083,-0.006510417,1,0,0,0.769,optionLeft,60,14045,6,35,0,35,0,1,,,,,,,,,,,,,,,,,,,,,,,,,,,,,,,,,,,,,,,
,,,,,,,5ed403a89542210ab77530b7,2023-08-16_08h46.03.200,HF_wild_card,2022.2.4,Win32,62.5,5ed403a89542210ab77530b7,64d2fd46c836a06233681665,64dc7e7a93b2ef5a07ade3c7,,,,,,,decisionTrl,resources/DY.BMP,resources/DBN.BMP,Door2,0.18515625,-0.022135417,1,0,0,1.327,optionRight,40,14085,6,36,0,36,0,1,,,,,,,,,,,,,,,,,,,,,,,,,,,,,,,,,,,,,,,
,,,,,,,5ed403a89542210ab77530b7,2023-08-16_08h46.03.200,HF_wild_card,2022.2.4,Win32,62.5,5ed403a89542210ab77530b7,64d2fd46c836a06233681665,64dc7e7a93b2ef5a07ade3c7,,,,,,,decisionTrl,resources/DB.BMP,resources/DR.BMP,Door4,-0.0140625,-0.0078125,1,0,0,0.245,optionLeft,60,14145,6,37,0,37,0,1,,,,,,,,,,,,,,,,,,,,,,,,,,,,,,,,,,,,,,,
,,,,,,,5ed403a89542210ab77530b7,2023-08-16_08h46.03.200,HF_wild_card,2022.2.4,Win32,62.5,5ed403a89542210ab77530b7,64d2fd46c836a06233681665,64dc7e7a93b2ef5a07ade3c7,,,,,,,decisionTrl,resources/DB.BMP,resources/DG.BMP,Door4,-0.239322917,-0.002604167,1,0,0,1.413,optionLeft,60,14205,6,38,0,38,0,1,,,,,,,,,,,,,,,,,,,,,,,,,,,,,,,,,,,,,,,
,,,,,,,5ed403a89542210ab77530b7,2023-08-16_08h46.03.200,HF_wild_card,2022.2.4,Win32,62.5,5ed403a89542210ab77530b7,64d2fd46c836a06233681665,64dc7e7a93b2ef5a07ade3c7,,,,,,,sngl,resources/Empty.png,resources/DR.BMP,WildCard_Ex,0.196875,-0.013020833,1,0,0,0.781,optionRight,45,14250,6,39,0,39,0,1,,,,,,,,,,,,,,,,,,,,,,,,,,,,,,,,,,,,,,,
,,,,,,,5ed403a89542210ab77530b7,2023-08-16_08h46.03.200,HF_wild_card,2022.2.4,Win32,62.5,5ed403a89542210ab77530b7,64d2fd46c836a06233681665,64dc7e7a93b2ef5a07ade3c7,,,,,,,decisionTrl,resources/DY.BMP,resources/DR.BMP,Door1,-0.222395833,-0.009114583,1,0,0,1.232,optionLeft,30,14280,6,40,0,40,0,1,,,,,,,,,,,,,,,,,,,,,,,,,,,,,,,,,,,,,,,
,,,,,,,5ed403a89542210ab77530b7,2023-08-16_08h46.03.200,HF_wild_card,2022.2.4,Win32,62.5,5ed403a89542210ab77530b7,64d2fd46c836a06233681665,64dc7e7a93b2ef5a07ade3c7,,,,,,,ctch,resources/DB.BMP,resources/DY.BMP,Door4,-0.29921875,-0.001302083,1,0,0,1.181,optionLeft,60,14340,6,41,0,41,0,1,,,,,,,,,,,,,,,,,,,,,,,,,,,,,,,,,,,,,,,
,,,,,,,5ed403a89542210ab77530b7,2023-08-16_08h46.03.200,HF_wild_card,2022.2.4,Win32,62.5,5ed403a89542210ab77530b7,64d2fd46c836a06233681665,64dc7e7a93b2ef5a07ade3c7,,,,,,,decisionTrl,resources/DY.BMP,resources/DBN.BMP,Door1,-0.24453125,0.001302083,1,0,0,2.032,optionLeft,30,14370,6,42,0,42,0,1,,,,,,,,,,,,,,,,,,,,,,,,,,,,,,,,,,,,,,,
,,,,,,,5ed403a89542210ab77530b7,2023-08-16_08h46.03.200,HF_wild_card,2022.2.4,Win32,62.5,5ed403a89542210ab77530b7,64d2fd46c836a06233681665,64dc7e7a93b2ef5a07ade3c7,,,,,,,sngl,resources/Empty.png,resources/DG.BMP,Door3,0.265885417,-0.00390625,1,0,0,0.893,optionRight,70,14440,6,43,0,43,0,1,,,,,,,,,,,,,,,,,,,,,,,,,,,,,,,,,,,,,,,
,,,,,,,5ed403a89542210ab77530b7,2023-08-16_08h46.03.200,HF_wild_card,2022.2.4,Win32,62.5,5ed403a89542210ab77530b7,64d2fd46c836a06233681665,64dc7e7a93b2ef5a07ade3c7,,,,,,,,,,,,,,,,,,,,,,,,,,5,0,5,0,1,,,,,,,,,,,,,,,,,,,,,,,,,,,,,,,,,,
,,,,,,,5ed403a89542210ab77530b7,2023-08-16_08h46.03.200,HF_wild_card,2022.2.4,Win32,62.5,5ed403a89542210ab77530b7,64d2fd46c836a06233681665,64dc7e7a93b2ef5a07ade3c7,,,,,,,decisionTrl,resources/DG.BMP,resources/DB.BMP,Door3,-0.249739583,-0.014322917,1,0,0,1.959,optionLeft,70,14510,7,0,0,0,0,1,,,,,,,,,,,,,,,,,,,,,,,,,,,,,,,,,,,,,,,
,,,,,,,5ed403a89542210ab77530b7,2023-08-16_08h46.03.200,HF_wild_card,2022.2.4,Win32,62.5,5ed403a89542210ab77530b7,64d2fd46c836a06233681665,64dc7e7a93b2ef5a07ade3c7,,,,,,,ctch,resources/DG.BMP,resources/DBN.BMP,Door3,-0.240625,-0.00390625,1,0,0,1.063,optionLeft,70,14580,7,1,0,1,0,1,,,,,,,,,,,,,,,,,,,,,,,,,,,,,,,,,,,,,,,
,,,,,,,5ed403a89542210ab77530b7,2023-08-16_08h46.03.200,HF_wild_card,2022.2.4,Win32,62.5,5ed403a89542210ab77530b7,64d2fd46c836a06233681665,64dc7e7a93b2ef5a07ade3c7,,,,,,,ctch,resources/DY.BMP,resources/DB.BMP,Door4,0.2125,-0.009114583,1,0,0,1.846,optionRight,80,14660,7,2,0,2,0,1,,,,,,,,,,,,,,,,,,,,,,,,,,,,,,,,,,,,,,,
,,,,,,,5ed403a89542210ab77530b7,2023-08-16_08h46.03.200,HF_wild_card,2022.2.4,Win32,62.5,5ed403a89542210ab77530b7,64d2fd46c836a06233681665,64dc7e7a93b2ef5a07ade3c7,,,,,,,decisionTrl,resources/DG.BMP,resources/DB.BMP,Door3,-0.204166667,-0.005208333,1,0,0,1.639,optionLeft,70,14730,7,3,0,3,0,1,,,,,,,,,,,,,,,,,,,,,,,,,,,,,,,,,,,,,,,
,,,,,,,5ed403a89542210ab77530b7,2023-08-16_08h46.03.200,HF_wild_card,2022.2.4,Win32,62.5,5ed403a89542210ab77530b7,64d2fd46c836a06233681665,64dc7e7a93b2ef5a07ade3c7,,,,,,,decisionTrl,resources/DBN.BMP,resources/DY.BMP,Door1,0.15390625,-0.00390625,1,0,0,1.164,optionRight,30,14760,7,4,0,4,0,1,,,,,,,,,,,,,,,,,,,,,,,,,,,,,,,,,,,,,,,
,,,,,,,5ed403a89542210ab77530b7,2023-08-16_08h46.03.200,HF_wild_card,2022.2.4,Win32,62.5,5ed403a89542210ab77530b7,64d2fd46c836a06233681665,64dc7e7a93b2ef5a07ade3c7,,,,,,,decisionTrl,resources/DB.BMP,resources/DG.BMP,Door3,0.203385417,-0.00390625,1,0,0,1.281,optionRight,70,14830,7,5,0,5,0,1,,,,,,,,,,,,,,,,,,,,,,,,,,,,,,,,,,,,,,,
,,,,,,,5ed403a89542210ab77530b7,2023-08-16_08h46.03.200,HF_wild_card,2022.2.4,Win32,62.5,5ed403a89542210ab77530b7,64d2fd46c836a06233681665,64dc7e7a93b2ef5a07ade3c7,,,,,,,decisionTrl,resources/DB.BMP,resources/DG.BMP,Door3,0.209895833,-0.006510417,1,0,0,1.089,optionRight,70,14900,7,6,0,6,0,1,,,,,,,,,,,,,,,,,,,,,,,,,,,,,,,,,,,,,,,
,,,,,,,5ed403a89542210ab77530b7,2023-08-16_08h46.03.200,HF_wild_card,2022.2.4,Win32,62.5,5ed403a89542210ab77530b7,64d2fd46c836a06233681665,64dc7e7a93b2ef5a07ade3c7,,,,,,,decisionTrl,resources/DY.BMP,resources/DBN.BMP,Door1,-0.167708333,-0.01171875,1,0,0,1.282,optionLeft,30,14930,7,7,0,7,0,1,,,,,,,,,,,,,,,,,,,,,,,,,,,,,,,,,,,,,,,
,,,,,,,5ed403a89542210ab77530b7,2023-08-16_08h46.03.200,HF_wild_card,2022.2.4,Win32,62.5,5ed403a89542210ab77530b7,64d2fd46c836a06233681665,64dc7e7a93b2ef5a07ade3c7,,,,,,,decisionTrl,resources/DBN.BMP,resources/DY.BMP,Door1,0.2046875,-0.001302083,1,0,0,0.885,optionRight,30,14960,7,8,0,8,0,1,,,,,,,,,,,,,,,,,,,,,,,,,,,,,,,,,,,,,,,
,,,,,,,5ed403a89542210ab77530b7,2023-08-16_08h46.03.200,HF_wild_card,2022.2.4,Win32,62.5,5ed403a89542210ab77530b7,64d2fd46c836a06233681665,64dc7e7a93b2ef5a07ade3c7,,,,,,,ctch,resources/DY.BMP,resources/DB.BMP,Door4,0.1890625,-0.00390625,1,0,0,1.829,optionRight,60,15020,7,9,0,9,0,1,,,,,,,,,,,,,,,,,,,,,,,,,,,,,,,,,,,,,,,
,,,,,,,5ed403a89542210ab77530b7,2023-08-16_08h46.03.200,HF_wild_card,2022.2.4,Win32,62.5,5ed403a89542210ab77530b7,64d2fd46c836a06233681665,64dc7e7a93b2ef5a07ade3c7,,,,,,,decisionTrl,resources/DG.BMP,resources/DB.BMP,Door3,-0.266666667,-0.002604167,1,0,0,1.057,optionLeft,70,15090,7,10,0,10,0,1,,,,,,,,,,,,,,,,,,,,,,,,,,,,,,,,,,,,,,,
,,,,,,,5ed403a89542210ab77530b7,2023-08-16_08h46.03.200,HF_wild_card,2022.2.4,Win32,62.5,5ed403a89542210ab77530b7,64d2fd46c836a06233681665,64dc7e7a93b2ef5a07ade3c7,,,,,,,decisionTrl,resources/DB.BMP,resources/DG.BMP,Door3,0.11484375,0.001302083,1,0,0,1.117,optionRight,70,15160,7,11,0,11,0,1,,,,,,,,,,,,,,,,,,,,,,,,,,,,,,,,,,,,,,,
,,,,,,,5ed403a89542210ab77530b7,2023-08-16_08h46.03.200,HF_wild_card,2022.2.4,Win32,62.5,5ed403a89542210ab77530b7,64d2fd46c836a06233681665,64dc7e7a93b2ef5a07ade3c7,,,,,,,decisionTrl,resources/DY.BMP,resources/DBN.BMP,Door1,-0.2640625,0,1,0,0,1.249,optionLeft,30,15190,7,12,0,12,0,1,,,,,,,,,,,,,,,,,,,,,,,,,,,,,,,,,,,,,,,
,,,,,,,5ed403a89542210ab77530b7,2023-08-16_08h46.03.200,HF_wild_card,2022.2.4,Win32,62.5,5ed403a89542210ab77530b7,64d2fd46c836a06233681665,64dc7e7a93b2ef5a07ade3c7,,,,,,,decisionTrl,resources/DBN.BMP,resources/DY.BMP,Door1,0.34921875,-0.014322917,1,0,0,1.184,optionRight,30,15220,7,13,0,13,0,1,,,,,,,,,,,,,,,,,,,,,,,,,,,,,,,,,,,,,,,
,,,,,,,5ed403a89542210ab77530b7,2023-08-16_08h46.03.200,HF_wild_card,2022.2.4,Win32,62.5,5ed403a89542210ab77530b7,64d2fd46c836a06233681665,64dc7e7a93b2ef5a07ade3c7,,,,,,,decisionTrl,resources/DBN.BMP,resources/DY.BMP,Door1,0.41171875,0.029947917,1,0,0,0.888,optionRight,30,15250,7,14,0,14,0,1,,,,,,,,,,,,,,,,,,,,,,,,,,,,,,,,,,,,,,,
,,,,,,,5ed403a89542210ab77530b7,2023-08-16_08h46.03.200,HF_wild_card,2022.2.4,Win32,62.5,5ed403a89542210ab77530b7,64d2fd46c836a06233681665,64dc7e7a93b2ef5a07ade3c7,,,,,,,decisionTrl,resources/DG.BMP,resources/DB.BMP,Door3,-0.3421875,0.0078125,1,0,0,1.448,optionLeft,70,15320,7,15,0,15,0,1,,,,,,,,,,,,,,,,,,,,,,,,,,,,,,,,,,,,,,,
,,,,,,,5ed403a89542210ab77530b7,2023-08-16_08h46.03.200,HF_wild_card,2022.2.4,Win32,62.5,5ed403a89542210ab77530b7,64d2fd46c836a06233681665,64dc7e7a93b2ef5a07ade3c7,,,,,,,ctch,resources/DG.BMP,resources/DBN.BMP,Door3,-0.411197917,0.057291667,1,0,0,1.247,optionLeft,70,15390,7,16,0,16,0,1,,,,,,,,,,,,,,,,,,,,,,,,,,,,,,,,,,,,,,,
,,,,,,,5ed403a89542210ab77530b7,2023-08-16_08h46.03.200,HF_wild_card,2022.2.4,Win32,62.5,5ed403a89542210ab77530b7,64d2fd46c836a06233681665,64dc7e7a93b2ef5a07ade3c7,,,,,,,decisionTrl,resources/DB.BMP,resources/DG.BMP,Door3,0.354427083,0.046875,1,0,0,1.21,optionRight,70,15460,7,17,0,17,0,1,,,,,,,,,,,,,,,,,,,,,,,,,,,,,,,,,,,,,,,
,,,,,,,5ed403a89542210ab77530b7,2023-08-16_08h46.03.200,HF_wild_card,2022.2.4,Win32,62.5,5ed403a89542210ab77530b7,64d2fd46c836a06233681665,64dc7e7a93b2ef5a07ade3c7,,,,,,,decisionTrl,resources/DB.BMP,resources/DG.BMP,Door3,0.353125,-0.018229167,1,0,0,0.867,optionRight,70,15530,7,18,0,18,0,1,,,,,,,,,,,,,,,,,,,,,,,,,,,,,,,,,,,,,,,
,,,,,,,5ed403a89542210ab77530b7,2023-08-16_08h46.03.200,HF_wild_card,2022.2.4,Win32,62.5,5ed403a89542210ab77530b7,64d2fd46c836a06233681665,64dc7e7a93b2ef5a07ade3c7,,,,,,,ctch,resources/DBN.BMP,resources/DG.BMP,Door3,0.3140625,-0.041666667,1,0,0,0.957,optionRight,70,15600,7,19,0,19,0,1,,,,,,,,,,,,,,,,,,,,,,,,,,,,,,,,,,,,,,,
,,,,,,,5ed403a89542210ab77530b7,2023-08-16_08h46.03.200,HF_wild_card,2022.2.4,Win32,62.5,5ed403a89542210ab77530b7,64d2fd46c836a06233681665,64dc7e7a93b2ef5a07ade3c7,,,,,,,decisionTrl,resources/DBN.BMP,resources/DY.BMP,Door1,0.36875,-0.0234375,1,0,0,1.16,optionRight,30,15630,7,20,0,20,0,1,,,,,,,,,,,,,,,,,,,,,,,,,,,,,,,,,,,,,,,
,,,,,,,5ed403a89542210ab77530b7,2023-08-16_08h46.03.200,HF_wild_card,2022.2.4,Win32,62.5,5ed403a89542210ab77530b7,64d2fd46c836a06233681665,64dc7e7a93b2ef5a07ade3c7,,,,,,,ctch,resources/DBN.BMP,resources/DG.BMP,Door3,0.297135417,0.0078125,1,0,0,0.852,optionRight,70,15700,7,21,0,21,0,1,,,,,,,,,,,,,,,,,,,,,,,,,,,,,,,,,,,,,,,
,,,,,,,5ed403a89542210ab77530b7,2023-08-16_08h46.03.200,HF_wild_card,2022.2.4,Win32,62.5,5ed403a89542210ab77530b7,64d2fd46c836a06233681665,64dc7e7a93b2ef5a07ade3c7,,,,,,,decisionTrl,resources/DB.BMP,resources/DG.BMP,Door3,0.36875,-0.0234375,1,0,0,1.168,optionRight,70,15770,7,22,0,22,0,1,,,,,,,,,,,,,,,,,,,,,,,,,,,,,,,,,,,,,,,
,,,,,,,5ed403a89542210ab77530b7,2023-08-16_08h46.03.200,HF_wild_card,2022.2.4,Win32,62.5,5ed403a89542210ab77530b7,64d2fd46c836a06233681665,64dc7e7a93b2ef5a07ade3c7,,,,,,,ctch,resources/DG.BMP,resources/DBN.BMP,Door3,-0.376041667,-0.006510417,1,0,0,1.281,optionLeft,70,15840,7,23,0,23,0,1,,,,,,,,,,,,,,,,,,,,,,,,,,,,,,,,,,,,,,,
,,,,,,,5ed403a89542210ab77530b7,2023-08-16_08h46.03.200,HF_wild_card,2022.2.4,Win32,62.5,5ed403a89542210ab77530b7,64d2fd46c836a06233681665,64dc7e7a93b2ef5a07ade3c7,,,,,,,decisionTrl,resources/DY.BMP,resources/DBN.BMP,Door1,-0.421614583,0.0234375,1,0,0,1.254,optionLeft,30,15870,7,24,0,24,0,1,,,,,,,,,,,,,,,,,,,,,,,,,,,,,,,,,,,,,,,
,,,,,,,5ed403a89542210ab77530b7,2023-08-16_08h46.03.200,HF_wild_card,2022.2.4,Win32,62.5,5ed403a89542210ab77530b7,64d2fd46c836a06233681665,64dc7e7a93b2ef5a07ade3c7,,,,,,,ctch,resources/DB.BMP,resources/DY.BMP,Door4,-0.489322917,0.013020833,1,0,0,1.102,optionLeft,60,15930,7,25,0,25,0,1,,,,,,,,,,,,,,,,,,,,,,,,,,,,,,,,,,,,,,,
,,,,,,,5ed403a89542210ab77530b7,2023-08-16_08h46.03.200,HF_wild_card,2022.2.4,Win32,62.5,5ed403a89542210ab77530b7,64d2fd46c836a06233681665,64dc7e7a93b2ef5a07ade3c7,,,,,,,decisionTrl,resources/DBN.BMP,resources/DY.BMP,Door1,0.414322917,-0.013020833,1,0,0,1.018,optionRight,30,15960,7,26,0,26,0,1,,,,,,,,,,,,,,,,,,,,,,,,,,,,,,,,,,,,,,,
,,,,,,,5ed403a89542210ab77530b7,2023-08-16_08h46.03.200,HF_wild_card,2022.2.4,Win32,62.5,5ed403a89542210ab77530b7,64d2fd46c836a06233681665,64dc7e7a93b2ef5a07ade3c7,,,,,,,ctch,resources/DB.BMP,resources/DY.BMP,Door4,-0.438541667,0.0078125,1,0,0,0.904,optionLeft,60,16020,7,27,0,27,0,1,,,,,,,,,,,,,,,,,,,,,,,,,,,,,,,,,,,,,,,
,,,,,,,5ed403a89542210ab77530b7,2023-08-16_08h46.03.200,HF_wild_card,2022.2.4,Win32,62.5,5ed403a89542210ab77530b7,64d2fd46c836a06233681665,64dc7e7a93b2ef5a07ade3c7,,,,,,,ctch,resources/DB.BMP,resources/DY.BMP,Door4,-0.40078125,-0.0234375,1,0,0,0.974,optionLeft,60,16080,7,28,0,28,0,1,,,,,,,,,,,,,,,,,,,,,,,,,,,,,,,,,,,,,,,
