Condition,Low fixed image (Door1),Low risky image (Door2),High fixed image (Door3),High risky image (Door4),Extreme Wild Card,NonExtreme Wild Card,,date,expName,psychopyVersion,OS,frameRate,PROLIFIC_PID,STUDY_ID,SESSION_ID,mouse_2.x,mouse_2.y,mouse_2.leftButton,mouse_2.midButton,mouse_2.rightButton,mouse_2.clicked_name,Trial Type,Left Option Image,Right Option Image,Chosen Door,mouse.x,mouse.y,mouse.leftButton,mouse.midButton,mouse.rightButton,mouse.time,mouse.clicked_name,Feedback,Cumulative Reward,Block,trial.thisRepN,trial.thisTrialN,trial.thisN,trial.thisIndex,trial.ran,blocks.thisRepN,blocks.thisTrialN,blocks.thisN,blocks.thisIndex,blocks.ran,Money conversion,First Outcome Reported,Shown Door (First Outcome),Displayed Image (First Outcome),outcomes.thisRepN,outcomes.thisTrialN,outcomes.thisN,outcomes.thisIndex,outcomes.ran,judgments.thisRepN,judgments.thisTrialN,judgments.thisN,judgments.thisIndex,judgments.ran,freqMouse.x,freqMouse.y,freqMouse.leftButton,freqMouse.midButton,freqMouse.rightButton,freqMouse.clicked_name,FQJ for first outcome,FQJ for second outcome,Shown Door,Displayed Image,trials.thisRepN,trials.thisTrialN,trials.thisN,trials.thisIndex,trials.ran,judgBlock.thisRepN,judgBlock.thisTrialN,judgBlock.thisN,judgBlock.thisIndex,judgBlock.ran
0,resources/DP.BMP,resources/DBN.BMP,resources/DY.BMP,resources/DG.BMP,resources/DR.BMP,resources/DB.BMP,,2023-08-16_08h50.43.291,HF_wild_card,2022.2.4,Win32,59.99160118,63d12557d1c4aa48a49259ee,64d2fd46c836a06233681665,64dc7f2b274cd767a5864794,,,,,,,,,,,,,,,,,,,,,,,,,,,,,,,,,,,,,,,,,,,,,,,,,,,,,,,,,,,,,,,,
,,,,,,,,2023-08-16_08h50.43.291,HF_wild_card,2022.2.4,Win32,59.99160118,63d12557d1c4aa48a49259ee,64d2fd46c836a06233681665,64dc7f2b274cd767a5864794,0.00625,-0.421527799,1,0,0,agree,,,,,,,,,,,,,,,,,,,,,,,,,,,,,,,,,,,,,,,,,,,,,,,,,,,,,,,,,,
,,,,,,,,2023-08-16_08h50.43.291,HF_wild_card,2022.2.4,Win32,59.99160118,63d12557d1c4aa48a49259ee,64d2fd46c836a06233681665,64dc7f2b274cd767a5864794,,,,,,,,,,,,,,,,,,,,,,,,,,,,,,,,,,,,,,,,,,,,,,,,,,,,,,,,,,,,,,,,
,,,,,,,,2023-08-16_08h50.43.291,HF_wild_card,2022.2.4,Win32,59.99160118,63d12557d1c4aa48a49259ee,64d2fd46c836a06233681665,64dc7f2b274cd767a5864794,,,,,,,sngl,resources/Empty.png,resources/DR.BMP,WildCard_Ex,0.415277863,-0.040972265,1,0,0,3.3149,optionRight,95,95,1,0,0,0,0,1,,,,,,,,,,,,,,,,,,,,,,,,,,,,,,,,,,,,,,,
,,,,,,,,2023-08-16_08h50.43.291,HF_wild_card,2022.2.4,Win32,59.99160118,63d12557d1c4aa48a49259ee,64d2fd46c836a06233681665,64dc7f2b274cd767a5864794,,,,,,,sngl,resources/DP.BMP,resources/Empty.png,Door1,-0.4125,-0.024305566,1,0,0,1.0255,optionLeft,30,125,1,1,0,1,0,1,,,,,,,,,,,,,,,,,,,,,,,,,,,,,,,,,,,,,,,
,,,,,,,,2023-08-16_08h50.43.291,HF_wild_card,2022.2.4,Win32,59.99160118,63d12557d1c4aa48a49259ee,64d2fd46c836a06233681665,64dc7f2b274cd767a5864794,,,,,,,decisionTrl,resources/DY.BMP,resources/DG.BMP,Door3,-0.330555534,-0.051388931,1,0,0,1.5925,optionLeft,70,195,1,2,0,2,0,1,,,,,,,,,,,,,,,,,,,,,,,,,,,,,,,,,,,,,,,
,,,,,,,,2023-08-16_08h50.43.291,HF_wild_card,2022.2.4,Win32,59.99160118,63d12557d1c4aa48a49259ee,64d2fd46c836a06233681665,64dc7f2b274cd767a5864794,,,,,,,sngl,resources/DY.BMP,resources/Empty.png,Door3,-0.341666667,-0.040972265,1,0,0,1.2269,optionLeft,70,265,1,3,0,3,0,1,,,,,,,,,,,,,,,,,,,,,,,,,,,,,,,,,,,,,,,
,,,,,,,,2023-08-16_08h50.43.291,HF_wild_card,2022.2.4,Win32,59.99160118,63d12557d1c4aa48a49259ee,64d2fd46c836a06233681665,64dc7f2b274cd767a5864794,,,,,,,decisionTrl,resources/DR.BMP,resources/DY.BMP,WildCard_Ex,-0.477083333,-0.019444466,1,0,0,2.284,optionLeft,95,360,1,4,0,4,0,1,,,,,,,,,,,,,,,,,,,,,,,,,,,,,,,,,,,,,,,
,,,,,,,,2023-08-16_08h50.43.291,HF_wild_card,2022.2.4,Win32,59.99160118,63d12557d1c4aa48a49259ee,64d2fd46c836a06233681665,64dc7f2b274cd767a5864794,,,,,,,decisionTrl,resources/DP.BMP,resources/DBN.BMP,Door2,0.491666667,0.027083333,1,0,0,2.3315,optionRight,40,400,1,5,0,5,0,1,,,,,,,,,,,,,,,,,,,,,,,,,,,,,,,,,,,,,,,
,,,,,,,,2023-08-16_08h50.43.291,HF_wild_card,2022.2.4,Win32,59.99160118,63d12557d1c4aa48a49259ee,64d2fd46c836a06233681665,64dc7f2b274cd767a5864794,,,,,,,sngl,resources/DR.BMP,resources/Empty.png,WildCard_Ex,-0.363194434,-0.064583333,1,0,0,1.1091,optionLeft,5,405,1,6,0,6,0,1,,,,,,,,,,,,,,,,,,,,,,,,,,,,,,,,,,,,,,,
,,,,,,,,2023-08-16_08h50.43.291,HF_wild_card,2022.2.4,Win32,59.99160118,63d12557d1c4aa48a49259ee,64d2fd46c836a06233681665,64dc7f2b274cd767a5864794,,,,,,,decisionTrl,resources/DY.BMP,resources/DG.BMP,Door3,-0.320138868,-0.027083333,1,0,0,1.269,optionLeft,70,475,1,7,0,7,0,1,,,,,,,,,,,,,,,,,,,,,,,,,,,,,,,,,,,,,,,
,,,,,,,,2023-08-16_08h50.43.291,HF_wild_card,2022.2.4,Win32,59.99160118,63d12557d1c4aa48a49259ee,64d2fd46c836a06233681665,64dc7f2b274cd767a5864794,,,,,,,decisionTrl,resources/DP.BMP,resources/DBN.BMP,Door1,-0.344444434,-0.035416667,1,0,0,1.6785,optionLeft,30,505,1,8,0,8,0,1,,,,,,,,,,,,,,,,,,,,,,,,,,,,,,,,,,,,,,,
,,,,,,,,2023-08-16_08h50.43.291,HF_wild_card,2022.2.4,Win32,59.99160118,63d12557d1c4aa48a49259ee,64d2fd46c836a06233681665,64dc7f2b274cd767a5864794,,,,,,,sngl,resources/Empty.png,resources/DR.BMP,WildCard_Ex,0.354861196,-0.075,1,0,0,1.0194,optionRight,5,510,1,9,0,9,0,1,,,,,,,,,,,,,,,,,,,,,,,,,,,,,,,,,,,,,,,
,,,,,,,,2023-08-16_08h50.43.291,HF_wild_card,2022.2.4,Win32,59.99160118,63d12557d1c4aa48a49259ee,64d2fd46c836a06233681665,64dc7f2b274cd767a5864794,,,,,,,ctch,resources/DP.BMP,resources/DG.BMP,Door1,-0.338194434,-0.045138931,1,0,0,1.7917,optionLeft,30,540,1,10,0,10,0,1,,,,,,,,,,,,,,,,,,,,,,,,,,,,,,,,,,,,,,,
,,,,,,,,2023-08-16_08h50.43.291,HF_wild_card,2022.2.4,Win32,59.99160118,63d12557d1c4aa48a49259ee,64d2fd46c836a06233681665,64dc7f2b274cd767a5864794,,,,,,,decisionTrl,resources/DG.BMP,resources/DY.BMP,Door3,0.456944529,-0.063888931,1,0,0,1.1649,optionRight,70,610,1,11,0,11,0,1,,,,,,,,,,,,,,,,,,,,,,,,,,,,,,,,,,,,,,,
,,,,,,,,2023-08-16_08h50.43.291,HF_wild_card,2022.2.4,Win32,59.99160118,63d12557d1c4aa48a49259ee,64d2fd46c836a06233681665,64dc7f2b274cd767a5864794,,,,,,,decisionTrl,resources/DG.BMP,resources/DR.BMP,Door4,-0.348611101,-0.063194466,1,0,0,1.8754,optionLeft,80,690,1,12,0,12,0,1,,,,,,,,,,,,,,,,,,,,,,,,,,,,,,,,,,,,,,,
,,,,,,,,2023-08-16_08h50.43.291,HF_wild_card,2022.2.4,Win32,59.99160118,63d12557d1c4aa48a49259ee,64d2fd46c836a06233681665,64dc7f2b274cd767a5864794,,,,,,,ctch,resources/DY.BMP,resources/DBN.BMP,Door3,-0.267361101,-0.029861132,1,0,0,1.9109,optionLeft,70,760,1,13,0,13,0,1,,,,,,,,,,,,,,,,,,,,,,,,,,,,,,,,,,,,,,,
,,,,,,,,2023-08-16_08h50.43.291,HF_wild_card,2022.2.4,Win32,59.99160118,63d12557d1c4aa48a49259ee,64d2fd46c836a06233681665,64dc7f2b274cd767a5864794,,,,,,,decisionTrl,resources/DBN.BMP,resources/DP.BMP,Door2,-0.411805534,-0.043055598,1,0,0,1.5953,optionLeft,40,800,1,14,0,14,0,1,,,,,,,,,,,,,,,,,,,,,,,,,,,,,,,,,,,,,,,
,,,,,,,,2023-08-16_08h50.43.291,HF_wild_card,2022.2.4,Win32,59.99160118,63d12557d1c4aa48a49259ee,64d2fd46c836a06233681665,64dc7f2b274cd767a5864794,,,,,,,sngl,resources/Empty.png,resources/DG.BMP,Door4,0.433333333,-0.057638931,1,0,0,2.0453,optionRight,60,860,1,15,0,15,0,1,,,,,,,,,,,,,,,,,,,,,,,,,,,,,,,,,,,,,,,
,,,,,,,,2023-08-16_08h50.43.291,HF_wild_card,2022.2.4,Win32,59.99160118,63d12557d1c4aa48a49259ee,64d2fd46c836a06233681665,64dc7f2b274cd767a5864794,,,,,,,decisionTrl,resources/DP.BMP,resources/DR.BMP,Door1,-0.46875,-0.083333333,1,0,0,1.5299,optionLeft,30,890,1,16,0,16,0,1,,,,,,,,,,,,,,,,,,,,,,,,,,,,,,,,,,,,,,,
,,,,,,,,2023-08-16_08h50.43.291,HF_wild_card,2022.2.4,Win32,59.99160118,63d12557d1c4aa48a49259ee,64d2fd46c836a06233681665,64dc7f2b274cd767a5864794,,,,,,,decisionTrl,resources/DY.BMP,resources/DG.BMP,Door3,-0.435416667,-0.0125,1,0,0,2.079,optionLeft,70,960,1,17,0,17,0,1,,,,,,,,,,,,,,,,,,,,,,,,,,,,,,,,,,,,,,,
,,,,,,,,2023-08-16_08h50.43.291,HF_wild_card,2022.2.4,Win32,59.99160118,63d12557d1c4aa48a49259ee,64d2fd46c836a06233681665,64dc7f2b274cd767a5864794,,,,,,,decisionTrl,resources/DG.BMP,resources/DY.BMP,Door3,0.361111196,0.010416667,1,0,0,0.8654,optionRight,70,1030,1,18,0,18,0,1,,,,,,,,,,,,,,,,,,,,,,,,,,,,,,,,,,,,,,,
,,,,,,,,2023-08-16_08h50.43.291,HF_wild_card,2022.2.4,Win32,59.99160118,63d12557d1c4aa48a49259ee,64d2fd46c836a06233681665,64dc7f2b274cd767a5864794,,,,,,,decisionTrl,resources/DG.BMP,resources/DY.BMP,Door3,0.35625,-0.029166667,1,0,0,0.7455,optionRight,70,1100,1,19,0,19,0,1,,,,,,,,,,,,,,,,,,,,,,,,,,,,,,,,,,,,,,,
,,,,,,,,2023-08-16_08h50.43.291,HF_wild_card,2022.2.4,Win32,59.99160118,63d12557d1c4aa48a49259ee,64d2fd46c836a06233681665,64dc7f2b274cd767a5864794,,,,,,,decisionTrl,resources/DY.BMP,resources/DG.BMP,Door3,-0.338888868,-0.028472233,1,0,0,0.7485,optionLeft,70,1170,1,20,0,20,0,1,,,,,,,,,,,,,,,,,,,,,,,,,,,,,,,,,,,,,,,
,,,,,,,,2023-08-16_08h50.43.291,HF_wild_card,2022.2.4,Win32,59.99160118,63d12557d1c4aa48a49259ee,64d2fd46c836a06233681665,64dc7f2b274cd767a5864794,,,,,,,decisionTrl,resources/DBN.BMP,resources/DP.BMP,Door2,-0.347916667,-0.007638899,1,0,0,2.945,optionLeft,20,1190,1,21,0,21,0,1,,,,,,,,,,,,,,,,,,,,,,,,,,,,,,,,,,,,,,,
,,,,,,,,2023-08-16_08h50.43.291,HF_wild_card,2022.2.4,Win32,59.99160118,63d12557d1c4aa48a49259ee,64d2fd46c836a06233681665,64dc7f2b274cd767a5864794,,,,,,,decisionTrl,resources/DG.BMP,resources/DY.BMP,Door3,0.315277799,-0.03125,1,0,0,1.1108,optionRight,70,1260,1,22,0,22,0,1,,,,,,,,,,,,,,,,,,,,,,,,,,,,,,,,,,,,,,,
,,,,,,,,2023-08-16_08h50.43.291,HF_wild_card,2022.2.4,Win32,59.99160118,63d12557d1c4aa48a49259ee,64d2fd46c836a06233681665,64dc7f2b274cd767a5864794,,,,,,,decisionTrl,resources/DR.BMP,resources/DBN.BMP,Door2,0.409722265,-0.015277799,1,0,0,2.4743,optionRight,20,1280,1,23,0,23,0,1,,,,,,,,,,,,,,,,,,,,,,,,,,,,,,,,,,,,,,,
,,,,,,,,2023-08-16_08h50.43.291,HF_wild_card,2022.2.4,Win32,59.99160118,63d12557d1c4aa48a49259ee,64d2fd46c836a06233681665,64dc7f2b274cd767a5864794,,,,,,,ctch,resources/DBN.BMP,resources/DY.BMP,Door3,0.295138931,-0.034722265,1,0,0,1.0467,optionRight,70,1350,1,24,0,24,0,1,,,,,,,,,,,,,,,,,,,,,,,,,,,,,,,,,,,,,,,
,,,,,,,,2023-08-16_08h50.43.291,HF_wild_card,2022.2.4,Win32,59.99160118,63d12557d1c4aa48a49259ee,64d2fd46c836a06233681665,64dc7f2b274cd767a5864794,,,,,,,decisionTrl,resources/DY.BMP,resources/DR.BMP,Door3,-0.4,-0.011805566,1,0,0,1.379,optionLeft,70,1420,1,25,0,25,0,1,,,,,,,,,,,,,,,,,,,,,,,,,,,,,,,,,,,,,,,
,,,,,,,,2023-08-16_08h50.43.291,HF_wild_card,2022.2.4,Win32,59.99160118,63d12557d1c4aa48a49259ee,64d2fd46c836a06233681665,64dc7f2b274cd767a5864794,,,,,,,sngl,resources/Empty.png,resources/DY.BMP,Door3,0.398611196,0.024305534,1,0,0,0.6613,optionRight,70,1490,1,26,0,26,0,1,,,,,,,,,,,,,,,,,,,,,,,,,,,,,,,,,,,,,,,
,,,,,,,,2023-08-16_08h50.43.291,HF_wild_card,2022.2.4,Win32,59.99160118,63d12557d1c4aa48a49259ee,64d2fd46c836a06233681665,64dc7f2b274cd767a5864794,,,,,,,decisionTrl,resources/DP.BMP,resources/DBN.BMP,Door1,-0.346527767,0.01875,1,0,0,3.6948,optionLeft,30,1520,1,27,0,27,0,1,,,,,,,,,,,,,,,,,,,,,,,,,,,,,,,,,,,,,,,
,,,,,,,,2023-08-16_08h50.43.291,HF_wild_card,2022.2.4,Win32,59.99160118,63d12557d1c4aa48a49259ee,64d2fd46c836a06233681665,64dc7f2b274cd767a5864794,,,,,,,ctch,resources/DG.BMP,resources/DP.BMP,Door4,-0.321527767,-0.020833333,1,0,0,1.8288,optionLeft,60,1580,1,28,0,28,0,1,,,,,,,,,,,,,,,,,,,,,,,,,,,,,,,,,,,,,,,
,,,,,,,,2023-08-16_08h50.43.291,HF_wild_card,2022.2.4,Win32,59.99160118,63d12557d1c4aa48a49259ee,64d2fd46c836a06233681665,64dc7f2b274cd767a5864794,,,,,,,ctch,resources/DY.BMP,resources/DBN.BMP,Door3,-0.465277767,-0.022222233,1,0,0,0.9945,optionLeft,70,1650,1,29,0,29,0,1,,,,,,,,,,,,,,,,,,,,,,,,,,,,,,,,,,,,,,,
,,,,,,,,2023-08-16_08h50.43.291,HF_wild_card,2022.2.4,Win32,59.99160118,63d12557d1c4aa48a49259ee,64d2fd46c836a06233681665,64dc7f2b274cd767a5864794,,,,,,,decisionTrl,resources/DBN.BMP,resources/DP.BMP,Door1,0.348611196,-0.045833333,1,0,0,1.3956,optionRight,30,1680,1,30,0,30,0,1,,,,,,,,,,,,,,,,,,,,,,,,,,,,,,,,,,,,,,,
,,,,,,,,2023-08-16_08h50.43.291,HF_wild_card,2022.2.4,Win32,59.99160118,63d12557d1c4aa48a49259ee,64d2fd46c836a06233681665,64dc7f2b274cd767a5864794,,,,,,,ctch,resources/DP.BMP,resources/DG.BMP,Door4,0.527083333,-0.030555566,1,0,0,1.128,optionRight,80,1760,1,31,0,31,0,1,,,,,,,,,,,,,,,,,,,,,,,,,,,,,,,,,,,,,,,
,,,,,,,,2023-08-16_08h50.43.291,HF_wild_card,2022.2.4,Win32,59.99160118,63d12557d1c4aa48a49259ee,64d2fd46c836a06233681665,64dc7f2b274cd767a5864794,,,,,,,sngl,resources/DBN.BMP,resources/Empty.png,Door2,-0.272222201,-0.015277799,1,0,0,1.4791,optionLeft,40,1800,1,32,0,32,0,1,,,,,,,,,,,,,,,,,,,,,,,,,,,,,,,,,,,,,,,
,,,,,,,,2023-08-16_08h50.43.291,HF_wild_card,2022.2.4,Win32,59.99160118,63d12557d1c4aa48a49259ee,64d2fd46c836a06233681665,64dc7f2b274cd767a5864794,,,,,,,decisionTrl,resources/DR.BMP,resources/DP.BMP,Door1,0.461111196,-0.053472265,1,0,0,2.1269,optionRight,30,1830,1,33,0,33,0,1,,,,,,,,,,,,,,,,,,,,,,,,,,,,,,,,,,,,,,,
,,,,,,,,2023-08-16_08h50.43.291,HF_wild_card,2022.2.4,Win32,59.99160118,63d12557d1c4aa48a49259ee,64d2fd46c836a06233681665,64dc7f2b274cd767a5864794,,,,,,,decisionTrl,resources/DR.BMP,resources/DG.BMP,Door4,0.295833333,-0.070833333,1,0,0,1.4959,optionRight,80,1910,1,34,0,34,0,1,,,,,,,,,,,,,,,,,,,,,,,,,,,,,,,,,,,,,,,
,,,,,,,,2023-08-16_08h50.43.291,HF_wild_card,2022.2.4,Win32,59.99160118,63d12557d1c4aa48a49259ee,64d2fd46c836a06233681665,64dc7f2b274cd767a5864794,,,,,,,decisionTrl,resources/DBN.BMP,resources/DR.BMP,WildCard_Ex,0.395833333,-0.030555566,1,0,0,1.8956,optionRight,95,2005,1,35,0,35,0,1,,,,,,,,,,,,,,,,,,,,,,,,,,,,,,,,,,,,,,,
,,,,,,,,2023-08-16_08h50.43.291,HF_wild_card,2022.2.4,Win32,59.99160118,63d12557d1c4aa48a49259ee,64d2fd46c836a06233681665,64dc7f2b274cd767a5864794,,,,,,,sngl,resources/Empty.png,resources/DP.BMP,Door1,0.366666667,-0.123611132,1,0,0,1.5784,optionRight,30,2035,1,36,0,36,0,1,,,,,,,,,,,,,,,,,,,,,,,,,,,,,,,,,,,,,,,
,,,,,,,,2023-08-16_08h50.43.291,HF_wild_card,2022.2.4,Win32,59.99160118,63d12557d1c4aa48a49259ee,64d2fd46c836a06233681665,64dc7f2b274cd767a5864794,,,,,,,ctch,resources/DBN.BMP,resources/DY.BMP,Door3,0.338888931,-0.102777799,1,0,0,1.0433,optionRight,70,2105,1,37,0,37,0,1,,,,,,,,,,,,,,,,,,,,,,,,,,,,,,,,,,,,,,,
,,,,,,,,2023-08-16_08h50.43.291,HF_wild_card,2022.2.4,Win32,59.99160118,63d12557d1c4aa48a49259ee,64d2fd46c836a06233681665,64dc7f2b274cd767a5864794,,,,,,,sngl,resources/DG.BMP,resources/Empty.png,Door4,-0.391666667,-0.044444466,1,0,0,0.8629,optionLeft,80,2185,1,38,0,38,0,1,,,,,,,,,,,,,,,,,,,,,,,,,,,,,,,,,,,,,,,
,,,,,,,,2023-08-16_08h50.43.291,HF_wild_card,2022.2.4,Win32,59.99160118,63d12557d1c4aa48a49259ee,64d2fd46c836a06233681665,64dc7f2b274cd767a5864794,,,,,,,sngl,resources/Empty.png,resources/DBN.BMP,Door2,0.351388931,-0.008333333,1,0,0,1.0137,optionRight,20,2205,1,39,0,39,0,1,,,,,,,,,,,,,,,,,,,,,,,,,,,,,,,,,,,,,,,
,,,,,,,,2023-08-16_08h50.43.291,HF_wild_card,2022.2.4,Win32,59.99160118,63d12557d1c4aa48a49259ee,64d2fd46c836a06233681665,64dc7f2b274cd767a5864794,,,,,,,sngl,resources/DR.BMP,resources/Empty.png,WildCard_Ex,-0.417361101,-0.035416667,1,0,0,0.7118,optionLeft,95,2300,1,40,0,40,0,1,,,,,,,,,,,,,,,,,,,,,,,,,,,,,,,,,,,,,,,
,,,,,,,,2023-08-16_08h50.43.291,HF_wild_card,2022.2.4,Win32,59.99160118,63d12557d1c4aa48a49259ee,64d2fd46c836a06233681665,64dc7f2b274cd767a5864794,,,,,,,decisionTrl,resources/DP.BMP,resources/DBN.BMP,Door1,-0.378472201,-0.03125,1,0,0,1.8287,optionLeft,30,2330,1,41,0,41,0,1,,,,,,,,,,,,,,,,,,,,,,,,,,,,,,,,,,,,,,,
,,,,,,,,2023-08-16_08h50.43.291,HF_wild_card,2022.2.4,Win32,59.99160118,63d12557d1c4aa48a49259ee,64d2fd46c836a06233681665,64dc7f2b274cd767a5864794,,,,,,,ctch,resources/DG.BMP,resources/DP.BMP,Door4,-0.304861101,-0.090277799,1,0,0,1.2951,optionLeft,80,2410,1,42,0,42,0,1,,,,,,,,,,,,,,,,,,,,,,,,,,,,,,,,,,,,,,,
,,,,,,,,2023-08-16_08h50.43.291,HF_wild_card,2022.2.4,Win32,59.99160118,63d12557d1c4aa48a49259ee,64d2fd46c836a06233681665,64dc7f2b274cd767a5864794,,,,,,,decisionTrl,resources/DBN.BMP,resources/DP.BMP,Door2,-0.35625,0.023611101,1,0,0,1.6466,optionLeft,20,2430,1,43,0,43,0,1,,,,,,,,,,,,,,,,,,,,,,,,,,,,,,,,,,,,,,,
,,,,,,,,2023-08-16_08h50.43.291,HF_wild_card,2022.2.4,Win32,59.99160118,63d12557d1c4aa48a49259ee,64d2fd46c836a06233681665,64dc7f2b274cd767a5864794,,,,,,,,,,,,,,,,,,,,,,,,,,0,0,0,0,1,,,,,,,,,,,,,,,,,,,,,,,,,,,,,,,,,,
,,,,,,,,2023-08-16_08h50.43.291,HF_wild_card,2022.2.4,Win32,59.99160118,63d12557d1c4aa48a49259ee,64d2fd46c836a06233681665,64dc7f2b274cd767a5864794,,,,,,,decisionTrl,resources/DP.BMP,resources/DR.BMP,WildCard_Ex,0.363194529,-0.021527799,1,0,0,1.2389,optionRight,5,2435,2,0,0,0,0,1,,,,,,,,,,,,,,,,,,,,,,,,,,,,,,,,,,,,,,,
,,,,,,,,2023-08-16_08h50.43.291,HF_wild_card,2022.2.4,Win32,59.99160118,63d12557d1c4aa48a49259ee,64d2fd46c836a06233681665,64dc7f2b274cd767a5864794,,,,,,,decisionTrl,resources/DY.BMP,resources/DR.BMP,Door3,-0.3,-0.077777799,1,0,0,1.5599,optionLeft,70,2505,2,1,0,1,0,1,,,,,,,,,,,,,,,,,,,,,,,,,,,,,,,,,,,,,,,
,,,,,,,,2023-08-16_08h50.43.291,HF_wild_card,2022.2.4,Win32,59.99160118,63d12557d1c4aa48a49259ee,64d2fd46c836a06233681665,64dc7f2b274cd767a5864794,,,,,,,decisionTrl,resources/DY.BMP,resources/DG.BMP,Door3,-0.384027767,-0.074305598,1,0,0,0.8619,optionLeft,70,2575,2,2,0,2,0,1,,,,,,,,,,,,,,,,,,,,,,,,,,,,,,,,,,,,,,,
,,,,,,,,2023-08-16_08h50.43.291,HF_wild_card,2022.2.4,Win32,59.99160118,63d12557d1c4aa48a49259ee,64d2fd46c836a06233681665,64dc7f2b274cd767a5864794,,,,,,,decisionTrl,resources/DY.BMP,resources/DG.BMP,Door4,0.386111196,0.025,1,0,0,0.6464,optionRight,80,2655,2,3,0,3,0,1,,,,,,,,,,,,,,,,,,,,,,,,,,,,,,,,,,,,,,,
,,,,,,,,2023-08-16_08h50.43.291,HF_wild_card,2022.2.4,Win32,59.99160118,63d12557d1c4aa48a49259ee,64d2fd46c836a06233681665,64dc7f2b274cd767a5864794,,,,,,,sngl,resources/DBN.BMP,resources/Empty.png,Door2,-0.376388868,-0.04375,1,0,0,0.879,optionLeft,20,2675,2,4,0,4,0,1,,,,,,,,,,,,,,,,,,,,,,,,,,,,,,,,,,,,,,,
,,,,,,,,2023-08-16_08h50.43.291,HF_wild_card,2022.2.4,Win32,59.99160118,63d12557d1c4aa48a49259ee,64d2fd46c836a06233681665,64dc7f2b274cd767a5864794,,,,,,,decisionTrl,resources/DBN.BMP,resources/DP.BMP,Door1,0.433333333,-0.070833333,1,0,0,1.395,optionRight,30,2705,2,5,0,5,0,1,,,,,,,,,,,,,,,,,,,,,,,,,,,,,,,,,,,,,,,
,,,,,,,,2023-08-16_08h50.43.291,HF_wild_card,2022.2.4,Win32,59.99160118,63d12557d1c4aa48a49259ee,64d2fd46c836a06233681665,64dc7f2b274cd767a5864794,,,,,,,decisionTrl,resources/DP.BMP,resources/DBN.BMP,Door1,-0.313888868,-0.063888931,1,0,0,1.3617,optionLeft,30,2735,2,6,0,6,0,1,,,,,,,,,,,,,,,,,,,,,,,,,,,,,,,,,,,,,,,
,,,,,,,,2023-08-16_08h50.43.291,HF_wild_card,2022.2.4,Win32,59.99160118,63d12557d1c4aa48a49259ee,64d2fd46c836a06233681665,64dc7f2b274cd767a5864794,,,,,,,ctch,resources/DG.BMP,resources/DP.BMP,Door4,-0.247222201,-0.032638899,1,0,0,1.1306,optionLeft,60,2795,2,7,0,7,0,1,,,,,,,,,,,,,,,,,,,,,,,,,,,,,,,,,,,,,,,
,,,,,,,,2023-08-16_08h50.43.291,HF_wild_card,2022.2.4,Win32,59.99160118,63d12557d1c4aa48a49259ee,64d2fd46c836a06233681665,64dc7f2b274cd767a5864794,,,,,,,decisionTrl,resources/DBN.BMP,resources/DP.BMP,Door2,-0.225,-0.069444466,1,0,0,1.1443,optionLeft,20,2815,2,8,0,8,0,1,,,,,,,,,,,,,,,,,,,,,,,,,,,,,,,,,,,,,,,
,,,,,,,,2023-08-16_08h50.43.291,HF_wild_card,2022.2.4,Win32,59.99160118,63d12557d1c4aa48a49259ee,64d2fd46c836a06233681665,64dc7f2b274cd767a5864794,,,,,,,sngl,resources/Empty.png,resources/DR.BMP,WildCard_Ex,0.293055598,-0.009722233,1,0,0,0.7782,optionRight,5,2820,2,9,0,9,0,1,,,,,,,,,,,,,,,,,,,,,,,,,,,,,,,,,,,,,,,
,,,,,,,,2023-08-16_08h50.43.291,HF_wild_card,2022.2.4,Win32,59.99160118,63d12557d1c4aa48a49259ee,64d2fd46c836a06233681665,64dc7f2b274cd767a5864794,,,,,,,ctch,resources/DBN.BMP,resources/DY.BMP,Door3,0.404861196,-0.084027799,1,0,0,0.8616,optionRight,70,2890,2,10,0,10,0,1,,,,,,,,,,,,,,,,,,,,,,,,,,,,,,,,,,,,,,,
,,,,,,,,2023-08-16_08h50.43.291,HF_wild_card,2022.2.4,Win32,59.99160118,63d12557d1c4aa48a49259ee,64d2fd46c836a06233681665,64dc7f2b274cd767a5864794,,,,,,,sngl,resources/Empty.png,resources/DG.BMP,Door4,0.231944466,-0.0125,1,0,0,0.743,optionRight,80,2970,2,11,0,11,0,1,,,,,,,,,,,,,,,,,,,,,,,,,,,,,,,,,,,,,,,
,,,,,,,,2023-08-16_08h50.43.291,HF_wild_card,2022.2.4,Win32,59.99160118,63d12557d1c4aa48a49259ee,64d2fd46c836a06233681665,64dc7f2b274cd767a5864794,,,,,,,sngl,resources/DR.BMP,resources/Empty.png,WildCard_Ex,-0.383333333,-0.038194466,1,0,0,0.6946,optionLeft,95,3065,2,12,0,12,0,1,,,,,,,,,,,,,,,,,,,,,,,,,,,,,,,,,,,,,,,
,,,,,,,,2023-08-16_08h50.43.291,HF_wild_card,2022.2.4,Win32,59.99160118,63d12557d1c4aa48a49259ee,64d2fd46c836a06233681665,64dc7f2b274cd767a5864794,,,,,,,decisionTrl,resources/DP.BMP,resources/DBN.BMP,Door1,-0.54305555,-0.002083333,1,0,0,3.1927,optionLeft,30,3095,2,13,0,13,0,1,,,,,,,,,,,,,,,,,,,,,,,,,,,,,,,,,,,,,,,
,,,,,,,,2023-08-16_08h50.43.291,HF_wild_card,2022.2.4,Win32,59.99160118,63d12557d1c4aa48a49259ee,64d2fd46c836a06233681665,64dc7f2b274cd767a5864794,,,,,,,ctch,resources/DBN.BMP,resources/DY.BMP,Door3,0.425,-0.074305598,1,0,0,1.0788,optionRight,70,3165,2,14,0,14,0,1,,,,,,,,,,,,,,,,,,,,,,,,,,,,,,,,,,,,,,,
,,,,,,,,2023-08-16_08h50.43.291,HF_wild_card,2022.2.4,Win32,59.99160118,63d12557d1c4aa48a49259ee,64d2fd46c836a06233681665,64dc7f2b274cd767a5864794,,,,,,,decisionTrl,resources/DG.BMP,resources/DY.BMP,Door3,0.411111196,-0.052083333,1,0,0,0.7945,optionRight,70,3235,2,15,0,15,0,1,,,,,,,,,,,,,,,,,,,,,,,,,,,,,,,,,,,,,,,
,,,,,,,,2023-08-16_08h50.43.291,HF_wild_card,2022.2.4,Win32,59.99160118,63d12557d1c4aa48a49259ee,64d2fd46c836a06233681665,64dc7f2b274cd767a5864794,,,,,,,sngl,resources/DP.BMP,resources/Empty.png,Door1,-0.373611101,-0.002083333,1,0,0,0.8298,optionLeft,30,3265,2,16,0,16,0,1,,,,,,,,,,,,,,,,,,,,,,,,,,,,,,,,,,,,,,,
,,,,,,,,2023-08-16_08h50.43.291,HF_wild_card,2022.2.4,Win32,59.99160118,63d12557d1c4aa48a49259ee,64d2fd46c836a06233681665,64dc7f2b274cd767a5864794,,,,,,,decisionTrl,resources/DP.BMP,resources/DBN.BMP,Door1,-0.350694434,-0.040972265,1,0,0,1.9258,optionLeft,30,3295,2,17,0,17,0,1,,,,,,,,,,,,,,,,,,,,,,,,,,,,,,,,,,,,,,,
,,,,,,,,2023-08-16_08h50.43.291,HF_wild_card,2022.2.4,Win32,59.99160118,63d12557d1c4aa48a49259ee,64d2fd46c836a06233681665,64dc7f2b274cd767a5864794,,,,,,,decisionTrl,resources/DR.BMP,resources/DBN.BMP,WildCard_Ex,-0.297222201,-0.042361132,1,0,0,1.2794,optionLeft,5,3300,2,18,0,18,0,1,,,,,,,,,,,,,,,,,,,,,,,,,,,,,,,,,,,,,,,
,,,,,,,,2023-08-16_08h50.43.291,HF_wild_card,2022.2.4,Win32,59.99160118,63d12557d1c4aa48a49259ee,64d2fd46c836a06233681665,64dc7f2b274cd767a5864794,,,,,,,ctch,resources/DP.BMP,resources/DG.BMP,Door4,0.304166667,-0.061805598,1,0,0,2.6227,optionRight,80,3380,2,19,0,19,0,1,,,,,,,,,,,,,,,,,,,,,,,,,,,,,,,,,,,,,,,
,,,,,,,,2023-08-16_08h50.43.291,HF_wild_card,2022.2.4,Win32,59.99160118,63d12557d1c4aa48a49259ee,64d2fd46c836a06233681665,64dc7f2b274cd767a5864794,,,,,,,sngl,resources/Empty.png,resources/DR.BMP,WildCard_Ex,0.31875,-0.010416667,1,0,0,1.411,optionRight,95,3475,2,20,0,20,0,1,,,,,,,,,,,,,,,,,,,,,,,,,,,,,,,,,,,,,,,
,,,,,,,,2023-08-16_08h50.43.291,HF_wild_card,2022.2.4,Win32,59.99160118,63d12557d1c4aa48a49259ee,64d2fd46c836a06233681665,64dc7f2b274cd767a5864794,,,,,,,decisionTrl,resources/DG.BMP,resources/DY.BMP,Door3,0.342361196,-0.049305598,1,0,0,3.0073,optionRight,70,3545,2,21,0,21,0,1,,,,,,,,,,,,,,,,,,,,,,,,,,,,,,,,,,,,,,,
,,,,,,,,2023-08-16_08h50.43.291,HF_wild_card,2022.2.4,Win32,59.99160118,63d12557d1c4aa48a49259ee,64d2fd46c836a06233681665,64dc7f2b274cd767a5864794,,,,,,,ctch,resources/DP.BMP,resources/DG.BMP,Door4,0.227083333,-0.033333333,1,0,0,2.0633,optionRight,80,3625,2,22,0,22,0,1,,,,,,,,,,,,,,,,,,,,,,,,,,,,,,,,,,,,,,,
,,,,,,,,2023-08-16_08h50.43.291,HF_wild_card,2022.2.4,Win32,59.99160118,63d12557d1c4aa48a49259ee,64d2fd46c836a06233681665,64dc7f2b274cd767a5864794,,,,,,,sngl,resources/Empty.png,resources/DBN.BMP,Door2,0.275694466,-0.023611132,1,0,0,1.1432,optionRight,40,3665,2,23,0,23,0,1,,,,,,,,,,,,,,,,,,,,,,,,,,,,,,,,,,,,,,,
,,,,,,,,2023-08-16_08h50.43.291,HF_wild_card,2022.2.4,Win32,59.99160118,63d12557d1c4aa48a49259ee,64d2fd46c836a06233681665,64dc7f2b274cd767a5864794,,,,,,,ctch,resources/DY.BMP,resources/DBN.BMP,Door3,-0.377083333,-0.055555598,1,0,0,1.1151,optionLeft,70,3735,2,24,0,24,0,1,,,,,,,,,,,,,,,,,,,,,,,,,,,,,,,,,,,,,,,
,,,,,,,,2023-08-16_08h50.43.291,HF_wild_card,2022.2.4,Win32,59.99160118,63d12557d1c4aa48a49259ee,64d2fd46c836a06233681665,64dc7f2b274cd767a5864794,,,,,,,decisionTrl,resources/DBN.BMP,resources/DP.BMP,Door2,-0.450694434,-0.070833333,1,0,0,0.8803,optionLeft,40,3775,2,25,0,25,0,1,,,,,,,,,,,,,,,,,,,,,,,,,,,,,,,,,,,,,,,
,,,,,,,,2023-08-16_08h50.43.291,HF_wild_card,2022.2.4,Win32,59.99160118,63d12557d1c4aa48a49259ee,64d2fd46c836a06233681665,64dc7f2b274cd767a5864794,,,,,,,ctch,resources/DY.BMP,resources/DBN.BMP,Door3,-0.404861101,-0.130555598,1,0,0,0.8285,optionLeft,70,3845,2,26,0,26,0,1,,,,,,,,,,,,,,,,,,,,,,,,,,,,,,,,,,,,,,,
,,,,,,,,2023-08-16_08h50.43.291,HF_wild_card,2022.2.4,Win32,59.99160118,63d12557d1c4aa48a49259ee,64d2fd46c836a06233681665,64dc7f2b274cd767a5864794,,,,,,,sngl,resources/DG.BMP,resources/Empty.png,Door4,-0.327083333,-0.058333333,1,0,0,0.7123,optionLeft,60,3905,2,27,0,27,0,1,,,,,,,,,,,,,,,,,,,,,,,,,,,,,,,,,,,,,,,
,,,,,,,,2023-08-16_08h50.43.291,HF_wild_card,2022.2.4,Win32,59.99160118,63d12557d1c4aa48a49259ee,64d2fd46c836a06233681665,64dc7f2b274cd767a5864794,,,,,,,sngl,resources/Empty.png,resources/DP.BMP,Door1,0.3625,0.016666667,1,0,0,0.7463,optionRight,30,3935,2,28,0,28,0,1,,,,,,,,,,,,,,,,,,,,,,,,,,,,,,,,,,,,,,,
,,,,,,,,2023-08-16_08h50.43.291,HF_wild_card,2022.2.4,Win32,59.99160118,63d12557d1c4aa48a49259ee,64d2fd46c836a06233681665,64dc7f2b274cd767a5864794,,,,,,,sngl,resources/Empty.png,resources/DY.BMP,Door3,0.28125,-0.014583333,1,0,0,0.7267,optionRight,70,4005,2,29,0,29,0,1,,,,,,,,,,,,,,,,,,,,,,,,,,,,,,,,,,,,,,,
,,,,,,,,2023-08-16_08h50.43.291,HF_wild_card,2022.2.4,Win32,59.99160118,63d12557d1c4aa48a49259ee,64d2fd46c836a06233681665,64dc7f2b274cd767a5864794,,,,,,,decisionTrl,resources/DG.BMP,resources/DY.BMP,Door3,0.340277863,-0.039583333,1,0,0,1.3474,optionRight,70,4075,2,30,0,30,0,1,,,,,,,,,,,,,,,,,,,,,,,,,,,,,,,,,,,,,,,
,,,,,,,,2023-08-16_08h50.43.291,HF_wild_card,2022.2.4,Win32,59.99160118,63d12557d1c4aa48a49259ee,64d2fd46c836a06233681665,64dc7f2b274cd767a5864794,,,,,,,decisionTrl,resources/DY.BMP,resources/DG.BMP,Door3,-0.255555534,-0.041666667,1,0,0,0.7944,optionLeft,70,4145,2,31,0,31,0,1,,,,,,,,,,,,,,,,,,,,,,,,,,,,,,,,,,,,,,,
,,,,,,,,2023-08-16_08h50.43.291,HF_wild_card,2022.2.4,Win32,59.99160118,63d12557d1c4aa48a49259ee,64d2fd46c836a06233681665,64dc7f2b274cd767a5864794,,,,,,,decisionTrl,resources/DR.BMP,resources/DY.BMP,WildCard_Ex,-0.272222201,-0.059027799,1,0,0,1.9937,optionLeft,95,4240,2,32,0,32,0,1,,,,,,,,,,,,,,,,,,,,,,,,,,,,,,,,,,,,,,,
,,,,,,,,2023-08-16_08h50.43.291,HF_wild_card,2022.2.4,Win32,59.99160118,63d12557d1c4aa48a49259ee,64d2fd46c836a06233681665,64dc7f2b274cd767a5864794,,,,,,,decisionTrl,resources/DP.BMP,resources/DBN.BMP,Door2,0.39375,0.057638868,1,0,0,3.6951,optionRight,40,4280,2,33,0,33,0,1,,,,,,,,,,,,,,,,,,,,,,,,,,,,,,,,,,,,,,,
,,,,,,,,2023-08-16_08h50.43.291,HF_wild_card,2022.2.4,Win32,59.99160118,63d12557d1c4aa48a49259ee,64d2fd46c836a06233681665,64dc7f2b274cd767a5864794,,,,,,,decisionTrl,resources/DR.BMP,resources/DG.BMP,WildCard_Ex,-0.289583333,-0.080555598,1,0,0,1.675,optionLeft,95,4375,2,34,0,34,0,1,,,,,,,,,,,,,,,,,,,,,,,,,,,,,,,,,,,,,,,
,,,,,,,,2023-08-16_08h50.43.291,HF_wild_card,2022.2.4,Win32,59.99160118,63d12557d1c4aa48a49259ee,64d2fd46c836a06233681665,64dc7f2b274cd767a5864794,,,,,,,decisionTrl,resources/DBN.BMP,resources/DP.BMP,Door2,-0.178472201,-0.025694466,1,0,0,1.5767,optionLeft,20,4395,2,35,0,35,0,1,,,,,,,,,,,,,,,,,,,,,,,,,,,,,,,,,,,,,,,
,,,,,,,,2023-08-16_08h50.43.291,HF_wild_card,2022.2.4,Win32,59.99160118,63d12557d1c4aa48a49259ee,64d2fd46c836a06233681665,64dc7f2b274cd767a5864794,,,,,,,decisionTrl,resources/DY.BMP,resources/DG.BMP,Door3,-0.201388868,-0.029861132,1,0,0,1.0628,optionLeft,70,4465,2,36,0,36,0,1,,,,,,,,,,,,,,,,,,,,,,,,,,,,,,,,,,,,,,,
,,,,,,,,2023-08-16_08h50.43.291,HF_wild_card,2022.2.4,Win32,59.99160118,63d12557d1c4aa48a49259ee,64d2fd46c836a06233681665,64dc7f2b274cd767a5864794,,,,,,,decisionTrl,resources/DBN.BMP,resources/DR.BMP,WildCard_Ex,0.327777863,-0.08125,1,0,0,1.6285,optionRight,95,4560,2,37,0,37,0,1,,,,,,,,,,,,,,,,,,,,,,,,,,,,,,,,,,,,,,,
,,,,,,,,2023-08-16_08h50.43.291,HF_wild_card,2022.2.4,Win32,59.99160118,63d12557d1c4aa48a49259ee,64d2fd46c836a06233681665,64dc7f2b274cd767a5864794,,,,,,,decisionTrl,resources/DR.BMP,resources/DP.BMP,WildCard_Ex,-0.191666667,-0.038194466,1,0,0,0.8416,optionLeft,5,4565,2,38,0,38,0,1,,,,,,,,,,,,,,,,,,,,,,,,,,,,,,,,,,,,,,,
,,,,,,,,2023-08-16_08h50.43.291,HF_wild_card,2022.2.4,Win32,59.99160118,63d12557d1c4aa48a49259ee,64d2fd46c836a06233681665,64dc7f2b274cd767a5864794,,,,,,,sngl,resources/DY.BMP,resources/Empty.png,Door3,-0.206944402,-0.009722233,1,0,0,0.812,optionLeft,70,4635,2,39,0,39,0,1,,,,,,,,,,,,,,,,,,,,,,,,,,,,,,,,,,,,,,,
,,,,,,,,2023-08-16_08h50.43.291,HF_wild_card,2022.2.4,Win32,59.99160118,63d12557d1c4aa48a49259ee,64d2fd46c836a06233681665,64dc7f2b274cd767a5864794,,,,,,,sngl,resources/DR.BMP,resources/Empty.png,WildCard_Ex,-0.184027735,-0.029861132,1,0,0,0.7626,optionLeft,5,4640,2,40,0,40,0,1,,,,,,,,,,,,,,,,,,,,,,,,,,,,,,,,,,,,,,,
,,,,,,,,2023-08-16_08h50.43.291,HF_wild_card,2022.2.4,Win32,59.99160118,63d12557d1c4aa48a49259ee,64d2fd46c836a06233681665,64dc7f2b274cd767a5864794,,,,,,,decisionTrl,resources/DG.BMP,resources/DY.BMP,Door3,0.227777799,-0.029861132,1,0,0,1.0585,optionRight,70,4710,2,41,0,41,0,1,,,,,,,,,,,,,,,,,,,,,,,,,,,,,,,,,,,,,,,
,,,,,,,,2023-08-16_08h50.43.291,HF_wild_card,2022.2.4,Win32,59.99160118,63d12557d1c4aa48a49259ee,64d2fd46c836a06233681665,64dc7f2b274cd767a5864794,,,,,,,ctch,resources/DG.BMP,resources/DP.BMP,Door4,-0.238888868,-0.0625,1,0,0,1.1603,optionLeft,60,4770,2,42,0,42,0,1,,,,,,,,,,,,,,,,,,,,,,,,,,,,,,,,,,,,,,,
,,,,,,,,2023-08-16_08h50.43.291,HF_wild_card,2022.2.4,Win32,59.99160118,63d12557d1c4aa48a49259ee,64d2fd46c836a06233681665,64dc7f2b274cd767a5864794,,,,,,,decisionTrl,resources/DG.BMP,resources/DR.BMP,Door4,-0.110416667,-0.045833333,1,0,0,1.5449,optionLeft,60,4830,2,43,0,43,0,1,,,,,,,,,,,,,,,,,,,,,,,,,,,,,,,,,,,,,,,
,,,,,,,,2023-08-16_08h50.43.291,HF_wild_card,2022.2.4,Win32,59.99160118,63d12557d1c4aa48a49259ee,64d2fd46c836a06233681665,64dc7f2b274cd767a5864794,,,,,,,,,,,,,,,,,,,,,,,,,,1,0,1,0,1,,,,,,,,,,,,,,,,,,,,,,,,,,,,,,,,,,
,,,,,,,,2023-08-16_08h50.43.291,HF_wild_card,2022.2.4,Win32,59.99160118,63d12557d1c4aa48a49259ee,64d2fd46c836a06233681665,64dc7f2b274cd767a5864794,,,,,,,ctch,resources/DP.BMP,resources/DG.BMP,Door4,0.492361196,-0.034722265,1,0,0,2.1845,optionRight,80,4910,3,0,0,0,0,1,,,,,,,,,,,,,,,,,,,,,,,,,,,,,,,,,,,,,,,
,,,,,,,,2023-08-16_08h50.43.291,HF_wild_card,2022.2.4,Win32,59.99160118,63d12557d1c4aa48a49259ee,64d2fd46c836a06233681665,64dc7f2b274cd767a5864794,,,,,,,decisionTrl,resources/DBN.BMP,resources/DR.BMP,WildCard_Ex,0.292361132,-0.054861132,1,0,0,1.26,optionRight,95,5005,3,1,0,1,0,1,,,,,,,,,,,,,,,,,,,,,,,,,,,,,,,,,,,,,,,
,,,,,,,,2023-08-16_08h50.43.291,HF_wild_card,2022.2.4,Win32,59.99160118,63d12557d1c4aa48a49259ee,64d2fd46c836a06233681665,64dc7f2b274cd767a5864794,,,,,,,ctch,resources/DP.BMP,resources/DG.BMP,Door4,0.230555598,-0.020833333,1,0,0,1.463,optionRight,80,5085,3,2,0,2,0,1,,,,,,,,,,,,,,,,,,,,,,,,,,,,,,,,,,,,,,,
,,,,,,,,2023-08-16_08h50.43.291,HF_wild_card,2022.2.4,Win32,59.99160118,63d12557d1c4aa48a49259ee,64d2fd46c836a06233681665,64dc7f2b274cd767a5864794,,,,,,,sngl,resources/DG.BMP,resources/Empty.png,Door4,-0.116666667,-0.022916667,1,0,0,0.9263,optionLeft,80,5165,3,3,0,3,0,1,,,,,,,,,,,,,,,,,,,,,,,,,,,,,,,,,,,,,,,
,,,,,,,,2023-08-16_08h50.43.291,HF_wild_card,2022.2.4,Win32,59.99160118,63d12557d1c4aa48a49259ee,64d2fd46c836a06233681665,64dc7f2b274cd767a5864794,,,,,,,decisionTrl,resources/DG.BMP,resources/DY.BMP,Door3,0.304166667,-0.036805598,1,0,0,0.9108,optionRight,70,5235,3,4,0,4,0,1,,,,,,,,,,,,,,,,,,,,,,,,,,,,,,,,,,,,,,,
,,,,,,,,2023-08-16_08h50.43.291,HF_wild_card,2022.2.4,Win32,59.99160118,63d12557d1c4aa48a49259ee,64d2fd46c836a06233681665,64dc7f2b274cd767a5864794,,,,,,,decisionTrl,resources/DY.BMP,resources/DG.BMP,Door4,0.228472265,-0.055555598,1,0,0,0.8294,optionRight,60,5295,3,5,0,5,0,1,,,,,,,,,,,,,,,,,,,,,,,,,,,,,,,,,,,,,,,
,,,,,,,,2023-08-16_08h50.43.291,HF_wild_card,2022.2.4,Win32,59.99160118,63d12557d1c4aa48a49259ee,64d2fd46c836a06233681665,64dc7f2b274cd767a5864794,,,,,,,decisionTrl,resources/DBN.BMP,resources/DP.BMP,Door2,-0.16875,-0.028472233,1,0,0,2.1739,optionLeft,20,5315,3,6,0,6,0,1,,,,,,,,,,,,,,,,,,,,,,,,,,,,,,,,,,,,,,,
,,,,,,,,2023-08-16_08h50.43.291,HF_wild_card,2022.2.4,Win32,59.99160118,63d12557d1c4aa48a49259ee,64d2fd46c836a06233681665,64dc7f2b274cd767a5864794,,,,,,,decisionTrl,resources/DBN.BMP,resources/DP.BMP,Door1,0.288194466,-0.010416667,1,0,0,0.626,optionRight,30,5345,3,7,0,7,0,1,,,,,,,,,,,,,,,,,,,,,,,,,,,,,,,,,,,,,,,
,,,,,,,,2023-08-16_08h50.43.291,HF_wild_card,2022.2.4,Win32,59.99160118,63d12557d1c4aa48a49259ee,64d2fd46c836a06233681665,64dc7f2b274cd767a5864794,,,,,,,ctch,resources/DG.BMP,resources/DP.BMP,Door4,-0.240972201,-0.05,1,0,0,1.4951,optionLeft,80,5425,3,8,0,8,0,1,,,,,,,,,,,,,,,,,,,,,,,,,,,,,,,,,,,,,,,
,,,,,,,,2023-08-16_08h50.43.291,HF_wild_card,2022.2.4,Win32,59.99160118,63d12557d1c4aa48a49259ee,64d2fd46c836a06233681665,64dc7f2b274cd767a5864794,,,,,,,sngl,resources/DBN.BMP,resources/Empty.png,Door2,-0.172916667,-0.018055566,1,0,0,0.7139,optionLeft,40,5465,3,9,0,9,0,1,,,,,,,,,,,,,,,,,,,,,,,,,,,,,,,,,,,,,,,
,,,,,,,,2023-08-16_08h50.43.291,HF_wild_card,2022.2.4,Win32,59.99160118,63d12557d1c4aa48a49259ee,64d2fd46c836a06233681665,64dc7f2b274cd767a5864794,,,,,,,decisionTrl,resources/DG.BMP,resources/DY.BMP,Door3,0.273611132,-0.047222265,1,0,0,0.7622,optionRight,70,5535,3,10,0,10,0,1,,,,,,,,,,,,,,,,,,,,,,,,,,,,,,,,,,,,,,,
,,,,,,,,2023-08-16_08h50.43.291,HF_wild_card,2022.2.4,Win32,59.99160118,63d12557d1c4aa48a49259ee,64d2fd46c836a06233681665,64dc7f2b274cd767a5864794,,,,,,,sngl,resources/Empty.png,resources/DP.BMP,Door1,0.247916667,-0.041666667,1,0,0,0.713,optionRight,30,5565,3,11,0,11,0,1,,,,,,,,,,,,,,,,,,,,,,,,,,,,,,,,,,,,,,,
,,,,,,,,2023-08-16_08h50.43.291,HF_wild_card,2022.2.4,Win32,59.99160118,63d12557d1c4aa48a49259ee,64d2fd46c836a06233681665,64dc7f2b274cd767a5864794,,,,,,,decisionTrl,resources/DP.BMP,resources/DR.BMP,WildCard_Ex,0.236111132,-0.041666667,1,0,0,1.2805,optionRight,95,5660,3,12,0,12,0,1,,,,,,,,,,,,,,,,,,,,,,,,,,,,,,,,,,,,,,,
,,,,,,,,2023-08-16_08h50.43.291,HF_wild_card,2022.2.4,Win32,59.99160118,63d12557d1c4aa48a49259ee,64d2fd46c836a06233681665,64dc7f2b274cd767a5864794,,,,,,,ctch,resources/DY.BMP,resources/DBN.BMP,Door3,-0.24375,-0.045138931,1,0,0,1.3912,optionLeft,70,5730,3,13,0,13,0,1,,,,,,,,,,,,,,,,,,,,,,,,,,,,,,,,,,,,,,,
,,,,,,,,2023-08-16_08h50.43.291,HF_wild_card,2022.2.4,Win32,59.99160118,63d12557d1c4aa48a49259ee,64d2fd46c836a06233681665,64dc7f2b274cd767a5864794,,,,,,,decisionTrl,resources/DR.BMP,resources/DG.BMP,WildCard_Ex,-0.236111101,-0.053472265,1,0,0,1.1501,optionLeft,5,5735,3,14,0,14,0,1,,,,,,,,,,,,,,,,,,,,,,,,,,,,,,,,,,,,,,,
,,,,,,,,2023-08-16_08h50.43.291,HF_wild_card,2022.2.4,Win32,59.99160118,63d12557d1c4aa48a49259ee,64d2fd46c836a06233681665,64dc7f2b274cd767a5864794,,,,,,,decisionTrl,resources/DY.BMP,resources/DR.BMP,Door3,-0.195138868,-0.076388931,1,0,0,2.405,optionLeft,70,5805,3,15,0,15,0,1,,,,,,,,,,,,,,,,,,,,,,,,,,,,,,,,,,,,,,,
,,,,,,,,2023-08-16_08h50.43.291,HF_wild_card,2022.2.4,Win32,59.99160118,63d12557d1c4aa48a49259ee,64d2fd46c836a06233681665,64dc7f2b274cd767a5864794,,,,,,,decisionTrl,resources/DG.BMP,resources/DY.BMP,Door4,-0.21875,-0.097916667,1,0,0,1.3489,optionLeft,60,5865,3,16,0,16,0,1,,,,,,,,,,,,,,,,,,,,,,,,,,,,,,,,,,,,,,,
,,,,,,,,2023-08-16_08h50.43.291,HF_wild_card,2022.2.4,Win32,59.99160118,63d12557d1c4aa48a49259ee,64d2fd46c836a06233681665,64dc7f2b274cd767a5864794,,,,,,,ctch,resources/DG.BMP,resources/DP.BMP,Door4,-0.170138868,-0.052083333,1,0,0,1.4107,optionLeft,80,5945,3,17,0,17,0,1,,,,,,,,,,,,,,,,,,,,,,,,,,,,,,,,,,,,,,,
,,,,,,,,2023-08-16_08h50.43.291,HF_wild_card,2022.2.4,Win32,59.99160118,63d12557d1c4aa48a49259ee,64d2fd46c836a06233681665,64dc7f2b274cd767a5864794,,,,,,,sngl,resources/Empty.png,resources/DR.BMP,WildCard_Ex,0.314583333,-0.006944466,1,0,0,0.661,optionRight,95,6040,3,18,0,18,0,1,,,,,,,,,,,,,,,,,,,,,,,,,,,,,,,,,,,,,,,
,,,,,,,,2023-08-16_08h50.43.291,HF_wild_card,2022.2.4,Win32,59.99160118,63d12557d1c4aa48a49259ee,64d2fd46c836a06233681665,64dc7f2b274cd767a5864794,,,,,,,sngl,resources/DP.BMP,resources/Empty.png,Door1,-0.200694402,-0.009027799,1,0,0,0.6761,optionLeft,30,6070,3,19,0,19,0,1,,,,,,,,,,,,,,,,,,,,,,,,,,,,,,,,,,,,,,,
,,,,,,,,2023-08-16_08h50.43.291,HF_wild_card,2022.2.4,Win32,59.99160118,63d12557d1c4aa48a49259ee,64d2fd46c836a06233681665,64dc7f2b274cd767a5864794,,,,,,,decisionTrl,resources/DR.BMP,resources/DY.BMP,WildCard_Ex,-0.179166667,-0.059722265,1,0,0,0.6985,optionLeft,5,6075,3,20,0,20,0,1,,,,,,,,,,,,,,,,,,,,,,,,,,,,,,,,,,,,,,,
,,,,,,,,2023-08-16_08h50.43.291,HF_wild_card,2022.2.4,Win32,59.99160118,63d12557d1c4aa48a49259ee,64d2fd46c836a06233681665,64dc7f2b274cd767a5864794,,,,,,,ctch,resources/DBN.BMP,resources/DY.BMP,Door3,0.280555598,-0.039583333,1,0,0,0.594,optionRight,70,6145,3,21,0,21,0,1,,,,,,,,,,,,,,,,,,,,,,,,,,,,,,,,,,,,,,,
,,,,,,,,2023-08-16_08h50.43.291,HF_wild_card,2022.2.4,Win32,59.99160118,63d12557d1c4aa48a49259ee,64d2fd46c836a06233681665,64dc7f2b274cd767a5864794,,,,,,,ctch,resources/DBN.BMP,resources/DY.BMP,Door3,0.242361132,-0.052777799,1,0,0,0.7096,optionRight,70,6215,3,22,0,22,0,1,,,,,,,,,,,,,,,,,,,,,,,,,,,,,,,,,,,,,,,
,,,,,,,,2023-08-16_08h50.43.291,HF_wild_card,2022.2.4,Win32,59.99160118,63d12557d1c4aa48a49259ee,64d2fd46c836a06233681665,64dc7f2b274cd767a5864794,,,,,,,decisionTrl,resources/DP.BMP,resources/DBN.BMP,Door1,-0.329166667,-0.101388931,1,0,0,2.2755,optionLeft,30,6245,3,23,0,23,0,1,,,,,,,,,,,,,,,,,,,,,,,,,,,,,,,,,,,,,,,
,,,,,,,,2023-08-16_08h50.43.291,HF_wild_card,2022.2.4,Win32,59.99160118,63d12557d1c4aa48a49259ee,64d2fd46c836a06233681665,64dc7f2b274cd767a5864794,,,,,,,sngl,resources/DR.BMP,resources/Empty.png,WildCard_Ex,-0.170138868,-0.003472233,1,0,0,0.6756,optionLeft,5,6250,3,24,0,24,0,1,,,,,,,,,,,,,,,,,,,,,,,,,,,,,,,,,,,,,,,
,,,,,,,,2023-08-16_08h50.43.291,HF_wild_card,2022.2.4,Win32,59.99160118,63d12557d1c4aa48a49259ee,64d2fd46c836a06233681665,64dc7f2b274cd767a5864794,,,,,,,sngl,resources/DR.BMP,resources/Empty.png,WildCard_Ex,-0.135416667,0.006944434,1,0,0,0.6447,optionLeft,95,6345,3,25,0,25,0,1,,,,,,,,,,,,,,,,,,,,,,,,,,,,,,,,,,,,,,,
,,,,,,,,2023-08-16_08h50.43.291,HF_wild_card,2022.2.4,Win32,59.99160118,63d12557d1c4aa48a49259ee,64d2fd46c836a06233681665,64dc7f2b274cd767a5864794,,,,,,,decisionTrl,resources/DY.BMP,resources/DG.BMP,Door3,-0.220833333,-0.063194466,1,0,0,0.8594,optionLeft,70,6415,3,26,0,26,0,1,,,,,,,,,,,,,,,,,,,,,,,,,,,,,,,,,,,,,,,
,,,,,,,,2023-08-16_08h50.43.291,HF_wild_card,2022.2.4,Win32,59.99160118,63d12557d1c4aa48a49259ee,64d2fd46c836a06233681665,64dc7f2b274cd767a5864794,,,,,,,decisionTrl,resources/DBN.BMP,resources/DP.BMP,Door1,0.206944466,-0.036111132,1,0,0,2.0293,optionRight,30,6445,3,27,0,27,0,1,,,,,,,,,,,,,,,,,,,,,,,,,,,,,,,,,,,,,,,
,,,,,,,,2023-08-16_08h50.43.291,HF_wild_card,2022.2.4,Win32,59.99160118,63d12557d1c4aa48a49259ee,64d2fd46c836a06233681665,64dc7f2b274cd767a5864794,,,,,,,decisionTrl,resources/DR.BMP,resources/DBN.BMP,WildCard_Ex,-0.261111101,-0.020833333,1,0,0,1.198,optionLeft,95,6540,3,28,0,28,0,1,,,,,,,,,,,,,,,,,,,,,,,,,,,,,,,,,,,,,,,
,,,,,,,,2023-08-16_08h50.43.291,HF_wild_card,2022.2.4,Win32,59.99160118,63d12557d1c4aa48a49259ee,64d2fd46c836a06233681665,64dc7f2b274cd767a5864794,,,,,,,decisionTrl,resources/DP.BMP,resources/DBN.BMP,Door2,0.266666667,-0.004166667,1,0,0,1.8934,optionRight,40,6580,3,29,0,29,0,1,,,,,,,,,,,,,,,,,,,,,,,,,,,,,,,,,,,,,,,
,,,,,,,,2023-08-16_08h50.43.291,HF_wild_card,2022.2.4,Win32,59.99160118,63d12557d1c4aa48a49259ee,64d2fd46c836a06233681665,64dc7f2b274cd767a5864794,,,,,,,sngl,resources/Empty.png,resources/DY.BMP,Door3,0.367361196,-0.092361132,1,0,0,0.6788,optionRight,70,6650,3,30,0,30,0,1,,,,,,,,,,,,,,,,,,,,,,,,,,,,,,,,,,,,,,,
,,,,,,,,2023-08-16_08h50.43.291,HF_wild_card,2022.2.4,Win32,59.99160118,63d12557d1c4aa48a49259ee,64d2fd46c836a06233681665,64dc7f2b274cd767a5864794,,,,,,,decisionTrl,resources/DBN.BMP,resources/DP.BMP,Door1,0.422222265,-0.102777799,1,0,0,4.2757,optionRight,30,6680,3,31,0,31,0,1,,,,,,,,,,,,,,,,,,,,,,,,,,,,,,,,,,,,,,,
,,,,,,,,2023-08-16_08h50.43.291,HF_wild_card,2022.2.4,Win32,59.99160118,63d12557d1c4aa48a49259ee,64d2fd46c836a06233681665,64dc7f2b274cd767a5864794,,,,,,,decisionTrl,resources/DG.BMP,resources/DY.BMP,Door3,0.261805598,-0.066666667,1,0,0,0.9954,optionRight,70,6750,3,32,0,32,0,1,,,,,,,,,,,,,,,,,,,,,,,,,,,,,,,,,,,,,,,
,,,,,,,,2023-08-16_08h50.43.291,HF_wild_card,2022.2.4,Win32,59.99160118,63d12557d1c4aa48a49259ee,64d2fd46c836a06233681665,64dc7f2b274cd767a5864794,,,,,,,decisionTrl,resources/DP.BMP,resources/DBN.BMP,Door2,0.249305598,-0.102083333,1,0,0,1.6675,optionRight,20,6770,3,33,0,33,0,1,,,,,,,,,,,,,,,,,,,,,,,,,,,,,,,,,,,,,,,
,,,,,,,,2023-08-16_08h50.43.291,HF_wild_card,2022.2.4,Win32,59.99160118,63d12557d1c4aa48a49259ee,64d2fd46c836a06233681665,64dc7f2b274cd767a5864794,,,,,,,sngl,resources/DY.BMP,resources/Empty.png,Door3,-0.179861069,-0.033333333,1,0,0,0.6641,optionLeft,70,6840,3,34,0,34,0,1,,,,,,,,,,,,,,,,,,,,,,,,,,,,,,,,,,,,,,,
,,,,,,,,2023-08-16_08h50.43.291,HF_wild_card,2022.2.4,Win32,59.99160118,63d12557d1c4aa48a49259ee,64d2fd46c836a06233681665,64dc7f2b274cd767a5864794,,,,,,,sngl,resources/Empty.png,resources/DR.BMP,WildCard_Ex,0.336805598,-0.10625,1,0,0,0.8461,optionRight,5,6845,3,35,0,35,0,1,,,,,,,,,,,,,,,,,,,,,,,,,,,,,,,,,,,,,,,
,,,,,,,,2023-08-16_08h50.43.291,HF_wild_card,2022.2.4,Win32,59.99160118,63d12557d1c4aa48a49259ee,64d2fd46c836a06233681665,64dc7f2b274cd767a5864794,,,,,,,decisionTrl,resources/DG.BMP,resources/DR.BMP,WildCard_Ex,0.260416667,-0.03125,1,0,0,1.4259,optionRight,5,6850,3,36,0,36,0,1,,,,,,,,,,,,,,,,,,,,,,,,,,,,,,,,,,,,,,,
,,,,,,,,2023-08-16_08h50.43.291,HF_wild_card,2022.2.4,Win32,59.99160118,63d12557d1c4aa48a49259ee,64d2fd46c836a06233681665,64dc7f2b274cd767a5864794,,,,,,,decisionTrl,resources/DY.BMP,resources/DG.BMP,Door3,-0.236805534,-0.070138931,1,0,0,2.1962,optionLeft,70,6920,3,37,0,37,0,1,,,,,,,,,,,,,,,,,,,,,,,,,,,,,,,,,,,,,,,
,,,,,,,,2023-08-16_08h50.43.291,HF_wild_card,2022.2.4,Win32,59.99160118,63d12557d1c4aa48a49259ee,64d2fd46c836a06233681665,64dc7f2b274cd767a5864794,,,,,,,decisionTrl,resources/DY.BMP,resources/DG.BMP,Door3,-0.196527735,-0.029166667,1,0,0,0.696,optionLeft,70,6990,3,38,0,38,0,1,,,,,,,,,,,,,,,,,,,,,,,,,,,,,,,,,,,,,,,
,,,,,,,,2023-08-16_08h50.43.291,HF_wild_card,2022.2.4,Win32,59.99160118,63d12557d1c4aa48a49259ee,64d2fd46c836a06233681665,64dc7f2b274cd767a5864794,,,,,,,sngl,resources/Empty.png,resources/DG.BMP,Door4,0.318055598,-0.01875,1,0,0,0.6598,optionRight,60,7050,3,39,0,39,0,1,,,,,,,,,,,,,,,,,,,,,,,,,,,,,,,,,,,,,,,
,,,,,,,,2023-08-16_08h50.43.291,HF_wild_card,2022.2.4,Win32,59.99160118,63d12557d1c4aa48a49259ee,64d2fd46c836a06233681665,64dc7f2b274cd767a5864794,,,,,,,decisionTrl,resources/DR.BMP,resources/DP.BMP,WildCard_Ex,-0.354166667,-0.013194466,1,0,0,1.4631,optionLeft,5,7055,3,40,0,40,0,1,,,,,,,,,,,,,,,,,,,,,,,,,,,,,,,,,,,,,,,
,,,,,,,,2023-08-16_08h50.43.291,HF_wild_card,2022.2.4,Win32,59.99160118,63d12557d1c4aa48a49259ee,64d2fd46c836a06233681665,64dc7f2b274cd767a5864794,,,,,,,sngl,resources/Empty.png,resources/DBN.BMP,Door2,0.2125,0.020138868,1,0,0,0.6461,optionRight,20,7075,3,41,0,41,0,1,,,,,,,,,,,,,,,,,,,,,,,,,,,,,,,,,,,,,,,
,,,,,,,,2023-08-16_08h50.43.291,HF_wild_card,2022.2.4,Win32,59.99160118,63d12557d1c4aa48a49259ee,64d2fd46c836a06233681665,64dc7f2b274cd767a5864794,,,,,,,ctch,resources/DY.BMP,resources/DBN.BMP,Door3,-0.256944434,-0.033333333,1,0,0,0.8137,optionLeft,70,7145,3,42,0,42,0,1,,,,,,,,,,,,,,,,,,,,,,,,,,,,,,,,,,,,,,,
,,,,,,,,2023-08-16_08h50.43.291,HF_wild_card,2022.2.4,Win32,59.99160118,63d12557d1c4aa48a49259ee,64d2fd46c836a06233681665,64dc7f2b274cd767a5864794,,,,,,,decisionTrl,resources/DP.BMP,resources/DBN.BMP,Door1,-0.132638868,-0.004166667,1,0,0,2.6959,optionLeft,30,7175,3,43,0,43,0,1,,,,,,,,,,,,,,,,,,,,,,,,,,,,,,,,,,,,,,,
,,,,,,,,2023-08-16_08h50.43.291,HF_wild_card,2022.2.4,Win32,59.99160118,63d12557d1c4aa48a49259ee,64d2fd46c836a06233681665,64dc7f2b274cd767a5864794,,,,,,,,,,,,,,,,,,,,,,,,,,2,0,2,0,1,,,,,,,,,,,,,,,,,,,,,,,,,,,,,,,,,,
,,,,,,,,2023-08-16_08h50.43.291,HF_wild_card,2022.2.4,Win32,59.99160118,63d12557d1c4aa48a49259ee,64d2fd46c836a06233681665,64dc7f2b274cd767a5864794,,,,,,,decisionTrl,resources/DP.BMP,resources/DBN.BMP,Door1,-0.270138868,-0.000694466,1,0,0,1.6757,optionLeft,30,7205,4,0,0,0,0,1,,,,,,,,,,,,,,,,,,,,,,,,,,,,,,,,,,,,,,,
,,,,,,,,2023-08-16_08h50.43.291,HF_wild_card,2022.2.4,Win32,59.99160118,63d12557d1c4aa48a49259ee,64d2fd46c836a06233681665,64dc7f2b274cd767a5864794,,,,,,,sngl,resources/Empty.png,resources/DP.BMP,Door1,0.351388931,-0.021527799,1,0,0,0.6313,optionRight,30,7235,4,1,0,1,0,1,,,,,,,,,,,,,,,,,,,,,,,,,,,,,,,,,,,,,,,
,,,,,,,,2023-08-16_08h50.43.291,HF_wild_card,2022.2.4,Win32,59.99160118,63d12557d1c4aa48a49259ee,64d2fd46c836a06233681665,64dc7f2b274cd767a5864794,,,,,,,decisionTrl,resources/DBN.BMP,resources/DP.BMP,Door2,-0.194444402,0.006944434,1,0,0,0.7433,optionLeft,20,7255,4,2,0,2,0,1,,,,,,,,,,,,,,,,,,,,,,,,,,,,,,,,,,,,,,,
,,,,,,,,2023-08-16_08h50.43.291,HF_wild_card,2022.2.4,Win32,59.99160118,63d12557d1c4aa48a49259ee,64d2fd46c836a06233681665,64dc7f2b274cd767a5864794,,,,,,,decisionTrl,resources/DG.BMP,resources/DB.BMP,WildCard_NonEx,0.470833333,0.057638868,1,0,0,2.565,optionRight,45,7300,4,3,0,3,0,1,,,,,,,,,,,,,,,,,,,,,,,,,,,,,,,,,,,,,,,
,,,,,,,,2023-08-16_08h50.43.291,HF_wild_card,2022.2.4,Win32,59.99160118,63d12557d1c4aa48a49259ee,64d2fd46c836a06233681665,64dc7f2b274cd767a5864794,,,,,,,decisionTrl,resources/DBN.BMP,resources/DP.BMP,Door2,-0.332638868,0.048611101,1,0,0,3.2092,optionLeft,20,7320,4,4,0,4,0,1,,,,,,,,,,,,,,,,,,,,,,,,,,,,,,,,,,,,,,,
,,,,,,,,2023-08-16_08h50.43.291,HF_wild_card,2022.2.4,Win32,59.99160118,63d12557d1c4aa48a49259ee,64d2fd46c836a06233681665,64dc7f2b274cd767a5864794,,,,,,,sngl,resources/DP.BMP,resources/Empty.png,Door1,-0.194444402,0.029861101,1,0,0,0.6475,optionLeft,30,7350,4,5,0,5,0,1,,,,,,,,,,,,,,,,,,,,,,,,,,,,,,,,,,,,,,,
,,,,,,,,2023-08-16_08h50.43.291,HF_wild_card,2022.2.4,Win32,59.99160118,63d12557d1c4aa48a49259ee,64d2fd46c836a06233681665,64dc7f2b274cd767a5864794,,,,,,,decisionTrl,resources/DG.BMP,resources/DY.BMP,Door3,0.233333333,0.03125,1,0,0,0.8961,optionRight,70,7420,4,6,0,6,0,1,,,,,,,,,,,,,,,,,,,,,,,,,,,,,,,,,,,,,,,
,,,,,,,,2023-08-16_08h50.43.291,HF_wild_card,2022.2.4,Win32,59.99160118,63d12557d1c4aa48a49259ee,64d2fd46c836a06233681665,64dc7f2b274cd767a5864794,,,,,,,sngl,resources/DG.BMP,resources/Empty.png,Door4,-0.225694434,0.056944434,1,0,0,0.5957,optionLeft,60,7480,4,7,0,7,0,1,,,,,,,,,,,,,,,,,,,,,,,,,,,,,,,,,,,,,,,
,,,,,,,,2023-08-16_08h50.43.291,HF_wild_card,2022.2.4,Win32,59.99160118,63d12557d1c4aa48a49259ee,64d2fd46c836a06233681665,64dc7f2b274cd767a5864794,,,,,,,decisionTrl,resources/DBN.BMP,resources/DP.BMP,Door1,0.427777863,0.015972201,1,0,0,4.9601,optionRight,30,7510,4,8,0,8,0,1,,,,,,,,,,,,,,,,,,,,,,,,,,,,,,,,,,,,,,,
,,,,,,,,2023-08-16_08h50.43.291,HF_wild_card,2022.2.4,Win32,59.99160118,63d12557d1c4aa48a49259ee,64d2fd46c836a06233681665,64dc7f2b274cd767a5864794,,,,,,,sngl,resources/Empty.png,resources/DB.BMP,WildCard_NonEx,0.305555598,-0.029166667,1,0,0,0.7965,optionRight,55,7565,4,9,0,9,0,1,,,,,,,,,,,,,,,,,,,,,,,,,,,,,,,,,,,,,,,
,,,,,,,,2023-08-16_08h50.43.291,HF_wild_card,2022.2.4,Win32,59.99160118,63d12557d1c4aa48a49259ee,64d2fd46c836a06233681665,64dc7f2b274cd767a5864794,,,,,,,decisionTrl,resources/DB.BMP,resources/DP.BMP,WildCard_NonEx,-0.245138868,0.001388868,1,0,0,1.4689,optionLeft,45,7610,4,10,0,10,0,1,,,,,,,,,,,,,,,,,,,,,,,,,,,,,,,,,,,,,,,
,,,,,,,,2023-08-16_08h50.43.291,HF_wild_card,2022.2.4,Win32,59.99160118,63d12557d1c4aa48a49259ee,64d2fd46c836a06233681665,64dc7f2b274cd767a5864794,,,,,,,ctch,resources/DP.BMP,resources/DG.BMP,Door4,0.283333333,-0.011805566,1,0,0,1.3417,optionRight,80,7690,4,11,0,11,0,1,,,,,,,,,,,,,,,,,,,,,,,,,,,,,,,,,,,,,,,
,,,,,,,,2023-08-16_08h50.43.291,HF_wild_card,2022.2.4,Win32,59.99160118,63d12557d1c4aa48a49259ee,64d2fd46c836a06233681665,64dc7f2b274cd767a5864794,,,,,,,ctch,resources/DY.BMP,resources/DBN.BMP,Door3,-0.216666667,0.017361101,1,0,0,1.1949,optionLeft,70,7760,4,12,0,12,0,1,,,,,,,,,,,,,,,,,,,,,,,,,,,,,,,,,,,,,,,
,,,,,,,,2023-08-16_08h50.43.291,HF_wild_card,2022.2.4,Win32,59.99160118,63d12557d1c4aa48a49259ee,64d2fd46c836a06233681665,64dc7f2b274cd767a5864794,,,,,,,sngl,resources/DY.BMP,resources/Empty.png,Door3,-0.20625,-0.002083333,1,0,0,0.9796,optionLeft,70,7830,4,13,0,13,0,1,,,,,,,,,,,,,,,,,,,,,,,,,,,,,,,,,,,,,,,
,,,,,,,,2023-08-16_08h50.43.291,HF_wild_card,2022.2.4,Win32,59.99160118,63d12557d1c4aa48a49259ee,64d2fd46c836a06233681665,64dc7f2b274cd767a5864794,,,,,,,decisionTrl,resources/DP.BMP,resources/DBN.BMP,Door1,-0.134722201,-0.048611132,1,0,0,2.6765,optionLeft,30,7860,4,14,0,14,0,1,,,,,,,,,,,,,,,,,,,,,,,,,,,,,,,,,,,,,,,
,,,,,,,,2023-08-16_08h50.43.291,HF_wild_card,2022.2.4,Win32,59.99160118,63d12557d1c4aa48a49259ee,64d2fd46c836a06233681665,64dc7f2b274cd767a5864794,,,,,,,decisionTrl,resources/DY.BMP,resources/DG.BMP,Door3,-0.111805534,-0.039583333,1,0,0,1.8434,optionLeft,70,7930,4,15,0,15,0,1,,,,,,,,,,,,,,,,,,,,,,,,,,,,,,,,,,,,,,,
,,,,,,,,2023-08-16_08h50.43.291,HF_wild_card,2022.2.4,Win32,59.99160118,63d12557d1c4aa48a49259ee,64d2fd46c836a06233681665,64dc7f2b274cd767a5864794,,,,,,,ctch,resources/DBN.BMP,resources/DY.BMP,Door3,0.405555598,-0.120833333,1,0,0,1.2463,optionRight,70,8000,4,16,0,16,0,1,,,,,,,,,,,,,,,,,,,,,,,,,,,,,,,,,,,,,,,
,,,,,,,,2023-08-16_08h50.43.291,HF_wild_card,2022.2.4,Win32,59.99160118,63d12557d1c4aa48a49259ee,64d2fd46c836a06233681665,64dc7f2b274cd767a5864794,,,,,,,sngl,resources/Empty.png,resources/DBN.BMP,Door2,0.303472265,-0.0875,1,0,0,1.1305,optionRight,40,8040,4,17,0,17,0,1,,,,,,,,,,,,,,,,,,,,,,,,,,,,,,,,,,,,,,,
,,,,,,,,2023-08-16_08h50.43.291,HF_wild_card,2022.2.4,Win32,59.99160118,63d12557d1c4aa48a49259ee,64d2fd46c836a06233681665,64dc7f2b274cd767a5864794,,,,,,,decisionTrl,resources/DY.BMP,resources/DG.BMP,Door3,-0.20625,-0.032638899,1,0,0,0.8803,optionLeft,70,8110,4,18,0,18,0,1,,,,,,,,,,,,,,,,,,,,,,,,,,,,,,,,,,,,,,,
,,,,,,,,2023-08-16_08h50.43.291,HF_wild_card,2022.2.4,Win32,59.99160118,63d12557d1c4aa48a49259ee,64d2fd46c836a06233681665,64dc7f2b274cd767a5864794,,,,,,,decisionTrl,resources/DP.BMP,resources/DBN.BMP,Door1,-0.275694434,-0.054861132,1,0,0,2.013,optionLeft,30,8140,4,19,0,19,0,1,,,,,,,,,,,,,,,,,,,,,,,,,,,,,,,,,,,,,,,
,,,,,,,,2023-08-16_08h50.43.291,HF_wild_card,2022.2.4,Win32,59.99160118,63d12557d1c4aa48a49259ee,64d2fd46c836a06233681665,64dc7f2b274cd767a5864794,,,,,,,decisionTrl,resources/DB.BMP,resources/DG.BMP,Door4,0.359722265,-0.066666667,1,0,0,2.0112,optionRight,60,8200,4,20,0,20,0,1,,,,,,,,,,,,,,,,,,,,,,,,,,,,,,,,,,,,,,,
,,,,,,,,2023-08-16_08h50.43.291,HF_wild_card,2022.2.4,Win32,59.99160118,63d12557d1c4aa48a49259ee,64d2fd46c836a06233681665,64dc7f2b274cd767a5864794,,,,,,,decisionTrl,resources/DG.BMP,resources/DY.BMP,Door3,0.284027799,-0.04375,1,0,0,0.8812,optionRight,70,8270,4,21,0,21,0,1,,,,,,,,,,,,,,,,,,,,,,,,,,,,,,,,,,,,,,,
,,,,,,,,2023-08-16_08h50.43.291,HF_wild_card,2022.2.4,Win32,59.99160118,63d12557d1c4aa48a49259ee,64d2fd46c836a06233681665,64dc7f2b274cd767a5864794,,,,,,,ctch,resources/DG.BMP,resources/DP.BMP,Door4,-0.215277735,-0.069444466,1,0,0,1.1133,optionLeft,60,8330,4,22,0,22,0,1,,,,,,,,,,,,,,,,,,,,,,,,,,,,,,,,,,,,,,,
,,,,,,,,2023-08-16_08h50.43.291,HF_wild_card,2022.2.4,Win32,59.99160118,63d12557d1c4aa48a49259ee,64d2fd46c836a06233681665,64dc7f2b274cd767a5864794,,,,,,,sngl,resources/DB.BMP,resources/Empty.png,WildCard_NonEx,-0.211111069,-0.003472233,1,0,0,0.6771,optionLeft,45,8375,4,23,0,23,0,1,,,,,,,,,,,,,,,,,,,,,,,,,,,,,,,,,,,,,,,
,,,,,,,,2023-08-16_08h50.43.291,HF_wild_card,2022.2.4,Win32,59.99160118,63d12557d1c4aa48a49259ee,64d2fd46c836a06233681665,64dc7f2b274cd767a5864794,,,,,,,decisionTrl,resources/DBN.BMP,resources/DB.BMP,WildCard_NonEx,0.234027799,-0.058333333,1,0,0,0.9619,optionRight,55,8430,4,24,0,24,0,1,,,,,,,,,,,,,,,,,,,,,,,,,,,,,,,,,,,,,,,
,,,,,,,,2023-08-16_08h50.43.291,HF_wild_card,2022.2.4,Win32,59.99160118,63d12557d1c4aa48a49259ee,64d2fd46c836a06233681665,64dc7f2b274cd767a5864794,,,,,,,decisionTrl,resources/DBN.BMP,resources/DP.BMP,Door1,0.245138931,-0.032638899,1,0,0,1.396,optionRight,30,8460,4,25,0,25,0,1,,,,,,,,,,,,,,,,,,,,,,,,,,,,,,,,,,,,,,,
,,,,,,,,2023-08-16_08h50.43.291,HF_wild_card,2022.2.4,Win32,59.99160118,63d12557d1c4aa48a49259ee,64d2fd46c836a06233681665,64dc7f2b274cd767a5864794,,,,,,,decisionTrl,resources/DG.BMP,resources/DY.BMP,Door3,0.223611132,-0.105555598,1,0,0,0.9137,optionRight,70,8530,4,26,0,26,0,1,,,,,,,,,,,,,,,,,,,,,,,,,,,,,,,,,,,,,,,
,,,,,,,,2023-08-16_08h50.43.291,HF_wild_card,2022.2.4,Win32,59.99160118,63d12557d1c4aa48a49259ee,64d2fd46c836a06233681665,64dc7f2b274cd767a5864794,,,,,,,decisionTrl,resources/DG.BMP,resources/DY.BMP,Door3,0.313194466,-0.098611132,1,0,0,0.7965,optionRight,70,8600,4,27,0,27,0,1,,,,,,,,,,,,,,,,,,,,,,,,,,,,,,,,,,,,,,,
,,,,,,,,2023-08-16_08h50.43.291,HF_wild_card,2022.2.4,Win32,59.99160118,63d12557d1c4aa48a49259ee,64d2fd46c836a06233681665,64dc7f2b274cd767a5864794,,,,,,,ctch,resources/DG.BMP,resources/DP.BMP,Door4,-0.160416667,-0.067361132,1,0,0,2.3581,optionLeft,60,8660,4,28,0,28,0,1,,,,,,,,,,,,,,,,,,,,,,,,,,,,,,,,,,,,,,,
,,,,,,,,2023-08-16_08h50.43.291,HF_wild_card,2022.2.4,Win32,59.99160118,63d12557d1c4aa48a49259ee,64d2fd46c836a06233681665,64dc7f2b274cd767a5864794,,,,,,,sngl,resources/DB.BMP,resources/Empty.png,WildCard_NonEx,-0.210416667,-0.019444466,1,0,0,1.3929,optionLeft,55,8715,4,29,0,29,0,1,,,,,,,,,,,,,,,,,,,,,,,,,,,,,,,,,,,,,,,
,,,,,,,,2023-08-16_08h50.43.291,HF_wild_card,2022.2.4,Win32,59.99160118,63d12557d1c4aa48a49259ee,64d2fd46c836a06233681665,64dc7f2b274cd767a5864794,,,,,,,ctch,resources/DY.BMP,resources/DBN.BMP,Door3,-0.203472201,-0.077083333,1,0,0,0.8956,optionLeft,70,8785,4,30,0,30,0,1,,,,,,,,,,,,,,,,,,,,,,,,,,,,,,,,,,,,,,,
,,,,,,,,2023-08-16_08h50.43.291,HF_wild_card,2022.2.4,Win32,59.99160118,63d12557d1c4aa48a49259ee,64d2fd46c836a06233681665,64dc7f2b274cd767a5864794,,,,,,,decisionTrl,resources/DP.BMP,resources/DB.BMP,WildCard_NonEx,0.350694529,-0.006944466,1,0,0,3.492,optionRight,45,8830,4,31,0,31,0,1,,,,,,,,,,,,,,,,,,,,,,,,,,,,,,,,,,,,,,,
,,,,,,,,2023-08-16_08h50.43.291,HF_wild_card,2022.2.4,Win32,59.99160118,63d12557d1c4aa48a49259ee,64d2fd46c836a06233681665,64dc7f2b274cd767a5864794,,,,,,,sngl,resources/DBN.BMP,resources/Empty.png,Door2,-0.169444402,-0.040972265,1,0,0,0.9914,optionLeft,20,8850,4,32,0,32,0,1,,,,,,,,,,,,,,,,,,,,,,,,,,,,,,,,,,,,,,,
,,,,,,,,2023-08-16_08h50.43.291,HF_wild_card,2022.2.4,Win32,59.99160118,63d12557d1c4aa48a49259ee,64d2fd46c836a06233681665,64dc7f2b274cd767a5864794,,,,,,,ctch,resources/DBN.BMP,resources/DY.BMP,Door3,0.34375,-0.075,1,0,0,0.6768,optionRight,70,8920,4,33,0,33,0,1,,,,,,,,,,,,,,,,,,,,,,,,,,,,,,,,,,,,,,,
,,,,,,,,2023-08-16_08h50.43.291,HF_wild_card,2022.2.4,Win32,59.99160118,63d12557d1c4aa48a49259ee,64d2fd46c836a06233681665,64dc7f2b274cd767a5864794,,,,,,,sngl,resources/Empty.png,resources/DG.BMP,Door4,0.36875,-0.147916667,1,0,0,0.594,optionRight,80,9000,4,34,0,34,0,1,,,,,,,,,,,,,,,,,,,,,,,,,,,,,,,,,,,,,,,
,,,,,,,,2023-08-16_08h50.43.291,HF_wild_card,2022.2.4,Win32,59.99160118,63d12557d1c4aa48a49259ee,64d2fd46c836a06233681665,64dc7f2b274cd767a5864794,,,,,,,decisionTrl,resources/DP.BMP,resources/DBN.BMP,Door1,-0.209722201,-0.063888931,1,0,0,2.1436,optionLeft,30,9030,4,35,0,35,0,1,,,,,,,,,,,,,,,,,,,,,,,,,,,,,,,,,,,,,,,
,,,,,,,,2023-08-16_08h50.43.291,HF_wild_card,2022.2.4,Win32,59.99160118,63d12557d1c4aa48a49259ee,64d2fd46c836a06233681665,64dc7f2b274cd767a5864794,,,,,,,decisionTrl,resources/DB.BMP,resources/DBN.BMP,WildCard_NonEx,-0.164583333,-0.055555598,1,0,0,0.9295,optionLeft,45,9075,4,36,0,36,0,1,,,,,,,,,,,,,,,,,,,,,,,,,,,,,,,,,,,,,,,
,,,,,,,,2023-08-16_08h50.43.291,HF_wild_card,2022.2.4,Win32,59.99160118,63d12557d1c4aa48a49259ee,64d2fd46c836a06233681665,64dc7f2b274cd767a5864794,,,,,,,sngl,resources/Empty.png,resources/DB.BMP,WildCard_NonEx,0.400694529,-0.018055566,1,0,0,0.5905,optionRight,45,9120,4,37,0,37,0,1,,,,,,,,,,,,,,,,,,,,,,,,,,,,,,,,,,,,,,,
,,,,,,,,2023-08-16_08h50.43.291,HF_wild_card,2022.2.4,Win32,59.99160118,63d12557d1c4aa48a49259ee,64d2fd46c836a06233681665,64dc7f2b274cd767a5864794,,,,,,,decisionTrl,resources/DY.BMP,resources/DG.BMP,Door3,-0.210416667,-0.054166667,1,0,0,0.7454,optionLeft,70,9190,4,38,0,38,0,1,,,,,,,,,,,,,,,,,,,,,,,,,,,,,,,,,,,,,,,
,,,,,,,,2023-08-16_08h50.43.291,HF_wild_card,2022.2.4,Win32,59.99160118,63d12557d1c4aa48a49259ee,64d2fd46c836a06233681665,64dc7f2b274cd767a5864794,,,,,,,decisionTrl,resources/DY.BMP,resources/DB.BMP,Door3,-0.143055534,-0.103472265,1,0,0,0.8947,optionLeft,70,9260,4,39,0,39,0,1,,,,,,,,,,,,,,,,,,,,,,,,,,,,,,,,,,,,,,,
,,,,,,,,2023-08-16_08h50.43.291,HF_wild_card,2022.2.4,Win32,59.99160118,63d12557d1c4aa48a49259ee,64d2fd46c836a06233681665,64dc7f2b274cd767a5864794,,,,,,,decisionTrl,resources/DY.BMP,resources/DG.BMP,Door4,0.433333333,-0.036111132,1,0,0,1.4117,optionRight,80,9340,4,40,0,40,0,1,,,,,,,,,,,,,,,,,,,,,,,,,,,,,,,,,,,,,,,
,,,,,,,,2023-08-16_08h50.43.291,HF_wild_card,2022.2.4,Win32,59.99160118,63d12557d1c4aa48a49259ee,64d2fd46c836a06233681665,64dc7f2b274cd767a5864794,,,,,,,sngl,resources/Empty.png,resources/DY.BMP,Door3,0.322916667,-0.055555598,1,0,0,0.5973,optionRight,70,9410,4,41,0,41,0,1,,,,,,,,,,,,,,,,,,,,,,,,,,,,,,,,,,,,,,,
,,,,,,,,2023-08-16_08h50.43.291,HF_wild_card,2022.2.4,Win32,59.99160118,63d12557d1c4aa48a49259ee,64d2fd46c836a06233681665,64dc7f2b274cd767a5864794,,,,,,,decisionTrl,resources/DB.BMP,resources/DY.BMP,Door3,0.24375,-0.111111132,1,0,0,0.9585,optionRight,70,9480,4,42,0,42,0,1,,,,,,,,,,,,,,,,,,,,,,,,,,,,,,,,,,,,,,,
,,,,,,,,2023-08-16_08h50.43.291,HF_wild_card,2022.2.4,Win32,59.99160118,63d12557d1c4aa48a49259ee,64d2fd46c836a06233681665,64dc7f2b274cd767a5864794,,,,,,,ctch,resources/DP.BMP,resources/DG.BMP,Door4,0.280555598,-0.109722265,1,0,0,1.4297,optionRight,80,9560,4,43,0,43,0,1,,,,,,,,,,,,,,,,,,,,,,,,,,,,,,,,,,,,,,,
,,,,,,,,2023-08-16_08h50.43.291,HF_wild_card,2022.2.4,Win32,59.99160118,63d12557d1c4aa48a49259ee,64d2fd46c836a06233681665,64dc7f2b274cd767a5864794,,,,,,,,,,,,,,,,,,,,,,,,,,3,0,3,0,1,,,,,,,,,,,,,,,,,,,,,,,,,,,,,,,,,,
,,,,,,,,2023-08-16_08h50.43.291,HF_wild_card,2022.2.4,Win32,59.99160118,63d12557d1c4aa48a49259ee,64d2fd46c836a06233681665,64dc7f2b274cd767a5864794,,,,,,,ctch,resources/DG.BMP,resources/DP.BMP,Door4,-0.201388868,-0.064583333,1,0,0,2.0904,optionLeft,60,9620,5,0,0,0,0,1,,,,,,,,,,,,,,,,,,,,,,,,,,,,,,,,,,,,,,,
,,,,,,,,2023-08-16_08h50.43.291,HF_wild_card,2022.2.4,Win32,59.99160118,63d12557d1c4aa48a49259ee,64d2fd46c836a06233681665,64dc7f2b274cd767a5864794,,,,,,,decisionTrl,resources/DB.BMP,resources/DBN.BMP,WildCard_NonEx,-0.142361069,-0.025,1,0,0,1.2435,optionLeft,45,9665,5,1,0,1,0,1,,,,,,,,,,,,,,,,,,,,,,,,,,,,,,,,,,,,,,,
,,,,,,,,2023-08-16_08h50.43.291,HF_wild_card,2022.2.4,Win32,59.99160118,63d12557d1c4aa48a49259ee,64d2fd46c836a06233681665,64dc7f2b274cd767a5864794,,,,,,,ctch,resources/DP.BMP,resources/DG.BMP,Door4,0.238194466,-0.008333333,1,0,0,1.9627,optionRight,80,9745,5,2,0,2,0,1,,,,,,,,,,,,,,,,,,,,,,,,,,,,,,,,,,,,,,,
,,,,,,,,2023-08-16_08h50.43.291,HF_wild_card,2022.2.4,Win32,59.99160118,63d12557d1c4aa48a49259ee,64d2fd46c836a06233681665,64dc7f2b274cd767a5864794,,,,,,,decisionTrl,resources/DP.BMP,resources/DB.BMP,Door1,-0.165972201,-0.045833333,1,0,0,1.4131,optionLeft,30,9775,5,3,0,3,0,1,,,,,,,,,,,,,,,,,,,,,,,,,,,,,,,,,,,,,,,
,,,,,,,,2023-08-16_08h50.43.291,HF_wild_card,2022.2.4,Win32,59.99160118,63d12557d1c4aa48a49259ee,64d2fd46c836a06233681665,64dc7f2b274cd767a5864794,,,,,,,sngl,resources/DBN.BMP,resources/Empty.png,Door2,-0.167361069,-0.013194466,1,0,0,2.0776,optionLeft,40,9815,5,4,0,4,0,1,,,,,,,,,,,,,,,,,,,,,,,,,,,,,,,,,,,,,,,
,,,,,,,,2023-08-16_08h50.43.291,HF_wild_card,2022.2.4,Win32,59.99160118,63d12557d1c4aa48a49259ee,64d2fd46c836a06233681665,64dc7f2b274cd767a5864794,,,,,,,ctch,resources/DY.BMP,resources/DBN.BMP,Door3,-0.258333333,-0.044444466,1,0,0,0.7943,optionLeft,70,9885,5,5,0,5,0,1,,,,,,,,,,,,,,,,,,,,,,,,,,,,,,,,,,,,,,,
,,,,,,,,2023-08-16_08h50.43.291,HF_wild_card,2022.2.4,Win32,59.99160118,63d12557d1c4aa48a49259ee,64d2fd46c836a06233681665,64dc7f2b274cd767a5864794,,,,,,,decisionTrl,resources/DP.BMP,resources/DBN.BMP,Door2,0.281944466,-0.015972233,1,0,0,2.4278,optionRight,20,9905,5,6,0,6,0,1,,,,,,,,,,,,,,,,,,,,,,,,,,,,,,,,,,,,,,,
,,,,,,,,2023-08-16_08h50.43.291,HF_wild_card,2022.2.4,Win32,59.99160118,63d12557d1c4aa48a49259ee,64d2fd46c836a06233681665,64dc7f2b274cd767a5864794,,,,,,,sngl,resources/Empty.png,resources/DBN.BMP,Door2,0.2375,-0.049305598,1,0,0,0.6822,optionRight,20,9925,5,7,0,7,0,1,,,,,,,,,,,,,,,,,,,,,,,,,,,,,,,,,,,,,,,
,,,,,,,,2023-08-16_08h50.43.291,HF_wild_card,2022.2.4,Win32,59.99160118,63d12557d1c4aa48a49259ee,64d2fd46c836a06233681665,64dc7f2b274cd767a5864794,,,,,,,decisionTrl,resources/DB.BMP,resources/DY.BMP,Door3,0.275,-0.054166667,1,0,0,0.8999,optionRight,70,9995,5,8,0,8,0,1,,,,,,,,,,,,,,,,,,,,,,,,,,,,,,,,,,,,,,,
,,,,,,,,2023-08-16_08h50.43.291,HF_wild_card,2022.2.4,Win32,59.99160118,63d12557d1c4aa48a49259ee,64d2fd46c836a06233681665,64dc7f2b274cd767a5864794,,,,,,,decisionTrl,resources/DP.BMP,resources/DBN.BMP,Door1,-0.193055534,-0.040277799,1,0,0,1.3789,optionLeft,30,10025,5,9,0,9,0,1,,,,,,,,,,,,,,,,,,,,,,,,,,,,,,,,,,,,,,,
,,,,,,,,2023-08-16_08h50.43.291,HF_wild_card,2022.2.4,Win32,59.99160118,63d12557d1c4aa48a49259ee,64d2fd46c836a06233681665,64dc7f2b274cd767a5864794,,,,,,,ctch,resources/DBN.BMP,resources/DY.BMP,Door3,0.18125,-0.019444466,1,0,0,0.9629,optionRight,70,10095,5,10,0,10,0,1,,,,,,,,,,,,,,,,,,,,,,,,,,,,,,,,,,,,,,,
,,,,,,,,2023-08-16_08h50.43.291,HF_wild_card,2022.2.4,Win32,59.99160118,63d12557d1c4aa48a49259ee,64d2fd46c836a06233681665,64dc7f2b274cd767a5864794,,,,,,,ctch,resources/DP.BMP,resources/DG.BMP,Door4,-0.015972201,0.009722201,1,0,0,0.7631,optionRight,80,10175,5,11,0,11,0,1,,,,,,,,,,,,,,,,,,,,,,,,,,,,,,,,,,,,,,,
,,,,,,,,2023-08-16_08h50.43.291,HF_wild_card,2022.2.4,Win32,59.99160118,63d12557d1c4aa48a49259ee,64d2fd46c836a06233681665,64dc7f2b274cd767a5864794,,,,,,,decisionTrl,resources/DG.BMP,resources/DY.BMP,Door3,0.188888931,-0.025,1,0,0,1.0485,optionRight,70,10245,5,12,0,12,0,1,,,,,,,,,,,,,,,,,,,,,,,,,,,,,,,,,,,,,,,
,,,,,,,,2023-08-16_08h50.43.291,HF_wild_card,2022.2.4,Win32,59.99160118,63d12557d1c4aa48a49259ee,64d2fd46c836a06233681665,64dc7f2b274cd767a5864794,,,,,,,decisionTrl,resources/DG.BMP,resources/DY.BMP,Door4,-0.165972201,-0.058333333,1,0,0,0.7655,optionLeft,80,10325,5,13,0,13,0,1,,,,,,,,,,,,,,,,,,,,,,,,,,,,,,,,,,,,,,,
,,,,,,,,2023-08-16_08h50.43.291,HF_wild_card,2022.2.4,Win32,59.99160118,63d12557d1c4aa48a49259ee,64d2fd46c836a06233681665,64dc7f2b274cd767a5864794,,,,,,,ctch,resources/DY.BMP,resources/DBN.BMP,Door3,-0.150694402,-0.028472233,1,0,0,0.7297,optionLeft,70,10395,5,14,0,14,0,1,,,,,,,,,,,,,,,,,,,,,,,,,,,,,,,,,,,,,,,
,,,,,,,,2023-08-16_08h50.43.291,HF_wild_card,2022.2.4,Win32,59.99160118,63d12557d1c4aa48a49259ee,64d2fd46c836a06233681665,64dc7f2b274cd767a5864794,,,,,,,decisionTrl,resources/DB.BMP,resources/DG.BMP,Door4,0.307638931,-0.043055598,1,0,0,0.812,optionRight,60,10455,5,15,0,15,0,1,,,,,,,,,,,,,,,,,,,,,,,,,,,,,,,,,,,,,,,
,,,,,,,,2023-08-16_08h50.43.291,HF_wild_card,2022.2.4,Win32,59.99160118,63d12557d1c4aa48a49259ee,64d2fd46c836a06233681665,64dc7f2b274cd767a5864794,,,,,,,decisionTrl,resources/DG.BMP,resources/DY.BMP,Door3,0.207638931,-0.03125,1,0,0,0.9461,optionRight,70,10525,5,16,0,16,0,1,,,,,,,,,,,,,,,,,,,,,,,,,,,,,,,,,,,,,,,
,,,,,,,,2023-08-16_08h50.43.291,HF_wild_card,2022.2.4,Win32,59.99160118,63d12557d1c4aa48a49259ee,64d2fd46c836a06233681665,64dc7f2b274cd767a5864794,,,,,,,sngl,resources/Empty.png,resources/DB.BMP,WildCard_NonEx,0.209722265,-0.045138931,1,0,0,0.675,optionRight,55,10580,5,17,0,17,0,1,,,,,,,,,,,,,,,,,,,,,,,,,,,,,,,,,,,,,,,
,,,,,,,,2023-08-16_08h50.43.291,HF_wild_card,2022.2.4,Win32,59.99160118,63d12557d1c4aa48a49259ee,64d2fd46c836a06233681665,64dc7f2b274cd767a5864794,,,,,,,sngl,resources/Empty.png,resources/DB.BMP,WildCard_NonEx,0.250694466,-0.045833333,1,0,0,0.6461,optionRight,45,10625,5,18,0,18,0,1,,,,,,,,,,,,,,,,,,,,,,,,,,,,,,,,,,,,,,,
,,,,,,,,2023-08-16_08h50.43.291,HF_wild_card,2022.2.4,Win32,59.99160118,63d12557d1c4aa48a49259ee,64d2fd46c836a06233681665,64dc7f2b274cd767a5864794,,,,,,,ctch,resources/DG.BMP,resources/DP.BMP,Door4,-0.188888868,-0.015972233,1,0,0,1.9267,optionLeft,80,10705,5,19,0,19,0,1,,,,,,,,,,,,,,,,,,,,,,,,,,,,,,,,,,,,,,,
,,,,,,,,2023-08-16_08h50.43.291,HF_wild_card,2022.2.4,Win32,59.99160118,63d12557d1c4aa48a49259ee,64d2fd46c836a06233681665,64dc7f2b274cd767a5864794,,,,,,,decisionTrl,resources/DY.BMP,resources/DB.BMP,Door3,-0.14375,-0.048611132,1,0,0,0.9725,optionLeft,70,10775,5,20,0,20,0,1,,,,,,,,,,,,,,,,,,,,,,,,,,,,,,,,,,,,,,,
,,,,,,,,2023-08-16_08h50.43.291,HF_wild_card,2022.2.4,Win32,59.99160118,63d12557d1c4aa48a49259ee,64d2fd46c836a06233681665,64dc7f2b274cd767a5864794,,,,,,,decisionTrl,resources/DBN.BMP,resources/DP.BMP,Door1,0.361805598,-0.139583333,1,0,0,2.7288,optionRight,30,10805,5,21,0,21,0,1,,,,,,,,,,,,,,,,,,,,,,,,,,,,,,,,,,,,,,,
,,,,,,,,2023-08-16_08h50.43.291,HF_wild_card,2022.2.4,Win32,59.99160118,63d12557d1c4aa48a49259ee,64d2fd46c836a06233681665,64dc7f2b274cd767a5864794,,,,,,,decisionTrl,resources/DY.BMP,resources/DG.BMP,Door4,0.228472265,-0.070138931,1,0,0,1.5431,optionRight,80,10885,5,22,0,22,0,1,,,,,,,,,,,,,,,,,,,,,,,,,,,,,,,,,,,,,,,
,,,,,,,,2023-08-16_08h50.43.291,HF_wild_card,2022.2.4,Win32,59.99160118,63d12557d1c4aa48a49259ee,64d2fd46c836a06233681665,64dc7f2b274cd767a5864794,,,,,,,decisionTrl,resources/DBN.BMP,resources/DB.BMP,WildCard_NonEx,0.269444466,-0.107638931,1,0,0,0.9623,optionRight,45,10930,5,23,0,23,0,1,,,,,,,,,,,,,,,,,,,,,,,,,,,,,,,,,,,,,,,
,,,,,,,,2023-08-16_08h50.43.291,HF_wild_card,2022.2.4,Win32,59.99160118,63d12557d1c4aa48a49259ee,64d2fd46c836a06233681665,64dc7f2b274cd767a5864794,,,,,,,decisionTrl,resources/DBN.BMP,resources/DP.BMP,Door2,-0.145833333,-0.056944466,1,0,0,1.4636,optionLeft,20,10950,5,24,0,24,0,1,,,,,,,,,,,,,,,,,,,,,,,,,,,,,,,,,,,,,,,
,,,,,,,,2023-08-16_08h50.43.291,HF_wild_card,2022.2.4,Win32,59.99160118,63d12557d1c4aa48a49259ee,64d2fd46c836a06233681665,64dc7f2b274cd767a5864794,,,,,,,decisionTrl,resources/DP.BMP,resources/DBN.BMP,Door1,-0.19375,-0.095833333,1,0,0,1.0627,optionLeft,30,10980,5,25,0,25,0,1,,,,,,,,,,,,,,,,,,,,,,,,,,,,,,,,,,,,,,,
,,,,,,,,2023-08-16_08h50.43.291,HF_wild_card,2022.2.4,Win32,59.99160118,63d12557d1c4aa48a49259ee,64d2fd46c836a06233681665,64dc7f2b274cd767a5864794,,,,,,,sngl,resources/Empty.png,resources/DG.BMP,Door4,0.363888931,-0.103472265,1,0,0,0.6614,optionRight,60,11040,5,26,0,26,0,1,,,,,,,,,,,,,,,,,,,,,,,,,,,,,,,,,,,,,,,
,,,,,,,,2023-08-16_08h50.43.291,HF_wild_card,2022.2.4,Win32,59.99160118,63d12557d1c4aa48a49259ee,64d2fd46c836a06233681665,64dc7f2b274cd767a5864794,,,,,,,sngl,resources/DG.BMP,resources/Empty.png,Door4,-0.174305534,-0.038194466,1,0,0,0.6156,optionLeft,80,11120,5,27,0,27,0,1,,,,,,,,,,,,,,,,,,,,,,,,,,,,,,,,,,,,,,,
,,,,,,,,2023-08-16_08h50.43.291,HF_wild_card,2022.2.4,Win32,59.99160118,63d12557d1c4aa48a49259ee,64d2fd46c836a06233681665,64dc7f2b274cd767a5864794,,,,,,,sngl,resources/DB.BMP,resources/Empty.png,WildCard_NonEx,-0.193055534,-0.113194466,1,0,0,0.7444,optionLeft,45,11165,5,28,0,28,0,1,,,,,,,,,,,,,,,,,,,,,,,,,,,,,,,,,,,,,,,
,,,,,,,,2023-08-16_08h50.43.291,HF_wild_card,2022.2.4,Win32,59.99160118,63d12557d1c4aa48a49259ee,64d2fd46c836a06233681665,64dc7f2b274cd767a5864794,,,,,,,sngl,resources/DP.BMP,resources/Empty.png,Door1,-0.147222201,-0.070833333,1,0,0,0.7615,optionLeft,30,11195,5,29,0,29,0,1,,,,,,,,,,,,,,,,,,,,,,,,,,,,,,,,,,,,,,,
,,,,,,,,2023-08-16_08h50.43.291,HF_wild_card,2022.2.4,Win32,59.99160118,63d12557d1c4aa48a49259ee,64d2fd46c836a06233681665,64dc7f2b274cd767a5864794,,,,,,,sngl,resources/DY.BMP,resources/Empty.png,Door3,-0.177777735,-0.04375,1,0,0,0.6425,optionLeft,70,11265,5,30,0,30,0,1,,,,,,,,,,,,,,,,,,,,,,,,,,,,,,,,,,,,,,,
,,,,,,,,2023-08-16_08h50.43.291,HF_wild_card,2022.2.4,Win32,59.99160118,63d12557d1c4aa48a49259ee,64d2fd46c836a06233681665,64dc7f2b274cd767a5864794,,,,,,,decisionTrl,resources/DP.BMP,resources/DBN.BMP,Door1,-0.340277767,-0.095833333,1,0,0,1.6782,optionLeft,30,11295,5,31,0,31,0,1,,,,,,,,,,,,,,,,,,,,,,,,,,,,,,,,,,,,,,,
,,,,,,,,2023-08-16_08h50.43.291,HF_wild_card,2022.2.4,Win32,59.99160118,63d12557d1c4aa48a49259ee,64d2fd46c836a06233681665,64dc7f2b274cd767a5864794,,,,,,,decisionTrl,resources/DY.BMP,resources/DG.BMP,Door3,-0.155555534,-0.053472265,1,0,0,1.9119,optionLeft,70,11365,5,32,0,32,0,1,,,,,,,,,,,,,,,,,,,,,,,,,,,,,,,,,,,,,,,
,,,,,,,,2023-08-16_08h50.43.291,HF_wild_card,2022.2.4,Win32,59.99160118,63d12557d1c4aa48a49259ee,64d2fd46c836a06233681665,64dc7f2b274cd767a5864794,,,,,,,ctch,resources/DBN.BMP,resources/DY.BMP,Door3,0.278472265,-0.083333333,1,0,0,0.7634,optionRight,70,11435,5,33,0,33,0,1,,,,,,,,,,,,,,,,,,,,,,,,,,,,,,,,,,,,,,,
,,,,,,,,2023-08-16_08h50.43.291,HF_wild_card,2022.2.4,Win32,59.99160118,63d12557d1c4aa48a49259ee,64d2fd46c836a06233681665,64dc7f2b274cd767a5864794,,,,,,,sngl,resources/Empty.png,resources/DY.BMP,Door3,0.275694466,-0.059027799,1,0,0,0.7137,optionRight,70,11505,5,34,0,34,0,1,,,,,,,,,,,,,,,,,,,,,,,,,,,,,,,,,,,,,,,
,,,,,,,,2023-08-16_08h50.43.291,HF_wild_card,2022.2.4,Win32,59.99160118,63d12557d1c4aa48a49259ee,64d2fd46c836a06233681665,64dc7f2b274cd767a5864794,,,,,,,sngl,resources/DB.BMP,resources/Empty.png,WildCard_NonEx,-0.245833333,-0.027083333,1,0,0,0.8784,optionLeft,55,11560,5,35,0,35,0,1,,,,,,,,,,,,,,,,,,,,,,,,,,,,,,,,,,,,,,,
,,,,,,,,2023-08-16_08h50.43.291,HF_wild_card,2022.2.4,Win32,59.99160118,63d12557d1c4aa48a49259ee,64d2fd46c836a06233681665,64dc7f2b274cd767a5864794,,,,,,,decisionTrl,resources/DY.BMP,resources/DG.BMP,Door4,0.261111132,-0.042361132,1,0,0,1.879,optionRight,60,11620,5,36,0,36,0,1,,,,,,,,,,,,,,,,,,,,,,,,,,,,,,,,,,,,,,,
,,,,,,,,2023-08-16_08h50.43.291,HF_wild_card,2022.2.4,Win32,59.99160118,63d12557d1c4aa48a49259ee,64d2fd46c836a06233681665,64dc7f2b274cd767a5864794,,,,,,,decisionTrl,resources/DG.BMP,resources/DY.BMP,Door3,0.325694529,-0.109722265,1,0,0,0.8122,optionRight,70,11690,5,37,0,37,0,1,,,,,,,,,,,,,,,,,,,,,,,,,,,,,,,,,,,,,,,
,,,,,,,,2023-08-16_08h50.43.291,HF_wild_card,2022.2.4,Win32,59.99160118,63d12557d1c4aa48a49259ee,64d2fd46c836a06233681665,64dc7f2b274cd767a5864794,,,,,,,sngl,resources/Empty.png,resources/DP.BMP,Door1,0.270138931,-0.120833333,1,0,0,0.7446,optionRight,30,11720,5,38,0,38,0,1,,,,,,,,,,,,,,,,,,,,,,,,,,,,,,,,,,,,,,,
,,,,,,,,2023-08-16_08h50.43.291,HF_wild_card,2022.2.4,Win32,59.99160118,63d12557d1c4aa48a49259ee,64d2fd46c836a06233681665,64dc7f2b274cd767a5864794,,,,,,,decisionTrl,resources/DBN.BMP,resources/DP.BMP,Door1,0.364583333,-0.092361132,1,0,0,2.545,optionRight,30,11750,5,39,0,39,0,1,,,,,,,,,,,,,,,,,,,,,,,,,,,,,,,,,,,,,,,
,,,,,,,,2023-08-16_08h50.43.291,HF_wild_card,2022.2.4,Win32,59.99160118,63d12557d1c4aa48a49259ee,64d2fd46c836a06233681665,64dc7f2b274cd767a5864794,,,,,,,decisionTrl,resources/DG.BMP,resources/DB.BMP,Door4,-0.278472201,-0.061111132,1,0,0,1.3764,optionLeft,60,11810,5,40,0,40,0,1,,,,,,,,,,,,,,,,,,,,,,,,,,,,,,,,,,,,,,,
,,,,,,,,2023-08-16_08h50.43.291,HF_wild_card,2022.2.4,Win32,59.99160118,63d12557d1c4aa48a49259ee,64d2fd46c836a06233681665,64dc7f2b274cd767a5864794,,,,,,,decisionTrl,resources/DB.BMP,resources/DP.BMP,WildCard_NonEx,-0.188888868,-0.08125,1,0,0,2.6431,optionLeft,45,11855,5,41,0,41,0,1,,,,,,,,,,,,,,,,,,,,,,,,,,,,,,,,,,,,,,,
,,,,,,,,2023-08-16_08h50.43.291,HF_wild_card,2022.2.4,Win32,59.99160118,63d12557d1c4aa48a49259ee,64d2fd46c836a06233681665,64dc7f2b274cd767a5864794,,,,,,,decisionTrl,resources/DY.BMP,resources/DG.BMP,Door3,-0.136805534,-0.079166667,1,0,0,1.5948,optionLeft,70,11925,5,42,0,42,0,1,,,,,,,,,,,,,,,,,,,,,,,,,,,,,,,,,,,,,,,
,,,,,,,,2023-08-16_08h50.43.291,HF_wild_card,2022.2.4,Win32,59.99160118,63d12557d1c4aa48a49259ee,64d2fd46c836a06233681665,64dc7f2b274cd767a5864794,,,,,,,decisionTrl,resources/DBN.BMP,resources/DP.BMP,Door2,-0.140277735,-0.089583333,1,0,0,3.0571,optionLeft,20,11945,5,43,0,43,0,1,,,,,,,,,,,,,,,,,,,,,,,,,,,,,,,,,,,,,,,
,,,,,,,,2023-08-16_08h50.43.291,HF_wild_card,2022.2.4,Win32,59.99160118,63d12557d1c4aa48a49259ee,64d2fd46c836a06233681665,64dc7f2b274cd767a5864794,,,,,,,,,,,,,,,,,,,,,,,,,,4,0,4,0,1,,,,,,,,,,,,,,,,,,,,,,,,,,,,,,,,,,
,,,,,,,,2023-08-16_08h50.43.291,HF_wild_card,2022.2.4,Win32,59.99160118,63d12557d1c4aa48a49259ee,64d2fd46c836a06233681665,64dc7f2b274cd767a5864794,,,,,,,decisionTrl,resources/DBN.BMP,resources/DP.BMP,Door2,-0.241666667,-0.121527799,1,0,0,1.6433,optionLeft,40,11985,6,0,0,0,0,1,,,,,,,,,,,,,,,,,,,,,,,,,,,,,,,,,,,,,,,
,,,,,,,,2023-08-16_08h50.43.291,HF_wild_card,2022.2.4,Win32,59.99160118,63d12557d1c4aa48a49259ee,64d2fd46c836a06233681665,64dc7f2b274cd767a5864794,,,,,,,sngl,resources/Empty.png,resources/DP.BMP,Door1,0.4375,-0.073611132,1,0,0,0.9431,optionRight,30,12015,6,1,0,1,0,1,,,,,,,,,,,,,,,,,,,,,,,,,,,,,,,,,,,,,,,
,,,,,,,,2023-08-16_08h50.43.291,HF_wild_card,2022.2.4,Win32,59.99160118,63d12557d1c4aa48a49259ee,64d2fd46c836a06233681665,64dc7f2b274cd767a5864794,,,,,,,sngl,resources/DBN.BMP,resources/Empty.png,Door2,-0.213194402,-0.027083333,1,0,0,0.8623,optionLeft,20,12035,6,2,0,2,0,1,,,,,,,,,,,,,,,,,,,,,,,,,,,,,,,,,,,,,,,
,,,,,,,,2023-08-16_08h50.43.291,HF_wild_card,2022.2.4,Win32,59.99160118,63d12557d1c4aa48a49259ee,64d2fd46c836a06233681665,64dc7f2b274cd767a5864794,,,,,,,decisionTrl,resources/DBN.BMP,resources/DB.BMP,WildCard_NonEx,0.270138931,-0.080555598,1,0,0,1.113,optionRight,55,12090,6,3,0,3,0,1,,,,,,,,,,,,,,,,,,,,,,,,,,,,,,,,,,,,,,,
,,,,,,,,2023-08-16_08h50.43.291,HF_wild_card,2022.2.4,Win32,59.99160118,63d12557d1c4aa48a49259ee,64d2fd46c836a06233681665,64dc7f2b274cd767a5864794,,,,,,,decisionTrl,resources/DG.BMP,resources/DY.BMP,Door4,-0.352083333,-0.104861132,1,0,0,1.373,optionLeft,80,12170,6,4,0,4,0,1,,,,,,,,,,,,,,,,,,,,,,,,,,,,,,,,,,,,,,,
,,,,,,,,2023-08-16_08h50.43.291,HF_wild_card,2022.2.4,Win32,59.99160118,63d12557d1c4aa48a49259ee,64d2fd46c836a06233681665,64dc7f2b274cd767a5864794,,,,,,,decisionTrl,resources/DY.BMP,resources/DB.BMP,Door3,-0.222916667,-0.076388931,1,0,0,0.6619,optionLeft,70,12240,6,5,0,5,0,1,,,,,,,,,,,,,,,,,,,,,,,,,,,,,,,,,,,,,,,
,,,,,,,,2023-08-16_08h50.43.291,HF_wild_card,2022.2.4,Win32,59.99160118,63d12557d1c4aa48a49259ee,64d2fd46c836a06233681665,64dc7f2b274cd767a5864794,,,,,,,decisionTrl,resources/DG.BMP,resources/DB.BMP,Door4,-0.330555534,-0.129861132,1,0,0,1.8955,optionLeft,60,12300,6,6,0,6,0,1,,,,,,,,,,,,,,,,,,,,,,,,,,,,,,,,,,,,,,,
,,,,,,,,2023-08-16_08h50.43.291,HF_wild_card,2022.2.4,Win32,59.99160118,63d12557d1c4aa48a49259ee,64d2fd46c836a06233681665,64dc7f2b274cd767a5864794,,,,,,,sngl,resources/Empty.png,resources/DB.BMP,WildCard_NonEx,0.284027799,-0.022916667,1,0,0,0.7457,optionRight,55,12355,6,7,0,7,0,1,,,,,,,,,,,,,,,,,,,,,,,,,,,,,,,,,,,,,,,
,,,,,,,,2023-08-16_08h50.43.291,HF_wild_card,2022.2.4,Win32,59.99160118,63d12557d1c4aa48a49259ee,64d2fd46c836a06233681665,64dc7f2b274cd767a5864794,,,,,,,decisionTrl,resources/DBN.BMP,resources/DP.BMP,Door2,-0.256944434,-0.074305598,1,0,0,1.7959,optionLeft,40,12395,6,8,0,8,0,1,,,,,,,,,,,,,,,,,,,,,,,,,,,,,,,,,,,,,,,
,,,,,,,,2023-08-16_08h50.43.291,HF_wild_card,2022.2.4,Win32,59.99160118,63d12557d1c4aa48a49259ee,64d2fd46c836a06233681665,64dc7f2b274cd767a5864794,,,,,,,decisionTrl,resources/DY.BMP,resources/DG.BMP,Door4,0.329861196,-0.066666667,1,0,0,1.496,optionRight,60,12455,6,9,0,9,0,1,,,,,,,,,,,,,,,,,,,,,,,,,,,,,,,,,,,,,,,
,,,,,,,,2023-08-16_08h50.43.291,HF_wild_card,2022.2.4,Win32,59.99160118,63d12557d1c4aa48a49259ee,64d2fd46c836a06233681665,64dc7f2b274cd767a5864794,,,,,,,ctch,resources/DY.BMP,resources/DBN.BMP,Door3,-0.170138868,-0.025694466,1,0,0,0.727,optionLeft,70,12525,6,10,0,10,0,1,,,,,,,,,,,,,,,,,,,,,,,,,,,,,,,,,,,,,,,
,,,,,,,,2023-08-16_08h50.43.291,HF_wild_card,2022.2.4,Win32,59.99160118,63d12557d1c4aa48a49259ee,64d2fd46c836a06233681665,64dc7f2b274cd767a5864794,,,,,,,ctch,resources/DG.BMP,resources/DP.BMP,Door4,-0.159722201,-0.084027799,1,0,0,2.082,optionLeft,60,12585,6,11,0,11,0,1,,,,,,,,,,,,,,,,,,,,,,,,,,,,,,,,,,,,,,,
,,,,,,,,2023-08-16_08h50.43.291,HF_wild_card,2022.2.4,Win32,59.99160118,63d12557d1c4aa48a49259ee,64d2fd46c836a06233681665,64dc7f2b274cd767a5864794,,,,,,,sngl,resources/DB.BMP,resources/Empty.png,WildCard_NonEx,-0.221527767,-0.059027799,1,0,0,0.6569,optionLeft,45,12630,6,12,0,12,0,1,,,,,,,,,,,,,,,,,,,,,,,,,,,,,,,,,,,,,,,
,,,,,,,,2023-08-16_08h50.43.291,HF_wild_card,2022.2.4,Win32,59.99160118,63d12557d1c4aa48a49259ee,64d2fd46c836a06233681665,64dc7f2b274cd767a5864794,,,,,,,decisionTrl,resources/DG.BMP,resources/DY.BMP,Door3,0.211805598,-0.027083333,1,0,0,0.8112,optionRight,70,12700,6,13,0,13,0,1,,,,,,,,,,,,,,,,,,,,,,,,,,,,,,,,,,,,,,,
,,,,,,,,2023-08-16_08h50.43.291,HF_wild_card,2022.2.4,Win32,59.99160118,63d12557d1c4aa48a49259ee,64d2fd46c836a06233681665,64dc7f2b274cd767a5864794,,,,,,,decisionTrl,resources/DB.BMP,resources/DG.BMP,Door4,0.190277799,-0.046527799,1,0,0,1.0434,optionRight,80,12780,6,14,0,14,0,1,,,,,,,,,,,,,,,,,,,,,,,,,,,,,,,,,,,,,,,
,,,,,,,,2023-08-16_08h50.43.291,HF_wild_card,2022.2.4,Win32,59.99160118,63d12557d1c4aa48a49259ee,64d2fd46c836a06233681665,64dc7f2b274cd767a5864794,,,,,,,ctch,resources/DP.BMP,resources/DG.BMP,Door4,0.222916667,-0.113888931,1,0,0,0.662,optionRight,80,12860,6,15,0,15,0,1,,,,,,,,,,,,,,,,,,,,,,,,,,,,,,,,,,,,,,,
,,,,,,,,2023-08-16_08h50.43.291,HF_wild_card,2022.2.4,Win32,59.99160118,63d12557d1c4aa48a49259ee,64d2fd46c836a06233681665,64dc7f2b274cd767a5864794,,,,,,,decisionTrl,resources/DB.BMP,resources/DY.BMP,Door3,0.210416667,-0.071527799,1,0,0,0.7745,optionRight,70,12930,6,16,0,16,0,1,,,,,,,,,,,,,,,,,,,,,,,,,,,,,,,,,,,,,,,
,,,,,,,,2023-08-16_08h50.43.291,HF_wild_card,2022.2.4,Win32,59.99160118,63d12557d1c4aa48a49259ee,64d2fd46c836a06233681665,64dc7f2b274cd767a5864794,,,,,,,decisionTrl,resources/DY.BMP,resources/DG.BMP,Door4,0.297916667,-0.047916667,1,0,0,1.5107,optionRight,60,12990,6,17,0,17,0,1,,,,,,,,,,,,,,,,,,,,,,,,,,,,,,,,,,,,,,,
,,,,,,,,2023-08-16_08h50.43.291,HF_wild_card,2022.2.4,Win32,59.99160118,63d12557d1c4aa48a49259ee,64d2fd46c836a06233681665,64dc7f2b274cd767a5864794,,,,,,,decisionTrl,resources/DBN.BMP,resources/DP.BMP,Door1,0.254166667,-0.122916667,1,0,0,0.8936,optionRight,30,13020,6,18,0,18,0,1,,,,,,,,,,,,,,,,,,,,,,,,,,,,,,,,,,,,,,,
,,,,,,,,2023-08-16_08h50.43.291,HF_wild_card,2022.2.4,Win32,59.99160118,63d12557d1c4aa48a49259ee,64d2fd46c836a06233681665,64dc7f2b274cd767a5864794,,,,,,,decisionTrl,resources/DB.BMP,resources/DBN.BMP,Door2,0.199305598,-0.076388931,1,0,0,0.6452,optionRight,40,13060,6,19,0,19,0,1,,,,,,,,,,,,,,,,,,,,,,,,,,,,,,,,,,,,,,,
,,,,,,,,2023-08-16_08h50.43.291,HF_wild_card,2022.2.4,Win32,59.99160118,63d12557d1c4aa48a49259ee,64d2fd46c836a06233681665,64dc7f2b274cd767a5864794,,,,,,,sngl,resources/DY.BMP,resources/Empty.png,Door3,-0.222916667,-0.064583333,1,0,0,0.6243,optionLeft,70,13130,6,20,0,20,0,1,,,,,,,,,,,,,,,,,,,,,,,,,,,,,,,,,,,,,,,
,,,,,,,,2023-08-16_08h50.43.291,HF_wild_card,2022.2.4,Win32,59.99160118,63d12557d1c4aa48a49259ee,64d2fd46c836a06233681665,64dc7f2b274cd767a5864794,,,,,,,decisionTrl,resources/DY.BMP,resources/DG.BMP,Door3,-0.128472201,-0.092361132,1,0,0,1.4119,optionLeft,70,13200,6,21,0,21,0,1,,,,,,,,,,,,,,,,,,,,,,,,,,,,,,,,,,,,,,,
,,,,,,,,2023-08-16_08h50.43.291,HF_wild_card,2022.2.4,Win32,59.99160118,63d12557d1c4aa48a49259ee,64d2fd46c836a06233681665,64dc7f2b274cd767a5864794,,,,,,,sngl,resources/Empty.png,resources/DG.BMP,Door4,0.209027799,-0.047222265,1,0,0,0.6095,optionRight,80,13280,6,22,0,22,0,1,,,,,,,,,,,,,,,,,,,,,,,,,,,,,,,,,,,,,,,
,,,,,,,,2023-08-16_08h50.43.291,HF_wild_card,2022.2.4,Win32,59.99160118,63d12557d1c4aa48a49259ee,64d2fd46c836a06233681665,64dc7f2b274cd767a5864794,,,,,,,sngl,resources/Empty.png,resources/DBN.BMP,Door2,0.245833333,-0.071527799,1,0,0,0.6784,optionRight,40,13320,6,23,0,23,0,1,,,,,,,,,,,,,,,,,,,,,,,,,,,,,,,,,,,,,,,
,,,,,,,,2023-08-16_08h50.43.291,HF_wild_card,2022.2.4,Win32,59.99160118,63d12557d1c4aa48a49259ee,64d2fd46c836a06233681665,64dc7f2b274cd767a5864794,,,,,,,decisionTrl,resources/DG.BMP,resources/DY.BMP,Door4,-0.318055534,-0.084722265,1,0,0,1.0927,optionLeft,60,13380,6,24,0,24,0,1,,,,,,,,,,,,,,,,,,,,,,,,,,,,,,,,,,,,,,,
,,,,,,,,2023-08-16_08h50.43.291,HF_wild_card,2022.2.4,Win32,59.99160118,63d12557d1c4aa48a49259ee,64d2fd46c836a06233681665,64dc7f2b274cd767a5864794,,,,,,,decisionTrl,resources/DP.BMP,resources/DBN.BMP,Door2,0.275694466,-0.10625,1,0,0,1.4979,optionRight,20,13400,6,25,0,25,0,1,,,,,,,,,,,,,,,,,,,,,,,,,,,,,,,,,,,,,,,
,,,,,,,,2023-08-16_08h50.43.291,HF_wild_card,2022.2.4,Win32,59.99160118,63d12557d1c4aa48a49259ee,64d2fd46c836a06233681665,64dc7f2b274cd767a5864794,,,,,,,sngl,resources/DG.BMP,resources/Empty.png,Door4,-0.26875,-0.043055598,1,0,0,0.6458,optionLeft,60,13460,6,26,0,26,0,1,,,,,,,,,,,,,,,,,,,,,,,,,,,,,,,,,,,,,,,
,,,,,,,,2023-08-16_08h50.43.291,HF_wild_card,2022.2.4,Win32,59.99160118,63d12557d1c4aa48a49259ee,64d2fd46c836a06233681665,64dc7f2b274cd767a5864794,,,,,,,decisionTrl,resources/DBN.BMP,resources/DP.BMP,Door1,0.404861196,-0.114583333,1,0,0,1.5816,optionRight,30,13490,6,27,0,27,0,1,,,,,,,,,,,,,,,,,,,,,,,,,,,,,,,,,,,,,,,
,,,,,,,,2023-08-16_08h50.43.291,HF_wild_card,2022.2.4,Win32,59.99160118,63d12557d1c4aa48a49259ee,64d2fd46c836a06233681665,64dc7f2b274cd767a5864794,,,,,,,decisionTrl,resources/DG.BMP,resources/DY.BMP,Door3,0.239583333,-0.124305598,1,0,0,0.7763,optionRight,70,13560,6,28,0,28,0,1,,,,,,,,,,,,,,,,,,,,,,,,,,,,,,,,,,,,,,,
,,,,,,,,2023-08-16_08h50.43.291,HF_wild_card,2022.2.4,Win32,59.99160118,63d12557d1c4aa48a49259ee,64d2fd46c836a06233681665,64dc7f2b274cd767a5864794,,,,,,,ctch,resources/DG.BMP,resources/DP.BMP,Door4,-0.178472201,-0.050694466,1,0,0,1.6116,optionLeft,80,13640,6,29,0,29,0,1,,,,,,,,,,,,,,,,,,,,,,,,,,,,,,,,,,,,,,,
,,,,,,,,2023-08-16_08h50.43.291,HF_wild_card,2022.2.4,Win32,59.99160118,63d12557d1c4aa48a49259ee,64d2fd46c836a06233681665,64dc7f2b274cd767a5864794,,,,,,,ctch,resources/DY.BMP,resources/DBN.BMP,Door3,-0.109722201,-0.061805598,1,0,0,0.9447,optionLeft,70,13710,6,30,0,30,0,1,,,,,,,,,,,,,,,,,,,,,,,,,,,,,,,,,,,,,,,
,,,,,,,,2023-08-16_08h50.43.291,HF_wild_card,2022.2.4,Win32,59.99160118,63d12557d1c4aa48a49259ee,64d2fd46c836a06233681665,64dc7f2b274cd767a5864794,,,,,,,decisionTrl,resources/DP.BMP,resources/DBN.BMP,Door1,-0.159027735,-0.070138931,1,0,0,1.0354,optionLeft,30,13740,6,31,0,31,0,1,,,,,,,,,,,,,,,,,,,,,,,,,,,,,,,,,,,,,,,
,,,,,,,,2023-08-16_08h50.43.291,HF_wild_card,2022.2.4,Win32,59.99160118,63d12557d1c4aa48a49259ee,64d2fd46c836a06233681665,64dc7f2b274cd767a5864794,,,,,,,ctch,resources/DBN.BMP,resources/DY.BMP,Door3,0.309027799,-0.119444466,1,0,0,0.7477,optionRight,70,13810,6,32,0,32,0,1,,,,,,,,,,,,,,,,,,,,,,,,,,,,,,,,,,,,,,,
,,,,,,,,2023-08-16_08h50.43.291,HF_wild_card,2022.2.4,Win32,59.99160118,63d12557d1c4aa48a49259ee,64d2fd46c836a06233681665,64dc7f2b274cd767a5864794,,,,,,,sngl,resources/DB.BMP,resources/Empty.png,WildCard_NonEx,-0.215277735,-0.074305598,1,0,0,0.7086,optionLeft,55,13865,6,33,0,33,0,1,,,,,,,,,,,,,,,,,,,,,,,,,,,,,,,,,,,,,,,
,,,,,,,,2023-08-16_08h50.43.291,HF_wild_card,2022.2.4,Win32,59.99160118,63d12557d1c4aa48a49259ee,64d2fd46c836a06233681665,64dc7f2b274cd767a5864794,,,,,,,decisionTrl,resources/DP.BMP,resources/DB.BMP,WildCard_NonEx,0.214583333,0.001388868,1,0,0,1.1595,optionRight,45,13910,6,34,0,34,0,1,,,,,,,,,,,,,,,,,,,,,,,,,,,,,,,,,,,,,,,
,,,,,,,,2023-08-16_08h50.43.291,HF_wild_card,2022.2.4,Win32,59.99160118,63d12557d1c4aa48a49259ee,64d2fd46c836a06233681665,64dc7f2b274cd767a5864794,,,,,,,decisionTrl,resources/DP.BMP,resources/DBN.BMP,Door1,-0.122222201,-0.058333333,1,0,0,2.0285,optionLeft,30,13940,6,35,0,35,0,1,,,,,,,,,,,,,,,,,,,,,,,,,,,,,,,,,,,,,,,
,,,,,,,,2023-08-16_08h50.43.291,HF_wild_card,2022.2.4,Win32,59.99160118,63d12557d1c4aa48a49259ee,64d2fd46c836a06233681665,64dc7f2b274cd767a5864794,,,,,,,sngl,resources/Empty.png,resources/DB.BMP,WildCard_NonEx,0.24375,-0.03125,1,0,0,0.6457,optionRight,45,13985,6,36,0,36,0,1,,,,,,,,,,,,,,,,,,,,,,,,,,,,,,,,,,,,,,,
,,,,,,,,2023-08-16_08h50.43.291,HF_wild_card,2022.2.4,Win32,59.99160118,63d12557d1c4aa48a49259ee,64d2fd46c836a06233681665,64dc7f2b274cd767a5864794,,,,,,,ctch,resources/DP.BMP,resources/DG.BMP,Door4,0.311805598,-0.076388931,1,0,0,1.0774,optionRight,80,14065,6,37,0,37,0,1,,,,,,,,,,,,,,,,,,,,,,,,,,,,,,,,,,,,,,,
,,,,,,,,2023-08-16_08h50.43.291,HF_wild_card,2022.2.4,Win32,59.99160118,63d12557d1c4aa48a49259ee,64d2fd46c836a06233681665,64dc7f2b274cd767a5864794,,,,,,,decisionTrl,resources/DB.BMP,resources/DP.BMP,WildCard_NonEx,-0.1375,-0.040277799,1,0,0,1.313,optionLeft,45,14110,6,38,0,38,0,1,,,,,,,,,,,,,,,,,,,,,,,,,,,,,,,,,,,,,,,
,,,,,,,,2023-08-16_08h50.43.291,HF_wild_card,2022.2.4,Win32,59.99160118,63d12557d1c4aa48a49259ee,64d2fd46c836a06233681665,64dc7f2b274cd767a5864794,,,,,,,sngl,resources/DP.BMP,resources/Empty.png,Door1,-0.15,-0.027083333,1,0,0,0.6312,optionLeft,30,14140,6,39,0,39,0,1,,,,,,,,,,,,,,,,,,,,,,,,,,,,,,,,,,,,,,,
,,,,,,,,2023-08-16_08h50.43.291,HF_wild_card,2022.2.4,Win32,59.99160118,63d12557d1c4aa48a49259ee,64d2fd46c836a06233681665,64dc7f2b274cd767a5864794,,,,,,,decisionTrl,resources/DY.BMP,resources/DG.BMP,Door3,-0.180555534,-0.016666667,1,0,0,0.7441,optionLeft,70,14210,6,40,0,40,0,1,,,,,,,,,,,,,,,,,,,,,,,,,,,,,,,,,,,,,,,
,,,,,,,,2023-08-16_08h50.43.291,HF_wild_card,2022.2.4,Win32,59.99160118,63d12557d1c4aa48a49259ee,64d2fd46c836a06233681665,64dc7f2b274cd767a5864794,,,,,,,decisionTrl,resources/DP.BMP,resources/DBN.BMP,Door2,0.313194466,-0.028472233,1,0,0,1.4621,optionRight,20,14230,6,41,0,41,0,1,,,,,,,,,,,,,,,,,,,,,,,,,,,,,,,,,,,,,,,
,,,,,,,,2023-08-16_08h50.43.291,HF_wild_card,2022.2.4,Win32,59.99160118,63d12557d1c4aa48a49259ee,64d2fd46c836a06233681665,64dc7f2b274cd767a5864794,,,,,,,sngl,resources/Empty.png,resources/DY.BMP,Door3,0.282638931,-0.058333333,1,0,0,0.6116,optionRight,70,14300,6,42,0,42,0,1,,,,,,,,,,,,,,,,,,,,,,,,,,,,,,,,,,,,,,,
,,,,,,,,2023-08-16_08h50.43.291,HF_wild_card,2022.2.4,Win32,59.99160118,63d12557d1c4aa48a49259ee,64d2fd46c836a06233681665,64dc7f2b274cd767a5864794,,,,,,,ctch,resources/DBN.BMP,resources/DY.BMP,Door3,0.253472265,-0.065972265,1,0,0,0.7304,optionRight,70,14370,6,43,0,43,0,1,,,,,,,,,,,,,,,,,,,,,,,,,,,,,,,,,,,,,,,
,,,,,,,,2023-08-16_08h50.43.291,HF_wild_card,2022.2.4,Win32,59.99160118,63d12557d1c4aa48a49259ee,64d2fd46c836a06233681665,64dc7f2b274cd767a5864794,,,,,,,,,,,,,,,,,,,,,,,,,,5,0,5,0,1,,,,,,,,,,,,,,,,,,,,,,,,,,,,,,,,,,
,,,,,,,,2023-08-16_08h50.43.291,HF_wild_card,2022.2.4,Win32,59.99160118,63d12557d1c4aa48a49259ee,64d2fd46c836a06233681665,64dc7f2b274cd767a5864794,,,,,,,ctch,resources/DP.BMP,resources/DG.BMP,Door4,0.307638931,-0.036805598,1,0,0,2.046,optionRight,80,14450,7,0,0,0,0,1,,,,,,,,,,,,,,,,,,,,,,,,,,,,,,,,,,,,,,,
,,,,,,,,2023-08-16_08h50.43.291,HF_wild_card,2022.2.4,Win32,59.99160118,63d12557d1c4aa48a49259ee,64d2fd46c836a06233681665,64dc7f2b274cd767a5864794,,,,,,,ctch,resources/DBN.BMP,resources/DY.BMP,Door3,0.431944529,-0.033333333,1,0,0,1.6624,optionRight,70,14520,7,1,0,1,0,1,,,,,,,,,,,,,,,,,,,,,,,,,,,,,,,,,,,,,,,
,,,,,,,,2023-08-16_08h50.43.291,HF_wild_card,2022.2.4,Win32,59.99160118,63d12557d1c4aa48a49259ee,64d2fd46c836a06233681665,64dc7f2b274cd767a5864794,,,,,,,decisionTrl,resources/DY.BMP,resources/DG.BMP,Door4,0.292361132,-0.064583333,1,0,0,1.5452,optionRight,60,14580,7,2,0,2,0,1,,,,,,,,,,,,,,,,,,,,,,,,,,,,,,,,,,,,,,,
,,,,,,,,2023-08-16_08h50.43.291,HF_wild_card,2022.2.4,Win32,59.99160118,63d12557d1c4aa48a49259ee,64d2fd46c836a06233681665,64dc7f2b274cd767a5864794,,,,,,,decisionTrl,resources/DP.BMP,resources/DBN.BMP,Door2,0.317361196,-0.030555566,1,0,0,3.228,optionRight,40,14620,7,3,0,3,0,1,,,,,,,,,,,,,,,,,,,,,,,,,,,,,,,,,,,,,,,
,,,,,,,,2023-08-16_08h50.43.291,HF_wild_card,2022.2.4,Win32,59.99160118,63d12557d1c4aa48a49259ee,64d2fd46c836a06233681665,64dc7f2b274cd767a5864794,,,,,,,ctch,resources/DY.BMP,resources/DBN.BMP,Door3,-0.213194402,0.001388868,1,0,0,0.8467,optionLeft,70,14690,7,4,0,4,0,1,,,,,,,,,,,,,,,,,,,,,,,,,,,,,,,,,,,,,,,
,,,,,,,,2023-08-16_08h50.43.291,HF_wild_card,2022.2.4,Win32,59.99160118,63d12557d1c4aa48a49259ee,64d2fd46c836a06233681665,64dc7f2b274cd767a5864794,,,,,,,ctch,resources/DP.BMP,resources/DG.BMP,Door4,0.390972265,-0.034027799,1,0,0,1.5286,optionRight,60,14750,7,5,0,5,0,1,,,,,,,,,,,,,,,,,,,,,,,,,,,,,,,,,,,,,,,
,,,,,,,,2023-08-16_08h50.43.291,HF_wild_card,2022.2.4,Win32,59.99160118,63d12557d1c4aa48a49259ee,64d2fd46c836a06233681665,64dc7f2b274cd767a5864794,,,,,,,decisionTrl,resources/DBN.BMP,resources/DP.BMP,Door1,0.29375,-0.025694466,1,0,0,1.5789,optionRight,30,14780,7,6,0,6,0,1,,,,,,,,,,,,,,,,,,,,,,,,,,,,,,,,,,,,,,,
,,,,,,,,2023-08-16_08h50.43.291,HF_wild_card,2022.2.4,Win32,59.99160118,63d12557d1c4aa48a49259ee,64d2fd46c836a06233681665,64dc7f2b274cd767a5864794,,,,,,,decisionTrl,resources/DY.BMP,resources/DG.BMP,Door3,-0.169444402,-0.045138931,1,0,0,1.1959,optionLeft,70,14850,7,7,0,7,0,1,,,,,,,,,,,,,,,,,,,,,,,,,,,,,,,,,,,,,,,
,,,,,,,,2023-08-16_08h50.43.291,HF_wild_card,2022.2.4,Win32,59.99160118,63d12557d1c4aa48a49259ee,64d2fd46c836a06233681665,64dc7f2b274cd767a5864794,,,,,,,decisionTrl,resources/DBN.BMP,resources/DP.BMP,Door1,0.268055598,-0.034027799,1,0,0,2.9797,optionRight,30,14880,7,8,0,8,0,1,,,,,,,,,,,,,,,,,,,,,,,,,,,,,,,,,,,,,,,
,,,,,,,,2023-08-16_08h50.43.291,HF_wild_card,2022.2.4,Win32,59.99160118,63d12557d1c4aa48a49259ee,64d2fd46c836a06233681665,64dc7f2b274cd767a5864794,,,,,,,ctch,resources/DG.BMP,resources/DP.BMP,Door4,-0.284027767,-0.052083333,1,0,0,0.9629,optionLeft,80,14960,7,9,0,9,0,1,,,,,,,,,,,,,,,,,,,,,,,,,,,,,,,,,,,,,,,
,,,,,,,,2023-08-16_08h50.43.291,HF_wild_card,2022.2.4,Win32,59.99160118,63d12557d1c4aa48a49259ee,64d2fd46c836a06233681665,64dc7f2b274cd767a5864794,,,,,,,decisionTrl,resources/DY.BMP,resources/DG.BMP,Door3,-0.177083333,-0.048611132,1,0,0,1.5145,optionLeft,70,15030,7,10,0,10,0,1,,,,,,,,,,,,,,,,,,,,,,,,,,,,,,,,,,,,,,,
,,,,,,,,2023-08-16_08h50.43.291,HF_wild_card,2022.2.4,Win32,59.99160118,63d12557d1c4aa48a49259ee,64d2fd46c836a06233681665,64dc7f2b274cd767a5864794,,,,,,,decisionTrl,resources/DBN.BMP,resources/DP.BMP,Door1,0.211805598,-0.027083333,1,0,0,1.2772,optionRight,30,15060,7,11,0,11,0,1,,,,,,,,,,,,,,,,,,,,,,,,,,,,,,,,,,,,,,,
,,,,,,,,2023-08-16_08h50.43.291,HF_wild_card,2022.2.4,Win32,59.99160118,63d12557d1c4aa48a49259ee,64d2fd46c836a06233681665,64dc7f2b274cd767a5864794,,,,,,,decisionTrl,resources/DG.BMP,resources/DY.BMP,Door3,0.215972265,-0.013194466,1,0,0,1.5634,optionRight,70,15130,7,12,0,12,0,1,,,,,,,,,,,,,,,,,,,,,,,,,,,,,,,,,,,,,,,
,,,,,,,,2023-08-16_08h50.43.291,HF_wild_card,2022.2.4,Win32,59.99160118,63d12557d1c4aa48a49259ee,64d2fd46c836a06233681665,64dc7f2b274cd767a5864794,,,,,,,decisionTrl,resources/DY.BMP,resources/DG.BMP,Door3,-0.215277735,-0.056944466,1,0,0,1.1811,optionLeft,70,15200,7,13,0,13,0,1,,,,,,,,,,,,,,,,,,,,,,,,,,,,,,,,,,,,,,,
,,,,,,,,2023-08-16_08h50.43.291,HF_wild_card,2022.2.4,Win32,59.99160118,63d12557d1c4aa48a49259ee,64d2fd46c836a06233681665,64dc7f2b274cd767a5864794,,,,,,,ctch,resources/DBN.BMP,resources/DY.BMP,Door3,0.211111132,-0.007638899,1,0,0,0.9144,optionRight,70,15270,7,14,0,14,0,1,,,,,,,,,,,,,,,,,,,,,,,,,,,,,,,,,,,,,,,
,,,,,,,,2023-08-16_08h50.43.291,HF_wild_card,2022.2.4,Win32,59.99160118,63d12557d1c4aa48a49259ee,64d2fd46c836a06233681665,64dc7f2b274cd767a5864794,,,,,,,decisionTrl,resources/DP.BMP,resources/DBN.BMP,Door2,0.266666667,0.000694434,1,0,0,1.2641,optionRight,40,15310,7,15,0,15,0,1,,,,,,,,,,,,,,,,,,,,,,,,,,,,,,,,,,,,,,,
,,,,,,,,2023-08-16_08h50.43.291,HF_wild_card,2022.2.4,Win32,59.99160118,63d12557d1c4aa48a49259ee,64d2fd46c836a06233681665,64dc7f2b274cd767a5864794,,,,,,,ctch,resources/DY.BMP,resources/DBN.BMP,Door3,-0.203472201,-0.038194466,1,0,0,0.7787,optionLeft,70,15380,7,16,0,16,0,1,,,,,,,,,,,,,,,,,,,,,,,,,,,,,,,,,,,,,,,
,,,,,,,,2023-08-16_08h50.43.291,HF_wild_card,2022.2.4,Win32,59.99160118,63d12557d1c4aa48a49259ee,64d2fd46c836a06233681665,64dc7f2b274cd767a5864794,,,,,,,ctch,resources/DG.BMP,resources/DP.BMP,Door4,-0.180555534,-0.026388899,1,0,0,1.0302,optionLeft,80,15460,7,17,0,17,0,1,,,,,,,,,,,,,,,,,,,,,,,,,,,,,,,,,,,,,,,
,,,,,,,,2023-08-16_08h50.43.291,HF_wild_card,2022.2.4,Win32,59.99160118,63d12557d1c4aa48a49259ee,64d2fd46c836a06233681665,64dc7f2b274cd767a5864794,,,,,,,decisionTrl,resources/DG.BMP,resources/DY.BMP,Door4,-0.349305534,-0.021527799,1,0,0,3.028,optionLeft,60,15520,7,18,0,18,0,1,,,,,,,,,,,,,,,,,,,,,,,,,,,,,,,,,,,,,,,
,,,,,,,,2023-08-16_08h50.43.291,HF_wild_card,2022.2.4,Win32,59.99160118,63d12557d1c4aa48a49259ee,64d2fd46c836a06233681665,64dc7f2b274cd767a5864794,,,,,,,decisionTrl,resources/DP.BMP,resources/DBN.BMP,Door1,-0.197916667,-0.039583333,1,0,0,1.3615,optionLeft,30,15550,7,19,0,19,0,1,,,,,,,,,,,,,,,,,,,,,,,,,,,,,,,,,,,,,,,
,,,,,,,,2023-08-16_08h50.43.291,HF_wild_card,2022.2.4,Win32,59.99160118,63d12557d1c4aa48a49259ee,64d2fd46c836a06233681665,64dc7f2b274cd767a5864794,,,,,,,ctch,resources/DY.BMP,resources/DBN.BMP,Door3,-0.207638868,-0.033333333,1,0,0,0.7126,optionLeft,70,15620,7,20,0,20,0,1,,,,,,,,,,,,,,,,,,,,,,,,,,,,,,,,,,,,,,,
,,,,,,,,2023-08-16_08h50.43.291,HF_wild_card,2022.2.4,Win32,59.99160118,63d12557d1c4aa48a49259ee,64d2fd46c836a06233681665,64dc7f2b274cd767a5864794,,,,,,,decisionTrl,resources/DG.BMP,resources/DY.BMP,Door3,0.166666667,-0.002777799,1,0,0,1.328,optionRight,70,15690,7,21,0,21,0,1,,,,,,,,,,,,,,,,,,,,,,,,,,,,,,,,,,,,,,,
,,,,,,,,2023-08-16_08h50.43.291,HF_wild_card,2022.2.4,Win32,59.99160118,63d12557d1c4aa48a49259ee,64d2fd46c836a06233681665,64dc7f2b274cd767a5864794,,,,,,,decisionTrl,resources/DBN.BMP,resources/DP.BMP,Door1,0.191666667,-0.072222265,1,0,0,2.0134,optionRight,30,15720,7,22,0,22,0,1,,,,,,,,,,,,,,,,,,,,,,,,,,,,,,,,,,,,,,,
,,,,,,,,2023-08-16_08h50.43.291,HF_wild_card,2022.2.4,Win32,59.99160118,63d12557d1c4aa48a49259ee,64d2fd46c836a06233681665,64dc7f2b274cd767a5864794,,,,,,,decisionTrl,resources/DG.BMP,resources/DY.BMP,Door3,0.2125,-0.0625,1,0,0,0.7323,optionRight,70,15790,7,23,0,23,0,1,,,,,,,,,,,,,,,,,,,,,,,,,,,,,,,,,,,,,,,
,,,,,,,,2023-08-16_08h50.43.291,HF_wild_card,2022.2.4,Win32,59.99160118,63d12557d1c4aa48a49259ee,64d2fd46c836a06233681665,64dc7f2b274cd767a5864794,,,,,,,decisionTrl,resources/DY.BMP,resources/DG.BMP,Door3,-0.232638868,-0.054861132,1,0,0,0.6306,optionLeft,70,15860,7,24,0,24,0,1,,,,,,,,,,,,,,,,,,,,,,,,,,,,,,,,,,,,,,,
,,,,,,,,2023-08-16_08h50.43.291,HF_wild_card,2022.2.4,Win32,59.99160118,63d12557d1c4aa48a49259ee,64d2fd46c836a06233681665,64dc7f2b274cd767a5864794,,,,,,,decisionTrl,resources/DBN.BMP,resources/DP.BMP,Door1,0.197222265,-0.047222265,1,0,0,1.1288,optionRight,30,15890,7,25,0,25,0,1,,,,,,,,,,,,,,,,,,,,,,,,,,,,,,,,,,,,,,,
,,,,,,,,2023-08-16_08h50.43.291,HF_wild_card,2022.2.4,Win32,59.99160118,63d12557d1c4aa48a49259ee,64d2fd46c836a06233681665,64dc7f2b274cd767a5864794,,,,,,,ctch,resources/DBN.BMP,resources/DY.BMP,Door3,0.159027799,-0.073611132,1,0,0,0.846,optionRight,70,15960,7,26,0,26,0,1,,,,,,,,,,,,,,,,,,,,,,,,,,,,,,,,,,,,,,,
,,,,,,,,2023-08-16_08h50.43.291,HF_wild_card,2022.2.4,Win32,59.99160118,63d12557d1c4aa48a49259ee,64d2fd46c836a06233681665,64dc7f2b274cd767a5864794,,,,,,,decisionTrl,resources/DG.BMP,resources/DY.BMP,Door3,0.149305598,-0.084027799,1,0,0,0.9123,optionRight,70,16030,7,27,0,27,0,1,,,,,,,,,,,,,,,,,,,,,,,,,,,,,,,,,,,,,,,
,,,,,,,,2023-08-16_08h50.43.291,HF_wild_card,2022.2.4,Win32,59.99160118,63d12557d1c4aa48a49259ee,64d2fd46c836a06233681665,64dc7f2b274cd767a5864794,,,,,,,decisionTrl,resources/DP.BMP,resources/DBN.BMP,Door1,-0.20625,-0.076388931,1,0,0,1.0978,optionLeft,30,16060,7,28,0,28,0,1,,,,,,,,,,,,,,,,,,,,,,,,,,,,,,,,,,,,,,,
,,,,,,,,2023-08-16_08h50.43.291,HF_wild_card,2022.2.4,Win32,59.99160118,63d12557d1c4aa48a49259ee,64d2fd46c836a06233681665,64dc7f2b274cd767a5864794,,,,,,,decisionTrl,resources/DP.BMP,resources/DBN.BMP,Door1,-0.368055534,-0.086805598,1,0,0,0.7316,optionLeft,30,16090,7,29,0,29,0,1,,,,,,,,,,,,,,,,,,,,,,,,,,,,,,,,,,,,,,,
,,,,,,,,2023-08-16_08h50.43.291,HF_wild_card,2022.2.4,Win32,59.99160118,63d12557d1c4aa48a49259ee,64d2fd46c836a06233681665,64dc7f2b274cd767a5864794,,,,,,,decisionTrl,resources/DG.BMP,resources/DY.BMP,Door3,0.279166667,-0.123611132,1,0,0,0.7133,optionRight,70,16160,7,30,0,30,0,1,,,,,,,,,,,,,,,,,,,,,,,,,,,,,,,,,,,,,,,
,,,,,,,,2023-08-16_08h50.43.291,HF_wild_card,2022.2.4,Win32,59.99160118,63d12557d1c4aa48a49259ee,64d2fd46c836a06233681665,64dc7f2b274cd767a5864794,,,,,,,decisionTrl,resources/DY.BMP,resources/DG.BMP,Door3,-0.223611101,-0.075,1,0,0,0.6121,optionLeft,70,16230,7,31,0,31,0,1,,,,,,,,,,,,,,,,,,,,,,,,,,,,,,,,,,,,,,,
,,,,,,,,2023-08-16_08h50.43.291,HF_wild_card,2022.2.4,Win32,59.99160118,63d12557d1c4aa48a49259ee,64d2fd46c836a06233681665,64dc7f2b274cd767a5864794,,,,,,,ctch,resources/DG.BMP,resources/DP.BMP,Door4,-0.234722201,-0.073611132,1,0,0,1.0766,optionLeft,60,16290,7,32,0,32,0,1,,,,,,,,,,,,,,,,,,,,,,,,,,,,,,,,,,,,,,,
,,,,,,,,2023-08-16_08h50.43.291,HF_wild_card,2022.2.4,Win32,59.99160118,63d12557d1c4aa48a49259ee,64d2fd46c836a06233681665,64dc7f2b274cd767a5864794,,,,,,,decisionTrl,resources/DBN.BMP,resources/DP.BMP,Door1,0.272222265,-0.092361132,1,0,0,1.0958,optionRight,30,16320,7,33,0,33,0,1,,,,,,,,,,,,,,,,,,,,,,,,,,,,,,,,,,,,,,,
,,,,,,,,2023-08-16_08h50.43.291,HF_wild_card,2022.2.4,Win32,59.99160118,63d12557d1c4aa48a49259ee,64d2fd46c836a06233681665,64dc7f2b274cd767a5864794,,,,,,,ctch,resources/DP.BMP,resources/DG.BMP,Door4,0.215972265,-0.0875,1,0,0,0.9636,optionRight,60,16380,7,34,0,34,0,1,,,,,,,,,,,,,,,,,,,,,,,,,,,,,,,,,,,,,,,
,,,,,,,,2023-08-16_08h50.43.291,HF_wild_card,2022.2.4,Win32,59.99160118,63d12557d1c4aa48a49259ee,64d2fd46c836a06233681665,64dc7f2b274cd767a5864794,,,,,,,decisionTrl,resources/DP.BMP,resources/DBN.BMP,Door1,-0.234027767,-0.134722265,1,0,0,1.0623,optionLeft,30,16410,7,35,0,35,0,1,,,,,,,,,,,,,,,,,,,,,,,,,,,,,,,,,,,,,,,
,,,,,,,,2023-08-16_08h50.43.291,HF_wild_card,2022.2.4,Win32,59.99160118,63d12557d1c4aa48a49259ee,64d2fd46c836a06233681665,64dc7f2b274cd767a5864794,,,,,,,,,,,,,,,,,,,,,,,,,,6,0,6,0,1,,,,,,,,,,,,,,,,,,,,,,,,,,,,,,,,,,
,,,,,,,,2023-08-16_08h50.43.291,HF_wild_card,2022.2.4,Win32,59.99160118,63d12557d1c4aa48a49259ee,64d2fd46c836a06233681665,64dc7f2b274cd767a5864794,,,,,,,,,,,,,,,,,,,,,,,,,,,,,,,4,,,,,,,,,,,,,,,,,,,,,,,,,,,,,,,,,
,,,,,,,,2023-08-16_08h50.43.291,HF_wild_card,2022.2.4,Win32,59.99160118,63d12557d1c4aa48a49259ee,64d2fd46c836a06233681665,64dc7f2b274cd767a5864794,,,,,,,,,,,,,,,,,,,,,,,,,,,,,,,,,,,,,,,,,,,,,,,,,,,,,,,,,,,,,,,,
,,,,,,,,2023-08-16_08h50.43.291,HF_wild_card,2022.2.4,Win32,59.99160118,63d12557d1c4aa48a49259ee,64d2fd46c836a06233681665,64dc7f2b274cd767a5864794,,,,,,,,,,,,,,,,,,,,,,,,,,,,,,,,60,Door4,resources/DG.BMP,0,0,0,0,1,,,,,,,,,,,,,,,,,,,,,,,,,
,,,,,,,,2023-08-16_08h50.43.291,HF_wild_card,2022.2.4,Win32,59.99160118,63d12557d1c4aa48a49259ee,64d2fd46c836a06233681665,64dc7f2b274cd767a5864794,,,,,,,,,,,,,,,,,,,,,,,,,,,,,,,,55,WC_nonExtreme,resources/DB.BMP,1,0,1,0,1,,,,,,,,,,,,,,,,,,,,,,,,,
,,,,,,,,2023-08-16_08h50.43.291,HF_wild_card,2022.2.4,Win32,59.99160118,63d12557d1c4aa48a49259ee,64d2fd46c836a06233681665,64dc7f2b274cd767a5864794,,,,,,,,,,,,,,,,,,,,,,,,,,,,,,,,30,Door1,resources/DP.BMP,2,0,2,0,1,,,,,,,,,,,,,,,,,,,,,,,,,
,,,,,,,,2023-08-16_08h50.43.291,HF_wild_card,2022.2.4,Win32,59.99160118,63d12557d1c4aa48a49259ee,64d2fd46c836a06233681665,64dc7f2b274cd767a5864794,,,,,,,,,,,,,,,,,,,,,,,,,,,,,,,,20,Door2,resources/DBN.BMP,3,0,3,0,1,,,,,,,,,,,,,,,,,,,,,,,,,
,,,,,,,,2023-08-16_08h50.43.291,HF_wild_card,2022.2.4,Win32,59.99160118,63d12557d1c4aa48a49259ee,64d2fd46c836a06233681665,64dc7f2b274cd767a5864794,,,,,,,,,,,,,,,,,,,,,,,,,,,,,,,,70,Door3,resources/DY.BMP,4,0,4,0,1,,,,,,,,,,,,,,,,,,,,,,,,,
,,,,,,,,2023-08-16_08h50.43.291,HF_wild_card,2022.2.4,Win32,59.99160118,63d12557d1c4aa48a49259ee,64d2fd46c836a06233681665,64dc7f2b274cd767a5864794,,,,,,,,,,,,,,,,,,,,,,,,,,,,,,,,95,WC_extreme,resources/DR.BMP,5,0,5,0,1,,,,,,,,,,,,,,,,,,,,,,,,,
,,,,,,,,2023-08-16_08h50.43.291,HF_wild_card,2022.2.4,Win32,59.99160118,63d12557d1c4aa48a49259ee,64d2fd46c836a06233681665,64dc7f2b274cd767a5864794,,,,,,,,,,,,,,,,,,,,,,,,,,,,,,,,,,,,,,,,,,,,,,,,,,,,,,,,,,,,,,,,
