Condition,Low fixed image (Door1),Low risky image (Door2),High fixed image (Door3),High risky image (Door4),Extreme Wild Card,NonExtreme Wild Card,,date,expName,psychopyVersion,OS,frameRate,PROLIFIC_PID,STUDY_ID,SESSION_ID,mouse_2.x,mouse_2.y,mouse_2.leftButton,mouse_2.midButton,mouse_2.rightButton,mouse_2.clicked_name,Trial Type,Left Option Image,Right Option Image,Chosen Door,mouse.x,mouse.y,mouse.leftButton,mouse.midButton,mouse.rightButton,mouse.time,mouse.clicked_name,Feedback,Cumulative Reward,Block,trial.thisRepN,trial.thisTrialN,trial.thisN,trial.thisIndex,trial.ran,blocks.thisRepN,blocks.thisTrialN,blocks.thisN,blocks.thisIndex,blocks.ran,Money conversion,First Outcome Reported,Shown Door (First Outcome),Displayed Image (First Outcome),outcomes.thisRepN,outcomes.thisTrialN,outcomes.thisN,outcomes.thisIndex,outcomes.ran,judgments.thisRepN,judgments.thisTrialN,judgments.thisN,judgments.thisIndex,judgments.ran,freqMouse.x,freqMouse.y,freqMouse.leftButton,freqMouse.midButton,freqMouse.rightButton,freqMouse.clicked_name,FQJ for first outcome,FQJ for second outcome,Shown Door,Displayed Image,trials.thisRepN,trials.thisTrialN,trials.thisN,trials.thisIndex,trials.ran,judgBlock.thisRepN,judgBlock.thisTrialN,judgBlock.thisN,judgBlock.thisIndex,judgBlock.ran
0,resources/DG.BMP,resources/DBN.BMP,resources/DP.BMP,resources/DB.BMP,resources/DR.BMP,resources/DY.BMP,,2023-08-16_08h49.35.953,HF_wild_card,2022.2.4,Win32,60.2300789,5cb59c4737e0b60017b2ec93,64d2fd46c836a06233681665,64dc7f810ab2008390be8947,,,,,,,,,,,,,,,,,,,,,,,,,,,,,,,,,,,,,,,,,,,,,,,,,,,,,,,,,,,,,,,,
,,,,,,,,2023-08-16_08h49.35.953,HF_wild_card,2022.2.4,Win32,60.2300789,5cb59c4737e0b60017b2ec93,64d2fd46c836a06233681665,64dc7f810ab2008390be8947,-0.005,-0.4175,1,0,0,agree,,,,,,,,,,,,,,,,,,,,,,,,,,,,,,,,,,,,,,,,,,,,,,,,,,,,,,,,,,
,,,,,,,,2023-08-16_08h49.35.953,HF_wild_card,2022.2.4,Win32,60.2300789,5cb59c4737e0b60017b2ec93,64d2fd46c836a06233681665,64dc7f810ab2008390be8947,,,,,,,,,,,,,,,,,,,,,,,,,,,,,,,,,,,,,,,,,,,,,,,,,,,,,,,,,,,,,,,,
,,,,,,,,2023-08-16_08h49.35.953,HF_wild_card,2022.2.4,Win32,60.2300789,5cb59c4737e0b60017b2ec93,64d2fd46c836a06233681665,64dc7f810ab2008390be8947,,,,,,,decisionTrl,resources/DR.BMP,resources/DP.BMP,WildCard_Ex,-0.226666641,-0.0975,1,0,0,1.4797,optionLeft,95,95,1,0,0,0,0,1,,,,,,,,,,,,,,,,,,,,,,,,,,,,,,,,,,,,,,,
,,,,,,,,2023-08-16_08h49.35.953,HF_wild_card,2022.2.4,Win32,60.2300789,5cb59c4737e0b60017b2ec93,64d2fd46c836a06233681665,64dc7f810ab2008390be8947,,,,,,,sngl,resources/DR.BMP,resources/Empty.png,WildCard_Ex,-0.256666641,0.031666641,1,0,0,0.8973,optionLeft,95,190,1,1,0,1,0,1,,,,,,,,,,,,,,,,,,,,,,,,,,,,,,,,,,,,,,,
,,,,,,,,2023-08-16_08h49.35.953,HF_wild_card,2022.2.4,Win32,60.2300789,5cb59c4737e0b60017b2ec93,64d2fd46c836a06233681665,64dc7f810ab2008390be8947,,,,,,,decisionTrl,resources/DP.BMP,resources/DB.BMP,Door3,-0.255,0.024166641,1,0,0,1.1141,optionLeft,70,260,1,2,0,2,0,1,,,,,,,,,,,,,,,,,,,,,,,,,,,,,,,,,,,,,,,
,,,,,,,,2023-08-16_08h49.35.953,HF_wild_card,2022.2.4,Win32,60.2300789,5cb59c4737e0b60017b2ec93,64d2fd46c836a06233681665,64dc7f810ab2008390be8947,,,,,,,decisionTrl,resources/DG.BMP,resources/DBN.BMP,Door1,-0.179166641,0.0375,1,0,0,0.814,optionLeft,30,290,1,3,0,3,0,1,,,,,,,,,,,,,,,,,,,,,,,,,,,,,,,,,,,,,,,
,,,,,,,,2023-08-16_08h49.35.953,HF_wild_card,2022.2.4,Win32,60.2300789,5cb59c4737e0b60017b2ec93,64d2fd46c836a06233681665,64dc7f810ab2008390be8947,,,,,,,decisionTrl,resources/DBN.BMP,resources/DR.BMP,WildCard_Ex,0.306666718,0.018333321,1,0,0,0.7639,optionRight,95,385,1,4,0,4,0,1,,,,,,,,,,,,,,,,,,,,,,,,,,,,,,,,,,,,,,,
,,,,,,,,2023-08-16_08h49.35.953,HF_wild_card,2022.2.4,Win32,60.2300789,5cb59c4737e0b60017b2ec93,64d2fd46c836a06233681665,64dc7f810ab2008390be8947,,,,,,,sngl,resources/Empty.png,resources/DBN.BMP,Door2,0.320833359,0.015,1,0,0,0.6476,optionRight,20,405,1,5,0,5,0,1,,,,,,,,,,,,,,,,,,,,,,,,,,,,,,,,,,,,,,,
,,,,,,,,2023-08-16_08h49.35.953,HF_wild_card,2022.2.4,Win32,60.2300789,5cb59c4737e0b60017b2ec93,64d2fd46c836a06233681665,64dc7f810ab2008390be8947,,,,,,,ctch,resources/DB.BMP,resources/DG.BMP,Door4,-0.174166641,0.005,1,0,0,0.9972,optionLeft,80,485,1,6,0,6,0,1,,,,,,,,,,,,,,,,,,,,,,,,,,,,,,,,,,,,,,,
,,,,,,,,2023-08-16_08h49.35.953,HF_wild_card,2022.2.4,Win32,60.2300789,5cb59c4737e0b60017b2ec93,64d2fd46c836a06233681665,64dc7f810ab2008390be8947,,,,,,,decisionTrl,resources/DB.BMP,resources/DP.BMP,Door4,-0.22,0.011666641,1,0,0,0.9478,optionLeft,60,545,1,7,0,7,0,1,,,,,,,,,,,,,,,,,,,,,,,,,,,,,,,,,,,,,,,
,,,,,,,,2023-08-16_08h49.35.953,HF_wild_card,2022.2.4,Win32,60.2300789,5cb59c4737e0b60017b2ec93,64d2fd46c836a06233681665,64dc7f810ab2008390be8947,,,,,,,sngl,resources/Empty.png,resources/DB.BMP,Door4,0.3525,0.0125,1,0,0,0.4981,optionRight,60,605,1,8,0,8,0,1,,,,,,,,,,,,,,,,,,,,,,,,,,,,,,,,,,,,,,,
,,,,,,,,2023-08-16_08h49.35.953,HF_wild_card,2022.2.4,Win32,60.2300789,5cb59c4737e0b60017b2ec93,64d2fd46c836a06233681665,64dc7f810ab2008390be8947,,,,,,,sngl,resources/Empty.png,resources/DR.BMP,WildCard_Ex,0.309166718,0.000833321,1,0,0,0.4312,optionRight,5,610,1,9,0,9,0,1,,,,,,,,,,,,,,,,,,,,,,,,,,,,,,,,,,,,,,,
,,,,,,,,2023-08-16_08h49.35.953,HF_wild_card,2022.2.4,Win32,60.2300789,5cb59c4737e0b60017b2ec93,64d2fd46c836a06233681665,64dc7f810ab2008390be8947,,,,,,,decisionTrl,resources/DR.BMP,resources/DG.BMP,WildCard_Ex,-0.251666641,0.000833321,1,0,0,0.4814,optionLeft,95,705,1,10,0,10,0,1,,,,,,,,,,,,,,,,,,,,,,,,,,,,,,,,,,,,,,,
,,,,,,,,2023-08-16_08h49.35.953,HF_wild_card,2022.2.4,Win32,60.2300789,5cb59c4737e0b60017b2ec93,64d2fd46c836a06233681665,64dc7f810ab2008390be8947,,,,,,,decisionTrl,resources/DP.BMP,resources/DR.BMP,WildCard_Ex,0.268333359,0.015,1,0,0,0.7474,optionRight,95,800,1,11,0,11,0,1,,,,,,,,,,,,,,,,,,,,,,,,,,,,,,,,,,,,,,,
,,,,,,,,2023-08-16_08h49.35.953,HF_wild_card,2022.2.4,Win32,60.2300789,5cb59c4737e0b60017b2ec93,64d2fd46c836a06233681665,64dc7f810ab2008390be8947,,,,,,,sngl,resources/Empty.png,resources/DP.BMP,Door3,0.263333359,0.006666641,1,0,0,0.6312,optionRight,70,870,1,12,0,12,0,1,,,,,,,,,,,,,,,,,,,,,,,,,,,,,,,,,,,,,,,
,,,,,,,,2023-08-16_08h49.35.953,HF_wild_card,2022.2.4,Win32,60.2300789,5cb59c4737e0b60017b2ec93,64d2fd46c836a06233681665,64dc7f810ab2008390be8947,,,,,,,sngl,resources/Empty.png,resources/DG.BMP,Door1,0.2375,0.014166641,1,0,0,0.6316,optionRight,30,900,1,13,0,13,0,1,,,,,,,,,,,,,,,,,,,,,,,,,,,,,,,,,,,,,,,
,,,,,,,,2023-08-16_08h49.35.953,HF_wild_card,2022.2.4,Win32,60.2300789,5cb59c4737e0b60017b2ec93,64d2fd46c836a06233681665,64dc7f810ab2008390be8947,,,,,,,decisionTrl,resources/DB.BMP,resources/DP.BMP,Door3,0.21,0.023333321,1,0,0,0.7804,optionRight,70,970,1,14,0,14,0,1,,,,,,,,,,,,,,,,,,,,,,,,,,,,,,,,,,,,,,,
,,,,,,,,2023-08-16_08h49.35.953,HF_wild_card,2022.2.4,Win32,60.2300789,5cb59c4737e0b60017b2ec93,64d2fd46c836a06233681665,64dc7f810ab2008390be8947,,,,,,,decisionTrl,resources/DP.BMP,resources/DB.BMP,Door4,0.214166718,0.019166641,1,0,0,0.697,optionRight,80,1050,1,15,0,15,0,1,,,,,,,,,,,,,,,,,,,,,,,,,,,,,,,,,,,,,,,
,,,,,,,,2023-08-16_08h49.35.953,HF_wild_card,2022.2.4,Win32,60.2300789,5cb59c4737e0b60017b2ec93,64d2fd46c836a06233681665,64dc7f810ab2008390be8947,,,,,,,sngl,resources/DG.BMP,resources/Empty.png,Door1,-0.1875,0.006666641,1,0,0,0.4981,optionLeft,30,1080,1,16,0,16,0,1,,,,,,,,,,,,,,,,,,,,,,,,,,,,,,,,,,,,,,,
,,,,,,,,2023-08-16_08h49.35.953,HF_wild_card,2022.2.4,Win32,60.2300789,5cb59c4737e0b60017b2ec93,64d2fd46c836a06233681665,64dc7f810ab2008390be8947,,,,,,,decisionTrl,resources/DG.BMP,resources/DBN.BMP,Door2,0.558333435,0.01,1,0,0,0.7149,optionRight,20,1100,1,17,0,17,0,1,,,,,,,,,,,,,,,,,,,,,,,,,,,,,,,,,,,,,,,
,,,,,,,,2023-08-16_08h49.35.953,HF_wild_card,2022.2.4,Win32,60.2300789,5cb59c4737e0b60017b2ec93,64d2fd46c836a06233681665,64dc7f810ab2008390be8947,,,,,,,decisionTrl,resources/DBN.BMP,resources/DG.BMP,Door2,-0.186666641,-0.003333359,1,0,0,0.7316,optionLeft,20,1120,1,18,0,18,0,1,,,,,,,,,,,,,,,,,,,,,,,,,,,,,,,,,,,,,,,
,,,,,,,,2023-08-16_08h49.35.953,HF_wild_card,2022.2.4,Win32,60.2300789,5cb59c4737e0b60017b2ec93,64d2fd46c836a06233681665,64dc7f810ab2008390be8947,,,,,,,decisionTrl,resources/DG.BMP,resources/DBN.BMP,Door1,-0.190833321,-0.014166679,1,0,0,0.6137,optionLeft,30,1150,1,19,0,19,0,1,,,,,,,,,,,,,,,,,,,,,,,,,,,,,,,,,,,,,,,
,,,,,,,,2023-08-16_08h49.35.953,HF_wild_card,2022.2.4,Win32,60.2300789,5cb59c4737e0b60017b2ec93,64d2fd46c836a06233681665,64dc7f810ab2008390be8947,,,,,,,sngl,resources/DBN.BMP,resources/Empty.png,Door2,-0.1775,-0.000833359,1,0,0,0.5985,optionLeft,40,1190,1,20,0,20,0,1,,,,,,,,,,,,,,,,,,,,,,,,,,,,,,,,,,,,,,,
,,,,,,,,2023-08-16_08h49.35.953,HF_wild_card,2022.2.4,Win32,60.2300789,5cb59c4737e0b60017b2ec93,64d2fd46c836a06233681665,64dc7f810ab2008390be8947,,,,,,,sngl,resources/DR.BMP,resources/Empty.png,WildCard_Ex,-0.264166641,-0.030833359,1,0,0,0.515,optionLeft,5,1195,1,21,0,21,0,1,,,,,,,,,,,,,,,,,,,,,,,,,,,,,,,,,,,,,,,
,,,,,,,,2023-08-16_08h49.35.953,HF_wild_card,2022.2.4,Win32,60.2300789,5cb59c4737e0b60017b2ec93,64d2fd46c836a06233681665,64dc7f810ab2008390be8947,,,,,,,decisionTrl,resources/DB.BMP,resources/DR.BMP,WildCard_Ex,0.1575,0.01,1,0,0,0.5315,optionRight,5,1200,1,22,0,22,0,1,,,,,,,,,,,,,,,,,,,,,,,,,,,,,,,,,,,,,,,
,,,,,,,,2023-08-16_08h49.35.953,HF_wild_card,2022.2.4,Win32,60.2300789,5cb59c4737e0b60017b2ec93,64d2fd46c836a06233681665,64dc7f810ab2008390be8947,,,,,,,ctch,resources/DP.BMP,resources/DBN.BMP,Door3,-0.26,-0.009166679,1,0,0,0.6988,optionLeft,70,1270,1,23,0,23,0,1,,,,,,,,,,,,,,,,,,,,,,,,,,,,,,,,,,,,,,,
,,,,,,,,2023-08-16_08h49.35.953,HF_wild_card,2022.2.4,Win32,60.2300789,5cb59c4737e0b60017b2ec93,64d2fd46c836a06233681665,64dc7f810ab2008390be8947,,,,,,,decisionTrl,resources/DB.BMP,resources/DP.BMP,Door3,0.240833359,0.029166641,1,0,0,0.5646,optionRight,70,1340,1,24,0,24,0,1,,,,,,,,,,,,,,,,,,,,,,,,,,,,,,,,,,,,,,,
,,,,,,,,2023-08-16_08h49.35.953,HF_wild_card,2022.2.4,Win32,60.2300789,5cb59c4737e0b60017b2ec93,64d2fd46c836a06233681665,64dc7f810ab2008390be8947,,,,,,,ctch,resources/DG.BMP,resources/DB.BMP,Door4,0.214166718,0.024166641,1,0,0,0.5481,optionRight,80,1420,1,25,0,25,0,1,,,,,,,,,,,,,,,,,,,,,,,,,,,,,,,,,,,,,,,
,,,,,,,,2023-08-16_08h49.35.953,HF_wild_card,2022.2.4,Win32,60.2300789,5cb59c4737e0b60017b2ec93,64d2fd46c836a06233681665,64dc7f810ab2008390be8947,,,,,,,ctch,resources/DP.BMP,resources/DBN.BMP,Door2,0.3575,0.04,1,0,0,0.9474,optionRight,40,1460,1,26,0,26,0,1,,,,,,,,,,,,,,,,,,,,,,,,,,,,,,,,,,,,,,,
,,,,,,,,2023-08-16_08h49.35.953,HF_wild_card,2022.2.4,Win32,60.2300789,5cb59c4737e0b60017b2ec93,64d2fd46c836a06233681665,64dc7f810ab2008390be8947,,,,,,,sngl,resources/DB.BMP,resources/Empty.png,Door4,-0.115,-0.010833359,1,0,0,0.5142,optionLeft,80,1540,1,27,0,27,0,1,,,,,,,,,,,,,,,,,,,,,,,,,,,,,,,,,,,,,,,
,,,,,,,,2023-08-16_08h49.35.953,HF_wild_card,2022.2.4,Win32,60.2300789,5cb59c4737e0b60017b2ec93,64d2fd46c836a06233681665,64dc7f810ab2008390be8947,,,,,,,decisionTrl,resources/DBN.BMP,resources/DG.BMP,Door1,0.253333359,0.036666641,1,0,0,0.7974,optionRight,30,1570,1,28,0,28,0,1,,,,,,,,,,,,,,,,,,,,,,,,,,,,,,,,,,,,,,,
,,,,,,,,2023-08-16_08h49.35.953,HF_wild_card,2022.2.4,Win32,60.2300789,5cb59c4737e0b60017b2ec93,64d2fd46c836a06233681665,64dc7f810ab2008390be8947,,,,,,,sngl,resources/DP.BMP,resources/Empty.png,Door3,-0.145833282,-0.0125,1,0,0,0.4807,optionLeft,70,1640,1,29,0,29,0,1,,,,,,,,,,,,,,,,,,,,,,,,,,,,,,,,,,,,,,,
,,,,,,,,2023-08-16_08h49.35.953,HF_wild_card,2022.2.4,Win32,60.2300789,5cb59c4737e0b60017b2ec93,64d2fd46c836a06233681665,64dc7f810ab2008390be8947,,,,,,,decisionTrl,resources/DP.BMP,resources/DB.BMP,Door3,-0.180833321,-0.008333359,1,0,0,0.7479,optionLeft,70,1710,1,30,0,30,0,1,,,,,,,,,,,,,,,,,,,,,,,,,,,,,,,,,,,,,,,
,,,,,,,,2023-08-16_08h49.35.953,HF_wild_card,2022.2.4,Win32,60.2300789,5cb59c4737e0b60017b2ec93,64d2fd46c836a06233681665,64dc7f810ab2008390be8947,,,,,,,decisionTrl,resources/DR.BMP,resources/DBN.BMP,WildCard_Ex,-0.218333321,-0.010833359,1,0,0,0.5649,optionLeft,5,1715,1,31,0,31,0,1,,,,,,,,,,,,,,,,,,,,,,,,,,,,,,,,,,,,,,,
,,,,,,,,2023-08-16_08h49.35.953,HF_wild_card,2022.2.4,Win32,60.2300789,5cb59c4737e0b60017b2ec93,64d2fd46c836a06233681665,64dc7f810ab2008390be8947,,,,,,,decisionTrl,resources/DBN.BMP,resources/DG.BMP,Door1,0.358333359,0.0375,1,0,0,1.0151,optionRight,30,1745,1,32,0,32,0,1,,,,,,,,,,,,,,,,,,,,,,,,,,,,,,,,,,,,,,,
,,,,,,,,2023-08-16_08h49.35.953,HF_wild_card,2022.2.4,Win32,60.2300789,5cb59c4737e0b60017b2ec93,64d2fd46c836a06233681665,64dc7f810ab2008390be8947,,,,,,,decisionTrl,resources/DP.BMP,resources/DB.BMP,Door3,-0.2025,-0.004166679,1,0,0,0.7149,optionLeft,70,1815,1,33,0,33,0,1,,,,,,,,,,,,,,,,,,,,,,,,,,,,,,,,,,,,,,,
,,,,,,,,2023-08-16_08h49.35.953,HF_wild_card,2022.2.4,Win32,60.2300789,5cb59c4737e0b60017b2ec93,64d2fd46c836a06233681665,64dc7f810ab2008390be8947,,,,,,,decisionTrl,resources/DBN.BMP,resources/DG.BMP,Door1,0.284166718,0.025833321,1,0,0,0.5478,optionRight,30,1845,1,34,0,34,0,1,,,,,,,,,,,,,,,,,,,,,,,,,,,,,,,,,,,,,,,
,,,,,,,,2023-08-16_08h49.35.953,HF_wild_card,2022.2.4,Win32,60.2300789,5cb59c4737e0b60017b2ec93,64d2fd46c836a06233681665,64dc7f810ab2008390be8947,,,,,,,decisionTrl,resources/DR.BMP,resources/DB.BMP,WildCard_Ex,-0.338333321,0.0175,1,0,0,1.3644,optionLeft,95,1940,1,35,0,35,0,1,,,,,,,,,,,,,,,,,,,,,,,,,,,,,,,,,,,,,,,
,,,,,,,,2023-08-16_08h49.35.953,HF_wild_card,2022.2.4,Win32,60.2300789,5cb59c4737e0b60017b2ec93,64d2fd46c836a06233681665,64dc7f810ab2008390be8947,,,,,,,ctch,resources/DB.BMP,resources/DG.BMP,Door1,0.184166718,0.008333321,1,0,0,0.7474,optionRight,30,1970,1,36,0,36,0,1,,,,,,,,,,,,,,,,,,,,,,,,,,,,,,,,,,,,,,,
,,,,,,,,2023-08-16_08h49.35.953,HF_wild_card,2022.2.4,Win32,60.2300789,5cb59c4737e0b60017b2ec93,64d2fd46c836a06233681665,64dc7f810ab2008390be8947,,,,,,,decisionTrl,resources/DG.BMP,resources/DR.BMP,WildCard_Ex,0.170833359,-0.006666679,1,0,0,0.5465,optionRight,95,2065,1,37,0,37,0,1,,,,,,,,,,,,,,,,,,,,,,,,,,,,,,,,,,,,,,,
,,,,,,,,2023-08-16_08h49.35.953,HF_wild_card,2022.2.4,Win32,60.2300789,5cb59c4737e0b60017b2ec93,64d2fd46c836a06233681665,64dc7f810ab2008390be8947,,,,,,,sngl,resources/Empty.png,resources/DR.BMP,WildCard_Ex,0.248333359,-0.01,1,0,0,0.5139,optionRight,95,2160,1,38,0,38,0,1,,,,,,,,,,,,,,,,,,,,,,,,,,,,,,,,,,,,,,,
,,,,,,,,2023-08-16_08h49.35.953,HF_wild_card,2022.2.4,Win32,60.2300789,5cb59c4737e0b60017b2ec93,64d2fd46c836a06233681665,64dc7f810ab2008390be8947,,,,,,,decisionTrl,resources/DB.BMP,resources/DP.BMP,Door3,0.178333359,-0.005,1,0,0,1.1983,optionRight,70,2230,1,39,0,39,0,1,,,,,,,,,,,,,,,,,,,,,,,,,,,,,,,,,,,,,,,
,,,,,,,,2023-08-16_08h49.35.953,HF_wild_card,2022.2.4,Win32,60.2300789,5cb59c4737e0b60017b2ec93,64d2fd46c836a06233681665,64dc7f810ab2008390be8947,,,,,,,ctch,resources/DBN.BMP,resources/DP.BMP,Door3,0.308333359,-0.001666679,1,0,0,0.465,optionRight,70,2300,1,40,0,40,0,1,,,,,,,,,,,,,,,,,,,,,,,,,,,,,,,,,,,,,,,
,,,,,,,,2023-08-16_08h49.35.953,HF_wild_card,2022.2.4,Win32,60.2300789,5cb59c4737e0b60017b2ec93,64d2fd46c836a06233681665,64dc7f810ab2008390be8947,,,,,,,ctch,resources/DBN.BMP,resources/DP.BMP,Door3,0.200833359,0,1,0,0,0.5145,optionRight,70,2370,1,41,0,41,0,1,,,,,,,,,,,,,,,,,,,,,,,,,,,,,,,,,,,,,,,
,,,,,,,,2023-08-16_08h49.35.953,HF_wild_card,2022.2.4,Win32,60.2300789,5cb59c4737e0b60017b2ec93,64d2fd46c836a06233681665,64dc7f810ab2008390be8947,,,,,,,ctch,resources/DG.BMP,resources/DB.BMP,Door4,0.145833359,0.006666641,1,0,0,0.798,optionRight,60,2430,1,42,0,42,0,1,,,,,,,,,,,,,,,,,,,,,,,,,,,,,,,,,,,,,,,
,,,,,,,,2023-08-16_08h49.35.953,HF_wild_card,2022.2.4,Win32,60.2300789,5cb59c4737e0b60017b2ec93,64d2fd46c836a06233681665,64dc7f810ab2008390be8947,,,,,,,decisionTrl,resources/DG.BMP,resources/DBN.BMP,Door2,0.1875,0.011666641,1,0,0,0.6798,optionRight,40,2470,1,43,0,43,0,1,,,,,,,,,,,,,,,,,,,,,,,,,,,,,,,,,,,,,,,
,,,,,,,,2023-08-16_08h49.35.953,HF_wild_card,2022.2.4,Win32,60.2300789,5cb59c4737e0b60017b2ec93,64d2fd46c836a06233681665,64dc7f810ab2008390be8947,,,,,,,,,,,,,,,,,,,,,,,,,,0,0,0,0,1,,,,,,,,,,,,,,,,,,,,,,,,,,,,,,,,,,
,,,,,,,,2023-08-16_08h49.35.953,HF_wild_card,2022.2.4,Win32,60.2300789,5cb59c4737e0b60017b2ec93,64d2fd46c836a06233681665,64dc7f810ab2008390be8947,,,,,,,decisionTrl,resources/DBN.BMP,resources/DG.BMP,Door1,0.339166718,-0.084166679,1,0,0,1.1136,optionRight,30,2500,2,0,0,0,0,1,,,,,,,,,,,,,,,,,,,,,,,,,,,,,,,,,,,,,,,
,,,,,,,,2023-08-16_08h49.35.953,HF_wild_card,2022.2.4,Win32,60.2300789,5cb59c4737e0b60017b2ec93,64d2fd46c836a06233681665,64dc7f810ab2008390be8947,,,,,,,decisionTrl,resources/DB.BMP,resources/DP.BMP,Door3,0.23,0.025,1,0,0,0.5968,optionRight,70,2570,2,1,0,1,0,1,,,,,,,,,,,,,,,,,,,,,,,,,,,,,,,,,,,,,,,
,,,,,,,,2023-08-16_08h49.35.953,HF_wild_card,2022.2.4,Win32,60.2300789,5cb59c4737e0b60017b2ec93,64d2fd46c836a06233681665,64dc7f810ab2008390be8947,,,,,,,decisionTrl,resources/DG.BMP,resources/DBN.BMP,Door2,0.315,0.020833321,1,0,0,0.5478,optionRight,40,2610,2,2,0,2,0,1,,,,,,,,,,,,,,,,,,,,,,,,,,,,,,,,,,,,,,,
,,,,,,,,2023-08-16_08h49.35.953,HF_wild_card,2022.2.4,Win32,60.2300789,5cb59c4737e0b60017b2ec93,64d2fd46c836a06233681665,64dc7f810ab2008390be8947,,,,,,,decisionTrl,resources/DP.BMP,resources/DR.BMP,WildCard_Ex,0.175,0.0175,1,0,0,0.5315,optionRight,95,2705,2,3,0,3,0,1,,,,,,,,,,,,,,,,,,,,,,,,,,,,,,,,,,,,,,,
,,,,,,,,2023-08-16_08h49.35.953,HF_wild_card,2022.2.4,Win32,60.2300789,5cb59c4737e0b60017b2ec93,64d2fd46c836a06233681665,64dc7f810ab2008390be8947,,,,,,,ctch,resources/DP.BMP,resources/DBN.BMP,Door3,-0.183333321,-0.000833359,1,0,0,0.8475,optionLeft,70,2775,2,4,0,4,0,1,,,,,,,,,,,,,,,,,,,,,,,,,,,,,,,,,,,,,,,
,,,,,,,,2023-08-16_08h49.35.953,HF_wild_card,2022.2.4,Win32,60.2300789,5cb59c4737e0b60017b2ec93,64d2fd46c836a06233681665,64dc7f810ab2008390be8947,,,,,,,sngl,resources/Empty.png,resources/DB.BMP,Door4,0.165833359,-0.000833359,1,0,0,0.4812,optionRight,80,2855,2,5,0,5,0,1,,,,,,,,,,,,,,,,,,,,,,,,,,,,,,,,,,,,,,,
,,,,,,,,2023-08-16_08h49.35.953,HF_wild_card,2022.2.4,Win32,60.2300789,5cb59c4737e0b60017b2ec93,64d2fd46c836a06233681665,64dc7f810ab2008390be8947,,,,,,,decisionTrl,resources/DBN.BMP,resources/DG.BMP,Door2,-0.145,-0.0125,1,0,0,0.715,optionLeft,20,2875,2,6,0,6,0,1,,,,,,,,,,,,,,,,,,,,,,,,,,,,,,,,,,,,,,,
,,,,,,,,2023-08-16_08h49.35.953,HF_wild_card,2022.2.4,Win32,60.2300789,5cb59c4737e0b60017b2ec93,64d2fd46c836a06233681665,64dc7f810ab2008390be8947,,,,,,,decisionTrl,resources/DB.BMP,resources/DR.BMP,WildCard_Ex,0.181666718,0.0025,1,0,0,0.5646,optionRight,5,2880,2,7,0,7,0,1,,,,,,,,,,,,,,,,,,,,,,,,,,,,,,,,,,,,,,,
,,,,,,,,2023-08-16_08h49.35.953,HF_wild_card,2022.2.4,Win32,60.2300789,5cb59c4737e0b60017b2ec93,64d2fd46c836a06233681665,64dc7f810ab2008390be8947,,,,,,,decisionTrl,resources/DG.BMP,resources/DBN.BMP,Door1,-0.1275,-0.0025,1,0,0,0.9141,optionLeft,30,2910,2,8,0,8,0,1,,,,,,,,,,,,,,,,,,,,,,,,,,,,,,,,,,,,,,,
,,,,,,,,2023-08-16_08h49.35.953,HF_wild_card,2022.2.4,Win32,60.2300789,5cb59c4737e0b60017b2ec93,64d2fd46c836a06233681665,64dc7f810ab2008390be8947,,,,,,,decisionTrl,resources/DP.BMP,resources/DB.BMP,Door3,-0.123333282,0.000833321,1,0,0,0.765,optionLeft,70,2980,2,9,0,9,0,1,,,,,,,,,,,,,,,,,,,,,,,,,,,,,,,,,,,,,,,
,,,,,,,,2023-08-16_08h49.35.953,HF_wild_card,2022.2.4,Win32,60.2300789,5cb59c4737e0b60017b2ec93,64d2fd46c836a06233681665,64dc7f810ab2008390be8947,,,,,,,sngl,resources/Empty.png,resources/DR.BMP,WildCard_Ex,0.131666718,0.0075,1,0,0,0.4814,optionRight,95,3075,2,10,0,10,0,1,,,,,,,,,,,,,,,,,,,,,,,,,,,,,,,,,,,,,,,
,,,,,,,,2023-08-16_08h49.35.953,HF_wild_card,2022.2.4,Win32,60.2300789,5cb59c4737e0b60017b2ec93,64d2fd46c836a06233681665,64dc7f810ab2008390be8947,,,,,,,ctch,resources/DB.BMP,resources/DG.BMP,Door4,-0.15,-0.004166679,1,0,0,0.7485,optionLeft,60,3135,2,11,0,11,0,1,,,,,,,,,,,,,,,,,,,,,,,,,,,,,,,,,,,,,,,
,,,,,,,,2023-08-16_08h49.35.953,HF_wild_card,2022.2.4,Win32,60.2300789,5cb59c4737e0b60017b2ec93,64d2fd46c836a06233681665,64dc7f810ab2008390be8947,,,,,,,decisionTrl,resources/DG.BMP,resources/DR.BMP,WildCard_Ex,0.2375,0.003333321,1,0,0,0.4641,optionRight,95,3230,2,12,0,12,0,1,,,,,,,,,,,,,,,,,,,,,,,,,,,,,,,,,,,,,,,
,,,,,,,,2023-08-16_08h49.35.953,HF_wild_card,2022.2.4,Win32,60.2300789,5cb59c4737e0b60017b2ec93,64d2fd46c836a06233681665,64dc7f810ab2008390be8947,,,,,,,decisionTrl,resources/DG.BMP,resources/DBN.BMP,Door1,-0.169166641,-0.003333359,1,0,0,0.6148,optionLeft,30,3260,2,13,0,13,0,1,,,,,,,,,,,,,,,,,,,,,,,,,,,,,,,,,,,,,,,
,,,,,,,,2023-08-16_08h49.35.953,HF_wild_card,2022.2.4,Win32,60.2300789,5cb59c4737e0b60017b2ec93,64d2fd46c836a06233681665,64dc7f810ab2008390be8947,,,,,,,decisionTrl,resources/DB.BMP,resources/DP.BMP,Door4,-0.201666641,-0.000833359,1,0,0,0.7652,optionLeft,80,3340,2,14,0,14,0,1,,,,,,,,,,,,,,,,,,,,,,,,,,,,,,,,,,,,,,,
,,,,,,,,2023-08-16_08h49.35.953,HF_wild_card,2022.2.4,Win32,60.2300789,5cb59c4737e0b60017b2ec93,64d2fd46c836a06233681665,64dc7f810ab2008390be8947,,,,,,,sngl,resources/Empty.png,resources/DR.BMP,WildCard_Ex,0.203333359,0.0125,1,0,0,0.4303,optionRight,5,3345,2,15,0,15,0,1,,,,,,,,,,,,,,,,,,,,,,,,,,,,,,,,,,,,,,,
,,,,,,,,2023-08-16_08h49.35.953,HF_wild_card,2022.2.4,Win32,60.2300789,5cb59c4737e0b60017b2ec93,64d2fd46c836a06233681665,64dc7f810ab2008390be8947,,,,,,,decisionTrl,resources/DG.BMP,resources/DBN.BMP,Door1,-0.164166641,-0.001666679,1,0,0,0.5311,optionLeft,30,3375,2,16,0,16,0,1,,,,,,,,,,,,,,,,,,,,,,,,,,,,,,,,,,,,,,,
,,,,,,,,2023-08-16_08h49.35.953,HF_wild_card,2022.2.4,Win32,60.2300789,5cb59c4737e0b60017b2ec93,64d2fd46c836a06233681665,64dc7f810ab2008390be8947,,,,,,,decisionTrl,resources/DB.BMP,resources/DP.BMP,Door4,-0.215833321,0.0275,1,0,0,0.948,optionLeft,60,3435,2,17,0,17,0,1,,,,,,,,,,,,,,,,,,,,,,,,,,,,,,,,,,,,,,,
,,,,,,,,2023-08-16_08h49.35.953,HF_wild_card,2022.2.4,Win32,60.2300789,5cb59c4737e0b60017b2ec93,64d2fd46c836a06233681665,64dc7f810ab2008390be8947,,,,,,,ctch,resources/DG.BMP,resources/DB.BMP,Door4,0.1425,-0.013333359,1,0,0,0.5814,optionRight,80,3515,2,18,0,18,0,1,,,,,,,,,,,,,,,,,,,,,,,,,,,,,,,,,,,,,,,
,,,,,,,,2023-08-16_08h49.35.953,HF_wild_card,2022.2.4,Win32,60.2300789,5cb59c4737e0b60017b2ec93,64d2fd46c836a06233681665,64dc7f810ab2008390be8947,,,,,,,ctch,resources/DBN.BMP,resources/DP.BMP,Door3,0.181666718,0.005,1,0,0,0.815,optionRight,70,3585,2,19,0,19,0,1,,,,,,,,,,,,,,,,,,,,,,,,,,,,,,,,,,,,,,,
,,,,,,,,2023-08-16_08h49.35.953,HF_wild_card,2022.2.4,Win32,60.2300789,5cb59c4737e0b60017b2ec93,64d2fd46c836a06233681665,64dc7f810ab2008390be8947,,,,,,,decisionTrl,resources/DR.BMP,resources/DB.BMP,WildCard_Ex,-0.1875,-0.000833359,1,0,0,0.5647,optionLeft,5,3590,2,20,0,20,0,1,,,,,,,,,,,,,,,,,,,,,,,,,,,,,,,,,,,,,,,
,,,,,,,,2023-08-16_08h49.35.953,HF_wild_card,2022.2.4,Win32,60.2300789,5cb59c4737e0b60017b2ec93,64d2fd46c836a06233681665,64dc7f810ab2008390be8947,,,,,,,ctch,resources/DB.BMP,resources/DG.BMP,Door4,-0.198333321,0.001666641,1,0,0,0.5651,optionLeft,80,3670,2,21,0,21,0,1,,,,,,,,,,,,,,,,,,,,,,,,,,,,,,,,,,,,,,,
,,,,,,,,2023-08-16_08h49.35.953,HF_wild_card,2022.2.4,Win32,60.2300789,5cb59c4737e0b60017b2ec93,64d2fd46c836a06233681665,64dc7f810ab2008390be8947,,,,,,,sngl,resources/Empty.png,resources/DP.BMP,Door3,0.195,0.0075,1,0,0,0.4309,optionRight,70,3740,2,22,0,22,0,1,,,,,,,,,,,,,,,,,,,,,,,,,,,,,,,,,,,,,,,
,,,,,,,,2023-08-16_08h49.35.953,HF_wild_card,2022.2.4,Win32,60.2300789,5cb59c4737e0b60017b2ec93,64d2fd46c836a06233681665,64dc7f810ab2008390be8947,,,,,,,sngl,resources/DR.BMP,resources/Empty.png,WildCard_Ex,-0.233333321,0,1,0,0,0.465,optionLeft,95,3835,2,23,0,23,0,1,,,,,,,,,,,,,,,,,,,,,,,,,,,,,,,,,,,,,,,
,,,,,,,,2023-08-16_08h49.35.953,HF_wild_card,2022.2.4,Win32,60.2300789,5cb59c4737e0b60017b2ec93,64d2fd46c836a06233681665,64dc7f810ab2008390be8947,,,,,,,sngl,resources/DP.BMP,resources/Empty.png,Door3,-0.2,0.005833321,1,0,0,0.499,optionLeft,70,3905,2,24,0,24,0,1,,,,,,,,,,,,,,,,,,,,,,,,,,,,,,,,,,,,,,,
,,,,,,,,2023-08-16_08h49.35.953,HF_wild_card,2022.2.4,Win32,60.2300789,5cb59c4737e0b60017b2ec93,64d2fd46c836a06233681665,64dc7f810ab2008390be8947,,,,,,,sngl,resources/DG.BMP,resources/Empty.png,Door1,-0.223333321,0.000833321,1,0,0,0.414,optionLeft,30,3935,2,25,0,25,0,1,,,,,,,,,,,,,,,,,,,,,,,,,,,,,,,,,,,,,,,
,,,,,,,,2023-08-16_08h49.35.953,HF_wild_card,2022.2.4,Win32,60.2300789,5cb59c4737e0b60017b2ec93,64d2fd46c836a06233681665,64dc7f810ab2008390be8947,,,,,,,decisionTrl,resources/DR.BMP,resources/DG.BMP,Door1,0.24,0.005,1,0,0,0.4477,optionRight,30,3965,2,26,0,26,0,1,,,,,,,,,,,,,,,,,,,,,,,,,,,,,,,,,,,,,,,
,,,,,,,,2023-08-16_08h49.35.953,HF_wild_card,2022.2.4,Win32,60.2300789,5cb59c4737e0b60017b2ec93,64d2fd46c836a06233681665,64dc7f810ab2008390be8947,,,,,,,decisionTrl,resources/DBN.BMP,resources/DG.BMP,Door1,0.415,0.006666641,1,0,0,0.9147,optionRight,30,3995,2,27,0,27,0,1,,,,,,,,,,,,,,,,,,,,,,,,,,,,,,,,,,,,,,,
,,,,,,,,2023-08-16_08h49.35.953,HF_wild_card,2022.2.4,Win32,60.2300789,5cb59c4737e0b60017b2ec93,64d2fd46c836a06233681665,64dc7f810ab2008390be8947,,,,,,,decisionTrl,resources/DBN.BMP,resources/DG.BMP,Door1,0.3025,-0.000833359,1,0,0,0.6651,optionRight,30,4025,2,28,0,28,0,1,,,,,,,,,,,,,,,,,,,,,,,,,,,,,,,,,,,,,,,
,,,,,,,,2023-08-16_08h49.35.953,HF_wild_card,2022.2.4,Win32,60.2300789,5cb59c4737e0b60017b2ec93,64d2fd46c836a06233681665,64dc7f810ab2008390be8947,,,,,,,sngl,resources/Empty.png,resources/DG.BMP,Door1,0.171666718,0.003333321,1,0,0,0.5642,optionRight,30,4055,2,29,0,29,0,1,,,,,,,,,,,,,,,,,,,,,,,,,,,,,,,,,,,,,,,
,,,,,,,,2023-08-16_08h49.35.953,HF_wild_card,2022.2.4,Win32,60.2300789,5cb59c4737e0b60017b2ec93,64d2fd46c836a06233681665,64dc7f810ab2008390be8947,,,,,,,sngl,resources/DBN.BMP,resources/Empty.png,Door2,-0.180833321,-0.004166679,1,0,0,0.6645,optionLeft,20,4075,2,30,0,30,0,1,,,,,,,,,,,,,,,,,,,,,,,,,,,,,,,,,,,,,,,
,,,,,,,,2023-08-16_08h49.35.953,HF_wild_card,2022.2.4,Win32,60.2300789,5cb59c4737e0b60017b2ec93,64d2fd46c836a06233681665,64dc7f810ab2008390be8947,,,,,,,decisionTrl,resources/DP.BMP,resources/DB.BMP,Door3,-0.1475,-0.003333359,1,0,0,0.8144,optionLeft,70,4145,2,31,0,31,0,1,,,,,,,,,,,,,,,,,,,,,,,,,,,,,,,,,,,,,,,
,,,,,,,,2023-08-16_08h49.35.953,HF_wild_card,2022.2.4,Win32,60.2300789,5cb59c4737e0b60017b2ec93,64d2fd46c836a06233681665,64dc7f810ab2008390be8947,,,,,,,sngl,resources/Empty.png,resources/DBN.BMP,Door2,0.2075,0.0225,1,0,0,0.6653,optionRight,40,4185,2,32,0,32,0,1,,,,,,,,,,,,,,,,,,,,,,,,,,,,,,,,,,,,,,,
,,,,,,,,2023-08-16_08h49.35.953,HF_wild_card,2022.2.4,Win32,60.2300789,5cb59c4737e0b60017b2ec93,64d2fd46c836a06233681665,64dc7f810ab2008390be8947,,,,,,,ctch,resources/DP.BMP,resources/DBN.BMP,Door3,-0.146666641,0,1,0,0,0.6648,optionLeft,70,4255,2,33,0,33,0,1,,,,,,,,,,,,,,,,,,,,,,,,,,,,,,,,,,,,,,,
,,,,,,,,2023-08-16_08h49.35.953,HF_wild_card,2022.2.4,Win32,60.2300789,5cb59c4737e0b60017b2ec93,64d2fd46c836a06233681665,64dc7f810ab2008390be8947,,,,,,,sngl,resources/DR.BMP,resources/Empty.png,WildCard_Ex,-0.103333282,-0.000833359,1,0,0,0.6315,optionLeft,5,4260,2,34,0,34,0,1,,,,,,,,,,,,,,,,,,,,,,,,,,,,,,,,,,,,,,,
,,,,,,,,2023-08-16_08h49.35.953,HF_wild_card,2022.2.4,Win32,60.2300789,5cb59c4737e0b60017b2ec93,64d2fd46c836a06233681665,64dc7f810ab2008390be8947,,,,,,,decisionTrl,resources/DB.BMP,resources/DP.BMP,Door4,-0.125,-0.003333359,1,0,0,0.8143,optionLeft,60,4320,2,35,0,35,0,1,,,,,,,,,,,,,,,,,,,,,,,,,,,,,,,,,,,,,,,
,,,,,,,,2023-08-16_08h49.35.953,HF_wild_card,2022.2.4,Win32,60.2300789,5cb59c4737e0b60017b2ec93,64d2fd46c836a06233681665,64dc7f810ab2008390be8947,,,,,,,sngl,resources/DB.BMP,resources/Empty.png,Door4,-0.101666641,-0.003333359,1,0,0,0.4817,optionLeft,60,4380,2,36,0,36,0,1,,,,,,,,,,,,,,,,,,,,,,,,,,,,,,,,,,,,,,,
,,,,,,,,2023-08-16_08h49.35.953,HF_wild_card,2022.2.4,Win32,60.2300789,5cb59c4737e0b60017b2ec93,64d2fd46c836a06233681665,64dc7f810ab2008390be8947,,,,,,,decisionTrl,resources/DR.BMP,resources/DP.BMP,WildCard_Ex,-0.208333321,-0.0075,1,0,0,0.5645,optionLeft,95,4475,2,37,0,37,0,1,,,,,,,,,,,,,,,,,,,,,,,,,,,,,,,,,,,,,,,
,,,,,,,,2023-08-16_08h49.35.953,HF_wild_card,2022.2.4,Win32,60.2300789,5cb59c4737e0b60017b2ec93,64d2fd46c836a06233681665,64dc7f810ab2008390be8947,,,,,,,decisionTrl,resources/DP.BMP,resources/DB.BMP,Door3,-0.200833321,-0.015,1,0,0,0.4314,optionLeft,70,4545,2,38,0,38,0,1,,,,,,,,,,,,,,,,,,,,,,,,,,,,,,,,,,,,,,,
,,,,,,,,2023-08-16_08h49.35.953,HF_wild_card,2022.2.4,Win32,60.2300789,5cb59c4737e0b60017b2ec93,64d2fd46c836a06233681665,64dc7f810ab2008390be8947,,,,,,,ctch,resources/DBN.BMP,resources/DP.BMP,Door3,0.296666718,0.01,1,0,0,0.6476,optionRight,70,4615,2,39,0,39,0,1,,,,,,,,,,,,,,,,,,,,,,,,,,,,,,,,,,,,,,,
,,,,,,,,2023-08-16_08h49.35.953,HF_wild_card,2022.2.4,Win32,60.2300789,5cb59c4737e0b60017b2ec93,64d2fd46c836a06233681665,64dc7f810ab2008390be8947,,,,,,,decisionTrl,resources/DBN.BMP,resources/DR.BMP,WildCard_Ex,0.3475,0.0125,1,0,0,0.4815,optionRight,5,4620,2,40,0,40,0,1,,,,,,,,,,,,,,,,,,,,,,,,,,,,,,,,,,,,,,,
,,,,,,,,2023-08-16_08h49.35.953,HF_wild_card,2022.2.4,Win32,60.2300789,5cb59c4737e0b60017b2ec93,64d2fd46c836a06233681665,64dc7f810ab2008390be8947,,,,,,,decisionTrl,resources/DP.BMP,resources/DB.BMP,Door4,0.454166718,0.015,1,0,0,1.0817,optionRight,60,4680,2,41,0,41,0,1,,,,,,,,,,,,,,,,,,,,,,,,,,,,,,,,,,,,,,,
,,,,,,,,2023-08-16_08h49.35.953,HF_wild_card,2022.2.4,Win32,60.2300789,5cb59c4737e0b60017b2ec93,64d2fd46c836a06233681665,64dc7f810ab2008390be8947,,,,,,,ctch,resources/DG.BMP,resources/DB.BMP,Door4,0.249166718,-0.000833359,1,0,0,0.6646,optionRight,60,4740,2,42,0,42,0,1,,,,,,,,,,,,,,,,,,,,,,,,,,,,,,,,,,,,,,,
,,,,,,,,2023-08-16_08h49.35.953,HF_wild_card,2022.2.4,Win32,60.2300789,5cb59c4737e0b60017b2ec93,64d2fd46c836a06233681665,64dc7f810ab2008390be8947,,,,,,,decisionTrl,resources/DR.BMP,resources/DBN.BMP,WildCard_Ex,-0.285,0.000833321,1,0,0,0.4317,optionLeft,95,4835,2,43,0,43,0,1,,,,,,,,,,,,,,,,,,,,,,,,,,,,,,,,,,,,,,,
,,,,,,,,2023-08-16_08h49.35.953,HF_wild_card,2022.2.4,Win32,60.2300789,5cb59c4737e0b60017b2ec93,64d2fd46c836a06233681665,64dc7f810ab2008390be8947,,,,,,,,,,,,,,,,,,,,,,,,,,1,0,1,0,1,,,,,,,,,,,,,,,,,,,,,,,,,,,,,,,,,,
,,,,,,,,2023-08-16_08h49.35.953,HF_wild_card,2022.2.4,Win32,60.2300789,5cb59c4737e0b60017b2ec93,64d2fd46c836a06233681665,64dc7f810ab2008390be8947,,,,,,,ctch,resources/DG.BMP,resources/DB.BMP,Door4,0.233333359,-0.055833359,1,0,0,1.0631,optionRight,60,4895,3,0,0,0,0,1,,,,,,,,,,,,,,,,,,,,,,,,,,,,,,,,,,,,,,,
,,,,,,,,2023-08-16_08h49.35.953,HF_wild_card,2022.2.4,Win32,60.2300789,5cb59c4737e0b60017b2ec93,64d2fd46c836a06233681665,64dc7f810ab2008390be8947,,,,,,,decisionTrl,resources/DB.BMP,resources/DP.BMP,Door4,-0.4125,-0.011666679,1,0,0,0.5656,optionLeft,60,4955,3,1,0,1,0,1,,,,,,,,,,,,,,,,,,,,,,,,,,,,,,,,,,,,,,,
,,,,,,,,2023-08-16_08h49.35.953,HF_wild_card,2022.2.4,Win32,60.2300789,5cb59c4737e0b60017b2ec93,64d2fd46c836a06233681665,64dc7f810ab2008390be8947,,,,,,,decisionTrl,resources/DBN.BMP,resources/DG.BMP,Door1,0.266666718,-0.000833359,1,0,0,0.5312,optionRight,30,4985,3,2,0,2,0,1,,,,,,,,,,,,,,,,,,,,,,,,,,,,,,,,,,,,,,,
,,,,,,,,2023-08-16_08h49.35.953,HF_wild_card,2022.2.4,Win32,60.2300789,5cb59c4737e0b60017b2ec93,64d2fd46c836a06233681665,64dc7f810ab2008390be8947,,,,,,,decisionTrl,resources/DBN.BMP,resources/DR.BMP,WildCard_Ex,0.15,-0.001666679,1,0,0,0.4938,optionRight,95,5080,3,3,0,3,0,1,,,,,,,,,,,,,,,,,,,,,,,,,,,,,,,,,,,,,,,
,,,,,,,,2023-08-16_08h49.35.953,HF_wild_card,2022.2.4,Win32,60.2300789,5cb59c4737e0b60017b2ec93,64d2fd46c836a06233681665,64dc7f810ab2008390be8947,,,,,,,ctch,resources/DB.BMP,resources/DG.BMP,Door4,-0.175833321,-0.006666679,1,0,0,0.5322,optionLeft,60,5140,3,4,0,4,0,1,,,,,,,,,,,,,,,,,,,,,,,,,,,,,,,,,,,,,,,
,,,,,,,,2023-08-16_08h49.35.953,HF_wild_card,2022.2.4,Win32,60.2300789,5cb59c4737e0b60017b2ec93,64d2fd46c836a06233681665,64dc7f810ab2008390be8947,,,,,,,sngl,resources/Empty.png,resources/DR.BMP,WildCard_Ex,0.1425,-0.003333359,1,0,0,0.4306,optionRight,5,5145,3,5,0,5,0,1,,,,,,,,,,,,,,,,,,,,,,,,,,,,,,,,,,,,,,,
,,,,,,,,2023-08-16_08h49.35.953,HF_wild_card,2022.2.4,Win32,60.2300789,5cb59c4737e0b60017b2ec93,64d2fd46c836a06233681665,64dc7f810ab2008390be8947,,,,,,,decisionTrl,resources/DR.BMP,resources/DBN.BMP,WildCard_Ex,-0.216666641,0.000833321,1,0,0,0.4489,optionLeft,95,5240,3,6,0,6,0,1,,,,,,,,,,,,,,,,,,,,,,,,,,,,,,,,,,,,,,,
,,,,,,,,2023-08-16_08h49.35.953,HF_wild_card,2022.2.4,Win32,60.2300789,5cb59c4737e0b60017b2ec93,64d2fd46c836a06233681665,64dc7f810ab2008390be8947,,,,,,,ctch,resources/DP.BMP,resources/DBN.BMP,Door3,-0.211666641,0,1,0,0,0.5317,optionLeft,70,5310,3,7,0,7,0,1,,,,,,,,,,,,,,,,,,,,,,,,,,,,,,,,,,,,,,,
,,,,,,,,2023-08-16_08h49.35.953,HF_wild_card,2022.2.4,Win32,60.2300789,5cb59c4737e0b60017b2ec93,64d2fd46c836a06233681665,64dc7f810ab2008390be8947,,,,,,,ctch,resources/DP.BMP,resources/DBN.BMP,Door3,-0.21,0.005,1,0,0,0.4641,optionLeft,70,5380,3,8,0,8,0,1,,,,,,,,,,,,,,,,,,,,,,,,,,,,,,,,,,,,,,,
,,,,,,,,2023-08-16_08h49.35.953,HF_wild_card,2022.2.4,Win32,60.2300789,5cb59c4737e0b60017b2ec93,64d2fd46c836a06233681665,64dc7f810ab2008390be8947,,,,,,,decisionTrl,resources/DB.BMP,resources/DP.BMP,Door3,0.220833359,-0.000833359,1,0,0,0.4979,optionRight,70,5450,3,9,0,9,0,1,,,,,,,,,,,,,,,,,,,,,,,,,,,,,,,,,,,,,,,
,,,,,,,,2023-08-16_08h49.35.953,HF_wild_card,2022.2.4,Win32,60.2300789,5cb59c4737e0b60017b2ec93,64d2fd46c836a06233681665,64dc7f810ab2008390be8947,,,,,,,decisionTrl,resources/DP.BMP,resources/DB.BMP,Door3,-0.173333321,0.003333321,1,0,0,0.448,optionLeft,70,5520,3,10,0,10,0,1,,,,,,,,,,,,,,,,,,,,,,,,,,,,,,,,,,,,,,,
,,,,,,,,2023-08-16_08h49.35.953,HF_wild_card,2022.2.4,Win32,60.2300789,5cb59c4737e0b60017b2ec93,64d2fd46c836a06233681665,64dc7f810ab2008390be8947,,,,,,,decisionTrl,resources/DR.BMP,resources/DG.BMP,WildCard_Ex,-0.194166641,0.005,1,0,0,0.4979,optionLeft,95,5615,3,11,0,11,0,1,,,,,,,,,,,,,,,,,,,,,,,,,,,,,,,,,,,,,,,
,,,,,,,,2023-08-16_08h49.35.953,HF_wild_card,2022.2.4,Win32,60.2300789,5cb59c4737e0b60017b2ec93,64d2fd46c836a06233681665,64dc7f810ab2008390be8947,,,,,,,sngl,resources/Empty.png,resources/DB.BMP,Door4,0.1925,0,1,0,0,0.4316,optionRight,60,5675,3,12,0,12,0,1,,,,,,,,,,,,,,,,,,,,,,,,,,,,,,,,,,,,,,,
,,,,,,,,2023-08-16_08h49.35.953,HF_wild_card,2022.2.4,Win32,60.2300789,5cb59c4737e0b60017b2ec93,64d2fd46c836a06233681665,64dc7f810ab2008390be8947,,,,,,,decisionTrl,resources/DP.BMP,resources/DB.BMP,Door3,-0.223333321,0.014166641,1,0,0,0.7981,optionLeft,70,5745,3,13,0,13,0,1,,,,,,,,,,,,,,,,,,,,,,,,,,,,,,,,,,,,,,,
,,,,,,,,2023-08-16_08h49.35.953,HF_wild_card,2022.2.4,Win32,60.2300789,5cb59c4737e0b60017b2ec93,64d2fd46c836a06233681665,64dc7f810ab2008390be8947,,,,,,,sngl,resources/DBN.BMP,resources/Empty.png,Door2,-0.189166641,0.010833321,1,0,0,0.8154,optionLeft,40,5785,3,14,0,14,0,1,,,,,,,,,,,,,,,,,,,,,,,,,,,,,,,,,,,,,,,
,,,,,,,,2023-08-16_08h49.35.953,HF_wild_card,2022.2.4,Win32,60.2300789,5cb59c4737e0b60017b2ec93,64d2fd46c836a06233681665,64dc7f810ab2008390be8947,,,,,,,decisionTrl,resources/DG.BMP,resources/DBN.BMP,Door1,-0.211666641,0.019166641,1,0,0,0.5635,optionLeft,30,5815,3,15,0,15,0,1,,,,,,,,,,,,,,,,,,,,,,,,,,,,,,,,,,,,,,,
,,,,,,,,2023-08-16_08h49.35.953,HF_wild_card,2022.2.4,Win32,60.2300789,5cb59c4737e0b60017b2ec93,64d2fd46c836a06233681665,64dc7f810ab2008390be8947,,,,,,,decisionTrl,resources/DG.BMP,resources/DR.BMP,WildCard_Ex,0.263333359,-0.0025,1,0,0,0.6479,optionRight,95,5910,3,16,0,16,0,1,,,,,,,,,,,,,,,,,,,,,,,,,,,,,,,,,,,,,,,
,,,,,,,,2023-08-16_08h49.35.953,HF_wild_card,2022.2.4,Win32,60.2300789,5cb59c4737e0b60017b2ec93,64d2fd46c836a06233681665,64dc7f810ab2008390be8947,,,,,,,decisionTrl,resources/DBN.BMP,resources/DG.BMP,Door1,0.435833359,-0.014166679,1,0,0,0.8307,optionRight,30,5940,3,17,0,17,0,1,,,,,,,,,,,,,,,,,,,,,,,,,,,,,,,,,,,,,,,
,,,,,,,,2023-08-16_08h49.35.953,HF_wild_card,2022.2.4,Win32,60.2300789,5cb59c4737e0b60017b2ec93,64d2fd46c836a06233681665,64dc7f810ab2008390be8947,,,,,,,ctch,resources/DBN.BMP,resources/DP.BMP,Door3,0.304166718,-0.008333359,1,0,0,0.7485,optionRight,70,6010,3,18,0,18,0,1,,,,,,,,,,,,,,,,,,,,,,,,,,,,,,,,,,,,,,,
,,,,,,,,2023-08-16_08h49.35.953,HF_wild_card,2022.2.4,Win32,60.2300789,5cb59c4737e0b60017b2ec93,64d2fd46c836a06233681665,64dc7f810ab2008390be8947,,,,,,,sngl,resources/DR.BMP,resources/Empty.png,WildCard_Ex,-0.155833282,-0.005833359,1,0,0,0.4475,optionLeft,5,6015,3,19,0,19,0,1,,,,,,,,,,,,,,,,,,,,,,,,,,,,,,,,,,,,,,,
,,,,,,,,2023-08-16_08h49.35.953,HF_wild_card,2022.2.4,Win32,60.2300789,5cb59c4737e0b60017b2ec93,64d2fd46c836a06233681665,64dc7f810ab2008390be8947,,,,,,,decisionTrl,resources/DP.BMP,resources/DB.BMP,Door4,0.185833359,-0.000833359,1,0,0,0.5137,optionRight,60,6075,3,20,0,20,0,1,,,,,,,,,,,,,,,,,,,,,,,,,,,,,,,,,,,,,,,
,,,,,,,,2023-08-16_08h49.35.953,HF_wild_card,2022.2.4,Win32,60.2300789,5cb59c4737e0b60017b2ec93,64d2fd46c836a06233681665,64dc7f810ab2008390be8947,,,,,,,sngl,resources/Empty.png,resources/DP.BMP,Door3,0.174166718,-0.015833359,1,0,0,0.5318,optionRight,70,6145,3,21,0,21,0,1,,,,,,,,,,,,,,,,,,,,,,,,,,,,,,,,,,,,,,,
,,,,,,,,2023-08-16_08h49.35.953,HF_wild_card,2022.2.4,Win32,60.2300789,5cb59c4737e0b60017b2ec93,64d2fd46c836a06233681665,64dc7f810ab2008390be8947,,,,,,,decisionTrl,resources/DR.BMP,resources/DP.BMP,WildCard_Ex,-0.231666641,-0.010833359,1,0,0,0.5316,optionLeft,95,6240,3,22,0,22,0,1,,,,,,,,,,,,,,,,,,,,,,,,,,,,,,,,,,,,,,,
,,,,,,,,2023-08-16_08h49.35.953,HF_wild_card,2022.2.4,Win32,60.2300789,5cb59c4737e0b60017b2ec93,64d2fd46c836a06233681665,64dc7f810ab2008390be8947,,,,,,,decisionTrl,resources/DP.BMP,resources/DR.BMP,WildCard_Ex,0.245,-0.005,1,0,0,0.4815,optionRight,5,6245,3,23,0,23,0,1,,,,,,,,,,,,,,,,,,,,,,,,,,,,,,,,,,,,,,,
,,,,,,,,2023-08-16_08h49.35.953,HF_wild_card,2022.2.4,Win32,60.2300789,5cb59c4737e0b60017b2ec93,64d2fd46c836a06233681665,64dc7f810ab2008390be8947,,,,,,,ctch,resources/DB.BMP,resources/DG.BMP,Door4,-0.168333321,0.01,1,0,0,0.6813,optionLeft,60,6305,3,24,0,24,0,1,,,,,,,,,,,,,,,,,,,,,,,,,,,,,,,,,,,,,,,
,,,,,,,,2023-08-16_08h49.35.953,HF_wild_card,2022.2.4,Win32,60.2300789,5cb59c4737e0b60017b2ec93,64d2fd46c836a06233681665,64dc7f810ab2008390be8947,,,,,,,decisionTrl,resources/DB.BMP,resources/DP.BMP,Door3,0.195833359,0.0025,1,0,0,0.4482,optionRight,70,6375,3,25,0,25,0,1,,,,,,,,,,,,,,,,,,,,,,,,,,,,,,,,,,,,,,,
,,,,,,,,2023-08-16_08h49.35.953,HF_wild_card,2022.2.4,Win32,60.2300789,5cb59c4737e0b60017b2ec93,64d2fd46c836a06233681665,64dc7f810ab2008390be8947,,,,,,,decisionTrl,resources/DG.BMP,resources/DBN.BMP,Door1,-0.165,0.0075,1,0,0,0.4642,optionLeft,30,6405,3,26,0,26,0,1,,,,,,,,,,,,,,,,,,,,,,,,,,,,,,,,,,,,,,,
,,,,,,,,2023-08-16_08h49.35.953,HF_wild_card,2022.2.4,Win32,60.2300789,5cb59c4737e0b60017b2ec93,64d2fd46c836a06233681665,64dc7f810ab2008390be8947,,,,,,,sngl,resources/Empty.png,resources/DBN.BMP,Door2,0.135833359,0.005,1,0,0,0.565,optionRight,20,6425,3,27,0,27,0,1,,,,,,,,,,,,,,,,,,,,,,,,,,,,,,,,,,,,,,,
,,,,,,,,2023-08-16_08h49.35.953,HF_wild_card,2022.2.4,Win32,60.2300789,5cb59c4737e0b60017b2ec93,64d2fd46c836a06233681665,64dc7f810ab2008390be8947,,,,,,,decisionTrl,resources/DG.BMP,resources/DBN.BMP,Door1,-0.288333321,0.02,1,0,0,0.4472,optionLeft,30,6455,3,28,0,28,0,1,,,,,,,,,,,,,,,,,,,,,,,,,,,,,,,,,,,,,,,
,,,,,,,,2023-08-16_08h49.35.953,HF_wild_card,2022.2.4,Win32,60.2300789,5cb59c4737e0b60017b2ec93,64d2fd46c836a06233681665,64dc7f810ab2008390be8947,,,,,,,decisionTrl,resources/DB.BMP,resources/DR.BMP,WildCard_Ex,0.169166718,0.03,1,0,0,0.5478,optionRight,5,6460,3,29,0,29,0,1,,,,,,,,,,,,,,,,,,,,,,,,,,,,,,,,,,,,,,,
,,,,,,,,2023-08-16_08h49.35.953,HF_wild_card,2022.2.4,Win32,60.2300789,5cb59c4737e0b60017b2ec93,64d2fd46c836a06233681665,64dc7f810ab2008390be8947,,,,,,,decisionTrl,resources/DG.BMP,resources/DBN.BMP,Door1,-0.2125,0.013333321,1,0,0,0.4482,optionLeft,30,6490,3,30,0,30,0,1,,,,,,,,,,,,,,,,,,,,,,,,,,,,,,,,,,,,,,,
,,,,,,,,2023-08-16_08h49.35.953,HF_wild_card,2022.2.4,Win32,60.2300789,5cb59c4737e0b60017b2ec93,64d2fd46c836a06233681665,64dc7f810ab2008390be8947,,,,,,,ctch,resources/DBN.BMP,resources/DP.BMP,Door3,0.243333359,0,1,0,0,0.8486,optionRight,70,6560,3,31,0,31,0,1,,,,,,,,,,,,,,,,,,,,,,,,,,,,,,,,,,,,,,,
,,,,,,,,2023-08-16_08h49.35.953,HF_wild_card,2022.2.4,Win32,60.2300789,5cb59c4737e0b60017b2ec93,64d2fd46c836a06233681665,64dc7f810ab2008390be8947,,,,,,,sngl,resources/DG.BMP,resources/Empty.png,Door1,-0.135,0.005833321,1,0,0,0.4313,optionLeft,30,6590,3,32,0,32,0,1,,,,,,,,,,,,,,,,,,,,,,,,,,,,,,,,,,,,,,,
,,,,,,,,2023-08-16_08h49.35.953,HF_wild_card,2022.2.4,Win32,60.2300789,5cb59c4737e0b60017b2ec93,64d2fd46c836a06233681665,64dc7f810ab2008390be8947,,,,,,,decisionTrl,resources/DR.BMP,resources/DB.BMP,WildCard_Ex,-0.178333321,0.016666641,1,0,0,0.5814,optionLeft,95,6685,3,33,0,33,0,1,,,,,,,,,,,,,,,,,,,,,,,,,,,,,,,,,,,,,,,
,,,,,,,,2023-08-16_08h49.35.953,HF_wild_card,2022.2.4,Win32,60.2300789,5cb59c4737e0b60017b2ec93,64d2fd46c836a06233681665,64dc7f810ab2008390be8947,,,,,,,sngl,resources/DR.BMP,resources/Empty.png,WildCard_Ex,-0.151666641,0.015,1,0,0,0.4309,optionLeft,95,6780,3,34,0,34,0,1,,,,,,,,,,,,,,,,,,,,,,,,,,,,,,,,,,,,,,,
,,,,,,,,2023-08-16_08h49.35.953,HF_wild_card,2022.2.4,Win32,60.2300789,5cb59c4737e0b60017b2ec93,64d2fd46c836a06233681665,64dc7f810ab2008390be8947,,,,,,,decisionTrl,resources/DBN.BMP,resources/DG.BMP,Door1,0.265,-0.01,1,0,0,0.681,optionRight,30,6810,3,35,0,35,0,1,,,,,,,,,,,,,,,,,,,,,,,,,,,,,,,,,,,,,,,
,,,,,,,,2023-08-16_08h49.35.953,HF_wild_card,2022.2.4,Win32,60.2300789,5cb59c4737e0b60017b2ec93,64d2fd46c836a06233681665,64dc7f810ab2008390be8947,,,,,,,ctch,resources/DG.BMP,resources/DB.BMP,Door4,0.274166718,-0.005833359,1,0,0,0.9815,optionRight,80,6890,3,36,0,36,0,1,,,,,,,,,,,,,,,,,,,,,,,,,,,,,,,,,,,,,,,
,,,,,,,,2023-08-16_08h49.35.953,HF_wild_card,2022.2.4,Win32,60.2300789,5cb59c4737e0b60017b2ec93,64d2fd46c836a06233681665,64dc7f810ab2008390be8947,,,,,,,sngl,resources/DP.BMP,resources/Empty.png,Door3,-0.139166641,0.018333321,1,0,0,0.5142,optionLeft,70,6960,3,37,0,37,0,1,,,,,,,,,,,,,,,,,,,,,,,,,,,,,,,,,,,,,,,
,,,,,,,,2023-08-16_08h49.35.953,HF_wild_card,2022.2.4,Win32,60.2300789,5cb59c4737e0b60017b2ec93,64d2fd46c836a06233681665,64dc7f810ab2008390be8947,,,,,,,sngl,resources/Empty.png,resources/DG.BMP,Door1,0.163333359,-0.010833359,1,0,0,0.3979,optionRight,30,6990,3,38,0,38,0,1,,,,,,,,,,,,,,,,,,,,,,,,,,,,,,,,,,,,,,,
,,,,,,,,2023-08-16_08h49.35.953,HF_wild_card,2022.2.4,Win32,60.2300789,5cb59c4737e0b60017b2ec93,64d2fd46c836a06233681665,64dc7f810ab2008390be8947,,,,,,,decisionTrl,resources/DP.BMP,resources/DB.BMP,Door3,-0.180833321,0.016666641,1,0,0,0.4644,optionLeft,70,7060,3,39,0,39,0,1,,,,,,,,,,,,,,,,,,,,,,,,,,,,,,,,,,,,,,,
,,,,,,,,2023-08-16_08h49.35.953,HF_wild_card,2022.2.4,Win32,60.2300789,5cb59c4737e0b60017b2ec93,64d2fd46c836a06233681665,64dc7f810ab2008390be8947,,,,,,,sngl,resources/Empty.png,resources/DR.BMP,WildCard_Ex,0.175,-0.000833359,1,0,0,0.4475,optionRight,95,7155,3,40,0,40,0,1,,,,,,,,,,,,,,,,,,,,,,,,,,,,,,,,,,,,,,,
,,,,,,,,2023-08-16_08h49.35.953,HF_wild_card,2022.2.4,Win32,60.2300789,5cb59c4737e0b60017b2ec93,64d2fd46c836a06233681665,64dc7f810ab2008390be8947,,,,,,,decisionTrl,resources/DB.BMP,resources/DP.BMP,Door4,-0.193333321,0.021666641,1,0,0,0.3645,optionLeft,60,7215,3,41,0,41,0,1,,,,,,,,,,,,,,,,,,,,,,,,,,,,,,,,,,,,,,,
,,,,,,,,2023-08-16_08h49.35.953,HF_wild_card,2022.2.4,Win32,60.2300789,5cb59c4737e0b60017b2ec93,64d2fd46c836a06233681665,64dc7f810ab2008390be8947,,,,,,,sngl,resources/DB.BMP,resources/Empty.png,Door4,-0.201666641,0.0325,1,0,0,0.498,optionLeft,80,7295,3,42,0,42,0,1,,,,,,,,,,,,,,,,,,,,,,,,,,,,,,,,,,,,,,,
,,,,,,,,2023-08-16_08h49.35.953,HF_wild_card,2022.2.4,Win32,60.2300789,5cb59c4737e0b60017b2ec93,64d2fd46c836a06233681665,64dc7f810ab2008390be8947,,,,,,,decisionTrl,resources/DBN.BMP,resources/DG.BMP,Door1,0.276666718,-0.0025,1,0,0,0.5147,optionRight,30,7325,3,43,0,43,0,1,,,,,,,,,,,,,,,,,,,,,,,,,,,,,,,,,,,,,,,
,,,,,,,,2023-08-16_08h49.35.953,HF_wild_card,2022.2.4,Win32,60.2300789,5cb59c4737e0b60017b2ec93,64d2fd46c836a06233681665,64dc7f810ab2008390be8947,,,,,,,,,,,,,,,,,,,,,,,,,,2,0,2,0,1,,,,,,,,,,,,,,,,,,,,,,,,,,,,,,,,,,
,,,,,,,,2023-08-16_08h49.35.953,HF_wild_card,2022.2.4,Win32,60.2300789,5cb59c4737e0b60017b2ec93,64d2fd46c836a06233681665,64dc7f810ab2008390be8947,,,,,,,decisionTrl,resources/DB.BMP,resources/DY.BMP,Door4,-0.235833321,-0.0825,1,0,0,0.9641,optionLeft,80,7405,4,0,0,0,0,1,,,,,,,,,,,,,,,,,,,,,,,,,,,,,,,,,,,,,,,
,,,,,,,,2023-08-16_08h49.35.953,HF_wild_card,2022.2.4,Win32,60.2300789,5cb59c4737e0b60017b2ec93,64d2fd46c836a06233681665,64dc7f810ab2008390be8947,,,,,,,decisionTrl,resources/DY.BMP,resources/DB.BMP,WildCard_NonEx,-0.198333321,-0.010833359,1,0,0,0.4322,optionLeft,55,7460,4,1,0,1,0,1,,,,,,,,,,,,,,,,,,,,,,,,,,,,,,,,,,,,,,,
,,,,,,,,2023-08-16_08h49.35.953,HF_wild_card,2022.2.4,Win32,60.2300789,5cb59c4737e0b60017b2ec93,64d2fd46c836a06233681665,64dc7f810ab2008390be8947,,,,,,,decisionTrl,resources/DP.BMP,resources/DB.BMP,Door4,0.198333359,0.005,1,0,0,0.6138,optionRight,80,7540,4,2,0,2,0,1,,,,,,,,,,,,,,,,,,,,,,,,,,,,,,,,,,,,,,,
,,,,,,,,2023-08-16_08h49.35.953,HF_wild_card,2022.2.4,Win32,60.2300789,5cb59c4737e0b60017b2ec93,64d2fd46c836a06233681665,64dc7f810ab2008390be8947,,,,,,,ctch,resources/DP.BMP,resources/DBN.BMP,Door3,-0.245,-0.005,1,0,0,0.5146,optionLeft,70,7610,4,3,0,3,0,1,,,,,,,,,,,,,,,,,,,,,,,,,,,,,,,,,,,,,,,
,,,,,,,,2023-08-16_08h49.35.953,HF_wild_card,2022.2.4,Win32,60.2300789,5cb59c4737e0b60017b2ec93,64d2fd46c836a06233681665,64dc7f810ab2008390be8947,,,,,,,decisionTrl,resources/DG.BMP,resources/DBN.BMP,Door1,-0.273333321,0.0075,1,0,0,0.7477,optionLeft,30,7640,4,4,0,4,0,1,,,,,,,,,,,,,,,,,,,,,,,,,,,,,,,,,,,,,,,
,,,,,,,,2023-08-16_08h49.35.953,HF_wild_card,2022.2.4,Win32,60.2300789,5cb59c4737e0b60017b2ec93,64d2fd46c836a06233681665,64dc7f810ab2008390be8947,,,,,,,decisionTrl,resources/DG.BMP,resources/DBN.BMP,Door1,-0.2275,0.0025,1,0,0,0.5486,optionLeft,30,7670,4,5,0,5,0,1,,,,,,,,,,,,,,,,,,,,,,,,,,,,,,,,,,,,,,,
,,,,,,,,2023-08-16_08h49.35.953,HF_wild_card,2022.2.4,Win32,60.2300789,5cb59c4737e0b60017b2ec93,64d2fd46c836a06233681665,64dc7f810ab2008390be8947,,,,,,,decisionTrl,resources/DP.BMP,resources/DB.BMP,Door3,-0.276666641,0.005,1,0,0,0.7145,optionLeft,70,7740,4,6,0,6,0,1,,,,,,,,,,,,,,,,,,,,,,,,,,,,,,,,,,,,,,,
,,,,,,,,2023-08-16_08h49.35.953,HF_wild_card,2022.2.4,Win32,60.2300789,5cb59c4737e0b60017b2ec93,64d2fd46c836a06233681665,64dc7f810ab2008390be8947,,,,,,,ctch,resources/DBN.BMP,resources/DP.BMP,Door3,0.289166718,-0.003333359,1,0,0,0.6143,optionRight,70,7810,4,7,0,7,0,1,,,,,,,,,,,,,,,,,,,,,,,,,,,,,,,,,,,,,,,
,,,,,,,,2023-08-16_08h49.35.953,HF_wild_card,2022.2.4,Win32,60.2300789,5cb59c4737e0b60017b2ec93,64d2fd46c836a06233681665,64dc7f810ab2008390be8947,,,,,,,decisionTrl,resources/DG.BMP,resources/DY.BMP,Door1,-0.254166641,0.000833321,1,0,0,0.6311,optionLeft,30,7840,4,8,0,8,0,1,,,,,,,,,,,,,,,,,,,,,,,,,,,,,,,,,,,,,,,
,,,,,,,,2023-08-16_08h49.35.953,HF_wild_card,2022.2.4,Win32,60.2300789,5cb59c4737e0b60017b2ec93,64d2fd46c836a06233681665,64dc7f810ab2008390be8947,,,,,,,sngl,resources/DB.BMP,resources/Empty.png,Door4,-0.288333321,0.0025,1,0,0,0.4315,optionLeft,60,7900,4,9,0,9,0,1,,,,,,,,,,,,,,,,,,,,,,,,,,,,,,,,,,,,,,,
,,,,,,,,2023-08-16_08h49.35.953,HF_wild_card,2022.2.4,Win32,60.2300789,5cb59c4737e0b60017b2ec93,64d2fd46c836a06233681665,64dc7f810ab2008390be8947,,,,,,,ctch,resources/DBN.BMP,resources/DP.BMP,Door3,0.416666718,0.005833321,1,0,0,0.698,optionRight,70,7970,4,10,0,10,0,1,,,,,,,,,,,,,,,,,,,,,,,,,,,,,,,,,,,,,,,
,,,,,,,,2023-08-16_08h49.35.953,HF_wild_card,2022.2.4,Win32,60.2300789,5cb59c4737e0b60017b2ec93,64d2fd46c836a06233681665,64dc7f810ab2008390be8947,,,,,,,ctch,resources/DB.BMP,resources/DG.BMP,Door4,-0.1475,-0.004166679,1,0,0,0.5986,optionLeft,80,8050,4,11,0,11,0,1,,,,,,,,,,,,,,,,,,,,,,,,,,,,,,,,,,,,,,,
,,,,,,,,2023-08-16_08h49.35.953,HF_wild_card,2022.2.4,Win32,60.2300789,5cb59c4737e0b60017b2ec93,64d2fd46c836a06233681665,64dc7f810ab2008390be8947,,,,,,,decisionTrl,resources/DG.BMP,resources/DBN.BMP,Door1,-0.1775,-0.0025,1,0,0,0.5644,optionLeft,30,8080,4,12,0,12,0,1,,,,,,,,,,,,,,,,,,,,,,,,,,,,,,,,,,,,,,,
,,,,,,,,2023-08-16_08h49.35.953,HF_wild_card,2022.2.4,Win32,60.2300789,5cb59c4737e0b60017b2ec93,64d2fd46c836a06233681665,64dc7f810ab2008390be8947,,,,,,,ctch,resources/DP.BMP,resources/DBN.BMP,Door3,-0.200833321,-0.001666679,1,0,0,0.4977,optionLeft,70,8150,4,13,0,13,0,1,,,,,,,,,,,,,,,,,,,,,,,,,,,,,,,,,,,,,,,
,,,,,,,,2023-08-16_08h49.35.953,HF_wild_card,2022.2.4,Win32,60.2300789,5cb59c4737e0b60017b2ec93,64d2fd46c836a06233681665,64dc7f810ab2008390be8947,,,,,,,decisionTrl,resources/DB.BMP,resources/DP.BMP,Door3,0.328333359,-0.0125,1,0,0,0.4814,optionRight,70,8220,4,14,0,14,0,1,,,,,,,,,,,,,,,,,,,,,,,,,,,,,,,,,,,,,,,
,,,,,,,,2023-08-16_08h49.35.953,HF_wild_card,2022.2.4,Win32,60.2300789,5cb59c4737e0b60017b2ec93,64d2fd46c836a06233681665,64dc7f810ab2008390be8947,,,,,,,sngl,resources/Empty.png,resources/DG.BMP,Door1,0.188333359,0.003333321,1,0,0,0.4479,optionRight,30,8250,4,15,0,15,0,1,,,,,,,,,,,,,,,,,,,,,,,,,,,,,,,,,,,,,,,
,,,,,,,,2023-08-16_08h49.35.953,HF_wild_card,2022.2.4,Win32,60.2300789,5cb59c4737e0b60017b2ec93,64d2fd46c836a06233681665,64dc7f810ab2008390be8947,,,,,,,decisionTrl,resources/DY.BMP,resources/DG.BMP,WildCard_NonEx,-0.11,0.000833321,1,0,0,0.7649,optionLeft,55,8305,4,16,0,16,0,1,,,,,,,,,,,,,,,,,,,,,,,,,,,,,,,,,,,,,,,
,,,,,,,,2023-08-16_08h49.35.953,HF_wild_card,2022.2.4,Win32,60.2300789,5cb59c4737e0b60017b2ec93,64d2fd46c836a06233681665,64dc7f810ab2008390be8947,,,,,,,decisionTrl,resources/DB.BMP,resources/DP.BMP,Door4,-0.094166641,0.0075,1,0,0,1.1984,optionLeft,60,8365,4,17,0,17,0,1,,,,,,,,,,,,,,,,,,,,,,,,,,,,,,,,,,,,,,,
,,,,,,,,2023-08-16_08h49.35.953,HF_wild_card,2022.2.4,Win32,60.2300789,5cb59c4737e0b60017b2ec93,64d2fd46c836a06233681665,64dc7f810ab2008390be8947,,,,,,,sngl,resources/Empty.png,resources/DBN.BMP,Door2,0.210833359,0.000833321,1,0,0,0.3986,optionRight,40,8405,4,18,0,18,0,1,,,,,,,,,,,,,,,,,,,,,,,,,,,,,,,,,,,,,,,
,,,,,,,,2023-08-16_08h49.35.953,HF_wild_card,2022.2.4,Win32,60.2300789,5cb59c4737e0b60017b2ec93,64d2fd46c836a06233681665,64dc7f810ab2008390be8947,,,,,,,decisionTrl,resources/DBN.BMP,resources/DG.BMP,Door1,0.423333359,0.0025,1,0,0,0.6984,optionRight,30,8435,4,19,0,19,0,1,,,,,,,,,,,,,,,,,,,,,,,,,,,,,,,,,,,,,,,
,,,,,,,,2023-08-16_08h49.35.953,HF_wild_card,2022.2.4,Win32,60.2300789,5cb59c4737e0b60017b2ec93,64d2fd46c836a06233681665,64dc7f810ab2008390be8947,,,,,,,ctch,resources/DB.BMP,resources/DG.BMP,Door1,0.185833359,0.000833321,1,0,0,0.5312,optionRight,30,8465,4,20,0,20,0,1,,,,,,,,,,,,,,,,,,,,,,,,,,,,,,,,,,,,,,,
,,,,,,,,2023-08-16_08h49.35.953,HF_wild_card,2022.2.4,Win32,60.2300789,5cb59c4737e0b60017b2ec93,64d2fd46c836a06233681665,64dc7f810ab2008390be8947,,,,,,,decisionTrl,resources/DP.BMP,resources/DY.BMP,Door3,-0.1425,-0.01,1,0,0,1.1644,optionLeft,70,8535,4,21,0,21,0,1,,,,,,,,,,,,,,,,,,,,,,,,,,,,,,,,,,,,,,,
,,,,,,,,2023-08-16_08h49.35.953,HF_wild_card,2022.2.4,Win32,60.2300789,5cb59c4737e0b60017b2ec93,64d2fd46c836a06233681665,64dc7f810ab2008390be8947,,,,,,,decisionTrl,resources/DP.BMP,resources/DB.BMP,Door3,-0.1975,-0.0025,1,0,0,0.4987,optionLeft,70,8605,4,22,0,22,0,1,,,,,,,,,,,,,,,,,,,,,,,,,,,,,,,,,,,,,,,
,,,,,,,,2023-08-16_08h49.35.953,HF_wild_card,2022.2.4,Win32,60.2300789,5cb59c4737e0b60017b2ec93,64d2fd46c836a06233681665,64dc7f810ab2008390be8947,,,,,,,ctch,resources/DG.BMP,resources/DB.BMP,Door1,-0.295,-0.005,1,0,0,0.6649,optionLeft,30,8635,4,23,0,23,0,1,,,,,,,,,,,,,,,,,,,,,,,,,,,,,,,,,,,,,,,
,,,,,,,,2023-08-16_08h49.35.953,HF_wild_card,2022.2.4,Win32,60.2300789,5cb59c4737e0b60017b2ec93,64d2fd46c836a06233681665,64dc7f810ab2008390be8947,,,,,,,sngl,resources/DP.BMP,resources/Empty.png,Door3,-0.156666641,-0.000833359,1,0,0,0.5139,optionLeft,70,8705,4,24,0,24,0,1,,,,,,,,,,,,,,,,,,,,,,,,,,,,,,,,,,,,,,,
,,,,,,,,2023-08-16_08h49.35.953,HF_wild_card,2022.2.4,Win32,60.2300789,5cb59c4737e0b60017b2ec93,64d2fd46c836a06233681665,64dc7f810ab2008390be8947,,,,,,,sngl,resources/DG.BMP,resources/Empty.png,Door1,-0.195,0.000833321,1,0,0,0.4797,optionLeft,30,8735,4,25,0,25,0,1,,,,,,,,,,,,,,,,,,,,,,,,,,,,,,,,,,,,,,,
,,,,,,,,2023-08-16_08h49.35.953,HF_wild_card,2022.2.4,Win32,60.2300789,5cb59c4737e0b60017b2ec93,64d2fd46c836a06233681665,64dc7f810ab2008390be8947,,,,,,,decisionTrl,resources/DP.BMP,resources/DB.BMP,Door4,0.3475,0.009166641,1,0,0,1.0311,optionRight,80,8815,4,26,0,26,0,1,,,,,,,,,,,,,,,,,,,,,,,,,,,,,,,,,,,,,,,
,,,,,,,,2023-08-16_08h49.35.953,HF_wild_card,2022.2.4,Win32,60.2300789,5cb59c4737e0b60017b2ec93,64d2fd46c836a06233681665,64dc7f810ab2008390be8947,,,,,,,sngl,resources/DBN.BMP,resources/Empty.png,Door2,-0.166666641,-0.003333359,1,0,0,0.7484,optionLeft,20,8835,4,27,0,27,0,1,,,,,,,,,,,,,,,,,,,,,,,,,,,,,,,,,,,,,,,
,,,,,,,,2023-08-16_08h49.35.953,HF_wild_card,2022.2.4,Win32,60.2300789,5cb59c4737e0b60017b2ec93,64d2fd46c836a06233681665,64dc7f810ab2008390be8947,,,,,,,sngl,resources/Empty.png,resources/DB.BMP,Door4,0.269166718,0.003333321,1,0,0,0.4295,optionRight,80,8915,4,28,0,28,0,1,,,,,,,,,,,,,,,,,,,,,,,,,,,,,,,,,,,,,,,
,,,,,,,,2023-08-16_08h49.35.953,HF_wild_card,2022.2.4,Win32,60.2300789,5cb59c4737e0b60017b2ec93,64d2fd46c836a06233681665,64dc7f810ab2008390be8947,,,,,,,decisionTrl,resources/DB.BMP,resources/DP.BMP,Door4,-0.1325,0,1,0,0,0.4981,optionLeft,60,8975,4,29,0,29,0,1,,,,,,,,,,,,,,,,,,,,,,,,,,,,,,,,,,,,,,,
,,,,,,,,2023-08-16_08h49.35.953,HF_wild_card,2022.2.4,Win32,60.2300789,5cb59c4737e0b60017b2ec93,64d2fd46c836a06233681665,64dc7f810ab2008390be8947,,,,,,,decisionTrl,resources/DBN.BMP,resources/DG.BMP,Door1,0.361666718,-0.013333359,1,0,0,0.5814,optionRight,30,9005,4,30,0,30,0,1,,,,,,,,,,,,,,,,,,,,,,,,,,,,,,,,,,,,,,,
,,,,,,,,2023-08-16_08h49.35.953,HF_wild_card,2022.2.4,Win32,60.2300789,5cb59c4737e0b60017b2ec93,64d2fd46c836a06233681665,64dc7f810ab2008390be8947,,,,,,,sngl,resources/DY.BMP,resources/Empty.png,WildCard_NonEx,-0.2175,0.004166641,1,0,0,0.4601,optionLeft,55,9060,4,31,0,31,0,1,,,,,,,,,,,,,,,,,,,,,,,,,,,,,,,,,,,,,,,
,,,,,,,,2023-08-16_08h49.35.953,HF_wild_card,2022.2.4,Win32,60.2300789,5cb59c4737e0b60017b2ec93,64d2fd46c836a06233681665,64dc7f810ab2008390be8947,,,,,,,sngl,resources/Empty.png,resources/DP.BMP,Door3,0.315,-0.005833359,1,0,0,0.3982,optionRight,70,9130,4,32,0,32,0,1,,,,,,,,,,,,,,,,,,,,,,,,,,,,,,,,,,,,,,,
,,,,,,,,2023-08-16_08h49.35.953,HF_wild_card,2022.2.4,Win32,60.2300789,5cb59c4737e0b60017b2ec93,64d2fd46c836a06233681665,64dc7f810ab2008390be8947,,,,,,,decisionTrl,resources/DBN.BMP,resources/DY.BMP,WildCard_NonEx,0.1375,0.005,1,0,0,0.5653,optionRight,55,9185,4,33,0,33,0,1,,,,,,,,,,,,,,,,,,,,,,,,,,,,,,,,,,,,,,,
,,,,,,,,2023-08-16_08h49.35.953,HF_wild_card,2022.2.4,Win32,60.2300789,5cb59c4737e0b60017b2ec93,64d2fd46c836a06233681665,64dc7f810ab2008390be8947,,,,,,,decisionTrl,resources/DY.BMP,resources/DP.BMP,WildCard_NonEx,-0.205833321,0.004166641,1,0,0,0.4816,optionLeft,55,9240,4,34,0,34,0,1,,,,,,,,,,,,,,,,,,,,,,,,,,,,,,,,,,,,,,,
,,,,,,,,2023-08-16_08h49.35.953,HF_wild_card,2022.2.4,Win32,60.2300789,5cb59c4737e0b60017b2ec93,64d2fd46c836a06233681665,64dc7f810ab2008390be8947,,,,,,,sngl,resources/Empty.png,resources/DY.BMP,WildCard_NonEx,0.189166718,-0.003333359,1,0,0,0.4138,optionRight,55,9295,4,35,0,35,0,1,,,,,,,,,,,,,,,,,,,,,,,,,,,,,,,,,,,,,,,
,,,,,,,,2023-08-16_08h49.35.953,HF_wild_card,2022.2.4,Win32,60.2300789,5cb59c4737e0b60017b2ec93,64d2fd46c836a06233681665,64dc7f810ab2008390be8947,,,,,,,decisionTrl,resources/DY.BMP,resources/DBN.BMP,WildCard_NonEx,-0.164166641,0.000833321,1,0,0,0.4468,optionLeft,55,9350,4,36,0,36,0,1,,,,,,,,,,,,,,,,,,,,,,,,,,,,,,,,,,,,,,,
,,,,,,,,2023-08-16_08h49.35.953,HF_wild_card,2022.2.4,Win32,60.2300789,5cb59c4737e0b60017b2ec93,64d2fd46c836a06233681665,64dc7f810ab2008390be8947,,,,,,,decisionTrl,resources/DBN.BMP,resources/DG.BMP,Door1,0.160833359,0,1,0,0,0.6466,optionRight,30,9380,4,37,0,37,0,1,,,,,,,,,,,,,,,,,,,,,,,,,,,,,,,,,,,,,,,
,,,,,,,,2023-08-16_08h49.35.953,HF_wild_card,2022.2.4,Win32,60.2300789,5cb59c4737e0b60017b2ec93,64d2fd46c836a06233681665,64dc7f810ab2008390be8947,,,,,,,decisionTrl,resources/DG.BMP,resources/DBN.BMP,Door2,0.165,-0.0025,1,0,0,0.7649,optionRight,20,9400,4,38,0,38,0,1,,,,,,,,,,,,,,,,,,,,,,,,,,,,,,,,,,,,,,,
,,,,,,,,2023-08-16_08h49.35.953,HF_wild_card,2022.2.4,Win32,60.2300789,5cb59c4737e0b60017b2ec93,64d2fd46c836a06233681665,64dc7f810ab2008390be8947,,,,,,,sngl,resources/Empty.png,resources/DY.BMP,WildCard_NonEx,0.208333359,-0.003333359,1,0,0,0.4151,optionRight,45,9445,4,39,0,39,0,1,,,,,,,,,,,,,,,,,,,,,,,,,,,,,,,,,,,,,,,
,,,,,,,,2023-08-16_08h49.35.953,HF_wild_card,2022.2.4,Win32,60.2300789,5cb59c4737e0b60017b2ec93,64d2fd46c836a06233681665,64dc7f810ab2008390be8947,,,,,,,ctch,resources/DG.BMP,resources/DB.BMP,Door1,-0.229166641,0.0125,1,0,0,0.6153,optionLeft,30,9475,4,40,0,40,0,1,,,,,,,,,,,,,,,,,,,,,,,,,,,,,,,,,,,,,,,
,,,,,,,,2023-08-16_08h49.35.953,HF_wild_card,2022.2.4,Win32,60.2300789,5cb59c4737e0b60017b2ec93,64d2fd46c836a06233681665,64dc7f810ab2008390be8947,,,,,,,sngl,resources/DY.BMP,resources/Empty.png,WildCard_NonEx,-0.188333321,0.0225,1,0,0,0.4309,optionLeft,45,9520,4,41,0,41,0,1,,,,,,,,,,,,,,,,,,,,,,,,,,,,,,,,,,,,,,,
,,,,,,,,2023-08-16_08h49.35.953,HF_wild_card,2022.2.4,Win32,60.2300789,5cb59c4737e0b60017b2ec93,64d2fd46c836a06233681665,64dc7f810ab2008390be8947,,,,,,,decisionTrl,resources/DBN.BMP,resources/DG.BMP,Door1,0.203333359,0.0075,1,0,0,0.5643,optionRight,30,9550,4,42,0,42,0,1,,,,,,,,,,,,,,,,,,,,,,,,,,,,,,,,,,,,,,,
,,,,,,,,2023-08-16_08h49.35.953,HF_wild_card,2022.2.4,Win32,60.2300789,5cb59c4737e0b60017b2ec93,64d2fd46c836a06233681665,64dc7f810ab2008390be8947,,,,,,,decisionTrl,resources/DB.BMP,resources/DP.BMP,Door4,-0.243333321,0.019166641,1,0,0,0.6304,optionLeft,60,9610,4,43,0,43,0,1,,,,,,,,,,,,,,,,,,,,,,,,,,,,,,,,,,,,,,,
,,,,,,,,2023-08-16_08h49.35.953,HF_wild_card,2022.2.4,Win32,60.2300789,5cb59c4737e0b60017b2ec93,64d2fd46c836a06233681665,64dc7f810ab2008390be8947,,,,,,,,,,,,,,,,,,,,,,,,,,3,0,3,0,1,,,,,,,,,,,,,,,,,,,,,,,,,,,,,,,,,,
,,,,,,,,2023-08-16_08h49.35.953,HF_wild_card,2022.2.4,Win32,60.2300789,5cb59c4737e0b60017b2ec93,64d2fd46c836a06233681665,64dc7f810ab2008390be8947,,,,,,,ctch,resources/DP.BMP,resources/DBN.BMP,Door3,-0.281666641,-0.003333359,1,0,0,0.697,optionLeft,70,9680,5,0,0,0,0,1,,,,,,,,,,,,,,,,,,,,,,,,,,,,,,,,,,,,,,,
,,,,,,,,2023-08-16_08h49.35.953,HF_wild_card,2022.2.4,Win32,60.2300789,5cb59c4737e0b60017b2ec93,64d2fd46c836a06233681665,64dc7f810ab2008390be8947,,,,,,,ctch,resources/DBN.BMP,resources/DP.BMP,Door3,0.18,-0.006666679,1,0,0,0.5983,optionRight,70,9750,5,1,0,1,0,1,,,,,,,,,,,,,,,,,,,,,,,,,,,,,,,,,,,,,,,
,,,,,,,,2023-08-16_08h49.35.953,HF_wild_card,2022.2.4,Win32,60.2300789,5cb59c4737e0b60017b2ec93,64d2fd46c836a06233681665,64dc7f810ab2008390be8947,,,,,,,decisionTrl,resources/DBN.BMP,resources/DG.BMP,Door1,0.345833359,-0.010833359,1,0,0,0.5644,optionRight,30,9780,5,2,0,2,0,1,,,,,,,,,,,,,,,,,,,,,,,,,,,,,,,,,,,,,,,
,,,,,,,,2023-08-16_08h49.35.953,HF_wild_card,2022.2.4,Win32,60.2300789,5cb59c4737e0b60017b2ec93,64d2fd46c836a06233681665,64dc7f810ab2008390be8947,,,,,,,sngl,resources/Empty.png,resources/DY.BMP,WildCard_NonEx,0.238333359,-0.021666679,1,0,0,0.6652,optionRight,45,9825,5,3,0,3,0,1,,,,,,,,,,,,,,,,,,,,,,,,,,,,,,,,,,,,,,,
,,,,,,,,2023-08-16_08h49.35.953,HF_wild_card,2022.2.4,Win32,60.2300789,5cb59c4737e0b60017b2ec93,64d2fd46c836a06233681665,64dc7f810ab2008390be8947,,,,,,,sngl,resources/Empty.png,resources/DG.BMP,Door1,0.236666718,-0.020833359,1,0,0,0.3808,optionRight,30,9855,5,4,0,4,0,1,,,,,,,,,,,,,,,,,,,,,,,,,,,,,,,,,,,,,,,
,,,,,,,,2023-08-16_08h49.35.953,HF_wild_card,2022.2.4,Win32,60.2300789,5cb59c4737e0b60017b2ec93,64d2fd46c836a06233681665,64dc7f810ab2008390be8947,,,,,,,decisionTrl,resources/DP.BMP,resources/DB.BMP,Door3,-0.298333321,0.009166641,1,0,0,0.4634,optionLeft,70,9925,5,5,0,5,0,1,,,,,,,,,,,,,,,,,,,,,,,,,,,,,,,,,,,,,,,
,,,,,,,,2023-08-16_08h49.35.953,HF_wild_card,2022.2.4,Win32,60.2300789,5cb59c4737e0b60017b2ec93,64d2fd46c836a06233681665,64dc7f810ab2008390be8947,,,,,,,decisionTrl,resources/DP.BMP,resources/DY.BMP,Door3,-0.1925,0.01,1,0,0,0.514,optionLeft,70,9995,5,6,0,6,0,1,,,,,,,,,,,,,,,,,,,,,,,,,,,,,,,,,,,,,,,
,,,,,,,,2023-08-16_08h49.35.953,HF_wild_card,2022.2.4,Win32,60.2300789,5cb59c4737e0b60017b2ec93,64d2fd46c836a06233681665,64dc7f810ab2008390be8947,,,,,,,sngl,resources/DY.BMP,resources/Empty.png,WildCard_NonEx,-0.238333321,0.023333321,1,0,0,0.4471,optionLeft,55,10050,5,7,0,7,0,1,,,,,,,,,,,,,,,,,,,,,,,,,,,,,,,,,,,,,,,
,,,,,,,,2023-08-16_08h49.35.953,HF_wild_card,2022.2.4,Win32,60.2300789,5cb59c4737e0b60017b2ec93,64d2fd46c836a06233681665,64dc7f810ab2008390be8947,,,,,,,decisionTrl,resources/DB.BMP,resources/DP.BMP,Door3,0.266666718,0.000833321,1,0,0,0.5311,optionRight,70,10120,5,8,0,8,0,1,,,,,,,,,,,,,,,,,,,,,,,,,,,,,,,,,,,,,,,
,,,,,,,,2023-08-16_08h49.35.953,HF_wild_card,2022.2.4,Win32,60.2300789,5cb59c4737e0b60017b2ec93,64d2fd46c836a06233681665,64dc7f810ab2008390be8947,,,,,,,decisionTrl,resources/DBN.BMP,resources/DG.BMP,Door1,0.334166718,-0.011666679,1,0,0,0.4812,optionRight,30,10150,5,9,0,9,0,1,,,,,,,,,,,,,,,,,,,,,,,,,,,,,,,,,,,,,,,
,,,,,,,,2023-08-16_08h49.35.953,HF_wild_card,2022.2.4,Win32,60.2300789,5cb59c4737e0b60017b2ec93,64d2fd46c836a06233681665,64dc7f810ab2008390be8947,,,,,,,sngl,resources/Empty.png,resources/DBN.BMP,Door2,0.295,0.003333321,1,0,0,0.3645,optionRight,20,10170,5,10,0,10,0,1,,,,,,,,,,,,,,,,,,,,,,,,,,,,,,,,,,,,,,,
,,,,,,,,2023-08-16_08h49.35.953,HF_wild_card,2022.2.4,Win32,60.2300789,5cb59c4737e0b60017b2ec93,64d2fd46c836a06233681665,64dc7f810ab2008390be8947,,,,,,,decisionTrl,resources/DG.BMP,resources/DBN.BMP,Door1,-0.14,0.004166641,1,0,0,0.3975,optionLeft,30,10200,5,11,0,11,0,1,,,,,,,,,,,,,,,,,,,,,,,,,,,,,,,,,,,,,,,
,,,,,,,,2023-08-16_08h49.35.953,HF_wild_card,2022.2.4,Win32,60.2300789,5cb59c4737e0b60017b2ec93,64d2fd46c836a06233681665,64dc7f810ab2008390be8947,,,,,,,decisionTrl,resources/DB.BMP,resources/DP.BMP,Door4,-0.230833321,0.013333321,1,0,0,0.7644,optionLeft,60,10260,5,12,0,12,0,1,,,,,,,,,,,,,,,,,,,,,,,,,,,,,,,,,,,,,,,
,,,,,,,,2023-08-16_08h49.35.953,HF_wild_card,2022.2.4,Win32,60.2300789,5cb59c4737e0b60017b2ec93,64d2fd46c836a06233681665,64dc7f810ab2008390be8947,,,,,,,ctch,resources/DB.BMP,resources/DG.BMP,Door4,-0.220833321,0.028333321,1,0,0,0.4809,optionLeft,60,10320,5,13,0,13,0,1,,,,,,,,,,,,,,,,,,,,,,,,,,,,,,,,,,,,,,,
,,,,,,,,2023-08-16_08h49.35.953,HF_wild_card,2022.2.4,Win32,60.2300789,5cb59c4737e0b60017b2ec93,64d2fd46c836a06233681665,64dc7f810ab2008390be8947,,,,,,,ctch,resources/DBN.BMP,resources/DP.BMP,Door3,0.2175,-0.005,1,0,0,0.4305,optionRight,70,10390,5,14,0,14,0,1,,,,,,,,,,,,,,,,,,,,,,,,,,,,,,,,,,,,,,,
,,,,,,,,2023-08-16_08h49.35.953,HF_wild_card,2022.2.4,Win32,60.2300789,5cb59c4737e0b60017b2ec93,64d2fd46c836a06233681665,64dc7f810ab2008390be8947,,,,,,,decisionTrl,resources/DG.BMP,resources/DBN.BMP,Door1,-0.219166641,0.023333321,1,0,0,0.4815,optionLeft,30,10420,5,15,0,15,0,1,,,,,,,,,,,,,,,,,,,,,,,,,,,,,,,,,,,,,,,
,,,,,,,,2023-08-16_08h49.35.953,HF_wild_card,2022.2.4,Win32,60.2300789,5cb59c4737e0b60017b2ec93,64d2fd46c836a06233681665,64dc7f810ab2008390be8947,,,,,,,sngl,resources/DB.BMP,resources/Empty.png,Door4,-0.219166641,0.026666641,1,0,0,0.4649,optionLeft,80,10500,5,16,0,16,0,1,,,,,,,,,,,,,,,,,,,,,,,,,,,,,,,,,,,,,,,
,,,,,,,,2023-08-16_08h49.35.953,HF_wild_card,2022.2.4,Win32,60.2300789,5cb59c4737e0b60017b2ec93,64d2fd46c836a06233681665,64dc7f810ab2008390be8947,,,,,,,decisionTrl,resources/DBN.BMP,resources/DG.BMP,Door1,0.455833359,-0.019166679,1,0,0,0.5475,optionRight,30,10530,5,17,0,17,0,1,,,,,,,,,,,,,,,,,,,,,,,,,,,,,,,,,,,,,,,
,,,,,,,,2023-08-16_08h49.35.953,HF_wild_card,2022.2.4,Win32,60.2300789,5cb59c4737e0b60017b2ec93,64d2fd46c836a06233681665,64dc7f810ab2008390be8947,,,,,,,decisionTrl,resources/DY.BMP,resources/DBN.BMP,WildCard_NonEx,-0.215,0.026666641,1,0,0,0.4989,optionLeft,55,10585,5,18,0,18,0,1,,,,,,,,,,,,,,,,,,,,,,,,,,,,,,,,,,,,,,,
,,,,,,,,2023-08-16_08h49.35.953,HF_wild_card,2022.2.4,Win32,60.2300789,5cb59c4737e0b60017b2ec93,64d2fd46c836a06233681665,64dc7f810ab2008390be8947,,,,,,,sngl,resources/DBN.BMP,resources/Empty.png,Door2,-0.1975,0.031666641,1,0,0,0.4642,optionLeft,40,10625,5,19,0,19,0,1,,,,,,,,,,,,,,,,,,,,,,,,,,,,,,,,,,,,,,,
,,,,,,,,2023-08-16_08h49.35.953,HF_wild_card,2022.2.4,Win32,60.2300789,5cb59c4737e0b60017b2ec93,64d2fd46c836a06233681665,64dc7f810ab2008390be8947,,,,,,,decisionTrl,resources/DG.BMP,resources/DBN.BMP,Door1,-0.1525,0.020833321,1,0,0,0.4806,optionLeft,30,10655,5,20,0,20,0,1,,,,,,,,,,,,,,,,,,,,,,,,,,,,,,,,,,,,,,,
,,,,,,,,2023-08-16_08h49.35.953,HF_wild_card,2022.2.4,Win32,60.2300789,5cb59c4737e0b60017b2ec93,64d2fd46c836a06233681665,64dc7f810ab2008390be8947,,,,,,,sngl,resources/Empty.png,resources/DP.BMP,Door3,0.368333359,-0.031666679,1,0,0,0.4492,optionRight,70,10725,5,21,0,21,0,1,,,,,,,,,,,,,,,,,,,,,,,,,,,,,,,,,,,,,,,
,,,,,,,,2023-08-16_08h49.35.953,HF_wild_card,2022.2.4,Win32,60.2300789,5cb59c4737e0b60017b2ec93,64d2fd46c836a06233681665,64dc7f810ab2008390be8947,,,,,,,decisionTrl,resources/DY.BMP,resources/DG.BMP,WildCard_NonEx,-0.1975,0.009166641,1,0,0,0.4813,optionLeft,45,10770,5,22,0,22,0,1,,,,,,,,,,,,,,,,,,,,,,,,,,,,,,,,,,,,,,,
,,,,,,,,2023-08-16_08h49.35.953,HF_wild_card,2022.2.4,Win32,60.2300789,5cb59c4737e0b60017b2ec93,64d2fd46c836a06233681665,64dc7f810ab2008390be8947,,,,,,,ctch,resources/DG.BMP,resources/DB.BMP,Door1,-0.165,0.0075,1,0,0,0.4985,optionLeft,30,10800,5,23,0,23,0,1,,,,,,,,,,,,,,,,,,,,,,,,,,,,,,,,,,,,,,,
,,,,,,,,2023-08-16_08h49.35.953,HF_wild_card,2022.2.4,Win32,60.2300789,5cb59c4737e0b60017b2ec93,64d2fd46c836a06233681665,64dc7f810ab2008390be8947,,,,,,,decisionTrl,resources/DB.BMP,resources/DP.BMP,Door4,-0.259166641,0.0175,1,0,0,0.5471,optionLeft,60,10860,5,24,0,24,0,1,,,,,,,,,,,,,,,,,,,,,,,,,,,,,,,,,,,,,,,
,,,,,,,,2023-08-16_08h49.35.953,HF_wild_card,2022.2.4,Win32,60.2300789,5cb59c4737e0b60017b2ec93,64d2fd46c836a06233681665,64dc7f810ab2008390be8947,,,,,,,ctch,resources/DG.BMP,resources/DB.BMP,Door4,0.184166718,-0.021666679,1,0,0,0.4973,optionRight,60,10920,5,25,0,25,0,1,,,,,,,,,,,,,,,,,,,,,,,,,,,,,,,,,,,,,,,
,,,,,,,,2023-08-16_08h49.35.953,HF_wild_card,2022.2.4,Win32,60.2300789,5cb59c4737e0b60017b2ec93,64d2fd46c836a06233681665,64dc7f810ab2008390be8947,,,,,,,decisionTrl,resources/DP.BMP,resources/DB.BMP,Door4,0.306666718,-0.028333359,1,0,0,0.632,optionRight,80,11000,5,26,0,26,0,1,,,,,,,,,,,,,,,,,,,,,,,,,,,,,,,,,,,,,,,
,,,,,,,,2023-08-16_08h49.35.953,HF_wild_card,2022.2.4,Win32,60.2300789,5cb59c4737e0b60017b2ec93,64d2fd46c836a06233681665,64dc7f810ab2008390be8947,,,,,,,ctch,resources/DB.BMP,resources/DG.BMP,Door4,-0.2125,0.004166641,1,0,0,0.4486,optionLeft,60,11060,5,27,0,27,0,1,,,,,,,,,,,,,,,,,,,,,,,,,,,,,,,,,,,,,,,
,,,,,,,,2023-08-16_08h49.35.953,HF_wild_card,2022.2.4,Win32,60.2300789,5cb59c4737e0b60017b2ec93,64d2fd46c836a06233681665,64dc7f810ab2008390be8947,,,,,,,decisionTrl,resources/DG.BMP,resources/DY.BMP,Door1,-0.295833321,0.019166641,1,0,0,0.4819,optionLeft,30,11090,5,28,0,28,0,1,,,,,,,,,,,,,,,,,,,,,,,,,,,,,,,,,,,,,,,
,,,,,,,,2023-08-16_08h49.35.953,HF_wild_card,2022.2.4,Win32,60.2300789,5cb59c4737e0b60017b2ec93,64d2fd46c836a06233681665,64dc7f810ab2008390be8947,,,,,,,decisionTrl,resources/DBN.BMP,resources/DY.BMP,WildCard_NonEx,0.180833359,-0.008333359,1,0,0,0.5315,optionRight,45,11135,5,29,0,29,0,1,,,,,,,,,,,,,,,,,,,,,,,,,,,,,,,,,,,,,,,
,,,,,,,,2023-08-16_08h49.35.953,HF_wild_card,2022.2.4,Win32,60.2300789,5cb59c4737e0b60017b2ec93,64d2fd46c836a06233681665,64dc7f810ab2008390be8947,,,,,,,decisionTrl,resources/DB.BMP,resources/DY.BMP,WildCard_NonEx,0.176666718,-0.003333359,1,0,0,0.4477,optionRight,45,11180,5,30,0,30,0,1,,,,,,,,,,,,,,,,,,,,,,,,,,,,,,,,,,,,,,,
,,,,,,,,2023-08-16_08h49.35.953,HF_wild_card,2022.2.4,Win32,60.2300789,5cb59c4737e0b60017b2ec93,64d2fd46c836a06233681665,64dc7f810ab2008390be8947,,,,,,,decisionTrl,resources/DB.BMP,resources/DP.BMP,Door4,-0.190833321,0.015833321,1,0,0,0.5314,optionLeft,60,11240,5,31,0,31,0,1,,,,,,,,,,,,,,,,,,,,,,,,,,,,,,,,,,,,,,,
,,,,,,,,2023-08-16_08h49.35.953,HF_wild_card,2022.2.4,Win32,60.2300789,5cb59c4737e0b60017b2ec93,64d2fd46c836a06233681665,64dc7f810ab2008390be8947,,,,,,,sngl,resources/DG.BMP,resources/Empty.png,Door1,-0.2275,0.033333321,1,0,0,0.531,optionLeft,30,11270,5,32,0,32,0,1,,,,,,,,,,,,,,,,,,,,,,,,,,,,,,,,,,,,,,,
,,,,,,,,2023-08-16_08h49.35.953,HF_wild_card,2022.2.4,Win32,60.2300789,5cb59c4737e0b60017b2ec93,64d2fd46c836a06233681665,64dc7f810ab2008390be8947,,,,,,,decisionTrl,resources/DP.BMP,resources/DB.BMP,Door3,-0.213333321,0.03,1,0,0,0.4145,optionLeft,70,11340,5,33,0,33,0,1,,,,,,,,,,,,,,,,,,,,,,,,,,,,,,,,,,,,,,,
,,,,,,,,2023-08-16_08h49.35.953,HF_wild_card,2022.2.4,Win32,60.2300789,5cb59c4737e0b60017b2ec93,64d2fd46c836a06233681665,64dc7f810ab2008390be8947,,,,,,,sngl,resources/DY.BMP,resources/Empty.png,WildCard_NonEx,-0.241666641,0.019166641,1,0,0,0.4479,optionLeft,45,11385,5,34,0,34,0,1,,,,,,,,,,,,,,,,,,,,,,,,,,,,,,,,,,,,,,,
,,,,,,,,2023-08-16_08h49.35.953,HF_wild_card,2022.2.4,Win32,60.2300789,5cb59c4737e0b60017b2ec93,64d2fd46c836a06233681665,64dc7f810ab2008390be8947,,,,,,,sngl,resources/Empty.png,resources/DB.BMP,Door4,0.19,-0.021666679,1,0,0,0.4146,optionRight,60,11445,5,35,0,35,0,1,,,,,,,,,,,,,,,,,,,,,,,,,,,,,,,,,,,,,,,
,,,,,,,,2023-08-16_08h49.35.953,HF_wild_card,2022.2.4,Win32,60.2300789,5cb59c4737e0b60017b2ec93,64d2fd46c836a06233681665,64dc7f810ab2008390be8947,,,,,,,decisionTrl,resources/DG.BMP,resources/DBN.BMP,Door1,-0.215,0.024166641,1,0,0,0.4481,optionLeft,30,11475,5,36,0,36,0,1,,,,,,,,,,,,,,,,,,,,,,,,,,,,,,,,,,,,,,,
,,,,,,,,2023-08-16_08h49.35.953,HF_wild_card,2022.2.4,Win32,60.2300789,5cb59c4737e0b60017b2ec93,64d2fd46c836a06233681665,64dc7f810ab2008390be8947,,,,,,,decisionTrl,resources/DP.BMP,resources/DB.BMP,Door3,-0.2975,0.029166641,1,0,0,0.6811,optionLeft,70,11545,5,37,0,37,0,1,,,,,,,,,,,,,,,,,,,,,,,,,,,,,,,,,,,,,,,
,,,,,,,,2023-08-16_08h49.35.953,HF_wild_card,2022.2.4,Win32,60.2300789,5cb59c4737e0b60017b2ec93,64d2fd46c836a06233681665,64dc7f810ab2008390be8947,,,,,,,ctch,resources/DP.BMP,resources/DBN.BMP,Door2,0.166666718,-0.009166679,1,0,0,0.6978,optionRight,20,11565,5,38,0,38,0,1,,,,,,,,,,,,,,,,,,,,,,,,,,,,,,,,,,,,,,,
,,,,,,,,2023-08-16_08h49.35.953,HF_wild_card,2022.2.4,Win32,60.2300789,5cb59c4737e0b60017b2ec93,64d2fd46c836a06233681665,64dc7f810ab2008390be8947,,,,,,,sngl,resources/DP.BMP,resources/Empty.png,Door3,-0.236666641,0.056666641,1,0,0,0.364,optionLeft,70,11635,5,39,0,39,0,1,,,,,,,,,,,,,,,,,,,,,,,,,,,,,,,,,,,,,,,
,,,,,,,,2023-08-16_08h49.35.953,HF_wild_card,2022.2.4,Win32,60.2300789,5cb59c4737e0b60017b2ec93,64d2fd46c836a06233681665,64dc7f810ab2008390be8947,,,,,,,decisionTrl,resources/DY.BMP,resources/DP.BMP,WildCard_NonEx,-0.195833321,0.048333321,1,0,0,0.415,optionLeft,45,11680,5,40,0,40,0,1,,,,,,,,,,,,,,,,,,,,,,,,,,,,,,,,,,,,,,,
,,,,,,,,2023-08-16_08h49.35.953,HF_wild_card,2022.2.4,Win32,60.2300789,5cb59c4737e0b60017b2ec93,64d2fd46c836a06233681665,64dc7f810ab2008390be8947,,,,,,,decisionTrl,resources/DBN.BMP,resources/DG.BMP,Door1,0.2975,0.0075,1,0,0,0.5477,optionRight,30,11710,5,41,0,41,0,1,,,,,,,,,,,,,,,,,,,,,,,,,,,,,,,,,,,,,,,
,,,,,,,,2023-08-16_08h49.35.953,HF_wild_card,2022.2.4,Win32,60.2300789,5cb59c4737e0b60017b2ec93,64d2fd46c836a06233681665,64dc7f810ab2008390be8947,,,,,,,decisionTrl,resources/DY.BMP,resources/DB.BMP,WildCard_NonEx,-0.240833321,0.038333321,1,0,0,0.4643,optionLeft,55,11765,5,42,0,42,0,1,,,,,,,,,,,,,,,,,,,,,,,,,,,,,,,,,,,,,,,
,,,,,,,,2023-08-16_08h49.35.953,HF_wild_card,2022.2.4,Win32,60.2300789,5cb59c4737e0b60017b2ec93,64d2fd46c836a06233681665,64dc7f810ab2008390be8947,,,,,,,sngl,resources/Empty.png,resources/DY.BMP,WildCard_NonEx,0.183333359,-0.010833359,1,0,0,0.3812,optionRight,55,11820,5,43,0,43,0,1,,,,,,,,,,,,,,,,,,,,,,,,,,,,,,,,,,,,,,,
,,,,,,,,2023-08-16_08h49.35.953,HF_wild_card,2022.2.4,Win32,60.2300789,5cb59c4737e0b60017b2ec93,64d2fd46c836a06233681665,64dc7f810ab2008390be8947,,,,,,,,,,,,,,,,,,,,,,,,,,4,0,4,0,1,,,,,,,,,,,,,,,,,,,,,,,,,,,,,,,,,,
,,,,,,,,2023-08-16_08h49.35.953,HF_wild_card,2022.2.4,Win32,60.2300789,5cb59c4737e0b60017b2ec93,64d2fd46c836a06233681665,64dc7f810ab2008390be8947,,,,,,,decisionTrl,resources/DP.BMP,resources/DB.BMP,Door3,-0.220833321,-0.02,1,0,0,0.6803,optionLeft,70,11890,6,0,0,0,0,1,,,,,,,,,,,,,,,,,,,,,,,,,,,,,,,,,,,,,,,
,,,,,,,,2023-08-16_08h49.35.953,HF_wild_card,2022.2.4,Win32,60.2300789,5cb59c4737e0b60017b2ec93,64d2fd46c836a06233681665,64dc7f810ab2008390be8947,,,,,,,decisionTrl,resources/DP.BMP,resources/DB.BMP,Door3,-0.3775,0.026666641,1,0,0,0.5152,optionLeft,70,11960,6,1,0,1,0,1,,,,,,,,,,,,,,,,,,,,,,,,,,,,,,,,,,,,,,,
,,,,,,,,2023-08-16_08h49.35.953,HF_wild_card,2022.2.4,Win32,60.2300789,5cb59c4737e0b60017b2ec93,64d2fd46c836a06233681665,64dc7f810ab2008390be8947,,,,,,,sngl,resources/DG.BMP,resources/Empty.png,Door1,-0.24,0.04,1,0,0,0.4149,optionLeft,30,11990,6,2,0,2,0,1,,,,,,,,,,,,,,,,,,,,,,,,,,,,,,,,,,,,,,,
,,,,,,,,2023-08-16_08h49.35.953,HF_wild_card,2022.2.4,Win32,60.2300789,5cb59c4737e0b60017b2ec93,64d2fd46c836a06233681665,64dc7f810ab2008390be8947,,,,,,,decisionTrl,resources/DG.BMP,resources/DY.BMP,Door1,-0.308333321,0.026666641,1,0,0,1.4138,optionLeft,30,12020,6,3,0,3,0,1,,,,,,,,,,,,,,,,,,,,,,,,,,,,,,,,,,,,,,,
,,,,,,,,2023-08-16_08h49.35.953,HF_wild_card,2022.2.4,Win32,60.2300789,5cb59c4737e0b60017b2ec93,64d2fd46c836a06233681665,64dc7f810ab2008390be8947,,,,,,,sngl,resources/Empty.png,resources/DBN.BMP,Door2,0.2125,0.0025,1,0,0,0.5147,optionRight,40,12060,6,4,0,4,0,1,,,,,,,,,,,,,,,,,,,,,,,,,,,,,,,,,,,,,,,
,,,,,,,,2023-08-16_08h49.35.953,HF_wild_card,2022.2.4,Win32,60.2300789,5cb59c4737e0b60017b2ec93,64d2fd46c836a06233681665,64dc7f810ab2008390be8947,,,,,,,ctch,resources/DBN.BMP,resources/DP.BMP,Door3,0.2575,-0.015,1,0,0,0.8145,optionRight,70,12130,6,5,0,5,0,1,,,,,,,,,,,,,,,,,,,,,,,,,,,,,,,,,,,,,,,
,,,,,,,,2023-08-16_08h49.35.953,HF_wild_card,2022.2.4,Win32,60.2300789,5cb59c4737e0b60017b2ec93,64d2fd46c836a06233681665,64dc7f810ab2008390be8947,,,,,,,decisionTrl,resources/DY.BMP,resources/DBN.BMP,WildCard_NonEx,-0.17,0.026666641,1,0,0,0.5981,optionLeft,55,12185,6,6,0,6,0,1,,,,,,,,,,,,,,,,,,,,,,,,,,,,,,,,,,,,,,,
,,,,,,,,2023-08-16_08h49.35.953,HF_wild_card,2022.2.4,Win32,60.2300789,5cb59c4737e0b60017b2ec93,64d2fd46c836a06233681665,64dc7f810ab2008390be8947,,,,,,,decisionTrl,resources/DY.BMP,resources/DP.BMP,WildCard_NonEx,-0.319166641,0.028333321,1,0,0,0.4314,optionLeft,45,12230,6,7,0,7,0,1,,,,,,,,,,,,,,,,,,,,,,,,,,,,,,,,,,,,,,,
,,,,,,,,2023-08-16_08h49.35.953,HF_wild_card,2022.2.4,Win32,60.2300789,5cb59c4737e0b60017b2ec93,64d2fd46c836a06233681665,64dc7f810ab2008390be8947,,,,,,,sngl,resources/Empty.png,resources/DG.BMP,Door1,0.113333359,-0.0075,1,0,0,0.4644,optionRight,30,12260,6,8,0,8,0,1,,,,,,,,,,,,,,,,,,,,,,,,,,,,,,,,,,,,,,,
,,,,,,,,2023-08-16_08h49.35.953,HF_wild_card,2022.2.4,Win32,60.2300789,5cb59c4737e0b60017b2ec93,64d2fd46c836a06233681665,64dc7f810ab2008390be8947,,,,,,,decisionTrl,resources/DB.BMP,resources/DP.BMP,Door3,0.206666718,-0.008333359,1,0,0,0.4153,optionRight,70,12330,6,9,0,9,0,1,,,,,,,,,,,,,,,,,,,,,,,,,,,,,,,,,,,,,,,
,,,,,,,,2023-08-16_08h49.35.953,HF_wild_card,2022.2.4,Win32,60.2300789,5cb59c4737e0b60017b2ec93,64d2fd46c836a06233681665,64dc7f810ab2008390be8947,,,,,,,ctch,resources/DG.BMP,resources/DB.BMP,Door4,0.255,-0.006666679,1,0,0,0.6311,optionRight,60,12390,6,10,0,10,0,1,,,,,,,,,,,,,,,,,,,,,,,,,,,,,,,,,,,,,,,
,,,,,,,,2023-08-16_08h49.35.953,HF_wild_card,2022.2.4,Win32,60.2300789,5cb59c4737e0b60017b2ec93,64d2fd46c836a06233681665,64dc7f810ab2008390be8947,,,,,,,sngl,resources/DY.BMP,resources/Empty.png,WildCard_NonEx,-0.156666641,0.015,1,0,0,0.3978,optionLeft,45,12435,6,11,0,11,0,1,,,,,,,,,,,,,,,,,,,,,,,,,,,,,,,,,,,,,,,
,,,,,,,,2023-08-16_08h49.35.953,HF_wild_card,2022.2.4,Win32,60.2300789,5cb59c4737e0b60017b2ec93,64d2fd46c836a06233681665,64dc7f810ab2008390be8947,,,,,,,decisionTrl,resources/DB.BMP,resources/DP.BMP,Door3,0.203333359,0.003333321,1,0,0,0.531,optionRight,70,12505,6,12,0,12,0,1,,,,,,,,,,,,,,,,,,,,,,,,,,,,,,,,,,,,,,,
,,,,,,,,2023-08-16_08h49.35.953,HF_wild_card,2022.2.4,Win32,60.2300789,5cb59c4737e0b60017b2ec93,64d2fd46c836a06233681665,64dc7f810ab2008390be8947,,,,,,,decisionTrl,resources/DY.BMP,resources/DB.BMP,WildCard_NonEx,-0.1525,0.0075,1,0,0,0.4481,optionLeft,55,12560,6,13,0,13,0,1,,,,,,,,,,,,,,,,,,,,,,,,,,,,,,,,,,,,,,,
,,,,,,,,2023-08-16_08h49.35.953,HF_wild_card,2022.2.4,Win32,60.2300789,5cb59c4737e0b60017b2ec93,64d2fd46c836a06233681665,64dc7f810ab2008390be8947,,,,,,,decisionTrl,resources/DP.BMP,resources/DY.BMP,WildCard_NonEx,0.13,-0.011666679,1,0,0,0.4148,optionRight,45,12605,6,14,0,14,0,1,,,,,,,,,,,,,,,,,,,,,,,,,,,,,,,,,,,,,,,
,,,,,,,,2023-08-16_08h49.35.953,HF_wild_card,2022.2.4,Win32,60.2300789,5cb59c4737e0b60017b2ec93,64d2fd46c836a06233681665,64dc7f810ab2008390be8947,,,,,,,sngl,resources/Empty.png,resources/DP.BMP,Door3,0.215833359,-0.020833359,1,0,0,0.4486,optionRight,70,12675,6,15,0,15,0,1,,,,,,,,,,,,,,,,,,,,,,,,,,,,,,,,,,,,,,,
,,,,,,,,2023-08-16_08h49.35.953,HF_wild_card,2022.2.4,Win32,60.2300789,5cb59c4737e0b60017b2ec93,64d2fd46c836a06233681665,64dc7f810ab2008390be8947,,,,,,,sngl,resources/DB.BMP,resources/Empty.png,Door4,-0.206666641,0.009166641,1,0,0,0.3978,optionLeft,60,12735,6,16,0,16,0,1,,,,,,,,,,,,,,,,,,,,,,,,,,,,,,,,,,,,,,,
,,,,,,,,2023-08-16_08h49.35.953,HF_wild_card,2022.2.4,Win32,60.2300789,5cb59c4737e0b60017b2ec93,64d2fd46c836a06233681665,64dc7f810ab2008390be8947,,,,,,,sngl,resources/Empty.png,resources/DY.BMP,WildCard_NonEx,0.173333359,-0.018333359,1,0,0,0.4137,optionRight,55,12790,6,17,0,17,0,1,,,,,,,,,,,,,,,,,,,,,,,,,,,,,,,,,,,,,,,
,,,,,,,,2023-08-16_08h49.35.953,HF_wild_card,2022.2.4,Win32,60.2300789,5cb59c4737e0b60017b2ec93,64d2fd46c836a06233681665,64dc7f810ab2008390be8947,,,,,,,decisionTrl,resources/DG.BMP,resources/DBN.BMP,Door1,-0.251666641,0.028333321,1,0,0,0.7987,optionLeft,30,12820,6,18,0,18,0,1,,,,,,,,,,,,,,,,,,,,,,,,,,,,,,,,,,,,,,,
,,,,,,,,2023-08-16_08h49.35.953,HF_wild_card,2022.2.4,Win32,60.2300789,5cb59c4737e0b60017b2ec93,64d2fd46c836a06233681665,64dc7f810ab2008390be8947,,,,,,,ctch,resources/DG.BMP,resources/DB.BMP,Door4,0.150833359,-0.003333359,1,0,0,0.5645,optionRight,60,12880,6,19,0,19,0,1,,,,,,,,,,,,,,,,,,,,,,,,,,,,,,,,,,,,,,,
,,,,,,,,2023-08-16_08h49.35.953,HF_wild_card,2022.2.4,Win32,60.2300789,5cb59c4737e0b60017b2ec93,64d2fd46c836a06233681665,64dc7f810ab2008390be8947,,,,,,,decisionTrl,resources/DP.BMP,resources/DB.BMP,Door3,-0.165,0.016666641,1,0,0,0.5148,optionLeft,70,12950,6,20,0,20,0,1,,,,,,,,,,,,,,,,,,,,,,,,,,,,,,,,,,,,,,,
,,,,,,,,2023-08-16_08h49.35.953,HF_wild_card,2022.2.4,Win32,60.2300789,5cb59c4737e0b60017b2ec93,64d2fd46c836a06233681665,64dc7f810ab2008390be8947,,,,,,,ctch,resources/DBN.BMP,resources/DP.BMP,Door3,0.165,-0.005833359,1,0,0,0.4476,optionRight,70,13020,6,21,0,21,0,1,,,,,,,,,,,,,,,,,,,,,,,,,,,,,,,,,,,,,,,
,,,,,,,,2023-08-16_08h49.35.953,HF_wild_card,2022.2.4,Win32,60.2300789,5cb59c4737e0b60017b2ec93,64d2fd46c836a06233681665,64dc7f810ab2008390be8947,,,,,,,decisionTrl,resources/DBN.BMP,resources/DG.BMP,Door1,0.280833359,-0.006666679,1,0,0,0.5646,optionRight,30,13050,6,22,0,22,0,1,,,,,,,,,,,,,,,,,,,,,,,,,,,,,,,,,,,,,,,
,,,,,,,,2023-08-16_08h49.35.953,HF_wild_card,2022.2.4,Win32,60.2300789,5cb59c4737e0b60017b2ec93,64d2fd46c836a06233681665,64dc7f810ab2008390be8947,,,,,,,decisionTrl,resources/DBN.BMP,resources/DG.BMP,Door1,0.191666718,-0.008333359,1,0,0,0.449,optionRight,30,13080,6,23,0,23,0,1,,,,,,,,,,,,,,,,,,,,,,,,,,,,,,,,,,,,,,,
,,,,,,,,2023-08-16_08h49.35.953,HF_wild_card,2022.2.4,Win32,60.2300789,5cb59c4737e0b60017b2ec93,64d2fd46c836a06233681665,64dc7f810ab2008390be8947,,,,,,,sngl,resources/Empty.png,resources/DB.BMP,Door4,0.220833359,-0.001666679,1,0,0,0.398,optionRight,80,13160,6,24,0,24,0,1,,,,,,,,,,,,,,,,,,,,,,,,,,,,,,,,,,,,,,,
,,,,,,,,2023-08-16_08h49.35.953,HF_wild_card,2022.2.4,Win32,60.2300789,5cb59c4737e0b60017b2ec93,64d2fd46c836a06233681665,64dc7f810ab2008390be8947,,,,,,,decisionTrl,resources/DG.BMP,resources/DBN.BMP,Door1,-0.1975,0.028333321,1,0,0,0.5479,optionLeft,30,13190,6,25,0,25,0,1,,,,,,,,,,,,,,,,,,,,,,,,,,,,,,,,,,,,,,,
,,,,,,,,2023-08-16_08h49.35.953,HF_wild_card,2022.2.4,Win32,60.2300789,5cb59c4737e0b60017b2ec93,64d2fd46c836a06233681665,64dc7f810ab2008390be8947,,,,,,,sngl,resources/DP.BMP,resources/Empty.png,Door3,-0.138333282,0.015833321,1,0,0,0.4314,optionLeft,70,13260,6,26,0,26,0,1,,,,,,,,,,,,,,,,,,,,,,,,,,,,,,,,,,,,,,,
,,,,,,,,2023-08-16_08h49.35.953,HF_wild_card,2022.2.4,Win32,60.2300789,5cb59c4737e0b60017b2ec93,64d2fd46c836a06233681665,64dc7f810ab2008390be8947,,,,,,,decisionTrl,resources/DBN.BMP,resources/DY.BMP,WildCard_NonEx,0.3425,-0.034166679,1,0,0,0.5481,optionRight,45,13305,6,27,0,27,0,1,,,,,,,,,,,,,,,,,,,,,,,,,,,,,,,,,,,,,,,
,,,,,,,,2023-08-16_08h49.35.953,HF_wild_card,2022.2.4,Win32,60.2300789,5cb59c4737e0b60017b2ec93,64d2fd46c836a06233681665,64dc7f810ab2008390be8947,,,,,,,decisionTrl,resources/DB.BMP,resources/DY.BMP,Door4,-0.269166641,0.030833321,1,0,0,0.4818,optionLeft,80,13385,6,28,0,28,0,1,,,,,,,,,,,,,,,,,,,,,,,,,,,,,,,,,,,,,,,
,,,,,,,,2023-08-16_08h49.35.953,HF_wild_card,2022.2.4,Win32,60.2300789,5cb59c4737e0b60017b2ec93,64d2fd46c836a06233681665,64dc7f810ab2008390be8947,,,,,,,decisionTrl,resources/DBN.BMP,resources/DG.BMP,Door1,0.239166718,-0.010833359,1,0,0,0.5813,optionRight,30,13415,6,29,0,29,0,1,,,,,,,,,,,,,,,,,,,,,,,,,,,,,,,,,,,,,,,
,,,,,,,,2023-08-16_08h49.35.953,HF_wild_card,2022.2.4,Win32,60.2300789,5cb59c4737e0b60017b2ec93,64d2fd46c836a06233681665,64dc7f810ab2008390be8947,,,,,,,decisionTrl,resources/DB.BMP,resources/DP.BMP,Door4,-0.2525,0.023333321,1,0,0,0.6474,optionLeft,80,13495,6,30,0,30,0,1,,,,,,,,,,,,,,,,,,,,,,,,,,,,,,,,,,,,,,,
,,,,,,,,2023-08-16_08h49.35.953,HF_wild_card,2022.2.4,Win32,60.2300789,5cb59c4737e0b60017b2ec93,64d2fd46c836a06233681665,64dc7f810ab2008390be8947,,,,,,,decisionTrl,resources/DG.BMP,resources/DBN.BMP,Door1,-0.154166641,0.018333321,1,0,0,0.4986,optionLeft,30,13525,6,31,0,31,0,1,,,,,,,,,,,,,,,,,,,,,,,,,,,,,,,,,,,,,,,
,,,,,,,,2023-08-16_08h49.35.953,HF_wild_card,2022.2.4,Win32,60.2300789,5cb59c4737e0b60017b2ec93,64d2fd46c836a06233681665,64dc7f810ab2008390be8947,,,,,,,ctch,resources/DP.BMP,resources/DBN.BMP,Door3,-0.164166641,0.013333321,1,0,0,0.4481,optionLeft,70,13595,6,32,0,32,0,1,,,,,,,,,,,,,,,,,,,,,,,,,,,,,,,,,,,,,,,
,,,,,,,,2023-08-16_08h49.35.953,HF_wild_card,2022.2.4,Win32,60.2300789,5cb59c4737e0b60017b2ec93,64d2fd46c836a06233681665,64dc7f810ab2008390be8947,,,,,,,decisionTrl,resources/DG.BMP,resources/DBN.BMP,Door1,-0.144166641,0.0225,1,0,0,0.5816,optionLeft,30,13625,6,33,0,33,0,1,,,,,,,,,,,,,,,,,,,,,,,,,,,,,,,,,,,,,,,
,,,,,,,,2023-08-16_08h49.35.953,HF_wild_card,2022.2.4,Win32,60.2300789,5cb59c4737e0b60017b2ec93,64d2fd46c836a06233681665,64dc7f810ab2008390be8947,,,,,,,decisionTrl,resources/DB.BMP,resources/DP.BMP,Door3,0.219166718,-0.01,1,0,0,0.5983,optionRight,70,13695,6,34,0,34,0,1,,,,,,,,,,,,,,,,,,,,,,,,,,,,,,,,,,,,,,,
,,,,,,,,2023-08-16_08h49.35.953,HF_wild_card,2022.2.4,Win32,60.2300789,5cb59c4737e0b60017b2ec93,64d2fd46c836a06233681665,64dc7f810ab2008390be8947,,,,,,,sngl,resources/DY.BMP,resources/Empty.png,WildCard_NonEx,-0.165833321,0.02,1,0,0,0.415,optionLeft,55,13750,6,35,0,35,0,1,,,,,,,,,,,,,,,,,,,,,,,,,,,,,,,,,,,,,,,
,,,,,,,,2023-08-16_08h49.35.953,HF_wild_card,2022.2.4,Win32,60.2300789,5cb59c4737e0b60017b2ec93,64d2fd46c836a06233681665,64dc7f810ab2008390be8947,,,,,,,ctch,resources/DP.BMP,resources/DBN.BMP,Door3,-0.150833282,0.023333321,1,0,0,0.4307,optionLeft,70,13820,6,36,0,36,0,1,,,,,,,,,,,,,,,,,,,,,,,,,,,,,,,,,,,,,,,
,,,,,,,,2023-08-16_08h49.35.953,HF_wild_card,2022.2.4,Win32,60.2300789,5cb59c4737e0b60017b2ec93,64d2fd46c836a06233681665,64dc7f810ab2008390be8947,,,,,,,ctch,resources/DB.BMP,resources/DG.BMP,Door4,-0.150833282,0.009166641,1,0,0,0.4304,optionLeft,80,13900,6,37,0,37,0,1,,,,,,,,,,,,,,,,,,,,,,,,,,,,,,,,,,,,,,,
,,,,,,,,2023-08-16_08h49.35.953,HF_wild_card,2022.2.4,Win32,60.2300789,5cb59c4737e0b60017b2ec93,64d2fd46c836a06233681665,64dc7f810ab2008390be8947,,,,,,,ctch,resources/DB.BMP,resources/DG.BMP,Door4,-0.208333321,0.0225,1,0,0,0.4317,optionLeft,80,13980,6,38,0,38,0,1,,,,,,,,,,,,,,,,,,,,,,,,,,,,,,,,,,,,,,,
,,,,,,,,2023-08-16_08h49.35.953,HF_wild_card,2022.2.4,Win32,60.2300789,5cb59c4737e0b60017b2ec93,64d2fd46c836a06233681665,64dc7f810ab2008390be8947,,,,,,,decisionTrl,resources/DY.BMP,resources/DG.BMP,WildCard_NonEx,-0.184166641,0.026666641,1,0,0,0.7973,optionLeft,45,14025,6,39,0,39,0,1,,,,,,,,,,,,,,,,,,,,,,,,,,,,,,,,,,,,,,,
,,,,,,,,2023-08-16_08h49.35.953,HF_wild_card,2022.2.4,Win32,60.2300789,5cb59c4737e0b60017b2ec93,64d2fd46c836a06233681665,64dc7f810ab2008390be8947,,,,,,,decisionTrl,resources/DBN.BMP,resources/DG.BMP,Door1,0.403333359,-0.013333359,1,0,0,0.7974,optionRight,30,14055,6,40,0,40,0,1,,,,,,,,,,,,,,,,,,,,,,,,,,,,,,,,,,,,,,,
,,,,,,,,2023-08-16_08h49.35.953,HF_wild_card,2022.2.4,Win32,60.2300789,5cb59c4737e0b60017b2ec93,64d2fd46c836a06233681665,64dc7f810ab2008390be8947,,,,,,,sngl,resources/DBN.BMP,resources/Empty.png,Door2,-0.180833321,0.019166641,1,0,0,0.5317,optionLeft,20,14075,6,41,0,41,0,1,,,,,,,,,,,,,,,,,,,,,,,,,,,,,,,,,,,,,,,
,,,,,,,,2023-08-16_08h49.35.953,HF_wild_card,2022.2.4,Win32,60.2300789,5cb59c4737e0b60017b2ec93,64d2fd46c836a06233681665,64dc7f810ab2008390be8947,,,,,,,decisionTrl,resources/DP.BMP,resources/DB.BMP,Door3,-0.195,0.0225,1,0,0,0.7139,optionLeft,70,14145,6,42,0,42,0,1,,,,,,,,,,,,,,,,,,,,,,,,,,,,,,,,,,,,,,,
,,,,,,,,2023-08-16_08h49.35.953,HF_wild_card,2022.2.4,Win32,60.2300789,5cb59c4737e0b60017b2ec93,64d2fd46c836a06233681665,64dc7f810ab2008390be8947,,,,,,,sngl,resources/Empty.png,resources/DY.BMP,WildCard_NonEx,0.200833359,-0.0375,1,0,0,0.4306,optionRight,45,14190,6,43,0,43,0,1,,,,,,,,,,,,,,,,,,,,,,,,,,,,,,,,,,,,,,,
,,,,,,,,2023-08-16_08h49.35.953,HF_wild_card,2022.2.4,Win32,60.2300789,5cb59c4737e0b60017b2ec93,64d2fd46c836a06233681665,64dc7f810ab2008390be8947,,,,,,,,,,,,,,,,,,,,,,,,,,5,0,5,0,1,,,,,,,,,,,,,,,,,,,,,,,,,,,,,,,,,,
,,,,,,,,2023-08-16_08h49.35.953,HF_wild_card,2022.2.4,Win32,60.2300789,5cb59c4737e0b60017b2ec93,64d2fd46c836a06233681665,64dc7f810ab2008390be8947,,,,,,,ctch,resources/DBN.BMP,resources/DP.BMP,Door3,0.29,-0.029166679,1,0,0,0.7718,optionRight,70,14260,7,0,0,0,0,1,,,,,,,,,,,,,,,,,,,,,,,,,,,,,,,,,,,,,,,
,,,,,,,,2023-08-16_08h49.35.953,HF_wild_card,2022.2.4,Win32,60.2300789,5cb59c4737e0b60017b2ec93,64d2fd46c836a06233681665,64dc7f810ab2008390be8947,,,,,,,ctch,resources/DP.BMP,resources/DBN.BMP,Door3,-0.328333321,-0.008333359,1,0,0,0.5146,optionLeft,70,14330,7,1,0,1,0,1,,,,,,,,,,,,,,,,,,,,,,,,,,,,,,,,,,,,,,,
,,,,,,,,2023-08-16_08h49.35.953,HF_wild_card,2022.2.4,Win32,60.2300789,5cb59c4737e0b60017b2ec93,64d2fd46c836a06233681665,64dc7f810ab2008390be8947,,,,,,,decisionTrl,resources/DG.BMP,resources/DBN.BMP,Door1,-0.201666641,0.000833321,1,0,0,0.5486,optionLeft,30,14360,7,2,0,2,0,1,,,,,,,,,,,,,,,,,,,,,,,,,,,,,,,,,,,,,,,
,,,,,,,,2023-08-16_08h49.35.953,HF_wild_card,2022.2.4,Win32,60.2300789,5cb59c4737e0b60017b2ec93,64d2fd46c836a06233681665,64dc7f810ab2008390be8947,,,,,,,decisionTrl,resources/DB.BMP,resources/DP.BMP,Door4,-0.274166641,0.005,1,0,0,0.8492,optionLeft,60,14420,7,3,0,3,0,1,,,,,,,,,,,,,,,,,,,,,,,,,,,,,,,,,,,,,,,
,,,,,,,,2023-08-16_08h49.35.953,HF_wild_card,2022.2.4,Win32,60.2300789,5cb59c4737e0b60017b2ec93,64d2fd46c836a06233681665,64dc7f810ab2008390be8947,,,,,,,decisionTrl,resources/DG.BMP,resources/DBN.BMP,Door1,-0.186666641,0.0025,1,0,0,0.5156,optionLeft,30,14450,7,4,0,4,0,1,,,,,,,,,,,,,,,,,,,,,,,,,,,,,,,,,,,,,,,
,,,,,,,,2023-08-16_08h49.35.953,HF_wild_card,2022.2.4,Win32,60.2300789,5cb59c4737e0b60017b2ec93,64d2fd46c836a06233681665,64dc7f810ab2008390be8947,,,,,,,decisionTrl,resources/DG.BMP,resources/DBN.BMP,Door1,-0.230833321,0.0025,1,0,0,0.4822,optionLeft,30,14480,7,5,0,5,0,1,,,,,,,,,,,,,,,,,,,,,,,,,,,,,,,,,,,,,,,
,,,,,,,,2023-08-16_08h49.35.953,HF_wild_card,2022.2.4,Win32,60.2300789,5cb59c4737e0b60017b2ec93,64d2fd46c836a06233681665,64dc7f810ab2008390be8947,,,,,,,decisionTrl,resources/DBN.BMP,resources/DG.BMP,Door1,0.219166718,-0.020833359,1,0,0,0.483,optionRight,30,14510,7,6,0,6,0,1,,,,,,,,,,,,,,,,,,,,,,,,,,,,,,,,,,,,,,,
,,,,,,,,2023-08-16_08h49.35.953,HF_wild_card,2022.2.4,Win32,60.2300789,5cb59c4737e0b60017b2ec93,64d2fd46c836a06233681665,64dc7f810ab2008390be8947,,,,,,,decisionTrl,resources/DP.BMP,resources/DB.BMP,Door4,0.33,-0.025833359,1,0,0,1.4824,optionRight,60,14570,7,7,0,7,0,1,,,,,,,,,,,,,,,,,,,,,,,,,,,,,,,,,,,,,,,
,,,,,,,,2023-08-16_08h49.35.953,HF_wild_card,2022.2.4,Win32,60.2300789,5cb59c4737e0b60017b2ec93,64d2fd46c836a06233681665,64dc7f810ab2008390be8947,,,,,,,decisionTrl,resources/DBN.BMP,resources/DG.BMP,Door1,0.3075,-0.019166679,1,0,0,0.4991,optionRight,30,14600,7,8,0,8,0,1,,,,,,,,,,,,,,,,,,,,,,,,,,,,,,,,,,,,,,,
,,,,,,,,2023-08-16_08h49.35.953,HF_wild_card,2022.2.4,Win32,60.2300789,5cb59c4737e0b60017b2ec93,64d2fd46c836a06233681665,64dc7f810ab2008390be8947,,,,,,,ctch,resources/DG.BMP,resources/DB.BMP,Door4,0.214166718,-0.010833359,1,0,0,0.6492,optionRight,60,14660,7,9,0,9,0,1,,,,,,,,,,,,,,,,,,,,,,,,,,,,,,,,,,,,,,,
,,,,,,,,2023-08-16_08h49.35.953,HF_wild_card,2022.2.4,Win32,60.2300789,5cb59c4737e0b60017b2ec93,64d2fd46c836a06233681665,64dc7f810ab2008390be8947,,,,,,,decisionTrl,resources/DG.BMP,resources/DBN.BMP,Door1,-0.183333321,-0.005,1,0,0,0.4652,optionLeft,30,14690,7,10,0,10,0,1,,,,,,,,,,,,,,,,,,,,,,,,,,,,,,,,,,,,,,,
,,,,,,,,2023-08-16_08h49.35.953,HF_wild_card,2022.2.4,Win32,60.2300789,5cb59c4737e0b60017b2ec93,64d2fd46c836a06233681665,64dc7f810ab2008390be8947,,,,,,,ctch,resources/DB.BMP,resources/DG.BMP,Door4,-0.213333321,-0.0025,1,0,0,0.5327,optionLeft,80,14770,7,11,0,11,0,1,,,,,,,,,,,,,,,,,,,,,,,,,,,,,,,,,,,,,,,
,,,,,,,,2023-08-16_08h49.35.953,HF_wild_card,2022.2.4,Win32,60.2300789,5cb59c4737e0b60017b2ec93,64d2fd46c836a06233681665,64dc7f810ab2008390be8947,,,,,,,ctch,resources/DP.BMP,resources/DBN.BMP,Door3,-0.2,-0.001666679,1,0,0,0.4321,optionLeft,70,14840,7,12,0,12,0,1,,,,,,,,,,,,,,,,,,,,,,,,,,,,,,,,,,,,,,,
,,,,,,,,2023-08-16_08h49.35.953,HF_wild_card,2022.2.4,Win32,60.2300789,5cb59c4737e0b60017b2ec93,64d2fd46c836a06233681665,64dc7f810ab2008390be8947,,,,,,,ctch,resources/DBN.BMP,resources/DP.BMP,Door3,0.310833359,-0.015,1,0,0,0.4153,optionRight,70,14910,7,13,0,13,0,1,,,,,,,,,,,,,,,,,,,,,,,,,,,,,,,,,,,,,,,
,,,,,,,,2023-08-16_08h49.35.953,HF_wild_card,2022.2.4,Win32,60.2300789,5cb59c4737e0b60017b2ec93,64d2fd46c836a06233681665,64dc7f810ab2008390be8947,,,,,,,decisionTrl,resources/DBN.BMP,resources/DG.BMP,Door1,0.281666718,-0.01,1,0,0,0.5318,optionRight,30,14940,7,14,0,14,0,1,,,,,,,,,,,,,,,,,,,,,,,,,,,,,,,,,,,,,,,
,,,,,,,,2023-08-16_08h49.35.953,HF_wild_card,2022.2.4,Win32,60.2300789,5cb59c4737e0b60017b2ec93,64d2fd46c836a06233681665,64dc7f810ab2008390be8947,,,,,,,decisionTrl,resources/DP.BMP,resources/DB.BMP,Door3,-0.136666641,-0.009166679,1,0,0,0.4986,optionLeft,70,15010,7,15,0,15,0,1,,,,,,,,,,,,,,,,,,,,,,,,,,,,,,,,,,,,,,,
,,,,,,,,2023-08-16_08h49.35.953,HF_wild_card,2022.2.4,Win32,60.2300789,5cb59c4737e0b60017b2ec93,64d2fd46c836a06233681665,64dc7f810ab2008390be8947,,,,,,,decisionTrl,resources/DP.BMP,resources/DB.BMP,Door4,0.154166718,-0.010833359,1,0,0,0.5825,optionRight,60,15070,7,16,0,16,0,1,,,,,,,,,,,,,,,,,,,,,,,,,,,,,,,,,,,,,,,
,,,,,,,,2023-08-16_08h49.35.953,HF_wild_card,2022.2.4,Win32,60.2300789,5cb59c4737e0b60017b2ec93,64d2fd46c836a06233681665,64dc7f810ab2008390be8947,,,,,,,decisionTrl,resources/DBN.BMP,resources/DG.BMP,Door1,0.2225,0.000833321,1,0,0,0.5493,optionRight,30,15100,7,17,0,17,0,1,,,,,,,,,,,,,,,,,,,,,,,,,,,,,,,,,,,,,,,
,,,,,,,,2023-08-16_08h49.35.953,HF_wild_card,2022.2.4,Win32,60.2300789,5cb59c4737e0b60017b2ec93,64d2fd46c836a06233681665,64dc7f810ab2008390be8947,,,,,,,ctch,resources/DP.BMP,resources/DBN.BMP,Door3,-0.124166641,-0.0025,1,0,0,0.4816,optionLeft,70,15170,7,18,0,18,0,1,,,,,,,,,,,,,,,,,,,,,,,,,,,,,,,,,,,,,,,
,,,,,,,,2023-08-16_08h49.35.953,HF_wild_card,2022.2.4,Win32,60.2300789,5cb59c4737e0b60017b2ec93,64d2fd46c836a06233681665,64dc7f810ab2008390be8947,,,,,,,decisionTrl,resources/DB.BMP,resources/DP.BMP,Door3,0.225833359,-0.000833359,1,0,0,0.5155,optionRight,70,15240,7,19,0,19,0,1,,,,,,,,,,,,,,,,,,,,,,,,,,,,,,,,,,,,,,,
,,,,,,,,2023-08-16_08h49.35.953,HF_wild_card,2022.2.4,Win32,60.2300789,5cb59c4737e0b60017b2ec93,64d2fd46c836a06233681665,64dc7f810ab2008390be8947,,,,,,,decisionTrl,resources/DBN.BMP,resources/DG.BMP,Door1,0.400833359,-0.015,1,0,0,0.5482,optionRight,30,15270,7,20,0,20,0,1,,,,,,,,,,,,,,,,,,,,,,,,,,,,,,,,,,,,,,,
,,,,,,,,2023-08-16_08h49.35.953,HF_wild_card,2022.2.4,Win32,60.2300789,5cb59c4737e0b60017b2ec93,64d2fd46c836a06233681665,64dc7f810ab2008390be8947,,,,,,,decisionTrl,resources/DG.BMP,resources/DBN.BMP,Door1,-0.245833321,-0.010833359,1,0,0,0.4495,optionLeft,30,15300,7,21,0,21,0,1,,,,,,,,,,,,,,,,,,,,,,,,,,,,,,,,,,,,,,,
,,,,,,,,2023-08-16_08h49.35.953,HF_wild_card,2022.2.4,Win32,60.2300789,5cb59c4737e0b60017b2ec93,64d2fd46c836a06233681665,64dc7f810ab2008390be8947,,,,,,,ctch,resources/DB.BMP,resources/DG.BMP,Door4,-0.223333321,-0.009166679,1,0,0,0.4491,optionLeft,60,15360,7,22,0,22,0,1,,,,,,,,,,,,,,,,,,,,,,,,,,,,,,,,,,,,,,,
,,,,,,,,2023-08-16_08h49.35.953,HF_wild_card,2022.2.4,Win32,60.2300789,5cb59c4737e0b60017b2ec93,64d2fd46c836a06233681665,64dc7f810ab2008390be8947,,,,,,,ctch,resources/DG.BMP,resources/DB.BMP,Door4,0.246666718,-0.015833359,1,0,0,0.4652,optionRight,80,15440,7,23,0,23,0,1,,,,,,,,,,,,,,,,,,,,,,,,,,,,,,,,,,,,,,,
,,,,,,,,2023-08-16_08h49.35.953,HF_wild_card,2022.2.4,Win32,60.2300789,5cb59c4737e0b60017b2ec93,64d2fd46c836a06233681665,64dc7f810ab2008390be8947,,,,,,,decisionTrl,resources/DB.BMP,resources/DP.BMP,Door4,-0.143333282,-0.005833359,1,0,0,0.6485,optionLeft,80,15520,7,24,0,24,0,1,,,,,,,,,,,,,,,,,,,,,,,,,,,,,,,,,,,,,,,
,,,,,,,,2023-08-16_08h49.35.953,HF_wild_card,2022.2.4,Win32,60.2300789,5cb59c4737e0b60017b2ec93,64d2fd46c836a06233681665,64dc7f810ab2008390be8947,,,,,,,decisionTrl,resources/DB.BMP,resources/DP.BMP,Door4,-0.194166641,-0.0075,1,0,0,0.5329,optionLeft,80,15600,7,25,0,25,0,1,,,,,,,,,,,,,,,,,,,,,,,,,,,,,,,,,,,,,,,
,,,,,,,,2023-08-16_08h49.35.953,HF_wild_card,2022.2.4,Win32,60.2300789,5cb59c4737e0b60017b2ec93,64d2fd46c836a06233681665,64dc7f810ab2008390be8947,,,,,,,decisionTrl,resources/DP.BMP,resources/DB.BMP,Door4,0.3175,-0.008333359,1,0,0,0.5662,optionRight,60,15660,7,26,0,26,0,1,,,,,,,,,,,,,,,,,,,,,,,,,,,,,,,,,,,,,,,
,,,,,,,,2023-08-16_08h49.35.953,HF_wild_card,2022.2.4,Win32,60.2300789,5cb59c4737e0b60017b2ec93,64d2fd46c836a06233681665,64dc7f810ab2008390be8947,,,,,,,decisionTrl,resources/DB.BMP,resources/DP.BMP,Door4,-0.215833321,-0.003333359,1,0,0,0.5327,optionLeft,80,15740,7,27,0,27,0,1,,,,,,,,,,,,,,,,,,,,,,,,,,,,,,,,,,,,,,,
,,,,,,,,2023-08-16_08h49.35.953,HF_wild_card,2022.2.4,Win32,60.2300789,5cb59c4737e0b60017b2ec93,64d2fd46c836a06233681665,64dc7f810ab2008390be8947,,,,,,,ctch,resources/DBN.BMP,resources/DP.BMP,Door3,0.17,-0.003333359,1,0,0,0.4991,optionRight,70,15810,7,28,0,28,0,1,,,,,,,,,,,,,,,,,,,,,,,,,,,,,,,,,,,,,,,
,,,,,,,,2023-08-16_08h49.35.953,HF_wild_card,2022.2.4,Win32,60.2300789,5cb59c4737e0b60017b2ec93,64d2fd46c836a06233681665,64dc7f810ab2008390be8947,,,,,,,decisionTrl,resources/DG.BMP,resources/DBN.BMP,Door1,-0.169166641,-0.001666679,1,0,0,0.4659,optionLeft,30,15840,7,29,0,29,0,1,,,,,,,,,,,,,,,,,,,,,,,,,,,,,,,,,,,,,,,
,,,,,,,,2023-08-16_08h49.35.953,HF_wild_card,2022.2.4,Win32,60.2300789,5cb59c4737e0b60017b2ec93,64d2fd46c836a06233681665,64dc7f810ab2008390be8947,,,,,,,decisionTrl,resources/DP.BMP,resources/DB.BMP,Door4,0.306666718,-0.005,1,0,0,0.6661,optionRight,60,15900,7,30,0,30,0,1,,,,,,,,,,,,,,,,,,,,,,,,,,,,,,,,,,,,,,,
,,,,,,,,2023-08-16_08h49.35.953,HF_wild_card,2022.2.4,Win32,60.2300789,5cb59c4737e0b60017b2ec93,64d2fd46c836a06233681665,64dc7f810ab2008390be8947,,,,,,,decisionTrl,resources/DBN.BMP,resources/DG.BMP,Door1,0.335,-0.016666679,1,0,0,0.5818,optionRight,30,15930,7,31,0,31,0,1,,,,,,,,,,,,,,,,,,,,,,,,,,,,,,,,,,,,,,,
,,,,,,,,2023-08-16_08h49.35.953,HF_wild_card,2022.2.4,Win32,60.2300789,5cb59c4737e0b60017b2ec93,64d2fd46c836a06233681665,64dc7f810ab2008390be8947,,,,,,,decisionTrl,resources/DB.BMP,resources/DP.BMP,Door4,-0.136666641,-0.006666679,1,0,0,0.6001,optionLeft,60,15990,7,32,0,32,0,1,,,,,,,,,,,,,,,,,,,,,,,,,,,,,,,,,,,,,,,
,,,,,,,,2023-08-16_08h49.35.953,HF_wild_card,2022.2.4,Win32,60.2300789,5cb59c4737e0b60017b2ec93,64d2fd46c836a06233681665,64dc7f810ab2008390be8947,,,,,,,ctch,resources/DG.BMP,resources/DB.BMP,Door4,0.169166718,-0.009166679,1,0,0,0.4816,optionRight,80,16070,7,33,0,33,0,1,,,,,,,,,,,,,,,,,,,,,,,,,,,,,,,,,,,,,,,
,,,,,,,,2023-08-16_08h49.35.953,HF_wild_card,2022.2.4,Win32,60.2300789,5cb59c4737e0b60017b2ec93,64d2fd46c836a06233681665,64dc7f810ab2008390be8947,,,,,,,ctch,resources/DB.BMP,resources/DG.BMP,Door4,-0.191666641,-0.01,1,0,0,0.4823,optionLeft,80,16150,7,34,0,34,0,1,,,,,,,,,,,,,,,,,,,,,,,,,,,,,,,,,,,,,,,
,,,,,,,,2023-08-16_08h49.35.953,HF_wild_card,2022.2.4,Win32,60.2300789,5cb59c4737e0b60017b2ec93,64d2fd46c836a06233681665,64dc7f810ab2008390be8947,,,,,,,decisionTrl,resources/DP.BMP,resources/DB.BMP,Door4,0.164166718,-0.018333359,1,0,0,0.466,optionRight,80,16230,7,35,0,35,0,1,,,,,,,,,,,,,,,,,,,,,,,,,,,,,,,,,,,,,,,
,,,,,,,,2023-08-16_08h49.35.953,HF_wild_card,2022.2.4,Win32,60.2300789,5cb59c4737e0b60017b2ec93,64d2fd46c836a06233681665,64dc7f810ab2008390be8947,,,,,,,,,,,,,,,,,,,,,,,,,,6,0,6,0,1,,,,,,,,,,,,,,,,,,,,,,,,,,,,,,,,,,
,,,,,,,,2023-08-16_08h49.35.953,HF_wild_card,2022.2.4,Win32,60.2300789,5cb59c4737e0b60017b2ec93,64d2fd46c836a06233681665,64dc7f810ab2008390be8947,,,,,,,,,,,,,,,,,,,,,,,,,,,,,,,4,,,,,,,,,,,,,,,,,,,,,,,,,,,,,,,,,
,,,,,,,,2023-08-16_08h49.35.953,HF_wild_card,2022.2.4,Win32,60.2300789,5cb59c4737e0b60017b2ec93,64d2fd46c836a06233681665,64dc7f810ab2008390be8947,,,,,,,,,,,,,,,,,,,,,,,,,,,,,,,,,,,,,,,,,,,,,,,,,,,,,,,,,,,,,,,,
,,,,,,,,2023-08-16_08h49.35.953,HF_wild_card,2022.2.4,Win32,60.2300789,5cb59c4737e0b60017b2ec93,64d2fd46c836a06233681665,64dc7f810ab2008390be8947,,,,,,,,,,,,,,,,,,,,,,,,,,,,,,,,70,Door3,resources/DP.BMP,0,0,0,0,1,,,,,,,,,,,,,,,,,,,,,,,,,
,,,,,,,,2023-08-16_08h49.35.953,HF_wild_card,2022.2.4,Win32,60.2300789,5cb59c4737e0b60017b2ec93,64d2fd46c836a06233681665,64dc7f810ab2008390be8947,,,,,,,,,,,,,,,,,,,,,,,,,,,,,,,,30,Door1,resources/DG.BMP,1,0,1,0,1,,,,,,,,,,,,,,,,,,,,,,,,,
,,,,,,,,2023-08-16_08h49.35.953,HF_wild_card,2022.2.4,Win32,60.2300789,5cb59c4737e0b60017b2ec93,64d2fd46c836a06233681665,64dc7f810ab2008390be8947,,,,,,,,,,,,,,,,,,,,,,,,,,,,,,,,55,WC_nonExtreme,resources/DY.BMP,2,0,2,0,1,,,,,,,,,,,,,,,,,,,,,,,,,
,,,,,,,,2023-08-16_08h49.35.953,HF_wild_card,2022.2.4,Win32,60.2300789,5cb59c4737e0b60017b2ec93,64d2fd46c836a06233681665,64dc7f810ab2008390be8947,,,,,,,,,,,,,,,,,,,,,,,,,,,,,,,,95,WC_extreme,resources/DR.BMP,3,0,3,0,1,,,,,,,,,,,,,,,,,,,,,,,,,
,,,,,,,,2023-08-16_08h49.35.953,HF_wild_card,2022.2.4,Win32,60.2300789,5cb59c4737e0b60017b2ec93,64d2fd46c836a06233681665,64dc7f810ab2008390be8947,,,,,,,,,,,,,,,,,,,,,,,,,,,,,,,,20,Door2,resources/DBN.BMP,4,0,4,0,1,,,,,,,,,,,,,,,,,,,,,,,,,
,,,,,,,,2023-08-16_08h49.35.953,HF_wild_card,2022.2.4,Win32,60.2300789,5cb59c4737e0b60017b2ec93,64d2fd46c836a06233681665,64dc7f810ab2008390be8947,,,,,,,,,,,,,,,,,,,,,,,,,,,,,,,,80,Door4,resources/DB.BMP,5,0,5,0,1,,,,,,,,,,,,,,,,,,,,,,,,,
,,,,,,,,2023-08-16_08h49.35.953,HF_wild_card,2022.2.4,Win32,60.2300789,5cb59c4737e0b60017b2ec93,64d2fd46c836a06233681665,64dc7f810ab2008390be8947,,,,,,,,,,,,,,,,,,,,,,,,,,,,,,,,,,,,,,,,,,,,,,,,,,,,,,,,,,,,,,,,
,,,,,,,,2023-08-16_08h49.35.953,HF_wild_card,2022.2.4,Win32,60.2300789,5cb59c4737e0b60017b2ec93,64d2fd46c836a06233681665,64dc7f810ab2008390be8947,,,,,,,,,,,,,,,,,,,,,,,,,,,,,,,,,,,,,,,,0,0,0,0,1,,,,,,,,,,,,,,,,,,,,
,,,,,,,,2023-08-16_08h49.35.953,HF_wild_card,2022.2.4,Win32,60.2300789,5cb59c4737e0b60017b2ec93,64d2fd46c836a06233681665,64dc7f810ab2008390be8947,,,,,,,,,,,,,,,,,,,,,,,,,,,,,,,,,,,,,,,,1,0,1,0,1,,,,,,,,,,,,,,,,,,,,
,,,,,,,,2023-08-16_08h49.35.953,HF_wild_card,2022.2.4,Win32,60.2300789,5cb59c4737e0b60017b2ec93,64d2fd46c836a06233681665,64dc7f810ab2008390be8947,,,,,,,,,,,,,,,,,,,,,,,,,,,,,,,,,,,,,,,,,,,,,-0.2575,-0.385833359,1,0,0,yes,10%,90%,WC_extreme,resources/DR.BMP,0,0,0,0,1,,,,,
,,,,,,,,2023-08-16_08h49.35.953,HF_wild_card,2022.2.4,Win32,60.2300789,5cb59c4737e0b60017b2ec93,64d2fd46c836a06233681665,64dc7f810ab2008390be8947,,,,,,,,,,,,,,,,,,,,,,,,,,,,,,,,,,,,,,,,,,,,,,,,,,,,,,,,,,,,0,0,0,0,1
,,,,,,,,2023-08-16_08h49.35.953,HF_wild_card,2022.2.4,Win32,60.2300789,5cb59c4737e0b60017b2ec93,64d2fd46c836a06233681665,64dc7f810ab2008390be8947,,,,,,,,,,,,,,,,,,,,,,,,,,,,,,,,,,,,,,,,0,0,0,0,1,,,,,,,,,,,,,,,,,,,,
,,,,,,,,2023-08-16_08h49.35.953,HF_wild_card,2022.2.4,Win32,60.2300789,5cb59c4737e0b60017b2ec93,64d2fd46c836a06233681665,64dc7f810ab2008390be8947,,,,,,,,,,,,,,,,,,,,,,,,,,,,,,,,,,,,,,,,1,0,1,0,1,,,,,,,,,,,,,,,,,,,,
