Condition,Low fixed image (Door1),Low risky image (Door2),High fixed image (Door3),High risky image (Door4),NonExtreme Wild Card 1,NonExtreme Wild Card 2,,date,expName,psychopyVersion,OS,frameRate,PROLIFIC_PID,STUDY_ID,SESSION_ID,mouse_2.x,mouse_2.y,mouse_2.leftButton,mouse_2.midButton,mouse_2.rightButton,mouse_2.clicked_name,Trial Type,Left Option Image,Right Option Image,Chosen Door,mouse.x,mouse.y,mouse.leftButton,mouse.midButton,mouse.rightButton,mouse.time,mouse.clicked_name,Feedback,Cumulative Reward,Block,trial.thisRepN,trial.thisTrialN,trial.thisN,trial.thisIndex,trial.ran,blocks.thisRepN,blocks.thisTrialN,blocks.thisN,blocks.thisIndex,blocks.ran,Money conversion,First Outcome Reported,Shown Door (First Outcome),Displayed Image (First Outcome),outcomes.thisRepN,outcomes.thisTrialN,outcomes.thisN,outcomes.thisIndex,outcomes.ran,judgments.thisRepN,judgments.thisTrialN,judgments.thisN,judgments.thisIndex,judgments.ran,freqMouse.x,freqMouse.y,freqMouse.leftButton,freqMouse.midButton,freqMouse.rightButton,freqMouse.clicked_name,trials.thisRepN,trials.thisTrialN,trials.thisN,trials.thisIndex,trials.ran,FQJ for first outcome,FQJ for second outcome,Shown Door,Displayed Image,judgBlock.thisRepN,judgBlock.thisTrialN,judgBlock.thisN,judgBlock.thisIndex,judgBlock.ran
2,resources/DY.BMP,resources/DBN.BMP,resources/DB.BMP,resources/DG.BMP,resources/DP.BMP,resources/DR.BMP,,2023-08-16_08h49.55.515,HF_wild_card,2022.2.4,Win32,64.17661404,60a3e2171e2b64e740408760,64d2fd46c836a06233681665,64dc7f0e55301b020c696235,,,,,,,,,,,,,,,,,,,,,,,,,,,,,,,,,,,,,,,,,,,,,,,,,,,,,,,,,,,,,,,,
,,,,,,,,2023-08-16_08h49.55.515,HF_wild_card,2022.2.4,Win32,64.17661404,60a3e2171e2b64e740408760,64d2fd46c836a06233681665,64dc7f0e55301b020c696235,0.002916718,-0.42592598,1,0,0,agree,,,,,,,,,,,,,,,,,,,,,,,,,,,,,,,,,,,,,,,,,,,,,,,,,,,,,,,,,,
,,,,,,,,2023-08-16_08h49.55.515,HF_wild_card,2022.2.4,Win32,64.17661404,60a3e2171e2b64e740408760,64d2fd46c836a06233681665,64dc7f0e55301b020c696235,,,,,,,,,,,,,,,,,,,,,,,,,,,,,,,,,,,,,,,,,,,,,,,,,,,,,,,,,,,,,,,,
,,,,,,,,2023-08-16_08h49.55.515,HF_wild_card,2022.2.4,Win32,64.17661404,60a3e2171e2b64e740408760,64d2fd46c836a06233681665,64dc7f0e55301b020c696235,,,,,,,ctch,resources/DG.BMP,resources/DY.BMP,Door1,0.238101883,-0.160185242,1,0,0,2.6668,optionRight,30,30,1,0,0,0,0,1,,,,,,,,,,,,,,,,,,,,,,,,,,,,,,,,,,,,,,,
,,,,,,,,2023-08-16_08h49.55.515,HF_wild_card,2022.2.4,Win32,64.17661404,60a3e2171e2b64e740408760,64d2fd46c836a06233681665,64dc7f0e55301b020c696235,,,,,,,ctch,resources/DBN.BMP,resources/DB.BMP,Door2,-0.224861069,-0.037037048,1,0,0,1.4127,optionLeft,40,70,1,1,0,1,0,1,,,,,,,,,,,,,,,,,,,,,,,,,,,,,,,,,,,,,,,
,,,,,,,,2023-08-16_08h49.55.515,HF_wild_card,2022.2.4,Win32,64.17661404,60a3e2171e2b64e740408760,64d2fd46c836a06233681665,64dc7f0e55301b020c696235,,,,,,,decisionTrl,resources/DY.BMP,resources/DBN.BMP,Door2,0.284398193,0.009259224,1,0,0,2.4116,optionRight,40,110,1,2,0,2,0,1,,,,,,,,,,,,,,,,,,,,,,,,,,,,,,,,,,,,,,,
,,,,,,,,2023-08-16_08h49.55.515,HF_wild_card,2022.2.4,Win32,64.17661404,60a3e2171e2b64e740408760,64d2fd46c836a06233681665,64dc7f0e55301b020c696235,,,,,,,decisionTrl,resources/DR.BMP,resources/DB.BMP,WildCard_NonEx,-0.396157379,0.034259224,1,0,0,3.5787,optionLeft,45,155,1,3,0,3,0,1,,,,,,,,,,,,,,,,,,,,,,,,,,,,,,,,,,,,,,,
,,,,,,,,2023-08-16_08h49.55.515,HF_wild_card,2022.2.4,Win32,64.17661404,60a3e2171e2b64e740408760,64d2fd46c836a06233681665,64dc7f0e55301b020c696235,,,,,,,decisionTrl,resources/DB.BMP,resources/DR.BMP,Door3,-0.348009224,-0.072222252,1,0,0,1.9625,optionLeft,70,225,1,4,0,4,0,1,,,,,,,,,,,,,,,,,,,,,,,,,,,,,,,,,,,,,,,
,,,,,,,,2023-08-16_08h49.55.515,HF_wild_card,2022.2.4,Win32,64.17661404,60a3e2171e2b64e740408760,64d2fd46c836a06233681665,64dc7f0e55301b020c696235,,,,,,,decisionTrl,resources/DB.BMP,resources/DG.BMP,Door3,-0.360972252,-0.06296299,1,0,0,2.5291,optionLeft,70,295,1,5,0,5,0,1,,,,,,,,,,,,,,,,,,,,,,,,,,,,,,,,,,,,,,,
,,,,,,,,2023-08-16_08h49.55.515,HF_wild_card,2022.2.4,Win32,64.17661404,60a3e2171e2b64e740408760,64d2fd46c836a06233681665,64dc7f0e55301b020c696235,,,,,,,sngl,resources/DG.BMP,resources/Empty.png,Door4,-0.295231438,-0.032407417,1,0,0,1.2285,optionLeft,80,375,1,6,0,6,0,1,,,,,,,,,,,,,,,,,,,,,,,,,,,,,,,,,,,,,,,
,,,,,,,,2023-08-16_08h49.55.515,HF_wild_card,2022.2.4,Win32,64.17661404,60a3e2171e2b64e740408760,64d2fd46c836a06233681665,64dc7f0e55301b020c696235,,,,,,,decisionTrl,resources/DBN.BMP,resources/DR.BMP,WildCard_NonEx,0.414953766,0.045370331,1,0,0,1.6982,optionRight,45,420,1,7,0,7,0,1,,,,,,,,,,,,,,,,,,,,,,,,,,,,,,,,,,,,,,,
,,,,,,,,2023-08-16_08h49.55.515,HF_wild_card,2022.2.4,Win32,64.17661404,60a3e2171e2b64e740408760,64d2fd46c836a06233681665,64dc7f0e55301b020c696235,,,,,,,decisionTrl,resources/DR.BMP,resources/DBN.BMP,WildCard_NonEx,-0.391527748,-0.019444466,1,0,0,1.2129,optionLeft,45,465,1,8,0,8,0,1,,,,,,,,,,,,,,,,,,,,,,,,,,,,,,,,,,,,,,,
,,,,,,,,2023-08-16_08h49.55.515,HF_wild_card,2022.2.4,Win32,64.17661404,60a3e2171e2b64e740408760,64d2fd46c836a06233681665,64dc7f0e55301b020c696235,,,,,,,decisionTrl,resources/DG.BMP,resources/DB.BMP,Door3,0.314027863,0.029629593,1,0,0,1.9137,optionRight,70,535,1,9,0,9,0,1,,,,,,,,,,,,,,,,,,,,,,,,,,,,,,,,,,,,,,,
,,,,,,,,2023-08-16_08h49.55.515,HF_wild_card,2022.2.4,Win32,64.17661404,60a3e2171e2b64e740408760,64d2fd46c836a06233681665,64dc7f0e55301b020c696235,,,,,,,sngl,resources/DR.BMP,resources/Empty.png,WildCard_NonEx,-0.368379593,-0.050000038,1,0,0,1.0959,optionLeft,55,590,1,10,0,10,0,1,,,,,,,,,,,,,,,,,,,,,,,,,,,,,,,,,,,,,,,
,,,,,,,,2023-08-16_08h49.55.515,HF_wild_card,2022.2.4,Win32,64.17661404,60a3e2171e2b64e740408760,64d2fd46c836a06233681665,64dc7f0e55301b020c696235,,,,,,,sngl,resources/Empty.png,resources/DG.BMP,Door4,0.446435242,0.036111107,1,0,0,0.8966,optionRight,60,650,1,11,0,11,0,1,,,,,,,,,,,,,,,,,,,,,,,,,,,,,,,,,,,,,,,
,,,,,,,,2023-08-16_08h49.55.515,HF_wild_card,2022.2.4,Win32,64.17661404,60a3e2171e2b64e740408760,64d2fd46c836a06233681665,64dc7f0e55301b020c696235,,,,,,,decisionTrl,resources/DY.BMP,resources/DR.BMP,Door1,-0.383194427,-0.030555573,1,0,0,1.8632,optionLeft,30,680,1,12,0,12,0,1,,,,,,,,,,,,,,,,,,,,,,,,,,,,,,,,,,,,,,,
,,,,,,,,2023-08-16_08h49.55.515,HF_wild_card,2022.2.4,Win32,64.17661404,60a3e2171e2b64e740408760,64d2fd46c836a06233681665,64dc7f0e55301b020c696235,,,,,,,decisionTrl,resources/DR.BMP,resources/DG.BMP,WildCard_NonEx,-0.447083359,-0.04629631,1,0,0,1.4125,optionLeft,55,735,1,13,0,13,0,1,,,,,,,,,,,,,,,,,,,,,,,,,,,,,,,,,,,,,,,
,,,,,,,,2023-08-16_08h49.55.515,HF_wild_card,2022.2.4,Win32,64.17661404,60a3e2171e2b64e740408760,64d2fd46c836a06233681665,64dc7f0e55301b020c696235,,,,,,,ctch,resources/DB.BMP,resources/DBN.BMP,Door3,-0.402638855,0.019444427,1,0,0,2.0296,optionLeft,70,805,1,14,0,14,0,1,,,,,,,,,,,,,,,,,,,,,,,,,,,,,,,,,,,,,,,
,,,,,,,,2023-08-16_08h49.55.515,HF_wild_card,2022.2.4,Win32,64.17661404,60a3e2171e2b64e740408760,64d2fd46c836a06233681665,64dc7f0e55301b020c696235,,,,,,,sngl,resources/DB.BMP,resources/Empty.png,Door3,-0.34245369,-0.070370407,1,0,0,1.1968,optionLeft,70,875,1,15,0,15,0,1,,,,,,,,,,,,,,,,,,,,,,,,,,,,,,,,,,,,,,,
,,,,,,,,2023-08-16_08h49.55.515,HF_wild_card,2022.2.4,Win32,64.17661404,60a3e2171e2b64e740408760,64d2fd46c836a06233681665,64dc7f0e55301b020c696235,,,,,,,sngl,resources/DY.BMP,resources/Empty.png,Door1,-0.319305534,-0.117592621,1,0,0,0.98,optionLeft,30,905,1,16,0,16,0,1,,,,,,,,,,,,,,,,,,,,,,,,,,,,,,,,,,,,,,,
,,,,,,,,2023-08-16_08h49.55.515,HF_wild_card,2022.2.4,Win32,64.17661404,60a3e2171e2b64e740408760,64d2fd46c836a06233681665,64dc7f0e55301b020c696235,,,,,,,decisionTrl,resources/DB.BMP,resources/DG.BMP,Door3,-0.319305534,-0.018518486,1,0,0,2.2463,optionLeft,70,975,1,17,0,17,0,1,,,,,,,,,,,,,,,,,,,,,,,,,,,,,,,,,,,,,,,
,,,,,,,,2023-08-16_08h49.55.515,HF_wild_card,2022.2.4,Win32,64.17661404,60a3e2171e2b64e740408760,64d2fd46c836a06233681665,64dc7f0e55301b020c696235,,,,,,,decisionTrl,resources/DBN.BMP,resources/DY.BMP,Door1,0.423287048,0.090740738,1,0,0,2.7121,optionRight,30,1005,1,18,0,18,0,1,,,,,,,,,,,,,,,,,,,,,,,,,,,,,,,,,,,,,,,
,,,,,,,,2023-08-16_08h49.55.515,HF_wild_card,2022.2.4,Win32,64.17661404,60a3e2171e2b64e740408760,64d2fd46c836a06233681665,64dc7f0e55301b020c696235,,,,,,,decisionTrl,resources/DB.BMP,resources/DG.BMP,Door4,0.523287048,0.082407341,1,0,0,2.0129,optionRight,80,1085,1,19,0,19,0,1,,,,,,,,,,,,,,,,,,,,,,,,,,,,,,,,,,,,,,,
,,,,,,,,2023-08-16_08h49.55.515,HF_wild_card,2022.2.4,Win32,64.17661404,60a3e2171e2b64e740408760,64d2fd46c836a06233681665,64dc7f0e55301b020c696235,,,,,,,ctch,resources/DB.BMP,resources/DBN.BMP,Door3,-0.32671299,-0.023148117,1,0,0,1.08,optionLeft,70,1155,1,20,0,20,0,1,,,,,,,,,,,,,,,,,,,,,,,,,,,,,,,,,,,,,,,
,,,,,,,,2023-08-16_08h49.55.515,HF_wild_card,2022.2.4,Win32,64.17661404,60a3e2171e2b64e740408760,64d2fd46c836a06233681665,64dc7f0e55301b020c696235,,,,,,,decisionTrl,resources/DY.BMP,resources/DBN.BMP,Door1,-0.410972214,0.036111107,1,0,0,2.0792,optionLeft,30,1185,1,21,0,21,0,1,,,,,,,,,,,,,,,,,,,,,,,,,,,,,,,,,,,,,,,
,,,,,,,,2023-08-16_08h49.55.515,HF_wild_card,2022.2.4,Win32,64.17661404,60a3e2171e2b64e740408760,64d2fd46c836a06233681665,64dc7f0e55301b020c696235,,,,,,,sngl,resources/Empty.png,resources/DR.BMP,WildCard_NonEx,0.330694504,-0.031481514,1,0,0,0.8807,optionRight,55,1240,1,22,0,22,0,1,,,,,,,,,,,,,,,,,,,,,,,,,,,,,,,,,,,,,,,
,,,,,,,,2023-08-16_08h49.55.515,HF_wild_card,2022.2.4,Win32,64.17661404,60a3e2171e2b64e740408760,64d2fd46c836a06233681665,64dc7f0e55301b020c696235,,,,,,,decisionTrl,resources/DG.BMP,resources/DB.BMP,Door4,-0.386898117,0.004629593,1,0,0,2.9459,optionLeft,60,1300,1,23,0,23,0,1,,,,,,,,,,,,,,,,,,,,,,,,,,,,,,,,,,,,,,,
,,,,,,,,2023-08-16_08h49.55.515,HF_wild_card,2022.2.4,Win32,64.17661404,60a3e2171e2b64e740408760,64d2fd46c836a06233681665,64dc7f0e55301b020c696235,,,,,,,ctch,resources/DG.BMP,resources/DY.BMP,Door4,-0.285972176,-3.8147E-08,1,0,0,1.7294,optionLeft,60,1360,1,24,0,24,0,1,,,,,,,,,,,,,,,,,,,,,,,,,,,,,,,,,,,,,,,
,,,,,,,,2023-08-16_08h49.55.515,HF_wild_card,2022.2.4,Win32,64.17661404,60a3e2171e2b64e740408760,64d2fd46c836a06233681665,64dc7f0e55301b020c696235,,,,,,,decisionTrl,resources/DG.BMP,resources/DB.BMP,Door3,0.351064911,0.030555534,1,0,0,1.3466,optionRight,70,1430,1,25,0,25,0,1,,,,,,,,,,,,,,,,,,,,,,,,,,,,,,,,,,,,,,,
,,,,,,,,2023-08-16_08h49.55.515,HF_wild_card,2022.2.4,Win32,64.17661404,60a3e2171e2b64e740408760,64d2fd46c836a06233681665,64dc7f0e55301b020c696235,,,,,,,sngl,resources/Empty.png,resources/DBN.BMP,Door2,0.293657455,0.04907402,1,0,0,1.5128,optionRight,20,1450,1,26,0,26,0,1,,,,,,,,,,,,,,,,,,,,,,,,,,,,,,,,,,,,,,,
,,,,,,,,2023-08-16_08h49.55.515,HF_wild_card,2022.2.4,Win32,64.17661404,60a3e2171e2b64e740408760,64d2fd46c836a06233681665,64dc7f0e55301b020c696235,,,,,,,ctch,resources/DBN.BMP,resources/DB.BMP,Door2,-0.380416641,0.049999962,1,0,0,1.7808,optionLeft,20,1470,1,27,0,27,0,1,,,,,,,,,,,,,,,,,,,,,,,,,,,,,,,,,,,,,,,
,,,,,,,,2023-08-16_08h49.55.515,HF_wild_card,2022.2.4,Win32,64.17661404,60a3e2171e2b64e740408760,64d2fd46c836a06233681665,64dc7f0e55301b020c696235,,,,,,,decisionTrl,resources/DG.BMP,resources/DB.BMP,Door4,-0.27578701,0.004629593,1,0,0,0.8968,optionLeft,60,1530,1,28,0,28,0,1,,,,,,,,,,,,,,,,,,,,,,,,,,,,,,,,,,,,,,,
,,,,,,,,2023-08-16_08h49.55.515,HF_wild_card,2022.2.4,Win32,64.17661404,60a3e2171e2b64e740408760,64d2fd46c836a06233681665,64dc7f0e55301b020c696235,,,,,,,ctch,resources/DY.BMP,resources/DG.BMP,Door4,0.339027863,0.033333321,1,0,0,1.7965,optionRight,80,1610,1,29,0,29,0,1,,,,,,,,,,,,,,,,,,,,,,,,,,,,,,,,,,,,,,,
,,,,,,,,2023-08-16_08h49.55.515,HF_wild_card,2022.2.4,Win32,64.17661404,60a3e2171e2b64e740408760,64d2fd46c836a06233681665,64dc7f0e55301b020c696235,,,,,,,decisionTrl,resources/DR.BMP,resources/DY.BMP,WildCard_NonEx,-0.3044907,-0.004629669,1,0,0,2.0959,optionLeft,55,1665,1,30,0,30,0,1,,,,,,,,,,,,,,,,,,,,,,,,,,,,,,,,,,,,,,,
,,,,,,,,2023-08-16_08h49.55.515,HF_wild_card,2022.2.4,Win32,64.17661404,60a3e2171e2b64e740408760,64d2fd46c836a06233681665,64dc7f0e55301b020c696235,,,,,,,ctch,resources/DY.BMP,resources/DG.BMP,Door4,0.264953766,0.01203701,1,0,0,1.7477,optionRight,80,1745,1,31,0,31,0,1,,,,,,,,,,,,,,,,,,,,,,,,,,,,,,,,,,,,,,,
,,,,,,,,2023-08-16_08h49.55.515,HF_wild_card,2022.2.4,Win32,64.17661404,60a3e2171e2b64e740408760,64d2fd46c836a06233681665,64dc7f0e55301b020c696235,,,,,,,sngl,resources/Empty.png,resources/DY.BMP,Door1,0.389027863,0.057407341,1,0,0,0.9133,optionRight,30,1775,1,32,0,32,0,1,,,,,,,,,,,,,,,,,,,,,,,,,,,,,,,,,,,,,,,
,,,,,,,,2023-08-16_08h49.55.515,HF_wild_card,2022.2.4,Win32,64.17661404,60a3e2171e2b64e740408760,64d2fd46c836a06233681665,64dc7f0e55301b020c696235,,,,,,,sngl,resources/Empty.png,resources/DR.BMP,WildCard_NonEx,0.296435242,-0.01296299,1,0,0,0.8456,optionRight,45,1820,1,33,0,33,0,1,,,,,,,,,,,,,,,,,,,,,,,,,,,,,,,,,,,,,,,
,,,,,,,,2023-08-16_08h49.55.515,HF_wild_card,2022.2.4,Win32,64.17661404,60a3e2171e2b64e740408760,64d2fd46c836a06233681665,64dc7f0e55301b020c696235,,,,,,,sngl,resources/DR.BMP,resources/Empty.png,WildCard_NonEx,-0.296157379,-0.048148193,1,0,0,0.6787,optionLeft,45,1865,1,34,0,34,0,1,,,,,,,,,,,,,,,,,,,,,,,,,,,,,,,,,,,,,,,
,,,,,,,,2023-08-16_08h49.55.515,HF_wild_card,2022.2.4,Win32,64.17661404,60a3e2171e2b64e740408760,64d2fd46c836a06233681665,64dc7f0e55301b020c696235,,,,,,,sngl,resources/Empty.png,resources/DB.BMP,Door3,0.351064911,-0.010185204,1,0,0,0.6964,optionRight,70,1935,1,35,0,35,0,1,,,,,,,,,,,,,,,,,,,,,,,,,,,,,,,,,,,,,,,
,,,,,,,,2023-08-16_08h49.55.515,HF_wild_card,2022.2.4,Win32,64.17661404,60a3e2171e2b64e740408760,64d2fd46c836a06233681665,64dc7f0e55301b020c696235,,,,,,,decisionTrl,resources/DY.BMP,resources/DBN.BMP,Door1,-0.318379593,-0.023148117,1,0,0,1.3971,optionLeft,30,1965,1,36,0,36,0,1,,,,,,,,,,,,,,,,,,,,,,,,,,,,,,,,,,,,,,,
,,,,,,,,2023-08-16_08h49.55.515,HF_wild_card,2022.2.4,Win32,64.17661404,60a3e2171e2b64e740408760,64d2fd46c836a06233681665,64dc7f0e55301b020c696235,,,,,,,decisionTrl,resources/DY.BMP,resources/DBN.BMP,Door2,0.321435242,0.068518486,1,0,0,1.2132,optionRight,40,2005,1,37,0,37,0,1,,,,,,,,,,,,,,,,,,,,,,,,,,,,,,,,,,,,,,,
,,,,,,,,2023-08-16_08h49.55.515,HF_wild_card,2022.2.4,Win32,64.17661404,60a3e2171e2b64e740408760,64d2fd46c836a06233681665,64dc7f0e55301b020c696235,,,,,,,sngl,resources/DBN.BMP,resources/Empty.png,Door2,-0.285046272,-0.000925941,1,0,0,0.9974,optionLeft,40,2045,1,38,0,38,0,1,,,,,,,,,,,,,,,,,,,,,,,,,,,,,,,,,,,,,,,
,,,,,,,,2023-08-16_08h49.55.515,HF_wild_card,2022.2.4,Win32,64.17661404,60a3e2171e2b64e740408760,64d2fd46c836a06233681665,64dc7f0e55301b020c696235,,,,,,,decisionTrl,resources/DBN.BMP,resources/DY.BMP,Door1,0.404768524,0.085185127,1,0,0,1.8966,optionRight,30,2075,1,39,0,39,0,1,,,,,,,,,,,,,,,,,,,,,,,,,,,,,,,,,,,,,,,
,,,,,,,,2023-08-16_08h49.55.515,HF_wild_card,2022.2.4,Win32,64.17661404,60a3e2171e2b64e740408760,64d2fd46c836a06233681665,64dc7f0e55301b020c696235,,,,,,,decisionTrl,resources/DBN.BMP,resources/DY.BMP,Door2,-0.274861069,0.019444427,1,0,0,1.5464,optionLeft,40,2115,1,40,0,40,0,1,,,,,,,,,,,,,,,,,,,,,,,,,,,,,,,,,,,,,,,
,,,,,,,,2023-08-16_08h49.55.515,HF_wild_card,2022.2.4,Win32,64.17661404,60a3e2171e2b64e740408760,64d2fd46c836a06233681665,64dc7f0e55301b020c696235,,,,,,,decisionTrl,resources/DG.BMP,resources/DR.BMP,WildCard_NonEx,0.265879669,0.007407379,1,0,0,1.3464,optionRight,45,2160,1,41,0,41,0,1,,,,,,,,,,,,,,,,,,,,,,,,,,,,,,,,,,,,,,,
,,,,,,,,2023-08-16_08h49.55.515,HF_wild_card,2022.2.4,Win32,64.17661404,60a3e2171e2b64e740408760,64d2fd46c836a06233681665,64dc7f0e55301b020c696235,,,,,,,decisionTrl,resources/DBN.BMP,resources/DY.BMP,Door2,-0.434120331,0.085185127,1,0,0,2.5796,optionLeft,40,2200,1,42,0,42,0,1,,,,,,,,,,,,,,,,,,,,,,,,,,,,,,,,,,,,,,,
,,,,,,,,2023-08-16_08h49.55.515,HF_wild_card,2022.2.4,Win32,64.17661404,60a3e2171e2b64e740408760,64d2fd46c836a06233681665,64dc7f0e55301b020c696235,,,,,,,decisionTrl,resources/DB.BMP,resources/DG.BMP,Door4,0.320509338,0.062962914,1,0,0,1.7962,optionRight,80,2280,1,43,0,43,0,1,,,,,,,,,,,,,,,,,,,,,,,,,,,,,,,,,,,,,,,
,,,,,,,,2023-08-16_08h49.55.515,HF_wild_card,2022.2.4,Win32,64.17661404,60a3e2171e2b64e740408760,64d2fd46c836a06233681665,64dc7f0e55301b020c696235,,,,,,,,,,,,,,,,,,,,,,,,,,0,0,0,0,1,,,,,,,,,,,,,,,,,,,,,,,,,,,,,,,,,,
,,,,,,,,2023-08-16_08h49.55.515,HF_wild_card,2022.2.4,Win32,64.17661404,60a3e2171e2b64e740408760,64d2fd46c836a06233681665,64dc7f0e55301b020c696235,,,,,,,decisionTrl,resources/DBN.BMP,resources/DY.BMP,Door2,-0.35078701,0.013888855,1,0,0,2.9767,optionLeft,40,2320,2,0,0,0,0,1,,,,,,,,,,,,,,,,,,,,,,,,,,,,,,,,,,,,,,,
,,,,,,,,2023-08-16_08h49.55.515,HF_wild_card,2022.2.4,Win32,64.17661404,60a3e2171e2b64e740408760,64d2fd46c836a06233681665,64dc7f0e55301b020c696235,,,,,,,sngl,resources/DY.BMP,resources/Empty.png,Door1,-0.226712952,-0.0592593,1,0,0,0.8799,optionLeft,30,2350,2,1,0,1,0,1,,,,,,,,,,,,,,,,,,,,,,,,,,,,,,,,,,,,,,,
,,,,,,,,2023-08-16_08h49.55.515,HF_wild_card,2022.2.4,Win32,64.17661404,60a3e2171e2b64e740408760,64d2fd46c836a06233681665,64dc7f0e55301b020c696235,,,,,,,sngl,resources/Empty.png,resources/DR.BMP,WildCard_NonEx,0.384398193,0.021296272,1,0,0,0.7806,optionRight,55,2405,2,2,0,2,0,1,,,,,,,,,,,,,,,,,,,,,,,,,,,,,,,,,,,,,,,
,,,,,,,,2023-08-16_08h49.55.515,HF_wild_card,2022.2.4,Win32,64.17661404,60a3e2171e2b64e740408760,64d2fd46c836a06233681665,64dc7f0e55301b020c696235,,,,,,,ctch,resources/DBN.BMP,resources/DB.BMP,Door3,0.351990814,0.017592583,1,0,0,0.9305,optionRight,70,2475,2,3,0,3,0,1,,,,,,,,,,,,,,,,,,,,,,,,,,,,,,,,,,,,,,,
,,,,,,,,2023-08-16_08h49.55.515,HF_wild_card,2022.2.4,Win32,64.17661404,60a3e2171e2b64e740408760,64d2fd46c836a06233681665,64dc7f0e55301b020c696235,,,,,,,decisionTrl,resources/DR.BMP,resources/DB.BMP,WildCard_NonEx,-0.32578701,0.020370331,1,0,0,1.2958,optionLeft,55,2530,2,4,0,4,0,1,,,,,,,,,,,,,,,,,,,,,,,,,,,,,,,,,,,,,,,
,,,,,,,,2023-08-16_08h49.55.515,HF_wild_card,2022.2.4,Win32,64.17661404,60a3e2171e2b64e740408760,64d2fd46c836a06233681665,64dc7f0e55301b020c696235,,,,,,,decisionTrl,resources/DB.BMP,resources/DR.BMP,Door3,-0.347083321,0.000925903,1,0,0,1.1614,optionLeft,70,2600,2,5,0,5,0,1,,,,,,,,,,,,,,,,,,,,,,,,,,,,,,,,,,,,,,,
,,,,,,,,2023-08-16_08h49.55.515,HF_wild_card,2022.2.4,Win32,64.17661404,60a3e2171e2b64e740408760,64d2fd46c836a06233681665,64dc7f0e55301b020c696235,,,,,,,decisionTrl,resources/DG.BMP,resources/DB.BMP,Door4,-0.248009262,-0.007407417,1,0,0,0.9634,optionLeft,80,2680,2,6,0,6,0,1,,,,,,,,,,,,,,,,,,,,,,,,,,,,,,,,,,,,,,,
,,,,,,,,2023-08-16_08h49.55.515,HF_wild_card,2022.2.4,Win32,64.17661404,60a3e2171e2b64e740408760,64d2fd46c836a06233681665,64dc7f0e55301b020c696235,,,,,,,decisionTrl,resources/DY.BMP,resources/DR.BMP,WildCard_NonEx,0.487176056,0.076851807,1,0,0,1.88,optionRight,45,2725,2,7,0,7,0,1,,,,,,,,,,,,,,,,,,,,,,,,,,,,,,,,,,,,,,,
,,,,,,,,2023-08-16_08h49.55.515,HF_wild_card,2022.2.4,Win32,64.17661404,60a3e2171e2b64e740408760,64d2fd46c836a06233681665,64dc7f0e55301b020c696235,,,,,,,decisionTrl,resources/DY.BMP,resources/DBN.BMP,Door1,-0.429490738,0.024999962,1,0,0,1.6299,optionLeft,30,2755,2,8,0,8,0,1,,,,,,,,,,,,,,,,,,,,,,,,,,,,,,,,,,,,,,,
,,,,,,,,2023-08-16_08h49.55.515,HF_wild_card,2022.2.4,Win32,64.17661404,60a3e2171e2b64e740408760,64d2fd46c836a06233681665,64dc7f0e55301b020c696235,,,,,,,decisionTrl,resources/DY.BMP,resources/DBN.BMP,Door2,0.290879669,0.002777748,1,0,0,1.2135,optionRight,40,2795,2,9,0,9,0,1,,,,,,,,,,,,,,,,,,,,,,,,,,,,,,,,,,,,,,,
,,,,,,,,2023-08-16_08h49.55.515,HF_wild_card,2022.2.4,Win32,64.17661404,60a3e2171e2b64e740408760,64d2fd46c836a06233681665,64dc7f0e55301b020c696235,,,,,,,decisionTrl,resources/DBN.BMP,resources/DR.BMP,WildCard_NonEx,0.339953766,-0.006481514,1,0,0,1.5133,optionRight,55,2850,2,10,0,10,0,1,,,,,,,,,,,,,,,,,,,,,,,,,,,,,,,,,,,,,,,
,,,,,,,,2023-08-16_08h49.55.515,HF_wild_card,2022.2.4,Win32,64.17661404,60a3e2171e2b64e740408760,64d2fd46c836a06233681665,64dc7f0e55301b020c696235,,,,,,,sngl,resources/DR.BMP,resources/Empty.png,WildCard_NonEx,-0.303564796,-0.008333359,1,0,0,0.8638,optionLeft,55,2905,2,11,0,11,0,1,,,,,,,,,,,,,,,,,,,,,,,,,,,,,,,,,,,,,,,
,,,,,,,,2023-08-16_08h49.55.515,HF_wild_card,2022.2.4,Win32,64.17661404,60a3e2171e2b64e740408760,64d2fd46c836a06233681665,64dc7f0e55301b020c696235,,,,,,,decisionTrl,resources/DB.BMP,resources/DG.BMP,Door3,-0.311898117,0.017592583,1,0,0,1.1296,optionLeft,70,2975,2,12,0,12,0,1,,,,,,,,,,,,,,,,,,,,,,,,,,,,,,,,,,,,,,,
,,,,,,,,2023-08-16_08h49.55.515,HF_wild_card,2022.2.4,Win32,64.17661404,60a3e2171e2b64e740408760,64d2fd46c836a06233681665,64dc7f0e55301b020c696235,,,,,,,decisionTrl,resources/DB.BMP,resources/DG.BMP,Door4,0.3047686,0.023148117,1,0,0,0.8974,optionRight,80,3055,2,13,0,13,0,1,,,,,,,,,,,,,,,,,,,,,,,,,,,,,,,,,,,,,,,
,,,,,,,,2023-08-16_08h49.55.515,HF_wild_card,2022.2.4,Win32,64.17661404,60a3e2171e2b64e740408760,64d2fd46c836a06233681665,64dc7f0e55301b020c696235,,,,,,,decisionTrl,resources/DG.BMP,resources/DB.BMP,Door4,-0.3044907,0.031481476,1,0,0,1.1625,optionLeft,80,3135,2,14,0,14,0,1,,,,,,,,,,,,,,,,,,,,,,,,,,,,,,,,,,,,,,,
,,,,,,,,2023-08-16_08h49.55.515,HF_wild_card,2022.2.4,Win32,64.17661404,60a3e2171e2b64e740408760,64d2fd46c836a06233681665,64dc7f0e55301b020c696235,,,,,,,sngl,resources/DR.BMP,resources/Empty.png,WildCard_NonEx,-0.307268486,-0.019444466,1,0,0,0.6964,optionLeft,45,3180,2,15,0,15,0,1,,,,,,,,,,,,,,,,,,,,,,,,,,,,,,,,,,,,,,,
,,,,,,,,2023-08-16_08h49.55.515,HF_wild_card,2022.2.4,Win32,64.17661404,60a3e2171e2b64e740408760,64d2fd46c836a06233681665,64dc7f0e55301b020c696235,,,,,,,decisionTrl,resources/DG.BMP,resources/DR.BMP,Door4,-0.343379593,0.0157407,1,0,0,0.731,optionLeft,60,3240,2,16,0,16,0,1,,,,,,,,,,,,,,,,,,,,,,,,,,,,,,,,,,,,,,,
,,,,,,,,2023-08-16_08h49.55.515,HF_wild_card,2022.2.4,Win32,64.17661404,60a3e2171e2b64e740408760,64d2fd46c836a06233681665,64dc7f0e55301b020c696235,,,,,,,sngl,resources/Empty.png,resources/DB.BMP,Door3,0.400139008,-0.008333359,1,0,0,0.7962,optionRight,70,3310,2,17,0,17,0,1,,,,,,,,,,,,,,,,,,,,,,,,,,,,,,,,,,,,,,,
,,,,,,,,2023-08-16_08h49.55.515,HF_wild_card,2022.2.4,Win32,64.17661404,60a3e2171e2b64e740408760,64d2fd46c836a06233681665,64dc7f0e55301b020c696235,,,,,,,decisionTrl,resources/DY.BMP,resources/DBN.BMP,Door1,-0.442453728,0.036111107,1,0,0,2.1298,optionLeft,30,3340,2,18,0,18,0,1,,,,,,,,,,,,,,,,,,,,,,,,,,,,,,,,,,,,,,,
,,,,,,,,2023-08-16_08h49.55.515,HF_wild_card,2022.2.4,Win32,64.17661404,60a3e2171e2b64e740408760,64d2fd46c836a06233681665,64dc7f0e55301b020c696235,,,,,,,ctch,resources/DBN.BMP,resources/DB.BMP,Door3,0.356620407,-0.0092593,1,0,0,1.3461,optionRight,70,3410,2,19,0,19,0,1,,,,,,,,,,,,,,,,,,,,,,,,,,,,,,,,,,,,,,,
,,,,,,,,2023-08-16_08h49.55.515,HF_wild_card,2022.2.4,Win32,64.17661404,60a3e2171e2b64e740408760,64d2fd46c836a06233681665,64dc7f0e55301b020c696235,,,,,,,sngl,resources/DB.BMP,resources/Empty.png,Door3,-0.302638855,-3.8147E-08,1,0,0,0.7472,optionLeft,70,3480,2,20,0,20,0,1,,,,,,,,,,,,,,,,,,,,,,,,,,,,,,,,,,,,,,,
,,,,,,,,2023-08-16_08h49.55.515,HF_wild_card,2022.2.4,Win32,64.17661404,60a3e2171e2b64e740408760,64d2fd46c836a06233681665,64dc7f0e55301b020c696235,,,,,,,sngl,resources/DBN.BMP,resources/Empty.png,Door2,-0.273935165,0.023148117,1,0,0,0.8474,optionLeft,20,3500,2,21,0,21,0,1,,,,,,,,,,,,,,,,,,,,,,,,,,,,,,,,,,,,,,,
,,,,,,,,2023-08-16_08h49.55.515,HF_wild_card,2022.2.4,Win32,64.17661404,60a3e2171e2b64e740408760,64d2fd46c836a06233681665,64dc7f0e55301b020c696235,,,,,,,decisionTrl,resources/DR.BMP,resources/DY.BMP,WildCard_NonEx,-0.274861069,-0.015740776,1,0,0,1.1466,optionLeft,45,3545,2,22,0,22,0,1,,,,,,,,,,,,,,,,,,,,,,,,,,,,,,,,,,,,,,,
,,,,,,,,2023-08-16_08h49.55.515,HF_wild_card,2022.2.4,Win32,64.17661404,60a3e2171e2b64e740408760,64d2fd46c836a06233681665,64dc7f0e55301b020c696235,,,,,,,decisionTrl,resources/DBN.BMP,resources/DY.BMP,Door1,0.498287048,0.004629593,1,0,0,1.8643,optionRight,30,3575,2,23,0,23,0,1,,,,,,,,,,,,,,,,,,,,,,,,,,,,,,,,,,,,,,,
,,,,,,,,2023-08-16_08h49.55.515,HF_wild_card,2022.2.4,Win32,64.17661404,60a3e2171e2b64e740408760,64d2fd46c836a06233681665,64dc7f0e55301b020c696235,,,,,,,ctch,resources/DG.BMP,resources/DY.BMP,Door4,-0.293379593,-0.01296299,1,0,0,1.1967,optionLeft,60,3635,2,24,0,24,0,1,,,,,,,,,,,,,,,,,,,,,,,,,,,,,,,,,,,,,,,
,,,,,,,,2023-08-16_08h49.55.515,HF_wild_card,2022.2.4,Win32,64.17661404,60a3e2171e2b64e740408760,64d2fd46c836a06233681665,64dc7f0e55301b020c696235,,,,,,,decisionTrl,resources/DR.BMP,resources/DG.BMP,Door4,0.427916718,0.081481476,1,0,0,1.8793,optionRight,80,3715,2,25,0,25,0,1,,,,,,,,,,,,,,,,,,,,,,,,,,,,,,,,,,,,,,,
,,,,,,,,2023-08-16_08h49.55.515,HF_wild_card,2022.2.4,Win32,64.17661404,60a3e2171e2b64e740408760,64d2fd46c836a06233681665,64dc7f0e55301b020c696235,,,,,,,decisionTrl,resources/DG.BMP,resources/DB.BMP,Door4,-0.257268486,-0.026851883,1,0,0,1.2133,optionLeft,80,3795,2,26,0,26,0,1,,,,,,,,,,,,,,,,,,,,,,,,,,,,,,,,,,,,,,,
,,,,,,,,2023-08-16_08h49.55.515,HF_wild_card,2022.2.4,Win32,64.17661404,60a3e2171e2b64e740408760,64d2fd46c836a06233681665,64dc7f0e55301b020c696235,,,,,,,ctch,resources/DY.BMP,resources/DG.BMP,Door4,0.364027863,0.011111069,1,0,0,0.9467,optionRight,60,3855,2,27,0,27,0,1,,,,,,,,,,,,,,,,,,,,,,,,,,,,,,,,,,,,,,,
,,,,,,,,2023-08-16_08h49.55.515,HF_wild_card,2022.2.4,Win32,64.17661404,60a3e2171e2b64e740408760,64d2fd46c836a06233681665,64dc7f0e55301b020c696235,,,,,,,decisionTrl,resources/DG.BMP,resources/DB.BMP,Door4,-0.333194427,0.048148117,1,0,0,1.6135,optionLeft,80,3935,2,28,0,28,0,1,,,,,,,,,,,,,,,,,,,,,,,,,,,,,,,,,,,,,,,
,,,,,,,,2023-08-16_08h49.55.515,HF_wild_card,2022.2.4,Win32,64.17661404,60a3e2171e2b64e740408760,64d2fd46c836a06233681665,64dc7f0e55301b020c696235,,,,,,,ctch,resources/DB.BMP,resources/DBN.BMP,Door3,-0.263749962,-0.016666679,1,0,0,1.4129,optionLeft,70,4005,2,29,0,29,0,1,,,,,,,,,,,,,,,,,,,,,,,,,,,,,,,,,,,,,,,
,,,,,,,,2023-08-16_08h49.55.515,HF_wild_card,2022.2.4,Win32,64.17661404,60a3e2171e2b64e740408760,64d2fd46c836a06233681665,64dc7f0e55301b020c696235,,,,,,,ctch,resources/DG.BMP,resources/DY.BMP,Door4,-0.332268486,-0.02129631,1,0,0,2.7291,optionLeft,80,4085,2,30,0,30,0,1,,,,,,,,,,,,,,,,,,,,,,,,,,,,,,,,,,,,,,,
,,,,,,,,2023-08-16_08h49.55.515,HF_wild_card,2022.2.4,Win32,64.17661404,60a3e2171e2b64e740408760,64d2fd46c836a06233681665,64dc7f0e55301b020c696235,,,,,,,decisionTrl,resources/DB.BMP,resources/DG.BMP,Door4,0.339027863,0.030555534,1,0,0,1.2969,optionRight,60,4145,2,31,0,31,0,1,,,,,,,,,,,,,,,,,,,,,,,,,,,,,,,,,,,,,,,
,,,,,,,,2023-08-16_08h49.55.515,HF_wild_card,2022.2.4,Win32,64.17661404,60a3e2171e2b64e740408760,64d2fd46c836a06233681665,64dc7f0e55301b020c696235,,,,,,,sngl,resources/Empty.png,resources/DY.BMP,Door1,0.346435242,-0.002777786,1,0,0,0.9627,optionRight,30,4175,2,32,0,32,0,1,,,,,,,,,,,,,,,,,,,,,,,,,,,,,,,,,,,,,,,
,,,,,,,,2023-08-16_08h49.55.515,HF_wild_card,2022.2.4,Win32,64.17661404,60a3e2171e2b64e740408760,64d2fd46c836a06233681665,64dc7f0e55301b020c696235,,,,,,,sngl,resources/DG.BMP,resources/Empty.png,Door4,-0.324861069,0.010185165,1,0,0,0.73,optionLeft,60,4235,2,33,0,33,0,1,,,,,,,,,,,,,,,,,,,,,,,,,,,,,,,,,,,,,,,
,,,,,,,,2023-08-16_08h49.55.515,HF_wild_card,2022.2.4,Win32,64.17661404,60a3e2171e2b64e740408760,64d2fd46c836a06233681665,64dc7f0e55301b020c696235,,,,,,,ctch,resources/DY.BMP,resources/DG.BMP,Door4,0.290879669,0.048148117,1,0,0,1.2795,optionRight,60,4295,2,34,0,34,0,1,,,,,,,,,,,,,,,,,,,,,,,,,,,,,,,,,,,,,,,
,,,,,,,,2023-08-16_08h49.55.515,HF_wild_card,2022.2.4,Win32,64.17661404,60a3e2171e2b64e740408760,64d2fd46c836a06233681665,64dc7f0e55301b020c696235,,,,,,,decisionTrl,resources/DR.BMP,resources/DBN.BMP,WildCard_NonEx,-0.344305534,0.036111107,1,0,0,1.6298,optionLeft,55,4350,2,35,0,35,0,1,,,,,,,,,,,,,,,,,,,,,,,,,,,,,,,,,,,,,,,
,,,,,,,,2023-08-16_08h49.55.515,HF_wild_card,2022.2.4,Win32,64.17661404,60a3e2171e2b64e740408760,64d2fd46c836a06233681665,64dc7f0e55301b020c696235,,,,,,,sngl,resources/Empty.png,resources/DG.BMP,Door4,0.33717598,-0.0092593,1,0,0,0.7304,optionRight,80,4430,2,36,0,36,0,1,,,,,,,,,,,,,,,,,,,,,,,,,,,,,,,,,,,,,,,
,,,,,,,,2023-08-16_08h49.55.515,HF_wild_card,2022.2.4,Win32,64.17661404,60a3e2171e2b64e740408760,64d2fd46c836a06233681665,64dc7f0e55301b020c696235,,,,,,,decisionTrl,resources/DBN.BMP,resources/DY.BMP,Door2,-0.486898117,-0.037037048,1,0,0,3.5296,optionLeft,40,4470,2,37,0,37,0,1,,,,,,,,,,,,,,,,,,,,,,,,,,,,,,,,,,,,,,,
,,,,,,,,2023-08-16_08h49.55.515,HF_wild_card,2022.2.4,Win32,64.17661404,60a3e2171e2b64e740408760,64d2fd46c836a06233681665,64dc7f0e55301b020c696235,,,,,,,decisionTrl,resources/DB.BMP,resources/DG.BMP,Door4,0.566805573,-0.02129631,1,0,0,1.9625,optionRight,80,4550,2,38,0,38,0,1,,,,,,,,,,,,,,,,,,,,,,,,,,,,,,,,,,,,,,,
,,,,,,,,2023-08-16_08h49.55.515,HF_wild_card,2022.2.4,Win32,64.17661404,60a3e2171e2b64e740408760,64d2fd46c836a06233681665,64dc7f0e55301b020c696235,,,,,,,sngl,resources/Empty.png,resources/DR.BMP,WildCard_NonEx,0.289953766,0.045370331,1,0,0,0.8965,optionRight,45,4595,2,39,0,39,0,1,,,,,,,,,,,,,,,,,,,,,,,,,,,,,,,,,,,,,,,
,,,,,,,,2023-08-16_08h49.55.515,HF_wild_card,2022.2.4,Win32,64.17661404,60a3e2171e2b64e740408760,64d2fd46c836a06233681665,64dc7f0e55301b020c696235,,,,,,,decisionTrl,resources/DBN.BMP,resources/DY.BMP,Door1,0.395509338,0.074999962,1,0,0,1.647,optionRight,30,4625,2,40,0,40,0,1,,,,,,,,,,,,,,,,,,,,,,,,,,,,,,,,,,,,,,,
,,,,,,,,2023-08-16_08h49.55.515,HF_wild_card,2022.2.4,Win32,64.17661404,60a3e2171e2b64e740408760,64d2fd46c836a06233681665,64dc7f0e55301b020c696235,,,,,,,decisionTrl,resources/DY.BMP,resources/DBN.BMP,Door1,-0.268379593,0.033333321,1,0,0,1.9963,optionLeft,30,4655,2,41,0,41,0,1,,,,,,,,,,,,,,,,,,,,,,,,,,,,,,,,,,,,,,,
,,,,,,,,2023-08-16_08h49.55.515,HF_wild_card,2022.2.4,Win32,64.17661404,60a3e2171e2b64e740408760,64d2fd46c836a06233681665,64dc7f0e55301b020c696235,,,,,,,sngl,resources/Empty.png,resources/DBN.BMP,Door2,0.272361145,0.0157407,1,0,0,0.7797,optionRight,40,4695,2,42,0,42,0,1,,,,,,,,,,,,,,,,,,,,,,,,,,,,,,,,,,,,,,,
,,,,,,,,2023-08-16_08h49.55.515,HF_wild_card,2022.2.4,Win32,64.17661404,60a3e2171e2b64e740408760,64d2fd46c836a06233681665,64dc7f0e55301b020c696235,,,,,,,ctch,resources/DB.BMP,resources/DBN.BMP,Door3,-0.303564796,-0.014814835,1,0,0,1.663,optionLeft,70,4765,2,43,0,43,0,1,,,,,,,,,,,,,,,,,,,,,,,,,,,,,,,,,,,,,,,
,,,,,,,,2023-08-16_08h49.55.515,HF_wild_card,2022.2.4,Win32,64.17661404,60a3e2171e2b64e740408760,64d2fd46c836a06233681665,64dc7f0e55301b020c696235,,,,,,,,,,,,,,,,,,,,,,,,,,1,0,1,0,1,,,,,,,,,,,,,,,,,,,,,,,,,,,,,,,,,,
,,,,,,,,2023-08-16_08h49.55.515,HF_wild_card,2022.2.4,Win32,64.17661404,60a3e2171e2b64e740408760,64d2fd46c836a06233681665,64dc7f0e55301b020c696235,,,,,,,decisionTrl,resources/DB.BMP,resources/DG.BMP,Door4,0.348287125,-0.02129631,1,0,0,1.2594,optionRight,80,4845,3,0,0,0,0,1,,,,,,,,,,,,,,,,,,,,,,,,,,,,,,,,,,,,,,,
,,,,,,,,2023-08-16_08h49.55.515,HF_wild_card,2022.2.4,Win32,64.17661404,60a3e2171e2b64e740408760,64d2fd46c836a06233681665,64dc7f0e55301b020c696235,,,,,,,decisionTrl,resources/DY.BMP,resources/DBN.BMP,Door1,-0.398009224,0.080555534,1,0,0,2.2298,optionLeft,30,4875,3,1,0,1,0,1,,,,,,,,,,,,,,,,,,,,,,,,,,,,,,,,,,,,,,,
,,,,,,,,2023-08-16_08h49.55.515,HF_wild_card,2022.2.4,Win32,64.17661404,60a3e2171e2b64e740408760,64d2fd46c836a06233681665,64dc7f0e55301b020c696235,,,,,,,decisionTrl,resources/DBN.BMP,resources/DY.BMP,Door1,0.332546387,0.00370369,1,0,0,0.9799,optionRight,30,4905,3,2,0,2,0,1,,,,,,,,,,,,,,,,,,,,,,,,,,,,,,,,,,,,,,,
,,,,,,,,2023-08-16_08h49.55.515,HF_wild_card,2022.2.4,Win32,64.17661404,60a3e2171e2b64e740408760,64d2fd46c836a06233681665,64dc7f0e55301b020c696235,,,,,,,ctch,resources/DG.BMP,resources/DY.BMP,Door4,-0.287824059,0.013888855,1,0,0,1.1958,optionLeft,60,4965,3,3,0,3,0,1,,,,,,,,,,,,,,,,,,,,,,,,,,,,,,,,,,,,,,,
,,,,,,,,2023-08-16_08h49.55.515,HF_wild_card,2022.2.4,Win32,64.17661404,60a3e2171e2b64e740408760,64d2fd46c836a06233681665,64dc7f0e55301b020c696235,,,,,,,decisionTrl,resources/DB.BMP,resources/DG.BMP,Door4,0.319583282,0.0157407,1,0,0,0.9635,optionRight,60,5025,3,4,0,4,0,1,,,,,,,,,,,,,,,,,,,,,,,,,,,,,,,,,,,,,,,
,,,,,,,,2023-08-16_08h49.55.515,HF_wild_card,2022.2.4,Win32,64.17661404,60a3e2171e2b64e740408760,64d2fd46c836a06233681665,64dc7f0e55301b020c696235,,,,,,,sngl,resources/Empty.png,resources/DBN.BMP,Door2,0.33532402,0.012962952,1,0,0,0.8473,optionRight,20,5045,3,5,0,5,0,1,,,,,,,,,,,,,,,,,,,,,,,,,,,,,,,,,,,,,,,
,,,,,,,,2023-08-16_08h49.55.515,HF_wild_card,2022.2.4,Win32,64.17661404,60a3e2171e2b64e740408760,64d2fd46c836a06233681665,64dc7f0e55301b020c696235,,,,,,,decisionTrl,resources/DG.BMP,resources/DR.BMP,Door4,-0.293379593,0.009259224,1,0,0,1.4472,optionLeft,60,5105,3,6,0,6,0,1,,,,,,,,,,,,,,,,,,,,,,,,,,,,,,,,,,,,,,,
,,,,,,,,2023-08-16_08h49.55.515,HF_wild_card,2022.2.4,Win32,64.17661404,60a3e2171e2b64e740408760,64d2fd46c836a06233681665,64dc7f0e55301b020c696235,,,,,,,sngl,resources/Empty.png,resources/DB.BMP,Door3,0.317731552,-0.019444466,1,0,0,0.7801,optionRight,70,5175,3,7,0,7,0,1,,,,,,,,,,,,,,,,,,,,,,,,,,,,,,,,,,,,,,,
,,,,,,,,2023-08-16_08h49.55.515,HF_wild_card,2022.2.4,Win32,64.17661404,60a3e2171e2b64e740408760,64d2fd46c836a06233681665,64dc7f0e55301b020c696235,,,,,,,decisionTrl,resources/DR.BMP,resources/DB.BMP,Door3,0.30847229,-0.056481514,1,0,0,2.297,optionRight,70,5245,3,8,0,8,0,1,,,,,,,,,,,,,,,,,,,,,,,,,,,,,,,,,,,,,,,
,,,,,,,,2023-08-16_08h49.55.515,HF_wild_card,2022.2.4,Win32,64.17661404,60a3e2171e2b64e740408760,64d2fd46c836a06233681665,64dc7f0e55301b020c696235,,,,,,,sngl,resources/Empty.png,resources/DR.BMP,WildCard_NonEx,0.357546387,0.043518486,1,0,0,0.7649,optionRight,55,5300,3,9,0,9,0,1,,,,,,,,,,,,,,,,,,,,,,,,,,,,,,,,,,,,,,,
,,,,,,,,2023-08-16_08h49.55.515,HF_wild_card,2022.2.4,Win32,64.17661404,60a3e2171e2b64e740408760,64d2fd46c836a06233681665,64dc7f0e55301b020c696235,,,,,,,sngl,resources/Empty.png,resources/DY.BMP,Door1,0.346435242,0.024074059,1,0,0,0.7305,optionRight,30,5330,3,10,0,10,0,1,,,,,,,,,,,,,,,,,,,,,,,,,,,,,,,,,,,,,,,
,,,,,,,,2023-08-16_08h49.55.515,HF_wild_card,2022.2.4,Win32,64.17661404,60a3e2171e2b64e740408760,64d2fd46c836a06233681665,64dc7f0e55301b020c696235,,,,,,,decisionTrl,resources/DB.BMP,resources/DG.BMP,Door4,0.357546387,0.084259224,1,0,0,1.1458,optionRight,80,5410,3,11,0,11,0,1,,,,,,,,,,,,,,,,,,,,,,,,,,,,,,,,,,,,,,,
,,,,,,,,2023-08-16_08h49.55.515,HF_wild_card,2022.2.4,Win32,64.17661404,60a3e2171e2b64e740408760,64d2fd46c836a06233681665,64dc7f0e55301b020c696235,,,,,,,decisionTrl,resources/DY.BMP,resources/DR.BMP,WildCard_NonEx,0.327916718,0.03703701,1,0,0,1.0296,optionRight,45,5455,3,12,0,12,0,1,,,,,,,,,,,,,,,,,,,,,,,,,,,,,,,,,,,,,,,
,,,,,,,,2023-08-16_08h49.55.515,HF_wild_card,2022.2.4,Win32,64.17661404,60a3e2171e2b64e740408760,64d2fd46c836a06233681665,64dc7f0e55301b020c696235,,,,,,,sngl,resources/Empty.png,resources/DR.BMP,WildCard_NonEx,0.402916718,0.014814796,1,0,0,0.7312,optionRight,45,5500,3,13,0,13,0,1,,,,,,,,,,,,,,,,,,,,,,,,,,,,,,,,,,,,,,,
,,,,,,,,2023-08-16_08h49.55.515,HF_wild_card,2022.2.4,Win32,64.17661404,60a3e2171e2b64e740408760,64d2fd46c836a06233681665,64dc7f0e55301b020c696235,,,,,,,decisionTrl,resources/DB.BMP,resources/DG.BMP,Door4,0.230694504,0.044444466,1,0,0,1.2469,optionRight,80,5580,3,14,0,14,0,1,,,,,,,,,,,,,,,,,,,,,,,,,,,,,,,,,,,,,,,
,,,,,,,,2023-08-16_08h49.55.515,HF_wild_card,2022.2.4,Win32,64.17661404,60a3e2171e2b64e740408760,64d2fd46c836a06233681665,64dc7f0e55301b020c696235,,,,,,,decisionTrl,resources/DY.BMP,resources/DBN.BMP,Door1,-0.335046272,-0.017592621,1,0,0,1.4132,optionLeft,30,5610,3,15,0,15,0,1,,,,,,,,,,,,,,,,,,,,,,,,,,,,,,,,,,,,,,,
,,,,,,,,2023-08-16_08h49.55.515,HF_wild_card,2022.2.4,Win32,64.17661404,60a3e2171e2b64e740408760,64d2fd46c836a06233681665,64dc7f0e55301b020c696235,,,,,,,decisionTrl,resources/DG.BMP,resources/DB.BMP,Door4,-0.373935165,0.034259224,1,0,0,1.3964,optionLeft,80,5690,3,16,0,16,0,1,,,,,,,,,,,,,,,,,,,,,,,,,,,,,,,,,,,,,,,
,,,,,,,,2023-08-16_08h49.55.515,HF_wild_card,2022.2.4,Win32,64.17661404,60a3e2171e2b64e740408760,64d2fd46c836a06233681665,64dc7f0e55301b020c696235,,,,,,,decisionTrl,resources/DBN.BMP,resources/DR.BMP,WildCard_NonEx,0.28347229,-0.001851883,1,0,0,1.3793,optionRight,55,5745,3,17,0,17,0,1,,,,,,,,,,,,,,,,,,,,,,,,,,,,,,,,,,,,,,,
,,,,,,,,2023-08-16_08h49.55.515,HF_wild_card,2022.2.4,Win32,64.17661404,60a3e2171e2b64e740408760,64d2fd46c836a06233681665,64dc7f0e55301b020c696235,,,,,,,sngl,resources/DR.BMP,resources/Empty.png,WildCard_NonEx,-0.402638855,0.022222214,1,0,0,0.8978,optionLeft,55,5800,3,18,0,18,0,1,,,,,,,,,,,,,,,,,,,,,,,,,,,,,,,,,,,,,,,
,,,,,,,,2023-08-16_08h49.55.515,HF_wild_card,2022.2.4,Win32,64.17661404,60a3e2171e2b64e740408760,64d2fd46c836a06233681665,64dc7f0e55301b020c696235,,,,,,,decisionTrl,resources/DG.BMP,resources/DB.BMP,Door4,-0.27671299,0.010185165,1,0,0,1.1131,optionLeft,80,5880,3,19,0,19,0,1,,,,,,,,,,,,,,,,,,,,,,,,,,,,,,,,,,,,,,,
,,,,,,,,2023-08-16_08h49.55.515,HF_wild_card,2022.2.4,Win32,64.17661404,60a3e2171e2b64e740408760,64d2fd46c836a06233681665,64dc7f0e55301b020c696235,,,,,,,decisionTrl,resources/DBN.BMP,resources/DY.BMP,Door1,0.469583435,0.043518486,1,0,0,1.7303,optionRight,30,5910,3,20,0,20,0,1,,,,,,,,,,,,,,,,,,,,,,,,,,,,,,,,,,,,,,,
,,,,,,,,2023-08-16_08h49.55.515,HF_wild_card,2022.2.4,Win32,64.17661404,60a3e2171e2b64e740408760,64d2fd46c836a06233681665,64dc7f0e55301b020c696235,,,,,,,ctch,resources/DBN.BMP,resources/DB.BMP,Door3,0.319583282,-0.005555573,1,0,0,0.9467,optionRight,70,5980,3,21,0,21,0,1,,,,,,,,,,,,,,,,,,,,,,,,,,,,,,,,,,,,,,,
,,,,,,,,2023-08-16_08h49.55.515,HF_wild_card,2022.2.4,Win32,64.17661404,60a3e2171e2b64e740408760,64d2fd46c836a06233681665,64dc7f0e55301b020c696235,,,,,,,decisionTrl,resources/DG.BMP,resources/DB.BMP,Door4,-0.239675903,0.027777748,1,0,0,1.1971,optionLeft,60,6040,3,22,0,22,0,1,,,,,,,,,,,,,,,,,,,,,,,,,,,,,,,,,,,,,,,
,,,,,,,,2023-08-16_08h49.55.515,HF_wild_card,2022.2.4,Win32,64.17661404,60a3e2171e2b64e740408760,64d2fd46c836a06233681665,64dc7f0e55301b020c696235,,,,,,,decisionTrl,resources/DB.BMP,resources/DR.BMP,Door3,-0.345231438,-0.002777786,1,0,0,1.4629,optionLeft,70,6110,3,23,0,23,0,1,,,,,,,,,,,,,,,,,,,,,,,,,,,,,,,,,,,,,,,
,,,,,,,,2023-08-16_08h49.55.515,HF_wild_card,2022.2.4,Win32,64.17661404,60a3e2171e2b64e740408760,64d2fd46c836a06233681665,64dc7f0e55301b020c696235,,,,,,,sngl,resources/DB.BMP,resources/Empty.png,Door3,-0.376712952,-0.048148193,1,0,0,0.7971,optionLeft,70,6180,3,24,0,24,0,1,,,,,,,,,,,,,,,,,,,,,,,,,,,,,,,,,,,,,,,
,,,,,,,,2023-08-16_08h49.55.515,HF_wild_card,2022.2.4,Win32,64.17661404,60a3e2171e2b64e740408760,64d2fd46c836a06233681665,64dc7f0e55301b020c696235,,,,,,,ctch,resources/DB.BMP,resources/DBN.BMP,Door3,-0.478564796,0.007407379,1,0,0,0.9301,optionLeft,70,6250,3,25,0,25,0,1,,,,,,,,,,,,,,,,,,,,,,,,,,,,,,,,,,,,,,,
,,,,,,,,2023-08-16_08h49.55.515,HF_wild_card,2022.2.4,Win32,64.17661404,60a3e2171e2b64e740408760,64d2fd46c836a06233681665,64dc7f0e55301b020c696235,,,,,,,decisionTrl,resources/DY.BMP,resources/DBN.BMP,Door2,0.364953766,0.053703728,1,0,0,1.5301,optionRight,20,6270,3,26,0,26,0,1,,,,,,,,,,,,,,,,,,,,,,,,,,,,,,,,,,,,,,,
,,,,,,,,2023-08-16_08h49.55.515,HF_wild_card,2022.2.4,Win32,64.17661404,60a3e2171e2b64e740408760,64d2fd46c836a06233681665,64dc7f0e55301b020c696235,,,,,,,ctch,resources/DG.BMP,resources/DY.BMP,Door4,-0.273935165,0.004629593,1,0,0,0.947,optionLeft,80,6350,3,27,0,27,0,1,,,,,,,,,,,,,,,,,,,,,,,,,,,,,,,,,,,,,,,
,,,,,,,,2023-08-16_08h49.55.515,HF_wild_card,2022.2.4,Win32,64.17661404,60a3e2171e2b64e740408760,64d2fd46c836a06233681665,64dc7f0e55301b020c696235,,,,,,,ctch,resources/DY.BMP,resources/DG.BMP,Door4,0.41125,-0.001851883,1,0,0,1.1294,optionRight,60,6410,3,28,0,28,0,1,,,,,,,,,,,,,,,,,,,,,,,,,,,,,,,,,,,,,,,
,,,,,,,,2023-08-16_08h49.55.515,HF_wild_card,2022.2.4,Win32,64.17661404,60a3e2171e2b64e740408760,64d2fd46c836a06233681665,64dc7f0e55301b020c696235,,,,,,,sngl,resources/DG.BMP,resources/Empty.png,Door4,-0.334120331,-0.016666679,1,0,0,0.7634,optionLeft,80,6490,3,29,0,29,0,1,,,,,,,,,,,,,,,,,,,,,,,,,,,,,,,,,,,,,,,
,,,,,,,,2023-08-16_08h49.55.515,HF_wild_card,2022.2.4,Win32,64.17661404,60a3e2171e2b64e740408760,64d2fd46c836a06233681665,64dc7f0e55301b020c696235,,,,,,,sngl,resources/DY.BMP,resources/Empty.png,Door1,-0.310972252,-0.048148193,1,0,0,0.847,optionLeft,30,6520,3,30,0,30,0,1,,,,,,,,,,,,,,,,,,,,,,,,,,,,,,,,,,,,,,,
,,,,,,,,2023-08-16_08h49.55.515,HF_wild_card,2022.2.4,Win32,64.17661404,60a3e2171e2b64e740408760,64d2fd46c836a06233681665,64dc7f0e55301b020c696235,,,,,,,decisionTrl,resources/DR.BMP,resources/DY.BMP,WildCard_NonEx,-0.355416641,0.000925903,1,0,0,1.5121,optionLeft,45,6565,3,31,0,31,0,1,,,,,,,,,,,,,,,,,,,,,,,,,,,,,,,,,,,,,,,
,,,,,,,,2023-08-16_08h49.55.515,HF_wild_card,2022.2.4,Win32,64.17661404,60a3e2171e2b64e740408760,64d2fd46c836a06233681665,64dc7f0e55301b020c696235,,,,,,,sngl,resources/Empty.png,resources/DG.BMP,Door4,0.388101807,0.024074059,1,0,0,0.8471,optionRight,60,6625,3,32,0,32,0,1,,,,,,,,,,,,,,,,,,,,,,,,,,,,,,,,,,,,,,,
,,,,,,,,2023-08-16_08h49.55.515,HF_wild_card,2022.2.4,Win32,64.17661404,60a3e2171e2b64e740408760,64d2fd46c836a06233681665,64dc7f0e55301b020c696235,,,,,,,ctch,resources/DBN.BMP,resources/DB.BMP,Door3,0.326064911,-0.0092593,1,0,0,1.346,optionRight,70,6695,3,33,0,33,0,1,,,,,,,,,,,,,,,,,,,,,,,,,,,,,,,,,,,,,,,
,,,,,,,,2023-08-16_08h49.55.515,HF_wild_card,2022.2.4,Win32,64.17661404,60a3e2171e2b64e740408760,64d2fd46c836a06233681665,64dc7f0e55301b020c696235,,,,,,,sngl,resources/DR.BMP,resources/Empty.png,WildCard_NonEx,-0.407268486,0.017592583,1,0,0,0.8302,optionLeft,45,6740,3,34,0,34,0,1,,,,,,,,,,,,,,,,,,,,,,,,,,,,,,,,,,,,,,,
,,,,,,,,2023-08-16_08h49.55.515,HF_wild_card,2022.2.4,Win32,64.17661404,60a3e2171e2b64e740408760,64d2fd46c836a06233681665,64dc7f0e55301b020c696235,,,,,,,decisionTrl,resources/DR.BMP,resources/DBN.BMP,WildCard_NonEx,-0.3044907,-0.022222252,1,0,0,0.8968,optionLeft,45,6785,3,35,0,35,0,1,,,,,,,,,,,,,,,,,,,,,,,,,,,,,,,,,,,,,,,
,,,,,,,,2023-08-16_08h49.55.515,HF_wild_card,2022.2.4,Win32,64.17661404,60a3e2171e2b64e740408760,64d2fd46c836a06233681665,64dc7f0e55301b020c696235,,,,,,,decisionTrl,resources/DG.BMP,resources/DB.BMP,Door4,-0.310046272,0.070370331,1,0,0,1.6465,optionLeft,80,6865,3,36,0,36,0,1,,,,,,,,,,,,,,,,,,,,,,,,,,,,,,,,,,,,,,,
,,,,,,,,2023-08-16_08h49.55.515,HF_wild_card,2022.2.4,Win32,64.17661404,60a3e2171e2b64e740408760,64d2fd46c836a06233681665,64dc7f0e55301b020c696235,,,,,,,ctch,resources/DY.BMP,resources/DG.BMP,Door4,0.3547686,0.011111069,1,0,0,1.2799,optionRight,80,6945,3,37,0,37,0,1,,,,,,,,,,,,,,,,,,,,,,,,,,,,,,,,,,,,,,,
,,,,,,,,2023-08-16_08h49.55.515,HF_wild_card,2022.2.4,Win32,64.17661404,60a3e2171e2b64e740408760,64d2fd46c836a06233681665,64dc7f0e55301b020c696235,,,,,,,decisionTrl,resources/DY.BMP,resources/DBN.BMP,Door1,-0.290601807,-0.032407417,1,0,0,1.6127,optionLeft,30,6975,3,38,0,38,0,1,,,,,,,,,,,,,,,,,,,,,,,,,,,,,,,,,,,,,,,
,,,,,,,,2023-08-16_08h49.55.515,HF_wild_card,2022.2.4,Win32,64.17661404,60a3e2171e2b64e740408760,64d2fd46c836a06233681665,64dc7f0e55301b020c696235,,,,,,,decisionTrl,resources/DBN.BMP,resources/DY.BMP,Door1,0.351064911,0.071296234,1,0,0,1.0966,optionRight,30,7005,3,39,0,39,0,1,,,,,,,,,,,,,,,,,,,,,,,,,,,,,,,,,,,,,,,
,,,,,,,,2023-08-16_08h49.55.515,HF_wild_card,2022.2.4,Win32,64.17661404,60a3e2171e2b64e740408760,64d2fd46c836a06233681665,64dc7f0e55301b020c696235,,,,,,,decisionTrl,resources/DBN.BMP,resources/DY.BMP,Door1,0.293657455,0.073148117,1,0,0,1.3132,optionRight,30,7035,3,40,0,40,0,1,,,,,,,,,,,,,,,,,,,,,,,,,,,,,,,,,,,,,,,
,,,,,,,,2023-08-16_08h49.55.515,HF_wild_card,2022.2.4,Win32,64.17661404,60a3e2171e2b64e740408760,64d2fd46c836a06233681665,64dc7f0e55301b020c696235,,,,,,,ctch,resources/DB.BMP,resources/DBN.BMP,Door3,-0.282268486,0.023148117,1,0,0,1.2464,optionLeft,70,7105,3,41,0,41,0,1,,,,,,,,,,,,,,,,,,,,,,,,,,,,,,,,,,,,,,,
,,,,,,,,2023-08-16_08h49.55.515,HF_wild_card,2022.2.4,Win32,64.17661404,60a3e2171e2b64e740408760,64d2fd46c836a06233681665,64dc7f0e55301b020c696235,,,,,,,decisionTrl,resources/DR.BMP,resources/DG.BMP,Door4,0.345509338,0.022222214,1,0,0,0.93,optionRight,80,7185,3,42,0,42,0,1,,,,,,,,,,,,,,,,,,,,,,,,,,,,,,,,,,,,,,,
,,,,,,,,2023-08-16_08h49.55.515,HF_wild_card,2022.2.4,Win32,64.17661404,60a3e2171e2b64e740408760,64d2fd46c836a06233681665,64dc7f0e55301b020c696235,,,,,,,sngl,resources/DBN.BMP,resources/Empty.png,Door2,-0.331342621,0.014814796,1,0,0,0.8968,optionLeft,40,7225,3,43,0,43,0,1,,,,,,,,,,,,,,,,,,,,,,,,,,,,,,,,,,,,,,,
,,,,,,,,2023-08-16_08h49.55.515,HF_wild_card,2022.2.4,Win32,64.17661404,60a3e2171e2b64e740408760,64d2fd46c836a06233681665,64dc7f0e55301b020c696235,,,,,,,,,,,,,,,,,,,,,,,,,,2,0,2,0,1,,,,,,,,,,,,,,,,,,,,,,,,,,,,,,,,,,
,,,,,,,,2023-08-16_08h49.55.515,HF_wild_card,2022.2.4,Win32,64.17661404,60a3e2171e2b64e740408760,64d2fd46c836a06233681665,64dc7f0e55301b020c696235,,,,,,,ctch,resources/DBN.BMP,resources/DB.BMP,Door3,0.409398193,0.007407379,1,0,0,1.347,optionRight,70,7295,4,0,0,0,0,1,,,,,,,,,,,,,,,,,,,,,,,,,,,,,,,,,,,,,,,
,,,,,,,,2023-08-16_08h49.55.515,HF_wild_card,2022.2.4,Win32,64.17661404,60a3e2171e2b64e740408760,64d2fd46c836a06233681665,64dc7f0e55301b020c696235,,,,,,,sngl,resources/Empty.png,resources/DP.BMP,WildCard_Ex,0.301990814,0.041666641,1,0,0,1.297,optionRight,55,7350,4,1,0,1,0,1,,,,,,,,,,,,,,,,,,,,,,,,,,,,,,,,,,,,,,,
,,,,,,,,2023-08-16_08h49.55.515,HF_wild_card,2022.2.4,Win32,64.17661404,60a3e2171e2b64e740408760,64d2fd46c836a06233681665,64dc7f0e55301b020c696235,,,,,,,sngl,resources/Empty.png,resources/DB.BMP,Door3,0.426990814,0.04907402,1,0,0,1.0303,optionRight,70,7420,4,2,0,2,0,1,,,,,,,,,,,,,,,,,,,,,,,,,,,,,,,,,,,,,,,
,,,,,,,,2023-08-16_08h49.55.515,HF_wild_card,2022.2.4,Win32,64.17661404,60a3e2171e2b64e740408760,64d2fd46c836a06233681665,64dc7f0e55301b020c696235,,,,,,,decisionTrl,resources/DB.BMP,resources/DG.BMP,Door4,0.406620483,0.052777748,1,0,0,1.6962,optionRight,80,7500,4,3,0,3,0,1,,,,,,,,,,,,,,,,,,,,,,,,,,,,,,,,,,,,,,,
,,,,,,,,2023-08-16_08h49.55.515,HF_wild_card,2022.2.4,Win32,64.17661404,60a3e2171e2b64e740408760,64d2fd46c836a06233681665,64dc7f0e55301b020c696235,,,,,,,decisionTrl,resources/DG.BMP,resources/DB.BMP,Door4,-0.303564796,-0.029629669,1,0,0,1.1138,optionLeft,60,7560,4,4,0,4,0,1,,,,,,,,,,,,,,,,,,,,,,,,,,,,,,,,,,,,,,,
,,,,,,,,2023-08-16_08h49.55.515,HF_wild_card,2022.2.4,Win32,64.17661404,60a3e2171e2b64e740408760,64d2fd46c836a06233681665,64dc7f0e55301b020c696235,,,,,,,sngl,resources/DB.BMP,resources/Empty.png,Door3,-0.386898117,-0.050925941,1,0,0,0.8131,optionLeft,70,7630,4,5,0,5,0,1,,,,,,,,,,,,,,,,,,,,,,,,,,,,,,,,,,,,,,,
,,,,,,,,2023-08-16_08h49.55.515,HF_wild_card,2022.2.4,Win32,64.17661404,60a3e2171e2b64e740408760,64d2fd46c836a06233681665,64dc7f0e55301b020c696235,,,,,,,ctch,resources/DB.BMP,resources/DBN.BMP,Door3,-0.335972252,0.037962914,1,0,0,1.4466,optionLeft,70,7700,4,6,0,6,0,1,,,,,,,,,,,,,,,,,,,,,,,,,,,,,,,,,,,,,,,
,,,,,,,,2023-08-16_08h49.55.515,HF_wild_card,2022.2.4,Win32,64.17661404,60a3e2171e2b64e740408760,64d2fd46c836a06233681665,64dc7f0e55301b020c696235,,,,,,,decisionTrl,resources/DP.BMP,resources/DBN.BMP,WildCard_Ex,-0.356342583,0.056481476,1,0,0,1.8132,optionLeft,45,7745,4,7,0,7,0,1,,,,,,,,,,,,,,,,,,,,,,,,,,,,,,,,,,,,,,,
,,,,,,,,2023-08-16_08h49.55.515,HF_wild_card,2022.2.4,Win32,64.17661404,60a3e2171e2b64e740408760,64d2fd46c836a06233681665,64dc7f0e55301b020c696235,,,,,,,sngl,resources/DP.BMP,resources/Empty.png,WildCard_Ex,-0.353564796,0.008333321,1,0,0,0.8299,optionLeft,55,7800,4,8,0,8,0,1,,,,,,,,,,,,,,,,,,,,,,,,,,,,,,,,,,,,,,,
,,,,,,,,2023-08-16_08h49.55.515,HF_wild_card,2022.2.4,Win32,64.17661404,60a3e2171e2b64e740408760,64d2fd46c836a06233681665,64dc7f0e55301b020c696235,,,,,,,decisionTrl,resources/DG.BMP,resources/DB.BMP,Door4,-0.398009224,0.021296272,1,0,0,1.3301,optionLeft,80,7880,4,9,0,9,0,1,,,,,,,,,,,,,,,,,,,,,,,,,,,,,,,,,,,,,,,
,,,,,,,,2023-08-16_08h49.55.515,HF_wild_card,2022.2.4,Win32,64.17661404,60a3e2171e2b64e740408760,64d2fd46c836a06233681665,64dc7f0e55301b020c696235,,,,,,,decisionTrl,resources/DY.BMP,resources/DBN.BMP,Door1,-0.248935165,-0.013888931,1,0,0,1.5801,optionLeft,30,7910,4,10,0,10,0,1,,,,,,,,,,,,,,,,,,,,,,,,,,,,,,,,,,,,,,,
,,,,,,,,2023-08-16_08h49.55.515,HF_wild_card,2022.2.4,Win32,64.17661404,60a3e2171e2b64e740408760,64d2fd46c836a06233681665,64dc7f0e55301b020c696235,,,,,,,decisionTrl,resources/DP.BMP,resources/DY.BMP,WildCard_Ex,-0.298009224,0.029629593,1,0,0,1.6304,optionLeft,45,7955,4,11,0,11,0,1,,,,,,,,,,,,,,,,,,,,,,,,,,,,,,,,,,,,,,,
,,,,,,,,2023-08-16_08h49.55.515,HF_wild_card,2022.2.4,Win32,64.17661404,60a3e2171e2b64e740408760,64d2fd46c836a06233681665,64dc7f0e55301b020c696235,,,,,,,decisionTrl,resources/DBN.BMP,resources/DY.BMP,Door1,0.292731552,0.035185127,1,0,0,1.3636,optionRight,30,7985,4,12,0,12,0,1,,,,,,,,,,,,,,,,,,,,,,,,,,,,,,,,,,,,,,,
,,,,,,,,2023-08-16_08h49.55.515,HF_wild_card,2022.2.4,Win32,64.17661404,60a3e2171e2b64e740408760,64d2fd46c836a06233681665,64dc7f0e55301b020c696235,,,,,,,decisionTrl,resources/DG.BMP,resources/DB.BMP,Door4,-0.30171299,0.0157407,1,0,0,1.1798,optionLeft,80,8065,4,13,0,13,0,1,,,,,,,,,,,,,,,,,,,,,,,,,,,,,,,,,,,,,,,
,,,,,,,,2023-08-16_08h49.55.515,HF_wild_card,2022.2.4,Win32,64.17661404,60a3e2171e2b64e740408760,64d2fd46c836a06233681665,64dc7f0e55301b020c696235,,,,,,,sngl,resources/DY.BMP,resources/Empty.png,Door1,-0.295231438,0.025925903,1,0,0,1.4308,optionLeft,30,8095,4,14,0,14,0,1,,,,,,,,,,,,,,,,,,,,,,,,,,,,,,,,,,,,,,,
,,,,,,,,2023-08-16_08h49.55.515,HF_wild_card,2022.2.4,Win32,64.17661404,60a3e2171e2b64e740408760,64d2fd46c836a06233681665,64dc7f0e55301b020c696235,,,,,,,decisionTrl,resources/DBN.BMP,resources/DY.BMP,Door1,0.299213028,0.056481476,1,0,0,0.9299,optionRight,30,8125,4,15,0,15,0,1,,,,,,,,,,,,,,,,,,,,,,,,,,,,,,,,,,,,,,,
,,,,,,,,2023-08-16_08h49.55.515,HF_wild_card,2022.2.4,Win32,64.17661404,60a3e2171e2b64e740408760,64d2fd46c836a06233681665,64dc7f0e55301b020c696235,,,,,,,sngl,resources/Empty.png,resources/DBN.BMP,Door2,0.31032402,0.112962914,1,0,0,1.5132,optionRight,40,8165,4,16,0,16,0,1,,,,,,,,,,,,,,,,,,,,,,,,,,,,,,,,,,,,,,,
,,,,,,,,2023-08-16_08h49.55.515,HF_wild_card,2022.2.4,Win32,64.17661404,60a3e2171e2b64e740408760,64d2fd46c836a06233681665,64dc7f0e55301b020c696235,,,,,,,decisionTrl,resources/DBN.BMP,resources/DP.BMP,WildCard_Ex,0.28347229,0.010185165,1,0,0,1.0461,optionRight,45,8210,4,17,0,17,0,1,,,,,,,,,,,,,,,,,,,,,,,,,,,,,,,,,,,,,,,
,,,,,,,,2023-08-16_08h49.55.515,HF_wild_card,2022.2.4,Win32,64.17661404,60a3e2171e2b64e740408760,64d2fd46c836a06233681665,64dc7f0e55301b020c696235,,,,,,,decisionTrl,resources/DY.BMP,resources/DBN.BMP,Door1,-0.336898117,0.030555534,1,0,0,1.3303,optionLeft,30,8240,4,18,0,18,0,1,,,,,,,,,,,,,,,,,,,,,,,,,,,,,,,,,,,,,,,
,,,,,,,,2023-08-16_08h49.55.515,HF_wild_card,2022.2.4,Win32,64.17661404,60a3e2171e2b64e740408760,64d2fd46c836a06233681665,64dc7f0e55301b020c696235,,,,,,,decisionTrl,resources/DP.BMP,resources/DB.BMP,Door3,0.440879669,0.097222214,1,0,0,2.3794,optionRight,70,8310,4,19,0,19,0,1,,,,,,,,,,,,,,,,,,,,,,,,,,,,,,,,,,,,,,,
,,,,,,,,2023-08-16_08h49.55.515,HF_wild_card,2022.2.4,Win32,64.17661404,60a3e2171e2b64e740408760,64d2fd46c836a06233681665,64dc7f0e55301b020c696235,,,,,,,decisionTrl,resources/DY.BMP,resources/DP.BMP,WildCard_Ex,0.314953766,0.112962914,1,0,0,1.231,optionRight,55,8365,4,20,0,20,0,1,,,,,,,,,,,,,,,,,,,,,,,,,,,,,,,,,,,,,,,
,,,,,,,,2023-08-16_08h49.55.515,HF_wild_card,2022.2.4,Win32,64.17661404,60a3e2171e2b64e740408760,64d2fd46c836a06233681665,64dc7f0e55301b020c696235,,,,,,,decisionTrl,resources/DY.BMP,resources/DBN.BMP,Door1,-0.30171299,0.051851845,1,0,0,1.0634,optionLeft,30,8395,4,21,0,21,0,1,,,,,,,,,,,,,,,,,,,,,,,,,,,,,,,,,,,,,,,
,,,,,,,,2023-08-16_08h49.55.515,HF_wild_card,2022.2.4,Win32,64.17661404,60a3e2171e2b64e740408760,64d2fd46c836a06233681665,64dc7f0e55301b020c696235,,,,,,,decisionTrl,resources/DB.BMP,resources/DP.BMP,Door3,-0.366527748,0.064814796,1,0,0,1.9799,optionLeft,70,8465,4,22,0,22,0,1,,,,,,,,,,,,,,,,,,,,,,,,,,,,,,,,,,,,,,,
,,,,,,,,2023-08-16_08h49.55.515,HF_wild_card,2022.2.4,Win32,64.17661404,60a3e2171e2b64e740408760,64d2fd46c836a06233681665,64dc7f0e55301b020c696235,,,,,,,sngl,resources/Empty.png,resources/DP.BMP,WildCard_Ex,0.31217598,0.084259224,1,0,0,0.9469,optionRight,45,8510,4,23,0,23,0,1,,,,,,,,,,,,,,,,,,,,,,,,,,,,,,,,,,,,,,,
,,,,,,,,2023-08-16_08h49.55.515,HF_wild_card,2022.2.4,Win32,64.17661404,60a3e2171e2b64e740408760,64d2fd46c836a06233681665,64dc7f0e55301b020c696235,,,,,,,sngl,resources/Empty.png,resources/DY.BMP,Door1,0.321435242,0.073148117,1,0,0,0.7973,optionRight,30,8540,4,24,0,24,0,1,,,,,,,,,,,,,,,,,,,,,,,,,,,,,,,,,,,,,,,
,,,,,,,,2023-08-16_08h49.55.515,HF_wild_card,2022.2.4,Win32,64.17661404,60a3e2171e2b64e740408760,64d2fd46c836a06233681665,64dc7f0e55301b020c696235,,,,,,,ctch,resources/DY.BMP,resources/DG.BMP,Door4,0.374213028,0.068518486,1,0,0,1.2799,optionRight,60,8600,4,25,0,25,0,1,,,,,,,,,,,,,,,,,,,,,,,,,,,,,,,,,,,,,,,
,,,,,,,,2023-08-16_08h49.55.515,HF_wild_card,2022.2.4,Win32,64.17661404,60a3e2171e2b64e740408760,64d2fd46c836a06233681665,64dc7f0e55301b020c696235,,,,,,,decisionTrl,resources/DBN.BMP,resources/DY.BMP,Door1,0.301064758,0.078703728,1,0,0,1.8129,optionRight,30,8630,4,26,0,26,0,1,,,,,,,,,,,,,,,,,,,,,,,,,,,,,,,,,,,,,,,
,,,,,,,,2023-08-16_08h49.55.515,HF_wild_card,2022.2.4,Win32,64.17661404,60a3e2171e2b64e740408760,64d2fd46c836a06233681665,64dc7f0e55301b020c696235,,,,,,,ctch,resources/DY.BMP,resources/DG.BMP,Door4,0.355694504,0.098148117,1,0,0,1.2295,optionRight,60,8690,4,27,0,27,0,1,,,,,,,,,,,,,,,,,,,,,,,,,,,,,,,,,,,,,,,
,,,,,,,,2023-08-16_08h49.55.515,HF_wild_card,2022.2.4,Win32,64.17661404,60a3e2171e2b64e740408760,64d2fd46c836a06233681665,64dc7f0e55301b020c696235,,,,,,,sngl,resources/Empty.png,resources/DG.BMP,Door4,0.344583282,0.035185127,1,0,0,0.7138,optionRight,80,8770,4,28,0,28,0,1,,,,,,,,,,,,,,,,,,,,,,,,,,,,,,,,,,,,,,,
,,,,,,,,2023-08-16_08h49.55.515,HF_wild_card,2022.2.4,Win32,64.17661404,60a3e2171e2b64e740408760,64d2fd46c836a06233681665,64dc7f0e55301b020c696235,,,,,,,decisionTrl,resources/DG.BMP,resources/DB.BMP,Door4,-0.321157379,0.084259224,1,0,0,1.247,optionLeft,80,8850,4,29,0,29,0,1,,,,,,,,,,,,,,,,,,,,,,,,,,,,,,,,,,,,,,,
,,,,,,,,2023-08-16_08h49.55.515,HF_wild_card,2022.2.4,Win32,64.17661404,60a3e2171e2b64e740408760,64d2fd46c836a06233681665,64dc7f0e55301b020c696235,,,,,,,sngl,resources/DBN.BMP,resources/Empty.png,Door2,-0.260046272,0.024999962,1,0,0,0.9801,optionLeft,20,8870,4,30,0,30,0,1,,,,,,,,,,,,,,,,,,,,,,,,,,,,,,,,,,,,,,,
,,,,,,,,2023-08-16_08h49.55.515,HF_wild_card,2022.2.4,Win32,64.17661404,60a3e2171e2b64e740408760,64d2fd46c836a06233681665,64dc7f0e55301b020c696235,,,,,,,decisionTrl,resources/DB.BMP,resources/DG.BMP,Door4,0.326990814,0.06203701,1,0,0,1.663,optionRight,80,8950,4,31,0,31,0,1,,,,,,,,,,,,,,,,,,,,,,,,,,,,,,,,,,,,,,,
,,,,,,,,2023-08-16_08h49.55.515,HF_wild_card,2022.2.4,Win32,64.17661404,60a3e2171e2b64e740408760,64d2fd46c836a06233681665,64dc7f0e55301b020c696235,,,,,,,ctch,resources/DG.BMP,resources/DY.BMP,Door4,-0.293379593,0.072222214,1,0,0,1.3117,optionLeft,60,9010,4,32,0,32,0,1,,,,,,,,,,,,,,,,,,,,,,,,,,,,,,,,,,,,,,,
,,,,,,,,2023-08-16_08h49.55.515,HF_wild_card,2022.2.4,Win32,64.17661404,60a3e2171e2b64e740408760,64d2fd46c836a06233681665,64dc7f0e55301b020c696235,,,,,,,decisionTrl,resources/DB.BMP,resources/DG.BMP,Door4,0.356620407,0.054629593,1,0,0,1.0138,optionRight,60,9070,4,33,0,33,0,1,,,,,,,,,,,,,,,,,,,,,,,,,,,,,,,,,,,,,,,
,,,,,,,,2023-08-16_08h49.55.515,HF_wild_card,2022.2.4,Win32,64.17661404,60a3e2171e2b64e740408760,64d2fd46c836a06233681665,64dc7f0e55301b020c696235,,,,,,,ctch,resources/DB.BMP,resources/DBN.BMP,Door3,-0.2544907,-0.001851883,1,0,0,1.0968,optionLeft,70,9140,4,34,0,34,0,1,,,,,,,,,,,,,,,,,,,,,,,,,,,,,,,,,,,,,,,
,,,,,,,,2023-08-16_08h49.55.515,HF_wild_card,2022.2.4,Win32,64.17661404,60a3e2171e2b64e740408760,64d2fd46c836a06233681665,64dc7f0e55301b020c696235,,,,,,,decisionTrl,resources/DP.BMP,resources/DG.BMP,Door4,0.399212952,0.121296234,1,0,0,1.6968,optionRight,60,9200,4,35,0,35,0,1,,,,,,,,,,,,,,,,,,,,,,,,,,,,,,,,,,,,,,,
,,,,,,,,2023-08-16_08h49.55.515,HF_wild_card,2022.2.4,Win32,64.17661404,60a3e2171e2b64e740408760,64d2fd46c836a06233681665,64dc7f0e55301b020c696235,,,,,,,sngl,resources/DG.BMP,resources/Empty.png,Door4,-0.259120331,0.042592583,1,0,0,0.8465,optionLeft,60,9260,4,36,0,36,0,1,,,,,,,,,,,,,,,,,,,,,,,,,,,,,,,,,,,,,,,
,,,,,,,,2023-08-16_08h49.55.515,HF_wild_card,2022.2.4,Win32,64.17661404,60a3e2171e2b64e740408760,64d2fd46c836a06233681665,64dc7f0e55301b020c696235,,,,,,,decisionTrl,resources/DB.BMP,resources/DG.BMP,Door4,0.38717598,0.032407341,1,0,0,1.9965,optionRight,60,9320,4,37,0,37,0,1,,,,,,,,,,,,,,,,,,,,,,,,,,,,,,,,,,,,,,,
,,,,,,,,2023-08-16_08h49.55.515,HF_wild_card,2022.2.4,Win32,64.17661404,60a3e2171e2b64e740408760,64d2fd46c836a06233681665,64dc7f0e55301b020c696235,,,,,,,decisionTrl,resources/DBN.BMP,resources/DY.BMP,Door1,0.289953766,0.078703728,1,0,0,1.1459,optionRight,30,9350,4,38,0,38,0,1,,,,,,,,,,,,,,,,,,,,,,,,,,,,,,,,,,,,,,,
,,,,,,,,2023-08-16_08h49.55.515,HF_wild_card,2022.2.4,Win32,64.17661404,60a3e2171e2b64e740408760,64d2fd46c836a06233681665,64dc7f0e55301b020c696235,,,,,,,sngl,resources/DP.BMP,resources/Empty.png,WildCard_Ex,-0.32671299,0.024074059,1,0,0,0.6134,optionLeft,45,9395,4,39,0,39,0,1,,,,,,,,,,,,,,,,,,,,,,,,,,,,,,,,,,,,,,,
,,,,,,,,2023-08-16_08h49.55.515,HF_wild_card,2022.2.4,Win32,64.17661404,60a3e2171e2b64e740408760,64d2fd46c836a06233681665,64dc7f0e55301b020c696235,,,,,,,ctch,resources/DG.BMP,resources/DY.BMP,Door4,-0.2544907,0.001851845,1,0,0,1.1966,optionLeft,80,9475,4,40,0,40,0,1,,,,,,,,,,,,,,,,,,,,,,,,,,,,,,,,,,,,,,,
,,,,,,,,2023-08-16_08h49.55.515,HF_wild_card,2022.2.4,Win32,64.17661404,60a3e2171e2b64e740408760,64d2fd46c836a06233681665,64dc7f0e55301b020c696235,,,,,,,decisionTrl,resources/DG.BMP,resources/DP.BMP,Door4,-0.421157341,-0.014814835,1,0,0,1.7133,optionLeft,60,9535,4,41,0,41,0,1,,,,,,,,,,,,,,,,,,,,,,,,,,,,,,,,,,,,,,,
,,,,,,,,2023-08-16_08h49.55.515,HF_wild_card,2022.2.4,Win32,64.17661404,60a3e2171e2b64e740408760,64d2fd46c836a06233681665,64dc7f0e55301b020c696235,,,,,,,decisionTrl,resources/DY.BMP,resources/DBN.BMP,Door2,0.056620331,0.151851845,1,0,0,2.2629,optionRight,40,9575,4,42,0,42,0,1,,,,,,,,,,,,,,,,,,,,,,,,,,,,,,,,,,,,,,,
,,,,,,,,2023-08-16_08h49.55.515,HF_wild_card,2022.2.4,Win32,64.17661404,60a3e2171e2b64e740408760,64d2fd46c836a06233681665,64dc7f0e55301b020c696235,,,,,,,ctch,resources/DBN.BMP,resources/DB.BMP,Door3,0.438101959,0.087962914,1,0,0,1.2969,optionRight,70,9645,4,43,0,43,0,1,,,,,,,,,,,,,,,,,,,,,,,,,,,,,,,,,,,,,,,
,,,,,,,,2023-08-16_08h49.55.515,HF_wild_card,2022.2.4,Win32,64.17661404,60a3e2171e2b64e740408760,64d2fd46c836a06233681665,64dc7f0e55301b020c696235,,,,,,,,,,,,,,,,,,,,,,,,,,3,0,3,0,1,,,,,,,,,,,,,,,,,,,,,,,,,,,,,,,,,,
,,,,,,,,2023-08-16_08h49.55.515,HF_wild_card,2022.2.4,Win32,64.17661404,60a3e2171e2b64e740408760,64d2fd46c836a06233681665,64dc7f0e55301b020c696235,,,,,,,decisionTrl,resources/DP.BMP,resources/DY.BMP,WildCard_Ex,-0.333194427,0.019444427,1,0,0,1.4616,optionLeft,55,9700,5,0,0,0,0,1,,,,,,,,,,,,,,,,,,,,,,,,,,,,,,,,,,,,,,,
,,,,,,,,2023-08-16_08h49.55.515,HF_wild_card,2022.2.4,Win32,64.17661404,60a3e2171e2b64e740408760,64d2fd46c836a06233681665,64dc7f0e55301b020c696235,,,,,,,decisionTrl,resources/DB.BMP,resources/DG.BMP,Door4,0.377916718,0.091666641,1,0,0,1.2968,optionRight,80,9780,5,1,0,1,0,1,,,,,,,,,,,,,,,,,,,,,,,,,,,,,,,,,,,,,,,
,,,,,,,,2023-08-16_08h49.55.515,HF_wild_card,2022.2.4,Win32,64.17661404,60a3e2171e2b64e740408760,64d2fd46c836a06233681665,64dc7f0e55301b020c696235,,,,,,,sngl,resources/Empty.png,resources/DBN.BMP,Door2,0.294583282,0.058333359,1,0,0,0.6801,optionRight,20,9800,5,2,0,2,0,1,,,,,,,,,,,,,,,,,,,,,,,,,,,,,,,,,,,,,,,
,,,,,,,,2023-08-16_08h49.55.515,HF_wild_card,2022.2.4,Win32,64.17661404,60a3e2171e2b64e740408760,64d2fd46c836a06233681665,64dc7f0e55301b020c696235,,,,,,,decisionTrl,resources/DG.BMP,resources/DB.BMP,Door4,-0.266527748,-0.002777786,1,0,0,1.2302,optionLeft,60,9860,5,3,0,3,0,1,,,,,,,,,,,,,,,,,,,,,,,,,,,,,,,,,,,,,,,
,,,,,,,,2023-08-16_08h49.55.515,HF_wild_card,2022.2.4,Win32,64.17661404,60a3e2171e2b64e740408760,64d2fd46c836a06233681665,64dc7f0e55301b020c696235,,,,,,,decisionTrl,resources/DB.BMP,resources/DG.BMP,Door3,-0.344305534,0.008333321,1,0,0,1.3134,optionLeft,70,9930,5,4,0,4,0,1,,,,,,,,,,,,,,,,,,,,,,,,,,,,,,,,,,,,,,,
,,,,,,,,2023-08-16_08h49.55.515,HF_wild_card,2022.2.4,Win32,64.17661404,60a3e2171e2b64e740408760,64d2fd46c836a06233681665,64dc7f0e55301b020c696235,,,,,,,sngl,resources/Empty.png,resources/DY.BMP,Door1,0.346435242,0.079629593,1,0,0,0.9599,optionRight,30,9960,5,5,0,5,0,1,,,,,,,,,,,,,,,,,,,,,,,,,,,,,,,,,,,,,,,
,,,,,,,,2023-08-16_08h49.55.515,HF_wild_card,2022.2.4,Win32,64.17661404,60a3e2171e2b64e740408760,64d2fd46c836a06233681665,64dc7f0e55301b020c696235,,,,,,,decisionTrl,resources/DBN.BMP,resources/DY.BMP,Door1,0.376064911,0.087962914,1,0,0,1.5637,optionRight,30,9990,5,6,0,6,0,1,,,,,,,,,,,,,,,,,,,,,,,,,,,,,,,,,,,,,,,
,,,,,,,,2023-08-16_08h49.55.515,HF_wild_card,2022.2.4,Win32,64.17661404,60a3e2171e2b64e740408760,64d2fd46c836a06233681665,64dc7f0e55301b020c696235,,,,,,,decisionTrl,resources/DY.BMP,resources/DBN.BMP,Door2,0.300138931,0.050925903,1,0,0,0.8791,optionRight,20,10010,5,7,0,7,0,1,,,,,,,,,,,,,,,,,,,,,,,,,,,,,,,,,,,,,,,
,,,,,,,,2023-08-16_08h49.55.515,HF_wild_card,2022.2.4,Win32,64.17661404,60a3e2171e2b64e740408760,64d2fd46c836a06233681665,64dc7f0e55301b020c696235,,,,,,,decisionTrl,resources/DP.BMP,resources/DBN.BMP,WildCard_Ex,-0.346157379,0.040740738,1,0,0,1.3295,optionLeft,45,10055,5,8,0,8,0,1,,,,,,,,,,,,,,,,,,,,,,,,,,,,,,,,,,,,,,,
,,,,,,,,2023-08-16_08h49.55.515,HF_wild_card,2022.2.4,Win32,64.17661404,60a3e2171e2b64e740408760,64d2fd46c836a06233681665,64dc7f0e55301b020c696235,,,,,,,sngl,resources/DBN.BMP,resources/Empty.png,Door2,-0.2794907,-0.006481514,1,0,0,0.6129,optionLeft,40,10095,5,9,0,9,0,1,,,,,,,,,,,,,,,,,,,,,,,,,,,,,,,,,,,,,,,
,,,,,,,,2023-08-16_08h49.55.515,HF_wild_card,2022.2.4,Win32,64.17661404,60a3e2171e2b64e740408760,64d2fd46c836a06233681665,64dc7f0e55301b020c696235,,,,,,,ctch,resources/DB.BMP,resources/DBN.BMP,Door3,-0.391527748,0.061111107,1,0,0,1.1117,optionLeft,70,10165,5,10,0,10,0,1,,,,,,,,,,,,,,,,,,,,,,,,,,,,,,,,,,,,,,,
,,,,,,,,2023-08-16_08h49.55.515,HF_wild_card,2022.2.4,Win32,64.17661404,60a3e2171e2b64e740408760,64d2fd46c836a06233681665,64dc7f0e55301b020c696235,,,,,,,ctch,resources/DG.BMP,resources/DY.BMP,Door4,-0.32671299,0.03703701,1,0,0,1.5468,optionLeft,60,10225,5,11,0,11,0,1,,,,,,,,,,,,,,,,,,,,,,,,,,,,,,,,,,,,,,,
,,,,,,,,2023-08-16_08h49.55.515,HF_wild_card,2022.2.4,Win32,64.17661404,60a3e2171e2b64e740408760,64d2fd46c836a06233681665,64dc7f0e55301b020c696235,,,,,,,sngl,resources/Empty.png,resources/DP.BMP,WildCard_Ex,0.33717598,0.060185127,1,0,0,0.7635,optionRight,55,10280,5,12,0,12,0,1,,,,,,,,,,,,,,,,,,,,,,,,,,,,,,,,,,,,,,,
,,,,,,,,2023-08-16_08h49.55.515,HF_wild_card,2022.2.4,Win32,64.17661404,60a3e2171e2b64e740408760,64d2fd46c836a06233681665,64dc7f0e55301b020c696235,,,,,,,sngl,resources/DY.BMP,resources/Empty.png,Door1,-0.256342545,0.043518486,1,0,0,0.6623,optionLeft,30,10310,5,13,0,13,0,1,,,,,,,,,,,,,,,,,,,,,,,,,,,,,,,,,,,,,,,
,,,,,,,,2023-08-16_08h49.55.515,HF_wild_card,2022.2.4,Win32,64.17661404,60a3e2171e2b64e740408760,64d2fd46c836a06233681665,64dc7f0e55301b020c696235,,,,,,,decisionTrl,resources/DP.BMP,resources/DB.BMP,Door3,0.339027863,0.069444427,1,0,0,2.1285,optionRight,70,10380,5,14,0,14,0,1,,,,,,,,,,,,,,,,,,,,,,,,,,,,,,,,,,,,,,,
,,,,,,,,2023-08-16_08h49.55.515,HF_wild_card,2022.2.4,Win32,64.17661404,60a3e2171e2b64e740408760,64d2fd46c836a06233681665,64dc7f0e55301b020c696235,,,,,,,decisionTrl,resources/DY.BMP,resources/DP.BMP,WildCard_Ex,0.307546387,-0.023148117,1,0,0,4.0795,optionRight,55,10435,5,15,0,15,0,1,,,,,,,,,,,,,,,,,,,,,,,,,,,,,,,,,,,,,,,
,,,,,,,,2023-08-16_08h49.55.515,HF_wild_card,2022.2.4,Win32,64.17661404,60a3e2171e2b64e740408760,64d2fd46c836a06233681665,64dc7f0e55301b020c696235,,,,,,,decisionTrl,resources/DG.BMP,resources/DB.BMP,Door3,0.399212952,0.125,1,0,0,2.6293,optionRight,70,10505,5,16,0,16,0,1,,,,,,,,,,,,,,,,,,,,,,,,,,,,,,,,,,,,,,,
,,,,,,,,2023-08-16_08h49.55.515,HF_wild_card,2022.2.4,Win32,64.17661404,60a3e2171e2b64e740408760,64d2fd46c836a06233681665,64dc7f0e55301b020c696235,,,,,,,ctch,resources/DY.BMP,resources/DG.BMP,Door4,0.301990814,0.057407341,1,0,0,1.4971,optionRight,60,10565,5,17,0,17,0,1,,,,,,,,,,,,,,,,,,,,,,,,,,,,,,,,,,,,,,,
,,,,,,,,2023-08-16_08h49.55.515,HF_wild_card,2022.2.4,Win32,64.17661404,60a3e2171e2b64e740408760,64d2fd46c836a06233681665,64dc7f0e55301b020c696235,,,,,,,ctch,resources/DBN.BMP,resources/DB.BMP,Door3,0.378842545,0.01203701,1,0,0,1.0137,optionRight,70,10635,5,18,0,18,0,1,,,,,,,,,,,,,,,,,,,,,,,,,,,,,,,,,,,,,,,
,,,,,,,,2023-08-16_08h49.55.515,HF_wild_card,2022.2.4,Win32,64.17661404,60a3e2171e2b64e740408760,64d2fd46c836a06233681665,64dc7f0e55301b020c696235,,,,,,,decisionTrl,resources/DBN.BMP,resources/DY.BMP,Door1,0.338101883,0.042592583,1,0,0,1.1798,optionRight,30,10665,5,19,0,19,0,1,,,,,,,,,,,,,,,,,,,,,,,,,,,,,,,,,,,,,,,
,,,,,,,,2023-08-16_08h49.55.515,HF_wild_card,2022.2.4,Win32,64.17661404,60a3e2171e2b64e740408760,64d2fd46c836a06233681665,64dc7f0e55301b020c696235,,,,,,,decisionTrl,resources/DY.BMP,resources/DBN.BMP,Door2,0.328842545,-0.006481514,1,0,0,1.0137,optionRight,20,10685,5,20,0,20,0,1,,,,,,,,,,,,,,,,,,,,,,,,,,,,,,,,,,,,,,,
,,,,,,,,2023-08-16_08h49.55.515,HF_wild_card,2022.2.4,Win32,64.17661404,60a3e2171e2b64e740408760,64d2fd46c836a06233681665,64dc7f0e55301b020c696235,,,,,,,sngl,resources/DG.BMP,resources/Empty.png,Door4,-0.310046272,0.025925903,1,0,0,0.6477,optionLeft,80,10765,5,21,0,21,0,1,,,,,,,,,,,,,,,,,,,,,,,,,,,,,,,,,,,,,,,
,,,,,,,,2023-08-16_08h49.55.515,HF_wild_card,2022.2.4,Win32,64.17661404,60a3e2171e2b64e740408760,64d2fd46c836a06233681665,64dc7f0e55301b020c696235,,,,,,,ctch,resources/DB.BMP,resources/DBN.BMP,Door3,-0.327638855,0.026851845,1,0,0,1.2805,optionLeft,70,10835,5,22,0,22,0,1,,,,,,,,,,,,,,,,,,,,,,,,,,,,,,,,,,,,,,,
,,,,,,,,2023-08-16_08h49.55.515,HF_wild_card,2022.2.4,Win32,64.17661404,60a3e2171e2b64e740408760,64d2fd46c836a06233681665,64dc7f0e55301b020c696235,,,,,,,decisionTrl,resources/DG.BMP,resources/DB.BMP,Door3,0.428842468,0.083333359,1,0,0,1.9631,optionRight,70,10905,5,23,0,23,0,1,,,,,,,,,,,,,,,,,,,,,,,,,,,,,,,,,,,,,,,
,,,,,,,,2023-08-16_08h49.55.515,HF_wild_card,2022.2.4,Win32,64.17661404,60a3e2171e2b64e740408760,64d2fd46c836a06233681665,64dc7f0e55301b020c696235,,,,,,,decisionTrl,resources/DY.BMP,resources/DBN.BMP,Door1,-0.247083282,0.00370369,1,0,0,1.8145,optionLeft,30,10935,5,24,0,24,0,1,,,,,,,,,,,,,,,,,,,,,,,,,,,,,,,,,,,,,,,
,,,,,,,,2023-08-16_08h49.55.515,HF_wild_card,2022.2.4,Win32,64.17661404,60a3e2171e2b64e740408760,64d2fd46c836a06233681665,64dc7f0e55301b020c696235,,,,,,,ctch,resources/DG.BMP,resources/DY.BMP,Door4,-0.368379593,0.035185127,1,0,0,1.0955,optionLeft,60,10995,5,25,0,25,0,1,,,,,,,,,,,,,,,,,,,,,,,,,,,,,,,,,,,,,,,
,,,,,,,,2023-08-16_08h49.55.515,HF_wild_card,2022.2.4,Win32,64.17661404,60a3e2171e2b64e740408760,64d2fd46c836a06233681665,64dc7f0e55301b020c696235,,,,,,,decisionTrl,resources/DB.BMP,resources/DP.BMP,Door3,-0.331342621,0.047222214,1,0,0,1.9301,optionLeft,70,11065,5,26,0,26,0,1,,,,,,,,,,,,,,,,,,,,,,,,,,,,,,,,,,,,,,,
,,,,,,,,2023-08-16_08h49.55.515,HF_wild_card,2022.2.4,Win32,64.17661404,60a3e2171e2b64e740408760,64d2fd46c836a06233681665,64dc7f0e55301b020c696235,,,,,,,decisionTrl,resources/DBN.BMP,resources/DY.BMP,Door1,0.389953766,0.028703728,1,0,0,1.264,optionRight,30,11095,5,27,0,27,0,1,,,,,,,,,,,,,,,,,,,,,,,,,,,,,,,,,,,,,,,
,,,,,,,,2023-08-16_08h49.55.515,HF_wild_card,2022.2.4,Win32,64.17661404,60a3e2171e2b64e740408760,64d2fd46c836a06233681665,64dc7f0e55301b020c696235,,,,,,,decisionTrl,resources/DP.BMP,resources/DG.BMP,Door4,0.425139008,0.109259224,1,0,0,1.4457,optionRight,60,11155,5,28,0,28,0,1,,,,,,,,,,,,,,,,,,,,,,,,,,,,,,,,,,,,,,,
,,,,,,,,2023-08-16_08h49.55.515,HF_wild_card,2022.2.4,Win32,64.17661404,60a3e2171e2b64e740408760,64d2fd46c836a06233681665,64dc7f0e55301b020c696235,,,,,,,decisionTrl,resources/DBN.BMP,resources/DP.BMP,WildCard_Ex,0.324213028,0.073148117,1,0,0,1.631,optionRight,45,11200,5,29,0,29,0,1,,,,,,,,,,,,,,,,,,,,,,,,,,,,,,,,,,,,,,,
,,,,,,,,2023-08-16_08h49.55.515,HF_wild_card,2022.2.4,Win32,64.17661404,60a3e2171e2b64e740408760,64d2fd46c836a06233681665,64dc7f0e55301b020c696235,,,,,,,ctch,resources/DY.BMP,resources/DG.BMP,Door4,0.318657455,0.028703728,1,0,0,1.9964,optionRight,60,11260,5,30,0,30,0,1,,,,,,,,,,,,,,,,,,,,,,,,,,,,,,,,,,,,,,,
,,,,,,,,2023-08-16_08h49.55.515,HF_wild_card,2022.2.4,Win32,64.17661404,60a3e2171e2b64e740408760,64d2fd46c836a06233681665,64dc7f0e55301b020c696235,,,,,,,decisionTrl,resources/DG.BMP,resources/DB.BMP,Door3,0.282546387,0.028703728,1,0,0,1.8635,optionRight,70,11330,5,31,0,31,0,1,,,,,,,,,,,,,,,,,,,,,,,,,,,,,,,,,,,,,,,
,,,,,,,,2023-08-16_08h49.55.515,HF_wild_card,2022.2.4,Win32,64.17661404,60a3e2171e2b64e740408760,64d2fd46c836a06233681665,64dc7f0e55301b020c696235,,,,,,,ctch,resources/DBN.BMP,resources/DB.BMP,Door3,0.26217598,0.042592583,1,0,0,1.1141,optionRight,70,11400,5,32,0,32,0,1,,,,,,,,,,,,,,,,,,,,,,,,,,,,,,,,,,,,,,,
,,,,,,,,2023-08-16_08h49.55.515,HF_wild_card,2022.2.4,Win32,64.17661404,60a3e2171e2b64e740408760,64d2fd46c836a06233681665,64dc7f0e55301b020c696235,,,,,,,sngl,resources/DP.BMP,resources/Empty.png,WildCard_Ex,-0.349861069,0.020370331,1,0,0,0.8302,optionLeft,55,11455,5,33,0,33,0,1,,,,,,,,,,,,,,,,,,,,,,,,,,,,,,,,,,,,,,,
,,,,,,,,2023-08-16_08h49.55.515,HF_wild_card,2022.2.4,Win32,64.17661404,60a3e2171e2b64e740408760,64d2fd46c836a06233681665,64dc7f0e55301b020c696235,,,,,,,sngl,resources/Empty.png,resources/DP.BMP,WildCard_Ex,0.359398193,0.032407341,1,0,0,0.7319,optionRight,45,11500,5,34,0,34,0,1,,,,,,,,,,,,,,,,,,,,,,,,,,,,,,,,,,,,,,,
,,,,,,,,2023-08-16_08h49.55.515,HF_wild_card,2022.2.4,Win32,64.17661404,60a3e2171e2b64e740408760,64d2fd46c836a06233681665,64dc7f0e55301b020c696235,,,,,,,sngl,resources/DB.BMP,resources/Empty.png,Door3,-0.341527748,0.024999962,1,0,0,0.9637,optionLeft,70,11570,5,35,0,35,0,1,,,,,,,,,,,,,,,,,,,,,,,,,,,,,,,,,,,,,,,
,,,,,,,,2023-08-16_08h49.55.515,HF_wild_card,2022.2.4,Win32,64.17661404,60a3e2171e2b64e740408760,64d2fd46c836a06233681665,64dc7f0e55301b020c696235,,,,,,,sngl,resources/Empty.png,resources/DB.BMP,Door3,0.33347229,0.043518486,1,0,0,1.5969,optionRight,70,11640,5,36,0,36,0,1,,,,,,,,,,,,,,,,,,,,,,,,,,,,,,,,,,,,,,,
,,,,,,,,2023-08-16_08h49.55.515,HF_wild_card,2022.2.4,Win32,64.17661404,60a3e2171e2b64e740408760,64d2fd46c836a06233681665,64dc7f0e55301b020c696235,,,,,,,decisionTrl,resources/DY.BMP,resources/DBN.BMP,Door1,-0.207268524,0.088888855,1,0,0,2.3632,optionLeft,30,11670,5,37,0,37,0,1,,,,,,,,,,,,,,,,,,,,,,,,,,,,,,,,,,,,,,,
,,,,,,,,2023-08-16_08h49.55.515,HF_wild_card,2022.2.4,Win32,64.17661404,60a3e2171e2b64e740408760,64d2fd46c836a06233681665,64dc7f0e55301b020c696235,,,,,,,decisionTrl,resources/DB.BMP,resources/DG.BMP,Door3,-0.428564835,0.051851845,1,0,0,1.8793,optionLeft,70,11740,5,38,0,38,0,1,,,,,,,,,,,,,,,,,,,,,,,,,,,,,,,,,,,,,,,
,,,,,,,,2023-08-16_08h49.55.515,HF_wild_card,2022.2.4,Win32,64.17661404,60a3e2171e2b64e740408760,64d2fd46c836a06233681665,64dc7f0e55301b020c696235,,,,,,,decisionTrl,resources/DBN.BMP,resources/DY.BMP,Door1,0.33347229,0.102777748,1,0,0,2.2125,optionRight,30,11770,5,39,0,39,0,1,,,,,,,,,,,,,,,,,,,,,,,,,,,,,,,,,,,,,,,
,,,,,,,,2023-08-16_08h49.55.515,HF_wild_card,2022.2.4,Win32,64.17661404,60a3e2171e2b64e740408760,64d2fd46c836a06233681665,64dc7f0e55301b020c696235,,,,,,,decisionTrl,resources/DB.BMP,resources/DG.BMP,Door4,0.340879669,0.087962914,1,0,0,1.7624,optionRight,60,11830,5,40,0,40,0,1,,,,,,,,,,,,,,,,,,,,,,,,,,,,,,,,,,,,,,,
,,,,,,,,2023-08-16_08h49.55.515,HF_wild_card,2022.2.4,Win32,64.17661404,60a3e2171e2b64e740408760,64d2fd46c836a06233681665,64dc7f0e55301b020c696235,,,,,,,sngl,resources/DP.BMP,resources/Empty.png,WildCard_Ex,-0.285046272,0.072222214,1,0,0,0.9627,optionLeft,45,11875,5,41,0,41,0,1,,,,,,,,,,,,,,,,,,,,,,,,,,,,,,,,,,,,,,,
,,,,,,,,2023-08-16_08h49.55.515,HF_wild_card,2022.2.4,Win32,64.17661404,60a3e2171e2b64e740408760,64d2fd46c836a06233681665,64dc7f0e55301b020c696235,,,,,,,decisionTrl,resources/DG.BMP,resources/DP.BMP,Door4,-0.356342583,0.079629593,1,0,0,1.296,optionLeft,60,11935,5,42,0,42,0,1,,,,,,,,,,,,,,,,,,,,,,,,,,,,,,,,,,,,,,,
,,,,,,,,2023-08-16_08h49.55.515,HF_wild_card,2022.2.4,Win32,64.17661404,60a3e2171e2b64e740408760,64d2fd46c836a06233681665,64dc7f0e55301b020c696235,,,,,,,sngl,resources/Empty.png,resources/DG.BMP,Door4,0.319583282,-0.012037048,1,0,0,0.9291,optionRight,60,11995,5,43,0,43,0,1,,,,,,,,,,,,,,,,,,,,,,,,,,,,,,,,,,,,,,,
,,,,,,,,2023-08-16_08h49.55.515,HF_wild_card,2022.2.4,Win32,64.17661404,60a3e2171e2b64e740408760,64d2fd46c836a06233681665,64dc7f0e55301b020c696235,,,,,,,,,,,,,,,,,,,,,,,,,,4,0,4,0,1,,,,,,,,,,,,,,,,,,,,,,,,,,,,,,,,,,
,,,,,,,,2023-08-16_08h49.55.515,HF_wild_card,2022.2.4,Win32,64.17661404,60a3e2171e2b64e740408760,64d2fd46c836a06233681665,64dc7f0e55301b020c696235,,,,,,,decisionTrl,resources/DY.BMP,resources/DBN.BMP,Door1,-0.316527748,0.074999962,1,0,0,4.3763,optionLeft,30,12025,6,0,0,0,0,1,,,,,,,,,,,,,,,,,,,,,,,,,,,,,,,,,,,,,,,
,,,,,,,,2023-08-16_08h49.55.515,HF_wild_card,2022.2.4,Win32,64.17661404,60a3e2171e2b64e740408760,64d2fd46c836a06233681665,64dc7f0e55301b020c696235,,,,,,,decisionTrl,resources/DB.BMP,resources/DG.BMP,Door4,0.336250076,0.061111107,1,0,0,1.2785,optionRight,60,12085,6,1,0,1,0,1,,,,,,,,,,,,,,,,,,,,,,,,,,,,,,,,,,,,,,,
,,,,,,,,2023-08-16_08h49.55.515,HF_wild_card,2022.2.4,Win32,64.17661404,60a3e2171e2b64e740408760,64d2fd46c836a06233681665,64dc7f0e55301b020c696235,,,,,,,ctch,resources/DB.BMP,resources/DBN.BMP,Door3,-0.372083321,0.042592583,1,0,0,1.1122,optionLeft,70,12155,6,2,0,2,0,1,,,,,,,,,,,,,,,,,,,,,,,,,,,,,,,,,,,,,,,
,,,,,,,,2023-08-16_08h49.55.515,HF_wild_card,2022.2.4,Win32,64.17661404,60a3e2171e2b64e740408760,64d2fd46c836a06233681665,64dc7f0e55301b020c696235,,,,,,,ctch,resources/DY.BMP,resources/DG.BMP,Door4,0.296435242,0.040740738,1,0,0,1.1473,optionRight,80,12235,6,3,0,3,0,1,,,,,,,,,,,,,,,,,,,,,,,,,,,,,,,,,,,,,,,
,,,,,,,,2023-08-16_08h49.55.515,HF_wild_card,2022.2.4,Win32,64.17661404,60a3e2171e2b64e740408760,64d2fd46c836a06233681665,64dc7f0e55301b020c696235,,,,,,,decisionTrl,resources/DB.BMP,resources/DG.BMP,Door3,-0.383194427,0.061111107,1,0,0,1.463,optionLeft,70,12305,6,4,0,4,0,1,,,,,,,,,,,,,,,,,,,,,,,,,,,,,,,,,,,,,,,
,,,,,,,,2023-08-16_08h49.55.515,HF_wild_card,2022.2.4,Win32,64.17661404,60a3e2171e2b64e740408760,64d2fd46c836a06233681665,64dc7f0e55301b020c696235,,,,,,,decisionTrl,resources/DG.BMP,resources/DB.BMP,Door4,-0.323009224,0.068518486,1,0,0,1.0456,optionLeft,80,12385,6,5,0,5,0,1,,,,,,,,,,,,,,,,,,,,,,,,,,,,,,,,,,,,,,,
,,,,,,,,2023-08-16_08h49.55.515,HF_wild_card,2022.2.4,Win32,64.17661404,60a3e2171e2b64e740408760,64d2fd46c836a06233681665,64dc7f0e55301b020c696235,,,,,,,decisionTrl,resources/DB.BMP,resources/DG.BMP,Door4,0.275138931,0.018518486,1,0,0,1.2634,optionRight,80,12465,6,6,0,6,0,1,,,,,,,,,,,,,,,,,,,,,,,,,,,,,,,,,,,,,,,
,,,,,,,,2023-08-16_08h49.55.515,HF_wild_card,2022.2.4,Win32,64.17661404,60a3e2171e2b64e740408760,64d2fd46c836a06233681665,64dc7f0e55301b020c696235,,,,,,,ctch,resources/DY.BMP,resources/DG.BMP,Door4,0.23347229,0.00370369,1,0,0,1.3472,optionRight,60,12525,6,7,0,7,0,1,,,,,,,,,,,,,,,,,,,,,,,,,,,,,,,,,,,,,,,
,,,,,,,,2023-08-16_08h49.55.515,HF_wild_card,2022.2.4,Win32,64.17661404,60a3e2171e2b64e740408760,64d2fd46c836a06233681665,64dc7f0e55301b020c696235,,,,,,,decisionTrl,resources/DB.BMP,resources/DP.BMP,Door3,-0.346157379,0.039814835,1,0,0,1.4956,optionLeft,70,12595,6,8,0,8,0,1,,,,,,,,,,,,,,,,,,,,,,,,,,,,,,,,,,,,,,,
,,,,,,,,2023-08-16_08h49.55.515,HF_wild_card,2022.2.4,Win32,64.17661404,60a3e2171e2b64e740408760,64d2fd46c836a06233681665,64dc7f0e55301b020c696235,,,,,,,decisionTrl,resources/DG.BMP,resources/DB.BMP,Door4,-0.340601807,-0.000925941,1,0,0,1.3293,optionLeft,80,12675,6,9,0,9,0,1,,,,,,,,,,,,,,,,,,,,,,,,,,,,,,,,,,,,,,,
,,,,,,,,2023-08-16_08h49.55.515,HF_wild_card,2022.2.4,Win32,64.17661404,60a3e2171e2b64e740408760,64d2fd46c836a06233681665,64dc7f0e55301b020c696235,,,,,,,ctch,resources/DB.BMP,resources/DBN.BMP,Door3,-0.4044907,0.149074059,1,0,0,1.2461,optionLeft,70,12745,6,10,0,10,0,1,,,,,,,,,,,,,,,,,,,,,,,,,,,,,,,,,,,,,,,
,,,,,,,,2023-08-16_08h49.55.515,HF_wild_card,2022.2.4,Win32,64.17661404,60a3e2171e2b64e740408760,64d2fd46c836a06233681665,64dc7f0e55301b020c696235,,,,,,,decisionTrl,resources/DBN.BMP,resources/DY.BMP,Door1,0.280694504,0.004629593,1,0,0,1.3626,optionRight,30,12775,6,11,0,11,0,1,,,,,,,,,,,,,,,,,,,,,,,,,,,,,,,,,,,,,,,
,,,,,,,,2023-08-16_08h49.55.515,HF_wild_card,2022.2.4,Win32,64.17661404,60a3e2171e2b64e740408760,64d2fd46c836a06233681665,64dc7f0e55301b020c696235,,,,,,,sngl,resources/DG.BMP,resources/Empty.png,Door4,-0.236898117,0.112962914,1,0,0,0.8298,optionLeft,60,12835,6,12,0,12,0,1,,,,,,,,,,,,,,,,,,,,,,,,,,,,,,,,,,,,,,,
,,,,,,,,2023-08-16_08h49.55.515,HF_wild_card,2022.2.4,Win32,64.17661404,60a3e2171e2b64e740408760,64d2fd46c836a06233681665,64dc7f0e55301b020c696235,,,,,,,sngl,resources/DBN.BMP,resources/Empty.png,Door2,-0.378564796,0.122222214,1,0,0,0.9135,optionLeft,20,12855,6,13,0,13,0,1,,,,,,,,,,,,,,,,,,,,,,,,,,,,,,,,,,,,,,,
,,,,,,,,2023-08-16_08h49.55.515,HF_wild_card,2022.2.4,Win32,64.17661404,60a3e2171e2b64e740408760,64d2fd46c836a06233681665,64dc7f0e55301b020c696235,,,,,,,decisionTrl,resources/DP.BMP,resources/DY.BMP,WildCard_Ex,-0.289675903,0.078703728,1,0,0,1.279,optionLeft,45,12900,6,14,0,14,0,1,,,,,,,,,,,,,,,,,,,,,,,,,,,,,,,,,,,,,,,
,,,,,,,,2023-08-16_08h49.55.515,HF_wild_card,2022.2.4,Win32,64.17661404,60a3e2171e2b64e740408760,64d2fd46c836a06233681665,64dc7f0e55301b020c696235,,,,,,,sngl,resources/Empty.png,resources/DBN.BMP,Door2,0.468657532,0.071296234,1,0,0,1.0793,optionRight,40,12940,6,15,0,15,0,1,,,,,,,,,,,,,,,,,,,,,,,,,,,,,,,,,,,,,,,
,,,,,,,,2023-08-16_08h49.55.515,HF_wild_card,2022.2.4,Win32,64.17661404,60a3e2171e2b64e740408760,64d2fd46c836a06233681665,64dc7f0e55301b020c696235,,,,,,,sngl,resources/DY.BMP,resources/Empty.png,Door1,-0.277638855,0.056481476,1,0,0,0.7641,optionLeft,30,12970,6,16,0,16,0,1,,,,,,,,,,,,,,,,,,,,,,,,,,,,,,,,,,,,,,,
,,,,,,,,2023-08-16_08h49.55.515,HF_wild_card,2022.2.4,Win32,64.17661404,60a3e2171e2b64e740408760,64d2fd46c836a06233681665,64dc7f0e55301b020c696235,,,,,,,decisionTrl,resources/DY.BMP,resources/DP.BMP,WildCard_Ex,0.307546387,0.045370331,1,0,0,1.5444,optionRight,55,13025,6,17,0,17,0,1,,,,,,,,,,,,,,,,,,,,,,,,,,,,,,,,,,,,,,,
,,,,,,,,2023-08-16_08h49.55.515,HF_wild_card,2022.2.4,Win32,64.17661404,60a3e2171e2b64e740408760,64d2fd46c836a06233681665,64dc7f0e55301b020c696235,,,,,,,sngl,resources/DP.BMP,resources/Empty.png,WildCard_Ex,-0.232268524,0.044444466,1,0,0,0.7128,optionLeft,45,13070,6,18,0,18,0,1,,,,,,,,,,,,,,,,,,,,,,,,,,,,,,,,,,,,,,,
,,,,,,,,2023-08-16_08h49.55.515,HF_wild_card,2022.2.4,Win32,64.17661404,60a3e2171e2b64e740408760,64d2fd46c836a06233681665,64dc7f0e55301b020c696235,,,,,,,ctch,resources/DG.BMP,resources/DY.BMP,Door4,-0.381342583,0.072222214,1,0,0,1.1124,optionLeft,60,13130,6,19,0,19,0,1,,,,,,,,,,,,,,,,,,,,,,,,,,,,,,,,,,,,,,,
,,,,,,,,2023-08-16_08h49.55.515,HF_wild_card,2022.2.4,Win32,64.17661404,60a3e2171e2b64e740408760,64d2fd46c836a06233681665,64dc7f0e55301b020c696235,,,,,,,decisionTrl,resources/DG.BMP,resources/DB.BMP,Door3,0.338101883,-0.052777748,1,0,0,2.8289,optionRight,70,13200,6,20,0,20,0,1,,,,,,,,,,,,,,,,,,,,,,,,,,,,,,,,,,,,,,,
,,,,,,,,2023-08-16_08h49.55.515,HF_wild_card,2022.2.4,Win32,64.17661404,60a3e2171e2b64e740408760,64d2fd46c836a06233681665,64dc7f0e55301b020c696235,,,,,,,ctch,resources/DBN.BMP,resources/DB.BMP,Door3,0.223287125,0.024999962,1,0,0,2.2958,optionRight,70,13270,6,21,0,21,0,1,,,,,,,,,,,,,,,,,,,,,,,,,,,,,,,,,,,,,,,
,,,,,,,,2023-08-16_08h49.55.515,HF_wild_card,2022.2.4,Win32,64.17661404,60a3e2171e2b64e740408760,64d2fd46c836a06233681665,64dc7f0e55301b020c696235,,,,,,,sngl,resources/Empty.png,resources/DP.BMP,WildCard_Ex,0.319583282,0.057407341,1,0,0,0.7958,optionRight,55,13325,6,22,0,22,0,1,,,,,,,,,,,,,,,,,,,,,,,,,,,,,,,,,,,,,,,
,,,,,,,,2023-08-16_08h49.55.515,HF_wild_card,2022.2.4,Win32,64.17661404,60a3e2171e2b64e740408760,64d2fd46c836a06233681665,64dc7f0e55301b020c696235,,,,,,,decisionTrl,resources/DY.BMP,resources/DBN.BMP,Door1,-0.460046234,0.077777748,1,0,0,1.3793,optionLeft,30,13355,6,23,0,23,0,1,,,,,,,,,,,,,,,,,,,,,,,,,,,,,,,,,,,,,,,
,,,,,,,,2023-08-16_08h49.55.515,HF_wild_card,2022.2.4,Win32,64.17661404,60a3e2171e2b64e740408760,64d2fd46c836a06233681665,64dc7f0e55301b020c696235,,,,,,,decisionTrl,resources/DY.BMP,resources/DBN.BMP,Door1,-0.324861069,0.118518486,1,0,0,1.696,optionLeft,30,13385,6,24,0,24,0,1,,,,,,,,,,,,,,,,,,,,,,,,,,,,,,,,,,,,,,,
,,,,,,,,2023-08-16_08h49.55.515,HF_wild_card,2022.2.4,Win32,64.17661404,60a3e2171e2b64e740408760,64d2fd46c836a06233681665,64dc7f0e55301b020c696235,,,,,,,sngl,resources/Empty.png,resources/DB.BMP,Door3,0.373287125,0.056481476,1,0,0,0.7963,optionRight,70,13455,6,25,0,25,0,1,,,,,,,,,,,,,,,,,,,,,,,,,,,,,,,,,,,,,,,
,,,,,,,,2023-08-16_08h49.55.515,HF_wild_card,2022.2.4,Win32,64.17661404,60a3e2171e2b64e740408760,64d2fd46c836a06233681665,64dc7f0e55301b020c696235,,,,,,,decisionTrl,resources/DP.BMP,resources/DB.BMP,Door3,0.299213028,0.064814796,1,0,0,1.3295,optionRight,70,13525,6,26,0,26,0,1,,,,,,,,,,,,,,,,,,,,,,,,,,,,,,,,,,,,,,,
,,,,,,,,2023-08-16_08h49.55.515,HF_wild_card,2022.2.4,Win32,64.17661404,60a3e2171e2b64e740408760,64d2fd46c836a06233681665,64dc7f0e55301b020c696235,,,,,,,decisionTrl,resources/DG.BMP,resources/DP.BMP,Door4,-0.410046272,0.111111107,1,0,0,2.0293,optionLeft,80,13605,6,27,0,27,0,1,,,,,,,,,,,,,,,,,,,,,,,,,,,,,,,,,,,,,,,
,,,,,,,,2023-08-16_08h49.55.515,HF_wild_card,2022.2.4,Win32,64.17661404,60a3e2171e2b64e740408760,64d2fd46c836a06233681665,64dc7f0e55301b020c696235,,,,,,,decisionTrl,resources/DB.BMP,resources/DG.BMP,Door4,0.342731552,0.031481476,1,0,0,1.096,optionRight,80,13685,6,28,0,28,0,1,,,,,,,,,,,,,,,,,,,,,,,,,,,,,,,,,,,,,,,
,,,,,,,,2023-08-16_08h49.55.515,HF_wild_card,2022.2.4,Win32,64.17661404,60a3e2171e2b64e740408760,64d2fd46c836a06233681665,64dc7f0e55301b020c696235,,,,,,,decisionTrl,resources/DBN.BMP,resources/DY.BMP,Door1,0.388101807,0.034259224,1,0,0,2.5284,optionRight,30,13715,6,29,0,29,0,1,,,,,,,,,,,,,,,,,,,,,,,,,,,,,,,,,,,,,,,
,,,,,,,,2023-08-16_08h49.55.515,HF_wild_card,2022.2.4,Win32,64.17661404,60a3e2171e2b64e740408760,64d2fd46c836a06233681665,64dc7f0e55301b020c696235,,,,,,,ctch,resources/DG.BMP,resources/DY.BMP,Door4,-0.318379593,0.144444427,1,0,0,1.1464,optionLeft,80,13795,6,30,0,30,0,1,,,,,,,,,,,,,,,,,,,,,,,,,,,,,,,,,,,,,,,
,,,,,,,,2023-08-16_08h49.55.515,HF_wild_card,2022.2.4,Win32,64.17661404,60a3e2171e2b64e740408760,64d2fd46c836a06233681665,64dc7f0e55301b020c696235,,,,,,,sngl,resources/DB.BMP,resources/Empty.png,Door3,-0.281342545,0.058333359,1,0,0,1.0114,optionLeft,70,13865,6,31,0,31,0,1,,,,,,,,,,,,,,,,,,,,,,,,,,,,,,,,,,,,,,,
,,,,,,,,2023-08-16_08h49.55.515,HF_wild_card,2022.2.4,Win32,64.17661404,60a3e2171e2b64e740408760,64d2fd46c836a06233681665,64dc7f0e55301b020c696235,,,,,,,decisionTrl,resources/DY.BMP,resources/DBN.BMP,Door2,0.290879669,0.075925903,1,0,0,2.1124,optionRight,20,13885,6,32,0,32,0,1,,,,,,,,,,,,,,,,,,,,,,,,,,,,,,,,,,,,,,,
,,,,,,,,2023-08-16_08h49.55.515,HF_wild_card,2022.2.4,Win32,64.17661404,60a3e2171e2b64e740408760,64d2fd46c836a06233681665,64dc7f0e55301b020c696235,,,,,,,decisionTrl,resources/DP.BMP,resources/DG.BMP,Door4,0.257546387,0.038888855,1,0,0,1.1794,optionRight,80,13965,6,33,0,33,0,1,,,,,,,,,,,,,,,,,,,,,,,,,,,,,,,,,,,,,,,
,,,,,,,,2023-08-16_08h49.55.515,HF_wild_card,2022.2.4,Win32,64.17661404,60a3e2171e2b64e740408760,64d2fd46c836a06233681665,64dc7f0e55301b020c696235,,,,,,,decisionTrl,resources/DP.BMP,resources/DBN.BMP,WildCard_Ex,-0.416527748,0.125,1,0,0,1.2294,optionLeft,45,14010,6,34,0,34,0,1,,,,,,,,,,,,,,,,,,,,,,,,,,,,,,,,,,,,,,,
,,,,,,,,2023-08-16_08h49.55.515,HF_wild_card,2022.2.4,Win32,64.17661404,60a3e2171e2b64e740408760,64d2fd46c836a06233681665,64dc7f0e55301b020c696235,,,,,,,sngl,resources/Empty.png,resources/DP.BMP,WildCard_Ex,0.3297686,0.033333321,1,0,0,0.8466,optionRight,45,14055,6,35,0,35,0,1,,,,,,,,,,,,,,,,,,,,,,,,,,,,,,,,,,,,,,,
,,,,,,,,2023-08-16_08h49.55.515,HF_wild_card,2022.2.4,Win32,64.17661404,60a3e2171e2b64e740408760,64d2fd46c836a06233681665,64dc7f0e55301b020c696235,,,,,,,decisionTrl,resources/DBN.BMP,resources/DY.BMP,Door1,0.282546387,0.082407341,1,0,0,1.4792,optionRight,30,14085,6,36,0,36,0,1,,,,,,,,,,,,,,,,,,,,,,,,,,,,,,,,,,,,,,,
,,,,,,,,2023-08-16_08h49.55.515,HF_wild_card,2022.2.4,Win32,64.17661404,60a3e2171e2b64e740408760,64d2fd46c836a06233681665,64dc7f0e55301b020c696235,,,,,,,decisionTrl,resources/DBN.BMP,resources/DY.BMP,Door1,0.309398193,0.046296234,1,0,0,0.8633,optionRight,30,14115,6,37,0,37,0,1,,,,,,,,,,,,,,,,,,,,,,,,,,,,,,,,,,,,,,,
,,,,,,,,2023-08-16_08h49.55.515,HF_wild_card,2022.2.4,Win32,64.17661404,60a3e2171e2b64e740408760,64d2fd46c836a06233681665,64dc7f0e55301b020c696235,,,,,,,decisionTrl,resources/DG.BMP,resources/DB.BMP,Door4,-0.31745369,0.064814796,1,0,0,1.3461,optionLeft,60,14175,6,38,0,38,0,1,,,,,,,,,,,,,,,,,,,,,,,,,,,,,,,,,,,,,,,
,,,,,,,,2023-08-16_08h49.55.515,HF_wild_card,2022.2.4,Win32,64.17661404,60a3e2171e2b64e740408760,64d2fd46c836a06233681665,64dc7f0e55301b020c696235,,,,,,,ctch,resources/DBN.BMP,resources/DB.BMP,Door3,0.299213028,-0.000925941,1,0,0,0.946,optionRight,70,14245,6,39,0,39,0,1,,,,,,,,,,,,,,,,,,,,,,,,,,,,,,,,,,,,,,,
,,,,,,,,2023-08-16_08h49.55.515,HF_wild_card,2022.2.4,Win32,64.17661404,60a3e2171e2b64e740408760,64d2fd46c836a06233681665,64dc7f0e55301b020c696235,,,,,,,sngl,resources/DP.BMP,resources/Empty.png,WildCard_Ex,-0.256342545,0.06203701,1,0,0,0.7631,optionLeft,55,14300,6,40,0,40,0,1,,,,,,,,,,,,,,,,,,,,,,,,,,,,,,,,,,,,,,,
,,,,,,,,2023-08-16_08h49.55.515,HF_wild_card,2022.2.4,Win32,64.17661404,60a3e2171e2b64e740408760,64d2fd46c836a06233681665,64dc7f0e55301b020c696235,,,,,,,sngl,resources/Empty.png,resources/DY.BMP,Door1,0.340879669,0.034259224,1,0,0,0.9796,optionRight,30,14330,6,41,0,41,0,1,,,,,,,,,,,,,,,,,,,,,,,,,,,,,,,,,,,,,,,
,,,,,,,,2023-08-16_08h49.55.515,HF_wild_card,2022.2.4,Win32,64.17661404,60a3e2171e2b64e740408760,64d2fd46c836a06233681665,64dc7f0e55301b020c696235,,,,,,,sngl,resources/Empty.png,resources/DG.BMP,Door4,0.332546387,0.094444427,1,0,0,0.8298,optionRight,80,14410,6,42,0,42,0,1,,,,,,,,,,,,,,,,,,,,,,,,,,,,,,,,,,,,,,,
,,,,,,,,2023-08-16_08h49.55.515,HF_wild_card,2022.2.4,Win32,64.17661404,60a3e2171e2b64e740408760,64d2fd46c836a06233681665,64dc7f0e55301b020c696235,,,,,,,decisionTrl,resources/DBN.BMP,resources/DP.BMP,WildCard_Ex,0.324213028,0.050925903,1,0,0,0.8629,optionRight,55,14465,6,43,0,43,0,1,,,,,,,,,,,,,,,,,,,,,,,,,,,,,,,,,,,,,,,
,,,,,,,,2023-08-16_08h49.55.515,HF_wild_card,2022.2.4,Win32,64.17661404,60a3e2171e2b64e740408760,64d2fd46c836a06233681665,64dc7f0e55301b020c696235,,,,,,,,,,,,,,,,,,,,,,,,,,5,0,5,0,1,,,,,,,,,,,,,,,,,,,,,,,,,,,,,,,,,,
,,,,,,,,2023-08-16_08h49.55.515,HF_wild_card,2022.2.4,Win32,64.17661404,60a3e2171e2b64e740408760,64d2fd46c836a06233681665,64dc7f0e55301b020c696235,,,,,,,ctch,resources/DY.BMP,resources/DG.BMP,Door4,0.323287125,-0.017592621,1,0,0,1.0929,optionRight,80,14545,7,0,0,0,0,1,,,,,,,,,,,,,,,,,,,,,,,,,,,,,,,,,,,,,,,
,,,,,,,,2023-08-16_08h49.55.515,HF_wild_card,2022.2.4,Win32,64.17661404,60a3e2171e2b64e740408760,64d2fd46c836a06233681665,64dc7f0e55301b020c696235,,,,,,,decisionTrl,resources/DY.BMP,resources/DBN.BMP,Door1,-0.310046272,0.029629593,1,0,0,2.2309,optionLeft,30,14575,7,1,0,1,0,1,,,,,,,,,,,,,,,,,,,,,,,,,,,,,,,,,,,,,,,
,,,,,,,,2023-08-16_08h49.55.515,HF_wild_card,2022.2.4,Win32,64.17661404,60a3e2171e2b64e740408760,64d2fd46c836a06233681665,64dc7f0e55301b020c696235,,,,,,,decisionTrl,resources/DY.BMP,resources/DBN.BMP,Door1,-0.294305534,0.022222214,1,0,0,0.9318,optionLeft,30,14605,7,2,0,2,0,1,,,,,,,,,,,,,,,,,,,,,,,,,,,,,,,,,,,,,,,
,,,,,,,,2023-08-16_08h49.55.515,HF_wild_card,2022.2.4,Win32,64.17661404,60a3e2171e2b64e740408760,64d2fd46c836a06233681665,64dc7f0e55301b020c696235,,,,,,,decisionTrl,resources/DY.BMP,resources/DBN.BMP,Door1,-0.294305534,-0.025000038,1,0,0,0.9152,optionLeft,30,14635,7,3,0,3,0,1,,,,,,,,,,,,,,,,,,,,,,,,,,,,,,,,,,,,,,,
,,,,,,,,2023-08-16_08h49.55.515,HF_wild_card,2022.2.4,Win32,64.17661404,60a3e2171e2b64e740408760,64d2fd46c836a06233681665,64dc7f0e55301b020c696235,,,,,,,decisionTrl,resources/DB.BMP,resources/DG.BMP,Door3,-0.322083321,0.001851845,1,0,0,1.7972,optionLeft,70,14705,7,4,0,4,0,1,,,,,,,,,,,,,,,,,,,,,,,,,,,,,,,,,,,,,,,
,,,,,,,,2023-08-16_08h49.55.515,HF_wild_card,2022.2.4,Win32,64.17661404,60a3e2171e2b64e740408760,64d2fd46c836a06233681665,64dc7f0e55301b020c696235,,,,,,,decisionTrl,resources/DG.BMP,resources/DB.BMP,Door3,0.35847229,0.073148117,1,0,0,3.6137,optionRight,70,14775,7,5,0,5,0,1,,,,,,,,,,,,,,,,,,,,,,,,,,,,,,,,,,,,,,,
,,,,,,,,2023-08-16_08h49.55.515,HF_wild_card,2022.2.4,Win32,64.17661404,60a3e2171e2b64e740408760,64d2fd46c836a06233681665,64dc7f0e55301b020c696235,,,,,,,decisionTrl,resources/DG.BMP,resources/DB.BMP,Door4,-0.274861069,0.082407341,1,0,0,1.3144,optionLeft,60,14835,7,6,0,6,0,1,,,,,,,,,,,,,,,,,,,,,,,,,,,,,,,,,,,,,,,
,,,,,,,,2023-08-16_08h49.55.515,HF_wild_card,2022.2.4,Win32,64.17661404,60a3e2171e2b64e740408760,64d2fd46c836a06233681665,64dc7f0e55301b020c696235,,,,,,,decisionTrl,resources/DG.BMP,resources/DB.BMP,Door3,0.332546387,0.039814835,1,0,0,2.7478,optionRight,70,14905,7,7,0,7,0,1,,,,,,,,,,,,,,,,,,,,,,,,,,,,,,,,,,,,,,,
,,,,,,,,2023-08-16_08h49.55.515,HF_wild_card,2022.2.4,Win32,64.17661404,60a3e2171e2b64e740408760,64d2fd46c836a06233681665,64dc7f0e55301b020c696235,,,,,,,decisionTrl,resources/DY.BMP,resources/DBN.BMP,Door1,-0.383194427,0.025925903,1,0,0,1.0979,optionLeft,30,14935,7,8,0,8,0,1,,,,,,,,,,,,,,,,,,,,,,,,,,,,,,,,,,,,,,,
,,,,,,,,2023-08-16_08h49.55.515,HF_wild_card,2022.2.4,Win32,64.17661404,60a3e2171e2b64e740408760,64d2fd46c836a06233681665,64dc7f0e55301b020c696235,,,,,,,decisionTrl,resources/DB.BMP,resources/DG.BMP,Door4,0.30847229,0.066666641,1,0,0,1.5314,optionRight,60,14995,7,9,0,9,0,1,,,,,,,,,,,,,,,,,,,,,,,,,,,,,,,,,,,,,,,
,,,,,,,,2023-08-16_08h49.55.515,HF_wild_card,2022.2.4,Win32,64.17661404,60a3e2171e2b64e740408760,64d2fd46c836a06233681665,64dc7f0e55301b020c696235,,,,,,,decisionTrl,resources/DY.BMP,resources/DBN.BMP,Door1,-0.235972214,0.115740738,1,0,0,1.0813,optionLeft,30,15025,7,10,0,10,0,1,,,,,,,,,,,,,,,,,,,,,,,,,,,,,,,,,,,,,,,
,,,,,,,,2023-08-16_08h49.55.515,HF_wild_card,2022.2.4,Win32,64.17661404,60a3e2171e2b64e740408760,64d2fd46c836a06233681665,64dc7f0e55301b020c696235,,,,,,,ctch,resources/DG.BMP,resources/DY.BMP,Door4,-0.260046272,0.071296234,1,0,0,1.2145,optionLeft,80,15105,7,11,0,11,0,1,,,,,,,,,,,,,,,,,,,,,,,,,,,,,,,,,,,,,,,
,,,,,,,,2023-08-16_08h49.55.515,HF_wild_card,2022.2.4,Win32,64.17661404,60a3e2171e2b64e740408760,64d2fd46c836a06233681665,64dc7f0e55301b020c696235,,,,,,,decisionTrl,resources/DBN.BMP,resources/DY.BMP,Door1,0.251064758,0.023148117,1,0,0,0.9649,optionRight,30,15135,7,12,0,12,0,1,,,,,,,,,,,,,,,,,,,,,,,,,,,,,,,,,,,,,,,
,,,,,,,,2023-08-16_08h49.55.515,HF_wild_card,2022.2.4,Win32,64.17661404,60a3e2171e2b64e740408760,64d2fd46c836a06233681665,64dc7f0e55301b020c696235,,,,,,,ctch,resources/DG.BMP,resources/DY.BMP,Door4,-0.347083321,0.150925903,1,0,0,0.9479,optionLeft,60,15195,7,13,0,13,0,1,,,,,,,,,,,,,,,,,,,,,,,,,,,,,,,,,,,,,,,
,,,,,,,,2023-08-16_08h49.55.515,HF_wild_card,2022.2.4,Win32,64.17661404,60a3e2171e2b64e740408760,64d2fd46c836a06233681665,64dc7f0e55301b020c696235,,,,,,,ctch,resources/DBN.BMP,resources/DB.BMP,Door3,0.344583282,0.04907402,1,0,0,0.9318,optionRight,70,15265,7,14,0,14,0,1,,,,,,,,,,,,,,,,,,,,,,,,,,,,,,,,,,,,,,,
,,,,,,,,2023-08-16_08h49.55.515,HF_wild_card,2022.2.4,Win32,64.17661404,60a3e2171e2b64e740408760,64d2fd46c836a06233681665,64dc7f0e55301b020c696235,,,,,,,ctch,resources/DG.BMP,resources/DY.BMP,Door4,-0.289675903,0.122222214,1,0,0,0.898,optionLeft,80,15345,7,15,0,15,0,1,,,,,,,,,,,,,,,,,,,,,,,,,,,,,,,,,,,,,,,
,,,,,,,,2023-08-16_08h49.55.515,HF_wild_card,2022.2.4,Win32,64.17661404,60a3e2171e2b64e740408760,64d2fd46c836a06233681665,64dc7f0e55301b020c696235,,,,,,,ctch,resources/DB.BMP,resources/DBN.BMP,Door3,-0.382268486,0.107407379,1,0,0,0.965,optionLeft,70,15415,7,16,0,16,0,1,,,,,,,,,,,,,,,,,,,,,,,,,,,,,,,,,,,,,,,
,,,,,,,,2023-08-16_08h49.55.515,HF_wild_card,2022.2.4,Win32,64.17661404,60a3e2171e2b64e740408760,64d2fd46c836a06233681665,64dc7f0e55301b020c696235,,,,,,,ctch,resources/DB.BMP,resources/DBN.BMP,Door3,-0.298009224,0.08703701,1,0,0,0.881,optionLeft,70,15485,7,17,0,17,0,1,,,,,,,,,,,,,,,,,,,,,,,,,,,,,,,,,,,,,,,
,,,,,,,,2023-08-16_08h49.55.515,HF_wild_card,2022.2.4,Win32,64.17661404,60a3e2171e2b64e740408760,64d2fd46c836a06233681665,64dc7f0e55301b020c696235,,,,,,,decisionTrl,resources/DB.BMP,resources/DG.BMP,Door4,0.290879669,0.051851845,1,0,0,1.864,optionRight,80,15565,7,18,0,18,0,1,,,,,,,,,,,,,,,,,,,,,,,,,,,,,,,,,,,,,,,
,,,,,,,,2023-08-16_08h49.55.515,HF_wild_card,2022.2.4,Win32,64.17661404,60a3e2171e2b64e740408760,64d2fd46c836a06233681665,64dc7f0e55301b020c696235,,,,,,,decisionTrl,resources/DB.BMP,resources/DG.BMP,Door4,0.325138931,0.113888855,1,0,0,1.1482,optionRight,60,15625,7,19,0,19,0,1,,,,,,,,,,,,,,,,,,,,,,,,,,,,,,,,,,,,,,,
,,,,,,,,2023-08-16_08h49.55.515,HF_wild_card,2022.2.4,Win32,64.17661404,60a3e2171e2b64e740408760,64d2fd46c836a06233681665,64dc7f0e55301b020c696235,,,,,,,decisionTrl,resources/DBN.BMP,resources/DY.BMP,Door1,0.288101883,0.013888855,1,0,0,1.2315,optionRight,30,15655,7,20,0,20,0,1,,,,,,,,,,,,,,,,,,,,,,,,,,,,,,,,,,,,,,,
,,,,,,,,2023-08-16_08h49.55.515,HF_wild_card,2022.2.4,Win32,64.17661404,60a3e2171e2b64e740408760,64d2fd46c836a06233681665,64dc7f0e55301b020c696235,,,,,,,decisionTrl,resources/DG.BMP,resources/DB.BMP,Door3,0.432546387,0.102777748,1,0,0,2.7969,optionRight,70,15725,7,21,0,21,0,1,,,,,,,,,,,,,,,,,,,,,,,,,,,,,,,,,,,,,,,
,,,,,,,,2023-08-16_08h49.55.515,HF_wild_card,2022.2.4,Win32,64.17661404,60a3e2171e2b64e740408760,64d2fd46c836a06233681665,64dc7f0e55301b020c696235,,,,,,,decisionTrl,resources/DBN.BMP,resources/DY.BMP,Door1,0.292731552,0.109259224,1,0,0,0.9826,optionRight,30,15755,7,22,0,22,0,1,,,,,,,,,,,,,,,,,,,,,,,,,,,,,,,,,,,,,,,
,,,,,,,,2023-08-16_08h49.55.515,HF_wild_card,2022.2.4,Win32,64.17661404,60a3e2171e2b64e740408760,64d2fd46c836a06233681665,64dc7f0e55301b020c696235,,,,,,,decisionTrl,resources/DB.BMP,resources/DG.BMP,Door3,-0.373935165,0.101851807,1,0,0,3.4136,optionLeft,70,15825,7,23,0,23,0,1,,,,,,,,,,,,,,,,,,,,,,,,,,,,,,,,,,,,,,,
,,,,,,,,2023-08-16_08h49.55.515,HF_wild_card,2022.2.4,Win32,64.17661404,60a3e2171e2b64e740408760,64d2fd46c836a06233681665,64dc7f0e55301b020c696235,,,,,,,decisionTrl,resources/DBN.BMP,resources/DY.BMP,Door1,0.276990814,0.107407379,1,0,0,0.9981,optionRight,30,15855,7,24,0,24,0,1,,,,,,,,,,,,,,,,,,,,,,,,,,,,,,,,,,,,,,,
,,,,,,,,2023-08-16_08h49.55.515,HF_wild_card,2022.2.4,Win32,64.17661404,60a3e2171e2b64e740408760,64d2fd46c836a06233681665,64dc7f0e55301b020c696235,,,,,,,decisionTrl,resources/DBN.BMP,resources/DY.BMP,Door1,0.33532402,0.080555534,1,0,0,0.8988,optionRight,30,15885,7,25,0,25,0,1,,,,,,,,,,,,,,,,,,,,,,,,,,,,,,,,,,,,,,,
,,,,,,,,2023-08-16_08h49.55.515,HF_wild_card,2022.2.4,Win32,64.17661404,60a3e2171e2b64e740408760,64d2fd46c836a06233681665,64dc7f0e55301b020c696235,,,,,,,decisionTrl,resources/DG.BMP,resources/DB.BMP,Door3,0.326064911,0.058333359,1,0,0,1.1812,optionRight,70,15955,7,26,0,26,0,1,,,,,,,,,,,,,,,,,,,,,,,,,,,,,,,,,,,,,,,
,,,,,,,,2023-08-16_08h49.55.515,HF_wild_card,2022.2.4,Win32,64.17661404,60a3e2171e2b64e740408760,64d2fd46c836a06233681665,64dc7f0e55301b020c696235,,,,,,,ctch,resources/DY.BMP,resources/DG.BMP,Door4,0.319583282,0.072222214,1,0,0,1.0646,optionRight,60,16015,7,27,0,27,0,1,,,,,,,,,,,,,,,,,,,,,,,,,,,,,,,,,,,,,,,
,,,,,,,,2023-08-16_08h49.55.515,HF_wild_card,2022.2.4,Win32,64.17661404,60a3e2171e2b64e740408760,64d2fd46c836a06233681665,64dc7f0e55301b020c696235,,,,,,,ctch,resources/DBN.BMP,resources/DB.BMP,Door3,0.381620407,0.083333359,1,0,0,0.8315,optionRight,70,16085,7,28,0,28,0,1,,,,,,,,,,,,,,,,,,,,,,,,,,,,,,,,,,,,,,,
,,,,,,,,2023-08-16_08h49.55.515,HF_wild_card,2022.2.4,Win32,64.17661404,60a3e2171e2b64e740408760,64d2fd46c836a06233681665,64dc7f0e55301b020c696235,,,,,,,ctch,resources/DBN.BMP,resources/DB.BMP,Door3,0.346435242,0.087962914,1,0,0,0.8482,optionRight,70,16155,7,29,0,29,0,1,,,,,,,,,,,,,,,,,,,,,,,,,,,,,,,,,,,,,,,
,,,,,,,,2023-08-16_08h49.55.515,HF_wild_card,2022.2.4,Win32,64.17661404,60a3e2171e2b64e740408760,64d2fd46c836a06233681665,64dc7f0e55301b020c696235,,,,,,,ctch,resources/DB.BMP,resources/DBN.BMP,Door3,-0.303564796,0.027777748,1,0,0,0.8645,optionLeft,70,16225,7,30,0,30,0,1,,,,,,,,,,,,,,,,,,,,,,,,,,,,,,,,,,,,,,,
,,,,,,,,2023-08-16_08h49.55.515,HF_wild_card,2022.2.4,Win32,64.17661404,60a3e2171e2b64e740408760,64d2fd46c836a06233681665,64dc7f0e55301b020c696235,,,,,,,decisionTrl,resources/DB.BMP,resources/DG.BMP,Door4,0.2297686,0.033333321,1,0,0,1.4146,optionRight,60,16285,7,31,0,31,0,1,,,,,,,,,,,,,,,,,,,,,,,,,,,,,,,,,,,,,,,
,,,,,,,,2023-08-16_08h49.55.515,HF_wild_card,2022.2.4,Win32,64.17661404,60a3e2171e2b64e740408760,64d2fd46c836a06233681665,64dc7f0e55301b020c696235,,,,,,,ctch,resources/DY.BMP,resources/DG.BMP,Door4,0.316805649,0.058333359,1,0,0,0.965,optionRight,80,16365,7,32,0,32,0,1,,,,,,,,,,,,,,,,,,,,,,,,,,,,,,,,,,,,,,,
,,,,,,,,2023-08-16_08h49.55.515,HF_wild_card,2022.2.4,Win32,64.17661404,60a3e2171e2b64e740408760,64d2fd46c836a06233681665,64dc7f0e55301b020c696235,,,,,,,decisionTrl,resources/DG.BMP,resources/DB.BMP,Door4,-0.23782402,0.060185127,1,0,0,1.6961,optionLeft,80,16445,7,33,0,33,0,1,,,,,,,,,,,,,,,,,,,,,,,,,,,,,,,,,,,,,,,
,,,,,,,,2023-08-16_08h49.55.515,HF_wild_card,2022.2.4,Win32,64.17661404,60a3e2171e2b64e740408760,64d2fd46c836a06233681665,64dc7f0e55301b020c696235,,,,,,,decisionTrl,resources/DBN.BMP,resources/DY.BMP,Door1,0.298287125,0.050925903,1,0,0,0.8482,optionRight,30,16475,7,34,0,34,0,1,,,,,,,,,,,,,,,,,,,,,,,,,,,,,,,,,,,,,,,
,,,,,,,,2023-08-16_08h49.55.515,HF_wild_card,2022.2.4,Win32,64.17661404,60a3e2171e2b64e740408760,64d2fd46c836a06233681665,64dc7f0e55301b020c696235,,,,,,,decisionTrl,resources/DY.BMP,resources/DBN.BMP,Door1,-0.311898117,0.001851845,1,0,0,0.8142,optionLeft,30,16505,7,35,0,35,0,1,,,,,,,,,,,,,,,,,,,,,,,,,,,,,,,,,,,,,,,
,,,,,,,,2023-08-16_08h49.55.515,HF_wild_card,2022.2.4,Win32,64.17661404,60a3e2171e2b64e740408760,64d2fd46c836a06233681665,64dc7f0e55301b020c696235,,,,,,,,,,,,,,,,,,,,,,,,,,6,0,6,0,1,,,,,,,,,,,,,,,,,,,,,,,,,,,,,,,,,,
,,,,,,,,2023-08-16_08h49.55.515,HF_wild_card,2022.2.4,Win32,64.17661404,60a3e2171e2b64e740408760,64d2fd46c836a06233681665,64dc7f0e55301b020c696235,,,,,,,,,,,,,,,,,,,,,,,,,,,,,,,4,,,,,,,,,,,,,,,,,,,,,,,,,,,,,,,,,
,,,,,,,,2023-08-16_08h49.55.515,HF_wild_card,2022.2.4,Win32,64.17661404,60a3e2171e2b64e740408760,64d2fd46c836a06233681665,64dc7f0e55301b020c696235,,,,,,,,,,,,,,,,,,,,,,,,,,,,,,,,,,,,,,,,,,,,,,,,,,,,,,,,,,,,,,,,
,,,,,,,,2023-08-16_08h49.55.515,HF_wild_card,2022.2.4,Win32,64.17661404,60a3e2171e2b64e740408760,64d2fd46c836a06233681665,64dc7f0e55301b020c696235,,,,,,,,,,,,,,,,,,,,,,,,,,,,,,,,45,WC_extreme,resources/DP.BMP,0,0,0,0,1,,,,,,,,,,,,,,,,,,,,,,,,,
,,,,,,,,2023-08-16_08h49.55.515,HF_wild_card,2022.2.4,Win32,64.17661404,60a3e2171e2b64e740408760,64d2fd46c836a06233681665,64dc7f0e55301b020c696235,,,,,,,,,,,,,,,,,,,,,,,,,,,,,,,,70,Door4,resources/DG.BMP,1,0,1,0,1,,,,,,,,,,,,,,,,,,,,,,,,,
,,,,,,,,2023-08-16_08h49.55.515,HF_wild_card,2022.2.4,Win32,64.17661404,60a3e2171e2b64e740408760,64d2fd46c836a06233681665,64dc7f0e55301b020c696235,,,,,,,,,,,,,,,,,,,,,,,,,,,,,,,,30,Door1,resources/DY.BMP,2,0,2,0,1,,,,,,,,,,,,,,,,,,,,,,,,,
,,,,,,,,2023-08-16_08h49.55.515,HF_wild_card,2022.2.4,Win32,64.17661404,60a3e2171e2b64e740408760,64d2fd46c836a06233681665,64dc7f0e55301b020c696235,,,,,,,,,,,,,,,,,,,,,,,,,,,,,,,,20,Door2,resources/DBN.BMP,3,0,3,0,1,,,,,,,,,,,,,,,,,,,,,,,,,
,,,,,,,,2023-08-16_08h49.55.515,HF_wild_card,2022.2.4,Win32,64.17661404,60a3e2171e2b64e740408760,64d2fd46c836a06233681665,64dc7f0e55301b020c696235,,,,,,,,,,,,,,,,,,,,,,,,,,,,,,,,60,Door3,resources/DB.BMP,4,0,4,0,1,,,,,,,,,,,,,,,,,,,,,,,,,
,,,,,,,,2023-08-16_08h49.55.515,HF_wild_card,2022.2.4,Win32,64.17661404,60a3e2171e2b64e740408760,64d2fd46c836a06233681665,64dc7f0e55301b020c696235,,,,,,,,,,,,,,,,,,,,,,,,,,,,,,,,20,WC_nonExtreme,resources/DR.BMP,5,0,5,0,1,,,,,,,,,,,,,,,,,,,,,,,,,
,,,,,,,,2023-08-16_08h49.55.515,HF_wild_card,2022.2.4,Win32,64.17661404,60a3e2171e2b64e740408760,64d2fd46c836a06233681665,64dc7f0e55301b020c696235,,,,,,,,,,,,,,,,,,,,,,,,,,,,,,,,,,,,,,,,,,,,,,,,,,,,,,,,,,,,,,,,
