Condition,Low fixed image (Door1),Low risky image (Door2),High fixed image (Door3),High risky image (Door4),Extreme Wild Card,NonExtreme Wild Card,,date,expName,psychopyVersion,OS,frameRate,PROLIFIC_PID,STUDY_ID,SESSION_ID,mouse_2.x,mouse_2.y,mouse_2.leftButton,mouse_2.midButton,mouse_2.rightButton,mouse_2.clicked_name,Trial Type,Left Option Image,Right Option Image,Chosen Door,mouse.x,mouse.y,mouse.leftButton,mouse.midButton,mouse.rightButton,mouse.time,mouse.clicked_name,Feedback,Cumulative Reward,Block,trial.thisRepN,trial.thisTrialN,trial.thisN,trial.thisIndex,trial.ran,blocks.thisRepN,blocks.thisTrialN,blocks.thisN,blocks.thisIndex,blocks.ran,Money conversion,First Outcome Reported,Shown Door (First Outcome),Displayed Image (First Outcome),outcomes.thisRepN,outcomes.thisTrialN,outcomes.thisN,outcomes.thisIndex,outcomes.ran,judgments.thisRepN,judgments.thisTrialN,judgments.thisN,judgments.thisIndex,judgments.ran,freqMouse.x,freqMouse.y,freqMouse.leftButton,freqMouse.midButton,freqMouse.rightButton,freqMouse.clicked_name,FQJ for first outcome,FQJ for second outcome,Shown Door,Displayed Image,trials.thisRepN,trials.thisTrialN,trials.thisN,trials.thisIndex,trials.ran,judgBlock.thisRepN,judgBlock.thisTrialN,judgBlock.thisN,judgBlock.thisIndex,judgBlock.ran
1,resources/DB.BMP,resources/DY.BMP,resources/DBN.BMP,resources/DR.BMP,resources/DG.BMP,resources/DP.BMP,5e7fa0e918b10804bb87eb63,2023-08-16_09h04.11.208,HF_wild_card,2022.2.4,Win32,60.0024001,5e7fa0e918b10804bb87eb63,64d2fd46c836a06233681665,64dc82d1ed65289708e6c121,,,,,,,,,,,,,,,,,,,,,,,,,,,,,,,,,,,,,,,,,,,,,,,,,,,,,,,,,,,,,,,,
,,,,,,,5e7fa0e918b10804bb87eb63,2023-08-16_09h04.11.208,HF_wild_card,2022.2.4,Win32,60.0024001,5e7fa0e918b10804bb87eb63,64d2fd46c836a06233681665,64dc82d1ed65289708e6c121,0.01188153,-0.4140625,1,0,0,agree,,,,,,,,,,,,,,,,,,,,,,,,,,,,,,,,,,,,,,,,,,,,,,,,,,,,,,,,,,
,,,,,,,5e7fa0e918b10804bb87eb63,2023-08-16_09h04.11.208,HF_wild_card,2022.2.4,Win32,60.0024001,5e7fa0e918b10804bb87eb63,64d2fd46c836a06233681665,64dc82d1ed65289708e6c121,,,,,,,,,,,,,,,,,,,,,,,,,,,,,,,,,,,,,,,,,,,,,,,,,,,,,,,,,,,,,,,,
,,,,,,,5e7fa0e918b10804bb87eb63,2023-08-16_09h04.11.208,HF_wild_card,2022.2.4,Win32,60.0024001,5e7fa0e918b10804bb87eb63,64d2fd46c836a06233681665,64dc82d1ed65289708e6c121,,,,,,,sngl,resources/Empty.png,resources/DR.BMP,Door4,0.373860717,-0.001302123,1,0,0,3.2157,optionRight,60,60,1,0,0,0,0,1,,,,,,,,,,,,,,,,,,,,,,,,,,,,,,,,,,,,,,,
,,,,,,,5e7fa0e918b10804bb87eb63,2023-08-16_09h04.11.208,HF_wild_card,2022.2.4,Win32,60.0024001,5e7fa0e918b10804bb87eb63,64d2fd46c836a06233681665,64dc82d1ed65289708e6c121,,,,,,,decisionTrl,resources/DR.BMP,resources/DBN.BMP,Door3,0.33219409,-0.020833373,1,0,0,3.3634,optionRight,70,130,1,1,0,1,0,1,,,,,,,,,,,,,,,,,,,,,,,,,,,,,,,,,,,,,,,
,,,,,,,5e7fa0e918b10804bb87eb63,2023-08-16_09h04.11.208,HF_wild_card,2022.2.4,Win32,60.0024001,5e7fa0e918b10804bb87eb63,64d2fd46c836a06233681665,64dc82d1ed65289708e6c121,,,,,,,decisionTrl,resources/DP.BMP,resources/DR.BMP,WildCard_NonEx,-0.424316406,0.016927063,1,0,0,1.8958,optionLeft,45,175,1,2,0,2,0,1,,,,,,,,,,,,,,,,,,,,,,,,,,,,,,,,,,,,,,,
,,,,,,,5e7fa0e918b10804bb87eb63,2023-08-16_09h04.11.208,HF_wild_card,2022.2.4,Win32,60.0024001,5e7fa0e918b10804bb87eb63,64d2fd46c836a06233681665,64dc82d1ed65289708e6c121,,,,,,,decisionTrl,resources/DBN.BMP,resources/DR.BMP,Door4,0.268391967,0.022135407,1,0,0,0.6464,optionRight,60,235,1,3,0,3,0,1,,,,,,,,,,,,,,,,,,,,,,,,,,,,,,,,,,,,,,,
,,,,,,,5e7fa0e918b10804bb87eb63,2023-08-16_09h04.11.208,HF_wild_card,2022.2.4,Win32,60.0024001,5e7fa0e918b10804bb87eb63,64d2fd46c836a06233681665,64dc82d1ed65289708e6c121,,,,,,,decisionTrl,resources/DB.BMP,resources/DP.BMP,Door1,-0.399576813,0.01171875,1,0,0,1.4126,optionLeft,30,265,1,4,0,4,0,1,,,,,,,,,,,,,,,,,,,,,,,,,,,,,,,,,,,,,,,
,,,,,,,5e7fa0e918b10804bb87eb63,2023-08-16_09h04.11.208,HF_wild_card,2022.2.4,Win32,60.0024001,5e7fa0e918b10804bb87eb63,64d2fd46c836a06233681665,64dc82d1ed65289708e6c121,,,,,,,decisionTrl,resources/DY.BMP,resources/DB.BMP,Door2,-0.337076783,-0.002604187,1,0,0,1.1455,optionLeft,20,285,1,5,0,5,0,1,,,,,,,,,,,,,,,,,,,,,,,,,,,,,,,,,,,,,,,
,,,,,,,5e7fa0e918b10804bb87eb63,2023-08-16_09h04.11.208,HF_wild_card,2022.2.4,Win32,60.0024001,5e7fa0e918b10804bb87eb63,64d2fd46c836a06233681665,64dc82d1ed65289708e6c121,,,,,,,ctch,resources/DB.BMP,resources/DR.BMP,Door4,0.466308594,0.059895813,1,0,0,0.645,optionRight,80,365,1,6,0,6,0,1,,,,,,,,,,,,,,,,,,,,,,,,,,,,,,,,,,,,,,,
,,,,,,,5e7fa0e918b10804bb87eb63,2023-08-16_09h04.11.208,HF_wild_card,2022.2.4,Win32,60.0024001,5e7fa0e918b10804bb87eb63,64d2fd46c836a06233681665,64dc82d1ed65289708e6c121,,,,,,,ctch,resources/DY.BMP,resources/DBN.BMP,Door3,0.38297534,0.033854157,1,0,0,1.613,optionRight,70,435,1,7,0,7,0,1,,,,,,,,,,,,,,,,,,,,,,,,,,,,,,,,,,,,,,,
,,,,,,,5e7fa0e918b10804bb87eb63,2023-08-16_09h04.11.208,HF_wild_card,2022.2.4,Win32,60.0024001,5e7fa0e918b10804bb87eb63,64d2fd46c836a06233681665,64dc82d1ed65289708e6c121,,,,,,,ctch,resources/DR.BMP,resources/DB.BMP,Door4,-0.393066406,-0.014322937,1,0,0,0.6791,optionLeft,60,495,1,8,0,8,0,1,,,,,,,,,,,,,,,,,,,,,,,,,,,,,,,,,,,,,,,
,,,,,,,5e7fa0e918b10804bb87eb63,2023-08-16_09h04.11.208,HF_wild_card,2022.2.4,Win32,60.0024001,5e7fa0e918b10804bb87eb63,64d2fd46c836a06233681665,64dc82d1ed65289708e6c121,,,,,,,decisionTrl,resources/DR.BMP,resources/DBN.BMP,Door4,-0.391764313,0.001302063,1,0,0,0.6784,optionLeft,60,555,1,9,0,9,0,1,,,,,,,,,,,,,,,,,,,,,,,,,,,,,,,,,,,,,,,
,,,,,,,5e7fa0e918b10804bb87eb63,2023-08-16_09h04.11.208,HF_wild_card,2022.2.4,Win32,60.0024001,5e7fa0e918b10804bb87eb63,64d2fd46c836a06233681665,64dc82d1ed65289708e6c121,,,,,,,decisionTrl,resources/DP.BMP,resources/DB.BMP,Door1,0.330891967,-0.014322937,1,0,0,1.4631,optionRight,30,585,1,10,0,10,0,1,,,,,,,,,,,,,,,,,,,,,,,,,,,,,,,,,,,,,,,
,,,,,,,5e7fa0e918b10804bb87eb63,2023-08-16_09h04.11.208,HF_wild_card,2022.2.4,Win32,60.0024001,5e7fa0e918b10804bb87eb63,64d2fd46c836a06233681665,64dc82d1ed65289708e6c121,,,,,,,sngl,resources/DB.BMP,resources/Empty.png,Door1,-0.36311847,-0.033854187,1,0,0,1.1626,optionLeft,30,615,1,11,0,11,0,1,,,,,,,,,,,,,,,,,,,,,,,,,,,,,,,,,,,,,,,
,,,,,,,5e7fa0e918b10804bb87eb63,2023-08-16_09h04.11.208,HF_wild_card,2022.2.4,Win32,60.0024001,5e7fa0e918b10804bb87eb63,64d2fd46c836a06233681665,64dc82d1ed65289708e6c121,,,,,,,sngl,resources/DR.BMP,resources/Empty.png,Door4,-0.46858722,0.046875,1,0,0,1.4464,optionLeft,80,695,1,12,0,12,0,1,,,,,,,,,,,,,,,,,,,,,,,,,,,,,,,,,,,,,,,
,,,,,,,5e7fa0e918b10804bb87eb63,2023-08-16_09h04.11.208,HF_wild_card,2022.2.4,Win32,60.0024001,5e7fa0e918b10804bb87eb63,64d2fd46c836a06233681665,64dc82d1ed65289708e6c121,,,,,,,ctch,resources/DY.BMP,resources/DBN.BMP,Door3,0.251464844,0.01171875,1,0,0,1.146,optionRight,70,765,1,13,0,13,0,1,,,,,,,,,,,,,,,,,,,,,,,,,,,,,,,,,,,,,,,
,,,,,,,5e7fa0e918b10804bb87eb63,2023-08-16_09h04.11.208,HF_wild_card,2022.2.4,Win32,60.0024001,5e7fa0e918b10804bb87eb63,64d2fd46c836a06233681665,64dc82d1ed65289708e6c121,,,,,,,ctch,resources/DB.BMP,resources/DR.BMP,Door4,0.28531909,-0.013020873,1,0,0,0.8289,optionRight,80,845,1,14,0,14,0,1,,,,,,,,,,,,,,,,,,,,,,,,,,,,,,,,,,,,,,,
,,,,,,,5e7fa0e918b10804bb87eb63,2023-08-16_09h04.11.208,HF_wild_card,2022.2.4,Win32,60.0024001,5e7fa0e918b10804bb87eb63,64d2fd46c836a06233681665,64dc82d1ed65289708e6c121,,,,,,,sngl,resources/DY.BMP,resources/Empty.png,Door2,-0.337076783,0,1,0,0,0.9969,optionLeft,40,885,1,15,0,15,0,1,,,,,,,,,,,,,,,,,,,,,,,,,,,,,,,,,,,,,,,
,,,,,,,5e7fa0e918b10804bb87eb63,2023-08-16_09h04.11.208,HF_wild_card,2022.2.4,Win32,60.0024001,5e7fa0e918b10804bb87eb63,64d2fd46c836a06233681665,64dc82d1ed65289708e6c121,,,,,,,ctch,resources/DBN.BMP,resources/DY.BMP,Door3,-0.37483722,-0.005208373,1,0,0,1.1795,optionLeft,70,955,1,16,0,16,0,1,,,,,,,,,,,,,,,,,,,,,,,,,,,,,,,,,,,,,,,
,,,,,,,5e7fa0e918b10804bb87eb63,2023-08-16_09h04.11.208,HF_wild_card,2022.2.4,Win32,60.0024001,5e7fa0e918b10804bb87eb63,64d2fd46c836a06233681665,64dc82d1ed65289708e6c121,,,,,,,sngl,resources/DP.BMP,resources/Empty.png,WildCard_NonEx,-0.317545533,-0.028645873,1,0,0,0.9627,optionLeft,45,1000,1,17,0,17,0,1,,,,,,,,,,,,,,,,,,,,,,,,,,,,,,,,,,,,,,,
,,,,,,,5e7fa0e918b10804bb87eb63,2023-08-16_09h04.11.208,HF_wild_card,2022.2.4,Win32,60.0024001,5e7fa0e918b10804bb87eb63,64d2fd46c836a06233681665,64dc82d1ed65289708e6c121,,,,,,,decisionTrl,resources/DR.BMP,resources/DBN.BMP,Door3,0.244954467,-0.002604187,1,0,0,1.3627,optionRight,70,1070,1,18,0,18,0,1,,,,,,,,,,,,,,,,,,,,,,,,,,,,,,,,,,,,,,,
,,,,,,,5e7fa0e918b10804bb87eb63,2023-08-16_09h04.11.208,HF_wild_card,2022.2.4,Win32,60.0024001,5e7fa0e918b10804bb87eb63,64d2fd46c836a06233681665,64dc82d1ed65289708e6c121,,,,,,,decisionTrl,resources/DB.BMP,resources/DY.BMP,Door2,0.251464844,0.010416657,1,0,0,1.7363,optionRight,40,1110,1,19,0,19,0,1,,,,,,,,,,,,,,,,,,,,,,,,,,,,,,,,,,,,,,,
,,,,,,,5e7fa0e918b10804bb87eb63,2023-08-16_09h04.11.208,HF_wild_card,2022.2.4,Win32,60.0024001,5e7fa0e918b10804bb87eb63,64d2fd46c836a06233681665,64dc82d1ed65289708e6c121,,,,,,,decisionTrl,resources/DY.BMP,resources/DB.BMP,Door2,-0.286295533,-0.059895873,1,0,0,1.2456,optionLeft,40,1150,1,20,0,20,0,1,,,,,,,,,,,,,,,,,,,,,,,,,,,,,,,,,,,,,,,
,,,,,,,5e7fa0e918b10804bb87eb63,2023-08-16_09h04.11.208,HF_wild_card,2022.2.4,Win32,60.0024001,5e7fa0e918b10804bb87eb63,64d2fd46c836a06233681665,64dc82d1ed65289708e6c121,,,,,,,ctch,resources/DBN.BMP,resources/DY.BMP,Door3,-0.411295563,0.010416657,1,0,0,0.9784,optionLeft,70,1220,1,21,0,21,0,1,,,,,,,,,,,,,,,,,,,,,,,,,,,,,,,,,,,,,,,
,,,,,,,5e7fa0e918b10804bb87eb63,2023-08-16_09h04.11.208,HF_wild_card,2022.2.4,Win32,60.0024001,5e7fa0e918b10804bb87eb63,64d2fd46c836a06233681665,64dc82d1ed65289708e6c121,,,,,,,sngl,resources/DP.BMP,resources/Empty.png,WildCard_NonEx,-0.369628906,-0.00390625,1,0,0,0.7463,optionLeft,55,1275,1,22,0,22,0,1,,,,,,,,,,,,,,,,,,,,,,,,,,,,,,,,,,,,,,,
,,,,,,,5e7fa0e918b10804bb87eb63,2023-08-16_09h04.11.208,HF_wild_card,2022.2.4,Win32,60.0024001,5e7fa0e918b10804bb87eb63,64d2fd46c836a06233681665,64dc82d1ed65289708e6c121,,,,,,,sngl,resources/Empty.png,resources/DBN.BMP,Door3,0.376464844,0.049479157,1,0,0,0.7443,optionRight,70,1345,1,23,0,23,0,1,,,,,,,,,,,,,,,,,,,,,,,,,,,,,,,,,,,,,,,
,,,,,,,5e7fa0e918b10804bb87eb63,2023-08-16_09h04.11.208,HF_wild_card,2022.2.4,Win32,60.0024001,5e7fa0e918b10804bb87eb63,64d2fd46c836a06233681665,64dc82d1ed65289708e6c121,,,,,,,decisionTrl,resources/DB.BMP,resources/DY.BMP,Door2,0.455891967,-0.00390625,1,0,0,2.0629,optionRight,40,1385,1,24,0,24,0,1,,,,,,,,,,,,,,,,,,,,,,,,,,,,,,,,,,,,,,,
,,,,,,,5e7fa0e918b10804bb87eb63,2023-08-16_09h04.11.208,HF_wild_card,2022.2.4,Win32,60.0024001,5e7fa0e918b10804bb87eb63,64d2fd46c836a06233681665,64dc82d1ed65289708e6c121,,,,,,,decisionTrl,resources/DY.BMP,resources/DB.BMP,Door2,-0.26936847,-0.018229187,1,0,0,1.0614,optionLeft,20,1405,1,25,0,25,0,1,,,,,,,,,,,,,,,,,,,,,,,,,,,,,,,,,,,,,,,
,,,,,,,5e7fa0e918b10804bb87eb63,2023-08-16_09h04.11.208,HF_wild_card,2022.2.4,Win32,60.0024001,5e7fa0e918b10804bb87eb63,64d2fd46c836a06233681665,64dc82d1ed65289708e6c121,,,,,,,decisionTrl,resources/DY.BMP,resources/DP.BMP,WildCard_NonEx,0.260579467,0.002604157,1,0,0,1.3471,optionRight,45,1450,1,26,0,26,0,1,,,,,,,,,,,,,,,,,,,,,,,,,,,,,,,,,,,,,,,
,,,,,,,5e7fa0e918b10804bb87eb63,2023-08-16_09h04.11.208,HF_wild_card,2022.2.4,Win32,60.0024001,5e7fa0e918b10804bb87eb63,64d2fd46c836a06233681665,64dc82d1ed65289708e6c121,,,,,,,decisionTrl,resources/DB.BMP,resources/DY.BMP,Door2,0.325683594,0.001302063,1,0,0,2.2302,optionRight,20,1470,1,27,0,27,0,1,,,,,,,,,,,,,,,,,,,,,,,,,,,,,,,,,,,,,,,
,,,,,,,5e7fa0e918b10804bb87eb63,2023-08-16_09h04.11.208,HF_wild_card,2022.2.4,Win32,60.0024001,5e7fa0e918b10804bb87eb63,64d2fd46c836a06233681665,64dc82d1ed65289708e6c121,,,,,,,sngl,resources/Empty.png,resources/DP.BMP,WildCard_NonEx,0.502766967,-0.0234375,1,0,0,0.6793,optionRight,45,1515,1,28,0,28,0,1,,,,,,,,,,,,,,,,,,,,,,,,,,,,,,,,,,,,,,,
,,,,,,,5e7fa0e918b10804bb87eb63,2023-08-16_09h04.11.208,HF_wild_card,2022.2.4,Win32,60.0024001,5e7fa0e918b10804bb87eb63,64d2fd46c836a06233681665,64dc82d1ed65289708e6c121,,,,,,,decisionTrl,resources/DBN.BMP,resources/DR.BMP,Door4,0.40250659,0.001302063,1,0,0,1.7628,optionRight,60,1575,1,29,0,29,0,1,,,,,,,,,,,,,,,,,,,,,,,,,,,,,,,,,,,,,,,
,,,,,,,5e7fa0e918b10804bb87eb63,2023-08-16_09h04.11.208,HF_wild_card,2022.2.4,Win32,60.0024001,5e7fa0e918b10804bb87eb63,64d2fd46c836a06233681665,64dc82d1ed65289708e6c121,,,,,,,sngl,resources/Empty.png,resources/DP.BMP,WildCard_NonEx,0.356933594,-0.005208373,1,0,0,0.6461,optionRight,55,1630,1,30,0,30,0,1,,,,,,,,,,,,,,,,,,,,,,,,,,,,,,,,,,,,,,,
,,,,,,,5e7fa0e918b10804bb87eb63,2023-08-16_09h04.11.208,HF_wild_card,2022.2.4,Win32,60.0024001,5e7fa0e918b10804bb87eb63,64d2fd46c836a06233681665,64dc82d1ed65289708e6c121,,,,,,,ctch,resources/DR.BMP,resources/DB.BMP,Door4,-0.258951783,-0.009114623,1,0,0,0.7456,optionLeft,80,1710,1,31,0,31,0,1,,,,,,,,,,,,,,,,,,,,,,,,,,,,,,,,,,,,,,,
,,,,,,,5e7fa0e918b10804bb87eb63,2023-08-16_09h04.11.208,HF_wild_card,2022.2.4,Win32,60.0024001,5e7fa0e918b10804bb87eb63,64d2fd46c836a06233681665,64dc82d1ed65289708e6c121,,,,,,,sngl,resources/Empty.png,resources/DY.BMP,Door2,0.25797534,-0.013020873,1,0,0,0.6782,optionRight,20,1730,1,32,0,32,0,1,,,,,,,,,,,,,,,,,,,,,,,,,,,,,,,,,,,,,,,
,,,,,,,5e7fa0e918b10804bb87eb63,2023-08-16_09h04.11.208,HF_wild_card,2022.2.4,Win32,60.0024001,5e7fa0e918b10804bb87eb63,64d2fd46c836a06233681665,64dc82d1ed65289708e6c121,,,,,,,decisionTrl,resources/DBN.BMP,resources/DR.BMP,Door4,0.303548217,-0.044270873,1,0,0,1.0808,optionRight,80,1810,1,33,0,33,0,1,,,,,,,,,,,,,,,,,,,,,,,,,,,,,,,,,,,,,,,
,,,,,,,5e7fa0e918b10804bb87eb63,2023-08-16_09h04.11.208,HF_wild_card,2022.2.4,Win32,60.0024001,5e7fa0e918b10804bb87eb63,64d2fd46c836a06233681665,64dc82d1ed65289708e6c121,,,,,,,sngl,resources/Empty.png,resources/DB.BMP,Door1,0.369954467,-0.032552123,1,0,0,0.6945,optionRight,30,1840,1,34,0,34,0,1,,,,,,,,,,,,,,,,,,,,,,,,,,,,,,,,,,,,,,,
,,,,,,,5e7fa0e918b10804bb87eb63,2023-08-16_09h04.11.208,HF_wild_card,2022.2.4,Win32,60.0024001,5e7fa0e918b10804bb87eb63,64d2fd46c836a06233681665,64dc82d1ed65289708e6c121,,,,,,,decisionTrl,resources/DBN.BMP,resources/DP.BMP,Door3,-0.279785156,-0.0625,1,0,0,1.1616,optionLeft,70,1910,1,35,0,35,0,1,,,,,,,,,,,,,,,,,,,,,,,,,,,,,,,,,,,,,,,
,,,,,,,5e7fa0e918b10804bb87eb63,2023-08-16_09h04.11.208,HF_wild_card,2022.2.4,Win32,60.0024001,5e7fa0e918b10804bb87eb63,64d2fd46c836a06233681665,64dc82d1ed65289708e6c121,,,,,,,decisionTrl,resources/DB.BMP,resources/DY.BMP,Door2,0.33219409,0.04296875,1,0,0,1.9133,optionRight,40,1950,1,36,0,36,0,1,,,,,,,,,,,,,,,,,,,,,,,,,,,,,,,,,,,,,,,
,,,,,,,5e7fa0e918b10804bb87eb63,2023-08-16_09h04.11.208,HF_wild_card,2022.2.4,Win32,60.0024001,5e7fa0e918b10804bb87eb63,64d2fd46c836a06233681665,64dc82d1ed65289708e6c121,,,,,,,decisionTrl,resources/DR.BMP,resources/DBN.BMP,Door4,-0.430826813,0.013020813,1,0,0,1.3792,optionLeft,60,2010,1,37,0,37,0,1,,,,,,,,,,,,,,,,,,,,,,,,,,,,,,,,,,,,,,,
,,,,,,,5e7fa0e918b10804bb87eb63,2023-08-16_09h04.11.208,HF_wild_card,2022.2.4,Win32,60.0024001,5e7fa0e918b10804bb87eb63,64d2fd46c836a06233681665,64dc82d1ed65289708e6c121,,,,,,,decisionTrl,resources/DP.BMP,resources/DBN.BMP,Door3,0.333496094,0.026041657,1,0,0,0.997,optionRight,70,2080,1,38,0,38,0,1,,,,,,,,,,,,,,,,,,,,,,,,,,,,,,,,,,,,,,,
,,,,,,,5e7fa0e918b10804bb87eb63,2023-08-16_09h04.11.208,HF_wild_card,2022.2.4,Win32,60.0024001,5e7fa0e918b10804bb87eb63,64d2fd46c836a06233681665,64dc82d1ed65289708e6c121,,,,,,,decisionTrl,resources/DP.BMP,resources/DY.BMP,WildCard_NonEx,-0.295410156,0.005208313,1,0,0,1.2624,optionLeft,45,2125,1,39,0,39,0,1,,,,,,,,,,,,,,,,,,,,,,,,,,,,,,,,,,,,,,,
,,,,,,,5e7fa0e918b10804bb87eb63,2023-08-16_09h04.11.208,HF_wild_card,2022.2.4,Win32,60.0024001,5e7fa0e918b10804bb87eb63,64d2fd46c836a06233681665,64dc82d1ed65289708e6c121,,,,,,,sngl,resources/DBN.BMP,resources/Empty.png,Door3,-0.240722656,-0.005208373,1,0,0,0.7127,optionLeft,70,2195,1,40,0,40,0,1,,,,,,,,,,,,,,,,,,,,,,,,,,,,,,,,,,,,,,,
,,,,,,,5e7fa0e918b10804bb87eb63,2023-08-16_09h04.11.208,HF_wild_card,2022.2.4,Win32,60.0024001,5e7fa0e918b10804bb87eb63,64d2fd46c836a06233681665,64dc82d1ed65289708e6c121,,,,,,,decisionTrl,resources/DR.BMP,resources/DP.BMP,Door4,-0.33186847,-0.006510437,1,0,0,0.963,optionLeft,80,2275,1,41,0,41,0,1,,,,,,,,,,,,,,,,,,,,,,,,,,,,,,,,,,,,,,,
,,,,,,,5e7fa0e918b10804bb87eb63,2023-08-16_09h04.11.208,HF_wild_card,2022.2.4,Win32,60.0024001,5e7fa0e918b10804bb87eb63,64d2fd46c836a06233681665,64dc82d1ed65289708e6c121,,,,,,,decisionTrl,resources/DBN.BMP,resources/DR.BMP,Door4,0.278808594,0,1,0,0,0.6481,optionRight,60,2335,1,42,0,42,0,1,,,,,,,,,,,,,,,,,,,,,,,,,,,,,,,,,,,,,,,
,,,,,,,5e7fa0e918b10804bb87eb63,2023-08-16_09h04.11.208,HF_wild_card,2022.2.4,Win32,60.0024001,5e7fa0e918b10804bb87eb63,64d2fd46c836a06233681665,64dc82d1ed65289708e6c121,,,,,,,decisionTrl,resources/DY.BMP,resources/DB.BMP,Door2,-0.33186847,0.01953125,1,0,0,1.3296,optionLeft,20,2355,1,43,0,43,0,1,,,,,,,,,,,,,,,,,,,,,,,,,,,,,,,,,,,,,,,
,,,,,,,5e7fa0e918b10804bb87eb63,2023-08-16_09h04.11.208,HF_wild_card,2022.2.4,Win32,60.0024001,5e7fa0e918b10804bb87eb63,64d2fd46c836a06233681665,64dc82d1ed65289708e6c121,,,,,,,,,,,,,,,,,,,,,,,,,,0,0,0,0,1,,,,,,,,,,,,,,,,,,,,,,,,,,,,,,,,,,
,,,,,,,5e7fa0e918b10804bb87eb63,2023-08-16_09h04.11.208,HF_wild_card,2022.2.4,Win32,60.0024001,5e7fa0e918b10804bb87eb63,64d2fd46c836a06233681665,64dc82d1ed65289708e6c121,,,,,,,ctch,resources/DR.BMP,resources/DB.BMP,Door4,-0.200358033,-0.147135437,1,0,0,0.9665,optionLeft,80,2435,2,0,0,0,0,1,,,,,,,,,,,,,,,,,,,,,,,,,,,,,,,,,,,,,,,
,,,,,,,5e7fa0e918b10804bb87eb63,2023-08-16_09h04.11.208,HF_wild_card,2022.2.4,Win32,60.0024001,5e7fa0e918b10804bb87eb63,64d2fd46c836a06233681665,64dc82d1ed65289708e6c121,,,,,,,ctch,resources/DBN.BMP,resources/DY.BMP,Door3,-0.411295563,0.02734375,1,0,0,0.9323,optionLeft,70,2505,2,1,0,1,0,1,,,,,,,,,,,,,,,,,,,,,,,,,,,,,,,,,,,,,,,
,,,,,,,5e7fa0e918b10804bb87eb63,2023-08-16_09h04.11.208,HF_wild_card,2022.2.4,Win32,60.0024001,5e7fa0e918b10804bb87eb63,64d2fd46c836a06233681665,64dc82d1ed65289708e6c121,,,,,,,sngl,resources/Empty.png,resources/DP.BMP,WildCard_NonEx,0.26969409,-0.009114623,1,0,0,0.748,optionRight,45,2550,2,2,0,2,0,1,,,,,,,,,,,,,,,,,,,,,,,,,,,,,,,,,,,,,,,
,,,,,,,5e7fa0e918b10804bb87eb63,2023-08-16_09h04.11.208,HF_wild_card,2022.2.4,Win32,60.0024001,5e7fa0e918b10804bb87eb63,64d2fd46c836a06233681665,64dc82d1ed65289708e6c121,,,,,,,decisionTrl,resources/DB.BMP,resources/DY.BMP,Door1,-0.428222656,0.009114563,1,0,0,2.1996,optionLeft,30,2580,2,3,0,3,0,1,,,,,,,,,,,,,,,,,,,,,,,,,,,,,,,,,,,,,,,
,,,,,,,5e7fa0e918b10804bb87eb63,2023-08-16_09h04.11.208,HF_wild_card,2022.2.4,Win32,60.0024001,5e7fa0e918b10804bb87eb63,64d2fd46c836a06233681665,64dc82d1ed65289708e6c121,,,,,,,decisionTrl,resources/DBN.BMP,resources/DP.BMP,Door3,-0.447753906,0.026041657,1,0,0,1.3322,optionLeft,70,2650,2,4,0,4,0,1,,,,,,,,,,,,,,,,,,,,,,,,,,,,,,,,,,,,,,,
,,,,,,,5e7fa0e918b10804bb87eb63,2023-08-16_09h04.11.208,HF_wild_card,2022.2.4,Win32,60.0024001,5e7fa0e918b10804bb87eb63,64d2fd46c836a06233681665,64dc82d1ed65289708e6c121,,,,,,,ctch,resources/DBN.BMP,resources/DY.BMP,Door3,-0.29280597,0.014322907,1,0,0,0.7481,optionLeft,70,2720,2,5,0,5,0,1,,,,,,,,,,,,,,,,,,,,,,,,,,,,,,,,,,,,,,,
,,,,,,,5e7fa0e918b10804bb87eb63,2023-08-16_09h04.11.208,HF_wild_card,2022.2.4,Win32,60.0024001,5e7fa0e918b10804bb87eb63,64d2fd46c836a06233681665,64dc82d1ed65289708e6c121,,,,,,,sngl,resources/Empty.png,resources/DBN.BMP,Door3,0.35953784,0.010416657,1,0,0,0.6648,optionRight,70,2790,2,6,0,6,0,1,,,,,,,,,,,,,,,,,,,,,,,,,,,,,,,,,,,,,,,
,,,,,,,5e7fa0e918b10804bb87eb63,2023-08-16_09h04.11.208,HF_wild_card,2022.2.4,Win32,60.0024001,5e7fa0e918b10804bb87eb63,64d2fd46c836a06233681665,64dc82d1ed65289708e6c121,,,,,,,decisionTrl,resources/DR.BMP,resources/DBN.BMP,Door4,-0.35139972,0.00390625,1,0,0,1.0482,optionLeft,80,2870,2,7,0,7,0,1,,,,,,,,,,,,,,,,,,,,,,,,,,,,,,,,,,,,,,,
,,,,,,,5e7fa0e918b10804bb87eb63,2023-08-16_09h04.11.208,HF_wild_card,2022.2.4,Win32,60.0024001,5e7fa0e918b10804bb87eb63,64d2fd46c836a06233681665,64dc82d1ed65289708e6c121,,,,,,,sngl,resources/DP.BMP,resources/Empty.png,WildCard_NonEx,-0.338378906,0.009114563,1,0,0,0.764,optionLeft,55,2925,2,8,0,8,0,1,,,,,,,,,,,,,,,,,,,,,,,,,,,,,,,,,,,,,,,
,,,,,,,5e7fa0e918b10804bb87eb63,2023-08-16_09h04.11.208,HF_wild_card,2022.2.4,Win32,60.0024001,5e7fa0e918b10804bb87eb63,64d2fd46c836a06233681665,64dc82d1ed65289708e6c121,,,,,,,decisionTrl,resources/DBN.BMP,resources/DR.BMP,Door4,0.37125659,0.001302063,1,0,0,0.8271,optionRight,60,2985,2,9,0,9,0,1,,,,,,,,,,,,,,,,,,,,,,,,,,,,,,,,,,,,,,,
,,,,,,,5e7fa0e918b10804bb87eb63,2023-08-16_09h04.11.208,HF_wild_card,2022.2.4,Win32,60.0024001,5e7fa0e918b10804bb87eb63,64d2fd46c836a06233681665,64dc82d1ed65289708e6c121,,,,,,,sngl,resources/Empty.png,resources/DP.BMP,WildCard_NonEx,0.44938159,-0.014322937,1,0,0,0.6973,optionRight,55,3040,2,10,0,10,0,1,,,,,,,,,,,,,,,,,,,,,,,,,,,,,,,,,,,,,,,
,,,,,,,5e7fa0e918b10804bb87eb63,2023-08-16_09h04.11.208,HF_wild_card,2022.2.4,Win32,60.0024001,5e7fa0e918b10804bb87eb63,64d2fd46c836a06233681665,64dc82d1ed65289708e6c121,,,,,,,ctch,resources/DB.BMP,resources/DR.BMP,Door4,0.34781909,-0.013020873,1,0,0,0.8815,optionRight,80,3120,2,11,0,11,0,1,,,,,,,,,,,,,,,,,,,,,,,,,,,,,,,,,,,,,,,
,,,,,,,5e7fa0e918b10804bb87eb63,2023-08-16_09h04.11.208,HF_wild_card,2022.2.4,Win32,60.0024001,5e7fa0e918b10804bb87eb63,64d2fd46c836a06233681665,64dc82d1ed65289708e6c121,,,,,,,sngl,resources/Empty.png,resources/DR.BMP,Door4,0.393391967,-0.009114623,1,0,0,0.6484,optionRight,80,3200,2,12,0,12,0,1,,,,,,,,,,,,,,,,,,,,,,,,,,,,,,,,,,,,,,,
,,,,,,,5e7fa0e918b10804bb87eb63,2023-08-16_09h04.11.208,HF_wild_card,2022.2.4,Win32,60.0024001,5e7fa0e918b10804bb87eb63,64d2fd46c836a06233681665,64dc82d1ed65289708e6c121,,,,,,,decisionTrl,resources/DY.BMP,resources/DB.BMP,Door1,0.216308594,0.015625,1,0,0,1.5326,optionRight,30,3230,2,13,0,13,0,1,,,,,,,,,,,,,,,,,,,,,,,,,,,,,,,,,,,,,,,
,,,,,,,5e7fa0e918b10804bb87eb63,2023-08-16_09h04.11.208,HF_wild_card,2022.2.4,Win32,60.0024001,5e7fa0e918b10804bb87eb63,64d2fd46c836a06233681665,64dc82d1ed65289708e6c121,,,,,,,decisionTrl,resources/DP.BMP,resources/DB.BMP,WildCard_NonEx,-0.303222656,0.0078125,1,0,0,1.3674,optionLeft,55,3285,2,14,0,14,0,1,,,,,,,,,,,,,,,,,,,,,,,,,,,,,,,,,,,,,,,
,,,,,,,5e7fa0e918b10804bb87eb63,2023-08-16_09h04.11.208,HF_wild_card,2022.2.4,Win32,60.0024001,5e7fa0e918b10804bb87eb63,64d2fd46c836a06233681665,64dc82d1ed65289708e6c121,,,,,,,decisionTrl,resources/DR.BMP,resources/DBN.BMP,Door4,-0.326660156,0.01171875,1,0,0,0.7819,optionLeft,60,3345,2,15,0,15,0,1,,,,,,,,,,,,,,,,,,,,,,,,,,,,,,,,,,,,,,,
,,,,,,,5e7fa0e918b10804bb87eb63,2023-08-16_09h04.11.208,HF_wild_card,2022.2.4,Win32,60.0024001,5e7fa0e918b10804bb87eb63,64d2fd46c836a06233681665,64dc82d1ed65289708e6c121,,,,,,,decisionTrl,resources/DY.BMP,resources/DB.BMP,Door1,0.302246094,0.001302063,1,0,0,1.8491,optionRight,30,3375,2,16,0,16,0,1,,,,,,,,,,,,,,,,,,,,,,,,,,,,,,,,,,,,,,,
,,,,,,,5e7fa0e918b10804bb87eb63,2023-08-16_09h04.11.208,HF_wild_card,2022.2.4,Win32,60.0024001,5e7fa0e918b10804bb87eb63,64d2fd46c836a06233681665,64dc82d1ed65289708e6c121,,,,,,,sngl,resources/DB.BMP,resources/Empty.png,Door1,-0.291503906,0.01171875,1,0,0,0.6314,optionLeft,30,3405,2,17,0,17,0,1,,,,,,,,,,,,,,,,,,,,,,,,,,,,,,,,,,,,,,,
,,,,,,,5e7fa0e918b10804bb87eb63,2023-08-16_09h04.11.208,HF_wild_card,2022.2.4,Win32,60.0024001,5e7fa0e918b10804bb87eb63,64d2fd46c836a06233681665,64dc82d1ed65289708e6c121,,,,,,,decisionTrl,resources/DBN.BMP,resources/DR.BMP,Door4,0.342610717,-0.02734375,1,0,0,0.7273,optionRight,60,3465,2,18,0,18,0,1,,,,,,,,,,,,,,,,,,,,,,,,,,,,,,,,,,,,,,,
,,,,,,,5e7fa0e918b10804bb87eb63,2023-08-16_09h04.11.208,HF_wild_card,2022.2.4,Win32,60.0024001,5e7fa0e918b10804bb87eb63,64d2fd46c836a06233681665,64dc82d1ed65289708e6c121,,,,,,,decisionTrl,resources/DP.BMP,resources/DBN.BMP,Door3,0.528808594,0.006510407,1,0,0,0.7311,optionRight,70,3535,2,19,0,19,0,1,,,,,,,,,,,,,,,,,,,,,,,,,,,,,,,,,,,,,,,
,,,,,,,5e7fa0e918b10804bb87eb63,2023-08-16_09h04.11.208,HF_wild_card,2022.2.4,Win32,60.0024001,5e7fa0e918b10804bb87eb63,64d2fd46c836a06233681665,64dc82d1ed65289708e6c121,,,,,,,decisionTrl,resources/DP.BMP,resources/DR.BMP,Door4,0.419433594,-0.013020873,1,0,0,0.9106,optionRight,80,3615,2,20,0,20,0,1,,,,,,,,,,,,,,,,,,,,,,,,,,,,,,,,,,,,,,,
,,,,,,,5e7fa0e918b10804bb87eb63,2023-08-16_09h04.11.208,HF_wild_card,2022.2.4,Win32,60.0024001,5e7fa0e918b10804bb87eb63,64d2fd46c836a06233681665,64dc82d1ed65289708e6c121,,,,,,,decisionTrl,resources/DB.BMP,resources/DY.BMP,Door2,0.360839844,-0.022135437,1,0,0,1.0628,optionRight,40,3655,2,21,0,21,0,1,,,,,,,,,,,,,,,,,,,,,,,,,,,,,,,,,,,,,,,
,,,,,,,5e7fa0e918b10804bb87eb63,2023-08-16_09h04.11.208,HF_wild_card,2022.2.4,Win32,60.0024001,5e7fa0e918b10804bb87eb63,64d2fd46c836a06233681665,64dc82d1ed65289708e6c121,,,,,,,decisionTrl,resources/DR.BMP,resources/DP.BMP,Door4,-0.548014313,0.028645813,1,0,0,0.8815,optionLeft,60,3715,2,22,0,22,0,1,,,,,,,,,,,,,,,,,,,,,,,,,,,,,,,,,,,,,,,
,,,,,,,5e7fa0e918b10804bb87eb63,2023-08-16_09h04.11.208,HF_wild_card,2022.2.4,Win32,60.0024001,5e7fa0e918b10804bb87eb63,64d2fd46c836a06233681665,64dc82d1ed65289708e6c121,,,,,,,decisionTrl,resources/DY.BMP,resources/DB.BMP,Door1,0.403808594,0.005208313,1,0,0,2.3166,optionRight,30,3745,2,23,0,23,0,1,,,,,,,,,,,,,,,,,,,,,,,,,,,,,,,,,,,,,,,
,,,,,,,5e7fa0e918b10804bb87eb63,2023-08-16_09h04.11.208,HF_wild_card,2022.2.4,Win32,60.0024001,5e7fa0e918b10804bb87eb63,64d2fd46c836a06233681665,64dc82d1ed65289708e6c121,,,,,,,decisionTrl,resources/DBN.BMP,resources/DR.BMP,Door4,0.536621094,-0.009114623,1,0,0,0.7315,optionRight,60,3805,2,24,0,24,0,1,,,,,,,,,,,,,,,,,,,,,,,,,,,,,,,,,,,,,,,
,,,,,,,5e7fa0e918b10804bb87eb63,2023-08-16_09h04.11.208,HF_wild_card,2022.2.4,Win32,60.0024001,5e7fa0e918b10804bb87eb63,64d2fd46c836a06233681665,64dc82d1ed65289708e6c121,,,,,,,decisionTrl,resources/DB.BMP,resources/DY.BMP,Door1,-0.271972656,0,1,0,0,2.3005,optionLeft,30,3835,2,25,0,25,0,1,,,,,,,,,,,,,,,,,,,,,,,,,,,,,,,,,,,,,,,
,,,,,,,5e7fa0e918b10804bb87eb63,2023-08-16_09h04.11.208,HF_wild_card,2022.2.4,Win32,60.0024001,5e7fa0e918b10804bb87eb63,64d2fd46c836a06233681665,64dc82d1ed65289708e6c121,,,,,,,sngl,resources/Empty.png,resources/DB.BMP,Door1,0.389485717,0.006510407,1,0,0,0.6481,optionRight,30,3865,2,26,0,26,0,1,,,,,,,,,,,,,,,,,,,,,,,,,,,,,,,,,,,,,,,
,,,,,,,5e7fa0e918b10804bb87eb63,2023-08-16_09h04.11.208,HF_wild_card,2022.2.4,Win32,60.0024001,5e7fa0e918b10804bb87eb63,64d2fd46c836a06233681665,64dc82d1ed65289708e6c121,,,,,,,decisionTrl,resources/DBN.BMP,resources/DR.BMP,Door4,0.337402344,0.006510407,1,0,0,0.9317,optionRight,80,3945,2,27,0,27,0,1,,,,,,,,,,,,,,,,,,,,,,,,,,,,,,,,,,,,,,,
,,,,,,,5e7fa0e918b10804bb87eb63,2023-08-16_09h04.11.208,HF_wild_card,2022.2.4,Win32,60.0024001,5e7fa0e918b10804bb87eb63,64d2fd46c836a06233681665,64dc82d1ed65289708e6c121,,,,,,,decisionTrl,resources/DR.BMP,resources/DBN.BMP,Door4,-0.383951783,0.016927063,1,0,0,0.648,optionLeft,80,4025,2,28,0,28,0,1,,,,,,,,,,,,,,,,,,,,,,,,,,,,,,,,,,,,,,,
,,,,,,,5e7fa0e918b10804bb87eb63,2023-08-16_09h04.11.208,HF_wild_card,2022.2.4,Win32,60.0024001,5e7fa0e918b10804bb87eb63,64d2fd46c836a06233681665,64dc82d1ed65289708e6c121,,,,,,,ctch,resources/DB.BMP,resources/DR.BMP,Door4,0.30875659,-0.006510437,1,0,0,0.6304,optionRight,80,4105,2,29,0,29,0,1,,,,,,,,,,,,,,,,,,,,,,,,,,,,,,,,,,,,,,,
,,,,,,,5e7fa0e918b10804bb87eb63,2023-08-16_09h04.11.208,HF_wild_card,2022.2.4,Win32,60.0024001,5e7fa0e918b10804bb87eb63,64d2fd46c836a06233681665,64dc82d1ed65289708e6c121,,,,,,,sngl,resources/DY.BMP,resources/Empty.png,Door2,-0.334472656,-0.006510437,1,0,0,0.6993,optionLeft,20,4125,2,30,0,30,0,1,,,,,,,,,,,,,,,,,,,,,,,,,,,,,,,,,,,,,,,
,,,,,,,5e7fa0e918b10804bb87eb63,2023-08-16_09h04.11.208,HF_wild_card,2022.2.4,Win32,60.0024001,5e7fa0e918b10804bb87eb63,64d2fd46c836a06233681665,64dc82d1ed65289708e6c121,,,,,,,decisionTrl,resources/DY.BMP,resources/DB.BMP,Door1,0.321777344,0.006510407,1,0,0,1.9691,optionRight,30,4155,2,31,0,31,0,1,,,,,,,,,,,,,,,,,,,,,,,,,,,,,,,,,,,,,,,
,,,,,,,5e7fa0e918b10804bb87eb63,2023-08-16_09h04.11.208,HF_wild_card,2022.2.4,Win32,60.0024001,5e7fa0e918b10804bb87eb63,64d2fd46c836a06233681665,64dc82d1ed65289708e6c121,,,,,,,sngl,resources/DP.BMP,resources/Empty.png,WildCard_NonEx,-0.35139972,0.006510407,1,0,0,0.6512,optionLeft,45,4200,2,32,0,32,0,1,,,,,,,,,,,,,,,,,,,,,,,,,,,,,,,,,,,,,,,
,,,,,,,5e7fa0e918b10804bb87eb63,2023-08-16_09h04.11.208,HF_wild_card,2022.2.4,Win32,60.0024001,5e7fa0e918b10804bb87eb63,64d2fd46c836a06233681665,64dc82d1ed65289708e6c121,,,,,,,decisionTrl,resources/DB.BMP,resources/DY.BMP,Door1,-0.298014283,0.006510407,1,0,0,1.8323,optionLeft,30,4230,2,33,0,33,0,1,,,,,,,,,,,,,,,,,,,,,,,,,,,,,,,,,,,,,,,
,,,,,,,5e7fa0e918b10804bb87eb63,2023-08-16_09h04.11.208,HF_wild_card,2022.2.4,Win32,60.0024001,5e7fa0e918b10804bb87eb63,64d2fd46c836a06233681665,64dc82d1ed65289708e6c121,,,,,,,sngl,resources/Empty.png,resources/DY.BMP,Door2,0.416829467,0.013020813,1,0,0,0.5983,optionRight,40,4270,2,34,0,34,0,1,,,,,,,,,,,,,,,,,,,,,,,,,,,,,,,,,,,,,,,
,,,,,,,5e7fa0e918b10804bb87eb63,2023-08-16_09h04.11.208,HF_wild_card,2022.2.4,Win32,60.0024001,5e7fa0e918b10804bb87eb63,64d2fd46c836a06233681665,64dc82d1ed65289708e6c121,,,,,,,decisionTrl,resources/DB.BMP,resources/DP.BMP,WildCard_NonEx,0.397298217,-0.018229187,1,0,0,1.0849,optionRight,45,4315,2,35,0,35,0,1,,,,,,,,,,,,,,,,,,,,,,,,,,,,,,,,,,,,,,,
,,,,,,,5e7fa0e918b10804bb87eb63,2023-08-16_09h04.11.208,HF_wild_card,2022.2.4,Win32,60.0024001,5e7fa0e918b10804bb87eb63,64d2fd46c836a06233681665,64dc82d1ed65289708e6c121,,,,,,,ctch,resources/DY.BMP,resources/DBN.BMP,Door3,0.32047534,0.013020813,1,0,0,1.0313,optionRight,70,4385,2,36,0,36,0,1,,,,,,,,,,,,,,,,,,,,,,,,,,,,,,,,,,,,,,,
,,,,,,,5e7fa0e918b10804bb87eb63,2023-08-16_09h04.11.208,HF_wild_card,2022.2.4,Win32,60.0024001,5e7fa0e918b10804bb87eb63,64d2fd46c836a06233681665,64dc82d1ed65289708e6c121,,,,,,,sngl,resources/DR.BMP,resources/Empty.png,Door4,-0.39827472,0.04296875,1,0,0,0.6647,optionLeft,60,4445,2,37,0,37,0,1,,,,,,,,,,,,,,,,,,,,,,,,,,,,,,,,,,,,,,,
,,,,,,,5e7fa0e918b10804bb87eb63,2023-08-16_09h04.11.208,HF_wild_card,2022.2.4,Win32,60.0024001,5e7fa0e918b10804bb87eb63,64d2fd46c836a06233681665,64dc82d1ed65289708e6c121,,,,,,,decisionTrl,resources/DR.BMP,resources/DBN.BMP,Door4,-0.381347656,0.01171875,1,0,0,0.8316,optionLeft,60,4505,2,38,0,38,0,1,,,,,,,,,,,,,,,,,,,,,,,,,,,,,,,,,,,,,,,
,,,,,,,5e7fa0e918b10804bb87eb63,2023-08-16_09h04.11.208,HF_wild_card,2022.2.4,Win32,60.0024001,5e7fa0e918b10804bb87eb63,64d2fd46c836a06233681665,64dc82d1ed65289708e6c121,,,,,,,sngl,resources/DBN.BMP,resources/Empty.png,Door3,-0.330566406,0.0234375,1,0,0,0.6819,optionLeft,70,4575,2,39,0,39,0,1,,,,,,,,,,,,,,,,,,,,,,,,,,,,,,,,,,,,,,,
,,,,,,,5e7fa0e918b10804bb87eb63,2023-08-16_09h04.11.208,HF_wild_card,2022.2.4,Win32,60.0024001,5e7fa0e918b10804bb87eb63,64d2fd46c836a06233681665,64dc82d1ed65289708e6c121,,,,,,,ctch,resources/DY.BMP,resources/DBN.BMP,Door3,0.319173217,0.006510407,1,0,0,1.0816,optionRight,70,4645,2,40,0,40,0,1,,,,,,,,,,,,,,,,,,,,,,,,,,,,,,,,,,,,,,,
,,,,,,,5e7fa0e918b10804bb87eb63,2023-08-16_09h04.11.208,HF_wild_card,2022.2.4,Win32,60.0024001,5e7fa0e918b10804bb87eb63,64d2fd46c836a06233681665,64dc82d1ed65289708e6c121,,,,,,,decisionTrl,resources/DP.BMP,resources/DY.BMP,WildCard_NonEx,-0.35921222,0.014322907,1,0,0,1.5647,optionLeft,45,4690,2,41,0,41,0,1,,,,,,,,,,,,,,,,,,,,,,,,,,,,,,,,,,,,,,,
,,,,,,,5e7fa0e918b10804bb87eb63,2023-08-16_09h04.11.208,HF_wild_card,2022.2.4,Win32,60.0024001,5e7fa0e918b10804bb87eb63,64d2fd46c836a06233681665,64dc82d1ed65289708e6c121,,,,,,,ctch,resources/DR.BMP,resources/DB.BMP,Door4,-0.30843097,0.029947907,1,0,0,0.8789,optionLeft,60,4750,2,42,0,42,0,1,,,,,,,,,,,,,,,,,,,,,,,,,,,,,,,,,,,,,,,
,,,,,,,5e7fa0e918b10804bb87eb63,2023-08-16_09h04.11.208,HF_wild_card,2022.2.4,Win32,60.0024001,5e7fa0e918b10804bb87eb63,64d2fd46c836a06233681665,64dc82d1ed65289708e6c121,,,,,,,decisionTrl,resources/DY.BMP,resources/DP.BMP,WildCard_NonEx,0.325683594,0.014322907,1,0,0,0.9651,optionRight,45,4795,2,43,0,43,0,1,,,,,,,,,,,,,,,,,,,,,,,,,,,,,,,,,,,,,,,
,,,,,,,5e7fa0e918b10804bb87eb63,2023-08-16_09h04.11.208,HF_wild_card,2022.2.4,Win32,60.0024001,5e7fa0e918b10804bb87eb63,64d2fd46c836a06233681665,64dc82d1ed65289708e6c121,,,,,,,,,,,,,,,,,,,,,,,,,,1,0,1,0,1,,,,,,,,,,,,,,,,,,,,,,,,,,,,,,,,,,
,,,,,,,5e7fa0e918b10804bb87eb63,2023-08-16_09h04.11.208,HF_wild_card,2022.2.4,Win32,60.0024001,5e7fa0e918b10804bb87eb63,64d2fd46c836a06233681665,64dc82d1ed65289708e6c121,,,,,,,ctch,resources/DY.BMP,resources/DBN.BMP,Door3,0.299641967,-0.092447937,1,0,0,1.0574,optionRight,70,4865,3,0,0,0,0,1,,,,,,,,,,,,,,,,,,,,,,,,,,,,,,,,,,,,,,,
,,,,,,,5e7fa0e918b10804bb87eb63,2023-08-16_09h04.11.208,HF_wild_card,2022.2.4,Win32,60.0024001,5e7fa0e918b10804bb87eb63,64d2fd46c836a06233681665,64dc82d1ed65289708e6c121,,,,,,,decisionTrl,resources/DY.BMP,resources/DB.BMP,Door1,0.321777344,-0.001302123,1,0,0,1.6134,optionRight,30,4895,3,1,0,1,0,1,,,,,,,,,,,,,,,,,,,,,,,,,,,,,,,,,,,,,,,
,,,,,,,5e7fa0e918b10804bb87eb63,2023-08-16_09h04.11.208,HF_wild_card,2022.2.4,Win32,60.0024001,5e7fa0e918b10804bb87eb63,64d2fd46c836a06233681665,64dc82d1ed65289708e6c121,,,,,,,decisionTrl,resources/DR.BMP,resources/DP.BMP,Door4,-0.330566406,-0.032552123,1,0,0,1.0296,optionLeft,60,4955,3,2,0,2,0,1,,,,,,,,,,,,,,,,,,,,,,,,,,,,,,,,,,,,,,,
,,,,,,,5e7fa0e918b10804bb87eb63,2023-08-16_09h04.11.208,HF_wild_card,2022.2.4,Win32,60.0024001,5e7fa0e918b10804bb87eb63,64d2fd46c836a06233681665,64dc82d1ed65289708e6c121,,,,,,,ctch,resources/DB.BMP,resources/DR.BMP,Door4,0.42594409,-0.018229187,1,0,0,0.8626,optionRight,60,5015,3,3,0,3,0,1,,,,,,,,,,,,,,,,,,,,,,,,,,,,,,,,,,,,,,,
,,,,,,,5e7fa0e918b10804bb87eb63,2023-08-16_09h04.11.208,HF_wild_card,2022.2.4,Win32,60.0024001,5e7fa0e918b10804bb87eb63,64d2fd46c836a06233681665,64dc82d1ed65289708e6c121,,,,,,,decisionTrl,resources/DB.BMP,resources/DY.BMP,Door2,0.353027344,0.002604157,1,0,0,5.5985,optionRight,40,5055,3,4,0,4,0,1,,,,,,,,,,,,,,,,,,,,,,,,,,,,,,,,,,,,,,,
,,,,,,,5e7fa0e918b10804bb87eb63,2023-08-16_09h04.11.208,HF_wild_card,2022.2.4,Win32,60.0024001,5e7fa0e918b10804bb87eb63,64d2fd46c836a06233681665,64dc82d1ed65289708e6c121,,,,,,,ctch,resources/DR.BMP,resources/DB.BMP,Door4,-0.502441406,0.01171875,1,0,0,0.8627,optionLeft,60,5115,3,5,0,5,0,1,,,,,,,,,,,,,,,,,,,,,,,,,,,,,,,,,,,,,,,
,,,,,,,5e7fa0e918b10804bb87eb63,2023-08-16_09h04.11.208,HF_wild_card,2022.2.4,Win32,60.0024001,5e7fa0e918b10804bb87eb63,64d2fd46c836a06233681665,64dc82d1ed65289708e6c121,,,,,,,decisionTrl,resources/DY.BMP,resources/DB.BMP,Door2,-0.330566406,-0.001302123,1,0,0,1.4964,optionLeft,20,5135,3,6,0,6,0,1,,,,,,,,,,,,,,,,,,,,,,,,,,,,,,,,,,,,,,,
,,,,,,,5e7fa0e918b10804bb87eb63,2023-08-16_09h04.11.208,HF_wild_card,2022.2.4,Win32,60.0024001,5e7fa0e918b10804bb87eb63,64d2fd46c836a06233681665,64dc82d1ed65289708e6c121,,,,,,,decisionTrl,resources/DY.BMP,resources/DB.BMP,Door1,0.341308594,0.01171875,1,0,0,0.7633,optionRight,30,5165,3,7,0,7,0,1,,,,,,,,,,,,,,,,,,,,,,,,,,,,,,,,,,,,,,,
,,,,,,,5e7fa0e918b10804bb87eb63,2023-08-16_09h04.11.208,HF_wild_card,2022.2.4,Win32,60.0024001,5e7fa0e918b10804bb87eb63,64d2fd46c836a06233681665,64dc82d1ed65289708e6c121,,,,,,,decisionTrl,resources/DY.BMP,resources/DP.BMP,WildCard_NonEx,0.381673217,-0.010416687,1,0,0,1.0127,optionRight,55,5220,3,8,0,8,0,1,,,,,,,,,,,,,,,,,,,,,,,,,,,,,,,,,,,,,,,
,,,,,,,5e7fa0e918b10804bb87eb63,2023-08-16_09h04.11.208,HF_wild_card,2022.2.4,Win32,60.0024001,5e7fa0e918b10804bb87eb63,64d2fd46c836a06233681665,64dc82d1ed65289708e6c121,,,,,,,decisionTrl,resources/DP.BMP,resources/DBN.BMP,Door3,0.384277344,0.015625,1,0,0,0.7622,optionRight,70,5290,3,9,0,9,0,1,,,,,,,,,,,,,,,,,,,,,,,,,,,,,,,,,,,,,,,
,,,,,,,5e7fa0e918b10804bb87eb63,2023-08-16_09h04.11.208,HF_wild_card,2022.2.4,Win32,60.0024001,5e7fa0e918b10804bb87eb63,64d2fd46c836a06233681665,64dc82d1ed65289708e6c121,,,,,,,ctch,resources/DBN.BMP,resources/DY.BMP,Door3,-0.298014283,0.01171875,1,0,0,0.9113,optionLeft,70,5360,3,10,0,10,0,1,,,,,,,,,,,,,,,,,,,,,,,,,,,,,,,,,,,,,,,
,,,,,,,5e7fa0e918b10804bb87eb63,2023-08-16_09h04.11.208,HF_wild_card,2022.2.4,Win32,60.0024001,5e7fa0e918b10804bb87eb63,64d2fd46c836a06233681665,64dc82d1ed65289708e6c121,,,,,,,decisionTrl,resources/DR.BMP,resources/DBN.BMP,Door4,-0.400878906,-0.020833373,1,0,0,1.6318,optionLeft,80,5440,3,11,0,11,0,1,,,,,,,,,,,,,,,,,,,,,,,,,,,,,,,,,,,,,,,
,,,,,,,5e7fa0e918b10804bb87eb63,2023-08-16_09h04.11.208,HF_wild_card,2022.2.4,Win32,60.0024001,5e7fa0e918b10804bb87eb63,64d2fd46c836a06233681665,64dc82d1ed65289708e6c121,,,,,,,sngl,resources/Empty.png,resources/DY.BMP,Door2,0.384277344,-0.020833373,1,0,0,0.8119,optionRight,20,5460,3,12,0,12,0,1,,,,,,,,,,,,,,,,,,,,,,,,,,,,,,,,,,,,,,,
,,,,,,,5e7fa0e918b10804bb87eb63,2023-08-16_09h04.11.208,HF_wild_card,2022.2.4,Win32,60.0024001,5e7fa0e918b10804bb87eb63,64d2fd46c836a06233681665,64dc82d1ed65289708e6c121,,,,,,,sngl,resources/Empty.png,resources/DBN.BMP,Door3,0.43766284,0.005208313,1,0,0,0.6793,optionRight,70,5530,3,13,0,13,0,1,,,,,,,,,,,,,,,,,,,,,,,,,,,,,,,,,,,,,,,
,,,,,,,5e7fa0e918b10804bb87eb63,2023-08-16_09h04.11.208,HF_wild_card,2022.2.4,Win32,60.0024001,5e7fa0e918b10804bb87eb63,64d2fd46c836a06233681665,64dc82d1ed65289708e6c121,,,,,,,decisionTrl,resources/DB.BMP,resources/DY.BMP,Door1,-0.37874347,-0.0234375,1,0,0,1.5294,optionLeft,30,5560,3,14,0,14,0,1,,,,,,,,,,,,,,,,,,,,,,,,,,,,,,,,,,,,,,,
,,,,,,,5e7fa0e918b10804bb87eb63,2023-08-16_09h04.11.208,HF_wild_card,2022.2.4,Win32,60.0024001,5e7fa0e918b10804bb87eb63,64d2fd46c836a06233681665,64dc82d1ed65289708e6c121,,,,,,,sngl,resources/DBN.BMP,resources/Empty.png,Door3,-0.33968097,0.015625,1,0,0,0.6294,optionLeft,70,5630,3,15,0,15,0,1,,,,,,,,,,,,,,,,,,,,,,,,,,,,,,,,,,,,,,,
,,,,,,,5e7fa0e918b10804bb87eb63,2023-08-16_09h04.11.208,HF_wild_card,2022.2.4,Win32,60.0024001,5e7fa0e918b10804bb87eb63,64d2fd46c836a06233681665,64dc82d1ed65289708e6c121,,,,,,,decisionTrl,resources/DP.BMP,resources/DB.BMP,WildCard_NonEx,-0.497233063,0.005208313,1,0,0,1.1128,optionLeft,45,5675,3,16,0,16,0,1,,,,,,,,,,,,,,,,,,,,,,,,,,,,,,,,,,,,,,,
,,,,,,,5e7fa0e918b10804bb87eb63,2023-08-16_09h04.11.208,HF_wild_card,2022.2.4,Win32,60.0024001,5e7fa0e918b10804bb87eb63,64d2fd46c836a06233681665,64dc82d1ed65289708e6c121,,,,,,,sngl,resources/Empty.png,resources/DB.BMP,Door1,0.42985034,-0.013020873,1,0,0,0.6298,optionRight,30,5705,3,17,0,17,0,1,,,,,,,,,,,,,,,,,,,,,,,,,,,,,,,,,,,,,,,
,,,,,,,5e7fa0e918b10804bb87eb63,2023-08-16_09h04.11.208,HF_wild_card,2022.2.4,Win32,60.0024001,5e7fa0e918b10804bb87eb63,64d2fd46c836a06233681665,64dc82d1ed65289708e6c121,,,,,,,ctch,resources/DB.BMP,resources/DR.BMP,Door4,0.342610717,0.005208313,1,0,0,0.8128,optionRight,60,5765,3,18,0,18,0,1,,,,,,,,,,,,,,,,,,,,,,,,,,,,,,,,,,,,,,,
,,,,,,,5e7fa0e918b10804bb87eb63,2023-08-16_09h04.11.208,HF_wild_card,2022.2.4,Win32,60.0024001,5e7fa0e918b10804bb87eb63,64d2fd46c836a06233681665,64dc82d1ed65289708e6c121,,,,,,,decisionTrl,resources/DB.BMP,resources/DY.BMP,Door1,-0.255045533,-0.009114623,1,0,0,1.7631,optionLeft,30,5795,3,19,0,19,0,1,,,,,,,,,,,,,,,,,,,,,,,,,,,,,,,,,,,,,,,
,,,,,,,5e7fa0e918b10804bb87eb63,2023-08-16_09h04.11.208,HF_wild_card,2022.2.4,Win32,60.0024001,5e7fa0e918b10804bb87eb63,64d2fd46c836a06233681665,64dc82d1ed65289708e6c121,,,,,,,sngl,resources/DB.BMP,resources/Empty.png,Door1,-0.380045533,-0.01171875,1,0,0,0.5796,optionLeft,30,5825,3,20,0,20,0,1,,,,,,,,,,,,,,,,,,,,,,,,,,,,,,,,,,,,,,,
,,,,,,,5e7fa0e918b10804bb87eb63,2023-08-16_09h04.11.208,HF_wild_card,2022.2.4,Win32,60.0024001,5e7fa0e918b10804bb87eb63,64d2fd46c836a06233681665,64dc82d1ed65289708e6c121,,,,,,,ctch,resources/DR.BMP,resources/DB.BMP,Door4,-0.356608033,-0.014322937,1,0,0,0.7629,optionLeft,80,5905,3,21,0,21,0,1,,,,,,,,,,,,,,,,,,,,,,,,,,,,,,,,,,,,,,,
,,,,,,,5e7fa0e918b10804bb87eb63,2023-08-16_09h04.11.208,HF_wild_card,2022.2.4,Win32,60.0024001,5e7fa0e918b10804bb87eb63,64d2fd46c836a06233681665,64dc82d1ed65289708e6c121,,,,,,,ctch,resources/DY.BMP,resources/DBN.BMP,Door3,0.239746094,0.005208313,1,0,0,0.9119,optionRight,70,5975,3,22,0,22,0,1,,,,,,,,,,,,,,,,,,,,,,,,,,,,,,,,,,,,,,,
,,,,,,,5e7fa0e918b10804bb87eb63,2023-08-16_09h04.11.208,HF_wild_card,2022.2.4,Win32,60.0024001,5e7fa0e918b10804bb87eb63,64d2fd46c836a06233681665,64dc82d1ed65289708e6c121,,,,,,,sngl,resources/DY.BMP,resources/Empty.png,Door2,-0.350097656,0.001302063,1,0,0,0.6627,optionLeft,40,6015,3,23,0,23,0,1,,,,,,,,,,,,,,,,,,,,,,,,,,,,,,,,,,,,,,,
,,,,,,,5e7fa0e918b10804bb87eb63,2023-08-16_09h04.11.208,HF_wild_card,2022.2.4,Win32,60.0024001,5e7fa0e918b10804bb87eb63,64d2fd46c836a06233681665,64dc82d1ed65289708e6c121,,,,,,,decisionTrl,resources/DBN.BMP,resources/DR.BMP,Door4,0.34781909,0.005208313,1,0,0,0.6458,optionRight,80,6095,3,24,0,24,0,1,,,,,,,,,,,,,,,,,,,,,,,,,,,,,,,,,,,,,,,
,,,,,,,5e7fa0e918b10804bb87eb63,2023-08-16_09h04.11.208,HF_wild_card,2022.2.4,Win32,60.0024001,5e7fa0e918b10804bb87eb63,64d2fd46c836a06233681665,64dc82d1ed65289708e6c121,,,,,,,decisionTrl,resources/DY.BMP,resources/DB.BMP,Door2,-0.354003906,-0.006510437,1,0,0,1.5466,optionLeft,20,6115,3,25,0,25,0,1,,,,,,,,,,,,,,,,,,,,,,,,,,,,,,,,,,,,,,,
,,,,,,,5e7fa0e918b10804bb87eb63,2023-08-16_09h04.11.208,HF_wild_card,2022.2.4,Win32,60.0024001,5e7fa0e918b10804bb87eb63,64d2fd46c836a06233681665,64dc82d1ed65289708e6c121,,,,,,,sngl,resources/Empty.png,resources/DP.BMP,WildCard_NonEx,0.317871094,0.015625,1,0,0,0.6289,optionRight,55,6170,3,26,0,26,0,1,,,,,,,,,,,,,,,,,,,,,,,,,,,,,,,,,,,,,,,
,,,,,,,5e7fa0e918b10804bb87eb63,2023-08-16_09h04.11.208,HF_wild_card,2022.2.4,Win32,60.0024001,5e7fa0e918b10804bb87eb63,64d2fd46c836a06233681665,64dc82d1ed65289708e6c121,,,,,,,decisionTrl,resources/DBN.BMP,resources/DR.BMP,Door4,0.284016967,0,1,0,0,0.8114,optionRight,80,6250,3,27,0,27,0,1,,,,,,,,,,,,,,,,,,,,,,,,,,,,,,,,,,,,,,,
,,,,,,,5e7fa0e918b10804bb87eb63,2023-08-16_09h04.11.208,HF_wild_card,2022.2.4,Win32,60.0024001,5e7fa0e918b10804bb87eb63,64d2fd46c836a06233681665,64dc82d1ed65289708e6c121,,,,,,,decisionTrl,resources/DP.BMP,resources/DY.BMP,WildCard_NonEx,-0.219889283,0,1,0,0,1.9964,optionLeft,55,6305,3,28,0,28,0,1,,,,,,,,,,,,,,,,,,,,,,,,,,,,,,,,,,,,,,,
,,,,,,,5e7fa0e918b10804bb87eb63,2023-08-16_09h04.11.208,HF_wild_card,2022.2.4,Win32,60.0024001,5e7fa0e918b10804bb87eb63,64d2fd46c836a06233681665,64dc82d1ed65289708e6c121,,,,,,,decisionTrl,resources/DBN.BMP,resources/DR.BMP,Door4,0.235839844,0.014322907,1,0,0,0.945,optionRight,60,6365,3,29,0,29,0,1,,,,,,,,,,,,,,,,,,,,,,,,,,,,,,,,,,,,,,,
,,,,,,,5e7fa0e918b10804bb87eb63,2023-08-16_09h04.11.208,HF_wild_card,2022.2.4,Win32,60.0024001,5e7fa0e918b10804bb87eb63,64d2fd46c836a06233681665,64dc82d1ed65289708e6c121,,,,,,,decisionTrl,resources/DR.BMP,resources/DBN.BMP,Door4,-0.30452472,-0.01171875,1,0,0,0.9293,optionLeft,60,6425,3,30,0,30,0,1,,,,,,,,,,,,,,,,,,,,,,,,,,,,,,,,,,,,,,,
,,,,,,,5e7fa0e918b10804bb87eb63,2023-08-16_09h04.11.208,HF_wild_card,2022.2.4,Win32,60.0024001,5e7fa0e918b10804bb87eb63,64d2fd46c836a06233681665,64dc82d1ed65289708e6c121,,,,,,,sngl,resources/DR.BMP,resources/Empty.png,Door4,-0.311035156,-0.001302123,1,0,0,0.6793,optionLeft,80,6505,3,31,0,31,0,1,,,,,,,,,,,,,,,,,,,,,,,,,,,,,,,,,,,,,,,
,,,,,,,5e7fa0e918b10804bb87eb63,2023-08-16_09h04.11.208,HF_wild_card,2022.2.4,Win32,60.0024001,5e7fa0e918b10804bb87eb63,64d2fd46c836a06233681665,64dc82d1ed65289708e6c121,,,,,,,sngl,resources/DP.BMP,resources/Empty.png,WildCard_NonEx,-0.360514283,-0.010416687,1,0,0,0.7125,optionLeft,55,6560,3,32,0,32,0,1,,,,,,,,,,,,,,,,,,,,,,,,,,,,,,,,,,,,,,,
,,,,,,,5e7fa0e918b10804bb87eb63,2023-08-16_09h04.11.208,HF_wild_card,2022.2.4,Win32,60.0024001,5e7fa0e918b10804bb87eb63,64d2fd46c836a06233681665,64dc82d1ed65289708e6c121,,,,,,,sngl,resources/DP.BMP,resources/Empty.png,WildCard_NonEx,-0.279785156,0,1,0,0,0.6111,optionLeft,45,6605,3,33,0,33,0,1,,,,,,,,,,,,,,,,,,,,,,,,,,,,,,,,,,,,,,,
,,,,,,,5e7fa0e918b10804bb87eb63,2023-08-16_09h04.11.208,HF_wild_card,2022.2.4,Win32,60.0024001,5e7fa0e918b10804bb87eb63,64d2fd46c836a06233681665,64dc82d1ed65289708e6c121,,,,,,,decisionTrl,resources/DR.BMP,resources/DBN.BMP,Door4,-0.307128906,-0.00390625,1,0,0,0.8295,optionLeft,60,6665,3,34,0,34,0,1,,,,,,,,,,,,,,,,,,,,,,,,,,,,,,,,,,,,,,,
,,,,,,,5e7fa0e918b10804bb87eb63,2023-08-16_09h04.11.208,HF_wild_card,2022.2.4,Win32,60.0024001,5e7fa0e918b10804bb87eb63,64d2fd46c836a06233681665,64dc82d1ed65289708e6c121,,,,,,,decisionTrl,resources/DB.BMP,resources/DY.BMP,Door1,-0.264160156,-0.005208373,1,0,0,2.0634,optionLeft,30,6695,3,35,0,35,0,1,,,,,,,,,,,,,,,,,,,,,,,,,,,,,,,,,,,,,,,
,,,,,,,5e7fa0e918b10804bb87eb63,2023-08-16_09h04.11.208,HF_wild_card,2022.2.4,Win32,60.0024001,5e7fa0e918b10804bb87eb63,64d2fd46c836a06233681665,64dc82d1ed65289708e6c121,,,,,,,decisionTrl,resources/DP.BMP,resources/DR.BMP,Door4,0.41031909,-0.015625,1,0,0,0.9791,optionRight,60,6755,3,36,0,36,0,1,,,,,,,,,,,,,,,,,,,,,,,,,,,,,,,,,,,,,,,
,,,,,,,5e7fa0e918b10804bb87eb63,2023-08-16_09h04.11.208,HF_wild_card,2022.2.4,Win32,60.0024001,5e7fa0e918b10804bb87eb63,64d2fd46c836a06233681665,64dc82d1ed65289708e6c121,,,,,,,decisionTrl,resources/DBN.BMP,resources/DR.BMP,Door3,-0.287597656,0.009114563,1,0,0,1.2135,optionLeft,70,6825,3,37,0,37,0,1,,,,,,,,,,,,,,,,,,,,,,,,,,,,,,,,,,,,,,,
,,,,,,,5e7fa0e918b10804bb87eb63,2023-08-16_09h04.11.208,HF_wild_card,2022.2.4,Win32,60.0024001,5e7fa0e918b10804bb87eb63,64d2fd46c836a06233681665,64dc82d1ed65289708e6c121,,,,,,,sngl,resources/Empty.png,resources/DR.BMP,Door4,0.438964844,-0.026041687,1,0,0,0.6625,optionRight,60,6885,3,38,0,38,0,1,,,,,,,,,,,,,,,,,,,,,,,,,,,,,,,,,,,,,,,
,,,,,,,5e7fa0e918b10804bb87eb63,2023-08-16_09h04.11.208,HF_wild_card,2022.2.4,Win32,60.0024001,5e7fa0e918b10804bb87eb63,64d2fd46c836a06233681665,64dc82d1ed65289708e6c121,,,,,,,decisionTrl,resources/DB.BMP,resources/DP.BMP,WildCard_NonEx,0.38297534,0.026041657,1,0,0,1.1795,optionRight,55,6940,3,39,0,39,0,1,,,,,,,,,,,,,,,,,,,,,,,,,,,,,,,,,,,,,,,
,,,,,,,5e7fa0e918b10804bb87eb63,2023-08-16_09h04.11.208,HF_wild_card,2022.2.4,Win32,60.0024001,5e7fa0e918b10804bb87eb63,64d2fd46c836a06233681665,64dc82d1ed65289708e6c121,,,,,,,decisionTrl,resources/DR.BMP,resources/DBN.BMP,Door4,-0.337076783,-0.01953125,1,0,0,0.7793,optionLeft,80,7020,3,40,0,40,0,1,,,,,,,,,,,,,,,,,,,,,,,,,,,,,,,,,,,,,,,
,,,,,,,5e7fa0e918b10804bb87eb63,2023-08-16_09h04.11.208,HF_wild_card,2022.2.4,Win32,60.0024001,5e7fa0e918b10804bb87eb63,64d2fd46c836a06233681665,64dc82d1ed65289708e6c121,,,,,,,ctch,resources/DBN.BMP,resources/DY.BMP,Door3,-0.334472656,0.006510407,1,0,0,0.7126,optionLeft,70,7090,3,41,0,41,0,1,,,,,,,,,,,,,,,,,,,,,,,,,,,,,,,,,,,,,,,
,,,,,,,5e7fa0e918b10804bb87eb63,2023-08-16_09h04.11.208,HF_wild_card,2022.2.4,Win32,60.0024001,5e7fa0e918b10804bb87eb63,64d2fd46c836a06233681665,64dc82d1ed65289708e6c121,,,,,,,sngl,resources/Empty.png,resources/DP.BMP,WildCard_NonEx,0.489746094,0.016927063,1,0,0,0.6462,optionRight,45,7135,3,42,0,42,0,1,,,,,,,,,,,,,,,,,,,,,,,,,,,,,,,,,,,,,,,
,,,,,,,5e7fa0e918b10804bb87eb63,2023-08-16_09h04.11.208,HF_wild_card,2022.2.4,Win32,60.0024001,5e7fa0e918b10804bb87eb63,64d2fd46c836a06233681665,64dc82d1ed65289708e6c121,,,,,,,decisionTrl,resources/DBN.BMP,resources/DP.BMP,Door3,-0.303222656,-0.00390625,1,0,0,0.9121,optionLeft,70,7205,3,43,0,43,0,1,,,,,,,,,,,,,,,,,,,,,,,,,,,,,,,,,,,,,,,
,,,,,,,5e7fa0e918b10804bb87eb63,2023-08-16_09h04.11.208,HF_wild_card,2022.2.4,Win32,60.0024001,5e7fa0e918b10804bb87eb63,64d2fd46c836a06233681665,64dc82d1ed65289708e6c121,,,,,,,,,,,,,,,,,,,,,,,,,,2,0,2,0,1,,,,,,,,,,,,,,,,,,,,,,,,,,,,,,,,,,
,,,,,,,5e7fa0e918b10804bb87eb63,2023-08-16_09h04.11.208,HF_wild_card,2022.2.4,Win32,60.0024001,5e7fa0e918b10804bb87eb63,64d2fd46c836a06233681665,64dc82d1ed65289708e6c121,,,,,,,decisionTrl,resources/DBN.BMP,resources/DG.BMP,Door3,-0.35921222,-0.048177123,1,0,0,1.0185,optionLeft,70,7275,4,0,0,0,0,1,,,,,,,,,,,,,,,,,,,,,,,,,,,,,,,,,,,,,,,
,,,,,,,5e7fa0e918b10804bb87eb63,2023-08-16_09h04.11.208,HF_wild_card,2022.2.4,Win32,60.0024001,5e7fa0e918b10804bb87eb63,64d2fd46c836a06233681665,64dc82d1ed65289708e6c121,,,,,,,decisionTrl,resources/DR.BMP,resources/DBN.BMP,Door4,-0.287597656,0.015625,1,0,0,1.6123,optionLeft,60,7335,4,1,0,1,0,1,,,,,,,,,,,,,,,,,,,,,,,,,,,,,,,,,,,,,,,
,,,,,,,5e7fa0e918b10804bb87eb63,2023-08-16_09h04.11.208,HF_wild_card,2022.2.4,Win32,60.0024001,5e7fa0e918b10804bb87eb63,64d2fd46c836a06233681665,64dc82d1ed65289708e6c121,,,,,,,ctch,resources/DB.BMP,resources/DR.BMP,Door4,0.393391967,0.001302063,1,0,0,0.6623,optionRight,80,7415,4,2,0,2,0,1,,,,,,,,,,,,,,,,,,,,,,,,,,,,,,,,,,,,,,,
,,,,,,,5e7fa0e918b10804bb87eb63,2023-08-16_09h04.11.208,HF_wild_card,2022.2.4,Win32,60.0024001,5e7fa0e918b10804bb87eb63,64d2fd46c836a06233681665,64dc82d1ed65289708e6c121,,,,,,,decisionTrl,resources/DBN.BMP,resources/DR.BMP,Door4,0.385579467,0.006510407,1,0,0,0.6284,optionRight,60,7475,4,3,0,3,0,1,,,,,,,,,,,,,,,,,,,,,,,,,,,,,,,,,,,,,,,
,,,,,,,5e7fa0e918b10804bb87eb63,2023-08-16_09h04.11.208,HF_wild_card,2022.2.4,Win32,60.0024001,5e7fa0e918b10804bb87eb63,64d2fd46c836a06233681665,64dc82d1ed65289708e6c121,,,,,,,ctch,resources/DR.BMP,resources/DB.BMP,Door4,-0.27718097,-0.018229187,1,0,0,0.6293,optionLeft,60,7535,4,4,0,4,0,1,,,,,,,,,,,,,,,,,,,,,,,,,,,,,,,,,,,,,,,
,,,,,,,5e7fa0e918b10804bb87eb63,2023-08-16_09h04.11.208,HF_wild_card,2022.2.4,Win32,60.0024001,5e7fa0e918b10804bb87eb63,64d2fd46c836a06233681665,64dc82d1ed65289708e6c121,,,,,,,sngl,resources/Empty.png,resources/DG.BMP,WildCard_Ex,0.302246094,0.005208313,1,0,0,0.6124,optionRight,5,7540,4,5,0,5,0,1,,,,,,,,,,,,,,,,,,,,,,,,,,,,,,,,,,,,,,,
,,,,,,,5e7fa0e918b10804bb87eb63,2023-08-16_09h04.11.208,HF_wild_card,2022.2.4,Win32,60.0024001,5e7fa0e918b10804bb87eb63,64d2fd46c836a06233681665,64dc82d1ed65289708e6c121,,,,,,,decisionTrl,resources/DB.BMP,resources/DY.BMP,Door1,-0.350097656,-0.005208373,1,0,0,2.4798,optionLeft,30,7570,4,6,0,6,0,1,,,,,,,,,,,,,,,,,,,,,,,,,,,,,,,,,,,,,,,
,,,,,,,5e7fa0e918b10804bb87eb63,2023-08-16_09h04.11.208,HF_wild_card,2022.2.4,Win32,60.0024001,5e7fa0e918b10804bb87eb63,64d2fd46c836a06233681665,64dc82d1ed65289708e6c121,,,,,,,decisionTrl,resources/DB.BMP,resources/DY.BMP,Door1,-0.286295533,0.018229157,1,0,0,1.2966,optionLeft,30,7600,4,7,0,7,0,1,,,,,,,,,,,,,,,,,,,,,,,,,,,,,,,,,,,,,,,
,,,,,,,5e7fa0e918b10804bb87eb63,2023-08-16_09h04.11.208,HF_wild_card,2022.2.4,Win32,60.0024001,5e7fa0e918b10804bb87eb63,64d2fd46c836a06233681665,64dc82d1ed65289708e6c121,,,,,,,ctch,resources/DBN.BMP,resources/DY.BMP,Door3,-0.33968097,0.03515625,1,0,0,0.7793,optionLeft,70,7670,4,8,0,8,0,1,,,,,,,,,,,,,,,,,,,,,,,,,,,,,,,,,,,,,,,
,,,,,,,5e7fa0e918b10804bb87eb63,2023-08-16_09h04.11.208,HF_wild_card,2022.2.4,Win32,60.0024001,5e7fa0e918b10804bb87eb63,64d2fd46c836a06233681665,64dc82d1ed65289708e6c121,,,,,,,ctch,resources/DB.BMP,resources/DR.BMP,Door4,0.260579467,0.01171875,1,0,0,0.7619,optionRight,80,7750,4,9,0,9,0,1,,,,,,,,,,,,,,,,,,,,,,,,,,,,,,,,,,,,,,,
,,,,,,,5e7fa0e918b10804bb87eb63,2023-08-16_09h04.11.208,HF_wild_card,2022.2.4,Win32,60.0024001,5e7fa0e918b10804bb87eb63,64d2fd46c836a06233681665,64dc82d1ed65289708e6c121,,,,,,,decisionTrl,resources/DR.BMP,resources/DBN.BMP,Door4,-0.28499347,0.0078125,1,0,0,0.6459,optionLeft,80,7830,4,10,0,10,0,1,,,,,,,,,,,,,,,,,,,,,,,,,,,,,,,,,,,,,,,
,,,,,,,5e7fa0e918b10804bb87eb63,2023-08-16_09h04.11.208,HF_wild_card,2022.2.4,Win32,60.0024001,5e7fa0e918b10804bb87eb63,64d2fd46c836a06233681665,64dc82d1ed65289708e6c121,,,,,,,sngl,resources/DB.BMP,resources/Empty.png,Door1,-0.383951783,0.01171875,1,0,0,0.6786,optionLeft,30,7860,4,11,0,11,0,1,,,,,,,,,,,,,,,,,,,,,,,,,,,,,,,,,,,,,,,
,,,,,,,5e7fa0e918b10804bb87eb63,2023-08-16_09h04.11.208,HF_wild_card,2022.2.4,Win32,60.0024001,5e7fa0e918b10804bb87eb63,64d2fd46c836a06233681665,64dc82d1ed65289708e6c121,,,,,,,sngl,resources/DBN.BMP,resources/Empty.png,Door3,-0.501139313,0.05078125,1,0,0,0.6795,optionLeft,70,7930,4,12,0,12,0,1,,,,,,,,,,,,,,,,,,,,,,,,,,,,,,,,,,,,,,,
,,,,,,,5e7fa0e918b10804bb87eb63,2023-08-16_09h04.11.208,HF_wild_card,2022.2.4,Win32,60.0024001,5e7fa0e918b10804bb87eb63,64d2fd46c836a06233681665,64dc82d1ed65289708e6c121,,,,,,,ctch,resources/DBN.BMP,resources/DY.BMP,Door3,-0.329264283,0.0390625,1,0,0,0.7294,optionLeft,70,8000,4,13,0,13,0,1,,,,,,,,,,,,,,,,,,,,,,,,,,,,,,,,,,,,,,,
,,,,,,,5e7fa0e918b10804bb87eb63,2023-08-16_09h04.11.208,HF_wild_card,2022.2.4,Win32,60.0024001,5e7fa0e918b10804bb87eb63,64d2fd46c836a06233681665,64dc82d1ed65289708e6c121,,,,,,,decisionTrl,resources/DY.BMP,resources/DB.BMP,Door1,0.29313159,-0.010416687,1,0,0,1.3798,optionRight,30,8030,4,14,0,14,0,1,,,,,,,,,,,,,,,,,,,,,,,,,,,,,,,,,,,,,,,
,,,,,,,5e7fa0e918b10804bb87eb63,2023-08-16_09h04.11.208,HF_wild_card,2022.2.4,Win32,60.0024001,5e7fa0e918b10804bb87eb63,64d2fd46c836a06233681665,64dc82d1ed65289708e6c121,,,,,,,decisionTrl,resources/DY.BMP,resources/DB.BMP,Door1,0.323079467,-0.005208373,1,0,0,0.7795,optionRight,30,8060,4,15,0,15,0,1,,,,,,,,,,,,,,,,,,,,,,,,,,,,,,,,,,,,,,,
,,,,,,,5e7fa0e918b10804bb87eb63,2023-08-16_09h04.11.208,HF_wild_card,2022.2.4,Win32,60.0024001,5e7fa0e918b10804bb87eb63,64d2fd46c836a06233681665,64dc82d1ed65289708e6c121,,,,,,,sngl,resources/Empty.png,resources/DY.BMP,Door2,0.397298217,-0.037760437,1,0,0,0.6455,optionRight,40,8100,4,16,0,16,0,1,,,,,,,,,,,,,,,,,,,,,,,,,,,,,,,,,,,,,,,
,,,,,,,5e7fa0e918b10804bb87eb63,2023-08-16_09h04.11.208,HF_wild_card,2022.2.4,Win32,60.0024001,5e7fa0e918b10804bb87eb63,64d2fd46c836a06233681665,64dc82d1ed65289708e6c121,,,,,,,decisionTrl,resources/DB.BMP,resources/DY.BMP,Door1,-0.51936847,-0.065104187,1,0,0,0.8802,optionLeft,30,8130,4,17,0,17,0,1,,,,,,,,,,,,,,,,,,,,,,,,,,,,,,,,,,,,,,,
,,,,,,,5e7fa0e918b10804bb87eb63,2023-08-16_09h04.11.208,HF_wild_card,2022.2.4,Win32,60.0024001,5e7fa0e918b10804bb87eb63,64d2fd46c836a06233681665,64dc82d1ed65289708e6c121,,,,,,,decisionTrl,resources/DR.BMP,resources/DG.BMP,Door4,-0.41780597,-0.009114623,1,0,0,0.9462,optionLeft,80,8210,4,18,0,18,0,1,,,,,,,,,,,,,,,,,,,,,,,,,,,,,,,,,,,,,,,
,,,,,,,5e7fa0e918b10804bb87eb63,2023-08-16_09h04.11.208,HF_wild_card,2022.2.4,Win32,60.0024001,5e7fa0e918b10804bb87eb63,64d2fd46c836a06233681665,64dc82d1ed65289708e6c121,,,,,,,decisionTrl,resources/DG.BMP,resources/DR.BMP,Door4,0.450683594,-0.018229187,1,0,0,0.7955,optionRight,80,8290,4,19,0,19,0,1,,,,,,,,,,,,,,,,,,,,,,,,,,,,,,,,,,,,,,,
,,,,,,,5e7fa0e918b10804bb87eb63,2023-08-16_09h04.11.208,HF_wild_card,2022.2.4,Win32,60.0024001,5e7fa0e918b10804bb87eb63,64d2fd46c836a06233681665,64dc82d1ed65289708e6c121,,,,,,,decisionTrl,resources/DG.BMP,resources/DY.BMP,Door2,0.30485034,-0.0234375,1,0,0,1.1792,optionRight,20,8310,4,20,0,20,0,1,,,,,,,,,,,,,,,,,,,,,,,,,,,,,,,,,,,,,,,
,,,,,,,5e7fa0e918b10804bb87eb63,2023-08-16_09h04.11.208,HF_wild_card,2022.2.4,Win32,60.0024001,5e7fa0e918b10804bb87eb63,64d2fd46c836a06233681665,64dc82d1ed65289708e6c121,,,,,,,decisionTrl,resources/DBN.BMP,resources/DR.BMP,Door4,0.337402344,-0.016927123,1,0,0,0.8789,optionRight,60,8370,4,21,0,21,0,1,,,,,,,,,,,,,,,,,,,,,,,,,,,,,,,,,,,,,,,
,,,,,,,5e7fa0e918b10804bb87eb63,2023-08-16_09h04.11.208,HF_wild_card,2022.2.4,Win32,60.0024001,5e7fa0e918b10804bb87eb63,64d2fd46c836a06233681665,64dc82d1ed65289708e6c121,,,,,,,sngl,resources/Empty.png,resources/DG.BMP,WildCard_Ex,0.28531909,-0.009114623,1,0,0,0.7289,optionRight,95,8465,4,22,0,22,0,1,,,,,,,,,,,,,,,,,,,,,,,,,,,,,,,,,,,,,,,
,,,,,,,5e7fa0e918b10804bb87eb63,2023-08-16_09h04.11.208,HF_wild_card,2022.2.4,Win32,60.0024001,5e7fa0e918b10804bb87eb63,64d2fd46c836a06233681665,64dc82d1ed65289708e6c121,,,,,,,sngl,resources/DG.BMP,resources/Empty.png,WildCard_Ex,-0.32796222,0.022135407,1,0,0,0.613,optionLeft,95,8560,4,23,0,23,0,1,,,,,,,,,,,,,,,,,,,,,,,,,,,,,,,,,,,,,,,
,,,,,,,5e7fa0e918b10804bb87eb63,2023-08-16_09h04.11.208,HF_wild_card,2022.2.4,Win32,60.0024001,5e7fa0e918b10804bb87eb63,64d2fd46c836a06233681665,64dc82d1ed65289708e6c121,,,,,,,decisionTrl,resources/DG.BMP,resources/DB.BMP,WildCard_Ex,-0.352701783,0.02734375,1,0,0,0.6792,optionLeft,95,8655,4,24,0,24,0,1,,,,,,,,,,,,,,,,,,,,,,,,,,,,,,,,,,,,,,,
,,,,,,,5e7fa0e918b10804bb87eb63,2023-08-16_09h04.11.208,HF_wild_card,2022.2.4,Win32,60.0024001,5e7fa0e918b10804bb87eb63,64d2fd46c836a06233681665,64dc82d1ed65289708e6c121,,,,,,,decisionTrl,resources/DR.BMP,resources/DBN.BMP,Door4,-0.357910156,0.016927063,1,0,0,1.1455,optionLeft,60,8715,4,25,0,25,0,1,,,,,,,,,,,,,,,,,,,,,,,,,,,,,,,,,,,,,,,
,,,,,,,5e7fa0e918b10804bb87eb63,2023-08-16_09h04.11.208,HF_wild_card,2022.2.4,Win32,60.0024001,5e7fa0e918b10804bb87eb63,64d2fd46c836a06233681665,64dc82d1ed65289708e6c121,,,,,,,sngl,resources/DY.BMP,resources/Empty.png,Door2,-0.39046222,0.018229157,1,0,0,0.6625,optionLeft,20,8735,4,26,0,26,0,1,,,,,,,,,,,,,,,,,,,,,,,,,,,,,,,,,,,,,,,
,,,,,,,5e7fa0e918b10804bb87eb63,2023-08-16_09h04.11.208,HF_wild_card,2022.2.4,Win32,60.0024001,5e7fa0e918b10804bb87eb63,64d2fd46c836a06233681665,64dc82d1ed65289708e6c121,,,,,,,decisionTrl,resources/DY.BMP,resources/DB.BMP,Door1,0.276204467,-0.01171875,1,0,0,1.2799,optionRight,30,8765,4,27,0,27,0,1,,,,,,,,,,,,,,,,,,,,,,,,,,,,,,,,,,,,,,,
,,,,,,,5e7fa0e918b10804bb87eb63,2023-08-16_09h04.11.208,HF_wild_card,2022.2.4,Win32,60.0024001,5e7fa0e918b10804bb87eb63,64d2fd46c836a06233681665,64dc82d1ed65289708e6c121,,,,,,,sngl,resources/DR.BMP,resources/Empty.png,Door4,-0.380045533,-0.002604187,1,0,0,0.6626,optionLeft,60,8825,4,28,0,28,0,1,,,,,,,,,,,,,,,,,,,,,,,,,,,,,,,,,,,,,,,
,,,,,,,5e7fa0e918b10804bb87eb63,2023-08-16_09h04.11.208,HF_wild_card,2022.2.4,Win32,60.0024001,5e7fa0e918b10804bb87eb63,64d2fd46c836a06233681665,64dc82d1ed65289708e6c121,,,,,,,decisionTrl,resources/DB.BMP,resources/DG.BMP,WildCard_Ex,0.33610034,-0.006510437,1,0,0,0.6292,optionRight,5,8830,4,29,0,29,0,1,,,,,,,,,,,,,,,,,,,,,,,,,,,,,,,,,,,,,,,
,,,,,,,5e7fa0e918b10804bb87eb63,2023-08-16_09h04.11.208,HF_wild_card,2022.2.4,Win32,60.0024001,5e7fa0e918b10804bb87eb63,64d2fd46c836a06233681665,64dc82d1ed65289708e6c121,,,,,,,ctch,resources/DY.BMP,resources/DBN.BMP,Door3,0.313964844,-0.013020873,1,0,0,1.0122,optionRight,70,8900,4,30,0,30,0,1,,,,,,,,,,,,,,,,,,,,,,,,,,,,,,,,,,,,,,,
,,,,,,,5e7fa0e918b10804bb87eb63,2023-08-16_09h04.11.208,HF_wild_card,2022.2.4,Win32,60.0024001,5e7fa0e918b10804bb87eb63,64d2fd46c836a06233681665,64dc82d1ed65289708e6c121,,,,,,,decisionTrl,resources/DB.BMP,resources/DY.BMP,Door2,0.505371094,-0.0390625,1,0,0,1.4295,optionRight,20,8920,4,31,0,31,0,1,,,,,,,,,,,,,,,,,,,,,,,,,,,,,,,,,,,,,,,
,,,,,,,5e7fa0e918b10804bb87eb63,2023-08-16_09h04.11.208,HF_wild_card,2022.2.4,Win32,60.0024001,5e7fa0e918b10804bb87eb63,64d2fd46c836a06233681665,64dc82d1ed65289708e6c121,,,,,,,decisionTrl,resources/DY.BMP,resources/DG.BMP,WildCard_Ex,0.276204467,0.01171875,1,0,0,0.7458,optionRight,95,9015,4,32,0,32,0,1,,,,,,,,,,,,,,,,,,,,,,,,,,,,,,,,,,,,,,,
,,,,,,,5e7fa0e918b10804bb87eb63,2023-08-16_09h04.11.208,HF_wild_card,2022.2.4,Win32,60.0024001,5e7fa0e918b10804bb87eb63,64d2fd46c836a06233681665,64dc82d1ed65289708e6c121,,,,,,,decisionTrl,resources/DG.BMP,resources/DBN.BMP,WildCard_Ex,-0.31233722,-0.016927123,1,0,0,0.7957,optionLeft,95,9110,4,33,0,33,0,1,,,,,,,,,,,,,,,,,,,,,,,,,,,,,,,,,,,,,,,
,,,,,,,5e7fa0e918b10804bb87eb63,2023-08-16_09h04.11.208,HF_wild_card,2022.2.4,Win32,60.0024001,5e7fa0e918b10804bb87eb63,64d2fd46c836a06233681665,64dc82d1ed65289708e6c121,,,,,,,decisionTrl,resources/DBN.BMP,resources/DR.BMP,Door4,0.22281909,0.015625,1,0,0,1.6628,optionRight,80,9190,4,34,0,34,0,1,,,,,,,,,,,,,,,,,,,,,,,,,,,,,,,,,,,,,,,
,,,,,,,5e7fa0e918b10804bb87eb63,2023-08-16_09h04.11.208,HF_wild_card,2022.2.4,Win32,60.0024001,5e7fa0e918b10804bb87eb63,64d2fd46c836a06233681665,64dc82d1ed65289708e6c121,,,,,,,decisionTrl,resources/DR.BMP,resources/DBN.BMP,Door4,-0.39046222,0.005208313,1,0,0,0.7293,optionLeft,60,9250,4,35,0,35,0,1,,,,,,,,,,,,,,,,,,,,,,,,,,,,,,,,,,,,,,,
,,,,,,,5e7fa0e918b10804bb87eb63,2023-08-16_09h04.11.208,HF_wild_card,2022.2.4,Win32,60.0024001,5e7fa0e918b10804bb87eb63,64d2fd46c836a06233681665,64dc82d1ed65289708e6c121,,,,,,,decisionTrl,resources/DY.BMP,resources/DB.BMP,Door2,-0.305826783,-0.029947937,1,0,0,0.8897,optionLeft,40,9290,4,36,0,36,0,1,,,,,,,,,,,,,,,,,,,,,,,,,,,,,,,,,,,,,,,
,,,,,,,5e7fa0e918b10804bb87eb63,2023-08-16_09h04.11.208,HF_wild_card,2022.2.4,Win32,60.0024001,5e7fa0e918b10804bb87eb63,64d2fd46c836a06233681665,64dc82d1ed65289708e6c121,,,,,,,decisionTrl,resources/DBN.BMP,resources/DR.BMP,Door4,0.360839844,-0.015625,1,0,0,1.1629,optionRight,60,9350,4,37,0,37,0,1,,,,,,,,,,,,,,,,,,,,,,,,,,,,,,,,,,,,,,,
,,,,,,,5e7fa0e918b10804bb87eb63,2023-08-16_09h04.11.208,HF_wild_card,2022.2.4,Win32,60.0024001,5e7fa0e918b10804bb87eb63,64d2fd46c836a06233681665,64dc82d1ed65289708e6c121,,,,,,,sngl,resources/DG.BMP,resources/Empty.png,WildCard_Ex,-0.412597656,-0.001302123,1,0,0,0.6631,optionLeft,5,9355,4,38,0,38,0,1,,,,,,,,,,,,,,,,,,,,,,,,,,,,,,,,,,,,,,,
,,,,,,,5e7fa0e918b10804bb87eb63,2023-08-16_09h04.11.208,HF_wild_card,2022.2.4,Win32,60.0024001,5e7fa0e918b10804bb87eb63,64d2fd46c836a06233681665,64dc82d1ed65289708e6c121,,,,,,,sngl,resources/Empty.png,resources/DB.BMP,Door1,0.444173217,-0.015625,1,0,0,0.5955,optionRight,30,9385,4,39,0,39,0,1,,,,,,,,,,,,,,,,,,,,,,,,,,,,,,,,,,,,,,,
,,,,,,,5e7fa0e918b10804bb87eb63,2023-08-16_09h04.11.208,HF_wild_card,2022.2.4,Win32,60.0024001,5e7fa0e918b10804bb87eb63,64d2fd46c836a06233681665,64dc82d1ed65289708e6c121,,,,,,,sngl,resources/Empty.png,resources/DR.BMP,Door4,0.33610034,-0.01953125,1,0,0,0.595,optionRight,80,9465,4,40,0,40,0,1,,,,,,,,,,,,,,,,,,,,,,,,,,,,,,,,,,,,,,,
,,,,,,,5e7fa0e918b10804bb87eb63,2023-08-16_09h04.11.208,HF_wild_card,2022.2.4,Win32,60.0024001,5e7fa0e918b10804bb87eb63,64d2fd46c836a06233681665,64dc82d1ed65289708e6c121,,,,,,,sngl,resources/Empty.png,resources/DBN.BMP,Door3,0.291829467,0.0390625,1,0,0,0.5795,optionRight,70,9535,4,41,0,41,0,1,,,,,,,,,,,,,,,,,,,,,,,,,,,,,,,,,,,,,,,
,,,,,,,5e7fa0e918b10804bb87eb63,2023-08-16_09h04.11.208,HF_wild_card,2022.2.4,Win32,60.0024001,5e7fa0e918b10804bb87eb63,64d2fd46c836a06233681665,64dc82d1ed65289708e6c121,,,,,,,ctch,resources/DY.BMP,resources/DBN.BMP,Door3,0.329589844,0.022135407,1,0,0,0.8962,optionRight,70,9605,4,42,0,42,0,1,,,,,,,,,,,,,,,,,,,,,,,,,,,,,,,,,,,,,,,
,,,,,,,5e7fa0e918b10804bb87eb63,2023-08-16_09h04.11.208,HF_wild_card,2022.2.4,Win32,60.0024001,5e7fa0e918b10804bb87eb63,64d2fd46c836a06233681665,64dc82d1ed65289708e6c121,,,,,,,ctch,resources/DR.BMP,resources/DB.BMP,Door4,-0.35139972,0.041666657,1,0,0,0.8127,optionLeft,80,9685,4,43,0,43,0,1,,,,,,,,,,,,,,,,,,,,,,,,,,,,,,,,,,,,,,,
,,,,,,,5e7fa0e918b10804bb87eb63,2023-08-16_09h04.11.208,HF_wild_card,2022.2.4,Win32,60.0024001,5e7fa0e918b10804bb87eb63,64d2fd46c836a06233681665,64dc82d1ed65289708e6c121,,,,,,,,,,,,,,,,,,,,,,,,,,3,0,3,0,1,,,,,,,,,,,,,,,,,,,,,,,,,,,,,,,,,,
,,,,,,,5e7fa0e918b10804bb87eb63,2023-08-16_09h04.11.208,HF_wild_card,2022.2.4,Win32,60.0024001,5e7fa0e918b10804bb87eb63,64d2fd46c836a06233681665,64dc82d1ed65289708e6c121,,,,,,,decisionTrl,resources/DY.BMP,resources/DB.BMP,Door1,0.325683594,-0.048177123,1,0,0,2.3519,optionRight,30,9715,5,0,0,0,0,1,,,,,,,,,,,,,,,,,,,,,,,,,,,,,,,,,,,,,,,
,,,,,,,5e7fa0e918b10804bb87eb63,2023-08-16_09h04.11.208,HF_wild_card,2022.2.4,Win32,60.0024001,5e7fa0e918b10804bb87eb63,64d2fd46c836a06233681665,64dc82d1ed65289708e6c121,,,,,,,decisionTrl,resources/DR.BMP,resources/DG.BMP,Door4,-0.380045533,0.036458313,1,0,0,1.8129,optionLeft,60,9775,5,1,0,1,0,1,,,,,,,,,,,,,,,,,,,,,,,,,,,,,,,,,,,,,,,
,,,,,,,5e7fa0e918b10804bb87eb63,2023-08-16_09h04.11.208,HF_wild_card,2022.2.4,Win32,60.0024001,5e7fa0e918b10804bb87eb63,64d2fd46c836a06233681665,64dc82d1ed65289708e6c121,,,,,,,ctch,resources/DY.BMP,resources/DBN.BMP,Door3,0.341308594,-0.005208373,1,0,0,1.08,optionRight,70,9845,5,2,0,2,0,1,,,,,,,,,,,,,,,,,,,,,,,,,,,,,,,,,,,,,,,
,,,,,,,5e7fa0e918b10804bb87eb63,2023-08-16_09h04.11.208,HF_wild_card,2022.2.4,Win32,60.0024001,5e7fa0e918b10804bb87eb63,64d2fd46c836a06233681665,64dc82d1ed65289708e6c121,,,,,,,sngl,resources/Empty.png,resources/DB.BMP,Door1,0.30094409,-0.015625,1,0,0,0.7458,optionRight,30,9875,5,3,0,3,0,1,,,,,,,,,,,,,,,,,,,,,,,,,,,,,,,,,,,,,,,
,,,,,,,5e7fa0e918b10804bb87eb63,2023-08-16_09h04.11.208,HF_wild_card,2022.2.4,Win32,60.0024001,5e7fa0e918b10804bb87eb63,64d2fd46c836a06233681665,64dc82d1ed65289708e6c121,,,,,,,decisionTrl,resources/DR.BMP,resources/DBN.BMP,Door4,-0.33968097,0.00390625,1,0,0,1.3789,optionLeft,60,9935,5,4,0,4,0,1,,,,,,,,,,,,,,,,,,,,,,,,,,,,,,,,,,,,,,,
,,,,,,,5e7fa0e918b10804bb87eb63,2023-08-16_09h04.11.208,HF_wild_card,2022.2.4,Win32,60.0024001,5e7fa0e918b10804bb87eb63,64d2fd46c836a06233681665,64dc82d1ed65289708e6c121,,,,,,,decisionTrl,resources/DB.BMP,resources/DY.BMP,Door1,-0.26546222,-0.00390625,1,0,0,1.6282,optionLeft,30,9965,5,5,0,5,0,1,,,,,,,,,,,,,,,,,,,,,,,,,,,,,,,,,,,,,,,
,,,,,,,5e7fa0e918b10804bb87eb63,2023-08-16_09h04.11.208,HF_wild_card,2022.2.4,Win32,60.0024001,5e7fa0e918b10804bb87eb63,64d2fd46c836a06233681665,64dc82d1ed65289708e6c121,,,,,,,ctch,resources/DB.BMP,resources/DR.BMP,Door4,0.31266284,-0.026041687,1,0,0,0.8454,optionRight,60,10025,5,6,0,6,0,1,,,,,,,,,,,,,,,,,,,,,,,,,,,,,,,,,,,,,,,
,,,,,,,5e7fa0e918b10804bb87eb63,2023-08-16_09h04.11.208,HF_wild_card,2022.2.4,Win32,60.0024001,5e7fa0e918b10804bb87eb63,64d2fd46c836a06233681665,64dc82d1ed65289708e6c121,,,,,,,sngl,resources/DG.BMP,resources/Empty.png,WildCard_Ex,-0.333170533,0.010416657,1,0,0,0.7129,optionLeft,95,10120,5,7,0,7,0,1,,,,,,,,,,,,,,,,,,,,,,,,,,,,,,,,,,,,,,,
,,,,,,,5e7fa0e918b10804bb87eb63,2023-08-16_09h04.11.208,HF_wild_card,2022.2.4,Win32,60.0024001,5e7fa0e918b10804bb87eb63,64d2fd46c836a06233681665,64dc82d1ed65289708e6c121,,,,,,,decisionTrl,resources/DY.BMP,resources/DB.BMP,Door1,0.280110717,-0.0078125,1,0,0,1.5963,optionRight,30,10150,5,8,0,8,0,1,,,,,,,,,,,,,,,,,,,,,,,,,,,,,,,,,,,,,,,
,,,,,,,5e7fa0e918b10804bb87eb63,2023-08-16_09h04.11.208,HF_wild_card,2022.2.4,Win32,60.0024001,5e7fa0e918b10804bb87eb63,64d2fd46c836a06233681665,64dc82d1ed65289708e6c121,,,,,,,decisionTrl,resources/DY.BMP,resources/DB.BMP,Door1,0.23453784,-0.036458373,1,0,0,0.7956,optionRight,30,10180,5,9,0,9,0,1,,,,,,,,,,,,,,,,,,,,,,,,,,,,,,,,,,,,,,,
,,,,,,,5e7fa0e918b10804bb87eb63,2023-08-16_09h04.11.208,HF_wild_card,2022.2.4,Win32,60.0024001,5e7fa0e918b10804bb87eb63,64d2fd46c836a06233681665,64dc82d1ed65289708e6c121,,,,,,,ctch,resources/DB.BMP,resources/DR.BMP,Door4,0.446777344,-0.0078125,1,0,0,5.048,optionRight,80,10260,5,10,0,10,0,1,,,,,,,,,,,,,,,,,,,,,,,,,,,,,,,,,,,,,,,
,,,,,,,5e7fa0e918b10804bb87eb63,2023-08-16_09h04.11.208,HF_wild_card,2022.2.4,Win32,60.0024001,5e7fa0e918b10804bb87eb63,64d2fd46c836a06233681665,64dc82d1ed65289708e6c121,,,,,,,decisionTrl,resources/DG.BMP,resources/DB.BMP,WildCard_Ex,-0.36702472,-0.03125,1,0,0,0.9792,optionLeft,95,10355,5,11,0,11,0,1,,,,,,,,,,,,,,,,,,,,,,,,,,,,,,,,,,,,,,,
,,,,,,,5e7fa0e918b10804bb87eb63,2023-08-16_09h04.11.208,HF_wild_card,2022.2.4,Win32,60.0024001,5e7fa0e918b10804bb87eb63,64d2fd46c836a06233681665,64dc82d1ed65289708e6c121,,,,,,,sngl,resources/Empty.png,resources/DR.BMP,Door4,0.42203784,-0.03125,1,0,0,0.6624,optionRight,60,10415,5,12,0,12,0,1,,,,,,,,,,,,,,,,,,,,,,,,,,,,,,,,,,,,,,,
,,,,,,,5e7fa0e918b10804bb87eb63,2023-08-16_09h04.11.208,HF_wild_card,2022.2.4,Win32,60.0024001,5e7fa0e918b10804bb87eb63,64d2fd46c836a06233681665,64dc82d1ed65289708e6c121,,,,,,,ctch,resources/DY.BMP,resources/DBN.BMP,Door3,0.567871094,-0.002604187,1,0,0,0.7456,optionRight,70,10485,5,13,0,13,0,1,,,,,,,,,,,,,,,,,,,,,,,,,,,,,,,,,,,,,,,
,,,,,,,5e7fa0e918b10804bb87eb63,2023-08-16_09h04.11.208,HF_wild_card,2022.2.4,Win32,60.0024001,5e7fa0e918b10804bb87eb63,64d2fd46c836a06233681665,64dc82d1ed65289708e6c121,,,,,,,ctch,resources/DBN.BMP,resources/DY.BMP,Door3,-0.39827472,0,1,0,0,0.6624,optionLeft,70,10555,5,14,0,14,0,1,,,,,,,,,,,,,,,,,,,,,,,,,,,,,,,,,,,,,,,
,,,,,,,5e7fa0e918b10804bb87eb63,2023-08-16_09h04.11.208,HF_wild_card,2022.2.4,Win32,60.0024001,5e7fa0e918b10804bb87eb63,64d2fd46c836a06233681665,64dc82d1ed65289708e6c121,,,,,,,ctch,resources/DR.BMP,resources/DB.BMP,Door4,-0.412597656,-0.018229187,1,0,0,0.8287,optionLeft,60,10615,5,15,0,15,0,1,,,,,,,,,,,,,,,,,,,,,,,,,,,,,,,,,,,,,,,
,,,,,,,5e7fa0e918b10804bb87eb63,2023-08-16_09h04.11.208,HF_wild_card,2022.2.4,Win32,60.0024001,5e7fa0e918b10804bb87eb63,64d2fd46c836a06233681665,64dc82d1ed65289708e6c121,,,,,,,sngl,resources/DR.BMP,resources/Empty.png,Door4,-0.348795533,0.002604157,1,0,0,0.6286,optionLeft,80,10695,5,16,0,16,0,1,,,,,,,,,,,,,,,,,,,,,,,,,,,,,,,,,,,,,,,
,,,,,,,5e7fa0e918b10804bb87eb63,2023-08-16_09h04.11.208,HF_wild_card,2022.2.4,Win32,60.0024001,5e7fa0e918b10804bb87eb63,64d2fd46c836a06233681665,64dc82d1ed65289708e6c121,,,,,,,decisionTrl,resources/DR.BMP,resources/DBN.BMP,Door4,-0.330566406,0.002604157,1,0,0,0.6289,optionLeft,60,10755,5,17,0,17,0,1,,,,,,,,,,,,,,,,,,,,,,,,,,,,,,,,,,,,,,,
,,,,,,,5e7fa0e918b10804bb87eb63,2023-08-16_09h04.11.208,HF_wild_card,2022.2.4,Win32,60.0024001,5e7fa0e918b10804bb87eb63,64d2fd46c836a06233681665,64dc82d1ed65289708e6c121,,,,,,,decisionTrl,resources/DR.BMP,resources/DBN.BMP,Door4,-0.354003906,0.01953125,1,0,0,0.7453,optionLeft,60,10815,5,18,0,18,0,1,,,,,,,,,,,,,,,,,,,,,,,,,,,,,,,,,,,,,,,
,,,,,,,5e7fa0e918b10804bb87eb63,2023-08-16_09h04.11.208,HF_wild_card,2022.2.4,Win32,60.0024001,5e7fa0e918b10804bb87eb63,64d2fd46c836a06233681665,64dc82d1ed65289708e6c121,,,,,,,decisionTrl,resources/DBN.BMP,resources/DG.BMP,Door3,-0.333170533,0.006510407,1,0,0,2.1293,optionLeft,70,10885,5,19,0,19,0,1,,,,,,,,,,,,,,,,,,,,,,,,,,,,,,,,,,,,,,,
,,,,,,,5e7fa0e918b10804bb87eb63,2023-08-16_09h04.11.208,HF_wild_card,2022.2.4,Win32,60.0024001,5e7fa0e918b10804bb87eb63,64d2fd46c836a06233681665,64dc82d1ed65289708e6c121,,,,,,,ctch,resources/DBN.BMP,resources/DY.BMP,Door3,-0.42171222,-0.0078125,1,0,0,0.696,optionLeft,70,10955,5,20,0,20,0,1,,,,,,,,,,,,,,,,,,,,,,,,,,,,,,,,,,,,,,,
,,,,,,,5e7fa0e918b10804bb87eb63,2023-08-16_09h04.11.208,HF_wild_card,2022.2.4,Win32,60.0024001,5e7fa0e918b10804bb87eb63,64d2fd46c836a06233681665,64dc82d1ed65289708e6c121,,,,,,,sngl,resources/Empty.png,resources/DG.BMP,WildCard_Ex,0.47672534,-0.028645873,1,0,0,0.7293,optionRight,95,11050,5,21,0,21,0,1,,,,,,,,,,,,,,,,,,,,,,,,,,,,,,,,,,,,,,,
,,,,,,,5e7fa0e918b10804bb87eb63,2023-08-16_09h04.11.208,HF_wild_card,2022.2.4,Win32,60.0024001,5e7fa0e918b10804bb87eb63,64d2fd46c836a06233681665,64dc82d1ed65289708e6c121,,,,,,,decisionTrl,resources/DB.BMP,resources/DY.BMP,Door1,-0.303222656,-0.020833373,1,0,0,1.4793,optionLeft,30,11080,5,22,0,22,0,1,,,,,,,,,,,,,,,,,,,,,,,,,,,,,,,,,,,,,,,
,,,,,,,5e7fa0e918b10804bb87eb63,2023-08-16_09h04.11.208,HF_wild_card,2022.2.4,Win32,60.0024001,5e7fa0e918b10804bb87eb63,64d2fd46c836a06233681665,64dc82d1ed65289708e6c121,,,,,,,decisionTrl,resources/DB.BMP,resources/DG.BMP,WildCard_Ex,0.31656909,-0.006510437,1,0,0,0.8625,optionRight,5,11085,5,23,0,23,0,1,,,,,,,,,,,,,,,,,,,,,,,,,,,,,,,,,,,,,,,
,,,,,,,5e7fa0e918b10804bb87eb63,2023-08-16_09h04.11.208,HF_wild_card,2022.2.4,Win32,60.0024001,5e7fa0e918b10804bb87eb63,64d2fd46c836a06233681665,64dc82d1ed65289708e6c121,,,,,,,sngl,resources/DBN.BMP,resources/Empty.png,Door3,-0.28889972,-0.041666687,1,0,0,0.6291,optionLeft,70,11155,5,24,0,24,0,1,,,,,,,,,,,,,,,,,,,,,,,,,,,,,,,,,,,,,,,
,,,,,,,5e7fa0e918b10804bb87eb63,2023-08-16_09h04.11.208,HF_wild_card,2022.2.4,Win32,60.0024001,5e7fa0e918b10804bb87eb63,64d2fd46c836a06233681665,64dc82d1ed65289708e6c121,,,,,,,decisionTrl,resources/DY.BMP,resources/DG.BMP,WildCard_Ex,0.349121094,-0.001302123,1,0,0,0.579,optionRight,5,11160,5,25,0,25,0,1,,,,,,,,,,,,,,,,,,,,,,,,,,,,,,,,,,,,,,,
,,,,,,,5e7fa0e918b10804bb87eb63,2023-08-16_09h04.11.208,HF_wild_card,2022.2.4,Win32,60.0024001,5e7fa0e918b10804bb87eb63,64d2fd46c836a06233681665,64dc82d1ed65289708e6c121,,,,,,,decisionTrl,resources/DY.BMP,resources/DB.BMP,Door1,0.31266284,0.006510407,1,0,0,1.4132,optionRight,30,11190,5,26,0,26,0,1,,,,,,,,,,,,,,,,,,,,,,,,,,,,,,,,,,,,,,,
,,,,,,,5e7fa0e918b10804bb87eb63,2023-08-16_09h04.11.208,HF_wild_card,2022.2.4,Win32,60.0024001,5e7fa0e918b10804bb87eb63,64d2fd46c836a06233681665,64dc82d1ed65289708e6c121,,,,,,,decisionTrl,resources/DG.BMP,resources/DBN.BMP,WildCard_Ex,-0.412597656,-0.01953125,1,0,0,1.4299,optionLeft,5,11195,5,27,0,27,0,1,,,,,,,,,,,,,,,,,,,,,,,,,,,,,,,,,,,,,,,
,,,,,,,5e7fa0e918b10804bb87eb63,2023-08-16_09h04.11.208,HF_wild_card,2022.2.4,Win32,60.0024001,5e7fa0e918b10804bb87eb63,64d2fd46c836a06233681665,64dc82d1ed65289708e6c121,,,,,,,sngl,resources/Empty.png,resources/DG.BMP,WildCard_Ex,0.33610034,-0.022135437,1,0,0,0.8793,optionRight,5,11200,5,28,0,28,0,1,,,,,,,,,,,,,,,,,,,,,,,,,,,,,,,,,,,,,,,
,,,,,,,5e7fa0e918b10804bb87eb63,2023-08-16_09h04.11.208,HF_wild_card,2022.2.4,Win32,60.0024001,5e7fa0e918b10804bb87eb63,64d2fd46c836a06233681665,64dc82d1ed65289708e6c121,,,,,,,sngl,resources/Empty.png,resources/DBN.BMP,Door3,0.419433594,-0.026041687,1,0,0,0.8132,optionRight,70,11270,5,29,0,29,0,1,,,,,,,,,,,,,,,,,,,,,,,,,,,,,,,,,,,,,,,
,,,,,,,5e7fa0e918b10804bb87eb63,2023-08-16_09h04.11.208,HF_wild_card,2022.2.4,Win32,60.0024001,5e7fa0e918b10804bb87eb63,64d2fd46c836a06233681665,64dc82d1ed65289708e6c121,,,,,,,sngl,resources/DB.BMP,resources/Empty.png,Door1,-0.255045533,0.002604157,1,0,0,0.6127,optionLeft,30,11300,5,30,0,30,0,1,,,,,,,,,,,,,,,,,,,,,,,,,,,,,,,,,,,,,,,
,,,,,,,5e7fa0e918b10804bb87eb63,2023-08-16_09h04.11.208,HF_wild_card,2022.2.4,Win32,60.0024001,5e7fa0e918b10804bb87eb63,64d2fd46c836a06233681665,64dc82d1ed65289708e6c121,,,,,,,decisionTrl,resources/DB.BMP,resources/DY.BMP,Door1,-0.356608033,-0.0234375,1,0,0,1.0962,optionLeft,30,11330,5,31,0,31,0,1,,,,,,,,,,,,,,,,,,,,,,,,,,,,,,,,,,,,,,,
,,,,,,,5e7fa0e918b10804bb87eb63,2023-08-16_09h04.11.208,HF_wild_card,2022.2.4,Win32,60.0024001,5e7fa0e918b10804bb87eb63,64d2fd46c836a06233681665,64dc82d1ed65289708e6c121,,,,,,,decisionTrl,resources/DB.BMP,resources/DY.BMP,Door1,-0.387858033,-0.015625,1,0,0,0.8634,optionLeft,30,11360,5,32,0,32,0,1,,,,,,,,,,,,,,,,,,,,,,,,,,,,,,,,,,,,,,,
,,,,,,,5e7fa0e918b10804bb87eb63,2023-08-16_09h04.11.208,HF_wild_card,2022.2.4,Win32,60.0024001,5e7fa0e918b10804bb87eb63,64d2fd46c836a06233681665,64dc82d1ed65289708e6c121,,,,,,,decisionTrl,resources/DBN.BMP,resources/DR.BMP,Door4,0.310058594,-0.032552123,1,0,0,1.4798,optionRight,60,11420,5,33,0,33,0,1,,,,,,,,,,,,,,,,,,,,,,,,,,,,,,,,,,,,,,,
,,,,,,,5e7fa0e918b10804bb87eb63,2023-08-16_09h04.11.208,HF_wild_card,2022.2.4,Win32,60.0024001,5e7fa0e918b10804bb87eb63,64d2fd46c836a06233681665,64dc82d1ed65289708e6c121,,,,,,,decisionTrl,resources/DBN.BMP,resources/DR.BMP,Door4,0.35953784,-0.0234375,1,0,0,1.1125,optionRight,80,11500,5,34,0,34,0,1,,,,,,,,,,,,,,,,,,,,,,,,,,,,,,,,,,,,,,,
,,,,,,,5e7fa0e918b10804bb87eb63,2023-08-16_09h04.11.208,HF_wild_card,2022.2.4,Win32,60.0024001,5e7fa0e918b10804bb87eb63,64d2fd46c836a06233681665,64dc82d1ed65289708e6c121,,,,,,,ctch,resources/DR.BMP,resources/DB.BMP,Door4,-0.360514283,-0.022135437,1,0,0,0.796,optionLeft,60,11560,5,35,0,35,0,1,,,,,,,,,,,,,,,,,,,,,,,,,,,,,,,,,,,,,,,
,,,,,,,5e7fa0e918b10804bb87eb63,2023-08-16_09h04.11.208,HF_wild_card,2022.2.4,Win32,60.0024001,5e7fa0e918b10804bb87eb63,64d2fd46c836a06233681665,64dc82d1ed65289708e6c121,,,,,,,sngl,resources/DG.BMP,resources/Empty.png,WildCard_Ex,-0.372233033,-0.001302123,1,0,0,0.713,optionLeft,5,11565,5,36,0,36,0,1,,,,,,,,,,,,,,,,,,,,,,,,,,,,,,,,,,,,,,,
,,,,,,,5e7fa0e918b10804bb87eb63,2023-08-16_09h04.11.208,HF_wild_card,2022.2.4,Win32,60.0024001,5e7fa0e918b10804bb87eb63,64d2fd46c836a06233681665,64dc82d1ed65289708e6c121,,,,,,,sngl,resources/DY.BMP,resources/Empty.png,Door2,-0.282389283,-0.018229187,1,0,0,0.6459,optionLeft,40,11605,5,37,0,37,0,1,,,,,,,,,,,,,,,,,,,,,,,,,,,,,,,,,,,,,,,
,,,,,,,5e7fa0e918b10804bb87eb63,2023-08-16_09h04.11.208,HF_wild_card,2022.2.4,Win32,60.0024001,5e7fa0e918b10804bb87eb63,64d2fd46c836a06233681665,64dc82d1ed65289708e6c121,,,,,,,decisionTrl,resources/DG.BMP,resources/DR.BMP,Door4,0.23063159,0,1,0,0,2.2635,optionRight,80,11685,5,38,0,38,0,1,,,,,,,,,,,,,,,,,,,,,,,,,,,,,,,,,,,,,,,
,,,,,,,5e7fa0e918b10804bb87eb63,2023-08-16_09h04.11.208,HF_wild_card,2022.2.4,Win32,60.0024001,5e7fa0e918b10804bb87eb63,64d2fd46c836a06233681665,64dc82d1ed65289708e6c121,,,,,,,decisionTrl,resources/DR.BMP,resources/DBN.BMP,Door4,-0.28108722,0.001302063,1,0,0,0.6124,optionLeft,60,11745,5,39,0,39,0,1,,,,,,,,,,,,,,,,,,,,,,,,,,,,,,,,,,,,,,,
,,,,,,,5e7fa0e918b10804bb87eb63,2023-08-16_09h04.11.208,HF_wild_card,2022.2.4,Win32,60.0024001,5e7fa0e918b10804bb87eb63,64d2fd46c836a06233681665,64dc82d1ed65289708e6c121,,,,,,,decisionTrl,resources/DG.BMP,resources/DY.BMP,WildCard_Ex,-0.303222656,-0.00390625,1,0,0,1.5456,optionLeft,95,11840,5,40,0,40,0,1,,,,,,,,,,,,,,,,,,,,,,,,,,,,,,,,,,,,,,,
,,,,,,,5e7fa0e918b10804bb87eb63,2023-08-16_09h04.11.208,HF_wild_card,2022.2.4,Win32,60.0024001,5e7fa0e918b10804bb87eb63,64d2fd46c836a06233681665,64dc82d1ed65289708e6c121,,,,,,,decisionTrl,resources/DBN.BMP,resources/DR.BMP,Door4,0.329589844,-0.009114623,1,0,0,1.0127,optionRight,80,11920,5,41,0,41,0,1,,,,,,,,,,,,,,,,,,,,,,,,,,,,,,,,,,,,,,,
,,,,,,,5e7fa0e918b10804bb87eb63,2023-08-16_09h04.11.208,HF_wild_card,2022.2.4,Win32,60.0024001,5e7fa0e918b10804bb87eb63,64d2fd46c836a06233681665,64dc82d1ed65289708e6c121,,,,,,,sngl,resources/Empty.png,resources/DY.BMP,Door2,0.329589844,0.014322907,1,0,0,0.9464,optionRight,20,11940,5,42,0,42,0,1,,,,,,,,,,,,,,,,,,,,,,,,,,,,,,,,,,,,,,,
,,,,,,,5e7fa0e918b10804bb87eb63,2023-08-16_09h04.11.208,HF_wild_card,2022.2.4,Win32,60.0024001,5e7fa0e918b10804bb87eb63,64d2fd46c836a06233681665,64dc82d1ed65289708e6c121,,,,,,,decisionTrl,resources/DBN.BMP,resources/DR.BMP,Door4,0.34781909,0.00390625,1,0,0,1.1295,optionRight,60,12000,5,43,0,43,0,1,,,,,,,,,,,,,,,,,,,,,,,,,,,,,,,,,,,,,,,
,,,,,,,5e7fa0e918b10804bb87eb63,2023-08-16_09h04.11.208,HF_wild_card,2022.2.4,Win32,60.0024001,5e7fa0e918b10804bb87eb63,64d2fd46c836a06233681665,64dc82d1ed65289708e6c121,,,,,,,,,,,,,,,,,,,,,,,,,,4,0,4,0,1,,,,,,,,,,,,,,,,,,,,,,,,,,,,,,,,,,
,,,,,,,5e7fa0e918b10804bb87eb63,2023-08-16_09h04.11.208,HF_wild_card,2022.2.4,Win32,60.0024001,5e7fa0e918b10804bb87eb63,64d2fd46c836a06233681665,64dc82d1ed65289708e6c121,,,,,,,ctch,resources/DB.BMP,resources/DR.BMP,Door4,0.282714844,-0.010416687,1,0,0,1.435,optionRight,60,12060,6,0,0,0,0,1,,,,,,,,,,,,,,,,,,,,,,,,,,,,,,,,,,,,,,,
,,,,,,,5e7fa0e918b10804bb87eb63,2023-08-16_09h04.11.208,HF_wild_card,2022.2.4,Win32,60.0024001,5e7fa0e918b10804bb87eb63,64d2fd46c836a06233681665,64dc82d1ed65289708e6c121,,,,,,,decisionTrl,resources/DBN.BMP,resources/DR.BMP,Door4,0.330891967,-0.076822937,1,0,0,0.6956,optionRight,80,12140,6,1,0,1,0,1,,,,,,,,,,,,,,,,,,,,,,,,,,,,,,,,,,,,,,,
,,,,,,,5e7fa0e918b10804bb87eb63,2023-08-16_09h04.11.208,HF_wild_card,2022.2.4,Win32,60.0024001,5e7fa0e918b10804bb87eb63,64d2fd46c836a06233681665,64dc82d1ed65289708e6c121,,,,,,,decisionTrl,resources/DB.BMP,resources/DG.BMP,WildCard_Ex,0.286621094,-0.01171875,1,0,0,1.2629,optionRight,5,12145,6,2,0,2,0,1,,,,,,,,,,,,,,,,,,,,,,,,,,,,,,,,,,,,,,,
,,,,,,,5e7fa0e918b10804bb87eb63,2023-08-16_09h04.11.208,HF_wild_card,2022.2.4,Win32,60.0024001,5e7fa0e918b10804bb87eb63,64d2fd46c836a06233681665,64dc82d1ed65289708e6c121,,,,,,,decisionTrl,resources/DG.BMP,resources/DY.BMP,WildCard_Ex,-0.342285156,0.002604157,1,0,0,1.3795,optionLeft,95,12240,6,3,0,3,0,1,,,,,,,,,,,,,,,,,,,,,,,,,,,,,,,,,,,,,,,
,,,,,,,5e7fa0e918b10804bb87eb63,2023-08-16_09h04.11.208,HF_wild_card,2022.2.4,Win32,60.0024001,5e7fa0e918b10804bb87eb63,64d2fd46c836a06233681665,64dc82d1ed65289708e6c121,,,,,,,sngl,resources/Empty.png,resources/DB.BMP,Door1,0.310058594,-0.009114623,1,0,0,0.6449,optionRight,30,12270,6,4,0,4,0,1,,,,,,,,,,,,,,,,,,,,,,,,,,,,,,,,,,,,,,,
,,,,,,,5e7fa0e918b10804bb87eb63,2023-08-16_09h04.11.208,HF_wild_card,2022.2.4,Win32,60.0024001,5e7fa0e918b10804bb87eb63,64d2fd46c836a06233681665,64dc82d1ed65289708e6c121,,,,,,,decisionTrl,resources/DR.BMP,resources/DBN.BMP,Door4,-0.301920533,0.006510407,1,0,0,0.9961,optionLeft,60,12330,6,5,0,5,0,1,,,,,,,,,,,,,,,,,,,,,,,,,,,,,,,,,,,,,,,
,,,,,,,5e7fa0e918b10804bb87eb63,2023-08-16_09h04.11.208,HF_wild_card,2022.2.4,Win32,60.0024001,5e7fa0e918b10804bb87eb63,64d2fd46c836a06233681665,64dc82d1ed65289708e6c121,,,,,,,ctch,resources/DY.BMP,resources/DBN.BMP,Door3,0.37125659,0.006510407,1,0,0,1.0963,optionRight,70,12400,6,6,0,6,0,1,,,,,,,,,,,,,,,,,,,,,,,,,,,,,,,,,,,,,,,
,,,,,,,5e7fa0e918b10804bb87eb63,2023-08-16_09h04.11.208,HF_wild_card,2022.2.4,Win32,60.0024001,5e7fa0e918b10804bb87eb63,64d2fd46c836a06233681665,64dc82d1ed65289708e6c121,,,,,,,sngl,resources/Empty.png,resources/DG.BMP,WildCard_Ex,0.37906909,-0.009114623,1,0,0,0.5958,optionRight,95,12495,6,7,0,7,0,1,,,,,,,,,,,,,,,,,,,,,,,,,,,,,,,,,,,,,,,
,,,,,,,5e7fa0e918b10804bb87eb63,2023-08-16_09h04.11.208,HF_wild_card,2022.2.4,Win32,60.0024001,5e7fa0e918b10804bb87eb63,64d2fd46c836a06233681665,64dc82d1ed65289708e6c121,,,,,,,sngl,resources/DY.BMP,resources/Empty.png,Door2,-0.318847656,0.005208313,1,0,0,0.7471,optionLeft,20,12515,6,8,0,8,0,1,,,,,,,,,,,,,,,,,,,,,,,,,,,,,,,,,,,,,,,
,,,,,,,5e7fa0e918b10804bb87eb63,2023-08-16_09h04.11.208,HF_wild_card,2022.2.4,Win32,60.0024001,5e7fa0e918b10804bb87eb63,64d2fd46c836a06233681665,64dc82d1ed65289708e6c121,,,,,,,decisionTrl,resources/DG.BMP,resources/DR.BMP,Door4,0.385579467,-0.006510437,1,0,0,1.6802,optionRight,80,12595,6,9,0,9,0,1,,,,,,,,,,,,,,,,,,,,,,,,,,,,,,,,,,,,,,,
,,,,,,,5e7fa0e918b10804bb87eb63,2023-08-16_09h04.11.208,HF_wild_card,2022.2.4,Win32,60.0024001,5e7fa0e918b10804bb87eb63,64d2fd46c836a06233681665,64dc82d1ed65289708e6c121,,,,,,,decisionTrl,resources/DY.BMP,resources/DG.BMP,WildCard_Ex,0.358235717,-0.013020873,1,0,0,2.0466,optionRight,95,12690,6,10,0,10,0,1,,,,,,,,,,,,,,,,,,,,,,,,,,,,,,,,,,,,,,,
,,,,,,,5e7fa0e918b10804bb87eb63,2023-08-16_09h04.11.208,HF_wild_card,2022.2.4,Win32,60.0024001,5e7fa0e918b10804bb87eb63,64d2fd46c836a06233681665,64dc82d1ed65289708e6c121,,,,,,,decisionTrl,resources/DG.BMP,resources/DBN.BMP,WildCard_Ex,-0.291503906,-0.048177123,1,0,0,0.6628,optionLeft,5,12695,6,11,0,11,0,1,,,,,,,,,,,,,,,,,,,,,,,,,,,,,,,,,,,,,,,
,,,,,,,5e7fa0e918b10804bb87eb63,2023-08-16_09h04.11.208,HF_wild_card,2022.2.4,Win32,60.0024001,5e7fa0e918b10804bb87eb63,64d2fd46c836a06233681665,64dc82d1ed65289708e6c121,,,,,,,sngl,resources/DR.BMP,resources/Empty.png,Door4,-0.193847656,-0.016927123,1,0,0,0.7624,optionLeft,60,12755,6,12,0,12,0,1,,,,,,,,,,,,,,,,,,,,,,,,,,,,,,,,,,,,,,,
,,,,,,,5e7fa0e918b10804bb87eb63,2023-08-16_09h04.11.208,HF_wild_card,2022.2.4,Win32,60.0024001,5e7fa0e918b10804bb87eb63,64d2fd46c836a06233681665,64dc82d1ed65289708e6c121,,,,,,,decisionTrl,resources/DR.BMP,resources/DBN.BMP,Door4,-0.387858033,0.013020813,1,0,0,2.3303,optionLeft,80,12835,6,13,0,13,0,1,,,,,,,,,,,,,,,,,,,,,,,,,,,,,,,,,,,,,,,
,,,,,,,5e7fa0e918b10804bb87eb63,2023-08-16_09h04.11.208,HF_wild_card,2022.2.4,Win32,60.0024001,5e7fa0e918b10804bb87eb63,64d2fd46c836a06233681665,64dc82d1ed65289708e6c121,,,,,,,decisionTrl,resources/DBN.BMP,resources/DR.BMP,Door4,0.451985717,-0.029947937,1,0,0,2.4467,optionRight,60,12895,6,14,0,14,0,1,,,,,,,,,,,,,,,,,,,,,,,,,,,,,,,,,,,,,,,
,,,,,,,5e7fa0e918b10804bb87eb63,2023-08-16_09h04.11.208,HF_wild_card,2022.2.4,Win32,60.0024001,5e7fa0e918b10804bb87eb63,64d2fd46c836a06233681665,64dc82d1ed65289708e6c121,,,,,,,decisionTrl,resources/DY.BMP,resources/DB.BMP,Door1,0.349121094,-0.009114623,1,0,0,1.1188,optionRight,30,12925,6,15,0,15,0,1,,,,,,,,,,,,,,,,,,,,,,,,,,,,,,,,,,,,,,,
,,,,,,,5e7fa0e918b10804bb87eb63,2023-08-16_09h04.11.208,HF_wild_card,2022.2.4,Win32,60.0024001,5e7fa0e918b10804bb87eb63,64d2fd46c836a06233681665,64dc82d1ed65289708e6c121,,,,,,,decisionTrl,resources/DBN.BMP,resources/DG.BMP,Door3,-0.44514972,0.014322907,1,0,0,1.5957,optionLeft,70,12995,6,16,0,16,0,1,,,,,,,,,,,,,,,,,,,,,,,,,,,,,,,,,,,,,,,
,,,,,,,5e7fa0e918b10804bb87eb63,2023-08-16_09h04.11.208,HF_wild_card,2022.2.4,Win32,60.0024001,5e7fa0e918b10804bb87eb63,64d2fd46c836a06233681665,64dc82d1ed65289708e6c121,,,,,,,decisionTrl,resources/DB.BMP,resources/DY.BMP,Door1,-0.35530597,-0.009114623,1,0,0,1.1464,optionLeft,30,13025,6,17,0,17,0,1,,,,,,,,,,,,,,,,,,,,,,,,,,,,,,,,,,,,,,,
,,,,,,,5e7fa0e918b10804bb87eb63,2023-08-16_09h04.11.208,HF_wild_card,2022.2.4,Win32,60.0024001,5e7fa0e918b10804bb87eb63,64d2fd46c836a06233681665,64dc82d1ed65289708e6c121,,,,,,,decisionTrl,resources/DY.BMP,resources/DB.BMP,Door1,0.34781909,-0.018229187,1,0,0,1.213,optionRight,30,13055,6,18,0,18,0,1,,,,,,,,,,,,,,,,,,,,,,,,,,,,,,,,,,,,,,,
,,,,,,,5e7fa0e918b10804bb87eb63,2023-08-16_09h04.11.208,HF_wild_card,2022.2.4,Win32,60.0024001,5e7fa0e918b10804bb87eb63,64d2fd46c836a06233681665,64dc82d1ed65289708e6c121,,,,,,,ctch,resources/DR.BMP,resources/DB.BMP,Door4,-0.404785156,-0.001302123,1,0,0,0.7629,optionLeft,80,13135,6,19,0,19,0,1,,,,,,,,,,,,,,,,,,,,,,,,,,,,,,,,,,,,,,,
,,,,,,,5e7fa0e918b10804bb87eb63,2023-08-16_09h04.11.208,HF_wild_card,2022.2.4,Win32,60.0024001,5e7fa0e918b10804bb87eb63,64d2fd46c836a06233681665,64dc82d1ed65289708e6c121,,,,,,,ctch,resources/DB.BMP,resources/DR.BMP,Door4,0.350423217,-0.022135437,1,0,0,1.5454,optionRight,60,13195,6,20,0,20,0,1,,,,,,,,,,,,,,,,,,,,,,,,,,,,,,,,,,,,,,,
,,,,,,,5e7fa0e918b10804bb87eb63,2023-08-16_09h04.11.208,HF_wild_card,2022.2.4,Win32,60.0024001,5e7fa0e918b10804bb87eb63,64d2fd46c836a06233681665,64dc82d1ed65289708e6c121,,,,,,,sngl,resources/Empty.png,resources/DG.BMP,WildCard_Ex,0.323079467,-0.018229187,1,0,0,0.7455,optionRight,5,13200,6,21,0,21,0,1,,,,,,,,,,,,,,,,,,,,,,,,,,,,,,,,,,,,,,,
,,,,,,,5e7fa0e918b10804bb87eb63,2023-08-16_09h04.11.208,HF_wild_card,2022.2.4,Win32,60.0024001,5e7fa0e918b10804bb87eb63,64d2fd46c836a06233681665,64dc82d1ed65289708e6c121,,,,,,,sngl,resources/DG.BMP,resources/Empty.png,WildCard_Ex,-0.385253906,0.002604157,1,0,0,0.6793,optionLeft,95,13295,6,22,0,22,0,1,,,,,,,,,,,,,,,,,,,,,,,,,,,,,,,,,,,,,,,
,,,,,,,5e7fa0e918b10804bb87eb63,2023-08-16_09h04.11.208,HF_wild_card,2022.2.4,Win32,60.0024001,5e7fa0e918b10804bb87eb63,64d2fd46c836a06233681665,64dc82d1ed65289708e6c121,,,,,,,sngl,resources/Empty.png,resources/DBN.BMP,Door3,0.389485717,0.002604157,1,0,0,0.7633,optionRight,70,13365,6,23,0,23,0,1,,,,,,,,,,,,,,,,,,,,,,,,,,,,,,,,,,,,,,,
,,,,,,,5e7fa0e918b10804bb87eb63,2023-08-16_09h04.11.208,HF_wild_card,2022.2.4,Win32,60.0024001,5e7fa0e918b10804bb87eb63,64d2fd46c836a06233681665,64dc82d1ed65289708e6c121,,,,,,,sngl,resources/Empty.png,resources/DR.BMP,Door4,0.34391284,-0.014322937,1,0,0,0.7461,optionRight,80,13445,6,24,0,24,0,1,,,,,,,,,,,,,,,,,,,,,,,,,,,,,,,,,,,,,,,
,,,,,,,5e7fa0e918b10804bb87eb63,2023-08-16_09h04.11.208,HF_wild_card,2022.2.4,Win32,60.0024001,5e7fa0e918b10804bb87eb63,64d2fd46c836a06233681665,64dc82d1ed65289708e6c121,,,,,,,ctch,resources/DR.BMP,resources/DB.BMP,Door4,-0.274576783,0,1,0,0,1.0459,optionLeft,60,13505,6,25,0,25,0,1,,,,,,,,,,,,,,,,,,,,,,,,,,,,,,,,,,,,,,,
,,,,,,,5e7fa0e918b10804bb87eb63,2023-08-16_09h04.11.208,HF_wild_card,2022.2.4,Win32,60.0024001,5e7fa0e918b10804bb87eb63,64d2fd46c836a06233681665,64dc82d1ed65289708e6c121,,,,,,,decisionTrl,resources/DB.BMP,resources/DY.BMP,Door1,-0.337076783,0.001302063,1,0,0,1.9801,optionLeft,30,13535,6,26,0,26,0,1,,,,,,,,,,,,,,,,,,,,,,,,,,,,,,,,,,,,,,,
,,,,,,,5e7fa0e918b10804bb87eb63,2023-08-16_09h04.11.208,HF_wild_card,2022.2.4,Win32,60.0024001,5e7fa0e918b10804bb87eb63,64d2fd46c836a06233681665,64dc82d1ed65289708e6c121,,,,,,,decisionTrl,resources/DBN.BMP,resources/DR.BMP,Door4,0.32828784,-0.006510437,1,0,0,0.7852,optionRight,60,13595,6,27,0,27,0,1,,,,,,,,,,,,,,,,,,,,,,,,,,,,,,,,,,,,,,,
,,,,,,,5e7fa0e918b10804bb87eb63,2023-08-16_09h04.11.208,HF_wild_card,2022.2.4,Win32,60.0024001,5e7fa0e918b10804bb87eb63,64d2fd46c836a06233681665,64dc82d1ed65289708e6c121,,,,,,,decisionTrl,resources/DG.BMP,resources/DB.BMP,WildCard_Ex,-0.38264972,0.01953125,1,0,0,1.5491,optionLeft,95,13690,6,28,0,28,0,1,,,,,,,,,,,,,,,,,,,,,,,,,,,,,,,,,,,,,,,
,,,,,,,5e7fa0e918b10804bb87eb63,2023-08-16_09h04.11.208,HF_wild_card,2022.2.4,Win32,60.0024001,5e7fa0e918b10804bb87eb63,64d2fd46c836a06233681665,64dc82d1ed65289708e6c121,,,,,,,decisionTrl,resources/DB.BMP,resources/DY.BMP,Door1,-0.32796222,0.01171875,1,0,0,1.5808,optionLeft,30,13720,6,29,0,29,0,1,,,,,,,,,,,,,,,,,,,,,,,,,,,,,,,,,,,,,,,
,,,,,,,5e7fa0e918b10804bb87eb63,2023-08-16_09h04.11.208,HF_wild_card,2022.2.4,Win32,60.0024001,5e7fa0e918b10804bb87eb63,64d2fd46c836a06233681665,64dc82d1ed65289708e6c121,,,,,,,decisionTrl,resources/DBN.BMP,resources/DR.BMP,Door4,0.362141967,-0.018229187,1,0,0,1.0306,optionRight,80,13800,6,30,0,30,0,1,,,,,,,,,,,,,,,,,,,,,,,,,,,,,,,,,,,,,,,
,,,,,,,5e7fa0e918b10804bb87eb63,2023-08-16_09h04.11.208,HF_wild_card,2022.2.4,Win32,60.0024001,5e7fa0e918b10804bb87eb63,64d2fd46c836a06233681665,64dc82d1ed65289708e6c121,,,,,,,ctch,resources/DBN.BMP,resources/DY.BMP,Door3,-0.368326783,0.016927063,1,0,0,0.8824,optionLeft,70,13870,6,31,0,31,0,1,,,,,,,,,,,,,,,,,,,,,,,,,,,,,,,,,,,,,,,
,,,,,,,5e7fa0e918b10804bb87eb63,2023-08-16_09h04.11.208,HF_wild_card,2022.2.4,Win32,60.0024001,5e7fa0e918b10804bb87eb63,64d2fd46c836a06233681665,64dc82d1ed65289708e6c121,,,,,,,decisionTrl,resources/DR.BMP,resources/DBN.BMP,Door4,-0.352701783,0.002604157,1,0,0,1.0106,optionLeft,60,13930,6,32,0,32,0,1,,,,,,,,,,,,,,,,,,,,,,,,,,,,,,,,,,,,,,,
,,,,,,,5e7fa0e918b10804bb87eb63,2023-08-16_09h04.11.208,HF_wild_card,2022.2.4,Win32,60.0024001,5e7fa0e918b10804bb87eb63,64d2fd46c836a06233681665,64dc82d1ed65289708e6c121,,,,,,,ctch,resources/DBN.BMP,resources/DY.BMP,Door3,-0.318847656,0.0078125,1,0,0,0.7806,optionLeft,70,14000,6,33,0,33,0,1,,,,,,,,,,,,,,,,,,,,,,,,,,,,,,,,,,,,,,,
,,,,,,,5e7fa0e918b10804bb87eb63,2023-08-16_09h04.11.208,HF_wild_card,2022.2.4,Win32,60.0024001,5e7fa0e918b10804bb87eb63,64d2fd46c836a06233681665,64dc82d1ed65289708e6c121,,,,,,,decisionTrl,resources/DR.BMP,resources/DBN.BMP,Door4,-0.38264972,-0.005208373,1,0,0,0.8171,optionLeft,60,14060,6,34,0,34,0,1,,,,,,,,,,,,,,,,,,,,,,,,,,,,,,,,,,,,,,,
,,,,,,,5e7fa0e918b10804bb87eb63,2023-08-16_09h04.11.208,HF_wild_card,2022.2.4,Win32,60.0024001,5e7fa0e918b10804bb87eb63,64d2fd46c836a06233681665,64dc82d1ed65289708e6c121,,,,,,,sngl,resources/DB.BMP,resources/Empty.png,Door1,-0.365722656,0.006510407,1,0,0,0.7987,optionLeft,30,14090,6,35,0,35,0,1,,,,,,,,,,,,,,,,,,,,,,,,,,,,,,,,,,,,,,,
,,,,,,,5e7fa0e918b10804bb87eb63,2023-08-16_09h04.11.208,HF_wild_card,2022.2.4,Win32,60.0024001,5e7fa0e918b10804bb87eb63,64d2fd46c836a06233681665,64dc82d1ed65289708e6c121,,,,,,,decisionTrl,resources/DY.BMP,resources/DB.BMP,Door1,0.377766967,-0.018229187,1,0,0,1.1983,optionRight,30,14120,6,36,0,36,0,1,,,,,,,,,,,,,,,,,,,,,,,,,,,,,,,,,,,,,,,
,,,,,,,5e7fa0e918b10804bb87eb63,2023-08-16_09h04.11.208,HF_wild_card,2022.2.4,Win32,60.0024001,5e7fa0e918b10804bb87eb63,64d2fd46c836a06233681665,64dc82d1ed65289708e6c121,,,,,,,sngl,resources/DBN.BMP,resources/Empty.png,Door3,-0.342285156,0.016927063,1,0,0,0.6149,optionLeft,70,14190,6,37,0,37,0,1,,,,,,,,,,,,,,,,,,,,,,,,,,,,,,,,,,,,,,,
,,,,,,,5e7fa0e918b10804bb87eb63,2023-08-16_09h04.11.208,HF_wild_card,2022.2.4,Win32,60.0024001,5e7fa0e918b10804bb87eb63,64d2fd46c836a06233681665,64dc82d1ed65289708e6c121,,,,,,,decisionTrl,resources/DR.BMP,resources/DG.BMP,Door4,-0.348795533,-0.002604187,1,0,0,1.0795,optionLeft,80,14270,6,38,0,38,0,1,,,,,,,,,,,,,,,,,,,,,,,,,,,,,,,,,,,,,,,
,,,,,,,5e7fa0e918b10804bb87eb63,2023-08-16_09h04.11.208,HF_wild_card,2022.2.4,Win32,60.0024001,5e7fa0e918b10804bb87eb63,64d2fd46c836a06233681665,64dc82d1ed65289708e6c121,,,,,,,ctch,resources/DY.BMP,resources/DBN.BMP,Door3,0.34000659,0.005208313,1,0,0,0.8478,optionRight,70,14340,6,39,0,39,0,1,,,,,,,,,,,,,,,,,,,,,,,,,,,,,,,,,,,,,,,
,,,,,,,5e7fa0e918b10804bb87eb63,2023-08-16_09h04.11.208,HF_wild_card,2022.2.4,Win32,60.0024001,5e7fa0e918b10804bb87eb63,64d2fd46c836a06233681665,64dc82d1ed65289708e6c121,,,,,,,sngl,resources/DG.BMP,resources/Empty.png,WildCard_Ex,-0.30452472,0.018229157,1,0,0,0.6152,optionLeft,5,14345,6,40,0,40,0,1,,,,,,,,,,,,,,,,,,,,,,,,,,,,,,,,,,,,,,,
,,,,,,,5e7fa0e918b10804bb87eb63,2023-08-16_09h04.11.208,HF_wild_card,2022.2.4,Win32,60.0024001,5e7fa0e918b10804bb87eb63,64d2fd46c836a06233681665,64dc82d1ed65289708e6c121,,,,,,,decisionTrl,resources/DY.BMP,resources/DB.BMP,Door1,0.34000659,-0.001302123,1,0,0,1.6484,optionRight,30,14375,6,41,0,41,0,1,,,,,,,,,,,,,,,,,,,,,,,,,,,,,,,,,,,,,,,
,,,,,,,5e7fa0e918b10804bb87eb63,2023-08-16_09h04.11.208,HF_wild_card,2022.2.4,Win32,60.0024001,5e7fa0e918b10804bb87eb63,64d2fd46c836a06233681665,64dc82d1ed65289708e6c121,,,,,,,decisionTrl,resources/DB.BMP,resources/DY.BMP,Door1,-0.360514283,0.01953125,1,0,0,1.3327,optionLeft,30,14405,6,42,0,42,0,1,,,,,,,,,,,,,,,,,,,,,,,,,,,,,,,,,,,,,,,
,,,,,,,5e7fa0e918b10804bb87eb63,2023-08-16_09h04.11.208,HF_wild_card,2022.2.4,Win32,60.0024001,5e7fa0e918b10804bb87eb63,64d2fd46c836a06233681665,64dc82d1ed65289708e6c121,,,,,,,sngl,resources/Empty.png,resources/DY.BMP,Door2,0.438964844,0.005208313,1,0,0,0.6161,optionRight,40,14445,6,43,0,43,0,1,,,,,,,,,,,,,,,,,,,,,,,,,,,,,,,,,,,,,,,
,,,,,,,5e7fa0e918b10804bb87eb63,2023-08-16_09h04.11.208,HF_wild_card,2022.2.4,Win32,60.0024001,5e7fa0e918b10804bb87eb63,64d2fd46c836a06233681665,64dc82d1ed65289708e6c121,,,,,,,,,,,,,,,,,,,,,,,,,,5,0,5,0,1,,,,,,,,,,,,,,,,,,,,,,,,,,,,,,,,,,
,,,,,,,5e7fa0e918b10804bb87eb63,2023-08-16_09h04.11.208,HF_wild_card,2022.2.4,Win32,60.0024001,5e7fa0e918b10804bb87eb63,64d2fd46c836a06233681665,64dc82d1ed65289708e6c121,,,,,,,decisionTrl,resources/DR.BMP,resources/DBN.BMP,Door4,-0.37483722,-0.044270873,1,0,0,1.38,optionLeft,60,14505,7,0,0,0,0,1,,,,,,,,,,,,,,,,,,,,,,,,,,,,,,,,,,,,,,,
,,,,,,,5e7fa0e918b10804bb87eb63,2023-08-16_09h04.11.208,HF_wild_card,2022.2.4,Win32,60.0024001,5e7fa0e918b10804bb87eb63,64d2fd46c836a06233681665,64dc82d1ed65289708e6c121,,,,,,,decisionTrl,resources/DB.BMP,resources/DY.BMP,Door1,-0.301920533,-0.01171875,1,0,0,1.7308,optionLeft,30,14535,7,1,0,1,0,1,,,,,,,,,,,,,,,,,,,,,,,,,,,,,,,,,,,,,,,
,,,,,,,5e7fa0e918b10804bb87eb63,2023-08-16_09h04.11.208,HF_wild_card,2022.2.4,Win32,60.0024001,5e7fa0e918b10804bb87eb63,64d2fd46c836a06233681665,64dc82d1ed65289708e6c121,,,,,,,decisionTrl,resources/DB.BMP,resources/DY.BMP,Door1,-0.303222656,-0.022135437,1,0,0,1.13,optionLeft,30,14565,7,2,0,2,0,1,,,,,,,,,,,,,,,,,,,,,,,,,,,,,,,,,,,,,,,
,,,,,,,5e7fa0e918b10804bb87eb63,2023-08-16_09h04.11.208,HF_wild_card,2022.2.4,Win32,60.0024001,5e7fa0e918b10804bb87eb63,64d2fd46c836a06233681665,64dc82d1ed65289708e6c121,,,,,,,decisionTrl,resources/DB.BMP,resources/DY.BMP,Door1,-0.400878906,-0.005208373,1,0,0,0.7806,optionLeft,30,14595,7,3,0,3,0,1,,,,,,,,,,,,,,,,,,,,,,,,,,,,,,,,,,,,,,,
,,,,,,,5e7fa0e918b10804bb87eb63,2023-08-16_09h04.11.208,HF_wild_card,2022.2.4,Win32,60.0024001,5e7fa0e918b10804bb87eb63,64d2fd46c836a06233681665,64dc82d1ed65289708e6c121,,,,,,,decisionTrl,resources/DY.BMP,resources/DB.BMP,Door1,0.42594409,-0.016927123,1,0,0,1.2306,optionRight,30,14625,7,4,0,4,0,1,,,,,,,,,,,,,,,,,,,,,,,,,,,,,,,,,,,,,,,
,,,,,,,5e7fa0e918b10804bb87eb63,2023-08-16_09h04.11.208,HF_wild_card,2022.2.4,Win32,60.0024001,5e7fa0e918b10804bb87eb63,64d2fd46c836a06233681665,64dc82d1ed65289708e6c121,,,,,,,ctch,resources/DY.BMP,resources/DBN.BMP,Door3,0.389485717,-0.0234375,1,0,0,0.8804,optionRight,70,14695,7,5,0,5,0,1,,,,,,,,,,,,,,,,,,,,,,,,,,,,,,,,,,,,,,,
,,,,,,,5e7fa0e918b10804bb87eb63,2023-08-16_09h04.11.208,HF_wild_card,2022.2.4,Win32,60.0024001,5e7fa0e918b10804bb87eb63,64d2fd46c836a06233681665,64dc82d1ed65289708e6c121,,,,,,,decisionTrl,resources/DB.BMP,resources/DY.BMP,Door1,-0.361816406,0.005208313,1,0,0,1.2137,optionLeft,30,14725,7,6,0,6,0,1,,,,,,,,,,,,,,,,,,,,,,,,,,,,,,,,,,,,,,,
,,,,,,,5e7fa0e918b10804bb87eb63,2023-08-16_09h04.11.208,HF_wild_card,2022.2.4,Win32,60.0024001,5e7fa0e918b10804bb87eb63,64d2fd46c836a06233681665,64dc82d1ed65289708e6c121,,,,,,,decisionTrl,resources/DY.BMP,resources/DB.BMP,Door1,0.28922534,-0.0078125,1,0,0,0.9804,optionRight,30,14755,7,7,0,7,0,1,,,,,,,,,,,,,,,,,,,,,,,,,,,,,,,,,,,,,,,
,,,,,,,5e7fa0e918b10804bb87eb63,2023-08-16_09h04.11.208,HF_wild_card,2022.2.4,Win32,60.0024001,5e7fa0e918b10804bb87eb63,64d2fd46c836a06233681665,64dc82d1ed65289708e6c121,,,,,,,decisionTrl,resources/DBN.BMP,resources/DR.BMP,Door4,0.416829467,-0.020833373,1,0,0,0.947,optionRight,60,14815,7,8,0,8,0,1,,,,,,,,,,,,,,,,,,,,,,,,,,,,,,,,,,,,,,,
,,,,,,,5e7fa0e918b10804bb87eb63,2023-08-16_09h04.11.208,HF_wild_card,2022.2.4,Win32,60.0024001,5e7fa0e918b10804bb87eb63,64d2fd46c836a06233681665,64dc82d1ed65289708e6c121,,,,,,,decisionTrl,resources/DBN.BMP,resources/DR.BMP,Door4,0.39860034,-0.002604187,1,0,0,0.6972,optionRight,60,14875,7,9,0,9,0,1,,,,,,,,,,,,,,,,,,,,,,,,,,,,,,,,,,,,,,,
,,,,,,,5e7fa0e918b10804bb87eb63,2023-08-16_09h04.11.208,HF_wild_card,2022.2.4,Win32,60.0024001,5e7fa0e918b10804bb87eb63,64d2fd46c836a06233681665,64dc82d1ed65289708e6c121,,,,,,,decisionTrl,resources/DBN.BMP,resources/DR.BMP,Door4,0.44156909,-0.024739623,1,0,0,0.6472,optionRight,60,14935,7,10,0,10,0,1,,,,,,,,,,,,,,,,,,,,,,,,,,,,,,,,,,,,,,,
,,,,,,,5e7fa0e918b10804bb87eb63,2023-08-16_09h04.11.208,HF_wild_card,2022.2.4,Win32,60.0024001,5e7fa0e918b10804bb87eb63,64d2fd46c836a06233681665,64dc82d1ed65289708e6c121,,,,,,,ctch,resources/DR.BMP,resources/DB.BMP,Door4,-0.311035156,-0.0234375,1,0,0,0.6637,optionLeft,80,15015,7,11,0,11,0,1,,,,,,,,,,,,,,,,,,,,,,,,,,,,,,,,,,,,,,,
,,,,,,,5e7fa0e918b10804bb87eb63,2023-08-16_09h04.11.208,HF_wild_card,2022.2.4,Win32,60.0024001,5e7fa0e918b10804bb87eb63,64d2fd46c836a06233681665,64dc82d1ed65289708e6c121,,,,,,,ctch,resources/DR.BMP,resources/DB.BMP,Door4,-0.30843097,-0.015625,1,0,0,0.6805,optionLeft,60,15075,7,12,0,12,0,1,,,,,,,,,,,,,,,,,,,,,,,,,,,,,,,,,,,,,,,
,,,,,,,5e7fa0e918b10804bb87eb63,2023-08-16_09h04.11.208,HF_wild_card,2022.2.4,Win32,60.0024001,5e7fa0e918b10804bb87eb63,64d2fd46c836a06233681665,64dc82d1ed65289708e6c121,,,,,,,decisionTrl,resources/DBN.BMP,resources/DR.BMP,Door4,0.31266284,-0.0078125,1,0,0,0.6968,optionRight,80,15155,7,13,0,13,0,1,,,,,,,,,,,,,,,,,,,,,,,,,,,,,,,,,,,,,,,
,,,,,,,5e7fa0e918b10804bb87eb63,2023-08-16_09h04.11.208,HF_wild_card,2022.2.4,Win32,60.0024001,5e7fa0e918b10804bb87eb63,64d2fd46c836a06233681665,64dc82d1ed65289708e6c121,,,,,,,ctch,resources/DY.BMP,resources/DBN.BMP,Door3,0.369954467,-0.001302123,1,0,0,1.0971,optionRight,70,15225,7,14,0,14,0,1,,,,,,,,,,,,,,,,,,,,,,,,,,,,,,,,,,,,,,,
,,,,,,,5e7fa0e918b10804bb87eb63,2023-08-16_09h04.11.208,HF_wild_card,2022.2.4,Win32,60.0024001,5e7fa0e918b10804bb87eb63,64d2fd46c836a06233681665,64dc82d1ed65289708e6c121,,,,,,,decisionTrl,resources/DR.BMP,resources/DBN.BMP,Door4,-0.48030597,0.03515625,1,0,0,1.1136,optionLeft,80,15305,7,15,0,15,0,1,,,,,,,,,,,,,,,,,,,,,,,,,,,,,,,,,,,,,,,
,,,,,,,5e7fa0e918b10804bb87eb63,2023-08-16_09h04.11.208,HF_wild_card,2022.2.4,Win32,60.0024001,5e7fa0e918b10804bb87eb63,64d2fd46c836a06233681665,64dc82d1ed65289708e6c121,,,,,,,ctch,resources/DB.BMP,resources/DR.BMP,Door4,0.307454467,0.002604157,1,0,0,0.7798,optionRight,80,15385,7,16,0,16,0,1,,,,,,,,,,,,,,,,,,,,,,,,,,,,,,,,,,,,,,,
,,,,,,,5e7fa0e918b10804bb87eb63,2023-08-16_09h04.11.208,HF_wild_card,2022.2.4,Win32,60.0024001,5e7fa0e918b10804bb87eb63,64d2fd46c836a06233681665,64dc82d1ed65289708e6c121,,,,,,,decisionTrl,resources/DY.BMP,resources/DB.BMP,Door1,0.405110717,0.005208313,1,0,0,1.3805,optionRight,30,15415,7,17,0,17,0,1,,,,,,,,,,,,,,,,,,,,,,,,,,,,,,,,,,,,,,,
,,,,,,,5e7fa0e918b10804bb87eb63,2023-08-16_09h04.11.208,HF_wild_card,2022.2.4,Win32,60.0024001,5e7fa0e918b10804bb87eb63,64d2fd46c836a06233681665,64dc82d1ed65289708e6c121,,,,,,,decisionTrl,resources/DBN.BMP,resources/DR.BMP,Door4,0.29313159,0.005208313,1,0,0,0.9803,optionRight,60,15475,7,18,0,18,0,1,,,,,,,,,,,,,,,,,,,,,,,,,,,,,,,,,,,,,,,
,,,,,,,5e7fa0e918b10804bb87eb63,2023-08-16_09h04.11.208,HF_wild_card,2022.2.4,Win32,60.0024001,5e7fa0e918b10804bb87eb63,64d2fd46c836a06233681665,64dc82d1ed65289708e6c121,,,,,,,ctch,resources/DBN.BMP,resources/DY.BMP,Door3,-0.251139283,0.005208313,1,0,0,0.7641,optionLeft,70,15545,7,19,0,19,0,1,,,,,,,,,,,,,,,,,,,,,,,,,,,,,,,,,,,,,,,
,,,,,,,5e7fa0e918b10804bb87eb63,2023-08-16_09h04.11.208,HF_wild_card,2022.2.4,Win32,60.0024001,5e7fa0e918b10804bb87eb63,64d2fd46c836a06233681665,64dc82d1ed65289708e6c121,,,,,,,decisionTrl,resources/DBN.BMP,resources/DR.BMP,Door4,0.287923217,0.01953125,1,0,0,0.8806,optionRight,80,15625,7,20,0,20,0,1,,,,,,,,,,,,,,,,,,,,,,,,,,,,,,,,,,,,,,,
,,,,,,,5e7fa0e918b10804bb87eb63,2023-08-16_09h04.11.208,HF_wild_card,2022.2.4,Win32,60.0024001,5e7fa0e918b10804bb87eb63,64d2fd46c836a06233681665,64dc82d1ed65289708e6c121,,,,,,,decisionTrl,resources/DB.BMP,resources/DY.BMP,Door1,-0.286295533,0.005208313,1,0,0,0.9642,optionLeft,30,15655,7,21,0,21,0,1,,,,,,,,,,,,,,,,,,,,,,,,,,,,,,,,,,,,,,,
