Condition,Low fixed image (Door1),Low risky image (Door2),High fixed image (Door3),High risky image (Door4),Extreme Wild Card,NonExtreme Wild Card,,date,expName,psychopyVersion,OS,frameRate,PROLIFIC_PID,STUDY_ID,SESSION_ID,mouse_2.x,mouse_2.y,mouse_2.leftButton,mouse_2.midButton,mouse_2.rightButton,mouse_2.clicked_name,Trial Type,Left Option Image,Right Option Image,Chosen Door,mouse.x,mouse.y,mouse.leftButton,mouse.midButton,mouse.rightButton,mouse.time,mouse.clicked_name,Feedback,Cumulative Reward,Block,trial.thisRepN,trial.thisTrialN,trial.thisN,trial.thisIndex,trial.ran,blocks.thisRepN,blocks.thisTrialN,blocks.thisN,blocks.thisIndex,blocks.ran,Money conversion,First Outcome Reported,Shown Door (First Outcome),Displayed Image (First Outcome),outcomes.thisRepN,outcomes.thisTrialN,outcomes.thisN,outcomes.thisIndex,outcomes.ran,judgments.thisRepN,judgments.thisTrialN,judgments.thisN,judgments.thisIndex,judgments.ran,freqMouse.x,freqMouse.y,freqMouse.leftButton,freqMouse.midButton,freqMouse.rightButton,freqMouse.clicked_name,FQJ for first outcome,FQJ for second outcome,Shown Door,Displayed Image,trials.thisRepN,trials.thisTrialN,trials.thisN,trials.thisIndex,trials.ran,judgBlock.thisRepN,judgBlock.thisTrialN,judgBlock.thisN,judgBlock.thisIndex,judgBlock.ran
0,resources/DB.BMP,resources/DY.BMP,resources/DR.BMP,resources/DG.BMP,resources/DP.BMP,resources/DBN.BMP,5f75d01a857e4e27a575f7ca,2023-08-16_10h45.31.395,HF_wild_card,2022.2.4,Win32,60.03842459,5f75d01a857e4e27a575f7ca,64d2fd46c836a06233681665,64dc9aa38682881db2306bcb,,,,,,,,,,,,,,,,,,,,,,,,,,,,,,,,,,,,,,,,,,,,,,,,,,,,,,,,,,,,,,,,
,,,,,,,5f75d01a857e4e27a575f7ca,2023-08-16_10h45.31.395,HF_wild_card,2022.2.4,Win32,60.03842459,5f75d01a857e4e27a575f7ca,64d2fd46c836a06233681665,64dc9aa38682881db2306bcb,0.00462963,-0.412962949,1,0,0,agree,,,,,,,,,,,,,,,,,,,,,,,,,,,,,,,,,,,,,,,,,,,,,,,,,,,,,,,,,,
,,,,,,,5f75d01a857e4e27a575f7ca,2023-08-16_10h45.31.395,HF_wild_card,2022.2.4,Win32,60.03842459,5f75d01a857e4e27a575f7ca,64d2fd46c836a06233681665,64dc9aa38682881db2306bcb,,,,,,,,,,,,,,,,,,,,,,,,,,,,,,,,,,,,,,,,,,,,,,,,,,,,,,,,,,,,,,,,
,,,,,,,5f75d01a857e4e27a575f7ca,2023-08-16_10h45.31.395,HF_wild_card,2022.2.4,Win32,60.03842459,5f75d01a857e4e27a575f7ca,64d2fd46c836a06233681665,64dc9aa38682881db2306bcb,,,,,,,ctch,resources/DY.BMP,resources/DR.BMP,Door2,-0.322222215,-0.009259259,1,0,0,2.9948,optionLeft,40,40,1,0,0,0,0,1,,,,,,,,,,,,,,,,,,,,,,,,,,,,,,,,,,,,,,,
,,,,,,,5f75d01a857e4e27a575f7ca,2023-08-16_10h45.31.395,HF_wild_card,2022.2.4,Win32,60.03842459,5f75d01a857e4e27a575f7ca,64d2fd46c836a06233681665,64dc9aa38682881db2306bcb,,,,,,,decisionTrl,resources/DG.BMP,resources/DR.BMP,Door3,0.351851852,0.001851859,1,0,0,1.177,optionRight,70,110,1,1,0,1,0,1,,,,,,,,,,,,,,,,,,,,,,,,,,,,,,,,,,,,,,,
,,,,,,,5f75d01a857e4e27a575f7ca,2023-08-16_10h45.31.395,HF_wild_card,2022.2.4,Win32,60.03842459,5f75d01a857e4e27a575f7ca,64d2fd46c836a06233681665,64dc9aa38682881db2306bcb,,,,,,,sngl,resources/Empty.png,resources/DY.BMP,Door2,0.411111196,0.01944443,1,0,0,1.5479,optionRight,20,130,1,2,0,2,0,1,,,,,,,,,,,,,,,,,,,,,,,,,,,,,,,,,,,,,,,
,,,,,,,5f75d01a857e4e27a575f7ca,2023-08-16_10h45.31.395,HF_wild_card,2022.2.4,Win32,60.03842459,5f75d01a857e4e27a575f7ca,64d2fd46c836a06233681665,64dc9aa38682881db2306bcb,,,,,,,sngl,resources/Empty.png,resources/DR.BMP,Door3,0.373148176,-0.032407407,1,0,0,0.8972,optionRight,70,200,1,3,0,3,0,1,,,,,,,,,,,,,,,,,,,,,,,,,,,,,,,,,,,,,,,
,,,,,,,5f75d01a857e4e27a575f7ca,2023-08-16_10h45.31.395,HF_wild_card,2022.2.4,Win32,60.03842459,5f75d01a857e4e27a575f7ca,64d2fd46c836a06233681665,64dc9aa38682881db2306bcb,,,,,,,sngl,resources/Empty.png,resources/DG.BMP,Door4,0.409259231,-0.005555577,1,0,0,0.9144,optionRight,60,260,1,4,0,4,0,1,,,,,,,,,,,,,,,,,,,,,,,,,,,,,,,,,,,,,,,
,,,,,,,5f75d01a857e4e27a575f7ca,2023-08-16_10h45.31.395,HF_wild_card,2022.2.4,Win32,60.03842459,5f75d01a857e4e27a575f7ca,64d2fd46c836a06233681665,64dc9aa38682881db2306bcb,,,,,,,decisionTrl,resources/DR.BMP,resources/DG.BMP,Door3,-0.41111109,-0.040740755,1,0,0,1.1451,optionLeft,70,330,1,5,0,5,0,1,,,,,,,,,,,,,,,,,,,,,,,,,,,,,,,,,,,,,,,
,,,,,,,5f75d01a857e4e27a575f7ca,2023-08-16_10h45.31.395,HF_wild_card,2022.2.4,Win32,60.03842459,5f75d01a857e4e27a575f7ca,64d2fd46c836a06233681665,64dc9aa38682881db2306bcb,,,,,,,sngl,resources/Empty.png,resources/DB.BMP,Door1,0.433333362,-0.024074095,1,0,0,0.9655,optionRight,30,360,1,6,0,6,0,1,,,,,,,,,,,,,,,,,,,,,,,,,,,,,,,,,,,,,,,
,,,,,,,5f75d01a857e4e27a575f7ca,2023-08-16_10h45.31.395,HF_wild_card,2022.2.4,Win32,60.03842459,5f75d01a857e4e27a575f7ca,64d2fd46c836a06233681665,64dc9aa38682881db2306bcb,,,,,,,sngl,resources/DP.BMP,resources/Empty.png,WildCard_Ex,-0.360185164,-0.014814836,1,0,0,0.9142,optionLeft,95,455,1,7,0,7,0,1,,,,,,,,,,,,,,,,,,,,,,,,,,,,,,,,,,,,,,,
,,,,,,,5f75d01a857e4e27a575f7ca,2023-08-16_10h45.31.395,HF_wild_card,2022.2.4,Win32,60.03842459,5f75d01a857e4e27a575f7ca,64d2fd46c836a06233681665,64dc9aa38682881db2306bcb,,,,,,,ctch,resources/DR.BMP,resources/DY.BMP,Door3,-0.412037037,-0.027777778,1,0,0,1.7624,optionLeft,70,525,1,8,0,8,0,1,,,,,,,,,,,,,,,,,,,,,,,,,,,,,,,,,,,,,,,
,,,,,,,5f75d01a857e4e27a575f7ca,2023-08-16_10h45.31.395,HF_wild_card,2022.2.4,Win32,60.03842459,5f75d01a857e4e27a575f7ca,64d2fd46c836a06233681665,64dc9aa38682881db2306bcb,,,,,,,ctch,resources/DY.BMP,resources/DR.BMP,Door2,-0.393518519,-0.028703725,1,0,0,0.747,optionLeft,40,565,1,9,0,9,0,1,,,,,,,,,,,,,,,,,,,,,,,,,,,,,,,,,,,,,,,
,,,,,,,5f75d01a857e4e27a575f7ca,2023-08-16_10h45.31.395,HF_wild_card,2022.2.4,Win32,60.03842459,5f75d01a857e4e27a575f7ca,64d2fd46c836a06233681665,64dc9aa38682881db2306bcb,,,,,,,decisionTrl,resources/DB.BMP,resources/DY.BMP,Door1,-0.350925905,-0.028703725,1,0,0,1.9132,optionLeft,30,595,1,10,0,10,0,1,,,,,,,,,,,,,,,,,,,,,,,,,,,,,,,,,,,,,,,
,,,,,,,5f75d01a857e4e27a575f7ca,2023-08-16_10h45.31.395,HF_wild_card,2022.2.4,Win32,60.03842459,5f75d01a857e4e27a575f7ca,64d2fd46c836a06233681665,64dc9aa38682881db2306bcb,,,,,,,decisionTrl,resources/DG.BMP,resources/DP.BMP,WildCard_Ex,0.356481481,-0.032407407,1,0,0,1.5632,optionRight,5,600,1,11,0,11,0,1,,,,,,,,,,,,,,,,,,,,,,,,,,,,,,,,,,,,,,,
,,,,,,,5f75d01a857e4e27a575f7ca,2023-08-16_10h45.31.395,HF_wild_card,2022.2.4,Win32,60.03842459,5f75d01a857e4e27a575f7ca,64d2fd46c836a06233681665,64dc9aa38682881db2306bcb,,,,,,,sngl,resources/Empty.png,resources/DP.BMP,WildCard_Ex,0.428703732,-0.036111125,1,0,0,0.6328,optionRight,95,695,1,12,0,12,0,1,,,,,,,,,,,,,,,,,,,,,,,,,,,,,,,,,,,,,,,
,,,,,,,5f75d01a857e4e27a575f7ca,2023-08-16_10h45.31.395,HF_wild_card,2022.2.4,Win32,60.03842459,5f75d01a857e4e27a575f7ca,64d2fd46c836a06233681665,64dc9aa38682881db2306bcb,,,,,,,sngl,resources/DY.BMP,resources/Empty.png,Door2,-0.256481453,-0.012962977,1,0,0,0.6842,optionLeft,40,735,1,13,0,13,0,1,,,,,,,,,,,,,,,,,,,,,,,,,,,,,,,,,,,,,,,
,,,,,,,5f75d01a857e4e27a575f7ca,2023-08-16_10h45.31.395,HF_wild_card,2022.2.4,Win32,60.03842459,5f75d01a857e4e27a575f7ca,64d2fd46c836a06233681665,64dc9aa38682881db2306bcb,,,,,,,decisionTrl,resources/DR.BMP,resources/DG.BMP,Door3,-0.383333312,0.000925912,1,0,0,0.8134,optionLeft,70,805,1,14,0,14,0,1,,,,,,,,,,,,,,,,,,,,,,,,,,,,,,,,,,,,,,,
,,,,,,,5f75d01a857e4e27a575f7ca,2023-08-16_10h45.31.395,HF_wild_card,2022.2.4,Win32,60.03842459,5f75d01a857e4e27a575f7ca,64d2fd46c836a06233681665,64dc9aa38682881db2306bcb,,,,,,,sngl,resources/DP.BMP,resources/Empty.png,WildCard_Ex,-0.363888882,-0.01666666,1,0,0,0.8465,optionLeft,5,810,1,15,0,15,0,1,,,,,,,,,,,,,,,,,,,,,,,,,,,,,,,,,,,,,,,
,,,,,,,5f75d01a857e4e27a575f7ca,2023-08-16_10h45.31.395,HF_wild_card,2022.2.4,Win32,60.03842459,5f75d01a857e4e27a575f7ca,64d2fd46c836a06233681665,64dc9aa38682881db2306bcb,,,,,,,sngl,resources/DR.BMP,resources/Empty.png,Door3,-0.446296303,0.01944443,1,0,0,0.6465,optionLeft,70,880,1,16,0,16,0,1,,,,,,,,,,,,,,,,,,,,,,,,,,,,,,,,,,,,,,,
,,,,,,,5f75d01a857e4e27a575f7ca,2023-08-16_10h45.31.395,HF_wild_card,2022.2.4,Win32,60.03842459,5f75d01a857e4e27a575f7ca,64d2fd46c836a06233681665,64dc9aa38682881db2306bcb,,,,,,,decisionTrl,resources/DR.BMP,resources/DP.BMP,Door3,-0.418518526,-0.003703718,1,0,0,0.849,optionLeft,70,950,1,17,0,17,0,1,,,,,,,,,,,,,,,,,,,,,,,,,,,,,,,,,,,,,,,
,,,,,,,5f75d01a857e4e27a575f7ca,2023-08-16_10h45.31.395,HF_wild_card,2022.2.4,Win32,60.03842459,5f75d01a857e4e27a575f7ca,64d2fd46c836a06233681665,64dc9aa38682881db2306bcb,,,,,,,decisionTrl,resources/DY.BMP,resources/DP.BMP,WildCard_Ex,0.409259231,-0.006481489,1,0,0,0.7147,optionRight,5,955,1,18,0,18,0,1,,,,,,,,,,,,,,,,,,,,,,,,,,,,,,,,,,,,,,,
,,,,,,,5f75d01a857e4e27a575f7ca,2023-08-16_10h45.31.395,HF_wild_card,2022.2.4,Win32,60.03842459,5f75d01a857e4e27a575f7ca,64d2fd46c836a06233681665,64dc9aa38682881db2306bcb,,,,,,,decisionTrl,resources/DG.BMP,resources/DR.BMP,Door3,0.337037122,0,1,0,0,0.8798,optionRight,70,1025,1,19,0,19,0,1,,,,,,,,,,,,,,,,,,,,,,,,,,,,,,,,,,,,,,,
,,,,,,,5f75d01a857e4e27a575f7ca,2023-08-16_10h45.31.395,HF_wild_card,2022.2.4,Win32,60.03842459,5f75d01a857e4e27a575f7ca,64d2fd46c836a06233681665,64dc9aa38682881db2306bcb,,,,,,,decisionTrl,resources/DY.BMP,resources/DB.BMP,Door2,-0.295370384,-0.032407407,1,0,0,1.5325,optionLeft,20,1045,1,20,0,20,0,1,,,,,,,,,,,,,,,,,,,,,,,,,,,,,,,,,,,,,,,
,,,,,,,5f75d01a857e4e27a575f7ca,2023-08-16_10h45.31.395,HF_wild_card,2022.2.4,Win32,60.03842459,5f75d01a857e4e27a575f7ca,64d2fd46c836a06233681665,64dc9aa38682881db2306bcb,,,,,,,decisionTrl,resources/DY.BMP,resources/DB.BMP,Door1,0.352777834,0.018518519,1,0,0,0.6963,optionRight,30,1075,1,21,0,21,0,1,,,,,,,,,,,,,,,,,,,,,,,,,,,,,,,,,,,,,,,
,,,,,,,5f75d01a857e4e27a575f7ca,2023-08-16_10h45.31.395,HF_wild_card,2022.2.4,Win32,60.03842459,5f75d01a857e4e27a575f7ca,64d2fd46c836a06233681665,64dc9aa38682881db2306bcb,,,,,,,decisionTrl,resources/DG.BMP,resources/DR.BMP,Door3,0.452777863,-0.022222236,1,0,0,0.7953,optionRight,70,1145,1,22,0,22,0,1,,,,,,,,,,,,,,,,,,,,,,,,,,,,,,,,,,,,,,,
,,,,,,,5f75d01a857e4e27a575f7ca,2023-08-16_10h45.31.395,HF_wild_card,2022.2.4,Win32,60.03842459,5f75d01a857e4e27a575f7ca,64d2fd46c836a06233681665,64dc9aa38682881db2306bcb,,,,,,,decisionTrl,resources/DB.BMP,resources/DP.BMP,WildCard_Ex,0.295370384,-0.017592607,1,0,0,1.6286,optionRight,95,1240,1,23,0,23,0,1,,,,,,,,,,,,,,,,,,,,,,,,,,,,,,,,,,,,,,,
,,,,,,,5f75d01a857e4e27a575f7ca,2023-08-16_10h45.31.395,HF_wild_card,2022.2.4,Win32,60.03842459,5f75d01a857e4e27a575f7ca,64d2fd46c836a06233681665,64dc9aa38682881db2306bcb,,,,,,,decisionTrl,resources/DP.BMP,resources/DG.BMP,WildCard_Ex,-0.376851859,-0.009259259,1,0,0,1.5308,optionLeft,5,1245,1,24,0,24,0,1,,,,,,,,,,,,,,,,,,,,,,,,,,,,,,,,,,,,,,,
,,,,,,,5f75d01a857e4e27a575f7ca,2023-08-16_10h45.31.395,HF_wild_card,2022.2.4,Win32,60.03842459,5f75d01a857e4e27a575f7ca,64d2fd46c836a06233681665,64dc9aa38682881db2306bcb,,,,,,,ctch,resources/DB.BMP,resources/DG.BMP,Door1,-0.359259252,-0.023148148,1,0,0,0.9642,optionLeft,30,1275,1,25,0,25,0,1,,,,,,,,,,,,,,,,,,,,,,,,,,,,,,,,,,,,,,,
,,,,,,,5f75d01a857e4e27a575f7ca,2023-08-16_10h45.31.395,HF_wild_card,2022.2.4,Win32,60.03842459,5f75d01a857e4e27a575f7ca,64d2fd46c836a06233681665,64dc9aa38682881db2306bcb,,,,,,,ctch,resources/DB.BMP,resources/DG.BMP,Door1,-0.342592593,-0.013888889,1,0,0,0.8151,optionLeft,30,1305,1,26,0,26,0,1,,,,,,,,,,,,,,,,,,,,,,,,,,,,,,,,,,,,,,,
,,,,,,,5f75d01a857e4e27a575f7ca,2023-08-16_10h45.31.395,HF_wild_card,2022.2.4,Win32,60.03842459,5f75d01a857e4e27a575f7ca,64d2fd46c836a06233681665,64dc9aa38682881db2306bcb,,,,,,,ctch,resources/DR.BMP,resources/DY.BMP,Door3,-0.309259238,-0.025000007,1,0,0,1.1265,optionLeft,70,1375,1,27,0,27,0,1,,,,,,,,,,,,,,,,,,,,,,,,,,,,,,,,,,,,,,,
,,,,,,,5f75d01a857e4e27a575f7ca,2023-08-16_10h45.31.395,HF_wild_card,2022.2.4,Win32,60.03842459,5f75d01a857e4e27a575f7ca,64d2fd46c836a06233681665,64dc9aa38682881db2306bcb,,,,,,,sngl,resources/DG.BMP,resources/Empty.png,Door4,-0.340740734,-0.022222236,1,0,0,0.7805,optionLeft,80,1455,1,28,0,28,0,1,,,,,,,,,,,,,,,,,,,,,,,,,,,,,,,,,,,,,,,
,,,,,,,5f75d01a857e4e27a575f7ca,2023-08-16_10h45.31.395,HF_wild_card,2022.2.4,Win32,60.03842459,5f75d01a857e4e27a575f7ca,64d2fd46c836a06233681665,64dc9aa38682881db2306bcb,,,,,,,decisionTrl,resources/DB.BMP,resources/DY.BMP,Door1,-0.414814808,-0.043518526,1,0,0,1.9311,optionLeft,30,1485,1,29,0,29,0,1,,,,,,,,,,,,,,,,,,,,,,,,,,,,,,,,,,,,,,,
,,,,,,,5f75d01a857e4e27a575f7ca,2023-08-16_10h45.31.395,HF_wild_card,2022.2.4,Win32,60.03842459,5f75d01a857e4e27a575f7ca,64d2fd46c836a06233681665,64dc9aa38682881db2306bcb,,,,,,,decisionTrl,resources/DY.BMP,resources/DB.BMP,Door2,-0.303703697,-0.010185206,1,0,0,0.6842,optionLeft,40,1525,1,30,0,30,0,1,,,,,,,,,,,,,,,,,,,,,,,,,,,,,,,,,,,,,,,
,,,,,,,5f75d01a857e4e27a575f7ca,2023-08-16_10h45.31.395,HF_wild_card,2022.2.4,Win32,60.03842459,5f75d01a857e4e27a575f7ca,64d2fd46c836a06233681665,64dc9aa38682881db2306bcb,,,,,,,decisionTrl,resources/DB.BMP,resources/DY.BMP,Door2,0.402777778,0,1,0,0,0.6127,optionRight,20,1545,1,31,0,31,0,1,,,,,,,,,,,,,,,,,,,,,,,,,,,,,,,,,,,,,,,
,,,,,,,5f75d01a857e4e27a575f7ca,2023-08-16_10h45.31.395,HF_wild_card,2022.2.4,Win32,60.03842459,5f75d01a857e4e27a575f7ca,64d2fd46c836a06233681665,64dc9aa38682881db2306bcb,,,,,,,decisionTrl,resources/DG.BMP,resources/DR.BMP,Door3,0.409259231,-0.011111118,1,0,0,1.0808,optionRight,70,1615,1,32,0,32,0,1,,,,,,,,,,,,,,,,,,,,,,,,,,,,,,,,,,,,,,,
,,,,,,,5f75d01a857e4e27a575f7ca,2023-08-16_10h45.31.395,HF_wild_card,2022.2.4,Win32,60.03842459,5f75d01a857e4e27a575f7ca,64d2fd46c836a06233681665,64dc9aa38682881db2306bcb,,,,,,,decisionTrl,resources/DP.BMP,resources/DB.BMP,WildCard_Ex,-0.37962963,-0.018518519,1,0,0,1.1473,optionLeft,5,1620,1,33,0,33,0,1,,,,,,,,,,,,,,,,,,,,,,,,,,,,,,,,,,,,,,,
,,,,,,,5f75d01a857e4e27a575f7ca,2023-08-16_10h45.31.395,HF_wild_card,2022.2.4,Win32,60.03842459,5f75d01a857e4e27a575f7ca,64d2fd46c836a06233681665,64dc9aa38682881db2306bcb,,,,,,,ctch,resources/DG.BMP,resources/DB.BMP,Door1,0.367592564,-0.022222236,1,0,0,0.7807,optionRight,30,1650,1,34,0,34,0,1,,,,,,,,,,,,,,,,,,,,,,,,,,,,,,,,,,,,,,,
,,,,,,,5f75d01a857e4e27a575f7ca,2023-08-16_10h45.31.395,HF_wild_card,2022.2.4,Win32,60.03842459,5f75d01a857e4e27a575f7ca,64d2fd46c836a06233681665,64dc9aa38682881db2306bcb,,,,,,,decisionTrl,resources/DY.BMP,resources/DB.BMP,Door2,-0.264814801,-0.035185178,1,0,0,1.8005,optionLeft,40,1690,1,35,0,35,0,1,,,,,,,,,,,,,,,,,,,,,,,,,,,,,,,,,,,,,,,
,,,,,,,5f75d01a857e4e27a575f7ca,2023-08-16_10h45.31.395,HF_wild_card,2022.2.4,Win32,60.03842459,5f75d01a857e4e27a575f7ca,64d2fd46c836a06233681665,64dc9aa38682881db2306bcb,,,,,,,decisionTrl,resources/DP.BMP,resources/DR.BMP,Door3,0.332407492,-0.035185178,1,0,0,0.8147,optionRight,70,1760,1,36,0,36,0,1,,,,,,,,,,,,,,,,,,,,,,,,,,,,,,,,,,,,,,,
,,,,,,,5f75d01a857e4e27a575f7ca,2023-08-16_10h45.31.395,HF_wild_card,2022.2.4,Win32,60.03842459,5f75d01a857e4e27a575f7ca,64d2fd46c836a06233681665,64dc9aa38682881db2306bcb,,,,,,,decisionTrl,resources/DP.BMP,resources/DY.BMP,WildCard_Ex,-0.337962963,-0.050000014,1,0,0,2.6787,optionLeft,5,1765,1,37,0,37,0,1,,,,,,,,,,,,,,,,,,,,,,,,,,,,,,,,,,,,,,,
,,,,,,,5f75d01a857e4e27a575f7ca,2023-08-16_10h45.31.395,HF_wild_card,2022.2.4,Win32,60.03842459,5f75d01a857e4e27a575f7ca,64d2fd46c836a06233681665,64dc9aa38682881db2306bcb,,,,,,,decisionTrl,resources/DR.BMP,resources/DG.BMP,Door3,-0.430555556,-0.031481496,1,0,0,0.7971,optionLeft,70,1835,1,38,0,38,0,1,,,,,,,,,,,,,,,,,,,,,,,,,,,,,,,,,,,,,,,
,,,,,,,5f75d01a857e4e27a575f7ca,2023-08-16_10h45.31.395,HF_wild_card,2022.2.4,Win32,60.03842459,5f75d01a857e4e27a575f7ca,64d2fd46c836a06233681665,64dc9aa38682881db2306bcb,,,,,,,decisionTrl,resources/DR.BMP,resources/DG.BMP,Door3,-0.375925912,-0.010185206,1,0,0,0.6988,optionLeft,70,1905,1,39,0,39,0,1,,,,,,,,,,,,,,,,,,,,,,,,,,,,,,,,,,,,,,,
,,,,,,,5f75d01a857e4e27a575f7ca,2023-08-16_10h45.31.395,HF_wild_card,2022.2.4,Win32,60.03842459,5f75d01a857e4e27a575f7ca,64d2fd46c836a06233681665,64dc9aa38682881db2306bcb,,,,,,,sngl,resources/Empty.png,resources/DP.BMP,WildCard_Ex,0.41851849,-0.003703718,1,0,0,0.7977,optionRight,5,1910,1,40,0,40,0,1,,,,,,,,,,,,,,,,,,,,,,,,,,,,,,,,,,,,,,,
,,,,,,,5f75d01a857e4e27a575f7ca,2023-08-16_10h45.31.395,HF_wild_card,2022.2.4,Win32,60.03842459,5f75d01a857e4e27a575f7ca,64d2fd46c836a06233681665,64dc9aa38682881db2306bcb,,,,,,,decisionTrl,resources/DB.BMP,resources/DY.BMP,Door2,0.398148148,-0.012962977,1,0,0,1.7814,optionRight,20,1930,1,41,0,41,0,1,,,,,,,,,,,,,,,,,,,,,,,,,,,,,,,,,,,,,,,
,,,,,,,5f75d01a857e4e27a575f7ca,2023-08-16_10h45.31.395,HF_wild_card,2022.2.4,Win32,60.03842459,5f75d01a857e4e27a575f7ca,64d2fd46c836a06233681665,64dc9aa38682881db2306bcb,,,,,,,sngl,resources/DB.BMP,resources/Empty.png,Door1,-0.304629608,-0.005555577,1,0,0,0.581,optionLeft,30,1960,1,42,0,42,0,1,,,,,,,,,,,,,,,,,,,,,,,,,,,,,,,,,,,,,,,
,,,,,,,5f75d01a857e4e27a575f7ca,2023-08-16_10h45.31.395,HF_wild_card,2022.2.4,Win32,60.03842459,5f75d01a857e4e27a575f7ca,64d2fd46c836a06233681665,64dc9aa38682881db2306bcb,,,,,,,ctch,resources/DG.BMP,resources/DB.BMP,Door1,0.361111111,0.035185178,1,0,0,0.7484,optionRight,30,1990,1,43,0,43,0,1,,,,,,,,,,,,,,,,,,,,,,,,,,,,,,,,,,,,,,,
,,,,,,,5f75d01a857e4e27a575f7ca,2023-08-16_10h45.31.395,HF_wild_card,2022.2.4,Win32,60.03842459,5f75d01a857e4e27a575f7ca,64d2fd46c836a06233681665,64dc9aa38682881db2306bcb,,,,,,,,,,,,,,,,,,,,,,,,,,0,0,0,0,1,,,,,,,,,,,,,,,,,,,,,,,,,,,,,,,,,,
,,,,,,,5f75d01a857e4e27a575f7ca,2023-08-16_10h45.31.395,HF_wild_card,2022.2.4,Win32,60.03842459,5f75d01a857e4e27a575f7ca,64d2fd46c836a06233681665,64dc9aa38682881db2306bcb,,,,,,,sngl,resources/DB.BMP,resources/Empty.png,Door1,-0.368518511,-0.034259266,1,0,0,0.742,optionLeft,30,2020,2,0,0,0,0,1,,,,,,,,,,,,,,,,,,,,,,,,,,,,,,,,,,,,,,,
,,,,,,,5f75d01a857e4e27a575f7ca,2023-08-16_10h45.31.395,HF_wild_card,2022.2.4,Win32,60.03842459,5f75d01a857e4e27a575f7ca,64d2fd46c836a06233681665,64dc9aa38682881db2306bcb,,,,,,,decisionTrl,resources/DB.BMP,resources/DY.BMP,Door1,-0.348148134,-0.0074074,1,0,0,1.0414,optionLeft,30,2050,2,1,0,1,0,1,,,,,,,,,,,,,,,,,,,,,,,,,,,,,,,,,,,,,,,
,,,,,,,5f75d01a857e4e27a575f7ca,2023-08-16_10h45.31.395,HF_wild_card,2022.2.4,Win32,60.03842459,5f75d01a857e4e27a575f7ca,64d2fd46c836a06233681665,64dc9aa38682881db2306bcb,,,,,,,ctch,resources/DB.BMP,resources/DG.BMP,Door1,-0.309259238,0.002777771,1,0,0,0.5169,optionLeft,30,2080,2,2,0,2,0,1,,,,,,,,,,,,,,,,,,,,,,,,,,,,,,,,,,,,,,,
,,,,,,,5f75d01a857e4e27a575f7ca,2023-08-16_10h45.31.395,HF_wild_card,2022.2.4,Win32,60.03842459,5f75d01a857e4e27a575f7ca,64d2fd46c836a06233681665,64dc9aa38682881db2306bcb,,,,,,,decisionTrl,resources/DP.BMP,resources/DR.BMP,Door3,0.589814787,-0.013888889,1,0,0,1.014,optionRight,70,2150,2,3,0,3,0,1,,,,,,,,,,,,,,,,,,,,,,,,,,,,,,,,,,,,,,,
,,,,,,,5f75d01a857e4e27a575f7ca,2023-08-16_10h45.31.395,HF_wild_card,2022.2.4,Win32,60.03842459,5f75d01a857e4e27a575f7ca,64d2fd46c836a06233681665,64dc9aa38682881db2306bcb,,,,,,,decisionTrl,resources/DY.BMP,resources/DB.BMP,Door1,0.375,-0.039814808,1,0,0,1.097,optionRight,30,2180,2,4,0,4,0,1,,,,,,,,,,,,,,,,,,,,,,,,,,,,,,,,,,,,,,,
,,,,,,,5f75d01a857e4e27a575f7ca,2023-08-16_10h45.31.395,HF_wild_card,2022.2.4,Win32,60.03842459,5f75d01a857e4e27a575f7ca,64d2fd46c836a06233681665,64dc9aa38682881db2306bcb,,,,,,,decisionTrl,resources/DP.BMP,resources/DB.BMP,Door1,0.37037037,-0.012962977,1,0,0,1.0806,optionRight,30,2210,2,5,0,5,0,1,,,,,,,,,,,,,,,,,,,,,,,,,,,,,,,,,,,,,,,
,,,,,,,5f75d01a857e4e27a575f7ca,2023-08-16_10h45.31.395,HF_wild_card,2022.2.4,Win32,60.03842459,5f75d01a857e4e27a575f7ca,64d2fd46c836a06233681665,64dc9aa38682881db2306bcb,,,,,,,sngl,resources/DR.BMP,resources/Empty.png,Door3,-0.227777764,-0.002777771,1,0,0,0.5967,optionLeft,70,2280,2,6,0,6,0,1,,,,,,,,,,,,,,,,,,,,,,,,,,,,,,,,,,,,,,,
,,,,,,,5f75d01a857e4e27a575f7ca,2023-08-16_10h45.31.395,HF_wild_card,2022.2.4,Win32,60.03842459,5f75d01a857e4e27a575f7ca,64d2fd46c836a06233681665,64dc9aa38682881db2306bcb,,,,,,,sngl,resources/Empty.png,resources/DR.BMP,Door3,0.440740797,0.01203703,1,0,0,0.5479,optionRight,70,2350,2,7,0,7,0,1,,,,,,,,,,,,,,,,,,,,,,,,,,,,,,,,,,,,,,,
,,,,,,,5f75d01a857e4e27a575f7ca,2023-08-16_10h45.31.395,HF_wild_card,2022.2.4,Win32,60.03842459,5f75d01a857e4e27a575f7ca,64d2fd46c836a06233681665,64dc9aa38682881db2306bcb,,,,,,,sngl,resources/DG.BMP,resources/Empty.png,Door4,-0.235185199,0.0074074,1,0,0,0.6176,optionLeft,60,2410,2,8,0,8,0,1,,,,,,,,,,,,,,,,,,,,,,,,,,,,,,,,,,,,,,,
,,,,,,,5f75d01a857e4e27a575f7ca,2023-08-16_10h45.31.395,HF_wild_card,2022.2.4,Win32,60.03842459,5f75d01a857e4e27a575f7ca,64d2fd46c836a06233681665,64dc9aa38682881db2306bcb,,,,,,,decisionTrl,resources/DY.BMP,resources/DB.BMP,Door1,0.349074046,-0.019444466,1,0,0,1.0145,optionRight,30,2440,2,9,0,9,0,1,,,,,,,,,,,,,,,,,,,,,,,,,,,,,,,,,,,,,,,
,,,,,,,5f75d01a857e4e27a575f7ca,2023-08-16_10h45.31.395,HF_wild_card,2022.2.4,Win32,60.03842459,5f75d01a857e4e27a575f7ca,64d2fd46c836a06233681665,64dc9aa38682881db2306bcb,,,,,,,sngl,resources/Empty.png,resources/DP.BMP,WildCard_Ex,0.445370427,-0.032407407,1,0,0,0.6817,optionRight,5,2445,2,10,0,10,0,1,,,,,,,,,,,,,,,,,,,,,,,,,,,,,,,,,,,,,,,
,,,,,,,5f75d01a857e4e27a575f7ca,2023-08-16_10h45.31.395,HF_wild_card,2022.2.4,Win32,60.03842459,5f75d01a857e4e27a575f7ca,64d2fd46c836a06233681665,64dc9aa38682881db2306bcb,,,,,,,ctch,resources/DG.BMP,resources/DB.BMP,Door1,0.328703704,-0.011111118,1,0,0,0.847,optionRight,30,2475,2,11,0,11,0,1,,,,,,,,,,,,,,,,,,,,,,,,,,,,,,,,,,,,,,,
,,,,,,,5f75d01a857e4e27a575f7ca,2023-08-16_10h45.31.395,HF_wild_card,2022.2.4,Win32,60.03842459,5f75d01a857e4e27a575f7ca,64d2fd46c836a06233681665,64dc9aa38682881db2306bcb,,,,,,,ctch,resources/DR.BMP,resources/DY.BMP,Door3,-0.314814815,0.003703683,1,0,0,0.8136,optionLeft,70,2545,2,12,0,12,0,1,,,,,,,,,,,,,,,,,,,,,,,,,,,,,,,,,,,,,,,
,,,,,,,5f75d01a857e4e27a575f7ca,2023-08-16_10h45.31.395,HF_wild_card,2022.2.4,Win32,60.03842459,5f75d01a857e4e27a575f7ca,64d2fd46c836a06233681665,64dc9aa38682881db2306bcb,,,,,,,ctch,resources/DY.BMP,resources/DR.BMP,Door3,0.349074046,0.003703683,1,0,0,0.8819,optionRight,70,2615,2,13,0,13,0,1,,,,,,,,,,,,,,,,,,,,,,,,,,,,,,,,,,,,,,,
,,,,,,,5f75d01a857e4e27a575f7ca,2023-08-16_10h45.31.395,HF_wild_card,2022.2.4,Win32,60.03842459,5f75d01a857e4e27a575f7ca,64d2fd46c836a06233681665,64dc9aa38682881db2306bcb,,,,,,,decisionTrl,resources/DR.BMP,resources/DG.BMP,Door3,-0.365740741,-0.01666666,1,0,0,0.7513,optionLeft,70,2685,2,14,0,14,0,1,,,,,,,,,,,,,,,,,,,,,,,,,,,,,,,,,,,,,,,
,,,,,,,5f75d01a857e4e27a575f7ca,2023-08-16_10h45.31.395,HF_wild_card,2022.2.4,Win32,60.03842459,5f75d01a857e4e27a575f7ca,64d2fd46c836a06233681665,64dc9aa38682881db2306bcb,,,,,,,sngl,resources/Empty.png,resources/DB.BMP,Door1,0.310185185,0.003703683,1,0,0,0.6814,optionRight,30,2715,2,15,0,15,0,1,,,,,,,,,,,,,,,,,,,,,,,,,,,,,,,,,,,,,,,
,,,,,,,5f75d01a857e4e27a575f7ca,2023-08-16_10h45.31.395,HF_wild_card,2022.2.4,Win32,60.03842459,5f75d01a857e4e27a575f7ca,64d2fd46c836a06233681665,64dc9aa38682881db2306bcb,,,,,,,decisionTrl,resources/DR.BMP,resources/DG.BMP,Door3,-0.288888861,0.018518519,1,0,0,0.6338,optionLeft,70,2785,2,16,0,16,0,1,,,,,,,,,,,,,,,,,,,,,,,,,,,,,,,,,,,,,,,
,,,,,,,5f75d01a857e4e27a575f7ca,2023-08-16_10h45.31.395,HF_wild_card,2022.2.4,Win32,60.03842459,5f75d01a857e4e27a575f7ca,64d2fd46c836a06233681665,64dc9aa38682881db2306bcb,,,,,,,decisionTrl,resources/DP.BMP,resources/DG.BMP,WildCard_Ex,-0.437037044,-0.009259259,1,0,0,0.5459,optionLeft,5,2790,2,17,0,17,0,1,,,,,,,,,,,,,,,,,,,,,,,,,,,,,,,,,,,,,,,
,,,,,,,5f75d01a857e4e27a575f7ca,2023-08-16_10h45.31.395,HF_wild_card,2022.2.4,Win32,60.03842459,5f75d01a857e4e27a575f7ca,64d2fd46c836a06233681665,64dc9aa38682881db2306bcb,,,,,,,ctch,resources/DB.BMP,resources/DG.BMP,Door1,-0.287037037,-0.003703718,1,0,0,0.9487,optionLeft,30,2820,2,18,0,18,0,1,,,,,,,,,,,,,,,,,,,,,,,,,,,,,,,,,,,,,,,
,,,,,,,5f75d01a857e4e27a575f7ca,2023-08-16_10h45.31.395,HF_wild_card,2022.2.4,Win32,60.03842459,5f75d01a857e4e27a575f7ca,64d2fd46c836a06233681665,64dc9aa38682881db2306bcb,,,,,,,decisionTrl,resources/DB.BMP,resources/DP.BMP,WildCard_Ex,0.300000085,-0.006481489,1,0,0,1.0146,optionRight,5,2825,2,19,0,19,0,1,,,,,,,,,,,,,,,,,,,,,,,,,,,,,,,,,,,,,,,
,,,,,,,5f75d01a857e4e27a575f7ca,2023-08-16_10h45.31.395,HF_wild_card,2022.2.4,Win32,60.03842459,5f75d01a857e4e27a575f7ca,64d2fd46c836a06233681665,64dc9aa38682881db2306bcb,,,,,,,ctch,resources/DR.BMP,resources/DY.BMP,Door3,-0.281481496,-0.021296289,1,0,0,1.0468,optionLeft,70,2895,2,20,0,20,0,1,,,,,,,,,,,,,,,,,,,,,,,,,,,,,,,,,,,,,,,
,,,,,,,5f75d01a857e4e27a575f7ca,2023-08-16_10h45.31.395,HF_wild_card,2022.2.4,Win32,60.03842459,5f75d01a857e4e27a575f7ca,64d2fd46c836a06233681665,64dc9aa38682881db2306bcb,,,,,,,decisionTrl,resources/DB.BMP,resources/DY.BMP,Door1,-0.324074074,-0.00462963,1,0,0,0.9157,optionLeft,30,2925,2,21,0,21,0,1,,,,,,,,,,,,,,,,,,,,,,,,,,,,,,,,,,,,,,,
,,,,,,,5f75d01a857e4e27a575f7ca,2023-08-16_10h45.31.395,HF_wild_card,2022.2.4,Win32,60.03842459,5f75d01a857e4e27a575f7ca,64d2fd46c836a06233681665,64dc9aa38682881db2306bcb,,,,,,,decisionTrl,resources/DG.BMP,resources/DR.BMP,Door3,0.22592594,-0.020370377,1,0,0,0.682,optionRight,70,2995,2,22,0,22,0,1,,,,,,,,,,,,,,,,,,,,,,,,,,,,,,,,,,,,,,,
,,,,,,,5f75d01a857e4e27a575f7ca,2023-08-16_10h45.31.395,HF_wild_card,2022.2.4,Win32,60.03842459,5f75d01a857e4e27a575f7ca,64d2fd46c836a06233681665,64dc9aa38682881db2306bcb,,,,,,,decisionTrl,resources/DB.BMP,resources/DY.BMP,Door1,-0.326851845,-0.047222243,1,0,0,0.8505,optionLeft,30,3025,2,23,0,23,0,1,,,,,,,,,,,,,,,,,,,,,,,,,,,,,,,,,,,,,,,
,,,,,,,5f75d01a857e4e27a575f7ca,2023-08-16_10h45.31.395,HF_wild_card,2022.2.4,Win32,60.03842459,5f75d01a857e4e27a575f7ca,64d2fd46c836a06233681665,64dc9aa38682881db2306bcb,,,,,,,decisionTrl,resources/DY.BMP,resources/DP.BMP,Door2,-0.325925933,-0.017592607,1,0,0,0.5811,optionLeft,40,3065,2,24,0,24,0,1,,,,,,,,,,,,,,,,,,,,,,,,,,,,,,,,,,,,,,,
,,,,,,,5f75d01a857e4e27a575f7ca,2023-08-16_10h45.31.395,HF_wild_card,2022.2.4,Win32,60.03842459,5f75d01a857e4e27a575f7ca,64d2fd46c836a06233681665,64dc9aa38682881db2306bcb,,,,,,,decisionTrl,resources/DG.BMP,resources/DR.BMP,Door3,0.319444444,-0.00462963,1,0,0,0.7966,optionRight,70,3135,2,25,0,25,0,1,,,,,,,,,,,,,,,,,,,,,,,,,,,,,,,,,,,,,,,
,,,,,,,5f75d01a857e4e27a575f7ca,2023-08-16_10h45.31.395,HF_wild_card,2022.2.4,Win32,60.03842459,5f75d01a857e4e27a575f7ca,64d2fd46c836a06233681665,64dc9aa38682881db2306bcb,,,,,,,decisionTrl,resources/DR.BMP,resources/DP.BMP,Door3,-0.433333326,-0.029629637,1,0,0,0.7151,optionLeft,70,3205,2,26,0,26,0,1,,,,,,,,,,,,,,,,,,,,,,,,,,,,,,,,,,,,,,,
,,,,,,,5f75d01a857e4e27a575f7ca,2023-08-16_10h45.31.395,HF_wild_card,2022.2.4,Win32,60.03842459,5f75d01a857e4e27a575f7ca,64d2fd46c836a06233681665,64dc9aa38682881db2306bcb,,,,,,,decisionTrl,resources/DG.BMP,resources/DP.BMP,Door4,-0.393518519,-0.006481489,1,0,0,1.7467,optionLeft,80,3285,2,27,0,27,0,1,,,,,,,,,,,,,,,,,,,,,,,,,,,,,,,,,,,,,,,
,,,,,,,5f75d01a857e4e27a575f7ca,2023-08-16_10h45.31.395,HF_wild_card,2022.2.4,Win32,60.03842459,5f75d01a857e4e27a575f7ca,64d2fd46c836a06233681665,64dc9aa38682881db2306bcb,,,,,,,sngl,resources/Empty.png,resources/DY.BMP,Door2,0.303703732,-0.002777771,1,0,0,0.7135,optionRight,40,3325,2,28,0,28,0,1,,,,,,,,,,,,,,,,,,,,,,,,,,,,,,,,,,,,,,,
,,,,,,,5f75d01a857e4e27a575f7ca,2023-08-16_10h45.31.395,HF_wild_card,2022.2.4,Win32,60.03842459,5f75d01a857e4e27a575f7ca,64d2fd46c836a06233681665,64dc9aa38682881db2306bcb,,,,,,,sngl,resources/DY.BMP,resources/Empty.png,Door2,-0.341666645,-0.025925919,1,0,0,0.5139,optionLeft,20,3345,2,29,0,29,0,1,,,,,,,,,,,,,,,,,,,,,,,,,,,,,,,,,,,,,,,
,,,,,,,5f75d01a857e4e27a575f7ca,2023-08-16_10h45.31.395,HF_wild_card,2022.2.4,Win32,60.03842459,5f75d01a857e4e27a575f7ca,64d2fd46c836a06233681665,64dc9aa38682881db2306bcb,,,,,,,sngl,resources/Empty.png,resources/DP.BMP,WildCard_Ex,0.358333305,-0.039814808,1,0,0,0.7638,optionRight,95,3440,2,30,0,30,0,1,,,,,,,,,,,,,,,,,,,,,,,,,,,,,,,,,,,,,,,
,,,,,,,5f75d01a857e4e27a575f7ca,2023-08-16_10h45.31.395,HF_wild_card,2022.2.4,Win32,60.03842459,5f75d01a857e4e27a575f7ca,64d2fd46c836a06233681665,64dc9aa38682881db2306bcb,,,,,,,decisionTrl,resources/DG.BMP,resources/DR.BMP,Door3,0.348148205,-0.025925919,1,0,0,1.463,optionRight,70,3510,2,31,0,31,0,1,,,,,,,,,,,,,,,,,,,,,,,,,,,,,,,,,,,,,,,
,,,,,,,5f75d01a857e4e27a575f7ca,2023-08-16_10h45.31.395,HF_wild_card,2022.2.4,Win32,60.03842459,5f75d01a857e4e27a575f7ca,64d2fd46c836a06233681665,64dc9aa38682881db2306bcb,,,,,,,decisionTrl,resources/DP.BMP,resources/DY.BMP,Door2,0.356481481,-0.042592614,1,0,0,1.6145,optionRight,40,3550,2,32,0,32,0,1,,,,,,,,,,,,,,,,,,,,,,,,,,,,,,,,,,,,,,,
,,,,,,,5f75d01a857e4e27a575f7ca,2023-08-16_10h45.31.395,HF_wild_card,2022.2.4,Win32,60.03842459,5f75d01a857e4e27a575f7ca,64d2fd46c836a06233681665,64dc9aa38682881db2306bcb,,,,,,,sngl,resources/Empty.png,resources/DG.BMP,Door4,0.389814871,-0.013888889,1,0,0,0.5637,optionRight,80,3630,2,33,0,33,0,1,,,,,,,,,,,,,,,,,,,,,,,,,,,,,,,,,,,,,,,
,,,,,,,5f75d01a857e4e27a575f7ca,2023-08-16_10h45.31.395,HF_wild_card,2022.2.4,Win32,60.03842459,5f75d01a857e4e27a575f7ca,64d2fd46c836a06233681665,64dc9aa38682881db2306bcb,,,,,,,decisionTrl,resources/DG.BMP,resources/DR.BMP,Door3,0.339814787,0.013888889,1,0,0,0.834,optionRight,70,3700,2,34,0,34,0,1,,,,,,,,,,,,,,,,,,,,,,,,,,,,,,,,,,,,,,,
,,,,,,,5f75d01a857e4e27a575f7ca,2023-08-16_10h45.31.395,HF_wild_card,2022.2.4,Win32,60.03842459,5f75d01a857e4e27a575f7ca,64d2fd46c836a06233681665,64dc9aa38682881db2306bcb,,,,,,,decisionTrl,resources/DY.BMP,resources/DB.BMP,Door2,-0.258333347,0.003703683,1,0,0,1.431,optionLeft,40,3740,2,35,0,35,0,1,,,,,,,,,,,,,,,,,,,,,,,,,,,,,,,,,,,,,,,
,,,,,,,5f75d01a857e4e27a575f7ca,2023-08-16_10h45.31.395,HF_wild_card,2022.2.4,Win32,60.03842459,5f75d01a857e4e27a575f7ca,64d2fd46c836a06233681665,64dc9aa38682881db2306bcb,,,,,,,sngl,resources/DP.BMP,resources/Empty.png,WildCard_Ex,-0.325925933,0.0074074,1,0,0,0.6983,optionLeft,5,3745,2,36,0,36,0,1,,,,,,,,,,,,,,,,,,,,,,,,,,,,,,,,,,,,,,,
,,,,,,,5f75d01a857e4e27a575f7ca,2023-08-16_10h45.31.395,HF_wild_card,2022.2.4,Win32,60.03842459,5f75d01a857e4e27a575f7ca,64d2fd46c836a06233681665,64dc9aa38682881db2306bcb,,,,,,,ctch,resources/DG.BMP,resources/DB.BMP,Door4,-0.262036995,-0.009259259,1,0,0,1.2462,optionLeft,80,3825,2,37,0,37,0,1,,,,,,,,,,,,,,,,,,,,,,,,,,,,,,,,,,,,,,,
,,,,,,,5f75d01a857e4e27a575f7ca,2023-08-16_10h45.31.395,HF_wild_card,2022.2.4,Win32,60.03842459,5f75d01a857e4e27a575f7ca,64d2fd46c836a06233681665,64dc9aa38682881db2306bcb,,,,,,,decisionTrl,resources/DB.BMP,resources/DY.BMP,Door2,0.320370427,-0.005555577,1,0,0,1.1145,optionRight,40,3865,2,38,0,38,0,1,,,,,,,,,,,,,,,,,,,,,,,,,,,,,,,,,,,,,,,
,,,,,,,5f75d01a857e4e27a575f7ca,2023-08-16_10h45.31.395,HF_wild_card,2022.2.4,Win32,60.03842459,5f75d01a857e4e27a575f7ca,64d2fd46c836a06233681665,64dc9aa38682881db2306bcb,,,,,,,ctch,resources/DY.BMP,resources/DR.BMP,Door2,-0.25,0.00462963,1,0,0,0.616,optionLeft,20,3885,2,39,0,39,0,1,,,,,,,,,,,,,,,,,,,,,,,,,,,,,,,,,,,,,,,
,,,,,,,5f75d01a857e4e27a575f7ca,2023-08-16_10h45.31.395,HF_wild_card,2022.2.4,Win32,60.03842459,5f75d01a857e4e27a575f7ca,64d2fd46c836a06233681665,64dc9aa38682881db2306bcb,,,,,,,decisionTrl,resources/DR.BMP,resources/DG.BMP,Door3,-0.255555541,0.013888889,1,0,0,0.4839,optionLeft,70,3955,2,40,0,40,0,1,,,,,,,,,,,,,,,,,,,,,,,,,,,,,,,,,,,,,,,
,,,,,,,5f75d01a857e4e27a575f7ca,2023-08-16_10h45.31.395,HF_wild_card,2022.2.4,Win32,60.03842459,5f75d01a857e4e27a575f7ca,64d2fd46c836a06233681665,64dc9aa38682881db2306bcb,,,,,,,decisionTrl,resources/DR.BMP,resources/DG.BMP,Door3,-0.262036995,0.020370377,1,0,0,0.501,optionLeft,70,4025,2,41,0,41,0,1,,,,,,,,,,,,,,,,,,,,,,,,,,,,,,,,,,,,,,,
,,,,,,,5f75d01a857e4e27a575f7ca,2023-08-16_10h45.31.395,HF_wild_card,2022.2.4,Win32,60.03842459,5f75d01a857e4e27a575f7ca,64d2fd46c836a06233681665,64dc9aa38682881db2306bcb,,,,,,,sngl,resources/DP.BMP,resources/Empty.png,WildCard_Ex,-0.236111111,0.001851859,1,0,0,0.6985,optionLeft,95,4120,2,42,0,42,0,1,,,,,,,,,,,,,,,,,,,,,,,,,,,,,,,,,,,,,,,
,,,,,,,5f75d01a857e4e27a575f7ca,2023-08-16_10h45.31.395,HF_wild_card,2022.2.4,Win32,60.03842459,5f75d01a857e4e27a575f7ca,64d2fd46c836a06233681665,64dc9aa38682881db2306bcb,,,,,,,decisionTrl,resources/DY.BMP,resources/DB.BMP,Door2,-0.311111097,-0.013888889,1,0,0,1.1162,optionLeft,40,4160,2,43,0,43,0,1,,,,,,,,,,,,,,,,,,,,,,,,,,,,,,,,,,,,,,,
,,,,,,,5f75d01a857e4e27a575f7ca,2023-08-16_10h45.31.395,HF_wild_card,2022.2.4,Win32,60.03842459,5f75d01a857e4e27a575f7ca,64d2fd46c836a06233681665,64dc9aa38682881db2306bcb,,,,,,,,,,,,,,,,,,,,,,,,,,1,0,1,0,1,,,,,,,,,,,,,,,,,,,,,,,,,,,,,,,,,,
,,,,,,,5f75d01a857e4e27a575f7ca,2023-08-16_10h45.31.395,HF_wild_card,2022.2.4,Win32,60.03842459,5f75d01a857e4e27a575f7ca,64d2fd46c836a06233681665,64dc9aa38682881db2306bcb,,,,,,,ctch,resources/DG.BMP,resources/DB.BMP,Door4,-0.424999979,-0.008333347,1,0,0,1.0753,optionLeft,60,4220,3,0,0,0,0,1,,,,,,,,,,,,,,,,,,,,,,,,,,,,,,,,,,,,,,,
,,,,,,,5f75d01a857e4e27a575f7ca,2023-08-16_10h45.31.395,HF_wild_card,2022.2.4,Win32,60.03842459,5f75d01a857e4e27a575f7ca,64d2fd46c836a06233681665,64dc9aa38682881db2306bcb,,,,,,,decisionTrl,resources/DB.BMP,resources/DY.BMP,Door2,0.348148205,0.010185171,1,0,0,0.8137,optionRight,20,4240,3,1,0,1,0,1,,,,,,,,,,,,,,,,,,,,,,,,,,,,,,,,,,,,,,,
,,,,,,,5f75d01a857e4e27a575f7ca,2023-08-16_10h45.31.395,HF_wild_card,2022.2.4,Win32,60.03842459,5f75d01a857e4e27a575f7ca,64d2fd46c836a06233681665,64dc9aa38682881db2306bcb,,,,,,,ctch,resources/DG.BMP,resources/DB.BMP,Door4,-0.311111097,-0.0074074,1,0,0,0.6834,optionLeft,60,4300,3,2,0,2,0,1,,,,,,,,,,,,,,,,,,,,,,,,,,,,,,,,,,,,,,,
,,,,,,,5f75d01a857e4e27a575f7ca,2023-08-16_10h45.31.395,HF_wild_card,2022.2.4,Win32,60.03842459,5f75d01a857e4e27a575f7ca,64d2fd46c836a06233681665,64dc9aa38682881db2306bcb,,,,,,,decisionTrl,resources/DP.BMP,resources/DY.BMP,Door2,0.417592649,-0.017592607,1,0,0,1.0648,optionRight,40,4340,3,3,0,3,0,1,,,,,,,,,,,,,,,,,,,,,,,,,,,,,,,,,,,,,,,
,,,,,,,5f75d01a857e4e27a575f7ca,2023-08-16_10h45.31.395,HF_wild_card,2022.2.4,Win32,60.03842459,5f75d01a857e4e27a575f7ca,64d2fd46c836a06233681665,64dc9aa38682881db2306bcb,,,,,,,decisionTrl,resources/DP.BMP,resources/DB.BMP,WildCard_Ex,-0.328703704,-0.017592607,1,0,0,2.0659,optionLeft,5,4345,3,4,0,4,0,1,,,,,,,,,,,,,,,,,,,,,,,,,,,,,,,,,,,,,,,
,,,,,,,5f75d01a857e4e27a575f7ca,2023-08-16_10h45.31.395,HF_wild_card,2022.2.4,Win32,60.03842459,5f75d01a857e4e27a575f7ca,64d2fd46c836a06233681665,64dc9aa38682881db2306bcb,,,,,,,decisionTrl,resources/DG.BMP,resources/DP.BMP,Door4,-0.300925926,-0.008333347,1,0,0,0.898,optionLeft,80,4425,3,5,0,5,0,1,,,,,,,,,,,,,,,,,,,,,,,,,,,,,,,,,,,,,,,
,,,,,,,5f75d01a857e4e27a575f7ca,2023-08-16_10h45.31.395,HF_wild_card,2022.2.4,Win32,60.03842459,5f75d01a857e4e27a575f7ca,64d2fd46c836a06233681665,64dc9aa38682881db2306bcb,,,,,,,sngl,resources/Empty.png,resources/DG.BMP,Door4,0.402777778,0.008333312,1,0,0,0.6964,optionRight,60,4485,3,6,0,6,0,1,,,,,,,,,,,,,,,,,,,,,,,,,,,,,,,,,,,,,,,
,,,,,,,5f75d01a857e4e27a575f7ca,2023-08-16_10h45.31.395,HF_wild_card,2022.2.4,Win32,60.03842459,5f75d01a857e4e27a575f7ca,64d2fd46c836a06233681665,64dc9aa38682881db2306bcb,,,,,,,ctch,resources/DY.BMP,resources/DR.BMP,Door3,0.35555564,-0.021296289,1,0,0,1.1148,optionRight,70,4555,3,7,0,7,0,1,,,,,,,,,,,,,,,,,,,,,,,,,,,,,,,,,,,,,,,
,,,,,,,5f75d01a857e4e27a575f7ca,2023-08-16_10h45.31.395,HF_wild_card,2022.2.4,Win32,60.03842459,5f75d01a857e4e27a575f7ca,64d2fd46c836a06233681665,64dc9aa38682881db2306bcb,,,,,,,decisionTrl,resources/DP.BMP,resources/DG.BMP,Door4,0.348148205,-0.005555577,1,0,0,1.7015,optionRight,80,4635,3,8,0,8,0,1,,,,,,,,,,,,,,,,,,,,,,,,,,,,,,,,,,,,,,,
,,,,,,,5f75d01a857e4e27a575f7ca,2023-08-16_10h45.31.395,HF_wild_card,2022.2.4,Win32,60.03842459,5f75d01a857e4e27a575f7ca,64d2fd46c836a06233681665,64dc9aa38682881db2306bcb,,,,,,,sngl,resources/DB.BMP,resources/Empty.png,Door1,-0.27407406,0,1,0,0,0.8145,optionLeft,30,4665,3,9,0,9,0,1,,,,,,,,,,,,,,,,,,,,,,,,,,,,,,,,,,,,,,,
,,,,,,,5f75d01a857e4e27a575f7ca,2023-08-16_10h45.31.395,HF_wild_card,2022.2.4,Win32,60.03842459,5f75d01a857e4e27a575f7ca,64d2fd46c836a06233681665,64dc9aa38682881db2306bcb,,,,,,,decisionTrl,resources/DG.BMP,resources/DR.BMP,Door3,0.430555556,-0.002777771,1,0,0,0.8987,optionRight,70,4735,3,10,0,10,0,1,,,,,,,,,,,,,,,,,,,,,,,,,,,,,,,,,,,,,,,
,,,,,,,5f75d01a857e4e27a575f7ca,2023-08-16_10h45.31.395,HF_wild_card,2022.2.4,Win32,60.03842459,5f75d01a857e4e27a575f7ca,64d2fd46c836a06233681665,64dc9aa38682881db2306bcb,,,,,,,decisionTrl,resources/DG.BMP,resources/DR.BMP,Door4,-0.268518519,-0.018518519,1,0,0,0.7812,optionLeft,60,4795,3,11,0,11,0,1,,,,,,,,,,,,,,,,,,,,,,,,,,,,,,,,,,,,,,,
,,,,,,,5f75d01a857e4e27a575f7ca,2023-08-16_10h45.31.395,HF_wild_card,2022.2.4,Win32,60.03842459,5f75d01a857e4e27a575f7ca,64d2fd46c836a06233681665,64dc9aa38682881db2306bcb,,,,,,,decisionTrl,resources/DB.BMP,resources/DP.BMP,Door1,-0.262036995,-0.025925919,1,0,0,1.364,optionLeft,30,4825,3,12,0,12,0,1,,,,,,,,,,,,,,,,,,,,,,,,,,,,,,,,,,,,,,,
,,,,,,,5f75d01a857e4e27a575f7ca,2023-08-16_10h45.31.395,HF_wild_card,2022.2.4,Win32,60.03842459,5f75d01a857e4e27a575f7ca,64d2fd46c836a06233681665,64dc9aa38682881db2306bcb,,,,,,,decisionTrl,resources/DG.BMP,resources/DR.BMP,Door3,0.409259231,-0.013888889,1,0,0,0.9972,optionRight,70,4895,3,13,0,13,0,1,,,,,,,,,,,,,,,,,,,,,,,,,,,,,,,,,,,,,,,
,,,,,,,5f75d01a857e4e27a575f7ca,2023-08-16_10h45.31.395,HF_wild_card,2022.2.4,Win32,60.03842459,5f75d01a857e4e27a575f7ca,64d2fd46c836a06233681665,64dc9aa38682881db2306bcb,,,,,,,decisionTrl,resources/DY.BMP,resources/DB.BMP,Door2,-0.359259252,-0.009259259,1,0,0,1.0618,optionLeft,20,4915,3,14,0,14,0,1,,,,,,,,,,,,,,,,,,,,,,,,,,,,,,,,,,,,,,,
,,,,,,,5f75d01a857e4e27a575f7ca,2023-08-16_10h45.31.395,HF_wild_card,2022.2.4,Win32,60.03842459,5f75d01a857e4e27a575f7ca,64d2fd46c836a06233681665,64dc9aa38682881db2306bcb,,,,,,,ctch,resources/DY.BMP,resources/DR.BMP,Door3,0.336111139,-0.019444466,1,0,0,1.0313,optionRight,70,4985,3,15,0,15,0,1,,,,,,,,,,,,,,,,,,,,,,,,,,,,,,,,,,,,,,,
,,,,,,,5f75d01a857e4e27a575f7ca,2023-08-16_10h45.31.395,HF_wild_card,2022.2.4,Win32,60.03842459,5f75d01a857e4e27a575f7ca,64d2fd46c836a06233681665,64dc9aa38682881db2306bcb,,,,,,,decisionTrl,resources/DR.BMP,resources/DG.BMP,Door3,-0.332407386,0.015740748,1,0,0,0.8816,optionLeft,70,5055,3,16,0,16,0,1,,,,,,,,,,,,,,,,,,,,,,,,,,,,,,,,,,,,,,,
,,,,,,,5f75d01a857e4e27a575f7ca,2023-08-16_10h45.31.395,HF_wild_card,2022.2.4,Win32,60.03842459,5f75d01a857e4e27a575f7ca,64d2fd46c836a06233681665,64dc9aa38682881db2306bcb,,,,,,,decisionTrl,resources/DY.BMP,resources/DB.BMP,Door2,-0.349074081,-0.002777771,1,0,0,1.0297,optionLeft,40,5095,3,17,0,17,0,1,,,,,,,,,,,,,,,,,,,,,,,,,,,,,,,,,,,,,,,
,,,,,,,5f75d01a857e4e27a575f7ca,2023-08-16_10h45.31.395,HF_wild_card,2022.2.4,Win32,60.03842459,5f75d01a857e4e27a575f7ca,64d2fd46c836a06233681665,64dc9aa38682881db2306bcb,,,,,,,sngl,resources/Empty.png,resources/DP.BMP,WildCard_Ex,0.319444444,-0.024074095,1,0,0,0.7638,optionRight,5,5100,3,18,0,18,0,1,,,,,,,,,,,,,,,,,,,,,,,,,,,,,,,,,,,,,,,
,,,,,,,5f75d01a857e4e27a575f7ca,2023-08-16_10h45.31.395,HF_wild_card,2022.2.4,Win32,60.03842459,5f75d01a857e4e27a575f7ca,64d2fd46c836a06233681665,64dc9aa38682881db2306bcb,,,,,,,decisionTrl,resources/DY.BMP,resources/DB.BMP,Door2,-0.299999979,0.015740748,1,0,0,1.2141,optionLeft,40,5140,3,19,0,19,0,1,,,,,,,,,,,,,,,,,,,,,,,,,,,,,,,,,,,,,,,
,,,,,,,5f75d01a857e4e27a575f7ca,2023-08-16_10h45.31.395,HF_wild_card,2022.2.4,Win32,60.03842459,5f75d01a857e4e27a575f7ca,64d2fd46c836a06233681665,64dc9aa38682881db2306bcb,,,,,,,decisionTrl,resources/DY.BMP,resources/DB.BMP,Door2,-0.369444423,-0.039814808,1,0,0,0.7147,optionLeft,20,5160,3,20,0,20,0,1,,,,,,,,,,,,,,,,,,,,,,,,,,,,,,,,,,,,,,,
,,,,,,,5f75d01a857e4e27a575f7ca,2023-08-16_10h45.31.395,HF_wild_card,2022.2.4,Win32,60.03842459,5f75d01a857e4e27a575f7ca,64d2fd46c836a06233681665,64dc9aa38682881db2306bcb,,,,,,,decisionTrl,resources/DB.BMP,resources/DY.BMP,Door2,0.36018527,-0.013888889,1,0,0,0.7308,optionRight,20,5180,3,21,0,21,0,1,,,,,,,,,,,,,,,,,,,,,,,,,,,,,,,,,,,,,,,
,,,,,,,5f75d01a857e4e27a575f7ca,2023-08-16_10h45.31.395,HF_wild_card,2022.2.4,Win32,60.03842459,5f75d01a857e4e27a575f7ca,64d2fd46c836a06233681665,64dc9aa38682881db2306bcb,,,,,,,decisionTrl,resources/DY.BMP,resources/DP.BMP,Door2,-0.262962977,0.008333312,1,0,0,1.131,optionLeft,40,5220,3,22,0,22,0,1,,,,,,,,,,,,,,,,,,,,,,,,,,,,,,,,,,,,,,,
,,,,,,,5f75d01a857e4e27a575f7ca,2023-08-16_10h45.31.395,HF_wild_card,2022.2.4,Win32,60.03842459,5f75d01a857e4e27a575f7ca,64d2fd46c836a06233681665,64dc9aa38682881db2306bcb,,,,,,,sngl,resources/DP.BMP,resources/Empty.png,WildCard_Ex,-0.397222201,0.002777771,1,0,0,0.5645,optionLeft,5,5225,3,23,0,23,0,1,,,,,,,,,,,,,,,,,,,,,,,,,,,,,,,,,,,,,,,
,,,,,,,5f75d01a857e4e27a575f7ca,2023-08-16_10h45.31.395,HF_wild_card,2022.2.4,Win32,60.03842459,5f75d01a857e4e27a575f7ca,64d2fd46c836a06233681665,64dc9aa38682881db2306bcb,,,,,,,decisionTrl,resources/DR.BMP,resources/DG.BMP,Door3,-0.326851845,-0.006481489,1,0,0,1.064,optionLeft,70,5295,3,24,0,24,0,1,,,,,,,,,,,,,,,,,,,,,,,,,,,,,,,,,,,,,,,
,,,,,,,5f75d01a857e4e27a575f7ca,2023-08-16_10h45.31.395,HF_wild_card,2022.2.4,Win32,60.03842459,5f75d01a857e4e27a575f7ca,64d2fd46c836a06233681665,64dc9aa38682881db2306bcb,,,,,,,ctch,resources/DB.BMP,resources/DG.BMP,Door4,0.337962963,-0.027777778,1,0,0,1.0806,optionRight,60,5355,3,25,0,25,0,1,,,,,,,,,,,,,,,,,,,,,,,,,,,,,,,,,,,,,,,
,,,,,,,5f75d01a857e4e27a575f7ca,2023-08-16_10h45.31.395,HF_wild_card,2022.2.4,Win32,60.03842459,5f75d01a857e4e27a575f7ca,64d2fd46c836a06233681665,64dc9aa38682881db2306bcb,,,,,,,sngl,resources/Empty.png,resources/DY.BMP,Door2,0.477777834,-0.006481489,1,0,0,0.6141,optionRight,20,5375,3,26,0,26,0,1,,,,,,,,,,,,,,,,,,,,,,,,,,,,,,,,,,,,,,,
,,,,,,,5f75d01a857e4e27a575f7ca,2023-08-16_10h45.31.395,HF_wild_card,2022.2.4,Win32,60.03842459,5f75d01a857e4e27a575f7ca,64d2fd46c836a06233681665,64dc9aa38682881db2306bcb,,,,,,,sngl,resources/DG.BMP,resources/Empty.png,Door4,-0.324074074,0.021296289,1,0,0,0.4646,optionLeft,80,5455,3,27,0,27,0,1,,,,,,,,,,,,,,,,,,,,,,,,,,,,,,,,,,,,,,,
,,,,,,,5f75d01a857e4e27a575f7ca,2023-08-16_10h45.31.395,HF_wild_card,2022.2.4,Win32,60.03842459,5f75d01a857e4e27a575f7ca,64d2fd46c836a06233681665,64dc9aa38682881db2306bcb,,,,,,,ctch,resources/DB.BMP,resources/DG.BMP,Door4,0.300000085,0.017592571,1,0,0,0.6317,optionRight,80,5535,3,28,0,28,0,1,,,,,,,,,,,,,,,,,,,,,,,,,,,,,,,,,,,,,,,
,,,,,,,5f75d01a857e4e27a575f7ca,2023-08-16_10h45.31.395,HF_wild_card,2022.2.4,Win32,60.03842459,5f75d01a857e4e27a575f7ca,64d2fd46c836a06233681665,64dc9aa38682881db2306bcb,,,,,,,sngl,resources/Empty.png,resources/DP.BMP,WildCard_Ex,0.398148148,0.002777771,1,0,0,0.5982,optionRight,95,5630,3,29,0,29,0,1,,,,,,,,,,,,,,,,,,,,,,,,,,,,,,,,,,,,,,,
,,,,,,,5f75d01a857e4e27a575f7ca,2023-08-16_10h45.31.395,HF_wild_card,2022.2.4,Win32,60.03842459,5f75d01a857e4e27a575f7ca,64d2fd46c836a06233681665,64dc9aa38682881db2306bcb,,,,,,,ctch,resources/DR.BMP,resources/DY.BMP,Door3,-0.309259238,-0.045370384,1,0,0,1.0201,optionLeft,70,5700,3,30,0,30,0,1,,,,,,,,,,,,,,,,,,,,,,,,,,,,,,,,,,,,,,,
,,,,,,,5f75d01a857e4e27a575f7ca,2023-08-16_10h45.31.395,HF_wild_card,2022.2.4,Win32,60.03842459,5f75d01a857e4e27a575f7ca,64d2fd46c836a06233681665,64dc9aa38682881db2306bcb,,,,,,,sngl,resources/DR.BMP,resources/Empty.png,Door3,-0.263888889,0.000925912,1,0,0,0.5511,optionLeft,70,5770,3,31,0,31,0,1,,,,,,,,,,,,,,,,,,,,,,,,,,,,,,,,,,,,,,,
,,,,,,,5f75d01a857e4e27a575f7ca,2023-08-16_10h45.31.395,HF_wild_card,2022.2.4,Win32,60.03842459,5f75d01a857e4e27a575f7ca,64d2fd46c836a06233681665,64dc9aa38682881db2306bcb,,,,,,,ctch,resources/DR.BMP,resources/DY.BMP,Door3,-0.318518497,-0.018518519,1,0,0,0.8982,optionLeft,70,5840,3,32,0,32,0,1,,,,,,,,,,,,,,,,,,,,,,,,,,,,,,,,,,,,,,,
,,,,,,,5f75d01a857e4e27a575f7ca,2023-08-16_10h45.31.395,HF_wild_card,2022.2.4,Win32,60.03842459,5f75d01a857e4e27a575f7ca,64d2fd46c836a06233681665,64dc9aa38682881db2306bcb,,,,,,,sngl,resources/Empty.png,resources/DR.BMP,Door3,0.365740741,-0.015740748,1,0,0,0.5457,optionRight,70,5910,3,33,0,33,0,1,,,,,,,,,,,,,,,,,,,,,,,,,,,,,,,,,,,,,,,
,,,,,,,5f75d01a857e4e27a575f7ca,2023-08-16_10h45.31.395,HF_wild_card,2022.2.4,Win32,60.03842459,5f75d01a857e4e27a575f7ca,64d2fd46c836a06233681665,64dc9aa38682881db2306bcb,,,,,,,decisionTrl,resources/DR.BMP,resources/DG.BMP,Door3,-0.295370384,-0.002777771,1,0,0,0.4837,optionLeft,70,5980,3,34,0,34,0,1,,,,,,,,,,,,,,,,,,,,,,,,,,,,,,,,,,,,,,,
,,,,,,,5f75d01a857e4e27a575f7ca,2023-08-16_10h45.31.395,HF_wild_card,2022.2.4,Win32,60.03842459,5f75d01a857e4e27a575f7ca,64d2fd46c836a06233681665,64dc9aa38682881db2306bcb,,,,,,,sngl,resources/DY.BMP,resources/Empty.png,Door2,-0.324074074,-0.017592607,1,0,0,0.6482,optionLeft,40,6020,3,35,0,35,0,1,,,,,,,,,,,,,,,,,,,,,,,,,,,,,,,,,,,,,,,
,,,,,,,5f75d01a857e4e27a575f7ca,2023-08-16_10h45.31.395,HF_wild_card,2022.2.4,Win32,60.03842459,5f75d01a857e4e27a575f7ca,64d2fd46c836a06233681665,64dc9aa38682881db2306bcb,,,,,,,sngl,resources/DP.BMP,resources/Empty.png,WildCard_Ex,-0.37037037,0.017592571,1,0,0,0.7652,optionLeft,95,6115,3,36,0,36,0,1,,,,,,,,,,,,,,,,,,,,,,,,,,,,,,,,,,,,,,,
,,,,,,,5f75d01a857e4e27a575f7ca,2023-08-16_10h45.31.395,HF_wild_card,2022.2.4,Win32,60.03842459,5f75d01a857e4e27a575f7ca,64d2fd46c836a06233681665,64dc9aa38682881db2306bcb,,,,,,,decisionTrl,resources/DB.BMP,resources/DY.BMP,Door2,0.341666751,-0.008333347,1,0,0,1.6473,optionRight,40,6155,3,37,0,37,0,1,,,,,,,,,,,,,,,,,,,,,,,,,,,,,,,,,,,,,,,
,,,,,,,5f75d01a857e4e27a575f7ca,2023-08-16_10h45.31.395,HF_wild_card,2022.2.4,Win32,60.03842459,5f75d01a857e4e27a575f7ca,64d2fd46c836a06233681665,64dc9aa38682881db2306bcb,,,,,,,decisionTrl,resources/DG.BMP,resources/DR.BMP,Door4,-0.281481496,-0.000925947,1,0,0,1.0642,optionLeft,60,6215,3,38,0,38,0,1,,,,,,,,,,,,,,,,,,,,,,,,,,,,,,,,,,,,,,,
,,,,,,,5f75d01a857e4e27a575f7ca,2023-08-16_10h45.31.395,HF_wild_card,2022.2.4,Win32,60.03842459,5f75d01a857e4e27a575f7ca,64d2fd46c836a06233681665,64dc9aa38682881db2306bcb,,,,,,,decisionTrl,resources/DB.BMP,resources/DY.BMP,Door2,0.324074074,-0.006481489,1,0,0,1.78,optionRight,20,6235,3,39,0,39,0,1,,,,,,,,,,,,,,,,,,,,,,,,,,,,,,,,,,,,,,,
,,,,,,,5f75d01a857e4e27a575f7ca,2023-08-16_10h45.31.395,HF_wild_card,2022.2.4,Win32,60.03842459,5f75d01a857e4e27a575f7ca,64d2fd46c836a06233681665,64dc9aa38682881db2306bcb,,,,,,,decisionTrl,resources/DP.BMP,resources/DR.BMP,Door3,0.317592621,-0.018518519,1,0,0,1.1812,optionRight,70,6305,3,40,0,40,0,1,,,,,,,,,,,,,,,,,,,,,,,,,,,,,,,,,,,,,,,
,,,,,,,5f75d01a857e4e27a575f7ca,2023-08-16_10h45.31.395,HF_wild_card,2022.2.4,Win32,60.03842459,5f75d01a857e4e27a575f7ca,64d2fd46c836a06233681665,64dc9aa38682881db2306bcb,,,,,,,sngl,resources/Empty.png,resources/DB.BMP,Door1,0.37962963,-0.013888889,1,0,0,0.5989,optionRight,30,6335,3,41,0,41,0,1,,,,,,,,,,,,,,,,,,,,,,,,,,,,,,,,,,,,,,,
,,,,,,,5f75d01a857e4e27a575f7ca,2023-08-16_10h45.31.395,HF_wild_card,2022.2.4,Win32,60.03842459,5f75d01a857e4e27a575f7ca,64d2fd46c836a06233681665,64dc9aa38682881db2306bcb,,,,,,,decisionTrl,resources/DR.BMP,resources/DG.BMP,Door3,-0.335185192,-0.019444466,1,0,0,0.9323,optionLeft,70,6405,3,42,0,42,0,1,,,,,,,,,,,,,,,,,,,,,,,,,,,,,,,,,,,,,,,
,,,,,,,5f75d01a857e4e27a575f7ca,2023-08-16_10h45.31.395,HF_wild_card,2022.2.4,Win32,60.03842459,5f75d01a857e4e27a575f7ca,64d2fd46c836a06233681665,64dc9aa38682881db2306bcb,,,,,,,decisionTrl,resources/DR.BMP,resources/DP.BMP,Door3,-0.455555563,-0.026851866,1,0,0,1.0644,optionLeft,70,6475,3,43,0,43,0,1,,,,,,,,,,,,,,,,,,,,,,,,,,,,,,,,,,,,,,,
,,,,,,,5f75d01a857e4e27a575f7ca,2023-08-16_10h45.31.395,HF_wild_card,2022.2.4,Win32,60.03842459,5f75d01a857e4e27a575f7ca,64d2fd46c836a06233681665,64dc9aa38682881db2306bcb,,,,,,,,,,,,,,,,,,,,,,,,,,2,0,2,0,1,,,,,,,,,,,,,,,,,,,,,,,,,,,,,,,,,,
,,,,,,,5f75d01a857e4e27a575f7ca,2023-08-16_10h45.31.395,HF_wild_card,2022.2.4,Win32,60.03842459,5f75d01a857e4e27a575f7ca,64d2fd46c836a06233681665,64dc9aa38682881db2306bcb,,,,,,,decisionTrl,resources/DR.BMP,resources/DG.BMP,Door3,-0.36296297,-0.047222243,1,0,0,2.2694,optionLeft,70,6545,4,0,0,0,0,1,,,,,,,,,,,,,,,,,,,,,,,,,,,,,,,,,,,,,,,
,,,,,,,5f75d01a857e4e27a575f7ca,2023-08-16_10h45.31.395,HF_wild_card,2022.2.4,Win32,60.03842459,5f75d01a857e4e27a575f7ca,64d2fd46c836a06233681665,64dc9aa38682881db2306bcb,,,,,,,ctch,resources/DB.BMP,resources/DG.BMP,Door4,0.365740741,-0.0074074,1,0,0,1.4451,optionRight,80,6625,4,1,0,1,0,1,,,,,,,,,,,,,,,,,,,,,,,,,,,,,,,,,,,,,,,
,,,,,,,5f75d01a857e4e27a575f7ca,2023-08-16_10h45.31.395,HF_wild_card,2022.2.4,Win32,60.03842459,5f75d01a857e4e27a575f7ca,64d2fd46c836a06233681665,64dc9aa38682881db2306bcb,,,,,,,sngl,resources/DR.BMP,resources/Empty.png,Door3,-0.350925905,0.006481489,1,0,0,0.5344,optionLeft,70,6695,4,2,0,2,0,1,,,,,,,,,,,,,,,,,,,,,,,,,,,,,,,,,,,,,,,
,,,,,,,5f75d01a857e4e27a575f7ca,2023-08-16_10h45.31.395,HF_wild_card,2022.2.4,Win32,60.03842459,5f75d01a857e4e27a575f7ca,64d2fd46c836a06233681665,64dc9aa38682881db2306bcb,,,,,,,decisionTrl,resources/DBN.BMP,resources/DY.BMP,WildCard_NonEx,-0.338888875,0.000925912,1,0,0,1.2291,optionLeft,45,6740,4,3,0,3,0,1,,,,,,,,,,,,,,,,,,,,,,,,,,,,,,,,,,,,,,,
,,,,,,,5f75d01a857e4e27a575f7ca,2023-08-16_10h45.31.395,HF_wild_card,2022.2.4,Win32,60.03842459,5f75d01a857e4e27a575f7ca,64d2fd46c836a06233681665,64dc9aa38682881db2306bcb,,,,,,,sngl,resources/Empty.png,resources/DG.BMP,Door4,0.340740769,-0.013888889,1,0,0,0.7137,optionRight,80,6820,4,4,0,4,0,1,,,,,,,,,,,,,,,,,,,,,,,,,,,,,,,,,,,,,,,
,,,,,,,5f75d01a857e4e27a575f7ca,2023-08-16_10h45.31.395,HF_wild_card,2022.2.4,Win32,60.03842459,5f75d01a857e4e27a575f7ca,64d2fd46c836a06233681665,64dc9aa38682881db2306bcb,,,,,,,sngl,resources/DG.BMP,resources/Empty.png,Door4,-0.389814801,0.025925919,1,0,0,0.5304,optionLeft,60,6880,4,5,0,5,0,1,,,,,,,,,,,,,,,,,,,,,,,,,,,,,,,,,,,,,,,
,,,,,,,5f75d01a857e4e27a575f7ca,2023-08-16_10h45.31.395,HF_wild_card,2022.2.4,Win32,60.03842459,5f75d01a857e4e27a575f7ca,64d2fd46c836a06233681665,64dc9aa38682881db2306bcb,,,,,,,decisionTrl,resources/DG.BMP,resources/DR.BMP,Door3,0.428703732,-0.049074067,1,0,0,0.9147,optionRight,70,6950,4,6,0,6,0,1,,,,,,,,,,,,,,,,,,,,,,,,,,,,,,,,,,,,,,,
,,,,,,,5f75d01a857e4e27a575f7ca,2023-08-16_10h45.31.395,HF_wild_card,2022.2.4,Win32,60.03842459,5f75d01a857e4e27a575f7ca,64d2fd46c836a06233681665,64dc9aa38682881db2306bcb,,,,,,,sngl,resources/Empty.png,resources/DBN.BMP,WildCard_NonEx,0.609259288,-0.006481489,1,0,0,0.6648,optionRight,55,7005,4,7,0,7,0,1,,,,,,,,,,,,,,,,,,,,,,,,,,,,,,,,,,,,,,,
,,,,,,,5f75d01a857e4e27a575f7ca,2023-08-16_10h45.31.395,HF_wild_card,2022.2.4,Win32,60.03842459,5f75d01a857e4e27a575f7ca,64d2fd46c836a06233681665,64dc9aa38682881db2306bcb,,,,,,,decisionTrl,resources/DG.BMP,resources/DR.BMP,Door3,0.295370384,-0.012962977,1,0,0,1.0815,optionRight,70,7075,4,8,0,8,0,1,,,,,,,,,,,,,,,,,,,,,,,,,,,,,,,,,,,,,,,
,,,,,,,5f75d01a857e4e27a575f7ca,2023-08-16_10h45.31.395,HF_wild_card,2022.2.4,Win32,60.03842459,5f75d01a857e4e27a575f7ca,64d2fd46c836a06233681665,64dc9aa38682881db2306bcb,,,,,,,decisionTrl,resources/DB.BMP,resources/DY.BMP,Door1,-0.377777771,-0.008333347,1,0,0,2.0963,optionLeft,30,7105,4,9,0,9,0,1,,,,,,,,,,,,,,,,,,,,,,,,,,,,,,,,,,,,,,,
,,,,,,,5f75d01a857e4e27a575f7ca,2023-08-16_10h45.31.395,HF_wild_card,2022.2.4,Win32,60.03842459,5f75d01a857e4e27a575f7ca,64d2fd46c836a06233681665,64dc9aa38682881db2306bcb,,,,,,,ctch,resources/DY.BMP,resources/DR.BMP,Door3,0.378703788,-0.006481489,1,0,0,0.8654,optionRight,70,7175,4,10,0,10,0,1,,,,,,,,,,,,,,,,,,,,,,,,,,,,,,,,,,,,,,,
,,,,,,,5f75d01a857e4e27a575f7ca,2023-08-16_10h45.31.395,HF_wild_card,2022.2.4,Win32,60.03842459,5f75d01a857e4e27a575f7ca,64d2fd46c836a06233681665,64dc9aa38682881db2306bcb,,,,,,,decisionTrl,resources/DR.BMP,resources/DG.BMP,Door3,-0.287962949,-0.003703718,1,0,0,1.2147,optionLeft,70,7245,4,11,0,11,0,1,,,,,,,,,,,,,,,,,,,,,,,,,,,,,,,,,,,,,,,
,,,,,,,5f75d01a857e4e27a575f7ca,2023-08-16_10h45.31.395,HF_wild_card,2022.2.4,Win32,60.03842459,5f75d01a857e4e27a575f7ca,64d2fd46c836a06233681665,64dc9aa38682881db2306bcb,,,,,,,decisionTrl,resources/DBN.BMP,resources/DG.BMP,Door4,0.333333333,-0.006481489,1,0,0,0.8983,optionRight,60,7305,4,12,0,12,0,1,,,,,,,,,,,,,,,,,,,,,,,,,,,,,,,,,,,,,,,
,,,,,,,5f75d01a857e4e27a575f7ca,2023-08-16_10h45.31.395,HF_wild_card,2022.2.4,Win32,60.03842459,5f75d01a857e4e27a575f7ca,64d2fd46c836a06233681665,64dc9aa38682881db2306bcb,,,,,,,decisionTrl,resources/DY.BMP,resources/DBN.BMP,Door2,-0.277777778,-0.002777771,1,0,0,1.4133,optionLeft,40,7345,4,13,0,13,0,1,,,,,,,,,,,,,,,,,,,,,,,,,,,,,,,,,,,,,,,
,,,,,,,5f75d01a857e4e27a575f7ca,2023-08-16_10h45.31.395,HF_wild_card,2022.2.4,Win32,60.03842459,5f75d01a857e4e27a575f7ca,64d2fd46c836a06233681665,64dc9aa38682881db2306bcb,,,,,,,decisionTrl,resources/DB.BMP,resources/DY.BMP,Door2,0.349074046,-0.005555577,1,0,0,1.6306,optionRight,40,7385,4,14,0,14,0,1,,,,,,,,,,,,,,,,,,,,,,,,,,,,,,,,,,,,,,,
,,,,,,,5f75d01a857e4e27a575f7ca,2023-08-16_10h45.31.395,HF_wild_card,2022.2.4,Win32,60.03842459,5f75d01a857e4e27a575f7ca,64d2fd46c836a06233681665,64dc9aa38682881db2306bcb,,,,,,,decisionTrl,resources/DB.BMP,resources/DY.BMP,Door2,0.312037009,-0.005555577,1,0,0,0.6949,optionRight,20,7405,4,15,0,15,0,1,,,,,,,,,,,,,,,,,,,,,,,,,,,,,,,,,,,,,,,
,,,,,,,5f75d01a857e4e27a575f7ca,2023-08-16_10h45.31.395,HF_wild_card,2022.2.4,Win32,60.03842459,5f75d01a857e4e27a575f7ca,64d2fd46c836a06233681665,64dc9aa38682881db2306bcb,,,,,,,decisionTrl,resources/DB.BMP,resources/DY.BMP,Door1,-0.317592586,0.01203703,1,0,0,0.5323,optionLeft,30,7435,4,16,0,16,0,1,,,,,,,,,,,,,,,,,,,,,,,,,,,,,,,,,,,,,,,
,,,,,,,5f75d01a857e4e27a575f7ca,2023-08-16_10h45.31.395,HF_wild_card,2022.2.4,Win32,60.03842459,5f75d01a857e4e27a575f7ca,64d2fd46c836a06233681665,64dc9aa38682881db2306bcb,,,,,,,decisionTrl,resources/DY.BMP,resources/DB.BMP,Door1,0.371296353,-0.000925947,1,0,0,0.948,optionRight,30,7465,4,17,0,17,0,1,,,,,,,,,,,,,,,,,,,,,,,,,,,,,,,,,,,,,,,
,,,,,,,5f75d01a857e4e27a575f7ca,2023-08-16_10h45.31.395,HF_wild_card,2022.2.4,Win32,60.03842459,5f75d01a857e4e27a575f7ca,64d2fd46c836a06233681665,64dc9aa38682881db2306bcb,,,,,,,decisionTrl,resources/DBN.BMP,resources/DR.BMP,Door3,0.337962963,-0.014814836,1,0,0,1.096,optionRight,70,7535,4,18,0,18,0,1,,,,,,,,,,,,,,,,,,,,,,,,,,,,,,,,,,,,,,,
,,,,,,,5f75d01a857e4e27a575f7ca,2023-08-16_10h45.31.395,HF_wild_card,2022.2.4,Win32,60.03842459,5f75d01a857e4e27a575f7ca,64d2fd46c836a06233681665,64dc9aa38682881db2306bcb,,,,,,,decisionTrl,resources/DBN.BMP,resources/DB.BMP,Door1,0.390740712,-0.009259259,1,0,0,1.1473,optionRight,30,7565,4,19,0,19,0,1,,,,,,,,,,,,,,,,,,,,,,,,,,,,,,,,,,,,,,,
,,,,,,,5f75d01a857e4e27a575f7ca,2023-08-16_10h45.31.395,HF_wild_card,2022.2.4,Win32,60.03842459,5f75d01a857e4e27a575f7ca,64d2fd46c836a06233681665,64dc9aa38682881db2306bcb,,,,,,,ctch,resources/DG.BMP,resources/DB.BMP,Door4,-0.317592586,-0.025000007,1,0,0,0.9301,optionLeft,80,7645,4,20,0,20,0,1,,,,,,,,,,,,,,,,,,,,,,,,,,,,,,,,,,,,,,,
,,,,,,,5f75d01a857e4e27a575f7ca,2023-08-16_10h45.31.395,HF_wild_card,2022.2.4,Win32,60.03842459,5f75d01a857e4e27a575f7ca,64d2fd46c836a06233681665,64dc9aa38682881db2306bcb,,,,,,,ctch,resources/DB.BMP,resources/DG.BMP,Door4,0.337037122,-0.006481489,1,0,0,0.6909,optionRight,80,7725,4,21,0,21,0,1,,,,,,,,,,,,,,,,,,,,,,,,,,,,,,,,,,,,,,,
,,,,,,,5f75d01a857e4e27a575f7ca,2023-08-16_10h45.31.395,HF_wild_card,2022.2.4,Win32,60.03842459,5f75d01a857e4e27a575f7ca,64d2fd46c836a06233681665,64dc9aa38682881db2306bcb,,,,,,,decisionTrl,resources/DR.BMP,resources/DG.BMP,Door3,-0.416666667,-0.062037044,1,0,0,1.0134,optionLeft,70,7795,4,22,0,22,0,1,,,,,,,,,,,,,,,,,,,,,,,,,,,,,,,,,,,,,,,
,,,,,,,5f75d01a857e4e27a575f7ca,2023-08-16_10h45.31.395,HF_wild_card,2022.2.4,Win32,60.03842459,5f75d01a857e4e27a575f7ca,64d2fd46c836a06233681665,64dc9aa38682881db2306bcb,,,,,,,sngl,resources/DB.BMP,resources/Empty.png,Door1,-0.27870369,-0.014814836,1,0,0,0.6521,optionLeft,30,7825,4,23,0,23,0,1,,,,,,,,,,,,,,,,,,,,,,,,,,,,,,,,,,,,,,,
,,,,,,,5f75d01a857e4e27a575f7ca,2023-08-16_10h45.31.395,HF_wild_card,2022.2.4,Win32,60.03842459,5f75d01a857e4e27a575f7ca,64d2fd46c836a06233681665,64dc9aa38682881db2306bcb,,,,,,,decisionTrl,resources/DY.BMP,resources/DB.BMP,Door2,-0.26944443,-0.018518519,1,0,0,1.6822,optionLeft,20,7845,4,24,0,24,0,1,,,,,,,,,,,,,,,,,,,,,,,,,,,,,,,,,,,,,,,
,,,,,,,5f75d01a857e4e27a575f7ca,2023-08-16_10h45.31.395,HF_wild_card,2022.2.4,Win32,60.03842459,5f75d01a857e4e27a575f7ca,64d2fd46c836a06233681665,64dc9aa38682881db2306bcb,,,,,,,decisionTrl,resources/DY.BMP,resources/DB.BMP,Door1,0.336111139,-0.00462963,1,0,0,0.5505,optionRight,30,7875,4,25,0,25,0,1,,,,,,,,,,,,,,,,,,,,,,,,,,,,,,,,,,,,,,,
,,,,,,,5f75d01a857e4e27a575f7ca,2023-08-16_10h45.31.395,HF_wild_card,2022.2.4,Win32,60.03842459,5f75d01a857e4e27a575f7ca,64d2fd46c836a06233681665,64dc9aa38682881db2306bcb,,,,,,,sngl,resources/Empty.png,resources/DY.BMP,Door2,0.406481566,0,1,0,0,0.6972,optionRight,40,7915,4,26,0,26,0,1,,,,,,,,,,,,,,,,,,,,,,,,,,,,,,,,,,,,,,,
,,,,,,,5f75d01a857e4e27a575f7ca,2023-08-16_10h45.31.395,HF_wild_card,2022.2.4,Win32,60.03842459,5f75d01a857e4e27a575f7ca,64d2fd46c836a06233681665,64dc9aa38682881db2306bcb,,,,,,,ctch,resources/DG.BMP,resources/DB.BMP,Door4,-0.378703683,-0.018518519,1,0,0,1.0981,optionLeft,60,7975,4,27,0,27,0,1,,,,,,,,,,,,,,,,,,,,,,,,,,,,,,,,,,,,,,,
,,,,,,,5f75d01a857e4e27a575f7ca,2023-08-16_10h45.31.395,HF_wild_card,2022.2.4,Win32,60.03842459,5f75d01a857e4e27a575f7ca,64d2fd46c836a06233681665,64dc9aa38682881db2306bcb,,,,,,,decisionTrl,resources/DG.BMP,resources/DR.BMP,Door3,0.393518519,-0.010185206,1,0,0,1.0314,optionRight,70,8045,4,28,0,28,0,1,,,,,,,,,,,,,,,,,,,,,,,,,,,,,,,,,,,,,,,
,,,,,,,5f75d01a857e4e27a575f7ca,2023-08-16_10h45.31.395,HF_wild_card,2022.2.4,Win32,60.03842459,5f75d01a857e4e27a575f7ca,64d2fd46c836a06233681665,64dc9aa38682881db2306bcb,,,,,,,sngl,resources/Empty.png,resources/DB.BMP,Door1,0.411111196,0.001851859,1,0,0,0.6147,optionRight,30,8075,4,29,0,29,0,1,,,,,,,,,,,,,,,,,,,,,,,,,,,,,,,,,,,,,,,
,,,,,,,5f75d01a857e4e27a575f7ca,2023-08-16_10h45.31.395,HF_wild_card,2022.2.4,Win32,60.03842459,5f75d01a857e4e27a575f7ca,64d2fd46c836a06233681665,64dc9aa38682881db2306bcb,,,,,,,sngl,resources/DBN.BMP,resources/Empty.png,WildCard_NonEx,-0.305555556,0.030555548,1,0,0,0.6012,optionLeft,55,8130,4,30,0,30,0,1,,,,,,,,,,,,,,,,,,,,,,,,,,,,,,,,,,,,,,,
,,,,,,,5f75d01a857e4e27a575f7ca,2023-08-16_10h45.31.395,HF_wild_card,2022.2.4,Win32,60.03842459,5f75d01a857e4e27a575f7ca,64d2fd46c836a06233681665,64dc9aa38682881db2306bcb,,,,,,,decisionTrl,resources/DB.BMP,resources/DBN.BMP,WildCard_NonEx,0.457407492,0.008333312,1,0,0,1.2642,optionRight,55,8185,4,31,0,31,0,1,,,,,,,,,,,,,,,,,,,,,,,,,,,,,,,,,,,,,,,
,,,,,,,5f75d01a857e4e27a575f7ca,2023-08-16_10h45.31.395,HF_wild_card,2022.2.4,Win32,60.03842459,5f75d01a857e4e27a575f7ca,64d2fd46c836a06233681665,64dc9aa38682881db2306bcb,,,,,,,decisionTrl,resources/DR.BMP,resources/DG.BMP,Door3,-0.311111097,0.000925912,1,0,0,0.8008,optionLeft,70,8255,4,32,0,32,0,1,,,,,,,,,,,,,,,,,,,,,,,,,,,,,,,,,,,,,,,
,,,,,,,5f75d01a857e4e27a575f7ca,2023-08-16_10h45.31.395,HF_wild_card,2022.2.4,Win32,60.03842459,5f75d01a857e4e27a575f7ca,64d2fd46c836a06233681665,64dc9aa38682881db2306bcb,,,,,,,sngl,resources/Empty.png,resources/DR.BMP,Door3,0.42314812,0.003703683,1,0,0,0.4957,optionRight,70,8325,4,33,0,33,0,1,,,,,,,,,,,,,,,,,,,,,,,,,,,,,,,,,,,,,,,
,,,,,,,5f75d01a857e4e27a575f7ca,2023-08-16_10h45.31.395,HF_wild_card,2022.2.4,Win32,60.03842459,5f75d01a857e4e27a575f7ca,64d2fd46c836a06233681665,64dc9aa38682881db2306bcb,,,,,,,ctch,resources/DR.BMP,resources/DY.BMP,Door3,-0.308333326,-0.015740748,1,0,0,0.5816,optionLeft,70,8395,4,34,0,34,0,1,,,,,,,,,,,,,,,,,,,,,,,,,,,,,,,,,,,,,,,
,,,,,,,5f75d01a857e4e27a575f7ca,2023-08-16_10h45.31.395,HF_wild_card,2022.2.4,Win32,60.03842459,5f75d01a857e4e27a575f7ca,64d2fd46c836a06233681665,64dc9aa38682881db2306bcb,,,,,,,sngl,resources/DBN.BMP,resources/Empty.png,WildCard_NonEx,-0.276851866,-0.01203703,1,0,0,0.5503,optionLeft,45,8440,4,35,0,35,0,1,,,,,,,,,,,,,,,,,,,,,,,,,,,,,,,,,,,,,,,
,,,,,,,5f75d01a857e4e27a575f7ca,2023-08-16_10h45.31.395,HF_wild_card,2022.2.4,Win32,60.03842459,5f75d01a857e4e27a575f7ca,64d2fd46c836a06233681665,64dc9aa38682881db2306bcb,,,,,,,sngl,resources/DY.BMP,resources/Empty.png,Door2,-0.262036995,-0.01666666,1,0,0,0.6145,optionLeft,20,8460,4,36,0,36,0,1,,,,,,,,,,,,,,,,,,,,,,,,,,,,,,,,,,,,,,,
,,,,,,,5f75d01a857e4e27a575f7ca,2023-08-16_10h45.31.395,HF_wild_card,2022.2.4,Win32,60.03842459,5f75d01a857e4e27a575f7ca,64d2fd46c836a06233681665,64dc9aa38682881db2306bcb,,,,,,,ctch,resources/DY.BMP,resources/DR.BMP,Door3,0.366666723,0.000925912,1,0,0,0.6812,optionRight,70,8530,4,37,0,37,0,1,,,,,,,,,,,,,,,,,,,,,,,,,,,,,,,,,,,,,,,
,,,,,,,5f75d01a857e4e27a575f7ca,2023-08-16_10h45.31.395,HF_wild_card,2022.2.4,Win32,60.03842459,5f75d01a857e4e27a575f7ca,64d2fd46c836a06233681665,64dc9aa38682881db2306bcb,,,,,,,sngl,resources/Empty.png,resources/DBN.BMP,WildCard_NonEx,0.404629601,0.026851831,1,0,0,0.5811,optionRight,45,8575,4,38,0,38,0,1,,,,,,,,,,,,,,,,,,,,,,,,,,,,,,,,,,,,,,,
,,,,,,,5f75d01a857e4e27a575f7ca,2023-08-16_10h45.31.395,HF_wild_card,2022.2.4,Win32,60.03842459,5f75d01a857e4e27a575f7ca,64d2fd46c836a06233681665,64dc9aa38682881db2306bcb,,,,,,,decisionTrl,resources/DG.BMP,resources/DR.BMP,Door3,0.320370427,-0.0074074,1,0,0,0.8148,optionRight,70,8645,4,39,0,39,0,1,,,,,,,,,,,,,,,,,,,,,,,,,,,,,,,,,,,,,,,
,,,,,,,5f75d01a857e4e27a575f7ca,2023-08-16_10h45.31.395,HF_wild_card,2022.2.4,Win32,60.03842459,5f75d01a857e4e27a575f7ca,64d2fd46c836a06233681665,64dc9aa38682881db2306bcb,,,,,,,decisionTrl,resources/DR.BMP,resources/DBN.BMP,Door3,-0.339814822,-0.013888889,1,0,0,1.697,optionLeft,70,8715,4,40,0,40,0,1,,,,,,,,,,,,,,,,,,,,,,,,,,,,,,,,,,,,,,,
,,,,,,,5f75d01a857e4e27a575f7ca,2023-08-16_10h45.31.395,HF_wild_card,2022.2.4,Win32,60.03842459,5f75d01a857e4e27a575f7ca,64d2fd46c836a06233681665,64dc9aa38682881db2306bcb,,,,,,,decisionTrl,resources/DY.BMP,resources/DB.BMP,Door1,0.293518561,-0.0074074,1,0,0,1.914,optionRight,30,8745,4,41,0,41,0,1,,,,,,,,,,,,,,,,,,,,,,,,,,,,,,,,,,,,,,,
,,,,,,,5f75d01a857e4e27a575f7ca,2023-08-16_10h45.31.395,HF_wild_card,2022.2.4,Win32,60.03842459,5f75d01a857e4e27a575f7ca,64d2fd46c836a06233681665,64dc9aa38682881db2306bcb,,,,,,,ctch,resources/DR.BMP,resources/DY.BMP,Door3,-0.262962977,-0.036111125,1,0,0,0.7979,optionLeft,70,8815,4,42,0,42,0,1,,,,,,,,,,,,,,,,,,,,,,,,,,,,,,,,,,,,,,,
,,,,,,,5f75d01a857e4e27a575f7ca,2023-08-16_10h45.31.395,HF_wild_card,2022.2.4,Win32,60.03842459,5f75d01a857e4e27a575f7ca,64d2fd46c836a06233681665,64dc9aa38682881db2306bcb,,,,,,,decisionTrl,resources/DG.BMP,resources/DBN.BMP,WildCard_NonEx,0.330555527,0.01203703,1,0,0,1.3805,optionRight,55,8870,4,43,0,43,0,1,,,,,,,,,,,,,,,,,,,,,,,,,,,,,,,,,,,,,,,
,,,,,,,5f75d01a857e4e27a575f7ca,2023-08-16_10h45.31.395,HF_wild_card,2022.2.4,Win32,60.03842459,5f75d01a857e4e27a575f7ca,64d2fd46c836a06233681665,64dc9aa38682881db2306bcb,,,,,,,,,,,,,,,,,,,,,,,,,,3,0,3,0,1,,,,,,,,,,,,,,,,,,,,,,,,,,,,,,,,,,
,,,,,,,5f75d01a857e4e27a575f7ca,2023-08-16_10h45.31.395,HF_wild_card,2022.2.4,Win32,60.03842459,5f75d01a857e4e27a575f7ca,64d2fd46c836a06233681665,64dc9aa38682881db2306bcb,,,,,,,sngl,resources/Empty.png,resources/DY.BMP,Door2,0.570370427,-0.08425928,1,0,0,0.7422,optionRight,20,8890,5,0,0,0,0,1,,,,,,,,,,,,,,,,,,,,,,,,,,,,,,,,,,,,,,,
,,,,,,,5f75d01a857e4e27a575f7ca,2023-08-16_10h45.31.395,HF_wild_card,2022.2.4,Win32,60.03842459,5f75d01a857e4e27a575f7ca,64d2fd46c836a06233681665,64dc9aa38682881db2306bcb,,,,,,,sngl,resources/DG.BMP,resources/Empty.png,Door4,-0.264814801,0.01203703,1,0,0,0.4703,optionLeft,80,8970,5,1,0,1,0,1,,,,,,,,,,,,,,,,,,,,,,,,,,,,,,,,,,,,,,,
,,,,,,,5f75d01a857e4e27a575f7ca,2023-08-16_10h45.31.395,HF_wild_card,2022.2.4,Win32,60.03842459,5f75d01a857e4e27a575f7ca,64d2fd46c836a06233681665,64dc9aa38682881db2306bcb,,,,,,,decisionTrl,resources/DY.BMP,resources/DBN.BMP,WildCard_NonEx,0.432407379,-0.003703718,1,0,0,0.7989,optionRight,45,9015,5,2,0,2,0,1,,,,,,,,,,,,,,,,,,,,,,,,,,,,,,,,,,,,,,,
,,,,,,,5f75d01a857e4e27a575f7ca,2023-08-16_10h45.31.395,HF_wild_card,2022.2.4,Win32,60.03842459,5f75d01a857e4e27a575f7ca,64d2fd46c836a06233681665,64dc9aa38682881db2306bcb,,,,,,,decisionTrl,resources/DBN.BMP,resources/DB.BMP,WildCard_NonEx,-0.309259238,0.013888889,1,0,0,0.9485,optionLeft,45,9060,5,3,0,3,0,1,,,,,,,,,,,,,,,,,,,,,,,,,,,,,,,,,,,,,,,
,,,,,,,5f75d01a857e4e27a575f7ca,2023-08-16_10h45.31.395,HF_wild_card,2022.2.4,Win32,60.03842459,5f75d01a857e4e27a575f7ca,64d2fd46c836a06233681665,64dc9aa38682881db2306bcb,,,,,,,ctch,resources/DB.BMP,resources/DG.BMP,Door4,0.293518561,-0.054629644,1,0,0,0.896,optionRight,80,9140,5,4,0,4,0,1,,,,,,,,,,,,,,,,,,,,,,,,,,,,,,,,,,,,,,,
,,,,,,,5f75d01a857e4e27a575f7ca,2023-08-16_10h45.31.395,HF_wild_card,2022.2.4,Win32,60.03842459,5f75d01a857e4e27a575f7ca,64d2fd46c836a06233681665,64dc9aa38682881db2306bcb,,,,,,,decisionTrl,resources/DY.BMP,resources/DB.BMP,Door1,0.327777863,-0.021296289,1,0,0,1.5947,optionRight,30,9170,5,5,0,5,0,1,,,,,,,,,,,,,,,,,,,,,,,,,,,,,,,,,,,,,,,
,,,,,,,5f75d01a857e4e27a575f7ca,2023-08-16_10h45.31.395,HF_wild_card,2022.2.4,Win32,60.03842459,5f75d01a857e4e27a575f7ca,64d2fd46c836a06233681665,64dc9aa38682881db2306bcb,,,,,,,ctch,resources/DY.BMP,resources/DR.BMP,Door3,0.281481496,-0.020370377,1,0,0,0.9018,optionRight,70,9240,5,6,0,6,0,1,,,,,,,,,,,,,,,,,,,,,,,,,,,,,,,,,,,,,,,
,,,,,,,5f75d01a857e4e27a575f7ca,2023-08-16_10h45.31.395,HF_wild_card,2022.2.4,Win32,60.03842459,5f75d01a857e4e27a575f7ca,64d2fd46c836a06233681665,64dc9aa38682881db2306bcb,,,,,,,sngl,resources/Empty.png,resources/DR.BMP,Door3,0.411111196,-0.027777778,1,0,0,0.5311,optionRight,70,9310,5,7,0,7,0,1,,,,,,,,,,,,,,,,,,,,,,,,,,,,,,,,,,,,,,,
,,,,,,,5f75d01a857e4e27a575f7ca,2023-08-16_10h45.31.395,HF_wild_card,2022.2.4,Win32,60.03842459,5f75d01a857e4e27a575f7ca,64d2fd46c836a06233681665,64dc9aa38682881db2306bcb,,,,,,,sngl,resources/DBN.BMP,resources/Empty.png,WildCard_NonEx,-0.296296296,0.013888889,1,0,0,0.6315,optionLeft,45,9355,5,8,0,8,0,1,,,,,,,,,,,,,,,,,,,,,,,,,,,,,,,,,,,,,,,
,,,,,,,5f75d01a857e4e27a575f7ca,2023-08-16_10h45.31.395,HF_wild_card,2022.2.4,Win32,60.03842459,5f75d01a857e4e27a575f7ca,64d2fd46c836a06233681665,64dc9aa38682881db2306bcb,,,,,,,sngl,resources/Empty.png,resources/DBN.BMP,WildCard_NonEx,0.328703704,-0.005555577,1,0,0,0.5318,optionRight,55,9410,5,9,0,9,0,1,,,,,,,,,,,,,,,,,,,,,,,,,,,,,,,,,,,,,,,
,,,,,,,5f75d01a857e4e27a575f7ca,2023-08-16_10h45.31.395,HF_wild_card,2022.2.4,Win32,60.03842459,5f75d01a857e4e27a575f7ca,64d2fd46c836a06233681665,64dc9aa38682881db2306bcb,,,,,,,decisionTrl,resources/DBN.BMP,resources/DY.BMP,WildCard_NonEx,-0.290740755,0.020370377,1,0,0,1.066,optionLeft,45,9455,5,10,0,10,0,1,,,,,,,,,,,,,,,,,,,,,,,,,,,,,,,,,,,,,,,
,,,,,,,5f75d01a857e4e27a575f7ca,2023-08-16_10h45.31.395,HF_wild_card,2022.2.4,Win32,60.03842459,5f75d01a857e4e27a575f7ca,64d2fd46c836a06233681665,64dc9aa38682881db2306bcb,,,,,,,decisionTrl,resources/DR.BMP,resources/DG.BMP,Door3,-0.27407406,-0.003703718,1,0,0,0.8812,optionLeft,70,9525,5,11,0,11,0,1,,,,,,,,,,,,,,,,,,,,,,,,,,,,,,,,,,,,,,,
,,,,,,,5f75d01a857e4e27a575f7ca,2023-08-16_10h45.31.395,HF_wild_card,2022.2.4,Win32,60.03842459,5f75d01a857e4e27a575f7ca,64d2fd46c836a06233681665,64dc9aa38682881db2306bcb,,,,,,,decisionTrl,resources/DR.BMP,resources/DG.BMP,Door3,-0.272222236,-0.018518519,1,0,0,0.7323,optionLeft,70,9595,5,12,0,12,0,1,,,,,,,,,,,,,,,,,,,,,,,,,,,,,,,,,,,,,,,
,,,,,,,5f75d01a857e4e27a575f7ca,2023-08-16_10h45.31.395,HF_wild_card,2022.2.4,Win32,60.03842459,5f75d01a857e4e27a575f7ca,64d2fd46c836a06233681665,64dc9aa38682881db2306bcb,,,,,,,decisionTrl,resources/DY.BMP,resources/DB.BMP,Door1,0.337037122,0.0074074,1,0,0,1.3148,optionRight,30,9625,5,13,0,13,0,1,,,,,,,,,,,,,,,,,,,,,,,,,,,,,,,,,,,,,,,
,,,,,,,5f75d01a857e4e27a575f7ca,2023-08-16_10h45.31.395,HF_wild_card,2022.2.4,Win32,60.03842459,5f75d01a857e4e27a575f7ca,64d2fd46c836a06233681665,64dc9aa38682881db2306bcb,,,,,,,decisionTrl,resources/DG.BMP,resources/DR.BMP,Door3,0.438888974,0.003703683,1,0,0,0.8634,optionRight,70,9695,5,14,0,14,0,1,,,,,,,,,,,,,,,,,,,,,,,,,,,,,,,,,,,,,,,
,,,,,,,5f75d01a857e4e27a575f7ca,2023-08-16_10h45.31.395,HF_wild_card,2022.2.4,Win32,60.03842459,5f75d01a857e4e27a575f7ca,64d2fd46c836a06233681665,64dc9aa38682881db2306bcb,,,,,,,decisionTrl,resources/DB.BMP,resources/DBN.BMP,WildCard_NonEx,0.285185213,-0.001851859,1,0,0,0.6979,optionRight,55,9750,5,15,0,15,0,1,,,,,,,,,,,,,,,,,,,,,,,,,,,,,,,,,,,,,,,
,,,,,,,5f75d01a857e4e27a575f7ca,2023-08-16_10h45.31.395,HF_wild_card,2022.2.4,Win32,60.03842459,5f75d01a857e4e27a575f7ca,64d2fd46c836a06233681665,64dc9aa38682881db2306bcb,,,,,,,decisionTrl,resources/DB.BMP,resources/DY.BMP,Door1,-0.311111097,0.002777771,1,0,0,1.5283,optionLeft,30,9780,5,16,0,16,0,1,,,,,,,,,,,,,,,,,,,,,,,,,,,,,,,,,,,,,,,
,,,,,,,5f75d01a857e4e27a575f7ca,2023-08-16_10h45.31.395,HF_wild_card,2022.2.4,Win32,60.03842459,5f75d01a857e4e27a575f7ca,64d2fd46c836a06233681665,64dc9aa38682881db2306bcb,,,,,,,sngl,resources/DR.BMP,resources/Empty.png,Door3,-0.339814822,-0.001851859,1,0,0,0.5293,optionLeft,70,9850,5,17,0,17,0,1,,,,,,,,,,,,,,,,,,,,,,,,,,,,,,,,,,,,,,,
,,,,,,,5f75d01a857e4e27a575f7ca,2023-08-16_10h45.31.395,HF_wild_card,2022.2.4,Win32,60.03842459,5f75d01a857e4e27a575f7ca,64d2fd46c836a06233681665,64dc9aa38682881db2306bcb,,,,,,,decisionTrl,resources/DG.BMP,resources/DR.BMP,Door3,0.347222222,0.006481489,1,0,0,0.8853,optionRight,70,9920,5,18,0,18,0,1,,,,,,,,,,,,,,,,,,,,,,,,,,,,,,,,,,,,,,,
,,,,,,,5f75d01a857e4e27a575f7ca,2023-08-16_10h45.31.395,HF_wild_card,2022.2.4,Win32,60.03842459,5f75d01a857e4e27a575f7ca,64d2fd46c836a06233681665,64dc9aa38682881db2306bcb,,,,,,,sngl,resources/DY.BMP,resources/Empty.png,Door2,-0.23055557,0.000925912,1,0,0,0.5481,optionLeft,40,9960,5,19,0,19,0,1,,,,,,,,,,,,,,,,,,,,,,,,,,,,,,,,,,,,,,,
,,,,,,,5f75d01a857e4e27a575f7ca,2023-08-16_10h45.31.395,HF_wild_card,2022.2.4,Win32,60.03842459,5f75d01a857e4e27a575f7ca,64d2fd46c836a06233681665,64dc9aa38682881db2306bcb,,,,,,,decisionTrl,resources/DR.BMP,resources/DG.BMP,Door3,-0.362037023,-0.003703718,1,0,0,0.8126,optionLeft,70,10030,5,20,0,20,0,1,,,,,,,,,,,,,,,,,,,,,,,,,,,,,,,,,,,,,,,
,,,,,,,5f75d01a857e4e27a575f7ca,2023-08-16_10h45.31.395,HF_wild_card,2022.2.4,Win32,60.03842459,5f75d01a857e4e27a575f7ca,64d2fd46c836a06233681665,64dc9aa38682881db2306bcb,,,,,,,decisionTrl,resources/DG.BMP,resources/DR.BMP,Door4,-0.277777778,0.018518519,1,0,0,0.7623,optionLeft,80,10110,5,21,0,21,0,1,,,,,,,,,,,,,,,,,,,,,,,,,,,,,,,,,,,,,,,
,,,,,,,5f75d01a857e4e27a575f7ca,2023-08-16_10h45.31.395,HF_wild_card,2022.2.4,Win32,60.03842459,5f75d01a857e4e27a575f7ca,64d2fd46c836a06233681665,64dc9aa38682881db2306bcb,,,,,,,decisionTrl,resources/DBN.BMP,resources/DG.BMP,Door4,0.478703675,-0.000925947,1,0,0,1.4308,optionRight,60,10170,5,22,0,22,0,1,,,,,,,,,,,,,,,,,,,,,,,,,,,,,,,,,,,,,,,
,,,,,,,5f75d01a857e4e27a575f7ca,2023-08-16_10h45.31.395,HF_wild_card,2022.2.4,Win32,60.03842459,5f75d01a857e4e27a575f7ca,64d2fd46c836a06233681665,64dc9aa38682881db2306bcb,,,,,,,decisionTrl,resources/DY.BMP,resources/DB.BMP,Door1,0.387037065,-0.027777778,1,0,0,1.0464,optionRight,30,10200,5,23,0,23,0,1,,,,,,,,,,,,,,,,,,,,,,,,,,,,,,,,,,,,,,,
,,,,,,,5f75d01a857e4e27a575f7ca,2023-08-16_10h45.31.395,HF_wild_card,2022.2.4,Win32,60.03842459,5f75d01a857e4e27a575f7ca,64d2fd46c836a06233681665,64dc9aa38682881db2306bcb,,,,,,,decisionTrl,resources/DB.BMP,resources/DY.BMP,Door1,-0.41111109,0.011111118,1,0,0,1.0303,optionLeft,30,10230,5,24,0,24,0,1,,,,,,,,,,,,,,,,,,,,,,,,,,,,,,,,,,,,,,,
,,,,,,,5f75d01a857e4e27a575f7ca,2023-08-16_10h45.31.395,HF_wild_card,2022.2.4,Win32,60.03842459,5f75d01a857e4e27a575f7ca,64d2fd46c836a06233681665,64dc9aa38682881db2306bcb,,,,,,,decisionTrl,resources/DY.BMP,resources/DB.BMP,Door1,0.396296325,-0.012962977,1,0,0,0.7651,optionRight,30,10260,5,25,0,25,0,1,,,,,,,,,,,,,,,,,,,,,,,,,,,,,,,,,,,,,,,
,,,,,,,5f75d01a857e4e27a575f7ca,2023-08-16_10h45.31.395,HF_wild_card,2022.2.4,Win32,60.03842459,5f75d01a857e4e27a575f7ca,64d2fd46c836a06233681665,64dc9aa38682881db2306bcb,,,,,,,sngl,resources/Empty.png,resources/DG.BMP,Door4,0.338888945,-0.025925919,1,0,0,0.5626,optionRight,60,10320,5,26,0,26,0,1,,,,,,,,,,,,,,,,,,,,,,,,,,,,,,,,,,,,,,,
,,,,,,,5f75d01a857e4e27a575f7ca,2023-08-16_10h45.31.395,HF_wild_card,2022.2.4,Win32,60.03842459,5f75d01a857e4e27a575f7ca,64d2fd46c836a06233681665,64dc9aa38682881db2306bcb,,,,,,,decisionTrl,resources/DG.BMP,resources/DBN.BMP,Door4,-0.312037044,-0.003703718,1,0,0,1.9668,optionLeft,80,10400,5,27,0,27,0,1,,,,,,,,,,,,,,,,,,,,,,,,,,,,,,,,,,,,,,,
,,,,,,,5f75d01a857e4e27a575f7ca,2023-08-16_10h45.31.395,HF_wild_card,2022.2.4,Win32,60.03842459,5f75d01a857e4e27a575f7ca,64d2fd46c836a06233681665,64dc9aa38682881db2306bcb,,,,,,,ctch,resources/DY.BMP,resources/DR.BMP,Door3,0.369444529,-0.005555577,1,0,0,0.9322,optionRight,70,10470,5,28,0,28,0,1,,,,,,,,,,,,,,,,,,,,,,,,,,,,,,,,,,,,,,,
,,,,,,,5f75d01a857e4e27a575f7ca,2023-08-16_10h45.31.395,HF_wild_card,2022.2.4,Win32,60.03842459,5f75d01a857e4e27a575f7ca,64d2fd46c836a06233681665,64dc9aa38682881db2306bcb,,,,,,,ctch,resources/DR.BMP,resources/DY.BMP,Door3,-0.40648146,-0.001851859,1,0,0,0.6147,optionLeft,70,10540,5,29,0,29,0,1,,,,,,,,,,,,,,,,,,,,,,,,,,,,,,,,,,,,,,,
,,,,,,,5f75d01a857e4e27a575f7ca,2023-08-16_10h45.31.395,HF_wild_card,2022.2.4,Win32,60.03842459,5f75d01a857e4e27a575f7ca,64d2fd46c836a06233681665,64dc9aa38682881db2306bcb,,,,,,,ctch,resources/DR.BMP,resources/DY.BMP,Door3,-0.341666645,-0.006481489,1,0,0,0.5791,optionLeft,70,10610,5,30,0,30,0,1,,,,,,,,,,,,,,,,,,,,,,,,,,,,,,,,,,,,,,,
,,,,,,,5f75d01a857e4e27a575f7ca,2023-08-16_10h45.31.395,HF_wild_card,2022.2.4,Win32,60.03842459,5f75d01a857e4e27a575f7ca,64d2fd46c836a06233681665,64dc9aa38682881db2306bcb,,,,,,,decisionTrl,resources/DR.BMP,resources/DBN.BMP,Door3,-0.348148134,-0.024074095,1,0,0,0.5662,optionLeft,70,10680,5,31,0,31,0,1,,,,,,,,,,,,,,,,,,,,,,,,,,,,,,,,,,,,,,,
,,,,,,,5f75d01a857e4e27a575f7ca,2023-08-16_10h45.31.395,HF_wild_card,2022.2.4,Win32,60.03842459,5f75d01a857e4e27a575f7ca,64d2fd46c836a06233681665,64dc9aa38682881db2306bcb,,,,,,,sngl,resources/DB.BMP,resources/Empty.png,Door1,-0.252777735,-0.025925919,1,0,0,0.5502,optionLeft,30,10710,5,32,0,32,0,1,,,,,,,,,,,,,,,,,,,,,,,,,,,,,,,,,,,,,,,
,,,,,,,5f75d01a857e4e27a575f7ca,2023-08-16_10h45.31.395,HF_wild_card,2022.2.4,Win32,60.03842459,5f75d01a857e4e27a575f7ca,64d2fd46c836a06233681665,64dc9aa38682881db2306bcb,,,,,,,decisionTrl,resources/DG.BMP,resources/DR.BMP,Door4,-0.353703711,0.01666666,1,0,0,0.9969,optionLeft,60,10770,5,33,0,33,0,1,,,,,,,,,,,,,,,,,,,,,,,,,,,,,,,,,,,,,,,
,,,,,,,5f75d01a857e4e27a575f7ca,2023-08-16_10h45.31.395,HF_wild_card,2022.2.4,Win32,60.03842459,5f75d01a857e4e27a575f7ca,64d2fd46c836a06233681665,64dc9aa38682881db2306bcb,,,,,,,ctch,resources/DB.BMP,resources/DG.BMP,Door4,0.424074102,0.000925912,1,0,0,1.2485,optionRight,60,10830,5,34,0,34,0,1,,,,,,,,,,,,,,,,,,,,,,,,,,,,,,,,,,,,,,,
,,,,,,,5f75d01a857e4e27a575f7ca,2023-08-16_10h45.31.395,HF_wild_card,2022.2.4,Win32,60.03842459,5f75d01a857e4e27a575f7ca,64d2fd46c836a06233681665,64dc9aa38682881db2306bcb,,,,,,,decisionTrl,resources/DB.BMP,resources/DY.BMP,Door1,-0.377777771,-0.012962977,1,0,0,1.2641,optionLeft,30,10860,5,35,0,35,0,1,,,,,,,,,,,,,,,,,,,,,,,,,,,,,,,,,,,,,,,
,,,,,,,5f75d01a857e4e27a575f7ca,2023-08-16_10h45.31.395,HF_wild_card,2022.2.4,Win32,60.03842459,5f75d01a857e4e27a575f7ca,64d2fd46c836a06233681665,64dc9aa38682881db2306bcb,,,,,,,decisionTrl,resources/DR.BMP,resources/DG.BMP,Door3,-0.349999993,-0.01666666,1,0,0,0.9989,optionLeft,70,10930,5,36,0,36,0,1,,,,,,,,,,,,,,,,,,,,,,,,,,,,,,,,,,,,,,,
,,,,,,,5f75d01a857e4e27a575f7ca,2023-08-16_10h45.31.395,HF_wild_card,2022.2.4,Win32,60.03842459,5f75d01a857e4e27a575f7ca,64d2fd46c836a06233681665,64dc9aa38682881db2306bcb,,,,,,,ctch,resources/DG.BMP,resources/DB.BMP,Door4,-0.291666667,0.01203703,1,0,0,1.1313,optionLeft,60,10990,5,37,0,37,0,1,,,,,,,,,,,,,,,,,,,,,,,,,,,,,,,,,,,,,,,
,,,,,,,5f75d01a857e4e27a575f7ca,2023-08-16_10h45.31.395,HF_wild_card,2022.2.4,Win32,60.03842459,5f75d01a857e4e27a575f7ca,64d2fd46c836a06233681665,64dc9aa38682881db2306bcb,,,,,,,ctch,resources/DG.BMP,resources/DB.BMP,Door4,-0.337037016,0.006481489,1,0,0,0.5475,optionLeft,60,11050,5,38,0,38,0,1,,,,,,,,,,,,,,,,,,,,,,,,,,,,,,,,,,,,,,,
,,,,,,,5f75d01a857e4e27a575f7ca,2023-08-16_10h45.31.395,HF_wild_card,2022.2.4,Win32,60.03842459,5f75d01a857e4e27a575f7ca,64d2fd46c836a06233681665,64dc9aa38682881db2306bcb,,,,,,,sngl,resources/Empty.png,resources/DBN.BMP,WildCard_NonEx,0.246296282,0.017592571,1,0,0,0.5638,optionRight,45,11095,5,39,0,39,0,1,,,,,,,,,,,,,,,,,,,,,,,,,,,,,,,,,,,,,,,
,,,,,,,5f75d01a857e4e27a575f7ca,2023-08-16_10h45.31.395,HF_wild_card,2022.2.4,Win32,60.03842459,5f75d01a857e4e27a575f7ca,64d2fd46c836a06233681665,64dc9aa38682881db2306bcb,,,,,,,decisionTrl,resources/DBN.BMP,resources/DR.BMP,WildCard_NonEx,-0.220370328,0.029629637,1,0,0,0.6143,optionLeft,55,11150,5,40,0,40,0,1,,,,,,,,,,,,,,,,,,,,,,,,,,,,,,,,,,,,,,,
,,,,,,,5f75d01a857e4e27a575f7ca,2023-08-16_10h45.31.395,HF_wild_card,2022.2.4,Win32,60.03842459,5f75d01a857e4e27a575f7ca,64d2fd46c836a06233681665,64dc9aa38682881db2306bcb,,,,,,,sngl,resources/DBN.BMP,resources/Empty.png,WildCard_NonEx,-0.233333305,0.033333319,1,0,0,0.5151,optionLeft,55,11205,5,41,0,41,0,1,,,,,,,,,,,,,,,,,,,,,,,,,,,,,,,,,,,,,,,
,,,,,,,5f75d01a857e4e27a575f7ca,2023-08-16_10h45.31.395,HF_wild_card,2022.2.4,Win32,60.03842459,5f75d01a857e4e27a575f7ca,64d2fd46c836a06233681665,64dc9aa38682881db2306bcb,,,,,,,sngl,resources/Empty.png,resources/DB.BMP,Door1,0.373148176,0.0074074,1,0,0,0.5492,optionRight,30,11235,5,42,0,42,0,1,,,,,,,,,,,,,,,,,,,,,,,,,,,,,,,,,,,,,,,
,,,,,,,5f75d01a857e4e27a575f7ca,2023-08-16_10h45.31.395,HF_wild_card,2022.2.4,Win32,60.03842459,5f75d01a857e4e27a575f7ca,64d2fd46c836a06233681665,64dc9aa38682881db2306bcb,,,,,,,decisionTrl,resources/DB.BMP,resources/DY.BMP,Door1,-0.366666653,0.017592571,1,0,0,1.0138,optionLeft,30,11265,5,43,0,43,0,1,,,,,,,,,,,,,,,,,,,,,,,,,,,,,,,,,,,,,,,
,,,,,,,5f75d01a857e4e27a575f7ca,2023-08-16_10h45.31.395,HF_wild_card,2022.2.4,Win32,60.03842459,5f75d01a857e4e27a575f7ca,64d2fd46c836a06233681665,64dc9aa38682881db2306bcb,,,,,,,,,,,,,,,,,,,,,,,,,,4,0,4,0,1,,,,,,,,,,,,,,,,,,,,,,,,,,,,,,,,,,
,,,,,,,5f75d01a857e4e27a575f7ca,2023-08-16_10h45.31.395,HF_wild_card,2022.2.4,Win32,60.03842459,5f75d01a857e4e27a575f7ca,64d2fd46c836a06233681665,64dc9aa38682881db2306bcb,,,,,,,ctch,resources/DB.BMP,resources/DG.BMP,Door4,0.357407464,0.046296296,1,0,0,1.2635,optionRight,60,11325,6,0,0,0,0,1,,,,,,,,,,,,,,,,,,,,,,,,,,,,,,,,,,,,,,,
,,,,,,,5f75d01a857e4e27a575f7ca,2023-08-16_10h45.31.395,HF_wild_card,2022.2.4,Win32,60.03842459,5f75d01a857e4e27a575f7ca,64d2fd46c836a06233681665,64dc9aa38682881db2306bcb,,,,,,,decisionTrl,resources/DG.BMP,resources/DR.BMP,Door3,0.367592564,0.00462963,1,0,0,1.1256,optionRight,70,11395,6,1,0,1,0,1,,,,,,,,,,,,,,,,,,,,,,,,,,,,,,,,,,,,,,,
,,,,,,,5f75d01a857e4e27a575f7ca,2023-08-16_10h45.31.395,HF_wild_card,2022.2.4,Win32,60.03842459,5f75d01a857e4e27a575f7ca,64d2fd46c836a06233681665,64dc9aa38682881db2306bcb,,,,,,,sngl,resources/Empty.png,resources/DY.BMP,Door2,0.37962963,0.005555541,1,0,0,0.8301,optionRight,40,11435,6,2,0,2,0,1,,,,,,,,,,,,,,,,,,,,,,,,,,,,,,,,,,,,,,,
,,,,,,,5f75d01a857e4e27a575f7ca,2023-08-16_10h45.31.395,HF_wild_card,2022.2.4,Win32,60.03842459,5f75d01a857e4e27a575f7ca,64d2fd46c836a06233681665,64dc9aa38682881db2306bcb,,,,,,,decisionTrl,resources/DB.BMP,resources/DY.BMP,Door1,-0.37962963,-0.025000007,1,0,0,1.0334,optionLeft,30,11465,6,3,0,3,0,1,,,,,,,,,,,,,,,,,,,,,,,,,,,,,,,,,,,,,,,
,,,,,,,5f75d01a857e4e27a575f7ca,2023-08-16_10h45.31.395,HF_wild_card,2022.2.4,Win32,60.03842459,5f75d01a857e4e27a575f7ca,64d2fd46c836a06233681665,64dc9aa38682881db2306bcb,,,,,,,sngl,resources/Empty.png,resources/DB.BMP,Door1,0.796296296,-0.014814836,1,0,0,0.5502,optionRight,30,11495,6,4,0,4,0,1,,,,,,,,,,,,,,,,,,,,,,,,,,,,,,,,,,,,,,,
,,,,,,,5f75d01a857e4e27a575f7ca,2023-08-16_10h45.31.395,HF_wild_card,2022.2.4,Win32,60.03842459,5f75d01a857e4e27a575f7ca,64d2fd46c836a06233681665,64dc9aa38682881db2306bcb,,,,,,,ctch,resources/DY.BMP,resources/DR.BMP,Door3,0.330555527,0,1,0,0,0.6813,optionRight,70,11565,6,5,0,5,0,1,,,,,,,,,,,,,,,,,,,,,,,,,,,,,,,,,,,,,,,
,,,,,,,5f75d01a857e4e27a575f7ca,2023-08-16_10h45.31.395,HF_wild_card,2022.2.4,Win32,60.03842459,5f75d01a857e4e27a575f7ca,64d2fd46c836a06233681665,64dc9aa38682881db2306bcb,,,,,,,sngl,resources/Empty.png,resources/DR.BMP,Door3,0.349074046,0.010185171,1,0,0,0.5494,optionRight,70,11635,6,6,0,6,0,1,,,,,,,,,,,,,,,,,,,,,,,,,,,,,,,,,,,,,,,
,,,,,,,5f75d01a857e4e27a575f7ca,2023-08-16_10h45.31.395,HF_wild_card,2022.2.4,Win32,60.03842459,5f75d01a857e4e27a575f7ca,64d2fd46c836a06233681665,64dc9aa38682881db2306bcb,,,,,,,decisionTrl,resources/DY.BMP,resources/DB.BMP,Door1,0.349074046,0.012962942,1,0,0,0.7789,optionRight,30,11665,6,7,0,7,0,1,,,,,,,,,,,,,,,,,,,,,,,,,,,,,,,,,,,,,,,
,,,,,,,5f75d01a857e4e27a575f7ca,2023-08-16_10h45.31.395,HF_wild_card,2022.2.4,Win32,60.03842459,5f75d01a857e4e27a575f7ca,64d2fd46c836a06233681665,64dc9aa38682881db2306bcb,,,,,,,sngl,resources/Empty.png,resources/DBN.BMP,WildCard_NonEx,0.283333319,0.04074072,1,0,0,0.6126,optionRight,45,11710,6,8,0,8,0,1,,,,,,,,,,,,,,,,,,,,,,,,,,,,,,,,,,,,,,,
,,,,,,,5f75d01a857e4e27a575f7ca,2023-08-16_10h45.31.395,HF_wild_card,2022.2.4,Win32,60.03842459,5f75d01a857e4e27a575f7ca,64d2fd46c836a06233681665,64dc9aa38682881db2306bcb,,,,,,,decisionTrl,resources/DBN.BMP,resources/DY.BMP,WildCard_NonEx,-0.337962963,0.049074067,1,0,0,0.8296,optionLeft,55,11765,6,9,0,9,0,1,,,,,,,,,,,,,,,,,,,,,,,,,,,,,,,,,,,,,,,
,,,,,,,5f75d01a857e4e27a575f7ca,2023-08-16_10h45.31.395,HF_wild_card,2022.2.4,Win32,60.03842459,5f75d01a857e4e27a575f7ca,64d2fd46c836a06233681665,64dc9aa38682881db2306bcb,,,,,,,decisionTrl,resources/DB.BMP,resources/DY.BMP,Door1,-0.437962956,-0.018518519,1,0,0,1.048,optionLeft,30,11795,6,10,0,10,0,1,,,,,,,,,,,,,,,,,,,,,,,,,,,,,,,,,,,,,,,
,,,,,,,5f75d01a857e4e27a575f7ca,2023-08-16_10h45.31.395,HF_wild_card,2022.2.4,Win32,60.03842459,5f75d01a857e4e27a575f7ca,64d2fd46c836a06233681665,64dc9aa38682881db2306bcb,,,,,,,decisionTrl,resources/DY.BMP,resources/DBN.BMP,WildCard_NonEx,0.272222236,0.009259259,1,0,0,0.6648,optionRight,55,11850,6,11,0,11,0,1,,,,,,,,,,,,,,,,,,,,,,,,,,,,,,,,,,,,,,,
,,,,,,,5f75d01a857e4e27a575f7ca,2023-08-16_10h45.31.395,HF_wild_card,2022.2.4,Win32,60.03842459,5f75d01a857e4e27a575f7ca,64d2fd46c836a06233681665,64dc9aa38682881db2306bcb,,,,,,,decisionTrl,resources/DG.BMP,resources/DR.BMP,Door4,-0.206481439,-0.011111118,1,0,0,1.3834,optionLeft,60,11910,6,12,0,12,0,1,,,,,,,,,,,,,,,,,,,,,,,,,,,,,,,,,,,,,,,
,,,,,,,5f75d01a857e4e27a575f7ca,2023-08-16_10h45.31.395,HF_wild_card,2022.2.4,Win32,60.03842459,5f75d01a857e4e27a575f7ca,64d2fd46c836a06233681665,64dc9aa38682881db2306bcb,,,,,,,sngl,resources/DG.BMP,resources/Empty.png,Door4,-0.267592607,0.033333319,1,0,0,0.4829,optionLeft,60,11970,6,13,0,13,0,1,,,,,,,,,,,,,,,,,,,,,,,,,,,,,,,,,,,,,,,
,,,,,,,5f75d01a857e4e27a575f7ca,2023-08-16_10h45.31.395,HF_wild_card,2022.2.4,Win32,60.03842459,5f75d01a857e4e27a575f7ca,64d2fd46c836a06233681665,64dc9aa38682881db2306bcb,,,,,,,decisionTrl,resources/DR.BMP,resources/DG.BMP,Door3,-0.311111097,-0.012962977,1,0,0,0.6788,optionLeft,70,12040,6,14,0,14,0,1,,,,,,,,,,,,,,,,,,,,,,,,,,,,,,,,,,,,,,,
,,,,,,,5f75d01a857e4e27a575f7ca,2023-08-16_10h45.31.395,HF_wild_card,2022.2.4,Win32,60.03842459,5f75d01a857e4e27a575f7ca,64d2fd46c836a06233681665,64dc9aa38682881db2306bcb,,,,,,,decisionTrl,resources/DB.BMP,resources/DBN.BMP,WildCard_NonEx,0.404629601,0.010185171,1,0,0,1.3149,optionRight,55,12095,6,15,0,15,0,1,,,,,,,,,,,,,,,,,,,,,,,,,,,,,,,,,,,,,,,
,,,,,,,5f75d01a857e4e27a575f7ca,2023-08-16_10h45.31.395,HF_wild_card,2022.2.4,Win32,60.03842459,5f75d01a857e4e27a575f7ca,64d2fd46c836a06233681665,64dc9aa38682881db2306bcb,,,,,,,decisionTrl,resources/DR.BMP,resources/DG.BMP,Door3,-0.310185185,-0.021296289,1,0,0,0.7792,optionLeft,70,12165,6,16,0,16,0,1,,,,,,,,,,,,,,,,,,,,,,,,,,,,,,,,,,,,,,,
,,,,,,,5f75d01a857e4e27a575f7ca,2023-08-16_10h45.31.395,HF_wild_card,2022.2.4,Win32,60.03842459,5f75d01a857e4e27a575f7ca,64d2fd46c836a06233681665,64dc9aa38682881db2306bcb,,,,,,,sngl,resources/DBN.BMP,resources/Empty.png,WildCard_NonEx,-0.235185199,-0.001851859,1,0,0,0.5496,optionLeft,55,12220,6,17,0,17,0,1,,,,,,,,,,,,,,,,,,,,,,,,,,,,,,,,,,,,,,,
,,,,,,,5f75d01a857e4e27a575f7ca,2023-08-16_10h45.31.395,HF_wild_card,2022.2.4,Win32,60.03842459,5f75d01a857e4e27a575f7ca,64d2fd46c836a06233681665,64dc9aa38682881db2306bcb,,,,,,,sngl,resources/DB.BMP,resources/Empty.png,Door1,-0.193518533,0.002777771,1,0,0,0.5169,optionLeft,30,12250,6,18,0,18,0,1,,,,,,,,,,,,,,,,,,,,,,,,,,,,,,,,,,,,,,,
,,,,,,,5f75d01a857e4e27a575f7ca,2023-08-16_10h45.31.395,HF_wild_card,2022.2.4,Win32,60.03842459,5f75d01a857e4e27a575f7ca,64d2fd46c836a06233681665,64dc9aa38682881db2306bcb,,,,,,,decisionTrl,resources/DY.BMP,resources/DB.BMP,Door1,0.474074046,-0.008333347,1,0,0,0.5815,optionRight,30,12280,6,19,0,19,0,1,,,,,,,,,,,,,,,,,,,,,,,,,,,,,,,,,,,,,,,
,,,,,,,5f75d01a857e4e27a575f7ca,2023-08-16_10h45.31.395,HF_wild_card,2022.2.4,Win32,60.03842459,5f75d01a857e4e27a575f7ca,64d2fd46c836a06233681665,64dc9aa38682881db2306bcb,,,,,,,ctch,resources/DY.BMP,resources/DR.BMP,Door3,0.305555556,-0.019444466,1,0,0,0.8834,optionRight,70,12350,6,20,0,20,0,1,,,,,,,,,,,,,,,,,,,,,,,,,,,,,,,,,,,,,,,
,,,,,,,5f75d01a857e4e27a575f7ca,2023-08-16_10h45.31.395,HF_wild_card,2022.2.4,Win32,60.03842459,5f75d01a857e4e27a575f7ca,64d2fd46c836a06233681665,64dc9aa38682881db2306bcb,,,,,,,decisionTrl,resources/DR.BMP,resources/DG.BMP,Door3,-0.332407386,-0.01203703,1,0,0,0.9319,optionLeft,70,12420,6,21,0,21,0,1,,,,,,,,,,,,,,,,,,,,,,,,,,,,,,,,,,,,,,,
,,,,,,,5f75d01a857e4e27a575f7ca,2023-08-16_10h45.31.395,HF_wild_card,2022.2.4,Win32,60.03842459,5f75d01a857e4e27a575f7ca,64d2fd46c836a06233681665,64dc9aa38682881db2306bcb,,,,,,,sngl,resources/Empty.png,resources/DBN.BMP,WildCard_NonEx,0.346296381,-0.018518519,1,0,0,0.5815,optionRight,55,12475,6,22,0,22,0,1,,,,,,,,,,,,,,,,,,,,,,,,,,,,,,,,,,,,,,,
,,,,,,,5f75d01a857e4e27a575f7ca,2023-08-16_10h45.31.395,HF_wild_card,2022.2.4,Win32,60.03842459,5f75d01a857e4e27a575f7ca,64d2fd46c836a06233681665,64dc9aa38682881db2306bcb,,,,,,,ctch,resources/DG.BMP,resources/DB.BMP,Door4,-0.242592564,-0.019444466,1,0,0,0.7141,optionLeft,60,12535,6,23,0,23,0,1,,,,,,,,,,,,,,,,,,,,,,,,,,,,,,,,,,,,,,,
,,,,,,,5f75d01a857e4e27a575f7ca,2023-08-16_10h45.31.395,HF_wild_card,2022.2.4,Win32,60.03842459,5f75d01a857e4e27a575f7ca,64d2fd46c836a06233681665,64dc9aa38682881db2306bcb,,,,,,,ctch,resources/DG.BMP,resources/DB.BMP,Door4,-0.239814829,0.001851859,1,0,0,0.5493,optionLeft,60,12595,6,24,0,24,0,1,,,,,,,,,,,,,,,,,,,,,,,,,,,,,,,,,,,,,,,
,,,,,,,5f75d01a857e4e27a575f7ca,2023-08-16_10h45.31.395,HF_wild_card,2022.2.4,Win32,60.03842459,5f75d01a857e4e27a575f7ca,64d2fd46c836a06233681665,64dc9aa38682881db2306bcb,,,,,,,decisionTrl,resources/DB.BMP,resources/DY.BMP,Door2,0.335185157,0.015740748,1,0,0,1.0146,optionRight,40,12635,6,25,0,25,0,1,,,,,,,,,,,,,,,,,,,,,,,,,,,,,,,,,,,,,,,
,,,,,,,5f75d01a857e4e27a575f7ca,2023-08-16_10h45.31.395,HF_wild_card,2022.2.4,Win32,60.03842459,5f75d01a857e4e27a575f7ca,64d2fd46c836a06233681665,64dc9aa38682881db2306bcb,,,,,,,decisionTrl,resources/DBN.BMP,resources/DB.BMP,WildCard_NonEx,-0.323148127,0.002777771,1,0,0,0.634,optionLeft,55,12690,6,26,0,26,0,1,,,,,,,,,,,,,,,,,,,,,,,,,,,,,,,,,,,,,,,
,,,,,,,5f75d01a857e4e27a575f7ca,2023-08-16_10h45.31.395,HF_wild_card,2022.2.4,Win32,60.03842459,5f75d01a857e4e27a575f7ca,64d2fd46c836a06233681665,64dc9aa38682881db2306bcb,,,,,,,ctch,resources/DR.BMP,resources/DY.BMP,Door3,-0.332407386,-0.01666666,1,0,0,0.8792,optionLeft,70,12760,6,27,0,27,0,1,,,,,,,,,,,,,,,,,,,,,,,,,,,,,,,,,,,,,,,
,,,,,,,5f75d01a857e4e27a575f7ca,2023-08-16_10h45.31.395,HF_wild_card,2022.2.4,Win32,60.03842459,5f75d01a857e4e27a575f7ca,64d2fd46c836a06233681665,64dc9aa38682881db2306bcb,,,,,,,decisionTrl,resources/DB.BMP,resources/DY.BMP,Door2,0.347222222,0.025925919,1,0,0,1.0641,optionRight,40,12800,6,28,0,28,0,1,,,,,,,,,,,,,,,,,,,,,,,,,,,,,,,,,,,,,,,
,,,,,,,5f75d01a857e4e27a575f7ca,2023-08-16_10h45.31.395,HF_wild_card,2022.2.4,Win32,60.03842459,5f75d01a857e4e27a575f7ca,64d2fd46c836a06233681665,64dc9aa38682881db2306bcb,,,,,,,decisionTrl,resources/DR.BMP,resources/DBN.BMP,Door3,-0.366666653,0.015740748,1,0,0,1.2966,optionLeft,70,12870,6,29,0,29,0,1,,,,,,,,,,,,,,,,,,,,,,,,,,,,,,,,,,,,,,,
,,,,,,,5f75d01a857e4e27a575f7ca,2023-08-16_10h45.31.395,HF_wild_card,2022.2.4,Win32,60.03842459,5f75d01a857e4e27a575f7ca,64d2fd46c836a06233681665,64dc9aa38682881db2306bcb,,,,,,,sngl,resources/DBN.BMP,resources/Empty.png,WildCard_NonEx,-0.381481489,0.025000007,1,0,0,0.481,optionLeft,45,12915,6,30,0,30,0,1,,,,,,,,,,,,,,,,,,,,,,,,,,,,,,,,,,,,,,,
,,,,,,,5f75d01a857e4e27a575f7ca,2023-08-16_10h45.31.395,HF_wild_card,2022.2.4,Win32,60.03842459,5f75d01a857e4e27a575f7ca,64d2fd46c836a06233681665,64dc9aa38682881db2306bcb,,,,,,,decisionTrl,resources/DG.BMP,resources/DBN.BMP,WildCard_NonEx,0.374074159,0.009259259,1,0,0,1.4979,optionRight,55,12970,6,31,0,31,0,1,,,,,,,,,,,,,,,,,,,,,,,,,,,,,,,,,,,,,,,
,,,,,,,5f75d01a857e4e27a575f7ca,2023-08-16_10h45.31.395,HF_wild_card,2022.2.4,Win32,60.03842459,5f75d01a857e4e27a575f7ca,64d2fd46c836a06233681665,64dc9aa38682881db2306bcb,,,,,,,decisionTrl,resources/DBN.BMP,resources/DG.BMP,Door4,0.487037094,0.01944443,1,0,0,0.8486,optionRight,80,13050,6,32,0,32,0,1,,,,,,,,,,,,,,,,,,,,,,,,,,,,,,,,,,,,,,,
,,,,,,,5f75d01a857e4e27a575f7ca,2023-08-16_10h45.31.395,HF_wild_card,2022.2.4,Win32,60.03842459,5f75d01a857e4e27a575f7ca,64d2fd46c836a06233681665,64dc9aa38682881db2306bcb,,,,,,,sngl,resources/Empty.png,resources/DG.BMP,Door4,0.388888889,0.017592571,1,0,0,0.551,optionRight,80,13130,6,33,0,33,0,1,,,,,,,,,,,,,,,,,,,,,,,,,,,,,,,,,,,,,,,
,,,,,,,5f75d01a857e4e27a575f7ca,2023-08-16_10h45.31.395,HF_wild_card,2022.2.4,Win32,60.03842459,5f75d01a857e4e27a575f7ca,64d2fd46c836a06233681665,64dc9aa38682881db2306bcb,,,,,,,decisionTrl,resources/DY.BMP,resources/DB.BMP,Door2,-0.257407365,-0.024074095,1,0,0,1.1786,optionLeft,40,13170,6,34,0,34,0,1,,,,,,,,,,,,,,,,,,,,,,,,,,,,,,,,,,,,,,,
,,,,,,,5f75d01a857e4e27a575f7ca,2023-08-16_10h45.31.395,HF_wild_card,2022.2.4,Win32,60.03842459,5f75d01a857e4e27a575f7ca,64d2fd46c836a06233681665,64dc9aa38682881db2306bcb,,,,,,,ctch,resources/DR.BMP,resources/DY.BMP,Door3,-0.39907406,-0.014814836,1,0,0,0.8144,optionLeft,70,13240,6,35,0,35,0,1,,,,,,,,,,,,,,,,,,,,,,,,,,,,,,,,,,,,,,,
,,,,,,,5f75d01a857e4e27a575f7ca,2023-08-16_10h45.31.395,HF_wild_card,2022.2.4,Win32,60.03842459,5f75d01a857e4e27a575f7ca,64d2fd46c836a06233681665,64dc9aa38682881db2306bcb,,,,,,,decisionTrl,resources/DY.BMP,resources/DB.BMP,Door2,-0.196296268,0.008333312,1,0,0,0.879,optionLeft,20,13260,6,36,0,36,0,1,,,,,,,,,,,,,,,,,,,,,,,,,,,,,,,,,,,,,,,
,,,,,,,5f75d01a857e4e27a575f7ca,2023-08-16_10h45.31.395,HF_wild_card,2022.2.4,Win32,60.03842459,5f75d01a857e4e27a575f7ca,64d2fd46c836a06233681665,64dc9aa38682881db2306bcb,,,,,,,sngl,resources/DY.BMP,resources/Empty.png,Door2,-0.248148106,0.010185171,1,0,0,0.5006,optionLeft,20,13280,6,37,0,37,0,1,,,,,,,,,,,,,,,,,,,,,,,,,,,,,,,,,,,,,,,
,,,,,,,5f75d01a857e4e27a575f7ca,2023-08-16_10h45.31.395,HF_wild_card,2022.2.4,Win32,60.03842459,5f75d01a857e4e27a575f7ca,64d2fd46c836a06233681665,64dc9aa38682881db2306bcb,,,,,,,decisionTrl,resources/DBN.BMP,resources/DR.BMP,Door3,0.458333333,0.047222208,1,0,0,0.9006,optionRight,70,13350,6,38,0,38,0,1,,,,,,,,,,,,,,,,,,,,,,,,,,,,,,,,,,,,,,,
,,,,,,,5f75d01a857e4e27a575f7ca,2023-08-16_10h45.31.395,HF_wild_card,2022.2.4,Win32,60.03842459,5f75d01a857e4e27a575f7ca,64d2fd46c836a06233681665,64dc9aa38682881db2306bcb,,,,,,,decisionTrl,resources/DG.BMP,resources/DR.BMP,Door3,0.381481453,0.010185171,1,0,0,1.2246,optionRight,70,13420,6,39,0,39,0,1,,,,,,,,,,,,,,,,,,,,,,,,,,,,,,,,,,,,,,,
,,,,,,,5f75d01a857e4e27a575f7ca,2023-08-16_10h45.31.395,HF_wild_card,2022.2.4,Win32,60.03842459,5f75d01a857e4e27a575f7ca,64d2fd46c836a06233681665,64dc9aa38682881db2306bcb,,,,,,,decisionTrl,resources/DR.BMP,resources/DG.BMP,Door3,-0.263888889,0.011111118,1,0,0,0.6478,optionLeft,70,13490,6,40,0,40,0,1,,,,,,,,,,,,,,,,,,,,,,,,,,,,,,,,,,,,,,,
,,,,,,,5f75d01a857e4e27a575f7ca,2023-08-16_10h45.31.395,HF_wild_card,2022.2.4,Win32,60.03842459,5f75d01a857e4e27a575f7ca,64d2fd46c836a06233681665,64dc9aa38682881db2306bcb,,,,,,,decisionTrl,resources/DG.BMP,resources/DR.BMP,Door3,0.342592593,-0.01203703,1,0,0,0.7792,optionRight,70,13560,6,41,0,41,0,1,,,,,,,,,,,,,,,,,,,,,,,,,,,,,,,,,,,,,,,
,,,,,,,5f75d01a857e4e27a575f7ca,2023-08-16_10h45.31.395,HF_wild_card,2022.2.4,Win32,60.03842459,5f75d01a857e4e27a575f7ca,64d2fd46c836a06233681665,64dc9aa38682881db2306bcb,,,,,,,ctch,resources/DB.BMP,resources/DG.BMP,Door4,0.425925926,0.013888889,1,0,0,1.4448,optionRight,80,13640,6,42,0,42,0,1,,,,,,,,,,,,,,,,,,,,,,,,,,,,,,,,,,,,,,,
,,,,,,,5f75d01a857e4e27a575f7ca,2023-08-16_10h45.31.395,HF_wild_card,2022.2.4,Win32,60.03842459,5f75d01a857e4e27a575f7ca,64d2fd46c836a06233681665,64dc9aa38682881db2306bcb,,,,,,,sngl,resources/DR.BMP,resources/Empty.png,Door3,-0.290740755,-0.001851859,1,0,0,0.5636,optionLeft,70,13710,6,43,0,43,0,1,,,,,,,,,,,,,,,,,,,,,,,,,,,,,,,,,,,,,,,
,,,,,,,5f75d01a857e4e27a575f7ca,2023-08-16_10h45.31.395,HF_wild_card,2022.2.4,Win32,60.03842459,5f75d01a857e4e27a575f7ca,64d2fd46c836a06233681665,64dc9aa38682881db2306bcb,,,,,,,,,,,,,,,,,,,,,,,,,,5,0,5,0,1,,,,,,,,,,,,,,,,,,,,,,,,,,,,,,,,,,
,,,,,,,5f75d01a857e4e27a575f7ca,2023-08-16_10h45.31.395,HF_wild_card,2022.2.4,Win32,60.03842459,5f75d01a857e4e27a575f7ca,64d2fd46c836a06233681665,64dc9aa38682881db2306bcb,,,,,,,ctch,resources/DY.BMP,resources/DR.BMP,Door3,0.430555556,-0.010185206,1,0,0,1.5239,optionRight,70,13780,7,0,0,0,0,1,,,,,,,,,,,,,,,,,,,,,,,,,,,,,,,,,,,,,,,
,,,,,,,5f75d01a857e4e27a575f7ca,2023-08-16_10h45.31.395,HF_wild_card,2022.2.4,Win32,60.03842459,5f75d01a857e4e27a575f7ca,64d2fd46c836a06233681665,64dc9aa38682881db2306bcb,,,,,,,ctch,resources/DG.BMP,resources/DB.BMP,Door4,-0.304629608,0.009259259,1,0,0,1.2647,optionLeft,60,13840,7,1,0,1,0,1,,,,,,,,,,,,,,,,,,,,,,,,,,,,,,,,,,,,,,,
,,,,,,,5f75d01a857e4e27a575f7ca,2023-08-16_10h45.31.395,HF_wild_card,2022.2.4,Win32,60.03842459,5f75d01a857e4e27a575f7ca,64d2fd46c836a06233681665,64dc9aa38682881db2306bcb,,,,,,,decisionTrl,resources/DB.BMP,resources/DY.BMP,Door2,0.388888889,-0.000925947,1,0,0,1.2108,optionRight,20,13860,7,2,0,2,0,1,,,,,,,,,,,,,,,,,,,,,,,,,,,,,,,,,,,,,,,
,,,,,,,5f75d01a857e4e27a575f7ca,2023-08-16_10h45.31.395,HF_wild_card,2022.2.4,Win32,60.03842459,5f75d01a857e4e27a575f7ca,64d2fd46c836a06233681665,64dc9aa38682881db2306bcb,,,,,,,ctch,resources/DY.BMP,resources/DR.BMP,Door3,0.300000085,0.010185171,1,0,0,0.8639,optionRight,70,13930,7,3,0,3,0,1,,,,,,,,,,,,,,,,,,,,,,,,,,,,,,,,,,,,,,,
,,,,,,,5f75d01a857e4e27a575f7ca,2023-08-16_10h45.31.395,HF_wild_card,2022.2.4,Win32,60.03842459,5f75d01a857e4e27a575f7ca,64d2fd46c836a06233681665,64dc9aa38682881db2306bcb,,,,,,,decisionTrl,resources/DY.BMP,resources/DB.BMP,Door2,-0.381481489,0.003703683,1,0,0,1.0483,optionLeft,40,13970,7,4,0,4,0,1,,,,,,,,,,,,,,,,,,,,,,,,,,,,,,,,,,,,,,,
,,,,,,,5f75d01a857e4e27a575f7ca,2023-08-16_10h45.31.395,HF_wild_card,2022.2.4,Win32,60.03842459,5f75d01a857e4e27a575f7ca,64d2fd46c836a06233681665,64dc9aa38682881db2306bcb,,,,,,,ctch,resources/DR.BMP,resources/DY.BMP,Door3,-0.240740741,-0.002777771,1,0,0,0.731,optionLeft,70,14040,7,5,0,5,0,1,,,,,,,,,,,,,,,,,,,,,,,,,,,,,,,,,,,,,,,
,,,,,,,5f75d01a857e4e27a575f7ca,2023-08-16_10h45.31.395,HF_wild_card,2022.2.4,Win32,60.03842459,5f75d01a857e4e27a575f7ca,64d2fd46c836a06233681665,64dc9aa38682881db2306bcb,,,,,,,decisionTrl,resources/DG.BMP,resources/DR.BMP,Door3,0.395370342,-0.005555577,1,0,0,1.1814,optionRight,70,14110,7,6,0,6,0,1,,,,,,,,,,,,,,,,,,,,,,,,,,,,,,,,,,,,,,,
,,,,,,,5f75d01a857e4e27a575f7ca,2023-08-16_10h45.31.395,HF_wild_card,2022.2.4,Win32,60.03842459,5f75d01a857e4e27a575f7ca,64d2fd46c836a06233681665,64dc9aa38682881db2306bcb,,,,,,,decisionTrl,resources/DG.BMP,resources/DR.BMP,Door3,0.359259288,0.017592571,1,0,0,0.6982,optionRight,70,14180,7,7,0,7,0,1,,,,,,,,,,,,,,,,,,,,,,,,,,,,,,,,,,,,,,,
,,,,,,,5f75d01a857e4e27a575f7ca,2023-08-16_10h45.31.395,HF_wild_card,2022.2.4,Win32,60.03842459,5f75d01a857e4e27a575f7ca,64d2fd46c836a06233681665,64dc9aa38682881db2306bcb,,,,,,,ctch,resources/DB.BMP,resources/DG.BMP,Door4,0.375925982,0.002777771,1,0,0,0.9313,optionRight,60,14240,7,8,0,8,0,1,,,,,,,,,,,,,,,,,,,,,,,,,,,,,,,,,,,,,,,
,,,,,,,5f75d01a857e4e27a575f7ca,2023-08-16_10h45.31.395,HF_wild_card,2022.2.4,Win32,60.03842459,5f75d01a857e4e27a575f7ca,64d2fd46c836a06233681665,64dc9aa38682881db2306bcb,,,,,,,ctch,resources/DB.BMP,resources/DG.BMP,Door4,0.327777863,0.008333312,1,0,0,0.6487,optionRight,60,14300,7,9,0,9,0,1,,,,,,,,,,,,,,,,,,,,,,,,,,,,,,,,,,,,,,,
,,,,,,,5f75d01a857e4e27a575f7ca,2023-08-16_10h45.31.395,HF_wild_card,2022.2.4,Win32,60.03842459,5f75d01a857e4e27a575f7ca,64d2fd46c836a06233681665,64dc9aa38682881db2306bcb,,,,,,,ctch,resources/DR.BMP,resources/DY.BMP,Door3,-0.447222215,-0.006481489,1,0,0,0.8817,optionLeft,70,14370,7,10,0,10,0,1,,,,,,,,,,,,,,,,,,,,,,,,,,,,,,,,,,,,,,,
,,,,,,,5f75d01a857e4e27a575f7ca,2023-08-16_10h45.31.395,HF_wild_card,2022.2.4,Win32,60.03842459,5f75d01a857e4e27a575f7ca,64d2fd46c836a06233681665,64dc9aa38682881db2306bcb,,,,,,,ctch,resources/DG.BMP,resources/DB.BMP,Door4,-0.350925905,-0.006481489,1,0,0,0.9662,optionLeft,80,14450,7,11,0,11,0,1,,,,,,,,,,,,,,,,,,,,,,,,,,,,,,,,,,,,,,,
,,,,,,,5f75d01a857e4e27a575f7ca,2023-08-16_10h45.31.395,HF_wild_card,2022.2.4,Win32,60.03842459,5f75d01a857e4e27a575f7ca,64d2fd46c836a06233681665,64dc9aa38682881db2306bcb,,,,,,,decisionTrl,resources/DR.BMP,resources/DG.BMP,Door3,-0.417592578,-0.020370377,1,0,0,0.934,optionLeft,70,14520,7,12,0,12,0,1,,,,,,,,,,,,,,,,,,,,,,,,,,,,,,,,,,,,,,,
,,,,,,,5f75d01a857e4e27a575f7ca,2023-08-16_10h45.31.395,HF_wild_card,2022.2.4,Win32,60.03842459,5f75d01a857e4e27a575f7ca,64d2fd46c836a06233681665,64dc9aa38682881db2306bcb,,,,,,,decisionTrl,resources/DG.BMP,resources/DR.BMP,Door3,0.407407407,0.015740748,1,0,0,0.7016,optionRight,70,14590,7,13,0,13,0,1,,,,,,,,,,,,,,,,,,,,,,,,,,,,,,,,,,,,,,,
,,,,,,,5f75d01a857e4e27a575f7ca,2023-08-16_10h45.31.395,HF_wild_card,2022.2.4,Win32,60.03842459,5f75d01a857e4e27a575f7ca,64d2fd46c836a06233681665,64dc9aa38682881db2306bcb,,,,,,,ctch,resources/DG.BMP,resources/DB.BMP,Door4,-0.292592578,-0.008333347,1,0,0,1.3819,optionLeft,60,14650,7,14,0,14,0,1,,,,,,,,,,,,,,,,,,,,,,,,,,,,,,,,,,,,,,,
,,,,,,,5f75d01a857e4e27a575f7ca,2023-08-16_10h45.31.395,HF_wild_card,2022.2.4,Win32,60.03842459,5f75d01a857e4e27a575f7ca,64d2fd46c836a06233681665,64dc9aa38682881db2306bcb,,,,,,,decisionTrl,resources/DG.BMP,resources/DR.BMP,Door3,0.454629686,-0.008333347,1,0,0,0.8799,optionRight,70,14720,7,15,0,15,0,1,,,,,,,,,,,,,,,,,,,,,,,,,,,,,,,,,,,,,,,
,,,,,,,5f75d01a857e4e27a575f7ca,2023-08-16_10h45.31.395,HF_wild_card,2022.2.4,Win32,60.03842459,5f75d01a857e4e27a575f7ca,64d2fd46c836a06233681665,64dc9aa38682881db2306bcb,,,,,,,decisionTrl,resources/DG.BMP,resources/DR.BMP,Door3,0.321296268,-0.015740748,1,0,0,0.6979,optionRight,70,14790,7,16,0,16,0,1,,,,,,,,,,,,,,,,,,,,,,,,,,,,,,,,,,,,,,,
,,,,,,,5f75d01a857e4e27a575f7ca,2023-08-16_10h45.31.395,HF_wild_card,2022.2.4,Win32,60.03842459,5f75d01a857e4e27a575f7ca,64d2fd46c836a06233681665,64dc9aa38682881db2306bcb,,,,,,,decisionTrl,resources/DR.BMP,resources/DG.BMP,Door3,-0.319444444,-0.025000007,1,0,0,0.4985,optionLeft,70,14860,7,17,0,17,0,1,,,,,,,,,,,,,,,,,,,,,,,,,,,,,,,,,,,,,,,
,,,,,,,5f75d01a857e4e27a575f7ca,2023-08-16_10h45.31.395,HF_wild_card,2022.2.4,Win32,60.03842459,5f75d01a857e4e27a575f7ca,64d2fd46c836a06233681665,64dc9aa38682881db2306bcb,,,,,,,decisionTrl,resources/DY.BMP,resources/DB.BMP,Door2,-0.364814794,-0.031481496,1,0,0,1.0461,optionLeft,20,14880,7,18,0,18,0,1,,,,,,,,,,,,,,,,,,,,,,,,,,,,,,,,,,,,,,,
,,,,,,,5f75d01a857e4e27a575f7ca,2023-08-16_10h45.31.395,HF_wild_card,2022.2.4,Win32,60.03842459,5f75d01a857e4e27a575f7ca,64d2fd46c836a06233681665,64dc9aa38682881db2306bcb,,,,,,,ctch,resources/DY.BMP,resources/DR.BMP,Door3,0.468518575,-0.013888889,1,0,0,0.848,optionRight,70,14950,7,19,0,19,0,1,,,,,,,,,,,,,,,,,,,,,,,,,,,,,,,,,,,,,,,
,,,,,,,5f75d01a857e4e27a575f7ca,2023-08-16_10h45.31.395,HF_wild_card,2022.2.4,Win32,60.03842459,5f75d01a857e4e27a575f7ca,64d2fd46c836a06233681665,64dc9aa38682881db2306bcb,,,,,,,decisionTrl,resources/DB.BMP,resources/DY.BMP,Door2,0.32222225,0.002777771,1,0,0,0.8164,optionRight,20,14970,7,20,0,20,0,1,,,,,,,,,,,,,,,,,,,,,,,,,,,,,,,,,,,,,,,
