Condition,Low fixed image (Door1),Low risky image (Door2),High fixed image (Door3),High risky image (Door4),Extreme Wild Card,NonExtreme Wild Card,,date,expName,psychopyVersion,OS,frameRate,PROLIFIC_PID,STUDY_ID,SESSION_ID,mouse_2.x,mouse_2.y,mouse_2.leftButton,mouse_2.midButton,mouse_2.rightButton,mouse_2.clicked_name,Trial Type,Left Option Image,Right Option Image,Chosen Door,mouse.x,mouse.y,mouse.leftButton,mouse.midButton,mouse.rightButton,mouse.time,mouse.clicked_name,Feedback,Cumulative Reward,Block,trial.thisRepN,trial.thisTrialN,trial.thisN,trial.thisIndex,trial.ran,blocks.thisRepN,blocks.thisTrialN,blocks.thisN,blocks.thisIndex,blocks.ran,Money conversion,First Outcome Reported,Shown Door (First Outcome),Displayed Image (First Outcome),outcomes.thisRepN,outcomes.thisTrialN,outcomes.thisN,outcomes.thisIndex,outcomes.ran,judgments.thisRepN,judgments.thisTrialN,judgments.thisN,judgments.thisIndex,judgments.ran,freqMouse.x,freqMouse.y,freqMouse.leftButton,freqMouse.midButton,freqMouse.rightButton,freqMouse.clicked_name,FQJ for first outcome,FQJ for second outcome,Shown Door,Displayed Image,trials.thisRepN,trials.thisTrialN,trials.thisN,trials.thisIndex,trials.ran,judgBlock.thisRepN,judgBlock.thisTrialN,judgBlock.thisN,judgBlock.thisIndex,judgBlock.ran
1,resources/DBN.BMP,resources/DP.BMP,resources/DB.BMP,resources/DY.BMP,resources/DG.BMP,resources/DR.BMP,,2023-08-03_06h17.07.225,HF_wild_card,2022.2.4,Win32,60.03842459,55e56224c70c7a00112a6565,64b543b0a84ad6ab4a25b86a,64cb378ac069a8412117aa1c,,,,,,,,,,,,,,,,,,,,,,,,,,,,,,,,,,,,,,,,,,,,,,,,,,,,,,,,,,,,,,,,
,,,,,,,,2023-08-03_06h17.07.225,HF_wild_card,2022.2.4,Win32,60.03842459,55e56224c70c7a00112a6565,64b543b0a84ad6ab4a25b86a,64cb378ac069a8412117aa1c,0.025925903,-0.424074097,1,0,0,agree,,,,,,,,,,,,,,,,,,,,,,,,,,,,,,,,,,,,,,,,,,,,,,,,,,,,,,,,,,
,,,,,,,,2023-08-03_06h17.07.225,HF_wild_card,2022.2.4,Win32,60.03842459,55e56224c70c7a00112a6565,64b543b0a84ad6ab4a25b86a,64cb378ac069a8412117aa1c,,,,,,,,,,,,,,,,,,,,,,,,,,,,,,,,,,,,,,,,,,,,,,,,,,,,,,,,,,,,,,,,
,,,,,,,,2023-08-03_06h17.07.225,HF_wild_card,2022.2.4,Win32,60.03842459,55e56224c70c7a00112a6565,64b543b0a84ad6ab4a25b86a,64cb378ac069a8412117aa1c,,,,,,,decisionTrl,resources/DB.BMP,resources/DY.BMP,Door3,-0.236111111,-0.100925903,1,0,0,1.8671,optionLeft,70,70,1,0,0,0,0,1,,,,,,,,,,,,,,,,,,,,,,,,,,,,,,,,,,,,,,,
,,,,,,,,2023-08-03_06h17.07.225,HF_wild_card,2022.2.4,Win32,60.03842459,55e56224c70c7a00112a6565,64b543b0a84ad6ab4a25b86a,64cb378ac069a8412117aa1c,,,,,,,decisionTrl,resources/DBN.BMP,resources/DR.BMP,WildCard_NonEx,0.218518473,0.020370382,1,0,0,1.6253,optionRight,55,125,1,1,0,1,0,1,,,,,,,,,,,,,,,,,,,,,,,,,,,,,,,,,,,,,,,
,,,,,,,,2023-08-03_06h17.07.225,HF_wild_card,2022.2.4,Win32,60.03842459,55e56224c70c7a00112a6565,64b543b0a84ad6ab4a25b86a,64cb378ac069a8412117aa1c,,,,,,,sngl,resources/Empty.png,resources/DR.BMP,WildCard_NonEx,0.375925836,-0.070370348,1,0,0,0.793,optionRight,55,180,1,2,0,2,0,1,,,,,,,,,,,,,,,,,,,,,,,,,,,,,,,,,,,,,,,
,,,,,,,,2023-08-03_06h17.07.225,HF_wild_card,2022.2.4,Win32,60.03842459,55e56224c70c7a00112a6565,64b543b0a84ad6ab4a25b86a,64cb378ac069a8412117aa1c,,,,,,,ctch,resources/DY.BMP,resources/DBN.BMP,Door1,0.262036947,0.017592604,1,0,0,1.2773,optionRight,30,210,1,3,0,3,0,1,,,,,,,,,,,,,,,,,,,,,,,,,,,,,,,,,,,,,,,
,,,,,,,,2023-08-03_06h17.07.225,HF_wild_card,2022.2.4,Win32,60.03842459,55e56224c70c7a00112a6565,64b543b0a84ad6ab4a25b86a,64cb378ac069a8412117aa1c,,,,,,,decisionTrl,resources/DY.BMP,resources/DB.BMP,Door4,-0.227777778,0.006481493,1,0,0,0.6446,optionLeft,60,270,1,4,0,4,0,1,,,,,,,,,,,,,,,,,,,,,,,,,,,,,,,,,,,,,,,
,,,,,,,,2023-08-03_06h17.07.225,HF_wild_card,2022.2.4,Win32,60.03842459,55e56224c70c7a00112a6565,64b543b0a84ad6ab4a25b86a,64cb378ac069a8412117aa1c,,,,,,,sngl,resources/DR.BMP,resources/Empty.png,WildCard_NonEx,-0.265740763,0.020370382,1,0,0,0.7117,optionLeft,55,325,1,5,0,5,0,1,,,,,,,,,,,,,,,,,,,,,,,,,,,,,,,,,,,,,,,
,,,,,,,,2023-08-03_06h17.07.225,HF_wild_card,2022.2.4,Win32,60.03842459,55e56224c70c7a00112a6565,64b543b0a84ad6ab4a25b86a,64cb378ac069a8412117aa1c,,,,,,,ctch,resources/DP.BMP,resources/DB.BMP,Door3,0.246296251,-0.003703681,1,0,0,0.7127,optionRight,70,395,1,6,0,6,0,1,,,,,,,,,,,,,,,,,,,,,,,,,,,,,,,,,,,,,,,
,,,,,,,,2023-08-03_06h17.07.225,HF_wild_card,2022.2.4,Win32,60.03842459,55e56224c70c7a00112a6565,64b543b0a84ad6ab4a25b86a,64cb378ac069a8412117aa1c,,,,,,,decisionTrl,resources/DR.BMP,resources/DP.BMP,WildCard_NonEx,-0.479629618,0,1,0,0,1.1464,optionLeft,55,450,1,7,0,7,0,1,,,,,,,,,,,,,,,,,,,,,,,,,,,,,,,,,,,,,,,
,,,,,,,,2023-08-03_06h17.07.225,HF_wild_card,2022.2.4,Win32,60.03842459,55e56224c70c7a00112a6565,64b543b0a84ad6ab4a25b86a,64cb378ac069a8412117aa1c,,,,,,,decisionTrl,resources/DY.BMP,resources/DB.BMP,Door3,0.294444444,-0.006481459,1,0,0,0.9274,optionRight,70,520,1,8,0,8,0,1,,,,,,,,,,,,,,,,,,,,,,,,,,,,,,,,,,,,,,,
,,,,,,,,2023-08-03_06h17.07.225,HF_wild_card,2022.2.4,Win32,60.03842459,55e56224c70c7a00112a6565,64b543b0a84ad6ab4a25b86a,64cb378ac069a8412117aa1c,,,,,,,decisionTrl,resources/DB.BMP,resources/DY.BMP,Door3,-0.302777778,-0.023148126,1,0,0,0.6746,optionLeft,70,590,1,9,0,9,0,1,,,,,,,,,,,,,,,,,,,,,,,,,,,,,,,,,,,,,,,
,,,,,,,,2023-08-03_06h17.07.225,HF_wild_card,2022.2.4,Win32,60.03842459,55e56224c70c7a00112a6565,64b543b0a84ad6ab4a25b86a,64cb378ac069a8412117aa1c,,,,,,,sngl,resources/Empty.png,resources/DP.BMP,Door2,0.271296251,-0.018518507,1,0,0,0.7957,optionRight,20,610,1,10,0,10,0,1,,,,,,,,,,,,,,,,,,,,,,,,,,,,,,,,,,,,,,,
,,,,,,,,2023-08-03_06h17.07.225,HF_wild_card,2022.2.4,Win32,60.03842459,55e56224c70c7a00112a6565,64b543b0a84ad6ab4a25b86a,64cb378ac069a8412117aa1c,,,,,,,decisionTrl,resources/DP.BMP,resources/DBN.BMP,Door1,0.248148126,0.011111111,1,0,0,0.925,optionRight,30,640,1,11,0,11,0,1,,,,,,,,,,,,,,,,,,,,,,,,,,,,,,,,,,,,,,,
,,,,,,,,2023-08-03_06h17.07.225,HF_wild_card,2022.2.4,Win32,60.03842459,55e56224c70c7a00112a6565,64b543b0a84ad6ab4a25b86a,64cb378ac069a8412117aa1c,,,,,,,decisionTrl,resources/DR.BMP,resources/DY.BMP,Door4,0.286111111,-0.025,1,0,0,1.1441,optionRight,60,700,1,12,0,12,0,1,,,,,,,,,,,,,,,,,,,,,,,,,,,,,,,,,,,,,,,
,,,,,,,,2023-08-03_06h17.07.225,HF_wild_card,2022.2.4,Win32,60.03842459,55e56224c70c7a00112a6565,64b543b0a84ad6ab4a25b86a,64cb378ac069a8412117aa1c,,,,,,,decisionTrl,resources/DR.BMP,resources/DB.BMP,Door3,0.237037014,-0.009259237,1,0,0,0.9444,optionRight,70,770,1,13,0,13,0,1,,,,,,,,,,,,,,,,,,,,,,,,,,,,,,,,,,,,,,,
,,,,,,,,2023-08-03_06h17.07.225,HF_wild_card,2022.2.4,Win32,60.03842459,55e56224c70c7a00112a6565,64b543b0a84ad6ab4a25b86a,64cb378ac069a8412117aa1c,,,,,,,decisionTrl,resources/DY.BMP,resources/DB.BMP,Door4,-0.227777778,-0.008333333,1,0,0,1.1788,optionLeft,80,850,1,14,0,14,0,1,,,,,,,,,,,,,,,,,,,,,,,,,,,,,,,,,,,,,,,
,,,,,,,,2023-08-03_06h17.07.225,HF_wild_card,2022.2.4,Win32,60.03842459,55e56224c70c7a00112a6565,64b543b0a84ad6ab4a25b86a,64cb378ac069a8412117aa1c,,,,,,,decisionTrl,resources/DBN.BMP,resources/DP.BMP,Door1,-0.180555556,-0.009259237,1,0,0,1.0612,optionLeft,30,880,1,15,0,15,0,1,,,,,,,,,,,,,,,,,,,,,,,,,,,,,,,,,,,,,,,
,,,,,,,,2023-08-03_06h17.07.225,HF_wild_card,2022.2.4,Win32,60.03842459,55e56224c70c7a00112a6565,64b543b0a84ad6ab4a25b86a,64cb378ac069a8412117aa1c,,,,,,,decisionTrl,resources/DP.BMP,resources/DBN.BMP,Door2,-0.538888889,-0.499074029,1,0,0,0.9286,optionLeft,20,900,1,16,0,16,0,1,,,,,,,,,,,,,,,,,,,,,,,,,,,,,,,,,,,,,,,
,,,,,,,,2023-08-03_06h17.07.225,HF_wild_card,2022.2.4,Win32,60.03842459,55e56224c70c7a00112a6565,64b543b0a84ad6ab4a25b86a,64cb378ac069a8412117aa1c,,,,,,,decisionTrl,resources/DP.BMP,resources/DBN.BMP,Door1,0.277777778,0.012037048,1,0,0,0.7788,optionRight,30,930,1,17,0,17,0,1,,,,,,,,,,,,,,,,,,,,,,,,,,,,,,,,,,,,,,,
,,,,,,,,2023-08-03_06h17.07.225,HF_wild_card,2022.2.4,Win32,60.03842459,55e56224c70c7a00112a6565,64b543b0a84ad6ab4a25b86a,64cb378ac069a8412117aa1c,,,,,,,sngl,resources/DP.BMP,resources/Empty.png,Door2,-0.223148193,-0.008333333,1,0,0,0.7453,optionLeft,40,970,1,18,0,18,0,1,,,,,,,,,,,,,,,,,,,,,,,,,,,,,,,,,,,,,,,
,,,,,,,,2023-08-03_06h17.07.225,HF_wild_card,2022.2.4,Win32,60.03842459,55e56224c70c7a00112a6565,64b543b0a84ad6ab4a25b86a,64cb378ac069a8412117aa1c,,,,,,,ctch,resources/DBN.BMP,resources/DY.BMP,Door1,-0.278703749,0.022222222,1,0,0,0.7612,optionLeft,30,1000,1,19,0,19,0,1,,,,,,,,,,,,,,,,,,,,,,,,,,,,,,,,,,,,,,,
,,,,,,,,2023-08-03_06h17.07.225,HF_wild_card,2022.2.4,Win32,60.03842459,55e56224c70c7a00112a6565,64b543b0a84ad6ab4a25b86a,64cb378ac069a8412117aa1c,,,,,,,decisionTrl,resources/DP.BMP,resources/DBN.BMP,Door2,-0.248148193,-0.031481459,1,0,0,0.8436,optionLeft,40,1040,1,20,0,20,0,1,,,,,,,,,,,,,,,,,,,,,,,,,,,,,,,,,,,,,,,
,,,,,,,,2023-08-03_06h17.07.225,HF_wild_card,2022.2.4,Win32,60.03842459,55e56224c70c7a00112a6565,64b543b0a84ad6ab4a25b86a,64cb378ac069a8412117aa1c,,,,,,,ctch,resources/DP.BMP,resources/DB.BMP,Door3,0.264814724,-0.032407396,1,0,0,0.9599,optionRight,70,1110,1,21,0,21,0,1,,,,,,,,,,,,,,,,,,,,,,,,,,,,,,,,,,,,,,,
,,,,,,,,2023-08-03_06h17.07.225,HF_wild_card,2022.2.4,Win32,60.03842459,55e56224c70c7a00112a6565,64b543b0a84ad6ab4a25b86a,64cb378ac069a8412117aa1c,,,,,,,ctch,resources/DY.BMP,resources/DBN.BMP,Door1,0.199074029,0.014814826,1,0,0,1.3421,optionRight,30,1140,1,22,0,22,0,1,,,,,,,,,,,,,,,,,,,,,,,,,,,,,,,,,,,,,,,
,,,,,,,,2023-08-03_06h17.07.225,HF_wild_card,2022.2.4,Win32,60.03842459,55e56224c70c7a00112a6565,64b543b0a84ad6ab4a25b86a,64cb378ac069a8412117aa1c,,,,,,,sngl,resources/Empty.png,resources/DB.BMP,Door3,0.18518514,0.004629652,1,0,0,0.9166,optionRight,70,1210,1,23,0,23,0,1,,,,,,,,,,,,,,,,,,,,,,,,,,,,,,,,,,,,,,,
,,,,,,,,2023-08-03_06h17.07.225,HF_wild_card,2022.2.4,Win32,60.03842459,55e56224c70c7a00112a6565,64b543b0a84ad6ab4a25b86a,64cb378ac069a8412117aa1c,,,,,,,decisionTrl,resources/DP.BMP,resources/DR.BMP,Door2,-0.153703681,-0.006481459,1,0,0,1.8106,optionLeft,20,1230,1,24,0,24,0,1,,,,,,,,,,,,,,,,,,,,,,,,,,,,,,,,,,,,,,,
,,,,,,,,2023-08-03_06h17.07.225,HF_wild_card,2022.2.4,Win32,60.03842459,55e56224c70c7a00112a6565,64b543b0a84ad6ab4a25b86a,64cb378ac069a8412117aa1c,,,,,,,decisionTrl,resources/DB.BMP,resources/DY.BMP,Door3,-0.164814792,-0.072222222,1,0,0,1.474,optionLeft,70,1300,1,25,0,25,0,1,,,,,,,,,,,,,,,,,,,,,,,,,,,,,,,,,,,,,,,
,,,,,,,,2023-08-03_06h17.07.225,HF_wild_card,2022.2.4,Win32,60.03842459,55e56224c70c7a00112a6565,64b543b0a84ad6ab4a25b86a,64cb378ac069a8412117aa1c,,,,,,,decisionTrl,resources/DR.BMP,resources/DBN.BMP,WildCard_NonEx,-0.162962986,-0.033333333,1,0,0,0.8773,optionLeft,45,1345,1,26,0,26,0,1,,,,,,,,,,,,,,,,,,,,,,,,,,,,,,,,,,,,,,,
,,,,,,,,2023-08-03_06h17.07.225,HF_wild_card,2022.2.4,Win32,60.03842459,55e56224c70c7a00112a6565,64b543b0a84ad6ab4a25b86a,64cb378ac069a8412117aa1c,,,,,,,decisionTrl,resources/DBN.BMP,resources/DP.BMP,Door2,0.183333333,0.020370382,1,0,0,0.8101,optionRight,20,1365,1,27,0,27,0,1,,,,,,,,,,,,,,,,,,,,,,,,,,,,,,,,,,,,,,,
,,,,,,,,2023-08-03_06h17.07.225,HF_wild_card,2022.2.4,Win32,60.03842459,55e56224c70c7a00112a6565,64b543b0a84ad6ab4a25b86a,64cb378ac069a8412117aa1c,,,,,,,sngl,resources/Empty.png,resources/DY.BMP,Door4,0.24259257,-0.028703681,1,0,0,0.7623,optionRight,60,1425,1,28,0,28,0,1,,,,,,,,,,,,,,,,,,,,,,,,,,,,,,,,,,,,,,,
,,,,,,,,2023-08-03_06h17.07.225,HF_wild_card,2022.2.4,Win32,60.03842459,55e56224c70c7a00112a6565,64b543b0a84ad6ab4a25b86a,64cb378ac069a8412117aa1c,,,,,,,decisionTrl,resources/DB.BMP,resources/DR.BMP,Door3,-0.687962969,-0.499074029,1,0,0,1.1695,optionLeft,70,1495,1,29,0,29,0,1,,,,,,,,,,,,,,,,,,,,,,,,,,,,,,,,,,,,,,,
,,,,,,,,2023-08-03_06h17.07.225,HF_wild_card,2022.2.4,Win32,60.03842459,55e56224c70c7a00112a6565,64b543b0a84ad6ab4a25b86a,64cb378ac069a8412117aa1c,,,,,,,sngl,resources/DY.BMP,resources/Empty.png,Door4,-0.203703749,-0.018518507,1,0,0,0.7304,optionLeft,80,1575,1,30,0,30,0,1,,,,,,,,,,,,,,,,,,,,,,,,,,,,,,,,,,,,,,,
,,,,,,,,2023-08-03_06h17.07.225,HF_wild_card,2022.2.4,Win32,60.03842459,55e56224c70c7a00112a6565,64b543b0a84ad6ab4a25b86a,64cb378ac069a8412117aa1c,,,,,,,sngl,resources/DB.BMP,resources/Empty.png,Door3,-0.219444444,-0.005555556,1,0,0,0.8117,optionLeft,70,1645,1,31,0,31,0,1,,,,,,,,,,,,,,,,,,,,,,,,,,,,,,,,,,,,,,,
,,,,,,,,2023-08-03_06h17.07.225,HF_wild_card,2022.2.4,Win32,60.03842459,55e56224c70c7a00112a6565,64b543b0a84ad6ab4a25b86a,64cb378ac069a8412117aa1c,,,,,,,ctch,resources/DB.BMP,resources/DP.BMP,Door3,-0.256481527,-0.024074063,1,0,0,1.0614,optionLeft,70,1715,1,32,0,32,0,1,,,,,,,,,,,,,,,,,,,,,,,,,,,,,,,,,,,,,,,
,,,,,,,,2023-08-03_06h17.07.225,HF_wild_card,2022.2.4,Win32,60.03842459,55e56224c70c7a00112a6565,64b543b0a84ad6ab4a25b86a,64cb378ac069a8412117aa1c,,,,,,,decisionTrl,resources/DB.BMP,resources/DY.BMP,Door3,-0.206481527,-0.028703681,1,0,0,0.7617,optionLeft,70,1785,1,33,0,33,0,1,,,,,,,,,,,,,,,,,,,,,,,,,,,,,,,,,,,,,,,
,,,,,,,,2023-08-03_06h17.07.225,HF_wild_card,2022.2.4,Win32,60.03842459,55e56224c70c7a00112a6565,64b543b0a84ad6ab4a25b86a,64cb378ac069a8412117aa1c,,,,,,,sngl,resources/Empty.png,resources/DBN.BMP,Door1,0.306481391,0.035185174,1,0,0,0.862,optionRight,30,1815,1,34,0,34,0,1,,,,,,,,,,,,,,,,,,,,,,,,,,,,,,,,,,,,,,,
,,,,,,,,2023-08-03_06h17.07.225,HF_wild_card,2022.2.4,Win32,60.03842459,55e56224c70c7a00112a6565,64b543b0a84ad6ab4a25b86a,64cb378ac069a8412117aa1c,,,,,,,ctch,resources/DB.BMP,resources/DP.BMP,Door3,-0.158333266,-0.038888889,1,0,0,1.7612,optionLeft,70,1885,1,35,0,35,0,1,,,,,,,,,,,,,,,,,,,,,,,,,,,,,,,,,,,,,,,
,,,,,,,,2023-08-03_06h17.07.225,HF_wild_card,2022.2.4,Win32,60.03842459,55e56224c70c7a00112a6565,64b543b0a84ad6ab4a25b86a,64cb378ac069a8412117aa1c,,,,,,,decisionTrl,resources/DBN.BMP,resources/DP.BMP,Door2,0.229629584,-0.002777778,1,0,0,1.1931,optionRight,40,1925,1,36,0,36,0,1,,,,,,,,,,,,,,,,,,,,,,,,,,,,,,,,,,,,,,,
,,,,,,,,2023-08-03_06h17.07.225,HF_wild_card,2022.2.4,Win32,60.03842459,55e56224c70c7a00112a6565,64b543b0a84ad6ab4a25b86a,64cb378ac069a8412117aa1c,,,,,,,decisionTrl,resources/DY.BMP,resources/DB.BMP,Door4,-0.168518541,-0.055555556,1,0,0,0.9963,optionLeft,80,2005,1,37,0,37,0,1,,,,,,,,,,,,,,,,,,,,,,,,,,,,,,,,,,,,,,,
,,,,,,,,2023-08-03_06h17.07.225,HF_wild_card,2022.2.4,Win32,60.03842459,55e56224c70c7a00112a6565,64b543b0a84ad6ab4a25b86a,64cb378ac069a8412117aa1c,,,,,,,decisionTrl,resources/DY.BMP,resources/DR.BMP,Door4,-0.222222222,-0.001851841,1,0,0,0.8768,optionLeft,60,2065,1,38,0,38,0,1,,,,,,,,,,,,,,,,,,,,,,,,,,,,,,,,,,,,,,,
,,,,,,,,2023-08-03_06h17.07.225,HF_wild_card,2022.2.4,Win32,60.03842459,55e56224c70c7a00112a6565,64b543b0a84ad6ab4a25b86a,64cb378ac069a8412117aa1c,,,,,,,sngl,resources/DR.BMP,resources/Empty.png,WildCard_NonEx,-0.191666667,-0.058333333,1,0,0,0.8086,optionLeft,45,2110,1,39,0,39,0,1,,,,,,,,,,,,,,,,,,,,,,,,,,,,,,,,,,,,,,,
,,,,,,,,2023-08-03_06h17.07.225,HF_wild_card,2022.2.4,Win32,60.03842459,55e56224c70c7a00112a6565,64b543b0a84ad6ab4a25b86a,64cb378ac069a8412117aa1c,,,,,,,decisionTrl,resources/DBN.BMP,resources/DP.BMP,Door2,0.15,-0.003703681,1,0,0,1.6587,optionRight,20,2130,1,40,0,40,0,1,,,,,,,,,,,,,,,,,,,,,,,,,,,,,,,,,,,,,,,
,,,,,,,,2023-08-03_06h17.07.225,HF_wild_card,2022.2.4,Win32,60.03842459,55e56224c70c7a00112a6565,64b543b0a84ad6ab4a25b86a,64cb378ac069a8412117aa1c,,,,,,,sngl,resources/DBN.BMP,resources/Empty.png,Door1,-0.23981486,0.028703715,1,0,0,0.7278,optionLeft,30,2160,1,41,0,41,0,1,,,,,,,,,,,,,,,,,,,,,,,,,,,,,,,,,,,,,,,
,,,,,,,,2023-08-03_06h17.07.225,HF_wild_card,2022.2.4,Win32,60.03842459,55e56224c70c7a00112a6565,64b543b0a84ad6ab4a25b86a,64cb378ac069a8412117aa1c,,,,,,,ctch,resources/DBN.BMP,resources/DY.BMP,Door4,0.190740696,0.010185208,1,0,0,0.8777,optionRight,80,2240,1,42,0,42,0,1,,,,,,,,,,,,,,,,,,,,,,,,,,,,,,,,,,,,,,,
,,,,,,,,2023-08-03_06h17.07.225,HF_wild_card,2022.2.4,Win32,60.03842459,55e56224c70c7a00112a6565,64b543b0a84ad6ab4a25b86a,64cb378ac069a8412117aa1c,,,,,,,sngl,resources/Empty.png,resources/DR.BMP,WildCard_NonEx,0.27037028,-0.020370348,1,0,0,0.9898,optionRight,45,2285,1,43,0,43,0,1,,,,,,,,,,,,,,,,,,,,,,,,,,,,,,,,,,,,,,,
,,,,,,,,2023-08-03_06h17.07.225,HF_wild_card,2022.2.4,Win32,60.03842459,55e56224c70c7a00112a6565,64b543b0a84ad6ab4a25b86a,64cb378ac069a8412117aa1c,,,,,,,,,,,,,,,,,,,,,,,,,,0,0,0,0,1,,,,,,,,,,,,,,,,,,,,,,,,,,,,,,,,,,
,,,,,,,,2023-08-03_06h17.07.225,HF_wild_card,2022.2.4,Win32,60.03842459,55e56224c70c7a00112a6565,64b543b0a84ad6ab4a25b86a,64cb378ac069a8412117aa1c,,,,,,,sngl,resources/Empty.png,resources/DR.BMP,WildCard_NonEx,0.309259169,-0.025,1,0,0,0.6585,optionRight,45,2330,2,0,0,0,0,1,,,,,,,,,,,,,,,,,,,,,,,,,,,,,,,,,,,,,,,
,,,,,,,,2023-08-03_06h17.07.225,HF_wild_card,2022.2.4,Win32,60.03842459,55e56224c70c7a00112a6565,64b543b0a84ad6ab4a25b86a,64cb378ac069a8412117aa1c,,,,,,,ctch,resources/DY.BMP,resources/DBN.BMP,Door4,-0.247222222,-0.014814792,1,0,0,0.6585,optionLeft,60,2390,2,1,0,1,0,1,,,,,,,,,,,,,,,,,,,,,,,,,,,,,,,,,,,,,,,
,,,,,,,,2023-08-03_06h17.07.225,HF_wild_card,2022.2.4,Win32,60.03842459,55e56224c70c7a00112a6565,64b543b0a84ad6ab4a25b86a,64cb378ac069a8412117aa1c,,,,,,,sngl,resources/DY.BMP,resources/Empty.png,Door4,-0.149999932,-0.012037014,1,0,0,0.495,optionLeft,60,2450,2,2,0,2,0,1,,,,,,,,,,,,,,,,,,,,,,,,,,,,,,,,,,,,,,,
,,,,,,,,2023-08-03_06h17.07.225,HF_wild_card,2022.2.4,Win32,60.03842459,55e56224c70c7a00112a6565,64b543b0a84ad6ab4a25b86a,64cb378ac069a8412117aa1c,,,,,,,decisionTrl,resources/DP.BMP,resources/DBN.BMP,Door1,0.256481391,-0.006481459,1,0,0,0.6293,optionRight,30,2480,2,3,0,3,0,1,,,,,,,,,,,,,,,,,,,,,,,,,,,,,,,,,,,,,,,
,,,,,,,,2023-08-03_06h17.07.225,HF_wild_card,2022.2.4,Win32,60.03842459,55e56224c70c7a00112a6565,64b543b0a84ad6ab4a25b86a,64cb378ac069a8412117aa1c,,,,,,,ctch,resources/DBN.BMP,resources/DY.BMP,Door4,0.272222222,-0.099074029,1,0,0,0.6642,optionRight,80,2560,2,4,0,4,0,1,,,,,,,,,,,,,,,,,,,,,,,,,,,,,,,,,,,,,,,
,,,,,,,,2023-08-03_06h17.07.225,HF_wild_card,2022.2.4,Win32,60.03842459,55e56224c70c7a00112a6565,64b543b0a84ad6ab4a25b86a,64cb378ac069a8412117aa1c,,,,,,,sngl,resources/Empty.png,resources/DP.BMP,Door2,0.271296251,-0.032407396,1,0,0,0.6288,optionRight,40,2600,2,5,0,5,0,1,,,,,,,,,,,,,,,,,,,,,,,,,,,,,,,,,,,,,,,
,,,,,,,,2023-08-03_06h17.07.225,HF_wild_card,2022.2.4,Win32,60.03842459,55e56224c70c7a00112a6565,64b543b0a84ad6ab4a25b86a,64cb378ac069a8412117aa1c,,,,,,,sngl,resources/DR.BMP,resources/Empty.png,WildCard_NonEx,-0.267592638,-0.013888889,1,0,0,0.5955,optionLeft,55,2655,2,6,0,6,0,1,,,,,,,,,,,,,,,,,,,,,,,,,,,,,,,,,,,,,,,
,,,,,,,,2023-08-03_06h17.07.225,HF_wild_card,2022.2.4,Win32,60.03842459,55e56224c70c7a00112a6565,64b543b0a84ad6ab4a25b86a,64cb378ac069a8412117aa1c,,,,,,,decisionTrl,resources/DR.BMP,resources/DB.BMP,Door3,0.255555556,-0.118518473,1,0,0,0.7961,optionRight,70,2725,2,7,0,7,0,1,,,,,,,,,,,,,,,,,,,,,,,,,,,,,,,,,,,,,,,
,,,,,,,,2023-08-03_06h17.07.225,HF_wild_card,2022.2.4,Win32,60.03842459,55e56224c70c7a00112a6565,64b543b0a84ad6ab4a25b86a,64cb378ac069a8412117aa1c,,,,,,,decisionTrl,resources/DY.BMP,resources/DB.BMP,Door4,-0.345370382,-0.025,1,0,0,0.9956,optionLeft,80,2805,2,8,0,8,0,1,,,,,,,,,,,,,,,,,,,,,,,,,,,,,,,,,,,,,,,
,,,,,,,,2023-08-03_06h17.07.225,HF_wild_card,2022.2.4,Win32,60.03842459,55e56224c70c7a00112a6565,64b543b0a84ad6ab4a25b86a,64cb378ac069a8412117aa1c,,,,,,,sngl,resources/Empty.png,resources/DR.BMP,WildCard_NonEx,0.279629584,-0.035185174,1,0,0,0.6336,optionRight,55,2860,2,9,0,9,0,1,,,,,,,,,,,,,,,,,,,,,,,,,,,,,,,,,,,,,,,
,,,,,,,,2023-08-03_06h17.07.225,HF_wild_card,2022.2.4,Win32,60.03842459,55e56224c70c7a00112a6565,64b543b0a84ad6ab4a25b86a,64cb378ac069a8412117aa1c,,,,,,,decisionTrl,resources/DB.BMP,resources/DY.BMP,Door4,0.226851807,-0.025,1,0,0,0.6359,optionRight,60,2920,2,10,0,10,0,1,,,,,,,,,,,,,,,,,,,,,,,,,,,,,,,,,,,,,,,
,,,,,,,,2023-08-03_06h17.07.225,HF_wild_card,2022.2.4,Win32,60.03842459,55e56224c70c7a00112a6565,64b543b0a84ad6ab4a25b86a,64cb378ac069a8412117aa1c,,,,,,,decisionTrl,resources/DY.BMP,resources/DB.BMP,Door4,-0.238888889,0.006481493,1,0,0,0.599,optionLeft,60,2980,2,11,0,11,0,1,,,,,,,,,,,,,,,,,,,,,,,,,,,,,,,,,,,,,,,
,,,,,,,,2023-08-03_06h17.07.225,HF_wild_card,2022.2.4,Win32,60.03842459,55e56224c70c7a00112a6565,64b543b0a84ad6ab4a25b86a,64cb378ac069a8412117aa1c,,,,,,,ctch,resources/DP.BMP,resources/DB.BMP,Door3,0.27037028,-0.013888889,1,0,0,0.5924,optionRight,70,3050,2,12,0,12,0,1,,,,,,,,,,,,,,,,,,,,,,,,,,,,,,,,,,,,,,,
,,,,,,,,2023-08-03_06h17.07.225,HF_wild_card,2022.2.4,Win32,60.03842459,55e56224c70c7a00112a6565,64b543b0a84ad6ab4a25b86a,64cb378ac069a8412117aa1c,,,,,,,sngl,resources/DBN.BMP,resources/Empty.png,Door1,-0.198148193,-0.005555556,1,0,0,0.6486,optionLeft,30,3080,2,13,0,13,0,1,,,,,,,,,,,,,,,,,,,,,,,,,,,,,,,,,,,,,,,
,,,,,,,,2023-08-03_06h17.07.225,HF_wild_card,2022.2.4,Win32,60.03842459,55e56224c70c7a00112a6565,64b543b0a84ad6ab4a25b86a,64cb378ac069a8412117aa1c,,,,,,,decisionTrl,resources/DBN.BMP,resources/DP.BMP,Door2,0.241666667,-0.087962918,1,0,0,0.7251,optionRight,40,3120,2,14,0,14,0,1,,,,,,,,,,,,,,,,,,,,,,,,,,,,,,,,,,,,,,,
,,,,,,,,2023-08-03_06h17.07.225,HF_wild_card,2022.2.4,Win32,60.03842459,55e56224c70c7a00112a6565,64b543b0a84ad6ab4a25b86a,64cb378ac069a8412117aa1c,,,,,,,decisionTrl,resources/DR.BMP,resources/DY.BMP,Door4,0.168518473,-0.037962952,1,0,0,0.7093,optionRight,80,3200,2,15,0,15,0,1,,,,,,,,,,,,,,,,,,,,,,,,,,,,,,,,,,,,,,,
,,,,,,,,2023-08-03_06h17.07.225,HF_wild_card,2022.2.4,Win32,60.03842459,55e56224c70c7a00112a6565,64b543b0a84ad6ab4a25b86a,64cb378ac069a8412117aa1c,,,,,,,sngl,resources/DB.BMP,resources/Empty.png,Door3,-0.20740743,-0.026851841,1,0,0,0.6148,optionLeft,70,3270,2,16,0,16,0,1,,,,,,,,,,,,,,,,,,,,,,,,,,,,,,,,,,,,,,,
,,,,,,,,2023-08-03_06h17.07.225,HF_wild_card,2022.2.4,Win32,60.03842459,55e56224c70c7a00112a6565,64b543b0a84ad6ab4a25b86a,64cb378ac069a8412117aa1c,,,,,,,decisionTrl,resources/DBN.BMP,resources/DP.BMP,Door2,0.189814792,-0.051851841,1,0,0,1.5644,optionRight,40,3310,2,17,0,17,0,1,,,,,,,,,,,,,,,,,,,,,,,,,,,,,,,,,,,,,,,
,,,,,,,,2023-08-03_06h17.07.225,HF_wild_card,2022.2.4,Win32,60.03842459,55e56224c70c7a00112a6565,64b543b0a84ad6ab4a25b86a,64cb378ac069a8412117aa1c,,,,,,,sngl,resources/DR.BMP,resources/Empty.png,WildCard_NonEx,-0.174074097,-0.012037014,1,0,0,0.6108,optionLeft,45,3355,2,18,0,18,0,1,,,,,,,,,,,,,,,,,,,,,,,,,,,,,,,,,,,,,,,
,,,,,,,,2023-08-03_06h17.07.225,HF_wild_card,2022.2.4,Win32,60.03842459,55e56224c70c7a00112a6565,64b543b0a84ad6ab4a25b86a,64cb378ac069a8412117aa1c,,,,,,,decisionTrl,resources/DBN.BMP,resources/DP.BMP,Door2,0.199074029,-0.018518507,1,0,0,0.9276,optionRight,40,3395,2,19,0,19,0,1,,,,,,,,,,,,,,,,,,,,,,,,,,,,,,,,,,,,,,,
,,,,,,,,2023-08-03_06h17.07.225,HF_wild_card,2022.2.4,Win32,60.03842459,55e56224c70c7a00112a6565,64b543b0a84ad6ab4a25b86a,64cb378ac069a8412117aa1c,,,,,,,decisionTrl,resources/DY.BMP,resources/DR.BMP,Door4,-0.234259304,-0.021296285,1,0,0,0.7643,optionLeft,60,3455,2,20,0,20,0,1,,,,,,,,,,,,,,,,,,,,,,,,,,,,,,,,,,,,,,,
,,,,,,,,2023-08-03_06h17.07.225,HF_wild_card,2022.2.4,Win32,60.03842459,55e56224c70c7a00112a6565,64b543b0a84ad6ab4a25b86a,64cb378ac069a8412117aa1c,,,,,,,ctch,resources/DBN.BMP,resources/DY.BMP,Door4,0.184259237,-0.046296285,1,0,0,0.6638,optionRight,80,3535,2,21,0,21,0,1,,,,,,,,,,,,,,,,,,,,,,,,,,,,,,,,,,,,,,,
,,,,,,,,2023-08-03_06h17.07.225,HF_wild_card,2022.2.4,Win32,60.03842459,55e56224c70c7a00112a6565,64b543b0a84ad6ab4a25b86a,64cb378ac069a8412117aa1c,,,,,,,decisionTrl,resources/DB.BMP,resources/DR.BMP,Door3,-0.237037082,-0.023148126,1,0,0,0.7897,optionLeft,70,3605,2,22,0,22,0,1,,,,,,,,,,,,,,,,,,,,,,,,,,,,,,,,,,,,,,,
,,,,,,,,2023-08-03_06h17.07.225,HF_wild_card,2022.2.4,Win32,60.03842459,55e56224c70c7a00112a6565,64b543b0a84ad6ab4a25b86a,64cb378ac069a8412117aa1c,,,,,,,decisionTrl,resources/DR.BMP,resources/DP.BMP,WildCard_NonEx,-0.206481527,-0.063888889,1,0,0,1.4938,optionLeft,45,3650,2,23,0,23,0,1,,,,,,,,,,,,,,,,,,,,,,,,,,,,,,,,,,,,,,,
,,,,,,,,2023-08-03_06h17.07.225,HF_wild_card,2022.2.4,Win32,60.03842459,55e56224c70c7a00112a6565,64b543b0a84ad6ab4a25b86a,64cb378ac069a8412117aa1c,,,,,,,decisionTrl,resources/DBN.BMP,resources/DR.BMP,WildCard_NonEx,0.168518473,-0.060185174,1,0,0,0.8306,optionRight,45,3695,2,24,0,24,0,1,,,,,,,,,,,,,,,,,,,,,,,,,,,,,,,,,,,,,,,
,,,,,,,,2023-08-03_06h17.07.225,HF_wild_card,2022.2.4,Win32,60.03842459,55e56224c70c7a00112a6565,64b543b0a84ad6ab4a25b86a,64cb378ac069a8412117aa1c,,,,,,,decisionTrl,resources/DP.BMP,resources/DBN.BMP,Door2,-0.284259304,-0.096296251,1,0,0,1.5451,optionLeft,40,3735,2,25,0,25,0,1,,,,,,,,,,,,,,,,,,,,,,,,,,,,,,,,,,,,,,,
,,,,,,,,2023-08-03_06h17.07.225,HF_wild_card,2022.2.4,Win32,60.03842459,55e56224c70c7a00112a6565,64b543b0a84ad6ab4a25b86a,64cb378ac069a8412117aa1c,,,,,,,sngl,resources/DP.BMP,resources/Empty.png,Door2,-0.056481459,-0.004629618,1,0,0,0.6757,optionLeft,20,3755,2,26,0,26,0,1,,,,,,,,,,,,,,,,,,,,,,,,,,,,,,,,,,,,,,,
,,,,,,,,2023-08-03_06h17.07.225,HF_wild_card,2022.2.4,Win32,60.03842459,55e56224c70c7a00112a6565,64b543b0a84ad6ab4a25b86a,64cb378ac069a8412117aa1c,,,,,,,ctch,resources/DY.BMP,resources/DBN.BMP,Door4,-0.204629652,-0.044444444,1,0,0,0.7943,optionLeft,80,3835,2,27,0,27,0,1,,,,,,,,,,,,,,,,,,,,,,,,,,,,,,,,,,,,,,,
,,,,,,,,2023-08-03_06h17.07.225,HF_wild_card,2022.2.4,Win32,60.03842459,55e56224c70c7a00112a6565,64b543b0a84ad6ab4a25b86a,64cb378ac069a8412117aa1c,,,,,,,ctch,resources/DP.BMP,resources/DB.BMP,Door3,0.327777778,-0.138888889,1,0,0,0.9275,optionRight,70,3905,2,28,0,28,0,1,,,,,,,,,,,,,,,,,,,,,,,,,,,,,,,,,,,,,,,
,,,,,,,,2023-08-03_06h17.07.225,HF_wild_card,2022.2.4,Win32,60.03842459,55e56224c70c7a00112a6565,64b543b0a84ad6ab4a25b86a,64cb378ac069a8412117aa1c,,,,,,,decisionTrl,resources/DP.BMP,resources/DBN.BMP,Door2,-0.228703749,-0.020370348,1,0,0,1.4296,optionLeft,40,3945,2,29,0,29,0,1,,,,,,,,,,,,,,,,,,,,,,,,,,,,,,,,,,,,,,,
,,,,,,,,2023-08-03_06h17.07.225,HF_wild_card,2022.2.4,Win32,60.03842459,55e56224c70c7a00112a6565,64b543b0a84ad6ab4a25b86a,64cb378ac069a8412117aa1c,,,,,,,decisionTrl,resources/DY.BMP,resources/DB.BMP,Door4,-0.201851874,-0.044444444,1,0,0,0.9612,optionLeft,80,4025,2,30,0,30,0,1,,,,,,,,,,,,,,,,,,,,,,,,,,,,,,,,,,,,,,,
,,,,,,,,2023-08-03_06h17.07.225,HF_wild_card,2022.2.4,Win32,60.03842459,55e56224c70c7a00112a6565,64b543b0a84ad6ab4a25b86a,64cb378ac069a8412117aa1c,,,,,,,decisionTrl,resources/DBN.BMP,resources/DP.BMP,Door2,0.182407362,0.00740743,1,0,0,1.5266,optionRight,40,4065,2,31,0,31,0,1,,,,,,,,,,,,,,,,,,,,,,,,,,,,,,,,,,,,,,,
,,,,,,,,2023-08-03_06h17.07.225,HF_wild_card,2022.2.4,Win32,60.03842459,55e56224c70c7a00112a6565,64b543b0a84ad6ab4a25b86a,64cb378ac069a8412117aa1c,,,,,,,decisionTrl,resources/DP.BMP,resources/DR.BMP,WildCard_NonEx,0.158333333,-0.004629618,1,0,0,1.5415,optionRight,45,4110,2,32,0,32,0,1,,,,,,,,,,,,,,,,,,,,,,,,,,,,,,,,,,,,,,,
,,,,,,,,2023-08-03_06h17.07.225,HF_wild_card,2022.2.4,Win32,60.03842459,55e56224c70c7a00112a6565,64b543b0a84ad6ab4a25b86a,64cb378ac069a8412117aa1c,,,,,,,ctch,resources/DB.BMP,resources/DP.BMP,Door3,-0.063888821,0,1,0,0,0.7106,optionLeft,70,4180,2,33,0,33,0,1,,,,,,,,,,,,,,,,,,,,,,,,,,,,,,,,,,,,,,,
,,,,,,,,2023-08-03_06h17.07.225,HF_wild_card,2022.2.4,Win32,60.03842459,55e56224c70c7a00112a6565,64b543b0a84ad6ab4a25b86a,64cb378ac069a8412117aa1c,,,,,,,decisionTrl,resources/DR.BMP,resources/DBN.BMP,WildCard_NonEx,-0.165740763,-0.05,1,0,0,1.0436,optionLeft,45,4225,2,34,0,34,0,1,,,,,,,,,,,,,,,,,,,,,,,,,,,,,,,,,,,,,,,
,,,,,,,,2023-08-03_06h17.07.225,HF_wild_card,2022.2.4,Win32,60.03842459,55e56224c70c7a00112a6565,64b543b0a84ad6ab4a25b86a,64cb378ac069a8412117aa1c,,,,,,,decisionTrl,resources/DY.BMP,resources/DB.BMP,Door4,-0.23240743,-0.050925903,1,0,0,0.726,optionLeft,80,4305,2,35,0,35,0,1,,,,,,,,,,,,,,,,,,,,,,,,,,,,,,,,,,,,,,,
,,,,,,,,2023-08-03_06h17.07.225,HF_wild_card,2022.2.4,Win32,60.03842459,55e56224c70c7a00112a6565,64b543b0a84ad6ab4a25b86a,64cb378ac069a8412117aa1c,,,,,,,decisionTrl,resources/DB.BMP,resources/DY.BMP,Door4,0.202777778,-0.034259237,1,0,0,0.8114,optionRight,60,4365,2,36,0,36,0,1,,,,,,,,,,,,,,,,,,,,,,,,,,,,,,,,,,,,,,,
,,,,,,,,2023-08-03_06h17.07.225,HF_wild_card,2022.2.4,Win32,60.03842459,55e56224c70c7a00112a6565,64b543b0a84ad6ab4a25b86a,64cb378ac069a8412117aa1c,,,,,,,decisionTrl,resources/DP.BMP,resources/DBN.BMP,Door2,-0.187037082,-0.055555556,1,0,0,1.0303,optionLeft,40,4405,2,37,0,37,0,1,,,,,,,,,,,,,,,,,,,,,,,,,,,,,,,,,,,,,,,
,,,,,,,,2023-08-03_06h17.07.225,HF_wild_card,2022.2.4,Win32,60.03842459,55e56224c70c7a00112a6565,64b543b0a84ad6ab4a25b86a,64cb378ac069a8412117aa1c,,,,,,,sngl,resources/Empty.png,resources/DB.BMP,Door3,0.13518514,-0.038888889,1,0,0,0.6595,optionRight,70,4475,2,38,0,38,0,1,,,,,,,,,,,,,,,,,,,,,,,,,,,,,,,,,,,,,,,
,,,,,,,,2023-08-03_06h17.07.225,HF_wild_card,2022.2.4,Win32,60.03842459,55e56224c70c7a00112a6565,64b543b0a84ad6ab4a25b86a,64cb378ac069a8412117aa1c,,,,,,,sngl,resources/Empty.png,resources/DY.BMP,Door4,0.183333333,-0.039814792,1,0,0,0.6628,optionRight,80,4555,2,39,0,39,0,1,,,,,,,,,,,,,,,,,,,,,,,,,,,,,,,,,,,,,,,
,,,,,,,,2023-08-03_06h17.07.225,HF_wild_card,2022.2.4,Win32,60.03842459,55e56224c70c7a00112a6565,64b543b0a84ad6ab4a25b86a,64cb378ac069a8412117aa1c,,,,,,,sngl,resources/Empty.png,resources/DBN.BMP,Door1,0.162037014,-0.022222222,1,0,0,0.7463,optionRight,30,4585,2,40,0,40,0,1,,,,,,,,,,,,,,,,,,,,,,,,,,,,,,,,,,,,,,,
,,,,,,,,2023-08-03_06h17.07.225,HF_wild_card,2022.2.4,Win32,60.03842459,55e56224c70c7a00112a6565,64b543b0a84ad6ab4a25b86a,64cb378ac069a8412117aa1c,,,,,,,decisionTrl,resources/DB.BMP,resources/DY.BMP,Door4,0.090740696,-0.003703681,1,0,0,1.0951,optionRight,60,4645,2,41,0,41,0,1,,,,,,,,,,,,,,,,,,,,,,,,,,,,,,,,,,,,,,,
,,,,,,,,2023-08-03_06h17.07.225,HF_wild_card,2022.2.4,Win32,60.03842459,55e56224c70c7a00112a6565,64b543b0a84ad6ab4a25b86a,64cb378ac069a8412117aa1c,,,,,,,ctch,resources/DB.BMP,resources/DP.BMP,Door3,-0.2,-0.025,1,0,0,0.8443,optionLeft,70,4715,2,42,0,42,0,1,,,,,,,,,,,,,,,,,,,,,,,,,,,,,,,,,,,,,,,
,,,,,,,,2023-08-03_06h17.07.225,HF_wild_card,2022.2.4,Win32,60.03842459,55e56224c70c7a00112a6565,64b543b0a84ad6ab4a25b86a,64cb378ac069a8412117aa1c,,,,,,,decisionTrl,resources/DB.BMP,resources/DY.BMP,Door4,0.008333401,0,1,0,0,0.0799,optionRight,60,4775,2,43,0,43,0,1,,,,,,,,,,,,,,,,,,,,,,,,,,,,,,,,,,,,,,,
,,,,,,,,2023-08-03_06h17.07.225,HF_wild_card,2022.2.4,Win32,60.03842459,55e56224c70c7a00112a6565,64b543b0a84ad6ab4a25b86a,64cb378ac069a8412117aa1c,,,,,,,,,,,,,,,,,,,,,,,,,,1,0,1,0,1,,,,,,,,,,,,,,,,,,,,,,,,,,,,,,,,,,
,,,,,,,,2023-08-03_06h17.07.225,HF_wild_card,2022.2.4,Win32,60.03842459,55e56224c70c7a00112a6565,64b543b0a84ad6ab4a25b86a,64cb378ac069a8412117aa1c,,,,,,,sngl,resources/Empty.png,resources/DY.BMP,Door4,0.222222222,-0.068518507,1,0,0,1.6953,optionRight,60,4835,3,0,0,0,0,1,,,,,,,,,,,,,,,,,,,,,,,,,,,,,,,,,,,,,,,
,,,,,,,,2023-08-03_06h17.07.225,HF_wild_card,2022.2.4,Win32,60.03842459,55e56224c70c7a00112a6565,64b543b0a84ad6ab4a25b86a,64cb378ac069a8412117aa1c,,,,,,,decisionTrl,resources/DP.BMP,resources/DBN.BMP,Door1,0.200925903,-0.000925903,1,0,0,1.2096,optionRight,30,4865,3,1,0,1,0,1,,,,,,,,,,,,,,,,,,,,,,,,,,,,,,,,,,,,,,,
,,,,,,,,2023-08-03_06h17.07.225,HF_wild_card,2022.2.4,Win32,60.03842459,55e56224c70c7a00112a6565,64b543b0a84ad6ab4a25b86a,64cb378ac069a8412117aa1c,,,,,,,sngl,resources/Empty.png,resources/DB.BMP,Door3,0.18518514,-0.005555556,1,0,0,0.7623,optionRight,70,4935,3,2,0,2,0,1,,,,,,,,,,,,,,,,,,,,,,,,,,,,,,,,,,,,,,,
,,,,,,,,2023-08-03_06h17.07.225,HF_wild_card,2022.2.4,Win32,60.03842459,55e56224c70c7a00112a6565,64b543b0a84ad6ab4a25b86a,64cb378ac069a8412117aa1c,,,,,,,decisionTrl,resources/DBN.BMP,resources/DP.BMP,Door2,0.265740696,-0.051851841,1,0,0,0.8619,optionRight,40,4975,3,3,0,3,0,1,,,,,,,,,,,,,,,,,,,,,,,,,,,,,,,,,,,,,,,
,,,,,,,,2023-08-03_06h17.07.225,HF_wild_card,2022.2.4,Win32,60.03842459,55e56224c70c7a00112a6565,64b543b0a84ad6ab4a25b86a,64cb378ac069a8412117aa1c,,,,,,,sngl,resources/DBN.BMP,resources/Empty.png,Door1,-0.180555556,0.008333333,1,0,0,0.7292,optionLeft,30,5005,3,4,0,4,0,1,,,,,,,,,,,,,,,,,,,,,,,,,,,,,,,,,,,,,,,
,,,,,,,,2023-08-03_06h17.07.225,HF_wild_card,2022.2.4,Win32,60.03842459,55e56224c70c7a00112a6565,64b543b0a84ad6ab4a25b86a,64cb378ac069a8412117aa1c,,,,,,,sngl,resources/DR.BMP,resources/Empty.png,WildCard_NonEx,-0.146296319,-0.059259237,1,0,0,0.7126,optionLeft,45,5050,3,5,0,5,0,1,,,,,,,,,,,,,,,,,,,,,,,,,,,,,,,,,,,,,,,
,,,,,,,,2023-08-03_06h17.07.225,HF_wild_card,2022.2.4,Win32,60.03842459,55e56224c70c7a00112a6565,64b543b0a84ad6ab4a25b86a,64cb378ac069a8412117aa1c,,,,,,,decisionTrl,resources/DY.BMP,resources/DB.BMP,Door4,-0.139814792,-0.005555556,1,0,0,0.7786,optionLeft,60,5110,3,6,0,6,0,1,,,,,,,,,,,,,,,,,,,,,,,,,,,,,,,,,,,,,,,
,,,,,,,,2023-08-03_06h17.07.225,HF_wild_card,2022.2.4,Win32,60.03842459,55e56224c70c7a00112a6565,64b543b0a84ad6ab4a25b86a,64cb378ac069a8412117aa1c,,,,,,,decisionTrl,resources/DY.BMP,resources/DR.BMP,Door4,-0.251851874,-0.026851841,1,0,0,0.7627,optionLeft,60,5170,3,7,0,7,0,1,,,,,,,,,,,,,,,,,,,,,,,,,,,,,,,,,,,,,,,
,,,,,,,,2023-08-03_06h17.07.225,HF_wild_card,2022.2.4,Win32,60.03842459,55e56224c70c7a00112a6565,64b543b0a84ad6ab4a25b86a,64cb378ac069a8412117aa1c,,,,,,,decisionTrl,resources/DB.BMP,resources/DY.BMP,Door4,0.221296251,-0.009259237,1,0,0,0.7445,optionRight,60,5230,3,8,0,8,0,1,,,,,,,,,,,,,,,,,,,,,,,,,,,,,,,,,,,,,,,
,,,,,,,,2023-08-03_06h17.07.225,HF_wild_card,2022.2.4,Win32,60.03842459,55e56224c70c7a00112a6565,64b543b0a84ad6ab4a25b86a,64cb378ac069a8412117aa1c,,,,,,,ctch,resources/DBN.BMP,resources/DY.BMP,Door4,0.205555556,-0.052777778,1,0,0,0.7791,optionRight,60,5290,3,9,0,9,0,1,,,,,,,,,,,,,,,,,,,,,,,,,,,,,,,,,,,,,,,
,,,,,,,,2023-08-03_06h17.07.225,HF_wild_card,2022.2.4,Win32,60.03842459,55e56224c70c7a00112a6565,64b543b0a84ad6ab4a25b86a,64cb378ac069a8412117aa1c,,,,,,,ctch,resources/DB.BMP,resources/DP.BMP,Door3,-0.252777778,-0.031481459,1,0,0,0.7107,optionLeft,70,5360,3,10,0,10,0,1,,,,,,,,,,,,,,,,,,,,,,,,,,,,,,,,,,,,,,,
,,,,,,,,2023-08-03_06h17.07.225,HF_wild_card,2022.2.4,Win32,60.03842459,55e56224c70c7a00112a6565,64b543b0a84ad6ab4a25b86a,64cb378ac069a8412117aa1c,,,,,,,ctch,resources/DB.BMP,resources/DP.BMP,Door3,-0.270370416,-0.020370348,1,0,0,0.7292,optionLeft,70,5430,3,11,0,11,0,1,,,,,,,,,,,,,,,,,,,,,,,,,,,,,,,,,,,,,,,
,,,,,,,,2023-08-03_06h17.07.225,HF_wild_card,2022.2.4,Win32,60.03842459,55e56224c70c7a00112a6565,64b543b0a84ad6ab4a25b86a,64cb378ac069a8412117aa1c,,,,,,,ctch,resources/DP.BMP,resources/DB.BMP,Door3,0.216666667,-0.018518507,1,0,0,0.7138,optionRight,70,5500,3,12,0,12,0,1,,,,,,,,,,,,,,,,,,,,,,,,,,,,,,,,,,,,,,,
,,,,,,,,2023-08-03_06h17.07.225,HF_wild_card,2022.2.4,Win32,60.03842459,55e56224c70c7a00112a6565,64b543b0a84ad6ab4a25b86a,64cb378ac069a8412117aa1c,,,,,,,decisionTrl,resources/DP.BMP,resources/DBN.BMP,Door2,-0.266666667,-0.015740729,1,0,0,0.6958,optionLeft,40,5540,3,13,0,13,0,1,,,,,,,,,,,,,,,,,,,,,,,,,,,,,,,,,,,,,,,
,,,,,,,,2023-08-03_06h17.07.225,HF_wild_card,2022.2.4,Win32,60.03842459,55e56224c70c7a00112a6565,64b543b0a84ad6ab4a25b86a,64cb378ac069a8412117aa1c,,,,,,,ctch,resources/DBN.BMP,resources/DY.BMP,Door4,0.139814792,-0.029629618,1,0,0,0.7125,optionRight,60,5600,3,14,0,14,0,1,,,,,,,,,,,,,,,,,,,,,,,,,,,,,,,,,,,,,,,
,,,,,,,,2023-08-03_06h17.07.225,HF_wild_card,2022.2.4,Win32,60.03842459,55e56224c70c7a00112a6565,64b543b0a84ad6ab4a25b86a,64cb378ac069a8412117aa1c,,,,,,,sngl,resources/DR.BMP,resources/Empty.png,WildCard_NonEx,-0.227777778,0.008333333,1,0,0,0.629,optionLeft,55,5655,3,15,0,15,0,1,,,,,,,,,,,,,,,,,,,,,,,,,,,,,,,,,,,,,,,
,,,,,,,,2023-08-03_06h17.07.225,HF_wild_card,2022.2.4,Win32,60.03842459,55e56224c70c7a00112a6565,64b543b0a84ad6ab4a25b86a,64cb378ac069a8412117aa1c,,,,,,,decisionTrl,resources/DY.BMP,resources/DB.BMP,Door4,-0.245370416,-0.01759257,1,0,0,0.6785,optionLeft,80,5735,3,16,0,16,0,1,,,,,,,,,,,,,,,,,,,,,,,,,,,,,,,,,,,,,,,
,,,,,,,,2023-08-03_06h17.07.225,HF_wild_card,2022.2.4,Win32,60.03842459,55e56224c70c7a00112a6565,64b543b0a84ad6ab4a25b86a,64cb378ac069a8412117aa1c,,,,,,,sngl,resources/Empty.png,resources/DP.BMP,Door2,0.179629584,-0.027777778,1,0,0,0.5614,optionRight,20,5755,3,17,0,17,0,1,,,,,,,,,,,,,,,,,,,,,,,,,,,,,,,,,,,,,,,
,,,,,,,,2023-08-03_06h17.07.225,HF_wild_card,2022.2.4,Win32,60.03842459,55e56224c70c7a00112a6565,64b543b0a84ad6ab4a25b86a,64cb378ac069a8412117aa1c,,,,,,,decisionTrl,resources/DB.BMP,resources/DY.BMP,Door4,0.125925903,-0.01759257,1,0,0,0.9281,optionRight,80,5835,3,18,0,18,0,1,,,,,,,,,,,,,,,,,,,,,,,,,,,,,,,,,,,,,,,
,,,,,,,,2023-08-03_06h17.07.225,HF_wild_card,2022.2.4,Win32,60.03842459,55e56224c70c7a00112a6565,64b543b0a84ad6ab4a25b86a,64cb378ac069a8412117aa1c,,,,,,,decisionTrl,resources/DP.BMP,resources/DBN.BMP,Door2,-0.222222222,-0.037037014,1,0,0,0.7952,optionLeft,40,5875,3,19,0,19,0,1,,,,,,,,,,,,,,,,,,,,,,,,,,,,,,,,,,,,,,,
,,,,,,,,2023-08-03_06h17.07.225,HF_wild_card,2022.2.4,Win32,60.03842459,55e56224c70c7a00112a6565,64b543b0a84ad6ab4a25b86a,64cb378ac069a8412117aa1c,,,,,,,sngl,resources/Empty.png,resources/DR.BMP,WildCard_NonEx,0.246296251,-0.003703681,1,0,0,0.662,optionRight,55,5930,3,20,0,20,0,1,,,,,,,,,,,,,,,,,,,,,,,,,,,,,,,,,,,,,,,
,,,,,,,,2023-08-03_06h17.07.225,HF_wild_card,2022.2.4,Win32,60.03842459,55e56224c70c7a00112a6565,64b543b0a84ad6ab4a25b86a,64cb378ac069a8412117aa1c,,,,,,,decisionTrl,resources/DB.BMP,resources/DY.BMP,Door4,0.195370348,-0.011111111,1,0,0,0.9618,optionRight,60,5990,3,21,0,21,0,1,,,,,,,,,,,,,,,,,,,,,,,,,,,,,,,,,,,,,,,
,,,,,,,,2023-08-03_06h17.07.225,HF_wild_card,2022.2.4,Win32,60.03842459,55e56224c70c7a00112a6565,64b543b0a84ad6ab4a25b86a,64cb378ac069a8412117aa1c,,,,,,,sngl,resources/Empty.png,resources/DR.BMP,WildCard_NonEx,0.206481459,-0.011111111,1,0,0,0.6467,optionRight,45,6035,3,22,0,22,0,1,,,,,,,,,,,,,,,,,,,,,,,,,,,,,,,,,,,,,,,
,,,,,,,,2023-08-03_06h17.07.225,HF_wild_card,2022.2.4,Win32,60.03842459,55e56224c70c7a00112a6565,64b543b0a84ad6ab4a25b86a,64cb378ac069a8412117aa1c,,,,,,,ctch,resources/DY.BMP,resources/DBN.BMP,Door4,-0.206481527,-0.007407396,1,0,0,0.7623,optionLeft,60,6095,3,23,0,23,0,1,,,,,,,,,,,,,,,,,,,,,,,,,,,,,,,,,,,,,,,
,,,,,,,,2023-08-03_06h17.07.225,HF_wild_card,2022.2.4,Win32,60.03842459,55e56224c70c7a00112a6565,64b543b0a84ad6ab4a25b86a,64cb378ac069a8412117aa1c,,,,,,,decisionTrl,resources/DBN.BMP,resources/DP.BMP,Door2,0.123148126,-0.008333333,1,0,0,0.7948,optionRight,40,6135,3,24,0,24,0,1,,,,,,,,,,,,,,,,,,,,,,,,,,,,,,,,,,,,,,,
,,,,,,,,2023-08-03_06h17.07.225,HF_wild_card,2022.2.4,Win32,60.03842459,55e56224c70c7a00112a6565,64b543b0a84ad6ab4a25b86a,64cb378ac069a8412117aa1c,,,,,,,decisionTrl,resources/DP.BMP,resources/DR.BMP,Door2,-0.18240743,-0.029629618,1,0,0,1.2784,optionLeft,40,6175,3,25,0,25,0,1,,,,,,,,,,,,,,,,,,,,,,,,,,,,,,,,,,,,,,,
,,,,,,,,2023-08-03_06h17.07.225,HF_wild_card,2022.2.4,Win32,60.03842459,55e56224c70c7a00112a6565,64b543b0a84ad6ab4a25b86a,64cb378ac069a8412117aa1c,,,,,,,sngl,resources/DB.BMP,resources/Empty.png,Door3,-0.131481459,0.004629652,1,0,0,0.6469,optionLeft,70,6245,3,26,0,26,0,1,,,,,,,,,,,,,,,,,,,,,,,,,,,,,,,,,,,,,,,
,,,,,,,,2023-08-03_06h17.07.225,HF_wild_card,2022.2.4,Win32,60.03842459,55e56224c70c7a00112a6565,64b543b0a84ad6ab4a25b86a,64cb378ac069a8412117aa1c,,,,,,,decisionTrl,resources/DY.BMP,resources/DB.BMP,Door4,-0.160185208,-0.023148126,1,0,0,0.796,optionLeft,60,6305,3,27,0,27,0,1,,,,,,,,,,,,,,,,,,,,,,,,,,,,,,,,,,,,,,,
,,,,,,,,2023-08-03_06h17.07.225,HF_wild_card,2022.2.4,Win32,60.03842459,55e56224c70c7a00112a6565,64b543b0a84ad6ab4a25b86a,64cb378ac069a8412117aa1c,,,,,,,sngl,resources/DP.BMP,resources/Empty.png,Door2,0.001851874,-0.006481459,1,0,0,0.5123,optionLeft,40,6345,3,28,0,28,0,1,,,,,,,,,,,,,,,,,,,,,,,,,,,,,,,,,,,,,,,
,,,,,,,,2023-08-03_06h17.07.225,HF_wild_card,2022.2.4,Win32,60.03842459,55e56224c70c7a00112a6565,64b543b0a84ad6ab4a25b86a,64cb378ac069a8412117aa1c,,,,,,,ctch,resources/DY.BMP,resources/DBN.BMP,Door4,-0.199074097,-0.033333333,1,0,0,0.879,optionLeft,60,6405,3,29,0,29,0,1,,,,,,,,,,,,,,,,,,,,,,,,,,,,,,,,,,,,,,,
,,,,,,,,2023-08-03_06h17.07.225,HF_wild_card,2022.2.4,Win32,60.03842459,55e56224c70c7a00112a6565,64b543b0a84ad6ab4a25b86a,64cb378ac069a8412117aa1c,,,,,,,sngl,resources/DY.BMP,resources/Empty.png,Door4,-0.18240743,-0.026851841,1,0,0,0.6288,optionLeft,80,6485,3,30,0,30,0,1,,,,,,,,,,,,,,,,,,,,,,,,,,,,,,,,,,,,,,,
,,,,,,,,2023-08-03_06h17.07.225,HF_wild_card,2022.2.4,Win32,60.03842459,55e56224c70c7a00112a6565,64b543b0a84ad6ab4a25b86a,64cb378ac069a8412117aa1c,,,,,,,decisionTrl,resources/DB.BMP,resources/DR.BMP,Door3,-0.105555488,-0.020370348,1,0,0,0.9783,optionLeft,70,6555,3,31,0,31,0,1,,,,,,,,,,,,,,,,,,,,,,,,,,,,,,,,,,,,,,,
,,,,,,,,2023-08-03_06h17.07.225,HF_wild_card,2022.2.4,Win32,60.03842459,55e56224c70c7a00112a6565,64b543b0a84ad6ab4a25b86a,64cb378ac069a8412117aa1c,,,,,,,decisionTrl,resources/DBN.BMP,resources/DP.BMP,Door2,0.29537028,-0.011111111,1,0,0,0.8606,optionRight,40,6595,3,32,0,32,0,1,,,,,,,,,,,,,,,,,,,,,,,,,,,,,,,,,,,,,,,
,,,,,,,,2023-08-03_06h17.07.225,HF_wild_card,2022.2.4,Win32,60.03842459,55e56224c70c7a00112a6565,64b543b0a84ad6ab4a25b86a,64cb378ac069a8412117aa1c,,,,,,,decisionTrl,resources/DR.BMP,resources/DB.BMP,WildCard_NonEx,-0.213888889,-0.045370348,1,0,0,0.8276,optionLeft,55,6650,3,33,0,33,0,1,,,,,,,,,,,,,,,,,,,,,,,,,,,,,,,,,,,,,,,
,,,,,,,,2023-08-03_06h17.07.225,HF_wild_card,2022.2.4,Win32,60.03842459,55e56224c70c7a00112a6565,64b543b0a84ad6ab4a25b86a,64cb378ac069a8412117aa1c,,,,,,,decisionTrl,resources/DR.BMP,resources/DY.BMP,Door4,0.175,-0.003703681,1,0,0,0.8624,optionRight,60,6710,3,34,0,34,0,1,,,,,,,,,,,,,,,,,,,,,,,,,,,,,,,,,,,,,,,
,,,,,,,,2023-08-03_06h17.07.225,HF_wild_card,2022.2.4,Win32,60.03842459,55e56224c70c7a00112a6565,64b543b0a84ad6ab4a25b86a,64cb378ac069a8412117aa1c,,,,,,,decisionTrl,resources/DP.BMP,resources/DBN.BMP,Door2,-0.225925971,-0.040740729,1,0,0,0.8136,optionLeft,20,6730,3,35,0,35,0,1,,,,,,,,,,,,,,,,,,,,,,,,,,,,,,,,,,,,,,,
,,,,,,,,2023-08-03_06h17.07.225,HF_wild_card,2022.2.4,Win32,60.03842459,55e56224c70c7a00112a6565,64b543b0a84ad6ab4a25b86a,64cb378ac069a8412117aa1c,,,,,,,decisionTrl,resources/DR.BMP,resources/DP.BMP,WildCard_NonEx,-0.134259237,-0.059259237,1,0,0,1.854,optionLeft,55,6785,3,36,0,36,0,1,,,,,,,,,,,,,,,,,,,,,,,,,,,,,,,,,,,,,,,
,,,,,,,,2023-08-03_06h17.07.225,HF_wild_card,2022.2.4,Win32,60.03842459,55e56224c70c7a00112a6565,64b543b0a84ad6ab4a25b86a,64cb378ac069a8412117aa1c,,,,,,,decisionTrl,resources/DR.BMP,resources/DBN.BMP,WildCard_NonEx,-0.560185208,-0.499074029,1,0,0,0.9458,optionLeft,45,6830,3,37,0,37,0,1,,,,,,,,,,,,,,,,,,,,,,,,,,,,,,,,,,,,,,,
,,,,,,,,2023-08-03_06h17.07.225,HF_wild_card,2022.2.4,Win32,60.03842459,55e56224c70c7a00112a6565,64b543b0a84ad6ab4a25b86a,64cb378ac069a8412117aa1c,,,,,,,decisionTrl,resources/DBN.BMP,resources/DP.BMP,Door2,0.214814792,-0.004629618,1,0,0,0.9266,optionRight,40,6870,3,38,0,38,0,1,,,,,,,,,,,,,,,,,,,,,,,,,,,,,,,,,,,,,,,
,,,,,,,,2023-08-03_06h17.07.225,HF_wild_card,2022.2.4,Win32,60.03842459,55e56224c70c7a00112a6565,64b543b0a84ad6ab4a25b86a,64cb378ac069a8412117aa1c,,,,,,,decisionTrl,resources/DB.BMP,resources/DY.BMP,Door4,0.238888889,0.049999966,1,0,0,1.0433,optionRight,80,6950,3,39,0,39,0,1,,,,,,,,,,,,,,,,,,,,,,,,,,,,,,,,,,,,,,,
,,,,,,,,2023-08-03_06h17.07.225,HF_wild_card,2022.2.4,Win32,60.03842459,55e56224c70c7a00112a6565,64b543b0a84ad6ab4a25b86a,64cb378ac069a8412117aa1c,,,,,,,ctch,resources/DP.BMP,resources/DB.BMP,Door2,-0.270370416,-0.054629618,1,0,0,0.9432,optionLeft,40,6990,3,40,0,40,0,1,,,,,,,,,,,,,,,,,,,,,,,,,,,,,,,,,,,,,,,
,,,,,,,,2023-08-03_06h17.07.225,HF_wild_card,2022.2.4,Win32,60.03842459,55e56224c70c7a00112a6565,64b543b0a84ad6ab4a25b86a,64cb378ac069a8412117aa1c,,,,,,,decisionTrl,resources/DBN.BMP,resources/DR.BMP,WildCard_NonEx,0.275925836,0.018518541,1,0,0,0.9087,optionRight,55,7045,3,41,0,41,0,1,,,,,,,,,,,,,,,,,,,,,,,,,,,,,,,,,,,,,,,
,,,,,,,,2023-08-03_06h17.07.225,HF_wild_card,2022.2.4,Win32,60.03842459,55e56224c70c7a00112a6565,64b543b0a84ad6ab4a25b86a,64cb378ac069a8412117aa1c,,,,,,,sngl,resources/Empty.png,resources/DBN.BMP,Door1,0.249074029,0.003703715,1,0,0,0.9597,optionRight,30,7075,3,42,0,42,0,1,,,,,,,,,,,,,,,,,,,,,,,,,,,,,,,,,,,,,,,
,,,,,,,,2023-08-03_06h17.07.225,HF_wild_card,2022.2.4,Win32,60.03842459,55e56224c70c7a00112a6565,64b543b0a84ad6ab4a25b86a,64cb378ac069a8412117aa1c,,,,,,,decisionTrl,resources/DY.BMP,resources/DB.BMP,Door4,-0.268518541,-0.039814792,1,0,0,0.8232,optionLeft,60,7135,3,43,0,43,0,1,,,,,,,,,,,,,,,,,,,,,,,,,,,,,,,,,,,,,,,
,,,,,,,,2023-08-03_06h17.07.225,HF_wild_card,2022.2.4,Win32,60.03842459,55e56224c70c7a00112a6565,64b543b0a84ad6ab4a25b86a,64cb378ac069a8412117aa1c,,,,,,,,,,,,,,,,,,,,,,,,,,2,0,2,0,1,,,,,,,,,,,,,,,,,,,,,,,,,,,,,,,,,,
,,,,,,,,2023-08-03_06h17.07.225,HF_wild_card,2022.2.4,Win32,60.03842459,55e56224c70c7a00112a6565,64b543b0a84ad6ab4a25b86a,64cb378ac069a8412117aa1c,,,,,,,decisionTrl,resources/DB.BMP,resources/DY.BMP,Door4,0.277777778,0.002777778,1,0,0,0.7726,optionRight,80,7215,4,0,0,0,0,1,,,,,,,,,,,,,,,,,,,,,,,,,,,,,,,,,,,,,,,
,,,,,,,,2023-08-03_06h17.07.225,HF_wild_card,2022.2.4,Win32,60.03842459,55e56224c70c7a00112a6565,64b543b0a84ad6ab4a25b86a,64cb378ac069a8412117aa1c,,,,,,,ctch,resources/DY.BMP,resources/DBN.BMP,Door4,-0.213888889,-0.054629618,1,0,0,0.6888,optionLeft,80,7295,4,1,0,1,0,1,,,,,,,,,,,,,,,,,,,,,,,,,,,,,,,,,,,,,,,
,,,,,,,,2023-08-03_06h17.07.225,HF_wild_card,2022.2.4,Win32,60.03842459,55e56224c70c7a00112a6565,64b543b0a84ad6ab4a25b86a,64cb378ac069a8412117aa1c,,,,,,,sngl,resources/Empty.png,resources/DB.BMP,Door3,0.212962918,0,1,0,0,0.6294,optionRight,70,7365,4,2,0,2,0,1,,,,,,,,,,,,,,,,,,,,,,,,,,,,,,,,,,,,,,,
,,,,,,,,2023-08-03_06h17.07.225,HF_wild_card,2022.2.4,Win32,60.03842459,55e56224c70c7a00112a6565,64b543b0a84ad6ab4a25b86a,64cb378ac069a8412117aa1c,,,,,,,sngl,resources/Empty.png,resources/DP.BMP,Door2,0.401851807,0.001851874,1,0,0,0.6396,optionRight,40,7405,4,3,0,3,0,1,,,,,,,,,,,,,,,,,,,,,,,,,,,,,,,,,,,,,,,
,,,,,,,,2023-08-03_06h17.07.225,HF_wild_card,2022.2.4,Win32,60.03842459,55e56224c70c7a00112a6565,64b543b0a84ad6ab4a25b86a,64cb378ac069a8412117aa1c,,,,,,,ctch,resources/DP.BMP,resources/DB.BMP,Door2,-0.184259304,0,1,0,0,0.7898,optionLeft,20,7425,4,4,0,4,0,1,,,,,,,,,,,,,,,,,,,,,,,,,,,,,,,,,,,,,,,
,,,,,,,,2023-08-03_06h17.07.225,HF_wild_card,2022.2.4,Win32,60.03842459,55e56224c70c7a00112a6565,64b543b0a84ad6ab4a25b86a,64cb378ac069a8412117aa1c,,,,,,,decisionTrl,resources/DP.BMP,resources/DBN.BMP,Door2,-0.213888889,0.016666667,1,0,0,0.7148,optionLeft,40,7465,4,5,0,5,0,1,,,,,,,,,,,,,,,,,,,,,,,,,,,,,,,,,,,,,,,
,,,,,,,,2023-08-03_06h17.07.225,HF_wild_card,2022.2.4,Win32,60.03842459,55e56224c70c7a00112a6565,64b543b0a84ad6ab4a25b86a,64cb378ac069a8412117aa1c,,,,,,,decisionTrl,resources/DP.BMP,resources/DBN.BMP,Door2,-0.235185208,0,1,0,0,0.68,optionLeft,20,7485,4,6,0,6,0,1,,,,,,,,,,,,,,,,,,,,,,,,,,,,,,,,,,,,,,,
,,,,,,,,2023-08-03_06h17.07.225,HF_wild_card,2022.2.4,Win32,60.03842459,55e56224c70c7a00112a6565,64b543b0a84ad6ab4a25b86a,64cb378ac069a8412117aa1c,,,,,,,sngl,resources/DG.BMP,resources/Empty.png,WildCard_Ex,-0.187962986,0.006481493,1,0,0,0.664,optionLeft,95,7580,4,7,0,7,0,1,,,,,,,,,,,,,,,,,,,,,,,,,,,,,,,,,,,,,,,
,,,,,,,,2023-08-03_06h17.07.225,HF_wild_card,2022.2.4,Win32,60.03842459,55e56224c70c7a00112a6565,64b543b0a84ad6ab4a25b86a,64cb378ac069a8412117aa1c,,,,,,,sngl,resources/Empty.png,resources/DG.BMP,WildCard_Ex,0.162037014,0,1,0,0,0.6787,optionRight,95,7675,4,8,0,8,0,1,,,,,,,,,,,,,,,,,,,,,,,,,,,,,,,,,,,,,,,
,,,,,,,,2023-08-03_06h17.07.225,HF_wild_card,2022.2.4,Win32,60.03842459,55e56224c70c7a00112a6565,64b543b0a84ad6ab4a25b86a,64cb378ac069a8412117aa1c,,,,,,,decisionTrl,resources/DP.BMP,resources/DG.BMP,WildCard_Ex,0.243518473,-0.016666667,1,0,0,0.597,optionRight,5,7680,4,9,0,9,0,1,,,,,,,,,,,,,,,,,,,,,,,,,,,,,,,,,,,,,,,
,,,,,,,,2023-08-03_06h17.07.225,HF_wild_card,2022.2.4,Win32,60.03842459,55e56224c70c7a00112a6565,64b543b0a84ad6ab4a25b86a,64cb378ac069a8412117aa1c,,,,,,,decisionTrl,resources/DP.BMP,resources/DBN.BMP,Door2,-0.227777778,-0.023148126,1,0,0,0.7304,optionLeft,40,7720,4,10,0,10,0,1,,,,,,,,,,,,,,,,,,,,,,,,,,,,,,,,,,,,,,,
,,,,,,,,2023-08-03_06h17.07.225,HF_wild_card,2022.2.4,Win32,60.03842459,55e56224c70c7a00112a6565,64b543b0a84ad6ab4a25b86a,64cb378ac069a8412117aa1c,,,,,,,sngl,resources/DY.BMP,resources/Empty.png,Door4,-0.16759257,0.004629652,1,0,0,0.7137,optionLeft,60,7780,4,11,0,11,0,1,,,,,,,,,,,,,,,,,,,,,,,,,,,,,,,,,,,,,,,
,,,,,,,,2023-08-03_06h17.07.225,HF_wild_card,2022.2.4,Win32,60.03842459,55e56224c70c7a00112a6565,64b543b0a84ad6ab4a25b86a,64cb378ac069a8412117aa1c,,,,,,,decisionTrl,resources/DBN.BMP,resources/DP.BMP,Door2,0.195370348,-0.036111111,1,0,0,0.7967,optionRight,20,7800,4,12,0,12,0,1,,,,,,,,,,,,,,,,,,,,,,,,,,,,,,,,,,,,,,,
,,,,,,,,2023-08-03_06h17.07.225,HF_wild_card,2022.2.4,Win32,60.03842459,55e56224c70c7a00112a6565,64b543b0a84ad6ab4a25b86a,64cb378ac069a8412117aa1c,,,,,,,decisionTrl,resources/DG.BMP,resources/DB.BMP,WildCard_Ex,-0.159259237,0.009259271,1,0,0,0.7564,optionLeft,95,7895,4,13,0,13,0,1,,,,,,,,,,,,,,,,,,,,,,,,,,,,,,,,,,,,,,,
,,,,,,,,2023-08-03_06h17.07.225,HF_wild_card,2022.2.4,Win32,60.03842459,55e56224c70c7a00112a6565,64b543b0a84ad6ab4a25b86a,64cb378ac069a8412117aa1c,,,,,,,sngl,resources/DG.BMP,resources/Empty.png,WildCard_Ex,-0.460185174,-0.499074029,1,0,0,0.6467,optionLeft,5,7900,4,14,0,14,0,1,,,,,,,,,,,,,,,,,,,,,,,,,,,,,,,,,,,,,,,
,,,,,,,,2023-08-03_06h17.07.225,HF_wild_card,2022.2.4,Win32,60.03842459,55e56224c70c7a00112a6565,64b543b0a84ad6ab4a25b86a,64cb378ac069a8412117aa1c,,,,,,,decisionTrl,resources/DBN.BMP,resources/DP.BMP,Door2,0.222222222,-0.01759257,1,0,0,0.9135,optionRight,20,7920,4,15,0,15,0,1,,,,,,,,,,,,,,,,,,,,,,,,,,,,,,,,,,,,,,,
,,,,,,,,2023-08-03_06h17.07.225,HF_wild_card,2022.2.4,Win32,60.03842459,55e56224c70c7a00112a6565,64b543b0a84ad6ab4a25b86a,64cb378ac069a8412117aa1c,,,,,,,ctch,resources/DY.BMP,resources/DBN.BMP,Door4,-0.16759257,-0.025925903,1,0,0,0.8129,optionLeft,80,8000,4,16,0,16,0,1,,,,,,,,,,,,,,,,,,,,,,,,,,,,,,,,,,,,,,,
,,,,,,,,2023-08-03_06h17.07.225,HF_wild_card,2022.2.4,Win32,60.03842459,55e56224c70c7a00112a6565,64b543b0a84ad6ab4a25b86a,64cb378ac069a8412117aa1c,,,,,,,decisionTrl,resources/DBN.BMP,resources/DP.BMP,Door2,0.21018514,-0.015740729,1,0,0,0.9968,optionRight,20,8020,4,17,0,17,0,1,,,,,,,,,,,,,,,,,,,,,,,,,,,,,,,,,,,,,,,
,,,,,,,,2023-08-03_06h17.07.225,HF_wild_card,2022.2.4,Win32,60.03842459,55e56224c70c7a00112a6565,64b543b0a84ad6ab4a25b86a,64cb378ac069a8412117aa1c,,,,,,,decisionTrl,resources/DB.BMP,resources/DY.BMP,Door4,0.313888889,-0.006481459,1,0,0,0.9137,optionRight,80,8100,4,18,0,18,0,1,,,,,,,,,,,,,,,,,,,,,,,,,,,,,,,,,,,,,,,
,,,,,,,,2023-08-03_06h17.07.225,HF_wild_card,2022.2.4,Win32,60.03842459,55e56224c70c7a00112a6565,64b543b0a84ad6ab4a25b86a,64cb378ac069a8412117aa1c,,,,,,,decisionTrl,resources/DP.BMP,resources/DBN.BMP,Door2,-0.238888889,-0.037037014,1,0,0,0.8142,optionLeft,20,8120,4,19,0,19,0,1,,,,,,,,,,,,,,,,,,,,,,,,,,,,,,,,,,,,,,,
,,,,,,,,2023-08-03_06h17.07.225,HF_wild_card,2022.2.4,Win32,60.03842459,55e56224c70c7a00112a6565,64b543b0a84ad6ab4a25b86a,64cb378ac069a8412117aa1c,,,,,,,ctch,resources/DBN.BMP,resources/DY.BMP,Door4,0.188888889,0.013888889,1,0,0,0.7954,optionRight,60,8180,4,20,0,20,0,1,,,,,,,,,,,,,,,,,,,,,,,,,,,,,,,,,,,,,,,
,,,,,,,,2023-08-03_06h17.07.225,HF_wild_card,2022.2.4,Win32,60.03842459,55e56224c70c7a00112a6565,64b543b0a84ad6ab4a25b86a,64cb378ac069a8412117aa1c,,,,,,,decisionTrl,resources/DY.BMP,resources/DG.BMP,WildCard_Ex,0.365740696,-0.009259237,1,0,0,1.2968,optionRight,95,8275,4,21,0,21,0,1,,,,,,,,,,,,,,,,,,,,,,,,,,,,,,,,,,,,,,,
,,,,,,,,2023-08-03_06h17.07.225,HF_wild_card,2022.2.4,Win32,60.03842459,55e56224c70c7a00112a6565,64b543b0a84ad6ab4a25b86a,64cb378ac069a8412117aa1c,,,,,,,decisionTrl,resources/DG.BMP,resources/DY.BMP,Door4,0.258333333,-0.008333333,1,0,0,0.9808,optionRight,60,8335,4,22,0,22,0,1,,,,,,,,,,,,,,,,,,,,,,,,,,,,,,,,,,,,,,,
,,,,,,,,2023-08-03_06h17.07.225,HF_wild_card,2022.2.4,Win32,60.03842459,55e56224c70c7a00112a6565,64b543b0a84ad6ab4a25b86a,64cb378ac069a8412117aa1c,,,,,,,decisionTrl,resources/DY.BMP,resources/DB.BMP,Door4,-0.20740743,0.012962986,1,0,0,0.7975,optionLeft,60,8395,4,23,0,23,0,1,,,,,,,,,,,,,,,,,,,,,,,,,,,,,,,,,,,,,,,
,,,,,,,,2023-08-03_06h17.07.225,HF_wild_card,2022.2.4,Win32,60.03842459,55e56224c70c7a00112a6565,64b543b0a84ad6ab4a25b86a,64cb378ac069a8412117aa1c,,,,,,,sngl,resources/DBN.BMP,resources/Empty.png,Door1,-0.21481486,0.030555522,1,0,0,0.6785,optionLeft,30,8425,4,24,0,24,0,1,,,,,,,,,,,,,,,,,,,,,,,,,,,,,,,,,,,,,,,
,,,,,,,,2023-08-03_06h17.07.225,HF_wild_card,2022.2.4,Win32,60.03842459,55e56224c70c7a00112a6565,64b543b0a84ad6ab4a25b86a,64cb378ac069a8412117aa1c,,,,,,,sngl,resources/Empty.png,resources/DY.BMP,Door4,0.377777778,-0.047222222,1,0,0,0.5981,optionRight,80,8505,4,25,0,25,0,1,,,,,,,,,,,,,,,,,,,,,,,,,,,,,,,,,,,,,,,
,,,,,,,,2023-08-03_06h17.07.225,HF_wild_card,2022.2.4,Win32,60.03842459,55e56224c70c7a00112a6565,64b543b0a84ad6ab4a25b86a,64cb378ac069a8412117aa1c,,,,,,,ctch,resources/DB.BMP,resources/DP.BMP,Door3,-0.15277771,0.003703715,1,0,0,0.9454,optionLeft,70,8575,4,26,0,26,0,1,,,,,,,,,,,,,,,,,,,,,,,,,,,,,,,,,,,,,,,
,,,,,,,,2023-08-03_06h17.07.225,HF_wild_card,2022.2.4,Win32,60.03842459,55e56224c70c7a00112a6565,64b543b0a84ad6ab4a25b86a,64cb378ac069a8412117aa1c,,,,,,,decisionTrl,resources/DY.BMP,resources/DB.BMP,Door4,-0.211111111,-0.037962952,1,0,0,0.9473,optionLeft,80,8655,4,27,0,27,0,1,,,,,,,,,,,,,,,,,,,,,,,,,,,,,,,,,,,,,,,
,,,,,,,,2023-08-03_06h17.07.225,HF_wild_card,2022.2.4,Win32,60.03842459,55e56224c70c7a00112a6565,64b543b0a84ad6ab4a25b86a,64cb378ac069a8412117aa1c,,,,,,,decisionTrl,resources/DY.BMP,resources/DB.BMP,Door4,-0.234259304,-0.003703681,1,0,0,0.7634,optionLeft,80,8735,4,28,0,28,0,1,,,,,,,,,,,,,,,,,,,,,,,,,,,,,,,,,,,,,,,
,,,,,,,,2023-08-03_06h17.07.225,HF_wild_card,2022.2.4,Win32,60.03842459,55e56224c70c7a00112a6565,64b543b0a84ad6ab4a25b86a,64cb378ac069a8412117aa1c,,,,,,,decisionTrl,resources/DB.BMP,resources/DY.BMP,Door4,0.224074029,0.042592604,1,0,0,0.98,optionRight,80,8815,4,29,0,29,0,1,,,,,,,,,,,,,,,,,,,,,,,,,,,,,,,,,,,,,,,
,,,,,,,,2023-08-03_06h17.07.225,HF_wild_card,2022.2.4,Win32,60.03842459,55e56224c70c7a00112a6565,64b543b0a84ad6ab4a25b86a,64cb378ac069a8412117aa1c,,,,,,,sngl,resources/Empty.png,resources/DBN.BMP,Door1,0.366666667,-0.003703681,1,0,0,0.7304,optionRight,30,8845,4,30,0,30,0,1,,,,,,,,,,,,,,,,,,,,,,,,,,,,,,,,,,,,,,,
,,,,,,,,2023-08-03_06h17.07.225,HF_wild_card,2022.2.4,Win32,60.03842459,55e56224c70c7a00112a6565,64b543b0a84ad6ab4a25b86a,64cb378ac069a8412117aa1c,,,,,,,decisionTrl,resources/DB.BMP,resources/DY.BMP,Door4,0.194444444,-0.015740729,1,0,0,0.7967,optionRight,60,8905,4,31,0,31,0,1,,,,,,,,,,,,,,,,,,,,,,,,,,,,,,,,,,,,,,,
,,,,,,,,2023-08-03_06h17.07.225,HF_wild_card,2022.2.4,Win32,60.03842459,55e56224c70c7a00112a6565,64b543b0a84ad6ab4a25b86a,64cb378ac069a8412117aa1c,,,,,,,sngl,resources/DP.BMP,resources/Empty.png,Door2,-0.547222222,-0.499074029,1,0,0,0.7136,optionLeft,20,8925,4,32,0,32,0,1,,,,,,,,,,,,,,,,,,,,,,,,,,,,,,,,,,,,,,,
,,,,,,,,2023-08-03_06h17.07.225,HF_wild_card,2022.2.4,Win32,60.03842459,55e56224c70c7a00112a6565,64b543b0a84ad6ab4a25b86a,64cb378ac069a8412117aa1c,,,,,,,ctch,resources/DB.BMP,resources/DP.BMP,Door3,-0.296296319,-0.012962952,1,0,0,1.0141,optionLeft,70,8995,4,33,0,33,0,1,,,,,,,,,,,,,,,,,,,,,,,,,,,,,,,,,,,,,,,
,,,,,,,,2023-08-03_06h17.07.225,HF_wild_card,2022.2.4,Win32,60.03842459,55e56224c70c7a00112a6565,64b543b0a84ad6ab4a25b86a,64cb378ac069a8412117aa1c,,,,,,,decisionTrl,resources/DG.BMP,resources/DP.BMP,WildCard_Ex,-0.198148193,0.00740743,1,0,0,0.831,optionLeft,5,9000,4,34,0,34,0,1,,,,,,,,,,,,,,,,,,,,,,,,,,,,,,,,,,,,,,,
,,,,,,,,2023-08-03_06h17.07.225,HF_wild_card,2022.2.4,Win32,60.03842459,55e56224c70c7a00112a6565,64b543b0a84ad6ab4a25b86a,64cb378ac069a8412117aa1c,,,,,,,decisionTrl,resources/DBN.BMP,resources/DG.BMP,WildCard_Ex,0.187962918,0.003703715,1,0,0,0.6634,optionRight,5,9005,4,35,0,35,0,1,,,,,,,,,,,,,,,,,,,,,,,,,,,,,,,,,,,,,,,
,,,,,,,,2023-08-03_06h17.07.225,HF_wild_card,2022.2.4,Win32,60.03842459,55e56224c70c7a00112a6565,64b543b0a84ad6ab4a25b86a,64cb378ac069a8412117aa1c,,,,,,,ctch,resources/DBN.BMP,resources/DY.BMP,Door4,0.307407362,-0.037962952,1,0,0,0.6644,optionRight,60,9065,4,36,0,36,0,1,,,,,,,,,,,,,,,,,,,,,,,,,,,,,,,,,,,,,,,
,,,,,,,,2023-08-03_06h17.07.225,HF_wild_card,2022.2.4,Win32,60.03842459,55e56224c70c7a00112a6565,64b543b0a84ad6ab4a25b86a,64cb378ac069a8412117aa1c,,,,,,,decisionTrl,resources/DBN.BMP,resources/DP.BMP,Door2,0.170370348,-0.003703681,1,0,0,0.7139,optionRight,40,9105,4,37,0,37,0,1,,,,,,,,,,,,,,,,,,,,,,,,,,,,,,,,,,,,,,,
,,,,,,,,2023-08-03_06h17.07.225,HF_wild_card,2022.2.4,Win32,60.03842459,55e56224c70c7a00112a6565,64b543b0a84ad6ab4a25b86a,64cb378ac069a8412117aa1c,,,,,,,decisionTrl,resources/DY.BMP,resources/DB.BMP,Door4,-0.33240743,0.018518541,1,0,0,0.8968,optionLeft,80,9185,4,38,0,38,0,1,,,,,,,,,,,,,,,,,,,,,,,,,,,,,,,,,,,,,,,
,,,,,,,,2023-08-03_06h17.07.225,HF_wild_card,2022.2.4,Win32,60.03842459,55e56224c70c7a00112a6565,64b543b0a84ad6ab4a25b86a,64cb378ac069a8412117aa1c,,,,,,,sngl,resources/DB.BMP,resources/Empty.png,Door3,-0.242592638,0.012962986,1,0,0,0.5809,optionLeft,70,9255,4,39,0,39,0,1,,,,,,,,,,,,,,,,,,,,,,,,,,,,,,,,,,,,,,,
,,,,,,,,2023-08-03_06h17.07.225,HF_wild_card,2022.2.4,Win32,60.03842459,55e56224c70c7a00112a6565,64b543b0a84ad6ab4a25b86a,64cb378ac069a8412117aa1c,,,,,,,ctch,resources/DP.BMP,resources/DB.BMP,Door2,-0.278703749,-0.054629618,1,0,0,1.3141,optionLeft,40,9295,4,40,0,40,0,1,,,,,,,,,,,,,,,,,,,,,,,,,,,,,,,,,,,,,,,
,,,,,,,,2023-08-03_06h17.07.225,HF_wild_card,2022.2.4,Win32,60.03842459,55e56224c70c7a00112a6565,64b543b0a84ad6ab4a25b86a,64cb378ac069a8412117aa1c,,,,,,,sngl,resources/Empty.png,resources/DG.BMP,WildCard_Ex,0.219444444,-0.010185174,1,0,0,0.8453,optionRight,5,9300,4,41,0,41,0,1,,,,,,,,,,,,,,,,,,,,,,,,,,,,,,,,,,,,,,,
,,,,,,,,2023-08-03_06h17.07.225,HF_wild_card,2022.2.4,Win32,60.03842459,55e56224c70c7a00112a6565,64b543b0a84ad6ab4a25b86a,64cb378ac069a8412117aa1c,,,,,,,decisionTrl,resources/DB.BMP,resources/DG.BMP,Door3,-0.188888889,-0.032407396,1,0,0,0.7809,optionLeft,70,9370,4,42,0,42,0,1,,,,,,,,,,,,,,,,,,,,,,,,,,,,,,,,,,,,,,,
,,,,,,,,2023-08-03_06h17.07.225,HF_wild_card,2022.2.4,Win32,60.03842459,55e56224c70c7a00112a6565,64b543b0a84ad6ab4a25b86a,64cb378ac069a8412117aa1c,,,,,,,decisionTrl,resources/DG.BMP,resources/DBN.BMP,WildCard_Ex,-0.220370416,-0.012962952,1,0,0,0.6974,optionLeft,95,9465,4,43,0,43,0,1,,,,,,,,,,,,,,,,,,,,,,,,,,,,,,,,,,,,,,,
,,,,,,,,2023-08-03_06h17.07.225,HF_wild_card,2022.2.4,Win32,60.03842459,55e56224c70c7a00112a6565,64b543b0a84ad6ab4a25b86a,64cb378ac069a8412117aa1c,,,,,,,,,,,,,,,,,,,,,,,,,,3,0,3,0,1,,,,,,,,,,,,,,,,,,,,,,,,,,,,,,,,,,
,,,,,,,,2023-08-03_06h17.07.225,HF_wild_card,2022.2.4,Win32,60.03842459,55e56224c70c7a00112a6565,64b543b0a84ad6ab4a25b86a,64cb378ac069a8412117aa1c,,,,,,,sngl,resources/DY.BMP,resources/Empty.png,Door4,-0.204629652,-0.2,1,0,0,0.8045,optionLeft,80,9545,5,0,0,0,0,1,,,,,,,,,,,,,,,,,,,,,,,,,,,,,,,,,,,,,,,
,,,,,,,,2023-08-03_06h17.07.225,HF_wild_card,2022.2.4,Win32,60.03842459,55e56224c70c7a00112a6565,64b543b0a84ad6ab4a25b86a,64cb378ac069a8412117aa1c,,,,,,,decisionTrl,resources/DBN.BMP,resources/DP.BMP,Door2,0.201851807,0.051851841,1,0,0,0.7964,optionRight,20,9565,5,1,0,1,0,1,,,,,,,,,,,,,,,,,,,,,,,,,,,,,,,,,,,,,,,
,,,,,,,,2023-08-03_06h17.07.225,HF_wild_card,2022.2.4,Win32,60.03842459,55e56224c70c7a00112a6565,64b543b0a84ad6ab4a25b86a,64cb378ac069a8412117aa1c,,,,,,,decisionTrl,resources/DBN.BMP,resources/DP.BMP,Door2,0.43518514,-0.012962952,1,0,0,0.6635,optionRight,40,9605,5,2,0,2,0,1,,,,,,,,,,,,,,,,,,,,,,,,,,,,,,,,,,,,,,,
,,,,,,,,2023-08-03_06h17.07.225,HF_wild_card,2022.2.4,Win32,60.03842459,55e56224c70c7a00112a6565,64b543b0a84ad6ab4a25b86a,64cb378ac069a8412117aa1c,,,,,,,ctch,resources/DB.BMP,resources/DP.BMP,Door3,-0.280555556,0.034259271,1,0,0,0.7068,optionLeft,70,9675,5,3,0,3,0,1,,,,,,,,,,,,,,,,,,,,,,,,,,,,,,,,,,,,,,,
,,,,,,,,2023-08-03_06h17.07.225,HF_wild_card,2022.2.4,Win32,60.03842459,55e56224c70c7a00112a6565,64b543b0a84ad6ab4a25b86a,64cb378ac069a8412117aa1c,,,,,,,decisionTrl,resources/DBN.BMP,resources/DP.BMP,Door2,0.263888889,0.000925937,1,0,0,0.6643,optionRight,20,9695,5,4,0,4,0,1,,,,,,,,,,,,,,,,,,,,,,,,,,,,,,,,,,,,,,,
,,,,,,,,2023-08-03_06h17.07.225,HF_wild_card,2022.2.4,Win32,60.03842459,55e56224c70c7a00112a6565,64b543b0a84ad6ab4a25b86a,64cb378ac069a8412117aa1c,,,,,,,sngl,resources/Empty.png,resources/DP.BMP,Door2,0.168518473,0.015740763,1,0,0,0.7304,optionRight,20,9715,5,5,0,5,0,1,,,,,,,,,,,,,,,,,,,,,,,,,,,,,,,,,,,,,,,
,,,,,,,,2023-08-03_06h17.07.225,HF_wild_card,2022.2.4,Win32,60.03842459,55e56224c70c7a00112a6565,64b543b0a84ad6ab4a25b86a,64cb378ac069a8412117aa1c,,,,,,,decisionTrl,resources/DY.BMP,resources/DB.BMP,Door4,-0.180555556,-0.010185174,1,0,0,0.8633,optionLeft,80,9795,5,6,0,6,0,1,,,,,,,,,,,,,,,,,,,,,,,,,,,,,,,,,,,,,,,
,,,,,,,,2023-08-03_06h17.07.225,HF_wild_card,2022.2.4,Win32,60.03842459,55e56224c70c7a00112a6565,64b543b0a84ad6ab4a25b86a,64cb378ac069a8412117aa1c,,,,,,,decisionTrl,resources/DB.BMP,resources/DY.BMP,Door4,0.254629584,0.012037048,1,0,0,0.6478,optionRight,60,9855,5,7,0,7,0,1,,,,,,,,,,,,,,,,,,,,,,,,,,,,,,,,,,,,,,,
,,,,,,,,2023-08-03_06h17.07.225,HF_wild_card,2022.2.4,Win32,60.03842459,55e56224c70c7a00112a6565,64b543b0a84ad6ab4a25b86a,64cb378ac069a8412117aa1c,,,,,,,decisionTrl,resources/DP.BMP,resources/DBN.BMP,Door2,-0.129629652,-0.029629618,1,0,0,0.7064,optionLeft,20,9875,5,8,0,8,0,1,,,,,,,,,,,,,,,,,,,,,,,,,,,,,,,,,,,,,,,
,,,,,,,,2023-08-03_06h17.07.225,HF_wild_card,2022.2.4,Win32,60.03842459,55e56224c70c7a00112a6565,64b543b0a84ad6ab4a25b86a,64cb378ac069a8412117aa1c,,,,,,,decisionTrl,resources/DB.BMP,resources/DY.BMP,Door4,0.280555556,-0.044444444,1,0,0,0.6131,optionRight,80,9955,5,9,0,9,0,1,,,,,,,,,,,,,,,,,,,,,,,,,,,,,,,,,,,,,,,
,,,,,,,,2023-08-03_06h17.07.225,HF_wild_card,2022.2.4,Win32,60.03842459,55e56224c70c7a00112a6565,64b543b0a84ad6ab4a25b86a,64cb378ac069a8412117aa1c,,,,,,,sngl,resources/Empty.png,resources/DY.BMP,Door4,0.212037014,-0.038888889,1,0,0,0.6302,optionRight,60,10015,5,10,0,10,0,1,,,,,,,,,,,,,,,,,,,,,,,,,,,,,,,,,,,,,,,
,,,,,,,,2023-08-03_06h17.07.225,HF_wild_card,2022.2.4,Win32,60.03842459,55e56224c70c7a00112a6565,64b543b0a84ad6ab4a25b86a,64cb378ac069a8412117aa1c,,,,,,,sngl,resources/DP.BMP,resources/Empty.png,Door2,-0.18981486,0.00740743,1,0,0,0.6307,optionLeft,40,10055,5,11,0,11,0,1,,,,,,,,,,,,,,,,,,,,,,,,,,,,,,,,,,,,,,,
,,,,,,,,2023-08-03_06h17.07.225,HF_wild_card,2022.2.4,Win32,60.03842459,55e56224c70c7a00112a6565,64b543b0a84ad6ab4a25b86a,64cb378ac069a8412117aa1c,,,,,,,decisionTrl,resources/DP.BMP,resources/DBN.BMP,Door2,-0.150925903,-0.027777778,1,0,0,0.6296,optionLeft,40,10095,5,12,0,12,0,1,,,,,,,,,,,,,,,,,,,,,,,,,,,,,,,,,,,,,,,
,,,,,,,,2023-08-03_06h17.07.225,HF_wild_card,2022.2.4,Win32,60.03842459,55e56224c70c7a00112a6565,64b543b0a84ad6ab4a25b86a,64cb378ac069a8412117aa1c,,,,,,,decisionTrl,resources/DG.BMP,resources/DP.BMP,WildCard_Ex,-0.153703681,-0.027777778,1,0,0,0.6295,optionLeft,95,10190,5,13,0,13,0,1,,,,,,,,,,,,,,,,,,,,,,,,,,,,,,,,,,,,,,,
,,,,,,,,2023-08-03_06h17.07.225,HF_wild_card,2022.2.4,Win32,60.03842459,55e56224c70c7a00112a6565,64b543b0a84ad6ab4a25b86a,64cb378ac069a8412117aa1c,,,,,,,sngl,resources/Empty.png,resources/DB.BMP,Door3,0.231481459,-0.011111111,1,0,0,0.6305,optionRight,70,10260,5,14,0,14,0,1,,,,,,,,,,,,,,,,,,,,,,,,,,,,,,,,,,,,,,,
,,,,,,,,2023-08-03_06h17.07.225,HF_wild_card,2022.2.4,Win32,60.03842459,55e56224c70c7a00112a6565,64b543b0a84ad6ab4a25b86a,64cb378ac069a8412117aa1c,,,,,,,decisionTrl,resources/DY.BMP,resources/DB.BMP,Door4,-0.153703681,-0.056481459,1,0,0,0.7134,optionLeft,60,10320,5,15,0,15,0,1,,,,,,,,,,,,,,,,,,,,,,,,,,,,,,,,,,,,,,,
,,,,,,,,2023-08-03_06h17.07.225,HF_wild_card,2022.2.4,Win32,60.03842459,55e56224c70c7a00112a6565,64b543b0a84ad6ab4a25b86a,64cb378ac069a8412117aa1c,,,,,,,ctch,resources/DB.BMP,resources/DP.BMP,Door3,-0.111111043,-0.030555556,1,0,0,0.914,optionLeft,70,10390,5,16,0,16,0,1,,,,,,,,,,,,,,,,,,,,,,,,,,,,,,,,,,,,,,,
,,,,,,,,2023-08-03_06h17.07.225,HF_wild_card,2022.2.4,Win32,60.03842459,55e56224c70c7a00112a6565,64b543b0a84ad6ab4a25b86a,64cb378ac069a8412117aa1c,,,,,,,ctch,resources/DY.BMP,resources/DBN.BMP,Door4,-0.159259237,-0.05,1,0,0,0.7305,optionLeft,60,10450,5,17,0,17,0,1,,,,,,,,,,,,,,,,,,,,,,,,,,,,,,,,,,,,,,,
,,,,,,,,2023-08-03_06h17.07.225,HF_wild_card,2022.2.4,Win32,60.03842459,55e56224c70c7a00112a6565,64b543b0a84ad6ab4a25b86a,64cb378ac069a8412117aa1c,,,,,,,decisionTrl,resources/DP.BMP,resources/DBN.BMP,Door2,-0.125925903,-0.033333333,1,0,0,0.6637,optionLeft,20,10470,5,18,0,18,0,1,,,,,,,,,,,,,,,,,,,,,,,,,,,,,,,,,,,,,,,
,,,,,,,,2023-08-03_06h17.07.225,HF_wild_card,2022.2.4,Win32,60.03842459,55e56224c70c7a00112a6565,64b543b0a84ad6ab4a25b86a,64cb378ac069a8412117aa1c,,,,,,,sngl,resources/DG.BMP,resources/Empty.png,WildCard_Ex,-0.143518541,-0.048148126,1,0,0,0.7115,optionLeft,95,10565,5,19,0,19,0,1,,,,,,,,,,,,,,,,,,,,,,,,,,,,,,,,,,,,,,,
,,,,,,,,2023-08-03_06h17.07.225,HF_wild_card,2022.2.4,Win32,60.03842459,55e56224c70c7a00112a6565,64b543b0a84ad6ab4a25b86a,64cb378ac069a8412117aa1c,,,,,,,decisionTrl,resources/DP.BMP,resources/DBN.BMP,Door2,-0.160185208,-0.089814792,1,0,0,0.7558,optionLeft,40,10605,5,20,0,20,0,1,,,,,,,,,,,,,,,,,,,,,,,,,,,,,,,,,,,,,,,
,,,,,,,,2023-08-03_06h17.07.225,HF_wild_card,2022.2.4,Win32,60.03842459,55e56224c70c7a00112a6565,64b543b0a84ad6ab4a25b86a,64cb378ac069a8412117aa1c,,,,,,,sngl,resources/DBN.BMP,resources/Empty.png,Door1,-0.160185208,-0.054629618,1,0,0,1.1134,optionLeft,30,10635,5,21,0,21,0,1,,,,,,,,,,,,,,,,,,,,,,,,,,,,,,,,,,,,,,,
,,,,,,,,2023-08-03_06h17.07.225,HF_wild_card,2022.2.4,Win32,60.03842459,55e56224c70c7a00112a6565,64b543b0a84ad6ab4a25b86a,64cb378ac069a8412117aa1c,,,,,,,ctch,resources/DP.BMP,resources/DB.BMP,Door2,-0.21481486,-0.100925903,1,0,0,1.0458,optionLeft,40,10675,5,22,0,22,0,1,,,,,,,,,,,,,,,,,,,,,,,,,,,,,,,,,,,,,,,
,,,,,,,,2023-08-03_06h17.07.225,HF_wild_card,2022.2.4,Win32,60.03842459,55e56224c70c7a00112a6565,64b543b0a84ad6ab4a25b86a,64cb378ac069a8412117aa1c,,,,,,,decisionTrl,resources/DY.BMP,resources/DB.BMP,Door4,-0.215740763,-0.077777778,1,0,0,0.73,optionLeft,80,10755,5,23,0,23,0,1,,,,,,,,,,,,,,,,,,,,,,,,,,,,,,,,,,,,,,,
,,,,,,,,2023-08-03_06h17.07.225,HF_wild_card,2022.2.4,Win32,60.03842459,55e56224c70c7a00112a6565,64b543b0a84ad6ab4a25b86a,64cb378ac069a8412117aa1c,,,,,,,decisionTrl,resources/DP.BMP,resources/DG.BMP,WildCard_Ex,0.188888889,-0.059259237,1,0,0,0.6471,optionRight,95,10850,5,24,0,24,0,1,,,,,,,,,,,,,,,,,,,,,,,,,,,,,,,,,,,,,,,
,,,,,,,,2023-08-03_06h17.07.225,HF_wild_card,2022.2.4,Win32,60.03842459,55e56224c70c7a00112a6565,64b543b0a84ad6ab4a25b86a,64cb378ac069a8412117aa1c,,,,,,,sngl,resources/Empty.png,resources/DG.BMP,WildCard_Ex,0.206481459,-0.032407396,1,0,0,0.6132,optionRight,5,10855,5,25,0,25,0,1,,,,,,,,,,,,,,,,,,,,,,,,,,,,,,,,,,,,,,,
,,,,,,,,2023-08-03_06h17.07.225,HF_wild_card,2022.2.4,Win32,60.03842459,55e56224c70c7a00112a6565,64b543b0a84ad6ab4a25b86a,64cb378ac069a8412117aa1c,,,,,,,decisionTrl,resources/DBN.BMP,resources/DG.BMP,WildCard_Ex,0.147222222,-0.040740729,1,0,0,0.6802,optionRight,95,10950,5,26,0,26,0,1,,,,,,,,,,,,,,,,,,,,,,,,,,,,,,,,,,,,,,,
,,,,,,,,2023-08-03_06h17.07.225,HF_wild_card,2022.2.4,Win32,60.03842459,55e56224c70c7a00112a6565,64b543b0a84ad6ab4a25b86a,64cb378ac069a8412117aa1c,,,,,,,decisionTrl,resources/DB.BMP,resources/DG.BMP,Door3,-0.223148193,-0.083333333,1,0,0,0.7805,optionLeft,70,11020,5,27,0,27,0,1,,,,,,,,,,,,,,,,,,,,,,,,,,,,,,,,,,,,,,,
,,,,,,,,2023-08-03_06h17.07.225,HF_wild_card,2022.2.4,Win32,60.03842459,55e56224c70c7a00112a6565,64b543b0a84ad6ab4a25b86a,64cb378ac069a8412117aa1c,,,,,,,ctch,resources/DY.BMP,resources/DBN.BMP,Door4,-0.21481486,-0.056481459,1,0,0,0.6801,optionLeft,60,11080,5,28,0,28,0,1,,,,,,,,,,,,,,,,,,,,,,,,,,,,,,,,,,,,,,,
,,,,,,,,2023-08-03_06h17.07.225,HF_wild_card,2022.2.4,Win32,60.03842459,55e56224c70c7a00112a6565,64b543b0a84ad6ab4a25b86a,64cb378ac069a8412117aa1c,,,,,,,ctch,resources/DBN.BMP,resources/DY.BMP,Door4,0.232407362,-0.035185174,1,0,0,0.6641,optionRight,60,11140,5,29,0,29,0,1,,,,,,,,,,,,,,,,,,,,,,,,,,,,,,,,,,,,,,,
,,,,,,,,2023-08-03_06h17.07.225,HF_wild_card,2022.2.4,Win32,60.03842459,55e56224c70c7a00112a6565,64b543b0a84ad6ab4a25b86a,64cb378ac069a8412117aa1c,,,,,,,decisionTrl,resources/DB.BMP,resources/DY.BMP,Door4,0.218518473,0.002777778,1,0,0,1.78,optionRight,60,11200,5,30,0,30,0,1,,,,,,,,,,,,,,,,,,,,,,,,,,,,,,,,,,,,,,,
,,,,,,,,2023-08-03_06h17.07.225,HF_wild_card,2022.2.4,Win32,60.03842459,55e56224c70c7a00112a6565,64b543b0a84ad6ab4a25b86a,64cb378ac069a8412117aa1c,,,,,,,ctch,resources/DBN.BMP,resources/DY.BMP,Door4,0.190740696,-0.019444444,1,0,0,0.7299,optionRight,80,11280,5,31,0,31,0,1,,,,,,,,,,,,,,,,,,,,,,,,,,,,,,,,,,,,,,,
,,,,,,,,2023-08-03_06h17.07.225,HF_wild_card,2022.2.4,Win32,60.03842459,55e56224c70c7a00112a6565,64b543b0a84ad6ab4a25b86a,64cb378ac069a8412117aa1c,,,,,,,decisionTrl,resources/DBN.BMP,resources/DP.BMP,Door2,0.194444444,-0.012037014,1,0,0,0.7134,optionRight,20,11300,5,32,0,32,0,1,,,,,,,,,,,,,,,,,,,,,,,,,,,,,,,,,,,,,,,
,,,,,,,,2023-08-03_06h17.07.225,HF_wild_card,2022.2.4,Win32,60.03842459,55e56224c70c7a00112a6565,64b543b0a84ad6ab4a25b86a,64cb378ac069a8412117aa1c,,,,,,,decisionTrl,resources/DB.BMP,resources/DY.BMP,Door4,0.13518514,-0.021296285,1,0,0,0.9467,optionRight,80,11380,5,33,0,33,0,1,,,,,,,,,,,,,,,,,,,,,,,,,,,,,,,,,,,,,,,
,,,,,,,,2023-08-03_06h17.07.225,HF_wild_card,2022.2.4,Win32,60.03842459,55e56224c70c7a00112a6565,64b543b0a84ad6ab4a25b86a,64cb378ac069a8412117aa1c,,,,,,,sngl,resources/DG.BMP,resources/Empty.png,WildCard_Ex,-0.230555556,0.00740743,1,0,0,0.6473,optionLeft,5,11385,5,34,0,34,0,1,,,,,,,,,,,,,,,,,,,,,,,,,,,,,,,,,,,,,,,
,,,,,,,,2023-08-03_06h17.07.225,HF_wild_card,2022.2.4,Win32,60.03842459,55e56224c70c7a00112a6565,64b543b0a84ad6ab4a25b86a,64cb378ac069a8412117aa1c,,,,,,,decisionTrl,resources/DG.BMP,resources/DB.BMP,WildCard_Ex,-0.186111111,-0.060185174,1,0,0,0.731,optionLeft,5,11390,5,35,0,35,0,1,,,,,,,,,,,,,,,,,,,,,,,,,,,,,,,,,,,,,,,
,,,,,,,,2023-08-03_06h17.07.225,HF_wild_card,2022.2.4,Win32,60.03842459,55e56224c70c7a00112a6565,64b543b0a84ad6ab4a25b86a,64cb378ac069a8412117aa1c,,,,,,,ctch,resources/DP.BMP,resources/DB.BMP,Door3,0.262036947,-0.023148126,1,0,0,0.6969,optionRight,70,11460,5,36,0,36,0,1,,,,,,,,,,,,,,,,,,,,,,,,,,,,,,,,,,,,,,,
,,,,,,,,2023-08-03_06h17.07.225,HF_wild_card,2022.2.4,Win32,60.03842459,55e56224c70c7a00112a6565,64b543b0a84ad6ab4a25b86a,64cb378ac069a8412117aa1c,,,,,,,sngl,resources/Empty.png,resources/DBN.BMP,Door1,0.247222222,-0.016666667,1,0,0,0.6633,optionRight,30,11490,5,37,0,37,0,1,,,,,,,,,,,,,,,,,,,,,,,,,,,,,,,,,,,,,,,
,,,,,,,,2023-08-03_06h17.07.225,HF_wild_card,2022.2.4,Win32,60.03842459,55e56224c70c7a00112a6565,64b543b0a84ad6ab4a25b86a,64cb378ac069a8412117aa1c,,,,,,,sngl,resources/Empty.png,resources/DG.BMP,WildCard_Ex,0.18518514,-0.018518507,1,0,0,0.5977,optionRight,95,11585,5,38,0,38,0,1,,,,,,,,,,,,,,,,,,,,,,,,,,,,,,,,,,,,,,,
,,,,,,,,2023-08-03_06h17.07.225,HF_wild_card,2022.2.4,Win32,60.03842459,55e56224c70c7a00112a6565,64b543b0a84ad6ab4a25b86a,64cb378ac069a8412117aa1c,,,,,,,decisionTrl,resources/DG.BMP,resources/DY.BMP,WildCard_Ex,-0.18240743,-0.019444444,1,0,0,2.0624,optionLeft,95,11680,5,39,0,39,0,1,,,,,,,,,,,,,,,,,,,,,,,,,,,,,,,,,,,,,,,
,,,,,,,,2023-08-03_06h17.07.225,HF_wild_card,2022.2.4,Win32,60.03842459,55e56224c70c7a00112a6565,64b543b0a84ad6ab4a25b86a,64cb378ac069a8412117aa1c,,,,,,,decisionTrl,resources/DG.BMP,resources/DBN.BMP,WildCard_Ex,-0.197222222,-0.054629618,1,0,0,0.7133,optionLeft,95,11775,5,40,0,40,0,1,,,,,,,,,,,,,,,,,,,,,,,,,,,,,,,,,,,,,,,
,,,,,,,,2023-08-03_06h17.07.225,HF_wild_card,2022.2.4,Win32,60.03842459,55e56224c70c7a00112a6565,64b543b0a84ad6ab4a25b86a,64cb378ac069a8412117aa1c,,,,,,,decisionTrl,resources/DY.BMP,resources/DB.BMP,Door4,-0.158333266,-0.065740729,1,0,0,0.8637,optionLeft,80,11855,5,41,0,41,0,1,,,,,,,,,,,,,,,,,,,,,,,,,,,,,,,,,,,,,,,
,,,,,,,,2023-08-03_06h17.07.225,HF_wild_card,2022.2.4,Win32,60.03842459,55e56224c70c7a00112a6565,64b543b0a84ad6ab4a25b86a,64cb378ac069a8412117aa1c,,,,,,,sngl,resources/DB.BMP,resources/Empty.png,Door3,-0.194444444,-0.045370348,1,0,0,0.7798,optionLeft,70,11925,5,42,0,42,0,1,,,,,,,,,,,,,,,,,,,,,,,,,,,,,,,,,,,,,,,
,,,,,,,,2023-08-03_06h17.07.225,HF_wild_card,2022.2.4,Win32,60.03842459,55e56224c70c7a00112a6565,64b543b0a84ad6ab4a25b86a,64cb378ac069a8412117aa1c,,,,,,,decisionTrl,resources/DY.BMP,resources/DG.BMP,WildCard_Ex,0.112037014,-0.003703681,1,0,0,0.9643,optionRight,95,12020,5,43,0,43,0,1,,,,,,,,,,,,,,,,,,,,,,,,,,,,,,,,,,,,,,,
,,,,,,,,2023-08-03_06h17.07.225,HF_wild_card,2022.2.4,Win32,60.03842459,55e56224c70c7a00112a6565,64b543b0a84ad6ab4a25b86a,64cb378ac069a8412117aa1c,,,,,,,,,,,,,,,,,,,,,,,,,,4,0,4,0,1,,,,,,,,,,,,,,,,,,,,,,,,,,,,,,,,,,
,,,,,,,,2023-08-03_06h17.07.225,HF_wild_card,2022.2.4,Win32,60.03842459,55e56224c70c7a00112a6565,64b543b0a84ad6ab4a25b86a,64cb378ac069a8412117aa1c,,,,,,,ctch,resources/DP.BMP,resources/DB.BMP,Door3,0.274074029,-0.172222222,1,0,0,1.179,optionRight,70,12090,6,0,0,0,0,1,,,,,,,,,,,,,,,,,,,,,,,,,,,,,,,,,,,,,,,
,,,,,,,,2023-08-03_06h17.07.225,HF_wild_card,2022.2.4,Win32,60.03842459,55e56224c70c7a00112a6565,64b543b0a84ad6ab4a25b86a,64cb378ac069a8412117aa1c,,,,,,,ctch,resources/DP.BMP,resources/DB.BMP,Door2,-0.196296319,-0.15,1,0,0,0.863,optionLeft,40,12130,6,1,0,1,0,1,,,,,,,,,,,,,,,,,,,,,,,,,,,,,,,,,,,,,,,
,,,,,,,,2023-08-03_06h17.07.225,HF_wild_card,2022.2.4,Win32,60.03842459,55e56224c70c7a00112a6565,64b543b0a84ad6ab4a25b86a,64cb378ac069a8412117aa1c,,,,,,,ctch,resources/DBN.BMP,resources/DY.BMP,Door4,0.261111111,-0.011111111,1,0,0,0.73,optionRight,80,12210,6,2,0,2,0,1,,,,,,,,,,,,,,,,,,,,,,,,,,,,,,,,,,,,,,,
,,,,,,,,2023-08-03_06h17.07.225,HF_wild_card,2022.2.4,Win32,60.03842459,55e56224c70c7a00112a6565,64b543b0a84ad6ab4a25b86a,64cb378ac069a8412117aa1c,,,,,,,sngl,resources/Empty.png,resources/DG.BMP,WildCard_Ex,0.219444444,-0.018518507,1,0,0,0.6139,optionRight,95,12305,6,3,0,3,0,1,,,,,,,,,,,,,,,,,,,,,,,,,,,,,,,,,,,,,,,
,,,,,,,,2023-08-03_06h17.07.225,HF_wild_card,2022.2.4,Win32,60.03842459,55e56224c70c7a00112a6565,64b543b0a84ad6ab4a25b86a,64cb378ac069a8412117aa1c,,,,,,,ctch,resources/DBN.BMP,resources/DY.BMP,Door4,0.155555556,-0.020370348,1,0,0,0.6642,optionRight,80,12385,6,4,0,4,0,1,,,,,,,,,,,,,,,,,,,,,,,,,,,,,,,,,,,,,,,
,,,,,,,,2023-08-03_06h17.07.225,HF_wild_card,2022.2.4,Win32,60.03842459,55e56224c70c7a00112a6565,64b543b0a84ad6ab4a25b86a,64cb378ac069a8412117aa1c,,,,,,,ctch,resources/DB.BMP,resources/DP.BMP,Door3,-0.187962986,-0.095370348,1,0,0,0.6806,optionLeft,70,12455,6,5,0,5,0,1,,,,,,,,,,,,,,,,,,,,,,,,,,,,,,,,,,,,,,,
,,,,,,,,2023-08-03_06h17.07.225,HF_wild_card,2022.2.4,Win32,60.03842459,55e56224c70c7a00112a6565,64b543b0a84ad6ab4a25b86a,64cb378ac069a8412117aa1c,,,,,,,ctch,resources/DY.BMP,resources/DBN.BMP,Door4,-0.2,-0.094444444,1,0,0,0.5974,optionLeft,80,12535,6,6,0,6,0,1,,,,,,,,,,,,,,,,,,,,,,,,,,,,,,,,,,,,,,,
,,,,,,,,2023-08-03_06h17.07.225,HF_wild_card,2022.2.4,Win32,60.03842459,55e56224c70c7a00112a6565,64b543b0a84ad6ab4a25b86a,64cb378ac069a8412117aa1c,,,,,,,decisionTrl,resources/DBN.BMP,resources/DP.BMP,Door2,0.19259257,-0.043518507,1,0,0,0.6479,optionRight,40,12575,6,7,0,7,0,1,,,,,,,,,,,,,,,,,,,,,,,,,,,,,,,,,,,,,,,
,,,,,,,,2023-08-03_06h17.07.225,HF_wild_card,2022.2.4,Win32,60.03842459,55e56224c70c7a00112a6565,64b543b0a84ad6ab4a25b86a,64cb378ac069a8412117aa1c,,,,,,,decisionTrl,resources/DY.BMP,resources/DB.BMP,Door4,-0.149074097,-0.099074029,1,0,0,0.6975,optionLeft,80,12655,6,8,0,8,0,1,,,,,,,,,,,,,,,,,,,,,,,,,,,,,,,,,,,,,,,
,,,,,,,,2023-08-03_06h17.07.225,HF_wild_card,2022.2.4,Win32,60.03842459,55e56224c70c7a00112a6565,64b543b0a84ad6ab4a25b86a,64cb378ac069a8412117aa1c,,,,,,,decisionTrl,resources/DG.BMP,resources/DY.BMP,Door4,0.121296251,0,1,0,0,0.6979,optionRight,60,12715,6,9,0,9,0,1,,,,,,,,,,,,,,,,,,,,,,,,,,,,,,,,,,,,,,,
,,,,,,,,2023-08-03_06h17.07.225,HF_wild_card,2022.2.4,Win32,60.03842459,55e56224c70c7a00112a6565,64b543b0a84ad6ab4a25b86a,64cb378ac069a8412117aa1c,,,,,,,decisionTrl,resources/DB.BMP,resources/DY.BMP,Door4,0.172222222,-0.037037014,1,0,0,0.7623,optionRight,80,12795,6,10,0,10,0,1,,,,,,,,,,,,,,,,,,,,,,,,,,,,,,,,,,,,,,,
,,,,,,,,2023-08-03_06h17.07.225,HF_wild_card,2022.2.4,Win32,60.03842459,55e56224c70c7a00112a6565,64b543b0a84ad6ab4a25b86a,64cb378ac069a8412117aa1c,,,,,,,sngl,resources/DG.BMP,resources/Empty.png,WildCard_Ex,-0.145370348,-0.069444444,1,0,0,0.5971,optionLeft,95,12890,6,11,0,11,0,1,,,,,,,,,,,,,,,,,,,,,,,,,,,,,,,,,,,,,,,
,,,,,,,,2023-08-03_06h17.07.225,HF_wild_card,2022.2.4,Win32,60.03842459,55e56224c70c7a00112a6565,64b543b0a84ad6ab4a25b86a,64cb378ac069a8412117aa1c,,,,,,,decisionTrl,resources/DP.BMP,resources/DG.BMP,WildCard_Ex,0.205555556,-0.026851841,1,0,0,0.7965,optionRight,5,12895,6,12,0,12,0,1,,,,,,,,,,,,,,,,,,,,,,,,,,,,,,,,,,,,,,,
,,,,,,,,2023-08-03_06h17.07.225,HF_wild_card,2022.2.4,Win32,60.03842459,55e56224c70c7a00112a6565,64b543b0a84ad6ab4a25b86a,64cb378ac069a8412117aa1c,,,,,,,sngl,resources/DY.BMP,resources/Empty.png,Door4,-0.209259304,-0.044444444,1,0,0,0.6307,optionLeft,60,12955,6,13,0,13,0,1,,,,,,,,,,,,,,,,,,,,,,,,,,,,,,,,,,,,,,,
,,,,,,,,2023-08-03_06h17.07.225,HF_wild_card,2022.2.4,Win32,60.03842459,55e56224c70c7a00112a6565,64b543b0a84ad6ab4a25b86a,64cb378ac069a8412117aa1c,,,,,,,sngl,resources/Empty.png,resources/DBN.BMP,Door1,0.329629584,0.018518541,1,0,0,0.6639,optionRight,30,12985,6,14,0,14,0,1,,,,,,,,,,,,,,,,,,,,,,,,,,,,,,,,,,,,,,,
,,,,,,,,2023-08-03_06h17.07.225,HF_wild_card,2022.2.4,Win32,60.03842459,55e56224c70c7a00112a6565,64b543b0a84ad6ab4a25b86a,64cb378ac069a8412117aa1c,,,,,,,decisionTrl,resources/DY.BMP,resources/DG.BMP,WildCard_Ex,0.291666667,-0.031481459,1,0,0,0.9469,optionRight,5,12990,6,15,0,15,0,1,,,,,,,,,,,,,,,,,,,,,,,,,,,,,,,,,,,,,,,
,,,,,,,,2023-08-03_06h17.07.225,HF_wild_card,2022.2.4,Win32,60.03842459,55e56224c70c7a00112a6565,64b543b0a84ad6ab4a25b86a,64cb378ac069a8412117aa1c,,,,,,,decisionTrl,resources/DBN.BMP,resources/DG.BMP,WildCard_Ex,0.312036947,-0.009259237,1,0,0,0.5971,optionRight,95,13085,6,16,0,16,0,1,,,,,,,,,,,,,,,,,,,,,,,,,,,,,,,,,,,,,,,
,,,,,,,,2023-08-03_06h17.07.225,HF_wild_card,2022.2.4,Win32,60.03842459,55e56224c70c7a00112a6565,64b543b0a84ad6ab4a25b86a,64cb378ac069a8412117aa1c,,,,,,,decisionTrl,resources/DP.BMP,resources/DBN.BMP,Door2,-0.185185208,-0.053703681,1,0,0,0.7303,optionLeft,40,13125,6,17,0,17,0,1,,,,,,,,,,,,,,,,,,,,,,,,,,,,,,,,,,,,,,,
,,,,,,,,2023-08-03_06h17.07.225,HF_wild_card,2022.2.4,Win32,60.03842459,55e56224c70c7a00112a6565,64b543b0a84ad6ab4a25b86a,64cb378ac069a8412117aa1c,,,,,,,decisionTrl,resources/DBN.BMP,resources/DP.BMP,Door2,0.244444444,0.034259271,1,0,0,0.7797,optionRight,40,13165,6,18,0,18,0,1,,,,,,,,,,,,,,,,,,,,,,,,,,,,,,,,,,,,,,,
,,,,,,,,2023-08-03_06h17.07.225,HF_wild_card,2022.2.4,Win32,60.03842459,55e56224c70c7a00112a6565,64b543b0a84ad6ab4a25b86a,64cb378ac069a8412117aa1c,,,,,,,sngl,resources/Empty.png,resources/DG.BMP,WildCard_Ex,0.294444444,-0.008333333,1,0,0,0.5641,optionRight,5,13170,6,19,0,19,0,1,,,,,,,,,,,,,,,,,,,,,,,,,,,,,,,,,,,,,,,
,,,,,,,,2023-08-03_06h17.07.225,HF_wild_card,2022.2.4,Win32,60.03842459,55e56224c70c7a00112a6565,64b543b0a84ad6ab4a25b86a,64cb378ac069a8412117aa1c,,,,,,,decisionTrl,resources/DP.BMP,resources/DBN.BMP,Door2,-0.169444377,-0.058333333,1,0,0,0.6478,optionLeft,40,13210,6,20,0,20,0,1,,,,,,,,,,,,,,,,,,,,,,,,,,,,,,,,,,,,,,,
,,,,,,,,2023-08-03_06h17.07.225,HF_wild_card,2022.2.4,Win32,60.03842459,55e56224c70c7a00112a6565,64b543b0a84ad6ab4a25b86a,64cb378ac069a8412117aa1c,,,,,,,decisionTrl,resources/DBN.BMP,resources/DP.BMP,Door2,0.26018514,-0.004629618,1,0,0,0.6134,optionRight,40,13250,6,21,0,21,0,1,,,,,,,,,,,,,,,,,,,,,,,,,,,,,,,,,,,,,,,
,,,,,,,,2023-08-03_06h17.07.225,HF_wild_card,2022.2.4,Win32,60.03842459,55e56224c70c7a00112a6565,64b543b0a84ad6ab4a25b86a,64cb378ac069a8412117aa1c,,,,,,,decisionTrl,resources/DY.BMP,resources/DB.BMP,Door4,-0.119444377,-0.060185174,1,0,0,0.7969,optionLeft,60,13310,6,22,0,22,0,1,,,,,,,,,,,,,,,,,,,,,,,,,,,,,,,,,,,,,,,
,,,,,,,,2023-08-03_06h17.07.225,HF_wild_card,2022.2.4,Win32,60.03842459,55e56224c70c7a00112a6565,64b543b0a84ad6ab4a25b86a,64cb378ac069a8412117aa1c,,,,,,,decisionTrl,resources/DB.BMP,resources/DY.BMP,Door4,0.292592502,-0.006481459,1,0,0,0.563,optionRight,80,13390,6,23,0,23,0,1,,,,,,,,,,,,,,,,,,,,,,,,,,,,,,,,,,,,,,,
,,,,,,,,2023-08-03_06h17.07.225,HF_wild_card,2022.2.4,Win32,60.03842459,55e56224c70c7a00112a6565,64b543b0a84ad6ab4a25b86a,64cb378ac069a8412117aa1c,,,,,,,sngl,resources/Empty.png,resources/DP.BMP,Door2,0.236111111,-0.005555556,1,0,0,0.548,optionRight,40,13430,6,24,0,24,0,1,,,,,,,,,,,,,,,,,,,,,,,,,,,,,,,,,,,,,,,
,,,,,,,,2023-08-03_06h17.07.225,HF_wild_card,2022.2.4,Win32,60.03842459,55e56224c70c7a00112a6565,64b543b0a84ad6ab4a25b86a,64cb378ac069a8412117aa1c,,,,,,,sngl,resources/DG.BMP,resources/Empty.png,WildCard_Ex,-0.193518541,0.015740763,1,0,0,0.5966,optionLeft,5,13435,6,25,0,25,0,1,,,,,,,,,,,,,,,,,,,,,,,,,,,,,,,,,,,,,,,
,,,,,,,,2023-08-03_06h17.07.225,HF_wild_card,2022.2.4,Win32,60.03842459,55e56224c70c7a00112a6565,64b543b0a84ad6ab4a25b86a,64cb378ac069a8412117aa1c,,,,,,,sngl,resources/DB.BMP,resources/Empty.png,Door3,-0.187962986,-0.006481459,1,0,0,0.7143,optionLeft,70,13505,6,26,0,26,0,1,,,,,,,,,,,,,,,,,,,,,,,,,,,,,,,,,,,,,,,
,,,,,,,,2023-08-03_06h17.07.225,HF_wild_card,2022.2.4,Win32,60.03842459,55e56224c70c7a00112a6565,64b543b0a84ad6ab4a25b86a,64cb378ac069a8412117aa1c,,,,,,,decisionTrl,resources/DY.BMP,resources/DB.BMP,Door4,-0.230555556,-0.049074063,1,0,0,0.6462,optionLeft,60,13565,6,27,0,27,0,1,,,,,,,,,,,,,,,,,,,,,,,,,,,,,,,,,,,,,,,
,,,,,,,,2023-08-03_06h17.07.225,HF_wild_card,2022.2.4,Win32,60.03842459,55e56224c70c7a00112a6565,64b543b0a84ad6ab4a25b86a,64cb378ac069a8412117aa1c,,,,,,,sngl,resources/Empty.png,resources/DY.BMP,Door4,0.107407362,0.012962986,1,0,0,0.6976,optionRight,80,13645,6,28,0,28,0,1,,,,,,,,,,,,,,,,,,,,,,,,,,,,,,,,,,,,,,,
,,,,,,,,2023-08-03_06h17.07.225,HF_wild_card,2022.2.4,Win32,60.03842459,55e56224c70c7a00112a6565,64b543b0a84ad6ab4a25b86a,64cb378ac069a8412117aa1c,,,,,,,sngl,resources/DBN.BMP,resources/Empty.png,Door1,-0.171296319,-0.013888889,1,0,0,0.6309,optionLeft,30,13675,6,29,0,29,0,1,,,,,,,,,,,,,,,,,,,,,,,,,,,,,,,,,,,,,,,
,,,,,,,,2023-08-03_06h17.07.225,HF_wild_card,2022.2.4,Win32,60.03842459,55e56224c70c7a00112a6565,64b543b0a84ad6ab4a25b86a,64cb378ac069a8412117aa1c,,,,,,,decisionTrl,resources/DY.BMP,resources/DB.BMP,Door4,-0.220370416,-0.020370348,1,0,0,0.6804,optionLeft,60,13735,6,30,0,30,0,1,,,,,,,,,,,,,,,,,,,,,,,,,,,,,,,,,,,,,,,
,,,,,,,,2023-08-03_06h17.07.225,HF_wild_card,2022.2.4,Win32,60.03842459,55e56224c70c7a00112a6565,64b543b0a84ad6ab4a25b86a,64cb378ac069a8412117aa1c,,,,,,,ctch,resources/DY.BMP,resources/DBN.BMP,Door4,-0.194444444,-0.020370348,1,0,0,0.7639,optionLeft,60,13795,6,31,0,31,0,1,,,,,,,,,,,,,,,,,,,,,,,,,,,,,,,,,,,,,,,
,,,,,,,,2023-08-03_06h17.07.225,HF_wild_card,2022.2.4,Win32,60.03842459,55e56224c70c7a00112a6565,64b543b0a84ad6ab4a25b86a,64cb378ac069a8412117aa1c,,,,,,,sngl,resources/Empty.png,resources/DB.BMP,Door3,0.209259237,0.008333333,1,0,0,0.6645,optionRight,70,13865,6,32,0,32,0,1,,,,,,,,,,,,,,,,,,,,,,,,,,,,,,,,,,,,,,,
,,,,,,,,2023-08-03_06h17.07.225,HF_wild_card,2022.2.4,Win32,60.03842459,55e56224c70c7a00112a6565,64b543b0a84ad6ab4a25b86a,64cb378ac069a8412117aa1c,,,,,,,ctch,resources/DB.BMP,resources/DP.BMP,Door3,-0.166666599,-0.084259237,1,0,0,0.68,optionLeft,70,13935,6,33,0,33,0,1,,,,,,,,,,,,,,,,,,,,,,,,,,,,,,,,,,,,,,,
,,,,,,,,2023-08-03_06h17.07.225,HF_wild_card,2022.2.4,Win32,60.03842459,55e56224c70c7a00112a6565,64b543b0a84ad6ab4a25b86a,64cb378ac069a8412117aa1c,,,,,,,decisionTrl,resources/DG.BMP,resources/DP.BMP,WildCard_Ex,-0.173148126,-0.059259237,1,0,0,0.5973,optionLeft,95,14030,6,34,0,34,0,1,,,,,,,,,,,,,,,,,,,,,,,,,,,,,,,,,,,,,,,
,,,,,,,,2023-08-03_06h17.07.225,HF_wild_card,2022.2.4,Win32,60.03842459,55e56224c70c7a00112a6565,64b543b0a84ad6ab4a25b86a,64cb378ac069a8412117aa1c,,,,,,,decisionTrl,resources/DP.BMP,resources/DBN.BMP,Door2,-0.215740763,-0.083333333,1,0,0,0.6965,optionLeft,20,14050,6,35,0,35,0,1,,,,,,,,,,,,,,,,,,,,,,,,,,,,,,,,,,,,,,,
,,,,,,,,2023-08-03_06h17.07.225,HF_wild_card,2022.2.4,Win32,60.03842459,55e56224c70c7a00112a6565,64b543b0a84ad6ab4a25b86a,64cb378ac069a8412117aa1c,,,,,,,sngl,resources/DP.BMP,resources/Empty.png,Door2,-0.186111111,-0.021296285,1,0,0,0.6804,optionLeft,20,14070,6,36,0,36,0,1,,,,,,,,,,,,,,,,,,,,,,,,,,,,,,,,,,,,,,,
,,,,,,,,2023-08-03_06h17.07.225,HF_wild_card,2022.2.4,Win32,60.03842459,55e56224c70c7a00112a6565,64b543b0a84ad6ab4a25b86a,64cb378ac069a8412117aa1c,,,,,,,decisionTrl,resources/DB.BMP,resources/DG.BMP,Door3,-0.151851874,-0.05,1,0,0,0.8309,optionLeft,70,14140,6,37,0,37,0,1,,,,,,,,,,,,,,,,,,,,,,,,,,,,,,,,,,,,,,,
,,,,,,,,2023-08-03_06h17.07.225,HF_wild_card,2022.2.4,Win32,60.03842459,55e56224c70c7a00112a6565,64b543b0a84ad6ab4a25b86a,64cb378ac069a8412117aa1c,,,,,,,decisionTrl,resources/DB.BMP,resources/DY.BMP,Door4,0.298148058,-0.033333333,1,0,0,0.8469,optionRight,80,14220,6,38,0,38,0,1,,,,,,,,,,,,,,,,,,,,,,,,,,,,,,,,,,,,,,,
,,,,,,,,2023-08-03_06h17.07.225,HF_wild_card,2022.2.4,Win32,60.03842459,55e56224c70c7a00112a6565,64b543b0a84ad6ab4a25b86a,64cb378ac069a8412117aa1c,,,,,,,decisionTrl,resources/DG.BMP,resources/DB.BMP,WildCard_Ex,-0.148148126,-0.058333333,1,0,0,0.6629,optionLeft,5,14225,6,39,0,39,0,1,,,,,,,,,,,,,,,,,,,,,,,,,,,,,,,,,,,,,,,
,,,,,,,,2023-08-03_06h17.07.225,HF_wild_card,2022.2.4,Win32,60.03842459,55e56224c70c7a00112a6565,64b543b0a84ad6ab4a25b86a,64cb378ac069a8412117aa1c,,,,,,,decisionTrl,resources/DP.BMP,resources/DBN.BMP,Door2,-0.173148126,-0.087037014,1,0,0,0.6635,optionLeft,20,14245,6,40,0,40,0,1,,,,,,,,,,,,,,,,,,,,,,,,,,,,,,,,,,,,,,,
,,,,,,,,2023-08-03_06h17.07.225,HF_wild_card,2022.2.4,Win32,60.03842459,55e56224c70c7a00112a6565,64b543b0a84ad6ab4a25b86a,64cb378ac069a8412117aa1c,,,,,,,decisionTrl,resources/DG.BMP,resources/DBN.BMP,WildCard_Ex,-0.178703749,-0.068518507,1,0,0,0.5972,optionLeft,95,14340,6,41,0,41,0,1,,,,,,,,,,,,,,,,,,,,,,,,,,,,,,,,,,,,,,,
,,,,,,,,2023-08-03_06h17.07.225,HF_wild_card,2022.2.4,Win32,60.03842459,55e56224c70c7a00112a6565,64b543b0a84ad6ab4a25b86a,64cb378ac069a8412117aa1c,,,,,,,decisionTrl,resources/DB.BMP,resources/DY.BMP,Door4,0.099074029,-0.012962952,1,0,0,0.746,optionRight,80,14420,6,42,0,42,0,1,,,,,,,,,,,,,,,,,,,,,,,,,,,,,,,,,,,,,,,
,,,,,,,,2023-08-03_06h17.07.225,HF_wild_card,2022.2.4,Win32,60.03842459,55e56224c70c7a00112a6565,64b543b0a84ad6ab4a25b86a,64cb378ac069a8412117aa1c,,,,,,,decisionTrl,resources/DBN.BMP,resources/DP.BMP,Door2,0.222222222,-0.055555556,1,0,0,0.7789,optionRight,20,14440,6,43,0,43,0,1,,,,,,,,,,,,,,,,,,,,,,,,,,,,,,,,,,,,,,,
,,,,,,,,2023-08-03_06h17.07.225,HF_wild_card,2022.2.4,Win32,60.03842459,55e56224c70c7a00112a6565,64b543b0a84ad6ab4a25b86a,64cb378ac069a8412117aa1c,,,,,,,,,,,,,,,,,,,,,,,,,,5,0,5,0,1,,,,,,,,,,,,,,,,,,,,,,,,,,,,,,,,,,
,,,,,,,,2023-08-03_06h17.07.225,HF_wild_card,2022.2.4,Win32,60.03842459,55e56224c70c7a00112a6565,64b543b0a84ad6ab4a25b86a,64cb378ac069a8412117aa1c,,,,,,,decisionTrl,resources/DP.BMP,resources/DBN.BMP,Door2,-0.356481493,-0.114814792,1,0,0,0.6031,optionLeft,20,14460,7,0,0,0,0,1,,,,,,,,,,,,,,,,,,,,,,,,,,,,,,,,,,,,,,,
,,,,,,,,2023-08-03_06h17.07.225,HF_wild_card,2022.2.4,Win32,60.03842459,55e56224c70c7a00112a6565,64b543b0a84ad6ab4a25b86a,64cb378ac069a8412117aa1c,,,,,,,ctch,resources/DY.BMP,resources/DBN.BMP,Door4,-0.14259257,-0.021296285,1,0,0,0.7322,optionLeft,60,14520,7,1,0,1,0,1,,,,,,,,,,,,,,,,,,,,,,,,,,,,,,,,,,,,,,,
,,,,,,,,2023-08-03_06h17.07.225,HF_wild_card,2022.2.4,Win32,60.03842459,55e56224c70c7a00112a6565,64b543b0a84ad6ab4a25b86a,64cb378ac069a8412117aa1c,,,,,,,ctch,resources/DBN.BMP,resources/DY.BMP,Door4,0.187037014,-0.024074063,1,0,0,0.7323,optionRight,60,14580,7,2,0,2,0,1,,,,,,,,,,,,,,,,,,,,,,,,,,,,,,,,,,,,,,,
,,,,,,,,2023-08-03_06h17.07.225,HF_wild_card,2022.2.4,Win32,60.03842459,55e56224c70c7a00112a6565,64b543b0a84ad6ab4a25b86a,64cb378ac069a8412117aa1c,,,,,,,decisionTrl,resources/DB.BMP,resources/DY.BMP,Door4,0.158333333,-0.014814792,1,0,0,0.8484,optionRight,80,14660,7,3,0,3,0,1,,,,,,,,,,,,,,,,,,,,,,,,,,,,,,,,,,,,,,,
,,,,,,,,2023-08-03_06h17.07.225,HF_wild_card,2022.2.4,Win32,60.03842459,55e56224c70c7a00112a6565,64b543b0a84ad6ab4a25b86a,64cb378ac069a8412117aa1c,,,,,,,ctch,resources/DB.BMP,resources/DP.BMP,Door3,-0.341666667,-0.074074029,1,0,0,1.0141,optionLeft,70,14730,7,4,0,4,0,1,,,,,,,,,,,,,,,,,,,,,,,,,,,,,,,,,,,,,,,
,,,,,,,,2023-08-03_06h17.07.225,HF_wild_card,2022.2.4,Win32,60.03842459,55e56224c70c7a00112a6565,64b543b0a84ad6ab4a25b86a,64cb378ac069a8412117aa1c,,,,,,,decisionTrl,resources/DB.BMP,resources/DY.BMP,Door4,0.215740696,-0.040740729,1,0,0,1.1648,optionRight,80,14810,7,5,0,5,0,1,,,,,,,,,,,,,,,,,,,,,,,,,,,,,,,,,,,,,,,
,,,,,,,,2023-08-03_06h17.07.225,HF_wild_card,2022.2.4,Win32,60.03842459,55e56224c70c7a00112a6565,64b543b0a84ad6ab4a25b86a,64cb378ac069a8412117aa1c,,,,,,,decisionTrl,resources/DB.BMP,resources/DY.BMP,Door4,0.174074029,-0.062037014,1,0,0,0.7155,optionRight,80,14890,7,6,0,6,0,1,,,,,,,,,,,,,,,,,,,,,,,,,,,,,,,,,,,,,,,
,,,,,,,,2023-08-03_06h17.07.225,HF_wild_card,2022.2.4,Win32,60.03842459,55e56224c70c7a00112a6565,64b543b0a84ad6ab4a25b86a,64cb378ac069a8412117aa1c,,,,,,,decisionTrl,resources/DP.BMP,resources/DBN.BMP,Door2,-0.180555556,-0.030555556,1,0,0,0.848,optionLeft,40,14930,7,7,0,7,0,1,,,,,,,,,,,,,,,,,,,,,,,,,,,,,,,,,,,,,,,
,,,,,,,,2023-08-03_06h17.07.225,HF_wild_card,2022.2.4,Win32,60.03842459,55e56224c70c7a00112a6565,64b543b0a84ad6ab4a25b86a,64cb378ac069a8412117aa1c,,,,,,,decisionTrl,resources/DY.BMP,resources/DB.BMP,Door4,-0.144444377,-0.019444444,1,0,0,0.7981,optionLeft,80,15010,7,8,0,8,0,1,,,,,,,,,,,,,,,,,,,,,,,,,,,,,,,,,,,,,,,
,,,,,,,,2023-08-03_06h17.07.225,HF_wild_card,2022.2.4,Win32,60.03842459,55e56224c70c7a00112a6565,64b543b0a84ad6ab4a25b86a,64cb378ac069a8412117aa1c,,,,,,,ctch,resources/DP.BMP,resources/DB.BMP,Door3,0.24259257,-0.032407396,1,0,0,0.9819,optionRight,70,15080,7,9,0,9,0,1,,,,,,,,,,,,,,,,,,,,,,,,,,,,,,,,,,,,,,,
,,,,,,,,2023-08-03_06h17.07.225,HF_wild_card,2022.2.4,Win32,60.03842459,55e56224c70c7a00112a6565,64b543b0a84ad6ab4a25b86a,64cb378ac069a8412117aa1c,,,,,,,decisionTrl,resources/DP.BMP,resources/DBN.BMP,Door2,-0.151851874,-0.025925903,1,0,0,0.7769,optionLeft,20,15100,7,10,0,10,0,1,,,,,,,,,,,,,,,,,,,,,,,,,,,,,,,,,,,,,,,
,,,,,,,,2023-08-03_06h17.07.225,HF_wild_card,2022.2.4,Win32,60.03842459,55e56224c70c7a00112a6565,64b543b0a84ad6ab4a25b86a,64cb378ac069a8412117aa1c,,,,,,,ctch,resources/DB.BMP,resources/DP.BMP,Door3,-0.180555556,-0.026851841,1,0,0,0.8973,optionLeft,70,15170,7,11,0,11,0,1,,,,,,,,,,,,,,,,,,,,,,,,,,,,,,,,,,,,,,,
,,,,,,,,2023-08-03_06h17.07.225,HF_wild_card,2022.2.4,Win32,60.03842459,55e56224c70c7a00112a6565,64b543b0a84ad6ab4a25b86a,64cb378ac069a8412117aa1c,,,,,,,decisionTrl,resources/DB.BMP,resources/DY.BMP,Door4,0.255555556,-0.001851841,1,0,0,0.8977,optionRight,80,15250,7,12,0,12,0,1,,,,,,,,,,,,,,,,,,,,,,,,,,,,,,,,,,,,,,,
,,,,,,,,2023-08-03_06h17.07.225,HF_wild_card,2022.2.4,Win32,60.03842459,55e56224c70c7a00112a6565,64b543b0a84ad6ab4a25b86a,64cb378ac069a8412117aa1c,,,,,,,decisionTrl,resources/DBN.BMP,resources/DP.BMP,Door2,0.224074029,-0.016666667,1,0,0,0.7474,optionRight,40,15290,7,13,0,13,0,1,,,,,,,,,,,,,,,,,,,,,,,,,,,,,,,,,,,,,,,
,,,,,,,,2023-08-03_06h17.07.225,HF_wild_card,2022.2.4,Win32,60.03842459,55e56224c70c7a00112a6565,64b543b0a84ad6ab4a25b86a,64cb378ac069a8412117aa1c,,,,,,,ctch,resources/DP.BMP,resources/DB.BMP,Door3,0.191666667,-0.044444444,1,0,0,1.2304,optionRight,70,15360,7,14,0,14,0,1,,,,,,,,,,,,,,,,,,,,,,,,,,,,,,,,,,,,,,,
,,,,,,,,2023-08-03_06h17.07.225,HF_wild_card,2022.2.4,Win32,60.03842459,55e56224c70c7a00112a6565,64b543b0a84ad6ab4a25b86a,64cb378ac069a8412117aa1c,,,,,,,decisionTrl,resources/DP.BMP,resources/DBN.BMP,Door2,-0.206481527,-0.050925903,1,0,0,0.9302,optionLeft,20,15380,7,15,0,15,0,1,,,,,,,,,,,,,,,,,,,,,,,,,,,,,,,,,,,,,,,
,,,,,,,,2023-08-03_06h17.07.225,HF_wild_card,2022.2.4,Win32,60.03842459,55e56224c70c7a00112a6565,64b543b0a84ad6ab4a25b86a,64cb378ac069a8412117aa1c,,,,,,,ctch,resources/DBN.BMP,resources/DY.BMP,Door4,0.23518514,-0.034259237,1,0,0,0.6809,optionRight,60,15440,7,16,0,16,0,1,,,,,,,,,,,,,,,,,,,,,,,,,,,,,,,,,,,,,,,
,,,,,,,,2023-08-03_06h17.07.225,HF_wild_card,2022.2.4,Win32,60.03842459,55e56224c70c7a00112a6565,64b543b0a84ad6ab4a25b86a,64cb378ac069a8412117aa1c,,,,,,,decisionTrl,resources/DY.BMP,resources/DB.BMP,Door4,-0.201851874,-0.041666667,1,0,0,0.8985,optionLeft,80,15520,7,17,0,17,0,1,,,,,,,,,,,,,,,,,,,,,,,,,,,,,,,,,,,,,,,
,,,,,,,,2023-08-03_06h17.07.225,HF_wild_card,2022.2.4,Win32,60.03842459,55e56224c70c7a00112a6565,64b543b0a84ad6ab4a25b86a,64cb378ac069a8412117aa1c,,,,,,,decisionTrl,resources/DY.BMP,resources/DB.BMP,Door4,-0.145370348,-0.012962952,1,0,0,0.8811,optionLeft,60,15580,7,18,0,18,0,1,,,,,,,,,,,,,,,,,,,,,,,,,,,,,,,,,,,,,,,
,,,,,,,,2023-08-03_06h17.07.225,HF_wild_card,2022.2.4,Win32,60.03842459,55e56224c70c7a00112a6565,64b543b0a84ad6ab4a25b86a,64cb378ac069a8412117aa1c,,,,,,,ctch,resources/DBN.BMP,resources/DY.BMP,Door4,0.108333333,-0.003703681,1,0,0,0.7783,optionRight,80,15660,7,19,0,19,0,1,,,,,,,,,,,,,,,,,,,,,,,,,,,,,,,,,,,,,,,
,,,,,,,,2023-08-03_06h17.07.225,HF_wild_card,2022.2.4,Win32,60.03842459,55e56224c70c7a00112a6565,64b543b0a84ad6ab4a25b86a,64cb378ac069a8412117aa1c,,,,,,,decisionTrl,resources/DP.BMP,resources/DBN.BMP,Door2,-0.217592638,-0.018518507,1,0,0,0.677,optionLeft,20,15680,7,20,0,20,0,1,,,,,,,,,,,,,,,,,,,,,,,,,,,,,,,,,,,,,,,
,,,,,,,,2023-08-03_06h17.07.225,HF_wild_card,2022.2.4,Win32,60.03842459,55e56224c70c7a00112a6565,64b543b0a84ad6ab4a25b86a,64cb378ac069a8412117aa1c,,,,,,,decisionTrl,resources/DB.BMP,resources/DY.BMP,Door4,0.227777778,-0.036111111,1,0,0,0.7639,optionRight,60,15740,7,21,0,21,0,1,,,,,,,,,,,,,,,,,,,,,,,,,,,,,,,,,,,,,,,
,,,,,,,,2023-08-03_06h17.07.225,HF_wild_card,2022.2.4,Win32,60.03842459,55e56224c70c7a00112a6565,64b543b0a84ad6ab4a25b86a,64cb378ac069a8412117aa1c,,,,,,,decisionTrl,resources/DP.BMP,resources/DBN.BMP,Door2,-0.124999932,-0.056481459,1,0,0,0.7311,optionLeft,40,15780,7,22,0,22,0,1,,,,,,,,,,,,,,,,,,,,,,,,,,,,,,,,,,,,,,,
,,,,,,,,2023-08-03_06h17.07.225,HF_wild_card,2022.2.4,Win32,60.03842459,55e56224c70c7a00112a6565,64b543b0a84ad6ab4a25b86a,64cb378ac069a8412117aa1c,,,,,,,ctch,resources/DB.BMP,resources/DP.BMP,Door3,-0.136111043,-0.040740729,1,0,0,1.1263,optionLeft,70,15850,7,23,0,23,0,1,,,,,,,,,,,,,,,,,,,,,,,,,,,,,,,,,,,,,,,
,,,,,,,,2023-08-03_06h17.07.225,HF_wild_card,2022.2.4,Win32,60.03842459,55e56224c70c7a00112a6565,64b543b0a84ad6ab4a25b86a,64cb378ac069a8412117aa1c,,,,,,,decisionTrl,resources/DBN.BMP,resources/DP.BMP,Door2,0.197222222,-0.057407396,1,0,0,0.7522,optionRight,40,15890,7,24,0,24,0,1,,,,,,,,,,,,,,,,,,,,,,,,,,,,,,,,,,,,,,,
,,,,,,,,2023-08-03_06h17.07.225,HF_wild_card,2022.2.4,Win32,60.03842459,55e56224c70c7a00112a6565,64b543b0a84ad6ab4a25b86a,64cb378ac069a8412117aa1c,,,,,,,ctch,resources/DY.BMP,resources/DBN.BMP,Door4,-0.138888821,-0.014814792,1,0,0,0.8139,optionLeft,60,15950,7,25,0,25,0,1,,,,,,,,,,,,,,,,,,,,,,,,,,,,,,,,,,,,,,,
,,,,,,,,2023-08-03_06h17.07.225,HF_wild_card,2022.2.4,Win32,60.03842459,55e56224c70c7a00112a6565,64b543b0a84ad6ab4a25b86a,64cb378ac069a8412117aa1c,,,,,,,ctch,resources/DY.BMP,resources/DBN.BMP,Door4,-0.174074097,-0.032407396,1,0,0,0.7642,optionLeft,60,16010,7,26,0,26,0,1,,,,,,,,,,,,,,,,,,,,,,,,,,,,,,,,,,,,,,,
,,,,,,,,2023-08-03_06h17.07.225,HF_wild_card,2022.2.4,Win32,60.03842459,55e56224c70c7a00112a6565,64b543b0a84ad6ab4a25b86a,64cb378ac069a8412117aa1c,,,,,,,decisionTrl,resources/DB.BMP,resources/DY.BMP,Door4,0.087037014,-0.021296285,1,0,0,1.0805,optionRight,60,16070,7,27,0,27,0,1,,,,,,,,,,,,,,,,,,,,,,,,,,,,,,,,,,,,,,,
,,,,,,,,2023-08-03_06h17.07.225,HF_wild_card,2022.2.4,Win32,60.03842459,55e56224c70c7a00112a6565,64b543b0a84ad6ab4a25b86a,64cb378ac069a8412117aa1c,,,,,,,decisionTrl,resources/DBN.BMP,resources/DP.BMP,Door2,0.149074029,-0.011111111,1,0,0,0.8309,optionRight,40,16110,7,28,0,28,0,1,,,,,,,,,,,,,,,,,,,,,,,,,,,,,,,,,,,,,,,
,,,,,,,,2023-08-03_06h17.07.225,HF_wild_card,2022.2.4,Win32,60.03842459,55e56224c70c7a00112a6565,64b543b0a84ad6ab4a25b86a,64cb378ac069a8412117aa1c,,,,,,,decisionTrl,resources/DBN.BMP,resources/DP.BMP,Door2,0.202777778,-0.045370348,1,0,0,0.764,optionRight,20,16130,7,29,0,29,0,1,,,,,,,,,,,,,,,,,,,,,,,,,,,,,,,,,,,,,,,
,,,,,,,,2023-08-03_06h17.07.225,HF_wild_card,2022.2.4,Win32,60.03842459,55e56224c70c7a00112a6565,64b543b0a84ad6ab4a25b86a,64cb378ac069a8412117aa1c,,,,,,,ctch,resources/DP.BMP,resources/DB.BMP,Door3,0.179629584,0.006481493,1,0,0,2.4297,optionRight,70,16200,7,30,0,30,0,1,,,,,,,,,,,,,,,,,,,,,,,,,,,,,,,,,,,,,,,
,,,,,,,,2023-08-03_06h17.07.225,HF_wild_card,2022.2.4,Win32,60.03842459,55e56224c70c7a00112a6565,64b543b0a84ad6ab4a25b86a,64cb378ac069a8412117aa1c,,,,,,,decisionTrl,resources/DBN.BMP,resources/DP.BMP,Door2,0.137037014,-0.002777778,0,0,1,0.7269,optionRight,20,16220,7,31,0,31,0,1,,,,,,,,,,,,,,,,,,,,,,,,,,,,,,,,,,,,,,,
,,,,,,,,2023-08-03_06h17.07.225,HF_wild_card,2022.2.4,Win32,60.03842459,55e56224c70c7a00112a6565,64b543b0a84ad6ab4a25b86a,64cb378ac069a8412117aa1c,,,,,,,decisionTrl,resources/DY.BMP,resources/DB.BMP,Door4,-0.210185208,-0.001851841,1,0,0,0.7763,optionLeft,60,16280,7,32,0,32,0,1,,,,,,,,,,,,,,,,,,,,,,,,,,,,,,,,,,,,,,,
,,,,,,,,2023-08-03_06h17.07.225,HF_wild_card,2022.2.4,Win32,60.03842459,55e56224c70c7a00112a6565,64b543b0a84ad6ab4a25b86a,64cb378ac069a8412117aa1c,,,,,,,decisionTrl,resources/DY.BMP,resources/DB.BMP,Door4,-0.18240743,0.020370382,1,0,0,0.7177,optionLeft,80,16360,7,33,0,33,0,1,,,,,,,,,,,,,,,,,,,,,,,,,,,,,,,,,,,,,,,
,,,,,,,,2023-08-03_06h17.07.225,HF_wild_card,2022.2.4,Win32,60.03842459,55e56224c70c7a00112a6565,64b543b0a84ad6ab4a25b86a,64cb378ac069a8412117aa1c,,,,,,,decisionTrl,resources/DY.BMP,resources/DB.BMP,Door4,-0.173148126,-0.006481459,1,0,0,0.6816,optionLeft,80,16440,7,34,0,34,0,1,,,,,,,,,,,,,,,,,,,,,,,,,,,,,,,,,,,,,,,
,,,,,,,,2023-08-03_06h17.07.225,HF_wild_card,2022.2.4,Win32,60.03842459,55e56224c70c7a00112a6565,64b543b0a84ad6ab4a25b86a,64cb378ac069a8412117aa1c,,,,,,,decisionTrl,resources/DBN.BMP,resources/DP.BMP,Door2,0.23518514,0.038888855,1,0,0,0.6806,optionRight,40,16480,7,35,0,35,0,1,,,,,,,,,,,,,,,,,,,,,,,,,,,,,,,,,,,,,,,
,,,,,,,,2023-08-03_06h17.07.225,HF_wild_card,2022.2.4,Win32,60.03842459,55e56224c70c7a00112a6565,64b543b0a84ad6ab4a25b86a,64cb378ac069a8412117aa1c,,,,,,,,,,,,,,,,,,,,,,,,,,6,0,6,0,1,,,,,,,,,,,,,,,,,,,,,,,,,,,,,,,,,,
,,,,,,,,2023-08-03_06h17.07.225,HF_wild_card,2022.2.4,Win32,60.03842459,55e56224c70c7a00112a6565,64b543b0a84ad6ab4a25b86a,64cb378ac069a8412117aa1c,,,,,,,,,,,,,,,,,,,,,,,,,,,,,,,4,,,,,,,,,,,,,,,,,,,,,,,,,,,,,,,,,
,,,,,,,,2023-08-03_06h17.07.225,HF_wild_card,2022.2.4,Win32,60.03842459,55e56224c70c7a00112a6565,64b543b0a84ad6ab4a25b86a,64cb378ac069a8412117aa1c,,,,,,,,,,,,,,,,,,,,,,,,,,,,,,,,,,,,,,,,,,,,,,,,,,,,,,,,,,,,,,,,
,,,,,,,,2023-08-03_06h17.07.225,HF_wild_card,2022.2.4,Win32,60.03842459,55e56224c70c7a00112a6565,64b543b0a84ad6ab4a25b86a,64cb378ac069a8412117aa1c,,,,,,,,,,,,,,,,,,,,,,,,,,,,,,,,60,Door3,resources/DB.BMP,0,0,0,0,1,,,,,,,,,,,,,,,,,,,,,,,,,
,,,,,,,,2023-08-03_06h17.07.225,HF_wild_card,2022.2.4,Win32,60.03842459,55e56224c70c7a00112a6565,64b543b0a84ad6ab4a25b86a,64cb378ac069a8412117aa1c,,,,,,,,,,,,,,,,,,,,,,,,,,,,,,,,95,WC_extreme,resources/DG.BMP,1,0,1,0,1,,,,,,,,,,,,,,,,,,,,,,,,,
,,,,,,,,2023-08-03_06h17.07.225,HF_wild_card,2022.2.4,Win32,60.03842459,55e56224c70c7a00112a6565,64b543b0a84ad6ab4a25b86a,64cb378ac069a8412117aa1c,,,,,,,,,,,,,,,,,,,,,,,,,,,,,,,,40,Door2,resources/DP.BMP,2,0,2,0,1,,,,,,,,,,,,,,,,,,,,,,,,,
,,,,,,,,2023-08-03_06h17.07.225,HF_wild_card,2022.2.4,Win32,60.03842459,55e56224c70c7a00112a6565,64b543b0a84ad6ab4a25b86a,64cb378ac069a8412117aa1c,,,,,,,,,,,,,,,,,,,,,,,,,,,,,,,,20,Door1,resources/DBN.BMP,3,0,3,0,1,,,,,,,,,,,,,,,,,,,,,,,,,
,,,,,,,,2023-08-03_06h17.07.225,HF_wild_card,2022.2.4,Win32,60.03842459,55e56224c70c7a00112a6565,64b543b0a84ad6ab4a25b86a,64cb378ac069a8412117aa1c,,,,,,,,,,,,,,,,,,,,,,,,,,,,,,,,45,WC_nonExtreme,resources/DR.BMP,4,0,4,0,1,,,,,,,,,,,,,,,,,,,,,,,,,
,,,,,,,,2023-08-03_06h17.07.225,HF_wild_card,2022.2.4,Win32,60.03842459,55e56224c70c7a00112a6565,64b543b0a84ad6ab4a25b86a,64cb378ac069a8412117aa1c,,,,,,,,,,,,,,,,,,,,,,,,,,,,,,,,70,Door4,resources/DY.BMP,5,0,5,0,1,,,,,,,,,,,,,,,,,,,,,,,,,
,,,,,,,,2023-08-03_06h17.07.225,HF_wild_card,2022.2.4,Win32,60.03842459,55e56224c70c7a00112a6565,64b543b0a84ad6ab4a25b86a,64cb378ac069a8412117aa1c,,,,,,,,,,,,,,,,,,,,,,,,,,,,,,,,,,,,,,,,,,,,,,,,,,,,,,,,,,,,,,,,
