Condition,Low fixed image (Door1),Low risky image (Door2),High fixed image (Door3),High risky image (Door4),Extreme Wild Card,NonExtreme Wild Card,,date,expName,psychopyVersion,OS,frameRate,PROLIFIC_PID,STUDY_ID,SESSION_ID,mouse_2.x,mouse_2.y,mouse_2.leftButton,mouse_2.midButton,mouse_2.rightButton,mouse_2.clicked_name,Trial Type,Left Option Image,Right Option Image,Chosen Door,mouse.x,mouse.y,mouse.leftButton,mouse.midButton,mouse.rightButton,mouse.time,mouse.clicked_name,Feedback,Cumulative Reward,Block,trial.thisRepN,trial.thisTrialN,trial.thisN,trial.thisIndex,trial.ran,blocks.thisRepN,blocks.thisTrialN,blocks.thisN,blocks.thisIndex,blocks.ran,Money conversion,First Outcome Reported,Shown Door (First Outcome),Displayed Image (First Outcome),outcomes.thisRepN,outcomes.thisTrialN,outcomes.thisN,outcomes.thisIndex,outcomes.ran,judgments.thisRepN,judgments.thisTrialN,judgments.thisN,judgments.thisIndex,judgments.ran,freqMouse.x,freqMouse.y,freqMouse.leftButton,freqMouse.midButton,freqMouse.rightButton,freqMouse.clicked_name,FQJ for first outcome,FQJ for second outcome,Shown Door,Displayed Image,trials.thisRepN,trials.thisTrialN,trials.thisN,trials.thisIndex,trials.ran,judgBlock.thisRepN,judgBlock.thisTrialN,judgBlock.thisN,judgBlock.thisIndex,judgBlock.ran
1,resources/DY.BMP,resources/DG.BMP,resources/DP.BMP,resources/DB.BMP,resources/DBN.BMP,resources/DR.BMP,,2023-08-16_08h49.17.386,HF_wild_card,2022.2.4,Win32,60.45949214,602257a4c4c9de32aa966833,64d2fd46c836a06233681665,64dc7f71daf0b543d8b5d497,,,,,,,,,,,,,,,,,,,,,,,,,,,,,,,,,,,,,,,,,,,,,,,,,,,,,,,,,,,,,,,,
,,,,,,,,2023-08-16_08h49.17.386,HF_wild_card,2022.2.4,Win32,60.45949214,602257a4c4c9de32aa966833,64d2fd46c836a06233681665,64dc7f71daf0b543d8b5d497,0.000925954,-0.418518575,1,0,0,agree,,,,,,,,,,,,,,,,,,,,,,,,,,,,,,,,,,,,,,,,,,,,,,,,,,,,,,,,,,
,,,,,,,,2023-08-16_08h49.17.386,HF_wild_card,2022.2.4,Win32,60.45949214,602257a4c4c9de32aa966833,64d2fd46c836a06233681665,64dc7f71daf0b543d8b5d497,,,,,,,,,,,,,,,,,,,,,,,,,,,,,,,,,,,,,,,,,,,,,,,,,,,,,,,,,,,,,,,,
,,,,,,,,2023-08-16_08h49.17.386,HF_wild_card,2022.2.4,Win32,60.45949214,602257a4c4c9de32aa966833,64d2fd46c836a06233681665,64dc7f71daf0b543d8b5d497,,,,,,,sngl,resources/Empty.png,resources/DP.BMP,Door3,0.408333333,-0.050925954,1,0,0,2.9371,optionRight,70,70,1,0,0,0,0,1,,,,,,,,,,,,,,,,,,,,,,,,,,,,,,,,,,,,,,,
,,,,,,,,2023-08-16_08h49.17.386,HF_wild_card,2022.2.4,Win32,60.45949214,602257a4c4c9de32aa966833,64d2fd46c836a06233681665,64dc7f71daf0b543d8b5d497,,,,,,,sngl,resources/Empty.png,resources/DB.BMP,Door4,0.372222222,-0.018518533,1,0,0,1.2614,optionRight,60,130,1,1,0,1,0,1,,,,,,,,,,,,,,,,,,,,,,,,,,,,,,,,,,,,,,,
,,,,,,,,2023-08-16_08h49.17.386,HF_wild_card,2022.2.4,Win32,60.45949214,602257a4c4c9de32aa966833,64d2fd46c836a06233681665,64dc7f71daf0b543d8b5d497,,,,,,,sngl,resources/Empty.png,resources/DG.BMP,Door2,0.345370399,-0.062962977,1,0,0,0.9287,optionRight,20,150,1,2,0,2,0,1,,,,,,,,,,,,,,,,,,,,,,,,,,,,,,,,,,,,,,,
,,,,,,,,2023-08-16_08h49.17.386,HF_wild_card,2022.2.4,Win32,60.45949214,602257a4c4c9de32aa966833,64d2fd46c836a06233681665,64dc7f71daf0b543d8b5d497,,,,,,,decisionTrl,resources/DP.BMP,resources/DB.BMP,Door4,0.018518575,-0.055555556,1,0,0,1.9777,optionRight,60,210,1,3,0,3,0,1,,,,,,,,,,,,,,,,,,,,,,,,,,,,,,,,,,,,,,,
,,,,,,,,2023-08-16_08h49.17.386,HF_wild_card,2022.2.4,Win32,60.45949214,602257a4c4c9de32aa966833,64d2fd46c836a06233681665,64dc7f71daf0b543d8b5d497,,,,,,,ctch,resources/DP.BMP,resources/DG.BMP,Door2,0.354629686,-0.049074088,1,0,0,1.046,optionRight,40,250,1,4,0,4,0,1,,,,,,,,,,,,,,,,,,,,,,,,,,,,,,,,,,,,,,,
,,,,,,,,2023-08-16_08h49.17.386,HF_wild_card,2022.2.4,Win32,60.45949214,602257a4c4c9de32aa966833,64d2fd46c836a06233681665,64dc7f71daf0b543d8b5d497,,,,,,,sngl,resources/DR.BMP,resources/Empty.png,WildCard_NonEx,-0.397222222,-0.029629644,1,0,0,0.7126,optionLeft,55,305,1,5,0,5,0,1,,,,,,,,,,,,,,,,,,,,,,,,,,,,,,,,,,,,,,,
,,,,,,,,2023-08-16_08h49.17.386,HF_wild_card,2022.2.4,Win32,60.45949214,602257a4c4c9de32aa966833,64d2fd46c836a06233681665,64dc7f71daf0b543d8b5d497,,,,,,,sngl,resources/DY.BMP,resources/Empty.png,Door1,-0.351851824,0.00370369,1,0,0,1.162,optionLeft,30,335,1,6,0,6,0,1,,,,,,,,,,,,,,,,,,,,,,,,,,,,,,,,,,,,,,,
,,,,,,,,2023-08-16_08h49.17.386,HF_wild_card,2022.2.4,Win32,60.45949214,602257a4c4c9de32aa966833,64d2fd46c836a06233681665,64dc7f71daf0b543d8b5d497,,,,,,,decisionTrl,resources/DG.BMP,resources/DY.BMP,Door2,-0.308333333,-0.023148176,1,0,0,0.779,optionLeft,40,375,1,7,0,7,0,1,,,,,,,,,,,,,,,,,,,,,,,,,,,,,,,,,,,,,,,
,,,,,,,,2023-08-16_08h49.17.386,HF_wild_card,2022.2.4,Win32,60.45949214,602257a4c4c9de32aa966833,64d2fd46c836a06233681665,64dc7f71daf0b543d8b5d497,,,,,,,sngl,resources/Empty.png,resources/DY.BMP,Door1,0.382407464,-0.037962977,1,0,0,0.7469,optionRight,30,405,1,8,0,8,0,1,,,,,,,,,,,,,,,,,,,,,,,,,,,,,,,,,,,,,,,
,,,,,,,,2023-08-16_08h49.17.386,HF_wild_card,2022.2.4,Win32,60.45949214,602257a4c4c9de32aa966833,64d2fd46c836a06233681665,64dc7f71daf0b543d8b5d497,,,,,,,ctch,resources/DG.BMP,resources/DP.BMP,Door3,0.423148176,-0.060185199,1,0,0,0.9279,optionRight,70,475,1,9,0,9,0,1,,,,,,,,,,,,,,,,,,,,,,,,,,,,,,,,,,,,,,,
,,,,,,,,2023-08-16_08h49.17.386,HF_wild_card,2022.2.4,Win32,60.45949214,602257a4c4c9de32aa966833,64d2fd46c836a06233681665,64dc7f71daf0b543d8b5d497,,,,,,,decisionTrl,resources/DY.BMP,resources/DR.BMP,Door1,-0.358333333,-0.007407422,1,0,0,0.9959,optionLeft,30,505,1,10,0,10,0,1,,,,,,,,,,,,,,,,,,,,,,,,,,,,,,,,,,,,,,,
,,,,,,,,2023-08-16_08h49.17.386,HF_wild_card,2022.2.4,Win32,60.45949214,602257a4c4c9de32aa966833,64d2fd46c836a06233681665,64dc7f71daf0b543d8b5d497,,,,,,,ctch,resources/DY.BMP,resources/DB.BMP,Door4,0.279629686,-0.058333333,1,0,0,0.7468,optionRight,60,565,1,11,0,11,0,1,,,,,,,,,,,,,,,,,,,,,,,,,,,,,,,,,,,,,,,
,,,,,,,,2023-08-16_08h49.17.386,HF_wild_card,2022.2.4,Win32,60.45949214,602257a4c4c9de32aa966833,64d2fd46c836a06233681665,64dc7f71daf0b543d8b5d497,,,,,,,decisionTrl,resources/DG.BMP,resources/DY.BMP,Door1,0.416666667,-0.079629644,1,0,0,1.8645,optionRight,30,595,1,12,0,12,0,1,,,,,,,,,,,,,,,,,,,,,,,,,,,,,,,,,,,,,,,
,,,,,,,,2023-08-16_08h49.17.386,HF_wild_card,2022.2.4,Win32,60.45949214,602257a4c4c9de32aa966833,64d2fd46c836a06233681665,64dc7f71daf0b543d8b5d497,,,,,,,decisionTrl,resources/DP.BMP,resources/DB.BMP,Door4,0.308333333,-0.025,1,0,0,0.746,optionRight,80,675,1,13,0,13,0,1,,,,,,,,,,,,,,,,,,,,,,,,,,,,,,,,,,,,,,,
,,,,,,,,2023-08-16_08h49.17.386,HF_wild_card,2022.2.4,Win32,60.45949214,602257a4c4c9de32aa966833,64d2fd46c836a06233681665,64dc7f71daf0b543d8b5d497,,,,,,,decisionTrl,resources/DB.BMP,resources/DR.BMP,WildCard_NonEx,0.268518575,-0.040740755,1,0,0,1.0285,optionRight,55,730,1,14,0,14,0,1,,,,,,,,,,,,,,,,,,,,,,,,,,,,,,,,,,,,,,,
,,,,,,,,2023-08-16_08h49.17.386,HF_wild_card,2022.2.4,Win32,60.45949214,602257a4c4c9de32aa966833,64d2fd46c836a06233681665,64dc7f71daf0b543d8b5d497,,,,,,,decisionTrl,resources/DP.BMP,resources/DR.BMP,WildCard_NonEx,0.323148176,-0.033333333,1,0,0,0.8777,optionRight,45,775,1,15,0,15,0,1,,,,,,,,,,,,,,,,,,,,,,,,,,,,,,,,,,,,,,,
,,,,,,,,2023-08-16_08h49.17.386,HF_wild_card,2022.2.4,Win32,60.45949214,602257a4c4c9de32aa966833,64d2fd46c836a06233681665,64dc7f71daf0b543d8b5d497,,,,,,,decisionTrl,resources/DG.BMP,resources/DY.BMP,Door1,0.311111111,-0.055555556,1,0,0,0.8768,optionRight,30,805,1,16,0,16,0,1,,,,,,,,,,,,,,,,,,,,,,,,,,,,,,,,,,,,,,,
,,,,,,,,2023-08-16_08h49.17.386,HF_wild_card,2022.2.4,Win32,60.45949214,602257a4c4c9de32aa966833,64d2fd46c836a06233681665,64dc7f71daf0b543d8b5d497,,,,,,,sngl,resources/DG.BMP,resources/Empty.png,Door2,-0.320370356,-0.001851866,1,0,0,0.6444,optionLeft,40,845,1,17,0,17,0,1,,,,,,,,,,,,,,,,,,,,,,,,,,,,,,,,,,,,,,,
,,,,,,,,2023-08-16_08h49.17.386,HF_wild_card,2022.2.4,Win32,60.45949214,602257a4c4c9de32aa966833,64d2fd46c836a06233681665,64dc7f71daf0b543d8b5d497,,,,,,,sngl,resources/DB.BMP,resources/Empty.png,Door4,-0.347222222,-0.00648151,1,0,0,0.7616,optionLeft,80,925,1,18,0,18,0,1,,,,,,,,,,,,,,,,,,,,,,,,,,,,,,,,,,,,,,,
,,,,,,,,2023-08-16_08h49.17.386,HF_wild_card,2022.2.4,Win32,60.45949214,602257a4c4c9de32aa966833,64d2fd46c836a06233681665,64dc7f71daf0b543d8b5d497,,,,,,,sngl,resources/Empty.png,resources/DR.BMP,WildCard_NonEx,0.275925954,-0.039814843,1,0,0,0.8458,optionRight,55,980,1,19,0,19,0,1,,,,,,,,,,,,,,,,,,,,,,,,,,,,,,,,,,,,,,,
,,,,,,,,2023-08-16_08h49.17.386,HF_wild_card,2022.2.4,Win32,60.45949214,602257a4c4c9de32aa966833,64d2fd46c836a06233681665,64dc7f71daf0b543d8b5d497,,,,,,,decisionTrl,resources/DY.BMP,resources/DG.BMP,Door2,0.33148151,-0.007407422,1,0,0,1.2121,optionRight,40,1020,1,20,0,20,0,1,,,,,,,,,,,,,,,,,,,,,,,,,,,,,,,,,,,,,,,
,,,,,,,,2023-08-16_08h49.17.386,HF_wild_card,2022.2.4,Win32,60.45949214,602257a4c4c9de32aa966833,64d2fd46c836a06233681665,64dc7f71daf0b543d8b5d497,,,,,,,sngl,resources/DP.BMP,resources/Empty.png,Door3,-0.384259245,0.026851824,1,0,0,0.7466,optionLeft,70,1090,1,21,0,21,0,1,,,,,,,,,,,,,,,,,,,,,,,,,,,,,,,,,,,,,,,
,,,,,,,,2023-08-16_08h49.17.386,HF_wild_card,2022.2.4,Win32,60.45949214,602257a4c4c9de32aa966833,64d2fd46c836a06233681665,64dc7f71daf0b543d8b5d497,,,,,,,decisionTrl,resources/DB.BMP,resources/DP.BMP,Door4,-0.327777778,0.005555556,1,0,0,0.8104,optionLeft,60,1150,1,22,0,22,0,1,,,,,,,,,,,,,,,,,,,,,,,,,,,,,,,,,,,,,,,
,,,,,,,,2023-08-16_08h49.17.386,HF_wild_card,2022.2.4,Win32,60.45949214,602257a4c4c9de32aa966833,64d2fd46c836a06233681665,64dc7f71daf0b543d8b5d497,,,,,,,ctch,resources/DP.BMP,resources/DG.BMP,Door2,0.368518575,-0.065740755,1,0,0,0.7629,optionRight,20,1170,1,23,0,23,0,1,,,,,,,,,,,,,,,,,,,,,,,,,,,,,,,,,,,,,,,
,,,,,,,,2023-08-16_08h49.17.386,HF_wild_card,2022.2.4,Win32,60.45949214,602257a4c4c9de32aa966833,64d2fd46c836a06233681665,64dc7f71daf0b543d8b5d497,,,,,,,decisionTrl,resources/DB.BMP,resources/DP.BMP,Door3,0.291666667,-0.043518533,1,0,0,1.2292,optionRight,70,1240,1,24,0,24,0,1,,,,,,,,,,,,,,,,,,,,,,,,,,,,,,,,,,,,,,,
,,,,,,,,2023-08-16_08h49.17.386,HF_wild_card,2022.2.4,Win32,60.45949214,602257a4c4c9de32aa966833,64d2fd46c836a06233681665,64dc7f71daf0b543d8b5d497,,,,,,,decisionTrl,resources/DP.BMP,resources/DB.BMP,Door3,-0.449074046,0.030555556,1,0,0,0.8114,optionLeft,70,1310,1,25,0,25,0,1,,,,,,,,,,,,,,,,,,,,,,,,,,,,,,,,,,,,,,,
,,,,,,,,2023-08-16_08h49.17.386,HF_wild_card,2022.2.4,Win32,60.45949214,602257a4c4c9de32aa966833,64d2fd46c836a06233681665,64dc7f71daf0b543d8b5d497,,,,,,,sngl,resources/DR.BMP,resources/Empty.png,WildCard_NonEx,-0.351851824,0.004629601,1,0,0,0.7971,optionLeft,45,1355,1,26,0,26,0,1,,,,,,,,,,,,,,,,,,,,,,,,,,,,,,,,,,,,,,,
,,,,,,,,2023-08-16_08h49.17.386,HF_wild_card,2022.2.4,Win32,60.45949214,602257a4c4c9de32aa966833,64d2fd46c836a06233681665,64dc7f71daf0b543d8b5d497,,,,,,,decisionTrl,resources/DY.BMP,resources/DG.BMP,Door2,0.400925954,-0.029629644,1,0,0,0.7773,optionRight,40,1395,1,27,0,27,0,1,,,,,,,,,,,,,,,,,,,,,,,,,,,,,,,,,,,,,,,
,,,,,,,,2023-08-16_08h49.17.386,HF_wild_card,2022.2.4,Win32,60.45949214,602257a4c4c9de32aa966833,64d2fd46c836a06233681665,64dc7f71daf0b543d8b5d497,,,,,,,ctch,resources/DY.BMP,resources/DB.BMP,Door4,0.253703732,-0.020370399,1,0,0,0.8622,optionRight,60,1455,1,28,0,28,0,1,,,,,,,,,,,,,,,,,,,,,,,,,,,,,,,,,,,,,,,
,,,,,,,,2023-08-16_08h49.17.386,HF_wild_card,2022.2.4,Win32,60.45949214,602257a4c4c9de32aa966833,64d2fd46c836a06233681665,64dc7f71daf0b543d8b5d497,,,,,,,decisionTrl,resources/DG.BMP,resources/DY.BMP,Door2,-0.352777778,0.037962935,1,0,0,0.7121,optionLeft,20,1475,1,29,0,29,0,1,,,,,,,,,,,,,,,,,,,,,,,,,,,,,,,,,,,,,,,
,,,,,,,,2023-08-16_08h49.17.386,HF_wild_card,2022.2.4,Win32,60.45949214,602257a4c4c9de32aa966833,64d2fd46c836a06233681665,64dc7f71daf0b543d8b5d497,,,,,,,decisionTrl,resources/DB.BMP,resources/DP.BMP,Door3,0.437963019,-0.075925954,1,0,0,0.8798,optionRight,70,1545,1,30,0,30,0,1,,,,,,,,,,,,,,,,,,,,,,,,,,,,,,,,,,,,,,,
,,,,,,,,2023-08-16_08h49.17.386,HF_wild_card,2022.2.4,Win32,60.45949214,602257a4c4c9de32aa966833,64d2fd46c836a06233681665,64dc7f71daf0b543d8b5d497,,,,,,,ctch,resources/DB.BMP,resources/DY.BMP,Door4,-0.484259245,0.013888889,1,0,0,0.8792,optionLeft,60,1605,1,31,0,31,0,1,,,,,,,,,,,,,,,,,,,,,,,,,,,,,,,,,,,,,,,
,,,,,,,,2023-08-16_08h49.17.386,HF_wild_card,2022.2.4,Win32,60.45949214,602257a4c4c9de32aa966833,64d2fd46c836a06233681665,64dc7f71daf0b543d8b5d497,,,,,,,sngl,resources/Empty.png,resources/DR.BMP,WildCard_NonEx,0.296296353,-0.035185199,1,0,0,0.796,optionRight,45,1650,1,32,0,32,0,1,,,,,,,,,,,,,,,,,,,,,,,,,,,,,,,,,,,,,,,
,,,,,,,,2023-08-16_08h49.17.386,HF_wild_card,2022.2.4,Win32,60.45949214,602257a4c4c9de32aa966833,64d2fd46c836a06233681665,64dc7f71daf0b543d8b5d497,,,,,,,ctch,resources/DB.BMP,resources/DY.BMP,Door1,0.385185242,-0.026851866,1,0,0,1.5456,optionRight,30,1680,1,33,0,33,0,1,,,,,,,,,,,,,,,,,,,,,,,,,,,,,,,,,,,,,,,
,,,,,,,,2023-08-16_08h49.17.386,HF_wild_card,2022.2.4,Win32,60.45949214,602257a4c4c9de32aa966833,64d2fd46c836a06233681665,64dc7f71daf0b543d8b5d497,,,,,,,decisionTrl,resources/DG.BMP,resources/DR.BMP,WildCard_NonEx,0.272222222,-0.023148176,1,0,0,0.797,optionRight,45,1725,1,34,0,34,0,1,,,,,,,,,,,,,,,,,,,,,,,,,,,,,,,,,,,,,,,
,,,,,,,,2023-08-16_08h49.17.386,HF_wild_card,2022.2.4,Win32,60.45949214,602257a4c4c9de32aa966833,64d2fd46c836a06233681665,64dc7f71daf0b543d8b5d497,,,,,,,decisionTrl,resources/DR.BMP,resources/DY.BMP,WildCard_NonEx,-0.282407379,0.014814801,1,0,0,0.9113,optionLeft,45,1770,1,35,0,35,0,1,,,,,,,,,,,,,,,,,,,,,,,,,,,,,,,,,,,,,,,
,,,,,,,,2023-08-16_08h49.17.386,HF_wild_card,2022.2.4,Win32,60.45949214,602257a4c4c9de32aa966833,64d2fd46c836a06233681665,64dc7f71daf0b543d8b5d497,,,,,,,decisionTrl,resources/DY.BMP,resources/DG.BMP,Door2,0.388888889,-0.055555556,1,0,0,0.7796,optionRight,20,1790,1,36,0,36,0,1,,,,,,,,,,,,,,,,,,,,,,,,,,,,,,,,,,,,,,,
,,,,,,,,2023-08-16_08h49.17.386,HF_wild_card,2022.2.4,Win32,60.45949214,602257a4c4c9de32aa966833,64d2fd46c836a06233681665,64dc7f71daf0b543d8b5d497,,,,,,,decisionTrl,resources/DB.BMP,resources/DP.BMP,Door3,0.301851908,0.016666667,1,0,0,1.3614,optionRight,70,1860,1,37,0,37,0,1,,,,,,,,,,,,,,,,,,,,,,,,,,,,,,,,,,,,,,,
,,,,,,,,2023-08-16_08h49.17.386,HF_wild_card,2022.2.4,Win32,60.45949214,602257a4c4c9de32aa966833,64d2fd46c836a06233681665,64dc7f71daf0b543d8b5d497,,,,,,,decisionTrl,resources/DY.BMP,resources/DG.BMP,Door2,0.319444444,-0.041666667,1,0,0,0.7949,optionRight,40,1900,1,38,0,38,0,1,,,,,,,,,,,,,,,,,,,,,,,,,,,,,,,,,,,,,,,
,,,,,,,,2023-08-16_08h49.17.386,HF_wild_card,2022.2.4,Win32,60.45949214,602257a4c4c9de32aa966833,64d2fd46c836a06233681665,64dc7f71daf0b543d8b5d497,,,,,,,decisionTrl,resources/DP.BMP,resources/DB.BMP,Door3,-0.415740712,0.005555556,1,0,0,0.9626,optionLeft,70,1970,1,39,0,39,0,1,,,,,,,,,,,,,,,,,,,,,,,,,,,,,,,,,,,,,,,
,,,,,,,,2023-08-16_08h49.17.386,HF_wild_card,2022.2.4,Win32,60.45949214,602257a4c4c9de32aa966833,64d2fd46c836a06233681665,64dc7f71daf0b543d8b5d497,,,,,,,decisionTrl,resources/DR.BMP,resources/DB.BMP,Door4,0.336111111,-0.049074088,1,0,0,0.7141,optionRight,60,2030,1,40,0,40,0,1,,,,,,,,,,,,,,,,,,,,,,,,,,,,,,,,,,,,,,,
,,,,,,,,2023-08-16_08h49.17.386,HF_wild_card,2022.2.4,Win32,60.45949214,602257a4c4c9de32aa966833,64d2fd46c836a06233681665,64dc7f71daf0b543d8b5d497,,,,,,,decisionTrl,resources/DR.BMP,resources/DG.BMP,Door2,0.237963019,-0.041666667,1,0,0,0.7623,optionRight,40,2070,1,41,0,41,0,1,,,,,,,,,,,,,,,,,,,,,,,,,,,,,,,,,,,,,,,
,,,,,,,,2023-08-16_08h49.17.386,HF_wild_card,2022.2.4,Win32,60.45949214,602257a4c4c9de32aa966833,64d2fd46c836a06233681665,64dc7f71daf0b543d8b5d497,,,,,,,ctch,resources/DG.BMP,resources/DP.BMP,Door3,0.35,-0.08148151,1,0,0,0.9119,optionRight,70,2140,1,42,0,42,0,1,,,,,,,,,,,,,,,,,,,,,,,,,,,,,,,,,,,,,,,
,,,,,,,,2023-08-16_08h49.17.386,HF_wild_card,2022.2.4,Win32,60.45949214,602257a4c4c9de32aa966833,64d2fd46c836a06233681665,64dc7f71daf0b543d8b5d497,,,,,,,decisionTrl,resources/DR.BMP,resources/DP.BMP,Door3,0.374074131,-0.066666667,1,0,0,0.6463,optionRight,70,2210,1,43,0,43,0,1,,,,,,,,,,,,,,,,,,,,,,,,,,,,,,,,,,,,,,,
,,,,,,,,2023-08-16_08h49.17.386,HF_wild_card,2022.2.4,Win32,60.45949214,602257a4c4c9de32aa966833,64d2fd46c836a06233681665,64dc7f71daf0b543d8b5d497,,,,,,,,,,,,,,,,,,,,,,,,,,0,0,0,0,1,,,,,,,,,,,,,,,,,,,,,,,,,,,,,,,,,,
,,,,,,,,2023-08-16_08h49.17.386,HF_wild_card,2022.2.4,Win32,60.45949214,602257a4c4c9de32aa966833,64d2fd46c836a06233681665,64dc7f71daf0b543d8b5d497,,,,,,,decisionTrl,resources/DB.BMP,resources/DP.BMP,Door3,0.412963019,-0.105555556,1,0,0,1.4192,optionRight,70,2280,2,0,0,0,0,1,,,,,,,,,,,,,,,,,,,,,,,,,,,,,,,,,,,,,,,
,,,,,,,,2023-08-16_08h49.17.386,HF_wild_card,2022.2.4,Win32,60.45949214,602257a4c4c9de32aa966833,64d2fd46c836a06233681665,64dc7f71daf0b543d8b5d497,,,,,,,decisionTrl,resources/DR.BMP,resources/DB.BMP,Door4,0.302777778,-0.012037065,1,0,0,0.7139,optionRight,60,2340,2,1,0,1,0,1,,,,,,,,,,,,,,,,,,,,,,,,,,,,,,,,,,,,,,,
,,,,,,,,2023-08-16_08h49.17.386,HF_wild_card,2022.2.4,Win32,60.45949214,602257a4c4c9de32aa966833,64d2fd46c836a06233681665,64dc7f71daf0b543d8b5d497,,,,,,,ctch,resources/DP.BMP,resources/DG.BMP,Door2,0.392592621,-0.016666667,1,0,0,0.5444,optionRight,40,2380,2,2,0,2,0,1,,,,,,,,,,,,,,,,,,,,,,,,,,,,,,,,,,,,,,,
,,,,,,,,2023-08-16_08h49.17.386,HF_wild_card,2022.2.4,Win32,60.45949214,602257a4c4c9de32aa966833,64d2fd46c836a06233681665,64dc7f71daf0b543d8b5d497,,,,,,,ctch,resources/DG.BMP,resources/DP.BMP,Door3,0.337037065,-0.022222222,1,0,0,0.5301,optionRight,70,2450,2,3,0,3,0,1,,,,,,,,,,,,,,,,,,,,,,,,,,,,,,,,,,,,,,,
,,,,,,,,2023-08-16_08h49.17.386,HF_wild_card,2022.2.4,Win32,60.45949214,602257a4c4c9de32aa966833,64d2fd46c836a06233681665,64dc7f71daf0b543d8b5d497,,,,,,,decisionTrl,resources/DY.BMP,resources/DG.BMP,Door2,0.388888889,-0.05648151,1,0,0,0.7453,optionRight,40,2490,2,4,0,4,0,1,,,,,,,,,,,,,,,,,,,,,,,,,,,,,,,,,,,,,,,
,,,,,,,,2023-08-16_08h49.17.386,HF_wild_card,2022.2.4,Win32,60.45949214,602257a4c4c9de32aa966833,64d2fd46c836a06233681665,64dc7f71daf0b543d8b5d497,,,,,,,ctch,resources/DB.BMP,resources/DY.BMP,Door4,-0.337037023,-0.041666667,1,0,0,0.6803,optionLeft,60,2550,2,5,0,5,0,1,,,,,,,,,,,,,,,,,,,,,,,,,,,,,,,,,,,,,,,
,,,,,,,,2023-08-16_08h49.17.386,HF_wild_card,2022.2.4,Win32,60.45949214,602257a4c4c9de32aa966833,64d2fd46c836a06233681665,64dc7f71daf0b543d8b5d497,,,,,,,decisionTrl,resources/DP.BMP,resources/DR.BMP,Door3,-0.312962935,0.001851824,1,0,0,0.7466,optionLeft,70,2620,2,6,0,6,0,1,,,,,,,,,,,,,,,,,,,,,,,,,,,,,,,,,,,,,,,
,,,,,,,,2023-08-16_08h49.17.386,HF_wild_card,2022.2.4,Win32,60.45949214,602257a4c4c9de32aa966833,64d2fd46c836a06233681665,64dc7f71daf0b543d8b5d497,,,,,,,decisionTrl,resources/DG.BMP,resources/DR.BMP,WildCard_NonEx,0.395370399,-0.069444444,1,0,0,0.6965,optionRight,45,2665,2,7,0,7,0,1,,,,,,,,,,,,,,,,,,,,,,,,,,,,,,,,,,,,,,,
,,,,,,,,2023-08-16_08h49.17.386,HF_wild_card,2022.2.4,Win32,60.45949214,602257a4c4c9de32aa966833,64d2fd46c836a06233681665,64dc7f71daf0b543d8b5d497,,,,,,,decisionTrl,resources/DG.BMP,resources/DY.BMP,Door2,-0.354629601,0.037962935,1,0,0,0.7118,optionLeft,20,2685,2,8,0,8,0,1,,,,,,,,,,,,,,,,,,,,,,,,,,,,,,,,,,,,,,,
,,,,,,,,2023-08-16_08h49.17.386,HF_wild_card,2022.2.4,Win32,60.45949214,602257a4c4c9de32aa966833,64d2fd46c836a06233681665,64dc7f71daf0b543d8b5d497,,,,,,,decisionTrl,resources/DG.BMP,resources/DY.BMP,Door1,0.534259372,-0.090740755,1,0,0,0.5649,optionRight,30,2715,2,9,0,9,0,1,,,,,,,,,,,,,,,,,,,,,,,,,,,,,,,,,,,,,,,
,,,,,,,,2023-08-16_08h49.17.386,HF_wild_card,2022.2.4,Win32,60.45949214,602257a4c4c9de32aa966833,64d2fd46c836a06233681665,64dc7f71daf0b543d8b5d497,,,,,,,sngl,resources/DB.BMP,resources/Empty.png,Door4,-0.362962935,0.012037023,1,0,0,0.6152,optionLeft,60,2775,2,10,0,10,0,1,,,,,,,,,,,,,,,,,,,,,,,,,,,,,,,,,,,,,,,
,,,,,,,,2023-08-16_08h49.17.386,HF_wild_card,2022.2.4,Win32,60.45949214,602257a4c4c9de32aa966833,64d2fd46c836a06233681665,64dc7f71daf0b543d8b5d497,,,,,,,decisionTrl,resources/DB.BMP,resources/DP.BMP,Door3,0.466666667,-0.070370399,1,0,0,0.6798,optionRight,70,2845,2,11,0,11,0,1,,,,,,,,,,,,,,,,,,,,,,,,,,,,,,,,,,,,,,,
,,,,,,,,2023-08-16_08h49.17.386,HF_wild_card,2022.2.4,Win32,60.45949214,602257a4c4c9de32aa966833,64d2fd46c836a06233681665,64dc7f71daf0b543d8b5d497,,,,,,,decisionTrl,resources/DP.BMP,resources/DB.BMP,Door4,0.408333333,-0.075,1,0,0,0.5302,optionRight,80,2925,2,12,0,12,0,1,,,,,,,,,,,,,,,,,,,,,,,,,,,,,,,,,,,,,,,
,,,,,,,,2023-08-16_08h49.17.386,HF_wild_card,2022.2.4,Win32,60.45949214,602257a4c4c9de32aa966833,64d2fd46c836a06233681665,64dc7f71daf0b543d8b5d497,,,,,,,sngl,resources/Empty.png,resources/DY.BMP,Door1,0.294444444,-0.039814843,1,0,0,0.547,optionRight,30,2955,2,13,0,13,0,1,,,,,,,,,,,,,,,,,,,,,,,,,,,,,,,,,,,,,,,
,,,,,,,,2023-08-16_08h49.17.386,HF_wild_card,2022.2.4,Win32,60.45949214,602257a4c4c9de32aa966833,64d2fd46c836a06233681665,64dc7f71daf0b543d8b5d497,,,,,,,sngl,resources/Empty.png,resources/DR.BMP,WildCard_NonEx,0.403703732,-0.061111111,1,0,0,0.5136,optionRight,55,3010,2,14,0,14,0,1,,,,,,,,,,,,,,,,,,,,,,,,,,,,,,,,,,,,,,,
,,,,,,,,2023-08-16_08h49.17.386,HF_wild_card,2022.2.4,Win32,60.45949214,602257a4c4c9de32aa966833,64d2fd46c836a06233681665,64dc7f71daf0b543d8b5d497,,,,,,,sngl,resources/Empty.png,resources/DP.BMP,Door3,0.275925954,-0.034259288,1,0,0,0.5299,optionRight,70,3080,2,15,0,15,0,1,,,,,,,,,,,,,,,,,,,,,,,,,,,,,,,,,,,,,,,
,,,,,,,,2023-08-16_08h49.17.386,HF_wild_card,2022.2.4,Win32,60.45949214,602257a4c4c9de32aa966833,64d2fd46c836a06233681665,64dc7f71daf0b543d8b5d497,,,,,,,decisionTrl,resources/DP.BMP,resources/DB.BMP,Door3,-0.364814801,0.022222222,1,0,0,0.5957,optionLeft,70,3150,2,16,0,16,0,1,,,,,,,,,,,,,,,,,,,,,,,,,,,,,,,,,,,,,,,
,,,,,,,,2023-08-16_08h49.17.386,HF_wild_card,2022.2.4,Win32,60.45949214,602257a4c4c9de32aa966833,64d2fd46c836a06233681665,64dc7f71daf0b543d8b5d497,,,,,,,decisionTrl,resources/DP.BMP,resources/DB.BMP,Door3,-0.355555556,0.040740712,1,0,0,0.5138,optionLeft,70,3220,2,17,0,17,0,1,,,,,,,,,,,,,,,,,,,,,,,,,,,,,,,,,,,,,,,
,,,,,,,,2023-08-16_08h49.17.386,HF_wild_card,2022.2.4,Win32,60.45949214,602257a4c4c9de32aa966833,64d2fd46c836a06233681665,64dc7f71daf0b543d8b5d497,,,,,,,ctch,resources/DP.BMP,resources/DG.BMP,Door3,-0.380555556,0.032407379,1,0,0,0.3964,optionLeft,70,3290,2,18,0,18,0,1,,,,,,,,,,,,,,,,,,,,,,,,,,,,,,,,,,,,,,,
,,,,,,,,2023-08-16_08h49.17.386,HF_wild_card,2022.2.4,Win32,60.45949214,602257a4c4c9de32aa966833,64d2fd46c836a06233681665,64dc7f71daf0b543d8b5d497,,,,,,,sngl,resources/DR.BMP,resources/Empty.png,WildCard_NonEx,-0.329629601,0.032407379,1,0,0,0.4308,optionLeft,45,3335,2,19,0,19,0,1,,,,,,,,,,,,,,,,,,,,,,,,,,,,,,,,,,,,,,,
,,,,,,,,2023-08-16_08h49.17.386,HF_wild_card,2022.2.4,Win32,60.45949214,602257a4c4c9de32aa966833,64d2fd46c836a06233681665,64dc7f71daf0b543d8b5d497,,,,,,,ctch,resources/DG.BMP,resources/DP.BMP,Door3,0.30648151,-0.028703732,1,0,0,0.7128,optionRight,70,3405,2,20,0,20,0,1,,,,,,,,,,,,,,,,,,,,,,,,,,,,,,,,,,,,,,,
,,,,,,,,2023-08-16_08h49.17.386,HF_wild_card,2022.2.4,Win32,60.45949214,602257a4c4c9de32aa966833,64d2fd46c836a06233681665,64dc7f71daf0b543d8b5d497,,,,,,,sngl,resources/Empty.png,resources/DB.BMP,Door4,0.252777778,-0.025,1,0,0,0.5469,optionRight,80,3485,2,21,0,21,0,1,,,,,,,,,,,,,,,,,,,,,,,,,,,,,,,,,,,,,,,
,,,,,,,,2023-08-16_08h49.17.386,HF_wild_card,2022.2.4,Win32,60.45949214,602257a4c4c9de32aa966833,64d2fd46c836a06233681665,64dc7f71daf0b543d8b5d497,,,,,,,decisionTrl,resources/DR.BMP,resources/DY.BMP,Door1,0.35,-0.035185199,1,0,0,0.6123,optionRight,30,3515,2,22,0,22,0,1,,,,,,,,,,,,,,,,,,,,,,,,,,,,,,,,,,,,,,,
,,,,,,,,2023-08-16_08h49.17.386,HF_wild_card,2022.2.4,Win32,60.45949214,602257a4c4c9de32aa966833,64d2fd46c836a06233681665,64dc7f71daf0b543d8b5d497,,,,,,,decisionTrl,resources/DB.BMP,resources/DR.BMP,Door4,-0.400925912,0.033333333,1,0,0,0.5457,optionLeft,80,3595,2,23,0,23,0,1,,,,,,,,,,,,,,,,,,,,,,,,,,,,,,,,,,,,,,,
,,,,,,,,2023-08-16_08h49.17.386,HF_wild_card,2022.2.4,Win32,60.45949214,602257a4c4c9de32aa966833,64d2fd46c836a06233681665,64dc7f71daf0b543d8b5d497,,,,,,,decisionTrl,resources/DP.BMP,resources/DB.BMP,Door4,0.412963019,-0.053703732,1,0,0,0.7622,optionRight,60,3655,2,24,0,24,0,1,,,,,,,,,,,,,,,,,,,,,,,,,,,,,,,,,,,,,,,
,,,,,,,,2023-08-16_08h49.17.386,HF_wild_card,2022.2.4,Win32,60.45949214,602257a4c4c9de32aa966833,64d2fd46c836a06233681665,64dc7f71daf0b543d8b5d497,,,,,,,decisionTrl,resources/DB.BMP,resources/DP.BMP,Door4,-0.383333333,0.021296268,1,0,0,0.6119,optionLeft,80,3735,2,25,0,25,0,1,,,,,,,,,,,,,,,,,,,,,,,,,,,,,,,,,,,,,,,
,,,,,,,,2023-08-16_08h49.17.386,HF_wild_card,2022.2.4,Win32,60.45949214,602257a4c4c9de32aa966833,64d2fd46c836a06233681665,64dc7f71daf0b543d8b5d497,,,,,,,decisionTrl,resources/DY.BMP,resources/DR.BMP,WildCard_NonEx,0.300925954,-0.033333333,1,0,0,0.8126,optionRight,55,3790,2,26,0,26,0,1,,,,,,,,,,,,,,,,,,,,,,,,,,,,,,,,,,,,,,,
,,,,,,,,2023-08-16_08h49.17.386,HF_wild_card,2022.2.4,Win32,60.45949214,602257a4c4c9de32aa966833,64d2fd46c836a06233681665,64dc7f71daf0b543d8b5d497,,,,,,,decisionTrl,resources/DG.BMP,resources/DY.BMP,Door2,-0.346296268,0.047222222,1,0,0,0.7967,optionLeft,40,3830,2,27,0,27,0,1,,,,,,,,,,,,,,,,,,,,,,,,,,,,,,,,,,,,,,,
,,,,,,,,2023-08-16_08h49.17.386,HF_wild_card,2022.2.4,Win32,60.45949214,602257a4c4c9de32aa966833,64d2fd46c836a06233681665,64dc7f71daf0b543d8b5d497,,,,,,,decisionTrl,resources/DR.BMP,resources/DP.BMP,Door3,0.288888889,-0.028703732,1,0,0,0.763,optionRight,70,3900,2,28,0,28,0,1,,,,,,,,,,,,,,,,,,,,,,,,,,,,,,,,,,,,,,,
,,,,,,,,2023-08-16_08h49.17.386,HF_wild_card,2022.2.4,Win32,60.45949214,602257a4c4c9de32aa966833,64d2fd46c836a06233681665,64dc7f71daf0b543d8b5d497,,,,,,,sngl,resources/DY.BMP,resources/Empty.png,Door1,-0.463888889,0.050925912,1,0,0,0.8125,optionLeft,30,3930,2,29,0,29,0,1,,,,,,,,,,,,,,,,,,,,,,,,,,,,,,,,,,,,,,,
,,,,,,,,2023-08-16_08h49.17.386,HF_wild_card,2022.2.4,Win32,60.45949214,602257a4c4c9de32aa966833,64d2fd46c836a06233681665,64dc7f71daf0b543d8b5d497,,,,,,,decisionTrl,resources/DY.BMP,resources/DG.BMP,Door2,0.512963019,-0.078703732,1,0,0,0.6448,optionRight,20,3950,2,30,0,30,0,1,,,,,,,,,,,,,,,,,,,,,,,,,,,,,,,,,,,,,,,
,,,,,,,,2023-08-16_08h49.17.386,HF_wild_card,2022.2.4,Win32,60.45949214,602257a4c4c9de32aa966833,64d2fd46c836a06233681665,64dc7f71daf0b543d8b5d497,,,,,,,sngl,resources/DR.BMP,resources/Empty.png,WildCard_NonEx,-0.589814801,-0.003703732,1,0,0,0.5291,optionLeft,55,4005,2,31,0,31,0,1,,,,,,,,,,,,,,,,,,,,,,,,,,,,,,,,,,,,,,,
,,,,,,,,2023-08-16_08h49.17.386,HF_wild_card,2022.2.4,Win32,60.45949214,602257a4c4c9de32aa966833,64d2fd46c836a06233681665,64dc7f71daf0b543d8b5d497,,,,,,,decisionTrl,resources/DY.BMP,resources/DG.BMP,Door2,0.353703732,-0.037962977,1,0,0,0.563,optionRight,20,4025,2,32,0,32,0,1,,,,,,,,,,,,,,,,,,,,,,,,,,,,,,,,,,,,,,,
,,,,,,,,2023-08-16_08h49.17.386,HF_wild_card,2022.2.4,Win32,60.45949214,602257a4c4c9de32aa966833,64d2fd46c836a06233681665,64dc7f71daf0b543d8b5d497,,,,,,,sngl,resources/DG.BMP,resources/Empty.png,Door2,-0.427777778,0.01851849,1,0,0,0.5132,optionLeft,20,4045,2,33,0,33,0,1,,,,,,,,,,,,,,,,,,,,,,,,,,,,,,,,,,,,,,,
,,,,,,,,2023-08-16_08h49.17.386,HF_wild_card,2022.2.4,Win32,60.45949214,602257a4c4c9de32aa966833,64d2fd46c836a06233681665,64dc7f71daf0b543d8b5d497,,,,,,,sngl,resources/Empty.png,resources/DG.BMP,Door2,0.564814928,-0.068518533,1,0,0,0.7303,optionRight,40,4085,2,34,0,34,0,1,,,,,,,,,,,,,,,,,,,,,,,,,,,,,,,,,,,,,,,
,,,,,,,,2023-08-16_08h49.17.386,HF_wild_card,2022.2.4,Win32,60.45949214,602257a4c4c9de32aa966833,64d2fd46c836a06233681665,64dc7f71daf0b543d8b5d497,,,,,,,decisionTrl,resources/DY.BMP,resources/DG.BMP,Door2,0.373148176,-0.030555556,1,0,0,0.5301,optionRight,40,4125,2,35,0,35,0,1,,,,,,,,,,,,,,,,,,,,,,,,,,,,,,,,,,,,,,,
,,,,,,,,2023-08-16_08h49.17.386,HF_wild_card,2022.2.4,Win32,60.45949214,602257a4c4c9de32aa966833,64d2fd46c836a06233681665,64dc7f71daf0b543d8b5d497,,,,,,,decisionTrl,resources/DB.BMP,resources/DP.BMP,Door3,0.363888889,-0.041666667,1,0,0,0.5136,optionRight,70,4195,2,36,0,36,0,1,,,,,,,,,,,,,,,,,,,,,,,,,,,,,,,,,,,,,,,
,,,,,,,,2023-08-16_08h49.17.386,HF_wild_card,2022.2.4,Win32,60.45949214,602257a4c4c9de32aa966833,64d2fd46c836a06233681665,64dc7f71daf0b543d8b5d497,,,,,,,sngl,resources/DP.BMP,resources/Empty.png,Door3,-0.413888889,0.044444444,1,0,0,0.4967,optionLeft,70,4265,2,37,0,37,0,1,,,,,,,,,,,,,,,,,,,,,,,,,,,,,,,,,,,,,,,
,,,,,,,,2023-08-16_08h49.17.386,HF_wild_card,2022.2.4,Win32,60.45949214,602257a4c4c9de32aa966833,64d2fd46c836a06233681665,64dc7f71daf0b543d8b5d497,,,,,,,sngl,resources/Empty.png,resources/DR.BMP,WildCard_NonEx,0.454629686,-0.060185199,1,0,0,0.5113,optionRight,45,4310,2,38,0,38,0,1,,,,,,,,,,,,,,,,,,,,,,,,,,,,,,,,,,,,,,,
,,,,,,,,2023-08-16_08h49.17.386,HF_wild_card,2022.2.4,Win32,60.45949214,602257a4c4c9de32aa966833,64d2fd46c836a06233681665,64dc7f71daf0b543d8b5d497,,,,,,,decisionTrl,resources/DR.BMP,resources/DG.BMP,WildCard_NonEx,-0.380555556,-0.009259288,1,0,0,0.6294,optionLeft,55,4365,2,39,0,39,0,1,,,,,,,,,,,,,,,,,,,,,,,,,,,,,,,,,,,,,,,
,,,,,,,,2023-08-16_08h49.17.386,HF_wild_card,2022.2.4,Win32,60.45949214,602257a4c4c9de32aa966833,64d2fd46c836a06233681665,64dc7f71daf0b543d8b5d497,,,,,,,ctch,resources/DB.BMP,resources/DY.BMP,Door4,-0.344444444,0.037037023,1,0,0,0.6966,optionLeft,60,4425,2,40,0,40,0,1,,,,,,,,,,,,,,,,,,,,,,,,,,,,,,,,,,,,,,,
,,,,,,,,2023-08-16_08h49.17.386,HF_wild_card,2022.2.4,Win32,60.45949214,602257a4c4c9de32aa966833,64d2fd46c836a06233681665,64dc7f71daf0b543d8b5d497,,,,,,,ctch,resources/DY.BMP,resources/DB.BMP,Door4,0.435185242,-0.004629644,1,0,0,0.5621,optionRight,60,4485,2,41,0,41,0,1,,,,,,,,,,,,,,,,,,,,,,,,,,,,,,,,,,,,,,,
,,,,,,,,2023-08-16_08h49.17.386,HF_wild_card,2022.2.4,Win32,60.45949214,602257a4c4c9de32aa966833,64d2fd46c836a06233681665,64dc7f71daf0b543d8b5d497,,,,,,,ctch,resources/DY.BMP,resources/DB.BMP,Door4,0.336111111,-0.020370399,1,0,0,0.6466,optionRight,60,4545,2,42,0,42,0,1,,,,,,,,,,,,,,,,,,,,,,,,,,,,,,,,,,,,,,,
,,,,,,,,2023-08-16_08h49.17.386,HF_wild_card,2022.2.4,Win32,60.45949214,602257a4c4c9de32aa966833,64d2fd46c836a06233681665,64dc7f71daf0b543d8b5d497,,,,,,,decisionTrl,resources/DG.BMP,resources/DY.BMP,Door2,-0.286111111,0,1,0,0,0.7963,optionLeft,20,4565,2,43,0,43,0,1,,,,,,,,,,,,,,,,,,,,,,,,,,,,,,,,,,,,,,,
,,,,,,,,2023-08-16_08h49.17.386,HF_wild_card,2022.2.4,Win32,60.45949214,602257a4c4c9de32aa966833,64d2fd46c836a06233681665,64dc7f71daf0b543d8b5d497,,,,,,,,,,,,,,,,,,,,,,,,,,1,0,1,0,1,,,,,,,,,,,,,,,,,,,,,,,,,,,,,,,,,,
,,,,,,,,2023-08-16_08h49.17.386,HF_wild_card,2022.2.4,Win32,60.45949214,602257a4c4c9de32aa966833,64d2fd46c836a06233681665,64dc7f71daf0b543d8b5d497,,,,,,,decisionTrl,resources/DB.BMP,resources/DR.BMP,Door4,-0.456481467,-0.048148176,1,0,0,0.7528,optionLeft,60,4625,3,0,0,0,0,1,,,,,,,,,,,,,,,,,,,,,,,,,,,,,,,,,,,,,,,
,,,,,,,,2023-08-16_08h49.17.386,HF_wild_card,2022.2.4,Win32,60.45949214,602257a4c4c9de32aa966833,64d2fd46c836a06233681665,64dc7f71daf0b543d8b5d497,,,,,,,decisionTrl,resources/DR.BMP,resources/DB.BMP,Door4,0.346296353,-0.013888889,1,0,0,0.6467,optionRight,60,4685,3,1,0,1,0,1,,,,,,,,,,,,,,,,,,,,,,,,,,,,,,,,,,,,,,,
,,,,,,,,2023-08-16_08h49.17.386,HF_wild_card,2022.2.4,Win32,60.45949214,602257a4c4c9de32aa966833,64d2fd46c836a06233681665,64dc7f71daf0b543d8b5d497,,,,,,,decisionTrl,resources/DG.BMP,resources/DR.BMP,WildCard_NonEx,0.341666667,-0.018518533,1,0,0,0.6136,optionRight,55,4740,3,2,0,2,0,1,,,,,,,,,,,,,,,,,,,,,,,,,,,,,,,,,,,,,,,
,,,,,,,,2023-08-16_08h49.17.386,HF_wild_card,2022.2.4,Win32,60.45949214,602257a4c4c9de32aa966833,64d2fd46c836a06233681665,64dc7f71daf0b543d8b5d497,,,,,,,decisionTrl,resources/DB.BMP,resources/DP.BMP,Door3,0.407407464,-0.012962977,1,0,0,0.546,optionRight,70,4810,3,3,0,3,0,1,,,,,,,,,,,,,,,,,,,,,,,,,,,,,,,,,,,,,,,
,,,,,,,,2023-08-16_08h49.17.386,HF_wild_card,2022.2.4,Win32,60.45949214,602257a4c4c9de32aa966833,64d2fd46c836a06233681665,64dc7f71daf0b543d8b5d497,,,,,,,decisionTrl,resources/DR.BMP,resources/DG.BMP,Door2,0.341666667,-0.017592621,1,0,0,0.4794,optionRight,40,4850,3,4,0,4,0,1,,,,,,,,,,,,,,,,,,,,,,,,,,,,,,,,,,,,,,,
,,,,,,,,2023-08-16_08h49.17.386,HF_wild_card,2022.2.4,Win32,60.45949214,602257a4c4c9de32aa966833,64d2fd46c836a06233681665,64dc7f71daf0b543d8b5d497,,,,,,,sngl,resources/DR.BMP,resources/Empty.png,WildCard_NonEx,-0.383333333,-0.010185199,1,0,0,0.4804,optionLeft,55,4905,3,5,0,5,0,1,,,,,,,,,,,,,,,,,,,,,,,,,,,,,,,,,,,,,,,
,,,,,,,,2023-08-16_08h49.17.386,HF_wild_card,2022.2.4,Win32,60.45949214,602257a4c4c9de32aa966833,64d2fd46c836a06233681665,64dc7f71daf0b543d8b5d497,,,,,,,ctch,resources/DB.BMP,resources/DY.BMP,Door4,-0.306481467,0.000925912,1,0,0,0.7127,optionLeft,80,4985,3,6,0,6,0,1,,,,,,,,,,,,,,,,,,,,,,,,,,,,,,,,,,,,,,,
,,,,,,,,2023-08-16_08h49.17.386,HF_wild_card,2022.2.4,Win32,60.45949214,602257a4c4c9de32aa966833,64d2fd46c836a06233681665,64dc7f71daf0b543d8b5d497,,,,,,,sngl,resources/Empty.png,resources/DY.BMP,Door1,0.197222222,-0.001851866,1,0,0,0.6808,optionRight,30,5015,3,7,0,7,0,1,,,,,,,,,,,,,,,,,,,,,,,,,,,,,,,,,,,,,,,
,,,,,,,,2023-08-16_08h49.17.386,HF_wild_card,2022.2.4,Win32,60.45949214,602257a4c4c9de32aa966833,64d2fd46c836a06233681665,64dc7f71daf0b543d8b5d497,,,,,,,sngl,resources/Empty.png,resources/DR.BMP,WildCard_NonEx,0.271296353,-0.030555556,1,0,0,0.6123,optionRight,55,5070,3,8,0,8,0,1,,,,,,,,,,,,,,,,,,,,,,,,,,,,,,,,,,,,,,,
,,,,,,,,2023-08-16_08h49.17.386,HF_wild_card,2022.2.4,Win32,60.45949214,602257a4c4c9de32aa966833,64d2fd46c836a06233681665,64dc7f71daf0b543d8b5d497,,,,,,,decisionTrl,resources/DG.BMP,resources/DY.BMP,Door2,-0.414814801,0.008333333,1,0,0,0.5971,optionLeft,20,5090,3,9,0,9,0,1,,,,,,,,,,,,,,,,,,,,,,,,,,,,,,,,,,,,,,,
,,,,,,,,2023-08-16_08h49.17.386,HF_wild_card,2022.2.4,Win32,60.45949214,602257a4c4c9de32aa966833,64d2fd46c836a06233681665,64dc7f71daf0b543d8b5d497,,,,,,,sngl,resources/DP.BMP,resources/Empty.png,Door3,-0.29351849,0.007407379,1,0,0,0.5314,optionLeft,70,5160,3,10,0,10,0,1,,,,,,,,,,,,,,,,,,,,,,,,,,,,,,,,,,,,,,,
,,,,,,,,2023-08-16_08h49.17.386,HF_wild_card,2022.2.4,Win32,60.45949214,602257a4c4c9de32aa966833,64d2fd46c836a06233681665,64dc7f71daf0b543d8b5d497,,,,,,,decisionTrl,resources/DG.BMP,resources/DY.BMP,Door1,0.526851908,-0.080555556,1,0,0,0.5298,optionRight,30,5190,3,11,0,11,0,1,,,,,,,,,,,,,,,,,,,,,,,,,,,,,,,,,,,,,,,
,,,,,,,,2023-08-16_08h49.17.386,HF_wild_card,2022.2.4,Win32,60.45949214,602257a4c4c9de32aa966833,64d2fd46c836a06233681665,64dc7f71daf0b543d8b5d497,,,,,,,ctch,resources/DY.BMP,resources/DB.BMP,Door1,-0.457407379,-0.024074088,1,0,0,0.5292,optionLeft,30,5220,3,12,0,12,0,1,,,,,,,,,,,,,,,,,,,,,,,,,,,,,,,,,,,,,,,
,,,,,,,,2023-08-16_08h49.17.386,HF_wild_card,2022.2.4,Win32,60.45949214,602257a4c4c9de32aa966833,64d2fd46c836a06233681665,64dc7f71daf0b543d8b5d497,,,,,,,ctch,resources/DP.BMP,resources/DG.BMP,Door3,-0.358333333,0.013888889,1,0,0,0.6119,optionLeft,70,5290,3,13,0,13,0,1,,,,,,,,,,,,,,,,,,,,,,,,,,,,,,,,,,,,,,,
,,,,,,,,2023-08-16_08h49.17.386,HF_wild_card,2022.2.4,Win32,60.45949214,602257a4c4c9de32aa966833,64d2fd46c836a06233681665,64dc7f71daf0b543d8b5d497,,,,,,,decisionTrl,resources/DP.BMP,resources/DB.BMP,Door3,-0.29351849,0.034259245,1,0,0,0.9631,optionLeft,70,5360,3,14,0,14,0,1,,,,,,,,,,,,,,,,,,,,,,,,,,,,,,,,,,,,,,,
,,,,,,,,2023-08-16_08h49.17.386,HF_wild_card,2022.2.4,Win32,60.45949214,602257a4c4c9de32aa966833,64d2fd46c836a06233681665,64dc7f71daf0b543d8b5d497,,,,,,,decisionTrl,resources/DB.BMP,resources/DP.BMP,Door4,-0.337962935,0.011111111,1,0,0,0.7131,optionLeft,80,5440,3,15,0,15,0,1,,,,,,,,,,,,,,,,,,,,,,,,,,,,,,,,,,,,,,,
,,,,,,,,2023-08-16_08h49.17.386,HF_wild_card,2022.2.4,Win32,60.45949214,602257a4c4c9de32aa966833,64d2fd46c836a06233681665,64dc7f71daf0b543d8b5d497,,,,,,,decisionTrl,resources/DP.BMP,resources/DB.BMP,Door3,-0.472222222,0.044444444,1,0,0,0.8142,optionLeft,70,5510,3,16,0,16,0,1,,,,,,,,,,,,,,,,,,,,,,,,,,,,,,,,,,,,,,,
,,,,,,,,2023-08-16_08h49.17.386,HF_wild_card,2022.2.4,Win32,60.45949214,602257a4c4c9de32aa966833,64d2fd46c836a06233681665,64dc7f71daf0b543d8b5d497,,,,,,,sngl,resources/Empty.png,resources/DB.BMP,Door4,0.312037065,-0.069444444,1,0,0,0.6133,optionRight,60,5570,3,17,0,17,0,1,,,,,,,,,,,,,,,,,,,,,,,,,,,,,,,,,,,,,,,
,,,,,,,,2023-08-16_08h49.17.386,HF_wild_card,2022.2.4,Win32,60.45949214,602257a4c4c9de32aa966833,64d2fd46c836a06233681665,64dc7f71daf0b543d8b5d497,,,,,,,decisionTrl,resources/DY.BMP,resources/DG.BMP,Door1,-0.414814801,0.037962935,1,0,0,0.5627,optionLeft,30,5600,3,18,0,18,0,1,,,,,,,,,,,,,,,,,,,,,,,,,,,,,,,,,,,,,,,
,,,,,,,,2023-08-16_08h49.17.386,HF_wild_card,2022.2.4,Win32,60.45949214,602257a4c4c9de32aa966833,64d2fd46c836a06233681665,64dc7f71daf0b543d8b5d497,,,,,,,ctch,resources/DY.BMP,resources/DB.BMP,Door1,-0.431481467,0.025,1,0,0,0.4471,optionLeft,30,5630,3,19,0,19,0,1,,,,,,,,,,,,,,,,,,,,,,,,,,,,,,,,,,,,,,,
,,,,,,,,2023-08-16_08h49.17.386,HF_wild_card,2022.2.4,Win32,60.45949214,602257a4c4c9de32aa966833,64d2fd46c836a06233681665,64dc7f71daf0b543d8b5d497,,,,,,,decisionTrl,resources/DR.BMP,resources/DY.BMP,Door1,0.492592621,-0.076851866,1,0,0,0.7467,optionRight,30,5660,3,20,0,20,0,1,,,,,,,,,,,,,,,,,,,,,,,,,,,,,,,,,,,,,,,
,,,,,,,,2023-08-16_08h49.17.386,HF_wild_card,2022.2.4,Win32,60.45949214,602257a4c4c9de32aa966833,64d2fd46c836a06233681665,64dc7f71daf0b543d8b5d497,,,,,,,ctch,resources/DB.BMP,resources/DY.BMP,Door4,-0.488888889,0.057407379,1,0,0,0.7975,optionLeft,60,5720,3,21,0,21,0,1,,,,,,,,,,,,,,,,,,,,,,,,,,,,,,,,,,,,,,,
,,,,,,,,2023-08-16_08h49.17.386,HF_wild_card,2022.2.4,Win32,60.45949214,602257a4c4c9de32aa966833,64d2fd46c836a06233681665,64dc7f71daf0b543d8b5d497,,,,,,,decisionTrl,resources/DP.BMP,resources/DR.BMP,Door3,-0.335185157,0.024074046,1,0,0,0.8641,optionLeft,70,5790,3,22,0,22,0,1,,,,,,,,,,,,,,,,,,,,,,,,,,,,,,,,,,,,,,,
,,,,,,,,2023-08-16_08h49.17.386,HF_wild_card,2022.2.4,Win32,60.45949214,602257a4c4c9de32aa966833,64d2fd46c836a06233681665,64dc7f71daf0b543d8b5d497,,,,,,,sngl,resources/DG.BMP,resources/Empty.png,Door2,-0.412962935,0.026851824,1,0,0,0.5301,optionLeft,40,5830,3,23,0,23,0,1,,,,,,,,,,,,,,,,,,,,,,,,,,,,,,,,,,,,,,,
,,,,,,,,2023-08-16_08h49.17.386,HF_wild_card,2022.2.4,Win32,60.45949214,602257a4c4c9de32aa966833,64d2fd46c836a06233681665,64dc7f71daf0b543d8b5d497,,,,,,,decisionTrl,resources/DP.BMP,resources/DB.BMP,Door3,-0.365740712,0.011111111,1,0,0,0.5301,optionLeft,70,5900,3,24,0,24,0,1,,,,,,,,,,,,,,,,,,,,,,,,,,,,,,,,,,,,,,,
,,,,,,,,2023-08-16_08h49.17.386,HF_wild_card,2022.2.4,Win32,60.45949214,602257a4c4c9de32aa966833,64d2fd46c836a06233681665,64dc7f71daf0b543d8b5d497,,,,,,,decisionTrl,resources/DG.BMP,resources/DY.BMP,Door1,0.414814843,-0.070370399,1,0,0,0.9134,optionRight,30,5930,3,25,0,25,0,1,,,,,,,,,,,,,,,,,,,,,,,,,,,,,,,,,,,,,,,
,,,,,,,,2023-08-16_08h49.17.386,HF_wild_card,2022.2.4,Win32,60.45949214,602257a4c4c9de32aa966833,64d2fd46c836a06233681665,64dc7f71daf0b543d8b5d497,,,,,,,ctch,resources/DG.BMP,resources/DP.BMP,Door3,0.391666667,-0.062962977,1,0,0,0.6458,optionRight,70,6000,3,26,0,26,0,1,,,,,,,,,,,,,,,,,,,,,,,,,,,,,,,,,,,,,,,
,,,,,,,,2023-08-16_08h49.17.386,HF_wild_card,2022.2.4,Win32,60.45949214,602257a4c4c9de32aa966833,64d2fd46c836a06233681665,64dc7f71daf0b543d8b5d497,,,,,,,decisionTrl,resources/DB.BMP,resources/DP.BMP,Door3,0.437963019,-0.101851866,1,0,0,0.947,optionRight,70,6070,3,27,0,27,0,1,,,,,,,,,,,,,,,,,,,,,,,,,,,,,,,,,,,,,,,
,,,,,,,,2023-08-16_08h49.17.386,HF_wild_card,2022.2.4,Win32,60.45949214,602257a4c4c9de32aa966833,64d2fd46c836a06233681665,64dc7f71daf0b543d8b5d497,,,,,,,decisionTrl,resources/DR.BMP,resources/DP.BMP,Door3,0.293518575,-0.055555556,1,0,0,0.5298,optionRight,70,6140,3,28,0,28,0,1,,,,,,,,,,,,,,,,,,,,,,,,,,,,,,,,,,,,,,,
,,,,,,,,2023-08-16_08h49.17.386,HF_wild_card,2022.2.4,Win32,60.45949214,602257a4c4c9de32aa966833,64d2fd46c836a06233681665,64dc7f71daf0b543d8b5d497,,,,,,,sngl,resources/Empty.png,resources/DR.BMP,WildCard_NonEx,0.377777778,-0.04629631,1,0,0,0.6466,optionRight,45,6185,3,29,0,29,0,1,,,,,,,,,,,,,,,,,,,,,,,,,,,,,,,,,,,,,,,
,,,,,,,,2023-08-16_08h49.17.386,HF_wild_card,2022.2.4,Win32,60.45949214,602257a4c4c9de32aa966833,64d2fd46c836a06233681665,64dc7f71daf0b543d8b5d497,,,,,,,sngl,resources/DB.BMP,resources/Empty.png,Door4,-0.416666667,0.040740712,1,0,0,0.4628,optionLeft,80,6265,3,30,0,30,0,1,,,,,,,,,,,,,,,,,,,,,,,,,,,,,,,,,,,,,,,
,,,,,,,,2023-08-16_08h49.17.386,HF_wild_card,2022.2.4,Win32,60.45949214,602257a4c4c9de32aa966833,64d2fd46c836a06233681665,64dc7f71daf0b543d8b5d497,,,,,,,sngl,resources/DR.BMP,resources/Empty.png,WildCard_NonEx,-0.392592578,0.031481467,1,0,0,0.5962,optionLeft,45,6310,3,31,0,31,0,1,,,,,,,,,,,,,,,,,,,,,,,,,,,,,,,,,,,,,,,
,,,,,,,,2023-08-16_08h49.17.386,HF_wild_card,2022.2.4,Win32,60.45949214,602257a4c4c9de32aa966833,64d2fd46c836a06233681665,64dc7f71daf0b543d8b5d497,,,,,,,decisionTrl,resources/DP.BMP,resources/DB.BMP,Door4,0.345370399,-0.065740755,1,0,0,1.2955,optionRight,60,6370,3,32,0,32,0,1,,,,,,,,,,,,,,,,,,,,,,,,,,,,,,,,,,,,,,,
,,,,,,,,2023-08-16_08h49.17.386,HF_wild_card,2022.2.4,Win32,60.45949214,602257a4c4c9de32aa966833,64d2fd46c836a06233681665,64dc7f71daf0b543d8b5d497,,,,,,,decisionTrl,resources/DY.BMP,resources/DG.BMP,Door1,-0.342592578,0.006481467,1,0,0,0.6465,optionLeft,30,6400,3,33,0,33,0,1,,,,,,,,,,,,,,,,,,,,,,,,,,,,,,,,,,,,,,,
,,,,,,,,2023-08-16_08h49.17.386,HF_wild_card,2022.2.4,Win32,60.45949214,602257a4c4c9de32aa966833,64d2fd46c836a06233681665,64dc7f71daf0b543d8b5d497,,,,,,,sngl,resources/Empty.png,resources/DG.BMP,Door2,0.278703732,-0.033333333,1,0,0,0.5961,optionRight,20,6420,3,34,0,34,0,1,,,,,,,,,,,,,,,,,,,,,,,,,,,,,,,,,,,,,,,
,,,,,,,,2023-08-16_08h49.17.386,HF_wild_card,2022.2.4,Win32,60.45949214,602257a4c4c9de32aa966833,64d2fd46c836a06233681665,64dc7f71daf0b543d8b5d497,,,,,,,ctch,resources/DP.BMP,resources/DG.BMP,Door3,-0.356481467,0.004629601,1,0,0,0.5304,optionLeft,70,6490,3,35,0,35,0,1,,,,,,,,,,,,,,,,,,,,,,,,,,,,,,,,,,,,,,,
,,,,,,,,2023-08-16_08h49.17.386,HF_wild_card,2022.2.4,Win32,60.45949214,602257a4c4c9de32aa966833,64d2fd46c836a06233681665,64dc7f71daf0b543d8b5d497,,,,,,,decisionTrl,resources/DB.BMP,resources/DP.BMP,Door4,-0.434259245,0.031481467,1,0,0,0.9316,optionLeft,80,6570,3,36,0,36,0,1,,,,,,,,,,,,,,,,,,,,,,,,,,,,,,,,,,,,,,,
,,,,,,,,2023-08-16_08h49.17.386,HF_wild_card,2022.2.4,Win32,60.45949214,602257a4c4c9de32aa966833,64d2fd46c836a06233681665,64dc7f71daf0b543d8b5d497,,,,,,,decisionTrl,resources/DY.BMP,resources/DG.BMP,Door2,0.318518575,-0.085185199,1,0,0,0.7295,optionRight,20,6590,3,37,0,37,0,1,,,,,,,,,,,,,,,,,,,,,,,,,,,,,,,,,,,,,,,
,,,,,,,,2023-08-16_08h49.17.386,HF_wild_card,2022.2.4,Win32,60.45949214,602257a4c4c9de32aa966833,64d2fd46c836a06233681665,64dc7f71daf0b543d8b5d497,,,,,,,decisionTrl,resources/DY.BMP,resources/DR.BMP,Door1,-0.407407379,0.075,1,0,0,0.5128,optionLeft,30,6620,3,38,0,38,0,1,,,,,,,,,,,,,,,,,,,,,,,,,,,,,,,,,,,,,,,
,,,,,,,,2023-08-16_08h49.17.386,HF_wild_card,2022.2.4,Win32,60.45949214,602257a4c4c9de32aa966833,64d2fd46c836a06233681665,64dc7f71daf0b543d8b5d497,,,,,,,sngl,resources/Empty.png,resources/DP.BMP,Door3,0.38148151,-0.050925954,1,0,0,0.546,optionRight,70,6690,3,39,0,39,0,1,,,,,,,,,,,,,,,,,,,,,,,,,,,,,,,,,,,,,,,
,,,,,,,,2023-08-16_08h49.17.386,HF_wild_card,2022.2.4,Win32,60.45949214,602257a4c4c9de32aa966833,64d2fd46c836a06233681665,64dc7f71daf0b543d8b5d497,,,,,,,sngl,resources/DY.BMP,resources/Empty.png,Door1,-0.500925912,0.045370356,1,0,0,0.4952,optionLeft,30,6720,3,40,0,40,0,1,,,,,,,,,,,,,,,,,,,,,,,,,,,,,,,,,,,,,,,
,,,,,,,,2023-08-16_08h49.17.386,HF_wild_card,2022.2.4,Win32,60.45949214,602257a4c4c9de32aa966833,64d2fd46c836a06233681665,64dc7f71daf0b543d8b5d497,,,,,,,decisionTrl,resources/DG.BMP,resources/DY.BMP,Door1,0.376851908,-0.058333333,1,0,0,0.5633,optionRight,30,6750,3,41,0,41,0,1,,,,,,,,,,,,,,,,,,,,,,,,,,,,,,,,,,,,,,,
,,,,,,,,2023-08-16_08h49.17.386,HF_wild_card,2022.2.4,Win32,60.45949214,602257a4c4c9de32aa966833,64d2fd46c836a06233681665,64dc7f71daf0b543d8b5d497,,,,,,,ctch,resources/DG.BMP,resources/DP.BMP,Door3,0.303703732,-0.038888889,1,0,0,0.6459,optionRight,70,6820,3,42,0,42,0,1,,,,,,,,,,,,,,,,,,,,,,,,,,,,,,,,,,,,,,,
,,,,,,,,2023-08-16_08h49.17.386,HF_wild_card,2022.2.4,Win32,60.45949214,602257a4c4c9de32aa966833,64d2fd46c836a06233681665,64dc7f71daf0b543d8b5d497,,,,,,,decisionTrl,resources/DY.BMP,resources/DG.BMP,Door1,-0.367592578,0.024074046,1,0,0,1.0964,optionLeft,30,6850,3,43,0,43,0,1,,,,,,,,,,,,,,,,,,,,,,,,,,,,,,,,,,,,,,,
,,,,,,,,2023-08-16_08h49.17.386,HF_wild_card,2022.2.4,Win32,60.45949214,602257a4c4c9de32aa966833,64d2fd46c836a06233681665,64dc7f71daf0b543d8b5d497,,,,,,,,,,,,,,,,,,,,,,,,,,2,0,2,0,1,,,,,,,,,,,,,,,,,,,,,,,,,,,,,,,,,,
,,,,,,,,2023-08-16_08h49.17.386,HF_wild_card,2022.2.4,Win32,60.45949214,602257a4c4c9de32aa966833,64d2fd46c836a06233681665,64dc7f71daf0b543d8b5d497,,,,,,,decisionTrl,resources/DP.BMP,resources/DB.BMP,Door4,0.280555556,-0.052777778,1,0,0,1.3029,optionRight,60,6910,4,0,0,0,0,1,,,,,,,,,,,,,,,,,,,,,,,,,,,,,,,,,,,,,,,
,,,,,,,,2023-08-16_08h49.17.386,HF_wild_card,2022.2.4,Win32,60.45949214,602257a4c4c9de32aa966833,64d2fd46c836a06233681665,64dc7f71daf0b543d8b5d497,,,,,,,decisionTrl,resources/DY.BMP,resources/DG.BMP,Door1,-0.273148134,-0.05,1,0,0,0.7795,optionLeft,30,6940,4,1,0,1,0,1,,,,,,,,,,,,,,,,,,,,,,,,,,,,,,,,,,,,,,,
,,,,,,,,2023-08-16_08h49.17.386,HF_wild_card,2022.2.4,Win32,60.45949214,602257a4c4c9de32aa966833,64d2fd46c836a06233681665,64dc7f71daf0b543d8b5d497,,,,,,,sngl,resources/DG.BMP,resources/Empty.png,Door2,-0.247222222,-0.009259288,1,0,0,0.5795,optionLeft,20,6960,4,2,0,2,0,1,,,,,,,,,,,,,,,,,,,,,,,,,,,,,,,,,,,,,,,
,,,,,,,,2023-08-16_08h49.17.386,HF_wild_card,2022.2.4,Win32,60.45949214,602257a4c4c9de32aa966833,64d2fd46c836a06233681665,64dc7f71daf0b543d8b5d497,,,,,,,ctch,resources/DY.BMP,resources/DB.BMP,Door1,-0.279629601,0.008333333,1,0,0,0.5811,optionLeft,30,6990,4,3,0,3,0,1,,,,,,,,,,,,,,,,,,,,,,,,,,,,,,,,,,,,,,,
,,,,,,,,2023-08-16_08h49.17.386,HF_wild_card,2022.2.4,Win32,60.45949214,602257a4c4c9de32aa966833,64d2fd46c836a06233681665,64dc7f71daf0b543d8b5d497,,,,,,,decisionTrl,resources/DY.BMP,resources/DG.BMP,Door2,0.337037065,-0.033333333,1,0,0,0.7783,optionRight,40,7030,4,4,0,4,0,1,,,,,,,,,,,,,,,,,,,,,,,,,,,,,,,,,,,,,,,
,,,,,,,,2023-08-16_08h49.17.386,HF_wild_card,2022.2.4,Win32,60.45949214,602257a4c4c9de32aa966833,64d2fd46c836a06233681665,64dc7f71daf0b543d8b5d497,,,,,,,decisionTrl,resources/DB.BMP,resources/DP.BMP,Door4,-0.385185157,-0.007407422,1,0,0,0.7441,optionLeft,80,7110,4,5,0,5,0,1,,,,,,,,,,,,,,,,,,,,,,,,,,,,,,,,,,,,,,,
,,,,,,,,2023-08-16_08h49.17.386,HF_wild_card,2022.2.4,Win32,60.45949214,602257a4c4c9de32aa966833,64d2fd46c836a06233681665,64dc7f71daf0b543d8b5d497,,,,,,,ctch,resources/DB.BMP,resources/DY.BMP,Door4,-0.307407379,0.002777778,1,0,0,0.5636,optionLeft,60,7170,4,6,0,6,0,1,,,,,,,,,,,,,,,,,,,,,,,,,,,,,,,,,,,,,,,
,,,,,,,,2023-08-16_08h49.17.386,HF_wild_card,2022.2.4,Win32,60.45949214,602257a4c4c9de32aa966833,64d2fd46c836a06233681665,64dc7f71daf0b543d8b5d497,,,,,,,sngl,resources/Empty.png,resources/DY.BMP,Door1,0.443518575,-0.04629631,1,0,0,0.6147,optionRight,30,7200,4,7,0,7,0,1,,,,,,,,,,,,,,,,,,,,,,,,,,,,,,,,,,,,,,,
,,,,,,,,2023-08-16_08h49.17.386,HF_wild_card,2022.2.4,Win32,60.45949214,602257a4c4c9de32aa966833,64d2fd46c836a06233681665,64dc7f71daf0b543d8b5d497,,,,,,,decisionTrl,resources/DP.BMP,resources/DB.BMP,Door4,0.276851908,-0.036111111,1,0,0,0.7136,optionRight,60,7260,4,8,0,8,0,1,,,,,,,,,,,,,,,,,,,,,,,,,,,,,,,,,,,,,,,
,,,,,,,,2023-08-16_08h49.17.386,HF_wild_card,2022.2.4,Win32,60.45949214,602257a4c4c9de32aa966833,64d2fd46c836a06233681665,64dc7f71daf0b543d8b5d497,,,,,,,decisionTrl,resources/DB.BMP,resources/DP.BMP,Door3,0.368518575,-0.068518533,1,0,0,0.6801,optionRight,70,7330,4,9,0,9,0,1,,,,,,,,,,,,,,,,,,,,,,,,,,,,,,,,,,,,,,,
,,,,,,,,2023-08-16_08h49.17.386,HF_wild_card,2022.2.4,Win32,60.45949214,602257a4c4c9de32aa966833,64d2fd46c836a06233681665,64dc7f71daf0b543d8b5d497,,,,,,,decisionTrl,resources/DY.BMP,resources/DBN.BMP,Door1,-0.321296268,-0.002777778,1,0,0,0.6287,optionLeft,30,7360,4,10,0,10,0,1,,,,,,,,,,,,,,,,,,,,,,,,,,,,,,,,,,,,,,,
,,,,,,,,2023-08-16_08h49.17.386,HF_wild_card,2022.2.4,Win32,60.45949214,602257a4c4c9de32aa966833,64d2fd46c836a06233681665,64dc7f71daf0b543d8b5d497,,,,,,,decisionTrl,resources/DG.BMP,resources/DY.BMP,Door1,0.376851908,-0.070370399,1,0,0,0.813,optionRight,30,7390,4,11,0,11,0,1,,,,,,,,,,,,,,,,,,,,,,,,,,,,,,,,,,,,,,,
,,,,,,,,2023-08-16_08h49.17.386,HF_wild_card,2022.2.4,Win32,60.45949214,602257a4c4c9de32aa966833,64d2fd46c836a06233681665,64dc7f71daf0b543d8b5d497,,,,,,,sngl,resources/DBN.BMP,resources/Empty.png,WildCard_Ex,-0.362962935,0.005555556,1,0,0,1.4293,optionLeft,5,7395,4,12,0,12,0,1,,,,,,,,,,,,,,,,,,,,,,,,,,,,,,,,,,,,,,,
,,,,,,,,2023-08-16_08h49.17.386,HF_wild_card,2022.2.4,Win32,60.45949214,602257a4c4c9de32aa966833,64d2fd46c836a06233681665,64dc7f71daf0b543d8b5d497,,,,,,,sngl,resources/Empty.png,resources/DP.BMP,Door3,0.346296353,-0.073148176,1,0,0,0.5461,optionRight,70,7465,4,13,0,13,0,1,,,,,,,,,,,,,,,,,,,,,,,,,,,,,,,,,,,,,,,
,,,,,,,,2023-08-16_08h49.17.386,HF_wild_card,2022.2.4,Win32,60.45949214,602257a4c4c9de32aa966833,64d2fd46c836a06233681665,64dc7f71daf0b543d8b5d497,,,,,,,decisionTrl,resources/DBN.BMP,resources/DB.BMP,Door4,0.334259288,-0.059259288,1,0,0,0.8796,optionRight,80,7545,4,14,0,14,0,1,,,,,,,,,,,,,,,,,,,,,,,,,,,,,,,,,,,,,,,
,,,,,,,,2023-08-16_08h49.17.386,HF_wild_card,2022.2.4,Win32,60.45949214,602257a4c4c9de32aa966833,64d2fd46c836a06233681665,64dc7f71daf0b543d8b5d497,,,,,,,ctch,resources/DY.BMP,resources/DB.BMP,Door4,0.309259288,-0.065740755,1,0,0,0.513,optionRight,80,7625,4,15,0,15,0,1,,,,,,,,,,,,,,,,,,,,,,,,,,,,,,,,,,,,,,,
,,,,,,,,2023-08-16_08h49.17.386,HF_wild_card,2022.2.4,Win32,60.45949214,602257a4c4c9de32aa966833,64d2fd46c836a06233681665,64dc7f71daf0b543d8b5d497,,,,,,,ctch,resources/DB.BMP,resources/DY.BMP,Door4,-0.334259245,0.012037023,1,0,0,0.5464,optionLeft,80,7705,4,16,0,16,0,1,,,,,,,,,,,,,,,,,,,,,,,,,,,,,,,,,,,,,,,
,,,,,,,,2023-08-16_08h49.17.386,HF_wild_card,2022.2.4,Win32,60.45949214,602257a4c4c9de32aa966833,64d2fd46c836a06233681665,64dc7f71daf0b543d8b5d497,,,,,,,sngl,resources/DY.BMP,resources/Empty.png,Door1,-0.329629601,-0.087962977,1,0,0,0.5791,optionLeft,30,7735,4,17,0,17,0,1,,,,,,,,,,,,,,,,,,,,,,,,,,,,,,,,,,,,,,,
,,,,,,,,2023-08-16_08h49.17.386,HF_wild_card,2022.2.4,Win32,60.45949214,602257a4c4c9de32aa966833,64d2fd46c836a06233681665,64dc7f71daf0b543d8b5d497,,,,,,,sngl,resources/Empty.png,resources/DG.BMP,Door2,0.464814843,-0.104629644,1,0,0,0.6461,optionRight,40,7775,4,18,0,18,0,1,,,,,,,,,,,,,,,,,,,,,,,,,,,,,,,,,,,,,,,
,,,,,,,,2023-08-16_08h49.17.386,HF_wild_card,2022.2.4,Win32,60.45949214,602257a4c4c9de32aa966833,64d2fd46c836a06233681665,64dc7f71daf0b543d8b5d497,,,,,,,decisionTrl,resources/DG.BMP,resources/DY.BMP,Door2,-0.437962935,-0.034259288,1,0,0,0.7544,optionLeft,20,7795,4,19,0,19,0,1,,,,,,,,,,,,,,,,,,,,,,,,,,,,,,,,,,,,,,,
,,,,,,,,2023-08-16_08h49.17.386,HF_wild_card,2022.2.4,Win32,60.45949214,602257a4c4c9de32aa966833,64d2fd46c836a06233681665,64dc7f71daf0b543d8b5d497,,,,,,,decisionTrl,resources/DBN.BMP,resources/DG.BMP,Door2,0.238888889,-0.013888889,1,0,0,0.9288,optionRight,20,7815,4,20,0,20,0,1,,,,,,,,,,,,,,,,,,,,,,,,,,,,,,,,,,,,,,,
,,,,,,,,2023-08-16_08h49.17.386,HF_wild_card,2022.2.4,Win32,60.45949214,602257a4c4c9de32aa966833,64d2fd46c836a06233681665,64dc7f71daf0b543d8b5d497,,,,,,,sngl,resources/DP.BMP,resources/Empty.png,Door3,-0.510185157,-0.037037065,1,0,0,0.4962,optionLeft,70,7885,4,21,0,21,0,1,,,,,,,,,,,,,,,,,,,,,,,,,,,,,,,,,,,,,,,
,,,,,,,,2023-08-16_08h49.17.386,HF_wild_card,2022.2.4,Win32,60.45949214,602257a4c4c9de32aa966833,64d2fd46c836a06233681665,64dc7f71daf0b543d8b5d497,,,,,,,ctch,resources/DP.BMP,resources/DG.BMP,Door3,-0.298148134,-0.017592621,1,0,0,0.6464,optionLeft,70,7955,4,22,0,22,0,1,,,,,,,,,,,,,,,,,,,,,,,,,,,,,,,,,,,,,,,
,,,,,,,,2023-08-16_08h49.17.386,HF_wild_card,2022.2.4,Win32,60.45949214,602257a4c4c9de32aa966833,64d2fd46c836a06233681665,64dc7f71daf0b543d8b5d497,,,,,,,decisionTrl,resources/DB.BMP,resources/DP.BMP,Door4,-0.357407379,0.00370369,1,0,0,0.6042,optionLeft,60,8015,4,23,0,23,0,1,,,,,,,,,,,,,,,,,,,,,,,,,,,,,,,,,,,,,,,
,,,,,,,,2023-08-16_08h49.17.386,HF_wild_card,2022.2.4,Win32,60.45949214,602257a4c4c9de32aa966833,64d2fd46c836a06233681665,64dc7f71daf0b543d8b5d497,,,,,,,decisionTrl,resources/DY.BMP,resources/DG.BMP,Door2,0.387037065,-0.050925954,1,0,0,0.63,optionRight,40,8055,4,24,0,24,0,1,,,,,,,,,,,,,,,,,,,,,,,,,,,,,,,,,,,,,,,
,,,,,,,,2023-08-16_08h49.17.386,HF_wild_card,2022.2.4,Win32,60.45949214,602257a4c4c9de32aa966833,64d2fd46c836a06233681665,64dc7f71daf0b543d8b5d497,,,,,,,decisionTrl,resources/DP.BMP,resources/DB.BMP,Door4,0.365740797,-0.023148176,1,0,0,1.1957,optionRight,80,8135,4,25,0,25,0,1,,,,,,,,,,,,,,,,,,,,,,,,,,,,,,,,,,,,,,,
,,,,,,,,2023-08-16_08h49.17.386,HF_wild_card,2022.2.4,Win32,60.45949214,602257a4c4c9de32aa966833,64d2fd46c836a06233681665,64dc7f71daf0b543d8b5d497,,,,,,,decisionTrl,resources/DY.BMP,resources/DG.BMP,Door2,0.318518575,-0.024074088,1,0,0,0.9131,optionRight,20,8155,4,26,0,26,0,1,,,,,,,,,,,,,,,,,,,,,,,,,,,,,,,,,,,,,,,
,,,,,,,,2023-08-16_08h49.17.386,HF_wild_card,2022.2.4,Win32,60.45949214,602257a4c4c9de32aa966833,64d2fd46c836a06233681665,64dc7f71daf0b543d8b5d497,,,,,,,ctch,resources/DG.BMP,resources/DP.BMP,Door3,0.321296353,-0.075925954,1,0,0,0.4615,optionRight,70,8225,4,27,0,27,0,1,,,,,,,,,,,,,,,,,,,,,,,,,,,,,,,,,,,,,,,
,,,,,,,,2023-08-16_08h49.17.386,HF_wild_card,2022.2.4,Win32,60.45949214,602257a4c4c9de32aa966833,64d2fd46c836a06233681665,64dc7f71daf0b543d8b5d497,,,,,,,decisionTrl,resources/DBN.BMP,resources/DY.BMP,Door1,0.312963019,-0.026851866,1,0,0,0.7466,optionRight,30,8255,4,28,0,28,0,1,,,,,,,,,,,,,,,,,,,,,,,,,,,,,,,,,,,,,,,
,,,,,,,,2023-08-16_08h49.17.386,HF_wild_card,2022.2.4,Win32,60.45949214,602257a4c4c9de32aa966833,64d2fd46c836a06233681665,64dc7f71daf0b543d8b5d497,,,,,,,decisionTrl,resources/DB.BMP,resources/DBN.BMP,Door4,-0.501851824,0.041666667,1,0,0,0.7462,optionLeft,80,8335,4,29,0,29,0,1,,,,,,,,,,,,,,,,,,,,,,,,,,,,,,,,,,,,,,,
,,,,,,,,2023-08-16_08h49.17.386,HF_wild_card,2022.2.4,Win32,60.45949214,602257a4c4c9de32aa966833,64d2fd46c836a06233681665,64dc7f71daf0b543d8b5d497,,,,,,,sngl,resources/DB.BMP,resources/Empty.png,Door4,-0.39351849,0.006481467,1,0,0,0.5136,optionLeft,60,8395,4,30,0,30,0,1,,,,,,,,,,,,,,,,,,,,,,,,,,,,,,,,,,,,,,,
,,,,,,,,2023-08-16_08h49.17.386,HF_wild_card,2022.2.4,Win32,60.45949214,602257a4c4c9de32aa966833,64d2fd46c836a06233681665,64dc7f71daf0b543d8b5d497,,,,,,,decisionTrl,resources/DP.BMP,resources/DBN.BMP,Door3,-0.296296268,0.001851824,1,0,0,0.5637,optionLeft,70,8465,4,31,0,31,0,1,,,,,,,,,,,,,,,,,,,,,,,,,,,,,,,,,,,,,,,
,,,,,,,,2023-08-16_08h49.17.386,HF_wild_card,2022.2.4,Win32,60.45949214,602257a4c4c9de32aa966833,64d2fd46c836a06233681665,64dc7f71daf0b543d8b5d497,,,,,,,sngl,resources/Empty.png,resources/DBN.BMP,WildCard_Ex,0.320370399,-0.037037065,1,0,0,0.9294,optionRight,95,8560,4,32,0,32,0,1,,,,,,,,,,,,,,,,,,,,,,,,,,,,,,,,,,,,,,,
,,,,,,,,2023-08-16_08h49.17.386,HF_wild_card,2022.2.4,Win32,60.45949214,602257a4c4c9de32aa966833,64d2fd46c836a06233681665,64dc7f71daf0b543d8b5d497,,,,,,,decisionTrl,resources/DG.BMP,resources/DY.BMP,Door1,0.285185242,-0.100925954,1,0,0,0.8644,optionRight,30,8590,4,33,0,33,0,1,,,,,,,,,,,,,,,,,,,,,,,,,,,,,,,,,,,,,,,
,,,,,,,,2023-08-16_08h49.17.386,HF_wild_card,2022.2.4,Win32,60.45949214,602257a4c4c9de32aa966833,64d2fd46c836a06233681665,64dc7f71daf0b543d8b5d497,,,,,,,sngl,resources/Empty.png,resources/DBN.BMP,WildCard_Ex,0.460185242,-0.111111111,1,0,0,0.6462,optionRight,5,8595,4,34,0,34,0,1,,,,,,,,,,,,,,,,,,,,,,,,,,,,,,,,,,,,,,,
,,,,,,,,2023-08-16_08h49.17.386,HF_wild_card,2022.2.4,Win32,60.45949214,602257a4c4c9de32aa966833,64d2fd46c836a06233681665,64dc7f71daf0b543d8b5d497,,,,,,,decisionTrl,resources/DBN.BMP,resources/DP.BMP,WildCard_Ex,-0.304629601,-0.003703732,1,0,0,0.5973,optionLeft,5,8600,4,35,0,35,0,1,,,,,,,,,,,,,,,,,,,,,,,,,,,,,,,,,,,,,,,
,,,,,,,,2023-08-16_08h49.17.386,HF_wild_card,2022.2.4,Win32,60.45949214,602257a4c4c9de32aa966833,64d2fd46c836a06233681665,64dc7f71daf0b543d8b5d497,,,,,,,sngl,resources/Empty.png,resources/DB.BMP,Door4,0.305555556,-0.051851866,1,0,0,0.5635,optionRight,80,8680,4,36,0,36,0,1,,,,,,,,,,,,,,,,,,,,,,,,,,,,,,,,,,,,,,,
,,,,,,,,2023-08-16_08h49.17.386,HF_wild_card,2022.2.4,Win32,60.45949214,602257a4c4c9de32aa966833,64d2fd46c836a06233681665,64dc7f71daf0b543d8b5d497,,,,,,,decisionTrl,resources/DP.BMP,resources/DB.BMP,Door3,-0.401851824,-0.000925954,1,0,0,0.6806,optionLeft,70,8750,4,37,0,37,0,1,,,,,,,,,,,,,,,,,,,,,,,,,,,,,,,,,,,,,,,
,,,,,,,,2023-08-16_08h49.17.386,HF_wild_card,2022.2.4,Win32,60.45949214,602257a4c4c9de32aa966833,64d2fd46c836a06233681665,64dc7f71daf0b543d8b5d497,,,,,,,ctch,resources/DG.BMP,resources/DP.BMP,Door3,0.471296353,-0.066666667,1,0,0,0.58,optionRight,70,8820,4,38,0,38,0,1,,,,,,,,,,,,,,,,,,,,,,,,,,,,,,,,,,,,,,,
,,,,,,,,2023-08-16_08h49.17.386,HF_wild_card,2022.2.4,Win32,60.45949214,602257a4c4c9de32aa966833,64d2fd46c836a06233681665,64dc7f71daf0b543d8b5d497,,,,,,,decisionTrl,resources/DG.BMP,resources/DBN.BMP,WildCard_Ex,0.294444444,-0.036111111,1,0,0,0.7615,optionRight,5,8825,4,39,0,39,0,1,,,,,,,,,,,,,,,,,,,,,,,,,,,,,,,,,,,,,,,
,,,,,,,,2023-08-16_08h49.17.386,HF_wild_card,2022.2.4,Win32,60.45949214,602257a4c4c9de32aa966833,64d2fd46c836a06233681665,64dc7f71daf0b543d8b5d497,,,,,,,sngl,resources/DBN.BMP,resources/Empty.png,WildCard_Ex,-0.397222222,0.01851849,1,0,0,0.547,optionLeft,95,8920,4,40,0,40,0,1,,,,,,,,,,,,,,,,,,,,,,,,,,,,,,,,,,,,,,,
,,,,,,,,2023-08-16_08h49.17.386,HF_wild_card,2022.2.4,Win32,60.45949214,602257a4c4c9de32aa966833,64d2fd46c836a06233681665,64dc7f71daf0b543d8b5d497,,,,,,,decisionTrl,resources/DB.BMP,resources/DP.BMP,Door4,-0.366666667,-0.014814843,1,0,0,0.8303,optionLeft,60,8980,4,41,0,41,0,1,,,,,,,,,,,,,,,,,,,,,,,,,,,,,,,,,,,,,,,
,,,,,,,,2023-08-16_08h49.17.386,HF_wild_card,2022.2.4,Win32,60.45949214,602257a4c4c9de32aa966833,64d2fd46c836a06233681665,64dc7f71daf0b543d8b5d497,,,,,,,decisionTrl,resources/DG.BMP,resources/DY.BMP,Door1,0.318518575,-0.034259288,1,0,0,0.5155,optionRight,30,9010,4,42,0,42,0,1,,,,,,,,,,,,,,,,,,,,,,,,,,,,,,,,,,,,,,,
,,,,,,,,2023-08-16_08h49.17.386,HF_wild_card,2022.2.4,Win32,60.45949214,602257a4c4c9de32aa966833,64d2fd46c836a06233681665,64dc7f71daf0b543d8b5d497,,,,,,,ctch,resources/DP.BMP,resources/DG.BMP,Door3,-0.317592578,0.022222222,1,0,0,0.5634,optionLeft,70,9080,4,43,0,43,0,1,,,,,,,,,,,,,,,,,,,,,,,,,,,,,,,,,,,,,,,
,,,,,,,,2023-08-16_08h49.17.386,HF_wild_card,2022.2.4,Win32,60.45949214,602257a4c4c9de32aa966833,64d2fd46c836a06233681665,64dc7f71daf0b543d8b5d497,,,,,,,,,,,,,,,,,,,,,,,,,,3,0,3,0,1,,,,,,,,,,,,,,,,,,,,,,,,,,,,,,,,,,
,,,,,,,,2023-08-16_08h49.17.386,HF_wild_card,2022.2.4,Win32,60.45949214,602257a4c4c9de32aa966833,64d2fd46c836a06233681665,64dc7f71daf0b543d8b5d497,,,,,,,decisionTrl,resources/DG.BMP,resources/DY.BMP,Door1,0.543518575,-0.004629644,1,0,0,0.9111,optionRight,30,9110,5,0,0,0,0,1,,,,,,,,,,,,,,,,,,,,,,,,,,,,,,,,,,,,,,,
,,,,,,,,2023-08-16_08h49.17.386,HF_wild_card,2022.2.4,Win32,60.45949214,602257a4c4c9de32aa966833,64d2fd46c836a06233681665,64dc7f71daf0b543d8b5d497,,,,,,,decisionTrl,resources/DB.BMP,resources/DBN.BMP,WildCard_Ex,0.250925954,-0.029629644,1,0,0,0.7626,optionRight,95,9205,5,1,0,1,0,1,,,,,,,,,,,,,,,,,,,,,,,,,,,,,,,,,,,,,,,
,,,,,,,,2023-08-16_08h49.17.386,HF_wild_card,2022.2.4,Win32,60.45949214,602257a4c4c9de32aa966833,64d2fd46c836a06233681665,64dc7f71daf0b543d8b5d497,,,,,,,ctch,resources/DP.BMP,resources/DG.BMP,Door3,-0.283333333,-0.025925954,1,0,0,0.5467,optionLeft,70,9275,5,2,0,2,0,1,,,,,,,,,,,,,,,,,,,,,,,,,,,,,,,,,,,,,,,
,,,,,,,,2023-08-16_08h49.17.386,HF_wild_card,2022.2.4,Win32,60.45949214,602257a4c4c9de32aa966833,64d2fd46c836a06233681665,64dc7f71daf0b543d8b5d497,,,,,,,decisionTrl,resources/DP.BMP,resources/DB.BMP,Door3,-0.275,-0.02129631,1,0,0,0.713,optionLeft,70,9345,5,3,0,3,0,1,,,,,,,,,,,,,,,,,,,,,,,,,,,,,,,,,,,,,,,
,,,,,,,,2023-08-16_08h49.17.386,HF_wild_card,2022.2.4,Win32,60.45949214,602257a4c4c9de32aa966833,64d2fd46c836a06233681665,64dc7f71daf0b543d8b5d497,,,,,,,decisionTrl,resources/DY.BMP,resources/DG.BMP,Door1,-0.337962935,-0.003703732,1,0,0,0.7119,optionLeft,30,9375,5,4,0,4,0,1,,,,,,,,,,,,,,,,,,,,,,,,,,,,,,,,,,,,,,,
,,,,,,,,2023-08-16_08h49.17.386,HF_wild_card,2022.2.4,Win32,60.45949214,602257a4c4c9de32aa966833,64d2fd46c836a06233681665,64dc7f71daf0b543d8b5d497,,,,,,,decisionTrl,resources/DB.BMP,resources/DP.BMP,Door3,0.378703732,-0.002777778,1,0,0,0.6802,optionRight,70,9445,5,5,0,5,0,1,,,,,,,,,,,,,,,,,,,,,,,,,,,,,,,,,,,,,,,
,,,,,,,,2023-08-16_08h49.17.386,HF_wild_card,2022.2.4,Win32,60.45949214,602257a4c4c9de32aa966833,64d2fd46c836a06233681665,64dc7f71daf0b543d8b5d497,,,,,,,ctch,resources/DB.BMP,resources/DY.BMP,Door4,-0.398148134,0.001851824,1,0,0,0.446,optionLeft,80,9525,5,6,0,6,0,1,,,,,,,,,,,,,,,,,,,,,,,,,,,,,,,,,,,,,,,
,,,,,,,,2023-08-16_08h49.17.386,HF_wild_card,2022.2.4,Win32,60.45949214,602257a4c4c9de32aa966833,64d2fd46c836a06233681665,64dc7f71daf0b543d8b5d497,,,,,,,decisionTrl,resources/DB.BMP,resources/DP.BMP,Door4,-0.385185157,0.002777778,1,0,0,0.4282,optionLeft,80,9605,5,7,0,7,0,1,,,,,,,,,,,,,,,,,,,,,,,,,,,,,,,,,,,,,,,
,,,,,,,,2023-08-16_08h49.17.386,HF_wild_card,2022.2.4,Win32,60.45949214,602257a4c4c9de32aa966833,64d2fd46c836a06233681665,64dc7f71daf0b543d8b5d497,,,,,,,decisionTrl,resources/DG.BMP,resources/DY.BMP,Door2,-0.310185157,0.002777778,1,0,0,0.4294,optionLeft,20,9625,5,8,0,8,0,1,,,,,,,,,,,,,,,,,,,,,,,,,,,,,,,,,,,,,,,
,,,,,,,,2023-08-16_08h49.17.386,HF_wild_card,2022.2.4,Win32,60.45949214,602257a4c4c9de32aa966833,64d2fd46c836a06233681665,64dc7f71daf0b543d8b5d497,,,,,,,decisionTrl,resources/DBN.BMP,resources/DY.BMP,WildCard_Ex,-0.30370369,0.007407379,1,0,0,0.5944,optionLeft,95,9720,5,9,0,9,0,1,,,,,,,,,,,,,,,,,,,,,,,,,,,,,,,,,,,,,,,
,,,,,,,,2023-08-16_08h49.17.386,HF_wild_card,2022.2.4,Win32,60.45949214,602257a4c4c9de32aa966833,64d2fd46c836a06233681665,64dc7f71daf0b543d8b5d497,,,,,,,sngl,resources/Empty.png,resources/DBN.BMP,WildCard_Ex,0.275925954,-0.015740755,1,0,0,0.6796,optionRight,5,9725,5,10,0,10,0,1,,,,,,,,,,,,,,,,,,,,,,,,,,,,,,,,,,,,,,,
,,,,,,,,2023-08-16_08h49.17.386,HF_wild_card,2022.2.4,Win32,60.45949214,602257a4c4c9de32aa966833,64d2fd46c836a06233681665,64dc7f71daf0b543d8b5d497,,,,,,,sngl,resources/Empty.png,resources/DBN.BMP,WildCard_Ex,0.278703732,-0.018518533,1,0,0,0.5642,optionRight,95,9820,5,11,0,11,0,1,,,,,,,,,,,,,,,,,,,,,,,,,,,,,,,,,,,,,,,
,,,,,,,,2023-08-16_08h49.17.386,HF_wild_card,2022.2.4,Win32,60.45949214,602257a4c4c9de32aa966833,64d2fd46c836a06233681665,64dc7f71daf0b543d8b5d497,,,,,,,decisionTrl,resources/DG.BMP,resources/DY.BMP,Door2,-0.29351849,0.002777778,1,0,0,0.6131,optionLeft,40,9860,5,12,0,12,0,1,,,,,,,,,,,,,,,,,,,,,,,,,,,,,,,,,,,,,,,
,,,,,,,,2023-08-16_08h49.17.386,HF_wild_card,2022.2.4,Win32,60.45949214,602257a4c4c9de32aa966833,64d2fd46c836a06233681665,64dc7f71daf0b543d8b5d497,,,,,,,sngl,resources/DBN.BMP,resources/Empty.png,WildCard_Ex,-0.349074046,0.008333333,1,0,0,0.5468,optionLeft,95,9955,5,13,0,13,0,1,,,,,,,,,,,,,,,,,,,,,,,,,,,,,,,,,,,,,,,
,,,,,,,,2023-08-16_08h49.17.386,HF_wild_card,2022.2.4,Win32,60.45949214,602257a4c4c9de32aa966833,64d2fd46c836a06233681665,64dc7f71daf0b543d8b5d497,,,,,,,ctch,resources/DY.BMP,resources/DB.BMP,Door4,0.213888889,0.019444444,1,0,0,0.9463,optionRight,80,10035,5,14,0,14,0,1,,,,,,,,,,,,,,,,,,,,,,,,,,,,,,,,,,,,,,,
,,,,,,,,2023-08-16_08h49.17.386,HF_wild_card,2022.2.4,Win32,60.45949214,602257a4c4c9de32aa966833,64d2fd46c836a06233681665,64dc7f71daf0b543d8b5d497,,,,,,,ctch,resources/DG.BMP,resources/DP.BMP,Door2,-0.297222222,0.008333333,1,0,0,0.53,optionLeft,40,10075,5,15,0,15,0,1,,,,,,,,,,,,,,,,,,,,,,,,,,,,,,,,,,,,,,,
,,,,,,,,2023-08-16_08h49.17.386,HF_wild_card,2022.2.4,Win32,60.45949214,602257a4c4c9de32aa966833,64d2fd46c836a06233681665,64dc7f71daf0b543d8b5d497,,,,,,,ctch,resources/DP.BMP,resources/DG.BMP,Door2,0.387963019,-0.064814843,1,0,0,0.4803,optionRight,40,10115,5,16,0,16,0,1,,,,,,,,,,,,,,,,,,,,,,,,,,,,,,,,,,,,,,,
,,,,,,,,2023-08-16_08h49.17.386,HF_wild_card,2022.2.4,Win32,60.45949214,602257a4c4c9de32aa966833,64d2fd46c836a06233681665,64dc7f71daf0b543d8b5d497,,,,,,,ctch,resources/DB.BMP,resources/DY.BMP,Door4,-0.362037023,-0.007407422,1,0,0,0.6632,optionLeft,60,10175,5,17,0,17,0,1,,,,,,,,,,,,,,,,,,,,,,,,,,,,,,,,,,,,,,,
,,,,,,,,2023-08-16_08h49.17.386,HF_wild_card,2022.2.4,Win32,60.45949214,602257a4c4c9de32aa966833,64d2fd46c836a06233681665,64dc7f71daf0b543d8b5d497,,,,,,,decisionTrl,resources/DB.BMP,resources/DP.BMP,Door3,0.222222222,-0.001851866,1,0,0,0.9137,optionRight,70,10245,5,18,0,18,0,1,,,,,,,,,,,,,,,,,,,,,,,,,,,,,,,,,,,,,,,
,,,,,,,,2023-08-16_08h49.17.386,HF_wild_card,2022.2.4,Win32,60.45949214,602257a4c4c9de32aa966833,64d2fd46c836a06233681665,64dc7f71daf0b543d8b5d497,,,,,,,decisionTrl,resources/DBN.BMP,resources/DB.BMP,Door4,0.330555556,-0.038888889,1,0,0,0.7299,optionRight,80,10325,5,19,0,19,0,1,,,,,,,,,,,,,,,,,,,,,,,,,,,,,,,,,,,,,,,
,,,,,,,,2023-08-16_08h49.17.386,HF_wild_card,2022.2.4,Win32,60.45949214,602257a4c4c9de32aa966833,64d2fd46c836a06233681665,64dc7f71daf0b543d8b5d497,,,,,,,decisionTrl,resources/DG.BMP,resources/DBN.BMP,WildCard_Ex,0.242592621,-0.014814843,1,0,0,0.6308,optionRight,5,10330,5,20,0,20,0,1,,,,,,,,,,,,,,,,,,,,,,,,,,,,,,,,,,,,,,,
,,,,,,,,2023-08-16_08h49.17.386,HF_wild_card,2022.2.4,Win32,60.45949214,602257a4c4c9de32aa966833,64d2fd46c836a06233681665,64dc7f71daf0b543d8b5d497,,,,,,,decisionTrl,resources/DBN.BMP,resources/DG.BMP,WildCard_Ex,-0.337962935,0.047222222,1,0,0,0.5285,optionLeft,95,10425,5,21,0,21,0,1,,,,,,,,,,,,,,,,,,,,,,,,,,,,,,,,,,,,,,,
,,,,,,,,2023-08-16_08h49.17.386,HF_wild_card,2022.2.4,Win32,60.45949214,602257a4c4c9de32aa966833,64d2fd46c836a06233681665,64dc7f71daf0b543d8b5d497,,,,,,,decisionTrl,resources/DP.BMP,resources/DB.BMP,Door4,0.401851908,-0.082407422,1,0,0,0.6468,optionRight,80,10505,5,22,0,22,0,1,,,,,,,,,,,,,,,,,,,,,,,,,,,,,,,,,,,,,,,
,,,,,,,,2023-08-16_08h49.17.386,HF_wild_card,2022.2.4,Win32,60.45949214,602257a4c4c9de32aa966833,64d2fd46c836a06233681665,64dc7f71daf0b543d8b5d497,,,,,,,decisionTrl,resources/DY.BMP,resources/DG.BMP,Door2,0.318518575,-0.035185199,1,0,0,0.9273,optionRight,20,10525,5,23,0,23,0,1,,,,,,,,,,,,,,,,,,,,,,,,,,,,,,,,,,,,,,,
,,,,,,,,2023-08-16_08h49.17.386,HF_wild_card,2022.2.4,Win32,60.45949214,602257a4c4c9de32aa966833,64d2fd46c836a06233681665,64dc7f71daf0b543d8b5d497,,,,,,,sngl,resources/DY.BMP,resources/Empty.png,Door1,-0.383333333,-0.002777778,1,0,0,0.513,optionLeft,30,10555,5,24,0,24,0,1,,,,,,,,,,,,,,,,,,,,,,,,,,,,,,,,,,,,,,,
,,,,,,,,2023-08-16_08h49.17.386,HF_wild_card,2022.2.4,Win32,60.45949214,602257a4c4c9de32aa966833,64d2fd46c836a06233681665,64dc7f71daf0b543d8b5d497,,,,,,,decisionTrl,resources/DP.BMP,resources/DBN.BMP,WildCard_Ex,0.446296353,-0.094444444,1,0,0,0.5787,optionRight,95,10650,5,25,0,25,0,1,,,,,,,,,,,,,,,,,,,,,,,,,,,,,,,,,,,,,,,
,,,,,,,,2023-08-16_08h49.17.386,HF_wild_card,2022.2.4,Win32,60.45949214,602257a4c4c9de32aa966833,64d2fd46c836a06233681665,64dc7f71daf0b543d8b5d497,,,,,,,sngl,resources/Empty.png,resources/DG.BMP,Door2,0.314814843,-0.051851866,1,0,0,0.5951,optionRight,20,10670,5,26,0,26,0,1,,,,,,,,,,,,,,,,,,,,,,,,,,,,,,,,,,,,,,,
,,,,,,,,2023-08-16_08h49.17.386,HF_wild_card,2022.2.4,Win32,60.45949214,602257a4c4c9de32aa966833,64d2fd46c836a06233681665,64dc7f71daf0b543d8b5d497,,,,,,,decisionTrl,resources/DY.BMP,resources/DG.BMP,Door1,-0.345370356,0.047222222,1,0,0,0.6304,optionLeft,30,10700,5,27,0,27,0,1,,,,,,,,,,,,,,,,,,,,,,,,,,,,,,,,,,,,,,,
,,,,,,,,2023-08-16_08h49.17.386,HF_wild_card,2022.2.4,Win32,60.45949214,602257a4c4c9de32aa966833,64d2fd46c836a06233681665,64dc7f71daf0b543d8b5d497,,,,,,,decisionTrl,resources/DB.BMP,resources/DP.BMP,Door3,0.284259288,-0.059259288,1,0,0,0.7468,optionRight,70,10770,5,28,0,28,0,1,,,,,,,,,,,,,,,,,,,,,,,,,,,,,,,,,,,,,,,
,,,,,,,,2023-08-16_08h49.17.386,HF_wild_card,2022.2.4,Win32,60.45949214,602257a4c4c9de32aa966833,64d2fd46c836a06233681665,64dc7f71daf0b543d8b5d497,,,,,,,sngl,resources/DG.BMP,resources/Empty.png,Door2,-0.324074046,0.024074046,1,0,0,0.5966,optionLeft,40,10810,5,29,0,29,0,1,,,,,,,,,,,,,,,,,,,,,,,,,,,,,,,,,,,,,,,
,,,,,,,,2023-08-16_08h49.17.386,HF_wild_card,2022.2.4,Win32,60.45949214,602257a4c4c9de32aa966833,64d2fd46c836a06233681665,64dc7f71daf0b543d8b5d497,,,,,,,sngl,resources/Empty.png,resources/DB.BMP,Door4,0.386111111,-0.054629644,1,0,0,0.5464,optionRight,60,10870,5,30,0,30,0,1,,,,,,,,,,,,,,,,,,,,,,,,,,,,,,,,,,,,,,,
,,,,,,,,2023-08-16_08h49.17.386,HF_wild_card,2022.2.4,Win32,60.45949214,602257a4c4c9de32aa966833,64d2fd46c836a06233681665,64dc7f71daf0b543d8b5d497,,,,,,,decisionTrl,resources/DP.BMP,resources/DB.BMP,Door3,-0.222222222,-0.009259288,1,0,0,0.4635,optionLeft,70,10940,5,31,0,31,0,1,,,,,,,,,,,,,,,,,,,,,,,,,,,,,,,,,,,,,,,
,,,,,,,,2023-08-16_08h49.17.386,HF_wild_card,2022.2.4,Win32,60.45949214,602257a4c4c9de32aa966833,64d2fd46c836a06233681665,64dc7f71daf0b543d8b5d497,,,,,,,sngl,resources/DBN.BMP,resources/Empty.png,WildCard_Ex,-0.352777778,0.027777778,1,0,0,0.6135,optionLeft,5,10945,5,32,0,32,0,1,,,,,,,,,,,,,,,,,,,,,,,,,,,,,,,,,,,,,,,
,,,,,,,,2023-08-16_08h49.17.386,HF_wild_card,2022.2.4,Win32,60.45949214,602257a4c4c9de32aa966833,64d2fd46c836a06233681665,64dc7f71daf0b543d8b5d497,,,,,,,decisionTrl,resources/DY.BMP,resources/DG.BMP,Door1,-0.492592578,-0.030555556,1,0,0,0.5132,optionLeft,30,10975,5,33,0,33,0,1,,,,,,,,,,,,,,,,,,,,,,,,,,,,,,,,,,,,,,,
,,,,,,,,2023-08-16_08h49.17.386,HF_wild_card,2022.2.4,Win32,60.45949214,602257a4c4c9de32aa966833,64d2fd46c836a06233681665,64dc7f71daf0b543d8b5d497,,,,,,,sngl,resources/Empty.png,resources/DP.BMP,Door3,0.328703732,-0.067592621,1,0,0,0.5462,optionRight,70,11045,5,34,0,34,0,1,,,,,,,,,,,,,,,,,,,,,,,,,,,,,,,,,,,,,,,
,,,,,,,,2023-08-16_08h49.17.386,HF_wild_card,2022.2.4,Win32,60.45949214,602257a4c4c9de32aa966833,64d2fd46c836a06233681665,64dc7f71daf0b543d8b5d497,,,,,,,sngl,resources/Empty.png,resources/DY.BMP,Door1,0.251851908,-0.065740755,1,0,0,0.4966,optionRight,30,11075,5,35,0,35,0,1,,,,,,,,,,,,,,,,,,,,,,,,,,,,,,,,,,,,,,,
,,,,,,,,2023-08-16_08h49.17.386,HF_wild_card,2022.2.4,Win32,60.45949214,602257a4c4c9de32aa966833,64d2fd46c836a06233681665,64dc7f71daf0b543d8b5d497,,,,,,,decisionTrl,resources/DBN.BMP,resources/DP.BMP,WildCard_Ex,-0.367592578,0.029629601,1,0,0,0.4795,optionLeft,95,11170,5,36,0,36,0,1,,,,,,,,,,,,,,,,,,,,,,,,,,,,,,,,,,,,,,,
,,,,,,,,2023-08-16_08h49.17.386,HF_wild_card,2022.2.4,Win32,60.45949214,602257a4c4c9de32aa966833,64d2fd46c836a06233681665,64dc7f71daf0b543d8b5d497,,,,,,,sngl,resources/DB.BMP,resources/Empty.png,Door4,-0.311111111,-0.004629644,1,0,0,0.5965,optionLeft,80,11250,5,37,0,37,0,1,,,,,,,,,,,,,,,,,,,,,,,,,,,,,,,,,,,,,,,
,,,,,,,,2023-08-16_08h49.17.386,HF_wild_card,2022.2.4,Win32,60.45949214,602257a4c4c9de32aa966833,64d2fd46c836a06233681665,64dc7f71daf0b543d8b5d497,,,,,,,decisionTrl,resources/DY.BMP,resources/DBN.BMP,WildCard_Ex,0.348148176,-0.073148176,1,0,0,0.6312,optionRight,5,11255,5,38,0,38,0,1,,,,,,,,,,,,,,,,,,,,,,,,,,,,,,,,,,,,,,,
,,,,,,,,2023-08-16_08h49.17.386,HF_wild_card,2022.2.4,Win32,60.45949214,602257a4c4c9de32aa966833,64d2fd46c836a06233681665,64dc7f71daf0b543d8b5d497,,,,,,,ctch,resources/DY.BMP,resources/DB.BMP,Door1,-0.362037023,0.033333333,1,0,0,0.4468,optionLeft,30,11285,5,39,0,39,0,1,,,,,,,,,,,,,,,,,,,,,,,,,,,,,,,,,,,,,,,
,,,,,,,,2023-08-16_08h49.17.386,HF_wild_card,2022.2.4,Win32,60.45949214,602257a4c4c9de32aa966833,64d2fd46c836a06233681665,64dc7f71daf0b543d8b5d497,,,,,,,decisionTrl,resources/DG.BMP,resources/DY.BMP,Door1,0.383333333,-0.078703732,1,0,0,0.5128,optionRight,30,11315,5,40,0,40,0,1,,,,,,,,,,,,,,,,,,,,,,,,,,,,,,,,,,,,,,,
,,,,,,,,2023-08-16_08h49.17.386,HF_wild_card,2022.2.4,Win32,60.45949214,602257a4c4c9de32aa966833,64d2fd46c836a06233681665,64dc7f71daf0b543d8b5d497,,,,,,,ctch,resources/DG.BMP,resources/DP.BMP,Door3,0.433333333,-0.087962977,1,0,0,0.5639,optionRight,70,11385,5,41,0,41,0,1,,,,,,,,,,,,,,,,,,,,,,,,,,,,,,,,,,,,,,,
,,,,,,,,2023-08-16_08h49.17.386,HF_wild_card,2022.2.4,Win32,60.45949214,602257a4c4c9de32aa966833,64d2fd46c836a06233681665,64dc7f71daf0b543d8b5d497,,,,,,,decisionTrl,resources/DP.BMP,resources/DB.BMP,Door4,0.326851908,-0.070370399,1,0,0,0.6618,optionRight,80,11465,5,42,0,42,0,1,,,,,,,,,,,,,,,,,,,,,,,,,,,,,,,,,,,,,,,
,,,,,,,,2023-08-16_08h49.17.386,HF_wild_card,2022.2.4,Win32,60.45949214,602257a4c4c9de32aa966833,64d2fd46c836a06233681665,64dc7f71daf0b543d8b5d497,,,,,,,sngl,resources/DP.BMP,resources/Empty.png,Door3,-0.264814801,-0.034259288,1,0,0,0.6291,optionLeft,70,11535,5,43,0,43,0,1,,,,,,,,,,,,,,,,,,,,,,,,,,,,,,,,,,,,,,,
,,,,,,,,2023-08-16_08h49.17.386,HF_wild_card,2022.2.4,Win32,60.45949214,602257a4c4c9de32aa966833,64d2fd46c836a06233681665,64dc7f71daf0b543d8b5d497,,,,,,,,,,,,,,,,,,,,,,,,,,4,0,4,0,1,,,,,,,,,,,,,,,,,,,,,,,,,,,,,,,,,,
,,,,,,,,2023-08-16_08h49.17.386,HF_wild_card,2022.2.4,Win32,60.45949214,602257a4c4c9de32aa966833,64d2fd46c836a06233681665,64dc7f71daf0b543d8b5d497,,,,,,,decisionTrl,resources/DG.BMP,resources/DY.BMP,Door1,0.35,-0.055555556,1,0,0,0.8019,optionRight,30,11565,6,0,0,0,0,1,,,,,,,,,,,,,,,,,,,,,,,,,,,,,,,,,,,,,,,
,,,,,,,,2023-08-16_08h49.17.386,HF_wild_card,2022.2.4,Win32,60.45949214,602257a4c4c9de32aa966833,64d2fd46c836a06233681665,64dc7f71daf0b543d8b5d497,,,,,,,sngl,resources/DP.BMP,resources/Empty.png,Door3,-0.377777778,-0.001851866,1,0,0,0.4965,optionLeft,70,11635,6,1,0,1,0,1,,,,,,,,,,,,,,,,,,,,,,,,,,,,,,,,,,,,,,,
,,,,,,,,2023-08-16_08h49.17.386,HF_wild_card,2022.2.4,Win32,60.45949214,602257a4c4c9de32aa966833,64d2fd46c836a06233681665,64dc7f71daf0b543d8b5d497,,,,,,,decisionTrl,resources/DG.BMP,resources/DBN.BMP,WildCard_Ex,0.466666667,-0.014814843,1,0,0,0.412,optionRight,5,11640,6,2,0,2,0,1,,,,,,,,,,,,,,,,,,,,,,,,,,,,,,,,,,,,,,,
,,,,,,,,2023-08-16_08h49.17.386,HF_wild_card,2022.2.4,Win32,60.45949214,602257a4c4c9de32aa966833,64d2fd46c836a06233681665,64dc7f71daf0b543d8b5d497,,,,,,,decisionTrl,resources/DB.BMP,resources/DP.BMP,Door4,-0.475,0.012962935,1,0,0,0.4619,optionLeft,60,11700,6,3,0,3,0,1,,,,,,,,,,,,,,,,,,,,,,,,,,,,,,,,,,,,,,,
,,,,,,,,2023-08-16_08h49.17.386,HF_wild_card,2022.2.4,Win32,60.45949214,602257a4c4c9de32aa966833,64d2fd46c836a06233681665,64dc7f71daf0b543d8b5d497,,,,,,,sngl,resources/DB.BMP,resources/Empty.png,Door4,-0.342592578,0.009259245,1,0,0,0.4475,optionLeft,60,11760,6,4,0,4,0,1,,,,,,,,,,,,,,,,,,,,,,,,,,,,,,,,,,,,,,,
,,,,,,,,2023-08-16_08h49.17.386,HF_wild_card,2022.2.4,Win32,60.45949214,602257a4c4c9de32aa966833,64d2fd46c836a06233681665,64dc7f71daf0b543d8b5d497,,,,,,,decisionTrl,resources/DG.BMP,resources/DY.BMP,Door1,0.324074131,-0.025,1,0,0,0.5786,optionRight,30,11790,6,5,0,5,0,1,,,,,,,,,,,,,,,,,,,,,,,,,,,,,,,,,,,,,,,
,,,,,,,,2023-08-16_08h49.17.386,HF_wild_card,2022.2.4,Win32,60.45949214,602257a4c4c9de32aa966833,64d2fd46c836a06233681665,64dc7f71daf0b543d8b5d497,,,,,,,sngl,resources/Empty.png,resources/DBN.BMP,WildCard_Ex,0.437963019,-0.044444444,1,0,0,0.5133,optionRight,95,11885,6,6,0,6,0,1,,,,,,,,,,,,,,,,,,,,,,,,,,,,,,,,,,,,,,,
,,,,,,,,2023-08-16_08h49.17.386,HF_wild_card,2022.2.4,Win32,60.45949214,602257a4c4c9de32aa966833,64d2fd46c836a06233681665,64dc7f71daf0b543d8b5d497,,,,,,,decisionTrl,resources/DY.BMP,resources/DG.BMP,Door1,-0.330555556,0.001851824,1,0,0,0.4631,optionLeft,30,11915,6,7,0,7,0,1,,,,,,,,,,,,,,,,,,,,,,,,,,,,,,,,,,,,,,,
,,,,,,,,2023-08-16_08h49.17.386,HF_wild_card,2022.2.4,Win32,60.45949214,602257a4c4c9de32aa966833,64d2fd46c836a06233681665,64dc7f71daf0b543d8b5d497,,,,,,,sngl,resources/DG.BMP,resources/Empty.png,Door2,-0.258333333,0.02870369,1,0,0,0.4636,optionLeft,20,11935,6,8,0,8,0,1,,,,,,,,,,,,,,,,,,,,,,,,,,,,,,,,,,,,,,,
,,,,,,,,2023-08-16_08h49.17.386,HF_wild_card,2022.2.4,Win32,60.45949214,602257a4c4c9de32aa966833,64d2fd46c836a06233681665,64dc7f71daf0b543d8b5d497,,,,,,,decisionTrl,resources/DY.BMP,resources/DG.BMP,Door1,-0.327777778,0.009259245,1,0,0,0.5966,optionLeft,30,11965,6,9,0,9,0,1,,,,,,,,,,,,,,,,,,,,,,,,,,,,,,,,,,,,,,,
,,,,,,,,2023-08-16_08h49.17.386,HF_wild_card,2022.2.4,Win32,60.45949214,602257a4c4c9de32aa966833,64d2fd46c836a06233681665,64dc7f71daf0b543d8b5d497,,,,,,,decisionTrl,resources/DB.BMP,resources/DBN.BMP,WildCard_Ex,0.319444444,-0.038888889,1,0,0,0.763,optionRight,95,12060,6,10,0,10,0,1,,,,,,,,,,,,,,,,,,,,,,,,,,,,,,,,,,,,,,,
,,,,,,,,2023-08-16_08h49.17.386,HF_wild_card,2022.2.4,Win32,60.45949214,602257a4c4c9de32aa966833,64d2fd46c836a06233681665,64dc7f71daf0b543d8b5d497,,,,,,,sngl,resources/Empty.png,resources/DBN.BMP,WildCard_Ex,0.245370399,-0.025925954,1,0,0,0.5802,optionRight,5,12065,6,11,0,11,0,1,,,,,,,,,,,,,,,,,,,,,,,,,,,,,,,,,,,,,,,
,,,,,,,,2023-08-16_08h49.17.386,HF_wild_card,2022.2.4,Win32,60.45949214,602257a4c4c9de32aa966833,64d2fd46c836a06233681665,64dc7f71daf0b543d8b5d497,,,,,,,decisionTrl,resources/DP.BMP,resources/DBN.BMP,WildCard_Ex,0.491666667,-0.09629631,1,0,0,0.764,optionRight,95,12160,6,12,0,12,0,1,,,,,,,,,,,,,,,,,,,,,,,,,,,,,,,,,,,,,,,
,,,,,,,,2023-08-16_08h49.17.386,HF_wild_card,2022.2.4,Win32,60.45949214,602257a4c4c9de32aa966833,64d2fd46c836a06233681665,64dc7f71daf0b543d8b5d497,,,,,,,ctch,resources/DP.BMP,resources/DG.BMP,Door2,0.248148176,-0.043518533,1,0,0,0.5969,optionRight,20,12180,6,13,0,13,0,1,,,,,,,,,,,,,,,,,,,,,,,,,,,,,,,,,,,,,,,
,,,,,,,,2023-08-16_08h49.17.386,HF_wild_card,2022.2.4,Win32,60.45949214,602257a4c4c9de32aa966833,64d2fd46c836a06233681665,64dc7f71daf0b543d8b5d497,,,,,,,ctch,resources/DP.BMP,resources/DG.BMP,Door3,-0.292592578,-0.028703732,1,0,0,0.4802,optionLeft,70,12250,6,14,0,14,0,1,,,,,,,,,,,,,,,,,,,,,,,,,,,,,,,,,,,,,,,
,,,,,,,,2023-08-16_08h49.17.386,HF_wild_card,2022.2.4,Win32,60.45949214,602257a4c4c9de32aa966833,64d2fd46c836a06233681665,64dc7f71daf0b543d8b5d497,,,,,,,decisionTrl,resources/DP.BMP,resources/DB.BMP,Door3,-0.296296268,-0.002777778,1,0,0,0.5123,optionLeft,70,12320,6,15,0,15,0,1,,,,,,,,,,,,,,,,,,,,,,,,,,,,,,,,,,,,,,,
,,,,,,,,2023-08-16_08h49.17.386,HF_wild_card,2022.2.4,Win32,60.45949214,602257a4c4c9de32aa966833,64d2fd46c836a06233681665,64dc7f71daf0b543d8b5d497,,,,,,,sngl,resources/Empty.png,resources/DB.BMP,Door4,0.279629686,-0.040740755,1,0,0,0.514,optionRight,80,12400,6,16,0,16,0,1,,,,,,,,,,,,,,,,,,,,,,,,,,,,,,,,,,,,,,,
,,,,,,,,2023-08-16_08h49.17.386,HF_wild_card,2022.2.4,Win32,60.45949214,602257a4c4c9de32aa966833,64d2fd46c836a06233681665,64dc7f71daf0b543d8b5d497,,,,,,,decisionTrl,resources/DBN.BMP,resources/DB.BMP,WildCard_Ex,-0.308333333,0.016666667,1,0,0,0.6152,optionLeft,5,12405,6,17,0,17,0,1,,,,,,,,,,,,,,,,,,,,,,,,,,,,,,,,,,,,,,,
,,,,,,,,2023-08-16_08h49.17.386,HF_wild_card,2022.2.4,Win32,60.45949214,602257a4c4c9de32aa966833,64d2fd46c836a06233681665,64dc7f71daf0b543d8b5d497,,,,,,,decisionTrl,resources/DY.BMP,resources/DG.BMP,Door1,-0.305555556,0.010185157,1,0,0,0.5794,optionLeft,30,12435,6,18,0,18,0,1,,,,,,,,,,,,,,,,,,,,,,,,,,,,,,,,,,,,,,,
,,,,,,,,2023-08-16_08h49.17.386,HF_wild_card,2022.2.4,Win32,60.45949214,602257a4c4c9de32aa966833,64d2fd46c836a06233681665,64dc7f71daf0b543d8b5d497,,,,,,,decisionTrl,resources/DY.BMP,resources/DBN.BMP,WildCard_Ex,0.55,-0.080555556,1,0,0,0.6802,optionRight,5,12440,6,19,0,19,0,1,,,,,,,,,,,,,,,,,,,,,,,,,,,,,,,,,,,,,,,
,,,,,,,,2023-08-16_08h49.17.386,HF_wild_card,2022.2.4,Win32,60.45949214,602257a4c4c9de32aa966833,64d2fd46c836a06233681665,64dc7f71daf0b543d8b5d497,,,,,,,decisionTrl,resources/DG.BMP,resources/DY.BMP,Door2,-0.287037023,0.034259245,1,0,0,0.4307,optionLeft,40,12480,6,20,0,20,0,1,,,,,,,,,,,,,,,,,,,,,,,,,,,,,,,,,,,,,,,
,,,,,,,,2023-08-16_08h49.17.386,HF_wild_card,2022.2.4,Win32,60.45949214,602257a4c4c9de32aa966833,64d2fd46c836a06233681665,64dc7f71daf0b543d8b5d497,,,,,,,sngl,resources/Empty.png,resources/DY.BMP,Door1,0.326851908,-0.050925954,1,0,0,0.4468,optionRight,30,12510,6,21,0,21,0,1,,,,,,,,,,,,,,,,,,,,,,,,,,,,,,,,,,,,,,,
,,,,,,,,2023-08-16_08h49.17.386,HF_wild_card,2022.2.4,Win32,60.45949214,602257a4c4c9de32aa966833,64d2fd46c836a06233681665,64dc7f71daf0b543d8b5d497,,,,,,,decisionTrl,resources/DG.BMP,resources/DY.BMP,Door2,-0.433333333,0.004629601,1,0,0,0.581,optionLeft,40,12550,6,22,0,22,0,1,,,,,,,,,,,,,,,,,,,,,,,,,,,,,,,,,,,,,,,
,,,,,,,,2023-08-16_08h49.17.386,HF_wild_card,2022.2.4,Win32,60.45949214,602257a4c4c9de32aa966833,64d2fd46c836a06233681665,64dc7f71daf0b543d8b5d497,,,,,,,sngl,resources/Empty.png,resources/DG.BMP,Door2,0.272222222,-0.058333333,1,0,0,0.5476,optionRight,40,12590,6,23,0,23,0,1,,,,,,,,,,,,,,,,,,,,,,,,,,,,,,,,,,,,,,,
,,,,,,,,2023-08-16_08h49.17.386,HF_wild_card,2022.2.4,Win32,60.45949214,602257a4c4c9de32aa966833,64d2fd46c836a06233681665,64dc7f71daf0b543d8b5d497,,,,,,,decisionTrl,resources/DBN.BMP,resources/DP.BMP,WildCard_Ex,-0.306481467,-0.018518533,1,0,0,0.5307,optionLeft,95,12685,6,24,0,24,0,1,,,,,,,,,,,,,,,,,,,,,,,,,,,,,,,,,,,,,,,
,,,,,,,,2023-08-16_08h49.17.386,HF_wild_card,2022.2.4,Win32,60.45949214,602257a4c4c9de32aa966833,64d2fd46c836a06233681665,64dc7f71daf0b543d8b5d497,,,,,,,ctch,resources/DY.BMP,resources/DB.BMP,Door4,0.25,-0.037962977,1,0,0,0.5466,optionRight,80,12765,6,25,0,25,0,1,,,,,,,,,,,,,,,,,,,,,,,,,,,,,,,,,,,,,,,
,,,,,,,,2023-08-16_08h49.17.386,HF_wild_card,2022.2.4,Win32,60.45949214,602257a4c4c9de32aa966833,64d2fd46c836a06233681665,64dc7f71daf0b543d8b5d497,,,,,,,sngl,resources/DY.BMP,resources/Empty.png,Door1,-0.416666667,0.047222222,1,0,0,0.43,optionLeft,30,12795,6,26,0,26,0,1,,,,,,,,,,,,,,,,,,,,,,,,,,,,,,,,,,,,,,,
,,,,,,,,2023-08-16_08h49.17.386,HF_wild_card,2022.2.4,Win32,60.45949214,602257a4c4c9de32aa966833,64d2fd46c836a06233681665,64dc7f71daf0b543d8b5d497,,,,,,,decisionTrl,resources/DP.BMP,resources/DB.BMP,Door4,0.373148176,-0.037037065,1,0,0,0.3802,optionRight,60,12855,6,27,0,27,0,1,,,,,,,,,,,,,,,,,,,,,,,,,,,,,,,,,,,,,,,
,,,,,,,,2023-08-16_08h49.17.386,HF_wild_card,2022.2.4,Win32,60.45949214,602257a4c4c9de32aa966833,64d2fd46c836a06233681665,64dc7f71daf0b543d8b5d497,,,,,,,sngl,resources/Empty.png,resources/DP.BMP,Door3,0.392592621,-0.047222222,1,0,0,0.496,optionRight,70,12925,6,28,0,28,0,1,,,,,,,,,,,,,,,,,,,,,,,,,,,,,,,,,,,,,,,
,,,,,,,,2023-08-16_08h49.17.386,HF_wild_card,2022.2.4,Win32,60.45949214,602257a4c4c9de32aa966833,64d2fd46c836a06233681665,64dc7f71daf0b543d8b5d497,,,,,,,decisionTrl,resources/DBN.BMP,resources/DG.BMP,WildCard_Ex,-0.380555556,-0.000925954,1,0,0,0.5633,optionLeft,95,13020,6,29,0,29,0,1,,,,,,,,,,,,,,,,,,,,,,,,,,,,,,,,,,,,,,,
,,,,,,,,2023-08-16_08h49.17.386,HF_wild_card,2022.2.4,Win32,60.45949214,602257a4c4c9de32aa966833,64d2fd46c836a06233681665,64dc7f71daf0b543d8b5d497,,,,,,,ctch,resources/DB.BMP,resources/DY.BMP,Door4,-0.275,-0.025925954,1,0,0,0.6298,optionLeft,80,13100,6,30,0,30,0,1,,,,,,,,,,,,,,,,,,,,,,,,,,,,,,,,,,,,,,,
,,,,,,,,2023-08-16_08h49.17.386,HF_wild_card,2022.2.4,Win32,60.45949214,602257a4c4c9de32aa966833,64d2fd46c836a06233681665,64dc7f71daf0b543d8b5d497,,,,,,,sngl,resources/DBN.BMP,resources/Empty.png,WildCard_Ex,-0.296296268,-0.066666667,1,0,0,0.4628,optionLeft,5,13105,6,31,0,31,0,1,,,,,,,,,,,,,,,,,,,,,,,,,,,,,,,,,,,,,,,
,,,,,,,,2023-08-16_08h49.17.386,HF_wild_card,2022.2.4,Win32,60.45949214,602257a4c4c9de32aa966833,64d2fd46c836a06233681665,64dc7f71daf0b543d8b5d497,,,,,,,ctch,resources/DB.BMP,resources/DY.BMP,Door4,-0.310185157,0.005555556,1,0,0,0.5117,optionLeft,80,13185,6,32,0,32,0,1,,,,,,,,,,,,,,,,,,,,,,,,,,,,,,,,,,,,,,,
,,,,,,,,2023-08-16_08h49.17.386,HF_wild_card,2022.2.4,Win32,60.45949214,602257a4c4c9de32aa966833,64d2fd46c836a06233681665,64dc7f71daf0b543d8b5d497,,,,,,,decisionTrl,resources/DB.BMP,resources/DP.BMP,Door3,0.437963019,-0.077777778,1,0,0,0.4965,optionRight,70,13255,6,33,0,33,0,1,,,,,,,,,,,,,,,,,,,,,,,,,,,,,,,,,,,,,,,
,,,,,,,,2023-08-16_08h49.17.386,HF_wild_card,2022.2.4,Win32,60.45949214,602257a4c4c9de32aa966833,64d2fd46c836a06233681665,64dc7f71daf0b543d8b5d497,,,,,,,decisionTrl,resources/DP.BMP,resources/DB.BMP,Door3,-0.526851824,-0.013888889,1,0,0,0.4131,optionLeft,70,13325,6,34,0,34,0,1,,,,,,,,,,,,,,,,,,,,,,,,,,,,,,,,,,,,,,,
,,,,,,,,2023-08-16_08h49.17.386,HF_wild_card,2022.2.4,Win32,60.45949214,602257a4c4c9de32aa966833,64d2fd46c836a06233681665,64dc7f71daf0b543d8b5d497,,,,,,,decisionTrl,resources/DP.BMP,resources/DB.BMP,Door3,-0.314814801,-0.025,1,0,0,0.414,optionLeft,70,13395,6,35,0,35,0,1,,,,,,,,,,,,,,,,,,,,,,,,,,,,,,,,,,,,,,,
,,,,,,,,2023-08-16_08h49.17.386,HF_wild_card,2022.2.4,Win32,60.45949214,602257a4c4c9de32aa966833,64d2fd46c836a06233681665,64dc7f71daf0b543d8b5d497,,,,,,,decisionTrl,resources/DY.BMP,resources/DG.BMP,Door2,0.208333333,-0.036111111,1,0,0,0.714,optionRight,40,13435,6,36,0,36,0,1,,,,,,,,,,,,,,,,,,,,,,,,,,,,,,,,,,,,,,,
,,,,,,,,2023-08-16_08h49.17.386,HF_wild_card,2022.2.4,Win32,60.45949214,602257a4c4c9de32aa966833,64d2fd46c836a06233681665,64dc7f71daf0b543d8b5d497,,,,,,,ctch,resources/DY.BMP,resources/DB.BMP,Door4,0.304629686,-0.139814843,1,0,0,0.5633,optionRight,80,13515,6,37,0,37,0,1,,,,,,,,,,,,,,,,,,,,,,,,,,,,,,,,,,,,,,,
,,,,,,,,2023-08-16_08h49.17.386,HF_wild_card,2022.2.4,Win32,60.45949214,602257a4c4c9de32aa966833,64d2fd46c836a06233681665,64dc7f71daf0b543d8b5d497,,,,,,,ctch,resources/DG.BMP,resources/DP.BMP,Door3,0.289814843,-0.077777778,1,0,0,0.6456,optionRight,70,13585,6,38,0,38,0,1,,,,,,,,,,,,,,,,,,,,,,,,,,,,,,,,,,,,,,,
,,,,,,,,2023-08-16_08h49.17.386,HF_wild_card,2022.2.4,Win32,60.45949214,602257a4c4c9de32aa966833,64d2fd46c836a06233681665,64dc7f71daf0b543d8b5d497,,,,,,,ctch,resources/DG.BMP,resources/DP.BMP,Door3,0.349074131,-0.105555556,1,0,0,0.5134,optionRight,70,13655,6,39,0,39,0,1,,,,,,,,,,,,,,,,,,,,,,,,,,,,,,,,,,,,,,,
,,,,,,,,2023-08-16_08h49.17.386,HF_wild_card,2022.2.4,Win32,60.45949214,602257a4c4c9de32aa966833,64d2fd46c836a06233681665,64dc7f71daf0b543d8b5d497,,,,,,,decisionTrl,resources/DBN.BMP,resources/DY.BMP,Door1,0.397222222,-0.094444444,1,0,0,0.4981,optionRight,30,13685,6,40,0,40,0,1,,,,,,,,,,,,,,,,,,,,,,,,,,,,,,,,,,,,,,,
,,,,,,,,2023-08-16_08h49.17.386,HF_wild_card,2022.2.4,Win32,60.45949214,602257a4c4c9de32aa966833,64d2fd46c836a06233681665,64dc7f71daf0b543d8b5d497,,,,,,,decisionTrl,resources/DB.BMP,resources/DP.BMP,Door3,0.363888889,-0.112037065,1,0,0,0.548,optionRight,70,13755,6,41,0,41,0,1,,,,,,,,,,,,,,,,,,,,,,,,,,,,,,,,,,,,,,,
,,,,,,,,2023-08-16_08h49.17.386,HF_wild_card,2022.2.4,Win32,60.45949214,602257a4c4c9de32aa966833,64d2fd46c836a06233681665,64dc7f71daf0b543d8b5d497,,,,,,,sngl,resources/DBN.BMP,resources/Empty.png,WildCard_Ex,-0.359259245,-0.050925954,1,0,0,0.4953,optionLeft,95,13850,6,42,0,42,0,1,,,,,,,,,,,,,,,,,,,,,,,,,,,,,,,,,,,,,,,
,,,,,,,,2023-08-16_08h49.17.386,HF_wild_card,2022.2.4,Win32,60.45949214,602257a4c4c9de32aa966833,64d2fd46c836a06233681665,64dc7f71daf0b543d8b5d497,,,,,,,decisionTrl,resources/DB.BMP,resources/DP.BMP,Door3,0.298148176,-0.087962977,1,0,0,0.5807,optionRight,70,13920,6,43,0,43,0,1,,,,,,,,,,,,,,,,,,,,,,,,,,,,,,,,,,,,,,,
,,,,,,,,2023-08-16_08h49.17.386,HF_wild_card,2022.2.4,Win32,60.45949214,602257a4c4c9de32aa966833,64d2fd46c836a06233681665,64dc7f71daf0b543d8b5d497,,,,,,,,,,,,,,,,,,,,,,,,,,5,0,5,0,1,,,,,,,,,,,,,,,,,,,,,,,,,,,,,,,,,,
,,,,,,,,2023-08-16_08h49.17.386,HF_wild_card,2022.2.4,Win32,60.45949214,602257a4c4c9de32aa966833,64d2fd46c836a06233681665,64dc7f71daf0b543d8b5d497,,,,,,,decisionTrl,resources/DY.BMP,resources/DG.BMP,Door2,0.401851908,-0.025,1,0,0,0.7347,optionRight,20,13940,7,0,0,0,0,1,,,,,,,,,,,,,,,,,,,,,,,,,,,,,,,,,,,,,,,
,,,,,,,,2023-08-16_08h49.17.386,HF_wild_card,2022.2.4,Win32,60.45949214,602257a4c4c9de32aa966833,64d2fd46c836a06233681665,64dc7f71daf0b543d8b5d497,,,,,,,decisionTrl,resources/DP.BMP,resources/DB.BMP,Door3,-0.407407379,-0.027777778,1,0,0,1.7483,optionLeft,70,14010,7,1,0,1,0,1,,,,,,,,,,,,,,,,,,,,,,,,,,,,,,,,,,,,,,,
,,,,,,,,2023-08-16_08h49.17.386,HF_wild_card,2022.2.4,Win32,60.45949214,602257a4c4c9de32aa966833,64d2fd46c836a06233681665,64dc7f71daf0b543d8b5d497,,,,,,,ctch,resources/DP.BMP,resources/DG.BMP,Door3,-0.487037023,-0.029629644,1,0,0,0.8161,optionLeft,70,14080,7,2,0,2,0,1,,,,,,,,,,,,,,,,,,,,,,,,,,,,,,,,,,,,,,,
,,,,,,,,2023-08-16_08h49.17.386,HF_wild_card,2022.2.4,Win32,60.45949214,602257a4c4c9de32aa966833,64d2fd46c836a06233681665,64dc7f71daf0b543d8b5d497,,,,,,,decisionTrl,resources/DB.BMP,resources/DP.BMP,Door4,-0.446296268,-0.023148176,1,0,0,0.6817,optionLeft,60,14140,7,3,0,3,0,1,,,,,,,,,,,,,,,,,,,,,,,,,,,,,,,,,,,,,,,
,,,,,,,,2023-08-16_08h49.17.386,HF_wild_card,2022.2.4,Win32,60.45949214,602257a4c4c9de32aa966833,64d2fd46c836a06233681665,64dc7f71daf0b543d8b5d497,,,,,,,ctch,resources/DB.BMP,resources/DY.BMP,Door4,-0.39351849,-0.048148176,1,0,0,0.5976,optionLeft,80,14220,7,4,0,4,0,1,,,,,,,,,,,,,,,,,,,,,,,,,,,,,,,,,,,,,,,
,,,,,,,,2023-08-16_08h49.17.386,HF_wild_card,2022.2.4,Win32,60.45949214,602257a4c4c9de32aa966833,64d2fd46c836a06233681665,64dc7f71daf0b543d8b5d497,,,,,,,decisionTrl,resources/DB.BMP,resources/DP.BMP,Door3,0.335185242,-0.065740755,1,0,0,0.7322,optionRight,70,14290,7,5,0,5,0,1,,,,,,,,,,,,,,,,,,,,,,,,,,,,,,,,,,,,,,,
,,,,,,,,2023-08-16_08h49.17.386,HF_wild_card,2022.2.4,Win32,60.45949214,602257a4c4c9de32aa966833,64d2fd46c836a06233681665,64dc7f71daf0b543d8b5d497,,,,,,,decisionTrl,resources/DG.BMP,resources/DY.BMP,Door1,0.312037065,-0.068518533,1,0,0,1.0651,optionRight,30,14320,7,6,0,6,0,1,,,,,,,,,,,,,,,,,,,,,,,,,,,,,,,,,,,,,,,
,,,,,,,,2023-08-16_08h49.17.386,HF_wild_card,2022.2.4,Win32,60.45949214,602257a4c4c9de32aa966833,64d2fd46c836a06233681665,64dc7f71daf0b543d8b5d497,,,,,,,ctch,resources/DY.BMP,resources/DB.BMP,Door4,0.407407464,-0.057407422,1,0,0,0.8989,optionRight,80,14400,7,7,0,7,0,1,,,,,,,,,,,,,,,,,,,,,,,,,,,,,,,,,,,,,,,
,,,,,,,,2023-08-16_08h49.17.386,HF_wild_card,2022.2.4,Win32,60.45949214,602257a4c4c9de32aa966833,64d2fd46c836a06233681665,64dc7f71daf0b543d8b5d497,,,,,,,decisionTrl,resources/DY.BMP,resources/DG.BMP,Door2,0.291666667,0,1,0,0,0.6984,optionRight,40,14440,7,8,0,8,0,1,,,,,,,,,,,,,,,,,,,,,,,,,,,,,,,,,,,,,,,
,,,,,,,,2023-08-16_08h49.17.386,HF_wild_card,2022.2.4,Win32,60.45949214,602257a4c4c9de32aa966833,64d2fd46c836a06233681665,64dc7f71daf0b543d8b5d497,,,,,,,ctch,resources/DP.BMP,resources/DG.BMP,Door3,-0.346296268,-0.008333333,1,0,0,0.7548,optionLeft,70,14510,7,9,0,9,0,1,,,,,,,,,,,,,,,,,,,,,,,,,,,,,,,,,,,,,,,
,,,,,,,,2023-08-16_08h49.17.386,HF_wild_card,2022.2.4,Win32,60.45949214,602257a4c4c9de32aa966833,64d2fd46c836a06233681665,64dc7f71daf0b543d8b5d497,,,,,,,decisionTrl,resources/DG.BMP,resources/DY.BMP,Door2,-0.485185157,-0.009259288,1,0,0,0.6159,optionLeft,20,14530,7,10,0,10,0,1,,,,,,,,,,,,,,,,,,,,,,,,,,,,,,,,,,,,,,,
,,,,,,,,2023-08-16_08h49.17.386,HF_wild_card,2022.2.4,Win32,60.45949214,602257a4c4c9de32aa966833,64d2fd46c836a06233681665,64dc7f71daf0b543d8b5d497,,,,,,,ctch,resources/DG.BMP,resources/DP.BMP,Door3,0.375,-0.028703732,1,0,0,0.6148,optionRight,70,14600,7,11,0,11,0,1,,,,,,,,,,,,,,,,,,,,,,,,,,,,,,,,,,,,,,,
,,,,,,,,2023-08-16_08h49.17.386,HF_wild_card,2022.2.4,Win32,60.45949214,602257a4c4c9de32aa966833,64d2fd46c836a06233681665,64dc7f71daf0b543d8b5d497,,,,,,,ctch,resources/DB.BMP,resources/DY.BMP,Door1,0.313888889,-0.001851866,1,0,0,0.7986,optionRight,30,14630,7,12,0,12,0,1,,,,,,,,,,,,,,,,,,,,,,,,,,,,,,,,,,,,,,,
,,,,,,,,2023-08-16_08h49.17.386,HF_wild_card,2022.2.4,Win32,60.45949214,602257a4c4c9de32aa966833,64d2fd46c836a06233681665,64dc7f71daf0b543d8b5d497,,,,,,,decisionTrl,resources/DP.BMP,resources/DB.BMP,Door3,-0.475,0.002777778,1,0,0,0.7819,optionLeft,70,14700,7,13,0,13,0,1,,,,,,,,,,,,,,,,,,,,,,,,,,,,,,,,,,,,,,,
,,,,,,,,2023-08-16_08h49.17.386,HF_wild_card,2022.2.4,Win32,60.45949214,602257a4c4c9de32aa966833,64d2fd46c836a06233681665,64dc7f71daf0b543d8b5d497,,,,,,,decisionTrl,resources/DG.BMP,resources/DY.BMP,Door1,0.369444444,-0.05648151,1,0,0,0.9146,optionRight,30,14730,7,14,0,14,0,1,,,,,,,,,,,,,,,,,,,,,,,,,,,,,,,,,,,,,,,
,,,,,,,,2023-08-16_08h49.17.386,HF_wild_card,2022.2.4,Win32,60.45949214,602257a4c4c9de32aa966833,64d2fd46c836a06233681665,64dc7f71daf0b543d8b5d497,,,,,,,decisionTrl,resources/DY.BMP,resources/DG.BMP,Door1,-0.352777778,-0.039814843,1,0,0,0.5314,optionLeft,30,14760,7,15,0,15,0,1,,,,,,,,,,,,,,,,,,,,,,,,,,,,,,,,,,,,,,,
,,,,,,,,2023-08-16_08h49.17.386,HF_wild_card,2022.2.4,Win32,60.45949214,602257a4c4c9de32aa966833,64d2fd46c836a06233681665,64dc7f71daf0b543d8b5d497,,,,,,,decisionTrl,resources/DP.BMP,resources/DB.BMP,Door4,0.409259288,-0.064814843,1,0,0,0.5813,optionRight,60,14820,7,16,0,16,0,1,,,,,,,,,,,,,,,,,,,,,,,,,,,,,,,,,,,,,,,
,,,,,,,,2023-08-16_08h49.17.386,HF_wild_card,2022.2.4,Win32,60.45949214,602257a4c4c9de32aa966833,64d2fd46c836a06233681665,64dc7f71daf0b543d8b5d497,,,,,,,ctch,resources/DP.BMP,resources/DG.BMP,Door3,-0.356481467,-0.003703732,1,0,0,0.5313,optionLeft,70,14890,7,17,0,17,0,1,,,,,,,,,,,,,,,,,,,,,,,,,,,,,,,,,,,,,,,
,,,,,,,,2023-08-16_08h49.17.386,HF_wild_card,2022.2.4,Win32,60.45949214,602257a4c4c9de32aa966833,64d2fd46c836a06233681665,64dc7f71daf0b543d8b5d497,,,,,,,ctch,resources/DB.BMP,resources/DY.BMP,Door4,-0.327777778,0.001851824,1,0,0,0.599,optionLeft,60,14950,7,18,0,18,0,1,,,,,,,,,,,,,,,,,,,,,,,,,,,,,,,,,,,,,,,
,,,,,,,,2023-08-16_08h49.17.386,HF_wild_card,2022.2.4,Win32,60.45949214,602257a4c4c9de32aa966833,64d2fd46c836a06233681665,64dc7f71daf0b543d8b5d497,,,,,,,decisionTrl,resources/DY.BMP,resources/DG.BMP,Door2,0.215740797,-0.04629631,1,0,0,0.6321,optionRight,40,14990,7,19,0,19,0,1,,,,,,,,,,,,,,,,,,,,,,,,,,,,,,,,,,,,,,,
,,,,,,,,2023-08-16_08h49.17.386,HF_wild_card,2022.2.4,Win32,60.45949214,602257a4c4c9de32aa966833,64d2fd46c836a06233681665,64dc7f71daf0b543d8b5d497,,,,,,,ctch,resources/DY.BMP,resources/DB.BMP,Door4,0.285185242,-0.062962977,1,0,0,0.6321,optionRight,80,15070,7,20,0,20,0,1,,,,,,,,,,,,,,,,,,,,,,,,,,,,,,,,,,,,,,,
,,,,,,,,2023-08-16_08h49.17.386,HF_wild_card,2022.2.4,Win32,60.45949214,602257a4c4c9de32aa966833,64d2fd46c836a06233681665,64dc7f71daf0b543d8b5d497,,,,,,,decisionTrl,resources/DP.BMP,resources/DB.BMP,Door3,-0.312962935,-0.038888889,1,0,0,1.5817,optionLeft,70,15140,7,21,0,21,0,1,,,,,,,,,,,,,,,,,,,,,,,,,,,,,,,,,,,,,,,
,,,,,,,,2023-08-16_08h49.17.386,HF_wild_card,2022.2.4,Win32,60.45949214,602257a4c4c9de32aa966833,64d2fd46c836a06233681665,64dc7f71daf0b543d8b5d497,,,,,,,ctch,resources/DY.BMP,resources/DB.BMP,Door4,0.38148151,-0.059259288,1,0,0,0.6822,optionRight,60,15200,7,22,0,22,0,1,,,,,,,,,,,,,,,,,,,,,,,,,,,,,,,,,,,,,,,
,,,,,,,,2023-08-16_08h49.17.386,HF_wild_card,2022.2.4,Win32,60.45949214,602257a4c4c9de32aa966833,64d2fd46c836a06233681665,64dc7f71daf0b543d8b5d497,,,,,,,decisionTrl,resources/DY.BMP,resources/DG.BMP,Door2,0.322222222,-0.022222222,1,0,0,1.0488,optionRight,20,15220,7,23,0,23,0,1,,,,,,,,,,,,,,,,,,,,,,,,,,,,,,,,,,,,,,,
,,,,,,,,2023-08-16_08h49.17.386,HF_wild_card,2022.2.4,Win32,60.45949214,602257a4c4c9de32aa966833,64d2fd46c836a06233681665,64dc7f71daf0b543d8b5d497,,,,,,,decisionTrl,resources/DY.BMP,resources/DG.BMP,Door2,0.237963019,-0.078703732,1,0,0,0.6157,optionRight,20,15240,7,24,0,24,0,1,,,,,,,,,,,,,,,,,,,,,,,,,,,,,,,,,,,,,,,
,,,,,,,,2023-08-16_08h49.17.386,HF_wild_card,2022.2.4,Win32,60.45949214,602257a4c4c9de32aa966833,64d2fd46c836a06233681665,64dc7f71daf0b543d8b5d497,,,,,,,decisionTrl,resources/DG.BMP,resources/DY.BMP,Door1,0.376851908,-0.102777778,1,0,0,1.398,optionRight,30,15270,7,25,0,25,0,1,,,,,,,,,,,,,,,,,,,,,,,,,,,,,,,,,,,,,,,
,,,,,,,,2023-08-16_08h49.17.386,HF_wild_card,2022.2.4,Win32,60.45949214,602257a4c4c9de32aa966833,64d2fd46c836a06233681665,64dc7f71daf0b543d8b5d497,,,,,,,decisionTrl,resources/DG.BMP,resources/DY.BMP,Door1,0.441666667,-0.105555556,1,0,0,0.5659,optionRight,30,15300,7,26,0,26,0,1,,,,,,,,,,,,,,,,,,,,,,,,,,,,,,,,,,,,,,,
,,,,,,,,2023-08-16_08h49.17.386,HF_wild_card,2022.2.4,Win32,60.45949214,602257a4c4c9de32aa966833,64d2fd46c836a06233681665,64dc7f71daf0b543d8b5d497,,,,,,,decisionTrl,resources/DB.BMP,resources/DP.BMP,Door4,-0.389814801,-0.094444444,1,0,0,1.2814,optionLeft,80,15380,7,27,0,27,0,1,,,,,,,,,,,,,,,,,,,,,,,,,,,,,,,,,,,,,,,
,,,,,,,,2023-08-16_08h49.17.386,HF_wild_card,2022.2.4,Win32,60.45949214,602257a4c4c9de32aa966833,64d2fd46c836a06233681665,64dc7f71daf0b543d8b5d497,,,,,,,decisionTrl,resources/DB.BMP,resources/DP.BMP,Door4,-0.408333333,-0.009259288,1,0,0,0.8137,optionLeft,60,15440,7,28,0,28,0,1,,,,,,,,,,,,,,,,,,,,,,,,,,,,,,,,,,,,,,,
,,,,,,,,2023-08-16_08h49.17.386,HF_wild_card,2022.2.4,Win32,60.45949214,602257a4c4c9de32aa966833,64d2fd46c836a06233681665,64dc7f71daf0b543d8b5d497,,,,,,,decisionTrl,resources/DP.BMP,resources/DB.BMP,Door3,-0.221296268,-0.05648151,1,0,0,1.1133,optionLeft,70,15510,7,29,0,29,0,1,,,,,,,,,,,,,,,,,,,,,,,,,,,,,,,,,,,,,,,
,,,,,,,,2023-08-16_08h49.17.386,HF_wild_card,2022.2.4,Win32,60.45949214,602257a4c4c9de32aa966833,64d2fd46c836a06233681665,64dc7f71daf0b543d8b5d497,,,,,,,decisionTrl,resources/DB.BMP,resources/DP.BMP,Door4,-0.352777778,-0.040740755,1,0,0,1.0639,optionLeft,60,15570,7,30,0,30,0,1,,,,,,,,,,,,,,,,,,,,,,,,,,,,,,,,,,,,,,,
,,,,,,,,2023-08-16_08h49.17.386,HF_wild_card,2022.2.4,Win32,60.45949214,602257a4c4c9de32aa966833,64d2fd46c836a06233681665,64dc7f71daf0b543d8b5d497,,,,,,,decisionTrl,resources/DP.BMP,resources/DB.BMP,Door3,-0.36851849,-0.035185199,1,0,0,1.102,optionLeft,70,15640,7,31,0,31,0,1,,,,,,,,,,,,,,,,,,,,,,,,,,,,,,,,,,,,,,,
,,,,,,,,2023-08-16_08h49.17.386,HF_wild_card,2022.2.4,Win32,60.45949214,602257a4c4c9de32aa966833,64d2fd46c836a06233681665,64dc7f71daf0b543d8b5d497,,,,,,,ctch,resources/DG.BMP,resources/DP.BMP,Door3,0.390740797,-0.043518533,1,0,0,0.7636,optionRight,70,15710,7,32,0,32,0,1,,,,,,,,,,,,,,,,,,,,,,,,,,,,,,,,,,,,,,,
,,,,,,,,2023-08-16_08h49.17.386,HF_wild_card,2022.2.4,Win32,60.45949214,602257a4c4c9de32aa966833,64d2fd46c836a06233681665,64dc7f71daf0b543d8b5d497,,,,,,,decisionTrl,resources/DG.BMP,resources/DY.BMP,Door1,0.377777778,-0.039814843,1,0,0,1.5138,optionRight,30,15740,7,33,0,33,0,1,,,,,,,,,,,,,,,,,,,,,,,,,,,,,,,,,,,,,,,
,,,,,,,,2023-08-16_08h49.17.386,HF_wild_card,2022.2.4,Win32,60.45949214,602257a4c4c9de32aa966833,64d2fd46c836a06233681665,64dc7f71daf0b543d8b5d497,,,,,,,ctch,resources/DG.BMP,resources/DP.BMP,Door3,0.418518575,-0.094444444,1,0,0,0.6637,optionRight,70,15810,7,34,0,34,0,1,,,,,,,,,,,,,,,,,,,,,,,,,,,,,,,,,,,,,,,
,,,,,,,,2023-08-16_08h49.17.386,HF_wild_card,2022.2.4,Win32,60.45949214,602257a4c4c9de32aa966833,64d2fd46c836a06233681665,64dc7f71daf0b543d8b5d497,,,,,,,decisionTrl,resources/DB.BMP,resources/DP.BMP,Door3,0.299074131,-0.117592621,1,0,0,0.5813,optionRight,70,15880,7,35,0,35,0,1,,,,,,,,,,,,,,,,,,,,,,,,,,,,,,,,,,,,,,,
,,,,,,,,2023-08-16_08h49.17.386,HF_wild_card,2022.2.4,Win32,60.45949214,602257a4c4c9de32aa966833,64d2fd46c836a06233681665,64dc7f71daf0b543d8b5d497,,,,,,,,,,,,,,,,,,,,,,,,,,6,0,6,0,1,,,,,,,,,,,,,,,,,,,,,,,,,,,,,,,,,,
,,,,,,,,2023-08-16_08h49.17.386,HF_wild_card,2022.2.4,Win32,60.45949214,602257a4c4c9de32aa966833,64d2fd46c836a06233681665,64dc7f71daf0b543d8b5d497,,,,,,,,,,,,,,,,,,,,,,,,,,,,,,,3,,,,,,,,,,,,,,,,,,,,,,,,,,,,,,,,,
,,,,,,,,2023-08-16_08h49.17.386,HF_wild_card,2022.2.4,Win32,60.45949214,602257a4c4c9de32aa966833,64d2fd46c836a06233681665,64dc7f71daf0b543d8b5d497,,,,,,,,,,,,,,,,,,,,,,,,,,,,,,,,,,,,,,,,,,,,,,,,,,,,,,,,,,,,,,,,
,,,,,,,,2023-08-16_08h49.17.386,HF_wild_card,2022.2.4,Win32,60.45949214,602257a4c4c9de32aa966833,64d2fd46c836a06233681665,64dc7f71daf0b543d8b5d497,,,,,,,,,,,,,,,,,,,,,,,,,,,,,,,,95,WC_extreme,resources/DBN.BMP,0,0,0,0,1,,,,,,,,,,,,,,,,,,,,,,,,,
,,,,,,,,2023-08-16_08h49.17.386,HF_wild_card,2022.2.4,Win32,60.45949214,602257a4c4c9de32aa966833,64d2fd46c836a06233681665,64dc7f71daf0b543d8b5d497,,,,,,,,,,,,,,,,,,,,,,,,,,,,,,,,60,Door4,resources/DB.BMP,1,0,1,0,1,,,,,,,,,,,,,,,,,,,,,,,,,
,,,,,,,,2023-08-16_08h49.17.386,HF_wild_card,2022.2.4,Win32,60.45949214,602257a4c4c9de32aa966833,64d2fd46c836a06233681665,64dc7f71daf0b543d8b5d497,,,,,,,,,,,,,,,,,,,,,,,,,,,,,,,,70,Door3,resources/DP.BMP,2,0,2,0,1,,,,,,,,,,,,,,,,,,,,,,,,,
,,,,,,,,2023-08-16_08h49.17.386,HF_wild_card,2022.2.4,Win32,60.45949214,602257a4c4c9de32aa966833,64d2fd46c836a06233681665,64dc7f71daf0b543d8b5d497,,,,,,,,,,,,,,,,,,,,,,,,,,,,,,,,45,WC_nonExtreme,resources/DR.BMP,3,0,3,0,1,,,,,,,,,,,,,,,,,,,,,,,,,
,,,,,,,,2023-08-16_08h49.17.386,HF_wild_card,2022.2.4,Win32,60.45949214,602257a4c4c9de32aa966833,64d2fd46c836a06233681665,64dc7f71daf0b543d8b5d497,,,,,,,,,,,,,,,,,,,,,,,,,,,,,,,,40,Door2,resources/DG.BMP,4,0,4,0,1,,,,,,,,,,,,,,,,,,,,,,,,,
,,,,,,,,2023-08-16_08h49.17.386,HF_wild_card,2022.2.4,Win32,60.45949214,602257a4c4c9de32aa966833,64d2fd46c836a06233681665,64dc7f71daf0b543d8b5d497,,,,,,,,,,,,,,,,,,,,,,,,,,,,,,,,30,Door1,resources/DY.BMP,5,0,5,0,1,,,,,,,,,,,,,,,,,,,,,,,,,
,,,,,,,,2023-08-16_08h49.17.386,HF_wild_card,2022.2.4,Win32,60.45949214,602257a4c4c9de32aa966833,64d2fd46c836a06233681665,64dc7f71daf0b543d8b5d497,,,,,,,,,,,,,,,,,,,,,,,,,,,,,,,,,,,,,,,,,,,,,,,,,,,,,,,,,,,,,,,,
,,,,,,,,2023-08-16_08h49.17.386,HF_wild_card,2022.2.4,Win32,60.45949214,602257a4c4c9de32aa966833,64d2fd46c836a06233681665,64dc7f71daf0b543d8b5d497,,,,,,,,,,,,,,,,,,,,,,,,,,,,,,,,,,,,,,,,0,0,0,0,1,,,,,,,,,,,,,,,,,,,,
