Condition,Low fixed image (Door1),Low risky image (Door2),High fixed image (Door3),High risky image (Door4),NonExtreme Wild Card 1,NonExtreme Wild Card 2,,date,expName,psychopyVersion,OS,frameRate,PROLIFIC_PID,STUDY_ID,SESSION_ID,mouse_2.x,mouse_2.y,mouse_2.leftButton,mouse_2.midButton,mouse_2.rightButton,mouse_2.clicked_name,Trial Type,Left Option Image,Right Option Image,Chosen Door,mouse.x,mouse.y,mouse.leftButton,mouse.midButton,mouse.rightButton,mouse.time,mouse.clicked_name,Feedback,Cumulative Reward,Block,trial.thisRepN,trial.thisTrialN,trial.thisN,trial.thisIndex,trial.ran,blocks.thisRepN,blocks.thisTrialN,blocks.thisN,blocks.thisIndex,blocks.ran,Money conversion,First Outcome Reported,Shown Door (First Outcome),Displayed Image (First Outcome),outcomes.thisRepN,outcomes.thisTrialN,outcomes.thisN,outcomes.thisIndex,outcomes.ran,judgments.thisRepN,judgments.thisTrialN,judgments.thisN,judgments.thisIndex,judgments.ran,freqMouse.x,freqMouse.y,freqMouse.leftButton,freqMouse.midButton,freqMouse.rightButton,freqMouse.clicked_name,FQJ for first outcome,FQJ for second outcome,Shown Door,Displayed Image,trials.thisRepN,trials.thisTrialN,trials.thisN,trials.thisIndex,trials.ran,judgBlock.thisRepN,judgBlock.thisTrialN,judgBlock.thisN,judgBlock.thisIndex,judgBlock.ran
2,resources/DB.BMP,resources/DBN.BMP,resources/DP.BMP,resources/DG.BMP,resources/DY.BMP,resources/DR.BMP,,2023-08-16_08h35.58.797,HF_wild_card,2022.2.4,Win32,59.80145916,5f454fc543b5c9111aaedb33,64d2fd46c836a06233681665,64dc7b390f7d0a27f1e6c0d8,,,,,,,,,,,,,,,,,,,,,,,,,,,,,,,,,,,,,,,,,,,,,,,,,,,,,,,,,,,,,,,,
,,,,,,,,2023-08-16_08h35.58.797,HF_wild_card,2022.2.4,Win32,59.80145916,5f454fc543b5c9111aaedb33,64d2fd46c836a06233681665,64dc7b390f7d0a27f1e6c0d8,0.008888889,-0.413333333,1,0,0,agree,,,,,,,,,,,,,,,,,,,,,,,,,,,,,,,,,,,,,,,,,,,,,,,,,,,,,,,,,,
,,,,,,,,2023-08-16_08h35.58.797,HF_wild_card,2022.2.4,Win32,59.80145916,5f454fc543b5c9111aaedb33,64d2fd46c836a06233681665,64dc7b390f7d0a27f1e6c0d8,,,,,,,,,,,,,,,,,,,,,,,,,,,,,,,,,,,,,,,,,,,,,,,,,,,,,,,,,,,,,,,,
,,,,,,,,2023-08-16_08h35.58.797,HF_wild_card,2022.2.4,Win32,59.80145916,5f454fc543b5c9111aaedb33,64d2fd46c836a06233681665,64dc7b390f7d0a27f1e6c0d8,,,,,,,sngl,resources/Empty.png,resources/DR.BMP,WildCard_NonEx,0.445555556,0.007777778,1,0,0,3.4555,optionRight,45,45,1,0,0,0,0,1,,,,,,,,,,,,,,,,,,,,,,,,,,,,,,,,,,,,,,,
,,,,,,,,2023-08-16_08h35.58.797,HF_wild_card,2022.2.4,Win32,59.80145916,5f454fc543b5c9111aaedb33,64d2fd46c836a06233681665,64dc7b390f7d0a27f1e6c0d8,,,,,,,sngl,resources/DBN.BMP,resources/Empty.png,Door2,-0.325555556,0.054444444,1,0,0,1.1,optionLeft,40,85,1,1,0,1,0,1,,,,,,,,,,,,,,,,,,,,,,,,,,,,,,,,,,,,,,,
,,,,,,,,2023-08-16_08h35.58.797,HF_wild_card,2022.2.4,Win32,59.80145916,5f454fc543b5c9111aaedb33,64d2fd46c836a06233681665,64dc7b390f7d0a27f1e6c0d8,,,,,,,decisionTrl,resources/DG.BMP,resources/DP.BMP,Door3,0.386666667,-0.031111111,1,0,0,1.7511,optionRight,70,155,1,2,0,2,0,1,,,,,,,,,,,,,,,,,,,,,,,,,,,,,,,,,,,,,,,
,,,,,,,,2023-08-16_08h35.58.797,HF_wild_card,2022.2.4,Win32,59.80145916,5f454fc543b5c9111aaedb33,64d2fd46c836a06233681665,64dc7b390f7d0a27f1e6c0d8,,,,,,,sngl,resources/Empty.png,resources/DG.BMP,Door4,0.313333333,0.015555556,1,0,0,1.0662,optionRight,60,215,1,3,0,3,0,1,,,,,,,,,,,,,,,,,,,,,,,,,,,,,,,,,,,,,,,
,,,,,,,,2023-08-16_08h35.58.797,HF_wild_card,2022.2.4,Win32,59.80145916,5f454fc543b5c9111aaedb33,64d2fd46c836a06233681665,64dc7b390f7d0a27f1e6c0d8,,,,,,,ctch,resources/DG.BMP,resources/DB.BMP,Door4,-0.311111111,0.022222222,1,0,0,1.2168,optionLeft,80,295,1,4,0,4,0,1,,,,,,,,,,,,,,,,,,,,,,,,,,,,,,,,,,,,,,,
,,,,,,,,2023-08-16_08h35.58.797,HF_wild_card,2022.2.4,Win32,59.80145916,5f454fc543b5c9111aaedb33,64d2fd46c836a06233681665,64dc7b390f7d0a27f1e6c0d8,,,,,,,ctch,resources/DB.BMP,resources/DG.BMP,Door4,0.327777778,0.007777778,1,0,0,1.1878,optionRight,60,355,1,5,0,5,0,1,,,,,,,,,,,,,,,,,,,,,,,,,,,,,,,,,,,,,,,
,,,,,,,,2023-08-16_08h35.58.797,HF_wild_card,2022.2.4,Win32,59.80145916,5f454fc543b5c9111aaedb33,64d2fd46c836a06233681665,64dc7b390f7d0a27f1e6c0d8,,,,,,,decisionTrl,resources/DG.BMP,resources/DP.BMP,Door4,-0.217777778,-0.004444444,1,0,0,1.4186,optionLeft,60,415,1,6,0,6,0,1,,,,,,,,,,,,,,,,,,,,,,,,,,,,,,,,,,,,,,,
,,,,,,,,2023-08-16_08h35.58.797,HF_wild_card,2022.2.4,Win32,59.80145916,5f454fc543b5c9111aaedb33,64d2fd46c836a06233681665,64dc7b390f7d0a27f1e6c0d8,,,,,,,sngl,resources/DG.BMP,resources/Empty.png,Door4,-0.397777778,0.026666667,1,0,0,0.7493,optionLeft,80,495,1,7,0,7,0,1,,,,,,,,,,,,,,,,,,,,,,,,,,,,,,,,,,,,,,,
,,,,,,,,2023-08-16_08h35.58.797,HF_wild_card,2022.2.4,Win32,59.80145916,5f454fc543b5c9111aaedb33,64d2fd46c836a06233681665,64dc7b390f7d0a27f1e6c0d8,,,,,,,sngl,resources/Empty.png,resources/DR.BMP,WildCard_NonEx,0.332222222,-0.035555556,1,0,0,0.8996,optionRight,55,550,1,8,0,8,0,1,,,,,,,,,,,,,,,,,,,,,,,,,,,,,,,,,,,,,,,
,,,,,,,,2023-08-16_08h35.58.797,HF_wild_card,2022.2.4,Win32,59.80145916,5f454fc543b5c9111aaedb33,64d2fd46c836a06233681665,64dc7b390f7d0a27f1e6c0d8,,,,,,,sngl,resources/DR.BMP,resources/Empty.png,WildCard_NonEx,-0.248888889,0.003333333,1,0,0,0.8494,optionLeft,45,595,1,9,0,9,0,1,,,,,,,,,,,,,,,,,,,,,,,,,,,,,,,,,,,,,,,
,,,,,,,,2023-08-16_08h35.58.797,HF_wild_card,2022.2.4,Win32,59.80145916,5f454fc543b5c9111aaedb33,64d2fd46c836a06233681665,64dc7b390f7d0a27f1e6c0d8,,,,,,,decisionTrl,resources/DG.BMP,resources/DP.BMP,Door3,0.266666667,0.003333333,1,0,0,1.3167,optionRight,70,665,1,10,0,10,0,1,,,,,,,,,,,,,,,,,,,,,,,,,,,,,,,,,,,,,,,
,,,,,,,,2023-08-16_08h35.58.797,HF_wild_card,2022.2.4,Win32,59.80145916,5f454fc543b5c9111aaedb33,64d2fd46c836a06233681665,64dc7b390f7d0a27f1e6c0d8,,,,,,,decisionTrl,resources/DBN.BMP,resources/DB.BMP,Door1,0.437777778,-0.033333333,1,0,0,1.8005,optionRight,30,695,1,11,0,11,0,1,,,,,,,,,,,,,,,,,,,,,,,,,,,,,,,,,,,,,,,
,,,,,,,,2023-08-16_08h35.58.797,HF_wild_card,2022.2.4,Win32,59.80145916,5f454fc543b5c9111aaedb33,64d2fd46c836a06233681665,64dc7b390f7d0a27f1e6c0d8,,,,,,,ctch,resources/DB.BMP,resources/DG.BMP,Door4,0.371111111,0.003333333,1,0,0,2.1666,optionRight,80,775,1,12,0,12,0,1,,,,,,,,,,,,,,,,,,,,,,,,,,,,,,,,,,,,,,,
,,,,,,,,2023-08-16_08h35.58.797,HF_wild_card,2022.2.4,Win32,59.80145916,5f454fc543b5c9111aaedb33,64d2fd46c836a06233681665,64dc7b390f7d0a27f1e6c0d8,,,,,,,decisionTrl,resources/DP.BMP,resources/DG.BMP,Door3,-0.241111111,0.002222222,1,0,0,1.1634,optionLeft,70,845,1,13,0,13,0,1,,,,,,,,,,,,,,,,,,,,,,,,,,,,,,,,,,,,,,,
,,,,,,,,2023-08-16_08h35.58.797,HF_wild_card,2022.2.4,Win32,59.80145916,5f454fc543b5c9111aaedb33,64d2fd46c836a06233681665,64dc7b390f7d0a27f1e6c0d8,,,,,,,sngl,resources/DR.BMP,resources/Empty.png,WildCard_NonEx,-0.288888889,0.007777778,1,0,0,0.9832,optionLeft,55,900,1,14,0,14,0,1,,,,,,,,,,,,,,,,,,,,,,,,,,,,,,,,,,,,,,,
,,,,,,,,2023-08-16_08h35.58.797,HF_wild_card,2022.2.4,Win32,59.80145916,5f454fc543b5c9111aaedb33,64d2fd46c836a06233681665,64dc7b390f7d0a27f1e6c0d8,,,,,,,sngl,resources/Empty.png,resources/DP.BMP,Door3,0.407777778,-0.013333333,1,0,0,0.8665,optionRight,70,970,1,15,0,15,0,1,,,,,,,,,,,,,,,,,,,,,,,,,,,,,,,,,,,,,,,
,,,,,,,,2023-08-16_08h35.58.797,HF_wild_card,2022.2.4,Win32,59.80145916,5f454fc543b5c9111aaedb33,64d2fd46c836a06233681665,64dc7b390f7d0a27f1e6c0d8,,,,,,,sngl,resources/Empty.png,resources/DB.BMP,Door1,0.336666667,0.005555556,1,0,0,0.9127,optionRight,30,1000,1,16,0,16,0,1,,,,,,,,,,,,,,,,,,,,,,,,,,,,,,,,,,,,,,,
,,,,,,,,2023-08-16_08h35.58.797,HF_wild_card,2022.2.4,Win32,59.80145916,5f454fc543b5c9111aaedb33,64d2fd46c836a06233681665,64dc7b390f7d0a27f1e6c0d8,,,,,,,decisionTrl,resources/DP.BMP,resources/DG.BMP,Door4,0.311111111,0.013333333,1,0,0,1.5344,optionRight,80,1080,1,17,0,17,0,1,,,,,,,,,,,,,,,,,,,,,,,,,,,,,,,,,,,,,,,
,,,,,,,,2023-08-16_08h35.58.797,HF_wild_card,2022.2.4,Win32,59.80145916,5f454fc543b5c9111aaedb33,64d2fd46c836a06233681665,64dc7b390f7d0a27f1e6c0d8,,,,,,,decisionTrl,resources/DB.BMP,resources/DBN.BMP,Door2,0.282222222,-0.001111111,1,0,0,1.7181,optionRight,40,1120,1,18,0,18,0,1,,,,,,,,,,,,,,,,,,,,,,,,,,,,,,,,,,,,,,,
,,,,,,,,2023-08-16_08h35.58.797,HF_wild_card,2022.2.4,Win32,59.80145916,5f454fc543b5c9111aaedb33,64d2fd46c836a06233681665,64dc7b390f7d0a27f1e6c0d8,,,,,,,ctch,resources/DBN.BMP,resources/DP.BMP,Door3,0.268888889,0.016666667,1,0,0,0.8822,optionRight,70,1190,1,19,0,19,0,1,,,,,,,,,,,,,,,,,,,,,,,,,,,,,,,,,,,,,,,
,,,,,,,,2023-08-16_08h35.58.797,HF_wild_card,2022.2.4,Win32,59.80145916,5f454fc543b5c9111aaedb33,64d2fd46c836a06233681665,64dc7b390f7d0a27f1e6c0d8,,,,,,,decisionTrl,resources/DP.BMP,resources/DR.BMP,Door3,-0.354444444,0.018888889,1,0,0,0.9293,optionLeft,70,1260,1,20,0,20,0,1,,,,,,,,,,,,,,,,,,,,,,,,,,,,,,,,,,,,,,,
,,,,,,,,2023-08-16_08h35.58.797,HF_wild_card,2022.2.4,Win32,59.80145916,5f454fc543b5c9111aaedb33,64d2fd46c836a06233681665,64dc7b390f7d0a27f1e6c0d8,,,,,,,decisionTrl,resources/DBN.BMP,resources/DB.BMP,Door1,0.277777778,0.005555556,1,0,0,1.155,optionRight,30,1290,1,21,0,21,0,1,,,,,,,,,,,,,,,,,,,,,,,,,,,,,,,,,,,,,,,
,,,,,,,,2023-08-16_08h35.58.797,HF_wild_card,2022.2.4,Win32,59.80145916,5f454fc543b5c9111aaedb33,64d2fd46c836a06233681665,64dc7b390f7d0a27f1e6c0d8,,,,,,,ctch,resources/DP.BMP,resources/DBN.BMP,Door3,-0.172222222,-0.014444444,1,0,0,1.102,optionLeft,70,1360,1,22,0,22,0,1,,,,,,,,,,,,,,,,,,,,,,,,,,,,,,,,,,,,,,,
,,,,,,,,2023-08-16_08h35.58.797,HF_wild_card,2022.2.4,Win32,59.80145916,5f454fc543b5c9111aaedb33,64d2fd46c836a06233681665,64dc7b390f7d0a27f1e6c0d8,,,,,,,decisionTrl,resources/DB.BMP,resources/DBN.BMP,Door1,-0.386666667,0.014444444,1,0,0,0.8624,optionLeft,30,1390,1,23,0,23,0,1,,,,,,,,,,,,,,,,,,,,,,,,,,,,,,,,,,,,,,,
,,,,,,,,2023-08-16_08h35.58.797,HF_wild_card,2022.2.4,Win32,59.80145916,5f454fc543b5c9111aaedb33,64d2fd46c836a06233681665,64dc7b390f7d0a27f1e6c0d8,,,,,,,decisionTrl,resources/DBN.BMP,resources/DB.BMP,Door1,0.296666667,-0.015555556,1,0,0,1.1002,optionRight,30,1420,1,24,0,24,0,1,,,,,,,,,,,,,,,,,,,,,,,,,,,,,,,,,,,,,,,
,,,,,,,,2023-08-16_08h35.58.797,HF_wild_card,2022.2.4,Win32,59.80145916,5f454fc543b5c9111aaedb33,64d2fd46c836a06233681665,64dc7b390f7d0a27f1e6c0d8,,,,,,,decisionTrl,resources/DP.BMP,resources/DG.BMP,Door4,0.261111111,-0.01,1,0,0,1.1504,optionRight,80,1500,1,25,0,25,0,1,,,,,,,,,,,,,,,,,,,,,,,,,,,,,,,,,,,,,,,
,,,,,,,,2023-08-16_08h35.58.797,HF_wild_card,2022.2.4,Win32,59.80145916,5f454fc543b5c9111aaedb33,64d2fd46c836a06233681665,64dc7b390f7d0a27f1e6c0d8,,,,,,,decisionTrl,resources/DR.BMP,resources/DB.BMP,Door1,0.207777778,0.003333333,1,0,0,1.255,optionRight,30,1530,1,26,0,26,0,1,,,,,,,,,,,,,,,,,,,,,,,,,,,,,,,,,,,,,,,
,,,,,,,,2023-08-16_08h35.58.797,HF_wild_card,2022.2.4,Win32,59.80145916,5f454fc543b5c9111aaedb33,64d2fd46c836a06233681665,64dc7b390f7d0a27f1e6c0d8,,,,,,,sngl,resources/Empty.png,resources/DBN.BMP,Door2,0.227777778,0.003333333,1,0,0,0.8834,optionRight,20,1550,1,27,0,27,0,1,,,,,,,,,,,,,,,,,,,,,,,,,,,,,,,,,,,,,,,
,,,,,,,,2023-08-16_08h35.58.797,HF_wild_card,2022.2.4,Win32,59.80145916,5f454fc543b5c9111aaedb33,64d2fd46c836a06233681665,64dc7b390f7d0a27f1e6c0d8,,,,,,,decisionTrl,resources/DG.BMP,resources/DR.BMP,WildCard_NonEx,0.27,-0.016666667,1,0,0,1.4843,optionRight,45,1595,1,28,0,28,0,1,,,,,,,,,,,,,,,,,,,,,,,,,,,,,,,,,,,,,,,
,,,,,,,,2023-08-16_08h35.58.797,HF_wild_card,2022.2.4,Win32,59.80145916,5f454fc543b5c9111aaedb33,64d2fd46c836a06233681665,64dc7b390f7d0a27f1e6c0d8,,,,,,,ctch,resources/DP.BMP,resources/DBN.BMP,Door3,-0.207777778,0.004444444,1,0,0,1.1151,optionLeft,70,1665,1,29,0,29,0,1,,,,,,,,,,,,,,,,,,,,,,,,,,,,,,,,,,,,,,,
,,,,,,,,2023-08-16_08h35.58.797,HF_wild_card,2022.2.4,Win32,59.80145916,5f454fc543b5c9111aaedb33,64d2fd46c836a06233681665,64dc7b390f7d0a27f1e6c0d8,,,,,,,decisionTrl,resources/DR.BMP,resources/DP.BMP,Door3,0.274444444,-0.003333333,1,0,0,0.7998,optionRight,70,1735,1,30,0,30,0,1,,,,,,,,,,,,,,,,,,,,,,,,,,,,,,,,,,,,,,,
,,,,,,,,2023-08-16_08h35.58.797,HF_wild_card,2022.2.4,Win32,59.80145916,5f454fc543b5c9111aaedb33,64d2fd46c836a06233681665,64dc7b390f7d0a27f1e6c0d8,,,,,,,ctch,resources/DBN.BMP,resources/DP.BMP,Door3,0.367777778,-0.027777778,1,0,0,0.7121,optionRight,70,1805,1,31,0,31,0,1,,,,,,,,,,,,,,,,,,,,,,,,,,,,,,,,,,,,,,,
,,,,,,,,2023-08-16_08h35.58.797,HF_wild_card,2022.2.4,Win32,59.80145916,5f454fc543b5c9111aaedb33,64d2fd46c836a06233681665,64dc7b390f7d0a27f1e6c0d8,,,,,,,decisionTrl,resources/DP.BMP,resources/DG.BMP,Door3,-0.267777778,0.012222222,1,0,0,0.6828,optionLeft,70,1875,1,32,0,32,0,1,,,,,,,,,,,,,,,,,,,,,,,,,,,,,,,,,,,,,,,
,,,,,,,,2023-08-16_08h35.58.797,HF_wild_card,2022.2.4,Win32,59.80145916,5f454fc543b5c9111aaedb33,64d2fd46c836a06233681665,64dc7b390f7d0a27f1e6c0d8,,,,,,,decisionTrl,resources/DG.BMP,resources/DP.BMP,Door3,0.313333333,-0.008888889,1,0,0,0.795,optionRight,70,1945,1,33,0,33,0,1,,,,,,,,,,,,,,,,,,,,,,,,,,,,,,,,,,,,,,,
,,,,,,,,2023-08-16_08h35.58.797,HF_wild_card,2022.2.4,Win32,59.80145916,5f454fc543b5c9111aaedb33,64d2fd46c836a06233681665,64dc7b390f7d0a27f1e6c0d8,,,,,,,decisionTrl,resources/DB.BMP,resources/DR.BMP,WildCard_NonEx,0.275555556,-0.004444444,1,0,0,1.1337,optionRight,55,2000,1,34,0,34,0,1,,,,,,,,,,,,,,,,,,,,,,,,,,,,,,,,,,,,,,,
,,,,,,,,2023-08-16_08h35.58.797,HF_wild_card,2022.2.4,Win32,59.80145916,5f454fc543b5c9111aaedb33,64d2fd46c836a06233681665,64dc7b390f7d0a27f1e6c0d8,,,,,,,decisionTrl,resources/DBN.BMP,resources/DR.BMP,WildCard_NonEx,0.43,0.014444444,1,0,0,1.9566,optionRight,55,2055,1,35,0,35,0,1,,,,,,,,,,,,,,,,,,,,,,,,,,,,,,,,,,,,,,,
,,,,,,,,2023-08-16_08h35.58.797,HF_wild_card,2022.2.4,Win32,59.80145916,5f454fc543b5c9111aaedb33,64d2fd46c836a06233681665,64dc7b390f7d0a27f1e6c0d8,,,,,,,decisionTrl,resources/DR.BMP,resources/DBN.BMP,WildCard_NonEx,-0.241111111,0.032222222,1,0,0,2.0277,optionLeft,45,2100,1,36,0,36,0,1,,,,,,,,,,,,,,,,,,,,,,,,,,,,,,,,,,,,,,,
,,,,,,,,2023-08-16_08h35.58.797,HF_wild_card,2022.2.4,Win32,59.80145916,5f454fc543b5c9111aaedb33,64d2fd46c836a06233681665,64dc7b390f7d0a27f1e6c0d8,,,,,,,ctch,resources/DG.BMP,resources/DB.BMP,Door4,-0.292222222,0.013333333,1,0,0,1.5,optionLeft,80,2180,1,37,0,37,0,1,,,,,,,,,,,,,,,,,,,,,,,,,,,,,,,,,,,,,,,
,,,,,,,,2023-08-16_08h35.58.797,HF_wild_card,2022.2.4,Win32,59.80145916,5f454fc543b5c9111aaedb33,64d2fd46c836a06233681665,64dc7b390f7d0a27f1e6c0d8,,,,,,,sngl,resources/DP.BMP,resources/Empty.png,Door3,-0.255555556,0.023333333,1,0,0,1.1162,optionLeft,70,2250,1,38,0,38,0,1,,,,,,,,,,,,,,,,,,,,,,,,,,,,,,,,,,,,,,,
,,,,,,,,2023-08-16_08h35.58.797,HF_wild_card,2022.2.4,Win32,59.80145916,5f454fc543b5c9111aaedb33,64d2fd46c836a06233681665,64dc7b390f7d0a27f1e6c0d8,,,,,,,decisionTrl,resources/DR.BMP,resources/DG.BMP,Door4,0.29,-0.014444444,1,0,0,1.0325,optionRight,80,2330,1,39,0,39,0,1,,,,,,,,,,,,,,,,,,,,,,,,,,,,,,,,,,,,,,,
,,,,,,,,2023-08-16_08h35.58.797,HF_wild_card,2022.2.4,Win32,59.80145916,5f454fc543b5c9111aaedb33,64d2fd46c836a06233681665,64dc7b390f7d0a27f1e6c0d8,,,,,,,decisionTrl,resources/DB.BMP,resources/DBN.BMP,Door1,-0.3,0.028888889,1,0,0,1.3832,optionLeft,30,2360,1,40,0,40,0,1,,,,,,,,,,,,,,,,,,,,,,,,,,,,,,,,,,,,,,,
,,,,,,,,2023-08-16_08h35.58.797,HF_wild_card,2022.2.4,Win32,59.80145916,5f454fc543b5c9111aaedb33,64d2fd46c836a06233681665,64dc7b390f7d0a27f1e6c0d8,,,,,,,sngl,resources/DB.BMP,resources/Empty.png,Door1,-0.26,0.013333333,1,0,0,0.632,optionLeft,30,2390,1,41,0,41,0,1,,,,,,,,,,,,,,,,,,,,,,,,,,,,,,,,,,,,,,,
,,,,,,,,2023-08-16_08h35.58.797,HF_wild_card,2022.2.4,Win32,59.80145916,5f454fc543b5c9111aaedb33,64d2fd46c836a06233681665,64dc7b390f7d0a27f1e6c0d8,,,,,,,decisionTrl,resources/DBN.BMP,resources/DB.BMP,Door1,0.26,0.004444444,1,0,0,0.999,optionRight,30,2420,1,42,0,42,0,1,,,,,,,,,,,,,,,,,,,,,,,,,,,,,,,,,,,,,,,
,,,,,,,,2023-08-16_08h35.58.797,HF_wild_card,2022.2.4,Win32,59.80145916,5f454fc543b5c9111aaedb33,64d2fd46c836a06233681665,64dc7b390f7d0a27f1e6c0d8,,,,,,,decisionTrl,resources/DB.BMP,resources/DBN.BMP,Door2,0.26,0.01,1,0,0,1.0161,optionRight,40,2460,1,43,0,43,0,1,,,,,,,,,,,,,,,,,,,,,,,,,,,,,,,,,,,,,,,
,,,,,,,,2023-08-16_08h35.58.797,HF_wild_card,2022.2.4,Win32,59.80145916,5f454fc543b5c9111aaedb33,64d2fd46c836a06233681665,64dc7b390f7d0a27f1e6c0d8,,,,,,,,,,,,,,,,,,,,,,,,,,0,0,0,0,1,,,,,,,,,,,,,,,,,,,,,,,,,,,,,,,,,,
,,,,,,,,2023-08-16_08h35.58.797,HF_wild_card,2022.2.4,Win32,59.80145916,5f454fc543b5c9111aaedb33,64d2fd46c836a06233681665,64dc7b390f7d0a27f1e6c0d8,,,,,,,ctch,resources/DP.BMP,resources/DBN.BMP,Door3,-0.378888889,-0.074444444,1,0,0,1.0019,optionLeft,70,2530,2,0,0,0,0,1,,,,,,,,,,,,,,,,,,,,,,,,,,,,,,,,,,,,,,,
,,,,,,,,2023-08-16_08h35.58.797,HF_wild_card,2022.2.4,Win32,59.80145916,5f454fc543b5c9111aaedb33,64d2fd46c836a06233681665,64dc7b390f7d0a27f1e6c0d8,,,,,,,sngl,resources/DR.BMP,resources/Empty.png,WildCard_NonEx,-0.283333333,-0.034444444,1,0,0,0.6345,optionLeft,55,2585,2,1,0,1,0,1,,,,,,,,,,,,,,,,,,,,,,,,,,,,,,,,,,,,,,,
,,,,,,,,2023-08-16_08h35.58.797,HF_wild_card,2022.2.4,Win32,59.80145916,5f454fc543b5c9111aaedb33,64d2fd46c836a06233681665,64dc7b390f7d0a27f1e6c0d8,,,,,,,decisionTrl,resources/DBN.BMP,resources/DB.BMP,Door1,0.357777778,-0.014444444,1,0,0,0.7607,optionRight,30,2615,2,2,0,2,0,1,,,,,,,,,,,,,,,,,,,,,,,,,,,,,,,,,,,,,,,
,,,,,,,,2023-08-16_08h35.58.797,HF_wild_card,2022.2.4,Win32,59.80145916,5f454fc543b5c9111aaedb33,64d2fd46c836a06233681665,64dc7b390f7d0a27f1e6c0d8,,,,,,,decisionTrl,resources/DBN.BMP,resources/DB.BMP,Door2,-0.224444444,0.001111111,1,0,0,0.7277,optionLeft,20,2635,2,3,0,3,0,1,,,,,,,,,,,,,,,,,,,,,,,,,,,,,,,,,,,,,,,
,,,,,,,,2023-08-16_08h35.58.797,HF_wild_card,2022.2.4,Win32,59.80145916,5f454fc543b5c9111aaedb33,64d2fd46c836a06233681665,64dc7b390f7d0a27f1e6c0d8,,,,,,,decisionTrl,resources/DG.BMP,resources/DR.BMP,Door4,-0.414444444,0.006666667,1,0,0,1.2328,optionLeft,60,2695,2,4,0,4,0,1,,,,,,,,,,,,,,,,,,,,,,,,,,,,,,,,,,,,,,,
,,,,,,,,2023-08-16_08h35.58.797,HF_wild_card,2022.2.4,Win32,59.80145916,5f454fc543b5c9111aaedb33,64d2fd46c836a06233681665,64dc7b390f7d0a27f1e6c0d8,,,,,,,decisionTrl,resources/DB.BMP,resources/DR.BMP,Door1,-0.272222222,-0.037777778,1,0,0,1.4165,optionLeft,30,2725,2,5,0,5,0,1,,,,,,,,,,,,,,,,,,,,,,,,,,,,,,,,,,,,,,,
,,,,,,,,2023-08-16_08h35.58.797,HF_wild_card,2022.2.4,Win32,59.80145916,5f454fc543b5c9111aaedb33,64d2fd46c836a06233681665,64dc7b390f7d0a27f1e6c0d8,,,,,,,ctch,resources/DB.BMP,resources/DG.BMP,Door4,0.327777778,0.012222222,1,0,0,0.7824,optionRight,80,2805,2,6,0,6,0,1,,,,,,,,,,,,,,,,,,,,,,,,,,,,,,,,,,,,,,,
,,,,,,,,2023-08-16_08h35.58.797,HF_wild_card,2022.2.4,Win32,59.80145916,5f454fc543b5c9111aaedb33,64d2fd46c836a06233681665,64dc7b390f7d0a27f1e6c0d8,,,,,,,decisionTrl,resources/DG.BMP,resources/DP.BMP,Door3,0.236666667,-0.025555556,1,0,0,1.1818,optionRight,70,2875,2,7,0,7,0,1,,,,,,,,,,,,,,,,,,,,,,,,,,,,,,,,,,,,,,,
,,,,,,,,2023-08-16_08h35.58.797,HF_wild_card,2022.2.4,Win32,59.80145916,5f454fc543b5c9111aaedb33,64d2fd46c836a06233681665,64dc7b390f7d0a27f1e6c0d8,,,,,,,decisionTrl,resources/DP.BMP,resources/DG.BMP,Door3,-0.242222222,-0.033333333,1,0,0,0.7033,optionLeft,70,2945,2,8,0,8,0,1,,,,,,,,,,,,,,,,,,,,,,,,,,,,,,,,,,,,,,,
,,,,,,,,2023-08-16_08h35.58.797,HF_wild_card,2022.2.4,Win32,59.80145916,5f454fc543b5c9111aaedb33,64d2fd46c836a06233681665,64dc7b390f7d0a27f1e6c0d8,,,,,,,sngl,resources/Empty.png,resources/DR.BMP,WildCard_NonEx,0.464444444,-0.024444444,1,0,0,0.7485,optionRight,55,3000,2,9,0,9,0,1,,,,,,,,,,,,,,,,,,,,,,,,,,,,,,,,,,,,,,,
,,,,,,,,2023-08-16_08h35.58.797,HF_wild_card,2022.2.4,Win32,59.80145916,5f454fc543b5c9111aaedb33,64d2fd46c836a06233681665,64dc7b390f7d0a27f1e6c0d8,,,,,,,sngl,resources/DG.BMP,resources/Empty.png,Door4,-0.231111111,0.02,1,0,0,0.9817,optionLeft,60,3060,2,10,0,10,0,1,,,,,,,,,,,,,,,,,,,,,,,,,,,,,,,,,,,,,,,
,,,,,,,,2023-08-16_08h35.58.797,HF_wild_card,2022.2.4,Win32,59.80145916,5f454fc543b5c9111aaedb33,64d2fd46c836a06233681665,64dc7b390f7d0a27f1e6c0d8,,,,,,,ctch,resources/DG.BMP,resources/DB.BMP,Door1,0.346666667,-0.028888889,1,0,0,1.0117,optionRight,30,3090,2,11,0,11,0,1,,,,,,,,,,,,,,,,,,,,,,,,,,,,,,,,,,,,,,,
,,,,,,,,2023-08-16_08h35.58.797,HF_wild_card,2022.2.4,Win32,59.80145916,5f454fc543b5c9111aaedb33,64d2fd46c836a06233681665,64dc7b390f7d0a27f1e6c0d8,,,,,,,ctch,resources/DBN.BMP,resources/DP.BMP,Door3,0.302222222,-0.006666667,1,0,0,0.8986,optionRight,70,3160,2,12,0,12,0,1,,,,,,,,,,,,,,,,,,,,,,,,,,,,,,,,,,,,,,,
,,,,,,,,2023-08-16_08h35.58.797,HF_wild_card,2022.2.4,Win32,59.80145916,5f454fc543b5c9111aaedb33,64d2fd46c836a06233681665,64dc7b390f7d0a27f1e6c0d8,,,,,,,sngl,resources/Empty.png,resources/DR.BMP,WildCard_NonEx,0.344444444,-0.012222222,1,0,0,0.632,optionRight,45,3205,2,13,0,13,0,1,,,,,,,,,,,,,,,,,,,,,,,,,,,,,,,,,,,,,,,
,,,,,,,,2023-08-16_08h35.58.797,HF_wild_card,2022.2.4,Win32,59.80145916,5f454fc543b5c9111aaedb33,64d2fd46c836a06233681665,64dc7b390f7d0a27f1e6c0d8,,,,,,,ctch,resources/DB.BMP,resources/DG.BMP,Door1,-0.232222222,-0.005555556,1,0,0,1.6997,optionLeft,30,3235,2,14,0,14,0,1,,,,,,,,,,,,,,,,,,,,,,,,,,,,,,,,,,,,,,,
,,,,,,,,2023-08-16_08h35.58.797,HF_wild_card,2022.2.4,Win32,59.80145916,5f454fc543b5c9111aaedb33,64d2fd46c836a06233681665,64dc7b390f7d0a27f1e6c0d8,,,,,,,sngl,resources/DB.BMP,resources/Empty.png,Door1,-0.256666667,-0.001111111,1,0,0,0.5985,optionLeft,30,3265,2,15,0,15,0,1,,,,,,,,,,,,,,,,,,,,,,,,,,,,,,,,,,,,,,,
,,,,,,,,2023-08-16_08h35.58.797,HF_wild_card,2022.2.4,Win32,59.80145916,5f454fc543b5c9111aaedb33,64d2fd46c836a06233681665,64dc7b390f7d0a27f1e6c0d8,,,,,,,decisionTrl,resources/DP.BMP,resources/DR.BMP,WildCard_NonEx,0.255555556,-0.014444444,1,0,0,1.0988,optionRight,45,3310,2,16,0,16,0,1,,,,,,,,,,,,,,,,,,,,,,,,,,,,,,,,,,,,,,,
,,,,,,,,2023-08-16_08h35.58.797,HF_wild_card,2022.2.4,Win32,59.80145916,5f454fc543b5c9111aaedb33,64d2fd46c836a06233681665,64dc7b390f7d0a27f1e6c0d8,,,,,,,ctch,resources/DP.BMP,resources/DBN.BMP,Door3,-0.304444444,0.006666667,1,0,0,1.1335,optionLeft,70,3380,2,17,0,17,0,1,,,,,,,,,,,,,,,,,,,,,,,,,,,,,,,,,,,,,,,
,,,,,,,,2023-08-16_08h35.58.797,HF_wild_card,2022.2.4,Win32,59.80145916,5f454fc543b5c9111aaedb33,64d2fd46c836a06233681665,64dc7b390f7d0a27f1e6c0d8,,,,,,,decisionTrl,resources/DR.BMP,resources/DB.BMP,WildCard_NonEx,-0.284444444,-0.01,1,0,0,0.9669,optionLeft,45,3425,2,18,0,18,0,1,,,,,,,,,,,,,,,,,,,,,,,,,,,,,,,,,,,,,,,
,,,,,,,,2023-08-16_08h35.58.797,HF_wild_card,2022.2.4,Win32,59.80145916,5f454fc543b5c9111aaedb33,64d2fd46c836a06233681665,64dc7b390f7d0a27f1e6c0d8,,,,,,,sngl,resources/Empty.png,resources/DG.BMP,Door4,0.323333333,-0.027777778,1,0,0,0.5829,optionRight,80,3505,2,19,0,19,0,1,,,,,,,,,,,,,,,,,,,,,,,,,,,,,,,,,,,,,,,
,,,,,,,,2023-08-16_08h35.58.797,HF_wild_card,2022.2.4,Win32,59.80145916,5f454fc543b5c9111aaedb33,64d2fd46c836a06233681665,64dc7b390f7d0a27f1e6c0d8,,,,,,,ctch,resources/DBN.BMP,resources/DP.BMP,Door3,0.275555556,-0.013333333,1,0,0,0.7963,optionRight,70,3575,2,20,0,20,0,1,,,,,,,,,,,,,,,,,,,,,,,,,,,,,,,,,,,,,,,
,,,,,,,,2023-08-16_08h35.58.797,HF_wild_card,2022.2.4,Win32,59.80145916,5f454fc543b5c9111aaedb33,64d2fd46c836a06233681665,64dc7b390f7d0a27f1e6c0d8,,,,,,,decisionTrl,resources/DP.BMP,resources/DG.BMP,Door3,-0.327777778,0.022222222,1,0,0,0.7129,optionLeft,70,3645,2,21,0,21,0,1,,,,,,,,,,,,,,,,,,,,,,,,,,,,,,,,,,,,,,,
,,,,,,,,2023-08-16_08h35.58.797,HF_wild_card,2022.2.4,Win32,59.80145916,5f454fc543b5c9111aaedb33,64d2fd46c836a06233681665,64dc7b390f7d0a27f1e6c0d8,,,,,,,decisionTrl,resources/DBN.BMP,resources/DB.BMP,Door2,-0.136666667,-0.007777778,1,0,0,1.067,optionLeft,40,3685,2,22,0,22,0,1,,,,,,,,,,,,,,,,,,,,,,,,,,,,,,,,,,,,,,,
,,,,,,,,2023-08-16_08h35.58.797,HF_wild_card,2022.2.4,Win32,59.80145916,5f454fc543b5c9111aaedb33,64d2fd46c836a06233681665,64dc7b390f7d0a27f1e6c0d8,,,,,,,sngl,resources/DR.BMP,resources/Empty.png,WildCard_NonEx,-0.203333333,-0.006666667,1,0,0,0.5992,optionLeft,45,3730,2,23,0,23,0,1,,,,,,,,,,,,,,,,,,,,,,,,,,,,,,,,,,,,,,,
,,,,,,,,2023-08-16_08h35.58.797,HF_wild_card,2022.2.4,Win32,59.80145916,5f454fc543b5c9111aaedb33,64d2fd46c836a06233681665,64dc7b390f7d0a27f1e6c0d8,,,,,,,decisionTrl,resources/DG.BMP,resources/DP.BMP,Door3,0.328888889,-0.02,1,0,0,1.0003,optionRight,70,3800,2,24,0,24,0,1,,,,,,,,,,,,,,,,,,,,,,,,,,,,,,,,,,,,,,,
,,,,,,,,2023-08-16_08h35.58.797,HF_wild_card,2022.2.4,Win32,59.80145916,5f454fc543b5c9111aaedb33,64d2fd46c836a06233681665,64dc7b390f7d0a27f1e6c0d8,,,,,,,decisionTrl,resources/DR.BMP,resources/DG.BMP,Door4,0.258888889,-0.005555556,1,0,0,1.3172,optionRight,80,3880,2,25,0,25,0,1,,,,,,,,,,,,,,,,,,,,,,,,,,,,,,,,,,,,,,,
,,,,,,,,2023-08-16_08h35.58.797,HF_wild_card,2022.2.4,Win32,59.80145916,5f454fc543b5c9111aaedb33,64d2fd46c836a06233681665,64dc7b390f7d0a27f1e6c0d8,,,,,,,sngl,resources/Empty.png,resources/DB.BMP,Door1,0.176666667,-0.051111111,1,0,0,0.7497,optionRight,30,3910,2,26,0,26,0,1,,,,,,,,,,,,,,,,,,,,,,,,,,,,,,,,,,,,,,,
,,,,,,,,2023-08-16_08h35.58.797,HF_wild_card,2022.2.4,Win32,59.80145916,5f454fc543b5c9111aaedb33,64d2fd46c836a06233681665,64dc7b390f7d0a27f1e6c0d8,,,,,,,ctch,resources/DG.BMP,resources/DB.BMP,Door4,-0.26,0.014444444,1,0,0,1.4677,optionLeft,80,3990,2,27,0,27,0,1,,,,,,,,,,,,,,,,,,,,,,,,,,,,,,,,,,,,,,,
,,,,,,,,2023-08-16_08h35.58.797,HF_wild_card,2022.2.4,Win32,59.80145916,5f454fc543b5c9111aaedb33,64d2fd46c836a06233681665,64dc7b390f7d0a27f1e6c0d8,,,,,,,decisionTrl,resources/DG.BMP,resources/DP.BMP,Door4,-0.372222222,0.024444444,1,0,0,1.1819,optionLeft,80,4070,2,28,0,28,0,1,,,,,,,,,,,,,,,,,,,,,,,,,,,,,,,,,,,,,,,
,,,,,,,,2023-08-16_08h35.58.797,HF_wild_card,2022.2.4,Win32,59.80145916,5f454fc543b5c9111aaedb33,64d2fd46c836a06233681665,64dc7b390f7d0a27f1e6c0d8,,,,,,,sngl,resources/Empty.png,resources/DBN.BMP,Door2,0.367777778,-0.008888889,1,0,0,0.6163,optionRight,40,4110,2,29,0,29,0,1,,,,,,,,,,,,,,,,,,,,,,,,,,,,,,,,,,,,,,,
,,,,,,,,2023-08-16_08h35.58.797,HF_wild_card,2022.2.4,Win32,59.80145916,5f454fc543b5c9111aaedb33,64d2fd46c836a06233681665,64dc7b390f7d0a27f1e6c0d8,,,,,,,decisionTrl,resources/DBN.BMP,resources/DB.BMP,Door1,0.371111111,0.042222222,1,0,0,1.0299,optionRight,30,4140,2,30,0,30,0,1,,,,,,,,,,,,,,,,,,,,,,,,,,,,,,,,,,,,,,,
,,,,,,,,2023-08-16_08h35.58.797,HF_wild_card,2022.2.4,Win32,59.80145916,5f454fc543b5c9111aaedb33,64d2fd46c836a06233681665,64dc7b390f7d0a27f1e6c0d8,,,,,,,decisionTrl,resources/DG.BMP,resources/DP.BMP,Door3,0.314444444,0.011111111,1,0,0,0.9715,optionRight,70,4210,2,31,0,31,0,1,,,,,,,,,,,,,,,,,,,,,,,,,,,,,,,,,,,,,,,
,,,,,,,,2023-08-16_08h35.58.797,HF_wild_card,2022.2.4,Win32,59.80145916,5f454fc543b5c9111aaedb33,64d2fd46c836a06233681665,64dc7b390f7d0a27f1e6c0d8,,,,,,,decisionTrl,resources/DP.BMP,resources/DG.BMP,Door3,-0.138888889,0.007777778,1,0,0,0.6497,optionLeft,70,4280,2,32,0,32,0,1,,,,,,,,,,,,,,,,,,,,,,,,,,,,,,,,,,,,,,,
,,,,,,,,2023-08-16_08h35.58.797,HF_wild_card,2022.2.4,Win32,59.80145916,5f454fc543b5c9111aaedb33,64d2fd46c836a06233681665,64dc7b390f7d0a27f1e6c0d8,,,,,,,decisionTrl,resources/DB.BMP,resources/DBN.BMP,Door1,-0.203333333,0.01,1,0,0,1.1134,optionLeft,30,4310,2,33,0,33,0,1,,,,,,,,,,,,,,,,,,,,,,,,,,,,,,,,,,,,,,,
,,,,,,,,2023-08-16_08h35.58.797,HF_wild_card,2022.2.4,Win32,59.80145916,5f454fc543b5c9111aaedb33,64d2fd46c836a06233681665,64dc7b390f7d0a27f1e6c0d8,,,,,,,decisionTrl,resources/DB.BMP,resources/DBN.BMP,Door1,-0.3,0.017777778,1,0,0,1.2317,optionLeft,30,4340,2,34,0,34,0,1,,,,,,,,,,,,,,,,,,,,,,,,,,,,,,,,,,,,,,,
,,,,,,,,2023-08-16_08h35.58.797,HF_wild_card,2022.2.4,Win32,59.80145916,5f454fc543b5c9111aaedb33,64d2fd46c836a06233681665,64dc7b390f7d0a27f1e6c0d8,,,,,,,decisionTrl,resources/DP.BMP,resources/DG.BMP,Door3,-0.14,0.018888889,1,0,0,0.9332,optionLeft,70,4410,2,35,0,35,0,1,,,,,,,,,,,,,,,,,,,,,,,,,,,,,,,,,,,,,,,
,,,,,,,,2023-08-16_08h35.58.797,HF_wild_card,2022.2.4,Win32,59.80145916,5f454fc543b5c9111aaedb33,64d2fd46c836a06233681665,64dc7b390f7d0a27f1e6c0d8,,,,,,,decisionTrl,resources/DR.BMP,resources/DBN.BMP,WildCard_NonEx,-0.178888889,0.013333333,1,0,0,0.9334,optionLeft,45,4455,2,36,0,36,0,1,,,,,,,,,,,,,,,,,,,,,,,,,,,,,,,,,,,,,,,
,,,,,,,,2023-08-16_08h35.58.797,HF_wild_card,2022.2.4,Win32,59.80145916,5f454fc543b5c9111aaedb33,64d2fd46c836a06233681665,64dc7b390f7d0a27f1e6c0d8,,,,,,,sngl,resources/DBN.BMP,resources/Empty.png,Door2,-0.288888889,0.05,1,0,0,0.6319,optionLeft,20,4475,2,37,0,37,0,1,,,,,,,,,,,,,,,,,,,,,,,,,,,,,,,,,,,,,,,
,,,,,,,,2023-08-16_08h35.58.797,HF_wild_card,2022.2.4,Win32,59.80145916,5f454fc543b5c9111aaedb33,64d2fd46c836a06233681665,64dc7b390f7d0a27f1e6c0d8,,,,,,,sngl,resources/DP.BMP,resources/Empty.png,Door3,-0.213333333,0.036666667,1,0,0,0.499,optionLeft,70,4545,2,38,0,38,0,1,,,,,,,,,,,,,,,,,,,,,,,,,,,,,,,,,,,,,,,
,,,,,,,,2023-08-16_08h35.58.797,HF_wild_card,2022.2.4,Win32,59.80145916,5f454fc543b5c9111aaedb33,64d2fd46c836a06233681665,64dc7b390f7d0a27f1e6c0d8,,,,,,,decisionTrl,resources/DR.BMP,resources/DP.BMP,Door3,0.326666667,0.037777778,1,0,0,0.6643,optionRight,70,4615,2,39,0,39,0,1,,,,,,,,,,,,,,,,,,,,,,,,,,,,,,,,,,,,,,,
,,,,,,,,2023-08-16_08h35.58.797,HF_wild_card,2022.2.4,Win32,59.80145916,5f454fc543b5c9111aaedb33,64d2fd46c836a06233681665,64dc7b390f7d0a27f1e6c0d8,,,,,,,decisionTrl,resources/DBN.BMP,resources/DR.BMP,WildCard_NonEx,0.25,0.032222222,1,0,0,0.8652,optionRight,45,4660,2,40,0,40,0,1,,,,,,,,,,,,,,,,,,,,,,,,,,,,,,,,,,,,,,,
,,,,,,,,2023-08-16_08h35.58.797,HF_wild_card,2022.2.4,Win32,59.80145916,5f454fc543b5c9111aaedb33,64d2fd46c836a06233681665,64dc7b390f7d0a27f1e6c0d8,,,,,,,decisionTrl,resources/DB.BMP,resources/DBN.BMP,Door1,-0.203333333,0.006666667,1,0,0,1.0827,optionLeft,30,4690,2,41,0,41,0,1,,,,,,,,,,,,,,,,,,,,,,,,,,,,,,,,,,,,,,,
,,,,,,,,2023-08-16_08h35.58.797,HF_wild_card,2022.2.4,Win32,59.80145916,5f454fc543b5c9111aaedb33,64d2fd46c836a06233681665,64dc7b390f7d0a27f1e6c0d8,,,,,,,sngl,resources/Empty.png,resources/DP.BMP,Door3,0.335555556,0.024444444,1,0,0,0.4818,optionRight,70,4760,2,42,0,42,0,1,,,,,,,,,,,,,,,,,,,,,,,,,,,,,,,,,,,,,,,
,,,,,,,,2023-08-16_08h35.58.797,HF_wild_card,2022.2.4,Win32,59.80145916,5f454fc543b5c9111aaedb33,64d2fd46c836a06233681665,64dc7b390f7d0a27f1e6c0d8,,,,,,,decisionTrl,resources/DB.BMP,resources/DBN.BMP,Door1,-0.184444444,0.031111111,1,0,0,0.8466,optionLeft,30,4790,2,43,0,43,0,1,,,,,,,,,,,,,,,,,,,,,,,,,,,,,,,,,,,,,,,
,,,,,,,,2023-08-16_08h35.58.797,HF_wild_card,2022.2.4,Win32,59.80145916,5f454fc543b5c9111aaedb33,64d2fd46c836a06233681665,64dc7b390f7d0a27f1e6c0d8,,,,,,,,,,,,,,,,,,,,,,,,,,1,0,1,0,1,,,,,,,,,,,,,,,,,,,,,,,,,,,,,,,,,,
,,,,,,,,2023-08-16_08h35.58.797,HF_wild_card,2022.2.4,Win32,59.80145916,5f454fc543b5c9111aaedb33,64d2fd46c836a06233681665,64dc7b390f7d0a27f1e6c0d8,,,,,,,decisionTrl,resources/DG.BMP,resources/DP.BMP,Door3,0.394444444,-0.034444444,1,0,0,1.3501,optionRight,70,4860,3,0,0,0,0,1,,,,,,,,,,,,,,,,,,,,,,,,,,,,,,,,,,,,,,,
,,,,,,,,2023-08-16_08h35.58.797,HF_wild_card,2022.2.4,Win32,59.80145916,5f454fc543b5c9111aaedb33,64d2fd46c836a06233681665,64dc7b390f7d0a27f1e6c0d8,,,,,,,sngl,resources/Empty.png,resources/DG.BMP,Door4,0.393333333,0.022222222,1,0,0,0.5945,optionRight,60,4920,3,1,0,1,0,1,,,,,,,,,,,,,,,,,,,,,,,,,,,,,,,,,,,,,,,
,,,,,,,,2023-08-16_08h35.58.797,HF_wild_card,2022.2.4,Win32,59.80145916,5f454fc543b5c9111aaedb33,64d2fd46c836a06233681665,64dc7b390f7d0a27f1e6c0d8,,,,,,,decisionTrl,resources/DBN.BMP,resources/DB.BMP,Door1,0.341111111,0.002222222,1,0,0,0.9992,optionRight,30,4950,3,2,0,2,0,1,,,,,,,,,,,,,,,,,,,,,,,,,,,,,,,,,,,,,,,
,,,,,,,,2023-08-16_08h35.58.797,HF_wild_card,2022.2.4,Win32,59.80145916,5f454fc543b5c9111aaedb33,64d2fd46c836a06233681665,64dc7b390f7d0a27f1e6c0d8,,,,,,,ctch,resources/DB.BMP,resources/DG.BMP,Door1,-0.188888889,0.014444444,1,0,0,0.5771,optionLeft,30,4980,3,3,0,3,0,1,,,,,,,,,,,,,,,,,,,,,,,,,,,,,,,,,,,,,,,
,,,,,,,,2023-08-16_08h35.58.797,HF_wild_card,2022.2.4,Win32,59.80145916,5f454fc543b5c9111aaedb33,64d2fd46c836a06233681665,64dc7b390f7d0a27f1e6c0d8,,,,,,,sngl,resources/DP.BMP,resources/Empty.png,Door3,-0.21,0.023333333,1,0,0,0.5818,optionLeft,70,5050,3,4,0,4,0,1,,,,,,,,,,,,,,,,,,,,,,,,,,,,,,,,,,,,,,,
,,,,,,,,2023-08-16_08h35.58.797,HF_wild_card,2022.2.4,Win32,59.80145916,5f454fc543b5c9111aaedb33,64d2fd46c836a06233681665,64dc7b390f7d0a27f1e6c0d8,,,,,,,decisionTrl,resources/DP.BMP,resources/DR.BMP,Door3,-0.268888889,0.023333333,1,0,0,0.5654,optionLeft,70,5120,3,5,0,5,0,1,,,,,,,,,,,,,,,,,,,,,,,,,,,,,,,,,,,,,,,
,,,,,,,,2023-08-16_08h35.58.797,HF_wild_card,2022.2.4,Win32,59.80145916,5f454fc543b5c9111aaedb33,64d2fd46c836a06233681665,64dc7b390f7d0a27f1e6c0d8,,,,,,,sngl,resources/Empty.png,resources/DR.BMP,WildCard_NonEx,0.338888889,0.006666667,1,0,0,0.5108,optionRight,55,5175,3,6,0,6,0,1,,,,,,,,,,,,,,,,,,,,,,,,,,,,,,,,,,,,,,,
,,,,,,,,2023-08-16_08h35.58.797,HF_wild_card,2022.2.4,Win32,59.80145916,5f454fc543b5c9111aaedb33,64d2fd46c836a06233681665,64dc7b390f7d0a27f1e6c0d8,,,,,,,sngl,resources/DB.BMP,resources/Empty.png,Door1,-0.212222222,0.023333333,1,0,0,0.5611,optionLeft,30,5205,3,7,0,7,0,1,,,,,,,,,,,,,,,,,,,,,,,,,,,,,,,,,,,,,,,
,,,,,,,,2023-08-16_08h35.58.797,HF_wild_card,2022.2.4,Win32,59.80145916,5f454fc543b5c9111aaedb33,64d2fd46c836a06233681665,64dc7b390f7d0a27f1e6c0d8,,,,,,,sngl,resources/Empty.png,resources/DP.BMP,Door3,0.421111111,0.018888889,1,0,0,0.4693,optionRight,70,5275,3,8,0,8,0,1,,,,,,,,,,,,,,,,,,,,,,,,,,,,,,,,,,,,,,,
,,,,,,,,2023-08-16_08h35.58.797,HF_wild_card,2022.2.4,Win32,59.80145916,5f454fc543b5c9111aaedb33,64d2fd46c836a06233681665,64dc7b390f7d0a27f1e6c0d8,,,,,,,decisionTrl,resources/DB.BMP,resources/DBN.BMP,Door2,0.356666667,0.02,1,0,0,1.1824,optionRight,40,5315,3,9,0,9,0,1,,,,,,,,,,,,,,,,,,,,,,,,,,,,,,,,,,,,,,,
,,,,,,,,2023-08-16_08h35.58.797,HF_wild_card,2022.2.4,Win32,59.80145916,5f454fc543b5c9111aaedb33,64d2fd46c836a06233681665,64dc7b390f7d0a27f1e6c0d8,,,,,,,decisionTrl,resources/DBN.BMP,resources/DR.BMP,Door2,-0.134444444,0.023333333,1,0,0,0.6811,optionLeft,40,5355,3,10,0,10,0,1,,,,,,,,,,,,,,,,,,,,,,,,,,,,,,,,,,,,,,,
,,,,,,,,2023-08-16_08h35.58.797,HF_wild_card,2022.2.4,Win32,59.80145916,5f454fc543b5c9111aaedb33,64d2fd46c836a06233681665,64dc7b390f7d0a27f1e6c0d8,,,,,,,decisionTrl,resources/DBN.BMP,resources/DB.BMP,Door2,-0.13,0.008888889,1,0,0,0.6495,optionLeft,40,5395,3,11,0,11,0,1,,,,,,,,,,,,,,,,,,,,,,,,,,,,,,,,,,,,,,,
,,,,,,,,2023-08-16_08h35.58.797,HF_wild_card,2022.2.4,Win32,59.80145916,5f454fc543b5c9111aaedb33,64d2fd46c836a06233681665,64dc7b390f7d0a27f1e6c0d8,,,,,,,decisionTrl,resources/DP.BMP,resources/DG.BMP,Door3,-0.203333333,-0.002222222,1,0,0,0.6986,optionLeft,70,5465,3,12,0,12,0,1,,,,,,,,,,,,,,,,,,,,,,,,,,,,,,,,,,,,,,,
,,,,,,,,2023-08-16_08h35.58.797,HF_wild_card,2022.2.4,Win32,59.80145916,5f454fc543b5c9111aaedb33,64d2fd46c836a06233681665,64dc7b390f7d0a27f1e6c0d8,,,,,,,ctch,resources/DBN.BMP,resources/DP.BMP,Door3,0.413333333,-0.002222222,1,0,0,0.7489,optionRight,70,5535,3,13,0,13,0,1,,,,,,,,,,,,,,,,,,,,,,,,,,,,,,,,,,,,,,,
,,,,,,,,2023-08-16_08h35.58.797,HF_wild_card,2022.2.4,Win32,59.80145916,5f454fc543b5c9111aaedb33,64d2fd46c836a06233681665,64dc7b390f7d0a27f1e6c0d8,,,,,,,decisionTrl,resources/DP.BMP,resources/DG.BMP,Door3,-0.227777778,-0.002222222,1,0,0,0.9111,optionLeft,70,5605,3,14,0,14,0,1,,,,,,,,,,,,,,,,,,,,,,,,,,,,,,,,,,,,,,,
,,,,,,,,2023-08-16_08h35.58.797,HF_wild_card,2022.2.4,Win32,59.80145916,5f454fc543b5c9111aaedb33,64d2fd46c836a06233681665,64dc7b390f7d0a27f1e6c0d8,,,,,,,decisionTrl,resources/DP.BMP,resources/DG.BMP,Door3,-0.303333333,0.027777778,1,0,0,1.1305,optionLeft,70,5675,3,15,0,15,0,1,,,,,,,,,,,,,,,,,,,,,,,,,,,,,,,,,,,,,,,
,,,,,,,,2023-08-16_08h35.58.797,HF_wild_card,2022.2.4,Win32,59.80145916,5f454fc543b5c9111aaedb33,64d2fd46c836a06233681665,64dc7b390f7d0a27f1e6c0d8,,,,,,,decisionTrl,resources/DB.BMP,resources/DR.BMP,WildCard_NonEx,0.338888889,0.013333333,1,0,0,0.8506,optionRight,55,5730,3,16,0,16,0,1,,,,,,,,,,,,,,,,,,,,,,,,,,,,,,,,,,,,,,,
,,,,,,,,2023-08-16_08h35.58.797,HF_wild_card,2022.2.4,Win32,59.80145916,5f454fc543b5c9111aaedb33,64d2fd46c836a06233681665,64dc7b390f7d0a27f1e6c0d8,,,,,,,decisionTrl,resources/DG.BMP,resources/DR.BMP,Door4,-0.245555556,0.02,1,0,0,1.1845,optionLeft,80,5810,3,17,0,17,0,1,,,,,,,,,,,,,,,,,,,,,,,,,,,,,,,,,,,,,,,
,,,,,,,,2023-08-16_08h35.58.797,HF_wild_card,2022.2.4,Win32,59.80145916,5f454fc543b5c9111aaedb33,64d2fd46c836a06233681665,64dc7b390f7d0a27f1e6c0d8,,,,,,,decisionTrl,resources/DBN.BMP,resources/DB.BMP,Door2,-0.171111111,0.017777778,1,0,0,1.3856,optionLeft,40,5850,3,18,0,18,0,1,,,,,,,,,,,,,,,,,,,,,,,,,,,,,,,,,,,,,,,
,,,,,,,,2023-08-16_08h35.58.797,HF_wild_card,2022.2.4,Win32,59.80145916,5f454fc543b5c9111aaedb33,64d2fd46c836a06233681665,64dc7b390f7d0a27f1e6c0d8,,,,,,,decisionTrl,resources/DR.BMP,resources/DP.BMP,Door3,0.286666667,0.005555556,1,0,0,0.8823,optionRight,70,5920,3,19,0,19,0,1,,,,,,,,,,,,,,,,,,,,,,,,,,,,,,,,,,,,,,,
,,,,,,,,2023-08-16_08h35.58.797,HF_wild_card,2022.2.4,Win32,59.80145916,5f454fc543b5c9111aaedb33,64d2fd46c836a06233681665,64dc7b390f7d0a27f1e6c0d8,,,,,,,decisionTrl,resources/DB.BMP,resources/DBN.BMP,Door1,-0.238888889,0.002222222,1,0,0,0.9826,optionLeft,30,5950,3,20,0,20,0,1,,,,,,,,,,,,,,,,,,,,,,,,,,,,,,,,,,,,,,,
,,,,,,,,2023-08-16_08h35.58.797,HF_wild_card,2022.2.4,Win32,59.80145916,5f454fc543b5c9111aaedb33,64d2fd46c836a06233681665,64dc7b390f7d0a27f1e6c0d8,,,,,,,sngl,resources/Empty.png,resources/DBN.BMP,Door2,0.297777778,-0.013333333,1,0,0,0.5316,optionRight,20,5970,3,21,0,21,0,1,,,,,,,,,,,,,,,,,,,,,,,,,,,,,,,,,,,,,,,
,,,,,,,,2023-08-16_08h35.58.797,HF_wild_card,2022.2.4,Win32,59.80145916,5f454fc543b5c9111aaedb33,64d2fd46c836a06233681665,64dc7b390f7d0a27f1e6c0d8,,,,,,,decisionTrl,resources/DG.BMP,resources/DP.BMP,Door3,0.323333333,-0.001111111,1,0,0,0.728,optionRight,70,6040,3,22,0,22,0,1,,,,,,,,,,,,,,,,,,,,,,,,,,,,,,,,,,,,,,,
,,,,,,,,2023-08-16_08h35.58.797,HF_wild_card,2022.2.4,Win32,59.80145916,5f454fc543b5c9111aaedb33,64d2fd46c836a06233681665,64dc7b390f7d0a27f1e6c0d8,,,,,,,sngl,resources/Empty.png,resources/DR.BMP,WildCard_NonEx,0.345555556,0,1,0,0,0.5484,optionRight,45,6085,3,23,0,23,0,1,,,,,,,,,,,,,,,,,,,,,,,,,,,,,,,,,,,,,,,
,,,,,,,,2023-08-16_08h35.58.797,HF_wild_card,2022.2.4,Win32,59.80145916,5f454fc543b5c9111aaedb33,64d2fd46c836a06233681665,64dc7b390f7d0a27f1e6c0d8,,,,,,,decisionTrl,resources/DR.BMP,resources/DG.BMP,Door4,0.44,-0.002222222,1,0,0,0.8993,optionRight,60,6145,3,24,0,24,0,1,,,,,,,,,,,,,,,,,,,,,,,,,,,,,,,,,,,,,,,
,,,,,,,,2023-08-16_08h35.58.797,HF_wild_card,2022.2.4,Win32,59.80145916,5f454fc543b5c9111aaedb33,64d2fd46c836a06233681665,64dc7b390f7d0a27f1e6c0d8,,,,,,,ctch,resources/DBN.BMP,resources/DP.BMP,Door3,0.302222222,0.004444444,1,0,0,1.0284,optionRight,70,6215,3,25,0,25,0,1,,,,,,,,,,,,,,,,,,,,,,,,,,,,,,,,,,,,,,,
,,,,,,,,2023-08-16_08h35.58.797,HF_wild_card,2022.2.4,Win32,59.80145916,5f454fc543b5c9111aaedb33,64d2fd46c836a06233681665,64dc7b390f7d0a27f1e6c0d8,,,,,,,decisionTrl,resources/DR.BMP,resources/DBN.BMP,WildCard_NonEx,-0.168888889,0.004444444,1,0,0,1.1043,optionLeft,45,6260,3,26,0,26,0,1,,,,,,,,,,,,,,,,,,,,,,,,,,,,,,,,,,,,,,,
,,,,,,,,2023-08-16_08h35.58.797,HF_wild_card,2022.2.4,Win32,59.80145916,5f454fc543b5c9111aaedb33,64d2fd46c836a06233681665,64dc7b390f7d0a27f1e6c0d8,,,,,,,decisionTrl,resources/DG.BMP,resources/DP.BMP,Door3,0.458888889,-0.053333333,1,0,0,0.7,optionRight,70,6330,3,27,0,27,0,1,,,,,,,,,,,,,,,,,,,,,,,,,,,,,,,,,,,,,,,
,,,,,,,,2023-08-16_08h35.58.797,HF_wild_card,2022.2.4,Win32,59.80145916,5f454fc543b5c9111aaedb33,64d2fd46c836a06233681665,64dc7b390f7d0a27f1e6c0d8,,,,,,,decisionTrl,resources/DG.BMP,resources/DP.BMP,Door3,0.487777778,-0.011111111,1,0,0,0.5315,optionRight,70,6400,3,28,0,28,0,1,,,,,,,,,,,,,,,,,,,,,,,,,,,,,,,,,,,,,,,
,,,,,,,,2023-08-16_08h35.58.797,HF_wild_card,2022.2.4,Win32,59.80145916,5f454fc543b5c9111aaedb33,64d2fd46c836a06233681665,64dc7b390f7d0a27f1e6c0d8,,,,,,,sngl,resources/DBN.BMP,resources/Empty.png,Door2,-0.205555556,0.014444444,1,0,0,0.5148,optionLeft,40,6440,3,29,0,29,0,1,,,,,,,,,,,,,,,,,,,,,,,,,,,,,,,,,,,,,,,
,,,,,,,,2023-08-16_08h35.58.797,HF_wild_card,2022.2.4,Win32,59.80145916,5f454fc543b5c9111aaedb33,64d2fd46c836a06233681665,64dc7b390f7d0a27f1e6c0d8,,,,,,,decisionTrl,resources/DP.BMP,resources/DG.BMP,Door3,-0.178888889,0,1,0,0,0.8156,optionLeft,70,6510,3,30,0,30,0,1,,,,,,,,,,,,,,,,,,,,,,,,,,,,,,,,,,,,,,,
,,,,,,,,2023-08-16_08h35.58.797,HF_wild_card,2022.2.4,Win32,59.80145916,5f454fc543b5c9111aaedb33,64d2fd46c836a06233681665,64dc7b390f7d0a27f1e6c0d8,,,,,,,sngl,resources/DR.BMP,resources/Empty.png,WildCard_NonEx,-0.248888889,0.037777778,1,0,0,0.5099,optionLeft,45,6555,3,31,0,31,0,1,,,,,,,,,,,,,,,,,,,,,,,,,,,,,,,,,,,,,,,
,,,,,,,,2023-08-16_08h35.58.797,HF_wild_card,2022.2.4,Win32,59.80145916,5f454fc543b5c9111aaedb33,64d2fd46c836a06233681665,64dc7b390f7d0a27f1e6c0d8,,,,,,,decisionTrl,resources/DB.BMP,resources/DBN.BMP,Door2,0.286666667,0.002222222,1,0,0,1.1326,optionRight,20,6575,3,32,0,32,0,1,,,,,,,,,,,,,,,,,,,,,,,,,,,,,,,,,,,,,,,
,,,,,,,,2023-08-16_08h35.58.797,HF_wild_card,2022.2.4,Win32,59.80145916,5f454fc543b5c9111aaedb33,64d2fd46c836a06233681665,64dc7b390f7d0a27f1e6c0d8,,,,,,,sngl,resources/DG.BMP,resources/Empty.png,Door4,-0.265555556,0.015555556,1,0,0,0.9492,optionLeft,80,6655,3,33,0,33,0,1,,,,,,,,,,,,,,,,,,,,,,,,,,,,,,,,,,,,,,,
,,,,,,,,2023-08-16_08h35.58.797,HF_wild_card,2022.2.4,Win32,59.80145916,5f454fc543b5c9111aaedb33,64d2fd46c836a06233681665,64dc7b390f7d0a27f1e6c0d8,,,,,,,ctch,resources/DG.BMP,resources/DB.BMP,Door4,-0.348888889,0.018888889,1,0,0,1.133,optionLeft,80,6735,3,34,0,34,0,1,,,,,,,,,,,,,,,,,,,,,,,,,,,,,,,,,,,,,,,
,,,,,,,,2023-08-16_08h35.58.797,HF_wild_card,2022.2.4,Win32,59.80145916,5f454fc543b5c9111aaedb33,64d2fd46c836a06233681665,64dc7b390f7d0a27f1e6c0d8,,,,,,,ctch,resources/DB.BMP,resources/DG.BMP,Door4,0.285555556,-0.007777778,1,0,0,0.9826,optionRight,80,6815,3,35,0,35,0,1,,,,,,,,,,,,,,,,,,,,,,,,,,,,,,,,,,,,,,,
,,,,,,,,2023-08-16_08h35.58.797,HF_wild_card,2022.2.4,Win32,59.80145916,5f454fc543b5c9111aaedb33,64d2fd46c836a06233681665,64dc7b390f7d0a27f1e6c0d8,,,,,,,ctch,resources/DP.BMP,resources/DBN.BMP,Door3,-0.232222222,0.005555556,1,0,0,1.25,optionLeft,70,6885,3,36,0,36,0,1,,,,,,,,,,,,,,,,,,,,,,,,,,,,,,,,,,,,,,,
,,,,,,,,2023-08-16_08h35.58.797,HF_wild_card,2022.2.4,Win32,59.80145916,5f454fc543b5c9111aaedb33,64d2fd46c836a06233681665,64dc7b390f7d0a27f1e6c0d8,,,,,,,ctch,resources/DG.BMP,resources/DB.BMP,Door4,-0.217777778,0.004444444,1,0,0,1.1656,optionLeft,80,6965,3,37,0,37,0,1,,,,,,,,,,,,,,,,,,,,,,,,,,,,,,,,,,,,,,,
,,,,,,,,2023-08-16_08h35.58.797,HF_wild_card,2022.2.4,Win32,59.80145916,5f454fc543b5c9111aaedb33,64d2fd46c836a06233681665,64dc7b390f7d0a27f1e6c0d8,,,,,,,ctch,resources/DP.BMP,resources/DBN.BMP,Door3,-0.362222222,0.004444444,1,0,0,0.7652,optionLeft,70,7035,3,38,0,38,0,1,,,,,,,,,,,,,,,,,,,,,,,,,,,,,,,,,,,,,,,
,,,,,,,,2023-08-16_08h35.58.797,HF_wild_card,2022.2.4,Win32,59.80145916,5f454fc543b5c9111aaedb33,64d2fd46c836a06233681665,64dc7b390f7d0a27f1e6c0d8,,,,,,,decisionTrl,resources/DR.BMP,resources/DB.BMP,Door1,0.258888889,-0.008888889,1,0,0,1.1828,optionRight,30,7065,3,39,0,39,0,1,,,,,,,,,,,,,,,,,,,,,,,,,,,,,,,,,,,,,,,
,,,,,,,,2023-08-16_08h35.58.797,HF_wild_card,2022.2.4,Win32,59.80145916,5f454fc543b5c9111aaedb33,64d2fd46c836a06233681665,64dc7b390f7d0a27f1e6c0d8,,,,,,,sngl,resources/Empty.png,resources/DB.BMP,Door1,0.233333333,-0.005555556,1,0,0,0.4364,optionRight,30,7095,3,40,0,40,0,1,,,,,,,,,,,,,,,,,,,,,,,,,,,,,,,,,,,,,,,
,,,,,,,,2023-08-16_08h35.58.797,HF_wild_card,2022.2.4,Win32,59.80145916,5f454fc543b5c9111aaedb33,64d2fd46c836a06233681665,64dc7b390f7d0a27f1e6c0d8,,,,,,,decisionTrl,resources/DBN.BMP,resources/DB.BMP,Door2,-0.276666667,-0.003333333,1,0,0,1.2305,optionLeft,20,7115,3,41,0,41,0,1,,,,,,,,,,,,,,,,,,,,,,,,,,,,,,,,,,,,,,,
,,,,,,,,2023-08-16_08h35.58.797,HF_wild_card,2022.2.4,Win32,59.80145916,5f454fc543b5c9111aaedb33,64d2fd46c836a06233681665,64dc7b390f7d0a27f1e6c0d8,,,,,,,sngl,resources/DR.BMP,resources/Empty.png,WildCard_NonEx,-0.438888889,0.042222222,1,0,0,0.5942,optionLeft,55,7170,3,42,0,42,0,1,,,,,,,,,,,,,,,,,,,,,,,,,,,,,,,,,,,,,,,
,,,,,,,,2023-08-16_08h35.58.797,HF_wild_card,2022.2.4,Win32,59.80145916,5f454fc543b5c9111aaedb33,64d2fd46c836a06233681665,64dc7b390f7d0a27f1e6c0d8,,,,,,,decisionTrl,resources/DB.BMP,resources/DBN.BMP,Door1,-0.203333333,0.004444444,1,0,0,1.0494,optionLeft,30,7200,3,43,0,43,0,1,,,,,,,,,,,,,,,,,,,,,,,,,,,,,,,,,,,,,,,
,,,,,,,,2023-08-16_08h35.58.797,HF_wild_card,2022.2.4,Win32,59.80145916,5f454fc543b5c9111aaedb33,64d2fd46c836a06233681665,64dc7b390f7d0a27f1e6c0d8,,,,,,,,,,,,,,,,,,,,,,,,,,2,0,2,0,1,,,,,,,,,,,,,,,,,,,,,,,,,,,,,,,,,,
,,,,,,,,2023-08-16_08h35.58.797,HF_wild_card,2022.2.4,Win32,59.80145916,5f454fc543b5c9111aaedb33,64d2fd46c836a06233681665,64dc7b390f7d0a27f1e6c0d8,,,,,,,sngl,resources/Empty.png,resources/DB.BMP,Door1,0.297777778,0.002222222,1,0,0,0.5467,optionRight,30,7230,4,0,0,0,0,1,,,,,,,,,,,,,,,,,,,,,,,,,,,,,,,,,,,,,,,
,,,,,,,,2023-08-16_08h35.58.797,HF_wild_card,2022.2.4,Win32,59.80145916,5f454fc543b5c9111aaedb33,64d2fd46c836a06233681665,64dc7b390f7d0a27f1e6c0d8,,,,,,,decisionTrl,resources/DY.BMP,resources/DB.BMP,WildCard_Ex,-0.37,-0.018888889,1,0,0,0.8328,optionLeft,45,7275,4,1,0,1,0,1,,,,,,,,,,,,,,,,,,,,,,,,,,,,,,,,,,,,,,,
,,,,,,,,2023-08-16_08h35.58.797,HF_wild_card,2022.2.4,Win32,59.80145916,5f454fc543b5c9111aaedb33,64d2fd46c836a06233681665,64dc7b390f7d0a27f1e6c0d8,,,,,,,decisionTrl,resources/DG.BMP,resources/DP.BMP,Door3,0.29,-0.008888889,1,0,0,0.7522,optionRight,70,7345,4,2,0,2,0,1,,,,,,,,,,,,,,,,,,,,,,,,,,,,,,,,,,,,,,,
,,,,,,,,2023-08-16_08h35.58.797,HF_wild_card,2022.2.4,Win32,59.80145916,5f454fc543b5c9111aaedb33,64d2fd46c836a06233681665,64dc7b390f7d0a27f1e6c0d8,,,,,,,sngl,resources/DG.BMP,resources/Empty.png,Door4,-0.225555556,0.026666667,1,0,0,0.4529,optionLeft,60,7405,4,3,0,3,0,1,,,,,,,,,,,,,,,,,,,,,,,,,,,,,,,,,,,,,,,
,,,,,,,,2023-08-16_08h35.58.797,HF_wild_card,2022.2.4,Win32,59.80145916,5f454fc543b5c9111aaedb33,64d2fd46c836a06233681665,64dc7b390f7d0a27f1e6c0d8,,,,,,,ctch,resources/DG.BMP,resources/DB.BMP,Door4,-0.185555556,0.01,1,0,0,1.4882,optionLeft,60,7465,4,4,0,4,0,1,,,,,,,,,,,,,,,,,,,,,,,,,,,,,,,,,,,,,,,
,,,,,,,,2023-08-16_08h35.58.797,HF_wild_card,2022.2.4,Win32,59.80145916,5f454fc543b5c9111aaedb33,64d2fd46c836a06233681665,64dc7b390f7d0a27f1e6c0d8,,,,,,,ctch,resources/DB.BMP,resources/DG.BMP,Door4,0.335555556,-0.008888889,1,0,0,0.9492,optionRight,60,7525,4,5,0,5,0,1,,,,,,,,,,,,,,,,,,,,,,,,,,,,,,,,,,,,,,,
,,,,,,,,2023-08-16_08h35.58.797,HF_wild_card,2022.2.4,Win32,59.80145916,5f454fc543b5c9111aaedb33,64d2fd46c836a06233681665,64dc7b390f7d0a27f1e6c0d8,,,,,,,decisionTrl,resources/DB.BMP,resources/DY.BMP,WildCard_Ex,0.238888889,-0.005555556,1,0,0,0.8156,optionRight,55,7580,4,6,0,6,0,1,,,,,,,,,,,,,,,,,,,,,,,,,,,,,,,,,,,,,,,
,,,,,,,,2023-08-16_08h35.58.797,HF_wild_card,2022.2.4,Win32,59.80145916,5f454fc543b5c9111aaedb33,64d2fd46c836a06233681665,64dc7b390f7d0a27f1e6c0d8,,,,,,,decisionTrl,resources/DBN.BMP,resources/DB.BMP,Door1,0.28,-0.005555556,1,0,0,0.9372,optionRight,30,7610,4,7,0,7,0,1,,,,,,,,,,,,,,,,,,,,,,,,,,,,,,,,,,,,,,,
,,,,,,,,2023-08-16_08h35.58.797,HF_wild_card,2022.2.4,Win32,59.80145916,5f454fc543b5c9111aaedb33,64d2fd46c836a06233681665,64dc7b390f7d0a27f1e6c0d8,,,,,,,decisionTrl,resources/DP.BMP,resources/DG.BMP,Door3,-0.142222222,-0.023333333,1,0,0,0.7201,optionLeft,70,7680,4,8,0,8,0,1,,,,,,,,,,,,,,,,,,,,,,,,,,,,,,,,,,,,,,,
,,,,,,,,2023-08-16_08h35.58.797,HF_wild_card,2022.2.4,Win32,59.80145916,5f454fc543b5c9111aaedb33,64d2fd46c836a06233681665,64dc7b390f7d0a27f1e6c0d8,,,,,,,ctch,resources/DB.BMP,resources/DG.BMP,Door4,0.316666667,-0.028888889,1,0,0,0.9322,optionRight,80,7760,4,9,0,9,0,1,,,,,,,,,,,,,,,,,,,,,,,,,,,,,,,,,,,,,,,
,,,,,,,,2023-08-16_08h35.58.797,HF_wild_card,2022.2.4,Win32,59.80145916,5f454fc543b5c9111aaedb33,64d2fd46c836a06233681665,64dc7b390f7d0a27f1e6c0d8,,,,,,,decisionTrl,resources/DBN.BMP,resources/DB.BMP,Door1,0.275555556,-0.016666667,1,0,0,1.0673,optionRight,30,7790,4,10,0,10,0,1,,,,,,,,,,,,,,,,,,,,,,,,,,,,,,,,,,,,,,,
,,,,,,,,2023-08-16_08h35.58.797,HF_wild_card,2022.2.4,Win32,59.80145916,5f454fc543b5c9111aaedb33,64d2fd46c836a06233681665,64dc7b390f7d0a27f1e6c0d8,,,,,,,decisionTrl,resources/DG.BMP,resources/DP.BMP,Door3,0.357777778,-0.01,1,0,0,0.9828,optionRight,70,7860,4,11,0,11,0,1,,,,,,,,,,,,,,,,,,,,,,,,,,,,,,,,,,,,,,,
,,,,,,,,2023-08-16_08h35.58.797,HF_wild_card,2022.2.4,Win32,59.80145916,5f454fc543b5c9111aaedb33,64d2fd46c836a06233681665,64dc7b390f7d0a27f1e6c0d8,,,,,,,ctch,resources/DG.BMP,resources/DB.BMP,Door4,-0.127777778,-0.003333333,1,0,0,1.033,optionLeft,60,7920,4,12,0,12,0,1,,,,,,,,,,,,,,,,,,,,,,,,,,,,,,,,,,,,,,,
,,,,,,,,2023-08-16_08h35.58.797,HF_wild_card,2022.2.4,Win32,59.80145916,5f454fc543b5c9111aaedb33,64d2fd46c836a06233681665,64dc7b390f7d0a27f1e6c0d8,,,,,,,ctch,resources/DP.BMP,resources/DBN.BMP,Door3,-0.247777778,0.023333333,1,0,0,0.7654,optionLeft,70,7990,4,13,0,13,0,1,,,,,,,,,,,,,,,,,,,,,,,,,,,,,,,,,,,,,,,
,,,,,,,,2023-08-16_08h35.58.797,HF_wild_card,2022.2.4,Win32,59.80145916,5f454fc543b5c9111aaedb33,64d2fd46c836a06233681665,64dc7b390f7d0a27f1e6c0d8,,,,,,,decisionTrl,resources/DY.BMP,resources/DBN.BMP,WildCard_Ex,-0.205555556,-0.002222222,1,0,0,1.4054,optionLeft,45,8035,4,14,0,14,0,1,,,,,,,,,,,,,,,,,,,,,,,,,,,,,,,,,,,,,,,
,,,,,,,,2023-08-16_08h35.58.797,HF_wild_card,2022.2.4,Win32,59.80145916,5f454fc543b5c9111aaedb33,64d2fd46c836a06233681665,64dc7b390f7d0a27f1e6c0d8,,,,,,,decisionTrl,resources/DP.BMP,resources/DY.BMP,Door3,-0.161111111,-0.004444444,1,0,0,1.233,optionLeft,70,8105,4,15,0,15,0,1,,,,,,,,,,,,,,,,,,,,,,,,,,,,,,,,,,,,,,,
,,,,,,,,2023-08-16_08h35.58.797,HF_wild_card,2022.2.4,Win32,59.80145916,5f454fc543b5c9111aaedb33,64d2fd46c836a06233681665,64dc7b390f7d0a27f1e6c0d8,,,,,,,decisionTrl,resources/DBN.BMP,resources/DB.BMP,Door1,0.323333333,-0.073333333,1,0,0,1.3331,optionRight,30,8135,4,16,0,16,0,1,,,,,,,,,,,,,,,,,,,,,,,,,,,,,,,,,,,,,,,
,,,,,,,,2023-08-16_08h35.58.797,HF_wild_card,2022.2.4,Win32,59.80145916,5f454fc543b5c9111aaedb33,64d2fd46c836a06233681665,64dc7b390f7d0a27f1e6c0d8,,,,,,,sngl,resources/DP.BMP,resources/Empty.png,Door3,-0.297777778,0.012222222,1,0,0,0.4982,optionLeft,70,8205,4,17,0,17,0,1,,,,,,,,,,,,,,,,,,,,,,,,,,,,,,,,,,,,,,,
,,,,,,,,2023-08-16_08h35.58.797,HF_wild_card,2022.2.4,Win32,59.80145916,5f454fc543b5c9111aaedb33,64d2fd46c836a06233681665,64dc7b390f7d0a27f1e6c0d8,,,,,,,decisionTrl,resources/DY.BMP,resources/DP.BMP,Door3,0.292222222,0.001111111,1,0,0,1.014,optionRight,70,8275,4,18,0,18,0,1,,,,,,,,,,,,,,,,,,,,,,,,,,,,,,,,,,,,,,,
,,,,,,,,2023-08-16_08h35.58.797,HF_wild_card,2022.2.4,Win32,59.80145916,5f454fc543b5c9111aaedb33,64d2fd46c836a06233681665,64dc7b390f7d0a27f1e6c0d8,,,,,,,ctch,resources/DBN.BMP,resources/DP.BMP,Door3,0.391111111,-0.02,1,0,0,0.632,optionRight,70,8345,4,19,0,19,0,1,,,,,,,,,,,,,,,,,,,,,,,,,,,,,,,,,,,,,,,
,,,,,,,,2023-08-16_08h35.58.797,HF_wild_card,2022.2.4,Win32,59.80145916,5f454fc543b5c9111aaedb33,64d2fd46c836a06233681665,64dc7b390f7d0a27f1e6c0d8,,,,,,,sngl,resources/DY.BMP,resources/Empty.png,WildCard_Ex,-0.19,0.02,1,0,0,0.5289,optionLeft,55,8400,4,20,0,20,0,1,,,,,,,,,,,,,,,,,,,,,,,,,,,,,,,,,,,,,,,
,,,,,,,,2023-08-16_08h35.58.797,HF_wild_card,2022.2.4,Win32,59.80145916,5f454fc543b5c9111aaedb33,64d2fd46c836a06233681665,64dc7b390f7d0a27f1e6c0d8,,,,,,,decisionTrl,resources/DB.BMP,resources/DBN.BMP,Door1,-0.137777778,0.007777778,1,0,0,1.1497,optionLeft,30,8430,4,21,0,21,0,1,,,,,,,,,,,,,,,,,,,,,,,,,,,,,,,,,,,,,,,
,,,,,,,,2023-08-16_08h35.58.797,HF_wild_card,2022.2.4,Win32,59.80145916,5f454fc543b5c9111aaedb33,64d2fd46c836a06233681665,64dc7b390f7d0a27f1e6c0d8,,,,,,,ctch,resources/DP.BMP,resources/DBN.BMP,Door3,-0.148888889,-0.013333333,1,0,0,0.7156,optionLeft,70,8500,4,22,0,22,0,1,,,,,,,,,,,,,,,,,,,,,,,,,,,,,,,,,,,,,,,
,,,,,,,,2023-08-16_08h35.58.797,HF_wild_card,2022.2.4,Win32,59.80145916,5f454fc543b5c9111aaedb33,64d2fd46c836a06233681665,64dc7b390f7d0a27f1e6c0d8,,,,,,,decisionTrl,resources/DG.BMP,resources/DY.BMP,WildCard_Ex,0.286666667,-0.008888889,1,0,0,0.7659,optionRight,55,8555,4,23,0,23,0,1,,,,,,,,,,,,,,,,,,,,,,,,,,,,,,,,,,,,,,,
,,,,,,,,2023-08-16_08h35.58.797,HF_wild_card,2022.2.4,Win32,59.80145916,5f454fc543b5c9111aaedb33,64d2fd46c836a06233681665,64dc7b390f7d0a27f1e6c0d8,,,,,,,sngl,resources/DB.BMP,resources/Empty.png,Door1,-0.403333333,-0.001111111,1,0,0,0.4828,optionLeft,30,8585,4,24,0,24,0,1,,,,,,,,,,,,,,,,,,,,,,,,,,,,,,,,,,,,,,,
,,,,,,,,2023-08-16_08h35.58.797,HF_wild_card,2022.2.4,Win32,59.80145916,5f454fc543b5c9111aaedb33,64d2fd46c836a06233681665,64dc7b390f7d0a27f1e6c0d8,,,,,,,sngl,resources/Empty.png,resources/DY.BMP,WildCard_Ex,0.217777778,0.001111111,1,0,0,0.5004,optionRight,55,8640,4,25,0,25,0,1,,,,,,,,,,,,,,,,,,,,,,,,,,,,,,,,,,,,,,,
,,,,,,,,2023-08-16_08h35.58.797,HF_wild_card,2022.2.4,Win32,59.80145916,5f454fc543b5c9111aaedb33,64d2fd46c836a06233681665,64dc7b390f7d0a27f1e6c0d8,,,,,,,decisionTrl,resources/DP.BMP,resources/DG.BMP,Door3,-0.175555556,0,1,0,0,0.5109,optionLeft,70,8710,4,26,0,26,0,1,,,,,,,,,,,,,,,,,,,,,,,,,,,,,,,,,,,,,,,
,,,,,,,,2023-08-16_08h35.58.797,HF_wild_card,2022.2.4,Win32,59.80145916,5f454fc543b5c9111aaedb33,64d2fd46c836a06233681665,64dc7b390f7d0a27f1e6c0d8,,,,,,,sngl,resources/Empty.png,resources/DG.BMP,Door4,0.414444444,0.001111111,1,0,0,0.5324,optionRight,80,8790,4,27,0,27,0,1,,,,,,,,,,,,,,,,,,,,,,,,,,,,,,,,,,,,,,,
,,,,,,,,2023-08-16_08h35.58.797,HF_wild_card,2022.2.4,Win32,59.80145916,5f454fc543b5c9111aaedb33,64d2fd46c836a06233681665,64dc7b390f7d0a27f1e6c0d8,,,,,,,decisionTrl,resources/DB.BMP,resources/DBN.BMP,Door1,-0.181111111,0.007777778,1,0,0,0.5644,optionLeft,30,8820,4,28,0,28,0,1,,,,,,,,,,,,,,,,,,,,,,,,,,,,,,,,,,,,,,,
,,,,,,,,2023-08-16_08h35.58.797,HF_wild_card,2022.2.4,Win32,59.80145916,5f454fc543b5c9111aaedb33,64d2fd46c836a06233681665,64dc7b390f7d0a27f1e6c0d8,,,,,,,decisionTrl,resources/DBN.BMP,resources/DB.BMP,Door1,0.284444444,-0.02,1,0,0,1.0658,optionRight,30,8850,4,29,0,29,0,1,,,,,,,,,,,,,,,,,,,,,,,,,,,,,,,,,,,,,,,
,,,,,,,,2023-08-16_08h35.58.797,HF_wild_card,2022.2.4,Win32,59.80145916,5f454fc543b5c9111aaedb33,64d2fd46c836a06233681665,64dc7b390f7d0a27f1e6c0d8,,,,,,,decisionTrl,resources/DB.BMP,resources/DBN.BMP,Door1,-0.22,0.003333333,1,0,0,1.0156,optionLeft,30,8880,4,30,0,30,0,1,,,,,,,,,,,,,,,,,,,,,,,,,,,,,,,,,,,,,,,
,,,,,,,,2023-08-16_08h35.58.797,HF_wild_card,2022.2.4,Win32,59.80145916,5f454fc543b5c9111aaedb33,64d2fd46c836a06233681665,64dc7b390f7d0a27f1e6c0d8,,,,,,,sngl,resources/DBN.BMP,resources/Empty.png,Door2,-0.113333333,0.007777778,1,0,0,0.5601,optionLeft,20,8900,4,31,0,31,0,1,,,,,,,,,,,,,,,,,,,,,,,,,,,,,,,,,,,,,,,
,,,,,,,,2023-08-16_08h35.58.797,HF_wild_card,2022.2.4,Win32,59.80145916,5f454fc543b5c9111aaedb33,64d2fd46c836a06233681665,64dc7b390f7d0a27f1e6c0d8,,,,,,,decisionTrl,resources/DBN.BMP,resources/DY.BMP,WildCard_Ex,0.254444444,-0.006666667,1,0,0,1.0829,optionRight,45,8945,4,32,0,32,0,1,,,,,,,,,,,,,,,,,,,,,,,,,,,,,,,,,,,,,,,
,,,,,,,,2023-08-16_08h35.58.797,HF_wild_card,2022.2.4,Win32,59.80145916,5f454fc543b5c9111aaedb33,64d2fd46c836a06233681665,64dc7b390f7d0a27f1e6c0d8,,,,,,,sngl,resources/DY.BMP,resources/Empty.png,WildCard_Ex,-0.238888889,0.012222222,1,0,0,0.4124,optionLeft,45,8990,4,33,0,33,0,1,,,,,,,,,,,,,,,,,,,,,,,,,,,,,,,,,,,,,,,
,,,,,,,,2023-08-16_08h35.58.797,HF_wild_card,2022.2.4,Win32,59.80145916,5f454fc543b5c9111aaedb33,64d2fd46c836a06233681665,64dc7b390f7d0a27f1e6c0d8,,,,,,,sngl,resources/Empty.png,resources/DP.BMP,Door3,0.338888889,-0.01,1,0,0,0.4816,optionRight,70,9060,4,34,0,34,0,1,,,,,,,,,,,,,,,,,,,,,,,,,,,,,,,,,,,,,,,
,,,,,,,,2023-08-16_08h35.58.797,HF_wild_card,2022.2.4,Win32,59.80145916,5f454fc543b5c9111aaedb33,64d2fd46c836a06233681665,64dc7b390f7d0a27f1e6c0d8,,,,,,,decisionTrl,resources/DG.BMP,resources/DP.BMP,Door3,0.433333333,0.003333333,1,0,0,0.6104,optionRight,70,9130,4,35,0,35,0,1,,,,,,,,,,,,,,,,,,,,,,,,,,,,,,,,,,,,,,,
,,,,,,,,2023-08-16_08h35.58.797,HF_wild_card,2022.2.4,Win32,59.80145916,5f454fc543b5c9111aaedb33,64d2fd46c836a06233681665,64dc7b390f7d0a27f1e6c0d8,,,,,,,decisionTrl,resources/DB.BMP,resources/DBN.BMP,Door2,0.303333333,0.01,1,0,0,1.0145,optionRight,40,9170,4,36,0,36,0,1,,,,,,,,,,,,,,,,,,,,,,,,,,,,,,,,,,,,,,,
,,,,,,,,2023-08-16_08h35.58.797,HF_wild_card,2022.2.4,Win32,59.80145916,5f454fc543b5c9111aaedb33,64d2fd46c836a06233681665,64dc7b390f7d0a27f1e6c0d8,,,,,,,sngl,resources/Empty.png,resources/DBN.BMP,Door2,0.432222222,0.007777778,1,0,0,0.4984,optionRight,40,9210,4,37,0,37,0,1,,,,,,,,,,,,,,,,,,,,,,,,,,,,,,,,,,,,,,,
,,,,,,,,2023-08-16_08h35.58.797,HF_wild_card,2022.2.4,Win32,59.80145916,5f454fc543b5c9111aaedb33,64d2fd46c836a06233681665,64dc7b390f7d0a27f1e6c0d8,,,,,,,decisionTrl,resources/DG.BMP,resources/DP.BMP,Door3,0.291111111,0.006666667,1,0,0,0.8806,optionRight,70,9280,4,38,0,38,0,1,,,,,,,,,,,,,,,,,,,,,,,,,,,,,,,,,,,,,,,
,,,,,,,,2023-08-16_08h35.58.797,HF_wild_card,2022.2.4,Win32,59.80145916,5f454fc543b5c9111aaedb33,64d2fd46c836a06233681665,64dc7b390f7d0a27f1e6c0d8,,,,,,,sngl,resources/Empty.png,resources/DY.BMP,WildCard_Ex,0.374444444,-0.008888889,1,0,0,0.598,optionRight,45,9325,4,39,0,39,0,1,,,,,,,,,,,,,,,,,,,,,,,,,,,,,,,,,,,,,,,
,,,,,,,,2023-08-16_08h35.58.797,HF_wild_card,2022.2.4,Win32,59.80145916,5f454fc543b5c9111aaedb33,64d2fd46c836a06233681665,64dc7b390f7d0a27f1e6c0d8,,,,,,,decisionTrl,resources/DP.BMP,resources/DG.BMP,Door3,-0.332222222,0.017777778,1,0,0,0.5817,optionLeft,70,9395,4,40,0,40,0,1,,,,,,,,,,,,,,,,,,,,,,,,,,,,,,,,,,,,,,,
,,,,,,,,2023-08-16_08h35.58.797,HF_wild_card,2022.2.4,Win32,59.80145916,5f454fc543b5c9111aaedb33,64d2fd46c836a06233681665,64dc7b390f7d0a27f1e6c0d8,,,,,,,decisionTrl,resources/DY.BMP,resources/DG.BMP,Door4,0.356666667,0.011111111,1,0,0,1.2669,optionRight,80,9475,4,41,0,41,0,1,,,,,,,,,,,,,,,,,,,,,,,,,,,,,,,,,,,,,,,
,,,,,,,,2023-08-16_08h35.58.797,HF_wild_card,2022.2.4,Win32,59.80145916,5f454fc543b5c9111aaedb33,64d2fd46c836a06233681665,64dc7b390f7d0a27f1e6c0d8,,,,,,,ctch,resources/DBN.BMP,resources/DP.BMP,Door3,0.328888889,0.003333333,1,0,0,0.5313,optionRight,70,9545,4,42,0,42,0,1,,,,,,,,,,,,,,,,,,,,,,,,,,,,,,,,,,,,,,,
,,,,,,,,2023-08-16_08h35.58.797,HF_wild_card,2022.2.4,Win32,59.80145916,5f454fc543b5c9111aaedb33,64d2fd46c836a06233681665,64dc7b390f7d0a27f1e6c0d8,,,,,,,decisionTrl,resources/DP.BMP,resources/DG.BMP,Door3,-0.345555556,0.026666667,1,0,0,0.4937,optionLeft,70,9615,4,43,0,43,0,1,,,,,,,,,,,,,,,,,,,,,,,,,,,,,,,,,,,,,,,
,,,,,,,,2023-08-16_08h35.58.797,HF_wild_card,2022.2.4,Win32,59.80145916,5f454fc543b5c9111aaedb33,64d2fd46c836a06233681665,64dc7b390f7d0a27f1e6c0d8,,,,,,,,,,,,,,,,,,,,,,,,,,3,0,3,0,1,,,,,,,,,,,,,,,,,,,,,,,,,,,,,,,,,,
,,,,,,,,2023-08-16_08h35.58.797,HF_wild_card,2022.2.4,Win32,59.80145916,5f454fc543b5c9111aaedb33,64d2fd46c836a06233681665,64dc7b390f7d0a27f1e6c0d8,,,,,,,decisionTrl,resources/DB.BMP,resources/DBN.BMP,Door2,0.306666667,0.032222222,1,0,0,0.9181,optionRight,20,9635,5,0,0,0,0,1,,,,,,,,,,,,,,,,,,,,,,,,,,,,,,,,,,,,,,,
,,,,,,,,2023-08-16_08h35.58.797,HF_wild_card,2022.2.4,Win32,59.80145916,5f454fc543b5c9111aaedb33,64d2fd46c836a06233681665,64dc7b390f7d0a27f1e6c0d8,,,,,,,sngl,resources/Empty.png,resources/DB.BMP,Door1,0.282222222,0.006666667,1,0,0,0.5316,optionRight,30,9665,5,1,0,1,0,1,,,,,,,,,,,,,,,,,,,,,,,,,,,,,,,,,,,,,,,
,,,,,,,,2023-08-16_08h35.58.797,HF_wild_card,2022.2.4,Win32,59.80145916,5f454fc543b5c9111aaedb33,64d2fd46c836a06233681665,64dc7b390f7d0a27f1e6c0d8,,,,,,,sngl,resources/Empty.png,resources/DY.BMP,WildCard_Ex,0.232222222,0.016666667,1,0,0,0.5817,optionRight,45,9710,5,2,0,2,0,1,,,,,,,,,,,,,,,,,,,,,,,,,,,,,,,,,,,,,,,
,,,,,,,,2023-08-16_08h35.58.797,HF_wild_card,2022.2.4,Win32,59.80145916,5f454fc543b5c9111aaedb33,64d2fd46c836a06233681665,64dc7b390f7d0a27f1e6c0d8,,,,,,,decisionTrl,resources/DP.BMP,resources/DG.BMP,Door3,-0.206666667,0.004444444,1,0,0,0.615,optionLeft,70,9780,5,3,0,3,0,1,,,,,,,,,,,,,,,,,,,,,,,,,,,,,,,,,,,,,,,
,,,,,,,,2023-08-16_08h35.58.797,HF_wild_card,2022.2.4,Win32,59.80145916,5f454fc543b5c9111aaedb33,64d2fd46c836a06233681665,64dc7b390f7d0a27f1e6c0d8,,,,,,,sngl,resources/Empty.png,resources/DG.BMP,Door4,0.261111111,0.001111111,1,0,0,0.5146,optionRight,60,9840,5,4,0,4,0,1,,,,,,,,,,,,,,,,,,,,,,,,,,,,,,,,,,,,,,,
,,,,,,,,2023-08-16_08h35.58.797,HF_wild_card,2022.2.4,Win32,59.80145916,5f454fc543b5c9111aaedb33,64d2fd46c836a06233681665,64dc7b390f7d0a27f1e6c0d8,,,,,,,ctch,resources/DB.BMP,resources/DG.BMP,Door4,0.247777778,0.015555556,1,0,0,0.8492,optionRight,80,9920,5,5,0,5,0,1,,,,,,,,,,,,,,,,,,,,,,,,,,,,,,,,,,,,,,,
,,,,,,,,2023-08-16_08h35.58.797,HF_wild_card,2022.2.4,Win32,59.80145916,5f454fc543b5c9111aaedb33,64d2fd46c836a06233681665,64dc7b390f7d0a27f1e6c0d8,,,,,,,decisionTrl,resources/DB.BMP,resources/DBN.BMP,Door1,-0.19,-0.006666667,1,0,0,0.8659,optionLeft,30,9950,5,6,0,6,0,1,,,,,,,,,,,,,,,,,,,,,,,,,,,,,,,,,,,,,,,
,,,,,,,,2023-08-16_08h35.58.797,HF_wild_card,2022.2.4,Win32,59.80145916,5f454fc543b5c9111aaedb33,64d2fd46c836a06233681665,64dc7b390f7d0a27f1e6c0d8,,,,,,,sngl,resources/Empty.png,resources/DBN.BMP,Door2,0.25,-0.01,1,0,0,0.4647,optionRight,20,9970,5,7,0,7,0,1,,,,,,,,,,,,,,,,,,,,,,,,,,,,,,,,,,,,,,,
,,,,,,,,2023-08-16_08h35.58.797,HF_wild_card,2022.2.4,Win32,59.80145916,5f454fc543b5c9111aaedb33,64d2fd46c836a06233681665,64dc7b390f7d0a27f1e6c0d8,,,,,,,sngl,resources/DBN.BMP,resources/Empty.png,Door2,-0.162222222,0.013333333,1,0,0,0.6279,optionLeft,40,10010,5,8,0,8,0,1,,,,,,,,,,,,,,,,,,,,,,,,,,,,,,,,,,,,,,,
,,,,,,,,2023-08-16_08h35.58.797,HF_wild_card,2022.2.4,Win32,59.80145916,5f454fc543b5c9111aaedb33,64d2fd46c836a06233681665,64dc7b390f7d0a27f1e6c0d8,,,,,,,sngl,resources/Empty.png,resources/DY.BMP,WildCard_Ex,0.256666667,0.01,1,0,0,0.4434,optionRight,55,10065,5,9,0,9,0,1,,,,,,,,,,,,,,,,,,,,,,,,,,,,,,,,,,,,,,,
,,,,,,,,2023-08-16_08h35.58.797,HF_wild_card,2022.2.4,Win32,59.80145916,5f454fc543b5c9111aaedb33,64d2fd46c836a06233681665,64dc7b390f7d0a27f1e6c0d8,,,,,,,ctch,resources/DG.BMP,resources/DB.BMP,Door1,0.333333333,0.002222222,1,0,0,1.2123,optionRight,30,10095,5,10,0,10,0,1,,,,,,,,,,,,,,,,,,,,,,,,,,,,,,,,,,,,,,,
,,,,,,,,2023-08-16_08h35.58.797,HF_wild_card,2022.2.4,Win32,59.80145916,5f454fc543b5c9111aaedb33,64d2fd46c836a06233681665,64dc7b390f7d0a27f1e6c0d8,,,,,,,decisionTrl,resources/DG.BMP,resources/DP.BMP,Door3,0.307777778,-0.003333333,1,0,0,0.8992,optionRight,70,10165,5,11,0,11,0,1,,,,,,,,,,,,,,,,,,,,,,,,,,,,,,,,,,,,,,,
,,,,,,,,2023-08-16_08h35.58.797,HF_wild_card,2022.2.4,Win32,59.80145916,5f454fc543b5c9111aaedb33,64d2fd46c836a06233681665,64dc7b390f7d0a27f1e6c0d8,,,,,,,sngl,resources/DB.BMP,resources/Empty.png,Door1,-0.224444444,0.02,1,0,0,0.4995,optionLeft,30,10195,5,12,0,12,0,1,,,,,,,,,,,,,,,,,,,,,,,,,,,,,,,,,,,,,,,
,,,,,,,,2023-08-16_08h35.58.797,HF_wild_card,2022.2.4,Win32,59.80145916,5f454fc543b5c9111aaedb33,64d2fd46c836a06233681665,64dc7b390f7d0a27f1e6c0d8,,,,,,,decisionTrl,resources/DBN.BMP,resources/DB.BMP,Door1,0.252222222,0.001111111,1,0,0,0.6445,optionRight,30,10225,5,13,0,13,0,1,,,,,,,,,,,,,,,,,,,,,,,,,,,,,,,,,,,,,,,
,,,,,,,,2023-08-16_08h35.58.797,HF_wild_card,2022.2.4,Win32,59.80145916,5f454fc543b5c9111aaedb33,64d2fd46c836a06233681665,64dc7b390f7d0a27f1e6c0d8,,,,,,,decisionTrl,resources/DP.BMP,resources/DG.BMP,Door3,-0.176666667,0.023333333,1,0,0,0.6154,optionLeft,70,10295,5,14,0,14,0,1,,,,,,,,,,,,,,,,,,,,,,,,,,,,,,,,,,,,,,,
,,,,,,,,2023-08-16_08h35.58.797,HF_wild_card,2022.2.4,Win32,59.80145916,5f454fc543b5c9111aaedb33,64d2fd46c836a06233681665,64dc7b390f7d0a27f1e6c0d8,,,,,,,decisionTrl,resources/DB.BMP,resources/DBN.BMP,Door1,-0.136666667,-0.001111111,1,0,0,1.0663,optionLeft,30,10325,5,15,0,15,0,1,,,,,,,,,,,,,,,,,,,,,,,,,,,,,,,,,,,,,,,
,,,,,,,,2023-08-16_08h35.58.797,HF_wild_card,2022.2.4,Win32,59.80145916,5f454fc543b5c9111aaedb33,64d2fd46c836a06233681665,64dc7b390f7d0a27f1e6c0d8,,,,,,,sngl,resources/Empty.png,resources/DP.BMP,Door3,0.255555556,0.006666667,1,0,0,0.4771,optionRight,70,10395,5,16,0,16,0,1,,,,,,,,,,,,,,,,,,,,,,,,,,,,,,,,,,,,,,,
,,,,,,,,2023-08-16_08h35.58.797,HF_wild_card,2022.2.4,Win32,59.80145916,5f454fc543b5c9111aaedb33,64d2fd46c836a06233681665,64dc7b390f7d0a27f1e6c0d8,,,,,,,decisionTrl,resources/DB.BMP,resources/DY.BMP,WildCard_Ex,0.241111111,-0.002222222,1,0,0,0.8775,optionRight,45,10440,5,17,0,17,0,1,,,,,,,,,,,,,,,,,,,,,,,,,,,,,,,,,,,,,,,
,,,,,,,,2023-08-16_08h35.58.797,HF_wild_card,2022.2.4,Win32,59.80145916,5f454fc543b5c9111aaedb33,64d2fd46c836a06233681665,64dc7b390f7d0a27f1e6c0d8,,,,,,,decisionTrl,resources/DB.BMP,resources/DBN.BMP,Door1,-0.198888889,0.018888889,1,0,0,0.8969,optionLeft,30,10470,5,18,0,18,0,1,,,,,,,,,,,,,,,,,,,,,,,,,,,,,,,,,,,,,,,
,,,,,,,,2023-08-16_08h35.58.797,HF_wild_card,2022.2.4,Win32,59.80145916,5f454fc543b5c9111aaedb33,64d2fd46c836a06233681665,64dc7b390f7d0a27f1e6c0d8,,,,,,,decisionTrl,resources/DY.BMP,resources/DB.BMP,WildCard_Ex,-0.188888889,0.018888889,1,0,0,0.6938,optionLeft,55,10525,5,19,0,19,0,1,,,,,,,,,,,,,,,,,,,,,,,,,,,,,,,,,,,,,,,
,,,,,,,,2023-08-16_08h35.58.797,HF_wild_card,2022.2.4,Win32,59.80145916,5f454fc543b5c9111aaedb33,64d2fd46c836a06233681665,64dc7b390f7d0a27f1e6c0d8,,,,,,,decisionTrl,resources/DY.BMP,resources/DG.BMP,Door4,0.365555556,0.043333333,1,0,0,1.3336,optionRight,80,10605,5,20,0,20,0,1,,,,,,,,,,,,,,,,,,,,,,,,,,,,,,,,,,,,,,,
,,,,,,,,2023-08-16_08h35.58.797,HF_wild_card,2022.2.4,Win32,59.80145916,5f454fc543b5c9111aaedb33,64d2fd46c836a06233681665,64dc7b390f7d0a27f1e6c0d8,,,,,,,decisionTrl,resources/DBN.BMP,resources/DB.BMP,Door1,0.216666667,-0.002222222,1,0,0,1.7167,optionRight,30,10635,5,21,0,21,0,1,,,,,,,,,,,,,,,,,,,,,,,,,,,,,,,,,,,,,,,
,,,,,,,,2023-08-16_08h35.58.797,HF_wild_card,2022.2.4,Win32,59.80145916,5f454fc543b5c9111aaedb33,64d2fd46c836a06233681665,64dc7b390f7d0a27f1e6c0d8,,,,,,,ctch,resources/DP.BMP,resources/DBN.BMP,Door3,-0.332222222,0.006666667,1,0,0,0.8321,optionLeft,70,10705,5,22,0,22,0,1,,,,,,,,,,,,,,,,,,,,,,,,,,,,,,,,,,,,,,,
,,,,,,,,2023-08-16_08h35.58.797,HF_wild_card,2022.2.4,Win32,59.80145916,5f454fc543b5c9111aaedb33,64d2fd46c836a06233681665,64dc7b390f7d0a27f1e6c0d8,,,,,,,ctch,resources/DBN.BMP,resources/DP.BMP,Door3,0.257777778,0,1,0,0,0.6985,optionRight,70,10775,5,23,0,23,0,1,,,,,,,,,,,,,,,,,,,,,,,,,,,,,,,,,,,,,,,
,,,,,,,,2023-08-16_08h35.58.797,HF_wild_card,2022.2.4,Win32,59.80145916,5f454fc543b5c9111aaedb33,64d2fd46c836a06233681665,64dc7b390f7d0a27f1e6c0d8,,,,,,,sngl,resources/DG.BMP,resources/Empty.png,Door4,-0.248888889,0.043333333,1,0,0,0.4812,optionLeft,80,10855,5,24,0,24,0,1,,,,,,,,,,,,,,,,,,,,,,,,,,,,,,,,,,,,,,,
,,,,,,,,2023-08-16_08h35.58.797,HF_wild_card,2022.2.4,Win32,59.80145916,5f454fc543b5c9111aaedb33,64d2fd46c836a06233681665,64dc7b390f7d0a27f1e6c0d8,,,,,,,ctch,resources/DB.BMP,resources/DG.BMP,Door1,-0.195555556,0.001111111,1,0,0,1.3956,optionLeft,30,10885,5,25,0,25,0,1,,,,,,,,,,,,,,,,,,,,,,,,,,,,,,,,,,,,,,,
,,,,,,,,2023-08-16_08h35.58.797,HF_wild_card,2022.2.4,Win32,59.80145916,5f454fc543b5c9111aaedb33,64d2fd46c836a06233681665,64dc7b390f7d0a27f1e6c0d8,,,,,,,decisionTrl,resources/DY.BMP,resources/DBN.BMP,WildCard_Ex,-0.255555556,0.013333333,1,0,0,0.8653,optionLeft,55,10940,5,26,0,26,0,1,,,,,,,,,,,,,,,,,,,,,,,,,,,,,,,,,,,,,,,
,,,,,,,,2023-08-16_08h35.58.797,HF_wild_card,2022.2.4,Win32,59.80145916,5f454fc543b5c9111aaedb33,64d2fd46c836a06233681665,64dc7b390f7d0a27f1e6c0d8,,,,,,,decisionTrl,resources/DBN.BMP,resources/DB.BMP,Door1,0.341111111,-0.014444444,1,0,0,0.8824,optionRight,30,10970,5,27,0,27,0,1,,,,,,,,,,,,,,,,,,,,,,,,,,,,,,,,,,,,,,,
,,,,,,,,2023-08-16_08h35.58.797,HF_wild_card,2022.2.4,Win32,59.80145916,5f454fc543b5c9111aaedb33,64d2fd46c836a06233681665,64dc7b390f7d0a27f1e6c0d8,,,,,,,sngl,resources/DY.BMP,resources/Empty.png,WildCard_Ex,-0.162222222,0.018888889,1,0,0,0.4646,optionLeft,55,11025,5,28,0,28,0,1,,,,,,,,,,,,,,,,,,,,,,,,,,,,,,,,,,,,,,,
,,,,,,,,2023-08-16_08h35.58.797,HF_wild_card,2022.2.4,Win32,59.80145916,5f454fc543b5c9111aaedb33,64d2fd46c836a06233681665,64dc7b390f7d0a27f1e6c0d8,,,,,,,ctch,resources/DBN.BMP,resources/DP.BMP,Door3,0.256666667,0.02,1,0,0,0.6484,optionRight,70,11095,5,29,0,29,0,1,,,,,,,,,,,,,,,,,,,,,,,,,,,,,,,,,,,,,,,
,,,,,,,,2023-08-16_08h35.58.797,HF_wild_card,2022.2.4,Win32,59.80145916,5f454fc543b5c9111aaedb33,64d2fd46c836a06233681665,64dc7b390f7d0a27f1e6c0d8,,,,,,,decisionTrl,resources/DP.BMP,resources/DY.BMP,Door3,-0.166666667,0.022222222,1,0,0,0.5957,optionLeft,70,11165,5,30,0,30,0,1,,,,,,,,,,,,,,,,,,,,,,,,,,,,,,,,,,,,,,,
,,,,,,,,2023-08-16_08h35.58.797,HF_wild_card,2022.2.4,Win32,59.80145916,5f454fc543b5c9111aaedb33,64d2fd46c836a06233681665,64dc7b390f7d0a27f1e6c0d8,,,,,,,decisionTrl,resources/DG.BMP,resources/DP.BMP,Door3,0.306666667,0.007777778,1,0,0,0.448,optionRight,70,11235,5,31,0,31,0,1,,,,,,,,,,,,,,,,,,,,,,,,,,,,,,,,,,,,,,,
,,,,,,,,2023-08-16_08h35.58.797,HF_wild_card,2022.2.4,Win32,59.80145916,5f454fc543b5c9111aaedb33,64d2fd46c836a06233681665,64dc7b390f7d0a27f1e6c0d8,,,,,,,decisionTrl,resources/DBN.BMP,resources/DB.BMP,Door1,0.346666667,-0.008888889,1,0,0,0.9991,optionRight,30,11265,5,32,0,32,0,1,,,,,,,,,,,,,,,,,,,,,,,,,,,,,,,,,,,,,,,
,,,,,,,,2023-08-16_08h35.58.797,HF_wild_card,2022.2.4,Win32,59.80145916,5f454fc543b5c9111aaedb33,64d2fd46c836a06233681665,64dc7b390f7d0a27f1e6c0d8,,,,,,,decisionTrl,resources/DBN.BMP,resources/DY.BMP,WildCard_Ex,0.318888889,0.003333333,1,0,0,0.7823,optionRight,45,11310,5,33,0,33,0,1,,,,,,,,,,,,,,,,,,,,,,,,,,,,,,,,,,,,,,,
,,,,,,,,2023-08-16_08h35.58.797,HF_wild_card,2022.2.4,Win32,59.80145916,5f454fc543b5c9111aaedb33,64d2fd46c836a06233681665,64dc7b390f7d0a27f1e6c0d8,,,,,,,decisionTrl,resources/DG.BMP,resources/DP.BMP,Door3,0.41,0.004444444,1,0,0,0.7317,optionRight,70,11380,5,34,0,34,0,1,,,,,,,,,,,,,,,,,,,,,,,,,,,,,,,,,,,,,,,
,,,,,,,,2023-08-16_08h35.58.797,HF_wild_card,2022.2.4,Win32,59.80145916,5f454fc543b5c9111aaedb33,64d2fd46c836a06233681665,64dc7b390f7d0a27f1e6c0d8,,,,,,,ctch,resources/DP.BMP,resources/DBN.BMP,Door3,-0.205555556,0.037777778,1,0,0,0.4847,optionLeft,70,11450,5,35,0,35,0,1,,,,,,,,,,,,,,,,,,,,,,,,,,,,,,,,,,,,,,,
,,,,,,,,2023-08-16_08h35.58.797,HF_wild_card,2022.2.4,Win32,59.80145916,5f454fc543b5c9111aaedb33,64d2fd46c836a06233681665,64dc7b390f7d0a27f1e6c0d8,,,,,,,decisionTrl,resources/DY.BMP,resources/DP.BMP,Door3,0.355555556,-0.016666667,1,0,0,0.7653,optionRight,70,11520,5,36,0,36,0,1,,,,,,,,,,,,,,,,,,,,,,,,,,,,,,,,,,,,,,,
,,,,,,,,2023-08-16_08h35.58.797,HF_wild_card,2022.2.4,Win32,59.80145916,5f454fc543b5c9111aaedb33,64d2fd46c836a06233681665,64dc7b390f7d0a27f1e6c0d8,,,,,,,decisionTrl,resources/DG.BMP,resources/DY.BMP,WildCard_Ex,0.281111111,-0.007777778,1,0,0,0.7153,optionRight,55,11575,5,37,0,37,0,1,,,,,,,,,,,,,,,,,,,,,,,,,,,,,,,,,,,,,,,
,,,,,,,,2023-08-16_08h35.58.797,HF_wild_card,2022.2.4,Win32,59.80145916,5f454fc543b5c9111aaedb33,64d2fd46c836a06233681665,64dc7b390f7d0a27f1e6c0d8,,,,,,,decisionTrl,resources/DP.BMP,resources/DG.BMP,Door3,-0.192222222,0.01,1,0,0,0.5818,optionLeft,70,11645,5,38,0,38,0,1,,,,,,,,,,,,,,,,,,,,,,,,,,,,,,,,,,,,,,,
,,,,,,,,2023-08-16_08h35.58.797,HF_wild_card,2022.2.4,Win32,59.80145916,5f454fc543b5c9111aaedb33,64d2fd46c836a06233681665,64dc7b390f7d0a27f1e6c0d8,,,,,,,sngl,resources/DY.BMP,resources/Empty.png,WildCard_Ex,-0.217777778,0.01,1,0,0,0.6941,optionLeft,45,11690,5,39,0,39,0,1,,,,,,,,,,,,,,,,,,,,,,,,,,,,,,,,,,,,,,,
,,,,,,,,2023-08-16_08h35.58.797,HF_wild_card,2022.2.4,Win32,59.80145916,5f454fc543b5c9111aaedb33,64d2fd46c836a06233681665,64dc7b390f7d0a27f1e6c0d8,,,,,,,decisionTrl,resources/DG.BMP,resources/DP.BMP,Door3,0.35,0,1,0,0,0.6317,optionRight,70,11760,5,40,0,40,0,1,,,,,,,,,,,,,,,,,,,,,,,,,,,,,,,,,,,,,,,
,,,,,,,,2023-08-16_08h35.58.797,HF_wild_card,2022.2.4,Win32,59.80145916,5f454fc543b5c9111aaedb33,64d2fd46c836a06233681665,64dc7b390f7d0a27f1e6c0d8,,,,,,,sngl,resources/DP.BMP,resources/Empty.png,Door3,-0.205555556,0.02,1,0,0,0.4794,optionLeft,70,11830,5,41,0,41,0,1,,,,,,,,,,,,,,,,,,,,,,,,,,,,,,,,,,,,,,,
,,,,,,,,2023-08-16_08h35.58.797,HF_wild_card,2022.2.4,Win32,59.80145916,5f454fc543b5c9111aaedb33,64d2fd46c836a06233681665,64dc7b390f7d0a27f1e6c0d8,,,,,,,decisionTrl,resources/DP.BMP,resources/DG.BMP,Door3,-0.228888889,-0.002222222,1,0,0,0.6152,optionLeft,70,11900,5,42,0,42,0,1,,,,,,,,,,,,,,,,,,,,,,,,,,,,,,,,,,,,,,,
,,,,,,,,2023-08-16_08h35.58.797,HF_wild_card,2022.2.4,Win32,59.80145916,5f454fc543b5c9111aaedb33,64d2fd46c836a06233681665,64dc7b390f7d0a27f1e6c0d8,,,,,,,ctch,resources/DG.BMP,resources/DB.BMP,Door4,-0.205555556,-0.004444444,1,0,0,1.7962,optionLeft,60,11960,5,43,0,43,0,1,,,,,,,,,,,,,,,,,,,,,,,,,,,,,,,,,,,,,,,
,,,,,,,,2023-08-16_08h35.58.797,HF_wild_card,2022.2.4,Win32,59.80145916,5f454fc543b5c9111aaedb33,64d2fd46c836a06233681665,64dc7b390f7d0a27f1e6c0d8,,,,,,,,,,,,,,,,,,,,,,,,,,4,0,4,0,1,,,,,,,,,,,,,,,,,,,,,,,,,,,,,,,,,,
,,,,,,,,2023-08-16_08h35.58.797,HF_wild_card,2022.2.4,Win32,59.80145916,5f454fc543b5c9111aaedb33,64d2fd46c836a06233681665,64dc7b390f7d0a27f1e6c0d8,,,,,,,decisionTrl,resources/DBN.BMP,resources/DB.BMP,Door1,0.36,0.01,1,0,0,0.8141,optionRight,30,11990,6,0,0,0,0,1,,,,,,,,,,,,,,,,,,,,,,,,,,,,,,,,,,,,,,,
,,,,,,,,2023-08-16_08h35.58.797,HF_wild_card,2022.2.4,Win32,59.80145916,5f454fc543b5c9111aaedb33,64d2fd46c836a06233681665,64dc7b390f7d0a27f1e6c0d8,,,,,,,sngl,resources/Empty.png,resources/DY.BMP,WildCard_Ex,0.452222222,-0.004444444,1,0,0,0.4877,optionRight,45,12035,6,1,0,1,0,1,,,,,,,,,,,,,,,,,,,,,,,,,,,,,,,,,,,,,,,
,,,,,,,,2023-08-16_08h35.58.797,HF_wild_card,2022.2.4,Win32,59.80145916,5f454fc543b5c9111aaedb33,64d2fd46c836a06233681665,64dc7b390f7d0a27f1e6c0d8,,,,,,,decisionTrl,resources/DG.BMP,resources/DP.BMP,Door3,0.355555556,0.006666667,1,0,0,1.0876,optionRight,70,12105,6,2,0,2,0,1,,,,,,,,,,,,,,,,,,,,,,,,,,,,,,,,,,,,,,,
,,,,,,,,2023-08-16_08h35.58.797,HF_wild_card,2022.2.4,Win32,59.80145916,5f454fc543b5c9111aaedb33,64d2fd46c836a06233681665,64dc7b390f7d0a27f1e6c0d8,,,,,,,ctch,resources/DP.BMP,resources/DBN.BMP,Door3,-0.198888889,0.038888889,1,0,0,1.1659,optionLeft,70,12175,6,3,0,3,0,1,,,,,,,,,,,,,,,,,,,,,,,,,,,,,,,,,,,,,,,
,,,,,,,,2023-08-16_08h35.58.797,HF_wild_card,2022.2.4,Win32,59.80145916,5f454fc543b5c9111aaedb33,64d2fd46c836a06233681665,64dc7b390f7d0a27f1e6c0d8,,,,,,,decisionTrl,resources/DB.BMP,resources/DBN.BMP,Door2,0.27,0.045555556,1,0,0,1.0328,optionRight,20,12195,6,4,0,4,0,1,,,,,,,,,,,,,,,,,,,,,,,,,,,,,,,,,,,,,,,
,,,,,,,,2023-08-16_08h35.58.797,HF_wild_card,2022.2.4,Win32,59.80145916,5f454fc543b5c9111aaedb33,64d2fd46c836a06233681665,64dc7b390f7d0a27f1e6c0d8,,,,,,,decisionTrl,resources/DP.BMP,resources/DG.BMP,Door3,-0.211111111,0.034444444,1,0,0,0.5802,optionLeft,70,12265,6,5,0,5,0,1,,,,,,,,,,,,,,,,,,,,,,,,,,,,,,,,,,,,,,,
,,,,,,,,2023-08-16_08h35.58.797,HF_wild_card,2022.2.4,Win32,59.80145916,5f454fc543b5c9111aaedb33,64d2fd46c836a06233681665,64dc7b390f7d0a27f1e6c0d8,,,,,,,decisionTrl,resources/DG.BMP,resources/DP.BMP,Door3,0.404444444,0,1,0,0,0.7169,optionRight,70,12335,6,6,0,6,0,1,,,,,,,,,,,,,,,,,,,,,,,,,,,,,,,,,,,,,,,
,,,,,,,,2023-08-16_08h35.58.797,HF_wild_card,2022.2.4,Win32,59.80145916,5f454fc543b5c9111aaedb33,64d2fd46c836a06233681665,64dc7b390f7d0a27f1e6c0d8,,,,,,,decisionTrl,resources/DP.BMP,resources/DG.BMP,Door3,-0.276666667,0.03,1,0,0,0.4645,optionLeft,70,12405,6,7,0,7,0,1,,,,,,,,,,,,,,,,,,,,,,,,,,,,,,,,,,,,,,,
,,,,,,,,2023-08-16_08h35.58.797,HF_wild_card,2022.2.4,Win32,59.80145916,5f454fc543b5c9111aaedb33,64d2fd46c836a06233681665,64dc7b390f7d0a27f1e6c0d8,,,,,,,decisionTrl,resources/DBN.BMP,resources/DB.BMP,Door1,0.363333333,-0.008888889,1,0,0,0.8995,optionRight,30,12435,6,8,0,8,0,1,,,,,,,,,,,,,,,,,,,,,,,,,,,,,,,,,,,,,,,
,,,,,,,,2023-08-16_08h35.58.797,HF_wild_card,2022.2.4,Win32,59.80145916,5f454fc543b5c9111aaedb33,64d2fd46c836a06233681665,64dc7b390f7d0a27f1e6c0d8,,,,,,,sngl,resources/DBN.BMP,resources/Empty.png,Door2,-0.186666667,0.034444444,1,0,0,0.4645,optionLeft,20,12455,6,9,0,9,0,1,,,,,,,,,,,,,,,,,,,,,,,,,,,,,,,,,,,,,,,
,,,,,,,,2023-08-16_08h35.58.797,HF_wild_card,2022.2.4,Win32,59.80145916,5f454fc543b5c9111aaedb33,64d2fd46c836a06233681665,64dc7b390f7d0a27f1e6c0d8,,,,,,,ctch,resources/DB.BMP,resources/DG.BMP,Door4,0.332222222,0.014444444,1,0,0,1.1994,optionRight,60,12515,6,10,0,10,0,1,,,,,,,,,,,,,,,,,,,,,,,,,,,,,,,,,,,,,,,
,,,,,,,,2023-08-16_08h35.58.797,HF_wild_card,2022.2.4,Win32,59.80145916,5f454fc543b5c9111aaedb33,64d2fd46c836a06233681665,64dc7b390f7d0a27f1e6c0d8,,,,,,,sngl,resources/DB.BMP,resources/Empty.png,Door1,-0.205555556,0.053333333,1,0,0,0.4601,optionLeft,30,12545,6,11,0,11,0,1,,,,,,,,,,,,,,,,,,,,,,,,,,,,,,,,,,,,,,,
,,,,,,,,2023-08-16_08h35.58.797,HF_wild_card,2022.2.4,Win32,59.80145916,5f454fc543b5c9111aaedb33,64d2fd46c836a06233681665,64dc7b390f7d0a27f1e6c0d8,,,,,,,ctch,resources/DB.BMP,resources/DG.BMP,Door4,0.268888889,-0.013333333,1,0,0,0.8948,optionRight,60,12605,6,12,0,12,0,1,,,,,,,,,,,,,,,,,,,,,,,,,,,,,,,,,,,,,,,
,,,,,,,,2023-08-16_08h35.58.797,HF_wild_card,2022.2.4,Win32,59.80145916,5f454fc543b5c9111aaedb33,64d2fd46c836a06233681665,64dc7b390f7d0a27f1e6c0d8,,,,,,,decisionTrl,resources/DB.BMP,resources/DBN.BMP,Door1,-0.181111111,0.012222222,1,0,0,0.7285,optionLeft,30,12635,6,13,0,13,0,1,,,,,,,,,,,,,,,,,,,,,,,,,,,,,,,,,,,,,,,
,,,,,,,,2023-08-16_08h35.58.797,HF_wild_card,2022.2.4,Win32,59.80145916,5f454fc543b5c9111aaedb33,64d2fd46c836a06233681665,64dc7b390f7d0a27f1e6c0d8,,,,,,,decisionTrl,resources/DY.BMP,resources/DBN.BMP,WildCard_Ex,-0.224444444,0.027777778,1,0,0,0.7988,optionLeft,45,12680,6,14,0,14,0,1,,,,,,,,,,,,,,,,,,,,,,,,,,,,,,,,,,,,,,,
,,,,,,,,2023-08-16_08h35.58.797,HF_wild_card,2022.2.4,Win32,59.80145916,5f454fc543b5c9111aaedb33,64d2fd46c836a06233681665,64dc7b390f7d0a27f1e6c0d8,,,,,,,decisionTrl,resources/DP.BMP,resources/DY.BMP,Door3,-0.213333333,0.022222222,1,0,0,0.9328,optionLeft,70,12750,6,15,0,15,0,1,,,,,,,,,,,,,,,,,,,,,,,,,,,,,,,,,,,,,,,
,,,,,,,,2023-08-16_08h35.58.797,HF_wild_card,2022.2.4,Win32,59.80145916,5f454fc543b5c9111aaedb33,64d2fd46c836a06233681665,64dc7b390f7d0a27f1e6c0d8,,,,,,,sngl,resources/Empty.png,resources/DBN.BMP,Door2,0.431111111,0.035555556,1,0,0,0.4647,optionRight,40,12790,6,16,0,16,0,1,,,,,,,,,,,,,,,,,,,,,,,,,,,,,,,,,,,,,,,
,,,,,,,,2023-08-16_08h35.58.797,HF_wild_card,2022.2.4,Win32,59.80145916,5f454fc543b5c9111aaedb33,64d2fd46c836a06233681665,64dc7b390f7d0a27f1e6c0d8,,,,,,,decisionTrl,resources/DBN.BMP,resources/DB.BMP,Door1,0.403333333,0.017777778,1,0,0,0.9151,optionRight,30,12820,6,17,0,17,0,1,,,,,,,,,,,,,,,,,,,,,,,,,,,,,,,,,,,,,,,
,,,,,,,,2023-08-16_08h35.58.797,HF_wild_card,2022.2.4,Win32,59.80145916,5f454fc543b5c9111aaedb33,64d2fd46c836a06233681665,64dc7b390f7d0a27f1e6c0d8,,,,,,,decisionTrl,resources/DP.BMP,resources/DG.BMP,Door3,-0.192222222,0.033333333,1,0,0,0.4478,optionLeft,70,12890,6,18,0,18,0,1,,,,,,,,,,,,,,,,,,,,,,,,,,,,,,,,,,,,,,,
,,,,,,,,2023-08-16_08h35.58.797,HF_wild_card,2022.2.4,Win32,59.80145916,5f454fc543b5c9111aaedb33,64d2fd46c836a06233681665,64dc7b390f7d0a27f1e6c0d8,,,,,,,sngl,resources/Empty.png,resources/DY.BMP,WildCard_Ex,0.416666667,0,1,0,0,0.4482,optionRight,55,12945,6,19,0,19,0,1,,,,,,,,,,,,,,,,,,,,,,,,,,,,,,,,,,,,,,,
,,,,,,,,2023-08-16_08h35.58.797,HF_wild_card,2022.2.4,Win32,59.80145916,5f454fc543b5c9111aaedb33,64d2fd46c836a06233681665,64dc7b390f7d0a27f1e6c0d8,,,,,,,decisionTrl,resources/DY.BMP,resources/DP.BMP,Door3,0.307777778,-0.005555556,1,0,0,1.1542,optionRight,70,13015,6,20,0,20,0,1,,,,,,,,,,,,,,,,,,,,,,,,,,,,,,,,,,,,,,,
,,,,,,,,2023-08-16_08h35.58.797,HF_wild_card,2022.2.4,Win32,59.80145916,5f454fc543b5c9111aaedb33,64d2fd46c836a06233681665,64dc7b390f7d0a27f1e6c0d8,,,,,,,sngl,resources/DY.BMP,resources/Empty.png,WildCard_Ex,-0.112222222,0.02,1,0,0,0.6821,optionLeft,45,13060,6,21,0,21,0,1,,,,,,,,,,,,,,,,,,,,,,,,,,,,,,,,,,,,,,,
,,,,,,,,2023-08-16_08h35.58.797,HF_wild_card,2022.2.4,Win32,59.80145916,5f454fc543b5c9111aaedb33,64d2fd46c836a06233681665,64dc7b390f7d0a27f1e6c0d8,,,,,,,ctch,resources/DP.BMP,resources/DBN.BMP,Door3,-0.243333333,0.007777778,1,0,0,0.7114,optionLeft,70,13130,6,22,0,22,0,1,,,,,,,,,,,,,,,,,,,,,,,,,,,,,,,,,,,,,,,
,,,,,,,,2023-08-16_08h35.58.797,HF_wild_card,2022.2.4,Win32,59.80145916,5f454fc543b5c9111aaedb33,64d2fd46c836a06233681665,64dc7b390f7d0a27f1e6c0d8,,,,,,,decisionTrl,resources/DB.BMP,resources/DBN.BMP,Door1,-0.194444444,0.011111111,1,0,0,0.8844,optionLeft,30,13160,6,23,0,23,0,1,,,,,,,,,,,,,,,,,,,,,,,,,,,,,,,,,,,,,,,
,,,,,,,,2023-08-16_08h35.58.797,HF_wild_card,2022.2.4,Win32,59.80145916,5f454fc543b5c9111aaedb33,64d2fd46c836a06233681665,64dc7b390f7d0a27f1e6c0d8,,,,,,,decisionTrl,resources/DBN.BMP,resources/DY.BMP,WildCard_Ex,0.347777778,0.012222222,1,0,0,0.6981,optionRight,55,13215,6,24,0,24,0,1,,,,,,,,,,,,,,,,,,,,,,,,,,,,,,,,,,,,,,,
,,,,,,,,2023-08-16_08h35.58.797,HF_wild_card,2022.2.4,Win32,59.80145916,5f454fc543b5c9111aaedb33,64d2fd46c836a06233681665,64dc7b390f7d0a27f1e6c0d8,,,,,,,decisionTrl,resources/DB.BMP,resources/DY.BMP,WildCard_Ex,0.292222222,0.007777778,1,0,0,0.7963,optionRight,45,13260,6,25,0,25,0,1,,,,,,,,,,,,,,,,,,,,,,,,,,,,,,,,,,,,,,,
,,,,,,,,2023-08-16_08h35.58.797,HF_wild_card,2022.2.4,Win32,59.80145916,5f454fc543b5c9111aaedb33,64d2fd46c836a06233681665,64dc7b390f7d0a27f1e6c0d8,,,,,,,ctch,resources/DG.BMP,resources/DB.BMP,Door1,0.374444444,0.005555556,1,0,0,0.5319,optionRight,30,13290,6,26,0,26,0,1,,,,,,,,,,,,,,,,,,,,,,,,,,,,,,,,,,,,,,,
,,,,,,,,2023-08-16_08h35.58.797,HF_wild_card,2022.2.4,Win32,59.80145916,5f454fc543b5c9111aaedb33,64d2fd46c836a06233681665,64dc7b390f7d0a27f1e6c0d8,,,,,,,sngl,resources/Empty.png,resources/DG.BMP,Door4,0.283333333,0.005555556,1,0,0,0.4472,optionRight,80,13370,6,27,0,27,0,1,,,,,,,,,,,,,,,,,,,,,,,,,,,,,,,,,,,,,,,
,,,,,,,,2023-08-16_08h35.58.797,HF_wild_card,2022.2.4,Win32,59.80145916,5f454fc543b5c9111aaedb33,64d2fd46c836a06233681665,64dc7b390f7d0a27f1e6c0d8,,,,,,,decisionTrl,resources/DG.BMP,resources/DY.BMP,Door4,-0.226666667,0.02,1,0,0,0.4672,optionLeft,60,13430,6,28,0,28,0,1,,,,,,,,,,,,,,,,,,,,,,,,,,,,,,,,,,,,,,,
,,,,,,,,2023-08-16_08h35.58.797,HF_wild_card,2022.2.4,Win32,59.80145916,5f454fc543b5c9111aaedb33,64d2fd46c836a06233681665,64dc7b390f7d0a27f1e6c0d8,,,,,,,sngl,resources/DG.BMP,resources/Empty.png,Door4,-0.26,0.031111111,1,0,0,0.4455,optionLeft,60,13490,6,29,0,29,0,1,,,,,,,,,,,,,,,,,,,,,,,,,,,,,,,,,,,,,,,
,,,,,,,,2023-08-16_08h35.58.797,HF_wild_card,2022.2.4,Win32,59.80145916,5f454fc543b5c9111aaedb33,64d2fd46c836a06233681665,64dc7b390f7d0a27f1e6c0d8,,,,,,,decisionTrl,resources/DY.BMP,resources/DB.BMP,WildCard_Ex,-0.175555556,0.005555556,1,0,0,1.2837,optionLeft,55,13545,6,30,0,30,0,1,,,,,,,,,,,,,,,,,,,,,,,,,,,,,,,,,,,,,,,
,,,,,,,,2023-08-16_08h35.58.797,HF_wild_card,2022.2.4,Win32,59.80145916,5f454fc543b5c9111aaedb33,64d2fd46c836a06233681665,64dc7b390f7d0a27f1e6c0d8,,,,,,,decisionTrl,resources/DY.BMP,resources/DG.BMP,WildCard_Ex,-0.193333333,0.014444444,1,0,0,0.5649,optionLeft,55,13600,6,31,0,31,0,1,,,,,,,,,,,,,,,,,,,,,,,,,,,,,,,,,,,,,,,
,,,,,,,,2023-08-16_08h35.58.797,HF_wild_card,2022.2.4,Win32,59.80145916,5f454fc543b5c9111aaedb33,64d2fd46c836a06233681665,64dc7b390f7d0a27f1e6c0d8,,,,,,,ctch,resources/DBN.BMP,resources/DP.BMP,Door3,0.33,-0.004444444,1,0,0,0.6112,optionRight,70,13670,6,32,0,32,0,1,,,,,,,,,,,,,,,,,,,,,,,,,,,,,,,,,,,,,,,
,,,,,,,,2023-08-16_08h35.58.797,HF_wild_card,2022.2.4,Win32,59.80145916,5f454fc543b5c9111aaedb33,64d2fd46c836a06233681665,64dc7b390f7d0a27f1e6c0d8,,,,,,,sngl,resources/Empty.png,resources/DB.BMP,Door1,0.295555556,-0.006666667,1,0,0,0.4861,optionRight,30,13700,6,33,0,33,0,1,,,,,,,,,,,,,,,,,,,,,,,,,,,,,,,,,,,,,,,
,,,,,,,,2023-08-16_08h35.58.797,HF_wild_card,2022.2.4,Win32,59.80145916,5f454fc543b5c9111aaedb33,64d2fd46c836a06233681665,64dc7b390f7d0a27f1e6c0d8,,,,,,,decisionTrl,resources/DG.BMP,resources/DP.BMP,Door3,0.28,-0.003333333,1,0,0,0.7292,optionRight,70,13770,6,34,0,34,0,1,,,,,,,,,,,,,,,,,,,,,,,,,,,,,,,,,,,,,,,
,,,,,,,,2023-08-16_08h35.58.797,HF_wild_card,2022.2.4,Win32,59.80145916,5f454fc543b5c9111aaedb33,64d2fd46c836a06233681665,64dc7b390f7d0a27f1e6c0d8,,,,,,,decisionTrl,resources/DBN.BMP,resources/DB.BMP,Door2,-0.18,-0.001111111,1,0,0,1.0491,optionLeft,40,13810,6,35,0,35,0,1,,,,,,,,,,,,,,,,,,,,,,,,,,,,,,,,,,,,,,,
,,,,,,,,2023-08-16_08h35.58.797,HF_wild_card,2022.2.4,Win32,59.80145916,5f454fc543b5c9111aaedb33,64d2fd46c836a06233681665,64dc7b390f7d0a27f1e6c0d8,,,,,,,sngl,resources/Empty.png,resources/DP.BMP,Door3,0.386666667,-0.002222222,1,0,0,0.4477,optionRight,70,13880,6,36,0,36,0,1,,,,,,,,,,,,,,,,,,,,,,,,,,,,,,,,,,,,,,,
,,,,,,,,2023-08-16_08h35.58.797,HF_wild_card,2022.2.4,Win32,59.80145916,5f454fc543b5c9111aaedb33,64d2fd46c836a06233681665,64dc7b390f7d0a27f1e6c0d8,,,,,,,decisionTrl,resources/DG.BMP,resources/DP.BMP,Door3,0.294444444,-0.006666667,1,0,0,0.7485,optionRight,70,13950,6,37,0,37,0,1,,,,,,,,,,,,,,,,,,,,,,,,,,,,,,,,,,,,,,,
,,,,,,,,2023-08-16_08h35.58.797,HF_wild_card,2022.2.4,Win32,59.80145916,5f454fc543b5c9111aaedb33,64d2fd46c836a06233681665,64dc7b390f7d0a27f1e6c0d8,,,,,,,decisionTrl,resources/DP.BMP,resources/DG.BMP,Door3,-0.237777778,0.018888889,1,0,0,0.462,optionLeft,70,14020,6,38,0,38,0,1,,,,,,,,,,,,,,,,,,,,,,,,,,,,,,,,,,,,,,,
,,,,,,,,2023-08-16_08h35.58.797,HF_wild_card,2022.2.4,Win32,59.80145916,5f454fc543b5c9111aaedb33,64d2fd46c836a06233681665,64dc7b390f7d0a27f1e6c0d8,,,,,,,sngl,resources/DP.BMP,resources/Empty.png,Door3,-0.228888889,0.017777778,1,0,0,0.4482,optionLeft,70,14090,6,39,0,39,0,1,,,,,,,,,,,,,,,,,,,,,,,,,,,,,,,,,,,,,,,
,,,,,,,,2023-08-16_08h35.58.797,HF_wild_card,2022.2.4,Win32,59.80145916,5f454fc543b5c9111aaedb33,64d2fd46c836a06233681665,64dc7b390f7d0a27f1e6c0d8,,,,,,,ctch,resources/DBN.BMP,resources/DP.BMP,Door3,0.338888889,-0.01,1,0,0,0.5775,optionRight,70,14160,6,40,0,40,0,1,,,,,,,,,,,,,,,,,,,,,,,,,,,,,,,,,,,,,,,
,,,,,,,,2023-08-16_08h35.58.797,HF_wild_card,2022.2.4,Win32,59.80145916,5f454fc543b5c9111aaedb33,64d2fd46c836a06233681665,64dc7b390f7d0a27f1e6c0d8,,,,,,,ctch,resources/DG.BMP,resources/DB.BMP,Door4,-0.148888889,-0.001111111,1,0,0,1.4172,optionLeft,60,14220,6,41,0,41,0,1,,,,,,,,,,,,,,,,,,,,,,,,,,,,,,,,,,,,,,,
,,,,,,,,2023-08-16_08h35.58.797,HF_wild_card,2022.2.4,Win32,59.80145916,5f454fc543b5c9111aaedb33,64d2fd46c836a06233681665,64dc7b390f7d0a27f1e6c0d8,,,,,,,decisionTrl,resources/DB.BMP,resources/DBN.BMP,Door1,-0.175555556,0,1,0,0,1.288,optionLeft,30,14250,6,42,0,42,0,1,,,,,,,,,,,,,,,,,,,,,,,,,,,,,,,,,,,,,,,
,,,,,,,,2023-08-16_08h35.58.797,HF_wild_card,2022.2.4,Win32,59.80145916,5f454fc543b5c9111aaedb33,64d2fd46c836a06233681665,64dc7b390f7d0a27f1e6c0d8,,,,,,,sngl,resources/DY.BMP,resources/Empty.png,WildCard_Ex,-0.19,0.003333333,1,0,0,0.46,optionLeft,55,14305,6,43,0,43,0,1,,,,,,,,,,,,,,,,,,,,,,,,,,,,,,,,,,,,,,,
,,,,,,,,2023-08-16_08h35.58.797,HF_wild_card,2022.2.4,Win32,59.80145916,5f454fc543b5c9111aaedb33,64d2fd46c836a06233681665,64dc7b390f7d0a27f1e6c0d8,,,,,,,,,,,,,,,,,,,,,,,,,,5,0,5,0,1,,,,,,,,,,,,,,,,,,,,,,,,,,,,,,,,,,
,,,,,,,,2023-08-16_08h35.58.797,HF_wild_card,2022.2.4,Win32,59.80145916,5f454fc543b5c9111aaedb33,64d2fd46c836a06233681665,64dc7b390f7d0a27f1e6c0d8,,,,,,,decisionTrl,resources/DBN.BMP,resources/DB.BMP,Door1,0.284444444,0.062222222,1,0,0,0.9975,optionRight,30,14335,7,0,0,0,0,1,,,,,,,,,,,,,,,,,,,,,,,,,,,,,,,,,,,,,,,
,,,,,,,,2023-08-16_08h35.58.797,HF_wild_card,2022.2.4,Win32,59.80145916,5f454fc543b5c9111aaedb33,64d2fd46c836a06233681665,64dc7b390f7d0a27f1e6c0d8,,,,,,,decisionTrl,resources/DP.BMP,resources/DG.BMP,Door3,-0.191111111,0.016666667,1,0,0,0.8642,optionLeft,70,14405,7,1,0,1,0,1,,,,,,,,,,,,,,,,,,,,,,,,,,,,,,,,,,,,,,,
,,,,,,,,2023-08-16_08h35.58.797,HF_wild_card,2022.2.4,Win32,59.80145916,5f454fc543b5c9111aaedb33,64d2fd46c836a06233681665,64dc7b390f7d0a27f1e6c0d8,,,,,,,ctch,resources/DBN.BMP,resources/DP.BMP,Door3,0.263333333,0.008888889,1,0,0,0.5288,optionRight,70,14475,7,2,0,2,0,1,,,,,,,,,,,,,,,,,,,,,,,,,,,,,,,,,,,,,,,
,,,,,,,,2023-08-16_08h35.58.797,HF_wild_card,2022.2.4,Win32,59.80145916,5f454fc543b5c9111aaedb33,64d2fd46c836a06233681665,64dc7b390f7d0a27f1e6c0d8,,,,,,,decisionTrl,resources/DB.BMP,resources/DBN.BMP,Door1,-0.214444444,0.017777778,1,0,0,0.8289,optionLeft,30,14505,7,3,0,3,0,1,,,,,,,,,,,,,,,,,,,,,,,,,,,,,,,,,,,,,,,
,,,,,,,,2023-08-16_08h35.58.797,HF_wild_card,2022.2.4,Win32,59.80145916,5f454fc543b5c9111aaedb33,64d2fd46c836a06233681665,64dc7b390f7d0a27f1e6c0d8,,,,,,,decisionTrl,resources/DB.BMP,resources/DBN.BMP,Door1,-0.213333333,0.012222222,1,0,0,0.6132,optionLeft,30,14535,7,4,0,4,0,1,,,,,,,,,,,,,,,,,,,,,,,,,,,,,,,,,,,,,,,
,,,,,,,,2023-08-16_08h35.58.797,HF_wild_card,2022.2.4,Win32,59.80145916,5f454fc543b5c9111aaedb33,64d2fd46c836a06233681665,64dc7b390f7d0a27f1e6c0d8,,,,,,,ctch,resources/DBN.BMP,resources/DP.BMP,Door3,0.294444444,0.013333333,1,0,0,0.7665,optionRight,70,14605,7,5,0,5,0,1,,,,,,,,,,,,,,,,,,,,,,,,,,,,,,,,,,,,,,,
,,,,,,,,2023-08-16_08h35.58.797,HF_wild_card,2022.2.4,Win32,59.80145916,5f454fc543b5c9111aaedb33,64d2fd46c836a06233681665,64dc7b390f7d0a27f1e6c0d8,,,,,,,ctch,resources/DP.BMP,resources/DBN.BMP,Door3,-0.292222222,0.035555556,1,0,0,0.5046,optionLeft,70,14675,7,6,0,6,0,1,,,,,,,,,,,,,,,,,,,,,,,,,,,,,,,,,,,,,,,
,,,,,,,,2023-08-16_08h35.58.797,HF_wild_card,2022.2.4,Win32,59.80145916,5f454fc543b5c9111aaedb33,64d2fd46c836a06233681665,64dc7b390f7d0a27f1e6c0d8,,,,,,,ctch,resources/DBN.BMP,resources/DP.BMP,Door3,0.172222222,0.015555556,1,0,0,0.5163,optionRight,70,14745,7,7,0,7,0,1,,,,,,,,,,,,,,,,,,,,,,,,,,,,,,,,,,,,,,,
,,,,,,,,2023-08-16_08h35.58.797,HF_wild_card,2022.2.4,Win32,59.80145916,5f454fc543b5c9111aaedb33,64d2fd46c836a06233681665,64dc7b390f7d0a27f1e6c0d8,,,,,,,decisionTrl,resources/DP.BMP,resources/DG.BMP,Door3,-0.196666667,0.027777778,1,0,0,0.5025,optionLeft,70,14815,7,8,0,8,0,1,,,,,,,,,,,,,,,,,,,,,,,,,,,,,,,,,,,,,,,
,,,,,,,,2023-08-16_08h35.58.797,HF_wild_card,2022.2.4,Win32,59.80145916,5f454fc543b5c9111aaedb33,64d2fd46c836a06233681665,64dc7b390f7d0a27f1e6c0d8,,,,,,,ctch,resources/DB.BMP,resources/DG.BMP,Door4,0.327777778,0.01,1,0,0,0.8124,optionRight,80,14895,7,9,0,9,0,1,,,,,,,,,,,,,,,,,,,,,,,,,,,,,,,,,,,,,,,
,,,,,,,,2023-08-16_08h35.58.797,HF_wild_card,2022.2.4,Win32,59.80145916,5f454fc543b5c9111aaedb33,64d2fd46c836a06233681665,64dc7b390f7d0a27f1e6c0d8,,,,,,,decisionTrl,resources/DG.BMP,resources/DP.BMP,Door3,0.381111111,-0.005555556,1,0,0,0.75,optionRight,70,14965,7,10,0,10,0,1,,,,,,,,,,,,,,,,,,,,,,,,,,,,,,,,,,,,,,,
,,,,,,,,2023-08-16_08h35.58.797,HF_wild_card,2022.2.4,Win32,59.80145916,5f454fc543b5c9111aaedb33,64d2fd46c836a06233681665,64dc7b390f7d0a27f1e6c0d8,,,,,,,decisionTrl,resources/DBN.BMP,resources/DB.BMP,Door1,0.274444444,0.073333333,1,0,0,0.7115,optionRight,30,14995,7,11,0,11,0,1,,,,,,,,,,,,,,,,,,,,,,,,,,,,,,,,,,,,,,,
,,,,,,,,2023-08-16_08h35.58.797,HF_wild_card,2022.2.4,Win32,59.80145916,5f454fc543b5c9111aaedb33,64d2fd46c836a06233681665,64dc7b390f7d0a27f1e6c0d8,,,,,,,decisionTrl,resources/DP.BMP,resources/DG.BMP,Door3,-0.183333333,0.023333333,1,0,0,0.6832,optionLeft,70,15065,7,12,0,12,0,1,,,,,,,,,,,,,,,,,,,,,,,,,,,,,,,,,,,,,,,
,,,,,,,,2023-08-16_08h35.58.797,HF_wild_card,2022.2.4,Win32,59.80145916,5f454fc543b5c9111aaedb33,64d2fd46c836a06233681665,64dc7b390f7d0a27f1e6c0d8,,,,,,,decisionTrl,resources/DG.BMP,resources/DP.BMP,Door3,0.298888889,0.01,1,0,0,0.7287,optionRight,70,15135,7,13,0,13,0,1,,,,,,,,,,,,,,,,,,,,,,,,,,,,,,,,,,,,,,,
,,,,,,,,2023-08-16_08h35.58.797,HF_wild_card,2022.2.4,Win32,59.80145916,5f454fc543b5c9111aaedb33,64d2fd46c836a06233681665,64dc7b390f7d0a27f1e6c0d8,,,,,,,decisionTrl,resources/DB.BMP,resources/DBN.BMP,Door1,-0.312222222,0.023333333,1,0,0,1.0509,optionLeft,30,15165,7,14,0,14,0,1,,,,,,,,,,,,,,,,,,,,,,,,,,,,,,,,,,,,,,,
,,,,,,,,2023-08-16_08h35.58.797,HF_wild_card,2022.2.4,Win32,59.80145916,5f454fc543b5c9111aaedb33,64d2fd46c836a06233681665,64dc7b390f7d0a27f1e6c0d8,,,,,,,decisionTrl,resources/DG.BMP,resources/DP.BMP,Door3,0.256666667,0,1,0,0,0.8672,optionRight,70,15235,7,15,0,15,0,1,,,,,,,,,,,,,,,,,,,,,,,,,,,,,,,,,,,,,,,
,,,,,,,,2023-08-16_08h35.58.797,HF_wild_card,2022.2.4,Win32,59.80145916,5f454fc543b5c9111aaedb33,64d2fd46c836a06233681665,64dc7b390f7d0a27f1e6c0d8,,,,,,,decisionTrl,resources/DB.BMP,resources/DBN.BMP,Door1,-0.274444444,0.035555556,1,0,0,0.5828,optionLeft,30,15265,7,16,0,16,0,1,,,,,,,,,,,,,,,,,,,,,,,,,,,,,,,,,,,,,,,
,,,,,,,,2023-08-16_08h35.58.797,HF_wild_card,2022.2.4,Win32,59.80145916,5f454fc543b5c9111aaedb33,64d2fd46c836a06233681665,64dc7b390f7d0a27f1e6c0d8,,,,,,,decisionTrl,resources/DB.BMP,resources/DBN.BMP,Door1,-0.213333333,0.023333333,1,0,0,0.4953,optionLeft,30,15295,7,17,0,17,0,1,,,,,,,,,,,,,,,,,,,,,,,,,,,,,,,,,,,,,,,
,,,,,,,,2023-08-16_08h35.58.797,HF_wild_card,2022.2.4,Win32,59.80145916,5f454fc543b5c9111aaedb33,64d2fd46c836a06233681665,64dc7b390f7d0a27f1e6c0d8,,,,,,,ctch,resources/DB.BMP,resources/DG.BMP,Door1,-0.311111111,0.011111111,1,0,0,0.4995,optionLeft,30,15325,7,18,0,18,0,1,,,,,,,,,,,,,,,,,,,,,,,,,,,,,,,,,,,,,,,
,,,,,,,,2023-08-16_08h35.58.797,HF_wild_card,2022.2.4,Win32,59.80145916,5f454fc543b5c9111aaedb33,64d2fd46c836a06233681665,64dc7b390f7d0a27f1e6c0d8,,,,,,,ctch,resources/DP.BMP,resources/DBN.BMP,Door3,-0.243333333,-0.001111111,1,0,0,0.7328,optionLeft,70,15395,7,19,0,19,0,1,,,,,,,,,,,,,,,,,,,,,,,,,,,,,,,,,,,,,,,
,,,,,,,,2023-08-16_08h35.58.797,HF_wild_card,2022.2.4,Win32,59.80145916,5f454fc543b5c9111aaedb33,64d2fd46c836a06233681665,64dc7b390f7d0a27f1e6c0d8,,,,,,,decisionTrl,resources/DG.BMP,resources/DP.BMP,Door3,0.308888889,0.006666667,1,0,0,0.516,optionRight,70,15465,7,20,0,20,0,1,,,,,,,,,,,,,,,,,,,,,,,,,,,,,,,,,,,,,,,
,,,,,,,,2023-08-16_08h35.58.797,HF_wild_card,2022.2.4,Win32,59.80145916,5f454fc543b5c9111aaedb33,64d2fd46c836a06233681665,64dc7b390f7d0a27f1e6c0d8,,,,,,,decisionTrl,resources/DBN.BMP,resources/DB.BMP,Door1,0.237777778,0.016666667,1,0,0,0.9811,optionRight,30,15495,7,21,0,21,0,1,,,,,,,,,,,,,,,,,,,,,,,,,,,,,,,,,,,,,,,
,,,,,,,,2023-08-16_08h35.58.797,HF_wild_card,2022.2.4,Win32,59.80145916,5f454fc543b5c9111aaedb33,64d2fd46c836a06233681665,64dc7b390f7d0a27f1e6c0d8,,,,,,,ctch,resources/DG.BMP,resources/DB.BMP,Door4,-0.168888889,0.011111111,1,0,0,0.867,optionLeft,60,15555,7,22,0,22,0,1,,,,,,,,,,,,,,,,,,,,,,,,,,,,,,,,,,,,,,,
,,,,,,,,2023-08-16_08h35.58.797,HF_wild_card,2022.2.4,Win32,59.80145916,5f454fc543b5c9111aaedb33,64d2fd46c836a06233681665,64dc7b390f7d0a27f1e6c0d8,,,,,,,ctch,resources/DP.BMP,resources/DBN.BMP,Door3,-0.195555556,0.012222222,1,0,0,0.5784,optionLeft,70,15625,7,23,0,23,0,1,,,,,,,,,,,,,,,,,,,,,,,,,,,,,,,,,,,,,,,
,,,,,,,,2023-08-16_08h35.58.797,HF_wild_card,2022.2.4,Win32,59.80145916,5f454fc543b5c9111aaedb33,64d2fd46c836a06233681665,64dc7b390f7d0a27f1e6c0d8,,,,,,,ctch,resources/DB.BMP,resources/DG.BMP,Door4,0.344444444,0,1,0,0,0.8044,optionRight,60,15685,7,24,0,24,0,1,,,,,,,,,,,,,,,,,,,,,,,,,,,,,,,,,,,,,,,
,,,,,,,,2023-08-16_08h35.58.797,HF_wild_card,2022.2.4,Win32,59.80145916,5f454fc543b5c9111aaedb33,64d2fd46c836a06233681665,64dc7b390f7d0a27f1e6c0d8,,,,,,,decisionTrl,resources/DBN.BMP,resources/DB.BMP,Door1,0.355555556,0.012222222,1,0,0,0.7207,optionRight,30,15715,7,25,0,25,0,1,,,,,,,,,,,,,,,,,,,,,,,,,,,,,,,,,,,,,,,
,,,,,,,,2023-08-16_08h35.58.797,HF_wild_card,2022.2.4,Win32,59.80145916,5f454fc543b5c9111aaedb33,64d2fd46c836a06233681665,64dc7b390f7d0a27f1e6c0d8,,,,,,,ctch,resources/DG.BMP,resources/DB.BMP,Door1,0.265555556,0.002222222,1,0,0,0.984,optionRight,30,15745,7,26,0,26,0,1,,,,,,,,,,,,,,,,,,,,,,,,,,,,,,,,,,,,,,,
,,,,,,,,2023-08-16_08h35.58.797,HF_wild_card,2022.2.4,Win32,59.80145916,5f454fc543b5c9111aaedb33,64d2fd46c836a06233681665,64dc7b390f7d0a27f1e6c0d8,,,,,,,ctch,resources/DG.BMP,resources/DB.BMP,Door4,-0.161111111,0.012222222,1,0,0,0.6831,optionLeft,60,15805,7,27,0,27,0,1,,,,,,,,,,,,,,,,,,,,,,,,,,,,,,,,,,,,,,,
,,,,,,,,2023-08-16_08h35.58.797,HF_wild_card,2022.2.4,Win32,59.80145916,5f454fc543b5c9111aaedb33,64d2fd46c836a06233681665,64dc7b390f7d0a27f1e6c0d8,,,,,,,decisionTrl,resources/DP.BMP,resources/DG.BMP,Door3,-0.165555556,0.013333333,1,0,0,0.6662,optionLeft,70,15875,7,28,0,28,0,1,,,,,,,,,,,,,,,,,,,,,,,,,,,,,,,,,,,,,,,
,,,,,,,,2023-08-16_08h35.58.797,HF_wild_card,2022.2.4,Win32,59.80145916,5f454fc543b5c9111aaedb33,64d2fd46c836a06233681665,64dc7b390f7d0a27f1e6c0d8,,,,,,,decisionTrl,resources/DBN.BMP,resources/DB.BMP,Door1,0.385555556,-0.011111111,1,0,0,0.547,optionRight,30,15905,7,29,0,29,0,1,,,,,,,,,,,,,,,,,,,,,,,,,,,,,,,,,,,,,,,
,,,,,,,,2023-08-16_08h35.58.797,HF_wild_card,2022.2.4,Win32,59.80145916,5f454fc543b5c9111aaedb33,64d2fd46c836a06233681665,64dc7b390f7d0a27f1e6c0d8,,,,,,,decisionTrl,resources/DBN.BMP,resources/DB.BMP,Door1,0.326666667,0.003333333,1,0,0,0.7,optionRight,30,15935,7,30,0,30,0,1,,,,,,,,,,,,,,,,,,,,,,,,,,,,,,,,,,,,,,,
,,,,,,,,2023-08-16_08h35.58.797,HF_wild_card,2022.2.4,Win32,59.80145916,5f454fc543b5c9111aaedb33,64d2fd46c836a06233681665,64dc7b390f7d0a27f1e6c0d8,,,,,,,decisionTrl,resources/DP.BMP,resources/DG.BMP,Door3,-0.162222222,0.017777778,1,0,0,0.583,optionLeft,70,16005,7,31,0,31,0,1,,,,,,,,,,,,,,,,,,,,,,,,,,,,,,,,,,,,,,,
,,,,,,,,2023-08-16_08h35.58.797,HF_wild_card,2022.2.4,Win32,59.80145916,5f454fc543b5c9111aaedb33,64d2fd46c836a06233681665,64dc7b390f7d0a27f1e6c0d8,,,,,,,decisionTrl,resources/DB.BMP,resources/DBN.BMP,Door1,-0.244444444,0.013333333,1,0,0,0.5996,optionLeft,30,16035,7,32,0,32,0,1,,,,,,,,,,,,,,,,,,,,,,,,,,,,,,,,,,,,,,,
,,,,,,,,2023-08-16_08h35.58.797,HF_wild_card,2022.2.4,Win32,59.80145916,5f454fc543b5c9111aaedb33,64d2fd46c836a06233681665,64dc7b390f7d0a27f1e6c0d8,,,,,,,decisionTrl,resources/DG.BMP,resources/DP.BMP,Door3,0.255555556,-0.017777778,1,0,0,0.8004,optionRight,70,16105,7,33,0,33,0,1,,,,,,,,,,,,,,,,,,,,,,,,,,,,,,,,,,,,,,,
,,,,,,,,2023-08-16_08h35.58.797,HF_wild_card,2022.2.4,Win32,59.80145916,5f454fc543b5c9111aaedb33,64d2fd46c836a06233681665,64dc7b390f7d0a27f1e6c0d8,,,,,,,decisionTrl,resources/DG.BMP,resources/DP.BMP,Door4,-0.183333333,0.008888889,1,0,0,0.629,optionLeft,60,16165,7,34,0,34,0,1,,,,,,,,,,,,,,,,,,,,,,,,,,,,,,,,,,,,,,,
,,,,,,,,2023-08-16_08h35.58.797,HF_wild_card,2022.2.4,Win32,59.80145916,5f454fc543b5c9111aaedb33,64d2fd46c836a06233681665,64dc7b390f7d0a27f1e6c0d8,,,,,,,decisionTrl,resources/DP.BMP,resources/DG.BMP,Door3,-0.214444444,0.011111111,1,0,0,0.4996,optionLeft,70,16235,7,35,0,35,0,1,,,,,,,,,,,,,,,,,,,,,,,,,,,,,,,,,,,,,,,
,,,,,,,,2023-08-16_08h35.58.797,HF_wild_card,2022.2.4,Win32,59.80145916,5f454fc543b5c9111aaedb33,64d2fd46c836a06233681665,64dc7b390f7d0a27f1e6c0d8,,,,,,,,,,,,,,,,,,,,,,,,,,6,0,6,0,1,,,,,,,,,,,,,,,,,,,,,,,,,,,,,,,,,,
,,,,,,,,2023-08-16_08h35.58.797,HF_wild_card,2022.2.4,Win32,59.80145916,5f454fc543b5c9111aaedb33,64d2fd46c836a06233681665,64dc7b390f7d0a27f1e6c0d8,,,,,,,,,,,,,,,,,,,,,,,,,,,,,,,4,,,,,,,,,,,,,,,,,,,,,,,,,,,,,,,,,
,,,,,,,,2023-08-16_08h35.58.797,HF_wild_card,2022.2.4,Win32,59.80145916,5f454fc543b5c9111aaedb33,64d2fd46c836a06233681665,64dc7b390f7d0a27f1e6c0d8,,,,,,,,,,,,,,,,,,,,,,,,,,,,,,,,,,,,,,,,,,,,,,,,,,,,,,,,,,,,,,,,
,,,,,,,,2023-08-16_08h35.58.797,HF_wild_card,2022.2.4,Win32,59.80145916,5f454fc543b5c9111aaedb33,64d2fd46c836a06233681665,64dc7b390f7d0a27f1e6c0d8,,,,,,,,,,,,,,,,,,,,,,,,,,,,,,,,70,Door3,resources/DP.BMP,0,0,0,0,1,,,,,,,,,,,,,,,,,,,,,,,,,
,,,,,,,,2023-08-16_08h35.58.797,HF_wild_card,2022.2.4,Win32,59.80145916,5f454fc543b5c9111aaedb33,64d2fd46c836a06233681665,64dc7b390f7d0a27f1e6c0d8,,,,,,,,,,,,,,,,,,,,,,,,,,,,,,,,55,WC_extreme,resources/DY.BMP,1,0,1,0,1,,,,,,,,,,,,,,,,,,,,,,,,,
,,,,,,,,2023-08-16_08h35.58.797,HF_wild_card,2022.2.4,Win32,59.80145916,5f454fc543b5c9111aaedb33,64d2fd46c836a06233681665,64dc7b390f7d0a27f1e6c0d8,,,,,,,,,,,,,,,,,,,,,,,,,,,,,,,,30,Door1,resources/DB.BMP,2,0,2,0,1,,,,,,,,,,,,,,,,,,,,,,,,,
,,,,,,,,2023-08-16_08h35.58.797,HF_wild_card,2022.2.4,Win32,59.80145916,5f454fc543b5c9111aaedb33,64d2fd46c836a06233681665,64dc7b390f7d0a27f1e6c0d8,,,,,,,,,,,,,,,,,,,,,,,,,,,,,,,,20,Door2,resources/DBN.BMP,3,0,3,0,1,,,,,,,,,,,,,,,,,,,,,,,,,
,,,,,,,,2023-08-16_08h35.58.797,HF_wild_card,2022.2.4,Win32,59.80145916,5f454fc543b5c9111aaedb33,64d2fd46c836a06233681665,64dc7b390f7d0a27f1e6c0d8,,,,,,,,,,,,,,,,,,,,,,,,,,,,,,,,40,WC_nonExtreme,resources/DR.BMP,4,0,4,0,1,,,,,,,,,,,,,,,,,,,,,,,,,
,,,,,,,,2023-08-16_08h35.58.797,HF_wild_card,2022.2.4,Win32,59.80145916,5f454fc543b5c9111aaedb33,64d2fd46c836a06233681665,64dc7b390f7d0a27f1e6c0d8,,,,,,,,,,,,,,,,,,,,,,,,,,,,,,,,80,Door4,resources/DG.BMP,5,0,5,0,1,,,,,,,,,,,,,,,,,,,,,,,,,
,,,,,,,,2023-08-16_08h35.58.797,HF_wild_card,2022.2.4,Win32,59.80145916,5f454fc543b5c9111aaedb33,64d2fd46c836a06233681665,64dc7b390f7d0a27f1e6c0d8,,,,,,,,,,,,,,,,,,,,,,,,,,,,,,,,,,,,,,,,,,,,,,,,,,,,,,,,,,,,,,,,
,,,,,,,,2023-08-16_08h35.58.797,HF_wild_card,2022.2.4,Win32,59.80145916,5f454fc543b5c9111aaedb33,64d2fd46c836a06233681665,64dc7b390f7d0a27f1e6c0d8,,,,,,,,,,,,,,,,,,,,,,,,,,,,,,,,,,,,,,,,0,0,0,0,1,,,,,,,,,,,,,,,,,,,,
,,,,,,,,2023-08-16_08h35.58.797,HF_wild_card,2022.2.4,Win32,59.80145916,5f454fc543b5c9111aaedb33,64d2fd46c836a06233681665,64dc7b390f7d0a27f1e6c0d8,,,,,,,,,,,,,,,,,,,,,,,,,,,,,,,,,,,,,,,,1,0,1,0,1,,,,,,,,,,,,,,,,,,,,
