Condition,Low fixed image (Door1),Low risky image (Door2),High fixed image (Door3),High risky image (Door4),Extreme Wild Card,NonExtreme Wild Card,,date,expName,psychopyVersion,OS,frameRate,PROLIFIC_PID,STUDY_ID,SESSION_ID,mouse_2.x,mouse_2.y,mouse_2.leftButton,mouse_2.midButton,mouse_2.rightButton,mouse_2.clicked_name,Trial Type,Left Option Image,Right Option Image,Chosen Door,mouse.x,mouse.y,mouse.leftButton,mouse.midButton,mouse.rightButton,mouse.time,mouse.clicked_name,Feedback,Cumulative Reward,Block,trial.thisRepN,trial.thisTrialN,trial.thisN,trial.thisIndex,trial.ran,blocks.thisRepN,blocks.thisTrialN,blocks.thisN,blocks.thisIndex,blocks.ran,Money conversion,First Outcome Reported,Shown Door (First Outcome),Displayed Image (First Outcome),outcomes.thisRepN,outcomes.thisTrialN,outcomes.thisN,outcomes.thisIndex,outcomes.ran,judgments.thisRepN,judgments.thisTrialN,judgments.thisN,judgments.thisIndex,judgments.ran,freqMouse.x,freqMouse.y,freqMouse.leftButton,freqMouse.midButton,freqMouse.rightButton,freqMouse.clicked_name,FQJ for first outcome,FQJ for second outcome,Shown Door,Displayed Image,trials.thisRepN,trials.thisTrialN,trials.thisN,trials.thisIndex,trials.ran,judgBlock.thisRepN,judgBlock.thisTrialN,judgBlock.thisN,judgBlock.thisIndex,judgBlock.ran
0,resources/DB.BMP,resources/DY.BMP,resources/DG.BMP,resources/DBN.BMP,resources/DR.BMP,resources/DP.BMP,,2023-08-06_08h18.20.248,HF_wild_card,2022.2.4,MacIntel,40,607312f8adb3f1b6bbfe8aa6,64ce5acb97489d65b14ecc7a,64cf491b3501f89e58eff14b,,,,,,,,,,,,,,,,,,,,,,,,,,,,,,,,,,,,,,,,,,,,,,,,,,,,,,,,,,,,,,,,
,,,,,,,,2023-08-06_08h18.20.248,HF_wild_card,2022.2.4,MacIntel,40,607312f8adb3f1b6bbfe8aa6,64ce5acb97489d65b14ecc7a,64cf491b3501f89e58eff14b,-0.016493056,-0.416666667,1,0,0,agree,,,,,,,,,,,,,,,,,,,,,,,,,,,,,,,,,,,,,,,,,,,,,,,,,,,,,,,,,,
,,,,,,,,2023-08-06_08h18.20.248,HF_wild_card,2022.2.4,MacIntel,40,607312f8adb3f1b6bbfe8aa6,64ce5acb97489d65b14ecc7a,64cf491b3501f89e58eff14b,,,,,,,,,,,,,,,,,,,,,,,,,,,,,,,,,,,,,,,,,,,,,,,,,,,,,,,,,,,,,,,,
,,,,,,,,2023-08-06_08h18.20.248,HF_wild_card,2022.2.4,MacIntel,40,607312f8adb3f1b6bbfe8aa6,64ce5acb97489d65b14ecc7a,64cf491b3501f89e58eff14b,,,,,,,decisionTrl,resources/DB.BMP,resources/DY.BMP,Door2,0.384548611,-0.063368056,1,0,0,4.324,optionRight,20,20,1,0,0,0,0,1,,,,,,,,,,,,,,,,,,,,,,,,,,,,,,,,,,,,,,,
,,,,,,,,2023-08-06_08h18.20.248,HF_wild_card,2022.2.4,MacIntel,40,607312f8adb3f1b6bbfe8aa6,64ce5acb97489d65b14ecc7a,64cf491b3501f89e58eff14b,,,,,,,sngl,resources/DY.BMP,resources/Empty.png,Door2,-0.374131944,-0.036458333,1,0,0,4.969,optionLeft,40,60,1,1,0,1,0,1,,,,,,,,,,,,,,,,,,,,,,,,,,,,,,,,,,,,,,,
,,,,,,,,2023-08-06_08h18.20.248,HF_wild_card,2022.2.4,MacIntel,40,607312f8adb3f1b6bbfe8aa6,64ce5acb97489d65b14ecc7a,64cf491b3501f89e58eff14b,,,,,,,sngl,resources/Empty.png,resources/DB.BMP,Door1,0.331597222,-0.010416667,1,0,0,1.598,optionRight,30,90,1,2,0,2,0,1,,,,,,,,,,,,,,,,,,,,,,,,,,,,,,,,,,,,,,,
,,,,,,,,2023-08-06_08h18.20.248,HF_wild_card,2022.2.4,MacIntel,40,607312f8adb3f1b6bbfe8aa6,64ce5acb97489d65b14ecc7a,64cf491b3501f89e58eff14b,,,,,,,ctch,resources/DBN.BMP,resources/DB.BMP,Door4,-0.387152778,0.012152778,1,0,0,3.101,optionLeft,80,170,1,3,0,3,0,1,,,,,,,,,,,,,,,,,,,,,,,,,,,,,,,,,,,,,,,
,,,,,,,,2023-08-06_08h18.20.248,HF_wild_card,2022.2.4,MacIntel,40,607312f8adb3f1b6bbfe8aa6,64ce5acb97489d65b14ecc7a,64cf491b3501f89e58eff14b,,,,,,,ctch,resources/DBN.BMP,resources/DB.BMP,Door4,-0.3828125,0.013888889,1,0,0,3.317,optionLeft,60,230,1,4,0,4,0,1,,,,,,,,,,,,,,,,,,,,,,,,,,,,,,,,,,,,,,,
,,,,,,,,2023-08-06_08h18.20.248,HF_wild_card,2022.2.4,MacIntel,40,607312f8adb3f1b6bbfe8aa6,64ce5acb97489d65b14ecc7a,64cf491b3501f89e58eff14b,,,,,,,decisionTrl,resources/DB.BMP,resources/DY.BMP,Door1,-0.318576389,-0.000868056,1,0,0,3.181,optionLeft,30,260,1,5,0,5,0,1,,,,,,,,,,,,,,,,,,,,,,,,,,,,,,,,,,,,,,,
,,,,,,,,2023-08-06_08h18.20.248,HF_wild_card,2022.2.4,MacIntel,40,607312f8adb3f1b6bbfe8aa6,64ce5acb97489d65b14ecc7a,64cf491b3501f89e58eff14b,,,,,,,decisionTrl,resources/DBN.BMP,resources/DR.BMP,WildCard_Ex,0.356770833,-0.058159722,1,0,0,2.383,optionRight,95,355,1,6,0,6,0,1,,,,,,,,,,,,,,,,,,,,,,,,,,,,,,,,,,,,,,,
,,,,,,,,2023-08-06_08h18.20.248,HF_wild_card,2022.2.4,MacIntel,40,607312f8adb3f1b6bbfe8aa6,64ce5acb97489d65b14ecc7a,64cf491b3501f89e58eff14b,,,,,,,decisionTrl,resources/DY.BMP,resources/DR.BMP,WildCard_Ex,0.3671875,-0.000868056,1,0,0,1.332,optionRight,5,360,1,7,0,7,0,1,,,,,,,,,,,,,,,,,,,,,,,,,,,,,,,,,,,,,,,
,,,,,,,,2023-08-06_08h18.20.248,HF_wild_card,2022.2.4,MacIntel,40,607312f8adb3f1b6bbfe8aa6,64ce5acb97489d65b14ecc7a,64cf491b3501f89e58eff14b,,,,,,,sngl,resources/Empty.png,resources/DBN.BMP,Door4,0.356770833,-0.021701389,1,0,0,1.149,optionRight,60,420,1,8,0,8,0,1,,,,,,,,,,,,,,,,,,,,,,,,,,,,,,,,,,,,,,,
,,,,,,,,2023-08-06_08h18.20.248,HF_wild_card,2022.2.4,MacIntel,40,607312f8adb3f1b6bbfe8aa6,64ce5acb97489d65b14ecc7a,64cf491b3501f89e58eff14b,,,,,,,sngl,resources/Empty.png,resources/DG.BMP,Door3,0.423611111,-0.032986111,1,0,0,1.448,optionRight,70,490,1,9,0,9,0,1,,,,,,,,,,,,,,,,,,,,,,,,,,,,,,,,,,,,,,,
,,,,,,,,2023-08-06_08h18.20.248,HF_wild_card,2022.2.4,MacIntel,40,607312f8adb3f1b6bbfe8aa6,64ce5acb97489d65b14ecc7a,64cf491b3501f89e58eff14b,,,,,,,decisionTrl,resources/DBN.BMP,resources/DG.BMP,Door4,-0.331597222,0.025173611,1,0,0,1.4,optionLeft,60,550,1,10,0,10,0,1,,,,,,,,,,,,,,,,,,,,,,,,,,,,,,,,,,,,,,,
,,,,,,,,2023-08-06_08h18.20.248,HF_wild_card,2022.2.4,MacIntel,40,607312f8adb3f1b6bbfe8aa6,64ce5acb97489d65b14ecc7a,64cf491b3501f89e58eff14b,,,,,,,decisionTrl,resources/DY.BMP,resources/DB.BMP,Door2,-0.310763889,-0.052083333,1,0,0,2.3,optionLeft,20,570,1,11,0,11,0,1,,,,,,,,,,,,,,,,,,,,,,,,,,,,,,,,,,,,,,,
,,,,,,,,2023-08-06_08h18.20.248,HF_wild_card,2022.2.4,MacIntel,40,607312f8adb3f1b6bbfe8aa6,64ce5acb97489d65b14ecc7a,64cf491b3501f89e58eff14b,,,,,,,decisionTrl,resources/DG.BMP,resources/DBN.BMP,Door4,0.3671875,0.020833333,1,0,0,2.449,optionRight,60,630,1,12,0,12,0,1,,,,,,,,,,,,,,,,,,,,,,,,,,,,,,,,,,,,,,,
,,,,,,,,2023-08-06_08h18.20.248,HF_wild_card,2022.2.4,MacIntel,40,607312f8adb3f1b6bbfe8aa6,64ce5acb97489d65b14ecc7a,64cf491b3501f89e58eff14b,,,,,,,decisionTrl,resources/DR.BMP,resources/DB.BMP,WildCard_Ex,-0.407986111,-0.022569444,1,0,0,1.616,optionLeft,5,635,1,13,0,13,0,1,,,,,,,,,,,,,,,,,,,,,,,,,,,,,,,,,,,,,,,
,,,,,,,,2023-08-06_08h18.20.248,HF_wild_card,2022.2.4,MacIntel,40,607312f8adb3f1b6bbfe8aa6,64ce5acb97489d65b14ecc7a,64cf491b3501f89e58eff14b,,,,,,,sngl,resources/DR.BMP,resources/Empty.png,WildCard_Ex,-0.373263889,-0.021701389,1,0,0,1.148,optionLeft,5,640,1,14,0,14,0,1,,,,,,,,,,,,,,,,,,,,,,,,,,,,,,,,,,,,,,,
,,,,,,,,2023-08-06_08h18.20.248,HF_wild_card,2022.2.4,MacIntel,40,607312f8adb3f1b6bbfe8aa6,64ce5acb97489d65b14ecc7a,64cf491b3501f89e58eff14b,,,,,,,sngl,resources/DR.BMP,resources/Empty.png,WildCard_Ex,-0.327256944,0.004340278,1,0,0,1.032,optionLeft,95,735,1,15,0,15,0,1,,,,,,,,,,,,,,,,,,,,,,,,,,,,,,,,,,,,,,,
,,,,,,,,2023-08-06_08h18.20.248,HF_wild_card,2022.2.4,MacIntel,40,607312f8adb3f1b6bbfe8aa6,64ce5acb97489d65b14ecc7a,64cf491b3501f89e58eff14b,,,,,,,decisionTrl,resources/DBN.BMP,resources/DG.BMP,Door3,0.361111111,0.041666667,1,0,0,2.899,optionRight,70,805,1,16,0,16,0,1,,,,,,,,,,,,,,,,,,,,,,,,,,,,,,,,,,,,,,,
,,,,,,,,2023-08-06_08h18.20.248,HF_wild_card,2022.2.4,MacIntel,40,607312f8adb3f1b6bbfe8aa6,64ce5acb97489d65b14ecc7a,64cf491b3501f89e58eff14b,,,,,,,sngl,resources/DB.BMP,resources/Empty.png,Door1,-0.475694444,-0.003472222,1,0,0,1.098,optionLeft,30,835,1,17,0,17,0,1,,,,,,,,,,,,,,,,,,,,,,,,,,,,,,,,,,,,,,,
,,,,,,,,2023-08-06_08h18.20.248,HF_wild_card,2022.2.4,MacIntel,40,607312f8adb3f1b6bbfe8aa6,64ce5acb97489d65b14ecc7a,64cf491b3501f89e58eff14b,,,,,,,sngl,resources/Empty.png,resources/DR.BMP,WildCard_Ex,0.391493056,-0.082465278,1,0,0,0.965,optionRight,95,930,1,18,0,18,0,1,,,,,,,,,,,,,,,,,,,,,,,,,,,,,,,,,,,,,,,
,,,,,,,,2023-08-06_08h18.20.248,HF_wild_card,2022.2.4,MacIntel,40,607312f8adb3f1b6bbfe8aa6,64ce5acb97489d65b14ecc7a,64cf491b3501f89e58eff14b,,,,,,,ctch,resources/DY.BMP,resources/DG.BMP,Door3,0.4140625,-0.032118056,1,0,0,2.317,optionRight,70,1000,1,19,0,19,0,1,,,,,,,,,,,,,,,,,,,,,,,,,,,,,,,,,,,,,,,
,,,,,,,,2023-08-06_08h18.20.248,HF_wild_card,2022.2.4,MacIntel,40,607312f8adb3f1b6bbfe8aa6,64ce5acb97489d65b14ecc7a,64cf491b3501f89e58eff14b,,,,,,,decisionTrl,resources/DR.BMP,resources/DBN.BMP,WildCard_Ex,-0.4140625,-0.036458333,1,0,0,3.669,optionLeft,95,1095,1,20,0,20,0,1,,,,,,,,,,,,,,,,,,,,,,,,,,,,,,,,,,,,,,,
,,,,,,,,2023-08-06_08h18.20.248,HF_wild_card,2022.2.4,MacIntel,40,607312f8adb3f1b6bbfe8aa6,64ce5acb97489d65b14ecc7a,64cf491b3501f89e58eff14b,,,,,,,decisionTrl,resources/DY.BMP,resources/DB.BMP,Door2,-0.298611111,-0.016493056,1,0,0,2.768,optionLeft,40,1135,1,21,0,21,0,1,,,,,,,,,,,,,,,,,,,,,,,,,,,,,,,,,,,,,,,
,,,,,,,,2023-08-06_08h18.20.248,HF_wild_card,2022.2.4,MacIntel,40,607312f8adb3f1b6bbfe8aa6,64ce5acb97489d65b14ecc7a,64cf491b3501f89e58eff14b,,,,,,,sngl,resources/Empty.png,resources/DR.BMP,WildCard_Ex,0.334201389,-0.039930556,1,0,0,0.797,optionRight,5,1140,1,22,0,22,0,1,,,,,,,,,,,,,,,,,,,,,,,,,,,,,,,,,,,,,,,
,,,,,,,,2023-08-06_08h18.20.248,HF_wild_card,2022.2.4,MacIntel,40,607312f8adb3f1b6bbfe8aa6,64ce5acb97489d65b14ecc7a,64cf491b3501f89e58eff14b,,,,,,,ctch,resources/DG.BMP,resources/DY.BMP,Door3,-0.324652778,-0.002604167,1,0,0,1.715,optionLeft,70,1210,1,23,0,23,0,1,,,,,,,,,,,,,,,,,,,,,,,,,,,,,,,,,,,,,,,
,,,,,,,,2023-08-06_08h18.20.248,HF_wild_card,2022.2.4,MacIntel,40,607312f8adb3f1b6bbfe8aa6,64ce5acb97489d65b14ecc7a,64cf491b3501f89e58eff14b,,,,,,,decisionTrl,resources/DY.BMP,resources/DB.BMP,Door2,-0.348958333,0.006944444,1,0,0,1.999,optionLeft,20,1230,1,24,0,24,0,1,,,,,,,,,,,,,,,,,,,,,,,,,,,,,,,,,,,,,,,
,,,,,,,,2023-08-06_08h18.20.248,HF_wild_card,2022.2.4,MacIntel,40,607312f8adb3f1b6bbfe8aa6,64ce5acb97489d65b14ecc7a,64cf491b3501f89e58eff14b,,,,,,,sngl,resources/Empty.png,resources/DY.BMP,Door2,0.327256944,-0.024305556,1,0,0,1.015,optionRight,20,1250,1,25,0,25,0,1,,,,,,,,,,,,,,,,,,,,,,,,,,,,,,,,,,,,,,,
,,,,,,,,2023-08-06_08h18.20.248,HF_wild_card,2022.2.4,MacIntel,40,607312f8adb3f1b6bbfe8aa6,64ce5acb97489d65b14ecc7a,64cf491b3501f89e58eff14b,,,,,,,decisionTrl,resources/DG.BMP,resources/DR.BMP,Door3,-0.453125,0.013888889,1,0,0,1.332,optionLeft,70,1320,1,26,0,26,0,1,,,,,,,,,,,,,,,,,,,,,,,,,,,,,,,,,,,,,,,
,,,,,,,,2023-08-06_08h18.20.248,HF_wild_card,2022.2.4,MacIntel,40,607312f8adb3f1b6bbfe8aa6,64ce5acb97489d65b14ecc7a,64cf491b3501f89e58eff14b,,,,,,,decisionTrl,resources/DR.BMP,resources/DG.BMP,Door3,0.447916667,-0.053819444,1,0,0,1.165,optionRight,70,1390,1,27,0,27,0,1,,,,,,,,,,,,,,,,,,,,,,,,,,,,,,,,,,,,,,,
,,,,,,,,2023-08-06_08h18.20.248,HF_wild_card,2022.2.4,MacIntel,40,607312f8adb3f1b6bbfe8aa6,64ce5acb97489d65b14ecc7a,64cf491b3501f89e58eff14b,,,,,,,sngl,resources/DBN.BMP,resources/Empty.png,Door4,-0.469618056,0.003472222,1,0,0,1.099,optionLeft,80,1470,1,28,0,28,0,1,,,,,,,,,,,,,,,,,,,,,,,,,,,,,,,,,,,,,,,
,,,,,,,,2023-08-06_08h18.20.248,HF_wild_card,2022.2.4,MacIntel,40,607312f8adb3f1b6bbfe8aa6,64ce5acb97489d65b14ecc7a,64cf491b3501f89e58eff14b,,,,,,,ctch,resources/DY.BMP,resources/DG.BMP,Door3,0.410590278,-0.009548611,1,0,0,1.382,optionRight,70,1540,1,29,0,29,0,1,,,,,,,,,,,,,,,,,,,,,,,,,,,,,,,,,,,,,,,
,,,,,,,,2023-08-06_08h18.20.248,HF_wild_card,2022.2.4,MacIntel,40,607312f8adb3f1b6bbfe8aa6,64ce5acb97489d65b14ecc7a,64cf491b3501f89e58eff14b,,,,,,,decisionTrl,resources/DB.BMP,resources/DY.BMP,Door2,0.416666667,-0.055555556,1,0,0,3.099,optionRight,20,1560,1,30,0,30,0,1,,,,,,,,,,,,,,,,,,,,,,,,,,,,,,,,,,,,,,,
,,,,,,,,2023-08-06_08h18.20.248,HF_wild_card,2022.2.4,MacIntel,40,607312f8adb3f1b6bbfe8aa6,64ce5acb97489d65b14ecc7a,64cf491b3501f89e58eff14b,,,,,,,decisionTrl,resources/DBN.BMP,resources/DG.BMP,Door3,0.386284722,-0.0234375,1,0,0,3.468,optionRight,70,1630,1,31,0,31,0,1,,,,,,,,,,,,,,,,,,,,,,,,,,,,,,,,,,,,,,,
,,,,,,,,2023-08-06_08h18.20.248,HF_wild_card,2022.2.4,MacIntel,40,607312f8adb3f1b6bbfe8aa6,64ce5acb97489d65b14ecc7a,64cf491b3501f89e58eff14b,,,,,,,decisionTrl,resources/DG.BMP,resources/DBN.BMP,Door3,-0.381944444,-0.006944444,1,0,0,1.598,optionLeft,70,1700,1,32,0,32,0,1,,,,,,,,,,,,,,,,,,,,,,,,,,,,,,,,,,,,,,,
,,,,,,,,2023-08-06_08h18.20.248,HF_wild_card,2022.2.4,MacIntel,40,607312f8adb3f1b6bbfe8aa6,64ce5acb97489d65b14ecc7a,64cf491b3501f89e58eff14b,,,,,,,decisionTrl,resources/DR.BMP,resources/DY.BMP,Door2,0.388888889,-0.024305556,1,0,0,1.983,optionRight,40,1740,1,33,0,33,0,1,,,,,,,,,,,,,,,,,,,,,,,,,,,,,,,,,,,,,,,
,,,,,,,,2023-08-06_08h18.20.248,HF_wild_card,2022.2.4,MacIntel,40,607312f8adb3f1b6bbfe8aa6,64ce5acb97489d65b14ecc7a,64cf491b3501f89e58eff14b,,,,,,,ctch,resources/DB.BMP,resources/DBN.BMP,Door4,0.307291667,0,1,0,0,1.083,optionRight,60,1800,1,34,0,34,0,1,,,,,,,,,,,,,,,,,,,,,,,,,,,,,,,,,,,,,,,
,,,,,,,,2023-08-06_08h18.20.248,HF_wild_card,2022.2.4,MacIntel,40,607312f8adb3f1b6bbfe8aa6,64ce5acb97489d65b14ecc7a,64cf491b3501f89e58eff14b,,,,,,,decisionTrl,resources/DG.BMP,resources/DBN.BMP,Door3,-0.403645833,-0.001736111,1,0,0,1.216,optionLeft,70,1870,1,35,0,35,0,1,,,,,,,,,,,,,,,,,,,,,,,,,,,,,,,,,,,,,,,
,,,,,,,,2023-08-06_08h18.20.248,HF_wild_card,2022.2.4,MacIntel,40,607312f8adb3f1b6bbfe8aa6,64ce5acb97489d65b14ecc7a,64cf491b3501f89e58eff14b,,,,,,,decisionTrl,resources/DY.BMP,resources/DB.BMP,Door2,-0.331597222,0.002604167,1,0,0,1.215,optionLeft,20,1890,1,36,0,36,0,1,,,,,,,,,,,,,,,,,,,,,,,,,,,,,,,,,,,,,,,
,,,,,,,,2023-08-06_08h18.20.248,HF_wild_card,2022.2.4,MacIntel,40,607312f8adb3f1b6bbfe8aa6,64ce5acb97489d65b14ecc7a,64cf491b3501f89e58eff14b,,,,,,,decisionTrl,resources/DBN.BMP,resources/DG.BMP,Door3,0.510416667,-0.0234375,1,0,0,1.083,optionRight,70,1960,1,37,0,37,0,1,,,,,,,,,,,,,,,,,,,,,,,,,,,,,,,,,,,,,,,
,,,,,,,,2023-08-06_08h18.20.248,HF_wild_card,2022.2.4,MacIntel,40,607312f8adb3f1b6bbfe8aa6,64ce5acb97489d65b14ecc7a,64cf491b3501f89e58eff14b,,,,,,,sngl,resources/DG.BMP,resources/Empty.png,Door3,-0.328125,0.010416667,1,0,0,0.932,optionLeft,70,2030,1,38,0,38,0,1,,,,,,,,,,,,,,,,,,,,,,,,,,,,,,,,,,,,,,,
,,,,,,,,2023-08-06_08h18.20.248,HF_wild_card,2022.2.4,MacIntel,40,607312f8adb3f1b6bbfe8aa6,64ce5acb97489d65b14ecc7a,64cf491b3501f89e58eff14b,,,,,,,decisionTrl,resources/DB.BMP,resources/DR.BMP,WildCard_Ex,0.327256944,-0.010416667,1,0,0,2.098,optionRight,95,2125,1,39,0,39,0,1,,,,,,,,,,,,,,,,,,,,,,,,,,,,,,,,,,,,,,,
,,,,,,,,2023-08-06_08h18.20.248,HF_wild_card,2022.2.4,MacIntel,40,607312f8adb3f1b6bbfe8aa6,64ce5acb97489d65b14ecc7a,64cf491b3501f89e58eff14b,,,,,,,ctch,resources/DG.BMP,resources/DY.BMP,Door3,-0.356770833,-0.019965278,1,0,0,1.099,optionLeft,70,2195,1,40,0,40,0,1,,,,,,,,,,,,,,,,,,,,,,,,,,,,,,,,,,,,,,,
,,,,,,,,2023-08-06_08h18.20.248,HF_wild_card,2022.2.4,MacIntel,40,607312f8adb3f1b6bbfe8aa6,64ce5acb97489d65b14ecc7a,64cf491b3501f89e58eff14b,,,,,,,decisionTrl,resources/DB.BMP,resources/DY.BMP,Door2,0.339409722,-0.019097222,1,0,0,1.7,optionRight,20,2215,1,41,0,41,0,1,,,,,,,,,,,,,,,,,,,,,,,,,,,,,,,,,,,,,,,
,,,,,,,,2023-08-06_08h18.20.248,HF_wild_card,2022.2.4,MacIntel,40,607312f8adb3f1b6bbfe8aa6,64ce5acb97489d65b14ecc7a,64cf491b3501f89e58eff14b,,,,,,,decisionTrl,resources/DG.BMP,resources/DBN.BMP,Door3,-0.355034722,-0.006944444,1,0,0,1.333,optionLeft,70,2285,1,42,0,42,0,1,,,,,,,,,,,,,,,,,,,,,,,,,,,,,,,,,,,,,,,
,,,,,,,,2023-08-06_08h18.20.248,HF_wild_card,2022.2.4,MacIntel,40,607312f8adb3f1b6bbfe8aa6,64ce5acb97489d65b14ecc7a,64cf491b3501f89e58eff14b,,,,,,,ctch,resources/DB.BMP,resources/DBN.BMP,Door4,0.375,-0.002604167,1,0,0,1.816,optionRight,80,2365,1,43,0,43,0,1,,,,,,,,,,,,,,,,,,,,,,,,,,,,,,,,,,,,,,,
,,,,,,,,2023-08-06_08h18.20.248,HF_wild_card,2022.2.4,MacIntel,40,607312f8adb3f1b6bbfe8aa6,64ce5acb97489d65b14ecc7a,64cf491b3501f89e58eff14b,,,,,,,,,,,,,,,,,,,,,,,,,,0,0,0,0,1,,,,,,,,,,,,,,,,,,,,,,,,,,,,,,,,,,
,,,,,,,,2023-08-06_08h18.20.248,HF_wild_card,2022.2.4,MacIntel,40,607312f8adb3f1b6bbfe8aa6,64ce5acb97489d65b14ecc7a,64cf491b3501f89e58eff14b,,,,,,,decisionTrl,resources/DB.BMP,resources/DR.BMP,WildCard_Ex,0.4140625,-0.063368056,1,0,0,2.682,optionRight,5,2370,2,0,0,0,0,1,,,,,,,,,,,,,,,,,,,,,,,,,,,,,,,,,,,,,,,
,,,,,,,,2023-08-06_08h18.20.248,HF_wild_card,2022.2.4,MacIntel,40,607312f8adb3f1b6bbfe8aa6,64ce5acb97489d65b14ecc7a,64cf491b3501f89e58eff14b,,,,,,,ctch,resources/DB.BMP,resources/DBN.BMP,Door1,-0.363715278,0.030381944,1,0,0,0.998,optionLeft,30,2400,2,1,0,1,0,1,,,,,,,,,,,,,,,,,,,,,,,,,,,,,,,,,,,,,,,
,,,,,,,,2023-08-06_08h18.20.248,HF_wild_card,2022.2.4,MacIntel,40,607312f8adb3f1b6bbfe8aa6,64ce5acb97489d65b14ecc7a,64cf491b3501f89e58eff14b,,,,,,,sngl,resources/DB.BMP,resources/Empty.png,Door1,-0.2890625,0.011284722,1,0,0,0.932,optionLeft,30,2430,2,2,0,2,0,1,,,,,,,,,,,,,,,,,,,,,,,,,,,,,,,,,,,,,,,
,,,,,,,,2023-08-06_08h18.20.248,HF_wild_card,2022.2.4,MacIntel,40,607312f8adb3f1b6bbfe8aa6,64ce5acb97489d65b14ecc7a,64cf491b3501f89e58eff14b,,,,,,,decisionTrl,resources/DR.BMP,resources/DB.BMP,WildCard_Ex,-0.384548611,-0.026909722,1,0,0,3.534,optionLeft,95,2525,2,3,0,3,0,1,,,,,,,,,,,,,,,,,,,,,,,,,,,,,,,,,,,,,,,
,,,,,,,,2023-08-06_08h18.20.248,HF_wild_card,2022.2.4,MacIntel,40,607312f8adb3f1b6bbfe8aa6,64ce5acb97489d65b14ecc7a,64cf491b3501f89e58eff14b,,,,,,,sngl,resources/Empty.png,resources/DR.BMP,WildCard_Ex,0.368923611,-0.028645833,1,0,0,1.164,optionRight,5,2530,2,4,0,4,0,1,,,,,,,,,,,,,,,,,,,,,,,,,,,,,,,,,,,,,,,
,,,,,,,,2023-08-06_08h18.20.248,HF_wild_card,2022.2.4,MacIntel,40,607312f8adb3f1b6bbfe8aa6,64ce5acb97489d65b14ecc7a,64cf491b3501f89e58eff14b,,,,,,,sngl,resources/DY.BMP,resources/Empty.png,Door2,-0.34375,-0.022569444,1,0,0,0.998,optionLeft,20,2550,2,5,0,5,0,1,,,,,,,,,,,,,,,,,,,,,,,,,,,,,,,,,,,,,,,
,,,,,,,,2023-08-06_08h18.20.248,HF_wild_card,2022.2.4,MacIntel,40,607312f8adb3f1b6bbfe8aa6,64ce5acb97489d65b14ecc7a,64cf491b3501f89e58eff14b,,,,,,,decisionTrl,resources/DR.BMP,resources/DBN.BMP,WildCard_Ex,-0.450520833,-0.010416667,1,0,0,2.25,optionLeft,95,2645,2,6,0,6,0,1,,,,,,,,,,,,,,,,,,,,,,,,,,,,,,,,,,,,,,,
,,,,,,,,2023-08-06_08h18.20.248,HF_wild_card,2022.2.4,MacIntel,40,607312f8adb3f1b6bbfe8aa6,64ce5acb97489d65b14ecc7a,64cf491b3501f89e58eff14b,,,,,,,sngl,resources/Empty.png,resources/DBN.BMP,Door4,0.372395833,-0.027777778,1,0,0,0.916,optionRight,80,2725,2,7,0,7,0,1,,,,,,,,,,,,,,,,,,,,,,,,,,,,,,,,,,,,,,,
,,,,,,,,2023-08-06_08h18.20.248,HF_wild_card,2022.2.4,MacIntel,40,607312f8adb3f1b6bbfe8aa6,64ce5acb97489d65b14ecc7a,64cf491b3501f89e58eff14b,,,,,,,sngl,resources/Empty.png,resources/DB.BMP,Door1,0.403645833,-0.041666667,1,0,0,0.948,optionRight,30,2755,2,8,0,8,0,1,,,,,,,,,,,,,,,,,,,,,,,,,,,,,,,,,,,,,,,
,,,,,,,,2023-08-06_08h18.20.248,HF_wild_card,2022.2.4,MacIntel,40,607312f8adb3f1b6bbfe8aa6,64ce5acb97489d65b14ecc7a,64cf491b3501f89e58eff14b,,,,,,,decisionTrl,resources/DR.BMP,resources/DY.BMP,WildCard_Ex,-0.393229167,-0.002604167,1,0,0,1.25,optionLeft,95,2850,2,9,0,9,0,1,,,,,,,,,,,,,,,,,,,,,,,,,,,,,,,,,,,,,,,
,,,,,,,,2023-08-06_08h18.20.248,HF_wild_card,2022.2.4,MacIntel,40,607312f8adb3f1b6bbfe8aa6,64ce5acb97489d65b14ecc7a,64cf491b3501f89e58eff14b,,,,,,,ctch,resources/DB.BMP,resources/DBN.BMP,Door4,0.299479167,-0.0234375,1,0,0,1.632,optionRight,60,2910,2,10,0,10,0,1,,,,,,,,,,,,,,,,,,,,,,,,,,,,,,,,,,,,,,,
,,,,,,,,2023-08-06_08h18.20.248,HF_wild_card,2022.2.4,MacIntel,40,607312f8adb3f1b6bbfe8aa6,64ce5acb97489d65b14ecc7a,64cf491b3501f89e58eff14b,,,,,,,ctch,resources/DBN.BMP,resources/DB.BMP,Door4,-0.342013889,0.030381944,1,0,0,1.25,optionLeft,60,2970,2,11,0,11,0,1,,,,,,,,,,,,,,,,,,,,,,,,,,,,,,,,,,,,,,,
,,,,,,,,2023-08-06_08h18.20.248,HF_wild_card,2022.2.4,MacIntel,40,607312f8adb3f1b6bbfe8aa6,64ce5acb97489d65b14ecc7a,64cf491b3501f89e58eff14b,,,,,,,decisionTrl,resources/DG.BMP,resources/DBN.BMP,Door3,-0.323784722,-0.028645833,1,0,0,1.499,optionLeft,70,3040,2,12,0,12,0,1,,,,,,,,,,,,,,,,,,,,,,,,,,,,,,,,,,,,,,,
,,,,,,,,2023-08-06_08h18.20.248,HF_wild_card,2022.2.4,MacIntel,40,607312f8adb3f1b6bbfe8aa6,64ce5acb97489d65b14ecc7a,64cf491b3501f89e58eff14b,,,,,,,decisionTrl,resources/DBN.BMP,resources/DR.BMP,Door4,-0.377604167,0.006944444,1,0,0,2.583,optionLeft,80,3120,2,13,0,13,0,1,,,,,,,,,,,,,,,,,,,,,,,,,,,,,,,,,,,,,,,
,,,,,,,,2023-08-06_08h18.20.248,HF_wild_card,2022.2.4,MacIntel,40,607312f8adb3f1b6bbfe8aa6,64ce5acb97489d65b14ecc7a,64cf491b3501f89e58eff14b,,,,,,,sngl,resources/DG.BMP,resources/Empty.png,Door3,-0.357638889,0.008680556,1,0,0,0.932,optionLeft,70,3190,2,14,0,14,0,1,,,,,,,,,,,,,,,,,,,,,,,,,,,,,,,,,,,,,,,
,,,,,,,,2023-08-06_08h18.20.248,HF_wild_card,2022.2.4,MacIntel,40,607312f8adb3f1b6bbfe8aa6,64ce5acb97489d65b14ecc7a,64cf491b3501f89e58eff14b,,,,,,,decisionTrl,resources/DR.BMP,resources/DG.BMP,WildCard_Ex,-0.383680556,-0.010416667,1,0,0,5.486,optionLeft,95,3285,2,15,0,15,0,1,,,,,,,,,,,,,,,,,,,,,,,,,,,,,,,,,,,,,,,
,,,,,,,,2023-08-06_08h18.20.248,HF_wild_card,2022.2.4,MacIntel,40,607312f8adb3f1b6bbfe8aa6,64ce5acb97489d65b14ecc7a,64cf491b3501f89e58eff14b,,,,,,,ctch,resources/DY.BMP,resources/DG.BMP,Door3,0.411458333,-0.034722222,1,0,0,1.3,optionRight,70,3355,2,16,0,16,0,1,,,,,,,,,,,,,,,,,,,,,,,,,,,,,,,,,,,,,,,
,,,,,,,,2023-08-06_08h18.20.248,HF_wild_card,2022.2.4,MacIntel,40,607312f8adb3f1b6bbfe8aa6,64ce5acb97489d65b14ecc7a,64cf491b3501f89e58eff14b,,,,,,,decisionTrl,resources/DB.BMP,resources/DY.BMP,Door2,0.354166667,0.008680556,1,0,0,2.582,optionRight,40,3395,2,17,0,17,0,1,,,,,,,,,,,,,,,,,,,,,,,,,,,,,,,,,,,,,,,
,,,,,,,,2023-08-06_08h18.20.248,HF_wild_card,2022.2.4,MacIntel,40,607312f8adb3f1b6bbfe8aa6,64ce5acb97489d65b14ecc7a,64cf491b3501f89e58eff14b,,,,,,,decisionTrl,resources/DB.BMP,resources/DY.BMP,Door2,0.469618056,-0.040798611,1,0,0,1.1,optionRight,40,3435,2,18,0,18,0,1,,,,,,,,,,,,,,,,,,,,,,,,,,,,,,,,,,,,,,,
,,,,,,,,2023-08-06_08h18.20.248,HF_wild_card,2022.2.4,MacIntel,40,607312f8adb3f1b6bbfe8aa6,64ce5acb97489d65b14ecc7a,64cf491b3501f89e58eff14b,,,,,,,sngl,resources/Empty.png,resources/DR.BMP,WildCard_Ex,0.3515625,-0.019965278,1,0,0,1.999,optionRight,95,3530,2,19,0,19,0,1,,,,,,,,,,,,,,,,,,,,,,,,,,,,,,,,,,,,,,,
,,,,,,,,2023-08-06_08h18.20.248,HF_wild_card,2022.2.4,MacIntel,40,607312f8adb3f1b6bbfe8aa6,64ce5acb97489d65b14ecc7a,64cf491b3501f89e58eff14b,,,,,,,decisionTrl,resources/DY.BMP,resources/DR.BMP,WildCard_Ex,0.3828125,-0.020833333,1,0,0,1.349,optionRight,5,3535,2,20,0,20,0,1,,,,,,,,,,,,,,,,,,,,,,,,,,,,,,,,,,,,,,,
,,,,,,,,2023-08-06_08h18.20.248,HF_wild_card,2022.2.4,MacIntel,40,607312f8adb3f1b6bbfe8aa6,64ce5acb97489d65b14ecc7a,64cf491b3501f89e58eff14b,,,,,,,decisionTrl,resources/DY.BMP,resources/DB.BMP,Door2,-0.340277778,-0.005208333,1,0,0,1.049,optionLeft,20,3555,2,21,0,21,0,1,,,,,,,,,,,,,,,,,,,,,,,,,,,,,,,,,,,,,,,
,,,,,,,,2023-08-06_08h18.20.248,HF_wild_card,2022.2.4,MacIntel,40,607312f8adb3f1b6bbfe8aa6,64ce5acb97489d65b14ecc7a,64cf491b3501f89e58eff14b,,,,,,,sngl,resources/Empty.png,resources/DY.BMP,Door2,0.305555556,0.004340278,1,0,0,0.898,optionRight,40,3595,2,22,0,22,0,1,,,,,,,,,,,,,,,,,,,,,,,,,,,,,,,,,,,,,,,
,,,,,,,,2023-08-06_08h18.20.248,HF_wild_card,2022.2.4,MacIntel,40,607312f8adb3f1b6bbfe8aa6,64ce5acb97489d65b14ecc7a,64cf491b3501f89e58eff14b,,,,,,,ctch,resources/DG.BMP,resources/DY.BMP,Door3,-0.435763889,-0.003472222,1,0,0,1.182,optionLeft,70,3665,2,23,0,23,0,1,,,,,,,,,,,,,,,,,,,,,,,,,,,,,,,,,,,,,,,
,,,,,,,,2023-08-06_08h18.20.248,HF_wild_card,2022.2.4,MacIntel,40,607312f8adb3f1b6bbfe8aa6,64ce5acb97489d65b14ecc7a,64cf491b3501f89e58eff14b,,,,,,,sngl,resources/Empty.png,resources/DG.BMP,Door3,0.388020833,-0.010416667,1,0,0,0.862,optionRight,70,3735,2,24,0,24,0,1,,,,,,,,,,,,,,,,,,,,,,,,,,,,,,,,,,,,,,,
,,,,,,,,2023-08-06_08h18.20.248,HF_wild_card,2022.2.4,MacIntel,40,607312f8adb3f1b6bbfe8aa6,64ce5acb97489d65b14ecc7a,64cf491b3501f89e58eff14b,,,,,,,sngl,resources/DR.BMP,resources/Empty.png,WildCard_Ex,-0.365451389,-0.008680556,1,0,0,1.08,optionLeft,5,3740,2,25,0,25,0,1,,,,,,,,,,,,,,,,,,,,,,,,,,,,,,,,,,,,,,,
,,,,,,,,2023-08-06_08h18.20.248,HF_wild_card,2022.2.4,MacIntel,40,607312f8adb3f1b6bbfe8aa6,64ce5acb97489d65b14ecc7a,64cf491b3501f89e58eff14b,,,,,,,decisionTrl,resources/DBN.BMP,resources/DG.BMP,Door3,0.394965278,-0.033854167,1,0,0,1.281,optionRight,70,3810,2,26,0,26,0,1,,,,,,,,,,,,,,,,,,,,,,,,,,,,,,,,,,,,,,,
,,,,,,,,2023-08-06_08h18.20.248,HF_wild_card,2022.2.4,MacIntel,40,607312f8adb3f1b6bbfe8aa6,64ce5acb97489d65b14ecc7a,64cf491b3501f89e58eff14b,,,,,,,decisionTrl,resources/DG.BMP,resources/DR.BMP,Door3,-0.360243056,0.009548611,1,0,0,1.183,optionLeft,70,3880,2,27,0,27,0,1,,,,,,,,,,,,,,,,,,,,,,,,,,,,,,,,,,,,,,,
,,,,,,,,2023-08-06_08h18.20.248,HF_wild_card,2022.2.4,MacIntel,40,607312f8adb3f1b6bbfe8aa6,64ce5acb97489d65b14ecc7a,64cf491b3501f89e58eff14b,,,,,,,decisionTrl,resources/DBN.BMP,resources/DG.BMP,Door3,0.426215278,-0.057291667,1,0,0,1.333,optionRight,70,3950,2,28,0,28,0,1,,,,,,,,,,,,,,,,,,,,,,,,,,,,,,,,,,,,,,,
,,,,,,,,2023-08-06_08h18.20.248,HF_wild_card,2022.2.4,MacIntel,40,607312f8adb3f1b6bbfe8aa6,64ce5acb97489d65b14ecc7a,64cf491b3501f89e58eff14b,,,,,,,ctch,resources/DG.BMP,resources/DY.BMP,Door3,-0.355034722,-0.030381944,1,0,0,2.016,optionLeft,70,4020,2,29,0,29,0,1,,,,,,,,,,,,,,,,,,,,,,,,,,,,,,,,,,,,,,,
,,,,,,,,2023-08-06_08h18.20.248,HF_wild_card,2022.2.4,MacIntel,40,607312f8adb3f1b6bbfe8aa6,64ce5acb97489d65b14ecc7a,64cf491b3501f89e58eff14b,,,,,,,ctch,resources/DY.BMP,resources/DG.BMP,Door3,0.424479167,-0.006076389,1,0,0,1.798,optionRight,70,4090,2,30,0,30,0,1,,,,,,,,,,,,,,,,,,,,,,,,,,,,,,,,,,,,,,,
,,,,,,,,2023-08-06_08h18.20.248,HF_wild_card,2022.2.4,MacIntel,40,607312f8adb3f1b6bbfe8aa6,64ce5acb97489d65b14ecc7a,64cf491b3501f89e58eff14b,,,,,,,decisionTrl,resources/DG.BMP,resources/DBN.BMP,Door3,-0.348090278,-0.013020833,1,0,0,0.95,optionLeft,70,4160,2,31,0,31,0,1,,,,,,,,,,,,,,,,,,,,,,,,,,,,,,,,,,,,,,,
,,,,,,,,2023-08-06_08h18.20.248,HF_wild_card,2022.2.4,MacIntel,40,607312f8adb3f1b6bbfe8aa6,64ce5acb97489d65b14ecc7a,64cf491b3501f89e58eff14b,,,,,,,ctch,resources/DBN.BMP,resources/DB.BMP,Door4,-0.321180556,0.010416667,1,0,0,1.481,optionLeft,80,4240,2,32,0,32,0,1,,,,,,,,,,,,,,,,,,,,,,,,,,,,,,,,,,,,,,,
,,,,,,,,2023-08-06_08h18.20.248,HF_wild_card,2022.2.4,MacIntel,40,607312f8adb3f1b6bbfe8aa6,64ce5acb97489d65b14ecc7a,64cf491b3501f89e58eff14b,,,,,,,decisionTrl,resources/DY.BMP,resources/DB.BMP,Door2,-0.413194444,0.013888889,1,0,0,1.466,optionLeft,40,4280,2,33,0,33,0,1,,,,,,,,,,,,,,,,,,,,,,,,,,,,,,,,,,,,,,,
,,,,,,,,2023-08-06_08h18.20.248,HF_wild_card,2022.2.4,MacIntel,40,607312f8adb3f1b6bbfe8aa6,64ce5acb97489d65b14ecc7a,64cf491b3501f89e58eff14b,,,,,,,decisionTrl,resources/DY.BMP,resources/DB.BMP,Door2,-0.341145833,0.003472222,1,0,0,0.933,optionLeft,20,4300,2,34,0,34,0,1,,,,,,,,,,,,,,,,,,,,,,,,,,,,,,,,,,,,,,,
,,,,,,,,2023-08-06_08h18.20.248,HF_wild_card,2022.2.4,MacIntel,40,607312f8adb3f1b6bbfe8aa6,64ce5acb97489d65b14ecc7a,64cf491b3501f89e58eff14b,,,,,,,decisionTrl,resources/DB.BMP,resources/DY.BMP,Door2,0.314236111,-0.033854167,1,0,0,1.215,optionRight,20,4320,2,35,0,35,0,1,,,,,,,,,,,,,,,,,,,,,,,,,,,,,,,,,,,,,,,
,,,,,,,,2023-08-06_08h18.20.248,HF_wild_card,2022.2.4,MacIntel,40,607312f8adb3f1b6bbfe8aa6,64ce5acb97489d65b14ecc7a,64cf491b3501f89e58eff14b,,,,,,,sngl,resources/DBN.BMP,resources/Empty.png,Door4,-0.3125,0.013020833,1,0,0,0.965,optionLeft,60,4380,2,36,0,36,0,1,,,,,,,,,,,,,,,,,,,,,,,,,,,,,,,,,,,,,,,
,,,,,,,,2023-08-06_08h18.20.248,HF_wild_card,2022.2.4,MacIntel,40,607312f8adb3f1b6bbfe8aa6,64ce5acb97489d65b14ecc7a,64cf491b3501f89e58eff14b,,,,,,,decisionTrl,resources/DG.BMP,resources/DBN.BMP,Door3,-0.327256944,0.010416667,1,0,0,1.299,optionLeft,70,4450,2,37,0,37,0,1,,,,,,,,,,,,,,,,,,,,,,,,,,,,,,,,,,,,,,,
,,,,,,,,2023-08-06_08h18.20.248,HF_wild_card,2022.2.4,MacIntel,40,607312f8adb3f1b6bbfe8aa6,64ce5acb97489d65b14ecc7a,64cf491b3501f89e58eff14b,,,,,,,decisionTrl,resources/DG.BMP,resources/DBN.BMP,Door3,-0.410590278,0.004340278,1,0,0,1.114,optionLeft,70,4520,2,38,0,38,0,1,,,,,,,,,,,,,,,,,,,,,,,,,,,,,,,,,,,,,,,
,,,,,,,,2023-08-06_08h18.20.248,HF_wild_card,2022.2.4,MacIntel,40,607312f8adb3f1b6bbfe8aa6,64ce5acb97489d65b14ecc7a,64cf491b3501f89e58eff14b,,,,,,,decisionTrl,resources/DY.BMP,resources/DB.BMP,Door2,-0.419270833,0.000868056,1,0,0,1.316,optionLeft,20,4540,2,39,0,39,0,1,,,,,,,,,,,,,,,,,,,,,,,,,,,,,,,,,,,,,,,
,,,,,,,,2023-08-06_08h18.20.248,HF_wild_card,2022.2.4,MacIntel,40,607312f8adb3f1b6bbfe8aa6,64ce5acb97489d65b14ecc7a,64cf491b3501f89e58eff14b,,,,,,,sngl,resources/DR.BMP,resources/Empty.png,WildCard_Ex,-0.339409722,0.001736111,1,0,0,1.049,optionLeft,95,4635,2,40,0,40,0,1,,,,,,,,,,,,,,,,,,,,,,,,,,,,,,,,,,,,,,,
,,,,,,,,2023-08-06_08h18.20.248,HF_wild_card,2022.2.4,MacIntel,40,607312f8adb3f1b6bbfe8aa6,64ce5acb97489d65b14ecc7a,64cf491b3501f89e58eff14b,,,,,,,decisionTrl,resources/DBN.BMP,resources/DG.BMP,Door3,0.331597222,-0.028645833,1,0,0,1.899,optionRight,70,4705,2,41,0,41,0,1,,,,,,,,,,,,,,,,,,,,,,,,,,,,,,,,,,,,,,,
,,,,,,,,2023-08-06_08h18.20.248,HF_wild_card,2022.2.4,MacIntel,40,607312f8adb3f1b6bbfe8aa6,64ce5acb97489d65b14ecc7a,64cf491b3501f89e58eff14b,,,,,,,decisionTrl,resources/DB.BMP,resources/DY.BMP,Door2,0.450520833,-0.059027778,1,0,0,2.05,optionRight,20,4725,2,42,0,42,0,1,,,,,,,,,,,,,,,,,,,,,,,,,,,,,,,,,,,,,,,
,,,,,,,,2023-08-06_08h18.20.248,HF_wild_card,2022.2.4,MacIntel,40,607312f8adb3f1b6bbfe8aa6,64ce5acb97489d65b14ecc7a,64cf491b3501f89e58eff14b,,,,,,,decisionTrl,resources/DBN.BMP,resources/DG.BMP,Door3,0.435763889,-0.036458333,1,0,0,2.967,optionRight,70,4795,2,43,0,43,0,1,,,,,,,,,,,,,,,,,,,,,,,,,,,,,,,,,,,,,,,
,,,,,,,,2023-08-06_08h18.20.248,HF_wild_card,2022.2.4,MacIntel,40,607312f8adb3f1b6bbfe8aa6,64ce5acb97489d65b14ecc7a,64cf491b3501f89e58eff14b,,,,,,,,,,,,,,,,,,,,,,,,,,1,0,1,0,1,,,,,,,,,,,,,,,,,,,,,,,,,,,,,,,,,,
,,,,,,,,2023-08-06_08h18.20.248,HF_wild_card,2022.2.4,MacIntel,40,607312f8adb3f1b6bbfe8aa6,64ce5acb97489d65b14ecc7a,64cf491b3501f89e58eff14b,,,,,,,decisionTrl,resources/DBN.BMP,resources/DG.BMP,Door3,0.447916667,-0.0546875,1,0,0,1.129,optionRight,70,4865,3,0,0,0,0,1,,,,,,,,,,,,,,,,,,,,,,,,,,,,,,,,,,,,,,,
,,,,,,,,2023-08-06_08h18.20.248,HF_wild_card,2022.2.4,MacIntel,40,607312f8adb3f1b6bbfe8aa6,64ce5acb97489d65b14ecc7a,64cf491b3501f89e58eff14b,,,,,,,decisionTrl,resources/DG.BMP,resources/DBN.BMP,Door3,-0.313368056,0.019097222,1,0,0,1.249,optionLeft,70,4935,3,1,0,1,0,1,,,,,,,,,,,,,,,,,,,,,,,,,,,,,,,,,,,,,,,
,,,,,,,,2023-08-06_08h18.20.248,HF_wild_card,2022.2.4,MacIntel,40,607312f8adb3f1b6bbfe8aa6,64ce5acb97489d65b14ecc7a,64cf491b3501f89e58eff14b,,,,,,,ctch,resources/DG.BMP,resources/DY.BMP,Door3,-0.254340278,0.000868056,1,0,0,0.982,optionLeft,70,5005,3,2,0,2,0,1,,,,,,,,,,,,,,,,,,,,,,,,,,,,,,,,,,,,,,,
,,,,,,,,2023-08-06_08h18.20.248,HF_wild_card,2022.2.4,MacIntel,40,607312f8adb3f1b6bbfe8aa6,64ce5acb97489d65b14ecc7a,64cf491b3501f89e58eff14b,,,,,,,ctch,resources/DY.BMP,resources/DG.BMP,Door3,0.46875,-0.019965278,1,0,0,0.882,optionRight,70,5075,3,3,0,3,0,1,,,,,,,,,,,,,,,,,,,,,,,,,,,,,,,,,,,,,,,
,,,,,,,,2023-08-06_08h18.20.248,HF_wild_card,2022.2.4,MacIntel,40,607312f8adb3f1b6bbfe8aa6,64ce5acb97489d65b14ecc7a,64cf491b3501f89e58eff14b,,,,,,,decisionTrl,resources/DBN.BMP,resources/DG.BMP,Door3,0.467881944,-0.008680556,1,0,0,1.183,optionRight,70,5145,3,4,0,4,0,1,,,,,,,,,,,,,,,,,,,,,,,,,,,,,,,,,,,,,,,
,,,,,,,,2023-08-06_08h18.20.248,HF_wild_card,2022.2.4,MacIntel,40,607312f8adb3f1b6bbfe8aa6,64ce5acb97489d65b14ecc7a,64cf491b3501f89e58eff14b,,,,,,,sngl,resources/DY.BMP,resources/Empty.png,Door2,-0.456597222,-0.021701389,1,0,0,1.165,optionLeft,40,5185,3,5,0,5,0,1,,,,,,,,,,,,,,,,,,,,,,,,,,,,,,,,,,,,,,,
,,,,,,,,2023-08-06_08h18.20.248,HF_wild_card,2022.2.4,MacIntel,40,607312f8adb3f1b6bbfe8aa6,64ce5acb97489d65b14ecc7a,64cf491b3501f89e58eff14b,,,,,,,decisionTrl,resources/DBN.BMP,resources/DR.BMP,Door4,-0.434895833,-0.001736111,1,0,0,2.2,optionLeft,60,5245,3,6,0,6,0,1,,,,,,,,,,,,,,,,,,,,,,,,,,,,,,,,,,,,,,,
,,,,,,,,2023-08-06_08h18.20.248,HF_wild_card,2022.2.4,MacIntel,40,607312f8adb3f1b6bbfe8aa6,64ce5acb97489d65b14ecc7a,64cf491b3501f89e58eff14b,,,,,,,decisionTrl,resources/DB.BMP,resources/DY.BMP,Door2,0.458333333,-0.019965278,1,0,0,1.383,optionRight,20,5265,3,7,0,7,0,1,,,,,,,,,,,,,,,,,,,,,,,,,,,,,,,,,,,,,,,
,,,,,,,,2023-08-06_08h18.20.248,HF_wild_card,2022.2.4,MacIntel,40,607312f8adb3f1b6bbfe8aa6,64ce5acb97489d65b14ecc7a,64cf491b3501f89e58eff14b,,,,,,,decisionTrl,resources/DG.BMP,resources/DR.BMP,Door3,-0.387152778,0.002604167,1,0,0,1.448,optionLeft,70,5335,3,8,0,8,0,1,,,,,,,,,,,,,,,,,,,,,,,,,,,,,,,,,,,,,,,
,,,,,,,,2023-08-06_08h18.20.248,HF_wild_card,2022.2.4,MacIntel,40,607312f8adb3f1b6bbfe8aa6,64ce5acb97489d65b14ecc7a,64cf491b3501f89e58eff14b,,,,,,,decisionTrl,resources/DG.BMP,resources/DBN.BMP,Door3,-0.407118056,-0.019097222,1,0,0,0.998,optionLeft,70,5405,3,9,0,9,0,1,,,,,,,,,,,,,,,,,,,,,,,,,,,,,,,,,,,,,,,
,,,,,,,,2023-08-06_08h18.20.248,HF_wild_card,2022.2.4,MacIntel,40,607312f8adb3f1b6bbfe8aa6,64ce5acb97489d65b14ecc7a,64cf491b3501f89e58eff14b,,,,,,,decisionTrl,resources/DG.BMP,resources/DBN.BMP,Door3,-0.413194444,-0.006944444,1,0,0,1.382,optionLeft,70,5475,3,10,0,10,0,1,,,,,,,,,,,,,,,,,,,,,,,,,,,,,,,,,,,,,,,
,,,,,,,,2023-08-06_08h18.20.248,HF_wild_card,2022.2.4,MacIntel,40,607312f8adb3f1b6bbfe8aa6,64ce5acb97489d65b14ecc7a,64cf491b3501f89e58eff14b,,,,,,,ctch,resources/DB.BMP,resources/DBN.BMP,Door4,0.327256944,-0.016493056,1,0,0,1.55,optionRight,80,5555,3,11,0,11,0,1,,,,,,,,,,,,,,,,,,,,,,,,,,,,,,,,,,,,,,,
,,,,,,,,2023-08-06_08h18.20.248,HF_wild_card,2022.2.4,MacIntel,40,607312f8adb3f1b6bbfe8aa6,64ce5acb97489d65b14ecc7a,64cf491b3501f89e58eff14b,,,,,,,decisionTrl,resources/DR.BMP,resources/DY.BMP,WildCard_Ex,-0.381944444,0,1,0,0,1.182,optionLeft,95,5650,3,12,0,12,0,1,,,,,,,,,,,,,,,,,,,,,,,,,,,,,,,,,,,,,,,
,,,,,,,,2023-08-06_08h18.20.248,HF_wild_card,2022.2.4,MacIntel,40,607312f8adb3f1b6bbfe8aa6,64ce5acb97489d65b14ecc7a,64cf491b3501f89e58eff14b,,,,,,,ctch,resources/DBN.BMP,resources/DB.BMP,Door4,-0.393229167,-0.019097222,1,0,0,1.365,optionLeft,80,5730,3,13,0,13,0,1,,,,,,,,,,,,,,,,,,,,,,,,,,,,,,,,,,,,,,,
,,,,,,,,2023-08-06_08h18.20.248,HF_wild_card,2022.2.4,MacIntel,40,607312f8adb3f1b6bbfe8aa6,64ce5acb97489d65b14ecc7a,64cf491b3501f89e58eff14b,,,,,,,ctch,resources/DBN.BMP,resources/DB.BMP,Door4,-0.330729167,-0.005208333,1,0,0,0.85,optionLeft,60,5790,3,14,0,14,0,1,,,,,,,,,,,,,,,,,,,,,,,,,,,,,,,,,,,,,,,
,,,,,,,,2023-08-06_08h18.20.248,HF_wild_card,2022.2.4,MacIntel,40,607312f8adb3f1b6bbfe8aa6,64ce5acb97489d65b14ecc7a,64cf491b3501f89e58eff14b,,,,,,,sngl,resources/Empty.png,resources/DR.BMP,WildCard_Ex,0.284722222,-0.041666667,1,0,0,1.115,optionRight,5,5795,3,15,0,15,0,1,,,,,,,,,,,,,,,,,,,,,,,,,,,,,,,,,,,,,,,
,,,,,,,,2023-08-06_08h18.20.248,HF_wild_card,2022.2.4,MacIntel,40,607312f8adb3f1b6bbfe8aa6,64ce5acb97489d65b14ecc7a,64cf491b3501f89e58eff14b,,,,,,,decisionTrl,resources/DR.BMP,resources/DG.BMP,Door3,0.426215278,-0.022569444,1,0,0,1.3,optionRight,70,5865,3,16,0,16,0,1,,,,,,,,,,,,,,,,,,,,,,,,,,,,,,,,,,,,,,,
,,,,,,,,2023-08-06_08h18.20.248,HF_wild_card,2022.2.4,MacIntel,40,607312f8adb3f1b6bbfe8aa6,64ce5acb97489d65b14ecc7a,64cf491b3501f89e58eff14b,,,,,,,decisionTrl,resources/DY.BMP,resources/DB.BMP,Door2,-0.380208333,-0.002604167,1,0,0,1.315,optionLeft,40,5905,3,17,0,17,0,1,,,,,,,,,,,,,,,,,,,,,,,,,,,,,,,,,,,,,,,
,,,,,,,,2023-08-06_08h18.20.248,HF_wild_card,2022.2.4,MacIntel,40,607312f8adb3f1b6bbfe8aa6,64ce5acb97489d65b14ecc7a,64cf491b3501f89e58eff14b,,,,,,,sngl,resources/DG.BMP,resources/Empty.png,Door3,-0.421006944,-0.001736111,1,0,0,0.866,optionLeft,70,5975,3,18,0,18,0,1,,,,,,,,,,,,,,,,,,,,,,,,,,,,,,,,,,,,,,,
,,,,,,,,2023-08-06_08h18.20.248,HF_wild_card,2022.2.4,MacIntel,40,607312f8adb3f1b6bbfe8aa6,64ce5acb97489d65b14ecc7a,64cf491b3501f89e58eff14b,,,,,,,decisionTrl,resources/DB.BMP,resources/DY.BMP,Door2,0.418402778,-0.032986111,1,0,0,1,optionRight,20,5995,3,19,0,19,0,1,,,,,,,,,,,,,,,,,,,,,,,,,,,,,,,,,,,,,,,
,,,,,,,,2023-08-06_08h18.20.248,HF_wild_card,2022.2.4,MacIntel,40,607312f8adb3f1b6bbfe8aa6,64ce5acb97489d65b14ecc7a,64cf491b3501f89e58eff14b,,,,,,,sngl,resources/Empty.png,resources/DB.BMP,Door1,0.331597222,-0.045138889,1,0,0,0.982,optionRight,30,6025,3,20,0,20,0,1,,,,,,,,,,,,,,,,,,,,,,,,,,,,,,,,,,,,,,,
,,,,,,,,2023-08-06_08h18.20.248,HF_wild_card,2022.2.4,MacIntel,40,607312f8adb3f1b6bbfe8aa6,64ce5acb97489d65b14ecc7a,64cf491b3501f89e58eff14b,,,,,,,decisionTrl,resources/DR.BMP,resources/DB.BMP,WildCard_Ex,-0.415798611,-0.022569444,1,0,0,1.231,optionLeft,5,6030,3,21,0,21,0,1,,,,,,,,,,,,,,,,,,,,,,,,,,,,,,,,,,,,,,,
,,,,,,,,2023-08-06_08h18.20.248,HF_wild_card,2022.2.4,MacIntel,40,607312f8adb3f1b6bbfe8aa6,64ce5acb97489d65b14ecc7a,64cf491b3501f89e58eff14b,,,,,,,sngl,resources/Empty.png,resources/DG.BMP,Door3,0.369791667,-0.064236111,1,0,0,0.882,optionRight,70,6100,3,22,0,22,0,1,,,,,,,,,,,,,,,,,,,,,,,,,,,,,,,,,,,,,,,
,,,,,,,,2023-08-06_08h18.20.248,HF_wild_card,2022.2.4,MacIntel,40,607312f8adb3f1b6bbfe8aa6,64ce5acb97489d65b14ecc7a,64cf491b3501f89e58eff14b,,,,,,,ctch,resources/DG.BMP,resources/DY.BMP,Door3,-0.261284722,0,1,0,0,1.1,optionLeft,70,6170,3,23,0,23,0,1,,,,,,,,,,,,,,,,,,,,,,,,,,,,,,,,,,,,,,,
,,,,,,,,2023-08-06_08h18.20.248,HF_wild_card,2022.2.4,MacIntel,40,607312f8adb3f1b6bbfe8aa6,64ce5acb97489d65b14ecc7a,64cf491b3501f89e58eff14b,,,,,,,decisionTrl,resources/DBN.BMP,resources/DG.BMP,Door3,0.426215278,-0.043402778,1,0,0,0.916,optionRight,70,6240,3,24,0,24,0,1,,,,,,,,,,,,,,,,,,,,,,,,,,,,,,,,,,,,,,,
,,,,,,,,2023-08-06_08h18.20.248,HF_wild_card,2022.2.4,MacIntel,40,607312f8adb3f1b6bbfe8aa6,64ce5acb97489d65b14ecc7a,64cf491b3501f89e58eff14b,,,,,,,decisionTrl,resources/DY.BMP,resources/DB.BMP,Door2,-0.301215278,-0.021701389,1,0,0,0.898,optionLeft,20,6260,3,25,0,25,0,1,,,,,,,,,,,,,,,,,,,,,,,,,,,,,,,,,,,,,,,
,,,,,,,,2023-08-06_08h18.20.248,HF_wild_card,2022.2.4,MacIntel,40,607312f8adb3f1b6bbfe8aa6,64ce5acb97489d65b14ecc7a,64cf491b3501f89e58eff14b,,,,,,,sngl,resources/Empty.png,resources/DY.BMP,Door2,0.392361111,-0.050347222,1,0,0,0.865,optionRight,20,6280,3,26,0,26,0,1,,,,,,,,,,,,,,,,,,,,,,,,,,,,,,,,,,,,,,,
,,,,,,,,2023-08-06_08h18.20.248,HF_wild_card,2022.2.4,MacIntel,40,607312f8adb3f1b6bbfe8aa6,64ce5acb97489d65b14ecc7a,64cf491b3501f89e58eff14b,,,,,,,decisionTrl,resources/DR.BMP,resources/DBN.BMP,WildCard_Ex,-0.434895833,-0.045138889,1,0,0,1.582,optionLeft,95,6375,3,27,0,27,0,1,,,,,,,,,,,,,,,,,,,,,,,,,,,,,,,,,,,,,,,
,,,,,,,,2023-08-06_08h18.20.248,HF_wild_card,2022.2.4,MacIntel,40,607312f8adb3f1b6bbfe8aa6,64ce5acb97489d65b14ecc7a,64cf491b3501f89e58eff14b,,,,,,,ctch,resources/DY.BMP,resources/DG.BMP,Door3,0.415798611,-0.011284722,1,0,0,1.032,optionRight,70,6445,3,28,0,28,0,1,,,,,,,,,,,,,,,,,,,,,,,,,,,,,,,,,,,,,,,
,,,,,,,,2023-08-06_08h18.20.248,HF_wild_card,2022.2.4,MacIntel,40,607312f8adb3f1b6bbfe8aa6,64ce5acb97489d65b14ecc7a,64cf491b3501f89e58eff14b,,,,,,,decisionTrl,resources/DY.BMP,resources/DB.BMP,Door2,-0.344618056,-0.025173611,1,0,0,1.55,optionLeft,40,6485,3,29,0,29,0,1,,,,,,,,,,,,,,,,,,,,,,,,,,,,,,,,,,,,,,,
,,,,,,,,2023-08-06_08h18.20.248,HF_wild_card,2022.2.4,MacIntel,40,607312f8adb3f1b6bbfe8aa6,64ce5acb97489d65b14ecc7a,64cf491b3501f89e58eff14b,,,,,,,sngl,resources/DR.BMP,resources/Empty.png,WildCard_Ex,-0.371527778,-0.0546875,1,0,0,0.932,optionLeft,95,6580,3,30,0,30,0,1,,,,,,,,,,,,,,,,,,,,,,,,,,,,,,,,,,,,,,,
,,,,,,,,2023-08-06_08h18.20.248,HF_wild_card,2022.2.4,MacIntel,40,607312f8adb3f1b6bbfe8aa6,64ce5acb97489d65b14ecc7a,64cf491b3501f89e58eff14b,,,,,,,ctch,resources/DB.BMP,resources/DBN.BMP,Door4,0.452256944,-0.038194444,1,0,0,1.432,optionRight,60,6640,3,31,0,31,0,1,,,,,,,,,,,,,,,,,,,,,,,,,,,,,,,,,,,,,,,
,,,,,,,,2023-08-06_08h18.20.248,HF_wild_card,2022.2.4,MacIntel,40,607312f8adb3f1b6bbfe8aa6,64ce5acb97489d65b14ecc7a,64cf491b3501f89e58eff14b,,,,,,,decisionTrl,resources/DY.BMP,resources/DB.BMP,Door2,-0.376736111,-0.046006944,1,0,0,1.083,optionLeft,40,6680,3,32,0,32,0,1,,,,,,,,,,,,,,,,,,,,,,,,,,,,,,,,,,,,,,,
,,,,,,,,2023-08-06_08h18.20.248,HF_wild_card,2022.2.4,MacIntel,40,607312f8adb3f1b6bbfe8aa6,64ce5acb97489d65b14ecc7a,64cf491b3501f89e58eff14b,,,,,,,decisionTrl,resources/DB.BMP,resources/DR.BMP,Door1,-0.4296875,-0.0390625,1,0,0,1.532,optionLeft,30,6710,3,33,0,33,0,1,,,,,,,,,,,,,,,,,,,,,,,,,,,,,,,,,,,,,,,
,,,,,,,,2023-08-06_08h18.20.248,HF_wild_card,2022.2.4,MacIntel,40,607312f8adb3f1b6bbfe8aa6,64ce5acb97489d65b14ecc7a,64cf491b3501f89e58eff14b,,,,,,,decisionTrl,resources/DBN.BMP,resources/DG.BMP,Door3,0.374131944,-0.052083333,1,0,0,1.066,optionRight,70,6780,3,34,0,34,0,1,,,,,,,,,,,,,,,,,,,,,,,,,,,,,,,,,,,,,,,
,,,,,,,,2023-08-06_08h18.20.248,HF_wild_card,2022.2.4,MacIntel,40,607312f8adb3f1b6bbfe8aa6,64ce5acb97489d65b14ecc7a,64cf491b3501f89e58eff14b,,,,,,,sngl,resources/DR.BMP,resources/Empty.png,WildCard_Ex,-0.269097222,-0.002604167,1,0,0,0.932,optionLeft,5,6785,3,35,0,35,0,1,,,,,,,,,,,,,,,,,,,,,,,,,,,,,,,,,,,,,,,
,,,,,,,,2023-08-06_08h18.20.248,HF_wild_card,2022.2.4,MacIntel,40,607312f8adb3f1b6bbfe8aa6,64ce5acb97489d65b14ecc7a,64cf491b3501f89e58eff14b,,,,,,,decisionTrl,resources/DB.BMP,resources/DY.BMP,Door2,0.393229167,-0.041666667,1,0,0,1.082,optionRight,20,6805,3,36,0,36,0,1,,,,,,,,,,,,,,,,,,,,,,,,,,,,,,,,,,,,,,,
,,,,,,,,2023-08-06_08h18.20.248,HF_wild_card,2022.2.4,MacIntel,40,607312f8adb3f1b6bbfe8aa6,64ce5acb97489d65b14ecc7a,64cf491b3501f89e58eff14b,,,,,,,sngl,resources/DBN.BMP,resources/Empty.png,Door4,-0.381076389,-0.009548611,1,0,0,0.916,optionLeft,80,6885,3,37,0,37,0,1,,,,,,,,,,,,,,,,,,,,,,,,,,,,,,,,,,,,,,,
,,,,,,,,2023-08-06_08h18.20.248,HF_wild_card,2022.2.4,MacIntel,40,607312f8adb3f1b6bbfe8aa6,64ce5acb97489d65b14ecc7a,64cf491b3501f89e58eff14b,,,,,,,decisionTrl,resources/DG.BMP,resources/DBN.BMP,Door3,-0.434027778,-0.003472222,1,0,0,1.233,optionLeft,70,6955,3,38,0,38,0,1,,,,,,,,,,,,,,,,,,,,,,,,,,,,,,,,,,,,,,,
,,,,,,,,2023-08-06_08h18.20.248,HF_wild_card,2022.2.4,MacIntel,40,607312f8adb3f1b6bbfe8aa6,64ce5acb97489d65b14ecc7a,64cf491b3501f89e58eff14b,,,,,,,sngl,resources/Empty.png,resources/DBN.BMP,Door4,0.278645833,-0.018229167,1,0,0,0.982,optionRight,60,7015,3,39,0,39,0,1,,,,,,,,,,,,,,,,,,,,,,,,,,,,,,,,,,,,,,,
,,,,,,,,2023-08-06_08h18.20.248,HF_wild_card,2022.2.4,MacIntel,40,607312f8adb3f1b6bbfe8aa6,64ce5acb97489d65b14ecc7a,64cf491b3501f89e58eff14b,,,,,,,sngl,resources/DB.BMP,resources/Empty.png,Door1,-0.401909722,-0.015625,1,0,0,1.233,optionLeft,30,7045,3,40,0,40,0,1,,,,,,,,,,,,,,,,,,,,,,,,,,,,,,,,,,,,,,,
,,,,,,,,2023-08-06_08h18.20.248,HF_wild_card,2022.2.4,MacIntel,40,607312f8adb3f1b6bbfe8aa6,64ce5acb97489d65b14ecc7a,64cf491b3501f89e58eff14b,,,,,,,decisionTrl,resources/DY.BMP,resources/DR.BMP,Door2,-0.361979167,-0.026909722,1,0,0,2.599,optionLeft,20,7065,3,41,0,41,0,1,,,,,,,,,,,,,,,,,,,,,,,,,,,,,,,,,,,,,,,
,,,,,,,,2023-08-06_08h18.20.248,HF_wild_card,2022.2.4,MacIntel,40,607312f8adb3f1b6bbfe8aa6,64ce5acb97489d65b14ecc7a,64cf491b3501f89e58eff14b,,,,,,,decisionTrl,resources/DB.BMP,resources/DY.BMP,Door2,0.3828125,-0.032986111,1,0,0,2.883,optionRight,40,7105,3,42,0,42,0,1,,,,,,,,,,,,,,,,,,,,,,,,,,,,,,,,,,,,,,,
,,,,,,,,2023-08-06_08h18.20.248,HF_wild_card,2022.2.4,MacIntel,40,607312f8adb3f1b6bbfe8aa6,64ce5acb97489d65b14ecc7a,64cf491b3501f89e58eff14b,,,,,,,sngl,resources/Empty.png,resources/DR.BMP,WildCard_Ex,0.285590278,-0.03125,1,0,0,0.965,optionRight,95,7200,3,43,0,43,0,1,,,,,,,,,,,,,,,,,,,,,,,,,,,,,,,,,,,,,,,
,,,,,,,,2023-08-06_08h18.20.248,HF_wild_card,2022.2.4,MacIntel,40,607312f8adb3f1b6bbfe8aa6,64ce5acb97489d65b14ecc7a,64cf491b3501f89e58eff14b,,,,,,,,,,,,,,,,,,,,,,,,,,2,0,2,0,1,,,,,,,,,,,,,,,,,,,,,,,,,,,,,,,,,,
,,,,,,,,2023-08-06_08h18.20.248,HF_wild_card,2022.2.4,MacIntel,40,607312f8adb3f1b6bbfe8aa6,64ce5acb97489d65b14ecc7a,64cf491b3501f89e58eff14b,,,,,,,sngl,resources/DP.BMP,resources/Empty.png,WildCard_NonEx,-0.366319444,-0.064236111,1,0,0,2.281,optionLeft,45,7245,4,0,0,0,0,1,,,,,,,,,,,,,,,,,,,,,,,,,,,,,,,,,,,,,,,
,,,,,,,,2023-08-06_08h18.20.248,HF_wild_card,2022.2.4,MacIntel,40,607312f8adb3f1b6bbfe8aa6,64ce5acb97489d65b14ecc7a,64cf491b3501f89e58eff14b,,,,,,,decisionTrl,resources/DB.BMP,resources/DY.BMP,Door2,0.3203125,-0.006944444,1,0,0,1.449,optionRight,20,7265,4,1,0,1,0,1,,,,,,,,,,,,,,,,,,,,,,,,,,,,,,,,,,,,,,,
,,,,,,,,2023-08-06_08h18.20.248,HF_wild_card,2022.2.4,MacIntel,40,607312f8adb3f1b6bbfe8aa6,64ce5acb97489d65b14ecc7a,64cf491b3501f89e58eff14b,,,,,,,decisionTrl,resources/DP.BMP,resources/DB.BMP,WildCard_NonEx,-0.393229167,-0.018229167,1,0,0,1.348,optionLeft,45,7310,4,2,0,2,0,1,,,,,,,,,,,,,,,,,,,,,,,,,,,,,,,,,,,,,,,
,,,,,,,,2023-08-06_08h18.20.248,HF_wild_card,2022.2.4,MacIntel,40,607312f8adb3f1b6bbfe8aa6,64ce5acb97489d65b14ecc7a,64cf491b3501f89e58eff14b,,,,,,,decisionTrl,resources/DG.BMP,resources/DBN.BMP,Door3,-0.395833333,-0.021701389,1,0,0,1.133,optionLeft,70,7380,4,3,0,3,0,1,,,,,,,,,,,,,,,,,,,,,,,,,,,,,,,,,,,,,,,
,,,,,,,,2023-08-06_08h18.20.248,HF_wild_card,2022.2.4,MacIntel,40,607312f8adb3f1b6bbfe8aa6,64ce5acb97489d65b14ecc7a,64cf491b3501f89e58eff14b,,,,,,,sngl,resources/Empty.png,resources/DG.BMP,Door3,0.237847222,-0.0234375,1,0,0,1.098,optionRight,70,7450,4,4,0,4,0,1,,,,,,,,,,,,,,,,,,,,,,,,,,,,,,,,,,,,,,,
,,,,,,,,2023-08-06_08h18.20.248,HF_wild_card,2022.2.4,MacIntel,40,607312f8adb3f1b6bbfe8aa6,64ce5acb97489d65b14ecc7a,64cf491b3501f89e58eff14b,,,,,,,decisionTrl,resources/DG.BMP,resources/DBN.BMP,Door3,-0.465277778,-0.004340278,1,0,0,0.949,optionLeft,70,7520,4,5,0,5,0,1,,,,,,,,,,,,,,,,,,,,,,,,,,,,,,,,,,,,,,,
,,,,,,,,2023-08-06_08h18.20.248,HF_wild_card,2022.2.4,MacIntel,40,607312f8adb3f1b6bbfe8aa6,64ce5acb97489d65b14ecc7a,64cf491b3501f89e58eff14b,,,,,,,decisionTrl,resources/DY.BMP,resources/DB.BMP,Door2,-0.358506944,0.010416667,1,0,0,1.166,optionLeft,40,7560,4,6,0,6,0,1,,,,,,,,,,,,,,,,,,,,,,,,,,,,,,,,,,,,,,,
,,,,,,,,2023-08-06_08h18.20.248,HF_wild_card,2022.2.4,MacIntel,40,607312f8adb3f1b6bbfe8aa6,64ce5acb97489d65b14ecc7a,64cf491b3501f89e58eff14b,,,,,,,sngl,resources/DBN.BMP,resources/Empty.png,Door4,-0.323784722,0.004340278,1,0,0,0.849,optionLeft,60,7620,4,7,0,7,0,1,,,,,,,,,,,,,,,,,,,,,,,,,,,,,,,,,,,,,,,
,,,,,,,,2023-08-06_08h18.20.248,HF_wild_card,2022.2.4,MacIntel,40,607312f8adb3f1b6bbfe8aa6,64ce5acb97489d65b14ecc7a,64cf491b3501f89e58eff14b,,,,,,,sngl,resources/DP.BMP,resources/Empty.png,WildCard_NonEx,-0.415798611,-0.014756944,1,0,0,0.848,optionLeft,55,7675,4,8,0,8,0,1,,,,,,,,,,,,,,,,,,,,,,,,,,,,,,,,,,,,,,,
,,,,,,,,2023-08-06_08h18.20.248,HF_wild_card,2022.2.4,MacIntel,40,607312f8adb3f1b6bbfe8aa6,64ce5acb97489d65b14ecc7a,64cf491b3501f89e58eff14b,,,,,,,decisionTrl,resources/DBN.BMP,resources/DG.BMP,Door3,0.472222222,-0.009548611,1,0,0,1.065,optionRight,70,7745,4,9,0,9,0,1,,,,,,,,,,,,,,,,,,,,,,,,,,,,,,,,,,,,,,,
,,,,,,,,2023-08-06_08h18.20.248,HF_wild_card,2022.2.4,MacIntel,40,607312f8adb3f1b6bbfe8aa6,64ce5acb97489d65b14ecc7a,64cf491b3501f89e58eff14b,,,,,,,ctch,resources/DBN.BMP,resources/DB.BMP,Door4,-0.3828125,-0.004340278,1,0,0,1.417,optionLeft,60,7805,4,10,0,10,0,1,,,,,,,,,,,,,,,,,,,,,,,,,,,,,,,,,,,,,,,
,,,,,,,,2023-08-06_08h18.20.248,HF_wild_card,2022.2.4,MacIntel,40,607312f8adb3f1b6bbfe8aa6,64ce5acb97489d65b14ecc7a,64cf491b3501f89e58eff14b,,,,,,,ctch,resources/DY.BMP,resources/DG.BMP,Door3,0.480034722,0.002604167,1,0,0,1.083,optionRight,70,7875,4,11,0,11,0,1,,,,,,,,,,,,,,,,,,,,,,,,,,,,,,,,,,,,,,,
,,,,,,,,2023-08-06_08h18.20.248,HF_wild_card,2022.2.4,MacIntel,40,607312f8adb3f1b6bbfe8aa6,64ce5acb97489d65b14ecc7a,64cf491b3501f89e58eff14b,,,,,,,decisionTrl,resources/DG.BMP,resources/DBN.BMP,Door3,-0.3125,-0.010416667,1,0,0,0.998,optionLeft,70,7945,4,12,0,12,0,1,,,,,,,,,,,,,,,,,,,,,,,,,,,,,,,,,,,,,,,
,,,,,,,,2023-08-06_08h18.20.248,HF_wild_card,2022.2.4,MacIntel,40,607312f8adb3f1b6bbfe8aa6,64ce5acb97489d65b14ecc7a,64cf491b3501f89e58eff14b,,,,,,,sngl,resources/Empty.png,resources/DB.BMP,Door1,0.322916667,-0.018229167,1,0,0,1.183,optionRight,30,7975,4,13,0,13,0,1,,,,,,,,,,,,,,,,,,,,,,,,,,,,,,,,,,,,,,,
,,,,,,,,2023-08-06_08h18.20.248,HF_wild_card,2022.2.4,MacIntel,40,607312f8adb3f1b6bbfe8aa6,64ce5acb97489d65b14ecc7a,64cf491b3501f89e58eff14b,,,,,,,ctch,resources/DB.BMP,resources/DBN.BMP,Door4,0.412326389,-0.015625,1,0,0,1.231,optionRight,60,8035,4,14,0,14,0,1,,,,,,,,,,,,,,,,,,,,,,,,,,,,,,,,,,,,,,,
,,,,,,,,2023-08-06_08h18.20.248,HF_wild_card,2022.2.4,MacIntel,40,607312f8adb3f1b6bbfe8aa6,64ce5acb97489d65b14ecc7a,64cf491b3501f89e58eff14b,,,,,,,decisionTrl,resources/DY.BMP,resources/DP.BMP,WildCard_NonEx,0.391493056,-0.020833333,1,0,0,1.4,optionRight,45,8080,4,15,0,15,0,1,,,,,,,,,,,,,,,,,,,,,,,,,,,,,,,,,,,,,,,
,,,,,,,,2023-08-06_08h18.20.248,HF_wild_card,2022.2.4,MacIntel,40,607312f8adb3f1b6bbfe8aa6,64ce5acb97489d65b14ecc7a,64cf491b3501f89e58eff14b,,,,,,,ctch,resources/DG.BMP,resources/DY.BMP,Door3,-0.326388889,-0.03125,1,0,0,1.064,optionLeft,70,8150,4,16,0,16,0,1,,,,,,,,,,,,,,,,,,,,,,,,,,,,,,,,,,,,,,,
,,,,,,,,2023-08-06_08h18.20.248,HF_wild_card,2022.2.4,MacIntel,40,607312f8adb3f1b6bbfe8aa6,64ce5acb97489d65b14ecc7a,64cf491b3501f89e58eff14b,,,,,,,decisionTrl,resources/DB.BMP,resources/DY.BMP,Door2,0.446180556,-0.026041667,1,0,0,1.083,optionRight,20,8170,4,17,0,17,0,1,,,,,,,,,,,,,,,,,,,,,,,,,,,,,,,,,,,,,,,
,,,,,,,,2023-08-06_08h18.20.248,HF_wild_card,2022.2.4,MacIntel,40,607312f8adb3f1b6bbfe8aa6,64ce5acb97489d65b14ecc7a,64cf491b3501f89e58eff14b,,,,,,,decisionTrl,resources/DBN.BMP,resources/DG.BMP,Door3,0.392361111,-0.015625,1,0,0,1.081,optionRight,70,8240,4,18,0,18,0,1,,,,,,,,,,,,,,,,,,,,,,,,,,,,,,,,,,,,,,,
,,,,,,,,2023-08-06_08h18.20.248,HF_wild_card,2022.2.4,MacIntel,40,607312f8adb3f1b6bbfe8aa6,64ce5acb97489d65b14ecc7a,64cf491b3501f89e58eff14b,,,,,,,sngl,resources/DY.BMP,resources/Empty.png,Door2,-0.326388889,0.002604167,1,0,0,0.882,optionLeft,20,8260,4,19,0,19,0,1,,,,,,,,,,,,,,,,,,,,,,,,,,,,,,,,,,,,,,,
,,,,,,,,2023-08-06_08h18.20.248,HF_wild_card,2022.2.4,MacIntel,40,607312f8adb3f1b6bbfe8aa6,64ce5acb97489d65b14ecc7a,64cf491b3501f89e58eff14b,,,,,,,decisionTrl,resources/DB.BMP,resources/DP.BMP,WildCard_NonEx,0.412326389,-0.025173611,1,0,0,1.132,optionRight,55,8315,4,20,0,20,0,1,,,,,,,,,,,,,,,,,,,,,,,,,,,,,,,,,,,,,,,
,,,,,,,,2023-08-06_08h18.20.248,HF_wild_card,2022.2.4,MacIntel,40,607312f8adb3f1b6bbfe8aa6,64ce5acb97489d65b14ecc7a,64cf491b3501f89e58eff14b,,,,,,,sngl,resources/Empty.png,resources/DBN.BMP,Door4,0.287326389,-0.029513889,1,0,0,0.949,optionRight,80,8395,4,21,0,21,0,1,,,,,,,,,,,,,,,,,,,,,,,,,,,,,,,,,,,,,,,
,,,,,,,,2023-08-06_08h18.20.248,HF_wild_card,2022.2.4,MacIntel,40,607312f8adb3f1b6bbfe8aa6,64ce5acb97489d65b14ecc7a,64cf491b3501f89e58eff14b,,,,,,,decisionTrl,resources/DB.BMP,resources/DY.BMP,Door2,0.376736111,-0.005208333,1,0,0,1.299,optionRight,20,8415,4,22,0,22,0,1,,,,,,,,,,,,,,,,,,,,,,,,,,,,,,,,,,,,,,,
,,,,,,,,2023-08-06_08h18.20.248,HF_wild_card,2022.2.4,MacIntel,40,607312f8adb3f1b6bbfe8aa6,64ce5acb97489d65b14ecc7a,64cf491b3501f89e58eff14b,,,,,,,sngl,resources/DG.BMP,resources/Empty.png,Door3,-0.353298611,-0.059895833,1,0,0,0.883,optionLeft,70,8485,4,23,0,23,0,1,,,,,,,,,,,,,,,,,,,,,,,,,,,,,,,,,,,,,,,
,,,,,,,,2023-08-06_08h18.20.248,HF_wild_card,2022.2.4,MacIntel,40,607312f8adb3f1b6bbfe8aa6,64ce5acb97489d65b14ecc7a,64cf491b3501f89e58eff14b,,,,,,,decisionTrl,resources/DY.BMP,resources/DB.BMP,Door2,-0.370659722,-0.039930556,1,0,0,1.316,optionLeft,20,8505,4,24,0,24,0,1,,,,,,,,,,,,,,,,,,,,,,,,,,,,,,,,,,,,,,,
,,,,,,,,2023-08-06_08h18.20.248,HF_wild_card,2022.2.4,MacIntel,40,607312f8adb3f1b6bbfe8aa6,64ce5acb97489d65b14ecc7a,64cf491b3501f89e58eff14b,,,,,,,ctch,resources/DY.BMP,resources/DG.BMP,Door3,0.373263889,0.028645833,1,0,0,1.166,optionRight,70,8575,4,25,0,25,0,1,,,,,,,,,,,,,,,,,,,,,,,,,,,,,,,,,,,,,,,
,,,,,,,,2023-08-06_08h18.20.248,HF_wild_card,2022.2.4,MacIntel,40,607312f8adb3f1b6bbfe8aa6,64ce5acb97489d65b14ecc7a,64cf491b3501f89e58eff14b,,,,,,,sngl,resources/Empty.png,resources/DP.BMP,WildCard_NonEx,0.410590278,-0.004340278,1,0,0,1.031,optionRight,45,8620,4,26,0,26,0,1,,,,,,,,,,,,,,,,,,,,,,,,,,,,,,,,,,,,,,,
,,,,,,,,2023-08-06_08h18.20.248,HF_wild_card,2022.2.4,MacIntel,40,607312f8adb3f1b6bbfe8aa6,64ce5acb97489d65b14ecc7a,64cf491b3501f89e58eff14b,,,,,,,sngl,resources/Empty.png,resources/DY.BMP,Door2,0.458333333,-0.015625,1,0,0,0.899,optionRight,40,8660,4,27,0,27,0,1,,,,,,,,,,,,,,,,,,,,,,,,,,,,,,,,,,,,,,,
,,,,,,,,2023-08-06_08h18.20.248,HF_wild_card,2022.2.4,MacIntel,40,607312f8adb3f1b6bbfe8aa6,64ce5acb97489d65b14ecc7a,64cf491b3501f89e58eff14b,,,,,,,decisionTrl,resources/DB.BMP,resources/DY.BMP,Door2,0.441840278,-0.018229167,1,0,0,1.048,optionRight,40,8700,4,28,0,28,0,1,,,,,,,,,,,,,,,,,,,,,,,,,,,,,,,,,,,,,,,
,,,,,,,,2023-08-06_08h18.20.248,HF_wild_card,2022.2.4,MacIntel,40,607312f8adb3f1b6bbfe8aa6,64ce5acb97489d65b14ecc7a,64cf491b3501f89e58eff14b,,,,,,,decisionTrl,resources/DP.BMP,resources/DY.BMP,WildCard_NonEx,-0.5078125,-0.013020833,1,0,0,0.965,optionLeft,45,8745,4,29,0,29,0,1,,,,,,,,,,,,,,,,,,,,,,,,,,,,,,,,,,,,,,,
,,,,,,,,2023-08-06_08h18.20.248,HF_wild_card,2022.2.4,MacIntel,40,607312f8adb3f1b6bbfe8aa6,64ce5acb97489d65b14ecc7a,64cf491b3501f89e58eff14b,,,,,,,sngl,resources/DB.BMP,resources/Empty.png,Door1,-0.371527778,-0.032986111,1,0,0,1.216,optionLeft,30,8775,4,30,0,30,0,1,,,,,,,,,,,,,,,,,,,,,,,,,,,,,,,,,,,,,,,
,,,,,,,,2023-08-06_08h18.20.248,HF_wild_card,2022.2.4,MacIntel,40,607312f8adb3f1b6bbfe8aa6,64ce5acb97489d65b14ecc7a,64cf491b3501f89e58eff14b,,,,,,,ctch,resources/DB.BMP,resources/DBN.BMP,Door4,0.397569444,-0.006076389,1,0,0,3.268,optionRight,60,8835,4,31,0,31,0,1,,,,,,,,,,,,,,,,,,,,,,,,,,,,,,,,,,,,,,,
,,,,,,,,2023-08-06_08h18.20.248,HF_wild_card,2022.2.4,MacIntel,40,607312f8adb3f1b6bbfe8aa6,64ce5acb97489d65b14ecc7a,64cf491b3501f89e58eff14b,,,,,,,decisionTrl,resources/DY.BMP,resources/DB.BMP,Door2,-0.411458333,-0.055555556,1,0,0,1.116,optionLeft,40,8875,4,32,0,32,0,1,,,,,,,,,,,,,,,,,,,,,,,,,,,,,,,,,,,,,,,
,,,,,,,,2023-08-06_08h18.20.248,HF_wild_card,2022.2.4,MacIntel,40,607312f8adb3f1b6bbfe8aa6,64ce5acb97489d65b14ecc7a,64cf491b3501f89e58eff14b,,,,,,,ctch,resources/DBN.BMP,resources/DB.BMP,Door4,-0.276909722,-0.015625,1,0,0,1.067,optionLeft,60,8935,4,33,0,33,0,1,,,,,,,,,,,,,,,,,,,,,,,,,,,,,,,,,,,,,,,
,,,,,,,,2023-08-06_08h18.20.248,HF_wild_card,2022.2.4,MacIntel,40,607312f8adb3f1b6bbfe8aa6,64ce5acb97489d65b14ecc7a,64cf491b3501f89e58eff14b,,,,,,,decisionTrl,resources/DY.BMP,resources/DB.BMP,Door2,-0.329861111,-0.035590278,1,0,0,1.217,optionLeft,20,8955,4,34,0,34,0,1,,,,,,,,,,,,,,,,,,,,,,,,,,,,,,,,,,,,,,,
,,,,,,,,2023-08-06_08h18.20.248,HF_wild_card,2022.2.4,MacIntel,40,607312f8adb3f1b6bbfe8aa6,64ce5acb97489d65b14ecc7a,64cf491b3501f89e58eff14b,,,,,,,ctch,resources/DG.BMP,resources/DY.BMP,Door3,-0.374131944,-0.000868056,1,0,0,0.967,optionLeft,70,9025,4,35,0,35,0,1,,,,,,,,,,,,,,,,,,,,,,,,,,,,,,,,,,,,,,,
,,,,,,,,2023-08-06_08h18.20.248,HF_wild_card,2022.2.4,MacIntel,40,607312f8adb3f1b6bbfe8aa6,64ce5acb97489d65b14ecc7a,64cf491b3501f89e58eff14b,,,,,,,decisionTrl,resources/DP.BMP,resources/DG.BMP,Door3,0.364583333,-0.019097222,1,0,0,4.085,optionRight,70,9095,4,36,0,36,0,1,,,,,,,,,,,,,,,,,,,,,,,,,,,,,,,,,,,,,,,
,,,,,,,,2023-08-06_08h18.20.248,HF_wild_card,2022.2.4,MacIntel,40,607312f8adb3f1b6bbfe8aa6,64ce5acb97489d65b14ecc7a,64cf491b3501f89e58eff14b,,,,,,,decisionTrl,resources/DBN.BMP,resources/DP.BMP,Door4,-0.402777778,-0.026041667,1,0,0,2.517,optionLeft,60,9155,4,37,0,37,0,1,,,,,,,,,,,,,,,,,,,,,,,,,,,,,,,,,,,,,,,
,,,,,,,,2023-08-06_08h18.20.248,HF_wild_card,2022.2.4,MacIntel,40,607312f8adb3f1b6bbfe8aa6,64ce5acb97489d65b14ecc7a,64cf491b3501f89e58eff14b,,,,,,,decisionTrl,resources/DG.BMP,resources/DP.BMP,Door3,-0.322048611,-0.019097222,1,0,0,1.382,optionLeft,70,9225,4,38,0,38,0,1,,,,,,,,,,,,,,,,,,,,,,,,,,,,,,,,,,,,,,,
,,,,,,,,2023-08-06_08h18.20.248,HF_wild_card,2022.2.4,MacIntel,40,607312f8adb3f1b6bbfe8aa6,64ce5acb97489d65b14ecc7a,64cf491b3501f89e58eff14b,,,,,,,decisionTrl,resources/DBN.BMP,resources/DG.BMP,Door3,0.397569444,-0.014756944,1,0,0,3.969,optionRight,70,9295,4,39,0,39,0,1,,,,,,,,,,,,,,,,,,,,,,,,,,,,,,,,,,,,,,,
,,,,,,,,2023-08-06_08h18.20.248,HF_wild_card,2022.2.4,MacIntel,40,607312f8adb3f1b6bbfe8aa6,64ce5acb97489d65b14ecc7a,64cf491b3501f89e58eff14b,,,,,,,decisionTrl,resources/DG.BMP,resources/DBN.BMP,Door3,-0.3046875,0.006944444,1,0,0,1.015,optionLeft,70,9365,4,40,0,40,0,1,,,,,,,,,,,,,,,,,,,,,,,,,,,,,,,,,,,,,,,
,,,,,,,,2023-08-06_08h18.20.248,HF_wild_card,2022.2.4,MacIntel,40,607312f8adb3f1b6bbfe8aa6,64ce5acb97489d65b14ecc7a,64cf491b3501f89e58eff14b,,,,,,,decisionTrl,resources/DP.BMP,resources/DBN.BMP,WildCard_NonEx,-0.364583333,0.006076389,1,0,0,0.966,optionLeft,55,9420,4,41,0,41,0,1,,,,,,,,,,,,,,,,,,,,,,,,,,,,,,,,,,,,,,,
,,,,,,,,2023-08-06_08h18.20.248,HF_wild_card,2022.2.4,MacIntel,40,607312f8adb3f1b6bbfe8aa6,64ce5acb97489d65b14ecc7a,64cf491b3501f89e58eff14b,,,,,,,sngl,resources/Empty.png,resources/DP.BMP,WildCard_NonEx,0.277777778,-0.052083333,1,0,0,0.9,optionRight,55,9475,4,42,0,42,0,1,,,,,,,,,,,,,,,,,,,,,,,,,,,,,,,,,,,,,,,
,,,,,,,,2023-08-06_08h18.20.248,HF_wild_card,2022.2.4,MacIntel,40,607312f8adb3f1b6bbfe8aa6,64ce5acb97489d65b14ecc7a,64cf491b3501f89e58eff14b,,,,,,,decisionTrl,resources/DBN.BMP,resources/DG.BMP,Door3,0.395833333,-0.006944444,1,0,0,1.25,optionRight,70,9545,4,43,0,43,0,1,,,,,,,,,,,,,,,,,,,,,,,,,,,,,,,,,,,,,,,
,,,,,,,,2023-08-06_08h18.20.248,HF_wild_card,2022.2.4,MacIntel,40,607312f8adb3f1b6bbfe8aa6,64ce5acb97489d65b14ecc7a,64cf491b3501f89e58eff14b,,,,,,,,,,,,,,,,,,,,,,,,,,3,0,3,0,1,,,,,,,,,,,,,,,,,,,,,,,,,,,,,,,,,,
,,,,,,,,2023-08-06_08h18.20.248,HF_wild_card,2022.2.4,MacIntel,40,607312f8adb3f1b6bbfe8aa6,64ce5acb97489d65b14ecc7a,64cf491b3501f89e58eff14b,,,,,,,decisionTrl,resources/DP.BMP,resources/DBN.BMP,WildCard_NonEx,-0.299479167,-0.044270833,1,0,0,1.211,optionLeft,55,9600,5,0,0,0,0,1,,,,,,,,,,,,,,,,,,,,,,,,,,,,,,,,,,,,,,,
,,,,,,,,2023-08-06_08h18.20.248,HF_wild_card,2022.2.4,MacIntel,40,607312f8adb3f1b6bbfe8aa6,64ce5acb97489d65b14ecc7a,64cf491b3501f89e58eff14b,,,,,,,decisionTrl,resources/DG.BMP,resources/DBN.BMP,Door3,-0.352430556,0.002604167,1,0,0,1.098,optionLeft,70,9670,5,1,0,1,0,1,,,,,,,,,,,,,,,,,,,,,,,,,,,,,,,,,,,,,,,
,,,,,,,,2023-08-06_08h18.20.248,HF_wild_card,2022.2.4,MacIntel,40,607312f8adb3f1b6bbfe8aa6,64ce5acb97489d65b14ecc7a,64cf491b3501f89e58eff14b,,,,,,,decisionTrl,resources/DB.BMP,resources/DY.BMP,Door2,0.455729167,-0.027777778,1,0,0,1.016,optionRight,40,9710,5,2,0,2,0,1,,,,,,,,,,,,,,,,,,,,,,,,,,,,,,,,,,,,,,,
,,,,,,,,2023-08-06_08h18.20.248,HF_wild_card,2022.2.4,MacIntel,40,607312f8adb3f1b6bbfe8aa6,64ce5acb97489d65b14ecc7a,64cf491b3501f89e58eff14b,,,,,,,decisionTrl,resources/DB.BMP,resources/DY.BMP,Door2,0.393229167,-0.036458333,1,0,0,0.916,optionRight,20,9730,5,3,0,3,0,1,,,,,,,,,,,,,,,,,,,,,,,,,,,,,,,,,,,,,,,
,,,,,,,,2023-08-06_08h18.20.248,HF_wild_card,2022.2.4,MacIntel,40,607312f8adb3f1b6bbfe8aa6,64ce5acb97489d65b14ecc7a,64cf491b3501f89e58eff14b,,,,,,,ctch,resources/DBN.BMP,resources/DB.BMP,Door4,-0.267361111,0.013888889,1,0,0,1.132,optionLeft,80,9810,5,4,0,4,0,1,,,,,,,,,,,,,,,,,,,,,,,,,,,,,,,,,,,,,,,
,,,,,,,,2023-08-06_08h18.20.248,HF_wild_card,2022.2.4,MacIntel,40,607312f8adb3f1b6bbfe8aa6,64ce5acb97489d65b14ecc7a,64cf491b3501f89e58eff14b,,,,,,,ctch,resources/DG.BMP,resources/DY.BMP,Door3,-0.359375,0.008680556,1,0,0,1.082,optionLeft,70,9880,5,5,0,5,0,1,,,,,,,,,,,,,,,,,,,,,,,,,,,,,,,,,,,,,,,
,,,,,,,,2023-08-06_08h18.20.248,HF_wild_card,2022.2.4,MacIntel,40,607312f8adb3f1b6bbfe8aa6,64ce5acb97489d65b14ecc7a,64cf491b3501f89e58eff14b,,,,,,,decisionTrl,resources/DP.BMP,resources/DY.BMP,WildCard_NonEx,-0.424479167,-0.058159722,1,0,0,1.148,optionLeft,45,9925,5,6,0,6,0,1,,,,,,,,,,,,,,,,,,,,,,,,,,,,,,,,,,,,,,,
,,,,,,,,2023-08-06_08h18.20.248,HF_wild_card,2022.2.4,MacIntel,40,607312f8adb3f1b6bbfe8aa6,64ce5acb97489d65b14ecc7a,64cf491b3501f89e58eff14b,,,,,,,sngl,resources/Empty.png,resources/DP.BMP,WildCard_NonEx,0.474826389,-0.032118056,1,0,0,0.798,optionRight,45,9970,5,7,0,7,0,1,,,,,,,,,,,,,,,,,,,,,,,,,,,,,,,,,,,,,,,
,,,,,,,,2023-08-06_08h18.20.248,HF_wild_card,2022.2.4,MacIntel,40,607312f8adb3f1b6bbfe8aa6,64ce5acb97489d65b14ecc7a,64cf491b3501f89e58eff14b,,,,,,,decisionTrl,resources/DG.BMP,resources/DP.BMP,Door3,-0.296875,-0.004340278,1,0,0,1.216,optionLeft,70,10040,5,8,0,8,0,1,,,,,,,,,,,,,,,,,,,,,,,,,,,,,,,,,,,,,,,
,,,,,,,,2023-08-06_08h18.20.248,HF_wild_card,2022.2.4,MacIntel,40,607312f8adb3f1b6bbfe8aa6,64ce5acb97489d65b14ecc7a,64cf491b3501f89e58eff14b,,,,,,,decisionTrl,resources/DY.BMP,resources/DP.BMP,WildCard_NonEx,0.378472222,-0.032118056,1,0,0,2.867,optionRight,45,10085,5,9,0,9,0,1,,,,,,,,,,,,,,,,,,,,,,,,,,,,,,,,,,,,,,,
,,,,,,,,2023-08-06_08h18.20.248,HF_wild_card,2022.2.4,MacIntel,40,607312f8adb3f1b6bbfe8aa6,64ce5acb97489d65b14ecc7a,64cf491b3501f89e58eff14b,,,,,,,ctch,resources/DB.BMP,resources/DBN.BMP,Door4,0.365451389,0.006076389,1,0,0,1.216,optionRight,60,10145,5,10,0,10,0,1,,,,,,,,,,,,,,,,,,,,,,,,,,,,,,,,,,,,,,,
,,,,,,,,2023-08-06_08h18.20.248,HF_wild_card,2022.2.4,MacIntel,40,607312f8adb3f1b6bbfe8aa6,64ce5acb97489d65b14ecc7a,64cf491b3501f89e58eff14b,,,,,,,decisionTrl,resources/DBN.BMP,resources/DG.BMP,Door3,0.363715278,0.006944444,1,0,0,1.134,optionRight,70,10215,5,11,0,11,0,1,,,,,,,,,,,,,,,,,,,,,,,,,,,,,,,,,,,,,,,
,,,,,,,,2023-08-06_08h18.20.248,HF_wild_card,2022.2.4,MacIntel,40,607312f8adb3f1b6bbfe8aa6,64ce5acb97489d65b14ecc7a,64cf491b3501f89e58eff14b,,,,,,,sngl,resources/Empty.png,resources/DG.BMP,Door3,0.416666667,0.013888889,1,0,0,0.865,optionRight,70,10285,5,12,0,12,0,1,,,,,,,,,,,,,,,,,,,,,,,,,,,,,,,,,,,,,,,
,,,,,,,,2023-08-06_08h18.20.248,HF_wild_card,2022.2.4,MacIntel,40,607312f8adb3f1b6bbfe8aa6,64ce5acb97489d65b14ecc7a,64cf491b3501f89e58eff14b,,,,,,,sngl,resources/Empty.png,resources/DBN.BMP,Door4,0.433159722,0.028645833,1,0,0,0.883,optionRight,60,10345,5,13,0,13,0,1,,,,,,,,,,,,,,,,,,,,,,,,,,,,,,,,,,,,,,,
,,,,,,,,2023-08-06_08h18.20.248,HF_wild_card,2022.2.4,MacIntel,40,607312f8adb3f1b6bbfe8aa6,64ce5acb97489d65b14ecc7a,64cf491b3501f89e58eff14b,,,,,,,decisionTrl,resources/DG.BMP,resources/DBN.BMP,Door3,-0.377604167,-0.005208333,1,0,0,1.05,optionLeft,70,10415,5,14,0,14,0,1,,,,,,,,,,,,,,,,,,,,,,,,,,,,,,,,,,,,,,,
,,,,,,,,2023-08-06_08h18.20.248,HF_wild_card,2022.2.4,MacIntel,40,607312f8adb3f1b6bbfe8aa6,64ce5acb97489d65b14ecc7a,64cf491b3501f89e58eff14b,,,,,,,decisionTrl,resources/DBN.BMP,resources/DP.BMP,Door4,-0.326388889,0,1,0,0,2.633,optionLeft,60,10475,5,15,0,15,0,1,,,,,,,,,,,,,,,,,,,,,,,,,,,,,,,,,,,,,,,
,,,,,,,,2023-08-06_08h18.20.248,HF_wild_card,2022.2.4,MacIntel,40,607312f8adb3f1b6bbfe8aa6,64ce5acb97489d65b14ecc7a,64cf491b3501f89e58eff14b,,,,,,,sngl,resources/Empty.png,resources/DB.BMP,Door1,0.388020833,-0.006076389,1,0,0,1.099,optionRight,30,10505,5,16,0,16,0,1,,,,,,,,,,,,,,,,,,,,,,,,,,,,,,,,,,,,,,,
,,,,,,,,2023-08-06_08h18.20.248,HF_wild_card,2022.2.4,MacIntel,40,607312f8adb3f1b6bbfe8aa6,64ce5acb97489d65b14ecc7a,64cf491b3501f89e58eff14b,,,,,,,decisionTrl,resources/DBN.BMP,resources/DG.BMP,Door3,0.415798611,0.011284722,1,0,0,1.116,optionRight,70,10575,5,17,0,17,0,1,,,,,,,,,,,,,,,,,,,,,,,,,,,,,,,,,,,,,,,
,,,,,,,,2023-08-06_08h18.20.248,HF_wild_card,2022.2.4,MacIntel,40,607312f8adb3f1b6bbfe8aa6,64ce5acb97489d65b14ecc7a,64cf491b3501f89e58eff14b,,,,,,,ctch,resources/DBN.BMP,resources/DB.BMP,Door4,-0.375,0.018229167,1,0,0,1.248,optionLeft,80,10655,5,18,0,18,0,1,,,,,,,,,,,,,,,,,,,,,,,,,,,,,,,,,,,,,,,
,,,,,,,,2023-08-06_08h18.20.248,HF_wild_card,2022.2.4,MacIntel,40,607312f8adb3f1b6bbfe8aa6,64ce5acb97489d65b14ecc7a,64cf491b3501f89e58eff14b,,,,,,,sngl,resources/Empty.png,resources/DY.BMP,Door2,0.319444444,-0.015625,1,0,0,0.817,optionRight,20,10675,5,19,0,19,0,1,,,,,,,,,,,,,,,,,,,,,,,,,,,,,,,,,,,,,,,
,,,,,,,,2023-08-06_08h18.20.248,HF_wild_card,2022.2.4,MacIntel,40,607312f8adb3f1b6bbfe8aa6,64ce5acb97489d65b14ecc7a,64cf491b3501f89e58eff14b,,,,,,,decisionTrl,resources/DY.BMP,resources/DB.BMP,Door2,-0.328993056,-0.020833333,1,0,0,1.132,optionLeft,40,10715,5,20,0,20,0,1,,,,,,,,,,,,,,,,,,,,,,,,,,,,,,,,,,,,,,,
,,,,,,,,2023-08-06_08h18.20.248,HF_wild_card,2022.2.4,MacIntel,40,607312f8adb3f1b6bbfe8aa6,64ce5acb97489d65b14ecc7a,64cf491b3501f89e58eff14b,,,,,,,decisionTrl,resources/DBN.BMP,resources/DG.BMP,Door3,0.355034722,-0.021701389,1,0,0,1.465,optionRight,70,10785,5,21,0,21,0,1,,,,,,,,,,,,,,,,,,,,,,,,,,,,,,,,,,,,,,,
,,,,,,,,2023-08-06_08h18.20.248,HF_wild_card,2022.2.4,MacIntel,40,607312f8adb3f1b6bbfe8aa6,64ce5acb97489d65b14ecc7a,64cf491b3501f89e58eff14b,,,,,,,sngl,resources/DP.BMP,resources/Empty.png,WildCard_NonEx,-0.410590278,-0.03125,1,0,0,0.848,optionLeft,45,10830,5,22,0,22,0,1,,,,,,,,,,,,,,,,,,,,,,,,,,,,,,,,,,,,,,,
,,,,,,,,2023-08-06_08h18.20.248,HF_wild_card,2022.2.4,MacIntel,40,607312f8adb3f1b6bbfe8aa6,64ce5acb97489d65b14ecc7a,64cf491b3501f89e58eff14b,,,,,,,sngl,resources/DB.BMP,resources/Empty.png,Door1,-0.381944444,-0.034722222,1,0,0,1.099,optionLeft,30,10860,5,23,0,23,0,1,,,,,,,,,,,,,,,,,,,,,,,,,,,,,,,,,,,,,,,
,,,,,,,,2023-08-06_08h18.20.248,HF_wild_card,2022.2.4,MacIntel,40,607312f8adb3f1b6bbfe8aa6,64ce5acb97489d65b14ecc7a,64cf491b3501f89e58eff14b,,,,,,,ctch,resources/DG.BMP,resources/DY.BMP,Door3,-0.311631944,0.013020833,1,0,0,1.364,optionLeft,70,10930,5,24,0,24,0,1,,,,,,,,,,,,,,,,,,,,,,,,,,,,,,,,,,,,,,,
,,,,,,,,2023-08-06_08h18.20.248,HF_wild_card,2022.2.4,MacIntel,40,607312f8adb3f1b6bbfe8aa6,64ce5acb97489d65b14ecc7a,64cf491b3501f89e58eff14b,,,,,,,decisionTrl,resources/DY.BMP,resources/DB.BMP,Door2,-0.276041667,-0.013020833,1,0,0,1.533,optionLeft,40,10970,5,25,0,25,0,1,,,,,,,,,,,,,,,,,,,,,,,,,,,,,,,,,,,,,,,
,,,,,,,,2023-08-06_08h18.20.248,HF_wild_card,2022.2.4,MacIntel,40,607312f8adb3f1b6bbfe8aa6,64ce5acb97489d65b14ecc7a,64cf491b3501f89e58eff14b,,,,,,,decisionTrl,resources/DB.BMP,resources/DY.BMP,Door2,0.409722222,-0.0234375,1,0,0,1.049,optionRight,20,10990,5,26,0,26,0,1,,,,,,,,,,,,,,,,,,,,,,,,,,,,,,,,,,,,,,,
,,,,,,,,2023-08-06_08h18.20.248,HF_wild_card,2022.2.4,MacIntel,40,607312f8adb3f1b6bbfe8aa6,64ce5acb97489d65b14ecc7a,64cf491b3501f89e58eff14b,,,,,,,decisionTrl,resources/DP.BMP,resources/DG.BMP,Door3,0.395833333,-0.013888889,1,0,0,1.717,optionRight,70,11060,5,27,0,27,0,1,,,,,,,,,,,,,,,,,,,,,,,,,,,,,,,,,,,,,,,
,,,,,,,,2023-08-06_08h18.20.248,HF_wild_card,2022.2.4,MacIntel,40,607312f8adb3f1b6bbfe8aa6,64ce5acb97489d65b14ecc7a,64cf491b3501f89e58eff14b,,,,,,,ctch,resources/DY.BMP,resources/DG.BMP,Door3,0.565104167,-0.049479167,1,0,0,0.933,optionRight,70,11130,5,28,0,28,0,1,,,,,,,,,,,,,,,,,,,,,,,,,,,,,,,,,,,,,,,
,,,,,,,,2023-08-06_08h18.20.248,HF_wild_card,2022.2.4,MacIntel,40,607312f8adb3f1b6bbfe8aa6,64ce5acb97489d65b14ecc7a,64cf491b3501f89e58eff14b,,,,,,,decisionTrl,resources/DB.BMP,resources/DP.BMP,WildCard_NonEx,0.477430556,-0.044270833,1,0,0,1.416,optionRight,45,11175,5,29,0,29,0,1,,,,,,,,,,,,,,,,,,,,,,,,,,,,,,,,,,,,,,,
,,,,,,,,2023-08-06_08h18.20.248,HF_wild_card,2022.2.4,MacIntel,40,607312f8adb3f1b6bbfe8aa6,64ce5acb97489d65b14ecc7a,64cf491b3501f89e58eff14b,,,,,,,decisionTrl,resources/DY.BMP,resources/DB.BMP,Door2,-0.434027778,-0.025173611,1,0,0,1.616,optionLeft,40,11215,5,30,0,30,0,1,,,,,,,,,,,,,,,,,,,,,,,,,,,,,,,,,,,,,,,
,,,,,,,,2023-08-06_08h18.20.248,HF_wild_card,2022.2.4,MacIntel,40,607312f8adb3f1b6bbfe8aa6,64ce5acb97489d65b14ecc7a,64cf491b3501f89e58eff14b,,,,,,,decisionTrl,resources/DG.BMP,resources/DBN.BMP,Door3,-0.453993056,0.000868056,1,0,0,0.965,optionLeft,70,11285,5,31,0,31,0,1,,,,,,,,,,,,,,,,,,,,,,,,,,,,,,,,,,,,,,,
,,,,,,,,2023-08-06_08h18.20.248,HF_wild_card,2022.2.4,MacIntel,40,607312f8adb3f1b6bbfe8aa6,64ce5acb97489d65b14ecc7a,64cf491b3501f89e58eff14b,,,,,,,ctch,resources/DB.BMP,resources/DBN.BMP,Door4,0.261284722,-0.039930556,1,0,0,1.382,optionRight,60,11345,5,32,0,32,0,1,,,,,,,,,,,,,,,,,,,,,,,,,,,,,,,,,,,,,,,
,,,,,,,,2023-08-06_08h18.20.248,HF_wild_card,2022.2.4,MacIntel,40,607312f8adb3f1b6bbfe8aa6,64ce5acb97489d65b14ecc7a,64cf491b3501f89e58eff14b,,,,,,,ctch,resources/DY.BMP,resources/DG.BMP,Door3,0.341145833,-0.017361111,1,0,0,1.131,optionRight,70,11415,5,33,0,33,0,1,,,,,,,,,,,,,,,,,,,,,,,,,,,,,,,,,,,,,,,
,,,,,,,,2023-08-06_08h18.20.248,HF_wild_card,2022.2.4,MacIntel,40,607312f8adb3f1b6bbfe8aa6,64ce5acb97489d65b14ecc7a,64cf491b3501f89e58eff14b,,,,,,,decisionTrl,resources/DG.BMP,resources/DBN.BMP,Door3,-0.480902778,-0.035590278,1,0,0,1.084,optionLeft,70,11485,5,34,0,34,0,1,,,,,,,,,,,,,,,,,,,,,,,,,,,,,,,,,,,,,,,
,,,,,,,,2023-08-06_08h18.20.248,HF_wild_card,2022.2.4,MacIntel,40,607312f8adb3f1b6bbfe8aa6,64ce5acb97489d65b14ecc7a,64cf491b3501f89e58eff14b,,,,,,,decisionTrl,resources/DB.BMP,resources/DY.BMP,Door2,0.379340278,-0.008680556,1,0,0,2.049,optionRight,40,11525,5,35,0,35,0,1,,,,,,,,,,,,,,,,,,,,,,,,,,,,,,,,,,,,,,,
,,,,,,,,2023-08-06_08h18.20.248,HF_wild_card,2022.2.4,MacIntel,40,607312f8adb3f1b6bbfe8aa6,64ce5acb97489d65b14ecc7a,64cf491b3501f89e58eff14b,,,,,,,sngl,resources/DY.BMP,resources/Empty.png,Door2,-0.459201389,0.046006944,1,0,0,1.167,optionLeft,40,11565,5,36,0,36,0,1,,,,,,,,,,,,,,,,,,,,,,,,,,,,,,,,,,,,,,,
,,,,,,,,2023-08-06_08h18.20.248,HF_wild_card,2022.2.4,MacIntel,40,607312f8adb3f1b6bbfe8aa6,64ce5acb97489d65b14ecc7a,64cf491b3501f89e58eff14b,,,,,,,decisionTrl,resources/DY.BMP,resources/DB.BMP,Door2,-0.350694444,-0.030381944,1,0,0,1.199,optionLeft,40,11605,5,37,0,37,0,1,,,,,,,,,,,,,,,,,,,,,,,,,,,,,,,,,,,,,,,
,,,,,,,,2023-08-06_08h18.20.248,HF_wild_card,2022.2.4,MacIntel,40,607312f8adb3f1b6bbfe8aa6,64ce5acb97489d65b14ecc7a,64cf491b3501f89e58eff14b,,,,,,,sngl,resources/DP.BMP,resources/Empty.png,WildCard_NonEx,-0.361111111,-0.015625,1,0,0,0.816,optionLeft,55,11660,5,38,0,38,0,1,,,,,,,,,,,,,,,,,,,,,,,,,,,,,,,,,,,,,,,
,,,,,,,,2023-08-06_08h18.20.248,HF_wild_card,2022.2.4,MacIntel,40,607312f8adb3f1b6bbfe8aa6,64ce5acb97489d65b14ecc7a,64cf491b3501f89e58eff14b,,,,,,,sngl,resources/DG.BMP,resources/Empty.png,Door3,-0.292534722,0.010416667,1,0,0,0.749,optionLeft,70,11730,5,39,0,39,0,1,,,,,,,,,,,,,,,,,,,,,,,,,,,,,,,,,,,,,,,
,,,,,,,,2023-08-06_08h18.20.248,HF_wild_card,2022.2.4,MacIntel,40,607312f8adb3f1b6bbfe8aa6,64ce5acb97489d65b14ecc7a,64cf491b3501f89e58eff14b,,,,,,,decisionTrl,resources/DP.BMP,resources/DB.BMP,WildCard_NonEx,-0.428819444,-0.016493056,1,0,0,1.483,optionLeft,45,11775,5,40,0,40,0,1,,,,,,,,,,,,,,,,,,,,,,,,,,,,,,,,,,,,,,,
,,,,,,,,2023-08-06_08h18.20.248,HF_wild_card,2022.2.4,MacIntel,40,607312f8adb3f1b6bbfe8aa6,64ce5acb97489d65b14ecc7a,64cf491b3501f89e58eff14b,,,,,,,decisionTrl,resources/DBN.BMP,resources/DG.BMP,Door3,0.411458333,-0.006944444,1,0,0,0.949,optionRight,70,11845,5,41,0,41,0,1,,,,,,,,,,,,,,,,,,,,,,,,,,,,,,,,,,,,,,,
,,,,,,,,2023-08-06_08h18.20.248,HF_wild_card,2022.2.4,MacIntel,40,607312f8adb3f1b6bbfe8aa6,64ce5acb97489d65b14ecc7a,64cf491b3501f89e58eff14b,,,,,,,sngl,resources/Empty.png,resources/DP.BMP,WildCard_NonEx,0.414930556,-0.010416667,1,0,0,0.8,optionRight,55,11900,5,42,0,42,0,1,,,,,,,,,,,,,,,,,,,,,,,,,,,,,,,,,,,,,,,
,,,,,,,,2023-08-06_08h18.20.248,HF_wild_card,2022.2.4,MacIntel,40,607312f8adb3f1b6bbfe8aa6,64ce5acb97489d65b14ecc7a,64cf491b3501f89e58eff14b,,,,,,,sngl,resources/DBN.BMP,resources/Empty.png,Door4,-0.285590278,-0.012152778,1,0,0,0.832,optionLeft,80,11980,5,43,0,43,0,1,,,,,,,,,,,,,,,,,,,,,,,,,,,,,,,,,,,,,,,
,,,,,,,,2023-08-06_08h18.20.248,HF_wild_card,2022.2.4,MacIntel,40,607312f8adb3f1b6bbfe8aa6,64ce5acb97489d65b14ecc7a,64cf491b3501f89e58eff14b,,,,,,,,,,,,,,,,,,,,,,,,,,4,0,4,0,1,,,,,,,,,,,,,,,,,,,,,,,,,,,,,,,,,,
,,,,,,,,2023-08-06_08h18.20.248,HF_wild_card,2022.2.4,MacIntel,40,607312f8adb3f1b6bbfe8aa6,64ce5acb97489d65b14ecc7a,64cf491b3501f89e58eff14b,,,,,,,ctch,resources/DG.BMP,resources/DY.BMP,Door3,-0.393229167,-0.098090278,1,0,0,1.414,optionLeft,70,12050,6,0,0,0,0,1,,,,,,,,,,,,,,,,,,,,,,,,,,,,,,,,,,,,,,,
,,,,,,,,2023-08-06_08h18.20.248,HF_wild_card,2022.2.4,MacIntel,40,607312f8adb3f1b6bbfe8aa6,64ce5acb97489d65b14ecc7a,64cf491b3501f89e58eff14b,,,,,,,sngl,resources/Empty.png,resources/DBN.BMP,Door4,0.412326389,0,1,0,0,3.033,optionRight,80,12130,6,1,0,1,0,1,,,,,,,,,,,,,,,,,,,,,,,,,,,,,,,,,,,,,,,
,,,,,,,,2023-08-06_08h18.20.248,HF_wild_card,2022.2.4,MacIntel,40,607312f8adb3f1b6bbfe8aa6,64ce5acb97489d65b14ecc7a,64cf491b3501f89e58eff14b,,,,,,,sngl,resources/Empty.png,resources/DP.BMP,WildCard_NonEx,0.3671875,-0.024305556,1,0,0,0.849,optionRight,45,12175,6,2,0,2,0,1,,,,,,,,,,,,,,,,,,,,,,,,,,,,,,,,,,,,,,,
,,,,,,,,2023-08-06_08h18.20.248,HF_wild_card,2022.2.4,MacIntel,40,607312f8adb3f1b6bbfe8aa6,64ce5acb97489d65b14ecc7a,64cf491b3501f89e58eff14b,,,,,,,decisionTrl,resources/DB.BMP,resources/DP.BMP,WildCard_NonEx,0.462673611,-0.034722222,1,0,0,0.999,optionRight,45,12220,6,3,0,3,0,1,,,,,,,,,,,,,,,,,,,,,,,,,,,,,,,,,,,,,,,
,,,,,,,,2023-08-06_08h18.20.248,HF_wild_card,2022.2.4,MacIntel,40,607312f8adb3f1b6bbfe8aa6,64ce5acb97489d65b14ecc7a,64cf491b3501f89e58eff14b,,,,,,,decisionTrl,resources/DP.BMP,resources/DG.BMP,Door3,0.393229167,-0.016493056,1,0,0,1.182,optionRight,70,12290,6,4,0,4,0,1,,,,,,,,,,,,,,,,,,,,,,,,,,,,,,,,,,,,,,,
,,,,,,,,2023-08-06_08h18.20.248,HF_wild_card,2022.2.4,MacIntel,40,607312f8adb3f1b6bbfe8aa6,64ce5acb97489d65b14ecc7a,64cf491b3501f89e58eff14b,,,,,,,decisionTrl,resources/DB.BMP,resources/DY.BMP,Door2,0.387152778,-0.019965278,1,0,0,1.198,optionRight,20,12310,6,5,0,5,0,1,,,,,,,,,,,,,,,,,,,,,,,,,,,,,,,,,,,,,,,
,,,,,,,,2023-08-06_08h18.20.248,HF_wild_card,2022.2.4,MacIntel,40,607312f8adb3f1b6bbfe8aa6,64ce5acb97489d65b14ecc7a,64cf491b3501f89e58eff14b,,,,,,,decisionTrl,resources/DP.BMP,resources/DBN.BMP,Door4,0.385416667,0.009548611,1,0,0,2.566,optionRight,80,12390,6,6,0,6,0,1,,,,,,,,,,,,,,,,,,,,,,,,,,,,,,,,,,,,,,,
,,,,,,,,2023-08-06_08h18.20.248,HF_wild_card,2022.2.4,MacIntel,40,607312f8adb3f1b6bbfe8aa6,64ce5acb97489d65b14ecc7a,64cf491b3501f89e58eff14b,,,,,,,decisionTrl,resources/DBN.BMP,resources/DG.BMP,Door3,0.430555556,-0.016493056,1,0,0,1.232,optionRight,70,12460,6,7,0,7,0,1,,,,,,,,,,,,,,,,,,,,,,,,,,,,,,,,,,,,,,,
,,,,,,,,2023-08-06_08h18.20.248,HF_wild_card,2022.2.4,MacIntel,40,607312f8adb3f1b6bbfe8aa6,64ce5acb97489d65b14ecc7a,64cf491b3501f89e58eff14b,,,,,,,ctch,resources/DB.BMP,resources/DBN.BMP,Door4,0.386284722,-0.002604167,1,0,0,1,optionRight,60,12520,6,8,0,8,0,1,,,,,,,,,,,,,,,,,,,,,,,,,,,,,,,,,,,,,,,
,,,,,,,,2023-08-06_08h18.20.248,HF_wild_card,2022.2.4,MacIntel,40,607312f8adb3f1b6bbfe8aa6,64ce5acb97489d65b14ecc7a,64cf491b3501f89e58eff14b,,,,,,,sngl,resources/DP.BMP,resources/Empty.png,WildCard_NonEx,-0.399305556,-0.016493056,1,0,0,0.85,optionLeft,45,12565,6,9,0,9,0,1,,,,,,,,,,,,,,,,,,,,,,,,,,,,,,,,,,,,,,,
,,,,,,,,2023-08-06_08h18.20.248,HF_wild_card,2022.2.4,MacIntel,40,607312f8adb3f1b6bbfe8aa6,64ce5acb97489d65b14ecc7a,64cf491b3501f89e58eff14b,,,,,,,sngl,resources/Empty.png,resources/DY.BMP,Door2,0.396701389,-0.013020833,1,0,0,0.766,optionRight,40,12605,6,10,0,10,0,1,,,,,,,,,,,,,,,,,,,,,,,,,,,,,,,,,,,,,,,
,,,,,,,,2023-08-06_08h18.20.248,HF_wild_card,2022.2.4,MacIntel,40,607312f8adb3f1b6bbfe8aa6,64ce5acb97489d65b14ecc7a,64cf491b3501f89e58eff14b,,,,,,,sngl,resources/DB.BMP,resources/Empty.png,Door1,-0.3359375,-0.013888889,1,0,0,0.982,optionLeft,30,12635,6,11,0,11,0,1,,,,,,,,,,,,,,,,,,,,,,,,,,,,,,,,,,,,,,,
,,,,,,,,2023-08-06_08h18.20.248,HF_wild_card,2022.2.4,MacIntel,40,607312f8adb3f1b6bbfe8aa6,64ce5acb97489d65b14ecc7a,64cf491b3501f89e58eff14b,,,,,,,decisionTrl,resources/DP.BMP,resources/DY.BMP,WildCard_NonEx,-0.365451389,-0.002604167,1,0,0,1.683,optionLeft,45,12680,6,12,0,12,0,1,,,,,,,,,,,,,,,,,,,,,,,,,,,,,,,,,,,,,,,
,,,,,,,,2023-08-06_08h18.20.248,HF_wild_card,2022.2.4,MacIntel,40,607312f8adb3f1b6bbfe8aa6,64ce5acb97489d65b14ecc7a,64cf491b3501f89e58eff14b,,,,,,,decisionTrl,resources/DBN.BMP,resources/DG.BMP,Door3,0.4609375,-0.094618056,1,0,0,0.967,optionRight,70,12750,6,13,0,13,0,1,,,,,,,,,,,,,,,,,,,,,,,,,,,,,,,,,,,,,,,
,,,,,,,,2023-08-06_08h18.20.248,HF_wild_card,2022.2.4,MacIntel,40,607312f8adb3f1b6bbfe8aa6,64ce5acb97489d65b14ecc7a,64cf491b3501f89e58eff14b,,,,,,,sngl,resources/DP.BMP,resources/Empty.png,WildCard_NonEx,-0.414930556,-0.012152778,1,0,0,0.916,optionLeft,55,12805,6,14,0,14,0,1,,,,,,,,,,,,,,,,,,,,,,,,,,,,,,,,,,,,,,,
,,,,,,,,2023-08-06_08h18.20.248,HF_wild_card,2022.2.4,MacIntel,40,607312f8adb3f1b6bbfe8aa6,64ce5acb97489d65b14ecc7a,64cf491b3501f89e58eff14b,,,,,,,ctch,resources/DBN.BMP,resources/DB.BMP,Door4,-0.305555556,0.0078125,1,0,0,1.816,optionLeft,60,12865,6,15,0,15,0,1,,,,,,,,,,,,,,,,,,,,,,,,,,,,,,,,,,,,,,,
,,,,,,,,2023-08-06_08h18.20.248,HF_wild_card,2022.2.4,MacIntel,40,607312f8adb3f1b6bbfe8aa6,64ce5acb97489d65b14ecc7a,64cf491b3501f89e58eff14b,,,,,,,sngl,resources/DG.BMP,resources/Empty.png,Door3,-0.352430556,0.024305556,1,0,0,2.3,optionLeft,70,12935,6,16,0,16,0,1,,,,,,,,,,,,,,,,,,,,,,,,,,,,,,,,,,,,,,,
,,,,,,,,2023-08-06_08h18.20.248,HF_wild_card,2022.2.4,MacIntel,40,607312f8adb3f1b6bbfe8aa6,64ce5acb97489d65b14ecc7a,64cf491b3501f89e58eff14b,,,,,,,sngl,resources/Empty.png,resources/DG.BMP,Door3,0.3359375,-0.0234375,1,0,0,2.667,optionRight,70,13005,6,17,0,17,0,1,,,,,,,,,,,,,,,,,,,,,,,,,,,,,,,,,,,,,,,
,,,,,,,,2023-08-06_08h18.20.248,HF_wild_card,2022.2.4,MacIntel,40,607312f8adb3f1b6bbfe8aa6,64ce5acb97489d65b14ecc7a,64cf491b3501f89e58eff14b,,,,,,,decisionTrl,resources/DB.BMP,resources/DY.BMP,Door2,0.381944444,-0.100694444,1,0,0,0.966,optionRight,20,13025,6,18,0,18,0,1,,,,,,,,,,,,,,,,,,,,,,,,,,,,,,,,,,,,,,,
,,,,,,,,2023-08-06_08h18.20.248,HF_wild_card,2022.2.4,MacIntel,40,607312f8adb3f1b6bbfe8aa6,64ce5acb97489d65b14ecc7a,64cf491b3501f89e58eff14b,,,,,,,decisionTrl,resources/DY.BMP,resources/DB.BMP,Door2,-0.309027778,-0.015625,1,0,0,0.9,optionLeft,20,13045,6,19,0,19,0,1,,,,,,,,,,,,,,,,,,,,,,,,,,,,,,,,,,,,,,,
,,,,,,,,2023-08-06_08h18.20.248,HF_wild_card,2022.2.4,MacIntel,40,607312f8adb3f1b6bbfe8aa6,64ce5acb97489d65b14ecc7a,64cf491b3501f89e58eff14b,,,,,,,decisionTrl,resources/DY.BMP,resources/DB.BMP,Door2,-0.28125,-0.017361111,1,0,0,0.949,optionLeft,20,13065,6,20,0,20,0,1,,,,,,,,,,,,,,,,,,,,,,,,,,,,,,,,,,,,,,,
,,,,,,,,2023-08-06_08h18.20.248,HF_wild_card,2022.2.4,MacIntel,40,607312f8adb3f1b6bbfe8aa6,64ce5acb97489d65b14ecc7a,64cf491b3501f89e58eff14b,,,,,,,decisionTrl,resources/DG.BMP,resources/DP.BMP,Door3,-0.335069444,0.008680556,1,0,0,1.916,optionLeft,70,13135,6,21,0,21,0,1,,,,,,,,,,,,,,,,,,,,,,,,,,,,,,,,,,,,,,,
,,,,,,,,2023-08-06_08h18.20.248,HF_wild_card,2022.2.4,MacIntel,40,607312f8adb3f1b6bbfe8aa6,64ce5acb97489d65b14ecc7a,64cf491b3501f89e58eff14b,,,,,,,ctch,resources/DY.BMP,resources/DG.BMP,Door3,0.460069444,-0.018229167,1,0,0,0.931,optionRight,70,13205,6,22,0,22,0,1,,,,,,,,,,,,,,,,,,,,,,,,,,,,,,,,,,,,,,,
,,,,,,,,2023-08-06_08h18.20.248,HF_wild_card,2022.2.4,MacIntel,40,607312f8adb3f1b6bbfe8aa6,64ce5acb97489d65b14ecc7a,64cf491b3501f89e58eff14b,,,,,,,decisionTrl,resources/DG.BMP,resources/DBN.BMP,Door3,-0.377604167,-0.0078125,1,0,0,1.016,optionLeft,70,13275,6,23,0,23,0,1,,,,,,,,,,,,,,,,,,,,,,,,,,,,,,,,,,,,,,,
,,,,,,,,2023-08-06_08h18.20.248,HF_wild_card,2022.2.4,MacIntel,40,607312f8adb3f1b6bbfe8aa6,64ce5acb97489d65b14ecc7a,64cf491b3501f89e58eff14b,,,,,,,decisionTrl,resources/DG.BMP,resources/DBN.BMP,Door3,-0.387152778,-0.013888889,1,0,0,0.949,optionLeft,70,13345,6,24,0,24,0,1,,,,,,,,,,,,,,,,,,,,,,,,,,,,,,,,,,,,,,,
,,,,,,,,2023-08-06_08h18.20.248,HF_wild_card,2022.2.4,MacIntel,40,607312f8adb3f1b6bbfe8aa6,64ce5acb97489d65b14ecc7a,64cf491b3501f89e58eff14b,,,,,,,decisionTrl,resources/DBN.BMP,resources/DG.BMP,Door3,0.448784722,0.006944444,1,0,0,0.965,optionRight,70,13415,6,25,0,25,0,1,,,,,,,,,,,,,,,,,,,,,,,,,,,,,,,,,,,,,,,
,,,,,,,,2023-08-06_08h18.20.248,HF_wild_card,2022.2.4,MacIntel,40,607312f8adb3f1b6bbfe8aa6,64ce5acb97489d65b14ecc7a,64cf491b3501f89e58eff14b,,,,,,,decisionTrl,resources/DBN.BMP,resources/DP.BMP,Door4,-0.420138889,-0.012152778,1,0,0,2.201,optionLeft,60,13475,6,26,0,26,0,1,,,,,,,,,,,,,,,,,,,,,,,,,,,,,,,,,,,,,,,
,,,,,,,,2023-08-06_08h18.20.248,HF_wild_card,2022.2.4,MacIntel,40,607312f8adb3f1b6bbfe8aa6,64ce5acb97489d65b14ecc7a,64cf491b3501f89e58eff14b,,,,,,,decisionTrl,resources/DP.BMP,resources/DB.BMP,WildCard_NonEx,-0.401041667,-0.013888889,1,0,0,0.967,optionLeft,55,13530,6,27,0,27,0,1,,,,,,,,,,,,,,,,,,,,,,,,,,,,,,,,,,,,,,,
,,,,,,,,2023-08-06_08h18.20.248,HF_wild_card,2022.2.4,MacIntel,40,607312f8adb3f1b6bbfe8aa6,64ce5acb97489d65b14ecc7a,64cf491b3501f89e58eff14b,,,,,,,sngl,resources/Empty.png,resources/DP.BMP,WildCard_NonEx,0.322048611,-0.032986111,1,0,0,0.865,optionRight,55,13585,6,28,0,28,0,1,,,,,,,,,,,,,,,,,,,,,,,,,,,,,,,,,,,,,,,
,,,,,,,,2023-08-06_08h18.20.248,HF_wild_card,2022.2.4,MacIntel,40,607312f8adb3f1b6bbfe8aa6,64ce5acb97489d65b14ecc7a,64cf491b3501f89e58eff14b,,,,,,,decisionTrl,resources/DY.BMP,resources/DP.BMP,WildCard_NonEx,0.414930556,-0.0078125,1,0,0,1.433,optionRight,55,13640,6,29,0,29,0,1,,,,,,,,,,,,,,,,,,,,,,,,,,,,,,,,,,,,,,,
,,,,,,,,2023-08-06_08h18.20.248,HF_wild_card,2022.2.4,MacIntel,40,607312f8adb3f1b6bbfe8aa6,64ce5acb97489d65b14ecc7a,64cf491b3501f89e58eff14b,,,,,,,decisionTrl,resources/DB.BMP,resources/DY.BMP,Door2,0.418402778,-0.021701389,1,0,0,1.066,optionRight,20,13660,6,30,0,30,0,1,,,,,,,,,,,,,,,,,,,,,,,,,,,,,,,,,,,,,,,
,,,,,,,,2023-08-06_08h18.20.248,HF_wild_card,2022.2.4,MacIntel,40,607312f8adb3f1b6bbfe8aa6,64ce5acb97489d65b14ecc7a,64cf491b3501f89e58eff14b,,,,,,,ctch,resources/DY.BMP,resources/DG.BMP,Door3,0.425347222,-0.030381944,1,0,0,1.049,optionRight,70,13730,6,31,0,31,0,1,,,,,,,,,,,,,,,,,,,,,,,,,,,,,,,,,,,,,,,
,,,,,,,,2023-08-06_08h18.20.248,HF_wild_card,2022.2.4,MacIntel,40,607312f8adb3f1b6bbfe8aa6,64ce5acb97489d65b14ecc7a,64cf491b3501f89e58eff14b,,,,,,,sngl,resources/DBN.BMP,resources/Empty.png,Door4,-0.334201389,-0.002604167,1,0,0,0.816,optionLeft,60,13790,6,32,0,32,0,1,,,,,,,,,,,,,,,,,,,,,,,,,,,,,,,,,,,,,,,
,,,,,,,,2023-08-06_08h18.20.248,HF_wild_card,2022.2.4,MacIntel,40,607312f8adb3f1b6bbfe8aa6,64ce5acb97489d65b14ecc7a,64cf491b3501f89e58eff14b,,,,,,,sngl,resources/Empty.png,resources/DB.BMP,Door1,0.361979167,0.0078125,1,0,0,1.098,optionRight,30,13820,6,33,0,33,0,1,,,,,,,,,,,,,,,,,,,,,,,,,,,,,,,,,,,,,,,
,,,,,,,,2023-08-06_08h18.20.248,HF_wild_card,2022.2.4,MacIntel,40,607312f8adb3f1b6bbfe8aa6,64ce5acb97489d65b14ecc7a,64cf491b3501f89e58eff14b,,,,,,,decisionTrl,resources/DG.BMP,resources/DBN.BMP,Door3,-0.357638889,0.011284722,1,0,0,2.281,optionLeft,70,13890,6,34,0,34,0,1,,,,,,,,,,,,,,,,,,,,,,,,,,,,,,,,,,,,,,,
,,,,,,,,2023-08-06_08h18.20.248,HF_wild_card,2022.2.4,MacIntel,40,607312f8adb3f1b6bbfe8aa6,64ce5acb97489d65b14ecc7a,64cf491b3501f89e58eff14b,,,,,,,decisionTrl,resources/DY.BMP,resources/DB.BMP,Door2,-0.331597222,-0.055555556,1,0,0,1.132,optionLeft,40,13930,6,35,0,35,0,1,,,,,,,,,,,,,,,,,,,,,,,,,,,,,,,,,,,,,,,
,,,,,,,,2023-08-06_08h18.20.248,HF_wild_card,2022.2.4,MacIntel,40,607312f8adb3f1b6bbfe8aa6,64ce5acb97489d65b14ecc7a,64cf491b3501f89e58eff14b,,,,,,,decisionTrl,resources/DY.BMP,resources/DB.BMP,Door2,-0.2890625,0.002604167,1,0,0,0.966,optionLeft,20,13950,6,36,0,36,0,1,,,,,,,,,,,,,,,,,,,,,,,,,,,,,,,,,,,,,,,
,,,,,,,,2023-08-06_08h18.20.248,HF_wild_card,2022.2.4,MacIntel,40,607312f8adb3f1b6bbfe8aa6,64ce5acb97489d65b14ecc7a,64cf491b3501f89e58eff14b,,,,,,,ctch,resources/DBN.BMP,resources/DB.BMP,Door4,-0.3203125,0.000868056,1,0,0,1.017,optionLeft,60,14010,6,37,0,37,0,1,,,,,,,,,,,,,,,,,,,,,,,,,,,,,,,,,,,,,,,
,,,,,,,,2023-08-06_08h18.20.248,HF_wild_card,2022.2.4,MacIntel,40,607312f8adb3f1b6bbfe8aa6,64ce5acb97489d65b14ecc7a,64cf491b3501f89e58eff14b,,,,,,,ctch,resources/DB.BMP,resources/DBN.BMP,Door4,0.483506944,0,1,0,0,0.999,optionRight,60,14070,6,38,0,38,0,1,,,,,,,,,,,,,,,,,,,,,,,,,,,,,,,,,,,,,,,
,,,,,,,,2023-08-06_08h18.20.248,HF_wild_card,2022.2.4,MacIntel,40,607312f8adb3f1b6bbfe8aa6,64ce5acb97489d65b14ecc7a,64cf491b3501f89e58eff14b,,,,,,,decisionTrl,resources/DB.BMP,resources/DY.BMP,Door2,0.34375,-0.010416667,1,0,0,1.067,optionRight,40,14110,6,39,0,39,0,1,,,,,,,,,,,,,,,,,,,,,,,,,,,,,,,,,,,,,,,
,,,,,,,,2023-08-06_08h18.20.248,HF_wild_card,2022.2.4,MacIntel,40,607312f8adb3f1b6bbfe8aa6,64ce5acb97489d65b14ecc7a,64cf491b3501f89e58eff14b,,,,,,,decisionTrl,resources/DBN.BMP,resources/DG.BMP,Door3,0.3359375,0.028645833,1,0,0,1.316,optionRight,70,14180,6,40,0,40,0,1,,,,,,,,,,,,,,,,,,,,,,,,,,,,,,,,,,,,,,,
,,,,,,,,2023-08-06_08h18.20.248,HF_wild_card,2022.2.4,MacIntel,40,607312f8adb3f1b6bbfe8aa6,64ce5acb97489d65b14ecc7a,64cf491b3501f89e58eff14b,,,,,,,ctch,resources/DG.BMP,resources/DY.BMP,Door3,-0.381944444,-0.046006944,1,0,0,1.831,optionLeft,70,14250,6,41,0,41,0,1,,,,,,,,,,,,,,,,,,,,,,,,,,,,,,,,,,,,,,,
,,,,,,,,2023-08-06_08h18.20.248,HF_wild_card,2022.2.4,MacIntel,40,607312f8adb3f1b6bbfe8aa6,64ce5acb97489d65b14ecc7a,64cf491b3501f89e58eff14b,,,,,,,decisionTrl,resources/DG.BMP,resources/DBN.BMP,Door3,-0.426215278,-0.032986111,1,0,0,1.851,optionLeft,70,14320,6,42,0,42,0,1,,,,,,,,,,,,,,,,,,,,,,,,,,,,,,,,,,,,,,,
,,,,,,,,2023-08-06_08h18.20.248,HF_wild_card,2022.2.4,MacIntel,40,607312f8adb3f1b6bbfe8aa6,64ce5acb97489d65b14ecc7a,64cf491b3501f89e58eff14b,,,,,,,sngl,resources/DY.BMP,resources/Empty.png,Door2,-0.3359375,-0.013888889,1,0,0,0.799,optionLeft,20,14340,6,43,0,43,0,1,,,,,,,,,,,,,,,,,,,,,,,,,,,,,,,,,,,,,,,
,,,,,,,,2023-08-06_08h18.20.248,HF_wild_card,2022.2.4,MacIntel,40,607312f8adb3f1b6bbfe8aa6,64ce5acb97489d65b14ecc7a,64cf491b3501f89e58eff14b,,,,,,,,,,,,,,,,,,,,,,,,,,5,0,5,0,1,,,,,,,,,,,,,,,,,,,,,,,,,,,,,,,,,,
,,,,,,,,2023-08-06_08h18.20.248,HF_wild_card,2022.2.4,MacIntel,40,607312f8adb3f1b6bbfe8aa6,64ce5acb97489d65b14ecc7a,64cf491b3501f89e58eff14b,,,,,,,decisionTrl,resources/DB.BMP,resources/DY.BMP,Door2,0.4296875,-0.019965278,1,0,0,1.429,optionRight,40,14380,7,0,0,0,0,1,,,,,,,,,,,,,,,,,,,,,,,,,,,,,,,,,,,,,,,
,,,,,,,,2023-08-06_08h18.20.248,HF_wild_card,2022.2.4,MacIntel,40,607312f8adb3f1b6bbfe8aa6,64ce5acb97489d65b14ecc7a,64cf491b3501f89e58eff14b,,,,,,,decisionTrl,resources/DBN.BMP,resources/DG.BMP,Door3,0.381944444,-0.000868056,1,0,0,1.015,optionRight,70,14450,7,1,0,1,0,1,,,,,,,,,,,,,,,,,,,,,,,,,,,,,,,,,,,,,,,
,,,,,,,,2023-08-06_08h18.20.248,HF_wild_card,2022.2.4,MacIntel,40,607312f8adb3f1b6bbfe8aa6,64ce5acb97489d65b14ecc7a,64cf491b3501f89e58eff14b,,,,,,,ctch,resources/DG.BMP,resources/DY.BMP,Door3,-0.3359375,-0.005208333,1,0,0,1.301,optionLeft,70,14520,7,2,0,2,0,1,,,,,,,,,,,,,,,,,,,,,,,,,,,,,,,,,,,,,,,
,,,,,,,,2023-08-06_08h18.20.248,HF_wild_card,2022.2.4,MacIntel,40,607312f8adb3f1b6bbfe8aa6,64ce5acb97489d65b14ecc7a,64cf491b3501f89e58eff14b,,,,,,,ctch,resources/DY.BMP,resources/DG.BMP,Door3,0.388020833,-0.061631944,1,0,0,1.516,optionRight,70,14590,7,3,0,3,0,1,,,,,,,,,,,,,,,,,,,,,,,,,,,,,,,,,,,,,,,
,,,,,,,,2023-08-06_08h18.20.248,HF_wild_card,2022.2.4,MacIntel,40,607312f8adb3f1b6bbfe8aa6,64ce5acb97489d65b14ecc7a,64cf491b3501f89e58eff14b,,,,,,,decisionTrl,resources/DBN.BMP,resources/DG.BMP,Door3,0.435763889,-0.015625,1,0,0,1.283,optionRight,70,14660,7,4,0,4,0,1,,,,,,,,,,,,,,,,,,,,,,,,,,,,,,,,,,,,,,,
,,,,,,,,2023-08-06_08h18.20.248,HF_wild_card,2022.2.4,MacIntel,40,607312f8adb3f1b6bbfe8aa6,64ce5acb97489d65b14ecc7a,64cf491b3501f89e58eff14b,,,,,,,ctch,resources/DB.BMP,resources/DBN.BMP,Door4,0.325520833,-0.034722222,1,0,0,1.352,optionRight,80,14740,7,5,0,5,0,1,,,,,,,,,,,,,,,,,,,,,,,,,,,,,,,,,,,,,,,
,,,,,,,,2023-08-06_08h18.20.248,HF_wild_card,2022.2.4,MacIntel,40,607312f8adb3f1b6bbfe8aa6,64ce5acb97489d65b14ecc7a,64cf491b3501f89e58eff14b,,,,,,,decisionTrl,resources/DY.BMP,resources/DB.BMP,Door2,-0.436631944,-0.032986111,1,0,0,1.1,optionLeft,20,14760,7,6,0,6,0,1,,,,,,,,,,,,,,,,,,,,,,,,,,,,,,,,,,,,,,,
,,,,,,,,2023-08-06_08h18.20.248,HF_wild_card,2022.2.4,MacIntel,40,607312f8adb3f1b6bbfe8aa6,64ce5acb97489d65b14ecc7a,64cf491b3501f89e58eff14b,,,,,,,decisionTrl,resources/DY.BMP,resources/DB.BMP,Door2,-0.3203125,-0.03125,1,0,0,0.966,optionLeft,20,14780,7,7,0,7,0,1,,,,,,,,,,,,,,,,,,,,,,,,,,,,,,,,,,,,,,,
,,,,,,,,2023-08-06_08h18.20.248,HF_wild_card,2022.2.4,MacIntel,40,607312f8adb3f1b6bbfe8aa6,64ce5acb97489d65b14ecc7a,64cf491b3501f89e58eff14b,,,,,,,decisionTrl,resources/DY.BMP,resources/DB.BMP,Door2,-0.426215278,-0.021701389,1,0,0,1.384,optionLeft,40,14820,7,8,0,8,0,1,,,,,,,,,,,,,,,,,,,,,,,,,,,,,,,,,,,,,,,
,,,,,,,,2023-08-06_08h18.20.248,HF_wild_card,2022.2.4,MacIntel,40,607312f8adb3f1b6bbfe8aa6,64ce5acb97489d65b14ecc7a,64cf491b3501f89e58eff14b,,,,,,,ctch,resources/DBN.BMP,resources/DB.BMP,Door4,-0.434027778,0.011284722,1,0,0,0.899,optionLeft,60,14880,7,9,0,9,0,1,,,,,,,,,,,,,,,,,,,,,,,,,,,,,,,,,,,,,,,
,,,,,,,,2023-08-06_08h18.20.248,HF_wild_card,2022.2.4,MacIntel,40,607312f8adb3f1b6bbfe8aa6,64ce5acb97489d65b14ecc7a,64cf491b3501f89e58eff14b,,,,,,,decisionTrl,resources/DB.BMP,resources/DY.BMP,Door2,0.408854167,-0.046875,1,0,0,0.967,optionRight,20,14900,7,10,0,10,0,1,,,,,,,,,,,,,,,,,,,,,,,,,,,,,,,,,,,,,,,
,,,,,,,,2023-08-06_08h18.20.248,HF_wild_card,2022.2.4,MacIntel,40,607312f8adb3f1b6bbfe8aa6,64ce5acb97489d65b14ecc7a,64cf491b3501f89e58eff14b,,,,,,,decisionTrl,resources/DG.BMP,resources/DBN.BMP,Door3,-0.345486111,-0.004340278,1,0,0,1.316,optionLeft,70,14970,7,11,0,11,0,1,,,,,,,,,,,,,,,,,,,,,,,,,,,,,,,,,,,,,,,
,,,,,,,,2023-08-06_08h18.20.248,HF_wild_card,2022.2.4,MacIntel,40,607312f8adb3f1b6bbfe8aa6,64ce5acb97489d65b14ecc7a,64cf491b3501f89e58eff14b,,,,,,,decisionTrl,resources/DG.BMP,resources/DBN.BMP,Door3,-0.306423611,-0.035590278,1,0,0,1.252,optionLeft,70,15040,7,12,0,12,0,1,,,,,,,,,,,,,,,,,,,,,,,,,,,,,,,,,,,,,,,
,,,,,,,,2023-08-06_08h18.20.248,HF_wild_card,2022.2.4,MacIntel,40,607312f8adb3f1b6bbfe8aa6,64ce5acb97489d65b14ecc7a,64cf491b3501f89e58eff14b,,,,,,,decisionTrl,resources/DB.BMP,resources/DY.BMP,Door2,0.424479167,-0.052951389,1,0,0,1.065,optionRight,40,15080,7,13,0,13,0,1,,,,,,,,,,,,,,,,,,,,,,,,,,,,,,,,,,,,,,,
,,,,,,,,2023-08-06_08h18.20.248,HF_wild_card,2022.2.4,MacIntel,40,607312f8adb3f1b6bbfe8aa6,64ce5acb97489d65b14ecc7a,64cf491b3501f89e58eff14b,,,,,,,ctch,resources/DBN.BMP,resources/DB.BMP,Door4,-0.390625,-0.026041667,1,0,0,1.284,optionLeft,80,15160,7,14,0,14,0,1,,,,,,,,,,,,,,,,,,,,,,,,,,,,,,,,,,,,,,,
,,,,,,,,2023-08-06_08h18.20.248,HF_wild_card,2022.2.4,MacIntel,40,607312f8adb3f1b6bbfe8aa6,64ce5acb97489d65b14ecc7a,64cf491b3501f89e58eff14b,,,,,,,ctch,resources/DY.BMP,resources/DG.BMP,Door3,0.375868056,-0.052083333,1,0,0,0.934,optionRight,70,15230,7,15,0,15,0,1,,,,,,,,,,,,,,,,,,,,,,,,,,,,,,,,,,,,,,,
,,,,,,,,2023-08-06_08h18.20.248,HF_wild_card,2022.2.4,MacIntel,40,607312f8adb3f1b6bbfe8aa6,64ce5acb97489d65b14ecc7a,64cf491b3501f89e58eff14b,,,,,,,decisionTrl,resources/DBN.BMP,resources/DG.BMP,Door3,0.423611111,-0.033854167,1,0,0,1.266,optionRight,70,15300,7,16,0,16,0,1,,,,,,,,,,,,,,,,,,,,,,,,,,,,,,,,,,,,,,,
,,,,,,,,2023-08-06_08h18.20.248,HF_wild_card,2022.2.4,MacIntel,40,607312f8adb3f1b6bbfe8aa6,64ce5acb97489d65b14ecc7a,64cf491b3501f89e58eff14b,,,,,,,ctch,resources/DG.BMP,resources/DY.BMP,Door3,-0.256944444,-0.044270833,1,0,0,1.417,optionLeft,70,15370,7,17,0,17,0,1,,,,,,,,,,,,,,,,,,,,,,,,,,,,,,,,,,,,,,,
,,,,,,,,2023-08-06_08h18.20.248,HF_wild_card,2022.2.4,MacIntel,40,607312f8adb3f1b6bbfe8aa6,64ce5acb97489d65b14ecc7a,64cf491b3501f89e58eff14b,,,,,,,decisionTrl,resources/DB.BMP,resources/DY.BMP,Door2,0.405381944,-0.044270833,1,0,0,1.083,optionRight,40,15410,7,18,0,18,0,1,,,,,,,,,,,,,,,,,,,,,,,,,,,,,,,,,,,,,,,
,,,,,,,,2023-08-06_08h18.20.248,HF_wild_card,2022.2.4,MacIntel,40,607312f8adb3f1b6bbfe8aa6,64ce5acb97489d65b14ecc7a,64cf491b3501f89e58eff14b,,,,,,,decisionTrl,resources/DBN.BMP,resources/DG.BMP,Door3,0.3984375,0.018229167,1,0,0,1.282,optionRight,70,15480,7,19,0,19,0,1,,,,,,,,,,,,,,,,,,,,,,,,,,,,,,,,,,,,,,,
,,,,,,,,2023-08-06_08h18.20.248,HF_wild_card,2022.2.4,MacIntel,40,607312f8adb3f1b6bbfe8aa6,64ce5acb97489d65b14ecc7a,64cf491b3501f89e58eff14b,,,,,,,decisionTrl,resources/DG.BMP,resources/DBN.BMP,Door3,-0.40625,0.016493056,1,0,0,0.934,optionLeft,70,15550,7,20,0,20,0,1,,,,,,,,,,,,,,,,,,,,,,,,,,,,,,,,,,,,,,,
,,,,,,,,2023-08-06_08h18.20.248,HF_wild_card,2022.2.4,MacIntel,40,607312f8adb3f1b6bbfe8aa6,64ce5acb97489d65b14ecc7a,64cf491b3501f89e58eff14b,,,,,,,ctch,resources/DG.BMP,resources/DY.BMP,Door3,-0.329861111,0.001736111,1,0,0,0.849,optionLeft,70,15620,7,21,0,21,0,1,,,,,,,,,,,,,,,,,,,,,,,,,,,,,,,,,,,,,,,
,,,,,,,,2023-08-06_08h18.20.248,HF_wild_card,2022.2.4,MacIntel,40,607312f8adb3f1b6bbfe8aa6,64ce5acb97489d65b14ecc7a,64cf491b3501f89e58eff14b,,,,,,,decisionTrl,resources/DY.BMP,resources/DB.BMP,Door2,-0.3203125,-0.011284722,1,0,0,1.2,optionLeft,40,15660,7,22,0,22,0,1,,,,,,,,,,,,,,,,,,,,,,,,,,,,,,,,,,,,,,,
,,,,,,,,2023-08-06_08h18.20.248,HF_wild_card,2022.2.4,MacIntel,40,607312f8adb3f1b6bbfe8aa6,64ce5acb97489d65b14ecc7a,64cf491b3501f89e58eff14b,,,,,,,decisionTrl,resources/DB.BMP,resources/DY.BMP,Door2,0.3203125,-0.064236111,1,0,0,1.217,optionRight,40,15700,7,23,0,23,0,1,,,,,,,,,,,,,,,,,,,,,,,,,,,,,,,,,,,,,,,
,,,,,,,,2023-08-06_08h18.20.248,HF_wild_card,2022.2.4,MacIntel,40,607312f8adb3f1b6bbfe8aa6,64ce5acb97489d65b14ecc7a,64cf491b3501f89e58eff14b,,,,,,,decisionTrl,resources/DB.BMP,resources/DY.BMP,Door2,0.362847222,-0.017361111,1,0,0,1.217,optionRight,20,15720,7,24,0,24,0,1,,,,,,,,,,,,,,,,,,,,,,,,,,,,,,,,,,,,,,,
,,,,,,,,2023-08-06_08h18.20.248,HF_wild_card,2022.2.4,MacIntel,40,607312f8adb3f1b6bbfe8aa6,64ce5acb97489d65b14ecc7a,64cf491b3501f89e58eff14b,,,,,,,decisionTrl,resources/DG.BMP,resources/DBN.BMP,Door3,-0.347222222,-0.004340278,1,0,0,1.666,optionLeft,70,15790,7,25,0,25,0,1,,,,,,,,,,,,,,,,,,,,,,,,,,,,,,,,,,,,,,,
,,,,,,,,2023-08-06_08h18.20.248,HF_wild_card,2022.2.4,MacIntel,40,607312f8adb3f1b6bbfe8aa6,64ce5acb97489d65b14ecc7a,64cf491b3501f89e58eff14b,,,,,,,ctch,resources/DB.BMP,resources/DBN.BMP,Door4,0.4296875,-0.009548611,1,0,0,1.534,optionRight,80,15870,7,26,0,26,0,1,,,,,,,,,,,,,,,,,,,,,,,,,,,,,,,,,,,,,,,
,,,,,,,,2023-08-06_08h18.20.248,HF_wild_card,2022.2.4,MacIntel,40,607312f8adb3f1b6bbfe8aa6,64ce5acb97489d65b14ecc7a,64cf491b3501f89e58eff14b,,,,,,,decisionTrl,resources/DY.BMP,resources/DB.BMP,Door2,-0.443576389,-0.041666667,1,0,0,1.167,optionLeft,20,15890,7,27,0,27,0,1,,,,,,,,,,,,,,,,,,,,,,,,,,,,,,,,,,,,,,,
,,,,,,,,2023-08-06_08h18.20.248,HF_wild_card,2022.2.4,MacIntel,40,607312f8adb3f1b6bbfe8aa6,64ce5acb97489d65b14ecc7a,64cf491b3501f89e58eff14b,,,,,,,ctch,resources/DY.BMP,resources/DG.BMP,Door3,0.370659722,-0.047743056,1,0,0,1.451,optionRight,70,15960,7,28,0,28,0,1,,,,,,,,,,,,,,,,,,,,,,,,,,,,,,,,,,,,,,,
,,,,,,,,2023-08-06_08h18.20.248,HF_wild_card,2022.2.4,MacIntel,40,607312f8adb3f1b6bbfe8aa6,64ce5acb97489d65b14ecc7a,64cf491b3501f89e58eff14b,,,,,,,decisionTrl,resources/DBN.BMP,resources/DG.BMP,Door3,0.321180556,0,1,0,0,2.084,optionRight,70,16030,7,29,0,29,0,1,,,,,,,,,,,,,,,,,,,,,,,,,,,,,,,,,,,,,,,
,,,,,,,,2023-08-06_08h18.20.248,HF_wild_card,2022.2.4,MacIntel,40,607312f8adb3f1b6bbfe8aa6,64ce5acb97489d65b14ecc7a,64cf491b3501f89e58eff14b,,,,,,,ctch,resources/DBN.BMP,resources/DB.BMP,Door4,-0.327256944,0.0078125,1,0,0,1.033,optionLeft,60,16090,7,30,0,30,0,1,,,,,,,,,,,,,,,,,,,,,,,,,,,,,,,,,,,,,,,
,,,,,,,,2023-08-06_08h18.20.248,HF_wild_card,2022.2.4,MacIntel,40,607312f8adb3f1b6bbfe8aa6,64ce5acb97489d65b14ecc7a,64cf491b3501f89e58eff14b,,,,,,,decisionTrl,resources/DG.BMP,resources/DBN.BMP,Door3,-0.438368056,0.0078125,1,0,0,0.949,optionLeft,70,16160,7,31,0,31,0,1,,,,,,,,,,,,,,,,,,,,,,,,,,,,,,,,,,,,,,,
,,,,,,,,2023-08-06_08h18.20.248,HF_wild_card,2022.2.4,MacIntel,40,607312f8adb3f1b6bbfe8aa6,64ce5acb97489d65b14ecc7a,64cf491b3501f89e58eff14b,,,,,,,decisionTrl,resources/DG.BMP,resources/DBN.BMP,Door3,-0.285590278,-0.003472222,1,0,0,0.866,optionLeft,70,16230,7,32,0,32,0,1,,,,,,,,,,,,,,,,,,,,,,,,,,,,,,,,,,,,,,,
,,,,,,,,2023-08-06_08h18.20.248,HF_wild_card,2022.2.4,MacIntel,40,607312f8adb3f1b6bbfe8aa6,64ce5acb97489d65b14ecc7a,64cf491b3501f89e58eff14b,,,,,,,ctch,resources/DB.BMP,resources/DBN.BMP,Door4,0.395833333,-0.0546875,1,0,0,1.634,optionRight,60,16290,7,33,0,33,0,1,,,,,,,,,,,,,,,,,,,,,,,,,,,,,,,,,,,,,,,
,,,,,,,,2023-08-06_08h18.20.248,HF_wild_card,2022.2.4,MacIntel,40,607312f8adb3f1b6bbfe8aa6,64ce5acb97489d65b14ecc7a,64cf491b3501f89e58eff14b,,,,,,,decisionTrl,resources/DBN.BMP,resources/DG.BMP,Door3,0.396701389,-0.009548611,1,0,0,1.235,optionRight,70,16360,7,34,0,34,0,1,,,,,,,,,,,,,,,,,,,,,,,,,,,,,,,,,,,,,,,
,,,,,,,,2023-08-06_08h18.20.248,HF_wild_card,2022.2.4,MacIntel,40,607312f8adb3f1b6bbfe8aa6,64ce5acb97489d65b14ecc7a,64cf491b3501f89e58eff14b,,,,,,,decisionTrl,resources/DY.BMP,resources/DB.BMP,Door2,-0.349826389,-0.001736111,1,0,0,1.05,optionLeft,40,16400,7,35,0,35,0,1,,,,,,,,,,,,,,,,,,,,,,,,,,,,,,,,,,,,,,,
,,,,,,,,2023-08-06_08h18.20.248,HF_wild_card,2022.2.4,MacIntel,40,607312f8adb3f1b6bbfe8aa6,64ce5acb97489d65b14ecc7a,64cf491b3501f89e58eff14b,,,,,,,,,,,,,,,,,,,,,,,,,,6,0,6,0,1,,,,,,,,,,,,,,,,,,,,,,,,,,,,,,,,,,
,,,,,,,,2023-08-06_08h18.20.248,HF_wild_card,2022.2.4,MacIntel,40,607312f8adb3f1b6bbfe8aa6,64ce5acb97489d65b14ecc7a,64cf491b3501f89e58eff14b,,,,,,,,,,,,,,,,,,,,,,,,,,,,,,,4,,,,,,,,,,,,,,,,,,,,,,,,,,,,,,,,,
,,,,,,,,2023-08-06_08h18.20.248,HF_wild_card,2022.2.4,MacIntel,40,607312f8adb3f1b6bbfe8aa6,64ce5acb97489d65b14ecc7a,64cf491b3501f89e58eff14b,,,,,,,,,,,,,,,,,,,,,,,,,,,,,,,,,,,,,,,,,,,,,,,,,,,,,,,,,,,,,,,,
,,,,,,,,2023-08-06_08h18.20.248,HF_wild_card,2022.2.4,MacIntel,40,607312f8adb3f1b6bbfe8aa6,64ce5acb97489d65b14ecc7a,64cf491b3501f89e58eff14b,,,,,,,,,,,,,,,,,,,,,,,,,,,,,,,,5,WC_extreme,resources/DR.BMP,0,0,0,0,1,,,,,,,,,,,,,,,,,,,,,,,,,
,,,,,,,,2023-08-06_08h18.20.248,HF_wild_card,2022.2.4,MacIntel,40,607312f8adb3f1b6bbfe8aa6,64ce5acb97489d65b14ecc7a,64cf491b3501f89e58eff14b,,,,,,,,,,,,,,,,,,,,,,,,,,,,,,,,70,Door3,resources/DG.BMP,1,0,1,0,1,,,,,,,,,,,,,,,,,,,,,,,,,
,,,,,,,,2023-08-06_08h18.20.248,HF_wild_card,2022.2.4,MacIntel,40,607312f8adb3f1b6bbfe8aa6,64ce5acb97489d65b14ecc7a,64cf491b3501f89e58eff14b,,,,,,,,,,,,,,,,,,,,,,,,,,,,,,,,60,Door4,resources/DBN.BMP,2,0,2,0,1,,,,,,,,,,,,,,,,,,,,,,,,,
,,,,,,,,2023-08-06_08h18.20.248,HF_wild_card,2022.2.4,MacIntel,40,607312f8adb3f1b6bbfe8aa6,64ce5acb97489d65b14ecc7a,64cf491b3501f89e58eff14b,,,,,,,,,,,,,,,,,,,,,,,,,,,,,,,,55,WC_nonExtreme,resources/DP.BMP,3,0,3,0,1,,,,,,,,,,,,,,,,,,,,,,,,,
,,,,,,,,2023-08-06_08h18.20.248,HF_wild_card,2022.2.4,MacIntel,40,607312f8adb3f1b6bbfe8aa6,64ce5acb97489d65b14ecc7a,64cf491b3501f89e58eff14b,,,,,,,,,,,,,,,,,,,,,,,,,,,,,,,,20,Door1,resources/DB.BMP,4,0,4,0,1,,,,,,,,,,,,,,,,,,,,,,,,,
,,,,,,,,2023-08-06_08h18.20.248,HF_wild_card,2022.2.4,MacIntel,40,607312f8adb3f1b6bbfe8aa6,64ce5acb97489d65b14ecc7a,64cf491b3501f89e58eff14b,,,,,,,,,,,,,,,,,,,,,,,,,,,,,,,,30,Door2,resources/DY.BMP,5,0,5,0,1,,,,,,,,,,,,,,,,,,,,,,,,,
,,,,,,,,2023-08-06_08h18.20.248,HF_wild_card,2022.2.4,MacIntel,40,607312f8adb3f1b6bbfe8aa6,64ce5acb97489d65b14ecc7a,64cf491b3501f89e58eff14b,,,,,,,,,,,,,,,,,,,,,,,,,,,,,,,,,,,,,,,,,,,,,,,,,,,,,,,,,,,,,,,,
,,,,,,,,2023-08-06_08h18.20.248,HF_wild_card,2022.2.4,MacIntel,40,607312f8adb3f1b6bbfe8aa6,64ce5acb97489d65b14ecc7a,64cf491b3501f89e58eff14b,,,,,,,,,,,,,,,,,,,,,,,,,,,,,,,,,,,,,,,,0,0,0,0,1,,,,,,,,,,,,,,,,,,,,
,,,,,,,,2023-08-06_08h18.20.248,HF_wild_card,2022.2.4,MacIntel,40,607312f8adb3f1b6bbfe8aa6,64ce5acb97489d65b14ecc7a,64cf491b3501f89e58eff14b,,,,,,,,,,,,,,,,,,,,,,,,,,,,,,,,,,,,,,,,1,0,1,0,1,,,,,,,,,,,,,,,,,,,,
,,,,,,,,2023-08-06_08h18.20.248,HF_wild_card,2022.2.4,MacIntel,40,607312f8adb3f1b6bbfe8aa6,64ce5acb97489d65b14ecc7a,64cf491b3501f89e58eff14b,,,,,,,,,,,,,,,,,,,,,,,,,,,,,,,,,,,,,,,,,,,,,-0.251736111,-0.390625,1,0,0,yes,75%,25%,WC_extreme,resources/DR.BMP,0,0,0,0,1,,,,,
,,,,,,,,2023-08-06_08h18.20.248,HF_wild_card,2022.2.4,MacIntel,40,607312f8adb3f1b6bbfe8aa6,64ce5acb97489d65b14ecc7a,64cf491b3501f89e58eff14b,,,,,,,,,,,,,,,,,,,,,,,,,,,,,,,,,,,,,,,,,,,,,,,,,,,,,,,,,,,,0,0,0,0,1
,,,,,,,,2023-08-06_08h18.20.248,HF_wild_card,2022.2.4,MacIntel,40,607312f8adb3f1b6bbfe8aa6,64ce5acb97489d65b14ecc7a,64cf491b3501f89e58eff14b,,,,,,,,,,,,,,,,,,,,,,,,,,,,,,,,,,,,,,,,0,0,0,0,1,,,,,,,,,,,,,,,,,,,,
,,,,,,,,2023-08-06_08h18.20.248,HF_wild_card,2022.2.4,MacIntel,40,607312f8adb3f1b6bbfe8aa6,64ce5acb97489d65b14ecc7a,64cf491b3501f89e58eff14b,,,,,,,,,,,,,,,,,,,,,,,,,,,,,,,,,,,,,,,,1,0,1,0,1,,,,,,,,,,,,,,,,,,,,
,,,,,,,,2023-08-06_08h18.20.248,HF_wild_card,2022.2.4,MacIntel,40,607312f8adb3f1b6bbfe8aa6,64ce5acb97489d65b14ecc7a,64cf491b3501f89e58eff14b,,,,,,,,,,,,,,,,,,,,,,,,,,,,,,,,,,,,,,,,,,,,,-0.288194444,-0.410590278,1,0,0,yes,80%,20%,Door2,resources/DY.BMP,0,0,0,0,1,,,,,
,,,,,,,,2023-08-06_08h18.20.248,HF_wild_card,2022.2.4,MacIntel,40,607312f8adb3f1b6bbfe8aa6,64ce5acb97489d65b14ecc7a,64cf491b3501f89e58eff14b,,,,,,,,,,,,,,,,,,,,,,,,,,,,,,,,,,,,,,,,,,,,,,,,,,,,,,,,,,,,1,0,1,0,1
,,,,,,,,2023-08-06_08h18.20.248,HF_wild_card,2022.2.4,MacIntel,40,607312f8adb3f1b6bbfe8aa6,64ce5acb97489d65b14ecc7a,64cf491b3501f89e58eff14b,,,,,,,,,,,,,,,,,,,,,,,,,,,,,,,,,,,,,,,,0,0,0,0,1,,,,,,,,,,,,,,,,,,,,
,,,,,,,,2023-08-06_08h18.20.248,HF_wild_card,2022.2.4,MacIntel,40,607312f8adb3f1b6bbfe8aa6,64ce5acb97489d65b14ecc7a,64cf491b3501f89e58eff14b,,,,,,,,,,,,,,,,,,,,,,,,,,,,,,,,,,,,,,,,1,0,1,0,1,,,,,,,,,,,,,,,,,,,,
