Condition,Low fixed image (Door1),Low risky image (Door2),High fixed image (Door3),High risky image (Door4),Extreme Wild Card,NonExtreme Wild Card,,date,expName,psychopyVersion,OS,frameRate,PROLIFIC_PID,STUDY_ID,SESSION_ID,mouse_2.x,mouse_2.y,mouse_2.leftButton,mouse_2.midButton,mouse_2.rightButton,mouse_2.clicked_name,Trial Type,Left Option Image,Right Option Image,Chosen Door,mouse.x,mouse.y,mouse.leftButton,mouse.midButton,mouse.rightButton,mouse.time,mouse.clicked_name,Feedback,Cumulative Reward,Block,trial.thisRepN,trial.thisTrialN,trial.thisN,trial.thisIndex,trial.ran,blocks.thisRepN,blocks.thisTrialN,blocks.thisN,blocks.thisIndex,blocks.ran,Money conversion,First Outcome Reported,Shown Door (First Outcome),Displayed Image (First Outcome),outcomes.thisRepN,outcomes.thisTrialN,outcomes.thisN,outcomes.thisIndex,outcomes.ran,judgments.thisRepN,judgments.thisTrialN,judgments.thisN,judgments.thisIndex,judgments.ran,freqMouse.x,freqMouse.y,freqMouse.leftButton,freqMouse.midButton,freqMouse.rightButton,freqMouse.clicked_name,FQJ for first outcome,FQJ for second outcome,Shown Door,Displayed Image,trials.thisRepN,trials.thisTrialN,trials.thisN,trials.thisIndex,trials.ran,judgBlock.thisRepN,judgBlock.thisTrialN,judgBlock.thisN,judgBlock.thisIndex,judgBlock.ran
1,resources/DY.BMP,resources/DG.BMP,resources/DBN.BMP,resources/DB.BMP,resources/DR.BMP,resources/DP.BMP,,2023-08-06_08h29.10.795,HF_wild_card,2022.2.4,Win32,59.9880024,5bdc1ff52562330001b8d841,64ce5acb97489d65b14ecc7a,64cf4bb644452db73c4ecc0c,,,,,,,,,,,,,,,,,,,,,,,,,,,,,,,,,,,,,,,,,,,,,,,,,,,,,,,,,,,,,,,,
,,,,,,,,2023-08-06_08h29.10.795,HF_wild_card,2022.2.4,Win32,59.9880024,5bdc1ff52562330001b8d841,64ce5acb97489d65b14ecc7a,64cf4bb644452db73c4ecc0c,0.00648151,-0.417592621,1,0,0,agree,,,,,,,,,,,,,,,,,,,,,,,,,,,,,,,,,,,,,,,,,,,,,,,,,,,,,,,,,,
,,,,,,,,2023-08-06_08h29.10.795,HF_wild_card,2022.2.4,Win32,59.9880024,5bdc1ff52562330001b8d841,64ce5acb97489d65b14ecc7a,64cf4bb644452db73c4ecc0c,,,,,,,,,,,,,,,,,,,,,,,,,,,,,,,,,,,,,,,,,,,,,,,,,,,,,,,,,,,,,,,,
,,,,,,,,2023-08-06_08h29.10.795,HF_wild_card,2022.2.4,Win32,59.9880024,5bdc1ff52562330001b8d841,64ce5acb97489d65b14ecc7a,64cf4bb644452db73c4ecc0c,,,,,,,ctch,resources/DY.BMP,resources/DB.BMP,Door1,-0.229629601,-0.228703732,1,0,0,3.5525,optionLeft,30,30,1,0,0,0,0,1,,,,,,,,,,,,,,,,,,,,,,,,,,,,,,,,,,,,,,,
,,,,,,,,2023-08-06_08h29.10.795,HF_wild_card,2022.2.4,Win32,59.9880024,5bdc1ff52562330001b8d841,64ce5acb97489d65b14ecc7a,64cf4bb644452db73c4ecc0c,,,,,,,decisionTrl,resources/DB.BMP,resources/DBN.BMP,Door3,0.399074131,0.061111111,1,0,0,4.0278,optionRight,70,100,1,1,0,1,0,1,,,,,,,,,,,,,,,,,,,,,,,,,,,,,,,,,,,,,,,
,,,,,,,,2023-08-06_08h29.10.795,HF_wild_card,2022.2.4,Win32,59.9880024,5bdc1ff52562330001b8d841,64ce5acb97489d65b14ecc7a,64cf4bb644452db73c4ecc0c,,,,,,,sngl,resources/Empty.png,resources/DB.BMP,Door4,0.390740797,-0.004629644,1,0,0,2.6598,optionRight,60,160,1,2,0,2,0,1,,,,,,,,,,,,,,,,,,,,,,,,,,,,,,,,,,,,,,,
,,,,,,,,2023-08-06_08h29.10.795,HF_wild_card,2022.2.4,Win32,59.9880024,5bdc1ff52562330001b8d841,64ce5acb97489d65b14ecc7a,64cf4bb644452db73c4ecc0c,,,,,,,decisionTrl,resources/DBN.BMP,resources/DB.BMP,Door3,-0.387037023,-0.002777778,1,0,0,1.7285,optionLeft,70,230,1,3,0,3,0,1,,,,,,,,,,,,,,,,,,,,,,,,,,,,,,,,,,,,,,,
,,,,,,,,2023-08-06_08h29.10.795,HF_wild_card,2022.2.4,Win32,59.9880024,5bdc1ff52562330001b8d841,64ce5acb97489d65b14ecc7a,64cf4bb644452db73c4ecc0c,,,,,,,decisionTrl,resources/DY.BMP,resources/DG.BMP,Door1,-0.251851824,-0.048148176,1,0,0,1.9124,optionLeft,30,260,1,4,0,4,0,1,,,,,,,,,,,,,,,,,,,,,,,,,,,,,,,,,,,,,,,
,,,,,,,,2023-08-06_08h29.10.795,HF_wild_card,2022.2.4,Win32,59.9880024,5bdc1ff52562330001b8d841,64ce5acb97489d65b14ecc7a,64cf4bb644452db73c4ecc0c,,,,,,,sngl,resources/DB.BMP,resources/Empty.png,Door4,-0.337037023,-0.012037065,1,0,0,1.178599999,optionLeft,80,340,1,5,0,5,0,1,,,,,,,,,,,,,,,,,,,,,,,,,,,,,,,,,,,,,,,
,,,,,,,,2023-08-06_08h29.10.795,HF_wild_card,2022.2.4,Win32,59.9880024,5bdc1ff52562330001b8d841,64ce5acb97489d65b14ecc7a,64cf4bb644452db73c4ecc0c,,,,,,,sngl,resources/Empty.png,resources/DG.BMP,Door2,0.547222222,-0.040740755,1,0,0,0.9619,optionRight,20,360,1,6,0,6,0,1,,,,,,,,,,,,,,,,,,,,,,,,,,,,,,,,,,,,,,,
,,,,,,,,2023-08-06_08h29.10.795,HF_wild_card,2022.2.4,Win32,59.9880024,5bdc1ff52562330001b8d841,64ce5acb97489d65b14ecc7a,64cf4bb644452db73c4ecc0c,,,,,,,decisionTrl,resources/DG.BMP,resources/DY.BMP,Door1,0.536111111,-0.063888889,1,0,0,1.2791,optionRight,30,390,1,7,0,7,0,1,,,,,,,,,,,,,,,,,,,,,,,,,,,,,,,,,,,,,,,
,,,,,,,,2023-08-06_08h29.10.795,HF_wild_card,2022.2.4,Win32,59.9880024,5bdc1ff52562330001b8d841,64ce5acb97489d65b14ecc7a,64cf4bb644452db73c4ecc0c,,,,,,,decisionTrl,resources/DP.BMP,resources/DB.BMP,Door4,0.518518575,0.01851849,1,0,0,2.7762,optionRight,60,450,1,8,0,8,0,1,,,,,,,,,,,,,,,,,,,,,,,,,,,,,,,,,,,,,,,
,,,,,,,,2023-08-06_08h29.10.795,HF_wild_card,2022.2.4,Win32,59.9880024,5bdc1ff52562330001b8d841,64ce5acb97489d65b14ecc7a,64cf4bb644452db73c4ecc0c,,,,,,,decisionTrl,resources/DB.BMP,resources/DBN.BMP,Door3,0.318518575,0.021296268,1,0,0,2.4271,optionRight,70,520,1,9,0,9,0,1,,,,,,,,,,,,,,,,,,,,,,,,,,,,,,,,,,,,,,,
,,,,,,,,2023-08-06_08h29.10.795,HF_wild_card,2022.2.4,Win32,59.9880024,5bdc1ff52562330001b8d841,64ce5acb97489d65b14ecc7a,64cf4bb644452db73c4ecc0c,,,,,,,decisionTrl,resources/DG.BMP,resources/DY.BMP,Door2,-0.211111111,-0.041666667,1,0,0,2.5282,optionLeft,40,560,1,10,0,10,0,1,,,,,,,,,,,,,,,,,,,,,,,,,,,,,,,,,,,,,,,
,,,,,,,,2023-08-06_08h29.10.795,HF_wild_card,2022.2.4,Win32,59.9880024,5bdc1ff52562330001b8d841,64ce5acb97489d65b14ecc7a,64cf4bb644452db73c4ecc0c,,,,,,,ctch,resources/DY.BMP,resources/DB.BMP,Door4,0.367592621,-0.038888889,1,0,0,3.297,optionRight,80,640,1,11,0,11,0,1,,,,,,,,,,,,,,,,,,,,,,,,,,,,,,,,,,,,,,,
,,,,,,,,2023-08-06_08h29.10.795,HF_wild_card,2022.2.4,Win32,59.9880024,5bdc1ff52562330001b8d841,64ce5acb97489d65b14ecc7a,64cf4bb644452db73c4ecc0c,,,,,,,decisionTrl,resources/DP.BMP,resources/DBN.BMP,Door3,0.412037065,-0.009259288,1,0,0,1.3782,optionRight,70,710,1,12,0,12,0,1,,,,,,,,,,,,,,,,,,,,,,,,,,,,,,,,,,,,,,,
,,,,,,,,2023-08-06_08h29.10.795,HF_wild_card,2022.2.4,Win32,59.9880024,5bdc1ff52562330001b8d841,64ce5acb97489d65b14ecc7a,64cf4bb644452db73c4ecc0c,,,,,,,sngl,resources/DP.BMP,resources/Empty.png,WildCard_NonEx,-0.310185157,-0.025925954,1,0,0,0.9962,optionLeft,45,755,1,13,0,13,0,1,,,,,,,,,,,,,,,,,,,,,,,,,,,,,,,,,,,,,,,
,,,,,,,,2023-08-06_08h29.10.795,HF_wild_card,2022.2.4,Win32,59.9880024,5bdc1ff52562330001b8d841,64ce5acb97489d65b14ecc7a,64cf4bb644452db73c4ecc0c,,,,,,,decisionTrl,resources/DB.BMP,resources/DBN.BMP,Door3,0.475925954,0.006481467,1,0,0,1.2944,optionRight,70,825,1,14,0,14,0,1,,,,,,,,,,,,,,,,,,,,,,,,,,,,,,,,,,,,,,,
,,,,,,,,2023-08-06_08h29.10.795,HF_wild_card,2022.2.4,Win32,59.9880024,5bdc1ff52562330001b8d841,64ce5acb97489d65b14ecc7a,64cf4bb644452db73c4ecc0c,,,,,,,sngl,resources/Empty.png,resources/DY.BMP,Door1,0.409259288,-0.036111111,1,0,0,0.8777,optionRight,30,855,1,15,0,15,0,1,,,,,,,,,,,,,,,,,,,,,,,,,,,,,,,,,,,,,,,
,,,,,,,,2023-08-06_08h29.10.795,HF_wild_card,2022.2.4,Win32,59.9880024,5bdc1ff52562330001b8d841,64ce5acb97489d65b14ecc7a,64cf4bb644452db73c4ecc0c,,,,,,,decisionTrl,resources/DY.BMP,resources/DP.BMP,Door1,-0.331481467,-0.055555556,1,0,0,1.4781,optionLeft,30,885,1,16,0,16,0,1,,,,,,,,,,,,,,,,,,,,,,,,,,,,,,,,,,,,,,,
,,,,,,,,2023-08-06_08h29.10.795,HF_wild_card,2022.2.4,Win32,59.9880024,5bdc1ff52562330001b8d841,64ce5acb97489d65b14ecc7a,64cf4bb644452db73c4ecc0c,,,,,,,decisionTrl,resources/DBN.BMP,resources/DP.BMP,Door3,-0.316666667,0.012037023,1,0,0,1.860900001,optionLeft,70,955,1,17,0,17,0,1,,,,,,,,,,,,,,,,,,,,,,,,,,,,,,,,,,,,,,,
,,,,,,,,2023-08-06_08h29.10.795,HF_wild_card,2022.2.4,Win32,59.9880024,5bdc1ff52562330001b8d841,64ce5acb97489d65b14ecc7a,64cf4bb644452db73c4ecc0c,,,,,,,decisionTrl,resources/DBN.BMP,resources/DB.BMP,Door4,0.545370483,0,1,0,0,0.9238,optionRight,80,1035,1,18,0,18,0,1,,,,,,,,,,,,,,,,,,,,,,,,,,,,,,,,,,,,,,,
,,,,,,,,2023-08-06_08h29.10.795,HF_wild_card,2022.2.4,Win32,59.9880024,5bdc1ff52562330001b8d841,64ce5acb97489d65b14ecc7a,64cf4bb644452db73c4ecc0c,,,,,,,decisionTrl,resources/DY.BMP,resources/DG.BMP,Door2,0.363888889,-0.052777778,1,0,0,1.212,optionRight,20,1055,1,19,0,19,0,1,,,,,,,,,,,,,,,,,,,,,,,,,,,,,,,,,,,,,,,
,,,,,,,,2023-08-06_08h29.10.795,HF_wild_card,2022.2.4,Win32,59.9880024,5bdc1ff52562330001b8d841,64ce5acb97489d65b14ecc7a,64cf4bb644452db73c4ecc0c,,,,,,,ctch,resources/DBN.BMP,resources/DG.BMP,Door3,-0.382407379,0.015740712,1,0,0,1.029099999,optionLeft,70,1125,1,20,0,20,0,1,,,,,,,,,,,,,,,,,,,,,,,,,,,,,,,,,,,,,,,
,,,,,,,,2023-08-06_08h29.10.795,HF_wild_card,2022.2.4,Win32,59.9880024,5bdc1ff52562330001b8d841,64ce5acb97489d65b14ecc7a,64cf4bb644452db73c4ecc0c,,,,,,,sngl,resources/DY.BMP,resources/Empty.png,Door1,-0.35370369,0.009259245,1,0,0,0.7731,optionLeft,30,1155,1,21,0,21,0,1,,,,,,,,,,,,,,,,,,,,,,,,,,,,,,,,,,,,,,,
,,,,,,,,2023-08-06_08h29.10.795,HF_wild_card,2022.2.4,Win32,59.9880024,5bdc1ff52562330001b8d841,64ce5acb97489d65b14ecc7a,64cf4bb644452db73c4ecc0c,,,,,,,decisionTrl,resources/DB.BMP,resources/DBN.BMP,Door3,0.317592621,-0.023148176,1,0,0,1.0893,optionRight,70,1225,1,22,0,22,0,1,,,,,,,,,,,,,,,,,,,,,,,,,,,,,,,,,,,,,,,
,,,,,,,,2023-08-06_08h29.10.795,HF_wild_card,2022.2.4,Win32,59.9880024,5bdc1ff52562330001b8d841,64ce5acb97489d65b14ecc7a,64cf4bb644452db73c4ecc0c,,,,,,,decisionTrl,resources/DY.BMP,resources/DG.BMP,Door1,-0.334259245,0.00370369,1,0,0,0.812,optionLeft,30,1255,1,23,0,23,0,1,,,,,,,,,,,,,,,,,,,,,,,,,,,,,,,,,,,,,,,
,,,,,,,,2023-08-06_08h29.10.795,HF_wild_card,2022.2.4,Win32,59.9880024,5bdc1ff52562330001b8d841,64ce5acb97489d65b14ecc7a,64cf4bb644452db73c4ecc0c,,,,,,,ctch,resources/DG.BMP,resources/DBN.BMP,Door3,0.377777778,0.027777778,1,0,0,0.8952,optionRight,70,1325,1,24,0,24,0,1,,,,,,,,,,,,,,,,,,,,,,,,,,,,,,,,,,,,,,,
,,,,,,,,2023-08-06_08h29.10.795,HF_wild_card,2022.2.4,Win32,59.9880024,5bdc1ff52562330001b8d841,64ce5acb97489d65b14ecc7a,64cf4bb644452db73c4ecc0c,,,,,,,sngl,resources/Empty.png,resources/DBN.BMP,Door3,0.293518575,0.012037023,1,0,0,0.762299999,optionRight,70,1395,1,25,0,25,0,1,,,,,,,,,,,,,,,,,,,,,,,,,,,,,,,,,,,,,,,
,,,,,,,,2023-08-06_08h29.10.795,HF_wild_card,2022.2.4,Win32,59.9880024,5bdc1ff52562330001b8d841,64ce5acb97489d65b14ecc7a,64cf4bb644452db73c4ecc0c,,,,,,,ctch,resources/DB.BMP,resources/DY.BMP,Door4,-0.311111111,0.016666667,1,0,0,2.9285,optionLeft,60,1455,1,26,0,26,0,1,,,,,,,,,,,,,,,,,,,,,,,,,,,,,,,,,,,,,,,
,,,,,,,,2023-08-06_08h29.10.795,HF_wild_card,2022.2.4,Win32,59.9880024,5bdc1ff52562330001b8d841,64ce5acb97489d65b14ecc7a,64cf4bb644452db73c4ecc0c,,,,,,,decisionTrl,resources/DG.BMP,resources/DY.BMP,Door2,-0.348148134,-0.018518533,1,0,0,2.028900001,optionLeft,40,1495,1,27,0,27,0,1,,,,,,,,,,,,,,,,,,,,,,,,,,,,,,,,,,,,,,,
,,,,,,,,2023-08-06_08h29.10.795,HF_wild_card,2022.2.4,Win32,59.9880024,5bdc1ff52562330001b8d841,64ce5acb97489d65b14ecc7a,64cf4bb644452db73c4ecc0c,,,,,,,decisionTrl,resources/DP.BMP,resources/DY.BMP,Door1,0.413888889,-0.022222222,1,0,0,1.3952,optionRight,30,1525,1,28,0,28,0,1,,,,,,,,,,,,,,,,,,,,,,,,,,,,,,,,,,,,,,,
,,,,,,,,2023-08-06_08h29.10.795,HF_wild_card,2022.2.4,Win32,59.9880024,5bdc1ff52562330001b8d841,64ce5acb97489d65b14ecc7a,64cf4bb644452db73c4ecc0c,,,,,,,ctch,resources/DB.BMP,resources/DY.BMP,Door4,-0.392592578,0.014814801,1,0,0,0.972099999,optionLeft,60,1585,1,29,0,29,0,1,,,,,,,,,,,,,,,,,,,,,,,,,,,,,,,,,,,,,,,
,,,,,,,,2023-08-06_08h29.10.795,HF_wild_card,2022.2.4,Win32,59.9880024,5bdc1ff52562330001b8d841,64ce5acb97489d65b14ecc7a,64cf4bb644452db73c4ecc0c,,,,,,,sngl,resources/DG.BMP,resources/Empty.png,Door2,-0.419444444,-0.043518533,1,0,0,0.7611,optionLeft,40,1625,1,30,0,30,0,1,,,,,,,,,,,,,,,,,,,,,,,,,,,,,,,,,,,,,,,
,,,,,,,,2023-08-06_08h29.10.795,HF_wild_card,2022.2.4,Win32,59.9880024,5bdc1ff52562330001b8d841,64ce5acb97489d65b14ecc7a,64cf4bb644452db73c4ecc0c,,,,,,,ctch,resources/DBN.BMP,resources/DG.BMP,Door2,0.55,-0.047222222,1,0,0,1.5883,optionRight,40,1665,1,31,0,31,0,1,,,,,,,,,,,,,,,,,,,,,,,,,,,,,,,,,,,,,,,
,,,,,,,,2023-08-06_08h29.10.795,HF_wild_card,2022.2.4,Win32,59.9880024,5bdc1ff52562330001b8d841,64ce5acb97489d65b14ecc7a,64cf4bb644452db73c4ecc0c,,,,,,,decisionTrl,resources/DP.BMP,resources/DG.BMP,Door2,0.347222222,-0.089814843,1,0,0,1.1951,optionRight,40,1705,1,32,0,32,0,1,,,,,,,,,,,,,,,,,,,,,,,,,,,,,,,,,,,,,,,
,,,,,,,,2023-08-06_08h29.10.795,HF_wild_card,2022.2.4,Win32,59.9880024,5bdc1ff52562330001b8d841,64ce5acb97489d65b14ecc7a,64cf4bb644452db73c4ecc0c,,,,,,,decisionTrl,resources/DBN.BMP,resources/DB.BMP,Door4,0.382407464,-0.123148176,1,0,0,0.9785,optionRight,80,1785,1,33,0,33,0,1,,,,,,,,,,,,,,,,,,,,,,,,,,,,,,,,,,,,,,,
,,,,,,,,2023-08-06_08h29.10.795,HF_wild_card,2022.2.4,Win32,59.9880024,5bdc1ff52562330001b8d841,64ce5acb97489d65b14ecc7a,64cf4bb644452db73c4ecc0c,,,,,,,sngl,resources/Empty.png,resources/DP.BMP,WildCard_NonEx,0.287037065,-0.012962977,1,0,0,0.9282,optionRight,45,1830,1,34,0,34,0,1,,,,,,,,,,,,,,,,,,,,,,,,,,,,,,,,,,,,,,,
,,,,,,,,2023-08-06_08h29.10.795,HF_wild_card,2022.2.4,Win32,59.9880024,5bdc1ff52562330001b8d841,64ce5acb97489d65b14ecc7a,64cf4bb644452db73c4ecc0c,,,,,,,ctch,resources/DG.BMP,resources/DBN.BMP,Door2,-0.348148134,-0.028703732,1,0,0,0.9733,optionLeft,20,1850,1,35,0,35,0,1,,,,,,,,,,,,,,,,,,,,,,,,,,,,,,,,,,,,,,,
,,,,,,,,2023-08-06_08h29.10.795,HF_wild_card,2022.2.4,Win32,59.9880024,5bdc1ff52562330001b8d841,64ce5acb97489d65b14ecc7a,64cf4bb644452db73c4ecc0c,,,,,,,decisionTrl,resources/DG.BMP,resources/DP.BMP,Door2,-0.374074046,-0.038888889,1,0,0,1.1955,optionLeft,20,1870,1,36,0,36,0,1,,,,,,,,,,,,,,,,,,,,,,,,,,,,,,,,,,,,,,,
,,,,,,,,2023-08-06_08h29.10.795,HF_wild_card,2022.2.4,Win32,59.9880024,5bdc1ff52562330001b8d841,64ce5acb97489d65b14ecc7a,64cf4bb644452db73c4ecc0c,,,,,,,decisionTrl,resources/DG.BMP,resources/DY.BMP,Door1,0.223148176,-0.004629644,1,0,0,1.0622,optionRight,30,1900,1,37,0,37,0,1,,,,,,,,,,,,,,,,,,,,,,,,,,,,,,,,,,,,,,,
,,,,,,,,2023-08-06_08h29.10.795,HF_wild_card,2022.2.4,Win32,59.9880024,5bdc1ff52562330001b8d841,64ce5acb97489d65b14ecc7a,64cf4bb644452db73c4ecc0c,,,,,,,decisionTrl,resources/DY.BMP,resources/DG.BMP,Door2,0.43148151,-0.090740755,1,0,0,0.963099999,optionRight,40,1940,1,38,0,38,0,1,,,,,,,,,,,,,,,,,,,,,,,,,,,,,,,,,,,,,,,
,,,,,,,,2023-08-06_08h29.10.795,HF_wild_card,2022.2.4,Win32,59.9880024,5bdc1ff52562330001b8d841,64ce5acb97489d65b14ecc7a,64cf4bb644452db73c4ecc0c,,,,,,,decisionTrl,resources/DBN.BMP,resources/DB.BMP,Door4,0.475,0.02870369,1,0,0,0.9908,optionRight,60,2000,1,39,0,39,0,1,,,,,,,,,,,,,,,,,,,,,,,,,,,,,,,,,,,,,,,
,,,,,,,,2023-08-06_08h29.10.795,HF_wild_card,2022.2.4,Win32,59.9880024,5bdc1ff52562330001b8d841,64ce5acb97489d65b14ecc7a,64cf4bb644452db73c4ecc0c,,,,,,,sngl,resources/DBN.BMP,resources/Empty.png,Door3,-0.504629601,-0.065740755,1,0,0,0.6735,optionLeft,70,2070,1,40,0,40,0,1,,,,,,,,,,,,,,,,,,,,,,,,,,,,,,,,,,,,,,,
,,,,,,,,2023-08-06_08h29.10.795,HF_wild_card,2022.2.4,Win32,59.9880024,5bdc1ff52562330001b8d841,64ce5acb97489d65b14ecc7a,64cf4bb644452db73c4ecc0c,,,,,,,sngl,resources/DP.BMP,resources/Empty.png,WildCard_NonEx,-0.419444444,0.009259245,1,0,0,0.863099999,optionLeft,55,2125,1,41,0,41,0,1,,,,,,,,,,,,,,,,,,,,,,,,,,,,,,,,,,,,,,,
,,,,,,,,2023-08-06_08h29.10.795,HF_wild_card,2022.2.4,Win32,59.9880024,5bdc1ff52562330001b8d841,64ce5acb97489d65b14ecc7a,64cf4bb644452db73c4ecc0c,,,,,,,decisionTrl,resources/DB.BMP,resources/DP.BMP,WildCard_NonEx,0.465740797,0.002777778,1,0,0,2.7617,optionRight,55,2180,1,42,0,42,0,1,,,,,,,,,,,,,,,,,,,,,,,,,,,,,,,,,,,,,,,
,,,,,,,,2023-08-06_08h29.10.795,HF_wild_card,2022.2.4,Win32,59.9880024,5bdc1ff52562330001b8d841,64ce5acb97489d65b14ecc7a,64cf4bb644452db73c4ecc0c,,,,,,,sngl,resources/Empty.png,resources/DP.BMP,WildCard_NonEx,0.326851908,-0.088888889,1,0,0,1.129099999,optionRight,55,2235,1,43,0,43,0,1,,,,,,,,,,,,,,,,,,,,,,,,,,,,,,,,,,,,,,,
,,,,,,,,2023-08-06_08h29.10.795,HF_wild_card,2022.2.4,Win32,59.9880024,5bdc1ff52562330001b8d841,64ce5acb97489d65b14ecc7a,64cf4bb644452db73c4ecc0c,,,,,,,,,,,,,,,,,,,,,,,,,,0,0,0,0,1,,,,,,,,,,,,,,,,,,,,,,,,,,,,,,,,,,
,,,,,,,,2023-08-06_08h29.10.795,HF_wild_card,2022.2.4,Win32,59.9880024,5bdc1ff52562330001b8d841,64ce5acb97489d65b14ecc7a,64cf4bb644452db73c4ecc0c,,,,,,,ctch,resources/DY.BMP,resources/DB.BMP,Door4,0.35648151,0.091666667,1,0,0,1.2525,optionRight,60,2295,2,0,0,0,0,1,,,,,,,,,,,,,,,,,,,,,,,,,,,,,,,,,,,,,,,
,,,,,,,,2023-08-06_08h29.10.795,HF_wild_card,2022.2.4,Win32,59.9880024,5bdc1ff52562330001b8d841,64ce5acb97489d65b14ecc7a,64cf4bb644452db73c4ecc0c,,,,,,,ctch,resources/DG.BMP,resources/DBN.BMP,Door2,-0.284259245,0.022222222,1,0,0,0.691,optionLeft,40,2335,2,1,0,1,0,1,,,,,,,,,,,,,,,,,,,,,,,,,,,,,,,,,,,,,,,
,,,,,,,,2023-08-06_08h29.10.795,HF_wild_card,2022.2.4,Win32,59.9880024,5bdc1ff52562330001b8d841,64ce5acb97489d65b14ecc7a,64cf4bb644452db73c4ecc0c,,,,,,,decisionTrl,resources/DY.BMP,resources/DG.BMP,Door1,-0.27870369,0.011111111,1,0,0,0.6453,optionLeft,30,2365,2,2,0,2,0,1,,,,,,,,,,,,,,,,,,,,,,,,,,,,,,,,,,,,,,,
,,,,,,,,2023-08-06_08h29.10.795,HF_wild_card,2022.2.4,Win32,59.9880024,5bdc1ff52562330001b8d841,64ce5acb97489d65b14ecc7a,64cf4bb644452db73c4ecc0c,,,,,,,ctch,resources/DY.BMP,resources/DB.BMP,Door4,0.490740797,-0.012037065,1,0,0,0.7127,optionRight,80,2445,2,3,0,3,0,1,,,,,,,,,,,,,,,,,,,,,,,,,,,,,,,,,,,,,,,
,,,,,,,,2023-08-06_08h29.10.795,HF_wild_card,2022.2.4,Win32,59.9880024,5bdc1ff52562330001b8d841,64ce5acb97489d65b14ecc7a,64cf4bb644452db73c4ecc0c,,,,,,,ctch,resources/DB.BMP,resources/DY.BMP,Door4,-0.381481467,0.037037023,1,0,0,0.7897,optionLeft,60,2505,2,4,0,4,0,1,,,,,,,,,,,,,,,,,,,,,,,,,,,,,,,,,,,,,,,
,,,,,,,,2023-08-06_08h29.10.795,HF_wild_card,2022.2.4,Win32,59.9880024,5bdc1ff52562330001b8d841,64ce5acb97489d65b14ecc7a,64cf4bb644452db73c4ecc0c,,,,,,,decisionTrl,resources/DB.BMP,resources/DBN.BMP,Door4,-0.332407379,-0.030555556,1,0,0,0.691799999,optionLeft,60,2565,2,5,0,5,0,1,,,,,,,,,,,,,,,,,,,,,,,,,,,,,,,,,,,,,,,
,,,,,,,,2023-08-06_08h29.10.795,HF_wild_card,2022.2.4,Win32,59.9880024,5bdc1ff52562330001b8d841,64ce5acb97489d65b14ecc7a,64cf4bb644452db73c4ecc0c,,,,,,,decisionTrl,resources/DP.BMP,resources/DY.BMP,Door1,0.373148176,-0.069444444,1,0,0,0.9123,optionRight,30,2595,2,6,0,6,0,1,,,,,,,,,,,,,,,,,,,,,,,,,,,,,,,,,,,,,,,
,,,,,,,,2023-08-06_08h29.10.795,HF_wild_card,2022.2.4,Win32,59.9880024,5bdc1ff52562330001b8d841,64ce5acb97489d65b14ecc7a,64cf4bb644452db73c4ecc0c,,,,,,,sngl,resources/DP.BMP,resources/Empty.png,WildCard_NonEx,-0.281481467,0.015740712,1,0,0,0.7118,optionLeft,45,2640,2,7,0,7,0,1,,,,,,,,,,,,,,,,,,,,,,,,,,,,,,,,,,,,,,,
,,,,,,,,2023-08-06_08h29.10.795,HF_wild_card,2022.2.4,Win32,59.9880024,5bdc1ff52562330001b8d841,64ce5acb97489d65b14ecc7a,64cf4bb644452db73c4ecc0c,,,,,,,decisionTrl,resources/DBN.BMP,resources/DP.BMP,WildCard_NonEx,0.342592621,-0.033333333,1,0,0,0.7794,optionRight,55,2695,2,8,0,8,0,1,,,,,,,,,,,,,,,,,,,,,,,,,,,,,,,,,,,,,,,
,,,,,,,,2023-08-06_08h29.10.795,HF_wild_card,2022.2.4,Win32,59.9880024,5bdc1ff52562330001b8d841,64ce5acb97489d65b14ecc7a,64cf4bb644452db73c4ecc0c,,,,,,,decisionTrl,resources/DB.BMP,resources/DBN.BMP,Door4,-0.281481467,-0.017592621,1,0,0,0.728,optionLeft,80,2775,2,9,0,9,0,1,,,,,,,,,,,,,,,,,,,,,,,,,,,,,,,,,,,,,,,
,,,,,,,,2023-08-06_08h29.10.795,HF_wild_card,2022.2.4,Win32,59.9880024,5bdc1ff52562330001b8d841,64ce5acb97489d65b14ecc7a,64cf4bb644452db73c4ecc0c,,,,,,,decisionTrl,resources/DY.BMP,resources/DG.BMP,Door2,0.403703732,-0.077777778,1,0,0,1.0125,optionRight,40,2815,2,10,0,10,0,1,,,,,,,,,,,,,,,,,,,,,,,,,,,,,,,,,,,,,,,
,,,,,,,,2023-08-06_08h29.10.795,HF_wild_card,2022.2.4,Win32,59.9880024,5bdc1ff52562330001b8d841,64ce5acb97489d65b14ecc7a,64cf4bb644452db73c4ecc0c,,,,,,,sngl,resources/Empty.png,resources/DY.BMP,Door1,0.492592621,0.000925912,1,0,0,0.760900001,optionRight,30,2845,2,11,0,11,0,1,,,,,,,,,,,,,,,,,,,,,,,,,,,,,,,,,,,,,,,
,,,,,,,,2023-08-06_08h29.10.795,HF_wild_card,2022.2.4,Win32,59.9880024,5bdc1ff52562330001b8d841,64ce5acb97489d65b14ecc7a,64cf4bb644452db73c4ecc0c,,,,,,,sngl,resources/Empty.png,resources/DBN.BMP,Door3,0.400925954,-0.009259288,1,0,0,0.678599999,optionRight,70,2915,2,12,0,12,0,1,,,,,,,,,,,,,,,,,,,,,,,,,,,,,,,,,,,,,,,
,,,,,,,,2023-08-06_08h29.10.795,HF_wild_card,2022.2.4,Win32,59.9880024,5bdc1ff52562330001b8d841,64ce5acb97489d65b14ecc7a,64cf4bb644452db73c4ecc0c,,,,,,,sngl,resources/Empty.png,resources/DG.BMP,Door2,0.460185242,-0.009259288,1,0,0,0.6947,optionRight,40,2955,2,13,0,13,0,1,,,,,,,,,,,,,,,,,,,,,,,,,,,,,,,,,,,,,,,
,,,,,,,,2023-08-06_08h29.10.795,HF_wild_card,2022.2.4,Win32,59.9880024,5bdc1ff52562330001b8d841,64ce5acb97489d65b14ecc7a,64cf4bb644452db73c4ecc0c,,,,,,,decisionTrl,resources/DB.BMP,resources/DBN.BMP,Door4,-0.345370356,-0.041666667,1,0,0,0.777,optionLeft,60,3015,2,14,0,14,0,1,,,,,,,,,,,,,,,,,,,,,,,,,,,,,,,,,,,,,,,
,,,,,,,,2023-08-06_08h29.10.795,HF_wild_card,2022.2.4,Win32,59.9880024,5bdc1ff52562330001b8d841,64ce5acb97489d65b14ecc7a,64cf4bb644452db73c4ecc0c,,,,,,,decisionTrl,resources/DY.BMP,resources/DG.BMP,Door2,0.437963019,-0.011111111,1,0,0,0.746400001,optionRight,40,3055,2,15,0,15,0,1,,,,,,,,,,,,,,,,,,,,,,,,,,,,,,,,,,,,,,,
,,,,,,,,2023-08-06_08h29.10.795,HF_wild_card,2022.2.4,Win32,59.9880024,5bdc1ff52562330001b8d841,64ce5acb97489d65b14ecc7a,64cf4bb644452db73c4ecc0c,,,,,,,sngl,resources/DP.BMP,resources/Empty.png,WildCard_NonEx,-0.37870369,-0.007407422,1,0,0,0.7446,optionLeft,55,3110,2,16,0,16,0,1,,,,,,,,,,,,,,,,,,,,,,,,,,,,,,,,,,,,,,,
,,,,,,,,2023-08-06_08h29.10.795,HF_wild_card,2022.2.4,Win32,59.9880024,5bdc1ff52562330001b8d841,64ce5acb97489d65b14ecc7a,64cf4bb644452db73c4ecc0c,,,,,,,decisionTrl,resources/DG.BMP,resources/DY.BMP,Door2,-0.427777778,0.126851824,1,0,0,2.5632,optionLeft,40,3150,2,17,0,17,0,1,,,,,,,,,,,,,,,,,,,,,,,,,,,,,,,,,,,,,,,
,,,,,,,,2023-08-06_08h29.10.795,HF_wild_card,2022.2.4,Win32,59.9880024,5bdc1ff52562330001b8d841,64ce5acb97489d65b14ecc7a,64cf4bb644452db73c4ecc0c,,,,,,,decisionTrl,resources/DP.BMP,resources/DB.BMP,Door4,0.304629686,-0.00648151,1,0,0,0.6945,optionRight,60,3210,2,18,0,18,0,1,,,,,,,,,,,,,,,,,,,,,,,,,,,,,,,,,,,,,,,
,,,,,,,,2023-08-06_08h29.10.795,HF_wild_card,2022.2.4,Win32,59.9880024,5bdc1ff52562330001b8d841,64ce5acb97489d65b14ecc7a,64cf4bb644452db73c4ecc0c,,,,,,,decisionTrl,resources/DY.BMP,resources/DP.BMP,Door1,-0.475925912,0.008333333,1,0,0,1.295700001,optionLeft,30,3240,2,19,0,19,0,1,,,,,,,,,,,,,,,,,,,,,,,,,,,,,,,,,,,,,,,
,,,,,,,,2023-08-06_08h29.10.795,HF_wild_card,2022.2.4,Win32,59.9880024,5bdc1ff52562330001b8d841,64ce5acb97489d65b14ecc7a,64cf4bb644452db73c4ecc0c,,,,,,,decisionTrl,resources/DBN.BMP,resources/DB.BMP,Door4,0.444444444,-0.002777778,1,0,0,0.711900001,optionRight,80,3320,2,20,0,20,0,1,,,,,,,,,,,,,,,,,,,,,,,,,,,,,,,,,,,,,,,
,,,,,,,,2023-08-06_08h29.10.795,HF_wild_card,2022.2.4,Win32,59.9880024,5bdc1ff52562330001b8d841,64ce5acb97489d65b14ecc7a,64cf4bb644452db73c4ecc0c,,,,,,,decisionTrl,resources/DG.BMP,resources/DP.BMP,Door2,-0.538888889,-0.016666667,1,0,0,1.54,optionLeft,40,3360,2,21,0,21,0,1,,,,,,,,,,,,,,,,,,,,,,,,,,,,,,,,,,,,,,,
,,,,,,,,2023-08-06_08h29.10.795,HF_wild_card,2022.2.4,Win32,59.9880024,5bdc1ff52562330001b8d841,64ce5acb97489d65b14ecc7a,64cf4bb644452db73c4ecc0c,,,,,,,decisionTrl,resources/DBN.BMP,resources/DB.BMP,Door4,0.276851908,0.030555556,1,0,0,0.685400001,optionRight,60,3420,2,22,0,22,0,1,,,,,,,,,,,,,,,,,,,,,,,,,,,,,,,,,,,,,,,
,,,,,,,,2023-08-06_08h29.10.795,HF_wild_card,2022.2.4,Win32,59.9880024,5bdc1ff52562330001b8d841,64ce5acb97489d65b14ecc7a,64cf4bb644452db73c4ecc0c,,,,,,,decisionTrl,resources/DP.BMP,resources/DG.BMP,WildCard_NonEx,-0.308333333,-0.043518533,1,0,0,1.0289,optionLeft,45,3465,2,23,0,23,0,1,,,,,,,,,,,,,,,,,,,,,,,,,,,,,,,,,,,,,,,
,,,,,,,,2023-08-06_08h29.10.795,HF_wild_card,2022.2.4,Win32,59.9880024,5bdc1ff52562330001b8d841,64ce5acb97489d65b14ecc7a,64cf4bb644452db73c4ecc0c,,,,,,,ctch,resources/DG.BMP,resources/DBN.BMP,Door2,-0.299074046,-0.003703732,1,0,0,0.8624,optionLeft,20,3485,2,24,0,24,0,1,,,,,,,,,,,,,,,,,,,,,,,,,,,,,,,,,,,,,,,
,,,,,,,,2023-08-06_08h29.10.795,HF_wild_card,2022.2.4,Win32,59.9880024,5bdc1ff52562330001b8d841,64ce5acb97489d65b14ecc7a,64cf4bb644452db73c4ecc0c,,,,,,,sngl,resources/DB.BMP,resources/Empty.png,Door4,-0.340740712,-0.010185199,1,0,0,0.6794,optionLeft,60,3545,2,25,0,25,0,1,,,,,,,,,,,,,,,,,,,,,,,,,,,,,,,,,,,,,,,
,,,,,,,,2023-08-06_08h29.10.795,HF_wild_card,2022.2.4,Win32,59.9880024,5bdc1ff52562330001b8d841,64ce5acb97489d65b14ecc7a,64cf4bb644452db73c4ecc0c,,,,,,,decisionTrl,resources/DB.BMP,resources/DP.BMP,Door4,-0.474074046,-0.02129631,1,0,0,1.2247,optionLeft,60,3605,2,26,0,26,0,1,,,,,,,,,,,,,,,,,,,,,,,,,,,,,,,,,,,,,,,
,,,,,,,,2023-08-06_08h29.10.795,HF_wild_card,2022.2.4,Win32,59.9880024,5bdc1ff52562330001b8d841,64ce5acb97489d65b14ecc7a,64cf4bb644452db73c4ecc0c,,,,,,,decisionTrl,resources/DB.BMP,resources/DBN.BMP,Door4,-0.335185157,-0.045370399,1,0,0,0.823599999,optionLeft,80,3685,2,27,0,27,0,1,,,,,,,,,,,,,,,,,,,,,,,,,,,,,,,,,,,,,,,
,,,,,,,,2023-08-06_08h29.10.795,HF_wild_card,2022.2.4,Win32,59.9880024,5bdc1ff52562330001b8d841,64ce5acb97489d65b14ecc7a,64cf4bb644452db73c4ecc0c,,,,,,,decisionTrl,resources/DG.BMP,resources/DY.BMP,Door2,-0.22870369,0.000925912,1,0,0,1.2285,optionLeft,20,3705,2,28,0,28,0,1,,,,,,,,,,,,,,,,,,,,,,,,,,,,,,,,,,,,,,,
,,,,,,,,2023-08-06_08h29.10.795,HF_wild_card,2022.2.4,Win32,59.9880024,5bdc1ff52562330001b8d841,64ce5acb97489d65b14ecc7a,64cf4bb644452db73c4ecc0c,,,,,,,ctch,resources/DBN.BMP,resources/DG.BMP,Door3,-0.371296268,-0.005555556,1,0,0,1.2132,optionLeft,70,3775,2,29,0,29,0,1,,,,,,,,,,,,,,,,,,,,,,,,,,,,,,,,,,,,,,,
,,,,,,,,2023-08-06_08h29.10.795,HF_wild_card,2022.2.4,Win32,59.9880024,5bdc1ff52562330001b8d841,64ce5acb97489d65b14ecc7a,64cf4bb644452db73c4ecc0c,,,,,,,sngl,resources/DBN.BMP,resources/Empty.png,Door3,-0.309259245,0.004629601,1,0,0,0.7962,optionLeft,70,3845,2,30,0,30,0,1,,,,,,,,,,,,,,,,,,,,,,,,,,,,,,,,,,,,,,,
,,,,,,,,2023-08-06_08h29.10.795,HF_wild_card,2022.2.4,Win32,59.9880024,5bdc1ff52562330001b8d841,64ce5acb97489d65b14ecc7a,64cf4bb644452db73c4ecc0c,,,,,,,sngl,resources/DG.BMP,resources/Empty.png,Door2,-0.325,0.039814801,1,0,0,0.6463,optionLeft,20,3865,2,31,0,31,0,1,,,,,,,,,,,,,,,,,,,,,,,,,,,,,,,,,,,,,,,
,,,,,,,,2023-08-06_08h29.10.795,HF_wild_card,2022.2.4,Win32,59.9880024,5bdc1ff52562330001b8d841,64ce5acb97489d65b14ecc7a,64cf4bb644452db73c4ecc0c,,,,,,,decisionTrl,resources/DY.BMP,resources/DG.BMP,Door1,-0.401851824,0.037037023,1,0,0,0.728599999,optionLeft,30,3895,2,32,0,32,0,1,,,,,,,,,,,,,,,,,,,,,,,,,,,,,,,,,,,,,,,
,,,,,,,,2023-08-06_08h29.10.795,HF_wild_card,2022.2.4,Win32,59.9880024,5bdc1ff52562330001b8d841,64ce5acb97489d65b14ecc7a,64cf4bb644452db73c4ecc0c,,,,,,,sngl,resources/DY.BMP,resources/Empty.png,Door1,-0.25370369,0.020370356,1,0,0,0.7626,optionLeft,30,3925,2,33,0,33,0,1,,,,,,,,,,,,,,,,,,,,,,,,,,,,,,,,,,,,,,,
,,,,,,,,2023-08-06_08h29.10.795,HF_wild_card,2022.2.4,Win32,59.9880024,5bdc1ff52562330001b8d841,64ce5acb97489d65b14ecc7a,64cf4bb644452db73c4ecc0c,,,,,,,sngl,resources/Empty.png,resources/DP.BMP,WildCard_NonEx,0.526851908,-0.040740755,1,0,0,0.646,optionRight,45,3970,2,34,0,34,0,1,,,,,,,,,,,,,,,,,,,,,,,,,,,,,,,,,,,,,,,
,,,,,,,,2023-08-06_08h29.10.795,HF_wild_card,2022.2.4,Win32,59.9880024,5bdc1ff52562330001b8d841,64ce5acb97489d65b14ecc7a,64cf4bb644452db73c4ecc0c,,,,,,,sngl,resources/Empty.png,resources/DB.BMP,Door4,0.219444444,-0.00648151,1,0,0,0.630099999,optionRight,80,4050,2,35,0,35,0,1,,,,,,,,,,,,,,,,,,,,,,,,,,,,,,,,,,,,,,,
,,,,,,,,2023-08-06_08h29.10.795,HF_wild_card,2022.2.4,Win32,59.9880024,5bdc1ff52562330001b8d841,64ce5acb97489d65b14ecc7a,64cf4bb644452db73c4ecc0c,,,,,,,decisionTrl,resources/DG.BMP,resources/DY.BMP,Door2,-0.286111111,0.014814801,1,0,0,0.561099999,optionLeft,20,4070,2,36,0,36,0,1,,,,,,,,,,,,,,,,,,,,,,,,,,,,,,,,,,,,,,,
,,,,,,,,2023-08-06_08h29.10.795,HF_wild_card,2022.2.4,Win32,59.9880024,5bdc1ff52562330001b8d841,64ce5acb97489d65b14ecc7a,64cf4bb644452db73c4ecc0c,,,,,,,decisionTrl,resources/DP.BMP,resources/DBN.BMP,Door3,0.459259288,0.014814801,1,0,0,0.946200001,optionRight,70,4140,2,37,0,37,0,1,,,,,,,,,,,,,,,,,,,,,,,,,,,,,,,,,,,,,,,
,,,,,,,,2023-08-06_08h29.10.795,HF_wild_card,2022.2.4,Win32,59.9880024,5bdc1ff52562330001b8d841,64ce5acb97489d65b14ecc7a,64cf4bb644452db73c4ecc0c,,,,,,,ctch,resources/DB.BMP,resources/DY.BMP,Door4,-0.395370356,0.039814801,1,0,0,0.9967,optionLeft,60,4200,2,38,0,38,0,1,,,,,,,,,,,,,,,,,,,,,,,,,,,,,,,,,,,,,,,
,,,,,,,,2023-08-06_08h29.10.795,HF_wild_card,2022.2.4,Win32,59.9880024,5bdc1ff52562330001b8d841,64ce5acb97489d65b14ecc7a,64cf4bb644452db73c4ecc0c,,,,,,,ctch,resources/DBN.BMP,resources/DG.BMP,Door3,-0.291666667,0.035185157,1,0,0,1.295700001,optionLeft,70,4270,2,39,0,39,0,1,,,,,,,,,,,,,,,,,,,,,,,,,,,,,,,,,,,,,,,
,,,,,,,,2023-08-06_08h29.10.795,HF_wild_card,2022.2.4,Win32,59.9880024,5bdc1ff52562330001b8d841,64ce5acb97489d65b14ecc7a,64cf4bb644452db73c4ecc0c,,,,,,,decisionTrl,resources/DBN.BMP,resources/DB.BMP,Door4,0.462037065,-0.023148176,1,0,0,0.7625,optionRight,80,4350,2,40,0,40,0,1,,,,,,,,,,,,,,,,,,,,,,,,,,,,,,,,,,,,,,,
,,,,,,,,2023-08-06_08h29.10.795,HF_wild_card,2022.2.4,Win32,59.9880024,5bdc1ff52562330001b8d841,64ce5acb97489d65b14ecc7a,64cf4bb644452db73c4ecc0c,,,,,,,decisionTrl,resources/DBN.BMP,resources/DB.BMP,Door4,0.301851908,-0.036111111,1,0,0,0.8477,optionRight,60,4410,2,41,0,41,0,1,,,,,,,,,,,,,,,,,,,,,,,,,,,,,,,,,,,,,,,
,,,,,,,,2023-08-06_08h29.10.795,HF_wild_card,2022.2.4,Win32,59.9880024,5bdc1ff52562330001b8d841,64ce5acb97489d65b14ecc7a,64cf4bb644452db73c4ecc0c,,,,,,,sngl,resources/Empty.png,resources/DP.BMP,WildCard_NonEx,0.309259288,-0.047222222,1,0,0,0.6965,optionRight,55,4465,2,42,0,42,0,1,,,,,,,,,,,,,,,,,,,,,,,,,,,,,,,,,,,,,,,
,,,,,,,,2023-08-06_08h29.10.795,HF_wild_card,2022.2.4,Win32,59.9880024,5bdc1ff52562330001b8d841,64ce5acb97489d65b14ecc7a,64cf4bb644452db73c4ecc0c,,,,,,,decisionTrl,resources/DG.BMP,resources/DY.BMP,Door1,0.252777778,-0.044444444,1,0,0,1.146200001,optionRight,30,4495,2,43,0,43,0,1,,,,,,,,,,,,,,,,,,,,,,,,,,,,,,,,,,,,,,,
,,,,,,,,2023-08-06_08h29.10.795,HF_wild_card,2022.2.4,Win32,59.9880024,5bdc1ff52562330001b8d841,64ce5acb97489d65b14ecc7a,64cf4bb644452db73c4ecc0c,,,,,,,,,,,,,,,,,,,,,,,,,,1,0,1,0,1,,,,,,,,,,,,,,,,,,,,,,,,,,,,,,,,,,
,,,,,,,,2023-08-06_08h29.10.795,HF_wild_card,2022.2.4,Win32,59.9880024,5bdc1ff52562330001b8d841,64ce5acb97489d65b14ecc7a,64cf4bb644452db73c4ecc0c,,,,,,,ctch,resources/DG.BMP,resources/DBN.BMP,Door3,0.541666667,0.007407379,1,0,0,1.14,optionRight,70,4565,3,0,0,0,0,1,,,,,,,,,,,,,,,,,,,,,,,,,,,,,,,,,,,,,,,
,,,,,,,,2023-08-06_08h29.10.795,HF_wild_card,2022.2.4,Win32,59.9880024,5bdc1ff52562330001b8d841,64ce5acb97489d65b14ecc7a,64cf4bb644452db73c4ecc0c,,,,,,,decisionTrl,resources/DP.BMP,resources/DG.BMP,WildCard_NonEx,-0.240740712,0.012037023,1,0,0,0.8948,optionLeft,55,4620,3,1,0,1,0,1,,,,,,,,,,,,,,,,,,,,,,,,,,,,,,,,,,,,,,,
,,,,,,,,2023-08-06_08h29.10.795,HF_wild_card,2022.2.4,Win32,59.9880024,5bdc1ff52562330001b8d841,64ce5acb97489d65b14ecc7a,64cf4bb644452db73c4ecc0c,,,,,,,decisionTrl,resources/DP.BMP,resources/DY.BMP,Door1,0.243518575,0.029629601,1,0,0,0.729900001,optionRight,30,4650,3,2,0,2,0,1,,,,,,,,,,,,,,,,,,,,,,,,,,,,,,,,,,,,,,,
,,,,,,,,2023-08-06_08h29.10.795,HF_wild_card,2022.2.4,Win32,59.9880024,5bdc1ff52562330001b8d841,64ce5acb97489d65b14ecc7a,64cf4bb644452db73c4ecc0c,,,,,,,sngl,resources/DB.BMP,resources/Empty.png,Door4,-0.240740712,0.005555556,1,0,0,0.6285,optionLeft,80,4730,3,3,0,3,0,1,,,,,,,,,,,,,,,,,,,,,,,,,,,,,,,,,,,,,,,
,,,,,,,,2023-08-06_08h29.10.795,HF_wild_card,2022.2.4,Win32,59.9880024,5bdc1ff52562330001b8d841,64ce5acb97489d65b14ecc7a,64cf4bb644452db73c4ecc0c,,,,,,,sngl,resources/DP.BMP,resources/Empty.png,WildCard_NonEx,-0.304629601,-0.018518533,1,0,0,0.596599999,optionLeft,45,4775,3,4,0,4,0,1,,,,,,,,,,,,,,,,,,,,,,,,,,,,,,,,,,,,,,,
,,,,,,,,2023-08-06_08h29.10.795,HF_wild_card,2022.2.4,Win32,59.9880024,5bdc1ff52562330001b8d841,64ce5acb97489d65b14ecc7a,64cf4bb644452db73c4ecc0c,,,,,,,decisionTrl,resources/DG.BMP,resources/DY.BMP,Door1,0.338888889,-0.018518533,1,0,0,1.457,optionRight,30,4805,3,5,0,5,0,1,,,,,,,,,,,,,,,,,,,,,,,,,,,,,,,,,,,,,,,
,,,,,,,,2023-08-06_08h29.10.795,HF_wild_card,2022.2.4,Win32,59.9880024,5bdc1ff52562330001b8d841,64ce5acb97489d65b14ecc7a,64cf4bb644452db73c4ecc0c,,,,,,,decisionTrl,resources/DB.BMP,resources/DBN.BMP,Door4,-0.284259245,-0.078703732,1,0,0,0.6942,optionLeft,60,4865,3,6,0,6,0,1,,,,,,,,,,,,,,,,,,,,,,,,,,,,,,,,,,,,,,,
,,,,,,,,2023-08-06_08h29.10.795,HF_wild_card,2022.2.4,Win32,59.9880024,5bdc1ff52562330001b8d841,64ce5acb97489d65b14ecc7a,64cf4bb644452db73c4ecc0c,,,,,,,sngl,resources/DBN.BMP,resources/Empty.png,Door3,-0.271296268,0,1,0,0,0.6625,optionLeft,70,4935,3,7,0,7,0,1,,,,,,,,,,,,,,,,,,,,,,,,,,,,,,,,,,,,,,,
,,,,,,,,2023-08-06_08h29.10.795,HF_wild_card,2022.2.4,Win32,59.9880024,5bdc1ff52562330001b8d841,64ce5acb97489d65b14ecc7a,64cf4bb644452db73c4ecc0c,,,,,,,decisionTrl,resources/DY.BMP,resources/DG.BMP,Door1,-0.341666667,-0.000925954,1,0,0,0.863599999,optionLeft,30,4965,3,8,0,8,0,1,,,,,,,,,,,,,,,,,,,,,,,,,,,,,,,,,,,,,,,
,,,,,,,,2023-08-06_08h29.10.795,HF_wild_card,2022.2.4,Win32,59.9880024,5bdc1ff52562330001b8d841,64ce5acb97489d65b14ecc7a,64cf4bb644452db73c4ecc0c,,,,,,,decisionTrl,resources/DBN.BMP,resources/DB.BMP,Door4,0.313888889,-0.039814843,1,0,0,0.913099999,optionRight,60,5025,3,9,0,9,0,1,,,,,,,,,,,,,,,,,,,,,,,,,,,,,,,,,,,,,,,
,,,,,,,,2023-08-06_08h29.10.795,HF_wild_card,2022.2.4,Win32,59.9880024,5bdc1ff52562330001b8d841,64ce5acb97489d65b14ecc7a,64cf4bb644452db73c4ecc0c,,,,,,,decisionTrl,resources/DG.BMP,resources/DY.BMP,Door1,0.367592621,-0.016666667,1,0,0,1.4108,optionRight,30,5055,3,10,0,10,0,1,,,,,,,,,,,,,,,,,,,,,,,,,,,,,,,,,,,,,,,
,,,,,,,,2023-08-06_08h29.10.795,HF_wild_card,2022.2.4,Win32,59.9880024,5bdc1ff52562330001b8d841,64ce5acb97489d65b14ecc7a,64cf4bb644452db73c4ecc0c,,,,,,,decisionTrl,resources/DP.BMP,resources/DBN.BMP,Door3,0.326851908,-0.070370399,1,0,0,0.8959,optionRight,70,5125,3,11,0,11,0,1,,,,,,,,,,,,,,,,,,,,,,,,,,,,,,,,,,,,,,,
,,,,,,,,2023-08-06_08h29.10.795,HF_wild_card,2022.2.4,Win32,59.9880024,5bdc1ff52562330001b8d841,64ce5acb97489d65b14ecc7a,64cf4bb644452db73c4ecc0c,,,,,,,decisionTrl,resources/DBN.BMP,resources/DP.BMP,Door3,-0.355555556,0.008333333,1,0,0,0.627799999,optionLeft,70,5195,3,12,0,12,0,1,,,,,,,,,,,,,,,,,,,,,,,,,,,,,,,,,,,,,,,
,,,,,,,,2023-08-06_08h29.10.795,HF_wild_card,2022.2.4,Win32,59.9880024,5bdc1ff52562330001b8d841,64ce5acb97489d65b14ecc7a,64cf4bb644452db73c4ecc0c,,,,,,,ctch,resources/DBN.BMP,resources/DG.BMP,Door3,-0.283333333,0.025,1,0,0,0.6117,optionLeft,70,5265,3,13,0,13,0,1,,,,,,,,,,,,,,,,,,,,,,,,,,,,,,,,,,,,,,,
,,,,,,,,2023-08-06_08h29.10.795,HF_wild_card,2022.2.4,Win32,59.9880024,5bdc1ff52562330001b8d841,64ce5acb97489d65b14ecc7a,64cf4bb644452db73c4ecc0c,,,,,,,decisionTrl,resources/DP.BMP,resources/DB.BMP,Door4,0.405555556,-0.074074088,1,0,0,0.727,optionRight,80,5345,3,14,0,14,0,1,,,,,,,,,,,,,,,,,,,,,,,,,,,,,,,,,,,,,,,
,,,,,,,,2023-08-06_08h29.10.795,HF_wild_card,2022.2.4,Win32,59.9880024,5bdc1ff52562330001b8d841,64ce5acb97489d65b14ecc7a,64cf4bb644452db73c4ecc0c,,,,,,,decisionTrl,resources/DBN.BMP,resources/DB.BMP,Door3,-0.236111111,0.029629601,1,0,0,0.561,optionLeft,70,5415,3,15,0,15,0,1,,,,,,,,,,,,,,,,,,,,,,,,,,,,,,,,,,,,,,,
,,,,,,,,2023-08-06_08h29.10.795,HF_wild_card,2022.2.4,Win32,59.9880024,5bdc1ff52562330001b8d841,64ce5acb97489d65b14ecc7a,64cf4bb644452db73c4ecc0c,,,,,,,sngl,resources/Empty.png,resources/DBN.BMP,Door3,0.362037065,0.008333333,1,0,0,0.696599999,optionRight,70,5485,3,16,0,16,0,1,,,,,,,,,,,,,,,,,,,,,,,,,,,,,,,,,,,,,,,
,,,,,,,,2023-08-06_08h29.10.795,HF_wild_card,2022.2.4,Win32,59.9880024,5bdc1ff52562330001b8d841,64ce5acb97489d65b14ecc7a,64cf4bb644452db73c4ecc0c,,,,,,,sngl,resources/DG.BMP,resources/Empty.png,Door2,-0.356481467,0.004629601,1,0,0,0.5957,optionLeft,40,5525,3,17,0,17,0,1,,,,,,,,,,,,,,,,,,,,,,,,,,,,,,,,,,,,,,,
,,,,,,,,2023-08-06_08h29.10.795,HF_wild_card,2022.2.4,Win32,59.9880024,5bdc1ff52562330001b8d841,64ce5acb97489d65b14ecc7a,64cf4bb644452db73c4ecc0c,,,,,,,ctch,resources/DB.BMP,resources/DY.BMP,Door4,-0.311111111,-0.026851866,1,0,0,1.0457,optionLeft,60,5585,3,18,0,18,0,1,,,,,,,,,,,,,,,,,,,,,,,,,,,,,,,,,,,,,,,
,,,,,,,,2023-08-06_08h29.10.795,HF_wild_card,2022.2.4,Win32,59.9880024,5bdc1ff52562330001b8d841,64ce5acb97489d65b14ecc7a,64cf4bb644452db73c4ecc0c,,,,,,,decisionTrl,resources/DY.BMP,resources/DG.BMP,Door1,-0.388888889,0.048148134,1,0,0,1.324599999,optionLeft,30,5615,3,19,0,19,0,1,,,,,,,,,,,,,,,,,,,,,,,,,,,,,,,,,,,,,,,
,,,,,,,,2023-08-06_08h29.10.795,HF_wild_card,2022.2.4,Win32,59.9880024,5bdc1ff52562330001b8d841,64ce5acb97489d65b14ecc7a,64cf4bb644452db73c4ecc0c,,,,,,,sngl,resources/Empty.png,resources/DY.BMP,Door1,0.364814843,0.055555556,1,0,0,0.6792,optionRight,30,5645,3,20,0,20,0,1,,,,,,,,,,,,,,,,,,,,,,,,,,,,,,,,,,,,,,,
,,,,,,,,2023-08-06_08h29.10.795,HF_wild_card,2022.2.4,Win32,59.9880024,5bdc1ff52562330001b8d841,64ce5acb97489d65b14ecc7a,64cf4bb644452db73c4ecc0c,,,,,,,sngl,resources/Empty.png,resources/DB.BMP,Door4,0.447222222,0.011111111,1,0,0,0.6965,optionRight,60,5705,3,21,0,21,0,1,,,,,,,,,,,,,,,,,,,,,,,,,,,,,,,,,,,,,,,
,,,,,,,,2023-08-06_08h29.10.795,HF_wild_card,2022.2.4,Win32,59.9880024,5bdc1ff52562330001b8d841,64ce5acb97489d65b14ecc7a,64cf4bb644452db73c4ecc0c,,,,,,,ctch,resources/DBN.BMP,resources/DG.BMP,Door3,-0.395370356,0.066666667,1,0,0,0.6966,optionLeft,70,5775,3,22,0,22,0,1,,,,,,,,,,,,,,,,,,,,,,,,,,,,,,,,,,,,,,,
,,,,,,,,2023-08-06_08h29.10.795,HF_wild_card,2022.2.4,Win32,59.9880024,5bdc1ff52562330001b8d841,64ce5acb97489d65b14ecc7a,64cf4bb644452db73c4ecc0c,,,,,,,decisionTrl,resources/DY.BMP,resources/DG.BMP,Door1,-0.217592578,0.024074046,1,0,0,1.095,optionLeft,30,5805,3,23,0,23,0,1,,,,,,,,,,,,,,,,,,,,,,,,,,,,,,,,,,,,,,,
,,,,,,,,2023-08-06_08h29.10.795,HF_wild_card,2022.2.4,Win32,59.9880024,5bdc1ff52562330001b8d841,64ce5acb97489d65b14ecc7a,64cf4bb644452db73c4ecc0c,,,,,,,decisionTrl,resources/DG.BMP,resources/DP.BMP,WildCard_NonEx,0.513888889,-0.023148176,1,0,0,1.6607,optionRight,55,5860,3,24,0,24,0,1,,,,,,,,,,,,,,,,,,,,,,,,,,,,,,,,,,,,,,,
,,,,,,,,2023-08-06_08h29.10.795,HF_wild_card,2022.2.4,Win32,59.9880024,5bdc1ff52562330001b8d841,64ce5acb97489d65b14ecc7a,64cf4bb644452db73c4ecc0c,,,,,,,sngl,resources/Empty.png,resources/DG.BMP,Door2,0.409259288,0.056481467,1,0,0,0.6452,optionRight,20,5880,3,25,0,25,0,1,,,,,,,,,,,,,,,,,,,,,,,,,,,,,,,,,,,,,,,
,,,,,,,,2023-08-06_08h29.10.795,HF_wild_card,2022.2.4,Win32,59.9880024,5bdc1ff52562330001b8d841,64ce5acb97489d65b14ecc7a,64cf4bb644452db73c4ecc0c,,,,,,,ctch,resources/DY.BMP,resources/DB.BMP,Door4,0.386111111,-0.007407422,1,0,0,0.7438,optionRight,60,5940,3,26,0,26,0,1,,,,,,,,,,,,,,,,,,,,,,,,,,,,,,,,,,,,,,,
,,,,,,,,2023-08-06_08h29.10.795,HF_wild_card,2022.2.4,Win32,59.9880024,5bdc1ff52562330001b8d841,64ce5acb97489d65b14ecc7a,64cf4bb644452db73c4ecc0c,,,,,,,decisionTrl,resources/DG.BMP,resources/DY.BMP,Door1,0.476851908,0.052777778,1,0,0,0.7444,optionRight,30,5970,3,27,0,27,0,1,,,,,,,,,,,,,,,,,,,,,,,,,,,,,,,,,,,,,,,
,,,,,,,,2023-08-06_08h29.10.795,HF_wild_card,2022.2.4,Win32,59.9880024,5bdc1ff52562330001b8d841,64ce5acb97489d65b14ecc7a,64cf4bb644452db73c4ecc0c,,,,,,,sngl,resources/DY.BMP,resources/Empty.png,Door1,-0.352777778,-0.037962977,1,0,0,0.6107,optionLeft,30,6000,3,28,0,28,0,1,,,,,,,,,,,,,,,,,,,,,,,,,,,,,,,,,,,,,,,
,,,,,,,,2023-08-06_08h29.10.795,HF_wild_card,2022.2.4,Win32,59.9880024,5bdc1ff52562330001b8d841,64ce5acb97489d65b14ecc7a,64cf4bb644452db73c4ecc0c,,,,,,,decisionTrl,resources/DB.BMP,resources/DP.BMP,Door4,-0.262037023,-0.034259288,1,0,0,1.494,optionLeft,80,6080,3,29,0,29,0,1,,,,,,,,,,,,,,,,,,,,,,,,,,,,,,,,,,,,,,,
,,,,,,,,2023-08-06_08h29.10.795,HF_wild_card,2022.2.4,Win32,59.9880024,5bdc1ff52562330001b8d841,64ce5acb97489d65b14ecc7a,64cf4bb644452db73c4ecc0c,,,,,,,decisionTrl,resources/DBN.BMP,resources/DB.BMP,Door3,-0.325925912,0.023148134,1,0,0,0.9645,optionLeft,70,6150,3,30,0,30,0,1,,,,,,,,,,,,,,,,,,,,,,,,,,,,,,,,,,,,,,,
,,,,,,,,2023-08-06_08h29.10.795,HF_wild_card,2022.2.4,Win32,59.9880024,5bdc1ff52562330001b8d841,64ce5acb97489d65b14ecc7a,64cf4bb644452db73c4ecc0c,,,,,,,ctch,resources/DB.BMP,resources/DY.BMP,Door4,-0.335185157,0.011111111,1,0,0,0.8302,optionLeft,60,6210,3,31,0,31,0,1,,,,,,,,,,,,,,,,,,,,,,,,,,,,,,,,,,,,,,,
,,,,,,,,2023-08-06_08h29.10.795,HF_wild_card,2022.2.4,Win32,59.9880024,5bdc1ff52562330001b8d841,64ce5acb97489d65b14ecc7a,64cf4bb644452db73c4ecc0c,,,,,,,decisionTrl,resources/DB.BMP,resources/DBN.BMP,Door3,0.418518575,-0.030555556,1,0,0,0.9136,optionRight,70,6280,3,32,0,32,0,1,,,,,,,,,,,,,,,,,,,,,,,,,,,,,,,,,,,,,,,
,,,,,,,,2023-08-06_08h29.10.795,HF_wild_card,2022.2.4,Win32,59.9880024,5bdc1ff52562330001b8d841,64ce5acb97489d65b14ecc7a,64cf4bb644452db73c4ecc0c,,,,,,,decisionTrl,resources/DBN.BMP,resources/DB.BMP,Door3,-0.275925912,0.025,1,0,0,0.6117,optionLeft,70,6350,3,33,0,33,0,1,,,,,,,,,,,,,,,,,,,,,,,,,,,,,,,,,,,,,,,
,,,,,,,,2023-08-06_08h29.10.795,HF_wild_card,2022.2.4,Win32,59.9880024,5bdc1ff52562330001b8d841,64ce5acb97489d65b14ecc7a,64cf4bb644452db73c4ecc0c,,,,,,,decisionTrl,resources/DY.BMP,resources/DP.BMP,Door1,-0.376851824,0.031481467,1,0,0,0.8465,optionLeft,30,6380,3,34,0,34,0,1,,,,,,,,,,,,,,,,,,,,,,,,,,,,,,,,,,,,,,,
,,,,,,,,2023-08-06_08h29.10.795,HF_wild_card,2022.2.4,Win32,59.9880024,5bdc1ff52562330001b8d841,64ce5acb97489d65b14ecc7a,64cf4bb644452db73c4ecc0c,,,,,,,sngl,resources/Empty.png,resources/DP.BMP,WildCard_NonEx,0.363888889,-0.054629644,1,0,0,0.7135,optionRight,55,6435,3,35,0,35,0,1,,,,,,,,,,,,,,,,,,,,,,,,,,,,,,,,,,,,,,,
,,,,,,,,2023-08-06_08h29.10.795,HF_wild_card,2022.2.4,Win32,59.9880024,5bdc1ff52562330001b8d841,64ce5acb97489d65b14ecc7a,64cf4bb644452db73c4ecc0c,,,,,,,decisionTrl,resources/DB.BMP,resources/DBN.BMP,Door4,-0.16851849,0.012962935,1,0,0,0.711299999,optionLeft,60,6495,3,36,0,36,0,1,,,,,,,,,,,,,,,,,,,,,,,,,,,,,,,,,,,,,,,
,,,,,,,,2023-08-06_08h29.10.795,HF_wild_card,2022.2.4,Win32,59.9880024,5bdc1ff52562330001b8d841,64ce5acb97489d65b14ecc7a,64cf4bb644452db73c4ecc0c,,,,,,,decisionTrl,resources/DB.BMP,resources/DBN.BMP,Door4,-0.354629601,-0.008333333,1,0,0,0.6273,optionLeft,60,6555,3,37,0,37,0,1,,,,,,,,,,,,,,,,,,,,,,,,,,,,,,,,,,,,,,,
,,,,,,,,2023-08-06_08h29.10.795,HF_wild_card,2022.2.4,Win32,59.9880024,5bdc1ff52562330001b8d841,64ce5acb97489d65b14ecc7a,64cf4bb644452db73c4ecc0c,,,,,,,ctch,resources/DG.BMP,resources/DBN.BMP,Door3,0.365740797,0.01851849,1,0,0,1.0128,optionRight,70,6625,3,38,0,38,0,1,,,,,,,,,,,,,,,,,,,,,,,,,,,,,,,,,,,,,,,
,,,,,,,,2023-08-06_08h29.10.795,HF_wild_card,2022.2.4,Win32,59.9880024,5bdc1ff52562330001b8d841,64ce5acb97489d65b14ecc7a,64cf4bb644452db73c4ecc0c,,,,,,,sngl,resources/DP.BMP,resources/Empty.png,WildCard_NonEx,-0.363888889,0.032407379,1,0,0,0.663,optionLeft,55,6680,3,39,0,39,0,1,,,,,,,,,,,,,,,,,,,,,,,,,,,,,,,,,,,,,,,
,,,,,,,,2023-08-06_08h29.10.795,HF_wild_card,2022.2.4,Win32,59.9880024,5bdc1ff52562330001b8d841,64ce5acb97489d65b14ecc7a,64cf4bb644452db73c4ecc0c,,,,,,,sngl,resources/Empty.png,resources/DP.BMP,WildCard_NonEx,0.319444444,0.014814801,1,0,0,0.5798,optionRight,45,6725,3,40,0,40,0,1,,,,,,,,,,,,,,,,,,,,,,,,,,,,,,,,,,,,,,,
,,,,,,,,2023-08-06_08h29.10.795,HF_wild_card,2022.2.4,Win32,59.9880024,5bdc1ff52562330001b8d841,64ce5acb97489d65b14ecc7a,64cf4bb644452db73c4ecc0c,,,,,,,ctch,resources/DY.BMP,resources/DB.BMP,Door1,-0.337962935,-0.055555556,1,0,0,0.679299999,optionLeft,30,6755,3,41,0,41,0,1,,,,,,,,,,,,,,,,,,,,,,,,,,,,,,,,,,,,,,,
,,,,,,,,2023-08-06_08h29.10.795,HF_wild_card,2022.2.4,Win32,59.9880024,5bdc1ff52562330001b8d841,64ce5acb97489d65b14ecc7a,64cf4bb644452db73c4ecc0c,,,,,,,decisionTrl,resources/DG.BMP,resources/DY.BMP,Door1,0.237963019,-0.010185199,1,0,0,0.7461,optionRight,30,6785,3,42,0,42,0,1,,,,,,,,,,,,,,,,,,,,,,,,,,,,,,,,,,,,,,,
,,,,,,,,2023-08-06_08h29.10.795,HF_wild_card,2022.2.4,Win32,59.9880024,5bdc1ff52562330001b8d841,64ce5acb97489d65b14ecc7a,64cf4bb644452db73c4ecc0c,,,,,,,decisionTrl,resources/DY.BMP,resources/DG.BMP,Door1,-0.248148134,0.007407379,1,0,0,0.8457,optionLeft,30,6815,3,43,0,43,0,1,,,,,,,,,,,,,,,,,,,,,,,,,,,,,,,,,,,,,,,
,,,,,,,,2023-08-06_08h29.10.795,HF_wild_card,2022.2.4,Win32,59.9880024,5bdc1ff52562330001b8d841,64ce5acb97489d65b14ecc7a,64cf4bb644452db73c4ecc0c,,,,,,,,,,,,,,,,,,,,,,,,,,2,0,2,0,1,,,,,,,,,,,,,,,,,,,,,,,,,,,,,,,,,,
,,,,,,,,2023-08-06_08h29.10.795,HF_wild_card,2022.2.4,Win32,59.9880024,5bdc1ff52562330001b8d841,64ce5acb97489d65b14ecc7a,64cf4bb644452db73c4ecc0c,,,,,,,decisionTrl,resources/DR.BMP,resources/DB.BMP,WildCard_Ex,-0.351851824,0.151851845,1,0,0,1.4551,optionLeft,5,6820,4,0,0,0,0,1,,,,,,,,,,,,,,,,,,,,,,,,,,,,,,,,,,,,,,,
,,,,,,,,2023-08-06_08h29.10.795,HF_wild_card,2022.2.4,Win32,59.9880024,5bdc1ff52562330001b8d841,64ce5acb97489d65b14ecc7a,64cf4bb644452db73c4ecc0c,,,,,,,decisionTrl,resources/DBN.BMP,resources/DB.BMP,Door4,0.33148151,0.022222222,1,0,0,0.6805,optionRight,80,6900,4,1,0,1,0,1,,,,,,,,,,,,,,,,,,,,,,,,,,,,,,,,,,,,,,,
,,,,,,,,2023-08-06_08h29.10.795,HF_wild_card,2022.2.4,Win32,59.9880024,5bdc1ff52562330001b8d841,64ce5acb97489d65b14ecc7a,64cf4bb644452db73c4ecc0c,,,,,,,decisionTrl,resources/DB.BMP,resources/DBN.BMP,Door4,-0.25370369,-0.000925954,1,0,0,0.645900001,optionLeft,60,6960,4,2,0,2,0,1,,,,,,,,,,,,,,,,,,,,,,,,,,,,,,,,,,,,,,,
,,,,,,,,2023-08-06_08h29.10.795,HF_wild_card,2022.2.4,Win32,59.9880024,5bdc1ff52562330001b8d841,64ce5acb97489d65b14ecc7a,64cf4bb644452db73c4ecc0c,,,,,,,sngl,resources/DB.BMP,resources/Empty.png,Door4,-0.297222222,0.023148134,1,0,0,0.627400001,optionLeft,60,7020,4,3,0,3,0,1,,,,,,,,,,,,,,,,,,,,,,,,,,,,,,,,,,,,,,,
,,,,,,,,2023-08-06_08h29.10.795,HF_wild_card,2022.2.4,Win32,59.9880024,5bdc1ff52562330001b8d841,64ce5acb97489d65b14ecc7a,64cf4bb644452db73c4ecc0c,,,,,,,ctch,resources/DG.BMP,resources/DBN.BMP,Door3,0.354629686,-0.001851866,1,0,0,0.7106,optionRight,70,7090,4,4,0,4,0,1,,,,,,,,,,,,,,,,,,,,,,,,,,,,,,,,,,,,,,,
,,,,,,,,2023-08-06_08h29.10.795,HF_wild_card,2022.2.4,Win32,59.9880024,5bdc1ff52562330001b8d841,64ce5acb97489d65b14ecc7a,64cf4bb644452db73c4ecc0c,,,,,,,sngl,resources/Empty.png,resources/DB.BMP,Door4,0.318518575,-0.039814843,1,0,0,0.7457,optionRight,80,7170,4,5,0,5,0,1,,,,,,,,,,,,,,,,,,,,,,,,,,,,,,,,,,,,,,,
,,,,,,,,2023-08-06_08h29.10.795,HF_wild_card,2022.2.4,Win32,59.9880024,5bdc1ff52562330001b8d841,64ce5acb97489d65b14ecc7a,64cf4bb644452db73c4ecc0c,,,,,,,ctch,resources/DBN.BMP,resources/DG.BMP,Door3,-0.304629601,0.02870369,1,0,0,0.6448,optionLeft,70,7240,4,6,0,6,0,1,,,,,,,,,,,,,,,,,,,,,,,,,,,,,,,,,,,,,,,
,,,,,,,,2023-08-06_08h29.10.795,HF_wild_card,2022.2.4,Win32,59.9880024,5bdc1ff52562330001b8d841,64ce5acb97489d65b14ecc7a,64cf4bb644452db73c4ecc0c,,,,,,,decisionTrl,resources/DR.BMP,resources/DY.BMP,Door1,0.347222222,-0.05,1,0,0,1.0593,optionRight,30,7270,4,7,0,7,0,1,,,,,,,,,,,,,,,,,,,,,,,,,,,,,,,,,,,,,,,
,,,,,,,,2023-08-06_08h29.10.795,HF_wild_card,2022.2.4,Win32,59.9880024,5bdc1ff52562330001b8d841,64ce5acb97489d65b14ecc7a,64cf4bb644452db73c4ecc0c,,,,,,,decisionTrl,resources/DBN.BMP,resources/DB.BMP,Door3,-0.3,0.046296268,1,0,0,0.646799999,optionLeft,70,7340,4,8,0,8,0,1,,,,,,,,,,,,,,,,,,,,,,,,,,,,,,,,,,,,,,,
,,,,,,,,2023-08-06_08h29.10.795,HF_wild_card,2022.2.4,Win32,59.9880024,5bdc1ff52562330001b8d841,64ce5acb97489d65b14ecc7a,64cf4bb644452db73c4ecc0c,,,,,,,decisionTrl,resources/DB.BMP,resources/DBN.BMP,Door3,0.265740797,0.026851824,1,0,0,0.729900001,optionRight,70,7410,4,9,0,9,0,1,,,,,,,,,,,,,,,,,,,,,,,,,,,,,,,,,,,,,,,
,,,,,,,,2023-08-06_08h29.10.795,HF_wild_card,2022.2.4,Win32,59.9880024,5bdc1ff52562330001b8d841,64ce5acb97489d65b14ecc7a,64cf4bb644452db73c4ecc0c,,,,,,,decisionTrl,resources/DG.BMP,resources/DR.BMP,Door2,-0.337962935,0.051851824,1,0,0,1.0298,optionLeft,40,7450,4,10,0,10,0,1,,,,,,,,,,,,,,,,,,,,,,,,,,,,,,,,,,,,,,,
,,,,,,,,2023-08-06_08h29.10.795,HF_wild_card,2022.2.4,Win32,59.9880024,5bdc1ff52562330001b8d841,64ce5acb97489d65b14ecc7a,64cf4bb644452db73c4ecc0c,,,,,,,decisionTrl,resources/DBN.BMP,resources/DR.BMP,Door3,-0.311111111,0.027777778,1,0,0,0.7285,optionLeft,70,7520,4,11,0,11,0,1,,,,,,,,,,,,,,,,,,,,,,,,,,,,,,,,,,,,,,,
,,,,,,,,2023-08-06_08h29.10.795,HF_wild_card,2022.2.4,Win32,59.9880024,5bdc1ff52562330001b8d841,64ce5acb97489d65b14ecc7a,64cf4bb644452db73c4ecc0c,,,,,,,ctch,resources/DY.BMP,resources/DB.BMP,Door4,0.521296353,-0.062037065,1,0,0,1.0283,optionRight,60,7580,4,12,0,12,0,1,,,,,,,,,,,,,,,,,,,,,,,,,,,,,,,,,,,,,,,
,,,,,,,,2023-08-06_08h29.10.795,HF_wild_card,2022.2.4,Win32,59.9880024,5bdc1ff52562330001b8d841,64ce5acb97489d65b14ecc7a,64cf4bb644452db73c4ecc0c,,,,,,,sngl,resources/Empty.png,resources/DG.BMP,Door2,0.308333333,-0.007407422,1,0,0,0.6951,optionRight,40,7620,4,13,0,13,0,1,,,,,,,,,,,,,,,,,,,,,,,,,,,,,,,,,,,,,,,
,,,,,,,,2023-08-06_08h29.10.795,HF_wild_card,2022.2.4,Win32,59.9880024,5bdc1ff52562330001b8d841,64ce5acb97489d65b14ecc7a,64cf4bb644452db73c4ecc0c,,,,,,,sngl,resources/DG.BMP,resources/Empty.png,Door2,-0.32870369,0.00370369,1,0,0,0.611599999,optionLeft,20,7640,4,14,0,14,0,1,,,,,,,,,,,,,,,,,,,,,,,,,,,,,,,,,,,,,,,
,,,,,,,,2023-08-06_08h29.10.795,HF_wild_card,2022.2.4,Win32,59.9880024,5bdc1ff52562330001b8d841,64ce5acb97489d65b14ecc7a,64cf4bb644452db73c4ecc0c,,,,,,,decisionTrl,resources/DR.BMP,resources/DBN.BMP,Door3,0.273148176,-0.028703732,1,0,0,0.596,optionRight,70,7710,4,15,0,15,0,1,,,,,,,,,,,,,,,,,,,,,,,,,,,,,,,,,,,,,,,
,,,,,,,,2023-08-06_08h29.10.795,HF_wild_card,2022.2.4,Win32,59.9880024,5bdc1ff52562330001b8d841,64ce5acb97489d65b14ecc7a,64cf4bb644452db73c4ecc0c,,,,,,,decisionTrl,resources/DY.BMP,resources/DG.BMP,Door1,-0.323148134,0.001851824,1,0,0,0.8705,optionLeft,30,7740,4,16,0,16,0,1,,,,,,,,,,,,,,,,,,,,,,,,,,,,,,,,,,,,,,,
,,,,,,,,2023-08-06_08h29.10.795,HF_wild_card,2022.2.4,Win32,59.9880024,5bdc1ff52562330001b8d841,64ce5acb97489d65b14ecc7a,64cf4bb644452db73c4ecc0c,,,,,,,ctch,resources/DB.BMP,resources/DY.BMP,Door4,-0.459259245,0.019444444,1,0,0,0.8241,optionLeft,80,7820,4,17,0,17,0,1,,,,,,,,,,,,,,,,,,,,,,,,,,,,,,,,,,,,,,,
,,,,,,,,2023-08-06_08h29.10.795,HF_wild_card,2022.2.4,Win32,59.9880024,5bdc1ff52562330001b8d841,64ce5acb97489d65b14ecc7a,64cf4bb644452db73c4ecc0c,,,,,,,decisionTrl,resources/DBN.BMP,resources/DB.BMP,Door4,0.396296353,0.010185157,1,0,0,0.5785,optionRight,60,7880,4,18,0,18,0,1,,,,,,,,,,,,,,,,,,,,,,,,,,,,,,,,,,,,,,,
,,,,,,,,2023-08-06_08h29.10.795,HF_wild_card,2022.2.4,Win32,59.9880024,5bdc1ff52562330001b8d841,64ce5acb97489d65b14ecc7a,64cf4bb644452db73c4ecc0c,,,,,,,decisionTrl,resources/DG.BMP,resources/DY.BMP,Door1,0.318518575,-0.037962977,1,0,0,0.8439,optionRight,30,7910,4,19,0,19,0,1,,,,,,,,,,,,,,,,,,,,,,,,,,,,,,,,,,,,,,,
,,,,,,,,2023-08-06_08h29.10.795,HF_wild_card,2022.2.4,Win32,59.9880024,5bdc1ff52562330001b8d841,64ce5acb97489d65b14ecc7a,64cf4bb644452db73c4ecc0c,,,,,,,sngl,resources/Empty.png,resources/DR.BMP,WildCard_Ex,0.301851908,-0.012962977,1,0,0,0.8781,optionRight,5,7915,4,20,0,20,0,1,,,,,,,,,,,,,,,,,,,,,,,,,,,,,,,,,,,,,,,
,,,,,,,,2023-08-06_08h29.10.795,HF_wild_card,2022.2.4,Win32,59.9880024,5bdc1ff52562330001b8d841,64ce5acb97489d65b14ecc7a,64cf4bb644452db73c4ecc0c,,,,,,,decisionTrl,resources/DB.BMP,resources/DBN.BMP,Door3,0.405555556,-0.037962977,1,0,0,1.1946,optionRight,70,7985,4,21,0,21,0,1,,,,,,,,,,,,,,,,,,,,,,,,,,,,,,,,,,,,,,,
,,,,,,,,2023-08-06_08h29.10.795,HF_wild_card,2022.2.4,Win32,59.9880024,5bdc1ff52562330001b8d841,64ce5acb97489d65b14ecc7a,64cf4bb644452db73c4ecc0c,,,,,,,decisionTrl,resources/DBN.BMP,resources/DB.BMP,Door3,-0.339814801,0.017592578,1,0,0,0.6292,optionLeft,70,8055,4,22,0,22,0,1,,,,,,,,,,,,,,,,,,,,,,,,,,,,,,,,,,,,,,,
,,,,,,,,2023-08-06_08h29.10.795,HF_wild_card,2022.2.4,Win32,59.9880024,5bdc1ff52562330001b8d841,64ce5acb97489d65b14ecc7a,64cf4bb644452db73c4ecc0c,,,,,,,decisionTrl,resources/DG.BMP,resources/DY.BMP,Door1,0.292592621,-0.012037065,1,0,0,0.7808,optionRight,30,8085,4,23,0,23,0,1,,,,,,,,,,,,,,,,,,,,,,,,,,,,,,,,,,,,,,,
,,,,,,,,2023-08-06_08h29.10.795,HF_wild_card,2022.2.4,Win32,59.9880024,5bdc1ff52562330001b8d841,64ce5acb97489d65b14ecc7a,64cf4bb644452db73c4ecc0c,,,,,,,sngl,resources/Empty.png,resources/DY.BMP,Door1,0.368518575,0.006481467,1,0,0,0.6621,optionRight,30,8115,4,24,0,24,0,1,,,,,,,,,,,,,,,,,,,,,,,,,,,,,,,,,,,,,,,
,,,,,,,,2023-08-06_08h29.10.795,HF_wild_card,2022.2.4,Win32,59.9880024,5bdc1ff52562330001b8d841,64ce5acb97489d65b14ecc7a,64cf4bb644452db73c4ecc0c,,,,,,,decisionTrl,resources/DG.BMP,resources/DY.BMP,Door1,0.315740797,-0.032407422,1,0,0,0.777900001,optionRight,30,8145,4,25,0,25,0,1,,,,,,,,,,,,,,,,,,,,,,,,,,,,,,,,,,,,,,,
,,,,,,,,2023-08-06_08h29.10.795,HF_wild_card,2022.2.4,Win32,59.9880024,5bdc1ff52562330001b8d841,64ce5acb97489d65b14ecc7a,64cf4bb644452db73c4ecc0c,,,,,,,sngl,resources/Empty.png,resources/DR.BMP,WildCard_Ex,0.335185242,-0.002777778,1,0,0,0.894,optionRight,95,8240,4,26,0,26,0,1,,,,,,,,,,,,,,,,,,,,,,,,,,,,,,,,,,,,,,,
,,,,,,,,2023-08-06_08h29.10.795,HF_wild_card,2022.2.4,Win32,59.9880024,5bdc1ff52562330001b8d841,64ce5acb97489d65b14ecc7a,64cf4bb644452db73c4ecc0c,,,,,,,decisionTrl,resources/DY.BMP,resources/DG.BMP,Door1,-0.24351849,0.024074046,1,0,0,0.7947,optionLeft,30,8270,4,27,0,27,0,1,,,,,,,,,,,,,,,,,,,,,,,,,,,,,,,,,,,,,,,
,,,,,,,,2023-08-06_08h29.10.795,HF_wild_card,2022.2.4,Win32,59.9880024,5bdc1ff52562330001b8d841,64ce5acb97489d65b14ecc7a,64cf4bb644452db73c4ecc0c,,,,,,,sngl,resources/DBN.BMP,resources/Empty.png,Door3,-0.307407379,0.020370356,1,0,0,0.529,optionLeft,70,8340,4,28,0,28,0,1,,,,,,,,,,,,,,,,,,,,,,,,,,,,,,,,,,,,,,,
,,,,,,,,2023-08-06_08h29.10.795,HF_wild_card,2022.2.4,Win32,59.9880024,5bdc1ff52562330001b8d841,64ce5acb97489d65b14ecc7a,64cf4bb644452db73c4ecc0c,,,,,,,decisionTrl,resources/DG.BMP,resources/DY.BMP,Door2,-0.349074046,0.041666667,1,0,0,0.4777,optionLeft,20,8360,4,29,0,29,0,1,,,,,,,,,,,,,,,,,,,,,,,,,,,,,,,,,,,,,,,
,,,,,,,,2023-08-06_08h29.10.795,HF_wild_card,2022.2.4,Win32,59.9880024,5bdc1ff52562330001b8d841,64ce5acb97489d65b14ecc7a,64cf4bb644452db73c4ecc0c,,,,,,,ctch,resources/DBN.BMP,resources/DG.BMP,Door3,-0.323148134,0.040740712,1,0,0,0.563400001,optionLeft,70,8430,4,30,0,30,0,1,,,,,,,,,,,,,,,,,,,,,,,,,,,,,,,,,,,,,,,
,,,,,,,,2023-08-06_08h29.10.795,HF_wild_card,2022.2.4,Win32,59.9880024,5bdc1ff52562330001b8d841,64ce5acb97489d65b14ecc7a,64cf4bb644452db73c4ecc0c,,,,,,,decisionTrl,resources/DR.BMP,resources/DG.BMP,Door2,0.365740797,-0.003703732,1,0,0,0.8467,optionRight,40,8470,4,31,0,31,0,1,,,,,,,,,,,,,,,,,,,,,,,,,,,,,,,,,,,,,,,
,,,,,,,,2023-08-06_08h29.10.795,HF_wild_card,2022.2.4,Win32,59.9880024,5bdc1ff52562330001b8d841,64ce5acb97489d65b14ecc7a,64cf4bb644452db73c4ecc0c,,,,,,,decisionTrl,resources/DY.BMP,resources/DG.BMP,Door1,-0.315740712,-0.012037065,1,0,0,0.595700001,optionLeft,30,8500,4,32,0,32,0,1,,,,,,,,,,,,,,,,,,,,,,,,,,,,,,,,,,,,,,,
,,,,,,,,2023-08-06_08h29.10.795,HF_wild_card,2022.2.4,Win32,59.9880024,5bdc1ff52562330001b8d841,64ce5acb97489d65b14ecc7a,64cf4bb644452db73c4ecc0c,,,,,,,sngl,resources/DY.BMP,resources/Empty.png,Door1,-0.458333333,0.059259245,1,0,0,0.6298,optionLeft,30,8530,4,33,0,33,0,1,,,,,,,,,,,,,,,,,,,,,,,,,,,,,,,,,,,,,,,
,,,,,,,,2023-08-06_08h29.10.795,HF_wild_card,2022.2.4,Win32,59.9880024,5bdc1ff52562330001b8d841,64ce5acb97489d65b14ecc7a,64cf4bb644452db73c4ecc0c,,,,,,,ctch,resources/DB.BMP,resources/DY.BMP,Door4,-0.342592578,0.061111111,1,0,0,1.0638,optionLeft,80,8610,4,34,0,34,0,1,,,,,,,,,,,,,,,,,,,,,,,,,,,,,,,,,,,,,,,
,,,,,,,,2023-08-06_08h29.10.795,HF_wild_card,2022.2.4,Win32,59.9880024,5bdc1ff52562330001b8d841,64ce5acb97489d65b14ecc7a,64cf4bb644452db73c4ecc0c,,,,,,,ctch,resources/DG.BMP,resources/DBN.BMP,Door3,0.325,0.039814801,1,0,0,0.8294,optionRight,70,8680,4,35,0,35,0,1,,,,,,,,,,,,,,,,,,,,,,,,,,,,,,,,,,,,,,,
,,,,,,,,2023-08-06_08h29.10.795,HF_wild_card,2022.2.4,Win32,59.9880024,5bdc1ff52562330001b8d841,64ce5acb97489d65b14ecc7a,64cf4bb644452db73c4ecc0c,,,,,,,decisionTrl,resources/DB.BMP,resources/DR.BMP,Door4,-0.325,-0.002777778,1,0,0,0.612700001,optionLeft,80,8760,4,36,0,36,0,1,,,,,,,,,,,,,,,,,,,,,,,,,,,,,,,,,,,,,,,
,,,,,,,,2023-08-06_08h29.10.795,HF_wild_card,2022.2.4,Win32,59.9880024,5bdc1ff52562330001b8d841,64ce5acb97489d65b14ecc7a,64cf4bb644452db73c4ecc0c,,,,,,,sngl,resources/Empty.png,resources/DBN.BMP,Door3,0.246296353,0,1,0,0,0.628799999,optionRight,70,8830,4,37,0,37,0,1,,,,,,,,,,,,,,,,,,,,,,,,,,,,,,,,,,,,,,,
,,,,,,,,2023-08-06_08h29.10.795,HF_wild_card,2022.2.4,Win32,59.9880024,5bdc1ff52562330001b8d841,64ce5acb97489d65b14ecc7a,64cf4bb644452db73c4ecc0c,,,,,,,decisionTrl,resources/DY.BMP,resources/DG.BMP,Door1,-0.309259245,0.032407379,1,0,0,0.6782,optionLeft,30,8860,4,38,0,38,0,1,,,,,,,,,,,,,,,,,,,,,,,,,,,,,,,,,,,,,,,
,,,,,,,,2023-08-06_08h29.10.795,HF_wild_card,2022.2.4,Win32,59.9880024,5bdc1ff52562330001b8d841,64ce5acb97489d65b14ecc7a,64cf4bb644452db73c4ecc0c,,,,,,,decisionTrl,resources/DB.BMP,resources/DBN.BMP,Door3,0.35,-0.000925954,1,0,0,0.6125,optionRight,70,8930,4,39,0,39,0,1,,,,,,,,,,,,,,,,,,,,,,,,,,,,,,,,,,,,,,,
,,,,,,,,2023-08-06_08h29.10.795,HF_wild_card,2022.2.4,Win32,59.9880024,5bdc1ff52562330001b8d841,64ce5acb97489d65b14ecc7a,64cf4bb644452db73c4ecc0c,,,,,,,sngl,resources/DR.BMP,resources/Empty.png,WildCard_Ex,-0.294444444,0.040740712,1,0,0,0.5299,optionLeft,5,8935,4,40,0,40,0,1,,,,,,,,,,,,,,,,,,,,,,,,,,,,,,,,,,,,,,,
,,,,,,,,2023-08-06_08h29.10.795,HF_wild_card,2022.2.4,Win32,59.9880024,5bdc1ff52562330001b8d841,64ce5acb97489d65b14ecc7a,64cf4bb644452db73c4ecc0c,,,,,,,decisionTrl,resources/DY.BMP,resources/DR.BMP,Door1,-0.387962935,0.020370356,1,0,0,0.811700001,optionLeft,30,8965,4,41,0,41,0,1,,,,,,,,,,,,,,,,,,,,,,,,,,,,,,,,,,,,,,,
,,,,,,,,2023-08-06_08h29.10.795,HF_wild_card,2022.2.4,Win32,59.9880024,5bdc1ff52562330001b8d841,64ce5acb97489d65b14ecc7a,64cf4bb644452db73c4ecc0c,,,,,,,sngl,resources/DR.BMP,resources/Empty.png,WildCard_Ex,-0.249074046,0.069444444,1,0,0,0.4778,optionLeft,95,9060,4,42,0,42,0,1,,,,,,,,,,,,,,,,,,,,,,,,,,,,,,,,,,,,,,,
,,,,,,,,2023-08-06_08h29.10.795,HF_wild_card,2022.2.4,Win32,59.9880024,5bdc1ff52562330001b8d841,64ce5acb97489d65b14ecc7a,64cf4bb644452db73c4ecc0c,,,,,,,ctch,resources/DY.BMP,resources/DB.BMP,Door4,0.340740797,-0.05648151,1,0,0,0.9442,optionRight,80,9140,4,43,0,43,0,1,,,,,,,,,,,,,,,,,,,,,,,,,,,,,,,,,,,,,,,
,,,,,,,,2023-08-06_08h29.10.795,HF_wild_card,2022.2.4,Win32,59.9880024,5bdc1ff52562330001b8d841,64ce5acb97489d65b14ecc7a,64cf4bb644452db73c4ecc0c,,,,,,,,,,,,,,,,,,,,,,,,,,3,0,3,0,1,,,,,,,,,,,,,,,,,,,,,,,,,,,,,,,,,,
,,,,,,,,2023-08-06_08h29.10.795,HF_wild_card,2022.2.4,Win32,59.9880024,5bdc1ff52562330001b8d841,64ce5acb97489d65b14ecc7a,64cf4bb644452db73c4ecc0c,,,,,,,decisionTrl,resources/DB.BMP,resources/DBN.BMP,Door3,0.325,-0.009259288,1,0,0,0.8556,optionRight,70,9210,5,0,0,0,0,1,,,,,,,,,,,,,,,,,,,,,,,,,,,,,,,,,,,,,,,
,,,,,,,,2023-08-06_08h29.10.795,HF_wild_card,2022.2.4,Win32,59.9880024,5bdc1ff52562330001b8d841,64ce5acb97489d65b14ecc7a,64cf4bb644452db73c4ecc0c,,,,,,,sngl,resources/Empty.png,resources/DR.BMP,WildCard_Ex,0.229629686,-0.003703732,1,0,0,0.6281,optionRight,95,9305,5,1,0,1,0,1,,,,,,,,,,,,,,,,,,,,,,,,,,,,,,,,,,,,,,,
,,,,,,,,2023-08-06_08h29.10.795,HF_wild_card,2022.2.4,Win32,59.9880024,5bdc1ff52562330001b8d841,64ce5acb97489d65b14ecc7a,64cf4bb644452db73c4ecc0c,,,,,,,sngl,resources/DBN.BMP,resources/Empty.png,Door3,-0.3,0.039814801,1,0,0,0.632,optionLeft,70,9375,5,2,0,2,0,1,,,,,,,,,,,,,,,,,,,,,,,,,,,,,,,,,,,,,,,
,,,,,,,,2023-08-06_08h29.10.795,HF_wild_card,2022.2.4,Win32,59.9880024,5bdc1ff52562330001b8d841,64ce5acb97489d65b14ecc7a,64cf4bb644452db73c4ecc0c,,,,,,,decisionTrl,resources/DR.BMP,resources/DG.BMP,WildCard_Ex,-0.357407379,-0.003703732,1,0,0,0.8107,optionLeft,5,9380,5,3,0,3,0,1,,,,,,,,,,,,,,,,,,,,,,,,,,,,,,,,,,,,,,,
,,,,,,,,2023-08-06_08h29.10.795,HF_wild_card,2022.2.4,Win32,59.9880024,5bdc1ff52562330001b8d841,64ce5acb97489d65b14ecc7a,64cf4bb644452db73c4ecc0c,,,,,,,sngl,resources/Empty.png,resources/DR.BMP,WildCard_Ex,0.332407464,0.011111111,1,0,0,0.7113,optionRight,5,9385,5,4,0,4,0,1,,,,,,,,,,,,,,,,,,,,,,,,,,,,,,,,,,,,,,,
,,,,,,,,2023-08-06_08h29.10.795,HF_wild_card,2022.2.4,Win32,59.9880024,5bdc1ff52562330001b8d841,64ce5acb97489d65b14ecc7a,64cf4bb644452db73c4ecc0c,,,,,,,sngl,resources/DR.BMP,resources/Empty.png,WildCard_Ex,-0.274074046,0.002777778,1,0,0,0.6458,optionLeft,5,9390,5,5,0,5,0,1,,,,,,,,,,,,,,,,,,,,,,,,,,,,,,,,,,,,,,,
,,,,,,,,2023-08-06_08h29.10.795,HF_wild_card,2022.2.4,Win32,59.9880024,5bdc1ff52562330001b8d841,64ce5acb97489d65b14ecc7a,64cf4bb644452db73c4ecc0c,,,,,,,ctch,resources/DY.BMP,resources/DB.BMP,Door4,0.329629686,0.007407379,1,0,0,0.9457,optionRight,60,9450,5,6,0,6,0,1,,,,,,,,,,,,,,,,,,,,,,,,,,,,,,,,,,,,,,,
,,,,,,,,2023-08-06_08h29.10.795,HF_wild_card,2022.2.4,Win32,59.9880024,5bdc1ff52562330001b8d841,64ce5acb97489d65b14ecc7a,64cf4bb644452db73c4ecc0c,,,,,,,decisionTrl,resources/DBN.BMP,resources/DR.BMP,Door3,-0.371296268,0.032407379,1,0,0,1.063400001,optionLeft,70,9520,5,7,0,7,0,1,,,,,,,,,,,,,,,,,,,,,,,,,,,,,,,,,,,,,,,
,,,,,,,,2023-08-06_08h29.10.795,HF_wild_card,2022.2.4,Win32,59.9880024,5bdc1ff52562330001b8d841,64ce5acb97489d65b14ecc7a,64cf4bb644452db73c4ecc0c,,,,,,,decisionTrl,resources/DY.BMP,resources/DG.BMP,Door1,-0.190740712,0,1,0,0,0.794599999,optionLeft,30,9550,5,8,0,8,0,1,,,,,,,,,,,,,,,,,,,,,,,,,,,,,,,,,,,,,,,
,,,,,,,,2023-08-06_08h29.10.795,HF_wild_card,2022.2.4,Win32,59.9880024,5bdc1ff52562330001b8d841,64ce5acb97489d65b14ecc7a,64cf4bb644452db73c4ecc0c,,,,,,,decisionTrl,resources/DBN.BMP,resources/DB.BMP,Door4,0.282407464,-0.037962977,1,0,0,0.8462,optionRight,80,9630,5,9,0,9,0,1,,,,,,,,,,,,,,,,,,,,,,,,,,,,,,,,,,,,,,,
,,,,,,,,2023-08-06_08h29.10.795,HF_wild_card,2022.2.4,Win32,59.9880024,5bdc1ff52562330001b8d841,64ce5acb97489d65b14ecc7a,64cf4bb644452db73c4ecc0c,,,,,,,decisionTrl,resources/DG.BMP,resources/DR.BMP,Door2,-0.21851849,0.019444444,1,0,0,1.0125,optionLeft,20,9650,5,10,0,10,0,1,,,,,,,,,,,,,,,,,,,,,,,,,,,,,,,,,,,,,,,
,,,,,,,,2023-08-06_08h29.10.795,HF_wild_card,2022.2.4,Win32,59.9880024,5bdc1ff52562330001b8d841,64ce5acb97489d65b14ecc7a,64cf4bb644452db73c4ecc0c,,,,,,,decisionTrl,resources/DR.BMP,resources/DB.BMP,Door4,0.351851908,-0.012962977,1,0,0,0.9795,optionRight,60,9710,5,11,0,11,0,1,,,,,,,,,,,,,,,,,,,,,,,,,,,,,,,,,,,,,,,
,,,,,,,,2023-08-06_08h29.10.795,HF_wild_card,2022.2.4,Win32,59.9880024,5bdc1ff52562330001b8d841,64ce5acb97489d65b14ecc7a,64cf4bb644452db73c4ecc0c,,,,,,,decisionTrl,resources/DG.BMP,resources/DY.BMP,Door1,0.465740797,-0.066666667,1,0,0,1.258099999,optionRight,30,9740,5,12,0,12,0,1,,,,,,,,,,,,,,,,,,,,,,,,,,,,,,,,,,,,,,,
,,,,,,,,2023-08-06_08h29.10.795,HF_wild_card,2022.2.4,Win32,59.9880024,5bdc1ff52562330001b8d841,64ce5acb97489d65b14ecc7a,64cf4bb644452db73c4ecc0c,,,,,,,sngl,resources/Empty.png,resources/DB.BMP,Door4,0.437963019,0.031481467,1,0,0,1.0752,optionRight,60,9800,5,13,0,13,0,1,,,,,,,,,,,,,,,,,,,,,,,,,,,,,,,,,,,,,,,
,,,,,,,,2023-08-06_08h29.10.795,HF_wild_card,2022.2.4,Win32,59.9880024,5bdc1ff52562330001b8d841,64ce5acb97489d65b14ecc7a,64cf4bb644452db73c4ecc0c,,,,,,,decisionTrl,resources/DB.BMP,resources/DR.BMP,Door4,-0.231481467,0.040740712,1,0,0,0.8404,optionLeft,60,9860,5,14,0,14,0,1,,,,,,,,,,,,,,,,,,,,,,,,,,,,,,,,,,,,,,,
,,,,,,,,2023-08-06_08h29.10.795,HF_wild_card,2022.2.4,Win32,59.9880024,5bdc1ff52562330001b8d841,64ce5acb97489d65b14ecc7a,64cf4bb644452db73c4ecc0c,,,,,,,ctch,resources/DB.BMP,resources/DY.BMP,Door4,-0.395370356,0.025925912,1,0,0,0.879599999,optionLeft,60,9920,5,15,0,15,0,1,,,,,,,,,,,,,,,,,,,,,,,,,,,,,,,,,,,,,,,
,,,,,,,,2023-08-06_08h29.10.795,HF_wild_card,2022.2.4,Win32,59.9880024,5bdc1ff52562330001b8d841,64ce5acb97489d65b14ecc7a,64cf4bb644452db73c4ecc0c,,,,,,,decisionTrl,resources/DBN.BMP,resources/DB.BMP,Door4,0.358333333,0.00370369,1,0,0,0.8794,optionRight,60,9980,5,16,0,16,0,1,,,,,,,,,,,,,,,,,,,,,,,,,,,,,,,,,,,,,,,
,,,,,,,,2023-08-06_08h29.10.795,HF_wild_card,2022.2.4,Win32,59.9880024,5bdc1ff52562330001b8d841,64ce5acb97489d65b14ecc7a,64cf4bb644452db73c4ecc0c,,,,,,,decisionTrl,resources/DY.BMP,resources/DG.BMP,Door1,-0.325925912,-0.012962977,1,0,0,0.6462,optionLeft,30,10010,5,17,0,17,0,1,,,,,,,,,,,,,,,,,,,,,,,,,,,,,,,,,,,,,,,
,,,,,,,,2023-08-06_08h29.10.795,HF_wild_card,2022.2.4,Win32,59.9880024,5bdc1ff52562330001b8d841,64ce5acb97489d65b14ecc7a,64cf4bb644452db73c4ecc0c,,,,,,,sngl,resources/DB.BMP,resources/Empty.png,Door4,-0.331481467,0.045370356,1,0,0,0.695299999,optionLeft,80,10090,5,18,0,18,0,1,,,,,,,,,,,,,,,,,,,,,,,,,,,,,,,,,,,,,,,
,,,,,,,,2023-08-06_08h29.10.795,HF_wild_card,2022.2.4,Win32,59.9880024,5bdc1ff52562330001b8d841,64ce5acb97489d65b14ecc7a,64cf4bb644452db73c4ecc0c,,,,,,,decisionTrl,resources/DR.BMP,resources/DBN.BMP,Door3,0.335185242,0.016666667,1,0,0,1.1733,optionRight,70,10160,5,19,0,19,0,1,,,,,,,,,,,,,,,,,,,,,,,,,,,,,,,,,,,,,,,
,,,,,,,,2023-08-06_08h29.10.795,HF_wild_card,2022.2.4,Win32,59.9880024,5bdc1ff52562330001b8d841,64ce5acb97489d65b14ecc7a,64cf4bb644452db73c4ecc0c,,,,,,,decisionTrl,resources/DBN.BMP,resources/DB.BMP,Door4,0.337037065,-0.055555556,1,0,0,0.7611,optionRight,60,10220,5,20,0,20,0,1,,,,,,,,,,,,,,,,,,,,,,,,,,,,,,,,,,,,,,,
,,,,,,,,2023-08-06_08h29.10.795,HF_wild_card,2022.2.4,Win32,59.9880024,5bdc1ff52562330001b8d841,64ce5acb97489d65b14ecc7a,64cf4bb644452db73c4ecc0c,,,,,,,sngl,resources/Empty.png,resources/DBN.BMP,Door3,0.212037065,-0.020370399,1,0,0,0.712299999,optionRight,70,10290,5,21,0,21,0,1,,,,,,,,,,,,,,,,,,,,,,,,,,,,,,,,,,,,,,,
,,,,,,,,2023-08-06_08h29.10.795,HF_wild_card,2022.2.4,Win32,59.9880024,5bdc1ff52562330001b8d841,64ce5acb97489d65b14ecc7a,64cf4bb644452db73c4ecc0c,,,,,,,sngl,resources/DR.BMP,resources/Empty.png,WildCard_Ex,-0.339814801,-0.025,1,0,0,0.6628,optionLeft,95,10385,5,22,0,22,0,1,,,,,,,,,,,,,,,,,,,,,,,,,,,,,,,,,,,,,,,
,,,,,,,,2023-08-06_08h29.10.795,HF_wild_card,2022.2.4,Win32,59.9880024,5bdc1ff52562330001b8d841,64ce5acb97489d65b14ecc7a,64cf4bb644452db73c4ecc0c,,,,,,,decisionTrl,resources/DY.BMP,resources/DG.BMP,Door2,0.284259288,-0.042592621,1,0,0,0.6788,optionRight,20,10405,5,23,0,23,0,1,,,,,,,,,,,,,,,,,,,,,,,,,,,,,,,,,,,,,,,
,,,,,,,,2023-08-06_08h29.10.795,HF_wild_card,2022.2.4,Win32,59.9880024,5bdc1ff52562330001b8d841,64ce5acb97489d65b14ecc7a,64cf4bb644452db73c4ecc0c,,,,,,,ctch,resources/DB.BMP,resources/DY.BMP,Door4,-0.387962935,-0.054629644,1,0,0,0.6099,optionLeft,80,10485,5,24,0,24,0,1,,,,,,,,,,,,,,,,,,,,,,,,,,,,,,,,,,,,,,,
,,,,,,,,2023-08-06_08h29.10.795,HF_wild_card,2022.2.4,Win32,59.9880024,5bdc1ff52562330001b8d841,64ce5acb97489d65b14ecc7a,64cf4bb644452db73c4ecc0c,,,,,,,ctch,resources/DG.BMP,resources/DBN.BMP,Door3,0.324074131,-0.007407422,1,0,0,0.6962,optionRight,70,10555,5,25,0,25,0,1,,,,,,,,,,,,,,,,,,,,,,,,,,,,,,,,,,,,,,,
,,,,,,,,2023-08-06_08h29.10.795,HF_wild_card,2022.2.4,Win32,59.9880024,5bdc1ff52562330001b8d841,64ce5acb97489d65b14ecc7a,64cf4bb644452db73c4ecc0c,,,,,,,decisionTrl,resources/DB.BMP,resources/DBN.BMP,Door3,0.321296353,-0.014814843,1,0,0,0.7632,optionRight,70,10625,5,26,0,26,0,1,,,,,,,,,,,,,,,,,,,,,,,,,,,,,,,,,,,,,,,
,,,,,,,,2023-08-06_08h29.10.795,HF_wild_card,2022.2.4,Win32,59.9880024,5bdc1ff52562330001b8d841,64ce5acb97489d65b14ecc7a,64cf4bb644452db73c4ecc0c,,,,,,,decisionTrl,resources/DG.BMP,resources/DY.BMP,Door1,0.285185242,-0.030555556,1,0,0,0.8304,optionRight,30,10655,5,27,0,27,0,1,,,,,,,,,,,,,,,,,,,,,,,,,,,,,,,,,,,,,,,
,,,,,,,,2023-08-06_08h29.10.795,HF_wild_card,2022.2.4,Win32,59.9880024,5bdc1ff52562330001b8d841,64ce5acb97489d65b14ecc7a,64cf4bb644452db73c4ecc0c,,,,,,,decisionTrl,resources/DB.BMP,resources/DBN.BMP,Door3,0.252777778,-0.03148151,1,0,0,0.8626,optionRight,70,10725,5,28,0,28,0,1,,,,,,,,,,,,,,,,,,,,,,,,,,,,,,,,,,,,,,,
,,,,,,,,2023-08-06_08h29.10.795,HF_wild_card,2022.2.4,Win32,59.9880024,5bdc1ff52562330001b8d841,64ce5acb97489d65b14ecc7a,64cf4bb644452db73c4ecc0c,,,,,,,sngl,resources/DG.BMP,resources/Empty.png,Door2,-0.409259245,0.007407379,1,0,0,0.5961,optionLeft,40,10765,5,29,0,29,0,1,,,,,,,,,,,,,,,,,,,,,,,,,,,,,,,,,,,,,,,
,,,,,,,,2023-08-06_08h29.10.795,HF_wild_card,2022.2.4,Win32,59.9880024,5bdc1ff52562330001b8d841,64ce5acb97489d65b14ecc7a,64cf4bb644452db73c4ecc0c,,,,,,,decisionTrl,resources/DG.BMP,resources/DY.BMP,Door1,0.252777778,-0.062037065,1,0,0,0.7629,optionRight,30,10795,5,30,0,30,0,1,,,,,,,,,,,,,,,,,,,,,,,,,,,,,,,,,,,,,,,
,,,,,,,,2023-08-06_08h29.10.795,HF_wild_card,2022.2.4,Win32,59.9880024,5bdc1ff52562330001b8d841,64ce5acb97489d65b14ecc7a,64cf4bb644452db73c4ecc0c,,,,,,,decisionTrl,resources/DR.BMP,resources/DY.BMP,Door1,0.382407464,-0.102777778,1,0,0,0.947,optionRight,30,10825,5,31,0,31,0,1,,,,,,,,,,,,,,,,,,,,,,,,,,,,,,,,,,,,,,,
,,,,,,,,2023-08-06_08h29.10.795,HF_wild_card,2022.2.4,Win32,59.9880024,5bdc1ff52562330001b8d841,64ce5acb97489d65b14ecc7a,64cf4bb644452db73c4ecc0c,,,,,,,ctch,resources/DBN.BMP,resources/DG.BMP,Door3,-0.341666667,-0.009259288,1,0,0,0.9297,optionLeft,70,10895,5,32,0,32,0,1,,,,,,,,,,,,,,,,,,,,,,,,,,,,,,,,,,,,,,,
,,,,,,,,2023-08-06_08h29.10.795,HF_wild_card,2022.2.4,Win32,59.9880024,5bdc1ff52562330001b8d841,64ce5acb97489d65b14ecc7a,64cf4bb644452db73c4ecc0c,,,,,,,decisionTrl,resources/DY.BMP,resources/DG.BMP,Door1,-0.304629601,-0.036111111,1,0,0,0.8478,optionLeft,30,10925,5,33,0,33,0,1,,,,,,,,,,,,,,,,,,,,,,,,,,,,,,,,,,,,,,,
,,,,,,,,2023-08-06_08h29.10.795,HF_wild_card,2022.2.4,Win32,59.9880024,5bdc1ff52562330001b8d841,64ce5acb97489d65b14ecc7a,64cf4bb644452db73c4ecc0c,,,,,,,ctch,resources/DG.BMP,resources/DBN.BMP,Door3,0.386111111,-0.02129631,1,0,0,0.663,optionRight,70,10995,5,34,0,34,0,1,,,,,,,,,,,,,,,,,,,,,,,,,,,,,,,,,,,,,,,
,,,,,,,,2023-08-06_08h29.10.795,HF_wild_card,2022.2.4,Win32,59.9880024,5bdc1ff52562330001b8d841,64ce5acb97489d65b14ecc7a,64cf4bb644452db73c4ecc0c,,,,,,,ctch,resources/DY.BMP,resources/DB.BMP,Door4,0.332407464,-0.033333333,1,0,0,0.745299999,optionRight,80,11075,5,35,0,35,0,1,,,,,,,,,,,,,,,,,,,,,,,,,,,,,,,,,,,,,,,
,,,,,,,,2023-08-06_08h29.10.795,HF_wild_card,2022.2.4,Win32,59.9880024,5bdc1ff52562330001b8d841,64ce5acb97489d65b14ecc7a,64cf4bb644452db73c4ecc0c,,,,,,,decisionTrl,resources/DBN.BMP,resources/DB.BMP,Door4,0.336111111,-0.077777778,1,0,0,0.6648,optionRight,80,11155,5,36,0,36,0,1,,,,,,,,,,,,,,,,,,,,,,,,,,,,,,,,,,,,,,,
,,,,,,,,2023-08-06_08h29.10.795,HF_wild_card,2022.2.4,Win32,59.9880024,5bdc1ff52562330001b8d841,64ce5acb97489d65b14ecc7a,64cf4bb644452db73c4ecc0c,,,,,,,decisionTrl,resources/DG.BMP,resources/DY.BMP,Door1,0.327777778,-0.016666667,1,0,0,0.828599999,optionRight,30,11185,5,37,0,37,0,1,,,,,,,,,,,,,,,,,,,,,,,,,,,,,,,,,,,,,,,
,,,,,,,,2023-08-06_08h29.10.795,HF_wild_card,2022.2.4,Win32,59.9880024,5bdc1ff52562330001b8d841,64ce5acb97489d65b14ecc7a,64cf4bb644452db73c4ecc0c,,,,,,,sngl,resources/Empty.png,resources/DG.BMP,Door2,0.359259288,-0.030555556,1,0,0,0.679099999,optionRight,20,11205,5,38,0,38,0,1,,,,,,,,,,,,,,,,,,,,,,,,,,,,,,,,,,,,,,,
,,,,,,,,2023-08-06_08h29.10.795,HF_wild_card,2022.2.4,Win32,59.9880024,5bdc1ff52562330001b8d841,64ce5acb97489d65b14ecc7a,64cf4bb644452db73c4ecc0c,,,,,,,ctch,resources/DBN.BMP,resources/DG.BMP,Door3,-0.461111111,0.012037023,1,0,0,0.878900001,optionLeft,70,11275,5,39,0,39,0,1,,,,,,,,,,,,,,,,,,,,,,,,,,,,,,,,,,,,,,,
,,,,,,,,2023-08-06_08h29.10.795,HF_wild_card,2022.2.4,Win32,59.9880024,5bdc1ff52562330001b8d841,64ce5acb97489d65b14ecc7a,64cf4bb644452db73c4ecc0c,,,,,,,sngl,resources/DY.BMP,resources/Empty.png,Door1,-0.339814801,-0.007407422,1,0,0,0.7287,optionLeft,30,11305,5,40,0,40,0,1,,,,,,,,,,,,,,,,,,,,,,,,,,,,,,,,,,,,,,,
,,,,,,,,2023-08-06_08h29.10.795,HF_wild_card,2022.2.4,Win32,59.9880024,5bdc1ff52562330001b8d841,64ce5acb97489d65b14ecc7a,64cf4bb644452db73c4ecc0c,,,,,,,decisionTrl,resources/DB.BMP,resources/DBN.BMP,Door3,0.365740797,-0.002777778,1,0,0,0.6959,optionRight,70,11375,5,41,0,41,0,1,,,,,,,,,,,,,,,,,,,,,,,,,,,,,,,,,,,,,,,
,,,,,,,,2023-08-06_08h29.10.795,HF_wild_card,2022.2.4,Win32,59.9880024,5bdc1ff52562330001b8d841,64ce5acb97489d65b14ecc7a,64cf4bb644452db73c4ecc0c,,,,,,,sngl,resources/Empty.png,resources/DY.BMP,Door1,0.315740797,-0.018518533,1,0,0,0.6779,optionRight,30,11405,5,42,0,42,0,1,,,,,,,,,,,,,,,,,,,,,,,,,,,,,,,,,,,,,,,
,,,,,,,,2023-08-06_08h29.10.795,HF_wild_card,2022.2.4,Win32,59.9880024,5bdc1ff52562330001b8d841,64ce5acb97489d65b14ecc7a,64cf4bb644452db73c4ecc0c,,,,,,,decisionTrl,resources/DY.BMP,resources/DR.BMP,Door1,-0.374074046,0.063888889,1,0,0,0.778099999,optionLeft,30,11435,5,43,0,43,0,1,,,,,,,,,,,,,,,,,,,,,,,,,,,,,,,,,,,,,,,
,,,,,,,,2023-08-06_08h29.10.795,HF_wild_card,2022.2.4,Win32,59.9880024,5bdc1ff52562330001b8d841,64ce5acb97489d65b14ecc7a,64cf4bb644452db73c4ecc0c,,,,,,,,,,,,,,,,,,,,,,,,,,4,0,4,0,1,,,,,,,,,,,,,,,,,,,,,,,,,,,,,,,,,,
,,,,,,,,2023-08-06_08h29.10.795,HF_wild_card,2022.2.4,Win32,59.9880024,5bdc1ff52562330001b8d841,64ce5acb97489d65b14ecc7a,64cf4bb644452db73c4ecc0c,,,,,,,sngl,resources/DG.BMP,resources/Empty.png,Door2,-0.279629601,-0.02129631,1,0,0,0.6737,optionLeft,20,11455,6,0,0,0,0,1,,,,,,,,,,,,,,,,,,,,,,,,,,,,,,,,,,,,,,,
,,,,,,,,2023-08-06_08h29.10.795,HF_wild_card,2022.2.4,Win32,59.9880024,5bdc1ff52562330001b8d841,64ce5acb97489d65b14ecc7a,64cf4bb644452db73c4ecc0c,,,,,,,decisionTrl,resources/DR.BMP,resources/DY.BMP,Door1,0.261111111,-0.038888889,1,0,0,0.6945,optionRight,30,11485,6,1,0,1,0,1,,,,,,,,,,,,,,,,,,,,,,,,,,,,,,,,,,,,,,,
,,,,,,,,2023-08-06_08h29.10.795,HF_wild_card,2022.2.4,Win32,59.9880024,5bdc1ff52562330001b8d841,64ce5acb97489d65b14ecc7a,64cf4bb644452db73c4ecc0c,,,,,,,ctch,resources/DBN.BMP,resources/DG.BMP,Door3,-0.145370314,0.008333333,1,0,0,0.8284,optionLeft,70,11555,6,2,0,2,0,1,,,,,,,,,,,,,,,,,,,,,,,,,,,,,,,,,,,,,,,
,,,,,,,,2023-08-06_08h29.10.795,HF_wild_card,2022.2.4,Win32,59.9880024,5bdc1ff52562330001b8d841,64ce5acb97489d65b14ecc7a,64cf4bb644452db73c4ecc0c,,,,,,,decisionTrl,resources/DR.BMP,resources/DB.BMP,Door4,0.260185242,-0.034259288,1,0,0,0.5973,optionRight,80,11635,6,3,0,3,0,1,,,,,,,,,,,,,,,,,,,,,,,,,,,,,,,,,,,,,,,
,,,,,,,,2023-08-06_08h29.10.795,HF_wild_card,2022.2.4,Win32,59.9880024,5bdc1ff52562330001b8d841,64ce5acb97489d65b14ecc7a,64cf4bb644452db73c4ecc0c,,,,,,,ctch,resources/DB.BMP,resources/DY.BMP,Door4,-0.269444444,0.019444444,1,0,0,0.631,optionLeft,60,11695,6,4,0,4,0,1,,,,,,,,,,,,,,,,,,,,,,,,,,,,,,,,,,,,,,,
,,,,,,,,2023-08-06_08h29.10.795,HF_wild_card,2022.2.4,Win32,59.9880024,5bdc1ff52562330001b8d841,64ce5acb97489d65b14ecc7a,64cf4bb644452db73c4ecc0c,,,,,,,decisionTrl,resources/DG.BMP,resources/DY.BMP,Door1,0.267592621,-0.036111111,1,0,0,0.8629,optionRight,30,11725,6,5,0,5,0,1,,,,,,,,,,,,,,,,,,,,,,,,,,,,,,,,,,,,,,,
,,,,,,,,2023-08-06_08h29.10.795,HF_wild_card,2022.2.4,Win32,59.9880024,5bdc1ff52562330001b8d841,64ce5acb97489d65b14ecc7a,64cf4bb644452db73c4ecc0c,,,,,,,decisionTrl,resources/DB.BMP,resources/DBN.BMP,Door4,-0.35,0.00370369,1,0,0,1.1585,optionLeft,60,11785,6,6,0,6,0,1,,,,,,,,,,,,,,,,,,,,,,,,,,,,,,,,,,,,,,,
,,,,,,,,2023-08-06_08h29.10.795,HF_wild_card,2022.2.4,Win32,59.9880024,5bdc1ff52562330001b8d841,64ce5acb97489d65b14ecc7a,64cf4bb644452db73c4ecc0c,,,,,,,ctch,resources/DG.BMP,resources/DBN.BMP,Door3,0.297222222,0.001851824,1,0,0,0.6795,optionRight,70,11855,6,7,0,7,0,1,,,,,,,,,,,,,,,,,,,,,,,,,,,,,,,,,,,,,,,
,,,,,,,,2023-08-06_08h29.10.795,HF_wild_card,2022.2.4,Win32,59.9880024,5bdc1ff52562330001b8d841,64ce5acb97489d65b14ecc7a,64cf4bb644452db73c4ecc0c,,,,,,,decisionTrl,resources/DBN.BMP,resources/DB.BMP,Door4,0.348148176,-0.026851866,1,0,0,0.7136,optionRight,80,11935,6,8,0,8,0,1,,,,,,,,,,,,,,,,,,,,,,,,,,,,,,,,,,,,,,,
,,,,,,,,2023-08-06_08h29.10.795,HF_wild_card,2022.2.4,Win32,59.9880024,5bdc1ff52562330001b8d841,64ce5acb97489d65b14ecc7a,64cf4bb644452db73c4ecc0c,,,,,,,decisionTrl,resources/DBN.BMP,resources/DB.BMP,Door4,0.229629686,-0.012037065,1,0,0,0.679599999,optionRight,80,12015,6,9,0,9,0,1,,,,,,,,,,,,,,,,,,,,,,,,,,,,,,,,,,,,,,,
,,,,,,,,2023-08-06_08h29.10.795,HF_wild_card,2022.2.4,Win32,59.9880024,5bdc1ff52562330001b8d841,64ce5acb97489d65b14ecc7a,64cf4bb644452db73c4ecc0c,,,,,,,ctch,resources/DBN.BMP,resources/DG.BMP,Door3,-0.216666667,0.006481467,1,0,0,0.861400001,optionLeft,70,12085,6,10,0,10,0,1,,,,,,,,,,,,,,,,,,,,,,,,,,,,,,,,,,,,,,,
,,,,,,,,2023-08-06_08h29.10.795,HF_wild_card,2022.2.4,Win32,59.9880024,5bdc1ff52562330001b8d841,64ce5acb97489d65b14ecc7a,64cf4bb644452db73c4ecc0c,,,,,,,decisionTrl,resources/DR.BMP,resources/DBN.BMP,Door3,0.348148176,0.013888889,1,0,0,0.745400001,optionRight,70,12155,6,11,0,11,0,1,,,,,,,,,,,,,,,,,,,,,,,,,,,,,,,,,,,,,,,
,,,,,,,,2023-08-06_08h29.10.795,HF_wild_card,2022.2.4,Win32,59.9880024,5bdc1ff52562330001b8d841,64ce5acb97489d65b14ecc7a,64cf4bb644452db73c4ecc0c,,,,,,,decisionTrl,resources/DG.BMP,resources/DY.BMP,Door1,0.280555556,-0.035185199,1,0,0,0.9794,optionRight,30,12185,6,12,0,12,0,1,,,,,,,,,,,,,,,,,,,,,,,,,,,,,,,,,,,,,,,
,,,,,,,,2023-08-06_08h29.10.795,HF_wild_card,2022.2.4,Win32,59.9880024,5bdc1ff52562330001b8d841,64ce5acb97489d65b14ecc7a,64cf4bb644452db73c4ecc0c,,,,,,,sngl,resources/DB.BMP,resources/Empty.png,Door4,-0.275925912,-0.030555556,1,0,0,0.6453,optionLeft,60,12245,6,13,0,13,0,1,,,,,,,,,,,,,,,,,,,,,,,,,,,,,,,,,,,,,,,
,,,,,,,,2023-08-06_08h29.10.795,HF_wild_card,2022.2.4,Win32,59.9880024,5bdc1ff52562330001b8d841,64ce5acb97489d65b14ecc7a,64cf4bb644452db73c4ecc0c,,,,,,,decisionTrl,resources/DY.BMP,resources/DR.BMP,Door1,-0.275,-0.026851866,1,0,0,0.8395,optionLeft,30,12275,6,14,0,14,0,1,,,,,,,,,,,,,,,,,,,,,,,,,,,,,,,,,,,,,,,
,,,,,,,,2023-08-06_08h29.10.795,HF_wild_card,2022.2.4,Win32,59.9880024,5bdc1ff52562330001b8d841,64ce5acb97489d65b14ecc7a,64cf4bb644452db73c4ecc0c,,,,,,,decisionTrl,resources/DBN.BMP,resources/DB.BMP,Door4,0.391666667,-0.054629644,1,0,0,0.7627,optionRight,60,12335,6,15,0,15,0,1,,,,,,,,,,,,,,,,,,,,,,,,,,,,,,,,,,,,,,,
,,,,,,,,2023-08-06_08h29.10.795,HF_wild_card,2022.2.4,Win32,59.9880024,5bdc1ff52562330001b8d841,64ce5acb97489d65b14ecc7a,64cf4bb644452db73c4ecc0c,,,,,,,decisionTrl,resources/DB.BMP,resources/DR.BMP,Door4,-0.235185157,-0.016666667,1,0,0,0.629,optionLeft,60,12395,6,16,0,16,0,1,,,,,,,,,,,,,,,,,,,,,,,,,,,,,,,,,,,,,,,
,,,,,,,,2023-08-06_08h29.10.795,HF_wild_card,2022.2.4,Win32,59.9880024,5bdc1ff52562330001b8d841,64ce5acb97489d65b14ecc7a,64cf4bb644452db73c4ecc0c,,,,,,,sngl,resources/DR.BMP,resources/Empty.png,WildCard_Ex,-0.276851824,-0.069444444,1,0,0,0.6279,optionLeft,5,12400,6,17,0,17,0,1,,,,,,,,,,,,,,,,,,,,,,,,,,,,,,,,,,,,,,,
,,,,,,,,2023-08-06_08h29.10.795,HF_wild_card,2022.2.4,Win32,59.9880024,5bdc1ff52562330001b8d841,64ce5acb97489d65b14ecc7a,64cf4bb644452db73c4ecc0c,,,,,,,decisionTrl,resources/DG.BMP,resources/DY.BMP,Door1,0.266666667,-0.045370399,1,0,0,0.8816,optionRight,30,12430,6,18,0,18,0,1,,,,,,,,,,,,,,,,,,,,,,,,,,,,,,,,,,,,,,,
,,,,,,,,2023-08-06_08h29.10.795,HF_wild_card,2022.2.4,Win32,59.9880024,5bdc1ff52562330001b8d841,64ce5acb97489d65b14ecc7a,64cf4bb644452db73c4ecc0c,,,,,,,decisionTrl,resources/DY.BMP,resources/DG.BMP,Door1,-0.215740712,-0.028703732,1,0,0,0.6118,optionLeft,30,12460,6,19,0,19,0,1,,,,,,,,,,,,,,,,,,,,,,,,,,,,,,,,,,,,,,,
,,,,,,,,2023-08-06_08h29.10.795,HF_wild_card,2022.2.4,Win32,59.9880024,5bdc1ff52562330001b8d841,64ce5acb97489d65b14ecc7a,64cf4bb644452db73c4ecc0c,,,,,,,sngl,resources/Empty.png,resources/DBN.BMP,Door3,0.318518575,0.020370356,1,0,0,0.6456,optionRight,70,12530,6,20,0,20,0,1,,,,,,,,,,,,,,,,,,,,,,,,,,,,,,,,,,,,,,,
,,,,,,,,2023-08-06_08h29.10.795,HF_wild_card,2022.2.4,Win32,59.9880024,5bdc1ff52562330001b8d841,64ce5acb97489d65b14ecc7a,64cf4bb644452db73c4ecc0c,,,,,,,decisionTrl,resources/DY.BMP,resources/DG.BMP,Door1,-0.165740712,0.023148134,1,0,0,0.5967,optionLeft,30,12560,6,21,0,21,0,1,,,,,,,,,,,,,,,,,,,,,,,,,,,,,,,,,,,,,,,
,,,,,,,,2023-08-06_08h29.10.795,HF_wild_card,2022.2.4,Win32,59.9880024,5bdc1ff52562330001b8d841,64ce5acb97489d65b14ecc7a,64cf4bb644452db73c4ecc0c,,,,,,,sngl,resources/DBN.BMP,resources/Empty.png,Door3,-0.244444444,0.044444444,1,0,0,0.679299999,optionLeft,70,12630,6,22,0,22,0,1,,,,,,,,,,,,,,,,,,,,,,,,,,,,,,,,,,,,,,,
,,,,,,,,2023-08-06_08h29.10.795,HF_wild_card,2022.2.4,Win32,59.9880024,5bdc1ff52562330001b8d841,64ce5acb97489d65b14ecc7a,64cf4bb644452db73c4ecc0c,,,,,,,sngl,resources/DY.BMP,resources/Empty.png,Door1,-0.300925912,0.019444444,1,0,0,0.7128,optionLeft,30,12660,6,23,0,23,0,1,,,,,,,,,,,,,,,,,,,,,,,,,,,,,,,,,,,,,,,
,,,,,,,,2023-08-06_08h29.10.795,HF_wild_card,2022.2.4,Win32,59.9880024,5bdc1ff52562330001b8d841,64ce5acb97489d65b14ecc7a,64cf4bb644452db73c4ecc0c,,,,,,,sngl,resources/Empty.png,resources/DY.BMP,Door1,0.320370399,-0.001851866,1,0,0,0.6967,optionRight,30,12690,6,24,0,24,0,1,,,,,,,,,,,,,,,,,,,,,,,,,,,,,,,,,,,,,,,
,,,,,,,,2023-08-06_08h29.10.795,HF_wild_card,2022.2.4,Win32,59.9880024,5bdc1ff52562330001b8d841,64ce5acb97489d65b14ecc7a,64cf4bb644452db73c4ecc0c,,,,,,,decisionTrl,resources/DG.BMP,resources/DY.BMP,Door1,0.398148176,-0.064814843,1,0,0,0.795299999,optionRight,30,12720,6,25,0,25,0,1,,,,,,,,,,,,,,,,,,,,,,,,,,,,,,,,,,,,,,,
,,,,,,,,2023-08-06_08h29.10.795,HF_wild_card,2022.2.4,Win32,59.9880024,5bdc1ff52562330001b8d841,64ce5acb97489d65b14ecc7a,64cf4bb644452db73c4ecc0c,,,,,,,decisionTrl,resources/DB.BMP,resources/DBN.BMP,Door4,-0.471296268,0.022222222,1,0,0,1.0281,optionLeft,60,12780,6,26,0,26,0,1,,,,,,,,,,,,,,,,,,,,,,,,,,,,,,,,,,,,,,,
,,,,,,,,2023-08-06_08h29.10.795,HF_wild_card,2022.2.4,Win32,59.9880024,5bdc1ff52562330001b8d841,64ce5acb97489d65b14ecc7a,64cf4bb644452db73c4ecc0c,,,,,,,sngl,resources/Empty.png,resources/DB.BMP,Door4,0.192592621,0.002777778,1,0,0,0.5457,optionRight,80,12860,6,27,0,27,0,1,,,,,,,,,,,,,,,,,,,,,,,,,,,,,,,,,,,,,,,
,,,,,,,,2023-08-06_08h29.10.795,HF_wild_card,2022.2.4,Win32,59.9880024,5bdc1ff52562330001b8d841,64ce5acb97489d65b14ecc7a,64cf4bb644452db73c4ecc0c,,,,,,,sngl,resources/DR.BMP,resources/Empty.png,WildCard_Ex,-0.154629601,0.007407379,1,0,0,0.7296,optionLeft,95,12955,6,28,0,28,0,1,,,,,,,,,,,,,,,,,,,,,,,,,,,,,,,,,,,,,,,
,,,,,,,,2023-08-06_08h29.10.795,HF_wild_card,2022.2.4,Win32,59.9880024,5bdc1ff52562330001b8d841,64ce5acb97489d65b14ecc7a,64cf4bb644452db73c4ecc0c,,,,,,,decisionTrl,resources/DG.BMP,resources/DR.BMP,WildCard_Ex,0.161111111,-0.016666667,1,0,0,0.7613,optionRight,95,13050,6,29,0,29,0,1,,,,,,,,,,,,,,,,,,,,,,,,,,,,,,,,,,,,,,,
,,,,,,,,2023-08-06_08h29.10.795,HF_wild_card,2022.2.4,Win32,59.9880024,5bdc1ff52562330001b8d841,64ce5acb97489d65b14ecc7a,64cf4bb644452db73c4ecc0c,,,,,,,decisionTrl,resources/DB.BMP,resources/DBN.BMP,Door3,0.240740797,0.011111111,1,0,0,1.578299999,optionRight,70,13120,6,30,0,30,0,1,,,,,,,,,,,,,,,,,,,,,,,,,,,,,,,,,,,,,,,
,,,,,,,,2023-08-06_08h29.10.795,HF_wild_card,2022.2.4,Win32,59.9880024,5bdc1ff52562330001b8d841,64ce5acb97489d65b14ecc7a,64cf4bb644452db73c4ecc0c,,,,,,,ctch,resources/DG.BMP,resources/DBN.BMP,Door3,0.263888889,0.001851824,1,0,0,0.6956,optionRight,70,13190,6,31,0,31,0,1,,,,,,,,,,,,,,,,,,,,,,,,,,,,,,,,,,,,,,,
,,,,,,,,2023-08-06_08h29.10.795,HF_wild_card,2022.2.4,Win32,59.9880024,5bdc1ff52562330001b8d841,64ce5acb97489d65b14ecc7a,64cf4bb644452db73c4ecc0c,,,,,,,decisionTrl,resources/DBN.BMP,resources/DR.BMP,Door3,-0.312962935,0.025925912,1,0,0,0.729099999,optionLeft,70,13260,6,32,0,32,0,1,,,,,,,,,,,,,,,,,,,,,,,,,,,,,,,,,,,,,,,
,,,,,,,,2023-08-06_08h29.10.795,HF_wild_card,2022.2.4,Win32,59.9880024,5bdc1ff52562330001b8d841,64ce5acb97489d65b14ecc7a,64cf4bb644452db73c4ecc0c,,,,,,,decisionTrl,resources/DBN.BMP,resources/DB.BMP,Door3,-0.126851824,0.022222222,1,0,0,0.7443,optionLeft,70,13330,6,33,0,33,0,1,,,,,,,,,,,,,,,,,,,,,,,,,,,,,,,,,,,,,,,
,,,,,,,,2023-08-06_08h29.10.795,HF_wild_card,2022.2.4,Win32,59.9880024,5bdc1ff52562330001b8d841,64ce5acb97489d65b14ecc7a,64cf4bb644452db73c4ecc0c,,,,,,,ctch,resources/DY.BMP,resources/DB.BMP,Door4,0.270370399,-0.011111111,1,0,0,0.8112,optionRight,60,13390,6,34,0,34,0,1,,,,,,,,,,,,,,,,,,,,,,,,,,,,,,,,,,,,,,,
,,,,,,,,2023-08-06_08h29.10.795,HF_wild_card,2022.2.4,Win32,59.9880024,5bdc1ff52562330001b8d841,64ce5acb97489d65b14ecc7a,64cf4bb644452db73c4ecc0c,,,,,,,ctch,resources/DB.BMP,resources/DY.BMP,Door4,-0.3,-0.010185199,1,0,0,0.5624,optionLeft,60,13450,6,35,0,35,0,1,,,,,,,,,,,,,,,,,,,,,,,,,,,,,,,,,,,,,,,
,,,,,,,,2023-08-06_08h29.10.795,HF_wild_card,2022.2.4,Win32,59.9880024,5bdc1ff52562330001b8d841,64ce5acb97489d65b14ecc7a,64cf4bb644452db73c4ecc0c,,,,,,,decisionTrl,resources/DY.BMP,resources/DG.BMP,Door1,-0.280555556,0.004629601,1,0,0,0.7292,optionLeft,30,13480,6,36,0,36,0,1,,,,,,,,,,,,,,,,,,,,,,,,,,,,,,,,,,,,,,,
,,,,,,,,2023-08-06_08h29.10.795,HF_wild_card,2022.2.4,Win32,59.9880024,5bdc1ff52562330001b8d841,64ce5acb97489d65b14ecc7a,64cf4bb644452db73c4ecc0c,,,,,,,sngl,resources/Empty.png,resources/DR.BMP,WildCard_Ex,0.338888889,-0.072222222,1,0,0,0.5457,optionRight,5,13485,6,37,0,37,0,1,,,,,,,,,,,,,,,,,,,,,,,,,,,,,,,,,,,,,,,
,,,,,,,,2023-08-06_08h29.10.795,HF_wild_card,2022.2.4,Win32,59.9880024,5bdc1ff52562330001b8d841,64ce5acb97489d65b14ecc7a,64cf4bb644452db73c4ecc0c,,,,,,,sngl,resources/Empty.png,resources/DR.BMP,WildCard_Ex,0.314814843,-0.047222222,1,0,0,0.5799,optionRight,95,13580,6,38,0,38,0,1,,,,,,,,,,,,,,,,,,,,,,,,,,,,,,,,,,,,,,,
,,,,,,,,2023-08-06_08h29.10.795,HF_wild_card,2022.2.4,Win32,59.9880024,5bdc1ff52562330001b8d841,64ce5acb97489d65b14ecc7a,64cf4bb644452db73c4ecc0c,,,,,,,sngl,resources/Empty.png,resources/DG.BMP,Door2,0.349074131,-0.032407422,1,0,0,0.6634,optionRight,40,13620,6,39,0,39,0,1,,,,,,,,,,,,,,,,,,,,,,,,,,,,,,,,,,,,,,,
,,,,,,,,2023-08-06_08h29.10.795,HF_wild_card,2022.2.4,Win32,59.9880024,5bdc1ff52562330001b8d841,64ce5acb97489d65b14ecc7a,64cf4bb644452db73c4ecc0c,,,,,,,ctch,resources/DY.BMP,resources/DB.BMP,Door4,0.311111111,0.033333333,1,0,0,0.963,optionRight,60,13680,6,40,0,40,0,1,,,,,,,,,,,,,,,,,,,,,,,,,,,,,,,,,,,,,,,
,,,,,,,,2023-08-06_08h29.10.795,HF_wild_card,2022.2.4,Win32,59.9880024,5bdc1ff52562330001b8d841,64ce5acb97489d65b14ecc7a,64cf4bb644452db73c4ecc0c,,,,,,,decisionTrl,resources/DY.BMP,resources/DG.BMP,Door1,-0.342592578,0.009259245,1,0,0,0.745400001,optionLeft,30,13710,6,41,0,41,0,1,,,,,,,,,,,,,,,,,,,,,,,,,,,,,,,,,,,,,,,
,,,,,,,,2023-08-06_08h29.10.795,HF_wild_card,2022.2.4,Win32,59.9880024,5bdc1ff52562330001b8d841,64ce5acb97489d65b14ecc7a,64cf4bb644452db73c4ecc0c,,,,,,,decisionTrl,resources/DR.BMP,resources/DG.BMP,WildCard_Ex,-0.166666667,-0.010185199,1,0,0,0.828099999,optionLeft,95,13805,6,42,0,42,0,1,,,,,,,,,,,,,,,,,,,,,,,,,,,,,,,,,,,,,,,
,,,,,,,,2023-08-06_08h29.10.795,HF_wild_card,2022.2.4,Win32,59.9880024,5bdc1ff52562330001b8d841,64ce5acb97489d65b14ecc7a,64cf4bb644452db73c4ecc0c,,,,,,,decisionTrl,resources/DB.BMP,resources/DBN.BMP,Door4,-0.276851824,-0.022222222,1,0,0,0.7631,optionLeft,80,13885,6,43,0,43,0,1,,,,,,,,,,,,,,,,,,,,,,,,,,,,,,,,,,,,,,,
,,,,,,,,2023-08-06_08h29.10.795,HF_wild_card,2022.2.4,Win32,59.9880024,5bdc1ff52562330001b8d841,64ce5acb97489d65b14ecc7a,64cf4bb644452db73c4ecc0c,,,,,,,,,,,,,,,,,,,,,,,,,,5,0,5,0,1,,,,,,,,,,,,,,,,,,,,,,,,,,,,,,,,,,
,,,,,,,,2023-08-06_08h29.10.795,HF_wild_card,2022.2.4,Win32,59.9880024,5bdc1ff52562330001b8d841,64ce5acb97489d65b14ecc7a,64cf4bb644452db73c4ecc0c,,,,,,,decisionTrl,resources/DBN.BMP,resources/DB.BMP,Door4,0.322222222,0.130555556,1,0,0,0.8202,optionRight,60,13945,7,0,0,0,0,1,,,,,,,,,,,,,,,,,,,,,,,,,,,,,,,,,,,,,,,
,,,,,,,,2023-08-06_08h29.10.795,HF_wild_card,2022.2.4,Win32,59.9880024,5bdc1ff52562330001b8d841,64ce5acb97489d65b14ecc7a,64cf4bb644452db73c4ecc0c,,,,,,,ctch,resources/DY.BMP,resources/DB.BMP,Door4,0.262963019,-0.026851866,1,0,0,0.765900001,optionRight,80,14025,7,1,0,1,0,1,,,,,,,,,,,,,,,,,,,,,,,,,,,,,,,,,,,,,,,
,,,,,,,,2023-08-06_08h29.10.795,HF_wild_card,2022.2.4,Win32,59.9880024,5bdc1ff52562330001b8d841,64ce5acb97489d65b14ecc7a,64cf4bb644452db73c4ecc0c,,,,,,,decisionTrl,resources/DG.BMP,resources/DY.BMP,Door1,0.355555556,-0.055555556,1,0,0,0.8484,optionRight,30,14055,7,2,0,2,0,1,,,,,,,,,,,,,,,,,,,,,,,,,,,,,,,,,,,,,,,
,,,,,,,,2023-08-06_08h29.10.795,HF_wild_card,2022.2.4,Win32,59.9880024,5bdc1ff52562330001b8d841,64ce5acb97489d65b14ecc7a,64cf4bb644452db73c4ecc0c,,,,,,,decisionTrl,resources/DB.BMP,resources/DBN.BMP,Door3,0.320370399,-0.114814843,1,0,0,0.8824,optionRight,70,14125,7,3,0,3,0,1,,,,,,,,,,,,,,,,,,,,,,,,,,,,,,,,,,,,,,,
,,,,,,,,2023-08-06_08h29.10.795,HF_wild_card,2022.2.4,Win32,59.9880024,5bdc1ff52562330001b8d841,64ce5acb97489d65b14ecc7a,64cf4bb644452db73c4ecc0c,,,,,,,decisionTrl,resources/DG.BMP,resources/DY.BMP,Door1,0.244444444,-0.012962977,1,0,0,0.9139,optionRight,30,14155,7,4,0,4,0,1,,,,,,,,,,,,,,,,,,,,,,,,,,,,,,,,,,,,,,,
,,,,,,,,2023-08-06_08h29.10.795,HF_wild_card,2022.2.4,Win32,59.9880024,5bdc1ff52562330001b8d841,64ce5acb97489d65b14ecc7a,64cf4bb644452db73c4ecc0c,,,,,,,ctch,resources/DB.BMP,resources/DY.BMP,Door4,-0.200925912,-0.001851866,1,0,0,0.6988,optionLeft,60,14215,7,5,0,5,0,1,,,,,,,,,,,,,,,,,,,,,,,,,,,,,,,,,,,,,,,
,,,,,,,,2023-08-06_08h29.10.795,HF_wild_card,2022.2.4,Win32,59.9880024,5bdc1ff52562330001b8d841,64ce5acb97489d65b14ecc7a,64cf4bb644452db73c4ecc0c,,,,,,,ctch,resources/DB.BMP,resources/DY.BMP,Door4,-0.284259245,-0.042592621,1,0,0,0.6655,optionLeft,60,14275,7,6,0,6,0,1,,,,,,,,,,,,,,,,,,,,,,,,,,,,,,,,,,,,,,,
,,,,,,,,2023-08-06_08h29.10.795,HF_wild_card,2022.2.4,Win32,59.9880024,5bdc1ff52562330001b8d841,64ce5acb97489d65b14ecc7a,64cf4bb644452db73c4ecc0c,,,,,,,decisionTrl,resources/DB.BMP,resources/DBN.BMP,Door3,0.304629686,-0.051851866,1,0,0,0.8655,optionRight,70,14345,7,7,0,7,0,1,,,,,,,,,,,,,,,,,,,,,,,,,,,,,,,,,,,,,,,
,,,,,,,,2023-08-06_08h29.10.795,HF_wild_card,2022.2.4,Win32,59.9880024,5bdc1ff52562330001b8d841,64ce5acb97489d65b14ecc7a,64cf4bb644452db73c4ecc0c,,,,,,,decisionTrl,resources/DBN.BMP,resources/DB.BMP,Door4,0.189814843,-0.037037065,1,0,0,0.997599999,optionRight,80,14425,7,8,0,8,0,1,,,,,,,,,,,,,,,,,,,,,,,,,,,,,,,,,,,,,,,
,,,,,,,,2023-08-06_08h29.10.795,HF_wild_card,2022.2.4,Win32,59.9880024,5bdc1ff52562330001b8d841,64ce5acb97489d65b14ecc7a,64cf4bb644452db73c4ecc0c,,,,,,,ctch,resources/DBN.BMP,resources/DG.BMP,Door3,-0.162962935,0.011111111,1,0,0,1.9652,optionLeft,70,14495,7,9,0,9,0,1,,,,,,,,,,,,,,,,,,,,,,,,,,,,,,,,,,,,,,,
,,,,,,,,2023-08-06_08h29.10.795,HF_wild_card,2022.2.4,Win32,59.9880024,5bdc1ff52562330001b8d841,64ce5acb97489d65b14ecc7a,64cf4bb644452db73c4ecc0c,,,,,,,decisionTrl,resources/DB.BMP,resources/DBN.BMP,Door3,0.202777778,-0.062037065,1,0,0,1.0324,optionRight,70,14565,7,10,0,10,0,1,,,,,,,,,,,,,,,,,,,,,,,,,,,,,,,,,,,,,,,
,,,,,,,,2023-08-06_08h29.10.795,HF_wild_card,2022.2.4,Win32,59.9880024,5bdc1ff52562330001b8d841,64ce5acb97489d65b14ecc7a,64cf4bb644452db73c4ecc0c,,,,,,,decisionTrl,resources/DY.BMP,resources/DG.BMP,Door1,-0.164814758,0.037037023,1,0,0,0.632200001,optionLeft,30,14595,7,11,0,11,0,1,,,,,,,,,,,,,,,,,,,,,,,,,,,,,,,,,,,,,,,
,,,,,,,,2023-08-06_08h29.10.795,HF_wild_card,2022.2.4,Win32,59.9880024,5bdc1ff52562330001b8d841,64ce5acb97489d65b14ecc7a,64cf4bb644452db73c4ecc0c,,,,,,,decisionTrl,resources/DY.BMP,resources/DG.BMP,Door1,-0.198148134,0.033333333,1,0,0,0.882299999,optionLeft,30,14625,7,12,0,12,0,1,,,,,,,,,,,,,,,,,,,,,,,,,,,,,,,,,,,,,,,
,,,,,,,,2023-08-06_08h29.10.795,HF_wild_card,2022.2.4,Win32,59.9880024,5bdc1ff52562330001b8d841,64ce5acb97489d65b14ecc7a,64cf4bb644452db73c4ecc0c,,,,,,,decisionTrl,resources/DG.BMP,resources/DY.BMP,Door1,0.225925954,-0.025925954,1,0,0,0.648400001,optionRight,30,14655,7,13,0,13,0,1,,,,,,,,,,,,,,,,,,,,,,,,,,,,,,,,,,,,,,,
,,,,,,,,2023-08-06_08h29.10.795,HF_wild_card,2022.2.4,Win32,59.9880024,5bdc1ff52562330001b8d841,64ce5acb97489d65b14ecc7a,64cf4bb644452db73c4ecc0c,,,,,,,ctch,resources/DY.BMP,resources/DB.BMP,Door4,0.271296353,-0.076851866,1,0,0,0.7149,optionRight,80,14735,7,14,0,14,0,1,,,,,,,,,,,,,,,,,,,,,,,,,,,,,,,,,,,,,,,
,,,,,,,,2023-08-06_08h29.10.795,HF_wild_card,2022.2.4,Win32,59.9880024,5bdc1ff52562330001b8d841,64ce5acb97489d65b14ecc7a,64cf4bb644452db73c4ecc0c,,,,,,,decisionTrl,resources/DY.BMP,resources/DG.BMP,Door1,-0.212962935,-0.028703732,1,0,0,0.6157,optionLeft,30,14765,7,15,0,15,0,1,,,,,,,,,,,,,,,,,,,,,,,,,,,,,,,,,,,,,,,
,,,,,,,,2023-08-06_08h29.10.795,HF_wild_card,2022.2.4,Win32,59.9880024,5bdc1ff52562330001b8d841,64ce5acb97489d65b14ecc7a,64cf4bb644452db73c4ecc0c,,,,,,,decisionTrl,resources/DBN.BMP,resources/DB.BMP,Door4,0.234259288,-0.07129631,1,0,0,0.549,optionRight,60,14825,7,16,0,16,0,1,,,,,,,,,,,,,,,,,,,,,,,,,,,,,,,,,,,,,,,
,,,,,,,,2023-08-06_08h29.10.795,HF_wild_card,2022.2.4,Win32,59.9880024,5bdc1ff52562330001b8d841,64ce5acb97489d65b14ecc7a,64cf4bb644452db73c4ecc0c,,,,,,,decisionTrl,resources/DG.BMP,resources/DY.BMP,Door1,0.287037065,-0.078703732,1,0,0,0.699,optionRight,30,14855,7,17,0,17,0,1,,,,,,,,,,,,,,,,,,,,,,,,,,,,,,,,,,,,,,,
,,,,,,,,2023-08-06_08h29.10.795,HF_wild_card,2022.2.4,Win32,59.9880024,5bdc1ff52562330001b8d841,64ce5acb97489d65b14ecc7a,64cf4bb644452db73c4ecc0c,,,,,,,ctch,resources/DBN.BMP,resources/DG.BMP,Door3,-0.249074046,-0.005555556,1,0,0,0.6492,optionLeft,70,14925,7,18,0,18,0,1,,,,,,,,,,,,,,,,,,,,,,,,,,,,,,,,,,,,,,,
,,,,,,,,2023-08-06_08h29.10.795,HF_wild_card,2022.2.4,Win32,59.9880024,5bdc1ff52562330001b8d841,64ce5acb97489d65b14ecc7a,64cf4bb644452db73c4ecc0c,,,,,,,decisionTrl,resources/DG.BMP,resources/DY.BMP,Door1,0.226851908,-0.050925954,1,0,0,0.715599999,optionRight,30,14955,7,19,0,19,0,1,,,,,,,,,,,,,,,,,,,,,,,,,,,,,,,,,,,,,,,
,,,,,,,,2023-08-06_08h29.10.795,HF_wild_card,2022.2.4,Win32,59.9880024,5bdc1ff52562330001b8d841,64ce5acb97489d65b14ecc7a,64cf4bb644452db73c4ecc0c,,,,,,,decisionTrl,resources/DB.BMP,resources/DBN.BMP,Door3,0.251851908,-0.067592621,1,0,0,0.764900001,optionRight,70,15025,7,20,0,20,0,1,,,,,,,,,,,,,,,,,,,,,,,,,,,,,,,,,,,,,,,
,,,,,,,,2023-08-06_08h29.10.795,HF_wild_card,2022.2.4,Win32,59.9880024,5bdc1ff52562330001b8d841,64ce5acb97489d65b14ecc7a,64cf4bb644452db73c4ecc0c,,,,,,,ctch,resources/DY.BMP,resources/DB.BMP,Door4,0.327777778,0.030555556,1,0,0,1.0484,optionRight,60,15085,7,21,0,21,0,1,,,,,,,,,,,,,,,,,,,,,,,,,,,,,,,,,,,,,,,
,,,,,,,,2023-08-06_08h29.10.795,HF_wild_card,2022.2.4,Win32,59.9880024,5bdc1ff52562330001b8d841,64ce5acb97489d65b14ecc7a,64cf4bb644452db73c4ecc0c,,,,,,,decisionTrl,resources/DY.BMP,resources/DG.BMP,Door1,-0.207407379,0.048148134,1,0,0,1.0138,optionLeft,30,15115,7,22,0,22,0,1,,,,,,,,,,,,,,,,,,,,,,,,,,,,,,,,,,,,,,,
,,,,,,,,2023-08-06_08h29.10.795,HF_wild_card,2022.2.4,Win32,59.9880024,5bdc1ff52562330001b8d841,64ce5acb97489d65b14ecc7a,64cf4bb644452db73c4ecc0c,,,,,,,decisionTrl,resources/DBN.BMP,resources/DB.BMP,Door4,0.1,0.005555556,1,0,0,0.8817,optionRight,60,15175,7,23,0,23,0,1,,,,,,,,,,,,,,,,,,,,,,,,,,,,,,,,,,,,,,,
,,,,,,,,2023-08-06_08h29.10.795,HF_wild_card,2022.2.4,Win32,59.9880024,5bdc1ff52562330001b8d841,64ce5acb97489d65b14ecc7a,64cf4bb644452db73c4ecc0c,,,,,,,decisionTrl,resources/DY.BMP,resources/DG.BMP,Door1,-0.238888889,0.055555556,1,0,0,0.665099999,optionLeft,30,15205,7,24,0,24,0,1,,,,,,,,,,,,,,,,,,,,,,,,,,,,,,,,,,,,,,,
,,,,,,,,2023-08-06_08h29.10.795,HF_wild_card,2022.2.4,Win32,59.9880024,5bdc1ff52562330001b8d841,64ce5acb97489d65b14ecc7a,64cf4bb644452db73c4ecc0c,,,,,,,decisionTrl,resources/DY.BMP,resources/DG.BMP,Door1,-0.164814758,0.014814801,1,0,0,0.7324,optionLeft,30,15235,7,25,0,25,0,1,,,,,,,,,,,,,,,,,,,,,,,,,,,,,,,,,,,,,,,
,,,,,,,,2023-08-06_08h29.10.795,HF_wild_card,2022.2.4,Win32,59.9880024,5bdc1ff52562330001b8d841,64ce5acb97489d65b14ecc7a,64cf4bb644452db73c4ecc0c,,,,,,,decisionTrl,resources/DB.BMP,resources/DBN.BMP,Door4,-0.004629601,0.008333333,1,0,0,0.282099999,optionLeft,60,15295,7,26,0,26,0,1,,,,,,,,,,,,,,,,,,,,,,,,,,,,,,,,,,,,,,,
,,,,,,,,2023-08-06_08h29.10.795,HF_wild_card,2022.2.4,Win32,59.9880024,5bdc1ff52562330001b8d841,64ce5acb97489d65b14ecc7a,64cf4bb644452db73c4ecc0c,,,,,,,ctch,resources/DBN.BMP,resources/DG.BMP,Door3,-0.370370356,0.047222222,1,0,0,0.748900001,optionLeft,70,15365,7,27,0,27,0,1,,,,,,,,,,,,,,,,,,,,,,,,,,,,,,,,,,,,,,,
,,,,,,,,2023-08-06_08h29.10.795,HF_wild_card,2022.2.4,Win32,59.9880024,5bdc1ff52562330001b8d841,64ce5acb97489d65b14ecc7a,64cf4bb644452db73c4ecc0c,,,,,,,ctch,resources/DG.BMP,resources/DBN.BMP,Door3,0.225925954,-0.002777778,1,0,0,1.0659,optionRight,70,15435,7,28,0,28,0,1,,,,,,,,,,,,,,,,,,,,,,,,,,,,,,,,,,,,,,,
,,,,,,,,2023-08-06_08h29.10.795,HF_wild_card,2022.2.4,Win32,59.9880024,5bdc1ff52562330001b8d841,64ce5acb97489d65b14ecc7a,64cf4bb644452db73c4ecc0c,,,,,,,decisionTrl,resources/DG.BMP,resources/DY.BMP,Door2,-0.225,-0.009259288,1,0,0,0.6652,optionLeft,20,15455,7,29,0,29,0,1,,,,,,,,,,,,,,,,,,,,,,,,,,,,,,,,,,,,,,,
,,,,,,,,2023-08-06_08h29.10.795,HF_wild_card,2022.2.4,Win32,59.9880024,5bdc1ff52562330001b8d841,64ce5acb97489d65b14ecc7a,64cf4bb644452db73c4ecc0c,,,,,,,ctch,resources/DG.BMP,resources/DBN.BMP,Door3,0.237037065,0.00370369,1,0,0,0.6149,optionRight,70,15525,7,30,0,30,0,1,,,,,,,,,,,,,,,,,,,,,,,,,,,,,,,,,,,,,,,
,,,,,,,,2023-08-06_08h29.10.795,HF_wild_card,2022.2.4,Win32,59.9880024,5bdc1ff52562330001b8d841,64ce5acb97489d65b14ecc7a,64cf4bb644452db73c4ecc0c,,,,,,,ctch,resources/DG.BMP,resources/DBN.BMP,Door3,0.239814843,-0.052777778,1,0,0,0.647599999,optionRight,70,15595,7,31,0,31,0,1,,,,,,,,,,,,,,,,,,,,,,,,,,,,,,,,,,,,,,,
,,,,,,,,2023-08-06_08h29.10.795,HF_wild_card,2022.2.4,Win32,59.9880024,5bdc1ff52562330001b8d841,64ce5acb97489d65b14ecc7a,64cf4bb644452db73c4ecc0c,,,,,,,decisionTrl,resources/DB.BMP,resources/DBN.BMP,Door3,0.293518575,-0.08148151,1,0,0,0.7983,optionRight,70,15665,7,32,0,32,0,1,,,,,,,,,,,,,,,,,,,,,,,,,,,,,,,,,,,,,,,
,,,,,,,,2023-08-06_08h29.10.795,HF_wild_card,2022.2.4,Win32,59.9880024,5bdc1ff52562330001b8d841,64ce5acb97489d65b14ecc7a,64cf4bb644452db73c4ecc0c,,,,,,,decisionTrl,resources/DBN.BMP,resources/DB.BMP,Door3,-0.277777778,-0.015740755,1,0,0,0.6322,optionLeft,70,15735,7,33,0,33,0,1,,,,,,,,,,,,,,,,,,,,,,,,,,,,,,,,,,,,,,,
,,,,,,,,2023-08-06_08h29.10.795,HF_wild_card,2022.2.4,Win32,59.9880024,5bdc1ff52562330001b8d841,64ce5acb97489d65b14ecc7a,64cf4bb644452db73c4ecc0c,,,,,,,ctch,resources/DB.BMP,resources/DY.BMP,Door4,-0.198148134,0.024074046,1,0,0,0.681900001,optionLeft,60,15795,7,34,0,34,0,1,,,,,,,,,,,,,,,,,,,,,,,,,,,,,,,,,,,,,,,
,,,,,,,,2023-08-06_08h29.10.795,HF_wild_card,2022.2.4,Win32,59.9880024,5bdc1ff52562330001b8d841,64ce5acb97489d65b14ecc7a,64cf4bb644452db73c4ecc0c,,,,,,,decisionTrl,resources/DBN.BMP,resources/DB.BMP,Door4,0.217592621,-0.037962977,1,0,0,0.648599999,optionRight,80,15875,7,35,0,35,0,1,,,,,,,,,,,,,,,,,,,,,,,,,,,,,,,,,,,,,,,
,,,,,,,,2023-08-06_08h29.10.795,HF_wild_card,2022.2.4,Win32,59.9880024,5bdc1ff52562330001b8d841,64ce5acb97489d65b14ecc7a,64cf4bb644452db73c4ecc0c,,,,,,,,,,,,,,,,,,,,,,,,,,6,0,6,0,1,,,,,,,,,,,,,,,,,,,,,,,,,,,,,,,,,,
,,,,,,,,2023-08-06_08h29.10.795,HF_wild_card,2022.2.4,Win32,59.9880024,5bdc1ff52562330001b8d841,64ce5acb97489d65b14ecc7a,64cf4bb644452db73c4ecc0c,,,,,,,,,,,,,,,,,,,,,,,,,,,,,,,3,,,,,,,,,,,,,,,,,,,,,,,,,,,,,,,,,
,,,,,,,,2023-08-06_08h29.10.795,HF_wild_card,2022.2.4,Win32,59.9880024,5bdc1ff52562330001b8d841,64ce5acb97489d65b14ecc7a,64cf4bb644452db73c4ecc0c,,,,,,,,,,,,,,,,,,,,,,,,,,,,,,,,,,,,,,,,,,,,,,,,,,,,,,,,,,,,,,,,
,,,,,,,,2023-08-06_08h29.10.795,HF_wild_card,2022.2.4,Win32,59.9880024,5bdc1ff52562330001b8d841,64ce5acb97489d65b14ecc7a,64cf4bb644452db73c4ecc0c,,,,,,,,,,,,,,,,,,,,,,,,,,,,,,,,70,Door3,resources/DBN.BMP,0,0,0,0,1,,,,,,,,,,,,,,,,,,,,,,,,,
,,,,,,,,2023-08-06_08h29.10.795,HF_wild_card,2022.2.4,Win32,59.9880024,5bdc1ff52562330001b8d841,64ce5acb97489d65b14ecc7a,64cf4bb644452db73c4ecc0c,,,,,,,,,,,,,,,,,,,,,,,,,,,,,,,,20,WC_nonExtreme,resources/DP.BMP,1,0,1,0,1,,,,,,,,,,,,,,,,,,,,,,,,,
,,,,,,,,2023-08-06_08h29.10.795,HF_wild_card,2022.2.4,Win32,59.9880024,5bdc1ff52562330001b8d841,64ce5acb97489d65b14ecc7a,64cf4bb644452db73c4ecc0c,,,,,,,,,,,,,,,,,,,,,,,,,,,,,,,,30,Door1,resources/DY.BMP,2,0,2,0,1,,,,,,,,,,,,,,,,,,,,,,,,,
,,,,,,,,2023-08-06_08h29.10.795,HF_wild_card,2022.2.4,Win32,59.9880024,5bdc1ff52562330001b8d841,64ce5acb97489d65b14ecc7a,64cf4bb644452db73c4ecc0c,,,,,,,,,,,,,,,,,,,,,,,,,,,,,,,,20,Door2,resources/DG.BMP,3,0,3,0,1,,,,,,,,,,,,,,,,,,,,,,,,,
,,,,,,,,2023-08-06_08h29.10.795,HF_wild_card,2022.2.4,Win32,59.9880024,5bdc1ff52562330001b8d841,64ce5acb97489d65b14ecc7a,64cf4bb644452db73c4ecc0c,,,,,,,,,,,,,,,,,,,,,,,,,,,,,,,,70,Door4,resources/DB.BMP,4,0,4,0,1,,,,,,,,,,,,,,,,,,,,,,,,,
,,,,,,,,2023-08-06_08h29.10.795,HF_wild_card,2022.2.4,Win32,59.9880024,5bdc1ff52562330001b8d841,64ce5acb97489d65b14ecc7a,64cf4bb644452db73c4ecc0c,,,,,,,,,,,,,,,,,,,,,,,,,,,,,,,,95,WC_extreme,resources/DR.BMP,5,0,5,0,1,,,,,,,,,,,,,,,,,,,,,,,,,
,,,,,,,,2023-08-06_08h29.10.795,HF_wild_card,2022.2.4,Win32,59.9880024,5bdc1ff52562330001b8d841,64ce5acb97489d65b14ecc7a,64cf4bb644452db73c4ecc0c,,,,,,,,,,,,,,,,,,,,,,,,,,,,,,,,,,,,,,,,,,,,,,,,,,,,,,,,,,,,,,,,
,,,,,,,,2023-08-06_08h29.10.795,HF_wild_card,2022.2.4,Win32,59.9880024,5bdc1ff52562330001b8d841,64ce5acb97489d65b14ecc7a,64cf4bb644452db73c4ecc0c,,,,,,,,,,,,,,,,,,,,,,,,,,,,,,,,,,,,,,,,0,0,0,0,1,,,,,,,,,,,,,,,,,,,,
