Condition,Low fixed image (Door1),Low risky image (Door2),High fixed image (Door3),High risky image (Door4),NonExtreme Wild Card 1,NonExtreme Wild Card 2,,date,expName,psychopyVersion,OS,frameRate,PROLIFIC_PID,STUDY_ID,SESSION_ID,mouse_2.x,mouse_2.y,mouse_2.leftButton,mouse_2.midButton,mouse_2.rightButton,mouse_2.clicked_name,Trial Type,Left Option Image,Right Option Image,Chosen Door,mouse.x,mouse.y,mouse.leftButton,mouse.midButton,mouse.rightButton,mouse.time,mouse.clicked_name,Feedback,Cumulative Reward,Block,trial.thisRepN,trial.thisTrialN,trial.thisN,trial.thisIndex,trial.ran,blocks.thisRepN,blocks.thisTrialN,blocks.thisN,blocks.thisIndex,blocks.ran,Money conversion,First Outcome Reported,Shown Door (First Outcome),Displayed Image (First Outcome),outcomes.thisRepN,outcomes.thisTrialN,outcomes.thisN,outcomes.thisIndex,outcomes.ran,judgments.thisRepN,judgments.thisTrialN,judgments.thisN,judgments.thisIndex,judgments.ran,freqMouse.x,freqMouse.y,freqMouse.leftButton,freqMouse.midButton,freqMouse.rightButton,freqMouse.clicked_name,FQJ for first outcome,FQJ for second outcome,Shown Door,Displayed Image,trials.thisRepN,trials.thisTrialN,trials.thisN,trials.thisIndex,trials.ran,judgBlock.thisRepN,judgBlock.thisTrialN,judgBlock.thisN,judgBlock.thisIndex,judgBlock.ran
2,resources/DP.BMP,resources/DG.BMP,resources/DB.BMP,resources/DY.BMP,resources/DR.BMP,resources/DBN.BMP,,2023-08-16_08h49.48.587,HF_wild_card,2022.2.4,Win32,6.26232896,57fc95035682050001101433,64d2fd46c836a06233681665,64dc7f80167cac6986c54705,,,,,,,,,,,,,,,,,,,,,,,,,,,,,,,,,,,,,,,,,,,,,,,,,,,,,,,,,,,,,,,,
,,,,,,,,2023-08-16_08h49.48.587,HF_wild_card,2022.2.4,Win32,6.26232896,57fc95035682050001101433,64d2fd46c836a06233681665,64dc7f80167cac6986c54705,-0.007407407,-0.412037037,1,0,0,agree,,,,,,,,,,,,,,,,,,,,,,,,,,,,,,,,,,,,,,,,,,,,,,,,,,,,,,,,,,
,,,,,,,,2023-08-16_08h49.48.587,HF_wild_card,2022.2.4,Win32,6.26232896,57fc95035682050001101433,64d2fd46c836a06233681665,64dc7f80167cac6986c54705,,,,,,,,,,,,,,,,,,,,,,,,,,,,,,,,,,,,,,,,,,,,,,,,,,,,,,,,,,,,,,,,
,,,,,,,,2023-08-16_08h49.48.587,HF_wild_card,2022.2.4,Win32,6.26232896,57fc95035682050001101433,64d2fd46c836a06233681665,64dc7f80167cac6986c54705,,,,,,,decisionTrl,resources/DP.BMP,resources/DG.BMP,Door2,0.434259259,-0.037037037,1,0,0,4.0497,optionRight,40,40,1,0,0,0,0,1,,,,,,,,,,,,,,,,,,,,,,,,,,,,,,,,,,,,,,,
,,,,,,,,2023-08-16_08h49.48.587,HF_wild_card,2022.2.4,Win32,6.26232896,57fc95035682050001101433,64d2fd46c836a06233681665,64dc7f80167cac6986c54705,,,,,,,decisionTrl,resources/DY.BMP,resources/DB.BMP,Door3,0.30462963,-0.037037037,1,0,0,3.3101,optionRight,70,110,1,1,0,1,0,1,,,,,,,,,,,,,,,,,,,,,,,,,,,,,,,,,,,,,,,
,,,,,,,,2023-08-16_08h49.48.587,HF_wild_card,2022.2.4,Win32,6.26232896,57fc95035682050001101433,64d2fd46c836a06233681665,64dc7f80167cac6986c54705,,,,,,,sngl,resources/DBN.BMP,resources/Empty.png,WildCard_NonEx,-0.310185185,0.02037037,1,0,0,3.6477,optionLeft,55,165,1,2,0,2,0,1,,,,,,,,,,,,,,,,,,,,,,,,,,,,,,,,,,,,,,,
,,,,,,,,2023-08-16_08h49.48.587,HF_wild_card,2022.2.4,Win32,6.26232896,57fc95035682050001101433,64d2fd46c836a06233681665,64dc7f80167cac6986c54705,,,,,,,ctch,resources/DY.BMP,resources/DP.BMP,Door1,0.37037037,-0.065740741,1,0,0,3.7849,optionRight,30,195,1,3,0,3,0,1,,,,,,,,,,,,,,,,,,,,,,,,,,,,,,,,,,,,,,,
,,,,,,,,2023-08-16_08h49.48.587,HF_wild_card,2022.2.4,Win32,6.26232896,57fc95035682050001101433,64d2fd46c836a06233681665,64dc7f80167cac6986c54705,,,,,,,decisionTrl,resources/DG.BMP,resources/DBN.BMP,Door2,-0.324074074,-0.012962963,1,0,0,1.9328,optionLeft,20,215,1,4,0,4,0,1,,,,,,,,,,,,,,,,,,,,,,,,,,,,,,,,,,,,,,,
,,,,,,,,2023-08-16_08h49.48.587,HF_wild_card,2022.2.4,Win32,6.26232896,57fc95035682050001101433,64d2fd46c836a06233681665,64dc7f80167cac6986c54705,,,,,,,decisionTrl,resources/DG.BMP,resources/DP.BMP,Door2,-0.388888889,-0.003703704,1,0,0,3.8931,optionLeft,20,235,1,5,0,5,0,1,,,,,,,,,,,,,,,,,,,,,,,,,,,,,,,,,,,,,,,
,,,,,,,,2023-08-16_08h49.48.587,HF_wild_card,2022.2.4,Win32,6.26232896,57fc95035682050001101433,64d2fd46c836a06233681665,64dc7f80167cac6986c54705,,,,,,,ctch,resources/DG.BMP,resources/DB.BMP,Door3,0.375,-0.025925926,1,0,0,3.55,optionRight,70,305,1,6,0,6,0,1,,,,,,,,,,,,,,,,,,,,,,,,,,,,,,,,,,,,,,,
,,,,,,,,2023-08-16_08h49.48.587,HF_wild_card,2022.2.4,Win32,6.26232896,57fc95035682050001101433,64d2fd46c836a06233681665,64dc7f80167cac6986c54705,,,,,,,decisionTrl,resources/DB.BMP,resources/DY.BMP,Door4,0.37962963,-0.062962963,1,0,0,2.8688,optionRight,60,365,1,7,0,7,0,1,,,,,,,,,,,,,,,,,,,,,,,,,,,,,,,,,,,,,,,
,,,,,,,,2023-08-16_08h49.48.587,HF_wild_card,2022.2.4,Win32,6.26232896,57fc95035682050001101433,64d2fd46c836a06233681665,64dc7f80167cac6986c54705,,,,,,,sngl,resources/Empty.png,resources/DBN.BMP,WildCard_NonEx,0.387037037,-0.001851852,1,0,0,1.684,optionRight,55,420,1,8,0,8,0,1,,,,,,,,,,,,,,,,,,,,,,,,,,,,,,,,,,,,,,,
,,,,,,,,2023-08-16_08h49.48.587,HF_wild_card,2022.2.4,Win32,6.26232896,57fc95035682050001101433,64d2fd46c836a06233681665,64dc7f80167cac6986c54705,,,,,,,decisionTrl,resources/DB.BMP,resources/DY.BMP,Door4,0.367592593,-0.071296296,1,0,0,3.9956,optionRight,80,500,1,9,0,9,0,1,,,,,,,,,,,,,,,,,,,,,,,,,,,,,,,,,,,,,,,
,,,,,,,,2023-08-16_08h49.48.587,HF_wild_card,2022.2.4,Win32,6.26232896,57fc95035682050001101433,64d2fd46c836a06233681665,64dc7f80167cac6986c54705,,,,,,,decisionTrl,resources/DP.BMP,resources/DG.BMP,Door2,0.305555556,-0.012962963,1,0,0,2.4561,optionRight,20,520,1,10,0,10,0,1,,,,,,,,,,,,,,,,,,,,,,,,,,,,,,,,,,,,,,,
,,,,,,,,2023-08-16_08h49.48.587,HF_wild_card,2022.2.4,Win32,6.26232896,57fc95035682050001101433,64d2fd46c836a06233681665,64dc7f80167cac6986c54705,,,,,,,sngl,resources/DY.BMP,resources/Empty.png,Door4,-0.390740741,-0.006481481,1,0,0,1.2988,optionLeft,80,600,1,11,0,11,0,1,,,,,,,,,,,,,,,,,,,,,,,,,,,,,,,,,,,,,,,
,,,,,,,,2023-08-16_08h49.48.587,HF_wild_card,2022.2.4,Win32,6.26232896,57fc95035682050001101433,64d2fd46c836a06233681665,64dc7f80167cac6986c54705,,,,,,,ctch,resources/DP.BMP,resources/DY.BMP,Door4,0.447222222,-0.036111111,1,0,0,3.1484,optionRight,80,680,1,12,0,12,0,1,,,,,,,,,,,,,,,,,,,,,,,,,,,,,,,,,,,,,,,
,,,,,,,,2023-08-16_08h49.48.587,HF_wild_card,2022.2.4,Win32,6.26232896,57fc95035682050001101433,64d2fd46c836a06233681665,64dc7f80167cac6986c54705,,,,,,,decisionTrl,resources/DG.BMP,resources/DP.BMP,Door1,0.355555556,-0.026851852,1,0,0,1.7454,optionRight,30,710,1,13,0,13,0,1,,,,,,,,,,,,,,,,,,,,,,,,,,,,,,,,,,,,,,,
,,,,,,,,2023-08-16_08h49.48.587,HF_wild_card,2022.2.4,Win32,6.26232896,57fc95035682050001101433,64d2fd46c836a06233681665,64dc7f80167cac6986c54705,,,,,,,decisionTrl,resources/DG.BMP,resources/DP.BMP,Door2,-0.383333333,0.007407407,1,0,0,1.6468,optionLeft,40,750,1,14,0,14,0,1,,,,,,,,,,,,,,,,,,,,,,,,,,,,,,,,,,,,,,,
,,,,,,,,2023-08-16_08h49.48.587,HF_wild_card,2022.2.4,Win32,6.26232896,57fc95035682050001101433,64d2fd46c836a06233681665,64dc7f80167cac6986c54705,,,,,,,decisionTrl,resources/DBN.BMP,resources/DP.BMP,WildCard_NonEx,-0.331481481,0,1,0,0,1.6524,optionLeft,45,795,1,15,0,15,0,1,,,,,,,,,,,,,,,,,,,,,,,,,,,,,,,,,,,,,,,
,,,,,,,,2023-08-16_08h49.48.587,HF_wild_card,2022.2.4,Win32,6.26232896,57fc95035682050001101433,64d2fd46c836a06233681665,64dc7f80167cac6986c54705,,,,,,,decisionTrl,resources/DY.BMP,resources/DB.BMP,Door3,0.40462963,-0.033333333,1,0,0,3.941,optionRight,70,865,1,16,0,16,0,1,,,,,,,,,,,,,,,,,,,,,,,,,,,,,,,,,,,,,,,
,,,,,,,,2023-08-16_08h49.48.587,HF_wild_card,2022.2.4,Win32,6.26232896,57fc95035682050001101433,64d2fd46c836a06233681665,64dc7f80167cac6986c54705,,,,,,,sngl,resources/Empty.png,resources/DG.BMP,Door2,0.401851852,-0.009259259,1,0,0,1.754,optionRight,20,885,1,17,0,17,0,1,,,,,,,,,,,,,,,,,,,,,,,,,,,,,,,,,,,,,,,
,,,,,,,,2023-08-16_08h49.48.587,HF_wild_card,2022.2.4,Win32,6.26232896,57fc95035682050001101433,64d2fd46c836a06233681665,64dc7f80167cac6986c54705,,,,,,,ctch,resources/DY.BMP,resources/DP.BMP,Door1,0.412962963,-0.049074074,1,0,0,1.9506,optionRight,30,915,1,18,0,18,0,1,,,,,,,,,,,,,,,,,,,,,,,,,,,,,,,,,,,,,,,
,,,,,,,,2023-08-16_08h49.48.587,HF_wild_card,2022.2.4,Win32,6.26232896,57fc95035682050001101433,64d2fd46c836a06233681665,64dc7f80167cac6986c54705,,,,,,,ctch,resources/DB.BMP,resources/DG.BMP,Door2,0.389814815,-0.051851852,1,0,0,1.4574,optionRight,20,935,1,19,0,19,0,1,,,,,,,,,,,,,,,,,,,,,,,,,,,,,,,,,,,,,,,
,,,,,,,,2023-08-16_08h49.48.587,HF_wild_card,2022.2.4,Win32,6.26232896,57fc95035682050001101433,64d2fd46c836a06233681665,64dc7f80167cac6986c54705,,,,,,,decisionTrl,resources/DY.BMP,resources/DBN.BMP,WildCard_NonEx,0.399074074,-0.003703704,1,0,0,1.6422,optionRight,45,980,1,20,0,20,0,1,,,,,,,,,,,,,,,,,,,,,,,,,,,,,,,,,,,,,,,
,,,,,,,,2023-08-16_08h49.48.587,HF_wild_card,2022.2.4,Win32,6.26232896,57fc95035682050001101433,64d2fd46c836a06233681665,64dc7f80167cac6986c54705,,,,,,,sngl,resources/Empty.png,resources/DBN.BMP,WildCard_NonEx,0.431481481,0.009259259,1,0,0,1.2698,optionRight,45,1025,1,21,0,21,0,1,,,,,,,,,,,,,,,,,,,,,,,,,,,,,,,,,,,,,,,
,,,,,,,,2023-08-16_08h49.48.587,HF_wild_card,2022.2.4,Win32,6.26232896,57fc95035682050001101433,64d2fd46c836a06233681665,64dc7f80167cac6986c54705,,,,,,,sngl,resources/DP.BMP,resources/Empty.png,Door1,-0.400925926,-0.022222222,1,0,0,1.0691,optionLeft,30,1055,1,22,0,22,0,1,,,,,,,,,,,,,,,,,,,,,,,,,,,,,,,,,,,,,,,
,,,,,,,,2023-08-16_08h49.48.587,HF_wild_card,2022.2.4,Win32,6.26232896,57fc95035682050001101433,64d2fd46c836a06233681665,64dc7f80167cac6986c54705,,,,,,,decisionTrl,resources/DBN.BMP,resources/DG.BMP,WildCard_NonEx,-0.410185185,0.000925926,1,0,0,2.4657,optionLeft,55,1110,1,23,0,23,0,1,,,,,,,,,,,,,,,,,,,,,,,,,,,,,,,,,,,,,,,
,,,,,,,,2023-08-16_08h49.48.587,HF_wild_card,2022.2.4,Win32,6.26232896,57fc95035682050001101433,64d2fd46c836a06233681665,64dc7f80167cac6986c54705,,,,,,,decisionTrl,resources/DB.BMP,resources/DY.BMP,Door3,-0.367592593,-0.044444444,1,0,0,1.8669,optionLeft,70,1180,1,24,0,24,0,1,,,,,,,,,,,,,,,,,,,,,,,,,,,,,,,,,,,,,,,
,,,,,,,,2023-08-16_08h49.48.587,HF_wild_card,2022.2.4,Win32,6.26232896,57fc95035682050001101433,64d2fd46c836a06233681665,64dc7f80167cac6986c54705,,,,,,,sngl,resources/Empty.png,resources/DB.BMP,Door3,0.376851852,-0.00462963,1,0,0,1.4762,optionRight,70,1250,1,25,0,25,0,1,,,,,,,,,,,,,,,,,,,,,,,,,,,,,,,,,,,,,,,
,,,,,,,,2023-08-16_08h49.48.587,HF_wild_card,2022.2.4,Win32,6.26232896,57fc95035682050001101433,64d2fd46c836a06233681665,64dc7f80167cac6986c54705,,,,,,,decisionTrl,resources/DP.BMP,resources/DG.BMP,Door1,-0.411111111,-0.013888889,1,0,0,3.0646,optionLeft,30,1280,1,26,0,26,0,1,,,,,,,,,,,,,,,,,,,,,,,,,,,,,,,,,,,,,,,
,,,,,,,,2023-08-16_08h49.48.587,HF_wild_card,2022.2.4,Win32,6.26232896,57fc95035682050001101433,64d2fd46c836a06233681665,64dc7f80167cac6986c54705,,,,,,,sngl,resources/DG.BMP,resources/Empty.png,Door2,-0.388888889,0.009259259,1,0,0,1.296,optionLeft,40,1320,1,27,0,27,0,1,,,,,,,,,,,,,,,,,,,,,,,,,,,,,,,,,,,,,,,
,,,,,,,,2023-08-16_08h49.48.587,HF_wild_card,2022.2.4,Win32,6.26232896,57fc95035682050001101433,64d2fd46c836a06233681665,64dc7f80167cac6986c54705,,,,,,,ctch,resources/DB.BMP,resources/DG.BMP,Door2,0.346296296,-0.056481481,1,0,0,1.2487,optionRight,40,1360,1,28,0,28,0,1,,,,,,,,,,,,,,,,,,,,,,,,,,,,,,,,,,,,,,,
,,,,,,,,2023-08-16_08h49.48.587,HF_wild_card,2022.2.4,Win32,6.26232896,57fc95035682050001101433,64d2fd46c836a06233681665,64dc7f80167cac6986c54705,,,,,,,decisionTrl,resources/DBN.BMP,resources/DB.BMP,WildCard_NonEx,-0.341666667,0.02962963,1,0,0,2.7007,optionLeft,55,1415,1,29,0,29,0,1,,,,,,,,,,,,,,,,,,,,,,,,,,,,,,,,,,,,,,,
,,,,,,,,2023-08-16_08h49.48.587,HF_wild_card,2022.2.4,Win32,6.26232896,57fc95035682050001101433,64d2fd46c836a06233681665,64dc7f80167cac6986c54705,,,,,,,sngl,resources/DB.BMP,resources/Empty.png,Door3,-0.475925926,-0.02962963,1,0,0,1.3114,optionLeft,70,1485,1,30,0,30,0,1,,,,,,,,,,,,,,,,,,,,,,,,,,,,,,,,,,,,,,,
,,,,,,,,2023-08-16_08h49.48.587,HF_wild_card,2022.2.4,Win32,6.26232896,57fc95035682050001101433,64d2fd46c836a06233681665,64dc7f80167cac6986c54705,,,,,,,decisionTrl,resources/DP.BMP,resources/DBN.BMP,Door1,-0.380555556,-0.003703704,1,0,0,1.8794,optionLeft,30,1515,1,31,0,31,0,1,,,,,,,,,,,,,,,,,,,,,,,,,,,,,,,,,,,,,,,
,,,,,,,,2023-08-16_08h49.48.587,HF_wild_card,2022.2.4,Win32,6.26232896,57fc95035682050001101433,64d2fd46c836a06233681665,64dc7f80167cac6986c54705,,,,,,,decisionTrl,resources/DB.BMP,resources/DBN.BMP,WildCard_NonEx,0.393518519,-0.011111111,1,0,0,4.3178,optionRight,55,1570,1,32,0,32,0,1,,,,,,,,,,,,,,,,,,,,,,,,,,,,,,,,,,,,,,,
,,,,,,,,2023-08-16_08h49.48.587,HF_wild_card,2022.2.4,Win32,6.26232896,57fc95035682050001101433,64d2fd46c836a06233681665,64dc7f80167cac6986c54705,,,,,,,ctch,resources/DG.BMP,resources/DB.BMP,Door3,0.391666667,-0.036111111,1,0,0,1.1735,optionRight,70,1640,1,33,0,33,0,1,,,,,,,,,,,,,,,,,,,,,,,,,,,,,,,,,,,,,,,
,,,,,,,,2023-08-16_08h49.48.587,HF_wild_card,2022.2.4,Win32,6.26232896,57fc95035682050001101433,64d2fd46c836a06233681665,64dc7f80167cac6986c54705,,,,,,,decisionTrl,resources/DY.BMP,resources/DB.BMP,Door4,-0.337962963,-0.018518519,1,0,0,1.3715,optionLeft,60,1700,1,34,0,34,0,1,,,,,,,,,,,,,,,,,,,,,,,,,,,,,,,,,,,,,,,
,,,,,,,,2023-08-16_08h49.48.587,HF_wild_card,2022.2.4,Win32,6.26232896,57fc95035682050001101433,64d2fd46c836a06233681665,64dc7f80167cac6986c54705,,,,,,,decisionTrl,resources/DY.BMP,resources/DB.BMP,Door3,0.412037037,0.016666667,1,0,0,1.1703,optionRight,70,1770,1,35,0,35,0,1,,,,,,,,,,,,,,,,,,,,,,,,,,,,,,,,,,,,,,,
,,,,,,,,2023-08-16_08h49.48.587,HF_wild_card,2022.2.4,Win32,6.26232896,57fc95035682050001101433,64d2fd46c836a06233681665,64dc7f80167cac6986c54705,,,,,,,sngl,resources/DBN.BMP,resources/Empty.png,WildCard_NonEx,-0.452777778,-0.015740741,1,0,0,1.3099,optionLeft,45,1815,1,36,0,36,0,1,,,,,,,,,,,,,,,,,,,,,,,,,,,,,,,,,,,,,,,
,,,,,,,,2023-08-16_08h49.48.587,HF_wild_card,2022.2.4,Win32,6.26232896,57fc95035682050001101433,64d2fd46c836a06233681665,64dc7f80167cac6986c54705,,,,,,,decisionTrl,resources/DP.BMP,resources/DG.BMP,Door1,-0.349074074,-0.003703704,1,0,0,2.5206,optionLeft,30,1845,1,37,0,37,0,1,,,,,,,,,,,,,,,,,,,,,,,,,,,,,,,,,,,,,,,
,,,,,,,,2023-08-16_08h49.48.587,HF_wild_card,2022.2.4,Win32,6.26232896,57fc95035682050001101433,64d2fd46c836a06233681665,64dc7f80167cac6986c54705,,,,,,,decisionTrl,resources/DB.BMP,resources/DY.BMP,Door3,-0.433333333,-0.030555556,1,0,0,2.9039,optionLeft,70,1915,1,38,0,38,0,1,,,,,,,,,,,,,,,,,,,,,,,,,,,,,,,,,,,,,,,
,,,,,,,,2023-08-16_08h49.48.587,HF_wild_card,2022.2.4,Win32,6.26232896,57fc95035682050001101433,64d2fd46c836a06233681665,64dc7f80167cac6986c54705,,,,,,,decisionTrl,resources/DG.BMP,resources/DP.BMP,Door1,0.402777778,-0.039814815,1,0,0,2.6675,optionRight,30,1945,1,39,0,39,0,1,,,,,,,,,,,,,,,,,,,,,,,,,,,,,,,,,,,,,,,
,,,,,,,,2023-08-16_08h49.48.587,HF_wild_card,2022.2.4,Win32,6.26232896,57fc95035682050001101433,64d2fd46c836a06233681665,64dc7f80167cac6986c54705,,,,,,,sngl,resources/Empty.png,resources/DP.BMP,Door1,0.422222222,-0.024074074,1,0,0,1.2881,optionRight,30,1975,1,40,0,40,0,1,,,,,,,,,,,,,,,,,,,,,,,,,,,,,,,,,,,,,,,
,,,,,,,,2023-08-16_08h49.48.587,HF_wild_card,2022.2.4,Win32,6.26232896,57fc95035682050001101433,64d2fd46c836a06233681665,64dc7f80167cac6986c54705,,,,,,,ctch,resources/DP.BMP,resources/DY.BMP,Door4,0.387962963,-0.012037037,1,0,0,2.0965,optionRight,60,2035,1,41,0,41,0,1,,,,,,,,,,,,,,,,,,,,,,,,,,,,,,,,,,,,,,,
,,,,,,,,2023-08-16_08h49.48.587,HF_wild_card,2022.2.4,Win32,6.26232896,57fc95035682050001101433,64d2fd46c836a06233681665,64dc7f80167cac6986c54705,,,,,,,sngl,resources/Empty.png,resources/DY.BMP,Door4,0.388888889,-0.046296296,1,0,0,1.063,optionRight,60,2095,1,42,0,42,0,1,,,,,,,,,,,,,,,,,,,,,,,,,,,,,,,,,,,,,,,
,,,,,,,,2023-08-16_08h49.48.587,HF_wild_card,2022.2.4,Win32,6.26232896,57fc95035682050001101433,64d2fd46c836a06233681665,64dc7f80167cac6986c54705,,,,,,,decisionTrl,resources/DBN.BMP,resources/DY.BMP,Door4,0.394444444,-0.019444444,1,0,0,1.8627,optionRight,80,2175,1,43,0,43,0,1,,,,,,,,,,,,,,,,,,,,,,,,,,,,,,,,,,,,,,,
,,,,,,,,2023-08-16_08h49.48.587,HF_wild_card,2022.2.4,Win32,6.26232896,57fc95035682050001101433,64d2fd46c836a06233681665,64dc7f80167cac6986c54705,,,,,,,,,,,,,,,,,,,,,,,,,,0,0,0,0,1,,,,,,,,,,,,,,,,,,,,,,,,,,,,,,,,,,
,,,,,,,,2023-08-16_08h49.48.587,HF_wild_card,2022.2.4,Win32,6.26232896,57fc95035682050001101433,64d2fd46c836a06233681665,64dc7f80167cac6986c54705,,,,,,,ctch,resources/DB.BMP,resources/DG.BMP,Door3,-0.463888889,0.042592593,1,0,0,1.2676,optionLeft,70,2245,2,0,0,0,0,1,,,,,,,,,,,,,,,,,,,,,,,,,,,,,,,,,,,,,,,
,,,,,,,,2023-08-16_08h49.48.587,HF_wild_card,2022.2.4,Win32,6.26232896,57fc95035682050001101433,64d2fd46c836a06233681665,64dc7f80167cac6986c54705,,,,,,,decisionTrl,resources/DP.BMP,resources/DG.BMP,Door2,0.342592593,-0.040740741,1,0,0,2.0121,optionRight,40,2285,2,1,0,1,0,1,,,,,,,,,,,,,,,,,,,,,,,,,,,,,,,,,,,,,,,
,,,,,,,,2023-08-16_08h49.48.587,HF_wild_card,2022.2.4,Win32,6.26232896,57fc95035682050001101433,64d2fd46c836a06233681665,64dc7f80167cac6986c54705,,,,,,,decisionTrl,resources/DP.BMP,resources/DG.BMP,Door2,0.368518519,-0.008333333,1,0,0,1.6433,optionRight,40,2325,2,2,0,2,0,1,,,,,,,,,,,,,,,,,,,,,,,,,,,,,,,,,,,,,,,
,,,,,,,,2023-08-16_08h49.48.587,HF_wild_card,2022.2.4,Win32,6.26232896,57fc95035682050001101433,64d2fd46c836a06233681665,64dc7f80167cac6986c54705,,,,,,,decisionTrl,resources/DBN.BMP,resources/DG.BMP,WildCard_NonEx,-0.334259259,0.016666667,1,0,0,1.4231,optionLeft,45,2370,2,3,0,3,0,1,,,,,,,,,,,,,,,,,,,,,,,,,,,,,,,,,,,,,,,
,,,,,,,,2023-08-16_08h49.48.587,HF_wild_card,2022.2.4,Win32,6.26232896,57fc95035682050001101433,64d2fd46c836a06233681665,64dc7f80167cac6986c54705,,,,,,,sngl,resources/DBN.BMP,resources/Empty.png,WildCard_NonEx,-0.400925926,0.031481481,1,0,0,1.2486,optionLeft,45,2415,2,4,0,4,0,1,,,,,,,,,,,,,,,,,,,,,,,,,,,,,,,,,,,,,,,
,,,,,,,,2023-08-16_08h49.48.587,HF_wild_card,2022.2.4,Win32,6.26232896,57fc95035682050001101433,64d2fd46c836a06233681665,64dc7f80167cac6986c54705,,,,,,,decisionTrl,resources/DG.BMP,resources/DBN.BMP,WildCard_NonEx,0.439814815,-0.043518519,1,0,0,1.6506,optionRight,45,2460,2,5,0,5,0,1,,,,,,,,,,,,,,,,,,,,,,,,,,,,,,,,,,,,,,,
,,,,,,,,2023-08-16_08h49.48.587,HF_wild_card,2022.2.4,Win32,6.26232896,57fc95035682050001101433,64d2fd46c836a06233681665,64dc7f80167cac6986c54705,,,,,,,decisionTrl,resources/DG.BMP,resources/DP.BMP,Door2,-0.433333333,-0.009259259,1,0,0,3.4361,optionLeft,40,2500,2,6,0,6,0,1,,,,,,,,,,,,,,,,,,,,,,,,,,,,,,,,,,,,,,,
,,,,,,,,2023-08-16_08h49.48.587,HF_wild_card,2022.2.4,Win32,6.26232896,57fc95035682050001101433,64d2fd46c836a06233681665,64dc7f80167cac6986c54705,,,,,,,ctch,resources/DY.BMP,resources/DP.BMP,Door4,-0.32962963,-0.001851852,1,0,0,1.5392,optionLeft,80,2580,2,7,0,7,0,1,,,,,,,,,,,,,,,,,,,,,,,,,,,,,,,,,,,,,,,
,,,,,,,,2023-08-16_08h49.48.587,HF_wild_card,2022.2.4,Win32,6.26232896,57fc95035682050001101433,64d2fd46c836a06233681665,64dc7f80167cac6986c54705,,,,,,,sngl,resources/DP.BMP,resources/Empty.png,Door1,-0.368518519,0.022222222,1,0,0,1.2903,optionLeft,30,2610,2,8,0,8,0,1,,,,,,,,,,,,,,,,,,,,,,,,,,,,,,,,,,,,,,,
,,,,,,,,2023-08-16_08h49.48.587,HF_wild_card,2022.2.4,Win32,6.26232896,57fc95035682050001101433,64d2fd46c836a06233681665,64dc7f80167cac6986c54705,,,,,,,decisionTrl,resources/DY.BMP,resources/DB.BMP,Door3,0.39537037,-0.034259259,1,0,0,3.2483,optionRight,70,2680,2,9,0,9,0,1,,,,,,,,,,,,,,,,,,,,,,,,,,,,,,,,,,,,,,,
,,,,,,,,2023-08-16_08h49.48.587,HF_wild_card,2022.2.4,Win32,6.26232896,57fc95035682050001101433,64d2fd46c836a06233681665,64dc7f80167cac6986c54705,,,,,,,sngl,resources/Empty.png,resources/DY.BMP,Door4,0.397222222,-0.030555556,1,0,0,1.1048,optionRight,80,2760,2,10,0,10,0,1,,,,,,,,,,,,,,,,,,,,,,,,,,,,,,,,,,,,,,,
,,,,,,,,2023-08-16_08h49.48.587,HF_wild_card,2022.2.4,Win32,6.26232896,57fc95035682050001101433,64d2fd46c836a06233681665,64dc7f80167cac6986c54705,,,,,,,decisionTrl,resources/DB.BMP,resources/DY.BMP,Door4,0.364814815,0.012962963,1,0,0,1.6764,optionRight,80,2840,2,11,0,11,0,1,,,,,,,,,,,,,,,,,,,,,,,,,,,,,,,,,,,,,,,
,,,,,,,,2023-08-16_08h49.48.587,HF_wild_card,2022.2.4,Win32,6.26232896,57fc95035682050001101433,64d2fd46c836a06233681665,64dc7f80167cac6986c54705,,,,,,,ctch,resources/DY.BMP,resources/DP.BMP,Door4,-0.418518519,-0.003703704,1,0,0,1.4273,optionLeft,60,2900,2,12,0,12,0,1,,,,,,,,,,,,,,,,,,,,,,,,,,,,,,,,,,,,,,,
,,,,,,,,2023-08-16_08h49.48.587,HF_wild_card,2022.2.4,Win32,6.26232896,57fc95035682050001101433,64d2fd46c836a06233681665,64dc7f80167cac6986c54705,,,,,,,decisionTrl,resources/DBN.BMP,resources/DB.BMP,Door3,0.364814815,-0.012962963,1,0,0,1.9877,optionRight,70,2970,2,13,0,13,0,1,,,,,,,,,,,,,,,,,,,,,,,,,,,,,,,,,,,,,,,
,,,,,,,,2023-08-16_08h49.48.587,HF_wild_card,2022.2.4,Win32,6.26232896,57fc95035682050001101433,64d2fd46c836a06233681665,64dc7f80167cac6986c54705,,,,,,,decisionTrl,resources/DB.BMP,resources/DY.BMP,Door3,-0.337037037,-0.001851852,1,0,0,1.4079,optionLeft,70,3040,2,14,0,14,0,1,,,,,,,,,,,,,,,,,,,,,,,,,,,,,,,,,,,,,,,
,,,,,,,,2023-08-16_08h49.48.587,HF_wild_card,2022.2.4,Win32,6.26232896,57fc95035682050001101433,64d2fd46c836a06233681665,64dc7f80167cac6986c54705,,,,,,,ctch,resources/DP.BMP,resources/DY.BMP,Door4,0.45,-0.027777778,1,0,0,2.1126,optionRight,60,3100,2,15,0,15,0,1,,,,,,,,,,,,,,,,,,,,,,,,,,,,,,,,,,,,,,,
,,,,,,,,2023-08-16_08h49.48.587,HF_wild_card,2022.2.4,Win32,6.26232896,57fc95035682050001101433,64d2fd46c836a06233681665,64dc7f80167cac6986c54705,,,,,,,decisionTrl,resources/DB.BMP,resources/DY.BMP,Door3,-0.355555556,0.013888889,1,0,0,1.3795,optionLeft,70,3170,2,16,0,16,0,1,,,,,,,,,,,,,,,,,,,,,,,,,,,,,,,,,,,,,,,
,,,,,,,,2023-08-16_08h49.48.587,HF_wild_card,2022.2.4,Win32,6.26232896,57fc95035682050001101433,64d2fd46c836a06233681665,64dc7f80167cac6986c54705,,,,,,,decisionTrl,resources/DG.BMP,resources/DP.BMP,Door2,-0.4,0.025,1,0,0,2.1998,optionLeft,20,3190,2,17,0,17,0,1,,,,,,,,,,,,,,,,,,,,,,,,,,,,,,,,,,,,,,,
,,,,,,,,2023-08-16_08h49.48.587,HF_wild_card,2022.2.4,Win32,6.26232896,57fc95035682050001101433,64d2fd46c836a06233681665,64dc7f80167cac6986c54705,,,,,,,sngl,resources/DY.BMP,resources/Empty.png,Door4,-0.274074074,-0.024074074,1,0,0,1.1121,optionLeft,60,3250,2,18,0,18,0,1,,,,,,,,,,,,,,,,,,,,,,,,,,,,,,,,,,,,,,,
,,,,,,,,2023-08-16_08h49.48.587,HF_wild_card,2022.2.4,Win32,6.26232896,57fc95035682050001101433,64d2fd46c836a06233681665,64dc7f80167cac6986c54705,,,,,,,sngl,resources/DG.BMP,resources/Empty.png,Door2,-0.256481481,-0.026851852,1,0,0,1.2587,optionLeft,20,3270,2,19,0,19,0,1,,,,,,,,,,,,,,,,,,,,,,,,,,,,,,,,,,,,,,,
,,,,,,,,2023-08-16_08h49.48.587,HF_wild_card,2022.2.4,Win32,6.26232896,57fc95035682050001101433,64d2fd46c836a06233681665,64dc7f80167cac6986c54705,,,,,,,decisionTrl,resources/DP.BMP,resources/DG.BMP,Door2,0.350925926,0.007407407,1,0,0,4.0269,optionRight,40,3310,2,20,0,20,0,1,,,,,,,,,,,,,,,,,,,,,,,,,,,,,,,,,,,,,,,
,,,,,,,,2023-08-16_08h49.48.587,HF_wild_card,2022.2.4,Win32,6.26232896,57fc95035682050001101433,64d2fd46c836a06233681665,64dc7f80167cac6986c54705,,,,,,,sngl,resources/Empty.png,resources/DG.BMP,Door2,0.358333333,-0.010185185,1,0,0,1.0573,optionRight,40,3350,2,21,0,21,0,1,,,,,,,,,,,,,,,,,,,,,,,,,,,,,,,,,,,,,,,
,,,,,,,,2023-08-16_08h49.48.587,HF_wild_card,2022.2.4,Win32,6.26232896,57fc95035682050001101433,64d2fd46c836a06233681665,64dc7f80167cac6986c54705,,,,,,,sngl,resources/Empty.png,resources/DBN.BMP,WildCard_NonEx,0.357407407,0.00462963,1,0,0,1.2428,optionRight,55,3405,2,22,0,22,0,1,,,,,,,,,,,,,,,,,,,,,,,,,,,,,,,,,,,,,,,
,,,,,,,,2023-08-16_08h49.48.587,HF_wild_card,2022.2.4,Win32,6.26232896,57fc95035682050001101433,64d2fd46c836a06233681665,64dc7f80167cac6986c54705,,,,,,,ctch,resources/DB.BMP,resources/DG.BMP,Door3,-0.272222222,0.022222222,1,0,0,1.756,optionLeft,70,3475,2,23,0,23,0,1,,,,,,,,,,,,,,,,,,,,,,,,,,,,,,,,,,,,,,,
,,,,,,,,2023-08-16_08h49.48.587,HF_wild_card,2022.2.4,Win32,6.26232896,57fc95035682050001101433,64d2fd46c836a06233681665,64dc7f80167cac6986c54705,,,,,,,decisionTrl,resources/DP.BMP,resources/DBN.BMP,WildCard_NonEx,0.376851852,-0.009259259,1,0,0,1.658,optionRight,45,3520,2,24,0,24,0,1,,,,,,,,,,,,,,,,,,,,,,,,,,,,,,,,,,,,,,,
,,,,,,,,2023-08-16_08h49.48.587,HF_wild_card,2022.2.4,Win32,6.26232896,57fc95035682050001101433,64d2fd46c836a06233681665,64dc7f80167cac6986c54705,,,,,,,decisionTrl,resources/DBN.BMP,resources/DY.BMP,Door4,0.300925926,-0.009259259,1,0,0,1.3987,optionRight,60,3580,2,25,0,25,0,1,,,,,,,,,,,,,,,,,,,,,,,,,,,,,,,,,,,,,,,
,,,,,,,,2023-08-16_08h49.48.587,HF_wild_card,2022.2.4,Win32,6.26232896,57fc95035682050001101433,64d2fd46c836a06233681665,64dc7f80167cac6986c54705,,,,,,,decisionTrl,resources/DY.BMP,resources/DB.BMP,Door4,-0.284259259,0.003703704,1,0,0,0.9404,optionLeft,60,3640,2,26,0,26,0,1,,,,,,,,,,,,,,,,,,,,,,,,,,,,,,,,,,,,,,,
,,,,,,,,2023-08-16_08h49.48.587,HF_wild_card,2022.2.4,Win32,6.26232896,57fc95035682050001101433,64d2fd46c836a06233681665,64dc7f80167cac6986c54705,,,,,,,decisionTrl,resources/DBN.BMP,resources/DP.BMP,WildCard_NonEx,-0.3,0.032407407,1,0,0,1.9235,optionLeft,45,3685,2,27,0,27,0,1,,,,,,,,,,,,,,,,,,,,,,,,,,,,,,,,,,,,,,,
,,,,,,,,2023-08-16_08h49.48.587,HF_wild_card,2022.2.4,Win32,6.26232896,57fc95035682050001101433,64d2fd46c836a06233681665,64dc7f80167cac6986c54705,,,,,,,decisionTrl,resources/DB.BMP,resources/DY.BMP,Door4,0.337962963,0.007407407,1,0,0,1.3811,optionRight,80,3765,2,28,0,28,0,1,,,,,,,,,,,,,,,,,,,,,,,,,,,,,,,,,,,,,,,
,,,,,,,,2023-08-16_08h49.48.587,HF_wild_card,2022.2.4,Win32,6.26232896,57fc95035682050001101433,64d2fd46c836a06233681665,64dc7f80167cac6986c54705,,,,,,,sngl,resources/Empty.png,resources/DB.BMP,Door3,0.228703704,-0.012037037,1,0,0,1.2891,optionRight,70,3835,2,29,0,29,0,1,,,,,,,,,,,,,,,,,,,,,,,,,,,,,,,,,,,,,,,
,,,,,,,,2023-08-16_08h49.48.587,HF_wild_card,2022.2.4,Win32,6.26232896,57fc95035682050001101433,64d2fd46c836a06233681665,64dc7f80167cac6986c54705,,,,,,,decisionTrl,resources/DG.BMP,resources/DP.BMP,Door1,0.359259259,-0.038888889,1,0,0,2.3935,optionRight,30,3865,2,30,0,30,0,1,,,,,,,,,,,,,,,,,,,,,,,,,,,,,,,,,,,,,,,
,,,,,,,,2023-08-16_08h49.48.587,HF_wild_card,2022.2.4,Win32,6.26232896,57fc95035682050001101433,64d2fd46c836a06233681665,64dc7f80167cac6986c54705,,,,,,,sngl,resources/DBN.BMP,resources/Empty.png,WildCard_NonEx,-0.293518519,0.005555556,1,0,0,1.3298,optionLeft,55,3920,2,31,0,31,0,1,,,,,,,,,,,,,,,,,,,,,,,,,,,,,,,,,,,,,,,
,,,,,,,,2023-08-16_08h49.48.587,HF_wild_card,2022.2.4,Win32,6.26232896,57fc95035682050001101433,64d2fd46c836a06233681665,64dc7f80167cac6986c54705,,,,,,,sngl,resources/DB.BMP,resources/Empty.png,Door3,-0.231481481,-0.047222222,1,0,0,1.2576,optionLeft,70,3990,2,32,0,32,0,1,,,,,,,,,,,,,,,,,,,,,,,,,,,,,,,,,,,,,,,
,,,,,,,,2023-08-16_08h49.48.587,HF_wild_card,2022.2.4,Win32,6.26232896,57fc95035682050001101433,64d2fd46c836a06233681665,64dc7f80167cac6986c54705,,,,,,,ctch,resources/DG.BMP,resources/DB.BMP,Door3,0.412962963,-0.02962963,1,0,0,1.2112,optionRight,70,4060,2,33,0,33,0,1,,,,,,,,,,,,,,,,,,,,,,,,,,,,,,,,,,,,,,,
,,,,,,,,2023-08-16_08h49.48.587,HF_wild_card,2022.2.4,Win32,6.26232896,57fc95035682050001101433,64d2fd46c836a06233681665,64dc7f80167cac6986c54705,,,,,,,decisionTrl,resources/DP.BMP,resources/DG.BMP,Door2,0.311111111,-0.007407407,1,0,0,2.6376,optionRight,40,4100,2,34,0,34,0,1,,,,,,,,,,,,,,,,,,,,,,,,,,,,,,,,,,,,,,,
,,,,,,,,2023-08-16_08h49.48.587,HF_wild_card,2022.2.4,Win32,6.26232896,57fc95035682050001101433,64d2fd46c836a06233681665,64dc7f80167cac6986c54705,,,,,,,decisionTrl,resources/DB.BMP,resources/DBN.BMP,Door3,-0.343518519,-0.033333333,1,0,0,1.7562,optionLeft,70,4170,2,35,0,35,0,1,,,,,,,,,,,,,,,,,,,,,,,,,,,,,,,,,,,,,,,
,,,,,,,,2023-08-16_08h49.48.587,HF_wild_card,2022.2.4,Win32,6.26232896,57fc95035682050001101433,64d2fd46c836a06233681665,64dc7f80167cac6986c54705,,,,,,,decisionTrl,resources/DG.BMP,resources/DP.BMP,Door1,0.360185185,-0.015740741,1,0,0,1.6306,optionRight,30,4200,2,36,0,36,0,1,,,,,,,,,,,,,,,,,,,,,,,,,,,,,,,,,,,,,,,
,,,,,,,,2023-08-16_08h49.48.587,HF_wild_card,2022.2.4,Win32,6.26232896,57fc95035682050001101433,64d2fd46c836a06233681665,64dc7f80167cac6986c54705,,,,,,,ctch,resources/DP.BMP,resources/DY.BMP,Door4,0.269444444,0.014814815,1,0,0,1.3802,optionRight,80,4280,2,37,0,37,0,1,,,,,,,,,,,,,,,,,,,,,,,,,,,,,,,,,,,,,,,
,,,,,,,,2023-08-16_08h49.48.587,HF_wild_card,2022.2.4,Win32,6.26232896,57fc95035682050001101433,64d2fd46c836a06233681665,64dc7f80167cac6986c54705,,,,,,,decisionTrl,resources/DY.BMP,resources/DBN.BMP,Door4,-0.325,0.065740741,1,0,0,1.4247,optionLeft,80,4360,2,38,0,38,0,1,,,,,,,,,,,,,,,,,,,,,,,,,,,,,,,,,,,,,,,
,,,,,,,,2023-08-16_08h49.48.587,HF_wild_card,2022.2.4,Win32,6.26232896,57fc95035682050001101433,64d2fd46c836a06233681665,64dc7f80167cac6986c54705,,,,,,,decisionTrl,resources/DY.BMP,resources/DB.BMP,Door4,-0.349074074,0.083333333,1,0,0,1.2071,optionLeft,80,4440,2,39,0,39,0,1,,,,,,,,,,,,,,,,,,,,,,,,,,,,,,,,,,,,,,,
,,,,,,,,2023-08-16_08h49.48.587,HF_wild_card,2022.2.4,Win32,6.26232896,57fc95035682050001101433,64d2fd46c836a06233681665,64dc7f80167cac6986c54705,,,,,,,sngl,resources/Empty.png,resources/DBN.BMP,WildCard_NonEx,0.29537037,0.009259259,1,0,0,2.3977,optionRight,45,4485,2,40,0,40,0,1,,,,,,,,,,,,,,,,,,,,,,,,,,,,,,,,,,,,,,,
,,,,,,,,2023-08-16_08h49.48.587,HF_wild_card,2022.2.4,Win32,6.26232896,57fc95035682050001101433,64d2fd46c836a06233681665,64dc7f80167cac6986c54705,,,,,,,decisionTrl,resources/DY.BMP,resources/DB.BMP,Door4,-0.311111111,-0.040740741,1,0,0,1.251,optionLeft,60,4545,2,41,0,41,0,1,,,,,,,,,,,,,,,,,,,,,,,,,,,,,,,,,,,,,,,
,,,,,,,,2023-08-16_08h49.48.587,HF_wild_card,2022.2.4,Win32,6.26232896,57fc95035682050001101433,64d2fd46c836a06233681665,64dc7f80167cac6986c54705,,,,,,,ctch,resources/DG.BMP,resources/DB.BMP,Door3,0.321296296,0.028703704,1,0,0,1.1672,optionRight,70,4615,2,42,0,42,0,1,,,,,,,,,,,,,,,,,,,,,,,,,,,,,,,,,,,,,,,
,,,,,,,,2023-08-16_08h49.48.587,HF_wild_card,2022.2.4,Win32,6.26232896,57fc95035682050001101433,64d2fd46c836a06233681665,64dc7f80167cac6986c54705,,,,,,,sngl,resources/Empty.png,resources/DP.BMP,Door1,0.162037037,0.011111111,1,0,0,1.2858,optionRight,30,4645,2,43,0,43,0,1,,,,,,,,,,,,,,,,,,,,,,,,,,,,,,,,,,,,,,,
,,,,,,,,2023-08-16_08h49.48.587,HF_wild_card,2022.2.4,Win32,6.26232896,57fc95035682050001101433,64d2fd46c836a06233681665,64dc7f80167cac6986c54705,,,,,,,,,,,,,,,,,,,,,,,,,,1,0,1,0,1,,,,,,,,,,,,,,,,,,,,,,,,,,,,,,,,,,
,,,,,,,,2023-08-16_08h49.48.587,HF_wild_card,2022.2.4,Win32,6.26232896,57fc95035682050001101433,64d2fd46c836a06233681665,64dc7f80167cac6986c54705,,,,,,,decisionTrl,resources/DB.BMP,resources/DY.BMP,Door3,-0.367592593,-0.014814815,1,0,0,1.7075,optionLeft,70,4715,3,0,0,0,0,1,,,,,,,,,,,,,,,,,,,,,,,,,,,,,,,,,,,,,,,
,,,,,,,,2023-08-16_08h49.48.587,HF_wild_card,2022.2.4,Win32,6.26232896,57fc95035682050001101433,64d2fd46c836a06233681665,64dc7f80167cac6986c54705,,,,,,,ctch,resources/DB.BMP,resources/DG.BMP,Door3,-0.363888889,0.000925926,1,0,0,1.9608,optionLeft,70,4785,3,1,0,1,0,1,,,,,,,,,,,,,,,,,,,,,,,,,,,,,,,,,,,,,,,
,,,,,,,,2023-08-16_08h49.48.587,HF_wild_card,2022.2.4,Win32,6.26232896,57fc95035682050001101433,64d2fd46c836a06233681665,64dc7f80167cac6986c54705,,,,,,,decisionTrl,resources/DB.BMP,resources/DY.BMP,Door4,0.257407407,-0.013888889,1,0,0,4.0527,optionRight,60,4845,3,2,0,2,0,1,,,,,,,,,,,,,,,,,,,,,,,,,,,,,,,,,,,,,,,
,,,,,,,,2023-08-16_08h49.48.587,HF_wild_card,2022.2.4,Win32,6.26232896,57fc95035682050001101433,64d2fd46c836a06233681665,64dc7f80167cac6986c54705,,,,,,,decisionTrl,resources/DBN.BMP,resources/DY.BMP,Door4,0.284259259,0.011111111,1,0,0,1.1673,optionRight,60,4905,3,3,0,3,0,1,,,,,,,,,,,,,,,,,,,,,,,,,,,,,,,,,,,,,,,
,,,,,,,,2023-08-16_08h49.48.587,HF_wild_card,2022.2.4,Win32,6.26232896,57fc95035682050001101433,64d2fd46c836a06233681665,64dc7f80167cac6986c54705,,,,,,,decisionTrl,resources/DP.BMP,resources/DG.BMP,Door2,0.242592593,0.010185185,1,0,0,1.8804,optionRight,40,4945,3,4,0,4,0,1,,,,,,,,,,,,,,,,,,,,,,,,,,,,,,,,,,,,,,,
,,,,,,,,2023-08-16_08h49.48.587,HF_wild_card,2022.2.4,Win32,6.26232896,57fc95035682050001101433,64d2fd46c836a06233681665,64dc7f80167cac6986c54705,,,,,,,sngl,resources/Empty.png,resources/DP.BMP,Door1,0.190740741,0.039814815,1,0,0,1.0628,optionRight,30,4975,3,5,0,5,0,1,,,,,,,,,,,,,,,,,,,,,,,,,,,,,,,,,,,,,,,
,,,,,,,,2023-08-16_08h49.48.587,HF_wild_card,2022.2.4,Win32,6.26232896,57fc95035682050001101433,64d2fd46c836a06233681665,64dc7f80167cac6986c54705,,,,,,,sngl,resources/DG.BMP,resources/Empty.png,Door2,-0.289814815,-0.005555556,1,0,0,1.0528,optionLeft,40,5015,3,6,0,6,0,1,,,,,,,,,,,,,,,,,,,,,,,,,,,,,,,,,,,,,,,
,,,,,,,,2023-08-16_08h49.48.587,HF_wild_card,2022.2.4,Win32,6.26232896,57fc95035682050001101433,64d2fd46c836a06233681665,64dc7f80167cac6986c54705,,,,,,,decisionTrl,resources/DP.BMP,resources/DG.BMP,Door2,0.218518519,-0.00462963,1,0,0,1.22,optionRight,20,5035,3,7,0,7,0,1,,,,,,,,,,,,,,,,,,,,,,,,,,,,,,,,,,,,,,,
,,,,,,,,2023-08-16_08h49.48.587,HF_wild_card,2022.2.4,Win32,6.26232896,57fc95035682050001101433,64d2fd46c836a06233681665,64dc7f80167cac6986c54705,,,,,,,decisionTrl,resources/DP.BMP,resources/DG.BMP,Door1,-0.239814815,-0.007407407,1,0,0,1.1612,optionLeft,30,5065,3,8,0,8,0,1,,,,,,,,,,,,,,,,,,,,,,,,,,,,,,,,,,,,,,,
,,,,,,,,2023-08-16_08h49.48.587,HF_wild_card,2022.2.4,Win32,6.26232896,57fc95035682050001101433,64d2fd46c836a06233681665,64dc7f80167cac6986c54705,,,,,,,sngl,resources/Empty.png,resources/DBN.BMP,WildCard_NonEx,0.275925926,0.000925926,1,0,0,1.0808,optionRight,55,5120,3,9,0,9,0,1,,,,,,,,,,,,,,,,,,,,,,,,,,,,,,,,,,,,,,,
,,,,,,,,2023-08-16_08h49.48.587,HF_wild_card,2022.2.4,Win32,6.26232896,57fc95035682050001101433,64d2fd46c836a06233681665,64dc7f80167cac6986c54705,,,,,,,decisionTrl,resources/DBN.BMP,resources/DB.BMP,Door3,0.313888889,0.018518519,1,0,0,2.3649,optionRight,70,5190,3,10,0,10,0,1,,,,,,,,,,,,,,,,,,,,,,,,,,,,,,,,,,,,,,,
,,,,,,,,2023-08-16_08h49.48.587,HF_wild_card,2022.2.4,Win32,6.26232896,57fc95035682050001101433,64d2fd46c836a06233681665,64dc7f80167cac6986c54705,,,,,,,sngl,resources/DP.BMP,resources/Empty.png,Door1,-0.211111111,0.039814815,1,0,0,1.4845,optionLeft,30,5220,3,11,0,11,0,1,,,,,,,,,,,,,,,,,,,,,,,,,,,,,,,,,,,,,,,
,,,,,,,,2023-08-16_08h49.48.587,HF_wild_card,2022.2.4,Win32,6.26232896,57fc95035682050001101433,64d2fd46c836a06233681665,64dc7f80167cac6986c54705,,,,,,,sngl,resources/DB.BMP,resources/Empty.png,Door3,-0.235185185,-0.022222222,1,0,0,1.0756,optionLeft,70,5290,3,12,0,12,0,1,,,,,,,,,,,,,,,,,,,,,,,,,,,,,,,,,,,,,,,
,,,,,,,,2023-08-16_08h49.48.587,HF_wild_card,2022.2.4,Win32,6.26232896,57fc95035682050001101433,64d2fd46c836a06233681665,64dc7f80167cac6986c54705,,,,,,,ctch,resources/DG.BMP,resources/DB.BMP,Door3,0.261111111,-0.048148148,1,0,0,1.2352,optionRight,70,5360,3,13,0,13,0,1,,,,,,,,,,,,,,,,,,,,,,,,,,,,,,,,,,,,,,,
,,,,,,,,2023-08-16_08h49.48.587,HF_wild_card,2022.2.4,Win32,6.26232896,57fc95035682050001101433,64d2fd46c836a06233681665,64dc7f80167cac6986c54705,,,,,,,ctch,resources/DP.BMP,resources/DY.BMP,Door4,0.212962963,0.025,1,0,0,1.4328,optionRight,80,5440,3,14,0,14,0,1,,,,,,,,,,,,,,,,,,,,,,,,,,,,,,,,,,,,,,,
,,,,,,,,2023-08-16_08h49.48.587,HF_wild_card,2022.2.4,Win32,6.26232896,57fc95035682050001101433,64d2fd46c836a06233681665,64dc7f80167cac6986c54705,,,,,,,ctch,resources/DY.BMP,resources/DP.BMP,Door4,-0.236111111,0.022222222,1,0,0,1.2014,optionLeft,60,5500,3,15,0,15,0,1,,,,,,,,,,,,,,,,,,,,,,,,,,,,,,,,,,,,,,,
,,,,,,,,2023-08-16_08h49.48.587,HF_wild_card,2022.2.4,Win32,6.26232896,57fc95035682050001101433,64d2fd46c836a06233681665,64dc7f80167cac6986c54705,,,,,,,sngl,resources/Empty.png,resources/DB.BMP,Door3,0.291666667,-0.001851852,1,0,0,1.0582,optionRight,70,5570,3,16,0,16,0,1,,,,,,,,,,,,,,,,,,,,,,,,,,,,,,,,,,,,,,,
,,,,,,,,2023-08-16_08h49.48.587,HF_wild_card,2022.2.4,Win32,6.26232896,57fc95035682050001101433,64d2fd46c836a06233681665,64dc7f80167cac6986c54705,,,,,,,decisionTrl,resources/DY.BMP,resources/DBN.BMP,Door4,-0.217592593,0,1,0,0,1.3218,optionLeft,80,5650,3,17,0,17,0,1,,,,,,,,,,,,,,,,,,,,,,,,,,,,,,,,,,,,,,,
,,,,,,,,2023-08-16_08h49.48.587,HF_wild_card,2022.2.4,Win32,6.26232896,57fc95035682050001101433,64d2fd46c836a06233681665,64dc7f80167cac6986c54705,,,,,,,sngl,resources/DBN.BMP,resources/Empty.png,WildCard_NonEx,-0.283333333,0.026851852,1,0,0,1.0862,optionLeft,55,5705,3,18,0,18,0,1,,,,,,,,,,,,,,,,,,,,,,,,,,,,,,,,,,,,,,,
,,,,,,,,2023-08-16_08h49.48.587,HF_wild_card,2022.2.4,Win32,6.26232896,57fc95035682050001101433,64d2fd46c836a06233681665,64dc7f80167cac6986c54705,,,,,,,decisionTrl,resources/DG.BMP,resources/DP.BMP,Door1,0.243518519,-0.037962963,1,0,0,1.626,optionRight,30,5735,3,19,0,19,0,1,,,,,,,,,,,,,,,,,,,,,,,,,,,,,,,,,,,,,,,
,,,,,,,,2023-08-16_08h49.48.587,HF_wild_card,2022.2.4,Win32,6.26232896,57fc95035682050001101433,64d2fd46c836a06233681665,64dc7f80167cac6986c54705,,,,,,,ctch,resources/DG.BMP,resources/DB.BMP,Door3,0.260185185,-0.017592593,1,0,0,1.3761,optionRight,70,5805,3,20,0,20,0,1,,,,,,,,,,,,,,,,,,,,,,,,,,,,,,,,,,,,,,,
,,,,,,,,2023-08-16_08h49.48.587,HF_wild_card,2022.2.4,Win32,6.26232896,57fc95035682050001101433,64d2fd46c836a06233681665,64dc7f80167cac6986c54705,,,,,,,decisionTrl,resources/DBN.BMP,resources/DP.BMP,WildCard_NonEx,-0.19537037,-0.041666667,1,0,0,1.8974,optionLeft,55,5860,3,21,0,21,0,1,,,,,,,,,,,,,,,,,,,,,,,,,,,,,,,,,,,,,,,
,,,,,,,,2023-08-16_08h49.48.587,HF_wild_card,2022.2.4,Win32,6.26232896,57fc95035682050001101433,64d2fd46c836a06233681665,64dc7f80167cac6986c54705,,,,,,,sngl,resources/Empty.png,resources/DBN.BMP,WildCard_NonEx,0.265740741,0.038888889,1,0,0,1.0711,optionRight,45,5905,3,22,0,22,0,1,,,,,,,,,,,,,,,,,,,,,,,,,,,,,,,,,,,,,,,
,,,,,,,,2023-08-16_08h49.48.587,HF_wild_card,2022.2.4,Win32,6.26232896,57fc95035682050001101433,64d2fd46c836a06233681665,64dc7f80167cac6986c54705,,,,,,,decisionTrl,resources/DBN.BMP,resources/DG.BMP,WildCard_NonEx,-0.346296296,0.066666667,1,0,0,1.2321,optionLeft,55,5960,3,23,0,23,0,1,,,,,,,,,,,,,,,,,,,,,,,,,,,,,,,,,,,,,,,
,,,,,,,,2023-08-16_08h49.48.587,HF_wild_card,2022.2.4,Win32,6.26232896,57fc95035682050001101433,64d2fd46c836a06233681665,64dc7f80167cac6986c54705,,,,,,,decisionTrl,resources/DY.BMP,resources/DB.BMP,Door4,-0.406481481,0.009259259,1,0,0,1.609,optionLeft,60,6020,3,24,0,24,0,1,,,,,,,,,,,,,,,,,,,,,,,,,,,,,,,,,,,,,,,
,,,,,,,,2023-08-16_08h49.48.587,HF_wild_card,2022.2.4,Win32,6.26232896,57fc95035682050001101433,64d2fd46c836a06233681665,64dc7f80167cac6986c54705,,,,,,,decisionTrl,resources/DB.BMP,resources/DBN.BMP,Door3,-0.250925926,0.042592593,1,0,0,1.17,optionLeft,70,6090,3,25,0,25,0,1,,,,,,,,,,,,,,,,,,,,,,,,,,,,,,,,,,,,,,,
,,,,,,,,2023-08-16_08h49.48.587,HF_wild_card,2022.2.4,Win32,6.26232896,57fc95035682050001101433,64d2fd46c836a06233681665,64dc7f80167cac6986c54705,,,,,,,decisionTrl,resources/DB.BMP,resources/DY.BMP,Door3,-0.272222222,0.057407407,1,0,0,0.909,optionLeft,70,6160,3,26,0,26,0,1,,,,,,,,,,,,,,,,,,,,,,,,,,,,,,,,,,,,,,,
,,,,,,,,2023-08-16_08h49.48.587,HF_wild_card,2022.2.4,Win32,6.26232896,57fc95035682050001101433,64d2fd46c836a06233681665,64dc7f80167cac6986c54705,,,,,,,decisionTrl,resources/DG.BMP,resources/DP.BMP,Door1,0.375925926,-0.048148148,1,0,0,2.4607,optionRight,30,6190,3,27,0,27,0,1,,,,,,,,,,,,,,,,,,,,,,,,,,,,,,,,,,,,,,,
,,,,,,,,2023-08-16_08h49.48.587,HF_wild_card,2022.2.4,Win32,6.26232896,57fc95035682050001101433,64d2fd46c836a06233681665,64dc7f80167cac6986c54705,,,,,,,sngl,resources/Empty.png,resources/DY.BMP,Door4,0.268518519,-0.006481481,1,0,0,1.0699,optionRight,60,6250,3,28,0,28,0,1,,,,,,,,,,,,,,,,,,,,,,,,,,,,,,,,,,,,,,,
,,,,,,,,2023-08-16_08h49.48.587,HF_wild_card,2022.2.4,Win32,6.26232896,57fc95035682050001101433,64d2fd46c836a06233681665,64dc7f80167cac6986c54705,,,,,,,decisionTrl,resources/DB.BMP,resources/DY.BMP,Door3,-0.328703704,-0.013888889,1,0,0,2.2925,optionLeft,70,6320,3,29,0,29,0,1,,,,,,,,,,,,,,,,,,,,,,,,,,,,,,,,,,,,,,,
,,,,,,,,2023-08-16_08h49.48.587,HF_wild_card,2022.2.4,Win32,6.26232896,57fc95035682050001101433,64d2fd46c836a06233681665,64dc7f80167cac6986c54705,,,,,,,decisionTrl,resources/DP.BMP,resources/DG.BMP,Door2,0.248148148,0.024074074,1,0,0,2.1066,optionRight,20,6340,3,30,0,30,0,1,,,,,,,,,,,,,,,,,,,,,,,,,,,,,,,,,,,,,,,
,,,,,,,,2023-08-16_08h49.48.587,HF_wild_card,2022.2.4,Win32,6.26232896,57fc95035682050001101433,64d2fd46c836a06233681665,64dc7f80167cac6986c54705,,,,,,,decisionTrl,resources/DY.BMP,resources/DB.BMP,Door4,-0.319444444,0.010185185,1,0,0,1.3055,optionLeft,80,6420,3,31,0,31,0,1,,,,,,,,,,,,,,,,,,,,,,,,,,,,,,,,,,,,,,,
,,,,,,,,2023-08-16_08h49.48.587,HF_wild_card,2022.2.4,Win32,6.26232896,57fc95035682050001101433,64d2fd46c836a06233681665,64dc7f80167cac6986c54705,,,,,,,ctch,resources/DY.BMP,resources/DP.BMP,Door4,-0.267592593,0.015740741,1,0,0,1.1446,optionLeft,80,6500,3,32,0,32,0,1,,,,,,,,,,,,,,,,,,,,,,,,,,,,,,,,,,,,,,,
,,,,,,,,2023-08-16_08h49.48.587,HF_wild_card,2022.2.4,Win32,6.26232896,57fc95035682050001101433,64d2fd46c836a06233681665,64dc7f80167cac6986c54705,,,,,,,sngl,resources/DY.BMP,resources/Empty.png,Door4,-0.225,-0.007407407,1,0,0,0.8935,optionLeft,80,6580,3,33,0,33,0,1,,,,,,,,,,,,,,,,,,,,,,,,,,,,,,,,,,,,,,,
,,,,,,,,2023-08-16_08h49.48.587,HF_wild_card,2022.2.4,Win32,6.26232896,57fc95035682050001101433,64d2fd46c836a06233681665,64dc7f80167cac6986c54705,,,,,,,decisionTrl,resources/DP.BMP,resources/DBN.BMP,WildCard_NonEx,0.275925926,0.02037037,1,0,0,2.1393,optionRight,55,6635,3,34,0,34,0,1,,,,,,,,,,,,,,,,,,,,,,,,,,,,,,,,,,,,,,,
,,,,,,,,2023-08-16_08h49.48.587,HF_wild_card,2022.2.4,Win32,6.26232896,57fc95035682050001101433,64d2fd46c836a06233681665,64dc7f80167cac6986c54705,,,,,,,decisionTrl,resources/DG.BMP,resources/DBN.BMP,WildCard_NonEx,0.199074074,0.025,1,0,0,1.1765,optionRight,55,6690,3,35,0,35,0,1,,,,,,,,,,,,,,,,,,,,,,,,,,,,,,,,,,,,,,,
,,,,,,,,2023-08-16_08h49.48.587,HF_wild_card,2022.2.4,Win32,6.26232896,57fc95035682050001101433,64d2fd46c836a06233681665,64dc7f80167cac6986c54705,,,,,,,ctch,resources/DP.BMP,resources/DY.BMP,Door4,0.288888889,0.006481481,1,0,0,1.2355,optionRight,80,6770,3,36,0,36,0,1,,,,,,,,,,,,,,,,,,,,,,,,,,,,,,,,,,,,,,,
,,,,,,,,2023-08-16_08h49.48.587,HF_wild_card,2022.2.4,Win32,6.26232896,57fc95035682050001101433,64d2fd46c836a06233681665,64dc7f80167cac6986c54705,,,,,,,decisionTrl,resources/DY.BMP,resources/DB.BMP,Door4,-0.175,-0.042592593,1,0,0,1.4064,optionLeft,80,6850,3,37,0,37,0,1,,,,,,,,,,,,,,,,,,,,,,,,,,,,,,,,,,,,,,,
,,,,,,,,2023-08-16_08h49.48.587,HF_wild_card,2022.2.4,Win32,6.26232896,57fc95035682050001101433,64d2fd46c836a06233681665,64dc7f80167cac6986c54705,,,,,,,ctch,resources/DB.BMP,resources/DG.BMP,Door3,-0.316666667,0.002777778,1,0,0,1.658,optionLeft,70,6920,3,38,0,38,0,1,,,,,,,,,,,,,,,,,,,,,,,,,,,,,,,,,,,,,,,
,,,,,,,,2023-08-16_08h49.48.587,HF_wild_card,2022.2.4,Win32,6.26232896,57fc95035682050001101433,64d2fd46c836a06233681665,64dc7f80167cac6986c54705,,,,,,,decisionTrl,resources/DG.BMP,resources/DP.BMP,Door2,-0.292592593,-0.037037037,1,0,0,1.8634,optionLeft,40,6960,3,39,0,39,0,1,,,,,,,,,,,,,,,,,,,,,,,,,,,,,,,,,,,,,,,
,,,,,,,,2023-08-16_08h49.48.587,HF_wild_card,2022.2.4,Win32,6.26232896,57fc95035682050001101433,64d2fd46c836a06233681665,64dc7f80167cac6986c54705,,,,,,,sngl,resources/Empty.png,resources/DG.BMP,Door2,0.011111111,0.012037037,1,0,0,0.6642,optionRight,20,6980,3,40,0,40,0,1,,,,,,,,,,,,,,,,,,,,,,,,,,,,,,,,,,,,,,,
,,,,,,,,2023-08-16_08h49.48.587,HF_wild_card,2022.2.4,Win32,6.26232896,57fc95035682050001101433,64d2fd46c836a06233681665,64dc7f80167cac6986c54705,,,,,,,sngl,resources/DBN.BMP,resources/Empty.png,WildCard_NonEx,0.000925926,0.002777778,1,0,0,0.6422,optionLeft,45,7025,3,41,0,41,0,1,,,,,,,,,,,,,,,,,,,,,,,,,,,,,,,,,,,,,,,
,,,,,,,,2023-08-16_08h49.48.587,HF_wild_card,2022.2.4,Win32,6.26232896,57fc95035682050001101433,64d2fd46c836a06233681665,64dc7f80167cac6986c54705,,,,,,,decisionTrl,resources/DG.BMP,resources/DP.BMP,Door2,-0.27037037,-0.050925926,1,0,0,1.4424,optionLeft,40,7065,3,42,0,42,0,1,,,,,,,,,,,,,,,,,,,,,,,,,,,,,,,,,,,,,,,
,,,,,,,,2023-08-16_08h49.48.587,HF_wild_card,2022.2.4,Win32,6.26232896,57fc95035682050001101433,64d2fd46c836a06233681665,64dc7f80167cac6986c54705,,,,,,,decisionTrl,resources/DY.BMP,resources/DB.BMP,Door4,-0.439814815,-0.016666667,1,0,0,1.3811,optionLeft,60,7125,3,43,0,43,0,1,,,,,,,,,,,,,,,,,,,,,,,,,,,,,,,,,,,,,,,
,,,,,,,,2023-08-16_08h49.48.587,HF_wild_card,2022.2.4,Win32,6.26232896,57fc95035682050001101433,64d2fd46c836a06233681665,64dc7f80167cac6986c54705,,,,,,,,,,,,,,,,,,,,,,,,,,2,0,2,0,1,,,,,,,,,,,,,,,,,,,,,,,,,,,,,,,,,,
,,,,,,,,2023-08-16_08h49.48.587,HF_wild_card,2022.2.4,Win32,6.26232896,57fc95035682050001101433,64d2fd46c836a06233681665,64dc7f80167cac6986c54705,,,,,,,decisionTrl,resources/DR.BMP,resources/DB.BMP,WildCard_Ex,-0.391666667,0.006481481,1,0,0,2.1562,optionLeft,45,7170,4,0,0,0,0,1,,,,,,,,,,,,,,,,,,,,,,,,,,,,,,,,,,,,,,,
,,,,,,,,2023-08-16_08h49.48.587,HF_wild_card,2022.2.4,Win32,6.26232896,57fc95035682050001101433,64d2fd46c836a06233681665,64dc7f80167cac6986c54705,,,,,,,decisionTrl,resources/DB.BMP,resources/DY.BMP,Door4,0.437962963,-0.041666667,1,0,0,1.7068,optionRight,80,7250,4,1,0,1,0,1,,,,,,,,,,,,,,,,,,,,,,,,,,,,,,,,,,,,,,,
,,,,,,,,2023-08-16_08h49.48.587,HF_wild_card,2022.2.4,Win32,6.26232896,57fc95035682050001101433,64d2fd46c836a06233681665,64dc7f80167cac6986c54705,,,,,,,sngl,resources/Empty.png,resources/DR.BMP,WildCard_Ex,0.287037037,0,1,0,0,1.2573,optionRight,55,7305,4,2,0,2,0,1,,,,,,,,,,,,,,,,,,,,,,,,,,,,,,,,,,,,,,,
,,,,,,,,2023-08-16_08h49.48.587,HF_wild_card,2022.2.4,Win32,6.26232896,57fc95035682050001101433,64d2fd46c836a06233681665,64dc7f80167cac6986c54705,,,,,,,ctch,resources/DB.BMP,resources/DG.BMP,Door3,-0.201851852,-0.003703704,1,0,0,1.161,optionLeft,70,7375,4,3,0,3,0,1,,,,,,,,,,,,,,,,,,,,,,,,,,,,,,,,,,,,,,,
,,,,,,,,2023-08-16_08h49.48.587,HF_wild_card,2022.2.4,Win32,6.26232896,57fc95035682050001101433,64d2fd46c836a06233681665,64dc7f80167cac6986c54705,,,,,,,decisionTrl,resources/DR.BMP,resources/DY.BMP,Door4,0.313888889,-0.002777778,1,0,0,1.4611,optionRight,80,7455,4,4,0,4,0,1,,,,,,,,,,,,,,,,,,,,,,,,,,,,,,,,,,,,,,,
,,,,,,,,2023-08-16_08h49.48.587,HF_wild_card,2022.2.4,Win32,6.26232896,57fc95035682050001101433,64d2fd46c836a06233681665,64dc7f80167cac6986c54705,,,,,,,decisionTrl,resources/DP.BMP,resources/DG.BMP,Door1,-0.276851852,-0.047222222,1,0,0,2.1537,optionLeft,30,7485,4,5,0,5,0,1,,,,,,,,,,,,,,,,,,,,,,,,,,,,,,,,,,,,,,,
,,,,,,,,2023-08-16_08h49.48.587,HF_wild_card,2022.2.4,Win32,6.26232896,57fc95035682050001101433,64d2fd46c836a06233681665,64dc7f80167cac6986c54705,,,,,,,sngl,resources/DR.BMP,resources/Empty.png,WildCard_Ex,-0.22962963,0.018518519,1,0,0,1.0495,optionLeft,45,7530,4,6,0,6,0,1,,,,,,,,,,,,,,,,,,,,,,,,,,,,,,,,,,,,,,,
,,,,,,,,2023-08-16_08h49.48.587,HF_wild_card,2022.2.4,Win32,6.26232896,57fc95035682050001101433,64d2fd46c836a06233681665,64dc7f80167cac6986c54705,,,,,,,sngl,resources/DB.BMP,resources/Empty.png,Door3,-0.249074074,0.005555556,1,0,0,0.8907,optionLeft,70,7600,4,7,0,7,0,1,,,,,,,,,,,,,,,,,,,,,,,,,,,,,,,,,,,,,,,
,,,,,,,,2023-08-16_08h49.48.587,HF_wild_card,2022.2.4,Win32,6.26232896,57fc95035682050001101433,64d2fd46c836a06233681665,64dc7f80167cac6986c54705,,,,,,,ctch,resources/DB.BMP,resources/DG.BMP,Door3,-0.228703704,0.002777778,1,0,0,1.0049,optionLeft,70,7670,4,8,0,8,0,1,,,,,,,,,,,,,,,,,,,,,,,,,,,,,,,,,,,,,,,
,,,,,,,,2023-08-16_08h49.48.587,HF_wild_card,2022.2.4,Win32,6.26232896,57fc95035682050001101433,64d2fd46c836a06233681665,64dc7f80167cac6986c54705,,,,,,,decisionTrl,resources/DP.BMP,resources/DG.BMP,Door2,0.262962963,-0.030555556,1,0,0,1.7272,optionRight,20,7690,4,9,0,9,0,1,,,,,,,,,,,,,,,,,,,,,,,,,,,,,,,,,,,,,,,
,,,,,,,,2023-08-16_08h49.48.587,HF_wild_card,2022.2.4,Win32,6.26232896,57fc95035682050001101433,64d2fd46c836a06233681665,64dc7f80167cac6986c54705,,,,,,,decisionTrl,resources/DB.BMP,resources/DY.BMP,Door4,0.293518519,-0.027777778,1,0,0,1.9453,optionRight,80,7770,4,10,0,10,0,1,,,,,,,,,,,,,,,,,,,,,,,,,,,,,,,,,,,,,,,
,,,,,,,,2023-08-16_08h49.48.587,HF_wild_card,2022.2.4,Win32,6.26232896,57fc95035682050001101433,64d2fd46c836a06233681665,64dc7f80167cac6986c54705,,,,,,,decisionTrl,resources/DP.BMP,resources/DG.BMP,Door1,-0.281481481,-0.043518519,1,0,0,1.7243,optionLeft,30,7800,4,11,0,11,0,1,,,,,,,,,,,,,,,,,,,,,,,,,,,,,,,,,,,,,,,
,,,,,,,,2023-08-16_08h49.48.587,HF_wild_card,2022.2.4,Win32,6.26232896,57fc95035682050001101433,64d2fd46c836a06233681665,64dc7f80167cac6986c54705,,,,,,,sngl,resources/DY.BMP,resources/Empty.png,Door4,-0.208333333,0.027777778,1,0,0,0.8874,optionLeft,60,7860,4,12,0,12,0,1,,,,,,,,,,,,,,,,,,,,,,,,,,,,,,,,,,,,,,,
,,,,,,,,2023-08-16_08h49.48.587,HF_wild_card,2022.2.4,Win32,6.26232896,57fc95035682050001101433,64d2fd46c836a06233681665,64dc7f80167cac6986c54705,,,,,,,decisionTrl,resources/DB.BMP,resources/DR.BMP,Door3,-0.324074074,-0.051851852,1,0,0,1.9238,optionLeft,70,7930,4,13,0,13,0,1,,,,,,,,,,,,,,,,,,,,,,,,,,,,,,,,,,,,,,,
,,,,,,,,2023-08-16_08h49.48.587,HF_wild_card,2022.2.4,Win32,6.26232896,57fc95035682050001101433,64d2fd46c836a06233681665,64dc7f80167cac6986c54705,,,,,,,decisionTrl,resources/DG.BMP,resources/DP.BMP,Door2,-0.19537037,-0.00462963,1,0,0,1.5356,optionLeft,40,7970,4,14,0,14,0,1,,,,,,,,,,,,,,,,,,,,,,,,,,,,,,,,,,,,,,,
,,,,,,,,2023-08-16_08h49.48.587,HF_wild_card,2022.2.4,Win32,6.26232896,57fc95035682050001101433,64d2fd46c836a06233681665,64dc7f80167cac6986c54705,,,,,,,decisionTrl,resources/DG.BMP,resources/DP.BMP,Door1,0.321296296,-0.007407407,1,0,0,2.0427,optionRight,30,8000,4,15,0,15,0,1,,,,,,,,,,,,,,,,,,,,,,,,,,,,,,,,,,,,,,,
,,,,,,,,2023-08-16_08h49.48.587,HF_wild_card,2022.2.4,Win32,6.26232896,57fc95035682050001101433,64d2fd46c836a06233681665,64dc7f80167cac6986c54705,,,,,,,sngl,resources/Empty.png,resources/DP.BMP,Door1,0.267592593,0,1,0,0,1.1037,optionRight,30,8030,4,16,0,16,0,1,,,,,,,,,,,,,,,,,,,,,,,,,,,,,,,,,,,,,,,
,,,,,,,,2023-08-16_08h49.48.587,HF_wild_card,2022.2.4,Win32,6.26232896,57fc95035682050001101433,64d2fd46c836a06233681665,64dc7f80167cac6986c54705,,,,,,,decisionTrl,resources/DB.BMP,resources/DY.BMP,Door4,0.307407407,-0.024074074,1,0,0,1.463,optionRight,80,8110,4,17,0,17,0,1,,,,,,,,,,,,,,,,,,,,,,,,,,,,,,,,,,,,,,,
,,,,,,,,2023-08-16_08h49.48.587,HF_wild_card,2022.2.4,Win32,6.26232896,57fc95035682050001101433,64d2fd46c836a06233681665,64dc7f80167cac6986c54705,,,,,,,decisionTrl,resources/DG.BMP,resources/DP.BMP,Door1,0.277777778,-0.02037037,1,0,0,1.4082,optionRight,30,8140,4,18,0,18,0,1,,,,,,,,,,,,,,,,,,,,,,,,,,,,,,,,,,,,,,,
,,,,,,,,2023-08-16_08h49.48.587,HF_wild_card,2022.2.4,Win32,6.26232896,57fc95035682050001101433,64d2fd46c836a06233681665,64dc7f80167cac6986c54705,,,,,,,sngl,resources/DP.BMP,resources/Empty.png,Door1,-0.276851852,0.017592593,1,0,0,0.9442,optionLeft,30,8170,4,19,0,19,0,1,,,,,,,,,,,,,,,,,,,,,,,,,,,,,,,,,,,,,,,
,,,,,,,,2023-08-16_08h49.48.587,HF_wild_card,2022.2.4,Win32,6.26232896,57fc95035682050001101433,64d2fd46c836a06233681665,64dc7f80167cac6986c54705,,,,,,,decisionTrl,resources/DR.BMP,resources/DG.BMP,Door2,0.219444444,0.025925926,1,0,0,2.623,optionRight,40,8210,4,20,0,20,0,1,,,,,,,,,,,,,,,,,,,,,,,,,,,,,,,,,,,,,,,
,,,,,,,,2023-08-16_08h49.48.587,HF_wild_card,2022.2.4,Win32,6.26232896,57fc95035682050001101433,64d2fd46c836a06233681665,64dc7f80167cac6986c54705,,,,,,,ctch,resources/DG.BMP,resources/DB.BMP,Door3,0.222222222,-0.006481481,1,0,0,1.4633,optionRight,70,8280,4,21,0,21,0,1,,,,,,,,,,,,,,,,,,,,,,,,,,,,,,,,,,,,,,,
,,,,,,,,2023-08-16_08h49.48.587,HF_wild_card,2022.2.4,Win32,6.26232896,57fc95035682050001101433,64d2fd46c836a06233681665,64dc7f80167cac6986c54705,,,,,,,decisionTrl,resources/DR.BMP,resources/DP.BMP,WildCard_Ex,-0.201851852,-0.021296296,1,0,0,1.1748,optionLeft,45,8325,4,22,0,22,0,1,,,,,,,,,,,,,,,,,,,,,,,,,,,,,,,,,,,,,,,
,,,,,,,,2023-08-16_08h49.48.587,HF_wild_card,2022.2.4,Win32,6.26232896,57fc95035682050001101433,64d2fd46c836a06233681665,64dc7f80167cac6986c54705,,,,,,,decisionTrl,resources/DG.BMP,resources/DP.BMP,Door1,0.37962963,0.021296296,1,0,0,3.3732,optionRight,30,8355,4,23,0,23,0,1,,,,,,,,,,,,,,,,,,,,,,,,,,,,,,,,,,,,,,,
,,,,,,,,2023-08-16_08h49.48.587,HF_wild_card,2022.2.4,Win32,6.26232896,57fc95035682050001101433,64d2fd46c836a06233681665,64dc7f80167cac6986c54705,,,,,,,decisionTrl,resources/DP.BMP,resources/DG.BMP,Door1,-0.414814815,-0.089814815,1,0,0,2.1157,optionLeft,30,8385,4,24,0,24,0,1,,,,,,,,,,,,,,,,,,,,,,,,,,,,,,,,,,,,,,,
,,,,,,,,2023-08-16_08h49.48.587,HF_wild_card,2022.2.4,Win32,6.26232896,57fc95035682050001101433,64d2fd46c836a06233681665,64dc7f80167cac6986c54705,,,,,,,decisionTrl,resources/DG.BMP,resources/DR.BMP,WildCard_Ex,0.29537037,-0.027777778,1,0,0,2.1953,optionRight,55,8440,4,25,0,25,0,1,,,,,,,,,,,,,,,,,,,,,,,,,,,,,,,,,,,,,,,
,,,,,,,,2023-08-16_08h49.48.587,HF_wild_card,2022.2.4,Win32,6.26232896,57fc95035682050001101433,64d2fd46c836a06233681665,64dc7f80167cac6986c54705,,,,,,,ctch,resources/DP.BMP,resources/DY.BMP,Door4,0.300925926,0.009259259,1,0,0,1.6563,optionRight,60,8500,4,26,0,26,0,1,,,,,,,,,,,,,,,,,,,,,,,,,,,,,,,,,,,,,,,
,,,,,,,,2023-08-16_08h49.48.587,HF_wild_card,2022.2.4,Win32,6.26232896,57fc95035682050001101433,64d2fd46c836a06233681665,64dc7f80167cac6986c54705,,,,,,,decisionTrl,resources/DY.BMP,resources/DB.BMP,Door4,-0.24537037,-0.027777778,1,0,0,1.4647,optionLeft,80,8580,4,27,0,27,0,1,,,,,,,,,,,,,,,,,,,,,,,,,,,,,,,,,,,,,,,
,,,,,,,,2023-08-16_08h49.48.587,HF_wild_card,2022.2.4,Win32,6.26232896,57fc95035682050001101433,64d2fd46c836a06233681665,64dc7f80167cac6986c54705,,,,,,,sngl,resources/Empty.png,resources/DG.BMP,Door2,0.081481481,0.037962963,1,0,0,1.3182,optionRight,40,8620,4,28,0,28,0,1,,,,,,,,,,,,,,,,,,,,,,,,,,,,,,,,,,,,,,,
,,,,,,,,2023-08-16_08h49.48.587,HF_wild_card,2022.2.4,Win32,6.26232896,57fc95035682050001101433,64d2fd46c836a06233681665,64dc7f80167cac6986c54705,,,,,,,sngl,resources/Empty.png,resources/DB.BMP,Door3,0.176851852,-0.006481481,1,0,0,1.2924,optionRight,70,8690,4,29,0,29,0,1,,,,,,,,,,,,,,,,,,,,,,,,,,,,,,,,,,,,,,,
,,,,,,,,2023-08-16_08h49.48.587,HF_wild_card,2022.2.4,Win32,6.26232896,57fc95035682050001101433,64d2fd46c836a06233681665,64dc7f80167cac6986c54705,,,,,,,ctch,resources/DP.BMP,resources/DY.BMP,Door4,0.243518519,0.056481481,1,0,0,1.2667,optionRight,80,8770,4,30,0,30,0,1,,,,,,,,,,,,,,,,,,,,,,,,,,,,,,,,,,,,,,,
,,,,,,,,2023-08-16_08h49.48.587,HF_wild_card,2022.2.4,Win32,6.26232896,57fc95035682050001101433,64d2fd46c836a06233681665,64dc7f80167cac6986c54705,,,,,,,decisionTrl,resources/DY.BMP,resources/DR.BMP,Door4,-0.200925926,0.046296296,1,0,0,1.2803,optionLeft,60,8830,4,31,0,31,0,1,,,,,,,,,,,,,,,,,,,,,,,,,,,,,,,,,,,,,,,
,,,,,,,,2023-08-16_08h49.48.587,HF_wild_card,2022.2.4,Win32,6.26232896,57fc95035682050001101433,64d2fd46c836a06233681665,64dc7f80167cac6986c54705,,,,,,,decisionTrl,resources/DY.BMP,resources/DB.BMP,Door4,-0.25462963,-0.017592593,1,0,0,3.3463,optionLeft,60,8890,4,32,0,32,0,1,,,,,,,,,,,,,,,,,,,,,,,,,,,,,,,,,,,,,,,
,,,,,,,,2023-08-16_08h49.48.587,HF_wild_card,2022.2.4,Win32,6.26232896,57fc95035682050001101433,64d2fd46c836a06233681665,64dc7f80167cac6986c54705,,,,,,,decisionTrl,resources/DY.BMP,resources/DB.BMP,Door4,-0.268518519,0.047222222,1,0,0,1.1482,optionLeft,80,8970,4,33,0,33,0,1,,,,,,,,,,,,,,,,,,,,,,,,,,,,,,,,,,,,,,,
,,,,,,,,2023-08-16_08h49.48.587,HF_wild_card,2022.2.4,Win32,6.26232896,57fc95035682050001101433,64d2fd46c836a06233681665,64dc7f80167cac6986c54705,,,,,,,ctch,resources/DY.BMP,resources/DP.BMP,Door4,-0.237962963,0.02037037,1,0,0,0.9688,optionLeft,60,9030,4,34,0,34,0,1,,,,,,,,,,,,,,,,,,,,,,,,,,,,,,,,,,,,,,,
,,,,,,,,2023-08-16_08h49.48.587,HF_wild_card,2022.2.4,Win32,6.26232896,57fc95035682050001101433,64d2fd46c836a06233681665,64dc7f80167cac6986c54705,,,,,,,decisionTrl,resources/DY.BMP,resources/DB.BMP,Door4,-0.205555556,-0.012037037,1,0,0,0.9265,optionLeft,80,9110,4,35,0,35,0,1,,,,,,,,,,,,,,,,,,,,,,,,,,,,,,,,,,,,,,,
,,,,,,,,2023-08-16_08h49.48.587,HF_wild_card,2022.2.4,Win32,6.26232896,57fc95035682050001101433,64d2fd46c836a06233681665,64dc7f80167cac6986c54705,,,,,,,sngl,resources/Empty.png,resources/DR.BMP,WildCard_Ex,0.267592593,0.037962963,1,0,0,1.5151,optionRight,45,9155,4,36,0,36,0,1,,,,,,,,,,,,,,,,,,,,,,,,,,,,,,,,,,,,,,,
,,,,,,,,2023-08-16_08h49.48.587,HF_wild_card,2022.2.4,Win32,6.26232896,57fc95035682050001101433,64d2fd46c836a06233681665,64dc7f80167cac6986c54705,,,,,,,decisionTrl,resources/DP.BMP,resources/DR.BMP,WildCard_Ex,0.256481481,0.05462963,1,0,0,1.6193,optionRight,45,9200,4,37,0,37,0,1,,,,,,,,,,,,,,,,,,,,,,,,,,,,,,,,,,,,,,,
,,,,,,,,2023-08-16_08h49.48.587,HF_wild_card,2022.2.4,Win32,6.26232896,57fc95035682050001101433,64d2fd46c836a06233681665,64dc7f80167cac6986c54705,,,,,,,ctch,resources/DY.BMP,resources/DP.BMP,Door4,-0.252777778,0.024074074,1,0,0,0.9428,optionLeft,80,9280,4,38,0,38,0,1,,,,,,,,,,,,,,,,,,,,,,,,,,,,,,,,,,,,,,,
,,,,,,,,2023-08-16_08h49.48.587,HF_wild_card,2022.2.4,Win32,6.26232896,57fc95035682050001101433,64d2fd46c836a06233681665,64dc7f80167cac6986c54705,,,,,,,ctch,resources/DG.BMP,resources/DB.BMP,Door3,0.340740741,0.061111111,1,0,0,1.4153,optionRight,70,9350,4,39,0,39,0,1,,,,,,,,,,,,,,,,,,,,,,,,,,,,,,,,,,,,,,,
,,,,,,,,2023-08-16_08h49.48.587,HF_wild_card,2022.2.4,Win32,6.26232896,57fc95035682050001101433,64d2fd46c836a06233681665,64dc7f80167cac6986c54705,,,,,,,sngl,resources/DR.BMP,resources/Empty.png,WildCard_Ex,-0.314814815,0.032407407,1,0,0,1.0642,optionLeft,55,9405,4,40,0,40,0,1,,,,,,,,,,,,,,,,,,,,,,,,,,,,,,,,,,,,,,,
,,,,,,,,2023-08-16_08h49.48.587,HF_wild_card,2022.2.4,Win32,6.26232896,57fc95035682050001101433,64d2fd46c836a06233681665,64dc7f80167cac6986c54705,,,,,,,sngl,resources/Empty.png,resources/DY.BMP,Door4,0.318518519,-0.005555556,1,0,0,1.0925,optionRight,80,9485,4,41,0,41,0,1,,,,,,,,,,,,,,,,,,,,,,,,,,,,,,,,,,,,,,,
,,,,,,,,2023-08-16_08h49.48.587,HF_wild_card,2022.2.4,Win32,6.26232896,57fc95035682050001101433,64d2fd46c836a06233681665,64dc7f80167cac6986c54705,,,,,,,decisionTrl,resources/DB.BMP,resources/DY.BMP,Door4,0.349074074,-0.001851852,1,0,0,2.3358,optionRight,80,9565,4,42,0,42,0,1,,,,,,,,,,,,,,,,,,,,,,,,,,,,,,,,,,,,,,,
,,,,,,,,2023-08-16_08h49.48.587,HF_wild_card,2022.2.4,Win32,6.26232896,57fc95035682050001101433,64d2fd46c836a06233681665,64dc7f80167cac6986c54705,,,,,,,sngl,resources/DG.BMP,resources/Empty.png,Door2,-0.287037037,-0.016666667,1,0,0,1.067,optionLeft,20,9585,4,43,0,43,0,1,,,,,,,,,,,,,,,,,,,,,,,,,,,,,,,,,,,,,,,
,,,,,,,,2023-08-16_08h49.48.587,HF_wild_card,2022.2.4,Win32,6.26232896,57fc95035682050001101433,64d2fd46c836a06233681665,64dc7f80167cac6986c54705,,,,,,,,,,,,,,,,,,,,,,,,,,3,0,3,0,1,,,,,,,,,,,,,,,,,,,,,,,,,,,,,,,,,,
,,,,,,,,2023-08-16_08h49.48.587,HF_wild_card,2022.2.4,Win32,6.26232896,57fc95035682050001101433,64d2fd46c836a06233681665,64dc7f80167cac6986c54705,,,,,,,decisionTrl,resources/DY.BMP,resources/DB.BMP,Door4,-0.321296296,-0.041666667,1,0,0,1.1994,optionLeft,60,9645,5,0,0,0,0,1,,,,,,,,,,,,,,,,,,,,,,,,,,,,,,,,,,,,,,,
,,,,,,,,2023-08-16_08h49.48.587,HF_wild_card,2022.2.4,Win32,6.26232896,57fc95035682050001101433,64d2fd46c836a06233681665,64dc7f80167cac6986c54705,,,,,,,decisionTrl,resources/DP.BMP,resources/DG.BMP,Door1,-0.260185185,-0.018518519,1,0,0,1.6273,optionLeft,30,9675,5,1,0,1,0,1,,,,,,,,,,,,,,,,,,,,,,,,,,,,,,,,,,,,,,,
,,,,,,,,2023-08-16_08h49.48.587,HF_wild_card,2022.2.4,Win32,6.26232896,57fc95035682050001101433,64d2fd46c836a06233681665,64dc7f80167cac6986c54705,,,,,,,ctch,resources/DP.BMP,resources/DY.BMP,Door4,0.288888889,-0.053703704,1,0,0,1.4015,optionRight,60,9735,5,2,0,2,0,1,,,,,,,,,,,,,,,,,,,,,,,,,,,,,,,,,,,,,,,
,,,,,,,,2023-08-16_08h49.48.587,HF_wild_card,2022.2.4,Win32,6.26232896,57fc95035682050001101433,64d2fd46c836a06233681665,64dc7f80167cac6986c54705,,,,,,,decisionTrl,resources/DG.BMP,resources/DP.BMP,Door2,-0.175925926,-0.043518519,1,0,0,1.6695,optionLeft,20,9755,5,3,0,3,0,1,,,,,,,,,,,,,,,,,,,,,,,,,,,,,,,,,,,,,,,
,,,,,,,,2023-08-16_08h49.48.587,HF_wild_card,2022.2.4,Win32,6.26232896,57fc95035682050001101433,64d2fd46c836a06233681665,64dc7f80167cac6986c54705,,,,,,,decisionTrl,resources/DG.BMP,resources/DP.BMP,Door1,0.261111111,0.002777778,1,0,0,1.2003,optionRight,30,9785,5,4,0,4,0,1,,,,,,,,,,,,,,,,,,,,,,,,,,,,,,,,,,,,,,,
,,,,,,,,2023-08-16_08h49.48.587,HF_wild_card,2022.2.4,Win32,6.26232896,57fc95035682050001101433,64d2fd46c836a06233681665,64dc7f80167cac6986c54705,,,,,,,decisionTrl,resources/DY.BMP,resources/DB.BMP,Door4,-0.287037037,-0.041666667,1,0,0,1.2018,optionLeft,60,9845,5,5,0,5,0,1,,,,,,,,,,,,,,,,,,,,,,,,,,,,,,,,,,,,,,,
,,,,,,,,2023-08-16_08h49.48.587,HF_wild_card,2022.2.4,Win32,6.26232896,57fc95035682050001101433,64d2fd46c836a06233681665,64dc7f80167cac6986c54705,,,,,,,decisionTrl,resources/DR.BMP,resources/DG.BMP,WildCard_Ex,-0.260185185,-0.002777778,1,0,0,1.5167,optionLeft,55,9900,5,6,0,6,0,1,,,,,,,,,,,,,,,,,,,,,,,,,,,,,,,,,,,,,,,
,,,,,,,,2023-08-16_08h49.48.587,HF_wild_card,2022.2.4,Win32,6.26232896,57fc95035682050001101433,64d2fd46c836a06233681665,64dc7f80167cac6986c54705,,,,,,,sngl,resources/Empty.png,resources/DG.BMP,Door2,0.224074074,0.005555556,1,0,0,1.3439,optionRight,20,9920,5,7,0,7,0,1,,,,,,,,,,,,,,,,,,,,,,,,,,,,,,,,,,,,,,,
,,,,,,,,2023-08-16_08h49.48.587,HF_wild_card,2022.2.4,Win32,6.26232896,57fc95035682050001101433,64d2fd46c836a06233681665,64dc7f80167cac6986c54705,,,,,,,decisionTrl,resources/DR.BMP,resources/DY.BMP,Door4,0.277777778,0.042592593,1,0,0,1.4171,optionRight,60,9980,5,8,0,8,0,1,,,,,,,,,,,,,,,,,,,,,,,,,,,,,,,,,,,,,,,
,,,,,,,,2023-08-16_08h49.48.587,HF_wild_card,2022.2.4,Win32,6.26232896,57fc95035682050001101433,64d2fd46c836a06233681665,64dc7f80167cac6986c54705,,,,,,,decisionTrl,resources/DR.BMP,resources/DB.BMP,WildCard_Ex,-0.177777778,0.028703704,1,0,0,1.1715,optionLeft,45,10025,5,9,0,9,0,1,,,,,,,,,,,,,,,,,,,,,,,,,,,,,,,,,,,,,,,
,,,,,,,,2023-08-16_08h49.48.587,HF_wild_card,2022.2.4,Win32,6.26232896,57fc95035682050001101433,64d2fd46c836a06233681665,64dc7f80167cac6986c54705,,,,,,,sngl,resources/Empty.png,resources/DB.BMP,Door3,0.268518519,-0.007407407,1,0,0,1.0395,optionRight,70,10095,5,10,0,10,0,1,,,,,,,,,,,,,,,,,,,,,,,,,,,,,,,,,,,,,,,
,,,,,,,,2023-08-16_08h49.48.587,HF_wild_card,2022.2.4,Win32,6.26232896,57fc95035682050001101433,64d2fd46c836a06233681665,64dc7f80167cac6986c54705,,,,,,,decisionTrl,resources/DP.BMP,resources/DG.BMP,Door1,-0.233333333,0.012962963,1,0,0,2.8146,optionLeft,30,10125,5,11,0,11,0,1,,,,,,,,,,,,,,,,,,,,,,,,,,,,,,,,,,,,,,,
,,,,,,,,2023-08-16_08h49.48.587,HF_wild_card,2022.2.4,Win32,6.26232896,57fc95035682050001101433,64d2fd46c836a06233681665,64dc7f80167cac6986c54705,,,,,,,decisionTrl,resources/DB.BMP,resources/DY.BMP,Door4,0.267592593,0.013888889,1,0,0,1.2016,optionRight,80,10205,5,12,0,12,0,1,,,,,,,,,,,,,,,,,,,,,,,,,,,,,,,,,,,,,,,
,,,,,,,,2023-08-16_08h49.48.587,HF_wild_card,2022.2.4,Win32,6.26232896,57fc95035682050001101433,64d2fd46c836a06233681665,64dc7f80167cac6986c54705,,,,,,,decisionTrl,resources/DG.BMP,resources/DR.BMP,WildCard_Ex,0.241666667,-0.024074074,1,0,0,1.1885,optionRight,55,10260,5,13,0,13,0,1,,,,,,,,,,,,,,,,,,,,,,,,,,,,,,,,,,,,,,,
,,,,,,,,2023-08-16_08h49.48.587,HF_wild_card,2022.2.4,Win32,6.26232896,57fc95035682050001101433,64d2fd46c836a06233681665,64dc7f80167cac6986c54705,,,,,,,ctch,resources/DG.BMP,resources/DB.BMP,Door3,0.25462963,-0.030555556,1,0,0,2.0824,optionRight,70,10330,5,14,0,14,0,1,,,,,,,,,,,,,,,,,,,,,,,,,,,,,,,,,,,,,,,
,,,,,,,,2023-08-16_08h49.48.587,HF_wild_card,2022.2.4,Win32,6.26232896,57fc95035682050001101433,64d2fd46c836a06233681665,64dc7f80167cac6986c54705,,,,,,,sngl,resources/DY.BMP,resources/Empty.png,Door4,-0.322222222,-0.040740741,1,0,0,1.0712,optionLeft,80,10410,5,15,0,15,0,1,,,,,,,,,,,,,,,,,,,,,,,,,,,,,,,,,,,,,,,
,,,,,,,,2023-08-16_08h49.48.587,HF_wild_card,2022.2.4,Win32,6.26232896,57fc95035682050001101433,64d2fd46c836a06233681665,64dc7f80167cac6986c54705,,,,,,,decisionTrl,resources/DB.BMP,resources/DY.BMP,Door4,0.261111111,0.04537037,1,0,0,1.9085,optionRight,80,10490,5,16,0,16,0,1,,,,,,,,,,,,,,,,,,,,,,,,,,,,,,,,,,,,,,,
,,,,,,,,2023-08-16_08h49.48.587,HF_wild_card,2022.2.4,Win32,6.26232896,57fc95035682050001101433,64d2fd46c836a06233681665,64dc7f80167cac6986c54705,,,,,,,ctch,resources/DY.BMP,resources/DP.BMP,Door4,-0.172222222,-0.009259259,1,0,0,1.1669,optionLeft,80,10570,5,17,0,17,0,1,,,,,,,,,,,,,,,,,,,,,,,,,,,,,,,,,,,,,,,
,,,,,,,,2023-08-16_08h49.48.587,HF_wild_card,2022.2.4,Win32,6.26232896,57fc95035682050001101433,64d2fd46c836a06233681665,64dc7f80167cac6986c54705,,,,,,,decisionTrl,resources/DP.BMP,resources/DG.BMP,Door1,-0.314814815,-0.022222222,1,0,0,3.6911,optionLeft,30,10600,5,18,0,18,0,1,,,,,,,,,,,,,,,,,,,,,,,,,,,,,,,,,,,,,,,
,,,,,,,,2023-08-16_08h49.48.587,HF_wild_card,2022.2.4,Win32,6.26232896,57fc95035682050001101433,64d2fd46c836a06233681665,64dc7f80167cac6986c54705,,,,,,,decisionTrl,resources/DY.BMP,resources/DB.BMP,Door4,-0.32037037,0.069444444,1,0,0,1.4172,optionLeft,60,10660,5,19,0,19,0,1,,,,,,,,,,,,,,,,,,,,,,,,,,,,,,,,,,,,,,,
,,,,,,,,2023-08-16_08h49.48.587,HF_wild_card,2022.2.4,Win32,6.26232896,57fc95035682050001101433,64d2fd46c836a06233681665,64dc7f80167cac6986c54705,,,,,,,ctch,resources/DG.BMP,resources/DB.BMP,Door3,0.372222222,-0.024074074,1,0,0,1.1712,optionRight,70,10730,5,20,0,20,0,1,,,,,,,,,,,,,,,,,,,,,,,,,,,,,,,,,,,,,,,
,,,,,,,,2023-08-16_08h49.48.587,HF_wild_card,2022.2.4,Win32,6.26232896,57fc95035682050001101433,64d2fd46c836a06233681665,64dc7f80167cac6986c54705,,,,,,,decisionTrl,resources/DY.BMP,resources/DR.BMP,Door4,-0.197222222,0.013888889,1,0,0,1.0231,optionLeft,80,10810,5,21,0,21,0,1,,,,,,,,,,,,,,,,,,,,,,,,,,,,,,,,,,,,,,,
,,,,,,,,2023-08-16_08h49.48.587,HF_wild_card,2022.2.4,Win32,6.26232896,57fc95035682050001101433,64d2fd46c836a06233681665,64dc7f80167cac6986c54705,,,,,,,decisionTrl,resources/DG.BMP,resources/DP.BMP,Door1,0.277777778,-0.035185185,1,0,0,2.386,optionRight,30,10840,5,22,0,22,0,1,,,,,,,,,,,,,,,,,,,,,,,,,,,,,,,,,,,,,,,
,,,,,,,,2023-08-16_08h49.48.587,HF_wild_card,2022.2.4,Win32,6.26232896,57fc95035682050001101433,64d2fd46c836a06233681665,64dc7f80167cac6986c54705,,,,,,,decisionTrl,resources/DY.BMP,resources/DB.BMP,Door4,-0.290740741,0.02037037,1,0,0,1.193,optionLeft,60,10900,5,23,0,23,0,1,,,,,,,,,,,,,,,,,,,,,,,,,,,,,,,,,,,,,,,
,,,,,,,,2023-08-16_08h49.48.587,HF_wild_card,2022.2.4,Win32,6.26232896,57fc95035682050001101433,64d2fd46c836a06233681665,64dc7f80167cac6986c54705,,,,,,,sngl,resources/Empty.png,resources/DR.BMP,WildCard_Ex,0.141666667,0.032407407,1,0,0,1.0792,optionRight,55,10955,5,24,0,24,0,1,,,,,,,,,,,,,,,,,,,,,,,,,,,,,,,,,,,,,,,
,,,,,,,,2023-08-16_08h49.48.587,HF_wild_card,2022.2.4,Win32,6.26232896,57fc95035682050001101433,64d2fd46c836a06233681665,64dc7f80167cac6986c54705,,,,,,,sngl,resources/DR.BMP,resources/Empty.png,WildCard_Ex,-0.226851852,0.05462963,1,0,0,0.8981,optionLeft,45,11000,5,25,0,25,0,1,,,,,,,,,,,,,,,,,,,,,,,,,,,,,,,,,,,,,,,
,,,,,,,,2023-08-16_08h49.48.587,HF_wild_card,2022.2.4,Win32,6.26232896,57fc95035682050001101433,64d2fd46c836a06233681665,64dc7f80167cac6986c54705,,,,,,,decisionTrl,resources/DP.BMP,resources/DR.BMP,WildCard_Ex,0.261111111,0.013888889,1,0,0,1.5016,optionRight,55,11055,5,26,0,26,0,1,,,,,,,,,,,,,,,,,,,,,,,,,,,,,,,,,,,,,,,
,,,,,,,,2023-08-16_08h49.48.587,HF_wild_card,2022.2.4,Win32,6.26232896,57fc95035682050001101433,64d2fd46c836a06233681665,64dc7f80167cac6986c54705,,,,,,,ctch,resources/DY.BMP,resources/DP.BMP,Door4,-0.225925926,-0.011111111,1,0,0,1.1951,optionLeft,80,11135,5,27,0,27,0,1,,,,,,,,,,,,,,,,,,,,,,,,,,,,,,,,,,,,,,,
,,,,,,,,2023-08-16_08h49.48.587,HF_wild_card,2022.2.4,Win32,6.26232896,57fc95035682050001101433,64d2fd46c836a06233681665,64dc7f80167cac6986c54705,,,,,,,decisionTrl,resources/DB.BMP,resources/DR.BMP,Door3,-0.310185185,-0.036111111,1,0,0,1.1371,optionLeft,70,11205,5,28,0,28,0,1,,,,,,,,,,,,,,,,,,,,,,,,,,,,,,,,,,,,,,,
,,,,,,,,2023-08-16_08h49.48.587,HF_wild_card,2022.2.4,Win32,6.26232896,57fc95035682050001101433,64d2fd46c836a06233681665,64dc7f80167cac6986c54705,,,,,,,decisionTrl,resources/DB.BMP,resources/DY.BMP,Door3,-0.27037037,0.061111111,1,0,0,0.9092,optionLeft,70,11275,5,29,0,29,0,1,,,,,,,,,,,,,,,,,,,,,,,,,,,,,,,,,,,,,,,
,,,,,,,,2023-08-16_08h49.48.587,HF_wild_card,2022.2.4,Win32,6.26232896,57fc95035682050001101433,64d2fd46c836a06233681665,64dc7f80167cac6986c54705,,,,,,,ctch,resources/DB.BMP,resources/DG.BMP,Door3,-0.242592593,-0.017592593,1,0,0,1.1559,optionLeft,70,11345,5,30,0,30,0,1,,,,,,,,,,,,,,,,,,,,,,,,,,,,,,,,,,,,,,,
,,,,,,,,2023-08-16_08h49.48.587,HF_wild_card,2022.2.4,Win32,6.26232896,57fc95035682050001101433,64d2fd46c836a06233681665,64dc7f80167cac6986c54705,,,,,,,decisionTrl,resources/DB.BMP,resources/DY.BMP,Door4,0.298148148,0.035185185,1,0,0,1.4348,optionRight,80,11425,5,31,0,31,0,1,,,,,,,,,,,,,,,,,,,,,,,,,,,,,,,,,,,,,,,
,,,,,,,,2023-08-16_08h49.48.587,HF_wild_card,2022.2.4,Win32,6.26232896,57fc95035682050001101433,64d2fd46c836a06233681665,64dc7f80167cac6986c54705,,,,,,,sngl,resources/Empty.png,resources/DP.BMP,Door1,0.32037037,0.04537037,1,0,0,1.9402,optionRight,30,11455,5,32,0,32,0,1,,,,,,,,,,,,,,,,,,,,,,,,,,,,,,,,,,,,,,,
,,,,,,,,2023-08-16_08h49.48.587,HF_wild_card,2022.2.4,Win32,6.26232896,57fc95035682050001101433,64d2fd46c836a06233681665,64dc7f80167cac6986c54705,,,,,,,sngl,resources/DR.BMP,resources/Empty.png,WildCard_Ex,-0.344444444,-0.026851852,1,0,0,2.1267,optionLeft,55,11510,5,33,0,33,0,1,,,,,,,,,,,,,,,,,,,,,,,,,,,,,,,,,,,,,,,
,,,,,,,,2023-08-16_08h49.48.587,HF_wild_card,2022.2.4,Win32,6.26232896,57fc95035682050001101433,64d2fd46c836a06233681665,64dc7f80167cac6986c54705,,,,,,,sngl,resources/DB.BMP,resources/Empty.png,Door3,-0.25462963,-0.006481481,1,0,0,1.0765,optionLeft,70,11580,5,34,0,34,0,1,,,,,,,,,,,,,,,,,,,,,,,,,,,,,,,,,,,,,,,
,,,,,,,,2023-08-16_08h49.48.587,HF_wild_card,2022.2.4,Win32,6.26232896,57fc95035682050001101433,64d2fd46c836a06233681665,64dc7f80167cac6986c54705,,,,,,,sngl,resources/DG.BMP,resources/Empty.png,Door2,-0.244444444,-0.003703704,1,0,0,1.0955,optionLeft,40,11620,5,35,0,35,0,1,,,,,,,,,,,,,,,,,,,,,,,,,,,,,,,,,,,,,,,
,,,,,,,,2023-08-16_08h49.48.587,HF_wild_card,2022.2.4,Win32,6.26232896,57fc95035682050001101433,64d2fd46c836a06233681665,64dc7f80167cac6986c54705,,,,,,,decisionTrl,resources/DG.BMP,resources/DP.BMP,Door2,-0.228703704,-0.003703704,1,0,0,1.4035,optionLeft,40,11660,5,36,0,36,0,1,,,,,,,,,,,,,,,,,,,,,,,,,,,,,,,,,,,,,,,
,,,,,,,,2023-08-16_08h49.48.587,HF_wild_card,2022.2.4,Win32,6.26232896,57fc95035682050001101433,64d2fd46c836a06233681665,64dc7f80167cac6986c54705,,,,,,,sngl,resources/Empty.png,resources/DY.BMP,Door4,0.003703704,-0.00462963,1,0,0,0.6127,optionRight,60,11720,5,37,0,37,0,1,,,,,,,,,,,,,,,,,,,,,,,,,,,,,,,,,,,,,,,
,,,,,,,,2023-08-16_08h49.48.587,HF_wild_card,2022.2.4,Win32,6.26232896,57fc95035682050001101433,64d2fd46c836a06233681665,64dc7f80167cac6986c54705,,,,,,,sngl,resources/DP.BMP,resources/Empty.png,Door1,-0.160185185,-0.003703704,1,0,0,1.3126,optionLeft,30,11750,5,38,0,38,0,1,,,,,,,,,,,,,,,,,,,,,,,,,,,,,,,,,,,,,,,
,,,,,,,,2023-08-16_08h49.48.587,HF_wild_card,2022.2.4,Win32,6.26232896,57fc95035682050001101433,64d2fd46c836a06233681665,64dc7f80167cac6986c54705,,,,,,,ctch,resources/DB.BMP,resources/DG.BMP,Door3,-0.19537037,-0.005555556,1,0,0,1.418,optionLeft,70,11820,5,39,0,39,0,1,,,,,,,,,,,,,,,,,,,,,,,,,,,,,,,,,,,,,,,
,,,,,,,,2023-08-16_08h49.48.587,HF_wild_card,2022.2.4,Win32,6.26232896,57fc95035682050001101433,64d2fd46c836a06233681665,64dc7f80167cac6986c54705,,,,,,,ctch,resources/DP.BMP,resources/DY.BMP,Door4,0.202777778,0.024074074,1,0,0,1.3919,optionRight,80,11900,5,40,0,40,0,1,,,,,,,,,,,,,,,,,,,,,,,,,,,,,,,,,,,,,,,
,,,,,,,,2023-08-16_08h49.48.587,HF_wild_card,2022.2.4,Win32,6.26232896,57fc95035682050001101433,64d2fd46c836a06233681665,64dc7f80167cac6986c54705,,,,,,,sngl,resources/Empty.png,resources/DR.BMP,WildCard_Ex,0.14537037,0.017592593,1,0,0,1.1224,optionRight,45,11945,5,41,0,41,0,1,,,,,,,,,,,,,,,,,,,,,,,,,,,,,,,,,,,,,,,
,,,,,,,,2023-08-16_08h49.48.587,HF_wild_card,2022.2.4,Win32,6.26232896,57fc95035682050001101433,64d2fd46c836a06233681665,64dc7f80167cac6986c54705,,,,,,,decisionTrl,resources/DP.BMP,resources/DG.BMP,Door2,0.233333333,0.013888889,1,0,0,1.6443,optionRight,40,11985,5,42,0,42,0,1,,,,,,,,,,,,,,,,,,,,,,,,,,,,,,,,,,,,,,,
,,,,,,,,2023-08-16_08h49.48.587,HF_wild_card,2022.2.4,Win32,6.26232896,57fc95035682050001101433,64d2fd46c836a06233681665,64dc7f80167cac6986c54705,,,,,,,decisionTrl,resources/DR.BMP,resources/DP.BMP,WildCard_Ex,-0.20462963,-0.026851852,1,0,0,1.6314,optionLeft,45,12030,5,43,0,43,0,1,,,,,,,,,,,,,,,,,,,,,,,,,,,,,,,,,,,,,,,
,,,,,,,,2023-08-16_08h49.48.587,HF_wild_card,2022.2.4,Win32,6.26232896,57fc95035682050001101433,64d2fd46c836a06233681665,64dc7f80167cac6986c54705,,,,,,,,,,,,,,,,,,,,,,,,,,4,0,4,0,1,,,,,,,,,,,,,,,,,,,,,,,,,,,,,,,,,,
,,,,,,,,2023-08-16_08h49.48.587,HF_wild_card,2022.2.4,Win32,6.26232896,57fc95035682050001101433,64d2fd46c836a06233681665,64dc7f80167cac6986c54705,,,,,,,sngl,resources/Empty.png,resources/DR.BMP,WildCard_Ex,0.286111111,0.041666667,1,0,0,1.392,optionRight,45,12075,6,0,0,0,0,1,,,,,,,,,,,,,,,,,,,,,,,,,,,,,,,,,,,,,,,
,,,,,,,,2023-08-16_08h49.48.587,HF_wild_card,2022.2.4,Win32,6.26232896,57fc95035682050001101433,64d2fd46c836a06233681665,64dc7f80167cac6986c54705,,,,,,,decisionTrl,resources/DR.BMP,resources/DB.BMP,Door3,0.336111111,0.052777778,1,0,0,1.6315,optionRight,70,12145,6,1,0,1,0,1,,,,,,,,,,,,,,,,,,,,,,,,,,,,,,,,,,,,,,,
,,,,,,,,2023-08-16_08h49.48.587,HF_wild_card,2022.2.4,Win32,6.26232896,57fc95035682050001101433,64d2fd46c836a06233681665,64dc7f80167cac6986c54705,,,,,,,decisionTrl,resources/DB.BMP,resources/DY.BMP,Door4,0.344444444,0.034259259,1,0,0,1.4329,optionRight,60,12205,6,2,0,2,0,1,,,,,,,,,,,,,,,,,,,,,,,,,,,,,,,,,,,,,,,
,,,,,,,,2023-08-16_08h49.48.587,HF_wild_card,2022.2.4,Win32,6.26232896,57fc95035682050001101433,64d2fd46c836a06233681665,64dc7f80167cac6986c54705,,,,,,,sngl,resources/DR.BMP,resources/Empty.png,WildCard_Ex,-0.219444444,0.017592593,1,0,0,0.8825,optionLeft,55,12260,6,3,0,3,0,1,,,,,,,,,,,,,,,,,,,,,,,,,,,,,,,,,,,,,,,
,,,,,,,,2023-08-16_08h49.48.587,HF_wild_card,2022.2.4,Win32,6.26232896,57fc95035682050001101433,64d2fd46c836a06233681665,64dc7f80167cac6986c54705,,,,,,,ctch,resources/DG.BMP,resources/DB.BMP,Door3,0.338888889,0.014814815,1,0,0,1.1781,optionRight,70,12330,6,4,0,4,0,1,,,,,,,,,,,,,,,,,,,,,,,,,,,,,,,,,,,,,,,
,,,,,,,,2023-08-16_08h49.48.587,HF_wild_card,2022.2.4,Win32,6.26232896,57fc95035682050001101433,64d2fd46c836a06233681665,64dc7f80167cac6986c54705,,,,,,,sngl,resources/DR.BMP,resources/Empty.png,WildCard_Ex,-0.284259259,-0.019444444,1,0,0,1.0688,optionLeft,45,12375,6,5,0,5,0,1,,,,,,,,,,,,,,,,,,,,,,,,,,,,,,,,,,,,,,,
,,,,,,,,2023-08-16_08h49.48.587,HF_wild_card,2022.2.4,Win32,6.26232896,57fc95035682050001101433,64d2fd46c836a06233681665,64dc7f80167cac6986c54705,,,,,,,sngl,resources/Empty.png,resources/DP.BMP,Door1,0.267592593,0.051851852,1,0,0,1.0307,optionRight,30,12405,6,6,0,6,0,1,,,,,,,,,,,,,,,,,,,,,,,,,,,,,,,,,,,,,,,
,,,,,,,,2023-08-16_08h49.48.587,HF_wild_card,2022.2.4,Win32,6.26232896,57fc95035682050001101433,64d2fd46c836a06233681665,64dc7f80167cac6986c54705,,,,,,,decisionTrl,resources/DR.BMP,resources/DY.BMP,Door4,0.384259259,0.072222222,1,0,0,1.4261,optionRight,80,12485,6,7,0,7,0,1,,,,,,,,,,,,,,,,,,,,,,,,,,,,,,,,,,,,,,,
,,,,,,,,2023-08-16_08h49.48.587,HF_wild_card,2022.2.4,Win32,6.26232896,57fc95035682050001101433,64d2fd46c836a06233681665,64dc7f80167cac6986c54705,,,,,,,sngl,resources/DB.BMP,resources/Empty.png,Door3,-0.256481481,0.014814815,1,0,0,1.0682,optionLeft,70,12555,6,8,0,8,0,1,,,,,,,,,,,,,,,,,,,,,,,,,,,,,,,,,,,,,,,
,,,,,,,,2023-08-16_08h49.48.587,HF_wild_card,2022.2.4,Win32,6.26232896,57fc95035682050001101433,64d2fd46c836a06233681665,64dc7f80167cac6986c54705,,,,,,,ctch,resources/DG.BMP,resources/DB.BMP,Door3,0.281481481,0.073148148,1,0,0,0.9092,optionRight,70,12625,6,9,0,9,0,1,,,,,,,,,,,,,,,,,,,,,,,,,,,,,,,,,,,,,,,
,,,,,,,,2023-08-16_08h49.48.587,HF_wild_card,2022.2.4,Win32,6.26232896,57fc95035682050001101433,64d2fd46c836a06233681665,64dc7f80167cac6986c54705,,,,,,,decisionTrl,resources/DP.BMP,resources/DR.BMP,WildCard_Ex,0.398148148,0.081481481,1,0,0,1.3745,optionRight,55,12680,6,10,0,10,0,1,,,,,,,,,,,,,,,,,,,,,,,,,,,,,,,,,,,,,,,
,,,,,,,,2023-08-16_08h49.48.587,HF_wild_card,2022.2.4,Win32,6.26232896,57fc95035682050001101433,64d2fd46c836a06233681665,64dc7f80167cac6986c54705,,,,,,,decisionTrl,resources/DY.BMP,resources/DB.BMP,Door4,-0.281481481,0.005555556,1,0,0,1.1834,optionLeft,60,12740,6,11,0,11,0,1,,,,,,,,,,,,,,,,,,,,,,,,,,,,,,,,,,,,,,,
,,,,,,,,2023-08-16_08h49.48.587,HF_wild_card,2022.2.4,Win32,6.26232896,57fc95035682050001101433,64d2fd46c836a06233681665,64dc7f80167cac6986c54705,,,,,,,decisionTrl,resources/DP.BMP,resources/DG.BMP,Door2,0.42037037,0.064814815,1,0,0,1.9652,optionRight,20,12760,6,12,0,12,0,1,,,,,,,,,,,,,,,,,,,,,,,,,,,,,,,,,,,,,,,
,,,,,,,,2023-08-16_08h49.48.587,HF_wild_card,2022.2.4,Win32,6.26232896,57fc95035682050001101433,64d2fd46c836a06233681665,64dc7f80167cac6986c54705,,,,,,,decisionTrl,resources/DY.BMP,resources/DB.BMP,Door3,0.384259259,0.043518519,1,0,0,1.6684,optionRight,70,12830,6,13,0,13,0,1,,,,,,,,,,,,,,,,,,,,,,,,,,,,,,,,,,,,,,,
,,,,,,,,2023-08-16_08h49.48.587,HF_wild_card,2022.2.4,Win32,6.26232896,57fc95035682050001101433,64d2fd46c836a06233681665,64dc7f80167cac6986c54705,,,,,,,ctch,resources/DY.BMP,resources/DP.BMP,Door4,-0.217592593,-0.025925926,1,0,0,1.166,optionLeft,60,12890,6,14,0,14,0,1,,,,,,,,,,,,,,,,,,,,,,,,,,,,,,,,,,,,,,,
,,,,,,,,2023-08-16_08h49.48.587,HF_wild_card,2022.2.4,Win32,6.26232896,57fc95035682050001101433,64d2fd46c836a06233681665,64dc7f80167cac6986c54705,,,,,,,decisionTrl,resources/DG.BMP,resources/DP.BMP,Door1,0.298148148,0.065740741,1,0,0,1.6208,optionRight,30,12920,6,15,0,15,0,1,,,,,,,,,,,,,,,,,,,,,,,,,,,,,,,,,,,,,,,
,,,,,,,,2023-08-16_08h49.48.587,HF_wild_card,2022.2.4,Win32,6.26232896,57fc95035682050001101433,64d2fd46c836a06233681665,64dc7f80167cac6986c54705,,,,,,,decisionTrl,resources/DG.BMP,resources/DR.BMP,Door2,-0.235185185,-0.034259259,1,0,0,1.2032,optionLeft,40,12960,6,16,0,16,0,1,,,,,,,,,,,,,,,,,,,,,,,,,,,,,,,,,,,,,,,
,,,,,,,,2023-08-16_08h49.48.587,HF_wild_card,2022.2.4,Win32,6.26232896,57fc95035682050001101433,64d2fd46c836a06233681665,64dc7f80167cac6986c54705,,,,,,,decisionTrl,resources/DG.BMP,resources/DP.BMP,Door2,-0.308333333,0,1,0,0,1.7272,optionLeft,20,12980,6,17,0,17,0,1,,,,,,,,,,,,,,,,,,,,,,,,,,,,,,,,,,,,,,,
,,,,,,,,2023-08-16_08h49.48.587,HF_wild_card,2022.2.4,Win32,6.26232896,57fc95035682050001101433,64d2fd46c836a06233681665,64dc7f80167cac6986c54705,,,,,,,decisionTrl,resources/DR.BMP,resources/DP.BMP,WildCard_Ex,-0.227777778,0.056481481,1,0,0,1.3965,optionLeft,45,13025,6,18,0,18,0,1,,,,,,,,,,,,,,,,,,,,,,,,,,,,,,,,,,,,,,,
,,,,,,,,2023-08-16_08h49.48.587,HF_wild_card,2022.2.4,Win32,6.26232896,57fc95035682050001101433,64d2fd46c836a06233681665,64dc7f80167cac6986c54705,,,,,,,ctch,resources/DB.BMP,resources/DG.BMP,Door3,-0.378703704,-0.048148148,1,0,0,1.4443,optionLeft,70,13095,6,19,0,19,0,1,,,,,,,,,,,,,,,,,,,,,,,,,,,,,,,,,,,,,,,
,,,,,,,,2023-08-16_08h49.48.587,HF_wild_card,2022.2.4,Win32,6.26232896,57fc95035682050001101433,64d2fd46c836a06233681665,64dc7f80167cac6986c54705,,,,,,,sngl,resources/Empty.png,resources/DG.BMP,Door2,0.246296296,0.092592593,1,0,0,1.1112,optionRight,40,13135,6,20,0,20,0,1,,,,,,,,,,,,,,,,,,,,,,,,,,,,,,,,,,,,,,,
,,,,,,,,2023-08-16_08h49.48.587,HF_wild_card,2022.2.4,Win32,6.26232896,57fc95035682050001101433,64d2fd46c836a06233681665,64dc7f80167cac6986c54705,,,,,,,ctch,resources/DP.BMP,resources/DY.BMP,Door4,0.27037037,0.021296296,1,0,0,1.4244,optionRight,80,13215,6,21,0,21,0,1,,,,,,,,,,,,,,,,,,,,,,,,,,,,,,,,,,,,,,,
,,,,,,,,2023-08-16_08h49.48.587,HF_wild_card,2022.2.4,Win32,6.26232896,57fc95035682050001101433,64d2fd46c836a06233681665,64dc7f80167cac6986c54705,,,,,,,decisionTrl,resources/DB.BMP,resources/DY.BMP,Door4,0.384259259,0.052777778,1,0,0,1.412,optionRight,80,13295,6,22,0,22,0,1,,,,,,,,,,,,,,,,,,,,,,,,,,,,,,,,,,,,,,,
,,,,,,,,2023-08-16_08h49.48.587,HF_wild_card,2022.2.4,Win32,6.26232896,57fc95035682050001101433,64d2fd46c836a06233681665,64dc7f80167cac6986c54705,,,,,,,ctch,resources/DB.BMP,resources/DG.BMP,Door3,-0.273148148,-0.003703704,1,0,0,1.1425,optionLeft,70,13365,6,23,0,23,0,1,,,,,,,,,,,,,,,,,,,,,,,,,,,,,,,,,,,,,,,
,,,,,,,,2023-08-16_08h49.48.587,HF_wild_card,2022.2.4,Win32,6.26232896,57fc95035682050001101433,64d2fd46c836a06233681665,64dc7f80167cac6986c54705,,,,,,,decisionTrl,resources/DY.BMP,resources/DB.BMP,Door3,0.491666667,0.125925926,1,0,0,1.8915,optionRight,70,13435,6,24,0,24,0,1,,,,,,,,,,,,,,,,,,,,,,,,,,,,,,,,,,,,,,,
,,,,,,,,2023-08-16_08h49.48.587,HF_wild_card,2022.2.4,Win32,6.26232896,57fc95035682050001101433,64d2fd46c836a06233681665,64dc7f80167cac6986c54705,,,,,,,decisionTrl,resources/DB.BMP,resources/DY.BMP,Door4,-0.000925926,0.002777778,1,0,0,0.5945,optionRight,80,13515,6,25,0,25,0,1,,,,,,,,,,,,,,,,,,,,,,,,,,,,,,,,,,,,,,,
,,,,,,,,2023-08-16_08h49.48.587,HF_wild_card,2022.2.4,Win32,6.26232896,57fc95035682050001101433,64d2fd46c836a06233681665,64dc7f80167cac6986c54705,,,,,,,decisionTrl,resources/DG.BMP,resources/DP.BMP,Door2,-0.113888889,0.051851852,1,0,0,2.835,optionLeft,40,13555,6,26,0,26,0,1,,,,,,,,,,,,,,,,,,,,,,,,,,,,,,,,,,,,,,,
,,,,,,,,2023-08-16_08h49.48.587,HF_wild_card,2022.2.4,Win32,6.26232896,57fc95035682050001101433,64d2fd46c836a06233681665,64dc7f80167cac6986c54705,,,,,,,sngl,resources/DG.BMP,resources/Empty.png,Door2,-0.2,0.000925926,1,0,0,1.0951,optionLeft,20,13575,6,27,0,27,0,1,,,,,,,,,,,,,,,,,,,,,,,,,,,,,,,,,,,,,,,
,,,,,,,,2023-08-16_08h49.48.587,HF_wild_card,2022.2.4,Win32,6.26232896,57fc95035682050001101433,64d2fd46c836a06233681665,64dc7f80167cac6986c54705,,,,,,,sngl,resources/DP.BMP,resources/Empty.png,Door1,-0.157407407,0.050925926,1,0,0,1.1025,optionLeft,30,13605,6,28,0,28,0,1,,,,,,,,,,,,,,,,,,,,,,,,,,,,,,,,,,,,,,,
,,,,,,,,2023-08-16_08h49.48.587,HF_wild_card,2022.2.4,Win32,6.26232896,57fc95035682050001101433,64d2fd46c836a06233681665,64dc7f80167cac6986c54705,,,,,,,decisionTrl,resources/DY.BMP,resources/DB.BMP,Door4,-0.282407407,-0.010185185,1,0,0,1.4179,optionLeft,60,13665,6,29,0,29,0,1,,,,,,,,,,,,,,,,,,,,,,,,,,,,,,,,,,,,,,,
,,,,,,,,2023-08-16_08h49.48.587,HF_wild_card,2022.2.4,Win32,6.26232896,57fc95035682050001101433,64d2fd46c836a06233681665,64dc7f80167cac6986c54705,,,,,,,decisionTrl,resources/DY.BMP,resources/DR.BMP,Door4,-0.168518519,0.075925926,1,0,0,1.4031,optionLeft,80,13745,6,30,0,30,0,1,,,,,,,,,,,,,,,,,,,,,,,,,,,,,,,,,,,,,,,
,,,,,,,,2023-08-16_08h49.48.587,HF_wild_card,2022.2.4,Win32,6.26232896,57fc95035682050001101433,64d2fd46c836a06233681665,64dc7f80167cac6986c54705,,,,,,,sngl,resources/Empty.png,resources/DB.BMP,Door3,0.334259259,0.046296296,1,0,0,1.0721,optionRight,70,13815,6,31,0,31,0,1,,,,,,,,,,,,,,,,,,,,,,,,,,,,,,,,,,,,,,,
,,,,,,,,2023-08-16_08h49.48.587,HF_wild_card,2022.2.4,Win32,6.26232896,57fc95035682050001101433,64d2fd46c836a06233681665,64dc7f80167cac6986c54705,,,,,,,ctch,resources/DY.BMP,resources/DP.BMP,Door4,-0.202777778,0.028703704,1,0,0,2.904,optionLeft,80,13895,6,32,0,32,0,1,,,,,,,,,,,,,,,,,,,,,,,,,,,,,,,,,,,,,,,
,,,,,,,,2023-08-16_08h49.48.587,HF_wild_card,2022.2.4,Win32,6.26232896,57fc95035682050001101433,64d2fd46c836a06233681665,64dc7f80167cac6986c54705,,,,,,,ctch,resources/DP.BMP,resources/DY.BMP,Door4,0.201851852,0.062037037,1,0,0,1.1474,optionRight,80,13975,6,33,0,33,0,1,,,,,,,,,,,,,,,,,,,,,,,,,,,,,,,,,,,,,,,
,,,,,,,,2023-08-16_08h49.48.587,HF_wild_card,2022.2.4,Win32,6.26232896,57fc95035682050001101433,64d2fd46c836a06233681665,64dc7f80167cac6986c54705,,,,,,,decisionTrl,resources/DP.BMP,resources/DG.BMP,Door2,0.013888889,0.006481481,1,0,0,0.7109,optionRight,20,13995,6,34,0,34,0,1,,,,,,,,,,,,,,,,,,,,,,,,,,,,,,,,,,,,,,,
,,,,,,,,2023-08-16_08h49.48.587,HF_wild_card,2022.2.4,Win32,6.26232896,57fc95035682050001101433,64d2fd46c836a06233681665,64dc7f80167cac6986c54705,,,,,,,decisionTrl,resources/DP.BMP,resources/DG.BMP,Door1,-0.262962963,-0.015740741,1,0,0,1.1866,optionLeft,30,14025,6,35,0,35,0,1,,,,,,,,,,,,,,,,,,,,,,,,,,,,,,,,,,,,,,,
,,,,,,,,2023-08-16_08h49.48.587,HF_wild_card,2022.2.4,Win32,6.26232896,57fc95035682050001101433,64d2fd46c836a06233681665,64dc7f80167cac6986c54705,,,,,,,decisionTrl,resources/DG.BMP,resources/DP.BMP,Door1,0.232407407,0.016666667,1,0,0,1.725,optionRight,30,14055,6,36,0,36,0,1,,,,,,,,,,,,,,,,,,,,,,,,,,,,,,,,,,,,,,,
,,,,,,,,2023-08-16_08h49.48.587,HF_wild_card,2022.2.4,Win32,6.26232896,57fc95035682050001101433,64d2fd46c836a06233681665,64dc7f80167cac6986c54705,,,,,,,sngl,resources/Empty.png,resources/DY.BMP,Door4,0.176851852,0.062037037,1,0,0,1.1007,optionRight,80,14135,6,37,0,37,0,1,,,,,,,,,,,,,,,,,,,,,,,,,,,,,,,,,,,,,,,
,,,,,,,,2023-08-16_08h49.48.587,HF_wild_card,2022.2.4,Win32,6.26232896,57fc95035682050001101433,64d2fd46c836a06233681665,64dc7f80167cac6986c54705,,,,,,,decisionTrl,resources/DR.BMP,resources/DG.BMP,WildCard_Ex,-0.271296296,-0.062962963,1,0,0,2.1082,optionLeft,55,14190,6,38,0,38,0,1,,,,,,,,,,,,,,,,,,,,,,,,,,,,,,,,,,,,,,,
,,,,,,,,2023-08-16_08h49.48.587,HF_wild_card,2022.2.4,Win32,6.26232896,57fc95035682050001101433,64d2fd46c836a06233681665,64dc7f80167cac6986c54705,,,,,,,decisionTrl,resources/DB.BMP,resources/DR.BMP,Door3,-0.241666667,-0.023148148,1,0,0,1.496,optionLeft,70,14260,6,39,0,39,0,1,,,,,,,,,,,,,,,,,,,,,,,,,,,,,,,,,,,,,,,
,,,,,,,,2023-08-16_08h49.48.587,HF_wild_card,2022.2.4,Win32,6.26232896,57fc95035682050001101433,64d2fd46c836a06233681665,64dc7f80167cac6986c54705,,,,,,,decisionTrl,resources/DP.BMP,resources/DG.BMP,Door2,0.299074074,0.039814815,1,0,0,1.2331,optionRight,20,14280,6,40,0,40,0,1,,,,,,,,,,,,,,,,,,,,,,,,,,,,,,,,,,,,,,,
,,,,,,,,2023-08-16_08h49.48.587,HF_wild_card,2022.2.4,Win32,6.26232896,57fc95035682050001101433,64d2fd46c836a06233681665,64dc7f80167cac6986c54705,,,,,,,decisionTrl,resources/DB.BMP,resources/DY.BMP,Door4,0.335185185,0.037037037,1,0,0,1.3618,optionRight,60,14340,6,41,0,41,0,1,,,,,,,,,,,,,,,,,,,,,,,,,,,,,,,,,,,,,,,
,,,,,,,,2023-08-16_08h49.48.587,HF_wild_card,2022.2.4,Win32,6.26232896,57fc95035682050001101433,64d2fd46c836a06233681665,64dc7f80167cac6986c54705,,,,,,,sngl,resources/DY.BMP,resources/Empty.png,Door4,-0.265740741,-0.018518519,1,0,0,1.066,optionLeft,60,14400,6,42,0,42,0,1,,,,,,,,,,,,,,,,,,,,,,,,,,,,,,,,,,,,,,,
,,,,,,,,2023-08-16_08h49.48.587,HF_wild_card,2022.2.4,Win32,6.26232896,57fc95035682050001101433,64d2fd46c836a06233681665,64dc7f80167cac6986c54705,,,,,,,sngl,resources/Empty.png,resources/DR.BMP,WildCard_Ex,0.27962963,0.125925926,1,0,0,1.0523,optionRight,55,14455,6,43,0,43,0,1,,,,,,,,,,,,,,,,,,,,,,,,,,,,,,,,,,,,,,,
,,,,,,,,2023-08-16_08h49.48.587,HF_wild_card,2022.2.4,Win32,6.26232896,57fc95035682050001101433,64d2fd46c836a06233681665,64dc7f80167cac6986c54705,,,,,,,,,,,,,,,,,,,,,,,,,,5,0,5,0,1,,,,,,,,,,,,,,,,,,,,,,,,,,,,,,,,,,
,,,,,,,,2023-08-16_08h49.48.587,HF_wild_card,2022.2.4,Win32,6.26232896,57fc95035682050001101433,64d2fd46c836a06233681665,64dc7f80167cac6986c54705,,,,,,,decisionTrl,resources/DY.BMP,resources/DB.BMP,Door4,-0.235185185,-0.134259259,1,0,0,1.4292,optionLeft,60,14515,7,0,0,0,0,1,,,,,,,,,,,,,,,,,,,,,,,,,,,,,,,,,,,,,,,
,,,,,,,,2023-08-16_08h49.48.587,HF_wild_card,2022.2.4,Win32,6.26232896,57fc95035682050001101433,64d2fd46c836a06233681665,64dc7f80167cac6986c54705,,,,,,,decisionTrl,resources/DG.BMP,resources/DP.BMP,Door2,-0.246296296,0.023148148,1,0,0,2.1715,optionLeft,40,14555,7,1,0,1,0,1,,,,,,,,,,,,,,,,,,,,,,,,,,,,,,,,,,,,,,,
,,,,,,,,2023-08-16_08h49.48.587,HF_wild_card,2022.2.4,Win32,6.26232896,57fc95035682050001101433,64d2fd46c836a06233681665,64dc7f80167cac6986c54705,,,,,,,ctch,resources/DY.BMP,resources/DP.BMP,Door4,-0.217592593,0.012037037,1,0,0,2.0909,optionLeft,60,14615,7,2,0,2,0,1,,,,,,,,,,,,,,,,,,,,,,,,,,,,,,,,,,,,,,,
,,,,,,,,2023-08-16_08h49.48.587,HF_wild_card,2022.2.4,Win32,6.26232896,57fc95035682050001101433,64d2fd46c836a06233681665,64dc7f80167cac6986c54705,,,,,,,decisionTrl,resources/DG.BMP,resources/DP.BMP,Door2,-0.271296296,-0.015740741,1,0,0,2.7591,optionLeft,40,14655,7,3,0,3,0,1,,,,,,,,,,,,,,,,,,,,,,,,,,,,,,,,,,,,,,,
,,,,,,,,2023-08-16_08h49.48.587,HF_wild_card,2022.2.4,Win32,6.26232896,57fc95035682050001101433,64d2fd46c836a06233681665,64dc7f80167cac6986c54705,,,,,,,ctch,resources/DB.BMP,resources/DG.BMP,Door3,-0.199074074,0.026851852,1,0,0,1.2091,optionLeft,70,14725,7,4,0,4,0,1,,,,,,,,,,,,,,,,,,,,,,,,,,,,,,,,,,,,,,,
,,,,,,,,2023-08-16_08h49.48.587,HF_wild_card,2022.2.4,Win32,6.26232896,57fc95035682050001101433,64d2fd46c836a06233681665,64dc7f80167cac6986c54705,,,,,,,decisionTrl,resources/DG.BMP,resources/DP.BMP,Door1,0.406481481,0.008333333,1,0,0,2.101,optionRight,30,14755,7,5,0,5,0,1,,,,,,,,,,,,,,,,,,,,,,,,,,,,,,,,,,,,,,,
,,,,,,,,2023-08-16_08h49.48.587,HF_wild_card,2022.2.4,Win32,6.26232896,57fc95035682050001101433,64d2fd46c836a06233681665,64dc7f80167cac6986c54705,,,,,,,decisionTrl,resources/DY.BMP,resources/DB.BMP,Door3,0.251851852,0.034259259,1,0,0,2.125,optionRight,70,14825,7,6,0,6,0,1,,,,,,,,,,,,,,,,,,,,,,,,,,,,,,,,,,,,,,,
,,,,,,,,2023-08-16_08h49.48.587,HF_wild_card,2022.2.4,Win32,6.26232896,57fc95035682050001101433,64d2fd46c836a06233681665,64dc7f80167cac6986c54705,,,,,,,decisionTrl,resources/DG.BMP,resources/DP.BMP,Door1,0.332407407,-0.023148148,1,0,0,1.4401,optionRight,30,14855,7,7,0,7,0,1,,,,,,,,,,,,,,,,,,,,,,,,,,,,,,,,,,,,,,,
,,,,,,,,2023-08-16_08h49.48.587,HF_wild_card,2022.2.4,Win32,6.26232896,57fc95035682050001101433,64d2fd46c836a06233681665,64dc7f80167cac6986c54705,,,,,,,decisionTrl,resources/DG.BMP,resources/DP.BMP,Door1,0.274074074,-0.00462963,1,0,0,1.137,optionRight,30,14885,7,8,0,8,0,1,,,,,,,,,,,,,,,,,,,,,,,,,,,,,,,,,,,,,,,
,,,,,,,,2023-08-16_08h49.48.587,HF_wild_card,2022.2.4,Win32,6.26232896,57fc95035682050001101433,64d2fd46c836a06233681665,64dc7f80167cac6986c54705,,,,,,,decisionTrl,resources/DB.BMP,resources/DY.BMP,Door4,0.015740741,0.016666667,1,0,0,0.6828,optionRight,80,14965,7,9,0,9,0,1,,,,,,,,,,,,,,,,,,,,,,,,,,,,,,,,,,,,,,,
,,,,,,,,2023-08-16_08h49.48.587,HF_wild_card,2022.2.4,Win32,6.26232896,57fc95035682050001101433,64d2fd46c836a06233681665,64dc7f80167cac6986c54705,,,,,,,decisionTrl,resources/DP.BMP,resources/DG.BMP,Door2,0.260185185,-0.003703704,1,0,0,2.1608,optionRight,20,14985,7,10,0,10,0,1,,,,,,,,,,,,,,,,,,,,,,,,,,,,,,,,,,,,,,,
,,,,,,,,2023-08-16_08h49.48.587,HF_wild_card,2022.2.4,Win32,6.26232896,57fc95035682050001101433,64d2fd46c836a06233681665,64dc7f80167cac6986c54705,,,,,,,decisionTrl,resources/DB.BMP,resources/DY.BMP,Door4,0.226851852,-0.001851852,1,0,0,2.3626,optionRight,80,15065,7,11,0,11,0,1,,,,,,,,,,,,,,,,,,,,,,,,,,,,,,,,,,,,,,,
,,,,,,,,2023-08-16_08h49.48.587,HF_wild_card,2022.2.4,Win32,6.26232896,57fc95035682050001101433,64d2fd46c836a06233681665,64dc7f80167cac6986c54705,,,,,,,decisionTrl,resources/DB.BMP,resources/DY.BMP,Door4,0.212962963,0,1,0,0,1.5019,optionRight,60,15125,7,12,0,12,0,1,,,,,,,,,,,,,,,,,,,,,,,,,,,,,,,,,,,,,,,
,,,,,,,,2023-08-16_08h49.48.587,HF_wild_card,2022.2.4,Win32,6.26232896,57fc95035682050001101433,64d2fd46c836a06233681665,64dc7f80167cac6986c54705,,,,,,,ctch,resources/DP.BMP,resources/DY.BMP,Door4,0.240740741,0.002777778,1,0,0,1.2103,optionRight,60,15185,7,13,0,13,0,1,,,,,,,,,,,,,,,,,,,,,,,,,,,,,,,,,,,,,,,
,,,,,,,,2023-08-16_08h49.48.587,HF_wild_card,2022.2.4,Win32,6.26232896,57fc95035682050001101433,64d2fd46c836a06233681665,64dc7f80167cac6986c54705,,,,,,,ctch,resources/DG.BMP,resources/DB.BMP,Door3,0.275,0.023148148,1,0,0,2.5877,optionRight,70,15255,7,14,0,14,0,1,,,,,,,,,,,,,,,,,,,,,,,,,,,,,,,,,,,,,,,
,,,,,,,,2023-08-16_08h49.48.587,HF_wild_card,2022.2.4,Win32,6.26232896,57fc95035682050001101433,64d2fd46c836a06233681665,64dc7f80167cac6986c54705,,,,,,,ctch,resources/DP.BMP,resources/DY.BMP,Door4,0.262037037,0.005555556,1,0,0,1.1717,optionRight,60,15315,7,15,0,15,0,1,,,,,,,,,,,,,,,,,,,,,,,,,,,,,,,,,,,,,,,
,,,,,,,,2023-08-16_08h49.48.587,HF_wild_card,2022.2.4,Win32,6.26232896,57fc95035682050001101433,64d2fd46c836a06233681665,64dc7f80167cac6986c54705,,,,,,,decisionTrl,resources/DY.BMP,resources/DB.BMP,Door3,-0.000925926,0.018518519,1,0,0,0.6764,optionRight,70,15385,7,16,0,16,0,1,,,,,,,,,,,,,,,,,,,,,,,,,,,,,,,,,,,,,,,
,,,,,,,,2023-08-16_08h49.48.587,HF_wild_card,2022.2.4,Win32,6.26232896,57fc95035682050001101433,64d2fd46c836a06233681665,64dc7f80167cac6986c54705,,,,,,,decisionTrl,resources/DB.BMP,resources/DY.BMP,Door4,0.265740741,0.002777778,1,0,0,1.1791,optionRight,80,15465,7,17,0,17,0,1,,,,,,,,,,,,,,,,,,,,,,,,,,,,,,,,,,,,,,,
,,,,,,,,2023-08-16_08h49.48.587,HF_wild_card,2022.2.4,Win32,6.26232896,57fc95035682050001101433,64d2fd46c836a06233681665,64dc7f80167cac6986c54705,,,,,,,ctch,resources/DP.BMP,resources/DY.BMP,Door4,0.216666667,0.017592593,1,0,0,0.9592,optionRight,80,15545,7,18,0,18,0,1,,,,,,,,,,,,,,,,,,,,,,,,,,,,,,,,,,,,,,,
,,,,,,,,2023-08-16_08h49.48.587,HF_wild_card,2022.2.4,Win32,6.26232896,57fc95035682050001101433,64d2fd46c836a06233681665,64dc7f80167cac6986c54705,,,,,,,ctch,resources/DY.BMP,resources/DP.BMP,Door4,-0.20462963,-0.018518519,1,0,0,1.4065,optionLeft,80,15625,7,19,0,19,0,1,,,,,,,,,,,,,,,,,,,,,,,,,,,,,,,,,,,,,,,
,,,,,,,,2023-08-16_08h49.48.587,HF_wild_card,2022.2.4,Win32,6.26232896,57fc95035682050001101433,64d2fd46c836a06233681665,64dc7f80167cac6986c54705,,,,,,,ctch,resources/DG.BMP,resources/DB.BMP,Door3,0.261111111,0.011111111,1,0,0,1.2239,optionRight,70,15695,7,20,0,20,0,1,,,,,,,,,,,,,,,,,,,,,,,,,,,,,,,,,,,,,,,
,,,,,,,,2023-08-16_08h49.48.587,HF_wild_card,2022.2.4,Win32,6.26232896,57fc95035682050001101433,64d2fd46c836a06233681665,64dc7f80167cac6986c54705,,,,,,,decisionTrl,resources/DP.BMP,resources/DG.BMP,Door2,0.169444444,0.035185185,1,0,0,1.6068,optionRight,40,15735,7,21,0,21,0,1,,,,,,,,,,,,,,,,,,,,,,,,,,,,,,,,,,,,,,,
,,,,,,,,2023-08-16_08h49.48.587,HF_wild_card,2022.2.4,Win32,6.26232896,57fc95035682050001101433,64d2fd46c836a06233681665,64dc7f80167cac6986c54705,,,,,,,ctch,resources/DY.BMP,resources/DP.BMP,Door4,-0.139814815,-0.006481481,1,0,0,1.1639,optionLeft,80,15815,7,22,0,22,0,1,,,,,,,,,,,,,,,,,,,,,,,,,,,,,,,,,,,,,,,
,,,,,,,,2023-08-16_08h49.48.587,HF_wild_card,2022.2.4,Win32,6.26232896,57fc95035682050001101433,64d2fd46c836a06233681665,64dc7f80167cac6986c54705,,,,,,,decisionTrl,resources/DP.BMP,resources/DG.BMP,Door2,0.212037037,0.006481481,1,0,0,1.9052,optionRight,20,15835,7,23,0,23,0,1,,,,,,,,,,,,,,,,,,,,,,,,,,,,,,,,,,,,,,,
,,,,,,,,2023-08-16_08h49.48.587,HF_wild_card,2022.2.4,Win32,6.26232896,57fc95035682050001101433,64d2fd46c836a06233681665,64dc7f80167cac6986c54705,,,,,,,decisionTrl,resources/DG.BMP,resources/DP.BMP,Door2,-0.20462963,0.000925926,1,0,0,1.8428,optionLeft,20,15855,7,24,0,24,0,1,,,,,,,,,,,,,,,,,,,,,,,,,,,,,,,,,,,,,,,
,,,,,,,,2023-08-16_08h49.48.587,HF_wild_card,2022.2.4,Win32,6.26232896,57fc95035682050001101433,64d2fd46c836a06233681665,64dc7f80167cac6986c54705,,,,,,,ctch,resources/DG.BMP,resources/DB.BMP,Door3,0.152777778,-0.005555556,1,0,0,1.2602,optionRight,70,15925,7,25,0,25,0,1,,,,,,,,,,,,,,,,,,,,,,,,,,,,,,,,,,,,,,,
,,,,,,,,2023-08-16_08h49.48.587,HF_wild_card,2022.2.4,Win32,6.26232896,57fc95035682050001101433,64d2fd46c836a06233681665,64dc7f80167cac6986c54705,,,,,,,ctch,resources/DB.BMP,resources/DG.BMP,Door3,-0.115740741,0.003703704,1,0,0,1.3868,optionLeft,70,15995,7,26,0,26,0,1,,,,,,,,,,,,,,,,,,,,,,,,,,,,,,,,,,,,,,,
,,,,,,,,2023-08-16_08h49.48.587,HF_wild_card,2022.2.4,Win32,6.26232896,57fc95035682050001101433,64d2fd46c836a06233681665,64dc7f80167cac6986c54705,,,,,,,decisionTrl,resources/DB.BMP,resources/DY.BMP,Door4,0.187962963,0.04537037,1,0,0,1.1497,optionRight,60,16055,7,27,0,27,0,1,,,,,,,,,,,,,,,,,,,,,,,,,,,,,,,,,,,,,,,
,,,,,,,,2023-08-16_08h49.48.587,HF_wild_card,2022.2.4,Win32,6.26232896,57fc95035682050001101433,64d2fd46c836a06233681665,64dc7f80167cac6986c54705,,,,,,,decisionTrl,resources/DY.BMP,resources/DB.BMP,Door4,-0.197222222,-0.023148148,1,0,0,2.3587,optionLeft,60,16115,7,28,0,28,0,1,,,,,,,,,,,,,,,,,,,,,,,,,,,,,,,,,,,,,,,
,,,,,,,,2023-08-16_08h49.48.587,HF_wild_card,2022.2.4,Win32,6.26232896,57fc95035682050001101433,64d2fd46c836a06233681665,64dc7f80167cac6986c54705,,,,,,,decisionTrl,resources/DY.BMP,resources/DB.BMP,Door4,-0.175925926,-0.018518519,1,0,0,1.2323,optionLeft,80,16195,7,29,0,29,0,1,,,,,,,,,,,,,,,,,,,,,,,,,,,,,,,,,,,,,,,
,,,,,,,,2023-08-16_08h49.48.587,HF_wild_card,2022.2.4,Win32,6.26232896,57fc95035682050001101433,64d2fd46c836a06233681665,64dc7f80167cac6986c54705,,,,,,,ctch,resources/DB.BMP,resources/DG.BMP,Door3,-0.190740741,-0.022222222,1,0,0,1.2784,optionLeft,70,16265,7,30,0,30,0,1,,,,,,,,,,,,,,,,,,,,,,,,,,,,,,,,,,,,,,,
,,,,,,,,2023-08-16_08h49.48.587,HF_wild_card,2022.2.4,Win32,6.26232896,57fc95035682050001101433,64d2fd46c836a06233681665,64dc7f80167cac6986c54705,,,,,,,decisionTrl,resources/DP.BMP,resources/DG.BMP,Door2,0.199074074,0.038888889,1,0,0,1.2489,optionRight,40,16305,7,31,0,31,0,1,,,,,,,,,,,,,,,,,,,,,,,,,,,,,,,,,,,,,,,
,,,,,,,,2023-08-16_08h49.48.587,HF_wild_card,2022.2.4,Win32,6.26232896,57fc95035682050001101433,64d2fd46c836a06233681665,64dc7f80167cac6986c54705,,,,,,,decisionTrl,resources/DP.BMP,resources/DG.BMP,Door2,0.147222222,0.012962963,1,0,0,1.1767,optionRight,20,16325,7,32,0,32,0,1,,,,,,,,,,,,,,,,,,,,,,,,,,,,,,,,,,,,,,,
,,,,,,,,2023-08-16_08h49.48.587,HF_wild_card,2022.2.4,Win32,6.26232896,57fc95035682050001101433,64d2fd46c836a06233681665,64dc7f80167cac6986c54705,,,,,,,decisionTrl,resources/DB.BMP,resources/DY.BMP,Door4,0.155555556,0.015740741,1,0,0,2.3087,optionRight,60,16385,7,33,0,33,0,1,,,,,,,,,,,,,,,,,,,,,,,,,,,,,,,,,,,,,,,
,,,,,,,,2023-08-16_08h49.48.587,HF_wild_card,2022.2.4,Win32,6.26232896,57fc95035682050001101433,64d2fd46c836a06233681665,64dc7f80167cac6986c54705,,,,,,,decisionTrl,resources/DY.BMP,resources/DB.BMP,Door3,0.298148148,0.010185185,1,0,0,2.9137,optionRight,70,16455,7,34,0,34,0,1,,,,,,,,,,,,,,,,,,,,,,,,,,,,,,,,,,,,,,,
,,,,,,,,2023-08-16_08h49.48.587,HF_wild_card,2022.2.4,Win32,6.26232896,57fc95035682050001101433,64d2fd46c836a06233681665,64dc7f80167cac6986c54705,,,,,,,decisionTrl,resources/DP.BMP,resources/DG.BMP,Door1,-0.258333333,-0.028703704,1,0,0,2.5996,optionLeft,30,16485,7,35,0,35,0,1,,,,,,,,,,,,,,,,,,,,,,,,,,,,,,,,,,,,,,,
,,,,,,,,2023-08-16_08h49.48.587,HF_wild_card,2022.2.4,Win32,6.26232896,57fc95035682050001101433,64d2fd46c836a06233681665,64dc7f80167cac6986c54705,,,,,,,,,,,,,,,,,,,,,,,,,,6,0,6,0,1,,,,,,,,,,,,,,,,,,,,,,,,,,,,,,,,,,
,,,,,,,,2023-08-16_08h49.48.587,HF_wild_card,2022.2.4,Win32,6.26232896,57fc95035682050001101433,64d2fd46c836a06233681665,64dc7f80167cac6986c54705,,,,,,,,,,,,,,,,,,,,,,,,,,,,,,,4,,,,,,,,,,,,,,,,,,,,,,,,,,,,,,,,,
,,,,,,,,2023-08-16_08h49.48.587,HF_wild_card,2022.2.4,Win32,6.26232896,57fc95035682050001101433,64d2fd46c836a06233681665,64dc7f80167cac6986c54705,,,,,,,,,,,,,,,,,,,,,,,,,,,,,,,,,,,,,,,,,,,,,,,,,,,,,,,,,,,,,,,,
,,,,,,,,2023-08-16_08h49.48.587,HF_wild_card,2022.2.4,Win32,6.26232896,57fc95035682050001101433,64d2fd46c836a06233681665,64dc7f80167cac6986c54705,,,,,,,,,,,,,,,,,,,,,,,,,,,,,,,,55,WC_nonExtreme,resources/DBN.BMP,0,0,0,0,1,,,,,,,,,,,,,,,,,,,,,,,,,
,,,,,,,,2023-08-16_08h49.48.587,HF_wild_card,2022.2.4,Win32,6.26232896,57fc95035682050001101433,64d2fd46c836a06233681665,64dc7f80167cac6986c54705,,,,,,,,,,,,,,,,,,,,,,,,,,,,,,,,45,WC_extreme,resources/DR.BMP,1,0,1,0,1,,,,,,,,,,,,,,,,,,,,,,,,,
,,,,,,,,2023-08-16_08h49.48.587,HF_wild_card,2022.2.4,Win32,6.26232896,57fc95035682050001101433,64d2fd46c836a06233681665,64dc7f80167cac6986c54705,,,,,,,,,,,,,,,,,,,,,,,,,,,,,,,,20,Door2,resources/DG.BMP,2,0,2,0,1,,,,,,,,,,,,,,,,,,,,,,,,,
,,,,,,,,2023-08-16_08h49.48.587,HF_wild_card,2022.2.4,Win32,6.26232896,57fc95035682050001101433,64d2fd46c836a06233681665,64dc7f80167cac6986c54705,,,,,,,,,,,,,,,,,,,,,,,,,,,,,,,,70,Door3,resources/DB.BMP,3,0,3,0,1,,,,,,,,,,,,,,,,,,,,,,,,,
,,,,,,,,2023-08-16_08h49.48.587,HF_wild_card,2022.2.4,Win32,6.26232896,57fc95035682050001101433,64d2fd46c836a06233681665,64dc7f80167cac6986c54705,,,,,,,,,,,,,,,,,,,,,,,,,,,,,,,,80,Door4,resources/DY.BMP,4,0,4,0,1,,,,,,,,,,,,,,,,,,,,,,,,,
,,,,,,,,2023-08-16_08h49.48.587,HF_wild_card,2022.2.4,Win32,6.26232896,57fc95035682050001101433,64d2fd46c836a06233681665,64dc7f80167cac6986c54705,,,,,,,,,,,,,,,,,,,,,,,,,,,,,,,,30,Door1,resources/DP.BMP,5,0,5,0,1,,,,,,,,,,,,,,,,,,,,,,,,,
,,,,,,,,2023-08-16_08h49.48.587,HF_wild_card,2022.2.4,Win32,6.26232896,57fc95035682050001101433,64d2fd46c836a06233681665,64dc7f80167cac6986c54705,,,,,,,,,,,,,,,,,,,,,,,,,,,,,,,,,,,,,,,,,,,,,,,,,,,,,,,,,,,,,,,,
,,,,,,,,2023-08-16_08h49.48.587,HF_wild_card,2022.2.4,Win32,6.26232896,57fc95035682050001101433,64d2fd46c836a06233681665,64dc7f80167cac6986c54705,,,,,,,,,,,,,,,,,,,,,,,,,,,,,,,,,,,,,,,,0,0,0,0,1,,,,,,,,,,,,,,,,,,,,
,,,,,,,,2023-08-16_08h49.48.587,HF_wild_card,2022.2.4,Win32,6.26232896,57fc95035682050001101433,64d2fd46c836a06233681665,64dc7f80167cac6986c54705,,,,,,,,,,,,,,,,,,,,,,,,,,,,,,,,,,,,,,,,1,0,1,0,1,,,,,,,,,,,,,,,,,,,,
