Condition,Low fixed image (Door1),Low risky image (Door2),High fixed image (Door3),High risky image (Door4),Extreme Wild Card,NonExtreme Wild Card,,date,expName,psychopyVersion,OS,frameRate,PROLIFIC_PID,STUDY_ID,SESSION_ID,mouse_2.x,mouse_2.y,mouse_2.leftButton,mouse_2.midButton,mouse_2.rightButton,mouse_2.clicked_name,Trial Type,Left Option Image,Right Option Image,Chosen Door,mouse.x,mouse.y,mouse.leftButton,mouse.midButton,mouse.rightButton,mouse.time,mouse.clicked_name,Feedback,Cumulative Reward,Block,trial.thisRepN,trial.thisTrialN,trial.thisN,trial.thisIndex,trial.ran,blocks.thisRepN,blocks.thisTrialN,blocks.thisN,blocks.thisIndex,blocks.ran,Money conversion,First Outcome Reported,Shown Door (First Outcome),Displayed Image (First Outcome),outcomes.thisRepN,outcomes.thisTrialN,outcomes.thisN,outcomes.thisIndex,outcomes.ran,judgments.thisRepN,judgments.thisTrialN,judgments.thisN,judgments.thisIndex,judgments.ran,freqMouse.x,freqMouse.y,freqMouse.leftButton,freqMouse.midButton,freqMouse.rightButton,freqMouse.clicked_name,FQJ for first outcome,FQJ for second outcome,Shown Door,Displayed Image,trials.thisRepN,trials.thisTrialN,trials.thisN,trials.thisIndex,trials.ran,judgBlock.thisRepN,judgBlock.thisTrialN,judgBlock.thisN,judgBlock.thisIndex,judgBlock.ran
1,resources/DY.BMP,resources/DBN.BMP,resources/DP.BMP,resources/DR.BMP,resources/DB.BMP,resources/DG.BMP,,2023-08-16_08h45.22.993,HF_wild_card,2022.2.4,Win32,120.860527,60967660853e8fcaf410748b,64d2fd46c836a06233681665,64dc7e19eb1304cbf1f75ced,,,,,,,,,,,,,,,,,,,,,,,,,,,,,,,,,,,,,,,,,,,,,,,,,,,,,,,,,,,,,,,,
,,,,,,,,2023-08-16_08h45.22.993,HF_wild_card,2022.2.4,Win32,120.860527,60967660853e8fcaf410748b,64d2fd46c836a06233681665,64dc7e19eb1304cbf1f75ced,0.001388889,-0.414583333,1,0,0,agree,,,,,,,,,,,,,,,,,,,,,,,,,,,,,,,,,,,,,,,,,,,,,,,,,,,,,,,,,,
,,,,,,,,2023-08-16_08h45.22.993,HF_wild_card,2022.2.4,Win32,120.860527,60967660853e8fcaf410748b,64d2fd46c836a06233681665,64dc7e19eb1304cbf1f75ced,,,,,,,,,,,,,,,,,,,,,,,,,,,,,,,,,,,,,,,,,,,,,,,,,,,,,,,,,,,,,,,,
,,,,,,,,2023-08-16_08h45.22.993,HF_wild_card,2022.2.4,Win32,120.860527,60967660853e8fcaf410748b,64d2fd46c836a06233681665,64dc7e19eb1304cbf1f75ced,,,,,,,decisionTrl,resources/DBN.BMP,resources/DY.BMP,Door2,-0.234722222,-0.034027778,1,0,0,0.708,optionLeft,20,20,1,0,0,0,0,1,,,,,,,,,,,,,,,,,,,,,,,,,,,,,,,,,,,,,,,
,,,,,,,,2023-08-16_08h45.22.993,HF_wild_card,2022.2.4,Win32,120.860527,60967660853e8fcaf410748b,64d2fd46c836a06233681665,64dc7e19eb1304cbf1f75ced,,,,,,,ctch,resources/DY.BMP,resources/DR.BMP,Door4,0.368055556,0.009027778,1,0,0,1.2237,optionRight,60,80,1,1,0,1,0,1,,,,,,,,,,,,,,,,,,,,,,,,,,,,,,,,,,,,,,,
,,,,,,,,2023-08-16_08h45.22.993,HF_wild_card,2022.2.4,Win32,120.860527,60967660853e8fcaf410748b,64d2fd46c836a06233681665,64dc7e19eb1304cbf1f75ced,,,,,,,decisionTrl,resources/DP.BMP,resources/DR.BMP,Door4,0.456944444,-0.021527778,1,0,0,0.4143,optionRight,60,140,1,2,0,2,0,1,,,,,,,,,,,,,,,,,,,,,,,,,,,,,,,,,,,,,,,
,,,,,,,,2023-08-16_08h45.22.993,HF_wild_card,2022.2.4,Win32,120.860527,60967660853e8fcaf410748b,64d2fd46c836a06233681665,64dc7e19eb1304cbf1f75ced,,,,,,,decisionTrl,resources/DY.BMP,resources/DG.BMP,WildCard_NonEx,0.322916667,-0.013194444,1,0,0,0.5566,optionRight,45,185,1,3,0,3,0,1,,,,,,,,,,,,,,,,,,,,,,,,,,,,,,,,,,,,,,,
,,,,,,,,2023-08-16_08h45.22.993,HF_wild_card,2022.2.4,Win32,120.860527,60967660853e8fcaf410748b,64d2fd46c836a06233681665,64dc7e19eb1304cbf1f75ced,,,,,,,decisionTrl,resources/DP.BMP,resources/DR.BMP,Door4,0.368055556,-0.020833333,1,0,0,0.4231,optionRight,60,245,1,4,0,4,0,1,,,,,,,,,,,,,,,,,,,,,,,,,,,,,,,,,,,,,,,
,,,,,,,,2023-08-16_08h45.22.993,HF_wild_card,2022.2.4,Win32,120.860527,60967660853e8fcaf410748b,64d2fd46c836a06233681665,64dc7e19eb1304cbf1f75ced,,,,,,,ctch,resources/DY.BMP,resources/DR.BMP,Door4,0.367361111,-0.016666667,1,0,0,0.5342,optionRight,80,325,1,5,0,5,0,1,,,,,,,,,,,,,,,,,,,,,,,,,,,,,,,,,,,,,,,
,,,,,,,,2023-08-16_08h45.22.993,HF_wild_card,2022.2.4,Win32,120.860527,60967660853e8fcaf410748b,64d2fd46c836a06233681665,64dc7e19eb1304cbf1f75ced,,,,,,,sngl,resources/DG.BMP,resources/Empty.png,WildCard_NonEx,-0.321527778,0.029166667,1,0,0,1.057,optionLeft,45,370,1,6,0,6,0,1,,,,,,,,,,,,,,,,,,,,,,,,,,,,,,,,,,,,,,,
,,,,,,,,2023-08-16_08h45.22.993,HF_wild_card,2022.2.4,Win32,120.860527,60967660853e8fcaf410748b,64d2fd46c836a06233681665,64dc7e19eb1304cbf1f75ced,,,,,,,sngl,resources/Empty.png,resources/DY.BMP,Door1,0.345833333,-0.005555556,1,0,0,0.4073,optionRight,30,400,1,7,0,7,0,1,,,,,,,,,,,,,,,,,,,,,,,,,,,,,,,,,,,,,,,
,,,,,,,,2023-08-16_08h45.22.993,HF_wild_card,2022.2.4,Win32,120.860527,60967660853e8fcaf410748b,64d2fd46c836a06233681665,64dc7e19eb1304cbf1f75ced,,,,,,,sngl,resources/DR.BMP,resources/Empty.png,Door4,-0.345833333,0.024305556,1,0,0,0.4235,optionLeft,80,480,1,8,0,8,0,1,,,,,,,,,,,,,,,,,,,,,,,,,,,,,,,,,,,,,,,
,,,,,,,,2023-08-16_08h45.22.993,HF_wild_card,2022.2.4,Win32,120.860527,60967660853e8fcaf410748b,64d2fd46c836a06233681665,64dc7e19eb1304cbf1f75ced,,,,,,,sngl,resources/DY.BMP,resources/Empty.png,Door1,-0.302777778,0.022916667,1,0,0,0.5315,optionLeft,30,510,1,9,0,9,0,1,,,,,,,,,,,,,,,,,,,,,,,,,,,,,,,,,,,,,,,
,,,,,,,,2023-08-16_08h45.22.993,HF_wild_card,2022.2.4,Win32,120.860527,60967660853e8fcaf410748b,64d2fd46c836a06233681665,64dc7e19eb1304cbf1f75ced,,,,,,,decisionTrl,resources/DG.BMP,resources/DY.BMP,Door1,0.297916667,0.002777778,1,0,0,0.4067,optionRight,30,540,1,10,0,10,0,1,,,,,,,,,,,,,,,,,,,,,,,,,,,,,,,,,,,,,,,
,,,,,,,,2023-08-16_08h45.22.993,HF_wild_card,2022.2.4,Win32,120.860527,60967660853e8fcaf410748b,64d2fd46c836a06233681665,64dc7e19eb1304cbf1f75ced,,,,,,,ctch,resources/DR.BMP,resources/DY.BMP,Door4,-0.34375,0.021527778,1,0,0,1.0737,optionLeft,60,600,1,11,0,11,0,1,,,,,,,,,,,,,,,,,,,,,,,,,,,,,,,,,,,,,,,
,,,,,,,,2023-08-16_08h45.22.993,HF_wild_card,2022.2.4,Win32,120.860527,60967660853e8fcaf410748b,64d2fd46c836a06233681665,64dc7e19eb1304cbf1f75ced,,,,,,,decisionTrl,resources/DBN.BMP,resources/DY.BMP,Door2,-0.311111111,0.019444444,1,0,0,0.5739,optionLeft,20,620,1,12,0,12,0,1,,,,,,,,,,,,,,,,,,,,,,,,,,,,,,,,,,,,,,,
,,,,,,,,2023-08-16_08h45.22.993,HF_wild_card,2022.2.4,Win32,120.860527,60967660853e8fcaf410748b,64d2fd46c836a06233681665,64dc7e19eb1304cbf1f75ced,,,,,,,decisionTrl,resources/DY.BMP,resources/DBN.BMP,Door1,-0.533333333,0.041666667,1,0,0,1.0401,optionLeft,30,650,1,13,0,13,0,1,,,,,,,,,,,,,,,,,,,,,,,,,,,,,,,,,,,,,,,
,,,,,,,,2023-08-16_08h45.22.993,HF_wild_card,2022.2.4,Win32,120.860527,60967660853e8fcaf410748b,64d2fd46c836a06233681665,64dc7e19eb1304cbf1f75ced,,,,,,,decisionTrl,resources/DG.BMP,resources/DR.BMP,Door4,0.241666667,-0.015972222,1,0,0,0.4568,optionRight,60,710,1,14,0,14,0,1,,,,,,,,,,,,,,,,,,,,,,,,,,,,,,,,,,,,,,,
,,,,,,,,2023-08-16_08h45.22.993,HF_wild_card,2022.2.4,Win32,120.860527,60967660853e8fcaf410748b,64d2fd46c836a06233681665,64dc7e19eb1304cbf1f75ced,,,,,,,decisionTrl,resources/DP.BMP,resources/DR.BMP,Door4,0.266666667,-0.010416667,1,0,0,0.5323,optionRight,80,790,1,15,0,15,0,1,,,,,,,,,,,,,,,,,,,,,,,,,,,,,,,,,,,,,,,
,,,,,,,,2023-08-16_08h45.22.993,HF_wild_card,2022.2.4,Win32,120.860527,60967660853e8fcaf410748b,64d2fd46c836a06233681665,64dc7e19eb1304cbf1f75ced,,,,,,,decisionTrl,resources/DY.BMP,resources/DBN.BMP,Door1,-0.310416667,0.045138889,1,0,0,1.0734,optionLeft,30,820,1,16,0,16,0,1,,,,,,,,,,,,,,,,,,,,,,,,,,,,,,,,,,,,,,,
,,,,,,,,2023-08-16_08h45.22.993,HF_wild_card,2022.2.4,Win32,120.860527,60967660853e8fcaf410748b,64d2fd46c836a06233681665,64dc7e19eb1304cbf1f75ced,,,,,,,decisionTrl,resources/DY.BMP,resources/DBN.BMP,Door1,-0.186805556,0.022916667,1,0,0,0.5153,optionLeft,30,850,1,17,0,17,0,1,,,,,,,,,,,,,,,,,,,,,,,,,,,,,,,,,,,,,,,
,,,,,,,,2023-08-16_08h45.22.993,HF_wild_card,2022.2.4,Win32,120.860527,60967660853e8fcaf410748b,64d2fd46c836a06233681665,64dc7e19eb1304cbf1f75ced,,,,,,,decisionTrl,resources/DBN.BMP,resources/DG.BMP,WildCard_NonEx,0.325,0.011111111,1,0,0,0.4825,optionRight,45,895,1,18,0,18,0,1,,,,,,,,,,,,,,,,,,,,,,,,,,,,,,,,,,,,,,,
,,,,,,,,2023-08-16_08h45.22.993,HF_wild_card,2022.2.4,Win32,120.860527,60967660853e8fcaf410748b,64d2fd46c836a06233681665,64dc7e19eb1304cbf1f75ced,,,,,,,ctch,resources/DBN.BMP,resources/DP.BMP,Door3,0.310416667,-0.001388889,1,0,0,0.6322,optionRight,70,965,1,19,0,19,0,1,,,,,,,,,,,,,,,,,,,,,,,,,,,,,,,,,,,,,,,
,,,,,,,,2023-08-16_08h45.22.993,HF_wild_card,2022.2.4,Win32,120.860527,60967660853e8fcaf410748b,64d2fd46c836a06233681665,64dc7e19eb1304cbf1f75ced,,,,,,,ctch,resources/DBN.BMP,resources/DP.BMP,Door3,0.382638889,-0.021527778,1,0,0,0.4653,optionRight,70,1035,1,20,0,20,0,1,,,,,,,,,,,,,,,,,,,,,,,,,,,,,,,,,,,,,,,
,,,,,,,,2023-08-16_08h45.22.993,HF_wild_card,2022.2.4,Win32,120.860527,60967660853e8fcaf410748b,64d2fd46c836a06233681665,64dc7e19eb1304cbf1f75ced,,,,,,,decisionTrl,resources/DG.BMP,resources/DP.BMP,Door3,0.296527778,-0.014583333,1,0,0,0.4076,optionRight,70,1105,1,21,0,21,0,1,,,,,,,,,,,,,,,,,,,,,,,,,,,,,,,,,,,,,,,
,,,,,,,,2023-08-16_08h45.22.993,HF_wild_card,2022.2.4,Win32,120.860527,60967660853e8fcaf410748b,64d2fd46c836a06233681665,64dc7e19eb1304cbf1f75ced,,,,,,,sngl,resources/Empty.png,resources/DP.BMP,Door3,0.35,-0.004166667,1,0,0,0.374,optionRight,70,1175,1,22,0,22,0,1,,,,,,,,,,,,,,,,,,,,,,,,,,,,,,,,,,,,,,,
,,,,,,,,2023-08-16_08h45.22.993,HF_wild_card,2022.2.4,Win32,120.860527,60967660853e8fcaf410748b,64d2fd46c836a06233681665,64dc7e19eb1304cbf1f75ced,,,,,,,sngl,resources/DP.BMP,resources/Empty.png,Door3,-0.290972222,0.025,1,0,0,0.4323,optionLeft,70,1245,1,23,0,23,0,1,,,,,,,,,,,,,,,,,,,,,,,,,,,,,,,,,,,,,,,
,,,,,,,,2023-08-16_08h45.22.993,HF_wild_card,2022.2.4,Win32,120.860527,60967660853e8fcaf410748b,64d2fd46c836a06233681665,64dc7e19eb1304cbf1f75ced,,,,,,,decisionTrl,resources/DP.BMP,resources/DR.BMP,Door3,-0.320833333,0.021527778,1,0,0,0.4232,optionLeft,70,1315,1,24,0,24,0,1,,,,,,,,,,,,,,,,,,,,,,,,,,,,,,,,,,,,,,,
,,,,,,,,2023-08-16_08h45.22.993,HF_wild_card,2022.2.4,Win32,120.860527,60967660853e8fcaf410748b,64d2fd46c836a06233681665,64dc7e19eb1304cbf1f75ced,,,,,,,decisionTrl,resources/DR.BMP,resources/DP.BMP,Door3,0.334027778,-0.029166667,1,0,0,0.4401,optionRight,70,1385,1,25,0,25,0,1,,,,,,,,,,,,,,,,,,,,,,,,,,,,,,,,,,,,,,,
,,,,,,,,2023-08-16_08h45.22.993,HF_wild_card,2022.2.4,Win32,120.860527,60967660853e8fcaf410748b,64d2fd46c836a06233681665,64dc7e19eb1304cbf1f75ced,,,,,,,decisionTrl,resources/DG.BMP,resources/DBN.BMP,WildCard_NonEx,-0.241666667,0.041666667,1,0,0,1.2823,optionLeft,55,1440,1,26,0,26,0,1,,,,,,,,,,,,,,,,,,,,,,,,,,,,,,,,,,,,,,,
,,,,,,,,2023-08-16_08h45.22.993,HF_wild_card,2022.2.4,Win32,120.860527,60967660853e8fcaf410748b,64d2fd46c836a06233681665,64dc7e19eb1304cbf1f75ced,,,,,,,ctch,resources/DP.BMP,resources/DBN.BMP,Door2,0.270833333,-0.004166667,1,0,0,0.8984,optionRight,20,1460,1,27,0,27,0,1,,,,,,,,,,,,,,,,,,,,,,,,,,,,,,,,,,,,,,,
,,,,,,,,2023-08-16_08h45.22.993,HF_wild_card,2022.2.4,Win32,120.860527,60967660853e8fcaf410748b,64d2fd46c836a06233681665,64dc7e19eb1304cbf1f75ced,,,,,,,decisionTrl,resources/DY.BMP,resources/DBN.BMP,Door1,-0.251388889,0.027083333,1,0,0,1.2412,optionLeft,30,1490,1,28,0,28,0,1,,,,,,,,,,,,,,,,,,,,,,,,,,,,,,,,,,,,,,,
,,,,,,,,2023-08-16_08h45.22.993,HF_wild_card,2022.2.4,Win32,120.860527,60967660853e8fcaf410748b,64d2fd46c836a06233681665,64dc7e19eb1304cbf1f75ced,,,,,,,sngl,resources/DG.BMP,resources/Empty.png,WildCard_NonEx,-0.26875,0.021527778,1,0,0,0.4401,optionLeft,55,1545,1,29,0,29,0,1,,,,,,,,,,,,,,,,,,,,,,,,,,,,,,,,,,,,,,,
,,,,,,,,2023-08-16_08h45.22.993,HF_wild_card,2022.2.4,Win32,120.860527,60967660853e8fcaf410748b,64d2fd46c836a06233681665,64dc7e19eb1304cbf1f75ced,,,,,,,sngl,resources/Empty.png,resources/DBN.BMP,Door2,0.245138889,-0.00625,1,0,0,0.5979,optionRight,20,1565,1,30,0,30,0,1,,,,,,,,,,,,,,,,,,,,,,,,,,,,,,,,,,,,,,,
,,,,,,,,2023-08-16_08h45.22.993,HF_wild_card,2022.2.4,Win32,120.860527,60967660853e8fcaf410748b,64d2fd46c836a06233681665,64dc7e19eb1304cbf1f75ced,,,,,,,ctch,resources/DP.BMP,resources/DBN.BMP,Door3,-0.275694444,0.021527778,1,0,0,0.5565,optionLeft,70,1635,1,31,0,31,0,1,,,,,,,,,,,,,,,,,,,,,,,,,,,,,,,,,,,,,,,
,,,,,,,,2023-08-16_08h45.22.993,HF_wild_card,2022.2.4,Win32,120.860527,60967660853e8fcaf410748b,64d2fd46c836a06233681665,64dc7e19eb1304cbf1f75ced,,,,,,,decisionTrl,resources/DBN.BMP,resources/DY.BMP,Door2,-0.208333333,0.01875,1,0,0,0.5237,optionLeft,20,1655,1,32,0,32,0,1,,,,,,,,,,,,,,,,,,,,,,,,,,,,,,,,,,,,,,,
,,,,,,,,2023-08-16_08h45.22.993,HF_wild_card,2022.2.4,Win32,120.860527,60967660853e8fcaf410748b,64d2fd46c836a06233681665,64dc7e19eb1304cbf1f75ced,,,,,,,decisionTrl,resources/DP.BMP,resources/DG.BMP,WildCard_NonEx,0.345833333,-0.01875,1,0,0,0.5986,optionRight,45,1700,1,33,0,33,0,1,,,,,,,,,,,,,,,,,,,,,,,,,,,,,,,,,,,,,,,
,,,,,,,,2023-08-16_08h45.22.993,HF_wild_card,2022.2.4,Win32,120.860527,60967660853e8fcaf410748b,64d2fd46c836a06233681665,64dc7e19eb1304cbf1f75ced,,,,,,,decisionTrl,resources/DR.BMP,resources/DG.BMP,WildCard_NonEx,0.329166667,-0.013194444,1,0,0,0.5232,optionRight,45,1745,1,34,0,34,0,1,,,,,,,,,,,,,,,,,,,,,,,,,,,,,,,,,,,,,,,
,,,,,,,,2023-08-16_08h45.22.993,HF_wild_card,2022.2.4,Win32,120.860527,60967660853e8fcaf410748b,64d2fd46c836a06233681665,64dc7e19eb1304cbf1f75ced,,,,,,,decisionTrl,resources/DR.BMP,resources/DP.BMP,Door3,0.302777778,-0.014583333,1,0,0,0.3985,optionRight,70,1815,1,35,0,35,0,1,,,,,,,,,,,,,,,,,,,,,,,,,,,,,,,,,,,,,,,
,,,,,,,,2023-08-16_08h45.22.993,HF_wild_card,2022.2.4,Win32,120.860527,60967660853e8fcaf410748b,64d2fd46c836a06233681665,64dc7e19eb1304cbf1f75ced,,,,,,,decisionTrl,resources/DBN.BMP,resources/DY.BMP,Door2,-0.275,0.035416667,1,0,0,0.6644,optionLeft,40,1855,1,36,0,36,0,1,,,,,,,,,,,,,,,,,,,,,,,,,,,,,,,,,,,,,,,
,,,,,,,,2023-08-16_08h45.22.993,HF_wild_card,2022.2.4,Win32,120.860527,60967660853e8fcaf410748b,64d2fd46c836a06233681665,64dc7e19eb1304cbf1f75ced,,,,,,,decisionTrl,resources/DR.BMP,resources/DP.BMP,Door3,0.338194444,-0.006944444,1,0,0,0.3819,optionRight,70,1925,1,37,0,37,0,1,,,,,,,,,,,,,,,,,,,,,,,,,,,,,,,,,,,,,,,
,,,,,,,,2023-08-16_08h45.22.993,HF_wild_card,2022.2.4,Win32,120.860527,60967660853e8fcaf410748b,64d2fd46c836a06233681665,64dc7e19eb1304cbf1f75ced,,,,,,,sngl,resources/Empty.png,resources/DG.BMP,WildCard_NonEx,0.257638889,-0.004861111,1,0,0,0.6982,optionRight,45,1970,1,38,0,38,0,1,,,,,,,,,,,,,,,,,,,,,,,,,,,,,,,,,,,,,,,
,,,,,,,,2023-08-16_08h45.22.993,HF_wild_card,2022.2.4,Win32,120.860527,60967660853e8fcaf410748b,64d2fd46c836a06233681665,64dc7e19eb1304cbf1f75ced,,,,,,,decisionTrl,resources/DR.BMP,resources/DP.BMP,Door3,0.274305556,-0.015277778,1,0,0,0.4405,optionRight,70,2040,1,39,0,39,0,1,,,,,,,,,,,,,,,,,,,,,,,,,,,,,,,,,,,,,,,
,,,,,,,,2023-08-16_08h45.22.993,HF_wild_card,2022.2.4,Win32,120.860527,60967660853e8fcaf410748b,64d2fd46c836a06233681665,64dc7e19eb1304cbf1f75ced,,,,,,,sngl,resources/DBN.BMP,resources/Empty.png,Door2,-0.221527778,0.025,1,0,0,0.4906,optionLeft,40,2080,1,40,0,40,0,1,,,,,,,,,,,,,,,,,,,,,,,,,,,,,,,,,,,,,,,
,,,,,,,,2023-08-16_08h45.22.993,HF_wild_card,2022.2.4,Win32,120.860527,60967660853e8fcaf410748b,64d2fd46c836a06233681665,64dc7e19eb1304cbf1f75ced,,,,,,,sngl,resources/Empty.png,resources/DR.BMP,Door4,0.306944444,-0.013888889,1,0,0,0.4071,optionRight,60,2140,1,41,0,41,0,1,,,,,,,,,,,,,,,,,,,,,,,,,,,,,,,,,,,,,,,
,,,,,,,,2023-08-16_08h45.22.993,HF_wild_card,2022.2.4,Win32,120.860527,60967660853e8fcaf410748b,64d2fd46c836a06233681665,64dc7e19eb1304cbf1f75ced,,,,,,,ctch,resources/DR.BMP,resources/DY.BMP,Door1,0.364583333,-0.009722222,1,0,0,4.1152,optionRight,30,2170,1,42,0,42,0,1,,,,,,,,,,,,,,,,,,,,,,,,,,,,,,,,,,,,,,,
,,,,,,,,2023-08-16_08h45.22.993,HF_wild_card,2022.2.4,Win32,120.860527,60967660853e8fcaf410748b,64d2fd46c836a06233681665,64dc7e19eb1304cbf1f75ced,,,,,,,sngl,resources/Empty.png,resources/DG.BMP,WildCard_NonEx,0.286805556,-0.013194444,1,0,0,0.4244,optionRight,55,2225,1,43,0,43,0,1,,,,,,,,,,,,,,,,,,,,,,,,,,,,,,,,,,,,,,,
,,,,,,,,2023-08-16_08h45.22.993,HF_wild_card,2022.2.4,Win32,120.860527,60967660853e8fcaf410748b,64d2fd46c836a06233681665,64dc7e19eb1304cbf1f75ced,,,,,,,,,,,,,,,,,,,,,,,,,,0,0,0,0,1,,,,,,,,,,,,,,,,,,,,,,,,,,,,,,,,,,
,,,,,,,,2023-08-16_08h45.22.993,HF_wild_card,2022.2.4,Win32,120.860527,60967660853e8fcaf410748b,64d2fd46c836a06233681665,64dc7e19eb1304cbf1f75ced,,,,,,,decisionTrl,resources/DBN.BMP,resources/DY.BMP,Door1,0.511805556,-0.057638889,1,0,0,2.1147,optionRight,30,2255,2,0,0,0,0,1,,,,,,,,,,,,,,,,,,,,,,,,,,,,,,,,,,,,,,,
,,,,,,,,2023-08-16_08h45.22.993,HF_wild_card,2022.2.4,Win32,120.860527,60967660853e8fcaf410748b,64d2fd46c836a06233681665,64dc7e19eb1304cbf1f75ced,,,,,,,ctch,resources/DP.BMP,resources/DBN.BMP,Door3,-0.247222222,0.011111111,1,0,0,0.6401,optionLeft,70,2325,2,1,0,1,0,1,,,,,,,,,,,,,,,,,,,,,,,,,,,,,,,,,,,,,,,
,,,,,,,,2023-08-16_08h45.22.993,HF_wild_card,2022.2.4,Win32,120.860527,60967660853e8fcaf410748b,64d2fd46c836a06233681665,64dc7e19eb1304cbf1f75ced,,,,,,,decisionTrl,resources/DG.BMP,resources/DP.BMP,Door3,0.364583333,-0.009722222,1,0,0,0.3986,optionRight,70,2395,2,2,0,2,0,1,,,,,,,,,,,,,,,,,,,,,,,,,,,,,,,,,,,,,,,
,,,,,,,,2023-08-16_08h45.22.993,HF_wild_card,2022.2.4,Win32,120.860527,60967660853e8fcaf410748b,64d2fd46c836a06233681665,64dc7e19eb1304cbf1f75ced,,,,,,,decisionTrl,resources/DP.BMP,resources/DR.BMP,Door3,-0.263888889,0.005555556,1,0,0,0.3988,optionLeft,70,2465,2,3,0,3,0,1,,,,,,,,,,,,,,,,,,,,,,,,,,,,,,,,,,,,,,,
,,,,,,,,2023-08-16_08h45.22.993,HF_wild_card,2022.2.4,Win32,120.860527,60967660853e8fcaf410748b,64d2fd46c836a06233681665,64dc7e19eb1304cbf1f75ced,,,,,,,decisionTrl,resources/DG.BMP,resources/DR.BMP,WildCard_NonEx,-0.200694444,0.004166667,1,0,0,0.7489,optionLeft,55,2520,2,4,0,4,0,1,,,,,,,,,,,,,,,,,,,,,,,,,,,,,,,,,,,,,,,
,,,,,,,,2023-08-16_08h45.22.993,HF_wild_card,2022.2.4,Win32,120.860527,60967660853e8fcaf410748b,64d2fd46c836a06233681665,64dc7e19eb1304cbf1f75ced,,,,,,,ctch,resources/DY.BMP,resources/DR.BMP,Door1,-0.196527778,-0.002777778,1,0,0,0.6411,optionLeft,30,2550,2,5,0,5,0,1,,,,,,,,,,,,,,,,,,,,,,,,,,,,,,,,,,,,,,,
,,,,,,,,2023-08-16_08h45.22.993,HF_wild_card,2022.2.4,Win32,120.860527,60967660853e8fcaf410748b,64d2fd46c836a06233681665,64dc7e19eb1304cbf1f75ced,,,,,,,decisionTrl,resources/DR.BMP,resources/DG.BMP,WildCard_NonEx,0.263888889,-0.026388889,1,0,0,0.3898,optionRight,55,2605,2,6,0,6,0,1,,,,,,,,,,,,,,,,,,,,,,,,,,,,,,,,,,,,,,,
,,,,,,,,2023-08-16_08h45.22.993,HF_wild_card,2022.2.4,Win32,120.860527,60967660853e8fcaf410748b,64d2fd46c836a06233681665,64dc7e19eb1304cbf1f75ced,,,,,,,decisionTrl,resources/DBN.BMP,resources/DG.BMP,WildCard_NonEx,0.261111111,-0.025694444,1,0,0,0.4988,optionRight,55,2660,2,7,0,7,0,1,,,,,,,,,,,,,,,,,,,,,,,,,,,,,,,,,,,,,,,
,,,,,,,,2023-08-16_08h45.22.993,HF_wild_card,2022.2.4,Win32,120.860527,60967660853e8fcaf410748b,64d2fd46c836a06233681665,64dc7e19eb1304cbf1f75ced,,,,,,,sngl,resources/Empty.png,resources/DBN.BMP,Door2,0.305555556,-0.020138889,1,0,0,0.8902,optionRight,40,2700,2,8,0,8,0,1,,,,,,,,,,,,,,,,,,,,,,,,,,,,,,,,,,,,,,,
,,,,,,,,2023-08-16_08h45.22.993,HF_wild_card,2022.2.4,Win32,120.860527,60967660853e8fcaf410748b,64d2fd46c836a06233681665,64dc7e19eb1304cbf1f75ced,,,,,,,decisionTrl,resources/DG.BMP,resources/DBN.BMP,WildCard_NonEx,-0.182638889,-0.001388889,1,0,0,0.4902,optionLeft,45,2745,2,9,0,9,0,1,,,,,,,,,,,,,,,,,,,,,,,,,,,,,,,,,,,,,,,
,,,,,,,,2023-08-16_08h45.22.993,HF_wild_card,2022.2.4,Win32,120.860527,60967660853e8fcaf410748b,64d2fd46c836a06233681665,64dc7e19eb1304cbf1f75ced,,,,,,,sngl,resources/DG.BMP,resources/Empty.png,WildCard_NonEx,-0.196527778,0.005555556,1,0,0,0.415,optionLeft,55,2800,2,10,0,10,0,1,,,,,,,,,,,,,,,,,,,,,,,,,,,,,,,,,,,,,,,
,,,,,,,,2023-08-16_08h45.22.993,HF_wild_card,2022.2.4,Win32,120.860527,60967660853e8fcaf410748b,64d2fd46c836a06233681665,64dc7e19eb1304cbf1f75ced,,,,,,,decisionTrl,resources/DBN.BMP,resources/DY.BMP,Door1,0.313888889,-0.025694444,1,0,0,0.6873,optionRight,30,2830,2,11,0,11,0,1,,,,,,,,,,,,,,,,,,,,,,,,,,,,,,,,,,,,,,,
,,,,,,,,2023-08-16_08h45.22.993,HF_wild_card,2022.2.4,Win32,120.860527,60967660853e8fcaf410748b,64d2fd46c836a06233681665,64dc7e19eb1304cbf1f75ced,,,,,,,decisionTrl,resources/DP.BMP,resources/DR.BMP,Door3,-0.2125,0.00625,1,0,0,0.7727,optionLeft,70,2900,2,12,0,12,0,1,,,,,,,,,,,,,,,,,,,,,,,,,,,,,,,,,,,,,,,
,,,,,,,,2023-08-16_08h45.22.993,HF_wild_card,2022.2.4,Win32,120.860527,60967660853e8fcaf410748b,64d2fd46c836a06233681665,64dc7e19eb1304cbf1f75ced,,,,,,,sngl,resources/DP.BMP,resources/Empty.png,Door3,-0.209027778,0,1,0,0,0.4241,optionLeft,70,2970,2,13,0,13,0,1,,,,,,,,,,,,,,,,,,,,,,,,,,,,,,,,,,,,,,,
,,,,,,,,2023-08-16_08h45.22.993,HF_wild_card,2022.2.4,Win32,120.860527,60967660853e8fcaf410748b,64d2fd46c836a06233681665,64dc7e19eb1304cbf1f75ced,,,,,,,decisionTrl,resources/DR.BMP,resources/DP.BMP,Door3,0.308333333,-0.026388889,1,0,0,0.4989,optionRight,70,3040,2,14,0,14,0,1,,,,,,,,,,,,,,,,,,,,,,,,,,,,,,,,,,,,,,,
,,,,,,,,2023-08-16_08h45.22.993,HF_wild_card,2022.2.4,Win32,120.860527,60967660853e8fcaf410748b,64d2fd46c836a06233681665,64dc7e19eb1304cbf1f75ced,,,,,,,ctch,resources/DP.BMP,resources/DBN.BMP,Door3,-0.238194444,0.001388889,1,0,0,0.4485,optionLeft,70,3110,2,15,0,15,0,1,,,,,,,,,,,,,,,,,,,,,,,,,,,,,,,,,,,,,,,
,,,,,,,,2023-08-16_08h45.22.993,HF_wild_card,2022.2.4,Win32,120.860527,60967660853e8fcaf410748b,64d2fd46c836a06233681665,64dc7e19eb1304cbf1f75ced,,,,,,,decisionTrl,resources/DR.BMP,resources/DP.BMP,Door3,0.358333333,-0.026388889,1,0,0,0.374,optionRight,70,3180,2,16,0,16,0,1,,,,,,,,,,,,,,,,,,,,,,,,,,,,,,,,,,,,,,,
,,,,,,,,2023-08-16_08h45.22.993,HF_wild_card,2022.2.4,Win32,120.860527,60967660853e8fcaf410748b,64d2fd46c836a06233681665,64dc7e19eb1304cbf1f75ced,,,,,,,decisionTrl,resources/DBN.BMP,resources/DY.BMP,Door1,0.313888889,-0.020833333,1,0,0,1.4485,optionRight,30,3210,2,17,0,17,0,1,,,,,,,,,,,,,,,,,,,,,,,,,,,,,,,,,,,,,,,
,,,,,,,,2023-08-16_08h45.22.993,HF_wild_card,2022.2.4,Win32,120.860527,60967660853e8fcaf410748b,64d2fd46c836a06233681665,64dc7e19eb1304cbf1f75ced,,,,,,,decisionTrl,resources/DP.BMP,resources/DR.BMP,Door3,-0.228472222,0.006944444,1,0,0,0.8491,optionLeft,70,3280,2,18,0,18,0,1,,,,,,,,,,,,,,,,,,,,,,,,,,,,,,,,,,,,,,,
,,,,,,,,2023-08-16_08h45.22.993,HF_wild_card,2022.2.4,Win32,120.860527,60967660853e8fcaf410748b,64d2fd46c836a06233681665,64dc7e19eb1304cbf1f75ced,,,,,,,decisionTrl,resources/DY.BMP,resources/DBN.BMP,Door2,0.210416667,0.002777778,1,0,0,1.4069,optionRight,40,3320,2,19,0,19,0,1,,,,,,,,,,,,,,,,,,,,,,,,,,,,,,,,,,,,,,,
,,,,,,,,2023-08-16_08h45.22.993,HF_wild_card,2022.2.4,Win32,120.860527,60967660853e8fcaf410748b,64d2fd46c836a06233681665,64dc7e19eb1304cbf1f75ced,,,,,,,ctch,resources/DBN.BMP,resources/DP.BMP,Door2,-0.255555556,0.018055556,1,0,0,0.6818,optionLeft,20,3340,2,20,0,20,0,1,,,,,,,,,,,,,,,,,,,,,,,,,,,,,,,,,,,,,,,
,,,,,,,,2023-08-16_08h45.22.993,HF_wild_card,2022.2.4,Win32,120.860527,60967660853e8fcaf410748b,64d2fd46c836a06233681665,64dc7e19eb1304cbf1f75ced,,,,,,,decisionTrl,resources/DG.BMP,resources/DY.BMP,WildCard_NonEx,-0.179166667,-0.030555556,1,0,0,3.6073,optionLeft,45,3385,2,21,0,21,0,1,,,,,,,,,,,,,,,,,,,,,,,,,,,,,,,,,,,,,,,
,,,,,,,,2023-08-16_08h45.22.993,HF_wild_card,2022.2.4,Win32,120.860527,60967660853e8fcaf410748b,64d2fd46c836a06233681665,64dc7e19eb1304cbf1f75ced,,,,,,,sngl,resources/DY.BMP,resources/Empty.png,Door1,-0.238194444,-0.004861111,1,0,0,0.4075,optionLeft,30,3415,2,22,0,22,0,1,,,,,,,,,,,,,,,,,,,,,,,,,,,,,,,,,,,,,,,
,,,,,,,,2023-08-16_08h45.22.993,HF_wild_card,2022.2.4,Win32,120.860527,60967660853e8fcaf410748b,64d2fd46c836a06233681665,64dc7e19eb1304cbf1f75ced,,,,,,,sngl,resources/Empty.png,resources/DP.BMP,Door3,0.339583333,-0.027777778,1,0,0,0.4814,optionRight,70,3485,2,23,0,23,0,1,,,,,,,,,,,,,,,,,,,,,,,,,,,,,,,,,,,,,,,
,,,,,,,,2023-08-16_08h45.22.993,HF_wild_card,2022.2.4,Win32,120.860527,60967660853e8fcaf410748b,64d2fd46c836a06233681665,64dc7e19eb1304cbf1f75ced,,,,,,,decisionTrl,resources/DY.BMP,resources/DBN.BMP,Door1,-0.282638889,0.001388889,1,0,0,0.5794,optionLeft,30,3515,2,24,0,24,0,1,,,,,,,,,,,,,,,,,,,,,,,,,,,,,,,,,,,,,,,
,,,,,,,,2023-08-16_08h45.22.993,HF_wild_card,2022.2.4,Win32,120.860527,60967660853e8fcaf410748b,64d2fd46c836a06233681665,64dc7e19eb1304cbf1f75ced,,,,,,,decisionTrl,resources/DP.BMP,resources/DG.BMP,Door3,-0.297222222,0.00625,1,0,0,0.9076,optionLeft,70,3585,2,25,0,25,0,1,,,,,,,,,,,,,,,,,,,,,,,,,,,,,,,,,,,,,,,
,,,,,,,,2023-08-16_08h45.22.993,HF_wild_card,2022.2.4,Win32,120.860527,60967660853e8fcaf410748b,64d2fd46c836a06233681665,64dc7e19eb1304cbf1f75ced,,,,,,,sngl,resources/Empty.png,resources/DY.BMP,Door1,0.394444444,-0.023611111,1,0,0,0.3988,optionRight,30,3615,2,26,0,26,0,1,,,,,,,,,,,,,,,,,,,,,,,,,,,,,,,,,,,,,,,
,,,,,,,,2023-08-16_08h45.22.993,HF_wild_card,2022.2.4,Win32,120.860527,60967660853e8fcaf410748b,64d2fd46c836a06233681665,64dc7e19eb1304cbf1f75ced,,,,,,,sngl,resources/Empty.png,resources/DR.BMP,Door4,0.302083333,-0.016666667,1,0,0,0.4729,optionRight,80,3695,2,27,0,27,0,1,,,,,,,,,,,,,,,,,,,,,,,,,,,,,,,,,,,,,,,
,,,,,,,,2023-08-16_08h45.22.993,HF_wild_card,2022.2.4,Win32,120.860527,60967660853e8fcaf410748b,64d2fd46c836a06233681665,64dc7e19eb1304cbf1f75ced,,,,,,,decisionTrl,resources/DY.BMP,resources/DBN.BMP,Door2,0.43125,0.001388889,1,0,0,1.7242,optionRight,40,3735,2,28,0,28,0,1,,,,,,,,,,,,,,,,,,,,,,,,,,,,,,,,,,,,,,,
,,,,,,,,2023-08-16_08h45.22.993,HF_wild_card,2022.2.4,Win32,120.860527,60967660853e8fcaf410748b,64d2fd46c836a06233681665,64dc7e19eb1304cbf1f75ced,,,,,,,ctch,resources/DBN.BMP,resources/DP.BMP,Door3,0.420833333,-0.028472222,1,0,0,0.5747,optionRight,70,3805,2,29,0,29,0,1,,,,,,,,,,,,,,,,,,,,,,,,,,,,,,,,,,,,,,,
,,,,,,,,2023-08-16_08h45.22.993,HF_wild_card,2022.2.4,Win32,120.860527,60967660853e8fcaf410748b,64d2fd46c836a06233681665,64dc7e19eb1304cbf1f75ced,,,,,,,sngl,resources/Empty.png,resources/DG.BMP,WildCard_NonEx,0.29375,-0.024305556,1,0,0,0.6988,optionRight,45,3850,2,30,0,30,0,1,,,,,,,,,,,,,,,,,,,,,,,,,,,,,,,,,,,,,,,
,,,,,,,,2023-08-16_08h45.22.993,HF_wild_card,2022.2.4,Win32,120.860527,60967660853e8fcaf410748b,64d2fd46c836a06233681665,64dc7e19eb1304cbf1f75ced,,,,,,,sngl,resources/DBN.BMP,resources/Empty.png,Door2,-0.289583333,0.0125,1,0,0,0.4733,optionLeft,20,3870,2,31,0,31,0,1,,,,,,,,,,,,,,,,,,,,,,,,,,,,,,,,,,,,,,,
,,,,,,,,2023-08-16_08h45.22.993,HF_wild_card,2022.2.4,Win32,120.860527,60967660853e8fcaf410748b,64d2fd46c836a06233681665,64dc7e19eb1304cbf1f75ced,,,,,,,ctch,resources/DR.BMP,resources/DY.BMP,Door4,-0.3875,0.023611111,1,0,0,1.924,optionLeft,80,3950,2,32,0,32,0,1,,,,,,,,,,,,,,,,,,,,,,,,,,,,,,,,,,,,,,,
,,,,,,,,2023-08-16_08h45.22.993,HF_wild_card,2022.2.4,Win32,120.860527,60967660853e8fcaf410748b,64d2fd46c836a06233681665,64dc7e19eb1304cbf1f75ced,,,,,,,decisionTrl,resources/DP.BMP,resources/DR.BMP,Door4,0.3375,-0.006944444,1,0,0,0.4061,optionRight,60,4010,2,33,0,33,0,1,,,,,,,,,,,,,,,,,,,,,,,,,,,,,,,,,,,,,,,
,,,,,,,,2023-08-16_08h45.22.993,HF_wild_card,2022.2.4,Win32,120.860527,60967660853e8fcaf410748b,64d2fd46c836a06233681665,64dc7e19eb1304cbf1f75ced,,,,,,,sngl,resources/Empty.png,resources/DG.BMP,WildCard_NonEx,0.296527778,-0.006944444,1,0,0,0.5321,optionRight,55,4065,2,34,0,34,0,1,,,,,,,,,,,,,,,,,,,,,,,,,,,,,,,,,,,,,,,
,,,,,,,,2023-08-16_08h45.22.993,HF_wild_card,2022.2.4,Win32,120.860527,60967660853e8fcaf410748b,64d2fd46c836a06233681665,64dc7e19eb1304cbf1f75ced,,,,,,,decisionTrl,resources/DR.BMP,resources/DP.BMP,Door3,0.322916667,-0.015972222,1,0,0,0.5156,optionRight,70,4135,2,35,0,35,0,1,,,,,,,,,,,,,,,,,,,,,,,,,,,,,,,,,,,,,,,
,,,,,,,,2023-08-16_08h45.22.993,HF_wild_card,2022.2.4,Win32,120.860527,60967660853e8fcaf410748b,64d2fd46c836a06233681665,64dc7e19eb1304cbf1f75ced,,,,,,,ctch,resources/DR.BMP,resources/DY.BMP,Door4,-0.259722222,0.014583333,1,0,0,0.7648,optionLeft,80,4215,2,36,0,36,0,1,,,,,,,,,,,,,,,,,,,,,,,,,,,,,,,,,,,,,,,
,,,,,,,,2023-08-16_08h45.22.993,HF_wild_card,2022.2.4,Win32,120.860527,60967660853e8fcaf410748b,64d2fd46c836a06233681665,64dc7e19eb1304cbf1f75ced,,,,,,,sngl,resources/DR.BMP,resources/Empty.png,Door4,-0.270833333,0.000694444,1,0,0,0.4407,optionLeft,60,4275,2,37,0,37,0,1,,,,,,,,,,,,,,,,,,,,,,,,,,,,,,,,,,,,,,,
,,,,,,,,2023-08-16_08h45.22.993,HF_wild_card,2022.2.4,Win32,120.860527,60967660853e8fcaf410748b,64d2fd46c836a06233681665,64dc7e19eb1304cbf1f75ced,,,,,,,decisionTrl,resources/DY.BMP,resources/DG.BMP,WildCard_NonEx,0.277777778,-0.015277778,1,0,0,0.6327,optionRight,55,4330,2,38,0,38,0,1,,,,,,,,,,,,,,,,,,,,,,,,,,,,,,,,,,,,,,,
,,,,,,,,2023-08-16_08h45.22.993,HF_wild_card,2022.2.4,Win32,120.860527,60967660853e8fcaf410748b,64d2fd46c836a06233681665,64dc7e19eb1304cbf1f75ced,,,,,,,sngl,resources/DG.BMP,resources/Empty.png,WildCard_NonEx,-0.25,0.008333333,1,0,0,0.4236,optionLeft,45,4375,2,39,0,39,0,1,,,,,,,,,,,,,,,,,,,,,,,,,,,,,,,,,,,,,,,
,,,,,,,,2023-08-16_08h45.22.993,HF_wild_card,2022.2.4,Win32,120.860527,60967660853e8fcaf410748b,64d2fd46c836a06233681665,64dc7e19eb1304cbf1f75ced,,,,,,,ctch,resources/DY.BMP,resources/DR.BMP,Door4,0.277083333,-0.020138889,1,0,0,0.7241,optionRight,60,4435,2,40,0,40,0,1,,,,,,,,,,,,,,,,,,,,,,,,,,,,,,,,,,,,,,,
,,,,,,,,2023-08-16_08h45.22.993,HF_wild_card,2022.2.4,Win32,120.860527,60967660853e8fcaf410748b,64d2fd46c836a06233681665,64dc7e19eb1304cbf1f75ced,,,,,,,decisionTrl,resources/DY.BMP,resources/DBN.BMP,Door2,0.309722222,0.023611111,1,0,0,1.674,optionRight,40,4475,2,41,0,41,0,1,,,,,,,,,,,,,,,,,,,,,,,,,,,,,,,,,,,,,,,
,,,,,,,,2023-08-16_08h45.22.993,HF_wild_card,2022.2.4,Win32,120.860527,60967660853e8fcaf410748b,64d2fd46c836a06233681665,64dc7e19eb1304cbf1f75ced,,,,,,,decisionTrl,resources/DR.BMP,resources/DP.BMP,Door3,0.304861111,-0.002777778,1,0,0,0.4733,optionRight,70,4545,2,42,0,42,0,1,,,,,,,,,,,,,,,,,,,,,,,,,,,,,,,,,,,,,,,
,,,,,,,,2023-08-16_08h45.22.993,HF_wild_card,2022.2.4,Win32,120.860527,60967660853e8fcaf410748b,64d2fd46c836a06233681665,64dc7e19eb1304cbf1f75ced,,,,,,,decisionTrl,resources/DBN.BMP,resources/DY.BMP,Door2,-0.221527778,0.034027778,1,0,0,1.2486,optionLeft,40,4585,2,43,0,43,0,1,,,,,,,,,,,,,,,,,,,,,,,,,,,,,,,,,,,,,,,
,,,,,,,,2023-08-16_08h45.22.993,HF_wild_card,2022.2.4,Win32,120.860527,60967660853e8fcaf410748b,64d2fd46c836a06233681665,64dc7e19eb1304cbf1f75ced,,,,,,,,,,,,,,,,,,,,,,,,,,1,0,1,0,1,,,,,,,,,,,,,,,,,,,,,,,,,,,,,,,,,,
,,,,,,,,2023-08-16_08h45.22.993,HF_wild_card,2022.2.4,Win32,120.860527,60967660853e8fcaf410748b,64d2fd46c836a06233681665,64dc7e19eb1304cbf1f75ced,,,,,,,decisionTrl,resources/DR.BMP,resources/DP.BMP,Door4,-0.350694444,-0.074305556,1,0,0,2.611,optionLeft,60,4645,3,0,0,0,0,1,,,,,,,,,,,,,,,,,,,,,,,,,,,,,,,,,,,,,,,
,,,,,,,,2023-08-16_08h45.22.993,HF_wild_card,2022.2.4,Win32,120.860527,60967660853e8fcaf410748b,64d2fd46c836a06233681665,64dc7e19eb1304cbf1f75ced,,,,,,,sngl,resources/Empty.png,resources/DBN.BMP,Door2,0.284027778,-0.038194444,1,0,0,0.465,optionRight,20,4665,3,1,0,1,0,1,,,,,,,,,,,,,,,,,,,,,,,,,,,,,,,,,,,,,,,
,,,,,,,,2023-08-16_08h45.22.993,HF_wild_card,2022.2.4,Win32,120.860527,60967660853e8fcaf410748b,64d2fd46c836a06233681665,64dc7e19eb1304cbf1f75ced,,,,,,,ctch,resources/DY.BMP,resources/DR.BMP,Door4,0.326388889,-0.040277778,1,0,0,0.9817,optionRight,80,4745,3,2,0,2,0,1,,,,,,,,,,,,,,,,,,,,,,,,,,,,,,,,,,,,,,,
,,,,,,,,2023-08-16_08h45.22.993,HF_wild_card,2022.2.4,Win32,120.860527,60967660853e8fcaf410748b,64d2fd46c836a06233681665,64dc7e19eb1304cbf1f75ced,,,,,,,sngl,resources/DP.BMP,resources/Empty.png,Door3,-0.26875,-0.015277778,1,0,0,0.4312,optionLeft,70,4815,3,3,0,3,0,1,,,,,,,,,,,,,,,,,,,,,,,,,,,,,,,,,,,,,,,
,,,,,,,,2023-08-16_08h45.22.993,HF_wild_card,2022.2.4,Win32,120.860527,60967660853e8fcaf410748b,64d2fd46c836a06233681665,64dc7e19eb1304cbf1f75ced,,,,,,,decisionTrl,resources/DP.BMP,resources/DR.BMP,Door4,0.300694444,-0.015972222,1,0,0,1.5814,optionRight,80,4895,3,4,0,4,0,1,,,,,,,,,,,,,,,,,,,,,,,,,,,,,,,,,,,,,,,
,,,,,,,,2023-08-16_08h45.22.993,HF_wild_card,2022.2.4,Win32,120.860527,60967660853e8fcaf410748b,64d2fd46c836a06233681665,64dc7e19eb1304cbf1f75ced,,,,,,,sngl,resources/Empty.png,resources/DP.BMP,Door3,0.36875,-0.0125,1,0,0,0.4318,optionRight,70,4965,3,5,0,5,0,1,,,,,,,,,,,,,,,,,,,,,,,,,,,,,,,,,,,,,,,
,,,,,,,,2023-08-16_08h45.22.993,HF_wild_card,2022.2.4,Win32,120.860527,60967660853e8fcaf410748b,64d2fd46c836a06233681665,64dc7e19eb1304cbf1f75ced,,,,,,,decisionTrl,resources/DR.BMP,resources/DP.BMP,Door3,0.291666667,-0.025,1,0,0,0.4824,optionRight,70,5035,3,6,0,6,0,1,,,,,,,,,,,,,,,,,,,,,,,,,,,,,,,,,,,,,,,
,,,,,,,,2023-08-16_08h45.22.993,HF_wild_card,2022.2.4,Win32,120.860527,60967660853e8fcaf410748b,64d2fd46c836a06233681665,64dc7e19eb1304cbf1f75ced,,,,,,,decisionTrl,resources/DY.BMP,resources/DBN.BMP,Door1,-0.254166667,-0.008333333,1,0,0,0.6322,optionLeft,30,5065,3,7,0,7,0,1,,,,,,,,,,,,,,,,,,,,,,,,,,,,,,,,,,,,,,,
,,,,,,,,2023-08-16_08h45.22.993,HF_wild_card,2022.2.4,Win32,120.860527,60967660853e8fcaf410748b,64d2fd46c836a06233681665,64dc7e19eb1304cbf1f75ced,,,,,,,decisionTrl,resources/DG.BMP,resources/DP.BMP,Door3,0.366666667,0,1,0,0,0.4768,optionRight,70,5135,3,8,0,8,0,1,,,,,,,,,,,,,,,,,,,,,,,,,,,,,,,,,,,,,,,
,,,,,,,,2023-08-16_08h45.22.993,HF_wild_card,2022.2.4,Win32,120.860527,60967660853e8fcaf410748b,64d2fd46c836a06233681665,64dc7e19eb1304cbf1f75ced,,,,,,,decisionTrl,resources/DBN.BMP,resources/DY.BMP,Door1,0.504861111,0.010416667,1,0,0,1.1116,optionRight,30,5165,3,9,0,9,0,1,,,,,,,,,,,,,,,,,,,,,,,,,,,,,,,,,,,,,,,
,,,,,,,,2023-08-16_08h45.22.993,HF_wild_card,2022.2.4,Win32,120.860527,60967660853e8fcaf410748b,64d2fd46c836a06233681665,64dc7e19eb1304cbf1f75ced,,,,,,,sngl,resources/Empty.png,resources/DR.BMP,Door4,0.338888889,-0.027777778,1,0,0,0.3828,optionRight,60,5225,3,10,0,10,0,1,,,,,,,,,,,,,,,,,,,,,,,,,,,,,,,,,,,,,,,
,,,,,,,,2023-08-16_08h45.22.993,HF_wild_card,2022.2.4,Win32,120.860527,60967660853e8fcaf410748b,64d2fd46c836a06233681665,64dc7e19eb1304cbf1f75ced,,,,,,,decisionTrl,resources/DP.BMP,resources/DR.BMP,Door3,-0.265277778,-0.000694444,1,0,0,0.3987,optionLeft,70,5295,3,11,0,11,0,1,,,,,,,,,,,,,,,,,,,,,,,,,,,,,,,,,,,,,,,
,,,,,,,,2023-08-16_08h45.22.993,HF_wild_card,2022.2.4,Win32,120.860527,60967660853e8fcaf410748b,64d2fd46c836a06233681665,64dc7e19eb1304cbf1f75ced,,,,,,,sngl,resources/DY.BMP,resources/Empty.png,Door1,-0.295833333,-0.002777778,1,0,0,0.3984,optionLeft,30,5325,3,12,0,12,0,1,,,,,,,,,,,,,,,,,,,,,,,,,,,,,,,,,,,,,,,
,,,,,,,,2023-08-16_08h45.22.993,HF_wild_card,2022.2.4,Win32,120.860527,60967660853e8fcaf410748b,64d2fd46c836a06233681665,64dc7e19eb1304cbf1f75ced,,,,,,,decisionTrl,resources/DBN.BMP,resources/DY.BMP,Door2,-0.236111111,0.006944444,1,0,0,1.1483,optionLeft,20,5345,3,13,0,13,0,1,,,,,,,,,,,,,,,,,,,,,,,,,,,,,,,,,,,,,,,
,,,,,,,,2023-08-16_08h45.22.993,HF_wild_card,2022.2.4,Win32,120.860527,60967660853e8fcaf410748b,64d2fd46c836a06233681665,64dc7e19eb1304cbf1f75ced,,,,,,,sngl,resources/Empty.png,resources/DG.BMP,WildCard_NonEx,0.388888889,-0.027777778,1,0,0,0.4399,optionRight,55,5400,3,14,0,14,0,1,,,,,,,,,,,,,,,,,,,,,,,,,,,,,,,,,,,,,,,
,,,,,,,,2023-08-16_08h45.22.993,HF_wild_card,2022.2.4,Win32,120.860527,60967660853e8fcaf410748b,64d2fd46c836a06233681665,64dc7e19eb1304cbf1f75ced,,,,,,,ctch,resources/DY.BMP,resources/DR.BMP,Door4,0.336111111,-0.032638889,1,0,0,0.5321,optionRight,80,5480,3,15,0,15,0,1,,,,,,,,,,,,,,,,,,,,,,,,,,,,,,,,,,,,,,,
,,,,,,,,2023-08-16_08h45.22.993,HF_wild_card,2022.2.4,Win32,120.860527,60967660853e8fcaf410748b,64d2fd46c836a06233681665,64dc7e19eb1304cbf1f75ced,,,,,,,decisionTrl,resources/DY.BMP,resources/DG.BMP,Door1,-0.241666667,-0.008333333,1,0,0,1.6901,optionLeft,30,5510,3,16,0,16,0,1,,,,,,,,,,,,,,,,,,,,,,,,,,,,,,,,,,,,,,,
,,,,,,,,2023-08-16_08h45.22.993,HF_wild_card,2022.2.4,Win32,120.860527,60967660853e8fcaf410748b,64d2fd46c836a06233681665,64dc7e19eb1304cbf1f75ced,,,,,,,decisionTrl,resources/DG.BMP,resources/DY.BMP,WildCard_NonEx,-0.172916667,-0.001388889,1,0,0,0.5071,optionLeft,45,5555,3,17,0,17,0,1,,,,,,,,,,,,,,,,,,,,,,,,,,,,,,,,,,,,,,,
,,,,,,,,2023-08-16_08h45.22.993,HF_wild_card,2022.2.4,Win32,120.860527,60967660853e8fcaf410748b,64d2fd46c836a06233681665,64dc7e19eb1304cbf1f75ced,,,,,,,decisionTrl,resources/DR.BMP,resources/DP.BMP,Door4,-0.327777778,-0.00625,1,0,0,0.9064,optionLeft,60,5615,3,18,0,18,0,1,,,,,,,,,,,,,,,,,,,,,,,,,,,,,,,,,,,,,,,
,,,,,,,,2023-08-16_08h45.22.993,HF_wild_card,2022.2.4,Win32,120.860527,60967660853e8fcaf410748b,64d2fd46c836a06233681665,64dc7e19eb1304cbf1f75ced,,,,,,,ctch,resources/DP.BMP,resources/DBN.BMP,Door3,-0.220833333,-0.005555556,1,0,0,0.4318,optionLeft,70,5685,3,19,0,19,0,1,,,,,,,,,,,,,,,,,,,,,,,,,,,,,,,,,,,,,,,
,,,,,,,,2023-08-16_08h45.22.993,HF_wild_card,2022.2.4,Win32,120.860527,60967660853e8fcaf410748b,64d2fd46c836a06233681665,64dc7e19eb1304cbf1f75ced,,,,,,,sngl,resources/DG.BMP,resources/Empty.png,WildCard_NonEx,-0.208333333,-0.00625,1,0,0,0.4573,optionLeft,45,5730,3,20,0,20,0,1,,,,,,,,,,,,,,,,,,,,,,,,,,,,,,,,,,,,,,,
,,,,,,,,2023-08-16_08h45.22.993,HF_wild_card,2022.2.4,Win32,120.860527,60967660853e8fcaf410748b,64d2fd46c836a06233681665,64dc7e19eb1304cbf1f75ced,,,,,,,decisionTrl,resources/DG.BMP,resources/DBN.BMP,WildCard_NonEx,-0.257638889,-0.013194444,1,0,0,0.5317,optionLeft,45,5775,3,21,0,21,0,1,,,,,,,,,,,,,,,,,,,,,,,,,,,,,,,,,,,,,,,
,,,,,,,,2023-08-16_08h45.22.993,HF_wild_card,2022.2.4,Win32,120.860527,60967660853e8fcaf410748b,64d2fd46c836a06233681665,64dc7e19eb1304cbf1f75ced,,,,,,,decisionTrl,resources/DY.BMP,resources/DBN.BMP,Door1,-0.229861111,-0.009722222,1,0,0,0.8148,optionLeft,30,5805,3,22,0,22,0,1,,,,,,,,,,,,,,,,,,,,,,,,,,,,,,,,,,,,,,,
,,,,,,,,2023-08-16_08h45.22.993,HF_wild_card,2022.2.4,Win32,120.860527,60967660853e8fcaf410748b,64d2fd46c836a06233681665,64dc7e19eb1304cbf1f75ced,,,,,,,decisionTrl,resources/DP.BMP,resources/DG.BMP,Door3,-0.288194444,-0.011111111,1,0,0,0.6983,optionLeft,70,5875,3,23,0,23,0,1,,,,,,,,,,,,,,,,,,,,,,,,,,,,,,,,,,,,,,,
,,,,,,,,2023-08-16_08h45.22.993,HF_wild_card,2022.2.4,Win32,120.860527,60967660853e8fcaf410748b,64d2fd46c836a06233681665,64dc7e19eb1304cbf1f75ced,,,,,,,decisionTrl,resources/DBN.BMP,resources/DY.BMP,Door1,0.404166667,-0.027083333,1,0,0,1.0318,optionRight,30,5905,3,24,0,24,0,1,,,,,,,,,,,,,,,,,,,,,,,,,,,,,,,,,,,,,,,
,,,,,,,,2023-08-16_08h45.22.993,HF_wild_card,2022.2.4,Win32,120.860527,60967660853e8fcaf410748b,64d2fd46c836a06233681665,64dc7e19eb1304cbf1f75ced,,,,,,,sngl,resources/Empty.png,resources/DG.BMP,WildCard_NonEx,0.277083333,-0.019444444,1,0,0,0.5238,optionRight,45,5950,3,25,0,25,0,1,,,,,,,,,,,,,,,,,,,,,,,,,,,,,,,,,,,,,,,
,,,,,,,,2023-08-16_08h45.22.993,HF_wild_card,2022.2.4,Win32,120.860527,60967660853e8fcaf410748b,64d2fd46c836a06233681665,64dc7e19eb1304cbf1f75ced,,,,,,,sngl,resources/DG.BMP,resources/Empty.png,WildCard_NonEx,-0.21875,0,1,0,0,0.4406,optionLeft,55,6005,3,26,0,26,0,1,,,,,,,,,,,,,,,,,,,,,,,,,,,,,,,,,,,,,,,
,,,,,,,,2023-08-16_08h45.22.993,HF_wild_card,2022.2.4,Win32,120.860527,60967660853e8fcaf410748b,64d2fd46c836a06233681665,64dc7e19eb1304cbf1f75ced,,,,,,,sngl,resources/Empty.png,resources/DY.BMP,Door1,0.322916667,-0.020833333,1,0,0,0.4157,optionRight,30,6035,3,27,0,27,0,1,,,,,,,,,,,,,,,,,,,,,,,,,,,,,,,,,,,,,,,
,,,,,,,,2023-08-16_08h45.22.993,HF_wild_card,2022.2.4,Win32,120.860527,60967660853e8fcaf410748b,64d2fd46c836a06233681665,64dc7e19eb1304cbf1f75ced,,,,,,,decisionTrl,resources/DY.BMP,resources/DBN.BMP,Door2,0.403472222,-0.016666667,1,0,0,1.0483,optionRight,40,6075,3,28,0,28,0,1,,,,,,,,,,,,,,,,,,,,,,,,,,,,,,,,,,,,,,,
,,,,,,,,2023-08-16_08h45.22.993,HF_wild_card,2022.2.4,Win32,120.860527,60967660853e8fcaf410748b,64d2fd46c836a06233681665,64dc7e19eb1304cbf1f75ced,,,,,,,decisionTrl,resources/DP.BMP,resources/DR.BMP,Door4,0.361111111,-0.022916667,1,0,0,1.0657,optionRight,60,6135,3,29,0,29,0,1,,,,,,,,,,,,,,,,,,,,,,,,,,,,,,,,,,,,,,,
,,,,,,,,2023-08-16_08h45.22.993,HF_wild_card,2022.2.4,Win32,120.860527,60967660853e8fcaf410748b,64d2fd46c836a06233681665,64dc7e19eb1304cbf1f75ced,,,,,,,ctch,resources/DR.BMP,resources/DY.BMP,Door4,-0.359027778,0.002777778,1,0,0,1.2063,optionLeft,80,6215,3,30,0,30,0,1,,,,,,,,,,,,,,,,,,,,,,,,,,,,,,,,,,,,,,,
,,,,,,,,2023-08-16_08h45.22.993,HF_wild_card,2022.2.4,Win32,120.860527,60967660853e8fcaf410748b,64d2fd46c836a06233681665,64dc7e19eb1304cbf1f75ced,,,,,,,decisionTrl,resources/DR.BMP,resources/DG.BMP,Door4,-0.302083333,0.004166667,1,0,0,0.424,optionLeft,80,6295,3,31,0,31,0,1,,,,,,,,,,,,,,,,,,,,,,,,,,,,,,,,,,,,,,,
,,,,,,,,2023-08-16_08h45.22.993,HF_wild_card,2022.2.4,Win32,120.860527,60967660853e8fcaf410748b,64d2fd46c836a06233681665,64dc7e19eb1304cbf1f75ced,,,,,,,decisionTrl,resources/DY.BMP,resources/DBN.BMP,Door1,-0.256944444,0.000694444,1,0,0,0.474,optionLeft,30,6325,3,32,0,32,0,1,,,,,,,,,,,,,,,,,,,,,,,,,,,,,,,,,,,,,,,
,,,,,,,,2023-08-16_08h45.22.993,HF_wild_card,2022.2.4,Win32,120.860527,60967660853e8fcaf410748b,64d2fd46c836a06233681665,64dc7e19eb1304cbf1f75ced,,,,,,,decisionTrl,resources/DP.BMP,resources/DR.BMP,Door4,0.346527778,-0.016666667,1,0,0,0.5073,optionRight,60,6385,3,33,0,33,0,1,,,,,,,,,,,,,,,,,,,,,,,,,,,,,,,,,,,,,,,
,,,,,,,,2023-08-16_08h45.22.993,HF_wild_card,2022.2.4,Win32,120.860527,60967660853e8fcaf410748b,64d2fd46c836a06233681665,64dc7e19eb1304cbf1f75ced,,,,,,,ctch,resources/DR.BMP,resources/DY.BMP,Door4,-0.270833333,0.002777778,1,0,0,0.4653,optionLeft,60,6445,3,34,0,34,0,1,,,,,,,,,,,,,,,,,,,,,,,,,,,,,,,,,,,,,,,
,,,,,,,,2023-08-16_08h45.22.993,HF_wild_card,2022.2.4,Win32,120.860527,60967660853e8fcaf410748b,64d2fd46c836a06233681665,64dc7e19eb1304cbf1f75ced,,,,,,,decisionTrl,resources/DR.BMP,resources/DP.BMP,Door3,0.354861111,-0.021527778,1,0,0,0.5731,optionRight,70,6515,3,35,0,35,0,1,,,,,,,,,,,,,,,,,,,,,,,,,,,,,,,,,,,,,,,
,,,,,,,,2023-08-16_08h45.22.993,HF_wild_card,2022.2.4,Win32,120.860527,60967660853e8fcaf410748b,64d2fd46c836a06233681665,64dc7e19eb1304cbf1f75ced,,,,,,,sngl,resources/DBN.BMP,resources/Empty.png,Door2,-0.190972222,0.011805556,1,0,0,0.7657,optionLeft,40,6555,3,36,0,36,0,1,,,,,,,,,,,,,,,,,,,,,,,,,,,,,,,,,,,,,,,
,,,,,,,,2023-08-16_08h45.22.993,HF_wild_card,2022.2.4,Win32,120.860527,60967660853e8fcaf410748b,64d2fd46c836a06233681665,64dc7e19eb1304cbf1f75ced,,,,,,,sngl,resources/DR.BMP,resources/Empty.png,Door4,-0.252777778,0.00625,1,0,0,0.5151,optionLeft,80,6635,3,37,0,37,0,1,,,,,,,,,,,,,,,,,,,,,,,,,,,,,,,,,,,,,,,
,,,,,,,,2023-08-16_08h45.22.993,HF_wild_card,2022.2.4,Win32,120.860527,60967660853e8fcaf410748b,64d2fd46c836a06233681665,64dc7e19eb1304cbf1f75ced,,,,,,,ctch,resources/DBN.BMP,resources/DP.BMP,Door3,0.359722222,-0.029166667,1,0,0,0.5153,optionRight,70,6705,3,38,0,38,0,1,,,,,,,,,,,,,,,,,,,,,,,,,,,,,,,,,,,,,,,
,,,,,,,,2023-08-16_08h45.22.993,HF_wild_card,2022.2.4,Win32,120.860527,60967660853e8fcaf410748b,64d2fd46c836a06233681665,64dc7e19eb1304cbf1f75ced,,,,,,,ctch,resources/DP.BMP,resources/DBN.BMP,Door3,-0.255555556,-0.000694444,1,0,0,0.4323,optionLeft,70,6775,3,39,0,39,0,1,,,,,,,,,,,,,,,,,,,,,,,,,,,,,,,,,,,,,,,
,,,,,,,,2023-08-16_08h45.22.993,HF_wild_card,2022.2.4,Win32,120.860527,60967660853e8fcaf410748b,64d2fd46c836a06233681665,64dc7e19eb1304cbf1f75ced,,,,,,,decisionTrl,resources/DG.BMP,resources/DR.BMP,Door4,0.26875,-0.016666667,1,0,0,0.5149,optionRight,80,6855,3,40,0,40,0,1,,,,,,,,,,,,,,,,,,,,,,,,,,,,,,,,,,,,,,,
,,,,,,,,2023-08-16_08h45.22.993,HF_wild_card,2022.2.4,Win32,120.860527,60967660853e8fcaf410748b,64d2fd46c836a06233681665,64dc7e19eb1304cbf1f75ced,,,,,,,ctch,resources/DBN.BMP,resources/DP.BMP,Door3,0.240972222,-0.020833333,1,0,0,0.474,optionRight,70,6925,3,41,0,41,0,1,,,,,,,,,,,,,,,,,,,,,,,,,,,,,,,,,,,,,,,
,,,,,,,,2023-08-16_08h45.22.993,HF_wild_card,2022.2.4,Win32,120.860527,60967660853e8fcaf410748b,64d2fd46c836a06233681665,64dc7e19eb1304cbf1f75ced,,,,,,,decisionTrl,resources/DBN.BMP,resources/DY.BMP,Door1,0.311111111,-0.013888889,1,0,0,0.9656,optionRight,30,6955,3,42,0,42,0,1,,,,,,,,,,,,,,,,,,,,,,,,,,,,,,,,,,,,,,,
,,,,,,,,2023-08-16_08h45.22.993,HF_wild_card,2022.2.4,Win32,120.860527,60967660853e8fcaf410748b,64d2fd46c836a06233681665,64dc7e19eb1304cbf1f75ced,,,,,,,decisionTrl,resources/DBN.BMP,resources/DG.BMP,WildCard_NonEx,0.3125,-0.022916667,1,0,0,0.4823,optionRight,45,7000,3,43,0,43,0,1,,,,,,,,,,,,,,,,,,,,,,,,,,,,,,,,,,,,,,,
,,,,,,,,2023-08-16_08h45.22.993,HF_wild_card,2022.2.4,Win32,120.860527,60967660853e8fcaf410748b,64d2fd46c836a06233681665,64dc7e19eb1304cbf1f75ced,,,,,,,,,,,,,,,,,,,,,,,,,,2,0,2,0,1,,,,,,,,,,,,,,,,,,,,,,,,,,,,,,,,,,
,,,,,,,,2023-08-16_08h45.22.993,HF_wild_card,2022.2.4,Win32,120.860527,60967660853e8fcaf410748b,64d2fd46c836a06233681665,64dc7e19eb1304cbf1f75ced,,,,,,,ctch,resources/DBN.BMP,resources/DP.BMP,Door3,0.475,-0.090972222,1,0,0,0.5267,optionRight,70,7070,4,0,0,0,0,1,,,,,,,,,,,,,,,,,,,,,,,,,,,,,,,,,,,,,,,
,,,,,,,,2023-08-16_08h45.22.993,HF_wild_card,2022.2.4,Win32,120.860527,60967660853e8fcaf410748b,64d2fd46c836a06233681665,64dc7e19eb1304cbf1f75ced,,,,,,,ctch,resources/DR.BMP,resources/DY.BMP,Door4,-0.309722222,-0.013888889,1,0,0,0.5074,optionLeft,60,7130,4,1,0,1,0,1,,,,,,,,,,,,,,,,,,,,,,,,,,,,,,,,,,,,,,,
,,,,,,,,2023-08-16_08h45.22.993,HF_wild_card,2022.2.4,Win32,120.860527,60967660853e8fcaf410748b,64d2fd46c836a06233681665,64dc7e19eb1304cbf1f75ced,,,,,,,ctch,resources/DY.BMP,resources/DR.BMP,Door4,0.322222222,-0.027083333,1,0,0,0.4313,optionRight,80,7210,4,2,0,2,0,1,,,,,,,,,,,,,,,,,,,,,,,,,,,,,,,,,,,,,,,
,,,,,,,,2023-08-16_08h45.22.993,HF_wild_card,2022.2.4,Win32,120.860527,60967660853e8fcaf410748b,64d2fd46c836a06233681665,64dc7e19eb1304cbf1f75ced,,,,,,,decisionTrl,resources/DP.BMP,resources/DR.BMP,Door3,-0.261805556,-0.001388889,1,0,0,0.4908,optionLeft,70,7280,4,3,0,3,0,1,,,,,,,,,,,,,,,,,,,,,,,,,,,,,,,,,,,,,,,
,,,,,,,,2023-08-16_08h45.22.993,HF_wild_card,2022.2.4,Win32,120.860527,60967660853e8fcaf410748b,64d2fd46c836a06233681665,64dc7e19eb1304cbf1f75ced,,,,,,,decisionTrl,resources/DR.BMP,resources/DP.BMP,Door3,0.438888889,-0.050694444,1,0,0,0.3991,optionRight,70,7350,4,4,0,4,0,1,,,,,,,,,,,,,,,,,,,,,,,,,,,,,,,,,,,,,,,
,,,,,,,,2023-08-16_08h45.22.993,HF_wild_card,2022.2.4,Win32,120.860527,60967660853e8fcaf410748b,64d2fd46c836a06233681665,64dc7e19eb1304cbf1f75ced,,,,,,,decisionTrl,resources/DP.BMP,resources/DR.BMP,Door3,-0.248611111,0.01875,1,0,0,0.4323,optionLeft,70,7420,4,5,0,5,0,1,,,,,,,,,,,,,,,,,,,,,,,,,,,,,,,,,,,,,,,
,,,,,,,,2023-08-16_08h45.22.993,HF_wild_card,2022.2.4,Win32,120.860527,60967660853e8fcaf410748b,64d2fd46c836a06233681665,64dc7e19eb1304cbf1f75ced,,,,,,,decisionTrl,resources/DR.BMP,resources/DP.BMP,Door3,0.350694444,-0.008333333,1,0,0,0.6066,optionRight,70,7490,4,6,0,6,0,1,,,,,,,,,,,,,,,,,,,,,,,,,,,,,,,,,,,,,,,
,,,,,,,,2023-08-16_08h45.22.993,HF_wild_card,2022.2.4,Win32,120.860527,60967660853e8fcaf410748b,64d2fd46c836a06233681665,64dc7e19eb1304cbf1f75ced,,,,,,,ctch,resources/DR.BMP,resources/DY.BMP,Door4,-0.177083333,0.021527778,1,0,0,0.632,optionLeft,60,7550,4,7,0,7,0,1,,,,,,,,,,,,,,,,,,,,,,,,,,,,,,,,,,,,,,,
,,,,,,,,2023-08-16_08h45.22.993,HF_wild_card,2022.2.4,Win32,120.860527,60967660853e8fcaf410748b,64d2fd46c836a06233681665,64dc7e19eb1304cbf1f75ced,,,,,,,sngl,resources/DR.BMP,resources/Empty.png,Door4,-0.211805556,0.019444444,1,0,0,0.4067,optionLeft,60,7610,4,8,0,8,0,1,,,,,,,,,,,,,,,,,,,,,,,,,,,,,,,,,,,,,,,
,,,,,,,,2023-08-16_08h45.22.993,HF_wild_card,2022.2.4,Win32,120.860527,60967660853e8fcaf410748b,64d2fd46c836a06233681665,64dc7e19eb1304cbf1f75ced,,,,,,,sngl,resources/DB.BMP,resources/Empty.png,WildCard_Ex,-0.2,0.007638889,1,0,0,0.5065,optionLeft,5,7615,4,9,0,9,0,1,,,,,,,,,,,,,,,,,,,,,,,,,,,,,,,,,,,,,,,
,,,,,,,,2023-08-16_08h45.22.993,HF_wild_card,2022.2.4,Win32,120.860527,60967660853e8fcaf410748b,64d2fd46c836a06233681665,64dc7e19eb1304cbf1f75ced,,,,,,,decisionTrl,resources/DBN.BMP,resources/DB.BMP,Door2,-0.211111111,0.018055556,1,0,0,0.6574,optionLeft,40,7655,4,10,0,10,0,1,,,,,,,,,,,,,,,,,,,,,,,,,,,,,,,,,,,,,,,
,,,,,,,,2023-08-16_08h45.22.993,HF_wild_card,2022.2.4,Win32,120.860527,60967660853e8fcaf410748b,64d2fd46c836a06233681665,64dc7e19eb1304cbf1f75ced,,,,,,,sngl,resources/Empty.png,resources/DB.BMP,WildCard_Ex,0.184722222,-0.013194444,1,0,0,0.6564,optionRight,95,7750,4,11,0,11,0,1,,,,,,,,,,,,,,,,,,,,,,,,,,,,,,,,,,,,,,,
,,,,,,,,2023-08-16_08h45.22.993,HF_wild_card,2022.2.4,Win32,120.860527,60967660853e8fcaf410748b,64d2fd46c836a06233681665,64dc7e19eb1304cbf1f75ced,,,,,,,decisionTrl,resources/DP.BMP,resources/DB.BMP,WildCard_Ex,0.313194444,-0.027083333,1,0,0,0.4903,optionRight,95,7845,4,12,0,12,0,1,,,,,,,,,,,,,,,,,,,,,,,,,,,,,,,,,,,,,,,
,,,,,,,,2023-08-16_08h45.22.993,HF_wild_card,2022.2.4,Win32,120.860527,60967660853e8fcaf410748b,64d2fd46c836a06233681665,64dc7e19eb1304cbf1f75ced,,,,,,,sngl,resources/Empty.png,resources/DY.BMP,Door1,0.195833333,-0.01875,1,0,0,0.5071,optionRight,30,7875,4,13,0,13,0,1,,,,,,,,,,,,,,,,,,,,,,,,,,,,,,,,,,,,,,,
,,,,,,,,2023-08-16_08h45.22.993,HF_wild_card,2022.2.4,Win32,120.860527,60967660853e8fcaf410748b,64d2fd46c836a06233681665,64dc7e19eb1304cbf1f75ced,,,,,,,sngl,resources/DBN.BMP,resources/Empty.png,Door2,-0.169444444,-0.004166667,1,0,0,0.4311,optionLeft,20,7895,4,14,0,14,0,1,,,,,,,,,,,,,,,,,,,,,,,,,,,,,,,,,,,,,,,
,,,,,,,,2023-08-16_08h45.22.993,HF_wild_card,2022.2.4,Win32,120.860527,60967660853e8fcaf410748b,64d2fd46c836a06233681665,64dc7e19eb1304cbf1f75ced,,,,,,,decisionTrl,resources/DR.BMP,resources/DP.BMP,Door3,0.334722222,-0.016666667,1,0,0,0.5649,optionRight,70,7965,4,15,0,15,0,1,,,,,,,,,,,,,,,,,,,,,,,,,,,,,,,,,,,,,,,
,,,,,,,,2023-08-16_08h45.22.993,HF_wild_card,2022.2.4,Win32,120.860527,60967660853e8fcaf410748b,64d2fd46c836a06233681665,64dc7e19eb1304cbf1f75ced,,,,,,,sngl,resources/Empty.png,resources/DBN.BMP,Door2,0.271527778,-0.017361111,1,0,0,0.5066,optionRight,40,8005,4,16,0,16,0,1,,,,,,,,,,,,,,,,,,,,,,,,,,,,,,,,,,,,,,,
,,,,,,,,2023-08-16_08h45.22.993,HF_wild_card,2022.2.4,Win32,120.860527,60967660853e8fcaf410748b,64d2fd46c836a06233681665,64dc7e19eb1304cbf1f75ced,,,,,,,decisionTrl,resources/DB.BMP,resources/DP.BMP,Door3,0.280555556,-0.016666667,1,0,0,0.4567,optionRight,70,8075,4,17,0,17,0,1,,,,,,,,,,,,,,,,,,,,,,,,,,,,,,,,,,,,,,,
,,,,,,,,2023-08-16_08h45.22.993,HF_wild_card,2022.2.4,Win32,120.860527,60967660853e8fcaf410748b,64d2fd46c836a06233681665,64dc7e19eb1304cbf1f75ced,,,,,,,decisionTrl,resources/DP.BMP,resources/DR.BMP,Door4,0.442361111,0.003472222,1,0,0,2.0068,optionRight,60,8135,4,18,0,18,0,1,,,,,,,,,,,,,,,,,,,,,,,,,,,,,,,,,,,,,,,
,,,,,,,,2023-08-16_08h45.22.993,HF_wild_card,2022.2.4,Win32,120.860527,60967660853e8fcaf410748b,64d2fd46c836a06233681665,64dc7e19eb1304cbf1f75ced,,,,,,,decisionTrl,resources/DY.BMP,resources/DBN.BMP,Door2,0.263888889,0.0125,1,0,0,0.9403,optionRight,20,8155,4,19,0,19,0,1,,,,,,,,,,,,,,,,,,,,,,,,,,,,,,,,,,,,,,,
,,,,,,,,2023-08-16_08h45.22.993,HF_wild_card,2022.2.4,Win32,120.860527,60967660853e8fcaf410748b,64d2fd46c836a06233681665,64dc7e19eb1304cbf1f75ced,,,,,,,decisionTrl,resources/DB.BMP,resources/DBN.BMP,WildCard_Ex,-0.154861111,-0.001388889,1,0,0,0.4494,optionLeft,95,8250,4,20,0,20,0,1,,,,,,,,,,,,,,,,,,,,,,,,,,,,,,,,,,,,,,,
,,,,,,,,2023-08-16_08h45.22.993,HF_wild_card,2022.2.4,Win32,120.860527,60967660853e8fcaf410748b,64d2fd46c836a06233681665,64dc7e19eb1304cbf1f75ced,,,,,,,ctch,resources/DP.BMP,resources/DBN.BMP,Door3,-0.145138889,0.002083333,1,0,0,0.7643,optionLeft,70,8320,4,21,0,21,0,1,,,,,,,,,,,,,,,,,,,,,,,,,,,,,,,,,,,,,,,
,,,,,,,,2023-08-16_08h45.22.993,HF_wild_card,2022.2.4,Win32,120.860527,60967660853e8fcaf410748b,64d2fd46c836a06233681665,64dc7e19eb1304cbf1f75ced,,,,,,,sngl,resources/DP.BMP,resources/Empty.png,Door3,-0.189583333,0.009722222,1,0,0,0.4151,optionLeft,70,8390,4,22,0,22,0,1,,,,,,,,,,,,,,,,,,,,,,,,,,,,,,,,,,,,,,,
,,,,,,,,2023-08-16_08h45.22.993,HF_wild_card,2022.2.4,Win32,120.860527,60967660853e8fcaf410748b,64d2fd46c836a06233681665,64dc7e19eb1304cbf1f75ced,,,,,,,decisionTrl,resources/DBN.BMP,resources/DY.BMP,Door1,0.270138889,0.004166667,1,0,0,1.14,optionRight,30,8420,4,23,0,23,0,1,,,,,,,,,,,,,,,,,,,,,,,,,,,,,,,,,,,,,,,
,,,,,,,,2023-08-16_08h45.22.993,HF_wild_card,2022.2.4,Win32,120.860527,60967660853e8fcaf410748b,64d2fd46c836a06233681665,64dc7e19eb1304cbf1f75ced,,,,,,,decisionTrl,resources/DB.BMP,resources/DR.BMP,WildCard_Ex,-0.192361111,0.009722222,1,0,0,0.4901,optionLeft,95,8515,4,24,0,24,0,1,,,,,,,,,,,,,,,,,,,,,,,,,,,,,,,,,,,,,,,
,,,,,,,,2023-08-16_08h45.22.993,HF_wild_card,2022.2.4,Win32,120.860527,60967660853e8fcaf410748b,64d2fd46c836a06233681665,64dc7e19eb1304cbf1f75ced,,,,,,,decisionTrl,resources/DY.BMP,resources/DBN.BMP,Door1,-0.15625,0.010416667,1,0,0,0.7401,optionLeft,30,8545,4,25,0,25,0,1,,,,,,,,,,,,,,,,,,,,,,,,,,,,,,,,,,,,,,,
,,,,,,,,2023-08-16_08h45.22.993,HF_wild_card,2022.2.4,Win32,120.860527,60967660853e8fcaf410748b,64d2fd46c836a06233681665,64dc7e19eb1304cbf1f75ced,,,,,,,decisionTrl,resources/DP.BMP,resources/DR.BMP,Door3,-0.173611111,0.007638889,1,0,0,0.5146,optionLeft,70,8615,4,26,0,26,0,1,,,,,,,,,,,,,,,,,,,,,,,,,,,,,,,,,,,,,,,
,,,,,,,,2023-08-16_08h45.22.993,HF_wild_card,2022.2.4,Win32,120.860527,60967660853e8fcaf410748b,64d2fd46c836a06233681665,64dc7e19eb1304cbf1f75ced,,,,,,,decisionTrl,resources/DR.BMP,resources/DB.BMP,WildCard_Ex,0.286805556,-0.016666667,1,0,0,0.557,optionRight,95,8710,4,27,0,27,0,1,,,,,,,,,,,,,,,,,,,,,,,,,,,,,,,,,,,,,,,
,,,,,,,,2023-08-16_08h45.22.993,HF_wild_card,2022.2.4,Win32,120.860527,60967660853e8fcaf410748b,64d2fd46c836a06233681665,64dc7e19eb1304cbf1f75ced,,,,,,,decisionTrl,resources/DBN.BMP,resources/DY.BMP,Door1,0.265972222,0.003472222,1,0,0,0.9157,optionRight,30,8740,4,28,0,28,0,1,,,,,,,,,,,,,,,,,,,,,,,,,,,,,,,,,,,,,,,
,,,,,,,,2023-08-16_08h45.22.993,HF_wild_card,2022.2.4,Win32,120.860527,60967660853e8fcaf410748b,64d2fd46c836a06233681665,64dc7e19eb1304cbf1f75ced,,,,,,,decisionTrl,resources/DB.BMP,resources/DY.BMP,WildCard_Ex,-0.144444444,0.017361111,1,0,0,0.4492,optionLeft,5,8745,4,29,0,29,0,1,,,,,,,,,,,,,,,,,,,,,,,,,,,,,,,,,,,,,,,
,,,,,,,,2023-08-16_08h45.22.993,HF_wild_card,2022.2.4,Win32,120.860527,60967660853e8fcaf410748b,64d2fd46c836a06233681665,64dc7e19eb1304cbf1f75ced,,,,,,,ctch,resources/DP.BMP,resources/DBN.BMP,Door3,-0.098611111,0.005555556,1,0,0,0.832,optionLeft,70,8815,4,30,0,30,0,1,,,,,,,,,,,,,,,,,,,,,,,,,,,,,,,,,,,,,,,
,,,,,,,,2023-08-16_08h45.22.993,HF_wild_card,2022.2.4,Win32,120.860527,60967660853e8fcaf410748b,64d2fd46c836a06233681665,64dc7e19eb1304cbf1f75ced,,,,,,,sngl,resources/Empty.png,resources/DP.BMP,Door3,0.229861111,0,1,0,0,0.549,optionRight,70,8885,4,31,0,31,0,1,,,,,,,,,,,,,,,,,,,,,,,,,,,,,,,,,,,,,,,
,,,,,,,,2023-08-16_08h45.22.993,HF_wild_card,2022.2.4,Win32,120.860527,60967660853e8fcaf410748b,64d2fd46c836a06233681665,64dc7e19eb1304cbf1f75ced,,,,,,,ctch,resources/DY.BMP,resources/DR.BMP,Door4,0.319444444,0.016666667,1,0,0,1.0671,optionRight,60,8945,4,32,0,32,0,1,,,,,,,,,,,,,,,,,,,,,,,,,,,,,,,,,,,,,,,
,,,,,,,,2023-08-16_08h45.22.993,HF_wild_card,2022.2.4,Win32,120.860527,60967660853e8fcaf410748b,64d2fd46c836a06233681665,64dc7e19eb1304cbf1f75ced,,,,,,,decisionTrl,resources/DBN.BMP,resources/DY.BMP,Door1,0.292361111,0.004861111,1,0,0,0.999,optionRight,30,8975,4,33,0,33,0,1,,,,,,,,,,,,,,,,,,,,,,,,,,,,,,,,,,,,,,,
,,,,,,,,2023-08-16_08h45.22.993,HF_wild_card,2022.2.4,Win32,120.860527,60967660853e8fcaf410748b,64d2fd46c836a06233681665,64dc7e19eb1304cbf1f75ced,,,,,,,sngl,resources/DY.BMP,resources/Empty.png,Door1,-0.133333333,0.015277778,1,0,0,0.4573,optionLeft,30,9005,4,34,0,34,0,1,,,,,,,,,,,,,,,,,,,,,,,,,,,,,,,,,,,,,,,
,,,,,,,,2023-08-16_08h45.22.993,HF_wild_card,2022.2.4,Win32,120.860527,60967660853e8fcaf410748b,64d2fd46c836a06233681665,64dc7e19eb1304cbf1f75ced,,,,,,,ctch,resources/DBN.BMP,resources/DP.BMP,Door3,0.273611111,-0.000694444,1,0,0,0.5227,optionRight,70,9075,4,35,0,35,0,1,,,,,,,,,,,,,,,,,,,,,,,,,,,,,,,,,,,,,,,
,,,,,,,,2023-08-16_08h45.22.993,HF_wild_card,2022.2.4,Win32,120.860527,60967660853e8fcaf410748b,64d2fd46c836a06233681665,64dc7e19eb1304cbf1f75ced,,,,,,,decisionTrl,resources/DY.BMP,resources/DBN.BMP,Door1,-0.196527778,0.025,1,0,0,1.0319,optionLeft,30,9105,4,36,0,36,0,1,,,,,,,,,,,,,,,,,,,,,,,,,,,,,,,,,,,,,,,
,,,,,,,,2023-08-16_08h45.22.993,HF_wild_card,2022.2.4,Win32,120.860527,60967660853e8fcaf410748b,64d2fd46c836a06233681665,64dc7e19eb1304cbf1f75ced,,,,,,,decisionTrl,resources/DBN.BMP,resources/DY.BMP,Door1,0.396527778,0.015277778,1,0,0,1.0649,optionRight,30,9135,4,37,0,37,0,1,,,,,,,,,,,,,,,,,,,,,,,,,,,,,,,,,,,,,,,
,,,,,,,,2023-08-16_08h45.22.993,HF_wild_card,2022.2.4,Win32,120.860527,60967660853e8fcaf410748b,64d2fd46c836a06233681665,64dc7e19eb1304cbf1f75ced,,,,,,,decisionTrl,resources/DR.BMP,resources/DP.BMP,Door3,0.318055556,0.016666667,1,0,0,0.5241,optionRight,70,9205,4,38,0,38,0,1,,,,,,,,,,,,,,,,,,,,,,,,,,,,,,,,,,,,,,,
,,,,,,,,2023-08-16_08h45.22.993,HF_wild_card,2022.2.4,Win32,120.860527,60967660853e8fcaf410748b,64d2fd46c836a06233681665,64dc7e19eb1304cbf1f75ced,,,,,,,decisionTrl,resources/DY.BMP,resources/DB.BMP,WildCard_Ex,0.273611111,0.010416667,1,0,0,0.5405,optionRight,95,9300,4,39,0,39,0,1,,,,,,,,,,,,,,,,,,,,,,,,,,,,,,,,,,,,,,,
,,,,,,,,2023-08-16_08h45.22.993,HF_wild_card,2022.2.4,Win32,120.860527,60967660853e8fcaf410748b,64d2fd46c836a06233681665,64dc7e19eb1304cbf1f75ced,,,,,,,sngl,resources/DB.BMP,resources/Empty.png,WildCard_Ex,-0.111805556,0.006944444,1,0,0,0.4483,optionLeft,95,9395,4,40,0,40,0,1,,,,,,,,,,,,,,,,,,,,,,,,,,,,,,,,,,,,,,,
,,,,,,,,2023-08-16_08h45.22.993,HF_wild_card,2022.2.4,Win32,120.860527,60967660853e8fcaf410748b,64d2fd46c836a06233681665,64dc7e19eb1304cbf1f75ced,,,,,,,decisionTrl,resources/DY.BMP,resources/DBN.BMP,Door1,-0.240972222,0.031944444,1,0,0,3.7288,optionLeft,30,9425,4,41,0,41,0,1,,,,,,,,,,,,,,,,,,,,,,,,,,,,,,,,,,,,,,,
,,,,,,,,2023-08-16_08h45.22.993,HF_wild_card,2022.2.4,Win32,120.860527,60967660853e8fcaf410748b,64d2fd46c836a06233681665,64dc7e19eb1304cbf1f75ced,,,,,,,sngl,resources/Empty.png,resources/DR.BMP,Door4,0.225694444,-0.005555556,1,0,0,0.4124,optionRight,80,9505,4,42,0,42,0,1,,,,,,,,,,,,,,,,,,,,,,,,,,,,,,,,,,,,,,,
,,,,,,,,2023-08-16_08h45.22.993,HF_wild_card,2022.2.4,Win32,120.860527,60967660853e8fcaf410748b,64d2fd46c836a06233681665,64dc7e19eb1304cbf1f75ced,,,,,,,sngl,resources/Empty.png,resources/DB.BMP,WildCard_Ex,0.211805556,-0.006944444,1,0,0,0.4404,optionRight,5,9510,4,43,0,43,0,1,,,,,,,,,,,,,,,,,,,,,,,,,,,,,,,,,,,,,,,
,,,,,,,,2023-08-16_08h45.22.993,HF_wild_card,2022.2.4,Win32,120.860527,60967660853e8fcaf410748b,64d2fd46c836a06233681665,64dc7e19eb1304cbf1f75ced,,,,,,,,,,,,,,,,,,,,,,,,,,3,0,3,0,1,,,,,,,,,,,,,,,,,,,,,,,,,,,,,,,,,,
,,,,,,,,2023-08-16_08h45.22.993,HF_wild_card,2022.2.4,Win32,120.860527,60967660853e8fcaf410748b,64d2fd46c836a06233681665,64dc7e19eb1304cbf1f75ced,,,,,,,decisionTrl,resources/DB.BMP,resources/DBN.BMP,WildCard_Ex,-0.232638889,-0.075694444,1,0,0,0.5177,optionLeft,5,9515,5,0,0,0,0,1,,,,,,,,,,,,,,,,,,,,,,,,,,,,,,,,,,,,,,,
,,,,,,,,2023-08-16_08h45.22.993,HF_wild_card,2022.2.4,Win32,120.860527,60967660853e8fcaf410748b,64d2fd46c836a06233681665,64dc7e19eb1304cbf1f75ced,,,,,,,ctch,resources/DR.BMP,resources/DY.BMP,Door4,-0.185416667,-0.00625,1,0,0,0.7829,optionLeft,60,9575,5,1,0,1,0,1,,,,,,,,,,,,,,,,,,,,,,,,,,,,,,,,,,,,,,,
,,,,,,,,2023-08-16_08h45.22.993,HF_wild_card,2022.2.4,Win32,120.860527,60967660853e8fcaf410748b,64d2fd46c836a06233681665,64dc7e19eb1304cbf1f75ced,,,,,,,decisionTrl,resources/DY.BMP,resources/DBN.BMP,Door2,0.204166667,-0.005555556,1,0,0,0.621,optionRight,40,9615,5,2,0,2,0,1,,,,,,,,,,,,,,,,,,,,,,,,,,,,,,,,,,,,,,,
,,,,,,,,2023-08-16_08h45.22.993,HF_wild_card,2022.2.4,Win32,120.860527,60967660853e8fcaf410748b,64d2fd46c836a06233681665,64dc7e19eb1304cbf1f75ced,,,,,,,decisionTrl,resources/DB.BMP,resources/DY.BMP,WildCard_Ex,-0.174305556,0.009027778,1,0,0,0.4828,optionLeft,95,9710,5,3,0,3,0,1,,,,,,,,,,,,,,,,,,,,,,,,,,,,,,,,,,,,,,,
,,,,,,,,2023-08-16_08h45.22.993,HF_wild_card,2022.2.4,Win32,120.860527,60967660853e8fcaf410748b,64d2fd46c836a06233681665,64dc7e19eb1304cbf1f75ced,,,,,,,sngl,resources/Empty.png,resources/DP.BMP,Door3,0.240277778,-0.0125,1,0,0,0.4406,optionRight,70,9780,5,4,0,4,0,1,,,,,,,,,,,,,,,,,,,,,,,,,,,,,,,,,,,,,,,
,,,,,,,,2023-08-16_08h45.22.993,HF_wild_card,2022.2.4,Win32,120.860527,60967660853e8fcaf410748b,64d2fd46c836a06233681665,64dc7e19eb1304cbf1f75ced,,,,,,,sngl,resources/Empty.png,resources/DB.BMP,WildCard_Ex,0.224305556,-0.0125,1,0,0,0.4223,optionRight,95,9875,5,5,0,5,0,1,,,,,,,,,,,,,,,,,,,,,,,,,,,,,,,,,,,,,,,
,,,,,,,,2023-08-16_08h45.22.993,HF_wild_card,2022.2.4,Win32,120.860527,60967660853e8fcaf410748b,64d2fd46c836a06233681665,64dc7e19eb1304cbf1f75ced,,,,,,,decisionTrl,resources/DY.BMP,resources/DBN.BMP,Door1,-0.125,0.004166667,1,0,0,0.6153,optionLeft,30,9905,5,6,0,6,0,1,,,,,,,,,,,,,,,,,,,,,,,,,,,,,,,,,,,,,,,
,,,,,,,,2023-08-16_08h45.22.993,HF_wild_card,2022.2.4,Win32,120.860527,60967660853e8fcaf410748b,64d2fd46c836a06233681665,64dc7e19eb1304cbf1f75ced,,,,,,,decisionTrl,resources/DR.BMP,resources/DP.BMP,Door3,0.241666667,-0.013888889,1,0,0,0.3909,optionRight,70,9975,5,7,0,7,0,1,,,,,,,,,,,,,,,,,,,,,,,,,,,,,,,,,,,,,,,
,,,,,,,,2023-08-16_08h45.22.993,HF_wild_card,2022.2.4,Win32,120.860527,60967660853e8fcaf410748b,64d2fd46c836a06233681665,64dc7e19eb1304cbf1f75ced,,,,,,,decisionTrl,resources/DR.BMP,resources/DP.BMP,Door3,0.240277778,-0.018055556,1,0,0,0.3832,optionRight,70,10045,5,8,0,8,0,1,,,,,,,,,,,,,,,,,,,,,,,,,,,,,,,,,,,,,,,
,,,,,,,,2023-08-16_08h45.22.993,HF_wild_card,2022.2.4,Win32,120.860527,60967660853e8fcaf410748b,64d2fd46c836a06233681665,64dc7e19eb1304cbf1f75ced,,,,,,,decisionTrl,resources/DBN.BMP,resources/DB.BMP,WildCard_Ex,0.218055556,-0.011805556,1,0,0,0.5079,optionRight,95,10140,5,9,0,9,0,1,,,,,,,,,,,,,,,,,,,,,,,,,,,,,,,,,,,,,,,
,,,,,,,,2023-08-16_08h45.22.993,HF_wild_card,2022.2.4,Win32,120.860527,60967660853e8fcaf410748b,64d2fd46c836a06233681665,64dc7e19eb1304cbf1f75ced,,,,,,,ctch,resources/DY.BMP,resources/DR.BMP,Door1,-0.186805556,0.005555556,1,0,0,0.5987,optionLeft,30,10170,5,10,0,10,0,1,,,,,,,,,,,,,,,,,,,,,,,,,,,,,,,,,,,,,,,
,,,,,,,,2023-08-16_08h45.22.993,HF_wild_card,2022.2.4,Win32,120.860527,60967660853e8fcaf410748b,64d2fd46c836a06233681665,64dc7e19eb1304cbf1f75ced,,,,,,,sngl,resources/Empty.png,resources/DY.BMP,Door1,0.21875,-0.0125,1,0,0,0.42,optionRight,30,10200,5,11,0,11,0,1,,,,,,,,,,,,,,,,,,,,,,,,,,,,,,,,,,,,,,,
,,,,,,,,2023-08-16_08h45.22.993,HF_wild_card,2022.2.4,Win32,120.860527,60967660853e8fcaf410748b,64d2fd46c836a06233681665,64dc7e19eb1304cbf1f75ced,,,,,,,decisionTrl,resources/DY.BMP,resources/DBN.BMP,Door1,-0.170833333,0.013888889,1,0,0,0.4567,optionLeft,30,10230,5,12,0,12,0,1,,,,,,,,,,,,,,,,,,,,,,,,,,,,,,,,,,,,,,,
,,,,,,,,2023-08-16_08h45.22.993,HF_wild_card,2022.2.4,Win32,120.860527,60967660853e8fcaf410748b,64d2fd46c836a06233681665,64dc7e19eb1304cbf1f75ced,,,,,,,ctch,resources/DP.BMP,resources/DBN.BMP,Door3,-0.144444444,0.015277778,1,0,0,0.4574,optionLeft,70,10300,5,13,0,13,0,1,,,,,,,,,,,,,,,,,,,,,,,,,,,,,,,,,,,,,,,
,,,,,,,,2023-08-16_08h45.22.993,HF_wild_card,2022.2.4,Win32,120.860527,60967660853e8fcaf410748b,64d2fd46c836a06233681665,64dc7e19eb1304cbf1f75ced,,,,,,,sngl,resources/Empty.png,resources/DR.BMP,Door4,0.205555556,-0.006944444,1,0,0,0.3912,optionRight,60,10360,5,14,0,14,0,1,,,,,,,,,,,,,,,,,,,,,,,,,,,,,,,,,,,,,,,
,,,,,,,,2023-08-16_08h45.22.993,HF_wild_card,2022.2.4,Win32,120.860527,60967660853e8fcaf410748b,64d2fd46c836a06233681665,64dc7e19eb1304cbf1f75ced,,,,,,,sngl,resources/Empty.png,resources/DBN.BMP,Door2,0.301388889,-0.011111111,1,0,0,0.3368,optionRight,20,10380,5,15,0,15,0,1,,,,,,,,,,,,,,,,,,,,,,,,,,,,,,,,,,,,,,,
,,,,,,,,2023-08-16_08h45.22.993,HF_wild_card,2022.2.4,Win32,120.860527,60967660853e8fcaf410748b,64d2fd46c836a06233681665,64dc7e19eb1304cbf1f75ced,,,,,,,decisionTrl,resources/DP.BMP,resources/DR.BMP,Door3,-0.211111111,0.004861111,1,0,0,0.4017,optionLeft,70,10450,5,16,0,16,0,1,,,,,,,,,,,,,,,,,,,,,,,,,,,,,,,,,,,,,,,
,,,,,,,,2023-08-16_08h45.22.993,HF_wild_card,2022.2.4,Win32,120.860527,60967660853e8fcaf410748b,64d2fd46c836a06233681665,64dc7e19eb1304cbf1f75ced,,,,,,,decisionTrl,resources/DBN.BMP,resources/DY.BMP,Door1,0.238194444,-0.008333333,1,0,0,0.6908,optionRight,30,10480,5,17,0,17,0,1,,,,,,,,,,,,,,,,,,,,,,,,,,,,,,,,,,,,,,,
,,,,,,,,2023-08-16_08h45.22.993,HF_wild_card,2022.2.4,Win32,120.860527,60967660853e8fcaf410748b,64d2fd46c836a06233681665,64dc7e19eb1304cbf1f75ced,,,,,,,decisionTrl,resources/DR.BMP,resources/DP.BMP,Door3,0.2875,-0.013888889,1,0,0,0.4075,optionRight,70,10550,5,18,0,18,0,1,,,,,,,,,,,,,,,,,,,,,,,,,,,,,,,,,,,,,,,
,,,,,,,,2023-08-16_08h45.22.993,HF_wild_card,2022.2.4,Win32,120.860527,60967660853e8fcaf410748b,64d2fd46c836a06233681665,64dc7e19eb1304cbf1f75ced,,,,,,,decisionTrl,resources/DY.BMP,resources/DBN.BMP,Door1,-0.228472222,0.006944444,1,0,0,0.9017,optionLeft,30,10580,5,19,0,19,0,1,,,,,,,,,,,,,,,,,,,,,,,,,,,,,,,,,,,,,,,
,,,,,,,,2023-08-16_08h45.22.993,HF_wild_card,2022.2.4,Win32,120.860527,60967660853e8fcaf410748b,64d2fd46c836a06233681665,64dc7e19eb1304cbf1f75ced,,,,,,,ctch,resources/DBN.BMP,resources/DP.BMP,Door3,0.290972222,-0.008333333,1,0,0,0.4205,optionRight,70,10650,5,20,0,20,0,1,,,,,,,,,,,,,,,,,,,,,,,,,,,,,,,,,,,,,,,
,,,,,,,,2023-08-16_08h45.22.993,HF_wild_card,2022.2.4,Win32,120.860527,60967660853e8fcaf410748b,64d2fd46c836a06233681665,64dc7e19eb1304cbf1f75ced,,,,,,,sngl,resources/DY.BMP,resources/Empty.png,Door1,-0.121527778,-0.000694444,1,0,0,0.5188,optionLeft,30,10680,5,21,0,21,0,1,,,,,,,,,,,,,,,,,,,,,,,,,,,,,,,,,,,,,,,
,,,,,,,,2023-08-16_08h45.22.993,HF_wild_card,2022.2.4,Win32,120.860527,60967660853e8fcaf410748b,64d2fd46c836a06233681665,64dc7e19eb1304cbf1f75ced,,,,,,,decisionTrl,resources/DP.BMP,resources/DR.BMP,Door3,-0.388194444,0.01875,1,0,0,0.6404,optionLeft,70,10750,5,22,0,22,0,1,,,,,,,,,,,,,,,,,,,,,,,,,,,,,,,,,,,,,,,
,,,,,,,,2023-08-16_08h45.22.993,HF_wild_card,2022.2.4,Win32,120.860527,60967660853e8fcaf410748b,64d2fd46c836a06233681665,64dc7e19eb1304cbf1f75ced,,,,,,,decisionTrl,resources/DR.BMP,resources/DB.BMP,WildCard_Ex,0.274305556,-0.010416667,1,0,0,0.4072,optionRight,5,10755,5,23,0,23,0,1,,,,,,,,,,,,,,,,,,,,,,,,,,,,,,,,,,,,,,,
,,,,,,,,2023-08-16_08h45.22.993,HF_wild_card,2022.2.4,Win32,120.860527,60967660853e8fcaf410748b,64d2fd46c836a06233681665,64dc7e19eb1304cbf1f75ced,,,,,,,decisionTrl,resources/DY.BMP,resources/DB.BMP,WildCard_Ex,0.270138889,-0.004861111,1,0,0,0.4324,optionRight,95,10850,5,24,0,24,0,1,,,,,,,,,,,,,,,,,,,,,,,,,,,,,,,,,,,,,,,
,,,,,,,,2023-08-16_08h45.22.993,HF_wild_card,2022.2.4,Win32,120.860527,60967660853e8fcaf410748b,64d2fd46c836a06233681665,64dc7e19eb1304cbf1f75ced,,,,,,,decisionTrl,resources/DP.BMP,resources/DR.BMP,Door3,-0.152777778,0.011805556,1,0,0,0.4404,optionLeft,70,10920,5,25,0,25,0,1,,,,,,,,,,,,,,,,,,,,,,,,,,,,,,,,,,,,,,,
,,,,,,,,2023-08-16_08h45.22.993,HF_wild_card,2022.2.4,Win32,120.860527,60967660853e8fcaf410748b,64d2fd46c836a06233681665,64dc7e19eb1304cbf1f75ced,,,,,,,ctch,resources/DBN.BMP,resources/DP.BMP,Door3,0.288194444,0.000694444,1,0,0,0.3823,optionRight,70,10990,5,26,0,26,0,1,,,,,,,,,,,,,,,,,,,,,,,,,,,,,,,,,,,,,,,
,,,,,,,,2023-08-16_08h45.22.993,HF_wild_card,2022.2.4,Win32,120.860527,60967660853e8fcaf410748b,64d2fd46c836a06233681665,64dc7e19eb1304cbf1f75ced,,,,,,,sngl,resources/DR.BMP,resources/Empty.png,Door4,-0.218055556,0.023611111,1,0,0,0.4492,optionLeft,80,11070,5,27,0,27,0,1,,,,,,,,,,,,,,,,,,,,,,,,,,,,,,,,,,,,,,,
,,,,,,,,2023-08-16_08h45.22.993,HF_wild_card,2022.2.4,Win32,120.860527,60967660853e8fcaf410748b,64d2fd46c836a06233681665,64dc7e19eb1304cbf1f75ced,,,,,,,decisionTrl,resources/DR.BMP,resources/DP.BMP,Door3,0.300694444,0.002083333,1,0,0,0.5984,optionRight,70,11140,5,28,0,28,0,1,,,,,,,,,,,,,,,,,,,,,,,,,,,,,,,,,,,,,,,
,,,,,,,,2023-08-16_08h45.22.993,HF_wild_card,2022.2.4,Win32,120.860527,60967660853e8fcaf410748b,64d2fd46c836a06233681665,64dc7e19eb1304cbf1f75ced,,,,,,,decisionTrl,resources/DBN.BMP,resources/DY.BMP,Door1,0.281944444,0.002083333,1,0,0,0.6566,optionRight,30,11170,5,29,0,29,0,1,,,,,,,,,,,,,,,,,,,,,,,,,,,,,,,,,,,,,,,
,,,,,,,,2023-08-16_08h45.22.993,HF_wild_card,2022.2.4,Win32,120.860527,60967660853e8fcaf410748b,64d2fd46c836a06233681665,64dc7e19eb1304cbf1f75ced,,,,,,,decisionTrl,resources/DP.BMP,resources/DB.BMP,WildCard_Ex,0.299305556,-0.000694444,1,0,0,0.466,optionRight,5,11175,5,30,0,30,0,1,,,,,,,,,,,,,,,,,,,,,,,,,,,,,,,,,,,,,,,
,,,,,,,,2023-08-16_08h45.22.993,HF_wild_card,2022.2.4,Win32,120.860527,60967660853e8fcaf410748b,64d2fd46c836a06233681665,64dc7e19eb1304cbf1f75ced,,,,,,,ctch,resources/DP.BMP,resources/DBN.BMP,Door3,-0.190972222,0.019444444,1,0,0,0.3982,optionLeft,70,11245,5,31,0,31,0,1,,,,,,,,,,,,,,,,,,,,,,,,,,,,,,,,,,,,,,,
,,,,,,,,2023-08-16_08h45.22.993,HF_wild_card,2022.2.4,Win32,120.860527,60967660853e8fcaf410748b,64d2fd46c836a06233681665,64dc7e19eb1304cbf1f75ced,,,,,,,decisionTrl,resources/DB.BMP,resources/DR.BMP,WildCard_Ex,-0.179166667,0.011805556,1,0,0,0.7656,optionLeft,5,11250,5,32,0,32,0,1,,,,,,,,,,,,,,,,,,,,,,,,,,,,,,,,,,,,,,,
,,,,,,,,2023-08-16_08h45.22.993,HF_wild_card,2022.2.4,Win32,120.860527,60967660853e8fcaf410748b,64d2fd46c836a06233681665,64dc7e19eb1304cbf1f75ced,,,,,,,sngl,resources/Empty.png,resources/DB.BMP,WildCard_Ex,0.244444444,0.000694444,1,0,0,0.5159,optionRight,5,11255,5,33,0,33,0,1,,,,,,,,,,,,,,,,,,,,,,,,,,,,,,,,,,,,,,,
,,,,,,,,2023-08-16_08h45.22.993,HF_wild_card,2022.2.4,Win32,120.860527,60967660853e8fcaf410748b,64d2fd46c836a06233681665,64dc7e19eb1304cbf1f75ced,,,,,,,decisionTrl,resources/DP.BMP,resources/DR.BMP,Door3,-0.163194444,0.011805556,1,0,0,0.4735,optionLeft,70,11325,5,34,0,34,0,1,,,,,,,,,,,,,,,,,,,,,,,,,,,,,,,,,,,,,,,
,,,,,,,,2023-08-16_08h45.22.993,HF_wild_card,2022.2.4,Win32,120.860527,60967660853e8fcaf410748b,64d2fd46c836a06233681665,64dc7e19eb1304cbf1f75ced,,,,,,,sngl,resources/DBN.BMP,resources/Empty.png,Door2,-0.135416667,0.00625,1,0,0,0.4738,optionLeft,40,11365,5,35,0,35,0,1,,,,,,,,,,,,,,,,,,,,,,,,,,,,,,,,,,,,,,,
,,,,,,,,2023-08-16_08h45.22.993,HF_wild_card,2022.2.4,Win32,120.860527,60967660853e8fcaf410748b,64d2fd46c836a06233681665,64dc7e19eb1304cbf1f75ced,,,,,,,decisionTrl,resources/DBN.BMP,resources/DY.BMP,Door1,0.246527778,0.000694444,1,0,0,0.6303,optionRight,30,11395,5,36,0,36,0,1,,,,,,,,,,,,,,,,,,,,,,,,,,,,,,,,,,,,,,,
,,,,,,,,2023-08-16_08h45.22.993,HF_wild_card,2022.2.4,Win32,120.860527,60967660853e8fcaf410748b,64d2fd46c836a06233681665,64dc7e19eb1304cbf1f75ced,,,,,,,decisionTrl,resources/DB.BMP,resources/DP.BMP,Door3,0.322916667,-0.004861111,1,0,0,1.4073,optionRight,70,11465,5,37,0,37,0,1,,,,,,,,,,,,,,,,,,,,,,,,,,,,,,,,,,,,,,,
,,,,,,,,2023-08-16_08h45.22.993,HF_wild_card,2022.2.4,Win32,120.860527,60967660853e8fcaf410748b,64d2fd46c836a06233681665,64dc7e19eb1304cbf1f75ced,,,,,,,sngl,resources/DP.BMP,resources/Empty.png,Door3,-0.131944444,-0.000694444,1,0,0,0.4743,optionLeft,70,11535,5,38,0,38,0,1,,,,,,,,,,,,,,,,,,,,,,,,,,,,,,,,,,,,,,,
,,,,,,,,2023-08-16_08h45.22.993,HF_wild_card,2022.2.4,Win32,120.860527,60967660853e8fcaf410748b,64d2fd46c836a06233681665,64dc7e19eb1304cbf1f75ced,,,,,,,ctch,resources/DY.BMP,resources/DR.BMP,Door4,0.286805556,-0.014583333,1,0,0,0.7663,optionRight,80,11615,5,39,0,39,0,1,,,,,,,,,,,,,,,,,,,,,,,,,,,,,,,,,,,,,,,
,,,,,,,,2023-08-16_08h45.22.993,HF_wild_card,2022.2.4,Win32,120.860527,60967660853e8fcaf410748b,64d2fd46c836a06233681665,64dc7e19eb1304cbf1f75ced,,,,,,,decisionTrl,resources/DBN.BMP,resources/DY.BMP,Door1,0.247222222,-0.009027778,1,0,0,0.7319,optionRight,30,11645,5,40,0,40,0,1,,,,,,,,,,,,,,,,,,,,,,,,,,,,,,,,,,,,,,,
,,,,,,,,2023-08-16_08h45.22.993,HF_wild_card,2022.2.4,Win32,120.860527,60967660853e8fcaf410748b,64d2fd46c836a06233681665,64dc7e19eb1304cbf1f75ced,,,,,,,ctch,resources/DR.BMP,resources/DY.BMP,Door4,-0.138888889,0.006944444,1,0,0,0.5074,optionLeft,60,11705,5,41,0,41,0,1,,,,,,,,,,,,,,,,,,,,,,,,,,,,,,,,,,,,,,,
,,,,,,,,2023-08-16_08h45.22.993,HF_wild_card,2022.2.4,Win32,120.860527,60967660853e8fcaf410748b,64d2fd46c836a06233681665,64dc7e19eb1304cbf1f75ced,,,,,,,sngl,resources/DB.BMP,resources/Empty.png,WildCard_Ex,-0.136805556,0.0125,1,0,0,0.6077,optionLeft,95,11800,5,42,0,42,0,1,,,,,,,,,,,,,,,,,,,,,,,,,,,,,,,,,,,,,,,
,,,,,,,,2023-08-16_08h45.22.993,HF_wild_card,2022.2.4,Win32,120.860527,60967660853e8fcaf410748b,64d2fd46c836a06233681665,64dc7e19eb1304cbf1f75ced,,,,,,,sngl,resources/DB.BMP,resources/Empty.png,WildCard_Ex,-0.120138889,0.002777778,1,0,0,0.3664,optionLeft,5,11805,5,43,0,43,0,1,,,,,,,,,,,,,,,,,,,,,,,,,,,,,,,,,,,,,,,
,,,,,,,,2023-08-16_08h45.22.993,HF_wild_card,2022.2.4,Win32,120.860527,60967660853e8fcaf410748b,64d2fd46c836a06233681665,64dc7e19eb1304cbf1f75ced,,,,,,,,,,,,,,,,,,,,,,,,,,4,0,4,0,1,,,,,,,,,,,,,,,,,,,,,,,,,,,,,,,,,,
,,,,,,,,2023-08-16_08h45.22.993,HF_wild_card,2022.2.4,Win32,120.860527,60967660853e8fcaf410748b,64d2fd46c836a06233681665,64dc7e19eb1304cbf1f75ced,,,,,,,decisionTrl,resources/DY.BMP,resources/DBN.BMP,Door1,-0.275,-0.038888889,1,0,0,0.7299,optionLeft,30,11835,6,0,0,0,0,1,,,,,,,,,,,,,,,,,,,,,,,,,,,,,,,,,,,,,,,
,,,,,,,,2023-08-16_08h45.22.993,HF_wild_card,2022.2.4,Win32,120.860527,60967660853e8fcaf410748b,64d2fd46c836a06233681665,64dc7e19eb1304cbf1f75ced,,,,,,,decisionTrl,resources/DBN.BMP,resources/DB.BMP,WildCard_Ex,0.274305556,0.003472222,1,0,0,0.3985,optionRight,5,11840,6,1,0,1,0,1,,,,,,,,,,,,,,,,,,,,,,,,,,,,,,,,,,,,,,,
,,,,,,,,2023-08-16_08h45.22.993,HF_wild_card,2022.2.4,Win32,120.860527,60967660853e8fcaf410748b,64d2fd46c836a06233681665,64dc7e19eb1304cbf1f75ced,,,,,,,decisionTrl,resources/DY.BMP,resources/DBN.BMP,Door1,-0.145138889,-0.002777778,1,0,0,0.5495,optionLeft,30,11870,6,2,0,2,0,1,,,,,,,,,,,,,,,,,,,,,,,,,,,,,,,,,,,,,,,
,,,,,,,,2023-08-16_08h45.22.993,HF_wild_card,2022.2.4,Win32,120.860527,60967660853e8fcaf410748b,64d2fd46c836a06233681665,64dc7e19eb1304cbf1f75ced,,,,,,,ctch,resources/DR.BMP,resources/DY.BMP,Door1,0.266666667,-0.016666667,1,0,0,0.5569,optionRight,30,11900,6,3,0,3,0,1,,,,,,,,,,,,,,,,,,,,,,,,,,,,,,,,,,,,,,,
,,,,,,,,2023-08-16_08h45.22.993,HF_wild_card,2022.2.4,Win32,120.860527,60967660853e8fcaf410748b,64d2fd46c836a06233681665,64dc7e19eb1304cbf1f75ced,,,,,,,sngl,resources/DB.BMP,resources/Empty.png,WildCard_Ex,-0.189583333,0.000694444,1,0,0,0.4401,optionLeft,5,11905,6,4,0,4,0,1,,,,,,,,,,,,,,,,,,,,,,,,,,,,,,,,,,,,,,,
,,,,,,,,2023-08-16_08h45.22.993,HF_wild_card,2022.2.4,Win32,120.860527,60967660853e8fcaf410748b,64d2fd46c836a06233681665,64dc7e19eb1304cbf1f75ced,,,,,,,sngl,resources/DB.BMP,resources/Empty.png,WildCard_Ex,-0.129166667,-0.011111111,1,0,0,0.3738,optionLeft,95,12000,6,5,0,5,0,1,,,,,,,,,,,,,,,,,,,,,,,,,,,,,,,,,,,,,,,
,,,,,,,,2023-08-16_08h45.22.993,HF_wild_card,2022.2.4,Win32,120.860527,60967660853e8fcaf410748b,64d2fd46c836a06233681665,64dc7e19eb1304cbf1f75ced,,,,,,,decisionTrl,resources/DY.BMP,resources/DB.BMP,WildCard_Ex,0.286111111,-0.009722222,1,0,0,0.7825,optionRight,5,12005,6,6,0,6,0,1,,,,,,,,,,,,,,,,,,,,,,,,,,,,,,,,,,,,,,,
,,,,,,,,2023-08-16_08h45.22.993,HF_wild_card,2022.2.4,Win32,120.860527,60967660853e8fcaf410748b,64d2fd46c836a06233681665,64dc7e19eb1304cbf1f75ced,,,,,,,sngl,resources/Empty.png,resources/DY.BMP,Door1,0.170138889,-0.017361111,1,0,0,0.5237,optionRight,30,12035,6,7,0,7,0,1,,,,,,,,,,,,,,,,,,,,,,,,,,,,,,,,,,,,,,,
,,,,,,,,2023-08-16_08h45.22.993,HF_wild_card,2022.2.4,Win32,120.860527,60967660853e8fcaf410748b,64d2fd46c836a06233681665,64dc7e19eb1304cbf1f75ced,,,,,,,decisionTrl,resources/DR.BMP,resources/DP.BMP,Door3,0.275,-0.011805556,1,0,0,0.683,optionRight,70,12105,6,8,0,8,0,1,,,,,,,,,,,,,,,,,,,,,,,,,,,,,,,,,,,,,,,
,,,,,,,,2023-08-16_08h45.22.993,HF_wild_card,2022.2.4,Win32,120.860527,60967660853e8fcaf410748b,64d2fd46c836a06233681665,64dc7e19eb1304cbf1f75ced,,,,,,,ctch,resources/DBN.BMP,resources/DP.BMP,Door3,0.330555556,-0.013888889,1,0,0,0.4158,optionRight,70,12175,6,9,0,9,0,1,,,,,,,,,,,,,,,,,,,,,,,,,,,,,,,,,,,,,,,
,,,,,,,,2023-08-16_08h45.22.993,HF_wild_card,2022.2.4,Win32,120.860527,60967660853e8fcaf410748b,64d2fd46c836a06233681665,64dc7e19eb1304cbf1f75ced,,,,,,,ctch,resources/DBN.BMP,resources/DP.BMP,Door3,0.209027778,-0.017361111,1,0,0,0.8065,optionRight,70,12245,6,10,0,10,0,1,,,,,,,,,,,,,,,,,,,,,,,,,,,,,,,,,,,,,,,
,,,,,,,,2023-08-16_08h45.22.993,HF_wild_card,2022.2.4,Win32,120.860527,60967660853e8fcaf410748b,64d2fd46c836a06233681665,64dc7e19eb1304cbf1f75ced,,,,,,,decisionTrl,resources/DBN.BMP,resources/DY.BMP,Door1,0.290972222,-0.011805556,1,0,0,2.2813,optionRight,30,12275,6,11,0,11,0,1,,,,,,,,,,,,,,,,,,,,,,,,,,,,,,,,,,,,,,,
,,,,,,,,2023-08-16_08h45.22.993,HF_wild_card,2022.2.4,Win32,120.860527,60967660853e8fcaf410748b,64d2fd46c836a06233681665,64dc7e19eb1304cbf1f75ced,,,,,,,decisionTrl,resources/DR.BMP,resources/DP.BMP,Door3,0.371527778,-0.030555556,1,0,0,1.3321,optionRight,70,12345,6,12,0,12,0,1,,,,,,,,,,,,,,,,,,,,,,,,,,,,,,,,,,,,,,,
,,,,,,,,2023-08-16_08h45.22.993,HF_wild_card,2022.2.4,Win32,120.860527,60967660853e8fcaf410748b,64d2fd46c836a06233681665,64dc7e19eb1304cbf1f75ced,,,,,,,ctch,resources/DP.BMP,resources/DBN.BMP,Door3,-0.209027778,0.018055556,1,0,0,0.5074,optionLeft,70,12415,6,13,0,13,0,1,,,,,,,,,,,,,,,,,,,,,,,,,,,,,,,,,,,,,,,
,,,,,,,,2023-08-16_08h45.22.993,HF_wild_card,2022.2.4,Win32,120.860527,60967660853e8fcaf410748b,64d2fd46c836a06233681665,64dc7e19eb1304cbf1f75ced,,,,,,,sngl,resources/DR.BMP,resources/Empty.png,Door4,-0.166666667,0.009027778,1,0,0,0.6818,optionLeft,60,12475,6,14,0,14,0,1,,,,,,,,,,,,,,,,,,,,,,,,,,,,,,,,,,,,,,,
,,,,,,,,2023-08-16_08h45.22.993,HF_wild_card,2022.2.4,Win32,120.860527,60967660853e8fcaf410748b,64d2fd46c836a06233681665,64dc7e19eb1304cbf1f75ced,,,,,,,sngl,resources/DBN.BMP,resources/Empty.png,Door2,-0.181944444,-0.002083333,1,0,0,0.3816,optionLeft,20,12495,6,15,0,15,0,1,,,,,,,,,,,,,,,,,,,,,,,,,,,,,,,,,,,,,,,
,,,,,,,,2023-08-16_08h45.22.993,HF_wild_card,2022.2.4,Win32,120.860527,60967660853e8fcaf410748b,64d2fd46c836a06233681665,64dc7e19eb1304cbf1f75ced,,,,,,,decisionTrl,resources/DB.BMP,resources/DBN.BMP,WildCard_Ex,-0.174305556,-0.004861111,1,0,0,0.8325,optionLeft,5,12500,6,16,0,16,0,1,,,,,,,,,,,,,,,,,,,,,,,,,,,,,,,,,,,,,,,
,,,,,,,,2023-08-16_08h45.22.993,HF_wild_card,2022.2.4,Win32,120.860527,60967660853e8fcaf410748b,64d2fd46c836a06233681665,64dc7e19eb1304cbf1f75ced,,,,,,,sngl,resources/DP.BMP,resources/Empty.png,Door3,-0.188888889,-0.004166667,1,0,0,0.3993,optionLeft,70,12570,6,17,0,17,0,1,,,,,,,,,,,,,,,,,,,,,,,,,,,,,,,,,,,,,,,
,,,,,,,,2023-08-16_08h45.22.993,HF_wild_card,2022.2.4,Win32,120.860527,60967660853e8fcaf410748b,64d2fd46c836a06233681665,64dc7e19eb1304cbf1f75ced,,,,,,,sngl,resources/Empty.png,resources/DP.BMP,Door3,0.252777778,-0.018055556,1,0,0,0.4327,optionRight,70,12640,6,18,0,18,0,1,,,,,,,,,,,,,,,,,,,,,,,,,,,,,,,,,,,,,,,
,,,,,,,,2023-08-16_08h45.22.993,HF_wild_card,2022.2.4,Win32,120.860527,60967660853e8fcaf410748b,64d2fd46c836a06233681665,64dc7e19eb1304cbf1f75ced,,,,,,,decisionTrl,resources/DR.BMP,resources/DB.BMP,WildCard_Ex,0.252777778,-0.017361111,1,0,0,0.7161,optionRight,95,12735,6,19,0,19,0,1,,,,,,,,,,,,,,,,,,,,,,,,,,,,,,,,,,,,,,,
,,,,,,,,2023-08-16_08h45.22.993,HF_wild_card,2022.2.4,Win32,120.860527,60967660853e8fcaf410748b,64d2fd46c836a06233681665,64dc7e19eb1304cbf1f75ced,,,,,,,sngl,resources/Empty.png,resources/DB.BMP,WildCard_Ex,0.224305556,-0.015277778,1,0,0,0.5325,optionRight,5,12740,6,20,0,20,0,1,,,,,,,,,,,,,,,,,,,,,,,,,,,,,,,,,,,,,,,
,,,,,,,,2023-08-16_08h45.22.993,HF_wild_card,2022.2.4,Win32,120.860527,60967660853e8fcaf410748b,64d2fd46c836a06233681665,64dc7e19eb1304cbf1f75ced,,,,,,,decisionTrl,resources/DP.BMP,resources/DR.BMP,Door3,-0.2125,-0.000694444,1,0,0,0.7152,optionLeft,70,12810,6,21,0,21,0,1,,,,,,,,,,,,,,,,,,,,,,,,,,,,,,,,,,,,,,,
,,,,,,,,2023-08-16_08h45.22.993,HF_wild_card,2022.2.4,Win32,120.860527,60967660853e8fcaf410748b,64d2fd46c836a06233681665,64dc7e19eb1304cbf1f75ced,,,,,,,ctch,resources/DY.BMP,resources/DR.BMP,Door4,0.258333333,-0.016666667,1,0,0,0.7326,optionRight,80,12890,6,22,0,22,0,1,,,,,,,,,,,,,,,,,,,,,,,,,,,,,,,,,,,,,,,
,,,,,,,,2023-08-16_08h45.22.993,HF_wild_card,2022.2.4,Win32,120.860527,60967660853e8fcaf410748b,64d2fd46c836a06233681665,64dc7e19eb1304cbf1f75ced,,,,,,,decisionTrl,resources/DR.BMP,resources/DP.BMP,Door3,0.268055556,-0.007638889,1,0,0,0.5481,optionRight,70,12960,6,23,0,23,0,1,,,,,,,,,,,,,,,,,,,,,,,,,,,,,,,,,,,,,,,
,,,,,,,,2023-08-16_08h45.22.993,HF_wild_card,2022.2.4,Win32,120.860527,60967660853e8fcaf410748b,64d2fd46c836a06233681665,64dc7e19eb1304cbf1f75ced,,,,,,,decisionTrl,resources/DP.BMP,resources/DB.BMP,Door3,-0.154166667,0.008333333,1,0,0,0.4989,optionLeft,70,13030,6,24,0,24,0,1,,,,,,,,,,,,,,,,,,,,,,,,,,,,,,,,,,,,,,,
,,,,,,,,2023-08-16_08h45.22.993,HF_wild_card,2022.2.4,Win32,120.860527,60967660853e8fcaf410748b,64d2fd46c836a06233681665,64dc7e19eb1304cbf1f75ced,,,,,,,decisionTrl,resources/DB.BMP,resources/DY.BMP,WildCard_Ex,-0.148611111,-0.001388889,1,0,0,0.5322,optionLeft,95,13125,6,25,0,25,0,1,,,,,,,,,,,,,,,,,,,,,,,,,,,,,,,,,,,,,,,
,,,,,,,,2023-08-16_08h45.22.993,HF_wild_card,2022.2.4,Win32,120.860527,60967660853e8fcaf410748b,64d2fd46c836a06233681665,64dc7e19eb1304cbf1f75ced,,,,,,,decisionTrl,resources/DR.BMP,resources/DP.BMP,Door3,0.279861111,-0.026388889,1,0,0,0.5986,optionRight,70,13195,6,26,0,26,0,1,,,,,,,,,,,,,,,,,,,,,,,,,,,,,,,,,,,,,,,
,,,,,,,,2023-08-16_08h45.22.993,HF_wild_card,2022.2.4,Win32,120.860527,60967660853e8fcaf410748b,64d2fd46c836a06233681665,64dc7e19eb1304cbf1f75ced,,,,,,,ctch,resources/DR.BMP,resources/DY.BMP,Door4,-0.25,0.010416667,1,0,0,1.0684,optionLeft,60,13255,6,27,0,27,0,1,,,,,,,,,,,,,,,,,,,,,,,,,,,,,,,,,,,,,,,
,,,,,,,,2023-08-16_08h45.22.993,HF_wild_card,2022.2.4,Win32,120.860527,60967660853e8fcaf410748b,64d2fd46c836a06233681665,64dc7e19eb1304cbf1f75ced,,,,,,,sngl,resources/Empty.png,resources/DB.BMP,WildCard_Ex,0.253472222,-0.007638889,1,0,0,0.5322,optionRight,95,13350,6,28,0,28,0,1,,,,,,,,,,,,,,,,,,,,,,,,,,,,,,,,,,,,,,,
,,,,,,,,2023-08-16_08h45.22.993,HF_wild_card,2022.2.4,Win32,120.860527,60967660853e8fcaf410748b,64d2fd46c836a06233681665,64dc7e19eb1304cbf1f75ced,,,,,,,decisionTrl,resources/DY.BMP,resources/DBN.BMP,Door1,-0.238888889,0.011805556,1,0,0,1.1203,optionLeft,30,13380,6,29,0,29,0,1,,,,,,,,,,,,,,,,,,,,,,,,,,,,,,,,,,,,,,,
,,,,,,,,2023-08-16_08h45.22.993,HF_wild_card,2022.2.4,Win32,120.860527,60967660853e8fcaf410748b,64d2fd46c836a06233681665,64dc7e19eb1304cbf1f75ced,,,,,,,sngl,resources/DY.BMP,resources/Empty.png,Door1,-0.132638889,0.002083333,1,0,0,0.4242,optionLeft,30,13410,6,30,0,30,0,1,,,,,,,,,,,,,,,,,,,,,,,,,,,,,,,,,,,,,,,
,,,,,,,,2023-08-16_08h45.22.993,HF_wild_card,2022.2.4,Win32,120.860527,60967660853e8fcaf410748b,64d2fd46c836a06233681665,64dc7e19eb1304cbf1f75ced,,,,,,,ctch,resources/DY.BMP,resources/DR.BMP,Door4,0.228472222,-0.019444444,1,0,0,0.59,optionRight,60,13470,6,31,0,31,0,1,,,,,,,,,,,,,,,,,,,,,,,,,,,,,,,,,,,,,,,
,,,,,,,,2023-08-16_08h45.22.993,HF_wild_card,2022.2.4,Win32,120.860527,60967660853e8fcaf410748b,64d2fd46c836a06233681665,64dc7e19eb1304cbf1f75ced,,,,,,,decisionTrl,resources/DBN.BMP,resources/DY.BMP,Door1,0.234722222,-0.015277778,1,0,0,0.5138,optionRight,30,13500,6,32,0,32,0,1,,,,,,,,,,,,,,,,,,,,,,,,,,,,,,,,,,,,,,,
,,,,,,,,2023-08-16_08h45.22.993,HF_wild_card,2022.2.4,Win32,120.860527,60967660853e8fcaf410748b,64d2fd46c836a06233681665,64dc7e19eb1304cbf1f75ced,,,,,,,ctch,resources/DP.BMP,resources/DBN.BMP,Door3,-0.176388889,-0.00625,1,0,0,0.4651,optionLeft,70,13570,6,33,0,33,0,1,,,,,,,,,,,,,,,,,,,,,,,,,,,,,,,,,,,,,,,
,,,,,,,,2023-08-16_08h45.22.993,HF_wild_card,2022.2.4,Win32,120.860527,60967660853e8fcaf410748b,64d2fd46c836a06233681665,64dc7e19eb1304cbf1f75ced,,,,,,,decisionTrl,resources/DBN.BMP,resources/DY.BMP,Door1,0.229166667,-0.023611111,1,0,0,0.5317,optionRight,30,13600,6,34,0,34,0,1,,,,,,,,,,,,,,,,,,,,,,,,,,,,,,,,,,,,,,,
,,,,,,,,2023-08-16_08h45.22.993,HF_wild_card,2022.2.4,Win32,120.860527,60967660853e8fcaf410748b,64d2fd46c836a06233681665,64dc7e19eb1304cbf1f75ced,,,,,,,sngl,resources/Empty.png,resources/DBN.BMP,Door2,0.313194444,-0.029166667,1,0,0,0.3905,optionRight,40,13640,6,35,0,35,0,1,,,,,,,,,,,,,,,,,,,,,,,,,,,,,,,,,,,,,,,
,,,,,,,,2023-08-16_08h45.22.993,HF_wild_card,2022.2.4,Win32,120.860527,60967660853e8fcaf410748b,64d2fd46c836a06233681665,64dc7e19eb1304cbf1f75ced,,,,,,,decisionTrl,resources/DP.BMP,resources/DR.BMP,Door3,-0.184722222,-0.009027778,1,0,0,0.4817,optionLeft,70,13710,6,36,0,36,0,1,,,,,,,,,,,,,,,,,,,,,,,,,,,,,,,,,,,,,,,
,,,,,,,,2023-08-16_08h45.22.993,HF_wild_card,2022.2.4,Win32,120.860527,60967660853e8fcaf410748b,64d2fd46c836a06233681665,64dc7e19eb1304cbf1f75ced,,,,,,,decisionTrl,resources/DB.BMP,resources/DR.BMP,WildCard_Ex,-0.193055556,-0.010416667,1,0,0,0.3455,optionLeft,5,13715,6,37,0,37,0,1,,,,,,,,,,,,,,,,,,,,,,,,,,,,,,,,,,,,,,,
,,,,,,,,2023-08-16_08h45.22.993,HF_wild_card,2022.2.4,Win32,120.860527,60967660853e8fcaf410748b,64d2fd46c836a06233681665,64dc7e19eb1304cbf1f75ced,,,,,,,sngl,resources/Empty.png,resources/DR.BMP,Door4,0.208333333,-0.020833333,1,0,0,0.3853,optionRight,80,13795,6,38,0,38,0,1,,,,,,,,,,,,,,,,,,,,,,,,,,,,,,,,,,,,,,,
,,,,,,,,2023-08-16_08h45.22.993,HF_wild_card,2022.2.4,Win32,120.860527,60967660853e8fcaf410748b,64d2fd46c836a06233681665,64dc7e19eb1304cbf1f75ced,,,,,,,decisionTrl,resources/DY.BMP,resources/DBN.BMP,Door1,-0.236805556,-0.001388889,1,0,0,0.7067,optionLeft,30,13825,6,39,0,39,0,1,,,,,,,,,,,,,,,,,,,,,,,,,,,,,,,,,,,,,,,
,,,,,,,,2023-08-16_08h45.22.993,HF_wild_card,2022.2.4,Win32,120.860527,60967660853e8fcaf410748b,64d2fd46c836a06233681665,64dc7e19eb1304cbf1f75ced,,,,,,,decisionTrl,resources/DP.BMP,resources/DR.BMP,Door3,-0.240277778,0.001388889,1,0,0,0.7905,optionLeft,70,13895,6,40,0,40,0,1,,,,,,,,,,,,,,,,,,,,,,,,,,,,,,,,,,,,,,,
,,,,,,,,2023-08-16_08h45.22.993,HF_wild_card,2022.2.4,Win32,120.860527,60967660853e8fcaf410748b,64d2fd46c836a06233681665,64dc7e19eb1304cbf1f75ced,,,,,,,decisionTrl,resources/DBN.BMP,resources/DY.BMP,Door1,0.273611111,-0.023611111,1,0,0,0.5567,optionRight,30,13925,6,41,0,41,0,1,,,,,,,,,,,,,,,,,,,,,,,,,,,,,,,,,,,,,,,
,,,,,,,,2023-08-16_08h45.22.993,HF_wild_card,2022.2.4,Win32,120.860527,60967660853e8fcaf410748b,64d2fd46c836a06233681665,64dc7e19eb1304cbf1f75ced,,,,,,,decisionTrl,resources/DB.BMP,resources/DP.BMP,Door3,0.279861111,-0.024305556,1,0,0,0.4194,optionRight,70,13995,6,42,0,42,0,1,,,,,,,,,,,,,,,,,,,,,,,,,,,,,,,,,,,,,,,
,,,,,,,,2023-08-16_08h45.22.993,HF_wild_card,2022.2.4,Win32,120.860527,60967660853e8fcaf410748b,64d2fd46c836a06233681665,64dc7e19eb1304cbf1f75ced,,,,,,,decisionTrl,resources/DP.BMP,resources/DR.BMP,Door3,-0.160416667,0,1,0,0,0.5684,optionLeft,70,14065,6,43,0,43,0,1,,,,,,,,,,,,,,,,,,,,,,,,,,,,,,,,,,,,,,,
,,,,,,,,2023-08-16_08h45.22.993,HF_wild_card,2022.2.4,Win32,120.860527,60967660853e8fcaf410748b,64d2fd46c836a06233681665,64dc7e19eb1304cbf1f75ced,,,,,,,,,,,,,,,,,,,,,,,,,,5,0,5,0,1,,,,,,,,,,,,,,,,,,,,,,,,,,,,,,,,,,
,,,,,,,,2023-08-16_08h45.22.993,HF_wild_card,2022.2.4,Win32,120.860527,60967660853e8fcaf410748b,64d2fd46c836a06233681665,64dc7e19eb1304cbf1f75ced,,,,,,,decisionTrl,resources/DY.BMP,resources/DBN.BMP,Door1,-0.211805556,-0.088194444,1,0,0,0.6167,optionLeft,30,14095,7,0,0,0,0,1,,,,,,,,,,,,,,,,,,,,,,,,,,,,,,,,,,,,,,,
,,,,,,,,2023-08-16_08h45.22.993,HF_wild_card,2022.2.4,Win32,120.860527,60967660853e8fcaf410748b,64d2fd46c836a06233681665,64dc7e19eb1304cbf1f75ced,,,,,,,ctch,resources/DY.BMP,resources/DR.BMP,Door1,-0.211805556,-0.0375,1,0,0,0.5818,optionLeft,30,14125,7,1,0,1,0,1,,,,,,,,,,,,,,,,,,,,,,,,,,,,,,,,,,,,,,,
,,,,,,,,2023-08-16_08h45.22.993,HF_wild_card,2022.2.4,Win32,120.860527,60967660853e8fcaf410748b,64d2fd46c836a06233681665,64dc7e19eb1304cbf1f75ced,,,,,,,decisionTrl,resources/DP.BMP,resources/DR.BMP,Door3,-0.306944444,-0.011805556,1,0,0,0.7324,optionLeft,70,14195,7,2,0,2,0,1,,,,,,,,,,,,,,,,,,,,,,,,,,,,,,,,,,,,,,,
,,,,,,,,2023-08-16_08h45.22.993,HF_wild_card,2022.2.4,Win32,120.860527,60967660853e8fcaf410748b,64d2fd46c836a06233681665,64dc7e19eb1304cbf1f75ced,,,,,,,ctch,resources/DP.BMP,resources/DBN.BMP,Door3,-0.252083333,-0.013194444,1,0,0,0.4263,optionLeft,70,14265,7,3,0,3,0,1,,,,,,,,,,,,,,,,,,,,,,,,,,,,,,,,,,,,,,,
,,,,,,,,2023-08-16_08h45.22.993,HF_wild_card,2022.2.4,Win32,120.860527,60967660853e8fcaf410748b,64d2fd46c836a06233681665,64dc7e19eb1304cbf1f75ced,,,,,,,decisionTrl,resources/DY.BMP,resources/DBN.BMP,Door1,-0.188888889,0.002777778,1,0,0,0.5393,optionLeft,30,14295,7,4,0,4,0,1,,,,,,,,,,,,,,,,,,,,,,,,,,,,,,,,,,,,,,,
,,,,,,,,2023-08-16_08h45.22.993,HF_wild_card,2022.2.4,Win32,120.860527,60967660853e8fcaf410748b,64d2fd46c836a06233681665,64dc7e19eb1304cbf1f75ced,,,,,,,decisionTrl,resources/DBN.BMP,resources/DY.BMP,Door1,0.3125,-0.011805556,1,0,0,0.5906,optionRight,30,14325,7,5,0,5,0,1,,,,,,,,,,,,,,,,,,,,,,,,,,,,,,,,,,,,,,,
,,,,,,,,2023-08-16_08h45.22.993,HF_wild_card,2022.2.4,Win32,120.860527,60967660853e8fcaf410748b,64d2fd46c836a06233681665,64dc7e19eb1304cbf1f75ced,,,,,,,decisionTrl,resources/DBN.BMP,resources/DY.BMP,Door1,0.209027778,0.00625,1,0,0,0.5774,optionRight,30,14355,7,6,0,6,0,1,,,,,,,,,,,,,,,,,,,,,,,,,,,,,,,,,,,,,,,
,,,,,,,,2023-08-16_08h45.22.993,HF_wild_card,2022.2.4,Win32,120.860527,60967660853e8fcaf410748b,64d2fd46c836a06233681665,64dc7e19eb1304cbf1f75ced,,,,,,,decisionTrl,resources/DP.BMP,resources/DR.BMP,Door3,-0.227777778,0.000694444,1,0,0,0.4142,optionLeft,70,14425,7,7,0,7,0,1,,,,,,,,,,,,,,,,,,,,,,,,,,,,,,,,,,,,,,,
,,,,,,,,2023-08-16_08h45.22.993,HF_wild_card,2022.2.4,Win32,120.860527,60967660853e8fcaf410748b,64d2fd46c836a06233681665,64dc7e19eb1304cbf1f75ced,,,,,,,ctch,resources/DP.BMP,resources/DBN.BMP,Door3,-0.172916667,0.000694444,1,0,0,0.399,optionLeft,70,14495,7,8,0,8,0,1,,,,,,,,,,,,,,,,,,,,,,,,,,,,,,,,,,,,,,,
,,,,,,,,2023-08-16_08h45.22.993,HF_wild_card,2022.2.4,Win32,120.860527,60967660853e8fcaf410748b,64d2fd46c836a06233681665,64dc7e19eb1304cbf1f75ced,,,,,,,decisionTrl,resources/DY.BMP,resources/DBN.BMP,Door1,-0.138888889,0.005555556,1,0,0,0.494,optionLeft,30,14525,7,9,0,9,0,1,,,,,,,,,,,,,,,,,,,,,,,,,,,,,,,,,,,,,,,
,,,,,,,,2023-08-16_08h45.22.993,HF_wild_card,2022.2.4,Win32,120.860527,60967660853e8fcaf410748b,64d2fd46c836a06233681665,64dc7e19eb1304cbf1f75ced,,,,,,,ctch,resources/DBN.BMP,resources/DP.BMP,Door3,0.330555556,-0.025694444,1,0,0,0.4317,optionRight,70,14595,7,10,0,10,0,1,,,,,,,,,,,,,,,,,,,,,,,,,,,,,,,,,,,,,,,
,,,,,,,,2023-08-16_08h45.22.993,HF_wild_card,2022.2.4,Win32,120.860527,60967660853e8fcaf410748b,64d2fd46c836a06233681665,64dc7e19eb1304cbf1f75ced,,,,,,,decisionTrl,resources/DR.BMP,resources/DP.BMP,Door3,0.295833333,-0.022222222,1,0,0,0.3696,optionRight,70,14665,7,11,0,11,0,1,,,,,,,,,,,,,,,,,,,,,,,,,,,,,,,,,,,,,,,
,,,,,,,,2023-08-16_08h45.22.993,HF_wild_card,2022.2.4,Win32,120.860527,60967660853e8fcaf410748b,64d2fd46c836a06233681665,64dc7e19eb1304cbf1f75ced,,,,,,,decisionTrl,resources/DY.BMP,resources/DBN.BMP,Door1,-0.210416667,0.011111111,1,0,0,0.4247,optionLeft,30,14695,7,12,0,12,0,1,,,,,,,,,,,,,,,,,,,,,,,,,,,,,,,,,,,,,,,
,,,,,,,,2023-08-16_08h45.22.993,HF_wild_card,2022.2.4,Win32,120.860527,60967660853e8fcaf410748b,64d2fd46c836a06233681665,64dc7e19eb1304cbf1f75ced,,,,,,,decisionTrl,resources/DBN.BMP,resources/DY.BMP,Door1,0.207638889,-0.013888889,1,0,0,0.4406,optionRight,30,14725,7,13,0,13,0,1,,,,,,,,,,,,,,,,,,,,,,,,,,,,,,,,,,,,,,,
,,,,,,,,2023-08-16_08h45.22.993,HF_wild_card,2022.2.4,Win32,120.860527,60967660853e8fcaf410748b,64d2fd46c836a06233681665,64dc7e19eb1304cbf1f75ced,,,,,,,ctch,resources/DBN.BMP,resources/DP.BMP,Door3,0.329166667,-0.022222222,1,0,0,0.4126,optionRight,70,14795,7,14,0,14,0,1,,,,,,,,,,,,,,,,,,,,,,,,,,,,,,,,,,,,,,,
,,,,,,,,2023-08-16_08h45.22.993,HF_wild_card,2022.2.4,Win32,120.860527,60967660853e8fcaf410748b,64d2fd46c836a06233681665,64dc7e19eb1304cbf1f75ced,,,,,,,decisionTrl,resources/DP.BMP,resources/DR.BMP,Door3,-0.208333333,0.025694444,1,0,0,0.5334,optionLeft,70,14865,7,15,0,15,0,1,,,,,,,,,,,,,,,,,,,,,,,,,,,,,,,,,,,,,,,
,,,,,,,,2023-08-16_08h45.22.993,HF_wild_card,2022.2.4,Win32,120.860527,60967660853e8fcaf410748b,64d2fd46c836a06233681665,64dc7e19eb1304cbf1f75ced,,,,,,,decisionTrl,resources/DR.BMP,resources/DP.BMP,Door3,0.363194444,-0.01875,1,0,0,0.3827,optionRight,70,14935,7,16,0,16,0,1,,,,,,,,,,,,,,,,,,,,,,,,,,,,,,,,,,,,,,,
,,,,,,,,2023-08-16_08h45.22.993,HF_wild_card,2022.2.4,Win32,120.860527,60967660853e8fcaf410748b,64d2fd46c836a06233681665,64dc7e19eb1304cbf1f75ced,,,,,,,decisionTrl,resources/DBN.BMP,resources/DY.BMP,Door1,0.269444444,0.000694444,1,0,0,0.6498,optionRight,30,14965,7,17,0,17,0,1,,,,,,,,,,,,,,,,,,,,,,,,,,,,,,,,,,,,,,,
,,,,,,,,2023-08-16_08h45.22.993,HF_wild_card,2022.2.4,Win32,120.860527,60967660853e8fcaf410748b,64d2fd46c836a06233681665,64dc7e19eb1304cbf1f75ced,,,,,,,ctch,resources/DY.BMP,resources/DR.BMP,Door1,-0.211805556,0.020833333,1,0,0,0.4412,optionLeft,30,14995,7,18,0,18,0,1,,,,,,,,,,,,,,,,,,,,,,,,,,,,,,,,,,,,,,,
,,,,,,,,2023-08-16_08h45.22.993,HF_wild_card,2022.2.4,Win32,120.860527,60967660853e8fcaf410748b,64d2fd46c836a06233681665,64dc7e19eb1304cbf1f75ced,,,,,,,decisionTrl,resources/DR.BMP,resources/DP.BMP,Door3,0.304166667,-0.019444444,1,0,0,0.4992,optionRight,70,15065,7,19,0,19,0,1,,,,,,,,,,,,,,,,,,,,,,,,,,,,,,,,,,,,,,,
,,,,,,,,2023-08-16_08h45.22.993,HF_wild_card,2022.2.4,Win32,120.860527,60967660853e8fcaf410748b,64d2fd46c836a06233681665,64dc7e19eb1304cbf1f75ced,,,,,,,decisionTrl,resources/DP.BMP,resources/DR.BMP,Door3,-0.169444444,0.020138889,1,0,0,0.4911,optionLeft,70,15135,7,20,0,20,0,1,,,,,,,,,,,,,,,,,,,,,,,,,,,,,,,,,,,,,,,
,,,,,,,,2023-08-16_08h45.22.993,HF_wild_card,2022.2.4,Win32,120.860527,60967660853e8fcaf410748b,64d2fd46c836a06233681665,64dc7e19eb1304cbf1f75ced,,,,,,,decisionTrl,resources/DY.BMP,resources/DBN.BMP,Door1,-0.230555556,0.022222222,1,0,0,0.4658,optionLeft,30,15165,7,21,0,21,0,1,,,,,,,,,,,,,,,,,,,,,,,,,,,,,,,,,,,,,,,
,,,,,,,,2023-08-16_08h45.22.993,HF_wild_card,2022.2.4,Win32,120.860527,60967660853e8fcaf410748b,64d2fd46c836a06233681665,64dc7e19eb1304cbf1f75ced,,,,,,,ctch,resources/DBN.BMP,resources/DP.BMP,Door3,0.259722222,-0.019444444,1,0,0,0.4658,optionRight,70,15235,7,22,0,22,0,1,,,,,,,,,,,,,,,,,,,,,,,,,,,,,,,,,,,,,,,
,,,,,,,,2023-08-16_08h45.22.993,HF_wild_card,2022.2.4,Win32,120.860527,60967660853e8fcaf410748b,64d2fd46c836a06233681665,64dc7e19eb1304cbf1f75ced,,,,,,,decisionTrl,resources/DR.BMP,resources/DP.BMP,Door3,0.299305556,-0.020833333,1,0,0,0.6577,optionRight,70,15305,7,23,0,23,0,1,,,,,,,,,,,,,,,,,,,,,,,,,,,,,,,,,,,,,,,
,,,,,,,,2023-08-16_08h45.22.993,HF_wild_card,2022.2.4,Win32,120.860527,60967660853e8fcaf410748b,64d2fd46c836a06233681665,64dc7e19eb1304cbf1f75ced,,,,,,,decisionTrl,resources/DBN.BMP,resources/DY.BMP,Door1,0.253472222,-0.011111111,1,0,0,0.5991,optionRight,30,15335,7,24,0,24,0,1,,,,,,,,,,,,,,,,,,,,,,,,,,,,,,,,,,,,,,,
,,,,,,,,2023-08-16_08h45.22.993,HF_wild_card,2022.2.4,Win32,120.860527,60967660853e8fcaf410748b,64d2fd46c836a06233681665,64dc7e19eb1304cbf1f75ced,,,,,,,ctch,resources/DP.BMP,resources/DBN.BMP,Door3,-0.190972222,0.022916667,1,0,0,0.4901,optionLeft,70,15405,7,25,0,25,0,1,,,,,,,,,,,,,,,,,,,,,,,,,,,,,,,,,,,,,,,
,,,,,,,,2023-08-16_08h45.22.993,HF_wild_card,2022.2.4,Win32,120.860527,60967660853e8fcaf410748b,64d2fd46c836a06233681665,64dc7e19eb1304cbf1f75ced,,,,,,,decisionTrl,resources/DR.BMP,resources/DP.BMP,Door3,0.210416667,-0.013194444,1,0,0,0.4743,optionRight,70,15475,7,26,0,26,0,1,,,,,,,,,,,,,,,,,,,,,,,,,,,,,,,,,,,,,,,
,,,,,,,,2023-08-16_08h45.22.993,HF_wild_card,2022.2.4,Win32,120.860527,60967660853e8fcaf410748b,64d2fd46c836a06233681665,64dc7e19eb1304cbf1f75ced,,,,,,,ctch,resources/DR.BMP,resources/DY.BMP,Door4,-0.157638889,0.018055556,1,0,0,0.4155,optionLeft,80,15555,7,27,0,27,0,1,,,,,,,,,,,,,,,,,,,,,,,,,,,,,,,,,,,,,,,
,,,,,,,,2023-08-16_08h45.22.993,HF_wild_card,2022.2.4,Win32,120.860527,60967660853e8fcaf410748b,64d2fd46c836a06233681665,64dc7e19eb1304cbf1f75ced,,,,,,,decisionTrl,resources/DY.BMP,resources/DBN.BMP,Door1,-0.172222222,0.023611111,1,0,0,0.4661,optionLeft,30,15585,7,28,0,28,0,1,,,,,,,,,,,,,,,,,,,,,,,,,,,,,,,,,,,,,,,
,,,,,,,,2023-08-16_08h45.22.993,HF_wild_card,2022.2.4,Win32,120.860527,60967660853e8fcaf410748b,64d2fd46c836a06233681665,64dc7e19eb1304cbf1f75ced,,,,,,,ctch,resources/DR.BMP,resources/DY.BMP,Door4,-0.23125,0.020833333,1,0,0,0.9078,optionLeft,60,15645,7,29,0,29,0,1,,,,,,,,,,,,,,,,,,,,,,,,,,,,,,,,,,,,,,,
,,,,,,,,2023-08-16_08h45.22.993,HF_wild_card,2022.2.4,Win32,120.860527,60967660853e8fcaf410748b,64d2fd46c836a06233681665,64dc7e19eb1304cbf1f75ced,,,,,,,ctch,resources/DY.BMP,resources/DR.BMP,Door4,0.211111111,0,1,0,0,0.9659,optionRight,60,15705,7,30,0,30,0,1,,,,,,,,,,,,,,,,,,,,,,,,,,,,,,,,,,,,,,,
,,,,,,,,2023-08-16_08h45.22.993,HF_wild_card,2022.2.4,Win32,120.860527,60967660853e8fcaf410748b,64d2fd46c836a06233681665,64dc7e19eb1304cbf1f75ced,,,,,,,decisionTrl,resources/DP.BMP,resources/DR.BMP,Door3,-0.270833333,0.029166667,1,0,0,0.6912,optionLeft,70,15775,7,31,0,31,0,1,,,,,,,,,,,,,,,,,,,,,,,,,,,,,,,,,,,,,,,
,,,,,,,,2023-08-16_08h45.22.993,HF_wild_card,2022.2.4,Win32,120.860527,60967660853e8fcaf410748b,64d2fd46c836a06233681665,64dc7e19eb1304cbf1f75ced,,,,,,,decisionTrl,resources/DR.BMP,resources/DP.BMP,Door3,0.23125,-0.006944444,1,0,0,0.4166,optionRight,70,15845,7,32,0,32,0,1,,,,,,,,,,,,,,,,,,,,,,,,,,,,,,,,,,,,,,,
,,,,,,,,2023-08-16_08h45.22.993,HF_wild_card,2022.2.4,Win32,120.860527,60967660853e8fcaf410748b,64d2fd46c836a06233681665,64dc7e19eb1304cbf1f75ced,,,,,,,decisionTrl,resources/DBN.BMP,resources/DY.BMP,Door1,0.231944444,-0.010416667,1,0,0,0.7157,optionRight,30,15875,7,33,0,33,0,1,,,,,,,,,,,,,,,,,,,,,,,,,,,,,,,,,,,,,,,
,,,,,,,,2023-08-16_08h45.22.993,HF_wild_card,2022.2.4,Win32,120.860527,60967660853e8fcaf410748b,64d2fd46c836a06233681665,64dc7e19eb1304cbf1f75ced,,,,,,,decisionTrl,resources/DP.BMP,resources/DR.BMP,Door3,-0.197916667,0.018055556,1,0,0,1.0237,optionLeft,70,15945,7,34,0,34,0,1,,,,,,,,,,,,,,,,,,,,,,,,,,,,,,,,,,,,,,,
,,,,,,,,2023-08-16_08h45.22.993,HF_wild_card,2022.2.4,Win32,120.860527,60967660853e8fcaf410748b,64d2fd46c836a06233681665,64dc7e19eb1304cbf1f75ced,,,,,,,ctch,resources/DR.BMP,resources/DY.BMP,Door4,-0.260416667,0.004166667,1,0,0,1.9245,optionLeft,60,16005,7,35,0,35,0,1,,,,,,,,,,,,,,,,,,,,,,,,,,,,,,,,,,,,,,,
,,,,,,,,2023-08-16_08h45.22.993,HF_wild_card,2022.2.4,Win32,120.860527,60967660853e8fcaf410748b,64d2fd46c836a06233681665,64dc7e19eb1304cbf1f75ced,,,,,,,,,,,,,,,,,,,,,,,,,,6,0,6,0,1,,,,,,,,,,,,,,,,,,,,,,,,,,,,,,,,,,
,,,,,,,,2023-08-16_08h45.22.993,HF_wild_card,2022.2.4,Win32,120.860527,60967660853e8fcaf410748b,64d2fd46c836a06233681665,64dc7e19eb1304cbf1f75ced,,,,,,,,,,,,,,,,,,,,,,,,,,,,,,,4,,,,,,,,,,,,,,,,,,,,,,,,,,,,,,,,,
,,,,,,,,2023-08-16_08h45.22.993,HF_wild_card,2022.2.4,Win32,120.860527,60967660853e8fcaf410748b,64d2fd46c836a06233681665,64dc7e19eb1304cbf1f75ced,,,,,,,,,,,,,,,,,,,,,,,,,,,,,,,,,,,,,,,,,,,,,,,,,,,,,,,,,,,,,,,,
,,,,,,,,2023-08-16_08h45.22.993,HF_wild_card,2022.2.4,Win32,120.860527,60967660853e8fcaf410748b,64d2fd46c836a06233681665,64dc7e19eb1304cbf1f75ced,,,,,,,,,,,,,,,,,,,,,,,,,,,,,,,,30,Door1,resources/DY.BMP,0,0,0,0,1,,,,,,,,,,,,,,,,,,,,,,,,,
,,,,,,,,2023-08-16_08h45.22.993,HF_wild_card,2022.2.4,Win32,120.860527,60967660853e8fcaf410748b,64d2fd46c836a06233681665,64dc7e19eb1304cbf1f75ced,,,,,,,,,,,,,,,,,,,,,,,,,,,,,,,,70,Door3,resources/DP.BMP,1,0,1,0,1,,,,,,,,,,,,,,,,,,,,,,,,,
,,,,,,,,2023-08-16_08h45.22.993,HF_wild_card,2022.2.4,Win32,120.860527,60967660853e8fcaf410748b,64d2fd46c836a06233681665,64dc7e19eb1304cbf1f75ced,,,,,,,,,,,,,,,,,,,,,,,,,,,,,,,,20,Door2,resources/DBN.BMP,2,0,2,0,1,,,,,,,,,,,,,,,,,,,,,,,,,
,,,,,,,,2023-08-16_08h45.22.993,HF_wild_card,2022.2.4,Win32,120.860527,60967660853e8fcaf410748b,64d2fd46c836a06233681665,64dc7e19eb1304cbf1f75ced,,,,,,,,,,,,,,,,,,,,,,,,,,,,,,,,95,WC_extreme,resources/DB.BMP,3,0,3,0,1,,,,,,,,,,,,,,,,,,,,,,,,,
,,,,,,,,2023-08-16_08h45.22.993,HF_wild_card,2022.2.4,Win32,120.860527,60967660853e8fcaf410748b,64d2fd46c836a06233681665,64dc7e19eb1304cbf1f75ced,,,,,,,,,,,,,,,,,,,,,,,,,,,,,,,,35,WC_nonExtreme,resources/DG.BMP,4,0,4,0,1,,,,,,,,,,,,,,,,,,,,,,,,,
,,,,,,,,2023-08-16_08h45.22.993,HF_wild_card,2022.2.4,Win32,120.860527,60967660853e8fcaf410748b,64d2fd46c836a06233681665,64dc7e19eb1304cbf1f75ced,,,,,,,,,,,,,,,,,,,,,,,,,,,,,,,,80,Door4,resources/DR.BMP,5,0,5,0,1,,,,,,,,,,,,,,,,,,,,,,,,,
,,,,,,,,2023-08-16_08h45.22.993,HF_wild_card,2022.2.4,Win32,120.860527,60967660853e8fcaf410748b,64d2fd46c836a06233681665,64dc7e19eb1304cbf1f75ced,,,,,,,,,,,,,,,,,,,,,,,,,,,,,,,,,,,,,,,,,,,,,,,,,,,,,,,,,,,,,,,,
,,,,,,,,2023-08-16_08h45.22.993,HF_wild_card,2022.2.4,Win32,120.860527,60967660853e8fcaf410748b,64d2fd46c836a06233681665,64dc7e19eb1304cbf1f75ced,,,,,,,,,,,,,,,,,,,,,,,,,,,,,,,,,,,,,,,,0,0,0,0,1,,,,,,,,,,,,,,,,,,,,
,,,,,,,,2023-08-16_08h45.22.993,HF_wild_card,2022.2.4,Win32,120.860527,60967660853e8fcaf410748b,64d2fd46c836a06233681665,64dc7e19eb1304cbf1f75ced,,,,,,,,,,,,,,,,,,,,,,,,,,,,,,,,,,,,,,,,1,0,1,0,1,,,,,,,,,,,,,,,,,,,,
