Condition,Low fixed image (Door1),Low risky image (Door2),High fixed image (Door3),High risky image (Door4),NonExtreme Wild Card 1,NonExtreme Wild Card 2,,date,expName,psychopyVersion,OS,frameRate,PROLIFIC_PID,STUDY_ID,SESSION_ID,mouse_2.x,mouse_2.y,mouse_2.leftButton,mouse_2.midButton,mouse_2.rightButton,mouse_2.clicked_name,Trial Type,Left Option Image,Right Option Image,Chosen Door,mouse.x,mouse.y,mouse.leftButton,mouse.midButton,mouse.rightButton,mouse.time,mouse.clicked_name,Feedback,Cumulative Reward,Block,trial.thisRepN,trial.thisTrialN,trial.thisN,trial.thisIndex,trial.ran
2,resources/DB.BMP,resources/DBN.BMP,resources/DP.BMP,resources/DR.BMP,resources/DG.BMP,resources/DY.BMP,,2023-08-16_08h49.35,HF_wild_card,2022.2.4,MacIntel,76.92307692,5e57d38b533eec1818078f0b,64d2fd46c836a06233681665,64dc7f7eb1391b64cee1fcb4,,,,,,,,,,,,,,,,,,,,,,,,,
,,,,,,,,2023-08-16_08h49.35,HF_wild_card,2022.2.4,MacIntel,76.92307692,5e57d38b533eec1818078f0b,64d2fd46c836a06233681665,64dc7f7eb1391b64cee1fcb4,-0.02875,-0.40875,1,0,0,agree,,,,,,,,,,,,,,,,,,,
,,,,,,,,2023-08-16_08h49.35,HF_wild_card,2022.2.4,MacIntel,76.92307692,5e57d38b533eec1818078f0b,64d2fd46c836a06233681665,64dc7f7eb1391b64cee1fcb4,,,,,,,,,,,,,,,,,,,,,,,,,
,,,,,,,,2023-08-16_08h49.35,HF_wild_card,2022.2.4,MacIntel,76.92307692,5e57d38b533eec1818078f0b,64d2fd46c836a06233681665,64dc7f7eb1391b64cee1fcb4,,,,,,,sngl,resources/DR.BMP,resources/Empty.png,Door4,-0.3925,-0.075,1,0,0,2.43,optionLeft,80,80,1,0,0,0,0,1
,,,,,,,,2023-08-16_08h49.35,HF_wild_card,2022.2.4,MacIntel,76.92307692,5e57d38b533eec1818078f0b,64d2fd46c836a06233681665,64dc7f7eb1391b64cee1fcb4,,,,,,,sngl,resources/Empty.png,resources/DBN.BMP,Door2,0.38375,0.0425,1,0,0,7.743,optionRight,20,100,1,1,0,1,0,1
,,,,,,,,2023-08-16_08h49.35,HF_wild_card,2022.2.4,MacIntel,76.92307692,5e57d38b533eec1818078f0b,64d2fd46c836a06233681665,64dc7f7eb1391b64cee1fcb4,,,,,,,sngl,resources/DY.BMP,resources/Empty.png,WildCard_NonEx,-0.39625,-0.0125,1,0,0,2.153,optionLeft,55,155,1,2,0,2,0,1
,,,,,,,,2023-08-16_08h49.35,HF_wild_card,2022.2.4,MacIntel,76.92307692,5e57d38b533eec1818078f0b,64d2fd46c836a06233681665,64dc7f7eb1391b64cee1fcb4,,,,,,,decisionTrl,resources/DB.BMP,resources/DBN.BMP,Door1,-0.4275,-0.08125,1,0,0,3.776,optionLeft,30,185,1,3,0,3,0,1
,,,,,,,,2023-08-16_08h49.35,HF_wild_card,2022.2.4,MacIntel,76.92307692,5e57d38b533eec1818078f0b,64d2fd46c836a06233681665,64dc7f7eb1391b64cee1fcb4,,,,,,,sngl,resources/Empty.png,resources/DY.BMP,WildCard_NonEx,0.355,-0.035,1,0,0,1.184,optionRight,55,240,1,4,0,4,0,1
,,,,,,,,2023-08-16_08h49.35,HF_wild_card,2022.2.4,MacIntel,76.92307692,5e57d38b533eec1818078f0b,64d2fd46c836a06233681665,64dc7f7eb1391b64cee1fcb4,,,,,,,ctch,resources/DBN.BMP,resources/DP.BMP,Door3,0.34375,-0.08125,1,0,0,1.82,optionRight,70,310,1,5,0,5,0,1
,,,,,,,,2023-08-16_08h49.35,HF_wild_card,2022.2.4,MacIntel,76.92307692,5e57d38b533eec1818078f0b,64d2fd46c836a06233681665,64dc7f7eb1391b64cee1fcb4,,,,,,,decisionTrl,resources/DY.BMP,resources/DB.BMP,Door1,0.33125,-0.04625,1,0,0,1.629,optionRight,30,340,1,6,0,6,0,1
,,,,,,,,2023-08-16_08h49.35,HF_wild_card,2022.2.4,MacIntel,76.92307692,5e57d38b533eec1818078f0b,64d2fd46c836a06233681665,64dc7f7eb1391b64cee1fcb4,,,,,,,decisionTrl,resources/DB.BMP,resources/DBN.BMP,Door1,-0.33125,0.01375,1,0,0,1.576,optionLeft,30,370,1,7,0,7,0,1
,,,,,,,,2023-08-16_08h49.35,HF_wild_card,2022.2.4,MacIntel,76.92307692,5e57d38b533eec1818078f0b,64d2fd46c836a06233681665,64dc7f7eb1391b64cee1fcb4,,,,,,,decisionTrl,resources/DR.BMP,resources/DP.BMP,Door3,0.31375,-0.02375,1,0,0,1.682,optionRight,70,440,1,8,0,8,0,1
,,,,,,,,2023-08-16_08h49.35,HF_wild_card,2022.2.4,MacIntel,76.92307692,5e57d38b533eec1818078f0b,64d2fd46c836a06233681665,64dc7f7eb1391b64cee1fcb4,,,,,,,sngl,resources/Empty.png,resources/DY.BMP,WildCard_NonEx,0.3375,-0.04375,1,0,0,1.113,optionRight,45,485,1,9,0,9,0,1
,,,,,,,,2023-08-16_08h49.35,HF_wild_card,2022.2.4,MacIntel,76.92307692,5e57d38b533eec1818078f0b,64d2fd46c836a06233681665,64dc7f7eb1391b64cee1fcb4,,,,,,,decisionTrl,resources/DP.BMP,resources/DR.BMP,Door3,-0.35125,-0.0275,1,0,0,1.593,optionLeft,70,555,1,10,0,10,0,1
,,,,,,,,2023-08-16_08h49.35,HF_wild_card,2022.2.4,MacIntel,76.92307692,5e57d38b533eec1818078f0b,64d2fd46c836a06233681665,64dc7f7eb1391b64cee1fcb4,,,,,,,ctch,resources/DP.BMP,resources/DBN.BMP,Door3,-0.44125,-0.0225,1,0,0,1.134,optionLeft,70,625,1,11,0,11,0,1
,,,,,,,,2023-08-16_08h49.35,HF_wild_card,2022.2.4,MacIntel,76.92307692,5e57d38b533eec1818078f0b,64d2fd46c836a06233681665,64dc7f7eb1391b64cee1fcb4,,,,,,,sngl,resources/DY.BMP,resources/Empty.png,WildCard_NonEx,-0.375,-0.11375,1,0,0,1.776,optionLeft,45,670,1,12,0,12,0,1
,,,,,,,,2023-08-16_08h49.35,HF_wild_card,2022.2.4,MacIntel,76.92307692,5e57d38b533eec1818078f0b,64d2fd46c836a06233681665,64dc7f7eb1391b64cee1fcb4,,,,,,,decisionTrl,resources/DP.BMP,resources/DY.BMP,Door3,-0.40125,-0.0675,1,0,0,0.969,optionLeft,70,740,1,13,0,13,0,1
,,,,,,,,2023-08-16_08h49.35,HF_wild_card,2022.2.4,MacIntel,76.92307692,5e57d38b533eec1818078f0b,64d2fd46c836a06233681665,64dc7f7eb1391b64cee1fcb4,,,,,,,sngl,resources/Empty.png,resources/DP.BMP,Door3,0.405,-0.08375,1,0,0,1.366,optionRight,70,810,1,14,0,14,0,1
,,,,,,,,2023-08-16_08h49.35,HF_wild_card,2022.2.4,MacIntel,76.92307692,5e57d38b533eec1818078f0b,64d2fd46c836a06233681665,64dc7f7eb1391b64cee1fcb4,,,,,,,ctch,resources/DR.BMP,resources/DB.BMP,Door4,-0.36125,-0.07,1,0,0,2.346,optionLeft,60,870,1,15,0,15,0,1
,,,,,,,,2023-08-16_08h49.35,HF_wild_card,2022.2.4,MacIntel,76.92307692,5e57d38b533eec1818078f0b,64d2fd46c836a06233681665,64dc7f7eb1391b64cee1fcb4,,,,,,,decisionTrl,resources/DP.BMP,resources/DR.BMP,Door3,-0.36125,-0.05875,1,0,0,1.854,optionLeft,70,940,1,16,0,16,0,1
,,,,,,,,2023-08-16_08h49.35,HF_wild_card,2022.2.4,MacIntel,76.92307692,5e57d38b533eec1818078f0b,64d2fd46c836a06233681665,64dc7f7eb1391b64cee1fcb4,,,,,,,sngl,resources/Empty.png,resources/DB.BMP,Door1,0.3725,-0.13,1,0,0,1.164,optionRight,30,970,1,17,0,17,0,1
,,,,,,,,2023-08-16_08h49.35,HF_wild_card,2022.2.4,MacIntel,76.92307692,5e57d38b533eec1818078f0b,64d2fd46c836a06233681665,64dc7f7eb1391b64cee1fcb4,,,,,,,decisionTrl,resources/DR.BMP,resources/DP.BMP,Door3,0.36875,-0.03,1,0,0,1.267,optionRight,70,1040,1,18,0,18,0,1
,,,,,,,,2023-08-16_08h49.35,HF_wild_card,2022.2.4,MacIntel,76.92307692,5e57d38b533eec1818078f0b,64d2fd46c836a06233681665,64dc7f7eb1391b64cee1fcb4,,,,,,,ctch,resources/DR.BMP,resources/DB.BMP,Door4,-0.41625,0,1,0,0,1.956,optionLeft,60,1100,1,19,0,19,0,1
,,,,,,,,2023-08-16_08h49.35,HF_wild_card,2022.2.4,MacIntel,76.92307692,5e57d38b533eec1818078f0b,64d2fd46c836a06233681665,64dc7f7eb1391b64cee1fcb4,,,,,,,decisionTrl,resources/DB.BMP,resources/DY.BMP,Door1,-0.39625,-0.09375,1,0,0,2.86,optionLeft,30,1130,1,20,0,20,0,1
,,,,,,,,2023-08-16_08h49.35,HF_wild_card,2022.2.4,MacIntel,76.92307692,5e57d38b533eec1818078f0b,64d2fd46c836a06233681665,64dc7f7eb1391b64cee1fcb4,,,,,,,decisionTrl,resources/DBN.BMP,resources/DB.BMP,Door1,0.4025,-0.10125,1,0,0,1.582,optionRight,30,1160,1,21,0,21,0,1
,,,,,,,,2023-08-16_08h49.35,HF_wild_card,2022.2.4,MacIntel,76.92307692,5e57d38b533eec1818078f0b,64d2fd46c836a06233681665,64dc7f7eb1391b64cee1fcb4,,,,,,,decisionTrl,resources/DBN.BMP,resources/DB.BMP,Door1,0.35375,-0.10875,1,0,0,1.374,optionRight,30,1190,1,22,0,22,0,1
,,,,,,,,2023-08-16_08h49.35,HF_wild_card,2022.2.4,MacIntel,76.92307692,5e57d38b533eec1818078f0b,64d2fd46c836a06233681665,64dc7f7eb1391b64cee1fcb4,,,,,,,decisionTrl,resources/DP.BMP,resources/DR.BMP,Door3,-0.37875,-0.0425,1,0,0,1.357,optionLeft,70,1260,1,23,0,23,0,1
,,,,,,,,2023-08-16_08h49.35,HF_wild_card,2022.2.4,MacIntel,76.92307692,5e57d38b533eec1818078f0b,64d2fd46c836a06233681665,64dc7f7eb1391b64cee1fcb4,,,,,,,ctch,resources/DBN.BMP,resources/DP.BMP,Door3,0.4175,-0.145,1,0,0,1.135,optionRight,70,1330,1,24,0,24,0,1
,,,,,,,,2023-08-16_08h49.35,HF_wild_card,2022.2.4,MacIntel,76.92307692,5e57d38b533eec1818078f0b,64d2fd46c836a06233681665,64dc7f7eb1391b64cee1fcb4,,,,,,,sngl,resources/DP.BMP,resources/Empty.png,Door3,-0.43125,-0.085,1,0,0,1.146,optionLeft,70,1400,1,25,0,25,0,1
,,,,,,,,2023-08-16_08h49.35,HF_wild_card,2022.2.4,MacIntel,76.92307692,5e57d38b533eec1818078f0b,64d2fd46c836a06233681665,64dc7f7eb1391b64cee1fcb4,,,,,,,decisionTrl,resources/DY.BMP,resources/DR.BMP,WildCard_NonEx,-0.31875,-0.0725,1,0,0,2.209,optionLeft,45,1445,1,26,0,26,0,1
,,,,,,,,2023-08-16_08h49.35,HF_wild_card,2022.2.4,MacIntel,76.92307692,5e57d38b533eec1818078f0b,64d2fd46c836a06233681665,64dc7f7eb1391b64cee1fcb4,,,,,,,decisionTrl,resources/DR.BMP,resources/DP.BMP,Door3,0.36625,-0.075,1,0,0,1.113,optionRight,70,1515,1,27,0,27,0,1
,,,,,,,,2023-08-16_08h49.35,HF_wild_card,2022.2.4,MacIntel,76.92307692,5e57d38b533eec1818078f0b,64d2fd46c836a06233681665,64dc7f7eb1391b64cee1fcb4,,,,,,,sngl,resources/DBN.BMP,resources/Empty.png,Door2,-0.365,-0.01125,1,0,0,1.952,optionLeft,40,1555,1,28,0,28,0,1
,,,,,,,,2023-08-16_08h49.35,HF_wild_card,2022.2.4,MacIntel,76.92307692,5e57d38b533eec1818078f0b,64d2fd46c836a06233681665,64dc7f7eb1391b64cee1fcb4,,,,,,,decisionTrl,resources/DR.BMP,resources/DY.BMP,WildCard_NonEx,0.345,-0.06375,1,0,0,4.851,optionRight,45,1600,1,29,0,29,0,1
,,,,,,,,2023-08-16_08h49.35,HF_wild_card,2022.2.4,MacIntel,76.92307692,5e57d38b533eec1818078f0b,64d2fd46c836a06233681665,64dc7f7eb1391b64cee1fcb4,,,,,,,decisionTrl,resources/DY.BMP,resources/DBN.BMP,WildCard_NonEx,-0.34875,-0.01375,1,0,0,0.996,optionLeft,45,1645,1,30,0,30,0,1
,,,,,,,,2023-08-16_08h49.35,HF_wild_card,2022.2.4,MacIntel,76.92307692,5e57d38b533eec1818078f0b,64d2fd46c836a06233681665,64dc7f7eb1391b64cee1fcb4,,,,,,,decisionTrl,resources/DBN.BMP,resources/DB.BMP,Door1,0.28875,0.0125,1,0,0,1.927,optionRight,30,1675,1,31,0,31,0,1
,,,,,,,,2023-08-16_08h49.35,HF_wild_card,2022.2.4,MacIntel,76.92307692,5e57d38b533eec1818078f0b,64d2fd46c836a06233681665,64dc7f7eb1391b64cee1fcb4,,,,,,,decisionTrl,resources/DR.BMP,resources/DP.BMP,Door3,0.31,-0.01,1,0,0,1.296,optionRight,70,1745,1,32,0,32,0,1
,,,,,,,,2023-08-16_08h49.35,HF_wild_card,2022.2.4,MacIntel,76.92307692,5e57d38b533eec1818078f0b,64d2fd46c836a06233681665,64dc7f7eb1391b64cee1fcb4,,,,,,,ctch,resources/DB.BMP,resources/DR.BMP,Door4,0.35375,0.0125,1,0,0,3.309,optionRight,60,1805,1,33,0,33,0,1
,,,,,,,,2023-08-16_08h49.35,HF_wild_card,2022.2.4,MacIntel,76.92307692,5e57d38b533eec1818078f0b,64d2fd46c836a06233681665,64dc7f7eb1391b64cee1fcb4,,,,,,,decisionTrl,resources/DBN.BMP,resources/DB.BMP,Door1,0.36375,-0.0325,1,0,0,1.081,optionRight,30,1835,1,34,0,34,0,1
,,,,,,,,2023-08-16_08h49.35,HF_wild_card,2022.2.4,MacIntel,76.92307692,5e57d38b533eec1818078f0b,64d2fd46c836a06233681665,64dc7f7eb1391b64cee1fcb4,,,,,,,decisionTrl,resources/DB.BMP,resources/DBN.BMP,Door1,-0.3875,-0.0075,1,0,0,1.534,optionLeft,30,1865,1,35,0,35,0,1
,,,,,,,,2023-08-16_08h49.35,HF_wild_card,2022.2.4,MacIntel,76.92307692,5e57d38b533eec1818078f0b,64d2fd46c836a06233681665,64dc7f7eb1391b64cee1fcb4,,,,,,,decisionTrl,resources/DB.BMP,resources/DBN.BMP,Door2,0.37125,0.04,1,0,0,1.638,optionRight,20,1885,1,36,0,36,0,1
,,,,,,,,2023-08-16_08h49.35,HF_wild_card,2022.2.4,MacIntel,76.92307692,5e57d38b533eec1818078f0b,64d2fd46c836a06233681665,64dc7f7eb1391b64cee1fcb4,,,,,,,decisionTrl,resources/DY.BMP,resources/DP.BMP,Door3,0.3575,-0.09875,1,0,0,2.596,optionRight,70,1955,1,37,0,37,0,1
,,,,,,,,2023-08-16_08h49.35,HF_wild_card,2022.2.4,MacIntel,76.92307692,5e57d38b533eec1818078f0b,64d2fd46c836a06233681665,64dc7f7eb1391b64cee1fcb4,,,,,,,sngl,resources/Empty.png,resources/DR.BMP,Door4,0.3675,-0.045,1,0,0,0.745,optionRight,60,2015,1,38,0,38,0,1
,,,,,,,,2023-08-16_08h49.35,HF_wild_card,2022.2.4,MacIntel,76.92307692,5e57d38b533eec1818078f0b,64d2fd46c836a06233681665,64dc7f7eb1391b64cee1fcb4,,,,,,,sngl,resources/DB.BMP,resources/Empty.png,Door1,-0.325,0.04125,1,0,0,1.363,optionLeft,30,2045,1,39,0,39,0,1
,,,,,,,,2023-08-16_08h49.35,HF_wild_card,2022.2.4,MacIntel,76.92307692,5e57d38b533eec1818078f0b,64d2fd46c836a06233681665,64dc7f7eb1391b64cee1fcb4,,,,,,,decisionTrl,resources/DBN.BMP,resources/DY.BMP,WildCard_NonEx,0.31,-0.0475,1,0,0,1.213,optionRight,45,2090,1,40,0,40,0,1
,,,,,,,,2023-08-16_08h49.35,HF_wild_card,2022.2.4,MacIntel,76.92307692,5e57d38b533eec1818078f0b,64d2fd46c836a06233681665,64dc7f7eb1391b64cee1fcb4,,,,,,,ctch,resources/DP.BMP,resources/DBN.BMP,Door3,-0.39375,-0.0875,1,0,0,1.617,optionLeft,70,2160,1,41,0,41,0,1
,,,,,,,,2023-08-16_08h49.35,HF_wild_card,2022.2.4,MacIntel,76.92307692,5e57d38b533eec1818078f0b,64d2fd46c836a06233681665,64dc7f7eb1391b64cee1fcb4,,,,,,,decisionTrl,resources/DP.BMP,resources/DR.BMP,Door3,-0.4025,-0.08375,1,0,0,4.711,optionLeft,70,2230,1,42,0,42,0,1
,,,,,,,,2023-08-16_08h49.35,HF_wild_card,2022.2.4,MacIntel,76.92307692,5e57d38b533eec1818078f0b,64d2fd46c836a06233681665,64dc7f7eb1391b64cee1fcb4,,,,,,,ctch,resources/DB.BMP,resources/DR.BMP,Door4,0.27,-0.00375,1,0,0,1.722,optionRight,80,2310,1,43,0,43,0,1
