Condition,Low fixed image (Door1),Low risky image (Door2),High fixed image (Door3),High risky image (Door4),Extreme Wild Card,NonExtreme Wild Card,,date,expName,psychopyVersion,OS,frameRate,PROLIFIC_PID,STUDY_ID,SESSION_ID,mouse_2.x,mouse_2.y,mouse_2.leftButton,mouse_2.midButton,mouse_2.rightButton,mouse_2.clicked_name,Trial Type,Left Option Image,Right Option Image,Chosen Door,mouse.x,mouse.y,mouse.leftButton,mouse.midButton,mouse.rightButton,mouse.time,mouse.clicked_name,Feedback,Cumulative Reward,Block,trial.thisRepN,trial.thisTrialN,trial.thisN,trial.thisIndex,trial.ran,blocks.thisRepN,blocks.thisTrialN,blocks.thisN,blocks.thisIndex,blocks.ran,Money conversion,First Outcome Reported,Shown Door (First Outcome),Displayed Image (First Outcome),outcomes.thisRepN,outcomes.thisTrialN,outcomes.thisN,outcomes.thisIndex,outcomes.ran,judgments.thisRepN,judgments.thisTrialN,judgments.thisN,judgments.thisIndex,judgments.ran,freqMouse.x,freqMouse.y,freqMouse.leftButton,freqMouse.midButton,freqMouse.rightButton,freqMouse.clicked_name,FQJ for first outcome,FQJ for second outcome,Shown Door,Displayed Image,trials.thisRepN,trials.thisTrialN,trials.thisN,trials.thisIndex,trials.ran,judgBlock.thisRepN,judgBlock.thisTrialN,judgBlock.thisN,judgBlock.thisIndex,judgBlock.ran
0,resources/DB.BMP,resources/DBN.BMP,resources/DG.BMP,resources/DP.BMP,resources/DY.BMP,resources/DR.BMP,,2023-08-24_08h15.56.371,HF_wild_card,2022.2.4,Win32,143.8228103,603ce90d158dc4ae761a15fa,64e63663dbcaf322d2eec8da,64e7039bb48d24a34a1af74a,,,,,,,,,,,,,,,,,,,,,,,,,,,,,,,,,,,,,,,,,,,,,,,,,,,,,,,,,,,,,,,,
,,,,,,,,2023-08-24_08h15.56.371,HF_wild_card,2022.2.4,Win32,143.8228103,603ce90d158dc4ae761a15fa,64e63663dbcaf322d2eec8da,64e7039bb48d24a34a1af74a,0.010834236,-0.426327194,1,0,0,agree,,,,,,,,,,,,,,,,,,,,,,,,,,,,,,,,,,,,,,,,,,,,,,,,,,,,,,,,,,
,,,,,,,,2023-08-24_08h15.56.371,HF_wild_card,2022.2.4,Win32,143.8228103,603ce90d158dc4ae761a15fa,64e63663dbcaf322d2eec8da,64e7039bb48d24a34a1af74a,,,,,,,,,,,,,,,,,,,,,,,,,,,,,,,,,,,,,,,,,,,,,,,,,,,,,,,,,,,,,,,,
,,,,,,,,2023-08-24_08h15.56.371,HF_wild_card,2022.2.4,Win32,143.8228103,603ce90d158dc4ae761a15fa,64e63663dbcaf322d2eec8da,64e7039bb48d24a34a1af74a,,,,,,,decisionTrl,resources/DB.BMP,resources/DBN.BMP,Door1,-0.332611051,-0.099133261,1,0,0,6.19,optionLeft,30,30,1,0,0,0,0,1,,,,,,,,,,,,,,,,,,,,,,,,,,,,,,,,,,,,,,,
,,,,,,,,2023-08-24_08h15.56.371,HF_wild_card,2022.2.4,Win32,143.8228103,603ce90d158dc4ae761a15fa,64e63663dbcaf322d2eec8da,64e7039bb48d24a34a1af74a,,,,,,,decisionTrl,resources/DY.BMP,resources/DBN.BMP,Door2,0.364030336,-0.088299025,1,0,0,4.7545,optionRight,20,50,1,1,0,1,0,1,,,,,,,,,,,,,,,,,,,,,,,,,,,,,,,,,,,,,,,
,,,,,,,,2023-08-24_08h15.56.371,HF_wild_card,2022.2.4,Win32,143.8228103,603ce90d158dc4ae761a15fa,64e63663dbcaf322d2eec8da,64e7039bb48d24a34a1af74a,,,,,,,decisionTrl,resources/DB.BMP,resources/DBN.BMP,Door1,-0.39219935,-0.04496208,1,0,0,1.9981,optionLeft,30,80,1,2,0,2,0,1,,,,,,,,,,,,,,,,,,,,,,,,,,,,,,,,,,,,,,,
,,,,,,,,2023-08-24_08h15.56.371,HF_wild_card,2022.2.4,Win32,143.8228103,603ce90d158dc4ae761a15fa,64e63663dbcaf322d2eec8da,64e7039bb48d24a34a1af74a,,,,,,,decisionTrl,resources/DG.BMP,resources/DP.BMP,Door4,0.358613218,-0.081798483,1,0,0,1.6024,optionRight,80,160,1,3,0,3,0,1,,,,,,,,,,,,,,,,,,,,,,,,,,,,,,,,,,,,,,,
,,,,,,,,2023-08-24_08h15.56.371,HF_wild_card,2022.2.4,Win32,143.8228103,603ce90d158dc4ae761a15fa,64e63663dbcaf322d2eec8da,64e7039bb48d24a34a1af74a,,,,,,,sngl,resources/Empty.png,resources/DP.BMP,Door4,0.338028169,-0.037378115,1,0,0,1.5191,optionRight,60,220,1,4,0,4,0,1,,,,,,,,,,,,,,,,,,,,,,,,,,,,,,,,,,,,,,,
,,,,,,,,2023-08-24_08h15.56.371,HF_wild_card,2022.2.4,Win32,143.8228103,603ce90d158dc4ae761a15fa,64e63663dbcaf322d2eec8da,64e7039bb48d24a34a1af74a,,,,,,,ctch,resources/DP.BMP,resources/DB.BMP,Door4,-0.334777898,0.034127844,1,0,0,1.4009,optionLeft,60,280,1,5,0,5,0,1,,,,,,,,,,,,,,,,,,,,,,,,,,,,,,,,,,,,,,,
,,,,,,,,2023-08-24_08h15.56.371,HF_wild_card,2022.2.4,Win32,143.8228103,603ce90d158dc4ae761a15fa,64e63663dbcaf322d2eec8da,64e7039bb48d24a34a1af74a,,,,,,,decisionTrl,resources/DBN.BMP,resources/DB.BMP,Door1,0.406283857,-0.035211268,1,0,0,1.3805,optionRight,30,310,1,6,0,6,0,1,,,,,,,,,,,,,,,,,,,,,,,,,,,,,,,,,,,,,,,
,,,,,,,,2023-08-24_08h15.56.371,HF_wild_card,2022.2.4,Win32,143.8228103,603ce90d158dc4ae761a15fa,64e63663dbcaf322d2eec8da,64e7039bb48d24a34a1af74a,,,,,,,sngl,resources/DG.BMP,resources/Empty.png,Door3,-0.23943662,0.024377031,1,0,0,1.29,optionLeft,70,380,1,7,0,7,0,1,,,,,,,,,,,,,,,,,,,,,,,,,,,,,,,,,,,,,,,
,,,,,,,,2023-08-24_08h15.56.371,HF_wild_card,2022.2.4,Win32,143.8228103,603ce90d158dc4ae761a15fa,64e63663dbcaf322d2eec8da,64e7039bb48d24a34a1af74a,,,,,,,ctch,resources/DBN.BMP,resources/DG.BMP,Door3,0.309859155,-0.037378115,1,0,0,0.8176,optionRight,70,450,1,8,0,8,0,1,,,,,,,,,,,,,,,,,,,,,,,,,,,,,,,,,,,,,,,
,,,,,,,,2023-08-24_08h15.56.371,HF_wild_card,2022.2.4,Win32,143.8228103,603ce90d158dc4ae761a15fa,64e63663dbcaf322d2eec8da,64e7039bb48d24a34a1af74a,,,,,,,sngl,resources/DY.BMP,resources/Empty.png,WildCard_Ex,-0.276273023,0.022210184,1,0,0,1.2689,optionLeft,5,455,1,9,0,9,0,1,,,,,,,,,,,,,,,,,,,,,,,,,,,,,,,,,,,,,,,
,,,,,,,,2023-08-24_08h15.56.371,HF_wild_card,2022.2.4,Win32,143.8228103,603ce90d158dc4ae761a15fa,64e63663dbcaf322d2eec8da,64e7039bb48d24a34a1af74a,,,,,,,sngl,resources/Empty.png,resources/DY.BMP,WildCard_Ex,0.22751896,-0.018959913,1,0,0,1.2627,optionRight,5,460,1,10,0,10,0,1,,,,,,,,,,,,,,,,,,,,,,,,,,,,,,,,,,,,,,,
,,,,,,,,2023-08-24_08h15.56.371,HF_wild_card,2022.2.4,Win32,143.8228103,603ce90d158dc4ae761a15fa,64e63663dbcaf322d2eec8da,64e7039bb48d24a34a1af74a,,,,,,,decisionTrl,resources/DP.BMP,resources/DG.BMP,Door4,-0.395449621,0.050379198,1,0,0,1.0539,optionLeft,80,540,1,11,0,11,0,1,,,,,,,,,,,,,,,,,,,,,,,,,,,,,,,,,,,,,,,
,,,,,,,,2023-08-24_08h15.56.371,HF_wild_card,2022.2.4,Win32,143.8228103,603ce90d158dc4ae761a15fa,64e63663dbcaf322d2eec8da,64e7039bb48d24a34a1af74a,,,,,,,decisionTrl,resources/DY.BMP,resources/DB.BMP,Door1,0.411700975,-0.061213434,1,0,0,2.5193,optionRight,30,570,1,12,0,12,0,1,,,,,,,,,,,,,,,,,,,,,,,,,,,,,,,,,,,,,,,
,,,,,,,,2023-08-24_08h15.56.371,HF_wild_card,2022.2.4,Win32,143.8228103,603ce90d158dc4ae761a15fa,64e63663dbcaf322d2eec8da,64e7039bb48d24a34a1af74a,,,,,,,decisionTrl,resources/DP.BMP,resources/DG.BMP,Door4,-0.312026002,0.049295775,1,0,0,1.4496,optionLeft,80,650,1,13,0,13,0,1,,,,,,,,,,,,,,,,,,,,,,,,,,,,,,,,,,,,,,,
,,,,,,,,2023-08-24_08h15.56.371,HF_wild_card,2022.2.4,Win32,143.8228103,603ce90d158dc4ae761a15fa,64e63663dbcaf322d2eec8da,64e7039bb48d24a34a1af74a,,,,,,,decisionTrl,resources/DG.BMP,resources/DY.BMP,Door3,-0.374864572,0.048212351,1,0,0,1.2343,optionLeft,70,720,1,14,0,14,0,1,,,,,,,,,,,,,,,,,,,,,,,,,,,,,,,,,,,,,,,
,,,,,,,,2023-08-24_08h15.56.371,HF_wild_card,2022.2.4,Win32,143.8228103,603ce90d158dc4ae761a15fa,64e63663dbcaf322d2eec8da,64e7039bb48d24a34a1af74a,,,,,,,sngl,resources/Empty.png,resources/DBN.BMP,Door2,0.326110509,-0.035211268,1,0,0,1.1582,optionRight,20,740,1,15,0,15,0,1,,,,,,,,,,,,,,,,,,,,,,,,,,,,,,,,,,,,,,,
,,,,,,,,2023-08-24_08h15.56.371,HF_wild_card,2022.2.4,Win32,143.8228103,603ce90d158dc4ae761a15fa,64e63663dbcaf322d2eec8da,64e7039bb48d24a34a1af74a,,,,,,,decisionTrl,resources/DG.BMP,resources/DP.BMP,Door4,0.399783315,-0.034127844,1,0,0,1.3036,optionRight,60,800,1,16,0,16,0,1,,,,,,,,,,,,,,,,,,,,,,,,,,,,,,,,,,,,,,,
,,,,,,,,2023-08-24_08h15.56.371,HF_wild_card,2022.2.4,Win32,143.8228103,603ce90d158dc4ae761a15fa,64e63663dbcaf322d2eec8da,64e7039bb48d24a34a1af74a,,,,,,,decisionTrl,resources/DB.BMP,resources/DBN.BMP,Door1,-0.384615385,0.0687974,1,0,0,1.0191,optionLeft,30,830,1,17,0,17,0,1,,,,,,,,,,,,,,,,,,,,,,,,,,,,,,,,,,,,,,,
,,,,,,,,2023-08-24_08h15.56.371,HF_wild_card,2022.2.4,Win32,143.8228103,603ce90d158dc4ae761a15fa,64e63663dbcaf322d2eec8da,64e7039bb48d24a34a1af74a,,,,,,,decisionTrl,resources/DG.BMP,resources/DP.BMP,Door3,-0.230769231,0.035211268,1,0,0,1.408,optionLeft,70,900,1,18,0,18,0,1,,,,,,,,,,,,,,,,,,,,,,,,,,,,,,,,,,,,,,,
,,,,,,,,2023-08-24_08h15.56.371,HF_wild_card,2022.2.4,Win32,143.8228103,603ce90d158dc4ae761a15fa,64e63663dbcaf322d2eec8da,64e7039bb48d24a34a1af74a,,,,,,,sngl,resources/Empty.png,resources/DG.BMP,Door3,0.54496208,-0.064463705,1,0,0,0.6509,optionRight,70,970,1,19,0,19,0,1,,,,,,,,,,,,,,,,,,,,,,,,,,,,,,,,,,,,,,,
,,,,,,,,2023-08-24_08h15.56.371,HF_wild_card,2022.2.4,Win32,143.8228103,603ce90d158dc4ae761a15fa,64e63663dbcaf322d2eec8da,64e7039bb48d24a34a1af74a,,,,,,,decisionTrl,resources/DB.BMP,resources/DBN.BMP,Door1,-0.391115926,0.024377031,1,0,0,1.2466,optionLeft,30,1000,1,20,0,20,0,1,,,,,,,,,,,,,,,,,,,,,,,,,,,,,,,,,,,,,,,
,,,,,,,,2023-08-24_08h15.56.371,HF_wild_card,2022.2.4,Win32,143.8228103,603ce90d158dc4ae761a15fa,64e63663dbcaf322d2eec8da,64e7039bb48d24a34a1af74a,,,,,,,sngl,resources/DY.BMP,resources/Empty.png,WildCard_Ex,-0.2156013,0.010292524,1,0,0,1.0607,optionLeft,95,1095,1,21,0,21,0,1,,,,,,,,,,,,,,,,,,,,,,,,,,,,,,,,,,,,,,,
,,,,,,,,2023-08-24_08h15.56.371,HF_wild_card,2022.2.4,Win32,143.8228103,603ce90d158dc4ae761a15fa,64e63663dbcaf322d2eec8da,64e7039bb48d24a34a1af74a,,,,,,,decisionTrl,resources/DB.BMP,resources/DY.BMP,WildCard_Ex,0.316359697,-0.03304442,1,0,0,0.7052,optionRight,95,1190,1,22,0,22,0,1,,,,,,,,,,,,,,,,,,,,,,,,,,,,,,,,,,,,,,,
,,,,,,,,2023-08-24_08h15.56.371,HF_wild_card,2022.2.4,Win32,143.8228103,603ce90d158dc4ae761a15fa,64e63663dbcaf322d2eec8da,64e7039bb48d24a34a1af74a,,,,,,,ctch,resources/DB.BMP,resources/DP.BMP,Door4,0.315276273,-0.007042254,1,0,0,2.8873,optionRight,80,1270,1,23,0,23,0,1,,,,,,,,,,,,,,,,,,,,,,,,,,,,,,,,,,,,,,,
,,,,,,,,2023-08-24_08h15.56.371,HF_wild_card,2022.2.4,Win32,143.8228103,603ce90d158dc4ae761a15fa,64e63663dbcaf322d2eec8da,64e7039bb48d24a34a1af74a,,,,,,,decisionTrl,resources/DP.BMP,resources/DG.BMP,Door4,-0.442036836,0.046045504,1,0,0,1.4148,optionLeft,60,1330,1,24,0,24,0,1,,,,,,,,,,,,,,,,,,,,,,,,,,,,,,,,,,,,,,,
,,,,,,,,2023-08-24_08h15.56.371,HF_wild_card,2022.2.4,Win32,143.8228103,603ce90d158dc4ae761a15fa,64e63663dbcaf322d2eec8da,64e7039bb48d24a34a1af74a,,,,,,,decisionTrl,resources/DBN.BMP,resources/DB.BMP,Door1,0.214517876,-0.001625135,1,0,0,2.5675,optionRight,30,1360,1,25,0,25,0,1,,,,,,,,,,,,,,,,,,,,,,,,,,,,,,,,,,,,,,,
,,,,,,,,2023-08-24_08h15.56.371,HF_wild_card,2022.2.4,Win32,143.8228103,603ce90d158dc4ae761a15fa,64e63663dbcaf322d2eec8da,64e7039bb48d24a34a1af74a,,,,,,,ctch,resources/DG.BMP,resources/DBN.BMP,Door3,-0.165763814,0.016793066,1,0,0,2.8873,optionLeft,70,1430,1,26,0,26,0,1,,,,,,,,,,,,,,,,,,,,,,,,,,,,,,,,,,,,,,,
,,,,,,,,2023-08-24_08h15.56.371,HF_wild_card,2022.2.4,Win32,143.8228103,603ce90d158dc4ae761a15fa,64e63663dbcaf322d2eec8da,64e7039bb48d24a34a1af74a,,,,,,,decisionTrl,resources/DBN.BMP,resources/DB.BMP,Door1,0.238353196,-0.010292524,1,0,0,0.8805,optionRight,30,1460,1,27,0,27,0,1,,,,,,,,,,,,,,,,,,,,,,,,,,,,,,,,,,,,,,,
,,,,,,,,2023-08-24_08h15.56.371,HF_wild_card,2022.2.4,Win32,143.8228103,603ce90d158dc4ae761a15fa,64e63663dbcaf322d2eec8da,64e7039bb48d24a34a1af74a,,,,,,,sngl,resources/DP.BMP,resources/Empty.png,Door4,-0.273022752,0.052546046,1,0,0,0.8388,optionLeft,80,1540,1,28,0,28,0,1,,,,,,,,,,,,,,,,,,,,,,,,,,,,,,,,,,,,,,,
,,,,,,,,2023-08-24_08h15.56.371,HF_wild_card,2022.2.4,Win32,143.8228103,603ce90d158dc4ae761a15fa,64e63663dbcaf322d2eec8da,64e7039bb48d24a34a1af74a,,,,,,,ctch,resources/DG.BMP,resources/DBN.BMP,Door3,-0.187432286,0.001625135,1,0,0,1.2418,optionLeft,70,1610,1,29,0,29,0,1,,,,,,,,,,,,,,,,,,,,,,,,,,,,,,,,,,,,,,,
,,,,,,,,2023-08-24_08h15.56.371,HF_wild_card,2022.2.4,Win32,143.8228103,603ce90d158dc4ae761a15fa,64e63663dbcaf322d2eec8da,64e7039bb48d24a34a1af74a,,,,,,,decisionTrl,resources/DY.BMP,resources/DP.BMP,WildCard_Ex,-0.182015168,0.002708559,1,0,0,0.9708,optionLeft,5,1615,1,30,0,30,0,1,,,,,,,,,,,,,,,,,,,,,,,,,,,,,,,,,,,,,,,
,,,,,,,,2023-08-24_08h15.56.371,HF_wild_card,2022.2.4,Win32,143.8228103,603ce90d158dc4ae761a15fa,64e63663dbcaf322d2eec8da,64e7039bb48d24a34a1af74a,,,,,,,sngl,resources/DBN.BMP,resources/Empty.png,Door2,-0.151679307,0.002708559,1,0,0,2.2342,optionLeft,40,1655,1,31,0,31,0,1,,,,,,,,,,,,,,,,,,,,,,,,,,,,,,,,,,,,,,,
,,,,,,,,2023-08-24_08h15.56.371,HF_wild_card,2022.2.4,Win32,143.8228103,603ce90d158dc4ae761a15fa,64e63663dbcaf322d2eec8da,64e7039bb48d24a34a1af74a,,,,,,,decisionTrl,resources/DY.BMP,resources/DG.BMP,Door3,0.257854821,-0.028710726,1,0,0,1.4566,optionRight,70,1725,1,32,0,32,0,1,,,,,,,,,,,,,,,,,,,,,,,,,,,,,,,,,,,,,,,
,,,,,,,,2023-08-24_08h15.56.371,HF_wild_card,2022.2.4,Win32,143.8228103,603ce90d158dc4ae761a15fa,64e63663dbcaf322d2eec8da,64e7039bb48d24a34a1af74a,,,,,,,sngl,resources/DB.BMP,resources/Empty.png,Door1,-0.406283857,0.054712893,1,0,0,0.8932,optionLeft,30,1755,1,33,0,33,0,1,,,,,,,,,,,,,,,,,,,,,,,,,,,,,,,,,,,,,,,
,,,,,,,,2023-08-24_08h15.56.371,HF_wild_card,2022.2.4,Win32,143.8228103,603ce90d158dc4ae761a15fa,64e63663dbcaf322d2eec8da,64e7039bb48d24a34a1af74a,,,,,,,ctch,resources/DB.BMP,resources/DP.BMP,Door4,0.372697725,-0.02979415,1,0,0,1.3873,optionRight,80,1835,1,34,0,34,0,1,,,,,,,,,,,,,,,,,,,,,,,,,,,,,,,,,,,,,,,
,,,,,,,,2023-08-24_08h15.56.371,HF_wild_card,2022.2.4,Win32,143.8228103,603ce90d158dc4ae761a15fa,64e63663dbcaf322d2eec8da,64e7039bb48d24a34a1af74a,,,,,,,decisionTrl,resources/DBN.BMP,resources/DB.BMP,Door1,0.237269772,-0.013542795,1,0,0,0.7968,optionRight,30,1865,1,35,0,35,0,1,,,,,,,,,,,,,,,,,,,,,,,,,,,,,,,,,,,,,,,
,,,,,,,,2023-08-24_08h15.56.371,HF_wild_card,2022.2.4,Win32,143.8228103,603ce90d158dc4ae761a15fa,64e63663dbcaf322d2eec8da,64e7039bb48d24a34a1af74a,,,,,,,ctch,resources/DBN.BMP,resources/DG.BMP,Door3,0.360780065,-0.040628386,1,0,0,1.172,optionRight,70,1935,1,36,0,36,0,1,,,,,,,,,,,,,,,,,,,,,,,,,,,,,,,,,,,,,,,
,,,,,,,,2023-08-24_08h15.56.371,HF_wild_card,2022.2.4,Win32,143.8228103,603ce90d158dc4ae761a15fa,64e63663dbcaf322d2eec8da,64e7039bb48d24a34a1af74a,,,,,,,decisionTrl,resources/DBN.BMP,resources/DY.BMP,WildCard_Ex,0.347778982,-0.054712893,1,0,0,2.005,optionRight,95,2030,1,37,0,37,0,1,,,,,,,,,,,,,,,,,,,,,,,,,,,,,,,,,,,,,,,
,,,,,,,,2023-08-24_08h15.56.371,HF_wild_card,2022.2.4,Win32,143.8228103,603ce90d158dc4ae761a15fa,64e63663dbcaf322d2eec8da,64e7039bb48d24a34a1af74a,,,,,,,sngl,resources/Empty.png,resources/DB.BMP,Door1,0.48212351,-0.098049837,1,0,0,0.568,optionRight,30,2060,1,38,0,38,0,1,,,,,,,,,,,,,,,,,,,,,,,,,,,,,,,,,,,,,,,
,,,,,,,,2023-08-24_08h15.56.371,HF_wild_card,2022.2.4,Win32,143.8228103,603ce90d158dc4ae761a15fa,64e63663dbcaf322d2eec8da,64e7039bb48d24a34a1af74a,,,,,,,decisionTrl,resources/DP.BMP,resources/DY.BMP,Door4,-0.235102925,0.011375948,1,0,0,1.331,optionLeft,80,2140,1,39,0,39,0,1,,,,,,,,,,,,,,,,,,,,,,,,,,,,,,,,,,,,,,,
,,,,,,,,2023-08-24_08h15.56.371,HF_wild_card,2022.2.4,Win32,143.8228103,603ce90d158dc4ae761a15fa,64e63663dbcaf322d2eec8da,64e7039bb48d24a34a1af74a,,,,,,,ctch,resources/DP.BMP,resources/DB.BMP,Door4,-0.275189599,0.047128927,1,0,0,0.6304,optionLeft,60,2200,1,40,0,40,0,1,,,,,,,,,,,,,,,,,,,,,,,,,,,,,,,,,,,,,,,
,,,,,,,,2023-08-24_08h15.56.371,HF_wild_card,2022.2.4,Win32,143.8228103,603ce90d158dc4ae761a15fa,64e63663dbcaf322d2eec8da,64e7039bb48d24a34a1af74a,,,,,,,decisionTrl,resources/DP.BMP,resources/DG.BMP,Door4,-0.12567714,0.026543879,1,0,0,1.089,optionLeft,60,2260,1,41,0,41,0,1,,,,,,,,,,,,,,,,,,,,,,,,,,,,,,,,,,,,,,,
,,,,,,,,2023-08-24_08h15.56.371,HF_wild_card,2022.2.4,Win32,143.8228103,603ce90d158dc4ae761a15fa,64e63663dbcaf322d2eec8da,64e7039bb48d24a34a1af74a,,,,,,,sngl,resources/Empty.png,resources/DY.BMP,WildCard_Ex,0.20368364,-0.035211268,1,0,0,0.8668,optionRight,95,2355,1,42,0,42,0,1,,,,,,,,,,,,,,,,,,,,,,,,,,,,,,,,,,,,,,,
,,,,,,,,2023-08-24_08h15.56.371,HF_wild_card,2022.2.4,Win32,143.8228103,603ce90d158dc4ae761a15fa,64e63663dbcaf322d2eec8da,64e7039bb48d24a34a1af74a,,,,,,,decisionTrl,resources/DG.BMP,resources/DP.BMP,Door4,0.32936078,-0.053629469,1,0,0,1.5194,optionRight,80,2435,1,43,0,43,0,1,,,,,,,,,,,,,,,,,,,,,,,,,,,,,,,,,,,,,,,
,,,,,,,,2023-08-24_08h15.56.371,HF_wild_card,2022.2.4,Win32,143.8228103,603ce90d158dc4ae761a15fa,64e63663dbcaf322d2eec8da,64e7039bb48d24a34a1af74a,,,,,,,,,,,,,,,,,,,,,,,,,,0,0,0,0,1,,,,,,,,,,,,,,,,,,,,,,,,,,,,,,,,,,
,,,,,,,,2023-08-24_08h15.56.371,HF_wild_card,2022.2.4,Win32,143.8228103,603ce90d158dc4ae761a15fa,64e63663dbcaf322d2eec8da,64e7039bb48d24a34a1af74a,,,,,,,ctch,resources/DB.BMP,resources/DP.BMP,Door4,0.349945829,-0.054712893,1,0,0,4.5309,optionRight,80,2515,2,0,0,0,0,1,,,,,,,,,,,,,,,,,,,,,,,,,,,,,,,,,,,,,,,
,,,,,,,,2023-08-24_08h15.56.371,HF_wild_card,2022.2.4,Win32,143.8228103,603ce90d158dc4ae761a15fa,64e63663dbcaf322d2eec8da,64e7039bb48d24a34a1af74a,,,,,,,decisionTrl,resources/DBN.BMP,resources/DB.BMP,Door1,0.338028169,-0.085048754,1,0,0,0.9291,optionRight,30,2545,2,1,0,1,0,1,,,,,,,,,,,,,,,,,,,,,,,,,,,,,,,,,,,,,,,
,,,,,,,,2023-08-24_08h15.56.371,HF_wild_card,2022.2.4,Win32,143.8228103,603ce90d158dc4ae761a15fa,64e63663dbcaf322d2eec8da,64e7039bb48d24a34a1af74a,,,,,,,decisionTrl,resources/DY.BMP,resources/DG.BMP,WildCard_Ex,-0.366197183,0.061213434,1,0,0,1.3313,optionLeft,95,2640,2,2,0,2,0,1,,,,,,,,,,,,,,,,,,,,,,,,,,,,,,,,,,,,,,,
,,,,,,,,2023-08-24_08h15.56.371,HF_wild_card,2022.2.4,Win32,143.8228103,603ce90d158dc4ae761a15fa,64e63663dbcaf322d2eec8da,64e7039bb48d24a34a1af74a,,,,,,,decisionTrl,resources/DP.BMP,resources/DG.BMP,Door4,-0.418201517,0.050379198,1,0,0,0.7831,optionLeft,80,2720,2,3,0,3,0,1,,,,,,,,,,,,,,,,,,,,,,,,,,,,,,,,,,,,,,,
,,,,,,,,2023-08-24_08h15.56.371,HF_wild_card,2022.2.4,Win32,143.8228103,603ce90d158dc4ae761a15fa,64e63663dbcaf322d2eec8da,64e7039bb48d24a34a1af74a,,,,,,,ctch,resources/DP.BMP,resources/DB.BMP,Door4,-0.384615385,0.018959913,1,0,0,1.0399,optionLeft,80,2800,2,4,0,4,0,1,,,,,,,,,,,,,,,,,,,,,,,,,,,,,,,,,,,,,,,
,,,,,,,,2023-08-24_08h15.56.371,HF_wild_card,2022.2.4,Win32,143.8228103,603ce90d158dc4ae761a15fa,64e63663dbcaf322d2eec8da,64e7039bb48d24a34a1af74a,,,,,,,ctch,resources/DP.BMP,resources/DB.BMP,Door4,-0.264355363,0.026543879,1,0,0,0.5333,optionLeft,60,2860,2,5,0,5,0,1,,,,,,,,,,,,,,,,,,,,,,,,,,,,,,,,,,,,,,,
,,,,,,,,2023-08-24_08h15.56.371,HF_wild_card,2022.2.4,Win32,143.8228103,603ce90d158dc4ae761a15fa,64e63663dbcaf322d2eec8da,64e7039bb48d24a34a1af74a,,,,,,,decisionTrl,resources/DB.BMP,resources/DBN.BMP,Door1,-0.346695558,0.023293608,1,0,0,0.9705,optionLeft,30,2890,2,6,0,6,0,1,,,,,,,,,,,,,,,,,,,,,,,,,,,,,,,,,,,,,,,
,,,,,,,,2023-08-24_08h15.56.371,HF_wild_card,2022.2.4,Win32,143.8228103,603ce90d158dc4ae761a15fa,64e63663dbcaf322d2eec8da,64e7039bb48d24a34a1af74a,,,,,,,sngl,resources/Empty.png,resources/DG.BMP,Door3,0.343445287,-0.060130011,1,0,0,0.5261,optionRight,70,2960,2,7,0,7,0,1,,,,,,,,,,,,,,,,,,,,,,,,,,,,,,,,,,,,,,,
,,,,,,,,2023-08-24_08h15.56.371,HF_wild_card,2022.2.4,Win32,143.8228103,603ce90d158dc4ae761a15fa,64e63663dbcaf322d2eec8da,64e7039bb48d24a34a1af74a,,,,,,,decisionTrl,resources/DP.BMP,resources/DG.BMP,Door4,-0.309859155,0.014626219,1,0,0,0.6859,optionLeft,60,3020,2,8,0,8,0,1,,,,,,,,,,,,,,,,,,,,,,,,,,,,,,,,,,,,,,,
,,,,,,,,2023-08-24_08h15.56.371,HF_wild_card,2022.2.4,Win32,143.8228103,603ce90d158dc4ae761a15fa,64e63663dbcaf322d2eec8da,64e7039bb48d24a34a1af74a,,,,,,,sngl,resources/Empty.png,resources/DY.BMP,WildCard_Ex,0.459371614,-0.082881907,1,0,0,0.9846,optionRight,95,3115,2,9,0,9,0,1,,,,,,,,,,,,,,,,,,,,,,,,,,,,,,,,,,,,,,,
,,,,,,,,2023-08-24_08h15.56.371,HF_wild_card,2022.2.4,Win32,143.8228103,603ce90d158dc4ae761a15fa,64e63663dbcaf322d2eec8da,64e7039bb48d24a34a1af74a,,,,,,,ctch,resources/DG.BMP,resources/DBN.BMP,Door3,-0.492957746,0.027627302,1,0,0,1.4357,optionLeft,70,3185,2,10,0,10,0,1,,,,,,,,,,,,,,,,,,,,,,,,,,,,,,,,,,,,,,,
,,,,,,,,2023-08-24_08h15.56.371,HF_wild_card,2022.2.4,Win32,143.8228103,603ce90d158dc4ae761a15fa,64e63663dbcaf322d2eec8da,64e7039bb48d24a34a1af74a,,,,,,,decisionTrl,resources/DG.BMP,resources/DP.BMP,Door4,0.411700975,-0.027627302,1,0,0,0.8728,optionRight,80,3265,2,11,0,11,0,1,,,,,,,,,,,,,,,,,,,,,,,,,,,,,,,,,,,,,,,
,,,,,,,,2023-08-24_08h15.56.371,HF_wild_card,2022.2.4,Win32,143.8228103,603ce90d158dc4ae761a15fa,64e63663dbcaf322d2eec8da,64e7039bb48d24a34a1af74a,,,,,,,sngl,resources/DBN.BMP,resources/Empty.png,Door2,-0.424702059,0.082881907,1,0,0,0.8319,optionLeft,20,3285,2,12,0,12,0,1,,,,,,,,,,,,,,,,,,,,,,,,,,,,,,,,,,,,,,,
,,,,,,,,2023-08-24_08h15.56.371,HF_wild_card,2022.2.4,Win32,143.8228103,603ce90d158dc4ae761a15fa,64e63663dbcaf322d2eec8da,64e7039bb48d24a34a1af74a,,,,,,,decisionTrl,resources/DB.BMP,resources/DBN.BMP,Door1,-0.289274106,0.061213434,1,0,0,1.3863,optionLeft,30,3315,2,13,0,13,0,1,,,,,,,,,,,,,,,,,,,,,,,,,,,,,,,,,,,,,,,
,,,,,,,,2023-08-24_08h15.56.371,HF_wild_card,2022.2.4,Win32,143.8228103,603ce90d158dc4ae761a15fa,64e63663dbcaf322d2eec8da,64e7039bb48d24a34a1af74a,,,,,,,sngl,resources/DY.BMP,resources/Empty.png,WildCard_Ex,-0.327193933,0.060130011,1,0,0,0.6306,optionLeft,5,3320,2,14,0,14,0,1,,,,,,,,,,,,,,,,,,,,,,,,,,,,,,,,,,,,,,,
,,,,,,,,2023-08-24_08h15.56.371,HF_wild_card,2022.2.4,Win32,143.8228103,603ce90d158dc4ae761a15fa,64e63663dbcaf322d2eec8da,64e7039bb48d24a34a1af74a,,,,,,,sngl,resources/Empty.png,resources/DP.BMP,Door4,0.38028169,-0.039544962,1,0,0,0.5398,optionRight,80,3400,2,15,0,15,0,1,,,,,,,,,,,,,,,,,,,,,,,,,,,,,,,,,,,,,,,
,,,,,,,,2023-08-24_08h15.56.371,HF_wild_card,2022.2.4,Win32,143.8228103,603ce90d158dc4ae761a15fa,64e63663dbcaf322d2eec8da,64e7039bb48d24a34a1af74a,,,,,,,sngl,resources/DY.BMP,resources/Empty.png,WildCard_Ex,-0.332611051,0.052546046,1,0,0,3.2764,optionLeft,95,3495,2,16,0,16,0,1,,,,,,,,,,,,,,,,,,,,,,,,,,,,,,,,,,,,,,,
,,,,,,,,2023-08-24_08h15.56.371,HF_wild_card,2022.2.4,Win32,143.8228103,603ce90d158dc4ae761a15fa,64e63663dbcaf322d2eec8da,64e7039bb48d24a34a1af74a,,,,,,,decisionTrl,resources/DBN.BMP,resources/DB.BMP,Door1,0.383531961,-0.05687974,1,0,0,1.9846,optionRight,30,3525,2,17,0,17,0,1,,,,,,,,,,,,,,,,,,,,,,,,,,,,,,,,,,,,,,,
,,,,,,,,2023-08-24_08h15.56.371,HF_wild_card,2022.2.4,Win32,143.8228103,603ce90d158dc4ae761a15fa,64e63663dbcaf322d2eec8da,64e7039bb48d24a34a1af74a,,,,,,,decisionTrl,resources/DG.BMP,resources/DP.BMP,Door4,0.223185265,-0.02979415,1,0,0,0.7555,optionRight,60,3585,2,18,0,18,0,1,,,,,,,,,,,,,,,,,,,,,,,,,,,,,,,,,,,,,,,
,,,,,,,,2023-08-24_08h15.56.371,HF_wild_card,2022.2.4,Win32,143.8228103,603ce90d158dc4ae761a15fa,64e63663dbcaf322d2eec8da,64e7039bb48d24a34a1af74a,,,,,,,sngl,resources/Empty.png,resources/DBN.BMP,Door2,0.307692308,-0.014626219,1,0,0,0.8525,optionRight,40,3625,2,19,0,19,0,1,,,,,,,,,,,,,,,,,,,,,,,,,,,,,,,,,,,,,,,
,,,,,,,,2023-08-24_08h15.56.371,HF_wild_card,2022.2.4,Win32,143.8228103,603ce90d158dc4ae761a15fa,64e63663dbcaf322d2eec8da,64e7039bb48d24a34a1af74a,,,,,,,decisionTrl,resources/DP.BMP,resources/DG.BMP,Door4,-0.210184182,-0.001625135,1,0,0,2.2623,optionLeft,80,3705,2,20,0,20,0,1,,,,,,,,,,,,,,,,,,,,,,,,,,,,,,,,,,,,,,,
,,,,,,,,2023-08-24_08h15.56.371,HF_wild_card,2022.2.4,Win32,143.8228103,603ce90d158dc4ae761a15fa,64e63663dbcaf322d2eec8da,64e7039bb48d24a34a1af74a,,,,,,,sngl,resources/Empty.png,resources/DY.BMP,WildCard_Ex,0.31744312,-0.021126761,1,0,0,0.5397,optionRight,5,3710,2,21,0,21,0,1,,,,,,,,,,,,,,,,,,,,,,,,,,,,,,,,,,,,,,,
,,,,,,,,2023-08-24_08h15.56.371,HF_wild_card,2022.2.4,Win32,143.8228103,603ce90d158dc4ae761a15fa,64e63663dbcaf322d2eec8da,64e7039bb48d24a34a1af74a,,,,,,,decisionTrl,resources/DBN.BMP,resources/DB.BMP,Door1,0.276273023,-0.02979415,1,0,0,0.7138,optionRight,30,3740,2,22,0,22,0,1,,,,,,,,,,,,,,,,,,,,,,,,,,,,,,,,,,,,,,,
,,,,,,,,2023-08-24_08h15.56.371,HF_wild_card,2022.2.4,Win32,143.8228103,603ce90d158dc4ae761a15fa,64e63663dbcaf322d2eec8da,64e7039bb48d24a34a1af74a,,,,,,,sngl,resources/DP.BMP,resources/Empty.png,Door4,-0.361863489,-0.063380282,1,0,0,0.6236,optionLeft,60,3800,2,23,0,23,0,1,,,,,,,,,,,,,,,,,,,,,,,,,,,,,,,,,,,,,,,
,,,,,,,,2023-08-24_08h15.56.371,HF_wild_card,2022.2.4,Win32,143.8228103,603ce90d158dc4ae761a15fa,64e63663dbcaf322d2eec8da,64e7039bb48d24a34a1af74a,,,,,,,decisionTrl,resources/DBN.BMP,resources/DB.BMP,Door1,0.23943662,-0.020043337,1,0,0,0.9636,optionRight,30,3830,2,24,0,24,0,1,,,,,,,,,,,,,,,,,,,,,,,,,,,,,,,,,,,,,,,
,,,,,,,,2023-08-24_08h15.56.371,HF_wild_card,2022.2.4,Win32,143.8228103,603ce90d158dc4ae761a15fa,64e63663dbcaf322d2eec8da,64e7039bb48d24a34a1af74a,,,,,,,decisionTrl,resources/DG.BMP,resources/DP.BMP,Door4,0.328277356,-0.077464789,1,0,0,2.6161,optionRight,80,3910,2,25,0,25,0,1,,,,,,,,,,,,,,,,,,,,,,,,,,,,,,,,,,,,,,,
,,,,,,,,2023-08-24_08h15.56.371,HF_wild_card,2022.2.4,Win32,143.8228103,603ce90d158dc4ae761a15fa,64e63663dbcaf322d2eec8da,64e7039bb48d24a34a1af74a,,,,,,,decisionTrl,resources/DP.BMP,resources/DY.BMP,Door4,-0.396533044,0.024377031,1,0,0,1.297,optionLeft,80,3990,2,26,0,26,0,1,,,,,,,,,,,,,,,,,,,,,,,,,,,,,,,,,,,,,,,
,,,,,,,,2023-08-24_08h15.56.371,HF_wild_card,2022.2.4,Win32,143.8228103,603ce90d158dc4ae761a15fa,64e63663dbcaf322d2eec8da,64e7039bb48d24a34a1af74a,,,,,,,decisionTrl,resources/DG.BMP,resources/DY.BMP,WildCard_Ex,0.31744312,-0.030877573,1,0,0,2.1649,optionRight,95,4085,2,27,0,27,0,1,,,,,,,,,,,,,,,,,,,,,,,,,,,,,,,,,,,,,,,
,,,,,,,,2023-08-24_08h15.56.371,HF_wild_card,2022.2.4,Win32,143.8228103,603ce90d158dc4ae761a15fa,64e63663dbcaf322d2eec8da,64e7039bb48d24a34a1af74a,,,,,,,decisionTrl,resources/DY.BMP,resources/DP.BMP,Door4,0.471289274,-0.106717226,1,0,0,1.0401,optionRight,80,4165,2,28,0,28,0,1,,,,,,,,,,,,,,,,,,,,,,,,,,,,,,,,,,,,,,,
,,,,,,,,2023-08-24_08h15.56.371,HF_wild_card,2022.2.4,Win32,143.8228103,603ce90d158dc4ae761a15fa,64e63663dbcaf322d2eec8da,64e7039bb48d24a34a1af74a,,,,,,,decisionTrl,resources/DY.BMP,resources/DBN.BMP,WildCard_Ex,-0.1375948,0.022210184,1,0,0,1.0119,optionLeft,5,4170,2,29,0,29,0,1,,,,,,,,,,,,,,,,,,,,,,,,,,,,,,,,,,,,,,,
,,,,,,,,2023-08-24_08h15.56.371,HF_wild_card,2022.2.4,Win32,143.8228103,603ce90d158dc4ae761a15fa,64e63663dbcaf322d2eec8da,64e7039bb48d24a34a1af74a,,,,,,,ctch,resources/DBN.BMP,resources/DG.BMP,Door3,0.403033586,-0.077464789,1,0,0,2.311,optionRight,70,4240,2,30,0,30,0,1,,,,,,,,,,,,,,,,,,,,,,,,,,,,,,,,,,,,,,,
,,,,,,,,2023-08-24_08h15.56.371,HF_wild_card,2022.2.4,Win32,143.8228103,603ce90d158dc4ae761a15fa,64e63663dbcaf322d2eec8da,64e7039bb48d24a34a1af74a,,,,,,,decisionTrl,resources/DG.BMP,resources/DP.BMP,Door4,0.297941495,-0.031960997,1,0,0,0.915,optionRight,60,4300,2,31,0,31,0,1,,,,,,,,,,,,,,,,,,,,,,,,,,,,,,,,,,,,,,,
,,,,,,,,2023-08-24_08h15.56.371,HF_wild_card,2022.2.4,Win32,143.8228103,603ce90d158dc4ae761a15fa,64e63663dbcaf322d2eec8da,64e7039bb48d24a34a1af74a,,,,,,,decisionTrl,resources/DB.BMP,resources/DY.BMP,WildCard_Ex,0.293607801,-0.036294691,1,0,0,1.3733,optionRight,5,4305,2,32,0,32,0,1,,,,,,,,,,,,,,,,,,,,,,,,,,,,,,,,,,,,,,,
,,,,,,,,2023-08-24_08h15.56.371,HF_wild_card,2022.2.4,Win32,143.8228103,603ce90d158dc4ae761a15fa,64e63663dbcaf322d2eec8da,64e7039bb48d24a34a1af74a,,,,,,,ctch,resources/DB.BMP,resources/DP.BMP,Door4,0.356446371,-0.060130011,1,0,0,1.6023,optionRight,80,4385,2,33,0,33,0,1,,,,,,,,,,,,,,,,,,,,,,,,,,,,,,,,,,,,,,,
,,,,,,,,2023-08-24_08h15.56.371,HF_wild_card,2022.2.4,Win32,143.8228103,603ce90d158dc4ae761a15fa,64e63663dbcaf322d2eec8da,64e7039bb48d24a34a1af74a,,,,,,,decisionTrl,resources/DY.BMP,resources/DB.BMP,Door1,0.390032503,-0.018959913,1,0,0,4.269,optionRight,30,4415,2,34,0,34,0,1,,,,,,,,,,,,,,,,,,,,,,,,,,,,,,,,,,,,,,,
,,,,,,,,2023-08-24_08h15.56.371,HF_wild_card,2022.2.4,Win32,143.8228103,603ce90d158dc4ae761a15fa,64e63663dbcaf322d2eec8da,64e7039bb48d24a34a1af74a,,,,,,,decisionTrl,resources/DBN.BMP,resources/DY.BMP,WildCard_Ex,0.29035753,-0.040628386,1,0,0,1.1717,optionRight,95,4510,2,35,0,35,0,1,,,,,,,,,,,,,,,,,,,,,,,,,,,,,,,,,,,,,,,
,,,,,,,,2023-08-24_08h15.56.371,HF_wild_card,2022.2.4,Win32,143.8228103,603ce90d158dc4ae761a15fa,64e63663dbcaf322d2eec8da,64e7039bb48d24a34a1af74a,,,,,,,sngl,resources/Empty.png,resources/DB.BMP,Door1,0.321776815,-0.034127844,1,0,0,0.8805,optionRight,30,4540,2,36,0,36,0,1,,,,,,,,,,,,,,,,,,,,,,,,,,,,,,,,,,,,,,,
,,,,,,,,2023-08-24_08h15.56.371,HF_wild_card,2022.2.4,Win32,143.8228103,603ce90d158dc4ae761a15fa,64e63663dbcaf322d2eec8da,64e7039bb48d24a34a1af74a,,,,,,,sngl,resources/DB.BMP,resources/Empty.png,Door1,-0.292524377,0.03304442,1,0,0,0.54,optionLeft,30,4570,2,37,0,37,0,1,,,,,,,,,,,,,,,,,,,,,,,,,,,,,,,,,,,,,,,
,,,,,,,,2023-08-24_08h15.56.371,HF_wild_card,2022.2.4,Win32,143.8228103,603ce90d158dc4ae761a15fa,64e63663dbcaf322d2eec8da,64e7039bb48d24a34a1af74a,,,,,,,decisionTrl,resources/DB.BMP,resources/DBN.BMP,Door2,0.219934995,-0.025460455,1,0,0,3.4989,optionRight,40,4610,2,38,0,38,0,1,,,,,,,,,,,,,,,,,,,,,,,,,,,,,,,,,,,,,,,
,,,,,,,,2023-08-24_08h15.56.371,HF_wild_card,2022.2.4,Win32,143.8228103,603ce90d158dc4ae761a15fa,64e63663dbcaf322d2eec8da,64e7039bb48d24a34a1af74a,,,,,,,decisionTrl,resources/DP.BMP,resources/DG.BMP,Door4,-0.367280607,0.034127844,1,0,0,1.0681,optionLeft,60,4670,2,39,0,39,0,1,,,,,,,,,,,,,,,,,,,,,,,,,,,,,,,,,,,,,,,
,,,,,,,,2023-08-24_08h15.56.371,HF_wild_card,2022.2.4,Win32,143.8228103,603ce90d158dc4ae761a15fa,64e63663dbcaf322d2eec8da,64e7039bb48d24a34a1af74a,,,,,,,sngl,resources/DG.BMP,resources/Empty.png,Door3,-0.241603467,0.013542795,1,0,0,0.7348,optionLeft,70,4740,2,40,0,40,0,1,,,,,,,,,,,,,,,,,,,,,,,,,,,,,,,,,,,,,,,
,,,,,,,,2023-08-24_08h15.56.371,HF_wild_card,2022.2.4,Win32,143.8228103,603ce90d158dc4ae761a15fa,64e63663dbcaf322d2eec8da,64e7039bb48d24a34a1af74a,,,,,,,ctch,resources/DBN.BMP,resources/DG.BMP,Door3,0.366197183,-0.065547129,1,0,0,1.3947,optionRight,70,4810,2,41,0,41,0,1,,,,,,,,,,,,,,,,,,,,,,,,,,,,,,,,,,,,,,,
,,,,,,,,2023-08-24_08h15.56.371,HF_wild_card,2022.2.4,Win32,143.8228103,603ce90d158dc4ae761a15fa,64e63663dbcaf322d2eec8da,64e7039bb48d24a34a1af74a,,,,,,,decisionTrl,resources/DB.BMP,resources/DBN.BMP,Door1,-0.438786566,0.013542795,1,0,0,2.3873,optionLeft,30,4840,2,42,0,42,0,1,,,,,,,,,,,,,,,,,,,,,,,,,,,,,,,,,,,,,,,
,,,,,,,,2023-08-24_08h15.56.371,HF_wild_card,2022.2.4,Win32,143.8228103,603ce90d158dc4ae761a15fa,64e63663dbcaf322d2eec8da,64e7039bb48d24a34a1af74a,,,,,,,ctch,resources/DG.BMP,resources/DBN.BMP,Door3,-0.319609967,0.049295775,1,0,0,1.2206,optionLeft,70,4910,2,43,0,43,0,1,,,,,,,,,,,,,,,,,,,,,,,,,,,,,,,,,,,,,,,
,,,,,,,,2023-08-24_08h15.56.371,HF_wild_card,2022.2.4,Win32,143.8228103,603ce90d158dc4ae761a15fa,64e63663dbcaf322d2eec8da,64e7039bb48d24a34a1af74a,,,,,,,,,,,,,,,,,,,,,,,,,,1,0,1,0,1,,,,,,,,,,,,,,,,,,,,,,,,,,,,,,,,,,
,,,,,,,,2023-08-24_08h15.56.371,HF_wild_card,2022.2.4,Win32,143.8228103,603ce90d158dc4ae761a15fa,64e63663dbcaf322d2eec8da,64e7039bb48d24a34a1af74a,,,,,,,decisionTrl,resources/DG.BMP,resources/DP.BMP,Door4,0.476706392,-0.060130011,1,0,0,0.7956,optionRight,80,4990,3,0,0,0,0,1,,,,,,,,,,,,,,,,,,,,,,,,,,,,,,,,,,,,,,,
,,,,,,,,2023-08-24_08h15.56.371,HF_wild_card,2022.2.4,Win32,143.8228103,603ce90d158dc4ae761a15fa,64e63663dbcaf322d2eec8da,64e7039bb48d24a34a1af74a,,,,,,,decisionTrl,resources/DP.BMP,resources/DG.BMP,Door4,-0.20368364,-0.004875406,1,0,0,0.5954,optionLeft,80,5070,3,1,0,1,0,1,,,,,,,,,,,,,,,,,,,,,,,,,,,,,,,,,,,,,,,
,,,,,,,,2023-08-24_08h15.56.371,HF_wild_card,2022.2.4,Win32,143.8228103,603ce90d158dc4ae761a15fa,64e63663dbcaf322d2eec8da,64e7039bb48d24a34a1af74a,,,,,,,sngl,resources/Empty.png,resources/DP.BMP,Door4,0.513542795,-0.015709642,1,0,0,0.4844,optionRight,60,5130,3,2,0,2,0,1,,,,,,,,,,,,,,,,,,,,,,,,,,,,,,,,,,,,,,,
,,,,,,,,2023-08-24_08h15.56.371,HF_wild_card,2022.2.4,Win32,143.8228103,603ce90d158dc4ae761a15fa,64e63663dbcaf322d2eec8da,64e7039bb48d24a34a1af74a,,,,,,,sngl,resources/Empty.png,resources/DY.BMP,WildCard_Ex,0.241603467,-0.003791983,1,0,0,0.6306,optionRight,5,5135,3,3,0,3,0,1,,,,,,,,,,,,,,,,,,,,,,,,,,,,,,,,,,,,,,,
,,,,,,,,2023-08-24_08h15.56.371,HF_wild_card,2022.2.4,Win32,143.8228103,603ce90d158dc4ae761a15fa,64e63663dbcaf322d2eec8da,64e7039bb48d24a34a1af74a,,,,,,,ctch,resources/DP.BMP,resources/DB.BMP,Door4,-0.27843987,0.009209101,1,0,0,0.9916,optionLeft,80,5215,3,4,0,4,0,1,,,,,,,,,,,,,,,,,,,,,,,,,,,,,,,,,,,,,,,
,,,,,,,,2023-08-24_08h15.56.371,HF_wild_card,2022.2.4,Win32,143.8228103,603ce90d158dc4ae761a15fa,64e63663dbcaf322d2eec8da,64e7039bb48d24a34a1af74a,,,,,,,decisionTrl,resources/DG.BMP,resources/DP.BMP,Door4,0.265438787,-0.016793066,1,0,0,1.0401,optionRight,80,5295,3,5,0,5,0,1,,,,,,,,,,,,,,,,,,,,,,,,,,,,,,,,,,,,,,,
,,,,,,,,2023-08-24_08h15.56.371,HF_wild_card,2022.2.4,Win32,143.8228103,603ce90d158dc4ae761a15fa,64e63663dbcaf322d2eec8da,64e7039bb48d24a34a1af74a,,,,,,,decisionTrl,resources/DB.BMP,resources/DBN.BMP,Door1,-0.253521127,-0.007042254,1,0,0,1.5333,optionLeft,30,5325,3,6,0,6,0,1,,,,,,,,,,,,,,,,,,,,,,,,,,,,,,,,,,,,,,,
,,,,,,,,2023-08-24_08h15.56.371,HF_wild_card,2022.2.4,Win32,143.8228103,603ce90d158dc4ae761a15fa,64e63663dbcaf322d2eec8da,64e7039bb48d24a34a1af74a,,,,,,,decisionTrl,resources/DB.BMP,resources/DBN.BMP,Door2,0.409534128,-0.026543879,1,0,0,0.6043,optionRight,40,5365,3,7,0,7,0,1,,,,,,,,,,,,,,,,,,,,,,,,,,,,,,,,,,,,,,,
,,,,,,,,2023-08-24_08h15.56.371,HF_wild_card,2022.2.4,Win32,143.8228103,603ce90d158dc4ae761a15fa,64e63663dbcaf322d2eec8da,64e7039bb48d24a34a1af74a,,,,,,,ctch,resources/DP.BMP,resources/DB.BMP,Door4,-0.23943662,0.037378115,1,0,0,1.5667,optionLeft,80,5445,3,8,0,8,0,1,,,,,,,,,,,,,,,,,,,,,,,,,,,,,,,,,,,,,,,
,,,,,,,,2023-08-24_08h15.56.371,HF_wild_card,2022.2.4,Win32,143.8228103,603ce90d158dc4ae761a15fa,64e63663dbcaf322d2eec8da,64e7039bb48d24a34a1af74a,,,,,,,decisionTrl,resources/DP.BMP,resources/DG.BMP,Door4,-0.274106176,0.037378115,1,0,0,0.9985,optionLeft,60,5505,3,9,0,9,0,1,,,,,,,,,,,,,,,,,,,,,,,,,,,,,,,,,,,,,,,
,,,,,,,,2023-08-24_08h15.56.371,HF_wild_card,2022.2.4,Win32,143.8228103,603ce90d158dc4ae761a15fa,64e63663dbcaf322d2eec8da,64e7039bb48d24a34a1af74a,,,,,,,decisionTrl,resources/DBN.BMP,resources/DY.BMP,WildCard_Ex,0.280606717,0.004875406,1,0,0,1.6373,optionRight,5,5510,3,10,0,10,0,1,,,,,,,,,,,,,,,,,,,,,,,,,,,,,,,,,,,,,,,
,,,,,,,,2023-08-24_08h15.56.371,HF_wild_card,2022.2.4,Win32,143.8228103,603ce90d158dc4ae761a15fa,64e63663dbcaf322d2eec8da,64e7039bb48d24a34a1af74a,,,,,,,sngl,resources/Empty.png,resources/DB.BMP,Door1,0.420368364,-0.049295775,1,0,0,0.6721,optionRight,30,5540,3,11,0,11,0,1,,,,,,,,,,,,,,,,,,,,,,,,,,,,,,,,,,,,,,,
,,,,,,,,2023-08-24_08h15.56.371,HF_wild_card,2022.2.4,Win32,143.8228103,603ce90d158dc4ae761a15fa,64e63663dbcaf322d2eec8da,64e7039bb48d24a34a1af74a,,,,,,,ctch,resources/DG.BMP,resources/DBN.BMP,Door3,-0.307692308,0.038461538,1,0,0,2.1509,optionLeft,70,5610,3,12,0,12,0,1,,,,,,,,,,,,,,,,,,,,,,,,,,,,,,,,,,,,,,,
,,,,,,,,2023-08-24_08h15.56.371,HF_wild_card,2022.2.4,Win32,143.8228103,603ce90d158dc4ae761a15fa,64e63663dbcaf322d2eec8da,64e7039bb48d24a34a1af74a,,,,,,,decisionTrl,resources/DY.BMP,resources/DP.BMP,Door4,0.378114843,-0.047128927,1,0,0,2.0123,optionRight,80,5690,3,13,0,13,0,1,,,,,,,,,,,,,,,,,,,,,,,,,,,,,,,,,,,,,,,
,,,,,,,,2023-08-24_08h15.56.371,HF_wild_card,2022.2.4,Win32,143.8228103,603ce90d158dc4ae761a15fa,64e63663dbcaf322d2eec8da,64e7039bb48d24a34a1af74a,,,,,,,decisionTrl,resources/DG.BMP,resources/DP.BMP,Door4,0.275189599,-0.069880823,1,0,0,1.2208,optionRight,80,5770,3,14,0,14,0,1,,,,,,,,,,,,,,,,,,,,,,,,,,,,,,,,,,,,,,,
,,,,,,,,2023-08-24_08h15.56.371,HF_wild_card,2022.2.4,Win32,143.8228103,603ce90d158dc4ae761a15fa,64e63663dbcaf322d2eec8da,64e7039bb48d24a34a1af74a,,,,,,,decisionTrl,resources/DG.BMP,resources/DP.BMP,Door4,0.288190683,-0.021126761,1,0,0,0.5194,optionRight,80,5850,3,15,0,15,0,1,,,,,,,,,,,,,,,,,,,,,,,,,,,,,,,,,,,,,,,
,,,,,,,,2023-08-24_08h15.56.371,HF_wild_card,2022.2.4,Win32,143.8228103,603ce90d158dc4ae761a15fa,64e63663dbcaf322d2eec8da,64e7039bb48d24a34a1af74a,,,,,,,decisionTrl,resources/DY.BMP,resources/DB.BMP,WildCard_Ex,-0.326110509,0.02979415,1,0,0,1.2552,optionLeft,95,5945,3,16,0,16,0,1,,,,,,,,,,,,,,,,,,,,,,,,,,,,,,,,,,,,,,,
,,,,,,,,2023-08-24_08h15.56.371,HF_wild_card,2022.2.4,Win32,143.8228103,603ce90d158dc4ae761a15fa,64e63663dbcaf322d2eec8da,64e7039bb48d24a34a1af74a,,,,,,,ctch,resources/DBN.BMP,resources/DG.BMP,Door3,0.48212351,0.00595883,1,0,0,2.1645,optionRight,70,6015,3,17,0,17,0,1,,,,,,,,,,,,,,,,,,,,,,,,,,,,,,,,,,,,,,,
,,,,,,,,2023-08-24_08h15.56.371,HF_wild_card,2022.2.4,Win32,143.8228103,603ce90d158dc4ae761a15fa,64e63663dbcaf322d2eec8da,64e7039bb48d24a34a1af74a,,,,,,,decisionTrl,resources/DG.BMP,resources/DY.BMP,Door3,-0.235102925,-0.015709642,1,0,0,1.5954,optionLeft,70,6085,3,18,0,18,0,1,,,,,,,,,,,,,,,,,,,,,,,,,,,,,,,,,,,,,,,
,,,,,,,,2023-08-24_08h15.56.371,HF_wild_card,2022.2.4,Win32,143.8228103,603ce90d158dc4ae761a15fa,64e63663dbcaf322d2eec8da,64e7039bb48d24a34a1af74a,,,,,,,ctch,resources/DG.BMP,resources/DBN.BMP,Door3,-0.275189599,-0.026543879,1,0,0,0.8459,optionLeft,70,6155,3,19,0,19,0,1,,,,,,,,,,,,,,,,,,,,,,,,,,,,,,,,,,,,,,,
,,,,,,,,2023-08-24_08h15.56.371,HF_wild_card,2022.2.4,Win32,143.8228103,603ce90d158dc4ae761a15fa,64e63663dbcaf322d2eec8da,64e7039bb48d24a34a1af74a,,,,,,,sngl,resources/DG.BMP,resources/Empty.png,Door3,-0.299024919,0.001625135,1,0,0,0.401,optionLeft,70,6225,3,20,0,20,0,1,,,,,,,,,,,,,,,,,,,,,,,,,,,,,,,,,,,,,,,
,,,,,,,,2023-08-24_08h15.56.371,HF_wild_card,2022.2.4,Win32,143.8228103,603ce90d158dc4ae761a15fa,64e63663dbcaf322d2eec8da,64e7039bb48d24a34a1af74a,,,,,,,ctch,resources/DBN.BMP,resources/DG.BMP,Door3,0.318526544,-0.008125677,1,0,0,0.7543,optionRight,70,6295,3,21,0,21,0,1,,,,,,,,,,,,,,,,,,,,,,,,,,,,,,,,,,,,,,,
,,,,,,,,2023-08-24_08h15.56.371,HF_wild_card,2022.2.4,Win32,143.8228103,603ce90d158dc4ae761a15fa,64e63663dbcaf322d2eec8da,64e7039bb48d24a34a1af74a,,,,,,,sngl,resources/DY.BMP,resources/Empty.png,WildCard_Ex,-0.199349946,0.010292524,1,0,0,0.7208,optionLeft,5,6300,3,22,0,22,0,1,,,,,,,,,,,,,,,,,,,,,,,,,,,,,,,,,,,,,,,
,,,,,,,,2023-08-24_08h15.56.371,HF_wild_card,2022.2.4,Win32,143.8228103,603ce90d158dc4ae761a15fa,64e63663dbcaf322d2eec8da,64e7039bb48d24a34a1af74a,,,,,,,decisionTrl,resources/DP.BMP,resources/DG.BMP,Door4,-0.25460455,-0.011375948,1,0,0,0.5817,optionLeft,60,6360,3,23,0,23,0,1,,,,,,,,,,,,,,,,,,,,,,,,,,,,,,,,,,,,,,,
,,,,,,,,2023-08-24_08h15.56.371,HF_wild_card,2022.2.4,Win32,143.8228103,603ce90d158dc4ae761a15fa,64e63663dbcaf322d2eec8da,64e7039bb48d24a34a1af74a,,,,,,,ctch,resources/DB.BMP,resources/DP.BMP,Door4,0.315276273,-0.022210184,1,0,0,0.6861,optionRight,60,6420,3,24,0,24,0,1,,,,,,,,,,,,,,,,,,,,,,,,,,,,,,,,,,,,,,,
,,,,,,,,2023-08-24_08h15.56.371,HF_wild_card,2022.2.4,Win32,143.8228103,603ce90d158dc4ae761a15fa,64e63663dbcaf322d2eec8da,64e7039bb48d24a34a1af74a,,,,,,,decisionTrl,resources/DY.BMP,resources/DG.BMP,Door3,0.289274106,-0.00595883,1,0,0,2.0192,optionRight,70,6490,3,25,0,25,0,1,,,,,,,,,,,,,,,,,,,,,,,,,,,,,,,,,,,,,,,
,,,,,,,,2023-08-24_08h15.56.371,HF_wild_card,2022.2.4,Win32,143.8228103,603ce90d158dc4ae761a15fa,64e63663dbcaf322d2eec8da,64e7039bb48d24a34a1af74a,,,,,,,decisionTrl,resources/DP.BMP,resources/DG.BMP,Door4,-0.378114843,0.031960997,1,0,0,1.7971,optionLeft,80,6570,3,26,0,26,0,1,,,,,,,,,,,,,,,,,,,,,,,,,,,,,,,,,,,,,,,
,,,,,,,,2023-08-24_08h15.56.371,HF_wild_card,2022.2.4,Win32,143.8228103,603ce90d158dc4ae761a15fa,64e63663dbcaf322d2eec8da,64e7039bb48d24a34a1af74a,,,,,,,decisionTrl,resources/DY.BMP,resources/DBN.BMP,WildCard_Ex,-0.378114843,0.002708559,1,0,0,2.0675,optionLeft,5,6575,3,27,0,27,0,1,,,,,,,,,,,,,,,,,,,,,,,,,,,,,,,,,,,,,,,
,,,,,,,,2023-08-24_08h15.56.371,HF_wild_card,2022.2.4,Win32,143.8228103,603ce90d158dc4ae761a15fa,64e63663dbcaf322d2eec8da,64e7039bb48d24a34a1af74a,,,,,,,decisionTrl,resources/DB.BMP,resources/DBN.BMP,Door1,-0.264355363,0.007042254,1,0,0,2.1444,optionLeft,30,6605,3,28,0,28,0,1,,,,,,,,,,,,,,,,,,,,,,,,,,,,,,,,,,,,,,,
,,,,,,,,2023-08-24_08h15.56.371,HF_wild_card,2022.2.4,Win32,143.8228103,603ce90d158dc4ae761a15fa,64e63663dbcaf322d2eec8da,64e7039bb48d24a34a1af74a,,,,,,,sngl,resources/Empty.png,resources/DY.BMP,WildCard_Ex,0.199349946,-0.010292524,1,0,0,0.6995,optionRight,95,6700,3,29,0,29,0,1,,,,,,,,,,,,,,,,,,,,,,,,,,,,,,,,,,,,,,,
,,,,,,,,2023-08-24_08h15.56.371,HF_wild_card,2022.2.4,Win32,143.8228103,603ce90d158dc4ae761a15fa,64e63663dbcaf322d2eec8da,64e7039bb48d24a34a1af74a,,,,,,,sngl,resources/DP.BMP,resources/Empty.png,Door4,-0.399783315,0.000541712,1,0,0,0.4847,optionLeft,80,6780,3,30,0,30,0,1,,,,,,,,,,,,,,,,,,,,,,,,,,,,,,,,,,,,,,,
,,,,,,,,2023-08-24_08h15.56.371,HF_wild_card,2022.2.4,Win32,143.8228103,603ce90d158dc4ae761a15fa,64e63663dbcaf322d2eec8da,64e7039bb48d24a34a1af74a,,,,,,,sngl,resources/DY.BMP,resources/Empty.png,WildCard_Ex,-0.381365114,0.008125677,1,0,0,0.4776,optionLeft,95,6875,3,31,0,31,0,1,,,,,,,,,,,,,,,,,,,,,,,,,,,,,,,,,,,,,,,
,,,,,,,,2023-08-24_08h15.56.371,HF_wild_card,2022.2.4,Win32,143.8228103,603ce90d158dc4ae761a15fa,64e63663dbcaf322d2eec8da,64e7039bb48d24a34a1af74a,,,,,,,sngl,resources/Empty.png,resources/DBN.BMP,Door2,0.356446371,-0.020043337,1,0,0,0.7134,optionRight,20,6895,3,32,0,32,0,1,,,,,,,,,,,,,,,,,,,,,,,,,,,,,,,,,,,,,,,
,,,,,,,,2023-08-24_08h15.56.371,HF_wild_card,2022.2.4,Win32,143.8228103,603ce90d158dc4ae761a15fa,64e63663dbcaf322d2eec8da,64e7039bb48d24a34a1af74a,,,,,,,decisionTrl,resources/DP.BMP,resources/DY.BMP,Door4,-0.199349946,0.016793066,1,0,0,0.9286,optionLeft,80,6975,3,33,0,33,0,1,,,,,,,,,,,,,,,,,,,,,,,,,,,,,,,,,,,,,,,
,,,,,,,,2023-08-24_08h15.56.371,HF_wild_card,2022.2.4,Win32,143.8228103,603ce90d158dc4ae761a15fa,64e63663dbcaf322d2eec8da,64e7039bb48d24a34a1af74a,,,,,,,decisionTrl,resources/DB.BMP,resources/DY.BMP,WildCard_Ex,0.335861322,-0.011375948,1,0,0,2.3388,optionRight,95,7070,3,34,0,34,0,1,,,,,,,,,,,,,,,,,,,,,,,,,,,,,,,,,,,,,,,
,,,,,,,,2023-08-24_08h15.56.371,HF_wild_card,2022.2.4,Win32,143.8228103,603ce90d158dc4ae761a15fa,64e63663dbcaf322d2eec8da,64e7039bb48d24a34a1af74a,,,,,,,sngl,resources/DB.BMP,resources/Empty.png,Door1,-0.303358613,0.034127844,1,0,0,0.7138,optionLeft,30,7100,3,35,0,35,0,1,,,,,,,,,,,,,,,,,,,,,,,,,,,,,,,,,,,,,,,
,,,,,,,,2023-08-24_08h15.56.371,HF_wild_card,2022.2.4,Win32,143.8228103,603ce90d158dc4ae761a15fa,64e63663dbcaf322d2eec8da,64e7039bb48d24a34a1af74a,,,,,,,sngl,resources/DBN.BMP,resources/Empty.png,Door2,-0.256771398,0.031960997,1,0,0,0.948,optionLeft,40,7140,3,36,0,36,0,1,,,,,,,,,,,,,,,,,,,,,,,,,,,,,,,,,,,,,,,
,,,,,,,,2023-08-24_08h15.56.371,HF_wild_card,2022.2.4,Win32,143.8228103,603ce90d158dc4ae761a15fa,64e63663dbcaf322d2eec8da,64e7039bb48d24a34a1af74a,,,,,,,decisionTrl,resources/DBN.BMP,resources/DB.BMP,Door2,-0.34127844,0.049295775,1,0,0,3.1377,optionLeft,40,7180,3,37,0,37,0,1,,,,,,,,,,,,,,,,,,,,,,,,,,,,,,,,,,,,,,,
,,,,,,,,2023-08-24_08h15.56.371,HF_wild_card,2022.2.4,Win32,143.8228103,603ce90d158dc4ae761a15fa,64e63663dbcaf322d2eec8da,64e7039bb48d24a34a1af74a,,,,,,,decisionTrl,resources/DBN.BMP,resources/DB.BMP,Door2,-0.293607801,0.052546046,1,0,0,0.6786,optionLeft,40,7220,3,38,0,38,0,1,,,,,,,,,,,,,,,,,,,,,,,,,,,,,,,,,,,,,,,
,,,,,,,,2023-08-24_08h15.56.371,HF_wild_card,2022.2.4,Win32,143.8228103,603ce90d158dc4ae761a15fa,64e63663dbcaf322d2eec8da,64e7039bb48d24a34a1af74a,,,,,,,decisionTrl,resources/DBN.BMP,resources/DB.BMP,Door2,-0.293607801,0.03304442,1,0,0,0.4915,optionLeft,40,7260,3,39,0,39,0,1,,,,,,,,,,,,,,,,,,,,,,,,,,,,,,,,,,,,,,,
,,,,,,,,2023-08-24_08h15.56.371,HF_wild_card,2022.2.4,Win32,143.8228103,603ce90d158dc4ae761a15fa,64e63663dbcaf322d2eec8da,64e7039bb48d24a34a1af74a,,,,,,,ctch,resources/DB.BMP,resources/DP.BMP,Door4,0.249187432,0.001625135,1,0,0,3.9849,optionRight,60,7320,3,40,0,40,0,1,,,,,,,,,,,,,,,,,,,,,,,,,,,,,,,,,,,,,,,
,,,,,,,,2023-08-24_08h15.56.371,HF_wild_card,2022.2.4,Win32,143.8228103,603ce90d158dc4ae761a15fa,64e63663dbcaf322d2eec8da,64e7039bb48d24a34a1af74a,,,,,,,decisionTrl,resources/DBN.BMP,resources/DB.BMP,Door2,-0.195016251,-0.028710726,1,0,0,4.033,optionLeft,40,7360,3,41,0,41,0,1,,,,,,,,,,,,,,,,,,,,,,,,,,,,,,,,,,,,,,,
,,,,,,,,2023-08-24_08h15.56.371,HF_wild_card,2022.2.4,Win32,143.8228103,603ce90d158dc4ae761a15fa,64e63663dbcaf322d2eec8da,64e7039bb48d24a34a1af74a,,,,,,,sngl,resources/Empty.png,resources/DG.BMP,Door3,0.229685807,-0.036294691,1,0,0,0.693,optionRight,70,7430,3,42,0,42,0,1,,,,,,,,,,,,,,,,,,,,,,,,,,,,,,,,,,,,,,,
,,,,,,,,2023-08-24_08h15.56.371,HF_wild_card,2022.2.4,Win32,143.8228103,603ce90d158dc4ae761a15fa,64e63663dbcaf322d2eec8da,64e7039bb48d24a34a1af74a,,,,,,,decisionTrl,resources/DB.BMP,resources/DBN.BMP,Door2,0.399783315,-0.070964247,1,0,0,2.1793,optionRight,40,7470,3,43,0,43,0,1,,,,,,,,,,,,,,,,,,,,,,,,,,,,,,,,,,,,,,,
,,,,,,,,2023-08-24_08h15.56.371,HF_wild_card,2022.2.4,Win32,143.8228103,603ce90d158dc4ae761a15fa,64e63663dbcaf322d2eec8da,64e7039bb48d24a34a1af74a,,,,,,,,,,,,,,,,,,,,,,,,,,2,0,2,0,1,,,,,,,,,,,,,,,,,,,,,,,,,,,,,,,,,,
,,,,,,,,2023-08-24_08h15.56.371,HF_wild_card,2022.2.4,Win32,143.8228103,603ce90d158dc4ae761a15fa,64e63663dbcaf322d2eec8da,64e7039bb48d24a34a1af74a,,,,,,,ctch,resources/DBN.BMP,resources/DG.BMP,Door3,0.271939328,-0.066630553,1,0,0,1.0181,optionRight,70,7540,4,0,0,0,0,1,,,,,,,,,,,,,,,,,,,,,,,,,,,,,,,,,,,,,,,
,,,,,,,,2023-08-24_08h15.56.371,HF_wild_card,2022.2.4,Win32,143.8228103,603ce90d158dc4ae761a15fa,64e63663dbcaf322d2eec8da,64e7039bb48d24a34a1af74a,,,,,,,decisionTrl,resources/DG.BMP,resources/DP.BMP,Door4,0.391115926,-0.024377031,1,0,0,0.817,optionRight,60,7600,4,1,0,1,0,1,,,,,,,,,,,,,,,,,,,,,,,,,,,,,,,,,,,,,,,
,,,,,,,,2023-08-24_08h15.56.371,HF_wild_card,2022.2.4,Win32,143.8228103,603ce90d158dc4ae761a15fa,64e63663dbcaf322d2eec8da,64e7039bb48d24a34a1af74a,,,,,,,decisionTrl,resources/DG.BMP,resources/DR.BMP,WildCard_NonEx,0.318526544,-0.031960997,1,0,0,2.4912,optionRight,45,7645,4,2,0,2,0,1,,,,,,,,,,,,,,,,,,,,,,,,,,,,,,,,,,,,,,,
,,,,,,,,2023-08-24_08h15.56.371,HF_wild_card,2022.2.4,Win32,143.8228103,603ce90d158dc4ae761a15fa,64e63663dbcaf322d2eec8da,64e7039bb48d24a34a1af74a,,,,,,,sngl,resources/Empty.png,resources/DBN.BMP,Door2,0.388949079,-0.089382449,1,0,0,0.6508,optionRight,40,7685,4,3,0,3,0,1,,,,,,,,,,,,,,,,,,,,,,,,,,,,,,,,,,,,,,,
,,,,,,,,2023-08-24_08h15.56.371,HF_wild_card,2022.2.4,Win32,143.8228103,603ce90d158dc4ae761a15fa,64e63663dbcaf322d2eec8da,64e7039bb48d24a34a1af74a,,,,,,,decisionTrl,resources/DB.BMP,resources/DBN.BMP,Door1,-0.497291441,0.05687974,1,0,0,1.1928,optionLeft,30,7715,4,4,0,4,0,1,,,,,,,,,,,,,,,,,,,,,,,,,,,,,,,,,,,,,,,
,,,,,,,,2023-08-24_08h15.56.371,HF_wild_card,2022.2.4,Win32,143.8228103,603ce90d158dc4ae761a15fa,64e63663dbcaf322d2eec8da,64e7039bb48d24a34a1af74a,,,,,,,sngl,resources/Empty.png,resources/DG.BMP,Door3,0.30552546,-0.043878657,1,0,0,0.5123,optionRight,70,7785,4,5,0,5,0,1,,,,,,,,,,,,,,,,,,,,,,,,,,,,,,,,,,,,,,,
,,,,,,,,2023-08-24_08h15.56.371,HF_wild_card,2022.2.4,Win32,143.8228103,603ce90d158dc4ae761a15fa,64e63663dbcaf322d2eec8da,64e7039bb48d24a34a1af74a,,,,,,,ctch,resources/DG.BMP,resources/DBN.BMP,Door3,-0.198266522,-0.009209101,1,0,0,1.193,optionLeft,70,7855,4,6,0,6,0,1,,,,,,,,,,,,,,,,,,,,,,,,,,,,,,,,,,,,,,,
,,,,,,,,2023-08-24_08h15.56.371,HF_wild_card,2022.2.4,Win32,143.8228103,603ce90d158dc4ae761a15fa,64e63663dbcaf322d2eec8da,64e7039bb48d24a34a1af74a,,,,,,,decisionTrl,resources/DB.BMP,resources/DBN.BMP,Door2,0.277356446,0.014626219,1,0,0,1.7209,optionRight,40,7895,4,7,0,7,0,1,,,,,,,,,,,,,,,,,,,,,,,,,,,,,,,,,,,,,,,
,,,,,,,,2023-08-24_08h15.56.371,HF_wild_card,2022.2.4,Win32,143.8228103,603ce90d158dc4ae761a15fa,64e63663dbcaf322d2eec8da,64e7039bb48d24a34a1af74a,,,,,,,decisionTrl,resources/DP.BMP,resources/DG.BMP,Door4,-0.211267606,-0.003791983,1,0,0,0.9702,optionLeft,80,7975,4,8,0,8,0,1,,,,,,,,,,,,,,,,,,,,,,,,,,,,,,,,,,,,,,,
,,,,,,,,2023-08-24_08h15.56.371,HF_wild_card,2022.2.4,Win32,143.8228103,603ce90d158dc4ae761a15fa,64e63663dbcaf322d2eec8da,64e7039bb48d24a34a1af74a,,,,,,,sngl,resources/DR.BMP,resources/Empty.png,WildCard_NonEx,-0.242686891,0.008125677,1,0,0,1.0402,optionLeft,55,8030,4,9,0,9,0,1,,,,,,,,,,,,,,,,,,,,,,,,,,,,,,,,,,,,,,,
,,,,,,,,2023-08-24_08h15.56.371,HF_wild_card,2022.2.4,Win32,143.8228103,603ce90d158dc4ae761a15fa,64e63663dbcaf322d2eec8da,64e7039bb48d24a34a1af74a,,,,,,,decisionTrl,resources/DBN.BMP,resources/DB.BMP,Door2,-0.358613218,-0.067713976,1,0,0,2.7971,optionLeft,20,8050,4,10,0,10,0,1,,,,,,,,,,,,,,,,,,,,,,,,,,,,,,,,,,,,,,,
,,,,,,,,2023-08-24_08h15.56.371,HF_wild_card,2022.2.4,Win32,143.8228103,603ce90d158dc4ae761a15fa,64e63663dbcaf322d2eec8da,64e7039bb48d24a34a1af74a,,,,,,,decisionTrl,resources/DP.BMP,resources/DG.BMP,Door4,-0.36836403,-0.004875406,1,0,0,0.6578,optionLeft,80,8130,4,11,0,11,0,1,,,,,,,,,,,,,,,,,,,,,,,,,,,,,,,,,,,,,,,
,,,,,,,,2023-08-24_08h15.56.371,HF_wild_card,2022.2.4,Win32,143.8228103,603ce90d158dc4ae761a15fa,64e63663dbcaf322d2eec8da,64e7039bb48d24a34a1af74a,,,,,,,sngl,resources/DB.BMP,resources/Empty.png,Door1,-0.279523294,0.010292524,1,0,0,0.4913,optionLeft,30,8160,4,12,0,12,0,1,,,,,,,,,,,,,,,,,,,,,,,,,,,,,,,,,,,,,,,
,,,,,,,,2023-08-24_08h15.56.371,HF_wild_card,2022.2.4,Win32,143.8228103,603ce90d158dc4ae761a15fa,64e63663dbcaf322d2eec8da,64e7039bb48d24a34a1af74a,,,,,,,sngl,resources/DBN.BMP,resources/Empty.png,Door2,-0.399783315,0.051462622,1,0,0,0.5885,optionLeft,20,8180,4,13,0,13,0,1,,,,,,,,,,,,,,,,,,,,,,,,,,,,,,,,,,,,,,,
,,,,,,,,2023-08-24_08h15.56.371,HF_wild_card,2022.2.4,Win32,143.8228103,603ce90d158dc4ae761a15fa,64e63663dbcaf322d2eec8da,64e7039bb48d24a34a1af74a,,,,,,,decisionTrl,resources/DG.BMP,resources/DP.BMP,Door4,0.460455038,0.00595883,1,0,0,1.165,optionRight,60,8240,4,14,0,14,0,1,,,,,,,,,,,,,,,,,,,,,,,,,,,,,,,,,,,,,,,
,,,,,,,,2023-08-24_08h15.56.371,HF_wild_card,2022.2.4,Win32,143.8228103,603ce90d158dc4ae761a15fa,64e63663dbcaf322d2eec8da,64e7039bb48d24a34a1af74a,,,,,,,sngl,resources/DP.BMP,resources/Empty.png,Door4,-0.453954496,0.075297941,1,0,0,0.5886,optionLeft,60,8300,4,15,0,15,0,1,,,,,,,,,,,,,,,,,,,,,,,,,,,,,,,,,,,,,,,
,,,,,,,,2023-08-24_08h15.56.371,HF_wild_card,2022.2.4,Win32,143.8228103,603ce90d158dc4ae761a15fa,64e63663dbcaf322d2eec8da,64e7039bb48d24a34a1af74a,,,,,,,sngl,resources/Empty.png,resources/DR.BMP,WildCard_NonEx,0.365113759,-0.016793066,1,0,0,0.4912,optionRight,45,8345,4,16,0,16,0,1,,,,,,,,,,,,,,,,,,,,,,,,,,,,,,,,,,,,,,,
,,,,,,,,2023-08-24_08h15.56.371,HF_wild_card,2022.2.4,Win32,143.8228103,603ce90d158dc4ae761a15fa,64e63663dbcaf322d2eec8da,64e7039bb48d24a34a1af74a,,,,,,,sngl,resources/DR.BMP,resources/Empty.png,WildCard_NonEx,-0.332611051,0.021126761,1,0,0,0.4221,optionLeft,45,8390,4,17,0,17,0,1,,,,,,,,,,,,,,,,,,,,,,,,,,,,,,,,,,,,,,,
,,,,,,,,2023-08-24_08h15.56.371,HF_wild_card,2022.2.4,Win32,143.8228103,603ce90d158dc4ae761a15fa,64e63663dbcaf322d2eec8da,64e7039bb48d24a34a1af74a,,,,,,,decisionTrl,resources/DP.BMP,resources/DG.BMP,Door4,-0.260021668,0.007042254,1,0,0,0.5611,optionLeft,80,8470,4,18,0,18,0,1,,,,,,,,,,,,,,,,,,,,,,,,,,,,,,,,,,,,,,,
,,,,,,,,2023-08-24_08h15.56.371,HF_wild_card,2022.2.4,Win32,143.8228103,603ce90d158dc4ae761a15fa,64e63663dbcaf322d2eec8da,64e7039bb48d24a34a1af74a,,,,,,,sngl,resources/Empty.png,resources/DP.BMP,Door4,0.379198267,-0.020043337,1,0,0,0.4351,optionRight,80,8550,4,19,0,19,0,1,,,,,,,,,,,,,,,,,,,,,,,,,,,,,,,,,,,,,,,
,,,,,,,,2023-08-24_08h15.56.371,HF_wild_card,2022.2.4,Win32,143.8228103,603ce90d158dc4ae761a15fa,64e63663dbcaf322d2eec8da,64e7039bb48d24a34a1af74a,,,,,,,ctch,resources/DP.BMP,resources/DB.BMP,Door4,-0.391115926,0.001625135,1,0,0,0.4287,optionLeft,60,8610,4,20,0,20,0,1,,,,,,,,,,,,,,,,,,,,,,,,,,,,,,,,,,,,,,,
,,,,,,,,2023-08-24_08h15.56.371,HF_wild_card,2022.2.4,Win32,143.8228103,603ce90d158dc4ae761a15fa,64e63663dbcaf322d2eec8da,64e7039bb48d24a34a1af74a,,,,,,,decisionTrl,resources/DG.BMP,resources/DP.BMP,Door4,0.283856988,-0.036294691,1,0,0,0.4566,optionRight,80,8690,4,21,0,21,0,1,,,,,,,,,,,,,,,,,,,,,,,,,,,,,,,,,,,,,,,
,,,,,,,,2023-08-24_08h15.56.371,HF_wild_card,2022.2.4,Win32,143.8228103,603ce90d158dc4ae761a15fa,64e63663dbcaf322d2eec8da,64e7039bb48d24a34a1af74a,,,,,,,decisionTrl,resources/DP.BMP,resources/DR.BMP,Door4,-0.61971831,0.028710726,1,0,0,1.3047,optionLeft,80,8770,4,22,0,22,0,1,,,,,,,,,,,,,,,,,,,,,,,,,,,,,,,,,,,,,,,
,,,,,,,,2023-08-24_08h15.56.371,HF_wild_card,2022.2.4,Win32,143.8228103,603ce90d158dc4ae761a15fa,64e63663dbcaf322d2eec8da,64e7039bb48d24a34a1af74a,,,,,,,decisionTrl,resources/DR.BMP,resources/DBN.BMP,WildCard_NonEx,-0.372697725,0.03304442,1,0,0,0.9288,optionLeft,45,8815,4,23,0,23,0,1,,,,,,,,,,,,,,,,,,,,,,,,,,,,,,,,,,,,,,,
,,,,,,,,2023-08-24_08h15.56.371,HF_wild_card,2022.2.4,Win32,143.8228103,603ce90d158dc4ae761a15fa,64e63663dbcaf322d2eec8da,64e7039bb48d24a34a1af74a,,,,,,,sngl,resources/Empty.png,resources/DR.BMP,WildCard_NonEx,0.39219935,0.003791983,1,0,0,0.4358,optionRight,55,8870,4,24,0,24,0,1,,,,,,,,,,,,,,,,,,,,,,,,,,,,,,,,,,,,,,,
,,,,,,,,2023-08-24_08h15.56.371,HF_wild_card,2022.2.4,Win32,143.8228103,603ce90d158dc4ae761a15fa,64e63663dbcaf322d2eec8da,64e7039bb48d24a34a1af74a,,,,,,,ctch,resources/DB.BMP,resources/DP.BMP,Door4,0.395449621,-0.04496208,1,0,0,1.1028,optionRight,80,8950,4,25,0,25,0,1,,,,,,,,,,,,,,,,,,,,,,,,,,,,,,,,,,,,,,,
,,,,,,,,2023-08-24_08h15.56.371,HF_wild_card,2022.2.4,Win32,143.8228103,603ce90d158dc4ae761a15fa,64e63663dbcaf322d2eec8da,64e7039bb48d24a34a1af74a,,,,,,,ctch,resources/DP.BMP,resources/DB.BMP,Door4,-0.359696641,0.028710726,1,0,0,0.4845,optionLeft,80,9030,4,26,0,26,0,1,,,,,,,,,,,,,,,,,,,,,,,,,,,,,,,,,,,,,,,
,,,,,,,,2023-08-24_08h15.56.371,HF_wild_card,2022.2.4,Win32,143.8228103,603ce90d158dc4ae761a15fa,64e63663dbcaf322d2eec8da,64e7039bb48d24a34a1af74a,,,,,,,decisionTrl,resources/DP.BMP,resources/DG.BMP,Door4,-0.256771398,0.002708559,1,0,0,0.4638,optionLeft,60,9090,4,27,0,27,0,1,,,,,,,,,,,,,,,,,,,,,,,,,,,,,,,,,,,,,,,
,,,,,,,,2023-08-24_08h15.56.371,HF_wild_card,2022.2.4,Win32,143.8228103,603ce90d158dc4ae761a15fa,64e63663dbcaf322d2eec8da,64e7039bb48d24a34a1af74a,,,,,,,decisionTrl,resources/DG.BMP,resources/DP.BMP,Door4,0.372697725,-0.013542795,1,0,0,0.4637,optionRight,80,9170,4,28,0,28,0,1,,,,,,,,,,,,,,,,,,,,,,,,,,,,,,,,,,,,,,,
,,,,,,,,2023-08-24_08h15.56.371,HF_wild_card,2022.2.4,Win32,143.8228103,603ce90d158dc4ae761a15fa,64e63663dbcaf322d2eec8da,64e7039bb48d24a34a1af74a,,,,,,,decisionTrl,resources/DR.BMP,resources/DB.BMP,WildCard_NonEx,-0.423618635,0.048212351,1,0,0,1.1786,optionLeft,55,9225,4,29,0,29,0,1,,,,,,,,,,,,,,,,,,,,,,,,,,,,,,,,,,,,,,,
,,,,,,,,2023-08-24_08h15.56.371,HF_wild_card,2022.2.4,Win32,143.8228103,603ce90d158dc4ae761a15fa,64e63663dbcaf322d2eec8da,64e7039bb48d24a34a1af74a,,,,,,,decisionTrl,resources/DB.BMP,resources/DBN.BMP,Door2,0.295774648,-0.008125677,1,0,0,1.2827,optionRight,20,9245,4,30,0,30,0,1,,,,,,,,,,,,,,,,,,,,,,,,,,,,,,,,,,,,,,,
,,,,,,,,2023-08-24_08h15.56.371,HF_wild_card,2022.2.4,Win32,143.8228103,603ce90d158dc4ae761a15fa,64e63663dbcaf322d2eec8da,64e7039bb48d24a34a1af74a,,,,,,,ctch,resources/DBN.BMP,resources/DG.BMP,Door3,0.304442037,-0.010292524,1,0,0,1.6375,optionRight,70,9315,4,31,0,31,0,1,,,,,,,,,,,,,,,,,,,,,,,,,,,,,,,,,,,,,,,
,,,,,,,,2023-08-24_08h15.56.371,HF_wild_card,2022.2.4,Win32,143.8228103,603ce90d158dc4ae761a15fa,64e63663dbcaf322d2eec8da,64e7039bb48d24a34a1af74a,,,,,,,decisionTrl,resources/DB.BMP,resources/DBN.BMP,Door1,-0.469122427,0.048212351,1,0,0,0.9221,optionLeft,30,9345,4,32,0,32,0,1,,,,,,,,,,,,,,,,,,,,,,,,,,,,,,,,,,,,,,,
,,,,,,,,2023-08-24_08h15.56.371,HF_wild_card,2022.2.4,Win32,143.8228103,603ce90d158dc4ae761a15fa,64e63663dbcaf322d2eec8da,64e7039bb48d24a34a1af74a,,,,,,,decisionTrl,resources/DBN.BMP,resources/DB.BMP,Door1,0.260021668,-0.004875406,1,0,0,0.9989,optionRight,30,9375,4,33,0,33,0,1,,,,,,,,,,,,,,,,,,,,,,,,,,,,,,,,,,,,,,,
,,,,,,,,2023-08-24_08h15.56.371,HF_wild_card,2022.2.4,Win32,143.8228103,603ce90d158dc4ae761a15fa,64e63663dbcaf322d2eec8da,64e7039bb48d24a34a1af74a,,,,,,,decisionTrl,resources/DBN.BMP,resources/DB.BMP,Door1,0.177681473,0.024377031,1,0,0,0.6443,optionRight,30,9405,4,34,0,34,0,1,,,,,,,,,,,,,,,,,,,,,,,,,,,,,,,,,,,,,,,
,,,,,,,,2023-08-24_08h15.56.371,HF_wild_card,2022.2.4,Win32,143.8228103,603ce90d158dc4ae761a15fa,64e63663dbcaf322d2eec8da,64e7039bb48d24a34a1af74a,,,,,,,decisionTrl,resources/DBN.BMP,resources/DR.BMP,WildCard_NonEx,0.221018418,-0.009209101,1,0,0,0.7763,optionRight,45,9450,4,35,0,35,0,1,,,,,,,,,,,,,,,,,,,,,,,,,,,,,,,,,,,,,,,
,,,,,,,,2023-08-24_08h15.56.371,HF_wild_card,2022.2.4,Win32,143.8228103,603ce90d158dc4ae761a15fa,64e63663dbcaf322d2eec8da,64e7039bb48d24a34a1af74a,,,,,,,sngl,resources/DG.BMP,resources/Empty.png,Door3,-0.321776815,-0.004875406,1,0,0,0.6579,optionLeft,70,9520,4,36,0,36,0,1,,,,,,,,,,,,,,,,,,,,,,,,,,,,,,,,,,,,,,,
,,,,,,,,2023-08-24_08h15.56.371,HF_wild_card,2022.2.4,Win32,143.8228103,603ce90d158dc4ae761a15fa,64e63663dbcaf322d2eec8da,64e7039bb48d24a34a1af74a,,,,,,,ctch,resources/DG.BMP,resources/DBN.BMP,Door3,-0.300108342,-0.009209101,1,0,0,1.3998,optionLeft,70,9590,4,37,0,37,0,1,,,,,,,,,,,,,,,,,,,,,,,,,,,,,,,,,,,,,,,
,,,,,,,,2023-08-24_08h15.56.371,HF_wild_card,2022.2.4,Win32,143.8228103,603ce90d158dc4ae761a15fa,64e63663dbcaf322d2eec8da,64e7039bb48d24a34a1af74a,,,,,,,decisionTrl,resources/DBN.BMP,resources/DB.BMP,Door2,-0.47020585,-0.004875406,1,0,0,1.8874,optionLeft,20,9610,4,38,0,38,0,1,,,,,,,,,,,,,,,,,,,,,,,,,,,,,,,,,,,,,,,
,,,,,,,,2023-08-24_08h15.56.371,HF_wild_card,2022.2.4,Win32,143.8228103,603ce90d158dc4ae761a15fa,64e63663dbcaf322d2eec8da,64e7039bb48d24a34a1af74a,,,,,,,decisionTrl,resources/DB.BMP,resources/DR.BMP,WildCard_NonEx,0.30552546,-0.000541712,1,0,0,1.2342,optionRight,55,9665,4,39,0,39,0,1,,,,,,,,,,,,,,,,,,,,,,,,,,,,,,,,,,,,,,,
,,,,,,,,2023-08-24_08h15.56.371,HF_wild_card,2022.2.4,Win32,143.8228103,603ce90d158dc4ae761a15fa,64e63663dbcaf322d2eec8da,64e7039bb48d24a34a1af74a,,,,,,,ctch,resources/DB.BMP,resources/DP.BMP,Door4,0.301191766,0.021126761,1,0,0,0.707,optionRight,80,9745,4,40,0,40,0,1,,,,,,,,,,,,,,,,,,,,,,,,,,,,,,,,,,,,,,,
,,,,,,,,2023-08-24_08h15.56.371,HF_wild_card,2022.2.4,Win32,143.8228103,603ce90d158dc4ae761a15fa,64e63663dbcaf322d2eec8da,64e7039bb48d24a34a1af74a,,,,,,,decisionTrl,resources/DR.BMP,resources/DP.BMP,Door4,0.38028169,-0.035211268,1,0,0,1.2832,optionRight,60,9805,4,41,0,41,0,1,,,,,,,,,,,,,,,,,,,,,,,,,,,,,,,,,,,,,,,
,,,,,,,,2023-08-24_08h15.56.371,HF_wild_card,2022.2.4,Win32,143.8228103,603ce90d158dc4ae761a15fa,64e63663dbcaf322d2eec8da,64e7039bb48d24a34a1af74a,,,,,,,sngl,resources/Empty.png,resources/DB.BMP,Door1,0.282773564,0.002708559,1,0,0,0.6861,optionRight,30,9835,4,42,0,42,0,1,,,,,,,,,,,,,,,,,,,,,,,,,,,,,,,,,,,,,,,
,,,,,,,,2023-08-24_08h15.56.371,HF_wild_card,2022.2.4,Win32,143.8228103,603ce90d158dc4ae761a15fa,64e63663dbcaf322d2eec8da,64e7039bb48d24a34a1af74a,,,,,,,decisionTrl,resources/DR.BMP,resources/DG.BMP,WildCard_NonEx,-0.354279523,0.064463705,1,0,0,1.1927,optionLeft,45,9880,4,43,0,43,0,1,,,,,,,,,,,,,,,,,,,,,,,,,,,,,,,,,,,,,,,
,,,,,,,,2023-08-24_08h15.56.371,HF_wild_card,2022.2.4,Win32,143.8228103,603ce90d158dc4ae761a15fa,64e63663dbcaf322d2eec8da,64e7039bb48d24a34a1af74a,,,,,,,,,,,,,,,,,,,,,,,,,,3,0,3,0,1,,,,,,,,,,,,,,,,,,,,,,,,,,,,,,,,,,
,,,,,,,,2023-08-24_08h15.56.371,HF_wild_card,2022.2.4,Win32,143.8228103,603ce90d158dc4ae761a15fa,64e63663dbcaf322d2eec8da,64e7039bb48d24a34a1af74a,,,,,,,decisionTrl,resources/DG.BMP,resources/DP.BMP,Door4,0.375947996,-0.091549296,1,0,0,1.0738,optionRight,80,9960,5,0,0,0,0,1,,,,,,,,,,,,,,,,,,,,,,,,,,,,,,,,,,,,,,,
,,,,,,,,2023-08-24_08h15.56.371,HF_wild_card,2022.2.4,Win32,143.8228103,603ce90d158dc4ae761a15fa,64e63663dbcaf322d2eec8da,64e7039bb48d24a34a1af74a,,,,,,,decisionTrl,resources/DP.BMP,resources/DG.BMP,Door4,-0.401950163,0.052546046,1,0,0,1.2344,optionLeft,60,10020,5,1,0,1,0,1,,,,,,,,,,,,,,,,,,,,,,,,,,,,,,,,,,,,,,,
,,,,,,,,2023-08-24_08h15.56.371,HF_wild_card,2022.2.4,Win32,143.8228103,603ce90d158dc4ae761a15fa,64e63663dbcaf322d2eec8da,64e7039bb48d24a34a1af74a,,,,,,,decisionTrl,resources/DG.BMP,resources/DR.BMP,Door3,-0.342361863,0.048212351,1,0,0,0.9984,optionLeft,70,10090,5,2,0,2,0,1,,,,,,,,,,,,,,,,,,,,,,,,,,,,,,,,,,,,,,,
,,,,,,,,2023-08-24_08h15.56.371,HF_wild_card,2022.2.4,Win32,143.8228103,603ce90d158dc4ae761a15fa,64e63663dbcaf322d2eec8da,64e7039bb48d24a34a1af74a,,,,,,,decisionTrl,resources/DB.BMP,resources/DBN.BMP,Door2,0.303358613,0.023293608,1,0,0,1.5048,optionRight,20,10110,5,3,0,3,0,1,,,,,,,,,,,,,,,,,,,,,,,,,,,,,,,,,,,,,,,
,,,,,,,,2023-08-24_08h15.56.371,HF_wild_card,2022.2.4,Win32,143.8228103,603ce90d158dc4ae761a15fa,64e63663dbcaf322d2eec8da,64e7039bb48d24a34a1af74a,,,,,,,sngl,resources/DP.BMP,resources/Empty.png,Door4,-0.212351029,0.020043337,1,0,0,0.4913,optionLeft,80,10190,5,4,0,4,0,1,,,,,,,,,,,,,,,,,,,,,,,,,,,,,,,,,,,,,,,
,,,,,,,,2023-08-24_08h15.56.371,HF_wild_card,2022.2.4,Win32,143.8228103,603ce90d158dc4ae761a15fa,64e63663dbcaf322d2eec8da,64e7039bb48d24a34a1af74a,,,,,,,decisionTrl,resources/DB.BMP,resources/DBN.BMP,Door1,-0.401950163,0.035211268,1,0,0,0.7276,optionLeft,30,10220,5,5,0,5,0,1,,,,,,,,,,,,,,,,,,,,,,,,,,,,,,,,,,,,,,,
,,,,,,,,2023-08-24_08h15.56.371,HF_wild_card,2022.2.4,Win32,143.8228103,603ce90d158dc4ae761a15fa,64e63663dbcaf322d2eec8da,64e7039bb48d24a34a1af74a,,,,,,,decisionTrl,resources/DB.BMP,resources/DBN.BMP,Door1,-0.297941495,0.0687974,1,0,0,0.7553,optionLeft,30,10250,5,6,0,6,0,1,,,,,,,,,,,,,,,,,,,,,,,,,,,,,,,,,,,,,,,
,,,,,,,,2023-08-24_08h15.56.371,HF_wild_card,2022.2.4,Win32,143.8228103,603ce90d158dc4ae761a15fa,64e63663dbcaf322d2eec8da,64e7039bb48d24a34a1af74a,,,,,,,sngl,resources/Empty.png,resources/DB.BMP,Door1,0.434452871,-0.024377031,1,0,0,0.4569,optionRight,30,10280,5,7,0,7,0,1,,,,,,,,,,,,,,,,,,,,,,,,,,,,,,,,,,,,,,,
,,,,,,,,2023-08-24_08h15.56.371,HF_wild_card,2022.2.4,Win32,143.8228103,603ce90d158dc4ae761a15fa,64e63663dbcaf322d2eec8da,64e7039bb48d24a34a1af74a,,,,,,,decisionTrl,resources/DR.BMP,resources/DG.BMP,Door3,0.343445287,-0.065547129,1,0,0,0.9429,optionRight,70,10350,5,8,0,8,0,1,,,,,,,,,,,,,,,,,,,,,,,,,,,,,,,,,,,,,,,
,,,,,,,,2023-08-24_08h15.56.371,HF_wild_card,2022.2.4,Win32,143.8228103,603ce90d158dc4ae761a15fa,64e63663dbcaf322d2eec8da,64e7039bb48d24a34a1af74a,,,,,,,sngl,resources/DB.BMP,resources/Empty.png,Door1,-0.348862405,0.048212351,1,0,0,0.5883,optionLeft,30,10380,5,9,0,9,0,1,,,,,,,,,,,,,,,,,,,,,,,,,,,,,,,,,,,,,,,
,,,,,,,,2023-08-24_08h15.56.371,HF_wild_card,2022.2.4,Win32,143.8228103,603ce90d158dc4ae761a15fa,64e63663dbcaf322d2eec8da,64e7039bb48d24a34a1af74a,,,,,,,ctch,resources/DBN.BMP,resources/DG.BMP,Door3,0.332611051,-0.037378115,1,0,0,0.748,optionRight,70,10450,5,10,0,10,0,1,,,,,,,,,,,,,,,,,,,,,,,,,,,,,,,,,,,,,,,
,,,,,,,,2023-08-24_08h15.56.371,HF_wild_card,2022.2.4,Win32,143.8228103,603ce90d158dc4ae761a15fa,64e63663dbcaf322d2eec8da,64e7039bb48d24a34a1af74a,,,,,,,decisionTrl,resources/DG.BMP,resources/DP.BMP,Door4,0.307692308,-0.00595883,1,0,0,0.5612,optionRight,60,10510,5,11,0,11,0,1,,,,,,,,,,,,,,,,,,,,,,,,,,,,,,,,,,,,,,,
,,,,,,,,2023-08-24_08h15.56.371,HF_wild_card,2022.2.4,Win32,143.8228103,603ce90d158dc4ae761a15fa,64e63663dbcaf322d2eec8da,64e7039bb48d24a34a1af74a,,,,,,,sngl,resources/Empty.png,resources/DBN.BMP,Door2,0.274106176,-0.024377031,1,0,0,0.8369,optionRight,20,10530,5,12,0,12,0,1,,,,,,,,,,,,,,,,,,,,,,,,,,,,,,,,,,,,,,,
,,,,,,,,2023-08-24_08h15.56.371,HF_wild_card,2022.2.4,Win32,143.8228103,603ce90d158dc4ae761a15fa,64e63663dbcaf322d2eec8da,64e7039bb48d24a34a1af74a,,,,,,,sngl,resources/Empty.png,resources/DP.BMP,Door4,0.340195016,-0.009209101,1,0,0,0.45,optionRight,60,10590,5,13,0,13,0,1,,,,,,,,,,,,,,,,,,,,,,,,,,,,,,,,,,,,,,,
,,,,,,,,2023-08-24_08h15.56.371,HF_wild_card,2022.2.4,Win32,143.8228103,603ce90d158dc4ae761a15fa,64e63663dbcaf322d2eec8da,64e7039bb48d24a34a1af74a,,,,,,,decisionTrl,resources/DBN.BMP,resources/DB.BMP,Door1,0.316359697,-0.03304442,1,0,0,0.9984,optionRight,30,10620,5,14,0,14,0,1,,,,,,,,,,,,,,,,,,,,,,,,,,,,,,,,,,,,,,,
,,,,,,,,2023-08-24_08h15.56.371,HF_wild_card,2022.2.4,Win32,143.8228103,603ce90d158dc4ae761a15fa,64e63663dbcaf322d2eec8da,64e7039bb48d24a34a1af74a,,,,,,,ctch,resources/DBN.BMP,resources/DG.BMP,Door3,0.361863489,-0.039544962,1,0,0,0.8664,optionRight,70,10690,5,15,0,15,0,1,,,,,,,,,,,,,,,,,,,,,,,,,,,,,,,,,,,,,,,
,,,,,,,,2023-08-24_08h15.56.371,HF_wild_card,2022.2.4,Win32,143.8228103,603ce90d158dc4ae761a15fa,64e63663dbcaf322d2eec8da,64e7039bb48d24a34a1af74a,,,,,,,sngl,resources/DR.BMP,resources/Empty.png,WildCard_NonEx,-0.382448537,0.023293608,1,0,0,0.5955,optionLeft,55,10745,5,16,0,16,0,1,,,,,,,,,,,,,,,,,,,,,,,,,,,,,,,,,,,,,,,
,,,,,,,,2023-08-24_08h15.56.371,HF_wild_card,2022.2.4,Win32,143.8228103,603ce90d158dc4ae761a15fa,64e63663dbcaf322d2eec8da,64e7039bb48d24a34a1af74a,,,,,,,ctch,resources/DB.BMP,resources/DP.BMP,Door4,0.303358613,-0.04496208,1,0,0,0.5746,optionRight,60,10805,5,17,0,17,0,1,,,,,,,,,,,,,,,,,,,,,,,,,,,,,,,,,,,,,,,
,,,,,,,,2023-08-24_08h15.56.371,HF_wild_card,2022.2.4,Win32,143.8228103,603ce90d158dc4ae761a15fa,64e63663dbcaf322d2eec8da,64e7039bb48d24a34a1af74a,,,,,,,ctch,resources/DB.BMP,resources/DP.BMP,Door4,0.307692308,-0.014626219,1,0,0,0.5122,optionRight,80,10885,5,18,0,18,0,1,,,,,,,,,,,,,,,,,,,,,,,,,,,,,,,,,,,,,,,
,,,,,,,,2023-08-24_08h15.56.371,HF_wild_card,2022.2.4,Win32,143.8228103,603ce90d158dc4ae761a15fa,64e63663dbcaf322d2eec8da,64e7039bb48d24a34a1af74a,,,,,,,decisionTrl,resources/DB.BMP,resources/DBN.BMP,Door1,-0.255687974,0.038461538,1,0,0,1.5544,optionLeft,30,10915,5,19,0,19,0,1,,,,,,,,,,,,,,,,,,,,,,,,,,,,,,,,,,,,,,,
,,,,,,,,2023-08-24_08h15.56.371,HF_wild_card,2022.2.4,Win32,143.8228103,603ce90d158dc4ae761a15fa,64e63663dbcaf322d2eec8da,64e7039bb48d24a34a1af74a,,,,,,,ctch,resources/DP.BMP,resources/DB.BMP,Door4,-0.322860238,0.060130011,1,0,0,0.6931,optionLeft,60,10975,5,20,0,20,0,1,,,,,,,,,,,,,,,,,,,,,,,,,,,,,,,,,,,,,,,
,,,,,,,,2023-08-24_08h15.56.371,HF_wild_card,2022.2.4,Win32,143.8228103,603ce90d158dc4ae761a15fa,64e63663dbcaf322d2eec8da,64e7039bb48d24a34a1af74a,,,,,,,decisionTrl,resources/DR.BMP,resources/DBN.BMP,WildCard_NonEx,-0.225352113,0.024377031,1,0,0,1.325,optionLeft,55,11030,5,21,0,21,0,1,,,,,,,,,,,,,,,,,,,,,,,,,,,,,,,,,,,,,,,
,,,,,,,,2023-08-24_08h15.56.371,HF_wild_card,2022.2.4,Win32,143.8228103,603ce90d158dc4ae761a15fa,64e63663dbcaf322d2eec8da,64e7039bb48d24a34a1af74a,,,,,,,decisionTrl,resources/DP.BMP,resources/DR.BMP,Door4,-0.399783315,0.05687974,1,0,0,0.7553,optionLeft,80,11110,5,22,0,22,0,1,,,,,,,,,,,,,,,,,,,,,,,,,,,,,,,,,,,,,,,
,,,,,,,,2023-08-24_08h15.56.371,HF_wild_card,2022.2.4,Win32,143.8228103,603ce90d158dc4ae761a15fa,64e63663dbcaf322d2eec8da,64e7039bb48d24a34a1af74a,,,,,,,sngl,resources/DBN.BMP,resources/Empty.png,Door2,-0.30227519,0.043878657,1,0,0,0.8244,optionLeft,40,11150,5,23,0,23,0,1,,,,,,,,,,,,,,,,,,,,,,,,,,,,,,,,,,,,,,,
,,,,,,,,2023-08-24_08h15.56.371,HF_wild_card,2022.2.4,Win32,143.8228103,603ce90d158dc4ae761a15fa,64e63663dbcaf322d2eec8da,64e7039bb48d24a34a1af74a,,,,,,,sngl,resources/Empty.png,resources/DR.BMP,WildCard_NonEx,0.660888407,-0.053629469,1,0,0,0.6514,optionRight,55,11205,5,24,0,24,0,1,,,,,,,,,,,,,,,,,,,,,,,,,,,,,,,,,,,,,,,
,,,,,,,,2023-08-24_08h15.56.371,HF_wild_card,2022.2.4,Win32,143.8228103,603ce90d158dc4ae761a15fa,64e63663dbcaf322d2eec8da,64e7039bb48d24a34a1af74a,,,,,,,decisionTrl,resources/DR.BMP,resources/DP.BMP,Door4,0.370530878,-0.018959913,1,0,0,0.8243,optionRight,60,11265,5,25,0,25,0,1,,,,,,,,,,,,,,,,,,,,,,,,,,,,,,,,,,,,,,,
,,,,,,,,2023-08-24_08h15.56.371,HF_wild_card,2022.2.4,Win32,143.8228103,603ce90d158dc4ae761a15fa,64e63663dbcaf322d2eec8da,64e7039bb48d24a34a1af74a,,,,,,,decisionTrl,resources/DP.BMP,resources/DG.BMP,Door4,-0.25135428,0.073131094,1,0,0,0.6583,optionLeft,80,11345,5,26,0,26,0,1,,,,,,,,,,,,,,,,,,,,,,,,,,,,,,,,,,,,,,,
,,,,,,,,2023-08-24_08h15.56.371,HF_wild_card,2022.2.4,Win32,143.8228103,603ce90d158dc4ae761a15fa,64e63663dbcaf322d2eec8da,64e7039bb48d24a34a1af74a,,,,,,,decisionTrl,resources/DBN.BMP,resources/DB.BMP,Door1,0.292524377,-0.027627302,1,0,0,1.0123,optionRight,30,11375,5,27,0,27,0,1,,,,,,,,,,,,,,,,,,,,,,,,,,,,,,,,,,,,,,,
,,,,,,,,2023-08-24_08h15.56.371,HF_wild_card,2022.2.4,Win32,143.8228103,603ce90d158dc4ae761a15fa,64e63663dbcaf322d2eec8da,64e7039bb48d24a34a1af74a,,,,,,,decisionTrl,resources/DBN.BMP,resources/DB.BMP,Door1,0.283856988,-0.04496208,1,0,0,0.6581,optionRight,30,11405,5,28,0,28,0,1,,,,,,,,,,,,,,,,,,,,,,,,,,,,,,,,,,,,,,,
,,,,,,,,2023-08-24_08h15.56.371,HF_wild_card,2022.2.4,Win32,143.8228103,603ce90d158dc4ae761a15fa,64e63663dbcaf322d2eec8da,64e7039bb48d24a34a1af74a,,,,,,,decisionTrl,resources/DG.BMP,resources/DP.BMP,Door4,0.348862405,-0.024377031,1,0,0,0.728,optionRight,60,11465,5,29,0,29,0,1,,,,,,,,,,,,,,,,,,,,,,,,,,,,,,,,,,,,,,,
,,,,,,,,2023-08-24_08h15.56.371,HF_wild_card,2022.2.4,Win32,143.8228103,603ce90d158dc4ae761a15fa,64e63663dbcaf322d2eec8da,64e7039bb48d24a34a1af74a,,,,,,,decisionTrl,resources/DP.BMP,resources/DG.BMP,Door4,-0.318526544,0.063380282,1,0,0,0.5678,optionLeft,60,11525,5,30,0,30,0,1,,,,,,,,,,,,,,,,,,,,,,,,,,,,,,,,,,,,,,,
,,,,,,,,2023-08-24_08h15.56.371,HF_wild_card,2022.2.4,Win32,143.8228103,603ce90d158dc4ae761a15fa,64e63663dbcaf322d2eec8da,64e7039bb48d24a34a1af74a,,,,,,,ctch,resources/DG.BMP,resources/DBN.BMP,Door3,-0.213434453,0.057963164,1,0,0,2.8179,optionLeft,70,11595,5,31,0,31,0,1,,,,,,,,,,,,,,,,,,,,,,,,,,,,,,,,,,,,,,,
,,,,,,,,2023-08-24_08h15.56.371,HF_wild_card,2022.2.4,Win32,143.8228103,603ce90d158dc4ae761a15fa,64e63663dbcaf322d2eec8da,64e7039bb48d24a34a1af74a,,,,,,,decisionTrl,resources/DR.BMP,resources/DB.BMP,WildCard_NonEx,-0.313109426,0.062296858,1,0,0,1.089,optionLeft,45,11640,5,32,0,32,0,1,,,,,,,,,,,,,,,,,,,,,,,,,,,,,,,,,,,,,,,
,,,,,,,,2023-08-24_08h15.56.371,HF_wild_card,2022.2.4,Win32,143.8228103,603ce90d158dc4ae761a15fa,64e63663dbcaf322d2eec8da,64e7039bb48d24a34a1af74a,,,,,,,decisionTrl,resources/DP.BMP,resources/DG.BMP,Door4,-0.253521127,0.030877573,1,0,0,0.5678,optionLeft,80,11720,5,33,0,33,0,1,,,,,,,,,,,,,,,,,,,,,,,,,,,,,,,,,,,,,,,
,,,,,,,,2023-08-24_08h15.56.371,HF_wild_card,2022.2.4,Win32,143.8228103,603ce90d158dc4ae761a15fa,64e63663dbcaf322d2eec8da,64e7039bb48d24a34a1af74a,,,,,,,decisionTrl,resources/DG.BMP,resources/DP.BMP,Door4,0.396533044,-0.049295775,1,0,0,0.9776,optionRight,80,11800,5,34,0,34,0,1,,,,,,,,,,,,,,,,,,,,,,,,,,,,,,,,,,,,,,,
,,,,,,,,2023-08-24_08h15.56.371,HF_wild_card,2022.2.4,Win32,143.8228103,603ce90d158dc4ae761a15fa,64e63663dbcaf322d2eec8da,64e7039bb48d24a34a1af74a,,,,,,,sngl,resources/Empty.png,resources/DR.BMP,WildCard_NonEx,0.339111593,-0.05687974,1,0,0,0.6446,optionRight,45,11845,5,35,0,35,0,1,,,,,,,,,,,,,,,,,,,,,,,,,,,,,,,,,,,,,,,
,,,,,,,,2023-08-24_08h15.56.371,HF_wild_card,2022.2.4,Win32,143.8228103,603ce90d158dc4ae761a15fa,64e63663dbcaf322d2eec8da,64e7039bb48d24a34a1af74a,,,,,,,ctch,resources/DP.BMP,resources/DB.BMP,Door4,-0.224268689,0.02979415,1,0,0,0.575,optionLeft,60,11905,5,36,0,36,0,1,,,,,,,,,,,,,,,,,,,,,,,,,,,,,,,,,,,,,,,
,,,,,,,,2023-08-24_08h15.56.371,HF_wild_card,2022.2.4,Win32,143.8228103,603ce90d158dc4ae761a15fa,64e63663dbcaf322d2eec8da,64e7039bb48d24a34a1af74a,,,,,,,decisionTrl,resources/DB.BMP,resources/DR.BMP,WildCard_NonEx,0.235102925,-0.050379198,1,0,0,1.026,optionRight,45,11950,5,37,0,37,0,1,,,,,,,,,,,,,,,,,,,,,,,,,,,,,,,,,,,,,,,
,,,,,,,,2023-08-24_08h15.56.371,HF_wild_card,2022.2.4,Win32,143.8228103,603ce90d158dc4ae761a15fa,64e63663dbcaf322d2eec8da,64e7039bb48d24a34a1af74a,,,,,,,sngl,resources/Empty.png,resources/DG.BMP,Door3,0.398699892,-0.060130011,1,0,0,0.6026,optionRight,70,12020,5,38,0,38,0,1,,,,,,,,,,,,,,,,,,,,,,,,,,,,,,,,,,,,,,,
,,,,,,,,2023-08-24_08h15.56.371,HF_wild_card,2022.2.4,Win32,143.8228103,603ce90d158dc4ae761a15fa,64e63663dbcaf322d2eec8da,64e7039bb48d24a34a1af74a,,,,,,,sngl,resources/DR.BMP,resources/Empty.png,WildCard_NonEx,-0.295774648,0.014626219,1,0,0,1.6167,optionLeft,45,12065,5,39,0,39,0,1,,,,,,,,,,,,,,,,,,,,,,,,,,,,,,,,,,,,,,,
,,,,,,,,2023-08-24_08h15.56.371,HF_wild_card,2022.2.4,Win32,143.8228103,603ce90d158dc4ae761a15fa,64e63663dbcaf322d2eec8da,64e7039bb48d24a34a1af74a,,,,,,,sngl,resources/DG.BMP,resources/Empty.png,Door3,-0.258938245,-0.00595883,1,0,0,0.4917,optionLeft,70,12135,5,40,0,40,0,1,,,,,,,,,,,,,,,,,,,,,,,,,,,,,,,,,,,,,,,
,,,,,,,,2023-08-24_08h15.56.371,HF_wild_card,2022.2.4,Win32,143.8228103,603ce90d158dc4ae761a15fa,64e63663dbcaf322d2eec8da,64e7039bb48d24a34a1af74a,,,,,,,decisionTrl,resources/DBN.BMP,resources/DR.BMP,WildCard_NonEx,0.411700975,-0.078548212,1,0,0,0.6162,optionRight,45,12180,5,41,0,41,0,1,,,,,,,,,,,,,,,,,,,,,,,,,,,,,,,,,,,,,,,
,,,,,,,,2023-08-24_08h15.56.371,HF_wild_card,2022.2.4,Win32,143.8228103,603ce90d158dc4ae761a15fa,64e63663dbcaf322d2eec8da,64e7039bb48d24a34a1af74a,,,,,,,ctch,resources/DG.BMP,resources/DBN.BMP,Door3,-0.190682557,0.003791983,1,0,0,0.7554,optionLeft,70,12250,5,42,0,42,0,1,,,,,,,,,,,,,,,,,,,,,,,,,,,,,,,,,,,,,,,
,,,,,,,,2023-08-24_08h15.56.371,HF_wild_card,2022.2.4,Win32,143.8228103,603ce90d158dc4ae761a15fa,64e63663dbcaf322d2eec8da,64e7039bb48d24a34a1af74a,,,,,,,decisionTrl,resources/DBN.BMP,resources/DB.BMP,Door1,0.23943662,-0.049295775,1,0,0,0.9709,optionRight,30,12280,5,43,0,43,0,1,,,,,,,,,,,,,,,,,,,,,,,,,,,,,,,,,,,,,,,
,,,,,,,,2023-08-24_08h15.56.371,HF_wild_card,2022.2.4,Win32,143.8228103,603ce90d158dc4ae761a15fa,64e63663dbcaf322d2eec8da,64e7039bb48d24a34a1af74a,,,,,,,,,,,,,,,,,,,,,,,,,,4,0,4,0,1,,,,,,,,,,,,,,,,,,,,,,,,,,,,,,,,,,
,,,,,,,,2023-08-24_08h15.56.371,HF_wild_card,2022.2.4,Win32,143.8228103,603ce90d158dc4ae761a15fa,64e63663dbcaf322d2eec8da,64e7039bb48d24a34a1af74a,,,,,,,decisionTrl,resources/DP.BMP,resources/DG.BMP,Door4,-0.328277356,-0.000541712,1,0,0,0.5594,optionLeft,60,12340,6,0,0,0,0,1,,,,,,,,,,,,,,,,,,,,,,,,,,,,,,,,,,,,,,,
,,,,,,,,2023-08-24_08h15.56.371,HF_wild_card,2022.2.4,Win32,143.8228103,603ce90d158dc4ae761a15fa,64e63663dbcaf322d2eec8da,64e7039bb48d24a34a1af74a,,,,,,,decisionTrl,resources/DB.BMP,resources/DBN.BMP,Door1,-0.377031419,-0.04496208,1,0,0,1.9979,optionLeft,30,12370,6,1,0,1,0,1,,,,,,,,,,,,,,,,,,,,,,,,,,,,,,,,,,,,,,,
,,,,,,,,2023-08-24_08h15.56.371,HF_wild_card,2022.2.4,Win32,143.8228103,603ce90d158dc4ae761a15fa,64e63663dbcaf322d2eec8da,64e7039bb48d24a34a1af74a,,,,,,,sngl,resources/DG.BMP,resources/Empty.png,Door3,-0.204767064,0.026543879,1,0,0,0.8945,optionLeft,70,12440,6,2,0,2,0,1,,,,,,,,,,,,,,,,,,,,,,,,,,,,,,,,,,,,,,,
,,,,,,,,2023-08-24_08h15.56.371,HF_wild_card,2022.2.4,Win32,143.8228103,603ce90d158dc4ae761a15fa,64e63663dbcaf322d2eec8da,64e7039bb48d24a34a1af74a,,,,,,,decisionTrl,resources/DBN.BMP,resources/DB.BMP,Door1,0.336944745,-0.022210184,1,0,0,0.9496,optionRight,30,12470,6,3,0,3,0,1,,,,,,,,,,,,,,,,,,,,,,,,,,,,,,,,,,,,,,,
,,,,,,,,2023-08-24_08h15.56.371,HF_wild_card,2022.2.4,Win32,143.8228103,603ce90d158dc4ae761a15fa,64e63663dbcaf322d2eec8da,64e7039bb48d24a34a1af74a,,,,,,,ctch,resources/DP.BMP,resources/DB.BMP,Door4,-0.442036836,0.01787649,1,0,0,0.5336,optionLeft,80,12550,6,4,0,4,0,1,,,,,,,,,,,,,,,,,,,,,,,,,,,,,,,,,,,,,,,
,,,,,,,,2023-08-24_08h15.56.371,HF_wild_card,2022.2.4,Win32,143.8228103,603ce90d158dc4ae761a15fa,64e63663dbcaf322d2eec8da,64e7039bb48d24a34a1af74a,,,,,,,decisionTrl,resources/DB.BMP,resources/DBN.BMP,Door1,-0.280606717,0.012459372,1,0,0,0.9426,optionLeft,30,12580,6,5,0,5,0,1,,,,,,,,,,,,,,,,,,,,,,,,,,,,,,,,,,,,,,,
,,,,,,,,2023-08-24_08h15.56.371,HF_wild_card,2022.2.4,Win32,143.8228103,603ce90d158dc4ae761a15fa,64e63663dbcaf322d2eec8da,64e7039bb48d24a34a1af74a,,,,,,,decisionTrl,resources/DG.BMP,resources/DR.BMP,Door3,-0.184182015,0.036294691,1,0,0,1.3104,optionLeft,70,12650,6,6,0,6,0,1,,,,,,,,,,,,,,,,,,,,,,,,,,,,,,,,,,,,,,,
,,,,,,,,2023-08-24_08h15.56.371,HF_wild_card,2022.2.4,Win32,143.8228103,603ce90d158dc4ae761a15fa,64e63663dbcaf322d2eec8da,64e7039bb48d24a34a1af74a,,,,,,,decisionTrl,resources/DB.BMP,resources/DBN.BMP,Door1,-0.237269772,0.03304442,1,0,0,1.0193,optionLeft,30,12680,6,7,0,7,0,1,,,,,,,,,,,,,,,,,,,,,,,,,,,,,,,,,,,,,,,
,,,,,,,,2023-08-24_08h15.56.371,HF_wild_card,2022.2.4,Win32,143.8228103,603ce90d158dc4ae761a15fa,64e63663dbcaf322d2eec8da,64e7039bb48d24a34a1af74a,,,,,,,sngl,resources/Empty.png,resources/DG.BMP,Door3,0.460455038,-0.052546046,1,0,0,0.858,optionRight,70,12750,6,8,0,8,0,1,,,,,,,,,,,,,,,,,,,,,,,,,,,,,,,,,,,,,,,
,,,,,,,,2023-08-24_08h15.56.371,HF_wild_card,2022.2.4,Win32,143.8228103,603ce90d158dc4ae761a15fa,64e63663dbcaf322d2eec8da,64e7039bb48d24a34a1af74a,,,,,,,ctch,resources/DB.BMP,resources/DP.BMP,Door4,0.304442037,0.008125677,1,0,0,0.6165,optionRight,60,12810,6,9,0,9,0,1,,,,,,,,,,,,,,,,,,,,,,,,,,,,,,,,,,,,,,,
,,,,,,,,2023-08-24_08h15.56.371,HF_wild_card,2022.2.4,Win32,143.8228103,603ce90d158dc4ae761a15fa,64e63663dbcaf322d2eec8da,64e7039bb48d24a34a1af74a,,,,,,,decisionTrl,resources/DBN.BMP,resources/DB.BMP,Door1,0.310942579,-0.022210184,1,0,0,0.6933,optionRight,30,12840,6,10,0,10,0,1,,,,,,,,,,,,,,,,,,,,,,,,,,,,,,,,,,,,,,,
,,,,,,,,2023-08-24_08h15.56.371,HF_wild_card,2022.2.4,Win32,143.8228103,603ce90d158dc4ae761a15fa,64e63663dbcaf322d2eec8da,64e7039bb48d24a34a1af74a,,,,,,,ctch,resources/DG.BMP,resources/DBN.BMP,Door3,-0.30552546,0.05687974,1,0,0,0.9499,optionLeft,70,12910,6,11,0,11,0,1,,,,,,,,,,,,,,,,,,,,,,,,,,,,,,,,,,,,,,,
,,,,,,,,2023-08-24_08h15.56.371,HF_wild_card,2022.2.4,Win32,143.8228103,603ce90d158dc4ae761a15fa,64e63663dbcaf322d2eec8da,64e7039bb48d24a34a1af74a,,,,,,,sngl,resources/DR.BMP,resources/Empty.png,WildCard_NonEx,-0.130010834,0.015709642,1,0,0,0.5616,optionLeft,45,12955,6,12,0,12,0,1,,,,,,,,,,,,,,,,,,,,,,,,,,,,,,,,,,,,,,,
,,,,,,,,2023-08-24_08h15.56.371,HF_wild_card,2022.2.4,Win32,143.8228103,603ce90d158dc4ae761a15fa,64e63663dbcaf322d2eec8da,64e7039bb48d24a34a1af74a,,,,,,,sngl,resources/Empty.png,resources/DB.BMP,Door1,0.249187432,-0.047128927,1,0,0,1.957,optionRight,30,12985,6,13,0,13,0,1,,,,,,,,,,,,,,,,,,,,,,,,,,,,,,,,,,,,,,,
,,,,,,,,2023-08-24_08h15.56.371,HF_wild_card,2022.2.4,Win32,143.8228103,603ce90d158dc4ae761a15fa,64e63663dbcaf322d2eec8da,64e7039bb48d24a34a1af74a,,,,,,,decisionTrl,resources/DR.BMP,resources/DB.BMP,WildCard_NonEx,-0.211267606,-0.012459372,1,0,0,1.1097,optionLeft,55,13040,6,14,0,14,0,1,,,,,,,,,,,,,,,,,,,,,,,,,,,,,,,,,,,,,,,
,,,,,,,,2023-08-24_08h15.56.371,HF_wild_card,2022.2.4,Win32,143.8228103,603ce90d158dc4ae761a15fa,64e63663dbcaf322d2eec8da,64e7039bb48d24a34a1af74a,,,,,,,decisionTrl,resources/DB.BMP,resources/DBN.BMP,Door1,-0.163596966,-0.00595883,1,0,0,0.6303,optionLeft,30,13070,6,15,0,15,0,1,,,,,,,,,,,,,,,,,,,,,,,,,,,,,,,,,,,,,,,
,,,,,,,,2023-08-24_08h15.56.371,HF_wild_card,2022.2.4,Win32,143.8228103,603ce90d158dc4ae761a15fa,64e63663dbcaf322d2eec8da,64e7039bb48d24a34a1af74a,,,,,,,decisionTrl,resources/DBN.BMP,resources/DB.BMP,Door1,0.476706392,-0.060130011,1,0,0,0.8245,optionRight,30,13100,6,16,0,16,0,1,,,,,,,,,,,,,,,,,,,,,,,,,,,,,,,,,,,,,,,
,,,,,,,,2023-08-24_08h15.56.371,HF_wild_card,2022.2.4,Win32,143.8228103,603ce90d158dc4ae761a15fa,64e63663dbcaf322d2eec8da,64e7039bb48d24a34a1af74a,,,,,,,sngl,resources/DR.BMP,resources/Empty.png,WildCard_NonEx,-0.292524377,0.052546046,1,0,0,0.4637,optionLeft,55,13155,6,17,0,17,0,1,,,,,,,,,,,,,,,,,,,,,,,,,,,,,,,,,,,,,,,
,,,,,,,,2023-08-24_08h15.56.371,HF_wild_card,2022.2.4,Win32,143.8228103,603ce90d158dc4ae761a15fa,64e63663dbcaf322d2eec8da,64e7039bb48d24a34a1af74a,,,,,,,sngl,resources/DBN.BMP,resources/Empty.png,Door2,-0.274106176,0.010292524,1,0,0,0.4611,optionLeft,20,13175,6,18,0,18,0,1,,,,,,,,,,,,,,,,,,,,,,,,,,,,,,,,,,,,,,,
,,,,,,,,2023-08-24_08h15.56.371,HF_wild_card,2022.2.4,Win32,143.8228103,603ce90d158dc4ae761a15fa,64e63663dbcaf322d2eec8da,64e7039bb48d24a34a1af74a,,,,,,,sngl,resources/Empty.png,resources/DR.BMP,WildCard_NonEx,0.326110509,-0.01787649,1,0,0,0.435,optionRight,45,13220,6,19,0,19,0,1,,,,,,,,,,,,,,,,,,,,,,,,,,,,,,,,,,,,,,,
,,,,,,,,2023-08-24_08h15.56.371,HF_wild_card,2022.2.4,Win32,143.8228103,603ce90d158dc4ae761a15fa,64e63663dbcaf322d2eec8da,64e7039bb48d24a34a1af74a,,,,,,,decisionTrl,resources/DBN.BMP,resources/DR.BMP,WildCard_NonEx,0.422535211,-0.065547129,1,0,0,0.936,optionRight,55,13275,6,20,0,20,0,1,,,,,,,,,,,,,,,,,,,,,,,,,,,,,,,,,,,,,,,
,,,,,,,,2023-08-24_08h15.56.371,HF_wild_card,2022.2.4,Win32,143.8228103,603ce90d158dc4ae761a15fa,64e63663dbcaf322d2eec8da,64e7039bb48d24a34a1af74a,,,,,,,decisionTrl,resources/DG.BMP,resources/DP.BMP,Door4,0.398699892,-0.034127844,1,0,0,2.3664,optionRight,60,13335,6,21,0,21,0,1,,,,,,,,,,,,,,,,,,,,,,,,,,,,,,,,,,,,,,,
,,,,,,,,2023-08-24_08h15.56.371,HF_wild_card,2022.2.4,Win32,143.8228103,603ce90d158dc4ae761a15fa,64e63663dbcaf322d2eec8da,64e7039bb48d24a34a1af74a,,,,,,,decisionTrl,resources/DP.BMP,resources/DG.BMP,Door4,-0.354279523,0.079631636,1,0,0,1.3037,optionLeft,60,13395,6,22,0,22,0,1,,,,,,,,,,,,,,,,,,,,,,,,,,,,,,,,,,,,,,,
,,,,,,,,2023-08-24_08h15.56.371,HF_wild_card,2022.2.4,Win32,143.8228103,603ce90d158dc4ae761a15fa,64e63663dbcaf322d2eec8da,64e7039bb48d24a34a1af74a,,,,,,,decisionTrl,resources/DR.BMP,resources/DG.BMP,Door3,0.442036836,-0.043878657,1,0,0,1.0749,optionRight,70,13465,6,23,0,23,0,1,,,,,,,,,,,,,,,,,,,,,,,,,,,,,,,,,,,,,,,
,,,,,,,,2023-08-24_08h15.56.371,HF_wild_card,2022.2.4,Win32,143.8228103,603ce90d158dc4ae761a15fa,64e63663dbcaf322d2eec8da,64e7039bb48d24a34a1af74a,,,,,,,sngl,resources/Empty.png,resources/DBN.BMP,Door2,0.186348862,0.001625135,1,0,0,0.6995,optionRight,40,13505,6,24,0,24,0,1,,,,,,,,,,,,,,,,,,,,,,,,,,,,,,,,,,,,,,,
,,,,,,,,2023-08-24_08h15.56.371,HF_wild_card,2022.2.4,Win32,143.8228103,603ce90d158dc4ae761a15fa,64e63663dbcaf322d2eec8da,64e7039bb48d24a34a1af74a,,,,,,,sngl,resources/DB.BMP,resources/Empty.png,Door1,-0.274106176,0.020043337,1,0,0,0.4363,optionLeft,30,13535,6,25,0,25,0,1,,,,,,,,,,,,,,,,,,,,,,,,,,,,,,,,,,,,,,,
,,,,,,,,2023-08-24_08h15.56.371,HF_wild_card,2022.2.4,Win32,143.8228103,603ce90d158dc4ae761a15fa,64e63663dbcaf322d2eec8da,64e7039bb48d24a34a1af74a,,,,,,,decisionTrl,resources/DG.BMP,resources/DP.BMP,Door4,0.230769231,-0.028710726,1,0,0,0.5815,optionRight,60,13595,6,26,0,26,0,1,,,,,,,,,,,,,,,,,,,,,,,,,,,,,,,,,,,,,,,
,,,,,,,,2023-08-24_08h15.56.371,HF_wild_card,2022.2.4,Win32,143.8228103,603ce90d158dc4ae761a15fa,64e63663dbcaf322d2eec8da,64e7039bb48d24a34a1af74a,,,,,,,ctch,resources/DG.BMP,resources/DBN.BMP,Door3,-0.209100758,0.037378115,1,0,0,0.7132,optionLeft,70,13665,6,27,0,27,0,1,,,,,,,,,,,,,,,,,,,,,,,,,,,,,,,,,,,,,,,
,,,,,,,,2023-08-24_08h15.56.371,HF_wild_card,2022.2.4,Win32,143.8228103,603ce90d158dc4ae761a15fa,64e63663dbcaf322d2eec8da,64e7039bb48d24a34a1af74a,,,,,,,decisionTrl,resources/DBN.BMP,resources/DB.BMP,Door1,0.260021668,-0.061213434,1,0,0,1.083,optionRight,30,13695,6,28,0,28,0,1,,,,,,,,,,,,,,,,,,,,,,,,,,,,,,,,,,,,,,,
,,,,,,,,2023-08-24_08h15.56.371,HF_wild_card,2022.2.4,Win32,143.8228103,603ce90d158dc4ae761a15fa,64e63663dbcaf322d2eec8da,64e7039bb48d24a34a1af74a,,,,,,,ctch,resources/DBN.BMP,resources/DG.BMP,Door3,0.221018418,-0.034127844,1,0,0,0.6235,optionRight,70,13765,6,29,0,29,0,1,,,,,,,,,,,,,,,,,,,,,,,,,,,,,,,,,,,,,,,
,,,,,,,,2023-08-24_08h15.56.371,HF_wild_card,2022.2.4,Win32,143.8228103,603ce90d158dc4ae761a15fa,64e63663dbcaf322d2eec8da,64e7039bb48d24a34a1af74a,,,,,,,decisionTrl,resources/DG.BMP,resources/DP.BMP,Door4,0.237269772,-0.03304442,1,0,0,0.6095,optionRight,60,13825,6,30,0,30,0,1,,,,,,,,,,,,,,,,,,,,,,,,,,,,,,,,,,,,,,,
,,,,,,,,2023-08-24_08h15.56.371,HF_wild_card,2022.2.4,Win32,143.8228103,603ce90d158dc4ae761a15fa,64e63663dbcaf322d2eec8da,64e7039bb48d24a34a1af74a,,,,,,,decisionTrl,resources/DP.BMP,resources/DR.BMP,Door4,-0.304442037,0.030877573,1,0,0,0.7137,optionLeft,80,13905,6,31,0,31,0,1,,,,,,,,,,,,,,,,,,,,,,,,,,,,,,,,,,,,,,,
,,,,,,,,2023-08-24_08h15.56.371,HF_wild_card,2022.2.4,Win32,143.8228103,603ce90d158dc4ae761a15fa,64e63663dbcaf322d2eec8da,64e7039bb48d24a34a1af74a,,,,,,,decisionTrl,resources/DB.BMP,resources/DR.BMP,WildCard_NonEx,0.252437703,-0.010292524,1,0,0,2.0532,optionRight,55,13960,6,32,0,32,0,1,,,,,,,,,,,,,,,,,,,,,,,,,,,,,,,,,,,,,,,
,,,,,,,,2023-08-24_08h15.56.371,HF_wild_card,2022.2.4,Win32,143.8228103,603ce90d158dc4ae761a15fa,64e63663dbcaf322d2eec8da,64e7039bb48d24a34a1af74a,,,,,,,decisionTrl,resources/DP.BMP,resources/DG.BMP,Door4,-0.310942579,0.015709642,1,0,0,1.1651,optionLeft,60,14020,6,33,0,33,0,1,,,,,,,,,,,,,,,,,,,,,,,,,,,,,,,,,,,,,,,
,,,,,,,,2023-08-24_08h15.56.371,HF_wild_card,2022.2.4,Win32,143.8228103,603ce90d158dc4ae761a15fa,64e63663dbcaf322d2eec8da,64e7039bb48d24a34a1af74a,,,,,,,decisionTrl,resources/DR.BMP,resources/DP.BMP,Door4,0.235102925,-0.037378115,1,0,0,0.6091,optionRight,80,14100,6,34,0,34,0,1,,,,,,,,,,,,,,,,,,,,,,,,,,,,,,,,,,,,,,,
,,,,,,,,2023-08-24_08h15.56.371,HF_wild_card,2022.2.4,Win32,143.8228103,603ce90d158dc4ae761a15fa,64e63663dbcaf322d2eec8da,64e7039bb48d24a34a1af74a,,,,,,,sngl,resources/Empty.png,resources/DP.BMP,Door4,0.414951246,-0.026543879,1,0,0,0.4841,optionRight,80,14180,6,35,0,35,0,1,,,,,,,,,,,,,,,,,,,,,,,,,,,,,,,,,,,,,,,
,,,,,,,,2023-08-24_08h15.56.371,HF_wild_card,2022.2.4,Win32,143.8228103,603ce90d158dc4ae761a15fa,64e63663dbcaf322d2eec8da,64e7039bb48d24a34a1af74a,,,,,,,sngl,resources/Empty.png,resources/DR.BMP,WildCard_NonEx,0.25135428,-0.016793066,1,0,0,0.6723,optionRight,55,14235,6,36,0,36,0,1,,,,,,,,,,,,,,,,,,,,,,,,,,,,,,,,,,,,,,,
,,,,,,,,2023-08-24_08h15.56.371,HF_wild_card,2022.2.4,Win32,143.8228103,603ce90d158dc4ae761a15fa,64e63663dbcaf322d2eec8da,64e7039bb48d24a34a1af74a,,,,,,,decisionTrl,resources/DR.BMP,resources/DBN.BMP,WildCard_NonEx,-0.212351029,0.000541712,1,0,0,0.7555,optionLeft,55,14290,6,37,0,37,0,1,,,,,,,,,,,,,,,,,,,,,,,,,,,,,,,,,,,,,,,
,,,,,,,,2023-08-24_08h15.56.371,HF_wild_card,2022.2.4,Win32,143.8228103,603ce90d158dc4ae761a15fa,64e63663dbcaf322d2eec8da,64e7039bb48d24a34a1af74a,,,,,,,sngl,resources/DP.BMP,resources/Empty.png,Door4,-0.249187432,0.011375948,1,0,0,0.5332,optionLeft,60,14350,6,38,0,38,0,1,,,,,,,,,,,,,,,,,,,,,,,,,,,,,,,,,,,,,,,
,,,,,,,,2023-08-24_08h15.56.371,HF_wild_card,2022.2.4,Win32,143.8228103,603ce90d158dc4ae761a15fa,64e63663dbcaf322d2eec8da,64e7039bb48d24a34a1af74a,,,,,,,decisionTrl,resources/DG.BMP,resources/DP.BMP,Door4,0.30552546,-0.012459372,1,0,0,1.3385,optionRight,80,14430,6,39,0,39,0,1,,,,,,,,,,,,,,,,,,,,,,,,,,,,,,,,,,,,,,,
,,,,,,,,2023-08-24_08h15.56.371,HF_wild_card,2022.2.4,Win32,143.8228103,603ce90d158dc4ae761a15fa,64e63663dbcaf322d2eec8da,64e7039bb48d24a34a1af74a,,,,,,,ctch,resources/DP.BMP,resources/DB.BMP,Door4,-0.270855905,0.036294691,1,0,0,0.8874,optionLeft,80,14510,6,40,0,40,0,1,,,,,,,,,,,,,,,,,,,,,,,,,,,,,,,,,,,,,,,
,,,,,,,,2023-08-24_08h15.56.371,HF_wild_card,2022.2.4,Win32,143.8228103,603ce90d158dc4ae761a15fa,64e63663dbcaf322d2eec8da,64e7039bb48d24a34a1af74a,,,,,,,ctch,resources/DBN.BMP,resources/DG.BMP,Door3,0.407367281,-0.014626219,1,0,0,1.2484,optionRight,70,14580,6,41,0,41,0,1,,,,,,,,,,,,,,,,,,,,,,,,,,,,,,,,,,,,,,,
,,,,,,,,2023-08-24_08h15.56.371,HF_wild_card,2022.2.4,Win32,143.8228103,603ce90d158dc4ae761a15fa,64e63663dbcaf322d2eec8da,64e7039bb48d24a34a1af74a,,,,,,,ctch,resources/DB.BMP,resources/DP.BMP,Door4,0.262188516,-0.013542795,1,0,0,1.3942,optionRight,80,14660,6,42,0,42,0,1,,,,,,,,,,,,,,,,,,,,,,,,,,,,,,,,,,,,,,,
,,,,,,,,2023-08-24_08h15.56.371,HF_wild_card,2022.2.4,Win32,143.8228103,603ce90d158dc4ae761a15fa,64e63663dbcaf322d2eec8da,64e7039bb48d24a34a1af74a,,,,,,,decisionTrl,resources/DP.BMP,resources/DG.BMP,Door4,-0.316359697,0.012459372,1,0,0,2.547,optionLeft,80,14740,6,43,0,43,0,1,,,,,,,,,,,,,,,,,,,,,,,,,,,,,,,,,,,,,,,
,,,,,,,,2023-08-24_08h15.56.371,HF_wild_card,2022.2.4,Win32,143.8228103,603ce90d158dc4ae761a15fa,64e63663dbcaf322d2eec8da,64e7039bb48d24a34a1af74a,,,,,,,,,,,,,,,,,,,,,,,,,,5,0,5,0,1,,,,,,,,,,,,,,,,,,,,,,,,,,,,,,,,,,
,,,,,,,,2023-08-24_08h15.56.371,HF_wild_card,2022.2.4,Win32,143.8228103,603ce90d158dc4ae761a15fa,64e63663dbcaf322d2eec8da,64e7039bb48d24a34a1af74a,,,,,,,ctch,resources/DG.BMP,resources/DBN.BMP,Door3,-0.352112676,-0.046045504,1,0,0,0.8022,optionLeft,70,14810,7,0,0,0,0,1,,,,,,,,,,,,,,,,,,,,,,,,,,,,,,,,,,,,,,,
,,,,,,,,2023-08-24_08h15.56.371,HF_wild_card,2022.2.4,Win32,143.8228103,603ce90d158dc4ae761a15fa,64e63663dbcaf322d2eec8da,64e7039bb48d24a34a1af74a,,,,,,,decisionTrl,resources/DBN.BMP,resources/DB.BMP,Door1,0.275189599,-0.00595883,1,0,0,1.3876,optionRight,30,14840,7,1,0,1,0,1,,,,,,,,,,,,,,,,,,,,,,,,,,,,,,,,,,,,,,,
,,,,,,,,2023-08-24_08h15.56.371,HF_wild_card,2022.2.4,Win32,143.8228103,603ce90d158dc4ae761a15fa,64e63663dbcaf322d2eec8da,64e7039bb48d24a34a1af74a,,,,,,,ctch,resources/DP.BMP,resources/DB.BMP,Door4,-0.231852654,0.011375948,1,0,0,0.7424,optionLeft,60,14900,7,2,0,2,0,1,,,,,,,,,,,,,,,,,,,,,,,,,,,,,,,,,,,,,,,
,,,,,,,,2023-08-24_08h15.56.371,HF_wild_card,2022.2.4,Win32,143.8228103,603ce90d158dc4ae761a15fa,64e63663dbcaf322d2eec8da,64e7039bb48d24a34a1af74a,,,,,,,ctch,resources/DBN.BMP,resources/DG.BMP,Door3,0.30552546,0.000541712,1,0,0,0.7493,optionRight,70,14970,7,3,0,3,0,1,,,,,,,,,,,,,,,,,,,,,,,,,,,,,,,,,,,,,,,
,,,,,,,,2023-08-24_08h15.56.371,HF_wild_card,2022.2.4,Win32,143.8228103,603ce90d158dc4ae761a15fa,64e63663dbcaf322d2eec8da,64e7039bb48d24a34a1af74a,,,,,,,ctch,resources/DP.BMP,resources/DB.BMP,Door4,-0.231852654,0.010292524,1,0,0,0.6584,optionLeft,80,15050,7,4,0,4,0,1,,,,,,,,,,,,,,,,,,,,,,,,,,,,,,,,,,,,,,,
,,,,,,,,2023-08-24_08h15.56.371,HF_wild_card,2022.2.4,Win32,143.8228103,603ce90d158dc4ae761a15fa,64e63663dbcaf322d2eec8da,64e7039bb48d24a34a1af74a,,,,,,,decisionTrl,resources/DP.BMP,resources/DG.BMP,Door4,-0.375947996,0.00595883,1,0,0,1.2772,optionLeft,80,15130,7,5,0,5,0,1,,,,,,,,,,,,,,,,,,,,,,,,,,,,,,,,,,,,,,,
,,,,,,,,2023-08-24_08h15.56.371,HF_wild_card,2022.2.4,Win32,143.8228103,603ce90d158dc4ae761a15fa,64e63663dbcaf322d2eec8da,64e7039bb48d24a34a1af74a,,,,,,,ctch,resources/DB.BMP,resources/DP.BMP,Door4,0.262188516,-0.034127844,1,0,0,0.6451,optionRight,80,15210,7,6,0,6,0,1,,,,,,,,,,,,,,,,,,,,,,,,,,,,,,,,,,,,,,,
,,,,,,,,2023-08-24_08h15.56.371,HF_wild_card,2022.2.4,Win32,143.8228103,603ce90d158dc4ae761a15fa,64e63663dbcaf322d2eec8da,64e7039bb48d24a34a1af74a,,,,,,,ctch,resources/DBN.BMP,resources/DG.BMP,Door3,0.287107259,-0.012459372,1,0,0,0.7074,optionRight,70,15280,7,7,0,7,0,1,,,,,,,,,,,,,,,,,,,,,,,,,,,,,,,,,,,,,,,
,,,,,,,,2023-08-24_08h15.56.371,HF_wild_card,2022.2.4,Win32,143.8228103,603ce90d158dc4ae761a15fa,64e63663dbcaf322d2eec8da,64e7039bb48d24a34a1af74a,,,,,,,decisionTrl,resources/DBN.BMP,resources/DB.BMP,Door1,0.327193933,-0.022210184,1,0,0,0.8053,optionRight,30,15310,7,8,0,8,0,1,,,,,,,,,,,,,,,,,,,,,,,,,,,,,,,,,,,,,,,
,,,,,,,,2023-08-24_08h15.56.371,HF_wild_card,2022.2.4,Win32,143.8228103,603ce90d158dc4ae761a15fa,64e63663dbcaf322d2eec8da,64e7039bb48d24a34a1af74a,,,,,,,decisionTrl,resources/DB.BMP,resources/DBN.BMP,Door1,-0.224268689,0.021126761,1,0,0,0.5827,optionLeft,30,15340,7,9,0,9,0,1,,,,,,,,,,,,,,,,,,,,,,,,,,,,,,,,,,,,,,,
,,,,,,,,2023-08-24_08h15.56.371,HF_wild_card,2022.2.4,Win32,143.8228103,603ce90d158dc4ae761a15fa,64e63663dbcaf322d2eec8da,64e7039bb48d24a34a1af74a,,,,,,,decisionTrl,resources/DP.BMP,resources/DG.BMP,Door4,-0.273022752,0.02979415,1,0,0,0.6103,optionLeft,80,15420,7,10,0,10,0,1,,,,,,,,,,,,,,,,,,,,,,,,,,,,,,,,,,,,,,,
,,,,,,,,2023-08-24_08h15.56.371,HF_wild_card,2022.2.4,Win32,143.8228103,603ce90d158dc4ae761a15fa,64e63663dbcaf322d2eec8da,64e7039bb48d24a34a1af74a,,,,,,,decisionTrl,resources/DP.BMP,resources/DG.BMP,Door4,-0.30227519,0.008125677,1,0,0,0.59,optionLeft,80,15500,7,11,0,11,0,1,,,,,,,,,,,,,,,,,,,,,,,,,,,,,,,,,,,,,,,
,,,,,,,,2023-08-24_08h15.56.371,HF_wild_card,2022.2.4,Win32,143.8228103,603ce90d158dc4ae761a15fa,64e63663dbcaf322d2eec8da,64e7039bb48d24a34a1af74a,,,,,,,decisionTrl,resources/DG.BMP,resources/DP.BMP,Door4,0.421451788,-0.034127844,1,0,0,0.6938,optionRight,60,15560,7,12,0,12,0,1,,,,,,,,,,,,,,,,,,,,,,,,,,,,,,,,,,,,,,,
,,,,,,,,2023-08-24_08h15.56.371,HF_wild_card,2022.2.4,Win32,143.8228103,603ce90d158dc4ae761a15fa,64e63663dbcaf322d2eec8da,64e7039bb48d24a34a1af74a,,,,,,,ctch,resources/DB.BMP,resources/DP.BMP,Door4,0.449620802,-0.027627302,1,0,0,1.3677,optionRight,60,15620,7,13,0,13,0,1,,,,,,,,,,,,,,,,,,,,,,,,,,,,,,,,,,,,,,,
,,,,,,,,2023-08-24_08h15.56.371,HF_wild_card,2022.2.4,Win32,143.8228103,603ce90d158dc4ae761a15fa,64e63663dbcaf322d2eec8da,64e7039bb48d24a34a1af74a,,,,,,,ctch,resources/DG.BMP,resources/DBN.BMP,Door3,-0.38028169,0.013542795,1,0,0,0.8258,optionLeft,70,15690,7,14,0,14,0,1,,,,,,,,,,,,,,,,,,,,,,,,,,,,,,,,,,,,,,,
,,,,,,,,2023-08-24_08h15.56.371,HF_wild_card,2022.2.4,Win32,143.8228103,603ce90d158dc4ae761a15fa,64e63663dbcaf322d2eec8da,64e7039bb48d24a34a1af74a,,,,,,,decisionTrl,resources/DBN.BMP,resources/DB.BMP,Door1,0.328277356,-0.028710726,1,0,0,1.0275,optionRight,30,15720,7,15,0,15,0,1,,,,,,,,,,,,,,,,,,,,,,,,,,,,,,,,,,,,,,,
,,,,,,,,2023-08-24_08h15.56.371,HF_wild_card,2022.2.4,Win32,143.8228103,603ce90d158dc4ae761a15fa,64e63663dbcaf322d2eec8da,64e7039bb48d24a34a1af74a,,,,,,,decisionTrl,resources/DP.BMP,resources/DG.BMP,Door4,-0.190682557,-0.007042254,1,0,0,2.4787,optionLeft,80,15800,7,16,0,16,0,1,,,,,,,,,,,,,,,,,,,,,,,,,,,,,,,,,,,,,,,
,,,,,,,,2023-08-24_08h15.56.371,HF_wild_card,2022.2.4,Win32,143.8228103,603ce90d158dc4ae761a15fa,64e63663dbcaf322d2eec8da,64e7039bb48d24a34a1af74a,,,,,,,decisionTrl,resources/DB.BMP,resources/DBN.BMP,Door1,-0.277356446,0.015709642,1,0,0,1.0822,optionLeft,30,15830,7,17,0,17,0,1,,,,,,,,,,,,,,,,,,,,,,,,,,,,,,,,,,,,,,,
,,,,,,,,2023-08-24_08h15.56.371,HF_wild_card,2022.2.4,Win32,143.8228103,603ce90d158dc4ae761a15fa,64e63663dbcaf322d2eec8da,64e7039bb48d24a34a1af74a,,,,,,,ctch,resources/DBN.BMP,resources/DG.BMP,Door3,0.384615385,-0.027627302,1,0,0,0.6937,optionRight,70,15900,7,18,0,18,0,1,,,,,,,,,,,,,,,,,,,,,,,,,,,,,,,,,,,,,,,
,,,,,,,,2023-08-24_08h15.56.371,HF_wild_card,2022.2.4,Win32,143.8228103,603ce90d158dc4ae761a15fa,64e63663dbcaf322d2eec8da,64e7039bb48d24a34a1af74a,,,,,,,decisionTrl,resources/DG.BMP,resources/DP.BMP,Door4,0.289274106,-0.042795233,1,0,0,0.5828,optionRight,80,15980,7,19,0,19,0,1,,,,,,,,,,,,,,,,,,,,,,,,,,,,,,,,,,,,,,,
,,,,,,,,2023-08-24_08h15.56.371,HF_wild_card,2022.2.4,Win32,143.8228103,603ce90d158dc4ae761a15fa,64e63663dbcaf322d2eec8da,64e7039bb48d24a34a1af74a,,,,,,,decisionTrl,resources/DB.BMP,resources/DBN.BMP,Door1,-0.179848321,0.020043337,1,0,0,0.7078,optionLeft,30,16010,7,20,0,20,0,1,,,,,,,,,,,,,,,,,,,,,,,,,,,,,,,,,,,,,,,
,,,,,,,,2023-08-24_08h15.56.371,HF_wild_card,2022.2.4,Win32,143.8228103,603ce90d158dc4ae761a15fa,64e63663dbcaf322d2eec8da,64e7039bb48d24a34a1af74a,,,,,,,decisionTrl,resources/DP.BMP,resources/DG.BMP,Door4,-0.333694475,0.04496208,1,0,0,0.9851,optionLeft,80,16090,7,21,0,21,0,1,,,,,,,,,,,,,,,,,,,,,,,,,,,,,,,,,,,,,,,
,,,,,,,,2023-08-24_08h15.56.371,HF_wild_card,2022.2.4,Win32,143.8228103,603ce90d158dc4ae761a15fa,64e63663dbcaf322d2eec8da,64e7039bb48d24a34a1af74a,,,,,,,decisionTrl,resources/DG.BMP,resources/DP.BMP,Door4,0.226435536,-0.03304442,1,0,0,0.5757,optionRight,80,16170,7,22,0,22,0,1,,,,,,,,,,,,,,,,,,,,,,,,,,,,,,,,,,,,,,,
,,,,,,,,2023-08-24_08h15.56.371,HF_wild_card,2022.2.4,Win32,143.8228103,603ce90d158dc4ae761a15fa,64e63663dbcaf322d2eec8da,64e7039bb48d24a34a1af74a,,,,,,,ctch,resources/DG.BMP,resources/DBN.BMP,Door3,-0.193932828,0.012459372,1,0,0,0.7841,optionLeft,70,16240,7,23,0,23,0,1,,,,,,,,,,,,,,,,,,,,,,,,,,,,,,,,,,,,,,,
,,,,,,,,2023-08-24_08h15.56.371,HF_wild_card,2022.2.4,Win32,143.8228103,603ce90d158dc4ae761a15fa,64e63663dbcaf322d2eec8da,64e7039bb48d24a34a1af74a,,,,,,,decisionTrl,resources/DBN.BMP,resources/DB.BMP,Door1,0.41603467,-0.0687974,1,0,0,0.8254,optionRight,30,16270,7,24,0,24,0,1,,,,,,,,,,,,,,,,,,,,,,,,,,,,,,,,,,,,,,,
,,,,,,,,2023-08-24_08h15.56.371,HF_wild_card,2022.2.4,Win32,143.8228103,603ce90d158dc4ae761a15fa,64e63663dbcaf322d2eec8da,64e7039bb48d24a34a1af74a,,,,,,,decisionTrl,resources/DB.BMP,resources/DBN.BMP,Door1,-0.261105092,0.031960997,1,0,0,0.6174,optionLeft,30,16300,7,25,0,25,0,1,,,,,,,,,,,,,,,,,,,,,,,,,,,,,,,,,,,,,,,
,,,,,,,,2023-08-24_08h15.56.371,HF_wild_card,2022.2.4,Win32,143.8228103,603ce90d158dc4ae761a15fa,64e63663dbcaf322d2eec8da,64e7039bb48d24a34a1af74a,,,,,,,decisionTrl,resources/DG.BMP,resources/DP.BMP,Door4,0.274106176,-0.047128927,1,0,0,1.5549,optionRight,80,16380,7,26,0,26,0,1,,,,,,,,,,,,,,,,,,,,,,,,,,,,,,,,,,,,,,,
,,,,,,,,2023-08-24_08h15.56.371,HF_wild_card,2022.2.4,Win32,143.8228103,603ce90d158dc4ae761a15fa,64e63663dbcaf322d2eec8da,64e7039bb48d24a34a1af74a,,,,,,,decisionTrl,resources/DG.BMP,resources/DP.BMP,Door4,0.289274106,-0.007042254,1,0,0,0.8326,optionRight,60,16440,7,27,0,27,0,1,,,,,,,,,,,,,,,,,,,,,,,,,,,,,,,,,,,,,,,
,,,,,,,,2023-08-24_08h15.56.371,HF_wild_card,2022.2.4,Win32,143.8228103,603ce90d158dc4ae761a15fa,64e63663dbcaf322d2eec8da,64e7039bb48d24a34a1af74a,,,,,,,decisionTrl,resources/DB.BMP,resources/DBN.BMP,Door1,-0.204767064,0.021126761,1,0,0,0.6592,optionLeft,30,16470,7,28,0,28,0,1,,,,,,,,,,,,,,,,,,,,,,,,,,,,,,,,,,,,,,,
,,,,,,,,2023-08-24_08h15.56.371,HF_wild_card,2022.2.4,Win32,143.8228103,603ce90d158dc4ae761a15fa,64e63663dbcaf322d2eec8da,64e7039bb48d24a34a1af74a,,,,,,,decisionTrl,resources/DB.BMP,resources/DBN.BMP,Door1,-0.25135428,0.000541712,1,0,0,1.1022,optionLeft,30,16500,7,29,0,29,0,1,,,,,,,,,,,,,,,,,,,,,,,,,,,,,,,,,,,,,,,
,,,,,,,,2023-08-24_08h15.56.371,HF_wild_card,2022.2.4,Win32,143.8228103,603ce90d158dc4ae761a15fa,64e63663dbcaf322d2eec8da,64e7039bb48d24a34a1af74a,,,,,,,decisionTrl,resources/DG.BMP,resources/DP.BMP,Door4,0.504875406,-0.090465872,1,0,0,1.7215,optionRight,80,16580,7,30,0,30,0,1,,,,,,,,,,,,,,,,,,,,,,,,,,,,,,,,,,,,,,,
,,,,,,,,2023-08-24_08h15.56.371,HF_wild_card,2022.2.4,Win32,143.8228103,603ce90d158dc4ae761a15fa,64e63663dbcaf322d2eec8da,64e7039bb48d24a34a1af74a,,,,,,,decisionTrl,resources/DP.BMP,resources/DG.BMP,Door4,-0.243770314,0.00595883,1,0,0,1.6654,optionLeft,80,16660,7,31,0,31,0,1,,,,,,,,,,,,,,,,,,,,,,,,,,,,,,,,,,,,,,,
,,,,,,,,2023-08-24_08h15.56.371,HF_wild_card,2022.2.4,Win32,143.8228103,603ce90d158dc4ae761a15fa,64e63663dbcaf322d2eec8da,64e7039bb48d24a34a1af74a,,,,,,,ctch,resources/DP.BMP,resources/DB.BMP,Door4,-0.316359697,0.001625135,1,0,0,0.6591,optionLeft,80,16740,7,32,0,32,0,1,,,,,,,,,,,,,,,,,,,,,,,,,,,,,,,,,,,,,,,
,,,,,,,,2023-08-24_08h15.56.371,HF_wild_card,2022.2.4,Win32,143.8228103,603ce90d158dc4ae761a15fa,64e63663dbcaf322d2eec8da,64e7039bb48d24a34a1af74a,,,,,,,decisionTrl,resources/DBN.BMP,resources/DB.BMP,Door1,0.364030336,-0.061213434,1,0,0,0.6246,optionRight,30,16770,7,33,0,33,0,1,,,,,,,,,,,,,,,,,,,,,,,,,,,,,,,,,,,,,,,
,,,,,,,,2023-08-24_08h15.56.371,HF_wild_card,2022.2.4,Win32,143.8228103,603ce90d158dc4ae761a15fa,64e63663dbcaf322d2eec8da,64e7039bb48d24a34a1af74a,,,,,,,ctch,resources/DB.BMP,resources/DP.BMP,Door4,0.330444204,-0.035211268,1,0,0,0.937,optionRight,80,16850,7,34,0,34,0,1,,,,,,,,,,,,,,,,,,,,,,,,,,,,,,,,,,,,,,,
,,,,,,,,2023-08-24_08h15.56.371,HF_wild_card,2022.2.4,Win32,143.8228103,603ce90d158dc4ae761a15fa,64e63663dbcaf322d2eec8da,64e7039bb48d24a34a1af74a,,,,,,,decisionTrl,resources/DBN.BMP,resources/DB.BMP,Door1,0.294691224,-0.021126761,1,0,0,0.7976,optionRight,30,16880,7,35,0,35,0,1,,,,,,,,,,,,,,,,,,,,,,,,,,,,,,,,,,,,,,,
,,,,,,,,2023-08-24_08h15.56.371,HF_wild_card,2022.2.4,Win32,143.8228103,603ce90d158dc4ae761a15fa,64e63663dbcaf322d2eec8da,64e7039bb48d24a34a1af74a,,,,,,,,,,,,,,,,,,,,,,,,,,6,0,6,0,1,,,,,,,,,,,,,,,,,,,,,,,,,,,,,,,,,,
,,,,,,,,2023-08-24_08h15.56.371,HF_wild_card,2022.2.4,Win32,143.8228103,603ce90d158dc4ae761a15fa,64e63663dbcaf322d2eec8da,64e7039bb48d24a34a1af74a,,,,,,,,,,,,,,,,,,,,,,,,,,,,,,,4,,,,,,,,,,,,,,,,,,,,,,,,,,,,,,,,,
,,,,,,,,2023-08-24_08h15.56.371,HF_wild_card,2022.2.4,Win32,143.8228103,603ce90d158dc4ae761a15fa,64e63663dbcaf322d2eec8da,64e7039bb48d24a34a1af74a,,,,,,,,,,,,,,,,,,,,,,,,,,,,,,,,,,,,,,,,,,,,,,,,,,,,,,,,,,,,,,,,
,,,,,,,,2023-08-24_08h15.56.371,HF_wild_card,2022.2.4,Win32,143.8228103,603ce90d158dc4ae761a15fa,64e63663dbcaf322d2eec8da,64e7039bb48d24a34a1af74a,,,,,,,,,,,,,,,,,,,,,,,,,,,,,,,,55,WC_nonExtreme,resources/DR.BMP,0,0,0,0,1,,,,,,,,,,,,,,,,,,,,,,,,,
,,,,,,,,2023-08-24_08h15.56.371,HF_wild_card,2022.2.4,Win32,143.8228103,603ce90d158dc4ae761a15fa,64e63663dbcaf322d2eec8da,64e7039bb48d24a34a1af74a,,,,,,,,,,,,,,,,,,,,,,,,,,,,,,,,80,Door4,resources/DP.BMP,1,0,1,0,1,,,,,,,,,,,,,,,,,,,,,,,,,
,,,,,,,,2023-08-24_08h15.56.371,HF_wild_card,2022.2.4,Win32,143.8228103,603ce90d158dc4ae761a15fa,64e63663dbcaf322d2eec8da,64e7039bb48d24a34a1af74a,,,,,,,,,,,,,,,,,,,,,,,,,,,,,,,,30,Door2,resources/DBN.BMP,2,0,2,0,1,,,,,,,,,,,,,,,,,,,,,,,,,
,,,,,,,,2023-08-24_08h15.56.371,HF_wild_card,2022.2.4,Win32,143.8228103,603ce90d158dc4ae761a15fa,64e63663dbcaf322d2eec8da,64e7039bb48d24a34a1af74a,,,,,,,,,,,,,,,,,,,,,,,,,,,,,,,,70,Door3,resources/DG.BMP,3,0,3,0,1,,,,,,,,,,,,,,,,,,,,,,,,,
,,,,,,,,2023-08-24_08h15.56.371,HF_wild_card,2022.2.4,Win32,143.8228103,603ce90d158dc4ae761a15fa,64e63663dbcaf322d2eec8da,64e7039bb48d24a34a1af74a,,,,,,,,,,,,,,,,,,,,,,,,,,,,,,,,30,Door1,resources/DB.BMP,4,0,4,0,1,,,,,,,,,,,,,,,,,,,,,,,,,
,,,,,,,,2023-08-24_08h15.56.371,HF_wild_card,2022.2.4,Win32,143.8228103,603ce90d158dc4ae761a15fa,64e63663dbcaf322d2eec8da,64e7039bb48d24a34a1af74a,,,,,,,,,,,,,,,,,,,,,,,,,,,,,,,,5,WC_extreme,resources/DY.BMP,5,0,5,0,1,,,,,,,,,,,,,,,,,,,,,,,,,
,,,,,,,,2023-08-24_08h15.56.371,HF_wild_card,2022.2.4,Win32,143.8228103,603ce90d158dc4ae761a15fa,64e63663dbcaf322d2eec8da,64e7039bb48d24a34a1af74a,,,,,,,,,,,,,,,,,,,,,,,,,,,,,,,,,,,,,,,,,,,,,,,,,,,,,,,,,,,,,,,,
