Condition,Low fixed image (Door1),Low risky image (Door2),High fixed image (Door3),High risky image (Door4),NonExtreme Wild Card 1,NonExtreme Wild Card 2,,date,expName,psychopyVersion,OS,frameRate,PROLIFIC_PID,STUDY_ID,SESSION_ID,mouse_2.x,mouse_2.y,mouse_2.leftButton,mouse_2.midButton,mouse_2.rightButton,mouse_2.clicked_name,Trial Type,Left Option Image,Right Option Image,Chosen Door,mouse.x,mouse.y,mouse.leftButton,mouse.midButton,mouse.rightButton,mouse.time,mouse.clicked_name,Feedback,Cumulative Reward,Block,trial.thisRepN,trial.thisTrialN,trial.thisN,trial.thisIndex,trial.ran,blocks.thisRepN,blocks.thisTrialN,blocks.thisN,blocks.thisIndex,blocks.ran,Money conversion,First Outcome Reported,Shown Door (First Outcome),Displayed Image (First Outcome),outcomes.thisRepN,outcomes.thisTrialN,outcomes.thisN,outcomes.thisIndex,outcomes.ran,judgments.thisRepN,judgments.thisTrialN,judgments.thisN,judgments.thisIndex,judgments.ran,freqMouse.x,freqMouse.y,freqMouse.leftButton,freqMouse.midButton,freqMouse.rightButton,freqMouse.clicked_name,trials.thisRepN,trials.thisTrialN,trials.thisN,trials.thisIndex,trials.ran,FQJ for first outcome,FQJ for second outcome,Shown Door,Displayed Image,judgBlock.thisRepN,judgBlock.thisTrialN,judgBlock.thisN,judgBlock.thisIndex,judgBlock.ran
2,resources/DBN.BMP,resources/DB.BMP,resources/DP.BMP,resources/DY.BMP,resources/DG.BMP,resources/DR.BMP,,2023-08-16_08h18.13.394,HF_wild_card,2022.2.4,Win32,61.22948812,55f1ca7532af7400121700cc,64d2fd46c836a06233681665,64dc78121d792017e0b5d4b4,,,,,,,,,,,,,,,,,,,,,,,,,,,,,,,,,,,,,,,,,,,,,,,,,,,,,,,,,,,,,,,,
,,,,,,,,2023-08-16_08h18.13.394,HF_wild_card,2022.2.4,Win32,61.22948812,55f1ca7532af7400121700cc,64d2fd46c836a06233681665,64dc78121d792017e0b5d4b4,-0.011111111,-0.416666667,1,0,0,agree,,,,,,,,,,,,,,,,,,,,,,,,,,,,,,,,,,,,,,,,,,,,,,,,,,,,,,,,,,
,,,,,,,,2023-08-16_08h18.13.394,HF_wild_card,2022.2.4,Win32,61.22948812,55f1ca7532af7400121700cc,64d2fd46c836a06233681665,64dc78121d792017e0b5d4b4,,,,,,,,,,,,,,,,,,,,,,,,,,,,,,,,,,,,,,,,,,,,,,,,,,,,,,,,,,,,,,,,
,,,,,,,,2023-08-16_08h18.13.394,HF_wild_card,2022.2.4,Win32,61.22948812,55f1ca7532af7400121700cc,64d2fd46c836a06233681665,64dc78121d792017e0b5d4b4,,,,,,,sngl,resources/DP.BMP,resources/Empty.png,Door3,-0.340740741,-0.126851852,1,0,0,5.4546,optionLeft,70,70,1,0,0,0,0,1,,,,,,,,,,,,,,,,,,,,,,,,,,,,,,,,,,,,,,,
,,,,,,,,2023-08-16_08h18.13.394,HF_wild_card,2022.2.4,Win32,61.22948812,55f1ca7532af7400121700cc,64d2fd46c836a06233681665,64dc78121d792017e0b5d4b4,,,,,,,sngl,resources/Empty.png,resources/DY.BMP,Door4,0.337037037,0.023148148,1,0,0,1.2288,optionRight,60,130,1,1,0,1,0,1,,,,,,,,,,,,,,,,,,,,,,,,,,,,,,,,,,,,,,,
,,,,,,,,2023-08-16_08h18.13.394,HF_wild_card,2022.2.4,Win32,61.22948812,55f1ca7532af7400121700cc,64d2fd46c836a06233681665,64dc78121d792017e0b5d4b4,,,,,,,decisionTrl,resources/DR.BMP,resources/DB.BMP,Door2,0.313888889,-0.017592593,1,0,0,1.7123,optionRight,20,150,1,2,0,2,0,1,,,,,,,,,,,,,,,,,,,,,,,,,,,,,,,,,,,,,,,
,,,,,,,,2023-08-16_08h18.13.394,HF_wild_card,2022.2.4,Win32,61.22948812,55f1ca7532af7400121700cc,64d2fd46c836a06233681665,64dc78121d792017e0b5d4b4,,,,,,,sngl,resources/Empty.png,resources/DP.BMP,Door3,0.480555556,0.000925926,1,0,0,0.9966,optionRight,70,220,1,3,0,3,0,1,,,,,,,,,,,,,,,,,,,,,,,,,,,,,,,,,,,,,,,
,,,,,,,,2023-08-16_08h18.13.394,HF_wild_card,2022.2.4,Win32,61.22948812,55f1ca7532af7400121700cc,64d2fd46c836a06233681665,64dc78121d792017e0b5d4b4,,,,,,,ctch,resources/DP.BMP,resources/DB.BMP,Door3,-0.312962963,-0.057407407,1,0,0,1.6794,optionLeft,70,290,1,4,0,4,0,1,,,,,,,,,,,,,,,,,,,,,,,,,,,,,,,,,,,,,,,
,,,,,,,,2023-08-16_08h18.13.394,HF_wild_card,2022.2.4,Win32,61.22948812,55f1ca7532af7400121700cc,64d2fd46c836a06233681665,64dc78121d792017e0b5d4b4,,,,,,,sngl,resources/DR.BMP,resources/Empty.png,WildCard_NonEx,-0.300925926,-0.05462963,1,0,0,0.9811,optionLeft,55,345,1,5,0,5,0,1,,,,,,,,,,,,,,,,,,,,,,,,,,,,,,,,,,,,,,,
,,,,,,,,2023-08-16_08h18.13.394,HF_wild_card,2022.2.4,Win32,61.22948812,55f1ca7532af7400121700cc,64d2fd46c836a06233681665,64dc78121d792017e0b5d4b4,,,,,,,sngl,resources/Empty.png,resources/DBN.BMP,Door1,0.50462963,0.047222222,1,0,0,0.7631,optionRight,30,375,1,6,0,6,0,1,,,,,,,,,,,,,,,,,,,,,,,,,,,,,,,,,,,,,,,
,,,,,,,,2023-08-16_08h18.13.394,HF_wild_card,2022.2.4,Win32,61.22948812,55f1ca7532af7400121700cc,64d2fd46c836a06233681665,64dc78121d792017e0b5d4b4,,,,,,,decisionTrl,resources/DR.BMP,resources/DY.BMP,WildCard_NonEx,-0.280555556,-0.072222222,1,0,0,0.98,optionLeft,45,420,1,7,0,7,0,1,,,,,,,,,,,,,,,,,,,,,,,,,,,,,,,,,,,,,,,
,,,,,,,,2023-08-16_08h18.13.394,HF_wild_card,2022.2.4,Win32,61.22948812,55f1ca7532af7400121700cc,64d2fd46c836a06233681665,64dc78121d792017e0b5d4b4,,,,,,,decisionTrl,resources/DR.BMP,resources/DP.BMP,Door3,0.393518519,0.001851852,1,0,0,0.6635,optionRight,70,490,1,8,0,8,0,1,,,,,,,,,,,,,,,,,,,,,,,,,,,,,,,,,,,,,,,
,,,,,,,,2023-08-16_08h18.13.394,HF_wild_card,2022.2.4,Win32,61.22948812,55f1ca7532af7400121700cc,64d2fd46c836a06233681665,64dc78121d792017e0b5d4b4,,,,,,,decisionTrl,resources/DR.BMP,resources/DBN.BMP,Door1,0.392592593,0.042592593,1,0,0,1.3633,optionRight,30,520,1,9,0,9,0,1,,,,,,,,,,,,,,,,,,,,,,,,,,,,,,,,,,,,,,,
,,,,,,,,2023-08-16_08h18.13.394,HF_wild_card,2022.2.4,Win32,61.22948812,55f1ca7532af7400121700cc,64d2fd46c836a06233681665,64dc78121d792017e0b5d4b4,,,,,,,decisionTrl,resources/DP.BMP,resources/DY.BMP,Door4,0.453703704,0.012037037,1,0,0,1.3632,optionRight,80,600,1,10,0,10,0,1,,,,,,,,,,,,,,,,,,,,,,,,,,,,,,,,,,,,,,,
,,,,,,,,2023-08-16_08h18.13.394,HF_wild_card,2022.2.4,Win32,61.22948812,55f1ca7532af7400121700cc,64d2fd46c836a06233681665,64dc78121d792017e0b5d4b4,,,,,,,sngl,resources/Empty.png,resources/DR.BMP,WildCard_NonEx,0.394444444,0.015740741,1,0,0,0.7805,optionRight,45,645,1,11,0,11,0,1,,,,,,,,,,,,,,,,,,,,,,,,,,,,,,,,,,,,,,,
,,,,,,,,2023-08-16_08h18.13.394,HF_wild_card,2022.2.4,Win32,61.22948812,55f1ca7532af7400121700cc,64d2fd46c836a06233681665,64dc78121d792017e0b5d4b4,,,,,,,decisionTrl,resources/DY.BMP,resources/DP.BMP,Door4,-0.3,-0.005555556,1,0,0,0.5977,optionLeft,60,705,1,12,0,12,0,1,,,,,,,,,,,,,,,,,,,,,,,,,,,,,,,,,,,,,,,
,,,,,,,,2023-08-16_08h18.13.394,HF_wild_card,2022.2.4,Win32,61.22948812,55f1ca7532af7400121700cc,64d2fd46c836a06233681665,64dc78121d792017e0b5d4b4,,,,,,,decisionTrl,resources/DY.BMP,resources/DP.BMP,Door4,-0.287037037,0.010185185,1,0,0,1.3139,optionLeft,60,765,1,13,0,13,0,1,,,,,,,,,,,,,,,,,,,,,,,,,,,,,,,,,,,,,,,
,,,,,,,,2023-08-16_08h18.13.394,HF_wild_card,2022.2.4,Win32,61.22948812,55f1ca7532af7400121700cc,64d2fd46c836a06233681665,64dc78121d792017e0b5d4b4,,,,,,,decisionTrl,resources/DP.BMP,resources/DR.BMP,Door3,-0.324074074,-0.017592593,1,0,0,1.1473,optionLeft,70,835,1,14,0,14,0,1,,,,,,,,,,,,,,,,,,,,,,,,,,,,,,,,,,,,,,,
,,,,,,,,2023-08-16_08h18.13.394,HF_wild_card,2022.2.4,Win32,61.22948812,55f1ca7532af7400121700cc,64d2fd46c836a06233681665,64dc78121d792017e0b5d4b4,,,,,,,sngl,resources/DB.BMP,resources/Empty.png,Door2,-0.349074074,-0.051851852,1,0,0,0.6294,optionLeft,40,875,1,15,0,15,0,1,,,,,,,,,,,,,,,,,,,,,,,,,,,,,,,,,,,,,,,
,,,,,,,,2023-08-16_08h18.13.394,HF_wild_card,2022.2.4,Win32,61.22948812,55f1ca7532af7400121700cc,64d2fd46c836a06233681665,64dc78121d792017e0b5d4b4,,,,,,,sngl,resources/Empty.png,resources/DR.BMP,WildCard_NonEx,0.357407407,0.025,1,0,0,0.5474,optionRight,55,930,1,16,0,16,0,1,,,,,,,,,,,,,,,,,,,,,,,,,,,,,,,,,,,,,,,
,,,,,,,,2023-08-16_08h18.13.394,HF_wild_card,2022.2.4,Win32,61.22948812,55f1ca7532af7400121700cc,64d2fd46c836a06233681665,64dc78121d792017e0b5d4b4,,,,,,,ctch,resources/DB.BMP,resources/DP.BMP,Door2,-0.288888889,-0.02037037,1,0,0,0.8147,optionLeft,40,970,1,17,0,17,0,1,,,,,,,,,,,,,,,,,,,,,,,,,,,,,,,,,,,,,,,
,,,,,,,,2023-08-16_08h18.13.394,HF_wild_card,2022.2.4,Win32,61.22948812,55f1ca7532af7400121700cc,64d2fd46c836a06233681665,64dc78121d792017e0b5d4b4,,,,,,,decisionTrl,resources/DBN.BMP,resources/DR.BMP,WildCard_NonEx,0.331481481,0.012962963,1,0,0,0.4961,optionRight,45,1015,1,18,0,18,0,1,,,,,,,,,,,,,,,,,,,,,,,,,,,,,,,,,,,,,,,
,,,,,,,,2023-08-16_08h18.13.394,HF_wild_card,2022.2.4,Win32,61.22948812,55f1ca7532af7400121700cc,64d2fd46c836a06233681665,64dc78121d792017e0b5d4b4,,,,,,,decisionTrl,resources/DBN.BMP,resources/DB.BMP,Door2,0.384259259,0.005555556,1,0,0,1.1133,optionRight,20,1035,1,19,0,19,0,1,,,,,,,,,,,,,,,,,,,,,,,,,,,,,,,,,,,,,,,
,,,,,,,,2023-08-16_08h18.13.394,HF_wild_card,2022.2.4,Win32,61.22948812,55f1ca7532af7400121700cc,64d2fd46c836a06233681665,64dc78121d792017e0b5d4b4,,,,,,,ctch,resources/DP.BMP,resources/DB.BMP,Door3,-0.340740741,0.008333333,1,0,0,0.63,optionLeft,70,1105,1,20,0,20,0,1,,,,,,,,,,,,,,,,,,,,,,,,,,,,,,,,,,,,,,,
,,,,,,,,2023-08-16_08h18.13.394,HF_wild_card,2022.2.4,Win32,61.22948812,55f1ca7532af7400121700cc,64d2fd46c836a06233681665,64dc78121d792017e0b5d4b4,,,,,,,decisionTrl,resources/DB.BMP,resources/DR.BMP,WildCard_NonEx,0.536111111,0.023148148,1,0,0,0.915,optionRight,55,1160,1,21,0,21,0,1,,,,,,,,,,,,,,,,,,,,,,,,,,,,,,,,,,,,,,,
,,,,,,,,2023-08-16_08h18.13.394,HF_wild_card,2022.2.4,Win32,61.22948812,55f1ca7532af7400121700cc,64d2fd46c836a06233681665,64dc78121d792017e0b5d4b4,,,,,,,decisionTrl,resources/DB.BMP,resources/DBN.BMP,Door2,-0.294444444,0.034259259,1,0,0,0.8963,optionLeft,40,1200,1,22,0,22,0,1,,,,,,,,,,,,,,,,,,,,,,,,,,,,,,,,,,,,,,,
,,,,,,,,2023-08-16_08h18.13.394,HF_wild_card,2022.2.4,Win32,61.22948812,55f1ca7532af7400121700cc,64d2fd46c836a06233681665,64dc78121d792017e0b5d4b4,,,,,,,ctch,resources/DB.BMP,resources/DP.BMP,Door3,0.369444444,0.001851852,1,0,0,1.0963,optionRight,70,1270,1,23,0,23,0,1,,,,,,,,,,,,,,,,,,,,,,,,,,,,,,,,,,,,,,,
,,,,,,,,2023-08-16_08h18.13.394,HF_wild_card,2022.2.4,Win32,61.22948812,55f1ca7532af7400121700cc,64d2fd46c836a06233681665,64dc78121d792017e0b5d4b4,,,,,,,sngl,resources/DR.BMP,resources/Empty.png,WildCard_NonEx,-0.259259259,-0.032407407,1,0,0,0.7143,optionLeft,45,1315,1,24,0,24,0,1,,,,,,,,,,,,,,,,,,,,,,,,,,,,,,,,,,,,,,,
,,,,,,,,2023-08-16_08h18.13.394,HF_wild_card,2022.2.4,Win32,61.22948812,55f1ca7532af7400121700cc,64d2fd46c836a06233681665,64dc78121d792017e0b5d4b4,,,,,,,decisionTrl,resources/DP.BMP,resources/DY.BMP,Door4,0.310185185,-0.032407407,1,0,0,0.5973,optionRight,80,1395,1,25,0,25,0,1,,,,,,,,,,,,,,,,,,,,,,,,,,,,,,,,,,,,,,,
,,,,,,,,2023-08-16_08h18.13.394,HF_wild_card,2022.2.4,Win32,61.22948812,55f1ca7532af7400121700cc,64d2fd46c836a06233681665,64dc78121d792017e0b5d4b4,,,,,,,decisionTrl,resources/DY.BMP,resources/DR.BMP,Door4,-0.324074074,-0.025925926,1,0,0,0.5476,optionLeft,80,1475,1,26,0,26,0,1,,,,,,,,,,,,,,,,,,,,,,,,,,,,,,,,,,,,,,,
,,,,,,,,2023-08-16_08h18.13.394,HF_wild_card,2022.2.4,Win32,61.22948812,55f1ca7532af7400121700cc,64d2fd46c836a06233681665,64dc78121d792017e0b5d4b4,,,,,,,decisionTrl,resources/DB.BMP,resources/DBN.BMP,Door2,-0.363888889,-0.050925926,1,0,0,0.9805,optionLeft,40,1515,1,27,0,27,0,1,,,,,,,,,,,,,,,,,,,,,,,,,,,,,,,,,,,,,,,
,,,,,,,,2023-08-16_08h18.13.394,HF_wild_card,2022.2.4,Win32,61.22948812,55f1ca7532af7400121700cc,64d2fd46c836a06233681665,64dc78121d792017e0b5d4b4,,,,,,,decisionTrl,resources/DBN.BMP,resources/DB.BMP,Door2,0.349074074,0.023148148,1,0,0,0.515,optionRight,20,1535,1,28,0,28,0,1,,,,,,,,,,,,,,,,,,,,,,,,,,,,,,,,,,,,,,,
,,,,,,,,2023-08-16_08h18.13.394,HF_wild_card,2022.2.4,Win32,61.22948812,55f1ca7532af7400121700cc,64d2fd46c836a06233681665,64dc78121d792017e0b5d4b4,,,,,,,sngl,resources/Empty.png,resources/DB.BMP,Door2,0.386111111,0.006481481,1,0,0,0.5644,optionRight,20,1555,1,29,0,29,0,1,,,,,,,,,,,,,,,,,,,,,,,,,,,,,,,,,,,,,,,
,,,,,,,,2023-08-16_08h18.13.394,HF_wild_card,2022.2.4,Win32,61.22948812,55f1ca7532af7400121700cc,64d2fd46c836a06233681665,64dc78121d792017e0b5d4b4,,,,,,,sngl,resources/DBN.BMP,resources/Empty.png,Door1,-0.271296296,0.02037037,1,0,0,0.5151,optionLeft,30,1585,1,30,0,30,0,1,,,,,,,,,,,,,,,,,,,,,,,,,,,,,,,,,,,,,,,
,,,,,,,,2023-08-16_08h18.13.394,HF_wild_card,2022.2.4,Win32,61.22948812,55f1ca7532af7400121700cc,64d2fd46c836a06233681665,64dc78121d792017e0b5d4b4,,,,,,,decisionTrl,resources/DB.BMP,resources/DBN.BMP,Door1,0.402777778,0.043518519,1,0,0,0.6633,optionRight,30,1615,1,31,0,31,0,1,,,,,,,,,,,,,,,,,,,,,,,,,,,,,,,,,,,,,,,
,,,,,,,,2023-08-16_08h18.13.394,HF_wild_card,2022.2.4,Win32,61.22948812,55f1ca7532af7400121700cc,64d2fd46c836a06233681665,64dc78121d792017e0b5d4b4,,,,,,,decisionTrl,resources/DBN.BMP,resources/DB.BMP,Door1,-0.311111111,-0.005555556,1,0,0,0.9961,optionLeft,30,1645,1,32,0,32,0,1,,,,,,,,,,,,,,,,,,,,,,,,,,,,,,,,,,,,,,,
,,,,,,,,2023-08-16_08h18.13.394,HF_wild_card,2022.2.4,Win32,61.22948812,55f1ca7532af7400121700cc,64d2fd46c836a06233681665,64dc78121d792017e0b5d4b4,,,,,,,ctch,resources/DBN.BMP,resources/DY.BMP,Door4,0.374074074,0.039814815,1,0,0,0.6792,optionRight,60,1705,1,33,0,33,0,1,,,,,,,,,,,,,,,,,,,,,,,,,,,,,,,,,,,,,,,
,,,,,,,,2023-08-16_08h18.13.394,HF_wild_card,2022.2.4,Win32,61.22948812,55f1ca7532af7400121700cc,64d2fd46c836a06233681665,64dc78121d792017e0b5d4b4,,,,,,,ctch,resources/DBN.BMP,resources/DY.BMP,Door4,0.399074074,0.047222222,1,0,0,0.748,optionRight,80,1785,1,34,0,34,0,1,,,,,,,,,,,,,,,,,,,,,,,,,,,,,,,,,,,,,,,
,,,,,,,,2023-08-16_08h18.13.394,HF_wild_card,2022.2.4,Win32,61.22948812,55f1ca7532af7400121700cc,64d2fd46c836a06233681665,64dc78121d792017e0b5d4b4,,,,,,,decisionTrl,resources/DP.BMP,resources/DY.BMP,Door4,0.352777778,0.027777778,1,0,0,0.5317,optionRight,60,1845,1,35,0,35,0,1,,,,,,,,,,,,,,,,,,,,,,,,,,,,,,,,,,,,,,,
,,,,,,,,2023-08-16_08h18.13.394,HF_wild_card,2022.2.4,Win32,61.22948812,55f1ca7532af7400121700cc,64d2fd46c836a06233681665,64dc78121d792017e0b5d4b4,,,,,,,sngl,resources/DY.BMP,resources/Empty.png,Door4,-0.29537037,-0.011111111,1,0,0,0.5131,optionLeft,80,1925,1,36,0,36,0,1,,,,,,,,,,,,,,,,,,,,,,,,,,,,,,,,,,,,,,,
,,,,,,,,2023-08-16_08h18.13.394,HF_wild_card,2022.2.4,Win32,61.22948812,55f1ca7532af7400121700cc,64d2fd46c836a06233681665,64dc78121d792017e0b5d4b4,,,,,,,decisionTrl,resources/DBN.BMP,resources/DB.BMP,Door2,0.381481481,0.024074074,1,0,0,0.5978,optionRight,20,1945,1,37,0,37,0,1,,,,,,,,,,,,,,,,,,,,,,,,,,,,,,,,,,,,,,,
,,,,,,,,2023-08-16_08h18.13.394,HF_wild_card,2022.2.4,Win32,61.22948812,55f1ca7532af7400121700cc,64d2fd46c836a06233681665,64dc78121d792017e0b5d4b4,,,,,,,decisionTrl,resources/DP.BMP,resources/DY.BMP,Door3,-0.293518519,-0.014814815,1,0,0,0.8136,optionLeft,70,2015,1,38,0,38,0,1,,,,,,,,,,,,,,,,,,,,,,,,,,,,,,,,,,,,,,,
,,,,,,,,2023-08-16_08h18.13.394,HF_wild_card,2022.2.4,Win32,61.22948812,55f1ca7532af7400121700cc,64d2fd46c836a06233681665,64dc78121d792017e0b5d4b4,,,,,,,decisionTrl,resources/DY.BMP,resources/DP.BMP,Door3,0.355555556,0.007407407,1,0,0,0.5642,optionRight,70,2085,1,39,0,39,0,1,,,,,,,,,,,,,,,,,,,,,,,,,,,,,,,,,,,,,,,
,,,,,,,,2023-08-16_08h18.13.394,HF_wild_card,2022.2.4,Win32,61.22948812,55f1ca7532af7400121700cc,64d2fd46c836a06233681665,64dc78121d792017e0b5d4b4,,,,,,,ctch,resources/DY.BMP,resources/DBN.BMP,Door4,-0.323148148,-0.038888889,1,0,0,0.6142,optionLeft,60,2145,1,40,0,40,0,1,,,,,,,,,,,,,,,,,,,,,,,,,,,,,,,,,,,,,,,
,,,,,,,,2023-08-16_08h18.13.394,HF_wild_card,2022.2.4,Win32,61.22948812,55f1ca7532af7400121700cc,64d2fd46c836a06233681665,64dc78121d792017e0b5d4b4,,,,,,,decisionTrl,resources/DB.BMP,resources/DBN.BMP,Door2,-0.449074074,-0.055555556,1,0,0,0.8638,optionLeft,20,2165,1,41,0,41,0,1,,,,,,,,,,,,,,,,,,,,,,,,,,,,,,,,,,,,,,,
,,,,,,,,2023-08-16_08h18.13.394,HF_wild_card,2022.2.4,Win32,61.22948812,55f1ca7532af7400121700cc,64d2fd46c836a06233681665,64dc78121d792017e0b5d4b4,,,,,,,ctch,resources/DY.BMP,resources/DBN.BMP,Door4,-0.409259259,-0.041666667,1,0,0,0.9964,optionLeft,80,2245,1,42,0,42,0,1,,,,,,,,,,,,,,,,,,,,,,,,,,,,,,,,,,,,,,,
,,,,,,,,2023-08-16_08h18.13.394,HF_wild_card,2022.2.4,Win32,61.22948812,55f1ca7532af7400121700cc,64d2fd46c836a06233681665,64dc78121d792017e0b5d4b4,,,,,,,decisionTrl,resources/DY.BMP,resources/DP.BMP,Door4,-0.390740741,-0.035185185,1,0,0,0.9308,optionLeft,80,2325,1,43,0,43,0,1,,,,,,,,,,,,,,,,,,,,,,,,,,,,,,,,,,,,,,,
,,,,,,,,2023-08-16_08h18.13.394,HF_wild_card,2022.2.4,Win32,61.22948812,55f1ca7532af7400121700cc,64d2fd46c836a06233681665,64dc78121d792017e0b5d4b4,,,,,,,,,,,,,,,,,,,,,,,,,,0,0,0,0,1,,,,,,,,,,,,,,,,,,,,,,,,,,,,,,,,,,
,,,,,,,,2023-08-16_08h18.13.394,HF_wild_card,2022.2.4,Win32,61.22948812,55f1ca7532af7400121700cc,64d2fd46c836a06233681665,64dc78121d792017e0b5d4b4,,,,,,,sngl,resources/DY.BMP,resources/Empty.png,Door4,-0.281481481,-0.087037037,1,0,0,0.7732,optionLeft,60,2385,2,0,0,0,0,1,,,,,,,,,,,,,,,,,,,,,,,,,,,,,,,,,,,,,,,
,,,,,,,,2023-08-16_08h18.13.394,HF_wild_card,2022.2.4,Win32,61.22948812,55f1ca7532af7400121700cc,64d2fd46c836a06233681665,64dc78121d792017e0b5d4b4,,,,,,,sngl,resources/Empty.png,resources/DP.BMP,Door3,0.382407407,-0.019444444,1,0,0,0.5129,optionRight,70,2455,2,1,0,1,0,1,,,,,,,,,,,,,,,,,,,,,,,,,,,,,,,,,,,,,,,
,,,,,,,,2023-08-16_08h18.13.394,HF_wild_card,2022.2.4,Win32,61.22948812,55f1ca7532af7400121700cc,64d2fd46c836a06233681665,64dc78121d792017e0b5d4b4,,,,,,,ctch,resources/DY.BMP,resources/DBN.BMP,Door4,-0.201851852,-0.018518519,1,0,0,0.546,optionLeft,60,2515,2,2,0,2,0,1,,,,,,,,,,,,,,,,,,,,,,,,,,,,,,,,,,,,,,,
,,,,,,,,2023-08-16_08h18.13.394,HF_wild_card,2022.2.4,Win32,61.22948812,55f1ca7532af7400121700cc,64d2fd46c836a06233681665,64dc78121d792017e0b5d4b4,,,,,,,decisionTrl,resources/DR.BMP,resources/DBN.BMP,WildCard_NonEx,-0.430555556,-0.068518519,1,0,0,0.5476,optionLeft,55,2570,2,3,0,3,0,1,,,,,,,,,,,,,,,,,,,,,,,,,,,,,,,,,,,,,,,
,,,,,,,,2023-08-16_08h18.13.394,HF_wild_card,2022.2.4,Win32,61.22948812,55f1ca7532af7400121700cc,64d2fd46c836a06233681665,64dc78121d792017e0b5d4b4,,,,,,,decisionTrl,resources/DB.BMP,resources/DBN.BMP,Door1,0.326851852,0.013888889,1,0,0,1.0976,optionRight,30,2600,2,4,0,4,0,1,,,,,,,,,,,,,,,,,,,,,,,,,,,,,,,,,,,,,,,
,,,,,,,,2023-08-16_08h18.13.394,HF_wild_card,2022.2.4,Win32,61.22948812,55f1ca7532af7400121700cc,64d2fd46c836a06233681665,64dc78121d792017e0b5d4b4,,,,,,,ctch,resources/DB.BMP,resources/DP.BMP,Door2,-0.301851852,-0.044444444,1,0,0,0.6801,optionLeft,20,2620,2,5,0,5,0,1,,,,,,,,,,,,,,,,,,,,,,,,,,,,,,,,,,,,,,,
,,,,,,,,2023-08-16_08h18.13.394,HF_wild_card,2022.2.4,Win32,61.22948812,55f1ca7532af7400121700cc,64d2fd46c836a06233681665,64dc78121d792017e0b5d4b4,,,,,,,sngl,resources/Empty.png,resources/DBN.BMP,Door1,0.321296296,-0.009259259,1,0,0,0.7137,optionRight,30,2650,2,6,0,6,0,1,,,,,,,,,,,,,,,,,,,,,,,,,,,,,,,,,,,,,,,
,,,,,,,,2023-08-16_08h18.13.394,HF_wild_card,2022.2.4,Win32,61.22948812,55f1ca7532af7400121700cc,64d2fd46c836a06233681665,64dc78121d792017e0b5d4b4,,,,,,,decisionTrl,resources/DP.BMP,resources/DY.BMP,Door4,0.469444444,0.04537037,1,0,0,0.9482,optionRight,80,2730,2,7,0,7,0,1,,,,,,,,,,,,,,,,,,,,,,,,,,,,,,,,,,,,,,,
,,,,,,,,2023-08-16_08h18.13.394,HF_wild_card,2022.2.4,Win32,61.22948812,55f1ca7532af7400121700cc,64d2fd46c836a06233681665,64dc78121d792017e0b5d4b4,,,,,,,decisionTrl,resources/DBN.BMP,resources/DR.BMP,WildCard_NonEx,0.336111111,-0.012962963,1,0,0,0.6975,optionRight,45,2775,2,8,0,8,0,1,,,,,,,,,,,,,,,,,,,,,,,,,,,,,,,,,,,,,,,
,,,,,,,,2023-08-16_08h18.13.394,HF_wild_card,2022.2.4,Win32,61.22948812,55f1ca7532af7400121700cc,64d2fd46c836a06233681665,64dc78121d792017e0b5d4b4,,,,,,,decisionTrl,resources/DY.BMP,resources/DR.BMP,Door4,-0.322222222,0.005555556,1,0,0,0.5971,optionLeft,60,2835,2,9,0,9,0,1,,,,,,,,,,,,,,,,,,,,,,,,,,,,,,,,,,,,,,,
,,,,,,,,2023-08-16_08h18.13.394,HF_wild_card,2022.2.4,Win32,61.22948812,55f1ca7532af7400121700cc,64d2fd46c836a06233681665,64dc78121d792017e0b5d4b4,,,,,,,sngl,resources/DR.BMP,resources/Empty.png,WildCard_NonEx,-0.261111111,-0.040740741,1,0,0,0.6807,optionLeft,55,2890,2,10,0,10,0,1,,,,,,,,,,,,,,,,,,,,,,,,,,,,,,,,,,,,,,,
,,,,,,,,2023-08-16_08h18.13.394,HF_wild_card,2022.2.4,Win32,61.22948812,55f1ca7532af7400121700cc,64d2fd46c836a06233681665,64dc78121d792017e0b5d4b4,,,,,,,sngl,resources/Empty.png,resources/DY.BMP,Door4,0.519444444,0.02037037,1,0,0,0.4974,optionRight,80,2970,2,11,0,11,0,1,,,,,,,,,,,,,,,,,,,,,,,,,,,,,,,,,,,,,,,
,,,,,,,,2023-08-16_08h18.13.394,HF_wild_card,2022.2.4,Win32,61.22948812,55f1ca7532af7400121700cc,64d2fd46c836a06233681665,64dc78121d792017e0b5d4b4,,,,,,,decisionTrl,resources/DP.BMP,resources/DR.BMP,Door3,-0.298148148,-0.027777778,1,0,0,1.4971,optionLeft,70,3040,2,12,0,12,0,1,,,,,,,,,,,,,,,,,,,,,,,,,,,,,,,,,,,,,,,
,,,,,,,,2023-08-16_08h18.13.394,HF_wild_card,2022.2.4,Win32,61.22948812,55f1ca7532af7400121700cc,64d2fd46c836a06233681665,64dc78121d792017e0b5d4b4,,,,,,,decisionTrl,resources/DBN.BMP,resources/DB.BMP,Door2,0.247222222,-0.039814815,1,0,0,0.5965,optionRight,40,3080,2,13,0,13,0,1,,,,,,,,,,,,,,,,,,,,,,,,,,,,,,,,,,,,,,,
,,,,,,,,2023-08-16_08h18.13.394,HF_wild_card,2022.2.4,Win32,61.22948812,55f1ca7532af7400121700cc,64d2fd46c836a06233681665,64dc78121d792017e0b5d4b4,,,,,,,decisionTrl,resources/DB.BMP,resources/DBN.BMP,Door2,-0.27962963,-0.015740741,1,0,0,1.5311,optionLeft,40,3120,2,14,0,14,0,1,,,,,,,,,,,,,,,,,,,,,,,,,,,,,,,,,,,,,,,
,,,,,,,,2023-08-16_08h18.13.394,HF_wild_card,2022.2.4,Win32,61.22948812,55f1ca7532af7400121700cc,64d2fd46c836a06233681665,64dc78121d792017e0b5d4b4,,,,,,,decisionTrl,resources/DR.BMP,resources/DB.BMP,WildCard_NonEx,-0.344444444,-0.025,1,0,0,0.8969,optionLeft,55,3175,2,15,0,15,0,1,,,,,,,,,,,,,,,,,,,,,,,,,,,,,,,,,,,,,,,
,,,,,,,,2023-08-16_08h18.13.394,HF_wild_card,2022.2.4,Win32,61.22948812,55f1ca7532af7400121700cc,64d2fd46c836a06233681665,64dc78121d792017e0b5d4b4,,,,,,,ctch,resources/DY.BMP,resources/DBN.BMP,Door4,-0.27037037,-0.006481481,1,0,0,0.7465,optionLeft,60,3235,2,16,0,16,0,1,,,,,,,,,,,,,,,,,,,,,,,,,,,,,,,,,,,,,,,
,,,,,,,,2023-08-16_08h18.13.394,HF_wild_card,2022.2.4,Win32,61.22948812,55f1ca7532af7400121700cc,64d2fd46c836a06233681665,64dc78121d792017e0b5d4b4,,,,,,,sngl,resources/Empty.png,resources/DR.BMP,WildCard_NonEx,0.307407407,-0.007407407,1,0,0,0.6136,optionRight,45,3280,2,17,0,17,0,1,,,,,,,,,,,,,,,,,,,,,,,,,,,,,,,,,,,,,,,
,,,,,,,,2023-08-16_08h18.13.394,HF_wild_card,2022.2.4,Win32,61.22948812,55f1ca7532af7400121700cc,64d2fd46c836a06233681665,64dc78121d792017e0b5d4b4,,,,,,,decisionTrl,resources/DR.BMP,resources/DY.BMP,WildCard_NonEx,-0.268518519,-0.030555556,1,0,0,0.6468,optionLeft,55,3335,2,18,0,18,0,1,,,,,,,,,,,,,,,,,,,,,,,,,,,,,,,,,,,,,,,
,,,,,,,,2023-08-16_08h18.13.394,HF_wild_card,2022.2.4,Win32,61.22948812,55f1ca7532af7400121700cc,64d2fd46c836a06233681665,64dc78121d792017e0b5d4b4,,,,,,,decisionTrl,resources/DB.BMP,resources/DBN.BMP,Door1,0.426851852,0.082407407,1,0,0,0.6967,optionRight,30,3365,2,19,0,19,0,1,,,,,,,,,,,,,,,,,,,,,,,,,,,,,,,,,,,,,,,
,,,,,,,,2023-08-16_08h18.13.394,HF_wild_card,2022.2.4,Win32,61.22948812,55f1ca7532af7400121700cc,64d2fd46c836a06233681665,64dc78121d792017e0b5d4b4,,,,,,,sngl,resources/Empty.png,resources/DR.BMP,WildCard_NonEx,0.375,0.033333333,1,0,0,0.7814,optionRight,55,3420,2,20,0,20,0,1,,,,,,,,,,,,,,,,,,,,,,,,,,,,,,,,,,,,,,,
,,,,,,,,2023-08-16_08h18.13.394,HF_wild_card,2022.2.4,Win32,61.22948812,55f1ca7532af7400121700cc,64d2fd46c836a06233681665,64dc78121d792017e0b5d4b4,,,,,,,sngl,resources/Empty.png,resources/DB.BMP,Door2,0.406481481,0.036111111,1,0,0,0.8143,optionRight,40,3460,2,21,0,21,0,1,,,,,,,,,,,,,,,,,,,,,,,,,,,,,,,,,,,,,,,
,,,,,,,,2023-08-16_08h18.13.394,HF_wild_card,2022.2.4,Win32,61.22948812,55f1ca7532af7400121700cc,64d2fd46c836a06233681665,64dc78121d792017e0b5d4b4,,,,,,,decisionTrl,resources/DY.BMP,resources/DP.BMP,Door4,-0.260185185,-0.003703704,1,0,0,0.8124,optionLeft,80,3540,2,22,0,22,0,1,,,,,,,,,,,,,,,,,,,,,,,,,,,,,,,,,,,,,,,
,,,,,,,,2023-08-16_08h18.13.394,HF_wild_card,2022.2.4,Win32,61.22948812,55f1ca7532af7400121700cc,64d2fd46c836a06233681665,64dc78121d792017e0b5d4b4,,,,,,,ctch,resources/DP.BMP,resources/DB.BMP,Door3,-0.363888889,-0.058333333,1,0,0,1.0634,optionLeft,70,3610,2,23,0,23,0,1,,,,,,,,,,,,,,,,,,,,,,,,,,,,,,,,,,,,,,,
,,,,,,,,2023-08-16_08h18.13.394,HF_wild_card,2022.2.4,Win32,61.22948812,55f1ca7532af7400121700cc,64d2fd46c836a06233681665,64dc78121d792017e0b5d4b4,,,,,,,decisionTrl,resources/DY.BMP,resources/DP.BMP,Door4,-0.339814815,-0.025,1,0,0,0.8142,optionLeft,80,3690,2,24,0,24,0,1,,,,,,,,,,,,,,,,,,,,,,,,,,,,,,,,,,,,,,,
,,,,,,,,2023-08-16_08h18.13.394,HF_wild_card,2022.2.4,Win32,61.22948812,55f1ca7532af7400121700cc,64d2fd46c836a06233681665,64dc78121d792017e0b5d4b4,,,,,,,sngl,resources/DBN.BMP,resources/Empty.png,Door1,-0.243518519,-0.030555556,1,0,0,1.48,optionLeft,30,3720,2,25,0,25,0,1,,,,,,,,,,,,,,,,,,,,,,,,,,,,,,,,,,,,,,,
,,,,,,,,2023-08-16_08h18.13.394,HF_wild_card,2022.2.4,Win32,61.22948812,55f1ca7532af7400121700cc,64d2fd46c836a06233681665,64dc78121d792017e0b5d4b4,,,,,,,ctch,resources/DP.BMP,resources/DB.BMP,Door3,-0.350925926,-0.02037037,1,0,0,1.1311,optionLeft,70,3790,2,26,0,26,0,1,,,,,,,,,,,,,,,,,,,,,,,,,,,,,,,,,,,,,,,
,,,,,,,,2023-08-16_08h18.13.394,HF_wild_card,2022.2.4,Win32,61.22948812,55f1ca7532af7400121700cc,64d2fd46c836a06233681665,64dc78121d792017e0b5d4b4,,,,,,,decisionTrl,resources/DY.BMP,resources/DP.BMP,Door4,-0.275,-0.052777778,1,0,0,0.8798,optionLeft,60,3850,2,27,0,27,0,1,,,,,,,,,,,,,,,,,,,,,,,,,,,,,,,,,,,,,,,
,,,,,,,,2023-08-16_08h18.13.394,HF_wild_card,2022.2.4,Win32,61.22948812,55f1ca7532af7400121700cc,64d2fd46c836a06233681665,64dc78121d792017e0b5d4b4,,,,,,,decisionTrl,resources/DBN.BMP,resources/DB.BMP,Door2,0.359259259,0.037962963,1,0,0,0.8458,optionRight,20,3870,2,28,0,28,0,1,,,,,,,,,,,,,,,,,,,,,,,,,,,,,,,,,,,,,,,
,,,,,,,,2023-08-16_08h18.13.394,HF_wild_card,2022.2.4,Win32,61.22948812,55f1ca7532af7400121700cc,64d2fd46c836a06233681665,64dc78121d792017e0b5d4b4,,,,,,,decisionTrl,resources/DY.BMP,resources/DP.BMP,Door4,-0.284259259,-0.011111111,1,0,0,0.8806,optionLeft,80,3950,2,29,0,29,0,1,,,,,,,,,,,,,,,,,,,,,,,,,,,,,,,,,,,,,,,
,,,,,,,,2023-08-16_08h18.13.394,HF_wild_card,2022.2.4,Win32,61.22948812,55f1ca7532af7400121700cc,64d2fd46c836a06233681665,64dc78121d792017e0b5d4b4,,,,,,,ctch,resources/DB.BMP,resources/DP.BMP,Door3,0.264814815,0,1,0,0,0.8637,optionRight,70,4020,2,30,0,30,0,1,,,,,,,,,,,,,,,,,,,,,,,,,,,,,,,,,,,,,,,
,,,,,,,,2023-08-16_08h18.13.394,HF_wild_card,2022.2.4,Win32,61.22948812,55f1ca7532af7400121700cc,64d2fd46c836a06233681665,64dc78121d792017e0b5d4b4,,,,,,,sngl,resources/DP.BMP,resources/Empty.png,Door3,-0.298148148,0.006481481,1,0,0,1.097,optionLeft,70,4090,2,31,0,31,0,1,,,,,,,,,,,,,,,,,,,,,,,,,,,,,,,,,,,,,,,
,,,,,,,,2023-08-16_08h18.13.394,HF_wild_card,2022.2.4,Win32,61.22948812,55f1ca7532af7400121700cc,64d2fd46c836a06233681665,64dc78121d792017e0b5d4b4,,,,,,,decisionTrl,resources/DB.BMP,resources/DBN.BMP,Door1,0.380555556,0.031481481,1,0,0,1.081,optionRight,30,4120,2,32,0,32,0,1,,,,,,,,,,,,,,,,,,,,,,,,,,,,,,,,,,,,,,,
,,,,,,,,2023-08-16_08h18.13.394,HF_wild_card,2022.2.4,Win32,61.22948812,55f1ca7532af7400121700cc,64d2fd46c836a06233681665,64dc78121d792017e0b5d4b4,,,,,,,sngl,resources/DB.BMP,resources/Empty.png,Door2,-0.255555556,0.000925926,1,0,0,0.8135,optionLeft,20,4140,2,33,0,33,0,1,,,,,,,,,,,,,,,,,,,,,,,,,,,,,,,,,,,,,,,
,,,,,,,,2023-08-16_08h18.13.394,HF_wild_card,2022.2.4,Win32,61.22948812,55f1ca7532af7400121700cc,64d2fd46c836a06233681665,64dc78121d792017e0b5d4b4,,,,,,,sngl,resources/DR.BMP,resources/Empty.png,WildCard_NonEx,-0.333333333,-0.012037037,1,0,0,0.6317,optionLeft,45,4185,2,34,0,34,0,1,,,,,,,,,,,,,,,,,,,,,,,,,,,,,,,,,,,,,,,
,,,,,,,,2023-08-16_08h18.13.394,HF_wild_card,2022.2.4,Win32,61.22948812,55f1ca7532af7400121700cc,64d2fd46c836a06233681665,64dc78121d792017e0b5d4b4,,,,,,,decisionTrl,resources/DBN.BMP,resources/DB.BMP,Door1,-0.280555556,0.017592593,1,0,0,1.0465,optionLeft,30,4215,2,35,0,35,0,1,,,,,,,,,,,,,,,,,,,,,,,,,,,,,,,,,,,,,,,
,,,,,,,,2023-08-16_08h18.13.394,HF_wild_card,2022.2.4,Win32,61.22948812,55f1ca7532af7400121700cc,64d2fd46c836a06233681665,64dc78121d792017e0b5d4b4,,,,,,,decisionTrl,resources/DR.BMP,resources/DP.BMP,WildCard_NonEx,-0.262037037,0.002777778,1,0,0,0.6967,optionLeft,55,4270,2,36,0,36,0,1,,,,,,,,,,,,,,,,,,,,,,,,,,,,,,,,,,,,,,,
,,,,,,,,2023-08-16_08h18.13.394,HF_wild_card,2022.2.4,Win32,61.22948812,55f1ca7532af7400121700cc,64d2fd46c836a06233681665,64dc78121d792017e0b5d4b4,,,,,,,decisionTrl,resources/DP.BMP,resources/DY.BMP,Door4,0.515740741,0.009259259,1,0,0,0.9638,optionRight,80,4350,2,37,0,37,0,1,,,,,,,,,,,,,,,,,,,,,,,,,,,,,,,,,,,,,,,
,,,,,,,,2023-08-16_08h18.13.394,HF_wild_card,2022.2.4,Win32,61.22948812,55f1ca7532af7400121700cc,64d2fd46c836a06233681665,64dc78121d792017e0b5d4b4,,,,,,,ctch,resources/DBN.BMP,resources/DY.BMP,Door4,0.384259259,-0.013888889,1,0,0,0.6147,optionRight,60,4410,2,38,0,38,0,1,,,,,,,,,,,,,,,,,,,,,,,,,,,,,,,,,,,,,,,
,,,,,,,,2023-08-16_08h18.13.394,HF_wild_card,2022.2.4,Win32,61.22948812,55f1ca7532af7400121700cc,64d2fd46c836a06233681665,64dc78121d792017e0b5d4b4,,,,,,,decisionTrl,resources/DP.BMP,resources/DY.BMP,Door4,0.414814815,0.037962963,1,0,0,1.3311,optionRight,80,4490,2,39,0,39,0,1,,,,,,,,,,,,,,,,,,,,,,,,,,,,,,,,,,,,,,,
,,,,,,,,2023-08-16_08h18.13.394,HF_wild_card,2022.2.4,Win32,61.22948812,55f1ca7532af7400121700cc,64d2fd46c836a06233681665,64dc78121d792017e0b5d4b4,,,,,,,decisionTrl,resources/DP.BMP,resources/DY.BMP,Door4,0.384259259,0.023148148,1,0,0,0.7813,optionRight,60,4550,2,40,0,40,0,1,,,,,,,,,,,,,,,,,,,,,,,,,,,,,,,,,,,,,,,
,,,,,,,,2023-08-16_08h18.13.394,HF_wild_card,2022.2.4,Win32,61.22948812,55f1ca7532af7400121700cc,64d2fd46c836a06233681665,64dc78121d792017e0b5d4b4,,,,,,,ctch,resources/DBN.BMP,resources/DY.BMP,Door4,0.309259259,-0.003703704,1,0,0,0.913,optionRight,80,4630,2,41,0,41,0,1,,,,,,,,,,,,,,,,,,,,,,,,,,,,,,,,,,,,,,,
,,,,,,,,2023-08-16_08h18.13.394,HF_wild_card,2022.2.4,Win32,61.22948812,55f1ca7532af7400121700cc,64d2fd46c836a06233681665,64dc78121d792017e0b5d4b4,,,,,,,decisionTrl,resources/DBN.BMP,resources/DB.BMP,Door1,-0.350925926,-0.001851852,1,0,0,1.4147,optionLeft,30,4660,2,42,0,42,0,1,,,,,,,,,,,,,,,,,,,,,,,,,,,,,,,,,,,,,,,
,,,,,,,,2023-08-16_08h18.13.394,HF_wild_card,2022.2.4,Win32,61.22948812,55f1ca7532af7400121700cc,64d2fd46c836a06233681665,64dc78121d792017e0b5d4b4,,,,,,,decisionTrl,resources/DB.BMP,resources/DR.BMP,WildCard_NonEx,0.338888889,0.000925926,1,0,0,0.8628,optionRight,55,4715,2,43,0,43,0,1,,,,,,,,,,,,,,,,,,,,,,,,,,,,,,,,,,,,,,,
,,,,,,,,2023-08-16_08h18.13.394,HF_wild_card,2022.2.4,Win32,61.22948812,55f1ca7532af7400121700cc,64d2fd46c836a06233681665,64dc78121d792017e0b5d4b4,,,,,,,,,,,,,,,,,,,,,,,,,,1,0,1,0,1,,,,,,,,,,,,,,,,,,,,,,,,,,,,,,,,,,
,,,,,,,,2023-08-16_08h18.13.394,HF_wild_card,2022.2.4,Win32,61.22948812,55f1ca7532af7400121700cc,64d2fd46c836a06233681665,64dc78121d792017e0b5d4b4,,,,,,,decisionTrl,resources/DR.BMP,resources/DB.BMP,WildCard_NonEx,-0.528703704,-0.103703704,1,0,0,1.6055,optionLeft,55,4770,3,0,0,0,0,1,,,,,,,,,,,,,,,,,,,,,,,,,,,,,,,,,,,,,,,
,,,,,,,,2023-08-16_08h18.13.394,HF_wild_card,2022.2.4,Win32,61.22948812,55f1ca7532af7400121700cc,64d2fd46c836a06233681665,64dc78121d792017e0b5d4b4,,,,,,,decisionTrl,resources/DB.BMP,resources/DBN.BMP,Door2,-0.380555556,-0.043518519,1,0,0,1.414,optionLeft,40,4810,3,1,0,1,0,1,,,,,,,,,,,,,,,,,,,,,,,,,,,,,,,,,,,,,,,
,,,,,,,,2023-08-16_08h18.13.394,HF_wild_card,2022.2.4,Win32,61.22948812,55f1ca7532af7400121700cc,64d2fd46c836a06233681665,64dc78121d792017e0b5d4b4,,,,,,,sngl,resources/Empty.png,resources/DR.BMP,WildCard_NonEx,0.35462963,-0.022222222,1,0,0,0.6303,optionRight,45,4855,3,2,0,2,0,1,,,,,,,,,,,,,,,,,,,,,,,,,,,,,,,,,,,,,,,
,,,,,,,,2023-08-16_08h18.13.394,HF_wild_card,2022.2.4,Win32,61.22948812,55f1ca7532af7400121700cc,64d2fd46c836a06233681665,64dc78121d792017e0b5d4b4,,,,,,,decisionTrl,resources/DR.BMP,resources/DP.BMP,Door3,0.450925926,0.002777778,1,0,0,1.5476,optionRight,70,4925,3,3,0,3,0,1,,,,,,,,,,,,,,,,,,,,,,,,,,,,,,,,,,,,,,,
,,,,,,,,2023-08-16_08h18.13.394,HF_wild_card,2022.2.4,Win32,61.22948812,55f1ca7532af7400121700cc,64d2fd46c836a06233681665,64dc78121d792017e0b5d4b4,,,,,,,sngl,resources/DR.BMP,resources/Empty.png,WildCard_NonEx,-0.302777778,-0.02962963,1,0,0,0.5794,optionLeft,45,4970,3,4,0,4,0,1,,,,,,,,,,,,,,,,,,,,,,,,,,,,,,,,,,,,,,,
,,,,,,,,2023-08-16_08h18.13.394,HF_wild_card,2022.2.4,Win32,61.22948812,55f1ca7532af7400121700cc,64d2fd46c836a06233681665,64dc78121d792017e0b5d4b4,,,,,,,decisionTrl,resources/DB.BMP,resources/DBN.BMP,Door1,0.346296296,0.012037037,1,0,0,1.0464,optionRight,30,5000,3,5,0,5,0,1,,,,,,,,,,,,,,,,,,,,,,,,,,,,,,,,,,,,,,,
,,,,,,,,2023-08-16_08h18.13.394,HF_wild_card,2022.2.4,Win32,61.22948812,55f1ca7532af7400121700cc,64d2fd46c836a06233681665,64dc78121d792017e0b5d4b4,,,,,,,sngl,resources/Empty.png,resources/DY.BMP,Door4,0.374074074,0.012037037,1,0,0,0.613,optionRight,60,5060,3,6,0,6,0,1,,,,,,,,,,,,,,,,,,,,,,,,,,,,,,,,,,,,,,,
,,,,,,,,2023-08-16_08h18.13.394,HF_wild_card,2022.2.4,Win32,61.22948812,55f1ca7532af7400121700cc,64d2fd46c836a06233681665,64dc78121d792017e0b5d4b4,,,,,,,decisionTrl,resources/DR.BMP,resources/DY.BMP,WildCard_NonEx,-0.298148148,-0.025,1,0,0,1.0803,optionLeft,45,5105,3,7,0,7,0,1,,,,,,,,,,,,,,,,,,,,,,,,,,,,,,,,,,,,,,,
,,,,,,,,2023-08-16_08h18.13.394,HF_wild_card,2022.2.4,Win32,61.22948812,55f1ca7532af7400121700cc,64d2fd46c836a06233681665,64dc78121d792017e0b5d4b4,,,,,,,ctch,resources/DB.BMP,resources/DP.BMP,Door3,0.421296296,-0.001851852,1,0,0,1.3143,optionRight,70,5175,3,8,0,8,0,1,,,,,,,,,,,,,,,,,,,,,,,,,,,,,,,,,,,,,,,
,,,,,,,,2023-08-16_08h18.13.394,HF_wild_card,2022.2.4,Win32,61.22948812,55f1ca7532af7400121700cc,64d2fd46c836a06233681665,64dc78121d792017e0b5d4b4,,,,,,,decisionTrl,resources/DP.BMP,resources/DY.BMP,Door4,0.330555556,0.006481481,1,0,0,0.631,optionRight,60,5235,3,9,0,9,0,1,,,,,,,,,,,,,,,,,,,,,,,,,,,,,,,,,,,,,,,
,,,,,,,,2023-08-16_08h18.13.394,HF_wild_card,2022.2.4,Win32,61.22948812,55f1ca7532af7400121700cc,64d2fd46c836a06233681665,64dc78121d792017e0b5d4b4,,,,,,,decisionTrl,resources/DBN.BMP,resources/DB.BMP,Door1,-0.261111111,-0.017592593,1,0,0,1.2973,optionLeft,30,5265,3,10,0,10,0,1,,,,,,,,,,,,,,,,,,,,,,,,,,,,,,,,,,,,,,,
,,,,,,,,2023-08-16_08h18.13.394,HF_wild_card,2022.2.4,Win32,61.22948812,55f1ca7532af7400121700cc,64d2fd46c836a06233681665,64dc78121d792017e0b5d4b4,,,,,,,ctch,resources/DY.BMP,resources/DBN.BMP,Door4,-0.346296296,-0.037962963,1,0,0,0.8319,optionLeft,80,5345,3,11,0,11,0,1,,,,,,,,,,,,,,,,,,,,,,,,,,,,,,,,,,,,,,,
,,,,,,,,2023-08-16_08h18.13.394,HF_wild_card,2022.2.4,Win32,61.22948812,55f1ca7532af7400121700cc,64d2fd46c836a06233681665,64dc78121d792017e0b5d4b4,,,,,,,sngl,resources/DBN.BMP,resources/Empty.png,Door1,-0.255555556,-0.033333333,1,0,0,2.1639,optionLeft,30,5375,3,12,0,12,0,1,,,,,,,,,,,,,,,,,,,,,,,,,,,,,,,,,,,,,,,
,,,,,,,,2023-08-16_08h18.13.394,HF_wild_card,2022.2.4,Win32,61.22948812,55f1ca7532af7400121700cc,64d2fd46c836a06233681665,64dc78121d792017e0b5d4b4,,,,,,,decisionTrl,resources/DP.BMP,resources/DY.BMP,Door4,0.382407407,-0.001851852,1,0,0,0.6812,optionRight,80,5455,3,13,0,13,0,1,,,,,,,,,,,,,,,,,,,,,,,,,,,,,,,,,,,,,,,
,,,,,,,,2023-08-16_08h18.13.394,HF_wild_card,2022.2.4,Win32,61.22948812,55f1ca7532af7400121700cc,64d2fd46c836a06233681665,64dc78121d792017e0b5d4b4,,,,,,,ctch,resources/DP.BMP,resources/DB.BMP,Door3,-0.262962963,-0.038888889,1,0,0,0.9987,optionLeft,70,5525,3,14,0,14,0,1,,,,,,,,,,,,,,,,,,,,,,,,,,,,,,,,,,,,,,,
,,,,,,,,2023-08-16_08h18.13.394,HF_wild_card,2022.2.4,Win32,61.22948812,55f1ca7532af7400121700cc,64d2fd46c836a06233681665,64dc78121d792017e0b5d4b4,,,,,,,ctch,resources/DBN.BMP,resources/DY.BMP,Door4,0.294444444,-0.010185185,1,0,0,0.6979,optionRight,60,5585,3,15,0,15,0,1,,,,,,,,,,,,,,,,,,,,,,,,,,,,,,,,,,,,,,,
,,,,,,,,2023-08-16_08h18.13.394,HF_wild_card,2022.2.4,Win32,61.22948812,55f1ca7532af7400121700cc,64d2fd46c836a06233681665,64dc78121d792017e0b5d4b4,,,,,,,sngl,resources/DR.BMP,resources/Empty.png,WildCard_NonEx,-0.289814815,-0.007407407,1,0,0,0.5139,optionLeft,55,5640,3,16,0,16,0,1,,,,,,,,,,,,,,,,,,,,,,,,,,,,,,,,,,,,,,,
,,,,,,,,2023-08-16_08h18.13.394,HF_wild_card,2022.2.4,Win32,61.22948812,55f1ca7532af7400121700cc,64d2fd46c836a06233681665,64dc78121d792017e0b5d4b4,,,,,,,decisionTrl,resources/DBN.BMP,resources/DR.BMP,WildCard_NonEx,0.264814815,-0.010185185,1,0,0,1.0481,optionRight,55,5695,3,17,0,17,0,1,,,,,,,,,,,,,,,,,,,,,,,,,,,,,,,,,,,,,,,
,,,,,,,,2023-08-16_08h18.13.394,HF_wild_card,2022.2.4,Win32,61.22948812,55f1ca7532af7400121700cc,64d2fd46c836a06233681665,64dc78121d792017e0b5d4b4,,,,,,,sngl,resources/DP.BMP,resources/Empty.png,Door3,-0.241666667,-0.025925926,1,0,0,0.6133,optionLeft,70,5765,3,18,0,18,0,1,,,,,,,,,,,,,,,,,,,,,,,,,,,,,,,,,,,,,,,
,,,,,,,,2023-08-16_08h18.13.394,HF_wild_card,2022.2.4,Win32,61.22948812,55f1ca7532af7400121700cc,64d2fd46c836a06233681665,64dc78121d792017e0b5d4b4,,,,,,,sngl,resources/DY.BMP,resources/Empty.png,Door4,-0.264814815,-0.016666667,1,0,0,0.6635,optionLeft,80,5845,3,19,0,19,0,1,,,,,,,,,,,,,,,,,,,,,,,,,,,,,,,,,,,,,,,
,,,,,,,,2023-08-16_08h18.13.394,HF_wild_card,2022.2.4,Win32,61.22948812,55f1ca7532af7400121700cc,64d2fd46c836a06233681665,64dc78121d792017e0b5d4b4,,,,,,,decisionTrl,resources/DBN.BMP,resources/DB.BMP,Door1,-0.385185185,-0.025,1,0,0,1.8138,optionLeft,30,5875,3,20,0,20,0,1,,,,,,,,,,,,,,,,,,,,,,,,,,,,,,,,,,,,,,,
,,,,,,,,2023-08-16_08h18.13.394,HF_wild_card,2022.2.4,Win32,61.22948812,55f1ca7532af7400121700cc,64d2fd46c836a06233681665,64dc78121d792017e0b5d4b4,,,,,,,sngl,resources/Empty.png,resources/DBN.BMP,Door1,0.338888889,0.012962963,1,0,0,0.6804,optionRight,30,5905,3,21,0,21,0,1,,,,,,,,,,,,,,,,,,,,,,,,,,,,,,,,,,,,,,,
,,,,,,,,2023-08-16_08h18.13.394,HF_wild_card,2022.2.4,Win32,61.22948812,55f1ca7532af7400121700cc,64d2fd46c836a06233681665,64dc78121d792017e0b5d4b4,,,,,,,decisionTrl,resources/DB.BMP,resources/DR.BMP,WildCard_NonEx,0.430555556,0.008333333,1,0,0,1.0135,optionRight,45,5950,3,22,0,22,0,1,,,,,,,,,,,,,,,,,,,,,,,,,,,,,,,,,,,,,,,
,,,,,,,,2023-08-16_08h18.13.394,HF_wild_card,2022.2.4,Win32,61.22948812,55f1ca7532af7400121700cc,64d2fd46c836a06233681665,64dc78121d792017e0b5d4b4,,,,,,,ctch,resources/DP.BMP,resources/DB.BMP,Door3,-0.268518519,-0.038888889,1,0,0,1.5309,optionLeft,70,6020,3,23,0,23,0,1,,,,,,,,,,,,,,,,,,,,,,,,,,,,,,,,,,,,,,,
,,,,,,,,2023-08-16_08h18.13.394,HF_wild_card,2022.2.4,Win32,61.22948812,55f1ca7532af7400121700cc,64d2fd46c836a06233681665,64dc78121d792017e0b5d4b4,,,,,,,decisionTrl,resources/DBN.BMP,resources/DB.BMP,Door1,-0.341666667,-0.081481481,1,0,0,1.5484,optionLeft,30,6050,3,24,0,24,0,1,,,,,,,,,,,,,,,,,,,,,,,,,,,,,,,,,,,,,,,
,,,,,,,,2023-08-16_08h18.13.394,HF_wild_card,2022.2.4,Win32,61.22948812,55f1ca7532af7400121700cc,64d2fd46c836a06233681665,64dc78121d792017e0b5d4b4,,,,,,,decisionTrl,resources/DY.BMP,resources/DP.BMP,Door4,-0.346296296,-0.078703704,1,0,0,1.0142,optionLeft,60,6110,3,25,0,25,0,1,,,,,,,,,,,,,,,,,,,,,,,,,,,,,,,,,,,,,,,
,,,,,,,,2023-08-16_08h18.13.394,HF_wild_card,2022.2.4,Win32,61.22948812,55f1ca7532af7400121700cc,64d2fd46c836a06233681665,64dc78121d792017e0b5d4b4,,,,,,,decisionTrl,resources/DP.BMP,resources/DR.BMP,WildCard_NonEx,0.25462963,-0.040740741,1,0,0,1.4804,optionRight,45,6155,3,26,0,26,0,1,,,,,,,,,,,,,,,,,,,,,,,,,,,,,,,,,,,,,,,
,,,,,,,,2023-08-16_08h18.13.394,HF_wild_card,2022.2.4,Win32,61.22948812,55f1ca7532af7400121700cc,64d2fd46c836a06233681665,64dc78121d792017e0b5d4b4,,,,,,,decisionTrl,resources/DP.BMP,resources/DY.BMP,Door3,-0.339814815,-0.028703704,1,0,0,0.78,optionLeft,70,6225,3,27,0,27,0,1,,,,,,,,,,,,,,,,,,,,,,,,,,,,,,,,,,,,,,,
,,,,,,,,2023-08-16_08h18.13.394,HF_wild_card,2022.2.4,Win32,61.22948812,55f1ca7532af7400121700cc,64d2fd46c836a06233681665,64dc78121d792017e0b5d4b4,,,,,,,sngl,resources/Empty.png,resources/DR.BMP,WildCard_NonEx,0.4,0.013888889,1,0,0,0.7473,optionRight,55,6280,3,28,0,28,0,1,,,,,,,,,,,,,,,,,,,,,,,,,,,,,,,,,,,,,,,
,,,,,,,,2023-08-16_08h18.13.394,HF_wild_card,2022.2.4,Win32,61.22948812,55f1ca7532af7400121700cc,64d2fd46c836a06233681665,64dc78121d792017e0b5d4b4,,,,,,,decisionTrl,resources/DB.BMP,resources/DBN.BMP,Door1,0.368518519,0.021296296,1,0,0,0.9627,optionRight,30,6310,3,29,0,29,0,1,,,,,,,,,,,,,,,,,,,,,,,,,,,,,,,,,,,,,,,
,,,,,,,,2023-08-16_08h18.13.394,HF_wild_card,2022.2.4,Win32,61.22948812,55f1ca7532af7400121700cc,64d2fd46c836a06233681665,64dc78121d792017e0b5d4b4,,,,,,,decisionTrl,resources/DP.BMP,resources/DY.BMP,Door4,0.353703704,-0.000925926,1,0,0,1.6966,optionRight,60,6370,3,30,0,30,0,1,,,,,,,,,,,,,,,,,,,,,,,,,,,,,,,,,,,,,,,
,,,,,,,,2023-08-16_08h18.13.394,HF_wild_card,2022.2.4,Win32,61.22948812,55f1ca7532af7400121700cc,64d2fd46c836a06233681665,64dc78121d792017e0b5d4b4,,,,,,,ctch,resources/DBN.BMP,resources/DY.BMP,Door4,0.442592593,-0.034259259,1,0,0,0.9806,optionRight,80,6450,3,31,0,31,0,1,,,,,,,,,,,,,,,,,,,,,,,,,,,,,,,,,,,,,,,
,,,,,,,,2023-08-16_08h18.13.394,HF_wild_card,2022.2.4,Win32,61.22948812,55f1ca7532af7400121700cc,64d2fd46c836a06233681665,64dc78121d792017e0b5d4b4,,,,,,,decisionTrl,resources/DBN.BMP,resources/DB.BMP,Door1,-0.236111111,-0.00462963,1,0,0,1.2477,optionLeft,30,6480,3,32,0,32,0,1,,,,,,,,,,,,,,,,,,,,,,,,,,,,,,,,,,,,,,,
,,,,,,,,2023-08-16_08h18.13.394,HF_wild_card,2022.2.4,Win32,61.22948812,55f1ca7532af7400121700cc,64d2fd46c836a06233681665,64dc78121d792017e0b5d4b4,,,,,,,ctch,resources/DB.BMP,resources/DP.BMP,Door3,0.299074074,-0.022222222,1,0,0,0.8312,optionRight,70,6550,3,33,0,33,0,1,,,,,,,,,,,,,,,,,,,,,,,,,,,,,,,,,,,,,,,
,,,,,,,,2023-08-16_08h18.13.394,HF_wild_card,2022.2.4,Win32,61.22948812,55f1ca7532af7400121700cc,64d2fd46c836a06233681665,64dc78121d792017e0b5d4b4,,,,,,,decisionTrl,resources/DY.BMP,resources/DP.BMP,Door4,-0.235185185,-0.021296296,1,0,0,0.6312,optionLeft,60,6610,3,34,0,34,0,1,,,,,,,,,,,,,,,,,,,,,,,,,,,,,,,,,,,,,,,
,,,,,,,,2023-08-16_08h18.13.394,HF_wild_card,2022.2.4,Win32,61.22948812,55f1ca7532af7400121700cc,64d2fd46c836a06233681665,64dc78121d792017e0b5d4b4,,,,,,,sngl,resources/Empty.png,resources/DB.BMP,Door2,0.317592593,0.006481481,1,0,0,0.6302,optionRight,20,6630,3,35,0,35,0,1,,,,,,,,,,,,,,,,,,,,,,,,,,,,,,,,,,,,,,,
,,,,,,,,2023-08-16_08h18.13.394,HF_wild_card,2022.2.4,Win32,61.22948812,55f1ca7532af7400121700cc,64d2fd46c836a06233681665,64dc78121d792017e0b5d4b4,,,,,,,decisionTrl,resources/DR.BMP,resources/DBN.BMP,WildCard_NonEx,-0.290740741,-0.031481481,1,0,0,1.0294,optionLeft,55,6685,3,36,0,36,0,1,,,,,,,,,,,,,,,,,,,,,,,,,,,,,,,,,,,,,,,
,,,,,,,,2023-08-16_08h18.13.394,HF_wild_card,2022.2.4,Win32,61.22948812,55f1ca7532af7400121700cc,64d2fd46c836a06233681665,64dc78121d792017e0b5d4b4,,,,,,,decisionTrl,resources/DY.BMP,resources/DP.BMP,Door4,-0.286111111,-0.038888889,1,0,0,0.6972,optionLeft,60,6745,3,37,0,37,0,1,,,,,,,,,,,,,,,,,,,,,,,,,,,,,,,,,,,,,,,
,,,,,,,,2023-08-16_08h18.13.394,HF_wild_card,2022.2.4,Win32,61.22948812,55f1ca7532af7400121700cc,64d2fd46c836a06233681665,64dc78121d792017e0b5d4b4,,,,,,,sngl,resources/Empty.png,resources/DP.BMP,Door3,0.389814815,-0.011111111,1,0,0,0.5625,optionRight,70,6815,3,38,0,38,0,1,,,,,,,,,,,,,,,,,,,,,,,,,,,,,,,,,,,,,,,
,,,,,,,,2023-08-16_08h18.13.394,HF_wild_card,2022.2.4,Win32,61.22948812,55f1ca7532af7400121700cc,64d2fd46c836a06233681665,64dc78121d792017e0b5d4b4,,,,,,,sngl,resources/DB.BMP,resources/Empty.png,Door2,-0.251851852,-0.061111111,1,0,0,0.6973,optionLeft,40,6855,3,39,0,39,0,1,,,,,,,,,,,,,,,,,,,,,,,,,,,,,,,,,,,,,,,
,,,,,,,,2023-08-16_08h18.13.394,HF_wild_card,2022.2.4,Win32,61.22948812,55f1ca7532af7400121700cc,64d2fd46c836a06233681665,64dc78121d792017e0b5d4b4,,,,,,,decisionTrl,resources/DB.BMP,resources/DBN.BMP,Door2,-0.327777778,-0.087962963,1,0,0,0.6647,optionLeft,40,6895,3,40,0,40,0,1,,,,,,,,,,,,,,,,,,,,,,,,,,,,,,,,,,,,,,,
,,,,,,,,2023-08-16_08h18.13.394,HF_wild_card,2022.2.4,Win32,61.22948812,55f1ca7532af7400121700cc,64d2fd46c836a06233681665,64dc78121d792017e0b5d4b4,,,,,,,decisionTrl,resources/DY.BMP,resources/DR.BMP,Door4,-0.415740741,-0.135185185,1,0,0,0.9473,optionLeft,60,6955,3,41,0,41,0,1,,,,,,,,,,,,,,,,,,,,,,,,,,,,,,,,,,,,,,,
,,,,,,,,2023-08-16_08h18.13.394,HF_wild_card,2022.2.4,Win32,61.22948812,55f1ca7532af7400121700cc,64d2fd46c836a06233681665,64dc78121d792017e0b5d4b4,,,,,,,ctch,resources/DY.BMP,resources/DBN.BMP,Door4,-0.344444444,-0.058333333,1,0,0,0.9474,optionLeft,80,7035,3,42,0,42,0,1,,,,,,,,,,,,,,,,,,,,,,,,,,,,,,,,,,,,,,,
,,,,,,,,2023-08-16_08h18.13.394,HF_wild_card,2022.2.4,Win32,61.22948812,55f1ca7532af7400121700cc,64d2fd46c836a06233681665,64dc78121d792017e0b5d4b4,,,,,,,decisionTrl,resources/DY.BMP,resources/DP.BMP,Door4,-0.243518519,-0.028703704,1,0,0,0.6978,optionLeft,80,7115,3,43,0,43,0,1,,,,,,,,,,,,,,,,,,,,,,,,,,,,,,,,,,,,,,,
,,,,,,,,2023-08-16_08h18.13.394,HF_wild_card,2022.2.4,Win32,61.22948812,55f1ca7532af7400121700cc,64d2fd46c836a06233681665,64dc78121d792017e0b5d4b4,,,,,,,,,,,,,,,,,,,,,,,,,,2,0,2,0,1,,,,,,,,,,,,,,,,,,,,,,,,,,,,,,,,,,
,,,,,,,,2023-08-16_08h18.13.394,HF_wild_card,2022.2.4,Win32,61.22948812,55f1ca7532af7400121700cc,64d2fd46c836a06233681665,64dc78121d792017e0b5d4b4,,,,,,,decisionTrl,resources/DY.BMP,resources/DP.BMP,Door4,-0.283333333,-0.107407407,1,0,0,1.1227,optionLeft,80,7195,4,0,0,0,0,1,,,,,,,,,,,,,,,,,,,,,,,,,,,,,,,,,,,,,,,
,,,,,,,,2023-08-16_08h18.13.394,HF_wild_card,2022.2.4,Win32,61.22948812,55f1ca7532af7400121700cc,64d2fd46c836a06233681665,64dc78121d792017e0b5d4b4,,,,,,,decisionTrl,resources/DY.BMP,resources/DP.BMP,Door4,0.000925926,-0.019444444,1,0,0,0.1475,optionLeft,60,7255,4,1,0,1,0,1,,,,,,,,,,,,,,,,,,,,,,,,,,,,,,,,,,,,,,,
,,,,,,,,2023-08-16_08h18.13.394,HF_wild_card,2022.2.4,Win32,61.22948812,55f1ca7532af7400121700cc,64d2fd46c836a06233681665,64dc78121d792017e0b5d4b4,,,,,,,ctch,resources/DP.BMP,resources/DB.BMP,Door3,-0.240740741,-0.067592593,1,0,0,0.8133,optionLeft,70,7325,4,2,0,2,0,1,,,,,,,,,,,,,,,,,,,,,,,,,,,,,,,,,,,,,,,
,,,,,,,,2023-08-16_08h18.13.394,HF_wild_card,2022.2.4,Win32,61.22948812,55f1ca7532af7400121700cc,64d2fd46c836a06233681665,64dc78121d792017e0b5d4b4,,,,,,,sngl,resources/DP.BMP,resources/Empty.png,Door3,-0.289814815,-0.036111111,1,0,0,0.6468,optionLeft,70,7395,4,3,0,3,0,1,,,,,,,,,,,,,,,,,,,,,,,,,,,,,,,,,,,,,,,
,,,,,,,,2023-08-16_08h18.13.394,HF_wild_card,2022.2.4,Win32,61.22948812,55f1ca7532af7400121700cc,64d2fd46c836a06233681665,64dc78121d792017e0b5d4b4,,,,,,,decisionTrl,resources/DP.BMP,resources/DY.BMP,Door3,-0.241666667,-0.064814815,1,0,0,0.515,optionLeft,70,7465,4,4,0,4,0,1,,,,,,,,,,,,,,,,,,,,,,,,,,,,,,,,,,,,,,,
,,,,,,,,2023-08-16_08h18.13.394,HF_wild_card,2022.2.4,Win32,61.22948812,55f1ca7532af7400121700cc,64d2fd46c836a06233681665,64dc78121d792017e0b5d4b4,,,,,,,sngl,resources/Empty.png,resources/DBN.BMP,Door1,0.360185185,0.003703704,1,0,0,0.8476,optionRight,30,7495,4,5,0,5,0,1,,,,,,,,,,,,,,,,,,,,,,,,,,,,,,,,,,,,,,,
,,,,,,,,2023-08-16_08h18.13.394,HF_wild_card,2022.2.4,Win32,61.22948812,55f1ca7532af7400121700cc,64d2fd46c836a06233681665,64dc78121d792017e0b5d4b4,,,,,,,decisionTrl,resources/DY.BMP,resources/DP.BMP,Door4,-0.22962963,-0.050925926,1,0,0,1.8805,optionLeft,80,7575,4,6,0,6,0,1,,,,,,,,,,,,,,,,,,,,,,,,,,,,,,,,,,,,,,,
,,,,,,,,2023-08-16_08h18.13.394,HF_wild_card,2022.2.4,Win32,61.22948812,55f1ca7532af7400121700cc,64d2fd46c836a06233681665,64dc78121d792017e0b5d4b4,,,,,,,decisionTrl,resources/DG.BMP,resources/DB.BMP,WildCard_Ex,-0.234259259,-0.040740741,1,0,0,1.6463,optionLeft,45,7620,4,7,0,7,0,1,,,,,,,,,,,,,,,,,,,,,,,,,,,,,,,,,,,,,,,
,,,,,,,,2023-08-16_08h18.13.394,HF_wild_card,2022.2.4,Win32,61.22948812,55f1ca7532af7400121700cc,64d2fd46c836a06233681665,64dc78121d792017e0b5d4b4,,,,,,,decisionTrl,resources/DG.BMP,resources/DY.BMP,Door4,0.009259259,-0.008333333,1,0,0,0.3478,optionRight,60,7680,4,8,0,8,0,1,,,,,,,,,,,,,,,,,,,,,,,,,,,,,,,,,,,,,,,
,,,,,,,,2023-08-16_08h18.13.394,HF_wild_card,2022.2.4,Win32,61.22948812,55f1ca7532af7400121700cc,64d2fd46c836a06233681665,64dc78121d792017e0b5d4b4,,,,,,,decisionTrl,resources/DB.BMP,resources/DBN.BMP,Door1,0.44537037,0.022222222,1,0,0,1.4307,optionRight,30,7710,4,9,0,9,0,1,,,,,,,,,,,,,,,,,,,,,,,,,,,,,,,,,,,,,,,
,,,,,,,,2023-08-16_08h18.13.394,HF_wild_card,2022.2.4,Win32,61.22948812,55f1ca7532af7400121700cc,64d2fd46c836a06233681665,64dc78121d792017e0b5d4b4,,,,,,,sngl,resources/DB.BMP,resources/Empty.png,Door2,-0.232407407,-0.022222222,1,0,0,1.0647,optionLeft,20,7730,4,10,0,10,0,1,,,,,,,,,,,,,,,,,,,,,,,,,,,,,,,,,,,,,,,
,,,,,,,,2023-08-16_08h18.13.394,HF_wild_card,2022.2.4,Win32,61.22948812,55f1ca7532af7400121700cc,64d2fd46c836a06233681665,64dc78121d792017e0b5d4b4,,,,,,,decisionTrl,resources/DP.BMP,resources/DY.BMP,Door4,0.45462963,0.023148148,1,0,0,1.1307,optionRight,80,7810,4,11,0,11,0,1,,,,,,,,,,,,,,,,,,,,,,,,,,,,,,,,,,,,,,,
,,,,,,,,2023-08-16_08h18.13.394,HF_wild_card,2022.2.4,Win32,61.22948812,55f1ca7532af7400121700cc,64d2fd46c836a06233681665,64dc78121d792017e0b5d4b4,,,,,,,decisionTrl,resources/DBN.BMP,resources/DB.BMP,Door1,-0.298148148,-0.05462963,1,0,0,1.2309,optionLeft,30,7840,4,12,0,12,0,1,,,,,,,,,,,,,,,,,,,,,,,,,,,,,,,,,,,,,,,
,,,,,,,,2023-08-16_08h18.13.394,HF_wild_card,2022.2.4,Win32,61.22948812,55f1ca7532af7400121700cc,64d2fd46c836a06233681665,64dc78121d792017e0b5d4b4,,,,,,,ctch,resources/DY.BMP,resources/DBN.BMP,Door4,-0.234259259,-0.030555556,1,0,0,0.815,optionLeft,80,7920,4,13,0,13,0,1,,,,,,,,,,,,,,,,,,,,,,,,,,,,,,,,,,,,,,,
,,,,,,,,2023-08-16_08h18.13.394,HF_wild_card,2022.2.4,Win32,61.22948812,55f1ca7532af7400121700cc,64d2fd46c836a06233681665,64dc78121d792017e0b5d4b4,,,,,,,sngl,resources/DG.BMP,resources/Empty.png,WildCard_Ex,-0.199074074,-0.04537037,1,0,0,0.9309,optionLeft,45,7965,4,14,0,14,0,1,,,,,,,,,,,,,,,,,,,,,,,,,,,,,,,,,,,,,,,
,,,,,,,,2023-08-16_08h18.13.394,HF_wild_card,2022.2.4,Win32,61.22948812,55f1ca7532af7400121700cc,64d2fd46c836a06233681665,64dc78121d792017e0b5d4b4,,,,,,,sngl,resources/Empty.png,resources/DG.BMP,WildCard_Ex,0.372222222,0.02962963,1,0,0,0.5636,optionRight,55,8020,4,15,0,15,0,1,,,,,,,,,,,,,,,,,,,,,,,,,,,,,,,,,,,,,,,
,,,,,,,,2023-08-16_08h18.13.394,HF_wild_card,2022.2.4,Win32,61.22948812,55f1ca7532af7400121700cc,64d2fd46c836a06233681665,64dc78121d792017e0b5d4b4,,,,,,,sngl,resources/Empty.png,resources/DP.BMP,Door3,0.336111111,0.006481481,1,0,0,0.764,optionRight,70,8090,4,16,0,16,0,1,,,,,,,,,,,,,,,,,,,,,,,,,,,,,,,,,,,,,,,
,,,,,,,,2023-08-16_08h18.13.394,HF_wild_card,2022.2.4,Win32,61.22948812,55f1ca7532af7400121700cc,64d2fd46c836a06233681665,64dc78121d792017e0b5d4b4,,,,,,,decisionTrl,resources/DBN.BMP,resources/DB.BMP,Door2,0.139814815,-0.012962963,1,0,0,1.6974,optionRight,20,8110,4,17,0,17,0,1,,,,,,,,,,,,,,,,,,,,,,,,,,,,,,,,,,,,,,,
,,,,,,,,2023-08-16_08h18.13.394,HF_wild_card,2022.2.4,Win32,61.22948812,55f1ca7532af7400121700cc,64d2fd46c836a06233681665,64dc78121d792017e0b5d4b4,,,,,,,sngl,resources/DY.BMP,resources/Empty.png,Door4,-0.276851852,-0.027777778,1,0,0,0.5648,optionLeft,60,8170,4,18,0,18,0,1,,,,,,,,,,,,,,,,,,,,,,,,,,,,,,,,,,,,,,,
,,,,,,,,2023-08-16_08h18.13.394,HF_wild_card,2022.2.4,Win32,61.22948812,55f1ca7532af7400121700cc,64d2fd46c836a06233681665,64dc78121d792017e0b5d4b4,,,,,,,decisionTrl,resources/DG.BMP,resources/DBN.BMP,WildCard_Ex,-0.238888889,-0.025925926,1,0,0,0.6471,optionLeft,55,8225,4,19,0,19,0,1,,,,,,,,,,,,,,,,,,,,,,,,,,,,,,,,,,,,,,,
,,,,,,,,2023-08-16_08h18.13.394,HF_wild_card,2022.2.4,Win32,61.22948812,55f1ca7532af7400121700cc,64d2fd46c836a06233681665,64dc78121d792017e0b5d4b4,,,,,,,ctch,resources/DP.BMP,resources/DB.BMP,Door3,-0.228703704,-0.022222222,1,0,0,0.9309,optionLeft,70,8295,4,20,0,20,0,1,,,,,,,,,,,,,,,,,,,,,,,,,,,,,,,,,,,,,,,
,,,,,,,,2023-08-16_08h18.13.394,HF_wild_card,2022.2.4,Win32,61.22948812,55f1ca7532af7400121700cc,64d2fd46c836a06233681665,64dc78121d792017e0b5d4b4,,,,,,,decisionTrl,resources/DBN.BMP,resources/DB.BMP,Door1,-0.215740741,-0.018518519,1,0,0,0.6976,optionLeft,30,8325,4,21,0,21,0,1,,,,,,,,,,,,,,,,,,,,,,,,,,,,,,,,,,,,,,,
,,,,,,,,2023-08-16_08h18.13.394,HF_wild_card,2022.2.4,Win32,61.22948812,55f1ca7532af7400121700cc,64d2fd46c836a06233681665,64dc78121d792017e0b5d4b4,,,,,,,ctch,resources/DBN.BMP,resources/DY.BMP,Door4,0.303703704,-0.000925926,1,0,0,0.896,optionRight,60,8385,4,22,0,22,0,1,,,,,,,,,,,,,,,,,,,,,,,,,,,,,,,,,,,,,,,
,,,,,,,,2023-08-16_08h18.13.394,HF_wild_card,2022.2.4,Win32,61.22948812,55f1ca7532af7400121700cc,64d2fd46c836a06233681665,64dc78121d792017e0b5d4b4,,,,,,,sngl,resources/Empty.png,resources/DG.BMP,WildCard_Ex,0.255555556,0.014814815,1,0,0,0.6144,optionRight,45,8430,4,23,0,23,0,1,,,,,,,,,,,,,,,,,,,,,,,,,,,,,,,,,,,,,,,
,,,,,,,,2023-08-16_08h18.13.394,HF_wild_card,2022.2.4,Win32,61.22948812,55f1ca7532af7400121700cc,64d2fd46c836a06233681665,64dc78121d792017e0b5d4b4,,,,,,,sngl,resources/Empty.png,resources/DY.BMP,Door4,0.328703704,0.002777778,1,0,0,0.5628,optionRight,80,8510,4,24,0,24,0,1,,,,,,,,,,,,,,,,,,,,,,,,,,,,,,,,,,,,,,,
,,,,,,,,2023-08-16_08h18.13.394,HF_wild_card,2022.2.4,Win32,61.22948812,55f1ca7532af7400121700cc,64d2fd46c836a06233681665,64dc78121d792017e0b5d4b4,,,,,,,sngl,resources/DBN.BMP,resources/Empty.png,Door1,-0.146296296,-0.016666667,1,0,0,0.6819,optionLeft,30,8540,4,25,0,25,0,1,,,,,,,,,,,,,,,,,,,,,,,,,,,,,,,,,,,,,,,
,,,,,,,,2023-08-16_08h18.13.394,HF_wild_card,2022.2.4,Win32,61.22948812,55f1ca7532af7400121700cc,64d2fd46c836a06233681665,64dc78121d792017e0b5d4b4,,,,,,,decisionTrl,resources/DBN.BMP,resources/DG.BMP,WildCard_Ex,0.307407407,0.025,1,0,0,1.2476,optionRight,45,8585,4,26,0,26,0,1,,,,,,,,,,,,,,,,,,,,,,,,,,,,,,,,,,,,,,,
,,,,,,,,2023-08-16_08h18.13.394,HF_wild_card,2022.2.4,Win32,61.22948812,55f1ca7532af7400121700cc,64d2fd46c836a06233681665,64dc78121d792017e0b5d4b4,,,,,,,decisionTrl,resources/DB.BMP,resources/DBN.BMP,Door1,0.346296296,0.025,1,0,0,1.114,optionRight,30,8615,4,27,0,27,0,1,,,,,,,,,,,,,,,,,,,,,,,,,,,,,,,,,,,,,,,
,,,,,,,,2023-08-16_08h18.13.394,HF_wild_card,2022.2.4,Win32,61.22948812,55f1ca7532af7400121700cc,64d2fd46c836a06233681665,64dc78121d792017e0b5d4b4,,,,,,,sngl,resources/DG.BMP,resources/Empty.png,WildCard_Ex,-0.274074074,-0.047222222,1,0,0,0.6299,optionLeft,55,8670,4,28,0,28,0,1,,,,,,,,,,,,,,,,,,,,,,,,,,,,,,,,,,,,,,,
,,,,,,,,2023-08-16_08h18.13.394,HF_wild_card,2022.2.4,Win32,61.22948812,55f1ca7532af7400121700cc,64d2fd46c836a06233681665,64dc78121d792017e0b5d4b4,,,,,,,decisionTrl,resources/DB.BMP,resources/DG.BMP,WildCard_Ex,0.27962963,-0.001851852,1,0,0,0.8807,optionRight,45,8715,4,29,0,29,0,1,,,,,,,,,,,,,,,,,,,,,,,,,,,,,,,,,,,,,,,
,,,,,,,,2023-08-16_08h18.13.394,HF_wild_card,2022.2.4,Win32,61.22948812,55f1ca7532af7400121700cc,64d2fd46c836a06233681665,64dc78121d792017e0b5d4b4,,,,,,,sngl,resources/Empty.png,resources/DB.BMP,Door2,0.308333333,-0.017592593,1,0,0,0.8637,optionRight,40,8755,4,30,0,30,0,1,,,,,,,,,,,,,,,,,,,,,,,,,,,,,,,,,,,,,,,
,,,,,,,,2023-08-16_08h18.13.394,HF_wild_card,2022.2.4,Win32,61.22948812,55f1ca7532af7400121700cc,64d2fd46c836a06233681665,64dc78121d792017e0b5d4b4,,,,,,,decisionTrl,resources/DP.BMP,resources/DY.BMP,Door4,0.363888889,0.016666667,1,0,0,1.3799,optionRight,60,8815,4,31,0,31,0,1,,,,,,,,,,,,,,,,,,,,,,,,,,,,,,,,,,,,,,,
,,,,,,,,2023-08-16_08h18.13.394,HF_wild_card,2022.2.4,Win32,61.22948812,55f1ca7532af7400121700cc,64d2fd46c836a06233681665,64dc78121d792017e0b5d4b4,,,,,,,decisionTrl,resources/DBN.BMP,resources/DB.BMP,Door1,-0.313888889,-0.046296296,1,0,0,0.9789,optionLeft,30,8845,4,32,0,32,0,1,,,,,,,,,,,,,,,,,,,,,,,,,,,,,,,,,,,,,,,
,,,,,,,,2023-08-16_08h18.13.394,HF_wild_card,2022.2.4,Win32,61.22948812,55f1ca7532af7400121700cc,64d2fd46c836a06233681665,64dc78121d792017e0b5d4b4,,,,,,,decisionTrl,resources/DB.BMP,resources/DBN.BMP,Door1,0.334259259,-0.022222222,1,0,0,0.8309,optionRight,30,8875,4,33,0,33,0,1,,,,,,,,,,,,,,,,,,,,,,,,,,,,,,,,,,,,,,,
,,,,,,,,2023-08-16_08h18.13.394,HF_wild_card,2022.2.4,Win32,61.22948812,55f1ca7532af7400121700cc,64d2fd46c836a06233681665,64dc78121d792017e0b5d4b4,,,,,,,decisionTrl,resources/DP.BMP,resources/DY.BMP,Door4,0.293518519,-0.003703704,1,0,0,0.9968,optionRight,60,8935,4,34,0,34,0,1,,,,,,,,,,,,,,,,,,,,,,,,,,,,,,,,,,,,,,,
,,,,,,,,2023-08-16_08h18.13.394,HF_wild_card,2022.2.4,Win32,61.22948812,55f1ca7532af7400121700cc,64d2fd46c836a06233681665,64dc78121d792017e0b5d4b4,,,,,,,ctch,resources/DBN.BMP,resources/DY.BMP,Door4,0.306481481,-0.021296296,1,0,0,0.6975,optionRight,60,8995,4,35,0,35,0,1,,,,,,,,,,,,,,,,,,,,,,,,,,,,,,,,,,,,,,,
,,,,,,,,2023-08-16_08h18.13.394,HF_wild_card,2022.2.4,Win32,61.22948812,55f1ca7532af7400121700cc,64d2fd46c836a06233681665,64dc78121d792017e0b5d4b4,,,,,,,decisionTrl,resources/DB.BMP,resources/DBN.BMP,Door1,0.362962963,0.018518519,1,0,0,0.9649,optionRight,30,9025,4,36,0,36,0,1,,,,,,,,,,,,,,,,,,,,,,,,,,,,,,,,,,,,,,,
,,,,,,,,2023-08-16_08h18.13.394,HF_wild_card,2022.2.4,Win32,61.22948812,55f1ca7532af7400121700cc,64d2fd46c836a06233681665,64dc78121d792017e0b5d4b4,,,,,,,ctch,resources/DY.BMP,resources/DBN.BMP,Door4,-0.208333333,-0.023148148,1,0,0,1.5799,optionLeft,80,9105,4,37,0,37,0,1,,,,,,,,,,,,,,,,,,,,,,,,,,,,,,,,,,,,,,,
,,,,,,,,2023-08-16_08h18.13.394,HF_wild_card,2022.2.4,Win32,61.22948812,55f1ca7532af7400121700cc,64d2fd46c836a06233681665,64dc78121d792017e0b5d4b4,,,,,,,decisionTrl,resources/DP.BMP,resources/DG.BMP,Door3,-0.253703704,-0.05462963,1,0,0,1.463,optionLeft,70,9175,4,38,0,38,0,1,,,,,,,,,,,,,,,,,,,,,,,,,,,,,,,,,,,,,,,
,,,,,,,,2023-08-16_08h18.13.394,HF_wild_card,2022.2.4,Win32,61.22948812,55f1ca7532af7400121700cc,64d2fd46c836a06233681665,64dc78121d792017e0b5d4b4,,,,,,,decisionTrl,resources/DG.BMP,resources/DP.BMP,Door3,0.250925926,-0.035185185,1,0,0,1.2299,optionRight,70,9245,4,39,0,39,0,1,,,,,,,,,,,,,,,,,,,,,,,,,,,,,,,,,,,,,,,
,,,,,,,,2023-08-16_08h18.13.394,HF_wild_card,2022.2.4,Win32,61.22948812,55f1ca7532af7400121700cc,64d2fd46c836a06233681665,64dc78121d792017e0b5d4b4,,,,,,,ctch,resources/DB.BMP,resources/DP.BMP,Door3,0.283333333,-0.014814815,1,0,0,1.1137,optionRight,70,9315,4,40,0,40,0,1,,,,,,,,,,,,,,,,,,,,,,,,,,,,,,,,,,,,,,,
,,,,,,,,2023-08-16_08h18.13.394,HF_wild_card,2022.2.4,Win32,61.22948812,55f1ca7532af7400121700cc,64d2fd46c836a06233681665,64dc78121d792017e0b5d4b4,,,,,,,decisionTrl,resources/DY.BMP,resources/DG.BMP,Door4,-0.218518519,-0.027777778,1,0,0,1.1975,optionLeft,60,9375,4,41,0,41,0,1,,,,,,,,,,,,,,,,,,,,,,,,,,,,,,,,,,,,,,,
,,,,,,,,2023-08-16_08h18.13.394,HF_wild_card,2022.2.4,Win32,61.22948812,55f1ca7532af7400121700cc,64d2fd46c836a06233681665,64dc78121d792017e0b5d4b4,,,,,,,ctch,resources/DB.BMP,resources/DP.BMP,Door3,0.337962963,-0.012962963,1,0,0,0.9139,optionRight,70,9445,4,42,0,42,0,1,,,,,,,,,,,,,,,,,,,,,,,,,,,,,,,,,,,,,,,
,,,,,,,,2023-08-16_08h18.13.394,HF_wild_card,2022.2.4,Win32,61.22948812,55f1ca7532af7400121700cc,64d2fd46c836a06233681665,64dc78121d792017e0b5d4b4,,,,,,,decisionTrl,resources/DY.BMP,resources/DP.BMP,Door4,-0.277777778,-0.040740741,1,0,0,2.2811,optionLeft,80,9525,4,43,0,43,0,1,,,,,,,,,,,,,,,,,,,,,,,,,,,,,,,,,,,,,,,
,,,,,,,,2023-08-16_08h18.13.394,HF_wild_card,2022.2.4,Win32,61.22948812,55f1ca7532af7400121700cc,64d2fd46c836a06233681665,64dc78121d792017e0b5d4b4,,,,,,,,,,,,,,,,,,,,,,,,,,3,0,3,0,1,,,,,,,,,,,,,,,,,,,,,,,,,,,,,,,,,,
,,,,,,,,2023-08-16_08h18.13.394,HF_wild_card,2022.2.4,Win32,61.22948812,55f1ca7532af7400121700cc,64d2fd46c836a06233681665,64dc78121d792017e0b5d4b4,,,,,,,sngl,resources/Empty.png,resources/DG.BMP,WildCard_Ex,0.342592593,-0.021296296,1,0,0,0.9404,optionRight,45,9570,5,0,0,0,0,1,,,,,,,,,,,,,,,,,,,,,,,,,,,,,,,,,,,,,,,
,,,,,,,,2023-08-16_08h18.13.394,HF_wild_card,2022.2.4,Win32,61.22948812,55f1ca7532af7400121700cc,64d2fd46c836a06233681665,64dc78121d792017e0b5d4b4,,,,,,,sngl,resources/DG.BMP,resources/Empty.png,WildCard_Ex,-0.273148148,-0.031481481,1,0,0,0.764,optionLeft,45,9615,5,1,0,1,0,1,,,,,,,,,,,,,,,,,,,,,,,,,,,,,,,,,,,,,,,
,,,,,,,,2023-08-16_08h18.13.394,HF_wild_card,2022.2.4,Win32,61.22948812,55f1ca7532af7400121700cc,64d2fd46c836a06233681665,64dc78121d792017e0b5d4b4,,,,,,,decisionTrl,resources/DB.BMP,resources/DBN.BMP,Door1,0.349074074,0.026851852,1,0,0,1.0131,optionRight,30,9645,5,2,0,2,0,1,,,,,,,,,,,,,,,,,,,,,,,,,,,,,,,,,,,,,,,
,,,,,,,,2023-08-16_08h18.13.394,HF_wild_card,2022.2.4,Win32,61.22948812,55f1ca7532af7400121700cc,64d2fd46c836a06233681665,64dc78121d792017e0b5d4b4,,,,,,,ctch,resources/DB.BMP,resources/DP.BMP,Door3,0.32037037,-0.018518519,1,0,0,0.8976,optionRight,70,9715,5,3,0,3,0,1,,,,,,,,,,,,,,,,,,,,,,,,,,,,,,,,,,,,,,,
,,,,,,,,2023-08-16_08h18.13.394,HF_wild_card,2022.2.4,Win32,61.22948812,55f1ca7532af7400121700cc,64d2fd46c836a06233681665,64dc78121d792017e0b5d4b4,,,,,,,sngl,resources/DP.BMP,resources/Empty.png,Door3,-0.201851852,-0.055555556,1,0,0,0.5313,optionLeft,70,9785,5,4,0,4,0,1,,,,,,,,,,,,,,,,,,,,,,,,,,,,,,,,,,,,,,,
,,,,,,,,2023-08-16_08h18.13.394,HF_wild_card,2022.2.4,Win32,61.22948812,55f1ca7532af7400121700cc,64d2fd46c836a06233681665,64dc78121d792017e0b5d4b4,,,,,,,decisionTrl,resources/DBN.BMP,resources/DB.BMP,Door1,-0.314814815,-0.076851852,1,0,0,0.8972,optionLeft,30,9815,5,5,0,5,0,1,,,,,,,,,,,,,,,,,,,,,,,,,,,,,,,,,,,,,,,
,,,,,,,,2023-08-16_08h18.13.394,HF_wild_card,2022.2.4,Win32,61.22948812,55f1ca7532af7400121700cc,64d2fd46c836a06233681665,64dc78121d792017e0b5d4b4,,,,,,,decisionTrl,resources/DY.BMP,resources/DP.BMP,Door4,-0.224074074,-0.019444444,1,0,0,1.4641,optionLeft,80,9895,5,6,0,6,0,1,,,,,,,,,,,,,,,,,,,,,,,,,,,,,,,,,,,,,,,
,,,,,,,,2023-08-16_08h18.13.394,HF_wild_card,2022.2.4,Win32,61.22948812,55f1ca7532af7400121700cc,64d2fd46c836a06233681665,64dc78121d792017e0b5d4b4,,,,,,,decisionTrl,resources/DB.BMP,resources/DBN.BMP,Door1,0.240740741,-0.008333333,1,0,0,0.864,optionRight,30,9925,5,7,0,7,0,1,,,,,,,,,,,,,,,,,,,,,,,,,,,,,,,,,,,,,,,
,,,,,,,,2023-08-16_08h18.13.394,HF_wild_card,2022.2.4,Win32,61.22948812,55f1ca7532af7400121700cc,64d2fd46c836a06233681665,64dc78121d792017e0b5d4b4,,,,,,,ctch,resources/DBN.BMP,resources/DY.BMP,Door4,0.341666667,-0.035185185,1,0,0,0.7151,optionRight,60,9985,5,8,0,8,0,1,,,,,,,,,,,,,,,,,,,,,,,,,,,,,,,,,,,,,,,
,,,,,,,,2023-08-16_08h18.13.394,HF_wild_card,2022.2.4,Win32,61.22948812,55f1ca7532af7400121700cc,64d2fd46c836a06233681665,64dc78121d792017e0b5d4b4,,,,,,,decisionTrl,resources/DG.BMP,resources/DB.BMP,WildCard_Ex,-0.369444444,-0.066666667,1,0,0,1.4979,optionLeft,55,10040,5,9,0,9,0,1,,,,,,,,,,,,,,,,,,,,,,,,,,,,,,,,,,,,,,,
,,,,,,,,2023-08-16_08h18.13.394,HF_wild_card,2022.2.4,Win32,61.22948812,55f1ca7532af7400121700cc,64d2fd46c836a06233681665,64dc78121d792017e0b5d4b4,,,,,,,decisionTrl,resources/DBN.BMP,resources/DB.BMP,Door1,-0.25,-0.041666667,1,0,0,1.3811,optionLeft,30,10070,5,10,0,10,0,1,,,,,,,,,,,,,,,,,,,,,,,,,,,,,,,,,,,,,,,
,,,,,,,,2023-08-16_08h18.13.394,HF_wild_card,2022.2.4,Win32,61.22948812,55f1ca7532af7400121700cc,64d2fd46c836a06233681665,64dc78121d792017e0b5d4b4,,,,,,,sngl,resources/DBN.BMP,resources/Empty.png,Door1,-0.162962963,-0.015740741,1,0,0,0.8645,optionLeft,30,10100,5,11,0,11,0,1,,,,,,,,,,,,,,,,,,,,,,,,,,,,,,,,,,,,,,,
,,,,,,,,2023-08-16_08h18.13.394,HF_wild_card,2022.2.4,Win32,61.22948812,55f1ca7532af7400121700cc,64d2fd46c836a06233681665,64dc78121d792017e0b5d4b4,,,,,,,decisionTrl,resources/DBN.BMP,resources/DG.BMP,WildCard_Ex,0.381481481,-0.009259259,1,0,0,1.0974,optionRight,55,10155,5,12,0,12,0,1,,,,,,,,,,,,,,,,,,,,,,,,,,,,,,,,,,,,,,,
,,,,,,,,2023-08-16_08h18.13.394,HF_wild_card,2022.2.4,Win32,61.22948812,55f1ca7532af7400121700cc,64d2fd46c836a06233681665,64dc78121d792017e0b5d4b4,,,,,,,sngl,resources/DG.BMP,resources/Empty.png,WildCard_Ex,-0.241666667,-0.034259259,1,0,0,0.5808,optionLeft,55,10210,5,13,0,13,0,1,,,,,,,,,,,,,,,,,,,,,,,,,,,,,,,,,,,,,,,
,,,,,,,,2023-08-16_08h18.13.394,HF_wild_card,2022.2.4,Win32,61.22948812,55f1ca7532af7400121700cc,64d2fd46c836a06233681665,64dc78121d792017e0b5d4b4,,,,,,,decisionTrl,resources/DY.BMP,resources/DP.BMP,Door4,-0.248148148,-0.056481481,1,0,0,1.3151,optionLeft,60,10270,5,14,0,14,0,1,,,,,,,,,,,,,,,,,,,,,,,,,,,,,,,,,,,,,,,
,,,,,,,,2023-08-16_08h18.13.394,HF_wild_card,2022.2.4,Win32,61.22948812,55f1ca7532af7400121700cc,64d2fd46c836a06233681665,64dc78121d792017e0b5d4b4,,,,,,,sngl,resources/DB.BMP,resources/Empty.png,Door2,-0.235185185,-0.030555556,1,0,0,0.7631,optionLeft,40,10310,5,15,0,15,0,1,,,,,,,,,,,,,,,,,,,,,,,,,,,,,,,,,,,,,,,
,,,,,,,,2023-08-16_08h18.13.394,HF_wild_card,2022.2.4,Win32,61.22948812,55f1ca7532af7400121700cc,64d2fd46c836a06233681665,64dc78121d792017e0b5d4b4,,,,,,,sngl,resources/Empty.png,resources/DBN.BMP,Door1,0.262037037,0.002777778,1,0,0,0.5811,optionRight,30,10340,5,16,0,16,0,1,,,,,,,,,,,,,,,,,,,,,,,,,,,,,,,,,,,,,,,
,,,,,,,,2023-08-16_08h18.13.394,HF_wild_card,2022.2.4,Win32,61.22948812,55f1ca7532af7400121700cc,64d2fd46c836a06233681665,64dc78121d792017e0b5d4b4,,,,,,,decisionTrl,resources/DP.BMP,resources/DY.BMP,Door4,0.374074074,0,1,0,0,0.896,optionRight,60,10400,5,17,0,17,0,1,,,,,,,,,,,,,,,,,,,,,,,,,,,,,,,,,,,,,,,
,,,,,,,,2023-08-16_08h18.13.394,HF_wild_card,2022.2.4,Win32,61.22948812,55f1ca7532af7400121700cc,64d2fd46c836a06233681665,64dc78121d792017e0b5d4b4,,,,,,,decisionTrl,resources/DB.BMP,resources/DBN.BMP,Door1,0.311111111,0.034259259,1,0,0,1.0124,optionRight,30,10430,5,18,0,18,0,1,,,,,,,,,,,,,,,,,,,,,,,,,,,,,,,,,,,,,,,
,,,,,,,,2023-08-16_08h18.13.394,HF_wild_card,2022.2.4,Win32,61.22948812,55f1ca7532af7400121700cc,64d2fd46c836a06233681665,64dc78121d792017e0b5d4b4,,,,,,,decisionTrl,resources/DP.BMP,resources/DY.BMP,Door4,0.369444444,0.036111111,1,0,0,0.815,optionRight,80,10510,5,19,0,19,0,1,,,,,,,,,,,,,,,,,,,,,,,,,,,,,,,,,,,,,,,
,,,,,,,,2023-08-16_08h18.13.394,HF_wild_card,2022.2.4,Win32,61.22948812,55f1ca7532af7400121700cc,64d2fd46c836a06233681665,64dc78121d792017e0b5d4b4,,,,,,,decisionTrl,resources/DBN.BMP,resources/DB.BMP,Door1,-0.256481481,-0.038888889,1,0,0,1.0303,optionLeft,30,10540,5,20,0,20,0,1,,,,,,,,,,,,,,,,,,,,,,,,,,,,,,,,,,,,,,,
,,,,,,,,2023-08-16_08h18.13.394,HF_wild_card,2022.2.4,Win32,61.22948812,55f1ca7532af7400121700cc,64d2fd46c836a06233681665,64dc78121d792017e0b5d4b4,,,,,,,decisionTrl,resources/DY.BMP,resources/DP.BMP,Door4,-0.2,-0.048148148,1,0,0,0.7651,optionLeft,60,10600,5,21,0,21,0,1,,,,,,,,,,,,,,,,,,,,,,,,,,,,,,,,,,,,,,,
,,,,,,,,2023-08-16_08h18.13.394,HF_wild_card,2022.2.4,Win32,61.22948812,55f1ca7532af7400121700cc,64d2fd46c836a06233681665,64dc78121d792017e0b5d4b4,,,,,,,decisionTrl,resources/DP.BMP,resources/DY.BMP,Door4,0.355555556,-0.008333333,1,0,0,0.9813,optionRight,60,10660,5,22,0,22,0,1,,,,,,,,,,,,,,,,,,,,,,,,,,,,,,,,,,,,,,,
,,,,,,,,2023-08-16_08h18.13.394,HF_wild_card,2022.2.4,Win32,61.22948812,55f1ca7532af7400121700cc,64d2fd46c836a06233681665,64dc78121d792017e0b5d4b4,,,,,,,decisionTrl,resources/DB.BMP,resources/DG.BMP,WildCard_Ex,0.275925926,-0.003703704,1,0,0,0.9745,optionRight,55,10715,5,23,0,23,0,1,,,,,,,,,,,,,,,,,,,,,,,,,,,,,,,,,,,,,,,
,,,,,,,,2023-08-16_08h18.13.394,HF_wild_card,2022.2.4,Win32,61.22948812,55f1ca7532af7400121700cc,64d2fd46c836a06233681665,64dc78121d792017e0b5d4b4,,,,,,,decisionTrl,resources/DP.BMP,resources/DY.BMP,Door4,0.378703704,-0.002777778,1,0,0,0.848,optionRight,60,10775,5,24,0,24,0,1,,,,,,,,,,,,,,,,,,,,,,,,,,,,,,,,,,,,,,,
,,,,,,,,2023-08-16_08h18.13.394,HF_wild_card,2022.2.4,Win32,61.22948812,55f1ca7532af7400121700cc,64d2fd46c836a06233681665,64dc78121d792017e0b5d4b4,,,,,,,ctch,resources/DP.BMP,resources/DB.BMP,Door3,-0.227777778,-0.067592593,0,0,1,1.1643,optionLeft,70,10845,5,25,0,25,0,1,,,,,,,,,,,,,,,,,,,,,,,,,,,,,,,,,,,,,,,
,,,,,,,,2023-08-16_08h18.13.394,HF_wild_card,2022.2.4,Win32,61.22948812,55f1ca7532af7400121700cc,64d2fd46c836a06233681665,64dc78121d792017e0b5d4b4,,,,,,,decisionTrl,resources/DG.BMP,resources/DP.BMP,Door3,0.244444444,-0.036111111,1,0,0,1.2974,optionRight,70,10915,5,26,0,26,0,1,,,,,,,,,,,,,,,,,,,,,,,,,,,,,,,,,,,,,,,
,,,,,,,,2023-08-16_08h18.13.394,HF_wild_card,2022.2.4,Win32,61.22948812,55f1ca7532af7400121700cc,64d2fd46c836a06233681665,64dc78121d792017e0b5d4b4,,,,,,,sngl,resources/Empty.png,resources/DG.BMP,WildCard_Ex,0.332407407,-0.02037037,1,0,0,0.8645,optionRight,55,10970,5,27,0,27,0,1,,,,,,,,,,,,,,,,,,,,,,,,,,,,,,,,,,,,,,,
,,,,,,,,2023-08-16_08h18.13.394,HF_wild_card,2022.2.4,Win32,61.22948812,55f1ca7532af7400121700cc,64d2fd46c836a06233681665,64dc78121d792017e0b5d4b4,,,,,,,decisionTrl,resources/DG.BMP,resources/DBN.BMP,WildCard_Ex,-0.292592593,-0.05462963,1,0,0,0.7468,optionLeft,45,11015,5,28,0,28,0,1,,,,,,,,,,,,,,,,,,,,,,,,,,,,,,,,,,,,,,,
,,,,,,,,2023-08-16_08h18.13.394,HF_wild_card,2022.2.4,Win32,61.22948812,55f1ca7532af7400121700cc,64d2fd46c836a06233681665,64dc78121d792017e0b5d4b4,,,,,,,ctch,resources/DBN.BMP,resources/DY.BMP,Door4,0.286111111,-0.010185185,1,0,0,0.8475,optionRight,80,11095,5,29,0,29,0,1,,,,,,,,,,,,,,,,,,,,,,,,,,,,,,,,,,,,,,,
,,,,,,,,2023-08-16_08h18.13.394,HF_wild_card,2022.2.4,Win32,61.22948812,55f1ca7532af7400121700cc,64d2fd46c836a06233681665,64dc78121d792017e0b5d4b4,,,,,,,decisionTrl,resources/DG.BMP,resources/DY.BMP,Door4,0.256481481,-0.030555556,1,0,0,1.2474,optionRight,60,11155,5,30,0,30,0,1,,,,,,,,,,,,,,,,,,,,,,,,,,,,,,,,,,,,,,,
,,,,,,,,2023-08-16_08h18.13.394,HF_wild_card,2022.2.4,Win32,61.22948812,55f1ca7532af7400121700cc,64d2fd46c836a06233681665,64dc78121d792017e0b5d4b4,,,,,,,decisionTrl,resources/DY.BMP,resources/DP.BMP,Door4,-0.264814815,-0.046296296,1,0,0,1.3965,optionLeft,80,11235,5,31,0,31,0,1,,,,,,,,,,,,,,,,,,,,,,,,,,,,,,,,,,,,,,,
,,,,,,,,2023-08-16_08h18.13.394,HF_wild_card,2022.2.4,Win32,61.22948812,55f1ca7532af7400121700cc,64d2fd46c836a06233681665,64dc78121d792017e0b5d4b4,,,,,,,sngl,resources/Empty.png,resources/DP.BMP,Door3,0.360185185,0.019444444,1,0,0,0.8799,optionRight,70,11305,5,32,0,32,0,1,,,,,,,,,,,,,,,,,,,,,,,,,,,,,,,,,,,,,,,
,,,,,,,,2023-08-16_08h18.13.394,HF_wild_card,2022.2.4,Win32,61.22948812,55f1ca7532af7400121700cc,64d2fd46c836a06233681665,64dc78121d792017e0b5d4b4,,,,,,,ctch,resources/DB.BMP,resources/DP.BMP,Door3,0.328703704,-0.015740741,1,0,0,1.0644,optionRight,70,11375,5,33,0,33,0,1,,,,,,,,,,,,,,,,,,,,,,,,,,,,,,,,,,,,,,,
,,,,,,,,2023-08-16_08h18.13.394,HF_wild_card,2022.2.4,Win32,61.22948812,55f1ca7532af7400121700cc,64d2fd46c836a06233681665,64dc78121d792017e0b5d4b4,,,,,,,ctch,resources/DP.BMP,resources/DB.BMP,Door3,-0.223148148,-0.061111111,1,0,0,0.8625,optionLeft,70,11445,5,34,0,34,0,1,,,,,,,,,,,,,,,,,,,,,,,,,,,,,,,,,,,,,,,
,,,,,,,,2023-08-16_08h18.13.394,HF_wild_card,2022.2.4,Win32,61.22948812,55f1ca7532af7400121700cc,64d2fd46c836a06233681665,64dc78121d792017e0b5d4b4,,,,,,,ctch,resources/DY.BMP,resources/DBN.BMP,Door4,-0.198148148,-0.046296296,1,0,0,0.8808,optionLeft,80,11525,5,35,0,35,0,1,,,,,,,,,,,,,,,,,,,,,,,,,,,,,,,,,,,,,,,
,,,,,,,,2023-08-16_08h18.13.394,HF_wild_card,2022.2.4,Win32,61.22948812,55f1ca7532af7400121700cc,64d2fd46c836a06233681665,64dc78121d792017e0b5d4b4,,,,,,,decisionTrl,resources/DBN.BMP,resources/DB.BMP,Door1,-0.230555556,-0.021296296,1,0,0,1.031,optionLeft,30,11555,5,36,0,36,0,1,,,,,,,,,,,,,,,,,,,,,,,,,,,,,,,,,,,,,,,
,,,,,,,,2023-08-16_08h18.13.394,HF_wild_card,2022.2.4,Win32,61.22948812,55f1ca7532af7400121700cc,64d2fd46c836a06233681665,64dc78121d792017e0b5d4b4,,,,,,,decisionTrl,resources/DB.BMP,resources/DBN.BMP,Door1,0.375,0.000925926,1,0,0,1.3469,optionRight,30,11585,5,37,0,37,0,1,,,,,,,,,,,,,,,,,,,,,,,,,,,,,,,,,,,,,,,
,,,,,,,,2023-08-16_08h18.13.394,HF_wild_card,2022.2.4,Win32,61.22948812,55f1ca7532af7400121700cc,64d2fd46c836a06233681665,64dc78121d792017e0b5d4b4,,,,,,,decisionTrl,resources/DY.BMP,resources/DG.BMP,Door4,-0.349074074,-0.060185185,1,0,0,1.3639,optionLeft,80,11665,5,38,0,38,0,1,,,,,,,,,,,,,,,,,,,,,,,,,,,,,,,,,,,,,,,
,,,,,,,,2023-08-16_08h18.13.394,HF_wild_card,2022.2.4,Win32,61.22948812,55f1ca7532af7400121700cc,64d2fd46c836a06233681665,64dc78121d792017e0b5d4b4,,,,,,,sngl,resources/Empty.png,resources/DY.BMP,Door4,0.243518519,0.006481481,1,0,0,0.8307,optionRight,60,11725,5,39,0,39,0,1,,,,,,,,,,,,,,,,,,,,,,,,,,,,,,,,,,,,,,,
,,,,,,,,2023-08-16_08h18.13.394,HF_wild_card,2022.2.4,Win32,61.22948812,55f1ca7532af7400121700cc,64d2fd46c836a06233681665,64dc78121d792017e0b5d4b4,,,,,,,sngl,resources/Empty.png,resources/DB.BMP,Door2,0.262962963,-0.009259259,1,0,0,0.6793,optionRight,20,11745,5,40,0,40,0,1,,,,,,,,,,,,,,,,,,,,,,,,,,,,,,,,,,,,,,,
,,,,,,,,2023-08-16_08h18.13.394,HF_wild_card,2022.2.4,Win32,61.22948812,55f1ca7532af7400121700cc,64d2fd46c836a06233681665,64dc78121d792017e0b5d4b4,,,,,,,decisionTrl,resources/DP.BMP,resources/DG.BMP,Door3,-0.211111111,-0.014814815,1,0,0,1.464,optionLeft,70,11815,5,41,0,41,0,1,,,,,,,,,,,,,,,,,,,,,,,,,,,,,,,,,,,,,,,
,,,,,,,,2023-08-16_08h18.13.394,HF_wild_card,2022.2.4,Win32,61.22948812,55f1ca7532af7400121700cc,64d2fd46c836a06233681665,64dc78121d792017e0b5d4b4,,,,,,,sngl,resources/DY.BMP,resources/Empty.png,Door4,-0.167592593,-0.013888889,1,0,0,0.5304,optionLeft,80,11895,5,42,0,42,0,1,,,,,,,,,,,,,,,,,,,,,,,,,,,,,,,,,,,,,,,
,,,,,,,,2023-08-16_08h18.13.394,HF_wild_card,2022.2.4,Win32,61.22948812,55f1ca7532af7400121700cc,64d2fd46c836a06233681665,64dc78121d792017e0b5d4b4,,,,,,,ctch,resources/DY.BMP,resources/DBN.BMP,Door4,-0.152777778,-0.027777778,1,0,0,0.698,optionLeft,80,11975,5,43,0,43,0,1,,,,,,,,,,,,,,,,,,,,,,,,,,,,,,,,,,,,,,,
,,,,,,,,2023-08-16_08h18.13.394,HF_wild_card,2022.2.4,Win32,61.22948812,55f1ca7532af7400121700cc,64d2fd46c836a06233681665,64dc78121d792017e0b5d4b4,,,,,,,,,,,,,,,,,,,,,,,,,,4,0,4,0,1,,,,,,,,,,,,,,,,,,,,,,,,,,,,,,,,,,
,,,,,,,,2023-08-16_08h18.13.394,HF_wild_card,2022.2.4,Win32,61.22948812,55f1ca7532af7400121700cc,64d2fd46c836a06233681665,64dc78121d792017e0b5d4b4,,,,,,,decisionTrl,resources/DP.BMP,resources/DG.BMP,Door3,-0.205555556,-0.135185185,1,0,0,1.3895,optionLeft,70,12045,6,0,0,0,0,1,,,,,,,,,,,,,,,,,,,,,,,,,,,,,,,,,,,,,,,
,,,,,,,,2023-08-16_08h18.13.394,HF_wild_card,2022.2.4,Win32,61.22948812,55f1ca7532af7400121700cc,64d2fd46c836a06233681665,64dc78121d792017e0b5d4b4,,,,,,,decisionTrl,resources/DG.BMP,resources/DBN.BMP,WildCard_Ex,-0.168518519,-0.038888889,1,0,0,0.9647,optionLeft,55,12100,6,1,0,1,0,1,,,,,,,,,,,,,,,,,,,,,,,,,,,,,,,,,,,,,,,
,,,,,,,,2023-08-16_08h18.13.394,HF_wild_card,2022.2.4,Win32,61.22948812,55f1ca7532af7400121700cc,64d2fd46c836a06233681665,64dc78121d792017e0b5d4b4,,,,,,,decisionTrl,resources/DB.BMP,resources/DBN.BMP,Door1,0.167592593,-0.067592593,1,0,0,1.4633,optionRight,30,12130,6,2,0,2,0,1,,,,,,,,,,,,,,,,,,,,,,,,,,,,,,,,,,,,,,,
,,,,,,,,2023-08-16_08h18.13.394,HF_wild_card,2022.2.4,Win32,61.22948812,55f1ca7532af7400121700cc,64d2fd46c836a06233681665,64dc78121d792017e0b5d4b4,,,,,,,decisionTrl,resources/DB.BMP,resources/DBN.BMP,Door1,0.248148148,-0.040740741,1,0,0,1.6972,optionRight,30,12160,6,3,0,3,0,1,,,,,,,,,,,,,,,,,,,,,,,,,,,,,,,,,,,,,,,
,,,,,,,,2023-08-16_08h18.13.394,HF_wild_card,2022.2.4,Win32,61.22948812,55f1ca7532af7400121700cc,64d2fd46c836a06233681665,64dc78121d792017e0b5d4b4,,,,,,,decisionTrl,resources/DY.BMP,resources/DG.BMP,Door4,-0.171296296,-0.014814815,1,0,0,1.3474,optionLeft,60,12220,6,4,0,4,0,1,,,,,,,,,,,,,,,,,,,,,,,,,,,,,,,,,,,,,,,
,,,,,,,,2023-08-16_08h18.13.394,HF_wild_card,2022.2.4,Win32,61.22948812,55f1ca7532af7400121700cc,64d2fd46c836a06233681665,64dc78121d792017e0b5d4b4,,,,,,,ctch,resources/DBN.BMP,resources/DY.BMP,Door4,0.335185185,-0.005555556,1,0,0,1.1144,optionRight,60,12280,6,5,0,5,0,1,,,,,,,,,,,,,,,,,,,,,,,,,,,,,,,,,,,,,,,
,,,,,,,,2023-08-16_08h18.13.394,HF_wild_card,2022.2.4,Win32,61.22948812,55f1ca7532af7400121700cc,64d2fd46c836a06233681665,64dc78121d792017e0b5d4b4,,,,,,,ctch,resources/DP.BMP,resources/DB.BMP,Door3,-0.15462963,-0.021296296,1,0,0,0.9478,optionLeft,70,12350,6,6,0,6,0,1,,,,,,,,,,,,,,,,,,,,,,,,,,,,,,,,,,,,,,,
,,,,,,,,2023-08-16_08h18.13.394,HF_wild_card,2022.2.4,Win32,61.22948812,55f1ca7532af7400121700cc,64d2fd46c836a06233681665,64dc78121d792017e0b5d4b4,,,,,,,decisionTrl,resources/DY.BMP,resources/DP.BMP,Door4,-0.177777778,-0.001851852,1,0,0,1.2644,optionLeft,60,12410,6,7,0,7,0,1,,,,,,,,,,,,,,,,,,,,,,,,,,,,,,,,,,,,,,,
,,,,,,,,2023-08-16_08h18.13.394,HF_wild_card,2022.2.4,Win32,61.22948812,55f1ca7532af7400121700cc,64d2fd46c836a06233681665,64dc78121d792017e0b5d4b4,,,,,,,decisionTrl,resources/DBN.BMP,resources/DB.BMP,Door1,-0.175,-0.025,1,0,0,0.9143,optionLeft,30,12440,6,8,0,8,0,1,,,,,,,,,,,,,,,,,,,,,,,,,,,,,,,,,,,,,,,
,,,,,,,,2023-08-16_08h18.13.394,HF_wild_card,2022.2.4,Win32,61.22948812,55f1ca7532af7400121700cc,64d2fd46c836a06233681665,64dc78121d792017e0b5d4b4,,,,,,,decisionTrl,resources/DP.BMP,resources/DY.BMP,Door4,0.321296296,-0.003703704,1,0,0,0.9807,optionRight,80,12520,6,9,0,9,0,1,,,,,,,,,,,,,,,,,,,,,,,,,,,,,,,,,,,,,,,
,,,,,,,,2023-08-16_08h18.13.394,HF_wild_card,2022.2.4,Win32,61.22948812,55f1ca7532af7400121700cc,64d2fd46c836a06233681665,64dc78121d792017e0b5d4b4,,,,,,,sngl,resources/Empty.png,resources/DG.BMP,WildCard_Ex,0.287962963,0.009259259,1,0,0,0.6476,optionRight,55,12575,6,10,0,10,0,1,,,,,,,,,,,,,,,,,,,,,,,,,,,,,,,,,,,,,,,
,,,,,,,,2023-08-16_08h18.13.394,HF_wild_card,2022.2.4,Win32,61.22948812,55f1ca7532af7400121700cc,64d2fd46c836a06233681665,64dc78121d792017e0b5d4b4,,,,,,,sngl,resources/DG.BMP,resources/Empty.png,WildCard_Ex,-0.142592593,-0.018518519,1,0,0,0.6309,optionLeft,45,12620,6,11,0,11,0,1,,,,,,,,,,,,,,,,,,,,,,,,,,,,,,,,,,,,,,,
,,,,,,,,2023-08-16_08h18.13.394,HF_wild_card,2022.2.4,Win32,61.22948812,55f1ca7532af7400121700cc,64d2fd46c836a06233681665,64dc78121d792017e0b5d4b4,,,,,,,sngl,resources/Empty.png,resources/DB.BMP,Door2,0.371296296,0.019444444,1,0,0,0.6489,optionRight,40,12660,6,12,0,12,0,1,,,,,,,,,,,,,,,,,,,,,,,,,,,,,,,,,,,,,,,
,,,,,,,,2023-08-16_08h18.13.394,HF_wild_card,2022.2.4,Win32,61.22948812,55f1ca7532af7400121700cc,64d2fd46c836a06233681665,64dc78121d792017e0b5d4b4,,,,,,,ctch,resources/DP.BMP,resources/DB.BMP,Door3,-0.187962963,-0.023148148,1,0,0,1.1805,optionLeft,70,12730,6,13,0,13,0,1,,,,,,,,,,,,,,,,,,,,,,,,,,,,,,,,,,,,,,,
,,,,,,,,2023-08-16_08h18.13.394,HF_wild_card,2022.2.4,Win32,61.22948812,55f1ca7532af7400121700cc,64d2fd46c836a06233681665,64dc78121d792017e0b5d4b4,,,,,,,sngl,resources/Empty.png,resources/DG.BMP,WildCard_Ex,0.294444444,-0.018518519,1,0,0,0.6637,optionRight,45,12775,6,14,0,14,0,1,,,,,,,,,,,,,,,,,,,,,,,,,,,,,,,,,,,,,,,
,,,,,,,,2023-08-16_08h18.13.394,HF_wild_card,2022.2.4,Win32,61.22948812,55f1ca7532af7400121700cc,64d2fd46c836a06233681665,64dc78121d792017e0b5d4b4,,,,,,,ctch,resources/DBN.BMP,resources/DY.BMP,Door4,0.285185185,-0.026851852,1,0,0,0.9481,optionRight,60,12835,6,15,0,15,0,1,,,,,,,,,,,,,,,,,,,,,,,,,,,,,,,,,,,,,,,
,,,,,,,,2023-08-16_08h18.13.394,HF_wild_card,2022.2.4,Win32,61.22948812,55f1ca7532af7400121700cc,64d2fd46c836a06233681665,64dc78121d792017e0b5d4b4,,,,,,,decisionTrl,resources/DG.BMP,resources/DP.BMP,Door3,0.236111111,-0.025925926,1,0,0,1.7483,optionRight,70,12905,6,16,0,16,0,1,,,,,,,,,,,,,,,,,,,,,,,,,,,,,,,,,,,,,,,
,,,,,,,,2023-08-16_08h18.13.394,HF_wild_card,2022.2.4,Win32,61.22948812,55f1ca7532af7400121700cc,64d2fd46c836a06233681665,64dc78121d792017e0b5d4b4,,,,,,,decisionTrl,resources/DG.BMP,resources/DY.BMP,Door4,0.297222222,-0.026851852,1,0,0,1.4643,optionRight,80,12985,6,17,0,17,0,1,,,,,,,,,,,,,,,,,,,,,,,,,,,,,,,,,,,,,,,
,,,,,,,,2023-08-16_08h18.13.394,HF_wild_card,2022.2.4,Win32,61.22948812,55f1ca7532af7400121700cc,64d2fd46c836a06233681665,64dc78121d792017e0b5d4b4,,,,,,,decisionTrl,resources/DBN.BMP,resources/DB.BMP,Door1,-0.138888889,0.003703704,1,0,0,1.198,optionLeft,30,13015,6,18,0,18,0,1,,,,,,,,,,,,,,,,,,,,,,,,,,,,,,,,,,,,,,,
,,,,,,,,2023-08-16_08h18.13.394,HF_wild_card,2022.2.4,Win32,61.22948812,55f1ca7532af7400121700cc,64d2fd46c836a06233681665,64dc78121d792017e0b5d4b4,,,,,,,decisionTrl,resources/DY.BMP,resources/DP.BMP,Door4,-0.206481481,0.012962963,1,0,0,1.831,optionLeft,60,13075,6,19,0,19,0,1,,,,,,,,,,,,,,,,,,,,,,,,,,,,,,,,,,,,,,,
,,,,,,,,2023-08-16_08h18.13.394,HF_wild_card,2022.2.4,Win32,61.22948812,55f1ca7532af7400121700cc,64d2fd46c836a06233681665,64dc78121d792017e0b5d4b4,,,,,,,decisionTrl,resources/DP.BMP,resources/DY.BMP,Door4,0.277777778,0.002777778,1,0,0,2.9303,optionRight,80,13155,6,20,0,20,0,1,,,,,,,,,,,,,,,,,,,,,,,,,,,,,,,,,,,,,,,
,,,,,,,,2023-08-16_08h18.13.394,HF_wild_card,2022.2.4,Win32,61.22948812,55f1ca7532af7400121700cc,64d2fd46c836a06233681665,64dc78121d792017e0b5d4b4,,,,,,,ctch,resources/DB.BMP,resources/DP.BMP,Door3,0.27037037,-0.034259259,1,0,0,1.0645,optionRight,70,13225,6,21,0,21,0,1,,,,,,,,,,,,,,,,,,,,,,,,,,,,,,,,,,,,,,,
,,,,,,,,2023-08-16_08h18.13.394,HF_wild_card,2022.2.4,Win32,61.22948812,55f1ca7532af7400121700cc,64d2fd46c836a06233681665,64dc78121d792017e0b5d4b4,,,,,,,ctch,resources/DY.BMP,resources/DBN.BMP,Door4,-0.214814815,-0.012962963,1,0,0,1.4477,optionLeft,80,13305,6,22,0,22,0,1,,,,,,,,,,,,,,,,,,,,,,,,,,,,,,,,,,,,,,,
,,,,,,,,2023-08-16_08h18.13.394,HF_wild_card,2022.2.4,Win32,61.22948812,55f1ca7532af7400121700cc,64d2fd46c836a06233681665,64dc78121d792017e0b5d4b4,,,,,,,sngl,resources/DY.BMP,resources/Empty.png,Door4,-0.141666667,-0.031481481,1,0,0,2.5643,optionLeft,60,13365,6,23,0,23,0,1,,,,,,,,,,,,,,,,,,,,,,,,,,,,,,,,,,,,,,,
,,,,,,,,2023-08-16_08h18.13.394,HF_wild_card,2022.2.4,Win32,61.22948812,55f1ca7532af7400121700cc,64d2fd46c836a06233681665,64dc78121d792017e0b5d4b4,,,,,,,sngl,resources/DP.BMP,resources/Empty.png,Door3,-0.217592593,-0.019444444,1,0,0,0.6972,optionLeft,70,13435,6,24,0,24,0,1,,,,,,,,,,,,,,,,,,,,,,,,,,,,,,,,,,,,,,,
,,,,,,,,2023-08-16_08h18.13.394,HF_wild_card,2022.2.4,Win32,61.22948812,55f1ca7532af7400121700cc,64d2fd46c836a06233681665,64dc78121d792017e0b5d4b4,,,,,,,decisionTrl,resources/DY.BMP,resources/DP.BMP,Door4,-0.209259259,-0.037962963,1,0,0,1.1463,optionLeft,80,13515,6,25,0,25,0,1,,,,,,,,,,,,,,,,,,,,,,,,,,,,,,,,,,,,,,,
,,,,,,,,2023-08-16_08h18.13.394,HF_wild_card,2022.2.4,Win32,61.22948812,55f1ca7532af7400121700cc,64d2fd46c836a06233681665,64dc78121d792017e0b5d4b4,,,,,,,ctch,resources/DY.BMP,resources/DBN.BMP,Door4,-0.175,-0.031481481,1,0,0,0.6814,optionLeft,60,13575,6,26,0,26,0,1,,,,,,,,,,,,,,,,,,,,,,,,,,,,,,,,,,,,,,,
,,,,,,,,2023-08-16_08h18.13.394,HF_wild_card,2022.2.4,Win32,61.22948812,55f1ca7532af7400121700cc,64d2fd46c836a06233681665,64dc78121d792017e0b5d4b4,,,,,,,decisionTrl,resources/DBN.BMP,resources/DB.BMP,Door1,-0.250925926,-0.059259259,1,0,0,1.3809,optionLeft,30,13605,6,27,0,27,0,1,,,,,,,,,,,,,,,,,,,,,,,,,,,,,,,,,,,,,,,
,,,,,,,,2023-08-16_08h18.13.394,HF_wild_card,2022.2.4,Win32,61.22948812,55f1ca7532af7400121700cc,64d2fd46c836a06233681665,64dc78121d792017e0b5d4b4,,,,,,,decisionTrl,resources/DG.BMP,resources/DB.BMP,WildCard_Ex,-0.187037037,-0.04537037,1,0,0,1.1977,optionLeft,55,13660,6,28,0,28,0,1,,,,,,,,,,,,,,,,,,,,,,,,,,,,,,,,,,,,,,,
,,,,,,,,2023-08-16_08h18.13.394,HF_wild_card,2022.2.4,Win32,61.22948812,55f1ca7532af7400121700cc,64d2fd46c836a06233681665,64dc78121d792017e0b5d4b4,,,,,,,ctch,resources/DB.BMP,resources/DP.BMP,Door3,0.312962963,-0.031481481,1,0,0,0.7979,optionRight,70,13730,6,29,0,29,0,1,,,,,,,,,,,,,,,,,,,,,,,,,,,,,,,,,,,,,,,
,,,,,,,,2023-08-16_08h18.13.394,HF_wild_card,2022.2.4,Win32,61.22948812,55f1ca7532af7400121700cc,64d2fd46c836a06233681665,64dc78121d792017e0b5d4b4,,,,,,,sngl,resources/DB.BMP,resources/Empty.png,Door2,-0.198148148,-0.039814815,1,0,0,0.6145,optionLeft,20,13750,6,30,0,30,0,1,,,,,,,,,,,,,,,,,,,,,,,,,,,,,,,,,,,,,,,
,,,,,,,,2023-08-16_08h18.13.394,HF_wild_card,2022.2.4,Win32,61.22948812,55f1ca7532af7400121700cc,64d2fd46c836a06233681665,64dc78121d792017e0b5d4b4,,,,,,,decisionTrl,resources/DBN.BMP,resources/DG.BMP,WildCard_Ex,0.186111111,-0.016666667,1,0,0,0.8138,optionRight,55,13805,6,31,0,31,0,1,,,,,,,,,,,,,,,,,,,,,,,,,,,,,,,,,,,,,,,
,,,,,,,,2023-08-16_08h18.13.394,HF_wild_card,2022.2.4,Win32,61.22948812,55f1ca7532af7400121700cc,64d2fd46c836a06233681665,64dc78121d792017e0b5d4b4,,,,,,,sngl,resources/DBN.BMP,resources/Empty.png,Door1,-0.172222222,-0.038888889,1,0,0,0.5814,optionLeft,30,13835,6,32,0,32,0,1,,,,,,,,,,,,,,,,,,,,,,,,,,,,,,,,,,,,,,,
,,,,,,,,2023-08-16_08h18.13.394,HF_wild_card,2022.2.4,Win32,61.22948812,55f1ca7532af7400121700cc,64d2fd46c836a06233681665,64dc78121d792017e0b5d4b4,,,,,,,sngl,resources/Empty.png,resources/DP.BMP,Door3,0.273148148,-0.055555556,1,0,0,0.5976,optionRight,70,13905,6,33,0,33,0,1,,,,,,,,,,,,,,,,,,,,,,,,,,,,,,,,,,,,,,,
,,,,,,,,2023-08-16_08h18.13.394,HF_wild_card,2022.2.4,Win32,61.22948812,55f1ca7532af7400121700cc,64d2fd46c836a06233681665,64dc78121d792017e0b5d4b4,,,,,,,sngl,resources/Empty.png,resources/DY.BMP,Door4,0.30462963,-0.005555556,1,0,0,0.68,optionRight,80,13985,6,34,0,34,0,1,,,,,,,,,,,,,,,,,,,,,,,,,,,,,,,,,,,,,,,
,,,,,,,,2023-08-16_08h18.13.394,HF_wild_card,2022.2.4,Win32,61.22948812,55f1ca7532af7400121700cc,64d2fd46c836a06233681665,64dc78121d792017e0b5d4b4,,,,,,,decisionTrl,resources/DB.BMP,resources/DBN.BMP,Door1,0.246296296,-0.031481481,1,0,0,1.0645,optionRight,30,14015,6,35,0,35,0,1,,,,,,,,,,,,,,,,,,,,,,,,,,,,,,,,,,,,,,,
,,,,,,,,2023-08-16_08h18.13.394,HF_wild_card,2022.2.4,Win32,61.22948812,55f1ca7532af7400121700cc,64d2fd46c836a06233681665,64dc78121d792017e0b5d4b4,,,,,,,decisionTrl,resources/DB.BMP,resources/DBN.BMP,Door1,0.27037037,-0.009259259,1,0,0,0.7311,optionRight,30,14045,6,36,0,36,0,1,,,,,,,,,,,,,,,,,,,,,,,,,,,,,,,,,,,,,,,
,,,,,,,,2023-08-16_08h18.13.394,HF_wild_card,2022.2.4,Win32,61.22948812,55f1ca7532af7400121700cc,64d2fd46c836a06233681665,64dc78121d792017e0b5d4b4,,,,,,,sngl,resources/DG.BMP,resources/Empty.png,WildCard_Ex,-0.176851852,-0.050925926,1,0,0,0.5804,optionLeft,55,14100,6,37,0,37,0,1,,,,,,,,,,,,,,,,,,,,,,,,,,,,,,,,,,,,,,,
,,,,,,,,2023-08-16_08h18.13.394,HF_wild_card,2022.2.4,Win32,61.22948812,55f1ca7532af7400121700cc,64d2fd46c836a06233681665,64dc78121d792017e0b5d4b4,,,,,,,sngl,resources/Empty.png,resources/DBN.BMP,Door1,0.291666667,-0.025,1,0,0,0.5465,optionRight,30,14130,6,38,0,38,0,1,,,,,,,,,,,,,,,,,,,,,,,,,,,,,,,,,,,,,,,
,,,,,,,,2023-08-16_08h18.13.394,HF_wild_card,2022.2.4,Win32,61.22948812,55f1ca7532af7400121700cc,64d2fd46c836a06233681665,64dc78121d792017e0b5d4b4,,,,,,,decisionTrl,resources/DBN.BMP,resources/DB.BMP,Door1,-0.130555556,-0.02962963,1,0,0,1.2309,optionLeft,30,14160,6,39,0,39,0,1,,,,,,,,,,,,,,,,,,,,,,,,,,,,,,,,,,,,,,,
,,,,,,,,2023-08-16_08h18.13.394,HF_wild_card,2022.2.4,Win32,61.22948812,55f1ca7532af7400121700cc,64d2fd46c836a06233681665,64dc78121d792017e0b5d4b4,,,,,,,decisionTrl,resources/DY.BMP,resources/DP.BMP,Door4,-0.200925926,-0.048148148,1,0,0,0.9475,optionLeft,80,14240,6,40,0,40,0,1,,,,,,,,,,,,,,,,,,,,,,,,,,,,,,,,,,,,,,,
,,,,,,,,2023-08-16_08h18.13.394,HF_wild_card,2022.2.4,Win32,61.22948812,55f1ca7532af7400121700cc,64d2fd46c836a06233681665,64dc78121d792017e0b5d4b4,,,,,,,decisionTrl,resources/DP.BMP,resources/DY.BMP,Door4,0.268518519,-0.021296296,1,0,0,0.8978,optionRight,80,14320,6,41,0,41,0,1,,,,,,,,,,,,,,,,,,,,,,,,,,,,,,,,,,,,,,,
,,,,,,,,2023-08-16_08h18.13.394,HF_wild_card,2022.2.4,Win32,61.22948812,55f1ca7532af7400121700cc,64d2fd46c836a06233681665,64dc78121d792017e0b5d4b4,,,,,,,decisionTrl,resources/DB.BMP,resources/DG.BMP,WildCard_Ex,0.248148148,-0.00462963,1,0,0,0.913,optionRight,45,14365,6,42,0,42,0,1,,,,,,,,,,,,,,,,,,,,,,,,,,,,,,,,,,,,,,,
,,,,,,,,2023-08-16_08h18.13.394,HF_wild_card,2022.2.4,Win32,61.22948812,55f1ca7532af7400121700cc,64d2fd46c836a06233681665,64dc78121d792017e0b5d4b4,,,,,,,decisionTrl,resources/DP.BMP,resources/DY.BMP,Door4,0.319444444,-0.053703704,1,0,0,1.1965,optionRight,80,14445,6,43,0,43,0,1,,,,,,,,,,,,,,,,,,,,,,,,,,,,,,,,,,,,,,,
,,,,,,,,2023-08-16_08h18.13.394,HF_wild_card,2022.2.4,Win32,61.22948812,55f1ca7532af7400121700cc,64d2fd46c836a06233681665,64dc78121d792017e0b5d4b4,,,,,,,,,,,,,,,,,,,,,,,,,,5,0,5,0,1,,,,,,,,,,,,,,,,,,,,,,,,,,,,,,,,,,
,,,,,,,,2023-08-16_08h18.13.394,HF_wild_card,2022.2.4,Win32,61.22948812,55f1ca7532af7400121700cc,64d2fd46c836a06233681665,64dc78121d792017e0b5d4b4,,,,,,,decisionTrl,resources/DB.BMP,resources/DBN.BMP,Door1,0.318518519,-0.041666667,1,0,0,1.1692,optionRight,30,14475,7,0,0,0,0,1,,,,,,,,,,,,,,,,,,,,,,,,,,,,,,,,,,,,,,,
,,,,,,,,2023-08-16_08h18.13.394,HF_wild_card,2022.2.4,Win32,61.22948812,55f1ca7532af7400121700cc,64d2fd46c836a06233681665,64dc78121d792017e0b5d4b4,,,,,,,ctch,resources/DBN.BMP,resources/DY.BMP,Door4,0.230555556,-0.030555556,1,0,0,1.0982,optionRight,80,14555,7,1,0,1,0,1,,,,,,,,,,,,,,,,,,,,,,,,,,,,,,,,,,,,,,,
,,,,,,,,2023-08-16_08h18.13.394,HF_wild_card,2022.2.4,Win32,61.22948812,55f1ca7532af7400121700cc,64d2fd46c836a06233681665,64dc78121d792017e0b5d4b4,,,,,,,decisionTrl,resources/DBN.BMP,resources/DB.BMP,Door1,-0.174074074,-0.047222222,1,0,0,0.8821,optionLeft,30,14585,7,2,0,2,0,1,,,,,,,,,,,,,,,,,,,,,,,,,,,,,,,,,,,,,,,
,,,,,,,,2023-08-16_08h18.13.394,HF_wild_card,2022.2.4,Win32,61.22948812,55f1ca7532af7400121700cc,64d2fd46c836a06233681665,64dc78121d792017e0b5d4b4,,,,,,,decisionTrl,resources/DB.BMP,resources/DBN.BMP,Door1,0.238888889,-0.02037037,1,0,0,1.2319,optionRight,30,14615,7,3,0,3,0,1,,,,,,,,,,,,,,,,,,,,,,,,,,,,,,,,,,,,,,,
,,,,,,,,2023-08-16_08h18.13.394,HF_wild_card,2022.2.4,Win32,61.22948812,55f1ca7532af7400121700cc,64d2fd46c836a06233681665,64dc78121d792017e0b5d4b4,,,,,,,ctch,resources/DB.BMP,resources/DP.BMP,Door3,0.214814815,-0.025925926,1,0,0,0.9328,optionRight,70,14685,7,4,0,4,0,1,,,,,,,,,,,,,,,,,,,,,,,,,,,,,,,,,,,,,,,
,,,,,,,,2023-08-16_08h18.13.394,HF_wild_card,2022.2.4,Win32,61.22948812,55f1ca7532af7400121700cc,64d2fd46c836a06233681665,64dc78121d792017e0b5d4b4,,,,,,,decisionTrl,resources/DY.BMP,resources/DP.BMP,Door4,-0.184259259,-0.060185185,1,0,0,0.9988,optionLeft,60,14745,7,5,0,5,0,1,,,,,,,,,,,,,,,,,,,,,,,,,,,,,,,,,,,,,,,
,,,,,,,,2023-08-16_08h18.13.394,HF_wild_card,2022.2.4,Win32,61.22948812,55f1ca7532af7400121700cc,64d2fd46c836a06233681665,64dc78121d792017e0b5d4b4,,,,,,,ctch,resources/DP.BMP,resources/DB.BMP,Door3,-0.182407407,-0.073148148,1,0,0,0.8994,optionLeft,70,14815,7,6,0,6,0,1,,,,,,,,,,,,,,,,,,,,,,,,,,,,,,,,,,,,,,,
,,,,,,,,2023-08-16_08h18.13.394,HF_wild_card,2022.2.4,Win32,61.22948812,55f1ca7532af7400121700cc,64d2fd46c836a06233681665,64dc78121d792017e0b5d4b4,,,,,,,decisionTrl,resources/DY.BMP,resources/DP.BMP,Door4,-0.22037037,-0.077777778,1,0,0,0.7488,optionLeft,80,14895,7,7,0,7,0,1,,,,,,,,,,,,,,,,,,,,,,,,,,,,,,,,,,,,,,,
,,,,,,,,2023-08-16_08h18.13.394,HF_wild_card,2022.2.4,Win32,61.22948812,55f1ca7532af7400121700cc,64d2fd46c836a06233681665,64dc78121d792017e0b5d4b4,,,,,,,ctch,resources/DY.BMP,resources/DBN.BMP,Door4,-0.22962963,-0.086111111,1,0,0,0.7148,optionLeft,60,14955,7,8,0,8,0,1,,,,,,,,,,,,,,,,,,,,,,,,,,,,,,,,,,,,,,,
,,,,,,,,2023-08-16_08h18.13.394,HF_wild_card,2022.2.4,Win32,61.22948812,55f1ca7532af7400121700cc,64d2fd46c836a06233681665,64dc78121d792017e0b5d4b4,,,,,,,decisionTrl,resources/DB.BMP,resources/DBN.BMP,Door1,0.272222222,-0.022222222,1,0,0,0.8324,optionRight,30,14985,7,9,0,9,0,1,,,,,,,,,,,,,,,,,,,,,,,,,,,,,,,,,,,,,,,
,,,,,,,,2023-08-16_08h18.13.394,HF_wild_card,2022.2.4,Win32,61.22948812,55f1ca7532af7400121700cc,64d2fd46c836a06233681665,64dc78121d792017e0b5d4b4,,,,,,,decisionTrl,resources/DBN.BMP,resources/DB.BMP,Door1,-0.185185185,-0.087037037,1,0,0,1.1653,optionLeft,30,15015,7,10,0,10,0,1,,,,,,,,,,,,,,,,,,,,,,,,,,,,,,,,,,,,,,,
,,,,,,,,2023-08-16_08h18.13.394,HF_wild_card,2022.2.4,Win32,61.22948812,55f1ca7532af7400121700cc,64d2fd46c836a06233681665,64dc78121d792017e0b5d4b4,,,,,,,decisionTrl,resources/DY.BMP,resources/DP.BMP,Door4,-0.167592593,-0.076851852,1,0,0,0.5825,optionLeft,80,15095,7,11,0,11,0,1,,,,,,,,,,,,,,,,,,,,,,,,,,,,,,,,,,,,,,,
,,,,,,,,2023-08-16_08h18.13.394,HF_wild_card,2022.2.4,Win32,61.22948812,55f1ca7532af7400121700cc,64d2fd46c836a06233681665,64dc78121d792017e0b5d4b4,,,,,,,decisionTrl,resources/DBN.BMP,resources/DB.BMP,Door1,-0.227777778,-0.112962963,1,0,0,1.1993,optionLeft,30,15125,7,12,0,12,0,1,,,,,,,,,,,,,,,,,,,,,,,,,,,,,,,,,,,,,,,
,,,,,,,,2023-08-16_08h18.13.394,HF_wild_card,2022.2.4,Win32,61.22948812,55f1ca7532af7400121700cc,64d2fd46c836a06233681665,64dc78121d792017e0b5d4b4,,,,,,,decisionTrl,resources/DB.BMP,resources/DBN.BMP,Door1,0.109259259,-0.041666667,1,0,0,1.4988,optionRight,30,15155,7,13,0,13,0,1,,,,,,,,,,,,,,,,,,,,,,,,,,,,,,,,,,,,,,,
,,,,,,,,2023-08-16_08h18.13.394,HF_wild_card,2022.2.4,Win32,61.22948812,55f1ca7532af7400121700cc,64d2fd46c836a06233681665,64dc78121d792017e0b5d4b4,,,,,,,decisionTrl,resources/DP.BMP,resources/DY.BMP,Door4,0.201851852,-0.014814815,1,0,0,1.4334,optionRight,60,15215,7,14,0,14,0,1,,,,,,,,,,,,,,,,,,,,,,,,,,,,,,,,,,,,,,,
,,,,,,,,2023-08-16_08h18.13.394,HF_wild_card,2022.2.4,Win32,61.22948812,55f1ca7532af7400121700cc,64d2fd46c836a06233681665,64dc78121d792017e0b5d4b4,,,,,,,decisionTrl,resources/DY.BMP,resources/DP.BMP,Door4,-0.158333333,-0.025925926,1,0,0,0.7649,optionLeft,60,15275,7,15,0,15,0,1,,,,,,,,,,,,,,,,,,,,,,,,,,,,,,,,,,,,,,,
,,,,,,,,2023-08-16_08h18.13.394,HF_wild_card,2022.2.4,Win32,61.22948812,55f1ca7532af7400121700cc,64d2fd46c836a06233681665,64dc78121d792017e0b5d4b4,,,,,,,decisionTrl,resources/DBN.BMP,resources/DB.BMP,Door1,-0.227777778,-0.014814815,1,0,0,1.5656,optionLeft,30,15305,7,16,0,16,0,1,,,,,,,,,,,,,,,,,,,,,,,,,,,,,,,,,,,,,,,
,,,,,,,,2023-08-16_08h18.13.394,HF_wild_card,2022.2.4,Win32,61.22948812,55f1ca7532af7400121700cc,64d2fd46c836a06233681665,64dc78121d792017e0b5d4b4,,,,,,,decisionTrl,resources/DB.BMP,resources/DBN.BMP,Door1,0.197222222,-0.028703704,1,0,0,1.0654,optionRight,30,15335,7,17,0,17,0,1,,,,,,,,,,,,,,,,,,,,,,,,,,,,,,,,,,,,,,,
,,,,,,,,2023-08-16_08h18.13.394,HF_wild_card,2022.2.4,Win32,61.22948812,55f1ca7532af7400121700cc,64d2fd46c836a06233681665,64dc78121d792017e0b5d4b4,,,,,,,decisionTrl,resources/DP.BMP,resources/DY.BMP,Door4,0.272222222,-0.04537037,1,0,0,0.9309,optionRight,80,15415,7,18,0,18,0,1,,,,,,,,,,,,,,,,,,,,,,,,,,,,,,,,,,,,,,,
,,,,,,,,2023-08-16_08h18.13.394,HF_wild_card,2022.2.4,Win32,61.22948812,55f1ca7532af7400121700cc,64d2fd46c836a06233681665,64dc78121d792017e0b5d4b4,,,,,,,decisionTrl,resources/DP.BMP,resources/DY.BMP,Door4,0.314814815,-0.017592593,1,0,0,0.8329,optionRight,60,15475,7,19,0,19,0,1,,,,,,,,,,,,,,,,,,,,,,,,,,,,,,,,,,,,,,,
,,,,,,,,2023-08-16_08h18.13.394,HF_wild_card,2022.2.4,Win32,61.22948812,55f1ca7532af7400121700cc,64d2fd46c836a06233681665,64dc78121d792017e0b5d4b4,,,,,,,decisionTrl,resources/DB.BMP,resources/DBN.BMP,Door1,0.3,0.009259259,1,0,0,0.8157,optionRight,30,15505,7,20,0,20,0,1,,,,,,,,,,,,,,,,,,,,,,,,,,,,,,,,,,,,,,,
,,,,,,,,2023-08-16_08h18.13.394,HF_wild_card,2022.2.4,Win32,61.22948812,55f1ca7532af7400121700cc,64d2fd46c836a06233681665,64dc78121d792017e0b5d4b4,,,,,,,ctch,resources/DB.BMP,resources/DP.BMP,Door3,0.217592593,-0.023148148,1,0,0,0.9166,optionRight,70,15575,7,21,0,21,0,1,,,,,,,,,,,,,,,,,,,,,,,,,,,,,,,,,,,,,,,
,,,,,,,,2023-08-16_08h18.13.394,HF_wild_card,2022.2.4,Win32,61.22948812,55f1ca7532af7400121700cc,64d2fd46c836a06233681665,64dc78121d792017e0b5d4b4,,,,,,,decisionTrl,resources/DP.BMP,resources/DY.BMP,Door4,0.361111111,-0.012037037,1,0,0,1.4659,optionRight,80,15655,7,22,0,22,0,1,,,,,,,,,,,,,,,,,,,,,,,,,,,,,,,,,,,,,,,
,,,,,,,,2023-08-16_08h18.13.394,HF_wild_card,2022.2.4,Win32,61.22948812,55f1ca7532af7400121700cc,64d2fd46c836a06233681665,64dc78121d792017e0b5d4b4,,,,,,,decisionTrl,resources/DBN.BMP,resources/DB.BMP,Door1,-0.22037037,-0.041666667,1,0,0,0.8148,optionLeft,30,15685,7,23,0,23,0,1,,,,,,,,,,,,,,,,,,,,,,,,,,,,,,,,,,,,,,,
,,,,,,,,2023-08-16_08h18.13.394,HF_wild_card,2022.2.4,Win32,61.22948812,55f1ca7532af7400121700cc,64d2fd46c836a06233681665,64dc78121d792017e0b5d4b4,,,,,,,decisionTrl,resources/DY.BMP,resources/DP.BMP,Door4,-0.167592593,-0.044444444,1,0,0,0.8985,optionLeft,80,15765,7,24,0,24,0,1,,,,,,,,,,,,,,,,,,,,,,,,,,,,,,,,,,,,,,,
,,,,,,,,2023-08-16_08h18.13.394,HF_wild_card,2022.2.4,Win32,61.22948812,55f1ca7532af7400121700cc,64d2fd46c836a06233681665,64dc78121d792017e0b5d4b4,,,,,,,decisionTrl,resources/DY.BMP,resources/DP.BMP,Door4,-0.207407407,-0.063888889,1,0,0,0.7664,optionLeft,80,15845,7,25,0,25,0,1,,,,,,,,,,,,,,,,,,,,,,,,,,,,,,,,,,,,,,,
,,,,,,,,2023-08-16_08h18.13.394,HF_wild_card,2022.2.4,Win32,61.22948812,55f1ca7532af7400121700cc,64d2fd46c836a06233681665,64dc78121d792017e0b5d4b4,,,,,,,ctch,resources/DY.BMP,resources/DBN.BMP,Door4,-0.238888889,-0.047222222,1,0,0,0.7492,optionLeft,60,15905,7,26,0,26,0,1,,,,,,,,,,,,,,,,,,,,,,,,,,,,,,,,,,,,,,,
,,,,,,,,2023-08-16_08h18.13.394,HF_wild_card,2022.2.4,Win32,61.22948812,55f1ca7532af7400121700cc,64d2fd46c836a06233681665,64dc78121d792017e0b5d4b4,,,,,,,ctch,resources/DP.BMP,resources/DB.BMP,Door3,-0.157407407,-0.041666667,1,0,0,0.6817,optionLeft,70,15975,7,27,0,27,0,1,,,,,,,,,,,,,,,,,,,,,,,,,,,,,,,,,,,,,,,
,,,,,,,,2023-08-16_08h18.13.394,HF_wild_card,2022.2.4,Win32,61.22948812,55f1ca7532af7400121700cc,64d2fd46c836a06233681665,64dc78121d792017e0b5d4b4,,,,,,,ctch,resources/DBN.BMP,resources/DY.BMP,Door4,0.328703704,-0.018518519,1,0,0,0.6823,optionRight,80,16055,7,28,0,28,0,1,,,,,,,,,,,,,,,,,,,,,,,,,,,,,,,,,,,,,,,
,,,,,,,,2023-08-16_08h18.13.394,HF_wild_card,2022.2.4,Win32,61.22948812,55f1ca7532af7400121700cc,64d2fd46c836a06233681665,64dc78121d792017e0b5d4b4,,,,,,,ctch,resources/DBN.BMP,resources/DY.BMP,Door4,0.238888889,-0.034259259,1,0,0,0.849,optionRight,80,16135,7,29,0,29,0,1,,,,,,,,,,,,,,,,,,,,,,,,,,,,,,,,,,,,,,,
,,,,,,,,2023-08-16_08h18.13.394,HF_wild_card,2022.2.4,Win32,61.22948812,55f1ca7532af7400121700cc,64d2fd46c836a06233681665,64dc78121d792017e0b5d4b4,,,,,,,ctch,resources/DB.BMP,resources/DP.BMP,Door3,0.27037037,-0.042592593,1,0,0,0.8155,optionRight,70,16205,7,30,0,30,0,1,,,,,,,,,,,,,,,,,,,,,,,,,,,,,,,,,,,,,,,
,,,,,,,,2023-08-16_08h18.13.394,HF_wild_card,2022.2.4,Win32,61.22948812,55f1ca7532af7400121700cc,64d2fd46c836a06233681665,64dc78121d792017e0b5d4b4,,,,,,,decisionTrl,resources/DBN.BMP,resources/DB.BMP,Door1,-0.234259259,-0.027777778,1,0,0,2.0315,optionLeft,30,16235,7,31,0,31,0,1,,,,,,,,,,,,,,,,,,,,,,,,,,,,,,,,,,,,,,,
,,,,,,,,2023-08-16_08h18.13.394,HF_wild_card,2022.2.4,Win32,61.22948812,55f1ca7532af7400121700cc,64d2fd46c836a06233681665,64dc78121d792017e0b5d4b4,,,,,,,decisionTrl,resources/DP.BMP,resources/DY.BMP,Door4,0.205555556,-0.032407407,1,0,0,0.9496,optionRight,60,16295,7,32,0,32,0,1,,,,,,,,,,,,,,,,,,,,,,,,,,,,,,,,,,,,,,,
,,,,,,,,2023-08-16_08h18.13.394,HF_wild_card,2022.2.4,Win32,61.22948812,55f1ca7532af7400121700cc,64d2fd46c836a06233681665,64dc78121d792017e0b5d4b4,,,,,,,decisionTrl,resources/DP.BMP,resources/DY.BMP,Door4,0.411111111,-0.037962963,1,0,0,0.7331,optionRight,60,16355,7,33,0,33,0,1,,,,,,,,,,,,,,,,,,,,,,,,,,,,,,,,,,,,,,,
,,,,,,,,2023-08-16_08h18.13.394,HF_wild_card,2022.2.4,Win32,61.22948812,55f1ca7532af7400121700cc,64d2fd46c836a06233681665,64dc78121d792017e0b5d4b4,,,,,,,ctch,resources/DP.BMP,resources/DB.BMP,Door3,-0.206481481,-0.026851852,1,0,0,1.0649,optionLeft,70,16425,7,34,0,34,0,1,,,,,,,,,,,,,,,,,,,,,,,,,,,,,,,,,,,,,,,
,,,,,,,,2023-08-16_08h18.13.394,HF_wild_card,2022.2.4,Win32,61.22948812,55f1ca7532af7400121700cc,64d2fd46c836a06233681665,64dc78121d792017e0b5d4b4,,,,,,,ctch,resources/DY.BMP,resources/DBN.BMP,Door4,-0.206481481,-0.023148148,1,0,0,0.8664,optionLeft,80,16505,7,35,0,35,0,1,,,,,,,,,,,,,,,,,,,,,,,,,,,,,,,,,,,,,,,
,,,,,,,,2023-08-16_08h18.13.394,HF_wild_card,2022.2.4,Win32,61.22948812,55f1ca7532af7400121700cc,64d2fd46c836a06233681665,64dc78121d792017e0b5d4b4,,,,,,,,,,,,,,,,,,,,,,,,,,6,0,6,0,1,,,,,,,,,,,,,,,,,,,,,,,,,,,,,,,,,,
,,,,,,,,2023-08-16_08h18.13.394,HF_wild_card,2022.2.4,Win32,61.22948812,55f1ca7532af7400121700cc,64d2fd46c836a06233681665,64dc78121d792017e0b5d4b4,,,,,,,,,,,,,,,,,,,,,,,,,,,,,,,4,,,,,,,,,,,,,,,,,,,,,,,,,,,,,,,,,
,,,,,,,,2023-08-16_08h18.13.394,HF_wild_card,2022.2.4,Win32,61.22948812,55f1ca7532af7400121700cc,64d2fd46c836a06233681665,64dc78121d792017e0b5d4b4,,,,,,,,,,,,,,,,,,,,,,,,,,,,,,,,,,,,,,,,,,,,,,,,,,,,,,,,,,,,,,,,
,,,,,,,,2023-08-16_08h18.13.394,HF_wild_card,2022.2.4,Win32,61.22948812,55f1ca7532af7400121700cc,64d2fd46c836a06233681665,64dc78121d792017e0b5d4b4,,,,,,,,,,,,,,,,,,,,,,,,,,,,,,,,45,WC_extreme,resources/DG.BMP,0,0,0,0,1,,,,,,,,,,,,,,,,,,,,,,,,,
,,,,,,,,2023-08-16_08h18.13.394,HF_wild_card,2022.2.4,Win32,61.22948812,55f1ca7532af7400121700cc,64d2fd46c836a06233681665,64dc78121d792017e0b5d4b4,,,,,,,,,,,,,,,,,,,,,,,,,,,,,,,,30,Door1,resources/DBN.BMP,1,0,1,0,1,,,,,,,,,,,,,,,,,,,,,,,,,
,,,,,,,,2023-08-16_08h18.13.394,HF_wild_card,2022.2.4,Win32,61.22948812,55f1ca7532af7400121700cc,64d2fd46c836a06233681665,64dc78121d792017e0b5d4b4,,,,,,,,,,,,,,,,,,,,,,,,,,,,,,,,55,WC_nonExtreme,resources/DR.BMP,2,0,2,0,1,,,,,,,,,,,,,,,,,,,,,,,,,
,,,,,,,,2023-08-16_08h18.13.394,HF_wild_card,2022.2.4,Win32,61.22948812,55f1ca7532af7400121700cc,64d2fd46c836a06233681665,64dc78121d792017e0b5d4b4,,,,,,,,,,,,,,,,,,,,,,,,,,,,,,,,70,Door3,resources/DP.BMP,3,0,3,0,1,,,,,,,,,,,,,,,,,,,,,,,,,
,,,,,,,,2023-08-16_08h18.13.394,HF_wild_card,2022.2.4,Win32,61.22948812,55f1ca7532af7400121700cc,64d2fd46c836a06233681665,64dc78121d792017e0b5d4b4,,,,,,,,,,,,,,,,,,,,,,,,,,,,,,,,80,Door4,resources/DY.BMP,4,0,4,0,1,,,,,,,,,,,,,,,,,,,,,,,,,
,,,,,,,,2023-08-16_08h18.13.394,HF_wild_card,2022.2.4,Win32,61.22948812,55f1ca7532af7400121700cc,64d2fd46c836a06233681665,64dc78121d792017e0b5d4b4,,,,,,,,,,,,,,,,,,,,,,,,,,,,,,,,20,Door2,resources/DB.BMP,5,0,5,0,1,,,,,,,,,,,,,,,,,,,,,,,,,
,,,,,,,,2023-08-16_08h18.13.394,HF_wild_card,2022.2.4,Win32,61.22948812,55f1ca7532af7400121700cc,64d2fd46c836a06233681665,64dc78121d792017e0b5d4b4,,,,,,,,,,,,,,,,,,,,,,,,,,,,,,,,,,,,,,,,,,,,,,,,,,,,,,,,,,,,,,,,
