Condition,Low fixed image (Door1),Low risky image (Door2),High fixed image (Door3),High risky image (Door4),NonExtreme Wild Card 1,NonExtreme Wild Card 2,,date,expName,psychopyVersion,OS,frameRate,PROLIFIC_PID,STUDY_ID,SESSION_ID,mouse_2.x,mouse_2.y,mouse_2.leftButton,mouse_2.midButton,mouse_2.rightButton,mouse_2.clicked_name,Trial Type,Left Option Image,Right Option Image,Chosen Door,mouse.x,mouse.y,mouse.leftButton,mouse.midButton,mouse.rightButton,mouse.time,mouse.clicked_name,Feedback,Cumulative Reward,Block,trial.thisRepN,trial.thisTrialN,trial.thisN,trial.thisIndex,trial.ran,blocks.thisRepN,blocks.thisTrialN,blocks.thisN,blocks.thisIndex,blocks.ran,Money conversion,First Outcome Reported,Shown Door (First Outcome),Displayed Image (First Outcome),outcomes.thisRepN,outcomes.thisTrialN,outcomes.thisN,outcomes.thisIndex,outcomes.ran,judgments.thisRepN,judgments.thisTrialN,judgments.thisN,judgments.thisIndex,judgments.ran,freqMouse.x,freqMouse.y,freqMouse.leftButton,freqMouse.midButton,freqMouse.rightButton,freqMouse.clicked_name,FQJ for first outcome,FQJ for second outcome,Shown Door,Displayed Image,trials.thisRepN,trials.thisTrialN,trials.thisN,trials.thisIndex,trials.ran,judgBlock.thisRepN,judgBlock.thisTrialN,judgBlock.thisN,judgBlock.thisIndex,judgBlock.ran
2,resources/DP.BMP,resources/DB.BMP,resources/DG.BMP,resources/DY.BMP,resources/DBN.BMP,resources/DR.BMP,,2023-08-06_08h21.41.015,HF_wild_card,2022.2.4,Linux x86_64,60.00960154,58ff27489ca116000122f93e,64ce5acb97489d65b14ecc7a,64cf49f0f9b448e22ecbd555,,,,,,,,,,,,,,,,,,,,,,,,,,,,,,,,,,,,,,,,,,,,,,,,,,,,,,,,,,,,,,,,
,,,,,,,,2023-08-06_08h21.41.015,HF_wild_card,2022.2.4,Linux x86_64,60.00960154,58ff27489ca116000122f93e,64ce5acb97489d65b14ecc7a,64cf49f0f9b448e22ecbd555,-0.005062838,-0.415716037,1,0,0,agree,,,,,,,,,,,,,,,,,,,,,,,,,,,,,,,,,,,,,,,,,,,,,,,,,,,,,,,,,,
,,,,,,,,2023-08-06_08h21.41.015,HF_wild_card,2022.2.4,Linux x86_64,60.00960154,58ff27489ca116000122f93e,64ce5acb97489d65b14ecc7a,64cf49f0f9b448e22ecbd555,,,,,,,,,,,,,,,,,,,,,,,,,,,,,,,,,,,,,,,,,,,,,,,,,,,,,,,,,,,,,,,,
,,,,,,,,2023-08-06_08h21.41.015,HF_wild_card,2022.2.4,Linux x86_64,60.00960154,58ff27489ca116000122f93e,64ce5acb97489d65b14ecc7a,64cf49f0f9b448e22ecbd555,,,,,,,ctch,resources/DY.BMP,resources/DP.BMP,Door4,-0.375934153,-0.119008096,1,0,0,3.9955,optionLeft,60,60,1,0,0,0,0,1,,,,,,,,,,,,,,,,,,,,,,,,,,,,,,,,,,,,,,,
,,,,,,,,2023-08-06_08h21.41.015,HF_wild_card,2022.2.4,Linux x86_64,60.00960154,58ff27489ca116000122f93e,64ce5acb97489d65b14ecc7a,64cf49f0f9b448e22ecbd555,,,,,,,decisionTrl,resources/DG.BMP,resources/DY.BMP,Door3,-0.324876705,-0.055653281,1,0,0,1.69,optionLeft,70,130,1,1,0,1,0,1,,,,,,,,,,,,,,,,,,,,,,,,,,,,,,,,,,,,,,,
,,,,,,,,2023-08-06_08h21.41.015,HF_wild_card,2022.2.4,Linux x86_64,60.00960154,58ff27489ca116000122f93e,64ce5acb97489d65b14ecc7a,64cf49f0f9b448e22ecbd555,,,,,,,sngl,resources/Empty.png,resources/DR.BMP,WildCard_NonEx,0.382472508,-0.026033393,1,0,0,1.725,optionRight,55,185,1,2,0,2,0,1,,,,,,,,,,,,,,,,,,,,,,,,,,,,,,,,,,,,,,,
,,,,,,,,2023-08-06_08h21.41.015,HF_wild_card,2022.2.4,Linux x86_64,60.00960154,58ff27489ca116000122f93e,64ce5acb97489d65b14ecc7a,64cf49f0f9b448e22ecbd555,,,,,,,decisionTrl,resources/DB.BMP,resources/DP.BMP,Door2,-0.275332097,-0.052036518,1,0,0,1.2938,optionLeft,20,205,1,3,0,3,0,1,,,,,,,,,,,,,,,,,,,,,,,,,,,,,,,,,,,,,,,
,,,,,,,,2023-08-06_08h21.41.015,HF_wild_card,2022.2.4,Linux x86_64,60.00960154,58ff27489ca116000122f93e,64ce5acb97489d65b14ecc7a,64cf49f0f9b448e22ecbd555,,,,,,,decisionTrl,resources/DG.BMP,resources/DY.BMP,Door4,0.351403465,-0.06428818,1,0,0,1.3596,optionRight,80,285,1,4,0,4,0,1,,,,,,,,,,,,,,,,,,,,,,,,,,,,,,,,,,,,,,,
,,,,,,,,2023-08-06_08h21.41.015,HF_wild_card,2022.2.4,Linux x86_64,60.00960154,58ff27489ca116000122f93e,64ce5acb97489d65b14ecc7a,64cf49f0f9b448e22ecbd555,,,,,,,decisionTrl,resources/DY.BMP,resources/DG.BMP,Door4,-0.310521336,-0.029214564,1,0,0,1.0104,optionLeft,60,345,1,5,0,5,0,1,,,,,,,,,,,,,,,,,,,,,,,,,,,,,,,,,,,,,,,
,,,,,,,,2023-08-06_08h21.41.015,HF_wild_card,2022.2.4,Linux x86_64,60.00960154,58ff27489ca116000122f93e,64ce5acb97489d65b14ecc7a,64cf49f0f9b448e22ecbd555,,,,,,,sngl,resources/Empty.png,resources/DP.BMP,Door1,0.310035097,-0.024284255,1,0,0,1.2276,optionRight,30,375,1,6,0,6,0,1,,,,,,,,,,,,,,,,,,,,,,,,,,,,,,,,,,,,,,,
,,,,,,,,2023-08-06_08h21.41.015,HF_wild_card,2022.2.4,Linux x86_64,60.00960154,58ff27489ca116000122f93e,64ce5acb97489d65b14ecc7a,64cf49f0f9b448e22ecbd555,,,,,,,decisionTrl,resources/DB.BMP,resources/DP.BMP,Door2,-0.245528244,-0.041437534,1,0,0,1.1496,optionLeft,40,415,1,7,0,7,0,1,,,,,,,,,,,,,,,,,,,,,,,,,,,,,,,,,,,,,,,
,,,,,,,,2023-08-06_08h21.41.015,HF_wild_card,2022.2.4,Linux x86_64,60.00960154,58ff27489ca116000122f93e,64ce5acb97489d65b14ecc7a,64cf49f0f9b448e22ecbd555,,,,,,,decisionTrl,resources/DY.BMP,resources/DR.BMP,WildCard_NonEx,0.339487568,-0.004738427,1,0,0,1.2386,optionRight,45,460,1,8,0,8,0,1,,,,,,,,,,,,,,,,,,,,,,,,,,,,,,,,,,,,,,,
,,,,,,,,2023-08-06_08h21.41.015,HF_wild_card,2022.2.4,Linux x86_64,60.00960154,58ff27489ca116000122f93e,64ce5acb97489d65b14ecc7a,64cf49f0f9b448e22ecbd555,,,,,,,sngl,resources/Empty.png,resources/DG.BMP,Door3,0.448499939,-0.00215174,1,0,0,1.0811,optionRight,70,530,1,9,0,9,0,1,,,,,,,,,,,,,,,,,,,,,,,,,,,,,,,,,,,,,,,
,,,,,,,,2023-08-06_08h21.41.015,HF_wild_card,2022.2.4,Linux x86_64,60.00960154,58ff27489ca116000122f93e,64ce5acb97489d65b14ecc7a,64cf49f0f9b448e22ecbd555,,,,,,,ctch,resources/DP.BMP,resources/DY.BMP,Door1,-0.365168648,-0.07190844,1,0,0,1.1065,optionLeft,30,560,1,10,0,10,0,1,,,,,,,,,,,,,,,,,,,,,,,,,,,,,,,,,,,,,,,
,,,,,,,,2023-08-06_08h21.41.015,HF_wild_card,2022.2.4,Linux x86_64,60.00960154,58ff27489ca116000122f93e,64ce5acb97489d65b14ecc7a,64cf49f0f9b448e22ecbd555,,,,,,,ctch,resources/DY.BMP,resources/DP.BMP,Door4,-0.274094201,-0.043338292,1,0,0,1.1915,optionLeft,80,640,1,11,0,11,0,1,,,,,,,,,,,,,,,,,,,,,,,,,,,,,,,,,,,,,,,
,,,,,,,,2023-08-06_08h21.41.015,HF_wild_card,2022.2.4,Linux x86_64,60.00960154,58ff27489ca116000122f93e,64ce5acb97489d65b14ecc7a,64cf49f0f9b448e22ecbd555,,,,,,,sngl,resources/Empty.png,resources/DB.BMP,Door2,0.309930148,-0.028116647,1,0,0,0.9924,optionRight,20,660,1,12,0,12,0,1,,,,,,,,,,,,,,,,,,,,,,,,,,,,,,,,,,,,,,,
,,,,,,,,2023-08-06_08h21.41.015,HF_wild_card,2022.2.4,Linux x86_64,60.00960154,58ff27489ca116000122f93e,64ce5acb97489d65b14ecc7a,64cf49f0f9b448e22ecbd555,,,,,,,decisionTrl,resources/DB.BMP,resources/DR.BMP,WildCard_NonEx,0.355823356,-0.041799733,1,0,0,1.2647,optionRight,45,705,1,13,0,13,0,1,,,,,,,,,,,,,,,,,,,,,,,,,,,,,,,,,,,,,,,
,,,,,,,,2023-08-06_08h21.41.015,HF_wild_card,2022.2.4,Linux x86_64,60.00960154,58ff27489ca116000122f93e,64ce5acb97489d65b14ecc7a,64cf49f0f9b448e22ecbd555,,,,,,,decisionTrl,resources/DY.BMP,resources/DG.BMP,Door3,0.321284621,-0.029552012,1,0,0,1.3424,optionRight,70,775,1,14,0,14,0,1,,,,,,,,,,,,,,,,,,,,,,,,,,,,,,,,,,,,,,,
,,,,,,,,2023-08-06_08h21.41.015,HF_wild_card,2022.2.4,Linux x86_64,60.00960154,58ff27489ca116000122f93e,64ce5acb97489d65b14ecc7a,64cf49f0f9b448e22ecbd555,,,,,,,sngl,resources/DB.BMP,resources/Empty.png,Door2,-0.362794007,-0.03866373,1,0,0,1.0088,optionLeft,40,815,1,15,0,15,0,1,,,,,,,,,,,,,,,,,,,,,,,,,,,,,,,,,,,,,,,
,,,,,,,,2023-08-06_08h21.41.015,HF_wild_card,2022.2.4,Linux x86_64,60.00960154,58ff27489ca116000122f93e,64ce5acb97489d65b14ecc7a,64cf49f0f9b448e22ecbd555,,,,,,,ctch,resources/DP.BMP,resources/DY.BMP,Door1,-0.267050658,-0.0403778,1,0,0,1.1919,optionLeft,30,845,1,16,0,16,0,1,,,,,,,,,,,,,,,,,,,,,,,,,,,,,,,,,,,,,,,
,,,,,,,,2023-08-06_08h21.41.015,HF_wild_card,2022.2.4,Linux x86_64,60.00960154,58ff27489ca116000122f93e,64ce5acb97489d65b14ecc7a,64cf49f0f9b448e22ecbd555,,,,,,,decisionTrl,resources/DR.BMP,resources/DB.BMP,WildCard_NonEx,-0.381239484,-0.037402157,1,0,0,1.6111,optionLeft,45,890,1,17,0,17,0,1,,,,,,,,,,,,,,,,,,,,,,,,,,,,,,,,,,,,,,,
,,,,,,,,2023-08-06_08h21.41.015,HF_wild_card,2022.2.4,Linux x86_64,60.00960154,58ff27489ca116000122f93e,64ce5acb97489d65b14ecc7a,64cf49f0f9b448e22ecbd555,,,,,,,sngl,resources/Empty.png,resources/DY.BMP,Door4,0.382164324,-0.037702247,1,0,0,1.1095,optionRight,60,950,1,18,0,18,0,1,,,,,,,,,,,,,,,,,,,,,,,,,,,,,,,,,,,,,,,
,,,,,,,,2023-08-06_08h21.41.015,HF_wild_card,2022.2.4,Linux x86_64,60.00960154,58ff27489ca116000122f93e,64ce5acb97489d65b14ecc7a,64cf49f0f9b448e22ecbd555,,,,,,,decisionTrl,resources/DY.BMP,resources/DG.BMP,Door4,-0.32592623,-0.056253926,1,0,0,1.0229,optionLeft,80,1030,1,19,0,19,0,1,,,,,,,,,,,,,,,,,,,,,,,,,,,,,,,,,,,,,,,
,,,,,,,,2023-08-06_08h21.41.015,HF_wild_card,2022.2.4,Linux x86_64,60.00960154,58ff27489ca116000122f93e,64ce5acb97489d65b14ecc7a,64cf49f0f9b448e22ecbd555,,,,,,,decisionTrl,resources/DG.BMP,resources/DR.BMP,WildCard_NonEx,0.354365819,-0.043617535,1,0,0,1.0902,optionRight,55,1085,1,20,0,20,0,1,,,,,,,,,,,,,,,,,,,,,,,,,,,,,,,,,,,,,,,
,,,,,,,,2023-08-06_08h21.41.015,HF_wild_card,2022.2.4,Linux x86_64,60.00960154,58ff27489ca116000122f93e,64ce5acb97489d65b14ecc7a,64cf49f0f9b448e22ecbd555,,,,,,,decisionTrl,resources/DG.BMP,resources/DY.BMP,Door3,-0.358056333,-0.034622371,1,0,0,1.2927,optionLeft,70,1155,1,21,0,21,0,1,,,,,,,,,,,,,,,,,,,,,,,,,,,,,,,,,,,,,,,
,,,,,,,,2023-08-06_08h21.41.015,HF_wild_card,2022.2.4,Linux x86_64,60.00960154,58ff27489ca116000122f93e,64ce5acb97489d65b14ecc7a,64cf49f0f9b448e22ecbd555,,,,,,,decisionTrl,resources/DB.BMP,resources/DP.BMP,Door2,-0.308176569,-0.071714983,1,0,0,1.159,optionLeft,40,1195,1,22,0,22,0,1,,,,,,,,,,,,,,,,,,,,,,,,,,,,,,,,,,,,,,,
,,,,,,,,2023-08-06_08h21.41.015,HF_wild_card,2022.2.4,Linux x86_64,60.00960154,58ff27489ca116000122f93e,64ce5acb97489d65b14ecc7a,64cf49f0f9b448e22ecbd555,,,,,,,decisionTrl,resources/DR.BMP,resources/DY.BMP,WildCard_NonEx,-0.318518768,-0.024103908,1,0,0,1.5928,optionLeft,45,1240,1,23,0,23,0,1,,,,,,,,,,,,,,,,,,,,,,,,,,,,,,,,,,,,,,,
,,,,,,,,2023-08-06_08h21.41.015,HF_wild_card,2022.2.4,Linux x86_64,60.00960154,58ff27489ca116000122f93e,64ce5acb97489d65b14ecc7a,64cf49f0f9b448e22ecbd555,,,,,,,decisionTrl,resources/DP.BMP,resources/DB.BMP,Door1,-0.404439828,-0.025022623,1,0,0,1.1568,optionLeft,30,1270,1,24,0,24,0,1,,,,,,,,,,,,,,,,,,,,,,,,,,,,,,,,,,,,,,,
,,,,,,,,2023-08-06_08h21.41.015,HF_wild_card,2022.2.4,Linux x86_64,60.00960154,58ff27489ca116000122f93e,64ce5acb97489d65b14ecc7a,64cf49f0f9b448e22ecbd555,,,,,,,sngl,resources/DG.BMP,resources/Empty.png,Door3,-0.35540313,-0.035429798,1,0,0,1.0461,optionLeft,70,1340,1,25,0,25,0,1,,,,,,,,,,,,,,,,,,,,,,,,,,,,,,,,,,,,,,,
,,,,,,,,2023-08-06_08h21.41.015,HF_wild_card,2022.2.4,Linux x86_64,60.00960154,58ff27489ca116000122f93e,64ce5acb97489d65b14ecc7a,64cf49f0f9b448e22ecbd555,,,,,,,decisionTrl,resources/DP.BMP,resources/DR.BMP,WildCard_NonEx,0.305199637,-0.06091853,1,0,0,1.4425,optionRight,55,1395,1,26,0,26,0,1,,,,,,,,,,,,,,,,,,,,,,,,,,,,,,,,,,,,,,,
,,,,,,,,2023-08-06_08h21.41.015,HF_wild_card,2022.2.4,Linux x86_64,60.00960154,58ff27489ca116000122f93e,64ce5acb97489d65b14ecc7a,64cf49f0f9b448e22ecbd555,,,,,,,decisionTrl,resources/DP.BMP,resources/DB.BMP,Door1,-0.37799323,-0.065652731,1,0,0,0.8656,optionLeft,30,1425,1,27,0,27,0,1,,,,,,,,,,,,,,,,,,,,,,,,,,,,,,,,,,,,,,,
,,,,,,,,2023-08-06_08h21.41.015,HF_wild_card,2022.2.4,Linux x86_64,60.00960154,58ff27489ca116000122f93e,64ce5acb97489d65b14ecc7a,64cf49f0f9b448e22ecbd555,,,,,,,sngl,resources/DY.BMP,resources/Empty.png,Door4,-0.339671641,-0.03384908,1,0,0,0.7934,optionLeft,80,1505,1,28,0,28,0,1,,,,,,,,,,,,,,,,,,,,,,,,,,,,,,,,,,,,,,,
,,,,,,,,2023-08-06_08h21.41.015,HF_wild_card,2022.2.4,Linux x86_64,60.00960154,58ff27489ca116000122f93e,64ce5acb97489d65b14ecc7a,64cf49f0f9b448e22ecbd555,,,,,,,decisionTrl,resources/DY.BMP,resources/DG.BMP,Door4,-0.398678775,-0.042575997,1,0,0,0.8265,optionLeft,60,1565,1,29,0,29,0,1,,,,,,,,,,,,,,,,,,,,,,,,,,,,,,,,,,,,,,,
,,,,,,,,2023-08-06_08h21.41.015,HF_wild_card,2022.2.4,Linux x86_64,60.00960154,58ff27489ca116000122f93e,64ce5acb97489d65b14ecc7a,64cf49f0f9b448e22ecbd555,,,,,,,ctch,resources/DG.BMP,resources/DB.BMP,Door2,0.364638494,-0.01529493,1,0,0,0.8585,optionRight,20,1585,1,30,0,30,0,1,,,,,,,,,,,,,,,,,,,,,,,,,,,,,,,,,,,,,,,
,,,,,,,,2023-08-06_08h21.41.015,HF_wild_card,2022.2.4,Linux x86_64,60.00960154,58ff27489ca116000122f93e,64ce5acb97489d65b14ecc7a,64cf49f0f9b448e22ecbd555,,,,,,,ctch,resources/DB.BMP,resources/DG.BMP,Door2,-0.237968839,-0.015672711,1,0,0,1.7423,optionLeft,40,1625,1,31,0,31,0,1,,,,,,,,,,,,,,,,,,,,,,,,,,,,,,,,,,,,,,,
,,,,,,,,2023-08-06_08h21.41.015,HF_wild_card,2022.2.4,Linux x86_64,60.00960154,58ff27489ca116000122f93e,64ce5acb97489d65b14ecc7a,64cf49f0f9b448e22ecbd555,,,,,,,sngl,resources/DP.BMP,resources/Empty.png,Door1,-0.248003463,-0.036513745,1,0,0,0.9078,optionLeft,30,1655,1,32,0,32,0,1,,,,,,,,,,,,,,,,,,,,,,,,,,,,,,,,,,,,,,,
,,,,,,,,2023-08-06_08h21.41.015,HF_wild_card,2022.2.4,Linux x86_64,60.00960154,58ff27489ca116000122f93e,64ce5acb97489d65b14ecc7a,64cf49f0f9b448e22ecbd555,,,,,,,decisionTrl,resources/DP.BMP,resources/DB.BMP,Door1,-0.314304226,-0.035127953,1,0,0,1.3651,optionLeft,30,1685,1,33,0,33,0,1,,,,,,,,,,,,,,,,,,,,,,,,,,,,,,,,,,,,,,,
,,,,,,,,2023-08-06_08h21.41.015,HF_wild_card,2022.2.4,Linux x86_64,60.00960154,58ff27489ca116000122f93e,64ce5acb97489d65b14ecc7a,64cf49f0f9b448e22ecbd555,,,,,,,ctch,resources/DG.BMP,resources/DB.BMP,Door3,-0.247881679,-0.029494559,1,0,0,0.793,optionLeft,70,1755,1,34,0,34,0,1,,,,,,,,,,,,,,,,,,,,,,,,,,,,,,,,,,,,,,,
,,,,,,,,2023-08-06_08h21.41.015,HF_wild_card,2022.2.4,Linux x86_64,60.00960154,58ff27489ca116000122f93e,64ce5acb97489d65b14ecc7a,64cf49f0f9b448e22ecbd555,,,,,,,decisionTrl,resources/DR.BMP,resources/DG.BMP,WildCard_NonEx,-0.351146465,-0.043022478,1,0,0,1.1251,optionLeft,45,1800,1,35,0,35,0,1,,,,,,,,,,,,,,,,,,,,,,,,,,,,,,,,,,,,,,,
,,,,,,,,2023-08-06_08h21.41.015,HF_wild_card,2022.2.4,Linux x86_64,60.00960154,58ff27489ca116000122f93e,64ce5acb97489d65b14ecc7a,64cf49f0f9b448e22ecbd555,,,,,,,sngl,resources/DR.BMP,resources/Empty.png,WildCard_NonEx,-0.377466838,-0.023326283,1,0,0,3.0097,optionLeft,55,1855,1,36,0,36,0,1,,,,,,,,,,,,,,,,,,,,,,,,,,,,,,,,,,,,,,,
,,,,,,,,2023-08-06_08h21.41.015,HF_wild_card,2022.2.4,Linux x86_64,60.00960154,58ff27489ca116000122f93e,64ce5acb97489d65b14ecc7a,64cf49f0f9b448e22ecbd555,,,,,,,decisionTrl,resources/DR.BMP,resources/DP.BMP,Door1,0.335037017,-0.063320536,1,0,0,1.6654,optionRight,30,1885,1,37,0,37,0,1,,,,,,,,,,,,,,,,,,,,,,,,,,,,,,,,,,,,,,,
,,,,,,,,2023-08-06_08h21.41.015,HF_wild_card,2022.2.4,Linux x86_64,60.00960154,58ff27489ca116000122f93e,64ce5acb97489d65b14ecc7a,64cf49f0f9b448e22ecbd555,,,,,,,sngl,resources/DR.BMP,resources/Empty.png,WildCard_NonEx,-0.407983484,-0.015010995,1,0,0,3.709,optionLeft,45,1930,1,38,0,38,0,1,,,,,,,,,,,,,,,,,,,,,,,,,,,,,,,,,,,,,,,
,,,,,,,,2023-08-06_08h21.41.015,HF_wild_card,2022.2.4,Linux x86_64,60.00960154,58ff27489ca116000122f93e,64ce5acb97489d65b14ecc7a,64cf49f0f9b448e22ecbd555,,,,,,,decisionTrl,resources/DG.BMP,resources/DY.BMP,Door3,-0.316498913,-0.035595782,1,0,0,1.0925,optionLeft,70,2000,1,39,0,39,0,1,,,,,,,,,,,,,,,,,,,,,,,,,,,,,,,,,,,,,,,
,,,,,,,,2023-08-06_08h21.41.015,HF_wild_card,2022.2.4,Linux x86_64,60.00960154,58ff27489ca116000122f93e,64ce5acb97489d65b14ecc7a,64cf49f0f9b448e22ecbd555,,,,,,,sngl,resources/Empty.png,resources/DR.BMP,WildCard_NonEx,0.342595203,-0.035411387,1,0,0,2.6726,optionRight,45,2045,1,40,0,40,0,1,,,,,,,,,,,,,,,,,,,,,,,,,,,,,,,,,,,,,,,
,,,,,,,,2023-08-06_08h21.41.015,HF_wild_card,2022.2.4,Linux x86_64,60.00960154,58ff27489ca116000122f93e,64ce5acb97489d65b14ecc7a,64cf49f0f9b448e22ecbd555,,,,,,,ctch,resources/DB.BMP,resources/DG.BMP,Door2,-0.459082554,-0.049241151,1,0,0,3.5317,optionLeft,20,2065,1,41,0,41,0,1,,,,,,,,,,,,,,,,,,,,,,,,,,,,,,,,,,,,,,,
,,,,,,,,2023-08-06_08h21.41.015,HF_wild_card,2022.2.4,Linux x86_64,60.00960154,58ff27489ca116000122f93e,64ce5acb97489d65b14ecc7a,64cf49f0f9b448e22ecbd555,,,,,,,decisionTrl,resources/DB.BMP,resources/DP.BMP,Door2,-0.316425162,-0.008821264,1,0,0,1.9493,optionLeft,20,2085,1,42,0,42,0,1,,,,,,,,,,,,,,,,,,,,,,,,,,,,,,,,,,,,,,,
,,,,,,,,2023-08-06_08h21.41.015,HF_wild_card,2022.2.4,Linux x86_64,60.00960154,58ff27489ca116000122f93e,64ce5acb97489d65b14ecc7a,64cf49f0f9b448e22ecbd555,,,,,,,decisionTrl,resources/DP.BMP,resources/DB.BMP,Door1,-0.43374229,-0.045227731,1,0,0,1.9325,optionLeft,30,2115,1,43,0,43,0,1,,,,,,,,,,,,,,,,,,,,,,,,,,,,,,,,,,,,,,,
,,,,,,,,2023-08-06_08h21.41.015,HF_wild_card,2022.2.4,Linux x86_64,60.00960154,58ff27489ca116000122f93e,64ce5acb97489d65b14ecc7a,64cf49f0f9b448e22ecbd555,,,,,,,,,,,,,,,,,,,,,,,,,,0,0,0,0,1,,,,,,,,,,,,,,,,,,,,,,,,,,,,,,,,,,
,,,,,,,,2023-08-06_08h21.41.015,HF_wild_card,2022.2.4,Linux x86_64,60.00960154,58ff27489ca116000122f93e,64ce5acb97489d65b14ecc7a,64cf49f0f9b448e22ecbd555,,,,,,,decisionTrl,resources/DY.BMP,resources/DG.BMP,Door4,-0.354465932,-0.143712505,1,0,0,1.9754,optionLeft,60,2175,2,0,0,0,0,1,,,,,,,,,,,,,,,,,,,,,,,,,,,,,,,,,,,,,,,
,,,,,,,,2023-08-06_08h21.41.015,HF_wild_card,2022.2.4,Linux x86_64,60.00960154,58ff27489ca116000122f93e,64ce5acb97489d65b14ecc7a,64cf49f0f9b448e22ecbd555,,,,,,,ctch,resources/DP.BMP,resources/DY.BMP,Door4,0.254176467,-0.021675361,1,0,0,0.827,optionRight,60,2235,2,1,0,1,0,1,,,,,,,,,,,,,,,,,,,,,,,,,,,,,,,,,,,,,,,
,,,,,,,,2023-08-06_08h21.41.015,HF_wild_card,2022.2.4,Linux x86_64,60.00960154,58ff27489ca116000122f93e,64ce5acb97489d65b14ecc7a,64cf49f0f9b448e22ecbd555,,,,,,,sngl,resources/DR.BMP,resources/Empty.png,WildCard_NonEx,-0.331063965,-0.05051723,1,0,0,0.8596,optionLeft,45,2280,2,2,0,2,0,1,,,,,,,,,,,,,,,,,,,,,,,,,,,,,,,,,,,,,,,
,,,,,,,,2023-08-06_08h21.41.015,HF_wild_card,2022.2.4,Linux x86_64,60.00960154,58ff27489ca116000122f93e,64ce5acb97489d65b14ecc7a,64cf49f0f9b448e22ecbd555,,,,,,,ctch,resources/DG.BMP,resources/DB.BMP,Door3,-0.206180125,-0.033452567,1,0,0,0.9266,optionLeft,70,2350,2,3,0,3,0,1,,,,,,,,,,,,,,,,,,,,,,,,,,,,,,,,,,,,,,,
,,,,,,,,2023-08-06_08h21.41.015,HF_wild_card,2022.2.4,Linux x86_64,60.00960154,58ff27489ca116000122f93e,64ce5acb97489d65b14ecc7a,64cf49f0f9b448e22ecbd555,,,,,,,decisionTrl,resources/DY.BMP,resources/DG.BMP,Door4,-0.326056109,-0.013903049,1,0,0,0.7263,optionLeft,80,2430,2,4,0,4,0,1,,,,,,,,,,,,,,,,,,,,,,,,,,,,,,,,,,,,,,,
,,,,,,,,2023-08-06_08h21.41.015,HF_wild_card,2022.2.4,Linux x86_64,60.00960154,58ff27489ca116000122f93e,64ce5acb97489d65b14ecc7a,64cf49f0f9b448e22ecbd555,,,,,,,decisionTrl,resources/DG.BMP,resources/DY.BMP,Door3,-0.317618357,-0.031485401,1,0,0,0.7096,optionLeft,70,2500,2,5,0,5,0,1,,,,,,,,,,,,,,,,,,,,,,,,,,,,,,,,,,,,,,,
,,,,,,,,2023-08-06_08h21.41.015,HF_wild_card,2022.2.4,Linux x86_64,60.00960154,58ff27489ca116000122f93e,64ce5acb97489d65b14ecc7a,64cf49f0f9b448e22ecbd555,,,,,,,decisionTrl,resources/DB.BMP,resources/DP.BMP,Door2,-0.308479703,-0.041101662,1,0,0,0.8438,optionLeft,20,2520,2,6,0,6,0,1,,,,,,,,,,,,,,,,,,,,,,,,,,,,,,,,,,,,,,,
,,,,,,,,2023-08-06_08h21.41.015,HF_wild_card,2022.2.4,Linux x86_64,60.00960154,58ff27489ca116000122f93e,64ce5acb97489d65b14ecc7a,64cf49f0f9b448e22ecbd555,,,,,,,decisionTrl,resources/DY.BMP,resources/DG.BMP,Door4,-0.293498044,-0.035781395,1,0,0,0.6763,optionLeft,80,2600,2,7,0,7,0,1,,,,,,,,,,,,,,,,,,,,,,,,,,,,,,,,,,,,,,,
,,,,,,,,2023-08-06_08h21.41.015,HF_wild_card,2022.2.4,Linux x86_64,60.00960154,58ff27489ca116000122f93e,64ce5acb97489d65b14ecc7a,64cf49f0f9b448e22ecbd555,,,,,,,decisionTrl,resources/DP.BMP,resources/DB.BMP,Door1,-0.32259222,-0.043084194,1,0,0,0.6903,optionLeft,30,2630,2,8,0,8,0,1,,,,,,,,,,,,,,,,,,,,,,,,,,,,,,,,,,,,,,,
,,,,,,,,2023-08-06_08h21.41.015,HF_wild_card,2022.2.4,Linux x86_64,60.00960154,58ff27489ca116000122f93e,64ce5acb97489d65b14ecc7a,64cf49f0f9b448e22ecbd555,,,,,,,decisionTrl,resources/DG.BMP,resources/DY.BMP,Door3,-0.281932061,-0.055165,1,0,0,0.607,optionLeft,70,2700,2,9,0,9,0,1,,,,,,,,,,,,,,,,,,,,,,,,,,,,,,,,,,,,,,,
,,,,,,,,2023-08-06_08h21.41.015,HF_wild_card,2022.2.4,Linux x86_64,60.00960154,58ff27489ca116000122f93e,64ce5acb97489d65b14ecc7a,64cf49f0f9b448e22ecbd555,,,,,,,decisionTrl,resources/DR.BMP,resources/DY.BMP,WildCard_NonEx,-0.229945868,-0.048192235,1,0,0,0.7101,optionLeft,45,2745,2,10,0,10,0,1,,,,,,,,,,,,,,,,,,,,,,,,,,,,,,,,,,,,,,,
,,,,,,,,2023-08-06_08h21.41.015,HF_wild_card,2022.2.4,Linux x86_64,60.00960154,58ff27489ca116000122f93e,64ce5acb97489d65b14ecc7a,64cf49f0f9b448e22ecbd555,,,,,,,decisionTrl,resources/DY.BMP,resources/DR.BMP,Door4,-0.231201888,-0.021865666,1,0,0,0.6273,optionLeft,60,2805,2,11,0,11,0,1,,,,,,,,,,,,,,,,,,,,,,,,,,,,,,,,,,,,,,,
,,,,,,,,2023-08-06_08h21.41.015,HF_wild_card,2022.2.4,Linux x86_64,60.00960154,58ff27489ca116000122f93e,64ce5acb97489d65b14ecc7a,64cf49f0f9b448e22ecbd555,,,,,,,decisionTrl,resources/DB.BMP,resources/DP.BMP,Door2,-0.226794104,-0.023380405,1,0,0,0.6916,optionLeft,40,2845,2,12,0,12,0,1,,,,,,,,,,,,,,,,,,,,,,,,,,,,,,,,,,,,,,,
,,,,,,,,2023-08-06_08h21.41.015,HF_wild_card,2022.2.4,Linux x86_64,60.00960154,58ff27489ca116000122f93e,64ce5acb97489d65b14ecc7a,64cf49f0f9b448e22ecbd555,,,,,,,sngl,resources/Empty.png,resources/DP.BMP,Door1,0.425064588,-0.029128778,1,0,0,1.0933,optionRight,30,2875,2,13,0,13,0,1,,,,,,,,,,,,,,,,,,,,,,,,,,,,,,,,,,,,,,,
,,,,,,,,2023-08-06_08h21.41.015,HF_wild_card,2022.2.4,Linux x86_64,60.00960154,58ff27489ca116000122f93e,64ce5acb97489d65b14ecc7a,64cf49f0f9b448e22ecbd555,,,,,,,sngl,resources/DG.BMP,resources/Empty.png,Door3,-0.165631433,-0.016986865,1,0,0,0.925,optionLeft,70,2945,2,14,0,14,0,1,,,,,,,,,,,,,,,,,,,,,,,,,,,,,,,,,,,,,,,
,,,,,,,,2023-08-06_08h21.41.015,HF_wild_card,2022.2.4,Linux x86_64,60.00960154,58ff27489ca116000122f93e,64ce5acb97489d65b14ecc7a,64cf49f0f9b448e22ecbd555,,,,,,,decisionTrl,resources/DP.BMP,resources/DB.BMP,Door1,-0.109167036,-0.016334104,1,0,0,0.8746,optionLeft,30,2975,2,15,0,15,0,1,,,,,,,,,,,,,,,,,,,,,,,,,,,,,,,,,,,,,,,
,,,,,,,,2023-08-06_08h21.41.015,HF_wild_card,2022.2.4,Linux x86_64,60.00960154,58ff27489ca116000122f93e,64ce5acb97489d65b14ecc7a,64cf49f0f9b448e22ecbd555,,,,,,,decisionTrl,resources/DP.BMP,resources/DB.BMP,Door1,-0.130410924,-0.009297008,1,0,0,0.7776,optionLeft,30,3005,2,16,0,16,0,1,,,,,,,,,,,,,,,,,,,,,,,,,,,,,,,,,,,,,,,
,,,,,,,,2023-08-06_08h21.41.015,HF_wild_card,2022.2.4,Linux x86_64,60.00960154,58ff27489ca116000122f93e,64ce5acb97489d65b14ecc7a,64cf49f0f9b448e22ecbd555,,,,,,,ctch,resources/DB.BMP,resources/DG.BMP,Door2,-0.247439174,-0.023308624,1,0,0,0.6948,optionLeft,20,3025,2,17,0,17,0,1,,,,,,,,,,,,,,,,,,,,,,,,,,,,,,,,,,,,,,,
,,,,,,,,2023-08-06_08h21.41.015,HF_wild_card,2022.2.4,Linux x86_64,60.00960154,58ff27489ca116000122f93e,64ce5acb97489d65b14ecc7a,64cf49f0f9b448e22ecbd555,,,,,,,sngl,resources/Empty.png,resources/DY.BMP,Door4,0.430825247,-0.004281451,1,0,0,1.1615,optionRight,80,3105,2,18,0,18,0,1,,,,,,,,,,,,,,,,,,,,,,,,,,,,,,,,,,,,,,,
,,,,,,,,2023-08-06_08h21.41.015,HF_wild_card,2022.2.4,Linux x86_64,60.00960154,58ff27489ca116000122f93e,64ce5acb97489d65b14ecc7a,64cf49f0f9b448e22ecbd555,,,,,,,decisionTrl,resources/DR.BMP,resources/DP.BMP,WildCard_NonEx,-0.196843752,-0.024745601,1,0,0,1.0094,optionLeft,45,3150,2,19,0,19,0,1,,,,,,,,,,,,,,,,,,,,,,,,,,,,,,,,,,,,,,,
,,,,,,,,2023-08-06_08h21.41.015,HF_wild_card,2022.2.4,Linux x86_64,60.00960154,58ff27489ca116000122f93e,64ce5acb97489d65b14ecc7a,64cf49f0f9b448e22ecbd555,,,,,,,ctch,resources/DB.BMP,resources/DG.BMP,Door2,-0.255100232,-0.025980846,1,0,0,0.9445,optionLeft,20,3170,2,20,0,20,0,1,,,,,,,,,,,,,,,,,,,,,,,,,,,,,,,,,,,,,,,
,,,,,,,,2023-08-06_08h21.41.015,HF_wild_card,2022.2.4,Linux x86_64,60.00960154,58ff27489ca116000122f93e,64ce5acb97489d65b14ecc7a,64cf49f0f9b448e22ecbd555,,,,,,,decisionTrl,resources/DP.BMP,resources/DR.BMP,WildCard_NonEx,0.345004946,-0.05090264,1,0,0,0.9942,optionRight,45,3215,2,21,0,21,0,1,,,,,,,,,,,,,,,,,,,,,,,,,,,,,,,,,,,,,,,
,,,,,,,,2023-08-06_08h21.41.015,HF_wild_card,2022.2.4,Linux x86_64,60.00960154,58ff27489ca116000122f93e,64ce5acb97489d65b14ecc7a,64cf49f0f9b448e22ecbd555,,,,,,,decisionTrl,resources/DG.BMP,resources/DR.BMP,WildCard_NonEx,0.298594014,-0.03398401,1,0,0,1.2284,optionRight,45,3260,2,22,0,22,0,1,,,,,,,,,,,,,,,,,,,,,,,,,,,,,,,,,,,,,,,
,,,,,,,,2023-08-06_08h21.41.015,HF_wild_card,2022.2.4,Linux x86_64,60.00960154,58ff27489ca116000122f93e,64ce5acb97489d65b14ecc7a,64cf49f0f9b448e22ecbd555,,,,,,,decisionTrl,resources/DR.BMP,resources/DB.BMP,WildCard_NonEx,-0.400024342,-0.040518676,1,0,0,0.9444,optionLeft,45,3305,2,23,0,23,0,1,,,,,,,,,,,,,,,,,,,,,,,,,,,,,,,,,,,,,,,
,,,,,,,,2023-08-06_08h21.41.015,HF_wild_card,2022.2.4,Linux x86_64,60.00960154,58ff27489ca116000122f93e,64ce5acb97489d65b14ecc7a,64cf49f0f9b448e22ecbd555,,,,,,,ctch,resources/DG.BMP,resources/DB.BMP,Door2,0.35954779,-0.039271574,1,0,0,0.911,optionRight,40,3345,2,24,0,24,0,1,,,,,,,,,,,,,,,,,,,,,,,,,,,,,,,,,,,,,,,
,,,,,,,,2023-08-06_08h21.41.015,HF_wild_card,2022.2.4,Linux x86_64,60.00960154,58ff27489ca116000122f93e,64ce5acb97489d65b14ecc7a,64cf49f0f9b448e22ecbd555,,,,,,,decisionTrl,resources/DB.BMP,resources/DR.BMP,WildCard_NonEx,0.333163696,-0.042117195,1,0,0,1.4729,optionRight,55,3400,2,25,0,25,0,1,,,,,,,,,,,,,,,,,,,,,,,,,,,,,,,,,,,,,,,
,,,,,,,,2023-08-06_08h21.41.015,HF_wild_card,2022.2.4,Linux x86_64,60.00960154,58ff27489ca116000122f93e,64ce5acb97489d65b14ecc7a,64cf49f0f9b448e22ecbd555,,,,,,,sngl,resources/DY.BMP,resources/Empty.png,Door4,-0.321224983,-0.041721469,1,0,0,0.994,optionLeft,60,3460,2,26,0,26,0,1,,,,,,,,,,,,,,,,,,,,,,,,,,,,,,,,,,,,,,,
,,,,,,,,2023-08-06_08h21.41.015,HF_wild_card,2022.2.4,Linux x86_64,60.00960154,58ff27489ca116000122f93e,64ce5acb97489d65b14ecc7a,64cf49f0f9b448e22ecbd555,,,,,,,sngl,resources/Empty.png,resources/DB.BMP,Door2,0.344015202,-0.032485532,1,0,0,1.0929,optionRight,40,3500,2,27,0,27,0,1,,,,,,,,,,,,,,,,,,,,,,,,,,,,,,,,,,,,,,,
,,,,,,,,2023-08-06_08h21.41.015,HF_wild_card,2022.2.4,Linux x86_64,60.00960154,58ff27489ca116000122f93e,64ce5acb97489d65b14ecc7a,64cf49f0f9b448e22ecbd555,,,,,,,decisionTrl,resources/DG.BMP,resources/DY.BMP,Door4,0.380887027,-0.048710639,1,0,0,1.427,optionRight,80,3580,2,28,0,28,0,1,,,,,,,,,,,,,,,,,,,,,,,,,,,,,,,,,,,,,,,
,,,,,,,,2023-08-06_08h21.41.015,HF_wild_card,2022.2.4,Linux x86_64,60.00960154,58ff27489ca116000122f93e,64ce5acb97489d65b14ecc7a,64cf49f0f9b448e22ecbd555,,,,,,,decisionTrl,resources/DG.BMP,resources/DY.BMP,Door3,-0.382951942,-0.018355105,1,0,0,0.9272,optionLeft,70,3650,2,29,0,29,0,1,,,,,,,,,,,,,,,,,,,,,,,,,,,,,,,,,,,,,,,
,,,,,,,,2023-08-06_08h21.41.015,HF_wild_card,2022.2.4,Linux x86_64,60.00960154,58ff27489ca116000122f93e,64ce5acb97489d65b14ecc7a,64cf49f0f9b448e22ecbd555,,,,,,,sngl,resources/DP.BMP,resources/Empty.png,Door1,-0.281343559,-0.032425357,1,0,0,1.0775,optionLeft,30,3680,2,30,0,30,0,1,,,,,,,,,,,,,,,,,,,,,,,,,,,,,,,,,,,,,,,
,,,,,,,,2023-08-06_08h21.41.015,HF_wild_card,2022.2.4,Linux x86_64,60.00960154,58ff27489ca116000122f93e,64ce5acb97489d65b14ecc7a,64cf49f0f9b448e22ecbd555,,,,,,,ctch,resources/DY.BMP,resources/DP.BMP,Door4,-0.349747635,-0.012914165,1,0,0,0.9435,optionLeft,60,3740,2,31,0,31,0,1,,,,,,,,,,,,,,,,,,,,,,,,,,,,,,,,,,,,,,,
,,,,,,,,2023-08-06_08h21.41.015,HF_wild_card,2022.2.4,Linux x86_64,60.00960154,58ff27489ca116000122f93e,64ce5acb97489d65b14ecc7a,64cf49f0f9b448e22ecbd555,,,,,,,decisionTrl,resources/DP.BMP,resources/DB.BMP,Door2,0.370607475,-0.073539053,1,0,0,0.8091,optionRight,20,3760,2,32,0,32,0,1,,,,,,,,,,,,,,,,,,,,,,,,,,,,,,,,,,,,,,,
,,,,,,,,2023-08-06_08h21.41.015,HF_wild_card,2022.2.4,Linux x86_64,60.00960154,58ff27489ca116000122f93e,64ce5acb97489d65b14ecc7a,64cf49f0f9b448e22ecbd555,,,,,,,ctch,resources/DY.BMP,resources/DP.BMP,Door1,0.387710786,-0.088377259,1,0,0,0.8449,optionRight,30,3790,2,33,0,33,0,1,,,,,,,,,,,,,,,,,,,,,,,,,,,,,,,,,,,,,,,
,,,,,,,,2023-08-06_08h21.41.015,HF_wild_card,2022.2.4,Linux x86_64,60.00960154,58ff27489ca116000122f93e,64ce5acb97489d65b14ecc7a,64cf49f0f9b448e22ecbd555,,,,,,,ctch,resources/DP.BMP,resources/DY.BMP,Door1,-0.304170743,-0.062419802,1,0,0,0.8081,optionLeft,30,3820,2,34,0,34,0,1,,,,,,,,,,,,,,,,,,,,,,,,,,,,,,,,,,,,,,,
,,,,,,,,2023-08-06_08h21.41.015,HF_wild_card,2022.2.4,Linux x86_64,60.00960154,58ff27489ca116000122f93e,64ce5acb97489d65b14ecc7a,64cf49f0f9b448e22ecbd555,,,,,,,decisionTrl,resources/DY.BMP,resources/DG.BMP,Door4,-0.292519332,-0.044806073,1,0,0,0.7269,optionLeft,60,3880,2,35,0,35,0,1,,,,,,,,,,,,,,,,,,,,,,,,,,,,,,,,,,,,,,,
,,,,,,,,2023-08-06_08h21.41.015,HF_wild_card,2022.2.4,Linux x86_64,60.00960154,58ff27489ca116000122f93e,64ce5acb97489d65b14ecc7a,64cf49f0f9b448e22ecbd555,,,,,,,sngl,resources/DR.BMP,resources/Empty.png,WildCard_NonEx,-0.213089849,-0.021176155,1,0,0,0.9786,optionLeft,55,3935,2,36,0,36,0,1,,,,,,,,,,,,,,,,,,,,,,,,,,,,,,,,,,,,,,,
,,,,,,,,2023-08-06_08h21.41.015,HF_wild_card,2022.2.4,Linux x86_64,60.00960154,58ff27489ca116000122f93e,64ce5acb97489d65b14ecc7a,64cf49f0f9b448e22ecbd555,,,,,,,decisionTrl,resources/DR.BMP,resources/DG.BMP,WildCard_NonEx,-0.31673084,-0.014792429,1,0,0,0.7289,optionLeft,55,3990,2,37,0,37,0,1,,,,,,,,,,,,,,,,,,,,,,,,,,,,,,,,,,,,,,,
,,,,,,,,2023-08-06_08h21.41.015,HF_wild_card,2022.2.4,Linux x86_64,60.00960154,58ff27489ca116000122f93e,64ce5acb97489d65b14ecc7a,64cf49f0f9b448e22ecbd555,,,,,,,sngl,resources/DB.BMP,resources/Empty.png,Door2,-0.284253904,-0.025217979,1,0,0,0.6933,optionLeft,20,4010,2,38,0,38,0,1,,,,,,,,,,,,,,,,,,,,,,,,,,,,,,,,,,,,,,,
,,,,,,,,2023-08-06_08h21.41.015,HF_wild_card,2022.2.4,Linux x86_64,60.00960154,58ff27489ca116000122f93e,64ce5acb97489d65b14ecc7a,64cf49f0f9b448e22ecbd555,,,,,,,sngl,resources/Empty.png,resources/DG.BMP,Door3,0.361701643,-0.036829917,1,0,0,0.91,optionRight,70,4080,2,39,0,39,0,1,,,,,,,,,,,,,,,,,,,,,,,,,,,,,,,,,,,,,,,
,,,,,,,,2023-08-06_08h21.41.015,HF_wild_card,2022.2.4,Linux x86_64,60.00960154,58ff27489ca116000122f93e,64ce5acb97489d65b14ecc7a,64cf49f0f9b448e22ecbd555,,,,,,,decisionTrl,resources/DB.BMP,resources/DP.BMP,Door2,-0.278069724,-0.054802335,1,0,0,0.7265,optionLeft,40,4120,2,40,0,40,0,1,,,,,,,,,,,,,,,,,,,,,,,,,,,,,,,,,,,,,,,
,,,,,,,,2023-08-06_08h21.41.015,HF_wild_card,2022.2.4,Linux x86_64,60.00960154,58ff27489ca116000122f93e,64ce5acb97489d65b14ecc7a,64cf49f0f9b448e22ecbd555,,,,,,,sngl,resources/Empty.png,resources/DR.BMP,WildCard_NonEx,0.265851518,0.013902906,1,0,0,1.3601,optionRight,55,4175,2,41,0,41,0,1,,,,,,,,,,,,,,,,,,,,,,,,,,,,,,,,,,,,,,,
,,,,,,,,2023-08-06_08h21.41.015,HF_wild_card,2022.2.4,Linux x86_64,60.00960154,58ff27489ca116000122f93e,64ce5acb97489d65b14ecc7a,64cf49f0f9b448e22ecbd555,,,,,,,sngl,resources/Empty.png,resources/DR.BMP,WildCard_NonEx,0.305926327,-0.032068709,1,0,0,1.076,optionRight,45,4220,2,42,0,42,0,1,,,,,,,,,,,,,,,,,,,,,,,,,,,,,,,,,,,,,,,
,,,,,,,,2023-08-06_08h21.41.015,HF_wild_card,2022.2.4,Linux x86_64,60.00960154,58ff27489ca116000122f93e,64ce5acb97489d65b14ecc7a,64cf49f0f9b448e22ecbd555,,,,,,,decisionTrl,resources/DB.BMP,resources/DP.BMP,Door2,-0.295327988,-0.033791412,1,0,0,0.8098,optionLeft,20,4240,2,43,0,43,0,1,,,,,,,,,,,,,,,,,,,,,,,,,,,,,,,,,,,,,,,
,,,,,,,,2023-08-06_08h21.41.015,HF_wild_card,2022.2.4,Linux x86_64,60.00960154,58ff27489ca116000122f93e,64ce5acb97489d65b14ecc7a,64cf49f0f9b448e22ecbd555,,,,,,,,,,,,,,,,,,,,,,,,,,1,0,1,0,1,,,,,,,,,,,,,,,,,,,,,,,,,,,,,,,,,,
,,,,,,,,2023-08-06_08h21.41.015,HF_wild_card,2022.2.4,Linux x86_64,60.00960154,58ff27489ca116000122f93e,64ce5acb97489d65b14ecc7a,64cf49f0f9b448e22ecbd555,,,,,,,sngl,resources/Empty.png,resources/DB.BMP,Door2,0.284490093,-0.065277494,1,0,0,1.1972,optionRight,20,4260,3,0,0,0,0,1,,,,,,,,,,,,,,,,,,,,,,,,,,,,,,,,,,,,,,,
,,,,,,,,2023-08-06_08h21.41.015,HF_wild_card,2022.2.4,Linux x86_64,60.00960154,58ff27489ca116000122f93e,64ce5acb97489d65b14ecc7a,64cf49f0f9b448e22ecbd555,,,,,,,sngl,resources/Empty.png,resources/DR.BMP,WildCard_NonEx,0.284806301,-0.036664148,1,0,0,0.8278,optionRight,55,4315,3,1,0,1,0,1,,,,,,,,,,,,,,,,,,,,,,,,,,,,,,,,,,,,,,,
,,,,,,,,2023-08-06_08h21.41.015,HF_wild_card,2022.2.4,Linux x86_64,60.00960154,58ff27489ca116000122f93e,64ce5acb97489d65b14ecc7a,64cf49f0f9b448e22ecbd555,,,,,,,sngl,resources/DR.BMP,resources/Empty.png,WildCard_NonEx,-0.296984964,-0.012566437,1,0,0,0.8784,optionLeft,45,4360,3,2,0,2,0,1,,,,,,,,,,,,,,,,,,,,,,,,,,,,,,,,,,,,,,,
,,,,,,,,2023-08-06_08h21.41.015,HF_wild_card,2022.2.4,Linux x86_64,60.00960154,58ff27489ca116000122f93e,64ce5acb97489d65b14ecc7a,64cf49f0f9b448e22ecbd555,,,,,,,decisionTrl,resources/DP.BMP,resources/DB.BMP,Door1,-0.280085819,-0.004383642,1,0,0,1.0667,optionLeft,30,4390,3,3,0,3,0,1,,,,,,,,,,,,,,,,,,,,,,,,,,,,,,,,,,,,,,,
,,,,,,,,2023-08-06_08h21.41.015,HF_wild_card,2022.2.4,Linux x86_64,60.00960154,58ff27489ca116000122f93e,64ce5acb97489d65b14ecc7a,64cf49f0f9b448e22ecbd555,,,,,,,decisionTrl,resources/DP.BMP,resources/DR.BMP,Door1,-0.297303034,0.011871445,1,0,0,1.0782,optionLeft,30,4420,3,4,0,4,0,1,,,,,,,,,,,,,,,,,,,,,,,,,,,,,,,,,,,,,,,
,,,,,,,,2023-08-06_08h21.41.015,HF_wild_card,2022.2.4,Linux x86_64,60.00960154,58ff27489ca116000122f93e,64ce5acb97489d65b14ecc7a,64cf49f0f9b448e22ecbd555,,,,,,,ctch,resources/DG.BMP,resources/DB.BMP,Door3,-0.248831449,-0.002432022,1,0,0,1.0443,optionLeft,70,4490,3,5,0,5,0,1,,,,,,,,,,,,,,,,,,,,,,,,,,,,,,,,,,,,,,,
,,,,,,,,2023-08-06_08h21.41.015,HF_wild_card,2022.2.4,Linux x86_64,60.00960154,58ff27489ca116000122f93e,64ce5acb97489d65b14ecc7a,64cf49f0f9b448e22ecbd555,,,,,,,ctch,resources/DY.BMP,resources/DP.BMP,Door1,0.365153425,-0.043724382,1,0,0,0.7113,optionRight,30,4520,3,6,0,6,0,1,,,,,,,,,,,,,,,,,,,,,,,,,,,,,,,,,,,,,,,
,,,,,,,,2023-08-06_08h21.41.015,HF_wild_card,2022.2.4,Linux x86_64,60.00960154,58ff27489ca116000122f93e,64ce5acb97489d65b14ecc7a,64cf49f0f9b448e22ecbd555,,,,,,,ctch,resources/DP.BMP,resources/DY.BMP,Door4,0.331219884,-0.048807529,1,0,0,1.5277,optionRight,60,4580,3,7,0,7,0,1,,,,,,,,,,,,,,,,,,,,,,,,,,,,,,,,,,,,,,,
,,,,,,,,2023-08-06_08h21.41.015,HF_wild_card,2022.2.4,Linux x86_64,60.00960154,58ff27489ca116000122f93e,64ce5acb97489d65b14ecc7a,64cf49f0f9b448e22ecbd555,,,,,,,sngl,resources/Empty.png,resources/DR.BMP,WildCard_NonEx,0.269358747,-0.027433333,1,0,0,1.0101,optionRight,45,4625,3,8,0,8,0,1,,,,,,,,,,,,,,,,,,,,,,,,,,,,,,,,,,,,,,,
,,,,,,,,2023-08-06_08h21.41.015,HF_wild_card,2022.2.4,Linux x86_64,60.00960154,58ff27489ca116000122f93e,64ce5acb97489d65b14ecc7a,64cf49f0f9b448e22ecbd555,,,,,,,ctch,resources/DP.BMP,resources/DY.BMP,Door1,-0.405215769,-0.003638218,1,0,0,0.678,optionLeft,30,4655,3,9,0,9,0,1,,,,,,,,,,,,,,,,,,,,,,,,,,,,,,,,,,,,,,,
,,,,,,,,2023-08-06_08h21.41.015,HF_wild_card,2022.2.4,Linux x86_64,60.00960154,58ff27489ca116000122f93e,64ce5acb97489d65b14ecc7a,64cf49f0f9b448e22ecbd555,,,,,,,sngl,resources/Empty.png,resources/DG.BMP,Door3,0.271984906,-0.020369337,1,0,0,0.9946,optionRight,70,4725,3,10,0,10,0,1,,,,,,,,,,,,,,,,,,,,,,,,,,,,,,,,,,,,,,,
,,,,,,,,2023-08-06_08h21.41.015,HF_wild_card,2022.2.4,Linux x86_64,60.00960154,58ff27489ca116000122f93e,64ce5acb97489d65b14ecc7a,64cf49f0f9b448e22ecbd555,,,,,,,decisionTrl,resources/DY.BMP,resources/DG.BMP,Door3,0.290206909,-0.034102641,1,0,0,0.9114,optionRight,70,4795,3,11,0,11,0,1,,,,,,,,,,,,,,,,,,,,,,,,,,,,,,,,,,,,,,,
,,,,,,,,2023-08-06_08h21.41.015,HF_wild_card,2022.2.4,Linux x86_64,60.00960154,58ff27489ca116000122f93e,64ce5acb97489d65b14ecc7a,64cf49f0f9b448e22ecbd555,,,,,,,decisionTrl,resources/DB.BMP,resources/DR.BMP,Door2,-0.320345489,-0.053912024,1,0,0,0.9285,optionLeft,40,4835,3,12,0,12,0,1,,,,,,,,,,,,,,,,,,,,,,,,,,,,,,,,,,,,,,,
,,,,,,,,2023-08-06_08h21.41.015,HF_wild_card,2022.2.4,Linux x86_64,60.00960154,58ff27489ca116000122f93e,64ce5acb97489d65b14ecc7a,64cf49f0f9b448e22ecbd555,,,,,,,decisionTrl,resources/DY.BMP,resources/DG.BMP,Door4,-0.194523628,-0.021072316,1,0,0,0.7107,optionLeft,60,4895,3,13,0,13,0,1,,,,,,,,,,,,,,,,,,,,,,,,,,,,,,,,,,,,,,,
,,,,,,,,2023-08-06_08h21.41.015,HF_wild_card,2022.2.4,Linux x86_64,60.00960154,58ff27489ca116000122f93e,64ce5acb97489d65b14ecc7a,64cf49f0f9b448e22ecbd555,,,,,,,sngl,resources/DP.BMP,resources/Empty.png,Door1,-0.14930238,-0.00290397,1,0,0,1.0243,optionLeft,30,4925,3,14,0,14,0,1,,,,,,,,,,,,,,,,,,,,,,,,,,,,,,,,,,,,,,,
,,,,,,,,2023-08-06_08h21.41.015,HF_wild_card,2022.2.4,Linux x86_64,60.00960154,58ff27489ca116000122f93e,64ce5acb97489d65b14ecc7a,64cf49f0f9b448e22ecbd555,,,,,,,ctch,resources/DB.BMP,resources/DG.BMP,Door2,-0.223543624,0.015053906,1,0,0,0.9608,optionLeft,20,4945,3,15,0,15,0,1,,,,,,,,,,,,,,,,,,,,,,,,,,,,,,,,,,,,,,,
,,,,,,,,2023-08-06_08h21.41.015,HF_wild_card,2022.2.4,Linux x86_64,60.00960154,58ff27489ca116000122f93e,64ce5acb97489d65b14ecc7a,64cf49f0f9b448e22ecbd555,,,,,,,sngl,resources/DR.BMP,resources/Empty.png,WildCard_NonEx,-0.261113628,-0.00112915,1,0,0,1.0455,optionLeft,55,5000,3,16,0,16,0,1,,,,,,,,,,,,,,,,,,,,,,,,,,,,,,,,,,,,,,,
,,,,,,,,2023-08-06_08h21.41.015,HF_wild_card,2022.2.4,Linux x86_64,60.00960154,58ff27489ca116000122f93e,64ce5acb97489d65b14ecc7a,64cf49f0f9b448e22ecbd555,,,,,,,decisionTrl,resources/DR.BMP,resources/DY.BMP,Door4,0.387008166,-0.027841738,1,0,0,0.928,optionRight,60,5060,3,17,0,17,0,1,,,,,,,,,,,,,,,,,,,,,,,,,,,,,,,,,,,,,,,
,,,,,,,,2023-08-06_08h21.41.015,HF_wild_card,2022.2.4,Linux x86_64,60.00960154,58ff27489ca116000122f93e,64ce5acb97489d65b14ecc7a,64cf49f0f9b448e22ecbd555,,,,,,,decisionTrl,resources/DY.BMP,resources/DG.BMP,Door3,0.295489244,-0.049285316,1,0,0,0.9099,optionRight,70,5130,3,18,0,18,0,1,,,,,,,,,,,,,,,,,,,,,,,,,,,,,,,,,,,,,,,
,,,,,,,,2023-08-06_08h21.41.015,HF_wild_card,2022.2.4,Linux x86_64,60.00960154,58ff27489ca116000122f93e,64ce5acb97489d65b14ecc7a,64cf49f0f9b448e22ecbd555,,,,,,,ctch,resources/DY.BMP,resources/DP.BMP,Door4,-0.449044635,-0.02466071,1,0,0,0.6766,optionLeft,60,5190,3,19,0,19,0,1,,,,,,,,,,,,,,,,,,,,,,,,,,,,,,,,,,,,,,,
,,,,,,,,2023-08-06_08h21.41.015,HF_wild_card,2022.2.4,Linux x86_64,60.00960154,58ff27489ca116000122f93e,64ce5acb97489d65b14ecc7a,64cf49f0f9b448e22ecbd555,,,,,,,decisionTrl,resources/DR.BMP,resources/DP.BMP,WildCard_NonEx,-0.298578683,-0.025687168,1,0,0,0.7936,optionLeft,45,5235,3,20,0,20,0,1,,,,,,,,,,,,,,,,,,,,,,,,,,,,,,,,,,,,,,,
,,,,,,,,2023-08-06_08h21.41.015,HF_wild_card,2022.2.4,Linux x86_64,60.00960154,58ff27489ca116000122f93e,64ce5acb97489d65b14ecc7a,64cf49f0f9b448e22ecbd555,,,,,,,sngl,resources/Empty.png,resources/DP.BMP,Door1,0.394208595,-0.046691321,1,0,0,0.6105,optionRight,30,5265,3,21,0,21,0,1,,,,,,,,,,,,,,,,,,,,,,,,,,,,,,,,,,,,,,,
,,,,,,,,2023-08-06_08h21.41.015,HF_wild_card,2022.2.4,Linux x86_64,60.00960154,58ff27489ca116000122f93e,64ce5acb97489d65b14ecc7a,64cf49f0f9b448e22ecbd555,,,,,,,decisionTrl,resources/DR.BMP,resources/DB.BMP,WildCard_NonEx,-0.278095657,-0.002824774,1,0,0,0.6437,optionLeft,45,5310,3,22,0,22,0,1,,,,,,,,,,,,,,,,,,,,,,,,,,,,,,,,,,,,,,,
,,,,,,,,2023-08-06_08h21.41.015,HF_wild_card,2022.2.4,Linux x86_64,60.00960154,58ff27489ca116000122f93e,64ce5acb97489d65b14ecc7a,64cf49f0f9b448e22ecbd555,,,,,,,ctch,resources/DB.BMP,resources/DG.BMP,Door2,-0.271834396,-0.026948633,1,0,0,0.6606,optionLeft,40,5350,3,23,0,23,0,1,,,,,,,,,,,,,,,,,,,,,,,,,,,,,,,,,,,,,,,
,,,,,,,,2023-08-06_08h21.41.015,HF_wild_card,2022.2.4,Linux x86_64,60.00960154,58ff27489ca116000122f93e,64ce5acb97489d65b14ecc7a,64cf49f0f9b448e22ecbd555,,,,,,,sngl,resources/Empty.png,resources/DY.BMP,Door4,0.145398279,-0.03292467,1,0,0,1.0277,optionRight,60,5410,3,24,0,24,0,1,,,,,,,,,,,,,,,,,,,,,,,,,,,,,,,,,,,,,,,
,,,,,,,,2023-08-06_08h21.41.015,HF_wild_card,2022.2.4,Linux x86_64,60.00960154,58ff27489ca116000122f93e,64ce5acb97489d65b14ecc7a,64cf49f0f9b448e22ecbd555,,,,,,,sngl,resources/DB.BMP,resources/Empty.png,Door2,-0.219877861,-0.001829658,1,0,0,1.6595,optionLeft,40,5450,3,25,0,25,0,1,,,,,,,,,,,,,,,,,,,,,,,,,,,,,,,,,,,,,,,
,,,,,,,,2023-08-06_08h21.41.015,HF_wild_card,2022.2.4,Linux x86_64,60.00960154,58ff27489ca116000122f93e,64ce5acb97489d65b14ecc7a,64cf49f0f9b448e22ecbd555,,,,,,,decisionTrl,resources/DY.BMP,resources/DR.BMP,WildCard_NonEx,0.354157784,0.012151906,1,0,0,0.7939,optionRight,45,5495,3,26,0,26,0,1,,,,,,,,,,,,,,,,,,,,,,,,,,,,,,,,,,,,,,,
,,,,,,,,2023-08-06_08h21.41.015,HF_wild_card,2022.2.4,Linux x86_64,60.00960154,58ff27489ca116000122f93e,64ce5acb97489d65b14ecc7a,64cf49f0f9b448e22ecbd555,,,,,,,decisionTrl,resources/DB.BMP,resources/DP.BMP,Door2,-0.336674184,-0.001932601,1,0,0,0.7605,optionLeft,40,5535,3,27,0,27,0,1,,,,,,,,,,,,,,,,,,,,,,,,,,,,,,,,,,,,,,,
,,,,,,,,2023-08-06_08h21.41.015,HF_wild_card,2022.2.4,Linux x86_64,60.00960154,58ff27489ca116000122f93e,64ce5acb97489d65b14ecc7a,64cf49f0f9b448e22ecbd555,,,,,,,sngl,resources/DG.BMP,resources/Empty.png,Door3,-0.304757024,-0.024426062,1,0,0,0.9427,optionLeft,70,5605,3,28,0,28,0,1,,,,,,,,,,,,,,,,,,,,,,,,,,,,,,,,,,,,,,,
,,,,,,,,2023-08-06_08h21.41.015,HF_wild_card,2022.2.4,Linux x86_64,60.00960154,58ff27489ca116000122f93e,64ce5acb97489d65b14ecc7a,64cf49f0f9b448e22ecbd555,,,,,,,decisionTrl,resources/DB.BMP,resources/DP.BMP,Door1,0.250177446,-0.020875313,1,0,0,1.2437,optionRight,30,5635,3,29,0,29,0,1,,,,,,,,,,,,,,,,,,,,,,,,,,,,,,,,,,,,,,,
,,,,,,,,2023-08-06_08h21.41.015,HF_wild_card,2022.2.4,Linux x86_64,60.00960154,58ff27489ca116000122f93e,64ce5acb97489d65b14ecc7a,64cf49f0f9b448e22ecbd555,,,,,,,decisionTrl,resources/DP.BMP,resources/DB.BMP,Door1,-0.234746297,0.008456808,1,0,0,0.8268,optionLeft,30,5665,3,30,0,30,0,1,,,,,,,,,,,,,,,,,,,,,,,,,,,,,,,,,,,,,,,
,,,,,,,,2023-08-06_08h21.41.015,HF_wild_card,2022.2.4,Linux x86_64,60.00960154,58ff27489ca116000122f93e,64ce5acb97489d65b14ecc7a,64cf49f0f9b448e22ecbd555,,,,,,,decisionTrl,resources/DR.BMP,resources/DG.BMP,WildCard_NonEx,-0.296591244,0.000503468,1,0,0,0.8428,optionLeft,45,5710,3,31,0,31,0,1,,,,,,,,,,,,,,,,,,,,,,,,,,,,,,,,,,,,,,,
,,,,,,,,2023-08-06_08h21.41.015,HF_wild_card,2022.2.4,Linux x86_64,60.00960154,58ff27489ca116000122f93e,64ce5acb97489d65b14ecc7a,64cf49f0f9b448e22ecbd555,,,,,,,decisionTrl,resources/DP.BMP,resources/DB.BMP,Door1,-0.311690962,0.024311442,1,0,0,0.7413,optionLeft,30,5740,3,32,0,32,0,1,,,,,,,,,,,,,,,,,,,,,,,,,,,,,,,,,,,,,,,
,,,,,,,,2023-08-06_08h21.41.015,HF_wild_card,2022.2.4,Linux x86_64,60.00960154,58ff27489ca116000122f93e,64ce5acb97489d65b14ecc7a,64cf49f0f9b448e22ecbd555,,,,,,,decisionTrl,resources/DG.BMP,resources/DR.BMP,Door3,-0.274560991,0.019450622,1,0,0,0.8762,optionLeft,70,5810,3,33,0,33,0,1,,,,,,,,,,,,,,,,,,,,,,,,,,,,,,,,,,,,,,,
,,,,,,,,2023-08-06_08h21.41.015,HF_wild_card,2022.2.4,Linux x86_64,60.00960154,58ff27489ca116000122f93e,64ce5acb97489d65b14ecc7a,64cf49f0f9b448e22ecbd555,,,,,,,decisionTrl,resources/DG.BMP,resources/DY.BMP,Door4,0.321293074,0.010915873,1,0,0,0.9933,optionRight,80,5890,3,34,0,34,0,1,,,,,,,,,,,,,,,,,,,,,,,,,,,,,,,,,,,,,,,
,,,,,,,,2023-08-06_08h21.41.015,HF_wild_card,2022.2.4,Linux x86_64,60.00960154,58ff27489ca116000122f93e,64ce5acb97489d65b14ecc7a,64cf49f0f9b448e22ecbd555,,,,,,,decisionTrl,resources/DB.BMP,resources/DP.BMP,Door1,0.349853659,-0.015988023,1,0,0,3.0782,optionRight,30,5920,3,35,0,35,0,1,,,,,,,,,,,,,,,,,,,,,,,,,,,,,,,,,,,,,,,
,,,,,,,,2023-08-06_08h21.41.015,HF_wild_card,2022.2.4,Linux x86_64,60.00960154,58ff27489ca116000122f93e,64ce5acb97489d65b14ecc7a,64cf49f0f9b448e22ecbd555,,,,,,,decisionTrl,resources/DG.BMP,resources/DY.BMP,Door3,-0.283265879,-0.03646607,1,0,0,1.1607,optionLeft,70,5990,3,36,0,36,0,1,,,,,,,,,,,,,,,,,,,,,,,,,,,,,,,,,,,,,,,
,,,,,,,,2023-08-06_08h21.41.015,HF_wild_card,2022.2.4,Linux x86_64,60.00960154,58ff27489ca116000122f93e,64ce5acb97489d65b14ecc7a,64cf49f0f9b448e22ecbd555,,,,,,,decisionTrl,resources/DG.BMP,resources/DY.BMP,Door3,-0.325455751,0.003358939,1,0,0,1.3135,optionLeft,70,6060,3,37,0,37,0,1,,,,,,,,,,,,,,,,,,,,,,,,,,,,,,,,,,,,,,,
,,,,,,,,2023-08-06_08h21.41.015,HF_wild_card,2022.2.4,Linux x86_64,60.00960154,58ff27489ca116000122f93e,64ce5acb97489d65b14ecc7a,64cf49f0f9b448e22ecbd555,,,,,,,decisionTrl,resources/DB.BMP,resources/DP.BMP,Door1,0.311864719,-0.047863884,1,0,0,1.0603,optionRight,30,6090,3,38,0,38,0,1,,,,,,,,,,,,,,,,,,,,,,,,,,,,,,,,,,,,,,,
,,,,,,,,2023-08-06_08h21.41.015,HF_wild_card,2022.2.4,Linux x86_64,60.00960154,58ff27489ca116000122f93e,64ce5acb97489d65b14ecc7a,64cf49f0f9b448e22ecbd555,,,,,,,decisionTrl,resources/DP.BMP,resources/DB.BMP,Door1,-0.232982295,-0.012463923,1,0,0,0.9964,optionLeft,30,6120,3,39,0,39,0,1,,,,,,,,,,,,,,,,,,,,,,,,,,,,,,,,,,,,,,,
,,,,,,,,2023-08-06_08h21.41.015,HF_wild_card,2022.2.4,Linux x86_64,60.00960154,58ff27489ca116000122f93e,64ce5acb97489d65b14ecc7a,64cf49f0f9b448e22ecbd555,,,,,,,ctch,resources/DG.BMP,resources/DB.BMP,Door3,-0.264132719,-0.023116886,1,0,0,1.0767,optionLeft,70,6190,3,40,0,40,0,1,,,,,,,,,,,,,,,,,,,,,,,,,,,,,,,,,,,,,,,
,,,,,,,,2023-08-06_08h21.41.015,HF_wild_card,2022.2.4,Linux x86_64,60.00960154,58ff27489ca116000122f93e,64ce5acb97489d65b14ecc7a,64cf49f0f9b448e22ecbd555,,,,,,,decisionTrl,resources/DG.BMP,resources/DY.BMP,Door4,0.328151792,-0.056114304,1,0,0,1.4435,optionRight,80,6270,3,41,0,41,0,1,,,,,,,,,,,,,,,,,,,,,,,,,,,,,,,,,,,,,,,
,,,,,,,,2023-08-06_08h21.41.015,HF_wild_card,2022.2.4,Linux x86_64,60.00960154,58ff27489ca116000122f93e,64ce5acb97489d65b14ecc7a,64cf49f0f9b448e22ecbd555,,,,,,,decisionTrl,resources/DY.BMP,resources/DG.BMP,Door4,-0.277795496,-0.009065977,1,0,0,1.1315,optionLeft,80,6350,3,42,0,42,0,1,,,,,,,,,,,,,,,,,,,,,,,,,,,,,,,,,,,,,,,
,,,,,,,,2023-08-06_08h21.41.015,HF_wild_card,2022.2.4,Linux x86_64,60.00960154,58ff27489ca116000122f93e,64ce5acb97489d65b14ecc7a,64cf49f0f9b448e22ecbd555,,,,,,,sngl,resources/DY.BMP,resources/Empty.png,Door4,-0.255861452,0.018442682,1,0,0,1.36,optionLeft,80,6430,3,43,0,43,0,1,,,,,,,,,,,,,,,,,,,,,,,,,,,,,,,,,,,,,,,
,,,,,,,,2023-08-06_08h21.41.015,HF_wild_card,2022.2.4,Linux x86_64,60.00960154,58ff27489ca116000122f93e,64ce5acb97489d65b14ecc7a,64cf49f0f9b448e22ecbd555,,,,,,,,,,,,,,,,,,,,,,,,,,2,0,2,0,1,,,,,,,,,,,,,,,,,,,,,,,,,,,,,,,,,,
,,,,,,,,2023-08-06_08h21.41.015,HF_wild_card,2022.2.4,Linux x86_64,60.00960154,58ff27489ca116000122f93e,64ce5acb97489d65b14ecc7a,64cf49f0f9b448e22ecbd555,,,,,,,sngl,resources/Empty.png,resources/DB.BMP,Door2,0.415594396,-0.026611722,1,0,0,1.9099,optionRight,40,6470,4,0,0,0,0,1,,,,,,,,,,,,,,,,,,,,,,,,,,,,,,,,,,,,,,,
,,,,,,,,2023-08-06_08h21.41.015,HF_wild_card,2022.2.4,Linux x86_64,60.00960154,58ff27489ca116000122f93e,64ce5acb97489d65b14ecc7a,64cf49f0f9b448e22ecbd555,,,,,,,decisionTrl,resources/DB.BMP,resources/DBN.BMP,WildCard_Ex,0.405693377,-0.011993265,1,0,0,1.543,optionRight,45,6515,4,1,0,1,0,1,,,,,,,,,,,,,,,,,,,,,,,,,,,,,,,,,,,,,,,
,,,,,,,,2023-08-06_08h21.41.015,HF_wild_card,2022.2.4,Linux x86_64,60.00960154,58ff27489ca116000122f93e,64ce5acb97489d65b14ecc7a,64cf49f0f9b448e22ecbd555,,,,,,,decisionTrl,resources/DB.BMP,resources/DP.BMP,Door2,-0.323918517,-0.032284123,1,0,0,0.8621,optionLeft,20,6535,4,2,0,2,0,1,,,,,,,,,,,,,,,,,,,,,,,,,,,,,,,,,,,,,,,
,,,,,,,,2023-08-06_08h21.41.015,HF_wild_card,2022.2.4,Linux x86_64,60.00960154,58ff27489ca116000122f93e,64ce5acb97489d65b14ecc7a,64cf49f0f9b448e22ecbd555,,,,,,,decisionTrl,resources/DP.BMP,resources/DB.BMP,Door1,-0.161477962,-0.007340301,1,0,0,0.7085,optionLeft,30,6565,4,3,0,3,0,1,,,,,,,,,,,,,,,,,,,,,,,,,,,,,,,,,,,,,,,
,,,,,,,,2023-08-06_08h21.41.015,HF_wild_card,2022.2.4,Linux x86_64,60.00960154,58ff27489ca116000122f93e,64ce5acb97489d65b14ecc7a,64cf49f0f9b448e22ecbd555,,,,,,,sngl,resources/DBN.BMP,resources/Empty.png,WildCard_Ex,-0.359979943,0.008390256,1,0,0,0.9918,optionLeft,55,6620,4,4,0,4,0,1,,,,,,,,,,,,,,,,,,,,,,,,,,,,,,,,,,,,,,,
,,,,,,,,2023-08-06_08h21.41.015,HF_wild_card,2022.2.4,Linux x86_64,60.00960154,58ff27489ca116000122f93e,64ce5acb97489d65b14ecc7a,64cf49f0f9b448e22ecbd555,,,,,,,ctch,resources/DP.BMP,resources/DY.BMP,Door4,0.381871326,-0.039866416,1,0,0,0.9101,optionRight,60,6680,4,5,0,5,0,1,,,,,,,,,,,,,,,,,,,,,,,,,,,,,,,,,,,,,,,
,,,,,,,,2023-08-06_08h21.41.015,HF_wild_card,2022.2.4,Linux x86_64,60.00960154,58ff27489ca116000122f93e,64ce5acb97489d65b14ecc7a,64cf49f0f9b448e22ecbd555,,,,,,,decisionTrl,resources/DY.BMP,resources/DBN.BMP,Door4,-0.30711465,0.013053213,1,0,0,1.2095,optionLeft,80,6760,4,6,0,6,0,1,,,,,,,,,,,,,,,,,,,,,,,,,,,,,,,,,,,,,,,
,,,,,,,,2023-08-06_08h21.41.015,HF_wild_card,2022.2.4,Linux x86_64,60.00960154,58ff27489ca116000122f93e,64ce5acb97489d65b14ecc7a,64cf49f0f9b448e22ecbd555,,,,,,,decisionTrl,resources/DP.BMP,resources/DB.BMP,Door1,-0.346293848,-0.023340718,1,0,0,1.2945,optionLeft,30,6790,4,7,0,7,0,1,,,,,,,,,,,,,,,,,,,,,,,,,,,,,,,,,,,,,,,
,,,,,,,,2023-08-06_08h21.41.015,HF_wild_card,2022.2.4,Linux x86_64,60.00960154,58ff27489ca116000122f93e,64ce5acb97489d65b14ecc7a,64cf49f0f9b448e22ecbd555,,,,,,,decisionTrl,resources/DG.BMP,resources/DY.BMP,Door4,0.310233174,-0.009370043,1,0,0,0.9931,optionRight,60,6850,4,8,0,8,0,1,,,,,,,,,,,,,,,,,,,,,,,,,,,,,,,,,,,,,,,
,,,,,,,,2023-08-06_08h21.41.015,HF_wild_card,2022.2.4,Linux x86_64,60.00960154,58ff27489ca116000122f93e,64ce5acb97489d65b14ecc7a,64cf49f0f9b448e22ecbd555,,,,,,,sngl,resources/DP.BMP,resources/Empty.png,Door1,-0.276997669,-0.051611887,1,0,0,0.8229,optionLeft,30,6880,4,9,0,9,0,1,,,,,,,,,,,,,,,,,,,,,,,,,,,,,,,,,,,,,,,
,,,,,,,,2023-08-06_08h21.41.015,HF_wild_card,2022.2.4,Linux x86_64,60.00960154,58ff27489ca116000122f93e,64ce5acb97489d65b14ecc7a,64cf49f0f9b448e22ecbd555,,,,,,,ctch,resources/DY.BMP,resources/DP.BMP,Door1,0.241785685,-0.020995234,1,0,0,0.9657,optionRight,30,6910,4,10,0,10,0,1,,,,,,,,,,,,,,,,,,,,,,,,,,,,,,,,,,,,,,,
,,,,,,,,2023-08-06_08h21.41.015,HF_wild_card,2022.2.4,Linux x86_64,60.00960154,58ff27489ca116000122f93e,64ce5acb97489d65b14ecc7a,64cf49f0f9b448e22ecbd555,,,,,,,decisionTrl,resources/DBN.BMP,resources/DB.BMP,WildCard_Ex,-0.310527103,-0.04541818,1,0,0,0.7913,optionLeft,45,6955,4,11,0,11,0,1,,,,,,,,,,,,,,,,,,,,,,,,,,,,,,,,,,,,,,,
,,,,,,,,2023-08-06_08h21.41.015,HF_wild_card,2022.2.4,Linux x86_64,60.00960154,58ff27489ca116000122f93e,64ce5acb97489d65b14ecc7a,64cf49f0f9b448e22ecbd555,,,,,,,decisionTrl,resources/DG.BMP,resources/DY.BMP,Door3,-0.229000253,-0.018379211,1,0,0,0.6939,optionLeft,70,7025,4,12,0,12,0,1,,,,,,,,,,,,,,,,,,,,,,,,,,,,,,,,,,,,,,,
,,,,,,,,2023-08-06_08h21.41.015,HF_wild_card,2022.2.4,Linux x86_64,60.00960154,58ff27489ca116000122f93e,64ce5acb97489d65b14ecc7a,64cf49f0f9b448e22ecbd555,,,,,,,decisionTrl,resources/DY.BMP,resources/DG.BMP,Door4,-0.240705033,-0.017865212,1,0,0,2.9263,optionLeft,80,7105,4,13,0,13,0,1,,,,,,,,,,,,,,,,,,,,,,,,,,,,,,,,,,,,,,,
,,,,,,,,2023-08-06_08h21.41.015,HF_wild_card,2022.2.4,Linux x86_64,60.00960154,58ff27489ca116000122f93e,64ce5acb97489d65b14ecc7a,64cf49f0f9b448e22ecbd555,,,,,,,ctch,resources/DG.BMP,resources/DB.BMP,Door3,-0.243742034,0.001694227,1,0,0,1.6767,optionLeft,70,7175,4,14,0,14,0,1,,,,,,,,,,,,,,,,,,,,,,,,,,,,,,,,,,,,,,,
,,,,,,,,2023-08-06_08h21.41.015,HF_wild_card,2022.2.4,Linux x86_64,60.00960154,58ff27489ca116000122f93e,64ce5acb97489d65b14ecc7a,64cf49f0f9b448e22ecbd555,,,,,,,ctch,resources/DG.BMP,resources/DB.BMP,Door3,-0.263608476,-0.033628509,1,0,0,1.2928,optionLeft,70,7245,4,15,0,15,0,1,,,,,,,,,,,,,,,,,,,,,,,,,,,,,,,,,,,,,,,
,,,,,,,,2023-08-06_08h21.41.015,HF_wild_card,2022.2.4,Linux x86_64,60.00960154,58ff27489ca116000122f93e,64ce5acb97489d65b14ecc7a,64cf49f0f9b448e22ecbd555,,,,,,,decisionTrl,resources/DY.BMP,resources/DG.BMP,Door4,-0.173074642,-0.002641239,1,0,0,1.2623,optionLeft,80,7325,4,16,0,16,0,1,,,,,,,,,,,,,,,,,,,,,,,,,,,,,,,,,,,,,,,
,,,,,,,,2023-08-06_08h21.41.015,HF_wild_card,2022.2.4,Linux x86_64,60.00960154,58ff27489ca116000122f93e,64ce5acb97489d65b14ecc7a,64cf49f0f9b448e22ecbd555,,,,,,,decisionTrl,resources/DBN.BMP,resources/DP.BMP,WildCard_Ex,-0.245662206,0.000905391,1,0,0,0.843,optionLeft,45,7370,4,17,0,17,0,1,,,,,,,,,,,,,,,,,,,,,,,,,,,,,,,,,,,,,,,
,,,,,,,,2023-08-06_08h21.41.015,HF_wild_card,2022.2.4,Linux x86_64,60.00960154,58ff27489ca116000122f93e,64ce5acb97489d65b14ecc7a,64cf49f0f9b448e22ecbd555,,,,,,,sngl,resources/Empty.png,resources/DP.BMP,Door1,0.327546599,-0.059478867,1,0,0,0.9266,optionRight,30,7400,4,18,0,18,0,1,,,,,,,,,,,,,,,,,,,,,,,,,,,,,,,,,,,,,,,
,,,,,,,,2023-08-06_08h21.41.015,HF_wild_card,2022.2.4,Linux x86_64,60.00960154,58ff27489ca116000122f93e,64ce5acb97489d65b14ecc7a,64cf49f0f9b448e22ecbd555,,,,,,,decisionTrl,resources/DG.BMP,resources/DBN.BMP,Door3,-0.230636382,-0.021847434,1,0,0,0.8217,optionLeft,70,7470,4,19,0,19,0,1,,,,,,,,,,,,,,,,,,,,,,,,,,,,,,,,,,,,,,,
,,,,,,,,2023-08-06_08h21.41.015,HF_wild_card,2022.2.4,Linux x86_64,60.00960154,58ff27489ca116000122f93e,64ce5acb97489d65b14ecc7a,64cf49f0f9b448e22ecbd555,,,,,,,ctch,resources/DY.BMP,resources/DP.BMP,Door4,-0.366533844,-0.033985084,1,0,0,0.7434,optionLeft,80,7550,4,20,0,20,0,1,,,,,,,,,,,,,,,,,,,,,,,,,,,,,,,,,,,,,,,
,,,,,,,,2023-08-06_08h21.41.015,HF_wild_card,2022.2.4,Linux x86_64,60.00960154,58ff27489ca116000122f93e,64ce5acb97489d65b14ecc7a,64cf49f0f9b448e22ecbd555,,,,,,,sngl,resources/Empty.png,resources/DY.BMP,Door4,0.329212887,-0.037663455,1,0,0,0.8424,optionRight,80,7630,4,21,0,21,0,1,,,,,,,,,,,,,,,,,,,,,,,,,,,,,,,,,,,,,,,
,,,,,,,,2023-08-06_08h21.41.015,HF_wild_card,2022.2.4,Linux x86_64,60.00960154,58ff27489ca116000122f93e,64ce5acb97489d65b14ecc7a,64cf49f0f9b448e22ecbd555,,,,,,,sngl,resources/DY.BMP,resources/Empty.png,Door4,-0.266472114,-0.066283499,1,0,0,0.7589,optionLeft,60,7690,4,22,0,22,0,1,,,,,,,,,,,,,,,,,,,,,,,,,,,,,,,,,,,,,,,
,,,,,,,,2023-08-06_08h21.41.015,HF_wild_card,2022.2.4,Linux x86_64,60.00960154,58ff27489ca116000122f93e,64ce5acb97489d65b14ecc7a,64cf49f0f9b448e22ecbd555,,,,,,,decisionTrl,resources/DP.BMP,resources/DBN.BMP,Door1,-0.229931182,-0.032767211,1,0,0,0.96,optionLeft,30,7720,4,23,0,23,0,1,,,,,,,,,,,,,,,,,,,,,,,,,,,,,,,,,,,,,,,
,,,,,,,,2023-08-06_08h21.41.015,HF_wild_card,2022.2.4,Linux x86_64,60.00960154,58ff27489ca116000122f93e,64ce5acb97489d65b14ecc7a,64cf49f0f9b448e22ecbd555,,,,,,,sngl,resources/Empty.png,resources/DBN.BMP,WildCard_Ex,0.405689365,-0.020149518,1,0,0,4.893,optionRight,45,7765,4,24,0,24,0,1,,,,,,,,,,,,,,,,,,,,,,,,,,,,,,,,,,,,,,,
,,,,,,,,2023-08-06_08h21.41.015,HF_wild_card,2022.2.4,Linux x86_64,60.00960154,58ff27489ca116000122f93e,64ce5acb97489d65b14ecc7a,64cf49f0f9b448e22ecbd555,,,,,,,sngl,resources/Empty.png,resources/DG.BMP,Door3,0.335824169,-0.052367089,1,0,0,1.0097,optionRight,70,7835,4,25,0,25,0,1,,,,,,,,,,,,,,,,,,,,,,,,,,,,,,,,,,,,,,,
,,,,,,,,2023-08-06_08h21.41.015,HF_wild_card,2022.2.4,Linux x86_64,60.00960154,58ff27489ca116000122f93e,64ce5acb97489d65b14ecc7a,64cf49f0f9b448e22ecbd555,,,,,,,decisionTrl,resources/DY.BMP,resources/DG.BMP,Door4,-0.37447153,-0.026123119,1,0,0,1.052,optionLeft,80,7915,4,26,0,26,0,1,,,,,,,,,,,,,,,,,,,,,,,,,,,,,,,,,,,,,,,
,,,,,,,,2023-08-06_08h21.41.015,HF_wild_card,2022.2.4,Linux x86_64,60.00960154,58ff27489ca116000122f93e,64ce5acb97489d65b14ecc7a,64cf49f0f9b448e22ecbd555,,,,,,,decisionTrl,resources/DB.BMP,resources/DP.BMP,Door1,0.365847306,-0.031877079,1,0,0,2.2774,optionRight,30,7945,4,27,0,27,0,1,,,,,,,,,,,,,,,,,,,,,,,,,,,,,,,,,,,,,,,
,,,,,,,,2023-08-06_08h21.41.015,HF_wild_card,2022.2.4,Linux x86_64,60.00960154,58ff27489ca116000122f93e,64ce5acb97489d65b14ecc7a,64cf49f0f9b448e22ecbd555,,,,,,,decisionTrl,resources/DG.BMP,resources/DY.BMP,Door3,-0.300337671,0.04055539,1,0,0,2.5602,optionLeft,70,8015,4,28,0,28,0,1,,,,,,,,,,,,,,,,,,,,,,,,,,,,,,,,,,,,,,,
,,,,,,,,2023-08-06_08h21.41.015,HF_wild_card,2022.2.4,Linux x86_64,60.00960154,58ff27489ca116000122f93e,64ce5acb97489d65b14ecc7a,64cf49f0f9b448e22ecbd555,,,,,,,decisionTrl,resources/DB.BMP,resources/DP.BMP,Door1,0.359311816,-0.04257897,1,0,0,1.1435,optionRight,30,8045,4,29,0,29,0,1,,,,,,,,,,,,,,,,,,,,,,,,,,,,,,,,,,,,,,,
,,,,,,,,2023-08-06_08h21.41.015,HF_wild_card,2022.2.4,Linux x86_64,60.00960154,58ff27489ca116000122f93e,64ce5acb97489d65b14ecc7a,64cf49f0f9b448e22ecbd555,,,,,,,sngl,resources/DG.BMP,resources/Empty.png,Door3,-0.360867353,0.011049154,1,0,0,0.9271,optionLeft,70,8115,4,30,0,30,0,1,,,,,,,,,,,,,,,,,,,,,,,,,,,,,,,,,,,,,,,
,,,,,,,,2023-08-06_08h21.41.015,HF_wild_card,2022.2.4,Linux x86_64,60.00960154,58ff27489ca116000122f93e,64ce5acb97489d65b14ecc7a,64cf49f0f9b448e22ecbd555,,,,,,,sngl,resources/DB.BMP,resources/Empty.png,Door2,-0.187724942,0.033083705,1,0,0,2.643,optionLeft,20,8135,4,31,0,31,0,1,,,,,,,,,,,,,,,,,,,,,,,,,,,,,,,,,,,,,,,
,,,,,,,,2023-08-06_08h21.41.015,HF_wild_card,2022.2.4,Linux x86_64,60.00960154,58ff27489ca116000122f93e,64ce5acb97489d65b14ecc7a,64cf49f0f9b448e22ecbd555,,,,,,,decisionTrl,resources/DG.BMP,resources/DY.BMP,Door4,0.44821869,-0.075214332,1,0,0,1.0494,optionRight,80,8215,4,32,0,32,0,1,,,,,,,,,,,,,,,,,,,,,,,,,,,,,,,,,,,,,,,
,,,,,,,,2023-08-06_08h21.41.015,HF_wild_card,2022.2.4,Linux x86_64,60.00960154,58ff27489ca116000122f93e,64ce5acb97489d65b14ecc7a,64cf49f0f9b448e22ecbd555,,,,,,,ctch,resources/DB.BMP,resources/DG.BMP,Door2,-0.355173389,-0.009289486,1,0,0,0.811,optionLeft,20,8235,4,33,0,33,0,1,,,,,,,,,,,,,,,,,,,,,,,,,,,,,,,,,,,,,,,
,,,,,,,,2023-08-06_08h21.41.015,HF_wild_card,2022.2.4,Linux x86_64,60.00960154,58ff27489ca116000122f93e,64ce5acb97489d65b14ecc7a,64cf49f0f9b448e22ecbd555,,,,,,,decisionTrl,resources/DP.BMP,resources/DB.BMP,Door1,-0.316038248,0.007727502,1,0,0,0.9689,optionLeft,30,8265,4,34,0,34,0,1,,,,,,,,,,,,,,,,,,,,,,,,,,,,,,,,,,,,,,,
,,,,,,,,2023-08-06_08h21.41.015,HF_wild_card,2022.2.4,Linux x86_64,60.00960154,58ff27489ca116000122f93e,64ce5acb97489d65b14ecc7a,64cf49f0f9b448e22ecbd555,,,,,,,sngl,resources/DBN.BMP,resources/Empty.png,WildCard_Ex,-0.24435869,0.015026755,1,0,0,1.0592,optionLeft,45,8310,4,35,0,35,0,1,,,,,,,,,,,,,,,,,,,,,,,,,,,,,,,,,,,,,,,
,,,,,,,,2023-08-06_08h21.41.015,HF_wild_card,2022.2.4,Linux x86_64,60.00960154,58ff27489ca116000122f93e,64ce5acb97489d65b14ecc7a,64cf49f0f9b448e22ecbd555,,,,,,,ctch,resources/DP.BMP,resources/DY.BMP,Door4,0.278310355,-0.049011266,1,0,0,1.1924,optionRight,60,8370,4,36,0,36,0,1,,,,,,,,,,,,,,,,,,,,,,,,,,,,,,,,,,,,,,,
,,,,,,,,2023-08-06_08h21.41.015,HF_wild_card,2022.2.4,Linux x86_64,60.00960154,58ff27489ca116000122f93e,64ce5acb97489d65b14ecc7a,64cf49f0f9b448e22ecbd555,,,,,,,decisionTrl,resources/DB.BMP,resources/DP.BMP,Door2,-0.212266304,-0.016096697,1,0,0,0.6288,optionLeft,20,8390,4,37,0,37,0,1,,,,,,,,,,,,,,,,,,,,,,,,,,,,,,,,,,,,,,,
,,,,,,,,2023-08-06_08h21.41.015,HF_wild_card,2022.2.4,Linux x86_64,60.00960154,58ff27489ca116000122f93e,64ce5acb97489d65b14ecc7a,64cf49f0f9b448e22ecbd555,,,,,,,decisionTrl,resources/DBN.BMP,resources/DY.BMP,Door4,0.346784135,-0.043906342,1,0,0,1.3779,optionRight,60,8450,4,38,0,38,0,1,,,,,,,,,,,,,,,,,,,,,,,,,,,,,,,,,,,,,,,
,,,,,,,,2023-08-06_08h21.41.015,HF_wild_card,2022.2.4,Linux x86_64,60.00960154,58ff27489ca116000122f93e,64ce5acb97489d65b14ecc7a,64cf49f0f9b448e22ecbd555,,,,,,,ctch,resources/DB.BMP,resources/DG.BMP,Door2,-0.179312693,-0.006156814,1,0,0,0.9935,optionLeft,20,8470,4,39,0,39,0,1,,,,,,,,,,,,,,,,,,,,,,,,,,,,,,,,,,,,,,,
,,,,,,,,2023-08-06_08h21.41.015,HF_wild_card,2022.2.4,Linux x86_64,60.00960154,58ff27489ca116000122f93e,64ce5acb97489d65b14ecc7a,64cf49f0f9b448e22ecbd555,,,,,,,sngl,resources/Empty.png,resources/DBN.BMP,WildCard_Ex,0.280953779,-0.02496825,1,0,0,0.9767,optionRight,55,8525,4,40,0,40,0,1,,,,,,,,,,,,,,,,,,,,,,,,,,,,,,,,,,,,,,,
,,,,,,,,2023-08-06_08h21.41.015,HF_wild_card,2022.2.4,Linux x86_64,60.00960154,58ff27489ca116000122f93e,64ce5acb97489d65b14ecc7a,64cf49f0f9b448e22ecbd555,,,,,,,decisionTrl,resources/DY.BMP,resources/DG.BMP,Door3,0.174418705,-0.052633868,1,0,0,0.7429,optionRight,70,8595,4,41,0,41,0,1,,,,,,,,,,,,,,,,,,,,,,,,,,,,,,,,,,,,,,,
,,,,,,,,2023-08-06_08h21.41.015,HF_wild_card,2022.2.4,Linux x86_64,60.00960154,58ff27489ca116000122f93e,64ce5acb97489d65b14ecc7a,64cf49f0f9b448e22ecbd555,,,,,,,decisionTrl,resources/DP.BMP,resources/DB.BMP,Door2,0.252677309,-0.082657004,1,0,0,0.7767,optionRight,20,8615,4,42,0,42,0,1,,,,,,,,,,,,,,,,,,,,,,,,,,,,,,,,,,,,,,,
,,,,,,,,2023-08-06_08h21.41.015,HF_wild_card,2022.2.4,Linux x86_64,60.00960154,58ff27489ca116000122f93e,64ce5acb97489d65b14ecc7a,64cf49f0f9b448e22ecbd555,,,,,,,decisionTrl,resources/DBN.BMP,resources/DG.BMP,Door3,0.262738367,-0.098888737,1,0,0,0.7094,optionRight,70,8685,4,43,0,43,0,1,,,,,,,,,,,,,,,,,,,,,,,,,,,,,,,,,,,,,,,
,,,,,,,,2023-08-06_08h21.41.015,HF_wild_card,2022.2.4,Linux x86_64,60.00960154,58ff27489ca116000122f93e,64ce5acb97489d65b14ecc7a,64cf49f0f9b448e22ecbd555,,,,,,,,,,,,,,,,,,,,,,,,,,3,0,3,0,1,,,,,,,,,,,,,,,,,,,,,,,,,,,,,,,,,,
,,,,,,,,2023-08-06_08h21.41.015,HF_wild_card,2022.2.4,Linux x86_64,60.00960154,58ff27489ca116000122f93e,64ce5acb97489d65b14ecc7a,64cf49f0f9b448e22ecbd555,,,,,,,decisionTrl,resources/DP.BMP,resources/DB.BMP,Door1,-0.275825751,-0.098863163,1,0,0,0.8616,optionLeft,30,8715,5,0,0,0,0,1,,,,,,,,,,,,,,,,,,,,,,,,,,,,,,,,,,,,,,,
,,,,,,,,2023-08-06_08h21.41.015,HF_wild_card,2022.2.4,Linux x86_64,60.00960154,58ff27489ca116000122f93e,64ce5acb97489d65b14ecc7a,64cf49f0f9b448e22ecbd555,,,,,,,decisionTrl,resources/DG.BMP,resources/DY.BMP,Door3,-0.231049085,-0.021030372,1,0,0,0.9602,optionLeft,70,8785,5,1,0,1,0,1,,,,,,,,,,,,,,,,,,,,,,,,,,,,,,,,,,,,,,,
,,,,,,,,2023-08-06_08h21.41.015,HF_wild_card,2022.2.4,Linux x86_64,60.00960154,58ff27489ca116000122f93e,64ce5acb97489d65b14ecc7a,64cf49f0f9b448e22ecbd555,,,,,,,decisionTrl,resources/DY.BMP,resources/DG.BMP,Door4,-0.2551185,-0.005035293,1,0,0,1.0264,optionLeft,80,8865,5,2,0,2,0,1,,,,,,,,,,,,,,,,,,,,,,,,,,,,,,,,,,,,,,,
,,,,,,,,2023-08-06_08h21.41.015,HF_wild_card,2022.2.4,Linux x86_64,60.00960154,58ff27489ca116000122f93e,64ce5acb97489d65b14ecc7a,64cf49f0f9b448e22ecbd555,,,,,,,sngl,resources/Empty.png,resources/DB.BMP,Door2,0.245446219,-0.019770018,1,0,0,0.8775,optionRight,20,8885,5,3,0,3,0,1,,,,,,,,,,,,,,,,,,,,,,,,,,,,,,,,,,,,,,,
,,,,,,,,2023-08-06_08h21.41.015,HF_wild_card,2022.2.4,Linux x86_64,60.00960154,58ff27489ca116000122f93e,64ce5acb97489d65b14ecc7a,64cf49f0f9b448e22ecbd555,,,,,,,ctch,resources/DB.BMP,resources/DG.BMP,Door2,-0.263606971,0.019649703,1,0,0,0.6425,optionLeft,40,8925,5,4,0,4,0,1,,,,,,,,,,,,,,,,,,,,,,,,,,,,,,,,,,,,,,,
,,,,,,,,2023-08-06_08h21.41.015,HF_wild_card,2022.2.4,Linux x86_64,60.00960154,58ff27489ca116000122f93e,64ce5acb97489d65b14ecc7a,64cf49f0f9b448e22ecbd555,,,,,,,sngl,resources/Empty.png,resources/DG.BMP,Door3,0.257502954,-0.024161254,1,0,0,1.511,optionRight,70,8995,5,5,0,5,0,1,,,,,,,,,,,,,,,,,,,,,,,,,,,,,,,,,,,,,,,
,,,,,,,,2023-08-06_08h21.41.015,HF_wild_card,2022.2.4,Linux x86_64,60.00960154,58ff27489ca116000122f93e,64ce5acb97489d65b14ecc7a,64cf49f0f9b448e22ecbd555,,,,,,,ctch,resources/DG.BMP,resources/DB.BMP,Door3,-0.30292862,0.010066861,1,0,0,0.7589,optionLeft,70,9065,5,6,0,6,0,1,,,,,,,,,,,,,,,,,,,,,,,,,,,,,,,,,,,,,,,
,,,,,,,,2023-08-06_08h21.41.015,HF_wild_card,2022.2.4,Linux x86_64,60.00960154,58ff27489ca116000122f93e,64ce5acb97489d65b14ecc7a,64cf49f0f9b448e22ecbd555,,,,,,,decisionTrl,resources/DB.BMP,resources/DP.BMP,Door2,-0.236857598,-0.007017359,1,0,0,0.7261,optionLeft,40,9105,5,7,0,7,0,1,,,,,,,,,,,,,,,,,,,,,,,,,,,,,,,,,,,,,,,
,,,,,,,,2023-08-06_08h21.41.015,HF_wild_card,2022.2.4,Linux x86_64,60.00960154,58ff27489ca116000122f93e,64ce5acb97489d65b14ecc7a,64cf49f0f9b448e22ecbd555,,,,,,,sngl,resources/DP.BMP,resources/Empty.png,Door1,-0.219047081,-0.011788632,1,0,0,0.7766,optionLeft,30,9135,5,8,0,8,0,1,,,,,,,,,,,,,,,,,,,,,,,,,,,,,,,,,,,,,,,
,,,,,,,,2023-08-06_08h21.41.015,HF_wild_card,2022.2.4,Linux x86_64,60.00960154,58ff27489ca116000122f93e,64ce5acb97489d65b14ecc7a,64cf49f0f9b448e22ecbd555,,,,,,,decisionTrl,resources/DG.BMP,resources/DBN.BMP,Door3,-0.181068743,0.008620929,1,0,0,0.7927,optionLeft,70,9205,5,9,0,9,0,1,,,,,,,,,,,,,,,,,,,,,,,,,,,,,,,,,,,,,,,
,,,,,,,,2023-08-06_08h21.41.015,HF_wild_card,2022.2.4,Linux x86_64,60.00960154,58ff27489ca116000122f93e,64ce5acb97489d65b14ecc7a,64cf49f0f9b448e22ecbd555,,,,,,,sngl,resources/DB.BMP,resources/Empty.png,Door2,-0.21821408,0.003444152,1,0,0,0.6597,optionLeft,40,9245,5,10,0,10,0,1,,,,,,,,,,,,,,,,,,,,,,,,,,,,,,,,,,,,,,,
,,,,,,,,2023-08-06_08h21.41.015,HF_wild_card,2022.2.4,Linux x86_64,60.00960154,58ff27489ca116000122f93e,64ce5acb97489d65b14ecc7a,64cf49f0f9b448e22ecbd555,,,,,,,sngl,resources/Empty.png,resources/DY.BMP,Door4,0.205695282,0.003690979,1,0,0,0.7933,optionRight,60,9305,5,11,0,11,0,1,,,,,,,,,,,,,,,,,,,,,,,,,,,,,,,,,,,,,,,
,,,,,,,,2023-08-06_08h21.41.015,HF_wild_card,2022.2.4,Linux x86_64,60.00960154,58ff27489ca116000122f93e,64ce5acb97489d65b14ecc7a,64cf49f0f9b448e22ecbd555,,,,,,,decisionTrl,resources/DP.BMP,resources/DB.BMP,Door1,-0.155152084,-0.010112351,1,0,0,1.1761,optionLeft,30,9335,5,12,0,12,0,1,,,,,,,,,,,,,,,,,,,,,,,,,,,,,,,,,,,,,,,
,,,,,,,,2023-08-06_08h21.41.015,HF_wild_card,2022.2.4,Linux x86_64,60.00960154,58ff27489ca116000122f93e,64ce5acb97489d65b14ecc7a,64cf49f0f9b448e22ecbd555,,,,,,,sngl,resources/DG.BMP,resources/Empty.png,Door3,-0.144765791,-0.013135382,1,0,0,0.9765,optionLeft,70,9405,5,13,0,13,0,1,,,,,,,,,,,,,,,,,,,,,,,,,,,,,,,,,,,,,,,
,,,,,,,,2023-08-06_08h21.41.015,HF_wild_card,2022.2.4,Linux x86_64,60.00960154,58ff27489ca116000122f93e,64ce5acb97489d65b14ecc7a,64cf49f0f9b448e22ecbd555,,,,,,,ctch,resources/DB.BMP,resources/DG.BMP,Door2,-0.186507176,0.00085614,1,0,0,1.3917,optionLeft,20,9425,5,14,0,14,0,1,,,,,,,,,,,,,,,,,,,,,,,,,,,,,,,,,,,,,,,
,,,,,,,,2023-08-06_08h21.41.015,HF_wild_card,2022.2.4,Linux x86_64,60.00960154,58ff27489ca116000122f93e,64ce5acb97489d65b14ecc7a,64cf49f0f9b448e22ecbd555,,,,,,,ctch,resources/DY.BMP,resources/DP.BMP,Door4,-0.204621722,-0.01226101,1,0,0,0.9104,optionLeft,60,9485,5,15,0,15,0,1,,,,,,,,,,,,,,,,,,,,,,,,,,,,,,,,,,,,,,,
,,,,,,,,2023-08-06_08h21.41.015,HF_wild_card,2022.2.4,Linux x86_64,60.00960154,58ff27489ca116000122f93e,64ce5acb97489d65b14ecc7a,64cf49f0f9b448e22ecbd555,,,,,,,decisionTrl,resources/DY.BMP,resources/DG.BMP,Door4,-0.247868569,0.001130368,1,0,0,0.8765,optionLeft,80,9565,5,16,0,16,0,1,,,,,,,,,,,,,,,,,,,,,,,,,,,,,,,,,,,,,,,
,,,,,,,,2023-08-06_08h21.41.015,HF_wild_card,2022.2.4,Linux x86_64,60.00960154,58ff27489ca116000122f93e,64ce5acb97489d65b14ecc7a,64cf49f0f9b448e22ecbd555,,,,,,,decisionTrl,resources/DP.BMP,resources/DBN.BMP,Door1,-0.182725217,-0.00774996,1,0,0,1.0297,optionLeft,30,9595,5,17,0,17,0,1,,,,,,,,,,,,,,,,,,,,,,,,,,,,,,,,,,,,,,,
,,,,,,,,2023-08-06_08h21.41.015,HF_wild_card,2022.2.4,Linux x86_64,60.00960154,58ff27489ca116000122f93e,64ce5acb97489d65b14ecc7a,64cf49f0f9b448e22ecbd555,,,,,,,decisionTrl,resources/DB.BMP,resources/DP.BMP,Door2,-0.182506651,-0.011589588,1,0,0,0.9268,optionLeft,20,9615,5,18,0,18,0,1,,,,,,,,,,,,,,,,,,,,,,,,,,,,,,,,,,,,,,,
,,,,,,,,2023-08-06_08h21.41.015,HF_wild_card,2022.2.4,Linux x86_64,60.00960154,58ff27489ca116000122f93e,64ce5acb97489d65b14ecc7a,64cf49f0f9b448e22ecbd555,,,,,,,ctch,resources/DP.BMP,resources/DY.BMP,Door1,-0.175587829,-0.005696256,1,0,0,0.9601,optionLeft,30,9645,5,19,0,19,0,1,,,,,,,,,,,,,,,,,,,,,,,,,,,,,,,,,,,,,,,
,,,,,,,,2023-08-06_08h21.41.015,HF_wild_card,2022.2.4,Linux x86_64,60.00960154,58ff27489ca116000122f93e,64ce5acb97489d65b14ecc7a,64cf49f0f9b448e22ecbd555,,,,,,,sngl,resources/Empty.png,resources/DBN.BMP,WildCard_Ex,0.162423076,0.013841369,1,0,0,1.2768,optionRight,45,9690,5,20,0,20,0,1,,,,,,,,,,,,,,,,,,,,,,,,,,,,,,,,,,,,,,,
,,,,,,,,2023-08-06_08h21.41.015,HF_wild_card,2022.2.4,Linux x86_64,60.00960154,58ff27489ca116000122f93e,64ce5acb97489d65b14ecc7a,64cf49f0f9b448e22ecbd555,,,,,,,ctch,resources/DG.BMP,resources/DB.BMP,Door3,-0.227063819,-0.008859948,1,0,0,0.8938,optionLeft,70,9760,5,21,0,21,0,1,,,,,,,,,,,,,,,,,,,,,,,,,,,,,,,,,,,,,,,
,,,,,,,,2023-08-06_08h21.41.015,HF_wild_card,2022.2.4,Linux x86_64,60.00960154,58ff27489ca116000122f93e,64ce5acb97489d65b14ecc7a,64cf49f0f9b448e22ecbd555,,,,,,,decisionTrl,resources/DB.BMP,resources/DP.BMP,Door2,-0.279633571,-0.025590243,1,0,0,0.8736,optionLeft,20,9780,5,22,0,22,0,1,,,,,,,,,,,,,,,,,,,,,,,,,,,,,,,,,,,,,,,
,,,,,,,,2023-08-06_08h21.41.015,HF_wild_card,2022.2.4,Linux x86_64,60.00960154,58ff27489ca116000122f93e,64ce5acb97489d65b14ecc7a,64cf49f0f9b448e22ecbd555,,,,,,,decisionTrl,resources/DB.BMP,resources/DBN.BMP,Door2,-0.339924306,0.011250885,1,0,0,0.8922,optionLeft,20,9800,5,23,0,23,0,1,,,,,,,,,,,,,,,,,,,,,,,,,,,,,,,,,,,,,,,
,,,,,,,,2023-08-06_08h21.41.015,HF_wild_card,2022.2.4,Linux x86_64,60.00960154,58ff27489ca116000122f93e,64ce5acb97489d65b14ecc7a,64cf49f0f9b448e22ecbd555,,,,,,,decisionTrl,resources/DB.BMP,resources/DP.BMP,Door2,-0.262179522,0.001101928,1,0,0,0.8107,optionLeft,20,9820,5,24,0,24,0,1,,,,,,,,,,,,,,,,,,,,,,,,,,,,,,,,,,,,,,,
,,,,,,,,2023-08-06_08h21.41.015,HF_wild_card,2022.2.4,Linux x86_64,60.00960154,58ff27489ca116000122f93e,64ce5acb97489d65b14ecc7a,64cf49f0f9b448e22ecbd555,,,,,,,sngl,resources/DBN.BMP,resources/Empty.png,WildCard_Ex,-0.287295991,-0.002664557,1,0,0,0.893,optionLeft,55,9875,5,25,0,25,0,1,,,,,,,,,,,,,,,,,,,,,,,,,,,,,,,,,,,,,,,
,,,,,,,,2023-08-06_08h21.41.015,HF_wild_card,2022.2.4,Linux x86_64,60.00960154,58ff27489ca116000122f93e,64ce5acb97489d65b14ecc7a,64cf49f0f9b448e22ecbd555,,,,,,,decisionTrl,resources/DG.BMP,resources/DY.BMP,Door3,-0.179783709,-0.010985934,1,0,0,1.2915,optionLeft,70,9945,5,26,0,26,0,1,,,,,,,,,,,,,,,,,,,,,,,,,,,,,,,,,,,,,,,
,,,,,,,,2023-08-06_08h21.41.015,HF_wild_card,2022.2.4,Linux x86_64,60.00960154,58ff27489ca116000122f93e,64ce5acb97489d65b14ecc7a,64cf49f0f9b448e22ecbd555,,,,,,,sngl,resources/Empty.png,resources/DP.BMP,Door1,0.131164837,-0.008708327,1,0,0,1.2748,optionRight,30,9975,5,27,0,27,0,1,,,,,,,,,,,,,,,,,,,,,,,,,,,,,,,,,,,,,,,
,,,,,,,,2023-08-06_08h21.41.015,HF_wild_card,2022.2.4,Linux x86_64,60.00960154,58ff27489ca116000122f93e,64ce5acb97489d65b14ecc7a,64cf49f0f9b448e22ecbd555,,,,,,,decisionTrl,resources/DBN.BMP,resources/DB.BMP,WildCard_Ex,-0.285407984,-0.036476529,1,0,0,0.8761,optionLeft,45,10020,5,28,0,28,0,1,,,,,,,,,,,,,,,,,,,,,,,,,,,,,,,,,,,,,,,
,,,,,,,,2023-08-06_08h21.41.015,HF_wild_card,2022.2.4,Linux x86_64,60.00960154,58ff27489ca116000122f93e,64ce5acb97489d65b14ecc7a,64cf49f0f9b448e22ecbd555,,,,,,,ctch,resources/DY.BMP,resources/DP.BMP,Door4,-0.20907385,-0.014190101,1,0,0,0.8949,optionLeft,80,10100,5,29,0,29,0,1,,,,,,,,,,,,,,,,,,,,,,,,,,,,,,,,,,,,,,,
,,,,,,,,2023-08-06_08h21.41.015,HF_wild_card,2022.2.4,Linux x86_64,60.00960154,58ff27489ca116000122f93e,64ce5acb97489d65b14ecc7a,64cf49f0f9b448e22ecbd555,,,,,,,decisionTrl,resources/DP.BMP,resources/DB.BMP,Door1,-0.202894256,-0.008438397,1,0,0,0.9595,optionLeft,30,10130,5,30,0,30,0,1,,,,,,,,,,,,,,,,,,,,,,,,,,,,,,,,,,,,,,,
,,,,,,,,2023-08-06_08h21.41.015,HF_wild_card,2022.2.4,Linux x86_64,60.00960154,58ff27489ca116000122f93e,64ce5acb97489d65b14ecc7a,64cf49f0f9b448e22ecbd555,,,,,,,sngl,resources/DY.BMP,resources/Empty.png,Door4,-0.295391172,0.018231925,1,0,0,0.9767,optionLeft,80,10210,5,31,0,31,0,1,,,,,,,,,,,,,,,,,,,,,,,,,,,,,,,,,,,,,,,
,,,,,,,,2023-08-06_08h21.41.015,HF_wild_card,2022.2.4,Linux x86_64,60.00960154,58ff27489ca116000122f93e,64ce5acb97489d65b14ecc7a,64cf49f0f9b448e22ecbd555,,,,,,,decisionTrl,resources/DBN.BMP,resources/DG.BMP,WildCard_Ex,-0.270927752,-0.003054874,1,0,0,0.7765,optionLeft,55,10265,5,32,0,32,0,1,,,,,,,,,,,,,,,,,,,,,,,,,,,,,,,,,,,,,,,
,,,,,,,,2023-08-06_08h21.41.015,HF_wild_card,2022.2.4,Linux x86_64,60.00960154,58ff27489ca116000122f93e,64ce5acb97489d65b14ecc7a,64cf49f0f9b448e22ecbd555,,,,,,,decisionTrl,resources/DY.BMP,resources/DBN.BMP,Door4,-0.266760741,-0.010997611,1,0,0,0.9595,optionLeft,80,10345,5,33,0,33,0,1,,,,,,,,,,,,,,,,,,,,,,,,,,,,,,,,,,,,,,,
,,,,,,,,2023-08-06_08h21.41.015,HF_wild_card,2022.2.4,Linux x86_64,60.00960154,58ff27489ca116000122f93e,64ce5acb97489d65b14ecc7a,64cf49f0f9b448e22ecbd555,,,,,,,ctch,resources/DP.BMP,resources/DY.BMP,Door1,-0.24416842,-0.011507527,1,0,0,0.7804,optionLeft,30,10375,5,34,0,34,0,1,,,,,,,,,,,,,,,,,,,,,,,,,,,,,,,,,,,,,,,
,,,,,,,,2023-08-06_08h21.41.015,HF_wild_card,2022.2.4,Linux x86_64,60.00960154,58ff27489ca116000122f93e,64ce5acb97489d65b14ecc7a,64cf49f0f9b448e22ecbd555,,,,,,,decisionTrl,resources/DP.BMP,resources/DB.BMP,Door1,-0.235701655,0.012759715,1,0,0,0.7935,optionLeft,30,10405,5,35,0,35,0,1,,,,,,,,,,,,,,,,,,,,,,,,,,,,,,,,,,,,,,,
,,,,,,,,2023-08-06_08h21.41.015,HF_wild_card,2022.2.4,Linux x86_64,60.00960154,58ff27489ca116000122f93e,64ce5acb97489d65b14ecc7a,64cf49f0f9b448e22ecbd555,,,,,,,decisionTrl,resources/DG.BMP,resources/DY.BMP,Door3,-0.306418692,-0.00792558,1,0,0,0.9423,optionLeft,70,10475,5,36,0,36,0,1,,,,,,,,,,,,,,,,,,,,,,,,,,,,,,,,,,,,,,,
,,,,,,,,2023-08-06_08h21.41.015,HF_wild_card,2022.2.4,Linux x86_64,60.00960154,58ff27489ca116000122f93e,64ce5acb97489d65b14ecc7a,64cf49f0f9b448e22ecbd555,,,,,,,sngl,resources/Empty.png,resources/DBN.BMP,WildCard_Ex,0.189938612,-0.018697318,1,0,0,1.8417,optionRight,55,10530,5,37,0,37,0,1,,,,,,,,,,,,,,,,,,,,,,,,,,,,,,,,,,,,,,,
,,,,,,,,2023-08-06_08h21.41.015,HF_wild_card,2022.2.4,Linux x86_64,60.00960154,58ff27489ca116000122f93e,64ce5acb97489d65b14ecc7a,64cf49f0f9b448e22ecbd555,,,,,,,decisionTrl,resources/DY.BMP,resources/DG.BMP,Door4,-0.232927349,-0.018867528,1,0,0,1.1209,optionLeft,60,10590,5,38,0,38,0,1,,,,,,,,,,,,,,,,,,,,,,,,,,,,,,,,,,,,,,,
,,,,,,,,2023-08-06_08h21.41.015,HF_wild_card,2022.2.4,Linux x86_64,60.00960154,58ff27489ca116000122f93e,64ce5acb97489d65b14ecc7a,64cf49f0f9b448e22ecbd555,,,,,,,decisionTrl,resources/DBN.BMP,resources/DY.BMP,WildCard_Ex,-0.268371295,-0.00704605,1,0,0,1.842,optionLeft,45,10635,5,39,0,39,0,1,,,,,,,,,,,,,,,,,,,,,,,,,,,,,,,,,,,,,,,
,,,,,,,,2023-08-06_08h21.41.015,HF_wild_card,2022.2.4,Linux x86_64,60.00960154,58ff27489ca116000122f93e,64ce5acb97489d65b14ecc7a,64cf49f0f9b448e22ecbd555,,,,,,,decisionTrl,resources/DG.BMP,resources/DY.BMP,Door3,-0.135160133,-0.003486168,1,0,0,0.8772,optionLeft,70,10705,5,40,0,40,0,1,,,,,,,,,,,,,,,,,,,,,,,,,,,,,,,,,,,,,,,
,,,,,,,,2023-08-06_08h21.41.015,HF_wild_card,2022.2.4,Linux x86_64,60.00960154,58ff27489ca116000122f93e,64ce5acb97489d65b14ecc7a,64cf49f0f9b448e22ecbd555,,,,,,,decisionTrl,resources/DBN.BMP,resources/DP.BMP,WildCard_Ex,-0.177879011,-0.005255184,1,0,0,1.0427,optionLeft,45,10750,5,41,0,41,0,1,,,,,,,,,,,,,,,,,,,,,,,,,,,,,,,,,,,,,,,
,,,,,,,,2023-08-06_08h21.41.015,HF_wild_card,2022.2.4,Linux x86_64,60.00960154,58ff27489ca116000122f93e,64ce5acb97489d65b14ecc7a,64cf49f0f9b448e22ecbd555,,,,,,,sngl,resources/DBN.BMP,resources/Empty.png,WildCard_Ex,-0.338445637,-0.005326607,1,0,0,0.9785,optionLeft,45,10795,5,42,0,42,0,1,,,,,,,,,,,,,,,,,,,,,,,,,,,,,,,,,,,,,,,
,,,,,,,,2023-08-06_08h21.41.015,HF_wild_card,2022.2.4,Linux x86_64,60.00960154,58ff27489ca116000122f93e,64ce5acb97489d65b14ecc7a,64cf49f0f9b448e22ecbd555,,,,,,,decisionTrl,resources/DY.BMP,resources/DG.BMP,Door4,-0.257824034,-0.021460448,1,0,0,1.0436,optionLeft,60,10855,5,43,0,43,0,1,,,,,,,,,,,,,,,,,,,,,,,,,,,,,,,,,,,,,,,
,,,,,,,,2023-08-06_08h21.41.015,HF_wild_card,2022.2.4,Linux x86_64,60.00960154,58ff27489ca116000122f93e,64ce5acb97489d65b14ecc7a,64cf49f0f9b448e22ecbd555,,,,,,,,,,,,,,,,,,,,,,,,,,4,0,4,0,1,,,,,,,,,,,,,,,,,,,,,,,,,,,,,,,,,,
,,,,,,,,2023-08-06_08h21.41.015,HF_wild_card,2022.2.4,Linux x86_64,60.00960154,58ff27489ca116000122f93e,64ce5acb97489d65b14ecc7a,64cf49f0f9b448e22ecbd555,,,,,,,decisionTrl,resources/DG.BMP,resources/DBN.BMP,Door3,-0.330923268,-0.058356881,1,0,0,1.0248,optionLeft,70,10925,6,0,0,0,0,1,,,,,,,,,,,,,,,,,,,,,,,,,,,,,,,,,,,,,,,
,,,,,,,,2023-08-06_08h21.41.015,HF_wild_card,2022.2.4,Linux x86_64,60.00960154,58ff27489ca116000122f93e,64ce5acb97489d65b14ecc7a,64cf49f0f9b448e22ecbd555,,,,,,,decisionTrl,resources/DG.BMP,resources/DY.BMP,Door3,-0.248229909,-0.030250406,1,0,0,0.9602,optionLeft,70,10995,6,1,0,1,0,1,,,,,,,,,,,,,,,,,,,,,,,,,,,,,,,,,,,,,,,
,,,,,,,,2023-08-06_08h21.41.015,HF_wild_card,2022.2.4,Linux x86_64,60.00960154,58ff27489ca116000122f93e,64ce5acb97489d65b14ecc7a,64cf49f0f9b448e22ecbd555,,,,,,,decisionTrl,resources/DBN.BMP,resources/DB.BMP,WildCard_Ex,-0.246836416,-0.011319693,1,0,0,0.8431,optionLeft,45,11040,6,2,0,2,0,1,,,,,,,,,,,,,,,,,,,,,,,,,,,,,,,,,,,,,,,
,,,,,,,,2023-08-06_08h21.41.015,HF_wild_card,2022.2.4,Linux x86_64,60.00960154,58ff27489ca116000122f93e,64ce5acb97489d65b14ecc7a,64cf49f0f9b448e22ecbd555,,,,,,,decisionTrl,resources/DBN.BMP,resources/DP.BMP,WildCard_Ex,-0.21972119,-0.021784393,1,0,0,0.9931,optionLeft,45,11085,6,3,0,3,0,1,,,,,,,,,,,,,,,,,,,,,,,,,,,,,,,,,,,,,,,
,,,,,,,,2023-08-06_08h21.41.015,HF_wild_card,2022.2.4,Linux x86_64,60.00960154,58ff27489ca116000122f93e,64ce5acb97489d65b14ecc7a,64cf49f0f9b448e22ecbd555,,,,,,,decisionTrl,resources/DB.BMP,resources/DP.BMP,Door2,-0.222121763,-0.00474491,1,0,0,1.0097,optionLeft,40,11125,6,4,0,4,0,1,,,,,,,,,,,,,,,,,,,,,,,,,,,,,,,,,,,,,,,
,,,,,,,,2023-08-06_08h21.41.015,HF_wild_card,2022.2.4,Linux x86_64,60.00960154,58ff27489ca116000122f93e,64ce5acb97489d65b14ecc7a,64cf49f0f9b448e22ecbd555,,,,,,,sngl,resources/Empty.png,resources/DBN.BMP,WildCard_Ex,0.289395758,-0.04819639,1,0,0,1.3756,optionRight,45,11170,6,5,0,5,0,1,,,,,,,,,,,,,,,,,,,,,,,,,,,,,,,,,,,,,,,
,,,,,,,,2023-08-06_08h21.41.015,HF_wild_card,2022.2.4,Linux x86_64,60.00960154,58ff27489ca116000122f93e,64ce5acb97489d65b14ecc7a,64cf49f0f9b448e22ecbd555,,,,,,,decisionTrl,resources/DB.BMP,resources/DP.BMP,Door2,-0.246757185,-0.012852306,1,0,0,0.8937,optionLeft,20,11190,6,6,0,6,0,1,,,,,,,,,,,,,,,,,,,,,,,,,,,,,,,,,,,,,,,
,,,,,,,,2023-08-06_08h21.41.015,HF_wild_card,2022.2.4,Linux x86_64,60.00960154,58ff27489ca116000122f93e,64ce5acb97489d65b14ecc7a,64cf49f0f9b448e22ecbd555,,,,,,,decisionTrl,resources/DY.BMP,resources/DG.BMP,Door4,-0.219582929,-0.010437728,1,0,0,0.9764,optionLeft,80,11270,6,7,0,7,0,1,,,,,,,,,,,,,,,,,,,,,,,,,,,,,,,,,,,,,,,
,,,,,,,,2023-08-06_08h21.41.015,HF_wild_card,2022.2.4,Linux x86_64,60.00960154,58ff27489ca116000122f93e,64ce5acb97489d65b14ecc7a,64cf49f0f9b448e22ecbd555,,,,,,,sngl,resources/DBN.BMP,resources/Empty.png,WildCard_Ex,-0.21190081,0.006759608,1,0,0,1.0104,optionLeft,45,11315,6,8,0,8,0,1,,,,,,,,,,,,,,,,,,,,,,,,,,,,,,,,,,,,,,,
,,,,,,,,2023-08-06_08h21.41.015,HF_wild_card,2022.2.4,Linux x86_64,60.00960154,58ff27489ca116000122f93e,64ce5acb97489d65b14ecc7a,64cf49f0f9b448e22ecbd555,,,,,,,decisionTrl,resources/DG.BMP,resources/DY.BMP,Door3,-0.31601493,-0.009643698,1,0,0,0.927,optionLeft,70,11385,6,9,0,9,0,1,,,,,,,,,,,,,,,,,,,,,,,,,,,,,,,,,,,,,,,
,,,,,,,,2023-08-06_08h21.41.015,HF_wild_card,2022.2.4,Linux x86_64,60.00960154,58ff27489ca116000122f93e,64ce5acb97489d65b14ecc7a,64cf49f0f9b448e22ecbd555,,,,,,,sngl,resources/DP.BMP,resources/Empty.png,Door1,-0.192004065,-0.003592334,1,0,0,0.9418,optionLeft,30,11415,6,10,0,10,0,1,,,,,,,,,,,,,,,,,,,,,,,,,,,,,,,,,,,,,,,
,,,,,,,,2023-08-06_08h21.41.015,HF_wild_card,2022.2.4,Linux x86_64,60.00960154,58ff27489ca116000122f93e,64ce5acb97489d65b14ecc7a,64cf49f0f9b448e22ecbd555,,,,,,,sngl,resources/Empty.png,resources/DBN.BMP,WildCard_Ex,0.22998534,0.004256163,1,0,0,1.3931,optionRight,55,11470,6,11,0,11,0,1,,,,,,,,,,,,,,,,,,,,,,,,,,,,,,,,,,,,,,,
,,,,,,,,2023-08-06_08h21.41.015,HF_wild_card,2022.2.4,Linux x86_64,60.00960154,58ff27489ca116000122f93e,64ce5acb97489d65b14ecc7a,64cf49f0f9b448e22ecbd555,,,,,,,sngl,resources/Empty.png,resources/DG.BMP,Door3,0.13658357,0.000833789,1,0,0,1.2777,optionRight,70,11540,6,12,0,12,0,1,,,,,,,,,,,,,,,,,,,,,,,,,,,,,,,,,,,,,,,
,,,,,,,,2023-08-06_08h21.41.015,HF_wild_card,2022.2.4,Linux x86_64,60.00960154,58ff27489ca116000122f93e,64ce5acb97489d65b14ecc7a,64cf49f0f9b448e22ecbd555,,,,,,,sngl,resources/Empty.png,resources/DY.BMP,Door4,0.194620267,-0.005651555,1,0,0,1.1601,optionRight,80,11620,6,13,0,13,0,1,,,,,,,,,,,,,,,,,,,,,,,,,,,,,,,,,,,,,,,
,,,,,,,,2023-08-06_08h21.41.015,HF_wild_card,2022.2.4,Linux x86_64,60.00960154,58ff27489ca116000122f93e,64ce5acb97489d65b14ecc7a,64cf49f0f9b448e22ecbd555,,,,,,,decisionTrl,resources/DP.BMP,resources/DB.BMP,Door1,-0.437087153,-0.003515002,1,0,0,1.0938,optionLeft,30,11650,6,14,0,14,0,1,,,,,,,,,,,,,,,,,,,,,,,,,,,,,,,,,,,,,,,
,,,,,,,,2023-08-06_08h21.41.015,HF_wild_card,2022.2.4,Linux x86_64,60.00960154,58ff27489ca116000122f93e,64ce5acb97489d65b14ecc7a,64cf49f0f9b448e22ecbd555,,,,,,,decisionTrl,resources/DP.BMP,resources/DB.BMP,Door1,-0.383318583,-0.03808078,1,0,0,0.9404,optionLeft,30,11680,6,15,0,15,0,1,,,,,,,,,,,,,,,,,,,,,,,,,,,,,,,,,,,,,,,
,,,,,,,,2023-08-06_08h21.41.015,HF_wild_card,2022.2.4,Linux x86_64,60.00960154,58ff27489ca116000122f93e,64ce5acb97489d65b14ecc7a,64cf49f0f9b448e22ecbd555,,,,,,,sngl,resources/DG.BMP,resources/Empty.png,Door3,-0.346200612,0.004766688,1,0,0,0.9386,optionLeft,70,11750,6,16,0,16,0,1,,,,,,,,,,,,,,,,,,,,,,,,,,,,,,,,,,,,,,,
,,,,,,,,2023-08-06_08h21.41.015,HF_wild_card,2022.2.4,Linux x86_64,60.00960154,58ff27489ca116000122f93e,64ce5acb97489d65b14ecc7a,64cf49f0f9b448e22ecbd555,,,,,,,decisionTrl,resources/DY.BMP,resources/DG.BMP,Door4,-0.318995015,-0.018545375,1,0,0,0.8806,optionLeft,80,11830,6,17,0,17,0,1,,,,,,,,,,,,,,,,,,,,,,,,,,,,,,,,,,,,,,,
,,,,,,,,2023-08-06_08h21.41.015,HF_wild_card,2022.2.4,Linux x86_64,60.00960154,58ff27489ca116000122f93e,64ce5acb97489d65b14ecc7a,64cf49f0f9b448e22ecbd555,,,,,,,decisionTrl,resources/DP.BMP,resources/DB.BMP,Door1,-0.155117984,-0.003577935,1,0,0,0.8607,optionLeft,30,11860,6,18,0,18,0,1,,,,,,,,,,,,,,,,,,,,,,,,,,,,,,,,,,,,,,,
,,,,,,,,2023-08-06_08h21.41.015,HF_wild_card,2022.2.4,Linux x86_64,60.00960154,58ff27489ca116000122f93e,64ce5acb97489d65b14ecc7a,64cf49f0f9b448e22ecbd555,,,,,,,ctch,resources/DG.BMP,resources/DB.BMP,Door3,-0.351503327,0.014415938,1,0,0,1.7266,optionLeft,70,11930,6,19,0,19,0,1,,,,,,,,,,,,,,,,,,,,,,,,,,,,,,,,,,,,,,,
,,,,,,,,2023-08-06_08h21.41.015,HF_wild_card,2022.2.4,Linux x86_64,60.00960154,58ff27489ca116000122f93e,64ce5acb97489d65b14ecc7a,64cf49f0f9b448e22ecbd555,,,,,,,decisionTrl,resources/DB.BMP,resources/DP.BMP,Door2,-0.313796997,0.004030899,1,0,0,1.4114,optionLeft,20,11950,6,20,0,20,0,1,,,,,,,,,,,,,,,,,,,,,,,,,,,,,,,,,,,,,,,
,,,,,,,,2023-08-06_08h21.41.015,HF_wild_card,2022.2.4,Linux x86_64,60.00960154,58ff27489ca116000122f93e,64ce5acb97489d65b14ecc7a,64cf49f0f9b448e22ecbd555,,,,,,,ctch,resources/DP.BMP,resources/DY.BMP,Door1,-0.281654036,-0.000366318,1,0,0,1.6652,optionLeft,30,11980,6,21,0,21,0,1,,,,,,,,,,,,,,,,,,,,,,,,,,,,,,,,,,,,,,,
,,,,,,,,2023-08-06_08h21.41.015,HF_wild_card,2022.2.4,Linux x86_64,60.00960154,58ff27489ca116000122f93e,64ce5acb97489d65b14ecc7a,64cf49f0f9b448e22ecbd555,,,,,,,ctch,resources/DB.BMP,resources/DG.BMP,Door2,-0.331007837,-0.000534022,1,0,0,2.3425,optionLeft,20,12000,6,22,0,22,0,1,,,,,,,,,,,,,,,,,,,,,,,,,,,,,,,,,,,,,,,
,,,,,,,,2023-08-06_08h21.41.015,HF_wild_card,2022.2.4,Linux x86_64,60.00960154,58ff27489ca116000122f93e,64ce5acb97489d65b14ecc7a,64cf49f0f9b448e22ecbd555,,,,,,,decisionTrl,resources/DP.BMP,resources/DBN.BMP,Door1,-0.390766341,-0.012304602,1,0,0,1.9942,optionLeft,30,12030,6,23,0,23,0,1,,,,,,,,,,,,,,,,,,,,,,,,,,,,,,,,,,,,,,,
,,,,,,,,2023-08-06_08h21.41.015,HF_wild_card,2022.2.4,Linux x86_64,60.00960154,58ff27489ca116000122f93e,64ce5acb97489d65b14ecc7a,64cf49f0f9b448e22ecbd555,,,,,,,decisionTrl,resources/DBN.BMP,resources/DG.BMP,WildCard_Ex,-0.355045838,-0.004962975,1,0,0,0.8913,optionLeft,55,12085,6,24,0,24,0,1,,,,,,,,,,,,,,,,,,,,,,,,,,,,,,,,,,,,,,,
,,,,,,,,2023-08-06_08h21.41.015,HF_wild_card,2022.2.4,Linux x86_64,60.00960154,58ff27489ca116000122f93e,64ce5acb97489d65b14ecc7a,64cf49f0f9b448e22ecbd555,,,,,,,ctch,resources/DP.BMP,resources/DY.BMP,Door1,-0.365132256,0.022424653,1,0,0,0.8729,optionLeft,30,12115,6,25,0,25,0,1,,,,,,,,,,,,,,,,,,,,,,,,,,,,,,,,,,,,,,,
,,,,,,,,2023-08-06_08h21.41.015,HF_wild_card,2022.2.4,Linux x86_64,60.00960154,58ff27489ca116000122f93e,64ce5acb97489d65b14ecc7a,64cf49f0f9b448e22ecbd555,,,,,,,sngl,resources/DB.BMP,resources/Empty.png,Door2,-0.298763293,-0.01485701,1,0,0,0.9103,optionLeft,20,12135,6,26,0,26,0,1,,,,,,,,,,,,,,,,,,,,,,,,,,,,,,,,,,,,,,,
,,,,,,,,2023-08-06_08h21.41.015,HF_wild_card,2022.2.4,Linux x86_64,60.00960154,58ff27489ca116000122f93e,64ce5acb97489d65b14ecc7a,64cf49f0f9b448e22ecbd555,,,,,,,ctch,resources/DB.BMP,resources/DG.BMP,Door2,-0.242851078,-0.0097816,1,0,0,0.9488,optionLeft,20,12155,6,27,0,27,0,1,,,,,,,,,,,,,,,,,,,,,,,,,,,,,,,,,,,,,,,
,,,,,,,,2023-08-06_08h21.41.015,HF_wild_card,2022.2.4,Linux x86_64,60.00960154,58ff27489ca116000122f93e,64ce5acb97489d65b14ecc7a,64cf49f0f9b448e22ecbd555,,,,,,,decisionTrl,resources/DBN.BMP,resources/DY.BMP,WildCard_Ex,-0.283192093,-0.017738306,1,0,0,0.9767,optionLeft,45,12200,6,28,0,28,0,1,,,,,,,,,,,,,,,,,,,,,,,,,,,,,,,,,,,,,,,
,,,,,,,,2023-08-06_08h21.41.015,HF_wild_card,2022.2.4,Linux x86_64,60.00960154,58ff27489ca116000122f93e,64ce5acb97489d65b14ecc7a,64cf49f0f9b448e22ecbd555,,,,,,,ctch,resources/DY.BMP,resources/DP.BMP,Door4,-0.24839009,0.005623007,1,0,0,0.9778,optionLeft,60,12260,6,29,0,29,0,1,,,,,,,,,,,,,,,,,,,,,,,,,,,,,,,,,,,,,,,
,,,,,,,,2023-08-06_08h21.41.015,HF_wild_card,2022.2.4,Linux x86_64,60.00960154,58ff27489ca116000122f93e,64ce5acb97489d65b14ecc7a,64cf49f0f9b448e22ecbd555,,,,,,,sngl,resources/Empty.png,resources/DP.BMP,Door1,0.260223389,-0.028983568,1,0,0,1.0584,optionRight,30,12290,6,30,0,30,0,1,,,,,,,,,,,,,,,,,,,,,,,,,,,,,,,,,,,,,,,
,,,,,,,,2023-08-06_08h21.41.015,HF_wild_card,2022.2.4,Linux x86_64,60.00960154,58ff27489ca116000122f93e,64ce5acb97489d65b14ecc7a,64cf49f0f9b448e22ecbd555,,,,,,,decisionTrl,resources/DG.BMP,resources/DY.BMP,Door3,-0.33460318,0.00243349,1,0,0,0.9089,optionLeft,70,12360,6,31,0,31,0,1,,,,,,,,,,,,,,,,,,,,,,,,,,,,,,,,,,,,,,,
,,,,,,,,2023-08-06_08h21.41.015,HF_wild_card,2022.2.4,Linux x86_64,60.00960154,58ff27489ca116000122f93e,64ce5acb97489d65b14ecc7a,64cf49f0f9b448e22ecbd555,,,,,,,decisionTrl,resources/DP.BMP,resources/DB.BMP,Door1,-0.298184677,-0.001089893,1,0,0,0.9103,optionLeft,30,12390,6,32,0,32,0,1,,,,,,,,,,,,,,,,,,,,,,,,,,,,,,,,,,,,,,,
,,,,,,,,2023-08-06_08h21.41.015,HF_wild_card,2022.2.4,Linux x86_64,60.00960154,58ff27489ca116000122f93e,64ce5acb97489d65b14ecc7a,64cf49f0f9b448e22ecbd555,,,,,,,decisionTrl,resources/DY.BMP,resources/DG.BMP,Door4,-0.299275071,-0.011596608,1,0,0,1.0441,optionLeft,60,12450,6,33,0,33,0,1,,,,,,,,,,,,,,,,,,,,,,,,,,,,,,,,,,,,,,,
,,,,,,,,2023-08-06_08h21.41.015,HF_wild_card,2022.2.4,Linux x86_64,60.00960154,58ff27489ca116000122f93e,64ce5acb97489d65b14ecc7a,64cf49f0f9b448e22ecbd555,,,,,,,decisionTrl,resources/DB.BMP,resources/DP.BMP,Door2,-0.286978923,-0.021088506,1,0,0,0.9443,optionLeft,20,12470,6,34,0,34,0,1,,,,,,,,,,,,,,,,,,,,,,,,,,,,,,,,,,,,,,,
,,,,,,,,2023-08-06_08h21.41.015,HF_wild_card,2022.2.4,Linux x86_64,60.00960154,58ff27489ca116000122f93e,64ce5acb97489d65b14ecc7a,64cf49f0f9b448e22ecbd555,,,,,,,sngl,resources/DBN.BMP,resources/Empty.png,WildCard_Ex,-0.188586096,-0.000136255,1,0,0,0.9925,optionLeft,55,12525,6,35,0,35,0,1,,,,,,,,,,,,,,,,,,,,,,,,,,,,,,,,,,,,,,,
,,,,,,,,2023-08-06_08h21.41.015,HF_wild_card,2022.2.4,Linux x86_64,60.00960154,58ff27489ca116000122f93e,64ce5acb97489d65b14ecc7a,64cf49f0f9b448e22ecbd555,,,,,,,decisionTrl,resources/DG.BMP,resources/DY.BMP,Door3,-0.274696744,0.002576909,1,0,0,1.0109,optionLeft,70,12595,6,36,0,36,0,1,,,,,,,,,,,,,,,,,,,,,,,,,,,,,,,,,,,,,,,
,,,,,,,,2023-08-06_08h21.41.015,HF_wild_card,2022.2.4,Linux x86_64,60.00960154,58ff27489ca116000122f93e,64ce5acb97489d65b14ecc7a,64cf49f0f9b448e22ecbd555,,,,,,,sngl,resources/Empty.png,resources/DB.BMP,Door2,0.2649001,-0.016294238,1,0,0,1.2763,optionRight,40,12635,6,37,0,37,0,1,,,,,,,,,,,,,,,,,,,,,,,,,,,,,,,,,,,,,,,
,,,,,,,,2023-08-06_08h21.41.015,HF_wild_card,2022.2.4,Linux x86_64,60.00960154,58ff27489ca116000122f93e,64ce5acb97489d65b14ecc7a,64cf49f0f9b448e22ecbd555,,,,,,,ctch,resources/DY.BMP,resources/DP.BMP,Door4,-0.376452307,0.013809312,1,0,0,0.8449,optionLeft,80,12715,6,38,0,38,0,1,,,,,,,,,,,,,,,,,,,,,,,,,,,,,,,,,,,,,,,
,,,,,,,,2023-08-06_08h21.41.015,HF_wild_card,2022.2.4,Linux x86_64,60.00960154,58ff27489ca116000122f93e,64ce5acb97489d65b14ecc7a,64cf49f0f9b448e22ecbd555,,,,,,,decisionTrl,resources/DY.BMP,resources/DG.BMP,Door4,-0.327860192,0.001105689,1,0,0,0.8763,optionLeft,80,12795,6,39,0,39,0,1,,,,,,,,,,,,,,,,,,,,,,,,,,,,,,,,,,,,,,,
,,,,,,,,2023-08-06_08h21.41.015,HF_wild_card,2022.2.4,Linux x86_64,60.00960154,58ff27489ca116000122f93e,64ce5acb97489d65b14ecc7a,64cf49f0f9b448e22ecbd555,,,,,,,decisionTrl,resources/DY.BMP,resources/DBN.BMP,Door4,-0.251609122,0.030106809,1,0,0,3.6098,optionLeft,60,12855,6,40,0,40,0,1,,,,,,,,,,,,,,,,,,,,,,,,,,,,,,,,,,,,,,,
,,,,,,,,2023-08-06_08h21.41.015,HF_wild_card,2022.2.4,Linux x86_64,60.00960154,58ff27489ca116000122f93e,64ce5acb97489d65b14ecc7a,64cf49f0f9b448e22ecbd555,,,,,,,decisionTrl,resources/DB.BMP,resources/DBN.BMP,Door2,-0.288388678,0.008962497,1,0,0,0.8918,optionLeft,40,12895,6,41,0,41,0,1,,,,,,,,,,,,,,,,,,,,,,,,,,,,,,,,,,,,,,,
,,,,,,,,2023-08-06_08h21.41.015,HF_wild_card,2022.2.4,Linux x86_64,60.00960154,58ff27489ca116000122f93e,64ce5acb97489d65b14ecc7a,64cf49f0f9b448e22ecbd555,,,,,,,ctch,resources/DG.BMP,resources/DB.BMP,Door3,-0.23484702,-0.002756002,1,0,0,0.8436,optionLeft,70,12965,6,42,0,42,0,1,,,,,,,,,,,,,,,,,,,,,,,,,,,,,,,,,,,,,,,
,,,,,,,,2023-08-06_08h21.41.015,HF_wild_card,2022.2.4,Linux x86_64,60.00960154,58ff27489ca116000122f93e,64ce5acb97489d65b14ecc7a,64cf49f0f9b448e22ecbd555,,,,,,,sngl,resources/DY.BMP,resources/Empty.png,Door4,-0.243128674,-0.010724099,1,0,0,0.744,optionLeft,60,13025,6,43,0,43,0,1,,,,,,,,,,,,,,,,,,,,,,,,,,,,,,,,,,,,,,,
,,,,,,,,2023-08-06_08h21.41.015,HF_wild_card,2022.2.4,Linux x86_64,60.00960154,58ff27489ca116000122f93e,64ce5acb97489d65b14ecc7a,64cf49f0f9b448e22ecbd555,,,,,,,,,,,,,,,,,,,,,,,,,,5,0,5,0,1,,,,,,,,,,,,,,,,,,,,,,,,,,,,,,,,,,
,,,,,,,,2023-08-06_08h21.41.015,HF_wild_card,2022.2.4,Linux x86_64,60.00960154,58ff27489ca116000122f93e,64ce5acb97489d65b14ecc7a,64cf49f0f9b448e22ecbd555,,,,,,,ctch,resources/DG.BMP,resources/DB.BMP,Door3,-0.323261207,-0.038681747,1,0,0,1.6958,optionLeft,70,13095,7,0,0,0,0,1,,,,,,,,,,,,,,,,,,,,,,,,,,,,,,,,,,,,,,,
,,,,,,,,2023-08-06_08h21.41.015,HF_wild_card,2022.2.4,Linux x86_64,60.00960154,58ff27489ca116000122f93e,64ce5acb97489d65b14ecc7a,64cf49f0f9b448e22ecbd555,,,,,,,decisionTrl,resources/DB.BMP,resources/DP.BMP,Door2,-0.200391098,-0.011173051,1,0,0,1.0677,optionLeft,20,13115,7,1,0,1,0,1,,,,,,,,,,,,,,,,,,,,,,,,,,,,,,,,,,,,,,,
,,,,,,,,2023-08-06_08h21.41.015,HF_wild_card,2022.2.4,Linux x86_64,60.00960154,58ff27489ca116000122f93e,64ce5acb97489d65b14ecc7a,64cf49f0f9b448e22ecbd555,,,,,,,ctch,resources/DB.BMP,resources/DG.BMP,Door2,-0.248716614,-0.007537591,1,0,0,0.8301,optionLeft,20,13135,7,2,0,2,0,1,,,,,,,,,,,,,,,,,,,,,,,,,,,,,,,,,,,,,,,
,,,,,,,,2023-08-06_08h21.41.015,HF_wild_card,2022.2.4,Linux x86_64,60.00960154,58ff27489ca116000122f93e,64ce5acb97489d65b14ecc7a,64cf49f0f9b448e22ecbd555,,,,,,,decisionTrl,resources/DG.BMP,resources/DY.BMP,Door3,-0.325725752,-0.015094882,1,0,0,0.8146,optionLeft,70,13205,7,3,0,3,0,1,,,,,,,,,,,,,,,,,,,,,,,,,,,,,,,,,,,,,,,
,,,,,,,,2023-08-06_08h21.41.015,HF_wild_card,2022.2.4,Linux x86_64,60.00960154,58ff27489ca116000122f93e,64ce5acb97489d65b14ecc7a,64cf49f0f9b448e22ecbd555,,,,,,,decisionTrl,resources/DP.BMP,resources/DB.BMP,Door1,-0.247721068,-0.012319287,1,0,0,0.7802,optionLeft,30,13235,7,4,0,4,0,1,,,,,,,,,,,,,,,,,,,,,,,,,,,,,,,,,,,,,,,
,,,,,,,,2023-08-06_08h21.41.015,HF_wild_card,2022.2.4,Linux x86_64,60.00960154,58ff27489ca116000122f93e,64ce5acb97489d65b14ecc7a,64cf49f0f9b448e22ecbd555,,,,,,,ctch,resources/DG.BMP,resources/DB.BMP,Door3,-0.316706483,-0.021776155,1,0,0,0.747,optionLeft,70,13305,7,5,0,5,0,1,,,,,,,,,,,,,,,,,,,,,,,,,,,,,,,,,,,,,,,
,,,,,,,,2023-08-06_08h21.41.015,HF_wild_card,2022.2.4,Linux x86_64,60.00960154,58ff27489ca116000122f93e,64ce5acb97489d65b14ecc7a,64cf49f0f9b448e22ecbd555,,,,,,,decisionTrl,resources/DP.BMP,resources/DB.BMP,Door1,-0.279012044,-0.042096957,1,0,0,0.9146,optionLeft,30,13335,7,6,0,6,0,1,,,,,,,,,,,,,,,,,,,,,,,,,,,,,,,,,,,,,,,
,,,,,,,,2023-08-06_08h21.41.015,HF_wild_card,2022.2.4,Linux x86_64,60.00960154,58ff27489ca116000122f93e,64ce5acb97489d65b14ecc7a,64cf49f0f9b448e22ecbd555,,,,,,,decisionTrl,resources/DP.BMP,resources/DB.BMP,Door1,-0.287879836,0.016041715,1,0,0,1.6792,optionLeft,30,13365,7,7,0,7,0,1,,,,,,,,,,,,,,,,,,,,,,,,,,,,,,,,,,,,,,,
,,,,,,,,2023-08-06_08h21.41.015,HF_wild_card,2022.2.4,Linux x86_64,60.00960154,58ff27489ca116000122f93e,64ce5acb97489d65b14ecc7a,64cf49f0f9b448e22ecbd555,,,,,,,decisionTrl,resources/DY.BMP,resources/DG.BMP,Door4,-0.247147323,-0.025119871,1,0,0,0.7618,optionLeft,60,13425,7,8,0,8,0,1,,,,,,,,,,,,,,,,,,,,,,,,,,,,,,,,,,,,,,,
,,,,,,,,2023-08-06_08h21.41.015,HF_wild_card,2022.2.4,Linux x86_64,60.00960154,58ff27489ca116000122f93e,64ce5acb97489d65b14ecc7a,64cf49f0f9b448e22ecbd555,,,,,,,ctch,resources/DY.BMP,resources/DP.BMP,Door4,-0.232257395,-0.026993156,1,0,0,0.7967,optionLeft,60,13485,7,9,0,9,0,1,,,,,,,,,,,,,,,,,,,,,,,,,,,,,,,,,,,,,,,
,,,,,,,,2023-08-06_08h21.41.015,HF_wild_card,2022.2.4,Linux x86_64,60.00960154,58ff27489ca116000122f93e,64ce5acb97489d65b14ecc7a,64cf49f0f9b448e22ecbd555,,,,,,,decisionTrl,resources/DG.BMP,resources/DY.BMP,Door3,-0.228381878,-0.023574507,1,0,0,0.8938,optionLeft,70,13555,7,10,0,10,0,1,,,,,,,,,,,,,,,,,,,,,,,,,,,,,,,,,,,,,,,
,,,,,,,,2023-08-06_08h21.41.015,HF_wild_card,2022.2.4,Linux x86_64,60.00960154,58ff27489ca116000122f93e,64ce5acb97489d65b14ecc7a,64cf49f0f9b448e22ecbd555,,,,,,,ctch,resources/DP.BMP,resources/DY.BMP,Door1,-0.306446487,-0.069193379,1,0,0,0.8419,optionLeft,30,13585,7,11,0,11,0,1,,,,,,,,,,,,,,,,,,,,,,,,,,,,,,,,,,,,,,,
,,,,,,,,2023-08-06_08h21.41.015,HF_wild_card,2022.2.4,Linux x86_64,60.00960154,58ff27489ca116000122f93e,64ce5acb97489d65b14ecc7a,64cf49f0f9b448e22ecbd555,,,,,,,decisionTrl,resources/DY.BMP,resources/DG.BMP,Door4,-0.29498771,-0.062571423,1,0,0,0.7451,optionLeft,80,13665,7,12,0,12,0,1,,,,,,,,,,,,,,,,,,,,,,,,,,,,,,,,,,,,,,,
,,,,,,,,2023-08-06_08h21.41.015,HF_wild_card,2022.2.4,Linux x86_64,60.00960154,58ff27489ca116000122f93e,64ce5acb97489d65b14ecc7a,64cf49f0f9b448e22ecbd555,,,,,,,decisionTrl,resources/DB.BMP,resources/DP.BMP,Door2,-0.303438572,-0.039080194,1,0,0,0.8104,optionLeft,20,13685,7,13,0,13,0,1,,,,,,,,,,,,,,,,,,,,,,,,,,,,,,,,,,,,,,,
,,,,,,,,2023-08-06_08h21.41.015,HF_wild_card,2022.2.4,Linux x86_64,60.00960154,58ff27489ca116000122f93e,64ce5acb97489d65b14ecc7a,64cf49f0f9b448e22ecbd555,,,,,,,decisionTrl,resources/DY.BMP,resources/DG.BMP,Door4,-0.199511676,-0.011080317,1,0,0,0.8866,optionLeft,80,13765,7,14,0,14,0,1,,,,,,,,,,,,,,,,,,,,,,,,,,,,,,,,,,,,,,,
,,,,,,,,2023-08-06_08h21.41.015,HF_wild_card,2022.2.4,Linux x86_64,60.00960154,58ff27489ca116000122f93e,64ce5acb97489d65b14ecc7a,64cf49f0f9b448e22ecbd555,,,,,,,decisionTrl,resources/DP.BMP,resources/DB.BMP,Door1,-0.218478852,-0.018003688,1,0,0,0.8619,optionLeft,30,13795,7,15,0,15,0,1,,,,,,,,,,,,,,,,,,,,,,,,,,,,,,,,,,,,,,,
,,,,,,,,2023-08-06_08h21.41.015,HF_wild_card,2022.2.4,Linux x86_64,60.00960154,58ff27489ca116000122f93e,64ce5acb97489d65b14ecc7a,64cf49f0f9b448e22ecbd555,,,,,,,decisionTrl,resources/DB.BMP,resources/DP.BMP,Door2,-0.25775999,-0.031742006,1,0,0,0.8892,optionLeft,40,13835,7,16,0,16,0,1,,,,,,,,,,,,,,,,,,,,,,,,,,,,,,,,,,,,,,,
,,,,,,,,2023-08-06_08h21.41.015,HF_wild_card,2022.2.4,Linux x86_64,60.00960154,58ff27489ca116000122f93e,64ce5acb97489d65b14ecc7a,64cf49f0f9b448e22ecbd555,,,,,,,ctch,resources/DB.BMP,resources/DG.BMP,Door2,-0.282337744,-0.018467003,1,0,0,0.7618,optionLeft,40,13875,7,17,0,17,0,1,,,,,,,,,,,,,,,,,,,,,,,,,,,,,,,,,,,,,,,
,,,,,,,,2023-08-06_08h21.41.015,HF_wild_card,2022.2.4,Linux x86_64,60.00960154,58ff27489ca116000122f93e,64ce5acb97489d65b14ecc7a,64cf49f0f9b448e22ecbd555,,,,,,,ctch,resources/DP.BMP,resources/DY.BMP,Door1,-0.216563695,-0.022747738,1,0,0,1.4464,optionLeft,30,13905,7,18,0,18,0,1,,,,,,,,,,,,,,,,,,,,,,,,,,,,,,,,,,,,,,,
,,,,,,,,2023-08-06_08h21.41.015,HF_wild_card,2022.2.4,Linux x86_64,60.00960154,58ff27489ca116000122f93e,64ce5acb97489d65b14ecc7a,64cf49f0f9b448e22ecbd555,,,,,,,decisionTrl,resources/DG.BMP,resources/DY.BMP,Door3,-0.201074591,-0.030085962,1,0,0,0.8303,optionLeft,70,13975,7,19,0,19,0,1,,,,,,,,,,,,,,,,,,,,,,,,,,,,,,,,,,,,,,,
,,,,,,,,2023-08-06_08h21.41.015,HF_wild_card,2022.2.4,Linux x86_64,60.00960154,58ff27489ca116000122f93e,64ce5acb97489d65b14ecc7a,64cf49f0f9b448e22ecbd555,,,,,,,ctch,resources/DY.BMP,resources/DP.BMP,Door4,-0.244400526,-0.029328825,1,0,0,0.7634,optionLeft,80,14055,7,20,0,20,0,1,,,,,,,,,,,,,,,,,,,,,,,,,,,,,,,,,,,,,,,
,,,,,,,,2023-08-06_08h21.41.015,HF_wild_card,2022.2.4,Linux x86_64,60.00960154,58ff27489ca116000122f93e,64ce5acb97489d65b14ecc7a,64cf49f0f9b448e22ecbd555,,,,,,,decisionTrl,resources/DB.BMP,resources/DP.BMP,Door2,-0.238423522,-0.016659016,1,0,0,0.8453,optionLeft,20,14075,7,21,0,21,0,1,,,,,,,,,,,,,,,,,,,,,,,,,,,,,,,,,,,,,,,
,,,,,,,,2023-08-06_08h21.41.015,HF_wild_card,2022.2.4,Linux x86_64,60.00960154,58ff27489ca116000122f93e,64ce5acb97489d65b14ecc7a,64cf49f0f9b448e22ecbd555,,,,,,,decisionTrl,resources/DG.BMP,resources/DY.BMP,Door3,-0.206996004,-0.037341051,1,0,0,0.8623,optionLeft,70,14145,7,22,0,22,0,1,,,,,,,,,,,,,,,,,,,,,,,,,,,,,,,,,,,,,,,
,,,,,,,,2023-08-06_08h21.41.015,HF_wild_card,2022.2.4,Linux x86_64,60.00960154,58ff27489ca116000122f93e,64ce5acb97489d65b14ecc7a,64cf49f0f9b448e22ecbd555,,,,,,,decisionTrl,resources/DB.BMP,resources/DP.BMP,Door2,-0.152979318,-0.021676507,1,0,0,0.8465,optionLeft,20,14165,7,23,0,23,0,1,,,,,,,,,,,,,,,,,,,,,,,,,,,,,,,,,,,,,,,
,,,,,,,,2023-08-06_08h21.41.015,HF_wild_card,2022.2.4,Linux x86_64,60.00960154,58ff27489ca116000122f93e,64ce5acb97489d65b14ecc7a,64cf49f0f9b448e22ecbd555,,,,,,,decisionTrl,resources/DG.BMP,resources/DY.BMP,Door3,-0.219616599,-0.028442705,1,0,0,0.9809,optionLeft,70,14235,7,24,0,24,0,1,,,,,,,,,,,,,,,,,,,,,,,,,,,,,,,,,,,,,,,
,,,,,,,,2023-08-06_08h21.41.015,HF_wild_card,2022.2.4,Linux x86_64,60.00960154,58ff27489ca116000122f93e,64ce5acb97489d65b14ecc7a,64cf49f0f9b448e22ecbd555,,,,,,,ctch,resources/DP.BMP,resources/DY.BMP,Door1,-0.251908853,-0.021964525,1,0,0,0.8627,optionLeft,30,14265,7,25,0,25,0,1,,,,,,,,,,,,,,,,,,,,,,,,,,,,,,,,,,,,,,,
,,,,,,,,2023-08-06_08h21.41.015,HF_wild_card,2022.2.4,Linux x86_64,60.00960154,58ff27489ca116000122f93e,64ce5acb97489d65b14ecc7a,64cf49f0f9b448e22ecbd555,,,,,,,decisionTrl,resources/DY.BMP,resources/DG.BMP,Door4,-0.283777156,-0.009401348,1,0,0,0.9621,optionLeft,60,14325,7,26,0,26,0,1,,,,,,,,,,,,,,,,,,,,,,,,,,,,,,,,,,,,,,,
,,,,,,,,2023-08-06_08h21.41.015,HF_wild_card,2022.2.4,Linux x86_64,60.00960154,58ff27489ca116000122f93e,64ce5acb97489d65b14ecc7a,64cf49f0f9b448e22ecbd555,,,,,,,decisionTrl,resources/DG.BMP,resources/DY.BMP,Door3,-0.373260462,-0.012955213,1,0,0,0.8299,optionLeft,70,14395,7,27,0,27,0,1,,,,,,,,,,,,,,,,,,,,,,,,,,,,,,,,,,,,,,,
,,,,,,,,2023-08-06_08h21.41.015,HF_wild_card,2022.2.4,Linux x86_64,60.00960154,58ff27489ca116000122f93e,64ce5acb97489d65b14ecc7a,64cf49f0f9b448e22ecbd555,,,,,,,decisionTrl,resources/DB.BMP,resources/DP.BMP,Door2,-0.313369858,-0.016265081,1,0,0,0.9804,optionLeft,40,14435,7,28,0,28,0,1,,,,,,,,,,,,,,,,,,,,,,,,,,,,,,,,,,,,,,,
,,,,,,,,2023-08-06_08h21.41.015,HF_wild_card,2022.2.4,Linux x86_64,60.00960154,58ff27489ca116000122f93e,64ce5acb97489d65b14ecc7a,64cf49f0f9b448e22ecbd555,,,,,,,ctch,resources/DY.BMP,resources/DP.BMP,Door4,-0.252124625,-0.005826243,1,0,0,1.014,optionLeft,80,14515,7,29,0,29,0,1,,,,,,,,,,,,,,,,,,,,,,,,,,,,,,,,,,,,,,,
,,,,,,,,2023-08-06_08h21.41.015,HF_wild_card,2022.2.4,Linux x86_64,60.00960154,58ff27489ca116000122f93e,64ce5acb97489d65b14ecc7a,64cf49f0f9b448e22ecbd555,,,,,,,decisionTrl,resources/DY.BMP,resources/DG.BMP,Door4,-0.162002134,-0.017222588,1,0,0,0.8609,optionLeft,80,14595,7,30,0,30,0,1,,,,,,,,,,,,,,,,,,,,,,,,,,,,,,,,,,,,,,,
,,,,,,,,2023-08-06_08h21.41.015,HF_wild_card,2022.2.4,Linux x86_64,60.00960154,58ff27489ca116000122f93e,64ce5acb97489d65b14ecc7a,64cf49f0f9b448e22ecbd555,,,,,,,ctch,resources/DB.BMP,resources/DG.BMP,Door2,-0.311311892,-0.026606421,1,0,0,0.9969,optionLeft,20,14615,7,31,0,31,0,1,,,,,,,,,,,,,,,,,,,,,,,,,,,,,,,,,,,,,,,
,,,,,,,,2023-08-06_08h21.41.015,HF_wild_card,2022.2.4,Linux x86_64,60.00960154,58ff27489ca116000122f93e,64ce5acb97489d65b14ecc7a,64cf49f0f9b448e22ecbd555,,,,,,,decisionTrl,resources/DY.BMP,resources/DG.BMP,Door4,-0.26627683,-0.010093188,1,0,0,1.0135,optionLeft,80,14695,7,32,0,32,0,1,,,,,,,,,,,,,,,,,,,,,,,,,,,,,,,,,,,,,,,
,,,,,,,,2023-08-06_08h21.41.015,HF_wild_card,2022.2.4,Linux x86_64,60.00960154,58ff27489ca116000122f93e,64ce5acb97489d65b14ecc7a,64cf49f0f9b448e22ecbd555,,,,,,,ctch,resources/DG.BMP,resources/DB.BMP,Door3,-0.233800539,-0.018272686,1,0,0,0.964,optionLeft,70,14765,7,33,0,33,0,1,,,,,,,,,,,,,,,,,,,,,,,,,,,,,,,,,,,,,,,
,,,,,,,,2023-08-06_08h21.41.015,HF_wild_card,2022.2.4,Linux x86_64,60.00960154,58ff27489ca116000122f93e,64ce5acb97489d65b14ecc7a,64cf49f0f9b448e22ecbd555,,,,,,,decisionTrl,resources/DP.BMP,resources/DB.BMP,Door1,-0.307716334,-0.012175009,1,0,0,1.0631,optionLeft,30,14795,7,34,0,34,0,1,,,,,,,,,,,,,,,,,,,,,,,,,,,,,,,,,,,,,,,
,,,,,,,,2023-08-06_08h21.41.015,HF_wild_card,2022.2.4,Linux x86_64,60.00960154,58ff27489ca116000122f93e,64ce5acb97489d65b14ecc7a,64cf49f0f9b448e22ecbd555,,,,,,,decisionTrl,resources/DP.BMP,resources/DB.BMP,Door1,-0.314063847,-0.024199293,1,0,0,0.9634,optionLeft,30,14825,7,35,0,35,0,1,,,,,,,,,,,,,,,,,,,,,,,,,,,,,,,,,,,,,,,
