Condition,Low fixed image (Door1),Low risky image (Door2),High fixed image (Door3),High risky image (Door4),Extreme Wild Card,NonExtreme Wild Card,,date,expName,psychopyVersion,OS,frameRate,PROLIFIC_PID,STUDY_ID,SESSION_ID,mouse_2.x,mouse_2.y,mouse_2.leftButton,mouse_2.midButton,mouse_2.rightButton,mouse_2.clicked_name,Trial Type,Left Option Image,Right Option Image,Chosen Door,mouse.x,mouse.y,mouse.leftButton,mouse.midButton,mouse.rightButton,mouse.time,mouse.clicked_name,Feedback,Cumulative Reward,Block,trial.thisRepN,trial.thisTrialN,trial.thisN,trial.thisIndex,trial.ran,blocks.thisRepN,blocks.thisTrialN,blocks.thisN,blocks.thisIndex,blocks.ran,Money conversion,First Outcome Reported,Shown Door (First Outcome),Displayed Image (First Outcome),outcomes.thisRepN,outcomes.thisTrialN,outcomes.thisN,outcomes.thisIndex,outcomes.ran,judgments.thisRepN,judgments.thisTrialN,judgments.thisN,judgments.thisIndex,judgments.ran,freqMouse.x,freqMouse.y,freqMouse.leftButton,freqMouse.midButton,freqMouse.rightButton,freqMouse.clicked_name,FQJ for first outcome,FQJ for second outcome,Shown Door,Displayed Image,trials.thisRepN,trials.thisTrialN,trials.thisN,trials.thisIndex,trials.ran,judgBlock.thisRepN,judgBlock.thisTrialN,judgBlock.thisN,judgBlock.thisIndex,judgBlock.ran
0,resources/DG.BMP,resources/DR.BMP,resources/DBN.BMP,resources/DB.BMP,resources/DY.BMP,resources/DP.BMP,,2023-08-06_08h18.48.067,HF_wild_card,2022.2.4,MacIntel,55.55555556,610beac47b52b6084cddf5cd,64ce5acb97489d65b14ecc7a,64cf49167cae1d5dc4f7debd,,,,,,,,,,,,,,,,,,,,,,,,,,,,,,,,,,,,,,,,,,,,,,,,,,,,,,,,,,,,,,,,
,,,,,,,,2023-08-06_08h18.48.067,HF_wild_card,2022.2.4,MacIntel,55.55555556,610beac47b52b6084cddf5cd,64ce5acb97489d65b14ecc7a,64cf49167cae1d5dc4f7debd,0.004444444,-0.425555556,1,0,0,agree,,,,,,,,,,,,,,,,,,,,,,,,,,,,,,,,,,,,,,,,,,,,,,,,,,,,,,,,,,
,,,,,,,,2023-08-06_08h18.48.067,HF_wild_card,2022.2.4,MacIntel,55.55555556,610beac47b52b6084cddf5cd,64ce5acb97489d65b14ecc7a,64cf49167cae1d5dc4f7debd,,,,,,,,,,,,,,,,,,,,,,,,,,,,,,,,,,,,,,,,,,,,,,,,,,,,,,,,,,,,,,,,
,,,,,,,,2023-08-06_08h18.48.067,HF_wild_card,2022.2.4,MacIntel,55.55555556,610beac47b52b6084cddf5cd,64ce5acb97489d65b14ecc7a,64cf49167cae1d5dc4f7debd,,,,,,,decisionTrl,resources/DG.BMP,resources/DR.BMP,Door1,-0.295555556,-0.094444444,1,0,0,1.606,optionLeft,30,30,1,0,0,0,0,1,,,,,,,,,,,,,,,,,,,,,,,,,,,,,,,,,,,,,,,
,,,,,,,,2023-08-06_08h18.48.067,HF_wild_card,2022.2.4,MacIntel,55.55555556,610beac47b52b6084cddf5cd,64ce5acb97489d65b14ecc7a,64cf49167cae1d5dc4f7debd,,,,,,,sngl,resources/DB.BMP,resources/Empty.png,Door4,-0.412222222,-0.037777778,1,0,0,1.453,optionLeft,80,110,1,1,0,1,0,1,,,,,,,,,,,,,,,,,,,,,,,,,,,,,,,,,,,,,,,
,,,,,,,,2023-08-06_08h18.48.067,HF_wild_card,2022.2.4,MacIntel,55.55555556,610beac47b52b6084cddf5cd,64ce5acb97489d65b14ecc7a,64cf49167cae1d5dc4f7debd,,,,,,,ctch,resources/DB.BMP,resources/DG.BMP,Door1,0.331111111,-0.022222222,1,0,0,1.136,optionRight,30,140,1,2,0,2,0,1,,,,,,,,,,,,,,,,,,,,,,,,,,,,,,,,,,,,,,,
,,,,,,,,2023-08-06_08h18.48.067,HF_wild_card,2022.2.4,MacIntel,55.55555556,610beac47b52b6084cddf5cd,64ce5acb97489d65b14ecc7a,64cf49167cae1d5dc4f7debd,,,,,,,ctch,resources/DBN.BMP,resources/DR.BMP,Door2,0.347777778,-0.035555556,1,0,0,1.109,optionRight,20,160,1,3,0,3,0,1,,,,,,,,,,,,,,,,,,,,,,,,,,,,,,,,,,,,,,,
,,,,,,,,2023-08-06_08h18.48.067,HF_wild_card,2022.2.4,MacIntel,55.55555556,610beac47b52b6084cddf5cd,64ce5acb97489d65b14ecc7a,64cf49167cae1d5dc4f7debd,,,,,,,decisionTrl,resources/DY.BMP,resources/DG.BMP,Door1,0.338888889,-0.073333333,1,0,0,0.821,optionRight,30,190,1,4,0,4,0,1,,,,,,,,,,,,,,,,,,,,,,,,,,,,,,,,,,,,,,,
,,,,,,,,2023-08-06_08h18.48.067,HF_wild_card,2022.2.4,MacIntel,55.55555556,610beac47b52b6084cddf5cd,64ce5acb97489d65b14ecc7a,64cf49167cae1d5dc4f7debd,,,,,,,sngl,resources/Empty.png,resources/DY.BMP,WildCard_Ex,0.288888889,-0.036666667,1,0,0,0.66,optionRight,5,195,1,5,0,5,0,1,,,,,,,,,,,,,,,,,,,,,,,,,,,,,,,,,,,,,,,
,,,,,,,,2023-08-06_08h18.48.067,HF_wild_card,2022.2.4,MacIntel,55.55555556,610beac47b52b6084cddf5cd,64ce5acb97489d65b14ecc7a,64cf49167cae1d5dc4f7debd,,,,,,,decisionTrl,resources/DBN.BMP,resources/DY.BMP,Door3,-0.342222222,-0.02,1,0,0,0.572,optionLeft,70,265,1,6,0,6,0,1,,,,,,,,,,,,,,,,,,,,,,,,,,,,,,,,,,,,,,,
,,,,,,,,2023-08-06_08h18.48.067,HF_wild_card,2022.2.4,MacIntel,55.55555556,610beac47b52b6084cddf5cd,64ce5acb97489d65b14ecc7a,64cf49167cae1d5dc4f7debd,,,,,,,decisionTrl,resources/DG.BMP,resources/DR.BMP,Door2,0.324444444,-0.041111111,1,0,0,0.884,optionRight,40,305,1,7,0,7,0,1,,,,,,,,,,,,,,,,,,,,,,,,,,,,,,,,,,,,,,,
,,,,,,,,2023-08-06_08h18.48.067,HF_wild_card,2022.2.4,MacIntel,55.55555556,610beac47b52b6084cddf5cd,64ce5acb97489d65b14ecc7a,64cf49167cae1d5dc4f7debd,,,,,,,decisionTrl,resources/DB.BMP,resources/DBN.BMP,Door3,0.303333333,-0.067777778,1,0,0,0.816,optionRight,70,375,1,8,0,8,0,1,,,,,,,,,,,,,,,,,,,,,,,,,,,,,,,,,,,,,,,
,,,,,,,,2023-08-06_08h18.48.067,HF_wild_card,2022.2.4,MacIntel,55.55555556,610beac47b52b6084cddf5cd,64ce5acb97489d65b14ecc7a,64cf49167cae1d5dc4f7debd,,,,,,,ctch,resources/DG.BMP,resources/DB.BMP,Door4,0.307777778,-0.044444444,1,0,0,1.71,optionRight,60,435,1,9,0,9,0,1,,,,,,,,,,,,,,,,,,,,,,,,,,,,,,,,,,,,,,,
,,,,,,,,2023-08-06_08h18.48.067,HF_wild_card,2022.2.4,MacIntel,55.55555556,610beac47b52b6084cddf5cd,64ce5acb97489d65b14ecc7a,64cf49167cae1d5dc4f7debd,,,,,,,decisionTrl,resources/DR.BMP,resources/DG.BMP,Door2,-0.386666667,-0.022222222,1,0,0,0.874,optionLeft,40,475,1,10,0,10,0,1,,,,,,,,,,,,,,,,,,,,,,,,,,,,,,,,,,,,,,,
,,,,,,,,2023-08-06_08h18.48.067,HF_wild_card,2022.2.4,MacIntel,55.55555556,610beac47b52b6084cddf5cd,64ce5acb97489d65b14ecc7a,64cf49167cae1d5dc4f7debd,,,,,,,decisionTrl,resources/DG.BMP,resources/DY.BMP,WildCard_Ex,0.336666667,-0.093333333,1,0,0,0.783,optionRight,95,570,1,11,0,11,0,1,,,,,,,,,,,,,,,,,,,,,,,,,,,,,,,,,,,,,,,
,,,,,,,,2023-08-06_08h18.48.067,HF_wild_card,2022.2.4,MacIntel,55.55555556,610beac47b52b6084cddf5cd,64ce5acb97489d65b14ecc7a,64cf49167cae1d5dc4f7debd,,,,,,,sngl,resources/Empty.png,resources/DB.BMP,Door4,0.437777778,-0.061111111,1,0,0,0.627,optionRight,60,630,1,12,0,12,0,1,,,,,,,,,,,,,,,,,,,,,,,,,,,,,,,,,,,,,,,
,,,,,,,,2023-08-06_08h18.48.067,HF_wild_card,2022.2.4,MacIntel,55.55555556,610beac47b52b6084cddf5cd,64ce5acb97489d65b14ecc7a,64cf49167cae1d5dc4f7debd,,,,,,,sngl,resources/DBN.BMP,resources/Empty.png,Door3,-0.278888889,-0.018888889,1,0,0,0.678,optionLeft,70,700,1,13,0,13,0,1,,,,,,,,,,,,,,,,,,,,,,,,,,,,,,,,,,,,,,,
,,,,,,,,2023-08-06_08h18.48.067,HF_wild_card,2022.2.4,MacIntel,55.55555556,610beac47b52b6084cddf5cd,64ce5acb97489d65b14ecc7a,64cf49167cae1d5dc4f7debd,,,,,,,decisionTrl,resources/DR.BMP,resources/DY.BMP,WildCard_Ex,0.334444444,-0.031111111,1,0,0,0.491,optionRight,5,705,1,14,0,14,0,1,,,,,,,,,,,,,,,,,,,,,,,,,,,,,,,,,,,,,,,
,,,,,,,,2023-08-06_08h18.48.067,HF_wild_card,2022.2.4,MacIntel,55.55555556,610beac47b52b6084cddf5cd,64ce5acb97489d65b14ecc7a,64cf49167cae1d5dc4f7debd,,,,,,,decisionTrl,resources/DR.BMP,resources/DG.BMP,Door1,0.398888889,-0.038888889,1,0,0,0.478,optionRight,30,735,1,15,0,15,0,1,,,,,,,,,,,,,,,,,,,,,,,,,,,,,,,,,,,,,,,
,,,,,,,,2023-08-06_08h18.48.067,HF_wild_card,2022.2.4,MacIntel,55.55555556,610beac47b52b6084cddf5cd,64ce5acb97489d65b14ecc7a,64cf49167cae1d5dc4f7debd,,,,,,,ctch,resources/DR.BMP,resources/DBN.BMP,Door2,-0.291111111,-0.052222222,1,0,0,0.443,optionLeft,20,755,1,16,0,16,0,1,,,,,,,,,,,,,,,,,,,,,,,,,,,,,,,,,,,,,,,
,,,,,,,,2023-08-06_08h18.48.067,HF_wild_card,2022.2.4,MacIntel,55.55555556,610beac47b52b6084cddf5cd,64ce5acb97489d65b14ecc7a,64cf49167cae1d5dc4f7debd,,,,,,,decisionTrl,resources/DY.BMP,resources/DBN.BMP,Door3,0.298888889,-0.091111111,1,0,0,0.526,optionRight,70,825,1,17,0,17,0,1,,,,,,,,,,,,,,,,,,,,,,,,,,,,,,,,,,,,,,,
,,,,,,,,2023-08-06_08h18.48.067,HF_wild_card,2022.2.4,MacIntel,55.55555556,610beac47b52b6084cddf5cd,64ce5acb97489d65b14ecc7a,64cf49167cae1d5dc4f7debd,,,,,,,sngl,resources/Empty.png,resources/DBN.BMP,Door3,0.368888889,-0.047777778,1,0,0,0.455,optionRight,70,895,1,18,0,18,0,1,,,,,,,,,,,,,,,,,,,,,,,,,,,,,,,,,,,,,,,
,,,,,,,,2023-08-06_08h18.48.067,HF_wild_card,2022.2.4,MacIntel,55.55555556,610beac47b52b6084cddf5cd,64ce5acb97489d65b14ecc7a,64cf49167cae1d5dc4f7debd,,,,,,,ctch,resources/DG.BMP,resources/DB.BMP,Door4,0.281111111,-0.038888889,1,0,0,0.741,optionRight,60,955,1,19,0,19,0,1,,,,,,,,,,,,,,,,,,,,,,,,,,,,,,,,,,,,,,,
,,,,,,,,2023-08-06_08h18.48.067,HF_wild_card,2022.2.4,MacIntel,55.55555556,610beac47b52b6084cddf5cd,64ce5acb97489d65b14ecc7a,64cf49167cae1d5dc4f7debd,,,,,,,ctch,resources/DB.BMP,resources/DG.BMP,Door4,-0.505555556,-0.083333333,1,0,0,0.82,optionLeft,60,1015,1,20,0,20,0,1,,,,,,,,,,,,,,,,,,,,,,,,,,,,,,,,,,,,,,,
,,,,,,,,2023-08-06_08h18.48.067,HF_wild_card,2022.2.4,MacIntel,55.55555556,610beac47b52b6084cddf5cd,64ce5acb97489d65b14ecc7a,64cf49167cae1d5dc4f7debd,,,,,,,sngl,resources/Empty.png,resources/DR.BMP,Door2,0.313333333,-0.135555556,1,0,0,0.742,optionRight,20,1035,1,21,0,21,0,1,,,,,,,,,,,,,,,,,,,,,,,,,,,,,,,,,,,,,,,
,,,,,,,,2023-08-06_08h18.48.067,HF_wild_card,2022.2.4,MacIntel,55.55555556,610beac47b52b6084cddf5cd,64ce5acb97489d65b14ecc7a,64cf49167cae1d5dc4f7debd,,,,,,,decisionTrl,resources/DBN.BMP,resources/DB.BMP,Door3,-0.404444444,-0.022222222,1,0,0,0.737,optionLeft,70,1105,1,22,0,22,0,1,,,,,,,,,,,,,,,,,,,,,,,,,,,,,,,,,,,,,,,
,,,,,,,,2023-08-06_08h18.48.067,HF_wild_card,2022.2.4,MacIntel,55.55555556,610beac47b52b6084cddf5cd,64ce5acb97489d65b14ecc7a,64cf49167cae1d5dc4f7debd,,,,,,,sngl,resources/DY.BMP,resources/Empty.png,WildCard_Ex,-0.332222222,-0.057777778,1,0,0,1.028,optionLeft,5,1110,1,23,0,23,0,1,,,,,,,,,,,,,,,,,,,,,,,,,,,,,,,,,,,,,,,
,,,,,,,,2023-08-06_08h18.48.067,HF_wild_card,2022.2.4,MacIntel,55.55555556,610beac47b52b6084cddf5cd,64ce5acb97489d65b14ecc7a,64cf49167cae1d5dc4f7debd,,,,,,,ctch,resources/DR.BMP,resources/DBN.BMP,Door3,0.301111111,-0.026666667,1,0,0,0.514,optionRight,70,1180,1,24,0,24,0,1,,,,,,,,,,,,,,,,,,,,,,,,,,,,,,,,,,,,,,,
,,,,,,,,2023-08-06_08h18.48.067,HF_wild_card,2022.2.4,MacIntel,55.55555556,610beac47b52b6084cddf5cd,64ce5acb97489d65b14ecc7a,64cf49167cae1d5dc4f7debd,,,,,,,sngl,resources/DY.BMP,resources/Empty.png,WildCard_Ex,-0.325555556,-0.01,1,0,0,0.645,optionLeft,95,1275,1,25,0,25,0,1,,,,,,,,,,,,,,,,,,,,,,,,,,,,,,,,,,,,,,,
,,,,,,,,2023-08-06_08h18.48.067,HF_wild_card,2022.2.4,MacIntel,55.55555556,610beac47b52b6084cddf5cd,64ce5acb97489d65b14ecc7a,64cf49167cae1d5dc4f7debd,,,,,,,sngl,resources/Empty.png,resources/DG.BMP,Door1,0.336666667,-0.022222222,1,0,0,0.796,optionRight,30,1305,1,26,0,26,0,1,,,,,,,,,,,,,,,,,,,,,,,,,,,,,,,,,,,,,,,
,,,,,,,,2023-08-06_08h18.48.067,HF_wild_card,2022.2.4,MacIntel,55.55555556,610beac47b52b6084cddf5cd,64ce5acb97489d65b14ecc7a,64cf49167cae1d5dc4f7debd,,,,,,,decisionTrl,resources/DY.BMP,resources/DB.BMP,WildCard_Ex,-0.325555556,-0.033333333,1,0,0,0.992,optionLeft,5,1310,1,27,0,27,0,1,,,,,,,,,,,,,,,,,,,,,,,,,,,,,,,,,,,,,,,
,,,,,,,,2023-08-06_08h18.48.067,HF_wild_card,2022.2.4,MacIntel,55.55555556,610beac47b52b6084cddf5cd,64ce5acb97489d65b14ecc7a,64cf49167cae1d5dc4f7debd,,,,,,,decisionTrl,resources/DG.BMP,resources/DR.BMP,Door2,0.378888889,-0.001111111,1,0,0,1.162,optionRight,40,1350,1,28,0,28,0,1,,,,,,,,,,,,,,,,,,,,,,,,,,,,,,,,,,,,,,,
,,,,,,,,2023-08-06_08h18.48.067,HF_wild_card,2022.2.4,MacIntel,55.55555556,610beac47b52b6084cddf5cd,64ce5acb97489d65b14ecc7a,64cf49167cae1d5dc4f7debd,,,,,,,decisionTrl,resources/DB.BMP,resources/DY.BMP,WildCard_Ex,0.354444444,-0.054444444,1,0,0,0.959,optionRight,5,1355,1,29,0,29,0,1,,,,,,,,,,,,,,,,,,,,,,,,,,,,,,,,,,,,,,,
,,,,,,,,2023-08-06_08h18.48.067,HF_wild_card,2022.2.4,MacIntel,55.55555556,610beac47b52b6084cddf5cd,64ce5acb97489d65b14ecc7a,64cf49167cae1d5dc4f7debd,,,,,,,decisionTrl,resources/DR.BMP,resources/DG.BMP,Door1,0.287777778,-0.023333333,1,0,0,0.672,optionRight,30,1385,1,30,0,30,0,1,,,,,,,,,,,,,,,,,,,,,,,,,,,,,,,,,,,,,,,
,,,,,,,,2023-08-06_08h18.48.067,HF_wild_card,2022.2.4,MacIntel,55.55555556,610beac47b52b6084cddf5cd,64ce5acb97489d65b14ecc7a,64cf49167cae1d5dc4f7debd,,,,,,,sngl,resources/DR.BMP,resources/Empty.png,Door2,-0.313333333,-0.024444444,1,0,0,0.547,optionLeft,40,1425,1,31,0,31,0,1,,,,,,,,,,,,,,,,,,,,,,,,,,,,,,,,,,,,,,,
,,,,,,,,2023-08-06_08h18.48.067,HF_wild_card,2022.2.4,MacIntel,55.55555556,610beac47b52b6084cddf5cd,64ce5acb97489d65b14ecc7a,64cf49167cae1d5dc4f7debd,,,,,,,decisionTrl,resources/DY.BMP,resources/DR.BMP,Door2,0.347777778,-0.022222222,1,0,0,0.827,optionRight,40,1465,1,32,0,32,0,1,,,,,,,,,,,,,,,,,,,,,,,,,,,,,,,,,,,,,,,
,,,,,,,,2023-08-06_08h18.48.067,HF_wild_card,2022.2.4,MacIntel,55.55555556,610beac47b52b6084cddf5cd,64ce5acb97489d65b14ecc7a,64cf49167cae1d5dc4f7debd,,,,,,,decisionTrl,resources/DBN.BMP,resources/DB.BMP,Door3,-0.316666667,0.008888889,1,0,0,0.678,optionLeft,70,1535,1,33,0,33,0,1,,,,,,,,,,,,,,,,,,,,,,,,,,,,,,,,,,,,,,,
,,,,,,,,2023-08-06_08h18.48.067,HF_wild_card,2022.2.4,MacIntel,55.55555556,610beac47b52b6084cddf5cd,64ce5acb97489d65b14ecc7a,64cf49167cae1d5dc4f7debd,,,,,,,decisionTrl,resources/DBN.BMP,resources/DB.BMP,Door3,-0.367777778,-0.03,1,0,0,0.778,optionLeft,70,1605,1,34,0,34,0,1,,,,,,,,,,,,,,,,,,,,,,,,,,,,,,,,,,,,,,,
,,,,,,,,2023-08-06_08h18.48.067,HF_wild_card,2022.2.4,MacIntel,55.55555556,610beac47b52b6084cddf5cd,64ce5acb97489d65b14ecc7a,64cf49167cae1d5dc4f7debd,,,,,,,ctch,resources/DBN.BMP,resources/DR.BMP,Door3,-0.473333333,0.028888889,1,0,0,1.395,optionLeft,70,1675,1,35,0,35,0,1,,,,,,,,,,,,,,,,,,,,,,,,,,,,,,,,,,,,,,,
,,,,,,,,2023-08-06_08h18.48.067,HF_wild_card,2022.2.4,MacIntel,55.55555556,610beac47b52b6084cddf5cd,64ce5acb97489d65b14ecc7a,64cf49167cae1d5dc4f7debd,,,,,,,decisionTrl,resources/DB.BMP,resources/DBN.BMP,Door3,0.35,-0.081111111,1,0,0,0.661,optionRight,70,1745,1,36,0,36,0,1,,,,,,,,,,,,,,,,,,,,,,,,,,,,,,,,,,,,,,,
,,,,,,,,2023-08-06_08h18.48.067,HF_wild_card,2022.2.4,MacIntel,55.55555556,610beac47b52b6084cddf5cd,64ce5acb97489d65b14ecc7a,64cf49167cae1d5dc4f7debd,,,,,,,decisionTrl,resources/DR.BMP,resources/DG.BMP,Door2,-0.382222222,-0.081111111,1,0,0,1.368,optionLeft,40,1785,1,37,0,37,0,1,,,,,,,,,,,,,,,,,,,,,,,,,,,,,,,,,,,,,,,
,,,,,,,,2023-08-06_08h18.48.067,HF_wild_card,2022.2.4,MacIntel,55.55555556,610beac47b52b6084cddf5cd,64ce5acb97489d65b14ecc7a,64cf49167cae1d5dc4f7debd,,,,,,,sngl,resources/Empty.png,resources/DY.BMP,WildCard_Ex,0.34,0.002222222,1,0,0,0.861,optionRight,95,1880,1,38,0,38,0,1,,,,,,,,,,,,,,,,,,,,,,,,,,,,,,,,,,,,,,,
,,,,,,,,2023-08-06_08h18.48.067,HF_wild_card,2022.2.4,MacIntel,55.55555556,610beac47b52b6084cddf5cd,64ce5acb97489d65b14ecc7a,64cf49167cae1d5dc4f7debd,,,,,,,decisionTrl,resources/DB.BMP,resources/DBN.BMP,Door3,0.317777778,-0.041111111,1,0,0,0.696,optionRight,70,1950,1,39,0,39,0,1,,,,,,,,,,,,,,,,,,,,,,,,,,,,,,,,,,,,,,,
,,,,,,,,2023-08-06_08h18.48.067,HF_wild_card,2022.2.4,MacIntel,55.55555556,610beac47b52b6084cddf5cd,64ce5acb97489d65b14ecc7a,64cf49167cae1d5dc4f7debd,,,,,,,sngl,resources/DG.BMP,resources/Empty.png,Door1,-0.364444444,-0.042222222,1,0,0,0.579,optionLeft,30,1980,1,40,0,40,0,1,,,,,,,,,,,,,,,,,,,,,,,,,,,,,,,,,,,,,,,
,,,,,,,,2023-08-06_08h18.48.067,HF_wild_card,2022.2.4,MacIntel,55.55555556,610beac47b52b6084cddf5cd,64ce5acb97489d65b14ecc7a,64cf49167cae1d5dc4f7debd,,,,,,,decisionTrl,resources/DG.BMP,resources/DR.BMP,Door2,0.31,0.02,1,0,0,0.662,optionRight,40,2020,1,41,0,41,0,1,,,,,,,,,,,,,,,,,,,,,,,,,,,,,,,,,,,,,,,
,,,,,,,,2023-08-06_08h18.48.067,HF_wild_card,2022.2.4,MacIntel,55.55555556,610beac47b52b6084cddf5cd,64ce5acb97489d65b14ecc7a,64cf49167cae1d5dc4f7debd,,,,,,,decisionTrl,resources/DBN.BMP,resources/DB.BMP,Door3,-0.513333333,-0.043333333,1,0,0,0.728,optionLeft,70,2090,1,42,0,42,0,1,,,,,,,,,,,,,,,,,,,,,,,,,,,,,,,,,,,,,,,
,,,,,,,,2023-08-06_08h18.48.067,HF_wild_card,2022.2.4,MacIntel,55.55555556,610beac47b52b6084cddf5cd,64ce5acb97489d65b14ecc7a,64cf49167cae1d5dc4f7debd,,,,,,,decisionTrl,resources/DB.BMP,resources/DBN.BMP,Door3,0.3,-0.034444444,1,0,0,0.644,optionRight,70,2160,1,43,0,43,0,1,,,,,,,,,,,,,,,,,,,,,,,,,,,,,,,,,,,,,,,
,,,,,,,,2023-08-06_08h18.48.067,HF_wild_card,2022.2.4,MacIntel,55.55555556,610beac47b52b6084cddf5cd,64ce5acb97489d65b14ecc7a,64cf49167cae1d5dc4f7debd,,,,,,,,,,,,,,,,,,,,,,,,,,0,0,0,0,1,,,,,,,,,,,,,,,,,,,,,,,,,,,,,,,,,,
,,,,,,,,2023-08-06_08h18.48.067,HF_wild_card,2022.2.4,MacIntel,55.55555556,610beac47b52b6084cddf5cd,64ce5acb97489d65b14ecc7a,64cf49167cae1d5dc4f7debd,,,,,,,ctch,resources/DG.BMP,resources/DB.BMP,Door1,-0.508888889,-0.09,1,0,0,1.084,optionLeft,30,2190,2,0,0,0,0,1,,,,,,,,,,,,,,,,,,,,,,,,,,,,,,,,,,,,,,,
,,,,,,,,2023-08-06_08h18.48.067,HF_wild_card,2022.2.4,MacIntel,55.55555556,610beac47b52b6084cddf5cd,64ce5acb97489d65b14ecc7a,64cf49167cae1d5dc4f7debd,,,,,,,sngl,resources/Empty.png,resources/DG.BMP,Door1,0.255555556,0.015555556,1,0,0,0.509,optionRight,30,2220,2,1,0,1,0,1,,,,,,,,,,,,,,,,,,,,,,,,,,,,,,,,,,,,,,,
,,,,,,,,2023-08-06_08h18.48.067,HF_wild_card,2022.2.4,MacIntel,55.55555556,610beac47b52b6084cddf5cd,64ce5acb97489d65b14ecc7a,64cf49167cae1d5dc4f7debd,,,,,,,sngl,resources/DR.BMP,resources/Empty.png,Door2,-0.36,-0.027777778,1,0,0,0.428,optionLeft,20,2240,2,2,0,2,0,1,,,,,,,,,,,,,,,,,,,,,,,,,,,,,,,,,,,,,,,
,,,,,,,,2023-08-06_08h18.48.067,HF_wild_card,2022.2.4,MacIntel,55.55555556,610beac47b52b6084cddf5cd,64ce5acb97489d65b14ecc7a,64cf49167cae1d5dc4f7debd,,,,,,,ctch,resources/DBN.BMP,resources/DR.BMP,Door2,0.287777778,-0.02,1,0,0,0.429,optionRight,20,2260,2,3,0,3,0,1,,,,,,,,,,,,,,,,,,,,,,,,,,,,,,,,,,,,,,,
,,,,,,,,2023-08-06_08h18.48.067,HF_wild_card,2022.2.4,MacIntel,55.55555556,610beac47b52b6084cddf5cd,64ce5acb97489d65b14ecc7a,64cf49167cae1d5dc4f7debd,,,,,,,decisionTrl,resources/DG.BMP,resources/DR.BMP,Door1,-0.185555556,0.007777778,1,0,0,0.608,optionLeft,30,2290,2,4,0,4,0,1,,,,,,,,,,,,,,,,,,,,,,,,,,,,,,,,,,,,,,,
,,,,,,,,2023-08-06_08h18.48.067,HF_wild_card,2022.2.4,MacIntel,55.55555556,610beac47b52b6084cddf5cd,64ce5acb97489d65b14ecc7a,64cf49167cae1d5dc4f7debd,,,,,,,decisionTrl,resources/DR.BMP,resources/DG.BMP,Door1,0.268888889,0,1,0,0,0.478,optionRight,30,2320,2,5,0,5,0,1,,,,,,,,,,,,,,,,,,,,,,,,,,,,,,,,,,,,,,,
,,,,,,,,2023-08-06_08h18.48.067,HF_wild_card,2022.2.4,MacIntel,55.55555556,610beac47b52b6084cddf5cd,64ce5acb97489d65b14ecc7a,64cf49167cae1d5dc4f7debd,,,,,,,sngl,resources/DG.BMP,resources/Empty.png,Door1,-0.35,0.013333333,1,0,0,0.462,optionLeft,30,2350,2,6,0,6,0,1,,,,,,,,,,,,,,,,,,,,,,,,,,,,,,,,,,,,,,,
,,,,,,,,2023-08-06_08h18.48.067,HF_wild_card,2022.2.4,MacIntel,55.55555556,610beac47b52b6084cddf5cd,64ce5acb97489d65b14ecc7a,64cf49167cae1d5dc4f7debd,,,,,,,decisionTrl,resources/DB.BMP,resources/DBN.BMP,Door3,0.32,-0.028888889,1,0,0,0.714,optionRight,70,2420,2,7,0,7,0,1,,,,,,,,,,,,,,,,,,,,,,,,,,,,,,,,,,,,,,,
,,,,,,,,2023-08-06_08h18.48.067,HF_wild_card,2022.2.4,MacIntel,55.55555556,610beac47b52b6084cddf5cd,64ce5acb97489d65b14ecc7a,64cf49167cae1d5dc4f7debd,,,,,,,sngl,resources/Empty.png,resources/DY.BMP,WildCard_Ex,0.331111111,-0.005555556,1,0,0,0.473,optionRight,5,2425,2,8,0,8,0,1,,,,,,,,,,,,,,,,,,,,,,,,,,,,,,,,,,,,,,,
,,,,,,,,2023-08-06_08h18.48.067,HF_wild_card,2022.2.4,MacIntel,55.55555556,610beac47b52b6084cddf5cd,64ce5acb97489d65b14ecc7a,64cf49167cae1d5dc4f7debd,,,,,,,decisionTrl,resources/DB.BMP,resources/DY.BMP,Door4,-0.403333333,-0.018888889,1,0,0,0.479,optionLeft,80,2505,2,9,0,9,0,1,,,,,,,,,,,,,,,,,,,,,,,,,,,,,,,,,,,,,,,
,,,,,,,,2023-08-06_08h18.48.067,HF_wild_card,2022.2.4,MacIntel,55.55555556,610beac47b52b6084cddf5cd,64ce5acb97489d65b14ecc7a,64cf49167cae1d5dc4f7debd,,,,,,,decisionTrl,resources/DB.BMP,resources/DBN.BMP,Door4,-0.537777778,-0.046666667,1,0,0,0.627,optionLeft,80,2585,2,10,0,10,0,1,,,,,,,,,,,,,,,,,,,,,,,,,,,,,,,,,,,,,,,
,,,,,,,,2023-08-06_08h18.48.067,HF_wild_card,2022.2.4,MacIntel,55.55555556,610beac47b52b6084cddf5cd,64ce5acb97489d65b14ecc7a,64cf49167cae1d5dc4f7debd,,,,,,,decisionTrl,resources/DY.BMP,resources/DBN.BMP,Door3,0.283333333,0.002222222,1,0,0,0.611,optionRight,70,2655,2,11,0,11,0,1,,,,,,,,,,,,,,,,,,,,,,,,,,,,,,,,,,,,,,,
,,,,,,,,2023-08-06_08h18.48.067,HF_wild_card,2022.2.4,MacIntel,55.55555556,610beac47b52b6084cddf5cd,64ce5acb97489d65b14ecc7a,64cf49167cae1d5dc4f7debd,,,,,,,decisionTrl,resources/DBN.BMP,resources/DB.BMP,Door3,-0.295555556,0.038888889,1,0,0,0.647,optionLeft,70,2725,2,12,0,12,0,1,,,,,,,,,,,,,,,,,,,,,,,,,,,,,,,,,,,,,,,
,,,,,,,,2023-08-06_08h18.48.067,HF_wild_card,2022.2.4,MacIntel,55.55555556,610beac47b52b6084cddf5cd,64ce5acb97489d65b14ecc7a,64cf49167cae1d5dc4f7debd,,,,,,,sngl,resources/Empty.png,resources/DR.BMP,Door2,0.28,0.004444444,1,0,0,0.726,optionRight,40,2765,2,13,0,13,0,1,,,,,,,,,,,,,,,,,,,,,,,,,,,,,,,,,,,,,,,
,,,,,,,,2023-08-06_08h18.48.067,HF_wild_card,2022.2.4,MacIntel,55.55555556,610beac47b52b6084cddf5cd,64ce5acb97489d65b14ecc7a,64cf49167cae1d5dc4f7debd,,,,,,,decisionTrl,resources/DG.BMP,resources/DR.BMP,Door1,0.004444444,0.016666667,1,0,0,0.027,optionLeft,30,2795,2,14,0,14,0,1,,,,,,,,,,,,,,,,,,,,,,,,,,,,,,,,,,,,,,,
,,,,,,,,2023-08-06_08h18.48.067,HF_wild_card,2022.2.4,MacIntel,55.55555556,610beac47b52b6084cddf5cd,64ce5acb97489d65b14ecc7a,64cf49167cae1d5dc4f7debd,,,,,,,decisionTrl,resources/DR.BMP,resources/DY.BMP,WildCard_Ex,0.263333333,0.034444444,1,0,0,0.897,optionRight,95,2890,2,15,0,15,0,1,,,,,,,,,,,,,,,,,,,,,,,,,,,,,,,,,,,,,,,
,,,,,,,,2023-08-06_08h18.48.067,HF_wild_card,2022.2.4,MacIntel,55.55555556,610beac47b52b6084cddf5cd,64ce5acb97489d65b14ecc7a,64cf49167cae1d5dc4f7debd,,,,,,,ctch,resources/DB.BMP,resources/DG.BMP,Door4,-0.308888889,-0.005555556,1,0,0,1.72,optionLeft,80,2970,2,16,0,16,0,1,,,,,,,,,,,,,,,,,,,,,,,,,,,,,,,,,,,,,,,
,,,,,,,,2023-08-06_08h18.48.067,HF_wild_card,2022.2.4,MacIntel,55.55555556,610beac47b52b6084cddf5cd,64ce5acb97489d65b14ecc7a,64cf49167cae1d5dc4f7debd,,,,,,,ctch,resources/DG.BMP,resources/DB.BMP,Door4,0.285555556,0.053333333,1,0,0,0.843,optionRight,80,3050,2,17,0,17,0,1,,,,,,,,,,,,,,,,,,,,,,,,,,,,,,,,,,,,,,,
,,,,,,,,2023-08-06_08h18.48.067,HF_wild_card,2022.2.4,MacIntel,55.55555556,610beac47b52b6084cddf5cd,64ce5acb97489d65b14ecc7a,64cf49167cae1d5dc4f7debd,,,,,,,decisionTrl,resources/DR.BMP,resources/DG.BMP,Door2,-0.328888889,0.011111111,1,0,0,1.451,optionLeft,20,3070,2,18,0,18,0,1,,,,,,,,,,,,,,,,,,,,,,,,,,,,,,,,,,,,,,,
,,,,,,,,2023-08-06_08h18.48.067,HF_wild_card,2022.2.4,MacIntel,55.55555556,610beac47b52b6084cddf5cd,64ce5acb97489d65b14ecc7a,64cf49167cae1d5dc4f7debd,,,,,,,decisionTrl,resources/DY.BMP,resources/DR.BMP,WildCard_Ex,-0.345555556,-0.004444444,1,0,0,1.211,optionLeft,95,3165,2,19,0,19,0,1,,,,,,,,,,,,,,,,,,,,,,,,,,,,,,,,,,,,,,,
,,,,,,,,2023-08-06_08h18.48.067,HF_wild_card,2022.2.4,MacIntel,55.55555556,610beac47b52b6084cddf5cd,64ce5acb97489d65b14ecc7a,64cf49167cae1d5dc4f7debd,,,,,,,sngl,resources/DY.BMP,resources/Empty.png,WildCard_Ex,-0.477777778,0.014444444,1,0,0,0.729,optionLeft,95,3260,2,20,0,20,0,1,,,,,,,,,,,,,,,,,,,,,,,,,,,,,,,,,,,,,,,
,,,,,,,,2023-08-06_08h18.48.067,HF_wild_card,2022.2.4,MacIntel,55.55555556,610beac47b52b6084cddf5cd,64ce5acb97489d65b14ecc7a,64cf49167cae1d5dc4f7debd,,,,,,,ctch,resources/DB.BMP,resources/DG.BMP,Door4,-0.35,-0.006666667,1,0,0,1.258,optionLeft,80,3340,2,21,0,21,0,1,,,,,,,,,,,,,,,,,,,,,,,,,,,,,,,,,,,,,,,
,,,,,,,,2023-08-06_08h18.48.067,HF_wild_card,2022.2.4,MacIntel,55.55555556,610beac47b52b6084cddf5cd,64ce5acb97489d65b14ecc7a,64cf49167cae1d5dc4f7debd,,,,,,,sngl,resources/DB.BMP,resources/Empty.png,Door4,-0.335555556,-0.005555556,1,0,0,0.595,optionLeft,60,3400,2,22,0,22,0,1,,,,,,,,,,,,,,,,,,,,,,,,,,,,,,,,,,,,,,,
,,,,,,,,2023-08-06_08h18.48.067,HF_wild_card,2022.2.4,MacIntel,55.55555556,610beac47b52b6084cddf5cd,64ce5acb97489d65b14ecc7a,64cf49167cae1d5dc4f7debd,,,,,,,decisionTrl,resources/DR.BMP,resources/DG.BMP,Door2,-0.465555556,0.04,1,0,0,1.299,optionLeft,20,3420,2,23,0,23,0,1,,,,,,,,,,,,,,,,,,,,,,,,,,,,,,,,,,,,,,,
,,,,,,,,2023-08-06_08h18.48.067,HF_wild_card,2022.2.4,MacIntel,55.55555556,610beac47b52b6084cddf5cd,64ce5acb97489d65b14ecc7a,64cf49167cae1d5dc4f7debd,,,,,,,decisionTrl,resources/DB.BMP,resources/DBN.BMP,Door3,0.383333333,0.035555556,1,0,0,0.709,optionRight,70,3490,2,24,0,24,0,1,,,,,,,,,,,,,,,,,,,,,,,,,,,,,,,,,,,,,,,
,,,,,,,,2023-08-06_08h18.48.067,HF_wild_card,2022.2.4,MacIntel,55.55555556,610beac47b52b6084cddf5cd,64ce5acb97489d65b14ecc7a,64cf49167cae1d5dc4f7debd,,,,,,,decisionTrl,resources/DY.BMP,resources/DG.BMP,WildCard_Ex,-0.324444444,0.004444444,1,0,0,1.021,optionLeft,95,3585,2,25,0,25,0,1,,,,,,,,,,,,,,,,,,,,,,,,,,,,,,,,,,,,,,,
,,,,,,,,2023-08-06_08h18.48.067,HF_wild_card,2022.2.4,MacIntel,55.55555556,610beac47b52b6084cddf5cd,64ce5acb97489d65b14ecc7a,64cf49167cae1d5dc4f7debd,,,,,,,decisionTrl,resources/DBN.BMP,resources/DY.BMP,WildCard_Ex,0.412222222,0.061111111,1,0,0,1.092,optionRight,95,3680,2,26,0,26,0,1,,,,,,,,,,,,,,,,,,,,,,,,,,,,,,,,,,,,,,,
,,,,,,,,2023-08-06_08h18.48.067,HF_wild_card,2022.2.4,MacIntel,55.55555556,610beac47b52b6084cddf5cd,64ce5acb97489d65b14ecc7a,64cf49167cae1d5dc4f7debd,,,,,,,sngl,resources/Empty.png,resources/DB.BMP,Door4,0.326666667,-0.007777778,1,0,0,0.779,optionRight,80,3760,2,27,0,27,0,1,,,,,,,,,,,,,,,,,,,,,,,,,,,,,,,,,,,,,,,
,,,,,,,,2023-08-06_08h18.48.067,HF_wild_card,2022.2.4,MacIntel,55.55555556,610beac47b52b6084cddf5cd,64ce5acb97489d65b14ecc7a,64cf49167cae1d5dc4f7debd,,,,,,,decisionTrl,resources/DB.BMP,resources/DBN.BMP,Door3,0.322222222,0.022222222,1,0,0,0.795,optionRight,70,3830,2,28,0,28,0,1,,,,,,,,,,,,,,,,,,,,,,,,,,,,,,,,,,,,,,,
,,,,,,,,2023-08-06_08h18.48.067,HF_wild_card,2022.2.4,MacIntel,55.55555556,610beac47b52b6084cddf5cd,64ce5acb97489d65b14ecc7a,64cf49167cae1d5dc4f7debd,,,,,,,ctch,resources/DR.BMP,resources/DBN.BMP,Door3,0.348888889,0.028888889,1,0,0,0.609,optionRight,70,3900,2,29,0,29,0,1,,,,,,,,,,,,,,,,,,,,,,,,,,,,,,,,,,,,,,,
,,,,,,,,2023-08-06_08h18.48.067,HF_wild_card,2022.2.4,MacIntel,55.55555556,610beac47b52b6084cddf5cd,64ce5acb97489d65b14ecc7a,64cf49167cae1d5dc4f7debd,,,,,,,decisionTrl,resources/DBN.BMP,resources/DB.BMP,Door3,-0.321111111,0.048888889,1,0,0,0.623,optionLeft,70,3970,2,30,0,30,0,1,,,,,,,,,,,,,,,,,,,,,,,,,,,,,,,,,,,,,,,
,,,,,,,,2023-08-06_08h18.48.067,HF_wild_card,2022.2.4,MacIntel,55.55555556,610beac47b52b6084cddf5cd,64ce5acb97489d65b14ecc7a,64cf49167cae1d5dc4f7debd,,,,,,,sngl,resources/DBN.BMP,resources/Empty.png,Door3,-0.338888889,0.031111111,1,0,0,0.61,optionLeft,70,4040,2,31,0,31,0,1,,,,,,,,,,,,,,,,,,,,,,,,,,,,,,,,,,,,,,,
,,,,,,,,2023-08-06_08h18.48.067,HF_wild_card,2022.2.4,MacIntel,55.55555556,610beac47b52b6084cddf5cd,64ce5acb97489d65b14ecc7a,64cf49167cae1d5dc4f7debd,,,,,,,decisionTrl,resources/DG.BMP,resources/DR.BMP,Door1,-0.184444444,0.048888889,1,0,0,0.943,optionLeft,30,4070,2,32,0,32,0,1,,,,,,,,,,,,,,,,,,,,,,,,,,,,,,,,,,,,,,,
,,,,,,,,2023-08-06_08h18.48.067,HF_wild_card,2022.2.4,MacIntel,55.55555556,610beac47b52b6084cddf5cd,64ce5acb97489d65b14ecc7a,64cf49167cae1d5dc4f7debd,,,,,,,sngl,resources/DY.BMP,resources/Empty.png,WildCard_Ex,-0.39,0.068888889,1,0,0,0.575,optionLeft,5,4075,2,33,0,33,0,1,,,,,,,,,,,,,,,,,,,,,,,,,,,,,,,,,,,,,,,
,,,,,,,,2023-08-06_08h18.48.067,HF_wild_card,2022.2.4,MacIntel,55.55555556,610beac47b52b6084cddf5cd,64ce5acb97489d65b14ecc7a,64cf49167cae1d5dc4f7debd,,,,,,,decisionTrl,resources/DG.BMP,resources/DR.BMP,Door2,0.316666667,0.022222222,1,0,0,0.793,optionRight,40,4115,2,34,0,34,0,1,,,,,,,,,,,,,,,,,,,,,,,,,,,,,,,,,,,,,,,
,,,,,,,,2023-08-06_08h18.48.067,HF_wild_card,2022.2.4,MacIntel,55.55555556,610beac47b52b6084cddf5cd,64ce5acb97489d65b14ecc7a,64cf49167cae1d5dc4f7debd,,,,,,,decisionTrl,resources/DG.BMP,resources/DY.BMP,WildCard_Ex,0.331111111,0.003333333,1,0,0,0.758,optionRight,5,4120,2,35,0,35,0,1,,,,,,,,,,,,,,,,,,,,,,,,,,,,,,,,,,,,,,,
,,,,,,,,2023-08-06_08h18.48.067,HF_wild_card,2022.2.4,MacIntel,55.55555556,610beac47b52b6084cddf5cd,64ce5acb97489d65b14ecc7a,64cf49167cae1d5dc4f7debd,,,,,,,decisionTrl,resources/DR.BMP,resources/DG.BMP,Door2,-0.293333333,-0.007777778,1,0,0,1.192,optionLeft,40,4160,2,36,0,36,0,1,,,,,,,,,,,,,,,,,,,,,,,,,,,,,,,,,,,,,,,
,,,,,,,,2023-08-06_08h18.48.067,HF_wild_card,2022.2.4,MacIntel,55.55555556,610beac47b52b6084cddf5cd,64ce5acb97489d65b14ecc7a,64cf49167cae1d5dc4f7debd,,,,,,,decisionTrl,resources/DBN.BMP,resources/DB.BMP,Door3,-0.327777778,0.034444444,1,0,0,0.712,optionLeft,70,4230,2,37,0,37,0,1,,,,,,,,,,,,,,,,,,,,,,,,,,,,,,,,,,,,,,,
,,,,,,,,2023-08-06_08h18.48.067,HF_wild_card,2022.2.4,MacIntel,55.55555556,610beac47b52b6084cddf5cd,64ce5acb97489d65b14ecc7a,64cf49167cae1d5dc4f7debd,,,,,,,ctch,resources/DBN.BMP,resources/DR.BMP,Door3,-0.392222222,0.068888889,1,0,0,0.744,optionLeft,70,4300,2,38,0,38,0,1,,,,,,,,,,,,,,,,,,,,,,,,,,,,,,,,,,,,,,,
,,,,,,,,2023-08-06_08h18.48.067,HF_wild_card,2022.2.4,MacIntel,55.55555556,610beac47b52b6084cddf5cd,64ce5acb97489d65b14ecc7a,64cf49167cae1d5dc4f7debd,,,,,,,sngl,resources/Empty.png,resources/DBN.BMP,Door3,0.414444444,-0.06,1,0,0,0.558,optionRight,70,4370,2,39,0,39,0,1,,,,,,,,,,,,,,,,,,,,,,,,,,,,,,,,,,,,,,,
,,,,,,,,2023-08-06_08h18.48.067,HF_wild_card,2022.2.4,MacIntel,55.55555556,610beac47b52b6084cddf5cd,64ce5acb97489d65b14ecc7a,64cf49167cae1d5dc4f7debd,,,,,,,ctch,resources/DR.BMP,resources/DBN.BMP,Door3,0.371111111,0.033333333,1,0,0,0.691,optionRight,70,4440,2,40,0,40,0,1,,,,,,,,,,,,,,,,,,,,,,,,,,,,,,,,,,,,,,,
,,,,,,,,2023-08-06_08h18.48.067,HF_wild_card,2022.2.4,MacIntel,55.55555556,610beac47b52b6084cddf5cd,64ce5acb97489d65b14ecc7a,64cf49167cae1d5dc4f7debd,,,,,,,sngl,resources/Empty.png,resources/DY.BMP,WildCard_Ex,0.446666667,0.001111111,1,0,0,0.611,optionRight,95,4535,2,41,0,41,0,1,,,,,,,,,,,,,,,,,,,,,,,,,,,,,,,,,,,,,,,
,,,,,,,,2023-08-06_08h18.48.067,HF_wild_card,2022.2.4,MacIntel,55.55555556,610beac47b52b6084cddf5cd,64ce5acb97489d65b14ecc7a,64cf49167cae1d5dc4f7debd,,,,,,,decisionTrl,resources/DBN.BMP,resources/DB.BMP,Door3,-0.422222222,0.023333333,1,0,0,0.593,optionLeft,70,4605,2,42,0,42,0,1,,,,,,,,,,,,,,,,,,,,,,,,,,,,,,,,,,,,,,,
,,,,,,,,2023-08-06_08h18.48.067,HF_wild_card,2022.2.4,MacIntel,55.55555556,610beac47b52b6084cddf5cd,64ce5acb97489d65b14ecc7a,64cf49167cae1d5dc4f7debd,,,,,,,decisionTrl,resources/DY.BMP,resources/DB.BMP,WildCard_Ex,-0.293333333,0.011111111,1,0,0,1.13,optionLeft,5,4610,2,43,0,43,0,1,,,,,,,,,,,,,,,,,,,,,,,,,,,,,,,,,,,,,,,
,,,,,,,,2023-08-06_08h18.48.067,HF_wild_card,2022.2.4,MacIntel,55.55555556,610beac47b52b6084cddf5cd,64ce5acb97489d65b14ecc7a,64cf49167cae1d5dc4f7debd,,,,,,,,,,,,,,,,,,,,,,,,,,1,0,1,0,1,,,,,,,,,,,,,,,,,,,,,,,,,,,,,,,,,,
,,,,,,,,2023-08-06_08h18.48.067,HF_wild_card,2022.2.4,MacIntel,55.55555556,610beac47b52b6084cddf5cd,64ce5acb97489d65b14ecc7a,64cf49167cae1d5dc4f7debd,,,,,,,decisionTrl,resources/DG.BMP,resources/DR.BMP,Door2,0.204444444,-0.132222222,1,0,0,0.842,optionRight,40,4650,3,0,0,0,0,1,,,,,,,,,,,,,,,,,,,,,,,,,,,,,,,,,,,,,,,
,,,,,,,,2023-08-06_08h18.48.067,HF_wild_card,2022.2.4,MacIntel,55.55555556,610beac47b52b6084cddf5cd,64ce5acb97489d65b14ecc7a,64cf49167cae1d5dc4f7debd,,,,,,,decisionTrl,resources/DBN.BMP,resources/DB.BMP,Door3,-0.273333333,0.021111111,1,0,0,0.626,optionLeft,70,4720,3,1,0,1,0,1,,,,,,,,,,,,,,,,,,,,,,,,,,,,,,,,,,,,,,,
,,,,,,,,2023-08-06_08h18.48.067,HF_wild_card,2022.2.4,MacIntel,55.55555556,610beac47b52b6084cddf5cd,64ce5acb97489d65b14ecc7a,64cf49167cae1d5dc4f7debd,,,,,,,decisionTrl,resources/DY.BMP,resources/DR.BMP,Door2,0.323333333,-0.036666667,1,0,0,0.7,optionRight,40,4760,3,2,0,2,0,1,,,,,,,,,,,,,,,,,,,,,,,,,,,,,,,,,,,,,,,
,,,,,,,,2023-08-06_08h18.48.067,HF_wild_card,2022.2.4,MacIntel,55.55555556,610beac47b52b6084cddf5cd,64ce5acb97489d65b14ecc7a,64cf49167cae1d5dc4f7debd,,,,,,,sngl,resources/DBN.BMP,resources/Empty.png,Door3,-0.243333333,-0.013333333,1,0,0,0.875,optionLeft,70,4830,3,3,0,3,0,1,,,,,,,,,,,,,,,,,,,,,,,,,,,,,,,,,,,,,,,
,,,,,,,,2023-08-06_08h18.48.067,HF_wild_card,2022.2.4,MacIntel,55.55555556,610beac47b52b6084cddf5cd,64ce5acb97489d65b14ecc7a,64cf49167cae1d5dc4f7debd,,,,,,,decisionTrl,resources/DY.BMP,resources/DBN.BMP,Door3,0.337777778,-0.08,1,0,0,0.528,optionRight,70,4900,3,4,0,4,0,1,,,,,,,,,,,,,,,,,,,,,,,,,,,,,,,,,,,,,,,
,,,,,,,,2023-08-06_08h18.48.067,HF_wild_card,2022.2.4,MacIntel,55.55555556,610beac47b52b6084cddf5cd,64ce5acb97489d65b14ecc7a,64cf49167cae1d5dc4f7debd,,,,,,,decisionTrl,resources/DB.BMP,resources/DBN.BMP,Door3,0.325555556,-0.004444444,1,0,0,0.596,optionRight,70,4970,3,5,0,5,0,1,,,,,,,,,,,,,,,,,,,,,,,,,,,,,,,,,,,,,,,
,,,,,,,,2023-08-06_08h18.48.067,HF_wild_card,2022.2.4,MacIntel,55.55555556,610beac47b52b6084cddf5cd,64ce5acb97489d65b14ecc7a,64cf49167cae1d5dc4f7debd,,,,,,,decisionTrl,resources/DBN.BMP,resources/DB.BMP,Door4,0.284444444,-0.097777778,1,0,0,0.913,optionRight,80,5050,3,6,0,6,0,1,,,,,,,,,,,,,,,,,,,,,,,,,,,,,,,,,,,,,,,
,,,,,,,,2023-08-06_08h18.48.067,HF_wild_card,2022.2.4,MacIntel,55.55555556,610beac47b52b6084cddf5cd,64ce5acb97489d65b14ecc7a,64cf49167cae1d5dc4f7debd,,,,,,,decisionTrl,resources/DB.BMP,resources/DBN.BMP,Door4,-0.341111111,-0.024444444,1,0,0,0.627,optionLeft,60,5110,3,7,0,7,0,1,,,,,,,,,,,,,,,,,,,,,,,,,,,,,,,,,,,,,,,
,,,,,,,,2023-08-06_08h18.48.067,HF_wild_card,2022.2.4,MacIntel,55.55555556,610beac47b52b6084cddf5cd,64ce5acb97489d65b14ecc7a,64cf49167cae1d5dc4f7debd,,,,,,,ctch,resources/DBN.BMP,resources/DR.BMP,Door3,-0.278888889,-0.023333333,1,0,0,0.622,optionLeft,70,5180,3,8,0,8,0,1,,,,,,,,,,,,,,,,,,,,,,,,,,,,,,,,,,,,,,,
,,,,,,,,2023-08-06_08h18.48.067,HF_wild_card,2022.2.4,MacIntel,55.55555556,610beac47b52b6084cddf5cd,64ce5acb97489d65b14ecc7a,64cf49167cae1d5dc4f7debd,,,,,,,decisionTrl,resources/DB.BMP,resources/DBN.BMP,Door4,-0.535555556,-0.037777778,1,0,0,0.977,optionLeft,60,5240,3,9,0,9,0,1,,,,,,,,,,,,,,,,,,,,,,,,,,,,,,,,,,,,,,,
,,,,,,,,2023-08-06_08h18.48.067,HF_wild_card,2022.2.4,MacIntel,55.55555556,610beac47b52b6084cddf5cd,64ce5acb97489d65b14ecc7a,64cf49167cae1d5dc4f7debd,,,,,,,sngl,resources/Empty.png,resources/DG.BMP,Door1,0.364444444,-0.004444444,1,0,0,0.625,optionRight,30,5270,3,10,0,10,0,1,,,,,,,,,,,,,,,,,,,,,,,,,,,,,,,,,,,,,,,
,,,,,,,,2023-08-06_08h18.48.067,HF_wild_card,2022.2.4,MacIntel,55.55555556,610beac47b52b6084cddf5cd,64ce5acb97489d65b14ecc7a,64cf49167cae1d5dc4f7debd,,,,,,,sngl,resources/Empty.png,resources/DR.BMP,Door2,0.254444444,-0.022222222,1,0,0,0.494,optionRight,20,5290,3,11,0,11,0,1,,,,,,,,,,,,,,,,,,,,,,,,,,,,,,,,,,,,,,,
,,,,,,,,2023-08-06_08h18.48.067,HF_wild_card,2022.2.4,MacIntel,55.55555556,610beac47b52b6084cddf5cd,64ce5acb97489d65b14ecc7a,64cf49167cae1d5dc4f7debd,,,,,,,decisionTrl,resources/DG.BMP,resources/DY.BMP,Door1,-0.254444444,-0.003333333,1,0,0,0.763,optionLeft,30,5320,3,12,0,12,0,1,,,,,,,,,,,,,,,,,,,,,,,,,,,,,,,,,,,,,,,
,,,,,,,,2023-08-06_08h18.48.067,HF_wild_card,2022.2.4,MacIntel,55.55555556,610beac47b52b6084cddf5cd,64ce5acb97489d65b14ecc7a,64cf49167cae1d5dc4f7debd,,,,,,,ctch,resources/DB.BMP,resources/DG.BMP,Door1,0.29,-0.032222222,1,0,0,0.446,optionRight,30,5350,3,13,0,13,0,1,,,,,,,,,,,,,,,,,,,,,,,,,,,,,,,,,,,,,,,
,,,,,,,,2023-08-06_08h18.48.067,HF_wild_card,2022.2.4,MacIntel,55.55555556,610beac47b52b6084cddf5cd,64ce5acb97489d65b14ecc7a,64cf49167cae1d5dc4f7debd,,,,,,,decisionTrl,resources/DY.BMP,resources/DB.BMP,Door4,0.316666667,-0.045555556,1,0,0,0.618,optionRight,80,5430,3,14,0,14,0,1,,,,,,,,,,,,,,,,,,,,,,,,,,,,,,,,,,,,,,,
,,,,,,,,2023-08-06_08h18.48.067,HF_wild_card,2022.2.4,MacIntel,55.55555556,610beac47b52b6084cddf5cd,64ce5acb97489d65b14ecc7a,64cf49167cae1d5dc4f7debd,,,,,,,decisionTrl,resources/DR.BMP,resources/DG.BMP,Door1,0.467777778,-0.094444444,1,0,0,0.792,optionRight,30,5460,3,15,0,15,0,1,,,,,,,,,,,,,,,,,,,,,,,,,,,,,,,,,,,,,,,
,,,,,,,,2023-08-06_08h18.48.067,HF_wild_card,2022.2.4,MacIntel,55.55555556,610beac47b52b6084cddf5cd,64ce5acb97489d65b14ecc7a,64cf49167cae1d5dc4f7debd,,,,,,,decisionTrl,resources/DR.BMP,resources/DG.BMP,Door1,0.263333333,-0.014444444,1,0,0,1.596,optionRight,30,5490,3,16,0,16,0,1,,,,,,,,,,,,,,,,,,,,,,,,,,,,,,,,,,,,,,,
,,,,,,,,2023-08-06_08h18.48.067,HF_wild_card,2022.2.4,MacIntel,55.55555556,610beac47b52b6084cddf5cd,64ce5acb97489d65b14ecc7a,64cf49167cae1d5dc4f7debd,,,,,,,ctch,resources/DR.BMP,resources/DBN.BMP,Door3,0.327777778,-0.007777778,1,0,0,0.594,optionRight,70,5560,3,17,0,17,0,1,,,,,,,,,,,,,,,,,,,,,,,,,,,,,,,,,,,,,,,
,,,,,,,,2023-08-06_08h18.48.067,HF_wild_card,2022.2.4,MacIntel,55.55555556,610beac47b52b6084cddf5cd,64ce5acb97489d65b14ecc7a,64cf49167cae1d5dc4f7debd,,,,,,,decisionTrl,resources/DR.BMP,resources/DY.BMP,WildCard_Ex,0.312222222,-0.004444444,1,0,0,0.978,optionRight,5,5565,3,18,0,18,0,1,,,,,,,,,,,,,,,,,,,,,,,,,,,,,,,,,,,,,,,
,,,,,,,,2023-08-06_08h18.48.067,HF_wild_card,2022.2.4,MacIntel,55.55555556,610beac47b52b6084cddf5cd,64ce5acb97489d65b14ecc7a,64cf49167cae1d5dc4f7debd,,,,,,,ctch,resources/DR.BMP,resources/DBN.BMP,Door3,0.347777778,0.005555556,1,0,0,0.594,optionRight,70,5635,3,19,0,19,0,1,,,,,,,,,,,,,,,,,,,,,,,,,,,,,,,,,,,,,,,
,,,,,,,,2023-08-06_08h18.48.067,HF_wild_card,2022.2.4,MacIntel,55.55555556,610beac47b52b6084cddf5cd,64ce5acb97489d65b14ecc7a,64cf49167cae1d5dc4f7debd,,,,,,,decisionTrl,resources/DG.BMP,resources/DR.BMP,Door1,-0.277777778,-0.038888889,1,0,0,0.709,optionLeft,30,5665,3,20,0,20,0,1,,,,,,,,,,,,,,,,,,,,,,,,,,,,,,,,,,,,,,,
,,,,,,,,2023-08-06_08h18.48.067,HF_wild_card,2022.2.4,MacIntel,55.55555556,610beac47b52b6084cddf5cd,64ce5acb97489d65b14ecc7a,64cf49167cae1d5dc4f7debd,,,,,,,sngl,resources/Empty.png,resources/DY.BMP,WildCard_Ex,0.242222222,-0.042222222,1,0,0,0.494,optionRight,5,5670,3,21,0,21,0,1,,,,,,,,,,,,,,,,,,,,,,,,,,,,,,,,,,,,,,,
,,,,,,,,2023-08-06_08h18.48.067,HF_wild_card,2022.2.4,MacIntel,55.55555556,610beac47b52b6084cddf5cd,64ce5acb97489d65b14ecc7a,64cf49167cae1d5dc4f7debd,,,,,,,decisionTrl,resources/DBN.BMP,resources/DB.BMP,Door3,-0.327777778,0.015555556,1,0,0,0.577,optionLeft,70,5740,3,22,0,22,0,1,,,,,,,,,,,,,,,,,,,,,,,,,,,,,,,,,,,,,,,
,,,,,,,,2023-08-06_08h18.48.067,HF_wild_card,2022.2.4,MacIntel,55.55555556,610beac47b52b6084cddf5cd,64ce5acb97489d65b14ecc7a,64cf49167cae1d5dc4f7debd,,,,,,,sngl,resources/DR.BMP,resources/Empty.png,Door2,-0.25,-0.001111111,1,0,0,0.509,optionLeft,40,5780,3,23,0,23,0,1,,,,,,,,,,,,,,,,,,,,,,,,,,,,,,,,,,,,,,,
,,,,,,,,2023-08-06_08h18.48.067,HF_wild_card,2022.2.4,MacIntel,55.55555556,610beac47b52b6084cddf5cd,64ce5acb97489d65b14ecc7a,64cf49167cae1d5dc4f7debd,,,,,,,sngl,resources/DB.BMP,resources/Empty.png,Door4,-0.304444444,-0.055555556,1,0,0,0.543,optionLeft,80,5860,3,24,0,24,0,1,,,,,,,,,,,,,,,,,,,,,,,,,,,,,,,,,,,,,,,
,,,,,,,,2023-08-06_08h18.48.067,HF_wild_card,2022.2.4,MacIntel,55.55555556,610beac47b52b6084cddf5cd,64ce5acb97489d65b14ecc7a,64cf49167cae1d5dc4f7debd,,,,,,,sngl,resources/DY.BMP,resources/Empty.png,WildCard_Ex,-0.242222222,-0.073333333,1,0,0,0.542,optionLeft,5,5865,3,25,0,25,0,1,,,,,,,,,,,,,,,,,,,,,,,,,,,,,,,,,,,,,,,
,,,,,,,,2023-08-06_08h18.48.067,HF_wild_card,2022.2.4,MacIntel,55.55555556,610beac47b52b6084cddf5cd,64ce5acb97489d65b14ecc7a,64cf49167cae1d5dc4f7debd,,,,,,,decisionTrl,resources/DB.BMP,resources/DY.BMP,WildCard_Ex,0.33,0.041111111,1,0,0,0.545,optionRight,5,5870,3,26,0,26,0,1,,,,,,,,,,,,,,,,,,,,,,,,,,,,,,,,,,,,,,,
,,,,,,,,2023-08-06_08h18.48.067,HF_wild_card,2022.2.4,MacIntel,55.55555556,610beac47b52b6084cddf5cd,64ce5acb97489d65b14ecc7a,64cf49167cae1d5dc4f7debd,,,,,,,ctch,resources/DG.BMP,resources/DB.BMP,Door4,0.356666667,-0.035555556,1,0,0,0.676,optionRight,80,5950,3,27,0,27,0,1,,,,,,,,,,,,,,,,,,,,,,,,,,,,,,,,,,,,,,,
,,,,,,,,2023-08-06_08h18.48.067,HF_wild_card,2022.2.4,MacIntel,55.55555556,610beac47b52b6084cddf5cd,64ce5acb97489d65b14ecc7a,64cf49167cae1d5dc4f7debd,,,,,,,decisionTrl,resources/DBN.BMP,resources/DB.BMP,Door3,-0.408888889,0.086666667,1,0,0,5.794,optionLeft,70,6020,3,28,0,28,0,1,,,,,,,,,,,,,,,,,,,,,,,,,,,,,,,,,,,,,,,
,,,,,,,,2023-08-06_08h18.48.067,HF_wild_card,2022.2.4,MacIntel,55.55555556,610beac47b52b6084cddf5cd,64ce5acb97489d65b14ecc7a,64cf49167cae1d5dc4f7debd,,,,,,,decisionTrl,resources/DB.BMP,resources/DBN.BMP,Door4,-0.333333333,0.072222222,1,0,0,0.512,optionLeft,80,6100,3,29,0,29,0,1,,,,,,,,,,,,,,,,,,,,,,,,,,,,,,,,,,,,,,,
,,,,,,,,2023-08-06_08h18.48.067,HF_wild_card,2022.2.4,MacIntel,55.55555556,610beac47b52b6084cddf5cd,64ce5acb97489d65b14ecc7a,64cf49167cae1d5dc4f7debd,,,,,,,decisionTrl,resources/DG.BMP,resources/DR.BMP,Door2,0.483333333,-0.147777778,1,0,0,0.977,optionRight,40,6140,3,30,0,30,0,1,,,,,,,,,,,,,,,,,,,,,,,,,,,,,,,,,,,,,,,
,,,,,,,,2023-08-06_08h18.48.067,HF_wild_card,2022.2.4,MacIntel,55.55555556,610beac47b52b6084cddf5cd,64ce5acb97489d65b14ecc7a,64cf49167cae1d5dc4f7debd,,,,,,,decisionTrl,resources/DBN.BMP,resources/DY.BMP,Door3,-0.556666667,0.003333333,1,0,0,0.903,optionLeft,70,6210,3,31,0,31,0,1,,,,,,,,,,,,,,,,,,,,,,,,,,,,,,,,,,,,,,,
,,,,,,,,2023-08-06_08h18.48.067,HF_wild_card,2022.2.4,MacIntel,55.55555556,610beac47b52b6084cddf5cd,64ce5acb97489d65b14ecc7a,64cf49167cae1d5dc4f7debd,,,,,,,decisionTrl,resources/DR.BMP,resources/DG.BMP,Door1,0.394444444,-0.071111111,1,0,0,1.829,optionRight,30,6240,3,32,0,32,0,1,,,,,,,,,,,,,,,,,,,,,,,,,,,,,,,,,,,,,,,
,,,,,,,,2023-08-06_08h18.48.067,HF_wild_card,2022.2.4,MacIntel,55.55555556,610beac47b52b6084cddf5cd,64ce5acb97489d65b14ecc7a,64cf49167cae1d5dc4f7debd,,,,,,,sngl,resources/DG.BMP,resources/Empty.png,Door1,0.018888889,0.002222222,1,0,0,0.125,optionLeft,30,6270,3,33,0,33,0,1,,,,,,,,,,,,,,,,,,,,,,,,,,,,,,,,,,,,,,,
,,,,,,,,2023-08-06_08h18.48.067,HF_wild_card,2022.2.4,MacIntel,55.55555556,610beac47b52b6084cddf5cd,64ce5acb97489d65b14ecc7a,64cf49167cae1d5dc4f7debd,,,,,,,ctch,resources/DB.BMP,resources/DG.BMP,Door4,-0.341111111,0.02,1,0,0,0.579,optionLeft,80,6350,3,34,0,34,0,1,,,,,,,,,,,,,,,,,,,,,,,,,,,,,,,,,,,,,,,
,,,,,,,,2023-08-06_08h18.48.067,HF_wild_card,2022.2.4,MacIntel,55.55555556,610beac47b52b6084cddf5cd,64ce5acb97489d65b14ecc7a,64cf49167cae1d5dc4f7debd,,,,,,,decisionTrl,resources/DY.BMP,resources/DG.BMP,Door1,0.248888889,-0.046666667,1,0,0,0.445,optionRight,30,6380,3,35,0,35,0,1,,,,,,,,,,,,,,,,,,,,,,,,,,,,,,,,,,,,,,,
,,,,,,,,2023-08-06_08h18.48.067,HF_wild_card,2022.2.4,MacIntel,55.55555556,610beac47b52b6084cddf5cd,64ce5acb97489d65b14ecc7a,64cf49167cae1d5dc4f7debd,,,,,,,sngl,resources/Empty.png,resources/DB.BMP,Door4,0.381111111,-0.067777778,1,0,0,0.777,optionRight,60,6440,3,36,0,36,0,1,,,,,,,,,,,,,,,,,,,,,,,,,,,,,,,,,,,,,,,
,,,,,,,,2023-08-06_08h18.48.067,HF_wild_card,2022.2.4,MacIntel,55.55555556,610beac47b52b6084cddf5cd,64ce5acb97489d65b14ecc7a,64cf49167cae1d5dc4f7debd,,,,,,,decisionTrl,resources/DG.BMP,resources/DR.BMP,Door1,-0.316666667,-0.013333333,1,0,0,0.877,optionLeft,30,6470,3,37,0,37,0,1,,,,,,,,,,,,,,,,,,,,,,,,,,,,,,,,,,,,,,,
,,,,,,,,2023-08-06_08h18.48.067,HF_wild_card,2022.2.4,MacIntel,55.55555556,610beac47b52b6084cddf5cd,64ce5acb97489d65b14ecc7a,64cf49167cae1d5dc4f7debd,,,,,,,ctch,resources/DG.BMP,resources/DB.BMP,Door4,0.318888889,-0.032222222,1,0,0,0.795,optionRight,80,6550,3,38,0,38,0,1,,,,,,,,,,,,,,,,,,,,,,,,,,,,,,,,,,,,,,,
,,,,,,,,2023-08-06_08h18.48.067,HF_wild_card,2022.2.4,MacIntel,55.55555556,610beac47b52b6084cddf5cd,64ce5acb97489d65b14ecc7a,64cf49167cae1d5dc4f7debd,,,,,,,sngl,resources/Empty.png,resources/DBN.BMP,Door3,0.34,-0.053333333,1,0,0,0.846,optionRight,70,6620,3,39,0,39,0,1,,,,,,,,,,,,,,,,,,,,,,,,,,,,,,,,,,,,,,,
,,,,,,,,2023-08-06_08h18.48.067,HF_wild_card,2022.2.4,MacIntel,55.55555556,610beac47b52b6084cddf5cd,64ce5acb97489d65b14ecc7a,64cf49167cae1d5dc4f7debd,,,,,,,decisionTrl,resources/DR.BMP,resources/DG.BMP,Door2,-0.48,-0.04,1,0,0,1.195,optionLeft,40,6660,3,40,0,40,0,1,,,,,,,,,,,,,,,,,,,,,,,,,,,,,,,,,,,,,,,
,,,,,,,,2023-08-06_08h18.48.067,HF_wild_card,2022.2.4,MacIntel,55.55555556,610beac47b52b6084cddf5cd,64ce5acb97489d65b14ecc7a,64cf49167cae1d5dc4f7debd,,,,,,,ctch,resources/DBN.BMP,resources/DR.BMP,Door2,0.275555556,-0.026666667,1,0,0,1.228,optionRight,40,6700,3,41,0,41,0,1,,,,,,,,,,,,,,,,,,,,,,,,,,,,,,,,,,,,,,,
,,,,,,,,2023-08-06_08h18.48.067,HF_wild_card,2022.2.4,MacIntel,55.55555556,610beac47b52b6084cddf5cd,64ce5acb97489d65b14ecc7a,64cf49167cae1d5dc4f7debd,,,,,,,sngl,resources/Empty.png,resources/DY.BMP,WildCard_Ex,0.317777778,-0.03,1,0,0,0.612,optionRight,95,6795,3,42,0,42,0,1,,,,,,,,,,,,,,,,,,,,,,,,,,,,,,,,,,,,,,,
,,,,,,,,2023-08-06_08h18.48.067,HF_wild_card,2022.2.4,MacIntel,55.55555556,610beac47b52b6084cddf5cd,64ce5acb97489d65b14ecc7a,64cf49167cae1d5dc4f7debd,,,,,,,sngl,resources/DY.BMP,resources/Empty.png,WildCard_Ex,-0.421111111,-0.018888889,1,0,0,0.684,optionLeft,95,6890,3,43,0,43,0,1,,,,,,,,,,,,,,,,,,,,,,,,,,,,,,,,,,,,,,,
,,,,,,,,2023-08-06_08h18.48.067,HF_wild_card,2022.2.4,MacIntel,55.55555556,610beac47b52b6084cddf5cd,64ce5acb97489d65b14ecc7a,64cf49167cae1d5dc4f7debd,,,,,,,,,,,,,,,,,,,,,,,,,,2,0,2,0,1,,,,,,,,,,,,,,,,,,,,,,,,,,,,,,,,,,
,,,,,,,,2023-08-06_08h18.48.067,HF_wild_card,2022.2.4,MacIntel,55.55555556,610beac47b52b6084cddf5cd,64ce5acb97489d65b14ecc7a,64cf49167cae1d5dc4f7debd,,,,,,,sngl,resources/Empty.png,resources/DP.BMP,WildCard_NonEx,0.385555556,-0.118888889,1,0,0,0.851,optionRight,55,6945,4,0,0,0,0,1,,,,,,,,,,,,,,,,,,,,,,,,,,,,,,,,,,,,,,,
,,,,,,,,2023-08-06_08h18.48.067,HF_wild_card,2022.2.4,MacIntel,55.55555556,610beac47b52b6084cddf5cd,64ce5acb97489d65b14ecc7a,64cf49167cae1d5dc4f7debd,,,,,,,decisionTrl,resources/DBN.BMP,resources/DB.BMP,Door4,0.36,-0.09,1,0,0,1.705,optionRight,80,7025,4,1,0,1,0,1,,,,,,,,,,,,,,,,,,,,,,,,,,,,,,,,,,,,,,,
,,,,,,,,2023-08-06_08h18.48.067,HF_wild_card,2022.2.4,MacIntel,55.55555556,610beac47b52b6084cddf5cd,64ce5acb97489d65b14ecc7a,64cf49167cae1d5dc4f7debd,,,,,,,sngl,resources/DP.BMP,resources/Empty.png,WildCard_NonEx,-0.331111111,-0.091111111,1,0,0,0.643,optionLeft,45,7070,4,2,0,2,0,1,,,,,,,,,,,,,,,,,,,,,,,,,,,,,,,,,,,,,,,
,,,,,,,,2023-08-06_08h18.48.067,HF_wild_card,2022.2.4,MacIntel,55.55555556,610beac47b52b6084cddf5cd,64ce5acb97489d65b14ecc7a,64cf49167cae1d5dc4f7debd,,,,,,,decisionTrl,resources/DP.BMP,resources/DB.BMP,Door4,0.393333333,-0.003333333,1,0,0,2.279,optionRight,80,7150,4,3,0,3,0,1,,,,,,,,,,,,,,,,,,,,,,,,,,,,,,,,,,,,,,,
,,,,,,,,2023-08-06_08h18.48.067,HF_wild_card,2022.2.4,MacIntel,55.55555556,610beac47b52b6084cddf5cd,64ce5acb97489d65b14ecc7a,64cf49167cae1d5dc4f7debd,,,,,,,decisionTrl,resources/DR.BMP,resources/DG.BMP,Door2,-0.456666667,0.022222222,1,0,0,2.609,optionLeft,40,7190,4,4,0,4,0,1,,,,,,,,,,,,,,,,,,,,,,,,,,,,,,,,,,,,,,,
,,,,,,,,2023-08-06_08h18.48.067,HF_wild_card,2022.2.4,MacIntel,55.55555556,610beac47b52b6084cddf5cd,64ce5acb97489d65b14ecc7a,64cf49167cae1d5dc4f7debd,,,,,,,ctch,resources/DBN.BMP,resources/DR.BMP,Door3,-0.306666667,-0.024444444,1,0,0,0.844,optionLeft,70,7260,4,5,0,5,0,1,,,,,,,,,,,,,,,,,,,,,,,,,,,,,,,,,,,,,,,
,,,,,,,,2023-08-06_08h18.48.067,HF_wild_card,2022.2.4,MacIntel,55.55555556,610beac47b52b6084cddf5cd,64ce5acb97489d65b14ecc7a,64cf49167cae1d5dc4f7debd,,,,,,,ctch,resources/DG.BMP,resources/DB.BMP,Door4,0.352222222,0.008888889,1,0,0,1.412,optionRight,60,7320,4,6,0,6,0,1,,,,,,,,,,,,,,,,,,,,,,,,,,,,,,,,,,,,,,,
,,,,,,,,2023-08-06_08h18.48.067,HF_wild_card,2022.2.4,MacIntel,55.55555556,610beac47b52b6084cddf5cd,64ce5acb97489d65b14ecc7a,64cf49167cae1d5dc4f7debd,,,,,,,sngl,resources/Empty.png,resources/DB.BMP,Door4,0.313333333,-0.046666667,1,0,0,0.526,optionRight,80,7400,4,7,0,7,0,1,,,,,,,,,,,,,,,,,,,,,,,,,,,,,,,,,,,,,,,
,,,,,,,,2023-08-06_08h18.48.067,HF_wild_card,2022.2.4,MacIntel,55.55555556,610beac47b52b6084cddf5cd,64ce5acb97489d65b14ecc7a,64cf49167cae1d5dc4f7debd,,,,,,,decisionTrl,resources/DBN.BMP,resources/DP.BMP,Door3,-0.283333333,-0.028888889,1,0,0,1.194,optionLeft,70,7470,4,8,0,8,0,1,,,,,,,,,,,,,,,,,,,,,,,,,,,,,,,,,,,,,,,
,,,,,,,,2023-08-06_08h18.48.067,HF_wild_card,2022.2.4,MacIntel,55.55555556,610beac47b52b6084cddf5cd,64ce5acb97489d65b14ecc7a,64cf49167cae1d5dc4f7debd,,,,,,,sngl,resources/DBN.BMP,resources/Empty.png,Door3,-0.438888889,-0.058888889,1,0,0,0.562,optionLeft,70,7540,4,9,0,9,0,1,,,,,,,,,,,,,,,,,,,,,,,,,,,,,,,,,,,,,,,
,,,,,,,,2023-08-06_08h18.48.067,HF_wild_card,2022.2.4,MacIntel,55.55555556,610beac47b52b6084cddf5cd,64ce5acb97489d65b14ecc7a,64cf49167cae1d5dc4f7debd,,,,,,,sngl,resources/DB.BMP,resources/Empty.png,Door4,-0.302222222,-0.014444444,1,0,0,0.709,optionLeft,60,7600,4,10,0,10,0,1,,,,,,,,,,,,,,,,,,,,,,,,,,,,,,,,,,,,,,,
,,,,,,,,2023-08-06_08h18.48.067,HF_wild_card,2022.2.4,MacIntel,55.55555556,610beac47b52b6084cddf5cd,64ce5acb97489d65b14ecc7a,64cf49167cae1d5dc4f7debd,,,,,,,decisionTrl,resources/DR.BMP,resources/DG.BMP,Door2,-0.415555556,0.026666667,1,0,0,3.012,optionLeft,40,7640,4,11,0,11,0,1,,,,,,,,,,,,,,,,,,,,,,,,,,,,,,,,,,,,,,,
,,,,,,,,2023-08-06_08h18.48.067,HF_wild_card,2022.2.4,MacIntel,55.55555556,610beac47b52b6084cddf5cd,64ce5acb97489d65b14ecc7a,64cf49167cae1d5dc4f7debd,,,,,,,decisionTrl,resources/DG.BMP,resources/DP.BMP,WildCard_NonEx,0.286666667,-0.004444444,1,0,0,0.859,optionRight,45,7685,4,12,0,12,0,1,,,,,,,,,,,,,,,,,,,,,,,,,,,,,,,,,,,,,,,
,,,,,,,,2023-08-06_08h18.48.067,HF_wild_card,2022.2.4,MacIntel,55.55555556,610beac47b52b6084cddf5cd,64ce5acb97489d65b14ecc7a,64cf49167cae1d5dc4f7debd,,,,,,,sngl,resources/Empty.png,resources/DG.BMP,Door1,0.406666667,-0.036666667,1,0,0,0.539,optionRight,30,7715,4,13,0,13,0,1,,,,,,,,,,,,,,,,,,,,,,,,,,,,,,,,,,,,,,,
,,,,,,,,2023-08-06_08h18.48.067,HF_wild_card,2022.2.4,MacIntel,55.55555556,610beac47b52b6084cddf5cd,64ce5acb97489d65b14ecc7a,64cf49167cae1d5dc4f7debd,,,,,,,decisionTrl,resources/DG.BMP,resources/DR.BMP,Door2,0.298888889,0.02,1,0,0,1.343,optionRight,20,7735,4,14,0,14,0,1,,,,,,,,,,,,,,,,,,,,,,,,,,,,,,,,,,,,,,,
,,,,,,,,2023-08-06_08h18.48.067,HF_wild_card,2022.2.4,MacIntel,55.55555556,610beac47b52b6084cddf5cd,64ce5acb97489d65b14ecc7a,64cf49167cae1d5dc4f7debd,,,,,,,sngl,resources/Empty.png,resources/DR.BMP,Door2,0.283333333,-0.05,1,0,0,0.611,optionRight,40,7775,4,15,0,15,0,1,,,,,,,,,,,,,,,,,,,,,,,,,,,,,,,,,,,,,,,
,,,,,,,,2023-08-06_08h18.48.067,HF_wild_card,2022.2.4,MacIntel,55.55555556,610beac47b52b6084cddf5cd,64ce5acb97489d65b14ecc7a,64cf49167cae1d5dc4f7debd,,,,,,,decisionTrl,resources/DG.BMP,resources/DR.BMP,Door1,-0.26,0.016666667,1,0,0,0.761,optionLeft,30,7805,4,16,0,16,0,1,,,,,,,,,,,,,,,,,,,,,,,,,,,,,,,,,,,,,,,
,,,,,,,,2023-08-06_08h18.48.067,HF_wild_card,2022.2.4,MacIntel,55.55555556,610beac47b52b6084cddf5cd,64ce5acb97489d65b14ecc7a,64cf49167cae1d5dc4f7debd,,,,,,,decisionTrl,resources/DG.BMP,resources/DR.BMP,Door2,0.39,0.007777778,1,0,0,0.844,optionRight,40,7845,4,17,0,17,0,1,,,,,,,,,,,,,,,,,,,,,,,,,,,,,,,,,,,,,,,
,,,,,,,,2023-08-06_08h18.48.067,HF_wild_card,2022.2.4,MacIntel,55.55555556,610beac47b52b6084cddf5cd,64ce5acb97489d65b14ecc7a,64cf49167cae1d5dc4f7debd,,,,,,,sngl,resources/DP.BMP,resources/Empty.png,WildCard_NonEx,-0.39,0.008888889,1,0,0,0.617,optionLeft,55,7900,4,18,0,18,0,1,,,,,,,,,,,,,,,,,,,,,,,,,,,,,,,,,,,,,,,
,,,,,,,,2023-08-06_08h18.48.067,HF_wild_card,2022.2.4,MacIntel,55.55555556,610beac47b52b6084cddf5cd,64ce5acb97489d65b14ecc7a,64cf49167cae1d5dc4f7debd,,,,,,,ctch,resources/DB.BMP,resources/DG.BMP,Door4,-0.342222222,0.02,1,0,0,1.143,optionLeft,80,7980,4,19,0,19,0,1,,,,,,,,,,,,,,,,,,,,,,,,,,,,,,,,,,,,,,,
,,,,,,,,2023-08-06_08h18.48.067,HF_wild_card,2022.2.4,MacIntel,55.55555556,610beac47b52b6084cddf5cd,64ce5acb97489d65b14ecc7a,64cf49167cae1d5dc4f7debd,,,,,,,decisionTrl,resources/DBN.BMP,resources/DB.BMP,Door4,0.318888889,-0.001111111,1,0,0,1.309,optionRight,80,8060,4,20,0,20,0,1,,,,,,,,,,,,,,,,,,,,,,,,,,,,,,,,,,,,,,,
,,,,,,,,2023-08-06_08h18.48.067,HF_wild_card,2022.2.4,MacIntel,55.55555556,610beac47b52b6084cddf5cd,64ce5acb97489d65b14ecc7a,64cf49167cae1d5dc4f7debd,,,,,,,ctch,resources/DG.BMP,resources/DB.BMP,Door4,0.307777778,0.024444444,1,0,0,1.254,optionRight,80,8140,4,21,0,21,0,1,,,,,,,,,,,,,,,,,,,,,,,,,,,,,,,,,,,,,,,
,,,,,,,,2023-08-06_08h18.48.067,HF_wild_card,2022.2.4,MacIntel,55.55555556,610beac47b52b6084cddf5cd,64ce5acb97489d65b14ecc7a,64cf49167cae1d5dc4f7debd,,,,,,,ctch,resources/DR.BMP,resources/DBN.BMP,Door3,0.362222222,0.083333333,1,0,0,1.644,optionRight,70,8210,4,22,0,22,0,1,,,,,,,,,,,,,,,,,,,,,,,,,,,,,,,,,,,,,,,
,,,,,,,,2023-08-06_08h18.48.067,HF_wild_card,2022.2.4,MacIntel,55.55555556,610beac47b52b6084cddf5cd,64ce5acb97489d65b14ecc7a,64cf49167cae1d5dc4f7debd,,,,,,,sngl,resources/Empty.png,resources/DP.BMP,WildCard_NonEx,0.35,-0.047777778,1,0,0,0.629,optionRight,45,8255,4,23,0,23,0,1,,,,,,,,,,,,,,,,,,,,,,,,,,,,,,,,,,,,,,,
,,,,,,,,2023-08-06_08h18.48.067,HF_wild_card,2022.2.4,MacIntel,55.55555556,610beac47b52b6084cddf5cd,64ce5acb97489d65b14ecc7a,64cf49167cae1d5dc4f7debd,,,,,,,sngl,resources/DG.BMP,resources/Empty.png,Door1,-0.346666667,-0.017777778,1,0,0,0.561,optionLeft,30,8285,4,24,0,24,0,1,,,,,,,,,,,,,,,,,,,,,,,,,,,,,,,,,,,,,,,
,,,,,,,,2023-08-06_08h18.48.067,HF_wild_card,2022.2.4,MacIntel,55.55555556,610beac47b52b6084cddf5cd,64ce5acb97489d65b14ecc7a,64cf49167cae1d5dc4f7debd,,,,,,,decisionTrl,resources/DB.BMP,resources/DBN.BMP,Door4,-0.391111111,0.007777778,1,0,0,1.493,optionLeft,60,8345,4,25,0,25,0,1,,,,,,,,,,,,,,,,,,,,,,,,,,,,,,,,,,,,,,,
,,,,,,,,2023-08-06_08h18.48.067,HF_wild_card,2022.2.4,MacIntel,55.55555556,610beac47b52b6084cddf5cd,64ce5acb97489d65b14ecc7a,64cf49167cae1d5dc4f7debd,,,,,,,decisionTrl,resources/DBN.BMP,resources/DB.BMP,Door4,0.314444444,0.038888889,1,0,0,0.861,optionRight,60,8405,4,26,0,26,0,1,,,,,,,,,,,,,,,,,,,,,,,,,,,,,,,,,,,,,,,
,,,,,,,,2023-08-06_08h18.48.067,HF_wild_card,2022.2.4,MacIntel,55.55555556,610beac47b52b6084cddf5cd,64ce5acb97489d65b14ecc7a,64cf49167cae1d5dc4f7debd,,,,,,,decisionTrl,resources/DR.BMP,resources/DG.BMP,Door2,-0.497777778,-0.005555556,1,0,0,0.939,optionLeft,20,8425,4,27,0,27,0,1,,,,,,,,,,,,,,,,,,,,,,,,,,,,,,,,,,,,,,,
,,,,,,,,2023-08-06_08h18.48.067,HF_wild_card,2022.2.4,MacIntel,55.55555556,610beac47b52b6084cddf5cd,64ce5acb97489d65b14ecc7a,64cf49167cae1d5dc4f7debd,,,,,,,sngl,resources/DR.BMP,resources/Empty.png,Door2,-0.273333333,-0.032222222,1,0,0,0.715,optionLeft,20,8445,4,28,0,28,0,1,,,,,,,,,,,,,,,,,,,,,,,,,,,,,,,,,,,,,,,
,,,,,,,,2023-08-06_08h18.48.067,HF_wild_card,2022.2.4,MacIntel,55.55555556,610beac47b52b6084cddf5cd,64ce5acb97489d65b14ecc7a,64cf49167cae1d5dc4f7debd,,,,,,,decisionTrl,resources/DP.BMP,resources/DG.BMP,WildCard_NonEx,-0.361111111,0.004444444,1,0,0,0.929,optionLeft,55,8500,4,29,0,29,0,1,,,,,,,,,,,,,,,,,,,,,,,,,,,,,,,,,,,,,,,
,,,,,,,,2023-08-06_08h18.48.067,HF_wild_card,2022.2.4,MacIntel,55.55555556,610beac47b52b6084cddf5cd,64ce5acb97489d65b14ecc7a,64cf49167cae1d5dc4f7debd,,,,,,,ctch,resources/DR.BMP,resources/DBN.BMP,Door3,0.304444444,0.034444444,1,0,0,1.227,optionRight,70,8570,4,30,0,30,0,1,,,,,,,,,,,,,,,,,,,,,,,,,,,,,,,,,,,,,,,
,,,,,,,,2023-08-06_08h18.48.067,HF_wild_card,2022.2.4,MacIntel,55.55555556,610beac47b52b6084cddf5cd,64ce5acb97489d65b14ecc7a,64cf49167cae1d5dc4f7debd,,,,,,,decisionTrl,resources/DG.BMP,resources/DR.BMP,Door1,-0.337777778,-0.056666667,1,0,0,1.178,optionLeft,30,8600,4,31,0,31,0,1,,,,,,,,,,,,,,,,,,,,,,,,,,,,,,,,,,,,,,,
,,,,,,,,2023-08-06_08h18.48.067,HF_wild_card,2022.2.4,MacIntel,55.55555556,610beac47b52b6084cddf5cd,64ce5acb97489d65b14ecc7a,64cf49167cae1d5dc4f7debd,,,,,,,decisionTrl,resources/DB.BMP,resources/DBN.BMP,Door3,0.374444444,0.037777778,1,0,0,0.713,optionRight,70,8670,4,32,0,32,0,1,,,,,,,,,,,,,,,,,,,,,,,,,,,,,,,,,,,,,,,
,,,,,,,,2023-08-06_08h18.48.067,HF_wild_card,2022.2.4,MacIntel,55.55555556,610beac47b52b6084cddf5cd,64ce5acb97489d65b14ecc7a,64cf49167cae1d5dc4f7debd,,,,,,,decisionTrl,resources/DR.BMP,resources/DP.BMP,WildCard_NonEx,0.295555556,0.03,1,0,0,1.194,optionRight,55,8725,4,33,0,33,0,1,,,,,,,,,,,,,,,,,,,,,,,,,,,,,,,,,,,,,,,
,,,,,,,,2023-08-06_08h18.48.067,HF_wild_card,2022.2.4,MacIntel,55.55555556,610beac47b52b6084cddf5cd,64ce5acb97489d65b14ecc7a,64cf49167cae1d5dc4f7debd,,,,,,,decisionTrl,resources/DB.BMP,resources/DP.BMP,WildCard_NonEx,0.264444444,-0.028888889,1,0,0,0.996,optionRight,45,8770,4,34,0,34,0,1,,,,,,,,,,,,,,,,,,,,,,,,,,,,,,,,,,,,,,,
,,,,,,,,2023-08-06_08h18.48.067,HF_wild_card,2022.2.4,MacIntel,55.55555556,610beac47b52b6084cddf5cd,64ce5acb97489d65b14ecc7a,64cf49167cae1d5dc4f7debd,,,,,,,decisionTrl,resources/DB.BMP,resources/DBN.BMP,Door3,0.266666667,-0.093333333,1,0,0,0.696,optionRight,70,8840,4,35,0,35,0,1,,,,,,,,,,,,,,,,,,,,,,,,,,,,,,,,,,,,,,,
,,,,,,,,2023-08-06_08h18.48.067,HF_wild_card,2022.2.4,MacIntel,55.55555556,610beac47b52b6084cddf5cd,64ce5acb97489d65b14ecc7a,64cf49167cae1d5dc4f7debd,,,,,,,decisionTrl,resources/DBN.BMP,resources/DB.BMP,Door3,-0.492222222,0.001111111,1,0,0,0.679,optionLeft,70,8910,4,36,0,36,0,1,,,,,,,,,,,,,,,,,,,,,,,,,,,,,,,,,,,,,,,
,,,,,,,,2023-08-06_08h18.48.067,HF_wild_card,2022.2.4,MacIntel,55.55555556,610beac47b52b6084cddf5cd,64ce5acb97489d65b14ecc7a,64cf49167cae1d5dc4f7debd,,,,,,,ctch,resources/DB.BMP,resources/DG.BMP,Door4,-0.373333333,0.02,1,0,0,1.41,optionLeft,80,8990,4,37,0,37,0,1,,,,,,,,,,,,,,,,,,,,,,,,,,,,,,,,,,,,,,,
,,,,,,,,2023-08-06_08h18.48.067,HF_wild_card,2022.2.4,MacIntel,55.55555556,610beac47b52b6084cddf5cd,64ce5acb97489d65b14ecc7a,64cf49167cae1d5dc4f7debd,,,,,,,decisionTrl,resources/DR.BMP,resources/DG.BMP,Door1,0.288888889,-0.027777778,1,0,0,1.092,optionRight,30,9020,4,38,0,38,0,1,,,,,,,,,,,,,,,,,,,,,,,,,,,,,,,,,,,,,,,
,,,,,,,,2023-08-06_08h18.48.067,HF_wild_card,2022.2.4,MacIntel,55.55555556,610beac47b52b6084cddf5cd,64ce5acb97489d65b14ecc7a,64cf49167cae1d5dc4f7debd,,,,,,,decisionTrl,resources/DP.BMP,resources/DR.BMP,WildCard_NonEx,-0.305555556,0.006666667,1,0,0,1.229,optionLeft,45,9065,4,39,0,39,0,1,,,,,,,,,,,,,,,,,,,,,,,,,,,,,,,,,,,,,,,
,,,,,,,,2023-08-06_08h18.48.067,HF_wild_card,2022.2.4,MacIntel,55.55555556,610beac47b52b6084cddf5cd,64ce5acb97489d65b14ecc7a,64cf49167cae1d5dc4f7debd,,,,,,,decisionTrl,resources/DP.BMP,resources/DBN.BMP,Door3,0.347777778,-0.022222222,1,0,0,0.628,optionRight,70,9135,4,40,0,40,0,1,,,,,,,,,,,,,,,,,,,,,,,,,,,,,,,,,,,,,,,
,,,,,,,,2023-08-06_08h18.48.067,HF_wild_card,2022.2.4,MacIntel,55.55555556,610beac47b52b6084cddf5cd,64ce5acb97489d65b14ecc7a,64cf49167cae1d5dc4f7debd,,,,,,,ctch,resources/DBN.BMP,resources/DR.BMP,Door3,-0.248888889,-0.022222222,1,0,0,0.665,optionLeft,70,9205,4,41,0,41,0,1,,,,,,,,,,,,,,,,,,,,,,,,,,,,,,,,,,,,,,,
,,,,,,,,2023-08-06_08h18.48.067,HF_wild_card,2022.2.4,MacIntel,55.55555556,610beac47b52b6084cddf5cd,64ce5acb97489d65b14ecc7a,64cf49167cae1d5dc4f7debd,,,,,,,decisionTrl,resources/DB.BMP,resources/DBN.BMP,Door4,-0.295555556,-0.003333333,1,0,0,1.612,optionLeft,60,9265,4,42,0,42,0,1,,,,,,,,,,,,,,,,,,,,,,,,,,,,,,,,,,,,,,,
,,,,,,,,2023-08-06_08h18.48.067,HF_wild_card,2022.2.4,MacIntel,55.55555556,610beac47b52b6084cddf5cd,64ce5acb97489d65b14ecc7a,64cf49167cae1d5dc4f7debd,,,,,,,sngl,resources/Empty.png,resources/DBN.BMP,Door3,0.4,0.012222222,1,0,0,0.611,optionRight,70,9335,4,43,0,43,0,1,,,,,,,,,,,,,,,,,,,,,,,,,,,,,,,,,,,,,,,
,,,,,,,,2023-08-06_08h18.48.067,HF_wild_card,2022.2.4,MacIntel,55.55555556,610beac47b52b6084cddf5cd,64ce5acb97489d65b14ecc7a,64cf49167cae1d5dc4f7debd,,,,,,,,,,,,,,,,,,,,,,,,,,3,0,3,0,1,,,,,,,,,,,,,,,,,,,,,,,,,,,,,,,,,,
,,,,,,,,2023-08-06_08h18.48.067,HF_wild_card,2022.2.4,MacIntel,55.55555556,610beac47b52b6084cddf5cd,64ce5acb97489d65b14ecc7a,64cf49167cae1d5dc4f7debd,,,,,,,decisionTrl,resources/DR.BMP,resources/DG.BMP,Door1,0.344444444,-0.093333333,1,0,0,0.558,optionRight,30,9365,5,0,0,0,0,1,,,,,,,,,,,,,,,,,,,,,,,,,,,,,,,,,,,,,,,
,,,,,,,,2023-08-06_08h18.48.067,HF_wild_card,2022.2.4,MacIntel,55.55555556,610beac47b52b6084cddf5cd,64ce5acb97489d65b14ecc7a,64cf49167cae1d5dc4f7debd,,,,,,,decisionTrl,resources/DBN.BMP,resources/DB.BMP,Door3,-0.317777778,0.035555556,1,0,0,0.595,optionLeft,70,9435,5,1,0,1,0,1,,,,,,,,,,,,,,,,,,,,,,,,,,,,,,,,,,,,,,,
,,,,,,,,2023-08-06_08h18.48.067,HF_wild_card,2022.2.4,MacIntel,55.55555556,610beac47b52b6084cddf5cd,64ce5acb97489d65b14ecc7a,64cf49167cae1d5dc4f7debd,,,,,,,sngl,resources/Empty.png,resources/DG.BMP,Door1,0.231111111,0.007777778,1,0,0,0.639,optionRight,30,9465,5,2,0,2,0,1,,,,,,,,,,,,,,,,,,,,,,,,,,,,,,,,,,,,,,,
,,,,,,,,2023-08-06_08h18.48.067,HF_wild_card,2022.2.4,MacIntel,55.55555556,610beac47b52b6084cddf5cd,64ce5acb97489d65b14ecc7a,64cf49167cae1d5dc4f7debd,,,,,,,sngl,resources/Empty.png,resources/DP.BMP,WildCard_NonEx,0.292222222,0.033333333,1,0,0,0.51,optionRight,45,9510,5,3,0,3,0,1,,,,,,,,,,,,,,,,,,,,,,,,,,,,,,,,,,,,,,,
,,,,,,,,2023-08-06_08h18.48.067,HF_wild_card,2022.2.4,MacIntel,55.55555556,610beac47b52b6084cddf5cd,64ce5acb97489d65b14ecc7a,64cf49167cae1d5dc4f7debd,,,,,,,decisionTrl,resources/DG.BMP,resources/DR.BMP,Door1,-0.273333333,-0.006666667,1,0,0,0.737,optionLeft,30,9540,5,4,0,4,0,1,,,,,,,,,,,,,,,,,,,,,,,,,,,,,,,,,,,,,,,
,,,,,,,,2023-08-06_08h18.48.067,HF_wild_card,2022.2.4,MacIntel,55.55555556,610beac47b52b6084cddf5cd,64ce5acb97489d65b14ecc7a,64cf49167cae1d5dc4f7debd,,,,,,,sngl,resources/DBN.BMP,resources/Empty.png,Door3,-0.34,0.028888889,1,0,0,0.54,optionLeft,70,9610,5,5,0,5,0,1,,,,,,,,,,,,,,,,,,,,,,,,,,,,,,,,,,,,,,,
,,,,,,,,2023-08-06_08h18.48.067,HF_wild_card,2022.2.4,MacIntel,55.55555556,610beac47b52b6084cddf5cd,64ce5acb97489d65b14ecc7a,64cf49167cae1d5dc4f7debd,,,,,,,sngl,resources/DB.BMP,resources/Empty.png,Door4,-0.316666667,0.032222222,1,0,0,0.509,optionLeft,80,9690,5,6,0,6,0,1,,,,,,,,,,,,,,,,,,,,,,,,,,,,,,,,,,,,,,,
,,,,,,,,2023-08-06_08h18.48.067,HF_wild_card,2022.2.4,MacIntel,55.55555556,610beac47b52b6084cddf5cd,64ce5acb97489d65b14ecc7a,64cf49167cae1d5dc4f7debd,,,,,,,decisionTrl,resources/DR.BMP,resources/DG.BMP,Door1,0.345555556,0.053333333,1,0,0,0.494,optionRight,30,9720,5,7,0,7,0,1,,,,,,,,,,,,,,,,,,,,,,,,,,,,,,,,,,,,,,,
,,,,,,,,2023-08-06_08h18.48.067,HF_wild_card,2022.2.4,MacIntel,55.55555556,610beac47b52b6084cddf5cd,64ce5acb97489d65b14ecc7a,64cf49167cae1d5dc4f7debd,,,,,,,decisionTrl,resources/DP.BMP,resources/DG.BMP,WildCard_NonEx,-0.372222222,-0.008888889,1,0,0,0.411,optionLeft,55,9775,5,8,0,8,0,1,,,,,,,,,,,,,,,,,,,,,,,,,,,,,,,,,,,,,,,
,,,,,,,,2023-08-06_08h18.48.067,HF_wild_card,2022.2.4,MacIntel,55.55555556,610beac47b52b6084cddf5cd,64ce5acb97489d65b14ecc7a,64cf49167cae1d5dc4f7debd,,,,,,,decisionTrl,resources/DP.BMP,resources/DB.BMP,WildCard_NonEx,-0.384444444,-0.015555556,1,0,0,0.511,optionLeft,55,9830,5,9,0,9,0,1,,,,,,,,,,,,,,,,,,,,,,,,,,,,,,,,,,,,,,,
,,,,,,,,2023-08-06_08h18.48.067,HF_wild_card,2022.2.4,MacIntel,55.55555556,610beac47b52b6084cddf5cd,64ce5acb97489d65b14ecc7a,64cf49167cae1d5dc4f7debd,,,,,,,decisionTrl,resources/DG.BMP,resources/DR.BMP,Door2,0.31,-0.021111111,1,0,0,1.046,optionRight,20,9850,5,10,0,10,0,1,,,,,,,,,,,,,,,,,,,,,,,,,,,,,,,,,,,,,,,
,,,,,,,,2023-08-06_08h18.48.067,HF_wild_card,2022.2.4,MacIntel,55.55555556,610beac47b52b6084cddf5cd,64ce5acb97489d65b14ecc7a,64cf49167cae1d5dc4f7debd,,,,,,,ctch,resources/DBN.BMP,resources/DR.BMP,Door3,-0.394444444,0.082222222,1,0,0,0.528,optionLeft,70,9920,5,11,0,11,0,1,,,,,,,,,,,,,,,,,,,,,,,,,,,,,,,,,,,,,,,
,,,,,,,,2023-08-06_08h18.48.067,HF_wild_card,2022.2.4,MacIntel,55.55555556,610beac47b52b6084cddf5cd,64ce5acb97489d65b14ecc7a,64cf49167cae1d5dc4f7debd,,,,,,,sngl,resources/DG.BMP,resources/Empty.png,Door1,-0.338888889,0.023333333,1,0,0,0.612,optionLeft,30,9950,5,12,0,12,0,1,,,,,,,,,,,,,,,,,,,,,,,,,,,,,,,,,,,,,,,
,,,,,,,,2023-08-06_08h18.48.067,HF_wild_card,2022.2.4,MacIntel,55.55555556,610beac47b52b6084cddf5cd,64ce5acb97489d65b14ecc7a,64cf49167cae1d5dc4f7debd,,,,,,,ctch,resources/DBN.BMP,resources/DR.BMP,Door3,-0.337777778,0.096666667,1,0,0,0.945,optionLeft,70,10020,5,13,0,13,0,1,,,,,,,,,,,,,,,,,,,,,,,,,,,,,,,,,,,,,,,
,,,,,,,,2023-08-06_08h18.48.067,HF_wild_card,2022.2.4,MacIntel,55.55555556,610beac47b52b6084cddf5cd,64ce5acb97489d65b14ecc7a,64cf49167cae1d5dc4f7debd,,,,,,,decisionTrl,resources/DBN.BMP,resources/DB.BMP,Door3,-0.243333333,0.03,1,0,0,0.977,optionLeft,70,10090,5,14,0,14,0,1,,,,,,,,,,,,,,,,,,,,,,,,,,,,,,,,,,,,,,,
,,,,,,,,2023-08-06_08h18.48.067,HF_wild_card,2022.2.4,MacIntel,55.55555556,610beac47b52b6084cddf5cd,64ce5acb97489d65b14ecc7a,64cf49167cae1d5dc4f7debd,,,,,,,sngl,resources/Empty.png,resources/DR.BMP,Door2,0.354444444,0.024444444,1,0,0,0.77,optionRight,20,10110,5,15,0,15,0,1,,,,,,,,,,,,,,,,,,,,,,,,,,,,,,,,,,,,,,,
,,,,,,,,2023-08-06_08h18.48.067,HF_wild_card,2022.2.4,MacIntel,55.55555556,610beac47b52b6084cddf5cd,64ce5acb97489d65b14ecc7a,64cf49167cae1d5dc4f7debd,,,,,,,ctch,resources/DB.BMP,resources/DG.BMP,Door1,0.335555556,0.025555556,1,0,0,0.63,optionRight,30,10140,5,16,0,16,0,1,,,,,,,,,,,,,,,,,,,,,,,,,,,,,,,,,,,,,,,
,,,,,,,,2023-08-06_08h18.48.067,HF_wild_card,2022.2.4,MacIntel,55.55555556,610beac47b52b6084cddf5cd,64ce5acb97489d65b14ecc7a,64cf49167cae1d5dc4f7debd,,,,,,,sngl,resources/Empty.png,resources/DB.BMP,Door4,0.395555556,0,1,0,0,0.96,optionRight,60,10200,5,17,0,17,0,1,,,,,,,,,,,,,,,,,,,,,,,,,,,,,,,,,,,,,,,
,,,,,,,,2023-08-06_08h18.48.067,HF_wild_card,2022.2.4,MacIntel,55.55555556,610beac47b52b6084cddf5cd,64ce5acb97489d65b14ecc7a,64cf49167cae1d5dc4f7debd,,,,,,,decisionTrl,resources/DR.BMP,resources/DG.BMP,Door1,0.435555556,0.072222222,1,0,0,0.812,optionRight,30,10230,5,18,0,18,0,1,,,,,,,,,,,,,,,,,,,,,,,,,,,,,,,,,,,,,,,
,,,,,,,,2023-08-06_08h18.48.067,HF_wild_card,2022.2.4,MacIntel,55.55555556,610beac47b52b6084cddf5cd,64ce5acb97489d65b14ecc7a,64cf49167cae1d5dc4f7debd,,,,,,,decisionTrl,resources/DBN.BMP,resources/DP.BMP,WildCard_NonEx,0.468888889,0.012222222,1,0,0,1.161,optionRight,55,10285,5,19,0,19,0,1,,,,,,,,,,,,,,,,,,,,,,,,,,,,,,,,,,,,,,,
,,,,,,,,2023-08-06_08h18.48.067,HF_wild_card,2022.2.4,MacIntel,55.55555556,610beac47b52b6084cddf5cd,64ce5acb97489d65b14ecc7a,64cf49167cae1d5dc4f7debd,,,,,,,decisionTrl,resources/DP.BMP,resources/DR.BMP,WildCard_NonEx,-0.318888889,0.012222222,1,0,0,0.742,optionLeft,55,10340,5,20,0,20,0,1,,,,,,,,,,,,,,,,,,,,,,,,,,,,,,,,,,,,,,,
,,,,,,,,2023-08-06_08h18.48.067,HF_wild_card,2022.2.4,MacIntel,55.55555556,610beac47b52b6084cddf5cd,64ce5acb97489d65b14ecc7a,64cf49167cae1d5dc4f7debd,,,,,,,ctch,resources/DR.BMP,resources/DBN.BMP,Door3,0.341111111,0.053333333,1,0,0,1.325,optionRight,70,10410,5,21,0,21,0,1,,,,,,,,,,,,,,,,,,,,,,,,,,,,,,,,,,,,,,,
,,,,,,,,2023-08-06_08h18.48.067,HF_wild_card,2022.2.4,MacIntel,55.55555556,610beac47b52b6084cddf5cd,64ce5acb97489d65b14ecc7a,64cf49167cae1d5dc4f7debd,,,,,,,ctch,resources/DB.BMP,resources/DG.BMP,Door4,-0.002222222,-0.01,1,0,0,0.761,optionLeft,60,10470,5,22,0,22,0,1,,,,,,,,,,,,,,,,,,,,,,,,,,,,,,,,,,,,,,,
,,,,,,,,2023-08-06_08h18.48.067,HF_wild_card,2022.2.4,MacIntel,55.55555556,610beac47b52b6084cddf5cd,64ce5acb97489d65b14ecc7a,64cf49167cae1d5dc4f7debd,,,,,,,decisionTrl,resources/DB.BMP,resources/DBN.BMP,Door3,0.371111111,0.038888889,1,0,0,0.96,optionRight,70,10540,5,23,0,23,0,1,,,,,,,,,,,,,,,,,,,,,,,,,,,,,,,,,,,,,,,
,,,,,,,,2023-08-06_08h18.48.067,HF_wild_card,2022.2.4,MacIntel,55.55555556,610beac47b52b6084cddf5cd,64ce5acb97489d65b14ecc7a,64cf49167cae1d5dc4f7debd,,,,,,,ctch,resources/DG.BMP,resources/DB.BMP,Door4,0.393333333,-0.006666667,1,0,0,2.176,optionRight,60,10600,5,24,0,24,0,1,,,,,,,,,,,,,,,,,,,,,,,,,,,,,,,,,,,,,,,
,,,,,,,,2023-08-06_08h18.48.067,HF_wild_card,2022.2.4,MacIntel,55.55555556,610beac47b52b6084cddf5cd,64ce5acb97489d65b14ecc7a,64cf49167cae1d5dc4f7debd,,,,,,,decisionTrl,resources/DG.BMP,resources/DP.BMP,WildCard_NonEx,0.34,0.014444444,1,0,0,1.009,optionRight,55,10655,5,25,0,25,0,1,,,,,,,,,,,,,,,,,,,,,,,,,,,,,,,,,,,,,,,
,,,,,,,,2023-08-06_08h18.48.067,HF_wild_card,2022.2.4,MacIntel,55.55555556,610beac47b52b6084cddf5cd,64ce5acb97489d65b14ecc7a,64cf49167cae1d5dc4f7debd,,,,,,,decisionTrl,resources/DBN.BMP,resources/DB.BMP,Door3,-0.272222222,-0.025555556,1,0,0,0.688,optionLeft,70,10725,5,26,0,26,0,1,,,,,,,,,,,,,,,,,,,,,,,,,,,,,,,,,,,,,,,
,,,,,,,,2023-08-06_08h18.48.067,HF_wild_card,2022.2.4,MacIntel,55.55555556,610beac47b52b6084cddf5cd,64ce5acb97489d65b14ecc7a,64cf49167cae1d5dc4f7debd,,,,,,,decisionTrl,resources/DBN.BMP,resources/DB.BMP,Door3,-0.452222222,0.067777778,1,0,0,0.862,optionLeft,70,10795,5,27,0,27,0,1,,,,,,,,,,,,,,,,,,,,,,,,,,,,,,,,,,,,,,,
,,,,,,,,2023-08-06_08h18.48.067,HF_wild_card,2022.2.4,MacIntel,55.55555556,610beac47b52b6084cddf5cd,64ce5acb97489d65b14ecc7a,64cf49167cae1d5dc4f7debd,,,,,,,sngl,resources/Empty.png,resources/DBN.BMP,Door3,0.311111111,-0.001111111,1,0,0,0.544,optionRight,70,10865,5,28,0,28,0,1,,,,,,,,,,,,,,,,,,,,,,,,,,,,,,,,,,,,,,,
,,,,,,,,2023-08-06_08h18.48.067,HF_wild_card,2022.2.4,MacIntel,55.55555556,610beac47b52b6084cddf5cd,64ce5acb97489d65b14ecc7a,64cf49167cae1d5dc4f7debd,,,,,,,decisionTrl,resources/DR.BMP,resources/DG.BMP,Door2,-0.327777778,0.024444444,1,0,0,0.878,optionLeft,40,10905,5,29,0,29,0,1,,,,,,,,,,,,,,,,,,,,,,,,,,,,,,,,,,,,,,,
,,,,,,,,2023-08-06_08h18.48.067,HF_wild_card,2022.2.4,MacIntel,55.55555556,610beac47b52b6084cddf5cd,64ce5acb97489d65b14ecc7a,64cf49167cae1d5dc4f7debd,,,,,,,sngl,resources/DR.BMP,resources/Empty.png,Door2,-0.297777778,-0.01,1,0,0,0.511,optionLeft,40,10945,5,30,0,30,0,1,,,,,,,,,,,,,,,,,,,,,,,,,,,,,,,,,,,,,,,
,,,,,,,,2023-08-06_08h18.48.067,HF_wild_card,2022.2.4,MacIntel,55.55555556,610beac47b52b6084cddf5cd,64ce5acb97489d65b14ecc7a,64cf49167cae1d5dc4f7debd,,,,,,,decisionTrl,resources/DB.BMP,resources/DBN.BMP,Door3,0.321111111,-0.045555556,1,0,0,0.511,optionRight,70,11015,5,31,0,31,0,1,,,,,,,,,,,,,,,,,,,,,,,,,,,,,,,,,,,,,,,
,,,,,,,,2023-08-06_08h18.48.067,HF_wild_card,2022.2.4,MacIntel,55.55555556,610beac47b52b6084cddf5cd,64ce5acb97489d65b14ecc7a,64cf49167cae1d5dc4f7debd,,,,,,,decisionTrl,resources/DB.BMP,resources/DP.BMP,WildCard_NonEx,0.537777778,-0.043333333,1,0,0,0.961,optionRight,55,11070,5,32,0,32,0,1,,,,,,,,,,,,,,,,,,,,,,,,,,,,,,,,,,,,,,,
,,,,,,,,2023-08-06_08h18.48.067,HF_wild_card,2022.2.4,MacIntel,55.55555556,610beac47b52b6084cddf5cd,64ce5acb97489d65b14ecc7a,64cf49167cae1d5dc4f7debd,,,,,,,sngl,resources/DP.BMP,resources/Empty.png,WildCard_NonEx,-0.267777778,-0.035555556,1,0,0,0.639,optionLeft,55,11125,5,33,0,33,0,1,,,,,,,,,,,,,,,,,,,,,,,,,,,,,,,,,,,,,,,
,,,,,,,,2023-08-06_08h18.48.067,HF_wild_card,2022.2.4,MacIntel,55.55555556,610beac47b52b6084cddf5cd,64ce5acb97489d65b14ecc7a,64cf49167cae1d5dc4f7debd,,,,,,,ctch,resources/DR.BMP,resources/DBN.BMP,Door3,0.305555556,-0.014444444,1,0,0,0.526,optionRight,70,11195,5,34,0,34,0,1,,,,,,,,,,,,,,,,,,,,,,,,,,,,,,,,,,,,,,,
,,,,,,,,2023-08-06_08h18.48.067,HF_wild_card,2022.2.4,MacIntel,55.55555556,610beac47b52b6084cddf5cd,64ce5acb97489d65b14ecc7a,64cf49167cae1d5dc4f7debd,,,,,,,decisionTrl,resources/DG.BMP,resources/DR.BMP,Door2,0.366666667,-0.022222222,1,0,0,0.762,optionRight,40,11235,5,35,0,35,0,1,,,,,,,,,,,,,,,,,,,,,,,,,,,,,,,,,,,,,,,
,,,,,,,,2023-08-06_08h18.48.067,HF_wild_card,2022.2.4,MacIntel,55.55555556,610beac47b52b6084cddf5cd,64ce5acb97489d65b14ecc7a,64cf49167cae1d5dc4f7debd,,,,,,,decisionTrl,resources/DP.BMP,resources/DBN.BMP,WildCard_NonEx,-0.231111111,-0.026666667,1,0,0,0.961,optionLeft,45,11280,5,36,0,36,0,1,,,,,,,,,,,,,,,,,,,,,,,,,,,,,,,,,,,,,,,
,,,,,,,,2023-08-06_08h18.48.067,HF_wild_card,2022.2.4,MacIntel,55.55555556,610beac47b52b6084cddf5cd,64ce5acb97489d65b14ecc7a,64cf49167cae1d5dc4f7debd,,,,,,,sngl,resources/DP.BMP,resources/Empty.png,WildCard_NonEx,-0.345555556,0.008888889,1,0,0,0.666,optionLeft,45,11325,5,37,0,37,0,1,,,,,,,,,,,,,,,,,,,,,,,,,,,,,,,,,,,,,,,
,,,,,,,,2023-08-06_08h18.48.067,HF_wild_card,2022.2.4,MacIntel,55.55555556,610beac47b52b6084cddf5cd,64ce5acb97489d65b14ecc7a,64cf49167cae1d5dc4f7debd,,,,,,,decisionTrl,resources/DB.BMP,resources/DBN.BMP,Door3,0.346666667,-0.013333333,1,0,0,0.974,optionRight,70,11395,5,38,0,38,0,1,,,,,,,,,,,,,,,,,,,,,,,,,,,,,,,,,,,,,,,
,,,,,,,,2023-08-06_08h18.48.067,HF_wild_card,2022.2.4,MacIntel,55.55555556,610beac47b52b6084cddf5cd,64ce5acb97489d65b14ecc7a,64cf49167cae1d5dc4f7debd,,,,,,,decisionTrl,resources/DR.BMP,resources/DP.BMP,WildCard_NonEx,0.278888889,-0.033333333,1,0,0,1.324,optionRight,55,11450,5,39,0,39,0,1,,,,,,,,,,,,,,,,,,,,,,,,,,,,,,,,,,,,,,,
,,,,,,,,2023-08-06_08h18.48.067,HF_wild_card,2022.2.4,MacIntel,55.55555556,610beac47b52b6084cddf5cd,64ce5acb97489d65b14ecc7a,64cf49167cae1d5dc4f7debd,,,,,,,sngl,resources/Empty.png,resources/DP.BMP,WildCard_NonEx,0.26,0.02,1,0,0,0.526,optionRight,55,11505,5,40,0,40,0,1,,,,,,,,,,,,,,,,,,,,,,,,,,,,,,,,,,,,,,,
,,,,,,,,2023-08-06_08h18.48.067,HF_wild_card,2022.2.4,MacIntel,55.55555556,610beac47b52b6084cddf5cd,64ce5acb97489d65b14ecc7a,64cf49167cae1d5dc4f7debd,,,,,,,ctch,resources/DG.BMP,resources/DB.BMP,Door1,-0.205555556,-0.008888889,1,0,0,0.845,optionLeft,30,11535,5,41,0,41,0,1,,,,,,,,,,,,,,,,,,,,,,,,,,,,,,,,,,,,,,,
,,,,,,,,2023-08-06_08h18.48.067,HF_wild_card,2022.2.4,MacIntel,55.55555556,610beac47b52b6084cddf5cd,64ce5acb97489d65b14ecc7a,64cf49167cae1d5dc4f7debd,,,,,,,decisionTrl,resources/DB.BMP,resources/DBN.BMP,Door3,0.282222222,-0.004444444,1,0,0,0.543,optionRight,70,11605,5,42,0,42,0,1,,,,,,,,,,,,,,,,,,,,,,,,,,,,,,,,,,,,,,,
,,,,,,,,2023-08-06_08h18.48.067,HF_wild_card,2022.2.4,MacIntel,55.55555556,610beac47b52b6084cddf5cd,64ce5acb97489d65b14ecc7a,64cf49167cae1d5dc4f7debd,,,,,,,decisionTrl,resources/DG.BMP,resources/DR.BMP,Door1,-0.311111111,-0.015555556,1,0,0,0.777,optionLeft,30,11635,5,43,0,43,0,1,,,,,,,,,,,,,,,,,,,,,,,,,,,,,,,,,,,,,,,
,,,,,,,,2023-08-06_08h18.48.067,HF_wild_card,2022.2.4,MacIntel,55.55555556,610beac47b52b6084cddf5cd,64ce5acb97489d65b14ecc7a,64cf49167cae1d5dc4f7debd,,,,,,,,,,,,,,,,,,,,,,,,,,4,0,4,0,1,,,,,,,,,,,,,,,,,,,,,,,,,,,,,,,,,,
,,,,,,,,2023-08-06_08h18.48.067,HF_wild_card,2022.2.4,MacIntel,55.55555556,610beac47b52b6084cddf5cd,64ce5acb97489d65b14ecc7a,64cf49167cae1d5dc4f7debd,,,,,,,ctch,resources/DR.BMP,resources/DBN.BMP,Door3,0.304444444,-0.133333333,1,0,0,0.691,optionRight,70,11705,6,0,0,0,0,1,,,,,,,,,,,,,,,,,,,,,,,,,,,,,,,,,,,,,,,
,,,,,,,,2023-08-06_08h18.48.067,HF_wild_card,2022.2.4,MacIntel,55.55555556,610beac47b52b6084cddf5cd,64ce5acb97489d65b14ecc7a,64cf49167cae1d5dc4f7debd,,,,,,,decisionTrl,resources/DG.BMP,resources/DP.BMP,WildCard_NonEx,0.366666667,-0.024444444,1,0,0,0.623,optionRight,55,11760,6,1,0,1,0,1,,,,,,,,,,,,,,,,,,,,,,,,,,,,,,,,,,,,,,,
,,,,,,,,2023-08-06_08h18.48.067,HF_wild_card,2022.2.4,MacIntel,55.55555556,610beac47b52b6084cddf5cd,64ce5acb97489d65b14ecc7a,64cf49167cae1d5dc4f7debd,,,,,,,decisionTrl,resources/DR.BMP,resources/DG.BMP,Door1,0.308888889,-0.044444444,1,0,0,0.51,optionRight,30,11790,6,2,0,2,0,1,,,,,,,,,,,,,,,,,,,,,,,,,,,,,,,,,,,,,,,
,,,,,,,,2023-08-06_08h18.48.067,HF_wild_card,2022.2.4,MacIntel,55.55555556,610beac47b52b6084cddf5cd,64ce5acb97489d65b14ecc7a,64cf49167cae1d5dc4f7debd,,,,,,,decisionTrl,resources/DG.BMP,resources/DR.BMP,Door2,0.343333333,-0.004444444,1,0,0,1.262,optionRight,40,11830,6,3,0,3,0,1,,,,,,,,,,,,,,,,,,,,,,,,,,,,,,,,,,,,,,,
,,,,,,,,2023-08-06_08h18.48.067,HF_wild_card,2022.2.4,MacIntel,55.55555556,610beac47b52b6084cddf5cd,64ce5acb97489d65b14ecc7a,64cf49167cae1d5dc4f7debd,,,,,,,sngl,resources/Empty.png,resources/DP.BMP,WildCard_NonEx,0.342222222,-0.023333333,1,0,0,0.494,optionRight,45,11875,6,4,0,4,0,1,,,,,,,,,,,,,,,,,,,,,,,,,,,,,,,,,,,,,,,
,,,,,,,,2023-08-06_08h18.48.067,HF_wild_card,2022.2.4,MacIntel,55.55555556,610beac47b52b6084cddf5cd,64ce5acb97489d65b14ecc7a,64cf49167cae1d5dc4f7debd,,,,,,,sngl,resources/Empty.png,resources/DP.BMP,WildCard_NonEx,0.406666667,-0.043333333,1,0,0,0.778,optionRight,55,11930,6,5,0,5,0,1,,,,,,,,,,,,,,,,,,,,,,,,,,,,,,,,,,,,,,,
,,,,,,,,2023-08-06_08h18.48.067,HF_wild_card,2022.2.4,MacIntel,55.55555556,610beac47b52b6084cddf5cd,64ce5acb97489d65b14ecc7a,64cf49167cae1d5dc4f7debd,,,,,,,ctch,resources/DBN.BMP,resources/DR.BMP,Door3,-0.286666667,-0.05,1,0,0,0.641,optionLeft,70,12000,6,6,0,6,0,1,,,,,,,,,,,,,,,,,,,,,,,,,,,,,,,,,,,,,,,
,,,,,,,,2023-08-06_08h18.48.067,HF_wild_card,2022.2.4,MacIntel,55.55555556,610beac47b52b6084cddf5cd,64ce5acb97489d65b14ecc7a,64cf49167cae1d5dc4f7debd,,,,,,,ctch,resources/DBN.BMP,resources/DR.BMP,Door3,-0.318888889,-0.017777778,1,0,0,0.627,optionLeft,70,12070,6,7,0,7,0,1,,,,,,,,,,,,,,,,,,,,,,,,,,,,,,,,,,,,,,,
,,,,,,,,2023-08-06_08h18.48.067,HF_wild_card,2022.2.4,MacIntel,55.55555556,610beac47b52b6084cddf5cd,64ce5acb97489d65b14ecc7a,64cf49167cae1d5dc4f7debd,,,,,,,sngl,resources/DP.BMP,resources/Empty.png,WildCard_NonEx,-0.326666667,-0.027777778,1,0,0,0.596,optionLeft,45,12115,6,8,0,8,0,1,,,,,,,,,,,,,,,,,,,,,,,,,,,,,,,,,,,,,,,
,,,,,,,,2023-08-06_08h18.48.067,HF_wild_card,2022.2.4,MacIntel,55.55555556,610beac47b52b6084cddf5cd,64ce5acb97489d65b14ecc7a,64cf49167cae1d5dc4f7debd,,,,,,,ctch,resources/DB.BMP,resources/DG.BMP,Door4,-0.371111111,-0.016666667,1,0,0,1.26,optionLeft,60,12175,6,9,0,9,0,1,,,,,,,,,,,,,,,,,,,,,,,,,,,,,,,,,,,,,,,
,,,,,,,,2023-08-06_08h18.48.067,HF_wild_card,2022.2.4,MacIntel,55.55555556,610beac47b52b6084cddf5cd,64ce5acb97489d65b14ecc7a,64cf49167cae1d5dc4f7debd,,,,,,,decisionTrl,resources/DR.BMP,resources/DG.BMP,Door2,-0.338888889,0.017777778,1,0,0,1.375,optionLeft,20,12195,6,10,0,10,0,1,,,,,,,,,,,,,,,,,,,,,,,,,,,,,,,,,,,,,,,
,,,,,,,,2023-08-06_08h18.48.067,HF_wild_card,2022.2.4,MacIntel,55.55555556,610beac47b52b6084cddf5cd,64ce5acb97489d65b14ecc7a,64cf49167cae1d5dc4f7debd,,,,,,,decisionTrl,resources/DP.BMP,resources/DB.BMP,WildCard_NonEx,-0.281111111,0.001111111,1,0,0,1.577,optionLeft,55,12250,6,11,0,11,0,1,,,,,,,,,,,,,,,,,,,,,,,,,,,,,,,,,,,,,,,
,,,,,,,,2023-08-06_08h18.48.067,HF_wild_card,2022.2.4,MacIntel,55.55555556,610beac47b52b6084cddf5cd,64ce5acb97489d65b14ecc7a,64cf49167cae1d5dc4f7debd,,,,,,,decisionTrl,resources/DR.BMP,resources/DG.BMP,Door2,-0.272222222,-0.017777778,1,0,0,1.045,optionLeft,20,12270,6,12,0,12,0,1,,,,,,,,,,,,,,,,,,,,,,,,,,,,,,,,,,,,,,,
,,,,,,,,2023-08-06_08h18.48.067,HF_wild_card,2022.2.4,MacIntel,55.55555556,610beac47b52b6084cddf5cd,64ce5acb97489d65b14ecc7a,64cf49167cae1d5dc4f7debd,,,,,,,sngl,resources/DP.BMP,resources/Empty.png,WildCard_NonEx,-0.304444444,-0.044444444,1,0,0,0.591,optionLeft,55,12325,6,13,0,13,0,1,,,,,,,,,,,,,,,,,,,,,,,,,,,,,,,,,,,,,,,
,,,,,,,,2023-08-06_08h18.48.067,HF_wild_card,2022.2.4,MacIntel,55.55555556,610beac47b52b6084cddf5cd,64ce5acb97489d65b14ecc7a,64cf49167cae1d5dc4f7debd,,,,,,,decisionTrl,resources/DP.BMP,resources/DBN.BMP,Door3,0.262222222,-0.026666667,1,0,0,0.627,optionRight,70,12395,6,14,0,14,0,1,,,,,,,,,,,,,,,,,,,,,,,,,,,,,,,,,,,,,,,
,,,,,,,,2023-08-06_08h18.48.067,HF_wild_card,2022.2.4,MacIntel,55.55555556,610beac47b52b6084cddf5cd,64ce5acb97489d65b14ecc7a,64cf49167cae1d5dc4f7debd,,,,,,,sngl,resources/Empty.png,resources/DBN.BMP,Door3,0.368888889,0.004444444,1,0,0,0.562,optionRight,70,12465,6,15,0,15,0,1,,,,,,,,,,,,,,,,,,,,,,,,,,,,,,,,,,,,,,,
,,,,,,,,2023-08-06_08h18.48.067,HF_wild_card,2022.2.4,MacIntel,55.55555556,610beac47b52b6084cddf5cd,64ce5acb97489d65b14ecc7a,64cf49167cae1d5dc4f7debd,,,,,,,sngl,resources/DBN.BMP,resources/Empty.png,Door3,-0.344444444,-0.056666667,1,0,0,0.594,optionLeft,70,12535,6,16,0,16,0,1,,,,,,,,,,,,,,,,,,,,,,,,,,,,,,,,,,,,,,,
,,,,,,,,2023-08-06_08h18.48.067,HF_wild_card,2022.2.4,MacIntel,55.55555556,610beac47b52b6084cddf5cd,64ce5acb97489d65b14ecc7a,64cf49167cae1d5dc4f7debd,,,,,,,sngl,resources/Empty.png,resources/DB.BMP,Door4,0.323333333,-0.018888889,1,0,0,0.729,optionRight,80,12615,6,17,0,17,0,1,,,,,,,,,,,,,,,,,,,,,,,,,,,,,,,,,,,,,,,
,,,,,,,,2023-08-06_08h18.48.067,HF_wild_card,2022.2.4,MacIntel,55.55555556,610beac47b52b6084cddf5cd,64ce5acb97489d65b14ecc7a,64cf49167cae1d5dc4f7debd,,,,,,,decisionTrl,resources/DBN.BMP,resources/DB.BMP,Door3,-0.395555556,0.027777778,1,0,0,0.519,optionLeft,70,12685,6,18,0,18,0,1,,,,,,,,,,,,,,,,,,,,,,,,,,,,,,,,,,,,,,,
,,,,,,,,2023-08-06_08h18.48.067,HF_wild_card,2022.2.4,MacIntel,55.55555556,610beac47b52b6084cddf5cd,64ce5acb97489d65b14ecc7a,64cf49167cae1d5dc4f7debd,,,,,,,decisionTrl,resources/DG.BMP,resources/DR.BMP,Door1,-0.4,-0.027777778,1,0,0,0.961,optionLeft,30,12715,6,19,0,19,0,1,,,,,,,,,,,,,,,,,,,,,,,,,,,,,,,,,,,,,,,
,,,,,,,,2023-08-06_08h18.48.067,HF_wild_card,2022.2.4,MacIntel,55.55555556,610beac47b52b6084cddf5cd,64ce5acb97489d65b14ecc7a,64cf49167cae1d5dc4f7debd,,,,,,,decisionTrl,resources/DR.BMP,resources/DP.BMP,WildCard_NonEx,0.36,-0.005555556,1,0,0,0.579,optionRight,45,12760,6,20,0,20,0,1,,,,,,,,,,,,,,,,,,,,,,,,,,,,,,,,,,,,,,,
,,,,,,,,2023-08-06_08h18.48.067,HF_wild_card,2022.2.4,MacIntel,55.55555556,610beac47b52b6084cddf5cd,64ce5acb97489d65b14ecc7a,64cf49167cae1d5dc4f7debd,,,,,,,sngl,resources/DR.BMP,resources/Empty.png,Door2,-0.423333333,-0.024444444,1,0,0,0.576,optionLeft,20,12780,6,21,0,21,0,1,,,,,,,,,,,,,,,,,,,,,,,,,,,,,,,,,,,,,,,
,,,,,,,,2023-08-06_08h18.48.067,HF_wild_card,2022.2.4,MacIntel,55.55555556,610beac47b52b6084cddf5cd,64ce5acb97489d65b14ecc7a,64cf49167cae1d5dc4f7debd,,,,,,,decisionTrl,resources/DB.BMP,resources/DBN.BMP,Door3,0.305555556,-0.003333333,1,0,0,0.508,optionRight,70,12850,6,22,0,22,0,1,,,,,,,,,,,,,,,,,,,,,,,,,,,,,,,,,,,,,,,
,,,,,,,,2023-08-06_08h18.48.067,HF_wild_card,2022.2.4,MacIntel,55.55555556,610beac47b52b6084cddf5cd,64ce5acb97489d65b14ecc7a,64cf49167cae1d5dc4f7debd,,,,,,,decisionTrl,resources/DG.BMP,resources/DR.BMP,Door2,0.24,0.006666667,1,0,0,1.079,optionRight,40,12890,6,23,0,23,0,1,,,,,,,,,,,,,,,,,,,,,,,,,,,,,,,,,,,,,,,
,,,,,,,,2023-08-06_08h18.48.067,HF_wild_card,2022.2.4,MacIntel,55.55555556,610beac47b52b6084cddf5cd,64ce5acb97489d65b14ecc7a,64cf49167cae1d5dc4f7debd,,,,,,,ctch,resources/DG.BMP,resources/DB.BMP,Door1,-0.396666667,-0.033333333,1,0,0,0.867,optionLeft,30,12920,6,24,0,24,0,1,,,,,,,,,,,,,,,,,,,,,,,,,,,,,,,,,,,,,,,
,,,,,,,,2023-08-06_08h18.48.067,HF_wild_card,2022.2.4,MacIntel,55.55555556,610beac47b52b6084cddf5cd,64ce5acb97489d65b14ecc7a,64cf49167cae1d5dc4f7debd,,,,,,,sngl,resources/Empty.png,resources/DG.BMP,Door1,0.318888889,-0.014444444,1,0,0,0.489,optionRight,30,12950,6,25,0,25,0,1,,,,,,,,,,,,,,,,,,,,,,,,,,,,,,,,,,,,,,,
,,,,,,,,2023-08-06_08h18.48.067,HF_wild_card,2022.2.4,MacIntel,55.55555556,610beac47b52b6084cddf5cd,64ce5acb97489d65b14ecc7a,64cf49167cae1d5dc4f7debd,,,,,,,ctch,resources/DR.BMP,resources/DBN.BMP,Door3,0.313333333,-0.002222222,1,0,0,0.593,optionRight,70,13020,6,26,0,26,0,1,,,,,,,,,,,,,,,,,,,,,,,,,,,,,,,,,,,,,,,
,,,,,,,,2023-08-06_08h18.48.067,HF_wild_card,2022.2.4,MacIntel,55.55555556,610beac47b52b6084cddf5cd,64ce5acb97489d65b14ecc7a,64cf49167cae1d5dc4f7debd,,,,,,,decisionTrl,resources/DB.BMP,resources/DBN.BMP,Door3,0.236666667,-0.015555556,1,0,0,0.612,optionRight,70,13090,6,27,0,27,0,1,,,,,,,,,,,,,,,,,,,,,,,,,,,,,,,,,,,,,,,
,,,,,,,,2023-08-06_08h18.48.067,HF_wild_card,2022.2.4,MacIntel,55.55555556,610beac47b52b6084cddf5cd,64ce5acb97489d65b14ecc7a,64cf49167cae1d5dc4f7debd,,,,,,,sngl,resources/DG.BMP,resources/Empty.png,Door1,-0.275555556,0.006666667,1,0,0,0.561,optionLeft,30,13120,6,28,0,28,0,1,,,,,,,,,,,,,,,,,,,,,,,,,,,,,,,,,,,,,,,
,,,,,,,,2023-08-06_08h18.48.067,HF_wild_card,2022.2.4,MacIntel,55.55555556,610beac47b52b6084cddf5cd,64ce5acb97489d65b14ecc7a,64cf49167cae1d5dc4f7debd,,,,,,,sngl,resources/Empty.png,resources/DR.BMP,Door2,0.275555556,-0.002222222,1,0,0,0.493,optionRight,40,13160,6,29,0,29,0,1,,,,,,,,,,,,,,,,,,,,,,,,,,,,,,,,,,,,,,,
,,,,,,,,2023-08-06_08h18.48.067,HF_wild_card,2022.2.4,MacIntel,55.55555556,610beac47b52b6084cddf5cd,64ce5acb97489d65b14ecc7a,64cf49167cae1d5dc4f7debd,,,,,,,decisionTrl,resources/DBN.BMP,resources/DB.BMP,Door3,-0.207777778,-0.008888889,1,0,0,0.662,optionLeft,70,13230,6,30,0,30,0,1,,,,,,,,,,,,,,,,,,,,,,,,,,,,,,,,,,,,,,,
,,,,,,,,2023-08-06_08h18.48.067,HF_wild_card,2022.2.4,MacIntel,55.55555556,610beac47b52b6084cddf5cd,64ce5acb97489d65b14ecc7a,64cf49167cae1d5dc4f7debd,,,,,,,decisionTrl,resources/DB.BMP,resources/DBN.BMP,Door3,0.261111111,-0.003333333,1,0,0,0.626,optionRight,70,13300,6,31,0,31,0,1,,,,,,,,,,,,,,,,,,,,,,,,,,,,,,,,,,,,,,,
,,,,,,,,2023-08-06_08h18.48.067,HF_wild_card,2022.2.4,MacIntel,55.55555556,610beac47b52b6084cddf5cd,64ce5acb97489d65b14ecc7a,64cf49167cae1d5dc4f7debd,,,,,,,ctch,resources/DG.BMP,resources/DB.BMP,Door4,0.328888889,-0.036666667,1,0,0,0.741,optionRight,60,13360,6,32,0,32,0,1,,,,,,,,,,,,,,,,,,,,,,,,,,,,,,,,,,,,,,,
,,,,,,,,2023-08-06_08h18.48.067,HF_wild_card,2022.2.4,MacIntel,55.55555556,610beac47b52b6084cddf5cd,64ce5acb97489d65b14ecc7a,64cf49167cae1d5dc4f7debd,,,,,,,decisionTrl,resources/DBN.BMP,resources/DP.BMP,Door3,-0.272222222,-0.048888889,1,0,0,0.612,optionLeft,70,13430,6,33,0,33,0,1,,,,,,,,,,,,,,,,,,,,,,,,,,,,,,,,,,,,,,,
,,,,,,,,2023-08-06_08h18.48.067,HF_wild_card,2022.2.4,MacIntel,55.55555556,610beac47b52b6084cddf5cd,64ce5acb97489d65b14ecc7a,64cf49167cae1d5dc4f7debd,,,,,,,decisionTrl,resources/DB.BMP,resources/DP.BMP,WildCard_NonEx,0.244444444,-0.093333333,1,0,0,0.679,optionRight,45,13475,6,34,0,34,0,1,,,,,,,,,,,,,,,,,,,,,,,,,,,,,,,,,,,,,,,
,,,,,,,,2023-08-06_08h18.48.067,HF_wild_card,2022.2.4,MacIntel,55.55555556,610beac47b52b6084cddf5cd,64ce5acb97489d65b14ecc7a,64cf49167cae1d5dc4f7debd,,,,,,,decisionTrl,resources/DBN.BMP,resources/DB.BMP,Door3,-0.415555556,-0.037777778,1,0,0,0.607,optionLeft,70,13545,6,35,0,35,0,1,,,,,,,,,,,,,,,,,,,,,,,,,,,,,,,,,,,,,,,
,,,,,,,,2023-08-06_08h18.48.067,HF_wild_card,2022.2.4,MacIntel,55.55555556,610beac47b52b6084cddf5cd,64ce5acb97489d65b14ecc7a,64cf49167cae1d5dc4f7debd,,,,,,,decisionTrl,resources/DP.BMP,resources/DG.BMP,WildCard_NonEx,-0.317777778,-0.024444444,1,0,0,0.744,optionLeft,45,13590,6,36,0,36,0,1,,,,,,,,,,,,,,,,,,,,,,,,,,,,,,,,,,,,,,,
,,,,,,,,2023-08-06_08h18.48.067,HF_wild_card,2022.2.4,MacIntel,55.55555556,610beac47b52b6084cddf5cd,64ce5acb97489d65b14ecc7a,64cf49167cae1d5dc4f7debd,,,,,,,decisionTrl,resources/DP.BMP,resources/DR.BMP,WildCard_NonEx,-0.392222222,-0.071111111,1,0,0,0.761,optionLeft,45,13635,6,37,0,37,0,1,,,,,,,,,,,,,,,,,,,,,,,,,,,,,,,,,,,,,,,
,,,,,,,,2023-08-06_08h18.48.067,HF_wild_card,2022.2.4,MacIntel,55.55555556,610beac47b52b6084cddf5cd,64ce5acb97489d65b14ecc7a,64cf49167cae1d5dc4f7debd,,,,,,,ctch,resources/DB.BMP,resources/DG.BMP,Door4,-0.334444444,-0.083333333,1,0,0,0.609,optionLeft,60,13695,6,38,0,38,0,1,,,,,,,,,,,,,,,,,,,,,,,,,,,,,,,,,,,,,,,
,,,,,,,,2023-08-06_08h18.48.067,HF_wild_card,2022.2.4,MacIntel,55.55555556,610beac47b52b6084cddf5cd,64ce5acb97489d65b14ecc7a,64cf49167cae1d5dc4f7debd,,,,,,,sngl,resources/DB.BMP,resources/Empty.png,Door4,-0.195555556,-0.02,1,0,0,0.644,optionLeft,60,13755,6,39,0,39,0,1,,,,,,,,,,,,,,,,,,,,,,,,,,,,,,,,,,,,,,,
,,,,,,,,2023-08-06_08h18.48.067,HF_wild_card,2022.2.4,MacIntel,55.55555556,610beac47b52b6084cddf5cd,64ce5acb97489d65b14ecc7a,64cf49167cae1d5dc4f7debd,,,,,,,decisionTrl,resources/DG.BMP,resources/DR.BMP,Door2,0.265555556,-0.105555556,1,0,0,0.695,optionRight,20,13775,6,40,0,40,0,1,,,,,,,,,,,,,,,,,,,,,,,,,,,,,,,,,,,,,,,
,,,,,,,,2023-08-06_08h18.48.067,HF_wild_card,2022.2.4,MacIntel,55.55555556,610beac47b52b6084cddf5cd,64ce5acb97489d65b14ecc7a,64cf49167cae1d5dc4f7debd,,,,,,,decisionTrl,resources/DBN.BMP,resources/DB.BMP,Door3,-0.255555556,-0.062222222,1,0,0,0.561,optionLeft,70,13845,6,41,0,41,0,1,,,,,,,,,,,,,,,,,,,,,,,,,,,,,,,,,,,,,,,
,,,,,,,,2023-08-06_08h18.48.067,HF_wild_card,2022.2.4,MacIntel,55.55555556,610beac47b52b6084cddf5cd,64ce5acb97489d65b14ecc7a,64cf49167cae1d5dc4f7debd,,,,,,,decisionTrl,resources/DB.BMP,resources/DBN.BMP,Door3,0.3,-0.076666667,1,0,0,0.628,optionRight,70,13915,6,42,0,42,0,1,,,,,,,,,,,,,,,,,,,,,,,,,,,,,,,,,,,,,,,
,,,,,,,,2023-08-06_08h18.48.067,HF_wild_card,2022.2.4,MacIntel,55.55555556,610beac47b52b6084cddf5cd,64ce5acb97489d65b14ecc7a,64cf49167cae1d5dc4f7debd,,,,,,,decisionTrl,resources/DR.BMP,resources/DG.BMP,Door2,-0.254444444,-0.048888889,1,0,0,0.939,optionLeft,40,13955,6,43,0,43,0,1,,,,,,,,,,,,,,,,,,,,,,,,,,,,,,,,,,,,,,,
,,,,,,,,2023-08-06_08h18.48.067,HF_wild_card,2022.2.4,MacIntel,55.55555556,610beac47b52b6084cddf5cd,64ce5acb97489d65b14ecc7a,64cf49167cae1d5dc4f7debd,,,,,,,,,,,,,,,,,,,,,,,,,,5,0,5,0,1,,,,,,,,,,,,,,,,,,,,,,,,,,,,,,,,,,
,,,,,,,,2023-08-06_08h18.48.067,HF_wild_card,2022.2.4,MacIntel,55.55555556,610beac47b52b6084cddf5cd,64ce5acb97489d65b14ecc7a,64cf49167cae1d5dc4f7debd,,,,,,,decisionTrl,resources/DR.BMP,resources/DG.BMP,Door2,-0.398888889,-0.074444444,1,0,0,1.66,optionLeft,40,13995,7,0,0,0,0,1,,,,,,,,,,,,,,,,,,,,,,,,,,,,,,,,,,,,,,,
,,,,,,,,2023-08-06_08h18.48.067,HF_wild_card,2022.2.4,MacIntel,55.55555556,610beac47b52b6084cddf5cd,64ce5acb97489d65b14ecc7a,64cf49167cae1d5dc4f7debd,,,,,,,ctch,resources/DG.BMP,resources/DB.BMP,Door4,0.297777778,-0.001111111,1,0,0,1.563,optionRight,60,14055,7,1,0,1,0,1,,,,,,,,,,,,,,,,,,,,,,,,,,,,,,,,,,,,,,,
,,,,,,,,2023-08-06_08h18.48.067,HF_wild_card,2022.2.4,MacIntel,55.55555556,610beac47b52b6084cddf5cd,64ce5acb97489d65b14ecc7a,64cf49167cae1d5dc4f7debd,,,,,,,ctch,resources/DB.BMP,resources/DG.BMP,Door4,-0.277777778,-0.083333333,1,0,0,0.663,optionLeft,60,14115,7,2,0,2,0,1,,,,,,,,,,,,,,,,,,,,,,,,,,,,,,,,,,,,,,,
,,,,,,,,2023-08-06_08h18.48.067,HF_wild_card,2022.2.4,MacIntel,55.55555556,610beac47b52b6084cddf5cd,64ce5acb97489d65b14ecc7a,64cf49167cae1d5dc4f7debd,,,,,,,decisionTrl,resources/DBN.BMP,resources/DB.BMP,Door3,-0.388888889,-0.002222222,1,0,0,0.596,optionLeft,70,14185,7,3,0,3,0,1,,,,,,,,,,,,,,,,,,,,,,,,,,,,,,,,,,,,,,,
,,,,,,,,2023-08-06_08h18.48.067,HF_wild_card,2022.2.4,MacIntel,55.55555556,610beac47b52b6084cddf5cd,64ce5acb97489d65b14ecc7a,64cf49167cae1d5dc4f7debd,,,,,,,decisionTrl,resources/DR.BMP,resources/DG.BMP,Door2,-0.265555556,-0.038888889,1,0,0,1.5,optionLeft,40,14225,7,4,0,4,0,1,,,,,,,,,,,,,,,,,,,,,,,,,,,,,,,,,,,,,,,
,,,,,,,,2023-08-06_08h18.48.067,HF_wild_card,2022.2.4,MacIntel,55.55555556,610beac47b52b6084cddf5cd,64ce5acb97489d65b14ecc7a,64cf49167cae1d5dc4f7debd,,,,,,,ctch,resources/DG.BMP,resources/DB.BMP,Door4,0.342222222,-0.016666667,1,0,0,1.263,optionRight,60,14285,7,5,0,5,0,1,,,,,,,,,,,,,,,,,,,,,,,,,,,,,,,,,,,,,,,
,,,,,,,,2023-08-06_08h18.48.067,HF_wild_card,2022.2.4,MacIntel,55.55555556,610beac47b52b6084cddf5cd,64ce5acb97489d65b14ecc7a,64cf49167cae1d5dc4f7debd,,,,,,,ctch,resources/DBN.BMP,resources/DR.BMP,Door3,-0.391111111,-0.037777778,1,0,0,1.084,optionLeft,70,14355,7,6,0,6,0,1,,,,,,,,,,,,,,,,,,,,,,,,,,,,,,,,,,,,,,,
,,,,,,,,2023-08-06_08h18.48.067,HF_wild_card,2022.2.4,MacIntel,55.55555556,610beac47b52b6084cddf5cd,64ce5acb97489d65b14ecc7a,64cf49167cae1d5dc4f7debd,,,,,,,decisionTrl,resources/DR.BMP,resources/DG.BMP,Door2,-0.352222222,0.025555556,1,0,0,1.414,optionLeft,20,14375,7,7,0,7,0,1,,,,,,,,,,,,,,,,,,,,,,,,,,,,,,,,,,,,,,,
,,,,,,,,2023-08-06_08h18.48.067,HF_wild_card,2022.2.4,MacIntel,55.55555556,610beac47b52b6084cddf5cd,64ce5acb97489d65b14ecc7a,64cf49167cae1d5dc4f7debd,,,,,,,decisionTrl,resources/DBN.BMP,resources/DB.BMP,Door3,-0.331111111,0.082222222,1,0,0,0.929,optionLeft,70,14445,7,8,0,8,0,1,,,,,,,,,,,,,,,,,,,,,,,,,,,,,,,,,,,,,,,
,,,,,,,,2023-08-06_08h18.48.067,HF_wild_card,2022.2.4,MacIntel,55.55555556,610beac47b52b6084cddf5cd,64ce5acb97489d65b14ecc7a,64cf49167cae1d5dc4f7debd,,,,,,,decisionTrl,resources/DB.BMP,resources/DBN.BMP,Door3,0.378888889,0.024444444,1,0,0,0.682,optionRight,70,14515,7,9,0,9,0,1,,,,,,,,,,,,,,,,,,,,,,,,,,,,,,,,,,,,,,,
,,,,,,,,2023-08-06_08h18.48.067,HF_wild_card,2022.2.4,MacIntel,55.55555556,610beac47b52b6084cddf5cd,64ce5acb97489d65b14ecc7a,64cf49167cae1d5dc4f7debd,,,,,,,decisionTrl,resources/DR.BMP,resources/DG.BMP,Door2,-0.415555556,0.061111111,1,0,0,1.465,optionLeft,20,14535,7,10,0,10,0,1,,,,,,,,,,,,,,,,,,,,,,,,,,,,,,,,,,,,,,,
,,,,,,,,2023-08-06_08h18.48.067,HF_wild_card,2022.2.4,MacIntel,55.55555556,610beac47b52b6084cddf5cd,64ce5acb97489d65b14ecc7a,64cf49167cae1d5dc4f7debd,,,,,,,decisionTrl,resources/DBN.BMP,resources/DB.BMP,Door3,-0.335555556,0.097777778,1,0,0,0.732,optionLeft,70,14605,7,11,0,11,0,1,,,,,,,,,,,,,,,,,,,,,,,,,,,,,,,,,,,,,,,
,,,,,,,,2023-08-06_08h18.48.067,HF_wild_card,2022.2.4,MacIntel,55.55555556,610beac47b52b6084cddf5cd,64ce5acb97489d65b14ecc7a,64cf49167cae1d5dc4f7debd,,,,,,,ctch,resources/DR.BMP,resources/DBN.BMP,Door3,0.27,0.01,1,0,0,0.614,optionRight,70,14675,7,12,0,12,0,1,,,,,,,,,,,,,,,,,,,,,,,,,,,,,,,,,,,,,,,
,,,,,,,,2023-08-06_08h18.48.067,HF_wild_card,2022.2.4,MacIntel,55.55555556,610beac47b52b6084cddf5cd,64ce5acb97489d65b14ecc7a,64cf49167cae1d5dc4f7debd,,,,,,,decisionTrl,resources/DG.BMP,resources/DR.BMP,Door2,0.381111111,0.053333333,1,0,0,1.347,optionRight,40,14715,7,13,0,13,0,1,,,,,,,,,,,,,,,,,,,,,,,,,,,,,,,,,,,,,,,
,,,,,,,,2023-08-06_08h18.48.067,HF_wild_card,2022.2.4,MacIntel,55.55555556,610beac47b52b6084cddf5cd,64ce5acb97489d65b14ecc7a,64cf49167cae1d5dc4f7debd,,,,,,,ctch,resources/DB.BMP,resources/DG.BMP,Door4,-0.434444444,0.064444444,1,0,0,1.632,optionLeft,60,14775,7,14,0,14,0,1,,,,,,,,,,,,,,,,,,,,,,,,,,,,,,,,,,,,,,,
,,,,,,,,2023-08-06_08h18.48.067,HF_wild_card,2022.2.4,MacIntel,55.55555556,610beac47b52b6084cddf5cd,64ce5acb97489d65b14ecc7a,64cf49167cae1d5dc4f7debd,,,,,,,decisionTrl,resources/DB.BMP,resources/DBN.BMP,Door3,0.457777778,0.135555556,1,0,0,0.849,optionRight,70,14845,7,15,0,15,0,1,,,,,,,,,,,,,,,,,,,,,,,,,,,,,,,,,,,,,,,
,,,,,,,,2023-08-06_08h18.48.067,HF_wild_card,2022.2.4,MacIntel,55.55555556,610beac47b52b6084cddf5cd,64ce5acb97489d65b14ecc7a,64cf49167cae1d5dc4f7debd,,,,,,,decisionTrl,resources/DR.BMP,resources/DG.BMP,Door2,-0.461111111,0.082222222,1,0,0,2.131,optionLeft,20,14865,7,16,0,16,0,1,,,,,,,,,,,,,,,,,,,,,,,,,,,,,,,,,,,,,,,
,,,,,,,,2023-08-06_08h18.48.067,HF_wild_card,2022.2.4,MacIntel,55.55555556,610beac47b52b6084cddf5cd,64ce5acb97489d65b14ecc7a,64cf49167cae1d5dc4f7debd,,,,,,,decisionTrl,resources/DBN.BMP,resources/DB.BMP,Door3,-0.323333333,0.131111111,1,0,0,0.699,optionLeft,70,14935,7,17,0,17,0,1,,,,,,,,,,,,,,,,,,,,,,,,,,,,,,,,,,,,,,,
,,,,,,,,2023-08-06_08h18.48.067,HF_wild_card,2022.2.4,MacIntel,55.55555556,610beac47b52b6084cddf5cd,64ce5acb97489d65b14ecc7a,64cf49167cae1d5dc4f7debd,,,,,,,ctch,resources/DR.BMP,resources/DBN.BMP,Door3,0.27,0.056666667,1,0,0,0.686,optionRight,70,15005,7,18,0,18,0,1,,,,,,,,,,,,,,,,,,,,,,,,,,,,,,,,,,,,,,,
,,,,,,,,2023-08-06_08h18.48.067,HF_wild_card,2022.2.4,MacIntel,55.55555556,610beac47b52b6084cddf5cd,64ce5acb97489d65b14ecc7a,64cf49167cae1d5dc4f7debd,,,,,,,ctch,resources/DR.BMP,resources/DBN.BMP,Door3,0.224444444,0.024444444,1,0,0,0.649,optionRight,70,15075,7,19,0,19,0,1,,,,,,,,,,,,,,,,,,,,,,,,,,,,,,,,,,,,,,,
,,,,,,,,2023-08-06_08h18.48.067,HF_wild_card,2022.2.4,MacIntel,55.55555556,610beac47b52b6084cddf5cd,64ce5acb97489d65b14ecc7a,64cf49167cae1d5dc4f7debd,,,,,,,ctch,resources/DBN.BMP,resources/DR.BMP,Door3,-0.3,0.086666667,1,0,0,0.581,optionLeft,70,15145,7,20,0,20,0,1,,,,,,,,,,,,,,,,,,,,,,,,,,,,,,,,,,,,,,,
,,,,,,,,2023-08-06_08h18.48.067,HF_wild_card,2022.2.4,MacIntel,55.55555556,610beac47b52b6084cddf5cd,64ce5acb97489d65b14ecc7a,64cf49167cae1d5dc4f7debd,,,,,,,decisionTrl,resources/DG.BMP,resources/DR.BMP,Door2,0.32,0.111111111,1,0,0,1.433,optionRight,40,15185,7,21,0,21,0,1,,,,,,,,,,,,,,,,,,,,,,,,,,,,,,,,,,,,,,,
,,,,,,,,2023-08-06_08h18.48.067,HF_wild_card,2022.2.4,MacIntel,55.55555556,610beac47b52b6084cddf5cd,64ce5acb97489d65b14ecc7a,64cf49167cae1d5dc4f7debd,,,,,,,decisionTrl,resources/DG.BMP,resources/DR.BMP,Door2,0.276666667,0.014444444,1,0,0,0.567,optionRight,40,15225,7,22,0,22,0,1,,,,,,,,,,,,,,,,,,,,,,,,,,,,,,,,,,,,,,,
,,,,,,,,2023-08-06_08h18.48.067,HF_wild_card,2022.2.4,MacIntel,55.55555556,610beac47b52b6084cddf5cd,64ce5acb97489d65b14ecc7a,64cf49167cae1d5dc4f7debd,,,,,,,decisionTrl,resources/DG.BMP,resources/DR.BMP,Door2,0.29,0.028888889,1,0,0,0.604,optionRight,40,15265,7,23,0,23,0,1,,,,,,,,,,,,,,,,,,,,,,,,,,,,,,,,,,,,,,,
,,,,,,,,2023-08-06_08h18.48.067,HF_wild_card,2022.2.4,MacIntel,55.55555556,610beac47b52b6084cddf5cd,64ce5acb97489d65b14ecc7a,64cf49167cae1d5dc4f7debd,,,,,,,decisionTrl,resources/DBN.BMP,resources/DB.BMP,Door3,-0.306666667,0.056666667,1,0,0,0.93,optionLeft,70,15335,7,24,0,24,0,1,,,,,,,,,,,,,,,,,,,,,,,,,,,,,,,,,,,,,,,
,,,,,,,,2023-08-06_08h18.48.067,HF_wild_card,2022.2.4,MacIntel,55.55555556,610beac47b52b6084cddf5cd,64ce5acb97489d65b14ecc7a,64cf49167cae1d5dc4f7debd,,,,,,,decisionTrl,resources/DB.BMP,resources/DBN.BMP,Door3,0.325555556,0.013333333,1,0,0,0.565,optionRight,70,15405,7,25,0,25,0,1,,,,,,,,,,,,,,,,,,,,,,,,,,,,,,,,,,,,,,,
,,,,,,,,2023-08-06_08h18.48.067,HF_wild_card,2022.2.4,MacIntel,55.55555556,610beac47b52b6084cddf5cd,64ce5acb97489d65b14ecc7a,64cf49167cae1d5dc4f7debd,,,,,,,decisionTrl,resources/DG.BMP,resources/DR.BMP,Door1,-0.302222222,0.067777778,1,0,0,1.032,optionLeft,30,15435,7,26,0,26,0,1,,,,,,,,,,,,,,,,,,,,,,,,,,,,,,,,,,,,,,,
,,,,,,,,2023-08-06_08h18.48.067,HF_wild_card,2022.2.4,MacIntel,55.55555556,610beac47b52b6084cddf5cd,64ce5acb97489d65b14ecc7a,64cf49167cae1d5dc4f7debd,,,,,,,ctch,resources/DG.BMP,resources/DB.BMP,Door4,0.292222222,0.048888889,1,0,0,1.898,optionRight,80,15515,7,27,0,27,0,1,,,,,,,,,,,,,,,,,,,,,,,,,,,,,,,,,,,,,,,
,,,,,,,,2023-08-06_08h18.48.067,HF_wild_card,2022.2.4,MacIntel,55.55555556,610beac47b52b6084cddf5cd,64ce5acb97489d65b14ecc7a,64cf49167cae1d5dc4f7debd,,,,,,,decisionTrl,resources/DB.BMP,resources/DBN.BMP,Door3,0.22,0.048888889,1,0,0,0.779,optionRight,70,15585,7,28,0,28,0,1,,,,,,,,,,,,,,,,,,,,,,,,,,,,,,,,,,,,,,,
,,,,,,,,2023-08-06_08h18.48.067,HF_wild_card,2022.2.4,MacIntel,55.55555556,610beac47b52b6084cddf5cd,64ce5acb97489d65b14ecc7a,64cf49167cae1d5dc4f7debd,,,,,,,decisionTrl,resources/DBN.BMP,resources/DB.BMP,Door3,-0.31,0.004444444,1,0,0,0.615,optionLeft,70,15655,7,29,0,29,0,1,,,,,,,,,,,,,,,,,,,,,,,,,,,,,,,,,,,,,,,
,,,,,,,,2023-08-06_08h18.48.067,HF_wild_card,2022.2.4,MacIntel,55.55555556,610beac47b52b6084cddf5cd,64ce5acb97489d65b14ecc7a,64cf49167cae1d5dc4f7debd,,,,,,,decisionTrl,resources/DB.BMP,resources/DBN.BMP,Door3,0.217777778,0.014444444,1,0,0,0.669,optionRight,70,15725,7,30,0,30,0,1,,,,,,,,,,,,,,,,,,,,,,,,,,,,,,,,,,,,,,,
,,,,,,,,2023-08-06_08h18.48.067,HF_wild_card,2022.2.4,MacIntel,55.55555556,610beac47b52b6084cddf5cd,64ce5acb97489d65b14ecc7a,64cf49167cae1d5dc4f7debd,,,,,,,ctch,resources/DBN.BMP,resources/DR.BMP,Door3,-0.306666667,0.002222222,1,0,0,0.627,optionLeft,70,15795,7,31,0,31,0,1,,,,,,,,,,,,,,,,,,,,,,,,,,,,,,,,,,,,,,,
,,,,,,,,2023-08-06_08h18.48.067,HF_wild_card,2022.2.4,MacIntel,55.55555556,610beac47b52b6084cddf5cd,64ce5acb97489d65b14ecc7a,64cf49167cae1d5dc4f7debd,,,,,,,decisionTrl,resources/DR.BMP,resources/DG.BMP,Door1,0.324444444,-0.015555556,1,0,0,0.948,optionRight,30,15825,7,32,0,32,0,1,,,,,,,,,,,,,,,,,,,,,,,,,,,,,,,,,,,,,,,
,,,,,,,,2023-08-06_08h18.48.067,HF_wild_card,2022.2.4,MacIntel,55.55555556,610beac47b52b6084cddf5cd,64ce5acb97489d65b14ecc7a,64cf49167cae1d5dc4f7debd,,,,,,,decisionTrl,resources/DB.BMP,resources/DBN.BMP,Door3,0.238888889,0.033333333,1,0,0,0.664,optionRight,70,15895,7,33,0,33,0,1,,,,,,,,,,,,,,,,,,,,,,,,,,,,,,,,,,,,,,,
,,,,,,,,2023-08-06_08h18.48.067,HF_wild_card,2022.2.4,MacIntel,55.55555556,610beac47b52b6084cddf5cd,64ce5acb97489d65b14ecc7a,64cf49167cae1d5dc4f7debd,,,,,,,decisionTrl,resources/DG.BMP,resources/DR.BMP,Door2,0.304444444,0.023333333,1,0,0,1.465,optionRight,20,15915,7,34,0,34,0,1,,,,,,,,,,,,,,,,,,,,,,,,,,,,,,,,,,,,,,,
,,,,,,,,2023-08-06_08h18.48.067,HF_wild_card,2022.2.4,MacIntel,55.55555556,610beac47b52b6084cddf5cd,64ce5acb97489d65b14ecc7a,64cf49167cae1d5dc4f7debd,,,,,,,ctch,resources/DB.BMP,resources/DG.BMP,Door4,-0.377777778,0.004444444,1,0,0,3.233,optionLeft,60,15975,7,35,0,35,0,1,,,,,,,,,,,,,,,,,,,,,,,,,,,,,,,,,,,,,,,
,,,,,,,,2023-08-06_08h18.48.067,HF_wild_card,2022.2.4,MacIntel,55.55555556,610beac47b52b6084cddf5cd,64ce5acb97489d65b14ecc7a,64cf49167cae1d5dc4f7debd,,,,,,,,,,,,,,,,,,,,,,,,,,6,0,6,0,1,,,,,,,,,,,,,,,,,,,,,,,,,,,,,,,,,,
,,,,,,,,2023-08-06_08h18.48.067,HF_wild_card,2022.2.4,MacIntel,55.55555556,610beac47b52b6084cddf5cd,64ce5acb97489d65b14ecc7a,64cf49167cae1d5dc4f7debd,,,,,,,,,,,,,,,,,,,,,,,,,,,,,,,3,,,,,,,,,,,,,,,,,,,,,,,,,,,,,,,,,
,,,,,,,,2023-08-06_08h18.48.067,HF_wild_card,2022.2.4,MacIntel,55.55555556,610beac47b52b6084cddf5cd,64ce5acb97489d65b14ecc7a,64cf49167cae1d5dc4f7debd,,,,,,,,,,,,,,,,,,,,,,,,,,,,,,,,,,,,,,,,,,,,,,,,,,,,,,,,,,,,,,,,
,,,,,,,,2023-08-06_08h18.48.067,HF_wild_card,2022.2.4,MacIntel,55.55555556,610beac47b52b6084cddf5cd,64ce5acb97489d65b14ecc7a,64cf49167cae1d5dc4f7debd,,,,,,,,,,,,,,,,,,,,,,,,,,,,,,,,55,WC_nonExtreme,resources/DP.BMP,0,0,0,0,1,,,,,,,,,,,,,,,,,,,,,,,,,
,,,,,,,,2023-08-06_08h18.48.067,HF_wild_card,2022.2.4,MacIntel,55.55555556,610beac47b52b6084cddf5cd,64ce5acb97489d65b14ecc7a,64cf49167cae1d5dc4f7debd,,,,,,,,,,,,,,,,,,,,,,,,,,,,,,,,40,Door2,resources/DR.BMP,1,0,1,0,1,,,,,,,,,,,,,,,,,,,,,,,,,
,,,,,,,,2023-08-06_08h18.48.067,HF_wild_card,2022.2.4,MacIntel,55.55555556,610beac47b52b6084cddf5cd,64ce5acb97489d65b14ecc7a,64cf49167cae1d5dc4f7debd,,,,,,,,,,,,,,,,,,,,,,,,,,,,,,,,95,WC_extreme,resources/DY.BMP,2,0,2,0,1,,,,,,,,,,,,,,,,,,,,,,,,,
,,,,,,,,2023-08-06_08h18.48.067,HF_wild_card,2022.2.4,MacIntel,55.55555556,610beac47b52b6084cddf5cd,64ce5acb97489d65b14ecc7a,64cf49167cae1d5dc4f7debd,,,,,,,,,,,,,,,,,,,,,,,,,,,,,,,,70,Door3,resources/DBN.BMP,3,0,3,0,1,,,,,,,,,,,,,,,,,,,,,,,,,
,,,,,,,,2023-08-06_08h18.48.067,HF_wild_card,2022.2.4,MacIntel,55.55555556,610beac47b52b6084cddf5cd,64ce5acb97489d65b14ecc7a,64cf49167cae1d5dc4f7debd,,,,,,,,,,,,,,,,,,,,,,,,,,,,,,,,40,Door4,resources/DB.BMP,4,0,4,0,1,,,,,,,,,,,,,,,,,,,,,,,,,
