Condition,Low fixed image (Door1),Low risky image (Door2),High fixed image (Door3),High risky image (Door4),Extreme Wild Card,NonExtreme Wild Card,,date,expName,psychopyVersion,OS,frameRate,PROLIFIC_PID,STUDY_ID,SESSION_ID,mouse_2.x,mouse_2.y,mouse_2.leftButton,mouse_2.midButton,mouse_2.rightButton,mouse_2.clicked_name,Trial Type,Left Option Image,Right Option Image,Chosen Door,mouse.x,mouse.y,mouse.leftButton,mouse.midButton,mouse.rightButton,mouse.time,mouse.clicked_name,Feedback,Cumulative Reward,Block,trial.thisRepN,trial.thisTrialN,trial.thisN,trial.thisIndex,trial.ran,blocks.thisRepN,blocks.thisTrialN,blocks.thisN,blocks.thisIndex,blocks.ran,Money conversion,First Outcome Reported,Shown Door (First Outcome),Displayed Image (First Outcome),outcomes.thisRepN,outcomes.thisTrialN,outcomes.thisN,outcomes.thisIndex,outcomes.ran,judgments.thisRepN,judgments.thisTrialN,judgments.thisN,judgments.thisIndex,judgments.ran,freqMouse.x,freqMouse.y,freqMouse.leftButton,freqMouse.midButton,freqMouse.rightButton,freqMouse.clicked_name,FQJ for first outcome,FQJ for second outcome,Shown Door,Displayed Image,trials.thisRepN,trials.thisTrialN,trials.thisN,trials.thisIndex,trials.ran,judgBlock.thisRepN,judgBlock.thisTrialN,judgBlock.thisN,judgBlock.thisIndex,judgBlock.ran
1,resources/DBN.BMP,resources/DY.BMP,resources/DR.BMP,resources/DB.BMP,resources/DG.BMP,resources/DP.BMP,,2023-08-16_08h35.19.173,HF_wild_card,2022.2.4,Win32,60.02040694,63de5a3da0d14b3d32a134f8,64d2fd46c836a06233681665,64dc7c1fd479d511601f21a6,,,,,,,,,,,,,,,,,,,,,,,,,,,,,,,,,,,,,,,,,,,,,,,,,,,,,,,,,,,,,,,,
,,,,,,,,2023-08-16_08h35.19.173,HF_wild_card,2022.2.4,Win32,60.02040694,63de5a3da0d14b3d32a134f8,64d2fd46c836a06233681665,64dc7c1fd479d511601f21a6,0.001851852,-0.411111111,1,0,0,agree,,,,,,,,,,,,,,,,,,,,,,,,,,,,,,,,,,,,,,,,,,,,,,,,,,,,,,,,,,
,,,,,,,,2023-08-16_08h35.19.173,HF_wild_card,2022.2.4,Win32,60.02040694,63de5a3da0d14b3d32a134f8,64d2fd46c836a06233681665,64dc7c1fd479d511601f21a6,,,,,,,,,,,,,,,,,,,,,,,,,,,,,,,,,,,,,,,,,,,,,,,,,,,,,,,,,,,,,,,,
,,,,,,,,2023-08-16_08h35.19.173,HF_wild_card,2022.2.4,Win32,60.02040694,63de5a3da0d14b3d32a134f8,64d2fd46c836a06233681665,64dc7c1fd479d511601f21a6,,,,,,,decisionTrl,resources/DB.BMP,resources/DR.BMP,Door3,0.477777778,-0.167592593,1,0,0,5.2875,optionRight,70,70,1,0,0,0,0,1,,,,,,,,,,,,,,,,,,,,,,,,,,,,,,,,,,,,,,,
,,,,,,,,2023-08-16_08h35.19.173,HF_wild_card,2022.2.4,Win32,60.02040694,63de5a3da0d14b3d32a134f8,64d2fd46c836a06233681665,64dc7c1fd479d511601f21a6,,,,,,,ctch,resources/DB.BMP,resources/DBN.BMP,Door1,0.485185185,-0.013888889,1,0,0,5.242,optionRight,30,100,1,1,0,1,0,1,,,,,,,,,,,,,,,,,,,,,,,,,,,,,,,,,,,,,,,
,,,,,,,,2023-08-16_08h35.19.173,HF_wild_card,2022.2.4,Win32,60.02040694,63de5a3da0d14b3d32a134f8,64d2fd46c836a06233681665,64dc7c1fd479d511601f21a6,,,,,,,ctch,resources/DR.BMP,resources/DY.BMP,Door3,-0.362037037,-0.049074074,1,0,0,7.1224,optionLeft,70,170,1,2,0,2,0,1,,,,,,,,,,,,,,,,,,,,,,,,,,,,,,,,,,,,,,,
,,,,,,,,2023-08-16_08h35.19.173,HF_wild_card,2022.2.4,Win32,60.02040694,63de5a3da0d14b3d32a134f8,64d2fd46c836a06233681665,64dc7c1fd479d511601f21a6,,,,,,,sngl,resources/DBN.BMP,resources/Empty.png,Door1,-0.382407407,-0.006481481,1,0,0,2.3431,optionLeft,30,200,1,3,0,3,0,1,,,,,,,,,,,,,,,,,,,,,,,,,,,,,,,,,,,,,,,
,,,,,,,,2023-08-16_08h35.19.173,HF_wild_card,2022.2.4,Win32,60.02040694,63de5a3da0d14b3d32a134f8,64d2fd46c836a06233681665,64dc7c1fd479d511601f21a6,,,,,,,sngl,resources/Empty.png,resources/DP.BMP,WildCard_NonEx,0.317592593,-0.068518519,1,0,0,2.0178,optionRight,45,245,1,4,0,4,0,1,,,,,,,,,,,,,,,,,,,,,,,,,,,,,,,,,,,,,,,
,,,,,,,,2023-08-16_08h35.19.173,HF_wild_card,2022.2.4,Win32,60.02040694,63de5a3da0d14b3d32a134f8,64d2fd46c836a06233681665,64dc7c1fd479d511601f21a6,,,,,,,sngl,resources/DR.BMP,resources/Empty.png,Door3,-0.359259259,-0.026851852,1,0,0,1.8095,optionLeft,70,315,1,5,0,5,0,1,,,,,,,,,,,,,,,,,,,,,,,,,,,,,,,,,,,,,,,
,,,,,,,,2023-08-16_08h35.19.173,HF_wild_card,2022.2.4,Win32,60.02040694,63de5a3da0d14b3d32a134f8,64d2fd46c836a06233681665,64dc7c1fd479d511601f21a6,,,,,,,decisionTrl,resources/DP.BMP,resources/DBN.BMP,WildCard_NonEx,-0.353703704,-0.027777778,1,0,0,1.8272,optionLeft,55,370,1,6,0,6,0,1,,,,,,,,,,,,,,,,,,,,,,,,,,,,,,,,,,,,,,,
,,,,,,,,2023-08-16_08h35.19.173,HF_wild_card,2022.2.4,Win32,60.02040694,63de5a3da0d14b3d32a134f8,64d2fd46c836a06233681665,64dc7c1fd479d511601f21a6,,,,,,,decisionTrl,resources/DY.BMP,resources/DBN.BMP,Door1,0.358333333,0.030555556,1,0,0,4.3114,optionRight,30,400,1,7,0,7,0,1,,,,,,,,,,,,,,,,,,,,,,,,,,,,,,,,,,,,,,,
,,,,,,,,2023-08-16_08h35.19.173,HF_wild_card,2022.2.4,Win32,60.02040694,63de5a3da0d14b3d32a134f8,64d2fd46c836a06233681665,64dc7c1fd479d511601f21a6,,,,,,,decisionTrl,resources/DBN.BMP,resources/DP.BMP,WildCard_NonEx,0.333333333,0.026851852,1,0,0,1.9615,optionRight,45,445,1,8,0,8,0,1,,,,,,,,,,,,,,,,,,,,,,,,,,,,,,,,,,,,,,,
,,,,,,,,2023-08-16_08h35.19.173,HF_wild_card,2022.2.4,Win32,60.02040694,63de5a3da0d14b3d32a134f8,64d2fd46c836a06233681665,64dc7c1fd479d511601f21a6,,,,,,,ctch,resources/DBN.BMP,resources/DB.BMP,Door1,-0.361111111,0.023148148,1,0,0,2.5115,optionLeft,30,475,1,9,0,9,0,1,,,,,,,,,,,,,,,,,,,,,,,,,,,,,,,,,,,,,,,
,,,,,,,,2023-08-16_08h35.19.173,HF_wild_card,2022.2.4,Win32,60.02040694,63de5a3da0d14b3d32a134f8,64d2fd46c836a06233681665,64dc7c1fd479d511601f21a6,,,,,,,decisionTrl,resources/DY.BMP,resources/DBN.BMP,Door2,-0.460185185,-0.021296296,1,0,0,5.528,optionLeft,20,495,1,10,0,10,0,1,,,,,,,,,,,,,,,,,,,,,,,,,,,,,,,,,,,,,,,
,,,,,,,,2023-08-16_08h35.19.173,HF_wild_card,2022.2.4,Win32,60.02040694,63de5a3da0d14b3d32a134f8,64d2fd46c836a06233681665,64dc7c1fd479d511601f21a6,,,,,,,sngl,resources/DP.BMP,resources/Empty.png,WildCard_NonEx,-0.35462963,-0.009259259,1,0,0,1.1942,optionLeft,45,540,1,11,0,11,0,1,,,,,,,,,,,,,,,,,,,,,,,,,,,,,,,,,,,,,,,
,,,,,,,,2023-08-16_08h35.19.173,HF_wild_card,2022.2.4,Win32,60.02040694,63de5a3da0d14b3d32a134f8,64d2fd46c836a06233681665,64dc7c1fd479d511601f21a6,,,,,,,ctch,resources/DBN.BMP,resources/DB.BMP,Door1,-0.341666667,0.025925926,1,0,0,1.4766,optionLeft,30,570,1,12,0,12,0,1,,,,,,,,,,,,,,,,,,,,,,,,,,,,,,,,,,,,,,,
,,,,,,,,2023-08-16_08h35.19.173,HF_wild_card,2022.2.4,Win32,60.02040694,63de5a3da0d14b3d32a134f8,64d2fd46c836a06233681665,64dc7c1fd479d511601f21a6,,,,,,,sngl,resources/Empty.png,resources/DY.BMP,Door2,0.290740741,-0.022222222,1,0,0,2.8111,optionRight,20,590,1,13,0,13,0,1,,,,,,,,,,,,,,,,,,,,,,,,,,,,,,,,,,,,,,,
,,,,,,,,2023-08-16_08h35.19.173,HF_wild_card,2022.2.4,Win32,60.02040694,63de5a3da0d14b3d32a134f8,64d2fd46c836a06233681665,64dc7c1fd479d511601f21a6,,,,,,,decisionTrl,resources/DB.BMP,resources/DR.BMP,Door3,0.312962963,-0.018518519,1,0,0,1.8778,optionRight,70,660,1,14,0,14,0,1,,,,,,,,,,,,,,,,,,,,,,,,,,,,,,,,,,,,,,,
,,,,,,,,2023-08-16_08h35.19.173,HF_wild_card,2022.2.4,Win32,60.02040694,63de5a3da0d14b3d32a134f8,64d2fd46c836a06233681665,64dc7c1fd479d511601f21a6,,,,,,,decisionTrl,resources/DBN.BMP,resources/DY.BMP,Door2,0.32037037,-0.022222222,1,0,0,3.7938,optionRight,40,700,1,15,0,15,0,1,,,,,,,,,,,,,,,,,,,,,,,,,,,,,,,,,,,,,,,
,,,,,,,,2023-08-16_08h35.19.173,HF_wild_card,2022.2.4,Win32,60.02040694,63de5a3da0d14b3d32a134f8,64d2fd46c836a06233681665,64dc7c1fd479d511601f21a6,,,,,,,decisionTrl,resources/DBN.BMP,resources/DY.BMP,Door2,0.332407407,-0.030555556,1,0,0,2.1621,optionRight,20,720,1,16,0,16,0,1,,,,,,,,,,,,,,,,,,,,,,,,,,,,,,,,,,,,,,,
,,,,,,,,2023-08-16_08h35.19.173,HF_wild_card,2022.2.4,Win32,60.02040694,63de5a3da0d14b3d32a134f8,64d2fd46c836a06233681665,64dc7c1fd479d511601f21a6,,,,,,,sngl,resources/Empty.png,resources/DP.BMP,WildCard_NonEx,0.373148148,-0.026851852,1,0,0,1.5949,optionRight,55,775,1,17,0,17,0,1,,,,,,,,,,,,,,,,,,,,,,,,,,,,,,,,,,,,,,,
,,,,,,,,2023-08-16_08h35.19.173,HF_wild_card,2022.2.4,Win32,60.02040694,63de5a3da0d14b3d32a134f8,64d2fd46c836a06233681665,64dc7c1fd479d511601f21a6,,,,,,,decisionTrl,resources/DR.BMP,resources/DB.BMP,Door4,0.327777778,-0.022222222,1,0,0,4.0116,optionRight,80,855,1,18,0,18,0,1,,,,,,,,,,,,,,,,,,,,,,,,,,,,,,,,,,,,,,,
,,,,,,,,2023-08-16_08h35.19.173,HF_wild_card,2022.2.4,Win32,60.02040694,63de5a3da0d14b3d32a134f8,64d2fd46c836a06233681665,64dc7c1fd479d511601f21a6,,,,,,,decisionTrl,resources/DR.BMP,resources/DB.BMP,Door4,0.330555556,-0.013888889,1,0,0,3.1278,optionRight,80,935,1,19,0,19,0,1,,,,,,,,,,,,,,,,,,,,,,,,,,,,,,,,,,,,,,,
,,,,,,,,2023-08-16_08h35.19.173,HF_wild_card,2022.2.4,Win32,60.02040694,63de5a3da0d14b3d32a134f8,64d2fd46c836a06233681665,64dc7c1fd479d511601f21a6,,,,,,,decisionTrl,resources/DB.BMP,resources/DR.BMP,Door4,-0.42037037,-0.008333333,1,0,0,2.0449,optionLeft,80,1015,1,20,0,20,0,1,,,,,,,,,,,,,,,,,,,,,,,,,,,,,,,,,,,,,,,
,,,,,,,,2023-08-16_08h35.19.173,HF_wild_card,2022.2.4,Win32,60.02040694,63de5a3da0d14b3d32a134f8,64d2fd46c836a06233681665,64dc7c1fd479d511601f21a6,,,,,,,decisionTrl,resources/DBN.BMP,resources/DY.BMP,Door1,-0.356481481,-0.007407407,1,0,0,3.5613,optionLeft,30,1045,1,21,0,21,0,1,,,,,,,,,,,,,,,,,,,,,,,,,,,,,,,,,,,,,,,
,,,,,,,,2023-08-16_08h35.19.173,HF_wild_card,2022.2.4,Win32,60.02040694,63de5a3da0d14b3d32a134f8,64d2fd46c836a06233681665,64dc7c1fd479d511601f21a6,,,,,,,decisionTrl,resources/DBN.BMP,resources/DY.BMP,Door2,0.280555556,-0.019444444,1,0,0,1.3922,optionRight,40,1085,1,22,0,22,0,1,,,,,,,,,,,,,,,,,,,,,,,,,,,,,,,,,,,,,,,
,,,,,,,,2023-08-16_08h35.19.173,HF_wild_card,2022.2.4,Win32,60.02040694,63de5a3da0d14b3d32a134f8,64d2fd46c836a06233681665,64dc7c1fd479d511601f21a6,,,,,,,sngl,resources/DP.BMP,resources/Empty.png,WildCard_NonEx,-0.393518519,-0.008333333,1,0,0,1.9951,optionLeft,55,1140,1,23,0,23,0,1,,,,,,,,,,,,,,,,,,,,,,,,,,,,,,,,,,,,,,,
,,,,,,,,2023-08-16_08h35.19.173,HF_wild_card,2022.2.4,Win32,60.02040694,63de5a3da0d14b3d32a134f8,64d2fd46c836a06233681665,64dc7c1fd479d511601f21a6,,,,,,,decisionTrl,resources/DP.BMP,resources/DB.BMP,Door4,0.301851852,-0.015740741,1,0,0,2.0629,optionRight,80,1220,1,24,0,24,0,1,,,,,,,,,,,,,,,,,,,,,,,,,,,,,,,,,,,,,,,
,,,,,,,,2023-08-16_08h35.19.173,HF_wild_card,2022.2.4,Win32,60.02040694,63de5a3da0d14b3d32a134f8,64d2fd46c836a06233681665,64dc7c1fd479d511601f21a6,,,,,,,decisionTrl,resources/DP.BMP,resources/DR.BMP,WildCard_NonEx,-0.372222222,0.001851852,1,0,0,4.4235,optionLeft,45,1265,1,25,0,25,0,1,,,,,,,,,,,,,,,,,,,,,,,,,,,,,,,,,,,,,,,
,,,,,,,,2023-08-16_08h35.19.173,HF_wild_card,2022.2.4,Win32,60.02040694,63de5a3da0d14b3d32a134f8,64d2fd46c836a06233681665,64dc7c1fd479d511601f21a6,,,,,,,sngl,resources/DB.BMP,resources/Empty.png,Door4,-0.343518519,-0.024074074,1,0,0,1.9567,optionLeft,80,1345,1,26,0,26,0,1,,,,,,,,,,,,,,,,,,,,,,,,,,,,,,,,,,,,,,,
,,,,,,,,2023-08-16_08h35.19.173,HF_wild_card,2022.2.4,Win32,60.02040694,63de5a3da0d14b3d32a134f8,64d2fd46c836a06233681665,64dc7c1fd479d511601f21a6,,,,,,,decisionTrl,resources/DR.BMP,resources/DB.BMP,Door4,0.287037037,-0.006481481,1,0,0,2.1344,optionRight,80,1425,1,27,0,27,0,1,,,,,,,,,,,,,,,,,,,,,,,,,,,,,,,,,,,,,,,
,,,,,,,,2023-08-16_08h35.19.173,HF_wild_card,2022.2.4,Win32,60.02040694,63de5a3da0d14b3d32a134f8,64d2fd46c836a06233681665,64dc7c1fd479d511601f21a6,,,,,,,sngl,resources/Empty.png,resources/DBN.BMP,Door1,0.299074074,-0.003703704,1,0,0,2.3403,optionRight,30,1455,1,28,0,28,0,1,,,,,,,,,,,,,,,,,,,,,,,,,,,,,,,,,,,,,,,
,,,,,,,,2023-08-16_08h35.19.173,HF_wild_card,2022.2.4,Win32,60.02040694,63de5a3da0d14b3d32a134f8,64d2fd46c836a06233681665,64dc7c1fd479d511601f21a6,,,,,,,ctch,resources/DB.BMP,resources/DBN.BMP,Door4,-0.362037037,-0.017592593,1,0,0,1.2964,optionLeft,80,1535,1,29,0,29,0,1,,,,,,,,,,,,,,,,,,,,,,,,,,,,,,,,,,,,,,,
,,,,,,,,2023-08-16_08h35.19.173,HF_wild_card,2022.2.4,Win32,60.02040694,63de5a3da0d14b3d32a134f8,64d2fd46c836a06233681665,64dc7c1fd479d511601f21a6,,,,,,,decisionTrl,resources/DR.BMP,resources/DP.BMP,Door3,-0.301851852,-0.006481481,1,0,0,3.9931,optionLeft,70,1605,1,30,0,30,0,1,,,,,,,,,,,,,,,,,,,,,,,,,,,,,,,,,,,,,,,
,,,,,,,,2023-08-16_08h35.19.173,HF_wild_card,2022.2.4,Win32,60.02040694,63de5a3da0d14b3d32a134f8,64d2fd46c836a06233681665,64dc7c1fd479d511601f21a6,,,,,,,decisionTrl,resources/DB.BMP,resources/DR.BMP,Door4,-0.297222222,-0.031481481,1,0,0,1.8611,optionLeft,80,1685,1,31,0,31,0,1,,,,,,,,,,,,,,,,,,,,,,,,,,,,,,,,,,,,,,,
,,,,,,,,2023-08-16_08h35.19.173,HF_wild_card,2022.2.4,Win32,60.02040694,63de5a3da0d14b3d32a134f8,64d2fd46c836a06233681665,64dc7c1fd479d511601f21a6,,,,,,,decisionTrl,resources/DR.BMP,resources/DB.BMP,Door4,0.398148148,-0.031481481,1,0,0,1.9782,optionRight,80,1765,1,32,0,32,0,1,,,,,,,,,,,,,,,,,,,,,,,,,,,,,,,,,,,,,,,
,,,,,,,,2023-08-16_08h35.19.173,HF_wild_card,2022.2.4,Win32,60.02040694,63de5a3da0d14b3d32a134f8,64d2fd46c836a06233681665,64dc7c1fd479d511601f21a6,,,,,,,decisionTrl,resources/DY.BMP,resources/DBN.BMP,Door2,-0.356481481,-0.002777778,1,0,0,3.9617,optionLeft,40,1805,1,33,0,33,0,1,,,,,,,,,,,,,,,,,,,,,,,,,,,,,,,,,,,,,,,
,,,,,,,,2023-08-16_08h35.19.173,HF_wild_card,2022.2.4,Win32,60.02040694,63de5a3da0d14b3d32a134f8,64d2fd46c836a06233681665,64dc7c1fd479d511601f21a6,,,,,,,ctch,resources/DY.BMP,resources/DR.BMP,Door3,0.318518519,-0.001851852,1,0,0,1.5447,optionRight,70,1875,1,34,0,34,0,1,,,,,,,,,,,,,,,,,,,,,,,,,,,,,,,,,,,,,,,
,,,,,,,,2023-08-16_08h35.19.173,HF_wild_card,2022.2.4,Win32,60.02040694,63de5a3da0d14b3d32a134f8,64d2fd46c836a06233681665,64dc7c1fd479d511601f21a6,,,,,,,ctch,resources/DR.BMP,resources/DY.BMP,Door3,-0.360185185,0.00462963,1,0,0,1.8447,optionLeft,70,1945,1,35,0,35,0,1,,,,,,,,,,,,,,,,,,,,,,,,,,,,,,,,,,,,,,,
,,,,,,,,2023-08-16_08h35.19.173,HF_wild_card,2022.2.4,Win32,60.02040694,63de5a3da0d14b3d32a134f8,64d2fd46c836a06233681665,64dc7c1fd479d511601f21a6,,,,,,,sngl,resources/Empty.png,resources/DB.BMP,Door4,0.271296296,-0.003703704,1,0,0,1.5114,optionRight,60,2005,1,36,0,36,0,1,,,,,,,,,,,,,,,,,,,,,,,,,,,,,,,,,,,,,,,
,,,,,,,,2023-08-16_08h35.19.173,HF_wild_card,2022.2.4,Win32,60.02040694,63de5a3da0d14b3d32a134f8,64d2fd46c836a06233681665,64dc7c1fd479d511601f21a6,,,,,,,sngl,resources/Empty.png,resources/DR.BMP,Door3,0.315740741,-0.025,1,0,0,1.3779,optionRight,70,2075,1,37,0,37,0,1,,,,,,,,,,,,,,,,,,,,,,,,,,,,,,,,,,,,,,,
,,,,,,,,2023-08-16_08h35.19.173,HF_wild_card,2022.2.4,Win32,60.02040694,63de5a3da0d14b3d32a134f8,64d2fd46c836a06233681665,64dc7c1fd479d511601f21a6,,,,,,,decisionTrl,resources/DP.BMP,resources/DY.BMP,WildCard_NonEx,-0.340740741,0.02037037,1,0,0,2.4592,optionLeft,55,2130,1,38,0,38,0,1,,,,,,,,,,,,,,,,,,,,,,,,,,,,,,,,,,,,,,,
,,,,,,,,2023-08-16_08h35.19.173,HF_wild_card,2022.2.4,Win32,60.02040694,63de5a3da0d14b3d32a134f8,64d2fd46c836a06233681665,64dc7c1fd479d511601f21a6,,,,,,,ctch,resources/DY.BMP,resources/DR.BMP,Door3,0.294444444,-0.006481481,1,0,0,1.6777,optionRight,70,2200,1,39,0,39,0,1,,,,,,,,,,,,,,,,,,,,,,,,,,,,,,,,,,,,,,,
,,,,,,,,2023-08-16_08h35.19.173,HF_wild_card,2022.2.4,Win32,60.02040694,63de5a3da0d14b3d32a134f8,64d2fd46c836a06233681665,64dc7c1fd479d511601f21a6,,,,,,,decisionTrl,resources/DY.BMP,resources/DBN.BMP,Door2,-0.284259259,0.030555556,1,0,0,4.145,optionLeft,20,2220,1,40,0,40,0,1,,,,,,,,,,,,,,,,,,,,,,,,,,,,,,,,,,,,,,,
,,,,,,,,2023-08-16_08h35.19.173,HF_wild_card,2022.2.4,Win32,60.02040694,63de5a3da0d14b3d32a134f8,64d2fd46c836a06233681665,64dc7c1fd479d511601f21a6,,,,,,,decisionTrl,resources/DY.BMP,resources/DP.BMP,WildCard_NonEx,0.290740741,-0.034259259,1,0,0,1.5782,optionRight,55,2275,1,41,0,41,0,1,,,,,,,,,,,,,,,,,,,,,,,,,,,,,,,,,,,,,,,
,,,,,,,,2023-08-16_08h35.19.173,HF_wild_card,2022.2.4,Win32,60.02040694,63de5a3da0d14b3d32a134f8,64d2fd46c836a06233681665,64dc7c1fd479d511601f21a6,,,,,,,decisionTrl,resources/DB.BMP,resources/DP.BMP,Door4,-0.326851852,-0.00462963,1,0,0,0.9949,optionLeft,80,2355,1,42,0,42,0,1,,,,,,,,,,,,,,,,,,,,,,,,,,,,,,,,,,,,,,,
,,,,,,,,2023-08-16_08h35.19.173,HF_wild_card,2022.2.4,Win32,60.02040694,63de5a3da0d14b3d32a134f8,64d2fd46c836a06233681665,64dc7c1fd479d511601f21a6,,,,,,,sngl,resources/DY.BMP,resources/Empty.png,Door2,-0.318518519,-0.019444444,1,0,0,1.4776,optionLeft,40,2395,1,43,0,43,0,1,,,,,,,,,,,,,,,,,,,,,,,,,,,,,,,,,,,,,,,
,,,,,,,,2023-08-16_08h35.19.173,HF_wild_card,2022.2.4,Win32,60.02040694,63de5a3da0d14b3d32a134f8,64d2fd46c836a06233681665,64dc7c1fd479d511601f21a6,,,,,,,,,,,,,,,,,,,,,,,,,,0,0,0,0,1,,,,,,,,,,,,,,,,,,,,,,,,,,,,,,,,,,
,,,,,,,,2023-08-16_08h35.19.173,HF_wild_card,2022.2.4,Win32,60.02040694,63de5a3da0d14b3d32a134f8,64d2fd46c836a06233681665,64dc7c1fd479d511601f21a6,,,,,,,ctch,resources/DY.BMP,resources/DR.BMP,Door3,0.327777778,-0.107407407,1,0,0,2.4832,optionRight,70,2465,2,0,0,0,0,1,,,,,,,,,,,,,,,,,,,,,,,,,,,,,,,,,,,,,,,
,,,,,,,,2023-08-16_08h35.19.173,HF_wild_card,2022.2.4,Win32,60.02040694,63de5a3da0d14b3d32a134f8,64d2fd46c836a06233681665,64dc7c1fd479d511601f21a6,,,,,,,decisionTrl,resources/DBN.BMP,resources/DY.BMP,Door1,-0.34537037,-0.04537037,1,0,0,2.8365,optionLeft,30,2495,2,1,0,1,0,1,,,,,,,,,,,,,,,,,,,,,,,,,,,,,,,,,,,,,,,
,,,,,,,,2023-08-16_08h35.19.173,HF_wild_card,2022.2.4,Win32,60.02040694,63de5a3da0d14b3d32a134f8,64d2fd46c836a06233681665,64dc7c1fd479d511601f21a6,,,,,,,sngl,resources/DP.BMP,resources/Empty.png,WildCard_NonEx,-0.349074074,-0.048148148,1,0,0,1.0445,optionLeft,55,2550,2,2,0,2,0,1,,,,,,,,,,,,,,,,,,,,,,,,,,,,,,,,,,,,,,,
,,,,,,,,2023-08-16_08h35.19.173,HF_wild_card,2022.2.4,Win32,60.02040694,63de5a3da0d14b3d32a134f8,64d2fd46c836a06233681665,64dc7c1fd479d511601f21a6,,,,,,,decisionTrl,resources/DR.BMP,resources/DB.BMP,Door4,0.325,-0.02962963,1,0,0,1.3284,optionRight,60,2610,2,3,0,3,0,1,,,,,,,,,,,,,,,,,,,,,,,,,,,,,,,,,,,,,,,
,,,,,,,,2023-08-16_08h35.19.173,HF_wild_card,2022.2.4,Win32,60.02040694,63de5a3da0d14b3d32a134f8,64d2fd46c836a06233681665,64dc7c1fd479d511601f21a6,,,,,,,decisionTrl,resources/DB.BMP,resources/DR.BMP,Door4,-0.271296296,-0.012962963,1,0,0,2.8687,optionLeft,60,2670,2,4,0,4,0,1,,,,,,,,,,,,,,,,,,,,,,,,,,,,,,,,,,,,,,,
,,,,,,,,2023-08-16_08h35.19.173,HF_wild_card,2022.2.4,Win32,60.02040694,63de5a3da0d14b3d32a134f8,64d2fd46c836a06233681665,64dc7c1fd479d511601f21a6,,,,,,,ctch,resources/DY.BMP,resources/DR.BMP,Door3,0.335185185,-0.033333333,1,0,0,1.3357,optionRight,70,2740,2,5,0,5,0,1,,,,,,,,,,,,,,,,,,,,,,,,,,,,,,,,,,,,,,,
,,,,,,,,2023-08-16_08h35.19.173,HF_wild_card,2022.2.4,Win32,60.02040694,63de5a3da0d14b3d32a134f8,64d2fd46c836a06233681665,64dc7c1fd479d511601f21a6,,,,,,,decisionTrl,resources/DP.BMP,resources/DBN.BMP,Door1,0.366666667,-0.022222222,1,0,0,3.061,optionRight,30,2770,2,6,0,6,0,1,,,,,,,,,,,,,,,,,,,,,,,,,,,,,,,,,,,,,,,
,,,,,,,,2023-08-16_08h35.19.173,HF_wild_card,2022.2.4,Win32,60.02040694,63de5a3da0d14b3d32a134f8,64d2fd46c836a06233681665,64dc7c1fd479d511601f21a6,,,,,,,decisionTrl,resources/DP.BMP,resources/DB.BMP,Door4,0.316666667,-0.010185185,1,0,0,2.061,optionRight,80,2850,2,7,0,7,0,1,,,,,,,,,,,,,,,,,,,,,,,,,,,,,,,,,,,,,,,
,,,,,,,,2023-08-16_08h35.19.173,HF_wild_card,2022.2.4,Win32,60.02040694,63de5a3da0d14b3d32a134f8,64d2fd46c836a06233681665,64dc7c1fd479d511601f21a6,,,,,,,sngl,resources/DY.BMP,resources/Empty.png,Door2,-0.326851852,0.000925926,1,0,0,2.5568,optionLeft,20,2870,2,8,0,8,0,1,,,,,,,,,,,,,,,,,,,,,,,,,,,,,,,,,,,,,,,
,,,,,,,,2023-08-16_08h35.19.173,HF_wild_card,2022.2.4,Win32,60.02040694,63de5a3da0d14b3d32a134f8,64d2fd46c836a06233681665,64dc7c1fd479d511601f21a6,,,,,,,decisionTrl,resources/DP.BMP,resources/DY.BMP,WildCard_NonEx,-0.29537037,0.009259259,1,0,0,1.1128,optionLeft,55,2925,2,9,0,9,0,1,,,,,,,,,,,,,,,,,,,,,,,,,,,,,,,,,,,,,,,
,,,,,,,,2023-08-16_08h35.19.173,HF_wild_card,2022.2.4,Win32,60.02040694,63de5a3da0d14b3d32a134f8,64d2fd46c836a06233681665,64dc7c1fd479d511601f21a6,,,,,,,sngl,resources/Empty.png,resources/DR.BMP,Door3,0.3,-0.023148148,1,0,0,0.7899,optionRight,70,2995,2,10,0,10,0,1,,,,,,,,,,,,,,,,,,,,,,,,,,,,,,,,,,,,,,,
,,,,,,,,2023-08-16_08h35.19.173,HF_wild_card,2022.2.4,Win32,60.02040694,63de5a3da0d14b3d32a134f8,64d2fd46c836a06233681665,64dc7c1fd479d511601f21a6,,,,,,,decisionTrl,resources/DR.BMP,resources/DB.BMP,Door4,0.291666667,0,1,0,0,1.1734,optionRight,80,3075,2,11,0,11,0,1,,,,,,,,,,,,,,,,,,,,,,,,,,,,,,,,,,,,,,,
,,,,,,,,2023-08-16_08h35.19.173,HF_wild_card,2022.2.4,Win32,60.02040694,63de5a3da0d14b3d32a134f8,64d2fd46c836a06233681665,64dc7c1fd479d511601f21a6,,,,,,,sngl,resources/Empty.png,resources/DBN.BMP,Door1,0.294444444,-0.001851852,1,0,0,1.2952,optionRight,30,3105,2,12,0,12,0,1,,,,,,,,,,,,,,,,,,,,,,,,,,,,,,,,,,,,,,,
,,,,,,,,2023-08-16_08h35.19.173,HF_wild_card,2022.2.4,Win32,60.02040694,63de5a3da0d14b3d32a134f8,64d2fd46c836a06233681665,64dc7c1fd479d511601f21a6,,,,,,,decisionTrl,resources/DR.BMP,resources/DB.BMP,Door4,0.25462963,0.00462963,1,0,0,1.5133,optionRight,60,3165,2,13,0,13,0,1,,,,,,,,,,,,,,,,,,,,,,,,,,,,,,,,,,,,,,,
,,,,,,,,2023-08-16_08h35.19.173,HF_wild_card,2022.2.4,Win32,60.02040694,63de5a3da0d14b3d32a134f8,64d2fd46c836a06233681665,64dc7c1fd479d511601f21a6,,,,,,,decisionTrl,resources/DY.BMP,resources/DBN.BMP,Door2,-0.368518519,0.023148148,1,0,0,4.2336,optionLeft,40,3205,2,14,0,14,0,1,,,,,,,,,,,,,,,,,,,,,,,,,,,,,,,,,,,,,,,
,,,,,,,,2023-08-16_08h35.19.173,HF_wild_card,2022.2.4,Win32,60.02040694,63de5a3da0d14b3d32a134f8,64d2fd46c836a06233681665,64dc7c1fd479d511601f21a6,,,,,,,decisionTrl,resources/DB.BMP,resources/DR.BMP,Door3,0.261111111,-0.019444444,1,0,0,2.1953,optionRight,70,3275,2,15,0,15,0,1,,,,,,,,,,,,,,,,,,,,,,,,,,,,,,,,,,,,,,,
,,,,,,,,2023-08-16_08h35.19.173,HF_wild_card,2022.2.4,Win32,60.02040694,63de5a3da0d14b3d32a134f8,64d2fd46c836a06233681665,64dc7c1fd479d511601f21a6,,,,,,,sngl,resources/Empty.png,resources/DY.BMP,Door2,0.314814815,-0.021296296,1,0,0,1.9095,optionRight,40,3315,2,16,0,16,0,1,,,,,,,,,,,,,,,,,,,,,,,,,,,,,,,,,,,,,,,
,,,,,,,,2023-08-16_08h35.19.173,HF_wild_card,2022.2.4,Win32,60.02040694,63de5a3da0d14b3d32a134f8,64d2fd46c836a06233681665,64dc7c1fd479d511601f21a6,,,,,,,decisionTrl,resources/DBN.BMP,resources/DY.BMP,Door2,0.341666667,-0.010185185,1,0,0,3.0445,optionRight,20,3335,2,17,0,17,0,1,,,,,,,,,,,,,,,,,,,,,,,,,,,,,,,,,,,,,,,
,,,,,,,,2023-08-16_08h35.19.173,HF_wild_card,2022.2.4,Win32,60.02040694,63de5a3da0d14b3d32a134f8,64d2fd46c836a06233681665,64dc7c1fd479d511601f21a6,,,,,,,decisionTrl,resources/DR.BMP,resources/DP.BMP,Door3,-0.305555556,-0.038888889,1,0,0,3.217,optionLeft,70,3405,2,18,0,18,0,1,,,,,,,,,,,,,,,,,,,,,,,,,,,,,,,,,,,,,,,
,,,,,,,,2023-08-16_08h35.19.173,HF_wild_card,2022.2.4,Win32,60.02040694,63de5a3da0d14b3d32a134f8,64d2fd46c836a06233681665,64dc7c1fd479d511601f21a6,,,,,,,decisionTrl,resources/DBN.BMP,resources/DY.BMP,Door1,-0.375925926,-0.041666667,1,0,0,2.5517,optionLeft,30,3435,2,19,0,19,0,1,,,,,,,,,,,,,,,,,,,,,,,,,,,,,,,,,,,,,,,
,,,,,,,,2023-08-16_08h35.19.173,HF_wild_card,2022.2.4,Win32,60.02040694,63de5a3da0d14b3d32a134f8,64d2fd46c836a06233681665,64dc7c1fd479d511601f21a6,,,,,,,decisionTrl,resources/DBN.BMP,resources/DY.BMP,Door1,-0.335185185,-0.025925926,1,0,0,1.1486,optionLeft,30,3465,2,20,0,20,0,1,,,,,,,,,,,,,,,,,,,,,,,,,,,,,,,,,,,,,,,
,,,,,,,,2023-08-16_08h35.19.173,HF_wild_card,2022.2.4,Win32,60.02040694,63de5a3da0d14b3d32a134f8,64d2fd46c836a06233681665,64dc7c1fd479d511601f21a6,,,,,,,sngl,resources/DB.BMP,resources/Empty.png,Door4,-0.362962963,-0.035185185,1,0,0,1.8604,optionLeft,60,3525,2,21,0,21,0,1,,,,,,,,,,,,,,,,,,,,,,,,,,,,,,,,,,,,,,,
,,,,,,,,2023-08-16_08h35.19.173,HF_wild_card,2022.2.4,Win32,60.02040694,63de5a3da0d14b3d32a134f8,64d2fd46c836a06233681665,64dc7c1fd479d511601f21a6,,,,,,,decisionTrl,resources/DB.BMP,resources/DR.BMP,Door3,0.312037037,-0.012037037,1,0,0,0.9119,optionRight,70,3595,2,22,0,22,0,1,,,,,,,,,,,,,,,,,,,,,,,,,,,,,,,,,,,,,,,
,,,,,,,,2023-08-16_08h35.19.173,HF_wild_card,2022.2.4,Win32,60.02040694,63de5a3da0d14b3d32a134f8,64d2fd46c836a06233681665,64dc7c1fd479d511601f21a6,,,,,,,decisionTrl,resources/DR.BMP,resources/DB.BMP,Door4,0.356481481,-0.028703704,1,0,0,1.5392,optionRight,60,3655,2,23,0,23,0,1,,,,,,,,,,,,,,,,,,,,,,,,,,,,,,,,,,,,,,,
,,,,,,,,2023-08-16_08h35.19.173,HF_wild_card,2022.2.4,Win32,60.02040694,63de5a3da0d14b3d32a134f8,64d2fd46c836a06233681665,64dc7c1fd479d511601f21a6,,,,,,,sngl,resources/Empty.png,resources/DP.BMP,WildCard_NonEx,0.303703704,-0.033333333,1,0,0,1.0959,optionRight,45,3700,2,24,0,24,0,1,,,,,,,,,,,,,,,,,,,,,,,,,,,,,,,,,,,,,,,
,,,,,,,,2023-08-16_08h35.19.173,HF_wild_card,2022.2.4,Win32,60.02040694,63de5a3da0d14b3d32a134f8,64d2fd46c836a06233681665,64dc7c1fd479d511601f21a6,,,,,,,decisionTrl,resources/DBN.BMP,resources/DP.BMP,WildCard_NonEx,0.286111111,-0.019444444,1,0,0,2.2614,optionRight,55,3755,2,25,0,25,0,1,,,,,,,,,,,,,,,,,,,,,,,,,,,,,,,,,,,,,,,
,,,,,,,,2023-08-16_08h35.19.173,HF_wild_card,2022.2.4,Win32,60.02040694,63de5a3da0d14b3d32a134f8,64d2fd46c836a06233681665,64dc7c1fd479d511601f21a6,,,,,,,decisionTrl,resources/DY.BMP,resources/DBN.BMP,Door2,-0.332407407,-0.015740741,1,0,0,4.2453,optionLeft,40,3795,2,26,0,26,0,1,,,,,,,,,,,,,,,,,,,,,,,,,,,,,,,,,,,,,,,
,,,,,,,,2023-08-16_08h35.19.173,HF_wild_card,2022.2.4,Win32,60.02040694,63de5a3da0d14b3d32a134f8,64d2fd46c836a06233681665,64dc7c1fd479d511601f21a6,,,,,,,sngl,resources/DR.BMP,resources/Empty.png,Door3,-0.321296296,-0.032407407,1,0,0,1.8448,optionLeft,70,3865,2,27,0,27,0,1,,,,,,,,,,,,,,,,,,,,,,,,,,,,,,,,,,,,,,,
,,,,,,,,2023-08-16_08h35.19.173,HF_wild_card,2022.2.4,Win32,60.02040694,63de5a3da0d14b3d32a134f8,64d2fd46c836a06233681665,64dc7c1fd479d511601f21a6,,,,,,,ctch,resources/DBN.BMP,resources/DB.BMP,Door4,0.327777778,-0.041666667,1,0,0,1.3456,optionRight,80,3945,2,28,0,28,0,1,,,,,,,,,,,,,,,,,,,,,,,,,,,,,,,,,,,,,,,
,,,,,,,,2023-08-16_08h35.19.173,HF_wild_card,2022.2.4,Win32,60.02040694,63de5a3da0d14b3d32a134f8,64d2fd46c836a06233681665,64dc7c1fd479d511601f21a6,,,,,,,sngl,resources/Empty.png,resources/DB.BMP,Door4,0.331481481,-0.034259259,1,0,0,1.2623,optionRight,80,4025,2,29,0,29,0,1,,,,,,,,,,,,,,,,,,,,,,,,,,,,,,,,,,,,,,,
,,,,,,,,2023-08-16_08h35.19.173,HF_wild_card,2022.2.4,Win32,60.02040694,63de5a3da0d14b3d32a134f8,64d2fd46c836a06233681665,64dc7c1fd479d511601f21a6,,,,,,,decisionTrl,resources/DB.BMP,resources/DR.BMP,Door4,-0.27037037,-0.00462963,1,0,0,2.5784,optionLeft,60,4085,2,30,0,30,0,1,,,,,,,,,,,,,,,,,,,,,,,,,,,,,,,,,,,,,,,
,,,,,,,,2023-08-16_08h35.19.173,HF_wild_card,2022.2.4,Win32,60.02040694,63de5a3da0d14b3d32a134f8,64d2fd46c836a06233681665,64dc7c1fd479d511601f21a6,,,,,,,decisionTrl,resources/DY.BMP,resources/DP.BMP,WildCard_NonEx,0.298148148,-0.036111111,1,0,0,1.8775,optionRight,55,4140,2,31,0,31,0,1,,,,,,,,,,,,,,,,,,,,,,,,,,,,,,,,,,,,,,,
,,,,,,,,2023-08-16_08h35.19.173,HF_wild_card,2022.2.4,Win32,60.02040694,63de5a3da0d14b3d32a134f8,64d2fd46c836a06233681665,64dc7c1fd479d511601f21a6,,,,,,,ctch,resources/DB.BMP,resources/DBN.BMP,Door4,-0.347222222,-0.026851852,1,0,0,1.1616,optionLeft,60,4200,2,32,0,32,0,1,,,,,,,,,,,,,,,,,,,,,,,,,,,,,,,,,,,,,,,
,,,,,,,,2023-08-16_08h35.19.173,HF_wild_card,2022.2.4,Win32,60.02040694,63de5a3da0d14b3d32a134f8,64d2fd46c836a06233681665,64dc7c1fd479d511601f21a6,,,,,,,sngl,resources/DBN.BMP,resources/Empty.png,Door1,-0.239814815,-0.00462963,1,0,0,1.1131,optionLeft,30,4230,2,33,0,33,0,1,,,,,,,,,,,,,,,,,,,,,,,,,,,,,,,,,,,,,,,
,,,,,,,,2023-08-16_08h35.19.173,HF_wild_card,2022.2.4,Win32,60.02040694,63de5a3da0d14b3d32a134f8,64d2fd46c836a06233681665,64dc7c1fd479d511601f21a6,,,,,,,ctch,resources/DBN.BMP,resources/DB.BMP,Door4,0.367592593,-0.02962963,1,0,0,0.9096,optionRight,80,4310,2,34,0,34,0,1,,,,,,,,,,,,,,,,,,,,,,,,,,,,,,,,,,,,,,,
,,,,,,,,2023-08-16_08h35.19.173,HF_wild_card,2022.2.4,Win32,60.02040694,63de5a3da0d14b3d32a134f8,64d2fd46c836a06233681665,64dc7c1fd479d511601f21a6,,,,,,,ctch,resources/DR.BMP,resources/DY.BMP,Door3,-0.321296296,-0.015740741,1,0,0,1.7617,optionLeft,70,4380,2,35,0,35,0,1,,,,,,,,,,,,,,,,,,,,,,,,,,,,,,,,,,,,,,,
,,,,,,,,2023-08-16_08h35.19.173,HF_wild_card,2022.2.4,Win32,60.02040694,63de5a3da0d14b3d32a134f8,64d2fd46c836a06233681665,64dc7c1fd479d511601f21a6,,,,,,,decisionTrl,resources/DP.BMP,resources/DR.BMP,Door3,0.328703704,-0.023148148,1,0,0,2.0942,optionRight,70,4450,2,36,0,36,0,1,,,,,,,,,,,,,,,,,,,,,,,,,,,,,,,,,,,,,,,
,,,,,,,,2023-08-16_08h35.19.173,HF_wild_card,2022.2.4,Win32,60.02040694,63de5a3da0d14b3d32a134f8,64d2fd46c836a06233681665,64dc7c1fd479d511601f21a6,,,,,,,sngl,resources/Empty.png,resources/DP.BMP,WildCard_NonEx,0.378703704,-0.044444444,1,0,0,1.6282,optionRight,55,4505,2,37,0,37,0,1,,,,,,,,,,,,,,,,,,,,,,,,,,,,,,,,,,,,,,,
,,,,,,,,2023-08-16_08h35.19.173,HF_wild_card,2022.2.4,Win32,60.02040694,63de5a3da0d14b3d32a134f8,64d2fd46c836a06233681665,64dc7c1fd479d511601f21a6,,,,,,,decisionTrl,resources/DY.BMP,resources/DBN.BMP,Door2,-0.312037037,-0.000925926,1,0,0,2.2783,optionLeft,40,4545,2,38,0,38,0,1,,,,,,,,,,,,,,,,,,,,,,,,,,,,,,,,,,,,,,,
,,,,,,,,2023-08-16_08h35.19.173,HF_wild_card,2022.2.4,Win32,60.02040694,63de5a3da0d14b3d32a134f8,64d2fd46c836a06233681665,64dc7c1fd479d511601f21a6,,,,,,,ctch,resources/DB.BMP,resources/DBN.BMP,Door4,-0.274074074,-0.008333333,1,0,0,1.7277,optionLeft,60,4605,2,39,0,39,0,1,,,,,,,,,,,,,,,,,,,,,,,,,,,,,,,,,,,,,,,
,,,,,,,,2023-08-16_08h35.19.173,HF_wild_card,2022.2.4,Win32,60.02040694,63de5a3da0d14b3d32a134f8,64d2fd46c836a06233681665,64dc7c1fd479d511601f21a6,,,,,,,ctch,resources/DR.BMP,resources/DY.BMP,Door3,-0.296296296,-0.012037037,1,0,0,1.7114,optionLeft,70,4675,2,40,0,40,0,1,,,,,,,,,,,,,,,,,,,,,,,,,,,,,,,,,,,,,,,
,,,,,,,,2023-08-16_08h35.19.173,HF_wild_card,2022.2.4,Win32,60.02040694,63de5a3da0d14b3d32a134f8,64d2fd46c836a06233681665,64dc7c1fd479d511601f21a6,,,,,,,decisionTrl,resources/DB.BMP,resources/DP.BMP,Door4,-0.251851852,-0.009259259,1,0,0,2.662,optionLeft,60,4735,2,41,0,41,0,1,,,,,,,,,,,,,,,,,,,,,,,,,,,,,,,,,,,,,,,
,,,,,,,,2023-08-16_08h35.19.173,HF_wild_card,2022.2.4,Win32,60.02040694,63de5a3da0d14b3d32a134f8,64d2fd46c836a06233681665,64dc7c1fd479d511601f21a6,,,,,,,decisionTrl,resources/DY.BMP,resources/DBN.BMP,Door2,-0.262037037,-0.009259259,1,0,0,2.5127,optionLeft,40,4775,2,42,0,42,0,1,,,,,,,,,,,,,,,,,,,,,,,,,,,,,,,,,,,,,,,
,,,,,,,,2023-08-16_08h35.19.173,HF_wild_card,2022.2.4,Win32,60.02040694,63de5a3da0d14b3d32a134f8,64d2fd46c836a06233681665,64dc7c1fd479d511601f21a6,,,,,,,sngl,resources/DP.BMP,resources/Empty.png,WildCard_NonEx,-0.289814815,-0.016666667,1,0,0,1.3456,optionLeft,45,4820,2,43,0,43,0,1,,,,,,,,,,,,,,,,,,,,,,,,,,,,,,,,,,,,,,,
,,,,,,,,2023-08-16_08h35.19.173,HF_wild_card,2022.2.4,Win32,60.02040694,63de5a3da0d14b3d32a134f8,64d2fd46c836a06233681665,64dc7c1fd479d511601f21a6,,,,,,,,,,,,,,,,,,,,,,,,,,1,0,1,0,1,,,,,,,,,,,,,,,,,,,,,,,,,,,,,,,,,,
,,,,,,,,2023-08-16_08h35.19.173,HF_wild_card,2022.2.4,Win32,60.02040694,63de5a3da0d14b3d32a134f8,64d2fd46c836a06233681665,64dc7c1fd479d511601f21a6,,,,,,,decisionTrl,resources/DR.BMP,resources/DB.BMP,Door3,-0.388888889,-0.058333333,1,0,0,3.965,optionLeft,70,4890,3,0,0,0,0,1,,,,,,,,,,,,,,,,,,,,,,,,,,,,,,,,,,,,,,,
,,,,,,,,2023-08-16_08h35.19.173,HF_wild_card,2022.2.4,Win32,60.02040694,63de5a3da0d14b3d32a134f8,64d2fd46c836a06233681665,64dc7c1fd479d511601f21a6,,,,,,,decisionTrl,resources/DBN.BMP,resources/DY.BMP,Door2,0.3,-0.011111111,1,0,0,1.3979,optionRight,40,4930,3,1,0,1,0,1,,,,,,,,,,,,,,,,,,,,,,,,,,,,,,,,,,,,,,,
,,,,,,,,2023-08-16_08h35.19.173,HF_wild_card,2022.2.4,Win32,60.02040694,63de5a3da0d14b3d32a134f8,64d2fd46c836a06233681665,64dc7c1fd479d511601f21a6,,,,,,,ctch,resources/DY.BMP,resources/DR.BMP,Door3,0.293518519,-0.000925926,1,0,0,1.5795,optionRight,70,5000,3,2,0,2,0,1,,,,,,,,,,,,,,,,,,,,,,,,,,,,,,,,,,,,,,,
,,,,,,,,2023-08-16_08h35.19.173,HF_wild_card,2022.2.4,Win32,60.02040694,63de5a3da0d14b3d32a134f8,64d2fd46c836a06233681665,64dc7c1fd479d511601f21a6,,,,,,,decisionTrl,resources/DBN.BMP,resources/DP.BMP,Door1,-0.519444444,0.041666667,1,0,0,5.2779,optionLeft,30,5030,3,3,0,3,0,1,,,,,,,,,,,,,,,,,,,,,,,,,,,,,,,,,,,,,,,
,,,,,,,,2023-08-16_08h35.19.173,HF_wild_card,2022.2.4,Win32,60.02040694,63de5a3da0d14b3d32a134f8,64d2fd46c836a06233681665,64dc7c1fd479d511601f21a6,,,,,,,ctch,resources/DR.BMP,resources/DY.BMP,Door3,-0.289814815,-0.013888889,1,0,0,1.5614,optionLeft,70,5100,3,4,0,4,0,1,,,,,,,,,,,,,,,,,,,,,,,,,,,,,,,,,,,,,,,
,,,,,,,,2023-08-16_08h35.19.173,HF_wild_card,2022.2.4,Win32,60.02040694,63de5a3da0d14b3d32a134f8,64d2fd46c836a06233681665,64dc7c1fd479d511601f21a6,,,,,,,sngl,resources/Empty.png,resources/DP.BMP,WildCard_NonEx,0.283333333,-0.02037037,1,0,0,1.3782,optionRight,45,5145,3,5,0,5,0,1,,,,,,,,,,,,,,,,,,,,,,,,,,,,,,,,,,,,,,,
,,,,,,,,2023-08-16_08h35.19.173,HF_wild_card,2022.2.4,Win32,60.02040694,63de5a3da0d14b3d32a134f8,64d2fd46c836a06233681665,64dc7c1fd479d511601f21a6,,,,,,,decisionTrl,resources/DY.BMP,resources/DBN.BMP,Door2,-0.293518519,0.025925926,1,0,0,2.127,optionLeft,20,5165,3,6,0,6,0,1,,,,,,,,,,,,,,,,,,,,,,,,,,,,,,,,,,,,,,,
,,,,,,,,2023-08-16_08h35.19.173,HF_wild_card,2022.2.4,Win32,60.02040694,63de5a3da0d14b3d32a134f8,64d2fd46c836a06233681665,64dc7c1fd479d511601f21a6,,,,,,,sngl,resources/DB.BMP,resources/Empty.png,Door4,-0.253703704,0.012037037,1,0,0,2.912,optionLeft,80,5245,3,7,0,7,0,1,,,,,,,,,,,,,,,,,,,,,,,,,,,,,,,,,,,,,,,
,,,,,,,,2023-08-16_08h35.19.173,HF_wild_card,2022.2.4,Win32,60.02040694,63de5a3da0d14b3d32a134f8,64d2fd46c836a06233681665,64dc7c1fd479d511601f21a6,,,,,,,ctch,resources/DB.BMP,resources/DBN.BMP,Door4,-0.262962963,0.001851852,1,0,0,1.2949,optionLeft,80,5325,3,8,0,8,0,1,,,,,,,,,,,,,,,,,,,,,,,,,,,,,,,,,,,,,,,
,,,,,,,,2023-08-16_08h35.19.173,HF_wild_card,2022.2.4,Win32,60.02040694,63de5a3da0d14b3d32a134f8,64d2fd46c836a06233681665,64dc7c1fd479d511601f21a6,,,,,,,decisionTrl,resources/DP.BMP,resources/DB.BMP,Door4,0.267592593,-0.00462963,1,0,0,1.7619,optionRight,60,5385,3,9,0,9,0,1,,,,,,,,,,,,,,,,,,,,,,,,,,,,,,,,,,,,,,,
,,,,,,,,2023-08-16_08h35.19.173,HF_wild_card,2022.2.4,Win32,60.02040694,63de5a3da0d14b3d32a134f8,64d2fd46c836a06233681665,64dc7c1fd479d511601f21a6,,,,,,,ctch,resources/DB.BMP,resources/DBN.BMP,Door4,-0.311111111,-0.028703704,1,0,0,2.5283,optionLeft,80,5465,3,10,0,10,0,1,,,,,,,,,,,,,,,,,,,,,,,,,,,,,,,,,,,,,,,
,,,,,,,,2023-08-16_08h35.19.173,HF_wild_card,2022.2.4,Win32,60.02040694,63de5a3da0d14b3d32a134f8,64d2fd46c836a06233681665,64dc7c1fd479d511601f21a6,,,,,,,sngl,resources/DR.BMP,resources/Empty.png,Door3,-0.298148148,-0.017592593,1,0,0,0.9615,optionLeft,70,5535,3,11,0,11,0,1,,,,,,,,,,,,,,,,,,,,,,,,,,,,,,,,,,,,,,,
,,,,,,,,2023-08-16_08h35.19.173,HF_wild_card,2022.2.4,Win32,60.02040694,63de5a3da0d14b3d32a134f8,64d2fd46c836a06233681665,64dc7c1fd479d511601f21a6,,,,,,,decisionTrl,resources/DY.BMP,resources/DBN.BMP,Door2,-0.256481481,-0.010185185,1,0,0,2.0117,optionLeft,40,5575,3,12,0,12,0,1,,,,,,,,,,,,,,,,,,,,,,,,,,,,,,,,,,,,,,,
,,,,,,,,2023-08-16_08h35.19.173,HF_wild_card,2022.2.4,Win32,60.02040694,63de5a3da0d14b3d32a134f8,64d2fd46c836a06233681665,64dc7c1fd479d511601f21a6,,,,,,,decisionTrl,resources/DP.BMP,resources/DY.BMP,WildCard_NonEx,-0.251851852,-0.007407407,1,0,0,2.5119,optionLeft,45,5620,3,13,0,13,0,1,,,,,,,,,,,,,,,,,,,,,,,,,,,,,,,,,,,,,,,
,,,,,,,,2023-08-16_08h35.19.173,HF_wild_card,2022.2.4,Win32,60.02040694,63de5a3da0d14b3d32a134f8,64d2fd46c836a06233681665,64dc7c1fd479d511601f21a6,,,,,,,sngl,resources/Empty.png,resources/DP.BMP,WildCard_NonEx,0.302777778,-0.014814815,1,0,0,1.4948,optionRight,55,5675,3,14,0,14,0,1,,,,,,,,,,,,,,,,,,,,,,,,,,,,,,,,,,,,,,,
,,,,,,,,2023-08-16_08h35.19.173,HF_wild_card,2022.2.4,Win32,60.02040694,63de5a3da0d14b3d32a134f8,64d2fd46c836a06233681665,64dc7c1fd479d511601f21a6,,,,,,,sngl,resources/DBN.BMP,resources/Empty.png,Door1,-0.342592593,0.00462963,1,0,0,4.578,optionLeft,30,5705,3,15,0,15,0,1,,,,,,,,,,,,,,,,,,,,,,,,,,,,,,,,,,,,,,,
,,,,,,,,2023-08-16_08h35.19.173,HF_wild_card,2022.2.4,Win32,60.02040694,63de5a3da0d14b3d32a134f8,64d2fd46c836a06233681665,64dc7c1fd479d511601f21a6,,,,,,,decisionTrl,resources/DR.BMP,resources/DB.BMP,Door3,-0.359259259,-0.021296296,1,0,0,3.4945,optionLeft,70,5775,3,16,0,16,0,1,,,,,,,,,,,,,,,,,,,,,,,,,,,,,,,,,,,,,,,
,,,,,,,,2023-08-16_08h35.19.173,HF_wild_card,2022.2.4,Win32,60.02040694,63de5a3da0d14b3d32a134f8,64d2fd46c836a06233681665,64dc7c1fd479d511601f21a6,,,,,,,sngl,resources/Empty.png,resources/DBN.BMP,Door1,0.433333333,-0.115740741,1,0,0,2.2128,optionRight,30,5805,3,17,0,17,0,1,,,,,,,,,,,,,,,,,,,,,,,,,,,,,,,,,,,,,,,
,,,,,,,,2023-08-16_08h35.19.173,HF_wild_card,2022.2.4,Win32,60.02040694,63de5a3da0d14b3d32a134f8,64d2fd46c836a06233681665,64dc7c1fd479d511601f21a6,,,,,,,ctch,resources/DY.BMP,resources/DR.BMP,Door3,0.30462963,-0.058333333,1,0,0,2.178,optionRight,70,5875,3,18,0,18,0,1,,,,,,,,,,,,,,,,,,,,,,,,,,,,,,,,,,,,,,,
,,,,,,,,2023-08-16_08h35.19.173,HF_wild_card,2022.2.4,Win32,60.02040694,63de5a3da0d14b3d32a134f8,64d2fd46c836a06233681665,64dc7c1fd479d511601f21a6,,,,,,,decisionTrl,resources/DR.BMP,resources/DB.BMP,Door4,0.244444444,-0.027777778,1,0,0,2.1281,optionRight,80,5955,3,19,0,19,0,1,,,,,,,,,,,,,,,,,,,,,,,,,,,,,,,,,,,,,,,
,,,,,,,,2023-08-16_08h35.19.173,HF_wild_card,2022.2.4,Win32,60.02040694,63de5a3da0d14b3d32a134f8,64d2fd46c836a06233681665,64dc7c1fd479d511601f21a6,,,,,,,sngl,resources/Empty.png,resources/DY.BMP,Door2,0.257407407,-0.050925926,1,0,0,1.3265,optionRight,20,5975,3,20,0,20,0,1,,,,,,,,,,,,,,,,,,,,,,,,,,,,,,,,,,,,,,,
,,,,,,,,2023-08-16_08h35.19.173,HF_wild_card,2022.2.4,Win32,60.02040694,63de5a3da0d14b3d32a134f8,64d2fd46c836a06233681665,64dc7c1fd479d511601f21a6,,,,,,,sngl,resources/Empty.png,resources/DR.BMP,Door3,0.287962963,-0.037962963,1,0,0,0.9449,optionRight,70,6045,3,21,0,21,0,1,,,,,,,,,,,,,,,,,,,,,,,,,,,,,,,,,,,,,,,
,,,,,,,,2023-08-16_08h35.19.173,HF_wild_card,2022.2.4,Win32,60.02040694,63de5a3da0d14b3d32a134f8,64d2fd46c836a06233681665,64dc7c1fd479d511601f21a6,,,,,,,decisionTrl,resources/DP.BMP,resources/DR.BMP,Door3,0.27962963,-0.031481481,1,0,0,1.4454,optionRight,70,6115,3,22,0,22,0,1,,,,,,,,,,,,,,,,,,,,,,,,,,,,,,,,,,,,,,,
,,,,,,,,2023-08-16_08h35.19.173,HF_wild_card,2022.2.4,Win32,60.02040694,63de5a3da0d14b3d32a134f8,64d2fd46c836a06233681665,64dc7c1fd479d511601f21a6,,,,,,,decisionTrl,resources/DBN.BMP,resources/DY.BMP,Door2,0.417592593,-0.02962963,1,0,0,4.7616,optionRight,40,6155,3,23,0,23,0,1,,,,,,,,,,,,,,,,,,,,,,,,,,,,,,,,,,,,,,,
,,,,,,,,2023-08-16_08h35.19.173,HF_wild_card,2022.2.4,Win32,60.02040694,63de5a3da0d14b3d32a134f8,64d2fd46c836a06233681665,64dc7c1fd479d511601f21a6,,,,,,,ctch,resources/DBN.BMP,resources/DB.BMP,Door4,0.311111111,-0.025925926,1,0,0,1.2119,optionRight,60,6215,3,24,0,24,0,1,,,,,,,,,,,,,,,,,,,,,,,,,,,,,,,,,,,,,,,
,,,,,,,,2023-08-16_08h35.19.173,HF_wild_card,2022.2.4,Win32,60.02040694,63de5a3da0d14b3d32a134f8,64d2fd46c836a06233681665,64dc7c1fd479d511601f21a6,,,,,,,ctch,resources/DR.BMP,resources/DY.BMP,Door2,0.260185185,0.003703704,1,0,0,7.8776,optionRight,40,6255,3,25,0,25,0,1,,,,,,,,,,,,,,,,,,,,,,,,,,,,,,,,,,,,,,,
,,,,,,,,2023-08-16_08h35.19.173,HF_wild_card,2022.2.4,Win32,60.02040694,63de5a3da0d14b3d32a134f8,64d2fd46c836a06233681665,64dc7c1fd479d511601f21a6,,,,,,,sngl,resources/DP.BMP,resources/Empty.png,WildCard_NonEx,-0.340740741,-0.013888889,1,0,0,2.597,optionLeft,45,6300,3,26,0,26,0,1,,,,,,,,,,,,,,,,,,,,,,,,,,,,,,,,,,,,,,,
,,,,,,,,2023-08-16_08h35.19.173,HF_wild_card,2022.2.4,Win32,60.02040694,63de5a3da0d14b3d32a134f8,64d2fd46c836a06233681665,64dc7c1fd479d511601f21a6,,,,,,,decisionTrl,resources/DB.BMP,resources/DR.BMP,Door4,-0.277777778,-0.015740741,1,0,0,2.4117,optionLeft,60,6360,3,27,0,27,0,1,,,,,,,,,,,,,,,,,,,,,,,,,,,,,,,,,,,,,,,
,,,,,,,,2023-08-16_08h35.19.173,HF_wild_card,2022.2.4,Win32,60.02040694,63de5a3da0d14b3d32a134f8,64d2fd46c836a06233681665,64dc7c1fd479d511601f21a6,,,,,,,sngl,resources/DY.BMP,resources/Empty.png,Door2,-0.339814815,-0.016666667,1,0,0,1.8778,optionLeft,40,6400,3,28,0,28,0,1,,,,,,,,,,,,,,,,,,,,,,,,,,,,,,,,,,,,,,,
,,,,,,,,2023-08-16_08h35.19.173,HF_wild_card,2022.2.4,Win32,60.02040694,63de5a3da0d14b3d32a134f8,64d2fd46c836a06233681665,64dc7c1fd479d511601f21a6,,,,,,,decisionTrl,resources/DB.BMP,resources/DR.BMP,Door3,0.382407407,-0.032407407,1,0,0,1.5117,optionRight,70,6470,3,29,0,29,0,1,,,,,,,,,,,,,,,,,,,,,,,,,,,,,,,,,,,,,,,
,,,,,,,,2023-08-16_08h35.19.173,HF_wild_card,2022.2.4,Win32,60.02040694,63de5a3da0d14b3d32a134f8,64d2fd46c836a06233681665,64dc7c1fd479d511601f21a6,,,,,,,decisionTrl,resources/DY.BMP,resources/DBN.BMP,Door2,-0.35,-0.000925926,1,0,0,9.7948,optionLeft,20,6490,3,30,0,30,0,1,,,,,,,,,,,,,,,,,,,,,,,,,,,,,,,,,,,,,,,
,,,,,,,,2023-08-16_08h35.19.173,HF_wild_card,2022.2.4,Win32,60.02040694,63de5a3da0d14b3d32a134f8,64d2fd46c836a06233681665,64dc7c1fd479d511601f21a6,,,,,,,ctch,resources/DBN.BMP,resources/DB.BMP,Door4,0.255555556,-0.032407407,1,0,0,1.4613,optionRight,60,6550,3,31,0,31,0,1,,,,,,,,,,,,,,,,,,,,,,,,,,,,,,,,,,,,,,,
,,,,,,,,2023-08-16_08h35.19.173,HF_wild_card,2022.2.4,Win32,60.02040694,63de5a3da0d14b3d32a134f8,64d2fd46c836a06233681665,64dc7c1fd479d511601f21a6,,,,,,,decisionTrl,resources/DY.BMP,resources/DP.BMP,WildCard_NonEx,0.306481481,-0.040740741,1,0,0,2.6442,optionRight,55,6605,3,32,0,32,0,1,,,,,,,,,,,,,,,,,,,,,,,,,,,,,,,,,,,,,,,
,,,,,,,,2023-08-16_08h35.19.173,HF_wild_card,2022.2.4,Win32,60.02040694,63de5a3da0d14b3d32a134f8,64d2fd46c836a06233681665,64dc7c1fd479d511601f21a6,,,,,,,decisionTrl,resources/DBN.BMP,resources/DY.BMP,Door1,-0.387037037,-0.037962963,1,0,0,1.4951,optionLeft,30,6635,3,33,0,33,0,1,,,,,,,,,,,,,,,,,,,,,,,,,,,,,,,,,,,,,,,
,,,,,,,,2023-08-16_08h35.19.173,HF_wild_card,2022.2.4,Win32,60.02040694,63de5a3da0d14b3d32a134f8,64d2fd46c836a06233681665,64dc7c1fd479d511601f21a6,,,,,,,decisionTrl,resources/DB.BMP,resources/DR.BMP,Door4,-0.278703704,0.00462963,1,0,0,4.5952,optionLeft,80,6715,3,34,0,34,0,1,,,,,,,,,,,,,,,,,,,,,,,,,,,,,,,,,,,,,,,
,,,,,,,,2023-08-16_08h35.19.173,HF_wild_card,2022.2.4,Win32,60.02040694,63de5a3da0d14b3d32a134f8,64d2fd46c836a06233681665,64dc7c1fd479d511601f21a6,,,,,,,sngl,resources/DP.BMP,resources/Empty.png,WildCard_NonEx,-0.296296296,-0.026851852,1,0,0,1.2953,optionLeft,55,6770,3,35,0,35,0,1,,,,,,,,,,,,,,,,,,,,,,,,,,,,,,,,,,,,,,,
,,,,,,,,2023-08-16_08h35.19.173,HF_wild_card,2022.2.4,Win32,60.02040694,63de5a3da0d14b3d32a134f8,64d2fd46c836a06233681665,64dc7c1fd479d511601f21a6,,,,,,,decisionTrl,resources/DP.BMP,resources/DBN.BMP,WildCard_NonEx,-0.313888889,-0.036111111,1,0,0,2.1955,optionLeft,55,6825,3,36,0,36,0,1,,,,,,,,,,,,,,,,,,,,,,,,,,,,,,,,,,,,,,,
,,,,,,,,2023-08-16_08h35.19.173,HF_wild_card,2022.2.4,Win32,60.02040694,63de5a3da0d14b3d32a134f8,64d2fd46c836a06233681665,64dc7c1fd479d511601f21a6,,,,,,,sngl,resources/Empty.png,resources/DB.BMP,Door4,0.424074074,-0.075925926,1,0,0,1.2454,optionRight,60,6885,3,37,0,37,0,1,,,,,,,,,,,,,,,,,,,,,,,,,,,,,,,,,,,,,,,
,,,,,,,,2023-08-16_08h35.19.173,HF_wild_card,2022.2.4,Win32,60.02040694,63de5a3da0d14b3d32a134f8,64d2fd46c836a06233681665,64dc7c1fd479d511601f21a6,,,,,,,decisionTrl,resources/DB.BMP,resources/DR.BMP,Door3,0.384259259,-0.060185185,1,0,0,4.745,optionRight,70,6955,3,38,0,38,0,1,,,,,,,,,,,,,,,,,,,,,,,,,,,,,,,,,,,,,,,
,,,,,,,,2023-08-16_08h35.19.173,HF_wild_card,2022.2.4,Win32,60.02040694,63de5a3da0d14b3d32a134f8,64d2fd46c836a06233681665,64dc7c1fd479d511601f21a6,,,,,,,decisionTrl,resources/DB.BMP,resources/DP.BMP,Door4,-0.400925926,0,1,0,0,2.5464,optionLeft,60,7015,3,39,0,39,0,1,,,,,,,,,,,,,,,,,,,,,,,,,,,,,,,,,,,,,,,
,,,,,,,,2023-08-16_08h35.19.173,HF_wild_card,2022.2.4,Win32,60.02040694,63de5a3da0d14b3d32a134f8,64d2fd46c836a06233681665,64dc7c1fd479d511601f21a6,,,,,,,decisionTrl,resources/DR.BMP,resources/DP.BMP,Door3,-0.376851852,-0.053703704,1,0,0,1.3454,optionLeft,70,7085,3,40,0,40,0,1,,,,,,,,,,,,,,,,,,,,,,,,,,,,,,,,,,,,,,,
,,,,,,,,2023-08-16_08h35.19.173,HF_wild_card,2022.2.4,Win32,60.02040694,63de5a3da0d14b3d32a134f8,64d2fd46c836a06233681665,64dc7c1fd479d511601f21a6,,,,,,,decisionTrl,resources/DR.BMP,resources/DB.BMP,Door3,-0.375,-0.009259259,1,0,0,2.145,optionLeft,70,7155,3,41,0,41,0,1,,,,,,,,,,,,,,,,,,,,,,,,,,,,,,,,,,,,,,,
,,,,,,,,2023-08-16_08h35.19.173,HF_wild_card,2022.2.4,Win32,60.02040694,63de5a3da0d14b3d32a134f8,64d2fd46c836a06233681665,64dc7c1fd479d511601f21a6,,,,,,,decisionTrl,resources/DBN.BMP,resources/DY.BMP,Door2,0.317592593,-0.037037037,1,0,0,2.0119,optionRight,20,7175,3,42,0,42,0,1,,,,,,,,,,,,,,,,,,,,,,,,,,,,,,,,,,,,,,,
,,,,,,,,2023-08-16_08h35.19.173,HF_wild_card,2022.2.4,Win32,60.02040694,63de5a3da0d14b3d32a134f8,64d2fd46c836a06233681665,64dc7c1fd479d511601f21a6,,,,,,,decisionTrl,resources/DY.BMP,resources/DBN.BMP,Door1,0.32037037,0.003703704,1,0,0,1.326,optionRight,30,7205,3,43,0,43,0,1,,,,,,,,,,,,,,,,,,,,,,,,,,,,,,,,,,,,,,,
,,,,,,,,2023-08-16_08h35.19.173,HF_wild_card,2022.2.4,Win32,60.02040694,63de5a3da0d14b3d32a134f8,64d2fd46c836a06233681665,64dc7c1fd479d511601f21a6,,,,,,,,,,,,,,,,,,,,,,,,,,2,0,2,0,1,,,,,,,,,,,,,,,,,,,,,,,,,,,,,,,,,,
,,,,,,,,2023-08-16_08h35.19.173,HF_wild_card,2022.2.4,Win32,60.02040694,63de5a3da0d14b3d32a134f8,64d2fd46c836a06233681665,64dc7c1fd479d511601f21a6,,,,,,,decisionTrl,resources/DB.BMP,resources/DR.BMP,Door4,-0.241666667,-0.087962963,1,0,0,2.0932,optionLeft,80,7285,4,0,0,0,0,1,,,,,,,,,,,,,,,,,,,,,,,,,,,,,,,,,,,,,,,
,,,,,,,,2023-08-16_08h35.19.173,HF_wild_card,2022.2.4,Win32,60.02040694,63de5a3da0d14b3d32a134f8,64d2fd46c836a06233681665,64dc7c1fd479d511601f21a6,,,,,,,decisionTrl,resources/DY.BMP,resources/DBN.BMP,Door1,0.267592593,-0.019444444,1,0,0,4.4981,optionRight,30,7315,4,1,0,1,0,1,,,,,,,,,,,,,,,,,,,,,,,,,,,,,,,,,,,,,,,
,,,,,,,,2023-08-16_08h35.19.173,HF_wild_card,2022.2.4,Win32,60.02040694,63de5a3da0d14b3d32a134f8,64d2fd46c836a06233681665,64dc7c1fd479d511601f21a6,,,,,,,ctch,resources/DB.BMP,resources/DBN.BMP,Door4,-0.308333333,-0.049074074,1,0,0,1.1285,optionLeft,60,7375,4,2,0,2,0,1,,,,,,,,,,,,,,,,,,,,,,,,,,,,,,,,,,,,,,,
,,,,,,,,2023-08-16_08h35.19.173,HF_wild_card,2022.2.4,Win32,60.02040694,63de5a3da0d14b3d32a134f8,64d2fd46c836a06233681665,64dc7c1fd479d511601f21a6,,,,,,,ctch,resources/DBN.BMP,resources/DB.BMP,Door4,0.275,-0.005555556,1,0,0,2.2116,optionRight,80,7455,4,3,0,3,0,1,,,,,,,,,,,,,,,,,,,,,,,,,,,,,,,,,,,,,,,
,,,,,,,,2023-08-16_08h35.19.173,HF_wild_card,2022.2.4,Win32,60.02040694,63de5a3da0d14b3d32a134f8,64d2fd46c836a06233681665,64dc7c1fd479d511601f21a6,,,,,,,decisionTrl,resources/DG.BMP,resources/DY.BMP,WildCard_Ex,-0.426851852,-0.02037037,1,0,0,8.4285,optionLeft,5,7460,4,4,0,4,0,1,,,,,,,,,,,,,,,,,,,,,,,,,,,,,,,,,,,,,,,
,,,,,,,,2023-08-16_08h35.19.173,HF_wild_card,2022.2.4,Win32,60.02040694,63de5a3da0d14b3d32a134f8,64d2fd46c836a06233681665,64dc7c1fd479d511601f21a6,,,,,,,sngl,resources/DG.BMP,resources/Empty.png,WildCard_Ex,-0.269444444,0.003703704,1,0,0,1.2524,optionLeft,5,7465,4,5,0,5,0,1,,,,,,,,,,,,,,,,,,,,,,,,,,,,,,,,,,,,,,,
,,,,,,,,2023-08-16_08h35.19.173,HF_wild_card,2022.2.4,Win32,60.02040694,63de5a3da0d14b3d32a134f8,64d2fd46c836a06233681665,64dc7c1fd479d511601f21a6,,,,,,,decisionTrl,resources/DG.BMP,resources/DR.BMP,Door3,0.455555556,0.001851852,1,0,0,0.9612,optionRight,70,7535,4,6,0,6,0,1,,,,,,,,,,,,,,,,,,,,,,,,,,,,,,,,,,,,,,,
,,,,,,,,2023-08-16_08h35.19.173,HF_wild_card,2022.2.4,Win32,60.02040694,63de5a3da0d14b3d32a134f8,64d2fd46c836a06233681665,64dc7c1fd479d511601f21a6,,,,,,,sngl,resources/Empty.png,resources/DY.BMP,Door2,0.436111111,-0.036111111,1,0,0,1.4779,optionRight,40,7575,4,7,0,7,0,1,,,,,,,,,,,,,,,,,,,,,,,,,,,,,,,,,,,,,,,
,,,,,,,,2023-08-16_08h35.19.173,HF_wild_card,2022.2.4,Win32,60.02040694,63de5a3da0d14b3d32a134f8,64d2fd46c836a06233681665,64dc7c1fd479d511601f21a6,,,,,,,sngl,resources/DBN.BMP,resources/Empty.png,Door1,-0.375925926,0.012962963,1,0,0,1.0949,optionLeft,30,7605,4,8,0,8,0,1,,,,,,,,,,,,,,,,,,,,,,,,,,,,,,,,,,,,,,,
,,,,,,,,2023-08-16_08h35.19.173,HF_wild_card,2022.2.4,Win32,60.02040694,63de5a3da0d14b3d32a134f8,64d2fd46c836a06233681665,64dc7c1fd479d511601f21a6,,,,,,,decisionTrl,resources/DBN.BMP,resources/DY.BMP,Door1,-0.237037037,-0.000925926,1,0,0,4.5427,optionLeft,30,7635,4,9,0,9,0,1,,,,,,,,,,,,,,,,,,,,,,,,,,,,,,,,,,,,,,,
,,,,,,,,2023-08-16_08h35.19.173,HF_wild_card,2022.2.4,Win32,60.02040694,63de5a3da0d14b3d32a134f8,64d2fd46c836a06233681665,64dc7c1fd479d511601f21a6,,,,,,,sngl,resources/Empty.png,resources/DR.BMP,Door3,0.278703704,-0.075,1,0,0,1.2779,optionRight,70,7705,4,10,0,10,0,1,,,,,,,,,,,,,,,,,,,,,,,,,,,,,,,,,,,,,,,
,,,,,,,,2023-08-16_08h35.19.173,HF_wild_card,2022.2.4,Win32,60.02040694,63de5a3da0d14b3d32a134f8,64d2fd46c836a06233681665,64dc7c1fd479d511601f21a6,,,,,,,ctch,resources/DY.BMP,resources/DR.BMP,Door3,0.382407407,-0.005555556,1,0,0,1.812,optionRight,70,7775,4,11,0,11,0,1,,,,,,,,,,,,,,,,,,,,,,,,,,,,,,,,,,,,,,,
,,,,,,,,2023-08-16_08h35.19.173,HF_wild_card,2022.2.4,Win32,60.02040694,63de5a3da0d14b3d32a134f8,64d2fd46c836a06233681665,64dc7c1fd479d511601f21a6,,,,,,,decisionTrl,resources/DBN.BMP,resources/DY.BMP,Door2,0.359259259,-0.030555556,1,0,0,2.179,optionRight,20,7795,4,12,0,12,0,1,,,,,,,,,,,,,,,,,,,,,,,,,,,,,,,,,,,,,,,
,,,,,,,,2023-08-16_08h35.19.173,HF_wild_card,2022.2.4,Win32,60.02040694,63de5a3da0d14b3d32a134f8,64d2fd46c836a06233681665,64dc7c1fd479d511601f21a6,,,,,,,decisionTrl,resources/DR.BMP,resources/DB.BMP,Door4,0.360185185,0.011111111,1,0,0,2.6951,optionRight,60,7855,4,13,0,13,0,1,,,,,,,,,,,,,,,,,,,,,,,,,,,,,,,,,,,,,,,
,,,,,,,,2023-08-16_08h35.19.173,HF_wild_card,2022.2.4,Win32,60.02040694,63de5a3da0d14b3d32a134f8,64d2fd46c836a06233681665,64dc7c1fd479d511601f21a6,,,,,,,decisionTrl,resources/DB.BMP,resources/DR.BMP,Door4,-0.322222222,-0.003703704,1,0,0,3.535,optionLeft,80,7935,4,14,0,14,0,1,,,,,,,,,,,,,,,,,,,,,,,,,,,,,,,,,,,,,,,
,,,,,,,,2023-08-16_08h35.19.173,HF_wild_card,2022.2.4,Win32,60.02040694,63de5a3da0d14b3d32a134f8,64d2fd46c836a06233681665,64dc7c1fd479d511601f21a6,,,,,,,sngl,resources/Empty.png,resources/DB.BMP,Door4,0.323148148,-0.016666667,1,0,0,1.0837,optionRight,80,8015,4,15,0,15,0,1,,,,,,,,,,,,,,,,,,,,,,,,,,,,,,,,,,,,,,,
,,,,,,,,2023-08-16_08h35.19.173,HF_wild_card,2022.2.4,Win32,60.02040694,63de5a3da0d14b3d32a134f8,64d2fd46c836a06233681665,64dc7c1fd479d511601f21a6,,,,,,,decisionTrl,resources/DR.BMP,resources/DB.BMP,Door4,0.411111111,-0.02962963,1,0,0,5.1955,optionRight,80,8095,4,16,0,16,0,1,,,,,,,,,,,,,,,,,,,,,,,,,,,,,,,,,,,,,,,
,,,,,,,,2023-08-16_08h35.19.173,HF_wild_card,2022.2.4,Win32,60.02040694,63de5a3da0d14b3d32a134f8,64d2fd46c836a06233681665,64dc7c1fd479d511601f21a6,,,,,,,ctch,resources/DR.BMP,resources/DY.BMP,Door3,-0.312037037,-0.015740741,1,0,0,1.478,optionLeft,70,8165,4,17,0,17,0,1,,,,,,,,,,,,,,,,,,,,,,,,,,,,,,,,,,,,,,,
,,,,,,,,2023-08-16_08h35.19.173,HF_wild_card,2022.2.4,Win32,60.02040694,63de5a3da0d14b3d32a134f8,64d2fd46c836a06233681665,64dc7c1fd479d511601f21a6,,,,,,,ctch,resources/DBN.BMP,resources/DB.BMP,Door4,0.390740741,-0.035185185,1,0,0,1.2118,optionRight,80,8245,4,18,0,18,0,1,,,,,,,,,,,,,,,,,,,,,,,,,,,,,,,,,,,,,,,
,,,,,,,,2023-08-16_08h35.19.173,HF_wild_card,2022.2.4,Win32,60.02040694,63de5a3da0d14b3d32a134f8,64d2fd46c836a06233681665,64dc7c1fd479d511601f21a6,,,,,,,decisionTrl,resources/DBN.BMP,resources/DG.BMP,Door1,-0.308333333,-0.013888889,1,0,0,1.2782,optionLeft,30,8275,4,19,0,19,0,1,,,,,,,,,,,,,,,,,,,,,,,,,,,,,,,,,,,,,,,
,,,,,,,,2023-08-16_08h35.19.173,HF_wild_card,2022.2.4,Win32,60.02040694,63de5a3da0d14b3d32a134f8,64d2fd46c836a06233681665,64dc7c1fd479d511601f21a6,,,,,,,sngl,resources/Empty.png,resources/DG.BMP,WildCard_Ex,0.269444444,-0.033333333,1,0,0,1.212,optionRight,95,8370,4,20,0,20,0,1,,,,,,,,,,,,,,,,,,,,,,,,,,,,,,,,,,,,,,,
,,,,,,,,2023-08-16_08h35.19.173,HF_wild_card,2022.2.4,Win32,60.02040694,63de5a3da0d14b3d32a134f8,64d2fd46c836a06233681665,64dc7c1fd479d511601f21a6,,,,,,,decisionTrl,resources/DB.BMP,resources/DR.BMP,Door4,-0.236111111,0.013888889,1,0,0,6.0785,optionLeft,60,8430,4,21,0,21,0,1,,,,,,,,,,,,,,,,,,,,,,,,,,,,,,,,,,,,,,,
,,,,,,,,2023-08-16_08h35.19.173,HF_wild_card,2022.2.4,Win32,60.02040694,63de5a3da0d14b3d32a134f8,64d2fd46c836a06233681665,64dc7c1fd479d511601f21a6,,,,,,,decisionTrl,resources/DBN.BMP,resources/DY.BMP,Door1,-0.317592593,-0.001851852,1,0,0,1.7128,optionLeft,30,8460,4,22,0,22,0,1,,,,,,,,,,,,,,,,,,,,,,,,,,,,,,,,,,,,,,,
,,,,,,,,2023-08-16_08h35.19.173,HF_wild_card,2022.2.4,Win32,60.02040694,63de5a3da0d14b3d32a134f8,64d2fd46c836a06233681665,64dc7c1fd479d511601f21a6,,,,,,,decisionTrl,resources/DG.BMP,resources/DB.BMP,WildCard_Ex,-0.27962963,-0.02962963,1,0,0,1.3293,optionLeft,95,8555,4,23,0,23,0,1,,,,,,,,,,,,,,,,,,,,,,,,,,,,,,,,,,,,,,,
,,,,,,,,2023-08-16_08h35.19.173,HF_wild_card,2022.2.4,Win32,60.02040694,63de5a3da0d14b3d32a134f8,64d2fd46c836a06233681665,64dc7c1fd479d511601f21a6,,,,,,,sngl,resources/DR.BMP,resources/Empty.png,Door3,-0.312037037,-0.032407407,1,0,0,1.1285,optionLeft,70,8625,4,24,0,24,0,1,,,,,,,,,,,,,,,,,,,,,,,,,,,,,,,,,,,,,,,
,,,,,,,,2023-08-16_08h35.19.173,HF_wild_card,2022.2.4,Win32,60.02040694,63de5a3da0d14b3d32a134f8,64d2fd46c836a06233681665,64dc7c1fd479d511601f21a6,,,,,,,decisionTrl,resources/DR.BMP,resources/DB.BMP,Door4,0.355555556,-0.044444444,1,0,0,1.6446,optionRight,80,8705,4,25,0,25,0,1,,,,,,,,,,,,,,,,,,,,,,,,,,,,,,,,,,,,,,,
,,,,,,,,2023-08-16_08h35.19.173,HF_wild_card,2022.2.4,Win32,60.02040694,63de5a3da0d14b3d32a134f8,64d2fd46c836a06233681665,64dc7c1fd479d511601f21a6,,,,,,,decisionTrl,resources/DBN.BMP,resources/DY.BMP,Door2,0.290740741,-0.025,1,0,0,7.5233,optionRight,20,8725,4,26,0,26,0,1,,,,,,,,,,,,,,,,,,,,,,,,,,,,,,,,,,,,,,,
,,,,,,,,2023-08-16_08h35.19.173,HF_wild_card,2022.2.4,Win32,60.02040694,63de5a3da0d14b3d32a134f8,64d2fd46c836a06233681665,64dc7c1fd479d511601f21a6,,,,,,,sngl,resources/DB.BMP,resources/Empty.png,Door4,-0.282407407,-0.014814815,1,0,0,0.8432,optionLeft,60,8785,4,27,0,27,0,1,,,,,,,,,,,,,,,,,,,,,,,,,,,,,,,,,,,,,,,
,,,,,,,,2023-08-16_08h35.19.173,HF_wild_card,2022.2.4,Win32,60.02040694,63de5a3da0d14b3d32a134f8,64d2fd46c836a06233681665,64dc7c1fd479d511601f21a6,,,,,,,decisionTrl,resources/DB.BMP,resources/DG.BMP,WildCard_Ex,0.364814815,-0.027777778,1,0,0,0.88,optionRight,95,8880,4,28,0,28,0,1,,,,,,,,,,,,,,,,,,,,,,,,,,,,,,,,,,,,,,,
,,,,,,,,2023-08-16_08h35.19.173,HF_wild_card,2022.2.4,Win32,60.02040694,63de5a3da0d14b3d32a134f8,64d2fd46c836a06233681665,64dc7c1fd479d511601f21a6,,,,,,,decisionTrl,resources/DR.BMP,resources/DB.BMP,Door4,0.275925926,-0.008333333,1,0,0,5.6964,optionRight,80,8960,4,29,0,29,0,1,,,,,,,,,,,,,,,,,,,,,,,,,,,,,,,,,,,,,,,
,,,,,,,,2023-08-16_08h35.19.173,HF_wild_card,2022.2.4,Win32,60.02040694,63de5a3da0d14b3d32a134f8,64d2fd46c836a06233681665,64dc7c1fd479d511601f21a6,,,,,,,sngl,resources/Empty.png,resources/DBN.BMP,Door1,0.334259259,-0.022222222,1,0,0,1.5786,optionRight,30,8990,4,30,0,30,0,1,,,,,,,,,,,,,,,,,,,,,,,,,,,,,,,,,,,,,,,
,,,,,,,,2023-08-16_08h35.19.173,HF_wild_card,2022.2.4,Win32,60.02040694,63de5a3da0d14b3d32a134f8,64d2fd46c836a06233681665,64dc7c1fd479d511601f21a6,,,,,,,sngl,resources/Empty.png,resources/DG.BMP,WildCard_Ex,0.414814815,-0.052777778,1,0,0,0.6953,optionRight,5,8995,4,31,0,31,0,1,,,,,,,,,,,,,,,,,,,,,,,,,,,,,,,,,,,,,,,
,,,,,,,,2023-08-16_08h35.19.173,HF_wild_card,2022.2.4,Win32,60.02040694,63de5a3da0d14b3d32a134f8,64d2fd46c836a06233681665,64dc7c1fd479d511601f21a6,,,,,,,ctch,resources/DY.BMP,resources/DR.BMP,Door3,0.292592593,-0.024074074,1,0,0,1.6115,optionRight,70,9065,4,32,0,32,0,1,,,,,,,,,,,,,,,,,,,,,,,,,,,,,,,,,,,,,,,
,,,,,,,,2023-08-16_08h35.19.173,HF_wild_card,2022.2.4,Win32,60.02040694,63de5a3da0d14b3d32a134f8,64d2fd46c836a06233681665,64dc7c1fd479d511601f21a6,,,,,,,sngl,resources/DG.BMP,resources/Empty.png,WildCard_Ex,-0.216666667,0.023148148,1,0,0,1.4281,optionLeft,95,9160,4,33,0,33,0,1,,,,,,,,,,,,,,,,,,,,,,,,,,,,,,,,,,,,,,,
,,,,,,,,2023-08-16_08h35.19.173,HF_wild_card,2022.2.4,Win32,60.02040694,63de5a3da0d14b3d32a134f8,64d2fd46c836a06233681665,64dc7c1fd479d511601f21a6,,,,,,,decisionTrl,resources/DB.BMP,resources/DR.BMP,Door4,-0.361111111,0,1,0,0,2.0284,optionLeft,60,9220,4,34,0,34,0,1,,,,,,,,,,,,,,,,,,,,,,,,,,,,,,,,,,,,,,,
,,,,,,,,2023-08-16_08h35.19.173,HF_wild_card,2022.2.4,Win32,60.02040694,63de5a3da0d14b3d32a134f8,64d2fd46c836a06233681665,64dc7c1fd479d511601f21a6,,,,,,,decisionTrl,resources/DY.BMP,resources/DBN.BMP,Door1,0.325,-0.008333333,1,0,0,1.6281,optionRight,30,9250,4,35,0,35,0,1,,,,,,,,,,,,,,,,,,,,,,,,,,,,,,,,,,,,,,,
,,,,,,,,2023-08-16_08h35.19.173,HF_wild_card,2022.2.4,Win32,60.02040694,63de5a3da0d14b3d32a134f8,64d2fd46c836a06233681665,64dc7c1fd479d511601f21a6,,,,,,,decisionTrl,resources/DY.BMP,resources/DBN.BMP,Door2,-0.268518519,0.002777778,1,0,0,2.6433,optionLeft,20,9270,4,36,0,36,0,1,,,,,,,,,,,,,,,,,,,,,,,,,,,,,,,,,,,,,,,
,,,,,,,,2023-08-16_08h35.19.173,HF_wild_card,2022.2.4,Win32,60.02040694,63de5a3da0d14b3d32a134f8,64d2fd46c836a06233681665,64dc7c1fd479d511601f21a6,,,,,,,ctch,resources/DR.BMP,resources/DY.BMP,Door3,-0.407407407,-0.025,1,0,0,1.0442,optionLeft,70,9340,4,37,0,37,0,1,,,,,,,,,,,,,,,,,,,,,,,,,,,,,,,,,,,,,,,
,,,,,,,,2023-08-16_08h35.19.173,HF_wild_card,2022.2.4,Win32,60.02040694,63de5a3da0d14b3d32a134f8,64d2fd46c836a06233681665,64dc7c1fd479d511601f21a6,,,,,,,decisionTrl,resources/DY.BMP,resources/DG.BMP,WildCard_Ex,0.326851852,-0.026851852,1,0,0,0.9784,optionRight,5,9345,4,38,0,38,0,1,,,,,,,,,,,,,,,,,,,,,,,,,,,,,,,,,,,,,,,
,,,,,,,,2023-08-16_08h35.19.173,HF_wild_card,2022.2.4,Win32,60.02040694,63de5a3da0d14b3d32a134f8,64d2fd46c836a06233681665,64dc7c1fd479d511601f21a6,,,,,,,ctch,resources/DB.BMP,resources/DBN.BMP,Door4,-0.222222222,-0.012037037,1,0,0,1.3783,optionLeft,80,9425,4,39,0,39,0,1,,,,,,,,,,,,,,,,,,,,,,,,,,,,,,,,,,,,,,,
,,,,,,,,2023-08-16_08h35.19.173,HF_wild_card,2022.2.4,Win32,60.02040694,63de5a3da0d14b3d32a134f8,64d2fd46c836a06233681665,64dc7c1fd479d511601f21a6,,,,,,,decisionTrl,resources/DG.BMP,resources/DBN.BMP,WildCard_Ex,-0.226851852,-0.032407407,1,0,0,1.4263,optionLeft,5,9430,4,40,0,40,0,1,,,,,,,,,,,,,,,,,,,,,,,,,,,,,,,,,,,,,,,
,,,,,,,,2023-08-16_08h35.19.173,HF_wild_card,2022.2.4,Win32,60.02040694,63de5a3da0d14b3d32a134f8,64d2fd46c836a06233681665,64dc7c1fd479d511601f21a6,,,,,,,decisionTrl,resources/DY.BMP,resources/DBN.BMP,Door1,0.237962963,-0.011111111,1,0,0,1.3637,optionRight,30,9460,4,41,0,41,0,1,,,,,,,,,,,,,,,,,,,,,,,,,,,,,,,,,,,,,,,
,,,,,,,,2023-08-16_08h35.19.173,HF_wild_card,2022.2.4,Win32,60.02040694,63de5a3da0d14b3d32a134f8,64d2fd46c836a06233681665,64dc7c1fd479d511601f21a6,,,,,,,sngl,resources/DY.BMP,resources/Empty.png,Door2,-0.200925926,0.010185185,1,0,0,0.8453,optionLeft,20,9480,4,42,0,42,0,1,,,,,,,,,,,,,,,,,,,,,,,,,,,,,,,,,,,,,,,
,,,,,,,,2023-08-16_08h35.19.173,HF_wild_card,2022.2.4,Win32,60.02040694,63de5a3da0d14b3d32a134f8,64d2fd46c836a06233681665,64dc7c1fd479d511601f21a6,,,,,,,decisionTrl,resources/DR.BMP,resources/DG.BMP,Door3,-0.237037037,0.007407407,1,0,0,3.9119,optionLeft,70,9550,4,43,0,43,0,1,,,,,,,,,,,,,,,,,,,,,,,,,,,,,,,,,,,,,,,
,,,,,,,,2023-08-16_08h35.19.173,HF_wild_card,2022.2.4,Win32,60.02040694,63de5a3da0d14b3d32a134f8,64d2fd46c836a06233681665,64dc7c1fd479d511601f21a6,,,,,,,,,,,,,,,,,,,,,,,,,,3,0,3,0,1,,,,,,,,,,,,,,,,,,,,,,,,,,,,,,,,,,
,,,,,,,,2023-08-16_08h35.19.173,HF_wild_card,2022.2.4,Win32,60.02040694,63de5a3da0d14b3d32a134f8,64d2fd46c836a06233681665,64dc7c1fd479d511601f21a6,,,,,,,decisionTrl,resources/DBN.BMP,resources/DY.BMP,Door1,-0.186111111,-0.096296296,1,0,0,1.8805,optionLeft,30,9580,5,0,0,0,0,1,,,,,,,,,,,,,,,,,,,,,,,,,,,,,,,,,,,,,,,
,,,,,,,,2023-08-16_08h35.19.173,HF_wild_card,2022.2.4,Win32,60.02040694,63de5a3da0d14b3d32a134f8,64d2fd46c836a06233681665,64dc7c1fd479d511601f21a6,,,,,,,decisionTrl,resources/DR.BMP,resources/DB.BMP,Door4,0.428703704,-0.033333333,1,0,0,1.4952,optionRight,60,9640,5,1,0,1,0,1,,,,,,,,,,,,,,,,,,,,,,,,,,,,,,,,,,,,,,,
,,,,,,,,2023-08-16_08h35.19.173,HF_wild_card,2022.2.4,Win32,60.02040694,63de5a3da0d14b3d32a134f8,64d2fd46c836a06233681665,64dc7c1fd479d511601f21a6,,,,,,,ctch,resources/DR.BMP,resources/DY.BMP,Door3,-0.243518519,-0.010185185,1,0,0,1.3944,optionLeft,70,9710,5,2,0,2,0,1,,,,,,,,,,,,,,,,,,,,,,,,,,,,,,,,,,,,,,,
,,,,,,,,2023-08-16_08h35.19.173,HF_wild_card,2022.2.4,Win32,60.02040694,63de5a3da0d14b3d32a134f8,64d2fd46c836a06233681665,64dc7c1fd479d511601f21a6,,,,,,,sngl,resources/DG.BMP,resources/Empty.png,WildCard_Ex,-0.266666667,0.024074074,1,0,0,1.3969,optionLeft,5,9715,5,3,0,3,0,1,,,,,,,,,,,,,,,,,,,,,,,,,,,,,,,,,,,,,,,
,,,,,,,,2023-08-16_08h35.19.173,HF_wild_card,2022.2.4,Win32,60.02040694,63de5a3da0d14b3d32a134f8,64d2fd46c836a06233681665,64dc7c1fd479d511601f21a6,,,,,,,sngl,resources/Empty.png,resources/DBN.BMP,Door1,0.334259259,0.001851852,1,0,0,1.6781,optionRight,30,9745,5,4,0,4,0,1,,,,,,,,,,,,,,,,,,,,,,,,,,,,,,,,,,,,,,,
,,,,,,,,2023-08-16_08h35.19.173,HF_wild_card,2022.2.4,Win32,60.02040694,63de5a3da0d14b3d32a134f8,64d2fd46c836a06233681665,64dc7c1fd479d511601f21a6,,,,,,,sngl,resources/Empty.png,resources/DG.BMP,WildCard_Ex,0.256481481,-0.018518519,1,0,0,1.2117,optionRight,95,9840,5,5,0,5,0,1,,,,,,,,,,,,,,,,,,,,,,,,,,,,,,,,,,,,,,,
,,,,,,,,2023-08-16_08h35.19.173,HF_wild_card,2022.2.4,Win32,60.02040694,63de5a3da0d14b3d32a134f8,64d2fd46c836a06233681665,64dc7c1fd479d511601f21a6,,,,,,,decisionTrl,resources/DB.BMP,resources/DR.BMP,Door3,0.262962963,-0.035185185,1,0,0,3.7937,optionRight,70,9910,5,6,0,6,0,1,,,,,,,,,,,,,,,,,,,,,,,,,,,,,,,,,,,,,,,
,,,,,,,,2023-08-16_08h35.19.173,HF_wild_card,2022.2.4,Win32,60.02040694,63de5a3da0d14b3d32a134f8,64d2fd46c836a06233681665,64dc7c1fd479d511601f21a6,,,,,,,sngl,resources/DB.BMP,resources/Empty.png,Door4,-0.251851852,-0.018518519,1,0,0,0.7949,optionLeft,80,9990,5,7,0,7,0,1,,,,,,,,,,,,,,,,,,,,,,,,,,,,,,,,,,,,,,,
,,,,,,,,2023-08-16_08h35.19.173,HF_wild_card,2022.2.4,Win32,60.02040694,63de5a3da0d14b3d32a134f8,64d2fd46c836a06233681665,64dc7c1fd479d511601f21a6,,,,,,,decisionTrl,resources/DR.BMP,resources/DG.BMP,Door3,-0.252777778,0.015740741,1,0,0,2.2117,optionLeft,70,10060,5,8,0,8,0,1,,,,,,,,,,,,,,,,,,,,,,,,,,,,,,,,,,,,,,,
,,,,,,,,2023-08-16_08h35.19.173,HF_wild_card,2022.2.4,Win32,60.02040694,63de5a3da0d14b3d32a134f8,64d2fd46c836a06233681665,64dc7c1fd479d511601f21a6,,,,,,,decisionTrl,resources/DB.BMP,resources/DR.BMP,Door4,-0.211111111,-0.02037037,1,0,0,3.2448,optionLeft,60,10120,5,9,0,9,0,1,,,,,,,,,,,,,,,,,,,,,,,,,,,,,,,,,,,,,,,
,,,,,,,,2023-08-16_08h35.19.173,HF_wild_card,2022.2.4,Win32,60.02040694,63de5a3da0d14b3d32a134f8,64d2fd46c836a06233681665,64dc7c1fd479d511601f21a6,,,,,,,sngl,resources/Empty.png,resources/DY.BMP,Door2,0.248148148,-0.007407407,1,0,0,1.647,optionRight,20,10140,5,10,0,10,0,1,,,,,,,,,,,,,,,,,,,,,,,,,,,,,,,,,,,,,,,
,,,,,,,,2023-08-16_08h35.19.173,HF_wild_card,2022.2.4,Win32,60.02040694,63de5a3da0d14b3d32a134f8,64d2fd46c836a06233681665,64dc7c1fd479d511601f21a6,,,,,,,decisionTrl,resources/DY.BMP,resources/DBN.BMP,Door1,0.27037037,0.010185185,1,0,0,1.5612,optionRight,30,10170,5,11,0,11,0,1,,,,,,,,,,,,,,,,,,,,,,,,,,,,,,,,,,,,,,,
,,,,,,,,2023-08-16_08h35.19.173,HF_wild_card,2022.2.4,Win32,60.02040694,63de5a3da0d14b3d32a134f8,64d2fd46c836a06233681665,64dc7c1fd479d511601f21a6,,,,,,,decisionTrl,resources/DB.BMP,resources/DR.BMP,Door4,-0.35,0.027777778,1,0,0,2.3627,optionLeft,60,10230,5,12,0,12,0,1,,,,,,,,,,,,,,,,,,,,,,,,,,,,,,,,,,,,,,,
,,,,,,,,2023-08-16_08h35.19.173,HF_wild_card,2022.2.4,Win32,60.02040694,63de5a3da0d14b3d32a134f8,64d2fd46c836a06233681665,64dc7c1fd479d511601f21a6,,,,,,,decisionTrl,resources/DG.BMP,resources/DR.BMP,WildCard_Ex,-0.192592593,0.014814815,1,0,0,3.1183,optionLeft,95,10325,5,13,0,13,0,1,,,,,,,,,,,,,,,,,,,,,,,,,,,,,,,,,,,,,,,
,,,,,,,,2023-08-16_08h35.19.173,HF_wild_card,2022.2.4,Win32,60.02040694,63de5a3da0d14b3d32a134f8,64d2fd46c836a06233681665,64dc7c1fd479d511601f21a6,,,,,,,sngl,resources/Empty.png,resources/DG.BMP,WildCard_Ex,0.333333333,0,1,0,0,1.1786,optionRight,5,10330,5,14,0,14,0,1,,,,,,,,,,,,,,,,,,,,,,,,,,,,,,,,,,,,,,,
,,,,,,,,2023-08-16_08h35.19.173,HF_wild_card,2022.2.4,Win32,60.02040694,63de5a3da0d14b3d32a134f8,64d2fd46c836a06233681665,64dc7c1fd479d511601f21a6,,,,,,,ctch,resources/DB.BMP,resources/DBN.BMP,Door4,-0.293518519,0.00462963,1,0,0,1.0948,optionLeft,60,10390,5,15,0,15,0,1,,,,,,,,,,,,,,,,,,,,,,,,,,,,,,,,,,,,,,,
,,,,,,,,2023-08-16_08h35.19.173,HF_wild_card,2022.2.4,Win32,60.02040694,63de5a3da0d14b3d32a134f8,64d2fd46c836a06233681665,64dc7c1fd479d511601f21a6,,,,,,,decisionTrl,resources/DG.BMP,resources/DBN.BMP,WildCard_Ex,-0.200925926,0,1,0,0,4.6279,optionLeft,5,10395,5,16,0,16,0,1,,,,,,,,,,,,,,,,,,,,,,,,,,,,,,,,,,,,,,,
,,,,,,,,2023-08-16_08h35.19.173,HF_wild_card,2022.2.4,Win32,60.02040694,63de5a3da0d14b3d32a134f8,64d2fd46c836a06233681665,64dc7c1fd479d511601f21a6,,,,,,,sngl,resources/DR.BMP,resources/Empty.png,Door3,-0.225,-0.009259259,1,0,0,1.0297,optionLeft,70,10465,5,17,0,17,0,1,,,,,,,,,,,,,,,,,,,,,,,,,,,,,,,,,,,,,,,
,,,,,,,,2023-08-16_08h35.19.173,HF_wild_card,2022.2.4,Win32,60.02040694,63de5a3da0d14b3d32a134f8,64d2fd46c836a06233681665,64dc7c1fd479d511601f21a6,,,,,,,decisionTrl,resources/DB.BMP,resources/DR.BMP,Door3,0.437962963,-0.050925926,1,0,0,3.3445,optionRight,70,10535,5,18,0,18,0,1,,,,,,,,,,,,,,,,,,,,,,,,,,,,,,,,,,,,,,,
,,,,,,,,2023-08-16_08h35.19.173,HF_wild_card,2022.2.4,Win32,60.02040694,63de5a3da0d14b3d32a134f8,64d2fd46c836a06233681665,64dc7c1fd479d511601f21a6,,,,,,,ctch,resources/DBN.BMP,resources/DB.BMP,Door4,0.34537037,-0.021296296,1,0,0,1.0119,optionRight,60,10595,5,19,0,19,0,1,,,,,,,,,,,,,,,,,,,,,,,,,,,,,,,,,,,,,,,
,,,,,,,,2023-08-16_08h35.19.173,HF_wild_card,2022.2.4,Win32,60.02040694,63de5a3da0d14b3d32a134f8,64d2fd46c836a06233681665,64dc7c1fd479d511601f21a6,,,,,,,decisionTrl,resources/DY.BMP,resources/DBN.BMP,Door1,0.283333333,-0.019444444,1,0,0,1.5609,optionRight,30,10625,5,20,0,20,0,1,,,,,,,,,,,,,,,,,,,,,,,,,,,,,,,,,,,,,,,
,,,,,,,,2023-08-16_08h35.19.173,HF_wild_card,2022.2.4,Win32,60.02040694,63de5a3da0d14b3d32a134f8,64d2fd46c836a06233681665,64dc7c1fd479d511601f21a6,,,,,,,decisionTrl,resources/DG.BMP,resources/DY.BMP,WildCard_Ex,-0.151851852,0.013888889,1,0,0,3.4098,optionLeft,5,10630,5,21,0,21,0,1,,,,,,,,,,,,,,,,,,,,,,,,,,,,,,,,,,,,,,,
,,,,,,,,2023-08-16_08h35.19.173,HF_wild_card,2022.2.4,Win32,60.02040694,63de5a3da0d14b3d32a134f8,64d2fd46c836a06233681665,64dc7c1fd479d511601f21a6,,,,,,,decisionTrl,resources/DBN.BMP,resources/DG.BMP,WildCard_Ex,0.42037037,-0.02962963,1,0,0,0.9255,optionRight,5,10635,5,22,0,22,0,1,,,,,,,,,,,,,,,,,,,,,,,,,,,,,,,,,,,,,,,
,,,,,,,,2023-08-16_08h35.19.173,HF_wild_card,2022.2.4,Win32,60.02040694,63de5a3da0d14b3d32a134f8,64d2fd46c836a06233681665,64dc7c1fd479d511601f21a6,,,,,,,ctch,resources/DR.BMP,resources/DY.BMP,Door3,-0.323148148,0.02962963,1,0,0,1.8453,optionLeft,70,10705,5,23,0,23,0,1,,,,,,,,,,,,,,,,,,,,,,,,,,,,,,,,,,,,,,,
,,,,,,,,2023-08-16_08h35.19.173,HF_wild_card,2022.2.4,Win32,60.02040694,63de5a3da0d14b3d32a134f8,64d2fd46c836a06233681665,64dc7c1fd479d511601f21a6,,,,,,,sngl,resources/Empty.png,resources/DB.BMP,Door4,0.303703704,-0.032407407,1,0,0,0.8285,optionRight,60,10765,5,24,0,24,0,1,,,,,,,,,,,,,,,,,,,,,,,,,,,,,,,,,,,,,,,
,,,,,,,,2023-08-16_08h35.19.173,HF_wild_card,2022.2.4,Win32,60.02040694,63de5a3da0d14b3d32a134f8,64d2fd46c836a06233681665,64dc7c1fd479d511601f21a6,,,,,,,sngl,resources/DY.BMP,resources/Empty.png,Door2,-0.25462963,-0.049074074,1,0,0,1.6119,optionLeft,40,10805,5,25,0,25,0,1,,,,,,,,,,,,,,,,,,,,,,,,,,,,,,,,,,,,,,,
,,,,,,,,2023-08-16_08h35.19.173,HF_wild_card,2022.2.4,Win32,60.02040694,63de5a3da0d14b3d32a134f8,64d2fd46c836a06233681665,64dc7c1fd479d511601f21a6,,,,,,,decisionTrl,resources/DY.BMP,resources/DBN.BMP,Door2,-0.300925926,0.016666667,1,0,0,2.112,optionLeft,40,10845,5,26,0,26,0,1,,,,,,,,,,,,,,,,,,,,,,,,,,,,,,,,,,,,,,,
,,,,,,,,2023-08-16_08h35.19.173,HF_wild_card,2022.2.4,Win32,60.02040694,63de5a3da0d14b3d32a134f8,64d2fd46c836a06233681665,64dc7c1fd479d511601f21a6,,,,,,,decisionTrl,resources/DBN.BMP,resources/DY.BMP,Door2,0.264814815,-0.021296296,1,0,0,4.2119,optionRight,20,10865,5,27,0,27,0,1,,,,,,,,,,,,,,,,,,,,,,,,,,,,,,,,,,,,,,,
,,,,,,,,2023-08-16_08h35.19.173,HF_wild_card,2022.2.4,Win32,60.02040694,63de5a3da0d14b3d32a134f8,64d2fd46c836a06233681665,64dc7c1fd479d511601f21a6,,,,,,,decisionTrl,resources/DB.BMP,resources/DG.BMP,Door4,-0.262962963,-0.048148148,1,0,0,2.1621,optionLeft,60,10925,5,28,0,28,0,1,,,,,,,,,,,,,,,,,,,,,,,,,,,,,,,,,,,,,,,
,,,,,,,,2023-08-16_08h35.19.173,HF_wild_card,2022.2.4,Win32,60.02040694,63de5a3da0d14b3d32a134f8,64d2fd46c836a06233681665,64dc7c1fd479d511601f21a6,,,,,,,ctch,resources/DBN.BMP,resources/DB.BMP,Door4,0.332407407,-0.011111111,1,0,0,0.9947,optionRight,60,10985,5,29,0,29,0,1,,,,,,,,,,,,,,,,,,,,,,,,,,,,,,,,,,,,,,,
,,,,,,,,2023-08-16_08h35.19.173,HF_wild_card,2022.2.4,Win32,60.02040694,63de5a3da0d14b3d32a134f8,64d2fd46c836a06233681665,64dc7c1fd479d511601f21a6,,,,,,,decisionTrl,resources/DR.BMP,resources/DB.BMP,Door3,-0.205555556,0.006481481,1,0,0,1.8946,optionLeft,70,11055,5,30,0,30,0,1,,,,,,,,,,,,,,,,,,,,,,,,,,,,,,,,,,,,,,,
,,,,,,,,2023-08-16_08h35.19.173,HF_wild_card,2022.2.4,Win32,60.02040694,63de5a3da0d14b3d32a134f8,64d2fd46c836a06233681665,64dc7c1fd479d511601f21a6,,,,,,,decisionTrl,resources/DBN.BMP,resources/DY.BMP,Door2,0.315740741,-0.066666667,1,0,0,1.0453,optionRight,40,11095,5,31,0,31,0,1,,,,,,,,,,,,,,,,,,,,,,,,,,,,,,,,,,,,,,,
,,,,,,,,2023-08-16_08h35.19.173,HF_wild_card,2022.2.4,Win32,60.02040694,63de5a3da0d14b3d32a134f8,64d2fd46c836a06233681665,64dc7c1fd479d511601f21a6,,,,,,,decisionTrl,resources/DR.BMP,resources/DB.BMP,Door3,-0.307407407,-0.121296296,1,0,0,2.4779,optionLeft,70,11165,5,32,0,32,0,1,,,,,,,,,,,,,,,,,,,,,,,,,,,,,,,,,,,,,,,
,,,,,,,,2023-08-16_08h35.19.173,HF_wild_card,2022.2.4,Win32,60.02040694,63de5a3da0d14b3d32a134f8,64d2fd46c836a06233681665,64dc7c1fd479d511601f21a6,,,,,,,ctch,resources/DY.BMP,resources/DR.BMP,Door3,0.276851852,-0.028703704,1,0,0,1.178,optionRight,70,11235,5,33,0,33,0,1,,,,,,,,,,,,,,,,,,,,,,,,,,,,,,,,,,,,,,,
,,,,,,,,2023-08-16_08h35.19.173,HF_wild_card,2022.2.4,Win32,60.02040694,63de5a3da0d14b3d32a134f8,64d2fd46c836a06233681665,64dc7c1fd479d511601f21a6,,,,,,,sngl,resources/DBN.BMP,resources/Empty.png,Door1,-0.167592593,-0.033333333,1,0,0,1.3787,optionLeft,30,11265,5,34,0,34,0,1,,,,,,,,,,,,,,,,,,,,,,,,,,,,,,,,,,,,,,,
,,,,,,,,2023-08-16_08h35.19.173,HF_wild_card,2022.2.4,Win32,60.02040694,63de5a3da0d14b3d32a134f8,64d2fd46c836a06233681665,64dc7c1fd479d511601f21a6,,,,,,,ctch,resources/DY.BMP,resources/DR.BMP,Door3,0.280555556,-0.012962963,1,0,0,1.2284,optionRight,70,11335,5,35,0,35,0,1,,,,,,,,,,,,,,,,,,,,,,,,,,,,,,,,,,,,,,,
,,,,,,,,2023-08-16_08h35.19.173,HF_wild_card,2022.2.4,Win32,60.02040694,63de5a3da0d14b3d32a134f8,64d2fd46c836a06233681665,64dc7c1fd479d511601f21a6,,,,,,,decisionTrl,resources/DBN.BMP,resources/DY.BMP,Door2,0.27962963,-0.028703704,1,0,0,1.9618,optionRight,40,11375,5,36,0,36,0,1,,,,,,,,,,,,,,,,,,,,,,,,,,,,,,,,,,,,,,,
,,,,,,,,2023-08-16_08h35.19.173,HF_wild_card,2022.2.4,Win32,60.02040694,63de5a3da0d14b3d32a134f8,64d2fd46c836a06233681665,64dc7c1fd479d511601f21a6,,,,,,,sngl,resources/DG.BMP,resources/Empty.png,WildCard_Ex,-0.232407407,-0.000925926,1,0,0,1.1617,optionLeft,95,11470,5,37,0,37,0,1,,,,,,,,,,,,,,,,,,,,,,,,,,,,,,,,,,,,,,,
,,,,,,,,2023-08-16_08h35.19.173,HF_wild_card,2022.2.4,Win32,60.02040694,63de5a3da0d14b3d32a134f8,64d2fd46c836a06233681665,64dc7c1fd479d511601f21a6,,,,,,,sngl,resources/Empty.png,resources/DR.BMP,Door3,0.378703704,-0.026851852,1,0,0,1.1454,optionRight,70,11540,5,38,0,38,0,1,,,,,,,,,,,,,,,,,,,,,,,,,,,,,,,,,,,,,,,
,,,,,,,,2023-08-16_08h35.19.173,HF_wild_card,2022.2.4,Win32,60.02040694,63de5a3da0d14b3d32a134f8,64d2fd46c836a06233681665,64dc7c1fd479d511601f21a6,,,,,,,decisionTrl,resources/DR.BMP,resources/DB.BMP,Door3,-0.242592593,-0.011111111,1,0,0,1.2604,optionLeft,70,11610,5,39,0,39,0,1,,,,,,,,,,,,,,,,,,,,,,,,,,,,,,,,,,,,,,,
,,,,,,,,2023-08-16_08h35.19.173,HF_wild_card,2022.2.4,Win32,60.02040694,63de5a3da0d14b3d32a134f8,64d2fd46c836a06233681665,64dc7c1fd479d511601f21a6,,,,,,,decisionTrl,resources/DY.BMP,resources/DBN.BMP,Door1,0.247222222,-0.055555556,1,0,0,2.6452,optionRight,30,11640,5,40,0,40,0,1,,,,,,,,,,,,,,,,,,,,,,,,,,,,,,,,,,,,,,,
,,,,,,,,2023-08-16_08h35.19.173,HF_wild_card,2022.2.4,Win32,60.02040694,63de5a3da0d14b3d32a134f8,64d2fd46c836a06233681665,64dc7c1fd479d511601f21a6,,,,,,,ctch,resources/DB.BMP,resources/DBN.BMP,Door4,-0.262037037,-0.002777778,1,0,0,1.0784,optionLeft,80,11720,5,41,0,41,0,1,,,,,,,,,,,,,,,,,,,,,,,,,,,,,,,,,,,,,,,
,,,,,,,,2023-08-16_08h35.19.173,HF_wild_card,2022.2.4,Win32,60.02040694,63de5a3da0d14b3d32a134f8,64d2fd46c836a06233681665,64dc7c1fd479d511601f21a6,,,,,,,decisionTrl,resources/DY.BMP,resources/DG.BMP,WildCard_Ex,0.450925926,-0.037037037,1,0,0,1.961,optionRight,95,11815,5,42,0,42,0,1,,,,,,,,,,,,,,,,,,,,,,,,,,,,,,,,,,,,,,,
,,,,,,,,2023-08-16_08h35.19.173,HF_wild_card,2022.2.4,Win32,60.02040694,63de5a3da0d14b3d32a134f8,64d2fd46c836a06233681665,64dc7c1fd479d511601f21a6,,,,,,,decisionTrl,resources/DG.BMP,resources/DB.BMP,Door4,0.3,-0.022222222,1,0,0,0.7961,optionRight,80,11895,5,43,0,43,0,1,,,,,,,,,,,,,,,,,,,,,,,,,,,,,,,,,,,,,,,
,,,,,,,,2023-08-16_08h35.19.173,HF_wild_card,2022.2.4,Win32,60.02040694,63de5a3da0d14b3d32a134f8,64d2fd46c836a06233681665,64dc7c1fd479d511601f21a6,,,,,,,,,,,,,,,,,,,,,,,,,,4,0,4,0,1,,,,,,,,,,,,,,,,,,,,,,,,,,,,,,,,,,
,,,,,,,,2023-08-16_08h35.19.173,HF_wild_card,2022.2.4,Win32,60.02040694,63de5a3da0d14b3d32a134f8,64d2fd46c836a06233681665,64dc7c1fd479d511601f21a6,,,,,,,decisionTrl,resources/DB.BMP,resources/DR.BMP,Door4,-0.210185185,-0.109259259,1,0,0,1.4626,optionLeft,80,11975,6,0,0,0,0,1,,,,,,,,,,,,,,,,,,,,,,,,,,,,,,,,,,,,,,,
,,,,,,,,2023-08-16_08h35.19.173,HF_wild_card,2022.2.4,Win32,60.02040694,63de5a3da0d14b3d32a134f8,64d2fd46c836a06233681665,64dc7c1fd479d511601f21a6,,,,,,,ctch,resources/DBN.BMP,resources/DB.BMP,Door4,0.281481481,-0.074074074,1,0,0,0.9094,optionRight,60,12035,6,1,0,1,0,1,,,,,,,,,,,,,,,,,,,,,,,,,,,,,,,,,,,,,,,
,,,,,,,,2023-08-16_08h35.19.173,HF_wild_card,2022.2.4,Win32,60.02040694,63de5a3da0d14b3d32a134f8,64d2fd46c836a06233681665,64dc7c1fd479d511601f21a6,,,,,,,decisionTrl,resources/DR.BMP,resources/DG.BMP,WildCard_Ex,0.268518519,0.034259259,1,0,0,6.4778,optionRight,5,12040,6,2,0,2,0,1,,,,,,,,,,,,,,,,,,,,,,,,,,,,,,,,,,,,,,,
,,,,,,,,2023-08-16_08h35.19.173,HF_wild_card,2022.2.4,Win32,60.02040694,63de5a3da0d14b3d32a134f8,64d2fd46c836a06233681665,64dc7c1fd479d511601f21a6,,,,,,,decisionTrl,resources/DG.BMP,resources/DB.BMP,Door4,0.27962963,0.021296296,1,0,0,3.605,optionRight,80,12120,6,3,0,3,0,1,,,,,,,,,,,,,,,,,,,,,,,,,,,,,,,,,,,,,,,
,,,,,,,,2023-08-16_08h35.19.173,HF_wild_card,2022.2.4,Win32,60.02040694,63de5a3da0d14b3d32a134f8,64d2fd46c836a06233681665,64dc7c1fd479d511601f21a6,,,,,,,ctch,resources/DB.BMP,resources/DBN.BMP,Door4,-0.274074074,0.001851852,1,0,0,1.062,optionLeft,60,12180,6,4,0,4,0,1,,,,,,,,,,,,,,,,,,,,,,,,,,,,,,,,,,,,,,,
,,,,,,,,2023-08-16_08h35.19.173,HF_wild_card,2022.2.4,Win32,60.02040694,63de5a3da0d14b3d32a134f8,64d2fd46c836a06233681665,64dc7c1fd479d511601f21a6,,,,,,,sngl,resources/DB.BMP,resources/Empty.png,Door4,-0.29537037,0.002777778,1,0,0,1.2794,optionLeft,60,12240,6,5,0,5,0,1,,,,,,,,,,,,,,,,,,,,,,,,,,,,,,,,,,,,,,,
,,,,,,,,2023-08-16_08h35.19.173,HF_wild_card,2022.2.4,Win32,60.02040694,63de5a3da0d14b3d32a134f8,64d2fd46c836a06233681665,64dc7c1fd479d511601f21a6,,,,,,,decisionTrl,resources/DBN.BMP,resources/DG.BMP,WildCard_Ex,0.27962963,-0.015740741,1,0,0,2.4641,optionRight,95,12335,6,6,0,6,0,1,,,,,,,,,,,,,,,,,,,,,,,,,,,,,,,,,,,,,,,
,,,,,,,,2023-08-16_08h35.19.173,HF_wild_card,2022.2.4,Win32,60.02040694,63de5a3da0d14b3d32a134f8,64d2fd46c836a06233681665,64dc7c1fd479d511601f21a6,,,,,,,decisionTrl,resources/DG.BMP,resources/DR.BMP,Door3,0.319444444,-0.000925926,1,0,0,2.7284,optionRight,70,12405,6,7,0,7,0,1,,,,,,,,,,,,,,,,,,,,,,,,,,,,,,,,,,,,,,,
,,,,,,,,2023-08-16_08h35.19.173,HF_wild_card,2022.2.4,Win32,60.02040694,63de5a3da0d14b3d32a134f8,64d2fd46c836a06233681665,64dc7c1fd479d511601f21a6,,,,,,,decisionTrl,resources/DBN.BMP,resources/DY.BMP,Door1,-0.433333333,0.027777778,1,0,0,3.3441,optionLeft,30,12435,6,8,0,8,0,1,,,,,,,,,,,,,,,,,,,,,,,,,,,,,,,,,,,,,,,
,,,,,,,,2023-08-16_08h35.19.173,HF_wild_card,2022.2.4,Win32,60.02040694,63de5a3da0d14b3d32a134f8,64d2fd46c836a06233681665,64dc7c1fd479d511601f21a6,,,,,,,sngl,resources/Empty.png,resources/DG.BMP,WildCard_Ex,0.3,-0.027777778,1,0,0,1.1099,optionRight,95,12530,6,9,0,9,0,1,,,,,,,,,,,,,,,,,,,,,,,,,,,,,,,,,,,,,,,
,,,,,,,,2023-08-16_08h35.19.173,HF_wild_card,2022.2.4,Win32,60.02040694,63de5a3da0d14b3d32a134f8,64d2fd46c836a06233681665,64dc7c1fd479d511601f21a6,,,,,,,sngl,resources/Empty.png,resources/DB.BMP,Door4,0.283333333,-0.034259259,1,0,0,2.3787,optionRight,80,12610,6,10,0,10,0,1,,,,,,,,,,,,,,,,,,,,,,,,,,,,,,,,,,,,,,,
,,,,,,,,2023-08-16_08h35.19.173,HF_wild_card,2022.2.4,Win32,60.02040694,63de5a3da0d14b3d32a134f8,64d2fd46c836a06233681665,64dc7c1fd479d511601f21a6,,,,,,,sngl,resources/Empty.png,resources/DR.BMP,Door3,0.291666667,-0.025,1,0,0,0.9786,optionRight,70,12680,6,11,0,11,0,1,,,,,,,,,,,,,,,,,,,,,,,,,,,,,,,,,,,,,,,
,,,,,,,,2023-08-16_08h35.19.173,HF_wild_card,2022.2.4,Win32,60.02040694,63de5a3da0d14b3d32a134f8,64d2fd46c836a06233681665,64dc7c1fd479d511601f21a6,,,,,,,ctch,resources/DY.BMP,resources/DR.BMP,Door3,0.289814815,-0.014814815,1,0,0,0.9113,optionRight,70,12750,6,12,0,12,0,1,,,,,,,,,,,,,,,,,,,,,,,,,,,,,,,,,,,,,,,
,,,,,,,,2023-08-16_08h35.19.173,HF_wild_card,2022.2.4,Win32,60.02040694,63de5a3da0d14b3d32a134f8,64d2fd46c836a06233681665,64dc7c1fd479d511601f21a6,,,,,,,sngl,resources/Empty.png,resources/DG.BMP,WildCard_Ex,0.365740741,-0.015740741,1,0,0,0.8282,optionRight,5,12755,6,13,0,13,0,1,,,,,,,,,,,,,,,,,,,,,,,,,,,,,,,,,,,,,,,
,,,,,,,,2023-08-16_08h35.19.173,HF_wild_card,2022.2.4,Win32,60.02040694,63de5a3da0d14b3d32a134f8,64d2fd46c836a06233681665,64dc7c1fd479d511601f21a6,,,,,,,decisionTrl,resources/DR.BMP,resources/DB.BMP,Door4,0.231481481,-0.000925926,1,0,0,4.8127,optionRight,80,12835,6,14,0,14,0,1,,,,,,,,,,,,,,,,,,,,,,,,,,,,,,,,,,,,,,,
,,,,,,,,2023-08-16_08h35.19.173,HF_wild_card,2022.2.4,Win32,60.02040694,63de5a3da0d14b3d32a134f8,64d2fd46c836a06233681665,64dc7c1fd479d511601f21a6,,,,,,,sngl,resources/DR.BMP,resources/Empty.png,Door3,-0.281481481,-0.003703704,1,0,0,0.845,optionLeft,70,12905,6,15,0,15,0,1,,,,,,,,,,,,,,,,,,,,,,,,,,,,,,,,,,,,,,,
,,,,,,,,2023-08-16_08h35.19.173,HF_wild_card,2022.2.4,Win32,60.02040694,63de5a3da0d14b3d32a134f8,64d2fd46c836a06233681665,64dc7c1fd479d511601f21a6,,,,,,,decisionTrl,resources/DBN.BMP,resources/DY.BMP,Door2,0.287037037,-0.008333333,1,0,0,2.6618,optionRight,40,12945,6,16,0,16,0,1,,,,,,,,,,,,,,,,,,,,,,,,,,,,,,,,,,,,,,,
,,,,,,,,2023-08-16_08h35.19.173,HF_wild_card,2022.2.4,Win32,60.02040694,63de5a3da0d14b3d32a134f8,64d2fd46c836a06233681665,64dc7c1fd479d511601f21a6,,,,,,,decisionTrl,resources/DY.BMP,resources/DBN.BMP,Door2,-0.189814815,-0.000925926,1,0,0,1.5618,optionLeft,40,12985,6,17,0,17,0,1,,,,,,,,,,,,,,,,,,,,,,,,,,,,,,,,,,,,,,,
,,,,,,,,2023-08-16_08h35.19.173,HF_wild_card,2022.2.4,Win32,60.02040694,63de5a3da0d14b3d32a134f8,64d2fd46c836a06233681665,64dc7c1fd479d511601f21a6,,,,,,,sngl,resources/Empty.png,resources/DBN.BMP,Door1,0.353703704,-0.022222222,1,0,0,1.0289,optionRight,30,13015,6,18,0,18,0,1,,,,,,,,,,,,,,,,,,,,,,,,,,,,,,,,,,,,,,,
,,,,,,,,2023-08-16_08h35.19.173,HF_wild_card,2022.2.4,Win32,60.02040694,63de5a3da0d14b3d32a134f8,64d2fd46c836a06233681665,64dc7c1fd479d511601f21a6,,,,,,,ctch,resources/DY.BMP,resources/DR.BMP,Door3,0.308333333,-0.006481481,1,0,0,2.0954,optionRight,70,13085,6,19,0,19,0,1,,,,,,,,,,,,,,,,,,,,,,,,,,,,,,,,,,,,,,,
,,,,,,,,2023-08-16_08h35.19.173,HF_wild_card,2022.2.4,Win32,60.02040694,63de5a3da0d14b3d32a134f8,64d2fd46c836a06233681665,64dc7c1fd479d511601f21a6,,,,,,,decisionTrl,resources/DBN.BMP,resources/DY.BMP,Door2,0.307407407,0.001851852,1,0,0,12.9269,optionRight,20,13105,6,20,0,20,0,1,,,,,,,,,,,,,,,,,,,,,,,,,,,,,,,,,,,,,,,
,,,,,,,,2023-08-16_08h35.19.173,HF_wild_card,2022.2.4,Win32,60.02040694,63de5a3da0d14b3d32a134f8,64d2fd46c836a06233681665,64dc7c1fd479d511601f21a6,,,,,,,decisionTrl,resources/DY.BMP,resources/DBN.BMP,Door1,0.269444444,-0.014814815,1,0,0,0.695,optionRight,30,13135,6,21,0,21,0,1,,,,,,,,,,,,,,,,,,,,,,,,,,,,,,,,,,,,,,,
,,,,,,,,2023-08-16_08h35.19.173,HF_wild_card,2022.2.4,Win32,60.02040694,63de5a3da0d14b3d32a134f8,64d2fd46c836a06233681665,64dc7c1fd479d511601f21a6,,,,,,,sngl,resources/DG.BMP,resources/Empty.png,WildCard_Ex,-0.268518519,-0.000925926,1,0,0,0.9453,optionLeft,95,13230,6,22,0,22,0,1,,,,,,,,,,,,,,,,,,,,,,,,,,,,,,,,,,,,,,,
,,,,,,,,2023-08-16_08h35.19.173,HF_wild_card,2022.2.4,Win32,60.02040694,63de5a3da0d14b3d32a134f8,64d2fd46c836a06233681665,64dc7c1fd479d511601f21a6,,,,,,,decisionTrl,resources/DR.BMP,resources/DB.BMP,Door4,0.230555556,-0.022222222,1,0,0,2.7464,optionRight,60,13290,6,23,0,23,0,1,,,,,,,,,,,,,,,,,,,,,,,,,,,,,,,,,,,,,,,
,,,,,,,,2023-08-16_08h35.19.173,HF_wild_card,2022.2.4,Win32,60.02040694,63de5a3da0d14b3d32a134f8,64d2fd46c836a06233681665,64dc7c1fd479d511601f21a6,,,,,,,decisionTrl,resources/DBN.BMP,resources/DY.BMP,Door1,-0.269444444,0.007407407,1,0,0,3.8787,optionLeft,30,13320,6,24,0,24,0,1,,,,,,,,,,,,,,,,,,,,,,,,,,,,,,,,,,,,,,,
,,,,,,,,2023-08-16_08h35.19.173,HF_wild_card,2022.2.4,Win32,60.02040694,63de5a3da0d14b3d32a134f8,64d2fd46c836a06233681665,64dc7c1fd479d511601f21a6,,,,,,,decisionTrl,resources/DB.BMP,resources/DR.BMP,Door3,0.263888889,-0.009259259,1,0,0,3.5818,optionRight,70,13390,6,25,0,25,0,1,,,,,,,,,,,,,,,,,,,,,,,,,,,,,,,,,,,,,,,
,,,,,,,,2023-08-16_08h35.19.173,HF_wild_card,2022.2.4,Win32,60.02040694,63de5a3da0d14b3d32a134f8,64d2fd46c836a06233681665,64dc7c1fd479d511601f21a6,,,,,,,ctch,resources/DR.BMP,resources/DY.BMP,Door3,-0.265740741,0.011111111,1,0,0,0.9776,optionLeft,70,13460,6,26,0,26,0,1,,,,,,,,,,,,,,,,,,,,,,,,,,,,,,,,,,,,,,,
,,,,,,,,2023-08-16_08h35.19.173,HF_wild_card,2022.2.4,Win32,60.02040694,63de5a3da0d14b3d32a134f8,64d2fd46c836a06233681665,64dc7c1fd479d511601f21a6,,,,,,,ctch,resources/DBN.BMP,resources/DB.BMP,Door4,0.239814815,-0.011111111,1,0,0,0.8947,optionRight,80,13540,6,27,0,27,0,1,,,,,,,,,,,,,,,,,,,,,,,,,,,,,,,,,,,,,,,
,,,,,,,,2023-08-16_08h35.19.173,HF_wild_card,2022.2.4,Win32,60.02040694,63de5a3da0d14b3d32a134f8,64d2fd46c836a06233681665,64dc7c1fd479d511601f21a6,,,,,,,decisionTrl,resources/DG.BMP,resources/DY.BMP,Door2,0.300925926,-0.012037037,1,0,0,3.195,optionRight,40,13580,6,28,0,28,0,1,,,,,,,,,,,,,,,,,,,,,,,,,,,,,,,,,,,,,,,
,,,,,,,,2023-08-16_08h35.19.173,HF_wild_card,2022.2.4,Win32,60.02040694,63de5a3da0d14b3d32a134f8,64d2fd46c836a06233681665,64dc7c1fd479d511601f21a6,,,,,,,decisionTrl,resources/DB.BMP,resources/DG.BMP,Door4,-0.314814815,0.007407407,1,0,0,2.595,optionLeft,60,13640,6,29,0,29,0,1,,,,,,,,,,,,,,,,,,,,,,,,,,,,,,,,,,,,,,,
,,,,,,,,2023-08-16_08h35.19.173,HF_wild_card,2022.2.4,Win32,60.02040694,63de5a3da0d14b3d32a134f8,64d2fd46c836a06233681665,64dc7c1fd479d511601f21a6,,,,,,,decisionTrl,resources/DB.BMP,resources/DR.BMP,Door3,0.262962963,-0.003703704,1,0,0,3.4305,optionRight,70,13710,6,30,0,30,0,1,,,,,,,,,,,,,,,,,,,,,,,,,,,,,,,,,,,,,,,
,,,,,,,,2023-08-16_08h35.19.173,HF_wild_card,2022.2.4,Win32,60.02040694,63de5a3da0d14b3d32a134f8,64d2fd46c836a06233681665,64dc7c1fd479d511601f21a6,,,,,,,sngl,resources/Empty.png,resources/DY.BMP,Door2,0.397222222,-0.003703704,1,0,0,1.1121,optionRight,40,13750,6,31,0,31,0,1,,,,,,,,,,,,,,,,,,,,,,,,,,,,,,,,,,,,,,,
,,,,,,,,2023-08-16_08h35.19.173,HF_wild_card,2022.2.4,Win32,60.02040694,63de5a3da0d14b3d32a134f8,64d2fd46c836a06233681665,64dc7c1fd479d511601f21a6,,,,,,,decisionTrl,resources/DG.BMP,resources/DBN.BMP,WildCard_Ex,-0.225925926,0.009259259,1,0,0,4.8454,optionLeft,5,13755,6,32,0,32,0,1,,,,,,,,,,,,,,,,,,,,,,,,,,,,,,,,,,,,,,,
,,,,,,,,2023-08-16_08h35.19.173,HF_wild_card,2022.2.4,Win32,60.02040694,63de5a3da0d14b3d32a134f8,64d2fd46c836a06233681665,64dc7c1fd479d511601f21a6,,,,,,,decisionTrl,resources/DR.BMP,resources/DB.BMP,Door4,0.272222222,-0.014814815,1,0,0,3.4114,optionRight,80,13835,6,33,0,33,0,1,,,,,,,,,,,,,,,,,,,,,,,,,,,,,,,,,,,,,,,
,,,,,,,,2023-08-16_08h35.19.173,HF_wild_card,2022.2.4,Win32,60.02040694,63de5a3da0d14b3d32a134f8,64d2fd46c836a06233681665,64dc7c1fd479d511601f21a6,,,,,,,decisionTrl,resources/DB.BMP,resources/DR.BMP,Door4,-0.261111111,-0.032407407,1,0,0,2.3445,optionLeft,80,13915,6,34,0,34,0,1,,,,,,,,,,,,,,,,,,,,,,,,,,,,,,,,,,,,,,,
,,,,,,,,2023-08-16_08h35.19.173,HF_wild_card,2022.2.4,Win32,60.02040694,63de5a3da0d14b3d32a134f8,64d2fd46c836a06233681665,64dc7c1fd479d511601f21a6,,,,,,,decisionTrl,resources/DY.BMP,resources/DBN.BMP,Door1,0.394444444,-0.023148148,1,0,0,3.6276,optionRight,30,13945,6,35,0,35,0,1,,,,,,,,,,,,,,,,,,,,,,,,,,,,,,,,,,,,,,,
,,,,,,,,2023-08-16_08h35.19.173,HF_wild_card,2022.2.4,Win32,60.02040694,63de5a3da0d14b3d32a134f8,64d2fd46c836a06233681665,64dc7c1fd479d511601f21a6,,,,,,,sngl,resources/DY.BMP,resources/Empty.png,Door2,-0.259259259,-0.012962963,1,0,0,1.0954,optionLeft,20,13965,6,36,0,36,0,1,,,,,,,,,,,,,,,,,,,,,,,,,,,,,,,,,,,,,,,
,,,,,,,,2023-08-16_08h35.19.173,HF_wild_card,2022.2.4,Win32,60.02040694,63de5a3da0d14b3d32a134f8,64d2fd46c836a06233681665,64dc7c1fd479d511601f21a6,,,,,,,decisionTrl,resources/DR.BMP,resources/DB.BMP,Door4,0.336111111,-0.030555556,1,0,0,2.2111,optionRight,80,14045,6,37,0,37,0,1,,,,,,,,,,,,,,,,,,,,,,,,,,,,,,,,,,,,,,,
,,,,,,,,2023-08-16_08h35.19.173,HF_wild_card,2022.2.4,Win32,60.02040694,63de5a3da0d14b3d32a134f8,64d2fd46c836a06233681665,64dc7c1fd479d511601f21a6,,,,,,,sngl,resources/DG.BMP,resources/Empty.png,WildCard_Ex,-0.283333333,-0.033333333,1,0,0,0.8951,optionLeft,5,14050,6,38,0,38,0,1,,,,,,,,,,,,,,,,,,,,,,,,,,,,,,,,,,,,,,,
,,,,,,,,2023-08-16_08h35.19.173,HF_wild_card,2022.2.4,Win32,60.02040694,63de5a3da0d14b3d32a134f8,64d2fd46c836a06233681665,64dc7c1fd479d511601f21a6,,,,,,,decisionTrl,resources/DY.BMP,resources/DBN.BMP,Door1,0.364814815,0.022222222,1,0,0,5.3281,optionRight,30,14080,6,39,0,39,0,1,,,,,,,,,,,,,,,,,,,,,,,,,,,,,,,,,,,,,,,
,,,,,,,,2023-08-16_08h35.19.173,HF_wild_card,2022.2.4,Win32,60.02040694,63de5a3da0d14b3d32a134f8,64d2fd46c836a06233681665,64dc7c1fd479d511601f21a6,,,,,,,decisionTrl,resources/DY.BMP,resources/DG.BMP,WildCard_Ex,0.25462963,-0.049074074,1,0,0,3.8955,optionRight,5,14085,6,40,0,40,0,1,,,,,,,,,,,,,,,,,,,,,,,,,,,,,,,,,,,,,,,
,,,,,,,,2023-08-16_08h35.19.173,HF_wild_card,2022.2.4,Win32,60.02040694,63de5a3da0d14b3d32a134f8,64d2fd46c836a06233681665,64dc7c1fd479d511601f21a6,,,,,,,ctch,resources/DR.BMP,resources/DY.BMP,Door3,-0.280555556,-0.009259259,1,0,0,1.4281,optionLeft,70,14155,6,41,0,41,0,1,,,,,,,,,,,,,,,,,,,,,,,,,,,,,,,,,,,,,,,
,,,,,,,,2023-08-16_08h35.19.173,HF_wild_card,2022.2.4,Win32,60.02040694,63de5a3da0d14b3d32a134f8,64d2fd46c836a06233681665,64dc7c1fd479d511601f21a6,,,,,,,sngl,resources/DBN.BMP,resources/Empty.png,Door1,-0.200925926,-0.013888889,1,0,0,0.9453,optionLeft,30,14185,6,42,0,42,0,1,,,,,,,,,,,,,,,,,,,,,,,,,,,,,,,,,,,,,,,
,,,,,,,,2023-08-16_08h35.19.173,HF_wild_card,2022.2.4,Win32,60.02040694,63de5a3da0d14b3d32a134f8,64d2fd46c836a06233681665,64dc7c1fd479d511601f21a6,,,,,,,ctch,resources/DB.BMP,resources/DBN.BMP,Door4,-0.22962963,-0.031481481,1,0,0,1.1618,optionLeft,80,14265,6,43,0,43,0,1,,,,,,,,,,,,,,,,,,,,,,,,,,,,,,,,,,,,,,,
,,,,,,,,2023-08-16_08h35.19.173,HF_wild_card,2022.2.4,Win32,60.02040694,63de5a3da0d14b3d32a134f8,64d2fd46c836a06233681665,64dc7c1fd479d511601f21a6,,,,,,,,,,,,,,,,,,,,,,,,,,5,0,5,0,1,,,,,,,,,,,,,,,,,,,,,,,,,,,,,,,,,,
,,,,,,,,2023-08-16_08h35.19.173,HF_wild_card,2022.2.4,Win32,60.02040694,63de5a3da0d14b3d32a134f8,64d2fd46c836a06233681665,64dc7c1fd479d511601f21a6,,,,,,,decisionTrl,resources/DBN.BMP,resources/DY.BMP,Door1,-0.202777778,-0.013888889,1,0,0,5.2855,optionLeft,30,14295,7,0,0,0,0,1,,,,,,,,,,,,,,,,,,,,,,,,,,,,,,,,,,,,,,,
,,,,,,,,2023-08-16_08h35.19.173,HF_wild_card,2022.2.4,Win32,60.02040694,63de5a3da0d14b3d32a134f8,64d2fd46c836a06233681665,64dc7c1fd479d511601f21a6,,,,,,,decisionTrl,resources/DY.BMP,resources/DBN.BMP,Door1,0.271296296,0.010185185,1,0,0,3.9652,optionRight,30,14325,7,1,0,1,0,1,,,,,,,,,,,,,,,,,,,,,,,,,,,,,,,,,,,,,,,
,,,,,,,,2023-08-16_08h35.19.173,HF_wild_card,2022.2.4,Win32,60.02040694,63de5a3da0d14b3d32a134f8,64d2fd46c836a06233681665,64dc7c1fd479d511601f21a6,,,,,,,decisionTrl,resources/DBN.BMP,resources/DY.BMP,Door1,-0.225,-0.006481481,1,0,0,2.5142,optionLeft,30,14355,7,2,0,2,0,1,,,,,,,,,,,,,,,,,,,,,,,,,,,,,,,,,,,,,,,
,,,,,,,,2023-08-16_08h35.19.173,HF_wild_card,2022.2.4,Win32,60.02040694,63de5a3da0d14b3d32a134f8,64d2fd46c836a06233681665,64dc7c1fd479d511601f21a6,,,,,,,decisionTrl,resources/DR.BMP,resources/DB.BMP,Door4,0.286111111,-0.012037037,1,0,0,1.3636,optionRight,60,14415,7,3,0,3,0,1,,,,,,,,,,,,,,,,,,,,,,,,,,,,,,,,,,,,,,,
,,,,,,,,2023-08-16_08h35.19.173,HF_wild_card,2022.2.4,Win32,60.02040694,63de5a3da0d14b3d32a134f8,64d2fd46c836a06233681665,64dc7c1fd479d511601f21a6,,,,,,,ctch,resources/DB.BMP,resources/DBN.BMP,Door4,-0.287037037,0.012037037,1,0,0,1.1288,optionLeft,60,14475,7,4,0,4,0,1,,,,,,,,,,,,,,,,,,,,,,,,,,,,,,,,,,,,,,,
,,,,,,,,2023-08-16_08h35.19.173,HF_wild_card,2022.2.4,Win32,60.02040694,63de5a3da0d14b3d32a134f8,64d2fd46c836a06233681665,64dc7c1fd479d511601f21a6,,,,,,,decisionTrl,resources/DBN.BMP,resources/DY.BMP,Door1,-0.224074074,0.006481481,1,0,0,5.379,optionLeft,30,14505,7,5,0,5,0,1,,,,,,,,,,,,,,,,,,,,,,,,,,,,,,,,,,,,,,,
,,,,,,,,2023-08-16_08h35.19.173,HF_wild_card,2022.2.4,Win32,60.02040694,63de5a3da0d14b3d32a134f8,64d2fd46c836a06233681665,64dc7c1fd479d511601f21a6,,,,,,,ctch,resources/DR.BMP,resources/DY.BMP,Door3,-0.257407407,-0.009259259,1,0,0,1.3808,optionLeft,70,14575,7,6,0,6,0,1,,,,,,,,,,,,,,,,,,,,,,,,,,,,,,,,,,,,,,,
,,,,,,,,2023-08-16_08h35.19.173,HF_wild_card,2022.2.4,Win32,60.02040694,63de5a3da0d14b3d32a134f8,64d2fd46c836a06233681665,64dc7c1fd479d511601f21a6,,,,,,,decisionTrl,resources/DB.BMP,resources/DR.BMP,Door4,-0.27962963,0.001851852,1,0,0,2.0139,optionLeft,60,14635,7,7,0,7,0,1,,,,,,,,,,,,,,,,,,,,,,,,,,,,,,,,,,,,,,,
,,,,,,,,2023-08-16_08h35.19.173,HF_wild_card,2022.2.4,Win32,60.02040694,63de5a3da0d14b3d32a134f8,64d2fd46c836a06233681665,64dc7c1fd479d511601f21a6,,,,,,,decisionTrl,resources/DR.BMP,resources/DB.BMP,Door4,0.284259259,-0.007407407,1,0,0,1.4308,optionRight,60,14695,7,8,0,8,0,1,,,,,,,,,,,,,,,,,,,,,,,,,,,,,,,,,,,,,,,
,,,,,,,,2023-08-16_08h35.19.173,HF_wild_card,2022.2.4,Win32,60.02040694,63de5a3da0d14b3d32a134f8,64d2fd46c836a06233681665,64dc7c1fd479d511601f21a6,,,,,,,ctch,resources/DY.BMP,resources/DR.BMP,Door3,0.378703704,-0.002777778,1,0,0,1.2309,optionRight,70,14765,7,9,0,9,0,1,,,,,,,,,,,,,,,,,,,,,,,,,,,,,,,,,,,,,,,
,,,,,,,,2023-08-16_08h35.19.173,HF_wild_card,2022.2.4,Win32,60.02040694,63de5a3da0d14b3d32a134f8,64d2fd46c836a06233681665,64dc7c1fd479d511601f21a6,,,,,,,decisionTrl,resources/DR.BMP,resources/DB.BMP,Door4,0.269444444,0.009259259,1,0,0,1.48,optionRight,60,14825,7,10,0,10,0,1,,,,,,,,,,,,,,,,,,,,,,,,,,,,,,,,,,,,,,,
,,,,,,,,2023-08-16_08h35.19.173,HF_wild_card,2022.2.4,Win32,60.02040694,63de5a3da0d14b3d32a134f8,64d2fd46c836a06233681665,64dc7c1fd479d511601f21a6,,,,,,,ctch,resources/DBN.BMP,resources/DB.BMP,Door4,0.263888889,0.015740741,1,0,0,2.0636,optionRight,80,14905,7,11,0,11,0,1,,,,,,,,,,,,,,,,,,,,,,,,,,,,,,,,,,,,,,,
,,,,,,,,2023-08-16_08h35.19.173,HF_wild_card,2022.2.4,Win32,60.02040694,63de5a3da0d14b3d32a134f8,64d2fd46c836a06233681665,64dc7c1fd479d511601f21a6,,,,,,,decisionTrl,resources/DB.BMP,resources/DR.BMP,Door4,-0.273148148,0.007407407,1,0,0,5.1973,optionLeft,80,14985,7,12,0,12,0,1,,,,,,,,,,,,,,,,,,,,,,,,,,,,,,,,,,,,,,,
,,,,,,,,2023-08-16_08h35.19.173,HF_wild_card,2022.2.4,Win32,60.02040694,63de5a3da0d14b3d32a134f8,64d2fd46c836a06233681665,64dc7c1fd479d511601f21a6,,,,,,,decisionTrl,resources/DR.BMP,resources/DB.BMP,Door4,0.303703704,0.007407407,1,0,0,1.1163,optionRight,80,15065,7,13,0,13,0,1,,,,,,,,,,,,,,,,,,,,,,,,,,,,,,,,,,,,,,,
,,,,,,,,2023-08-16_08h35.19.173,HF_wild_card,2022.2.4,Win32,60.02040694,63de5a3da0d14b3d32a134f8,64d2fd46c836a06233681665,64dc7c1fd479d511601f21a6,,,,,,,ctch,resources/DB.BMP,resources/DBN.BMP,Door4,-0.292592593,0.014814815,1,0,0,0.9638,optionLeft,60,15125,7,14,0,14,0,1,,,,,,,,,,,,,,,,,,,,,,,,,,,,,,,,,,,,,,,
,,,,,,,,2023-08-16_08h35.19.173,HF_wild_card,2022.2.4,Win32,60.02040694,63de5a3da0d14b3d32a134f8,64d2fd46c836a06233681665,64dc7c1fd479d511601f21a6,,,,,,,decisionTrl,resources/DY.BMP,resources/DBN.BMP,Door1,0.342592593,0.035185185,1,0,0,1.7963,optionRight,30,15155,7,15,0,15,0,1,,,,,,,,,,,,,,,,,,,,,,,,,,,,,,,,,,,,,,,
,,,,,,,,2023-08-16_08h35.19.173,HF_wild_card,2022.2.4,Win32,60.02040694,63de5a3da0d14b3d32a134f8,64d2fd46c836a06233681665,64dc7c1fd479d511601f21a6,,,,,,,ctch,resources/DB.BMP,resources/DBN.BMP,Door4,-0.290740741,0.025925926,1,0,0,1.5781,optionLeft,80,15235,7,16,0,16,0,1,,,,,,,,,,,,,,,,,,,,,,,,,,,,,,,,,,,,,,,
,,,,,,,,2023-08-16_08h35.19.173,HF_wild_card,2022.2.4,Win32,60.02040694,63de5a3da0d14b3d32a134f8,64d2fd46c836a06233681665,64dc7c1fd479d511601f21a6,,,,,,,decisionTrl,resources/DBN.BMP,resources/DY.BMP,Door1,-0.274074074,0.025925926,1,0,0,1.8638,optionLeft,30,15265,7,17,0,17,0,1,,,,,,,,,,,,,,,,,,,,,,,,,,,,,,,,,,,,,,,
,,,,,,,,2023-08-16_08h35.19.173,HF_wild_card,2022.2.4,Win32,60.02040694,63de5a3da0d14b3d32a134f8,64d2fd46c836a06233681665,64dc7c1fd479d511601f21a6,,,,,,,decisionTrl,resources/DR.BMP,resources/DB.BMP,Door4,0.317592593,0.011111111,1,0,0,1.1975,optionRight,60,15325,7,18,0,18,0,1,,,,,,,,,,,,,,,,,,,,,,,,,,,,,,,,,,,,,,,
,,,,,,,,2023-08-16_08h35.19.173,HF_wild_card,2022.2.4,Win32,60.02040694,63de5a3da0d14b3d32a134f8,64d2fd46c836a06233681665,64dc7c1fd479d511601f21a6,,,,,,,decisionTrl,resources/DR.BMP,resources/DB.BMP,Door4,0.267592593,0.001851852,1,0,0,1.2811,optionRight,60,15385,7,19,0,19,0,1,,,,,,,,,,,,,,,,,,,,,,,,,,,,,,,,,,,,,,,
,,,,,,,,2023-08-16_08h35.19.173,HF_wild_card,2022.2.4,Win32,60.02040694,63de5a3da0d14b3d32a134f8,64d2fd46c836a06233681665,64dc7c1fd479d511601f21a6,,,,,,,decisionTrl,resources/DB.BMP,resources/DR.BMP,Door4,-0.268518519,0.013888889,1,0,0,1.1473,optionLeft,60,15445,7,20,0,20,0,1,,,,,,,,,,,,,,,,,,,,,,,,,,,,,,,,,,,,,,,
,,,,,,,,2023-08-16_08h35.19.173,HF_wild_card,2022.2.4,Win32,60.02040694,63de5a3da0d14b3d32a134f8,64d2fd46c836a06233681665,64dc7c1fd479d511601f21a6,,,,,,,decisionTrl,resources/DY.BMP,resources/DBN.BMP,Door1,0.317592593,-0.00462963,1,0,0,1.5806,optionRight,30,15475,7,21,0,21,0,1,,,,,,,,,,,,,,,,,,,,,,,,,,,,,,,,,,,,,,,
,,,,,,,,2023-08-16_08h35.19.173,HF_wild_card,2022.2.4,Win32,60.02040694,63de5a3da0d14b3d32a134f8,64d2fd46c836a06233681665,64dc7c1fd479d511601f21a6,,,,,,,ctch,resources/DBN.BMP,resources/DB.BMP,Door4,0.283333333,-0.002777778,1,0,0,1.0971,optionRight,80,15555,7,22,0,22,0,1,,,,,,,,,,,,,,,,,,,,,,,,,,,,,,,,,,,,,,,
,,,,,,,,2023-08-16_08h35.19.173,HF_wild_card,2022.2.4,Win32,60.02040694,63de5a3da0d14b3d32a134f8,64d2fd46c836a06233681665,64dc7c1fd479d511601f21a6,,,,,,,decisionTrl,resources/DY.BMP,resources/DBN.BMP,Door1,0.503703704,0.085185185,1,0,0,1.799,optionRight,30,15585,7,23,0,23,0,1,,,,,,,,,,,,,,,,,,,,,,,,,,,,,,,,,,,,,,,
,,,,,,,,2023-08-16_08h35.19.173,HF_wild_card,2022.2.4,Win32,60.02040694,63de5a3da0d14b3d32a134f8,64d2fd46c836a06233681665,64dc7c1fd479d511601f21a6,,,,,,,decisionTrl,resources/DY.BMP,resources/DBN.BMP,Door1,0.349074074,0.037037037,1,0,0,1.2821,optionRight,30,15615,7,24,0,24,0,1,,,,,,,,,,,,,,,,,,,,,,,,,,,,,,,,,,,,,,,
,,,,,,,,2023-08-16_08h35.19.173,HF_wild_card,2022.2.4,Win32,60.02040694,63de5a3da0d14b3d32a134f8,64d2fd46c836a06233681665,64dc7c1fd479d511601f21a6,,,,,,,ctch,resources/DY.BMP,resources/DR.BMP,Door3,0.281481481,-0.000925926,1,0,0,1.0475,optionRight,70,15685,7,25,0,25,0,1,,,,,,,,,,,,,,,,,,,,,,,,,,,,,,,,,,,,,,,
,,,,,,,,2023-08-16_08h35.19.173,HF_wild_card,2022.2.4,Win32,60.02040694,63de5a3da0d14b3d32a134f8,64d2fd46c836a06233681665,64dc7c1fd479d511601f21a6,,,,,,,ctch,resources/DR.BMP,resources/DY.BMP,Door3,-0.277777778,0.012962963,1,0,0,1.4468,optionLeft,70,15755,7,26,0,26,0,1,,,,,,,,,,,,,,,,,,,,,,,,,,,,,,,,,,,,,,,
,,,,,,,,2023-08-16_08h35.19.173,HF_wild_card,2022.2.4,Win32,60.02040694,63de5a3da0d14b3d32a134f8,64d2fd46c836a06233681665,64dc7c1fd479d511601f21a6,,,,,,,decisionTrl,resources/DB.BMP,resources/DR.BMP,Door4,-0.277777778,0.001851852,1,0,0,1.3797,optionLeft,80,15835,7,27,0,27,0,1,,,,,,,,,,,,,,,,,,,,,,,,,,,,,,,,,,,,,,,
,,,,,,,,2023-08-16_08h35.19.173,HF_wild_card,2022.2.4,Win32,60.02040694,63de5a3da0d14b3d32a134f8,64d2fd46c836a06233681665,64dc7c1fd479d511601f21a6,,,,,,,ctch,resources/DBN.BMP,resources/DB.BMP,Door4,0.330555556,-0.026851852,1,0,0,1.0627,optionRight,80,15915,7,28,0,28,0,1,,,,,,,,,,,,,,,,,,,,,,,,,,,,,,,,,,,,,,,
,,,,,,,,2023-08-16_08h35.19.173,HF_wild_card,2022.2.4,Win32,60.02040694,63de5a3da0d14b3d32a134f8,64d2fd46c836a06233681665,64dc7c1fd479d511601f21a6,,,,,,,decisionTrl,resources/DB.BMP,resources/DR.BMP,Door4,-0.233333333,0.002777778,1,0,0,1.1471,optionLeft,80,15995,7,29,0,29,0,1,,,,,,,,,,,,,,,,,,,,,,,,,,,,,,,,,,,,,,,
,,,,,,,,2023-08-16_08h35.19.173,HF_wild_card,2022.2.4,Win32,60.02040694,63de5a3da0d14b3d32a134f8,64d2fd46c836a06233681665,64dc7c1fd479d511601f21a6,,,,,,,decisionTrl,resources/DBN.BMP,resources/DY.BMP,Door1,-0.246296296,-0.006481481,1,0,0,1.2975,optionLeft,30,16025,7,30,0,30,0,1,,,,,,,,,,,,,,,,,,,,,,,,,,,,,,,,,,,,,,,
,,,,,,,,2023-08-16_08h35.19.173,HF_wild_card,2022.2.4,Win32,60.02040694,63de5a3da0d14b3d32a134f8,64d2fd46c836a06233681665,64dc7c1fd479d511601f21a6,,,,,,,decisionTrl,resources/DY.BMP,resources/DBN.BMP,Door1,0.347222222,-0.016666667,1,0,0,1.1135,optionRight,30,16055,7,31,0,31,0,1,,,,,,,,,,,,,,,,,,,,,,,,,,,,,,,,,,,,,,,
,,,,,,,,2023-08-16_08h35.19.173,HF_wild_card,2022.2.4,Win32,60.02040694,63de5a3da0d14b3d32a134f8,64d2fd46c836a06233681665,64dc7c1fd479d511601f21a6,,,,,,,ctch,resources/DR.BMP,resources/DY.BMP,Door3,-0.299074074,-0.016666667,1,0,0,1.1306,optionLeft,70,16125,7,32,0,32,0,1,,,,,,,,,,,,,,,,,,,,,,,,,,,,,,,,,,,,,,,
,,,,,,,,2023-08-16_08h35.19.173,HF_wild_card,2022.2.4,Win32,60.02040694,63de5a3da0d14b3d32a134f8,64d2fd46c836a06233681665,64dc7c1fd479d511601f21a6,,,,,,,ctch,resources/DY.BMP,resources/DR.BMP,Door3,0.286111111,-0.046296296,1,0,0,1.1639,optionRight,70,16195,7,33,0,33,0,1,,,,,,,,,,,,,,,,,,,,,,,,,,,,,,,,,,,,,,,
,,,,,,,,2023-08-16_08h35.19.173,HF_wild_card,2022.2.4,Win32,60.02040694,63de5a3da0d14b3d32a134f8,64d2fd46c836a06233681665,64dc7c1fd479d511601f21a6,,,,,,,decisionTrl,resources/DBN.BMP,resources/DY.BMP,Door1,-0.268518519,-0.012037037,1,0,0,1.1474,optionLeft,30,16225,7,34,0,34,0,1,,,,,,,,,,,,,,,,,,,,,,,,,,,,,,,,,,,,,,,
,,,,,,,,2023-08-16_08h35.19.173,HF_wild_card,2022.2.4,Win32,60.02040694,63de5a3da0d14b3d32a134f8,64d2fd46c836a06233681665,64dc7c1fd479d511601f21a6,,,,,,,decisionTrl,resources/DB.BMP,resources/DR.BMP,Door4,-0.258333333,-0.027777778,1,0,0,1.1142,optionLeft,60,16285,7,35,0,35,0,1,,,,,,,,,,,,,,,,,,,,,,,,,,,,,,,,,,,,,,,
,,,,,,,,2023-08-16_08h35.19.173,HF_wild_card,2022.2.4,Win32,60.02040694,63de5a3da0d14b3d32a134f8,64d2fd46c836a06233681665,64dc7c1fd479d511601f21a6,,,,,,,,,,,,,,,,,,,,,,,,,,6,0,6,0,1,,,,,,,,,,,,,,,,,,,,,,,,,,,,,,,,,,
,,,,,,,,2023-08-16_08h35.19.173,HF_wild_card,2022.2.4,Win32,60.02040694,63de5a3da0d14b3d32a134f8,64d2fd46c836a06233681665,64dc7c1fd479d511601f21a6,,,,,,,,,,,,,,,,,,,,,,,,,,,,,,,4,,,,,,,,,,,,,,,,,,,,,,,,,,,,,,,,,
,,,,,,,,2023-08-16_08h35.19.173,HF_wild_card,2022.2.4,Win32,60.02040694,63de5a3da0d14b3d32a134f8,64d2fd46c836a06233681665,64dc7c1fd479d511601f21a6,,,,,,,,,,,,,,,,,,,,,,,,,,,,,,,,,,,,,,,,,,,,,,,,,,,,,,,,,,,,,,,,
,,,,,,,,2023-08-16_08h35.19.173,HF_wild_card,2022.2.4,Win32,60.02040694,63de5a3da0d14b3d32a134f8,64d2fd46c836a06233681665,64dc7c1fd479d511601f21a6,,,,,,,,,,,,,,,,,,,,,,,,,,,,,,,,80,Door4,resources/DB.BMP,0,0,0,0,1,,,,,,,,,,,,,,,,,,,,,,,,,
,,,,,,,,2023-08-16_08h35.19.173,HF_wild_card,2022.2.4,Win32,60.02040694,63de5a3da0d14b3d32a134f8,64d2fd46c836a06233681665,64dc7c1fd479d511601f21a6,,,,,,,,,,,,,,,,,,,,,,,,,,,,,,,,95,WC_nonExtreme,resources/DP.BMP,1,0,1,0,1,,,,,,,,,,,,,,,,,,,,,,,,,
,,,,,,,,2023-08-16_08h35.19.173,HF_wild_card,2022.2.4,Win32,60.02040694,63de5a3da0d14b3d32a134f8,64d2fd46c836a06233681665,64dc7c1fd479d511601f21a6,,,,,,,,,,,,,,,,,,,,,,,,,,,,,,,,60,Door3,resources/DR.BMP,2,0,2,0,1,,,,,,,,,,,,,,,,,,,,,,,,,
,,,,,,,,2023-08-16_08h35.19.173,HF_wild_card,2022.2.4,Win32,60.02040694,63de5a3da0d14b3d32a134f8,64d2fd46c836a06233681665,64dc7c1fd479d511601f21a6,,,,,,,,,,,,,,,,,,,,,,,,,,,,,,,,5,WC_extreme,resources/DG.BMP,3,0,3,0,1,,,,,,,,,,,,,,,,,,,,,,,,,
,,,,,,,,2023-08-16_08h35.19.173,HF_wild_card,2022.2.4,Win32,60.02040694,63de5a3da0d14b3d32a134f8,64d2fd46c836a06233681665,64dc7c1fd479d511601f21a6,,,,,,,,,,,,,,,,,,,,,,,,,,,,,,,,30,Door2,resources/DY.BMP,4,0,4,0,1,,,,,,,,,,,,,,,,,,,,,,,,,
,,,,,,,,2023-08-16_08h35.19.173,HF_wild_card,2022.2.4,Win32,60.02040694,63de5a3da0d14b3d32a134f8,64d2fd46c836a06233681665,64dc7c1fd479d511601f21a6,,,,,,,,,,,,,,,,,,,,,,,,,,,,,,,,40,Door1,resources/DBN.BMP,5,0,5,0,1,,,,,,,,,,,,,,,,,,,,,,,,,
,,,,,,,,2023-08-16_08h35.19.173,HF_wild_card,2022.2.4,Win32,60.02040694,63de5a3da0d14b3d32a134f8,64d2fd46c836a06233681665,64dc7c1fd479d511601f21a6,,,,,,,,,,,,,,,,,,,,,,,,,,,,,,,,,,,,,,,,,,,,,,,,,,,,,,,,,,,,,,,,
