Condition,Low fixed image (Door1),Low risky image (Door2),High fixed image (Door3),High risky image (Door4),NonExtreme Wild Card 1,NonExtreme Wild Card 2,,date,expName,psychopyVersion,OS,frameRate,PROLIFIC_PID,STUDY_ID,SESSION_ID,mouse_2.x,mouse_2.y,mouse_2.leftButton,mouse_2.midButton,mouse_2.rightButton,mouse_2.clicked_name,Trial Type,Left Option Image,Right Option Image,Chosen Door,mouse.x,mouse.y,mouse.leftButton,mouse.midButton,mouse.rightButton,mouse.time,mouse.clicked_name,Feedback,Cumulative Reward,Block,trial.thisRepN,trial.thisTrialN,trial.thisN,trial.thisIndex,trial.ran,blocks.thisRepN,blocks.thisTrialN,blocks.thisN,blocks.thisIndex,blocks.ran,Money conversion,First Outcome Reported,Shown Door (First Outcome),Displayed Image (First Outcome),outcomes.thisRepN,outcomes.thisTrialN,outcomes.thisN,outcomes.thisIndex,outcomes.ran,judgments.thisRepN,judgments.thisTrialN,judgments.thisN,judgments.thisIndex,judgments.ran,freqMouse.x,freqMouse.y,freqMouse.leftButton,freqMouse.midButton,freqMouse.rightButton,freqMouse.clicked_name,FQJ for first outcome,FQJ for second outcome,Shown Door,Displayed Image,trials.thisRepN,trials.thisTrialN,trials.thisN,trials.thisIndex,trials.ran,judgBlock.thisRepN,judgBlock.thisTrialN,judgBlock.thisN,judgBlock.thisIndex,judgBlock.ran
2,resources/DG.BMP,resources/DBN.BMP,resources/DY.BMP,resources/DB.BMP,resources/DP.BMP,resources/DR.BMP,,2023-08-16_08h37.11.329,HF_wild_card,2022.2.4,Win32,59.73002031,6140bf6523a8f20a2ea1e417,64d2fd46c836a06233681665,64dc7c6aed90c03ed71270e7,,,,,,,,,,,,,,,,,,,,,,,,,,,,,,,,,,,,,,,,,,,,,,,,,,,,,,,,,,,,,,,,
,,,,,,,,2023-08-16_08h37.11.329,HF_wild_card,2022.2.4,Win32,59.73002031,6140bf6523a8f20a2ea1e417,64d2fd46c836a06233681665,64dc7c6aed90c03ed71270e7,-0.021296254,-0.425000014,1,0,0,agree,,,,,,,,,,,,,,,,,,,,,,,,,,,,,,,,,,,,,,,,,,,,,,,,,,,,,,,,,,
,,,,,,,,2023-08-16_08h37.11.329,HF_wild_card,2022.2.4,Win32,59.73002031,6140bf6523a8f20a2ea1e417,64d2fd46c836a06233681665,64dc7c6aed90c03ed71270e7,,,,,,,,,,,,,,,,,,,,,,,,,,,,,,,,,,,,,,,,,,,,,,,,,,,,,,,,,,,,,,,,
,,,,,,,,2023-08-16_08h37.11.329,HF_wild_card,2022.2.4,Win32,59.73002031,6140bf6523a8f20a2ea1e417,64d2fd46c836a06233681665,64dc7c6aed90c03ed71270e7,,,,,,,decisionTrl,resources/DG.BMP,resources/DBN.BMP,Door2,0.292592578,0.032407407,1,0,0,14.1399,optionRight,40,40,1,0,0,0,0,1,,,,,,,,,,,,,,,,,,,,,,,,,,,,,,,,,,,,,,,
,,,,,,,,2023-08-16_08h37.11.329,HF_wild_card,2022.2.4,Win32,59.73002031,6140bf6523a8f20a2ea1e417,64d2fd46c836a06233681665,64dc7c6aed90c03ed71270e7,,,,,,,decisionTrl,resources/DR.BMP,resources/DB.BMP,WildCard_NonEx,-0.327777757,0.017592571,1,0,0,2.6272,optionLeft,45,85,1,1,0,1,0,1,,,,,,,,,,,,,,,,,,,,,,,,,,,,,,,,,,,,,,,
,,,,,,,,2023-08-16_08h37.11.329,HF_wild_card,2022.2.4,Win32,59.73002031,6140bf6523a8f20a2ea1e417,64d2fd46c836a06233681665,64dc7c6aed90c03ed71270e7,,,,,,,decisionTrl,resources/DBN.BMP,resources/DR.BMP,WildCard_NonEx,0.285185213,-0.032407407,1,0,0,5.0976,optionRight,45,130,1,2,0,2,0,1,,,,,,,,,,,,,,,,,,,,,,,,,,,,,,,,,,,,,,,
,,,,,,,,2023-08-16_08h37.11.329,HF_wild_card,2022.2.4,Win32,59.73002031,6140bf6523a8f20a2ea1e417,64d2fd46c836a06233681665,64dc7c6aed90c03ed71270e7,,,,,,,decisionTrl,resources/DBN.BMP,resources/DG.BMP,Door2,-0.287962949,0.010185171,1,0,0,0.9236,optionLeft,40,170,1,3,0,3,0,1,,,,,,,,,,,,,,,,,,,,,,,,,,,,,,,,,,,,,,,
,,,,,,,,2023-08-16_08h37.11.329,HF_wild_card,2022.2.4,Win32,59.73002031,6140bf6523a8f20a2ea1e417,64d2fd46c836a06233681665,64dc7c6aed90c03ed71270e7,,,,,,,sngl,resources/DB.BMP,resources/Empty.png,Door4,0.261111153,-0.093518504,1,0,0,4.621,optionLeft,80,250,1,4,0,4,0,1,,,,,,,,,,,,,,,,,,,,,,,,,,,,,,,,,,,,,,,
,,,,,,,,2023-08-16_08h37.11.329,HF_wild_card,2022.2.4,Win32,59.73002031,6140bf6523a8f20a2ea1e417,64d2fd46c836a06233681665,64dc7c6aed90c03ed71270e7,,,,,,,decisionTrl,resources/DY.BMP,resources/DB.BMP,Door3,-0.011111083,-0.006481489,1,0,0,0.2649,optionLeft,70,320,1,5,0,5,0,1,,,,,,,,,,,,,,,,,,,,,,,,,,,,,,,,,,,,,,,
,,,,,,,,2023-08-16_08h37.11.329,HF_wild_card,2022.2.4,Win32,59.73002031,6140bf6523a8f20a2ea1e417,64d2fd46c836a06233681665,64dc7c6aed90c03ed71270e7,,,,,,,ctch,resources/DBN.BMP,resources/DY.BMP,Door3,0.240740741,-0.014814836,1,0,0,1.7708,optionRight,70,390,1,6,0,6,0,1,,,,,,,,,,,,,,,,,,,,,,,,,,,,,,,,,,,,,,,
,,,,,,,,2023-08-16_08h37.11.329,HF_wild_card,2022.2.4,Win32,59.73002031,6140bf6523a8f20a2ea1e417,64d2fd46c836a06233681665,64dc7c6aed90c03ed71270e7,,,,,,,ctch,resources/DG.BMP,resources/DB.BMP,Door1,-0.216666681,-0.013888889,1,0,0,1.8972,optionLeft,30,420,1,7,0,7,0,1,,,,,,,,,,,,,,,,,,,,,,,,,,,,,,,,,,,,,,,
,,,,,,,,2023-08-16_08h37.11.329,HF_wild_card,2022.2.4,Win32,59.73002031,6140bf6523a8f20a2ea1e417,64d2fd46c836a06233681665,64dc7c6aed90c03ed71270e7,,,,,,,ctch,resources/DB.BMP,resources/DG.BMP,Door4,-0.22129631,-0.025000007,1,0,0,1.6459,optionLeft,80,500,1,8,0,8,0,1,,,,,,,,,,,,,,,,,,,,,,,,,,,,,,,,,,,,,,,
,,,,,,,,2023-08-16_08h37.11.329,HF_wild_card,2022.2.4,Win32,59.73002031,6140bf6523a8f20a2ea1e417,64d2fd46c836a06233681665,64dc7c6aed90c03ed71270e7,,,,,,,decisionTrl,resources/DB.BMP,resources/DY.BMP,Door3,0.214814857,-0.047222243,1,0,0,4.973,optionRight,70,570,1,9,0,9,0,1,,,,,,,,,,,,,,,,,,,,,,,,,,,,,,,,,,,,,,,
,,,,,,,,2023-08-16_08h37.11.329,HF_wild_card,2022.2.4,Win32,59.73002031,6140bf6523a8f20a2ea1e417,64d2fd46c836a06233681665,64dc7c6aed90c03ed71270e7,,,,,,,decisionTrl,resources/DG.BMP,resources/DBN.BMP,Door2,0.241666653,0.017592571,1,0,0,1.9168,optionRight,40,610,1,10,0,10,0,1,,,,,,,,,,,,,,,,,,,,,,,,,,,,,,,,,,,,,,,
,,,,,,,,2023-08-16_08h37.11.329,HF_wild_card,2022.2.4,Win32,59.73002031,6140bf6523a8f20a2ea1e417,64d2fd46c836a06233681665,64dc7c6aed90c03ed71270e7,,,,,,,decisionTrl,resources/DG.BMP,resources/DBN.BMP,Door1,-0.182407379,-0.0074074,1,0,0,2.4363,optionLeft,30,640,1,11,0,11,0,1,,,,,,,,,,,,,,,,,,,,,,,,,,,,,,,,,,,,,,,
,,,,,,,,2023-08-16_08h37.11.329,HF_wild_card,2022.2.4,Win32,59.73002031,6140bf6523a8f20a2ea1e417,64d2fd46c836a06233681665,64dc7c6aed90c03ed71270e7,,,,,,,decisionTrl,resources/DG.BMP,resources/DR.BMP,WildCard_NonEx,0.228703746,-0.053703697,1,0,0,1.0967,optionRight,45,685,1,12,0,12,0,1,,,,,,,,,,,,,,,,,,,,,,,,,,,,,,,,,,,,,,,
,,,,,,,,2023-08-16_08h37.11.329,HF_wild_card,2022.2.4,Win32,59.73002031,6140bf6523a8f20a2ea1e417,64d2fd46c836a06233681665,64dc7c6aed90c03ed71270e7,,,,,,,ctch,resources/DBN.BMP,resources/DY.BMP,Door3,0.218518504,0,1,0,0,1.3226,optionRight,70,755,1,13,0,13,0,1,,,,,,,,,,,,,,,,,,,,,,,,,,,,,,,,,,,,,,,
,,,,,,,,2023-08-16_08h37.11.329,HF_wild_card,2022.2.4,Win32,59.73002031,6140bf6523a8f20a2ea1e417,64d2fd46c836a06233681665,64dc7c6aed90c03ed71270e7,,,,,,,sngl,resources/Empty.png,resources/DR.BMP,WildCard_NonEx,0.190740727,-0.012962977,1,0,0,2.3901,optionRight,45,800,1,14,0,14,0,1,,,,,,,,,,,,,,,,,,,,,,,,,,,,,,,,,,,,,,,
,,,,,,,,2023-08-16_08h37.11.329,HF_wild_card,2022.2.4,Win32,59.73002031,6140bf6523a8f20a2ea1e417,64d2fd46c836a06233681665,64dc7c6aed90c03ed71270e7,,,,,,,sngl,resources/Empty.png,resources/DB.BMP,Door4,0.185185185,-0.034259266,1,0,0,2.0047,optionRight,60,860,1,15,0,15,0,1,,,,,,,,,,,,,,,,,,,,,,,,,,,,,,,,,,,,,,,
,,,,,,,,2023-08-16_08h37.11.329,HF_wild_card,2022.2.4,Win32,59.73002031,6140bf6523a8f20a2ea1e417,64d2fd46c836a06233681665,64dc7c6aed90c03ed71270e7,,,,,,,sngl,resources/Empty.png,resources/DBN.BMP,Door2,-0.371296282,-0.030555548,1,0,0,1.5286,optionRight,20,880,1,16,0,16,0,1,,,,,,,,,,,,,,,,,,,,,,,,,,,,,,,,,,,,,,,
,,,,,,,,2023-08-16_08h37.11.329,HF_wild_card,2022.2.4,Win32,59.73002031,6140bf6523a8f20a2ea1e417,64d2fd46c836a06233681665,64dc7c6aed90c03ed71270e7,,,,,,,decisionTrl,resources/DBN.BMP,resources/DG.BMP,Door1,0.320370427,-0.042592614,1,0,0,2.4304,optionRight,30,910,1,17,0,17,0,1,,,,,,,,,,,,,,,,,,,,,,,,,,,,,,,,,,,,,,,
,,,,,,,,2023-08-16_08h37.11.329,HF_wild_card,2022.2.4,Win32,59.73002031,6140bf6523a8f20a2ea1e417,64d2fd46c836a06233681665,64dc7c6aed90c03ed71270e7,,,,,,,decisionTrl,resources/DR.BMP,resources/DBN.BMP,WildCard_NonEx,-0.280555513,-0.001851859,1,0,0,2.6792,optionLeft,45,955,1,18,0,18,0,1,,,,,,,,,,,,,,,,,,,,,,,,,,,,,,,,,,,,,,,
,,,,,,,,2023-08-16_08h37.11.329,HF_wild_card,2022.2.4,Win32,59.73002031,6140bf6523a8f20a2ea1e417,64d2fd46c836a06233681665,64dc7c6aed90c03ed71270e7,,,,,,,ctch,resources/DY.BMP,resources/DBN.BMP,Door2,0.314814815,-0.020370377,1,0,0,1.0231,optionRight,20,975,1,19,0,19,0,1,,,,,,,,,,,,,,,,,,,,,,,,,,,,,,,,,,,,,,,
,,,,,,,,2023-08-16_08h37.11.329,HF_wild_card,2022.2.4,Win32,59.73002031,6140bf6523a8f20a2ea1e417,64d2fd46c836a06233681665,64dc7c6aed90c03ed71270e7,,,,,,,decisionTrl,resources/DR.BMP,resources/DY.BMP,Door3,0.27870369,0,1,0,0,1.3717,optionRight,70,1045,1,20,0,20,0,1,,,,,,,,,,,,,,,,,,,,,,,,,,,,,,,,,,,,,,,
,,,,,,,,2023-08-16_08h37.11.329,HF_wild_card,2022.2.4,Win32,59.73002031,6140bf6523a8f20a2ea1e417,64d2fd46c836a06233681665,64dc7c6aed90c03ed71270e7,,,,,,,decisionTrl,resources/DB.BMP,resources/DY.BMP,Door4,-0.315740727,0.017592571,1,0,0,1.9985,optionLeft,80,1125,1,21,0,21,0,1,,,,,,,,,,,,,,,,,,,,,,,,,,,,,,,,,,,,,,,
,,,,,,,,2023-08-16_08h37.11.329,HF_wild_card,2022.2.4,Win32,59.73002031,6140bf6523a8f20a2ea1e417,64d2fd46c836a06233681665,64dc7c6aed90c03ed71270e7,,,,,,,sngl,resources/Empty.png,resources/DG.BMP,Door1,0.288888931,-0.053703697,1,0,0,1.8643,optionRight,30,1155,1,22,0,22,0,1,,,,,,,,,,,,,,,,,,,,,,,,,,,,,,,,,,,,,,,
,,,,,,,,2023-08-16_08h37.11.329,HF_wild_card,2022.2.4,Win32,59.73002031,6140bf6523a8f20a2ea1e417,64d2fd46c836a06233681665,64dc7c6aed90c03ed71270e7,,,,,,,decisionTrl,resources/DB.BMP,resources/DR.BMP,Door4,-0.217592593,0,1,0,0,2.6943,optionLeft,80,1235,1,23,0,23,0,1,,,,,,,,,,,,,,,,,,,,,,,,,,,,,,,,,,,,,,,
,,,,,,,,2023-08-16_08h37.11.329,HF_wild_card,2022.2.4,Win32,59.73002031,6140bf6523a8f20a2ea1e417,64d2fd46c836a06233681665,64dc7c6aed90c03ed71270e7,,,,,,,decisionTrl,resources/DY.BMP,resources/DR.BMP,WildCard_NonEx,0.195370356,-0.043518526,1,0,0,2.6392,optionRight,45,1280,1,24,0,24,0,1,,,,,,,,,,,,,,,,,,,,,,,,,,,,,,,,,,,,,,,
,,,,,,,,2023-08-16_08h37.11.329,HF_wild_card,2022.2.4,Win32,59.73002031,6140bf6523a8f20a2ea1e417,64d2fd46c836a06233681665,64dc7c6aed90c03ed71270e7,,,,,,,decisionTrl,resources/DY.BMP,resources/DB.BMP,Door3,-0.217592593,0.025925919,1,0,0,4.0167,optionLeft,70,1350,1,25,0,25,0,1,,,,,,,,,,,,,,,,,,,,,,,,,,,,,,,,,,,,,,,
,,,,,,,,2023-08-16_08h37.11.329,HF_wild_card,2022.2.4,Win32,59.73002031,6140bf6523a8f20a2ea1e417,64d2fd46c836a06233681665,64dc7c6aed90c03ed71270e7,,,,,,,sngl,resources/DBN.BMP,resources/Empty.png,Door2,-0.267592607,0.077777757,1,0,0,2.0574,optionLeft,40,1390,1,26,0,26,0,1,,,,,,,,,,,,,,,,,,,,,,,,,,,,,,,,,,,,,,,
,,,,,,,,2023-08-16_08h37.11.329,HF_wild_card,2022.2.4,Win32,59.73002031,6140bf6523a8f20a2ea1e417,64d2fd46c836a06233681665,64dc7c6aed90c03ed71270e7,,,,,,,decisionTrl,resources/DBN.BMP,resources/DG.BMP,Door2,-0.154629601,0.015740748,1,0,0,2.6216,optionLeft,40,1430,1,27,0,27,0,1,,,,,,,,,,,,,,,,,,,,,,,,,,,,,,,,,,,,,,,
,,,,,,,,2023-08-16_08h37.11.329,HF_wild_card,2022.2.4,Win32,59.73002031,6140bf6523a8f20a2ea1e417,64d2fd46c836a06233681665,64dc7c6aed90c03ed71270e7,,,,,,,decisionTrl,resources/DG.BMP,resources/DBN.BMP,Door2,0.202777792,-0.013888889,1,0,0,0.9542,optionRight,40,1470,1,28,0,28,0,1,,,,,,,,,,,,,,,,,,,,,,,,,,,,,,,,,,,,,,,
,,,,,,,,2023-08-16_08h37.11.329,HF_wild_card,2022.2.4,Win32,59.73002031,6140bf6523a8f20a2ea1e417,64d2fd46c836a06233681665,64dc7c6aed90c03ed71270e7,,,,,,,decisionTrl,resources/DY.BMP,resources/DB.BMP,Door3,-0.175000014,0.000925912,1,0,0,1.3177,optionLeft,70,1540,1,29,0,29,0,1,,,,,,,,,,,,,,,,,,,,,,,,,,,,,,,,,,,,,,,
,,,,,,,,2023-08-16_08h37.11.329,HF_wild_card,2022.2.4,Win32,59.73002031,6140bf6523a8f20a2ea1e417,64d2fd46c836a06233681665,64dc7c6aed90c03ed71270e7,,,,,,,sngl,resources/Empty.png,resources/DY.BMP,Door3,0.214814857,-0.033333355,1,0,0,1.1219,optionRight,70,1610,1,30,0,30,0,1,,,,,,,,,,,,,,,,,,,,,,,,,,,,,,,,,,,,,,,
,,,,,,,,2023-08-16_08h37.11.329,HF_wild_card,2022.2.4,Win32,59.73002031,6140bf6523a8f20a2ea1e417,64d2fd46c836a06233681665,64dc7c6aed90c03ed71270e7,,,,,,,sngl,resources/DR.BMP,resources/Empty.png,WildCard_NonEx,-0.273148148,-0.00462963,1,0,0,1.0923,optionLeft,55,1665,1,31,0,31,0,1,,,,,,,,,,,,,,,,,,,,,,,,,,,,,,,,,,,,,,,
,,,,,,,,2023-08-16_08h37.11.329,HF_wild_card,2022.2.4,Win32,59.73002031,6140bf6523a8f20a2ea1e417,64d2fd46c836a06233681665,64dc7c6aed90c03ed71270e7,,,,,,,sngl,resources/Empty.png,resources/DR.BMP,WildCard_NonEx,0.222222222,-0.031481496,1,0,0,1.0347,optionRight,55,1720,1,32,0,32,0,1,,,,,,,,,,,,,,,,,,,,,,,,,,,,,,,,,,,,,,,
,,,,,,,,2023-08-16_08h37.11.329,HF_wild_card,2022.2.4,Win32,59.73002031,6140bf6523a8f20a2ea1e417,64d2fd46c836a06233681665,64dc7c6aed90c03ed71270e7,,,,,,,ctch,resources/DB.BMP,resources/DG.BMP,Door4,-0.238888847,0.010185171,1,0,0,3.6679,optionLeft,60,1780,1,33,0,33,0,1,,,,,,,,,,,,,,,,,,,,,,,,,,,,,,,,,,,,,,,
,,,,,,,,2023-08-16_08h37.11.329,HF_wild_card,2022.2.4,Win32,59.73002031,6140bf6523a8f20a2ea1e417,64d2fd46c836a06233681665,64dc7c6aed90c03ed71270e7,,,,,,,decisionTrl,resources/DB.BMP,resources/DY.BMP,Door3,0.306481538,0.013888889,1,0,0,2.7375,optionRight,70,1850,1,34,0,34,0,1,,,,,,,,,,,,,,,,,,,,,,,,,,,,,,,,,,,,,,,
,,,,,,,,2023-08-16_08h37.11.329,HF_wild_card,2022.2.4,Win32,59.73002031,6140bf6523a8f20a2ea1e417,64d2fd46c836a06233681665,64dc7c6aed90c03ed71270e7,,,,,,,sngl,resources/DY.BMP,resources/Empty.png,Door3,-0.299999979,0.022222201,1,0,0,1.0962,optionLeft,70,1920,1,35,0,35,0,1,,,,,,,,,,,,,,,,,,,,,,,,,,,,,,,,,,,,,,,
,,,,,,,,2023-08-16_08h37.11.329,HF_wild_card,2022.2.4,Win32,59.73002031,6140bf6523a8f20a2ea1e417,64d2fd46c836a06233681665,64dc7c6aed90c03ed71270e7,,,,,,,decisionTrl,resources/DY.BMP,resources/DB.BMP,Door3,-0.206481439,-0.002777771,1,0,0,1.408,optionLeft,70,1990,1,36,0,36,0,1,,,,,,,,,,,,,,,,,,,,,,,,,,,,,,,,,,,,,,,
,,,,,,,,2023-08-16_08h37.11.329,HF_wild_card,2022.2.4,Win32,59.73002031,6140bf6523a8f20a2ea1e417,64d2fd46c836a06233681665,64dc7c6aed90c03ed71270e7,,,,,,,decisionTrl,resources/DBN.BMP,resources/DG.BMP,Door2,-0.268518519,0.03148146,1,0,0,2.0522,optionLeft,20,2010,1,37,0,37,0,1,,,,,,,,,,,,,,,,,,,,,,,,,,,,,,,,,,,,,,,
,,,,,,,,2023-08-16_08h37.11.329,HF_wild_card,2022.2.4,Win32,59.73002031,6140bf6523a8f20a2ea1e417,64d2fd46c836a06233681665,64dc7c6aed90c03ed71270e7,,,,,,,decisionTrl,resources/DB.BMP,resources/DY.BMP,Door3,0.223148134,-0.01666666,1,0,0,1.765,optionRight,70,2080,1,38,0,38,0,1,,,,,,,,,,,,,,,,,,,,,,,,,,,,,,,,,,,,,,,
,,,,,,,,2023-08-16_08h37.11.329,HF_wild_card,2022.2.4,Win32,59.73002031,6140bf6523a8f20a2ea1e417,64d2fd46c836a06233681665,64dc7c6aed90c03ed71270e7,,,,,,,sngl,resources/DR.BMP,resources/Empty.png,WildCard_NonEx,-0.212962963,-0.0074074,1,0,0,1.7208,optionLeft,45,2125,1,39,0,39,0,1,,,,,,,,,,,,,,,,,,,,,,,,,,,,,,,,,,,,,,,
,,,,,,,,2023-08-16_08h37.11.329,HF_wild_card,2022.2.4,Win32,59.73002031,6140bf6523a8f20a2ea1e417,64d2fd46c836a06233681665,64dc7c6aed90c03ed71270e7,,,,,,,sngl,resources/DG.BMP,resources/Empty.png,Door1,-0.184259273,-0.025925919,1,0,0,2.5088,optionLeft,30,2155,1,40,0,40,0,1,,,,,,,,,,,,,,,,,,,,,,,,,,,,,,,,,,,,,,,
,,,,,,,,2023-08-16_08h37.11.329,HF_wild_card,2022.2.4,Win32,59.73002031,6140bf6523a8f20a2ea1e417,64d2fd46c836a06233681665,64dc7c6aed90c03ed71270e7,,,,,,,decisionTrl,resources/DR.BMP,resources/DG.BMP,WildCard_NonEx,-0.191666638,-0.008333347,1,0,0,1.5646,optionLeft,55,2210,1,41,0,41,0,1,,,,,,,,,,,,,,,,,,,,,,,,,,,,,,,,,,,,,,,
,,,,,,,,2023-08-16_08h37.11.329,HF_wild_card,2022.2.4,Win32,59.73002031,6140bf6523a8f20a2ea1e417,64d2fd46c836a06233681665,64dc7c6aed90c03ed71270e7,,,,,,,ctch,resources/DY.BMP,resources/DBN.BMP,Door3,-0.22129631,0.000925912,1,0,0,2.7621,optionLeft,70,2280,1,42,0,42,0,1,,,,,,,,,,,,,,,,,,,,,,,,,,,,,,,,,,,,,,,
,,,,,,,,2023-08-16_08h37.11.329,HF_wild_card,2022.2.4,Win32,59.73002031,6140bf6523a8f20a2ea1e417,64d2fd46c836a06233681665,64dc7c6aed90c03ed71270e7,,,,,,,ctch,resources/DG.BMP,resources/DB.BMP,Door4,0.336111139,-0.041666667,1,0,0,2.3196,optionRight,60,2340,1,43,0,43,0,1,,,,,,,,,,,,,,,,,,,,,,,,,,,,,,,,,,,,,,,
,,,,,,,,2023-08-16_08h37.11.329,HF_wild_card,2022.2.4,Win32,59.73002031,6140bf6523a8f20a2ea1e417,64d2fd46c836a06233681665,64dc7c6aed90c03ed71270e7,,,,,,,,,,,,,,,,,,,,,,,,,,0,0,0,0,1,,,,,,,,,,,,,,,,,,,,,,,,,,,,,,,,,,
,,,,,,,,2023-08-16_08h37.11.329,HF_wild_card,2022.2.4,Win32,59.73002031,6140bf6523a8f20a2ea1e417,64d2fd46c836a06233681665,64dc7c6aed90c03ed71270e7,,,,,,,sngl,resources/Empty.png,resources/DG.BMP,Door1,0.369444529,0.009259259,1,0,0,2.647,optionRight,30,2370,2,0,0,0,0,1,,,,,,,,,,,,,,,,,,,,,,,,,,,,,,,,,,,,,,,
,,,,,,,,2023-08-16_08h37.11.329,HF_wild_card,2022.2.4,Win32,59.73002031,6140bf6523a8f20a2ea1e417,64d2fd46c836a06233681665,64dc7c6aed90c03ed71270e7,,,,,,,decisionTrl,resources/DG.BMP,resources/DBN.BMP,Door1,-0.255555541,0.044444437,1,0,0,6.8213,optionLeft,30,2400,2,1,0,1,0,1,,,,,,,,,,,,,,,,,,,,,,,,,,,,,,,,,,,,,,,
,,,,,,,,2023-08-16_08h37.11.329,HF_wild_card,2022.2.4,Win32,59.73002031,6140bf6523a8f20a2ea1e417,64d2fd46c836a06233681665,64dc7c6aed90c03ed71270e7,,,,,,,decisionTrl,resources/DBN.BMP,resources/DG.BMP,Door1,0.264814801,0.010185171,1,0,0,1.1625,optionRight,30,2430,2,2,0,2,0,1,,,,,,,,,,,,,,,,,,,,,,,,,,,,,,,,,,,,,,,
,,,,,,,,2023-08-16_08h37.11.329,HF_wild_card,2022.2.4,Win32,59.73002031,6140bf6523a8f20a2ea1e417,64d2fd46c836a06233681665,64dc7c6aed90c03ed71270e7,,,,,,,decisionTrl,resources/DR.BMP,resources/DBN.BMP,WildCard_NonEx,-0.350925905,-0.028703725,1,0,0,1.3915,optionLeft,45,2475,2,3,0,3,0,1,,,,,,,,,,,,,,,,,,,,,,,,,,,,,,,,,,,,,,,
,,,,,,,,2023-08-16_08h37.11.329,HF_wild_card,2022.2.4,Win32,59.73002031,6140bf6523a8f20a2ea1e417,64d2fd46c836a06233681665,64dc7c6aed90c03ed71270e7,,,,,,,ctch,resources/DG.BMP,resources/DB.BMP,Door1,-0.239814829,0.017592571,1,0,0,7.0639,optionLeft,30,2505,2,4,0,4,0,1,,,,,,,,,,,,,,,,,,,,,,,,,,,,,,,,,,,,,,,
,,,,,,,,2023-08-16_08h37.11.329,HF_wild_card,2022.2.4,Win32,59.73002031,6140bf6523a8f20a2ea1e417,64d2fd46c836a06233681665,64dc7c6aed90c03ed71270e7,,,,,,,sngl,resources/DR.BMP,resources/Empty.png,WildCard_NonEx,-0.312037044,0.013888889,1,0,0,1.0973,optionLeft,55,2560,2,5,0,5,0,1,,,,,,,,,,,,,,,,,,,,,,,,,,,,,,,,,,,,,,,
,,,,,,,,2023-08-16_08h37.11.329,HF_wild_card,2022.2.4,Win32,59.73002031,6140bf6523a8f20a2ea1e417,64d2fd46c836a06233681665,64dc7c6aed90c03ed71270e7,,,,,,,decisionTrl,resources/DG.BMP,resources/DR.BMP,WildCard_NonEx,0.251851894,-0.009259259,1,0,0,2.2174,optionRight,45,2605,2,6,0,6,0,1,,,,,,,,,,,,,,,,,,,,,,,,,,,,,,,,,,,,,,,
,,,,,,,,2023-08-16_08h37.11.329,HF_wild_card,2022.2.4,Win32,59.73002031,6140bf6523a8f20a2ea1e417,64d2fd46c836a06233681665,64dc7c6aed90c03ed71270e7,,,,,,,ctch,resources/DG.BMP,resources/DB.BMP,Door4,0.297222279,0.061111097,1,0,0,2.7675,optionRight,60,2665,2,7,0,7,0,1,,,,,,,,,,,,,,,,,,,,,,,,,,,,,,,,,,,,,,,
,,,,,,,,2023-08-16_08h37.11.329,HF_wild_card,2022.2.4,Win32,59.73002031,6140bf6523a8f20a2ea1e417,64d2fd46c836a06233681665,64dc7c6aed90c03ed71270e7,,,,,,,ctch,resources/DBN.BMP,resources/DY.BMP,Door3,0.195370356,0.051851838,1,0,0,12.7831,optionRight,70,2735,2,8,0,8,0,1,,,,,,,,,,,,,,,,,,,,,,,,,,,,,,,,,,,,,,,
,,,,,,,,2023-08-16_08h37.11.329,HF_wild_card,2022.2.4,Win32,59.73002031,6140bf6523a8f20a2ea1e417,64d2fd46c836a06233681665,64dc7c6aed90c03ed71270e7,,,,,,,decisionTrl,resources/DY.BMP,resources/DR.BMP,WildCard_NonEx,0.251851894,0.03148146,1,0,0,2.9917,optionRight,55,2790,2,9,0,9,0,1,,,,,,,,,,,,,,,,,,,,,,,,,,,,,,,,,,,,,,,
,,,,,,,,2023-08-16_08h37.11.329,HF_wild_card,2022.2.4,Win32,59.73002031,6140bf6523a8f20a2ea1e417,64d2fd46c836a06233681665,64dc7c6aed90c03ed71270e7,,,,,,,decisionTrl,resources/DY.BMP,resources/DB.BMP,Door4,0.238888917,0.033333319,1,0,0,4.2647,optionRight,60,2850,2,10,0,10,0,1,,,,,,,,,,,,,,,,,,,,,,,,,,,,,,,,,,,,,,,
,,,,,,,,2023-08-16_08h37.11.329,HF_wild_card,2022.2.4,Win32,59.73002031,6140bf6523a8f20a2ea1e417,64d2fd46c836a06233681665,64dc7c6aed90c03ed71270e7,,,,,,,sngl,resources/Empty.png,resources/DBN.BMP,Door2,0.193518533,0,1,0,0,4.7054,optionRight,40,2890,2,11,0,11,0,1,,,,,,,,,,,,,,,,,,,,,,,,,,,,,,,,,,,,,,,
,,,,,,,,2023-08-16_08h37.11.329,HF_wild_card,2022.2.4,Win32,59.73002031,6140bf6523a8f20a2ea1e417,64d2fd46c836a06233681665,64dc7c6aed90c03ed71270e7,,,,,,,ctch,resources/DY.BMP,resources/DBN.BMP,Door2,0.237037023,0.056481467,1,0,0,8.4913,optionRight,40,2930,2,12,0,12,0,1,,,,,,,,,,,,,,,,,,,,,,,,,,,,,,,,,,,,,,,
,,,,,,,,2023-08-16_08h37.11.329,HF_wild_card,2022.2.4,Win32,59.73002031,6140bf6523a8f20a2ea1e417,64d2fd46c836a06233681665,64dc7c6aed90c03ed71270e7,,,,,,,decisionTrl,resources/DB.BMP,resources/DY.BMP,Door4,-0.283333319,-0.021296289,1,0,0,4.6295,optionLeft,80,3010,2,13,0,13,0,1,,,,,,,,,,,,,,,,,,,,,,,,,,,,,,,,,,,,,,,
,,,,,,,,2023-08-16_08h37.11.329,HF_wild_card,2022.2.4,Win32,59.73002031,6140bf6523a8f20a2ea1e417,64d2fd46c836a06233681665,64dc7c6aed90c03ed71270e7,,,,,,,sngl,resources/DBN.BMP,resources/Empty.png,Door2,-0.207407422,0.027777778,1,0,0,1.876,optionLeft,20,3030,2,14,0,14,0,1,,,,,,,,,,,,,,,,,,,,,,,,,,,,,,,,,,,,,,,
,,,,,,,,2023-08-16_08h37.11.329,HF_wild_card,2022.2.4,Win32,59.73002031,6140bf6523a8f20a2ea1e417,64d2fd46c836a06233681665,64dc7c6aed90c03ed71270e7,,,,,,,decisionTrl,resources/DBN.BMP,resources/DR.BMP,WildCard_NonEx,0.239814829,-0.003703718,1,0,0,2.0612,optionRight,45,3075,2,15,0,15,0,1,,,,,,,,,,,,,,,,,,,,,,,,,,,,,,,,,,,,,,,
,,,,,,,,2023-08-16_08h37.11.329,HF_wild_card,2022.2.4,Win32,59.73002031,6140bf6523a8f20a2ea1e417,64d2fd46c836a06233681665,64dc7c6aed90c03ed71270e7,,,,,,,ctch,resources/DB.BMP,resources/DG.BMP,Door4,-0.256481453,-0.001851859,1,0,0,1.7,optionLeft,60,3135,2,16,0,16,0,1,,,,,,,,,,,,,,,,,,,,,,,,,,,,,,,,,,,,,,,
,,,,,,,,2023-08-16_08h37.11.329,HF_wild_card,2022.2.4,Win32,59.73002031,6140bf6523a8f20a2ea1e417,64d2fd46c836a06233681665,64dc7c6aed90c03ed71270e7,,,,,,,decisionTrl,resources/DG.BMP,resources/DBN.BMP,Door2,0.238888917,0.029629637,1,0,0,2.9653,optionRight,20,3155,2,17,0,17,0,1,,,,,,,,,,,,,,,,,,,,,,,,,,,,,,,,,,,,,,,
,,,,,,,,2023-08-16_08h37.11.329,HF_wild_card,2022.2.4,Win32,59.73002031,6140bf6523a8f20a2ea1e417,64d2fd46c836a06233681665,64dc7c6aed90c03ed71270e7,,,,,,,decisionTrl,resources/DY.BMP,resources/DB.BMP,Door3,-0.27870369,-0.01666666,1,0,0,4.1087,optionLeft,70,3225,2,18,0,18,0,1,,,,,,,,,,,,,,,,,,,,,,,,,,,,,,,,,,,,,,,
,,,,,,,,2023-08-16_08h37.11.329,HF_wild_card,2022.2.4,Win32,59.73002031,6140bf6523a8f20a2ea1e417,64d2fd46c836a06233681665,64dc7c6aed90c03ed71270e7,,,,,,,decisionTrl,resources/DB.BMP,resources/DR.BMP,WildCard_NonEx,0.330555527,0.047222208,1,0,0,2.2337,optionRight,55,3280,2,19,0,19,0,1,,,,,,,,,,,,,,,,,,,,,,,,,,,,,,,,,,,,,,,
,,,,,,,,2023-08-16_08h37.11.329,HF_wild_card,2022.2.4,Win32,59.73002031,6140bf6523a8f20a2ea1e417,64d2fd46c836a06233681665,64dc7c6aed90c03ed71270e7,,,,,,,decisionTrl,resources/DB.BMP,resources/DY.BMP,Door4,-0.215740698,-0.000925947,1,0,0,2.0239,optionLeft,80,3360,2,20,0,20,0,1,,,,,,,,,,,,,,,,,,,,,,,,,,,,,,,,,,,,,,,
,,,,,,,,2023-08-16_08h37.11.329,HF_wild_card,2022.2.4,Win32,59.73002031,6140bf6523a8f20a2ea1e417,64d2fd46c836a06233681665,64dc7c6aed90c03ed71270e7,,,,,,,decisionTrl,resources/DR.BMP,resources/DB.BMP,Door4,0.304629714,-0.0074074,1,0,0,11.3491,optionRight,80,3440,2,21,0,21,0,1,,,,,,,,,,,,,,,,,,,,,,,,,,,,,,,,,,,,,,,
,,,,,,,,2023-08-16_08h37.11.329,HF_wild_card,2022.2.4,Win32,59.73002031,6140bf6523a8f20a2ea1e417,64d2fd46c836a06233681665,64dc7c6aed90c03ed71270e7,,,,,,,decisionTrl,resources/DY.BMP,resources/DB.BMP,Door3,-0.141666624,-0.033333355,1,0,0,4.0682,optionLeft,70,3510,2,22,0,22,0,1,,,,,,,,,,,,,,,,,,,,,,,,,,,,,,,,,,,,,,,
,,,,,,,,2023-08-16_08h37.11.329,HF_wild_card,2022.2.4,Win32,59.73002031,6140bf6523a8f20a2ea1e417,64d2fd46c836a06233681665,64dc7c6aed90c03ed71270e7,,,,,,,decisionTrl,resources/DR.BMP,resources/DG.BMP,WildCard_NonEx,-0.275925884,0.01666666,1,0,0,1.7194,optionLeft,55,3565,2,23,0,23,0,1,,,,,,,,,,,,,,,,,,,,,,,,,,,,,,,,,,,,,,,
,,,,,,,,2023-08-16_08h37.11.329,HF_wild_card,2022.2.4,Win32,59.73002031,6140bf6523a8f20a2ea1e417,64d2fd46c836a06233681665,64dc7c6aed90c03ed71270e7,,,,,,,decisionTrl,resources/DR.BMP,resources/DY.BMP,WildCard_NonEx,-0.234259217,-0.003703718,1,0,0,1.4911,optionLeft,45,3610,2,24,0,24,0,1,,,,,,,,,,,,,,,,,,,,,,,,,,,,,,,,,,,,,,,
,,,,,,,,2023-08-16_08h37.11.329,HF_wild_card,2022.2.4,Win32,59.73002031,6140bf6523a8f20a2ea1e417,64d2fd46c836a06233681665,64dc7c6aed90c03ed71270e7,,,,,,,decisionTrl,resources/DBN.BMP,resources/DG.BMP,Door1,0.25,-0.005555577,1,0,0,2.1431,optionRight,30,3640,2,25,0,25,0,1,,,,,,,,,,,,,,,,,,,,,,,,,,,,,,,,,,,,,,,
,,,,,,,,2023-08-16_08h37.11.329,HF_wild_card,2022.2.4,Win32,59.73002031,6140bf6523a8f20a2ea1e417,64d2fd46c836a06233681665,64dc7c6aed90c03ed71270e7,,,,,,,ctch,resources/DY.BMP,resources/DBN.BMP,Door3,-0.25,0.044444437,1,0,0,2.9074,optionLeft,70,3710,2,26,0,26,0,1,,,,,,,,,,,,,,,,,,,,,,,,,,,,,,,,,,,,,,,
,,,,,,,,2023-08-16_08h37.11.329,HF_wild_card,2022.2.4,Win32,59.73002031,6140bf6523a8f20a2ea1e417,64d2fd46c836a06233681665,64dc7c6aed90c03ed71270e7,,,,,,,sngl,resources/Empty.png,resources/DR.BMP,WildCard_NonEx,0.315740797,0.010185171,1,0,0,1.5642,optionRight,45,3755,2,27,0,27,0,1,,,,,,,,,,,,,,,,,,,,,,,,,,,,,,,,,,,,,,,
,,,,,,,,2023-08-16_08h37.11.329,HF_wild_card,2022.2.4,Win32,59.73002031,6140bf6523a8f20a2ea1e417,64d2fd46c836a06233681665,64dc7c6aed90c03ed71270e7,,,,,,,decisionTrl,resources/DB.BMP,resources/DY.BMP,Door3,0.262962977,-0.014814836,1,0,0,4.6959,optionRight,70,3825,2,28,0,28,0,1,,,,,,,,,,,,,,,,,,,,,,,,,,,,,,,,,,,,,,,
,,,,,,,,2023-08-16_08h37.11.329,HF_wild_card,2022.2.4,Win32,59.73002031,6140bf6523a8f20a2ea1e417,64d2fd46c836a06233681665,64dc7c6aed90c03ed71270e7,,,,,,,decisionTrl,resources/DBN.BMP,resources/DG.BMP,Door1,0.125925912,-0.002777771,1,0,0,3.4593,optionRight,30,3855,2,29,0,29,0,1,,,,,,,,,,,,,,,,,,,,,,,,,,,,,,,,,,,,,,,
,,,,,,,,2023-08-16_08h37.11.329,HF_wild_card,2022.2.4,Win32,59.73002031,6140bf6523a8f20a2ea1e417,64d2fd46c836a06233681665,64dc7c6aed90c03ed71270e7,,,,,,,sngl,resources/DG.BMP,resources/Empty.png,Door1,-0.332407386,0.037037037,1,0,0,0.8851,optionLeft,30,3885,2,30,0,30,0,1,,,,,,,,,,,,,,,,,,,,,,,,,,,,,,,,,,,,,,,
,,,,,,,,2023-08-16_08h37.11.329,HF_wild_card,2022.2.4,Win32,59.73002031,6140bf6523a8f20a2ea1e417,64d2fd46c836a06233681665,64dc7c6aed90c03ed71270e7,,,,,,,sngl,resources/Empty.png,resources/DY.BMP,Door3,0.22592594,0.010185171,1,0,0,1.0378,optionRight,70,3955,2,31,0,31,0,1,,,,,,,,,,,,,,,,,,,,,,,,,,,,,,,,,,,,,,,
,,,,,,,,2023-08-16_08h37.11.329,HF_wild_card,2022.2.4,Win32,59.73002031,6140bf6523a8f20a2ea1e417,64d2fd46c836a06233681665,64dc7c6aed90c03ed71270e7,,,,,,,sngl,resources/DB.BMP,resources/Empty.png,Door4,-0.298148155,0.030555548,1,0,0,1.042,optionLeft,60,4015,2,32,0,32,0,1,,,,,,,,,,,,,,,,,,,,,,,,,,,,,,,,,,,,,,,
,,,,,,,,2023-08-16_08h37.11.329,HF_wild_card,2022.2.4,Win32,59.73002031,6140bf6523a8f20a2ea1e417,64d2fd46c836a06233681665,64dc7c6aed90c03ed71270e7,,,,,,,decisionTrl,resources/DY.BMP,resources/DB.BMP,Door3,-0.222222222,0.011111118,1,0,0,3.5015,optionLeft,70,4085,2,33,0,33,0,1,,,,,,,,,,,,,,,,,,,,,,,,,,,,,,,,,,,,,,,
,,,,,,,,2023-08-16_08h37.11.329,HF_wild_card,2022.2.4,Win32,59.73002031,6140bf6523a8f20a2ea1e417,64d2fd46c836a06233681665,64dc7c6aed90c03ed71270e7,,,,,,,decisionTrl,resources/DG.BMP,resources/DBN.BMP,Door1,-0.296296296,-0.003703718,1,0,0,2.1933,optionLeft,30,4115,2,34,0,34,0,1,,,,,,,,,,,,,,,,,,,,,,,,,,,,,,,,,,,,,,,
,,,,,,,,2023-08-16_08h37.11.329,HF_wild_card,2022.2.4,Win32,59.73002031,6140bf6523a8f20a2ea1e417,64d2fd46c836a06233681665,64dc7c6aed90c03ed71270e7,,,,,,,sngl,resources/Empty.png,resources/DB.BMP,Door4,0.262962977,-0.028703725,1,0,0,0.96,optionRight,80,4195,2,35,0,35,0,1,,,,,,,,,,,,,,,,,,,,,,,,,,,,,,,,,,,,,,,
,,,,,,,,2023-08-16_08h37.11.329,HF_wild_card,2022.2.4,Win32,59.73002031,6140bf6523a8f20a2ea1e417,64d2fd46c836a06233681665,64dc7c6aed90c03ed71270e7,,,,,,,decisionTrl,resources/DG.BMP,resources/DBN.BMP,Door1,-0.181481467,0.013888889,1,0,0,1.4888,optionLeft,30,4225,2,36,0,36,0,1,,,,,,,,,,,,,,,,,,,,,,,,,,,,,,,,,,,,,,,
,,,,,,,,2023-08-16_08h37.11.329,HF_wild_card,2022.2.4,Win32,59.73002031,6140bf6523a8f20a2ea1e417,64d2fd46c836a06233681665,64dc7c6aed90c03ed71270e7,,,,,,,decisionTrl,resources/DBN.BMP,resources/DG.BMP,Door1,0.319444444,-0.015740748,1,0,0,1.5998,optionRight,30,4255,2,37,0,37,0,1,,,,,,,,,,,,,,,,,,,,,,,,,,,,,,,,,,,,,,,
,,,,,,,,2023-08-16_08h37.11.329,HF_wild_card,2022.2.4,Win32,59.73002031,6140bf6523a8f20a2ea1e417,64d2fd46c836a06233681665,64dc7c6aed90c03ed71270e7,,,,,,,ctch,resources/DB.BMP,resources/DG.BMP,Door1,0.002777806,-0.006481489,1,0,0,0.5158,optionRight,30,4285,2,38,0,38,0,1,,,,,,,,,,,,,,,,,,,,,,,,,,,,,,,,,,,,,,,
,,,,,,,,2023-08-16_08h37.11.329,HF_wild_card,2022.2.4,Win32,59.73002031,6140bf6523a8f20a2ea1e417,64d2fd46c836a06233681665,64dc7c6aed90c03ed71270e7,,,,,,,sngl,resources/DY.BMP,resources/Empty.png,Door3,-0.217592593,0.032407407,1,0,0,0.9518,optionLeft,70,4355,2,39,0,39,0,1,,,,,,,,,,,,,,,,,,,,,,,,,,,,,,,,,,,,,,,
,,,,,,,,2023-08-16_08h37.11.329,HF_wild_card,2022.2.4,Win32,59.73002031,6140bf6523a8f20a2ea1e417,64d2fd46c836a06233681665,64dc7c6aed90c03ed71270e7,,,,,,,decisionTrl,resources/DB.BMP,resources/DY.BMP,Door3,0.202777792,-0.076851845,1,0,0,2.5453,optionRight,70,4425,2,40,0,40,0,1,,,,,,,,,,,,,,,,,,,,,,,,,,,,,,,,,,,,,,,
,,,,,,,,2023-08-16_08h37.11.329,HF_wild_card,2022.2.4,Win32,59.73002031,6140bf6523a8f20a2ea1e417,64d2fd46c836a06233681665,64dc7c6aed90c03ed71270e7,,,,,,,sngl,resources/Empty.png,resources/DR.BMP,WildCard_NonEx,0.252777806,-0.051851873,1,0,0,1.373,optionRight,55,4480,2,41,0,41,0,1,,,,,,,,,,,,,,,,,,,,,,,,,,,,,,,,,,,,,,,
,,,,,,,,2023-08-16_08h37.11.329,HF_wild_card,2022.2.4,Win32,59.73002031,6140bf6523a8f20a2ea1e417,64d2fd46c836a06233681665,64dc7c6aed90c03ed71270e7,,,,,,,sngl,resources/DR.BMP,resources/Empty.png,WildCard_NonEx,-0.279629601,0.041666667,1,0,0,1.3363,optionLeft,45,4525,2,42,0,42,0,1,,,,,,,,,,,,,,,,,,,,,,,,,,,,,,,,,,,,,,,
,,,,,,,,2023-08-16_08h37.11.329,HF_wild_card,2022.2.4,Win32,59.73002031,6140bf6523a8f20a2ea1e417,64d2fd46c836a06233681665,64dc7c6aed90c03ed71270e7,,,,,,,ctch,resources/DBN.BMP,resources/DY.BMP,Door2,-0.220370328,0.023148148,1,0,0,1.8416,optionLeft,20,4545,2,43,0,43,0,1,,,,,,,,,,,,,,,,,,,,,,,,,,,,,,,,,,,,,,,
,,,,,,,,2023-08-16_08h37.11.329,HF_wild_card,2022.2.4,Win32,59.73002031,6140bf6523a8f20a2ea1e417,64d2fd46c836a06233681665,64dc7c6aed90c03ed71270e7,,,,,,,,,,,,,,,,,,,,,,,,,,1,0,1,0,1,,,,,,,,,,,,,,,,,,,,,,,,,,,,,,,,,,
,,,,,,,,2023-08-16_08h37.11.329,HF_wild_card,2022.2.4,Win32,59.73002031,6140bf6523a8f20a2ea1e417,64d2fd46c836a06233681665,64dc7c6aed90c03ed71270e7,,,,,,,decisionTrl,resources/DR.BMP,resources/DY.BMP,WildCard_NonEx,-0.268518519,-0.141666695,1,0,0,1.8639,optionLeft,55,4600,3,0,0,0,0,1,,,,,,,,,,,,,,,,,,,,,,,,,,,,,,,,,,,,,,,
,,,,,,,,2023-08-16_08h37.11.329,HF_wild_card,2022.2.4,Win32,59.73002031,6140bf6523a8f20a2ea1e417,64d2fd46c836a06233681665,64dc7c6aed90c03ed71270e7,,,,,,,decisionTrl,resources/DBN.BMP,resources/DG.BMP,Door1,0.235185199,-0.029629637,1,0,0,1.3803,optionRight,30,4630,3,1,0,1,0,1,,,,,,,,,,,,,,,,,,,,,,,,,,,,,,,,,,,,,,,
,,,,,,,,2023-08-16_08h37.11.329,HF_wild_card,2022.2.4,Win32,59.73002031,6140bf6523a8f20a2ea1e417,64d2fd46c836a06233681665,64dc7c6aed90c03ed71270e7,,,,,,,decisionTrl,resources/DG.BMP,resources/DBN.BMP,Door2,0.192592621,-0.011111118,1,0,0,1.5358,optionRight,40,4670,3,2,0,2,0,1,,,,,,,,,,,,,,,,,,,,,,,,,,,,,,,,,,,,,,,
,,,,,,,,2023-08-16_08h37.11.329,HF_wild_card,2022.2.4,Win32,59.73002031,6140bf6523a8f20a2ea1e417,64d2fd46c836a06233681665,64dc7c6aed90c03ed71270e7,,,,,,,decisionTrl,resources/DBN.BMP,resources/DG.BMP,Door2,-0.223148134,0.003703683,1,0,0,1.1089,optionLeft,20,4690,3,3,0,3,0,1,,,,,,,,,,,,,,,,,,,,,,,,,,,,,,,,,,,,,,,
,,,,,,,,2023-08-16_08h37.11.329,HF_wild_card,2022.2.4,Win32,59.73002031,6140bf6523a8f20a2ea1e417,64d2fd46c836a06233681665,64dc7c6aed90c03ed71270e7,,,,,,,decisionTrl,resources/DR.BMP,resources/DG.BMP,WildCard_NonEx,-0.23055557,-0.054629644,1,0,0,1.5901,optionLeft,45,4735,3,4,0,4,0,1,,,,,,,,,,,,,,,,,,,,,,,,,,,,,,,,,,,,,,,
,,,,,,,,2023-08-16_08h37.11.329,HF_wild_card,2022.2.4,Win32,59.73002031,6140bf6523a8f20a2ea1e417,64d2fd46c836a06233681665,64dc7c6aed90c03ed71270e7,,,,,,,decisionTrl,resources/DB.BMP,resources/DY.BMP,Door4,-0.283333319,-0.075925933,1,0,0,1.7229,optionLeft,80,4815,3,5,0,5,0,1,,,,,,,,,,,,,,,,,,,,,,,,,,,,,,,,,,,,,,,
,,,,,,,,2023-08-16_08h37.11.329,HF_wild_card,2022.2.4,Win32,59.73002031,6140bf6523a8f20a2ea1e417,64d2fd46c836a06233681665,64dc7c6aed90c03ed71270e7,,,,,,,sngl,resources/Empty.png,resources/DG.BMP,Door1,0.196296339,-0.029629637,1,0,0,1.4888,optionRight,30,4845,3,6,0,6,0,1,,,,,,,,,,,,,,,,,,,,,,,,,,,,,,,,,,,,,,,
,,,,,,,,2023-08-16_08h37.11.329,HF_wild_card,2022.2.4,Win32,59.73002031,6140bf6523a8f20a2ea1e417,64d2fd46c836a06233681665,64dc7c6aed90c03ed71270e7,,,,,,,sngl,resources/Empty.png,resources/DB.BMP,Door4,0.199999986,-0.045370384,1,0,0,1.5022,optionRight,60,4905,3,7,0,7,0,1,,,,,,,,,,,,,,,,,,,,,,,,,,,,,,,,,,,,,,,
,,,,,,,,2023-08-16_08h37.11.329,HF_wild_card,2022.2.4,Win32,59.73002031,6140bf6523a8f20a2ea1e417,64d2fd46c836a06233681665,64dc7c6aed90c03ed71270e7,,,,,,,sngl,resources/Empty.png,resources/DR.BMP,WildCard_NonEx,0.22592594,-0.036111125,1,0,0,1.1678,optionRight,45,4950,3,8,0,8,0,1,,,,,,,,,,,,,,,,,,,,,,,,,,,,,,,,,,,,,,,
,,,,,,,,2023-08-16_08h37.11.329,HF_wild_card,2022.2.4,Win32,59.73002031,6140bf6523a8f20a2ea1e417,64d2fd46c836a06233681665,64dc7c6aed90c03ed71270e7,,,,,,,sngl,resources/DR.BMP,resources/Empty.png,WildCard_NonEx,-0.288888861,0.023148148,1,0,0,1.5266,optionLeft,45,4995,3,9,0,9,0,1,,,,,,,,,,,,,,,,,,,,,,,,,,,,,,,,,,,,,,,
,,,,,,,,2023-08-16_08h37.11.329,HF_wild_card,2022.2.4,Win32,59.73002031,6140bf6523a8f20a2ea1e417,64d2fd46c836a06233681665,64dc7c6aed90c03ed71270e7,,,,,,,decisionTrl,resources/DB.BMP,resources/DR.BMP,Door4,-0.359259252,-0.009259259,1,0,0,2.191,optionLeft,60,5055,3,10,0,10,0,1,,,,,,,,,,,,,,,,,,,,,,,,,,,,,,,,,,,,,,,
,,,,,,,,2023-08-16_08h37.11.329,HF_wild_card,2022.2.4,Win32,59.73002031,6140bf6523a8f20a2ea1e417,64d2fd46c836a06233681665,64dc7c6aed90c03ed71270e7,,,,,,,decisionTrl,resources/DY.BMP,resources/DB.BMP,Door4,0.233333376,-0.047222243,1,0,0,2.4014,optionRight,60,5115,3,11,0,11,0,1,,,,,,,,,,,,,,,,,,,,,,,,,,,,,,,,,,,,,,,
,,,,,,,,2023-08-16_08h37.11.329,HF_wild_card,2022.2.4,Win32,59.73002031,6140bf6523a8f20a2ea1e417,64d2fd46c836a06233681665,64dc7c6aed90c03ed71270e7,,,,,,,sngl,resources/Empty.png,resources/DBN.BMP,Door2,0.199999986,-0.023148148,1,0,0,1.7407,optionRight,20,5135,3,12,0,12,0,1,,,,,,,,,,,,,,,,,,,,,,,,,,,,,,,,,,,,,,,
,,,,,,,,2023-08-16_08h37.11.329,HF_wild_card,2022.2.4,Win32,59.73002031,6140bf6523a8f20a2ea1e417,64d2fd46c836a06233681665,64dc7c6aed90c03ed71270e7,,,,,,,ctch,resources/DG.BMP,resources/DB.BMP,Door1,-0.172222208,-0.010185206,1,0,0,4.3814,optionLeft,30,5165,3,13,0,13,0,1,,,,,,,,,,,,,,,,,,,,,,,,,,,,,,,,,,,,,,,
,,,,,,,,2023-08-16_08h37.11.329,HF_wild_card,2022.2.4,Win32,59.73002031,6140bf6523a8f20a2ea1e417,64d2fd46c836a06233681665,64dc7c6aed90c03ed71270e7,,,,,,,ctch,resources/DBN.BMP,resources/DY.BMP,Door3,0.160185213,0.032407407,1,0,0,5.6616,optionRight,70,5235,3,14,0,14,0,1,,,,,,,,,,,,,,,,,,,,,,,,,,,,,,,,,,,,,,,
,,,,,,,,2023-08-16_08h37.11.329,HF_wild_card,2022.2.4,Win32,59.73002031,6140bf6523a8f20a2ea1e417,64d2fd46c836a06233681665,64dc7c6aed90c03ed71270e7,,,,,,,ctch,resources/DB.BMP,resources/DG.BMP,Door1,0.228703746,0.013888889,1,0,0,3.5104,optionRight,30,5265,3,15,0,15,0,1,,,,,,,,,,,,,,,,,,,,,,,,,,,,,,,,,,,,,,,
,,,,,,,,2023-08-16_08h37.11.329,HF_wild_card,2022.2.4,Win32,59.73002031,6140bf6523a8f20a2ea1e417,64d2fd46c836a06233681665,64dc7c6aed90c03ed71270e7,,,,,,,ctch,resources/DG.BMP,resources/DB.BMP,Door1,-0.248148106,0.025000007,1,0,0,2.8125,optionLeft,30,5295,3,16,0,16,0,1,,,,,,,,,,,,,,,,,,,,,,,,,,,,,,,,,,,,,,,
,,,,,,,,2023-08-16_08h37.11.329,HF_wild_card,2022.2.4,Win32,59.73002031,6140bf6523a8f20a2ea1e417,64d2fd46c836a06233681665,64dc7c6aed90c03ed71270e7,,,,,,,decisionTrl,resources/DG.BMP,resources/DBN.BMP,Door1,-0.235185199,0.023148148,1,0,0,1.8416,optionLeft,30,5325,3,17,0,17,0,1,,,,,,,,,,,,,,,,,,,,,,,,,,,,,,,,,,,,,,,
,,,,,,,,2023-08-16_08h37.11.329,HF_wild_card,2022.2.4,Win32,59.73002031,6140bf6523a8f20a2ea1e417,64d2fd46c836a06233681665,64dc7c6aed90c03ed71270e7,,,,,,,ctch,resources/DY.BMP,resources/DBN.BMP,Door2,0.241666653,0.00462963,1,0,0,1.0042,optionRight,20,5345,3,18,0,18,0,1,,,,,,,,,,,,,,,,,,,,,,,,,,,,,,,,,,,,,,,
,,,,,,,,2023-08-16_08h37.11.329,HF_wild_card,2022.2.4,Win32,59.73002031,6140bf6523a8f20a2ea1e417,64d2fd46c836a06233681665,64dc7c6aed90c03ed71270e7,,,,,,,decisionTrl,resources/DBN.BMP,resources/DR.BMP,WildCard_NonEx,0.40370376,-0.137037065,1,0,0,1.2003,optionRight,55,5400,3,19,0,19,0,1,,,,,,,,,,,,,,,,,,,,,,,,,,,,,,,,,,,,,,,
,,,,,,,,2023-08-16_08h37.11.329,HF_wild_card,2022.2.4,Win32,59.73002031,6140bf6523a8f20a2ea1e417,64d2fd46c836a06233681665,64dc7c6aed90c03ed71270e7,,,,,,,sngl,resources/DB.BMP,resources/Empty.png,Door4,-0.246296282,-0.081481474,1,0,0,77.7254,optionLeft,80,5480,3,20,0,20,0,1,,,,,,,,,,,,,,,,,,,,,,,,,,,,,,,,,,,,,,,
,,,,,,,,2023-08-16_08h37.11.329,HF_wild_card,2022.2.4,Win32,59.73002031,6140bf6523a8f20a2ea1e417,64d2fd46c836a06233681665,64dc7c6aed90c03ed71270e7,,,,,,,sngl,resources/DR.BMP,resources/Empty.png,WildCard_NonEx,-0.321296303,0.002777771,1,0,0,1.0172,optionLeft,55,5535,3,21,0,21,0,1,,,,,,,,,,,,,,,,,,,,,,,,,,,,,,,,,,,,,,,
,,,,,,,,2023-08-16_08h37.11.329,HF_wild_card,2022.2.4,Win32,59.73002031,6140bf6523a8f20a2ea1e417,64d2fd46c836a06233681665,64dc7c6aed90c03ed71270e7,,,,,,,ctch,resources/DBN.BMP,resources/DY.BMP,Door3,0.243518547,-0.018518519,1,0,0,4.5563,optionRight,70,5605,3,22,0,22,0,1,,,,,,,,,,,,,,,,,,,,,,,,,,,,,,,,,,,,,,,
,,,,,,,,2023-08-16_08h37.11.329,HF_wild_card,2022.2.4,Win32,59.73002031,6140bf6523a8f20a2ea1e417,64d2fd46c836a06233681665,64dc7c6aed90c03ed71270e7,,,,,,,decisionTrl,resources/DY.BMP,resources/DB.BMP,Door3,-0.277777778,0.023148148,1,0,0,1.1279,optionLeft,70,5675,3,23,0,23,0,1,,,,,,,,,,,,,,,,,,,,,,,,,,,,,,,,,,,,,,,
,,,,,,,,2023-08-16_08h37.11.329,HF_wild_card,2022.2.4,Win32,59.73002031,6140bf6523a8f20a2ea1e417,64d2fd46c836a06233681665,64dc7c6aed90c03ed71270e7,,,,,,,sngl,resources/Empty.png,resources/DY.BMP,Door3,0.250925912,-0.045370384,1,0,0,0.9371,optionRight,70,5745,3,24,0,24,0,1,,,,,,,,,,,,,,,,,,,,,,,,,,,,,,,,,,,,,,,
,,,,,,,,2023-08-16_08h37.11.329,HF_wild_card,2022.2.4,Win32,59.73002031,6140bf6523a8f20a2ea1e417,64d2fd46c836a06233681665,64dc7c6aed90c03ed71270e7,,,,,,,decisionTrl,resources/DB.BMP,resources/DY.BMP,Door3,0.292592578,-0.044444437,1,0,0,0.9431,optionRight,70,5815,3,25,0,25,0,1,,,,,,,,,,,,,,,,,,,,,,,,,,,,,,,,,,,,,,,
,,,,,,,,2023-08-16_08h37.11.329,HF_wild_card,2022.2.4,Win32,59.73002031,6140bf6523a8f20a2ea1e417,64d2fd46c836a06233681665,64dc7c6aed90c03ed71270e7,,,,,,,sngl,resources/DG.BMP,resources/Empty.png,Door1,-0.005555541,-0.000925947,1,0,0,0.1128,optionLeft,30,5845,3,26,0,26,0,1,,,,,,,,,,,,,,,,,,,,,,,,,,,,,,,,,,,,,,,
,,,,,,,,2023-08-16_08h37.11.329,HF_wild_card,2022.2.4,Win32,59.73002031,6140bf6523a8f20a2ea1e417,64d2fd46c836a06233681665,64dc7c6aed90c03ed71270e7,,,,,,,sngl,resources/DY.BMP,resources/Empty.png,Door3,-0.195370356,-0.013888889,1,0,0,0.8626,optionLeft,70,5915,3,27,0,27,0,1,,,,,,,,,,,,,,,,,,,,,,,,,,,,,,,,,,,,,,,
,,,,,,,,2023-08-16_08h37.11.329,HF_wild_card,2022.2.4,Win32,59.73002031,6140bf6523a8f20a2ea1e417,64d2fd46c836a06233681665,64dc7c6aed90c03ed71270e7,,,,,,,decisionTrl,resources/DY.BMP,resources/DB.BMP,Door3,-0.237037023,0.006481489,1,0,0,0.9525,optionLeft,70,5985,3,28,0,28,0,1,,,,,,,,,,,,,,,,,,,,,,,,,,,,,,,,,,,,,,,
,,,,,,,,2023-08-16_08h37.11.329,HF_wild_card,2022.2.4,Win32,59.73002031,6140bf6523a8f20a2ea1e417,64d2fd46c836a06233681665,64dc7c6aed90c03ed71270e7,,,,,,,ctch,resources/DY.BMP,resources/DBN.BMP,Door3,-0.237962935,-0.002777771,1,0,0,1.2091,optionLeft,70,6055,3,29,0,29,0,1,,,,,,,,,,,,,,,,,,,,,,,,,,,,,,,,,,,,,,,
,,,,,,,,2023-08-16_08h37.11.329,HF_wild_card,2022.2.4,Win32,59.73002031,6140bf6523a8f20a2ea1e417,64d2fd46c836a06233681665,64dc7c6aed90c03ed71270e7,,,,,,,decisionTrl,resources/DG.BMP,resources/DBN.BMP,Door1,-0.184259273,0.008333312,1,0,0,2.7739,optionLeft,30,6085,3,30,0,30,0,1,,,,,,,,,,,,,,,,,,,,,,,,,,,,,,,,,,,,,,,
,,,,,,,,2023-08-16_08h37.11.329,HF_wild_card,2022.2.4,Win32,59.73002031,6140bf6523a8f20a2ea1e417,64d2fd46c836a06233681665,64dc7c6aed90c03ed71270e7,,,,,,,decisionTrl,resources/DBN.BMP,resources/DG.BMP,Door2,-0.22129631,0.0074074,1,0,0,1.7954,optionLeft,20,6105,3,31,0,31,0,1,,,,,,,,,,,,,,,,,,,,,,,,,,,,,,,,,,,,,,,
,,,,,,,,2023-08-16_08h37.11.329,HF_wild_card,2022.2.4,Win32,59.73002031,6140bf6523a8f20a2ea1e417,64d2fd46c836a06233681665,64dc7c6aed90c03ed71270e7,,,,,,,decisionTrl,resources/DR.BMP,resources/DB.BMP,Door4,0.216666681,-0.065740762,1,0,0,2.4144,optionRight,60,6165,3,32,0,32,0,1,,,,,,,,,,,,,,,,,,,,,,,,,,,,,,,,,,,,,,,
,,,,,,,,2023-08-16_08h37.11.329,HF_wild_card,2022.2.4,Win32,59.73002031,6140bf6523a8f20a2ea1e417,64d2fd46c836a06233681665,64dc7c6aed90c03ed71270e7,,,,,,,decisionTrl,resources/DB.BMP,resources/DY.BMP,Door3,0.303703732,-0.047222243,1,0,0,0.9376,optionRight,70,6235,3,33,0,33,0,1,,,,,,,,,,,,,,,,,,,,,,,,,,,,,,,,,,,,,,,
,,,,,,,,2023-08-16_08h37.11.329,HF_wild_card,2022.2.4,Win32,59.73002031,6140bf6523a8f20a2ea1e417,64d2fd46c836a06233681665,64dc7c6aed90c03ed71270e7,,,,,,,decisionTrl,resources/DB.BMP,resources/DY.BMP,Door3,0.263888889,-0.014814836,1,0,0,1.4682,optionRight,70,6305,3,34,0,34,0,1,,,,,,,,,,,,,,,,,,,,,,,,,,,,,,,,,,,,,,,
,,,,,,,,2023-08-16_08h37.11.329,HF_wild_card,2022.2.4,Win32,59.73002031,6140bf6523a8f20a2ea1e417,64d2fd46c836a06233681665,64dc7c6aed90c03ed71270e7,,,,,,,decisionTrl,resources/DY.BMP,resources/DB.BMP,Door3,-0.318518497,0.029629637,1,0,0,1.1506,optionLeft,70,6375,3,35,0,35,0,1,,,,,,,,,,,,,,,,,,,,,,,,,,,,,,,,,,,,,,,
,,,,,,,,2023-08-16_08h37.11.329,HF_wild_card,2022.2.4,Win32,59.73002031,6140bf6523a8f20a2ea1e417,64d2fd46c836a06233681665,64dc7c6aed90c03ed71270e7,,,,,,,decisionTrl,resources/DG.BMP,resources/DBN.BMP,Door1,-0.233333305,-0.005555577,1,0,0,1.9251,optionLeft,30,6405,3,36,0,36,0,1,,,,,,,,,,,,,,,,,,,,,,,,,,,,,,,,,,,,,,,
,,,,,,,,2023-08-16_08h37.11.329,HF_wild_card,2022.2.4,Win32,59.73002031,6140bf6523a8f20a2ea1e417,64d2fd46c836a06233681665,64dc7c6aed90c03ed71270e7,,,,,,,decisionTrl,resources/DG.BMP,resources/DR.BMP,WildCard_NonEx,0.238888917,-0.040740755,1,0,0,1.25,optionRight,55,6460,3,37,0,37,0,1,,,,,,,,,,,,,,,,,,,,,,,,,,,,,,,,,,,,,,,
,,,,,,,,2023-08-16_08h37.11.329,HF_wild_card,2022.2.4,Win32,59.73002031,6140bf6523a8f20a2ea1e417,64d2fd46c836a06233681665,64dc7c6aed90c03ed71270e7,,,,,,,ctch,resources/DB.BMP,resources/DG.BMP,Door4,-0.286111125,0.01666666,1,0,0,2.8347,optionLeft,60,6520,3,38,0,38,0,1,,,,,,,,,,,,,,,,,,,,,,,,,,,,,,,,,,,,,,,
,,,,,,,,2023-08-16_08h37.11.329,HF_wild_card,2022.2.4,Win32,59.73002031,6140bf6523a8f20a2ea1e417,64d2fd46c836a06233681665,64dc7c6aed90c03ed71270e7,,,,,,,decisionTrl,resources/DR.BMP,resources/DBN.BMP,WildCard_NonEx,-0.259259259,-0.033333355,1,0,0,1.573,optionLeft,45,6565,3,39,0,39,0,1,,,,,,,,,,,,,,,,,,,,,,,,,,,,,,,,,,,,,,,
,,,,,,,,2023-08-16_08h37.11.329,HF_wild_card,2022.2.4,Win32,59.73002031,6140bf6523a8f20a2ea1e417,64d2fd46c836a06233681665,64dc7c6aed90c03ed71270e7,,,,,,,decisionTrl,resources/DY.BMP,resources/DR.BMP,Door3,-0.219444416,-0.010185206,1,0,0,1.1577,optionLeft,70,6635,3,40,0,40,0,1,,,,,,,,,,,,,,,,,,,,,,,,,,,,,,,,,,,,,,,
,,,,,,,,2023-08-16_08h37.11.329,HF_wild_card,2022.2.4,Win32,59.73002031,6140bf6523a8f20a2ea1e417,64d2fd46c836a06233681665,64dc7c6aed90c03ed71270e7,,,,,,,sngl,resources/DBN.BMP,resources/Empty.png,Door2,-0.250925912,0.047222208,1,0,0,1.2957,optionLeft,40,6675,3,41,0,41,0,1,,,,,,,,,,,,,,,,,,,,,,,,,,,,,,,,,,,,,,,
,,,,,,,,2023-08-16_08h37.11.329,HF_wild_card,2022.2.4,Win32,59.73002031,6140bf6523a8f20a2ea1e417,64d2fd46c836a06233681665,64dc7c6aed90c03ed71270e7,,,,,,,decisionTrl,resources/DBN.BMP,resources/DG.BMP,Door1,0.213888875,-0.021296289,1,0,0,2.8458,optionRight,30,6705,3,42,0,42,0,1,,,,,,,,,,,,,,,,,,,,,,,,,,,,,,,,,,,,,,,
,,,,,,,,2023-08-16_08h37.11.329,HF_wild_card,2022.2.4,Win32,59.73002031,6140bf6523a8f20a2ea1e417,64d2fd46c836a06233681665,64dc7c6aed90c03ed71270e7,,,,,,,sngl,resources/Empty.png,resources/DR.BMP,WildCard_NonEx,0.271296325,-0.014814836,1,0,0,0.9648,optionRight,55,6760,3,43,0,43,0,1,,,,,,,,,,,,,,,,,,,,,,,,,,,,,,,,,,,,,,,
,,,,,,,,2023-08-16_08h37.11.329,HF_wild_card,2022.2.4,Win32,59.73002031,6140bf6523a8f20a2ea1e417,64d2fd46c836a06233681665,64dc7c6aed90c03ed71270e7,,,,,,,,,,,,,,,,,,,,,,,,,,2,0,2,0,1,,,,,,,,,,,,,,,,,,,,,,,,,,,,,,,,,,
,,,,,,,,2023-08-16_08h37.11.329,HF_wild_card,2022.2.4,Win32,59.73002031,6140bf6523a8f20a2ea1e417,64d2fd46c836a06233681665,64dc7c6aed90c03ed71270e7,,,,,,,decisionTrl,resources/DG.BMP,resources/DP.BMP,WildCard_Ex,0.030555584,-0.286111125,1,0,0,0.2659,optionRight,45,6805,4,0,0,0,0,1,,,,,,,,,,,,,,,,,,,,,,,,,,,,,,,,,,,,,,,
,,,,,,,,2023-08-16_08h37.11.329,HF_wild_card,2022.2.4,Win32,59.73002031,6140bf6523a8f20a2ea1e417,64d2fd46c836a06233681665,64dc7c6aed90c03ed71270e7,,,,,,,decisionTrl,resources/DP.BMP,resources/DY.BMP,Door3,0.192592621,0.002777771,1,0,0,1.2192,optionRight,70,6875,4,1,0,1,0,1,,,,,,,,,,,,,,,,,,,,,,,,,,,,,,,,,,,,,,,
,,,,,,,,2023-08-16_08h37.11.329,HF_wild_card,2022.2.4,Win32,59.73002031,6140bf6523a8f20a2ea1e417,64d2fd46c836a06233681665,64dc7c6aed90c03ed71270e7,,,,,,,sngl,resources/DB.BMP,resources/Empty.png,Door4,-0.258333347,-0.020370377,1,0,0,1.0196,optionLeft,60,6935,4,2,0,2,0,1,,,,,,,,,,,,,,,,,,,,,,,,,,,,,,,,,,,,,,,
,,,,,,,,2023-08-16_08h37.11.329,HF_wild_card,2022.2.4,Win32,59.73002031,6140bf6523a8f20a2ea1e417,64d2fd46c836a06233681665,64dc7c6aed90c03ed71270e7,,,,,,,sngl,resources/DP.BMP,resources/Empty.png,WildCard_Ex,-0.286111125,0.015740748,1,0,0,1.0538,optionLeft,55,6990,4,3,0,3,0,1,,,,,,,,,,,,,,,,,,,,,,,,,,,,,,,,,,,,,,,
,,,,,,,,2023-08-16_08h37.11.329,HF_wild_card,2022.2.4,Win32,59.73002031,6140bf6523a8f20a2ea1e417,64d2fd46c836a06233681665,64dc7c6aed90c03ed71270e7,,,,,,,ctch,resources/DB.BMP,resources/DG.BMP,Door4,-0.305555556,0.04074072,1,0,0,2.3303,optionLeft,80,7070,4,4,0,4,0,1,,,,,,,,,,,,,,,,,,,,,,,,,,,,,,,,,,,,,,,
,,,,,,,,2023-08-16_08h37.11.329,HF_wild_card,2022.2.4,Win32,59.73002031,6140bf6523a8f20a2ea1e417,64d2fd46c836a06233681665,64dc7c6aed90c03ed71270e7,,,,,,,decisionTrl,resources/DB.BMP,resources/DY.BMP,Door4,-0.169444402,-0.001851859,1,0,0,1.7991,optionLeft,60,7130,4,5,0,5,0,1,,,,,,,,,,,,,,,,,,,,,,,,,,,,,,,,,,,,,,,
,,,,,,,,2023-08-16_08h37.11.329,HF_wild_card,2022.2.4,Win32,59.73002031,6140bf6523a8f20a2ea1e417,64d2fd46c836a06233681665,64dc7c6aed90c03ed71270e7,,,,,,,sngl,resources/DG.BMP,resources/Empty.png,Door1,-0.27870369,0.02407406,1,0,0,1.0654,optionLeft,30,7160,4,6,0,6,0,1,,,,,,,,,,,,,,,,,,,,,,,,,,,,,,,,,,,,,,,
,,,,,,,,2023-08-16_08h37.11.329,HF_wild_card,2022.2.4,Win32,59.73002031,6140bf6523a8f20a2ea1e417,64d2fd46c836a06233681665,64dc7c6aed90c03ed71270e7,,,,,,,ctch,resources/DB.BMP,resources/DG.BMP,Door1,0.312037009,0.0074074,1,0,0,3.3634,optionRight,30,7190,4,7,0,7,0,1,,,,,,,,,,,,,,,,,,,,,,,,,,,,,,,,,,,,,,,
,,,,,,,,2023-08-16_08h37.11.329,HF_wild_card,2022.2.4,Win32,59.73002031,6140bf6523a8f20a2ea1e417,64d2fd46c836a06233681665,64dc7c6aed90c03ed71270e7,,,,,,,sngl,resources/DP.BMP,resources/Empty.png,WildCard_Ex,-0.308333326,0,1,0,0,0.9864,optionLeft,45,7235,4,8,0,8,0,1,,,,,,,,,,,,,,,,,,,,,,,,,,,,,,,,,,,,,,,
,,,,,,,,2023-08-16_08h37.11.329,HF_wild_card,2022.2.4,Win32,59.73002031,6140bf6523a8f20a2ea1e417,64d2fd46c836a06233681665,64dc7c6aed90c03ed71270e7,,,,,,,decisionTrl,resources/DB.BMP,resources/DY.BMP,Door3,0.252777806,0.037962949,1,0,0,2.3151,optionRight,70,7305,4,9,0,9,0,1,,,,,,,,,,,,,,,,,,,,,,,,,,,,,,,,,,,,,,,
,,,,,,,,2023-08-16_08h37.11.329,HF_wild_card,2022.2.4,Win32,59.73002031,6140bf6523a8f20a2ea1e417,64d2fd46c836a06233681665,64dc7c6aed90c03ed71270e7,,,,,,,sngl,resources/DY.BMP,resources/Empty.png,Door3,-0.324999986,0.011111118,1,0,0,1.0525,optionLeft,70,7375,4,10,0,10,0,1,,,,,,,,,,,,,,,,,,,,,,,,,,,,,,,,,,,,,,,
,,,,,,,,2023-08-16_08h37.11.329,HF_wild_card,2022.2.4,Win32,59.73002031,6140bf6523a8f20a2ea1e417,64d2fd46c836a06233681665,64dc7c6aed90c03ed71270e7,,,,,,,decisionTrl,resources/DY.BMP,resources/DP.BMP,Door3,-0.228703675,0.000925912,1,0,0,2.5862,optionLeft,70,7445,4,11,0,11,0,1,,,,,,,,,,,,,,,,,,,,,,,,,,,,,,,,,,,,,,,
,,,,,,,,2023-08-16_08h37.11.329,HF_wild_card,2022.2.4,Win32,59.73002031,6140bf6523a8f20a2ea1e417,64d2fd46c836a06233681665,64dc7c6aed90c03ed71270e7,,,,,,,decisionTrl,resources/DY.BMP,resources/DB.BMP,Door3,-0.306481467,0.003703683,1,0,0,1.9531,optionLeft,70,7515,4,12,0,12,0,1,,,,,,,,,,,,,,,,,,,,,,,,,,,,,,,,,,,,,,,
,,,,,,,,2023-08-16_08h37.11.329,HF_wild_card,2022.2.4,Win32,59.73002031,6140bf6523a8f20a2ea1e417,64d2fd46c836a06233681665,64dc7c6aed90c03ed71270e7,,,,,,,decisionTrl,resources/DBN.BMP,resources/DG.BMP,Door1,0.29814812,-0.008333347,1,0,0,3.4245,optionRight,30,7545,4,13,0,13,0,1,,,,,,,,,,,,,,,,,,,,,,,,,,,,,,,,,,,,,,,
,,,,,,,,2023-08-16_08h37.11.329,HF_wild_card,2022.2.4,Win32,59.73002031,6140bf6523a8f20a2ea1e417,64d2fd46c836a06233681665,64dc7c6aed90c03ed71270e7,,,,,,,decisionTrl,resources/DY.BMP,resources/DB.BMP,Door3,-0.307407414,0.04074072,1,0,0,1.3706,optionLeft,70,7615,4,14,0,14,0,1,,,,,,,,,,,,,,,,,,,,,,,,,,,,,,,,,,,,,,,
,,,,,,,,2023-08-16_08h37.11.329,HF_wild_card,2022.2.4,Win32,59.73002031,6140bf6523a8f20a2ea1e417,64d2fd46c836a06233681665,64dc7c6aed90c03ed71270e7,,,,,,,sngl,resources/DBN.BMP,resources/Empty.png,Door2,-0.178703661,0.039814808,1,0,0,3.967,optionLeft,20,7635,4,15,0,15,0,1,,,,,,,,,,,,,,,,,,,,,,,,,,,,,,,,,,,,,,,
,,,,,,,,2023-08-16_08h37.11.329,HF_wild_card,2022.2.4,Win32,59.73002031,6140bf6523a8f20a2ea1e417,64d2fd46c836a06233681665,64dc7c6aed90c03ed71270e7,,,,,,,decisionTrl,resources/DB.BMP,resources/DY.BMP,Door3,0.224074116,-0.01666666,1,0,0,1.999,optionRight,70,7705,4,16,0,16,0,1,,,,,,,,,,,,,,,,,,,,,,,,,,,,,,,,,,,,,,,
,,,,,,,,2023-08-16_08h37.11.329,HF_wild_card,2022.2.4,Win32,59.73002031,6140bf6523a8f20a2ea1e417,64d2fd46c836a06233681665,64dc7c6aed90c03ed71270e7,,,,,,,sngl,resources/Empty.png,resources/DP.BMP,WildCard_Ex,0.233333376,-0.013888889,1,0,0,0.9986,optionRight,45,7750,4,17,0,17,0,1,,,,,,,,,,,,,,,,,,,,,,,,,,,,,,,,,,,,,,,
,,,,,,,,2023-08-16_08h37.11.329,HF_wild_card,2022.2.4,Win32,59.73002031,6140bf6523a8f20a2ea1e417,64d2fd46c836a06233681665,64dc7c6aed90c03ed71270e7,,,,,,,ctch,resources/DG.BMP,resources/DB.BMP,Door4,0.267592607,-0.037962984,1,0,0,1.006,optionRight,80,7830,4,18,0,18,0,1,,,,,,,,,,,,,,,,,,,,,,,,,,,,,,,,,,,,,,,
,,,,,,,,2023-08-16_08h37.11.329,HF_wild_card,2022.2.4,Win32,59.73002031,6140bf6523a8f20a2ea1e417,64d2fd46c836a06233681665,64dc7c6aed90c03ed71270e7,,,,,,,decisionTrl,resources/DBN.BMP,resources/DG.BMP,Door1,0.23055557,0.03148146,1,0,0,1.8269,optionRight,30,7860,4,19,0,19,0,1,,,,,,,,,,,,,,,,,,,,,,,,,,,,,,,,,,,,,,,
,,,,,,,,2023-08-16_08h37.11.329,HF_wild_card,2022.2.4,Win32,59.73002031,6140bf6523a8f20a2ea1e417,64d2fd46c836a06233681665,64dc7c6aed90c03ed71270e7,,,,,,,ctch,resources/DBN.BMP,resources/DY.BMP,Door3,0.18240745,-0.006481489,1,0,0,1.4274,optionRight,70,7930,4,20,0,20,0,1,,,,,,,,,,,,,,,,,,,,,,,,,,,,,,,,,,,,,,,
,,,,,,,,2023-08-16_08h37.11.329,HF_wild_card,2022.2.4,Win32,59.73002031,6140bf6523a8f20a2ea1e417,64d2fd46c836a06233681665,64dc7c6aed90c03ed71270e7,,,,,,,decisionTrl,resources/DP.BMP,resources/DBN.BMP,WildCard_Ex,-0.212962963,0.025000007,1,0,0,1.7807,optionLeft,55,7985,4,21,0,21,0,1,,,,,,,,,,,,,,,,,,,,,,,,,,,,,,,,,,,,,,,
,,,,,,,,2023-08-16_08h37.11.329,HF_wild_card,2022.2.4,Win32,59.73002031,6140bf6523a8f20a2ea1e417,64d2fd46c836a06233681665,64dc7c6aed90c03ed71270e7,,,,,,,decisionTrl,resources/DB.BMP,resources/DP.BMP,Door4,-0.240740741,-0.002777771,1,0,0,1.7054,optionLeft,80,8065,4,22,0,22,0,1,,,,,,,,,,,,,,,,,,,,,,,,,,,,,,,,,,,,,,,
,,,,,,,,2023-08-16_08h37.11.329,HF_wild_card,2022.2.4,Win32,59.73002031,6140bf6523a8f20a2ea1e417,64d2fd46c836a06233681665,64dc7c6aed90c03ed71270e7,,,,,,,decisionTrl,resources/DP.BMP,resources/DB.BMP,Door4,0.283333319,-0.029629637,1,0,0,1.1527,optionRight,60,8125,4,23,0,23,0,1,,,,,,,,,,,,,,,,,,,,,,,,,,,,,,,,,,,,,,,
,,,,,,,,2023-08-16_08h37.11.329,HF_wild_card,2022.2.4,Win32,59.73002031,6140bf6523a8f20a2ea1e417,64d2fd46c836a06233681665,64dc7c6aed90c03ed71270e7,,,,,,,sngl,resources/Empty.png,resources/DB.BMP,Door4,0.27407406,-0.039814808,1,0,0,1.2349,optionRight,80,8205,4,24,0,24,0,1,,,,,,,,,,,,,,,,,,,,,,,,,,,,,,,,,,,,,,,
,,,,,,,,2023-08-16_08h37.11.329,HF_wild_card,2022.2.4,Win32,59.73002031,6140bf6523a8f20a2ea1e417,64d2fd46c836a06233681665,64dc7c6aed90c03ed71270e7,,,,,,,decisionTrl,resources/DBN.BMP,resources/DG.BMP,Door2,-0.171296296,0.035185178,1,0,0,3.0914,optionLeft,20,8225,4,25,0,25,0,1,,,,,,,,,,,,,,,,,,,,,,,,,,,,,,,,,,,,,,,
,,,,,,,,2023-08-16_08h37.11.329,HF_wild_card,2022.2.4,Win32,59.73002031,6140bf6523a8f20a2ea1e417,64d2fd46c836a06233681665,64dc7c6aed90c03ed71270e7,,,,,,,ctch,resources/DBN.BMP,resources/DY.BMP,Door3,0.268518519,0.00462963,1,0,0,1.1889,optionRight,70,8295,4,26,0,26,0,1,,,,,,,,,,,,,,,,,,,,,,,,,,,,,,,,,,,,,,,
,,,,,,,,2023-08-16_08h37.11.329,HF_wild_card,2022.2.4,Win32,59.73002031,6140bf6523a8f20a2ea1e417,64d2fd46c836a06233681665,64dc7c6aed90c03ed71270e7,,,,,,,sngl,resources/Empty.png,resources/DY.BMP,Door3,0.233333376,0.0074074,1,0,0,0.9494,optionRight,70,8365,4,27,0,27,0,1,,,,,,,,,,,,,,,,,,,,,,,,,,,,,,,,,,,,,,,
,,,,,,,,2023-08-16_08h37.11.329,HF_wild_card,2022.2.4,Win32,59.73002031,6140bf6523a8f20a2ea1e417,64d2fd46c836a06233681665,64dc7c6aed90c03ed71270e7,,,,,,,decisionTrl,resources/DB.BMP,resources/DY.BMP,Door4,-0.332407386,0.02870369,1,0,0,1.8108,optionLeft,60,8425,4,28,0,28,0,1,,,,,,,,,,,,,,,,,,,,,,,,,,,,,,,,,,,,,,,
,,,,,,,,2023-08-16_08h37.11.329,HF_wild_card,2022.2.4,Win32,59.73002031,6140bf6523a8f20a2ea1e417,64d2fd46c836a06233681665,64dc7c6aed90c03ed71270e7,,,,,,,sngl,resources/Empty.png,resources/DP.BMP,WildCard_Ex,0.27870369,-0.014814836,1,0,0,0.9248,optionRight,55,8480,4,29,0,29,0,1,,,,,,,,,,,,,,,,,,,,,,,,,,,,,,,,,,,,,,,
,,,,,,,,2023-08-16_08h37.11.329,HF_wild_card,2022.2.4,Win32,59.73002031,6140bf6523a8f20a2ea1e417,64d2fd46c836a06233681665,64dc7c6aed90c03ed71270e7,,,,,,,decisionTrl,resources/DG.BMP,resources/DBN.BMP,Door2,0.304629714,-0.005555577,1,0,0,2.1974,optionRight,20,8500,4,30,0,30,0,1,,,,,,,,,,,,,,,,,,,,,,,,,,,,,,,,,,,,,,,
,,,,,,,,2023-08-16_08h37.11.329,HF_wild_card,2022.2.4,Win32,59.73002031,6140bf6523a8f20a2ea1e417,64d2fd46c836a06233681665,64dc7c6aed90c03ed71270e7,,,,,,,decisionTrl,resources/DG.BMP,resources/DBN.BMP,Door1,-0.303703697,0.026851831,1,0,0,1.251,optionLeft,30,8530,4,31,0,31,0,1,,,,,,,,,,,,,,,,,,,,,,,,,,,,,,,,,,,,,,,
,,,,,,,,2023-08-16_08h37.11.329,HF_wild_card,2022.2.4,Win32,59.73002031,6140bf6523a8f20a2ea1e417,64d2fd46c836a06233681665,64dc7c6aed90c03ed71270e7,,,,,,,decisionTrl,resources/DY.BMP,resources/DB.BMP,Door4,0.234259288,0.000925912,1,0,0,1.7245,optionRight,80,8610,4,32,0,32,0,1,,,,,,,,,,,,,,,,,,,,,,,,,,,,,,,,,,,,,,,
,,,,,,,,2023-08-16_08h37.11.329,HF_wild_card,2022.2.4,Win32,59.73002031,6140bf6523a8f20a2ea1e417,64d2fd46c836a06233681665,64dc7c6aed90c03ed71270e7,,,,,,,decisionTrl,resources/DG.BMP,resources/DBN.BMP,Door1,-0.333333333,0.051851838,1,0,0,2.4322,optionLeft,30,8640,4,33,0,33,0,1,,,,,,,,,,,,,,,,,,,,,,,,,,,,,,,,,,,,,,,
,,,,,,,,2023-08-16_08h37.11.329,HF_wild_card,2022.2.4,Win32,59.73002031,6140bf6523a8f20a2ea1e417,64d2fd46c836a06233681665,64dc7c6aed90c03ed71270e7,,,,,,,ctch,resources/DY.BMP,resources/DBN.BMP,Door3,-0.231481481,0.029629637,1,0,0,1.3244,optionLeft,70,8710,4,34,0,34,0,1,,,,,,,,,,,,,,,,,,,,,,,,,,,,,,,,,,,,,,,
,,,,,,,,2023-08-16_08h37.11.329,HF_wild_card,2022.2.4,Win32,59.73002031,6140bf6523a8f20a2ea1e417,64d2fd46c836a06233681665,64dc7c6aed90c03ed71270e7,,,,,,,sngl,resources/Empty.png,resources/DG.BMP,Door1,0.236111111,-0.01203703,1,0,0,1.4723,optionRight,30,8740,4,35,0,35,0,1,,,,,,,,,,,,,,,,,,,,,,,,,,,,,,,,,,,,,,,
,,,,,,,,2023-08-16_08h37.11.329,HF_wild_card,2022.2.4,Win32,59.73002031,6140bf6523a8f20a2ea1e417,64d2fd46c836a06233681665,64dc7c6aed90c03ed71270e7,,,,,,,decisionTrl,resources/DP.BMP,resources/DG.BMP,WildCard_Ex,-0.239814829,0.014814801,1,0,0,1.0439,optionLeft,55,8795,4,36,0,36,0,1,,,,,,,,,,,,,,,,,,,,,,,,,,,,,,,,,,,,,,,
,,,,,,,,2023-08-16_08h37.11.329,HF_wild_card,2022.2.4,Win32,59.73002031,6140bf6523a8f20a2ea1e417,64d2fd46c836a06233681665,64dc7c6aed90c03ed71270e7,,,,,,,ctch,resources/DG.BMP,resources/DB.BMP,Door4,0.262037065,-0.005555577,1,0,0,1.3232,optionRight,60,8855,4,37,0,37,0,1,,,,,,,,,,,,,,,,,,,,,,,,,,,,,,,,,,,,,,,
,,,,,,,,2023-08-16_08h37.11.329,HF_wild_card,2022.2.4,Win32,59.73002031,6140bf6523a8f20a2ea1e417,64d2fd46c836a06233681665,64dc7c6aed90c03ed71270e7,,,,,,,decisionTrl,resources/DG.BMP,resources/DBN.BMP,Door1,-0.264814801,-0.009259259,1,0,0,1.1724,optionLeft,30,8885,4,38,0,38,0,1,,,,,,,,,,,,,,,,,,,,,,,,,,,,,,,,,,,,,,,
,,,,,,,,2023-08-16_08h37.11.329,HF_wild_card,2022.2.4,Win32,59.73002031,6140bf6523a8f20a2ea1e417,64d2fd46c836a06233681665,64dc7c6aed90c03ed71270e7,,,,,,,decisionTrl,resources/DBN.BMP,resources/DP.BMP,WildCard_Ex,0.268518519,-0.027777778,1,0,0,1.1971,optionRight,45,8930,4,39,0,39,0,1,,,,,,,,,,,,,,,,,,,,,,,,,,,,,,,,,,,,,,,
,,,,,,,,2023-08-16_08h37.11.329,HF_wild_card,2022.2.4,Win32,59.73002031,6140bf6523a8f20a2ea1e417,64d2fd46c836a06233681665,64dc7c6aed90c03ed71270e7,,,,,,,decisionTrl,resources/DY.BMP,resources/DB.BMP,Door3,-0.253703718,0.026851831,1,0,0,1.6645,optionLeft,70,9000,4,40,0,40,0,1,,,,,,,,,,,,,,,,,,,,,,,,,,,,,,,,,,,,,,,
,,,,,,,,2023-08-16_08h37.11.329,HF_wild_card,2022.2.4,Win32,59.73002031,6140bf6523a8f20a2ea1e417,64d2fd46c836a06233681665,64dc7c6aed90c03ed71270e7,,,,,,,decisionTrl,resources/DBN.BMP,resources/DG.BMP,Door1,0.312962991,-0.035185178,1,0,0,3.45,optionRight,30,9030,4,41,0,41,0,1,,,,,,,,,,,,,,,,,,,,,,,,,,,,,,,,,,,,,,,
,,,,,,,,2023-08-16_08h37.11.329,HF_wild_card,2022.2.4,Win32,59.73002031,6140bf6523a8f20a2ea1e417,64d2fd46c836a06233681665,64dc7c6aed90c03ed71270e7,,,,,,,sngl,resources/Empty.png,resources/DBN.BMP,Door2,0.26944443,0.01944443,1,0,0,1.1579,optionRight,40,9070,4,42,0,42,0,1,,,,,,,,,,,,,,,,,,,,,,,,,,,,,,,,,,,,,,,
,,,,,,,,2023-08-16_08h37.11.329,HF_wild_card,2022.2.4,Win32,59.73002031,6140bf6523a8f20a2ea1e417,64d2fd46c836a06233681665,64dc7c6aed90c03ed71270e7,,,,,,,ctch,resources/DY.BMP,resources/DBN.BMP,Door3,-0.311111097,0.041666667,1,0,0,1.3908,optionLeft,70,9140,4,43,0,43,0,1,,,,,,,,,,,,,,,,,,,,,,,,,,,,,,,,,,,,,,,
,,,,,,,,2023-08-16_08h37.11.329,HF_wild_card,2022.2.4,Win32,59.73002031,6140bf6523a8f20a2ea1e417,64d2fd46c836a06233681665,64dc7c6aed90c03ed71270e7,,,,,,,,,,,,,,,,,,,,,,,,,,3,0,3,0,1,,,,,,,,,,,,,,,,,,,,,,,,,,,,,,,,,,
,,,,,,,,2023-08-16_08h37.11.329,HF_wild_card,2022.2.4,Win32,59.73002031,6140bf6523a8f20a2ea1e417,64d2fd46c836a06233681665,64dc7c6aed90c03ed71270e7,,,,,,,decisionTrl,resources/DBN.BMP,resources/DG.BMP,Door1,0.387963048,-0.050925926,1,0,0,2.4768,optionRight,30,9170,5,0,0,0,0,1,,,,,,,,,,,,,,,,,,,,,,,,,,,,,,,,,,,,,,,
,,,,,,,,2023-08-16_08h37.11.329,HF_wild_card,2022.2.4,Win32,59.73002031,6140bf6523a8f20a2ea1e417,64d2fd46c836a06233681665,64dc7c6aed90c03ed71270e7,,,,,,,sngl,resources/Empty.png,resources/DY.BMP,Door3,0.300000085,-0.025000007,1,0,0,1.2234,optionRight,70,9240,5,1,0,1,0,1,,,,,,,,,,,,,,,,,,,,,,,,,,,,,,,,,,,,,,,
,,,,,,,,2023-08-16_08h37.11.329,HF_wild_card,2022.2.4,Win32,59.73002031,6140bf6523a8f20a2ea1e417,64d2fd46c836a06233681665,64dc7c6aed90c03ed71270e7,,,,,,,decisionTrl,resources/DY.BMP,resources/DP.BMP,Door3,-0.325925933,-0.006481489,1,0,0,1.5442,optionLeft,70,9310,5,2,0,2,0,1,,,,,,,,,,,,,,,,,,,,,,,,,,,,,,,,,,,,,,,
,,,,,,,,2023-08-16_08h37.11.329,HF_wild_card,2022.2.4,Win32,59.73002031,6140bf6523a8f20a2ea1e417,64d2fd46c836a06233681665,64dc7c6aed90c03ed71270e7,,,,,,,sngl,resources/Empty.png,resources/DG.BMP,Door1,0.330555527,0.013888889,1,0,0,1.043,optionRight,30,9340,5,3,0,3,0,1,,,,,,,,,,,,,,,,,,,,,,,,,,,,,,,,,,,,,,,
,,,,,,,,2023-08-16_08h37.11.329,HF_wild_card,2022.2.4,Win32,59.73002031,6140bf6523a8f20a2ea1e417,64d2fd46c836a06233681665,64dc7c6aed90c03ed71270e7,,,,,,,ctch,resources/DBN.BMP,resources/DY.BMP,Door3,0.267592607,0.010185171,1,0,0,1.1681,optionRight,70,9410,5,4,0,4,0,1,,,,,,,,,,,,,,,,,,,,,,,,,,,,,,,,,,,,,,,
,,,,,,,,2023-08-16_08h37.11.329,HF_wild_card,2022.2.4,Win32,59.73002031,6140bf6523a8f20a2ea1e417,64d2fd46c836a06233681665,64dc7c6aed90c03ed71270e7,,,,,,,decisionTrl,resources/DY.BMP,resources/DB.BMP,Door4,0.376851824,-0.015740748,1,0,0,1.8695,optionRight,80,9490,5,5,0,5,0,1,,,,,,,,,,,,,,,,,,,,,,,,,,,,,,,,,,,,,,,
,,,,,,,,2023-08-16_08h37.11.329,HF_wild_card,2022.2.4,Win32,59.73002031,6140bf6523a8f20a2ea1e417,64d2fd46c836a06233681665,64dc7c6aed90c03ed71270e7,,,,,,,sngl,resources/Empty.png,resources/DBN.BMP,Door2,0.262962977,-0.015740748,1,0,0,1.0167,optionRight,20,9510,5,6,0,6,0,1,,,,,,,,,,,,,,,,,,,,,,,,,,,,,,,,,,,,,,,
,,,,,,,,2023-08-16_08h37.11.329,HF_wild_card,2022.2.4,Win32,59.73002031,6140bf6523a8f20a2ea1e417,64d2fd46c836a06233681665,64dc7c6aed90c03ed71270e7,,,,,,,sngl,resources/DB.BMP,resources/Empty.png,Door4,-0.280555513,-0.023148148,1,0,0,0.9314,optionLeft,80,9590,5,7,0,7,0,1,,,,,,,,,,,,,,,,,,,,,,,,,,,,,,,,,,,,,,,
,,,,,,,,2023-08-16_08h37.11.329,HF_wild_card,2022.2.4,Win32,59.73002031,6140bf6523a8f20a2ea1e417,64d2fd46c836a06233681665,64dc7c6aed90c03ed71270e7,,,,,,,sngl,resources/DBN.BMP,resources/Empty.png,Door2,-0.205555527,0.000925912,1,0,0,5.0918,optionLeft,40,9630,5,8,0,8,0,1,,,,,,,,,,,,,,,,,,,,,,,,,,,,,,,,,,,,,,,
,,,,,,,,2023-08-16_08h37.11.329,HF_wild_card,2022.2.4,Win32,59.73002031,6140bf6523a8f20a2ea1e417,64d2fd46c836a06233681665,64dc7c6aed90c03ed71270e7,,,,,,,decisionTrl,resources/DG.BMP,resources/DBN.BMP,Door1,-0.233333305,0.009259259,1,0,0,2.7952,optionLeft,30,9660,5,9,0,9,0,1,,,,,,,,,,,,,,,,,,,,,,,,,,,,,,,,,,,,,,,
,,,,,,,,2023-08-16_08h37.11.329,HF_wild_card,2022.2.4,Win32,59.73002031,6140bf6523a8f20a2ea1e417,64d2fd46c836a06233681665,64dc7c6aed90c03ed71270e7,,,,,,,decisionTrl,resources/DG.BMP,resources/DBN.BMP,Door1,-0.175000014,0.029629637,1,0,0,2.2248,optionLeft,30,9690,5,10,0,10,0,1,,,,,,,,,,,,,,,,,,,,,,,,,,,,,,,,,,,,,,,
,,,,,,,,2023-08-16_08h37.11.329,HF_wild_card,2022.2.4,Win32,59.73002031,6140bf6523a8f20a2ea1e417,64d2fd46c836a06233681665,64dc7c6aed90c03ed71270e7,,,,,,,decisionTrl,resources/DBN.BMP,resources/DG.BMP,Door2,-0.262036995,0.013888889,1,0,0,1.566,optionLeft,40,9730,5,11,0,11,0,1,,,,,,,,,,,,,,,,,,,,,,,,,,,,,,,,,,,,,,,
,,,,,,,,2023-08-16_08h37.11.329,HF_wild_card,2022.2.4,Win32,59.73002031,6140bf6523a8f20a2ea1e417,64d2fd46c836a06233681665,64dc7c6aed90c03ed71270e7,,,,,,,decisionTrl,resources/DY.BMP,resources/DB.BMP,Door4,0.290740755,-0.002777771,1,0,0,1.526,optionRight,80,9810,5,12,0,12,0,1,,,,,,,,,,,,,,,,,,,,,,,,,,,,,,,,,,,,,,,
,,,,,,,,2023-08-16_08h37.11.329,HF_wild_card,2022.2.4,Win32,59.73002031,6140bf6523a8f20a2ea1e417,64d2fd46c836a06233681665,64dc7c6aed90c03ed71270e7,,,,,,,decisionTrl,resources/DP.BMP,resources/DB.BMP,Door4,0.341666751,-0.009259259,1,0,0,1.5677,optionRight,80,9890,5,13,0,13,0,1,,,,,,,,,,,,,,,,,,,,,,,,,,,,,,,,,,,,,,,
,,,,,,,,2023-08-16_08h37.11.329,HF_wild_card,2022.2.4,Win32,59.73002031,6140bf6523a8f20a2ea1e417,64d2fd46c836a06233681665,64dc7c6aed90c03ed71270e7,,,,,,,decisionTrl,resources/DB.BMP,resources/DY.BMP,Door4,-0.206481439,-0.022222236,1,0,0,1.3625,optionLeft,80,9970,5,14,0,14,0,1,,,,,,,,,,,,,,,,,,,,,,,,,,,,,,,,,,,,,,,
,,,,,,,,2023-08-16_08h37.11.329,HF_wild_card,2022.2.4,Win32,59.73002031,6140bf6523a8f20a2ea1e417,64d2fd46c836a06233681665,64dc7c6aed90c03ed71270e7,,,,,,,decisionTrl,resources/DY.BMP,resources/DB.BMP,Door4,0.262037065,-0.033333355,1,0,0,0.9236,optionRight,80,10050,5,15,0,15,0,1,,,,,,,,,,,,,,,,,,,,,,,,,,,,,,,,,,,,,,,
,,,,,,,,2023-08-16_08h37.11.329,HF_wild_card,2022.2.4,Win32,59.73002031,6140bf6523a8f20a2ea1e417,64d2fd46c836a06233681665,64dc7c6aed90c03ed71270e7,,,,,,,sngl,resources/DP.BMP,resources/Empty.png,WildCard_Ex,-0.250925912,-0.003703718,1,0,0,1.0582,optionLeft,45,10095,5,16,0,16,0,1,,,,,,,,,,,,,,,,,,,,,,,,,,,,,,,,,,,,,,,
,,,,,,,,2023-08-16_08h37.11.329,HF_wild_card,2022.2.4,Win32,59.73002031,6140bf6523a8f20a2ea1e417,64d2fd46c836a06233681665,64dc7c6aed90c03ed71270e7,,,,,,,decisionTrl,resources/DB.BMP,resources/DP.BMP,Door4,-0.011111083,-0.002777771,1,0,0,0.2423,optionLeft,80,10175,5,17,0,17,0,1,,,,,,,,,,,,,,,,,,,,,,,,,,,,,,,,,,,,,,,
,,,,,,,,2023-08-16_08h37.11.329,HF_wild_card,2022.2.4,Win32,59.73002031,6140bf6523a8f20a2ea1e417,64d2fd46c836a06233681665,64dc7c6aed90c03ed71270e7,,,,,,,sngl,resources/Empty.png,resources/DP.BMP,WildCard_Ex,0.275925954,-0.039814808,1,0,0,0.9105,optionRight,55,10230,5,18,0,18,0,1,,,,,,,,,,,,,,,,,,,,,,,,,,,,,,,,,,,,,,,
,,,,,,,,2023-08-16_08h37.11.329,HF_wild_card,2022.2.4,Win32,59.73002031,6140bf6523a8f20a2ea1e417,64d2fd46c836a06233681665,64dc7c6aed90c03ed71270e7,,,,,,,decisionTrl,resources/DBN.BMP,resources/DG.BMP,Door1,0.282407407,0.020370377,1,0,0,2.1227,optionRight,30,10260,5,19,0,19,0,1,,,,,,,,,,,,,,,,,,,,,,,,,,,,,,,,,,,,,,,
,,,,,,,,2023-08-16_08h37.11.329,HF_wild_card,2022.2.4,Win32,59.73002031,6140bf6523a8f20a2ea1e417,64d2fd46c836a06233681665,64dc7c6aed90c03ed71270e7,,,,,,,decisionTrl,resources/DBN.BMP,resources/DG.BMP,Door1,0.343518575,-0.006481489,1,0,0,1.1526,optionRight,30,10290,5,20,0,20,0,1,,,,,,,,,,,,,,,,,,,,,,,,,,,,,,,,,,,,,,,
,,,,,,,,2023-08-16_08h37.11.329,HF_wild_card,2022.2.4,Win32,59.73002031,6140bf6523a8f20a2ea1e417,64d2fd46c836a06233681665,64dc7c6aed90c03ed71270e7,,,,,,,ctch,resources/DY.BMP,resources/DBN.BMP,Door3,-0.286111125,-0.032407407,1,0,0,2.4651,optionLeft,70,10360,5,21,0,21,0,1,,,,,,,,,,,,,,,,,,,,,,,,,,,,,,,,,,,,,,,
,,,,,,,,2023-08-16_08h37.11.329,HF_wild_card,2022.2.4,Win32,59.73002031,6140bf6523a8f20a2ea1e417,64d2fd46c836a06233681665,64dc7c6aed90c03ed71270e7,,,,,,,decisionTrl,resources/DP.BMP,resources/DBN.BMP,WildCard_Ex,-0.294444402,-0.028703725,1,0,0,1.5825,optionLeft,55,10415,5,22,0,22,0,1,,,,,,,,,,,,,,,,,,,,,,,,,,,,,,,,,,,,,,,
,,,,,,,,2023-08-16_08h37.11.329,HF_wild_card,2022.2.4,Win32,59.73002031,6140bf6523a8f20a2ea1e417,64d2fd46c836a06233681665,64dc7c6aed90c03ed71270e7,,,,,,,ctch,resources/DBN.BMP,resources/DY.BMP,Door3,0.223148134,0.0074074,1,0,0,1.1592,optionRight,70,10485,5,23,0,23,0,1,,,,,,,,,,,,,,,,,,,,,,,,,,,,,,,,,,,,,,,
,,,,,,,,2023-08-16_08h37.11.329,HF_wild_card,2022.2.4,Win32,59.73002031,6140bf6523a8f20a2ea1e417,64d2fd46c836a06233681665,64dc7c6aed90c03ed71270e7,,,,,,,decisionTrl,resources/DP.BMP,resources/DY.BMP,Door3,0.313888974,0.029629637,1,0,0,2.3534,optionRight,70,10555,5,24,0,24,0,1,,,,,,,,,,,,,,,,,,,,,,,,,,,,,,,,,,,,,,,
,,,,,,,,2023-08-16_08h37.11.329,HF_wild_card,2022.2.4,Win32,59.73002031,6140bf6523a8f20a2ea1e417,64d2fd46c836a06233681665,64dc7c6aed90c03ed71270e7,,,,,,,sngl,resources/DY.BMP,resources/Empty.png,Door3,-0.243518476,-0.027777778,1,0,0,0.9843,optionLeft,70,10625,5,25,0,25,0,1,,,,,,,,,,,,,,,,,,,,,,,,,,,,,,,,,,,,,,,
,,,,,,,,2023-08-16_08h37.11.329,HF_wild_card,2022.2.4,Win32,59.73002031,6140bf6523a8f20a2ea1e417,64d2fd46c836a06233681665,64dc7c6aed90c03ed71270e7,,,,,,,ctch,resources/DB.BMP,resources/DG.BMP,Door4,-0.356481481,-0.014814836,1,0,0,0.9989,optionLeft,80,10705,5,26,0,26,0,1,,,,,,,,,,,,,,,,,,,,,,,,,,,,,,,,,,,,,,,
,,,,,,,,2023-08-16_08h37.11.329,HF_wild_card,2022.2.4,Win32,59.73002031,6140bf6523a8f20a2ea1e417,64d2fd46c836a06233681665,64dc7c6aed90c03ed71270e7,,,,,,,decisionTrl,resources/DB.BMP,resources/DY.BMP,Door4,-0.315740727,-0.008333347,1,0,0,1.5161,optionLeft,60,10765,5,27,0,27,0,1,,,,,,,,,,,,,,,,,,,,,,,,,,,,,,,,,,,,,,,
,,,,,,,,2023-08-16_08h37.11.329,HF_wild_card,2022.2.4,Win32,59.73002031,6140bf6523a8f20a2ea1e417,64d2fd46c836a06233681665,64dc7c6aed90c03ed71270e7,,,,,,,ctch,resources/DB.BMP,resources/DG.BMP,Door4,-0.272222236,0.030555548,1,0,0,1.654,optionLeft,80,10845,5,28,0,28,0,1,,,,,,,,,,,,,,,,,,,,,,,,,,,,,,,,,,,,,,,
,,,,,,,,2023-08-16_08h37.11.329,HF_wild_card,2022.2.4,Win32,59.73002031,6140bf6523a8f20a2ea1e417,64d2fd46c836a06233681665,64dc7c6aed90c03ed71270e7,,,,,,,sngl,resources/DP.BMP,resources/Empty.png,WildCard_Ex,-0.233333305,0.002777771,1,0,0,1.0021,optionLeft,55,10900,5,29,0,29,0,1,,,,,,,,,,,,,,,,,,,,,,,,,,,,,,,,,,,,,,,
,,,,,,,,2023-08-16_08h37.11.329,HF_wild_card,2022.2.4,Win32,59.73002031,6140bf6523a8f20a2ea1e417,64d2fd46c836a06233681665,64dc7c6aed90c03ed71270e7,,,,,,,ctch,resources/DG.BMP,resources/DB.BMP,Door4,0.198148162,0.003703683,1,0,0,1.5201,optionRight,80,10980,5,30,0,30,0,1,,,,,,,,,,,,,,,,,,,,,,,,,,,,,,,,,,,,,,,
,,,,,,,,2023-08-16_08h37.11.329,HF_wild_card,2022.2.4,Win32,59.73002031,6140bf6523a8f20a2ea1e417,64d2fd46c836a06233681665,64dc7c6aed90c03ed71270e7,,,,,,,decisionTrl,resources/DG.BMP,resources/DBN.BMP,Door1,-0.243518476,-0.017592607,1,0,0,1.8114,optionLeft,30,11010,5,31,0,31,0,1,,,,,,,,,,,,,,,,,,,,,,,,,,,,,,,,,,,,,,,
,,,,,,,,2023-08-16_08h37.11.329,HF_wild_card,2022.2.4,Win32,59.73002031,6140bf6523a8f20a2ea1e417,64d2fd46c836a06233681665,64dc7c6aed90c03ed71270e7,,,,,,,sngl,resources/Empty.png,resources/DP.BMP,WildCard_Ex,0.241666653,-0.01203703,1,0,0,0.9728,optionRight,45,11055,5,32,0,32,0,1,,,,,,,,,,,,,,,,,,,,,,,,,,,,,,,,,,,,,,,
,,,,,,,,2023-08-16_08h37.11.329,HF_wild_card,2022.2.4,Win32,59.73002031,6140bf6523a8f20a2ea1e417,64d2fd46c836a06233681665,64dc7c6aed90c03ed71270e7,,,,,,,decisionTrl,resources/DG.BMP,resources/DP.BMP,WildCard_Ex,0.215740769,0.01203703,1,0,0,2.0417,optionRight,55,11110,5,33,0,33,0,1,,,,,,,,,,,,,,,,,,,,,,,,,,,,,,,,,,,,,,,
,,,,,,,,2023-08-16_08h37.11.329,HF_wild_card,2022.2.4,Win32,59.73002031,6140bf6523a8f20a2ea1e417,64d2fd46c836a06233681665,64dc7c6aed90c03ed71270e7,,,,,,,decisionTrl,resources/DB.BMP,resources/DY.BMP,Door4,-0.354629623,-0.019444466,1,0,0,4.69,optionLeft,80,11190,5,34,0,34,0,1,,,,,,,,,,,,,,,,,,,,,,,,,,,,,,,,,,,,,,,
,,,,,,,,2023-08-16_08h37.11.329,HF_wild_card,2022.2.4,Win32,59.73002031,6140bf6523a8f20a2ea1e417,64d2fd46c836a06233681665,64dc7c6aed90c03ed71270e7,,,,,,,sngl,resources/Empty.png,resources/DB.BMP,Door4,0.280555584,0.061111097,1,0,0,1.1701,optionRight,60,11250,5,35,0,35,0,1,,,,,,,,,,,,,,,,,,,,,,,,,,,,,,,,,,,,,,,
,,,,,,,,2023-08-16_08h37.11.329,HF_wild_card,2022.2.4,Win32,59.73002031,6140bf6523a8f20a2ea1e417,64d2fd46c836a06233681665,64dc7c6aed90c03ed71270e7,,,,,,,sngl,resources/DG.BMP,resources/Empty.png,Door1,-0.22129631,0.005555541,1,0,0,3.8025,optionLeft,30,11280,5,36,0,36,0,1,,,,,,,,,,,,,,,,,,,,,,,,,,,,,,,,,,,,,,,
,,,,,,,,2023-08-16_08h37.11.329,HF_wild_card,2022.2.4,Win32,59.73002031,6140bf6523a8f20a2ea1e417,64d2fd46c836a06233681665,64dc7c6aed90c03ed71270e7,,,,,,,ctch,resources/DY.BMP,resources/DBN.BMP,Door3,-0.393518519,0.008333312,1,0,0,1.6283,optionLeft,70,11350,5,37,0,37,0,1,,,,,,,,,,,,,,,,,,,,,,,,,,,,,,,,,,,,,,,
,,,,,,,,2023-08-16_08h37.11.329,HF_wild_card,2022.2.4,Win32,59.73002031,6140bf6523a8f20a2ea1e417,64d2fd46c836a06233681665,64dc7c6aed90c03ed71270e7,,,,,,,decisionTrl,resources/DBN.BMP,resources/DP.BMP,WildCard_Ex,0.264814801,0.039814808,1,0,0,1.3452,optionRight,45,11395,5,38,0,38,0,1,,,,,,,,,,,,,,,,,,,,,,,,,,,,,,,,,,,,,,,
,,,,,,,,2023-08-16_08h37.11.329,HF_wild_card,2022.2.4,Win32,59.73002031,6140bf6523a8f20a2ea1e417,64d2fd46c836a06233681665,64dc7c6aed90c03ed71270e7,,,,,,,decisionTrl,resources/DY.BMP,resources/DB.BMP,Door4,0.317592621,0.001851859,1,0,0,2.8106,optionRight,80,11475,5,39,0,39,0,1,,,,,,,,,,,,,,,,,,,,,,,,,,,,,,,,,,,,,,,
,,,,,,,,2023-08-16_08h37.11.329,HF_wild_card,2022.2.4,Win32,59.73002031,6140bf6523a8f20a2ea1e417,64d2fd46c836a06233681665,64dc7c6aed90c03ed71270e7,,,,,,,decisionTrl,resources/DG.BMP,resources/DBN.BMP,Door1,-0.301851838,0.001851859,1,0,0,1.2565,optionLeft,30,11505,5,40,0,40,0,1,,,,,,,,,,,,,,,,,,,,,,,,,,,,,,,,,,,,,,,
,,,,,,,,2023-08-16_08h37.11.329,HF_wild_card,2022.2.4,Win32,59.73002031,6140bf6523a8f20a2ea1e417,64d2fd46c836a06233681665,64dc7c6aed90c03ed71270e7,,,,,,,ctch,resources/DG.BMP,resources/DB.BMP,Door4,0.323148233,0.00462963,1,0,0,1.1821,optionRight,60,11565,5,41,0,41,0,1,,,,,,,,,,,,,,,,,,,,,,,,,,,,,,,,,,,,,,,
,,,,,,,,2023-08-16_08h37.11.329,HF_wild_card,2022.2.4,Win32,59.73002031,6140bf6523a8f20a2ea1e417,64d2fd46c836a06233681665,64dc7c6aed90c03ed71270e7,,,,,,,decisionTrl,resources/DP.BMP,resources/DG.BMP,WildCard_Ex,-0.322222215,-0.00462963,1,0,0,2.1535,optionLeft,55,11620,5,42,0,42,0,1,,,,,,,,,,,,,,,,,,,,,,,,,,,,,,,,,,,,,,,
,,,,,,,,2023-08-16_08h37.11.329,HF_wild_card,2022.2.4,Win32,59.73002031,6140bf6523a8f20a2ea1e417,64d2fd46c836a06233681665,64dc7c6aed90c03ed71270e7,,,,,,,decisionTrl,resources/DB.BMP,resources/DY.BMP,Door4,-0.378703683,0.022222201,1,0,0,3.2021,optionLeft,80,11700,5,43,0,43,0,1,,,,,,,,,,,,,,,,,,,,,,,,,,,,,,,,,,,,,,,
,,,,,,,,2023-08-16_08h37.11.329,HF_wild_card,2022.2.4,Win32,59.73002031,6140bf6523a8f20a2ea1e417,64d2fd46c836a06233681665,64dc7c6aed90c03ed71270e7,,,,,,,,,,,,,,,,,,,,,,,,,,4,0,4,0,1,,,,,,,,,,,,,,,,,,,,,,,,,,,,,,,,,,
,,,,,,,,2023-08-16_08h37.11.329,HF_wild_card,2022.2.4,Win32,59.73002031,6140bf6523a8f20a2ea1e417,64d2fd46c836a06233681665,64dc7c6aed90c03ed71270e7,,,,,,,sngl,resources/DB.BMP,resources/Empty.png,Door4,-0.389814801,-0.081481474,1,0,0,1.5766,optionLeft,60,11760,6,0,0,0,0,1,,,,,,,,,,,,,,,,,,,,,,,,,,,,,,,,,,,,,,,
,,,,,,,,2023-08-16_08h37.11.329,HF_wild_card,2022.2.4,Win32,59.73002031,6140bf6523a8f20a2ea1e417,64d2fd46c836a06233681665,64dc7c6aed90c03ed71270e7,,,,,,,sngl,resources/DP.BMP,resources/Empty.png,WildCard_Ex,-0.267592607,-0.045370384,1,0,0,4.6063,optionLeft,55,11815,6,1,0,1,0,1,,,,,,,,,,,,,,,,,,,,,,,,,,,,,,,,,,,,,,,
,,,,,,,,2023-08-16_08h37.11.329,HF_wild_card,2022.2.4,Win32,59.73002031,6140bf6523a8f20a2ea1e417,64d2fd46c836a06233681665,64dc7c6aed90c03ed71270e7,,,,,,,sngl,resources/DG.BMP,resources/Empty.png,Door1,-0.205555527,-0.014814836,1,0,0,0.9838,optionLeft,30,11845,6,2,0,2,0,1,,,,,,,,,,,,,,,,,,,,,,,,,,,,,,,,,,,,,,,
,,,,,,,,2023-08-16_08h37.11.329,HF_wild_card,2022.2.4,Win32,59.73002031,6140bf6523a8f20a2ea1e417,64d2fd46c836a06233681665,64dc7c6aed90c03ed71270e7,,,,,,,decisionTrl,resources/DY.BMP,resources/DB.BMP,Door4,0.225000028,-0.031481496,1,0,0,1.6527,optionRight,80,11925,6,3,0,3,0,1,,,,,,,,,,,,,,,,,,,,,,,,,,,,,,,,,,,,,,,
,,,,,,,,2023-08-16_08h37.11.329,HF_wild_card,2022.2.4,Win32,59.73002031,6140bf6523a8f20a2ea1e417,64d2fd46c836a06233681665,64dc7c6aed90c03ed71270e7,,,,,,,decisionTrl,resources/DG.BMP,resources/DBN.BMP,Door2,0.23055557,0.025925919,1,0,0,2.0641,optionRight,20,11945,6,4,0,4,0,1,,,,,,,,,,,,,,,,,,,,,,,,,,,,,,,,,,,,,,,
,,,,,,,,2023-08-16_08h37.11.329,HF_wild_card,2022.2.4,Win32,59.73002031,6140bf6523a8f20a2ea1e417,64d2fd46c836a06233681665,64dc7c6aed90c03ed71270e7,,,,,,,decisionTrl,resources/DG.BMP,resources/DP.BMP,WildCard_Ex,0.293518561,0.022222201,1,0,0,1.8706,optionRight,55,12000,6,5,0,5,0,1,,,,,,,,,,,,,,,,,,,,,,,,,,,,,,,,,,,,,,,
,,,,,,,,2023-08-16_08h37.11.329,HF_wild_card,2022.2.4,Win32,59.73002031,6140bf6523a8f20a2ea1e417,64d2fd46c836a06233681665,64dc7c6aed90c03ed71270e7,,,,,,,sngl,resources/Empty.png,resources/DP.BMP,WildCard_Ex,0.239814829,0.01666666,1,0,0,1.025,optionRight,55,12055,6,6,0,6,0,1,,,,,,,,,,,,,,,,,,,,,,,,,,,,,,,,,,,,,,,
,,,,,,,,2023-08-16_08h37.11.329,HF_wild_card,2022.2.4,Win32,59.73002031,6140bf6523a8f20a2ea1e417,64d2fd46c836a06233681665,64dc7c6aed90c03ed71270e7,,,,,,,ctch,resources/DBN.BMP,resources/DY.BMP,Door3,0.284259302,0.012962942,1,0,0,1.375,optionRight,70,12125,6,7,0,7,0,1,,,,,,,,,,,,,,,,,,,,,,,,,,,,,,,,,,,,,,,
,,,,,,,,2023-08-16_08h37.11.329,HF_wild_card,2022.2.4,Win32,59.73002031,6140bf6523a8f20a2ea1e417,64d2fd46c836a06233681665,64dc7c6aed90c03ed71270e7,,,,,,,sngl,resources/DY.BMP,resources/Empty.png,Door3,-0.262962977,-0.003703718,1,0,0,0.9502,optionLeft,70,12195,6,8,0,8,0,1,,,,,,,,,,,,,,,,,,,,,,,,,,,,,,,,,,,,,,,
,,,,,,,,2023-08-16_08h37.11.329,HF_wild_card,2022.2.4,Win32,59.73002031,6140bf6523a8f20a2ea1e417,64d2fd46c836a06233681665,64dc7c6aed90c03ed71270e7,,,,,,,sngl,resources/Empty.png,resources/DG.BMP,Door1,0.266666695,0.015740748,1,0,0,0.9789,optionRight,30,12225,6,9,0,9,0,1,,,,,,,,,,,,,,,,,,,,,,,,,,,,,,,,,,,,,,,
,,,,,,,,2023-08-16_08h37.11.329,HF_wild_card,2022.2.4,Win32,59.73002031,6140bf6523a8f20a2ea1e417,64d2fd46c836a06233681665,64dc7c6aed90c03ed71270e7,,,,,,,decisionTrl,resources/DB.BMP,resources/DY.BMP,Door4,-0.25462963,-0.01203703,1,0,0,23.531,optionLeft,80,12305,6,10,0,10,0,1,,,,,,,,,,,,,,,,,,,,,,,,,,,,,,,,,,,,,,,
,,,,,,,,2023-08-16_08h37.11.329,HF_wild_card,2022.2.4,Win32,59.73002031,6140bf6523a8f20a2ea1e417,64d2fd46c836a06233681665,64dc7c6aed90c03ed71270e7,,,,,,,decisionTrl,resources/DBN.BMP,resources/DG.BMP,Door1,0.325925898,-0.001851859,1,0,0,1.6037,optionRight,30,12335,6,11,0,11,0,1,,,,,,,,,,,,,,,,,,,,,,,,,,,,,,,,,,,,,,,
,,,,,,,,2023-08-16_08h37.11.329,HF_wild_card,2022.2.4,Win32,59.73002031,6140bf6523a8f20a2ea1e417,64d2fd46c836a06233681665,64dc7c6aed90c03ed71270e7,,,,,,,decisionTrl,resources/DY.BMP,resources/DB.BMP,Door4,0.220370399,0.000925912,1,0,0,2.0371,optionRight,80,12415,6,12,0,12,0,1,,,,,,,,,,,,,,,,,,,,,,,,,,,,,,,,,,,,,,,
,,,,,,,,2023-08-16_08h37.11.329,HF_wild_card,2022.2.4,Win32,59.73002031,6140bf6523a8f20a2ea1e417,64d2fd46c836a06233681665,64dc7c6aed90c03ed71270e7,,,,,,,decisionTrl,resources/DY.BMP,resources/DB.BMP,Door4,0.286111125,0.009259259,1,0,0,9.8757,optionRight,60,12475,6,13,0,13,0,1,,,,,,,,,,,,,,,,,,,,,,,,,,,,,,,,,,,,,,,
,,,,,,,,2023-08-16_08h37.11.329,HF_wild_card,2022.2.4,Win32,59.73002031,6140bf6523a8f20a2ea1e417,64d2fd46c836a06233681665,64dc7c6aed90c03ed71270e7,,,,,,,decisionTrl,resources/DB.BMP,resources/DY.BMP,Door3,0.457407492,-0.028703725,1,0,0,12.5064,optionRight,70,12545,6,14,0,14,0,1,,,,,,,,,,,,,,,,,,,,,,,,,,,,,,,,,,,,,,,
,,,,,,,,2023-08-16_08h37.11.329,HF_wild_card,2022.2.4,Win32,59.73002031,6140bf6523a8f20a2ea1e417,64d2fd46c836a06233681665,64dc7c6aed90c03ed71270e7,,,,,,,sngl,resources/Empty.png,resources/DBN.BMP,Door2,0.286111125,0.065740727,1,0,0,2.0737,optionRight,40,12585,6,15,0,15,0,1,,,,,,,,,,,,,,,,,,,,,,,,,,,,,,,,,,,,,,,
,,,,,,,,2023-08-16_08h37.11.329,HF_wild_card,2022.2.4,Win32,59.73002031,6140bf6523a8f20a2ea1e417,64d2fd46c836a06233681665,64dc7c6aed90c03ed71270e7,,,,,,,ctch,resources/DY.BMP,resources/DBN.BMP,Door3,-0.305555556,0.00462963,1,0,0,1.6099,optionLeft,70,12655,6,16,0,16,0,1,,,,,,,,,,,,,,,,,,,,,,,,,,,,,,,,,,,,,,,
,,,,,,,,2023-08-16_08h37.11.329,HF_wild_card,2022.2.4,Win32,59.73002031,6140bf6523a8f20a2ea1e417,64d2fd46c836a06233681665,64dc7c6aed90c03ed71270e7,,,,,,,sngl,resources/DP.BMP,resources/Empty.png,WildCard_Ex,-0.235185199,-0.025000007,1,0,0,1.5481,optionLeft,45,12700,6,17,0,17,0,1,,,,,,,,,,,,,,,,,,,,,,,,,,,,,,,,,,,,,,,
,,,,,,,,2023-08-16_08h37.11.329,HF_wild_card,2022.2.4,Win32,59.73002031,6140bf6523a8f20a2ea1e417,64d2fd46c836a06233681665,64dc7c6aed90c03ed71270e7,,,,,,,decisionTrl,resources/DP.BMP,resources/DY.BMP,Door3,0.008333347,0.01944443,1,0,0,0.3971,optionRight,70,12770,6,18,0,18,0,1,,,,,,,,,,,,,,,,,,,,,,,,,,,,,,,,,,,,,,,
,,,,,,,,2023-08-16_08h37.11.329,HF_wild_card,2022.2.4,Win32,59.73002031,6140bf6523a8f20a2ea1e417,64d2fd46c836a06233681665,64dc7c6aed90c03ed71270e7,,,,,,,ctch,resources/DBN.BMP,resources/DY.BMP,Door3,0.297222279,0.010185171,1,0,0,1.438,optionRight,70,12840,6,19,0,19,0,1,,,,,,,,,,,,,,,,,,,,,,,,,,,,,,,,,,,,,,,
,,,,,,,,2023-08-16_08h37.11.329,HF_wild_card,2022.2.4,Win32,59.73002031,6140bf6523a8f20a2ea1e417,64d2fd46c836a06233681665,64dc7c6aed90c03ed71270e7,,,,,,,ctch,resources/DB.BMP,resources/DG.BMP,Door4,-0.270370342,-0.002777771,1,0,0,5.2148,optionLeft,80,12920,6,20,0,20,0,1,,,,,,,,,,,,,,,,,,,,,,,,,,,,,,,,,,,,,,,
,,,,,,,,2023-08-16_08h37.11.329,HF_wild_card,2022.2.4,Win32,59.73002031,6140bf6523a8f20a2ea1e417,64d2fd46c836a06233681665,64dc7c6aed90c03ed71270e7,,,,,,,sngl,resources/Empty.png,resources/DP.BMP,WildCard_Ex,0.271296325,-0.045370384,1,0,0,0.9859,optionRight,45,12965,6,21,0,21,0,1,,,,,,,,,,,,,,,,,,,,,,,,,,,,,,,,,,,,,,,
,,,,,,,,2023-08-16_08h37.11.329,HF_wild_card,2022.2.4,Win32,59.73002031,6140bf6523a8f20a2ea1e417,64d2fd46c836a06233681665,64dc7c6aed90c03ed71270e7,,,,,,,decisionTrl,resources/DBN.BMP,resources/DG.BMP,Door1,0.234259288,0.02870369,1,0,0,1.6011,optionRight,30,12995,6,22,0,22,0,1,,,,,,,,,,,,,,,,,,,,,,,,,,,,,,,,,,,,,,,
,,,,,,,,2023-08-16_08h37.11.329,HF_wild_card,2022.2.4,Win32,59.73002031,6140bf6523a8f20a2ea1e417,64d2fd46c836a06233681665,64dc7c6aed90c03ed71270e7,,,,,,,decisionTrl,resources/DBN.BMP,resources/DG.BMP,Door1,0.277777778,0.008333312,1,0,0,1.4568,optionRight,30,13025,6,23,0,23,0,1,,,,,,,,,,,,,,,,,,,,,,,,,,,,,,,,,,,,,,,
,,,,,,,,2023-08-16_08h37.11.329,HF_wild_card,2022.2.4,Win32,59.73002031,6140bf6523a8f20a2ea1e417,64d2fd46c836a06233681665,64dc7c6aed90c03ed71270e7,,,,,,,ctch,resources/DB.BMP,resources/DG.BMP,Door4,-0.234259217,-0.018518519,1,0,0,1.5418,optionLeft,60,13085,6,24,0,24,0,1,,,,,,,,,,,,,,,,,,,,,,,,,,,,,,,,,,,,,,,
,,,,,,,,2023-08-16_08h37.11.329,HF_wild_card,2022.2.4,Win32,59.73002031,6140bf6523a8f20a2ea1e417,64d2fd46c836a06233681665,64dc7c6aed90c03ed71270e7,,,,,,,decisionTrl,resources/DY.BMP,resources/DB.BMP,Door3,-0.224074046,-0.039814808,1,0,0,1.8944,optionLeft,70,13155,6,25,0,25,0,1,,,,,,,,,,,,,,,,,,,,,,,,,,,,,,,,,,,,,,,
,,,,,,,,2023-08-16_08h37.11.329,HF_wild_card,2022.2.4,Win32,59.73002031,6140bf6523a8f20a2ea1e417,64d2fd46c836a06233681665,64dc7c6aed90c03ed71270e7,,,,,,,ctch,resources/DG.BMP,resources/DB.BMP,Door4,0.283333319,-0.000925947,1,0,0,3.0677,optionRight,60,13215,6,26,0,26,0,1,,,,,,,,,,,,,,,,,,,,,,,,,,,,,,,,,,,,,,,
,,,,,,,,2023-08-16_08h37.11.329,HF_wild_card,2022.2.4,Win32,59.73002031,6140bf6523a8f20a2ea1e417,64d2fd46c836a06233681665,64dc7c6aed90c03ed71270e7,,,,,,,ctch,resources/DY.BMP,resources/DBN.BMP,Door3,-0.314814815,-0.009259259,1,0,0,1.5923,optionLeft,70,13285,6,27,0,27,0,1,,,,,,,,,,,,,,,,,,,,,,,,,,,,,,,,,,,,,,,
,,,,,,,,2023-08-16_08h37.11.329,HF_wild_card,2022.2.4,Win32,59.73002031,6140bf6523a8f20a2ea1e417,64d2fd46c836a06233681665,64dc7c6aed90c03ed71270e7,,,,,,,sngl,resources/Empty.png,resources/DY.BMP,Door3,0.174074102,0.01944443,1,0,0,0.9935,optionRight,70,13355,6,28,0,28,0,1,,,,,,,,,,,,,,,,,,,,,,,,,,,,,,,,,,,,,,,
,,,,,,,,2023-08-16_08h37.11.329,HF_wild_card,2022.2.4,Win32,59.73002031,6140bf6523a8f20a2ea1e417,64d2fd46c836a06233681665,64dc7c6aed90c03ed71270e7,,,,,,,decisionTrl,resources/DP.BMP,resources/DB.BMP,Door4,0.376851824,0.025000007,1,0,0,2.7704,optionRight,60,13415,6,29,0,29,0,1,,,,,,,,,,,,,,,,,,,,,,,,,,,,,,,,,,,,,,,
,,,,,,,,2023-08-16_08h37.11.329,HF_wild_card,2022.2.4,Win32,59.73002031,6140bf6523a8f20a2ea1e417,64d2fd46c836a06233681665,64dc7c6aed90c03ed71270e7,,,,,,,decisionTrl,resources/DG.BMP,resources/DBN.BMP,Door1,-0.328703704,0.037037037,1,0,0,2.2333,optionLeft,30,13445,6,30,0,30,0,1,,,,,,,,,,,,,,,,,,,,,,,,,,,,,,,,,,,,,,,
,,,,,,,,2023-08-16_08h37.11.329,HF_wild_card,2022.2.4,Win32,59.73002031,6140bf6523a8f20a2ea1e417,64d2fd46c836a06233681665,64dc7c6aed90c03ed71270e7,,,,,,,ctch,resources/DG.BMP,resources/DB.BMP,Door4,0.271296325,0.000925912,1,0,0,1.0569,optionRight,80,13525,6,31,0,31,0,1,,,,,,,,,,,,,,,,,,,,,,,,,,,,,,,,,,,,,,,
,,,,,,,,2023-08-16_08h37.11.329,HF_wild_card,2022.2.4,Win32,59.73002031,6140bf6523a8f20a2ea1e417,64d2fd46c836a06233681665,64dc7c6aed90c03ed71270e7,,,,,,,decisionTrl,resources/DB.BMP,resources/DY.BMP,Door4,-0.306481467,-0.011111118,1,0,0,3.5652,optionLeft,60,13585,6,32,0,32,0,1,,,,,,,,,,,,,,,,,,,,,,,,,,,,,,,,,,,,,,,
,,,,,,,,2023-08-16_08h37.11.329,HF_wild_card,2022.2.4,Win32,59.73002031,6140bf6523a8f20a2ea1e417,64d2fd46c836a06233681665,64dc7c6aed90c03ed71270e7,,,,,,,decisionTrl,resources/DP.BMP,resources/DG.BMP,WildCard_Ex,-0.319444444,-0.015740748,1,0,0,2.0518,optionLeft,55,13640,6,33,0,33,0,1,,,,,,,,,,,,,,,,,,,,,,,,,,,,,,,,,,,,,,,
,,,,,,,,2023-08-16_08h37.11.329,HF_wild_card,2022.2.4,Win32,59.73002031,6140bf6523a8f20a2ea1e417,64d2fd46c836a06233681665,64dc7c6aed90c03ed71270e7,,,,,,,decisionTrl,resources/DB.BMP,resources/DY.BMP,Door3,0.285185213,-0.012962977,1,0,0,0.8857,optionRight,70,13710,6,34,0,34,0,1,,,,,,,,,,,,,,,,,,,,,,,,,,,,,,,,,,,,,,,
,,,,,,,,2023-08-16_08h37.11.329,HF_wild_card,2022.2.4,Win32,59.73002031,6140bf6523a8f20a2ea1e417,64d2fd46c836a06233681665,64dc7c6aed90c03ed71270e7,,,,,,,decisionTrl,resources/DG.BMP,resources/DBN.BMP,Door1,-0.330555563,0.032407407,1,0,0,1.6184,optionLeft,30,13740,6,35,0,35,0,1,,,,,,,,,,,,,,,,,,,,,,,,,,,,,,,,,,,,,,,
,,,,,,,,2023-08-16_08h37.11.329,HF_wild_card,2022.2.4,Win32,59.73002031,6140bf6523a8f20a2ea1e417,64d2fd46c836a06233681665,64dc7c6aed90c03ed71270e7,,,,,,,decisionTrl,resources/DP.BMP,resources/DBN.BMP,WildCard_Ex,-0.287037037,0.03611109,1,0,0,1.5174,optionLeft,55,13795,6,36,0,36,0,1,,,,,,,,,,,,,,,,,,,,,,,,,,,,,,,,,,,,,,,
,,,,,,,,2023-08-16_08h37.11.329,HF_wild_card,2022.2.4,Win32,59.73002031,6140bf6523a8f20a2ea1e417,64d2fd46c836a06233681665,64dc7c6aed90c03ed71270e7,,,,,,,decisionTrl,resources/DBN.BMP,resources/DG.BMP,Door1,0.310185185,0.035185178,1,0,0,1.9111,optionRight,30,13825,6,37,0,37,0,1,,,,,,,,,,,,,,,,,,,,,,,,,,,,,,,,,,,,,,,
,,,,,,,,2023-08-16_08h37.11.329,HF_wild_card,2022.2.4,Win32,59.73002031,6140bf6523a8f20a2ea1e417,64d2fd46c836a06233681665,64dc7c6aed90c03ed71270e7,,,,,,,decisionTrl,resources/DBN.BMP,resources/DP.BMP,WildCard_Ex,0.26944443,-0.027777778,1,0,0,1.3089,optionRight,55,13880,6,38,0,38,0,1,,,,,,,,,,,,,,,,,,,,,,,,,,,,,,,,,,,,,,,
,,,,,,,,2023-08-16_08h37.11.329,HF_wild_card,2022.2.4,Win32,59.73002031,6140bf6523a8f20a2ea1e417,64d2fd46c836a06233681665,64dc7c6aed90c03ed71270e7,,,,,,,decisionTrl,resources/DG.BMP,resources/DBN.BMP,Door1,-0.003703718,-0.000925947,1,0,0,0.163,optionLeft,30,13910,6,39,0,39,0,1,,,,,,,,,,,,,,,,,,,,,,,,,,,,,,,,,,,,,,,
,,,,,,,,2023-08-16_08h37.11.329,HF_wild_card,2022.2.4,Win32,59.73002031,6140bf6523a8f20a2ea1e417,64d2fd46c836a06233681665,64dc7c6aed90c03ed71270e7,,,,,,,sngl,resources/DBN.BMP,resources/Empty.png,Door2,-0.162962949,0.011111118,1,0,0,1.7562,optionLeft,20,13930,6,40,0,40,0,1,,,,,,,,,,,,,,,,,,,,,,,,,,,,,,,,,,,,,,,
,,,,,,,,2023-08-16_08h37.11.329,HF_wild_card,2022.2.4,Win32,59.73002031,6140bf6523a8f20a2ea1e417,64d2fd46c836a06233681665,64dc7c6aed90c03ed71270e7,,,,,,,sngl,resources/Empty.png,resources/DB.BMP,Door4,0.235185199,-0.008333347,1,0,0,1.1258,optionRight,80,14010,6,41,0,41,0,1,,,,,,,,,,,,,,,,,,,,,,,,,,,,,,,,,,,,,,,
,,,,,,,,2023-08-16_08h37.11.329,HF_wild_card,2022.2.4,Win32,59.73002031,6140bf6523a8f20a2ea1e417,64d2fd46c836a06233681665,64dc7c6aed90c03ed71270e7,,,,,,,decisionTrl,resources/DY.BMP,resources/DP.BMP,Door3,-0.261111083,0.006481489,1,0,0,6.6019,optionLeft,70,14080,6,42,0,42,0,1,,,,,,,,,,,,,,,,,,,,,,,,,,,,,,,,,,,,,,,
,,,,,,,,2023-08-16_08h37.11.329,HF_wild_card,2022.2.4,Win32,59.73002031,6140bf6523a8f20a2ea1e417,64d2fd46c836a06233681665,64dc7c6aed90c03ed71270e7,,,,,,,decisionTrl,resources/DB.BMP,resources/DP.BMP,Door4,-0.29351849,-0.023148148,1,0,0,3.5482,optionLeft,60,14140,6,43,0,43,0,1,,,,,,,,,,,,,,,,,,,,,,,,,,,,,,,,,,,,,,,
,,,,,,,,2023-08-16_08h37.11.329,HF_wild_card,2022.2.4,Win32,59.73002031,6140bf6523a8f20a2ea1e417,64d2fd46c836a06233681665,64dc7c6aed90c03ed71270e7,,,,,,,,,,,,,,,,,,,,,,,,,,5,0,5,0,1,,,,,,,,,,,,,,,,,,,,,,,,,,,,,,,,,,
,,,,,,,,2023-08-16_08h37.11.329,HF_wild_card,2022.2.4,Win32,59.73002031,6140bf6523a8f20a2ea1e417,64d2fd46c836a06233681665,64dc7c6aed90c03ed71270e7,,,,,,,ctch,resources/DB.BMP,resources/DG.BMP,Door4,-0.283333319,-0.100000028,1,0,0,1.9414,optionLeft,60,14200,7,0,0,0,0,1,,,,,,,,,,,,,,,,,,,,,,,,,,,,,,,,,,,,,,,
,,,,,,,,2023-08-16_08h37.11.329,HF_wild_card,2022.2.4,Win32,59.73002031,6140bf6523a8f20a2ea1e417,64d2fd46c836a06233681665,64dc7c6aed90c03ed71270e7,,,,,,,decisionTrl,resources/DB.BMP,resources/DY.BMP,Door4,-0.303703697,-0.027777778,1,0,0,2.4232,optionLeft,60,14260,7,1,0,1,0,1,,,,,,,,,,,,,,,,,,,,,,,,,,,,,,,,,,,,,,,
,,,,,,,,2023-08-16_08h37.11.329,HF_wild_card,2022.2.4,Win32,59.73002031,6140bf6523a8f20a2ea1e417,64d2fd46c836a06233681665,64dc7c6aed90c03ed71270e7,,,,,,,decisionTrl,resources/DG.BMP,resources/DBN.BMP,Door1,-0.424074067,0.017592571,1,0,0,1.426,optionLeft,30,14290,7,2,0,2,0,1,,,,,,,,,,,,,,,,,,,,,,,,,,,,,,,,,,,,,,,
,,,,,,,,2023-08-16_08h37.11.329,HF_wild_card,2022.2.4,Win32,59.73002031,6140bf6523a8f20a2ea1e417,64d2fd46c836a06233681665,64dc7c6aed90c03ed71270e7,,,,,,,ctch,resources/DG.BMP,resources/DB.BMP,Door4,0.258333347,-0.019444466,1,0,0,1.2572,optionRight,80,14370,7,3,0,3,0,1,,,,,,,,,,,,,,,,,,,,,,,,,,,,,,,,,,,,,,,
,,,,,,,,2023-08-16_08h37.11.329,HF_wild_card,2022.2.4,Win32,59.73002031,6140bf6523a8f20a2ea1e417,64d2fd46c836a06233681665,64dc7c6aed90c03ed71270e7,,,,,,,decisionTrl,resources/DY.BMP,resources/DB.BMP,Door4,0.256481524,-0.014814836,1,0,0,2.9951,optionRight,80,14450,7,4,0,4,0,1,,,,,,,,,,,,,,,,,,,,,,,,,,,,,,,,,,,,,,,
,,,,,,,,2023-08-16_08h37.11.329,HF_wild_card,2022.2.4,Win32,59.73002031,6140bf6523a8f20a2ea1e417,64d2fd46c836a06233681665,64dc7c6aed90c03ed71270e7,,,,,,,ctch,resources/DG.BMP,resources/DB.BMP,Door4,0.323148233,-0.035185178,1,0,0,1.5622,optionRight,80,14530,7,5,0,5,0,1,,,,,,,,,,,,,,,,,,,,,,,,,,,,,,,,,,,,,,,
,,,,,,,,2023-08-16_08h37.11.329,HF_wild_card,2022.2.4,Win32,59.73002031,6140bf6523a8f20a2ea1e417,64d2fd46c836a06233681665,64dc7c6aed90c03ed71270e7,,,,,,,decisionTrl,resources/DG.BMP,resources/DBN.BMP,Door1,-0.36296297,-0.003703718,1,0,0,1.1101,optionLeft,30,14560,7,6,0,6,0,1,,,,,,,,,,,,,,,,,,,,,,,,,,,,,,,,,,,,,,,
,,,,,,,,2023-08-16_08h37.11.329,HF_wild_card,2022.2.4,Win32,59.73002031,6140bf6523a8f20a2ea1e417,64d2fd46c836a06233681665,64dc7c6aed90c03ed71270e7,,,,,,,ctch,resources/DY.BMP,resources/DBN.BMP,Door3,-0.199074074,0.021296289,1,0,0,1.8643,optionLeft,70,14630,7,7,0,7,0,1,,,,,,,,,,,,,,,,,,,,,,,,,,,,,,,,,,,,,,,
,,,,,,,,2023-08-16_08h37.11.329,HF_wild_card,2022.2.4,Win32,59.73002031,6140bf6523a8f20a2ea1e417,64d2fd46c836a06233681665,64dc7c6aed90c03ed71270e7,,,,,,,decisionTrl,resources/DB.BMP,resources/DY.BMP,Door4,-0.268518519,-0.006481489,1,0,0,1.8983,optionLeft,80,14710,7,8,0,8,0,1,,,,,,,,,,,,,,,,,,,,,,,,,,,,,,,,,,,,,,,
,,,,,,,,2023-08-16_08h37.11.329,HF_wild_card,2022.2.4,Win32,59.73002031,6140bf6523a8f20a2ea1e417,64d2fd46c836a06233681665,64dc7c6aed90c03ed71270e7,,,,,,,decisionTrl,resources/DBN.BMP,resources/DG.BMP,Door1,0.257407436,-0.001851859,1,0,0,1.6525,optionRight,30,14740,7,9,0,9,0,1,,,,,,,,,,,,,,,,,,,,,,,,,,,,,,,,,,,,,,,
,,,,,,,,2023-08-16_08h37.11.329,HF_wild_card,2022.2.4,Win32,59.73002031,6140bf6523a8f20a2ea1e417,64d2fd46c836a06233681665,64dc7c6aed90c03ed71270e7,,,,,,,ctch,resources/DY.BMP,resources/DBN.BMP,Door3,-0.222222222,-0.020370377,1,0,0,1.049,optionLeft,70,14810,7,10,0,10,0,1,,,,,,,,,,,,,,,,,,,,,,,,,,,,,,,,,,,,,,,
,,,,,,,,2023-08-16_08h37.11.329,HF_wild_card,2022.2.4,Win32,59.73002031,6140bf6523a8f20a2ea1e417,64d2fd46c836a06233681665,64dc7c6aed90c03ed71270e7,,,,,,,decisionTrl,resources/DB.BMP,resources/DY.BMP,Door4,-0.267592607,-0.040740755,1,0,0,1.4471,optionLeft,60,14870,7,11,0,11,0,1,,,,,,,,,,,,,,,,,,,,,,,,,,,,,,,,,,,,,,,
,,,,,,,,2023-08-16_08h37.11.329,HF_wild_card,2022.2.4,Win32,59.73002031,6140bf6523a8f20a2ea1e417,64d2fd46c836a06233681665,64dc7c6aed90c03ed71270e7,,,,,,,decisionTrl,resources/DBN.BMP,resources/DG.BMP,Door1,0.270370413,-0.006481489,1,0,0,1.0661,optionRight,30,14900,7,12,0,12,0,1,,,,,,,,,,,,,,,,,,,,,,,,,,,,,,,,,,,,,,,
,,,,,,,,2023-08-16_08h37.11.329,HF_wild_card,2022.2.4,Win32,59.73002031,6140bf6523a8f20a2ea1e417,64d2fd46c836a06233681665,64dc7c6aed90c03ed71270e7,,,,,,,decisionTrl,resources/DY.BMP,resources/DB.BMP,Door4,0.33148151,-0.013888889,1,0,0,1.2801,optionRight,80,14980,7,13,0,13,0,1,,,,,,,,,,,,,,,,,,,,,,,,,,,,,,,,,,,,,,,
,,,,,,,,2023-08-16_08h37.11.329,HF_wild_card,2022.2.4,Win32,59.73002031,6140bf6523a8f20a2ea1e417,64d2fd46c836a06233681665,64dc7c6aed90c03ed71270e7,,,,,,,ctch,resources/DB.BMP,resources/DG.BMP,Door4,-0.299999979,-0.001851859,1,0,0,1.3426,optionLeft,60,15040,7,14,0,14,0,1,,,,,,,,,,,,,,,,,,,,,,,,,,,,,,,,,,,,,,,
,,,,,,,,2023-08-16_08h37.11.329,HF_wild_card,2022.2.4,Win32,59.73002031,6140bf6523a8f20a2ea1e417,64d2fd46c836a06233681665,64dc7c6aed90c03ed71270e7,,,,,,,decisionTrl,resources/DBN.BMP,resources/DG.BMP,Door1,0.333333333,-0.037037037,1,0,0,1.1021,optionRight,30,15070,7,15,0,15,0,1,,,,,,,,,,,,,,,,,,,,,,,,,,,,,,,,,,,,,,,
,,,,,,,,2023-08-16_08h37.11.329,HF_wild_card,2022.2.4,Win32,59.73002031,6140bf6523a8f20a2ea1e417,64d2fd46c836a06233681665,64dc7c6aed90c03ed71270e7,,,,,,,decisionTrl,resources/DY.BMP,resources/DB.BMP,Door4,0.212037051,-0.000925947,1,0,0,1.2325,optionRight,80,15150,7,16,0,16,0,1,,,,,,,,,,,,,,,,,,,,,,,,,,,,,,,,,,,,,,,
,,,,,,,,2023-08-16_08h37.11.329,HF_wild_card,2022.2.4,Win32,59.73002031,6140bf6523a8f20a2ea1e417,64d2fd46c836a06233681665,64dc7c6aed90c03ed71270e7,,,,,,,decisionTrl,resources/DY.BMP,resources/DB.BMP,Door4,0.233333376,-0.010185206,1,0,0,1.174,optionRight,80,15230,7,17,0,17,0,1,,,,,,,,,,,,,,,,,,,,,,,,,,,,,,,,,,,,,,,
,,,,,,,,2023-08-16_08h37.11.329,HF_wild_card,2022.2.4,Win32,59.73002031,6140bf6523a8f20a2ea1e417,64d2fd46c836a06233681665,64dc7c6aed90c03ed71270e7,,,,,,,decisionTrl,resources/DY.BMP,resources/DB.BMP,Door4,0.294444473,-0.040740755,1,0,0,0.9437,optionRight,80,15310,7,18,0,18,0,1,,,,,,,,,,,,,,,,,,,,,,,,,,,,,,,,,,,,,,,
,,,,,,,,2023-08-16_08h37.11.329,HF_wild_card,2022.2.4,Win32,59.73002031,6140bf6523a8f20a2ea1e417,64d2fd46c836a06233681665,64dc7c6aed90c03ed71270e7,,,,,,,decisionTrl,resources/DBN.BMP,resources/DG.BMP,Door1,0.362962935,-0.039814808,1,0,0,1.0367,optionRight,30,15340,7,19,0,19,0,1,,,,,,,,,,,,,,,,,,,,,,,,,,,,,,,,,,,,,,,
,,,,,,,,2023-08-16_08h37.11.329,HF_wild_card,2022.2.4,Win32,59.73002031,6140bf6523a8f20a2ea1e417,64d2fd46c836a06233681665,64dc7c6aed90c03ed71270e7,,,,,,,ctch,resources/DG.BMP,resources/DB.BMP,Door4,0.199999986,-0.0074074,1,0,0,1.4785,optionRight,80,15420,7,20,0,20,0,1,,,,,,,,,,,,,,,,,,,,,,,,,,,,,,,,,,,,,,,
,,,,,,,,2023-08-16_08h37.11.329,HF_wild_card,2022.2.4,Win32,59.73002031,6140bf6523a8f20a2ea1e417,64d2fd46c836a06233681665,64dc7c6aed90c03ed71270e7,,,,,,,decisionTrl,resources/DG.BMP,resources/DBN.BMP,Door1,-0.239814829,-0.0074074,1,0,0,1.236,optionLeft,30,15450,7,21,0,21,0,1,,,,,,,,,,,,,,,,,,,,,,,,,,,,,,,,,,,,,,,
,,,,,,,,2023-08-16_08h37.11.329,HF_wild_card,2022.2.4,Win32,59.73002031,6140bf6523a8f20a2ea1e417,64d2fd46c836a06233681665,64dc7c6aed90c03ed71270e7,,,,,,,decisionTrl,resources/DBN.BMP,resources/DG.BMP,Door1,0.301851908,-0.020370377,1,0,0,0.9555,optionRight,30,15480,7,22,0,22,0,1,,,,,,,,,,,,,,,,,,,,,,,,,,,,,,,,,,,,,,,
,,,,,,,,2023-08-16_08h37.11.329,HF_wild_card,2022.2.4,Win32,59.73002031,6140bf6523a8f20a2ea1e417,64d2fd46c836a06233681665,64dc7c6aed90c03ed71270e7,,,,,,,ctch,resources/DBN.BMP,resources/DY.BMP,Door3,0.312962991,-0.037962984,1,0,0,1.2435,optionRight,70,15550,7,23,0,23,0,1,,,,,,,,,,,,,,,,,,,,,,,,,,,,,,,,,,,,,,,
,,,,,,,,2023-08-16_08h37.11.329,HF_wild_card,2022.2.4,Win32,59.73002031,6140bf6523a8f20a2ea1e417,64d2fd46c836a06233681665,64dc7c6aed90c03ed71270e7,,,,,,,ctch,resources/DY.BMP,resources/DBN.BMP,Door3,-0.314814815,-0.010185206,1,0,0,0.947,optionLeft,70,15620,7,24,0,24,0,1,,,,,,,,,,,,,,,,,,,,,,,,,,,,,,,,,,,,,,,
,,,,,,,,2023-08-16_08h37.11.329,HF_wild_card,2022.2.4,Win32,59.73002031,6140bf6523a8f20a2ea1e417,64d2fd46c836a06233681665,64dc7c6aed90c03ed71270e7,,,,,,,ctch,resources/DB.BMP,resources/DG.BMP,Door4,-0.303703697,-0.00462963,1,0,0,1.0153,optionLeft,80,15700,7,25,0,25,0,1,,,,,,,,,,,,,,,,,,,,,,,,,,,,,,,,,,,,,,,
,,,,,,,,2023-08-16_08h37.11.329,HF_wild_card,2022.2.4,Win32,59.73002031,6140bf6523a8f20a2ea1e417,64d2fd46c836a06233681665,64dc7c6aed90c03ed71270e7,,,,,,,decisionTrl,resources/DG.BMP,resources/DBN.BMP,Door1,-0.249074088,0.008333312,1,0,0,0.985,optionLeft,30,15730,7,26,0,26,0,1,,,,,,,,,,,,,,,,,,,,,,,,,,,,,,,,,,,,,,,
,,,,,,,,2023-08-16_08h37.11.329,HF_wild_card,2022.2.4,Win32,59.73002031,6140bf6523a8f20a2ea1e417,64d2fd46c836a06233681665,64dc7c6aed90c03ed71270e7,,,,,,,decisionTrl,resources/DB.BMP,resources/DY.BMP,Door4,-0.233333305,-0.01203703,1,0,0,1.6854,optionLeft,80,15810,7,27,0,27,0,1,,,,,,,,,,,,,,,,,,,,,,,,,,,,,,,,,,,,,,,
,,,,,,,,2023-08-16_08h37.11.329,HF_wild_card,2022.2.4,Win32,59.73002031,6140bf6523a8f20a2ea1e417,64d2fd46c836a06233681665,64dc7c6aed90c03ed71270e7,,,,,,,decisionTrl,resources/DB.BMP,resources/DY.BMP,Door4,-0.257407365,0.002777771,1,0,0,1.3604,optionLeft,80,15890,7,28,0,28,0,1,,,,,,,,,,,,,,,,,,,,,,,,,,,,,,,,,,,,,,,
,,,,,,,,2023-08-16_08h37.11.329,HF_wild_card,2022.2.4,Win32,59.73002031,6140bf6523a8f20a2ea1e417,64d2fd46c836a06233681665,64dc7c6aed90c03ed71270e7,,,,,,,decisionTrl,resources/DB.BMP,resources/DY.BMP,Door3,0.273148148,-0.01666666,1,0,0,0.8323,optionRight,70,15960,7,29,0,29,0,1,,,,,,,,,,,,,,,,,,,,,,,,,,,,,,,,,,,,,,,
,,,,,,,,2023-08-16_08h37.11.329,HF_wild_card,2022.2.4,Win32,59.73002031,6140bf6523a8f20a2ea1e417,64d2fd46c836a06233681665,64dc7c6aed90c03ed71270e7,,,,,,,decisionTrl,resources/DG.BMP,resources/DBN.BMP,Door1,-0.248148106,-0.009259259,1,0,0,1.3177,optionLeft,30,15990,7,30,0,30,0,1,,,,,,,,,,,,,,,,,,,,,,,,,,,,,,,,,,,,,,,
,,,,,,,,2023-08-16_08h37.11.329,HF_wild_card,2022.2.4,Win32,59.73002031,6140bf6523a8f20a2ea1e417,64d2fd46c836a06233681665,64dc7c6aed90c03ed71270e7,,,,,,,decisionTrl,resources/DG.BMP,resources/DBN.BMP,Door1,-0.24537037,0.01944443,1,0,0,1.037,optionLeft,30,16020,7,31,0,31,0,1,,,,,,,,,,,,,,,,,,,,,,,,,,,,,,,,,,,,,,,
,,,,,,,,2023-08-16_08h37.11.329,HF_wild_card,2022.2.4,Win32,59.73002031,6140bf6523a8f20a2ea1e417,64d2fd46c836a06233681665,64dc7c6aed90c03ed71270e7,,,,,,,decisionTrl,resources/DY.BMP,resources/DB.BMP,Door4,0.294444473,-0.000925947,1,0,0,1.6384,optionRight,80,16100,7,32,0,32,0,1,,,,,,,,,,,,,,,,,,,,,,,,,,,,,,,,,,,,,,,
,,,,,,,,2023-08-16_08h37.11.329,HF_wild_card,2022.2.4,Win32,59.73002031,6140bf6523a8f20a2ea1e417,64d2fd46c836a06233681665,64dc7c6aed90c03ed71270e7,,,,,,,ctch,resources/DBN.BMP,resources/DY.BMP,Door3,0.267592607,0.017592571,1,0,0,1.0824,optionRight,70,16170,7,33,0,33,0,1,,,,,,,,,,,,,,,,,,,,,,,,,,,,,,,,,,,,,,,
,,,,,,,,2023-08-16_08h37.11.329,HF_wild_card,2022.2.4,Win32,59.73002031,6140bf6523a8f20a2ea1e417,64d2fd46c836a06233681665,64dc7c6aed90c03ed71270e7,,,,,,,ctch,resources/DBN.BMP,resources/DY.BMP,Door3,0.179629644,0.00462963,1,0,0,1.2744,optionRight,70,16240,7,34,0,34,0,1,,,,,,,,,,,,,,,,,,,,,,,,,,,,,,,,,,,,,,,
,,,,,,,,2023-08-16_08h37.11.329,HF_wild_card,2022.2.4,Win32,59.73002031,6140bf6523a8f20a2ea1e417,64d2fd46c836a06233681665,64dc7c6aed90c03ed71270e7,,,,,,,decisionTrl,resources/DBN.BMP,resources/DG.BMP,Door1,0.264814801,-0.025000007,1,0,0,1.4902,optionRight,30,16270,7,35,0,35,0,1,,,,,,,,,,,,,,,,,,,,,,,,,,,,,,,,,,,,,,,
,,,,,,,,2023-08-16_08h37.11.329,HF_wild_card,2022.2.4,Win32,59.73002031,6140bf6523a8f20a2ea1e417,64d2fd46c836a06233681665,64dc7c6aed90c03ed71270e7,,,,,,,,,,,,,,,,,,,,,,,,,,6,0,6,0,1,,,,,,,,,,,,,,,,,,,,,,,,,,,,,,,,,,
,,,,,,,,2023-08-16_08h37.11.329,HF_wild_card,2022.2.4,Win32,59.73002031,6140bf6523a8f20a2ea1e417,64d2fd46c836a06233681665,64dc7c6aed90c03ed71270e7,,,,,,,,,,,,,,,,,,,,,,,,,,,,,,,4,,,,,,,,,,,,,,,,,,,,,,,,,,,,,,,,,
,,,,,,,,2023-08-16_08h37.11.329,HF_wild_card,2022.2.4,Win32,59.73002031,6140bf6523a8f20a2ea1e417,64d2fd46c836a06233681665,64dc7c6aed90c03ed71270e7,,,,,,,,,,,,,,,,,,,,,,,,,,,,,,,,,,,,,,,,,,,,,,,,,,,,,,,,,,,,,,,,
,,,,,,,,2023-08-16_08h37.11.329,HF_wild_card,2022.2.4,Win32,59.73002031,6140bf6523a8f20a2ea1e417,64d2fd46c836a06233681665,64dc7c6aed90c03ed71270e7,,,,,,,,,,,,,,,,,,,,,,,,,,,,,,,,30,Door1,resources/DG.BMP,0,0,0,0,1,,,,,,,,,,,,,,,,,,,,,,,,,
,,,,,,,,2023-08-16_08h37.11.329,HF_wild_card,2022.2.4,Win32,59.73002031,6140bf6523a8f20a2ea1e417,64d2fd46c836a06233681665,64dc7c6aed90c03ed71270e7,,,,,,,,,,,,,,,,,,,,,,,,,,,,,,,,20,Door2,resources/DBN.BMP,1,0,1,0,1,,,,,,,,,,,,,,,,,,,,,,,,,
,,,,,,,,2023-08-16_08h37.11.329,HF_wild_card,2022.2.4,Win32,59.73002031,6140bf6523a8f20a2ea1e417,64d2fd46c836a06233681665,64dc7c6aed90c03ed71270e7,,,,,,,,,,,,,,,,,,,,,,,,,,,,,,,,55,WC_extreme,resources/DP.BMP,2,0,2,0,1,,,,,,,,,,,,,,,,,,,,,,,,,
,,,,,,,,2023-08-16_08h37.11.329,HF_wild_card,2022.2.4,Win32,59.73002031,6140bf6523a8f20a2ea1e417,64d2fd46c836a06233681665,64dc7c6aed90c03ed71270e7,,,,,,,,,,,,,,,,,,,,,,,,,,,,,,,,45,WC_nonExtreme,resources/DR.BMP,3,0,3,0,1,,,,,,,,,,,,,,,,,,,,,,,,,
,,,,,,,,2023-08-16_08h37.11.329,HF_wild_card,2022.2.4,Win32,59.73002031,6140bf6523a8f20a2ea1e417,64d2fd46c836a06233681665,64dc7c6aed90c03ed71270e7,,,,,,,,,,,,,,,,,,,,,,,,,,,,,,,,80,Door4,resources/DB.BMP,4,0,4,0,1,,,,,,,,,,,,,,,,,,,,,,,,,
,,,,,,,,2023-08-16_08h37.11.329,HF_wild_card,2022.2.4,Win32,59.73002031,6140bf6523a8f20a2ea1e417,64d2fd46c836a06233681665,64dc7c6aed90c03ed71270e7,,,,,,,,,,,,,,,,,,,,,,,,,,,,,,,,70,Door3,resources/DY.BMP,5,0,5,0,1,,,,,,,,,,,,,,,,,,,,,,,,,
,,,,,,,,2023-08-16_08h37.11.329,HF_wild_card,2022.2.4,Win32,59.73002031,6140bf6523a8f20a2ea1e417,64d2fd46c836a06233681665,64dc7c6aed90c03ed71270e7,,,,,,,,,,,,,,,,,,,,,,,,,,,,,,,,,,,,,,,,,,,,,,,,,,,,,,,,,,,,,,,,
