Condition,Low fixed image (Door1),Low risky image (Door2),High fixed image (Door3),High risky image (Door4),Extreme Wild Card,NonExtreme Wild Card,,date,expName,psychopyVersion,OS,frameRate,PROLIFIC_PID,STUDY_ID,SESSION_ID,mouse_2.x,mouse_2.y,mouse_2.leftButton,mouse_2.midButton,mouse_2.rightButton,mouse_2.clicked_name,Trial Type,Left Option Image,Right Option Image,Chosen Door,mouse.x,mouse.y,mouse.leftButton,mouse.midButton,mouse.rightButton,mouse.time,mouse.clicked_name,Feedback,Cumulative Reward,Block,trial.thisRepN,trial.thisTrialN,trial.thisN,trial.thisIndex,trial.ran,blocks.thisRepN,blocks.thisTrialN,blocks.thisN,blocks.thisIndex,blocks.ran,Money conversion,First Outcome Reported,Shown Door (First Outcome),Displayed Image (First Outcome),outcomes.thisRepN,outcomes.thisTrialN,outcomes.thisN,outcomes.thisIndex,outcomes.ran,judgments.thisRepN,judgments.thisTrialN,judgments.thisN,judgments.thisIndex,judgments.ran,freqMouse.x,freqMouse.y,freqMouse.leftButton,freqMouse.midButton,freqMouse.rightButton,freqMouse.clicked_name,trials.thisRepN,trials.thisTrialN,trials.thisN,trials.thisIndex,trials.ran,FQJ for first outcome,FQJ for second outcome,Shown Door,Displayed Image,judgBlock.thisRepN,judgBlock.thisTrialN,judgBlock.thisN,judgBlock.thisIndex,judgBlock.ran
1,resources/DP.BMP,resources/DB.BMP,resources/DG.BMP,resources/DY.BMP,resources/DR.BMP,resources/DBN.BMP,,2023-08-16_08h54.41.697,HF_wild_card,2022.2.4,Win32,60.97189196,643918b7df602a9f3f3f66d7,64d2fd46c836a06233681665,64dc7f575c202e4d552da82d,,,,,,,,,,,,,,,,,,,,,,,,,,,,,,,,,,,,,,,,,,,,,,,,,,,,,,,,,,,,,,,,
,,,,,,,,2023-08-16_08h54.41.697,HF_wild_card,2022.2.4,Win32,60.97189196,643918b7df602a9f3f3f66d7,64d2fd46c836a06233681665,64dc7f575c202e4d552da82d,0.009259259,-0.424074074,1,0,0,agree,,,,,,,,,,,,,,,,,,,,,,,,,,,,,,,,,,,,,,,,,,,,,,,,,,,,,,,,,,
,,,,,,,,2023-08-16_08h54.41.697,HF_wild_card,2022.2.4,Win32,60.97189196,643918b7df602a9f3f3f66d7,64d2fd46c836a06233681665,64dc7f575c202e4d552da82d,,,,,,,,,,,,,,,,,,,,,,,,,,,,,,,,,,,,,,,,,,,,,,,,,,,,,,,,,,,,,,,,
,,,,,,,,2023-08-16_08h54.41.697,HF_wild_card,2022.2.4,Win32,60.97189196,643918b7df602a9f3f3f66d7,64d2fd46c836a06233681665,64dc7f575c202e4d552da82d,,,,,,,decisionTrl,resources/DB.BMP,resources/DP.BMP,Door1,0.432407407,-0.162962963,1,0,0,3.6586,optionRight,30,30,1,0,0,0,0,1,,,,,,,,,,,,,,,,,,,,,,,,,,,,,,,,,,,,,,,
,,,,,,,,2023-08-16_08h54.41.697,HF_wild_card,2022.2.4,Win32,60.97189196,643918b7df602a9f3f3f66d7,64d2fd46c836a06233681665,64dc7f575c202e4d552da82d,,,,,,,decisionTrl,resources/DP.BMP,resources/DBN.BMP,WildCard_NonEx,0.285185185,-0.025925926,1,0,0,3.0597,optionRight,55,85,1,1,0,1,0,1,,,,,,,,,,,,,,,,,,,,,,,,,,,,,,,,,,,,,,,
,,,,,,,,2023-08-16_08h54.41.697,HF_wild_card,2022.2.4,Win32,60.97189196,643918b7df602a9f3f3f66d7,64d2fd46c836a06233681665,64dc7f575c202e4d552da82d,,,,,,,decisionTrl,resources/DY.BMP,resources/DBN.BMP,WildCard_NonEx,0.440740741,-0.022222222,1,0,0,2.8847,optionRight,45,130,1,2,0,2,0,1,,,,,,,,,,,,,,,,,,,,,,,,,,,,,,,,,,,,,,,
,,,,,,,,2023-08-16_08h54.41.697,HF_wild_card,2022.2.4,Win32,60.97189196,643918b7df602a9f3f3f66d7,64d2fd46c836a06233681665,64dc7f575c202e4d552da82d,,,,,,,sngl,resources/DY.BMP,resources/Empty.png,Door4,-0.311111111,-0.025925926,1,0,0,2.4803,optionLeft,80,210,1,3,0,3,0,1,,,,,,,,,,,,,,,,,,,,,,,,,,,,,,,,,,,,,,,
,,,,,,,,2023-08-16_08h54.41.697,HF_wild_card,2022.2.4,Win32,60.97189196,643918b7df602a9f3f3f66d7,64d2fd46c836a06233681665,64dc7f575c202e4d552da82d,,,,,,,decisionTrl,resources/DY.BMP,resources/DG.BMP,Door4,-0.32037037,-0.000925926,1,0,0,1.1834,optionLeft,60,270,1,4,0,4,0,1,,,,,,,,,,,,,,,,,,,,,,,,,,,,,,,,,,,,,,,
,,,,,,,,2023-08-16_08h54.41.697,HF_wild_card,2022.2.4,Win32,60.97189196,643918b7df602a9f3f3f66d7,64d2fd46c836a06233681665,64dc7f575c202e4d552da82d,,,,,,,decisionTrl,resources/DY.BMP,resources/DG.BMP,Door4,-0.292592593,-0.014814815,1,0,0,2.4451,optionLeft,60,330,1,5,0,5,0,1,,,,,,,,,,,,,,,,,,,,,,,,,,,,,,,,,,,,,,,
,,,,,,,,2023-08-16_08h54.41.697,HF_wild_card,2022.2.4,Win32,60.97189196,643918b7df602a9f3f3f66d7,64d2fd46c836a06233681665,64dc7f575c202e4d552da82d,,,,,,,ctch,resources/DB.BMP,resources/DG.BMP,Door3,0.323148148,-0.003703704,1,0,0,1.2792,optionRight,70,400,1,6,0,6,0,1,,,,,,,,,,,,,,,,,,,,,,,,,,,,,,,,,,,,,,,
,,,,,,,,2023-08-16_08h54.41.697,HF_wild_card,2022.2.4,Win32,60.97189196,643918b7df602a9f3f3f66d7,64d2fd46c836a06233681665,64dc7f575c202e4d552da82d,,,,,,,ctch,resources/DP.BMP,resources/DY.BMP,Door4,0.157407407,-0.012962963,1,0,0,1.1465,optionRight,80,480,1,7,0,7,0,1,,,,,,,,,,,,,,,,,,,,,,,,,,,,,,,,,,,,,,,
,,,,,,,,2023-08-16_08h54.41.697,HF_wild_card,2022.2.4,Win32,60.97189196,643918b7df602a9f3f3f66d7,64d2fd46c836a06233681665,64dc7f575c202e4d552da82d,,,,,,,sngl,resources/Empty.png,resources/DB.BMP,Door2,0.289814815,-0.063888889,1,0,0,1.7033,optionRight,20,500,1,8,0,8,0,1,,,,,,,,,,,,,,,,,,,,,,,,,,,,,,,,,,,,,,,
,,,,,,,,2023-08-16_08h54.41.697,HF_wild_card,2022.2.4,Win32,60.97189196,643918b7df602a9f3f3f66d7,64d2fd46c836a06233681665,64dc7f575c202e4d552da82d,,,,,,,decisionTrl,resources/DY.BMP,resources/DG.BMP,Door3,0.37962963,-0.024074074,1,0,0,2.4783,optionRight,70,570,1,9,0,9,0,1,,,,,,,,,,,,,,,,,,,,,,,,,,,,,,,,,,,,,,,
,,,,,,,,2023-08-16_08h54.41.697,HF_wild_card,2022.2.4,Win32,60.97189196,643918b7df602a9f3f3f66d7,64d2fd46c836a06233681665,64dc7f575c202e4d552da82d,,,,,,,decisionTrl,resources/DY.BMP,resources/DG.BMP,Door4,-0.278703704,-0.001851852,1,0,0,1.1312,optionLeft,60,630,1,10,0,10,0,1,,,,,,,,,,,,,,,,,,,,,,,,,,,,,,,,,,,,,,,
,,,,,,,,2023-08-16_08h54.41.697,HF_wild_card,2022.2.4,Win32,60.97189196,643918b7df602a9f3f3f66d7,64d2fd46c836a06233681665,64dc7f575c202e4d552da82d,,,,,,,ctch,resources/DG.BMP,resources/DB.BMP,Door3,-0.223148148,-0.011111111,1,0,0,1.6918,optionLeft,70,700,1,11,0,11,0,1,,,,,,,,,,,,,,,,,,,,,,,,,,,,,,,,,,,,,,,
,,,,,,,,2023-08-16_08h54.41.697,HF_wild_card,2022.2.4,Win32,60.97189196,643918b7df602a9f3f3f66d7,64d2fd46c836a06233681665,64dc7f575c202e4d552da82d,,,,,,,decisionTrl,resources/DG.BMP,resources/DY.BMP,Door4,0.262962963,-0.047222222,1,0,0,1.3741,optionRight,80,780,1,12,0,12,0,1,,,,,,,,,,,,,,,,,,,,,,,,,,,,,,,,,,,,,,,
,,,,,,,,2023-08-16_08h54.41.697,HF_wild_card,2022.2.4,Win32,60.97189196,643918b7df602a9f3f3f66d7,64d2fd46c836a06233681665,64dc7f575c202e4d552da82d,,,,,,,ctch,resources/DY.BMP,resources/DP.BMP,Door1,0.211111111,-0.031481481,1,0,0,1.2164,optionRight,30,810,1,13,0,13,0,1,,,,,,,,,,,,,,,,,,,,,,,,,,,,,,,,,,,,,,,
,,,,,,,,2023-08-16_08h54.41.697,HF_wild_card,2022.2.4,Win32,60.97189196,643918b7df602a9f3f3f66d7,64d2fd46c836a06233681665,64dc7f575c202e4d552da82d,,,,,,,ctch,resources/DY.BMP,resources/DP.BMP,Door4,-0.380555556,-0.009259259,1,0,0,1.169,optionLeft,60,870,1,14,0,14,0,1,,,,,,,,,,,,,,,,,,,,,,,,,,,,,,,,,,,,,,,
,,,,,,,,2023-08-16_08h54.41.697,HF_wild_card,2022.2.4,Win32,60.97189196,643918b7df602a9f3f3f66d7,64d2fd46c836a06233681665,64dc7f575c202e4d552da82d,,,,,,,decisionTrl,resources/DBN.BMP,resources/DP.BMP,Door1,0.347222222,-0.051851852,1,0,0,1.1631,optionRight,30,900,1,15,0,15,0,1,,,,,,,,,,,,,,,,,,,,,,,,,,,,,,,,,,,,,,,
,,,,,,,,2023-08-16_08h54.41.697,HF_wild_card,2022.2.4,Win32,60.97189196,643918b7df602a9f3f3f66d7,64d2fd46c836a06233681665,64dc7f575c202e4d552da82d,,,,,,,decisionTrl,resources/DG.BMP,resources/DY.BMP,Door3,-0.339814815,0.019444444,1,0,0,1.4807,optionLeft,70,970,1,16,0,16,0,1,,,,,,,,,,,,,,,,,,,,,,,,,,,,,,,,,,,,,,,
,,,,,,,,2023-08-16_08h54.41.697,HF_wild_card,2022.2.4,Win32,60.97189196,643918b7df602a9f3f3f66d7,64d2fd46c836a06233681665,64dc7f575c202e4d552da82d,,,,,,,decisionTrl,resources/DP.BMP,resources/DB.BMP,Door1,-0.248148148,0.00462963,1,0,0,1.6194,optionLeft,30,1000,1,17,0,17,0,1,,,,,,,,,,,,,,,,,,,,,,,,,,,,,,,,,,,,,,,
,,,,,,,,2023-08-16_08h54.41.697,HF_wild_card,2022.2.4,Win32,60.97189196,643918b7df602a9f3f3f66d7,64d2fd46c836a06233681665,64dc7f575c202e4d552da82d,,,,,,,sngl,resources/Empty.png,resources/DP.BMP,Door1,0.364814815,-0.051851852,1,0,0,1.2773,optionRight,30,1030,1,18,0,18,0,1,,,,,,,,,,,,,,,,,,,,,,,,,,,,,,,,,,,,,,,
,,,,,,,,2023-08-16_08h54.41.697,HF_wild_card,2022.2.4,Win32,60.97189196,643918b7df602a9f3f3f66d7,64d2fd46c836a06233681665,64dc7f575c202e4d552da82d,,,,,,,sngl,resources/Empty.png,resources/DBN.BMP,WildCard_NonEx,0.335185185,-0.042592593,1,0,0,1.2806,optionRight,45,1075,1,19,0,19,0,1,,,,,,,,,,,,,,,,,,,,,,,,,,,,,,,,,,,,,,,
,,,,,,,,2023-08-16_08h54.41.697,HF_wild_card,2022.2.4,Win32,60.97189196,643918b7df602a9f3f3f66d7,64d2fd46c836a06233681665,64dc7f575c202e4d552da82d,,,,,,,decisionTrl,resources/DB.BMP,resources/DP.BMP,Door1,0.248148148,-0.011111111,1,0,0,1.4761,optionRight,30,1105,1,20,0,20,0,1,,,,,,,,,,,,,,,,,,,,,,,,,,,,,,,,,,,,,,,
,,,,,,,,2023-08-16_08h54.41.697,HF_wild_card,2022.2.4,Win32,60.97189196,643918b7df602a9f3f3f66d7,64d2fd46c836a06233681665,64dc7f575c202e4d552da82d,,,,,,,decisionTrl,resources/DBN.BMP,resources/DB.BMP,WildCard_NonEx,-0.32962963,0.031481481,1,0,0,1.2299,optionLeft,45,1150,1,21,0,21,0,1,,,,,,,,,,,,,,,,,,,,,,,,,,,,,,,,,,,,,,,
,,,,,,,,2023-08-16_08h54.41.697,HF_wild_card,2022.2.4,Win32,60.97189196,643918b7df602a9f3f3f66d7,64d2fd46c836a06233681665,64dc7f575c202e4d552da82d,,,,,,,sngl,resources/DB.BMP,resources/Empty.png,Door2,-0.430555556,0.069444444,1,0,0,0.8964,optionLeft,40,1190,1,22,0,22,0,1,,,,,,,,,,,,,,,,,,,,,,,,,,,,,,,,,,,,,,,
,,,,,,,,2023-08-16_08h54.41.697,HF_wild_card,2022.2.4,Win32,60.97189196,643918b7df602a9f3f3f66d7,64d2fd46c836a06233681665,64dc7f575c202e4d552da82d,,,,,,,decisionTrl,resources/DBN.BMP,resources/DG.BMP,WildCard_NonEx,-0.226851852,0.005555556,1,0,0,1.4807,optionLeft,55,1245,1,23,0,23,0,1,,,,,,,,,,,,,,,,,,,,,,,,,,,,,,,,,,,,,,,
,,,,,,,,2023-08-16_08h54.41.697,HF_wild_card,2022.2.4,Win32,60.97189196,643918b7df602a9f3f3f66d7,64d2fd46c836a06233681665,64dc7f575c202e4d552da82d,,,,,,,decisionTrl,resources/DP.BMP,resources/DB.BMP,Door2,0.362037037,-0.02962963,1,0,0,1.7678,optionRight,20,1265,1,24,0,24,0,1,,,,,,,,,,,,,,,,,,,,,,,,,,,,,,,,,,,,,,,
,,,,,,,,2023-08-16_08h54.41.697,HF_wild_card,2022.2.4,Win32,60.97189196,643918b7df602a9f3f3f66d7,64d2fd46c836a06233681665,64dc7f575c202e4d552da82d,,,,,,,decisionTrl,resources/DG.BMP,resources/DY.BMP,Door4,0.339814815,-0.02037037,1,0,0,0.9119,optionRight,60,1325,1,25,0,25,0,1,,,,,,,,,,,,,,,,,,,,,,,,,,,,,,,,,,,,,,,
,,,,,,,,2023-08-16_08h54.41.697,HF_wild_card,2022.2.4,Win32,60.97189196,643918b7df602a9f3f3f66d7,64d2fd46c836a06233681665,64dc7f575c202e4d552da82d,,,,,,,decisionTrl,resources/DP.BMP,resources/DB.BMP,Door2,0.15462963,-0.000925926,1,0,0,1.1494,optionRight,20,1345,1,26,0,26,0,1,,,,,,,,,,,,,,,,,,,,,,,,,,,,,,,,,,,,,,,
,,,,,,,,2023-08-16_08h54.41.697,HF_wild_card,2022.2.4,Win32,60.97189196,643918b7df602a9f3f3f66d7,64d2fd46c836a06233681665,64dc7f575c202e4d552da82d,,,,,,,decisionTrl,resources/DB.BMP,resources/DP.BMP,Door1,0.191666667,0.011111111,1,0,0,1.4468,optionRight,30,1375,1,27,0,27,0,1,,,,,,,,,,,,,,,,,,,,,,,,,,,,,,,,,,,,,,,
,,,,,,,,2023-08-16_08h54.41.697,HF_wild_card,2022.2.4,Win32,60.97189196,643918b7df602a9f3f3f66d7,64d2fd46c836a06233681665,64dc7f575c202e4d552da82d,,,,,,,sngl,resources/DP.BMP,resources/Empty.png,Door1,-0.285185185,0.035185185,1,0,0,0.8999,optionLeft,30,1405,1,28,0,28,0,1,,,,,,,,,,,,,,,,,,,,,,,,,,,,,,,,,,,,,,,
,,,,,,,,2023-08-16_08h54.41.697,HF_wild_card,2022.2.4,Win32,60.97189196,643918b7df602a9f3f3f66d7,64d2fd46c836a06233681665,64dc7f575c202e4d552da82d,,,,,,,ctch,resources/DP.BMP,resources/DY.BMP,Door1,-0.217592593,0.002777778,1,0,0,1.2279,optionLeft,30,1435,1,29,0,29,0,1,,,,,,,,,,,,,,,,,,,,,,,,,,,,,,,,,,,,,,,
,,,,,,,,2023-08-16_08h54.41.697,HF_wild_card,2022.2.4,Win32,60.97189196,643918b7df602a9f3f3f66d7,64d2fd46c836a06233681665,64dc7f575c202e4d552da82d,,,,,,,decisionTrl,resources/DG.BMP,resources/DY.BMP,Door4,0.222222222,-0.030555556,1,0,0,0.9175,optionRight,60,1495,1,30,0,30,0,1,,,,,,,,,,,,,,,,,,,,,,,,,,,,,,,,,,,,,,,
,,,,,,,,2023-08-16_08h54.41.697,HF_wild_card,2022.2.4,Win32,60.97189196,643918b7df602a9f3f3f66d7,64d2fd46c836a06233681665,64dc7f575c202e4d552da82d,,,,,,,ctch,resources/DG.BMP,resources/DB.BMP,Door2,0.275,-0.048148148,1,0,0,0.6519,optionRight,20,1515,1,31,0,31,0,1,,,,,,,,,,,,,,,,,,,,,,,,,,,,,,,,,,,,,,,
,,,,,,,,2023-08-16_08h54.41.697,HF_wild_card,2022.2.4,Win32,60.97189196,643918b7df602a9f3f3f66d7,64d2fd46c836a06233681665,64dc7f575c202e4d552da82d,,,,,,,sngl,resources/Empty.png,resources/DBN.BMP,WildCard_NonEx,0.258333333,-0.019444444,1,0,0,0.8673,optionRight,55,1570,1,32,0,32,0,1,,,,,,,,,,,,,,,,,,,,,,,,,,,,,,,,,,,,,,,
,,,,,,,,2023-08-16_08h54.41.697,HF_wild_card,2022.2.4,Win32,60.97189196,643918b7df602a9f3f3f66d7,64d2fd46c836a06233681665,64dc7f575c202e4d552da82d,,,,,,,ctch,resources/DB.BMP,resources/DG.BMP,Door3,0.244444444,-0.04537037,1,0,0,1.718,optionRight,70,1640,1,33,0,33,0,1,,,,,,,,,,,,,,,,,,,,,,,,,,,,,,,,,,,,,,,
,,,,,,,,2023-08-16_08h54.41.697,HF_wild_card,2022.2.4,Win32,60.97189196,643918b7df602a9f3f3f66d7,64d2fd46c836a06233681665,64dc7f575c202e4d552da82d,,,,,,,sngl,resources/DBN.BMP,resources/Empty.png,WildCard_NonEx,-0.262037037,0.000925926,1,0,0,0.948,optionLeft,55,1695,1,34,0,34,0,1,,,,,,,,,,,,,,,,,,,,,,,,,,,,,,,,,,,,,,,
,,,,,,,,2023-08-16_08h54.41.697,HF_wild_card,2022.2.4,Win32,60.97189196,643918b7df602a9f3f3f66d7,64d2fd46c836a06233681665,64dc7f575c202e4d552da82d,,,,,,,decisionTrl,resources/DG.BMP,resources/DBN.BMP,WildCard_NonEx,0.383333333,-0.067592593,1,0,0,0.9772,optionRight,55,1750,1,35,0,35,0,1,,,,,,,,,,,,,,,,,,,,,,,,,,,,,,,,,,,,,,,
,,,,,,,,2023-08-16_08h54.41.697,HF_wild_card,2022.2.4,Win32,60.97189196,643918b7df602a9f3f3f66d7,64d2fd46c836a06233681665,64dc7f575c202e4d552da82d,,,,,,,sngl,resources/DBN.BMP,resources/Empty.png,WildCard_NonEx,-0.282407407,-0.012037037,1,0,0,0.9851,optionLeft,45,1795,1,36,0,36,0,1,,,,,,,,,,,,,,,,,,,,,,,,,,,,,,,,,,,,,,,
,,,,,,,,2023-08-16_08h54.41.697,HF_wild_card,2022.2.4,Win32,60.97189196,643918b7df602a9f3f3f66d7,64d2fd46c836a06233681665,64dc7f575c202e4d552da82d,,,,,,,decisionTrl,resources/DB.BMP,resources/DBN.BMP,WildCard_NonEx,0.400925926,-0.059259259,1,0,0,1.0494,optionRight,45,1840,1,37,0,37,0,1,,,,,,,,,,,,,,,,,,,,,,,,,,,,,,,,,,,,,,,
,,,,,,,,2023-08-16_08h54.41.697,HF_wild_card,2022.2.4,Win32,60.97189196,643918b7df602a9f3f3f66d7,64d2fd46c836a06233681665,64dc7f575c202e4d552da82d,,,,,,,sngl,resources/DG.BMP,resources/Empty.png,Door3,-0.207407407,-0.008333333,1,0,0,1.0149,optionLeft,70,1910,1,38,0,38,0,1,,,,,,,,,,,,,,,,,,,,,,,,,,,,,,,,,,,,,,,
,,,,,,,,2023-08-16_08h54.41.697,HF_wild_card,2022.2.4,Win32,60.97189196,643918b7df602a9f3f3f66d7,64d2fd46c836a06233681665,64dc7f575c202e4d552da82d,,,,,,,sngl,resources/Empty.png,resources/DY.BMP,Door4,0.47037037,-0.052777778,1,0,0,0.7444,optionRight,60,1970,1,39,0,39,0,1,,,,,,,,,,,,,,,,,,,,,,,,,,,,,,,,,,,,,,,
,,,,,,,,2023-08-16_08h54.41.697,HF_wild_card,2022.2.4,Win32,60.97189196,643918b7df602a9f3f3f66d7,64d2fd46c836a06233681665,64dc7f575c202e4d552da82d,,,,,,,decisionTrl,resources/DB.BMP,resources/DP.BMP,Door1,0.252777778,-0.018518519,1,0,0,1.2609,optionRight,30,2000,1,40,0,40,0,1,,,,,,,,,,,,,,,,,,,,,,,,,,,,,,,,,,,,,,,
,,,,,,,,2023-08-16_08h54.41.697,HF_wild_card,2022.2.4,Win32,60.97189196,643918b7df602a9f3f3f66d7,64d2fd46c836a06233681665,64dc7f575c202e4d552da82d,,,,,,,decisionTrl,resources/DP.BMP,resources/DB.BMP,Door1,-0.20462963,0.025,1,0,0,1.5095,optionLeft,30,2030,1,41,0,41,0,1,,,,,,,,,,,,,,,,,,,,,,,,,,,,,,,,,,,,,,,
,,,,,,,,2023-08-16_08h54.41.697,HF_wild_card,2022.2.4,Win32,60.97189196,643918b7df602a9f3f3f66d7,64d2fd46c836a06233681665,64dc7f575c202e4d552da82d,,,,,,,decisionTrl,resources/DBN.BMP,resources/DY.BMP,WildCard_NonEx,-0.250925926,0.026851852,1,0,0,0.7128,optionLeft,55,2085,1,42,0,42,0,1,,,,,,,,,,,,,,,,,,,,,,,,,,,,,,,,,,,,,,,
,,,,,,,,2023-08-16_08h54.41.697,HF_wild_card,2022.2.4,Win32,60.97189196,643918b7df602a9f3f3f66d7,64d2fd46c836a06233681665,64dc7f575c202e4d552da82d,,,,,,,sngl,resources/Empty.png,resources/DG.BMP,Door3,0.511111111,-0.033333333,1,0,0,0.7107,optionRight,70,2155,1,43,0,43,0,1,,,,,,,,,,,,,,,,,,,,,,,,,,,,,,,,,,,,,,,
,,,,,,,,2023-08-16_08h54.41.697,HF_wild_card,2022.2.4,Win32,60.97189196,643918b7df602a9f3f3f66d7,64d2fd46c836a06233681665,64dc7f575c202e4d552da82d,,,,,,,,,,,,,,,,,,,,,,,,,,0,0,0,0,1,,,,,,,,,,,,,,,,,,,,,,,,,,,,,,,,,,
,,,,,,,,2023-08-16_08h54.41.697,HF_wild_card,2022.2.4,Win32,60.97189196,643918b7df602a9f3f3f66d7,64d2fd46c836a06233681665,64dc7f575c202e4d552da82d,,,,,,,decisionTrl,resources/DP.BMP,resources/DB.BMP,Door2,0.332407407,-0.021296296,1,0,0,1.0327,optionRight,20,2175,2,0,0,0,0,1,,,,,,,,,,,,,,,,,,,,,,,,,,,,,,,,,,,,,,,
,,,,,,,,2023-08-16_08h54.41.697,HF_wild_card,2022.2.4,Win32,60.97189196,643918b7df602a9f3f3f66d7,64d2fd46c836a06233681665,64dc7f575c202e4d552da82d,,,,,,,decisionTrl,resources/DG.BMP,resources/DY.BMP,Door4,0.442592593,-0.011111111,1,0,0,0.6683,optionRight,60,2235,2,1,0,1,0,1,,,,,,,,,,,,,,,,,,,,,,,,,,,,,,,,,,,,,,,
,,,,,,,,2023-08-16_08h54.41.697,HF_wild_card,2022.2.4,Win32,60.97189196,643918b7df602a9f3f3f66d7,64d2fd46c836a06233681665,64dc7f575c202e4d552da82d,,,,,,,sngl,resources/DBN.BMP,resources/Empty.png,WildCard_NonEx,-0.490740741,-0.015740741,1,0,0,0.7497,optionLeft,45,2280,2,2,0,2,0,1,,,,,,,,,,,,,,,,,,,,,,,,,,,,,,,,,,,,,,,
,,,,,,,,2023-08-16_08h54.41.697,HF_wild_card,2022.2.4,Win32,60.97189196,643918b7df602a9f3f3f66d7,64d2fd46c836a06233681665,64dc7f575c202e4d552da82d,,,,,,,ctch,resources/DP.BMP,resources/DY.BMP,Door1,-0.283333333,0.009259259,1,0,0,0.5727,optionLeft,30,2310,2,3,0,3,0,1,,,,,,,,,,,,,,,,,,,,,,,,,,,,,,,,,,,,,,,
,,,,,,,,2023-08-16_08h54.41.697,HF_wild_card,2022.2.4,Win32,60.97189196,643918b7df602a9f3f3f66d7,64d2fd46c836a06233681665,64dc7f575c202e4d552da82d,,,,,,,decisionTrl,resources/DB.BMP,resources/DBN.BMP,WildCard_NonEx,0.337962963,-0.018518519,1,0,0,0.6101,optionRight,55,2365,2,4,0,4,0,1,,,,,,,,,,,,,,,,,,,,,,,,,,,,,,,,,,,,,,,
,,,,,,,,2023-08-16_08h54.41.697,HF_wild_card,2022.2.4,Win32,60.97189196,643918b7df602a9f3f3f66d7,64d2fd46c836a06233681665,64dc7f575c202e4d552da82d,,,,,,,sngl,resources/DP.BMP,resources/Empty.png,Door1,-0.402777778,0.075,1,0,0,0.651,optionLeft,30,2395,2,5,0,5,0,1,,,,,,,,,,,,,,,,,,,,,,,,,,,,,,,,,,,,,,,
,,,,,,,,2023-08-16_08h54.41.697,HF_wild_card,2022.2.4,Win32,60.97189196,643918b7df602a9f3f3f66d7,64d2fd46c836a06233681665,64dc7f575c202e4d552da82d,,,,,,,decisionTrl,resources/DP.BMP,resources/DBN.BMP,Door1,-0.241666667,0.027777778,1,0,0,0.7992,optionLeft,30,2425,2,6,0,6,0,1,,,,,,,,,,,,,,,,,,,,,,,,,,,,,,,,,,,,,,,
,,,,,,,,2023-08-16_08h54.41.697,HF_wild_card,2022.2.4,Win32,60.97189196,643918b7df602a9f3f3f66d7,64d2fd46c836a06233681665,64dc7f575c202e4d552da82d,,,,,,,sngl,resources/DG.BMP,resources/Empty.png,Door3,-0.289814815,0.04537037,1,0,0,0.8592,optionLeft,70,2495,2,7,0,7,0,1,,,,,,,,,,,,,,,,,,,,,,,,,,,,,,,,,,,,,,,
,,,,,,,,2023-08-16_08h54.41.697,HF_wild_card,2022.2.4,Win32,60.97189196,643918b7df602a9f3f3f66d7,64d2fd46c836a06233681665,64dc7f575c202e4d552da82d,,,,,,,decisionTrl,resources/DBN.BMP,resources/DB.BMP,WildCard_NonEx,-0.189814815,0.028703704,1,0,0,0.8682,optionLeft,55,2550,2,8,0,8,0,1,,,,,,,,,,,,,,,,,,,,,,,,,,,,,,,,,,,,,,,
,,,,,,,,2023-08-16_08h54.41.697,HF_wild_card,2022.2.4,Win32,60.97189196,643918b7df602a9f3f3f66d7,64d2fd46c836a06233681665,64dc7f575c202e4d552da82d,,,,,,,sngl,resources/Empty.png,resources/DY.BMP,Door4,0.358333333,-0.002777778,1,0,0,0.7807,optionRight,80,2630,2,9,0,9,0,1,,,,,,,,,,,,,,,,,,,,,,,,,,,,,,,,,,,,,,,
,,,,,,,,2023-08-16_08h54.41.697,HF_wild_card,2022.2.4,Win32,60.97189196,643918b7df602a9f3f3f66d7,64d2fd46c836a06233681665,64dc7f575c202e4d552da82d,,,,,,,decisionTrl,resources/DG.BMP,resources/DY.BMP,Door4,0.368518519,-0.015740741,1,0,0,0.566,optionRight,80,2710,2,10,0,10,0,1,,,,,,,,,,,,,,,,,,,,,,,,,,,,,,,,,,,,,,,
,,,,,,,,2023-08-16_08h54.41.697,HF_wild_card,2022.2.4,Win32,60.97189196,643918b7df602a9f3f3f66d7,64d2fd46c836a06233681665,64dc7f575c202e4d552da82d,,,,,,,decisionTrl,resources/DBN.BMP,resources/DG.BMP,WildCard_NonEx,-0.378703704,0.060185185,1,0,0,1.3497,optionLeft,45,2755,2,11,0,11,0,1,,,,,,,,,,,,,,,,,,,,,,,,,,,,,,,,,,,,,,,
,,,,,,,,2023-08-16_08h54.41.697,HF_wild_card,2022.2.4,Win32,60.97189196,643918b7df602a9f3f3f66d7,64d2fd46c836a06233681665,64dc7f575c202e4d552da82d,,,,,,,decisionTrl,resources/DB.BMP,resources/DP.BMP,Door1,0.416666667,-0.003703704,1,0,0,0.9674,optionRight,30,2785,2,12,0,12,0,1,,,,,,,,,,,,,,,,,,,,,,,,,,,,,,,,,,,,,,,
,,,,,,,,2023-08-16_08h54.41.697,HF_wild_card,2022.2.4,Win32,60.97189196,643918b7df602a9f3f3f66d7,64d2fd46c836a06233681665,64dc7f575c202e4d552da82d,,,,,,,decisionTrl,resources/DY.BMP,resources/DG.BMP,Door4,-0.306481481,0.034259259,1,0,0,0.7968,optionLeft,80,2865,2,13,0,13,0,1,,,,,,,,,,,,,,,,,,,,,,,,,,,,,,,,,,,,,,,
,,,,,,,,2023-08-16_08h54.41.697,HF_wild_card,2022.2.4,Win32,60.97189196,643918b7df602a9f3f3f66d7,64d2fd46c836a06233681665,64dc7f575c202e4d552da82d,,,,,,,decisionTrl,resources/DB.BMP,resources/DP.BMP,Door1,0.35462963,0.00462963,1,0,0,1.2633,optionRight,30,2895,2,14,0,14,0,1,,,,,,,,,,,,,,,,,,,,,,,,,,,,,,,,,,,,,,,
,,,,,,,,2023-08-16_08h54.41.697,HF_wild_card,2022.2.4,Win32,60.97189196,643918b7df602a9f3f3f66d7,64d2fd46c836a06233681665,64dc7f575c202e4d552da82d,,,,,,,decisionTrl,resources/DY.BMP,resources/DG.BMP,Door4,-0.30462963,0.002777778,1,0,0,0.7162,optionLeft,80,2975,2,15,0,15,0,1,,,,,,,,,,,,,,,,,,,,,,,,,,,,,,,,,,,,,,,
,,,,,,,,2023-08-16_08h54.41.697,HF_wild_card,2022.2.4,Win32,60.97189196,643918b7df602a9f3f3f66d7,64d2fd46c836a06233681665,64dc7f575c202e4d552da82d,,,,,,,decisionTrl,resources/DP.BMP,resources/DB.BMP,Door2,0.352777778,-0.028703704,1,0,0,1.7501,optionRight,40,3015,2,16,0,16,0,1,,,,,,,,,,,,,,,,,,,,,,,,,,,,,,,,,,,,,,,
,,,,,,,,2023-08-16_08h54.41.697,HF_wild_card,2022.2.4,Win32,60.97189196,643918b7df602a9f3f3f66d7,64d2fd46c836a06233681665,64dc7f575c202e4d552da82d,,,,,,,ctch,resources/DB.BMP,resources/DG.BMP,Door3,0.32037037,-0.009259259,1,0,0,1.6447,optionRight,70,3085,2,17,0,17,0,1,,,,,,,,,,,,,,,,,,,,,,,,,,,,,,,,,,,,,,,
,,,,,,,,2023-08-16_08h54.41.697,HF_wild_card,2022.2.4,Win32,60.97189196,643918b7df602a9f3f3f66d7,64d2fd46c836a06233681665,64dc7f575c202e4d552da82d,,,,,,,sngl,resources/Empty.png,resources/DP.BMP,Door1,0.280555556,-0.002777778,1,0,0,1.0166,optionRight,30,3115,2,18,0,18,0,1,,,,,,,,,,,,,,,,,,,,,,,,,,,,,,,,,,,,,,,
,,,,,,,,2023-08-16_08h54.41.697,HF_wild_card,2022.2.4,Win32,60.97189196,643918b7df602a9f3f3f66d7,64d2fd46c836a06233681665,64dc7f575c202e4d552da82d,,,,,,,decisionTrl,resources/DB.BMP,resources/DP.BMP,Door1,0.257407407,0,1,0,0,1.6996,optionRight,30,3145,2,19,0,19,0,1,,,,,,,,,,,,,,,,,,,,,,,,,,,,,,,,,,,,,,,
,,,,,,,,2023-08-16_08h54.41.697,HF_wild_card,2022.2.4,Win32,60.97189196,643918b7df602a9f3f3f66d7,64d2fd46c836a06233681665,64dc7f575c202e4d552da82d,,,,,,,decisionTrl,resources/DP.BMP,resources/DB.BMP,Door2,0.403703704,-0.012962963,1,0,0,0.7172,optionRight,20,3165,2,20,0,20,0,1,,,,,,,,,,,,,,,,,,,,,,,,,,,,,,,,,,,,,,,
,,,,,,,,2023-08-16_08h54.41.697,HF_wild_card,2022.2.4,Win32,60.97189196,643918b7df602a9f3f3f66d7,64d2fd46c836a06233681665,64dc7f575c202e4d552da82d,,,,,,,sngl,resources/DBN.BMP,resources/Empty.png,WildCard_NonEx,-0.393518519,0.030555556,1,0,0,0.8843,optionLeft,55,3220,2,21,0,21,0,1,,,,,,,,,,,,,,,,,,,,,,,,,,,,,,,,,,,,,,,
,,,,,,,,2023-08-16_08h54.41.697,HF_wild_card,2022.2.4,Win32,60.97189196,643918b7df602a9f3f3f66d7,64d2fd46c836a06233681665,64dc7f575c202e4d552da82d,,,,,,,sngl,resources/Empty.png,resources/DBN.BMP,WildCard_NonEx,0.483333333,0.00462963,1,0,0,0.851,optionRight,45,3265,2,22,0,22,0,1,,,,,,,,,,,,,,,,,,,,,,,,,,,,,,,,,,,,,,,
,,,,,,,,2023-08-16_08h54.41.697,HF_wild_card,2022.2.4,Win32,60.97189196,643918b7df602a9f3f3f66d7,64d2fd46c836a06233681665,64dc7f575c202e4d552da82d,,,,,,,decisionTrl,resources/DBN.BMP,resources/DY.BMP,Door4,0.30462963,-0.016666667,1,0,0,0.91,optionRight,60,3325,2,23,0,23,0,1,,,,,,,,,,,,,,,,,,,,,,,,,,,,,,,,,,,,,,,
,,,,,,,,2023-08-16_08h54.41.697,HF_wild_card,2022.2.4,Win32,60.97189196,643918b7df602a9f3f3f66d7,64d2fd46c836a06233681665,64dc7f575c202e4d552da82d,,,,,,,decisionTrl,resources/DG.BMP,resources/DY.BMP,Door4,0.243518519,-0.00462963,1,0,0,0.7965,optionRight,60,3385,2,24,0,24,0,1,,,,,,,,,,,,,,,,,,,,,,,,,,,,,,,,,,,,,,,
,,,,,,,,2023-08-16_08h54.41.697,HF_wild_card,2022.2.4,Win32,60.97189196,643918b7df602a9f3f3f66d7,64d2fd46c836a06233681665,64dc7f575c202e4d552da82d,,,,,,,decisionTrl,resources/DY.BMP,resources/DG.BMP,Door4,-0.351851852,0.00462963,1,0,0,0.7445,optionLeft,80,3465,2,25,0,25,0,1,,,,,,,,,,,,,,,,,,,,,,,,,,,,,,,,,,,,,,,
,,,,,,,,2023-08-16_08h54.41.697,HF_wild_card,2022.2.4,Win32,60.97189196,643918b7df602a9f3f3f66d7,64d2fd46c836a06233681665,64dc7f575c202e4d552da82d,,,,,,,decisionTrl,resources/DB.BMP,resources/DP.BMP,Door2,-0.275,0.022222222,1,0,0,1.2012,optionLeft,40,3505,2,26,0,26,0,1,,,,,,,,,,,,,,,,,,,,,,,,,,,,,,,,,,,,,,,
,,,,,,,,2023-08-16_08h54.41.697,HF_wild_card,2022.2.4,Win32,60.97189196,643918b7df602a9f3f3f66d7,64d2fd46c836a06233681665,64dc7f575c202e4d552da82d,,,,,,,sngl,resources/Empty.png,resources/DBN.BMP,WildCard_NonEx,0.292592593,-0.016666667,1,0,0,0.8111,optionRight,55,3560,2,27,0,27,0,1,,,,,,,,,,,,,,,,,,,,,,,,,,,,,,,,,,,,,,,
,,,,,,,,2023-08-16_08h54.41.697,HF_wild_card,2022.2.4,Win32,60.97189196,643918b7df602a9f3f3f66d7,64d2fd46c836a06233681665,64dc7f575c202e4d552da82d,,,,,,,ctch,resources/DY.BMP,resources/DP.BMP,Door4,-0.274074074,-0.006481481,1,0,0,0.7175,optionLeft,60,3620,2,28,0,28,0,1,,,,,,,,,,,,,,,,,,,,,,,,,,,,,,,,,,,,,,,
,,,,,,,,2023-08-16_08h54.41.697,HF_wild_card,2022.2.4,Win32,60.97189196,643918b7df602a9f3f3f66d7,64d2fd46c836a06233681665,64dc7f575c202e4d552da82d,,,,,,,ctch,resources/DB.BMP,resources/DG.BMP,Door3,0.327777778,-0.010185185,1,0,0,1.9142,optionRight,70,3690,2,29,0,29,0,1,,,,,,,,,,,,,,,,,,,,,,,,,,,,,,,,,,,,,,,
,,,,,,,,2023-08-16_08h54.41.697,HF_wild_card,2022.2.4,Win32,60.97189196,643918b7df602a9f3f3f66d7,64d2fd46c836a06233681665,64dc7f575c202e4d552da82d,,,,,,,ctch,resources/DP.BMP,resources/DY.BMP,Door4,0.337962963,-0.026851852,1,0,0,1.0111,optionRight,60,3750,2,30,0,30,0,1,,,,,,,,,,,,,,,,,,,,,,,,,,,,,,,,,,,,,,,
,,,,,,,,2023-08-16_08h54.41.697,HF_wild_card,2022.2.4,Win32,60.97189196,643918b7df602a9f3f3f66d7,64d2fd46c836a06233681665,64dc7f575c202e4d552da82d,,,,,,,ctch,resources/DG.BMP,resources/DB.BMP,Door3,-0.333333333,-0.016666667,1,0,0,1.8186,optionLeft,70,3820,2,31,0,31,0,1,,,,,,,,,,,,,,,,,,,,,,,,,,,,,,,,,,,,,,,
,,,,,,,,2023-08-16_08h54.41.697,HF_wild_card,2022.2.4,Win32,60.97189196,643918b7df602a9f3f3f66d7,64d2fd46c836a06233681665,64dc7f575c202e4d552da82d,,,,,,,decisionTrl,resources/DP.BMP,resources/DB.BMP,Door2,0.437037037,-0.013888889,1,0,0,2.3013,optionRight,40,3860,2,32,0,32,0,1,,,,,,,,,,,,,,,,,,,,,,,,,,,,,,,,,,,,,,,
,,,,,,,,2023-08-16_08h54.41.697,HF_wild_card,2022.2.4,Win32,60.97189196,643918b7df602a9f3f3f66d7,64d2fd46c836a06233681665,64dc7f575c202e4d552da82d,,,,,,,decisionTrl,resources/DY.BMP,resources/DBN.BMP,Door4,-0.387962963,0.022222222,1,0,0,0.6429,optionLeft,80,3940,2,33,0,33,0,1,,,,,,,,,,,,,,,,,,,,,,,,,,,,,,,,,,,,,,,
,,,,,,,,2023-08-16_08h54.41.697,HF_wild_card,2022.2.4,Win32,60.97189196,643918b7df602a9f3f3f66d7,64d2fd46c836a06233681665,64dc7f575c202e4d552da82d,,,,,,,decisionTrl,resources/DY.BMP,resources/DG.BMP,Door4,-0.37962963,0.010185185,1,0,0,0.7166,optionLeft,60,4000,2,34,0,34,0,1,,,,,,,,,,,,,,,,,,,,,,,,,,,,,,,,,,,,,,,
,,,,,,,,2023-08-16_08h54.41.697,HF_wild_card,2022.2.4,Win32,60.97189196,643918b7df602a9f3f3f66d7,64d2fd46c836a06233681665,64dc7f575c202e4d552da82d,,,,,,,ctch,resources/DG.BMP,resources/DB.BMP,Door3,-0.337037037,-0.014814815,1,0,0,1.6127,optionLeft,70,4070,2,35,0,35,0,1,,,,,,,,,,,,,,,,,,,,,,,,,,,,,,,,,,,,,,,
,,,,,,,,2023-08-16_08h54.41.697,HF_wild_card,2022.2.4,Win32,60.97189196,643918b7df602a9f3f3f66d7,64d2fd46c836a06233681665,64dc7f575c202e4d552da82d,,,,,,,ctch,resources/DY.BMP,resources/DP.BMP,Door4,-0.255555556,0.028703704,1,0,0,0.8355,optionLeft,60,4130,2,36,0,36,0,1,,,,,,,,,,,,,,,,,,,,,,,,,,,,,,,,,,,,,,,
,,,,,,,,2023-08-16_08h54.41.697,HF_wild_card,2022.2.4,Win32,60.97189196,643918b7df602a9f3f3f66d7,64d2fd46c836a06233681665,64dc7f575c202e4d552da82d,,,,,,,sngl,resources/Empty.png,resources/DG.BMP,Door3,0.421296296,-0.030555556,1,0,0,0.7839,optionRight,70,4200,2,37,0,37,0,1,,,,,,,,,,,,,,,,,,,,,,,,,,,,,,,,,,,,,,,
,,,,,,,,2023-08-16_08h54.41.697,HF_wild_card,2022.2.4,Win32,60.97189196,643918b7df602a9f3f3f66d7,64d2fd46c836a06233681665,64dc7f575c202e4d552da82d,,,,,,,decisionTrl,resources/DG.BMP,resources/DBN.BMP,Door3,-0.262037037,0.031481481,1,0,0,1.0418,optionLeft,70,4270,2,38,0,38,0,1,,,,,,,,,,,,,,,,,,,,,,,,,,,,,,,,,,,,,,,
,,,,,,,,2023-08-16_08h54.41.697,HF_wild_card,2022.2.4,Win32,60.97189196,643918b7df602a9f3f3f66d7,64d2fd46c836a06233681665,64dc7f575c202e4d552da82d,,,,,,,decisionTrl,resources/DG.BMP,resources/DY.BMP,Door4,0.397222222,-0.017592593,1,0,0,0.8166,optionRight,60,4330,2,39,0,39,0,1,,,,,,,,,,,,,,,,,,,,,,,,,,,,,,,,,,,,,,,
,,,,,,,,2023-08-16_08h54.41.697,HF_wild_card,2022.2.4,Win32,60.97189196,643918b7df602a9f3f3f66d7,64d2fd46c836a06233681665,64dc7f575c202e4d552da82d,,,,,,,decisionTrl,resources/DBN.BMP,resources/DP.BMP,WildCard_NonEx,-0.421296296,-0.00462963,1,0,0,2.7515,optionLeft,55,4385,2,40,0,40,0,1,,,,,,,,,,,,,,,,,,,,,,,,,,,,,,,,,,,,,,,
,,,,,,,,2023-08-16_08h54.41.697,HF_wild_card,2022.2.4,Win32,60.97189196,643918b7df602a9f3f3f66d7,64d2fd46c836a06233681665,64dc7f575c202e4d552da82d,,,,,,,sngl,resources/DY.BMP,resources/Empty.png,Door4,-0.306481481,0,1,0,0,0.6662,optionLeft,60,4445,2,41,0,41,0,1,,,,,,,,,,,,,,,,,,,,,,,,,,,,,,,,,,,,,,,
,,,,,,,,2023-08-16_08h54.41.697,HF_wild_card,2022.2.4,Win32,60.97189196,643918b7df602a9f3f3f66d7,64d2fd46c836a06233681665,64dc7f575c202e4d552da82d,,,,,,,sngl,resources/DB.BMP,resources/Empty.png,Door2,-0.193518519,-0.02037037,1,0,0,0.9844,optionLeft,20,4465,2,42,0,42,0,1,,,,,,,,,,,,,,,,,,,,,,,,,,,,,,,,,,,,,,,
,,,,,,,,2023-08-16_08h54.41.697,HF_wild_card,2022.2.4,Win32,60.97189196,643918b7df602a9f3f3f66d7,64d2fd46c836a06233681665,64dc7f575c202e4d552da82d,,,,,,,sngl,resources/Empty.png,resources/DB.BMP,Door2,0.306481481,-0.051851852,1,0,0,0.7995,optionRight,40,4505,2,43,0,43,0,1,,,,,,,,,,,,,,,,,,,,,,,,,,,,,,,,,,,,,,,
,,,,,,,,2023-08-16_08h54.41.697,HF_wild_card,2022.2.4,Win32,60.97189196,643918b7df602a9f3f3f66d7,64d2fd46c836a06233681665,64dc7f575c202e4d552da82d,,,,,,,,,,,,,,,,,,,,,,,,,,1,0,1,0,1,,,,,,,,,,,,,,,,,,,,,,,,,,,,,,,,,,
,,,,,,,,2023-08-16_08h54.41.697,HF_wild_card,2022.2.4,Win32,60.97189196,643918b7df602a9f3f3f66d7,64d2fd46c836a06233681665,64dc7f575c202e4d552da82d,,,,,,,decisionTrl,resources/DP.BMP,resources/DBN.BMP,WildCard_NonEx,0.283333333,-0.093518519,1,0,0,1.5763,optionRight,45,4550,3,0,0,0,0,1,,,,,,,,,,,,,,,,,,,,,,,,,,,,,,,,,,,,,,,
,,,,,,,,2023-08-16_08h54.41.697,HF_wild_card,2022.2.4,Win32,60.97189196,643918b7df602a9f3f3f66d7,64d2fd46c836a06233681665,64dc7f575c202e4d552da82d,,,,,,,sngl,resources/DP.BMP,resources/Empty.png,Door1,-0.397222222,-0.027777778,1,0,0,0.6323,optionLeft,30,4580,3,1,0,1,0,1,,,,,,,,,,,,,,,,,,,,,,,,,,,,,,,,,,,,,,,
,,,,,,,,2023-08-16_08h54.41.697,HF_wild_card,2022.2.4,Win32,60.97189196,643918b7df602a9f3f3f66d7,64d2fd46c836a06233681665,64dc7f575c202e4d552da82d,,,,,,,decisionTrl,resources/DY.BMP,resources/DG.BMP,Door4,-0.434259259,-0.014814815,1,0,0,0.6943,optionLeft,80,4660,3,2,0,2,0,1,,,,,,,,,,,,,,,,,,,,,,,,,,,,,,,,,,,,,,,
,,,,,,,,2023-08-16_08h54.41.697,HF_wild_card,2022.2.4,Win32,60.97189196,643918b7df602a9f3f3f66d7,64d2fd46c836a06233681665,64dc7f575c202e4d552da82d,,,,,,,sngl,resources/Empty.png,resources/DBN.BMP,WildCard_NonEx,0.493518519,-0.057407407,1,0,0,0.9141,optionRight,45,4705,3,3,0,3,0,1,,,,,,,,,,,,,,,,,,,,,,,,,,,,,,,,,,,,,,,
,,,,,,,,2023-08-16_08h54.41.697,HF_wild_card,2022.2.4,Win32,60.97189196,643918b7df602a9f3f3f66d7,64d2fd46c836a06233681665,64dc7f575c202e4d552da82d,,,,,,,ctch,resources/DP.BMP,resources/DY.BMP,Door4,0.521296296,-0.016666667,1,0,0,0.6836,optionRight,60,4765,3,4,0,4,0,1,,,,,,,,,,,,,,,,,,,,,,,,,,,,,,,,,,,,,,,
,,,,,,,,2023-08-16_08h54.41.697,HF_wild_card,2022.2.4,Win32,60.97189196,643918b7df602a9f3f3f66d7,64d2fd46c836a06233681665,64dc7f575c202e4d552da82d,,,,,,,sngl,resources/DB.BMP,resources/Empty.png,Door2,-0.405555556,-0.007407407,1,0,0,0.7147,optionLeft,40,4805,3,5,0,5,0,1,,,,,,,,,,,,,,,,,,,,,,,,,,,,,,,,,,,,,,,
,,,,,,,,2023-08-16_08h54.41.697,HF_wild_card,2022.2.4,Win32,60.97189196,643918b7df602a9f3f3f66d7,64d2fd46c836a06233681665,64dc7f575c202e4d552da82d,,,,,,,decisionTrl,resources/DG.BMP,resources/DY.BMP,Door4,0.587962963,-0.019444444,1,0,0,0.6141,optionRight,60,4865,3,6,0,6,0,1,,,,,,,,,,,,,,,,,,,,,,,,,,,,,,,,,,,,,,,
,,,,,,,,2023-08-16_08h54.41.697,HF_wild_card,2022.2.4,Win32,60.97189196,643918b7df602a9f3f3f66d7,64d2fd46c836a06233681665,64dc7f575c202e4d552da82d,,,,,,,decisionTrl,resources/DB.BMP,resources/DP.BMP,Door1,0.380555556,-0.011111111,1,0,0,1.5598,optionRight,30,4895,3,7,0,7,0,1,,,,,,,,,,,,,,,,,,,,,,,,,,,,,,,,,,,,,,,
,,,,,,,,2023-08-16_08h54.41.697,HF_wild_card,2022.2.4,Win32,60.97189196,643918b7df602a9f3f3f66d7,64d2fd46c836a06233681665,64dc7f575c202e4d552da82d,,,,,,,ctch,resources/DY.BMP,resources/DP.BMP,Door4,-0.372222222,0.007407407,1,0,0,0.6819,optionLeft,80,4975,3,8,0,8,0,1,,,,,,,,,,,,,,,,,,,,,,,,,,,,,,,,,,,,,,,
,,,,,,,,2023-08-16_08h54.41.697,HF_wild_card,2022.2.4,Win32,60.97189196,643918b7df602a9f3f3f66d7,64d2fd46c836a06233681665,64dc7f575c202e4d552da82d,,,,,,,sngl,resources/DBN.BMP,resources/Empty.png,WildCard_NonEx,-0.383333333,-0.003703704,1,0,0,0.7827,optionLeft,45,5020,3,9,0,9,0,1,,,,,,,,,,,,,,,,,,,,,,,,,,,,,,,,,,,,,,,
,,,,,,,,2023-08-16_08h54.41.697,HF_wild_card,2022.2.4,Win32,60.97189196,643918b7df602a9f3f3f66d7,64d2fd46c836a06233681665,64dc7f575c202e4d552da82d,,,,,,,decisionTrl,resources/DB.BMP,resources/DP.BMP,Door2,-0.303703704,-0.005555556,1,0,0,1.7463,optionLeft,40,5060,3,10,0,10,0,1,,,,,,,,,,,,,,,,,,,,,,,,,,,,,,,,,,,,,,,
,,,,,,,,2023-08-16_08h54.41.697,HF_wild_card,2022.2.4,Win32,60.97189196,643918b7df602a9f3f3f66d7,64d2fd46c836a06233681665,64dc7f575c202e4d552da82d,,,,,,,sngl,resources/DY.BMP,resources/Empty.png,Door4,-0.323148148,-0.001851852,1,0,0,0.6005,optionLeft,80,5140,3,11,0,11,0,1,,,,,,,,,,,,,,,,,,,,,,,,,,,,,,,,,,,,,,,
,,,,,,,,2023-08-16_08h54.41.697,HF_wild_card,2022.2.4,Win32,60.97189196,643918b7df602a9f3f3f66d7,64d2fd46c836a06233681665,64dc7f575c202e4d552da82d,,,,,,,ctch,resources/DY.BMP,resources/DP.BMP,Door4,-0.334259259,-0.003703704,1,0,0,0.6159,optionLeft,80,5220,3,12,0,12,0,1,,,,,,,,,,,,,,,,,,,,,,,,,,,,,,,,,,,,,,,
,,,,,,,,2023-08-16_08h54.41.697,HF_wild_card,2022.2.4,Win32,60.97189196,643918b7df602a9f3f3f66d7,64d2fd46c836a06233681665,64dc7f575c202e4d552da82d,,,,,,,decisionTrl,resources/DB.BMP,resources/DP.BMP,Door2,-0.424074074,-0.012037037,1,0,0,2.7326,optionLeft,20,5240,3,13,0,13,0,1,,,,,,,,,,,,,,,,,,,,,,,,,,,,,,,,,,,,,,,
,,,,,,,,2023-08-16_08h54.41.697,HF_wild_card,2022.2.4,Win32,60.97189196,643918b7df602a9f3f3f66d7,64d2fd46c836a06233681665,64dc7f575c202e4d552da82d,,,,,,,ctch,resources/DP.BMP,resources/DY.BMP,Door4,0.284259259,0.005555556,1,0,0,0.717,optionRight,60,5300,3,14,0,14,0,1,,,,,,,,,,,,,,,,,,,,,,,,,,,,,,,,,,,,,,,
,,,,,,,,2023-08-16_08h54.41.697,HF_wild_card,2022.2.4,Win32,60.97189196,643918b7df602a9f3f3f66d7,64d2fd46c836a06233681665,64dc7f575c202e4d552da82d,,,,,,,sngl,resources/Empty.png,resources/DBN.BMP,WildCard_NonEx,0.242592593,-0.036111111,1,0,0,0.7825,optionRight,55,5355,3,15,0,15,0,1,,,,,,,,,,,,,,,,,,,,,,,,,,,,,,,,,,,,,,,
,,,,,,,,2023-08-16_08h54.41.697,HF_wild_card,2022.2.4,Win32,60.97189196,643918b7df602a9f3f3f66d7,64d2fd46c836a06233681665,64dc7f575c202e4d552da82d,,,,,,,decisionTrl,resources/DBN.BMP,resources/DP.BMP,WildCard_NonEx,-0.267592593,0.005555556,1,0,0,1.1782,optionLeft,45,5400,3,16,0,16,0,1,,,,,,,,,,,,,,,,,,,,,,,,,,,,,,,,,,,,,,,
,,,,,,,,2023-08-16_08h54.41.697,HF_wild_card,2022.2.4,Win32,60.97189196,643918b7df602a9f3f3f66d7,64d2fd46c836a06233681665,64dc7f575c202e4d552da82d,,,,,,,decisionTrl,resources/DY.BMP,resources/DBN.BMP,Door4,-0.351851852,-0.005555556,1,0,0,0.6168,optionLeft,80,5480,3,17,0,17,0,1,,,,,,,,,,,,,,,,,,,,,,,,,,,,,,,,,,,,,,,
,,,,,,,,2023-08-16_08h54.41.697,HF_wild_card,2022.2.4,Win32,60.97189196,643918b7df602a9f3f3f66d7,64d2fd46c836a06233681665,64dc7f575c202e4d552da82d,,,,,,,decisionTrl,resources/DP.BMP,resources/DB.BMP,Door1,-0.327777778,0.016666667,1,0,0,2.5703,optionLeft,30,5510,3,18,0,18,0,1,,,,,,,,,,,,,,,,,,,,,,,,,,,,,,,,,,,,,,,
,,,,,,,,2023-08-16_08h54.41.697,HF_wild_card,2022.2.4,Win32,60.97189196,643918b7df602a9f3f3f66d7,64d2fd46c836a06233681665,64dc7f575c202e4d552da82d,,,,,,,sngl,resources/Empty.png,resources/DB.BMP,Door2,0.392592593,-0.019444444,1,0,0,0.6983,optionRight,20,5530,3,19,0,19,0,1,,,,,,,,,,,,,,,,,,,,,,,,,,,,,,,,,,,,,,,
,,,,,,,,2023-08-16_08h54.41.697,HF_wild_card,2022.2.4,Win32,60.97189196,643918b7df602a9f3f3f66d7,64d2fd46c836a06233681665,64dc7f575c202e4d552da82d,,,,,,,ctch,resources/DB.BMP,resources/DG.BMP,Door3,0.29537037,-0.013888889,1,0,0,1.2189,optionRight,70,5600,3,20,0,20,0,1,,,,,,,,,,,,,,,,,,,,,,,,,,,,,,,,,,,,,,,
,,,,,,,,2023-08-16_08h54.41.697,HF_wild_card,2022.2.4,Win32,60.97189196,643918b7df602a9f3f3f66d7,64d2fd46c836a06233681665,64dc7f575c202e4d552da82d,,,,,,,sngl,resources/DBN.BMP,resources/Empty.png,WildCard_NonEx,-0.317592593,0.000925926,1,0,0,0.6996,optionLeft,55,5655,3,21,0,21,0,1,,,,,,,,,,,,,,,,,,,,,,,,,,,,,,,,,,,,,,,
,,,,,,,,2023-08-16_08h54.41.697,HF_wild_card,2022.2.4,Win32,60.97189196,643918b7df602a9f3f3f66d7,64d2fd46c836a06233681665,64dc7f575c202e4d552da82d,,,,,,,ctch,resources/DG.BMP,resources/DB.BMP,Door3,-0.238888889,-0.009259259,1,0,0,2.7504,optionLeft,70,5725,3,22,0,22,0,1,,,,,,,,,,,,,,,,,,,,,,,,,,,,,,,,,,,,,,,
,,,,,,,,2023-08-16_08h54.41.697,HF_wild_card,2022.2.4,Win32,60.97189196,643918b7df602a9f3f3f66d7,64d2fd46c836a06233681665,64dc7f575c202e4d552da82d,,,,,,,sngl,resources/Empty.png,resources/DG.BMP,Door3,0.556481481,-0.035185185,1,0,0,0.6137,optionRight,70,5795,3,23,0,23,0,1,,,,,,,,,,,,,,,,,,,,,,,,,,,,,,,,,,,,,,,
,,,,,,,,2023-08-16_08h54.41.697,HF_wild_card,2022.2.4,Win32,60.97189196,643918b7df602a9f3f3f66d7,64d2fd46c836a06233681665,64dc7f575c202e4d552da82d,,,,,,,decisionTrl,resources/DBN.BMP,resources/DB.BMP,WildCard_NonEx,-0.389814815,-0.019444444,1,0,0,1.416,optionLeft,45,5840,3,24,0,24,0,1,,,,,,,,,,,,,,,,,,,,,,,,,,,,,,,,,,,,,,,
,,,,,,,,2023-08-16_08h54.41.697,HF_wild_card,2022.2.4,Win32,60.97189196,643918b7df602a9f3f3f66d7,64d2fd46c836a06233681665,64dc7f575c202e4d552da82d,,,,,,,sngl,resources/Empty.png,resources/DY.BMP,Door4,0.228703704,-0.015740741,1,0,0,0.6999,optionRight,60,5900,3,25,0,25,0,1,,,,,,,,,,,,,,,,,,,,,,,,,,,,,,,,,,,,,,,
,,,,,,,,2023-08-16_08h54.41.697,HF_wild_card,2022.2.4,Win32,60.97189196,643918b7df602a9f3f3f66d7,64d2fd46c836a06233681665,64dc7f575c202e4d552da82d,,,,,,,decisionTrl,resources/DY.BMP,resources/DG.BMP,Door4,-0.318518519,0,1,0,0,0.6325,optionLeft,80,5980,3,26,0,26,0,1,,,,,,,,,,,,,,,,,,,,,,,,,,,,,,,,,,,,,,,
,,,,,,,,2023-08-16_08h54.41.697,HF_wild_card,2022.2.4,Win32,60.97189196,643918b7df602a9f3f3f66d7,64d2fd46c836a06233681665,64dc7f575c202e4d552da82d,,,,,,,decisionTrl,resources/DBN.BMP,resources/DY.BMP,Door4,0.372222222,-0.021296296,1,0,0,0.618,optionRight,80,6060,3,27,0,27,0,1,,,,,,,,,,,,,,,,,,,,,,,,,,,,,,,,,,,,,,,
,,,,,,,,2023-08-16_08h54.41.697,HF_wild_card,2022.2.4,Win32,60.97189196,643918b7df602a9f3f3f66d7,64d2fd46c836a06233681665,64dc7f575c202e4d552da82d,,,,,,,decisionTrl,resources/DG.BMP,resources/DBN.BMP,Door3,-0.45462963,-0.02037037,1,0,0,2.4544,optionLeft,70,6130,3,28,0,28,0,1,,,,,,,,,,,,,,,,,,,,,,,,,,,,,,,,,,,,,,,
,,,,,,,,2023-08-16_08h54.41.697,HF_wild_card,2022.2.4,Win32,60.97189196,643918b7df602a9f3f3f66d7,64d2fd46c836a06233681665,64dc7f575c202e4d552da82d,,,,,,,decisionTrl,resources/DB.BMP,resources/DP.BMP,Door1,0.338888889,-0.021296296,1,0,0,2.2848,optionRight,30,6160,3,29,0,29,0,1,,,,,,,,,,,,,,,,,,,,,,,,,,,,,,,,,,,,,,,
,,,,,,,,2023-08-16_08h54.41.697,HF_wild_card,2022.2.4,Win32,60.97189196,643918b7df602a9f3f3f66d7,64d2fd46c836a06233681665,64dc7f575c202e4d552da82d,,,,,,,decisionTrl,resources/DY.BMP,resources/DG.BMP,Door4,-0.317592593,-0.012037037,1,0,0,0.5982,optionLeft,60,6220,3,30,0,30,0,1,,,,,,,,,,,,,,,,,,,,,,,,,,,,,,,,,,,,,,,
,,,,,,,,2023-08-16_08h54.41.697,HF_wild_card,2022.2.4,Win32,60.97189196,643918b7df602a9f3f3f66d7,64d2fd46c836a06233681665,64dc7f575c202e4d552da82d,,,,,,,decisionTrl,resources/DP.BMP,resources/DB.BMP,Door1,-0.374074074,-0.025,1,0,0,2.835,optionLeft,30,6250,3,31,0,31,0,1,,,,,,,,,,,,,,,,,,,,,,,,,,,,,,,,,,,,,,,
,,,,,,,,2023-08-16_08h54.41.697,HF_wild_card,2022.2.4,Win32,60.97189196,643918b7df602a9f3f3f66d7,64d2fd46c836a06233681665,64dc7f575c202e4d552da82d,,,,,,,decisionTrl,resources/DG.BMP,resources/DY.BMP,Door4,0.439814815,-0.037962963,1,0,0,0.6982,optionRight,60,6310,3,32,0,32,0,1,,,,,,,,,,,,,,,,,,,,,,,,,,,,,,,,,,,,,,,
,,,,,,,,2023-08-16_08h54.41.697,HF_wild_card,2022.2.4,Win32,60.97189196,643918b7df602a9f3f3f66d7,64d2fd46c836a06233681665,64dc7f575c202e4d552da82d,,,,,,,decisionTrl,resources/DY.BMP,resources/DG.BMP,Door4,-0.375925926,0.02962963,1,0,0,2.2181,optionLeft,80,6390,3,33,0,33,0,1,,,,,,,,,,,,,,,,,,,,,,,,,,,,,,,,,,,,,,,
,,,,,,,,2023-08-16_08h54.41.697,HF_wild_card,2022.2.4,Win32,60.97189196,643918b7df602a9f3f3f66d7,64d2fd46c836a06233681665,64dc7f575c202e4d552da82d,,,,,,,decisionTrl,resources/DP.BMP,resources/DB.BMP,Door1,-0.350925926,0.00462963,1,0,0,1.4314,optionLeft,30,6420,3,34,0,34,0,1,,,,,,,,,,,,,,,,,,,,,,,,,,,,,,,,,,,,,,,
,,,,,,,,2023-08-16_08h54.41.697,HF_wild_card,2022.2.4,Win32,60.97189196,643918b7df602a9f3f3f66d7,64d2fd46c836a06233681665,64dc7f575c202e4d552da82d,,,,,,,decisionTrl,resources/DB.BMP,resources/DBN.BMP,WildCard_NonEx,0.247222222,-0.002777778,1,0,0,0.8631,optionRight,55,6475,3,35,0,35,0,1,,,,,,,,,,,,,,,,,,,,,,,,,,,,,,,,,,,,,,,
,,,,,,,,2023-08-16_08h54.41.697,HF_wild_card,2022.2.4,Win32,60.97189196,643918b7df602a9f3f3f66d7,64d2fd46c836a06233681665,64dc7f575c202e4d552da82d,,,,,,,ctch,resources/DB.BMP,resources/DG.BMP,Door3,0.273148148,-0.003703704,1,0,0,0.9636,optionRight,70,6545,3,36,0,36,0,1,,,,,,,,,,,,,,,,,,,,,,,,,,,,,,,,,,,,,,,
,,,,,,,,2023-08-16_08h54.41.697,HF_wild_card,2022.2.4,Win32,60.97189196,643918b7df602a9f3f3f66d7,64d2fd46c836a06233681665,64dc7f575c202e4d552da82d,,,,,,,ctch,resources/DG.BMP,resources/DB.BMP,Door3,-0.451851852,0.001851852,1,0,0,0.6329,optionLeft,70,6615,3,37,0,37,0,1,,,,,,,,,,,,,,,,,,,,,,,,,,,,,,,,,,,,,,,
,,,,,,,,2023-08-16_08h54.41.697,HF_wild_card,2022.2.4,Win32,60.97189196,643918b7df602a9f3f3f66d7,64d2fd46c836a06233681665,64dc7f575c202e4d552da82d,,,,,,,sngl,resources/Empty.png,resources/DP.BMP,Door1,0.353703704,-0.017592593,1,0,0,0.7511,optionRight,30,6645,3,38,0,38,0,1,,,,,,,,,,,,,,,,,,,,,,,,,,,,,,,,,,,,,,,
,,,,,,,,2023-08-16_08h54.41.697,HF_wild_card,2022.2.4,Win32,60.97189196,643918b7df602a9f3f3f66d7,64d2fd46c836a06233681665,64dc7f575c202e4d552da82d,,,,,,,decisionTrl,resources/DG.BMP,resources/DY.BMP,Door4,0.416666667,-0.014814815,1,0,0,1.1782,optionRight,60,6705,3,39,0,39,0,1,,,,,,,,,,,,,,,,,,,,,,,,,,,,,,,,,,,,,,,
,,,,,,,,2023-08-16_08h54.41.697,HF_wild_card,2022.2.4,Win32,60.97189196,643918b7df602a9f3f3f66d7,64d2fd46c836a06233681665,64dc7f575c202e4d552da82d,,,,,,,decisionTrl,resources/DP.BMP,resources/DB.BMP,Door1,-0.265740741,-0.012962963,1,0,0,3.9499,optionLeft,30,6735,3,40,0,40,0,1,,,,,,,,,,,,,,,,,,,,,,,,,,,,,,,,,,,,,,,
,,,,,,,,2023-08-16_08h54.41.697,HF_wild_card,2022.2.4,Win32,60.97189196,643918b7df602a9f3f3f66d7,64d2fd46c836a06233681665,64dc7f575c202e4d552da82d,,,,,,,sngl,resources/DG.BMP,resources/Empty.png,Door3,-0.387962963,0.043518519,1,0,0,0.6187,optionLeft,70,6805,3,41,0,41,0,1,,,,,,,,,,,,,,,,,,,,,,,,,,,,,,,,,,,,,,,
,,,,,,,,2023-08-16_08h54.41.697,HF_wild_card,2022.2.4,Win32,60.97189196,643918b7df602a9f3f3f66d7,64d2fd46c836a06233681665,64dc7f575c202e4d552da82d,,,,,,,decisionTrl,resources/DG.BMP,resources/DY.BMP,Door3,-0.259259259,0.001851852,1,0,0,1.4168,optionLeft,70,6875,3,42,0,42,0,1,,,,,,,,,,,,,,,,,,,,,,,,,,,,,,,,,,,,,,,
,,,,,,,,2023-08-16_08h54.41.697,HF_wild_card,2022.2.4,Win32,60.97189196,643918b7df602a9f3f3f66d7,64d2fd46c836a06233681665,64dc7f575c202e4d552da82d,,,,,,,decisionTrl,resources/DBN.BMP,resources/DG.BMP,Door3,0.137962963,0.027777778,1,0,0,3.4703,optionRight,70,6945,3,43,0,43,0,1,,,,,,,,,,,,,,,,,,,,,,,,,,,,,,,,,,,,,,,
,,,,,,,,2023-08-16_08h54.41.697,HF_wild_card,2022.2.4,Win32,60.97189196,643918b7df602a9f3f3f66d7,64d2fd46c836a06233681665,64dc7f575c202e4d552da82d,,,,,,,,,,,,,,,,,,,,,,,,,,2,0,2,0,1,,,,,,,,,,,,,,,,,,,,,,,,,,,,,,,,,,
,,,,,,,,2023-08-16_08h54.41.697,HF_wild_card,2022.2.4,Win32,60.97189196,643918b7df602a9f3f3f66d7,64d2fd46c836a06233681665,64dc7f575c202e4d552da82d,,,,,,,decisionTrl,resources/DB.BMP,resources/DR.BMP,WildCard_Ex,0.265740741,-0.014814815,1,0,0,1.3822,optionRight,95,7040,4,0,0,0,0,1,,,,,,,,,,,,,,,,,,,,,,,,,,,,,,,,,,,,,,,
,,,,,,,,2023-08-16_08h54.41.697,HF_wild_card,2022.2.4,Win32,60.97189196,643918b7df602a9f3f3f66d7,64d2fd46c836a06233681665,64dc7f575c202e4d552da82d,,,,,,,ctch,resources/DG.BMP,resources/DB.BMP,Door3,-0.348148148,-0.025925926,1,0,0,1.303,optionLeft,70,7110,4,1,0,1,0,1,,,,,,,,,,,,,,,,,,,,,,,,,,,,,,,,,,,,,,,
,,,,,,,,2023-08-16_08h54.41.697,HF_wild_card,2022.2.4,Win32,60.97189196,643918b7df602a9f3f3f66d7,64d2fd46c836a06233681665,64dc7f575c202e4d552da82d,,,,,,,decisionTrl,resources/DY.BMP,resources/DG.BMP,Door3,0.275,-0.023148148,1,0,0,1.2663,optionRight,70,7180,4,2,0,2,0,1,,,,,,,,,,,,,,,,,,,,,,,,,,,,,,,,,,,,,,,
,,,,,,,,2023-08-16_08h54.41.697,HF_wild_card,2022.2.4,Win32,60.97189196,643918b7df602a9f3f3f66d7,64d2fd46c836a06233681665,64dc7f575c202e4d552da82d,,,,,,,decisionTrl,resources/DG.BMP,resources/DY.BMP,Door4,0.302777778,-0.002777778,1,0,0,0.9177,optionRight,60,7240,4,3,0,3,0,1,,,,,,,,,,,,,,,,,,,,,,,,,,,,,,,,,,,,,,,
,,,,,,,,2023-08-16_08h54.41.697,HF_wild_card,2022.2.4,Win32,60.97189196,643918b7df602a9f3f3f66d7,64d2fd46c836a06233681665,64dc7f575c202e4d552da82d,,,,,,,decisionTrl,resources/DP.BMP,resources/DB.BMP,Door1,-0.491666667,0.000925926,1,0,0,1.3467,optionLeft,30,7270,4,4,0,4,0,1,,,,,,,,,,,,,,,,,,,,,,,,,,,,,,,,,,,,,,,
,,,,,,,,2023-08-16_08h54.41.697,HF_wild_card,2022.2.4,Win32,60.97189196,643918b7df602a9f3f3f66d7,64d2fd46c836a06233681665,64dc7f575c202e4d552da82d,,,,,,,sngl,resources/DB.BMP,resources/Empty.png,Door2,-0.273148148,0.026851852,1,0,0,0.9331,optionLeft,20,7290,4,5,0,5,0,1,,,,,,,,,,,,,,,,,,,,,,,,,,,,,,,,,,,,,,,
,,,,,,,,2023-08-16_08h54.41.697,HF_wild_card,2022.2.4,Win32,60.97189196,643918b7df602a9f3f3f66d7,64d2fd46c836a06233681665,64dc7f575c202e4d552da82d,,,,,,,decisionTrl,resources/DR.BMP,resources/DB.BMP,WildCard_Ex,-0.414814815,0.011111111,1,0,0,1.1164,optionLeft,95,7385,4,6,0,6,0,1,,,,,,,,,,,,,,,,,,,,,,,,,,,,,,,,,,,,,,,
,,,,,,,,2023-08-16_08h54.41.697,HF_wild_card,2022.2.4,Win32,60.97189196,643918b7df602a9f3f3f66d7,64d2fd46c836a06233681665,64dc7f575c202e4d552da82d,,,,,,,sngl,resources/DG.BMP,resources/Empty.png,Door3,-0.364814815,-0.009259259,1,0,0,0.7158,optionLeft,70,7455,4,7,0,7,0,1,,,,,,,,,,,,,,,,,,,,,,,,,,,,,,,,,,,,,,,
,,,,,,,,2023-08-16_08h54.41.697,HF_wild_card,2022.2.4,Win32,60.97189196,643918b7df602a9f3f3f66d7,64d2fd46c836a06233681665,64dc7f575c202e4d552da82d,,,,,,,decisionTrl,resources/DP.BMP,resources/DB.BMP,Door1,-0.355555556,0,1,0,0,1.1644,optionLeft,30,7485,4,8,0,8,0,1,,,,,,,,,,,,,,,,,,,,,,,,,,,,,,,,,,,,,,,
,,,,,,,,2023-08-16_08h54.41.697,HF_wild_card,2022.2.4,Win32,60.97189196,643918b7df602a9f3f3f66d7,64d2fd46c836a06233681665,64dc7f575c202e4d552da82d,,,,,,,decisionTrl,resources/DG.BMP,resources/DY.BMP,Door4,0.330555556,-0.027777778,1,0,0,2.02,optionRight,60,7545,4,9,0,9,0,1,,,,,,,,,,,,,,,,,,,,,,,,,,,,,,,,,,,,,,,
,,,,,,,,2023-08-16_08h54.41.697,HF_wild_card,2022.2.4,Win32,60.97189196,643918b7df602a9f3f3f66d7,64d2fd46c836a06233681665,64dc7f575c202e4d552da82d,,,,,,,sngl,resources/Empty.png,resources/DP.BMP,Door1,0.475,-0.052777778,1,0,0,0.8144,optionRight,30,7575,4,10,0,10,0,1,,,,,,,,,,,,,,,,,,,,,,,,,,,,,,,,,,,,,,,
,,,,,,,,2023-08-16_08h54.41.697,HF_wild_card,2022.2.4,Win32,60.97189196,643918b7df602a9f3f3f66d7,64d2fd46c836a06233681665,64dc7f575c202e4d552da82d,,,,,,,decisionTrl,resources/DB.BMP,resources/DP.BMP,Door1,0.378703704,-0.051851852,1,0,0,1.5443,optionRight,30,7605,4,11,0,11,0,1,,,,,,,,,,,,,,,,,,,,,,,,,,,,,,,,,,,,,,,
,,,,,,,,2023-08-16_08h54.41.697,HF_wild_card,2022.2.4,Win32,60.97189196,643918b7df602a9f3f3f66d7,64d2fd46c836a06233681665,64dc7f575c202e4d552da82d,,,,,,,decisionTrl,resources/DR.BMP,resources/DY.BMP,WildCard_Ex,-0.272222222,-0.046296296,1,0,0,1.2187,optionLeft,5,7610,4,12,0,12,0,1,,,,,,,,,,,,,,,,,,,,,,,,,,,,,,,,,,,,,,,
,,,,,,,,2023-08-16_08h54.41.697,HF_wild_card,2022.2.4,Win32,60.97189196,643918b7df602a9f3f3f66d7,64d2fd46c836a06233681665,64dc7f575c202e4d552da82d,,,,,,,decisionTrl,resources/DY.BMP,resources/DG.BMP,Door3,0.311111111,-0.010185185,1,0,0,1.7685,optionRight,70,7680,4,13,0,13,0,1,,,,,,,,,,,,,,,,,,,,,,,,,,,,,,,,,,,,,,,
,,,,,,,,2023-08-16_08h54.41.697,HF_wild_card,2022.2.4,Win32,60.97189196,643918b7df602a9f3f3f66d7,64d2fd46c836a06233681665,64dc7f575c202e4d552da82d,,,,,,,sngl,resources/DY.BMP,resources/Empty.png,Door4,-0.34537037,0.010185185,1,0,0,0.6991,optionLeft,60,7740,4,14,0,14,0,1,,,,,,,,,,,,,,,,,,,,,,,,,,,,,,,,,,,,,,,
,,,,,,,,2023-08-16_08h54.41.697,HF_wild_card,2022.2.4,Win32,60.97189196,643918b7df602a9f3f3f66d7,64d2fd46c836a06233681665,64dc7f575c202e4d552da82d,,,,,,,sngl,resources/Empty.png,resources/DY.BMP,Door4,0.475925926,-0.027777778,1,0,0,0.5935,optionRight,80,7820,4,15,0,15,0,1,,,,,,,,,,,,,,,,,,,,,,,,,,,,,,,,,,,,,,,
,,,,,,,,2023-08-16_08h54.41.697,HF_wild_card,2022.2.4,Win32,60.97189196,643918b7df602a9f3f3f66d7,64d2fd46c836a06233681665,64dc7f575c202e4d552da82d,,,,,,,decisionTrl,resources/DB.BMP,resources/DP.BMP,Door1,0.361111111,-0.019444444,1,0,0,1.7838,optionRight,30,7850,4,16,0,16,0,1,,,,,,,,,,,,,,,,,,,,,,,,,,,,,,,,,,,,,,,
,,,,,,,,2023-08-16_08h54.41.697,HF_wild_card,2022.2.4,Win32,60.97189196,643918b7df602a9f3f3f66d7,64d2fd46c836a06233681665,64dc7f575c202e4d552da82d,,,,,,,sngl,resources/DP.BMP,resources/Empty.png,Door1,-0.305555556,0,1,0,0,0.7632,optionLeft,30,7880,4,17,0,17,0,1,,,,,,,,,,,,,,,,,,,,,,,,,,,,,,,,,,,,,,,
,,,,,,,,2023-08-16_08h54.41.697,HF_wild_card,2022.2.4,Win32,60.97189196,643918b7df602a9f3f3f66d7,64d2fd46c836a06233681665,64dc7f575c202e4d552da82d,,,,,,,ctch,resources/DB.BMP,resources/DG.BMP,Door3,0.311111111,-0.024074074,1,0,0,1.1683,optionRight,70,7950,4,18,0,18,0,1,,,,,,,,,,,,,,,,,,,,,,,,,,,,,,,,,,,,,,,
,,,,,,,,2023-08-16_08h54.41.697,HF_wild_card,2022.2.4,Win32,60.97189196,643918b7df602a9f3f3f66d7,64d2fd46c836a06233681665,64dc7f575c202e4d552da82d,,,,,,,ctch,resources/DY.BMP,resources/DP.BMP,Door4,-0.339814815,0.022222222,1,0,0,3.8431,optionLeft,60,8010,4,19,0,19,0,1,,,,,,,,,,,,,,,,,,,,,,,,,,,,,,,,,,,,,,,
,,,,,,,,2023-08-16_08h54.41.697,HF_wild_card,2022.2.4,Win32,60.97189196,643918b7df602a9f3f3f66d7,64d2fd46c836a06233681665,64dc7f575c202e4d552da82d,,,,,,,decisionTrl,resources/DR.BMP,resources/DP.BMP,WildCard_Ex,-0.368518519,-0.015740741,1,0,0,1.2153,optionLeft,5,8015,4,20,0,20,0,1,,,,,,,,,,,,,,,,,,,,,,,,,,,,,,,,,,,,,,,
,,,,,,,,2023-08-16_08h54.41.697,HF_wild_card,2022.2.4,Win32,60.97189196,643918b7df602a9f3f3f66d7,64d2fd46c836a06233681665,64dc7f575c202e4d552da82d,,,,,,,ctch,resources/DY.BMP,resources/DP.BMP,Door4,-0.323148148,-0.039814815,1,0,0,1.8678,optionLeft,80,8095,4,21,0,21,0,1,,,,,,,,,,,,,,,,,,,,,,,,,,,,,,,,,,,,,,,
,,,,,,,,2023-08-16_08h54.41.697,HF_wild_card,2022.2.4,Win32,60.97189196,643918b7df602a9f3f3f66d7,64d2fd46c836a06233681665,64dc7f575c202e4d552da82d,,,,,,,sngl,resources/Empty.png,resources/DB.BMP,Door2,0.443518519,-0.050925926,1,0,0,0.6646,optionRight,40,8135,4,22,0,22,0,1,,,,,,,,,,,,,,,,,,,,,,,,,,,,,,,,,,,,,,,
,,,,,,,,2023-08-16_08h54.41.697,HF_wild_card,2022.2.4,Win32,60.97189196,643918b7df602a9f3f3f66d7,64d2fd46c836a06233681665,64dc7f575c202e4d552da82d,,,,,,,decisionTrl,resources/DP.BMP,resources/DB.BMP,Door1,-0.348148148,0.000925926,1,0,0,1.5602,optionLeft,30,8165,4,23,0,23,0,1,,,,,,,,,,,,,,,,,,,,,,,,,,,,,,,,,,,,,,,
,,,,,,,,2023-08-16_08h54.41.697,HF_wild_card,2022.2.4,Win32,60.97189196,643918b7df602a9f3f3f66d7,64d2fd46c836a06233681665,64dc7f575c202e4d552da82d,,,,,,,ctch,resources/DB.BMP,resources/DG.BMP,Door3,0.293518519,-0.007407407,1,0,0,0.9285,optionRight,70,8235,4,24,0,24,0,1,,,,,,,,,,,,,,,,,,,,,,,,,,,,,,,,,,,,,,,
,,,,,,,,2023-08-16_08h54.41.697,HF_wild_card,2022.2.4,Win32,60.97189196,643918b7df602a9f3f3f66d7,64d2fd46c836a06233681665,64dc7f575c202e4d552da82d,,,,,,,ctch,resources/DP.BMP,resources/DY.BMP,Door4,0.34537037,-0.000925926,1,0,0,1.3315,optionRight,80,8315,4,25,0,25,0,1,,,,,,,,,,,,,,,,,,,,,,,,,,,,,,,,,,,,,,,
,,,,,,,,2023-08-16_08h54.41.697,HF_wild_card,2022.2.4,Win32,60.97189196,643918b7df602a9f3f3f66d7,64d2fd46c836a06233681665,64dc7f575c202e4d552da82d,,,,,,,decisionTrl,resources/DG.BMP,resources/DY.BMP,Door4,0.436111111,-0.005555556,1,0,0,0.9608,optionRight,80,8395,4,26,0,26,0,1,,,,,,,,,,,,,,,,,,,,,,,,,,,,,,,,,,,,,,,
,,,,,,,,2023-08-16_08h54.41.697,HF_wild_card,2022.2.4,Win32,60.97189196,643918b7df602a9f3f3f66d7,64d2fd46c836a06233681665,64dc7f575c202e4d552da82d,,,,,,,decisionTrl,resources/DP.BMP,resources/DR.BMP,Door1,-0.377777778,-0.008333333,1,0,0,2.0527,optionLeft,30,8425,4,27,0,27,0,1,,,,,,,,,,,,,,,,,,,,,,,,,,,,,,,,,,,,,,,
,,,,,,,,2023-08-16_08h54.41.697,HF_wild_card,2022.2.4,Win32,60.97189196,643918b7df602a9f3f3f66d7,64d2fd46c836a06233681665,64dc7f575c202e4d552da82d,,,,,,,decisionTrl,resources/DB.BMP,resources/DP.BMP,Door1,0.325,-0.002777778,1,0,0,1.6187,optionRight,30,8455,4,28,0,28,0,1,,,,,,,,,,,,,,,,,,,,,,,,,,,,,,,,,,,,,,,
,,,,,,,,2023-08-16_08h54.41.697,HF_wild_card,2022.2.4,Win32,60.97189196,643918b7df602a9f3f3f66d7,64d2fd46c836a06233681665,64dc7f575c202e4d552da82d,,,,,,,ctch,resources/DP.BMP,resources/DY.BMP,Door4,0.35,-0.013888889,1,0,0,0.8177,optionRight,80,8535,4,29,0,29,0,1,,,,,,,,,,,,,,,,,,,,,,,,,,,,,,,,,,,,,,,
,,,,,,,,2023-08-16_08h54.41.697,HF_wild_card,2022.2.4,Win32,60.97189196,643918b7df602a9f3f3f66d7,64d2fd46c836a06233681665,64dc7f575c202e4d552da82d,,,,,,,sngl,resources/Empty.png,resources/DR.BMP,WildCard_Ex,0.362037037,-0.030555556,1,0,0,1.2673,optionRight,95,8630,4,30,0,30,0,1,,,,,,,,,,,,,,,,,,,,,,,,,,,,,,,,,,,,,,,
,,,,,,,,2023-08-16_08h54.41.697,HF_wild_card,2022.2.4,Win32,60.97189196,643918b7df602a9f3f3f66d7,64d2fd46c836a06233681665,64dc7f575c202e4d552da82d,,,,,,,sngl,resources/DR.BMP,resources/Empty.png,WildCard_Ex,-0.398148148,0.019444444,1,0,0,0.9331,optionLeft,95,8725,4,31,0,31,0,1,,,,,,,,,,,,,,,,,,,,,,,,,,,,,,,,,,,,,,,
,,,,,,,,2023-08-16_08h54.41.697,HF_wild_card,2022.2.4,Win32,60.97189196,643918b7df602a9f3f3f66d7,64d2fd46c836a06233681665,64dc7f575c202e4d552da82d,,,,,,,decisionTrl,resources/DP.BMP,resources/DB.BMP,Door1,-0.356481481,0.000925926,1,0,0,1.5621,optionLeft,30,8755,4,32,0,32,0,1,,,,,,,,,,,,,,,,,,,,,,,,,,,,,,,,,,,,,,,
,,,,,,,,2023-08-16_08h54.41.697,HF_wild_card,2022.2.4,Win32,60.97189196,643918b7df602a9f3f3f66d7,64d2fd46c836a06233681665,64dc7f575c202e4d552da82d,,,,,,,sngl,resources/DR.BMP,resources/Empty.png,WildCard_Ex,-0.330555556,0.012037037,1,0,0,0.7521,optionLeft,5,8760,4,33,0,33,0,1,,,,,,,,,,,,,,,,,,,,,,,,,,,,,,,,,,,,,,,
,,,,,,,,2023-08-16_08h54.41.697,HF_wild_card,2022.2.4,Win32,60.97189196,643918b7df602a9f3f3f66d7,64d2fd46c836a06233681665,64dc7f575c202e4d552da82d,,,,,,,ctch,resources/DG.BMP,resources/DB.BMP,Door3,-0.365740741,0.013888889,1,0,0,1.4673,optionLeft,70,8830,4,34,0,34,0,1,,,,,,,,,,,,,,,,,,,,,,,,,,,,,,,,,,,,,,,
,,,,,,,,2023-08-16_08h54.41.697,HF_wild_card,2022.2.4,Win32,60.97189196,643918b7df602a9f3f3f66d7,64d2fd46c836a06233681665,64dc7f575c202e4d552da82d,,,,,,,decisionTrl,resources/DY.BMP,resources/DG.BMP,Door4,-0.394444444,-0.012037037,1,0,0,2.562,optionLeft,80,8910,4,35,0,35,0,1,,,,,,,,,,,,,,,,,,,,,,,,,,,,,,,,,,,,,,,
,,,,,,,,2023-08-16_08h54.41.697,HF_wild_card,2022.2.4,Win32,60.97189196,643918b7df602a9f3f3f66d7,64d2fd46c836a06233681665,64dc7f575c202e4d552da82d,,,,,,,sngl,resources/Empty.png,resources/DR.BMP,WildCard_Ex,0.394444444,-0.046296296,1,0,0,0.694,optionRight,5,8915,4,36,0,36,0,1,,,,,,,,,,,,,,,,,,,,,,,,,,,,,,,,,,,,,,,
,,,,,,,,2023-08-16_08h54.41.697,HF_wild_card,2022.2.4,Win32,60.97189196,643918b7df602a9f3f3f66d7,64d2fd46c836a06233681665,64dc7f575c202e4d552da82d,,,,,,,decisionTrl,resources/DR.BMP,resources/DG.BMP,Door3,0.287037037,-0.018518519,1,0,0,1.0981,optionRight,70,8985,4,37,0,37,0,1,,,,,,,,,,,,,,,,,,,,,,,,,,,,,,,,,,,,,,,
,,,,,,,,2023-08-16_08h54.41.697,HF_wild_card,2022.2.4,Win32,60.97189196,643918b7df602a9f3f3f66d7,64d2fd46c836a06233681665,64dc7f575c202e4d552da82d,,,,,,,decisionTrl,resources/DG.BMP,resources/DR.BMP,Door3,-0.318518519,0.011111111,1,0,0,1.3862,optionLeft,70,9055,4,38,0,38,0,1,,,,,,,,,,,,,,,,,,,,,,,,,,,,,,,,,,,,,,,
,,,,,,,,2023-08-16_08h54.41.697,HF_wild_card,2022.2.4,Win32,60.97189196,643918b7df602a9f3f3f66d7,64d2fd46c836a06233681665,64dc7f575c202e4d552da82d,,,,,,,decisionTrl,resources/DY.BMP,resources/DG.BMP,Door4,-0.388888889,-0.008333333,1,0,0,1.4338,optionLeft,60,9115,4,39,0,39,0,1,,,,,,,,,,,,,,,,,,,,,,,,,,,,,,,,,,,,,,,
,,,,,,,,2023-08-16_08h54.41.697,HF_wild_card,2022.2.4,Win32,60.97189196,643918b7df602a9f3f3f66d7,64d2fd46c836a06233681665,64dc7f575c202e4d552da82d,,,,,,,decisionTrl,resources/DG.BMP,resources/DY.BMP,Door4,0.322222222,-0.05,1,0,0,1.9307,optionRight,80,9195,4,40,0,40,0,1,,,,,,,,,,,,,,,,,,,,,,,,,,,,,,,,,,,,,,,
,,,,,,,,2023-08-16_08h54.41.697,HF_wild_card,2022.2.4,Win32,60.97189196,643918b7df602a9f3f3f66d7,64d2fd46c836a06233681665,64dc7f575c202e4d552da82d,,,,,,,decisionTrl,resources/DY.BMP,resources/DR.BMP,Door4,-0.477777778,0.009259259,1,0,0,1.2654,optionLeft,80,9275,4,41,0,41,0,1,,,,,,,,,,,,,,,,,,,,,,,,,,,,,,,,,,,,,,,
,,,,,,,,2023-08-16_08h54.41.697,HF_wild_card,2022.2.4,Win32,60.97189196,643918b7df602a9f3f3f66d7,64d2fd46c836a06233681665,64dc7f575c202e4d552da82d,,,,,,,decisionTrl,resources/DB.BMP,resources/DP.BMP,Door1,0.321296296,0.006481481,1,0,0,1.835,optionRight,30,9305,4,42,0,42,0,1,,,,,,,,,,,,,,,,,,,,,,,,,,,,,,,,,,,,,,,
,,,,,,,,2023-08-16_08h54.41.697,HF_wild_card,2022.2.4,Win32,60.97189196,643918b7df602a9f3f3f66d7,64d2fd46c836a06233681665,64dc7f575c202e4d552da82d,,,,,,,sngl,resources/Empty.png,resources/DG.BMP,Door3,0.341666667,-0.012037037,1,0,0,0.8274,optionRight,70,9375,4,43,0,43,0,1,,,,,,,,,,,,,,,,,,,,,,,,,,,,,,,,,,,,,,,
,,,,,,,,2023-08-16_08h54.41.697,HF_wild_card,2022.2.4,Win32,60.97189196,643918b7df602a9f3f3f66d7,64d2fd46c836a06233681665,64dc7f575c202e4d552da82d,,,,,,,,,,,,,,,,,,,,,,,,,,3,0,3,0,1,,,,,,,,,,,,,,,,,,,,,,,,,,,,,,,,,,
,,,,,,,,2023-08-16_08h54.41.697,HF_wild_card,2022.2.4,Win32,60.97189196,643918b7df602a9f3f3f66d7,64d2fd46c836a06233681665,64dc7f575c202e4d552da82d,,,,,,,decisionTrl,resources/DY.BMP,resources/DG.BMP,Door4,-0.293518519,-0.016666667,1,0,0,1.3956,optionLeft,80,9455,5,0,0,0,0,1,,,,,,,,,,,,,,,,,,,,,,,,,,,,,,,,,,,,,,,
,,,,,,,,2023-08-16_08h54.41.697,HF_wild_card,2022.2.4,Win32,60.97189196,643918b7df602a9f3f3f66d7,64d2fd46c836a06233681665,64dc7f575c202e4d552da82d,,,,,,,decisionTrl,resources/DY.BMP,resources/DG.BMP,Door4,-0.387037037,0.035185185,1,0,0,0.6144,optionLeft,60,9515,5,1,0,1,0,1,,,,,,,,,,,,,,,,,,,,,,,,,,,,,,,,,,,,,,,
,,,,,,,,2023-08-16_08h54.41.697,HF_wild_card,2022.2.4,Win32,60.97189196,643918b7df602a9f3f3f66d7,64d2fd46c836a06233681665,64dc7f575c202e4d552da82d,,,,,,,decisionTrl,resources/DP.BMP,resources/DB.BMP,Door2,0.42962963,-0.009259259,1,0,0,1.9338,optionRight,20,9535,5,2,0,2,0,1,,,,,,,,,,,,,,,,,,,,,,,,,,,,,,,,,,,,,,,
,,,,,,,,2023-08-16_08h54.41.697,HF_wild_card,2022.2.4,Win32,60.97189196,643918b7df602a9f3f3f66d7,64d2fd46c836a06233681665,64dc7f575c202e4d552da82d,,,,,,,sngl,resources/Empty.png,resources/DP.BMP,Door1,0.65462963,-0.005555556,1,0,0,0.6348,optionRight,30,9565,5,3,0,3,0,1,,,,,,,,,,,,,,,,,,,,,,,,,,,,,,,,,,,,,,,
,,,,,,,,2023-08-16_08h54.41.697,HF_wild_card,2022.2.4,Win32,60.97189196,643918b7df602a9f3f3f66d7,64d2fd46c836a06233681665,64dc7f575c202e4d552da82d,,,,,,,decisionTrl,resources/DB.BMP,resources/DP.BMP,Door1,0.358333333,0.007407407,1,0,0,1.0801,optionRight,30,9595,5,4,0,4,0,1,,,,,,,,,,,,,,,,,,,,,,,,,,,,,,,,,,,,,,,
,,,,,,,,2023-08-16_08h54.41.697,HF_wild_card,2022.2.4,Win32,60.97189196,643918b7df602a9f3f3f66d7,64d2fd46c836a06233681665,64dc7f575c202e4d552da82d,,,,,,,sngl,resources/DR.BMP,resources/Empty.png,WildCard_Ex,-0.30462963,0.001851852,1,0,0,0.5995,optionLeft,95,9690,5,5,0,5,0,1,,,,,,,,,,,,,,,,,,,,,,,,,,,,,,,,,,,,,,,
,,,,,,,,2023-08-16_08h54.41.697,HF_wild_card,2022.2.4,Win32,60.97189196,643918b7df602a9f3f3f66d7,64d2fd46c836a06233681665,64dc7f575c202e4d552da82d,,,,,,,sngl,resources/DR.BMP,resources/Empty.png,WildCard_Ex,-0.399074074,-0.00462963,1,0,0,0.7263,optionLeft,5,9695,5,6,0,6,0,1,,,,,,,,,,,,,,,,,,,,,,,,,,,,,,,,,,,,,,,
,,,,,,,,2023-08-16_08h54.41.697,HF_wild_card,2022.2.4,Win32,60.97189196,643918b7df602a9f3f3f66d7,64d2fd46c836a06233681665,64dc7f575c202e4d552da82d,,,,,,,ctch,resources/DY.BMP,resources/DP.BMP,Door4,-0.430555556,-0.005555556,1,0,0,1.2113,optionLeft,80,9775,5,7,0,7,0,1,,,,,,,,,,,,,,,,,,,,,,,,,,,,,,,,,,,,,,,
,,,,,,,,2023-08-16_08h54.41.697,HF_wild_card,2022.2.4,Win32,60.97189196,643918b7df602a9f3f3f66d7,64d2fd46c836a06233681665,64dc7f575c202e4d552da82d,,,,,,,sngl,resources/Empty.png,resources/DY.BMP,Door4,0.381481481,-0.035185185,1,0,0,0.8477,optionRight,60,9835,5,8,0,8,0,1,,,,,,,,,,,,,,,,,,,,,,,,,,,,,,,,,,,,,,,
,,,,,,,,2023-08-16_08h54.41.697,HF_wild_card,2022.2.4,Win32,60.97189196,643918b7df602a9f3f3f66d7,64d2fd46c836a06233681665,64dc7f575c202e4d552da82d,,,,,,,ctch,resources/DB.BMP,resources/DG.BMP,Door3,0.332407407,-0.016666667,1,0,0,1.1138,optionRight,70,9905,5,9,0,9,0,1,,,,,,,,,,,,,,,,,,,,,,,,,,,,,,,,,,,,,,,
,,,,,,,,2023-08-16_08h54.41.697,HF_wild_card,2022.2.4,Win32,60.97189196,643918b7df602a9f3f3f66d7,64d2fd46c836a06233681665,64dc7f575c202e4d552da82d,,,,,,,ctch,resources/DP.BMP,resources/DY.BMP,Door4,0.302777778,-0.021296296,1,0,0,2.4776,optionRight,60,9965,5,10,0,10,0,1,,,,,,,,,,,,,,,,,,,,,,,,,,,,,,,,,,,,,,,
,,,,,,,,2023-08-16_08h54.41.697,HF_wild_card,2022.2.4,Win32,60.97189196,643918b7df602a9f3f3f66d7,64d2fd46c836a06233681665,64dc7f575c202e4d552da82d,,,,,,,decisionTrl,resources/DY.BMP,resources/DG.BMP,Door4,-0.346296296,0.015740741,1,0,0,0.9997,optionLeft,60,10025,5,11,0,11,0,1,,,,,,,,,,,,,,,,,,,,,,,,,,,,,,,,,,,,,,,
,,,,,,,,2023-08-16_08h54.41.697,HF_wild_card,2022.2.4,Win32,60.97189196,643918b7df602a9f3f3f66d7,64d2fd46c836a06233681665,64dc7f575c202e4d552da82d,,,,,,,sngl,resources/DP.BMP,resources/Empty.png,Door1,-0.316666667,-0.002777778,1,0,0,0.6948,optionLeft,30,10055,5,12,0,12,0,1,,,,,,,,,,,,,,,,,,,,,,,,,,,,,,,,,,,,,,,
,,,,,,,,2023-08-16_08h54.41.697,HF_wild_card,2022.2.4,Win32,60.97189196,643918b7df602a9f3f3f66d7,64d2fd46c836a06233681665,64dc7f575c202e4d552da82d,,,,,,,decisionTrl,resources/DB.BMP,resources/DP.BMP,Door1,0.323148148,-0.011111111,1,0,0,1.1206,optionRight,30,10085,5,13,0,13,0,1,,,,,,,,,,,,,,,,,,,,,,,,,,,,,,,,,,,,,,,
,,,,,,,,2023-08-16_08h54.41.697,HF_wild_card,2022.2.4,Win32,60.97189196,643918b7df602a9f3f3f66d7,64d2fd46c836a06233681665,64dc7f575c202e4d552da82d,,,,,,,decisionTrl,resources/DG.BMP,resources/DY.BMP,Door3,-0.342592593,-0.007407407,1,0,0,1.7844,optionLeft,70,10155,5,14,0,14,0,1,,,,,,,,,,,,,,,,,,,,,,,,,,,,,,,,,,,,,,,
,,,,,,,,2023-08-16_08h54.41.697,HF_wild_card,2022.2.4,Win32,60.97189196,643918b7df602a9f3f3f66d7,64d2fd46c836a06233681665,64dc7f575c202e4d552da82d,,,,,,,ctch,resources/DP.BMP,resources/DY.BMP,Door4,0.35462963,-0.019444444,1,0,0,1.914,optionRight,80,10235,5,15,0,15,0,1,,,,,,,,,,,,,,,,,,,,,,,,,,,,,,,,,,,,,,,
,,,,,,,,2023-08-16_08h54.41.697,HF_wild_card,2022.2.4,Win32,60.97189196,643918b7df602a9f3f3f66d7,64d2fd46c836a06233681665,64dc7f575c202e4d552da82d,,,,,,,decisionTrl,resources/DP.BMP,resources/DB.BMP,Door1,-0.349074074,0.006481481,1,0,0,1.4802,optionLeft,30,10265,5,16,0,16,0,1,,,,,,,,,,,,,,,,,,,,,,,,,,,,,,,,,,,,,,,
,,,,,,,,2023-08-16_08h54.41.697,HF_wild_card,2022.2.4,Win32,60.97189196,643918b7df602a9f3f3f66d7,64d2fd46c836a06233681665,64dc7f575c202e4d552da82d,,,,,,,decisionTrl,resources/DG.BMP,resources/DR.BMP,WildCard_Ex,0.400925926,-0.025,1,0,0,2.9473,optionRight,95,10360,5,17,0,17,0,1,,,,,,,,,,,,,,,,,,,,,,,,,,,,,,,,,,,,,,,
,,,,,,,,2023-08-16_08h54.41.697,HF_wild_card,2022.2.4,Win32,60.97189196,643918b7df602a9f3f3f66d7,64d2fd46c836a06233681665,64dc7f575c202e4d552da82d,,,,,,,decisionTrl,resources/DB.BMP,resources/DP.BMP,Door1,0.464814815,-0.030555556,1,0,0,1.4268,optionRight,30,10390,5,18,0,18,0,1,,,,,,,,,,,,,,,,,,,,,,,,,,,,,,,,,,,,,,,
,,,,,,,,2023-08-16_08h54.41.697,HF_wild_card,2022.2.4,Win32,60.97189196,643918b7df602a9f3f3f66d7,64d2fd46c836a06233681665,64dc7f575c202e4d552da82d,,,,,,,decisionTrl,resources/DR.BMP,resources/DP.BMP,WildCard_Ex,-0.485185185,0.019444444,1,0,0,1.2126,optionLeft,5,10395,5,19,0,19,0,1,,,,,,,,,,,,,,,,,,,,,,,,,,,,,,,,,,,,,,,
,,,,,,,,2023-08-16_08h54.41.697,HF_wild_card,2022.2.4,Win32,60.97189196,643918b7df602a9f3f3f66d7,64d2fd46c836a06233681665,64dc7f575c202e4d552da82d,,,,,,,decisionTrl,resources/DG.BMP,resources/DY.BMP,Door4,0.344444444,-0.016666667,1,0,0,0.7434,optionRight,80,10475,5,20,0,20,0,1,,,,,,,,,,,,,,,,,,,,,,,,,,,,,,,,,,,,,,,
,,,,,,,,2023-08-16_08h54.41.697,HF_wild_card,2022.2.4,Win32,60.97189196,643918b7df602a9f3f3f66d7,64d2fd46c836a06233681665,64dc7f575c202e4d552da82d,,,,,,,decisionTrl,resources/DY.BMP,resources/DR.BMP,WildCard_Ex,0.383333333,-0.022222222,1,0,0,0.8017,optionRight,5,10480,5,21,0,21,0,1,,,,,,,,,,,,,,,,,,,,,,,,,,,,,,,,,,,,,,,
,,,,,,,,2023-08-16_08h54.41.697,HF_wild_card,2022.2.4,Win32,60.97189196,643918b7df602a9f3f3f66d7,64d2fd46c836a06233681665,64dc7f575c202e4d552da82d,,,,,,,decisionTrl,resources/DP.BMP,resources/DB.BMP,Door1,-0.371296296,0.015740741,1,0,0,3.1812,optionLeft,30,10510,5,22,0,22,0,1,,,,,,,,,,,,,,,,,,,,,,,,,,,,,,,,,,,,,,,
,,,,,,,,2023-08-16_08h54.41.697,HF_wild_card,2022.2.4,Win32,60.97189196,643918b7df602a9f3f3f66d7,64d2fd46c836a06233681665,64dc7f575c202e4d552da82d,,,,,,,ctch,resources/DG.BMP,resources/DB.BMP,Door3,-0.286111111,0.018518519,1,0,0,0.7787,optionLeft,70,10580,5,23,0,23,0,1,,,,,,,,,,,,,,,,,,,,,,,,,,,,,,,,,,,,,,,
,,,,,,,,2023-08-16_08h54.41.697,HF_wild_card,2022.2.4,Win32,60.97189196,643918b7df602a9f3f3f66d7,64d2fd46c836a06233681665,64dc7f575c202e4d552da82d,,,,,,,decisionTrl,resources/DP.BMP,resources/DR.BMP,Door1,-0.349074074,0.028703704,1,0,0,2.3854,optionLeft,30,10610,5,24,0,24,0,1,,,,,,,,,,,,,,,,,,,,,,,,,,,,,,,,,,,,,,,
,,,,,,,,2023-08-16_08h54.41.697,HF_wild_card,2022.2.4,Win32,60.97189196,643918b7df602a9f3f3f66d7,64d2fd46c836a06233681665,64dc7f575c202e4d552da82d,,,,,,,ctch,resources/DB.BMP,resources/DG.BMP,Door3,0.391666667,0.000925926,1,0,0,1.3189,optionRight,70,10680,5,25,0,25,0,1,,,,,,,,,,,,,,,,,,,,,,,,,,,,,,,,,,,,,,,
,,,,,,,,2023-08-16_08h54.41.697,HF_wild_card,2022.2.4,Win32,60.97189196,643918b7df602a9f3f3f66d7,64d2fd46c836a06233681665,64dc7f575c202e4d552da82d,,,,,,,sngl,resources/Empty.png,resources/DR.BMP,WildCard_Ex,0.427777778,-0.001851852,1,0,0,1.0118,optionRight,5,10685,5,26,0,26,0,1,,,,,,,,,,,,,,,,,,,,,,,,,,,,,,,,,,,,,,,
,,,,,,,,2023-08-16_08h54.41.697,HF_wild_card,2022.2.4,Win32,60.97189196,643918b7df602a9f3f3f66d7,64d2fd46c836a06233681665,64dc7f575c202e4d552da82d,,,,,,,decisionTrl,resources/DG.BMP,resources/DY.BMP,Door4,0.394444444,-0.026851852,1,0,0,2.3541,optionRight,80,10765,5,27,0,27,0,1,,,,,,,,,,,,,,,,,,,,,,,,,,,,,,,,,,,,,,,
,,,,,,,,2023-08-16_08h54.41.697,HF_wild_card,2022.2.4,Win32,60.97189196,643918b7df602a9f3f3f66d7,64d2fd46c836a06233681665,64dc7f575c202e4d552da82d,,,,,,,sngl,resources/DG.BMP,resources/Empty.png,Door3,-0.348148148,-0.006481481,1,0,0,0.6667,optionLeft,70,10835,5,28,0,28,0,1,,,,,,,,,,,,,,,,,,,,,,,,,,,,,,,,,,,,,,,
,,,,,,,,2023-08-16_08h54.41.697,HF_wild_card,2022.2.4,Win32,60.97189196,643918b7df602a9f3f3f66d7,64d2fd46c836a06233681665,64dc7f575c202e4d552da82d,,,,,,,sngl,resources/DB.BMP,resources/Empty.png,Door2,-0.274074074,-0.011111111,1,0,0,0.6442,optionLeft,40,10875,5,29,0,29,0,1,,,,,,,,,,,,,,,,,,,,,,,,,,,,,,,,,,,,,,,
,,,,,,,,2023-08-16_08h54.41.697,HF_wild_card,2022.2.4,Win32,60.97189196,643918b7df602a9f3f3f66d7,64d2fd46c836a06233681665,64dc7f575c202e4d552da82d,,,,,,,sngl,resources/DY.BMP,resources/Empty.png,Door4,-0.312037037,-0.027777778,1,0,0,0.6498,optionLeft,80,10955,5,30,0,30,0,1,,,,,,,,,,,,,,,,,,,,,,,,,,,,,,,,,,,,,,,
,,,,,,,,2023-08-16_08h54.41.697,HF_wild_card,2022.2.4,Win32,60.97189196,643918b7df602a9f3f3f66d7,64d2fd46c836a06233681665,64dc7f575c202e4d552da82d,,,,,,,sngl,resources/Empty.png,resources/DR.BMP,WildCard_Ex,0.305555556,-0.022222222,1,0,0,1.1423,optionRight,95,11050,5,31,0,31,0,1,,,,,,,,,,,,,,,,,,,,,,,,,,,,,,,,,,,,,,,
,,,,,,,,2023-08-16_08h54.41.697,HF_wild_card,2022.2.4,Win32,60.97189196,643918b7df602a9f3f3f66d7,64d2fd46c836a06233681665,64dc7f575c202e4d552da82d,,,,,,,decisionTrl,resources/DG.BMP,resources/DY.BMP,Door3,-0.337962963,-0.021296296,1,0,0,1.7019,optionLeft,70,11120,5,32,0,32,0,1,,,,,,,,,,,,,,,,,,,,,,,,,,,,,,,,,,,,,,,
,,,,,,,,2023-08-16_08h54.41.697,HF_wild_card,2022.2.4,Win32,60.97189196,643918b7df602a9f3f3f66d7,64d2fd46c836a06233681665,64dc7f575c202e4d552da82d,,,,,,,ctch,resources/DY.BMP,resources/DP.BMP,Door4,-0.35,-0.017592593,1,0,0,0.8616,optionLeft,80,11200,5,33,0,33,0,1,,,,,,,,,,,,,,,,,,,,,,,,,,,,,,,,,,,,,,,
,,,,,,,,2023-08-16_08h54.41.697,HF_wild_card,2022.2.4,Win32,60.97189196,643918b7df602a9f3f3f66d7,64d2fd46c836a06233681665,64dc7f575c202e4d552da82d,,,,,,,decisionTrl,resources/DB.BMP,resources/DP.BMP,Door1,0.316666667,-0.034259259,1,0,0,1.0611,optionRight,30,11230,5,34,0,34,0,1,,,,,,,,,,,,,,,,,,,,,,,,,,,,,,,,,,,,,,,
,,,,,,,,2023-08-16_08h54.41.697,HF_wild_card,2022.2.4,Win32,60.97189196,643918b7df602a9f3f3f66d7,64d2fd46c836a06233681665,64dc7f575c202e4d552da82d,,,,,,,sngl,resources/Empty.png,resources/DG.BMP,Door3,0.408333333,-0.030555556,1,0,0,0.7631,optionRight,70,11300,5,35,0,35,0,1,,,,,,,,,,,,,,,,,,,,,,,,,,,,,,,,,,,,,,,
,,,,,,,,2023-08-16_08h54.41.697,HF_wild_card,2022.2.4,Win32,60.97189196,643918b7df602a9f3f3f66d7,64d2fd46c836a06233681665,64dc7f575c202e4d552da82d,,,,,,,decisionTrl,resources/DR.BMP,resources/DG.BMP,WildCard_Ex,-0.343518519,-0.000925926,1,0,0,0.9354,optionLeft,95,11395,5,36,0,36,0,1,,,,,,,,,,,,,,,,,,,,,,,,,,,,,,,,,,,,,,,
,,,,,,,,2023-08-16_08h54.41.697,HF_wild_card,2022.2.4,Win32,60.97189196,643918b7df602a9f3f3f66d7,64d2fd46c836a06233681665,64dc7f575c202e4d552da82d,,,,,,,decisionTrl,resources/DY.BMP,resources/DG.BMP,Door4,-0.410185185,-0.02037037,1,0,0,0.9981,optionLeft,60,11455,5,37,0,37,0,1,,,,,,,,,,,,,,,,,,,,,,,,,,,,,,,,,,,,,,,
,,,,,,,,2023-08-16_08h54.41.697,HF_wild_card,2022.2.4,Win32,60.97189196,643918b7df602a9f3f3f66d7,64d2fd46c836a06233681665,64dc7f575c202e4d552da82d,,,,,,,decisionTrl,resources/DR.BMP,resources/DB.BMP,WildCard_Ex,-0.424074074,-0.014814815,1,0,0,0.9165,optionLeft,5,11460,5,38,0,38,0,1,,,,,,,,,,,,,,,,,,,,,,,,,,,,,,,,,,,,,,,
,,,,,,,,2023-08-16_08h54.41.697,HF_wild_card,2022.2.4,Win32,60.97189196,643918b7df602a9f3f3f66d7,64d2fd46c836a06233681665,64dc7f575c202e4d552da82d,,,,,,,decisionTrl,resources/DP.BMP,resources/DB.BMP,Door1,-0.391666667,-0.002777778,1,0,0,2.2674,optionLeft,30,11490,5,39,0,39,0,1,,,,,,,,,,,,,,,,,,,,,,,,,,,,,,,,,,,,,,,
,,,,,,,,2023-08-16_08h54.41.697,HF_wild_card,2022.2.4,Win32,60.97189196,643918b7df602a9f3f3f66d7,64d2fd46c836a06233681665,64dc7f575c202e4d552da82d,,,,,,,sngl,resources/Empty.png,resources/DB.BMP,Door2,0.533333333,-0.039814815,1,0,0,0.617,optionRight,20,11510,5,40,0,40,0,1,,,,,,,,,,,,,,,,,,,,,,,,,,,,,,,,,,,,,,,
,,,,,,,,2023-08-16_08h54.41.697,HF_wild_card,2022.2.4,Win32,60.97189196,643918b7df602a9f3f3f66d7,64d2fd46c836a06233681665,64dc7f575c202e4d552da82d,,,,,,,ctch,resources/DG.BMP,resources/DB.BMP,Door3,-0.310185185,-0.033333333,1,0,0,1.0975,optionLeft,70,11580,5,41,0,41,0,1,,,,,,,,,,,,,,,,,,,,,,,,,,,,,,,,,,,,,,,
,,,,,,,,2023-08-16_08h54.41.697,HF_wild_card,2022.2.4,Win32,60.97189196,643918b7df602a9f3f3f66d7,64d2fd46c836a06233681665,64dc7f575c202e4d552da82d,,,,,,,decisionTrl,resources/DR.BMP,resources/DY.BMP,WildCard_Ex,-0.37962963,-0.064814815,1,0,0,4.22,optionLeft,5,11585,5,42,0,42,0,1,,,,,,,,,,,,,,,,,,,,,,,,,,,,,,,,,,,,,,,
,,,,,,,,2023-08-16_08h54.41.697,HF_wild_card,2022.2.4,Win32,60.97189196,643918b7df602a9f3f3f66d7,64d2fd46c836a06233681665,64dc7f575c202e4d552da82d,,,,,,,decisionTrl,resources/DB.BMP,resources/DR.BMP,WildCard_Ex,0.32037037,-0.024074074,1,0,0,0.9811,optionRight,5,11590,5,43,0,43,0,1,,,,,,,,,,,,,,,,,,,,,,,,,,,,,,,,,,,,,,,
,,,,,,,,2023-08-16_08h54.41.697,HF_wild_card,2022.2.4,Win32,60.97189196,643918b7df602a9f3f3f66d7,64d2fd46c836a06233681665,64dc7f575c202e4d552da82d,,,,,,,,,,,,,,,,,,,,,,,,,,4,0,4,0,1,,,,,,,,,,,,,,,,,,,,,,,,,,,,,,,,,,
,,,,,,,,2023-08-16_08h54.41.697,HF_wild_card,2022.2.4,Win32,60.97189196,643918b7df602a9f3f3f66d7,64d2fd46c836a06233681665,64dc7f575c202e4d552da82d,,,,,,,decisionTrl,resources/DB.BMP,resources/DP.BMP,Door1,0.397222222,-0.046296296,1,0,0,2.262,optionRight,30,11620,6,0,0,0,0,1,,,,,,,,,,,,,,,,,,,,,,,,,,,,,,,,,,,,,,,
,,,,,,,,2023-08-16_08h54.41.697,HF_wild_card,2022.2.4,Win32,60.97189196,643918b7df602a9f3f3f66d7,64d2fd46c836a06233681665,64dc7f575c202e4d552da82d,,,,,,,sngl,resources/Empty.png,resources/DY.BMP,Door4,0.439814815,-0.012962963,1,0,0,0.5611,optionRight,80,11700,6,1,0,1,0,1,,,,,,,,,,,,,,,,,,,,,,,,,,,,,,,,,,,,,,,
,,,,,,,,2023-08-16_08h54.41.697,HF_wild_card,2022.2.4,Win32,60.97189196,643918b7df602a9f3f3f66d7,64d2fd46c836a06233681665,64dc7f575c202e4d552da82d,,,,,,,sngl,resources/Empty.png,resources/DR.BMP,WildCard_Ex,0.355555556,-0.022222222,1,0,0,0.7004,optionRight,95,11795,6,2,0,2,0,1,,,,,,,,,,,,,,,,,,,,,,,,,,,,,,,,,,,,,,,
,,,,,,,,2023-08-16_08h54.41.697,HF_wild_card,2022.2.4,Win32,60.97189196,643918b7df602a9f3f3f66d7,64d2fd46c836a06233681665,64dc7f575c202e4d552da82d,,,,,,,decisionTrl,resources/DR.BMP,resources/DB.BMP,WildCard_Ex,-0.291666667,0.001851852,1,0,0,1.9004,optionLeft,95,11890,6,3,0,3,0,1,,,,,,,,,,,,,,,,,,,,,,,,,,,,,,,,,,,,,,,
,,,,,,,,2023-08-16_08h54.41.697,HF_wild_card,2022.2.4,Win32,60.97189196,643918b7df602a9f3f3f66d7,64d2fd46c836a06233681665,64dc7f575c202e4d552da82d,,,,,,,decisionTrl,resources/DB.BMP,resources/DP.BMP,Door1,0.318518519,-0.021296296,1,0,0,1.2501,optionRight,30,11920,6,4,0,4,0,1,,,,,,,,,,,,,,,,,,,,,,,,,,,,,,,,,,,,,,,
,,,,,,,,2023-08-16_08h54.41.697,HF_wild_card,2022.2.4,Win32,60.97189196,643918b7df602a9f3f3f66d7,64d2fd46c836a06233681665,64dc7f575c202e4d552da82d,,,,,,,ctch,resources/DY.BMP,resources/DP.BMP,Door4,-0.29537037,-0.006481481,1,0,0,1.0169,optionLeft,80,12000,6,5,0,5,0,1,,,,,,,,,,,,,,,,,,,,,,,,,,,,,,,,,,,,,,,
,,,,,,,,2023-08-16_08h54.41.697,HF_wild_card,2022.2.4,Win32,60.97189196,643918b7df602a9f3f3f66d7,64d2fd46c836a06233681665,64dc7f575c202e4d552da82d,,,,,,,decisionTrl,resources/DG.BMP,resources/DR.BMP,WildCard_Ex,0.271296296,-0.028703704,1,0,0,0.9468,optionRight,5,12005,6,6,0,6,0,1,,,,,,,,,,,,,,,,,,,,,,,,,,,,,,,,,,,,,,,
,,,,,,,,2023-08-16_08h54.41.697,HF_wild_card,2022.2.4,Win32,60.97189196,643918b7df602a9f3f3f66d7,64d2fd46c836a06233681665,64dc7f575c202e4d552da82d,,,,,,,sngl,resources/DB.BMP,resources/Empty.png,Door2,-0.353703704,0.024074074,1,0,0,0.716,optionLeft,20,12025,6,7,0,7,0,1,,,,,,,,,,,,,,,,,,,,,,,,,,,,,,,,,,,,,,,
,,,,,,,,2023-08-16_08h54.41.697,HF_wild_card,2022.2.4,Win32,60.97189196,643918b7df602a9f3f3f66d7,64d2fd46c836a06233681665,64dc7f575c202e4d552da82d,,,,,,,sngl,resources/DP.BMP,resources/Empty.png,Door1,-0.322222222,0.023148148,1,0,0,0.5005,optionLeft,30,12055,6,8,0,8,0,1,,,,,,,,,,,,,,,,,,,,,,,,,,,,,,,,,,,,,,,
,,,,,,,,2023-08-16_08h54.41.697,HF_wild_card,2022.2.4,Win32,60.97189196,643918b7df602a9f3f3f66d7,64d2fd46c836a06233681665,64dc7f575c202e4d552da82d,,,,,,,decisionTrl,resources/DP.BMP,resources/DB.BMP,Door1,-0.325925926,0.013888889,1,0,0,1.1467,optionLeft,30,12085,6,9,0,9,0,1,,,,,,,,,,,,,,,,,,,,,,,,,,,,,,,,,,,,,,,
,,,,,,,,2023-08-16_08h54.41.697,HF_wild_card,2022.2.4,Win32,60.97189196,643918b7df602a9f3f3f66d7,64d2fd46c836a06233681665,64dc7f575c202e4d552da82d,,,,,,,ctch,resources/DP.BMP,resources/DY.BMP,Door4,0.340740741,-0.009259259,1,0,0,1.1522,optionRight,80,12165,6,10,0,10,0,1,,,,,,,,,,,,,,,,,,,,,,,,,,,,,,,,,,,,,,,
,,,,,,,,2023-08-16_08h54.41.697,HF_wild_card,2022.2.4,Win32,60.97189196,643918b7df602a9f3f3f66d7,64d2fd46c836a06233681665,64dc7f575c202e4d552da82d,,,,,,,decisionTrl,resources/DR.BMP,resources/DP.BMP,WildCard_Ex,-0.355555556,-0.034259259,1,0,0,6.7886,optionLeft,95,12260,6,11,0,11,0,1,,,,,,,,,,,,,,,,,,,,,,,,,,,,,,,,,,,,,,,
,,,,,,,,2023-08-16_08h54.41.697,HF_wild_card,2022.2.4,Win32,60.97189196,643918b7df602a9f3f3f66d7,64d2fd46c836a06233681665,64dc7f575c202e4d552da82d,,,,,,,decisionTrl,resources/DP.BMP,resources/DB.BMP,Door1,-0.512037037,-0.006481481,1,0,0,1.149,optionLeft,30,12290,6,12,0,12,0,1,,,,,,,,,,,,,,,,,,,,,,,,,,,,,,,,,,,,,,,
,,,,,,,,2023-08-16_08h54.41.697,HF_wild_card,2022.2.4,Win32,60.97189196,643918b7df602a9f3f3f66d7,64d2fd46c836a06233681665,64dc7f575c202e4d552da82d,,,,,,,decisionTrl,resources/DG.BMP,resources/DY.BMP,Door4,0.394444444,-0.047222222,1,0,0,2.4372,optionRight,80,12370,6,13,0,13,0,1,,,,,,,,,,,,,,,,,,,,,,,,,,,,,,,,,,,,,,,
,,,,,,,,2023-08-16_08h54.41.697,HF_wild_card,2022.2.4,Win32,60.97189196,643918b7df602a9f3f3f66d7,64d2fd46c836a06233681665,64dc7f575c202e4d552da82d,,,,,,,ctch,resources/DB.BMP,resources/DG.BMP,Door3,0.319444444,-0.002777778,1,0,0,1.2004,optionRight,70,12440,6,14,0,14,0,1,,,,,,,,,,,,,,,,,,,,,,,,,,,,,,,,,,,,,,,
,,,,,,,,2023-08-16_08h54.41.697,HF_wild_card,2022.2.4,Win32,60.97189196,643918b7df602a9f3f3f66d7,64d2fd46c836a06233681665,64dc7f575c202e4d552da82d,,,,,,,decisionTrl,resources/DG.BMP,resources/DY.BMP,Door3,-0.340740741,0.012962963,1,0,0,0.9302,optionLeft,70,12510,6,15,0,15,0,1,,,,,,,,,,,,,,,,,,,,,,,,,,,,,,,,,,,,,,,
,,,,,,,,2023-08-16_08h54.41.697,HF_wild_card,2022.2.4,Win32,60.97189196,643918b7df602a9f3f3f66d7,64d2fd46c836a06233681665,64dc7f575c202e4d552da82d,,,,,,,decisionTrl,resources/DP.BMP,resources/DB.BMP,Door1,-0.437962963,-0.015740741,1,0,0,1.1844,optionLeft,30,12540,6,16,0,16,0,1,,,,,,,,,,,,,,,,,,,,,,,,,,,,,,,,,,,,,,,
,,,,,,,,2023-08-16_08h54.41.697,HF_wild_card,2022.2.4,Win32,60.97189196,643918b7df602a9f3f3f66d7,64d2fd46c836a06233681665,64dc7f575c202e4d552da82d,,,,,,,sngl,resources/Empty.png,resources/DB.BMP,Door2,0.387037037,-0.040740741,1,0,0,0.6626,optionRight,40,12580,6,17,0,17,0,1,,,,,,,,,,,,,,,,,,,,,,,,,,,,,,,,,,,,,,,
,,,,,,,,2023-08-16_08h54.41.697,HF_wild_card,2022.2.4,Win32,60.97189196,643918b7df602a9f3f3f66d7,64d2fd46c836a06233681665,64dc7f575c202e4d552da82d,,,,,,,sngl,resources/DG.BMP,resources/Empty.png,Door3,-0.312962963,-0.005555556,1,0,0,0.6966,optionLeft,70,12650,6,18,0,18,0,1,,,,,,,,,,,,,,,,,,,,,,,,,,,,,,,,,,,,,,,
,,,,,,,,2023-08-16_08h54.41.697,HF_wild_card,2022.2.4,Win32,60.97189196,643918b7df602a9f3f3f66d7,64d2fd46c836a06233681665,64dc7f575c202e4d552da82d,,,,,,,decisionTrl,resources/DY.BMP,resources/DG.BMP,Door4,-0.306481481,-0.034259259,1,0,0,1.6979,optionLeft,60,12710,6,19,0,19,0,1,,,,,,,,,,,,,,,,,,,,,,,,,,,,,,,,,,,,,,,
,,,,,,,,2023-08-16_08h54.41.697,HF_wild_card,2022.2.4,Win32,60.97189196,643918b7df602a9f3f3f66d7,64d2fd46c836a06233681665,64dc7f575c202e4d552da82d,,,,,,,ctch,resources/DG.BMP,resources/DB.BMP,Door3,-0.312037037,-0.012037037,1,0,0,0.9161,optionLeft,70,12780,6,20,0,20,0,1,,,,,,,,,,,,,,,,,,,,,,,,,,,,,,,,,,,,,,,
,,,,,,,,2023-08-16_08h54.41.697,HF_wild_card,2022.2.4,Win32,60.97189196,643918b7df602a9f3f3f66d7,64d2fd46c836a06233681665,64dc7f575c202e4d552da82d,,,,,,,decisionTrl,resources/DY.BMP,resources/DG.BMP,Door4,-0.314814815,-0.008333333,1,0,0,1.3164,optionLeft,80,12860,6,21,0,21,0,1,,,,,,,,,,,,,,,,,,,,,,,,,,,,,,,,,,,,,,,
,,,,,,,,2023-08-16_08h54.41.697,HF_wild_card,2022.2.4,Win32,60.97189196,643918b7df602a9f3f3f66d7,64d2fd46c836a06233681665,64dc7f575c202e4d552da82d,,,,,,,decisionTrl,resources/DY.BMP,resources/DG.BMP,Door4,-0.275925926,-0.010185185,1,0,0,0.8308,optionLeft,80,12940,6,22,0,22,0,1,,,,,,,,,,,,,,,,,,,,,,,,,,,,,,,,,,,,,,,
,,,,,,,,2023-08-16_08h54.41.697,HF_wild_card,2022.2.4,Win32,60.97189196,643918b7df602a9f3f3f66d7,64d2fd46c836a06233681665,64dc7f575c202e4d552da82d,,,,,,,decisionTrl,resources/DB.BMP,resources/DP.BMP,Door1,0.277777778,-0.034259259,1,0,0,0.8678,optionRight,30,12970,6,23,0,23,0,1,,,,,,,,,,,,,,,,,,,,,,,,,,,,,,,,,,,,,,,
,,,,,,,,2023-08-16_08h54.41.697,HF_wild_card,2022.2.4,Win32,60.97189196,643918b7df602a9f3f3f66d7,64d2fd46c836a06233681665,64dc7f575c202e4d552da82d,,,,,,,sngl,resources/Empty.png,resources/DR.BMP,WildCard_Ex,0.400925926,-0.053703704,1,0,0,3.2796,optionRight,5,12975,6,24,0,24,0,1,,,,,,,,,,,,,,,,,,,,,,,,,,,,,,,,,,,,,,,
,,,,,,,,2023-08-16_08h54.41.697,HF_wild_card,2022.2.4,Win32,60.97189196,643918b7df602a9f3f3f66d7,64d2fd46c836a06233681665,64dc7f575c202e4d552da82d,,,,,,,decisionTrl,resources/DY.BMP,resources/DG.BMP,Door4,-0.30462963,0.003703704,1,0,0,0.8977,optionLeft,60,13035,6,25,0,25,0,1,,,,,,,,,,,,,,,,,,,,,,,,,,,,,,,,,,,,,,,
,,,,,,,,2023-08-16_08h54.41.697,HF_wild_card,2022.2.4,Win32,60.97189196,643918b7df602a9f3f3f66d7,64d2fd46c836a06233681665,64dc7f575c202e4d552da82d,,,,,,,decisionTrl,resources/DP.BMP,resources/DB.BMP,Door1,-0.325,-0.00462963,1,0,0,0.9835,optionLeft,30,13065,6,26,0,26,0,1,,,,,,,,,,,,,,,,,,,,,,,,,,,,,,,,,,,,,,,
,,,,,,,,2023-08-16_08h54.41.697,HF_wild_card,2022.2.4,Win32,60.97189196,643918b7df602a9f3f3f66d7,64d2fd46c836a06233681665,64dc7f575c202e4d552da82d,,,,,,,decisionTrl,resources/DB.BMP,resources/DP.BMP,Door1,0.331481481,-0.033333333,1,0,0,1.1838,optionRight,30,13095,6,27,0,27,0,1,,,,,,,,,,,,,,,,,,,,,,,,,,,,,,,,,,,,,,,
,,,,,,,,2023-08-16_08h54.41.697,HF_wild_card,2022.2.4,Win32,60.97189196,643918b7df602a9f3f3f66d7,64d2fd46c836a06233681665,64dc7f575c202e4d552da82d,,,,,,,decisionTrl,resources/DR.BMP,resources/DG.BMP,WildCard_Ex,-0.318518519,-0.000925926,1,0,0,0.8169,optionLeft,95,13190,6,28,0,28,0,1,,,,,,,,,,,,,,,,,,,,,,,,,,,,,,,,,,,,,,,
,,,,,,,,2023-08-16_08h54.41.697,HF_wild_card,2022.2.4,Win32,60.97189196,643918b7df602a9f3f3f66d7,64d2fd46c836a06233681665,64dc7f575c202e4d552da82d,,,,,,,ctch,resources/DB.BMP,resources/DG.BMP,Door3,0.352777778,-0.067592593,1,0,0,1.7114,optionRight,70,13260,6,29,0,29,0,1,,,,,,,,,,,,,,,,,,,,,,,,,,,,,,,,,,,,,,,
,,,,,,,,2023-08-16_08h54.41.697,HF_wild_card,2022.2.4,Win32,60.97189196,643918b7df602a9f3f3f66d7,64d2fd46c836a06233681665,64dc7f575c202e4d552da82d,,,,,,,sngl,resources/Empty.png,resources/DP.BMP,Door1,0.346296296,-0.02037037,1,0,0,0.681,optionRight,30,13290,6,30,0,30,0,1,,,,,,,,,,,,,,,,,,,,,,,,,,,,,,,,,,,,,,,
,,,,,,,,2023-08-16_08h54.41.697,HF_wild_card,2022.2.4,Win32,60.97189196,643918b7df602a9f3f3f66d7,64d2fd46c836a06233681665,64dc7f575c202e4d552da82d,,,,,,,decisionTrl,resources/DY.BMP,resources/DR.BMP,Door4,-0.281481481,-0.007407407,1,0,0,1.4282,optionLeft,80,13370,6,31,0,31,0,1,,,,,,,,,,,,,,,,,,,,,,,,,,,,,,,,,,,,,,,
,,,,,,,,2023-08-16_08h54.41.697,HF_wild_card,2022.2.4,Win32,60.97189196,643918b7df602a9f3f3f66d7,64d2fd46c836a06233681665,64dc7f575c202e4d552da82d,,,,,,,sngl,resources/DY.BMP,resources/Empty.png,Door4,-0.241666667,-0.026851852,1,0,0,0.6775,optionLeft,60,13430,6,32,0,32,0,1,,,,,,,,,,,,,,,,,,,,,,,,,,,,,,,,,,,,,,,
,,,,,,,,2023-08-16_08h54.41.697,HF_wild_card,2022.2.4,Win32,60.97189196,643918b7df602a9f3f3f66d7,64d2fd46c836a06233681665,64dc7f575c202e4d552da82d,,,,,,,decisionTrl,resources/DP.BMP,resources/DR.BMP,WildCard_Ex,0.341666667,-0.027777778,1,0,0,0.7664,optionRight,5,13435,6,33,0,33,0,1,,,,,,,,,,,,,,,,,,,,,,,,,,,,,,,,,,,,,,,
,,,,,,,,2023-08-16_08h54.41.697,HF_wild_card,2022.2.4,Win32,60.97189196,643918b7df602a9f3f3f66d7,64d2fd46c836a06233681665,64dc7f575c202e4d552da82d,,,,,,,ctch,resources/DP.BMP,resources/DY.BMP,Door4,0.387037037,-0.025925926,1,0,0,1.0352,optionRight,60,13495,6,34,0,34,0,1,,,,,,,,,,,,,,,,,,,,,,,,,,,,,,,,,,,,,,,
,,,,,,,,2023-08-16_08h54.41.697,HF_wild_card,2022.2.4,Win32,60.97189196,643918b7df602a9f3f3f66d7,64d2fd46c836a06233681665,64dc7f575c202e4d552da82d,,,,,,,decisionTrl,resources/DB.BMP,resources/DR.BMP,WildCard_Ex,0.331481481,-0.008333333,1,0,0,0.8337,optionRight,5,13500,6,35,0,35,0,1,,,,,,,,,,,,,,,,,,,,,,,,,,,,,,,,,,,,,,,
,,,,,,,,2023-08-16_08h54.41.697,HF_wild_card,2022.2.4,Win32,60.97189196,643918b7df602a9f3f3f66d7,64d2fd46c836a06233681665,64dc7f575c202e4d552da82d,,,,,,,decisionTrl,resources/DG.BMP,resources/DY.BMP,Door4,0.392592593,0.044444444,1,0,0,1.071,optionRight,80,13580,6,36,0,36,0,1,,,,,,,,,,,,,,,,,,,,,,,,,,,,,,,,,,,,,,,
,,,,,,,,2023-08-16_08h54.41.697,HF_wild_card,2022.2.4,Win32,60.97189196,643918b7df602a9f3f3f66d7,64d2fd46c836a06233681665,64dc7f575c202e4d552da82d,,,,,,,sngl,resources/Empty.png,resources/DG.BMP,Door3,0.394444444,-0.064814815,1,0,0,0.761,optionRight,70,13650,6,37,0,37,0,1,,,,,,,,,,,,,,,,,,,,,,,,,,,,,,,,,,,,,,,
,,,,,,,,2023-08-16_08h54.41.697,HF_wild_card,2022.2.4,Win32,60.97189196,643918b7df602a9f3f3f66d7,64d2fd46c836a06233681665,64dc7f575c202e4d552da82d,,,,,,,decisionTrl,resources/DG.BMP,resources/DY.BMP,Door4,0.34537037,-0.058333333,1,0,0,0.9169,optionRight,80,13730,6,38,0,38,0,1,,,,,,,,,,,,,,,,,,,,,,,,,,,,,,,,,,,,,,,
,,,,,,,,2023-08-16_08h54.41.697,HF_wild_card,2022.2.4,Win32,60.97189196,643918b7df602a9f3f3f66d7,64d2fd46c836a06233681665,64dc7f575c202e4d552da82d,,,,,,,ctch,resources/DG.BMP,resources/DB.BMP,Door3,-0.274074074,-0.001851852,1,0,0,1.2855,optionLeft,70,13800,6,39,0,39,0,1,,,,,,,,,,,,,,,,,,,,,,,,,,,,,,,,,,,,,,,
,,,,,,,,2023-08-16_08h54.41.697,HF_wild_card,2022.2.4,Win32,60.97189196,643918b7df602a9f3f3f66d7,64d2fd46c836a06233681665,64dc7f575c202e4d552da82d,,,,,,,sngl,resources/DR.BMP,resources/Empty.png,WildCard_Ex,-0.312962963,-0.003703704,1,0,0,0.7993,optionLeft,95,13895,6,40,0,40,0,1,,,,,,,,,,,,,,,,,,,,,,,,,,,,,,,,,,,,,,,
,,,,,,,,2023-08-16_08h54.41.697,HF_wild_card,2022.2.4,Win32,60.97189196,643918b7df602a9f3f3f66d7,64d2fd46c836a06233681665,64dc7f575c202e4d552da82d,,,,,,,sngl,resources/DR.BMP,resources/Empty.png,WildCard_Ex,-0.399074074,-0.02962963,1,0,0,4.9665,optionLeft,5,13900,6,41,0,41,0,1,,,,,,,,,,,,,,,,,,,,,,,,,,,,,,,,,,,,,,,
,,,,,,,,2023-08-16_08h54.41.697,HF_wild_card,2022.2.4,Win32,60.97189196,643918b7df602a9f3f3f66d7,64d2fd46c836a06233681665,64dc7f575c202e4d552da82d,,,,,,,ctch,resources/DY.BMP,resources/DP.BMP,Door4,-0.34537037,0.051851852,1,0,0,1.0162,optionLeft,60,13960,6,42,0,42,0,1,,,,,,,,,,,,,,,,,,,,,,,,,,,,,,,,,,,,,,,
,,,,,,,,2023-08-16_08h54.41.697,HF_wild_card,2022.2.4,Win32,60.97189196,643918b7df602a9f3f3f66d7,64d2fd46c836a06233681665,64dc7f575c202e4d552da82d,,,,,,,decisionTrl,resources/DR.BMP,resources/DY.BMP,WildCard_Ex,-0.224074074,0.025,1,0,0,0.7825,optionLeft,95,14055,6,43,0,43,0,1,,,,,,,,,,,,,,,,,,,,,,,,,,,,,,,,,,,,,,,
,,,,,,,,2023-08-16_08h54.41.697,HF_wild_card,2022.2.4,Win32,60.97189196,643918b7df602a9f3f3f66d7,64d2fd46c836a06233681665,64dc7f575c202e4d552da82d,,,,,,,,,,,,,,,,,,,,,,,,,,5,0,5,0,1,,,,,,,,,,,,,,,,,,,,,,,,,,,,,,,,,,
,,,,,,,,2023-08-16_08h54.41.697,HF_wild_card,2022.2.4,Win32,60.97189196,643918b7df602a9f3f3f66d7,64d2fd46c836a06233681665,64dc7f575c202e4d552da82d,,,,,,,ctch,resources/DG.BMP,resources/DB.BMP,Door3,-0.562962963,-0.010185185,1,0,0,1.1268,optionLeft,70,14125,7,0,0,0,0,1,,,,,,,,,,,,,,,,,,,,,,,,,,,,,,,,,,,,,,,
,,,,,,,,2023-08-16_08h54.41.697,HF_wild_card,2022.2.4,Win32,60.97189196,643918b7df602a9f3f3f66d7,64d2fd46c836a06233681665,64dc7f575c202e4d552da82d,,,,,,,ctch,resources/DP.BMP,resources/DY.BMP,Door4,0.348148148,-0.023148148,1,0,0,1.0352,optionRight,80,14205,7,1,0,1,0,1,,,,,,,,,,,,,,,,,,,,,,,,,,,,,,,,,,,,,,,
,,,,,,,,2023-08-16_08h54.41.697,HF_wild_card,2022.2.4,Win32,60.97189196,643918b7df602a9f3f3f66d7,64d2fd46c836a06233681665,64dc7f575c202e4d552da82d,,,,,,,ctch,resources/DP.BMP,resources/DY.BMP,Door4,0.264814815,-0.012962963,1,0,0,0.9821,optionRight,60,14265,7,2,0,2,0,1,,,,,,,,,,,,,,,,,,,,,,,,,,,,,,,,,,,,,,,
,,,,,,,,2023-08-16_08h54.41.697,HF_wild_card,2022.2.4,Win32,60.97189196,643918b7df602a9f3f3f66d7,64d2fd46c836a06233681665,64dc7f575c202e4d552da82d,,,,,,,decisionTrl,resources/DB.BMP,resources/DP.BMP,Door1,0.435185185,-0.016666667,1,0,0,1.6015,optionRight,30,14295,7,3,0,3,0,1,,,,,,,,,,,,,,,,,,,,,,,,,,,,,,,,,,,,,,,
,,,,,,,,2023-08-16_08h54.41.697,HF_wild_card,2022.2.4,Win32,60.97189196,643918b7df602a9f3f3f66d7,64d2fd46c836a06233681665,64dc7f575c202e4d552da82d,,,,,,,ctch,resources/DB.BMP,resources/DG.BMP,Door3,0.448148148,-0.012962963,1,0,0,1.0649,optionRight,70,14365,7,4,0,4,0,1,,,,,,,,,,,,,,,,,,,,,,,,,,,,,,,,,,,,,,,
,,,,,,,,2023-08-16_08h54.41.697,HF_wild_card,2022.2.4,Win32,60.97189196,643918b7df602a9f3f3f66d7,64d2fd46c836a06233681665,64dc7f575c202e4d552da82d,,,,,,,decisionTrl,resources/DG.BMP,resources/DY.BMP,Door4,0.39537037,-0.012962963,1,0,0,0.8509,optionRight,60,14425,7,5,0,5,0,1,,,,,,,,,,,,,,,,,,,,,,,,,,,,,,,,,,,,,,,
,,,,,,,,2023-08-16_08h54.41.697,HF_wild_card,2022.2.4,Win32,60.97189196,643918b7df602a9f3f3f66d7,64d2fd46c836a06233681665,64dc7f575c202e4d552da82d,,,,,,,ctch,resources/DB.BMP,resources/DG.BMP,Door3,0.346296296,0.005555556,1,0,0,0.8665,optionRight,70,14495,7,6,0,6,0,1,,,,,,,,,,,,,,,,,,,,,,,,,,,,,,,,,,,,,,,
,,,,,,,,2023-08-16_08h54.41.697,HF_wild_card,2022.2.4,Win32,60.97189196,643918b7df602a9f3f3f66d7,64d2fd46c836a06233681665,64dc7f575c202e4d552da82d,,,,,,,decisionTrl,resources/DB.BMP,resources/DP.BMP,Door1,0.449074074,-0.005555556,1,0,0,1.3836,optionRight,30,14525,7,7,0,7,0,1,,,,,,,,,,,,,,,,,,,,,,,,,,,,,,,,,,,,,,,
,,,,,,,,2023-08-16_08h54.41.697,HF_wild_card,2022.2.4,Win32,60.97189196,643918b7df602a9f3f3f66d7,64d2fd46c836a06233681665,64dc7f575c202e4d552da82d,,,,,,,decisionTrl,resources/DY.BMP,resources/DG.BMP,Door4,-0.340740741,-0.011111111,1,0,0,0.8139,optionLeft,60,14585,7,8,0,8,0,1,,,,,,,,,,,,,,,,,,,,,,,,,,,,,,,,,,,,,,,
,,,,,,,,2023-08-16_08h54.41.697,HF_wild_card,2022.2.4,Win32,60.97189196,643918b7df602a9f3f3f66d7,64d2fd46c836a06233681665,64dc7f575c202e4d552da82d,,,,,,,ctch,resources/DG.BMP,resources/DB.BMP,Door3,-0.314814815,0.005555556,1,0,0,0.948,optionLeft,70,14655,7,9,0,9,0,1,,,,,,,,,,,,,,,,,,,,,,,,,,,,,,,,,,,,,,,
,,,,,,,,2023-08-16_08h54.41.697,HF_wild_card,2022.2.4,Win32,60.97189196,643918b7df602a9f3f3f66d7,64d2fd46c836a06233681665,64dc7f575c202e4d552da82d,,,,,,,decisionTrl,resources/DP.BMP,resources/DB.BMP,Door1,-0.334259259,0.003703704,1,0,0,1.4306,optionLeft,30,14685,7,10,0,10,0,1,,,,,,,,,,,,,,,,,,,,,,,,,,,,,,,,,,,,,,,
,,,,,,,,2023-08-16_08h54.41.697,HF_wild_card,2022.2.4,Win32,60.97189196,643918b7df602a9f3f3f66d7,64d2fd46c836a06233681665,64dc7f575c202e4d552da82d,,,,,,,decisionTrl,resources/DB.BMP,resources/DP.BMP,Door1,0.27962963,-0.021296296,1,0,0,0.8176,optionRight,30,14715,7,11,0,11,0,1,,,,,,,,,,,,,,,,,,,,,,,,,,,,,,,,,,,,,,,
,,,,,,,,2023-08-16_08h54.41.697,HF_wild_card,2022.2.4,Win32,60.97189196,643918b7df602a9f3f3f66d7,64d2fd46c836a06233681665,64dc7f575c202e4d552da82d,,,,,,,decisionTrl,resources/DY.BMP,resources/DG.BMP,Door4,-0.302777778,-0.007407407,1,0,0,1.2803,optionLeft,80,14795,7,12,0,12,0,1,,,,,,,,,,,,,,,,,,,,,,,,,,,,,,,,,,,,,,,
,,,,,,,,2023-08-16_08h54.41.697,HF_wild_card,2022.2.4,Win32,60.97189196,643918b7df602a9f3f3f66d7,64d2fd46c836a06233681665,64dc7f575c202e4d552da82d,,,,,,,decisionTrl,resources/DB.BMP,resources/DP.BMP,Door1,0.411111111,-0.055555556,1,0,0,1.136,optionRight,30,14825,7,13,0,13,0,1,,,,,,,,,,,,,,,,,,,,,,,,,,,,,,,,,,,,,,,
,,,,,,,,2023-08-16_08h54.41.697,HF_wild_card,2022.2.4,Win32,60.97189196,643918b7df602a9f3f3f66d7,64d2fd46c836a06233681665,64dc7f575c202e4d552da82d,,,,,,,decisionTrl,resources/DP.BMP,resources/DB.BMP,Door1,-0.37962963,0,1,0,0,1.5158,optionLeft,30,14855,7,14,0,14,0,1,,,,,,,,,,,,,,,,,,,,,,,,,,,,,,,,,,,,,,,
,,,,,,,,2023-08-16_08h54.41.697,HF_wild_card,2022.2.4,Win32,60.97189196,643918b7df602a9f3f3f66d7,64d2fd46c836a06233681665,64dc7f575c202e4d552da82d,,,,,,,decisionTrl,resources/DP.BMP,resources/DB.BMP,Door1,-0.477777778,-0.001851852,1,0,0,0.815,optionLeft,30,14885,7,15,0,15,0,1,,,,,,,,,,,,,,,,,,,,,,,,,,,,,,,,,,,,,,,
,,,,,,,,2023-08-16_08h54.41.697,HF_wild_card,2022.2.4,Win32,60.97189196,643918b7df602a9f3f3f66d7,64d2fd46c836a06233681665,64dc7f575c202e4d552da82d,,,,,,,decisionTrl,resources/DY.BMP,resources/DG.BMP,Door4,-0.421296296,-0.030555556,1,0,0,0.865,optionLeft,60,14945,7,16,0,16,0,1,,,,,,,,,,,,,,,,,,,,,,,,,,,,,,,,,,,,,,,
,,,,,,,,2023-08-16_08h54.41.697,HF_wild_card,2022.2.4,Win32,60.97189196,643918b7df602a9f3f3f66d7,64d2fd46c836a06233681665,64dc7f575c202e4d552da82d,,,,,,,decisionTrl,resources/DB.BMP,resources/DP.BMP,Door1,0.362962963,-0.056481481,1,0,0,0.8685,optionRight,30,14975,7,17,0,17,0,1,,,,,,,,,,,,,,,,,,,,,,,,,,,,,,,,,,,,,,,
,,,,,,,,2023-08-16_08h54.41.697,HF_wild_card,2022.2.4,Win32,60.97189196,643918b7df602a9f3f3f66d7,64d2fd46c836a06233681665,64dc7f575c202e4d552da82d,,,,,,,decisionTrl,resources/DG.BMP,resources/DY.BMP,Door4,0.367592593,-0.003703704,1,0,0,1.0693,optionRight,80,15055,7,18,0,18,0,1,,,,,,,,,,,,,,,,,,,,,,,,,,,,,,,,,,,,,,,
,,,,,,,,2023-08-16_08h54.41.697,HF_wild_card,2022.2.4,Win32,60.97189196,643918b7df602a9f3f3f66d7,64d2fd46c836a06233681665,64dc7f575c202e4d552da82d,,,,,,,ctch,resources/DG.BMP,resources/DB.BMP,Door3,-0.418518519,0.011111111,1,0,0,0.8493,optionLeft,70,15125,7,19,0,19,0,1,,,,,,,,,,,,,,,,,,,,,,,,,,,,,,,,,,,,,,,
,,,,,,,,2023-08-16_08h54.41.697,HF_wild_card,2022.2.4,Win32,60.97189196,643918b7df602a9f3f3f66d7,64d2fd46c836a06233681665,64dc7f575c202e4d552da82d,,,,,,,ctch,resources/DY.BMP,resources/DP.BMP,Door4,-0.312962963,0,1,0,0,0.9013,optionLeft,60,15185,7,20,0,20,0,1,,,,,,,,,,,,,,,,,,,,,,,,,,,,,,,,,,,,,,,
,,,,,,,,2023-08-16_08h54.41.697,HF_wild_card,2022.2.4,Win32,60.97189196,643918b7df602a9f3f3f66d7,64d2fd46c836a06233681665,64dc7f575c202e4d552da82d,,,,,,,decisionTrl,resources/DB.BMP,resources/DP.BMP,Door1,0.403703704,-0.023148148,1,0,0,1.7367,optionRight,30,15215,7,21,0,21,0,1,,,,,,,,,,,,,,,,,,,,,,,,,,,,,,,,,,,,,,,
,,,,,,,,2023-08-16_08h54.41.697,HF_wild_card,2022.2.4,Win32,60.97189196,643918b7df602a9f3f3f66d7,64d2fd46c836a06233681665,64dc7f575c202e4d552da82d,,,,,,,ctch,resources/DY.BMP,resources/DP.BMP,Door4,-0.375925926,0.006481481,1,0,0,0.6972,optionLeft,60,15275,7,22,0,22,0,1,,,,,,,,,,,,,,,,,,,,,,,,,,,,,,,,,,,,,,,
,,,,,,,,2023-08-16_08h54.41.697,HF_wild_card,2022.2.4,Win32,60.97189196,643918b7df602a9f3f3f66d7,64d2fd46c836a06233681665,64dc7f575c202e4d552da82d,,,,,,,decisionTrl,resources/DG.BMP,resources/DY.BMP,Door4,0.422222222,0.001851852,1,0,0,1.2819,optionRight,60,15335,7,23,0,23,0,1,,,,,,,,,,,,,,,,,,,,,,,,,,,,,,,,,,,,,,,
,,,,,,,,2023-08-16_08h54.41.697,HF_wild_card,2022.2.4,Win32,60.97189196,643918b7df602a9f3f3f66d7,64d2fd46c836a06233681665,64dc7f575c202e4d552da82d,,,,,,,decisionTrl,resources/DY.BMP,resources/DG.BMP,Door4,-0.326851852,0.012037037,1,0,0,2.9486,optionLeft,60,15395,7,24,0,24,0,1,,,,,,,,,,,,,,,,,,,,,,,,,,,,,,,,,,,,,,,
,,,,,,,,2023-08-16_08h54.41.697,HF_wild_card,2022.2.4,Win32,60.97189196,643918b7df602a9f3f3f66d7,64d2fd46c836a06233681665,64dc7f575c202e4d552da82d,,,,,,,ctch,resources/DY.BMP,resources/DP.BMP,Door4,-0.337037037,0.019444444,1,0,0,0.6823,optionLeft,80,15475,7,25,0,25,0,1,,,,,,,,,,,,,,,,,,,,,,,,,,,,,,,,,,,,,,,
,,,,,,,,2023-08-16_08h54.41.697,HF_wild_card,2022.2.4,Win32,60.97189196,643918b7df602a9f3f3f66d7,64d2fd46c836a06233681665,64dc7f575c202e4d552da82d,,,,,,,decisionTrl,resources/DY.BMP,resources/DG.BMP,Door4,-0.312037037,-0.006481481,1,0,0,0.5349,optionLeft,80,15555,7,26,0,26,0,1,,,,,,,,,,,,,,,,,,,,,,,,,,,,,,,,,,,,,,,
,,,,,,,,2023-08-16_08h54.41.697,HF_wild_card,2022.2.4,Win32,60.97189196,643918b7df602a9f3f3f66d7,64d2fd46c836a06233681665,64dc7f575c202e4d552da82d,,,,,,,decisionTrl,resources/DP.BMP,resources/DB.BMP,Door1,-0.351851852,0.001851852,1,0,0,0.8968,optionLeft,30,15585,7,27,0,27,0,1,,,,,,,,,,,,,,,,,,,,,,,,,,,,,,,,,,,,,,,
,,,,,,,,2023-08-16_08h54.41.697,HF_wild_card,2022.2.4,Win32,60.97189196,643918b7df602a9f3f3f66d7,64d2fd46c836a06233681665,64dc7f575c202e4d552da82d,,,,,,,ctch,resources/DB.BMP,resources/DG.BMP,Door3,0.478703704,-0.039814815,1,0,0,1.1173,optionRight,70,15655,7,28,0,28,0,1,,,,,,,,,,,,,,,,,,,,,,,,,,,,,,,,,,,,,,,
,,,,,,,,2023-08-16_08h54.41.697,HF_wild_card,2022.2.4,Win32,60.97189196,643918b7df602a9f3f3f66d7,64d2fd46c836a06233681665,64dc7f575c202e4d552da82d,,,,,,,ctch,resources/DP.BMP,resources/DY.BMP,Door4,0.398148148,-0.028703704,1,0,0,0.8992,optionRight,60,15715,7,29,0,29,0,1,,,,,,,,,,,,,,,,,,,,,,,,,,,,,,,,,,,,,,,
,,,,,,,,2023-08-16_08h54.41.697,HF_wild_card,2022.2.4,Win32,60.97189196,643918b7df602a9f3f3f66d7,64d2fd46c836a06233681665,64dc7f575c202e4d552da82d,,,,,,,decisionTrl,resources/DP.BMP,resources/DB.BMP,Door1,-0.4,0.017592593,1,0,0,1.1674,optionLeft,30,15745,7,30,0,30,0,1,,,,,,,,,,,,,,,,,,,,,,,,,,,,,,,,,,,,,,,
,,,,,,,,2023-08-16_08h54.41.697,HF_wild_card,2022.2.4,Win32,60.97189196,643918b7df602a9f3f3f66d7,64d2fd46c836a06233681665,64dc7f575c202e4d552da82d,,,,,,,decisionTrl,resources/DG.BMP,resources/DY.BMP,Door3,-0.348148148,0.025,1,0,0,0.8856,optionLeft,70,15815,7,31,0,31,0,1,,,,,,,,,,,,,,,,,,,,,,,,,,,,,,,,,,,,,,,
,,,,,,,,2023-08-16_08h54.41.697,HF_wild_card,2022.2.4,Win32,60.97189196,643918b7df602a9f3f3f66d7,64d2fd46c836a06233681665,64dc7f575c202e4d552da82d,,,,,,,decisionTrl,resources/DG.BMP,resources/DY.BMP,Door4,0.339814815,-0.018518519,1,0,0,1.5523,optionRight,60,15875,7,32,0,32,0,1,,,,,,,,,,,,,,,,,,,,,,,,,,,,,,,,,,,,,,,
,,,,,,,,2023-08-16_08h54.41.697,HF_wild_card,2022.2.4,Win32,60.97189196,643918b7df602a9f3f3f66d7,64d2fd46c836a06233681665,64dc7f575c202e4d552da82d,,,,,,,decisionTrl,resources/DP.BMP,resources/DB.BMP,Door1,-0.360185185,-0.001851852,1,0,0,1.0304,optionLeft,30,15905,7,33,0,33,0,1,,,,,,,,,,,,,,,,,,,,,,,,,,,,,,,,,,,,,,,
,,,,,,,,2023-08-16_08h54.41.697,HF_wild_card,2022.2.4,Win32,60.97189196,643918b7df602a9f3f3f66d7,64d2fd46c836a06233681665,64dc7f575c202e4d552da82d,,,,,,,decisionTrl,resources/DY.BMP,resources/DG.BMP,Door4,-0.283333333,0.006481481,1,0,0,1.0831,optionLeft,80,15985,7,34,0,34,0,1,,,,,,,,,,,,,,,,,,,,,,,,,,,,,,,,,,,,,,,
,,,,,,,,2023-08-16_08h54.41.697,HF_wild_card,2022.2.4,Win32,60.97189196,643918b7df602a9f3f3f66d7,64d2fd46c836a06233681665,64dc7f575c202e4d552da82d,,,,,,,decisionTrl,resources/DG.BMP,resources/DY.BMP,Door4,0.408333333,-0.04537037,1,0,0,0.8195,optionRight,80,16065,7,35,0,35,0,1,,,,,,,,,,,,,,,,,,,,,,,,,,,,,,,,,,,,,,,
,,,,,,,,2023-08-16_08h54.41.697,HF_wild_card,2022.2.4,Win32,60.97189196,643918b7df602a9f3f3f66d7,64d2fd46c836a06233681665,64dc7f575c202e4d552da82d,,,,,,,,,,,,,,,,,,,,,,,,,,6,0,6,0,1,,,,,,,,,,,,,,,,,,,,,,,,,,,,,,,,,,
,,,,,,,,2023-08-16_08h54.41.697,HF_wild_card,2022.2.4,Win32,60.97189196,643918b7df602a9f3f3f66d7,64d2fd46c836a06233681665,64dc7f575c202e4d552da82d,,,,,,,,,,,,,,,,,,,,,,,,,,,,,,,4,,,,,,,,,,,,,,,,,,,,,,,,,,,,,,,,,
,,,,,,,,2023-08-16_08h54.41.697,HF_wild_card,2022.2.4,Win32,60.97189196,643918b7df602a9f3f3f66d7,64d2fd46c836a06233681665,64dc7f575c202e4d552da82d,,,,,,,,,,,,,,,,,,,,,,,,,,,,,,,,,,,,,,,,,,,,,,,,,,,,,,,,,,,,,,,,
,,,,,,,,2023-08-16_08h54.41.697,HF_wild_card,2022.2.4,Win32,60.97189196,643918b7df602a9f3f3f66d7,64d2fd46c836a06233681665,64dc7f575c202e4d552da82d,,,,,,,,,,,,,,,,,,,,,,,,,,,,,,,,30,Door1,resources/DP.BMP,0,0,0,0,1,,,,,,,,,,,,,,,,,,,,,,,,,
,,,,,,,,2023-08-16_08h54.41.697,HF_wild_card,2022.2.4,Win32,60.97189196,643918b7df602a9f3f3f66d7,64d2fd46c836a06233681665,64dc7f575c202e4d552da82d,,,,,,,,,,,,,,,,,,,,,,,,,,,,,,,,40,WC_nonExtreme,resources/DBN.BMP,1,0,1,0,1,,,,,,,,,,,,,,,,,,,,,,,,,
,,,,,,,,2023-08-16_08h54.41.697,HF_wild_card,2022.2.4,Win32,60.97189196,643918b7df602a9f3f3f66d7,64d2fd46c836a06233681665,64dc7f575c202e4d552da82d,,,,,,,,,,,,,,,,,,,,,,,,,,,,,,,,60,Door3,resources/DG.BMP,2,0,2,0,1,,,,,,,,,,,,,,,,,,,,,,,,,
,,,,,,,,2023-08-16_08h54.41.697,HF_wild_card,2022.2.4,Win32,60.97189196,643918b7df602a9f3f3f66d7,64d2fd46c836a06233681665,64dc7f575c202e4d552da82d,,,,,,,,,,,,,,,,,,,,,,,,,,,,,,,,20,Door2,resources/DB.BMP,3,0,3,0,1,,,,,,,,,,,,,,,,,,,,,,,,,
,,,,,,,,2023-08-16_08h54.41.697,HF_wild_card,2022.2.4,Win32,60.97189196,643918b7df602a9f3f3f66d7,64d2fd46c836a06233681665,64dc7f575c202e4d552da82d,,,,,,,,,,,,,,,,,,,,,,,,,,,,,,,,95,WC_extreme,resources/DR.BMP,4,0,4,0,1,,,,,,,,,,,,,,,,,,,,,,,,,
,,,,,,,,2023-08-16_08h54.41.697,HF_wild_card,2022.2.4,Win32,60.97189196,643918b7df602a9f3f3f66d7,64d2fd46c836a06233681665,64dc7f575c202e4d552da82d,,,,,,,,,,,,,,,,,,,,,,,,,,,,,,,,85,Door4,resources/DY.BMP,5,0,5,0,1,,,,,,,,,,,,,,,,,,,,,,,,,
,,,,,,,,2023-08-16_08h54.41.697,HF_wild_card,2022.2.4,Win32,60.97189196,643918b7df602a9f3f3f66d7,64d2fd46c836a06233681665,64dc7f575c202e4d552da82d,,,,,,,,,,,,,,,,,,,,,,,,,,,,,,,,,,,,,,,,,,,,,,,,,,,,,,,,,,,,,,,,
,,,,,,,,2023-08-16_08h54.41.697,HF_wild_card,2022.2.4,Win32,60.97189196,643918b7df602a9f3f3f66d7,64d2fd46c836a06233681665,64dc7f575c202e4d552da82d,,,,,,,,,,,,,,,,,,,,,,,,,,,,,,,,,,,,,,,,0,0,0,0,1,,,,,,,,,,,,,,,,,,,,
