Condition,Low fixed image (Door1),Low risky image (Door2),High fixed image (Door3),High risky image (Door4),NonExtreme Wild Card 1,NonExtreme Wild Card 2,,date,expName,psychopyVersion,OS,frameRate,PROLIFIC_PID,STUDY_ID,SESSION_ID,mouse_2.x,mouse_2.y,mouse_2.leftButton,mouse_2.midButton,mouse_2.rightButton,mouse_2.clicked_name,Trial Type,Left Option Image,Right Option Image,Chosen Door,mouse.x,mouse.y,mouse.leftButton,mouse.midButton,mouse.rightButton,mouse.time,mouse.clicked_name,Feedback,Cumulative Reward,Block,trial.thisRepN,trial.thisTrialN,trial.thisN,trial.thisIndex,trial.ran,blocks.thisRepN,blocks.thisTrialN,blocks.thisN,blocks.thisIndex,blocks.ran,Money conversion,First Outcome Reported,Shown Door (First Outcome),Displayed Image (First Outcome),outcomes.thisRepN,outcomes.thisTrialN,outcomes.thisN,outcomes.thisIndex,outcomes.ran,judgments.thisRepN,judgments.thisTrialN,judgments.thisN,judgments.thisIndex,judgments.ran,freqMouse.x,freqMouse.y,freqMouse.leftButton,freqMouse.midButton,freqMouse.rightButton,freqMouse.clicked_name,FQJ for first outcome,FQJ for second outcome,Shown Door,Displayed Image,trials.thisRepN,trials.thisTrialN,trials.thisN,trials.thisIndex,trials.ran,judgBlock.thisRepN,judgBlock.thisTrialN,judgBlock.thisN,judgBlock.thisIndex,judgBlock.ran
2,resources/DBN.BMP,resources/DP.BMP,resources/DY.BMP,resources/DG.BMP,resources/DR.BMP,resources/DB.BMP,,2023-08-06_08h45.24.954,HF_wild_card,2022.2.4,Win32,59.95203837,6160c8f657e3c4094b01614a,64ce5acb97489d65b14ecc7a,64cf4f7840d19caf54abe74e,,,,,,,,,,,,,,,,,,,,,,,,,,,,,,,,,,,,,,,,,,,,,,,,,,,,,,,,,,,,,,,,
,,,,,,,,2023-08-06_08h45.24.954,HF_wild_card,2022.2.4,Win32,59.95203837,6160c8f657e3c4094b01614a,64ce5acb97489d65b14ecc7a,64cf4f7840d19caf54abe74e,-0.013888889,-0.417592593,1,0,0,agree,,,,,,,,,,,,,,,,,,,,,,,,,,,,,,,,,,,,,,,,,,,,,,,,,,,,,,,,,,
,,,,,,,,2023-08-06_08h45.24.954,HF_wild_card,2022.2.4,Win32,59.95203837,6160c8f657e3c4094b01614a,64ce5acb97489d65b14ecc7a,64cf4f7840d19caf54abe74e,,,,,,,,,,,,,,,,,,,,,,,,,,,,,,,,,,,,,,,,,,,,,,,,,,,,,,,,,,,,,,,,
,,,,,,,,2023-08-06_08h45.24.954,HF_wild_card,2022.2.4,Win32,59.95203837,6160c8f657e3c4094b01614a,64ce5acb97489d65b14ecc7a,64cf4f7840d19caf54abe74e,,,,,,,decisionTrl,resources/DY.BMP,resources/DG.BMP,Door4,0.289814815,0.026851852,1,0,0,1.656,optionRight,60,60,1,0,0,0,0,1,,,,,,,,,,,,,,,,,,,,,,,,,,,,,,,,,,,,,,,
,,,,,,,,2023-08-06_08h45.24.954,HF_wild_card,2022.2.4,Win32,59.95203837,6160c8f657e3c4094b01614a,64ce5acb97489d65b14ecc7a,64cf4f7840d19caf54abe74e,,,,,,,sngl,resources/Empty.png,resources/DB.BMP,WildCard_NonEx,0.333333333,0.009259259,1,0,0,1.044,optionRight,45,105,1,1,0,1,0,1,,,,,,,,,,,,,,,,,,,,,,,,,,,,,,,,,,,,,,,
,,,,,,,,2023-08-06_08h45.24.954,HF_wild_card,2022.2.4,Win32,59.95203837,6160c8f657e3c4094b01614a,64ce5acb97489d65b14ecc7a,64cf4f7840d19caf54abe74e,,,,,,,sngl,resources/DY.BMP,resources/Empty.png,Door3,-0.535185185,0,1,0,0,0.595,optionLeft,70,175,1,2,0,2,0,1,,,,,,,,,,,,,,,,,,,,,,,,,,,,,,,,,,,,,,,
,,,,,,,,2023-08-06_08h45.24.954,HF_wild_card,2022.2.4,Win32,59.95203837,6160c8f657e3c4094b01614a,64ce5acb97489d65b14ecc7a,64cf4f7840d19caf54abe74e,,,,,,,decisionTrl,resources/DBN.BMP,resources/DP.BMP,Door1,-0.315740741,-0.014814815,1,0,0,1.263,optionLeft,30,205,1,3,0,3,0,1,,,,,,,,,,,,,,,,,,,,,,,,,,,,,,,,,,,,,,,
,,,,,,,,2023-08-06_08h45.24.954,HF_wild_card,2022.2.4,Win32,59.95203837,6160c8f657e3c4094b01614a,64ce5acb97489d65b14ecc7a,64cf4f7840d19caf54abe74e,,,,,,,sngl,resources/Empty.png,resources/DY.BMP,Door3,0.273148148,0,1,0,0,0.705,optionRight,70,275,1,4,0,4,0,1,,,,,,,,,,,,,,,,,,,,,,,,,,,,,,,,,,,,,,,
,,,,,,,,2023-08-06_08h45.24.954,HF_wild_card,2022.2.4,Win32,59.95203837,6160c8f657e3c4094b01614a,64ce5acb97489d65b14ecc7a,64cf4f7840d19caf54abe74e,,,,,,,ctch,resources/DBN.BMP,resources/DG.BMP,Door4,0.289814815,0,1,0,0,1.029,optionRight,60,335,1,5,0,5,0,1,,,,,,,,,,,,,,,,,,,,,,,,,,,,,,,,,,,,,,,
,,,,,,,,2023-08-06_08h45.24.954,HF_wild_card,2022.2.4,Win32,59.95203837,6160c8f657e3c4094b01614a,64ce5acb97489d65b14ecc7a,64cf4f7840d19caf54abe74e,,,,,,,sngl,resources/Empty.png,resources/DG.BMP,Door4,0.396296296,0.044444444,1,0,0,0.646,optionRight,60,395,1,6,0,6,0,1,,,,,,,,,,,,,,,,,,,,,,,,,,,,,,,,,,,,,,,
,,,,,,,,2023-08-06_08h45.24.954,HF_wild_card,2022.2.4,Win32,59.95203837,6160c8f657e3c4094b01614a,64ce5acb97489d65b14ecc7a,64cf4f7840d19caf54abe74e,,,,,,,sngl,resources/DP.BMP,resources/Empty.png,Door2,-0.421296296,0.028703704,1,0,0,0.747,optionLeft,40,435,1,7,0,7,0,1,,,,,,,,,,,,,,,,,,,,,,,,,,,,,,,,,,,,,,,
,,,,,,,,2023-08-06_08h45.24.954,HF_wild_card,2022.2.4,Win32,59.95203837,6160c8f657e3c4094b01614a,64ce5acb97489d65b14ecc7a,64cf4f7840d19caf54abe74e,,,,,,,ctch,resources/DP.BMP,resources/DY.BMP,Door3,0.255555556,0.009259259,1,0,0,0.627,optionRight,70,505,1,8,0,8,0,1,,,,,,,,,,,,,,,,,,,,,,,,,,,,,,,,,,,,,,,
,,,,,,,,2023-08-06_08h45.24.954,HF_wild_card,2022.2.4,Win32,59.95203837,6160c8f657e3c4094b01614a,64ce5acb97489d65b14ecc7a,64cf4f7840d19caf54abe74e,,,,,,,decisionTrl,resources/DY.BMP,resources/DB.BMP,Door3,-0.393518519,0.016666667,1,0,0,0.661,optionLeft,70,575,1,9,0,9,0,1,,,,,,,,,,,,,,,,,,,,,,,,,,,,,,,,,,,,,,,
,,,,,,,,2023-08-06_08h45.24.954,HF_wild_card,2022.2.4,Win32,59.95203837,6160c8f657e3c4094b01614a,64ce5acb97489d65b14ecc7a,64cf4f7840d19caf54abe74e,,,,,,,decisionTrl,resources/DP.BMP,resources/DBN.BMP,Door2,-0.281481481,0.006481481,1,0,0,1.462,optionLeft,20,595,1,10,0,10,0,1,,,,,,,,,,,,,,,,,,,,,,,,,,,,,,,,,,,,,,,
,,,,,,,,2023-08-06_08h45.24.954,HF_wild_card,2022.2.4,Win32,59.95203837,6160c8f657e3c4094b01614a,64ce5acb97489d65b14ecc7a,64cf4f7840d19caf54abe74e,,,,,,,sngl,resources/DB.BMP,resources/Empty.png,WildCard_NonEx,-0.494444444,0.05462963,1,0,0,0.576,optionLeft,55,650,1,11,0,11,0,1,,,,,,,,,,,,,,,,,,,,,,,,,,,,,,,,,,,,,,,
,,,,,,,,2023-08-06_08h45.24.954,HF_wild_card,2022.2.4,Win32,59.95203837,6160c8f657e3c4094b01614a,64ce5acb97489d65b14ecc7a,64cf4f7840d19caf54abe74e,,,,,,,decisionTrl,resources/DG.BMP,resources/DY.BMP,Door3,0.235185185,0.00462963,1,0,0,0.979,optionRight,70,720,1,12,0,12,0,1,,,,,,,,,,,,,,,,,,,,,,,,,,,,,,,,,,,,,,,
,,,,,,,,2023-08-06_08h45.24.954,HF_wild_card,2022.2.4,Win32,59.95203837,6160c8f657e3c4094b01614a,64ce5acb97489d65b14ecc7a,64cf4f7840d19caf54abe74e,,,,,,,decisionTrl,resources/DBN.BMP,resources/DP.BMP,Door1,-0.283333333,0.033333333,1,0,0,1.48,optionLeft,30,750,1,13,0,13,0,1,,,,,,,,,,,,,,,,,,,,,,,,,,,,,,,,,,,,,,,
,,,,,,,,2023-08-06_08h45.24.954,HF_wild_card,2022.2.4,Win32,59.95203837,6160c8f657e3c4094b01614a,64ce5acb97489d65b14ecc7a,64cf4f7840d19caf54abe74e,,,,,,,ctch,resources/DG.BMP,resources/DBN.BMP,Door4,-0.233333333,0.037962963,1,0,0,1.179,optionLeft,60,810,1,14,0,14,0,1,,,,,,,,,,,,,,,,,,,,,,,,,,,,,,,,,,,,,,,
,,,,,,,,2023-08-06_08h45.24.954,HF_wild_card,2022.2.4,Win32,59.95203837,6160c8f657e3c4094b01614a,64ce5acb97489d65b14ecc7a,64cf4f7840d19caf54abe74e,,,,,,,sngl,resources/DB.BMP,resources/Empty.png,WildCard_NonEx,-0.198148148,0.026851852,1,0,0,0.612,optionLeft,45,855,1,15,0,15,0,1,,,,,,,,,,,,,,,,,,,,,,,,,,,,,,,,,,,,,,,
,,,,,,,,2023-08-06_08h45.24.954,HF_wild_card,2022.2.4,Win32,59.95203837,6160c8f657e3c4094b01614a,64ce5acb97489d65b14ecc7a,64cf4f7840d19caf54abe74e,,,,,,,decisionTrl,resources/DBN.BMP,resources/DB.BMP,WildCard_NonEx,0.112962963,0.016666667,1,0,0,1.163,optionRight,55,910,1,16,0,16,0,1,,,,,,,,,,,,,,,,,,,,,,,,,,,,,,,,,,,,,,,
,,,,,,,,2023-08-06_08h45.24.954,HF_wild_card,2022.2.4,Win32,59.95203837,6160c8f657e3c4094b01614a,64ce5acb97489d65b14ecc7a,64cf4f7840d19caf54abe74e,,,,,,,decisionTrl,resources/DY.BMP,resources/DG.BMP,Door3,-0.260185185,0.033333333,1,0,0,0.747,optionLeft,70,980,1,17,0,17,0,1,,,,,,,,,,,,,,,,,,,,,,,,,,,,,,,,,,,,,,,
,,,,,,,,2023-08-06_08h45.24.954,HF_wild_card,2022.2.4,Win32,59.95203837,6160c8f657e3c4094b01614a,64ce5acb97489d65b14ecc7a,64cf4f7840d19caf54abe74e,,,,,,,sngl,resources/Empty.png,resources/DB.BMP,WildCard_NonEx,0.269444444,0.00462963,1,0,0,0.596,optionRight,55,1035,1,18,0,18,0,1,,,,,,,,,,,,,,,,,,,,,,,,,,,,,,,,,,,,,,,
,,,,,,,,2023-08-06_08h45.24.954,HF_wild_card,2022.2.4,Win32,59.95203837,6160c8f657e3c4094b01614a,64ce5acb97489d65b14ecc7a,64cf4f7840d19caf54abe74e,,,,,,,decisionTrl,resources/DP.BMP,resources/DBN.BMP,Door1,0.396296296,0.050925926,1,0,0,2.03,optionRight,30,1065,1,19,0,19,0,1,,,,,,,,,,,,,,,,,,,,,,,,,,,,,,,,,,,,,,,
,,,,,,,,2023-08-06_08h45.24.954,HF_wild_card,2022.2.4,Win32,59.95203837,6160c8f657e3c4094b01614a,64ce5acb97489d65b14ecc7a,64cf4f7840d19caf54abe74e,,,,,,,decisionTrl,resources/DG.BMP,resources/DY.BMP,Door3,0.451851852,-0.007407407,1,0,0,0.694,optionRight,70,1135,1,20,0,20,0,1,,,,,,,,,,,,,,,,,,,,,,,,,,,,,,,,,,,,,,,
,,,,,,,,2023-08-06_08h45.24.954,HF_wild_card,2022.2.4,Win32,59.95203837,6160c8f657e3c4094b01614a,64ce5acb97489d65b14ecc7a,64cf4f7840d19caf54abe74e,,,,,,,sngl,resources/Empty.png,resources/DBN.BMP,Door1,0.322222222,0.018518519,1,0,0,0.61,optionRight,30,1165,1,21,0,21,0,1,,,,,,,,,,,,,,,,,,,,,,,,,,,,,,,,,,,,,,,
,,,,,,,,2023-08-06_08h45.24.954,HF_wild_card,2022.2.4,Win32,59.95203837,6160c8f657e3c4094b01614a,64ce5acb97489d65b14ecc7a,64cf4f7840d19caf54abe74e,,,,,,,decisionTrl,resources/DY.BMP,resources/DG.BMP,Door3,-0.178703704,0.033333333,1,0,0,0.778,optionLeft,70,1235,1,22,0,22,0,1,,,,,,,,,,,,,,,,,,,,,,,,,,,,,,,,,,,,,,,
,,,,,,,,2023-08-06_08h45.24.954,HF_wild_card,2022.2.4,Win32,59.95203837,6160c8f657e3c4094b01614a,64ce5acb97489d65b14ecc7a,64cf4f7840d19caf54abe74e,,,,,,,decisionTrl,resources/DG.BMP,resources/DY.BMP,Door3,0.215740741,0.011111111,1,0,0,0.545,optionRight,70,1305,1,23,0,23,0,1,,,,,,,,,,,,,,,,,,,,,,,,,,,,,,,,,,,,,,,
,,,,,,,,2023-08-06_08h45.24.954,HF_wild_card,2022.2.4,Win32,59.95203837,6160c8f657e3c4094b01614a,64ce5acb97489d65b14ecc7a,64cf4f7840d19caf54abe74e,,,,,,,decisionTrl,resources/DG.BMP,resources/DB.BMP,Door4,-0.403703704,0.067592593,1,0,0,0.562,optionLeft,80,1385,1,24,0,24,0,1,,,,,,,,,,,,,,,,,,,,,,,,,,,,,,,,,,,,,,,
,,,,,,,,2023-08-06_08h45.24.954,HF_wild_card,2022.2.4,Win32,59.95203837,6160c8f657e3c4094b01614a,64ce5acb97489d65b14ecc7a,64cf4f7840d19caf54abe74e,,,,,,,ctch,resources/DP.BMP,resources/DY.BMP,Door3,0.184259259,0.002777778,1,0,0,0.629,optionRight,70,1455,1,25,0,25,0,1,,,,,,,,,,,,,,,,,,,,,,,,,,,,,,,,,,,,,,,
,,,,,,,,2023-08-06_08h45.24.954,HF_wild_card,2022.2.4,Win32,59.95203837,6160c8f657e3c4094b01614a,64ce5acb97489d65b14ecc7a,64cf4f7840d19caf54abe74e,,,,,,,ctch,resources/DY.BMP,resources/DP.BMP,Door3,-0.230555556,-0.00462963,1,0,0,0.746,optionLeft,70,1525,1,26,0,26,0,1,,,,,,,,,,,,,,,,,,,,,,,,,,,,,,,,,,,,,,,
,,,,,,,,2023-08-06_08h45.24.954,HF_wild_card,2022.2.4,Win32,59.95203837,6160c8f657e3c4094b01614a,64ce5acb97489d65b14ecc7a,64cf4f7840d19caf54abe74e,,,,,,,decisionTrl,resources/DB.BMP,resources/DBN.BMP,WildCard_NonEx,-0.222222222,0.001851852,1,0,0,1.329,optionLeft,45,1570,1,27,0,27,0,1,,,,,,,,,,,,,,,,,,,,,,,,,,,,,,,,,,,,,,,
,,,,,,,,2023-08-06_08h45.24.954,HF_wild_card,2022.2.4,Win32,59.95203837,6160c8f657e3c4094b01614a,64ce5acb97489d65b14ecc7a,64cf4f7840d19caf54abe74e,,,,,,,decisionTrl,resources/DG.BMP,resources/DY.BMP,Door3,0.290740741,0.00462963,1,0,0,0.879,optionRight,70,1640,1,28,0,28,0,1,,,,,,,,,,,,,,,,,,,,,,,,,,,,,,,,,,,,,,,
,,,,,,,,2023-08-06_08h45.24.954,HF_wild_card,2022.2.4,Win32,59.95203837,6160c8f657e3c4094b01614a,64ce5acb97489d65b14ecc7a,64cf4f7840d19caf54abe74e,,,,,,,decisionTrl,resources/DBN.BMP,resources/DP.BMP,Door1,-0.34537037,0.012037037,1,0,0,1.446,optionLeft,30,1670,1,29,0,29,0,1,,,,,,,,,,,,,,,,,,,,,,,,,,,,,,,,,,,,,,,
,,,,,,,,2023-08-06_08h45.24.954,HF_wild_card,2022.2.4,Win32,59.95203837,6160c8f657e3c4094b01614a,64ce5acb97489d65b14ecc7a,64cf4f7840d19caf54abe74e,,,,,,,decisionTrl,resources/DY.BMP,resources/DG.BMP,Door3,-0.225925926,0.031481481,1,0,0,0.713,optionLeft,70,1740,1,30,0,30,0,1,,,,,,,,,,,,,,,,,,,,,,,,,,,,,,,,,,,,,,,
,,,,,,,,2023-08-06_08h45.24.954,HF_wild_card,2022.2.4,Win32,59.95203837,6160c8f657e3c4094b01614a,64ce5acb97489d65b14ecc7a,64cf4f7840d19caf54abe74e,,,,,,,ctch,resources/DY.BMP,resources/DP.BMP,Door3,-0.216666667,0.02037037,1,0,0,0.596,optionLeft,70,1810,1,31,0,31,0,1,,,,,,,,,,,,,,,,,,,,,,,,,,,,,,,,,,,,,,,
,,,,,,,,2023-08-06_08h45.24.954,HF_wild_card,2022.2.4,Win32,59.95203837,6160c8f657e3c4094b01614a,64ce5acb97489d65b14ecc7a,64cf4f7840d19caf54abe74e,,,,,,,decisionTrl,resources/DBN.BMP,resources/DP.BMP,Door2,0.213888889,-0.017592593,1,0,0,1.061,optionRight,20,1830,1,32,0,32,0,1,,,,,,,,,,,,,,,,,,,,,,,,,,,,,,,,,,,,,,,
,,,,,,,,2023-08-06_08h45.24.954,HF_wild_card,2022.2.4,Win32,59.95203837,6160c8f657e3c4094b01614a,64ce5acb97489d65b14ecc7a,64cf4f7840d19caf54abe74e,,,,,,,decisionTrl,resources/DB.BMP,resources/DG.BMP,Door4,0.449074074,0.001851852,1,0,0,1.448,optionRight,80,1910,1,33,0,33,0,1,,,,,,,,,,,,,,,,,,,,,,,,,,,,,,,,,,,,,,,
,,,,,,,,2023-08-06_08h45.24.954,HF_wild_card,2022.2.4,Win32,59.95203837,6160c8f657e3c4094b01614a,64ce5acb97489d65b14ecc7a,64cf4f7840d19caf54abe74e,,,,,,,ctch,resources/DBN.BMP,resources/DG.BMP,Door4,0.317592593,-0.028703704,1,0,0,0.613,optionRight,80,1990,1,34,0,34,0,1,,,,,,,,,,,,,,,,,,,,,,,,,,,,,,,,,,,,,,,
,,,,,,,,2023-08-06_08h45.24.954,HF_wild_card,2022.2.4,Win32,59.95203837,6160c8f657e3c4094b01614a,64ce5acb97489d65b14ecc7a,64cf4f7840d19caf54abe74e,,,,,,,decisionTrl,resources/DP.BMP,resources/DBN.BMP,Door1,0.282407407,-0.010185185,1,0,0,1.678,optionRight,30,2020,1,35,0,35,0,1,,,,,,,,,,,,,,,,,,,,,,,,,,,,,,,,,,,,,,,
,,,,,,,,2023-08-06_08h45.24.954,HF_wild_card,2022.2.4,Win32,59.95203837,6160c8f657e3c4094b01614a,64ce5acb97489d65b14ecc7a,64cf4f7840d19caf54abe74e,,,,,,,decisionTrl,resources/DB.BMP,resources/DY.BMP,Door3,0.390740741,0.017592593,1,0,0,0.846,optionRight,70,2090,1,36,0,36,0,1,,,,,,,,,,,,,,,,,,,,,,,,,,,,,,,,,,,,,,,
,,,,,,,,2023-08-06_08h45.24.954,HF_wild_card,2022.2.4,Win32,59.95203837,6160c8f657e3c4094b01614a,64ce5acb97489d65b14ecc7a,64cf4f7840d19caf54abe74e,,,,,,,sngl,resources/DBN.BMP,resources/Empty.png,Door1,-0.394444444,0.024074074,1,0,0,0.677,optionLeft,30,2120,1,37,0,37,0,1,,,,,,,,,,,,,,,,,,,,,,,,,,,,,,,,,,,,,,,
,,,,,,,,2023-08-06_08h45.24.954,HF_wild_card,2022.2.4,Win32,59.95203837,6160c8f657e3c4094b01614a,64ce5acb97489d65b14ecc7a,64cf4f7840d19caf54abe74e,,,,,,,sngl,resources/Empty.png,resources/DP.BMP,Door2,0.287037037,-0.000925926,1,0,0,0.562,optionRight,20,2140,1,38,0,38,0,1,,,,,,,,,,,,,,,,,,,,,,,,,,,,,,,,,,,,,,,
,,,,,,,,2023-08-06_08h45.24.954,HF_wild_card,2022.2.4,Win32,59.95203837,6160c8f657e3c4094b01614a,64ce5acb97489d65b14ecc7a,64cf4f7840d19caf54abe74e,,,,,,,decisionTrl,resources/DP.BMP,resources/DB.BMP,WildCard_NonEx,0.197222222,-0.025,1,0,0,0.946,optionRight,45,2185,1,39,0,39,0,1,,,,,,,,,,,,,,,,,,,,,,,,,,,,,,,,,,,,,,,
,,,,,,,,2023-08-06_08h45.24.954,HF_wild_card,2022.2.4,Win32,59.95203837,6160c8f657e3c4094b01614a,64ce5acb97489d65b14ecc7a,64cf4f7840d19caf54abe74e,,,,,,,sngl,resources/DG.BMP,resources/Empty.png,Door4,-0.153703704,0.024074074,1,0,0,0.879,optionLeft,80,2265,1,40,0,40,0,1,,,,,,,,,,,,,,,,,,,,,,,,,,,,,,,,,,,,,,,
,,,,,,,,2023-08-06_08h45.24.954,HF_wild_card,2022.2.4,Win32,59.95203837,6160c8f657e3c4094b01614a,64ce5acb97489d65b14ecc7a,64cf4f7840d19caf54abe74e,,,,,,,decisionTrl,resources/DP.BMP,resources/DBN.BMP,Door1,0.317592593,-0.032407407,1,0,0,1.312,optionRight,30,2295,1,41,0,41,0,1,,,,,,,,,,,,,,,,,,,,,,,,,,,,,,,,,,,,,,,
,,,,,,,,2023-08-06_08h45.24.954,HF_wild_card,2022.2.4,Win32,59.95203837,6160c8f657e3c4094b01614a,64ce5acb97489d65b14ecc7a,64cf4f7840d19caf54abe74e,,,,,,,ctch,resources/DG.BMP,resources/DBN.BMP,Door4,-0.17962963,0.028703704,1,0,0,0.712,optionLeft,60,2355,1,42,0,42,0,1,,,,,,,,,,,,,,,,,,,,,,,,,,,,,,,,,,,,,,,
,,,,,,,,2023-08-06_08h45.24.954,HF_wild_card,2022.2.4,Win32,59.95203837,6160c8f657e3c4094b01614a,64ce5acb97489d65b14ecc7a,64cf4f7840d19caf54abe74e,,,,,,,decisionTrl,resources/DB.BMP,resources/DP.BMP,WildCard_NonEx,-0.244444444,0.006481481,1,0,0,1.464,optionLeft,55,2410,1,43,0,43,0,1,,,,,,,,,,,,,,,,,,,,,,,,,,,,,,,,,,,,,,,
,,,,,,,,2023-08-06_08h45.24.954,HF_wild_card,2022.2.4,Win32,59.95203837,6160c8f657e3c4094b01614a,64ce5acb97489d65b14ecc7a,64cf4f7840d19caf54abe74e,,,,,,,,,,,,,,,,,,,,,,,,,,0,0,0,0,1,,,,,,,,,,,,,,,,,,,,,,,,,,,,,,,,,,
,,,,,,,,2023-08-06_08h45.24.954,HF_wild_card,2022.2.4,Win32,59.95203837,6160c8f657e3c4094b01614a,64ce5acb97489d65b14ecc7a,64cf4f7840d19caf54abe74e,,,,,,,ctch,resources/DP.BMP,resources/DY.BMP,Door3,0.208333333,-0.04537037,1,0,0,1.578,optionRight,70,2480,2,0,0,0,0,1,,,,,,,,,,,,,,,,,,,,,,,,,,,,,,,,,,,,,,,
,,,,,,,,2023-08-06_08h45.24.954,HF_wild_card,2022.2.4,Win32,59.95203837,6160c8f657e3c4094b01614a,64ce5acb97489d65b14ecc7a,64cf4f7840d19caf54abe74e,,,,,,,ctch,resources/DG.BMP,resources/DBN.BMP,Door4,-0.192592593,0.019444444,1,0,0,0.696,optionLeft,80,2560,2,1,0,1,0,1,,,,,,,,,,,,,,,,,,,,,,,,,,,,,,,,,,,,,,,
,,,,,,,,2023-08-06_08h45.24.954,HF_wild_card,2022.2.4,Win32,59.95203837,6160c8f657e3c4094b01614a,64ce5acb97489d65b14ecc7a,64cf4f7840d19caf54abe74e,,,,,,,sngl,resources/Empty.png,resources/DG.BMP,Door4,0.22037037,0.000925926,1,0,0,0.509,optionRight,80,2640,2,2,0,2,0,1,,,,,,,,,,,,,,,,,,,,,,,,,,,,,,,,,,,,,,,
,,,,,,,,2023-08-06_08h45.24.954,HF_wild_card,2022.2.4,Win32,59.95203837,6160c8f657e3c4094b01614a,64ce5acb97489d65b14ecc7a,64cf4f7840d19caf54abe74e,,,,,,,sngl,resources/DP.BMP,resources/Empty.png,Door2,-0.200925926,0.017592593,1,0,0,0.496,optionLeft,20,2660,2,3,0,3,0,1,,,,,,,,,,,,,,,,,,,,,,,,,,,,,,,,,,,,,,,
,,,,,,,,2023-08-06_08h45.24.954,HF_wild_card,2022.2.4,Win32,59.95203837,6160c8f657e3c4094b01614a,64ce5acb97489d65b14ecc7a,64cf4f7840d19caf54abe74e,,,,,,,ctch,resources/DBN.BMP,resources/DG.BMP,Door4,0.191666667,-0.000925926,1,0,0,0.529,optionRight,80,2740,2,4,0,4,0,1,,,,,,,,,,,,,,,,,,,,,,,,,,,,,,,,,,,,,,,
,,,,,,,,2023-08-06_08h45.24.954,HF_wild_card,2022.2.4,Win32,59.95203837,6160c8f657e3c4094b01614a,64ce5acb97489d65b14ecc7a,64cf4f7840d19caf54abe74e,,,,,,,ctch,resources/DY.BMP,resources/DP.BMP,Door3,-0.432407407,-0.001851852,1,0,0,0.529,optionLeft,70,2810,2,5,0,5,0,1,,,,,,,,,,,,,,,,,,,,,,,,,,,,,,,,,,,,,,,
,,,,,,,,2023-08-06_08h45.24.954,HF_wild_card,2022.2.4,Win32,59.95203837,6160c8f657e3c4094b01614a,64ce5acb97489d65b14ecc7a,64cf4f7840d19caf54abe74e,,,,,,,decisionTrl,resources/DBN.BMP,resources/DB.BMP,WildCard_NonEx,0.198148148,0.009259259,1,0,0,0.629,optionRight,45,2855,2,6,0,6,0,1,,,,,,,,,,,,,,,,,,,,,,,,,,,,,,,,,,,,,,,
,,,,,,,,2023-08-06_08h45.24.954,HF_wild_card,2022.2.4,Win32,59.95203837,6160c8f657e3c4094b01614a,64ce5acb97489d65b14ecc7a,64cf4f7840d19caf54abe74e,,,,,,,ctch,resources/DBN.BMP,resources/DG.BMP,Door4,0.108333333,0.000925926,1,0,0,0.612,optionRight,80,2935,2,7,0,7,0,1,,,,,,,,,,,,,,,,,,,,,,,,,,,,,,,,,,,,,,,
,,,,,,,,2023-08-06_08h45.24.954,HF_wild_card,2022.2.4,Win32,59.95203837,6160c8f657e3c4094b01614a,64ce5acb97489d65b14ecc7a,64cf4f7840d19caf54abe74e,,,,,,,sngl,resources/Empty.png,resources/DBN.BMP,Door1,0.151851852,-0.016666667,1,0,0,0.546,optionRight,30,2965,2,8,0,8,0,1,,,,,,,,,,,,,,,,,,,,,,,,,,,,,,,,,,,,,,,
,,,,,,,,2023-08-06_08h45.24.954,HF_wild_card,2022.2.4,Win32,59.95203837,6160c8f657e3c4094b01614a,64ce5acb97489d65b14ecc7a,64cf4f7840d19caf54abe74e,,,,,,,decisionTrl,resources/DP.BMP,resources/DBN.BMP,Door1,0.14537037,-0.007407407,1,0,0,1.282,optionRight,30,2995,2,9,0,9,0,1,,,,,,,,,,,,,,,,,,,,,,,,,,,,,,,,,,,,,,,
,,,,,,,,2023-08-06_08h45.24.954,HF_wild_card,2022.2.4,Win32,59.95203837,6160c8f657e3c4094b01614a,64ce5acb97489d65b14ecc7a,64cf4f7840d19caf54abe74e,,,,,,,decisionTrl,resources/DG.BMP,resources/DY.BMP,Door3,0.181481481,-0.007407407,1,0,0,0.745,optionRight,70,3065,2,10,0,10,0,1,,,,,,,,,,,,,,,,,,,,,,,,,,,,,,,,,,,,,,,
,,,,,,,,2023-08-06_08h45.24.954,HF_wild_card,2022.2.4,Win32,59.95203837,6160c8f657e3c4094b01614a,64ce5acb97489d65b14ecc7a,64cf4f7840d19caf54abe74e,,,,,,,decisionTrl,resources/DBN.BMP,resources/DP.BMP,Door1,-0.375925926,-0.008333333,1,0,0,3.23,optionLeft,30,3095,2,11,0,11,0,1,,,,,,,,,,,,,,,,,,,,,,,,,,,,,,,,,,,,,,,
,,,,,,,,2023-08-06_08h45.24.954,HF_wild_card,2022.2.4,Win32,59.95203837,6160c8f657e3c4094b01614a,64ce5acb97489d65b14ecc7a,64cf4f7840d19caf54abe74e,,,,,,,decisionTrl,resources/DBN.BMP,resources/DP.BMP,Door1,-0.155555556,0.019444444,1,0,0,1.097,optionLeft,30,3125,2,12,0,12,0,1,,,,,,,,,,,,,,,,,,,,,,,,,,,,,,,,,,,,,,,
,,,,,,,,2023-08-06_08h45.24.954,HF_wild_card,2022.2.4,Win32,59.95203837,6160c8f657e3c4094b01614a,64ce5acb97489d65b14ecc7a,64cf4f7840d19caf54abe74e,,,,,,,decisionTrl,resources/DBN.BMP,resources/DP.BMP,Door1,-0.235185185,0.013888889,1,0,0,1.38,optionLeft,30,3155,2,13,0,13,0,1,,,,,,,,,,,,,,,,,,,,,,,,,,,,,,,,,,,,,,,
,,,,,,,,2023-08-06_08h45.24.954,HF_wild_card,2022.2.4,Win32,59.95203837,6160c8f657e3c4094b01614a,64ce5acb97489d65b14ecc7a,64cf4f7840d19caf54abe74e,,,,,,,decisionTrl,resources/DG.BMP,resources/DY.BMP,Door4,-0.17962963,0.027777778,1,0,0,0.88,optionLeft,60,3215,2,14,0,14,0,1,,,,,,,,,,,,,,,,,,,,,,,,,,,,,,,,,,,,,,,
,,,,,,,,2023-08-06_08h45.24.954,HF_wild_card,2022.2.4,Win32,59.95203837,6160c8f657e3c4094b01614a,64ce5acb97489d65b14ecc7a,64cf4f7840d19caf54abe74e,,,,,,,decisionTrl,resources/DP.BMP,resources/DBN.BMP,Door1,0.174074074,0.00462963,1,0,0,2.162,optionRight,30,3245,2,15,0,15,0,1,,,,,,,,,,,,,,,,,,,,,,,,,,,,,,,,,,,,,,,
,,,,,,,,2023-08-06_08h45.24.954,HF_wild_card,2022.2.4,Win32,59.95203837,6160c8f657e3c4094b01614a,64ce5acb97489d65b14ecc7a,64cf4f7840d19caf54abe74e,,,,,,,decisionTrl,resources/DG.BMP,resources/DB.BMP,Door4,-0.39537037,0.035185185,1,0,0,0.979,optionLeft,80,3325,2,16,0,16,0,1,,,,,,,,,,,,,,,,,,,,,,,,,,,,,,,,,,,,,,,
,,,,,,,,2023-08-06_08h45.24.954,HF_wild_card,2022.2.4,Win32,59.95203837,6160c8f657e3c4094b01614a,64ce5acb97489d65b14ecc7a,64cf4f7840d19caf54abe74e,,,,,,,decisionTrl,resources/DB.BMP,resources/DG.BMP,Door4,0.109259259,-0.014814815,1,0,0,1.529,optionRight,60,3385,2,17,0,17,0,1,,,,,,,,,,,,,,,,,,,,,,,,,,,,,,,,,,,,,,,
,,,,,,,,2023-08-06_08h45.24.954,HF_wild_card,2022.2.4,Win32,59.95203837,6160c8f657e3c4094b01614a,64ce5acb97489d65b14ecc7a,64cf4f7840d19caf54abe74e,,,,,,,ctch,resources/DY.BMP,resources/DP.BMP,Door3,-0.266666667,-0.006481481,1,0,0,0.828,optionLeft,70,3455,2,18,0,18,0,1,,,,,,,,,,,,,,,,,,,,,,,,,,,,,,,,,,,,,,,
,,,,,,,,2023-08-06_08h45.24.954,HF_wild_card,2022.2.4,Win32,59.95203837,6160c8f657e3c4094b01614a,64ce5acb97489d65b14ecc7a,64cf4f7840d19caf54abe74e,,,,,,,sngl,resources/DY.BMP,resources/Empty.png,Door3,-0.128703704,-0.009259259,1,0,0,0.563,optionLeft,70,3525,2,19,0,19,0,1,,,,,,,,,,,,,,,,,,,,,,,,,,,,,,,,,,,,,,,
,,,,,,,,2023-08-06_08h45.24.954,HF_wild_card,2022.2.4,Win32,59.95203837,6160c8f657e3c4094b01614a,64ce5acb97489d65b14ecc7a,64cf4f7840d19caf54abe74e,,,,,,,decisionTrl,resources/DB.BMP,resources/DBN.BMP,WildCard_NonEx,-0.187037037,0,1,0,0,1.213,optionLeft,55,3580,2,20,0,20,0,1,,,,,,,,,,,,,,,,,,,,,,,,,,,,,,,,,,,,,,,
,,,,,,,,2023-08-06_08h45.24.954,HF_wild_card,2022.2.4,Win32,59.95203837,6160c8f657e3c4094b01614a,64ce5acb97489d65b14ecc7a,64cf4f7840d19caf54abe74e,,,,,,,decisionTrl,resources/DG.BMP,resources/DY.BMP,Door3,0.178703704,-0.035185185,1,0,0,1.23,optionRight,70,3650,2,21,0,21,0,1,,,,,,,,,,,,,,,,,,,,,,,,,,,,,,,,,,,,,,,
,,,,,,,,2023-08-06_08h45.24.954,HF_wild_card,2022.2.4,Win32,59.95203837,6160c8f657e3c4094b01614a,64ce5acb97489d65b14ecc7a,64cf4f7840d19caf54abe74e,,,,,,,decisionTrl,resources/DP.BMP,resources/DB.BMP,WildCard_NonEx,0.300925926,-0.077777778,1,0,0,1.281,optionRight,55,3705,2,22,0,22,0,1,,,,,,,,,,,,,,,,,,,,,,,,,,,,,,,,,,,,,,,
,,,,,,,,2023-08-06_08h45.24.954,HF_wild_card,2022.2.4,Win32,59.95203837,6160c8f657e3c4094b01614a,64ce5acb97489d65b14ecc7a,64cf4f7840d19caf54abe74e,,,,,,,sngl,resources/DG.BMP,resources/Empty.png,Door4,-0.167592593,0.008333333,1,0,0,0.674,optionLeft,60,3765,2,23,0,23,0,1,,,,,,,,,,,,,,,,,,,,,,,,,,,,,,,,,,,,,,,
,,,,,,,,2023-08-06_08h45.24.954,HF_wild_card,2022.2.4,Win32,59.95203837,6160c8f657e3c4094b01614a,64ce5acb97489d65b14ecc7a,64cf4f7840d19caf54abe74e,,,,,,,decisionTrl,resources/DY.BMP,resources/DB.BMP,Door3,-0.177777778,-0.006481481,1,0,0,0.797,optionLeft,70,3835,2,24,0,24,0,1,,,,,,,,,,,,,,,,,,,,,,,,,,,,,,,,,,,,,,,
,,,,,,,,2023-08-06_08h45.24.954,HF_wild_card,2022.2.4,Win32,59.95203837,6160c8f657e3c4094b01614a,64ce5acb97489d65b14ecc7a,64cf4f7840d19caf54abe74e,,,,,,,sngl,resources/Empty.png,resources/DY.BMP,Door3,0.225925926,-0.011111111,1,0,0,0.563,optionRight,70,3905,2,25,0,25,0,1,,,,,,,,,,,,,,,,,,,,,,,,,,,,,,,,,,,,,,,
,,,,,,,,2023-08-06_08h45.24.954,HF_wild_card,2022.2.4,Win32,59.95203837,6160c8f657e3c4094b01614a,64ce5acb97489d65b14ecc7a,64cf4f7840d19caf54abe74e,,,,,,,sngl,resources/Empty.png,resources/DB.BMP,WildCard_NonEx,0.138888889,0.00462963,1,0,0,0.563,optionRight,55,3960,2,26,0,26,0,1,,,,,,,,,,,,,,,,,,,,,,,,,,,,,,,,,,,,,,,
,,,,,,,,2023-08-06_08h45.24.954,HF_wild_card,2022.2.4,Win32,59.95203837,6160c8f657e3c4094b01614a,64ce5acb97489d65b14ecc7a,64cf4f7840d19caf54abe74e,,,,,,,sngl,resources/DBN.BMP,resources/Empty.png,Door1,-0.168518519,0.032407407,1,0,0,0.579,optionLeft,30,3990,2,27,0,27,0,1,,,,,,,,,,,,,,,,,,,,,,,,,,,,,,,,,,,,,,,
,,,,,,,,2023-08-06_08h45.24.954,HF_wild_card,2022.2.4,Win32,59.95203837,6160c8f657e3c4094b01614a,64ce5acb97489d65b14ecc7a,64cf4f7840d19caf54abe74e,,,,,,,decisionTrl,resources/DG.BMP,resources/DY.BMP,Door3,0.223148148,-0.036111111,1,0,0,0.619,optionRight,70,4060,2,28,0,28,0,1,,,,,,,,,,,,,,,,,,,,,,,,,,,,,,,,,,,,,,,
,,,,,,,,2023-08-06_08h45.24.954,HF_wild_card,2022.2.4,Win32,59.95203837,6160c8f657e3c4094b01614a,64ce5acb97489d65b14ecc7a,64cf4f7840d19caf54abe74e,,,,,,,ctch,resources/DG.BMP,resources/DBN.BMP,Door4,-0.299074074,0.002777778,1,0,0,0.56,optionLeft,80,4140,2,29,0,29,0,1,,,,,,,,,,,,,,,,,,,,,,,,,,,,,,,,,,,,,,,
,,,,,,,,2023-08-06_08h45.24.954,HF_wild_card,2022.2.4,Win32,59.95203837,6160c8f657e3c4094b01614a,64ce5acb97489d65b14ecc7a,64cf4f7840d19caf54abe74e,,,,,,,decisionTrl,resources/DY.BMP,resources/DG.BMP,Door3,-0.202777778,0.001851852,1,0,0,2.413,optionLeft,70,4210,2,30,0,30,0,1,,,,,,,,,,,,,,,,,,,,,,,,,,,,,,,,,,,,,,,
,,,,,,,,2023-08-06_08h45.24.954,HF_wild_card,2022.2.4,Win32,59.95203837,6160c8f657e3c4094b01614a,64ce5acb97489d65b14ecc7a,64cf4f7840d19caf54abe74e,,,,,,,decisionTrl,resources/DB.BMP,resources/DY.BMP,Door3,0.287962963,-0.083333333,1,0,0,1.462,optionRight,70,4280,2,31,0,31,0,1,,,,,,,,,,,,,,,,,,,,,,,,,,,,,,,,,,,,,,,
,,,,,,,,2023-08-06_08h45.24.954,HF_wild_card,2022.2.4,Win32,59.95203837,6160c8f657e3c4094b01614a,64ce5acb97489d65b14ecc7a,64cf4f7840d19caf54abe74e,,,,,,,decisionTrl,resources/DP.BMP,resources/DBN.BMP,Door1,0.316666667,-0.044444444,1,0,0,1.012,optionRight,30,4310,2,32,0,32,0,1,,,,,,,,,,,,,,,,,,,,,,,,,,,,,,,,,,,,,,,
,,,,,,,,2023-08-06_08h45.24.954,HF_wild_card,2022.2.4,Win32,59.95203837,6160c8f657e3c4094b01614a,64ce5acb97489d65b14ecc7a,64cf4f7840d19caf54abe74e,,,,,,,sngl,resources/DB.BMP,resources/Empty.png,WildCard_NonEx,-0.223148148,0.000925926,1,0,0,0.863,optionLeft,55,4365,2,33,0,33,0,1,,,,,,,,,,,,,,,,,,,,,,,,,,,,,,,,,,,,,,,
,,,,,,,,2023-08-06_08h45.24.954,HF_wild_card,2022.2.4,Win32,59.95203837,6160c8f657e3c4094b01614a,64ce5acb97489d65b14ecc7a,64cf4f7840d19caf54abe74e,,,,,,,decisionTrl,resources/DY.BMP,resources/DG.BMP,Door3,-0.266666667,-0.02037037,1,0,0,1.748,optionLeft,70,4435,2,34,0,34,0,1,,,,,,,,,,,,,,,,,,,,,,,,,,,,,,,,,,,,,,,
,,,,,,,,2023-08-06_08h45.24.954,HF_wild_card,2022.2.4,Win32,59.95203837,6160c8f657e3c4094b01614a,64ce5acb97489d65b14ecc7a,64cf4f7840d19caf54abe74e,,,,,,,ctch,resources/DP.BMP,resources/DY.BMP,Door3,0.244444444,-0.074074074,1,0,0,1.396,optionRight,70,4505,2,35,0,35,0,1,,,,,,,,,,,,,,,,,,,,,,,,,,,,,,,,,,,,,,,
,,,,,,,,2023-08-06_08h45.24.954,HF_wild_card,2022.2.4,Win32,59.95203837,6160c8f657e3c4094b01614a,64ce5acb97489d65b14ecc7a,64cf4f7840d19caf54abe74e,,,,,,,decisionTrl,resources/DY.BMP,resources/DG.BMP,Door3,-0.292592593,-0.037962963,1,0,0,1.58,optionLeft,70,4575,2,36,0,36,0,1,,,,,,,,,,,,,,,,,,,,,,,,,,,,,,,,,,,,,,,
,,,,,,,,2023-08-06_08h45.24.954,HF_wild_card,2022.2.4,Win32,59.95203837,6160c8f657e3c4094b01614a,64ce5acb97489d65b14ecc7a,64cf4f7840d19caf54abe74e,,,,,,,sngl,resources/Empty.png,resources/DP.BMP,Door2,0.186111111,-0.068518519,1,0,0,3.648,optionRight,40,4615,2,37,0,37,0,1,,,,,,,,,,,,,,,,,,,,,,,,,,,,,,,,,,,,,,,
,,,,,,,,2023-08-06_08h45.24.954,HF_wild_card,2022.2.4,Win32,59.95203837,6160c8f657e3c4094b01614a,64ce5acb97489d65b14ecc7a,64cf4f7840d19caf54abe74e,,,,,,,decisionTrl,resources/DBN.BMP,resources/DP.BMP,Door2,0.228703704,-0.023148148,1,0,0,0.747,optionRight,40,4655,2,38,0,38,0,1,,,,,,,,,,,,,,,,,,,,,,,,,,,,,,,,,,,,,,,
,,,,,,,,2023-08-06_08h45.24.954,HF_wild_card,2022.2.4,Win32,59.95203837,6160c8f657e3c4094b01614a,64ce5acb97489d65b14ecc7a,64cf4f7840d19caf54abe74e,,,,,,,decisionTrl,resources/DY.BMP,resources/DG.BMP,Door3,-0.211111111,-0.010185185,1,0,0,1.876,optionLeft,70,4725,2,39,0,39,0,1,,,,,,,,,,,,,,,,,,,,,,,,,,,,,,,,,,,,,,,
,,,,,,,,2023-08-06_08h45.24.954,HF_wild_card,2022.2.4,Win32,59.95203837,6160c8f657e3c4094b01614a,64ce5acb97489d65b14ecc7a,64cf4f7840d19caf54abe74e,,,,,,,decisionTrl,resources/DP.BMP,resources/DBN.BMP,Door2,-0.155555556,-0.013888889,1,0,0,1.795,optionLeft,40,4765,2,40,0,40,0,1,,,,,,,,,,,,,,,,,,,,,,,,,,,,,,,,,,,,,,,
,,,,,,,,2023-08-06_08h45.24.954,HF_wild_card,2022.2.4,Win32,59.95203837,6160c8f657e3c4094b01614a,64ce5acb97489d65b14ecc7a,64cf4f7840d19caf54abe74e,,,,,,,sngl,resources/Empty.png,resources/DB.BMP,WildCard_NonEx,0.160185185,-0.014814815,1,0,0,0.629,optionRight,45,4810,2,41,0,41,0,1,,,,,,,,,,,,,,,,,,,,,,,,,,,,,,,,,,,,,,,
,,,,,,,,2023-08-06_08h45.24.954,HF_wild_card,2022.2.4,Win32,59.95203837,6160c8f657e3c4094b01614a,64ce5acb97489d65b14ecc7a,64cf4f7840d19caf54abe74e,,,,,,,decisionTrl,resources/DB.BMP,resources/DP.BMP,WildCard_NonEx,-0.098148148,0.012037037,1,0,0,0.961,optionLeft,45,4855,2,42,0,42,0,1,,,,,,,,,,,,,,,,,,,,,,,,,,,,,,,,,,,,,,,
,,,,,,,,2023-08-06_08h45.24.954,HF_wild_card,2022.2.4,Win32,59.95203837,6160c8f657e3c4094b01614a,64ce5acb97489d65b14ecc7a,64cf4f7840d19caf54abe74e,,,,,,,sngl,resources/DB.BMP,resources/Empty.png,WildCard_NonEx,-0.164814815,0.019444444,1,0,0,0.562,optionLeft,45,4900,2,43,0,43,0,1,,,,,,,,,,,,,,,,,,,,,,,,,,,,,,,,,,,,,,,
,,,,,,,,2023-08-06_08h45.24.954,HF_wild_card,2022.2.4,Win32,59.95203837,6160c8f657e3c4094b01614a,64ce5acb97489d65b14ecc7a,64cf4f7840d19caf54abe74e,,,,,,,,,,,,,,,,,,,,,,,,,,1,0,1,0,1,,,,,,,,,,,,,,,,,,,,,,,,,,,,,,,,,,
,,,,,,,,2023-08-06_08h45.24.954,HF_wild_card,2022.2.4,Win32,59.95203837,6160c8f657e3c4094b01614a,64ce5acb97489d65b14ecc7a,64cf4f7840d19caf54abe74e,,,,,,,sngl,resources/DB.BMP,resources/Empty.png,WildCard_NonEx,-0.159259259,-0.075,1,0,0,0.545,optionLeft,55,4955,3,0,0,0,0,1,,,,,,,,,,,,,,,,,,,,,,,,,,,,,,,,,,,,,,,
,,,,,,,,2023-08-06_08h45.24.954,HF_wild_card,2022.2.4,Win32,59.95203837,6160c8f657e3c4094b01614a,64ce5acb97489d65b14ecc7a,64cf4f7840d19caf54abe74e,,,,,,,decisionTrl,resources/DP.BMP,resources/DBN.BMP,Door2,-0.237962963,-0.009259259,1,0,0,1.012,optionLeft,20,4975,3,1,0,1,0,1,,,,,,,,,,,,,,,,,,,,,,,,,,,,,,,,,,,,,,,
,,,,,,,,2023-08-06_08h45.24.954,HF_wild_card,2022.2.4,Win32,59.95203837,6160c8f657e3c4094b01614a,64ce5acb97489d65b14ecc7a,64cf4f7840d19caf54abe74e,,,,,,,decisionTrl,resources/DB.BMP,resources/DG.BMP,Door4,0.464814815,-0.067592593,1,0,0,1.114,optionRight,60,5035,3,2,0,2,0,1,,,,,,,,,,,,,,,,,,,,,,,,,,,,,,,,,,,,,,,
,,,,,,,,2023-08-06_08h45.24.954,HF_wild_card,2022.2.4,Win32,59.95203837,6160c8f657e3c4094b01614a,64ce5acb97489d65b14ecc7a,64cf4f7840d19caf54abe74e,,,,,,,decisionTrl,resources/DB.BMP,resources/DY.BMP,Door3,0.24537037,-0.008333333,1,0,0,0.695,optionRight,70,5105,3,3,0,3,0,1,,,,,,,,,,,,,,,,,,,,,,,,,,,,,,,,,,,,,,,
,,,,,,,,2023-08-06_08h45.24.954,HF_wild_card,2022.2.4,Win32,59.95203837,6160c8f657e3c4094b01614a,64ce5acb97489d65b14ecc7a,64cf4f7840d19caf54abe74e,,,,,,,decisionTrl,resources/DB.BMP,resources/DP.BMP,WildCard_NonEx,-0.187962963,0.011111111,1,0,0,0.944,optionLeft,55,5160,3,4,0,4,0,1,,,,,,,,,,,,,,,,,,,,,,,,,,,,,,,,,,,,,,,
,,,,,,,,2023-08-06_08h45.24.954,HF_wild_card,2022.2.4,Win32,59.95203837,6160c8f657e3c4094b01614a,64ce5acb97489d65b14ecc7a,64cf4f7840d19caf54abe74e,,,,,,,decisionTrl,resources/DG.BMP,resources/DY.BMP,Door3,0.293518519,-0.037037037,1,0,0,0.613,optionRight,70,5230,3,5,0,5,0,1,,,,,,,,,,,,,,,,,,,,,,,,,,,,,,,,,,,,,,,
,,,,,,,,2023-08-06_08h45.24.954,HF_wild_card,2022.2.4,Win32,59.95203837,6160c8f657e3c4094b01614a,64ce5acb97489d65b14ecc7a,64cf4f7840d19caf54abe74e,,,,,,,decisionTrl,resources/DY.BMP,resources/DG.BMP,Door3,-0.236111111,0.071296296,1,0,0,1.009,optionLeft,70,5300,3,6,0,6,0,1,,,,,,,,,,,,,,,,,,,,,,,,,,,,,,,,,,,,,,,
,,,,,,,,2023-08-06_08h45.24.954,HF_wild_card,2022.2.4,Win32,59.95203837,6160c8f657e3c4094b01614a,64ce5acb97489d65b14ecc7a,64cf4f7840d19caf54abe74e,,,,,,,decisionTrl,resources/DY.BMP,resources/DB.BMP,Door3,-0.187037037,0,1,0,0,0.662,optionLeft,70,5370,3,7,0,7,0,1,,,,,,,,,,,,,,,,,,,,,,,,,,,,,,,,,,,,,,,
,,,,,,,,2023-08-06_08h45.24.954,HF_wild_card,2022.2.4,Win32,59.95203837,6160c8f657e3c4094b01614a,64ce5acb97489d65b14ecc7a,64cf4f7840d19caf54abe74e,,,,,,,sngl,resources/Empty.png,resources/DP.BMP,Door2,0.387962963,-0.055555556,1,0,0,0.577,optionRight,20,5390,3,8,0,8,0,1,,,,,,,,,,,,,,,,,,,,,,,,,,,,,,,,,,,,,,,
,,,,,,,,2023-08-06_08h45.24.954,HF_wild_card,2022.2.4,Win32,59.95203837,6160c8f657e3c4094b01614a,64ce5acb97489d65b14ecc7a,64cf4f7840d19caf54abe74e,,,,,,,ctch,resources/DBN.BMP,resources/DG.BMP,Door4,0.193518519,0.010185185,1,0,0,1.295,optionRight,60,5450,3,9,0,9,0,1,,,,,,,,,,,,,,,,,,,,,,,,,,,,,,,,,,,,,,,
,,,,,,,,2023-08-06_08h45.24.954,HF_wild_card,2022.2.4,Win32,59.95203837,6160c8f657e3c4094b01614a,64ce5acb97489d65b14ecc7a,64cf4f7840d19caf54abe74e,,,,,,,ctch,resources/DBN.BMP,resources/DG.BMP,Door4,0.131481481,-0.022222222,1,0,0,0.929,optionRight,60,5510,3,10,0,10,0,1,,,,,,,,,,,,,,,,,,,,,,,,,,,,,,,,,,,,,,,
,,,,,,,,2023-08-06_08h45.24.954,HF_wild_card,2022.2.4,Win32,59.95203837,6160c8f657e3c4094b01614a,64ce5acb97489d65b14ecc7a,64cf4f7840d19caf54abe74e,,,,,,,decisionTrl,resources/DBN.BMP,resources/DP.BMP,Door2,0.27962963,-0.035185185,1,0,0,1.162,optionRight,40,5550,3,11,0,11,0,1,,,,,,,,,,,,,,,,,,,,,,,,,,,,,,,,,,,,,,,
,,,,,,,,2023-08-06_08h45.24.954,HF_wild_card,2022.2.4,Win32,59.95203837,6160c8f657e3c4094b01614a,64ce5acb97489d65b14ecc7a,64cf4f7840d19caf54abe74e,,,,,,,decisionTrl,resources/DG.BMP,resources/DY.BMP,Door3,0.208333333,-0.009259259,1,0,0,0.779,optionRight,70,5620,3,12,0,12,0,1,,,,,,,,,,,,,,,,,,,,,,,,,,,,,,,,,,,,,,,
,,,,,,,,2023-08-06_08h45.24.954,HF_wild_card,2022.2.4,Win32,59.95203837,6160c8f657e3c4094b01614a,64ce5acb97489d65b14ecc7a,64cf4f7840d19caf54abe74e,,,,,,,decisionTrl,resources/DG.BMP,resources/DB.BMP,Door4,-0.532407407,0.059259259,1,0,0,1.581,optionLeft,60,5680,3,13,0,13,0,1,,,,,,,,,,,,,,,,,,,,,,,,,,,,,,,,,,,,,,,
,,,,,,,,2023-08-06_08h45.24.954,HF_wild_card,2022.2.4,Win32,59.95203837,6160c8f657e3c4094b01614a,64ce5acb97489d65b14ecc7a,64cf4f7840d19caf54abe74e,,,,,,,sngl,resources/DG.BMP,resources/Empty.png,Door4,-0.275,0.066666667,1,0,0,0.546,optionLeft,80,5760,3,14,0,14,0,1,,,,,,,,,,,,,,,,,,,,,,,,,,,,,,,,,,,,,,,
,,,,,,,,2023-08-06_08h45.24.954,HF_wild_card,2022.2.4,Win32,59.95203837,6160c8f657e3c4094b01614a,64ce5acb97489d65b14ecc7a,64cf4f7840d19caf54abe74e,,,,,,,ctch,resources/DG.BMP,resources/DBN.BMP,Door4,-0.17962963,0.019444444,1,0,0,0.747,optionLeft,60,5820,3,15,0,15,0,1,,,,,,,,,,,,,,,,,,,,,,,,,,,,,,,,,,,,,,,
,,,,,,,,2023-08-06_08h45.24.954,HF_wild_card,2022.2.4,Win32,59.95203837,6160c8f657e3c4094b01614a,64ce5acb97489d65b14ecc7a,64cf4f7840d19caf54abe74e,,,,,,,decisionTrl,resources/DB.BMP,resources/DBN.BMP,WildCard_NonEx,-0.227777778,0.006481481,1,0,0,0.996,optionLeft,55,5875,3,16,0,16,0,1,,,,,,,,,,,,,,,,,,,,,,,,,,,,,,,,,,,,,,,
,,,,,,,,2023-08-06_08h45.24.954,HF_wild_card,2022.2.4,Win32,59.95203837,6160c8f657e3c4094b01614a,64ce5acb97489d65b14ecc7a,64cf4f7840d19caf54abe74e,,,,,,,sngl,resources/DY.BMP,resources/Empty.png,Door3,-0.162037037,0.024074074,1,0,0,0.562,optionLeft,70,5945,3,17,0,17,0,1,,,,,,,,,,,,,,,,,,,,,,,,,,,,,,,,,,,,,,,
,,,,,,,,2023-08-06_08h45.24.954,HF_wild_card,2022.2.4,Win32,59.95203837,6160c8f657e3c4094b01614a,64ce5acb97489d65b14ecc7a,64cf4f7840d19caf54abe74e,,,,,,,decisionTrl,resources/DP.BMP,resources/DBN.BMP,Door1,0.239814815,0.007407407,1,0,0,1.626,optionRight,30,5975,3,18,0,18,0,1,,,,,,,,,,,,,,,,,,,,,,,,,,,,,,,,,,,,,,,
,,,,,,,,2023-08-06_08h45.24.954,HF_wild_card,2022.2.4,Win32,59.95203837,6160c8f657e3c4094b01614a,64ce5acb97489d65b14ecc7a,64cf4f7840d19caf54abe74e,,,,,,,ctch,resources/DG.BMP,resources/DBN.BMP,Door4,-0.338888889,0.010185185,1,0,0,0.862,optionLeft,60,6035,3,19,0,19,0,1,,,,,,,,,,,,,,,,,,,,,,,,,,,,,,,,,,,,,,,
,,,,,,,,2023-08-06_08h45.24.954,HF_wild_card,2022.2.4,Win32,59.95203837,6160c8f657e3c4094b01614a,64ce5acb97489d65b14ecc7a,64cf4f7840d19caf54abe74e,,,,,,,decisionTrl,resources/DBN.BMP,resources/DP.BMP,Door2,0.127777778,0.003703704,1,0,0,1.045,optionRight,20,6055,3,20,0,20,0,1,,,,,,,,,,,,,,,,,,,,,,,,,,,,,,,,,,,,,,,
,,,,,,,,2023-08-06_08h45.24.954,HF_wild_card,2022.2.4,Win32,59.95203837,6160c8f657e3c4094b01614a,64ce5acb97489d65b14ecc7a,64cf4f7840d19caf54abe74e,,,,,,,decisionTrl,resources/DBN.BMP,resources/DB.BMP,WildCard_NonEx,0.189814815,-0.015740741,1,0,0,0.662,optionRight,45,6100,3,21,0,21,0,1,,,,,,,,,,,,,,,,,,,,,,,,,,,,,,,,,,,,,,,
,,,,,,,,2023-08-06_08h45.24.954,HF_wild_card,2022.2.4,Win32,59.95203837,6160c8f657e3c4094b01614a,64ce5acb97489d65b14ecc7a,64cf4f7840d19caf54abe74e,,,,,,,sngl,resources/DB.BMP,resources/Empty.png,WildCard_NonEx,-0.268518519,0.033333333,1,0,0,0.53,optionLeft,45,6145,3,22,0,22,0,1,,,,,,,,,,,,,,,,,,,,,,,,,,,,,,,,,,,,,,,
,,,,,,,,2023-08-06_08h45.24.954,HF_wild_card,2022.2.4,Win32,59.95203837,6160c8f657e3c4094b01614a,64ce5acb97489d65b14ecc7a,64cf4f7840d19caf54abe74e,,,,,,,decisionTrl,resources/DY.BMP,resources/DG.BMP,Door3,-0.182407407,0.010185185,1,0,0,0.83,optionLeft,70,6215,3,23,0,23,0,1,,,,,,,,,,,,,,,,,,,,,,,,,,,,,,,,,,,,,,,
,,,,,,,,2023-08-06_08h45.24.954,HF_wild_card,2022.2.4,Win32,59.95203837,6160c8f657e3c4094b01614a,64ce5acb97489d65b14ecc7a,64cf4f7840d19caf54abe74e,,,,,,,decisionTrl,resources/DP.BMP,resources/DBN.BMP,Door1,0.139814815,-0.022222222,1,0,0,1.079,optionRight,30,6245,3,24,0,24,0,1,,,,,,,,,,,,,,,,,,,,,,,,,,,,,,,,,,,,,,,
,,,,,,,,2023-08-06_08h45.24.954,HF_wild_card,2022.2.4,Win32,59.95203837,6160c8f657e3c4094b01614a,64ce5acb97489d65b14ecc7a,64cf4f7840d19caf54abe74e,,,,,,,decisionTrl,resources/DBN.BMP,resources/DP.BMP,Door1,-0.368518519,0.040740741,1,0,0,1.13,optionLeft,30,6275,3,25,0,25,0,1,,,,,,,,,,,,,,,,,,,,,,,,,,,,,,,,,,,,,,,
,,,,,,,,2023-08-06_08h45.24.954,HF_wild_card,2022.2.4,Win32,59.95203837,6160c8f657e3c4094b01614a,64ce5acb97489d65b14ecc7a,64cf4f7840d19caf54abe74e,,,,,,,decisionTrl,resources/DY.BMP,resources/DG.BMP,Door3,-0.273148148,0.005555556,1,0,0,0.747,optionLeft,70,6345,3,26,0,26,0,1,,,,,,,,,,,,,,,,,,,,,,,,,,,,,,,,,,,,,,,
,,,,,,,,2023-08-06_08h45.24.954,HF_wild_card,2022.2.4,Win32,59.95203837,6160c8f657e3c4094b01614a,64ce5acb97489d65b14ecc7a,64cf4f7840d19caf54abe74e,,,,,,,sngl,resources/Empty.png,resources/DG.BMP,Door4,0.188888889,-0.006481481,1,0,0,0.548,optionRight,60,6405,3,27,0,27,0,1,,,,,,,,,,,,,,,,,,,,,,,,,,,,,,,,,,,,,,,
,,,,,,,,2023-08-06_08h45.24.954,HF_wild_card,2022.2.4,Win32,59.95203837,6160c8f657e3c4094b01614a,64ce5acb97489d65b14ecc7a,64cf4f7840d19caf54abe74e,,,,,,,decisionTrl,resources/DG.BMP,resources/DY.BMP,Door3,0.25,-0.047222222,1,0,0,0.796,optionRight,70,6475,3,28,0,28,0,1,,,,,,,,,,,,,,,,,,,,,,,,,,,,,,,,,,,,,,,
,,,,,,,,2023-08-06_08h45.24.954,HF_wild_card,2022.2.4,Win32,59.95203837,6160c8f657e3c4094b01614a,64ce5acb97489d65b14ecc7a,64cf4f7840d19caf54abe74e,,,,,,,sngl,resources/Empty.png,resources/DBN.BMP,Door1,0.175,0.010185185,1,0,0,0.513,optionRight,30,6505,3,29,0,29,0,1,,,,,,,,,,,,,,,,,,,,,,,,,,,,,,,,,,,,,,,
,,,,,,,,2023-08-06_08h45.24.954,HF_wild_card,2022.2.4,Win32,59.95203837,6160c8f657e3c4094b01614a,64ce5acb97489d65b14ecc7a,64cf4f7840d19caf54abe74e,,,,,,,decisionTrl,resources/DBN.BMP,resources/DP.BMP,Door1,-0.488888889,0.057407407,1,0,0,1.097,optionLeft,30,6535,3,30,0,30,0,1,,,,,,,,,,,,,,,,,,,,,,,,,,,,,,,,,,,,,,,
,,,,,,,,2023-08-06_08h45.24.954,HF_wild_card,2022.2.4,Win32,59.95203837,6160c8f657e3c4094b01614a,64ce5acb97489d65b14ecc7a,64cf4f7840d19caf54abe74e,,,,,,,sngl,resources/Empty.png,resources/DY.BMP,Door3,0.177777778,0.008333333,1,0,0,0.524,optionRight,70,6605,3,31,0,31,0,1,,,,,,,,,,,,,,,,,,,,,,,,,,,,,,,,,,,,,,,
,,,,,,,,2023-08-06_08h45.24.954,HF_wild_card,2022.2.4,Win32,59.95203837,6160c8f657e3c4094b01614a,64ce5acb97489d65b14ecc7a,64cf4f7840d19caf54abe74e,,,,,,,sngl,resources/Empty.png,resources/DB.BMP,WildCard_NonEx,0.231481481,-0.035185185,1,0,0,0.512,optionRight,55,6660,3,32,0,32,0,1,,,,,,,,,,,,,,,,,,,,,,,,,,,,,,,,,,,,,,,
,,,,,,,,2023-08-06_08h45.24.954,HF_wild_card,2022.2.4,Win32,59.95203837,6160c8f657e3c4094b01614a,64ce5acb97489d65b14ecc7a,64cf4f7840d19caf54abe74e,,,,,,,decisionTrl,resources/DP.BMP,resources/DB.BMP,WildCard_NonEx,0.234259259,-0.021296296,1,0,0,0.961,optionRight,45,6705,3,33,0,33,0,1,,,,,,,,,,,,,,,,,,,,,,,,,,,,,,,,,,,,,,,
,,,,,,,,2023-08-06_08h45.24.954,HF_wild_card,2022.2.4,Win32,59.95203837,6160c8f657e3c4094b01614a,64ce5acb97489d65b14ecc7a,64cf4f7840d19caf54abe74e,,,,,,,ctch,resources/DY.BMP,resources/DP.BMP,Door3,-0.293518519,-0.003703704,1,0,0,0.578,optionLeft,70,6775,3,34,0,34,0,1,,,,,,,,,,,,,,,,,,,,,,,,,,,,,,,,,,,,,,,
,,,,,,,,2023-08-06_08h45.24.954,HF_wild_card,2022.2.4,Win32,59.95203837,6160c8f657e3c4094b01614a,64ce5acb97489d65b14ecc7a,64cf4f7840d19caf54abe74e,,,,,,,sngl,resources/DBN.BMP,resources/Empty.png,Door1,-0.211111111,0.012037037,1,0,0,0.493,optionLeft,30,6805,3,35,0,35,0,1,,,,,,,,,,,,,,,,,,,,,,,,,,,,,,,,,,,,,,,
,,,,,,,,2023-08-06_08h45.24.954,HF_wild_card,2022.2.4,Win32,59.95203837,6160c8f657e3c4094b01614a,64ce5acb97489d65b14ecc7a,64cf4f7840d19caf54abe74e,,,,,,,sngl,resources/DP.BMP,resources/Empty.png,Door2,-0.265740741,0.011111111,1,0,0,0.495,optionLeft,40,6845,3,36,0,36,0,1,,,,,,,,,,,,,,,,,,,,,,,,,,,,,,,,,,,,,,,
,,,,,,,,2023-08-06_08h45.24.954,HF_wild_card,2022.2.4,Win32,59.95203837,6160c8f657e3c4094b01614a,64ce5acb97489d65b14ecc7a,64cf4f7840d19caf54abe74e,,,,,,,ctch,resources/DP.BMP,resources/DY.BMP,Door3,0.313888889,0.001851852,1,0,0,0.73,optionRight,70,6915,3,37,0,37,0,1,,,,,,,,,,,,,,,,,,,,,,,,,,,,,,,,,,,,,,,
,,,,,,,,2023-08-06_08h45.24.954,HF_wild_card,2022.2.4,Win32,59.95203837,6160c8f657e3c4094b01614a,64ce5acb97489d65b14ecc7a,64cf4f7840d19caf54abe74e,,,,,,,decisionTrl,resources/DG.BMP,resources/DY.BMP,Door3,0.325,-0.055555556,1,0,0,0.68,optionRight,70,6985,3,38,0,38,0,1,,,,,,,,,,,,,,,,,,,,,,,,,,,,,,,,,,,,,,,
,,,,,,,,2023-08-06_08h45.24.954,HF_wild_card,2022.2.4,Win32,59.95203837,6160c8f657e3c4094b01614a,64ce5acb97489d65b14ecc7a,64cf4f7840d19caf54abe74e,,,,,,,decisionTrl,resources/DP.BMP,resources/DBN.BMP,Door2,-0.446296296,0.026851852,1,0,0,1.73,optionLeft,40,7025,3,39,0,39,0,1,,,,,,,,,,,,,,,,,,,,,,,,,,,,,,,,,,,,,,,
,,,,,,,,2023-08-06_08h45.24.954,HF_wild_card,2022.2.4,Win32,59.95203837,6160c8f657e3c4094b01614a,64ce5acb97489d65b14ecc7a,64cf4f7840d19caf54abe74e,,,,,,,ctch,resources/DY.BMP,resources/DP.BMP,Door3,-0.287962963,0.100925926,1,0,0,0.946,optionLeft,70,7095,3,40,0,40,0,1,,,,,,,,,,,,,,,,,,,,,,,,,,,,,,,,,,,,,,,
,,,,,,,,2023-08-06_08h45.24.954,HF_wild_card,2022.2.4,Win32,59.95203837,6160c8f657e3c4094b01614a,64ce5acb97489d65b14ecc7a,64cf4f7840d19caf54abe74e,,,,,,,sngl,resources/Empty.png,resources/DB.BMP,WildCard_NonEx,0.425,-0.047222222,1,0,0,1.281,optionRight,45,7140,3,41,0,41,0,1,,,,,,,,,,,,,,,,,,,,,,,,,,,,,,,,,,,,,,,
,,,,,,,,2023-08-06_08h45.24.954,HF_wild_card,2022.2.4,Win32,59.95203837,6160c8f657e3c4094b01614a,64ce5acb97489d65b14ecc7a,64cf4f7840d19caf54abe74e,,,,,,,decisionTrl,resources/DY.BMP,resources/DG.BMP,Door3,-0.381481481,0.018518519,1,0,0,2.481,optionLeft,70,7210,3,42,0,42,0,1,,,,,,,,,,,,,,,,,,,,,,,,,,,,,,,,,,,,,,,
,,,,,,,,2023-08-06_08h45.24.954,HF_wild_card,2022.2.4,Win32,59.95203837,6160c8f657e3c4094b01614a,64ce5acb97489d65b14ecc7a,64cf4f7840d19caf54abe74e,,,,,,,ctch,resources/DP.BMP,resources/DY.BMP,Door3,0.325,-0.05,1,0,0,1.129,optionRight,70,7280,3,43,0,43,0,1,,,,,,,,,,,,,,,,,,,,,,,,,,,,,,,,,,,,,,,
,,,,,,,,2023-08-06_08h45.24.954,HF_wild_card,2022.2.4,Win32,59.95203837,6160c8f657e3c4094b01614a,64ce5acb97489d65b14ecc7a,64cf4f7840d19caf54abe74e,,,,,,,,,,,,,,,,,,,,,,,,,,2,0,2,0,1,,,,,,,,,,,,,,,,,,,,,,,,,,,,,,,,,,
,,,,,,,,2023-08-06_08h45.24.954,HF_wild_card,2022.2.4,Win32,59.95203837,6160c8f657e3c4094b01614a,64ce5acb97489d65b14ecc7a,64cf4f7840d19caf54abe74e,,,,,,,decisionTrl,resources/DG.BMP,resources/DY.BMP,Door3,0.228703704,-0.142592593,1,0,0,0.906,optionRight,70,7350,4,0,0,0,0,1,,,,,,,,,,,,,,,,,,,,,,,,,,,,,,,,,,,,,,,
,,,,,,,,2023-08-06_08h45.24.954,HF_wild_card,2022.2.4,Win32,59.95203837,6160c8f657e3c4094b01614a,64ce5acb97489d65b14ecc7a,64cf4f7840d19caf54abe74e,,,,,,,decisionTrl,resources/DBN.BMP,resources/DR.BMP,WildCard_Ex,0.269444444,-0.038888889,1,0,0,1.513,optionRight,55,7405,4,1,0,1,0,1,,,,,,,,,,,,,,,,,,,,,,,,,,,,,,,,,,,,,,,
,,,,,,,,2023-08-06_08h45.24.954,HF_wild_card,2022.2.4,Win32,59.95203837,6160c8f657e3c4094b01614a,64ce5acb97489d65b14ecc7a,64cf4f7840d19caf54abe74e,,,,,,,decisionTrl,resources/DBN.BMP,resources/DP.BMP,Door1,-0.383333333,-0.009259259,1,0,0,1.546,optionLeft,30,7435,4,2,0,2,0,1,,,,,,,,,,,,,,,,,,,,,,,,,,,,,,,,,,,,,,,
,,,,,,,,2023-08-06_08h45.24.954,HF_wild_card,2022.2.4,Win32,59.95203837,6160c8f657e3c4094b01614a,64ce5acb97489d65b14ecc7a,64cf4f7840d19caf54abe74e,,,,,,,ctch,resources/DY.BMP,resources/DP.BMP,Door3,-0.238888889,0.000925926,1,0,0,0.828,optionLeft,70,7505,4,3,0,3,0,1,,,,,,,,,,,,,,,,,,,,,,,,,,,,,,,,,,,,,,,
,,,,,,,,2023-08-06_08h45.24.954,HF_wild_card,2022.2.4,Win32,59.95203837,6160c8f657e3c4094b01614a,64ce5acb97489d65b14ecc7a,64cf4f7840d19caf54abe74e,,,,,,,ctch,resources/DP.BMP,resources/DY.BMP,Door3,0.305555556,-0.059259259,1,0,0,0.913,optionRight,70,7575,4,4,0,4,0,1,,,,,,,,,,,,,,,,,,,,,,,,,,,,,,,,,,,,,,,
,,,,,,,,2023-08-06_08h45.24.954,HF_wild_card,2022.2.4,Win32,59.95203837,6160c8f657e3c4094b01614a,64ce5acb97489d65b14ecc7a,64cf4f7840d19caf54abe74e,,,,,,,decisionTrl,resources/DG.BMP,resources/DY.BMP,Door3,0.283333333,-0.038888889,1,0,0,0.746,optionRight,70,7645,4,5,0,5,0,1,,,,,,,,,,,,,,,,,,,,,,,,,,,,,,,,,,,,,,,
,,,,,,,,2023-08-06_08h45.24.954,HF_wild_card,2022.2.4,Win32,59.95203837,6160c8f657e3c4094b01614a,64ce5acb97489d65b14ecc7a,64cf4f7840d19caf54abe74e,,,,,,,decisionTrl,resources/DY.BMP,resources/DG.BMP,Door3,-0.275,0.057407407,1,0,0,0.864,optionLeft,70,7715,4,6,0,6,0,1,,,,,,,,,,,,,,,,,,,,,,,,,,,,,,,,,,,,,,,
,,,,,,,,2023-08-06_08h45.24.954,HF_wild_card,2022.2.4,Win32,59.95203837,6160c8f657e3c4094b01614a,64ce5acb97489d65b14ecc7a,64cf4f7840d19caf54abe74e,,,,,,,sngl,resources/Empty.png,resources/DR.BMP,WildCard_Ex,0.193518519,-0.009259259,1,0,0,0.711,optionRight,45,7760,4,7,0,7,0,1,,,,,,,,,,,,,,,,,,,,,,,,,,,,,,,,,,,,,,,
,,,,,,,,2023-08-06_08h45.24.954,HF_wild_card,2022.2.4,Win32,59.95203837,6160c8f657e3c4094b01614a,64ce5acb97489d65b14ecc7a,64cf4f7840d19caf54abe74e,,,,,,,sngl,resources/DP.BMP,resources/Empty.png,Door2,-0.200925926,0.000925926,1,0,0,0.796,optionLeft,20,7780,4,8,0,8,0,1,,,,,,,,,,,,,,,,,,,,,,,,,,,,,,,,,,,,,,,
,,,,,,,,2023-08-06_08h45.24.954,HF_wild_card,2022.2.4,Win32,59.95203837,6160c8f657e3c4094b01614a,64ce5acb97489d65b14ecc7a,64cf4f7840d19caf54abe74e,,,,,,,decisionTrl,resources/DR.BMP,resources/DP.BMP,WildCard_Ex,-0.312037037,0.031481481,1,0,0,0.846,optionLeft,45,7825,4,9,0,9,0,1,,,,,,,,,,,,,,,,,,,,,,,,,,,,,,,,,,,,,,,
,,,,,,,,2023-08-06_08h45.24.954,HF_wild_card,2022.2.4,Win32,59.95203837,6160c8f657e3c4094b01614a,64ce5acb97489d65b14ecc7a,64cf4f7840d19caf54abe74e,,,,,,,decisionTrl,resources/DBN.BMP,resources/DP.BMP,Door1,-0.085185185,0.013888889,1,0,0,1.381,optionLeft,30,7855,4,10,0,10,0,1,,,,,,,,,,,,,,,,,,,,,,,,,,,,,,,,,,,,,,,
,,,,,,,,2023-08-06_08h45.24.954,HF_wild_card,2022.2.4,Win32,59.95203837,6160c8f657e3c4094b01614a,64ce5acb97489d65b14ecc7a,64cf4f7840d19caf54abe74e,,,,,,,decisionTrl,resources/DP.BMP,resources/DBN.BMP,Door2,-0.27962963,0.000925926,1,0,0,1.098,optionLeft,20,7875,4,11,0,11,0,1,,,,,,,,,,,,,,,,,,,,,,,,,,,,,,,,,,,,,,,
,,,,,,,,2023-08-06_08h45.24.954,HF_wild_card,2022.2.4,Win32,59.95203837,6160c8f657e3c4094b01614a,64ce5acb97489d65b14ecc7a,64cf4f7840d19caf54abe74e,,,,,,,ctch,resources/DP.BMP,resources/DY.BMP,Door3,0.226851852,-0.012037037,1,0,0,0.611,optionRight,70,7945,4,12,0,12,0,1,,,,,,,,,,,,,,,,,,,,,,,,,,,,,,,,,,,,,,,
,,,,,,,,2023-08-06_08h45.24.954,HF_wild_card,2022.2.4,Win32,59.95203837,6160c8f657e3c4094b01614a,64ce5acb97489d65b14ecc7a,64cf4f7840d19caf54abe74e,,,,,,,ctch,resources/DBN.BMP,resources/DG.BMP,Door4,0.300925926,0.021296296,1,0,0,0.995,optionRight,60,8005,4,13,0,13,0,1,,,,,,,,,,,,,,,,,,,,,,,,,,,,,,,,,,,,,,,
,,,,,,,,2023-08-06_08h45.24.954,HF_wild_card,2022.2.4,Win32,59.95203837,6160c8f657e3c4094b01614a,64ce5acb97489d65b14ecc7a,64cf4f7840d19caf54abe74e,,,,,,,ctch,resources/DY.BMP,resources/DP.BMP,Door3,-0.460185185,0.009259259,1,0,0,1.446,optionLeft,70,8075,4,14,0,14,0,1,,,,,,,,,,,,,,,,,,,,,,,,,,,,,,,,,,,,,,,
,,,,,,,,2023-08-06_08h45.24.954,HF_wild_card,2022.2.4,Win32,59.95203837,6160c8f657e3c4094b01614a,64ce5acb97489d65b14ecc7a,64cf4f7840d19caf54abe74e,,,,,,,decisionTrl,resources/DY.BMP,resources/DG.BMP,Door3,-0.221296296,0.011111111,1,0,0,1.03,optionLeft,70,8145,4,15,0,15,0,1,,,,,,,,,,,,,,,,,,,,,,,,,,,,,,,,,,,,,,,
,,,,,,,,2023-08-06_08h45.24.954,HF_wild_card,2022.2.4,Win32,59.95203837,6160c8f657e3c4094b01614a,64ce5acb97489d65b14ecc7a,64cf4f7840d19caf54abe74e,,,,,,,sngl,resources/Empty.png,resources/DR.BMP,WildCard_Ex,0.12962963,-0.02037037,1,0,0,0.712,optionRight,55,8200,4,16,0,16,0,1,,,,,,,,,,,,,,,,,,,,,,,,,,,,,,,,,,,,,,,
,,,,,,,,2023-08-06_08h45.24.954,HF_wild_card,2022.2.4,Win32,59.95203837,6160c8f657e3c4094b01614a,64ce5acb97489d65b14ecc7a,64cf4f7840d19caf54abe74e,,,,,,,decisionTrl,resources/DY.BMP,resources/DG.BMP,Door3,-0.421296296,0.037037037,1,0,0,0.913,optionLeft,70,8270,4,17,0,17,0,1,,,,,,,,,,,,,,,,,,,,,,,,,,,,,,,,,,,,,,,
,,,,,,,,2023-08-06_08h45.24.954,HF_wild_card,2022.2.4,Win32,59.95203837,6160c8f657e3c4094b01614a,64ce5acb97489d65b14ecc7a,64cf4f7840d19caf54abe74e,,,,,,,decisionTrl,resources/DP.BMP,resources/DBN.BMP,Door1,0.241666667,0.000925926,1,0,0,0.895,optionRight,30,8300,4,18,0,18,0,1,,,,,,,,,,,,,,,,,,,,,,,,,,,,,,,,,,,,,,,
,,,,,,,,2023-08-06_08h45.24.954,HF_wild_card,2022.2.4,Win32,59.95203837,6160c8f657e3c4094b01614a,64ce5acb97489d65b14ecc7a,64cf4f7840d19caf54abe74e,,,,,,,sngl,resources/Empty.png,resources/DBN.BMP,Door1,0.171296296,-0.008333333,1,0,0,0.546,optionRight,30,8330,4,19,0,19,0,1,,,,,,,,,,,,,,,,,,,,,,,,,,,,,,,,,,,,,,,
,,,,,,,,2023-08-06_08h45.24.954,HF_wild_card,2022.2.4,Win32,59.95203837,6160c8f657e3c4094b01614a,64ce5acb97489d65b14ecc7a,64cf4f7840d19caf54abe74e,,,,,,,ctch,resources/DG.BMP,resources/DBN.BMP,Door4,-0.171296296,0.009259259,1,0,0,0.88,optionLeft,60,8390,4,20,0,20,0,1,,,,,,,,,,,,,,,,,,,,,,,,,,,,,,,,,,,,,,,
,,,,,,,,2023-08-06_08h45.24.954,HF_wild_card,2022.2.4,Win32,59.95203837,6160c8f657e3c4094b01614a,64ce5acb97489d65b14ecc7a,64cf4f7840d19caf54abe74e,,,,,,,decisionTrl,resources/DY.BMP,resources/DR.BMP,Door3,-0.243518519,0.008333333,1,0,0,1.097,optionLeft,70,8460,4,21,0,21,0,1,,,,,,,,,,,,,,,,,,,,,,,,,,,,,,,,,,,,,,,
,,,,,,,,2023-08-06_08h45.24.954,HF_wild_card,2022.2.4,Win32,59.95203837,6160c8f657e3c4094b01614a,64ce5acb97489d65b14ecc7a,64cf4f7840d19caf54abe74e,,,,,,,ctch,resources/DG.BMP,resources/DBN.BMP,Door4,-0.191666667,0.001851852,1,0,0,0.762,optionLeft,80,8540,4,22,0,22,0,1,,,,,,,,,,,,,,,,,,,,,,,,,,,,,,,,,,,,,,,
,,,,,,,,2023-08-06_08h45.24.954,HF_wild_card,2022.2.4,Win32,59.95203837,6160c8f657e3c4094b01614a,64ce5acb97489d65b14ecc7a,64cf4f7840d19caf54abe74e,,,,,,,decisionTrl,resources/DG.BMP,resources/DR.BMP,Door4,-0.172222222,0.024074074,1,0,0,1.025,optionLeft,60,8600,4,23,0,23,0,1,,,,,,,,,,,,,,,,,,,,,,,,,,,,,,,,,,,,,,,
,,,,,,,,2023-08-06_08h45.24.954,HF_wild_card,2022.2.4,Win32,59.95203837,6160c8f657e3c4094b01614a,64ce5acb97489d65b14ecc7a,64cf4f7840d19caf54abe74e,,,,,,,decisionTrl,resources/DR.BMP,resources/DBN.BMP,WildCard_Ex,-0.37037037,0.030555556,1,0,0,1.096,optionLeft,45,8645,4,24,0,24,0,1,,,,,,,,,,,,,,,,,,,,,,,,,,,,,,,,,,,,,,,
,,,,,,,,2023-08-06_08h45.24.954,HF_wild_card,2022.2.4,Win32,59.95203837,6160c8f657e3c4094b01614a,64ce5acb97489d65b14ecc7a,64cf4f7840d19caf54abe74e,,,,,,,sngl,resources/DG.BMP,resources/Empty.png,Door4,-0.532407407,0.062037037,1,0,0,0.562,optionLeft,60,8705,4,25,0,25,0,1,,,,,,,,,,,,,,,,,,,,,,,,,,,,,,,,,,,,,,,
,,,,,,,,2023-08-06_08h45.24.954,HF_wild_card,2022.2.4,Win32,59.95203837,6160c8f657e3c4094b01614a,64ce5acb97489d65b14ecc7a,64cf4f7840d19caf54abe74e,,,,,,,sngl,resources/Empty.png,resources/DP.BMP,Door2,0.167592593,0.013888889,1,0,0,0.511,optionRight,40,8745,4,26,0,26,0,1,,,,,,,,,,,,,,,,,,,,,,,,,,,,,,,,,,,,,,,
,,,,,,,,2023-08-06_08h45.24.954,HF_wild_card,2022.2.4,Win32,59.95203837,6160c8f657e3c4094b01614a,64ce5acb97489d65b14ecc7a,64cf4f7840d19caf54abe74e,,,,,,,decisionTrl,resources/DBN.BMP,resources/DP.BMP,Door1,-0.457407407,0.07962963,1,0,0,1.33,optionLeft,30,8775,4,27,0,27,0,1,,,,,,,,,,,,,,,,,,,,,,,,,,,,,,,,,,,,,,,
,,,,,,,,2023-08-06_08h45.24.954,HF_wild_card,2022.2.4,Win32,59.95203837,6160c8f657e3c4094b01614a,64ce5acb97489d65b14ecc7a,64cf4f7840d19caf54abe74e,,,,,,,ctch,resources/DBN.BMP,resources/DG.BMP,Door4,0.200925926,-0.005555556,1,0,0,0.73,optionRight,80,8855,4,28,0,28,0,1,,,,,,,,,,,,,,,,,,,,,,,,,,,,,,,,,,,,,,,
,,,,,,,,2023-08-06_08h45.24.954,HF_wild_card,2022.2.4,Win32,59.95203837,6160c8f657e3c4094b01614a,64ce5acb97489d65b14ecc7a,64cf4f7840d19caf54abe74e,,,,,,,sngl,resources/Empty.png,resources/DG.BMP,Door4,0.199074074,-0.002777778,1,0,0,0.58,optionRight,80,8935,4,29,0,29,0,1,,,,,,,,,,,,,,,,,,,,,,,,,,,,,,,,,,,,,,,
,,,,,,,,2023-08-06_08h45.24.954,HF_wild_card,2022.2.4,Win32,59.95203837,6160c8f657e3c4094b01614a,64ce5acb97489d65b14ecc7a,64cf4f7840d19caf54abe74e,,,,,,,sngl,resources/Empty.png,resources/DY.BMP,Door3,0.202777778,0.002777778,1,0,0,0.546,optionRight,70,9005,4,30,0,30,0,1,,,,,,,,,,,,,,,,,,,,,,,,,,,,,,,,,,,,,,,
,,,,,,,,2023-08-06_08h45.24.954,HF_wild_card,2022.2.4,Win32,59.95203837,6160c8f657e3c4094b01614a,64ce5acb97489d65b14ecc7a,64cf4f7840d19caf54abe74e,,,,,,,sngl,resources/DBN.BMP,resources/Empty.png,Door1,-0.549074074,0.016666667,1,0,0,0.797,optionLeft,30,9035,4,31,0,31,0,1,,,,,,,,,,,,,,,,,,,,,,,,,,,,,,,,,,,,,,,
,,,,,,,,2023-08-06_08h45.24.954,HF_wild_card,2022.2.4,Win32,59.95203837,6160c8f657e3c4094b01614a,64ce5acb97489d65b14ecc7a,64cf4f7840d19caf54abe74e,,,,,,,sngl,resources/DR.BMP,resources/Empty.png,WildCard_Ex,-0.252777778,0.04537037,1,0,0,0.547,optionLeft,45,9080,4,32,0,32,0,1,,,,,,,,,,,,,,,,,,,,,,,,,,,,,,,,,,,,,,,
,,,,,,,,2023-08-06_08h45.24.954,HF_wild_card,2022.2.4,Win32,59.95203837,6160c8f657e3c4094b01614a,64ce5acb97489d65b14ecc7a,64cf4f7840d19caf54abe74e,,,,,,,decisionTrl,resources/DY.BMP,resources/DG.BMP,Door3,-0.197222222,0.010185185,1,0,0,0.893,optionLeft,70,9150,4,33,0,33,0,1,,,,,,,,,,,,,,,,,,,,,,,,,,,,,,,,,,,,,,,
,,,,,,,,2023-08-06_08h45.24.954,HF_wild_card,2022.2.4,Win32,59.95203837,6160c8f657e3c4094b01614a,64ce5acb97489d65b14ecc7a,64cf4f7840d19caf54abe74e,,,,,,,decisionTrl,resources/DP.BMP,resources/DBN.BMP,Door2,-0.311111111,-0.009259259,1,0,0,1.129,optionLeft,20,9170,4,34,0,34,0,1,,,,,,,,,,,,,,,,,,,,,,,,,,,,,,,,,,,,,,,
,,,,,,,,2023-08-06_08h45.24.954,HF_wild_card,2022.2.4,Win32,59.95203837,6160c8f657e3c4094b01614a,64ce5acb97489d65b14ecc7a,64cf4f7840d19caf54abe74e,,,,,,,decisionTrl,resources/DR.BMP,resources/DY.BMP,Door3,0.167592593,0.00462963,1,0,0,0.863,optionRight,70,9240,4,35,0,35,0,1,,,,,,,,,,,,,,,,,,,,,,,,,,,,,,,,,,,,,,,
,,,,,,,,2023-08-06_08h45.24.954,HF_wild_card,2022.2.4,Win32,59.95203837,6160c8f657e3c4094b01614a,64ce5acb97489d65b14ecc7a,64cf4f7840d19caf54abe74e,,,,,,,sngl,resources/DY.BMP,resources/Empty.png,Door3,-0.249074074,-0.032407407,1,0,0,0.698,optionLeft,70,9310,4,36,0,36,0,1,,,,,,,,,,,,,,,,,,,,,,,,,,,,,,,,,,,,,,,
,,,,,,,,2023-08-06_08h45.24.954,HF_wild_card,2022.2.4,Win32,59.95203837,6160c8f657e3c4094b01614a,64ce5acb97489d65b14ecc7a,64cf4f7840d19caf54abe74e,,,,,,,decisionTrl,resources/DP.BMP,resources/DR.BMP,WildCard_Ex,0.37037037,0.003703704,1,0,0,1.359,optionRight,55,9365,4,37,0,37,0,1,,,,,,,,,,,,,,,,,,,,,,,,,,,,,,,,,,,,,,,
,,,,,,,,2023-08-06_08h45.24.954,HF_wild_card,2022.2.4,Win32,59.95203837,6160c8f657e3c4094b01614a,64ce5acb97489d65b14ecc7a,64cf4f7840d19caf54abe74e,,,,,,,decisionTrl,resources/DG.BMP,resources/DY.BMP,Door3,0.205555556,-0.013888889,1,0,0,0.696,optionRight,70,9435,4,38,0,38,0,1,,,,,,,,,,,,,,,,,,,,,,,,,,,,,,,,,,,,,,,
,,,,,,,,2023-08-06_08h45.24.954,HF_wild_card,2022.2.4,Win32,59.95203837,6160c8f657e3c4094b01614a,64ce5acb97489d65b14ecc7a,64cf4f7840d19caf54abe74e,,,,,,,decisionTrl,resources/DG.BMP,resources/DY.BMP,Door3,0.232407407,-0.042592593,1,0,0,0.646,optionRight,70,9505,4,39,0,39,0,1,,,,,,,,,,,,,,,,,,,,,,,,,,,,,,,,,,,,,,,
,,,,,,,,2023-08-06_08h45.24.954,HF_wild_card,2022.2.4,Win32,59.95203837,6160c8f657e3c4094b01614a,64ce5acb97489d65b14ecc7a,64cf4f7840d19caf54abe74e,,,,,,,sngl,resources/DR.BMP,resources/Empty.png,WildCard_Ex,-0.203703704,0.033333333,1,0,0,0.511,optionLeft,55,9560,4,40,0,40,0,1,,,,,,,,,,,,,,,,,,,,,,,,,,,,,,,,,,,,,,,
,,,,,,,,2023-08-06_08h45.24.954,HF_wild_card,2022.2.4,Win32,59.95203837,6160c8f657e3c4094b01614a,64ce5acb97489d65b14ecc7a,64cf4f7840d19caf54abe74e,,,,,,,decisionTrl,resources/DP.BMP,resources/DBN.BMP,Door1,0.180555556,0.006481481,1,0,0,0.913,optionRight,30,9590,4,41,0,41,0,1,,,,,,,,,,,,,,,,,,,,,,,,,,,,,,,,,,,,,,,
,,,,,,,,2023-08-06_08h45.24.954,HF_wild_card,2022.2.4,Win32,59.95203837,6160c8f657e3c4094b01614a,64ce5acb97489d65b14ecc7a,64cf4f7840d19caf54abe74e,,,,,,,decisionTrl,resources/DR.BMP,resources/DG.BMP,Door4,0.440740741,-0.027777778,1,0,0,0.947,optionRight,80,9670,4,42,0,42,0,1,,,,,,,,,,,,,,,,,,,,,,,,,,,,,,,,,,,,,,,
,,,,,,,,2023-08-06_08h45.24.954,HF_wild_card,2022.2.4,Win32,59.95203837,6160c8f657e3c4094b01614a,64ce5acb97489d65b14ecc7a,64cf4f7840d19caf54abe74e,,,,,,,decisionTrl,resources/DBN.BMP,resources/DP.BMP,Door1,-0.312962963,0.032407407,1,0,0,1.164,optionLeft,30,9700,4,43,0,43,0,1,,,,,,,,,,,,,,,,,,,,,,,,,,,,,,,,,,,,,,,
,,,,,,,,2023-08-06_08h45.24.954,HF_wild_card,2022.2.4,Win32,59.95203837,6160c8f657e3c4094b01614a,64ce5acb97489d65b14ecc7a,64cf4f7840d19caf54abe74e,,,,,,,,,,,,,,,,,,,,,,,,,,3,0,3,0,1,,,,,,,,,,,,,,,,,,,,,,,,,,,,,,,,,,
,,,,,,,,2023-08-06_08h45.24.954,HF_wild_card,2022.2.4,Win32,59.95203837,6160c8f657e3c4094b01614a,64ce5acb97489d65b14ecc7a,64cf4f7840d19caf54abe74e,,,,,,,sngl,resources/Empty.png,resources/DR.BMP,WildCard_Ex,0.428703704,-0.132407407,1,0,0,0.695,optionRight,55,9755,5,0,0,0,0,1,,,,,,,,,,,,,,,,,,,,,,,,,,,,,,,,,,,,,,,
,,,,,,,,2023-08-06_08h45.24.954,HF_wild_card,2022.2.4,Win32,59.95203837,6160c8f657e3c4094b01614a,64ce5acb97489d65b14ecc7a,64cf4f7840d19caf54abe74e,,,,,,,decisionTrl,resources/DY.BMP,resources/DG.BMP,Door3,-0.302777778,-0.011111111,1,0,0,0.798,optionLeft,70,9825,5,1,0,1,0,1,,,,,,,,,,,,,,,,,,,,,,,,,,,,,,,,,,,,,,,
,,,,,,,,2023-08-06_08h45.24.954,HF_wild_card,2022.2.4,Win32,59.95203837,6160c8f657e3c4094b01614a,64ce5acb97489d65b14ecc7a,64cf4f7840d19caf54abe74e,,,,,,,ctch,resources/DP.BMP,resources/DY.BMP,Door3,0.227777778,-0.003703704,1,0,0,1.214,optionRight,70,9895,5,2,0,2,0,1,,,,,,,,,,,,,,,,,,,,,,,,,,,,,,,,,,,,,,,
,,,,,,,,2023-08-06_08h45.24.954,HF_wild_card,2022.2.4,Win32,59.95203837,6160c8f657e3c4094b01614a,64ce5acb97489d65b14ecc7a,64cf4f7840d19caf54abe74e,,,,,,,decisionTrl,resources/DP.BMP,resources/DBN.BMP,Door1,0.22962963,0.02962963,1,0,0,0.98,optionRight,30,9925,5,3,0,3,0,1,,,,,,,,,,,,,,,,,,,,,,,,,,,,,,,,,,,,,,,
,,,,,,,,2023-08-06_08h45.24.954,HF_wild_card,2022.2.4,Win32,59.95203837,6160c8f657e3c4094b01614a,64ce5acb97489d65b14ecc7a,64cf4f7840d19caf54abe74e,,,,,,,sngl,resources/DR.BMP,resources/Empty.png,WildCard_Ex,-0.344444444,0.021296296,1,0,0,0.546,optionLeft,55,9980,5,4,0,4,0,1,,,,,,,,,,,,,,,,,,,,,,,,,,,,,,,,,,,,,,,
,,,,,,,,2023-08-06_08h45.24.954,HF_wild_card,2022.2.4,Win32,59.95203837,6160c8f657e3c4094b01614a,64ce5acb97489d65b14ecc7a,64cf4f7840d19caf54abe74e,,,,,,,sngl,resources/Empty.png,resources/DBN.BMP,Door1,0.241666667,-0.001851852,1,0,0,0.558,optionRight,30,10010,5,5,0,5,0,1,,,,,,,,,,,,,,,,,,,,,,,,,,,,,,,,,,,,,,,
,,,,,,,,2023-08-06_08h45.24.954,HF_wild_card,2022.2.4,Win32,59.95203837,6160c8f657e3c4094b01614a,64ce5acb97489d65b14ecc7a,64cf4f7840d19caf54abe74e,,,,,,,sngl,resources/Empty.png,resources/DY.BMP,Door3,0.234259259,0.040740741,1,0,0,0.563,optionRight,70,10080,5,6,0,6,0,1,,,,,,,,,,,,,,,,,,,,,,,,,,,,,,,,,,,,,,,
,,,,,,,,2023-08-06_08h45.24.954,HF_wild_card,2022.2.4,Win32,59.95203837,6160c8f657e3c4094b01614a,64ce5acb97489d65b14ecc7a,64cf4f7840d19caf54abe74e,,,,,,,decisionTrl,resources/DP.BMP,resources/DBN.BMP,Door1,0.426851852,-0.017592593,1,0,0,0.845,optionRight,30,10110,5,7,0,7,0,1,,,,,,,,,,,,,,,,,,,,,,,,,,,,,,,,,,,,,,,
,,,,,,,,2023-08-06_08h45.24.954,HF_wild_card,2022.2.4,Win32,59.95203837,6160c8f657e3c4094b01614a,64ce5acb97489d65b14ecc7a,64cf4f7840d19caf54abe74e,,,,,,,decisionTrl,resources/DY.BMP,resources/DG.BMP,Door3,-0.177777778,-0.001851852,1,0,0,0.795,optionLeft,70,10180,5,8,0,8,0,1,,,,,,,,,,,,,,,,,,,,,,,,,,,,,,,,,,,,,,,
,,,,,,,,2023-08-06_08h45.24.954,HF_wild_card,2022.2.4,Win32,59.95203837,6160c8f657e3c4094b01614a,64ce5acb97489d65b14ecc7a,64cf4f7840d19caf54abe74e,,,,,,,sngl,resources/Empty.png,resources/DP.BMP,Door2,0.22962963,-0.007407407,1,0,0,0.562,optionRight,20,10200,5,9,0,9,0,1,,,,,,,,,,,,,,,,,,,,,,,,,,,,,,,,,,,,,,,
,,,,,,,,2023-08-06_08h45.24.954,HF_wild_card,2022.2.4,Win32,59.95203837,6160c8f657e3c4094b01614a,64ce5acb97489d65b14ecc7a,64cf4f7840d19caf54abe74e,,,,,,,ctch,resources/DG.BMP,resources/DBN.BMP,Door4,-0.337037037,0.026851852,1,0,0,1.18,optionLeft,80,10280,5,10,0,10,0,1,,,,,,,,,,,,,,,,,,,,,,,,,,,,,,,,,,,,,,,
,,,,,,,,2023-08-06_08h45.24.954,HF_wild_card,2022.2.4,Win32,59.95203837,6160c8f657e3c4094b01614a,64ce5acb97489d65b14ecc7a,64cf4f7840d19caf54abe74e,,,,,,,decisionTrl,resources/DY.BMP,resources/DR.BMP,Door3,-0.272222222,0.023148148,1,0,0,1.278,optionLeft,70,10350,5,11,0,11,0,1,,,,,,,,,,,,,,,,,,,,,,,,,,,,,,,,,,,,,,,
,,,,,,,,2023-08-06_08h45.24.954,HF_wild_card,2022.2.4,Win32,59.95203837,6160c8f657e3c4094b01614a,64ce5acb97489d65b14ecc7a,64cf4f7840d19caf54abe74e,,,,,,,sngl,resources/DY.BMP,resources/Empty.png,Door3,-0.223148148,0.067592593,1,0,0,0.512,optionLeft,70,10420,5,12,0,12,0,1,,,,,,,,,,,,,,,,,,,,,,,,,,,,,,,,,,,,,,,
,,,,,,,,2023-08-06_08h45.24.954,HF_wild_card,2022.2.4,Win32,59.95203837,6160c8f657e3c4094b01614a,64ce5acb97489d65b14ecc7a,64cf4f7840d19caf54abe74e,,,,,,,sngl,resources/Empty.png,resources/DG.BMP,Door4,0.417592593,-0.07962963,1,0,0,0.496,optionRight,60,10480,5,13,0,13,0,1,,,,,,,,,,,,,,,,,,,,,,,,,,,,,,,,,,,,,,,
,,,,,,,,2023-08-06_08h45.24.954,HF_wild_card,2022.2.4,Win32,59.95203837,6160c8f657e3c4094b01614a,64ce5acb97489d65b14ecc7a,64cf4f7840d19caf54abe74e,,,,,,,ctch,resources/DY.BMP,resources/DP.BMP,Door3,-0.371296296,0.046296296,1,0,0,1.113,optionLeft,70,10550,5,14,0,14,0,1,,,,,,,,,,,,,,,,,,,,,,,,,,,,,,,,,,,,,,,
,,,,,,,,2023-08-06_08h45.24.954,HF_wild_card,2022.2.4,Win32,59.95203837,6160c8f657e3c4094b01614a,64ce5acb97489d65b14ecc7a,64cf4f7840d19caf54abe74e,,,,,,,decisionTrl,resources/DG.BMP,resources/DR.BMP,Door4,-0.396296296,0.051851852,1,0,0,1.047,optionLeft,80,10630,5,15,0,15,0,1,,,,,,,,,,,,,,,,,,,,,,,,,,,,,,,,,,,,,,,
,,,,,,,,2023-08-06_08h45.24.954,HF_wild_card,2022.2.4,Win32,59.95203837,6160c8f657e3c4094b01614a,64ce5acb97489d65b14ecc7a,64cf4f7840d19caf54abe74e,,,,,,,decisionTrl,resources/DBN.BMP,resources/DR.BMP,WildCard_Ex,0.394444444,0.014814815,1,0,0,1.23,optionRight,45,10675,5,16,0,16,0,1,,,,,,,,,,,,,,,,,,,,,,,,,,,,,,,,,,,,,,,
,,,,,,,,2023-08-06_08h45.24.954,HF_wild_card,2022.2.4,Win32,59.95203837,6160c8f657e3c4094b01614a,64ce5acb97489d65b14ecc7a,64cf4f7840d19caf54abe74e,,,,,,,decisionTrl,resources/DG.BMP,resources/DY.BMP,Door3,0.253703704,-0.018518519,1,0,0,0.795,optionRight,70,10745,5,17,0,17,0,1,,,,,,,,,,,,,,,,,,,,,,,,,,,,,,,,,,,,,,,
,,,,,,,,2023-08-06_08h45.24.954,HF_wild_card,2022.2.4,Win32,59.95203837,6160c8f657e3c4094b01614a,64ce5acb97489d65b14ecc7a,64cf4f7840d19caf54abe74e,,,,,,,ctch,resources/DBN.BMP,resources/DG.BMP,Door4,0.265740741,0.012037037,1,0,0,1.463,optionRight,80,10825,5,18,0,18,0,1,,,,,,,,,,,,,,,,,,,,,,,,,,,,,,,,,,,,,,,
,,,,,,,,2023-08-06_08h45.24.954,HF_wild_card,2022.2.4,Win32,59.95203837,6160c8f657e3c4094b01614a,64ce5acb97489d65b14ecc7a,64cf4f7840d19caf54abe74e,,,,,,,decisionTrl,resources/DP.BMP,resources/DR.BMP,WildCard_Ex,0.226851852,0.010185185,1,0,0,1.397,optionRight,55,10880,5,19,0,19,0,1,,,,,,,,,,,,,,,,,,,,,,,,,,,,,,,,,,,,,,,
,,,,,,,,2023-08-06_08h45.24.954,HF_wild_card,2022.2.4,Win32,59.95203837,6160c8f657e3c4094b01614a,64ce5acb97489d65b14ecc7a,64cf4f7840d19caf54abe74e,,,,,,,sngl,resources/DG.BMP,resources/Empty.png,Door4,-0.106481481,0.009259259,1,0,0,0.628,optionLeft,80,10960,5,20,0,20,0,1,,,,,,,,,,,,,,,,,,,,,,,,,,,,,,,,,,,,,,,
,,,,,,,,2023-08-06_08h45.24.954,HF_wild_card,2022.2.4,Win32,59.95203837,6160c8f657e3c4094b01614a,64ce5acb97489d65b14ecc7a,64cf4f7840d19caf54abe74e,,,,,,,decisionTrl,resources/DG.BMP,resources/DY.BMP,Door3,0.160185185,0.001851852,1,0,0,0.795,optionRight,70,11030,5,21,0,21,0,1,,,,,,,,,,,,,,,,,,,,,,,,,,,,,,,,,,,,,,,
,,,,,,,,2023-08-06_08h45.24.954,HF_wild_card,2022.2.4,Win32,59.95203837,6160c8f657e3c4094b01614a,64ce5acb97489d65b14ecc7a,64cf4f7840d19caf54abe74e,,,,,,,decisionTrl,resources/DR.BMP,resources/DG.BMP,Door4,0.146296296,-0.008333333,1,0,0,1.069,optionRight,60,11090,5,22,0,22,0,1,,,,,,,,,,,,,,,,,,,,,,,,,,,,,,,,,,,,,,,
,,,,,,,,2023-08-06_08h45.24.954,HF_wild_card,2022.2.4,Win32,59.95203837,6160c8f657e3c4094b01614a,64ce5acb97489d65b14ecc7a,64cf4f7840d19caf54abe74e,,,,,,,decisionTrl,resources/DG.BMP,resources/DY.BMP,Door3,0.251851852,-0.040740741,1,0,0,1.38,optionRight,70,11160,5,23,0,23,0,1,,,,,,,,,,,,,,,,,,,,,,,,,,,,,,,,,,,,,,,
,,,,,,,,2023-08-06_08h45.24.954,HF_wild_card,2022.2.4,Win32,59.95203837,6160c8f657e3c4094b01614a,64ce5acb97489d65b14ecc7a,64cf4f7840d19caf54abe74e,,,,,,,ctch,resources/DP.BMP,resources/DY.BMP,Door3,0.25,-0.037037037,1,0,0,1.029,optionRight,70,11230,5,24,0,24,0,1,,,,,,,,,,,,,,,,,,,,,,,,,,,,,,,,,,,,,,,
,,,,,,,,2023-08-06_08h45.24.954,HF_wild_card,2022.2.4,Win32,59.95203837,6160c8f657e3c4094b01614a,64ce5acb97489d65b14ecc7a,64cf4f7840d19caf54abe74e,,,,,,,decisionTrl,resources/DY.BMP,resources/DG.BMP,Door3,-0.334259259,0.02037037,1,0,0,1.698,optionLeft,70,11300,5,25,0,25,0,1,,,,,,,,,,,,,,,,,,,,,,,,,,,,,,,,,,,,,,,
,,,,,,,,2023-08-06_08h45.24.954,HF_wild_card,2022.2.4,Win32,59.95203837,6160c8f657e3c4094b01614a,64ce5acb97489d65b14ecc7a,64cf4f7840d19caf54abe74e,,,,,,,ctch,resources/DG.BMP,resources/DBN.BMP,Door4,-0.240740741,-0.003703704,1,0,0,0.813,optionLeft,80,11380,5,26,0,26,0,1,,,,,,,,,,,,,,,,,,,,,,,,,,,,,,,,,,,,,,,
,,,,,,,,2023-08-06_08h45.24.954,HF_wild_card,2022.2.4,Win32,59.95203837,6160c8f657e3c4094b01614a,64ce5acb97489d65b14ecc7a,64cf4f7840d19caf54abe74e,,,,,,,decisionTrl,resources/DR.BMP,resources/DBN.BMP,WildCard_Ex,-0.291666667,0.018518519,1,0,0,1.129,optionLeft,45,11425,5,27,0,27,0,1,,,,,,,,,,,,,,,,,,,,,,,,,,,,,,,,,,,,,,,
,,,,,,,,2023-08-06_08h45.24.954,HF_wild_card,2022.2.4,Win32,59.95203837,6160c8f657e3c4094b01614a,64ce5acb97489d65b14ecc7a,64cf4f7840d19caf54abe74e,,,,,,,sngl,resources/DP.BMP,resources/Empty.png,Door2,-0.227777778,-0.008333333,1,0,0,0.864,optionLeft,40,11465,5,28,0,28,0,1,,,,,,,,,,,,,,,,,,,,,,,,,,,,,,,,,,,,,,,
,,,,,,,,2023-08-06_08h45.24.954,HF_wild_card,2022.2.4,Win32,59.95203837,6160c8f657e3c4094b01614a,64ce5acb97489d65b14ecc7a,64cf4f7840d19caf54abe74e,,,,,,,decisionTrl,resources/DBN.BMP,resources/DP.BMP,Door1,-0.169444444,0.012962963,1,0,0,1.146,optionLeft,30,11495,5,29,0,29,0,1,,,,,,,,,,,,,,,,,,,,,,,,,,,,,,,,,,,,,,,
,,,,,,,,2023-08-06_08h45.24.954,HF_wild_card,2022.2.4,Win32,59.95203837,6160c8f657e3c4094b01614a,64ce5acb97489d65b14ecc7a,64cf4f7840d19caf54abe74e,,,,,,,sngl,resources/DBN.BMP,resources/Empty.png,Door1,-0.406481481,0.044444444,1,0,0,0.613,optionLeft,30,11525,5,30,0,30,0,1,,,,,,,,,,,,,,,,,,,,,,,,,,,,,,,,,,,,,,,
,,,,,,,,2023-08-06_08h45.24.954,HF_wild_card,2022.2.4,Win32,59.95203837,6160c8f657e3c4094b01614a,64ce5acb97489d65b14ecc7a,64cf4f7840d19caf54abe74e,,,,,,,decisionTrl,resources/DBN.BMP,resources/DP.BMP,Door1,-0.275925926,0.016666667,1,0,0,1.163,optionLeft,30,11555,5,31,0,31,0,1,,,,,,,,,,,,,,,,,,,,,,,,,,,,,,,,,,,,,,,
,,,,,,,,2023-08-06_08h45.24.954,HF_wild_card,2022.2.4,Win32,59.95203837,6160c8f657e3c4094b01614a,64ce5acb97489d65b14ecc7a,64cf4f7840d19caf54abe74e,,,,,,,decisionTrl,resources/DBN.BMP,resources/DP.BMP,Door1,-0.283333333,0.027777778,1,0,0,1.21,optionLeft,30,11585,5,32,0,32,0,1,,,,,,,,,,,,,,,,,,,,,,,,,,,,,,,,,,,,,,,
,,,,,,,,2023-08-06_08h45.24.954,HF_wild_card,2022.2.4,Win32,59.95203837,6160c8f657e3c4094b01614a,64ce5acb97489d65b14ecc7a,64cf4f7840d19caf54abe74e,,,,,,,decisionTrl,resources/DBN.BMP,resources/DP.BMP,Door1,-0.207407407,0.022222222,1,0,0,1.48,optionLeft,30,11615,5,33,0,33,0,1,,,,,,,,,,,,,,,,,,,,,,,,,,,,,,,,,,,,,,,
,,,,,,,,2023-08-06_08h45.24.954,HF_wild_card,2022.2.4,Win32,59.95203837,6160c8f657e3c4094b01614a,64ce5acb97489d65b14ecc7a,64cf4f7840d19caf54abe74e,,,,,,,decisionTrl,resources/DR.BMP,resources/DY.BMP,Door3,0.219444444,-0.038888889,1,0,0,1.095,optionRight,70,11685,5,34,0,34,0,1,,,,,,,,,,,,,,,,,,,,,,,,,,,,,,,,,,,,,,,
,,,,,,,,2023-08-06_08h45.24.954,HF_wild_card,2022.2.4,Win32,59.95203837,6160c8f657e3c4094b01614a,64ce5acb97489d65b14ecc7a,64cf4f7840d19caf54abe74e,,,,,,,decisionTrl,resources/DP.BMP,resources/DBN.BMP,Door1,0.40462963,-0.060185185,1,0,0,1.245,optionRight,30,11715,5,35,0,35,0,1,,,,,,,,,,,,,,,,,,,,,,,,,,,,,,,,,,,,,,,
,,,,,,,,2023-08-06_08h45.24.954,HF_wild_card,2022.2.4,Win32,59.95203837,6160c8f657e3c4094b01614a,64ce5acb97489d65b14ecc7a,64cf4f7840d19caf54abe74e,,,,,,,sngl,resources/Empty.png,resources/DR.BMP,WildCard_Ex,0.302777778,-0.025925926,1,0,0,0.83,optionRight,45,11760,5,36,0,36,0,1,,,,,,,,,,,,,,,,,,,,,,,,,,,,,,,,,,,,,,,
,,,,,,,,2023-08-06_08h45.24.954,HF_wild_card,2022.2.4,Win32,59.95203837,6160c8f657e3c4094b01614a,64ce5acb97489d65b14ecc7a,64cf4f7840d19caf54abe74e,,,,,,,decisionTrl,resources/DY.BMP,resources/DG.BMP,Door3,-0.110185185,0.023148148,1,0,0,0.944,optionLeft,70,11830,5,37,0,37,0,1,,,,,,,,,,,,,,,,,,,,,,,,,,,,,,,,,,,,,,,
,,,,,,,,2023-08-06_08h45.24.954,HF_wild_card,2022.2.4,Win32,59.95203837,6160c8f657e3c4094b01614a,64ce5acb97489d65b14ecc7a,64cf4f7840d19caf54abe74e,,,,,,,ctch,resources/DBN.BMP,resources/DG.BMP,Door4,0.197222222,0.001851852,1,0,0,0.779,optionRight,60,11890,5,38,0,38,0,1,,,,,,,,,,,,,,,,,,,,,,,,,,,,,,,,,,,,,,,
,,,,,,,,2023-08-06_08h45.24.954,HF_wild_card,2022.2.4,Win32,59.95203837,6160c8f657e3c4094b01614a,64ce5acb97489d65b14ecc7a,64cf4f7840d19caf54abe74e,,,,,,,decisionTrl,resources/DR.BMP,resources/DP.BMP,WildCard_Ex,-0.243518519,0.063888889,1,0,0,2.298,optionLeft,55,11945,5,39,0,39,0,1,,,,,,,,,,,,,,,,,,,,,,,,,,,,,,,,,,,,,,,
,,,,,,,,2023-08-06_08h45.24.954,HF_wild_card,2022.2.4,Win32,59.95203837,6160c8f657e3c4094b01614a,64ce5acb97489d65b14ecc7a,64cf4f7840d19caf54abe74e,,,,,,,sngl,resources/DR.BMP,resources/Empty.png,WildCard_Ex,-0.29537037,0.07037037,1,0,0,0.58,optionLeft,45,11990,5,40,0,40,0,1,,,,,,,,,,,,,,,,,,,,,,,,,,,,,,,,,,,,,,,
,,,,,,,,2023-08-06_08h45.24.954,HF_wild_card,2022.2.4,Win32,59.95203837,6160c8f657e3c4094b01614a,64ce5acb97489d65b14ecc7a,64cf4f7840d19caf54abe74e,,,,,,,decisionTrl,resources/DP.BMP,resources/DBN.BMP,Door2,-0.269444444,-0.005555556,1,0,0,1.414,optionLeft,40,12030,5,41,0,41,0,1,,,,,,,,,,,,,,,,,,,,,,,,,,,,,,,,,,,,,,,
,,,,,,,,2023-08-06_08h45.24.954,HF_wild_card,2022.2.4,Win32,59.95203837,6160c8f657e3c4094b01614a,64ce5acb97489d65b14ecc7a,64cf4f7840d19caf54abe74e,,,,,,,ctch,resources/DY.BMP,resources/DP.BMP,Door3,-0.30462963,-0.007407407,1,0,0,1.18,optionLeft,70,12100,5,42,0,42,0,1,,,,,,,,,,,,,,,,,,,,,,,,,,,,,,,,,,,,,,,
,,,,,,,,2023-08-06_08h45.24.954,HF_wild_card,2022.2.4,Win32,59.95203837,6160c8f657e3c4094b01614a,64ce5acb97489d65b14ecc7a,64cf4f7840d19caf54abe74e,,,,,,,decisionTrl,resources/DG.BMP,resources/DY.BMP,Door3,0.32962963,-0.035185185,1,0,0,0.863,optionRight,70,12170,5,43,0,43,0,1,,,,,,,,,,,,,,,,,,,,,,,,,,,,,,,,,,,,,,,
,,,,,,,,2023-08-06_08h45.24.954,HF_wild_card,2022.2.4,Win32,59.95203837,6160c8f657e3c4094b01614a,64ce5acb97489d65b14ecc7a,64cf4f7840d19caf54abe74e,,,,,,,,,,,,,,,,,,,,,,,,,,4,0,4,0,1,,,,,,,,,,,,,,,,,,,,,,,,,,,,,,,,,,
,,,,,,,,2023-08-06_08h45.24.954,HF_wild_card,2022.2.4,Win32,59.95203837,6160c8f657e3c4094b01614a,64ce5acb97489d65b14ecc7a,64cf4f7840d19caf54abe74e,,,,,,,decisionTrl,resources/DR.BMP,resources/DG.BMP,Door4,0.410185185,-0.151851852,1,0,0,1.861,optionRight,80,12250,6,0,0,0,0,1,,,,,,,,,,,,,,,,,,,,,,,,,,,,,,,,,,,,,,,
,,,,,,,,2023-08-06_08h45.24.954,HF_wild_card,2022.2.4,Win32,59.95203837,6160c8f657e3c4094b01614a,64ce5acb97489d65b14ecc7a,64cf4f7840d19caf54abe74e,,,,,,,sngl,resources/DP.BMP,resources/Empty.png,Door2,-0.448148148,0.019444444,1,0,0,0.728,optionLeft,20,12270,6,1,0,1,0,1,,,,,,,,,,,,,,,,,,,,,,,,,,,,,,,,,,,,,,,
,,,,,,,,2023-08-06_08h45.24.954,HF_wild_card,2022.2.4,Win32,59.95203837,6160c8f657e3c4094b01614a,64ce5acb97489d65b14ecc7a,64cf4f7840d19caf54abe74e,,,,,,,ctch,resources/DP.BMP,resources/DY.BMP,Door3,0.455555556,-0.04537037,1,0,0,1.479,optionRight,70,12340,6,2,0,2,0,1,,,,,,,,,,,,,,,,,,,,,,,,,,,,,,,,,,,,,,,
,,,,,,,,2023-08-06_08h45.24.954,HF_wild_card,2022.2.4,Win32,59.95203837,6160c8f657e3c4094b01614a,64ce5acb97489d65b14ecc7a,64cf4f7840d19caf54abe74e,,,,,,,decisionTrl,resources/DR.BMP,resources/DY.BMP,Door3,0.400925926,-0.007407407,1,0,0,2.363,optionRight,70,12410,6,3,0,3,0,1,,,,,,,,,,,,,,,,,,,,,,,,,,,,,,,,,,,,,,,
,,,,,,,,2023-08-06_08h45.24.954,HF_wild_card,2022.2.4,Win32,59.95203837,6160c8f657e3c4094b01614a,64ce5acb97489d65b14ecc7a,64cf4f7840d19caf54abe74e,,,,,,,ctch,resources/DY.BMP,resources/DP.BMP,Door3,-0.382407407,-0.000925926,1,0,0,1.948,optionLeft,70,12480,6,4,0,4,0,1,,,,,,,,,,,,,,,,,,,,,,,,,,,,,,,,,,,,,,,
,,,,,,,,2023-08-06_08h45.24.954,HF_wild_card,2022.2.4,Win32,59.95203837,6160c8f657e3c4094b01614a,64ce5acb97489d65b14ecc7a,64cf4f7840d19caf54abe74e,,,,,,,decisionTrl,resources/DBN.BMP,resources/DP.BMP,Door2,0.385185185,0.030555556,1,0,0,2.715,optionRight,40,12520,6,5,0,5,0,1,,,,,,,,,,,,,,,,,,,,,,,,,,,,,,,,,,,,,,,
,,,,,,,,2023-08-06_08h45.24.954,HF_wild_card,2022.2.4,Win32,59.95203837,6160c8f657e3c4094b01614a,64ce5acb97489d65b14ecc7a,64cf4f7840d19caf54abe74e,,,,,,,decisionTrl,resources/DR.BMP,resources/DBN.BMP,WildCard_Ex,-0.437962963,0.025925926,1,0,0,1.246,optionLeft,55,12575,6,6,0,6,0,1,,,,,,,,,,,,,,,,,,,,,,,,,,,,,,,,,,,,,,,
,,,,,,,,2023-08-06_08h45.24.954,HF_wild_card,2022.2.4,Win32,59.95203837,6160c8f657e3c4094b01614a,64ce5acb97489d65b14ecc7a,64cf4f7840d19caf54abe74e,,,,,,,decisionTrl,resources/DP.BMP,resources/DBN.BMP,Door1,0.427777778,-0.055555556,1,0,0,1.896,optionRight,30,12605,6,7,0,7,0,1,,,,,,,,,,,,,,,,,,,,,,,,,,,,,,,,,,,,,,,
,,,,,,,,2023-08-06_08h45.24.954,HF_wild_card,2022.2.4,Win32,59.95203837,6160c8f657e3c4094b01614a,64ce5acb97489d65b14ecc7a,64cf4f7840d19caf54abe74e,,,,,,,sngl,resources/Empty.png,resources/DY.BMP,Door3,0.186111111,0.037037037,1,0,0,0.527,optionRight,70,12675,6,8,0,8,0,1,,,,,,,,,,,,,,,,,,,,,,,,,,,,,,,,,,,,,,,
,,,,,,,,2023-08-06_08h45.24.954,HF_wild_card,2022.2.4,Win32,59.95203837,6160c8f657e3c4094b01614a,64ce5acb97489d65b14ecc7a,64cf4f7840d19caf54abe74e,,,,,,,sngl,resources/DR.BMP,resources/Empty.png,WildCard_Ex,-0.405555556,0.043518519,1,0,0,1.713,optionLeft,55,12730,6,9,0,9,0,1,,,,,,,,,,,,,,,,,,,,,,,,,,,,,,,,,,,,,,,
,,,,,,,,2023-08-06_08h45.24.954,HF_wild_card,2022.2.4,Win32,59.95203837,6160c8f657e3c4094b01614a,64ce5acb97489d65b14ecc7a,64cf4f7840d19caf54abe74e,,,,,,,decisionTrl,resources/DY.BMP,resources/DG.BMP,Door3,-0.339814815,0.055555556,1,0,0,0.913,optionLeft,70,12800,6,10,0,10,0,1,,,,,,,,,,,,,,,,,,,,,,,,,,,,,,,,,,,,,,,
,,,,,,,,2023-08-06_08h45.24.954,HF_wild_card,2022.2.4,Win32,59.95203837,6160c8f657e3c4094b01614a,64ce5acb97489d65b14ecc7a,64cf4f7840d19caf54abe74e,,,,,,,decisionTrl,resources/DBN.BMP,resources/DR.BMP,WildCard_Ex,0.275925926,-0.024074074,1,0,0,0.913,optionRight,45,12845,6,11,0,11,0,1,,,,,,,,,,,,,,,,,,,,,,,,,,,,,,,,,,,,,,,
,,,,,,,,2023-08-06_08h45.24.954,HF_wild_card,2022.2.4,Win32,59.95203837,6160c8f657e3c4094b01614a,64ce5acb97489d65b14ecc7a,64cf4f7840d19caf54abe74e,,,,,,,sngl,resources/DBN.BMP,resources/Empty.png,Door1,-0.318518519,0.027777778,1,0,0,2.932,optionLeft,30,12875,6,12,0,12,0,1,,,,,,,,,,,,,,,,,,,,,,,,,,,,,,,,,,,,,,,
,,,,,,,,2023-08-06_08h45.24.954,HF_wild_card,2022.2.4,Win32,59.95203837,6160c8f657e3c4094b01614a,64ce5acb97489d65b14ecc7a,64cf4f7840d19caf54abe74e,,,,,,,decisionTrl,resources/DP.BMP,resources/DBN.BMP,Door1,0.289814815,0.001851852,1,0,0,2.03,optionRight,30,12905,6,13,0,13,0,1,,,,,,,,,,,,,,,,,,,,,,,,,,,,,,,,,,,,,,,
,,,,,,,,2023-08-06_08h45.24.954,HF_wild_card,2022.2.4,Win32,59.95203837,6160c8f657e3c4094b01614a,64ce5acb97489d65b14ecc7a,64cf4f7840d19caf54abe74e,,,,,,,decisionTrl,resources/DBN.BMP,resources/DP.BMP,Door1,-0.222222222,0.026851852,1,0,0,1.064,optionLeft,30,12935,6,14,0,14,0,1,,,,,,,,,,,,,,,,,,,,,,,,,,,,,,,,,,,,,,,
,,,,,,,,2023-08-06_08h45.24.954,HF_wild_card,2022.2.4,Win32,59.95203837,6160c8f657e3c4094b01614a,64ce5acb97489d65b14ecc7a,64cf4f7840d19caf54abe74e,,,,,,,sngl,resources/Empty.png,resources/DBN.BMP,Door1,0.419444444,-0.043518519,1,0,0,0.645,optionRight,30,12965,6,15,0,15,0,1,,,,,,,,,,,,,,,,,,,,,,,,,,,,,,,,,,,,,,,
,,,,,,,,2023-08-06_08h45.24.954,HF_wild_card,2022.2.4,Win32,59.95203837,6160c8f657e3c4094b01614a,64ce5acb97489d65b14ecc7a,64cf4f7840d19caf54abe74e,,,,,,,decisionTrl,resources/DG.BMP,resources/DY.BMP,Door3,0.491666667,-0.024074074,1,0,0,0.842,optionRight,70,13035,6,16,0,16,0,1,,,,,,,,,,,,,,,,,,,,,,,,,,,,,,,,,,,,,,,
,,,,,,,,2023-08-06_08h45.24.954,HF_wild_card,2022.2.4,Win32,59.95203837,6160c8f657e3c4094b01614a,64ce5acb97489d65b14ecc7a,64cf4f7840d19caf54abe74e,,,,,,,sngl,resources/Empty.png,resources/DR.BMP,WildCard_Ex,0.20462963,-0.037962963,1,0,0,0.829,optionRight,45,13080,6,17,0,17,0,1,,,,,,,,,,,,,,,,,,,,,,,,,,,,,,,,,,,,,,,
,,,,,,,,2023-08-06_08h45.24.954,HF_wild_card,2022.2.4,Win32,59.95203837,6160c8f657e3c4094b01614a,64ce5acb97489d65b14ecc7a,64cf4f7840d19caf54abe74e,,,,,,,decisionTrl,resources/DG.BMP,resources/DY.BMP,Door3,0.462962963,-0.073148148,1,0,0,0.796,optionRight,70,13150,6,18,0,18,0,1,,,,,,,,,,,,,,,,,,,,,,,,,,,,,,,,,,,,,,,
,,,,,,,,2023-08-06_08h45.24.954,HF_wild_card,2022.2.4,Win32,59.95203837,6160c8f657e3c4094b01614a,64ce5acb97489d65b14ecc7a,64cf4f7840d19caf54abe74e,,,,,,,sngl,resources/DY.BMP,resources/Empty.png,Door3,-0.243518519,0.022222222,1,0,0,0.596,optionLeft,70,13220,6,19,0,19,0,1,,,,,,,,,,,,,,,,,,,,,,,,,,,,,,,,,,,,,,,
,,,,,,,,2023-08-06_08h45.24.954,HF_wild_card,2022.2.4,Win32,59.95203837,6160c8f657e3c4094b01614a,64ce5acb97489d65b14ecc7a,64cf4f7840d19caf54abe74e,,,,,,,sngl,resources/Empty.png,resources/DR.BMP,WildCard_Ex,0.285185185,-0.030555556,1,0,0,1.063,optionRight,55,13275,6,20,0,20,0,1,,,,,,,,,,,,,,,,,,,,,,,,,,,,,,,,,,,,,,,
,,,,,,,,2023-08-06_08h45.24.954,HF_wild_card,2022.2.4,Win32,59.95203837,6160c8f657e3c4094b01614a,64ce5acb97489d65b14ecc7a,64cf4f7840d19caf54abe74e,,,,,,,decisionTrl,resources/DY.BMP,resources/DG.BMP,Door3,-0.361111111,-0.003703704,1,0,0,0.68,optionLeft,70,13345,6,21,0,21,0,1,,,,,,,,,,,,,,,,,,,,,,,,,,,,,,,,,,,,,,,
,,,,,,,,2023-08-06_08h45.24.954,HF_wild_card,2022.2.4,Win32,59.95203837,6160c8f657e3c4094b01614a,64ce5acb97489d65b14ecc7a,64cf4f7840d19caf54abe74e,,,,,,,decisionTrl,resources/DG.BMP,resources/DY.BMP,Door3,0.447222222,-0.040740741,1,0,0,0.696,optionRight,70,13415,6,22,0,22,0,1,,,,,,,,,,,,,,,,,,,,,,,,,,,,,,,,,,,,,,,
,,,,,,,,2023-08-06_08h45.24.954,HF_wild_card,2022.2.4,Win32,59.95203837,6160c8f657e3c4094b01614a,64ce5acb97489d65b14ecc7a,64cf4f7840d19caf54abe74e,,,,,,,decisionTrl,resources/DP.BMP,resources/DBN.BMP,Door1,0.311111111,0.001851852,1,0,0,1.18,optionRight,30,13445,6,23,0,23,0,1,,,,,,,,,,,,,,,,,,,,,,,,,,,,,,,,,,,,,,,
,,,,,,,,2023-08-06_08h45.24.954,HF_wild_card,2022.2.4,Win32,59.95203837,6160c8f657e3c4094b01614a,64ce5acb97489d65b14ecc7a,64cf4f7840d19caf54abe74e,,,,,,,decisionTrl,resources/DG.BMP,resources/DR.BMP,Door4,-0.502777778,0.019444444,1,0,0,1.257,optionLeft,60,13505,6,24,0,24,0,1,,,,,,,,,,,,,,,,,,,,,,,,,,,,,,,,,,,,,,,
,,,,,,,,2023-08-06_08h45.24.954,HF_wild_card,2022.2.4,Win32,59.95203837,6160c8f657e3c4094b01614a,64ce5acb97489d65b14ecc7a,64cf4f7840d19caf54abe74e,,,,,,,decisionTrl,resources/DP.BMP,resources/DR.BMP,WildCard_Ex,0.375925926,0.011111111,1,0,0,1.346,optionRight,45,13550,6,25,0,25,0,1,,,,,,,,,,,,,,,,,,,,,,,,,,,,,,,,,,,,,,,
,,,,,,,,2023-08-06_08h45.24.954,HF_wild_card,2022.2.4,Win32,59.95203837,6160c8f657e3c4094b01614a,64ce5acb97489d65b14ecc7a,64cf4f7840d19caf54abe74e,,,,,,,decisionTrl,resources/DBN.BMP,resources/DP.BMP,Door1,-0.365740741,0.092592593,1,0,0,0.979,optionLeft,30,13580,6,26,0,26,0,1,,,,,,,,,,,,,,,,,,,,,,,,,,,,,,,,,,,,,,,
,,,,,,,,2023-08-06_08h45.24.954,HF_wild_card,2022.2.4,Win32,59.95203837,6160c8f657e3c4094b01614a,64ce5acb97489d65b14ecc7a,64cf4f7840d19caf54abe74e,,,,,,,ctch,resources/DY.BMP,resources/DP.BMP,Door3,-0.423148148,0.00462963,1,0,0,0.78,optionLeft,70,13650,6,27,0,27,0,1,,,,,,,,,,,,,,,,,,,,,,,,,,,,,,,,,,,,,,,
,,,,,,,,2023-08-06_08h45.24.954,HF_wild_card,2022.2.4,Win32,59.95203837,6160c8f657e3c4094b01614a,64ce5acb97489d65b14ecc7a,64cf4f7840d19caf54abe74e,,,,,,,decisionTrl,resources/DG.BMP,resources/DY.BMP,Door3,0.274074074,-0.035185185,1,0,0,0.646,optionRight,70,13720,6,28,0,28,0,1,,,,,,,,,,,,,,,,,,,,,,,,,,,,,,,,,,,,,,,
,,,,,,,,2023-08-06_08h45.24.954,HF_wild_card,2022.2.4,Win32,59.95203837,6160c8f657e3c4094b01614a,64ce5acb97489d65b14ecc7a,64cf4f7840d19caf54abe74e,,,,,,,decisionTrl,resources/DBN.BMP,resources/DP.BMP,Door1,-0.496296296,0.062962963,1,0,0,0.959,optionLeft,30,13750,6,29,0,29,0,1,,,,,,,,,,,,,,,,,,,,,,,,,,,,,,,,,,,,,,,
,,,,,,,,2023-08-06_08h45.24.954,HF_wild_card,2022.2.4,Win32,59.95203837,6160c8f657e3c4094b01614a,64ce5acb97489d65b14ecc7a,64cf4f7840d19caf54abe74e,,,,,,,ctch,resources/DBN.BMP,resources/DG.BMP,Door4,0.29537037,-0.035185185,1,0,0,3.281,optionRight,60,13810,6,30,0,30,0,1,,,,,,,,,,,,,,,,,,,,,,,,,,,,,,,,,,,,,,,
,,,,,,,,2023-08-06_08h45.24.954,HF_wild_card,2022.2.4,Win32,59.95203837,6160c8f657e3c4094b01614a,64ce5acb97489d65b14ecc7a,64cf4f7840d19caf54abe74e,,,,,,,sngl,resources/DG.BMP,resources/Empty.png,Door4,-0.186111111,-0.091666667,1,0,0,1.079,optionLeft,60,13870,6,31,0,31,0,1,,,,,,,,,,,,,,,,,,,,,,,,,,,,,,,,,,,,,,,
,,,,,,,,2023-08-06_08h45.24.954,HF_wild_card,2022.2.4,Win32,59.95203837,6160c8f657e3c4094b01614a,64ce5acb97489d65b14ecc7a,64cf4f7840d19caf54abe74e,,,,,,,ctch,resources/DBN.BMP,resources/DG.BMP,Door4,0.290740741,0.000925926,1,0,0,0.792,optionRight,60,13930,6,32,0,32,0,1,,,,,,,,,,,,,,,,,,,,,,,,,,,,,,,,,,,,,,,
,,,,,,,,2023-08-06_08h45.24.954,HF_wild_card,2022.2.4,Win32,59.95203837,6160c8f657e3c4094b01614a,64ce5acb97489d65b14ecc7a,64cf4f7840d19caf54abe74e,,,,,,,sngl,resources/DR.BMP,resources/Empty.png,WildCard_Ex,-0.44537037,0.041666667,1,0,0,0.596,optionLeft,45,13975,6,33,0,33,0,1,,,,,,,,,,,,,,,,,,,,,,,,,,,,,,,,,,,,,,,
,,,,,,,,2023-08-06_08h45.24.954,HF_wild_card,2022.2.4,Win32,59.95203837,6160c8f657e3c4094b01614a,64ce5acb97489d65b14ecc7a,64cf4f7840d19caf54abe74e,,,,,,,decisionTrl,resources/DY.BMP,resources/DG.BMP,Door3,-0.333333333,-0.008333333,1,0,0,0.879,optionLeft,70,14045,6,34,0,34,0,1,,,,,,,,,,,,,,,,,,,,,,,,,,,,,,,,,,,,,,,
,,,,,,,,2023-08-06_08h45.24.954,HF_wild_card,2022.2.4,Win32,59.95203837,6160c8f657e3c4094b01614a,64ce5acb97489d65b14ecc7a,64cf4f7840d19caf54abe74e,,,,,,,decisionTrl,resources/DP.BMP,resources/DBN.BMP,Door1,0.291666667,-0.031481481,1,0,0,1.147,optionRight,30,14075,6,35,0,35,0,1,,,,,,,,,,,,,,,,,,,,,,,,,,,,,,,,,,,,,,,
,,,,,,,,2023-08-06_08h45.24.954,HF_wild_card,2022.2.4,Win32,59.95203837,6160c8f657e3c4094b01614a,64ce5acb97489d65b14ecc7a,64cf4f7840d19caf54abe74e,,,,,,,sngl,resources/Empty.png,resources/DP.BMP,Door2,0.414814815,-0.003703704,1,0,0,0.546,optionRight,40,14115,6,36,0,36,0,1,,,,,,,,,,,,,,,,,,,,,,,,,,,,,,,,,,,,,,,
,,,,,,,,2023-08-06_08h45.24.954,HF_wild_card,2022.2.4,Win32,59.95203837,6160c8f657e3c4094b01614a,64ce5acb97489d65b14ecc7a,64cf4f7840d19caf54abe74e,,,,,,,decisionTrl,resources/DY.BMP,resources/DG.BMP,Door3,-0.411111111,0.008333333,1,0,0,0.613,optionLeft,70,14185,6,37,0,37,0,1,,,,,,,,,,,,,,,,,,,,,,,,,,,,,,,,,,,,,,,
,,,,,,,,2023-08-06_08h45.24.954,HF_wild_card,2022.2.4,Win32,59.95203837,6160c8f657e3c4094b01614a,64ce5acb97489d65b14ecc7a,64cf4f7840d19caf54abe74e,,,,,,,decisionTrl,resources/DY.BMP,resources/DR.BMP,Door3,-0.275925926,0.034259259,1,0,0,0.928,optionLeft,70,14255,6,38,0,38,0,1,,,,,,,,,,,,,,,,,,,,,,,,,,,,,,,,,,,,,,,
,,,,,,,,2023-08-06_08h45.24.954,HF_wild_card,2022.2.4,Win32,59.95203837,6160c8f657e3c4094b01614a,64ce5acb97489d65b14ecc7a,64cf4f7840d19caf54abe74e,,,,,,,ctch,resources/DG.BMP,resources/DBN.BMP,Door4,-0.397222222,-0.006481481,1,0,0,2.898,optionLeft,80,14335,6,39,0,39,0,1,,,,,,,,,,,,,,,,,,,,,,,,,,,,,,,,,,,,,,,
,,,,,,,,2023-08-06_08h45.24.954,HF_wild_card,2022.2.4,Win32,59.95203837,6160c8f657e3c4094b01614a,64ce5acb97489d65b14ecc7a,64cf4f7840d19caf54abe74e,,,,,,,decisionTrl,resources/DR.BMP,resources/DP.BMP,WildCard_Ex,-0.396296296,0.04537037,1,0,0,1.126,optionLeft,55,14390,6,40,0,40,0,1,,,,,,,,,,,,,,,,,,,,,,,,,,,,,,,,,,,,,,,
,,,,,,,,2023-08-06_08h45.24.954,HF_wild_card,2022.2.4,Win32,59.95203837,6160c8f657e3c4094b01614a,64ce5acb97489d65b14ecc7a,64cf4f7840d19caf54abe74e,,,,,,,sngl,resources/Empty.png,resources/DG.BMP,Door4,0.32962963,-0.011111111,1,0,0,0.613,optionRight,80,14470,6,41,0,41,0,1,,,,,,,,,,,,,,,,,,,,,,,,,,,,,,,,,,,,,,,
,,,,,,,,2023-08-06_08h45.24.954,HF_wild_card,2022.2.4,Win32,59.95203837,6160c8f657e3c4094b01614a,64ce5acb97489d65b14ecc7a,64cf4f7840d19caf54abe74e,,,,,,,ctch,resources/DP.BMP,resources/DY.BMP,Door3,0.306481481,-0.015740741,1,0,0,1.164,optionRight,70,14540,6,42,0,42,0,1,,,,,,,,,,,,,,,,,,,,,,,,,,,,,,,,,,,,,,,
,,,,,,,,2023-08-06_08h45.24.954,HF_wild_card,2022.2.4,Win32,59.95203837,6160c8f657e3c4094b01614a,64ce5acb97489d65b14ecc7a,64cf4f7840d19caf54abe74e,,,,,,,ctch,resources/DG.BMP,resources/DBN.BMP,Door4,-0.390740741,0.001851852,1,0,0,1.897,optionLeft,60,14600,6,43,0,43,0,1,,,,,,,,,,,,,,,,,,,,,,,,,,,,,,,,,,,,,,,
,,,,,,,,2023-08-06_08h45.24.954,HF_wild_card,2022.2.4,Win32,59.95203837,6160c8f657e3c4094b01614a,64ce5acb97489d65b14ecc7a,64cf4f7840d19caf54abe74e,,,,,,,,,,,,,,,,,,,,,,,,,,5,0,5,0,1,,,,,,,,,,,,,,,,,,,,,,,,,,,,,,,,,,
,,,,,,,,2023-08-06_08h45.24.954,HF_wild_card,2022.2.4,Win32,59.95203837,6160c8f657e3c4094b01614a,64ce5acb97489d65b14ecc7a,64cf4f7840d19caf54abe74e,,,,,,,decisionTrl,resources/DG.BMP,resources/DY.BMP,Door3,0.363888889,-0.031481481,1,0,0,1.245,optionRight,70,14670,7,0,0,0,0,1,,,,,,,,,,,,,,,,,,,,,,,,,,,,,,,,,,,,,,,
,,,,,,,,2023-08-06_08h45.24.954,HF_wild_card,2022.2.4,Win32,59.95203837,6160c8f657e3c4094b01614a,64ce5acb97489d65b14ecc7a,64cf4f7840d19caf54abe74e,,,,,,,decisionTrl,resources/DG.BMP,resources/DY.BMP,Door3,0.303703704,-0.009259259,1,0,0,0.6,optionRight,70,14740,7,1,0,1,0,1,,,,,,,,,,,,,,,,,,,,,,,,,,,,,,,,,,,,,,,
,,,,,,,,2023-08-06_08h45.24.954,HF_wild_card,2022.2.4,Win32,59.95203837,6160c8f657e3c4094b01614a,64ce5acb97489d65b14ecc7a,64cf4f7840d19caf54abe74e,,,,,,,decisionTrl,resources/DBN.BMP,resources/DP.BMP,Door1,-0.408333333,0.037962963,1,0,0,1.133,optionLeft,30,14770,7,2,0,2,0,1,,,,,,,,,,,,,,,,,,,,,,,,,,,,,,,,,,,,,,,
,,,,,,,,2023-08-06_08h45.24.954,HF_wild_card,2022.2.4,Win32,59.95203837,6160c8f657e3c4094b01614a,64ce5acb97489d65b14ecc7a,64cf4f7840d19caf54abe74e,,,,,,,decisionTrl,resources/DY.BMP,resources/DG.BMP,Door3,-0.353703704,-0.022222222,1,0,0,0.612,optionLeft,70,14840,7,3,0,3,0,1,,,,,,,,,,,,,,,,,,,,,,,,,,,,,,,,,,,,,,,
,,,,,,,,2023-08-06_08h45.24.954,HF_wild_card,2022.2.4,Win32,59.95203837,6160c8f657e3c4094b01614a,64ce5acb97489d65b14ecc7a,64cf4f7840d19caf54abe74e,,,,,,,ctch,resources/DG.BMP,resources/DBN.BMP,Door4,-0.275,0.012962963,1,0,0,0.982,optionLeft,60,14900,7,4,0,4,0,1,,,,,,,,,,,,,,,,,,,,,,,,,,,,,,,,,,,,,,,
,,,,,,,,2023-08-06_08h45.24.954,HF_wild_card,2022.2.4,Win32,59.95203837,6160c8f657e3c4094b01614a,64ce5acb97489d65b14ecc7a,64cf4f7840d19caf54abe74e,,,,,,,decisionTrl,resources/DBN.BMP,resources/DP.BMP,Door1,-0.47037037,0.078703704,1,0,0,1.383,optionLeft,30,14930,7,5,0,5,0,1,,,,,,,,,,,,,,,,,,,,,,,,,,,,,,,,,,,,,,,
,,,,,,,,2023-08-06_08h45.24.954,HF_wild_card,2022.2.4,Win32,59.95203837,6160c8f657e3c4094b01614a,64ce5acb97489d65b14ecc7a,64cf4f7840d19caf54abe74e,,,,,,,decisionTrl,resources/DBN.BMP,resources/DP.BMP,Door1,-0.347222222,0.069444444,1,0,0,0.95,optionLeft,30,14960,7,6,0,6,0,1,,,,,,,,,,,,,,,,,,,,,,,,,,,,,,,,,,,,,,,
,,,,,,,,2023-08-06_08h45.24.954,HF_wild_card,2022.2.4,Win32,59.95203837,6160c8f657e3c4094b01614a,64ce5acb97489d65b14ecc7a,64cf4f7840d19caf54abe74e,,,,,,,decisionTrl,resources/DY.BMP,resources/DG.BMP,Door3,-0.214814815,0.037037037,1,0,0,0.697,optionLeft,70,15030,7,7,0,7,0,1,,,,,,,,,,,,,,,,,,,,,,,,,,,,,,,,,,,,,,,
,,,,,,,,2023-08-06_08h45.24.954,HF_wild_card,2022.2.4,Win32,59.95203837,6160c8f657e3c4094b01614a,64ce5acb97489d65b14ecc7a,64cf4f7840d19caf54abe74e,,,,,,,decisionTrl,resources/DY.BMP,resources/DG.BMP,Door3,-0.184259259,0.012037037,1,0,0,0.966,optionLeft,70,15100,7,8,0,8,0,1,,,,,,,,,,,,,,,,,,,,,,,,,,,,,,,,,,,,,,,
,,,,,,,,2023-08-06_08h45.24.954,HF_wild_card,2022.2.4,Win32,59.95203837,6160c8f657e3c4094b01614a,64ce5acb97489d65b14ecc7a,64cf4f7840d19caf54abe74e,,,,,,,ctch,resources/DY.BMP,resources/DP.BMP,Door3,-0.369444444,0.010185185,1,0,0,0.649,optionLeft,70,15170,7,9,0,9,0,1,,,,,,,,,,,,,,,,,,,,,,,,,,,,,,,,,,,,,,,
,,,,,,,,2023-08-06_08h45.24.954,HF_wild_card,2022.2.4,Win32,59.95203837,6160c8f657e3c4094b01614a,64ce5acb97489d65b14ecc7a,64cf4f7840d19caf54abe74e,,,,,,,ctch,resources/DY.BMP,resources/DP.BMP,Door3,-0.341666667,0.036111111,1,0,0,0.667,optionLeft,70,15240,7,10,0,10,0,1,,,,,,,,,,,,,,,,,,,,,,,,,,,,,,,,,,,,,,,
,,,,,,,,2023-08-06_08h45.24.954,HF_wild_card,2022.2.4,Win32,59.95203837,6160c8f657e3c4094b01614a,64ce5acb97489d65b14ecc7a,64cf4f7840d19caf54abe74e,,,,,,,ctch,resources/DG.BMP,resources/DBN.BMP,Door4,-0.263888889,0.011111111,1,0,0,1.231,optionLeft,60,15300,7,11,0,11,0,1,,,,,,,,,,,,,,,,,,,,,,,,,,,,,,,,,,,,,,,
,,,,,,,,2023-08-06_08h45.24.954,HF_wild_card,2022.2.4,Win32,59.95203837,6160c8f657e3c4094b01614a,64ce5acb97489d65b14ecc7a,64cf4f7840d19caf54abe74e,,,,,,,decisionTrl,resources/DP.BMP,resources/DBN.BMP,Door1,0.409259259,0.018518519,1,0,0,3.602,optionRight,30,15330,7,12,0,12,0,1,,,,,,,,,,,,,,,,,,,,,,,,,,,,,,,,,,,,,,,
,,,,,,,,2023-08-06_08h45.24.954,HF_wild_card,2022.2.4,Win32,59.95203837,6160c8f657e3c4094b01614a,64ce5acb97489d65b14ecc7a,64cf4f7840d19caf54abe74e,,,,,,,decisionTrl,resources/DBN.BMP,resources/DP.BMP,Door1,-0.286111111,0.051851852,1,0,0,2.068,optionLeft,30,15360,7,13,0,13,0,1,,,,,,,,,,,,,,,,,,,,,,,,,,,,,,,,,,,,,,,
,,,,,,,,2023-08-06_08h45.24.954,HF_wild_card,2022.2.4,Win32,59.95203837,6160c8f657e3c4094b01614a,64ce5acb97489d65b14ecc7a,64cf4f7840d19caf54abe74e,,,,,,,decisionTrl,resources/DY.BMP,resources/DG.BMP,Door3,-0.443518519,0.019444444,1,0,0,0.683,optionLeft,70,15430,7,14,0,14,0,1,,,,,,,,,,,,,,,,,,,,,,,,,,,,,,,,,,,,,,,
,,,,,,,,2023-08-06_08h45.24.954,HF_wild_card,2022.2.4,Win32,59.95203837,6160c8f657e3c4094b01614a,64ce5acb97489d65b14ecc7a,64cf4f7840d19caf54abe74e,,,,,,,ctch,resources/DY.BMP,resources/DP.BMP,Door3,-0.344444444,-0.022222222,1,0,0,1.517,optionLeft,70,15500,7,15,0,15,0,1,,,,,,,,,,,,,,,,,,,,,,,,,,,,,,,,,,,,,,,
,,,,,,,,2023-08-06_08h45.24.954,HF_wild_card,2022.2.4,Win32,59.95203837,6160c8f657e3c4094b01614a,64ce5acb97489d65b14ecc7a,64cf4f7840d19caf54abe74e,,,,,,,ctch,resources/DG.BMP,resources/DBN.BMP,Door4,-0.25462963,0.039814815,1,0,0,0.727,optionLeft,60,15560,7,16,0,16,0,1,,,,,,,,,,,,,,,,,,,,,,,,,,,,,,,,,,,,,,,
,,,,,,,,2023-08-06_08h45.24.954,HF_wild_card,2022.2.4,Win32,59.95203837,6160c8f657e3c4094b01614a,64ce5acb97489d65b14ecc7a,64cf4f7840d19caf54abe74e,,,,,,,ctch,resources/DP.BMP,resources/DY.BMP,Door3,0.364814815,0.027777778,1,0,0,1.367,optionRight,70,15630,7,17,0,17,0,1,,,,,,,,,,,,,,,,,,,,,,,,,,,,,,,,,,,,,,,
,,,,,,,,2023-08-06_08h45.24.954,HF_wild_card,2022.2.4,Win32,59.95203837,6160c8f657e3c4094b01614a,64ce5acb97489d65b14ecc7a,64cf4f7840d19caf54abe74e,,,,,,,decisionTrl,resources/DG.BMP,resources/DY.BMP,Door3,0.252777778,0.033333333,1,0,0,1.231,optionRight,70,15700,7,18,0,18,0,1,,,,,,,,,,,,,,,,,,,,,,,,,,,,,,,,,,,,,,,
,,,,,,,,2023-08-06_08h45.24.954,HF_wild_card,2022.2.4,Win32,59.95203837,6160c8f657e3c4094b01614a,64ce5acb97489d65b14ecc7a,64cf4f7840d19caf54abe74e,,,,,,,decisionTrl,resources/DY.BMP,resources/DG.BMP,Door3,-0.531481481,0.028703704,1,0,0,0.549,optionLeft,70,15770,7,19,0,19,0,1,,,,,,,,,,,,,,,,,,,,,,,,,,,,,,,,,,,,,,,
,,,,,,,,2023-08-06_08h45.24.954,HF_wild_card,2022.2.4,Win32,59.95203837,6160c8f657e3c4094b01614a,64ce5acb97489d65b14ecc7a,64cf4f7840d19caf54abe74e,,,,,,,decisionTrl,resources/DP.BMP,resources/DBN.BMP,Door1,0.210185185,0.019444444,1,0,0,1.333,optionRight,30,15800,7,20,0,20,0,1,,,,,,,,,,,,,,,,,,,,,,,,,,,,,,,,,,,,,,,
,,,,,,,,2023-08-06_08h45.24.954,HF_wild_card,2022.2.4,Win32,59.95203837,6160c8f657e3c4094b01614a,64ce5acb97489d65b14ecc7a,64cf4f7840d19caf54abe74e,,,,,,,ctch,resources/DP.BMP,resources/DY.BMP,Door3,0.446296296,0.016666667,1,0,0,0.831,optionRight,70,15870,7,21,0,21,0,1,,,,,,,,,,,,,,,,,,,,,,,,,,,,,,,,,,,,,,,
,,,,,,,,2023-08-06_08h45.24.954,HF_wild_card,2022.2.4,Win32,59.95203837,6160c8f657e3c4094b01614a,64ce5acb97489d65b14ecc7a,64cf4f7840d19caf54abe74e,,,,,,,ctch,resources/DBN.BMP,resources/DG.BMP,Door1,-0.241666667,0.098148148,1,0,0,1.031,optionLeft,30,15900,7,22,0,22,0,1,,,,,,,,,,,,,,,,,,,,,,,,,,,,,,,,,,,,,,,
,,,,,,,,2023-08-06_08h45.24.954,HF_wild_card,2022.2.4,Win32,59.95203837,6160c8f657e3c4094b01614a,64ce5acb97489d65b14ecc7a,64cf4f7840d19caf54abe74e,,,,,,,decisionTrl,resources/DBN.BMP,resources/DP.BMP,Door1,-0.257407407,0.027777778,1,0,0,1.064,optionLeft,30,15930,7,23,0,23,0,1,,,,,,,,,,,,,,,,,,,,,,,,,,,,,,,,,,,,,,,
,,,,,,,,2023-08-06_08h45.24.954,HF_wild_card,2022.2.4,Win32,59.95203837,6160c8f657e3c4094b01614a,64ce5acb97489d65b14ecc7a,64cf4f7840d19caf54abe74e,,,,,,,decisionTrl,resources/DY.BMP,resources/DG.BMP,Door3,-0.372222222,0.02962963,1,0,0,0.883,optionLeft,70,16000,7,24,0,24,0,1,,,,,,,,,,,,,,,,,,,,,,,,,,,,,,,,,,,,,,,
,,,,,,,,2023-08-06_08h45.24.954,HF_wild_card,2022.2.4,Win32,59.95203837,6160c8f657e3c4094b01614a,64ce5acb97489d65b14ecc7a,64cf4f7840d19caf54abe74e,,,,,,,decisionTrl,resources/DP.BMP,resources/DBN.BMP,Door2,-0.287037037,0.055555556,1,0,0,1.049,optionLeft,40,16040,7,25,0,25,0,1,,,,,,,,,,,,,,,,,,,,,,,,,,,,,,,,,,,,,,,
,,,,,,,,2023-08-06_08h45.24.954,HF_wild_card,2022.2.4,Win32,59.95203837,6160c8f657e3c4094b01614a,64ce5acb97489d65b14ecc7a,64cf4f7840d19caf54abe74e,,,,,,,decisionTrl,resources/DG.BMP,resources/DY.BMP,Door3,0.212037037,-0.012037037,1,0,0,0.748,optionRight,70,16110,7,26,0,26,0,1,,,,,,,,,,,,,,,,,,,,,,,,,,,,,,,,,,,,,,,
,,,,,,,,2023-08-06_08h45.24.954,HF_wild_card,2022.2.4,Win32,59.95203837,6160c8f657e3c4094b01614a,64ce5acb97489d65b14ecc7a,64cf4f7840d19caf54abe74e,,,,,,,decisionTrl,resources/DP.BMP,resources/DBN.BMP,Door1,0.228703704,-0.019444444,1,0,0,0.916,optionRight,30,16140,7,27,0,27,0,1,,,,,,,,,,,,,,,,,,,,,,,,,,,,,,,,,,,,,,,
,,,,,,,,2023-08-06_08h45.24.954,HF_wild_card,2022.2.4,Win32,59.95203837,6160c8f657e3c4094b01614a,64ce5acb97489d65b14ecc7a,64cf4f7840d19caf54abe74e,,,,,,,ctch,resources/DBN.BMP,resources/DG.BMP,Door4,0.153703704,-0.018518519,1,0,0,0.911,optionRight,80,16220,7,28,0,28,0,1,,,,,,,,,,,,,,,,,,,,,,,,,,,,,,,,,,,,,,,
,,,,,,,,2023-08-06_08h45.24.954,HF_wild_card,2022.2.4,Win32,59.95203837,6160c8f657e3c4094b01614a,64ce5acb97489d65b14ecc7a,64cf4f7840d19caf54abe74e,,,,,,,decisionTrl,resources/DBN.BMP,resources/DP.BMP,Door1,-0.284259259,0.042592593,1,0,0,1.081,optionLeft,30,16250,7,29,0,29,0,1,,,,,,,,,,,,,,,,,,,,,,,,,,,,,,,,,,,,,,,
,,,,,,,,2023-08-06_08h45.24.954,HF_wild_card,2022.2.4,Win32,59.95203837,6160c8f657e3c4094b01614a,64ce5acb97489d65b14ecc7a,64cf4f7840d19caf54abe74e,,,,,,,decisionTrl,resources/DP.BMP,resources/DBN.BMP,Door2,-0.384259259,0.022222222,1,0,0,1.148,optionLeft,20,16270,7,30,0,30,0,1,,,,,,,,,,,,,,,,,,,,,,,,,,,,,,,,,,,,,,,
,,,,,,,,2023-08-06_08h45.24.954,HF_wild_card,2022.2.4,Win32,59.95203837,6160c8f657e3c4094b01614a,64ce5acb97489d65b14ecc7a,64cf4f7840d19caf54abe74e,,,,,,,ctch,resources/DBN.BMP,resources/DG.BMP,Door4,0.17037037,0.002777778,1,0,0,0.832,optionRight,60,16330,7,31,0,31,0,1,,,,,,,,,,,,,,,,,,,,,,,,,,,,,,,,,,,,,,,
,,,,,,,,2023-08-06_08h45.24.954,HF_wild_card,2022.2.4,Win32,59.95203837,6160c8f657e3c4094b01614a,64ce5acb97489d65b14ecc7a,64cf4f7840d19caf54abe74e,,,,,,,decisionTrl,resources/DP.BMP,resources/DBN.BMP,Door1,0.181481481,-0.006481481,1,0,0,0.882,optionRight,30,16360,7,32,0,32,0,1,,,,,,,,,,,,,,,,,,,,,,,,,,,,,,,,,,,,,,,
,,,,,,,,2023-08-06_08h45.24.954,HF_wild_card,2022.2.4,Win32,59.95203837,6160c8f657e3c4094b01614a,64ce5acb97489d65b14ecc7a,64cf4f7840d19caf54abe74e,,,,,,,decisionTrl,resources/DG.BMP,resources/DY.BMP,Door3,0.275,-0.024074074,1,0,0,0.731,optionRight,70,16430,7,33,0,33,0,1,,,,,,,,,,,,,,,,,,,,,,,,,,,,,,,,,,,,,,,
,,,,,,,,2023-08-06_08h45.24.954,HF_wild_card,2022.2.4,Win32,59.95203837,6160c8f657e3c4094b01614a,64ce5acb97489d65b14ecc7a,64cf4f7840d19caf54abe74e,,,,,,,decisionTrl,resources/DG.BMP,resources/DY.BMP,Door3,0.198148148,-0.012962963,1,0,0,0.816,optionRight,70,16500,7,34,0,34,0,1,,,,,,,,,,,,,,,,,,,,,,,,,,,,,,,,,,,,,,,
,,,,,,,,2023-08-06_08h45.24.954,HF_wild_card,2022.2.4,Win32,59.95203837,6160c8f657e3c4094b01614a,64ce5acb97489d65b14ecc7a,64cf4f7840d19caf54abe74e,,,,,,,ctch,resources/DP.BMP,resources/DY.BMP,Door3,0.17962963,-0.00462963,1,0,0,0.681,optionRight,70,16570,7,35,0,35,0,1,,,,,,,,,,,,,,,,,,,,,,,,,,,,,,,,,,,,,,,
,,,,,,,,2023-08-06_08h45.24.954,HF_wild_card,2022.2.4,Win32,59.95203837,6160c8f657e3c4094b01614a,64ce5acb97489d65b14ecc7a,64cf4f7840d19caf54abe74e,,,,,,,,,,,,,,,,,,,,,,,,,,6,0,6,0,1,,,,,,,,,,,,,,,,,,,,,,,,,,,,,,,,,,
,,,,,,,,2023-08-06_08h45.24.954,HF_wild_card,2022.2.4,Win32,59.95203837,6160c8f657e3c4094b01614a,64ce5acb97489d65b14ecc7a,64cf4f7840d19caf54abe74e,,,,,,,,,,,,,,,,,,,,,,,,,,,,,,,4,,,,,,,,,,,,,,,,,,,,,,,,,,,,,,,,,
,,,,,,,,2023-08-06_08h45.24.954,HF_wild_card,2022.2.4,Win32,59.95203837,6160c8f657e3c4094b01614a,64ce5acb97489d65b14ecc7a,64cf4f7840d19caf54abe74e,,,,,,,,,,,,,,,,,,,,,,,,,,,,,,,,,,,,,,,,,,,,,,,,,,,,,,,,,,,,,,,,
,,,,,,,,2023-08-06_08h45.24.954,HF_wild_card,2022.2.4,Win32,59.95203837,6160c8f657e3c4094b01614a,64ce5acb97489d65b14ecc7a,64cf4f7840d19caf54abe74e,,,,,,,,,,,,,,,,,,,,,,,,,,,,,,,,45,WC_nonExtreme,resources/DB.BMP,0,0,0,0,1,,,,,,,,,,,,,,,,,,,,,,,,,
,,,,,,,,2023-08-06_08h45.24.954,HF_wild_card,2022.2.4,Win32,59.95203837,6160c8f657e3c4094b01614a,64ce5acb97489d65b14ecc7a,64cf4f7840d19caf54abe74e,,,,,,,,,,,,,,,,,,,,,,,,,,,,,,,,60,Door4,resources/DG.BMP,1,0,1,0,1,,,,,,,,,,,,,,,,,,,,,,,,,
,,,,,,,,2023-08-06_08h45.24.954,HF_wild_card,2022.2.4,Win32,59.95203837,6160c8f657e3c4094b01614a,64ce5acb97489d65b14ecc7a,64cf4f7840d19caf54abe74e,,,,,,,,,,,,,,,,,,,,,,,,,,,,,,,,20,Door2,resources/DP.BMP,2,0,2,0,1,,,,,,,,,,,,,,,,,,,,,,,,,
,,,,,,,,2023-08-06_08h45.24.954,HF_wild_card,2022.2.4,Win32,59.95203837,6160c8f657e3c4094b01614a,64ce5acb97489d65b14ecc7a,64cf4f7840d19caf54abe74e,,,,,,,,,,,,,,,,,,,,,,,,,,,,,,,,45,WC_extreme,resources/DR.BMP,3,0,3,0,1,,,,,,,,,,,,,,,,,,,,,,,,,
,,,,,,,,2023-08-06_08h45.24.954,HF_wild_card,2022.2.4,Win32,59.95203837,6160c8f657e3c4094b01614a,64ce5acb97489d65b14ecc7a,64cf4f7840d19caf54abe74e,,,,,,,,,,,,,,,,,,,,,,,,,,,,,,,,80,Door3,resources/DY.BMP,4,0,4,0,1,,,,,,,,,,,,,,,,,,,,,,,,,
,,,,,,,,2023-08-06_08h45.24.954,HF_wild_card,2022.2.4,Win32,59.95203837,6160c8f657e3c4094b01614a,64ce5acb97489d65b14ecc7a,64cf4f7840d19caf54abe74e,,,,,,,,,,,,,,,,,,,,,,,,,,,,,,,,30,Door1,resources/DBN.BMP,5,0,5,0,1,,,,,,,,,,,,,,,,,,,,,,,,,
,,,,,,,,2023-08-06_08h45.24.954,HF_wild_card,2022.2.4,Win32,59.95203837,6160c8f657e3c4094b01614a,64ce5acb97489d65b14ecc7a,64cf4f7840d19caf54abe74e,,,,,,,,,,,,,,,,,,,,,,,,,,,,,,,,,,,,,,,,,,,,,,,,,,,,,,,,,,,,,,,,
,,,,,,,,2023-08-06_08h45.24.954,HF_wild_card,2022.2.4,Win32,59.95203837,6160c8f657e3c4094b01614a,64ce5acb97489d65b14ecc7a,64cf4f7840d19caf54abe74e,,,,,,,,,,,,,,,,,,,,,,,,,,,,,,,,,,,,,,,,0,0,0,0,1,,,,,,,,,,,,,,,,,,,,
,,,,,,,,2023-08-06_08h45.24.954,HF_wild_card,2022.2.4,Win32,59.95203837,6160c8f657e3c4094b01614a,64ce5acb97489d65b14ecc7a,64cf4f7840d19caf54abe74e,,,,,,,,,,,,,,,,,,,,,,,,,,,,,,,,,,,,,,,,1,0,1,0,1,,,,,,,,,,,,,,,,,,,,
