Condition,Low fixed image (Door1),Low risky image (Door2),High fixed image (Door3),High risky image (Door4),Extreme Wild Card,NonExtreme Wild Card,,date,expName,psychopyVersion,OS,frameRate,PROLIFIC_PID,STUDY_ID,SESSION_ID,mouse_2.x,mouse_2.y,mouse_2.leftButton,mouse_2.midButton,mouse_2.rightButton,mouse_2.clicked_name,Trial Type,Left Option Image,Right Option Image,Chosen Door,mouse.x,mouse.y,mouse.leftButton,mouse.midButton,mouse.rightButton,mouse.time,mouse.clicked_name,Feedback,Cumulative Reward,Block,trial.thisRepN,trial.thisTrialN,trial.thisN,trial.thisIndex,trial.ran,blocks.thisRepN,blocks.thisTrialN,blocks.thisN,blocks.thisIndex,blocks.ran,Money conversion,First Outcome Reported,Shown Door (First Outcome),Displayed Image (First Outcome),outcomes.thisRepN,outcomes.thisTrialN,outcomes.thisN,outcomes.thisIndex,outcomes.ran,judgments.thisRepN,judgments.thisTrialN,judgments.thisN,judgments.thisIndex,judgments.ran,freqMouse.x,freqMouse.y,freqMouse.leftButton,freqMouse.midButton,freqMouse.rightButton,freqMouse.clicked_name,FQJ for first outcome,FQJ for second outcome,Shown Door,Displayed Image,trials.thisRepN,trials.thisTrialN,trials.thisN,trials.thisIndex,trials.ran,judgBlock.thisRepN,judgBlock.thisTrialN,judgBlock.thisN,judgBlock.thisIndex,judgBlock.ran
1,resources/DY.BMP,resources/DB.BMP,resources/DP.BMP,resources/DBN.BMP,resources/DG.BMP,resources/DR.BMP,,2023-08-06_08h20.56.010,HF_wild_card,2022.2.4,Win32,60.10337781,5ea00a03e32996000ac2da80,64ce5acb97489d65b14ecc7a,64cf49bb75e78ea9166956b1,,,,,,,,,,,,,,,,,,,,,,,,,,,,,,,,,,,,,,,,,,,,,,,,,,,,,,,,,,,,,,,,
,,,,,,,,2023-08-06_08h20.56.010,HF_wild_card,2022.2.4,Win32,60.10337781,5ea00a03e32996000ac2da80,64ce5acb97489d65b14ecc7a,64cf49bb75e78ea9166956b1,-0.01851849,-0.421296353,1,0,0,agree,,,,,,,,,,,,,,,,,,,,,,,,,,,,,,,,,,,,,,,,,,,,,,,,,,,,,,,,,,
,,,,,,,,2023-08-06_08h20.56.010,HF_wild_card,2022.2.4,Win32,60.10337781,5ea00a03e32996000ac2da80,64ce5acb97489d65b14ecc7a,64cf49bb75e78ea9166956b1,,,,,,,,,,,,,,,,,,,,,,,,,,,,,,,,,,,,,,,,,,,,,,,,,,,,,,,,,,,,,,,,
,,,,,,,,2023-08-06_08h20.56.010,HF_wild_card,2022.2.4,Win32,60.10337781,5ea00a03e32996000ac2da80,64ce5acb97489d65b14ecc7a,64cf49bb75e78ea9166956b1,,,,,,,decisionTrl,resources/DY.BMP,resources/DB.BMP,Door1,-0.331481467,-0.151851866,1,0,0,3.2473,optionLeft,30,30,1,0,0,0,0,1,,,,,,,,,,,,,,,,,,,,,,,,,,,,,,,,,,,,,,,
,,,,,,,,2023-08-06_08h20.56.010,HF_wild_card,2022.2.4,Win32,60.10337781,5ea00a03e32996000ac2da80,64ce5acb97489d65b14ecc7a,64cf49bb75e78ea9166956b1,,,,,,,ctch,resources/DBN.BMP,resources/DY.BMP,Door4,-0.145370314,-0.159259288,1,0,0,3.1092,optionLeft,80,110,1,1,0,1,0,1,,,,,,,,,,,,,,,,,,,,,,,,,,,,,,,,,,,,,,,
,,,,,,,,2023-08-06_08h20.56.010,HF_wild_card,2022.2.4,Win32,60.10337781,5ea00a03e32996000ac2da80,64ce5acb97489d65b14ecc7a,64cf49bb75e78ea9166956b1,,,,,,,decisionTrl,resources/DBN.BMP,resources/DP.BMP,Door3,0.198148176,-0.057407422,1,0,0,2.2443,optionRight,70,180,1,2,0,2,0,1,,,,,,,,,,,,,,,,,,,,,,,,,,,,,,,,,,,,,,,
,,,,,,,,2023-08-06_08h20.56.010,HF_wild_card,2022.2.4,Win32,60.10337781,5ea00a03e32996000ac2da80,64ce5acb97489d65b14ecc7a,64cf49bb75e78ea9166956b1,,,,,,,ctch,resources/DB.BMP,resources/DP.BMP,Door2,-0.227777778,-0.112037065,1,0,0,1.8775,optionLeft,20,200,1,3,0,3,0,1,,,,,,,,,,,,,,,,,,,,,,,,,,,,,,,,,,,,,,,
,,,,,,,,2023-08-06_08h20.56.010,HF_wild_card,2022.2.4,Win32,60.10337781,5ea00a03e32996000ac2da80,64ce5acb97489d65b14ecc7a,64cf49bb75e78ea9166956b1,,,,,,,decisionTrl,resources/DR.BMP,resources/DB.BMP,WildCard_NonEx,-0.220370356,-0.112037065,1,0,0,3.0768,optionLeft,45,245,1,4,0,4,0,1,,,,,,,,,,,,,,,,,,,,,,,,,,,,,,,,,,,,,,,
,,,,,,,,2023-08-06_08h20.56.010,HF_wild_card,2022.2.4,Win32,60.10337781,5ea00a03e32996000ac2da80,64ce5acb97489d65b14ecc7a,64cf49bb75e78ea9166956b1,,,,,,,ctch,resources/DP.BMP,resources/DB.BMP,Door2,0.275,0.021296268,1,0,0,2.261,optionRight,40,285,1,5,0,5,0,1,,,,,,,,,,,,,,,,,,,,,,,,,,,,,,,,,,,,,,,
,,,,,,,,2023-08-06_08h20.56.010,HF_wild_card,2022.2.4,Win32,60.10337781,5ea00a03e32996000ac2da80,64ce5acb97489d65b14ecc7a,64cf49bb75e78ea9166956b1,,,,,,,sngl,resources/Empty.png,resources/DB.BMP,Door2,0.230555556,0.024074046,1,0,0,2.1938,optionRight,20,305,1,6,0,6,0,1,,,,,,,,,,,,,,,,,,,,,,,,,,,,,,,,,,,,,,,
,,,,,,,,2023-08-06_08h20.56.010,HF_wild_card,2022.2.4,Win32,60.10337781,5ea00a03e32996000ac2da80,64ce5acb97489d65b14ecc7a,64cf49bb75e78ea9166956b1,,,,,,,decisionTrl,resources/DBN.BMP,resources/DR.BMP,WildCard_NonEx,0.259259288,-0.022222222,1,0,0,1.7947,optionRight,55,360,1,7,0,7,0,1,,,,,,,,,,,,,,,,,,,,,,,,,,,,,,,,,,,,,,,
,,,,,,,,2023-08-06_08h20.56.010,HF_wild_card,2022.2.4,Win32,60.10337781,5ea00a03e32996000ac2da80,64ce5acb97489d65b14ecc7a,64cf49bb75e78ea9166956b1,,,,,,,decisionTrl,resources/DB.BMP,resources/DY.BMP,Door1,0.354629686,0.007407379,1,0,0,2.5606,optionRight,30,390,1,8,0,8,0,1,,,,,,,,,,,,,,,,,,,,,,,,,,,,,,,,,,,,,,,
,,,,,,,,2023-08-06_08h20.56.010,HF_wild_card,2022.2.4,Win32,60.10337781,5ea00a03e32996000ac2da80,64ce5acb97489d65b14ecc7a,64cf49bb75e78ea9166956b1,,,,,,,decisionTrl,resources/DB.BMP,resources/DY.BMP,Door2,-0.186111111,-0.084259288,1,0,0,1.0278,optionLeft,20,410,1,9,0,9,0,1,,,,,,,,,,,,,,,,,,,,,,,,,,,,,,,,,,,,,,,
,,,,,,,,2023-08-06_08h20.56.010,HF_wild_card,2022.2.4,Win32,60.10337781,5ea00a03e32996000ac2da80,64ce5acb97489d65b14ecc7a,64cf49bb75e78ea9166956b1,,,,,,,ctch,resources/DP.BMP,resources/DB.BMP,Door2,0.212963019,-0.005555556,1,0,0,1.495,optionRight,20,430,1,10,0,10,0,1,,,,,,,,,,,,,,,,,,,,,,,,,,,,,,,,,,,,,,,
,,,,,,,,2023-08-06_08h20.56.010,HF_wild_card,2022.2.4,Win32,60.10337781,5ea00a03e32996000ac2da80,64ce5acb97489d65b14ecc7a,64cf49bb75e78ea9166956b1,,,,,,,decisionTrl,resources/DP.BMP,resources/DBN.BMP,Door3,-0.266666667,-0.123148176,1,0,0,1.7452,optionLeft,70,500,1,11,0,11,0,1,,,,,,,,,,,,,,,,,,,,,,,,,,,,,,,,,,,,,,,
,,,,,,,,2023-08-06_08h20.56.010,HF_wild_card,2022.2.4,Win32,60.10337781,5ea00a03e32996000ac2da80,64ce5acb97489d65b14ecc7a,64cf49bb75e78ea9166956b1,,,,,,,decisionTrl,resources/DP.BMP,resources/DR.BMP,Door3,-0.219444444,-0.124074088,1,0,0,1.746,optionLeft,70,570,1,12,0,12,0,1,,,,,,,,,,,,,,,,,,,,,,,,,,,,,,,,,,,,,,,
,,,,,,,,2023-08-06_08h20.56.010,HF_wild_card,2022.2.4,Win32,60.10337781,5ea00a03e32996000ac2da80,64ce5acb97489d65b14ecc7a,64cf49bb75e78ea9166956b1,,,,,,,sngl,resources/Empty.png,resources/DR.BMP,WildCard_NonEx,0.172222222,-0.020370399,1,0,0,1.1946,optionRight,55,625,1,13,0,13,0,1,,,,,,,,,,,,,,,,,,,,,,,,,,,,,,,,,,,,,,,
,,,,,,,,2023-08-06_08h20.56.010,HF_wild_card,2022.2.4,Win32,60.10337781,5ea00a03e32996000ac2da80,64ce5acb97489d65b14ecc7a,64cf49bb75e78ea9166956b1,,,,,,,decisionTrl,resources/DY.BMP,resources/DB.BMP,Door1,-0.234259245,-0.064814843,1,0,0,1.5617,optionLeft,30,655,1,14,0,14,0,1,,,,,,,,,,,,,,,,,,,,,,,,,,,,,,,,,,,,,,,
,,,,,,,,2023-08-06_08h20.56.010,HF_wild_card,2022.2.4,Win32,60.10337781,5ea00a03e32996000ac2da80,64ce5acb97489d65b14ecc7a,64cf49bb75e78ea9166956b1,,,,,,,decisionTrl,resources/DY.BMP,resources/DB.BMP,Door2,0.219444444,-0.025925954,1,0,0,1.0454,optionRight,20,675,1,15,0,15,0,1,,,,,,,,,,,,,,,,,,,,,,,,,,,,,,,,,,,,,,,
,,,,,,,,2023-08-06_08h20.56.010,HF_wild_card,2022.2.4,Win32,60.10337781,5ea00a03e32996000ac2da80,64ce5acb97489d65b14ecc7a,64cf49bb75e78ea9166956b1,,,,,,,sngl,resources/DB.BMP,resources/Empty.png,Door2,-0.175,-0.09629631,1,0,0,1.06,optionLeft,40,715,1,16,0,16,0,1,,,,,,,,,,,,,,,,,,,,,,,,,,,,,,,,,,,,,,,
,,,,,,,,2023-08-06_08h20.56.010,HF_wild_card,2022.2.4,Win32,60.10337781,5ea00a03e32996000ac2da80,64ce5acb97489d65b14ecc7a,64cf49bb75e78ea9166956b1,,,,,,,ctch,resources/DBN.BMP,resources/DY.BMP,Door1,0.295370399,-0.022222222,1,0,0,1.494,optionRight,30,745,1,17,0,17,0,1,,,,,,,,,,,,,,,,,,,,,,,,,,,,,,,,,,,,,,,
,,,,,,,,2023-08-06_08h20.56.010,HF_wild_card,2022.2.4,Win32,60.10337781,5ea00a03e32996000ac2da80,64ce5acb97489d65b14ecc7a,64cf49bb75e78ea9166956b1,,,,,,,sngl,resources/Empty.png,resources/DY.BMP,Door1,0.203703732,0.007407379,1,0,0,1.1616,optionRight,30,775,1,18,0,18,0,1,,,,,,,,,,,,,,,,,,,,,,,,,,,,,,,,,,,,,,,
,,,,,,,,2023-08-06_08h20.56.010,HF_wild_card,2022.2.4,Win32,60.10337781,5ea00a03e32996000ac2da80,64ce5acb97489d65b14ecc7a,64cf49bb75e78ea9166956b1,,,,,,,decisionTrl,resources/DBN.BMP,resources/DP.BMP,Door3,0.246296353,0.013888889,1,0,0,1.0615,optionRight,70,845,1,19,0,19,0,1,,,,,,,,,,,,,,,,,,,,,,,,,,,,,,,,,,,,,,,
,,,,,,,,2023-08-06_08h20.56.010,HF_wild_card,2022.2.4,Win32,60.10337781,5ea00a03e32996000ac2da80,64ce5acb97489d65b14ecc7a,64cf49bb75e78ea9166956b1,,,,,,,decisionTrl,resources/DP.BMP,resources/DBN.BMP,Door3,-0.346296268,-0.194444444,1,0,0,1.0961,optionLeft,70,915,1,20,0,20,0,1,,,,,,,,,,,,,,,,,,,,,,,,,,,,,,,,,,,,,,,
,,,,,,,,2023-08-06_08h20.56.010,HF_wild_card,2022.2.4,Win32,60.10337781,5ea00a03e32996000ac2da80,64ce5acb97489d65b14ecc7a,64cf49bb75e78ea9166956b1,,,,,,,sngl,resources/DP.BMP,resources/Empty.png,Door3,-0.153703647,-0.067592621,1,0,0,1.0939,optionLeft,70,985,1,21,0,21,0,1,,,,,,,,,,,,,,,,,,,,,,,,,,,,,,,,,,,,,,,
,,,,,,,,2023-08-06_08h20.56.010,HF_wild_card,2022.2.4,Win32,60.10337781,5ea00a03e32996000ac2da80,64ce5acb97489d65b14ecc7a,64cf49bb75e78ea9166956b1,,,,,,,decisionTrl,resources/DB.BMP,resources/DY.BMP,Door2,-0.241666667,-0.126851866,1,0,0,1.0113,optionLeft,40,1025,1,22,0,22,0,1,,,,,,,,,,,,,,,,,,,,,,,,,,,,,,,,,,,,,,,
,,,,,,,,2023-08-06_08h20.56.010,HF_wild_card,2022.2.4,Win32,60.10337781,5ea00a03e32996000ac2da80,64ce5acb97489d65b14ecc7a,64cf49bb75e78ea9166956b1,,,,,,,ctch,resources/DY.BMP,resources/DBN.BMP,Door1,-0.221296268,-0.111111111,1,0,0,1.2265,optionLeft,30,1055,1,23,0,23,0,1,,,,,,,,,,,,,,,,,,,,,,,,,,,,,,,,,,,,,,,
,,,,,,,,2023-08-06_08h20.56.010,HF_wild_card,2022.2.4,Win32,60.10337781,5ea00a03e32996000ac2da80,64ce5acb97489d65b14ecc7a,64cf49bb75e78ea9166956b1,,,,,,,decisionTrl,resources/DY.BMP,resources/DB.BMP,Door1,-0.19351849,-0.077777778,1,0,0,1.328,optionLeft,30,1085,1,24,0,24,0,1,,,,,,,,,,,,,,,,,,,,,,,,,,,,,,,,,,,,,,,
,,,,,,,,2023-08-06_08h20.56.010,HF_wild_card,2022.2.4,Win32,60.10337781,5ea00a03e32996000ac2da80,64ce5acb97489d65b14ecc7a,64cf49bb75e78ea9166956b1,,,,,,,decisionTrl,resources/DBN.BMP,resources/DP.BMP,Door3,0.299074131,0.000925912,1,0,0,1.2283,optionRight,70,1155,1,25,0,25,0,1,,,,,,,,,,,,,,,,,,,,,,,,,,,,,,,,,,,,,,,
,,,,,,,,2023-08-06_08h20.56.010,HF_wild_card,2022.2.4,Win32,60.10337781,5ea00a03e32996000ac2da80,64ce5acb97489d65b14ecc7a,64cf49bb75e78ea9166956b1,,,,,,,decisionTrl,resources/DP.BMP,resources/DBN.BMP,Door3,-0.182407379,-0.062037065,1,0,0,0.9439,optionLeft,70,1225,1,26,0,26,0,1,,,,,,,,,,,,,,,,,,,,,,,,,,,,,,,,,,,,,,,
,,,,,,,,2023-08-06_08h20.56.010,HF_wild_card,2022.2.4,Win32,60.10337781,5ea00a03e32996000ac2da80,64ce5acb97489d65b14ecc7a,64cf49bb75e78ea9166956b1,,,,,,,sngl,resources/DR.BMP,resources/Empty.png,WildCard_NonEx,-0.155555556,-0.062962977,1,0,0,1.8589,optionLeft,45,1270,1,27,0,27,0,1,,,,,,,,,,,,,,,,,,,,,,,,,,,,,,,,,,,,,,,
,,,,,,,,2023-08-06_08h20.56.010,HF_wild_card,2022.2.4,Win32,60.10337781,5ea00a03e32996000ac2da80,64ce5acb97489d65b14ecc7a,64cf49bb75e78ea9166956b1,,,,,,,sngl,resources/DR.BMP,resources/Empty.png,WildCard_NonEx,-0.136111111,-0.104629644,1,0,0,1.0293,optionLeft,55,1325,1,28,0,28,0,1,,,,,,,,,,,,,,,,,,,,,,,,,,,,,,,,,,,,,,,
,,,,,,,,2023-08-06_08h20.56.010,HF_wild_card,2022.2.4,Win32,60.10337781,5ea00a03e32996000ac2da80,64ce5acb97489d65b14ecc7a,64cf49bb75e78ea9166956b1,,,,,,,decisionTrl,resources/DB.BMP,resources/DY.BMP,Door1,0.329629686,-0.011111111,1,0,0,2.5945,optionRight,30,1355,1,29,0,29,0,1,,,,,,,,,,,,,,,,,,,,,,,,,,,,,,,,,,,,,,,
,,,,,,,,2023-08-06_08h20.56.010,HF_wild_card,2022.2.4,Win32,60.10337781,5ea00a03e32996000ac2da80,64ce5acb97489d65b14ecc7a,64cf49bb75e78ea9166956b1,,,,,,,decisionTrl,resources/DR.BMP,resources/DBN.BMP,WildCard_NonEx,-0.202777778,-0.087037065,1,0,0,0.9771,optionLeft,55,1410,1,30,0,30,0,1,,,,,,,,,,,,,,,,,,,,,,,,,,,,,,,,,,,,,,,
,,,,,,,,2023-08-06_08h20.56.010,HF_wild_card,2022.2.4,Win32,60.10337781,5ea00a03e32996000ac2da80,64ce5acb97489d65b14ecc7a,64cf49bb75e78ea9166956b1,,,,,,,decisionTrl,resources/DR.BMP,resources/DY.BMP,Door1,0.241666667,-0.010185199,1,0,0,1.5128,optionRight,30,1440,1,31,0,31,0,1,,,,,,,,,,,,,,,,,,,,,,,,,,,,,,,,,,,,,,,
,,,,,,,,2023-08-06_08h20.56.010,HF_wild_card,2022.2.4,Win32,60.10337781,5ea00a03e32996000ac2da80,64ce5acb97489d65b14ecc7a,64cf49bb75e78ea9166956b1,,,,,,,decisionTrl,resources/DP.BMP,resources/DBN.BMP,Door3,-0.15,-0.105555556,1,0,0,0.9945,optionLeft,70,1510,1,32,0,32,0,1,,,,,,,,,,,,,,,,,,,,,,,,,,,,,,,,,,,,,,,
,,,,,,,,2023-08-06_08h20.56.010,HF_wild_card,2022.2.4,Win32,60.10337781,5ea00a03e32996000ac2da80,64ce5acb97489d65b14ecc7a,64cf49bb75e78ea9166956b1,,,,,,,decisionTrl,resources/DY.BMP,resources/DR.BMP,Door1,-0.000925869,-0.011111111,1,0,0,0.4796,optionLeft,30,1540,1,33,0,33,0,1,,,,,,,,,,,,,,,,,,,,,,,,,,,,,,,,,,,,,,,
,,,,,,,,2023-08-06_08h20.56.010,HF_wild_card,2022.2.4,Win32,60.10337781,5ea00a03e32996000ac2da80,64ce5acb97489d65b14ecc7a,64cf49bb75e78ea9166956b1,,,,,,,decisionTrl,resources/DB.BMP,resources/DR.BMP,Door2,-0.126851824,-0.042592621,1,0,0,1.6953,optionLeft,20,1560,1,34,0,34,0,1,,,,,,,,,,,,,,,,,,,,,,,,,,,,,,,,,,,,,,,
,,,,,,,,2023-08-06_08h20.56.010,HF_wild_card,2022.2.4,Win32,60.10337781,5ea00a03e32996000ac2da80,64ce5acb97489d65b14ecc7a,64cf49bb75e78ea9166956b1,,,,,,,sngl,resources/Empty.png,resources/DR.BMP,WildCard_NonEx,0.275925954,0.015740712,1,0,0,1.0117,optionRight,45,1605,1,35,0,35,0,1,,,,,,,,,,,,,,,,,,,,,,,,,,,,,,,,,,,,,,,
,,,,,,,,2023-08-06_08h20.56.010,HF_wild_card,2022.2.4,Win32,60.10337781,5ea00a03e32996000ac2da80,64ce5acb97489d65b14ecc7a,64cf49bb75e78ea9166956b1,,,,,,,decisionTrl,resources/DBN.BMP,resources/DP.BMP,Door3,0.264814843,-0.027777778,1,0,0,0.9101,optionRight,70,1675,1,36,0,36,0,1,,,,,,,,,,,,,,,,,,,,,,,,,,,,,,,,,,,,,,,
,,,,,,,,2023-08-06_08h20.56.010,HF_wild_card,2022.2.4,Win32,60.10337781,5ea00a03e32996000ac2da80,64ce5acb97489d65b14ecc7a,64cf49bb75e78ea9166956b1,,,,,,,sngl,resources/Empty.png,resources/DBN.BMP,Door4,0.246296353,0.010185157,1,0,0,1.0283,optionRight,60,1735,1,37,0,37,0,1,,,,,,,,,,,,,,,,,,,,,,,,,,,,,,,,,,,,,,,
,,,,,,,,2023-08-06_08h20.56.010,HF_wild_card,2022.2.4,Win32,60.10337781,5ea00a03e32996000ac2da80,64ce5acb97489d65b14ecc7a,64cf49bb75e78ea9166956b1,,,,,,,sngl,resources/Empty.png,resources/DP.BMP,Door3,0.266666667,-0.010185199,1,0,0,0.8779,optionRight,70,1805,1,38,0,38,0,1,,,,,,,,,,,,,,,,,,,,,,,,,,,,,,,,,,,,,,,
,,,,,,,,2023-08-06_08h20.56.010,HF_wild_card,2022.2.4,Win32,60.10337781,5ea00a03e32996000ac2da80,64ce5acb97489d65b14ecc7a,64cf49bb75e78ea9166956b1,,,,,,,ctch,resources/DY.BMP,resources/DBN.BMP,Door1,-0.187962935,-0.114814843,1,0,0,1.8074,optionLeft,30,1835,1,39,0,39,0,1,,,,,,,,,,,,,,,,,,,,,,,,,,,,,,,,,,,,,,,
,,,,,,,,2023-08-06_08h20.56.010,HF_wild_card,2022.2.4,Win32,60.10337781,5ea00a03e32996000ac2da80,64ce5acb97489d65b14ecc7a,64cf49bb75e78ea9166956b1,,,,,,,sngl,resources/DBN.BMP,resources/Empty.png,Door4,-0.221296268,-0.133333333,1,0,0,1.0282,optionLeft,80,1915,1,40,0,40,0,1,,,,,,,,,,,,,,,,,,,,,,,,,,,,,,,,,,,,,,,
,,,,,,,,2023-08-06_08h20.56.010,HF_wild_card,2022.2.4,Win32,60.10337781,5ea00a03e32996000ac2da80,64ce5acb97489d65b14ecc7a,64cf49bb75e78ea9166956b1,,,,,,,decisionTrl,resources/DR.BMP,resources/DP.BMP,WildCard_NonEx,-0.189814801,-0.105555556,1,0,0,2.4766,optionLeft,55,1970,1,41,0,41,0,1,,,,,,,,,,,,,,,,,,,,,,,,,,,,,,,,,,,,,,,
,,,,,,,,2023-08-06_08h20.56.010,HF_wild_card,2022.2.4,Win32,60.10337781,5ea00a03e32996000ac2da80,64ce5acb97489d65b14ecc7a,64cf49bb75e78ea9166956b1,,,,,,,sngl,resources/DY.BMP,resources/Empty.png,Door1,-0.194444444,-0.057407422,1,0,0,1.378,optionLeft,30,2000,1,42,0,42,0,1,,,,,,,,,,,,,,,,,,,,,,,,,,,,,,,,,,,,,,,
,,,,,,,,2023-08-06_08h20.56.010,HF_wild_card,2022.2.4,Win32,60.10337781,5ea00a03e32996000ac2da80,64ce5acb97489d65b14ecc7a,64cf49bb75e78ea9166956b1,,,,,,,ctch,resources/DB.BMP,resources/DP.BMP,Door3,0.207407464,-0.023148176,1,0,0,1.4274,optionRight,70,2070,1,43,0,43,0,1,,,,,,,,,,,,,,,,,,,,,,,,,,,,,,,,,,,,,,,
,,,,,,,,2023-08-06_08h20.56.010,HF_wild_card,2022.2.4,Win32,60.10337781,5ea00a03e32996000ac2da80,64ce5acb97489d65b14ecc7a,64cf49bb75e78ea9166956b1,,,,,,,,,,,,,,,,,,,,,,,,,,0,0,0,0,1,,,,,,,,,,,,,,,,,,,,,,,,,,,,,,,,,,
,,,,,,,,2023-08-06_08h20.56.010,HF_wild_card,2022.2.4,Win32,60.10337781,5ea00a03e32996000ac2da80,64ce5acb97489d65b14ecc7a,64cf49bb75e78ea9166956b1,,,,,,,decisionTrl,resources/DY.BMP,resources/DB.BMP,Door2,0.111111111,-0.082407422,1,0,0,2.4497,optionRight,40,2110,2,0,0,0,0,1,,,,,,,,,,,,,,,,,,,,,,,,,,,,,,,,,,,,,,,
,,,,,,,,2023-08-06_08h20.56.010,HF_wild_card,2022.2.4,Win32,60.10337781,5ea00a03e32996000ac2da80,64ce5acb97489d65b14ecc7a,64cf49bb75e78ea9166956b1,,,,,,,sngl,resources/DR.BMP,resources/Empty.png,WildCard_NonEx,-0.157407379,-0.012037065,1,0,0,0.8577,optionLeft,45,2155,2,1,0,1,0,1,,,,,,,,,,,,,,,,,,,,,,,,,,,,,,,,,,,,,,,
,,,,,,,,2023-08-06_08h20.56.010,HF_wild_card,2022.2.4,Win32,60.10337781,5ea00a03e32996000ac2da80,64ce5acb97489d65b14ecc7a,64cf49bb75e78ea9166956b1,,,,,,,decisionTrl,resources/DB.BMP,resources/DR.BMP,Door2,-0.189814801,-0.079629644,1,0,0,1.7176,optionLeft,20,2175,2,2,0,2,0,1,,,,,,,,,,,,,,,,,,,,,,,,,,,,,,,,,,,,,,,
,,,,,,,,2023-08-06_08h20.56.010,HF_wild_card,2022.2.4,Win32,60.10337781,5ea00a03e32996000ac2da80,64ce5acb97489d65b14ecc7a,64cf49bb75e78ea9166956b1,,,,,,,ctch,resources/DBN.BMP,resources/DY.BMP,Door1,0.165740797,0.029629601,1,0,0,1.0358,optionRight,30,2205,2,3,0,3,0,1,,,,,,,,,,,,,,,,,,,,,,,,,,,,,,,,,,,,,,,
,,,,,,,,2023-08-06_08h20.56.010,HF_wild_card,2022.2.4,Win32,60.10337781,5ea00a03e32996000ac2da80,64ce5acb97489d65b14ecc7a,64cf49bb75e78ea9166956b1,,,,,,,sngl,resources/Empty.png,resources/DBN.BMP,Door4,0.241666667,0.046296268,1,0,0,1.0334,optionRight,80,2285,2,4,0,4,0,1,,,,,,,,,,,,,,,,,,,,,,,,,,,,,,,,,,,,,,,
,,,,,,,,2023-08-06_08h20.56.010,HF_wild_card,2022.2.4,Win32,60.10337781,5ea00a03e32996000ac2da80,64ce5acb97489d65b14ecc7a,64cf49bb75e78ea9166956b1,,,,,,,decisionTrl,resources/DY.BMP,resources/DR.BMP,Door1,-0.20370369,-0.059259288,1,0,0,2.3312,optionLeft,30,2315,2,5,0,5,0,1,,,,,,,,,,,,,,,,,,,,,,,,,,,,,,,,,,,,,,,
,,,,,,,,2023-08-06_08h20.56.010,HF_wild_card,2022.2.4,Win32,60.10337781,5ea00a03e32996000ac2da80,64ce5acb97489d65b14ecc7a,64cf49bb75e78ea9166956b1,,,,,,,ctch,resources/DB.BMP,resources/DP.BMP,Door3,0.336111111,-0.004629644,1,0,0,1.7625,optionRight,70,2385,2,6,0,6,0,1,,,,,,,,,,,,,,,,,,,,,,,,,,,,,,,,,,,,,,,
,,,,,,,,2023-08-06_08h20.56.010,HF_wild_card,2022.2.4,Win32,60.10337781,5ea00a03e32996000ac2da80,64ce5acb97489d65b14ecc7a,64cf49bb75e78ea9166956b1,,,,,,,sngl,resources/DBN.BMP,resources/Empty.png,Door4,-0.136111111,-0.050925954,1,0,0,1.3063,optionLeft,60,2445,2,7,0,7,0,1,,,,,,,,,,,,,,,,,,,,,,,,,,,,,,,,,,,,,,,
,,,,,,,,2023-08-06_08h20.56.010,HF_wild_card,2022.2.4,Win32,60.10337781,5ea00a03e32996000ac2da80,64ce5acb97489d65b14ecc7a,64cf49bb75e78ea9166956b1,,,,,,,decisionTrl,resources/DY.BMP,resources/DB.BMP,Door2,0.180555556,-0.017592621,1,0,0,1.9015,optionRight,20,2465,2,8,0,8,0,1,,,,,,,,,,,,,,,,,,,,,,,,,,,,,,,,,,,,,,,
,,,,,,,,2023-08-06_08h20.56.010,HF_wild_card,2022.2.4,Win32,60.10337781,5ea00a03e32996000ac2da80,64ce5acb97489d65b14ecc7a,64cf49bb75e78ea9166956b1,,,,,,,decisionTrl,resources/DBN.BMP,resources/DR.BMP,WildCard_NonEx,0.297222222,-0.000925954,1,0,0,1.1851,optionRight,45,2510,2,9,0,9,0,1,,,,,,,,,,,,,,,,,,,,,,,,,,,,,,,,,,,,,,,
,,,,,,,,2023-08-06_08h20.56.010,HF_wild_card,2022.2.4,Win32,60.10337781,5ea00a03e32996000ac2da80,64ce5acb97489d65b14ecc7a,64cf49bb75e78ea9166956b1,,,,,,,decisionTrl,resources/DY.BMP,resources/DB.BMP,Door1,-0.291666667,-0.136111111,1,0,0,1.8144,optionLeft,30,2540,2,10,0,10,0,1,,,,,,,,,,,,,,,,,,,,,,,,,,,,,,,,,,,,,,,
,,,,,,,,2023-08-06_08h20.56.010,HF_wild_card,2022.2.4,Win32,60.10337781,5ea00a03e32996000ac2da80,64ce5acb97489d65b14ecc7a,64cf49bb75e78ea9166956b1,,,,,,,decisionTrl,resources/DB.BMP,resources/DY.BMP,Door1,0.222222222,0.037037023,1,0,0,1.2888,optionRight,30,2570,2,11,0,11,0,1,,,,,,,,,,,,,,,,,,,,,,,,,,,,,,,,,,,,,,,
,,,,,,,,2023-08-06_08h20.56.010,HF_wild_card,2022.2.4,Win32,60.10337781,5ea00a03e32996000ac2da80,64ce5acb97489d65b14ecc7a,64cf49bb75e78ea9166956b1,,,,,,,decisionTrl,resources/DP.BMP,resources/DBN.BMP,Door3,-0.225,-0.090740755,1,0,0,0.9942,optionLeft,70,2640,2,12,0,12,0,1,,,,,,,,,,,,,,,,,,,,,,,,,,,,,,,,,,,,,,,
,,,,,,,,2023-08-06_08h20.56.010,HF_wild_card,2022.2.4,Win32,60.10337781,5ea00a03e32996000ac2da80,64ce5acb97489d65b14ecc7a,64cf49bb75e78ea9166956b1,,,,,,,ctch,resources/DY.BMP,resources/DBN.BMP,Door4,0.202777778,0.038888889,1,0,0,1.746,optionRight,60,2700,2,13,0,13,0,1,,,,,,,,,,,,,,,,,,,,,,,,,,,,,,,,,,,,,,,
,,,,,,,,2023-08-06_08h20.56.010,HF_wild_card,2022.2.4,Win32,60.10337781,5ea00a03e32996000ac2da80,64ce5acb97489d65b14ecc7a,64cf49bb75e78ea9166956b1,,,,,,,sngl,resources/Empty.png,resources/DP.BMP,Door3,0.164814843,-0.012037065,1,0,0,1.2607,optionRight,70,2770,2,14,0,14,0,1,,,,,,,,,,,,,,,,,,,,,,,,,,,,,,,,,,,,,,,
,,,,,,,,2023-08-06_08h20.56.010,HF_wild_card,2022.2.4,Win32,60.10337781,5ea00a03e32996000ac2da80,64ce5acb97489d65b14ecc7a,64cf49bb75e78ea9166956b1,,,,,,,decisionTrl,resources/DBN.BMP,resources/DP.BMP,Door3,0.246296353,0.001851824,1,0,0,1.2612,optionRight,70,2840,2,15,0,15,0,1,,,,,,,,,,,,,,,,,,,,,,,,,,,,,,,,,,,,,,,
,,,,,,,,2023-08-06_08h20.56.010,HF_wild_card,2022.2.4,Win32,60.10337781,5ea00a03e32996000ac2da80,64ce5acb97489d65b14ecc7a,64cf49bb75e78ea9166956b1,,,,,,,ctch,resources/DP.BMP,resources/DB.BMP,Door3,-0.238888889,-0.1,1,0,0,1.1211,optionLeft,70,2910,2,16,0,16,0,1,,,,,,,,,,,,,,,,,,,,,,,,,,,,,,,,,,,,,,,
,,,,,,,,2023-08-06_08h20.56.010,HF_wild_card,2022.2.4,Win32,60.10337781,5ea00a03e32996000ac2da80,64ce5acb97489d65b14ecc7a,64cf49bb75e78ea9166956b1,,,,,,,decisionTrl,resources/DBN.BMP,resources/DP.BMP,Door3,0.185185242,-0.019444444,1,0,0,0.8942,optionRight,70,2980,2,17,0,17,0,1,,,,,,,,,,,,,,,,,,,,,,,,,,,,,,,,,,,,,,,
,,,,,,,,2023-08-06_08h20.56.010,HF_wild_card,2022.2.4,Win32,60.10337781,5ea00a03e32996000ac2da80,64ce5acb97489d65b14ecc7a,64cf49bb75e78ea9166956b1,,,,,,,decisionTrl,resources/DP.BMP,resources/DBN.BMP,Door3,-0.202777778,-0.079629644,1,0,0,1.1796,optionLeft,70,3050,2,18,0,18,0,1,,,,,,,,,,,,,,,,,,,,,,,,,,,,,,,,,,,,,,,
,,,,,,,,2023-08-06_08h20.56.010,HF_wild_card,2022.2.4,Win32,60.10337781,5ea00a03e32996000ac2da80,64ce5acb97489d65b14ecc7a,64cf49bb75e78ea9166956b1,,,,,,,decisionTrl,resources/DP.BMP,resources/DBN.BMP,Door3,-0.224074046,-0.109259288,1,0,0,0.8949,optionLeft,70,3120,2,19,0,19,0,1,,,,,,,,,,,,,,,,,,,,,,,,,,,,,,,,,,,,,,,
,,,,,,,,2023-08-06_08h20.56.010,HF_wild_card,2022.2.4,Win32,60.10337781,5ea00a03e32996000ac2da80,64ce5acb97489d65b14ecc7a,64cf49bb75e78ea9166956b1,,,,,,,sngl,resources/DY.BMP,resources/Empty.png,Door1,-0.192592578,-0.090740755,1,0,0,1.4448,optionLeft,30,3150,2,20,0,20,0,1,,,,,,,,,,,,,,,,,,,,,,,,,,,,,,,,,,,,,,,
,,,,,,,,2023-08-06_08h20.56.010,HF_wild_card,2022.2.4,Win32,60.10337781,5ea00a03e32996000ac2da80,64ce5acb97489d65b14ecc7a,64cf49bb75e78ea9166956b1,,,,,,,decisionTrl,resources/DR.BMP,resources/DBN.BMP,WildCard_NonEx,-0.240740712,-0.13148151,1,0,0,0.9781,optionLeft,45,3195,2,21,0,21,0,1,,,,,,,,,,,,,,,,,,,,,,,,,,,,,,,,,,,,,,,
,,,,,,,,2023-08-06_08h20.56.010,HF_wild_card,2022.2.4,Win32,60.10337781,5ea00a03e32996000ac2da80,64ce5acb97489d65b14ecc7a,64cf49bb75e78ea9166956b1,,,,,,,decisionTrl,resources/DB.BMP,resources/DY.BMP,Door2,-0.191666667,-0.107407422,1,0,0,0.9289,optionLeft,20,3215,2,22,0,22,0,1,,,,,,,,,,,,,,,,,,,,,,,,,,,,,,,,,,,,,,,
,,,,,,,,2023-08-06_08h20.56.010,HF_wild_card,2022.2.4,Win32,60.10337781,5ea00a03e32996000ac2da80,64ce5acb97489d65b14ecc7a,64cf49bb75e78ea9166956b1,,,,,,,ctch,resources/DB.BMP,resources/DP.BMP,Door3,0.345370399,0.023148134,1,0,0,1.178,optionRight,70,3285,2,23,0,23,0,1,,,,,,,,,,,,,,,,,,,,,,,,,,,,,,,,,,,,,,,
,,,,,,,,2023-08-06_08h20.56.010,HF_wild_card,2022.2.4,Win32,60.10337781,5ea00a03e32996000ac2da80,64ce5acb97489d65b14ecc7a,64cf49bb75e78ea9166956b1,,,,,,,sngl,resources/Empty.png,resources/DY.BMP,Door1,0.135185242,-0.00648151,1,0,0,1.0093,optionRight,30,3315,2,24,0,24,0,1,,,,,,,,,,,,,,,,,,,,,,,,,,,,,,,,,,,,,,,
,,,,,,,,2023-08-06_08h20.56.010,HF_wild_card,2022.2.4,Win32,60.10337781,5ea00a03e32996000ac2da80,64ce5acb97489d65b14ecc7a,64cf49bb75e78ea9166956b1,,,,,,,sngl,resources/Empty.png,resources/DR.BMP,WildCard_NonEx,0.157407464,-0.033333333,1,0,0,0.9275,optionRight,55,3370,2,25,0,25,0,1,,,,,,,,,,,,,,,,,,,,,,,,,,,,,,,,,,,,,,,
,,,,,,,,2023-08-06_08h20.56.010,HF_wild_card,2022.2.4,Win32,60.10337781,5ea00a03e32996000ac2da80,64ce5acb97489d65b14ecc7a,64cf49bb75e78ea9166956b1,,,,,,,sngl,resources/DR.BMP,resources/Empty.png,WildCard_NonEx,-0.163888889,-0.087037065,1,0,0,0.7758,optionLeft,55,3425,2,26,0,26,0,1,,,,,,,,,,,,,,,,,,,,,,,,,,,,,,,,,,,,,,,
,,,,,,,,2023-08-06_08h20.56.010,HF_wild_card,2022.2.4,Win32,60.10337781,5ea00a03e32996000ac2da80,64ce5acb97489d65b14ecc7a,64cf49bb75e78ea9166956b1,,,,,,,decisionTrl,resources/DR.BMP,resources/DP.BMP,Door3,0.250925954,0.005555556,1,0,0,1.044,optionRight,70,3495,2,27,0,27,0,1,,,,,,,,,,,,,,,,,,,,,,,,,,,,,,,,,,,,,,,
,,,,,,,,2023-08-06_08h20.56.010,HF_wild_card,2022.2.4,Win32,60.10337781,5ea00a03e32996000ac2da80,64ce5acb97489d65b14ecc7a,64cf49bb75e78ea9166956b1,,,,,,,decisionTrl,resources/DR.BMP,resources/DB.BMP,WildCard_NonEx,-0.142592536,-0.041666667,1,0,0,1.3252,optionLeft,55,3550,2,28,0,28,0,1,,,,,,,,,,,,,,,,,,,,,,,,,,,,,,,,,,,,,,,
,,,,,,,,2023-08-06_08h20.56.010,HF_wild_card,2022.2.4,Win32,60.10337781,5ea00a03e32996000ac2da80,64ce5acb97489d65b14ecc7a,64cf49bb75e78ea9166956b1,,,,,,,decisionTrl,resources/DP.BMP,resources/DBN.BMP,Door3,-0.161111111,-0.110185199,1,0,0,1.0608,optionLeft,70,3620,2,29,0,29,0,1,,,,,,,,,,,,,,,,,,,,,,,,,,,,,,,,,,,,,,,
,,,,,,,,2023-08-06_08h20.56.010,HF_wild_card,2022.2.4,Win32,60.10337781,5ea00a03e32996000ac2da80,64ce5acb97489d65b14ecc7a,64cf49bb75e78ea9166956b1,,,,,,,decisionTrl,resources/DBN.BMP,resources/DP.BMP,Door3,0.138888889,-0.036111111,1,0,0,1.0598,optionRight,70,3690,2,30,0,30,0,1,,,,,,,,,,,,,,,,,,,,,,,,,,,,,,,,,,,,,,,
,,,,,,,,2023-08-06_08h20.56.010,HF_wild_card,2022.2.4,Win32,60.10337781,5ea00a03e32996000ac2da80,64ce5acb97489d65b14ecc7a,64cf49bb75e78ea9166956b1,,,,,,,decisionTrl,resources/DBN.BMP,resources/DP.BMP,Door3,0.120370399,-0.047222222,1,0,0,0.9083,optionRight,70,3760,2,31,0,31,0,1,,,,,,,,,,,,,,,,,,,,,,,,,,,,,,,,,,,,,,,
,,,,,,,,2023-08-06_08h20.56.010,HF_wild_card,2022.2.4,Win32,60.10337781,5ea00a03e32996000ac2da80,64ce5acb97489d65b14ecc7a,64cf49bb75e78ea9166956b1,,,,,,,decisionTrl,resources/DY.BMP,resources/DB.BMP,Door1,-0.236111111,-0.102777778,1,0,0,1.209,optionLeft,30,3790,2,32,0,32,0,1,,,,,,,,,,,,,,,,,,,,,,,,,,,,,,,,,,,,,,,
,,,,,,,,2023-08-06_08h20.56.010,HF_wild_card,2022.2.4,Win32,60.10337781,5ea00a03e32996000ac2da80,64ce5acb97489d65b14ecc7a,64cf49bb75e78ea9166956b1,,,,,,,sngl,resources/DP.BMP,resources/Empty.png,Door3,-0.160185157,-0.102777778,1,0,0,0.8937,optionLeft,70,3860,2,33,0,33,0,1,,,,,,,,,,,,,,,,,,,,,,,,,,,,,,,,,,,,,,,
,,,,,,,,2023-08-06_08h20.56.010,HF_wild_card,2022.2.4,Win32,60.10337781,5ea00a03e32996000ac2da80,64ce5acb97489d65b14ecc7a,64cf49bb75e78ea9166956b1,,,,,,,decisionTrl,resources/DB.BMP,resources/DY.BMP,Door1,0.159259288,-0.045370399,1,0,0,1.8433,optionRight,30,3890,2,34,0,34,0,1,,,,,,,,,,,,,,,,,,,,,,,,,,,,,,,,,,,,,,,
,,,,,,,,2023-08-06_08h20.56.010,HF_wild_card,2022.2.4,Win32,60.10337781,5ea00a03e32996000ac2da80,64ce5acb97489d65b14ecc7a,64cf49bb75e78ea9166956b1,,,,,,,ctch,resources/DBN.BMP,resources/DY.BMP,Door1,0.276851908,0.017592578,1,0,0,1.1596,optionRight,30,3920,2,35,0,35,0,1,,,,,,,,,,,,,,,,,,,,,,,,,,,,,,,,,,,,,,,
,,,,,,,,2023-08-06_08h20.56.010,HF_wild_card,2022.2.4,Win32,60.10337781,5ea00a03e32996000ac2da80,64ce5acb97489d65b14ecc7a,64cf49bb75e78ea9166956b1,,,,,,,decisionTrl,resources/DB.BMP,resources/DY.BMP,Door2,-0.264814801,-0.065740755,1,0,0,2.229,optionLeft,20,3940,2,36,0,36,0,1,,,,,,,,,,,,,,,,,,,,,,,,,,,,,,,,,,,,,,,
,,,,,,,,2023-08-06_08h20.56.010,HF_wild_card,2022.2.4,Win32,60.10337781,5ea00a03e32996000ac2da80,64ce5acb97489d65b14ecc7a,64cf49bb75e78ea9166956b1,,,,,,,decisionTrl,resources/DP.BMP,resources/DR.BMP,Door3,-0.169444444,-0.073148176,1,0,0,1.0621,optionLeft,70,4010,2,37,0,37,0,1,,,,,,,,,,,,,,,,,,,,,,,,,,,,,,,,,,,,,,,
,,,,,,,,2023-08-06_08h20.56.010,HF_wild_card,2022.2.4,Win32,60.10337781,5ea00a03e32996000ac2da80,64ce5acb97489d65b14ecc7a,64cf49bb75e78ea9166956b1,,,,,,,sngl,resources/DB.BMP,resources/Empty.png,Door2,-0.145370314,-0.082407422,1,0,0,1.2615,optionLeft,20,4030,2,38,0,38,0,1,,,,,,,,,,,,,,,,,,,,,,,,,,,,,,,,,,,,,,,
,,,,,,,,2023-08-06_08h20.56.010,HF_wild_card,2022.2.4,Win32,60.10337781,5ea00a03e32996000ac2da80,64ce5acb97489d65b14ecc7a,64cf49bb75e78ea9166956b1,,,,,,,ctch,resources/DP.BMP,resources/DB.BMP,Door3,-0.151851824,-0.076851866,1,0,0,1.2749,optionLeft,70,4100,2,39,0,39,0,1,,,,,,,,,,,,,,,,,,,,,,,,,,,,,,,,,,,,,,,
,,,,,,,,2023-08-06_08h20.56.010,HF_wild_card,2022.2.4,Win32,60.10337781,5ea00a03e32996000ac2da80,64ce5acb97489d65b14ecc7a,64cf49bb75e78ea9166956b1,,,,,,,decisionTrl,resources/DR.BMP,resources/DY.BMP,Door1,0.143518575,-0.016666667,1,0,0,1.6596,optionRight,30,4130,2,40,0,40,0,1,,,,,,,,,,,,,,,,,,,,,,,,,,,,,,,,,,,,,,,
,,,,,,,,2023-08-06_08h20.56.010,HF_wild_card,2022.2.4,Win32,60.10337781,5ea00a03e32996000ac2da80,64ce5acb97489d65b14ecc7a,64cf49bb75e78ea9166956b1,,,,,,,ctch,resources/DY.BMP,resources/DBN.BMP,Door1,-0.29351849,-0.110185199,1,0,0,0.9722,optionLeft,30,4160,2,41,0,41,0,1,,,,,,,,,,,,,,,,,,,,,,,,,,,,,,,,,,,,,,,
,,,,,,,,2023-08-06_08h20.56.010,HF_wild_card,2022.2.4,Win32,60.10337781,5ea00a03e32996000ac2da80,64ce5acb97489d65b14ecc7a,64cf49bb75e78ea9166956b1,,,,,,,sngl,resources/Empty.png,resources/DR.BMP,WildCard_NonEx,0.183333333,0.00370369,1,0,0,1.3436,optionRight,45,4205,2,42,0,42,0,1,,,,,,,,,,,,,,,,,,,,,,,,,,,,,,,,,,,,,,,
,,,,,,,,2023-08-06_08h20.56.010,HF_wild_card,2022.2.4,Win32,60.10337781,5ea00a03e32996000ac2da80,64ce5acb97489d65b14ecc7a,64cf49bb75e78ea9166956b1,,,,,,,sngl,resources/Empty.png,resources/DB.BMP,Door2,0.191666667,-0.012037065,1,0,0,0.9613,optionRight,40,4245,2,43,0,43,0,1,,,,,,,,,,,,,,,,,,,,,,,,,,,,,,,,,,,,,,,
,,,,,,,,2023-08-06_08h20.56.010,HF_wild_card,2022.2.4,Win32,60.10337781,5ea00a03e32996000ac2da80,64ce5acb97489d65b14ecc7a,64cf49bb75e78ea9166956b1,,,,,,,,,,,,,,,,,,,,,,,,,,1,0,1,0,1,,,,,,,,,,,,,,,,,,,,,,,,,,,,,,,,,,
,,,,,,,,2023-08-06_08h20.56.010,HF_wild_card,2022.2.4,Win32,60.10337781,5ea00a03e32996000ac2da80,64ce5acb97489d65b14ecc7a,64cf49bb75e78ea9166956b1,,,,,,,decisionTrl,resources/DB.BMP,resources/DY.BMP,Door1,0.169444444,-0.137962977,1,0,0,1.3418,optionRight,30,4275,3,0,0,0,0,1,,,,,,,,,,,,,,,,,,,,,,,,,,,,,,,,,,,,,,,
,,,,,,,,2023-08-06_08h20.56.010,HF_wild_card,2022.2.4,Win32,60.10337781,5ea00a03e32996000ac2da80,64ce5acb97489d65b14ecc7a,64cf49bb75e78ea9166956b1,,,,,,,decisionTrl,resources/DY.BMP,resources/DB.BMP,Door1,-0.191666667,-0.110185199,1,0,0,1.1937,optionLeft,30,4305,3,1,0,1,0,1,,,,,,,,,,,,,,,,,,,,,,,,,,,,,,,,,,,,,,,
,,,,,,,,2023-08-06_08h20.56.010,HF_wild_card,2022.2.4,Win32,60.10337781,5ea00a03e32996000ac2da80,64ce5acb97489d65b14ecc7a,64cf49bb75e78ea9166956b1,,,,,,,sngl,resources/DR.BMP,resources/Empty.png,WildCard_NonEx,-0.138888889,-0.034259288,1,0,0,0.9081,optionLeft,45,4350,3,2,0,2,0,1,,,,,,,,,,,,,,,,,,,,,,,,,,,,,,,,,,,,,,,
,,,,,,,,2023-08-06_08h20.56.010,HF_wild_card,2022.2.4,Win32,60.10337781,5ea00a03e32996000ac2da80,64ce5acb97489d65b14ecc7a,64cf49bb75e78ea9166956b1,,,,,,,decisionTrl,resources/DBN.BMP,resources/DP.BMP,Door3,0.126851908,-0.011111111,1,0,0,1.0597,optionRight,70,4420,3,3,0,3,0,1,,,,,,,,,,,,,,,,,,,,,,,,,,,,,,,,,,,,,,,
,,,,,,,,2023-08-06_08h20.56.010,HF_wild_card,2022.2.4,Win32,60.10337781,5ea00a03e32996000ac2da80,64ce5acb97489d65b14ecc7a,64cf49bb75e78ea9166956b1,,,,,,,decisionTrl,resources/DB.BMP,resources/DR.BMP,WildCard_NonEx,0.192592621,-0.007407422,1,0,0,1.4078,optionRight,55,4475,3,4,0,4,0,1,,,,,,,,,,,,,,,,,,,,,,,,,,,,,,,,,,,,,,,
,,,,,,,,2023-08-06_08h20.56.010,HF_wild_card,2022.2.4,Win32,60.10337781,5ea00a03e32996000ac2da80,64ce5acb97489d65b14ecc7a,64cf49bb75e78ea9166956b1,,,,,,,sngl,resources/DB.BMP,resources/Empty.png,Door2,-0.17870369,-0.079629644,1,0,0,0.8638,optionLeft,40,4515,3,5,0,5,0,1,,,,,,,,,,,,,,,,,,,,,,,,,,,,,,,,,,,,,,,
,,,,,,,,2023-08-06_08h20.56.010,HF_wild_card,2022.2.4,Win32,60.10337781,5ea00a03e32996000ac2da80,64ce5acb97489d65b14ecc7a,64cf49bb75e78ea9166956b1,,,,,,,sngl,resources/Empty.png,resources/DR.BMP,WildCard_NonEx,0.137037065,-0.022222222,1,0,0,0.8439,optionRight,45,4560,3,6,0,6,0,1,,,,,,,,,,,,,,,,,,,,,,,,,,,,,,,,,,,,,,,
,,,,,,,,2023-08-06_08h20.56.010,HF_wild_card,2022.2.4,Win32,60.10337781,5ea00a03e32996000ac2da80,64ce5acb97489d65b14ecc7a,64cf49bb75e78ea9166956b1,,,,,,,decisionTrl,resources/DB.BMP,resources/DY.BMP,Door1,0.148148176,-0.039814843,1,0,0,1.1924,optionRight,30,4590,3,7,0,7,0,1,,,,,,,,,,,,,,,,,,,,,,,,,,,,,,,,,,,,,,,
,,,,,,,,2023-08-06_08h20.56.010,HF_wild_card,2022.2.4,Win32,60.10337781,5ea00a03e32996000ac2da80,64ce5acb97489d65b14ecc7a,64cf49bb75e78ea9166956b1,,,,,,,ctch,resources/DB.BMP,resources/DP.BMP,Door3,0.145370399,-0.02129631,1,0,0,1.2771,optionRight,70,4660,3,8,0,8,0,1,,,,,,,,,,,,,,,,,,,,,,,,,,,,,,,,,,,,,,,
,,,,,,,,2023-08-06_08h20.56.010,HF_wild_card,2022.2.4,Win32,60.10337781,5ea00a03e32996000ac2da80,64ce5acb97489d65b14ecc7a,64cf49bb75e78ea9166956b1,,,,,,,decisionTrl,resources/DY.BMP,resources/DB.BMP,Door1,-0.189814801,-0.084259288,1,0,0,1.3081,optionLeft,30,4690,3,9,0,9,0,1,,,,,,,,,,,,,,,,,,,,,,,,,,,,,,,,,,,,,,,
,,,,,,,,2023-08-06_08h20.56.010,HF_wild_card,2022.2.4,Win32,60.10337781,5ea00a03e32996000ac2da80,64ce5acb97489d65b14ecc7a,64cf49bb75e78ea9166956b1,,,,,,,decisionTrl,resources/DY.BMP,resources/DB.BMP,Door2,0.128703732,-0.007407422,1,0,0,1.1916,optionRight,40,4730,3,10,0,10,0,1,,,,,,,,,,,,,,,,,,,,,,,,,,,,,,,,,,,,,,,
,,,,,,,,2023-08-06_08h20.56.010,HF_wild_card,2022.2.4,Win32,60.10337781,5ea00a03e32996000ac2da80,64ce5acb97489d65b14ecc7a,64cf49bb75e78ea9166956b1,,,,,,,sngl,resources/Empty.png,resources/DBN.BMP,Door4,0.148148176,-0.008333333,1,0,0,1.0739,optionRight,60,4790,3,11,0,11,0,1,,,,,,,,,,,,,,,,,,,,,,,,,,,,,,,,,,,,,,,
,,,,,,,,2023-08-06_08h20.56.010,HF_wild_card,2022.2.4,Win32,60.10337781,5ea00a03e32996000ac2da80,64ce5acb97489d65b14ecc7a,64cf49bb75e78ea9166956b1,,,,,,,sngl,resources/DR.BMP,resources/Empty.png,WildCard_NonEx,-0.190740712,-0.087037065,1,0,0,0.9921,optionLeft,55,4845,3,12,0,12,0,1,,,,,,,,,,,,,,,,,,,,,,,,,,,,,,,,,,,,,,,
,,,,,,,,2023-08-06_08h20.56.010,HF_wild_card,2022.2.4,Win32,60.10337781,5ea00a03e32996000ac2da80,64ce5acb97489d65b14ecc7a,64cf49bb75e78ea9166956b1,,,,,,,sngl,resources/DBN.BMP,resources/Empty.png,Door4,-0.146296268,-0.076851866,1,0,0,0.8618,optionLeft,80,4925,3,13,0,13,0,1,,,,,,,,,,,,,,,,,,,,,,,,,,,,,,,,,,,,,,,
,,,,,,,,2023-08-06_08h20.56.010,HF_wild_card,2022.2.4,Win32,60.10337781,5ea00a03e32996000ac2da80,64ce5acb97489d65b14ecc7a,64cf49bb75e78ea9166956b1,,,,,,,decisionTrl,resources/DBN.BMP,resources/DP.BMP,Door3,0.162037065,-0.007407422,1,0,0,0.9775,optionRight,70,4995,3,14,0,14,0,1,,,,,,,,,,,,,,,,,,,,,,,,,,,,,,,,,,,,,,,
,,,,,,,,2023-08-06_08h20.56.010,HF_wild_card,2022.2.4,Win32,60.10337781,5ea00a03e32996000ac2da80,64ce5acb97489d65b14ecc7a,64cf49bb75e78ea9166956b1,,,,,,,sngl,resources/Empty.png,resources/DP.BMP,Door3,0.183333333,-0.008333333,1,0,0,0.8591,optionRight,70,5065,3,15,0,15,0,1,,,,,,,,,,,,,,,,,,,,,,,,,,,,,,,,,,,,,,,
,,,,,,,,2023-08-06_08h20.56.010,HF_wild_card,2022.2.4,Win32,60.10337781,5ea00a03e32996000ac2da80,64ce5acb97489d65b14ecc7a,64cf49bb75e78ea9166956b1,,,,,,,decisionTrl,resources/DBN.BMP,resources/DP.BMP,Door3,0.103703732,-0.033333333,1,0,0,0.9936,optionRight,70,5135,3,16,0,16,0,1,,,,,,,,,,,,,,,,,,,,,,,,,,,,,,,,,,,,,,,
,,,,,,,,2023-08-06_08h20.56.010,HF_wild_card,2022.2.4,Win32,60.10337781,5ea00a03e32996000ac2da80,64ce5acb97489d65b14ecc7a,64cf49bb75e78ea9166956b1,,,,,,,decisionTrl,resources/DB.BMP,resources/DY.BMP,Door2,-0.210185157,-0.068518533,1,0,0,1.4403,optionLeft,40,5175,3,17,0,17,0,1,,,,,,,,,,,,,,,,,,,,,,,,,,,,,,,,,,,,,,,
,,,,,,,,2023-08-06_08h20.56.010,HF_wild_card,2022.2.4,Win32,60.10337781,5ea00a03e32996000ac2da80,64ce5acb97489d65b14ecc7a,64cf49bb75e78ea9166956b1,,,,,,,decisionTrl,resources/DBN.BMP,resources/DR.BMP,WildCard_NonEx,0.143518575,-0.00648151,1,0,0,2.0124,optionRight,55,5230,3,18,0,18,0,1,,,,,,,,,,,,,,,,,,,,,,,,,,,,,,,,,,,,,,,
,,,,,,,,2023-08-06_08h20.56.010,HF_wild_card,2022.2.4,Win32,60.10337781,5ea00a03e32996000ac2da80,64ce5acb97489d65b14ecc7a,64cf49bb75e78ea9166956b1,,,,,,,sngl,resources/Empty.png,resources/DR.BMP,WildCard_NonEx,0.163888889,0.000925912,1,0,0,0.9599,optionRight,55,5285,3,19,0,19,0,1,,,,,,,,,,,,,,,,,,,,,,,,,,,,,,,,,,,,,,,
,,,,,,,,2023-08-06_08h20.56.010,HF_wild_card,2022.2.4,Win32,60.10337781,5ea00a03e32996000ac2da80,64ce5acb97489d65b14ecc7a,64cf49bb75e78ea9166956b1,,,,,,,ctch,resources/DBN.BMP,resources/DY.BMP,Door1,0.150925954,-0.014814843,1,0,0,1.3435,optionRight,30,5315,3,20,0,20,0,1,,,,,,,,,,,,,,,,,,,,,,,,,,,,,,,,,,,,,,,
,,,,,,,,2023-08-06_08h20.56.010,HF_wild_card,2022.2.4,Win32,60.10337781,5ea00a03e32996000ac2da80,64ce5acb97489d65b14ecc7a,64cf49bb75e78ea9166956b1,,,,,,,sngl,resources/DY.BMP,resources/Empty.png,Door1,-0.147222222,-0.063888889,1,0,0,0.7925,optionLeft,30,5345,3,21,0,21,0,1,,,,,,,,,,,,,,,,,,,,,,,,,,,,,,,,,,,,,,,
,,,,,,,,2023-08-06_08h20.56.010,HF_wild_card,2022.2.4,Win32,60.10337781,5ea00a03e32996000ac2da80,64ce5acb97489d65b14ecc7a,64cf49bb75e78ea9166956b1,,,,,,,ctch,resources/DP.BMP,resources/DB.BMP,Door3,-0.332407379,-0.069444444,1,0,0,1.8277,optionLeft,70,5415,3,22,0,22,0,1,,,,,,,,,,,,,,,,,,,,,,,,,,,,,,,,,,,,,,,
,,,,,,,,2023-08-06_08h20.56.010,HF_wild_card,2022.2.4,Win32,60.10337781,5ea00a03e32996000ac2da80,64ce5acb97489d65b14ecc7a,64cf49bb75e78ea9166956b1,,,,,,,decisionTrl,resources/DR.BMP,resources/DY.BMP,WildCard_NonEx,-0.122222222,-0.035185199,1,0,0,1.5111,optionLeft,45,5460,3,23,0,23,0,1,,,,,,,,,,,,,,,,,,,,,,,,,,,,,,,,,,,,,,,
,,,,,,,,2023-08-06_08h20.56.010,HF_wild_card,2022.2.4,Win32,60.10337781,5ea00a03e32996000ac2da80,64ce5acb97489d65b14ecc7a,64cf49bb75e78ea9166956b1,,,,,,,sngl,resources/Empty.png,resources/DB.BMP,Door2,0.191666667,-0.00648151,1,0,0,0.9617,optionRight,20,5480,3,24,0,24,0,1,,,,,,,,,,,,,,,,,,,,,,,,,,,,,,,,,,,,,,,
,,,,,,,,2023-08-06_08h20.56.010,HF_wild_card,2022.2.4,Win32,60.10337781,5ea00a03e32996000ac2da80,64ce5acb97489d65b14ecc7a,64cf49bb75e78ea9166956b1,,,,,,,decisionTrl,resources/DP.BMP,resources/DR.BMP,Door3,-0.260185157,-0.137037065,1,0,0,1.0745,optionLeft,70,5550,3,25,0,25,0,1,,,,,,,,,,,,,,,,,,,,,,,,,,,,,,,,,,,,,,,
,,,,,,,,2023-08-06_08h20.56.010,HF_wild_card,2022.2.4,Win32,60.10337781,5ea00a03e32996000ac2da80,64ce5acb97489d65b14ecc7a,64cf49bb75e78ea9166956b1,,,,,,,ctch,resources/DY.BMP,resources/DBN.BMP,Door4,0.215740797,-0.005555556,1,0,0,1.9587,optionRight,60,5610,3,26,0,26,0,1,,,,,,,,,,,,,,,,,,,,,,,,,,,,,,,,,,,,,,,
,,,,,,,,2023-08-06_08h20.56.010,HF_wild_card,2022.2.4,Win32,60.10337781,5ea00a03e32996000ac2da80,64ce5acb97489d65b14ecc7a,64cf49bb75e78ea9166956b1,,,,,,,decisionTrl,resources/DP.BMP,resources/DBN.BMP,Door3,-0.252777778,-0.086111111,1,0,0,1.5112,optionLeft,70,5680,3,27,0,27,0,1,,,,,,,,,,,,,,,,,,,,,,,,,,,,,,,,,,,,,,,
,,,,,,,,2023-08-06_08h20.56.010,HF_wild_card,2022.2.4,Win32,60.10337781,5ea00a03e32996000ac2da80,64ce5acb97489d65b14ecc7a,64cf49bb75e78ea9166956b1,,,,,,,decisionTrl,resources/DB.BMP,resources/DY.BMP,Door2,-0.21851849,-0.116666667,1,0,0,1.9973,optionLeft,20,5700,3,28,0,28,0,1,,,,,,,,,,,,,,,,,,,,,,,,,,,,,,,,,,,,,,,
,,,,,,,,2023-08-06_08h20.56.010,HF_wild_card,2022.2.4,Win32,60.10337781,5ea00a03e32996000ac2da80,64ce5acb97489d65b14ecc7a,64cf49bb75e78ea9166956b1,,,,,,,sngl,resources/DP.BMP,resources/Empty.png,Door3,-0.152777778,-0.035185199,1,0,0,1.2108,optionLeft,70,5770,3,29,0,29,0,1,,,,,,,,,,,,,,,,,,,,,,,,,,,,,,,,,,,,,,,
,,,,,,,,2023-08-06_08h20.56.010,HF_wild_card,2022.2.4,Win32,60.10337781,5ea00a03e32996000ac2da80,64ce5acb97489d65b14ecc7a,64cf49bb75e78ea9166956b1,,,,,,,ctch,resources/DB.BMP,resources/DP.BMP,Door3,0.175,0.002777778,1,0,0,1.1102,optionRight,70,5840,3,30,0,30,0,1,,,,,,,,,,,,,,,,,,,,,,,,,,,,,,,,,,,,,,,
,,,,,,,,2023-08-06_08h20.56.010,HF_wild_card,2022.2.4,Win32,60.10337781,5ea00a03e32996000ac2da80,64ce5acb97489d65b14ecc7a,64cf49bb75e78ea9166956b1,,,,,,,decisionTrl,resources/DY.BMP,resources/DB.BMP,Door2,0.249074131,0.013888889,1,0,0,1.7955,optionRight,20,5860,3,31,0,31,0,1,,,,,,,,,,,,,,,,,,,,,,,,,,,,,,,,,,,,,,,
,,,,,,,,2023-08-06_08h20.56.010,HF_wild_card,2022.2.4,Win32,60.10337781,5ea00a03e32996000ac2da80,64ce5acb97489d65b14ecc7a,64cf49bb75e78ea9166956b1,,,,,,,decisionTrl,resources/DP.BMP,resources/DBN.BMP,Door3,-0.176851824,-0.088888889,1,0,0,1.1264,optionLeft,70,5930,3,32,0,32,0,1,,,,,,,,,,,,,,,,,,,,,,,,,,,,,,,,,,,,,,,
,,,,,,,,2023-08-06_08h20.56.010,HF_wild_card,2022.2.4,Win32,60.10337781,5ea00a03e32996000ac2da80,64ce5acb97489d65b14ecc7a,64cf49bb75e78ea9166956b1,,,,,,,ctch,resources/DP.BMP,resources/DB.BMP,Door3,-0.114814758,-0.075925954,1,0,0,1.3928,optionLeft,70,6000,3,33,0,33,0,1,,,,,,,,,,,,,,,,,,,,,,,,,,,,,,,,,,,,,,,
,,,,,,,,2023-08-06_08h20.56.010,HF_wild_card,2022.2.4,Win32,60.10337781,5ea00a03e32996000ac2da80,64ce5acb97489d65b14ecc7a,64cf49bb75e78ea9166956b1,,,,,,,decisionTrl,resources/DP.BMP,resources/DBN.BMP,Door3,-0.130555556,-0.050925954,1,0,0,1.3256,optionLeft,70,6070,3,34,0,34,0,1,,,,,,,,,,,,,,,,,,,,,,,,,,,,,,,,,,,,,,,
,,,,,,,,2023-08-06_08h20.56.010,HF_wild_card,2022.2.4,Win32,60.10337781,5ea00a03e32996000ac2da80,64ce5acb97489d65b14ecc7a,64cf49bb75e78ea9166956b1,,,,,,,decisionTrl,resources/DR.BMP,resources/DBN.BMP,Door4,0.200925954,0.000925912,1,0,0,1.6258,optionRight,80,6150,3,35,0,35,0,1,,,,,,,,,,,,,,,,,,,,,,,,,,,,,,,,,,,,,,,
,,,,,,,,2023-08-06_08h20.56.010,HF_wild_card,2022.2.4,Win32,60.10337781,5ea00a03e32996000ac2da80,64ce5acb97489d65b14ecc7a,64cf49bb75e78ea9166956b1,,,,,,,decisionTrl,resources/DP.BMP,resources/DBN.BMP,Door4,0.241666667,0.008333333,1,0,0,1.6755,optionRight,80,6230,3,36,0,36,0,1,,,,,,,,,,,,,,,,,,,,,,,,,,,,,,,,,,,,,,,
,,,,,,,,2023-08-06_08h20.56.010,HF_wild_card,2022.2.4,Win32,60.10337781,5ea00a03e32996000ac2da80,64ce5acb97489d65b14ecc7a,64cf49bb75e78ea9166956b1,,,,,,,decisionTrl,resources/DR.BMP,resources/DB.BMP,Door2,0.196296353,-0.025925954,1,0,0,1.943,optionRight,40,6270,3,37,0,37,0,1,,,,,,,,,,,,,,,,,,,,,,,,,,,,,,,,,,,,,,,
,,,,,,,,2023-08-06_08h20.56.010,HF_wild_card,2022.2.4,Win32,60.10337781,5ea00a03e32996000ac2da80,64ce5acb97489d65b14ecc7a,64cf49bb75e78ea9166956b1,,,,,,,decisionTrl,resources/DY.BMP,resources/DR.BMP,WildCard_NonEx,0.133333333,0.001851824,1,0,0,1.4269,optionRight,45,6315,3,38,0,38,0,1,,,,,,,,,,,,,,,,,,,,,,,,,,,,,,,,,,,,,,,
,,,,,,,,2023-08-06_08h20.56.010,HF_wild_card,2022.2.4,Win32,60.10337781,5ea00a03e32996000ac2da80,64ce5acb97489d65b14ecc7a,64cf49bb75e78ea9166956b1,,,,,,,decisionTrl,resources/DBN.BMP,resources/DP.BMP,Door4,-0.212037023,-0.042592621,1,0,0,1.6921,optionLeft,60,6375,3,39,0,39,0,1,,,,,,,,,,,,,,,,,,,,,,,,,,,,,,,,,,,,,,,
,,,,,,,,2023-08-06_08h20.56.010,HF_wild_card,2022.2.4,Win32,60.10337781,5ea00a03e32996000ac2da80,64ce5acb97489d65b14ecc7a,64cf49bb75e78ea9166956b1,,,,,,,sngl,resources/Empty.png,resources/DY.BMP,Door1,0.162963019,0.004629601,1,0,0,1.2102,optionRight,30,6405,3,40,0,40,0,1,,,,,,,,,,,,,,,,,,,,,,,,,,,,,,,,,,,,,,,
,,,,,,,,2023-08-06_08h20.56.010,HF_wild_card,2022.2.4,Win32,60.10337781,5ea00a03e32996000ac2da80,64ce5acb97489d65b14ecc7a,64cf49bb75e78ea9166956b1,,,,,,,ctch,resources/DBN.BMP,resources/DY.BMP,Door4,-0.184259245,-0.028703732,1,0,0,1.7101,optionLeft,80,6485,3,41,0,41,0,1,,,,,,,,,,,,,,,,,,,,,,,,,,,,,,,,,,,,,,,
,,,,,,,,2023-08-06_08h20.56.010,HF_wild_card,2022.2.4,Win32,60.10337781,5ea00a03e32996000ac2da80,64ce5acb97489d65b14ecc7a,64cf49bb75e78ea9166956b1,,,,,,,ctch,resources/DY.BMP,resources/DBN.BMP,Door4,0.161111111,0.026851824,1,0,0,1.2595,optionRight,60,6545,3,42,0,42,0,1,,,,,,,,,,,,,,,,,,,,,,,,,,,,,,,,,,,,,,,
,,,,,,,,2023-08-06_08h20.56.010,HF_wild_card,2022.2.4,Win32,60.10337781,5ea00a03e32996000ac2da80,64ce5acb97489d65b14ecc7a,64cf49bb75e78ea9166956b1,,,,,,,decisionTrl,resources/DR.BMP,resources/DP.BMP,Door3,0.159259288,0.008333333,1,0,0,1.0106,optionRight,70,6615,3,43,0,43,0,1,,,,,,,,,,,,,,,,,,,,,,,,,,,,,,,,,,,,,,,
,,,,,,,,2023-08-06_08h20.56.010,HF_wild_card,2022.2.4,Win32,60.10337781,5ea00a03e32996000ac2da80,64ce5acb97489d65b14ecc7a,64cf49bb75e78ea9166956b1,,,,,,,,,,,,,,,,,,,,,,,,,,2,0,2,0,1,,,,,,,,,,,,,,,,,,,,,,,,,,,,,,,,,,
,,,,,,,,2023-08-06_08h20.56.010,HF_wild_card,2022.2.4,Win32,60.10337781,5ea00a03e32996000ac2da80,64ce5acb97489d65b14ecc7a,64cf49bb75e78ea9166956b1,,,,,,,decisionTrl,resources/DB.BMP,resources/DY.BMP,Door1,0.130555556,-0.110185199,1,0,0,3.6959,optionRight,30,6645,4,0,0,0,0,1,,,,,,,,,,,,,,,,,,,,,,,,,,,,,,,,,,,,,,,
,,,,,,,,2023-08-06_08h20.56.010,HF_wild_card,2022.2.4,Win32,60.10337781,5ea00a03e32996000ac2da80,64ce5acb97489d65b14ecc7a,64cf49bb75e78ea9166956b1,,,,,,,decisionTrl,resources/DG.BMP,resources/DY.BMP,WildCard_Ex,-0.119444444,-0.030555556,1,0,0,1.7436,optionLeft,5,6650,4,1,0,1,0,1,,,,,,,,,,,,,,,,,,,,,,,,,,,,,,,,,,,,,,,
,,,,,,,,2023-08-06_08h20.56.010,HF_wild_card,2022.2.4,Win32,60.10337781,5ea00a03e32996000ac2da80,64ce5acb97489d65b14ecc7a,64cf49bb75e78ea9166956b1,,,,,,,sngl,resources/Empty.png,resources/DBN.BMP,Door4,0.142592621,-0.002777778,1,0,0,1.0947,optionRight,80,6730,4,2,0,2,0,1,,,,,,,,,,,,,,,,,,,,,,,,,,,,,,,,,,,,,,,
,,,,,,,,2023-08-06_08h20.56.010,HF_wild_card,2022.2.4,Win32,60.10337781,5ea00a03e32996000ac2da80,64ce5acb97489d65b14ecc7a,64cf49bb75e78ea9166956b1,,,,,,,sngl,resources/Empty.png,resources/DB.BMP,Door2,0.198148176,-0.017592621,1,0,0,0.9258,optionRight,40,6770,4,3,0,3,0,1,,,,,,,,,,,,,,,,,,,,,,,,,,,,,,,,,,,,,,,
,,,,,,,,2023-08-06_08h20.56.010,HF_wild_card,2022.2.4,Win32,60.10337781,5ea00a03e32996000ac2da80,64ce5acb97489d65b14ecc7a,64cf49bb75e78ea9166956b1,,,,,,,ctch,resources/DB.BMP,resources/DP.BMP,Door3,0.171296353,-0.012962977,1,0,0,2.3764,optionRight,70,6840,4,4,0,4,0,1,,,,,,,,,,,,,,,,,,,,,,,,,,,,,,,,,,,,,,,
,,,,,,,,2023-08-06_08h20.56.010,HF_wild_card,2022.2.4,Win32,60.10337781,5ea00a03e32996000ac2da80,64ce5acb97489d65b14ecc7a,64cf49bb75e78ea9166956b1,,,,,,,decisionTrl,resources/DY.BMP,resources/DB.BMP,Door2,0.150925954,-0.003703732,1,0,0,1.7934,optionRight,40,6880,4,5,0,5,0,1,,,,,,,,,,,,,,,,,,,,,,,,,,,,,,,,,,,,,,,
,,,,,,,,2023-08-06_08h20.56.010,HF_wild_card,2022.2.4,Win32,60.10337781,5ea00a03e32996000ac2da80,64ce5acb97489d65b14ecc7a,64cf49bb75e78ea9166956b1,,,,,,,sngl,resources/DG.BMP,resources/Empty.png,WildCard_Ex,-0.200925912,-0.055555556,1,0,0,1.5773,optionLeft,95,6975,4,6,0,6,0,1,,,,,,,,,,,,,,,,,,,,,,,,,,,,,,,,,,,,,,,
,,,,,,,,2023-08-06_08h20.56.010,HF_wild_card,2022.2.4,Win32,60.10337781,5ea00a03e32996000ac2da80,64ce5acb97489d65b14ecc7a,64cf49bb75e78ea9166956b1,,,,,,,ctch,resources/DB.BMP,resources/DP.BMP,Door3,0.15,-0.022222222,1,0,0,1.8431,optionRight,70,7045,4,7,0,7,0,1,,,,,,,,,,,,,,,,,,,,,,,,,,,,,,,,,,,,,,,
,,,,,,,,2023-08-06_08h20.56.010,HF_wild_card,2022.2.4,Win32,60.10337781,5ea00a03e32996000ac2da80,64ce5acb97489d65b14ecc7a,64cf49bb75e78ea9166956b1,,,,,,,ctch,resources/DY.BMP,resources/DBN.BMP,Door4,0.162037065,-0.014814843,1,0,0,1.9956,optionRight,60,7105,4,8,0,8,0,1,,,,,,,,,,,,,,,,,,,,,,,,,,,,,,,,,,,,,,,
,,,,,,,,2023-08-06_08h20.56.010,HF_wild_card,2022.2.4,Win32,60.10337781,5ea00a03e32996000ac2da80,64ce5acb97489d65b14ecc7a,64cf49bb75e78ea9166956b1,,,,,,,decisionTrl,resources/DP.BMP,resources/DBN.BMP,Door4,0.192592621,-0.000925954,1,0,0,1.6097,optionRight,80,7185,4,9,0,9,0,1,,,,,,,,,,,,,,,,,,,,,,,,,,,,,,,,,,,,,,,
,,,,,,,,2023-08-06_08h20.56.010,HF_wild_card,2022.2.4,Win32,60.10337781,5ea00a03e32996000ac2da80,64ce5acb97489d65b14ecc7a,64cf49bb75e78ea9166956b1,,,,,,,sngl,resources/DG.BMP,resources/Empty.png,WildCard_Ex,-0.224074046,-0.064814843,1,0,0,1.1607,optionLeft,5,7190,4,10,0,10,0,1,,,,,,,,,,,,,,,,,,,,,,,,,,,,,,,,,,,,,,,
,,,,,,,,2023-08-06_08h20.56.010,HF_wild_card,2022.2.4,Win32,60.10337781,5ea00a03e32996000ac2da80,64ce5acb97489d65b14ecc7a,64cf49bb75e78ea9166956b1,,,,,,,ctch,resources/DBN.BMP,resources/DY.BMP,Door4,-0.141666667,-0.063888889,1,0,0,1.3774,optionLeft,80,7270,4,11,0,11,0,1,,,,,,,,,,,,,,,,,,,,,,,,,,,,,,,,,,,,,,,
,,,,,,,,2023-08-06_08h20.56.010,HF_wild_card,2022.2.4,Win32,60.10337781,5ea00a03e32996000ac2da80,64ce5acb97489d65b14ecc7a,64cf49bb75e78ea9166956b1,,,,,,,ctch,resources/DP.BMP,resources/DB.BMP,Door3,-0.156481425,-0.044444444,1,0,0,1.8776,optionLeft,70,7340,4,12,0,12,0,1,,,,,,,,,,,,,,,,,,,,,,,,,,,,,,,,,,,,,,,
,,,,,,,,2023-08-06_08h20.56.010,HF_wild_card,2022.2.4,Win32,60.10337781,5ea00a03e32996000ac2da80,64ce5acb97489d65b14ecc7a,64cf49bb75e78ea9166956b1,,,,,,,decisionTrl,resources/DY.BMP,resources/DB.BMP,Door2,0.152777778,0.009259245,1,0,0,1.4265,optionRight,20,7360,4,13,0,13,0,1,,,,,,,,,,,,,,,,,,,,,,,,,,,,,,,,,,,,,,,
,,,,,,,,2023-08-06_08h20.56.010,HF_wild_card,2022.2.4,Win32,60.10337781,5ea00a03e32996000ac2da80,64ce5acb97489d65b14ecc7a,64cf49bb75e78ea9166956b1,,,,,,,sngl,resources/Empty.png,resources/DY.BMP,Door1,0.204629686,0.019444444,1,0,0,1.4917,optionRight,30,7390,4,14,0,14,0,1,,,,,,,,,,,,,,,,,,,,,,,,,,,,,,,,,,,,,,,
,,,,,,,,2023-08-06_08h20.56.010,HF_wild_card,2022.2.4,Win32,60.10337781,5ea00a03e32996000ac2da80,64ce5acb97489d65b14ecc7a,64cf49bb75e78ea9166956b1,,,,,,,decisionTrl,resources/DB.BMP,resources/DY.BMP,Door1,0.217592621,0.022222222,1,0,0,1.7266,optionRight,30,7420,4,15,0,15,0,1,,,,,,,,,,,,,,,,,,,,,,,,,,,,,,,,,,,,,,,
,,,,,,,,2023-08-06_08h20.56.010,HF_wild_card,2022.2.4,Win32,60.10337781,5ea00a03e32996000ac2da80,64ce5acb97489d65b14ecc7a,64cf49bb75e78ea9166956b1,,,,,,,decisionTrl,resources/DG.BMP,resources/DP.BMP,WildCard_Ex,-0.169444444,-0.008333333,1,0,0,1.928,optionLeft,5,7425,4,16,0,16,0,1,,,,,,,,,,,,,,,,,,,,,,,,,,,,,,,,,,,,,,,
,,,,,,,,2023-08-06_08h20.56.010,HF_wild_card,2022.2.4,Win32,60.10337781,5ea00a03e32996000ac2da80,64ce5acb97489d65b14ecc7a,64cf49bb75e78ea9166956b1,,,,,,,decisionTrl,resources/DP.BMP,resources/DBN.BMP,Door4,0.172222222,0.040740712,1,0,0,1.7434,optionRight,60,7485,4,17,0,17,0,1,,,,,,,,,,,,,,,,,,,,,,,,,,,,,,,,,,,,,,,
,,,,,,,,2023-08-06_08h20.56.010,HF_wild_card,2022.2.4,Win32,60.10337781,5ea00a03e32996000ac2da80,64ce5acb97489d65b14ecc7a,64cf49bb75e78ea9166956b1,,,,,,,decisionTrl,resources/DG.BMP,resources/DBN.BMP,Door4,0.137037065,0.035185157,1,0,0,1.3925,optionRight,60,7545,4,18,0,18,0,1,,,,,,,,,,,,,,,,,,,,,,,,,,,,,,,,,,,,,,,
,,,,,,,,2023-08-06_08h20.56.010,HF_wild_card,2022.2.4,Win32,60.10337781,5ea00a03e32996000ac2da80,64ce5acb97489d65b14ecc7a,64cf49bb75e78ea9166956b1,,,,,,,decisionTrl,resources/DY.BMP,resources/DG.BMP,WildCard_Ex,0.187037065,0.055555556,1,0,0,1.5589,optionRight,95,7640,4,19,0,19,0,1,,,,,,,,,,,,,,,,,,,,,,,,,,,,,,,,,,,,,,,
,,,,,,,,2023-08-06_08h20.56.010,HF_wild_card,2022.2.4,Win32,60.10337781,5ea00a03e32996000ac2da80,64ce5acb97489d65b14ecc7a,64cf49bb75e78ea9166956b1,,,,,,,sngl,resources/Empty.png,resources/DP.BMP,Door3,0.186111111,0.025,1,0,0,0.9946,optionRight,70,7710,4,20,0,20,0,1,,,,,,,,,,,,,,,,,,,,,,,,,,,,,,,,,,,,,,,
,,,,,,,,2023-08-06_08h20.56.010,HF_wild_card,2022.2.4,Win32,60.10337781,5ea00a03e32996000ac2da80,64ce5acb97489d65b14ecc7a,64cf49bb75e78ea9166956b1,,,,,,,sngl,resources/DY.BMP,resources/Empty.png,Door1,-0.136111111,-0.015740755,1,0,0,1.2417,optionLeft,30,7740,4,21,0,21,0,1,,,,,,,,,,,,,,,,,,,,,,,,,,,,,,,,,,,,,,,
,,,,,,,,2023-08-06_08h20.56.010,HF_wild_card,2022.2.4,Win32,60.10337781,5ea00a03e32996000ac2da80,64ce5acb97489d65b14ecc7a,64cf49bb75e78ea9166956b1,,,,,,,decisionTrl,resources/DBN.BMP,resources/DG.BMP,WildCard_Ex,0.107407464,0.004629601,1,0,0,1.0274,optionRight,5,7745,4,22,0,22,0,1,,,,,,,,,,,,,,,,,,,,,,,,,,,,,,,,,,,,,,,
,,,,,,,,2023-08-06_08h20.56.010,HF_wild_card,2022.2.4,Win32,60.10337781,5ea00a03e32996000ac2da80,64ce5acb97489d65b14ecc7a,64cf49bb75e78ea9166956b1,,,,,,,ctch,resources/DY.BMP,resources/DBN.BMP,Door4,0.175925954,0.007407379,1,0,0,1.0273,optionRight,60,7805,4,23,0,23,0,1,,,,,,,,,,,,,,,,,,,,,,,,,,,,,,,,,,,,,,,
,,,,,,,,2023-08-06_08h20.56.010,HF_wild_card,2022.2.4,Win32,60.10337781,5ea00a03e32996000ac2da80,64ce5acb97489d65b14ecc7a,64cf49bb75e78ea9166956b1,,,,,,,sngl,resources/DP.BMP,resources/Empty.png,Door3,-0.131481425,-0.04629631,1,0,0,1.0121,optionLeft,70,7875,4,24,0,24,0,1,,,,,,,,,,,,,,,,,,,,,,,,,,,,,,,,,,,,,,,
,,,,,,,,2023-08-06_08h20.56.010,HF_wild_card,2022.2.4,Win32,60.10337781,5ea00a03e32996000ac2da80,64ce5acb97489d65b14ecc7a,64cf49bb75e78ea9166956b1,,,,,,,decisionTrl,resources/DBN.BMP,resources/DP.BMP,Door4,-0.252777778,-0.043518533,1,0,0,1.7109,optionLeft,80,7955,4,25,0,25,0,1,,,,,,,,,,,,,,,,,,,,,,,,,,,,,,,,,,,,,,,
,,,,,,,,2023-08-06_08h20.56.010,HF_wild_card,2022.2.4,Win32,60.10337781,5ea00a03e32996000ac2da80,64ce5acb97489d65b14ecc7a,64cf49bb75e78ea9166956b1,,,,,,,decisionTrl,resources/DY.BMP,resources/DB.BMP,Door1,-0.137962935,-0.041666667,1,0,0,1.7095,optionLeft,30,7985,4,26,0,26,0,1,,,,,,,,,,,,,,,,,,,,,,,,,,,,,,,,,,,,,,,
,,,,,,,,2023-08-06_08h20.56.010,HF_wild_card,2022.2.4,Win32,60.10337781,5ea00a03e32996000ac2da80,64ce5acb97489d65b14ecc7a,64cf49bb75e78ea9166956b1,,,,,,,decisionTrl,resources/DP.BMP,resources/DBN.BMP,Door4,0.15648151,0.006481467,1,0,0,1.0268,optionRight,80,8065,4,27,0,27,0,1,,,,,,,,,,,,,,,,,,,,,,,,,,,,,,,,,,,,,,,
,,,,,,,,2023-08-06_08h20.56.010,HF_wild_card,2022.2.4,Win32,60.10337781,5ea00a03e32996000ac2da80,64ce5acb97489d65b14ecc7a,64cf49bb75e78ea9166956b1,,,,,,,decisionTrl,resources/DB.BMP,resources/DG.BMP,WildCard_Ex,0.178703732,0.002777778,1,0,0,1.4103,optionRight,5,8070,4,28,0,28,0,1,,,,,,,,,,,,,,,,,,,,,,,,,,,,,,,,,,,,,,,
,,,,,,,,2023-08-06_08h20.56.010,HF_wild_card,2022.2.4,Win32,60.10337781,5ea00a03e32996000ac2da80,64ce5acb97489d65b14ecc7a,64cf49bb75e78ea9166956b1,,,,,,,ctch,resources/DBN.BMP,resources/DY.BMP,Door4,-0.205555556,-0.051851866,1,0,0,1.2759,optionLeft,60,8130,4,29,0,29,0,1,,,,,,,,,,,,,,,,,,,,,,,,,,,,,,,,,,,,,,,
,,,,,,,,2023-08-06_08h20.56.010,HF_wild_card,2022.2.4,Win32,60.10337781,5ea00a03e32996000ac2da80,64ce5acb97489d65b14ecc7a,64cf49bb75e78ea9166956b1,,,,,,,decisionTrl,resources/DP.BMP,resources/DBN.BMP,Door3,-0.21851849,-0.053703732,1,0,0,1.5755,optionLeft,70,8200,4,30,0,30,0,1,,,,,,,,,,,,,,,,,,,,,,,,,,,,,,,,,,,,,,,
,,,,,,,,2023-08-06_08h20.56.010,HF_wild_card,2022.2.4,Win32,60.10337781,5ea00a03e32996000ac2da80,64ce5acb97489d65b14ecc7a,64cf49bb75e78ea9166956b1,,,,,,,ctch,resources/DP.BMP,resources/DB.BMP,Door3,-0.187037023,-0.073148176,1,0,0,1.3958,optionLeft,70,8270,4,31,0,31,0,1,,,,,,,,,,,,,,,,,,,,,,,,,,,,,,,,,,,,,,,
,,,,,,,,2023-08-06_08h20.56.010,HF_wild_card,2022.2.4,Win32,60.10337781,5ea00a03e32996000ac2da80,64ce5acb97489d65b14ecc7a,64cf49bb75e78ea9166956b1,,,,,,,decisionTrl,resources/DG.BMP,resources/DB.BMP,WildCard_Ex,-0.162036981,-0.026851866,1,0,0,1.8429,optionLeft,5,8275,4,32,0,32,0,1,,,,,,,,,,,,,,,,,,,,,,,,,,,,,,,,,,,,,,,
,,,,,,,,2023-08-06_08h20.56.010,HF_wild_card,2022.2.4,Win32,60.10337781,5ea00a03e32996000ac2da80,64ce5acb97489d65b14ecc7a,64cf49bb75e78ea9166956b1,,,,,,,decisionTrl,resources/DB.BMP,resources/DY.BMP,Door1,0.15,0.014814801,1,0,0,1.9937,optionRight,30,8305,4,33,0,33,0,1,,,,,,,,,,,,,,,,,,,,,,,,,,,,,,,,,,,,,,,
,,,,,,,,2023-08-06_08h20.56.010,HF_wild_card,2022.2.4,Win32,60.10337781,5ea00a03e32996000ac2da80,64ce5acb97489d65b14ecc7a,64cf49bb75e78ea9166956b1,,,,,,,decisionTrl,resources/DP.BMP,resources/DG.BMP,WildCard_Ex,0.136111111,0.006481467,1,0,0,1.9781,optionRight,5,8310,4,34,0,34,0,1,,,,,,,,,,,,,,,,,,,,,,,,,,,,,,,,,,,,,,,
,,,,,,,,2023-08-06_08h20.56.010,HF_wild_card,2022.2.4,Win32,60.10337781,5ea00a03e32996000ac2da80,64ce5acb97489d65b14ecc7a,64cf49bb75e78ea9166956b1,,,,,,,sngl,resources/DB.BMP,resources/Empty.png,Door2,-0.239814801,-0.062962977,1,0,0,1.477,optionLeft,20,8330,4,35,0,35,0,1,,,,,,,,,,,,,,,,,,,,,,,,,,,,,,,,,,,,,,,
,,,,,,,,2023-08-06_08h20.56.010,HF_wild_card,2022.2.4,Win32,60.10337781,5ea00a03e32996000ac2da80,64ce5acb97489d65b14ecc7a,64cf49bb75e78ea9166956b1,,,,,,,decisionTrl,resources/DBN.BMP,resources/DP.BMP,Door4,-0.183333333,-0.07129631,1,0,0,1.3444,optionLeft,60,8390,4,36,0,36,0,1,,,,,,,,,,,,,,,,,,,,,,,,,,,,,,,,,,,,,,,
,,,,,,,,2023-08-06_08h20.56.010,HF_wild_card,2022.2.4,Win32,60.10337781,5ea00a03e32996000ac2da80,64ce5acb97489d65b14ecc7a,64cf49bb75e78ea9166956b1,,,,,,,decisionTrl,resources/DBN.BMP,resources/DP.BMP,Door3,0.127777778,-0.077777778,1,0,0,2.3432,optionRight,70,8460,4,37,0,37,0,1,,,,,,,,,,,,,,,,,,,,,,,,,,,,,,,,,,,,,,,
,,,,,,,,2023-08-06_08h20.56.010,HF_wild_card,2022.2.4,Win32,60.10337781,5ea00a03e32996000ac2da80,64ce5acb97489d65b14ecc7a,64cf49bb75e78ea9166956b1,,,,,,,decisionTrl,resources/DB.BMP,resources/DY.BMP,Door2,-0.273148134,-0.125925954,1,0,0,1.109,optionLeft,20,8480,4,38,0,38,0,1,,,,,,,,,,,,,,,,,,,,,,,,,,,,,,,,,,,,,,,
,,,,,,,,2023-08-06_08h20.56.010,HF_wild_card,2022.2.4,Win32,60.10337781,5ea00a03e32996000ac2da80,64ce5acb97489d65b14ecc7a,64cf49bb75e78ea9166956b1,,,,,,,decisionTrl,resources/DBN.BMP,resources/DP.BMP,Door3,0.235185242,-0.008333333,1,0,0,1.109,optionRight,70,8550,4,39,0,39,0,1,,,,,,,,,,,,,,,,,,,,,,,,,,,,,,,,,,,,,,,
,,,,,,,,2023-08-06_08h20.56.010,HF_wild_card,2022.2.4,Win32,60.10337781,5ea00a03e32996000ac2da80,64ce5acb97489d65b14ecc7a,64cf49bb75e78ea9166956b1,,,,,,,sngl,resources/DBN.BMP,resources/Empty.png,Door4,-0.128703647,-0.032407422,1,0,0,0.991,optionLeft,60,8610,4,40,0,40,0,1,,,,,,,,,,,,,,,,,,,,,,,,,,,,,,,,,,,,,,,
,,,,,,,,2023-08-06_08h20.56.010,HF_wild_card,2022.2.4,Win32,60.10337781,5ea00a03e32996000ac2da80,64ce5acb97489d65b14ecc7a,64cf49bb75e78ea9166956b1,,,,,,,sngl,resources/Empty.png,resources/DG.BMP,WildCard_Ex,0.173148176,0.004629601,1,0,0,0.9577,optionRight,5,8615,4,41,0,41,0,1,,,,,,,,,,,,,,,,,,,,,,,,,,,,,,,,,,,,,,,
,,,,,,,,2023-08-06_08h20.56.010,HF_wild_card,2022.2.4,Win32,60.10337781,5ea00a03e32996000ac2da80,64ce5acb97489d65b14ecc7a,64cf49bb75e78ea9166956b1,,,,,,,decisionTrl,resources/DY.BMP,resources/DB.BMP,Door1,-0.16851849,-0.061111111,1,0,0,2.1107,optionLeft,30,8645,4,42,0,42,0,1,,,,,,,,,,,,,,,,,,,,,,,,,,,,,,,,,,,,,,,
,,,,,,,,2023-08-06_08h20.56.010,HF_wild_card,2022.2.4,Win32,60.10337781,5ea00a03e32996000ac2da80,64ce5acb97489d65b14ecc7a,64cf49bb75e78ea9166956b1,,,,,,,sngl,resources/Empty.png,resources/DG.BMP,WildCard_Ex,0.170370399,-0.015740755,1,0,0,0.8585,optionRight,95,8740,4,43,0,43,0,1,,,,,,,,,,,,,,,,,,,,,,,,,,,,,,,,,,,,,,,
,,,,,,,,2023-08-06_08h20.56.010,HF_wild_card,2022.2.4,Win32,60.10337781,5ea00a03e32996000ac2da80,64ce5acb97489d65b14ecc7a,64cf49bb75e78ea9166956b1,,,,,,,,,,,,,,,,,,,,,,,,,,3,0,3,0,1,,,,,,,,,,,,,,,,,,,,,,,,,,,,,,,,,,
,,,,,,,,2023-08-06_08h20.56.010,HF_wild_card,2022.2.4,Win32,60.10337781,5ea00a03e32996000ac2da80,64ce5acb97489d65b14ecc7a,64cf49bb75e78ea9166956b1,,,,,,,decisionTrl,resources/DY.BMP,resources/DB.BMP,Door2,0.173148176,-0.087962977,1,0,0,2.3077,optionRight,20,8760,5,0,0,0,0,1,,,,,,,,,,,,,,,,,,,,,,,,,,,,,,,,,,,,,,,
,,,,,,,,2023-08-06_08h20.56.010,HF_wild_card,2022.2.4,Win32,60.10337781,5ea00a03e32996000ac2da80,64ce5acb97489d65b14ecc7a,64cf49bb75e78ea9166956b1,,,,,,,sngl,resources/Empty.png,resources/DG.BMP,WildCard_Ex,0.241666667,0.009259245,1,0,0,0.9268,optionRight,95,8855,5,1,0,1,0,1,,,,,,,,,,,,,,,,,,,,,,,,,,,,,,,,,,,,,,,
,,,,,,,,2023-08-06_08h20.56.010,HF_wild_card,2022.2.4,Win32,60.10337781,5ea00a03e32996000ac2da80,64ce5acb97489d65b14ecc7a,64cf49bb75e78ea9166956b1,,,,,,,decisionTrl,resources/DB.BMP,resources/DY.BMP,Door1,0.175,-0.023148176,1,0,0,1.2912,optionRight,30,8885,5,2,0,2,0,1,,,,,,,,,,,,,,,,,,,,,,,,,,,,,,,,,,,,,,,
,,,,,,,,2023-08-06_08h20.56.010,HF_wild_card,2022.2.4,Win32,60.10337781,5ea00a03e32996000ac2da80,64ce5acb97489d65b14ecc7a,64cf49bb75e78ea9166956b1,,,,,,,sngl,resources/Empty.png,resources/DP.BMP,Door3,0.262963019,-0.022222222,1,0,0,0.9715,optionRight,70,8955,5,3,0,3,0,1,,,,,,,,,,,,,,,,,,,,,,,,,,,,,,,,,,,,,,,
,,,,,,,,2023-08-06_08h20.56.010,HF_wild_card,2022.2.4,Win32,60.10337781,5ea00a03e32996000ac2da80,64ce5acb97489d65b14ecc7a,64cf49bb75e78ea9166956b1,,,,,,,sngl,resources/Empty.png,resources/DB.BMP,Door2,0.204629686,-0.004629644,1,0,0,0.8949,optionRight,20,8975,5,4,0,4,0,1,,,,,,,,,,,,,,,,,,,,,,,,,,,,,,,,,,,,,,,
,,,,,,,,2023-08-06_08h20.56.010,HF_wild_card,2022.2.4,Win32,60.10337781,5ea00a03e32996000ac2da80,64ce5acb97489d65b14ecc7a,64cf49bb75e78ea9166956b1,,,,,,,ctch,resources/DP.BMP,resources/DB.BMP,Door3,-0.214814801,-0.097222222,1,0,0,1.7592,optionLeft,70,9045,5,5,0,5,0,1,,,,,,,,,,,,,,,,,,,,,,,,,,,,,,,,,,,,,,,
,,,,,,,,2023-08-06_08h20.56.010,HF_wild_card,2022.2.4,Win32,60.10337781,5ea00a03e32996000ac2da80,64ce5acb97489d65b14ecc7a,64cf49bb75e78ea9166956b1,,,,,,,ctch,resources/DBN.BMP,resources/DY.BMP,Door4,-0.194444444,-0.025,1,0,0,1.1435,optionLeft,80,9125,5,6,0,6,0,1,,,,,,,,,,,,,,,,,,,,,,,,,,,,,,,,,,,,,,,
,,,,,,,,2023-08-06_08h20.56.010,HF_wild_card,2022.2.4,Win32,60.10337781,5ea00a03e32996000ac2da80,64ce5acb97489d65b14ecc7a,64cf49bb75e78ea9166956b1,,,,,,,sngl,resources/DP.BMP,resources/Empty.png,Door3,-0.133333333,-0.025,1,0,0,1.2104,optionLeft,70,9195,5,7,0,7,0,1,,,,,,,,,,,,,,,,,,,,,,,,,,,,,,,,,,,,,,,
,,,,,,,,2023-08-06_08h20.56.010,HF_wild_card,2022.2.4,Win32,60.10337781,5ea00a03e32996000ac2da80,64ce5acb97489d65b14ecc7a,64cf49bb75e78ea9166956b1,,,,,,,decisionTrl,resources/DP.BMP,resources/DBN.BMP,Door3,-0.191666667,-0.080555556,1,0,0,1.4609,optionLeft,70,9265,5,8,0,8,0,1,,,,,,,,,,,,,,,,,,,,,,,,,,,,,,,,,,,,,,,
,,,,,,,,2023-08-06_08h20.56.010,HF_wild_card,2022.2.4,Win32,60.10337781,5ea00a03e32996000ac2da80,64ce5acb97489d65b14ecc7a,64cf49bb75e78ea9166956b1,,,,,,,sngl,resources/DY.BMP,resources/Empty.png,Door1,-0.125925869,-0.053703732,1,0,0,1.2273,optionLeft,30,9295,5,9,0,9,0,1,,,,,,,,,,,,,,,,,,,,,,,,,,,,,,,,,,,,,,,
,,,,,,,,2023-08-06_08h20.56.010,HF_wild_card,2022.2.4,Win32,60.10337781,5ea00a03e32996000ac2da80,64ce5acb97489d65b14ecc7a,64cf49bb75e78ea9166956b1,,,,,,,decisionTrl,resources/DBN.BMP,resources/DP.BMP,Door4,-0.227777778,-0.101851866,1,0,0,1.3426,optionLeft,60,9355,5,10,0,10,0,1,,,,,,,,,,,,,,,,,,,,,,,,,,,,,,,,,,,,,,,
,,,,,,,,2023-08-06_08h20.56.010,HF_wild_card,2022.2.4,Win32,60.10337781,5ea00a03e32996000ac2da80,64ce5acb97489d65b14ecc7a,64cf49bb75e78ea9166956b1,,,,,,,decisionTrl,resources/DP.BMP,resources/DG.BMP,Door3,-0.19351849,-0.050925954,1,0,0,1.7263,optionLeft,70,9425,5,11,0,11,0,1,,,,,,,,,,,,,,,,,,,,,,,,,,,,,,,,,,,,,,,
,,,,,,,,2023-08-06_08h20.56.010,HF_wild_card,2022.2.4,Win32,60.10337781,5ea00a03e32996000ac2da80,64ce5acb97489d65b14ecc7a,64cf49bb75e78ea9166956b1,,,,,,,ctch,resources/DP.BMP,resources/DB.BMP,Door3,-0.171296268,-0.04629631,1,0,0,1.5294,optionLeft,70,9495,5,12,0,12,0,1,,,,,,,,,,,,,,,,,,,,,,,,,,,,,,,,,,,,,,,
,,,,,,,,2023-08-06_08h20.56.010,HF_wild_card,2022.2.4,Win32,60.10337781,5ea00a03e32996000ac2da80,64ce5acb97489d65b14ecc7a,64cf49bb75e78ea9166956b1,,,,,,,decisionTrl,resources/DP.BMP,resources/DBN.BMP,Door3,-0.159259203,-0.032407422,1,0,0,1.0601,optionLeft,70,9565,5,13,0,13,0,1,,,,,,,,,,,,,,,,,,,,,,,,,,,,,,,,,,,,,,,
,,,,,,,,2023-08-06_08h20.56.010,HF_wild_card,2022.2.4,Win32,60.10337781,5ea00a03e32996000ac2da80,64ce5acb97489d65b14ecc7a,64cf49bb75e78ea9166956b1,,,,,,,decisionTrl,resources/DBN.BMP,resources/DP.BMP,Door4,-0.154629601,-0.037962977,1,0,0,2.027,optionLeft,80,9645,5,14,0,14,0,1,,,,,,,,,,,,,,,,,,,,,,,,,,,,,,,,,,,,,,,
,,,,,,,,2023-08-06_08h20.56.010,HF_wild_card,2022.2.4,Win32,60.10337781,5ea00a03e32996000ac2da80,64ce5acb97489d65b14ecc7a,64cf49bb75e78ea9166956b1,,,,,,,sngl,resources/DG.BMP,resources/Empty.png,WildCard_Ex,-0.15,-0.007407422,1,0,0,0.9766,optionLeft,5,9650,5,15,0,15,0,1,,,,,,,,,,,,,,,,,,,,,,,,,,,,,,,,,,,,,,,
,,,,,,,,2023-08-06_08h20.56.010,HF_wild_card,2022.2.4,Win32,60.10337781,5ea00a03e32996000ac2da80,64ce5acb97489d65b14ecc7a,64cf49bb75e78ea9166956b1,,,,,,,ctch,resources/DBN.BMP,resources/DY.BMP,Door4,-0.214814801,-0.024074088,1,0,0,1.0442,optionLeft,60,9710,5,16,0,16,0,1,,,,,,,,,,,,,,,,,,,,,,,,,,,,,,,,,,,,,,,
,,,,,,,,2023-08-06_08h20.56.010,HF_wild_card,2022.2.4,Win32,60.10337781,5ea00a03e32996000ac2da80,64ce5acb97489d65b14ecc7a,64cf49bb75e78ea9166956b1,,,,,,,decisionTrl,resources/DP.BMP,resources/DBN.BMP,Door3,-0.288888889,-0.009259288,1,0,0,1.6438,optionLeft,70,9780,5,17,0,17,0,1,,,,,,,,,,,,,,,,,,,,,,,,,,,,,,,,,,,,,,,
,,,,,,,,2023-08-06_08h20.56.010,HF_wild_card,2022.2.4,Win32,60.10337781,5ea00a03e32996000ac2da80,64ce5acb97489d65b14ecc7a,64cf49bb75e78ea9166956b1,,,,,,,ctch,resources/DB.BMP,resources/DP.BMP,Door3,0.121296353,0.006481467,1,0,0,1.9792,optionRight,70,9850,5,18,0,18,0,1,,,,,,,,,,,,,,,,,,,,,,,,,,,,,,,,,,,,,,,
,,,,,,,,2023-08-06_08h20.56.010,HF_wild_card,2022.2.4,Win32,60.10337781,5ea00a03e32996000ac2da80,64ce5acb97489d65b14ecc7a,64cf49bb75e78ea9166956b1,,,,,,,decisionTrl,resources/DBN.BMP,resources/DP.BMP,Door3,0.135185242,0.000925912,1,0,0,1.7113,optionRight,70,9920,5,19,0,19,0,1,,,,,,,,,,,,,,,,,,,,,,,,,,,,,,,,,,,,,,,
,,,,,,,,2023-08-06_08h20.56.010,HF_wild_card,2022.2.4,Win32,60.10337781,5ea00a03e32996000ac2da80,64ce5acb97489d65b14ecc7a,64cf49bb75e78ea9166956b1,,,,,,,decisionTrl,resources/DBN.BMP,resources/DP.BMP,Door3,0.178703732,0.012962935,1,0,0,1.4111,optionRight,70,9990,5,20,0,20,0,1,,,,,,,,,,,,,,,,,,,,,,,,,,,,,,,,,,,,,,,
,,,,,,,,2023-08-06_08h20.56.010,HF_wild_card,2022.2.4,Win32,60.10337781,5ea00a03e32996000ac2da80,64ce5acb97489d65b14ecc7a,64cf49bb75e78ea9166956b1,,,,,,,decisionTrl,resources/DG.BMP,resources/DY.BMP,WildCard_Ex,-0.138888889,-0.005555556,1,0,0,1.442,optionLeft,5,9995,5,21,0,21,0,1,,,,,,,,,,,,,,,,,,,,,,,,,,,,,,,,,,,,,,,
,,,,,,,,2023-08-06_08h20.56.010,HF_wild_card,2022.2.4,Win32,60.10337781,5ea00a03e32996000ac2da80,64ce5acb97489d65b14ecc7a,64cf49bb75e78ea9166956b1,,,,,,,decisionTrl,resources/DY.BMP,resources/DB.BMP,Door1,-0.153703647,-0.017592621,1,0,0,1.5426,optionLeft,30,10025,5,22,0,22,0,1,,,,,,,,,,,,,,,,,,,,,,,,,,,,,,,,,,,,,,,
,,,,,,,,2023-08-06_08h20.56.010,HF_wild_card,2022.2.4,Win32,60.10337781,5ea00a03e32996000ac2da80,64ce5acb97489d65b14ecc7a,64cf49bb75e78ea9166956b1,,,,,,,ctch,resources/DB.BMP,resources/DP.BMP,Door3,0.145370399,-0.007407422,1,0,0,1.9098,optionRight,70,10095,5,23,0,23,0,1,,,,,,,,,,,,,,,,,,,,,,,,,,,,,,,,,,,,,,,
,,,,,,,,2023-08-06_08h20.56.010,HF_wild_card,2022.2.4,Win32,60.10337781,5ea00a03e32996000ac2da80,64ce5acb97489d65b14ecc7a,64cf49bb75e78ea9166956b1,,,,,,,decisionTrl,resources/DBN.BMP,resources/DG.BMP,Door4,-0.139814758,-0.03148151,1,0,0,2.3094,optionLeft,60,10155,5,24,0,24,0,1,,,,,,,,,,,,,,,,,,,,,,,,,,,,,,,,,,,,,,,
,,,,,,,,2023-08-06_08h20.56.010,HF_wild_card,2022.2.4,Win32,60.10337781,5ea00a03e32996000ac2da80,64ce5acb97489d65b14ecc7a,64cf49bb75e78ea9166956b1,,,,,,,decisionTrl,resources/DB.BMP,resources/DY.BMP,Door2,-0.248148134,-0.049074088,1,0,0,2.0421,optionLeft,20,10175,5,25,0,25,0,1,,,,,,,,,,,,,,,,,,,,,,,,,,,,,,,,,,,,,,,
,,,,,,,,2023-08-06_08h20.56.010,HF_wild_card,2022.2.4,Win32,60.10337781,5ea00a03e32996000ac2da80,64ce5acb97489d65b14ecc7a,64cf49bb75e78ea9166956b1,,,,,,,decisionTrl,resources/DY.BMP,resources/DG.BMP,WildCard_Ex,0.182407464,0.027777778,1,0,0,2.3257,optionRight,5,10180,5,26,0,26,0,1,,,,,,,,,,,,,,,,,,,,,,,,,,,,,,,,,,,,,,,
,,,,,,,,2023-08-06_08h20.56.010,HF_wild_card,2022.2.4,Win32,60.10337781,5ea00a03e32996000ac2da80,64ce5acb97489d65b14ecc7a,64cf49bb75e78ea9166956b1,,,,,,,decisionTrl,resources/DG.BMP,resources/DBN.BMP,Door4,0.15648151,0.022222222,1,0,0,1.2598,optionRight,60,10240,5,27,0,27,0,1,,,,,,,,,,,,,,,,,,,,,,,,,,,,,,,,,,,,,,,
,,,,,,,,2023-08-06_08h20.56.010,HF_wild_card,2022.2.4,Win32,60.10337781,5ea00a03e32996000ac2da80,64ce5acb97489d65b14ecc7a,64cf49bb75e78ea9166956b1,,,,,,,sngl,resources/Empty.png,resources/DG.BMP,WildCard_Ex,0.118518575,0.012962935,1,0,0,1.6911,optionRight,5,10245,5,28,0,28,0,1,,,,,,,,,,,,,,,,,,,,,,,,,,,,,,,,,,,,,,,
,,,,,,,,2023-08-06_08h20.56.010,HF_wild_card,2022.2.4,Win32,60.10337781,5ea00a03e32996000ac2da80,64ce5acb97489d65b14ecc7a,64cf49bb75e78ea9166956b1,,,,,,,decisionTrl,resources/DY.BMP,resources/DB.BMP,Door2,0.219444444,-0.037037065,1,0,0,22.6583,optionRight,20,10265,5,29,0,29,0,1,,,,,,,,,,,,,,,,,,,,,,,,,,,,,,,,,,,,,,,
,,,,,,,,2023-08-06_08h20.56.010,HF_wild_card,2022.2.4,Win32,60.10337781,5ea00a03e32996000ac2da80,64ce5acb97489d65b14ecc7a,64cf49bb75e78ea9166956b1,,,,,,,decisionTrl,resources/DG.BMP,resources/DB.BMP,WildCard_Ex,-0.324074046,-0.036111111,1,0,0,1.8129,optionLeft,95,10360,5,30,0,30,0,1,,,,,,,,,,,,,,,,,,,,,,,,,,,,,,,,,,,,,,,
,,,,,,,,2023-08-06_08h20.56.010,HF_wild_card,2022.2.4,Win32,60.10337781,5ea00a03e32996000ac2da80,64ce5acb97489d65b14ecc7a,64cf49bb75e78ea9166956b1,,,,,,,sngl,resources/DG.BMP,resources/Empty.png,WildCard_Ex,-0.263888889,-0.04629631,1,0,0,0.8525,optionLeft,95,10455,5,31,0,31,0,1,,,,,,,,,,,,,,,,,,,,,,,,,,,,,,,,,,,,,,,
,,,,,,,,2023-08-06_08h20.56.010,HF_wild_card,2022.2.4,Win32,60.10337781,5ea00a03e32996000ac2da80,64ce5acb97489d65b14ecc7a,64cf49bb75e78ea9166956b1,,,,,,,decisionTrl,resources/DP.BMP,resources/DBN.BMP,Door4,0.270370399,0.00370369,1,0,0,1.411,optionRight,60,10515,5,32,0,32,0,1,,,,,,,,,,,,,,,,,,,,,,,,,,,,,,,,,,,,,,,
,,,,,,,,2023-08-06_08h20.56.010,HF_wild_card,2022.2.4,Win32,60.10337781,5ea00a03e32996000ac2da80,64ce5acb97489d65b14ecc7a,64cf49bb75e78ea9166956b1,,,,,,,sngl,resources/Empty.png,resources/DY.BMP,Door1,0.162963019,0.012962935,1,0,0,1.4797,optionRight,30,10545,5,33,0,33,0,1,,,,,,,,,,,,,,,,,,,,,,,,,,,,,,,,,,,,,,,
,,,,,,,,2023-08-06_08h20.56.010,HF_wild_card,2022.2.4,Win32,60.10337781,5ea00a03e32996000ac2da80,64ce5acb97489d65b14ecc7a,64cf49bb75e78ea9166956b1,,,,,,,decisionTrl,resources/DY.BMP,resources/DB.BMP,Door2,0.182407464,0.001851824,1,0,0,1.3247,optionRight,20,10565,5,34,0,34,0,1,,,,,,,,,,,,,,,,,,,,,,,,,,,,,,,,,,,,,,,
,,,,,,,,2023-08-06_08h20.56.010,HF_wild_card,2022.2.4,Win32,60.10337781,5ea00a03e32996000ac2da80,64ce5acb97489d65b14ecc7a,64cf49bb75e78ea9166956b1,,,,,,,decisionTrl,resources/DB.BMP,resources/DY.BMP,Door1,0.23148151,0.007407379,1,0,0,1.5431,optionRight,30,10595,5,35,0,35,0,1,,,,,,,,,,,,,,,,,,,,,,,,,,,,,,,,,,,,,,,
,,,,,,,,2023-08-06_08h20.56.010,HF_wild_card,2022.2.4,Win32,60.10337781,5ea00a03e32996000ac2da80,64ce5acb97489d65b14ecc7a,64cf49bb75e78ea9166956b1,,,,,,,decisionTrl,resources/DG.BMP,resources/DP.BMP,Door3,0.253703732,0.001851824,1,0,0,1.9129,optionRight,70,10665,5,36,0,36,0,1,,,,,,,,,,,,,,,,,,,,,,,,,,,,,,,,,,,,,,,
,,,,,,,,2023-08-06_08h20.56.010,HF_wild_card,2022.2.4,Win32,60.10337781,5ea00a03e32996000ac2da80,64ce5acb97489d65b14ecc7a,64cf49bb75e78ea9166956b1,,,,,,,sngl,resources/DB.BMP,resources/Empty.png,Door2,-0.207407379,-0.025925954,1,0,0,0.9637,optionLeft,40,10705,5,37,0,37,0,1,,,,,,,,,,,,,,,,,,,,,,,,,,,,,,,,,,,,,,,
,,,,,,,,2023-08-06_08h20.56.010,HF_wild_card,2022.2.4,Win32,60.10337781,5ea00a03e32996000ac2da80,64ce5acb97489d65b14ecc7a,64cf49bb75e78ea9166956b1,,,,,,,sngl,resources/Empty.png,resources/DBN.BMP,Door4,0.211111111,0.026851824,1,0,0,0.9951,optionRight,60,10765,5,38,0,38,0,1,,,,,,,,,,,,,,,,,,,,,,,,,,,,,,,,,,,,,,,
,,,,,,,,2023-08-06_08h20.56.010,HF_wild_card,2022.2.4,Win32,60.10337781,5ea00a03e32996000ac2da80,64ce5acb97489d65b14ecc7a,64cf49bb75e78ea9166956b1,,,,,,,sngl,resources/DBN.BMP,resources/Empty.png,Door4,-0.195370356,-0.004629644,1,0,0,0.8293,optionLeft,80,10845,5,39,0,39,0,1,,,,,,,,,,,,,,,,,,,,,,,,,,,,,,,,,,,,,,,
,,,,,,,,2023-08-06_08h20.56.010,HF_wild_card,2022.2.4,Win32,60.10337781,5ea00a03e32996000ac2da80,64ce5acb97489d65b14ecc7a,64cf49bb75e78ea9166956b1,,,,,,,decisionTrl,resources/DB.BMP,resources/DG.BMP,Door2,-0.156481425,-0.026851866,1,0,0,1.3466,optionLeft,20,10865,5,40,0,40,0,1,,,,,,,,,,,,,,,,,,,,,,,,,,,,,,,,,,,,,,,
,,,,,,,,2023-08-06_08h20.56.010,HF_wild_card,2022.2.4,Win32,60.10337781,5ea00a03e32996000ac2da80,64ce5acb97489d65b14ecc7a,64cf49bb75e78ea9166956b1,,,,,,,decisionTrl,resources/DB.BMP,resources/DY.BMP,Door1,0.220370399,-0.02129631,1,0,0,1.4618,optionRight,30,10895,5,41,0,41,0,1,,,,,,,,,,,,,,,,,,,,,,,,,,,,,,,,,,,,,,,
,,,,,,,,2023-08-06_08h20.56.010,HF_wild_card,2022.2.4,Win32,60.10337781,5ea00a03e32996000ac2da80,64ce5acb97489d65b14ecc7a,64cf49bb75e78ea9166956b1,,,,,,,ctch,resources/DY.BMP,resources/DBN.BMP,Door4,0.170370399,0.014814801,1,0,0,1.1294,optionRight,60,10955,5,42,0,42,0,1,,,,,,,,,,,,,,,,,,,,,,,,,,,,,,,,,,,,,,,
,,,,,,,,2023-08-06_08h20.56.010,HF_wild_card,2022.2.4,Win32,60.10337781,5ea00a03e32996000ac2da80,64ce5acb97489d65b14ecc7a,64cf49bb75e78ea9166956b1,,,,,,,ctch,resources/DY.BMP,resources/DBN.BMP,Door4,0.193518575,-0.007407422,1,0,0,1.0622,optionRight,80,11035,5,43,0,43,0,1,,,,,,,,,,,,,,,,,,,,,,,,,,,,,,,,,,,,,,,
,,,,,,,,2023-08-06_08h20.56.010,HF_wild_card,2022.2.4,Win32,60.10337781,5ea00a03e32996000ac2da80,64ce5acb97489d65b14ecc7a,64cf49bb75e78ea9166956b1,,,,,,,,,,,,,,,,,,,,,,,,,,4,0,4,0,1,,,,,,,,,,,,,,,,,,,,,,,,,,,,,,,,,,
,,,,,,,,2023-08-06_08h20.56.010,HF_wild_card,2022.2.4,Win32,60.10337781,5ea00a03e32996000ac2da80,64ce5acb97489d65b14ecc7a,64cf49bb75e78ea9166956b1,,,,,,,decisionTrl,resources/DBN.BMP,resources/DP.BMP,Door3,0.276851908,-0.09629631,1,0,0,2.1045,optionRight,70,11105,6,0,0,0,0,1,,,,,,,,,,,,,,,,,,,,,,,,,,,,,,,,,,,,,,,
,,,,,,,,2023-08-06_08h20.56.010,HF_wild_card,2022.2.4,Win32,60.10337781,5ea00a03e32996000ac2da80,64ce5acb97489d65b14ecc7a,64cf49bb75e78ea9166956b1,,,,,,,sngl,resources/DY.BMP,resources/Empty.png,Door1,-0.128703647,-0.05,1,0,0,1.2468,optionLeft,30,11135,6,1,0,1,0,1,,,,,,,,,,,,,,,,,,,,,,,,,,,,,,,,,,,,,,,
,,,,,,,,2023-08-06_08h20.56.010,HF_wild_card,2022.2.4,Win32,60.10337781,5ea00a03e32996000ac2da80,64ce5acb97489d65b14ecc7a,64cf49bb75e78ea9166956b1,,,,,,,decisionTrl,resources/DY.BMP,resources/DB.BMP,Door1,-0.164814758,-0.054629644,1,0,0,2.3467,optionLeft,30,11165,6,2,0,2,0,1,,,,,,,,,,,,,,,,,,,,,,,,,,,,,,,,,,,,,,,
,,,,,,,,2023-08-06_08h20.56.010,HF_wild_card,2022.2.4,Win32,60.10337781,5ea00a03e32996000ac2da80,64ce5acb97489d65b14ecc7a,64cf49bb75e78ea9166956b1,,,,,,,decisionTrl,resources/DY.BMP,resources/DB.BMP,Door2,0.188888889,-0.049074088,1,0,0,2.1625,optionRight,40,11205,6,3,0,3,0,1,,,,,,,,,,,,,,,,,,,,,,,,,,,,,,,,,,,,,,,
,,,,,,,,2023-08-06_08h20.56.010,HF_wild_card,2022.2.4,Win32,60.10337781,5ea00a03e32996000ac2da80,64ce5acb97489d65b14ecc7a,64cf49bb75e78ea9166956b1,,,,,,,decisionTrl,resources/DBN.BMP,resources/DP.BMP,Door4,-0.140740712,-0.049074088,1,0,0,1.3953,optionLeft,80,11285,6,4,0,4,0,1,,,,,,,,,,,,,,,,,,,,,,,,,,,,,,,,,,,,,,,
,,,,,,,,2023-08-06_08h20.56.010,HF_wild_card,2022.2.4,Win32,60.10337781,5ea00a03e32996000ac2da80,64ce5acb97489d65b14ecc7a,64cf49bb75e78ea9166956b1,,,,,,,decisionTrl,resources/DG.BMP,resources/DBN.BMP,Door4,0.262037065,-0.043518533,1,0,0,1.1961,optionRight,80,11365,6,5,0,5,0,1,,,,,,,,,,,,,,,,,,,,,,,,,,,,,,,,,,,,,,,
,,,,,,,,2023-08-06_08h20.56.010,HF_wild_card,2022.2.4,Win32,60.10337781,5ea00a03e32996000ac2da80,64ce5acb97489d65b14ecc7a,64cf49bb75e78ea9166956b1,,,,,,,decisionTrl,resources/DBN.BMP,resources/DG.BMP,Door4,-0.182407379,-0.062962977,1,0,0,0.9298,optionLeft,60,11425,6,6,0,6,0,1,,,,,,,,,,,,,,,,,,,,,,,,,,,,,,,,,,,,,,,
,,,,,,,,2023-08-06_08h20.56.010,HF_wild_card,2022.2.4,Win32,60.10337781,5ea00a03e32996000ac2da80,64ce5acb97489d65b14ecc7a,64cf49bb75e78ea9166956b1,,,,,,,decisionTrl,resources/DB.BMP,resources/DY.BMP,Door2,-0.11851849,-0.047222222,1,0,0,2.013,optionLeft,40,11465,6,7,0,7,0,1,,,,,,,,,,,,,,,,,,,,,,,,,,,,,,,,,,,,,,,
,,,,,,,,2023-08-06_08h20.56.010,HF_wild_card,2022.2.4,Win32,60.10337781,5ea00a03e32996000ac2da80,64ce5acb97489d65b14ecc7a,64cf49bb75e78ea9166956b1,,,,,,,decisionTrl,resources/DP.BMP,resources/DBN.BMP,Door3,-0.164814758,-0.087962977,1,0,0,1.1798,optionLeft,70,11535,6,8,0,8,0,1,,,,,,,,,,,,,,,,,,,,,,,,,,,,,,,,,,,,,,,
,,,,,,,,2023-08-06_08h20.56.010,HF_wild_card,2022.2.4,Win32,60.10337781,5ea00a03e32996000ac2da80,64ce5acb97489d65b14ecc7a,64cf49bb75e78ea9166956b1,,,,,,,sngl,resources/Empty.png,resources/DB.BMP,Door2,0.213888889,-0.043518533,1,0,0,0.9142,optionRight,40,11575,6,9,0,9,0,1,,,,,,,,,,,,,,,,,,,,,,,,,,,,,,,,,,,,,,,
,,,,,,,,2023-08-06_08h20.56.010,HF_wild_card,2022.2.4,Win32,60.10337781,5ea00a03e32996000ac2da80,64ce5acb97489d65b14ecc7a,64cf49bb75e78ea9166956b1,,,,,,,decisionTrl,resources/DB.BMP,resources/DY.BMP,Door2,-0.153703647,-0.039814843,1,0,0,1.0461,optionLeft,20,11595,6,10,0,10,0,1,,,,,,,,,,,,,,,,,,,,,,,,,,,,,,,,,,,,,,,
,,,,,,,,2023-08-06_08h20.56.010,HF_wild_card,2022.2.4,Win32,60.10337781,5ea00a03e32996000ac2da80,64ce5acb97489d65b14ecc7a,64cf49bb75e78ea9166956b1,,,,,,,sngl,resources/DBN.BMP,resources/Empty.png,Door4,-0.173148092,-0.073148176,1,0,0,0.9463,optionLeft,60,11655,6,11,0,11,0,1,,,,,,,,,,,,,,,,,,,,,,,,,,,,,,,,,,,,,,,
,,,,,,,,2023-08-06_08h20.56.010,HF_wild_card,2022.2.4,Win32,60.10337781,5ea00a03e32996000ac2da80,64ce5acb97489d65b14ecc7a,64cf49bb75e78ea9166956b1,,,,,,,decisionTrl,resources/DG.BMP,resources/DP.BMP,Door3,0.257407464,-0.010185199,1,0,0,2.197,optionRight,70,11725,6,12,0,12,0,1,,,,,,,,,,,,,,,,,,,,,,,,,,,,,,,,,,,,,,,
,,,,,,,,2023-08-06_08h20.56.010,HF_wild_card,2022.2.4,Win32,60.10337781,5ea00a03e32996000ac2da80,64ce5acb97489d65b14ecc7a,64cf49bb75e78ea9166956b1,,,,,,,decisionTrl,resources/DP.BMP,resources/DBN.BMP,Door3,-0.135185157,-0.057407422,1,0,0,0.9631,optionLeft,70,11795,6,13,0,13,0,1,,,,,,,,,,,,,,,,,,,,,,,,,,,,,,,,,,,,,,,
,,,,,,,,2023-08-06_08h20.56.010,HF_wild_card,2022.2.4,Win32,60.10337781,5ea00a03e32996000ac2da80,64ce5acb97489d65b14ecc7a,64cf49bb75e78ea9166956b1,,,,,,,sngl,resources/Empty.png,resources/DBN.BMP,Door4,0.175,-0.005555556,1,0,0,1.0466,optionRight,80,11875,6,14,0,14,0,1,,,,,,,,,,,,,,,,,,,,,,,,,,,,,,,,,,,,,,,
,,,,,,,,2023-08-06_08h20.56.010,HF_wild_card,2022.2.4,Win32,60.10337781,5ea00a03e32996000ac2da80,64ce5acb97489d65b14ecc7a,64cf49bb75e78ea9166956b1,,,,,,,sngl,resources/Empty.png,resources/DG.BMP,WildCard_Ex,0.188888889,-0.018518533,1,0,0,0.963,optionRight,95,11970,6,15,0,15,0,1,,,,,,,,,,,,,,,,,,,,,,,,,,,,,,,,,,,,,,,
,,,,,,,,2023-08-06_08h20.56.010,HF_wild_card,2022.2.4,Win32,60.10337781,5ea00a03e32996000ac2da80,64ce5acb97489d65b14ecc7a,64cf49bb75e78ea9166956b1,,,,,,,ctch,resources/DY.BMP,resources/DBN.BMP,Door4,0.200925954,0.010185157,1,0,0,1.5633,optionRight,60,12030,6,16,0,16,0,1,,,,,,,,,,,,,,,,,,,,,,,,,,,,,,,,,,,,,,,
,,,,,,,,2023-08-06_08h20.56.010,HF_wild_card,2022.2.4,Win32,60.10337781,5ea00a03e32996000ac2da80,64ce5acb97489d65b14ecc7a,64cf49bb75e78ea9166956b1,,,,,,,sngl,resources/DG.BMP,resources/Empty.png,WildCard_Ex,-0.108333333,-0.04629631,1,0,0,1.08,optionLeft,95,12125,6,17,0,17,0,1,,,,,,,,,,,,,,,,,,,,,,,,,,,,,,,,,,,,,,,
,,,,,,,,2023-08-06_08h20.56.010,HF_wild_card,2022.2.4,Win32,60.10337781,5ea00a03e32996000ac2da80,64ce5acb97489d65b14ecc7a,64cf49bb75e78ea9166956b1,,,,,,,decisionTrl,resources/DY.BMP,resources/DB.BMP,Door2,0.251851908,-0.054629644,1,0,0,1.5954,optionRight,20,12145,6,18,0,18,0,1,,,,,,,,,,,,,,,,,,,,,,,,,,,,,,,,,,,,,,,
,,,,,,,,2023-08-06_08h20.56.010,HF_wild_card,2022.2.4,Win32,60.10337781,5ea00a03e32996000ac2da80,64ce5acb97489d65b14ecc7a,64cf49bb75e78ea9166956b1,,,,,,,sngl,resources/Empty.png,resources/DP.BMP,Door3,0.272222222,-0.017592621,1,0,0,0.9131,optionRight,70,12215,6,19,0,19,0,1,,,,,,,,,,,,,,,,,,,,,,,,,,,,,,,,,,,,,,,
,,,,,,,,2023-08-06_08h20.56.010,HF_wild_card,2022.2.4,Win32,60.10337781,5ea00a03e32996000ac2da80,64ce5acb97489d65b14ecc7a,64cf49bb75e78ea9166956b1,,,,,,,decisionTrl,resources/DG.BMP,resources/DB.BMP,Door2,0.184259288,-0.001851866,1,0,0,1.5298,optionRight,40,12255,6,20,0,20,0,1,,,,,,,,,,,,,,,,,,,,,,,,,,,,,,,,,,,,,,,
,,,,,,,,2023-08-06_08h20.56.010,HF_wild_card,2022.2.4,Win32,60.10337781,5ea00a03e32996000ac2da80,64ce5acb97489d65b14ecc7a,64cf49bb75e78ea9166956b1,,,,,,,sngl,resources/Empty.png,resources/DG.BMP,WildCard_Ex,0.190740797,-0.002777778,1,0,0,0.939,optionRight,5,12260,6,21,0,21,0,1,,,,,,,,,,,,,,,,,,,,,,,,,,,,,,,,,,,,,,,
,,,,,,,,2023-08-06_08h20.56.010,HF_wild_card,2022.2.4,Win32,60.10337781,5ea00a03e32996000ac2da80,64ce5acb97489d65b14ecc7a,64cf49bb75e78ea9166956b1,,,,,,,decisionTrl,resources/DB.BMP,resources/DY.BMP,Door2,-0.151851824,-0.062037065,1,0,0,1.1616,optionLeft,40,12300,6,22,0,22,0,1,,,,,,,,,,,,,,,,,,,,,,,,,,,,,,,,,,,,,,,
,,,,,,,,2023-08-06_08h20.56.010,HF_wild_card,2022.2.4,Win32,60.10337781,5ea00a03e32996000ac2da80,64ce5acb97489d65b14ecc7a,64cf49bb75e78ea9166956b1,,,,,,,decisionTrl,resources/DB.BMP,resources/DY.BMP,Door1,0.139814843,-0.020370399,1,0,0,2.3289,optionRight,30,12330,6,23,0,23,0,1,,,,,,,,,,,,,,,,,,,,,,,,,,,,,,,,,,,,,,,
,,,,,,,,2023-08-06_08h20.56.010,HF_wild_card,2022.2.4,Win32,60.10337781,5ea00a03e32996000ac2da80,64ce5acb97489d65b14ecc7a,64cf49bb75e78ea9166956b1,,,,,,,decisionTrl,resources/DBN.BMP,resources/DP.BMP,Door4,-0.15,-0.05,1,0,0,1.4954,optionLeft,60,12390,6,24,0,24,0,1,,,,,,,,,,,,,,,,,,,,,,,,,,,,,,,,,,,,,,,
,,,,,,,,2023-08-06_08h20.56.010,HF_wild_card,2022.2.4,Win32,60.10337781,5ea00a03e32996000ac2da80,64ce5acb97489d65b14ecc7a,64cf49bb75e78ea9166956b1,,,,,,,ctch,resources/DY.BMP,resources/DBN.BMP,Door4,0.175925954,-0.00648151,1,0,0,1.0294,optionRight,60,12450,6,25,0,25,0,1,,,,,,,,,,,,,,,,,,,,,,,,,,,,,,,,,,,,,,,
,,,,,,,,2023-08-06_08h20.56.010,HF_wild_card,2022.2.4,Win32,60.10337781,5ea00a03e32996000ac2da80,64ce5acb97489d65b14ecc7a,64cf49bb75e78ea9166956b1,,,,,,,sngl,resources/DB.BMP,resources/Empty.png,Door2,-0.134259203,-0.044444444,1,0,0,0.9281,optionLeft,20,12470,6,26,0,26,0,1,,,,,,,,,,,,,,,,,,,,,,,,,,,,,,,,,,,,,,,
,,,,,,,,2023-08-06_08h20.56.010,HF_wild_card,2022.2.4,Win32,60.10337781,5ea00a03e32996000ac2da80,64ce5acb97489d65b14ecc7a,64cf49bb75e78ea9166956b1,,,,,,,decisionTrl,resources/DBN.BMP,resources/DP.BMP,Door4,-0.142592536,-0.039814843,1,0,0,1.5625,optionLeft,60,12530,6,27,0,27,0,1,,,,,,,,,,,,,,,,,,,,,,,,,,,,,,,,,,,,,,,
,,,,,,,,2023-08-06_08h20.56.010,HF_wild_card,2022.2.4,Win32,60.10337781,5ea00a03e32996000ac2da80,64ce5acb97489d65b14ecc7a,64cf49bb75e78ea9166956b1,,,,,,,decisionTrl,resources/DP.BMP,resources/DG.BMP,Door3,-0.286111111,-0.093518533,1,0,0,1.7128,optionLeft,70,12600,6,28,0,28,0,1,,,,,,,,,,,,,,,,,,,,,,,,,,,,,,,,,,,,,,,
,,,,,,,,2023-08-06_08h20.56.010,HF_wild_card,2022.2.4,Win32,60.10337781,5ea00a03e32996000ac2da80,64ce5acb97489d65b14ecc7a,64cf49bb75e78ea9166956b1,,,,,,,decisionTrl,resources/DP.BMP,resources/DBN.BMP,Door4,0.123148176,-0.001851866,1,0,0,2.1623,optionRight,60,12660,6,29,0,29,0,1,,,,,,,,,,,,,,,,,,,,,,,,,,,,,,,,,,,,,,,
,,,,,,,,2023-08-06_08h20.56.010,HF_wild_card,2022.2.4,Win32,60.10337781,5ea00a03e32996000ac2da80,64ce5acb97489d65b14ecc7a,64cf49bb75e78ea9166956b1,,,,,,,ctch,resources/DB.BMP,resources/DP.BMP,Door3,0.236111111,-0.049074088,1,0,0,2.5301,optionRight,70,12730,6,30,0,30,0,1,,,,,,,,,,,,,,,,,,,,,,,,,,,,,,,,,,,,,,,
,,,,,,,,2023-08-06_08h20.56.010,HF_wild_card,2022.2.4,Win32,60.10337781,5ea00a03e32996000ac2da80,64ce5acb97489d65b14ecc7a,64cf49bb75e78ea9166956b1,,,,,,,ctch,resources/DP.BMP,resources/DB.BMP,Door3,-0.186111111,-0.058333333,1,0,0,1.1615,optionLeft,70,12800,6,31,0,31,0,1,,,,,,,,,,,,,,,,,,,,,,,,,,,,,,,,,,,,,,,
,,,,,,,,2023-08-06_08h20.56.010,HF_wild_card,2022.2.4,Win32,60.10337781,5ea00a03e32996000ac2da80,64ce5acb97489d65b14ecc7a,64cf49bb75e78ea9166956b1,,,,,,,ctch,resources/DBN.BMP,resources/DY.BMP,Door4,-0.149074046,-0.070370399,1,0,0,1.3245,optionLeft,60,12860,6,32,0,32,0,1,,,,,,,,,,,,,,,,,,,,,,,,,,,,,,,,,,,,,,,
,,,,,,,,2023-08-06_08h20.56.010,HF_wild_card,2022.2.4,Win32,60.10337781,5ea00a03e32996000ac2da80,64ce5acb97489d65b14ecc7a,64cf49bb75e78ea9166956b1,,,,,,,decisionTrl,resources/DP.BMP,resources/DBN.BMP,Door3,-0.180555556,-0.050925954,1,0,0,1.624,optionLeft,70,12930,6,33,0,33,0,1,,,,,,,,,,,,,,,,,,,,,,,,,,,,,,,,,,,,,,,
,,,,,,,,2023-08-06_08h20.56.010,HF_wild_card,2022.2.4,Win32,60.10337781,5ea00a03e32996000ac2da80,64ce5acb97489d65b14ecc7a,64cf49bb75e78ea9166956b1,,,,,,,ctch,resources/DP.BMP,resources/DB.BMP,Door3,-0.171296268,-0.027777778,1,0,0,1.8954,optionLeft,70,13000,6,34,0,34,0,1,,,,,,,,,,,,,,,,,,,,,,,,,,,,,,,,,,,,,,,
,,,,,,,,2023-08-06_08h20.56.010,HF_wild_card,2022.2.4,Win32,60.10337781,5ea00a03e32996000ac2da80,64ce5acb97489d65b14ecc7a,64cf49bb75e78ea9166956b1,,,,,,,decisionTrl,resources/DB.BMP,resources/DG.BMP,WildCard_Ex,0.186111111,0.021296268,1,0,0,1.4791,optionRight,5,13005,6,35,0,35,0,1,,,,,,,,,,,,,,,,,,,,,,,,,,,,,,,,,,,,,,,
,,,,,,,,2023-08-06_08h20.56.010,HF_wild_card,2022.2.4,Win32,60.10337781,5ea00a03e32996000ac2da80,64ce5acb97489d65b14ecc7a,64cf49bb75e78ea9166956b1,,,,,,,decisionTrl,resources/DY.BMP,resources/DB.BMP,Door2,0.154629686,0.006481467,1,0,0,1.0625,optionRight,40,13045,6,36,0,36,0,1,,,,,,,,,,,,,,,,,,,,,,,,,,,,,,,,,,,,,,,
,,,,,,,,2023-08-06_08h20.56.010,HF_wild_card,2022.2.4,Win32,60.10337781,5ea00a03e32996000ac2da80,64ce5acb97489d65b14ecc7a,64cf49bb75e78ea9166956b1,,,,,,,decisionTrl,resources/DY.BMP,resources/DG.BMP,Door1,-0.162036981,-0.019444444,1,0,0,1.1426,optionLeft,30,13075,6,37,0,37,0,1,,,,,,,,,,,,,,,,,,,,,,,,,,,,,,,,,,,,,,,
,,,,,,,,2023-08-06_08h20.56.010,HF_wild_card,2022.2.4,Win32,60.10337781,5ea00a03e32996000ac2da80,64ce5acb97489d65b14ecc7a,64cf49bb75e78ea9166956b1,,,,,,,sngl,resources/DP.BMP,resources/Empty.png,Door3,-0.15,-0.018518533,1,0,0,0.9012,optionLeft,70,13145,6,38,0,38,0,1,,,,,,,,,,,,,,,,,,,,,,,,,,,,,,,,,,,,,,,
,,,,,,,,2023-08-06_08h20.56.010,HF_wild_card,2022.2.4,Win32,60.10337781,5ea00a03e32996000ac2da80,64ce5acb97489d65b14ecc7a,64cf49bb75e78ea9166956b1,,,,,,,ctch,resources/DB.BMP,resources/DP.BMP,Door3,0.207407464,0.009259245,1,0,0,1.7624,optionRight,70,13215,6,39,0,39,0,1,,,,,,,,,,,,,,,,,,,,,,,,,,,,,,,,,,,,,,,
,,,,,,,,2023-08-06_08h20.56.010,HF_wild_card,2022.2.4,Win32,60.10337781,5ea00a03e32996000ac2da80,64ce5acb97489d65b14ecc7a,64cf49bb75e78ea9166956b1,,,,,,,sngl,resources/DG.BMP,resources/Empty.png,WildCard_Ex,-0.164814758,-0.045370399,1,0,0,1.13,optionLeft,5,13220,6,40,0,40,0,1,,,,,,,,,,,,,,,,,,,,,,,,,,,,,,,,,,,,,,,
,,,,,,,,2023-08-06_08h20.56.010,HF_wild_card,2022.2.4,Win32,60.10337781,5ea00a03e32996000ac2da80,64ce5acb97489d65b14ecc7a,64cf49bb75e78ea9166956b1,,,,,,,ctch,resources/DBN.BMP,resources/DY.BMP,Door4,-0.247222222,-0.062037065,1,0,0,1.4964,optionLeft,80,13300,6,41,0,41,0,1,,,,,,,,,,,,,,,,,,,,,,,,,,,,,,,,,,,,,,,
,,,,,,,,2023-08-06_08h20.56.010,HF_wild_card,2022.2.4,Win32,60.10337781,5ea00a03e32996000ac2da80,64ce5acb97489d65b14ecc7a,64cf49bb75e78ea9166956b1,,,,,,,sngl,resources/Empty.png,resources/DY.BMP,Door1,0.250925954,0.09351849,1,0,0,1.1138,optionRight,30,13330,6,42,0,42,0,1,,,,,,,,,,,,,,,,,,,,,,,,,,,,,,,,,,,,,,,
,,,,,,,,2023-08-06_08h20.56.010,HF_wild_card,2022.2.4,Win32,60.10337781,5ea00a03e32996000ac2da80,64ce5acb97489d65b14ecc7a,64cf49bb75e78ea9166956b1,,,,,,,decisionTrl,resources/DG.BMP,resources/DY.BMP,WildCard_Ex,-0.115740712,-0.032407422,1,0,0,2.296,optionLeft,5,13335,6,43,0,43,0,1,,,,,,,,,,,,,,,,,,,,,,,,,,,,,,,,,,,,,,,
,,,,,,,,2023-08-06_08h20.56.010,HF_wild_card,2022.2.4,Win32,60.10337781,5ea00a03e32996000ac2da80,64ce5acb97489d65b14ecc7a,64cf49bb75e78ea9166956b1,,,,,,,,,,,,,,,,,,,,,,,,,,5,0,5,0,1,,,,,,,,,,,,,,,,,,,,,,,,,,,,,,,,,,
,,,,,,,,2023-08-06_08h20.56.010,HF_wild_card,2022.2.4,Win32,60.10337781,5ea00a03e32996000ac2da80,64ce5acb97489d65b14ecc7a,64cf49bb75e78ea9166956b1,,,,,,,ctch,resources/DBN.BMP,resources/DY.BMP,Door4,-0.149074046,-0.176851866,1,0,0,2.7156,optionLeft,60,13395,7,0,0,0,0,1,,,,,,,,,,,,,,,,,,,,,,,,,,,,,,,,,,,,,,,
,,,,,,,,2023-08-06_08h20.56.010,HF_wild_card,2022.2.4,Win32,60.10337781,5ea00a03e32996000ac2da80,64ce5acb97489d65b14ecc7a,64cf49bb75e78ea9166956b1,,,,,,,decisionTrl,resources/DBN.BMP,resources/DP.BMP,Door3,0.303703732,0.031481467,1,0,0,2.0294,optionRight,70,13465,7,1,0,1,0,1,,,,,,,,,,,,,,,,,,,,,,,,,,,,,,,,,,,,,,,
,,,,,,,,2023-08-06_08h20.56.010,HF_wild_card,2022.2.4,Win32,60.10337781,5ea00a03e32996000ac2da80,64ce5acb97489d65b14ecc7a,64cf49bb75e78ea9166956b1,,,,,,,decisionTrl,resources/DBN.BMP,resources/DP.BMP,Door3,0.222222222,0.013888889,1,0,0,1.1993,optionRight,70,13535,7,2,0,2,0,1,,,,,,,,,,,,,,,,,,,,,,,,,,,,,,,,,,,,,,,
,,,,,,,,2023-08-06_08h20.56.010,HF_wild_card,2022.2.4,Win32,60.10337781,5ea00a03e32996000ac2da80,64ce5acb97489d65b14ecc7a,64cf49bb75e78ea9166956b1,,,,,,,decisionTrl,resources/DY.BMP,resources/DB.BMP,Door2,0.243518575,0.024074046,1,0,0,1.8157,optionRight,20,13555,7,3,0,3,0,1,,,,,,,,,,,,,,,,,,,,,,,,,,,,,,,,,,,,,,,
,,,,,,,,2023-08-06_08h20.56.010,HF_wild_card,2022.2.4,Win32,60.10337781,5ea00a03e32996000ac2da80,64ce5acb97489d65b14ecc7a,64cf49bb75e78ea9166956b1,,,,,,,decisionTrl,resources/DBN.BMP,resources/DP.BMP,Door3,0.267592621,-0.003703732,1,0,0,1.7809,optionRight,70,13625,7,4,0,4,0,1,,,,,,,,,,,,,,,,,,,,,,,,,,,,,,,,,,,,,,,
,,,,,,,,2023-08-06_08h20.56.010,HF_wild_card,2022.2.4,Win32,60.10337781,5ea00a03e32996000ac2da80,64ce5acb97489d65b14ecc7a,64cf49bb75e78ea9166956b1,,,,,,,decisionTrl,resources/DP.BMP,resources/DBN.BMP,Door3,-0.124074046,-0.035185199,1,0,0,1.2109,optionLeft,70,13695,7,5,0,5,0,1,,,,,,,,,,,,,,,,,,,,,,,,,,,,,,,,,,,,,,,
,,,,,,,,2023-08-06_08h20.56.010,HF_wild_card,2022.2.4,Win32,60.10337781,5ea00a03e32996000ac2da80,64ce5acb97489d65b14ecc7a,64cf49bb75e78ea9166956b1,,,,,,,decisionTrl,resources/DP.BMP,resources/DBN.BMP,Door3,-0.147222222,-0.064814843,1,0,0,1.0994,optionLeft,70,13765,7,6,0,6,0,1,,,,,,,,,,,,,,,,,,,,,,,,,,,,,,,,,,,,,,,
,,,,,,,,2023-08-06_08h20.56.010,HF_wild_card,2022.2.4,Win32,60.10337781,5ea00a03e32996000ac2da80,64ce5acb97489d65b14ecc7a,64cf49bb75e78ea9166956b1,,,,,,,ctch,resources/DB.BMP,resources/DP.BMP,Door3,0.198148176,-0.035185199,1,0,0,1.6487,optionRight,70,13835,7,7,0,7,0,1,,,,,,,,,,,,,,,,,,,,,,,,,,,,,,,,,,,,,,,
,,,,,,,,2023-08-06_08h20.56.010,HF_wild_card,2022.2.4,Win32,60.10337781,5ea00a03e32996000ac2da80,64ce5acb97489d65b14ecc7a,64cf49bb75e78ea9166956b1,,,,,,,decisionTrl,resources/DBN.BMP,resources/DP.BMP,Door3,0.166666667,-0.03148151,1,0,0,1.449,optionRight,70,13905,7,8,0,8,0,1,,,,,,,,,,,,,,,,,,,,,,,,,,,,,,,,,,,,,,,
,,,,,,,,2023-08-06_08h20.56.010,HF_wild_card,2022.2.4,Win32,60.10337781,5ea00a03e32996000ac2da80,64ce5acb97489d65b14ecc7a,64cf49bb75e78ea9166956b1,,,,,,,decisionTrl,resources/DY.BMP,resources/DB.BMP,Door2,0.158333333,-0.034259288,1,0,0,2.7981,optionRight,20,13925,7,9,0,9,0,1,,,,,,,,,,,,,,,,,,,,,,,,,,,,,,,,,,,,,,,
,,,,,,,,2023-08-06_08h20.56.010,HF_wild_card,2022.2.4,Win32,60.10337781,5ea00a03e32996000ac2da80,64ce5acb97489d65b14ecc7a,64cf49bb75e78ea9166956b1,,,,,,,decisionTrl,resources/DP.BMP,resources/DBN.BMP,Door3,-0.152777778,-0.076851866,1,0,0,1.25,optionLeft,70,13995,7,10,0,10,0,1,,,,,,,,,,,,,,,,,,,,,,,,,,,,,,,,,,,,,,,
,,,,,,,,2023-08-06_08h20.56.010,HF_wild_card,2022.2.4,Win32,60.10337781,5ea00a03e32996000ac2da80,64ce5acb97489d65b14ecc7a,64cf49bb75e78ea9166956b1,,,,,,,ctch,resources/DB.BMP,resources/DP.BMP,Door3,0.182407464,-0.000925954,1,0,0,1.2821,optionRight,70,14065,7,11,0,11,0,1,,,,,,,,,,,,,,,,,,,,,,,,,,,,,,,,,,,,,,,
,,,,,,,,2023-08-06_08h20.56.010,HF_wild_card,2022.2.4,Win32,60.10337781,5ea00a03e32996000ac2da80,64ce5acb97489d65b14ecc7a,64cf49bb75e78ea9166956b1,,,,,,,ctch,resources/DBN.BMP,resources/DY.BMP,Door4,-0.150925869,-0.057407422,1,0,0,1.1306,optionLeft,80,14145,7,12,0,12,0,1,,,,,,,,,,,,,,,,,,,,,,,,,,,,,,,,,,,,,,,
,,,,,,,,2023-08-06_08h20.56.010,HF_wild_card,2022.2.4,Win32,60.10337781,5ea00a03e32996000ac2da80,64ce5acb97489d65b14ecc7a,64cf49bb75e78ea9166956b1,,,,,,,ctch,resources/DY.BMP,resources/DBN.BMP,Door4,0.199074131,-0.020370399,1,0,0,1.0822,optionRight,80,14225,7,13,0,13,0,1,,,,,,,,,,,,,,,,,,,,,,,,,,,,,,,,,,,,,,,
,,,,,,,,2023-08-06_08h20.56.010,HF_wild_card,2022.2.4,Win32,60.10337781,5ea00a03e32996000ac2da80,64ce5acb97489d65b14ecc7a,64cf49bb75e78ea9166956b1,,,,,,,ctch,resources/DY.BMP,resources/DBN.BMP,Door4,0.154629686,0.004629601,1,0,0,1.0822,optionRight,60,14285,7,14,0,14,0,1,,,,,,,,,,,,,,,,,,,,,,,,,,,,,,,,,,,,,,,
,,,,,,,,2023-08-06_08h20.56.010,HF_wild_card,2022.2.4,Win32,60.10337781,5ea00a03e32996000ac2da80,64ce5acb97489d65b14ecc7a,64cf49bb75e78ea9166956b1,,,,,,,decisionTrl,resources/DB.BMP,resources/DY.BMP,Door2,-0.21851849,-0.054629644,1,0,0,1.9965,optionLeft,40,14325,7,15,0,15,0,1,,,,,,,,,,,,,,,,,,,,,,,,,,,,,,,,,,,,,,,
,,,,,,,,2023-08-06_08h20.56.010,HF_wild_card,2022.2.4,Win32,60.10337781,5ea00a03e32996000ac2da80,64ce5acb97489d65b14ecc7a,64cf49bb75e78ea9166956b1,,,,,,,decisionTrl,resources/DY.BMP,resources/DB.BMP,Door1,-0.165740712,-0.036111111,1,0,0,1.7469,optionLeft,30,14355,7,16,0,16,0,1,,,,,,,,,,,,,,,,,,,,,,,,,,,,,,,,,,,,,,,
,,,,,,,,2023-08-06_08h20.56.010,HF_wild_card,2022.2.4,Win32,60.10337781,5ea00a03e32996000ac2da80,64ce5acb97489d65b14ecc7a,64cf49bb75e78ea9166956b1,,,,,,,ctch,resources/DBN.BMP,resources/DY.BMP,Door4,-0.181481467,-0.047222222,1,0,0,1.1321,optionLeft,80,14435,7,17,0,17,0,1,,,,,,,,,,,,,,,,,,,,,,,,,,,,,,,,,,,,,,,
,,,,,,,,2023-08-06_08h20.56.010,HF_wild_card,2022.2.4,Win32,60.10337781,5ea00a03e32996000ac2da80,64ce5acb97489d65b14ecc7a,64cf49bb75e78ea9166956b1,,,,,,,ctch,resources/DB.BMP,resources/DP.BMP,Door3,0.176851908,-0.025925954,1,0,0,1.1325,optionRight,70,14505,7,18,0,18,0,1,,,,,,,,,,,,,,,,,,,,,,,,,,,,,,,,,,,,,,,
,,,,,,,,2023-08-06_08h20.56.010,HF_wild_card,2022.2.4,Win32,60.10337781,5ea00a03e32996000ac2da80,64ce5acb97489d65b14ecc7a,64cf49bb75e78ea9166956b1,,,,,,,decisionTrl,resources/DP.BMP,resources/DBN.BMP,Door3,-0.131481425,-0.043518533,1,0,0,1.1144,optionLeft,70,14575,7,19,0,19,0,1,,,,,,,,,,,,,,,,,,,,,,,,,,,,,,,,,,,,,,,
,,,,,,,,2023-08-06_08h20.56.010,HF_wild_card,2022.2.4,Win32,60.10337781,5ea00a03e32996000ac2da80,64ce5acb97489d65b14ecc7a,64cf49bb75e78ea9166956b1,,,,,,,decisionTrl,resources/DP.BMP,resources/DBN.BMP,Door3,-0.180555556,-0.068518533,1,0,0,1.3492,optionLeft,70,14645,7,20,0,20,0,1,,,,,,,,,,,,,,,,,,,,,,,,,,,,,,,,,,,,,,,
,,,,,,,,2023-08-06_08h20.56.010,HF_wild_card,2022.2.4,Win32,60.10337781,5ea00a03e32996000ac2da80,64ce5acb97489d65b14ecc7a,64cf49bb75e78ea9166956b1,,,,,,,decisionTrl,resources/DB.BMP,resources/DY.BMP,Door1,0.143518575,0.006481467,1,0,0,1.4824,optionRight,30,14675,7,21,0,21,0,1,,,,,,,,,,,,,,,,,,,,,,,,,,,,,,,,,,,,,,,
,,,,,,,,2023-08-06_08h20.56.010,HF_wild_card,2022.2.4,Win32,60.10337781,5ea00a03e32996000ac2da80,64ce5acb97489d65b14ecc7a,64cf49bb75e78ea9166956b1,,,,,,,decisionTrl,resources/DBN.BMP,resources/DP.BMP,Door3,0.135185242,-0.004629644,1,0,0,1.1987,optionRight,70,14745,7,22,0,22,0,1,,,,,,,,,,,,,,,,,,,,,,,,,,,,,,,,,,,,,,,
,,,,,,,,2023-08-06_08h20.56.010,HF_wild_card,2022.2.4,Win32,60.10337781,5ea00a03e32996000ac2da80,64ce5acb97489d65b14ecc7a,64cf49bb75e78ea9166956b1,,,,,,,decisionTrl,resources/DY.BMP,resources/DB.BMP,Door1,-0.200925912,-0.012962977,1,0,0,1.5156,optionLeft,30,14775,7,23,0,23,0,1,,,,,,,,,,,,,,,,,,,,,,,,,,,,,,,,,,,,,,,
,,,,,,,,2023-08-06_08h20.56.010,HF_wild_card,2022.2.4,Win32,60.10337781,5ea00a03e32996000ac2da80,64ce5acb97489d65b14ecc7a,64cf49bb75e78ea9166956b1,,,,,,,decisionTrl,resources/DBN.BMP,resources/DP.BMP,Door4,-0.17870369,-0.028703732,1,0,0,1.1656,optionLeft,60,14835,7,24,0,24,0,1,,,,,,,,,,,,,,,,,,,,,,,,,,,,,,,,,,,,,,,
,,,,,,,,2023-08-06_08h20.56.010,HF_wild_card,2022.2.4,Win32,60.10337781,5ea00a03e32996000ac2da80,64ce5acb97489d65b14ecc7a,64cf49bb75e78ea9166956b1,,,,,,,ctch,resources/DP.BMP,resources/DB.BMP,Door3,-0.300925912,-0.03148151,1,0,0,1.3156,optionLeft,70,14905,7,25,0,25,0,1,,,,,,,,,,,,,,,,,,,,,,,,,,,,,,,,,,,,,,,
,,,,,,,,2023-08-06_08h20.56.010,HF_wild_card,2022.2.4,Win32,60.10337781,5ea00a03e32996000ac2da80,64ce5acb97489d65b14ecc7a,64cf49bb75e78ea9166956b1,,,,,,,decisionTrl,resources/DP.BMP,resources/DBN.BMP,Door4,0.109259288,0.001851824,1,0,0,1.7455,optionRight,60,14965,7,26,0,26,0,1,,,,,,,,,,,,,,,,,,,,,,,,,,,,,,,,,,,,,,,
,,,,,,,,2023-08-06_08h20.56.010,HF_wild_card,2022.2.4,Win32,60.10337781,5ea00a03e32996000ac2da80,64ce5acb97489d65b14ecc7a,64cf49bb75e78ea9166956b1,,,,,,,decisionTrl,resources/DB.BMP,resources/DY.BMP,Door1,0.153703732,0.001851824,1,0,0,1.4477,optionRight,30,14995,7,27,0,27,0,1,,,,,,,,,,,,,,,,,,,,,,,,,,,,,,,,,,,,,,,
,,,,,,,,2023-08-06_08h20.56.010,HF_wild_card,2022.2.4,Win32,60.10337781,5ea00a03e32996000ac2da80,64ce5acb97489d65b14ecc7a,64cf49bb75e78ea9166956b1,,,,,,,decisionTrl,resources/DB.BMP,resources/DY.BMP,Door1,0.184259288,0.031481467,1,0,0,2.049,optionRight,30,15025,7,28,0,28,0,1,,,,,,,,,,,,,,,,,,,,,,,,,,,,,,,,,,,,,,,
,,,,,,,,2023-08-06_08h20.56.010,HF_wild_card,2022.2.4,Win32,60.10337781,5ea00a03e32996000ac2da80,64ce5acb97489d65b14ecc7a,64cf49bb75e78ea9166956b1,,,,,,,decisionTrl,resources/DY.BMP,resources/DB.BMP,Door1,-0.188888889,-0.060185199,1,0,0,1.8143,optionLeft,30,15055,7,29,0,29,0,1,,,,,,,,,,,,,,,,,,,,,,,,,,,,,,,,,,,,,,,
,,,,,,,,2023-08-06_08h20.56.010,HF_wild_card,2022.2.4,Win32,60.10337781,5ea00a03e32996000ac2da80,64ce5acb97489d65b14ecc7a,64cf49bb75e78ea9166956b1,,,,,,,decisionTrl,resources/DB.BMP,resources/DY.BMP,Door1,0.154629686,-0.005555556,1,0,0,1.5649,optionRight,30,15085,7,30,0,30,0,1,,,,,,,,,,,,,,,,,,,,,,,,,,,,,,,,,,,,,,,
,,,,,,,,2023-08-06_08h20.56.010,HF_wild_card,2022.2.4,Win32,60.10337781,5ea00a03e32996000ac2da80,64ce5acb97489d65b14ecc7a,64cf49bb75e78ea9166956b1,,,,,,,decisionTrl,resources/DB.BMP,resources/DY.BMP,Door2,-0.177777778,-0.045370399,1,0,0,2.0318,optionLeft,40,15125,7,31,0,31,0,1,,,,,,,,,,,,,,,,,,,,,,,,,,,,,,,,,,,,,,,
,,,,,,,,2023-08-06_08h20.56.010,HF_wild_card,2022.2.4,Win32,60.10337781,5ea00a03e32996000ac2da80,64ce5acb97489d65b14ecc7a,64cf49bb75e78ea9166956b1,,,,,,,ctch,resources/DP.BMP,resources/DB.BMP,Door3,-0.204629601,-0.078703732,1,0,0,1.3981,optionLeft,70,15195,7,32,0,32,0,1,,,,,,,,,,,,,,,,,,,,,,,,,,,,,,,,,,,,,,,
,,,,,,,,2023-08-06_08h20.56.010,HF_wild_card,2022.2.4,Win32,60.10337781,5ea00a03e32996000ac2da80,64ce5acb97489d65b14ecc7a,64cf49bb75e78ea9166956b1,,,,,,,ctch,resources/DP.BMP,resources/DB.BMP,Door3,-0.2,-0.058333333,1,0,0,2.0979,optionLeft,70,15265,7,33,0,33,0,1,,,,,,,,,,,,,,,,,,,,,,,,,,,,,,,,,,,,,,,
,,,,,,,,2023-08-06_08h20.56.010,HF_wild_card,2022.2.4,Win32,60.10337781,5ea00a03e32996000ac2da80,64ce5acb97489d65b14ecc7a,64cf49bb75e78ea9166956b1,,,,,,,ctch,resources/DY.BMP,resources/DBN.BMP,Door4,0.137963019,0.016666667,1,0,0,1.2805,optionRight,80,15345,7,34,0,34,0,1,,,,,,,,,,,,,,,,,,,,,,,,,,,,,,,,,,,,,,,
,,,,,,,,2023-08-06_08h20.56.010,HF_wild_card,2022.2.4,Win32,60.10337781,5ea00a03e32996000ac2da80,64ce5acb97489d65b14ecc7a,64cf49bb75e78ea9166956b1,,,,,,,decisionTrl,resources/DY.BMP,resources/DB.BMP,Door1,-0.137036981,-0.039814843,1,0,0,1.7825,optionLeft,30,15375,7,35,0,35,0,1,,,,,,,,,,,,,,,,,,,,,,,,,,,,,,,,,,,,,,,
,,,,,,,,2023-08-06_08h20.56.010,HF_wild_card,2022.2.4,Win32,60.10337781,5ea00a03e32996000ac2da80,64ce5acb97489d65b14ecc7a,64cf49bb75e78ea9166956b1,,,,,,,,,,,,,,,,,,,,,,,,,,6,0,6,0,1,,,,,,,,,,,,,,,,,,,,,,,,,,,,,,,,,,
,,,,,,,,2023-08-06_08h20.56.010,HF_wild_card,2022.2.4,Win32,60.10337781,5ea00a03e32996000ac2da80,64ce5acb97489d65b14ecc7a,64cf49bb75e78ea9166956b1,,,,,,,,,,,,,,,,,,,,,,,,,,,,,,,3,,,,,,,,,,,,,,,,,,,,,,,,,,,,,,,,,
,,,,,,,,2023-08-06_08h20.56.010,HF_wild_card,2022.2.4,Win32,60.10337781,5ea00a03e32996000ac2da80,64ce5acb97489d65b14ecc7a,64cf49bb75e78ea9166956b1,,,,,,,,,,,,,,,,,,,,,,,,,,,,,,,,,,,,,,,,,,,,,,,,,,,,,,,,,,,,,,,,
,,,,,,,,2023-08-06_08h20.56.010,HF_wild_card,2022.2.4,Win32,60.10337781,5ea00a03e32996000ac2da80,64ce5acb97489d65b14ecc7a,64cf49bb75e78ea9166956b1,,,,,,,,,,,,,,,,,,,,,,,,,,,,,,,,40,Door4,resources/DBN.BMP,0,0,0,0,1,,,,,,,,,,,,,,,,,,,,,,,,,
,,,,,,,,2023-08-06_08h20.56.010,HF_wild_card,2022.2.4,Win32,60.10337781,5ea00a03e32996000ac2da80,64ce5acb97489d65b14ecc7a,64cf49bb75e78ea9166956b1,,,,,,,,,,,,,,,,,,,,,,,,,,,,,,,,30,WC_extreme,resources/DG.BMP,1,0,1,0,1,,,,,,,,,,,,,,,,,,,,,,,,,
,,,,,,,,2023-08-06_08h20.56.010,HF_wild_card,2022.2.4,Win32,60.10337781,5ea00a03e32996000ac2da80,64ce5acb97489d65b14ecc7a,64cf49bb75e78ea9166956b1,,,,,,,,,,,,,,,,,,,,,,,,,,,,,,,,30,Door1,resources/DY.BMP,2,0,2,0,1,,,,,,,,,,,,,,,,,,,,,,,,,
,,,,,,,,2023-08-06_08h20.56.010,HF_wild_card,2022.2.4,Win32,60.10337781,5ea00a03e32996000ac2da80,64ce5acb97489d65b14ecc7a,64cf49bb75e78ea9166956b1,,,,,,,,,,,,,,,,,,,,,,,,,,,,,,,,40,Door2,resources/DB.BMP,3,0,3,0,1,,,,,,,,,,,,,,,,,,,,,,,,,
,,,,,,,,2023-08-06_08h20.56.010,HF_wild_card,2022.2.4,Win32,60.10337781,5ea00a03e32996000ac2da80,64ce5acb97489d65b14ecc7a,64cf49bb75e78ea9166956b1,,,,,,,,,,,,,,,,,,,,,,,,,,,,,,,,60,Door3,resources/DP.BMP,4,0,4,0,1,,,,,,,,,,,,,,,,,,,,,,,,,
,,,,,,,,2023-08-06_08h20.56.010,HF_wild_card,2022.2.4,Win32,60.10337781,5ea00a03e32996000ac2da80,64ce5acb97489d65b14ecc7a,64cf49bb75e78ea9166956b1,,,,,,,,,,,,,,,,,,,,,,,,,,,,,,,,30,WC_nonExtreme,resources/DR.BMP,5,0,5,0,1,,,,,,,,,,,,,,,,,,,,,,,,,
,,,,,,,,2023-08-06_08h20.56.010,HF_wild_card,2022.2.4,Win32,60.10337781,5ea00a03e32996000ac2da80,64ce5acb97489d65b14ecc7a,64cf49bb75e78ea9166956b1,,,,,,,,,,,,,,,,,,,,,,,,,,,,,,,,,,,,,,,,,,,,,,,,,,,,,,,,,,,,,,,,
