Condition,Low fixed image (Door1),Low risky image (Door2),High fixed image (Door3),High risky image (Door4),Extreme Wild Card,NonExtreme Wild Card,,date,expName,psychopyVersion,OS,frameRate,PROLIFIC_PID,STUDY_ID,SESSION_ID,mouse_2.x,mouse_2.y,mouse_2.leftButton,mouse_2.midButton,mouse_2.rightButton,mouse_2.clicked_name,Trial Type,Left Option Image,Right Option Image,Chosen Door,mouse.x,mouse.y,mouse.leftButton,mouse.midButton,mouse.rightButton,mouse.time,mouse.clicked_name,Feedback,Cumulative Reward,Block,trial.thisRepN,trial.thisTrialN,trial.thisN,trial.thisIndex,trial.ran,blocks.thisRepN,blocks.thisTrialN,blocks.thisN,blocks.thisIndex,blocks.ran,Money conversion,First Outcome Reported,Shown Door (First Outcome),Displayed Image (First Outcome),outcomes.thisRepN,outcomes.thisTrialN,outcomes.thisN,outcomes.thisIndex,outcomes.ran,judgments.thisRepN,judgments.thisTrialN,judgments.thisN,judgments.thisIndex,judgments.ran,freqMouse.x,freqMouse.y,freqMouse.leftButton,freqMouse.midButton,freqMouse.rightButton,freqMouse.clicked_name,FQJ for first outcome,FQJ for second outcome,Shown Door,Displayed Image,trials.thisRepN,trials.thisTrialN,trials.thisN,trials.thisIndex,trials.ran,judgBlock.thisRepN,judgBlock.thisTrialN,judgBlock.thisN,judgBlock.thisIndex,judgBlock.ran
1,resources/DY.BMP,resources/DBN.BMP,resources/DB.BMP,resources/DG.BMP,resources/DP.BMP,resources/DR.BMP,,2023-08-06_08h26.56.799,HF_wild_card,2022.2.4,MacIntel,59.84082341,61588a883213fd00ccae7c21,64ce5acb97489d65b14ecc7a,64cf4b05db0b6e38c7050e47,,,,,,,,,,,,,,,,,,,,,,,,,,,,,,,,,,,,,,,,,,,,,,,,,,,,,,,,,,,,,,,,
,,,,,,,,2023-08-06_08h26.56.799,HF_wild_card,2022.2.4,MacIntel,59.84082341,61588a883213fd00ccae7c21,64ce5acb97489d65b14ecc7a,64cf4b05db0b6e38c7050e47,0.007335069,-0.418611111,1,0,0,agree,,,,,,,,,,,,,,,,,,,,,,,,,,,,,,,,,,,,,,,,,,,,,,,,,,,,,,,,,,
,,,,,,,,2023-08-06_08h26.56.799,HF_wild_card,2022.2.4,MacIntel,59.84082341,61588a883213fd00ccae7c21,64ce5acb97489d65b14ecc7a,64cf4b05db0b6e38c7050e47,,,,,,,,,,,,,,,,,,,,,,,,,,,,,,,,,,,,,,,,,,,,,,,,,,,,,,,,,,,,,,,,
,,,,,,,,2023-08-06_08h26.56.799,HF_wild_card,2022.2.4,MacIntel,59.84082341,61588a883213fd00ccae7c21,64ce5acb97489d65b14ecc7a,64cf4b05db0b6e38c7050e47,,,,,,,ctch,resources/DY.BMP,resources/DG.BMP,Door1,-0.28124566,-0.143819444,1,0,0,2.1643,optionLeft,30,30,1,0,0,0,0,1,,,,,,,,,,,,,,,,,,,,,,,,,,,,,,,,,,,,,,,
,,,,,,,,2023-08-06_08h26.56.799,HF_wild_card,2022.2.4,MacIntel,59.84082341,61588a883213fd00ccae7c21,64ce5acb97489d65b14ecc7a,64cf4b05db0b6e38c7050e47,,,,,,,sngl,resources/DBN.BMP,resources/Empty.png,Door2,-0.207699653,0.024518229,1,0,0,1.7656,optionLeft,40,70,1,1,0,1,0,1,,,,,,,,,,,,,,,,,,,,,,,,,,,,,,,,,,,,,,,
,,,,,,,,2023-08-06_08h26.56.799,HF_wild_card,2022.2.4,MacIntel,59.84082341,61588a883213fd00ccae7c21,64ce5acb97489d65b14ecc7a,64cf4b05db0b6e38c7050e47,,,,,,,decisionTrl,resources/DG.BMP,resources/DB.BMP,Door3,0.338098958,-0.031584201,1,0,0,1.6013,optionRight,70,140,1,2,0,2,0,1,,,,,,,,,,,,,,,,,,,,,,,,,,,,,,,,,,,,,,,
,,,,,,,,2023-08-06_08h26.56.799,HF_wild_card,2022.2.4,MacIntel,59.84082341,61588a883213fd00ccae7c21,64ce5acb97489d65b14ecc7a,64cf4b05db0b6e38c7050e47,,,,,,,decisionTrl,resources/DB.BMP,resources/DR.BMP,Door3,-0.208142361,-0.005846354,1,0,0,0.833,optionLeft,70,210,1,3,0,3,0,1,,,,,,,,,,,,,,,,,,,,,,,,,,,,,,,,,,,,,,,
,,,,,,,,2023-08-06_08h26.56.799,HF_wild_card,2022.2.4,MacIntel,59.84082341,61588a883213fd00ccae7c21,64ce5acb97489d65b14ecc7a,64cf4b05db0b6e38c7050e47,,,,,,,decisionTrl,resources/DG.BMP,resources/DR.BMP,WildCard_NonEx,0.281219618,-0.029544271,1,0,0,2.0696,optionRight,55,265,1,4,0,4,0,1,,,,,,,,,,,,,,,,,,,,,,,,,,,,,,,,,,,,,,,
,,,,,,,,2023-08-06_08h26.56.799,HF_wild_card,2022.2.4,MacIntel,59.84082341,61588a883213fd00ccae7c21,64ce5acb97489d65b14ecc7a,64cf4b05db0b6e38c7050e47,,,,,,,sngl,resources/Empty.png,resources/DG.BMP,Door4,0.300842014,-0.026480035,1,0,0,1.0664,optionRight,60,325,1,5,0,5,0,1,,,,,,,,,,,,,,,,,,,,,,,,,,,,,,,,,,,,,,,
,,,,,,,,2023-08-06_08h26.56.799,HF_wild_card,2022.2.4,MacIntel,59.84082341,61588a883213fd00ccae7c21,64ce5acb97489d65b14ecc7a,64cf4b05db0b6e38c7050e47,,,,,,,ctch,resources/DG.BMP,resources/DY.BMP,Door4,-0.232947049,0.013862847,1,0,0,0.7311,optionLeft,80,405,1,6,0,6,0,1,,,,,,,,,,,,,,,,,,,,,,,,,,,,,,,,,,,,,,,
,,,,,,,,2023-08-06_08h26.56.799,HF_wild_card,2022.2.4,MacIntel,59.84082341,61588a883213fd00ccae7c21,64ce5acb97489d65b14ecc7a,64cf4b05db0b6e38c7050e47,,,,,,,decisionTrl,resources/DB.BMP,resources/DG.BMP,Door4,0.445703125,-0.010763889,1,0,0,0.7988,optionRight,60,465,1,7,0,7,0,1,,,,,,,,,,,,,,,,,,,,,,,,,,,,,,,,,,,,,,,
,,,,,,,,2023-08-06_08h26.56.799,HF_wild_card,2022.2.4,MacIntel,59.84082341,61588a883213fd00ccae7c21,64ce5acb97489d65b14ecc7a,64cf4b05db0b6e38c7050e47,,,,,,,decisionTrl,resources/DBN.BMP,resources/DY.BMP,Door2,-0.33000434,0.001840278,1,0,0,0.9998,optionLeft,40,505,1,8,0,8,0,1,,,,,,,,,,,,,,,,,,,,,,,,,,,,,,,,,,,,,,,
,,,,,,,,2023-08-06_08h26.56.799,HF_wild_card,2022.2.4,MacIntel,59.84082341,61588a883213fd00ccae7c21,64ce5acb97489d65b14ecc7a,64cf4b05db0b6e38c7050e47,,,,,,,ctch,resources/DY.BMP,resources/DG.BMP,Door4,0.270173611,-0.026072049,1,0,0,2.4362,optionRight,60,565,1,9,0,9,0,1,,,,,,,,,,,,,,,,,,,,,,,,,,,,,,,,,,,,,,,
,,,,,,,,2023-08-06_08h26.56.799,HF_wild_card,2022.2.4,MacIntel,59.84082341,61588a883213fd00ccae7c21,64ce5acb97489d65b14ecc7a,64cf4b05db0b6e38c7050e47,,,,,,,ctch,resources/DBN.BMP,resources/DB.BMP,Door3,0.332274306,-0.013671875,1,0,0,1.1166,optionRight,70,635,1,10,0,10,0,1,,,,,,,,,,,,,,,,,,,,,,,,,,,,,,,,,,,,,,,
,,,,,,,,2023-08-06_08h26.56.799,HF_wild_card,2022.2.4,MacIntel,59.84082341,61588a883213fd00ccae7c21,64ce5acb97489d65b14ecc7a,64cf4b05db0b6e38c7050e47,,,,,,,sngl,resources/DG.BMP,resources/Empty.png,Door4,-0.293333333,-0.029327257,1,0,0,0.7652,optionLeft,80,715,1,11,0,11,0,1,,,,,,,,,,,,,,,,,,,,,,,,,,,,,,,,,,,,,,,
,,,,,,,,2023-08-06_08h26.56.799,HF_wild_card,2022.2.4,MacIntel,59.84082341,61588a883213fd00ccae7c21,64ce5acb97489d65b14ecc7a,64cf4b05db0b6e38c7050e47,,,,,,,ctch,resources/DB.BMP,resources/DBN.BMP,Door3,-0.348020833,-0.073381076,1,0,0,1.3835,optionLeft,70,785,1,12,0,12,0,1,,,,,,,,,,,,,,,,,,,,,,,,,,,,,,,,,,,,,,,
,,,,,,,,2023-08-06_08h26.56.799,HF_wild_card,2022.2.4,MacIntel,59.84082341,61588a883213fd00ccae7c21,64ce5acb97489d65b14ecc7a,64cf4b05db0b6e38c7050e47,,,,,,,sngl,resources/DR.BMP,resources/Empty.png,WildCard_NonEx,-0.242825521,0.004618056,1,0,0,0.7325,optionLeft,45,830,1,13,0,13,0,1,,,,,,,,,,,,,,,,,,,,,,,,,,,,,,,,,,,,,,,
,,,,,,,,2023-08-06_08h26.56.799,HF_wild_card,2022.2.4,MacIntel,59.84082341,61588a883213fd00ccae7c21,64ce5acb97489d65b14ecc7a,64cf4b05db0b6e38c7050e47,,,,,,,decisionTrl,resources/DR.BMP,resources/DG.BMP,Door4,0.32999566,-0.032799479,1,0,0,0.8978,optionRight,60,890,1,14,0,14,0,1,,,,,,,,,,,,,,,,,,,,,,,,,,,,,,,,,,,,,,,
,,,,,,,,2023-08-06_08h26.56.799,HF_wild_card,2022.2.4,MacIntel,59.84082341,61588a883213fd00ccae7c21,64ce5acb97489d65b14ecc7a,64cf4b05db0b6e38c7050e47,,,,,,,decisionTrl,resources/DB.BMP,resources/DG.BMP,Door4,0.325021701,-0.069574653,1,0,0,1.1321,optionRight,60,950,1,15,0,15,0,1,,,,,,,,,,,,,,,,,,,,,,,,,,,,,,,,,,,,,,,
,,,,,,,,2023-08-06_08h26.56.799,HF_wild_card,2022.2.4,MacIntel,59.84082341,61588a883213fd00ccae7c21,64ce5acb97489d65b14ecc7a,64cf4b05db0b6e38c7050e47,,,,,,,sngl,resources/DY.BMP,resources/Empty.png,Door1,-0.361024306,-0.04718316,1,0,0,0.6653,optionLeft,30,980,1,16,0,16,0,1,,,,,,,,,,,,,,,,,,,,,,,,,,,,,,,,,,,,,,,
,,,,,,,,2023-08-06_08h26.56.799,HF_wild_card,2022.2.4,MacIntel,59.84082341,61588a883213fd00ccae7c21,64ce5acb97489d65b14ecc7a,64cf4b05db0b6e38c7050e47,,,,,,,decisionTrl,resources/DY.BMP,resources/DBN.BMP,Door2,0.405568576,0.007391493,1,0,0,0.9833,optionRight,20,1000,1,17,0,17,0,1,,,,,,,,,,,,,,,,,,,,,,,,,,,,,,,,,,,,,,,
,,,,,,,,2023-08-06_08h26.56.799,HF_wild_card,2022.2.4,MacIntel,59.84082341,61588a883213fd00ccae7c21,64ce5acb97489d65b14ecc7a,64cf4b05db0b6e38c7050e47,,,,,,,sngl,resources/DB.BMP,resources/Empty.png,Door3,-0.277074653,-0.034804688,1,0,0,0.6983,optionLeft,70,1070,1,18,0,18,0,1,,,,,,,,,,,,,,,,,,,,,,,,,,,,,,,,,,,,,,,
,,,,,,,,2023-08-06_08h26.56.799,HF_wild_card,2022.2.4,MacIntel,59.84082341,61588a883213fd00ccae7c21,64ce5acb97489d65b14ecc7a,64cf4b05db0b6e38c7050e47,,,,,,,sngl,resources/Empty.png,resources/DBN.BMP,Door2,0.379435764,0.027799479,1,0,0,0.7657,optionRight,20,1090,1,19,0,19,0,1,,,,,,,,,,,,,,,,,,,,,,,,,,,,,,,,,,,,,,,
,,,,,,,,2023-08-06_08h26.56.799,HF_wild_card,2022.2.4,MacIntel,59.84082341,61588a883213fd00ccae7c21,64ce5acb97489d65b14ecc7a,64cf4b05db0b6e38c7050e47,,,,,,,decisionTrl,resources/DBN.BMP,resources/DR.BMP,WildCard_NonEx,0.23765191,-0.017178819,1,0,0,0.8816,optionRight,45,1135,1,20,0,20,0,1,,,,,,,,,,,,,,,,,,,,,,,,,,,,,,,,,,,,,,,
,,,,,,,,2023-08-06_08h26.56.799,HF_wild_card,2022.2.4,MacIntel,59.84082341,61588a883213fd00ccae7c21,64ce5acb97489d65b14ecc7a,64cf4b05db0b6e38c7050e47,,,,,,,decisionTrl,resources/DBN.BMP,resources/DY.BMP,Door1,0.380585938,-0.010837674,1,0,0,0.9814,optionRight,30,1165,1,21,0,21,0,1,,,,,,,,,,,,,,,,,,,,,,,,,,,,,,,,,,,,,,,
,,,,,,,,2023-08-06_08h26.56.799,HF_wild_card,2022.2.4,MacIntel,59.84082341,61588a883213fd00ccae7c21,64ce5acb97489d65b14ecc7a,64cf4b05db0b6e38c7050e47,,,,,,,decisionTrl,resources/DB.BMP,resources/DG.BMP,Door3,-0.315125868,-0.023424479,1,0,0,1.2329,optionLeft,70,1235,1,22,0,22,0,1,,,,,,,,,,,,,,,,,,,,,,,,,,,,,,,,,,,,,,,
,,,,,,,,2023-08-06_08h26.56.799,HF_wild_card,2022.2.4,MacIntel,59.84082341,61588a883213fd00ccae7c21,64ce5acb97489d65b14ecc7a,64cf4b05db0b6e38c7050e47,,,,,,,decisionTrl,resources/DR.BMP,resources/DBN.BMP,WildCard_NonEx,-0.295577257,-0.029752604,1,0,0,1.1344,optionLeft,55,1290,1,23,0,23,0,1,,,,,,,,,,,,,,,,,,,,,,,,,,,,,,,,,,,,,,,
,,,,,,,,2023-08-06_08h26.56.799,HF_wild_card,2022.2.4,MacIntel,59.84082341,61588a883213fd00ccae7c21,64ce5acb97489d65b14ecc7a,64cf4b05db0b6e38c7050e47,,,,,,,decisionTrl,resources/DB.BMP,resources/DG.BMP,Door3,-0.253424479,0.017309028,1,0,0,1.0167,optionLeft,70,1360,1,24,0,24,0,1,,,,,,,,,,,,,,,,,,,,,,,,,,,,,,,,,,,,,,,
,,,,,,,,2023-08-06_08h26.56.799,HF_wild_card,2022.2.4,MacIntel,59.84082341,61588a883213fd00ccae7c21,64ce5acb97489d65b14ecc7a,64cf4b05db0b6e38c7050e47,,,,,,,decisionTrl,resources/DG.BMP,resources/DB.BMP,Door3,0.305920139,-0.015802951,1,0,0,1.5845,optionRight,70,1430,1,25,0,25,0,1,,,,,,,,,,,,,,,,,,,,,,,,,,,,,,,,,,,,,,,
,,,,,,,,2023-08-06_08h26.56.799,HF_wild_card,2022.2.4,MacIntel,59.84082341,61588a883213fd00ccae7c21,64ce5acb97489d65b14ecc7a,64cf4b05db0b6e38c7050e47,,,,,,,decisionTrl,resources/DG.BMP,resources/DB.BMP,Door3,0.384696181,-0.020733507,1,0,0,0.8322,optionRight,70,1500,1,26,0,26,0,1,,,,,,,,,,,,,,,,,,,,,,,,,,,,,,,,,,,,,,,
,,,,,,,,2023-08-06_08h26.56.799,HF_wild_card,2022.2.4,MacIntel,59.84082341,61588a883213fd00ccae7c21,64ce5acb97489d65b14ecc7a,64cf4b05db0b6e38c7050e47,,,,,,,decisionTrl,resources/DY.BMP,resources/DBN.BMP,Door1,-0.22312934,0.034578993,1,0,0,1.1675,optionLeft,30,1530,1,27,0,27,0,1,,,,,,,,,,,,,,,,,,,,,,,,,,,,,,,,,,,,,,,
,,,,,,,,2023-08-06_08h26.56.799,HF_wild_card,2022.2.4,MacIntel,59.84082341,61588a883213fd00ccae7c21,64ce5acb97489d65b14ecc7a,64cf4b05db0b6e38c7050e47,,,,,,,decisionTrl,resources/DBN.BMP,resources/DY.BMP,Door1,0.38671875,0.005221354,1,0,0,0.8663,optionRight,30,1560,1,28,0,28,0,1,,,,,,,,,,,,,,,,,,,,,,,,,,,,,,,,,,,,,,,
,,,,,,,,2023-08-06_08h26.56.799,HF_wild_card,2022.2.4,MacIntel,59.84082341,61588a883213fd00ccae7c21,64ce5acb97489d65b14ecc7a,64cf4b05db0b6e38c7050e47,,,,,,,sngl,resources/DR.BMP,resources/Empty.png,WildCard_NonEx,-0.309544271,0.004071181,1,0,0,0.6637,optionLeft,55,1615,1,29,0,29,0,1,,,,,,,,,,,,,,,,,,,,,,,,,,,,,,,,,,,,,,,
,,,,,,,,2023-08-06_08h26.56.799,HF_wild_card,2022.2.4,MacIntel,59.84082341,61588a883213fd00ccae7c21,64ce5acb97489d65b14ecc7a,64cf4b05db0b6e38c7050e47,,,,,,,decisionTrl,resources/DY.BMP,resources/DR.BMP,Door1,-0.186783854,-0.035924479,1,0,0,2.051,optionLeft,30,1645,1,30,0,30,0,1,,,,,,,,,,,,,,,,,,,,,,,,,,,,,,,,,,,,,,,
,,,,,,,,2023-08-06_08h26.56.799,HF_wild_card,2022.2.4,MacIntel,59.84082341,61588a883213fd00ccae7c21,64ce5acb97489d65b14ecc7a,64cf4b05db0b6e38c7050e47,,,,,,,decisionTrl,resources/DR.BMP,resources/DY.BMP,WildCard_NonEx,-0.323203125,-0.010746528,1,0,0,0.7,optionLeft,55,1700,1,31,0,31,0,1,,,,,,,,,,,,,,,,,,,,,,,,,,,,,,,,,,,,,,,
,,,,,,,,2023-08-06_08h26.56.799,HF_wild_card,2022.2.4,MacIntel,59.84082341,61588a883213fd00ccae7c21,64ce5acb97489d65b14ecc7a,64cf4b05db0b6e38c7050e47,,,,,,,decisionTrl,resources/DR.BMP,resources/DB.BMP,Door3,0.256727431,0.046119792,1,0,0,1.0472,optionRight,70,1770,1,32,0,32,0,1,,,,,,,,,,,,,,,,,,,,,,,,,,,,,,,,,,,,,,,
,,,,,,,,2023-08-06_08h26.56.799,HF_wild_card,2022.2.4,MacIntel,59.84082341,61588a883213fd00ccae7c21,64ce5acb97489d65b14ecc7a,64cf4b05db0b6e38c7050e47,,,,,,,ctch,resources/DBN.BMP,resources/DB.BMP,Door3,0.316019965,0.000711806,1,0,0,0.8682,optionRight,70,1840,1,33,0,33,0,1,,,,,,,,,,,,,,,,,,,,,,,,,,,,,,,,,,,,,,,
,,,,,,,,2023-08-06_08h26.56.799,HF_wild_card,2022.2.4,MacIntel,59.84082341,61588a883213fd00ccae7c21,64ce5acb97489d65b14ecc7a,64cf4b05db0b6e38c7050e47,,,,,,,decisionTrl,resources/DY.BMP,resources/DBN.BMP,Door1,-0.288554688,0.023940972,1,0,0,1.1658,optionLeft,30,1870,1,34,0,34,0,1,,,,,,,,,,,,,,,,,,,,,,,,,,,,,,,,,,,,,,,
,,,,,,,,2023-08-06_08h26.56.799,HF_wild_card,2022.2.4,MacIntel,59.84082341,61588a883213fd00ccae7c21,64ce5acb97489d65b14ecc7a,64cf4b05db0b6e38c7050e47,,,,,,,ctch,resources/DG.BMP,resources/DY.BMP,Door4,-0.234787326,-0.040082465,1,0,0,1.384,optionLeft,80,1950,1,35,0,35,0,1,,,,,,,,,,,,,,,,,,,,,,,,,,,,,,,,,,,,,,,
,,,,,,,,2023-08-06_08h26.56.799,HF_wild_card,2022.2.4,MacIntel,59.84082341,61588a883213fd00ccae7c21,64ce5acb97489d65b14ecc7a,64cf4b05db0b6e38c7050e47,,,,,,,sngl,resources/Empty.png,resources/DB.BMP,Door3,0.290646701,-0.010533854,1,0,0,0.7636,optionRight,70,2020,1,36,0,36,0,1,,,,,,,,,,,,,,,,,,,,,,,,,,,,,,,,,,,,,,,
,,,,,,,,2023-08-06_08h26.56.799,HF_wild_card,2022.2.4,MacIntel,59.84082341,61588a883213fd00ccae7c21,64ce5acb97489d65b14ecc7a,64cf4b05db0b6e38c7050e47,,,,,,,ctch,resources/DB.BMP,resources/DBN.BMP,Door3,-0.244435764,0.016219618,1,0,0,0.7678,optionLeft,70,2090,1,37,0,37,0,1,,,,,,,,,,,,,,,,,,,,,,,,,,,,,,,,,,,,,,,
,,,,,,,,2023-08-06_08h26.56.799,HF_wild_card,2022.2.4,MacIntel,59.84082341,61588a883213fd00ccae7c21,64ce5acb97489d65b14ecc7a,64cf4b05db0b6e38c7050e47,,,,,,,decisionTrl,resources/DY.BMP,resources/DBN.BMP,Door1,-0.157695312,0.01780816,1,0,0,1.2498,optionLeft,30,2120,1,38,0,38,0,1,,,,,,,,,,,,,,,,,,,,,,,,,,,,,,,,,,,,,,,
,,,,,,,,2023-08-06_08h26.56.799,HF_wild_card,2022.2.4,MacIntel,59.84082341,61588a883213fd00ccae7c21,64ce5acb97489d65b14ecc7a,64cf4b05db0b6e38c7050e47,,,,,,,sngl,resources/Empty.png,resources/DR.BMP,WildCard_NonEx,0.237039931,0.026827257,1,0,0,0.8667,optionRight,55,2175,1,39,0,39,0,1,,,,,,,,,,,,,,,,,,,,,,,,,,,,,,,,,,,,,,,
,,,,,,,,2023-08-06_08h26.56.799,HF_wild_card,2022.2.4,MacIntel,59.84082341,61588a883213fd00ccae7c21,64ce5acb97489d65b14ecc7a,64cf4b05db0b6e38c7050e47,,,,,,,sngl,resources/Empty.png,resources/DY.BMP,Door1,0.269887153,0.051618924,1,0,0,0.7499,optionRight,30,2205,1,40,0,40,0,1,,,,,,,,,,,,,,,,,,,,,,,,,,,,,,,,,,,,,,,
,,,,,,,,2023-08-06_08h26.56.799,HF_wild_card,2022.2.4,MacIntel,59.84082341,61588a883213fd00ccae7c21,64ce5acb97489d65b14ecc7a,64cf4b05db0b6e38c7050e47,,,,,,,decisionTrl,resources/DBN.BMP,resources/DY.BMP,Door1,0.399353299,0.020664063,1,0,0,0.833,optionRight,30,2235,1,41,0,41,0,1,,,,,,,,,,,,,,,,,,,,,,,,,,,,,,,,,,,,,,,
,,,,,,,,2023-08-06_08h26.56.799,HF_wild_card,2022.2.4,MacIntel,59.84082341,61588a883213fd00ccae7c21,64ce5acb97489d65b14ecc7a,64cf4b05db0b6e38c7050e47,,,,,,,decisionTrl,resources/DG.BMP,resources/DB.BMP,Door4,-0.179665799,-0.046597222,1,0,0,1.8021,optionLeft,60,2295,1,42,0,42,0,1,,,,,,,,,,,,,,,,,,,,,,,,,,,,,,,,,,,,,,,
,,,,,,,,2023-08-06_08h26.56.799,HF_wild_card,2022.2.4,MacIntel,59.84082341,61588a883213fd00ccae7c21,64ce5acb97489d65b14ecc7a,64cf4b05db0b6e38c7050e47,,,,,,,sngl,resources/Empty.png,resources/DR.BMP,WildCard_NonEx,0.217743056,0.011302083,1,0,0,0.8486,optionRight,45,2340,1,43,0,43,0,1,,,,,,,,,,,,,,,,,,,,,,,,,,,,,,,,,,,,,,,
,,,,,,,,2023-08-06_08h26.56.799,HF_wild_card,2022.2.4,MacIntel,59.84082341,61588a883213fd00ccae7c21,64ce5acb97489d65b14ecc7a,64cf4b05db0b6e38c7050e47,,,,,,,,,,,,,,,,,,,,,,,,,,0,0,0,0,1,,,,,,,,,,,,,,,,,,,,,,,,,,,,,,,,,,
,,,,,,,,2023-08-06_08h26.56.799,HF_wild_card,2022.2.4,MacIntel,59.84082341,61588a883213fd00ccae7c21,64ce5acb97489d65b14ecc7a,64cf4b05db0b6e38c7050e47,,,,,,,decisionTrl,resources/DY.BMP,resources/DR.BMP,WildCard_NonEx,0.334939236,-0.096354167,1,0,0,1.6823,optionRight,55,2395,2,0,0,0,0,1,,,,,,,,,,,,,,,,,,,,,,,,,,,,,,,,,,,,,,,
,,,,,,,,2023-08-06_08h26.56.799,HF_wild_card,2022.2.4,MacIntel,59.84082341,61588a883213fd00ccae7c21,64ce5acb97489d65b14ecc7a,64cf4b05db0b6e38c7050e47,,,,,,,ctch,resources/DY.BMP,resources/DG.BMP,Door4,0.250681424,0.033919271,1,0,0,1.2862,optionRight,60,2455,2,1,0,1,0,1,,,,,,,,,,,,,,,,,,,,,,,,,,,,,,,,,,,,,,,
,,,,,,,,2023-08-06_08h26.56.799,HF_wild_card,2022.2.4,MacIntel,59.84082341,61588a883213fd00ccae7c21,64ce5acb97489d65b14ecc7a,64cf4b05db0b6e38c7050e47,,,,,,,sngl,resources/Empty.png,resources/DY.BMP,Door1,0.27078125,0.000169271,1,0,0,1.0507,optionRight,30,2485,2,2,0,2,0,1,,,,,,,,,,,,,,,,,,,,,,,,,,,,,,,,,,,,,,,
,,,,,,,,2023-08-06_08h26.56.799,HF_wild_card,2022.2.4,MacIntel,59.84082341,61588a883213fd00ccae7c21,64ce5acb97489d65b14ecc7a,64cf4b05db0b6e38c7050e47,,,,,,,ctch,resources/DB.BMP,resources/DBN.BMP,Door3,-0.25265191,8.68056E-05,1,0,0,0.7135,optionLeft,70,2555,2,3,0,3,0,1,,,,,,,,,,,,,,,,,,,,,,,,,,,,,,,,,,,,,,,
,,,,,,,,2023-08-06_08h26.56.799,HF_wild_card,2022.2.4,MacIntel,59.84082341,61588a883213fd00ccae7c21,64ce5acb97489d65b14ecc7a,64cf4b05db0b6e38c7050e47,,,,,,,sngl,resources/DY.BMP,resources/Empty.png,Door1,-0.198233507,-0.020108507,1,0,0,0.8991,optionLeft,30,2585,2,4,0,4,0,1,,,,,,,,,,,,,,,,,,,,,,,,,,,,,,,,,,,,,,,
,,,,,,,,2023-08-06_08h26.56.799,HF_wild_card,2022.2.4,MacIntel,59.84082341,61588a883213fd00ccae7c21,64ce5acb97489d65b14ecc7a,64cf4b05db0b6e38c7050e47,,,,,,,decisionTrl,resources/DR.BMP,resources/DY.BMP,WildCard_NonEx,-0.185681424,-0.040807292,1,0,0,1.4514,optionLeft,55,2640,2,5,0,5,0,1,,,,,,,,,,,,,,,,,,,,,,,,,,,,,,,,,,,,,,,
,,,,,,,,2023-08-06_08h26.56.799,HF_wild_card,2022.2.4,MacIntel,59.84082341,61588a883213fd00ccae7c21,64ce5acb97489d65b14ecc7a,64cf4b05db0b6e38c7050e47,,,,,,,decisionTrl,resources/DBN.BMP,resources/DY.BMP,Door1,0.257196181,0.026488715,1,0,0,0.9164,optionRight,30,2670,2,6,0,6,0,1,,,,,,,,,,,,,,,,,,,,,,,,,,,,,,,,,,,,,,,
,,,,,,,,2023-08-06_08h26.56.799,HF_wild_card,2022.2.4,MacIntel,59.84082341,61588a883213fd00ccae7c21,64ce5acb97489d65b14ecc7a,64cf4b05db0b6e38c7050e47,,,,,,,decisionTrl,resources/DG.BMP,resources/DB.BMP,Door4,-0.191766493,-0.003728299,1,0,0,2.5364,optionLeft,80,2750,2,7,0,7,0,1,,,,,,,,,,,,,,,,,,,,,,,,,,,,,,,,,,,,,,,
,,,,,,,,2023-08-06_08h26.56.799,HF_wild_card,2022.2.4,MacIntel,59.84082341,61588a883213fd00ccae7c21,64ce5acb97489d65b14ecc7a,64cf4b05db0b6e38c7050e47,,,,,,,sngl,resources/DR.BMP,resources/Empty.png,WildCard_NonEx,-0.22155816,-0.053858507,1,0,0,0.7495,optionLeft,45,2795,2,8,0,8,0,1,,,,,,,,,,,,,,,,,,,,,,,,,,,,,,,,,,,,,,,
,,,,,,,,2023-08-06_08h26.56.799,HF_wild_card,2022.2.4,MacIntel,59.84082341,61588a883213fd00ccae7c21,64ce5acb97489d65b14ecc7a,64cf4b05db0b6e38c7050e47,,,,,,,decisionTrl,resources/DR.BMP,resources/DG.BMP,Door4,0.207165799,0.006575521,1,0,0,1.8038,optionRight,80,2875,2,9,0,9,0,1,,,,,,,,,,,,,,,,,,,,,,,,,,,,,,,,,,,,,,,
,,,,,,,,2023-08-06_08h26.56.799,HF_wild_card,2022.2.4,MacIntel,59.84082341,61588a883213fd00ccae7c21,64ce5acb97489d65b14ecc7a,64cf4b05db0b6e38c7050e47,,,,,,,ctch,resources/DB.BMP,resources/DBN.BMP,Door3,-0.23171441,-0.041688368,1,0,0,0.683,optionLeft,70,2945,2,10,0,10,0,1,,,,,,,,,,,,,,,,,,,,,,,,,,,,,,,,,,,,,,,
,,,,,,,,2023-08-06_08h26.56.799,HF_wild_card,2022.2.4,MacIntel,59.84082341,61588a883213fd00ccae7c21,64ce5acb97489d65b14ecc7a,64cf4b05db0b6e38c7050e47,,,,,,,decisionTrl,resources/DR.BMP,resources/DBN.BMP,WildCard_NonEx,-0.202204861,-0.017473958,1,0,0,1.053,optionLeft,45,2990,2,11,0,11,0,1,,,,,,,,,,,,,,,,,,,,,,,,,,,,,,,,,,,,,,,
,,,,,,,,2023-08-06_08h26.56.799,HF_wild_card,2022.2.4,MacIntel,59.84082341,61588a883213fd00ccae7c21,64ce5acb97489d65b14ecc7a,64cf4b05db0b6e38c7050e47,,,,,,,decisionTrl,resources/DB.BMP,resources/DG.BMP,Door4,0.288932292,0.051736111,1,0,0,1.1999,optionRight,80,3070,2,12,0,12,0,1,,,,,,,,,,,,,,,,,,,,,,,,,,,,,,,,,,,,,,,
,,,,,,,,2023-08-06_08h26.56.799,HF_wild_card,2022.2.4,MacIntel,59.84082341,61588a883213fd00ccae7c21,64ce5acb97489d65b14ecc7a,64cf4b05db0b6e38c7050e47,,,,,,,ctch,resources/DBN.BMP,resources/DB.BMP,Door3,0.317617188,-0.001805556,1,0,0,0.7999,optionRight,70,3140,2,13,0,13,0,1,,,,,,,,,,,,,,,,,,,,,,,,,,,,,,,,,,,,,,,
,,,,,,,,2023-08-06_08h26.56.799,HF_wild_card,2022.2.4,MacIntel,59.84082341,61588a883213fd00ccae7c21,64ce5acb97489d65b14ecc7a,64cf4b05db0b6e38c7050e47,,,,,,,sngl,resources/Empty.png,resources/DG.BMP,Door4,0.273763021,-0.050086806,1,0,0,0.6496,optionRight,80,3220,2,14,0,14,0,1,,,,,,,,,,,,,,,,,,,,,,,,,,,,,,,,,,,,,,,
,,,,,,,,2023-08-06_08h26.56.799,HF_wild_card,2022.2.4,MacIntel,59.84082341,61588a883213fd00ccae7c21,64ce5acb97489d65b14ecc7a,64cf4b05db0b6e38c7050e47,,,,,,,sngl,resources/Empty.png,resources/DB.BMP,Door3,0.22484375,0.00765191,1,0,0,0.6648,optionRight,70,3290,2,15,0,15,0,1,,,,,,,,,,,,,,,,,,,,,,,,,,,,,,,,,,,,,,,
,,,,,,,,2023-08-06_08h26.56.799,HF_wild_card,2022.2.4,MacIntel,59.84082341,61588a883213fd00ccae7c21,64ce5acb97489d65b14ecc7a,64cf4b05db0b6e38c7050e47,,,,,,,decisionTrl,resources/DY.BMP,resources/DBN.BMP,Door1,-0.231666667,-0.001922743,1,0,0,0.6821,optionLeft,30,3320,2,16,0,16,0,1,,,,,,,,,,,,,,,,,,,,,,,,,,,,,,,,,,,,,,,
,,,,,,,,2023-08-06_08h26.56.799,HF_wild_card,2022.2.4,MacIntel,59.84082341,61588a883213fd00ccae7c21,64ce5acb97489d65b14ecc7a,64cf4b05db0b6e38c7050e47,,,,,,,decisionTrl,resources/DB.BMP,resources/DR.BMP,Door3,-0.251019965,-0.049474826,1,0,0,1.2673,optionLeft,70,3390,2,17,0,17,0,1,,,,,,,,,,,,,,,,,,,,,,,,,,,,,,,,,,,,,,,
,,,,,,,,2023-08-06_08h26.56.799,HF_wild_card,2022.2.4,MacIntel,59.84082341,61588a883213fd00ccae7c21,64ce5acb97489d65b14ecc7a,64cf4b05db0b6e38c7050e47,,,,,,,decisionTrl,resources/DG.BMP,resources/DB.BMP,Door4,-0.260607639,-0.015625,1,0,0,0.8318,optionLeft,80,3470,2,18,0,18,0,1,,,,,,,,,,,,,,,,,,,,,,,,,,,,,,,,,,,,,,,
,,,,,,,,2023-08-06_08h26.56.799,HF_wild_card,2022.2.4,MacIntel,59.84082341,61588a883213fd00ccae7c21,64ce5acb97489d65b14ecc7a,64cf4b05db0b6e38c7050e47,,,,,,,decisionTrl,resources/DY.BMP,resources/DBN.BMP,Door1,-0.259804688,-0.014088542,1,0,0,0.7158,optionLeft,30,3500,2,19,0,19,0,1,,,,,,,,,,,,,,,,,,,,,,,,,,,,,,,,,,,,,,,
,,,,,,,,2023-08-06_08h26.56.799,HF_wild_card,2022.2.4,MacIntel,59.84082341,61588a883213fd00ccae7c21,64ce5acb97489d65b14ecc7a,64cf4b05db0b6e38c7050e47,,,,,,,decisionTrl,resources/DB.BMP,resources/DG.BMP,Door4,0.280169271,-0.000794271,1,0,0,1.133,optionRight,80,3580,2,20,0,20,0,1,,,,,,,,,,,,,,,,,,,,,,,,,,,,,,,,,,,,,,,
,,,,,,,,2023-08-06_08h26.56.799,HF_wild_card,2022.2.4,MacIntel,59.84082341,61588a883213fd00ccae7c21,64ce5acb97489d65b14ecc7a,64cf4b05db0b6e38c7050e47,,,,,,,sngl,resources/Empty.png,resources/DR.BMP,WildCard_NonEx,0.115846354,-0.022300347,1,0,0,0.6489,optionRight,45,3625,2,21,0,21,0,1,,,,,,,,,,,,,,,,,,,,,,,,,,,,,,,,,,,,,,,
,,,,,,,,2023-08-06_08h26.56.799,HF_wild_card,2022.2.4,MacIntel,59.84082341,61588a883213fd00ccae7c21,64ce5acb97489d65b14ecc7a,64cf4b05db0b6e38c7050e47,,,,,,,sngl,resources/Empty.png,resources/DBN.BMP,Door2,0.209257813,-0.02344184,1,0,0,0.7496,optionRight,40,3665,2,22,0,22,0,1,,,,,,,,,,,,,,,,,,,,,,,,,,,,,,,,,,,,,,,
,,,,,,,,2023-08-06_08h26.56.799,HF_wild_card,2022.2.4,MacIntel,59.84082341,61588a883213fd00ccae7c21,64ce5acb97489d65b14ecc7a,64cf4b05db0b6e38c7050e47,,,,,,,decisionTrl,resources/DG.BMP,resources/DB.BMP,Door4,-0.242769097,-0.020273438,1,0,0,1.8349,optionLeft,80,3745,2,23,0,23,0,1,,,,,,,,,,,,,,,,,,,,,,,,,,,,,,,,,,,,,,,
,,,,,,,,2023-08-06_08h26.56.799,HF_wild_card,2022.2.4,MacIntel,59.84082341,61588a883213fd00ccae7c21,64ce5acb97489d65b14ecc7a,64cf4b05db0b6e38c7050e47,,,,,,,decisionTrl,resources/DY.BMP,resources/DBN.BMP,Door1,-0.250911458,-0.026901042,1,0,0,1.066,optionLeft,30,3775,2,24,0,24,0,1,,,,,,,,,,,,,,,,,,,,,,,,,,,,,,,,,,,,,,,
,,,,,,,,2023-08-06_08h26.56.799,HF_wild_card,2022.2.4,MacIntel,59.84082341,61588a883213fd00ccae7c21,64ce5acb97489d65b14ecc7a,64cf4b05db0b6e38c7050e47,,,,,,,sngl,resources/Empty.png,resources/DR.BMP,WildCard_NonEx,0.24421441,-7.37847E-05,1,0,0,0.6502,optionRight,55,3830,2,25,0,25,0,1,,,,,,,,,,,,,,,,,,,,,,,,,,,,,,,,,,,,,,,
,,,,,,,,2023-08-06_08h26.56.799,HF_wild_card,2022.2.4,MacIntel,59.84082341,61588a883213fd00ccae7c21,64ce5acb97489d65b14ecc7a,64cf4b05db0b6e38c7050e47,,,,,,,sngl,resources/DBN.BMP,resources/Empty.png,Door2,-0.256223958,-0.012356771,1,0,0,0.6155,optionLeft,20,3850,2,26,0,26,0,1,,,,,,,,,,,,,,,,,,,,,,,,,,,,,,,,,,,,,,,
,,,,,,,,2023-08-06_08h26.56.799,HF_wild_card,2022.2.4,MacIntel,59.84082341,61588a883213fd00ccae7c21,64ce5acb97489d65b14ecc7a,64cf4b05db0b6e38c7050e47,,,,,,,decisionTrl,resources/DY.BMP,resources/DBN.BMP,Door1,-0.194392361,-0.024704861,1,0,0,0.7483,optionLeft,30,3880,2,27,0,27,0,1,,,,,,,,,,,,,,,,,,,,,,,,,,,,,,,,,,,,,,,
,,,,,,,,2023-08-06_08h26.56.799,HF_wild_card,2022.2.4,MacIntel,59.84082341,61588a883213fd00ccae7c21,64ce5acb97489d65b14ecc7a,64cf4b05db0b6e38c7050e47,,,,,,,decisionTrl,resources/DBN.BMP,resources/DY.BMP,Door1,0.188372396,-0.044353299,1,0,0,0.9817,optionRight,30,3910,2,28,0,28,0,1,,,,,,,,,,,,,,,,,,,,,,,,,,,,,,,,,,,,,,,
,,,,,,,,2023-08-06_08h26.56.799,HF_wild_card,2022.2.4,MacIntel,59.84082341,61588a883213fd00ccae7c21,64ce5acb97489d65b14ecc7a,64cf4b05db0b6e38c7050e47,,,,,,,decisionTrl,resources/DB.BMP,resources/DG.BMP,Door4,0.318645833,-0.036367188,1,0,0,1.0655,optionRight,80,3990,2,29,0,29,0,1,,,,,,,,,,,,,,,,,,,,,,,,,,,,,,,,,,,,,,,
,,,,,,,,2023-08-06_08h26.56.799,HF_wild_card,2022.2.4,MacIntel,59.84082341,61588a883213fd00ccae7c21,64ce5acb97489d65b14ecc7a,64cf4b05db0b6e38c7050e47,,,,,,,decisionTrl,resources/DBN.BMP,resources/DY.BMP,Door1,0.160824653,-0.021176215,1,0,0,0.9012,optionRight,30,4020,2,30,0,30,0,1,,,,,,,,,,,,,,,,,,,,,,,,,,,,,,,,,,,,,,,
,,,,,,,,2023-08-06_08h26.56.799,HF_wild_card,2022.2.4,MacIntel,59.84082341,61588a883213fd00ccae7c21,64ce5acb97489d65b14ecc7a,64cf4b05db0b6e38c7050e47,,,,,,,decisionTrl,resources/DG.BMP,resources/DR.BMP,Door4,-0.339509549,-0.021332465,1,0,0,1.5342,optionLeft,80,4100,2,31,0,31,0,1,,,,,,,,,,,,,,,,,,,,,,,,,,,,,,,,,,,,,,,
,,,,,,,,2023-08-06_08h26.56.799,HF_wild_card,2022.2.4,MacIntel,59.84082341,61588a883213fd00ccae7c21,64ce5acb97489d65b14ecc7a,64cf4b05db0b6e38c7050e47,,,,,,,ctch,resources/DG.BMP,resources/DY.BMP,Door4,-0.245946181,-0.039027778,1,0,0,0.7828,optionLeft,60,4160,2,32,0,32,0,1,,,,,,,,,,,,,,,,,,,,,,,,,,,,,,,,,,,,,,,
,,,,,,,,2023-08-06_08h26.56.799,HF_wild_card,2022.2.4,MacIntel,59.84082341,61588a883213fd00ccae7c21,64ce5acb97489d65b14ecc7a,64cf4b05db0b6e38c7050e47,,,,,,,ctch,resources/DG.BMP,resources/DY.BMP,Door4,-0.178797743,-0.025147569,1,0,0,0.8827,optionLeft,80,4240,2,33,0,33,0,1,,,,,,,,,,,,,,,,,,,,,,,,,,,,,,,,,,,,,,,
,,,,,,,,2023-08-06_08h26.56.799,HF_wild_card,2022.2.4,MacIntel,59.84082341,61588a883213fd00ccae7c21,64ce5acb97489d65b14ecc7a,64cf4b05db0b6e38c7050e47,,,,,,,sngl,resources/DG.BMP,resources/Empty.png,Door4,-0.23359375,-0.032105035,1,0,0,0.5989,optionLeft,60,4300,2,34,0,34,0,1,,,,,,,,,,,,,,,,,,,,,,,,,,,,,,,,,,,,,,,
,,,,,,,,2023-08-06_08h26.56.799,HF_wild_card,2022.2.4,MacIntel,59.84082341,61588a883213fd00ccae7c21,64ce5acb97489d65b14ecc7a,64cf4b05db0b6e38c7050e47,,,,,,,decisionTrl,resources/DG.BMP,resources/DB.BMP,Door4,-0.154618056,-0.013246528,1,0,0,0.8782,optionLeft,80,4380,2,35,0,35,0,1,,,,,,,,,,,,,,,,,,,,,,,,,,,,,,,,,,,,,,,
,,,,,,,,2023-08-06_08h26.56.799,HF_wild_card,2022.2.4,MacIntel,59.84082341,61588a883213fd00ccae7c21,64ce5acb97489d65b14ecc7a,64cf4b05db0b6e38c7050e47,,,,,,,decisionTrl,resources/DR.BMP,resources/DB.BMP,Door3,0.172521701,-0.011115451,1,0,0,1.3507,optionRight,70,4450,2,36,0,36,0,1,,,,,,,,,,,,,,,,,,,,,,,,,,,,,,,,,,,,,,,
,,,,,,,,2023-08-06_08h26.56.799,HF_wild_card,2022.2.4,MacIntel,59.84082341,61588a883213fd00ccae7c21,64ce5acb97489d65b14ecc7a,64cf4b05db0b6e38c7050e47,,,,,,,decisionTrl,resources/DBN.BMP,resources/DR.BMP,WildCard_NonEx,0.181822917,-0.040772569,1,0,0,1.2653,optionRight,55,4505,2,37,0,37,0,1,,,,,,,,,,,,,,,,,,,,,,,,,,,,,,,,,,,,,,,
,,,,,,,,2023-08-06_08h26.56.799,HF_wild_card,2022.2.4,MacIntel,59.84082341,61588a883213fd00ccae7c21,64ce5acb97489d65b14ecc7a,64cf4b05db0b6e38c7050e47,,,,,,,decisionTrl,resources/DBN.BMP,resources/DY.BMP,Door1,0.234435764,-0.013845486,1,0,0,0.9335,optionRight,30,4535,2,38,0,38,0,1,,,,,,,,,,,,,,,,,,,,,,,,,,,,,,,,,,,,,,,
,,,,,,,,2023-08-06_08h26.56.799,HF_wild_card,2022.2.4,MacIntel,59.84082341,61588a883213fd00ccae7c21,64ce5acb97489d65b14ecc7a,64cf4b05db0b6e38c7050e47,,,,,,,sngl,resources/DR.BMP,resources/Empty.png,WildCard_NonEx,-0.227803819,-0.04641059,1,0,0,0.6314,optionLeft,55,4590,2,39,0,39,0,1,,,,,,,,,,,,,,,,,,,,,,,,,,,,,,,,,,,,,,,
,,,,,,,,2023-08-06_08h26.56.799,HF_wild_card,2022.2.4,MacIntel,59.84082341,61588a883213fd00ccae7c21,64ce5acb97489d65b14ecc7a,64cf4b05db0b6e38c7050e47,,,,,,,ctch,resources/DBN.BMP,resources/DB.BMP,Door3,0.242165799,-0.026953125,1,0,0,0.8156,optionRight,70,4660,2,40,0,40,0,1,,,,,,,,,,,,,,,,,,,,,,,,,,,,,,,,,,,,,,,
,,,,,,,,2023-08-06_08h26.56.799,HF_wild_card,2022.2.4,MacIntel,59.84082341,61588a883213fd00ccae7c21,64ce5acb97489d65b14ecc7a,64cf4b05db0b6e38c7050e47,,,,,,,sngl,resources/DB.BMP,resources/Empty.png,Door3,-0.223736979,-0.012048611,1,0,0,0.5649,optionLeft,70,4730,2,41,0,41,0,1,,,,,,,,,,,,,,,,,,,,,,,,,,,,,,,,,,,,,,,
,,,,,,,,2023-08-06_08h26.56.799,HF_wild_card,2022.2.4,MacIntel,59.84082341,61588a883213fd00ccae7c21,64ce5acb97489d65b14ecc7a,64cf4b05db0b6e38c7050e47,,,,,,,decisionTrl,resources/DB.BMP,resources/DG.BMP,Door4,0.243927951,0.007921007,1,0,0,0.8336,optionRight,60,4790,2,42,0,42,0,1,,,,,,,,,,,,,,,,,,,,,,,,,,,,,,,,,,,,,,,
,,,,,,,,2023-08-06_08h26.56.799,HF_wild_card,2022.2.4,MacIntel,59.84082341,61588a883213fd00ccae7c21,64ce5acb97489d65b14ecc7a,64cf4b05db0b6e38c7050e47,,,,,,,ctch,resources/DY.BMP,resources/DG.BMP,Door4,0.124435764,0.001653646,1,0,0,0.7349,optionRight,80,4870,2,43,0,43,0,1,,,,,,,,,,,,,,,,,,,,,,,,,,,,,,,,,,,,,,,
,,,,,,,,2023-08-06_08h26.56.799,HF_wild_card,2022.2.4,MacIntel,59.84082341,61588a883213fd00ccae7c21,64ce5acb97489d65b14ecc7a,64cf4b05db0b6e38c7050e47,,,,,,,,,,,,,,,,,,,,,,,,,,1,0,1,0,1,,,,,,,,,,,,,,,,,,,,,,,,,,,,,,,,,,
,,,,,,,,2023-08-06_08h26.56.799,HF_wild_card,2022.2.4,MacIntel,59.84082341,61588a883213fd00ccae7c21,64ce5acb97489d65b14ecc7a,64cf4b05db0b6e38c7050e47,,,,,,,decisionTrl,resources/DG.BMP,resources/DB.BMP,Door4,-0.370234375,-0.075516493,1,0,0,1.1912,optionLeft,60,4930,3,0,0,0,0,1,,,,,,,,,,,,,,,,,,,,,,,,,,,,,,,,,,,,,,,
,,,,,,,,2023-08-06_08h26.56.799,HF_wild_card,2022.2.4,MacIntel,59.84082341,61588a883213fd00ccae7c21,64ce5acb97489d65b14ecc7a,64cf4b05db0b6e38c7050e47,,,,,,,decisionTrl,resources/DB.BMP,resources/DG.BMP,Door4,0.228710937,0.022000868,1,0,0,0.8668,optionRight,80,5010,3,1,0,1,0,1,,,,,,,,,,,,,,,,,,,,,,,,,,,,,,,,,,,,,,,
,,,,,,,,2023-08-06_08h26.56.799,HF_wild_card,2022.2.4,MacIntel,59.84082341,61588a883213fd00ccae7c21,64ce5acb97489d65b14ecc7a,64cf4b05db0b6e38c7050e47,,,,,,,decisionTrl,resources/DR.BMP,resources/DY.BMP,WildCard_NonEx,-0.207803819,-0.031488715,1,0,0,1.7014,optionLeft,45,5055,3,2,0,2,0,1,,,,,,,,,,,,,,,,,,,,,,,,,,,,,,,,,,,,,,,
,,,,,,,,2023-08-06_08h26.56.799,HF_wild_card,2022.2.4,MacIntel,59.84082341,61588a883213fd00ccae7c21,64ce5acb97489d65b14ecc7a,64cf4b05db0b6e38c7050e47,,,,,,,decisionTrl,resources/DY.BMP,resources/DBN.BMP,Door1,-0.18891059,-0.018741319,1,0,0,0.7481,optionLeft,30,5085,3,3,0,3,0,1,,,,,,,,,,,,,,,,,,,,,,,,,,,,,,,,,,,,,,,
,,,,,,,,2023-08-06_08h26.56.799,HF_wild_card,2022.2.4,MacIntel,59.84082341,61588a883213fd00ccae7c21,64ce5acb97489d65b14ecc7a,64cf4b05db0b6e38c7050e47,,,,,,,decisionTrl,resources/DR.BMP,resources/DG.BMP,Door4,0.222690972,0.025243056,1,0,0,0.9814,optionRight,60,5145,3,4,0,4,0,1,,,,,,,,,,,,,,,,,,,,,,,,,,,,,,,,,,,,,,,
,,,,,,,,2023-08-06_08h26.56.799,HF_wild_card,2022.2.4,MacIntel,59.84082341,61588a883213fd00ccae7c21,64ce5acb97489d65b14ecc7a,64cf4b05db0b6e38c7050e47,,,,,,,decisionTrl,resources/DR.BMP,resources/DB.BMP,Door3,0.183940972,-0.024969618,1,0,0,0.8993,optionRight,70,5215,3,5,0,5,0,1,,,,,,,,,,,,,,,,,,,,,,,,,,,,,,,,,,,,,,,
,,,,,,,,2023-08-06_08h26.56.799,HF_wild_card,2022.2.4,MacIntel,59.84082341,61588a883213fd00ccae7c21,64ce5acb97489d65b14ecc7a,64cf4b05db0b6e38c7050e47,,,,,,,decisionTrl,resources/DY.BMP,resources/DBN.BMP,Door1,-0.205946181,0.023272569,1,0,0,0.7826,optionLeft,30,5245,3,6,0,6,0,1,,,,,,,,,,,,,,,,,,,,,,,,,,,,,,,,,,,,,,,
,,,,,,,,2023-08-06_08h26.56.799,HF_wild_card,2022.2.4,MacIntel,59.84082341,61588a883213fd00ccae7c21,64ce5acb97489d65b14ecc7a,64cf4b05db0b6e38c7050e47,,,,,,,decisionTrl,resources/DY.BMP,resources/DR.BMP,WildCard_NonEx,0.236150174,0.03422309,1,0,0,1.3509,optionRight,45,5290,3,7,0,7,0,1,,,,,,,,,,,,,,,,,,,,,,,,,,,,,,,,,,,,,,,
,,,,,,,,2023-08-06_08h26.56.799,HF_wild_card,2022.2.4,MacIntel,59.84082341,61588a883213fd00ccae7c21,64ce5acb97489d65b14ecc7a,64cf4b05db0b6e38c7050e47,,,,,,,sngl,resources/Empty.png,resources/DG.BMP,Door4,0.246197917,0.000950521,1,0,0,0.6828,optionRight,60,5350,3,8,0,8,0,1,,,,,,,,,,,,,,,,,,,,,,,,,,,,,,,,,,,,,,,
,,,,,,,,2023-08-06_08h26.56.799,HF_wild_card,2022.2.4,MacIntel,59.84082341,61588a883213fd00ccae7c21,64ce5acb97489d65b14ecc7a,64cf4b05db0b6e38c7050e47,,,,,,,ctch,resources/DG.BMP,resources/DY.BMP,Door4,-0.214765625,-0.020920139,1,0,0,0.6819,optionLeft,60,5410,3,9,0,9,0,1,,,,,,,,,,,,,,,,,,,,,,,,,,,,,,,,,,,,,,,
,,,,,,,,2023-08-06_08h26.56.799,HF_wild_card,2022.2.4,MacIntel,59.84082341,61588a883213fd00ccae7c21,64ce5acb97489d65b14ecc7a,64cf4b05db0b6e38c7050e47,,,,,,,ctch,resources/DB.BMP,resources/DBN.BMP,Door3,-0.272478299,-0.040980903,1,0,0,0.6143,optionLeft,70,5480,3,10,0,10,0,1,,,,,,,,,,,,,,,,,,,,,,,,,,,,,,,,,,,,,,,
,,,,,,,,2023-08-06_08h26.56.799,HF_wild_card,2022.2.4,MacIntel,59.84082341,61588a883213fd00ccae7c21,64ce5acb97489d65b14ecc7a,64cf4b05db0b6e38c7050e47,,,,,,,ctch,resources/DY.BMP,resources/DG.BMP,Door4,0.228615451,0.020538194,1,0,0,1.4177,optionRight,80,5560,3,11,0,11,0,1,,,,,,,,,,,,,,,,,,,,,,,,,,,,,,,,,,,,,,,
,,,,,,,,2023-08-06_08h26.56.799,HF_wild_card,2022.2.4,MacIntel,59.84082341,61588a883213fd00ccae7c21,64ce5acb97489d65b14ecc7a,64cf4b05db0b6e38c7050e47,,,,,,,sngl,resources/Empty.png,resources/DBN.BMP,Door2,0.141354167,-0.012938368,1,0,0,1.1007,optionRight,20,5580,3,12,0,12,0,1,,,,,,,,,,,,,,,,,,,,,,,,,,,,,,,,,,,,,,,
,,,,,,,,2023-08-06_08h26.56.799,HF_wild_card,2022.2.4,MacIntel,59.84082341,61588a883213fd00ccae7c21,64ce5acb97489d65b14ecc7a,64cf4b05db0b6e38c7050e47,,,,,,,decisionTrl,resources/DB.BMP,resources/DG.BMP,Door4,0.215898438,0.01062066,1,0,0,1.9358,optionRight,60,5640,3,13,0,13,0,1,,,,,,,,,,,,,,,,,,,,,,,,,,,,,,,,,,,,,,,
,,,,,,,,2023-08-06_08h26.56.799,HF_wild_card,2022.2.4,MacIntel,59.84082341,61588a883213fd00ccae7c21,64ce5acb97489d65b14ecc7a,64cf4b05db0b6e38c7050e47,,,,,,,sngl,resources/DBN.BMP,resources/Empty.png,Door2,-0.203311632,-0.019492188,1,0,0,0.6003,optionLeft,40,5680,3,14,0,14,0,1,,,,,,,,,,,,,,,,,,,,,,,,,,,,,,,,,,,,,,,
,,,,,,,,2023-08-06_08h26.56.799,HF_wild_card,2022.2.4,MacIntel,59.84082341,61588a883213fd00ccae7c21,64ce5acb97489d65b14ecc7a,64cf4b05db0b6e38c7050e47,,,,,,,sngl,resources/DG.BMP,resources/Empty.png,Door4,-0.197460937,-0.005008681,1,0,0,0.7334,optionLeft,80,5760,3,15,0,15,0,1,,,,,,,,,,,,,,,,,,,,,,,,,,,,,,,,,,,,,,,
,,,,,,,,2023-08-06_08h26.56.799,HF_wild_card,2022.2.4,MacIntel,59.84082341,61588a883213fd00ccae7c21,64ce5acb97489d65b14ecc7a,64cf4b05db0b6e38c7050e47,,,,,,,sngl,resources/DR.BMP,resources/Empty.png,WildCard_NonEx,-0.199822049,-0.016310764,1,0,0,0.631,optionLeft,55,5815,3,16,0,16,0,1,,,,,,,,,,,,,,,,,,,,,,,,,,,,,,,,,,,,,,,
,,,,,,,,2023-08-06_08h26.56.799,HF_wild_card,2022.2.4,MacIntel,59.84082341,61588a883213fd00ccae7c21,64ce5acb97489d65b14ecc7a,64cf4b05db0b6e38c7050e47,,,,,,,sngl,resources/DB.BMP,resources/Empty.png,Door3,-0.13718316,0.002782118,1,0,0,0.5998,optionLeft,70,5885,3,17,0,17,0,1,,,,,,,,,,,,,,,,,,,,,,,,,,,,,,,,,,,,,,,
,,,,,,,,2023-08-06_08h26.56.799,HF_wild_card,2022.2.4,MacIntel,59.84082341,61588a883213fd00ccae7c21,64ce5acb97489d65b14ecc7a,64cf4b05db0b6e38c7050e47,,,,,,,ctch,resources/DB.BMP,resources/DBN.BMP,Door3,-0.232682292,-0.022209201,1,0,0,0.9319,optionLeft,70,5955,3,18,0,18,0,1,,,,,,,,,,,,,,,,,,,,,,,,,,,,,,,,,,,,,,,
,,,,,,,,2023-08-06_08h26.56.799,HF_wild_card,2022.2.4,MacIntel,59.84082341,61588a883213fd00ccae7c21,64ce5acb97489d65b14ecc7a,64cf4b05db0b6e38c7050e47,,,,,,,sngl,resources/Empty.png,resources/DB.BMP,Door3,0.268072917,0.002287326,1,0,0,0.732,optionRight,70,6025,3,19,0,19,0,1,,,,,,,,,,,,,,,,,,,,,,,,,,,,,,,,,,,,,,,
,,,,,,,,2023-08-06_08h26.56.799,HF_wild_card,2022.2.4,MacIntel,59.84082341,61588a883213fd00ccae7c21,64ce5acb97489d65b14ecc7a,64cf4b05db0b6e38c7050e47,,,,,,,sngl,resources/DY.BMP,resources/Empty.png,Door1,-0.178511285,0.009756944,1,0,0,0.7989,optionLeft,30,6055,3,20,0,20,0,1,,,,,,,,,,,,,,,,,,,,,,,,,,,,,,,,,,,,,,,
,,,,,,,,2023-08-06_08h26.56.799,HF_wild_card,2022.2.4,MacIntel,59.84082341,61588a883213fd00ccae7c21,64ce5acb97489d65b14ecc7a,64cf4b05db0b6e38c7050e47,,,,,,,decisionTrl,resources/DBN.BMP,resources/DY.BMP,Door1,0.222773438,0.014331597,1,0,0,0.7981,optionRight,30,6085,3,21,0,21,0,1,,,,,,,,,,,,,,,,,,,,,,,,,,,,,,,,,,,,,,,
,,,,,,,,2023-08-06_08h26.56.799,HF_wild_card,2022.2.4,MacIntel,59.84082341,61588a883213fd00ccae7c21,64ce5acb97489d65b14ecc7a,64cf4b05db0b6e38c7050e47,,,,,,,decisionTrl,resources/DB.BMP,resources/DR.BMP,Door3,-0.175737847,-0.006059028,1,0,0,0.8178,optionLeft,70,6155,3,22,0,22,0,1,,,,,,,,,,,,,,,,,,,,,,,,,,,,,,,,,,,,,,,
,,,,,,,,2023-08-06_08h26.56.799,HF_wild_card,2022.2.4,MacIntel,59.84082341,61588a883213fd00ccae7c21,64ce5acb97489d65b14ecc7a,64cf4b05db0b6e38c7050e47,,,,,,,sngl,resources/Empty.png,resources/DY.BMP,Door1,0.203888889,0.011918403,1,0,0,0.7678,optionRight,30,6185,3,23,0,23,0,1,,,,,,,,,,,,,,,,,,,,,,,,,,,,,,,,,,,,,,,
,,,,,,,,2023-08-06_08h26.56.799,HF_wild_card,2022.2.4,MacIntel,59.84082341,61588a883213fd00ccae7c21,64ce5acb97489d65b14ecc7a,64cf4b05db0b6e38c7050e47,,,,,,,sngl,resources/Empty.png,resources/DR.BMP,WildCard_NonEx,0.290299479,0.015108507,1,0,0,0.8175,optionRight,45,6230,3,24,0,24,0,1,,,,,,,,,,,,,,,,,,,,,,,,,,,,,,,,,,,,,,,
,,,,,,,,2023-08-06_08h26.56.799,HF_wild_card,2022.2.4,MacIntel,59.84082341,61588a883213fd00ccae7c21,64ce5acb97489d65b14ecc7a,64cf4b05db0b6e38c7050e47,,,,,,,decisionTrl,resources/DG.BMP,resources/DB.BMP,Door4,-0.182999132,-0.015833333,1,0,0,0.8131,optionLeft,60,6290,3,25,0,25,0,1,,,,,,,,,,,,,,,,,,,,,,,,,,,,,,,,,,,,,,,
,,,,,,,,2023-08-06_08h26.56.799,HF_wild_card,2022.2.4,MacIntel,59.84082341,61588a883213fd00ccae7c21,64ce5acb97489d65b14ecc7a,64cf4b05db0b6e38c7050e47,,,,,,,ctch,resources/DG.BMP,resources/DY.BMP,Door4,-0.196614583,-0.014197049,1,0,0,0.6155,optionLeft,60,6350,3,26,0,26,0,1,,,,,,,,,,,,,,,,,,,,,,,,,,,,,,,,,,,,,,,
,,,,,,,,2023-08-06_08h26.56.799,HF_wild_card,2022.2.4,MacIntel,59.84082341,61588a883213fd00ccae7c21,64ce5acb97489d65b14ecc7a,64cf4b05db0b6e38c7050e47,,,,,,,decisionTrl,resources/DBN.BMP,resources/DY.BMP,Door1,0.196011285,-0.011940104,1,0,0,0.8347,optionRight,30,6380,3,27,0,27,0,1,,,,,,,,,,,,,,,,,,,,,,,,,,,,,,,,,,,,,,,
,,,,,,,,2023-08-06_08h26.56.799,HF_wild_card,2022.2.4,MacIntel,59.84082341,61588a883213fd00ccae7c21,64ce5acb97489d65b14ecc7a,64cf4b05db0b6e38c7050e47,,,,,,,decisionTrl,resources/DB.BMP,resources/DG.BMP,Door4,0.160099826,-0.006102431,1,0,0,1.0002,optionRight,60,6440,3,28,0,28,0,1,,,,,,,,,,,,,,,,,,,,,,,,,,,,,,,,,,,,,,,
,,,,,,,,2023-08-06_08h26.56.799,HF_wild_card,2022.2.4,MacIntel,59.84082341,61588a883213fd00ccae7c21,64ce5acb97489d65b14ecc7a,64cf4b05db0b6e38c7050e47,,,,,,,decisionTrl,resources/DR.BMP,resources/DBN.BMP,WildCard_NonEx,-0.21984375,-0.013585069,1,0,0,0.6322,optionLeft,45,6485,3,29,0,29,0,1,,,,,,,,,,,,,,,,,,,,,,,,,,,,,,,,,,,,,,,
,,,,,,,,2023-08-06_08h26.56.799,HF_wild_card,2022.2.4,MacIntel,59.84082341,61588a883213fd00ccae7c21,64ce5acb97489d65b14ecc7a,64cf4b05db0b6e38c7050e47,,,,,,,decisionTrl,resources/DG.BMP,resources/DR.BMP,Door4,-0.206844618,-0.002426215,1,0,0,0.7997,optionLeft,60,6545,3,30,0,30,0,1,,,,,,,,,,,,,,,,,,,,,,,,,,,,,,,,,,,,,,,
,,,,,,,,2023-08-06_08h26.56.799,HF_wild_card,2022.2.4,MacIntel,59.84082341,61588a883213fd00ccae7c21,64ce5acb97489d65b14ecc7a,64cf4b05db0b6e38c7050e47,,,,,,,ctch,resources/DY.BMP,resources/DG.BMP,Door4,0.192912326,0.029518229,1,0,0,0.783,optionRight,80,6625,3,31,0,31,0,1,,,,,,,,,,,,,,,,,,,,,,,,,,,,,,,,,,,,,,,
,,,,,,,,2023-08-06_08h26.56.799,HF_wild_card,2022.2.4,MacIntel,59.84082341,61588a883213fd00ccae7c21,64ce5acb97489d65b14ecc7a,64cf4b05db0b6e38c7050e47,,,,,,,decisionTrl,resources/DY.BMP,resources/DBN.BMP,Door1,-0.177304688,0.004769965,1,0,0,0.8166,optionLeft,30,6655,3,32,0,32,0,1,,,,,,,,,,,,,,,,,,,,,,,,,,,,,,,,,,,,,,,
,,,,,,,,2023-08-06_08h26.56.799,HF_wild_card,2022.2.4,MacIntel,59.84082341,61588a883213fd00ccae7c21,64ce5acb97489d65b14ecc7a,64cf4b05db0b6e38c7050e47,,,,,,,decisionTrl,resources/DBN.BMP,resources/DY.BMP,Door1,0.161141493,0.014639757,1,0,0,0.8828,optionRight,30,6685,3,33,0,33,0,1,,,,,,,,,,,,,,,,,,,,,,,,,,,,,,,,,,,,,,,
,,,,,,,,2023-08-06_08h26.56.799,HF_wild_card,2022.2.4,MacIntel,59.84082341,61588a883213fd00ccae7c21,64ce5acb97489d65b14ecc7a,64cf4b05db0b6e38c7050e47,,,,,,,decisionTrl,resources/DY.BMP,resources/DBN.BMP,Door1,-0.168841146,-0.030824653,1,0,0,0.5976,optionLeft,30,6715,3,34,0,34,0,1,,,,,,,,,,,,,,,,,,,,,,,,,,,,,,,,,,,,,,,
,,,,,,,,2023-08-06_08h26.56.799,HF_wild_card,2022.2.4,MacIntel,59.84082341,61588a883213fd00ccae7c21,64ce5acb97489d65b14ecc7a,64cf4b05db0b6e38c7050e47,,,,,,,decisionTrl,resources/DG.BMP,resources/DB.BMP,Door4,-0.129769965,0.030169271,1,0,0,1.0313,optionLeft,60,6775,3,35,0,35,0,1,,,,,,,,,,,,,,,,,,,,,,,,,,,,,,,,,,,,,,,
,,,,,,,,2023-08-06_08h26.56.799,HF_wild_card,2022.2.4,MacIntel,59.84082341,61588a883213fd00ccae7c21,64ce5acb97489d65b14ecc7a,64cf4b05db0b6e38c7050e47,,,,,,,decisionTrl,resources/DG.BMP,resources/DB.BMP,Door4,-0.222617188,-0.01608941,1,0,0,0.7654,optionLeft,80,6855,3,36,0,36,0,1,,,,,,,,,,,,,,,,,,,,,,,,,,,,,,,,,,,,,,,
,,,,,,,,2023-08-06_08h26.56.799,HF_wild_card,2022.2.4,MacIntel,59.84082341,61588a883213fd00ccae7c21,64ce5acb97489d65b14ecc7a,64cf4b05db0b6e38c7050e47,,,,,,,decisionTrl,resources/DBN.BMP,resources/DR.BMP,WildCard_NonEx,0.194466146,-0.000377604,1,0,0,0.6973,optionRight,45,6900,3,37,0,37,0,1,,,,,,,,,,,,,,,,,,,,,,,,,,,,,,,,,,,,,,,
,,,,,,,,2023-08-06_08h26.56.799,HF_wild_card,2022.2.4,MacIntel,59.84082341,61588a883213fd00ccae7c21,64ce5acb97489d65b14ecc7a,64cf4b05db0b6e38c7050e47,,,,,,,decisionTrl,resources/DBN.BMP,resources/DY.BMP,Door1,0.174578993,0.00016059,1,0,0,0.7657,optionRight,30,6930,3,38,0,38,0,1,,,,,,,,,,,,,,,,,,,,,,,,,,,,,,,,,,,,,,,
,,,,,,,,2023-08-06_08h26.56.799,HF_wild_card,2022.2.4,MacIntel,59.84082341,61588a883213fd00ccae7c21,64ce5acb97489d65b14ecc7a,64cf4b05db0b6e38c7050e47,,,,,,,ctch,resources/DBN.BMP,resources/DB.BMP,Door3,0.201688368,0.026671007,1,0,0,0.8125,optionRight,70,7000,3,39,0,39,0,1,,,,,,,,,,,,,,,,,,,,,,,,,,,,,,,,,,,,,,,
,,,,,,,,2023-08-06_08h26.56.799,HF_wild_card,2022.2.4,MacIntel,59.84082341,61588a883213fd00ccae7c21,64ce5acb97489d65b14ecc7a,64cf4b05db0b6e38c7050e47,,,,,,,decisionTrl,resources/DB.BMP,resources/DG.BMP,Door4,0.250407986,0.023650174,1,0,0,0.9836,optionRight,80,7080,3,40,0,40,0,1,,,,,,,,,,,,,,,,,,,,,,,,,,,,,,,,,,,,,,,
,,,,,,,,2023-08-06_08h26.56.799,HF_wild_card,2022.2.4,MacIntel,59.84082341,61588a883213fd00ccae7c21,64ce5acb97489d65b14ecc7a,64cf4b05db0b6e38c7050e47,,,,,,,ctch,resources/DBN.BMP,resources/DB.BMP,Door3,0.202990451,-0.003307292,1,0,0,0.7476,optionRight,70,7150,3,41,0,41,0,1,,,,,,,,,,,,,,,,,,,,,,,,,,,,,,,,,,,,,,,
,,,,,,,,2023-08-06_08h26.56.799,HF_wild_card,2022.2.4,MacIntel,59.84082341,61588a883213fd00ccae7c21,64ce5acb97489d65b14ecc7a,64cf4b05db0b6e38c7050e47,,,,,,,sngl,resources/DR.BMP,resources/Empty.png,WildCard_NonEx,-0.196163194,-0.022378472,1,0,0,0.7146,optionLeft,45,7195,3,42,0,42,0,1,,,,,,,,,,,,,,,,,,,,,,,,,,,,,,,,,,,,,,,
,,,,,,,,2023-08-06_08h26.56.799,HF_wild_card,2022.2.4,MacIntel,59.84082341,61588a883213fd00ccae7c21,64ce5acb97489d65b14ecc7a,64cf4b05db0b6e38c7050e47,,,,,,,sngl,resources/Empty.png,resources/DR.BMP,WildCard_NonEx,0.1946875,0.007300347,1,0,0,0.5488,optionRight,55,7250,3,43,0,43,0,1,,,,,,,,,,,,,,,,,,,,,,,,,,,,,,,,,,,,,,,
,,,,,,,,2023-08-06_08h26.56.799,HF_wild_card,2022.2.4,MacIntel,59.84082341,61588a883213fd00ccae7c21,64ce5acb97489d65b14ecc7a,64cf4b05db0b6e38c7050e47,,,,,,,,,,,,,,,,,,,,,,,,,,2,0,2,0,1,,,,,,,,,,,,,,,,,,,,,,,,,,,,,,,,,,
,,,,,,,,2023-08-06_08h26.56.799,HF_wild_card,2022.2.4,MacIntel,59.84082341,61588a883213fd00ccae7c21,64ce5acb97489d65b14ecc7a,64cf4b05db0b6e38c7050e47,,,,,,,sngl,resources/Empty.png,resources/DG.BMP,Door4,0.191644965,-0.054019097,1,0,0,0.7801,optionRight,80,7330,4,0,0,0,0,1,,,,,,,,,,,,,,,,,,,,,,,,,,,,,,,,,,,,,,,
,,,,,,,,2023-08-06_08h26.56.799,HF_wild_card,2022.2.4,MacIntel,59.84082341,61588a883213fd00ccae7c21,64ce5acb97489d65b14ecc7a,64cf4b05db0b6e38c7050e47,,,,,,,decisionTrl,resources/DG.BMP,resources/DB.BMP,Door4,-0.390759549,0.018133681,1,0,0,1.0306,optionLeft,80,7410,4,1,0,1,0,1,,,,,,,,,,,,,,,,,,,,,,,,,,,,,,,,,,,,,,,
,,,,,,,,2023-08-06_08h26.56.799,HF_wild_card,2022.2.4,MacIntel,59.84082341,61588a883213fd00ccae7c21,64ce5acb97489d65b14ecc7a,64cf4b05db0b6e38c7050e47,,,,,,,decisionTrl,resources/DP.BMP,resources/DY.BMP,WildCard_Ex,-0.229800347,-0.04640625,1,0,0,2.9717,optionLeft,95,7505,4,2,0,2,0,1,,,,,,,,,,,,,,,,,,,,,,,,,,,,,,,,,,,,,,,
,,,,,,,,2023-08-06_08h26.56.799,HF_wild_card,2022.2.4,MacIntel,59.84082341,61588a883213fd00ccae7c21,64ce5acb97489d65b14ecc7a,64cf4b05db0b6e38c7050e47,,,,,,,ctch,resources/DY.BMP,resources/DG.BMP,Door4,0.263394097,-9.11458E-05,1,0,0,1.6174,optionRight,60,7565,4,3,0,3,0,1,,,,,,,,,,,,,,,,,,,,,,,,,,,,,,,,,,,,,,,
,,,,,,,,2023-08-06_08h26.56.799,HF_wild_card,2022.2.4,MacIntel,59.84082341,61588a883213fd00ccae7c21,64ce5acb97489d65b14ecc7a,64cf4b05db0b6e38c7050e47,,,,,,,ctch,resources/DG.BMP,resources/DY.BMP,Door4,-0.197851562,-0.004778646,1,0,0,1.683,optionLeft,60,7625,4,4,0,4,0,1,,,,,,,,,,,,,,,,,,,,,,,,,,,,,,,,,,,,,,,
,,,,,,,,2023-08-06_08h26.56.799,HF_wild_card,2022.2.4,MacIntel,59.84082341,61588a883213fd00ccae7c21,64ce5acb97489d65b14ecc7a,64cf4b05db0b6e38c7050e47,,,,,,,decisionTrl,resources/DP.BMP,resources/DBN.BMP,WildCard_Ex,-0.190707465,-0.006853299,1,0,0,0.7181,optionLeft,5,7630,4,5,0,5,0,1,,,,,,,,,,,,,,,,,,,,,,,,,,,,,,,,,,,,,,,
,,,,,,,,2023-08-06_08h26.56.799,HF_wild_card,2022.2.4,MacIntel,59.84082341,61588a883213fd00ccae7c21,64ce5acb97489d65b14ecc7a,64cf4b05db0b6e38c7050e47,,,,,,,sngl,resources/Empty.png,resources/DP.BMP,WildCard_Ex,0.257890625,0.010360243,1,0,0,0.7309,optionRight,95,7725,4,6,0,6,0,1,,,,,,,,,,,,,,,,,,,,,,,,,,,,,,,,,,,,,,,
,,,,,,,,2023-08-06_08h26.56.799,HF_wild_card,2022.2.4,MacIntel,59.84082341,61588a883213fd00ccae7c21,64ce5acb97489d65b14ecc7a,64cf4b05db0b6e38c7050e47,,,,,,,decisionTrl,resources/DB.BMP,resources/DG.BMP,Door4,0.214075521,-0.049296875,1,0,0,0.9669,optionRight,60,7785,4,7,0,7,0,1,,,,,,,,,,,,,,,,,,,,,,,,,,,,,,,,,,,,,,,
,,,,,,,,2023-08-06_08h26.56.799,HF_wild_card,2022.2.4,MacIntel,59.84082341,61588a883213fd00ccae7c21,64ce5acb97489d65b14ecc7a,64cf4b05db0b6e38c7050e47,,,,,,,sngl,resources/DG.BMP,resources/Empty.png,Door4,-0.185707465,-0.012161458,1,0,0,0.6306,optionLeft,60,7845,4,8,0,8,0,1,,,,,,,,,,,,,,,,,,,,,,,,,,,,,,,,,,,,,,,
,,,,,,,,2023-08-06_08h26.56.799,HF_wild_card,2022.2.4,MacIntel,59.84082341,61588a883213fd00ccae7c21,64ce5acb97489d65b14ecc7a,64cf4b05db0b6e38c7050e47,,,,,,,sngl,resources/Empty.png,resources/DP.BMP,WildCard_Ex,0.2015625,0.002730035,1,0,0,0.6482,optionRight,5,7850,4,9,0,9,0,1,,,,,,,,,,,,,,,,,,,,,,,,,,,,,,,,,,,,,,,
,,,,,,,,2023-08-06_08h26.56.799,HF_wild_card,2022.2.4,MacIntel,59.84082341,61588a883213fd00ccae7c21,64ce5acb97489d65b14ecc7a,64cf4b05db0b6e38c7050e47,,,,,,,sngl,resources/Empty.png,resources/DY.BMP,Door1,0.152100694,0.010698785,1,0,0,1.3346,optionRight,30,7880,4,10,0,10,0,1,,,,,,,,,,,,,,,,,,,,,,,,,,,,,,,,,,,,,,,
,,,,,,,,2023-08-06_08h26.56.799,HF_wild_card,2022.2.4,MacIntel,59.84082341,61588a883213fd00ccae7c21,64ce5acb97489d65b14ecc7a,64cf4b05db0b6e38c7050e47,,,,,,,ctch,resources/DG.BMP,resources/DY.BMP,Door4,-0.15343316,0.002625868,1,0,0,1.1831,optionLeft,80,7960,4,11,0,11,0,1,,,,,,,,,,,,,,,,,,,,,,,,,,,,,,,,,,,,,,,
,,,,,,,,2023-08-06_08h26.56.799,HF_wild_card,2022.2.4,MacIntel,59.84082341,61588a883213fd00ccae7c21,64ce5acb97489d65b14ecc7a,64cf4b05db0b6e38c7050e47,,,,,,,decisionTrl,resources/DB.BMP,resources/DG.BMP,Door4,0.230985243,0.018893229,1,0,0,2.1216,optionRight,80,8040,4,12,0,12,0,1,,,,,,,,,,,,,,,,,,,,,,,,,,,,,,,,,,,,,,,
,,,,,,,,2023-08-06_08h26.56.799,HF_wild_card,2022.2.4,MacIntel,59.84082341,61588a883213fd00ccae7c21,64ce5acb97489d65b14ecc7a,64cf4b05db0b6e38c7050e47,,,,,,,sngl,resources/Empty.png,resources/DB.BMP,Door3,0.254704861,-0.006306424,1,0,0,0.7136,optionRight,70,8110,4,13,0,13,0,1,,,,,,,,,,,,,,,,,,,,,,,,,,,,,,,,,,,,,,,
,,,,,,,,2023-08-06_08h26.56.799,HF_wild_card,2022.2.4,MacIntel,59.84082341,61588a883213fd00ccae7c21,64ce5acb97489d65b14ecc7a,64cf4b05db0b6e38c7050e47,,,,,,,decisionTrl,resources/DBN.BMP,resources/DP.BMP,WildCard_Ex,0.174748264,-0.004088542,1,0,0,1.134,optionRight,95,8205,4,14,0,14,0,1,,,,,,,,,,,,,,,,,,,,,,,,,,,,,,,,,,,,,,,
,,,,,,,,2023-08-06_08h26.56.799,HF_wild_card,2022.2.4,MacIntel,59.84082341,61588a883213fd00ccae7c21,64ce5acb97489d65b14ecc7a,64cf4b05db0b6e38c7050e47,,,,,,,ctch,resources/DB.BMP,resources/DBN.BMP,Door3,-0.164618056,-0.041467014,1,0,0,0.8343,optionLeft,70,8275,4,15,0,15,0,1,,,,,,,,,,,,,,,,,,,,,,,,,,,,,,,,,,,,,,,
,,,,,,,,2023-08-06_08h26.56.799,HF_wild_card,2022.2.4,MacIntel,59.84082341,61588a883213fd00ccae7c21,64ce5acb97489d65b14ecc7a,64cf4b05db0b6e38c7050e47,,,,,,,decisionTrl,resources/DBN.BMP,resources/DY.BMP,Door1,0.186575521,-0.019019097,1,0,0,0.8158,optionRight,30,8305,4,16,0,16,0,1,,,,,,,,,,,,,,,,,,,,,,,,,,,,,,,,,,,,,,,
,,,,,,,,2023-08-06_08h26.56.799,HF_wild_card,2022.2.4,MacIntel,59.84082341,61588a883213fd00ccae7c21,64ce5acb97489d65b14ecc7a,64cf4b05db0b6e38c7050e47,,,,,,,decisionTrl,resources/DG.BMP,resources/DB.BMP,Door4,-0.173546007,-0.009960937,1,0,0,0.9645,optionLeft,60,8365,4,17,0,17,0,1,,,,,,,,,,,,,,,,,,,,,,,,,,,,,,,,,,,,,,,
,,,,,,,,2023-08-06_08h26.56.799,HF_wild_card,2022.2.4,MacIntel,59.84082341,61588a883213fd00ccae7c21,64ce5acb97489d65b14ecc7a,64cf4b05db0b6e38c7050e47,,,,,,,decisionTrl,resources/DBN.BMP,resources/DY.BMP,Door1,0.160043403,-0.04719184,1,0,0,0.9843,optionRight,30,8395,4,18,0,18,0,1,,,,,,,,,,,,,,,,,,,,,,,,,,,,,,,,,,,,,,,
,,,,,,,,2023-08-06_08h26.56.799,HF_wild_card,2022.2.4,MacIntel,59.84082341,61588a883213fd00ccae7c21,64ce5acb97489d65b14ecc7a,64cf4b05db0b6e38c7050e47,,,,,,,ctch,resources/DBN.BMP,resources/DB.BMP,Door3,0.154179687,0.00375,1,0,0,0.7474,optionRight,70,8465,4,19,0,19,0,1,,,,,,,,,,,,,,,,,,,,,,,,,,,,,,,,,,,,,,,
,,,,,,,,2023-08-06_08h26.56.799,HF_wild_card,2022.2.4,MacIntel,59.84082341,61588a883213fd00ccae7c21,64ce5acb97489d65b14ecc7a,64cf4b05db0b6e38c7050e47,,,,,,,decisionTrl,resources/DY.BMP,resources/DBN.BMP,Door1,-0.171215278,-0.020486111,1,0,0,0.6986,optionLeft,30,8495,4,20,0,20,0,1,,,,,,,,,,,,,,,,,,,,,,,,,,,,,,,,,,,,,,,
,,,,,,,,2023-08-06_08h26.56.799,HF_wild_card,2022.2.4,MacIntel,59.84082341,61588a883213fd00ccae7c21,64ce5acb97489d65b14ecc7a,64cf4b05db0b6e38c7050e47,,,,,,,decisionTrl,resources/DG.BMP,resources/DB.BMP,Door4,-0.192925347,-0.021388889,1,0,0,1.1838,optionLeft,60,8555,4,21,0,21,0,1,,,,,,,,,,,,,,,,,,,,,,,,,,,,,,,,,,,,,,,
,,,,,,,,2023-08-06_08h26.56.799,HF_wild_card,2022.2.4,MacIntel,59.84082341,61588a883213fd00ccae7c21,64ce5acb97489d65b14ecc7a,64cf4b05db0b6e38c7050e47,,,,,,,sngl,resources/DP.BMP,resources/Empty.png,WildCard_Ex,-0.151571181,-0.016006944,1,0,0,0.7316,optionLeft,95,8650,4,22,0,22,0,1,,,,,,,,,,,,,,,,,,,,,,,,,,,,,,,,,,,,,,,
,,,,,,,,2023-08-06_08h26.56.799,HF_wild_card,2022.2.4,MacIntel,59.84082341,61588a883213fd00ccae7c21,64ce5acb97489d65b14ecc7a,64cf4b05db0b6e38c7050e47,,,,,,,decisionTrl,resources/DY.BMP,resources/DBN.BMP,Door1,-0.19922309,-0.015290799,1,0,0,1.2672,optionLeft,30,8680,4,23,0,23,0,1,,,,,,,,,,,,,,,,,,,,,,,,,,,,,,,,,,,,,,,
,,,,,,,,2023-08-06_08h26.56.799,HF_wild_card,2022.2.4,MacIntel,59.84082341,61588a883213fd00ccae7c21,64ce5acb97489d65b14ecc7a,64cf4b05db0b6e38c7050e47,,,,,,,decisionTrl,resources/DG.BMP,resources/DB.BMP,Door4,-0.237092014,-0.008194444,1,0,0,0.933,optionLeft,60,8740,4,24,0,24,0,1,,,,,,,,,,,,,,,,,,,,,,,,,,,,,,,,,,,,,,,
,,,,,,,,2023-08-06_08h26.56.799,HF_wild_card,2022.2.4,MacIntel,59.84082341,61588a883213fd00ccae7c21,64ce5acb97489d65b14ecc7a,64cf4b05db0b6e38c7050e47,,,,,,,decisionTrl,resources/DB.BMP,resources/DG.BMP,Door4,0.230494792,-0.007539062,1,0,0,0.9488,optionRight,60,8800,4,25,0,25,0,1,,,,,,,,,,,,,,,,,,,,,,,,,,,,,,,,,,,,,,,
,,,,,,,,2023-08-06_08h26.56.799,HF_wild_card,2022.2.4,MacIntel,59.84082341,61588a883213fd00ccae7c21,64ce5acb97489d65b14ecc7a,64cf4b05db0b6e38c7050e47,,,,,,,decisionTrl,resources/DP.BMP,resources/DG.BMP,WildCard_Ex,-0.128363715,0.00077691,1,0,0,1.6148,optionLeft,5,8805,4,26,0,26,0,1,,,,,,,,,,,,,,,,,,,,,,,,,,,,,,,,,,,,,,,
,,,,,,,,2023-08-06_08h26.56.799,HF_wild_card,2022.2.4,MacIntel,59.84082341,61588a883213fd00ccae7c21,64ce5acb97489d65b14ecc7a,64cf4b05db0b6e38c7050e47,,,,,,,ctch,resources/DY.BMP,resources/DG.BMP,Door4,0.225920139,0.031861979,1,0,0,0.9813,optionRight,60,8865,4,27,0,27,0,1,,,,,,,,,,,,,,,,,,,,,,,,,,,,,,,,,,,,,,,
,,,,,,,,2023-08-06_08h26.56.799,HF_wild_card,2022.2.4,MacIntel,59.84082341,61588a883213fd00ccae7c21,64ce5acb97489d65b14ecc7a,64cf4b05db0b6e38c7050e47,,,,,,,decisionTrl,resources/DB.BMP,resources/DG.BMP,Door3,-0.178454861,0.020533854,1,0,0,1.1183,optionLeft,70,8935,4,28,0,28,0,1,,,,,,,,,,,,,,,,,,,,,,,,,,,,,,,,,,,,,,,
,,,,,,,,2023-08-06_08h26.56.799,HF_wild_card,2022.2.4,MacIntel,59.84082341,61588a883213fd00ccae7c21,64ce5acb97489d65b14ecc7a,64cf4b05db0b6e38c7050e47,,,,,,,decisionTrl,resources/DBN.BMP,resources/DY.BMP,Door1,0.183242187,-0.001323785,1,0,0,1.0631,optionRight,30,8965,4,29,0,29,0,1,,,,,,,,,,,,,,,,,,,,,,,,,,,,,,,,,,,,,,,
,,,,,,,,2023-08-06_08h26.56.799,HF_wild_card,2022.2.4,MacIntel,59.84082341,61588a883213fd00ccae7c21,64ce5acb97489d65b14ecc7a,64cf4b05db0b6e38c7050e47,,,,,,,decisionTrl,resources/DBN.BMP,resources/DY.BMP,Door1,0.207352431,-0.001644965,1,0,0,0.7815,optionRight,30,8995,4,30,0,30,0,1,,,,,,,,,,,,,,,,,,,,,,,,,,,,,,,,,,,,,,,
,,,,,,,,2023-08-06_08h26.56.799,HF_wild_card,2022.2.4,MacIntel,59.84082341,61588a883213fd00ccae7c21,64ce5acb97489d65b14ecc7a,64cf4b05db0b6e38c7050e47,,,,,,,sngl,resources/Empty.png,resources/DBN.BMP,Door2,0.176345486,0.020403646,1,0,0,0.8479,optionRight,40,9035,4,31,0,31,0,1,,,,,,,,,,,,,,,,,,,,,,,,,,,,,,,,,,,,,,,
,,,,,,,,2023-08-06_08h26.56.799,HF_wild_card,2022.2.4,MacIntel,59.84082341,61588a883213fd00ccae7c21,64ce5acb97489d65b14ecc7a,64cf4b05db0b6e38c7050e47,,,,,,,sngl,resources/DP.BMP,resources/Empty.png,WildCard_Ex,-0.177352431,-0.003832465,1,0,0,0.6641,optionLeft,5,9040,4,32,0,32,0,1,,,,,,,,,,,,,,,,,,,,,,,,,,,,,,,,,,,,,,,
,,,,,,,,2023-08-06_08h26.56.799,HF_wild_card,2022.2.4,MacIntel,59.84082341,61588a883213fd00ccae7c21,64ce5acb97489d65b14ecc7a,64cf4b05db0b6e38c7050e47,,,,,,,decisionTrl,resources/DY.BMP,resources/DBN.BMP,Door1,-0.151297743,-0.007243924,1,0,0,0.8469,optionLeft,30,9070,4,33,0,33,0,1,,,,,,,,,,,,,,,,,,,,,,,,,,,,,,,,,,,,,,,
,,,,,,,,2023-08-06_08h26.56.799,HF_wild_card,2022.2.4,MacIntel,59.84082341,61588a883213fd00ccae7c21,64ce5acb97489d65b14ecc7a,64cf4b05db0b6e38c7050e47,,,,,,,decisionTrl,resources/DG.BMP,resources/DP.BMP,WildCard_Ex,0.141931424,0.004309896,1,0,0,1.2486,optionRight,95,9165,4,34,0,34,0,1,,,,,,,,,,,,,,,,,,,,,,,,,,,,,,,,,,,,,,,
,,,,,,,,2023-08-06_08h26.56.799,HF_wild_card,2022.2.4,MacIntel,59.84082341,61588a883213fd00ccae7c21,64ce5acb97489d65b14ecc7a,64cf4b05db0b6e38c7050e47,,,,,,,ctch,resources/DB.BMP,resources/DBN.BMP,Door3,-0.09499566,-0.01922309,1,0,0,1.366,optionLeft,70,9235,4,35,0,35,0,1,,,,,,,,,,,,,,,,,,,,,,,,,,,,,,,,,,,,,,,
,,,,,,,,2023-08-06_08h26.56.799,HF_wild_card,2022.2.4,MacIntel,59.84082341,61588a883213fd00ccae7c21,64ce5acb97489d65b14ecc7a,64cf4b05db0b6e38c7050e47,,,,,,,sngl,resources/DY.BMP,resources/Empty.png,Door1,-0.153537326,0.004231771,1,0,0,0.7638,optionLeft,30,9265,4,36,0,36,0,1,,,,,,,,,,,,,,,,,,,,,,,,,,,,,,,,,,,,,,,
,,,,,,,,2023-08-06_08h26.56.799,HF_wild_card,2022.2.4,MacIntel,59.84082341,61588a883213fd00ccae7c21,64ce5acb97489d65b14ecc7a,64cf4b05db0b6e38c7050e47,,,,,,,sngl,resources/DBN.BMP,resources/Empty.png,Door2,-0.190052083,0.027148438,1,0,0,1.0803,optionLeft,20,9285,4,37,0,37,0,1,,,,,,,,,,,,,,,,,,,,,,,,,,,,,,,,,,,,,,,
,,,,,,,,2023-08-06_08h26.56.799,HF_wild_card,2022.2.4,MacIntel,59.84082341,61588a883213fd00ccae7c21,64ce5acb97489d65b14ecc7a,64cf4b05db0b6e38c7050e47,,,,,,,decisionTrl,resources/DB.BMP,resources/DP.BMP,WildCard_Ex,0.249904514,0.016692708,1,0,0,0.9648,optionRight,95,9380,4,38,0,38,0,1,,,,,,,,,,,,,,,,,,,,,,,,,,,,,,,,,,,,,,,
,,,,,,,,2023-08-06_08h26.56.799,HF_wild_card,2022.2.4,MacIntel,59.84082341,61588a883213fd00ccae7c21,64ce5acb97489d65b14ecc7a,64cf4b05db0b6e38c7050e47,,,,,,,decisionTrl,resources/DY.BMP,resources/DP.BMP,WildCard_Ex,0.17859375,0.011276042,1,0,0,0.6972,optionRight,5,9385,4,39,0,39,0,1,,,,,,,,,,,,,,,,,,,,,,,,,,,,,,,,,,,,,,,
,,,,,,,,2023-08-06_08h26.56.799,HF_wild_card,2022.2.4,MacIntel,59.84082341,61588a883213fd00ccae7c21,64ce5acb97489d65b14ecc7a,64cf4b05db0b6e38c7050e47,,,,,,,sngl,resources/DB.BMP,resources/Empty.png,Door3,-0.186484375,-0.004861111,1,0,0,0.6226,optionLeft,70,9455,4,40,0,40,0,1,,,,,,,,,,,,,,,,,,,,,,,,,,,,,,,,,,,,,,,
,,,,,,,,2023-08-06_08h26.56.799,HF_wild_card,2022.2.4,MacIntel,59.84082341,61588a883213fd00ccae7c21,64ce5acb97489d65b14ecc7a,64cf4b05db0b6e38c7050e47,,,,,,,ctch,resources/DBN.BMP,resources/DB.BMP,Door3,0.227443576,0.033424479,1,0,0,0.7309,optionRight,70,9525,4,41,0,41,0,1,,,,,,,,,,,,,,,,,,,,,,,,,,,,,,,,,,,,,,,
,,,,,,,,2023-08-06_08h26.56.799,HF_wild_card,2022.2.4,MacIntel,59.84082341,61588a883213fd00ccae7c21,64ce5acb97489d65b14ecc7a,64cf4b05db0b6e38c7050e47,,,,,,,decisionTrl,resources/DP.BMP,resources/DB.BMP,WildCard_Ex,-0.158615451,-0.020811632,1,0,0,1.0974,optionLeft,5,9530,4,42,0,42,0,1,,,,,,,,,,,,,,,,,,,,,,,,,,,,,,,,,,,,,,,
,,,,,,,,2023-08-06_08h26.56.799,HF_wild_card,2022.2.4,MacIntel,59.84082341,61588a883213fd00ccae7c21,64ce5acb97489d65b14ecc7a,64cf4b05db0b6e38c7050e47,,,,,,,decisionTrl,resources/DY.BMP,resources/DBN.BMP,Door1,-0.203914931,-0.01265191,1,0,0,0.7479,optionLeft,30,9560,4,43,0,43,0,1,,,,,,,,,,,,,,,,,,,,,,,,,,,,,,,,,,,,,,,
,,,,,,,,2023-08-06_08h26.56.799,HF_wild_card,2022.2.4,MacIntel,59.84082341,61588a883213fd00ccae7c21,64ce5acb97489d65b14ecc7a,64cf4b05db0b6e38c7050e47,,,,,,,,,,,,,,,,,,,,,,,,,,3,0,3,0,1,,,,,,,,,,,,,,,,,,,,,,,,,,,,,,,,,,
,,,,,,,,2023-08-06_08h26.56.799,HF_wild_card,2022.2.4,MacIntel,59.84082341,61588a883213fd00ccae7c21,64ce5acb97489d65b14ecc7a,64cf4b05db0b6e38c7050e47,,,,,,,decisionTrl,resources/DP.BMP,resources/DG.BMP,WildCard_Ex,-0.221657986,-0.112083333,1,0,0,1.4491,optionLeft,95,9655,5,0,0,0,0,1,,,,,,,,,,,,,,,,,,,,,,,,,,,,,,,,,,,,,,,
,,,,,,,,2023-08-06_08h26.56.799,HF_wild_card,2022.2.4,MacIntel,59.84082341,61588a883213fd00ccae7c21,64ce5acb97489d65b14ecc7a,64cf4b05db0b6e38c7050e47,,,,,,,ctch,resources/DB.BMP,resources/DBN.BMP,Door3,-0.207764757,-0.004019097,1,0,0,0.7305,optionLeft,70,9725,5,1,0,1,0,1,,,,,,,,,,,,,,,,,,,,,,,,,,,,,,,,,,,,,,,
,,,,,,,,2023-08-06_08h26.56.799,HF_wild_card,2022.2.4,MacIntel,59.84082341,61588a883213fd00ccae7c21,64ce5acb97489d65b14ecc7a,64cf4b05db0b6e38c7050e47,,,,,,,decisionTrl,resources/DBN.BMP,resources/DP.BMP,WildCard_Ex,0.222469618,0.011041667,1,0,0,0.7459,optionRight,95,9820,5,2,0,2,0,1,,,,,,,,,,,,,,,,,,,,,,,,,,,,,,,,,,,,,,,
,,,,,,,,2023-08-06_08h26.56.799,HF_wild_card,2022.2.4,MacIntel,59.84082341,61588a883213fd00ccae7c21,64ce5acb97489d65b14ecc7a,64cf4b05db0b6e38c7050e47,,,,,,,sngl,resources/Empty.png,resources/DBN.BMP,Door2,0.16562934,-0.011388889,1,0,0,0.7134,optionRight,20,9840,5,3,0,3,0,1,,,,,,,,,,,,,,,,,,,,,,,,,,,,,,,,,,,,,,,
,,,,,,,,2023-08-06_08h26.56.799,HF_wild_card,2022.2.4,MacIntel,59.84082341,61588a883213fd00ccae7c21,64ce5acb97489d65b14ecc7a,64cf4b05db0b6e38c7050e47,,,,,,,decisionTrl,resources/DG.BMP,resources/DP.BMP,WildCard_Ex,0.166740451,-0.026480035,1,0,0,1.5503,optionRight,95,9935,5,4,0,4,0,1,,,,,,,,,,,,,,,,,,,,,,,,,,,,,,,,,,,,,,,
,,,,,,,,2023-08-06_08h26.56.799,HF_wild_card,2022.2.4,MacIntel,59.84082341,61588a883213fd00ccae7c21,64ce5acb97489d65b14ecc7a,64cf4b05db0b6e38c7050e47,,,,,,,decisionTrl,resources/DBN.BMP,resources/DY.BMP,Door1,0.181814236,-0.005230035,1,0,0,0.7483,optionRight,30,9965,5,5,0,5,0,1,,,,,,,,,,,,,,,,,,,,,,,,,,,,,,,,,,,,,,,
,,,,,,,,2023-08-06_08h26.56.799,HF_wild_card,2022.2.4,MacIntel,59.84082341,61588a883213fd00ccae7c21,64ce5acb97489d65b14ecc7a,64cf4b05db0b6e38c7050e47,,,,,,,sngl,resources/DB.BMP,resources/Empty.png,Door3,-0.223524306,-0.005412326,1,0,0,0.7623,optionLeft,70,10035,5,6,0,6,0,1,,,,,,,,,,,,,,,,,,,,,,,,,,,,,,,,,,,,,,,
,,,,,,,,2023-08-06_08h26.56.799,HF_wild_card,2022.2.4,MacIntel,59.84082341,61588a883213fd00ccae7c21,64ce5acb97489d65b14ecc7a,64cf4b05db0b6e38c7050e47,,,,,,,decisionTrl,resources/DP.BMP,resources/DY.BMP,WildCard_Ex,-0.083172743,-0.008728299,1,0,0,1.0331,optionLeft,95,10130,5,7,0,7,0,1,,,,,,,,,,,,,,,,,,,,,,,,,,,,,,,,,,,,,,,
,,,,,,,,2023-08-06_08h26.56.799,HF_wild_card,2022.2.4,MacIntel,59.84082341,61588a883213fd00ccae7c21,64ce5acb97489d65b14ecc7a,64cf4b05db0b6e38c7050e47,,,,,,,decisionTrl,resources/DY.BMP,resources/DBN.BMP,Door1,-0.21656684,-0.016710069,1,0,0,0.662,optionLeft,30,10160,5,8,0,8,0,1,,,,,,,,,,,,,,,,,,,,,,,,,,,,,,,,,,,,,,,
,,,,,,,,2023-08-06_08h26.56.799,HF_wild_card,2022.2.4,MacIntel,59.84082341,61588a883213fd00ccae7c21,64ce5acb97489d65b14ecc7a,64cf4b05db0b6e38c7050e47,,,,,,,decisionTrl,resources/DBN.BMP,resources/DY.BMP,Door1,0.215768229,0.02828125,1,0,0,0.7461,optionRight,30,10190,5,9,0,9,0,1,,,,,,,,,,,,,,,,,,,,,,,,,,,,,,,,,,,,,,,
,,,,,,,,2023-08-06_08h26.56.799,HF_wild_card,2022.2.4,MacIntel,59.84082341,61588a883213fd00ccae7c21,64ce5acb97489d65b14ecc7a,64cf4b05db0b6e38c7050e47,,,,,,,decisionTrl,resources/DP.BMP,resources/DB.BMP,WildCard_Ex,-0.235503472,-0.022469618,1,0,0,0.8124,optionLeft,95,10285,5,10,0,10,0,1,,,,,,,,,,,,,,,,,,,,,,,,,,,,,,,,,,,,,,,
,,,,,,,,2023-08-06_08h26.56.799,HF_wild_card,2022.2.4,MacIntel,59.84082341,61588a883213fd00ccae7c21,64ce5acb97489d65b14ecc7a,64cf4b05db0b6e38c7050e47,,,,,,,ctch,resources/DY.BMP,resources/DG.BMP,Door4,0.207000868,0.002044271,1,0,0,1.2306,optionRight,80,10365,5,11,0,11,0,1,,,,,,,,,,,,,,,,,,,,,,,,,,,,,,,,,,,,,,,
,,,,,,,,2023-08-06_08h26.56.799,HF_wild_card,2022.2.4,MacIntel,59.84082341,61588a883213fd00ccae7c21,64ce5acb97489d65b14ecc7a,64cf4b05db0b6e38c7050e47,,,,,,,decisionTrl,resources/DB.BMP,resources/DG.BMP,Door4,0.248789062,-0.00499566,1,0,0,1.6153,optionRight,60,10425,5,12,0,12,0,1,,,,,,,,,,,,,,,,,,,,,,,,,,,,,,,,,,,,,,,
,,,,,,,,2023-08-06_08h26.56.799,HF_wild_card,2022.2.4,MacIntel,59.84082341,61588a883213fd00ccae7c21,64ce5acb97489d65b14ecc7a,64cf4b05db0b6e38c7050e47,,,,,,,decisionTrl,resources/DB.BMP,resources/DG.BMP,Door4,0.255490451,0.011944444,1,0,0,0.9487,optionRight,60,10485,5,13,0,13,0,1,,,,,,,,,,,,,,,,,,,,,,,,,,,,,,,,,,,,,,,
,,,,,,,,2023-08-06_08h26.56.799,HF_wild_card,2022.2.4,MacIntel,59.84082341,61588a883213fd00ccae7c21,64ce5acb97489d65b14ecc7a,64cf4b05db0b6e38c7050e47,,,,,,,decisionTrl,resources/DBN.BMP,resources/DY.BMP,Door1,0.264700521,0.036497396,1,0,0,0.6984,optionRight,30,10515,5,14,0,14,0,1,,,,,,,,,,,,,,,,,,,,,,,,,,,,,,,,,,,,,,,
,,,,,,,,2023-08-06_08h26.56.799,HF_wild_card,2022.2.4,MacIntel,59.84082341,61588a883213fd00ccae7c21,64ce5acb97489d65b14ecc7a,64cf4b05db0b6e38c7050e47,,,,,,,sngl,resources/DP.BMP,resources/Empty.png,WildCard_Ex,-0.147239583,0.005481771,1,0,0,0.9159,optionLeft,95,10610,5,15,0,15,0,1,,,,,,,,,,,,,,,,,,,,,,,,,,,,,,,,,,,,,,,
,,,,,,,,2023-08-06_08h26.56.799,HF_wild_card,2022.2.4,MacIntel,59.84082341,61588a883213fd00ccae7c21,64ce5acb97489d65b14ecc7a,64cf4b05db0b6e38c7050e47,,,,,,,decisionTrl,resources/DB.BMP,resources/DG.BMP,Door4,0.169270833,-0.023012153,1,0,0,0.916,optionRight,60,10670,5,16,0,16,0,1,,,,,,,,,,,,,,,,,,,,,,,,,,,,,,,,,,,,,,,
,,,,,,,,2023-08-06_08h26.56.799,HF_wild_card,2022.2.4,MacIntel,59.84082341,61588a883213fd00ccae7c21,64ce5acb97489d65b14ecc7a,64cf4b05db0b6e38c7050e47,,,,,,,decisionTrl,resources/DG.BMP,resources/DB.BMP,Door4,-0.212296007,-0.00765191,1,0,1,1.4177,optionLeft,80,10750,5,17,0,17,0,1,,,,,,,,,,,,,,,,,,,,,,,,,,,,,,,,,,,,,,,
,,,,,,,,2023-08-06_08h26.56.799,HF_wild_card,2022.2.4,MacIntel,59.84082341,61588a883213fd00ccae7c21,64ce5acb97489d65b14ecc7a,64cf4b05db0b6e38c7050e47,,,,,,,decisionTrl,resources/DG.BMP,resources/DB.BMP,Door4,0.021080729,-0.009487847,0,0,1,0.1156,optionLeft,80,10830,5,18,0,18,0,1,,,,,,,,,,,,,,,,,,,,,,,,,,,,,,,,,,,,,,,
,,,,,,,,2023-08-06_08h26.56.799,HF_wild_card,2022.2.4,MacIntel,59.84082341,61588a883213fd00ccae7c21,64ce5acb97489d65b14ecc7a,64cf4b05db0b6e38c7050e47,,,,,,,decisionTrl,resources/DG.BMP,resources/DB.BMP,Door4,0.006215278,-0.007078993,0,0,1,0.0974,optionLeft,80,10910,5,19,0,19,0,1,,,,,,,,,,,,,,,,,,,,,,,,,,,,,,,,,,,,,,,
,,,,,,,,2023-08-06_08h26.56.799,HF_wild_card,2022.2.4,MacIntel,59.84082341,61588a883213fd00ccae7c21,64ce5acb97489d65b14ecc7a,64cf4b05db0b6e38c7050e47,,,,,,,sngl,resources/DG.BMP,resources/Empty.png,Door4,0.005095486,-0.006514757,0,0,1,0.1134,optionLeft,80,10990,5,20,0,20,0,1,,,,,,,,,,,,,,,,,,,,,,,,,,,,,,,,,,,,,,,
,,,,,,,,2023-08-06_08h26.56.799,HF_wild_card,2022.2.4,MacIntel,59.84082341,61588a883213fd00ccae7c21,64ce5acb97489d65b14ecc7a,64cf4b05db0b6e38c7050e47,,,,,,,sngl,resources/DY.BMP,resources/Empty.png,Door1,-0.003741319,-0.011571181,0,0,1,0.1121,optionLeft,30,11020,5,21,0,21,0,1,,,,,,,,,,,,,,,,,,,,,,,,,,,,,,,,,,,,,,,
,,,,,,,,2023-08-06_08h26.56.799,HF_wild_card,2022.2.4,MacIntel,59.84082341,61588a883213fd00ccae7c21,64ce5acb97489d65b14ecc7a,64cf4b05db0b6e38c7050e47,,,,,,,decisionTrl,resources/DY.BMP,resources/DP.BMP,WildCard_Ex,-0.005043403,-0.007356771,0,0,1,0.1131,optionRight,95,11115,5,22,0,22,0,1,,,,,,,,,,,,,,,,,,,,,,,,,,,,,,,,,,,,,,,
,,,,,,,,2023-08-06_08h26.56.799,HF_wild_card,2022.2.4,MacIntel,59.84082341,61588a883213fd00ccae7c21,64ce5acb97489d65b14ecc7a,64cf4b05db0b6e38c7050e47,,,,,,,decisionTrl,resources/DY.BMP,resources/DBN.BMP,Door1,0.007821181,-0.008758681,0,0,1,0.0969,optionLeft,30,11145,5,23,0,23,0,1,,,,,,,,,,,,,,,,,,,,,,,,,,,,,,,,,,,,,,,
,,,,,,,,2023-08-06_08h26.56.799,HF_wild_card,2022.2.4,MacIntel,59.84082341,61588a883213fd00ccae7c21,64ce5acb97489d65b14ecc7a,64cf4b05db0b6e38c7050e47,,,,,,,decisionTrl,resources/DP.BMP,resources/DBN.BMP,WildCard_Ex,-0.002851562,0.000907118,0,0,1,0.0956,optionLeft,5,11150,5,24,0,24,0,1,,,,,,,,,,,,,,,,,,,,,,,,,,,,,,,,,,,,,,,
,,,,,,,,2023-08-06_08h26.56.799,HF_wild_card,2022.2.4,MacIntel,59.84082341,61588a883213fd00ccae7c21,64ce5acb97489d65b14ecc7a,64cf4b05db0b6e38c7050e47,,,,,,,ctch,resources/DY.BMP,resources/DG.BMP,Door4,-0.014266493,-0.001631944,0,0,1,0.1286,optionRight,80,11230,5,25,0,25,0,1,,,,,,,,,,,,,,,,,,,,,,,,,,,,,,,,,,,,,,,
,,,,,,,,2023-08-06_08h26.56.799,HF_wild_card,2022.2.4,MacIntel,59.84082341,61588a883213fd00ccae7c21,64ce5acb97489d65b14ecc7a,64cf4b05db0b6e38c7050e47,,,,,,,ctch,resources/DBN.BMP,resources/DB.BMP,Door3,0.311032986,0.013155382,1,0,1,0.8132,optionRight,70,11300,5,26,0,26,0,1,,,,,,,,,,,,,,,,,,,,,,,,,,,,,,,,,,,,,,,
,,,,,,,,2023-08-06_08h26.56.799,HF_wild_card,2022.2.4,MacIntel,59.84082341,61588a883213fd00ccae7c21,64ce5acb97489d65b14ecc7a,64cf4b05db0b6e38c7050e47,,,,,,,ctch,resources/DB.BMP,resources/DBN.BMP,Door3,-0.015342882,-0.015529514,0,0,1,0.1298,optionLeft,70,11370,5,27,0,27,0,1,,,,,,,,,,,,,,,,,,,,,,,,,,,,,,,,,,,,,,,
,,,,,,,,2023-08-06_08h26.56.799,HF_wild_card,2022.2.4,MacIntel,59.84082341,61588a883213fd00ccae7c21,64ce5acb97489d65b14ecc7a,64cf4b05db0b6e38c7050e47,,,,,,,ctch,resources/DG.BMP,resources/DY.BMP,Door4,0.017647569,0.010078125,0,0,1,0.1121,optionLeft,80,11450,5,28,0,28,0,1,,,,,,,,,,,,,,,,,,,,,,,,,,,,,,,,,,,,,,,
,,,,,,,,2023-08-06_08h26.56.799,HF_wild_card,2022.2.4,MacIntel,59.84082341,61588a883213fd00ccae7c21,64ce5acb97489d65b14ecc7a,64cf4b05db0b6e38c7050e47,,,,,,,decisionTrl,resources/DY.BMP,resources/DBN.BMP,Door1,0.018546007,-0.000559896,0,0,1,0.1291,optionLeft,30,11480,5,29,0,29,0,1,,,,,,,,,,,,,,,,,,,,,,,,,,,,,,,,,,,,,,,
,,,,,,,,2023-08-06_08h26.56.799,HF_wild_card,2022.2.4,MacIntel,59.84082341,61588a883213fd00ccae7c21,64ce5acb97489d65b14ecc7a,64cf4b05db0b6e38c7050e47,,,,,,,sngl,resources/DBN.BMP,resources/Empty.png,Door2,-0.021536458,-0.00484375,0,0,1,0.1283,optionLeft,40,11520,5,30,0,30,0,1,,,,,,,,,,,,,,,,,,,,,,,,,,,,,,,,,,,,,,,
,,,,,,,,2023-08-06_08h26.56.799,HF_wild_card,2022.2.4,MacIntel,59.84082341,61588a883213fd00ccae7c21,64ce5acb97489d65b14ecc7a,64cf4b05db0b6e38c7050e47,,,,,,,sngl,resources/Empty.png,resources/DP.BMP,WildCard_Ex,0.003346354,-0.016276042,0,0,1,0.113,optionRight,5,11525,5,31,0,31,0,1,,,,,,,,,,,,,,,,,,,,,,,,,,,,,,,,,,,,,,,
,,,,,,,,2023-08-06_08h26.56.799,HF_wild_card,2022.2.4,MacIntel,59.84082341,61588a883213fd00ccae7c21,64ce5acb97489d65b14ecc7a,64cf4b05db0b6e38c7050e47,,,,,,,sngl,resources/DP.BMP,resources/Empty.png,WildCard_Ex,0.018320313,-0.015564236,0,0,1,0.1969,optionLeft,5,11530,5,32,0,32,0,1,,,,,,,,,,,,,,,,,,,,,,,,,,,,,,,,,,,,,,,
,,,,,,,,2023-08-06_08h26.56.799,HF_wild_card,2022.2.4,MacIntel,59.84082341,61588a883213fd00ccae7c21,64ce5acb97489d65b14ecc7a,64cf4b05db0b6e38c7050e47,,,,,,,sngl,resources/Empty.png,resources/DP.BMP,WildCard_Ex,0.009166667,-0.008858507,0,0,1,0.1638,optionRight,95,11625,5,33,0,33,0,1,,,,,,,,,,,,,,,,,,,,,,,,,,,,,,,,,,,,,,,
,,,,,,,,2023-08-06_08h26.56.799,HF_wild_card,2022.2.4,MacIntel,59.84082341,61588a883213fd00ccae7c21,64ce5acb97489d65b14ecc7a,64cf4b05db0b6e38c7050e47,,,,,,,decisionTrl,resources/DB.BMP,resources/DG.BMP,Door4,0.005894097,0.008715278,0,0,1,0.129,optionRight,80,11705,5,34,0,34,0,1,,,,,,,,,,,,,,,,,,,,,,,,,,,,,,,,,,,,,,,
,,,,,,,,2023-08-06_08h26.56.799,HF_wild_card,2022.2.4,MacIntel,59.84082341,61588a883213fd00ccae7c21,64ce5acb97489d65b14ecc7a,64cf4b05db0b6e38c7050e47,,,,,,,ctch,resources/DBN.BMP,resources/DB.BMP,Door3,-0.011362847,-0.020017361,0,0,1,0.1144,optionRight,70,11775,5,35,0,35,0,1,,,,,,,,,,,,,,,,,,,,,,,,,,,,,,,,,,,,,,,
,,,,,,,,2023-08-06_08h26.56.799,HF_wild_card,2022.2.4,MacIntel,59.84082341,61588a883213fd00ccae7c21,64ce5acb97489d65b14ecc7a,64cf4b05db0b6e38c7050e47,,,,,,,sngl,resources/Empty.png,resources/DY.BMP,Door1,0.008207465,-0.007196181,0,0,1,0.1136,optionRight,30,11805,5,36,0,36,0,1,,,,,,,,,,,,,,,,,,,,,,,,,,,,,,,,,,,,,,,
,,,,,,,,2023-08-06_08h26.56.799,HF_wild_card,2022.2.4,MacIntel,59.84082341,61588a883213fd00ccae7c21,64ce5acb97489d65b14ecc7a,64cf4b05db0b6e38c7050e47,,,,,,,sngl,resources/Empty.png,resources/DB.BMP,Door3,-0.009092882,0.004583333,0,0,1,0.1122,optionRight,70,11875,5,37,0,37,0,1,,,,,,,,,,,,,,,,,,,,,,,,,,,,,,,,,,,,,,,
,,,,,,,,2023-08-06_08h26.56.799,HF_wild_card,2022.2.4,MacIntel,59.84082341,61588a883213fd00ccae7c21,64ce5acb97489d65b14ecc7a,64cf4b05db0b6e38c7050e47,,,,,,,decisionTrl,resources/DBN.BMP,resources/DY.BMP,Door1,0.000394965,0.000555556,0,0,1,0.0616,optionRight,30,11905,5,38,0,38,0,1,,,,,,,,,,,,,,,,,,,,,,,,,,,,,,,,,,,,,,,
,,,,,,,,2023-08-06_08h26.56.799,HF_wild_card,2022.2.4,MacIntel,59.84082341,61588a883213fd00ccae7c21,64ce5acb97489d65b14ecc7a,64cf4b05db0b6e38c7050e47,,,,,,,sngl,resources/Empty.png,resources/DG.BMP,Door4,0.021983507,0.01030816,0,0,1,0.0954,optionRight,60,11965,5,39,0,39,0,1,,,,,,,,,,,,,,,,,,,,,,,,,,,,,,,,,,,,,,,
,,,,,,,,2023-08-06_08h26.56.799,HF_wild_card,2022.2.4,MacIntel,59.84082341,61588a883213fd00ccae7c21,64ce5acb97489d65b14ecc7a,64cf4b05db0b6e38c7050e47,,,,,,,ctch,resources/DG.BMP,resources/DY.BMP,Door4,0.002000868,-0.003763021,0,0,1,0.1458,optionLeft,60,12025,5,40,0,40,0,1,,,,,,,,,,,,,,,,,,,,,,,,,,,,,,,,,,,,,,,
,,,,,,,,2023-08-06_08h26.56.799,HF_wild_card,2022.2.4,MacIntel,59.84082341,61588a883213fd00ccae7c21,64ce5acb97489d65b14ecc7a,64cf4b05db0b6e38c7050e47,,,,,,,decisionTrl,resources/DG.BMP,resources/DB.BMP,Door4,0.009496528,0.006766493,0,0,1,0.146,optionLeft,80,12105,5,41,0,41,0,1,,,,,,,,,,,,,,,,,,,,,,,,,,,,,,,,,,,,,,,
,,,,,,,,2023-08-06_08h26.56.799,HF_wild_card,2022.2.4,MacIntel,59.84082341,61588a883213fd00ccae7c21,64ce5acb97489d65b14ecc7a,64cf4b05db0b6e38c7050e47,,,,,,,decisionTrl,resources/DB.BMP,resources/DP.BMP,WildCard_Ex,-0.012868924,-0.008723958,0,0,1,0.1317,optionRight,5,12110,5,42,0,42,0,1,,,,,,,,,,,,,,,,,,,,,,,,,,,,,,,,,,,,,,,
,,,,,,,,2023-08-06_08h26.56.799,HF_wild_card,2022.2.4,MacIntel,59.84082341,61588a883213fd00ccae7c21,64ce5acb97489d65b14ecc7a,64cf4b05db0b6e38c7050e47,,,,,,,decisionTrl,resources/DY.BMP,resources/DBN.BMP,Door1,0.02062066,-0.012595486,0,0,1,0.1297,optionLeft,30,12140,5,43,0,43,0,1,,,,,,,,,,,,,,,,,,,,,,,,,,,,,,,,,,,,,,,
,,,,,,,,2023-08-06_08h26.56.799,HF_wild_card,2022.2.4,MacIntel,59.84082341,61588a883213fd00ccae7c21,64ce5acb97489d65b14ecc7a,64cf4b05db0b6e38c7050e47,,,,,,,,,,,,,,,,,,,,,,,,,,4,0,4,0,1,,,,,,,,,,,,,,,,,,,,,,,,,,,,,,,,,,
,,,,,,,,2023-08-06_08h26.56.799,HF_wild_card,2022.2.4,MacIntel,59.84082341,61588a883213fd00ccae7c21,64ce5acb97489d65b14ecc7a,64cf4b05db0b6e38c7050e47,,,,,,,sngl,resources/DY.BMP,resources/Empty.png,Door1,-0.027647569,-0.259335938,0,0,1,0.108,optionLeft,30,12170,6,0,0,0,0,1,,,,,,,,,,,,,,,,,,,,,,,,,,,,,,,,,,,,,,,
,,,,,,,,2023-08-06_08h26.56.799,HF_wild_card,2022.2.4,MacIntel,59.84082341,61588a883213fd00ccae7c21,64ce5acb97489d65b14ecc7a,64cf4b05db0b6e38c7050e47,,,,,,,sngl,resources/Empty.png,resources/DP.BMP,WildCard_Ex,0.009700521,0.014973958,0,0,1,0.161,optionRight,95,12265,6,1,0,1,0,1,,,,,,,,,,,,,,,,,,,,,,,,,,,,,,,,,,,,,,,
,,,,,,,,2023-08-06_08h26.56.799,HF_wild_card,2022.2.4,MacIntel,59.84082341,61588a883213fd00ccae7c21,64ce5acb97489d65b14ecc7a,64cf4b05db0b6e38c7050e47,,,,,,,decisionTrl,resources/DBN.BMP,resources/DY.BMP,Door1,0.009791667,-0.007139757,0,0,1,0.0798,optionRight,30,12295,6,2,0,2,0,1,,,,,,,,,,,,,,,,,,,,,,,,,,,,,,,,,,,,,,,
,,,,,,,,2023-08-06_08h26.56.799,HF_wild_card,2022.2.4,MacIntel,59.84082341,61588a883213fd00ccae7c21,64ce5acb97489d65b14ecc7a,64cf4b05db0b6e38c7050e47,,,,,,,decisionTrl,resources/DG.BMP,resources/DP.BMP,WildCard_Ex,0.002304687,-0.007361111,0,0,1,0.0975,optionRight,95,12390,6,3,0,3,0,1,,,,,,,,,,,,,,,,,,,,,,,,,,,,,,,,,,,,,,,
,,,,,,,,2023-08-06_08h26.56.799,HF_wild_card,2022.2.4,MacIntel,59.84082341,61588a883213fd00ccae7c21,64ce5acb97489d65b14ecc7a,64cf4b05db0b6e38c7050e47,,,,,,,ctch,resources/DBN.BMP,resources/DB.BMP,Door3,0.001631944,-0.016362847,0,0,1,0.1295,optionRight,70,12460,6,4,0,4,0,1,,,,,,,,,,,,,,,,,,,,,,,,,,,,,,,,,,,,,,,
,,,,,,,,2023-08-06_08h26.56.799,HF_wild_card,2022.2.4,MacIntel,59.84082341,61588a883213fd00ccae7c21,64ce5acb97489d65b14ecc7a,64cf4b05db0b6e38c7050e47,,,,,,,decisionTrl,resources/DY.BMP,resources/DBN.BMP,Door1,0.010221354,-0.018927951,0,0,1,0.0978,optionLeft,30,12490,6,5,0,5,0,1,,,,,,,,,,,,,,,,,,,,,,,,,,,,,,,,,,,,,,,
,,,,,,,,2023-08-06_08h26.56.799,HF_wild_card,2022.2.4,MacIntel,59.84082341,61588a883213fd00ccae7c21,64ce5acb97489d65b14ecc7a,64cf4b05db0b6e38c7050e47,,,,,,,ctch,resources/DB.BMP,resources/DBN.BMP,Door3,-0.022517361,0.005924479,0,0,1,0.1287,optionLeft,70,12560,6,6,0,6,0,1,,,,,,,,,,,,,,,,,,,,,,,,,,,,,,,,,,,,,,,
,,,,,,,,2023-08-06_08h26.56.799,HF_wild_card,2022.2.4,MacIntel,59.84082341,61588a883213fd00ccae7c21,64ce5acb97489d65b14ecc7a,64cf4b05db0b6e38c7050e47,,,,,,,decisionTrl,resources/DY.BMP,resources/DP.BMP,WildCard_Ex,-0.018363715,0.008485243,0,0,1,0.1133,optionRight,5,12565,6,7,0,7,0,1,,,,,,,,,,,,,,,,,,,,,,,,,,,,,,,,,,,,,,,
,,,,,,,,2023-08-06_08h26.56.799,HF_wild_card,2022.2.4,MacIntel,59.84082341,61588a883213fd00ccae7c21,64ce5acb97489d65b14ecc7a,64cf4b05db0b6e38c7050e47,,,,,,,decisionTrl,resources/DP.BMP,resources/DY.BMP,WildCard_Ex,0.020199653,0.001875,0,0,1,0.1101,optionLeft,5,12570,6,8,0,8,0,1,,,,,,,,,,,,,,,,,,,,,,,,,,,,,,,,,,,,,,,
,,,,,,,,2023-08-06_08h26.56.799,HF_wild_card,2022.2.4,MacIntel,59.84082341,61588a883213fd00ccae7c21,64ce5acb97489d65b14ecc7a,64cf4b05db0b6e38c7050e47,,,,,,,ctch,resources/DG.BMP,resources/DY.BMP,Door4,0.004539931,-0.022157118,0,0,1,0.1476,optionLeft,60,12630,6,9,0,9,0,1,,,,,,,,,,,,,,,,,,,,,,,,,,,,,,,,,,,,,,,
,,,,,,,,2023-08-06_08h26.56.799,HF_wild_card,2022.2.4,MacIntel,59.84082341,61588a883213fd00ccae7c21,64ce5acb97489d65b14ecc7a,64cf4b05db0b6e38c7050e47,,,,,,,decisionTrl,resources/DB.BMP,resources/DG.BMP,Door4,-0.013880208,-0.000290799,0,0,1,0.0951,optionRight,80,12710,6,10,0,10,0,1,,,,,,,,,,,,,,,,,,,,,,,,,,,,,,,,,,,,,,,
,,,,,,,,2023-08-06_08h26.56.799,HF_wild_card,2022.2.4,MacIntel,59.84082341,61588a883213fd00ccae7c21,64ce5acb97489d65b14ecc7a,64cf4b05db0b6e38c7050e47,,,,,,,decisionTrl,resources/DB.BMP,resources/DG.BMP,Door4,0.012877604,-0.002152778,0,0,1,0.095,optionRight,60,12770,6,11,0,11,0,1,,,,,,,,,,,,,,,,,,,,,,,,,,,,,,,,,,,,,,,
,,,,,,,,2023-08-06_08h26.56.799,HF_wild_card,2022.2.4,MacIntel,59.84082341,61588a883213fd00ccae7c21,64ce5acb97489d65b14ecc7a,64cf4b05db0b6e38c7050e47,,,,,,,decisionTrl,resources/DP.BMP,resources/DBN.BMP,WildCard_Ex,0.015399306,0.008046875,0,0,1,0.0996,optionLeft,95,12865,6,12,0,12,0,1,,,,,,,,,,,,,,,,,,,,,,,,,,,,,,,,,,,,,,,
,,,,,,,,2023-08-06_08h26.56.799,HF_wild_card,2022.2.4,MacIntel,59.84082341,61588a883213fd00ccae7c21,64ce5acb97489d65b14ecc7a,64cf4b05db0b6e38c7050e47,,,,,,,decisionTrl,resources/DB.BMP,resources/DG.BMP,Door4,0.003953993,-0.008151042,0,0,1,0.1118,optionRight,80,12945,6,13,0,13,0,1,,,,,,,,,,,,,,,,,,,,,,,,,,,,,,,,,,,,,,,
,,,,,,,,2023-08-06_08h26.56.799,HF_wild_card,2022.2.4,MacIntel,59.84082341,61588a883213fd00ccae7c21,64ce5acb97489d65b14ecc7a,64cf4b05db0b6e38c7050e47,,,,,,,ctch,resources/DY.BMP,resources/DG.BMP,Door4,0.009184028,-0.001744792,0,0,1,0.0788,optionRight,60,13005,6,14,0,14,0,1,,,,,,,,,,,,,,,,,,,,,,,,,,,,,,,,,,,,,,,
,,,,,,,,2023-08-06_08h26.56.799,HF_wild_card,2022.2.4,MacIntel,59.84082341,61588a883213fd00ccae7c21,64ce5acb97489d65b14ecc7a,64cf4b05db0b6e38c7050e47,,,,,,,ctch,resources/DB.BMP,resources/DBN.BMP,Door3,0.015329861,0.000125868,0,0,1,0.1131,optionLeft,70,13075,6,15,0,15,0,1,,,,,,,,,,,,,,,,,,,,,,,,,,,,,,,,,,,,,,,
,,,,,,,,2023-08-06_08h26.56.799,HF_wild_card,2022.2.4,MacIntel,59.84082341,61588a883213fd00ccae7c21,64ce5acb97489d65b14ecc7a,64cf4b05db0b6e38c7050e47,,,,,,,sngl,resources/DBN.BMP,resources/Empty.png,Door2,0.003628472,-0.0059375,0,0,1,0.0969,optionLeft,20,13095,6,16,0,16,0,1,,,,,,,,,,,,,,,,,,,,,,,,,,,,,,,,,,,,,,,
,,,,,,,,2023-08-06_08h26.56.799,HF_wild_card,2022.2.4,MacIntel,59.84082341,61588a883213fd00ccae7c21,64ce5acb97489d65b14ecc7a,64cf4b05db0b6e38c7050e47,,,,,,,decisionTrl,resources/DG.BMP,resources/DB.BMP,Door4,0.013216146,0.0115625,0,0,1,0.1098,optionLeft,80,13175,6,17,0,17,0,1,,,,,,,,,,,,,,,,,,,,,,,,,,,,,,,,,,,,,,,
,,,,,,,,2023-08-06_08h26.56.799,HF_wild_card,2022.2.4,MacIntel,59.84082341,61588a883213fd00ccae7c21,64ce5acb97489d65b14ecc7a,64cf4b05db0b6e38c7050e47,,,,,,,sngl,resources/DB.BMP,resources/Empty.png,Door3,-0.010980903,-0.013350694,0,0,1,0.0798,optionLeft,70,13245,6,18,0,18,0,1,,,,,,,,,,,,,,,,,,,,,,,,,,,,,,,,,,,,,,,
,,,,,,,,2023-08-06_08h26.56.799,HF_wild_card,2022.2.4,MacIntel,59.84082341,61588a883213fd00ccae7c21,64ce5acb97489d65b14ecc7a,64cf4b05db0b6e38c7050e47,,,,,,,sngl,resources/Empty.png,resources/DG.BMP,Door4,-0.006054688,-0.017118056,0,0,1,0.0962,optionRight,80,13325,6,19,0,19,0,1,,,,,,,,,,,,,,,,,,,,,,,,,,,,,,,,,,,,,,,
,,,,,,,,2023-08-06_08h26.56.799,HF_wild_card,2022.2.4,MacIntel,59.84082341,61588a883213fd00ccae7c21,64ce5acb97489d65b14ecc7a,64cf4b05db0b6e38c7050e47,,,,,,,decisionTrl,resources/DBN.BMP,resources/DY.BMP,Door1,-0.00953559,-0.012265625,0,0,1,0.0958,optionRight,30,13355,6,20,0,20,0,1,,,,,,,,,,,,,,,,,,,,,,,,,,,,,,,,,,,,,,,
,,,,,,,,2023-08-06_08h26.56.799,HF_wild_card,2022.2.4,MacIntel,59.84082341,61588a883213fd00ccae7c21,64ce5acb97489d65b14ecc7a,64cf4b05db0b6e38c7050e47,,,,,,,decisionTrl,resources/DBN.BMP,resources/DY.BMP,Door1,0.006128472,-0.002452257,0,0,1,0.1303,optionRight,30,13385,6,21,0,21,0,1,,,,,,,,,,,,,,,,,,,,,,,,,,,,,,,,,,,,,,,
,,,,,,,,2023-08-06_08h26.56.799,HF_wild_card,2022.2.4,MacIntel,59.84082341,61588a883213fd00ccae7c21,64ce5acb97489d65b14ecc7a,64cf4b05db0b6e38c7050e47,,,,,,,decisionTrl,resources/DY.BMP,resources/DBN.BMP,Door1,-0.01203559,-0.013142361,0,0,1,0.1299,optionLeft,30,13415,6,22,0,22,0,1,,,,,,,,,,,,,,,,,,,,,,,,,,,,,,,,,,,,,,,
,,,,,,,,2023-08-06_08h26.56.799,HF_wild_card,2022.2.4,MacIntel,59.84082341,61588a883213fd00ccae7c21,64ce5acb97489d65b14ecc7a,64cf4b05db0b6e38c7050e47,,,,,,,sngl,resources/Empty.png,resources/DBN.BMP,Door2,-0.010017361,-0.011744792,0,0,1,0.0964,optionRight,40,13455,6,23,0,23,0,1,,,,,,,,,,,,,,,,,,,,,,,,,,,,,,,,,,,,,,,
,,,,,,,,2023-08-06_08h26.56.799,HF_wild_card,2022.2.4,MacIntel,59.84082341,61588a883213fd00ccae7c21,64ce5acb97489d65b14ecc7a,64cf4b05db0b6e38c7050e47,,,,,,,decisionTrl,resources/DG.BMP,resources/DB.BMP,Door4,0.01703125,0.008797743,0,0,1,0.1304,optionLeft,60,13515,6,24,0,24,0,1,,,,,,,,,,,,,,,,,,,,,,,,,,,,,,,,,,,,,,,
,,,,,,,,2023-08-06_08h26.56.799,HF_wild_card,2022.2.4,MacIntel,59.84082341,61588a883213fd00ccae7c21,64ce5acb97489d65b14ecc7a,64cf4b05db0b6e38c7050e47,,,,,,,ctch,resources/DY.BMP,resources/DG.BMP,Door4,-0.015108507,-0.017313368,0,0,1,0.1127,optionRight,80,13595,6,25,0,25,0,1,,,,,,,,,,,,,,,,,,,,,,,,,,,,,,,,,,,,,,,
,,,,,,,,2023-08-06_08h26.56.799,HF_wild_card,2022.2.4,MacIntel,59.84082341,61588a883213fd00ccae7c21,64ce5acb97489d65b14ecc7a,64cf4b05db0b6e38c7050e47,,,,,,,ctch,resources/DG.BMP,resources/DY.BMP,Door4,0.009244792,-0.004036458,0,0,1,0.0972,optionLeft,60,13655,6,26,0,26,0,1,,,,,,,,,,,,,,,,,,,,,,,,,,,,,,,,,,,,,,,
,,,,,,,,2023-08-06_08h26.56.799,HF_wild_card,2022.2.4,MacIntel,59.84082341,61588a883213fd00ccae7c21,64ce5acb97489d65b14ecc7a,64cf4b05db0b6e38c7050e47,,,,,,,sngl,resources/DP.BMP,resources/Empty.png,WildCard_Ex,0.003784722,-0.018042535,0,0,1,0.0795,optionLeft,5,13660,6,27,0,27,0,1,,,,,,,,,,,,,,,,,,,,,,,,,,,,,,,,,,,,,,,
,,,,,,,,2023-08-06_08h26.56.799,HF_wild_card,2022.2.4,MacIntel,59.84082341,61588a883213fd00ccae7c21,64ce5acb97489d65b14ecc7a,64cf4b05db0b6e38c7050e47,,,,,,,decisionTrl,resources/DP.BMP,resources/DG.BMP,WildCard_Ex,-0.007673611,0.007543403,0,0,1,0.1629,optionLeft,95,13755,6,28,0,28,0,1,,,,,,,,,,,,,,,,,,,,,,,,,,,,,,,,,,,,,,,
,,,,,,,,2023-08-06_08h26.56.799,HF_wild_card,2022.2.4,MacIntel,59.84082341,61588a883213fd00ccae7c21,64ce5acb97489d65b14ecc7a,64cf4b05db0b6e38c7050e47,,,,,,,ctch,resources/DBN.BMP,resources/DB.BMP,Door3,-0.006996528,0.003020833,0,0,1,0.1131,optionRight,70,13825,6,29,0,29,0,1,,,,,,,,,,,,,,,,,,,,,,,,,,,,,,,,,,,,,,,
,,,,,,,,2023-08-06_08h26.56.799,HF_wild_card,2022.2.4,MacIntel,59.84082341,61588a883213fd00ccae7c21,64ce5acb97489d65b14ecc7a,64cf4b05db0b6e38c7050e47,,,,,,,decisionTrl,resources/DB.BMP,resources/DP.BMP,WildCard_Ex,0.002699653,0.00827691,0,0,1,0.1299,optionRight,5,13830,6,30,0,30,0,1,,,,,,,,,,,,,,,,,,,,,,,,,,,,,,,,,,,,,,,
,,,,,,,,2023-08-06_08h26.56.799,HF_wild_card,2022.2.4,MacIntel,59.84082341,61588a883213fd00ccae7c21,64ce5acb97489d65b14ecc7a,64cf4b05db0b6e38c7050e47,,,,,,,sngl,resources/Empty.png,resources/DP.BMP,WildCard_Ex,0.002508681,-0.002860243,0,0,1,0.0905,optionRight,5,13835,6,31,0,31,0,1,,,,,,,,,,,,,,,,,,,,,,,,,,,,,,,,,,,,,,,
,,,,,,,,2023-08-06_08h26.56.799,HF_wild_card,2022.2.4,MacIntel,59.84082341,61588a883213fd00ccae7c21,64ce5acb97489d65b14ecc7a,64cf4b05db0b6e38c7050e47,,,,,,,decisionTrl,resources/DY.BMP,resources/DBN.BMP,Door1,0.010976563,-0.003229167,0,0,1,0.1279,optionLeft,30,13865,6,32,0,32,0,1,,,,,,,,,,,,,,,,,,,,,,,,,,,,,,,,,,,,,,,
,,,,,,,,2023-08-06_08h26.56.799,HF_wild_card,2022.2.4,MacIntel,59.84082341,61588a883213fd00ccae7c21,64ce5acb97489d65b14ecc7a,64cf4b05db0b6e38c7050e47,,,,,,,decisionTrl,resources/DBN.BMP,resources/DP.BMP,WildCard_Ex,0.015021701,-0.007734375,0,0,1,0.1107,optionRight,95,13960,6,33,0,33,0,1,,,,,,,,,,,,,,,,,,,,,,,,,,,,,,,,,,,,,,,
,,,,,,,,2023-08-06_08h26.56.799,HF_wild_card,2022.2.4,MacIntel,59.84082341,61588a883213fd00ccae7c21,64ce5acb97489d65b14ecc7a,64cf4b05db0b6e38c7050e47,,,,,,,sngl,resources/Empty.png,resources/DB.BMP,Door3,0.001180556,-0.006510417,0,0,1,0.0615,optionRight,70,14030,6,34,0,34,0,1,,,,,,,,,,,,,,,,,,,,,,,,,,,,,,,,,,,,,,,
,,,,,,,,2023-08-06_08h26.56.799,HF_wild_card,2022.2.4,MacIntel,59.84082341,61588a883213fd00ccae7c21,64ce5acb97489d65b14ecc7a,64cf4b05db0b6e38c7050e47,,,,,,,decisionTrl,resources/DY.BMP,resources/DBN.BMP,Door1,0.013967014,-0.000325521,0,0,1,0.113,optionLeft,30,14060,6,35,0,35,0,1,,,,,,,,,,,,,,,,,,,,,,,,,,,,,,,,,,,,,,,
,,,,,,,,2023-08-06_08h26.56.799,HF_wild_card,2022.2.4,MacIntel,59.84082341,61588a883213fd00ccae7c21,64ce5acb97489d65b14ecc7a,64cf4b05db0b6e38c7050e47,,,,,,,decisionTrl,resources/DB.BMP,resources/DG.BMP,Door4,-0.006440972,0.006762153,0,0,1,0.0951,optionRight,80,14140,6,36,0,36,0,1,,,,,,,,,,,,,,,,,,,,,,,,,,,,,,,,,,,,,,,
,,,,,,,,2023-08-06_08h26.56.799,HF_wild_card,2022.2.4,MacIntel,59.84082341,61588a883213fd00ccae7c21,64ce5acb97489d65b14ecc7a,64cf4b05db0b6e38c7050e47,,,,,,,decisionTrl,resources/DBN.BMP,resources/DY.BMP,Door1,-0.008684896,-0.002873264,0,0,1,0.0956,optionRight,30,14170,6,37,0,37,0,1,,,,,,,,,,,,,,,,,,,,,,,,,,,,,,,,,,,,,,,
,,,,,,,,2023-08-06_08h26.56.799,HF_wild_card,2022.2.4,MacIntel,59.84082341,61588a883213fd00ccae7c21,64ce5acb97489d65b14ecc7a,64cf4b05db0b6e38c7050e47,,,,,,,sngl,resources/Empty.png,resources/DY.BMP,Door1,-0.007491319,-0.01093316,0,0,1,0.0966,optionRight,30,14200,6,38,0,38,0,1,,,,,,,,,,,,,,,,,,,,,,,,,,,,,,,,,,,,,,,
,,,,,,,,2023-08-06_08h26.56.799,HF_wild_card,2022.2.4,MacIntel,59.84082341,61588a883213fd00ccae7c21,64ce5acb97489d65b14ecc7a,64cf4b05db0b6e38c7050e47,,,,,,,sngl,resources/DG.BMP,resources/Empty.png,Door4,-0.009366319,0.003871528,0,0,1,0.0959,optionLeft,60,14260,6,39,0,39,0,1,,,,,,,,,,,,,,,,,,,,,,,,,,,,,,,,,,,,,,,
,,,,,,,,2023-08-06_08h26.56.799,HF_wild_card,2022.2.4,MacIntel,59.84082341,61588a883213fd00ccae7c21,64ce5acb97489d65b14ecc7a,64cf4b05db0b6e38c7050e47,,,,,,,decisionTrl,resources/DG.BMP,resources/DB.BMP,Door4,-0.014006076,0.005269097,0,0,1,0.1308,optionLeft,80,14340,6,40,0,40,0,1,,,,,,,,,,,,,,,,,,,,,,,,,,,,,,,,,,,,,,,
,,,,,,,,2023-08-06_08h26.56.799,HF_wild_card,2022.2.4,MacIntel,59.84082341,61588a883213fd00ccae7c21,64ce5acb97489d65b14ecc7a,64cf4b05db0b6e38c7050e47,,,,,,,decisionTrl,resources/DG.BMP,resources/DB.BMP,Door4,0.020069444,-0.012699653,0,0,1,0.1475,optionLeft,80,14420,6,41,0,41,0,1,,,,,,,,,,,,,,,,,,,,,,,,,,,,,,,,,,,,,,,
,,,,,,,,2023-08-06_08h26.56.799,HF_wild_card,2022.2.4,MacIntel,59.84082341,61588a883213fd00ccae7c21,64ce5acb97489d65b14ecc7a,64cf4b05db0b6e38c7050e47,,,,,,,decisionTrl,resources/DP.BMP,resources/DB.BMP,WildCard_Ex,-0.021549479,-0.001289063,0,0,1,0.1301,optionLeft,95,14515,6,42,0,42,0,1,,,,,,,,,,,,,,,,,,,,,,,,,,,,,,,,,,,,,,,
,,,,,,,,2023-08-06_08h26.56.799,HF_wild_card,2022.2.4,MacIntel,59.84082341,61588a883213fd00ccae7c21,64ce5acb97489d65b14ecc7a,64cf4b05db0b6e38c7050e47,,,,,,,sngl,resources/DP.BMP,resources/Empty.png,WildCard_Ex,-0.003602431,-0.005911458,0,0,1,0.0798,optionLeft,95,14610,6,43,0,43,0,1,,,,,,,,,,,,,,,,,,,,,,,,,,,,,,,,,,,,,,,
,,,,,,,,2023-08-06_08h26.56.799,HF_wild_card,2022.2.4,MacIntel,59.84082341,61588a883213fd00ccae7c21,64ce5acb97489d65b14ecc7a,64cf4b05db0b6e38c7050e47,,,,,,,,,,,,,,,,,,,,,,,,,,5,0,5,0,1,,,,,,,,,,,,,,,,,,,,,,,,,,,,,,,,,,
,,,,,,,,2023-08-06_08h26.56.799,HF_wild_card,2022.2.4,MacIntel,59.84082341,61588a883213fd00ccae7c21,64ce5acb97489d65b14ecc7a,64cf4b05db0b6e38c7050e47,,,,,,,decisionTrl,resources/DG.BMP,resources/DB.BMP,Door4,-0.201757812,-0.111215278,1,0,1,1.2842,optionLeft,60,14670,7,0,0,0,0,1,,,,,,,,,,,,,,,,,,,,,,,,,,,,,,,,,,,,,,,
,,,,,,,,2023-08-06_08h26.56.799,HF_wild_card,2022.2.4,MacIntel,59.84082341,61588a883213fd00ccae7c21,64ce5acb97489d65b14ecc7a,64cf4b05db0b6e38c7050e47,,,,,,,decisionTrl,resources/DY.BMP,resources/DBN.BMP,Door1,0.003038194,-0.007122396,0,0,1,0.097,optionLeft,30,14700,7,1,0,1,0,1,,,,,,,,,,,,,,,,,,,,,,,,,,,,,,,,,,,,,,,
,,,,,,,,2023-08-06_08h26.56.799,HF_wild_card,2022.2.4,MacIntel,59.84082341,61588a883213fd00ccae7c21,64ce5acb97489d65b14ecc7a,64cf4b05db0b6e38c7050e47,,,,,,,decisionTrl,resources/DG.BMP,resources/DB.BMP,Door4,-0.173628472,0.01921875,1,0,1,0.9182,optionLeft,80,14780,7,2,0,2,0,1,,,,,,,,,,,,,,,,,,,,,,,,,,,,,,,,,,,,,,,
,,,,,,,,2023-08-06_08h26.56.799,HF_wild_card,2022.2.4,MacIntel,59.84082341,61588a883213fd00ccae7c21,64ce5acb97489d65b14ecc7a,64cf4b05db0b6e38c7050e47,,,,,,,decisionTrl,resources/DG.BMP,resources/DB.BMP,Door4,-0.012135417,0.00719184,0,0,1,0.0632,optionLeft,60,14840,7,3,0,3,0,1,,,,,,,,,,,,,,,,,,,,,,,,,,,,,,,,,,,,,,,
,,,,,,,,2023-08-06_08h26.56.799,HF_wild_card,2022.2.4,MacIntel,59.84082341,61588a883213fd00ccae7c21,64ce5acb97489d65b14ecc7a,64cf4b05db0b6e38c7050e47,,,,,,,decisionTrl,resources/DB.BMP,resources/DG.BMP,Door4,0.000342882,-0.00969184,0,0,1,0.1128,optionRight,80,14920,7,4,0,4,0,1,,,,,,,,,,,,,,,,,,,,,,,,,,,,,,,,,,,,,,,
,,,,,,,,2023-08-06_08h26.56.799,HF_wild_card,2022.2.4,MacIntel,59.84082341,61588a883213fd00ccae7c21,64ce5acb97489d65b14ecc7a,64cf4b05db0b6e38c7050e47,,,,,,,ctch,resources/DG.BMP,resources/DY.BMP,Door4,-0.016523438,-0.005438368,0,0,1,0.0816,optionLeft,80,15000,7,5,0,5,0,1,,,,,,,,,,,,,,,,,,,,,,,,,,,,,,,,,,,,,,,
,,,,,,,,2023-08-06_08h26.56.799,HF_wild_card,2022.2.4,MacIntel,59.84082341,61588a883213fd00ccae7c21,64ce5acb97489d65b14ecc7a,64cf4b05db0b6e38c7050e47,,,,,,,ctch,resources/DBN.BMP,resources/DB.BMP,Door3,-0.00437934,0.007617187,0,0,1,0.0979,optionRight,70,15070,7,6,0,6,0,1,,,,,,,,,,,,,,,,,,,,,,,,,,,,,,,,,,,,,,,
,,,,,,,,2023-08-06_08h26.56.799,HF_wild_card,2022.2.4,MacIntel,59.84082341,61588a883213fd00ccae7c21,64ce5acb97489d65b14ecc7a,64cf4b05db0b6e38c7050e47,,,,,,,decisionTrl,resources/DY.BMP,resources/DBN.BMP,Door1,-0.190789931,-0.009830729,1,0,1,0.6002,optionLeft,30,15100,7,7,0,7,0,1,,,,,,,,,,,,,,,,,,,,,,,,,,,,,,,,,,,,,,,
,,,,,,,,2023-08-06_08h26.56.799,HF_wild_card,2022.2.4,MacIntel,59.84082341,61588a883213fd00ccae7c21,64ce5acb97489d65b14ecc7a,64cf4b05db0b6e38c7050e47,,,,,,,ctch,resources/DY.BMP,resources/DG.BMP,Door4,-0.006202257,-0.005238715,0,0,1,0.099,optionRight,80,15180,7,8,0,8,0,1,,,,,,,,,,,,,,,,,,,,,,,,,,,,,,,,,,,,,,,
,,,,,,,,2023-08-06_08h26.56.799,HF_wild_card,2022.2.4,MacIntel,59.84082341,61588a883213fd00ccae7c21,64ce5acb97489d65b14ecc7a,64cf4b05db0b6e38c7050e47,,,,,,,ctch,resources/DBN.BMP,resources/DB.BMP,Door3,-0.00593316,0.012881944,0,0,1,0.0968,optionRight,70,15250,7,9,0,9,0,1,,,,,,,,,,,,,,,,,,,,,,,,,,,,,,,,,,,,,,,
,,,,,,,,2023-08-06_08h26.56.799,HF_wild_card,2022.2.4,MacIntel,59.84082341,61588a883213fd00ccae7c21,64ce5acb97489d65b14ecc7a,64cf4b05db0b6e38c7050e47,,,,,,,ctch,resources/DB.BMP,resources/DBN.BMP,Door3,0.00796875,0.008181424,0,0,1,0.0965,optionLeft,70,15320,7,10,0,10,0,1,,,,,,,,,,,,,,,,,,,,,,,,,,,,,,,,,,,,,,,
,,,,,,,,2023-08-06_08h26.56.799,HF_wild_card,2022.2.4,MacIntel,59.84082341,61588a883213fd00ccae7c21,64ce5acb97489d65b14ecc7a,64cf4b05db0b6e38c7050e47,,,,,,,ctch,resources/DB.BMP,resources/DBN.BMP,Door3,0.010208333,0.014309896,0,0,1,0.097,optionLeft,70,15390,7,11,0,11,0,1,,,,,,,,,,,,,,,,,,,,,,,,,,,,,,,,,,,,,,,
,,,,,,,,2023-08-06_08h26.56.799,HF_wild_card,2022.2.4,MacIntel,59.84082341,61588a883213fd00ccae7c21,64ce5acb97489d65b14ecc7a,64cf4b05db0b6e38c7050e47,,,,,,,decisionTrl,resources/DY.BMP,resources/DBN.BMP,Door1,0.022000868,0.006532118,0,0,1,0.0952,optionLeft,30,15420,7,12,0,12,0,1,,,,,,,,,,,,,,,,,,,,,,,,,,,,,,,,,,,,,,,
,,,,,,,,2023-08-06_08h26.56.799,HF_wild_card,2022.2.4,MacIntel,59.84082341,61588a883213fd00ccae7c21,64ce5acb97489d65b14ecc7a,64cf4b05db0b6e38c7050e47,,,,,,,ctch,resources/DBN.BMP,resources/DB.BMP,Door3,0.009743924,-0.001154514,0,0,1,0.114,optionRight,70,15490,7,13,0,13,0,1,,,,,,,,,,,,,,,,,,,,,,,,,,,,,,,,,,,,,,,
,,,,,,,,2023-08-06_08h26.56.799,HF_wild_card,2022.2.4,MacIntel,59.84082341,61588a883213fd00ccae7c21,64ce5acb97489d65b14ecc7a,64cf4b05db0b6e38c7050e47,,,,,,,decisionTrl,resources/DB.BMP,resources/DG.BMP,Door4,-0.000138889,0.014596354,0,0,1,0.0999,optionRight,60,15550,7,14,0,14,0,1,,,,,,,,,,,,,,,,,,,,,,,,,,,,,,,,,,,,,,,
,,,,,,,,2023-08-06_08h26.56.799,HF_wild_card,2022.2.4,MacIntel,59.84082341,61588a883213fd00ccae7c21,64ce5acb97489d65b14ecc7a,64cf4b05db0b6e38c7050e47,,,,,,,decisionTrl,resources/DBN.BMP,resources/DY.BMP,Door1,-0.015807292,-0.006458333,0,0,1,0.0956,optionRight,30,15580,7,15,0,15,0,1,,,,,,,,,,,,,,,,,,,,,,,,,,,,,,,,,,,,,,,
,,,,,,,,2023-08-06_08h26.56.799,HF_wild_card,2022.2.4,MacIntel,59.84082341,61588a883213fd00ccae7c21,64ce5acb97489d65b14ecc7a,64cf4b05db0b6e38c7050e47,,,,,,,decisionTrl,resources/DG.BMP,resources/DB.BMP,Door4,0.010928819,-0.005026042,0,0,1,0.0986,optionLeft,80,15660,7,16,0,16,0,1,,,,,,,,,,,,,,,,,,,,,,,,,,,,,,,,,,,,,,,
,,,,,,,,2023-08-06_08h26.56.799,HF_wild_card,2022.2.4,MacIntel,59.84082341,61588a883213fd00ccae7c21,64ce5acb97489d65b14ecc7a,64cf4b05db0b6e38c7050e47,,,,,,,decisionTrl,resources/DBN.BMP,resources/DY.BMP,Door1,0.019309896,0.003680556,0,0,1,0.1163,optionRight,30,15690,7,17,0,17,0,1,,,,,,,,,,,,,,,,,,,,,,,,,,,,,,,,,,,,,,,
,,,,,,,,2023-08-06_08h26.56.799,HF_wild_card,2022.2.4,MacIntel,59.84082341,61588a883213fd00ccae7c21,64ce5acb97489d65b14ecc7a,64cf4b05db0b6e38c7050e47,,,,,,,decisionTrl,resources/DY.BMP,resources/DBN.BMP,Door1,0.00437066,-0.016649306,0,0,1,0.1143,optionLeft,30,15720,7,18,0,18,0,1,,,,,,,,,,,,,,,,,,,,,,,,,,,,,,,,,,,,,,,
,,,,,,,,2023-08-06_08h26.56.799,HF_wild_card,2022.2.4,MacIntel,59.84082341,61588a883213fd00ccae7c21,64ce5acb97489d65b14ecc7a,64cf4b05db0b6e38c7050e47,,,,,,,decisionTrl,resources/DB.BMP,resources/DG.BMP,Door4,-0.005342882,0.010104167,1,0,1,0.1474,optionRight,60,15780,7,19,0,19,0,1,,,,,,,,,,,,,,,,,,,,,,,,,,,,,,,,,,,,,,,
,,,,,,,,2023-08-06_08h26.56.799,HF_wild_card,2022.2.4,MacIntel,59.84082341,61588a883213fd00ccae7c21,64ce5acb97489d65b14ecc7a,64cf4b05db0b6e38c7050e47,,,,,,,decisionTrl,resources/DG.BMP,resources/DB.BMP,Door4,0.00421441,0.012773438,0,0,1,0.0983,optionLeft,80,15860,7,20,0,20,0,1,,,,,,,,,,,,,,,,,,,,,,,,,,,,,,,,,,,,,,,
,,,,,,,,2023-08-06_08h26.56.799,HF_wild_card,2022.2.4,MacIntel,59.84082341,61588a883213fd00ccae7c21,64ce5acb97489d65b14ecc7a,64cf4b05db0b6e38c7050e47,,,,,,,decisionTrl,resources/DBN.BMP,resources/DY.BMP,Door1,-0.02234375,0.000230035,0,0,1,0.0969,optionRight,30,15890,7,21,0,21,0,1,,,,,,,,,,,,,,,,,,,,,,,,,,,,,,,,,,,,,,,
,,,,,,,,2023-08-06_08h26.56.799,HF_wild_card,2022.2.4,MacIntel,59.84082341,61588a883213fd00ccae7c21,64ce5acb97489d65b14ecc7a,64cf4b05db0b6e38c7050e47,,,,,,,decisionTrl,resources/DG.BMP,resources/DB.BMP,Door4,0.002369792,0.01609809,0,0,1,0.1142,optionLeft,80,15970,7,22,0,22,0,1,,,,,,,,,,,,,,,,,,,,,,,,,,,,,,,,,,,,,,,
,,,,,,,,2023-08-06_08h26.56.799,HF_wild_card,2022.2.4,MacIntel,59.84082341,61588a883213fd00ccae7c21,64ce5acb97489d65b14ecc7a,64cf4b05db0b6e38c7050e47,,,,,,,decisionTrl,resources/DBN.BMP,resources/DY.BMP,Door1,0.021809896,0.010381944,0,0,1,0.1322,optionRight,30,16000,7,23,0,23,0,1,,,,,,,,,,,,,,,,,,,,,,,,,,,,,,,,,,,,,,,
,,,,,,,,2023-08-06_08h26.56.799,HF_wild_card,2022.2.4,MacIntel,59.84082341,61588a883213fd00ccae7c21,64ce5acb97489d65b14ecc7a,64cf4b05db0b6e38c7050e47,,,,,,,decisionTrl,resources/DY.BMP,resources/DBN.BMP,Door1,0.005815972,-0.002569444,0,0,1,0.0816,optionLeft,30,16030,7,24,0,24,0,1,,,,,,,,,,,,,,,,,,,,,,,,,,,,,,,,,,,,,,,
,,,,,,,,2023-08-06_08h26.56.799,HF_wild_card,2022.2.4,MacIntel,59.84082341,61588a883213fd00ccae7c21,64ce5acb97489d65b14ecc7a,64cf4b05db0b6e38c7050e47,,,,,,,ctch,resources/DG.BMP,resources/DY.BMP,Door4,0.020742187,0.002473958,0,0,1,0.0985,optionLeft,80,16110,7,25,0,25,0,1,,,,,,,,,,,,,,,,,,,,,,,,,,,,,,,,,,,,,,,
,,,,,,,,2023-08-06_08h26.56.799,HF_wild_card,2022.2.4,MacIntel,59.84082341,61588a883213fd00ccae7c21,64ce5acb97489d65b14ecc7a,64cf4b05db0b6e38c7050e47,,,,,,,decisionTrl,resources/DB.BMP,resources/DG.BMP,Door4,-0.006362847,-0.018090278,0,0,1,0.1317,optionRight,60,16170,7,26,0,26,0,1,,,,,,,,,,,,,,,,,,,,,,,,,,,,,,,,,,,,,,,
,,,,,,,,2023-08-06_08h26.56.799,HF_wild_card,2022.2.4,MacIntel,59.84082341,61588a883213fd00ccae7c21,64ce5acb97489d65b14ecc7a,64cf4b05db0b6e38c7050e47,,,,,,,decisionTrl,resources/DY.BMP,resources/DBN.BMP,Door1,-0.004774306,0.005125868,0,0,1,0.1474,optionLeft,30,16200,7,27,0,27,0,1,,,,,,,,,,,,,,,,,,,,,,,,,,,,,,,,,,,,,,,
,,,,,,,,2023-08-06_08h26.56.799,HF_wild_card,2022.2.4,MacIntel,59.84082341,61588a883213fd00ccae7c21,64ce5acb97489d65b14ecc7a,64cf4b05db0b6e38c7050e47,,,,,,,decisionTrl,resources/DB.BMP,resources/DG.BMP,Door4,-0.010711806,0.000303819,0,0,1,0.1125,optionRight,80,16280,7,28,0,28,0,1,,,,,,,,,,,,,,,,,,,,,,,,,,,,,,,,,,,,,,,
,,,,,,,,2023-08-06_08h26.56.799,HF_wild_card,2022.2.4,MacIntel,59.84082341,61588a883213fd00ccae7c21,64ce5acb97489d65b14ecc7a,64cf4b05db0b6e38c7050e47,,,,,,,decisionTrl,resources/DBN.BMP,resources/DY.BMP,Door1,0.007230903,0.017387153,0,0,1,0.1309,optionRight,30,16310,7,29,0,29,0,1,,,,,,,,,,,,,,,,,,,,,,,,,,,,,,,,,,,,,,,
,,,,,,,,2023-08-06_08h26.56.799,HF_wild_card,2022.2.4,MacIntel,59.84082341,61588a883213fd00ccae7c21,64ce5acb97489d65b14ecc7a,64cf4b05db0b6e38c7050e47,,,,,,,ctch,resources/DG.BMP,resources/DY.BMP,Door4,0.004431424,-0.001692708,0,0,1,0.0488,optionLeft,60,16370,7,30,0,30,0,1,,,,,,,,,,,,,,,,,,,,,,,,,,,,,,,,,,,,,,,
,,,,,,,,2023-08-06_08h26.56.799,HF_wild_card,2022.2.4,MacIntel,59.84082341,61588a883213fd00ccae7c21,64ce5acb97489d65b14ecc7a,64cf4b05db0b6e38c7050e47,,,,,,,ctch,resources/DB.BMP,resources/DBN.BMP,Door3,-0.007356771,-0.014474826,0,0,1,0.113,optionLeft,70,16440,7,31,0,31,0,1,,,,,,,,,,,,,,,,,,,,,,,,,,,,,,,,,,,,,,,
,,,,,,,,2023-08-06_08h26.56.799,HF_wild_card,2022.2.4,MacIntel,59.84082341,61588a883213fd00ccae7c21,64ce5acb97489d65b14ecc7a,64cf4b05db0b6e38c7050e47,,,,,,,decisionTrl,resources/DBN.BMP,resources/DY.BMP,Door1,0.000282118,0.001636285,0,0,1,0.1319,optionRight,30,16470,7,32,0,32,0,1,,,,,,,,,,,,,,,,,,,,,,,,,,,,,,,,,,,,,,,
,,,,,,,,2023-08-06_08h26.56.799,HF_wild_card,2022.2.4,MacIntel,59.84082341,61588a883213fd00ccae7c21,64ce5acb97489d65b14ecc7a,64cf4b05db0b6e38c7050e47,,,,,,,decisionTrl,resources/DB.BMP,resources/DG.BMP,Door4,0.008576389,0.005642361,0,0,1,0.0952,optionRight,60,16530,7,33,0,33,0,1,,,,,,,,,,,,,,,,,,,,,,,,,,,,,,,,,,,,,,,
,,,,,,,,2023-08-06_08h26.56.799,HF_wild_card,2022.2.4,MacIntel,59.84082341,61588a883213fd00ccae7c21,64ce5acb97489d65b14ecc7a,64cf4b05db0b6e38c7050e47,,,,,,,ctch,resources/DY.BMP,resources/DG.BMP,Door4,-0.006297743,-0.004574653,0,0,1,0.114,optionRight,80,16610,7,34,0,34,0,1,,,,,,,,,,,,,,,,,,,,,,,,,,,,,,,,,,,,,,,
,,,,,,,,2023-08-06_08h26.56.799,HF_wild_card,2022.2.4,MacIntel,59.84082341,61588a883213fd00ccae7c21,64ce5acb97489d65b14ecc7a,64cf4b05db0b6e38c7050e47,,,,,,,ctch,resources/DY.BMP,resources/DG.BMP,Door4,0.022491319,-0.004696181,0,0,1,0.1816,optionRight,80,16690,7,35,0,35,0,1,,,,,,,,,,,,,,,,,,,,,,,,,,,,,,,,,,,,,,,
,,,,,,,,2023-08-06_08h26.56.799,HF_wild_card,2022.2.4,MacIntel,59.84082341,61588a883213fd00ccae7c21,64ce5acb97489d65b14ecc7a,64cf4b05db0b6e38c7050e47,,,,,,,,,,,,,,,,,,,,,,,,,,6,0,6,0,1,,,,,,,,,,,,,,,,,,,,,,,,,,,,,,,,,,
,,,,,,,,2023-08-06_08h26.56.799,HF_wild_card,2022.2.4,MacIntel,59.84082341,61588a883213fd00ccae7c21,64ce5acb97489d65b14ecc7a,64cf4b05db0b6e38c7050e47,,,,,,,,,,,,,,,,,,,,,,,,,,,,,,,4,,,,,,,,,,,,,,,,,,,,,,,,,,,,,,,,,
,,,,,,,,2023-08-06_08h26.56.799,HF_wild_card,2022.2.4,MacIntel,59.84082341,61588a883213fd00ccae7c21,64ce5acb97489d65b14ecc7a,64cf4b05db0b6e38c7050e47,,,,,,,,,,,,,,,,,,,,,,,,,,,,,,,,,,,,,,,,,,,,,,,,,,,,,,,,,,,,,,,,
,,,,,,,,2023-08-06_08h26.56.799,HF_wild_card,2022.2.4,MacIntel,59.84082341,61588a883213fd00ccae7c21,64ce5acb97489d65b14ecc7a,64cf4b05db0b6e38c7050e47,,,,,,,,,,,,,,,,,,,,,,,,,,,,,,,,25,Door2,resources/DBN.BMP,0,0,0,0,1,,,,,,,,,,,,,,,,,,,,,,,,,
,,,,,,,,2023-08-06_08h26.56.799,HF_wild_card,2022.2.4,MacIntel,59.84082341,61588a883213fd00ccae7c21,64ce5acb97489d65b14ecc7a,64cf4b05db0b6e38c7050e47,,,,,,,,,,,,,,,,,,,,,,,,,,,,,,,,40,Door1,resources/DY.BMP,1,0,1,0,1,,,,,,,,,,,,,,,,,,,,,,,,,
,,,,,,,,2023-08-06_08h26.56.799,HF_wild_card,2022.2.4,MacIntel,59.84082341,61588a883213fd00ccae7c21,64ce5acb97489d65b14ecc7a,64cf4b05db0b6e38c7050e47,,,,,,,,,,,,,,,,,,,,,,,,,,,,,,,,60,Door3,resources/DB.BMP,2,0,2,0,1,,,,,,,,,,,,,,,,,,,,,,,,,
