Condition,Low fixed image (Door1),Low risky image (Door2),High fixed image (Door3),High risky image (Door4),Extreme Wild Card,NonExtreme Wild Card,,date,expName,psychopyVersion,OS,frameRate,PROLIFIC_PID,STUDY_ID,SESSION_ID,mouse_2.x,mouse_2.y,mouse_2.leftButton,mouse_2.midButton,mouse_2.rightButton,mouse_2.clicked_name,Trial Type,Left Option Image,Right Option Image,Chosen Door,mouse.x,mouse.y,mouse.leftButton,mouse.midButton,mouse.rightButton,mouse.time,mouse.clicked_name,Feedback,Cumulative Reward,Block,trial.thisRepN,trial.thisTrialN,trial.thisN,trial.thisIndex,trial.ran,blocks.thisRepN,blocks.thisTrialN,blocks.thisN,blocks.thisIndex,blocks.ran,Money conversion,First Outcome Reported,Shown Door (First Outcome),Displayed Image (First Outcome),outcomes.thisRepN,outcomes.thisTrialN,outcomes.thisN,outcomes.thisIndex,outcomes.ran,judgments.thisRepN,judgments.thisTrialN,judgments.thisN,judgments.thisIndex,judgments.ran,freqMouse.x,freqMouse.y,freqMouse.leftButton,freqMouse.midButton,freqMouse.rightButton,freqMouse.clicked_name,FQJ for first outcome,FQJ for second outcome,Shown Door,Displayed Image,trials.thisRepN,trials.thisTrialN,trials.thisN,trials.thisIndex,trials.ran,judgBlock.thisRepN,judgBlock.thisTrialN,judgBlock.thisN,judgBlock.thisIndex,judgBlock.ran
1,resources/DBN.BMP,resources/DB.BMP,resources/DG.BMP,resources/DP.BMP,resources/DY.BMP,resources/DR.BMP,,2023-08-16_08h28.54.974,HF_wild_card,2022.2.4,Win32,60.87538808,63d13cca81e6d01c11fb0ca5,64d2fd46c836a06233681665,64dc7a9a449041920ea08dcd,,,,,,,,,,,,,,,,,,,,,,,,,,,,,,,,,,,,,,,,,,,,,,,,,,,,,,,,,,,,,,,,
,,,,,,,,2023-08-16_08h28.54.974,HF_wild_card,2022.2.4,Win32,60.87538808,63d13cca81e6d01c11fb0ca5,64d2fd46c836a06233681665,64dc7a9a449041920ea08dcd,-0.005555556,-0.412962963,1,0,0,agree,,,,,,,,,,,,,,,,,,,,,,,,,,,,,,,,,,,,,,,,,,,,,,,,,,,,,,,,,,
,,,,,,,,2023-08-16_08h28.54.974,HF_wild_card,2022.2.4,Win32,60.87538808,63d13cca81e6d01c11fb0ca5,64d2fd46c836a06233681665,64dc7a9a449041920ea08dcd,,,,,,,,,,,,,,,,,,,,,,,,,,,,,,,,,,,,,,,,,,,,,,,,,,,,,,,,,,,,,,,,
,,,,,,,,2023-08-16_08h28.54.974,HF_wild_card,2022.2.4,Win32,60.87538808,63d13cca81e6d01c11fb0ca5,64d2fd46c836a06233681665,64dc7a9a449041920ea08dcd,,,,,,,decisionTrl,resources/DR.BMP,resources/DG.BMP,WildCard_NonEx,-0.353703704,-0.132407407,1,0,0,4.1107,optionLeft,55,55,1,0,0,0,0,1,,,,,,,,,,,,,,,,,,,,,,,,,,,,,,,,,,,,,,,
,,,,,,,,2023-08-16_08h28.54.974,HF_wild_card,2022.2.4,Win32,60.87538808,63d13cca81e6d01c11fb0ca5,64d2fd46c836a06233681665,64dc7a9a449041920ea08dcd,,,,,,,sngl,resources/Empty.png,resources/DP.BMP,Door4,0.369444444,-0.078703704,1,0,0,1.4759,optionRight,60,115,1,1,0,1,0,1,,,,,,,,,,,,,,,,,,,,,,,,,,,,,,,,,,,,,,,
,,,,,,,,2023-08-16_08h28.54.974,HF_wild_card,2022.2.4,Win32,60.87538808,63d13cca81e6d01c11fb0ca5,64d2fd46c836a06233681665,64dc7a9a449041920ea08dcd,,,,,,,decisionTrl,resources/DP.BMP,resources/DG.BMP,Door4,-0.323148148,-0.062962963,1,0,0,3.3766,optionLeft,80,195,1,2,0,2,0,1,,,,,,,,,,,,,,,,,,,,,,,,,,,,,,,,,,,,,,,
,,,,,,,,2023-08-16_08h28.54.974,HF_wild_card,2022.2.4,Win32,60.87538808,63d13cca81e6d01c11fb0ca5,64d2fd46c836a06233681665,64dc7a9a449041920ea08dcd,,,,,,,decisionTrl,resources/DP.BMP,resources/DG.BMP,Door4,-0.333333333,-0.075925926,1,0,0,1.7268,optionLeft,60,255,1,3,0,3,0,1,,,,,,,,,,,,,,,,,,,,,,,,,,,,,,,,,,,,,,,
,,,,,,,,2023-08-16_08h28.54.974,HF_wild_card,2022.2.4,Win32,60.87538808,63d13cca81e6d01c11fb0ca5,64d2fd46c836a06233681665,64dc7a9a449041920ea08dcd,,,,,,,ctch,resources/DP.BMP,resources/DBN.BMP,Door4,-0.402777778,-0.069444444,1,0,0,1.7605,optionLeft,80,335,1,4,0,4,0,1,,,,,,,,,,,,,,,,,,,,,,,,,,,,,,,,,,,,,,,
,,,,,,,,2023-08-16_08h28.54.974,HF_wild_card,2022.2.4,Win32,60.87538808,63d13cca81e6d01c11fb0ca5,64d2fd46c836a06233681665,64dc7a9a449041920ea08dcd,,,,,,,decisionTrl,resources/DG.BMP,resources/DP.BMP,Door4,0.352777778,-0.041666667,1,0,0,2.0931,optionRight,60,395,1,5,0,5,0,1,,,,,,,,,,,,,,,,,,,,,,,,,,,,,,,,,,,,,,,
,,,,,,,,2023-08-16_08h28.54.974,HF_wild_card,2022.2.4,Win32,60.87538808,63d13cca81e6d01c11fb0ca5,64d2fd46c836a06233681665,64dc7a9a449041920ea08dcd,,,,,,,sngl,resources/Empty.png,resources/DBN.BMP,Door1,0.340740741,0.014814815,1,0,0,1.1308,optionRight,30,425,1,6,0,6,0,1,,,,,,,,,,,,,,,,,,,,,,,,,,,,,,,,,,,,,,,
,,,,,,,,2023-08-16_08h28.54.974,HF_wild_card,2022.2.4,Win32,60.87538808,63d13cca81e6d01c11fb0ca5,64d2fd46c836a06233681665,64dc7a9a449041920ea08dcd,,,,,,,decisionTrl,resources/DR.BMP,resources/DBN.BMP,Door1,0.377777778,0.031481481,1,0,0,1.3292,optionRight,30,455,1,7,0,7,0,1,,,,,,,,,,,,,,,,,,,,,,,,,,,,,,,,,,,,,,,
,,,,,,,,2023-08-16_08h28.54.974,HF_wild_card,2022.2.4,Win32,60.87538808,63d13cca81e6d01c11fb0ca5,64d2fd46c836a06233681665,64dc7a9a449041920ea08dcd,,,,,,,decisionTrl,resources/DBN.BMP,resources/DB.BMP,Door2,0.261111111,-0.019444444,1,0,0,0.7976,optionRight,40,495,1,8,0,8,0,1,,,,,,,,,,,,,,,,,,,,,,,,,,,,,,,,,,,,,,,
,,,,,,,,2023-08-16_08h28.54.974,HF_wild_card,2022.2.4,Win32,60.87538808,63d13cca81e6d01c11fb0ca5,64d2fd46c836a06233681665,64dc7a9a449041920ea08dcd,,,,,,,sngl,resources/Empty.png,resources/DR.BMP,WildCard_NonEx,0.322222222,-0.031481481,1,0,0,1.5801,optionRight,45,540,1,9,0,9,0,1,,,,,,,,,,,,,,,,,,,,,,,,,,,,,,,,,,,,,,,
,,,,,,,,2023-08-16_08h28.54.974,HF_wild_card,2022.2.4,Win32,60.87538808,63d13cca81e6d01c11fb0ca5,64d2fd46c836a06233681665,64dc7a9a449041920ea08dcd,,,,,,,ctch,resources/DB.BMP,resources/DG.BMP,Door3,0.421296296,0.019444444,1,0,0,4.7947,optionRight,70,610,1,10,0,10,0,1,,,,,,,,,,,,,,,,,,,,,,,,,,,,,,,,,,,,,,,
,,,,,,,,2023-08-16_08h28.54.974,HF_wild_card,2022.2.4,Win32,60.87538808,63d13cca81e6d01c11fb0ca5,64d2fd46c836a06233681665,64dc7a9a449041920ea08dcd,,,,,,,decisionTrl,resources/DR.BMP,resources/DB.BMP,WildCard_NonEx,-0.302777778,-0.053703704,1,0,0,1.1938,optionLeft,55,665,1,11,0,11,0,1,,,,,,,,,,,,,,,,,,,,,,,,,,,,,,,,,,,,,,,
,,,,,,,,2023-08-16_08h28.54.974,HF_wild_card,2022.2.4,Win32,60.87538808,63d13cca81e6d01c11fb0ca5,64d2fd46c836a06233681665,64dc7a9a449041920ea08dcd,,,,,,,decisionTrl,resources/DB.BMP,resources/DBN.BMP,Door2,-0.309259259,-0.031481481,1,0,0,1.0448,optionLeft,40,705,1,12,0,12,0,1,,,,,,,,,,,,,,,,,,,,,,,,,,,,,,,,,,,,,,,
,,,,,,,,2023-08-16_08h28.54.974,HF_wild_card,2022.2.4,Win32,60.87538808,63d13cca81e6d01c11fb0ca5,64d2fd46c836a06233681665,64dc7a9a449041920ea08dcd,,,,,,,sngl,resources/Empty.png,resources/DB.BMP,Door2,0.305555556,-0.027777778,1,0,0,0.8277,optionRight,20,725,1,13,0,13,0,1,,,,,,,,,,,,,,,,,,,,,,,,,,,,,,,,,,,,,,,
,,,,,,,,2023-08-16_08h28.54.974,HF_wild_card,2022.2.4,Win32,60.87538808,63d13cca81e6d01c11fb0ca5,64d2fd46c836a06233681665,64dc7a9a449041920ea08dcd,,,,,,,sngl,resources/DBN.BMP,resources/Empty.png,Door1,-0.238888889,-0.04537037,1,0,0,0.7442,optionLeft,30,755,1,14,0,14,0,1,,,,,,,,,,,,,,,,,,,,,,,,,,,,,,,,,,,,,,,
,,,,,,,,2023-08-16_08h28.54.974,HF_wild_card,2022.2.4,Win32,60.87538808,63d13cca81e6d01c11fb0ca5,64d2fd46c836a06233681665,64dc7a9a449041920ea08dcd,,,,,,,decisionTrl,resources/DP.BMP,resources/DR.BMP,WildCard_NonEx,0.35,-0.025925926,1,0,0,1.4642,optionRight,55,810,1,15,0,15,0,1,,,,,,,,,,,,,,,,,,,,,,,,,,,,,,,,,,,,,,,
,,,,,,,,2023-08-16_08h28.54.974,HF_wild_card,2022.2.4,Win32,60.87538808,63d13cca81e6d01c11fb0ca5,64d2fd46c836a06233681665,64dc7a9a449041920ea08dcd,,,,,,,decisionTrl,resources/DBN.BMP,resources/DB.BMP,Door2,0.346296296,-0.022222222,1,0,0,1.8604,optionRight,40,850,1,16,0,16,0,1,,,,,,,,,,,,,,,,,,,,,,,,,,,,,,,,,,,,,,,
,,,,,,,,2023-08-16_08h28.54.974,HF_wild_card,2022.2.4,Win32,60.87538808,63d13cca81e6d01c11fb0ca5,64d2fd46c836a06233681665,64dc7a9a449041920ea08dcd,,,,,,,decisionTrl,resources/DBN.BMP,resources/DB.BMP,Door2,0.330555556,-0.016666667,1,0,0,1.2125,optionRight,20,870,1,17,0,17,0,1,,,,,,,,,,,,,,,,,,,,,,,,,,,,,,,,,,,,,,,
,,,,,,,,2023-08-16_08h28.54.974,HF_wild_card,2022.2.4,Win32,60.87538808,63d13cca81e6d01c11fb0ca5,64d2fd46c836a06233681665,64dc7a9a449041920ea08dcd,,,,,,,sngl,resources/DG.BMP,resources/Empty.png,Door3,-0.282407407,-0.067592593,1,0,0,0.7776,optionLeft,70,940,1,18,0,18,0,1,,,,,,,,,,,,,,,,,,,,,,,,,,,,,,,,,,,,,,,
,,,,,,,,2023-08-16_08h28.54.974,HF_wild_card,2022.2.4,Win32,60.87538808,63d13cca81e6d01c11fb0ca5,64d2fd46c836a06233681665,64dc7a9a449041920ea08dcd,,,,,,,decisionTrl,resources/DBN.BMP,resources/DB.BMP,Door1,-0.325925926,-0.006481481,1,0,0,2.0813,optionLeft,30,970,1,19,0,19,0,1,,,,,,,,,,,,,,,,,,,,,,,,,,,,,,,,,,,,,,,
,,,,,,,,2023-08-16_08h28.54.974,HF_wild_card,2022.2.4,Win32,60.87538808,63d13cca81e6d01c11fb0ca5,64d2fd46c836a06233681665,64dc7a9a449041920ea08dcd,,,,,,,decisionTrl,resources/DG.BMP,resources/DR.BMP,WildCard_NonEx,0.292592593,-0.011111111,1,0,0,1.5274,optionRight,45,1015,1,20,0,20,0,1,,,,,,,,,,,,,,,,,,,,,,,,,,,,,,,,,,,,,,,
,,,,,,,,2023-08-16_08h28.54.974,HF_wild_card,2022.2.4,Win32,60.87538808,63d13cca81e6d01c11fb0ca5,64d2fd46c836a06233681665,64dc7a9a449041920ea08dcd,,,,,,,ctch,resources/DBN.BMP,resources/DP.BMP,Door4,0.315740741,-0.013888889,1,0,0,1.2108,optionRight,60,1075,1,21,0,21,0,1,,,,,,,,,,,,,,,,,,,,,,,,,,,,,,,,,,,,,,,
,,,,,,,,2023-08-16_08h28.54.974,HF_wild_card,2022.2.4,Win32,60.87538808,63d13cca81e6d01c11fb0ca5,64d2fd46c836a06233681665,64dc7a9a449041920ea08dcd,,,,,,,sngl,resources/DR.BMP,resources/Empty.png,WildCard_NonEx,-0.306481481,-0.043518519,1,0,0,0.8796,optionLeft,45,1120,1,22,0,22,0,1,,,,,,,,,,,,,,,,,,,,,,,,,,,,,,,,,,,,,,,
,,,,,,,,2023-08-16_08h28.54.974,HF_wild_card,2022.2.4,Win32,60.87538808,63d13cca81e6d01c11fb0ca5,64d2fd46c836a06233681665,64dc7a9a449041920ea08dcd,,,,,,,sngl,resources/DB.BMP,resources/Empty.png,Door2,-0.315740741,-0.036111111,1,0,0,0.7945,optionLeft,40,1160,1,23,0,23,0,1,,,,,,,,,,,,,,,,,,,,,,,,,,,,,,,,,,,,,,,
,,,,,,,,2023-08-16_08h28.54.974,HF_wild_card,2022.2.4,Win32,60.87538808,63d13cca81e6d01c11fb0ca5,64d2fd46c836a06233681665,64dc7a9a449041920ea08dcd,,,,,,,ctch,resources/DB.BMP,resources/DG.BMP,Door3,0.439814815,0.02962963,1,0,0,1.7772,optionRight,70,1230,1,24,0,24,0,1,,,,,,,,,,,,,,,,,,,,,,,,,,,,,,,,,,,,,,,
,,,,,,,,2023-08-16_08h28.54.974,HF_wild_card,2022.2.4,Win32,60.87538808,63d13cca81e6d01c11fb0ca5,64d2fd46c836a06233681665,64dc7a9a449041920ea08dcd,,,,,,,decisionTrl,resources/DR.BMP,resources/DP.BMP,Door4,0.353703704,0.023148148,1,0,0,3.2055,optionRight,60,1290,1,25,0,25,0,1,,,,,,,,,,,,,,,,,,,,,,,,,,,,,,,,,,,,,,,
,,,,,,,,2023-08-16_08h28.54.974,HF_wild_card,2022.2.4,Win32,60.87538808,63d13cca81e6d01c11fb0ca5,64d2fd46c836a06233681665,64dc7a9a449041920ea08dcd,,,,,,,ctch,resources/DG.BMP,resources/DB.BMP,Door3,-0.199074074,-0.030555556,1,0,0,1.1808,optionLeft,70,1360,1,26,0,26,0,1,,,,,,,,,,,,,,,,,,,,,,,,,,,,,,,,,,,,,,,
,,,,,,,,2023-08-16_08h28.54.974,HF_wild_card,2022.2.4,Win32,60.87538808,63d13cca81e6d01c11fb0ca5,64d2fd46c836a06233681665,64dc7a9a449041920ea08dcd,,,,,,,decisionTrl,resources/DB.BMP,resources/DBN.BMP,Door2,-0.330555556,-0.018518519,1,0,0,0.8448,optionLeft,40,1400,1,27,0,27,0,1,,,,,,,,,,,,,,,,,,,,,,,,,,,,,,,,,,,,,,,
,,,,,,,,2023-08-16_08h28.54.974,HF_wild_card,2022.2.4,Win32,60.87538808,63d13cca81e6d01c11fb0ca5,64d2fd46c836a06233681665,64dc7a9a449041920ea08dcd,,,,,,,ctch,resources/DG.BMP,resources/DB.BMP,Door3,-0.328703704,-0.05462963,1,0,0,0.7474,optionLeft,70,1470,1,28,0,28,0,1,,,,,,,,,,,,,,,,,,,,,,,,,,,,,,,,,,,,,,,
,,,,,,,,2023-08-16_08h28.54.974,HF_wild_card,2022.2.4,Win32,60.87538808,63d13cca81e6d01c11fb0ca5,64d2fd46c836a06233681665,64dc7a9a449041920ea08dcd,,,,,,,decisionTrl,resources/DBN.BMP,resources/DR.BMP,WildCard_NonEx,0.432407407,-0.021296296,1,0,0,0.8469,optionRight,45,1515,1,29,0,29,0,1,,,,,,,,,,,,,,,,,,,,,,,,,,,,,,,,,,,,,,,
,,,,,,,,2023-08-16_08h28.54.974,HF_wild_card,2022.2.4,Win32,60.87538808,63d13cca81e6d01c11fb0ca5,64d2fd46c836a06233681665,64dc7a9a449041920ea08dcd,,,,,,,ctch,resources/DP.BMP,resources/DBN.BMP,Door4,-0.302777778,-0.031481481,1,0,0,1.2937,optionLeft,60,1575,1,30,0,30,0,1,,,,,,,,,,,,,,,,,,,,,,,,,,,,,,,,,,,,,,,
,,,,,,,,2023-08-16_08h28.54.974,HF_wild_card,2022.2.4,Win32,60.87538808,63d13cca81e6d01c11fb0ca5,64d2fd46c836a06233681665,64dc7a9a449041920ea08dcd,,,,,,,decisionTrl,resources/DP.BMP,resources/DG.BMP,Door4,-0.302777778,-0.037037037,1,0,0,1.5444,optionLeft,60,1635,1,31,0,31,0,1,,,,,,,,,,,,,,,,,,,,,,,,,,,,,,,,,,,,,,,
,,,,,,,,2023-08-16_08h28.54.974,HF_wild_card,2022.2.4,Win32,60.87538808,63d13cca81e6d01c11fb0ca5,64d2fd46c836a06233681665,64dc7a9a449041920ea08dcd,,,,,,,decisionTrl,resources/DG.BMP,resources/DP.BMP,Door4,0.525,-0.025,1,0,0,0.8467,optionRight,60,1695,1,32,0,32,0,1,,,,,,,,,,,,,,,,,,,,,,,,,,,,,,,,,,,,,,,
,,,,,,,,2023-08-16_08h28.54.974,HF_wild_card,2022.2.4,Win32,60.87538808,63d13cca81e6d01c11fb0ca5,64d2fd46c836a06233681665,64dc7a9a449041920ea08dcd,,,,,,,decisionTrl,resources/DG.BMP,resources/DP.BMP,Door4,0.298148148,-0.006481481,1,0,0,1.3834,optionRight,80,1775,1,33,0,33,0,1,,,,,,,,,,,,,,,,,,,,,,,,,,,,,,,,,,,,,,,
,,,,,,,,2023-08-16_08h28.54.974,HF_wild_card,2022.2.4,Win32,60.87538808,63d13cca81e6d01c11fb0ca5,64d2fd46c836a06233681665,64dc7a9a449041920ea08dcd,,,,,,,ctch,resources/DBN.BMP,resources/DP.BMP,Door4,0.360185185,-0.017592593,1,0,0,0.6465,optionRight,60,1835,1,34,0,34,0,1,,,,,,,,,,,,,,,,,,,,,,,,,,,,,,,,,,,,,,,
,,,,,,,,2023-08-16_08h28.54.974,HF_wild_card,2022.2.4,Win32,60.87538808,63d13cca81e6d01c11fb0ca5,64d2fd46c836a06233681665,64dc7a9a449041920ea08dcd,,,,,,,decisionTrl,resources/DG.BMP,resources/DP.BMP,Door4,0.419444444,-0.023148148,1,0,0,0.5127,optionRight,60,1895,1,35,0,35,0,1,,,,,,,,,,,,,,,,,,,,,,,,,,,,,,,,,,,,,,,
,,,,,,,,2023-08-16_08h28.54.974,HF_wild_card,2022.2.4,Win32,60.87538808,63d13cca81e6d01c11fb0ca5,64d2fd46c836a06233681665,64dc7a9a449041920ea08dcd,,,,,,,decisionTrl,resources/DB.BMP,resources/DBN.BMP,Door2,-0.316666667,-0.075925926,1,0,0,0.9959,optionLeft,40,1935,1,36,0,36,0,1,,,,,,,,,,,,,,,,,,,,,,,,,,,,,,,,,,,,,,,
,,,,,,,,2023-08-16_08h28.54.974,HF_wild_card,2022.2.4,Win32,60.87538808,63d13cca81e6d01c11fb0ca5,64d2fd46c836a06233681665,64dc7a9a449041920ea08dcd,,,,,,,sngl,resources/Empty.png,resources/DG.BMP,Door3,0.287037037,-0.026851852,1,0,0,0.6323,optionRight,70,2005,1,37,0,37,0,1,,,,,,,,,,,,,,,,,,,,,,,,,,,,,,,,,,,,,,,
,,,,,,,,2023-08-16_08h28.54.974,HF_wild_card,2022.2.4,Win32,60.87538808,63d13cca81e6d01c11fb0ca5,64d2fd46c836a06233681665,64dc7a9a449041920ea08dcd,,,,,,,decisionTrl,resources/DB.BMP,resources/DBN.BMP,Door1,0.322222222,-0.002777778,1,0,0,0.9831,optionRight,30,2035,1,38,0,38,0,1,,,,,,,,,,,,,,,,,,,,,,,,,,,,,,,,,,,,,,,
,,,,,,,,2023-08-16_08h28.54.974,HF_wild_card,2022.2.4,Win32,60.87538808,63d13cca81e6d01c11fb0ca5,64d2fd46c836a06233681665,64dc7a9a449041920ea08dcd,,,,,,,decisionTrl,resources/DP.BMP,resources/DG.BMP,Door4,-0.314814815,-0.037037037,1,0,0,0.7309,optionLeft,60,2095,1,39,0,39,0,1,,,,,,,,,,,,,,,,,,,,,,,,,,,,,,,,,,,,,,,
,,,,,,,,2023-08-16_08h28.54.974,HF_wild_card,2022.2.4,Win32,60.87538808,63d13cca81e6d01c11fb0ca5,64d2fd46c836a06233681665,64dc7a9a449041920ea08dcd,,,,,,,decisionTrl,resources/DB.BMP,resources/DR.BMP,WildCard_NonEx,0.343518519,-0.006481481,1,0,0,0.8831,optionRight,55,2150,1,40,0,40,0,1,,,,,,,,,,,,,,,,,,,,,,,,,,,,,,,,,,,,,,,
,,,,,,,,2023-08-16_08h28.54.974,HF_wild_card,2022.2.4,Win32,60.87538808,63d13cca81e6d01c11fb0ca5,64d2fd46c836a06233681665,64dc7a9a449041920ea08dcd,,,,,,,sngl,resources/DR.BMP,resources/Empty.png,WildCard_NonEx,-0.278703704,-0.048148148,1,0,0,0.6918,optionLeft,55,2205,1,41,0,41,0,1,,,,,,,,,,,,,,,,,,,,,,,,,,,,,,,,,,,,,,,
,,,,,,,,2023-08-16_08h28.54.974,HF_wild_card,2022.2.4,Win32,60.87538808,63d13cca81e6d01c11fb0ca5,64d2fd46c836a06233681665,64dc7a9a449041920ea08dcd,,,,,,,sngl,resources/Empty.png,resources/DR.BMP,WildCard_NonEx,0.303703704,0.000925926,1,0,0,0.5294,optionRight,55,2260,1,42,0,42,0,1,,,,,,,,,,,,,,,,,,,,,,,,,,,,,,,,,,,,,,,
,,,,,,,,2023-08-16_08h28.54.974,HF_wild_card,2022.2.4,Win32,60.87538808,63d13cca81e6d01c11fb0ca5,64d2fd46c836a06233681665,64dc7a9a449041920ea08dcd,,,,,,,sngl,resources/DP.BMP,resources/Empty.png,Door4,-0.323148148,-0.053703704,1,0,0,0.4441,optionLeft,80,2340,1,43,0,43,0,1,,,,,,,,,,,,,,,,,,,,,,,,,,,,,,,,,,,,,,,
,,,,,,,,2023-08-16_08h28.54.974,HF_wild_card,2022.2.4,Win32,60.87538808,63d13cca81e6d01c11fb0ca5,64d2fd46c836a06233681665,64dc7a9a449041920ea08dcd,,,,,,,,,,,,,,,,,,,,,,,,,,0,0,0,0,1,,,,,,,,,,,,,,,,,,,,,,,,,,,,,,,,,,
,,,,,,,,2023-08-16_08h28.54.974,HF_wild_card,2022.2.4,Win32,60.87538808,63d13cca81e6d01c11fb0ca5,64d2fd46c836a06233681665,64dc7a9a449041920ea08dcd,,,,,,,sngl,resources/Empty.png,resources/DR.BMP,WildCard_NonEx,0.462962963,-0.014814815,1,0,0,0.7202,optionRight,45,2385,2,0,0,0,0,1,,,,,,,,,,,,,,,,,,,,,,,,,,,,,,,,,,,,,,,
,,,,,,,,2023-08-16_08h28.54.974,HF_wild_card,2022.2.4,Win32,60.87538808,63d13cca81e6d01c11fb0ca5,64d2fd46c836a06233681665,64dc7a9a449041920ea08dcd,,,,,,,ctch,resources/DB.BMP,resources/DG.BMP,Door2,-0.276851852,-0.038888889,1,0,0,0.4474,optionLeft,20,2405,2,1,0,1,0,1,,,,,,,,,,,,,,,,,,,,,,,,,,,,,,,,,,,,,,,
,,,,,,,,2023-08-16_08h28.54.974,HF_wild_card,2022.2.4,Win32,60.87538808,63d13cca81e6d01c11fb0ca5,64d2fd46c836a06233681665,64dc7a9a449041920ea08dcd,,,,,,,ctch,resources/DG.BMP,resources/DB.BMP,Door3,-0.290740741,-0.018518519,1,0,0,0.8785,optionLeft,70,2475,2,2,0,2,0,1,,,,,,,,,,,,,,,,,,,,,,,,,,,,,,,,,,,,,,,
,,,,,,,,2023-08-16_08h28.54.974,HF_wild_card,2022.2.4,Win32,60.87538808,63d13cca81e6d01c11fb0ca5,64d2fd46c836a06233681665,64dc7a9a449041920ea08dcd,,,,,,,decisionTrl,resources/DG.BMP,resources/DP.BMP,Door3,-0.259259259,-0.02037037,1,0,0,0.4777,optionLeft,70,2545,2,3,0,3,0,1,,,,,,,,,,,,,,,,,,,,,,,,,,,,,,,,,,,,,,,
,,,,,,,,2023-08-16_08h28.54.974,HF_wild_card,2022.2.4,Win32,60.87538808,63d13cca81e6d01c11fb0ca5,64d2fd46c836a06233681665,64dc7a9a449041920ea08dcd,,,,,,,decisionTrl,resources/DP.BMP,resources/DG.BMP,Door3,0.387037037,0.016666667,1,0,0,0.4778,optionRight,70,2615,2,4,0,4,0,1,,,,,,,,,,,,,,,,,,,,,,,,,,,,,,,,,,,,,,,
,,,,,,,,2023-08-16_08h28.54.974,HF_wild_card,2022.2.4,Win32,60.87538808,63d13cca81e6d01c11fb0ca5,64d2fd46c836a06233681665,64dc7a9a449041920ea08dcd,,,,,,,decisionTrl,resources/DG.BMP,resources/DP.BMP,Door3,-0.310185185,-0.050925926,1,0,0,0.7469,optionLeft,70,2685,2,5,0,5,0,1,,,,,,,,,,,,,,,,,,,,,,,,,,,,,,,,,,,,,,,
,,,,,,,,2023-08-16_08h28.54.974,HF_wild_card,2022.2.4,Win32,60.87538808,63d13cca81e6d01c11fb0ca5,64d2fd46c836a06233681665,64dc7a9a449041920ea08dcd,,,,,,,decisionTrl,resources/DBN.BMP,resources/DR.BMP,WildCard_NonEx,0.371296296,-0.021296296,1,0,0,0.9281,optionRight,45,2730,2,6,0,6,0,1,,,,,,,,,,,,,,,,,,,,,,,,,,,,,,,,,,,,,,,
,,,,,,,,2023-08-16_08h28.54.974,HF_wild_card,2022.2.4,Win32,60.87538808,63d13cca81e6d01c11fb0ca5,64d2fd46c836a06233681665,64dc7a9a449041920ea08dcd,,,,,,,decisionTrl,resources/DR.BMP,resources/DG.BMP,Door3,0.318518519,-0.00462963,1,0,0,0.9952,optionRight,70,2800,2,7,0,7,0,1,,,,,,,,,,,,,,,,,,,,,,,,,,,,,,,,,,,,,,,
,,,,,,,,2023-08-16_08h28.54.974,HF_wild_card,2022.2.4,Win32,60.87538808,63d13cca81e6d01c11fb0ca5,64d2fd46c836a06233681665,64dc7a9a449041920ea08dcd,,,,,,,sngl,resources/DR.BMP,resources/Empty.png,WildCard_NonEx,-0.322222222,-0.065740741,1,0,0,0.6791,optionLeft,45,2845,2,8,0,8,0,1,,,,,,,,,,,,,,,,,,,,,,,,,,,,,,,,,,,,,,,
,,,,,,,,2023-08-16_08h28.54.974,HF_wild_card,2022.2.4,Win32,60.87538808,63d13cca81e6d01c11fb0ca5,64d2fd46c836a06233681665,64dc7a9a449041920ea08dcd,,,,,,,decisionTrl,resources/DB.BMP,resources/DBN.BMP,Door2,-0.261111111,-0.003703704,1,0,0,1.428,optionLeft,40,2885,2,9,0,9,0,1,,,,,,,,,,,,,,,,,,,,,,,,,,,,,,,,,,,,,,,
,,,,,,,,2023-08-16_08h28.54.974,HF_wild_card,2022.2.4,Win32,60.87538808,63d13cca81e6d01c11fb0ca5,64d2fd46c836a06233681665,64dc7a9a449041920ea08dcd,,,,,,,sngl,resources/Empty.png,resources/DB.BMP,Door2,0.366666667,-0.012037037,1,0,0,0.5941,optionRight,40,2925,2,10,0,10,0,1,,,,,,,,,,,,,,,,,,,,,,,,,,,,,,,,,,,,,,,
,,,,,,,,2023-08-16_08h28.54.974,HF_wild_card,2022.2.4,Win32,60.87538808,63d13cca81e6d01c11fb0ca5,64d2fd46c836a06233681665,64dc7a9a449041920ea08dcd,,,,,,,ctch,resources/DG.BMP,resources/DB.BMP,Door3,-0.3,-0.038888889,1,0,0,0.731,optionLeft,70,2995,2,11,0,11,0,1,,,,,,,,,,,,,,,,,,,,,,,,,,,,,,,,,,,,,,,
,,,,,,,,2023-08-16_08h28.54.974,HF_wild_card,2022.2.4,Win32,60.87538808,63d13cca81e6d01c11fb0ca5,64d2fd46c836a06233681665,64dc7a9a449041920ea08dcd,,,,,,,decisionTrl,resources/DB.BMP,resources/DBN.BMP,Door1,0.32962963,-0.007407407,1,0,0,0.9511,optionRight,30,3025,2,12,0,12,0,1,,,,,,,,,,,,,,,,,,,,,,,,,,,,,,,,,,,,,,,
,,,,,,,,2023-08-16_08h28.54.974,HF_wild_card,2022.2.4,Win32,60.87538808,63d13cca81e6d01c11fb0ca5,64d2fd46c836a06233681665,64dc7a9a449041920ea08dcd,,,,,,,sngl,resources/Empty.png,resources/DR.BMP,WildCard_NonEx,0.411111111,-0.022222222,1,0,0,0.6297,optionRight,55,3080,2,13,0,13,0,1,,,,,,,,,,,,,,,,,,,,,,,,,,,,,,,,,,,,,,,
,,,,,,,,2023-08-16_08h28.54.974,HF_wild_card,2022.2.4,Win32,60.87538808,63d13cca81e6d01c11fb0ca5,64d2fd46c836a06233681665,64dc7a9a449041920ea08dcd,,,,,,,decisionTrl,resources/DR.BMP,resources/DP.BMP,WildCard_NonEx,-0.314814815,-0.044444444,1,0,0,1.829,optionLeft,55,3135,2,14,0,14,0,1,,,,,,,,,,,,,,,,,,,,,,,,,,,,,,,,,,,,,,,
,,,,,,,,2023-08-16_08h28.54.974,HF_wild_card,2022.2.4,Win32,60.87538808,63d13cca81e6d01c11fb0ca5,64d2fd46c836a06233681665,64dc7a9a449041920ea08dcd,,,,,,,decisionTrl,resources/DP.BMP,resources/DG.BMP,Door3,0.331481481,-0.022222222,1,0,0,0.7119,optionRight,70,3205,2,15,0,15,0,1,,,,,,,,,,,,,,,,,,,,,,,,,,,,,,,,,,,,,,,
,,,,,,,,2023-08-16_08h28.54.974,HF_wild_card,2022.2.4,Win32,60.87538808,63d13cca81e6d01c11fb0ca5,64d2fd46c836a06233681665,64dc7a9a449041920ea08dcd,,,,,,,ctch,resources/DBN.BMP,resources/DP.BMP,Door4,0.337037037,-0.036111111,1,0,0,1.0287,optionRight,80,3285,2,16,0,16,0,1,,,,,,,,,,,,,,,,,,,,,,,,,,,,,,,,,,,,,,,
,,,,,,,,2023-08-16_08h28.54.974,HF_wild_card,2022.2.4,Win32,60.87538808,63d13cca81e6d01c11fb0ca5,64d2fd46c836a06233681665,64dc7a9a449041920ea08dcd,,,,,,,decisionTrl,resources/DBN.BMP,resources/DB.BMP,Door2,0.368518519,-0.025925926,1,0,0,0.9283,optionRight,40,3325,2,17,0,17,0,1,,,,,,,,,,,,,,,,,,,,,,,,,,,,,,,,,,,,,,,
,,,,,,,,2023-08-16_08h28.54.974,HF_wild_card,2022.2.4,Win32,60.87538808,63d13cca81e6d01c11fb0ca5,64d2fd46c836a06233681665,64dc7a9a449041920ea08dcd,,,,,,,decisionTrl,resources/DBN.BMP,resources/DB.BMP,Door2,0.290740741,-0.02962963,1,0,0,0.6289,optionRight,40,3365,2,18,0,18,0,1,,,,,,,,,,,,,,,,,,,,,,,,,,,,,,,,,,,,,,,
,,,,,,,,2023-08-16_08h28.54.974,HF_wild_card,2022.2.4,Win32,60.87538808,63d13cca81e6d01c11fb0ca5,64d2fd46c836a06233681665,64dc7a9a449041920ea08dcd,,,,,,,sngl,resources/Empty.png,resources/DBN.BMP,Door1,0.371296296,-0.025925926,1,0,0,0.5943,optionRight,30,3395,2,19,0,19,0,1,,,,,,,,,,,,,,,,,,,,,,,,,,,,,,,,,,,,,,,
,,,,,,,,2023-08-16_08h28.54.974,HF_wild_card,2022.2.4,Win32,60.87538808,63d13cca81e6d01c11fb0ca5,64d2fd46c836a06233681665,64dc7a9a449041920ea08dcd,,,,,,,decisionTrl,resources/DG.BMP,resources/DP.BMP,Door3,-0.351851852,-0.012962963,1,0,0,1.2305,optionLeft,70,3465,2,20,0,20,0,1,,,,,,,,,,,,,,,,,,,,,,,,,,,,,,,,,,,,,,,
,,,,,,,,2023-08-16_08h28.54.974,HF_wild_card,2022.2.4,Win32,60.87538808,63d13cca81e6d01c11fb0ca5,64d2fd46c836a06233681665,64dc7a9a449041920ea08dcd,,,,,,,decisionTrl,resources/DR.BMP,resources/DB.BMP,WildCard_NonEx,-0.290740741,-0.078703704,1,0,0,1.7117,optionLeft,55,3520,2,21,0,21,0,1,,,,,,,,,,,,,,,,,,,,,,,,,,,,,,,,,,,,,,,
,,,,,,,,2023-08-16_08h28.54.974,HF_wild_card,2022.2.4,Win32,60.87538808,63d13cca81e6d01c11fb0ca5,64d2fd46c836a06233681665,64dc7a9a449041920ea08dcd,,,,,,,sngl,resources/DBN.BMP,resources/Empty.png,Door1,-0.240740741,-0.024074074,1,0,0,0.648,optionLeft,30,3550,2,22,0,22,0,1,,,,,,,,,,,,,,,,,,,,,,,,,,,,,,,,,,,,,,,
,,,,,,,,2023-08-16_08h28.54.974,HF_wild_card,2022.2.4,Win32,60.87538808,63d13cca81e6d01c11fb0ca5,64d2fd46c836a06233681665,64dc7a9a449041920ea08dcd,,,,,,,sngl,resources/DR.BMP,resources/Empty.png,WildCard_NonEx,-0.268518519,-0.046296296,1,0,0,0.5984,optionLeft,55,3605,2,23,0,23,0,1,,,,,,,,,,,,,,,,,,,,,,,,,,,,,,,,,,,,,,,
,,,,,,,,2023-08-16_08h28.54.974,HF_wild_card,2022.2.4,Win32,60.87538808,63d13cca81e6d01c11fb0ca5,64d2fd46c836a06233681665,64dc7a9a449041920ea08dcd,,,,,,,decisionTrl,resources/DG.BMP,resources/DR.BMP,WildCard_NonEx,0.232407407,-0.016666667,1,0,0,0.5589,optionRight,55,3660,2,24,0,24,0,1,,,,,,,,,,,,,,,,,,,,,,,,,,,,,,,,,,,,,,,
,,,,,,,,2023-08-16_08h28.54.974,HF_wild_card,2022.2.4,Win32,60.87538808,63d13cca81e6d01c11fb0ca5,64d2fd46c836a06233681665,64dc7a9a449041920ea08dcd,,,,,,,ctch,resources/DP.BMP,resources/DBN.BMP,Door4,-0.203703704,-0.018518519,1,0,0,0.6144,optionLeft,60,3720,2,25,0,25,0,1,,,,,,,,,,,,,,,,,,,,,,,,,,,,,,,,,,,,,,,
,,,,,,,,2023-08-16_08h28.54.974,HF_wild_card,2022.2.4,Win32,60.87538808,63d13cca81e6d01c11fb0ca5,64d2fd46c836a06233681665,64dc7a9a449041920ea08dcd,,,,,,,decisionTrl,resources/DP.BMP,resources/DR.BMP,Door4,-0.222222222,-0.022222222,1,0,0,0.4781,optionLeft,80,3800,2,26,0,26,0,1,,,,,,,,,,,,,,,,,,,,,,,,,,,,,,,,,,,,,,,
,,,,,,,,2023-08-16_08h28.54.974,HF_wild_card,2022.2.4,Win32,60.87538808,63d13cca81e6d01c11fb0ca5,64d2fd46c836a06233681665,64dc7a9a449041920ea08dcd,,,,,,,decisionTrl,resources/DP.BMP,resources/DG.BMP,Door4,-0.344444444,-0.061111111,1,0,0,0.4817,optionLeft,60,3860,2,27,0,27,0,1,,,,,,,,,,,,,,,,,,,,,,,,,,,,,,,,,,,,,,,
,,,,,,,,2023-08-16_08h28.54.974,HF_wild_card,2022.2.4,Win32,60.87538808,63d13cca81e6d01c11fb0ca5,64d2fd46c836a06233681665,64dc7a9a449041920ea08dcd,,,,,,,decisionTrl,resources/DB.BMP,resources/DR.BMP,WildCard_NonEx,0.367592593,-0.023148148,1,0,0,1.1317,optionRight,55,3915,2,28,0,28,0,1,,,,,,,,,,,,,,,,,,,,,,,,,,,,,,,,,,,,,,,
,,,,,,,,2023-08-16_08h28.54.974,HF_wild_card,2022.2.4,Win32,60.87538808,63d13cca81e6d01c11fb0ca5,64d2fd46c836a06233681665,64dc7a9a449041920ea08dcd,,,,,,,decisionTrl,resources/DB.BMP,resources/DBN.BMP,Door2,-0.298148148,-0.055555556,1,0,0,0.5641,optionLeft,40,3955,2,29,0,29,0,1,,,,,,,,,,,,,,,,,,,,,,,,,,,,,,,,,,,,,,,
,,,,,,,,2023-08-16_08h28.54.974,HF_wild_card,2022.2.4,Win32,60.87538808,63d13cca81e6d01c11fb0ca5,64d2fd46c836a06233681665,64dc7a9a449041920ea08dcd,,,,,,,decisionTrl,resources/DBN.BMP,resources/DB.BMP,Door2,0.316666667,-0.013888889,1,0,0,0.6957,optionRight,20,3975,2,30,0,30,0,1,,,,,,,,,,,,,,,,,,,,,,,,,,,,,,,,,,,,,,,
,,,,,,,,2023-08-16_08h28.54.974,HF_wild_card,2022.2.4,Win32,60.87538808,63d13cca81e6d01c11fb0ca5,64d2fd46c836a06233681665,64dc7a9a449041920ea08dcd,,,,,,,sngl,resources/DG.BMP,resources/Empty.png,Door3,-0.236111111,-0.028703704,1,0,0,0.6962,optionLeft,70,4045,2,31,0,31,0,1,,,,,,,,,,,,,,,,,,,,,,,,,,,,,,,,,,,,,,,
,,,,,,,,2023-08-16_08h28.54.974,HF_wild_card,2022.2.4,Win32,60.87538808,63d13cca81e6d01c11fb0ca5,64d2fd46c836a06233681665,64dc7a9a449041920ea08dcd,,,,,,,decisionTrl,resources/DBN.BMP,resources/DB.BMP,Door2,0.289814815,-0.009259259,1,0,0,0.5317,optionRight,20,4065,2,32,0,32,0,1,,,,,,,,,,,,,,,,,,,,,,,,,,,,,,,,,,,,,,,
,,,,,,,,2023-08-16_08h28.54.974,HF_wild_card,2022.2.4,Win32,60.87538808,63d13cca81e6d01c11fb0ca5,64d2fd46c836a06233681665,64dc7a9a449041920ea08dcd,,,,,,,sngl,resources/DB.BMP,resources/Empty.png,Door2,-0.39537037,-0.039814815,1,0,0,0.4806,optionLeft,20,4085,2,33,0,33,0,1,,,,,,,,,,,,,,,,,,,,,,,,,,,,,,,,,,,,,,,
,,,,,,,,2023-08-16_08h28.54.974,HF_wild_card,2022.2.4,Win32,60.87538808,63d13cca81e6d01c11fb0ca5,64d2fd46c836a06233681665,64dc7a9a449041920ea08dcd,,,,,,,ctch,resources/DB.BMP,resources/DG.BMP,Door3,0.388888889,-0.006481481,1,0,0,0.8954,optionRight,70,4155,2,34,0,34,0,1,,,,,,,,,,,,,,,,,,,,,,,,,,,,,,,,,,,,,,,
,,,,,,,,2023-08-16_08h28.54.974,HF_wild_card,2022.2.4,Win32,60.87538808,63d13cca81e6d01c11fb0ca5,64d2fd46c836a06233681665,64dc7a9a449041920ea08dcd,,,,,,,sngl,resources/Empty.png,resources/DP.BMP,Door4,0.325925926,-0.011111111,1,0,0,0.5295,optionRight,80,4235,2,35,0,35,0,1,,,,,,,,,,,,,,,,,,,,,,,,,,,,,,,,,,,,,,,
,,,,,,,,2023-08-16_08h28.54.974,HF_wild_card,2022.2.4,Win32,60.87538808,63d13cca81e6d01c11fb0ca5,64d2fd46c836a06233681665,64dc7a9a449041920ea08dcd,,,,,,,sngl,resources/Empty.png,resources/DG.BMP,Door3,0.401851852,-0.012962963,1,0,0,0.7137,optionRight,70,4305,2,36,0,36,0,1,,,,,,,,,,,,,,,,,,,,,,,,,,,,,,,,,,,,,,,
,,,,,,,,2023-08-16_08h28.54.974,HF_wild_card,2022.2.4,Win32,60.87538808,63d13cca81e6d01c11fb0ca5,64d2fd46c836a06233681665,64dc7a9a449041920ea08dcd,,,,,,,decisionTrl,resources/DP.BMP,resources/DG.BMP,Door4,-0.372222222,-0.066666667,1,0,0,0.6949,optionLeft,80,4385,2,37,0,37,0,1,,,,,,,,,,,,,,,,,,,,,,,,,,,,,,,,,,,,,,,
,,,,,,,,2023-08-16_08h28.54.974,HF_wild_card,2022.2.4,Win32,60.87538808,63d13cca81e6d01c11fb0ca5,64d2fd46c836a06233681665,64dc7a9a449041920ea08dcd,,,,,,,sngl,resources/DP.BMP,resources/Empty.png,Door4,-0.298148148,-0.057407407,1,0,0,0.4978,optionLeft,60,4445,2,38,0,38,0,1,,,,,,,,,,,,,,,,,,,,,,,,,,,,,,,,,,,,,,,
,,,,,,,,2023-08-16_08h28.54.974,HF_wild_card,2022.2.4,Win32,60.87538808,63d13cca81e6d01c11fb0ca5,64d2fd46c836a06233681665,64dc7a9a449041920ea08dcd,,,,,,,decisionTrl,resources/DB.BMP,resources/DBN.BMP,Door2,-0.371296296,-0.068518519,1,0,0,0.8302,optionLeft,40,4485,2,39,0,39,0,1,,,,,,,,,,,,,,,,,,,,,,,,,,,,,,,,,,,,,,,
,,,,,,,,2023-08-16_08h28.54.974,HF_wild_card,2022.2.4,Win32,60.87538808,63d13cca81e6d01c11fb0ca5,64d2fd46c836a06233681665,64dc7a9a449041920ea08dcd,,,,,,,decisionTrl,resources/DR.BMP,resources/DBN.BMP,WildCard_NonEx,-0.388888889,-0.07037037,1,0,0,0.7108,optionLeft,55,4540,2,40,0,40,0,1,,,,,,,,,,,,,,,,,,,,,,,,,,,,,,,,,,,,,,,
,,,,,,,,2023-08-16_08h28.54.974,HF_wild_card,2022.2.4,Win32,60.87538808,63d13cca81e6d01c11fb0ca5,64d2fd46c836a06233681665,64dc7a9a449041920ea08dcd,,,,,,,decisionTrl,resources/DG.BMP,resources/DP.BMP,Door4,0.37037037,-0.019444444,1,0,0,0.499,optionRight,80,4620,2,41,0,41,0,1,,,,,,,,,,,,,,,,,,,,,,,,,,,,,,,,,,,,,,,
,,,,,,,,2023-08-16_08h28.54.974,HF_wild_card,2022.2.4,Win32,60.87538808,63d13cca81e6d01c11fb0ca5,64d2fd46c836a06233681665,64dc7a9a449041920ea08dcd,,,,,,,ctch,resources/DP.BMP,resources/DBN.BMP,Door4,-0.231481481,-0.05462963,1,0,0,0.5481,optionLeft,60,4680,2,42,0,42,0,1,,,,,,,,,,,,,,,,,,,,,,,,,,,,,,,,,,,,,,,
,,,,,,,,2023-08-16_08h28.54.974,HF_wild_card,2022.2.4,Win32,60.87538808,63d13cca81e6d01c11fb0ca5,64d2fd46c836a06233681665,64dc7a9a449041920ea08dcd,,,,,,,ctch,resources/DBN.BMP,resources/DP.BMP,Door4,0.312037037,-0.026851852,1,0,0,0.4466,optionRight,80,4760,2,43,0,43,0,1,,,,,,,,,,,,,,,,,,,,,,,,,,,,,,,,,,,,,,,
,,,,,,,,2023-08-16_08h28.54.974,HF_wild_card,2022.2.4,Win32,60.87538808,63d13cca81e6d01c11fb0ca5,64d2fd46c836a06233681665,64dc7a9a449041920ea08dcd,,,,,,,,,,,,,,,,,,,,,,,,,,1,0,1,0,1,,,,,,,,,,,,,,,,,,,,,,,,,,,,,,,,,,
,,,,,,,,2023-08-16_08h28.54.974,HF_wild_card,2022.2.4,Win32,60.87538808,63d13cca81e6d01c11fb0ca5,64d2fd46c836a06233681665,64dc7a9a449041920ea08dcd,,,,,,,decisionTrl,resources/DG.BMP,resources/DP.BMP,Door4,0.32037037,-0.091666667,1,0,0,0.8227,optionRight,60,4820,3,0,0,0,0,1,,,,,,,,,,,,,,,,,,,,,,,,,,,,,,,,,,,,,,,
,,,,,,,,2023-08-16_08h28.54.974,HF_wild_card,2022.2.4,Win32,60.87538808,63d13cca81e6d01c11fb0ca5,64d2fd46c836a06233681665,64dc7a9a449041920ea08dcd,,,,,,,decisionTrl,resources/DBN.BMP,resources/DB.BMP,Door2,0.259259259,-0.00462963,1,0,0,0.584,optionRight,20,4840,3,1,0,1,0,1,,,,,,,,,,,,,,,,,,,,,,,,,,,,,,,,,,,,,,,
,,,,,,,,2023-08-16_08h28.54.974,HF_wild_card,2022.2.4,Win32,60.87538808,63d13cca81e6d01c11fb0ca5,64d2fd46c836a06233681665,64dc7a9a449041920ea08dcd,,,,,,,decisionTrl,resources/DG.BMP,resources/DP.BMP,Door4,0.325,-0.037037037,1,0,0,1.8339,optionRight,80,4920,3,2,0,2,0,1,,,,,,,,,,,,,,,,,,,,,,,,,,,,,,,,,,,,,,,
,,,,,,,,2023-08-16_08h28.54.974,HF_wild_card,2022.2.4,Win32,60.87538808,63d13cca81e6d01c11fb0ca5,64d2fd46c836a06233681665,64dc7a9a449041920ea08dcd,,,,,,,decisionTrl,resources/DP.BMP,resources/DR.BMP,Door4,-0.347222222,-0.037037037,1,0,0,0.6627,optionLeft,80,5000,3,3,0,3,0,1,,,,,,,,,,,,,,,,,,,,,,,,,,,,,,,,,,,,,,,
,,,,,,,,2023-08-16_08h28.54.974,HF_wild_card,2022.2.4,Win32,60.87538808,63d13cca81e6d01c11fb0ca5,64d2fd46c836a06233681665,64dc7a9a449041920ea08dcd,,,,,,,decisionTrl,resources/DR.BMP,resources/DG.BMP,Door3,0.35462963,-0.00462963,1,0,0,1.631,optionRight,70,5070,3,4,0,4,0,1,,,,,,,,,,,,,,,,,,,,,,,,,,,,,,,,,,,,,,,
,,,,,,,,2023-08-16_08h28.54.974,HF_wild_card,2022.2.4,Win32,60.87538808,63d13cca81e6d01c11fb0ca5,64d2fd46c836a06233681665,64dc7a9a449041920ea08dcd,,,,,,,sngl,resources/Empty.png,resources/DR.BMP,WildCard_NonEx,0.328703704,-0.011111111,1,0,0,0.5792,optionRight,45,5115,3,5,0,5,0,1,,,,,,,,,,,,,,,,,,,,,,,,,,,,,,,,,,,,,,,
,,,,,,,,2023-08-16_08h28.54.974,HF_wild_card,2022.2.4,Win32,60.87538808,63d13cca81e6d01c11fb0ca5,64d2fd46c836a06233681665,64dc7a9a449041920ea08dcd,,,,,,,decisionTrl,resources/DB.BMP,resources/DBN.BMP,Door2,-0.346296296,-0.043518519,1,0,0,0.9111,optionLeft,20,5135,3,6,0,6,0,1,,,,,,,,,,,,,,,,,,,,,,,,,,,,,,,,,,,,,,,
,,,,,,,,2023-08-16_08h28.54.974,HF_wild_card,2022.2.4,Win32,60.87538808,63d13cca81e6d01c11fb0ca5,64d2fd46c836a06233681665,64dc7a9a449041920ea08dcd,,,,,,,ctch,resources/DB.BMP,resources/DG.BMP,Door3,0.375925926,-0.002777778,1,0,0,0.913,optionRight,70,5205,3,7,0,7,0,1,,,,,,,,,,,,,,,,,,,,,,,,,,,,,,,,,,,,,,,
,,,,,,,,2023-08-16_08h28.54.974,HF_wild_card,2022.2.4,Win32,60.87538808,63d13cca81e6d01c11fb0ca5,64d2fd46c836a06233681665,64dc7a9a449041920ea08dcd,,,,,,,decisionTrl,resources/DB.BMP,resources/DR.BMP,WildCard_NonEx,0.332407407,-0.012037037,1,0,0,1.4064,optionRight,55,5260,3,8,0,8,0,1,,,,,,,,,,,,,,,,,,,,,,,,,,,,,,,,,,,,,,,
,,,,,,,,2023-08-16_08h28.54.974,HF_wild_card,2022.2.4,Win32,60.87538808,63d13cca81e6d01c11fb0ca5,64d2fd46c836a06233681665,64dc7a9a449041920ea08dcd,,,,,,,decisionTrl,resources/DBN.BMP,resources/DB.BMP,Door1,-0.302777778,-0.018518519,1,0,0,1.0427,optionLeft,30,5290,3,9,0,9,0,1,,,,,,,,,,,,,,,,,,,,,,,,,,,,,,,,,,,,,,,
,,,,,,,,2023-08-16_08h28.54.974,HF_wild_card,2022.2.4,Win32,60.87538808,63d13cca81e6d01c11fb0ca5,64d2fd46c836a06233681665,64dc7a9a449041920ea08dcd,,,,,,,decisionTrl,resources/DG.BMP,resources/DR.BMP,Door3,-0.243518519,-0.031481481,1,0,0,0.9284,optionLeft,70,5360,3,10,0,10,0,1,,,,,,,,,,,,,,,,,,,,,,,,,,,,,,,,,,,,,,,
,,,,,,,,2023-08-16_08h28.54.974,HF_wild_card,2022.2.4,Win32,60.87538808,63d13cca81e6d01c11fb0ca5,64d2fd46c836a06233681665,64dc7a9a449041920ea08dcd,,,,,,,decisionTrl,resources/DG.BMP,resources/DP.BMP,Door4,0.307407407,-0.013888889,1,0,0,0.6118,optionRight,60,5420,3,11,0,11,0,1,,,,,,,,,,,,,,,,,,,,,,,,,,,,,,,,,,,,,,,
,,,,,,,,2023-08-16_08h28.54.974,HF_wild_card,2022.2.4,Win32,60.87538808,63d13cca81e6d01c11fb0ca5,64d2fd46c836a06233681665,64dc7a9a449041920ea08dcd,,,,,,,decisionTrl,resources/DBN.BMP,resources/DR.BMP,Door1,-0.265740741,-0.012037037,1,0,0,1.1142,optionLeft,30,5450,3,12,0,12,0,1,,,,,,,,,,,,,,,,,,,,,,,,,,,,,,,,,,,,,,,
,,,,,,,,2023-08-16_08h28.54.974,HF_wild_card,2022.2.4,Win32,60.87538808,63d13cca81e6d01c11fb0ca5,64d2fd46c836a06233681665,64dc7a9a449041920ea08dcd,,,,,,,decisionTrl,resources/DR.BMP,resources/DBN.BMP,WildCard_NonEx,-0.302777778,-0.025925926,1,0,0,0.814,optionLeft,45,5495,3,13,0,13,0,1,,,,,,,,,,,,,,,,,,,,,,,,,,,,,,,,,,,,,,,
,,,,,,,,2023-08-16_08h28.54.974,HF_wild_card,2022.2.4,Win32,60.87538808,63d13cca81e6d01c11fb0ca5,64d2fd46c836a06233681665,64dc7a9a449041920ea08dcd,,,,,,,decisionTrl,resources/DP.BMP,resources/DG.BMP,Door4,-0.283333333,-0.016666667,1,0,0,1.0111,optionLeft,60,5555,3,14,0,14,0,1,,,,,,,,,,,,,,,,,,,,,,,,,,,,,,,,,,,,,,,
,,,,,,,,2023-08-16_08h28.54.974,HF_wild_card,2022.2.4,Win32,60.87538808,63d13cca81e6d01c11fb0ca5,64d2fd46c836a06233681665,64dc7a9a449041920ea08dcd,,,,,,,decisionTrl,resources/DBN.BMP,resources/DB.BMP,Door2,0.322222222,0.006481481,1,0,0,1.8976,optionRight,20,5575,3,15,0,15,0,1,,,,,,,,,,,,,,,,,,,,,,,,,,,,,,,,,,,,,,,
,,,,,,,,2023-08-16_08h28.54.974,HF_wild_card,2022.2.4,Win32,60.87538808,63d13cca81e6d01c11fb0ca5,64d2fd46c836a06233681665,64dc7a9a449041920ea08dcd,,,,,,,sngl,resources/DR.BMP,resources/Empty.png,WildCard_NonEx,-0.337037037,-0.038888889,1,0,0,0.7282,optionLeft,45,5620,3,16,0,16,0,1,,,,,,,,,,,,,,,,,,,,,,,,,,,,,,,,,,,,,,,
,,,,,,,,2023-08-16_08h28.54.974,HF_wild_card,2022.2.4,Win32,60.87538808,63d13cca81e6d01c11fb0ca5,64d2fd46c836a06233681665,64dc7a9a449041920ea08dcd,,,,,,,sngl,resources/Empty.png,resources/DR.BMP,WildCard_NonEx,0.333333333,-0.008333333,1,0,0,0.5976,optionRight,55,5675,3,17,0,17,0,1,,,,,,,,,,,,,,,,,,,,,,,,,,,,,,,,,,,,,,,
,,,,,,,,2023-08-16_08h28.54.974,HF_wild_card,2022.2.4,Win32,60.87538808,63d13cca81e6d01c11fb0ca5,64d2fd46c836a06233681665,64dc7a9a449041920ea08dcd,,,,,,,ctch,resources/DG.BMP,resources/DB.BMP,Door3,-0.298148148,-0.02037037,1,0,0,1.3149,optionLeft,70,5745,3,18,0,18,0,1,,,,,,,,,,,,,,,,,,,,,,,,,,,,,,,,,,,,,,,
,,,,,,,,2023-08-16_08h28.54.974,HF_wild_card,2022.2.4,Win32,60.87538808,63d13cca81e6d01c11fb0ca5,64d2fd46c836a06233681665,64dc7a9a449041920ea08dcd,,,,,,,sngl,resources/DR.BMP,resources/Empty.png,WildCard_NonEx,-0.242592593,-0.023148148,1,0,0,0.6118,optionLeft,55,5800,3,19,0,19,0,1,,,,,,,,,,,,,,,,,,,,,,,,,,,,,,,,,,,,,,,
,,,,,,,,2023-08-16_08h28.54.974,HF_wild_card,2022.2.4,Win32,60.87538808,63d13cca81e6d01c11fb0ca5,64d2fd46c836a06233681665,64dc7a9a449041920ea08dcd,,,,,,,decisionTrl,resources/DR.BMP,resources/DB.BMP,WildCard_NonEx,-0.294444444,-0.019444444,1,0,0,1.3612,optionLeft,55,5855,3,20,0,20,0,1,,,,,,,,,,,,,,,,,,,,,,,,,,,,,,,,,,,,,,,
,,,,,,,,2023-08-16_08h28.54.974,HF_wild_card,2022.2.4,Win32,60.87538808,63d13cca81e6d01c11fb0ca5,64d2fd46c836a06233681665,64dc7a9a449041920ea08dcd,,,,,,,decisionTrl,resources/DB.BMP,resources/DBN.BMP,Door1,0.357407407,0.041666667,1,0,0,2.3789,optionRight,30,5885,3,21,0,21,0,1,,,,,,,,,,,,,,,,,,,,,,,,,,,,,,,,,,,,,,,
,,,,,,,,2023-08-16_08h28.54.974,HF_wild_card,2022.2.4,Win32,60.87538808,63d13cca81e6d01c11fb0ca5,64d2fd46c836a06233681665,64dc7a9a449041920ea08dcd,,,,,,,sngl,resources/Empty.png,resources/DB.BMP,Door2,0.331481481,-0.012962963,1,0,0,0.7477,optionRight,20,5905,3,22,0,22,0,1,,,,,,,,,,,,,,,,,,,,,,,,,,,,,,,,,,,,,,,
,,,,,,,,2023-08-16_08h28.54.974,HF_wild_card,2022.2.4,Win32,60.87538808,63d13cca81e6d01c11fb0ca5,64d2fd46c836a06233681665,64dc7a9a449041920ea08dcd,,,,,,,decisionTrl,resources/DBN.BMP,resources/DB.BMP,Door1,-0.243518519,-0.025925926,1,0,0,0.7967,optionLeft,30,5935,3,23,0,23,0,1,,,,,,,,,,,,,,,,,,,,,,,,,,,,,,,,,,,,,,,
,,,,,,,,2023-08-16_08h28.54.974,HF_wild_card,2022.2.4,Win32,60.87538808,63d13cca81e6d01c11fb0ca5,64d2fd46c836a06233681665,64dc7a9a449041920ea08dcd,,,,,,,ctch,resources/DP.BMP,resources/DBN.BMP,Door4,-0.284259259,-0.019444444,1,0,0,0.7948,optionLeft,80,6015,3,24,0,24,0,1,,,,,,,,,,,,,,,,,,,,,,,,,,,,,,,,,,,,,,,
,,,,,,,,2023-08-16_08h28.54.974,HF_wild_card,2022.2.4,Win32,60.87538808,63d13cca81e6d01c11fb0ca5,64d2fd46c836a06233681665,64dc7a9a449041920ea08dcd,,,,,,,ctch,resources/DG.BMP,resources/DB.BMP,Door3,-0.319444444,-0.014814815,1,0,0,1.3947,optionLeft,70,6085,3,25,0,25,0,1,,,,,,,,,,,,,,,,,,,,,,,,,,,,,,,,,,,,,,,
,,,,,,,,2023-08-16_08h28.54.974,HF_wild_card,2022.2.4,Win32,60.87538808,63d13cca81e6d01c11fb0ca5,64d2fd46c836a06233681665,64dc7a9a449041920ea08dcd,,,,,,,decisionTrl,resources/DP.BMP,resources/DG.BMP,Door4,-0.258333333,-0.017592593,1,0,0,0.7975,optionLeft,60,6145,3,26,0,26,0,1,,,,,,,,,,,,,,,,,,,,,,,,,,,,,,,,,,,,,,,
,,,,,,,,2023-08-16_08h28.54.974,HF_wild_card,2022.2.4,Win32,60.87538808,63d13cca81e6d01c11fb0ca5,64d2fd46c836a06233681665,64dc7a9a449041920ea08dcd,,,,,,,sngl,resources/DP.BMP,resources/Empty.png,Door4,-0.35,-0.043518519,1,0,0,0.5626,optionLeft,80,6225,3,27,0,27,0,1,,,,,,,,,,,,,,,,,,,,,,,,,,,,,,,,,,,,,,,
,,,,,,,,2023-08-16_08h28.54.974,HF_wild_card,2022.2.4,Win32,60.87538808,63d13cca81e6d01c11fb0ca5,64d2fd46c836a06233681665,64dc7a9a449041920ea08dcd,,,,,,,sngl,resources/Empty.png,resources/DBN.BMP,Door1,0.305555556,-0.007407407,1,0,0,0.7474,optionRight,30,6255,3,28,0,28,0,1,,,,,,,,,,,,,,,,,,,,,,,,,,,,,,,,,,,,,,,
,,,,,,,,2023-08-16_08h28.54.974,HF_wild_card,2022.2.4,Win32,60.87538808,63d13cca81e6d01c11fb0ca5,64d2fd46c836a06233681665,64dc7a9a449041920ea08dcd,,,,,,,ctch,resources/DP.BMP,resources/DBN.BMP,Door4,-0.32962963,-0.044444444,1,0,0,0.6816,optionLeft,80,6335,3,29,0,29,0,1,,,,,,,,,,,,,,,,,,,,,,,,,,,,,,,,,,,,,,,
,,,,,,,,2023-08-16_08h28.54.974,HF_wild_card,2022.2.4,Win32,60.87538808,63d13cca81e6d01c11fb0ca5,64d2fd46c836a06233681665,64dc7a9a449041920ea08dcd,,,,,,,decisionTrl,resources/DB.BMP,resources/DBN.BMP,Door1,0.337962963,0.006481481,1,0,0,1.5999,optionRight,30,6365,3,30,0,30,0,1,,,,,,,,,,,,,,,,,,,,,,,,,,,,,,,,,,,,,,,
,,,,,,,,2023-08-16_08h28.54.974,HF_wild_card,2022.2.4,Win32,60.87538808,63d13cca81e6d01c11fb0ca5,64d2fd46c836a06233681665,64dc7a9a449041920ea08dcd,,,,,,,decisionTrl,resources/DB.BMP,resources/DBN.BMP,Door1,0.336111111,0.011111111,1,0,0,1.3789,optionRight,30,6395,3,31,0,31,0,1,,,,,,,,,,,,,,,,,,,,,,,,,,,,,,,,,,,,,,,
,,,,,,,,2023-08-16_08h28.54.974,HF_wild_card,2022.2.4,Win32,60.87538808,63d13cca81e6d01c11fb0ca5,64d2fd46c836a06233681665,64dc7a9a449041920ea08dcd,,,,,,,sngl,resources/DB.BMP,resources/Empty.png,Door2,-0.255555556,-0.031481481,1,0,0,0.6948,optionLeft,40,6435,3,32,0,32,0,1,,,,,,,,,,,,,,,,,,,,,,,,,,,,,,,,,,,,,,,
,,,,,,,,2023-08-16_08h28.54.974,HF_wild_card,2022.2.4,Win32,60.87538808,63d13cca81e6d01c11fb0ca5,64d2fd46c836a06233681665,64dc7a9a449041920ea08dcd,,,,,,,decisionTrl,resources/DR.BMP,resources/DP.BMP,Door4,0.310185185,-0.008333333,1,0,0,0.7816,optionRight,80,6515,3,33,0,33,0,1,,,,,,,,,,,,,,,,,,,,,,,,,,,,,,,,,,,,,,,
,,,,,,,,2023-08-16_08h28.54.974,HF_wild_card,2022.2.4,Win32,60.87538808,63d13cca81e6d01c11fb0ca5,64d2fd46c836a06233681665,64dc7a9a449041920ea08dcd,,,,,,,sngl,resources/DG.BMP,resources/Empty.png,Door3,-0.222222222,-0.036111111,1,0,0,0.5973,optionLeft,70,6585,3,34,0,34,0,1,,,,,,,,,,,,,,,,,,,,,,,,,,,,,,,,,,,,,,,
,,,,,,,,2023-08-16_08h28.54.974,HF_wild_card,2022.2.4,Win32,60.87538808,63d13cca81e6d01c11fb0ca5,64d2fd46c836a06233681665,64dc7a9a449041920ea08dcd,,,,,,,ctch,resources/DBN.BMP,resources/DP.BMP,Door4,0.307407407,-0.015740741,1,0,0,0.6792,optionRight,80,6665,3,35,0,35,0,1,,,,,,,,,,,,,,,,,,,,,,,,,,,,,,,,,,,,,,,
,,,,,,,,2023-08-16_08h28.54.974,HF_wild_card,2022.2.4,Win32,60.87538808,63d13cca81e6d01c11fb0ca5,64d2fd46c836a06233681665,64dc7a9a449041920ea08dcd,,,,,,,sngl,resources/DBN.BMP,resources/Empty.png,Door1,-0.252777778,-0.041666667,1,0,0,0.5811,optionLeft,30,6695,3,36,0,36,0,1,,,,,,,,,,,,,,,,,,,,,,,,,,,,,,,,,,,,,,,
,,,,,,,,2023-08-16_08h28.54.974,HF_wild_card,2022.2.4,Win32,60.87538808,63d13cca81e6d01c11fb0ca5,64d2fd46c836a06233681665,64dc7a9a449041920ea08dcd,,,,,,,decisionTrl,resources/DP.BMP,resources/DG.BMP,Door4,-0.198148148,-0.042592593,1,0,0,0.5786,optionLeft,60,6755,3,37,0,37,0,1,,,,,,,,,,,,,,,,,,,,,,,,,,,,,,,,,,,,,,,
,,,,,,,,2023-08-16_08h28.54.974,HF_wild_card,2022.2.4,Win32,60.87538808,63d13cca81e6d01c11fb0ca5,64d2fd46c836a06233681665,64dc7a9a449041920ea08dcd,,,,,,,sngl,resources/Empty.png,resources/DG.BMP,Door3,0.305555556,-0.000925926,1,0,0,0.5146,optionRight,70,6825,3,38,0,38,0,1,,,,,,,,,,,,,,,,,,,,,,,,,,,,,,,,,,,,,,,
,,,,,,,,2023-08-16_08h28.54.974,HF_wild_card,2022.2.4,Win32,60.87538808,63d13cca81e6d01c11fb0ca5,64d2fd46c836a06233681665,64dc7a9a449041920ea08dcd,,,,,,,ctch,resources/DBN.BMP,resources/DP.BMP,Door4,0.337037037,-0.013888889,1,0,0,0.7151,optionRight,80,6905,3,39,0,39,0,1,,,,,,,,,,,,,,,,,,,,,,,,,,,,,,,,,,,,,,,
,,,,,,,,2023-08-16_08h28.54.974,HF_wild_card,2022.2.4,Win32,60.87538808,63d13cca81e6d01c11fb0ca5,64d2fd46c836a06233681665,64dc7a9a449041920ea08dcd,,,,,,,decisionTrl,resources/DP.BMP,resources/DG.BMP,Door4,-0.25,-0.068518519,1,0,0,0.5469,optionLeft,60,6965,3,40,0,40,0,1,,,,,,,,,,,,,,,,,,,,,,,,,,,,,,,,,,,,,,,
,,,,,,,,2023-08-16_08h28.54.974,HF_wild_card,2022.2.4,Win32,60.87538808,63d13cca81e6d01c11fb0ca5,64d2fd46c836a06233681665,64dc7a9a449041920ea08dcd,,,,,,,ctch,resources/DB.BMP,resources/DG.BMP,Door3,0.3,-0.02962963,1,0,0,0.7638,optionRight,70,7035,3,41,0,41,0,1,,,,,,,,,,,,,,,,,,,,,,,,,,,,,,,,,,,,,,,
,,,,,,,,2023-08-16_08h28.54.974,HF_wild_card,2022.2.4,Win32,60.87538808,63d13cca81e6d01c11fb0ca5,64d2fd46c836a06233681665,64dc7a9a449041920ea08dcd,,,,,,,decisionTrl,resources/DG.BMP,resources/DP.BMP,Door4,0.32037037,-0.023148148,1,0,0,0.7315,optionRight,60,7095,3,42,0,42,0,1,,,,,,,,,,,,,,,,,,,,,,,,,,,,,,,,,,,,,,,
,,,,,,,,2023-08-16_08h28.54.974,HF_wild_card,2022.2.4,Win32,60.87538808,63d13cca81e6d01c11fb0ca5,64d2fd46c836a06233681665,64dc7a9a449041920ea08dcd,,,,,,,sngl,resources/Empty.png,resources/DP.BMP,Door4,0.325925926,-0.02037037,1,0,0,0.4649,optionRight,60,7155,3,43,0,43,0,1,,,,,,,,,,,,,,,,,,,,,,,,,,,,,,,,,,,,,,,
,,,,,,,,2023-08-16_08h28.54.974,HF_wild_card,2022.2.4,Win32,60.87538808,63d13cca81e6d01c11fb0ca5,64d2fd46c836a06233681665,64dc7a9a449041920ea08dcd,,,,,,,,,,,,,,,,,,,,,,,,,,2,0,2,0,1,,,,,,,,,,,,,,,,,,,,,,,,,,,,,,,,,,
,,,,,,,,2023-08-16_08h28.54.974,HF_wild_card,2022.2.4,Win32,60.87538808,63d13cca81e6d01c11fb0ca5,64d2fd46c836a06233681665,64dc7a9a449041920ea08dcd,,,,,,,sngl,resources/Empty.png,resources/DP.BMP,Door4,0.293518519,-0.050925926,1,0,0,0.6344,optionRight,80,7235,4,0,0,0,0,1,,,,,,,,,,,,,,,,,,,,,,,,,,,,,,,,,,,,,,,
,,,,,,,,2023-08-16_08h28.54.974,HF_wild_card,2022.2.4,Win32,60.87538808,63d13cca81e6d01c11fb0ca5,64d2fd46c836a06233681665,64dc7a9a449041920ea08dcd,,,,,,,decisionTrl,resources/DB.BMP,resources/DBN.BMP,Door1,0.293518519,-0.002777778,1,0,0,1.6969,optionRight,30,7265,4,1,0,1,0,1,,,,,,,,,,,,,,,,,,,,,,,,,,,,,,,,,,,,,,,
,,,,,,,,2023-08-16_08h28.54.974,HF_wild_card,2022.2.4,Win32,60.87538808,63d13cca81e6d01c11fb0ca5,64d2fd46c836a06233681665,64dc7a9a449041920ea08dcd,,,,,,,ctch,resources/DBN.BMP,resources/DP.BMP,Door4,0.359259259,-0.012037037,1,0,0,0.4806,optionRight,80,7345,4,2,0,2,0,1,,,,,,,,,,,,,,,,,,,,,,,,,,,,,,,,,,,,,,,
,,,,,,,,2023-08-16_08h28.54.974,HF_wild_card,2022.2.4,Win32,60.87538808,63d13cca81e6d01c11fb0ca5,64d2fd46c836a06233681665,64dc7a9a449041920ea08dcd,,,,,,,decisionTrl,resources/DY.BMP,resources/DG.BMP,WildCard_Ex,-0.280555556,-0.049074074,1,0,0,0.8809,optionLeft,95,7440,4,3,0,3,0,1,,,,,,,,,,,,,,,,,,,,,,,,,,,,,,,,,,,,,,,
,,,,,,,,2023-08-16_08h28.54.974,HF_wild_card,2022.2.4,Win32,60.87538808,63d13cca81e6d01c11fb0ca5,64d2fd46c836a06233681665,64dc7a9a449041920ea08dcd,,,,,,,sngl,resources/Empty.png,resources/DBN.BMP,Door1,0.34537037,0.00462963,1,0,0,0.6947,optionRight,30,7470,4,4,0,4,0,1,,,,,,,,,,,,,,,,,,,,,,,,,,,,,,,,,,,,,,,
,,,,,,,,2023-08-16_08h28.54.974,HF_wild_card,2022.2.4,Win32,60.87538808,63d13cca81e6d01c11fb0ca5,64d2fd46c836a06233681665,64dc7a9a449041920ea08dcd,,,,,,,sngl,resources/DG.BMP,resources/Empty.png,Door3,-0.239814815,-0.043518519,1,0,0,0.628,optionLeft,70,7540,4,5,0,5,0,1,,,,,,,,,,,,,,,,,,,,,,,,,,,,,,,,,,,,,,,
,,,,,,,,2023-08-16_08h28.54.974,HF_wild_card,2022.2.4,Win32,60.87538808,63d13cca81e6d01c11fb0ca5,64d2fd46c836a06233681665,64dc7a9a449041920ea08dcd,,,,,,,decisionTrl,resources/DP.BMP,resources/DG.BMP,Door4,-0.273148148,-0.052777778,1,0,0,1.53,optionLeft,60,7600,4,6,0,6,0,1,,,,,,,,,,,,,,,,,,,,,,,,,,,,,,,,,,,,,,,
,,,,,,,,2023-08-16_08h28.54.974,HF_wild_card,2022.2.4,Win32,60.87538808,63d13cca81e6d01c11fb0ca5,64d2fd46c836a06233681665,64dc7a9a449041920ea08dcd,,,,,,,decisionTrl,resources/DB.BMP,resources/DBN.BMP,Door2,-0.319444444,-0.049074074,1,0,0,1.1644,optionLeft,20,7620,4,7,0,7,0,1,,,,,,,,,,,,,,,,,,,,,,,,,,,,,,,,,,,,,,,
,,,,,,,,2023-08-16_08h28.54.974,HF_wild_card,2022.2.4,Win32,60.87538808,63d13cca81e6d01c11fb0ca5,64d2fd46c836a06233681665,64dc7a9a449041920ea08dcd,,,,,,,sngl,resources/DP.BMP,resources/Empty.png,Door4,-0.314814815,-0.062037037,1,0,0,0.6444,optionLeft,60,7680,4,8,0,8,0,1,,,,,,,,,,,,,,,,,,,,,,,,,,,,,,,,,,,,,,,
,,,,,,,,2023-08-16_08h28.54.974,HF_wild_card,2022.2.4,Win32,60.87538808,63d13cca81e6d01c11fb0ca5,64d2fd46c836a06233681665,64dc7a9a449041920ea08dcd,,,,,,,decisionTrl,resources/DY.BMP,resources/DP.BMP,WildCard_Ex,-0.264814815,-0.047222222,1,0,0,0.8621,optionLeft,5,7685,4,9,0,9,0,1,,,,,,,,,,,,,,,,,,,,,,,,,,,,,,,,,,,,,,,
,,,,,,,,2023-08-16_08h28.54.974,HF_wild_card,2022.2.4,Win32,60.87538808,63d13cca81e6d01c11fb0ca5,64d2fd46c836a06233681665,64dc7a9a449041920ea08dcd,,,,,,,decisionTrl,resources/DBN.BMP,resources/DB.BMP,Door2,0.294444444,-0.003703704,1,0,0,0.6272,optionRight,40,7725,4,10,0,10,0,1,,,,,,,,,,,,,,,,,,,,,,,,,,,,,,,,,,,,,,,
,,,,,,,,2023-08-16_08h28.54.974,HF_wild_card,2022.2.4,Win32,60.87538808,63d13cca81e6d01c11fb0ca5,64d2fd46c836a06233681665,64dc7a9a449041920ea08dcd,,,,,,,ctch,resources/DBN.BMP,resources/DP.BMP,Door4,0.339814815,0.012037037,1,0,0,0.6127,optionRight,60,7785,4,11,0,11,0,1,,,,,,,,,,,,,,,,,,,,,,,,,,,,,,,,,,,,,,,
,,,,,,,,2023-08-16_08h28.54.974,HF_wild_card,2022.2.4,Win32,60.87538808,63d13cca81e6d01c11fb0ca5,64d2fd46c836a06233681665,64dc7a9a449041920ea08dcd,,,,,,,ctch,resources/DB.BMP,resources/DG.BMP,Door3,0.337962963,-0.005555556,1,0,0,1.177,optionRight,70,7855,4,12,0,12,0,1,,,,,,,,,,,,,,,,,,,,,,,,,,,,,,,,,,,,,,,
,,,,,,,,2023-08-16_08h28.54.974,HF_wild_card,2022.2.4,Win32,60.87538808,63d13cca81e6d01c11fb0ca5,64d2fd46c836a06233681665,64dc7a9a449041920ea08dcd,,,,,,,decisionTrl,resources/DP.BMP,resources/DG.BMP,Door3,0.350925926,0.010185185,1,0,0,2.0285,optionRight,70,7925,4,13,0,13,0,1,,,,,,,,,,,,,,,,,,,,,,,,,,,,,,,,,,,,,,,
,,,,,,,,2023-08-16_08h28.54.974,HF_wild_card,2022.2.4,Win32,60.87538808,63d13cca81e6d01c11fb0ca5,64d2fd46c836a06233681665,64dc7a9a449041920ea08dcd,,,,,,,ctch,resources/DG.BMP,resources/DB.BMP,Door3,-0.197222222,-0.016666667,1,0,0,0.6118,optionLeft,70,7995,4,14,0,14,0,1,,,,,,,,,,,,,,,,,,,,,,,,,,,,,,,,,,,,,,,
,,,,,,,,2023-08-16_08h28.54.974,HF_wild_card,2022.2.4,Win32,60.87538808,63d13cca81e6d01c11fb0ca5,64d2fd46c836a06233681665,64dc7a9a449041920ea08dcd,,,,,,,decisionTrl,resources/DG.BMP,resources/DP.BMP,Door4,0.325,-0.009259259,1,0,0,0.397,optionRight,60,8055,4,15,0,15,0,1,,,,,,,,,,,,,,,,,,,,,,,,,,,,,,,,,,,,,,,
,,,,,,,,2023-08-16_08h28.54.974,HF_wild_card,2022.2.4,Win32,60.87538808,63d13cca81e6d01c11fb0ca5,64d2fd46c836a06233681665,64dc7a9a449041920ea08dcd,,,,,,,sngl,resources/Empty.png,resources/DY.BMP,WildCard_Ex,0.346296296,-0.05,1,0,0,28.8656,optionRight,5,8060,4,16,0,16,0,1,,,,,,,,,,,,,,,,,,,,,,,,,,,,,,,,,,,,,,,
,,,,,,,,2023-08-16_08h28.54.974,HF_wild_card,2022.2.4,Win32,60.87538808,63d13cca81e6d01c11fb0ca5,64d2fd46c836a06233681665,64dc7a9a449041920ea08dcd,,,,,,,decisionTrl,resources/DBN.BMP,resources/DY.BMP,WildCard_Ex,0.435185185,-0.008333333,1,0,0,0.566,optionRight,95,8155,4,17,0,17,0,1,,,,,,,,,,,,,,,,,,,,,,,,,,,,,,,,,,,,,,,
,,,,,,,,2023-08-16_08h28.54.974,HF_wild_card,2022.2.4,Win32,60.87538808,63d13cca81e6d01c11fb0ca5,64d2fd46c836a06233681665,64dc7a9a449041920ea08dcd,,,,,,,sngl,resources/DY.BMP,resources/Empty.png,WildCard_Ex,-0.260185185,-0.05462963,1,0,0,0.4123,optionLeft,5,8160,4,18,0,18,0,1,,,,,,,,,,,,,,,,,,,,,,,,,,,,,,,,,,,,,,,
,,,,,,,,2023-08-16_08h28.54.974,HF_wild_card,2022.2.4,Win32,60.87538808,63d13cca81e6d01c11fb0ca5,64d2fd46c836a06233681665,64dc7a9a449041920ea08dcd,,,,,,,decisionTrl,resources/DB.BMP,resources/DY.BMP,WildCard_Ex,0.315740741,-0.008333333,1,0,0,0.7613,optionRight,95,8255,4,19,0,19,0,1,,,,,,,,,,,,,,,,,,,,,,,,,,,,,,,,,,,,,,,
,,,,,,,,2023-08-16_08h28.54.974,HF_wild_card,2022.2.4,Win32,60.87538808,63d13cca81e6d01c11fb0ca5,64d2fd46c836a06233681665,64dc7a9a449041920ea08dcd,,,,,,,decisionTrl,resources/DY.BMP,resources/DB.BMP,WildCard_Ex,-0.281481481,-0.022222222,1,0,0,0.6117,optionLeft,95,8350,4,20,0,20,0,1,,,,,,,,,,,,,,,,,,,,,,,,,,,,,,,,,,,,,,,
,,,,,,,,2023-08-16_08h28.54.974,HF_wild_card,2022.2.4,Win32,60.87538808,63d13cca81e6d01c11fb0ca5,64d2fd46c836a06233681665,64dc7a9a449041920ea08dcd,,,,,,,decisionTrl,resources/DG.BMP,resources/DY.BMP,WildCard_Ex,0.335185185,0.022222222,1,0,0,0.6177,optionRight,5,8355,4,21,0,21,0,1,,,,,,,,,,,,,,,,,,,,,,,,,,,,,,,,,,,,,,,
,,,,,,,,2023-08-16_08h28.54.974,HF_wild_card,2022.2.4,Win32,60.87538808,63d13cca81e6d01c11fb0ca5,64d2fd46c836a06233681665,64dc7a9a449041920ea08dcd,,,,,,,decisionTrl,resources/DG.BMP,resources/DP.BMP,Door4,0.393518519,-0.062962963,1,0,0,20.8686,optionRight,80,8435,4,22,0,22,0,1,,,,,,,,,,,,,,,,,,,,,,,,,,,,,,,,,,,,,,,
,,,,,,,,2023-08-16_08h28.54.974,HF_wild_card,2022.2.4,Win32,60.87538808,63d13cca81e6d01c11fb0ca5,64d2fd46c836a06233681665,64dc7a9a449041920ea08dcd,,,,,,,sngl,resources/DY.BMP,resources/Empty.png,WildCard_Ex,-0.300925926,-0.026851852,1,0,0,0.4804,optionLeft,95,8530,4,23,0,23,0,1,,,,,,,,,,,,,,,,,,,,,,,,,,,,,,,,,,,,,,,
,,,,,,,,2023-08-16_08h28.54.974,HF_wild_card,2022.2.4,Win32,60.87538808,63d13cca81e6d01c11fb0ca5,64d2fd46c836a06233681665,64dc7a9a449041920ea08dcd,,,,,,,sngl,resources/Empty.png,resources/DY.BMP,WildCard_Ex,0.338888889,-0.021296296,1,0,0,0.4501,optionRight,95,8625,4,24,0,24,0,1,,,,,,,,,,,,,,,,,,,,,,,,,,,,,,,,,,,,,,,
,,,,,,,,2023-08-16_08h28.54.974,HF_wild_card,2022.2.4,Win32,60.87538808,63d13cca81e6d01c11fb0ca5,64d2fd46c836a06233681665,64dc7a9a449041920ea08dcd,,,,,,,decisionTrl,resources/DB.BMP,resources/DBN.BMP,Door2,-0.338888889,-0.024074074,1,0,0,0.7281,optionLeft,40,8665,4,25,0,25,0,1,,,,,,,,,,,,,,,,,,,,,,,,,,,,,,,,,,,,,,,
,,,,,,,,2023-08-16_08h28.54.974,HF_wild_card,2022.2.4,Win32,60.87538808,63d13cca81e6d01c11fb0ca5,64d2fd46c836a06233681665,64dc7a9a449041920ea08dcd,,,,,,,ctch,resources/DG.BMP,resources/DB.BMP,Door3,-0.298148148,-0.019444444,1,0,0,0.7287,optionLeft,70,8735,4,26,0,26,0,1,,,,,,,,,,,,,,,,,,,,,,,,,,,,,,,,,,,,,,,
,,,,,,,,2023-08-16_08h28.54.974,HF_wild_card,2022.2.4,Win32,60.87538808,63d13cca81e6d01c11fb0ca5,64d2fd46c836a06233681665,64dc7a9a449041920ea08dcd,,,,,,,decisionTrl,resources/DG.BMP,resources/DP.BMP,Door4,0.314814815,-0.012037037,1,0,0,0.6455,optionRight,60,8795,4,27,0,27,0,1,,,,,,,,,,,,,,,,,,,,,,,,,,,,,,,,,,,,,,,
,,,,,,,,2023-08-16_08h28.54.974,HF_wild_card,2022.2.4,Win32,60.87538808,63d13cca81e6d01c11fb0ca5,64d2fd46c836a06233681665,64dc7a9a449041920ea08dcd,,,,,,,sngl,resources/DBN.BMP,resources/Empty.png,Door1,-0.355555556,-0.026851852,1,0,0,0.7127,optionLeft,30,8825,4,28,0,28,0,1,,,,,,,,,,,,,,,,,,,,,,,,,,,,,,,,,,,,,,,
,,,,,,,,2023-08-16_08h28.54.974,HF_wild_card,2022.2.4,Win32,60.87538808,63d13cca81e6d01c11fb0ca5,64d2fd46c836a06233681665,64dc7a9a449041920ea08dcd,,,,,,,decisionTrl,resources/DP.BMP,resources/DG.BMP,Door4,-0.312037037,-0.067592593,1,0,0,0.5956,optionLeft,80,8905,4,29,0,29,0,1,,,,,,,,,,,,,,,,,,,,,,,,,,,,,,,,,,,,,,,
,,,,,,,,2023-08-16_08h28.54.974,HF_wild_card,2022.2.4,Win32,60.87538808,63d13cca81e6d01c11fb0ca5,64d2fd46c836a06233681665,64dc7a9a449041920ea08dcd,,,,,,,ctch,resources/DP.BMP,resources/DBN.BMP,Door4,-0.371296296,-0.055555556,1,0,0,0.5693,optionLeft,80,8985,4,30,0,30,0,1,,,,,,,,,,,,,,,,,,,,,,,,,,,,,,,,,,,,,,,
,,,,,,,,2023-08-16_08h28.54.974,HF_wild_card,2022.2.4,Win32,60.87538808,63d13cca81e6d01c11fb0ca5,64d2fd46c836a06233681665,64dc7a9a449041920ea08dcd,,,,,,,decisionTrl,resources/DP.BMP,resources/DG.BMP,Door4,-0.331481481,-0.034259259,1,0,0,0.4795,optionLeft,80,9065,4,31,0,31,0,1,,,,,,,,,,,,,,,,,,,,,,,,,,,,,,,,,,,,,,,
,,,,,,,,2023-08-16_08h28.54.974,HF_wild_card,2022.2.4,Win32,60.87538808,63d13cca81e6d01c11fb0ca5,64d2fd46c836a06233681665,64dc7a9a449041920ea08dcd,,,,,,,decisionTrl,resources/DBN.BMP,resources/DB.BMP,Door2,0.318518519,-0.027777778,1,0,0,0.5113,optionRight,40,9105,4,32,0,32,0,1,,,,,,,,,,,,,,,,,,,,,,,,,,,,,,,,,,,,,,,
,,,,,,,,2023-08-16_08h28.54.974,HF_wild_card,2022.2.4,Win32,60.87538808,63d13cca81e6d01c11fb0ca5,64d2fd46c836a06233681665,64dc7a9a449041920ea08dcd,,,,,,,decisionTrl,resources/DBN.BMP,resources/DB.BMP,Door1,-0.265740741,-0.047222222,1,0,0,0.6633,optionLeft,30,9135,4,33,0,33,0,1,,,,,,,,,,,,,,,,,,,,,,,,,,,,,,,,,,,,,,,
,,,,,,,,2023-08-16_08h28.54.974,HF_wild_card,2022.2.4,Win32,60.87538808,63d13cca81e6d01c11fb0ca5,64d2fd46c836a06233681665,64dc7a9a449041920ea08dcd,,,,,,,ctch,resources/DP.BMP,resources/DBN.BMP,Door4,-0.251851852,-0.022222222,1,0,0,0.7191,optionLeft,80,9215,4,34,0,34,0,1,,,,,,,,,,,,,,,,,,,,,,,,,,,,,,,,,,,,,,,
,,,,,,,,2023-08-16_08h28.54.974,HF_wild_card,2022.2.4,Win32,60.87538808,63d13cca81e6d01c11fb0ca5,64d2fd46c836a06233681665,64dc7a9a449041920ea08dcd,,,,,,,decisionTrl,resources/DB.BMP,resources/DBN.BMP,Door2,-0.234259259,-0.024074074,1,0,0,1.4862,optionLeft,20,9235,4,35,0,35,0,1,,,,,,,,,,,,,,,,,,,,,,,,,,,,,,,,,,,,,,,
,,,,,,,,2023-08-16_08h28.54.974,HF_wild_card,2022.2.4,Win32,60.87538808,63d13cca81e6d01c11fb0ca5,64d2fd46c836a06233681665,64dc7a9a449041920ea08dcd,,,,,,,decisionTrl,resources/DG.BMP,resources/DP.BMP,Door4,0.287962963,-0.028703704,1,0,0,0.5505,optionRight,60,9295,4,36,0,36,0,1,,,,,,,,,,,,,,,,,,,,,,,,,,,,,,,,,,,,,,,
,,,,,,,,2023-08-16_08h28.54.974,HF_wild_card,2022.2.4,Win32,60.87538808,63d13cca81e6d01c11fb0ca5,64d2fd46c836a06233681665,64dc7a9a449041920ea08dcd,,,,,,,sngl,resources/DB.BMP,resources/Empty.png,Door2,-0.290740741,-0.043518519,1,0,0,0.5337,optionLeft,20,9315,4,37,0,37,0,1,,,,,,,,,,,,,,,,,,,,,,,,,,,,,,,,,,,,,,,
,,,,,,,,2023-08-16_08h28.54.974,HF_wild_card,2022.2.4,Win32,60.87538808,63d13cca81e6d01c11fb0ca5,64d2fd46c836a06233681665,64dc7a9a449041920ea08dcd,,,,,,,ctch,resources/DB.BMP,resources/DG.BMP,Door3,0.337962963,-0.028703704,1,0,0,0.8113,optionRight,70,9385,4,38,0,38,0,1,,,,,,,,,,,,,,,,,,,,,,,,,,,,,,,,,,,,,,,
,,,,,,,,2023-08-16_08h28.54.974,HF_wild_card,2022.2.4,Win32,60.87538808,63d13cca81e6d01c11fb0ca5,64d2fd46c836a06233681665,64dc7a9a449041920ea08dcd,,,,,,,decisionTrl,resources/DBN.BMP,resources/DB.BMP,Door2,0.296296296,-0.028703704,1,0,0,0.6597,optionRight,40,9425,4,39,0,39,0,1,,,,,,,,,,,,,,,,,,,,,,,,,,,,,,,,,,,,,,,
,,,,,,,,2023-08-16_08h28.54.974,HF_wild_card,2022.2.4,Win32,60.87538808,63d13cca81e6d01c11fb0ca5,64d2fd46c836a06233681665,64dc7a9a449041920ea08dcd,,,,,,,sngl,resources/Empty.png,resources/DB.BMP,Door2,0.303703704,-0.024074074,1,0,0,0.4641,optionRight,40,9465,4,40,0,40,0,1,,,,,,,,,,,,,,,,,,,,,,,,,,,,,,,,,,,,,,,
,,,,,,,,2023-08-16_08h28.54.974,HF_wild_card,2022.2.4,Win32,60.87538808,63d13cca81e6d01c11fb0ca5,64d2fd46c836a06233681665,64dc7a9a449041920ea08dcd,,,,,,,decisionTrl,resources/DY.BMP,resources/DBN.BMP,WildCard_Ex,-0.238888889,-0.041666667,1,0,0,0.63,optionLeft,5,9470,4,41,0,41,0,1,,,,,,,,,,,,,,,,,,,,,,,,,,,,,,,,,,,,,,,
,,,,,,,,2023-08-16_08h28.54.974,HF_wild_card,2022.2.4,Win32,60.87538808,63d13cca81e6d01c11fb0ca5,64d2fd46c836a06233681665,64dc7a9a449041920ea08dcd,,,,,,,sngl,resources/Empty.png,resources/DG.BMP,Door3,0.307407407,-0.023148148,1,0,0,0.5481,optionRight,70,9540,4,42,0,42,0,1,,,,,,,,,,,,,,,,,,,,,,,,,,,,,,,,,,,,,,,
,,,,,,,,2023-08-16_08h28.54.974,HF_wild_card,2022.2.4,Win32,60.87538808,63d13cca81e6d01c11fb0ca5,64d2fd46c836a06233681665,64dc7a9a449041920ea08dcd,,,,,,,decisionTrl,resources/DP.BMP,resources/DY.BMP,WildCard_Ex,0.347222222,-0.028703704,1,0,0,0.6524,optionRight,95,9635,4,43,0,43,0,1,,,,,,,,,,,,,,,,,,,,,,,,,,,,,,,,,,,,,,,
,,,,,,,,2023-08-16_08h28.54.974,HF_wild_card,2022.2.4,Win32,60.87538808,63d13cca81e6d01c11fb0ca5,64d2fd46c836a06233681665,64dc7a9a449041920ea08dcd,,,,,,,,,,,,,,,,,,,,,,,,,,3,0,3,0,1,,,,,,,,,,,,,,,,,,,,,,,,,,,,,,,,,,
,,,,,,,,2023-08-16_08h28.54.974,HF_wild_card,2022.2.4,Win32,60.87538808,63d13cca81e6d01c11fb0ca5,64d2fd46c836a06233681665,64dc7a9a449041920ea08dcd,,,,,,,sngl,resources/DB.BMP,resources/Empty.png,Door2,-0.289814815,-0.059259259,1,0,0,0.6236,optionLeft,40,9675,5,0,0,0,0,1,,,,,,,,,,,,,,,,,,,,,,,,,,,,,,,,,,,,,,,
,,,,,,,,2023-08-16_08h28.54.974,HF_wild_card,2022.2.4,Win32,60.87538808,63d13cca81e6d01c11fb0ca5,64d2fd46c836a06233681665,64dc7a9a449041920ea08dcd,,,,,,,decisionTrl,resources/DBN.BMP,resources/DB.BMP,Door2,0.228703704,-0.023148148,1,0,0,0.5464,optionRight,40,9715,5,1,0,1,0,1,,,,,,,,,,,,,,,,,,,,,,,,,,,,,,,,,,,,,,,
,,,,,,,,2023-08-16_08h28.54.974,HF_wild_card,2022.2.4,Win32,60.87538808,63d13cca81e6d01c11fb0ca5,64d2fd46c836a06233681665,64dc7a9a449041920ea08dcd,,,,,,,ctch,resources/DB.BMP,resources/DG.BMP,Door3,0.299074074,-0.006481481,1,0,0,0.5961,optionRight,70,9785,5,2,0,2,0,1,,,,,,,,,,,,,,,,,,,,,,,,,,,,,,,,,,,,,,,
,,,,,,,,2023-08-16_08h28.54.974,HF_wild_card,2022.2.4,Win32,60.87538808,63d13cca81e6d01c11fb0ca5,64d2fd46c836a06233681665,64dc7a9a449041920ea08dcd,,,,,,,sngl,resources/DY.BMP,resources/Empty.png,WildCard_Ex,-0.242592593,0,1,0,0,0.5794,optionLeft,95,9880,5,3,0,3,0,1,,,,,,,,,,,,,,,,,,,,,,,,,,,,,,,,,,,,,,,
,,,,,,,,2023-08-16_08h28.54.974,HF_wild_card,2022.2.4,Win32,60.87538808,63d13cca81e6d01c11fb0ca5,64d2fd46c836a06233681665,64dc7a9a449041920ea08dcd,,,,,,,ctch,resources/DP.BMP,resources/DBN.BMP,Door4,-0.259259259,-0.042592593,1,0,0,0.6499,optionLeft,60,9940,5,4,0,4,0,1,,,,,,,,,,,,,,,,,,,,,,,,,,,,,,,,,,,,,,,
,,,,,,,,2023-08-16_08h28.54.974,HF_wild_card,2022.2.4,Win32,60.87538808,63d13cca81e6d01c11fb0ca5,64d2fd46c836a06233681665,64dc7a9a449041920ea08dcd,,,,,,,decisionTrl,resources/DB.BMP,resources/DY.BMP,WildCard_Ex,0.290740741,0,1,0,0,0.7788,optionRight,95,10035,5,5,0,5,0,1,,,,,,,,,,,,,,,,,,,,,,,,,,,,,,,,,,,,,,,
,,,,,,,,2023-08-16_08h28.54.974,HF_wild_card,2022.2.4,Win32,60.87538808,63d13cca81e6d01c11fb0ca5,64d2fd46c836a06233681665,64dc7a9a449041920ea08dcd,,,,,,,sngl,resources/DY.BMP,resources/Empty.png,WildCard_Ex,-0.218518519,-0.037037037,1,0,0,0.4331,optionLeft,5,10040,5,6,0,6,0,1,,,,,,,,,,,,,,,,,,,,,,,,,,,,,,,,,,,,,,,
,,,,,,,,2023-08-16_08h28.54.974,HF_wild_card,2022.2.4,Win32,60.87538808,63d13cca81e6d01c11fb0ca5,64d2fd46c836a06233681665,64dc7a9a449041920ea08dcd,,,,,,,sngl,resources/DP.BMP,resources/Empty.png,Door4,-0.205555556,-0.037962963,1,0,0,0.4932,optionLeft,80,10120,5,7,0,7,0,1,,,,,,,,,,,,,,,,,,,,,,,,,,,,,,,,,,,,,,,
,,,,,,,,2023-08-16_08h28.54.974,HF_wild_card,2022.2.4,Win32,60.87538808,63d13cca81e6d01c11fb0ca5,64d2fd46c836a06233681665,64dc7a9a449041920ea08dcd,,,,,,,decisionTrl,resources/DP.BMP,resources/DG.BMP,Door4,-0.298148148,-0.062037037,1,0,0,0.6997,optionLeft,80,10200,5,8,0,8,0,1,,,,,,,,,,,,,,,,,,,,,,,,,,,,,,,,,,,,,,,
,,,,,,,,2023-08-16_08h28.54.974,HF_wild_card,2022.2.4,Win32,60.87538808,63d13cca81e6d01c11fb0ca5,64d2fd46c836a06233681665,64dc7a9a449041920ea08dcd,,,,,,,decisionTrl,resources/DP.BMP,resources/DG.BMP,Door4,-0.263888889,-0.049074074,1,0,0,0.9307,optionLeft,80,10280,5,9,0,9,0,1,,,,,,,,,,,,,,,,,,,,,,,,,,,,,,,,,,,,,,,
,,,,,,,,2023-08-16_08h28.54.974,HF_wild_card,2022.2.4,Win32,60.87538808,63d13cca81e6d01c11fb0ca5,64d2fd46c836a06233681665,64dc7a9a449041920ea08dcd,,,,,,,ctch,resources/DBN.BMP,resources/DP.BMP,Door4,0.310185185,-0.006481481,1,0,0,0.5057,optionRight,80,10360,5,10,0,10,0,1,,,,,,,,,,,,,,,,,,,,,,,,,,,,,,,,,,,,,,,
,,,,,,,,2023-08-16_08h28.54.974,HF_wild_card,2022.2.4,Win32,60.87538808,63d13cca81e6d01c11fb0ca5,64d2fd46c836a06233681665,64dc7a9a449041920ea08dcd,,,,,,,decisionTrl,resources/DB.BMP,resources/DBN.BMP,Door1,0.367592593,0.02037037,1,0,0,1.0964,optionRight,30,10390,5,11,0,11,0,1,,,,,,,,,,,,,,,,,,,,,,,,,,,,,,,,,,,,,,,
,,,,,,,,2023-08-16_08h28.54.974,HF_wild_card,2022.2.4,Win32,60.87538808,63d13cca81e6d01c11fb0ca5,64d2fd46c836a06233681665,64dc7a9a449041920ea08dcd,,,,,,,decisionTrl,resources/DBN.BMP,resources/DB.BMP,Door1,-0.15,-0.022222222,1,0,0,0.9783,optionLeft,30,10420,5,12,0,12,0,1,,,,,,,,,,,,,,,,,,,,,,,,,,,,,,,,,,,,,,,
,,,,,,,,2023-08-16_08h28.54.974,HF_wild_card,2022.2.4,Win32,60.87538808,63d13cca81e6d01c11fb0ca5,64d2fd46c836a06233681665,64dc7a9a449041920ea08dcd,,,,,,,sngl,resources/Empty.png,resources/DB.BMP,Door2,0.301851852,0.001851852,1,0,0,0.4155,optionRight,20,10440,5,13,0,13,0,1,,,,,,,,,,,,,,,,,,,,,,,,,,,,,,,,,,,,,,,
,,,,,,,,2023-08-16_08h28.54.974,HF_wild_card,2022.2.4,Win32,60.87538808,63d13cca81e6d01c11fb0ca5,64d2fd46c836a06233681665,64dc7a9a449041920ea08dcd,,,,,,,decisionTrl,resources/DG.BMP,resources/DP.BMP,Door4,0.298148148,-0.010185185,1,0,0,0.5183,optionRight,80,10520,5,14,0,14,0,1,,,,,,,,,,,,,,,,,,,,,,,,,,,,,,,,,,,,,,,
,,,,,,,,2023-08-16_08h28.54.974,HF_wild_card,2022.2.4,Win32,60.87538808,63d13cca81e6d01c11fb0ca5,64d2fd46c836a06233681665,64dc7a9a449041920ea08dcd,,,,,,,sngl,resources/Empty.png,resources/DG.BMP,Door3,0.391666667,0.010185185,1,0,0,0.4791,optionRight,70,10590,5,15,0,15,0,1,,,,,,,,,,,,,,,,,,,,,,,,,,,,,,,,,,,,,,,
,,,,,,,,2023-08-16_08h28.54.974,HF_wild_card,2022.2.4,Win32,60.87538808,63d13cca81e6d01c11fb0ca5,64d2fd46c836a06233681665,64dc7a9a449041920ea08dcd,,,,,,,decisionTrl,resources/DY.BMP,resources/DG.BMP,WildCard_Ex,-0.283333333,-0.058333333,1,0,0,0.5321,optionLeft,5,10595,5,16,0,16,0,1,,,,,,,,,,,,,,,,,,,,,,,,,,,,,,,,,,,,,,,
,,,,,,,,2023-08-16_08h28.54.974,HF_wild_card,2022.2.4,Win32,60.87538808,63d13cca81e6d01c11fb0ca5,64d2fd46c836a06233681665,64dc7a9a449041920ea08dcd,,,,,,,decisionTrl,resources/DB.BMP,resources/DBN.BMP,Door2,-0.266666667,-0.046296296,1,0,0,0.5114,optionLeft,20,10615,5,17,0,17,0,1,,,,,,,,,,,,,,,,,,,,,,,,,,,,,,,,,,,,,,,
,,,,,,,,2023-08-16_08h28.54.974,HF_wild_card,2022.2.4,Win32,60.87538808,63d13cca81e6d01c11fb0ca5,64d2fd46c836a06233681665,64dc7a9a449041920ea08dcd,,,,,,,decisionTrl,resources/DY.BMP,resources/DP.BMP,WildCard_Ex,-0.19537037,-0.025925926,1,0,0,0.7379,optionLeft,95,10710,5,18,0,18,0,1,,,,,,,,,,,,,,,,,,,,,,,,,,,,,,,,,,,,,,,
,,,,,,,,2023-08-16_08h28.54.974,HF_wild_card,2022.2.4,Win32,60.87538808,63d13cca81e6d01c11fb0ca5,64d2fd46c836a06233681665,64dc7a9a449041920ea08dcd,,,,,,,decisionTrl,resources/DG.BMP,resources/DP.BMP,Door4,0.275925926,-0.022222222,1,0,0,0.5054,optionRight,80,10790,5,19,0,19,0,1,,,,,,,,,,,,,,,,,,,,,,,,,,,,,,,,,,,,,,,
,,,,,,,,2023-08-16_08h28.54.974,HF_wild_card,2022.2.4,Win32,60.87538808,63d13cca81e6d01c11fb0ca5,64d2fd46c836a06233681665,64dc7a9a449041920ea08dcd,,,,,,,decisionTrl,resources/DB.BMP,resources/DBN.BMP,Door1,0.322222222,0.014814815,1,0,0,1.262,optionRight,30,10820,5,20,0,20,0,1,,,,,,,,,,,,,,,,,,,,,,,,,,,,,,,,,,,,,,,
,,,,,,,,2023-08-16_08h28.54.974,HF_wild_card,2022.2.4,Win32,60.87538808,63d13cca81e6d01c11fb0ca5,64d2fd46c836a06233681665,64dc7a9a449041920ea08dcd,,,,,,,decisionTrl,resources/DBN.BMP,resources/DY.BMP,WildCard_Ex,0.422222222,-0.04537037,1,0,0,1.0134,optionRight,95,10915,5,21,0,21,0,1,,,,,,,,,,,,,,,,,,,,,,,,,,,,,,,,,,,,,,,
,,,,,,,,2023-08-16_08h28.54.974,HF_wild_card,2022.2.4,Win32,60.87538808,63d13cca81e6d01c11fb0ca5,64d2fd46c836a06233681665,64dc7a9a449041920ea08dcd,,,,,,,sngl,resources/DG.BMP,resources/Empty.png,Door3,-0.234259259,-0.048148148,1,0,0,0.679,optionLeft,70,10985,5,22,0,22,0,1,,,,,,,,,,,,,,,,,,,,,,,,,,,,,,,,,,,,,,,
,,,,,,,,2023-08-16_08h28.54.974,HF_wild_card,2022.2.4,Win32,60.87538808,63d13cca81e6d01c11fb0ca5,64d2fd46c836a06233681665,64dc7a9a449041920ea08dcd,,,,,,,sngl,resources/Empty.png,resources/DP.BMP,Door4,0.380555556,-0.030555556,1,0,0,1.2958,optionRight,60,11045,5,23,0,23,0,1,,,,,,,,,,,,,,,,,,,,,,,,,,,,,,,,,,,,,,,
,,,,,,,,2023-08-16_08h28.54.974,HF_wild_card,2022.2.4,Win32,60.87538808,63d13cca81e6d01c11fb0ca5,64d2fd46c836a06233681665,64dc7a9a449041920ea08dcd,,,,,,,ctch,resources/DP.BMP,resources/DBN.BMP,Door4,-0.214814815,-0.016666667,1,0,0,0.512,optionLeft,60,11105,5,24,0,24,0,1,,,,,,,,,,,,,,,,,,,,,,,,,,,,,,,,,,,,,,,
,,,,,,,,2023-08-16_08h28.54.974,HF_wild_card,2022.2.4,Win32,60.87538808,63d13cca81e6d01c11fb0ca5,64d2fd46c836a06233681665,64dc7a9a449041920ea08dcd,,,,,,,decisionTrl,resources/DY.BMP,resources/DBN.BMP,WildCard_Ex,-0.305555556,-0.037037037,1,0,0,0.5287,optionLeft,95,11200,5,25,0,25,0,1,,,,,,,,,,,,,,,,,,,,,,,,,,,,,,,,,,,,,,,
,,,,,,,,2023-08-16_08h28.54.974,HF_wild_card,2022.2.4,Win32,60.87538808,63d13cca81e6d01c11fb0ca5,64d2fd46c836a06233681665,64dc7a9a449041920ea08dcd,,,,,,,decisionTrl,resources/DG.BMP,resources/DP.BMP,Door4,0.312037037,-0.02037037,1,0,0,0.4161,optionRight,60,11260,5,26,0,26,0,1,,,,,,,,,,,,,,,,,,,,,,,,,,,,,,,,,,,,,,,
,,,,,,,,2023-08-16_08h28.54.974,HF_wild_card,2022.2.4,Win32,60.87538808,63d13cca81e6d01c11fb0ca5,64d2fd46c836a06233681665,64dc7a9a449041920ea08dcd,,,,,,,decisionTrl,resources/DB.BMP,resources/DBN.BMP,Door2,-0.273148148,-0.037037037,1,0,0,0.4295,optionLeft,40,11300,5,27,0,27,0,1,,,,,,,,,,,,,,,,,,,,,,,,,,,,,,,,,,,,,,,
,,,,,,,,2023-08-16_08h28.54.974,HF_wild_card,2022.2.4,Win32,60.87538808,63d13cca81e6d01c11fb0ca5,64d2fd46c836a06233681665,64dc7a9a449041920ea08dcd,,,,,,,sngl,resources/Empty.png,resources/DY.BMP,WildCard_Ex,0.387037037,-0.016666667,1,0,0,0.4432,optionRight,5,11305,5,28,0,28,0,1,,,,,,,,,,,,,,,,,,,,,,,,,,,,,,,,,,,,,,,
,,,,,,,,2023-08-16_08h28.54.974,HF_wild_card,2022.2.4,Win32,60.87538808,63d13cca81e6d01c11fb0ca5,64d2fd46c836a06233681665,64dc7a9a449041920ea08dcd,,,,,,,ctch,resources/DG.BMP,resources/DB.BMP,Door3,-0.284259259,-0.038888889,1,0,0,1.6616,optionLeft,70,11375,5,29,0,29,0,1,,,,,,,,,,,,,,,,,,,,,,,,,,,,,,,,,,,,,,,
,,,,,,,,2023-08-16_08h28.54.974,HF_wild_card,2022.2.4,Win32,60.87538808,63d13cca81e6d01c11fb0ca5,64d2fd46c836a06233681665,64dc7a9a449041920ea08dcd,,,,,,,decisionTrl,resources/DBN.BMP,resources/DB.BMP,Door2,0.351851852,-0.008333333,1,0,0,0.5622,optionRight,20,11395,5,30,0,30,0,1,,,,,,,,,,,,,,,,,,,,,,,,,,,,,,,,,,,,,,,
,,,,,,,,2023-08-16_08h28.54.974,HF_wild_card,2022.2.4,Win32,60.87538808,63d13cca81e6d01c11fb0ca5,64d2fd46c836a06233681665,64dc7a9a449041920ea08dcd,,,,,,,ctch,resources/DB.BMP,resources/DG.BMP,Door3,0.47037037,-0.00462963,1,0,0,0.7858,optionRight,70,11465,5,31,0,31,0,1,,,,,,,,,,,,,,,,,,,,,,,,,,,,,,,,,,,,,,,
,,,,,,,,2023-08-16_08h28.54.974,HF_wild_card,2022.2.4,Win32,60.87538808,63d13cca81e6d01c11fb0ca5,64d2fd46c836a06233681665,64dc7a9a449041920ea08dcd,,,,,,,decisionTrl,resources/DG.BMP,resources/DP.BMP,Door3,-0.260185185,-0.021296296,1,0,0,0.9048,optionLeft,70,11535,5,32,0,32,0,1,,,,,,,,,,,,,,,,,,,,,,,,,,,,,,,,,,,,,,,
,,,,,,,,2023-08-16_08h28.54.974,HF_wild_card,2022.2.4,Win32,60.87538808,63d13cca81e6d01c11fb0ca5,64d2fd46c836a06233681665,64dc7a9a449041920ea08dcd,,,,,,,ctch,resources/DG.BMP,resources/DB.BMP,Door3,-0.323148148,-0.047222222,1,0,0,0.6622,optionLeft,70,11605,5,33,0,33,0,1,,,,,,,,,,,,,,,,,,,,,,,,,,,,,,,,,,,,,,,
,,,,,,,,2023-08-16_08h28.54.974,HF_wild_card,2022.2.4,Win32,60.87538808,63d13cca81e6d01c11fb0ca5,64d2fd46c836a06233681665,64dc7a9a449041920ea08dcd,,,,,,,decisionTrl,resources/DP.BMP,resources/DG.BMP,Door4,-0.293518519,-0.055555556,1,0,0,1.0585,optionLeft,60,11665,5,34,0,34,0,1,,,,,,,,,,,,,,,,,,,,,,,,,,,,,,,,,,,,,,,
,,,,,,,,2023-08-16_08h28.54.974,HF_wild_card,2022.2.4,Win32,60.87538808,63d13cca81e6d01c11fb0ca5,64d2fd46c836a06233681665,64dc7a9a449041920ea08dcd,,,,,,,sngl,resources/Empty.png,resources/DBN.BMP,Door1,0.30462963,-0.023148148,1,0,0,0.5495,optionRight,30,11695,5,35,0,35,0,1,,,,,,,,,,,,,,,,,,,,,,,,,,,,,,,,,,,,,,,
,,,,,,,,2023-08-16_08h28.54.974,HF_wild_card,2022.2.4,Win32,60.87538808,63d13cca81e6d01c11fb0ca5,64d2fd46c836a06233681665,64dc7a9a449041920ea08dcd,,,,,,,sngl,resources/Empty.png,resources/DY.BMP,WildCard_Ex,0.312037037,-0.011111111,1,0,0,0.4615,optionRight,95,11790,5,36,0,36,0,1,,,,,,,,,,,,,,,,,,,,,,,,,,,,,,,,,,,,,,,
,,,,,,,,2023-08-16_08h28.54.974,HF_wild_card,2022.2.4,Win32,60.87538808,63d13cca81e6d01c11fb0ca5,64d2fd46c836a06233681665,64dc7a9a449041920ea08dcd,,,,,,,decisionTrl,resources/DY.BMP,resources/DB.BMP,WildCard_Ex,-0.286111111,-0.026851852,1,0,0,0.8947,optionLeft,5,11795,5,37,0,37,0,1,,,,,,,,,,,,,,,,,,,,,,,,,,,,,,,,,,,,,,,
,,,,,,,,2023-08-16_08h28.54.974,HF_wild_card,2022.2.4,Win32,60.87538808,63d13cca81e6d01c11fb0ca5,64d2fd46c836a06233681665,64dc7a9a449041920ea08dcd,,,,,,,decisionTrl,resources/DG.BMP,resources/DY.BMP,Door3,-0.236111111,-0.031481481,1,0,0,0.8815,optionLeft,70,11865,5,38,0,38,0,1,,,,,,,,,,,,,,,,,,,,,,,,,,,,,,,,,,,,,,,
,,,,,,,,2023-08-16_08h28.54.974,HF_wild_card,2022.2.4,Win32,60.87538808,63d13cca81e6d01c11fb0ca5,64d2fd46c836a06233681665,64dc7a9a449041920ea08dcd,,,,,,,sngl,resources/DBN.BMP,resources/Empty.png,Door1,-0.267592593,-0.011111111,1,0,0,0.5623,optionLeft,30,11895,5,39,0,39,0,1,,,,,,,,,,,,,,,,,,,,,,,,,,,,,,,,,,,,,,,
,,,,,,,,2023-08-16_08h28.54.974,HF_wild_card,2022.2.4,Win32,60.87538808,63d13cca81e6d01c11fb0ca5,64d2fd46c836a06233681665,64dc7a9a449041920ea08dcd,,,,,,,decisionTrl,resources/DP.BMP,resources/DY.BMP,Door4,-0.292592593,-0.026851852,1,0,0,1.4154,optionLeft,80,11975,5,40,0,40,0,1,,,,,,,,,,,,,,,,,,,,,,,,,,,,,,,,,,,,,,,
,,,,,,,,2023-08-16_08h28.54.974,HF_wild_card,2022.2.4,Win32,60.87538808,63d13cca81e6d01c11fb0ca5,64d2fd46c836a06233681665,64dc7a9a449041920ea08dcd,,,,,,,ctch,resources/DBN.BMP,resources/DP.BMP,Door4,0.337962963,-0.021296296,1,0,0,0.5467,optionRight,60,12035,5,41,0,41,0,1,,,,,,,,,,,,,,,,,,,,,,,,,,,,,,,,,,,,,,,
,,,,,,,,2023-08-16_08h28.54.974,HF_wild_card,2022.2.4,Win32,60.87538808,63d13cca81e6d01c11fb0ca5,64d2fd46c836a06233681665,64dc7a9a449041920ea08dcd,,,,,,,decisionTrl,resources/DBN.BMP,resources/DB.BMP,Door1,-0.22037037,0.024074074,1,0,0,1.7167,optionLeft,30,12065,5,42,0,42,0,1,,,,,,,,,,,,,,,,,,,,,,,,,,,,,,,,,,,,,,,
,,,,,,,,2023-08-16_08h28.54.974,HF_wild_card,2022.2.4,Win32,60.87538808,63d13cca81e6d01c11fb0ca5,64d2fd46c836a06233681665,64dc7a9a449041920ea08dcd,,,,,,,decisionTrl,resources/DP.BMP,resources/DG.BMP,Door4,-0.287962963,-0.037037037,1,0,0,0.4793,optionLeft,80,12145,5,43,0,43,0,1,,,,,,,,,,,,,,,,,,,,,,,,,,,,,,,,,,,,,,,
,,,,,,,,2023-08-16_08h28.54.974,HF_wild_card,2022.2.4,Win32,60.87538808,63d13cca81e6d01c11fb0ca5,64d2fd46c836a06233681665,64dc7a9a449041920ea08dcd,,,,,,,,,,,,,,,,,,,,,,,,,,4,0,4,0,1,,,,,,,,,,,,,,,,,,,,,,,,,,,,,,,,,,
,,,,,,,,2023-08-16_08h28.54.974,HF_wild_card,2022.2.4,Win32,60.87538808,63d13cca81e6d01c11fb0ca5,64d2fd46c836a06233681665,64dc7a9a449041920ea08dcd,,,,,,,decisionTrl,resources/DY.BMP,resources/DG.BMP,Door3,0.484259259,-0.009259259,1,0,0,1.447,optionRight,70,12215,6,0,0,0,0,1,,,,,,,,,,,,,,,,,,,,,,,,,,,,,,,,,,,,,,,
,,,,,,,,2023-08-16_08h28.54.974,HF_wild_card,2022.2.4,Win32,60.87538808,63d13cca81e6d01c11fb0ca5,64d2fd46c836a06233681665,64dc7a9a449041920ea08dcd,,,,,,,decisionTrl,resources/DG.BMP,resources/DP.BMP,Door3,-0.311111111,-0.019444444,1,0,0,1.5779,optionLeft,70,12285,6,1,0,1,0,1,,,,,,,,,,,,,,,,,,,,,,,,,,,,,,,,,,,,,,,
,,,,,,,,2023-08-16_08h28.54.974,HF_wild_card,2022.2.4,Win32,60.87538808,63d13cca81e6d01c11fb0ca5,64d2fd46c836a06233681665,64dc7a9a449041920ea08dcd,,,,,,,decisionTrl,resources/DB.BMP,resources/DBN.BMP,Door2,-0.269444444,-0.027777778,1,0,0,0.9449,optionLeft,40,12325,6,2,0,2,0,1,,,,,,,,,,,,,,,,,,,,,,,,,,,,,,,,,,,,,,,
,,,,,,,,2023-08-16_08h28.54.974,HF_wild_card,2022.2.4,Win32,60.87538808,63d13cca81e6d01c11fb0ca5,64d2fd46c836a06233681665,64dc7a9a449041920ea08dcd,,,,,,,ctch,resources/DBN.BMP,resources/DP.BMP,Door4,0.312962963,-0.012962963,1,0,0,0.5956,optionRight,80,12405,6,3,0,3,0,1,,,,,,,,,,,,,,,,,,,,,,,,,,,,,,,,,,,,,,,
,,,,,,,,2023-08-16_08h28.54.974,HF_wild_card,2022.2.4,Win32,60.87538808,63d13cca81e6d01c11fb0ca5,64d2fd46c836a06233681665,64dc7a9a449041920ea08dcd,,,,,,,sngl,resources/DBN.BMP,resources/Empty.png,Door1,-0.231481481,-0.026851852,1,0,0,0.4456,optionLeft,30,12435,6,4,0,4,0,1,,,,,,,,,,,,,,,,,,,,,,,,,,,,,,,,,,,,,,,
,,,,,,,,2023-08-16_08h28.54.974,HF_wild_card,2022.2.4,Win32,60.87538808,63d13cca81e6d01c11fb0ca5,64d2fd46c836a06233681665,64dc7a9a449041920ea08dcd,,,,,,,decisionTrl,resources/DG.BMP,resources/DY.BMP,Door3,-0.225925926,-0.006481481,1,0,0,1.2805,optionLeft,70,12505,6,5,0,5,0,1,,,,,,,,,,,,,,,,,,,,,,,,,,,,,,,,,,,,,,,
,,,,,,,,2023-08-16_08h28.54.974,HF_wild_card,2022.2.4,Win32,60.87538808,63d13cca81e6d01c11fb0ca5,64d2fd46c836a06233681665,64dc7a9a449041920ea08dcd,,,,,,,decisionTrl,resources/DBN.BMP,resources/DB.BMP,Door2,0.262962963,0.006481481,1,0,0,0.6139,optionRight,20,12525,6,6,0,6,0,1,,,,,,,,,,,,,,,,,,,,,,,,,,,,,,,,,,,,,,,
,,,,,,,,2023-08-16_08h28.54.974,HF_wild_card,2022.2.4,Win32,60.87538808,63d13cca81e6d01c11fb0ca5,64d2fd46c836a06233681665,64dc7a9a449041920ea08dcd,,,,,,,decisionTrl,resources/DG.BMP,resources/DP.BMP,Door4,0.359259259,-0.014814815,1,0,0,0.6652,optionRight,60,12585,6,7,0,7,0,1,,,,,,,,,,,,,,,,,,,,,,,,,,,,,,,,,,,,,,,
,,,,,,,,2023-08-16_08h28.54.974,HF_wild_card,2022.2.4,Win32,60.87538808,63d13cca81e6d01c11fb0ca5,64d2fd46c836a06233681665,64dc7a9a449041920ea08dcd,,,,,,,decisionTrl,resources/DG.BMP,resources/DP.BMP,Door3,-0.234259259,-0.037037037,1,0,0,0.4452,optionLeft,70,12655,6,8,0,8,0,1,,,,,,,,,,,,,,,,,,,,,,,,,,,,,,,,,,,,,,,
,,,,,,,,2023-08-16_08h28.54.974,HF_wild_card,2022.2.4,Win32,60.87538808,63d13cca81e6d01c11fb0ca5,64d2fd46c836a06233681665,64dc7a9a449041920ea08dcd,,,,,,,decisionTrl,resources/DP.BMP,resources/DG.BMP,Door3,0.355555556,0.013888889,1,0,0,0.8312,optionRight,70,12725,6,9,0,9,0,1,,,,,,,,,,,,,,,,,,,,,,,,,,,,,,,,,,,,,,,
,,,,,,,,2023-08-16_08h28.54.974,HF_wild_card,2022.2.4,Win32,60.87538808,63d13cca81e6d01c11fb0ca5,64d2fd46c836a06233681665,64dc7a9a449041920ea08dcd,,,,,,,decisionTrl,resources/DB.BMP,resources/DBN.BMP,Door2,-0.168518519,-0.02962963,1,0,0,0.8475,optionLeft,40,12765,6,10,0,10,0,1,,,,,,,,,,,,,,,,,,,,,,,,,,,,,,,,,,,,,,,
,,,,,,,,2023-08-16_08h28.54.974,HF_wild_card,2022.2.4,Win32,60.87538808,63d13cca81e6d01c11fb0ca5,64d2fd46c836a06233681665,64dc7a9a449041920ea08dcd,,,,,,,sngl,resources/DB.BMP,resources/Empty.png,Door2,-0.25,-0.050925926,1,0,0,0.4633,optionLeft,20,12785,6,11,0,11,0,1,,,,,,,,,,,,,,,,,,,,,,,,,,,,,,,,,,,,,,,
,,,,,,,,2023-08-16_08h28.54.974,HF_wild_card,2022.2.4,Win32,60.87538808,63d13cca81e6d01c11fb0ca5,64d2fd46c836a06233681665,64dc7a9a449041920ea08dcd,,,,,,,decisionTrl,resources/DY.BMP,resources/DB.BMP,WildCard_Ex,-0.293518519,-0.046296296,1,0,0,0.7973,optionLeft,95,12880,6,12,0,12,0,1,,,,,,,,,,,,,,,,,,,,,,,,,,,,,,,,,,,,,,,
,,,,,,,,2023-08-16_08h28.54.974,HF_wild_card,2022.2.4,Win32,60.87538808,63d13cca81e6d01c11fb0ca5,64d2fd46c836a06233681665,64dc7a9a449041920ea08dcd,,,,,,,sngl,resources/Empty.png,resources/DY.BMP,WildCard_Ex,0.342592593,0.000925926,1,0,0,0.5446,optionRight,95,12975,6,13,0,13,0,1,,,,,,,,,,,,,,,,,,,,,,,,,,,,,,,,,,,,,,,
,,,,,,,,2023-08-16_08h28.54.974,HF_wild_card,2022.2.4,Win32,60.87538808,63d13cca81e6d01c11fb0ca5,64d2fd46c836a06233681665,64dc7a9a449041920ea08dcd,,,,,,,sngl,resources/DP.BMP,resources/Empty.png,Door4,-0.309259259,-0.033333333,1,0,0,0.475,optionLeft,60,13035,6,14,0,14,0,1,,,,,,,,,,,,,,,,,,,,,,,,,,,,,,,,,,,,,,,
,,,,,,,,2023-08-16_08h28.54.974,HF_wild_card,2022.2.4,Win32,60.87538808,63d13cca81e6d01c11fb0ca5,64d2fd46c836a06233681665,64dc7a9a449041920ea08dcd,,,,,,,decisionTrl,resources/DBN.BMP,resources/DY.BMP,WildCard_Ex,0.324074074,0.001851852,1,0,0,0.5973,optionRight,95,13130,6,15,0,15,0,1,,,,,,,,,,,,,,,,,,,,,,,,,,,,,,,,,,,,,,,
,,,,,,,,2023-08-16_08h28.54.974,HF_wild_card,2022.2.4,Win32,60.87538808,63d13cca81e6d01c11fb0ca5,64d2fd46c836a06233681665,64dc7a9a449041920ea08dcd,,,,,,,sngl,resources/DG.BMP,resources/Empty.png,Door3,-0.244444444,-0.044444444,1,0,0,0.5958,optionLeft,70,13200,6,16,0,16,0,1,,,,,,,,,,,,,,,,,,,,,,,,,,,,,,,,,,,,,,,
,,,,,,,,2023-08-16_08h28.54.974,HF_wild_card,2022.2.4,Win32,60.87538808,63d13cca81e6d01c11fb0ca5,64d2fd46c836a06233681665,64dc7a9a449041920ea08dcd,,,,,,,ctch,resources/DB.BMP,resources/DG.BMP,Door3,0.281481481,-0.000925926,1,0,0,0.5787,optionRight,70,13270,6,17,0,17,0,1,,,,,,,,,,,,,,,,,,,,,,,,,,,,,,,,,,,,,,,
,,,,,,,,2023-08-16_08h28.54.974,HF_wild_card,2022.2.4,Win32,60.87538808,63d13cca81e6d01c11fb0ca5,64d2fd46c836a06233681665,64dc7a9a449041920ea08dcd,,,,,,,ctch,resources/DG.BMP,resources/DB.BMP,Door3,-0.253703704,-0.032407407,1,0,0,0.9103,optionLeft,70,13340,6,18,0,18,0,1,,,,,,,,,,,,,,,,,,,,,,,,,,,,,,,,,,,,,,,
,,,,,,,,2023-08-16_08h28.54.974,HF_wild_card,2022.2.4,Win32,60.87538808,63d13cca81e6d01c11fb0ca5,64d2fd46c836a06233681665,64dc7a9a449041920ea08dcd,,,,,,,decisionTrl,resources/DY.BMP,resources/DBN.BMP,WildCard_Ex,-0.255555556,-0.000925926,1,0,0,1.1611,optionLeft,5,13345,6,19,0,19,0,1,,,,,,,,,,,,,,,,,,,,,,,,,,,,,,,,,,,,,,,
,,,,,,,,2023-08-16_08h28.54.974,HF_wild_card,2022.2.4,Win32,60.87538808,63d13cca81e6d01c11fb0ca5,64d2fd46c836a06233681665,64dc7a9a449041920ea08dcd,,,,,,,decisionTrl,resources/DP.BMP,resources/DY.BMP,Door4,-0.17962963,-0.032407407,1,0,0,0.6975,optionLeft,80,13425,6,20,0,20,0,1,,,,,,,,,,,,,,,,,,,,,,,,,,,,,,,,,,,,,,,
,,,,,,,,2023-08-16_08h28.54.974,HF_wild_card,2022.2.4,Win32,60.87538808,63d13cca81e6d01c11fb0ca5,64d2fd46c836a06233681665,64dc7a9a449041920ea08dcd,,,,,,,decisionTrl,resources/DG.BMP,resources/DP.BMP,Door3,-0.217592593,-0.025,1,0,0,1.0111,optionLeft,70,13495,6,21,0,21,0,1,,,,,,,,,,,,,,,,,,,,,,,,,,,,,,,,,,,,,,,
,,,,,,,,2023-08-16_08h28.54.974,HF_wild_card,2022.2.4,Win32,60.87538808,63d13cca81e6d01c11fb0ca5,64d2fd46c836a06233681665,64dc7a9a449041920ea08dcd,,,,,,,decisionTrl,resources/DP.BMP,resources/DG.BMP,Door4,-0.258333333,-0.032407407,1,0,0,0.7642,optionLeft,80,13575,6,22,0,22,0,1,,,,,,,,,,,,,,,,,,,,,,,,,,,,,,,,,,,,,,,
,,,,,,,,2023-08-16_08h28.54.974,HF_wild_card,2022.2.4,Win32,60.87538808,63d13cca81e6d01c11fb0ca5,64d2fd46c836a06233681665,64dc7a9a449041920ea08dcd,,,,,,,ctch,resources/DG.BMP,resources/DB.BMP,Door3,-0.330555556,-0.02962963,1,0,0,0.9641,optionLeft,70,13645,6,23,0,23,0,1,,,,,,,,,,,,,,,,,,,,,,,,,,,,,,,,,,,,,,,
,,,,,,,,2023-08-16_08h28.54.974,HF_wild_card,2022.2.4,Win32,60.87538808,63d13cca81e6d01c11fb0ca5,64d2fd46c836a06233681665,64dc7a9a449041920ea08dcd,,,,,,,sngl,resources/Empty.png,resources/DG.BMP,Door3,0.282407407,0.010185185,1,0,0,0.4776,optionRight,70,13715,6,24,0,24,0,1,,,,,,,,,,,,,,,,,,,,,,,,,,,,,,,,,,,,,,,
,,,,,,,,2023-08-16_08h28.54.974,HF_wild_card,2022.2.4,Win32,60.87538808,63d13cca81e6d01c11fb0ca5,64d2fd46c836a06233681665,64dc7a9a449041920ea08dcd,,,,,,,decisionTrl,resources/DBN.BMP,resources/DB.BMP,Door1,-0.159259259,0.037037037,1,0,0,1.9118,optionLeft,30,13745,6,25,0,25,0,1,,,,,,,,,,,,,,,,,,,,,,,,,,,,,,,,,,,,,,,
,,,,,,,,2023-08-16_08h28.54.974,HF_wild_card,2022.2.4,Win32,60.87538808,63d13cca81e6d01c11fb0ca5,64d2fd46c836a06233681665,64dc7a9a449041920ea08dcd,,,,,,,decisionTrl,resources/DB.BMP,resources/DBN.BMP,Door2,-0.392592593,-0.036111111,1,0,0,0.6593,optionLeft,20,13765,6,26,0,26,0,1,,,,,,,,,,,,,,,,,,,,,,,,,,,,,,,,,,,,,,,
,,,,,,,,2023-08-16_08h28.54.974,HF_wild_card,2022.2.4,Win32,60.87538808,63d13cca81e6d01c11fb0ca5,64d2fd46c836a06233681665,64dc7a9a449041920ea08dcd,,,,,,,ctch,resources/DP.BMP,resources/DBN.BMP,Door4,-0.314814815,-0.028703704,1,0,0,0.5639,optionLeft,60,13825,6,27,0,27,0,1,,,,,,,,,,,,,,,,,,,,,,,,,,,,,,,,,,,,,,,
,,,,,,,,2023-08-16_08h28.54.974,HF_wild_card,2022.2.4,Win32,60.87538808,63d13cca81e6d01c11fb0ca5,64d2fd46c836a06233681665,64dc7a9a449041920ea08dcd,,,,,,,decisionTrl,resources/DP.BMP,resources/DG.BMP,Door3,0.331481481,0.035185185,1,0,0,1.1645,optionRight,70,13895,6,28,0,28,0,1,,,,,,,,,,,,,,,,,,,,,,,,,,,,,,,,,,,,,,,
,,,,,,,,2023-08-16_08h28.54.974,HF_wild_card,2022.2.4,Win32,60.87538808,63d13cca81e6d01c11fb0ca5,64d2fd46c836a06233681665,64dc7a9a449041920ea08dcd,,,,,,,sngl,resources/DY.BMP,resources/Empty.png,WildCard_Ex,-0.238888889,-0.037962963,1,0,0,0.6304,optionLeft,5,13900,6,29,0,29,0,1,,,,,,,,,,,,,,,,,,,,,,,,,,,,,,,,,,,,,,,
,,,,,,,,2023-08-16_08h28.54.974,HF_wild_card,2022.2.4,Win32,60.87538808,63d13cca81e6d01c11fb0ca5,64d2fd46c836a06233681665,64dc7a9a449041920ea08dcd,,,,,,,sngl,resources/Empty.png,resources/DBN.BMP,Door1,0.322222222,0.009259259,1,0,0,0.5095,optionRight,30,13930,6,30,0,30,0,1,,,,,,,,,,,,,,,,,,,,,,,,,,,,,,,,,,,,,,,
,,,,,,,,2023-08-16_08h28.54.974,HF_wild_card,2022.2.4,Win32,60.87538808,63d13cca81e6d01c11fb0ca5,64d2fd46c836a06233681665,64dc7a9a449041920ea08dcd,,,,,,,decisionTrl,resources/DP.BMP,resources/DG.BMP,Door4,-0.287962963,-0.010185185,1,0,0,1.2442,optionLeft,60,13990,6,31,0,31,0,1,,,,,,,,,,,,,,,,,,,,,,,,,,,,,,,,,,,,,,,
,,,,,,,,2023-08-16_08h28.54.974,HF_wild_card,2022.2.4,Win32,60.87538808,63d13cca81e6d01c11fb0ca5,64d2fd46c836a06233681665,64dc7a9a449041920ea08dcd,,,,,,,ctch,resources/DB.BMP,resources/DG.BMP,Door3,0.365740741,0.034259259,1,0,0,0.8471,optionRight,70,14060,6,32,0,32,0,1,,,,,,,,,,,,,,,,,,,,,,,,,,,,,,,,,,,,,,,
,,,,,,,,2023-08-16_08h28.54.974,HF_wild_card,2022.2.4,Win32,60.87538808,63d13cca81e6d01c11fb0ca5,64d2fd46c836a06233681665,64dc7a9a449041920ea08dcd,,,,,,,ctch,resources/DP.BMP,resources/DBN.BMP,Door4,-0.438888889,-0.056481481,1,0,0,0.5474,optionLeft,80,14140,6,33,0,33,0,1,,,,,,,,,,,,,,,,,,,,,,,,,,,,,,,,,,,,,,,
,,,,,,,,2023-08-16_08h28.54.974,HF_wild_card,2022.2.4,Win32,60.87538808,63d13cca81e6d01c11fb0ca5,64d2fd46c836a06233681665,64dc7a9a449041920ea08dcd,,,,,,,sngl,resources/DY.BMP,resources/Empty.png,WildCard_Ex,-0.29537037,-0.018518519,1,0,0,0.4794,optionLeft,95,14235,6,34,0,34,0,1,,,,,,,,,,,,,,,,,,,,,,,,,,,,,,,,,,,,,,,
,,,,,,,,2023-08-16_08h28.54.974,HF_wild_card,2022.2.4,Win32,60.87538808,63d13cca81e6d01c11fb0ca5,64d2fd46c836a06233681665,64dc7a9a449041920ea08dcd,,,,,,,sngl,resources/Empty.png,resources/DB.BMP,Door2,0.327777778,-0.007407407,1,0,0,0.861,optionRight,40,14275,6,35,0,35,0,1,,,,,,,,,,,,,,,,,,,,,,,,,,,,,,,,,,,,,,,
,,,,,,,,2023-08-16_08h28.54.974,HF_wild_card,2022.2.4,Win32,60.87538808,63d13cca81e6d01c11fb0ca5,64d2fd46c836a06233681665,64dc7a9a449041920ea08dcd,,,,,,,decisionTrl,resources/DBN.BMP,resources/DB.BMP,Door2,0.25,-0.011111111,1,0,0,0.5609,optionRight,40,14315,6,36,0,36,0,1,,,,,,,,,,,,,,,,,,,,,,,,,,,,,,,,,,,,,,,
,,,,,,,,2023-08-16_08h28.54.974,HF_wild_card,2022.2.4,Win32,60.87538808,63d13cca81e6d01c11fb0ca5,64d2fd46c836a06233681665,64dc7a9a449041920ea08dcd,,,,,,,decisionTrl,resources/DBN.BMP,resources/DB.BMP,Door2,0.267592593,-0.018518519,1,0,0,0.5143,optionRight,20,14335,6,37,0,37,0,1,,,,,,,,,,,,,,,,,,,,,,,,,,,,,,,,,,,,,,,
,,,,,,,,2023-08-16_08h28.54.974,HF_wild_card,2022.2.4,Win32,60.87538808,63d13cca81e6d01c11fb0ca5,64d2fd46c836a06233681665,64dc7a9a449041920ea08dcd,,,,,,,decisionTrl,resources/DB.BMP,resources/DY.BMP,WildCard_Ex,0.357407407,-0.017592593,1,0,0,0.9284,optionRight,5,14340,6,38,0,38,0,1,,,,,,,,,,,,,,,,,,,,,,,,,,,,,,,,,,,,,,,
,,,,,,,,2023-08-16_08h28.54.974,HF_wild_card,2022.2.4,Win32,60.87538808,63d13cca81e6d01c11fb0ca5,64d2fd46c836a06233681665,64dc7a9a449041920ea08dcd,,,,,,,ctch,resources/DBN.BMP,resources/DP.BMP,Door4,0.32037037,-0.034259259,1,0,0,0.5782,optionRight,80,14420,6,39,0,39,0,1,,,,,,,,,,,,,,,,,,,,,,,,,,,,,,,,,,,,,,,
,,,,,,,,2023-08-16_08h28.54.974,HF_wild_card,2022.2.4,Win32,60.87538808,63d13cca81e6d01c11fb0ca5,64d2fd46c836a06233681665,64dc7a9a449041920ea08dcd,,,,,,,decisionTrl,resources/DB.BMP,resources/DBN.BMP,Door2,-0.309259259,-0.037962963,1,0,0,1.1975,optionLeft,40,14460,6,40,0,40,0,1,,,,,,,,,,,,,,,,,,,,,,,,,,,,,,,,,,,,,,,
,,,,,,,,2023-08-16_08h28.54.974,HF_wild_card,2022.2.4,Win32,60.87538808,63d13cca81e6d01c11fb0ca5,64d2fd46c836a06233681665,64dc7a9a449041920ea08dcd,,,,,,,sngl,resources/Empty.png,resources/DY.BMP,WildCard_Ex,0.322222222,-0.011111111,1,0,0,0.4479,optionRight,5,14465,6,41,0,41,0,1,,,,,,,,,,,,,,,,,,,,,,,,,,,,,,,,,,,,,,,
,,,,,,,,2023-08-16_08h28.54.974,HF_wild_card,2022.2.4,Win32,60.87538808,63d13cca81e6d01c11fb0ca5,64d2fd46c836a06233681665,64dc7a9a449041920ea08dcd,,,,,,,sngl,resources/Empty.png,resources/DP.BMP,Door4,0.201851852,-0.035185185,1,0,0,0.6138,optionRight,80,14545,6,42,0,42,0,1,,,,,,,,,,,,,,,,,,,,,,,,,,,,,,,,,,,,,,,
,,,,,,,,2023-08-16_08h28.54.974,HF_wild_card,2022.2.4,Win32,60.87538808,63d13cca81e6d01c11fb0ca5,64d2fd46c836a06233681665,64dc7a9a449041920ea08dcd,,,,,,,decisionTrl,resources/DY.BMP,resources/DP.BMP,Door4,0.298148148,-0.024074074,1,0,0,1.0283,optionRight,60,14605,6,43,0,43,0,1,,,,,,,,,,,,,,,,,,,,,,,,,,,,,,,,,,,,,,,
,,,,,,,,2023-08-16_08h28.54.974,HF_wild_card,2022.2.4,Win32,60.87538808,63d13cca81e6d01c11fb0ca5,64d2fd46c836a06233681665,64dc7a9a449041920ea08dcd,,,,,,,,,,,,,,,,,,,,,,,,,,5,0,5,0,1,,,,,,,,,,,,,,,,,,,,,,,,,,,,,,,,,,
,,,,,,,,2023-08-16_08h28.54.974,HF_wild_card,2022.2.4,Win32,60.87538808,63d13cca81e6d01c11fb0ca5,64d2fd46c836a06233681665,64dc7a9a449041920ea08dcd,,,,,,,decisionTrl,resources/DP.BMP,resources/DG.BMP,Door4,-0.344444444,-0.080555556,1,0,0,1.4711,optionLeft,80,14685,7,0,0,0,0,1,,,,,,,,,,,,,,,,,,,,,,,,,,,,,,,,,,,,,,,
,,,,,,,,2023-08-16_08h28.54.974,HF_wild_card,2022.2.4,Win32,60.87538808,63d13cca81e6d01c11fb0ca5,64d2fd46c836a06233681665,64dc7a9a449041920ea08dcd,,,,,,,decisionTrl,resources/DB.BMP,resources/DBN.BMP,Door2,-0.253703704,-0.021296296,1,0,0,0.7636,optionLeft,40,14725,7,1,0,1,0,1,,,,,,,,,,,,,,,,,,,,,,,,,,,,,,,,,,,,,,,
,,,,,,,,2023-08-16_08h28.54.974,HF_wild_card,2022.2.4,Win32,60.87538808,63d13cca81e6d01c11fb0ca5,64d2fd46c836a06233681665,64dc7a9a449041920ea08dcd,,,,,,,decisionTrl,resources/DP.BMP,resources/DG.BMP,Door4,-0.27037037,-0.034259259,1,0,0,1.1321,optionLeft,60,14785,7,2,0,2,0,1,,,,,,,,,,,,,,,,,,,,,,,,,,,,,,,,,,,,,,,
,,,,,,,,2023-08-16_08h28.54.974,HF_wild_card,2022.2.4,Win32,60.87538808,63d13cca81e6d01c11fb0ca5,64d2fd46c836a06233681665,64dc7a9a449041920ea08dcd,,,,,,,decisionTrl,resources/DG.BMP,resources/DP.BMP,Door3,-0.346296296,-0.028703704,1,0,0,1.5823,optionLeft,70,14855,7,3,0,3,0,1,,,,,,,,,,,,,,,,,,,,,,,,,,,,,,,,,,,,,,,
,,,,,,,,2023-08-16_08h28.54.974,HF_wild_card,2022.2.4,Win32,60.87538808,63d13cca81e6d01c11fb0ca5,64d2fd46c836a06233681665,64dc7a9a449041920ea08dcd,,,,,,,ctch,resources/DB.BMP,resources/DG.BMP,Door3,0.367592593,0.006481481,1,0,0,0.7324,optionRight,70,14925,7,4,0,4,0,1,,,,,,,,,,,,,,,,,,,,,,,,,,,,,,,,,,,,,,,
,,,,,,,,2023-08-16_08h28.54.974,HF_wild_card,2022.2.4,Win32,60.87538808,63d13cca81e6d01c11fb0ca5,64d2fd46c836a06233681665,64dc7a9a449041920ea08dcd,,,,,,,decisionTrl,resources/DB.BMP,resources/DBN.BMP,Door2,-0.299074074,-0.037037037,1,0,0,0.9807,optionLeft,40,14965,7,5,0,5,0,1,,,,,,,,,,,,,,,,,,,,,,,,,,,,,,,,,,,,,,,
,,,,,,,,2023-08-16_08h28.54.974,HF_wild_card,2022.2.4,Win32,60.87538808,63d13cca81e6d01c11fb0ca5,64d2fd46c836a06233681665,64dc7a9a449041920ea08dcd,,,,,,,decisionTrl,resources/DP.BMP,resources/DG.BMP,Door3,0.350925926,0.025925926,1,0,0,1.7801,optionRight,70,15035,7,6,0,6,0,1,,,,,,,,,,,,,,,,,,,,,,,,,,,,,,,,,,,,,,,
,,,,,,,,2023-08-16_08h28.54.974,HF_wild_card,2022.2.4,Win32,60.87538808,63d13cca81e6d01c11fb0ca5,64d2fd46c836a06233681665,64dc7a9a449041920ea08dcd,,,,,,,decisionTrl,resources/DBN.BMP,resources/DB.BMP,Door2,0.322222222,-0.003703704,1,0,0,0.699,optionRight,40,15075,7,7,0,7,0,1,,,,,,,,,,,,,,,,,,,,,,,,,,,,,,,,,,,,,,,
,,,,,,,,2023-08-16_08h28.54.974,HF_wild_card,2022.2.4,Win32,60.87538808,63d13cca81e6d01c11fb0ca5,64d2fd46c836a06233681665,64dc7a9a449041920ea08dcd,,,,,,,ctch,resources/DP.BMP,resources/DBN.BMP,Door4,-0.359259259,-0.056481481,1,0,0,0.6641,optionLeft,60,15135,7,8,0,8,0,1,,,,,,,,,,,,,,,,,,,,,,,,,,,,,,,,,,,,,,,
,,,,,,,,2023-08-16_08h28.54.974,HF_wild_card,2022.2.4,Win32,60.87538808,63d13cca81e6d01c11fb0ca5,64d2fd46c836a06233681665,64dc7a9a449041920ea08dcd,,,,,,,ctch,resources/DG.BMP,resources/DB.BMP,Door3,-0.262962963,-0.012037037,1,0,0,0.8494,optionLeft,70,15205,7,9,0,9,0,1,,,,,,,,,,,,,,,,,,,,,,,,,,,,,,,,,,,,,,,
,,,,,,,,2023-08-16_08h28.54.974,HF_wild_card,2022.2.4,Win32,60.87538808,63d13cca81e6d01c11fb0ca5,64d2fd46c836a06233681665,64dc7a9a449041920ea08dcd,,,,,,,decisionTrl,resources/DB.BMP,resources/DBN.BMP,Door2,-0.256481481,-0.047222222,1,0,0,0.8132,optionLeft,40,15245,7,10,0,10,0,1,,,,,,,,,,,,,,,,,,,,,,,,,,,,,,,,,,,,,,,
,,,,,,,,2023-08-16_08h28.54.974,HF_wild_card,2022.2.4,Win32,60.87538808,63d13cca81e6d01c11fb0ca5,64d2fd46c836a06233681665,64dc7a9a449041920ea08dcd,,,,,,,decisionTrl,resources/DB.BMP,resources/DBN.BMP,Door1,0.287962963,0.016666667,1,0,0,0.9161,optionRight,30,15275,7,11,0,11,0,1,,,,,,,,,,,,,,,,,,,,,,,,,,,,,,,,,,,,,,,
,,,,,,,,2023-08-16_08h28.54.974,HF_wild_card,2022.2.4,Win32,60.87538808,63d13cca81e6d01c11fb0ca5,64d2fd46c836a06233681665,64dc7a9a449041920ea08dcd,,,,,,,ctch,resources/DP.BMP,resources/DBN.BMP,Door4,-0.255555556,-0.037037037,1,0,0,0.6658,optionLeft,80,15355,7,12,0,12,0,1,,,,,,,,,,,,,,,,,,,,,,,,,,,,,,,,,,,,,,,
,,,,,,,,2023-08-16_08h28.54.974,HF_wild_card,2022.2.4,Win32,60.87538808,63d13cca81e6d01c11fb0ca5,64d2fd46c836a06233681665,64dc7a9a449041920ea08dcd,,,,,,,ctch,resources/DB.BMP,resources/DG.BMP,Door3,0.35462963,0.014814815,1,0,0,0.7303,optionRight,70,15425,7,13,0,13,0,1,,,,,,,,,,,,,,,,,,,,,,,,,,,,,,,,,,,,,,,
,,,,,,,,2023-08-16_08h28.54.974,HF_wild_card,2022.2.4,Win32,60.87538808,63d13cca81e6d01c11fb0ca5,64d2fd46c836a06233681665,64dc7a9a449041920ea08dcd,,,,,,,decisionTrl,resources/DP.BMP,resources/DG.BMP,Door4,-0.259259259,-0.05,1,0,0,1.0658,optionLeft,80,15505,7,14,0,14,0,1,,,,,,,,,,,,,,,,,,,,,,,,,,,,,,,,,,,,,,,
,,,,,,,,2023-08-16_08h28.54.974,HF_wild_card,2022.2.4,Win32,60.87538808,63d13cca81e6d01c11fb0ca5,64d2fd46c836a06233681665,64dc7a9a449041920ea08dcd,,,,,,,decisionTrl,resources/DG.BMP,resources/DP.BMP,Door3,-0.237037037,-0.037037037,1,0,0,1.0461,optionLeft,70,15575,7,15,0,15,0,1,,,,,,,,,,,,,,,,,,,,,,,,,,,,,,,,,,,,,,,
,,,,,,,,2023-08-16_08h28.54.974,HF_wild_card,2022.2.4,Win32,60.87538808,63d13cca81e6d01c11fb0ca5,64d2fd46c836a06233681665,64dc7a9a449041920ea08dcd,,,,,,,decisionTrl,resources/DG.BMP,resources/DP.BMP,Door4,0.266666667,-0.028703704,1,0,0,0.8149,optionRight,60,15635,7,16,0,16,0,1,,,,,,,,,,,,,,,,,,,,,,,,,,,,,,,,,,,,,,,
,,,,,,,,2023-08-16_08h28.54.974,HF_wild_card,2022.2.4,Win32,60.87538808,63d13cca81e6d01c11fb0ca5,64d2fd46c836a06233681665,64dc7a9a449041920ea08dcd,,,,,,,decisionTrl,resources/DP.BMP,resources/DG.BMP,Door4,-0.216666667,-0.033333333,1,0,0,0.6265,optionLeft,60,15695,7,17,0,17,0,1,,,,,,,,,,,,,,,,,,,,,,,,,,,,,,,,,,,,,,,
,,,,,,,,2023-08-16_08h28.54.974,HF_wild_card,2022.2.4,Win32,60.87538808,63d13cca81e6d01c11fb0ca5,64d2fd46c836a06233681665,64dc7a9a449041920ea08dcd,,,,,,,decisionTrl,resources/DBN.BMP,resources/DB.BMP,Door2,0.231481481,0.005555556,1,0,0,0.65,optionRight,40,15735,7,18,0,18,0,1,,,,,,,,,,,,,,,,,,,,,,,,,,,,,,,,,,,,,,,
,,,,,,,,2023-08-16_08h28.54.974,HF_wild_card,2022.2.4,Win32,60.87538808,63d13cca81e6d01c11fb0ca5,64d2fd46c836a06233681665,64dc7a9a449041920ea08dcd,,,,,,,decisionTrl,resources/DBN.BMP,resources/DB.BMP,Door2,0.300925926,0.006481481,1,0,0,0.8162,optionRight,20,15755,7,19,0,19,0,1,,,,,,,,,,,,,,,,,,,,,,,,,,,,,,,,,,,,,,,
,,,,,,,,2023-08-16_08h28.54.974,HF_wild_card,2022.2.4,Win32,60.87538808,63d13cca81e6d01c11fb0ca5,64d2fd46c836a06233681665,64dc7a9a449041920ea08dcd,,,,,,,ctch,resources/DP.BMP,resources/DBN.BMP,Door4,-0.217592593,-0.037037037,1,0,0,0.8332,optionLeft,80,15835,7,20,0,20,0,1,,,,,,,,,,,,,,,,,,,,,,,,,,,,,,,,,,,,,,,
,,,,,,,,2023-08-16_08h28.54.974,HF_wild_card,2022.2.4,Win32,60.87538808,63d13cca81e6d01c11fb0ca5,64d2fd46c836a06233681665,64dc7a9a449041920ea08dcd,,,,,,,ctch,resources/DB.BMP,resources/DG.BMP,Door3,0.342592593,0.04537037,1,0,0,1.335,optionRight,70,15905,7,21,0,21,0,1,,,,,,,,,,,,,,,,,,,,,,,,,,,,,,,,,,,,,,,
,,,,,,,,2023-08-16_08h28.54.974,HF_wild_card,2022.2.4,Win32,60.87538808,63d13cca81e6d01c11fb0ca5,64d2fd46c836a06233681665,64dc7a9a449041920ea08dcd,,,,,,,decisionTrl,resources/DB.BMP,resources/DBN.BMP,Door1,0.261111111,0.038888889,1,0,0,1.0489,optionRight,30,15935,7,22,0,22,0,1,,,,,,,,,,,,,,,,,,,,,,,,,,,,,,,,,,,,,,,
,,,,,,,,2023-08-16_08h28.54.974,HF_wild_card,2022.2.4,Win32,60.87538808,63d13cca81e6d01c11fb0ca5,64d2fd46c836a06233681665,64dc7a9a449041920ea08dcd,,,,,,,decisionTrl,resources/DG.BMP,resources/DP.BMP,Door4,0.337037037,-0.001851852,1,0,0,0.8657,optionRight,60,15995,7,23,0,23,0,1,,,,,,,,,,,,,,,,,,,,,,,,,,,,,,,,,,,,,,,
,,,,,,,,2023-08-16_08h28.54.974,HF_wild_card,2022.2.4,Win32,60.87538808,63d13cca81e6d01c11fb0ca5,64d2fd46c836a06233681665,64dc7a9a449041920ea08dcd,,,,,,,decisionTrl,resources/DG.BMP,resources/DP.BMP,Door3,-0.191666667,-0.005555556,1,0,0,0.5372,optionLeft,70,16065,7,24,0,24,0,1,,,,,,,,,,,,,,,,,,,,,,,,,,,,,,,,,,,,,,,
,,,,,,,,2023-08-16_08h28.54.974,HF_wild_card,2022.2.4,Win32,60.87538808,63d13cca81e6d01c11fb0ca5,64d2fd46c836a06233681665,64dc7a9a449041920ea08dcd,,,,,,,decisionTrl,resources/DBN.BMP,resources/DB.BMP,Door2,0.393518519,0.041666667,1,0,0,0.6337,optionRight,20,16085,7,25,0,25,0,1,,,,,,,,,,,,,,,,,,,,,,,,,,,,,,,,,,,,,,,
,,,,,,,,2023-08-16_08h28.54.974,HF_wild_card,2022.2.4,Win32,60.87538808,63d13cca81e6d01c11fb0ca5,64d2fd46c836a06233681665,64dc7a9a449041920ea08dcd,,,,,,,ctch,resources/DBN.BMP,resources/DP.BMP,Door4,0.325,0.023148148,1,0,0,0.6383,optionRight,60,16145,7,26,0,26,0,1,,,,,,,,,,,,,,,,,,,,,,,,,,,,,,,,,,,,,,,
,,,,,,,,2023-08-16_08h28.54.974,HF_wild_card,2022.2.4,Win32,60.87538808,63d13cca81e6d01c11fb0ca5,64d2fd46c836a06233681665,64dc7a9a449041920ea08dcd,,,,,,,ctch,resources/DG.BMP,resources/DB.BMP,Door3,-0.241666667,-0.026851852,1,0,0,0.8969,optionLeft,70,16215,7,27,0,27,0,1,,,,,,,,,,,,,,,,,,,,,,,,,,,,,,,,,,,,,,,
,,,,,,,,2023-08-16_08h28.54.974,HF_wild_card,2022.2.4,Win32,60.87538808,63d13cca81e6d01c11fb0ca5,64d2fd46c836a06233681665,64dc7a9a449041920ea08dcd,,,,,,,ctch,resources/DG.BMP,resources/DB.BMP,Door3,-0.247222222,-0.028703704,1,0,0,0.5999,optionLeft,70,16285,7,28,0,28,0,1,,,,,,,,,,,,,,,,,,,,,,,,,,,,,,,,,,,,,,,
,,,,,,,,2023-08-16_08h28.54.974,HF_wild_card,2022.2.4,Win32,60.87538808,63d13cca81e6d01c11fb0ca5,64d2fd46c836a06233681665,64dc7a9a449041920ea08dcd,,,,,,,ctch,resources/DBN.BMP,resources/DP.BMP,Door4,0.358333333,0.00462963,1,0,0,0.5312,optionRight,80,16365,7,29,0,29,0,1,,,,,,,,,,,,,,,,,,,,,,,,,,,,,,,,,,,,,,,
,,,,,,,,2023-08-16_08h28.54.974,HF_wild_card,2022.2.4,Win32,60.87538808,63d13cca81e6d01c11fb0ca5,64d2fd46c836a06233681665,64dc7a9a449041920ea08dcd,,,,,,,decisionTrl,resources/DB.BMP,resources/DBN.BMP,Door2,-0.227777778,-0.037037037,1,0,0,0.5033,optionLeft,40,16405,7,30,0,30,0,1,,,,,,,,,,,,,,,,,,,,,,,,,,,,,,,,,,,,,,,
,,,,,,,,2023-08-16_08h28.54.974,HF_wild_card,2022.2.4,Win32,60.87538808,63d13cca81e6d01c11fb0ca5,64d2fd46c836a06233681665,64dc7a9a449041920ea08dcd,,,,,,,decisionTrl,resources/DBN.BMP,resources/DB.BMP,Door2,0.359259259,-0.002777778,1,0,0,0.518,optionRight,40,16445,7,31,0,31,0,1,,,,,,,,,,,,,,,,,,,,,,,,,,,,,,,,,,,,,,,
,,,,,,,,2023-08-16_08h28.54.974,HF_wild_card,2022.2.4,Win32,60.87538808,63d13cca81e6d01c11fb0ca5,64d2fd46c836a06233681665,64dc7a9a449041920ea08dcd,,,,,,,decisionTrl,resources/DBN.BMP,resources/DB.BMP,Door1,-0.267592593,-0.043518519,1,0,0,0.9157,optionLeft,30,16475,7,32,0,32,0,1,,,,,,,,,,,,,,,,,,,,,,,,,,,,,,,,,,,,,,,
,,,,,,,,2023-08-16_08h28.54.974,HF_wild_card,2022.2.4,Win32,60.87538808,63d13cca81e6d01c11fb0ca5,64d2fd46c836a06233681665,64dc7a9a449041920ea08dcd,,,,,,,decisionTrl,resources/DP.BMP,resources/DG.BMP,Door4,-0.242592593,-0.050925926,1,0,0,0.5599,optionLeft,60,16535,7,33,0,33,0,1,,,,,,,,,,,,,,,,,,,,,,,,,,,,,,,,,,,,,,,
,,,,,,,,2023-08-16_08h28.54.974,HF_wild_card,2022.2.4,Win32,60.87538808,63d13cca81e6d01c11fb0ca5,64d2fd46c836a06233681665,64dc7a9a449041920ea08dcd,,,,,,,ctch,resources/DBN.BMP,resources/DP.BMP,Door4,0.331481481,-0.012037037,1,0,0,0.5343,optionRight,60,16595,7,34,0,34,0,1,,,,,,,,,,,,,,,,,,,,,,,,,,,,,,,,,,,,,,,
,,,,,,,,2023-08-16_08h28.54.974,HF_wild_card,2022.2.4,Win32,60.87538808,63d13cca81e6d01c11fb0ca5,64d2fd46c836a06233681665,64dc7a9a449041920ea08dcd,,,,,,,decisionTrl,resources/DG.BMP,resources/DP.BMP,Door3,-0.249074074,-0.051851852,1,0,0,0.7985,optionLeft,70,16665,7,35,0,35,0,1,,,,,,,,,,,,,,,,,,,,,,,,,,,,,,,,,,,,,,,
,,,,,,,,2023-08-16_08h28.54.974,HF_wild_card,2022.2.4,Win32,60.87538808,63d13cca81e6d01c11fb0ca5,64d2fd46c836a06233681665,64dc7a9a449041920ea08dcd,,,,,,,,,,,,,,,,,,,,,,,,,,6,0,6,0,1,,,,,,,,,,,,,,,,,,,,,,,,,,,,,,,,,,
,,,,,,,,2023-08-16_08h28.54.974,HF_wild_card,2022.2.4,Win32,60.87538808,63d13cca81e6d01c11fb0ca5,64d2fd46c836a06233681665,64dc7a9a449041920ea08dcd,,,,,,,,,,,,,,,,,,,,,,,,,,,,,,,4,,,,,,,,,,,,,,,,,,,,,,,,,,,,,,,,,
,,,,,,,,2023-08-16_08h28.54.974,HF_wild_card,2022.2.4,Win32,60.87538808,63d13cca81e6d01c11fb0ca5,64d2fd46c836a06233681665,64dc7a9a449041920ea08dcd,,,,,,,,,,,,,,,,,,,,,,,,,,,,,,,,,,,,,,,,,,,,,,,,,,,,,,,,,,,,,,,,
,,,,,,,,2023-08-16_08h28.54.974,HF_wild_card,2022.2.4,Win32,60.87538808,63d13cca81e6d01c11fb0ca5,64d2fd46c836a06233681665,64dc7a9a449041920ea08dcd,,,,,,,,,,,,,,,,,,,,,,,,,,,,,,,,30,Door1,resources/DBN.BMP,0,0,0,0,1,,,,,,,,,,,,,,,,,,,,,,,,,
,,,,,,,,2023-08-16_08h28.54.974,HF_wild_card,2022.2.4,Win32,60.87538808,63d13cca81e6d01c11fb0ca5,64d2fd46c836a06233681665,64dc7a9a449041920ea08dcd,,,,,,,,,,,,,,,,,,,,,,,,,,,,,,,,40,Door2,resources/DB.BMP,1,0,1,0,1,,,,,,,,,,,,,,,,,,,,,,,,,
,,,,,,,,2023-08-16_08h28.54.974,HF_wild_card,2022.2.4,Win32,60.87538808,63d13cca81e6d01c11fb0ca5,64d2fd46c836a06233681665,64dc7a9a449041920ea08dcd,,,,,,,,,,,,,,,,,,,,,,,,,,,,,,,,70,Door4,resources/DP.BMP,2,0,2,0,1,,,,,,,,,,,,,,,,,,,,,,,,,
,,,,,,,,2023-08-16_08h28.54.974,HF_wild_card,2022.2.4,Win32,60.87538808,63d13cca81e6d01c11fb0ca5,64d2fd46c836a06233681665,64dc7a9a449041920ea08dcd,,,,,,,,,,,,,,,,,,,,,,,,,,,,,,,,70,Door3,resources/DG.BMP,3,0,3,0,1,,,,,,,,,,,,,,,,,,,,,,,,,
,,,,,,,,2023-08-16_08h28.54.974,HF_wild_card,2022.2.4,Win32,60.87538808,63d13cca81e6d01c11fb0ca5,64d2fd46c836a06233681665,64dc7a9a449041920ea08dcd,,,,,,,,,,,,,,,,,,,,,,,,,,,,,,,,40,WC_nonExtreme,resources/DR.BMP,4,0,4,0,1,,,,,,,,,,,,,,,,,,,,,,,,,
,,,,,,,,2023-08-16_08h28.54.974,HF_wild_card,2022.2.4,Win32,60.87538808,63d13cca81e6d01c11fb0ca5,64d2fd46c836a06233681665,64dc7a9a449041920ea08dcd,,,,,,,,,,,,,,,,,,,,,,,,,,,,,,,,95,WC_extreme,resources/DY.BMP,5,0,5,0,1,,,,,,,,,,,,,,,,,,,,,,,,,
,,,,,,,,2023-08-16_08h28.54.974,HF_wild_card,2022.2.4,Win32,60.87538808,63d13cca81e6d01c11fb0ca5,64d2fd46c836a06233681665,64dc7a9a449041920ea08dcd,,,,,,,,,,,,,,,,,,,,,,,,,,,,,,,,,,,,,,,,,,,,,,,,,,,,,,,,,,,,,,,,
