Condition,Low fixed image (Door1),Low risky image (Door2),High fixed image (Door3),High risky image (Door4),Extreme Wild Card,NonExtreme Wild Card,,date,expName,psychopyVersion,OS,frameRate,PROLIFIC_PID,STUDY_ID,SESSION_ID,mouse_2.x,mouse_2.y,mouse_2.leftButton,mouse_2.midButton,mouse_2.rightButton,mouse_2.clicked_name,Trial Type,Left Option Image,Right Option Image,Chosen Door,mouse.x,mouse.y,mouse.leftButton,mouse.midButton,mouse.rightButton,mouse.time,mouse.clicked_name,Feedback,Cumulative Reward,Block,trial.thisRepN,trial.thisTrialN,trial.thisN,trial.thisIndex,trial.ran,blocks.thisRepN,blocks.thisTrialN,blocks.thisN,blocks.thisIndex,blocks.ran,Money conversion,First Outcome Reported,Shown Door (First Outcome),Displayed Image (First Outcome),outcomes.thisRepN,outcomes.thisTrialN,outcomes.thisN,outcomes.thisIndex,outcomes.ran,judgments.thisRepN,judgments.thisTrialN,judgments.thisN,judgments.thisIndex,judgments.ran,freqMouse.x,freqMouse.y,freqMouse.leftButton,freqMouse.midButton,freqMouse.rightButton,freqMouse.clicked_name,FQJ for first outcome,FQJ for second outcome,Shown Door,Displayed Image,trials.thisRepN,trials.thisTrialN,trials.thisN,trials.thisIndex,trials.ran,judgBlock.thisRepN,judgBlock.thisTrialN,judgBlock.thisN,judgBlock.thisIndex,judgBlock.ran
0,resources/DP.BMP,resources/DBN.BMP,resources/DR.BMP,resources/DB.BMP,resources/DG.BMP,resources/DY.BMP,,2023-08-16_08h42.04.075,HF_wild_card,2022.2.4,Win32,29.96883241,5e258b8b3d2e1b7e12b4ebda,64d2fd46c836a06233681665,64dc7dbd03c3f74a1f133b9c,,,,,,,,,,,,,,,,,,,,,,,,,,,,,,,,,,,,,,,,,,,,,,,,,,,,,,,,,,,,,,,,
,,,,,,,,2023-08-16_08h42.04.075,HF_wild_card,2022.2.4,Win32,29.96883241,5e258b8b3d2e1b7e12b4ebda,64d2fd46c836a06233681665,64dc7dbd03c3f74a1f133b9c,0.013333333,-0.408888889,1,0,0,agree,,,,,,,,,,,,,,,,,,,,,,,,,,,,,,,,,,,,,,,,,,,,,,,,,,,,,,,,,,
,,,,,,,,2023-08-16_08h42.04.075,HF_wild_card,2022.2.4,Win32,29.96883241,5e258b8b3d2e1b7e12b4ebda,64d2fd46c836a06233681665,64dc7dbd03c3f74a1f133b9c,,,,,,,,,,,,,,,,,,,,,,,,,,,,,,,,,,,,,,,,,,,,,,,,,,,,,,,,,,,,,,,,
,,,,,,,,2023-08-16_08h42.04.075,HF_wild_card,2022.2.4,Win32,29.96883241,5e258b8b3d2e1b7e12b4ebda,64d2fd46c836a06233681665,64dc7dbd03c3f74a1f133b9c,,,,,,,ctch,resources/DR.BMP,resources/DBN.BMP,Door2,0.387777778,-0.084444444,1,0,0,7.5172,optionRight,40,40,1,0,0,0,0,1,,,,,,,,,,,,,,,,,,,,,,,,,,,,,,,,,,,,,,,
,,,,,,,,2023-08-16_08h42.04.075,HF_wild_card,2022.2.4,Win32,29.96883241,5e258b8b3d2e1b7e12b4ebda,64d2fd46c836a06233681665,64dc7dbd03c3f74a1f133b9c,,,,,,,decisionTrl,resources/DBN.BMP,resources/DP.BMP,Door2,-0.308888889,-0.035555556,1,0,0,2.9359,optionLeft,20,60,1,1,0,1,0,1,,,,,,,,,,,,,,,,,,,,,,,,,,,,,,,,,,,,,,,
,,,,,,,,2023-08-16_08h42.04.075,HF_wild_card,2022.2.4,Win32,29.96883241,5e258b8b3d2e1b7e12b4ebda,64d2fd46c836a06233681665,64dc7dbd03c3f74a1f133b9c,,,,,,,sngl,resources/Empty.png,resources/DR.BMP,Door3,0.301111111,-0.067777778,1,0,0,1.495,optionRight,70,130,1,2,0,2,0,1,,,,,,,,,,,,,,,,,,,,,,,,,,,,,,,,,,,,,,,
,,,,,,,,2023-08-16_08h42.04.075,HF_wild_card,2022.2.4,Win32,29.96883241,5e258b8b3d2e1b7e12b4ebda,64d2fd46c836a06233681665,64dc7dbd03c3f74a1f133b9c,,,,,,,sngl,resources/DBN.BMP,resources/Empty.png,Door2,-0.285555556,0,1,0,0,1.0832,optionLeft,40,170,1,3,0,3,0,1,,,,,,,,,,,,,,,,,,,,,,,,,,,,,,,,,,,,,,,
,,,,,,,,2023-08-16_08h42.04.075,HF_wild_card,2022.2.4,Win32,29.96883241,5e258b8b3d2e1b7e12b4ebda,64d2fd46c836a06233681665,64dc7dbd03c3f74a1f133b9c,,,,,,,sngl,resources/Empty.png,resources/DG.BMP,WildCard_Ex,0.316666667,-0.075555556,1,0,0,1.611,optionRight,5,175,1,4,0,4,0,1,,,,,,,,,,,,,,,,,,,,,,,,,,,,,,,,,,,,,,,
,,,,,,,,2023-08-16_08h42.04.075,HF_wild_card,2022.2.4,Win32,29.96883241,5e258b8b3d2e1b7e12b4ebda,64d2fd46c836a06233681665,64dc7dbd03c3f74a1f133b9c,,,,,,,decisionTrl,resources/DBN.BMP,resources/DP.BMP,Door2,-0.281111111,-0.013333333,1,0,0,1.9477,optionLeft,40,215,1,5,0,5,0,1,,,,,,,,,,,,,,,,,,,,,,,,,,,,,,,,,,,,,,,
,,,,,,,,2023-08-16_08h42.04.075,HF_wild_card,2022.2.4,Win32,29.96883241,5e258b8b3d2e1b7e12b4ebda,64d2fd46c836a06233681665,64dc7dbd03c3f74a1f133b9c,,,,,,,decisionTrl,resources/DG.BMP,resources/DP.BMP,WildCard_Ex,-0.3,-0.04,1,0,0,3.7699,optionLeft,95,310,1,6,0,6,0,1,,,,,,,,,,,,,,,,,,,,,,,,,,,,,,,,,,,,,,,
,,,,,,,,2023-08-16_08h42.04.075,HF_wild_card,2022.2.4,Win32,29.96883241,5e258b8b3d2e1b7e12b4ebda,64d2fd46c836a06233681665,64dc7dbd03c3f74a1f133b9c,,,,,,,decisionTrl,resources/DP.BMP,resources/DBN.BMP,Door2,0.433333333,-0.05,1,0,0,1.04,optionRight,20,330,1,7,0,7,0,1,,,,,,,,,,,,,,,,,,,,,,,,,,,,,,,,,,,,,,,
,,,,,,,,2023-08-16_08h42.04.075,HF_wild_card,2022.2.4,Win32,29.96883241,5e258b8b3d2e1b7e12b4ebda,64d2fd46c836a06233681665,64dc7dbd03c3f74a1f133b9c,,,,,,,decisionTrl,resources/DG.BMP,resources/DBN.BMP,Door2,0.295555556,-0.062222222,1,0,0,1.1137,optionRight,40,370,1,8,0,8,0,1,,,,,,,,,,,,,,,,,,,,,,,,,,,,,,,,,,,,,,,
,,,,,,,,2023-08-16_08h42.04.075,HF_wild_card,2022.2.4,Win32,29.96883241,5e258b8b3d2e1b7e12b4ebda,64d2fd46c836a06233681665,64dc7dbd03c3f74a1f133b9c,,,,,,,decisionTrl,resources/DG.BMP,resources/DR.BMP,WildCard_Ex,-0.208888889,-0.025555556,1,0,0,1.1053,optionLeft,95,465,1,9,0,9,0,1,,,,,,,,,,,,,,,,,,,,,,,,,,,,,,,,,,,,,,,
,,,,,,,,2023-08-16_08h42.04.075,HF_wild_card,2022.2.4,Win32,29.96883241,5e258b8b3d2e1b7e12b4ebda,64d2fd46c836a06233681665,64dc7dbd03c3f74a1f133b9c,,,,,,,decisionTrl,resources/DR.BMP,resources/DB.BMP,Door4,0.267777778,-0.083333333,1,0,0,2.9849,optionRight,80,545,1,10,0,10,0,1,,,,,,,,,,,,,,,,,,,,,,,,,,,,,,,,,,,,,,,
,,,,,,,,2023-08-16_08h42.04.075,HF_wild_card,2022.2.4,Win32,29.96883241,5e258b8b3d2e1b7e12b4ebda,64d2fd46c836a06233681665,64dc7dbd03c3f74a1f133b9c,,,,,,,sngl,resources/DG.BMP,resources/Empty.png,WildCard_Ex,-0.276666667,-0.01,1,0,0,1.029,optionLeft,95,640,1,11,0,11,0,1,,,,,,,,,,,,,,,,,,,,,,,,,,,,,,,,,,,,,,,
,,,,,,,,2023-08-16_08h42.04.075,HF_wild_card,2022.2.4,Win32,29.96883241,5e258b8b3d2e1b7e12b4ebda,64d2fd46c836a06233681665,64dc7dbd03c3f74a1f133b9c,,,,,,,decisionTrl,resources/DP.BMP,resources/DG.BMP,WildCard_Ex,0.326666667,-0.05,1,0,0,0.921,optionRight,95,735,1,12,0,12,0,1,,,,,,,,,,,,,,,,,,,,,,,,,,,,,,,,,,,,,,,
,,,,,,,,2023-08-16_08h42.04.075,HF_wild_card,2022.2.4,Win32,29.96883241,5e258b8b3d2e1b7e12b4ebda,64d2fd46c836a06233681665,64dc7dbd03c3f74a1f133b9c,,,,,,,decisionTrl,resources/DBN.BMP,resources/DP.BMP,Door1,0.346666667,-0.104444444,1,0,0,2.1887,optionRight,30,765,1,13,0,13,0,1,,,,,,,,,,,,,,,,,,,,,,,,,,,,,,,,,,,,,,,
,,,,,,,,2023-08-16_08h42.04.075,HF_wild_card,2022.2.4,Win32,29.96883241,5e258b8b3d2e1b7e12b4ebda,64d2fd46c836a06233681665,64dc7dbd03c3f74a1f133b9c,,,,,,,ctch,resources/DP.BMP,resources/DB.BMP,Door4,0.286666667,-0.052222222,1,0,0,1.6977,optionRight,80,845,1,14,0,14,0,1,,,,,,,,,,,,,,,,,,,,,,,,,,,,,,,,,,,,,,,
,,,,,,,,2023-08-16_08h42.04.075,HF_wild_card,2022.2.4,Win32,29.96883241,5e258b8b3d2e1b7e12b4ebda,64d2fd46c836a06233681665,64dc7dbd03c3f74a1f133b9c,,,,,,,sngl,resources/DR.BMP,resources/Empty.png,Door3,-0.308888889,-0.027777778,1,0,0,1.2127,optionLeft,70,915,1,15,0,15,0,1,,,,,,,,,,,,,,,,,,,,,,,,,,,,,,,,,,,,,,,
,,,,,,,,2023-08-16_08h42.04.075,HF_wild_card,2022.2.4,Win32,29.96883241,5e258b8b3d2e1b7e12b4ebda,64d2fd46c836a06233681665,64dc7dbd03c3f74a1f133b9c,,,,,,,sngl,resources/DP.BMP,resources/Empty.png,Door1,-0.257777778,-0.034444444,1,0,0,1.2129,optionLeft,30,945,1,16,0,16,0,1,,,,,,,,,,,,,,,,,,,,,,,,,,,,,,,,,,,,,,,
,,,,,,,,2023-08-16_08h42.04.075,HF_wild_card,2022.2.4,Win32,29.96883241,5e258b8b3d2e1b7e12b4ebda,64d2fd46c836a06233681665,64dc7dbd03c3f74a1f133b9c,,,,,,,decisionTrl,resources/DP.BMP,resources/DBN.BMP,Door2,0.206666667,-0.047777778,1,0,0,1.5847,optionRight,20,965,1,17,0,17,0,1,,,,,,,,,,,,,,,,,,,,,,,,,,,,,,,,,,,,,,,
,,,,,,,,2023-08-16_08h42.04.075,HF_wild_card,2022.2.4,Win32,29.96883241,5e258b8b3d2e1b7e12b4ebda,64d2fd46c836a06233681665,64dc7dbd03c3f74a1f133b9c,,,,,,,ctch,resources/DBN.BMP,resources/DR.BMP,Door3,0.26,-0.067777778,1,0,0,1.5189,optionRight,70,1035,1,18,0,18,0,1,,,,,,,,,,,,,,,,,,,,,,,,,,,,,,,,,,,,,,,
,,,,,,,,2023-08-16_08h42.04.075,HF_wild_card,2022.2.4,Win32,29.96883241,5e258b8b3d2e1b7e12b4ebda,64d2fd46c836a06233681665,64dc7dbd03c3f74a1f133b9c,,,,,,,ctch,resources/DBN.BMP,resources/DR.BMP,Door3,0.312222222,-0.045555556,1,0,0,1.1806,optionRight,70,1105,1,19,0,19,0,1,,,,,,,,,,,,,,,,,,,,,,,,,,,,,,,,,,,,,,,
,,,,,,,,2023-08-16_08h42.04.075,HF_wild_card,2022.2.4,Win32,29.96883241,5e258b8b3d2e1b7e12b4ebda,64d2fd46c836a06233681665,64dc7dbd03c3f74a1f133b9c,,,,,,,decisionTrl,resources/DR.BMP,resources/DB.BMP,Door4,0.272222222,-0.053333333,1,0,0,1.3067,optionRight,60,1165,1,20,0,20,0,1,,,,,,,,,,,,,,,,,,,,,,,,,,,,,,,,,,,,,,,
,,,,,,,,2023-08-16_08h42.04.075,HF_wild_card,2022.2.4,Win32,29.96883241,5e258b8b3d2e1b7e12b4ebda,64d2fd46c836a06233681665,64dc7dbd03c3f74a1f133b9c,,,,,,,decisionTrl,resources/DB.BMP,resources/DR.BMP,Door3,0.31,-0.026666667,1,0,0,1.7202,optionRight,70,1235,1,21,0,21,0,1,,,,,,,,,,,,,,,,,,,,,,,,,,,,,,,,,,,,,,,
,,,,,,,,2023-08-16_08h42.04.075,HF_wild_card,2022.2.4,Win32,29.96883241,5e258b8b3d2e1b7e12b4ebda,64d2fd46c836a06233681665,64dc7dbd03c3f74a1f133b9c,,,,,,,sngl,resources/DB.BMP,resources/Empty.png,Door4,-0.264444444,-0.002222222,1,0,0,1.3548,optionLeft,80,1315,1,22,0,22,0,1,,,,,,,,,,,,,,,,,,,,,,,,,,,,,,,,,,,,,,,
,,,,,,,,2023-08-16_08h42.04.075,HF_wild_card,2022.2.4,Win32,29.96883241,5e258b8b3d2e1b7e12b4ebda,64d2fd46c836a06233681665,64dc7dbd03c3f74a1f133b9c,,,,,,,sngl,resources/Empty.png,resources/DP.BMP,Door1,0.296666667,-0.058888889,1,0,0,1.0657,optionRight,30,1345,1,23,0,23,0,1,,,,,,,,,,,,,,,,,,,,,,,,,,,,,,,,,,,,,,,
,,,,,,,,2023-08-16_08h42.04.075,HF_wild_card,2022.2.4,Win32,29.96883241,5e258b8b3d2e1b7e12b4ebda,64d2fd46c836a06233681665,64dc7dbd03c3f74a1f133b9c,,,,,,,decisionTrl,resources/DR.BMP,resources/DG.BMP,WildCard_Ex,0.34,-0.033333333,1,0,0,2.7807,optionRight,5,1350,1,24,0,24,0,1,,,,,,,,,,,,,,,,,,,,,,,,,,,,,,,,,,,,,,,
,,,,,,,,2023-08-16_08h42.04.075,HF_wild_card,2022.2.4,Win32,29.96883241,5e258b8b3d2e1b7e12b4ebda,64d2fd46c836a06233681665,64dc7dbd03c3f74a1f133b9c,,,,,,,decisionTrl,resources/DB.BMP,resources/DR.BMP,Door3,0.32,-0.093333333,1,0,0,1.9121,optionRight,70,1420,1,25,0,25,0,1,,,,,,,,,,,,,,,,,,,,,,,,,,,,,,,,,,,,,,,
,,,,,,,,2023-08-16_08h42.04.075,HF_wild_card,2022.2.4,Win32,29.96883241,5e258b8b3d2e1b7e12b4ebda,64d2fd46c836a06233681665,64dc7dbd03c3f74a1f133b9c,,,,,,,decisionTrl,resources/DR.BMP,resources/DB.BMP,Door3,-0.242222222,-0.051111111,1,0,0,1.1021,optionLeft,70,1490,1,26,0,26,0,1,,,,,,,,,,,,,,,,,,,,,,,,,,,,,,,,,,,,,,,
,,,,,,,,2023-08-16_08h42.04.075,HF_wild_card,2022.2.4,Win32,29.96883241,5e258b8b3d2e1b7e12b4ebda,64d2fd46c836a06233681665,64dc7dbd03c3f74a1f133b9c,,,,,,,sngl,resources/Empty.png,resources/DB.BMP,Door4,0.284444444,-0.033333333,1,0,0,0.782,optionRight,60,1550,1,27,0,27,0,1,,,,,,,,,,,,,,,,,,,,,,,,,,,,,,,,,,,,,,,
,,,,,,,,2023-08-16_08h42.04.075,HF_wild_card,2022.2.4,Win32,29.96883241,5e258b8b3d2e1b7e12b4ebda,64d2fd46c836a06233681665,64dc7dbd03c3f74a1f133b9c,,,,,,,decisionTrl,resources/DB.BMP,resources/DR.BMP,Door3,0.273333333,-0.053333333,1,0,0,1.0101,optionRight,70,1620,1,28,0,28,0,1,,,,,,,,,,,,,,,,,,,,,,,,,,,,,,,,,,,,,,,
,,,,,,,,2023-08-16_08h42.04.075,HF_wild_card,2022.2.4,Win32,29.96883241,5e258b8b3d2e1b7e12b4ebda,64d2fd46c836a06233681665,64dc7dbd03c3f74a1f133b9c,,,,,,,sngl,resources/Empty.png,resources/DG.BMP,WildCard_Ex,0.32,-0.064444444,1,0,0,0.8625,optionRight,95,1715,1,29,0,29,0,1,,,,,,,,,,,,,,,,,,,,,,,,,,,,,,,,,,,,,,,
,,,,,,,,2023-08-16_08h42.04.075,HF_wild_card,2022.2.4,Win32,29.96883241,5e258b8b3d2e1b7e12b4ebda,64d2fd46c836a06233681665,64dc7dbd03c3f74a1f133b9c,,,,,,,decisionTrl,resources/DP.BMP,resources/DBN.BMP,Door1,-0.315555556,-0.006666667,1,0,0,1.1913,optionLeft,30,1745,1,30,0,30,0,1,,,,,,,,,,,,,,,,,,,,,,,,,,,,,,,,,,,,,,,
,,,,,,,,2023-08-16_08h42.04.075,HF_wild_card,2022.2.4,Win32,29.96883241,5e258b8b3d2e1b7e12b4ebda,64d2fd46c836a06233681665,64dc7dbd03c3f74a1f133b9c,,,,,,,ctch,resources/DB.BMP,resources/DP.BMP,Door4,-0.334444444,0.001111111,1,0,0,3.8883,optionLeft,80,1825,1,31,0,31,0,1,,,,,,,,,,,,,,,,,,,,,,,,,,,,,,,,,,,,,,,
,,,,,,,,2023-08-16_08h42.04.075,HF_wild_card,2022.2.4,Win32,29.96883241,5e258b8b3d2e1b7e12b4ebda,64d2fd46c836a06233681665,64dc7dbd03c3f74a1f133b9c,,,,,,,ctch,resources/DB.BMP,resources/DP.BMP,Door4,-0.312222222,-0.01,1,0,0,0.9035,optionLeft,60,1885,1,32,0,32,0,1,,,,,,,,,,,,,,,,,,,,,,,,,,,,,,,,,,,,,,,
,,,,,,,,2023-08-16_08h42.04.075,HF_wild_card,2022.2.4,Win32,29.96883241,5e258b8b3d2e1b7e12b4ebda,64d2fd46c836a06233681665,64dc7dbd03c3f74a1f133b9c,,,,,,,decisionTrl,resources/DBN.BMP,resources/DG.BMP,WildCard_Ex,0.373333333,-0.043333333,1,0,0,1.0573,optionRight,95,1980,1,33,0,33,0,1,,,,,,,,,,,,,,,,,,,,,,,,,,,,,,,,,,,,,,,
,,,,,,,,2023-08-16_08h42.04.075,HF_wild_card,2022.2.4,Win32,29.96883241,5e258b8b3d2e1b7e12b4ebda,64d2fd46c836a06233681665,64dc7dbd03c3f74a1f133b9c,,,,,,,ctch,resources/DR.BMP,resources/DBN.BMP,Door3,-0.252222222,-0.002222222,1,0,0,1.2248,optionLeft,70,2050,1,34,0,34,0,1,,,,,,,,,,,,,,,,,,,,,,,,,,,,,,,,,,,,,,,
,,,,,,,,2023-08-16_08h42.04.075,HF_wild_card,2022.2.4,Win32,29.96883241,5e258b8b3d2e1b7e12b4ebda,64d2fd46c836a06233681665,64dc7dbd03c3f74a1f133b9c,,,,,,,decisionTrl,resources/DP.BMP,resources/DBN.BMP,Door1,-0.205555556,-0.037777778,1,0,0,0.9356,optionLeft,30,2080,1,35,0,35,0,1,,,,,,,,,,,,,,,,,,,,,,,,,,,,,,,,,,,,,,,
,,,,,,,,2023-08-16_08h42.04.075,HF_wild_card,2022.2.4,Win32,29.96883241,5e258b8b3d2e1b7e12b4ebda,64d2fd46c836a06233681665,64dc7dbd03c3f74a1f133b9c,,,,,,,decisionTrl,resources/DB.BMP,resources/DR.BMP,Door3,0.277777778,-0.064444444,1,0,0,2.4205,optionRight,70,2150,1,36,0,36,0,1,,,,,,,,,,,,,,,,,,,,,,,,,,,,,,,,,,,,,,,
,,,,,,,,2023-08-16_08h42.04.075,HF_wild_card,2022.2.4,Win32,29.96883241,5e258b8b3d2e1b7e12b4ebda,64d2fd46c836a06233681665,64dc7dbd03c3f74a1f133b9c,,,,,,,sngl,resources/DG.BMP,resources/Empty.png,WildCard_Ex,-0.267777778,-0.004444444,1,0,0,0.8067,optionLeft,5,2155,1,37,0,37,0,1,,,,,,,,,,,,,,,,,,,,,,,,,,,,,,,,,,,,,,,
,,,,,,,,2023-08-16_08h42.04.075,HF_wild_card,2022.2.4,Win32,29.96883241,5e258b8b3d2e1b7e12b4ebda,64d2fd46c836a06233681665,64dc7dbd03c3f74a1f133b9c,,,,,,,sngl,resources/Empty.png,resources/DBN.BMP,Door2,0.274444444,-0.07,1,0,0,1.2105,optionRight,20,2175,1,38,0,38,0,1,,,,,,,,,,,,,,,,,,,,,,,,,,,,,,,,,,,,,,,
,,,,,,,,2023-08-16_08h42.04.075,HF_wild_card,2022.2.4,Win32,29.96883241,5e258b8b3d2e1b7e12b4ebda,64d2fd46c836a06233681665,64dc7dbd03c3f74a1f133b9c,,,,,,,decisionTrl,resources/DR.BMP,resources/DB.BMP,Door3,-0.224444444,-0.018888889,1,0,0,2.5902,optionLeft,70,2245,1,39,0,39,0,1,,,,,,,,,,,,,,,,,,,,,,,,,,,,,,,,,,,,,,,
,,,,,,,,2023-08-16_08h42.04.075,HF_wild_card,2022.2.4,Win32,29.96883241,5e258b8b3d2e1b7e12b4ebda,64d2fd46c836a06233681665,64dc7dbd03c3f74a1f133b9c,,,,,,,decisionTrl,resources/DG.BMP,resources/DB.BMP,WildCard_Ex,-0.185555556,-0.017777778,1,0,0,0.9421,optionLeft,95,2340,1,40,0,40,0,1,,,,,,,,,,,,,,,,,,,,,,,,,,,,,,,,,,,,,,,
,,,,,,,,2023-08-16_08h42.04.075,HF_wild_card,2022.2.4,Win32,29.96883241,5e258b8b3d2e1b7e12b4ebda,64d2fd46c836a06233681665,64dc7dbd03c3f74a1f133b9c,,,,,,,decisionTrl,resources/DB.BMP,resources/DG.BMP,WildCard_Ex,0.312222222,-0.053333333,1,0,0,0.8442,optionRight,95,2435,1,41,0,41,0,1,,,,,,,,,,,,,,,,,,,,,,,,,,,,,,,,,,,,,,,
,,,,,,,,2023-08-16_08h42.04.075,HF_wild_card,2022.2.4,Win32,29.96883241,5e258b8b3d2e1b7e12b4ebda,64d2fd46c836a06233681665,64dc7dbd03c3f74a1f133b9c,,,,,,,decisionTrl,resources/DBN.BMP,resources/DP.BMP,Door1,0.335555556,-0.064444444,1,0,0,1.0273,optionRight,30,2465,1,42,0,42,0,1,,,,,,,,,,,,,,,,,,,,,,,,,,,,,,,,,,,,,,,
,,,,,,,,2023-08-16_08h42.04.075,HF_wild_card,2022.2.4,Win32,29.96883241,5e258b8b3d2e1b7e12b4ebda,64d2fd46c836a06233681665,64dc7dbd03c3f74a1f133b9c,,,,,,,ctch,resources/DP.BMP,resources/DB.BMP,Door4,0.3,-0.058888889,1,0,0,2.1165,optionRight,80,2545,1,43,0,43,0,1,,,,,,,,,,,,,,,,,,,,,,,,,,,,,,,,,,,,,,,
,,,,,,,,2023-08-16_08h42.04.075,HF_wild_card,2022.2.4,Win32,29.96883241,5e258b8b3d2e1b7e12b4ebda,64d2fd46c836a06233681665,64dc7dbd03c3f74a1f133b9c,,,,,,,,,,,,,,,,,,,,,,,,,,0,0,0,0,1,,,,,,,,,,,,,,,,,,,,,,,,,,,,,,,,,,
,,,,,,,,2023-08-16_08h42.04.075,HF_wild_card,2022.2.4,Win32,29.96883241,5e258b8b3d2e1b7e12b4ebda,64d2fd46c836a06233681665,64dc7dbd03c3f74a1f133b9c,,,,,,,decisionTrl,resources/DP.BMP,resources/DBN.BMP,Door1,-0.37,-0.007777778,1,0,0,1.1003,optionLeft,30,2575,2,0,0,0,0,1,,,,,,,,,,,,,,,,,,,,,,,,,,,,,,,,,,,,,,,
,,,,,,,,2023-08-16_08h42.04.075,HF_wild_card,2022.2.4,Win32,29.96883241,5e258b8b3d2e1b7e12b4ebda,64d2fd46c836a06233681665,64dc7dbd03c3f74a1f133b9c,,,,,,,sngl,resources/Empty.png,resources/DG.BMP,WildCard_Ex,0.273333333,-0.01,1,0,0,0.6946,optionRight,5,2580,2,1,0,1,0,1,,,,,,,,,,,,,,,,,,,,,,,,,,,,,,,,,,,,,,,
,,,,,,,,2023-08-16_08h42.04.075,HF_wild_card,2022.2.4,Win32,29.96883241,5e258b8b3d2e1b7e12b4ebda,64d2fd46c836a06233681665,64dc7dbd03c3f74a1f133b9c,,,,,,,decisionTrl,resources/DR.BMP,resources/DG.BMP,WildCard_Ex,0.267777778,0,1,0,0,0.7036,optionRight,5,2585,2,2,0,2,0,1,,,,,,,,,,,,,,,,,,,,,,,,,,,,,,,,,,,,,,,
,,,,,,,,2023-08-16_08h42.04.075,HF_wild_card,2022.2.4,Win32,29.96883241,5e258b8b3d2e1b7e12b4ebda,64d2fd46c836a06233681665,64dc7dbd03c3f74a1f133b9c,,,,,,,decisionTrl,resources/DP.BMP,resources/DBN.BMP,Door1,-0.264444444,-0.001111111,1,0,0,1.0601,optionLeft,30,2615,2,3,0,3,0,1,,,,,,,,,,,,,,,,,,,,,,,,,,,,,,,,,,,,,,,
,,,,,,,,2023-08-16_08h42.04.075,HF_wild_card,2022.2.4,Win32,29.96883241,5e258b8b3d2e1b7e12b4ebda,64d2fd46c836a06233681665,64dc7dbd03c3f74a1f133b9c,,,,,,,decisionTrl,resources/DBN.BMP,resources/DP.BMP,Door1,0.285555556,-0.036666667,1,0,0,0.8644,optionRight,30,2645,2,4,0,4,0,1,,,,,,,,,,,,,,,,,,,,,,,,,,,,,,,,,,,,,,,
,,,,,,,,2023-08-16_08h42.04.075,HF_wild_card,2022.2.4,Win32,29.96883241,5e258b8b3d2e1b7e12b4ebda,64d2fd46c836a06233681665,64dc7dbd03c3f74a1f133b9c,,,,,,,sngl,resources/Empty.png,resources/DP.BMP,Door1,0.19,-0.016666667,1,0,0,0.8128,optionRight,30,2675,2,5,0,5,0,1,,,,,,,,,,,,,,,,,,,,,,,,,,,,,,,,,,,,,,,
,,,,,,,,2023-08-16_08h42.04.075,HF_wild_card,2022.2.4,Win32,29.96883241,5e258b8b3d2e1b7e12b4ebda,64d2fd46c836a06233681665,64dc7dbd03c3f74a1f133b9c,,,,,,,sngl,resources/Empty.png,resources/DB.BMP,Door4,0.255555556,-0.038888889,1,0,0,0.7143,optionRight,80,2755,2,6,0,6,0,1,,,,,,,,,,,,,,,,,,,,,,,,,,,,,,,,,,,,,,,
,,,,,,,,2023-08-16_08h42.04.075,HF_wild_card,2022.2.4,Win32,29.96883241,5e258b8b3d2e1b7e12b4ebda,64d2fd46c836a06233681665,64dc7dbd03c3f74a1f133b9c,,,,,,,sngl,resources/DG.BMP,resources/Empty.png,WildCard_Ex,-0.234444444,-0.011111111,1,0,0,0.8325,optionLeft,5,2760,2,7,0,7,0,1,,,,,,,,,,,,,,,,,,,,,,,,,,,,,,,,,,,,,,,
,,,,,,,,2023-08-16_08h42.04.075,HF_wild_card,2022.2.4,Win32,29.96883241,5e258b8b3d2e1b7e12b4ebda,64d2fd46c836a06233681665,64dc7dbd03c3f74a1f133b9c,,,,,,,decisionTrl,resources/DP.BMP,resources/DBN.BMP,Door1,-0.265555556,-0.016666667,1,0,0,1.0123,optionLeft,30,2790,2,8,0,8,0,1,,,,,,,,,,,,,,,,,,,,,,,,,,,,,,,,,,,,,,,
,,,,,,,,2023-08-16_08h42.04.075,HF_wild_card,2022.2.4,Win32,29.96883241,5e258b8b3d2e1b7e12b4ebda,64d2fd46c836a06233681665,64dc7dbd03c3f74a1f133b9c,,,,,,,decisionTrl,resources/DR.BMP,resources/DB.BMP,Door4,0.253333333,-0.051111111,1,0,0,1.686,optionRight,80,2870,2,9,0,9,0,1,,,,,,,,,,,,,,,,,,,,,,,,,,,,,,,,,,,,,,,
,,,,,,,,2023-08-16_08h42.04.075,HF_wild_card,2022.2.4,Win32,29.96883241,5e258b8b3d2e1b7e12b4ebda,64d2fd46c836a06233681665,64dc7dbd03c3f74a1f133b9c,,,,,,,decisionTrl,resources/DR.BMP,resources/DB.BMP,Door3,-0.262222222,-0.004444444,1,0,0,1.7606,optionLeft,70,2940,2,10,0,10,0,1,,,,,,,,,,,,,,,,,,,,,,,,,,,,,,,,,,,,,,,
,,,,,,,,2023-08-16_08h42.04.075,HF_wild_card,2022.2.4,Win32,29.96883241,5e258b8b3d2e1b7e12b4ebda,64d2fd46c836a06233681665,64dc7dbd03c3f74a1f133b9c,,,,,,,sngl,resources/Empty.png,resources/DBN.BMP,Door2,0.187777778,-0.046666667,1,0,0,1.0512,optionRight,40,2980,2,11,0,11,0,1,,,,,,,,,,,,,,,,,,,,,,,,,,,,,,,,,,,,,,,
,,,,,,,,2023-08-16_08h42.04.075,HF_wild_card,2022.2.4,Win32,29.96883241,5e258b8b3d2e1b7e12b4ebda,64d2fd46c836a06233681665,64dc7dbd03c3f74a1f133b9c,,,,,,,ctch,resources/DR.BMP,resources/DBN.BMP,Door3,-0.284444444,-0.014444444,1,0,0,1.064,optionLeft,70,3050,2,12,0,12,0,1,,,,,,,,,,,,,,,,,,,,,,,,,,,,,,,,,,,,,,,
,,,,,,,,2023-08-16_08h42.04.075,HF_wild_card,2022.2.4,Win32,29.96883241,5e258b8b3d2e1b7e12b4ebda,64d2fd46c836a06233681665,64dc7dbd03c3f74a1f133b9c,,,,,,,ctch,resources/DB.BMP,resources/DP.BMP,Door4,-0.255555556,-0.028888889,1,0,0,2.5044,optionLeft,80,3130,2,13,0,13,0,1,,,,,,,,,,,,,,,,,,,,,,,,,,,,,,,,,,,,,,,
,,,,,,,,2023-08-16_08h42.04.075,HF_wild_card,2022.2.4,Win32,29.96883241,5e258b8b3d2e1b7e12b4ebda,64d2fd46c836a06233681665,64dc7dbd03c3f74a1f133b9c,,,,,,,sngl,resources/DP.BMP,resources/Empty.png,Door1,-0.22,-0.032222222,1,0,0,0.9137,optionLeft,30,3160,2,14,0,14,0,1,,,,,,,,,,,,,,,,,,,,,,,,,,,,,,,,,,,,,,,
,,,,,,,,2023-08-16_08h42.04.075,HF_wild_card,2022.2.4,Win32,29.96883241,5e258b8b3d2e1b7e12b4ebda,64d2fd46c836a06233681665,64dc7dbd03c3f74a1f133b9c,,,,,,,ctch,resources/DB.BMP,resources/DP.BMP,Door4,-0.266666667,-0.02,1,0,0,0.8887,optionLeft,60,3220,2,15,0,15,0,1,,,,,,,,,,,,,,,,,,,,,,,,,,,,,,,,,,,,,,,
,,,,,,,,2023-08-16_08h42.04.075,HF_wild_card,2022.2.4,Win32,29.96883241,5e258b8b3d2e1b7e12b4ebda,64d2fd46c836a06233681665,64dc7dbd03c3f74a1f133b9c,,,,,,,decisionTrl,resources/DG.BMP,resources/DBN.BMP,WildCard_Ex,-0.207777778,-0.015555556,1,0,0,0.9984,optionLeft,5,3225,2,16,0,16,0,1,,,,,,,,,,,,,,,,,,,,,,,,,,,,,,,,,,,,,,,
,,,,,,,,2023-08-16_08h42.04.075,HF_wild_card,2022.2.4,Win32,29.96883241,5e258b8b3d2e1b7e12b4ebda,64d2fd46c836a06233681665,64dc7dbd03c3f74a1f133b9c,,,,,,,decisionTrl,resources/DB.BMP,resources/DR.BMP,Door4,-0.233333333,-0.032222222,1,0,0,2.2857,optionLeft,80,3305,2,17,0,17,0,1,,,,,,,,,,,,,,,,,,,,,,,,,,,,,,,,,,,,,,,
,,,,,,,,2023-08-16_08h42.04.075,HF_wild_card,2022.2.4,Win32,29.96883241,5e258b8b3d2e1b7e12b4ebda,64d2fd46c836a06233681665,64dc7dbd03c3f74a1f133b9c,,,,,,,decisionTrl,resources/DR.BMP,resources/DB.BMP,Door4,0.276666667,-0.09,1,0,0,0.996,optionRight,80,3385,2,18,0,18,0,1,,,,,,,,,,,,,,,,,,,,,,,,,,,,,,,,,,,,,,,
,,,,,,,,2023-08-16_08h42.04.075,HF_wild_card,2022.2.4,Win32,29.96883241,5e258b8b3d2e1b7e12b4ebda,64d2fd46c836a06233681665,64dc7dbd03c3f74a1f133b9c,,,,,,,decisionTrl,resources/DBN.BMP,resources/DP.BMP,Door1,0.268888889,-0.071111111,1,0,0,1,optionRight,30,3415,2,19,0,19,0,1,,,,,,,,,,,,,,,,,,,,,,,,,,,,,,,,,,,,,,,
,,,,,,,,2023-08-16_08h42.04.075,HF_wild_card,2022.2.4,Win32,29.96883241,5e258b8b3d2e1b7e12b4ebda,64d2fd46c836a06233681665,64dc7dbd03c3f74a1f133b9c,,,,,,,decisionTrl,resources/DG.BMP,resources/DB.BMP,Door4,0.234444444,-0.084444444,1,0,0,1.4895,optionRight,80,3495,2,20,0,20,0,1,,,,,,,,,,,,,,,,,,,,,,,,,,,,,,,,,,,,,,,
,,,,,,,,2023-08-16_08h42.04.075,HF_wild_card,2022.2.4,Win32,29.96883241,5e258b8b3d2e1b7e12b4ebda,64d2fd46c836a06233681665,64dc7dbd03c3f74a1f133b9c,,,,,,,decisionTrl,resources/DBN.BMP,resources/DP.BMP,Door1,0.274444444,-0.091111111,1,0,0,0.8756,optionRight,30,3525,2,21,0,21,0,1,,,,,,,,,,,,,,,,,,,,,,,,,,,,,,,,,,,,,,,
,,,,,,,,2023-08-16_08h42.04.075,HF_wild_card,2022.2.4,Win32,29.96883241,5e258b8b3d2e1b7e12b4ebda,64d2fd46c836a06233681665,64dc7dbd03c3f74a1f133b9c,,,,,,,decisionTrl,resources/DG.BMP,resources/DP.BMP,Door1,0.253333333,-0.084444444,1,0,0,1.5804,optionRight,30,3555,2,22,0,22,0,1,,,,,,,,,,,,,,,,,,,,,,,,,,,,,,,,,,,,,,,
,,,,,,,,2023-08-16_08h42.04.075,HF_wild_card,2022.2.4,Win32,29.96883241,5e258b8b3d2e1b7e12b4ebda,64d2fd46c836a06233681665,64dc7dbd03c3f74a1f133b9c,,,,,,,ctch,resources/DBN.BMP,resources/DR.BMP,Door3,0.263333333,-0.083333333,1,0,0,0.953,optionRight,70,3625,2,23,0,23,0,1,,,,,,,,,,,,,,,,,,,,,,,,,,,,,,,,,,,,,,,
,,,,,,,,2023-08-16_08h42.04.075,HF_wild_card,2022.2.4,Win32,29.96883241,5e258b8b3d2e1b7e12b4ebda,64d2fd46c836a06233681665,64dc7dbd03c3f74a1f133b9c,,,,,,,ctch,resources/DP.BMP,resources/DB.BMP,Door4,0.231111111,-0.058888889,1,0,0,1.1286,optionRight,80,3705,2,24,0,24,0,1,,,,,,,,,,,,,,,,,,,,,,,,,,,,,,,,,,,,,,,
,,,,,,,,2023-08-16_08h42.04.075,HF_wild_card,2022.2.4,Win32,29.96883241,5e258b8b3d2e1b7e12b4ebda,64d2fd46c836a06233681665,64dc7dbd03c3f74a1f133b9c,,,,,,,decisionTrl,resources/DP.BMP,resources/DG.BMP,WildCard_Ex,0.16,-0.064444444,1,0,0,1.6753,optionRight,95,3800,2,25,0,25,0,1,,,,,,,,,,,,,,,,,,,,,,,,,,,,,,,,,,,,,,,
,,,,,,,,2023-08-16_08h42.04.075,HF_wild_card,2022.2.4,Win32,29.96883241,5e258b8b3d2e1b7e12b4ebda,64d2fd46c836a06233681665,64dc7dbd03c3f74a1f133b9c,,,,,,,decisionTrl,resources/DP.BMP,resources/DBN.BMP,Door1,-0.225555556,-0.052222222,1,0,0,1.1378,optionLeft,30,3830,2,26,0,26,0,1,,,,,,,,,,,,,,,,,,,,,,,,,,,,,,,,,,,,,,,
,,,,,,,,2023-08-16_08h42.04.075,HF_wild_card,2022.2.4,Win32,29.96883241,5e258b8b3d2e1b7e12b4ebda,64d2fd46c836a06233681665,64dc7dbd03c3f74a1f133b9c,,,,,,,decisionTrl,resources/DR.BMP,resources/DB.BMP,Door3,-0.251111111,-0.04,1,0,0,1.205,optionLeft,70,3900,2,27,0,27,0,1,,,,,,,,,,,,,,,,,,,,,,,,,,,,,,,,,,,,,,,
,,,,,,,,2023-08-16_08h42.04.075,HF_wild_card,2022.2.4,Win32,29.96883241,5e258b8b3d2e1b7e12b4ebda,64d2fd46c836a06233681665,64dc7dbd03c3f74a1f133b9c,,,,,,,decisionTrl,resources/DB.BMP,resources/DG.BMP,WildCard_Ex,0.213333333,-0.076666667,1,0,0,0.7917,optionRight,5,3905,2,28,0,28,0,1,,,,,,,,,,,,,,,,,,,,,,,,,,,,,,,,,,,,,,,
,,,,,,,,2023-08-16_08h42.04.075,HF_wild_card,2022.2.4,Win32,29.96883241,5e258b8b3d2e1b7e12b4ebda,64d2fd46c836a06233681665,64dc7dbd03c3f74a1f133b9c,,,,,,,ctch,resources/DP.BMP,resources/DB.BMP,Door4,0.164444444,-0.055555556,1,0,0,1.4049,optionRight,60,3965,2,29,0,29,0,1,,,,,,,,,,,,,,,,,,,,,,,,,,,,,,,,,,,,,,,
,,,,,,,,2023-08-16_08h42.04.075,HF_wild_card,2022.2.4,Win32,29.96883241,5e258b8b3d2e1b7e12b4ebda,64d2fd46c836a06233681665,64dc7dbd03c3f74a1f133b9c,,,,,,,decisionTrl,resources/DB.BMP,resources/DR.BMP,Door3,0.236666667,-0.078888889,1,0,0,1.4606,optionRight,70,4035,2,30,0,30,0,1,,,,,,,,,,,,,,,,,,,,,,,,,,,,,,,,,,,,,,,
,,,,,,,,2023-08-16_08h42.04.075,HF_wild_card,2022.2.4,Win32,29.96883241,5e258b8b3d2e1b7e12b4ebda,64d2fd46c836a06233681665,64dc7dbd03c3f74a1f133b9c,,,,,,,ctch,resources/DR.BMP,resources/DBN.BMP,Door2,0.201111111,-0.062222222,1,0,0,1.1503,optionRight,40,4075,2,31,0,31,0,1,,,,,,,,,,,,,,,,,,,,,,,,,,,,,,,,,,,,,,,
,,,,,,,,2023-08-16_08h42.04.075,HF_wild_card,2022.2.4,Win32,29.96883241,5e258b8b3d2e1b7e12b4ebda,64d2fd46c836a06233681665,64dc7dbd03c3f74a1f133b9c,,,,,,,decisionTrl,resources/DG.BMP,resources/DR.BMP,WildCard_Ex,-0.215555556,-0.04,1,0,0,1.5442,optionLeft,5,4080,2,32,0,32,0,1,,,,,,,,,,,,,,,,,,,,,,,,,,,,,,,,,,,,,,,
,,,,,,,,2023-08-16_08h42.04.075,HF_wild_card,2022.2.4,Win32,29.96883241,5e258b8b3d2e1b7e12b4ebda,64d2fd46c836a06233681665,64dc7dbd03c3f74a1f133b9c,,,,,,,sngl,resources/Empty.png,resources/DR.BMP,Door3,0.25,-0.051111111,1,0,0,0.7797,optionRight,70,4150,2,33,0,33,0,1,,,,,,,,,,,,,,,,,,,,,,,,,,,,,,,,,,,,,,,
,,,,,,,,2023-08-16_08h42.04.075,HF_wild_card,2022.2.4,Win32,29.96883241,5e258b8b3d2e1b7e12b4ebda,64d2fd46c836a06233681665,64dc7dbd03c3f74a1f133b9c,,,,,,,sngl,resources/Empty.png,resources/DG.BMP,WildCard_Ex,0.235555556,-0.022222222,1,0,0,0.6312,optionRight,95,4245,2,34,0,34,0,1,,,,,,,,,,,,,,,,,,,,,,,,,,,,,,,,,,,,,,,
,,,,,,,,2023-08-16_08h42.04.075,HF_wild_card,2022.2.4,Win32,29.96883241,5e258b8b3d2e1b7e12b4ebda,64d2fd46c836a06233681665,64dc7dbd03c3f74a1f133b9c,,,,,,,decisionTrl,resources/DBN.BMP,resources/DG.BMP,WildCard_Ex,0.237777778,-0.052222222,1,0,0,0.7229,optionRight,5,4250,2,35,0,35,0,1,,,,,,,,,,,,,,,,,,,,,,,,,,,,,,,,,,,,,,,
,,,,,,,,2023-08-16_08h42.04.075,HF_wild_card,2022.2.4,Win32,29.96883241,5e258b8b3d2e1b7e12b4ebda,64d2fd46c836a06233681665,64dc7dbd03c3f74a1f133b9c,,,,,,,sngl,resources/DBN.BMP,resources/Empty.png,Door2,-0.148888889,-0.034444444,1,0,0,0.9336,optionLeft,20,4270,2,36,0,36,0,1,,,,,,,,,,,,,,,,,,,,,,,,,,,,,,,,,,,,,,,
,,,,,,,,2023-08-16_08h42.04.075,HF_wild_card,2022.2.4,Win32,29.96883241,5e258b8b3d2e1b7e12b4ebda,64d2fd46c836a06233681665,64dc7dbd03c3f74a1f133b9c,,,,,,,decisionTrl,resources/DBN.BMP,resources/DP.BMP,Door1,0.245555556,-0.087777778,1,0,0,0.9481,optionRight,30,4300,2,37,0,37,0,1,,,,,,,,,,,,,,,,,,,,,,,,,,,,,,,,,,,,,,,
,,,,,,,,2023-08-16_08h42.04.075,HF_wild_card,2022.2.4,Win32,29.96883241,5e258b8b3d2e1b7e12b4ebda,64d2fd46c836a06233681665,64dc7dbd03c3f74a1f133b9c,,,,,,,sngl,resources/DB.BMP,resources/Empty.png,Door4,-0.174444444,-0.05,1,0,0,0.894,optionLeft,60,4360,2,38,0,38,0,1,,,,,,,,,,,,,,,,,,,,,,,,,,,,,,,,,,,,,,,
,,,,,,,,2023-08-16_08h42.04.075,HF_wild_card,2022.2.4,Win32,29.96883241,5e258b8b3d2e1b7e12b4ebda,64d2fd46c836a06233681665,64dc7dbd03c3f74a1f133b9c,,,,,,,ctch,resources/DBN.BMP,resources/DR.BMP,Door3,0.211111111,-0.061111111,1,0,0,0.6749,optionRight,70,4430,2,39,0,39,0,1,,,,,,,,,,,,,,,,,,,,,,,,,,,,,,,,,,,,,,,
,,,,,,,,2023-08-16_08h42.04.075,HF_wild_card,2022.2.4,Win32,29.96883241,5e258b8b3d2e1b7e12b4ebda,64d2fd46c836a06233681665,64dc7dbd03c3f74a1f133b9c,,,,,,,sngl,resources/DG.BMP,resources/Empty.png,WildCard_Ex,-0.227777778,-0.047777778,1,0,0,1.4757,optionLeft,95,4525,2,40,0,40,0,1,,,,,,,,,,,,,,,,,,,,,,,,,,,,,,,,,,,,,,,
,,,,,,,,2023-08-16_08h42.04.075,HF_wild_card,2022.2.4,Win32,29.96883241,5e258b8b3d2e1b7e12b4ebda,64d2fd46c836a06233681665,64dc7dbd03c3f74a1f133b9c,,,,,,,decisionTrl,resources/DB.BMP,resources/DR.BMP,Door3,0.186666667,-0.051111111,1,0,0,0.7701,optionRight,70,4595,2,41,0,41,0,1,,,,,,,,,,,,,,,,,,,,,,,,,,,,,,,,,,,,,,,
,,,,,,,,2023-08-16_08h42.04.075,HF_wild_card,2022.2.4,Win32,29.96883241,5e258b8b3d2e1b7e12b4ebda,64d2fd46c836a06233681665,64dc7dbd03c3f74a1f133b9c,,,,,,,sngl,resources/DR.BMP,resources/Empty.png,Door3,-0.223333333,-0.024444444,1,0,0,0.6817,optionLeft,70,4665,2,42,0,42,0,1,,,,,,,,,,,,,,,,,,,,,,,,,,,,,,,,,,,,,,,
,,,,,,,,2023-08-16_08h42.04.075,HF_wild_card,2022.2.4,Win32,29.96883241,5e258b8b3d2e1b7e12b4ebda,64d2fd46c836a06233681665,64dc7dbd03c3f74a1f133b9c,,,,,,,decisionTrl,resources/DB.BMP,resources/DR.BMP,Door3,0.195555556,-0.056666667,1,0,0,0.6083,optionRight,70,4735,2,43,0,43,0,1,,,,,,,,,,,,,,,,,,,,,,,,,,,,,,,,,,,,,,,
,,,,,,,,2023-08-16_08h42.04.075,HF_wild_card,2022.2.4,Win32,29.96883241,5e258b8b3d2e1b7e12b4ebda,64d2fd46c836a06233681665,64dc7dbd03c3f74a1f133b9c,,,,,,,,,,,,,,,,,,,,,,,,,,1,0,1,0,1,,,,,,,,,,,,,,,,,,,,,,,,,,,,,,,,,,
,,,,,,,,2023-08-16_08h42.04.075,HF_wild_card,2022.2.4,Win32,29.96883241,5e258b8b3d2e1b7e12b4ebda,64d2fd46c836a06233681665,64dc7dbd03c3f74a1f133b9c,,,,,,,sngl,resources/DB.BMP,resources/Empty.png,Door4,-0.248888889,-0.032222222,1,0,0,1.2496,optionLeft,80,4815,3,0,0,0,0,1,,,,,,,,,,,,,,,,,,,,,,,,,,,,,,,,,,,,,,,
,,,,,,,,2023-08-16_08h42.04.075,HF_wild_card,2022.2.4,Win32,29.96883241,5e258b8b3d2e1b7e12b4ebda,64d2fd46c836a06233681665,64dc7dbd03c3f74a1f133b9c,,,,,,,ctch,resources/DBN.BMP,resources/DR.BMP,Door3,0.205555556,-0.055555556,1,0,0,0.8547,optionRight,70,4885,3,1,0,1,0,1,,,,,,,,,,,,,,,,,,,,,,,,,,,,,,,,,,,,,,,
,,,,,,,,2023-08-16_08h42.04.075,HF_wild_card,2022.2.4,Win32,29.96883241,5e258b8b3d2e1b7e12b4ebda,64d2fd46c836a06233681665,64dc7dbd03c3f74a1f133b9c,,,,,,,decisionTrl,resources/DP.BMP,resources/DBN.BMP,Door2,0.194444444,-0.06,1,0,0,0.6918,optionRight,20,4905,3,2,0,2,0,1,,,,,,,,,,,,,,,,,,,,,,,,,,,,,,,,,,,,,,,
,,,,,,,,2023-08-16_08h42.04.075,HF_wild_card,2022.2.4,Win32,29.96883241,5e258b8b3d2e1b7e12b4ebda,64d2fd46c836a06233681665,64dc7dbd03c3f74a1f133b9c,,,,,,,decisionTrl,resources/DB.BMP,resources/DR.BMP,Door4,-0.213333333,-0.081111111,1,0,0,1.5466,optionLeft,60,4965,3,3,0,3,0,1,,,,,,,,,,,,,,,,,,,,,,,,,,,,,,,,,,,,,,,
,,,,,,,,2023-08-16_08h42.04.075,HF_wild_card,2022.2.4,Win32,29.96883241,5e258b8b3d2e1b7e12b4ebda,64d2fd46c836a06233681665,64dc7dbd03c3f74a1f133b9c,,,,,,,sngl,resources/DBN.BMP,resources/Empty.png,Door2,-0.275555556,-0.046666667,1,0,0,0.816,optionLeft,40,5005,3,4,0,4,0,1,,,,,,,,,,,,,,,,,,,,,,,,,,,,,,,,,,,,,,,
,,,,,,,,2023-08-16_08h42.04.075,HF_wild_card,2022.2.4,Win32,29.96883241,5e258b8b3d2e1b7e12b4ebda,64d2fd46c836a06233681665,64dc7dbd03c3f74a1f133b9c,,,,,,,ctch,resources/DR.BMP,resources/DBN.BMP,Door2,0.213333333,-0.056666667,1,0,0,0.6269,optionRight,20,5025,3,5,0,5,0,1,,,,,,,,,,,,,,,,,,,,,,,,,,,,,,,,,,,,,,,
,,,,,,,,2023-08-16_08h42.04.075,HF_wild_card,2022.2.4,Win32,29.96883241,5e258b8b3d2e1b7e12b4ebda,64d2fd46c836a06233681665,64dc7dbd03c3f74a1f133b9c,,,,,,,sngl,resources/DG.BMP,resources/Empty.png,WildCard_Ex,-0.264444444,0.012222222,1,0,0,0.7318,optionLeft,95,5120,3,6,0,6,0,1,,,,,,,,,,,,,,,,,,,,,,,,,,,,,,,,,,,,,,,
,,,,,,,,2023-08-16_08h42.04.075,HF_wild_card,2022.2.4,Win32,29.96883241,5e258b8b3d2e1b7e12b4ebda,64d2fd46c836a06233681665,64dc7dbd03c3f74a1f133b9c,,,,,,,sngl,resources/DR.BMP,resources/Empty.png,Door3,-0.208888889,-0.035555556,1,0,0,0.7418,optionLeft,70,5190,3,7,0,7,0,1,,,,,,,,,,,,,,,,,,,,,,,,,,,,,,,,,,,,,,,
,,,,,,,,2023-08-16_08h42.04.075,HF_wild_card,2022.2.4,Win32,29.96883241,5e258b8b3d2e1b7e12b4ebda,64d2fd46c836a06233681665,64dc7dbd03c3f74a1f133b9c,,,,,,,sngl,resources/Empty.png,resources/DP.BMP,Door1,0.206666667,-0.087777778,1,0,0,0.7622,optionRight,30,5220,3,8,0,8,0,1,,,,,,,,,,,,,,,,,,,,,,,,,,,,,,,,,,,,,,,
,,,,,,,,2023-08-16_08h42.04.075,HF_wild_card,2022.2.4,Win32,29.96883241,5e258b8b3d2e1b7e12b4ebda,64d2fd46c836a06233681665,64dc7dbd03c3f74a1f133b9c,,,,,,,decisionTrl,resources/DP.BMP,resources/DG.BMP,WildCard_Ex,0.246666667,-0.085555556,1,0,0,0.7957,optionRight,5,5225,3,9,0,9,0,1,,,,,,,,,,,,,,,,,,,,,,,,,,,,,,,,,,,,,,,
,,,,,,,,2023-08-16_08h42.04.075,HF_wild_card,2022.2.4,Win32,29.96883241,5e258b8b3d2e1b7e12b4ebda,64d2fd46c836a06233681665,64dc7dbd03c3f74a1f133b9c,,,,,,,ctch,resources/DB.BMP,resources/DP.BMP,Door4,-0.294444444,-0.056666667,1,0,0,1.1102,optionLeft,80,5305,3,10,0,10,0,1,,,,,,,,,,,,,,,,,,,,,,,,,,,,,,,,,,,,,,,
,,,,,,,,2023-08-16_08h42.04.075,HF_wild_card,2022.2.4,Win32,29.96883241,5e258b8b3d2e1b7e12b4ebda,64d2fd46c836a06233681665,64dc7dbd03c3f74a1f133b9c,,,,,,,sngl,resources/DG.BMP,resources/Empty.png,WildCard_Ex,-0.206666667,-0.032222222,1,0,0,0.6551,optionLeft,5,5310,3,11,0,11,0,1,,,,,,,,,,,,,,,,,,,,,,,,,,,,,,,,,,,,,,,
,,,,,,,,2023-08-16_08h42.04.075,HF_wild_card,2022.2.4,Win32,29.96883241,5e258b8b3d2e1b7e12b4ebda,64d2fd46c836a06233681665,64dc7dbd03c3f74a1f133b9c,,,,,,,decisionTrl,resources/DR.BMP,resources/DB.BMP,Door4,0.21,-0.086666667,1,0,0,0.9947,optionRight,80,5390,3,12,0,12,0,1,,,,,,,,,,,,,,,,,,,,,,,,,,,,,,,,,,,,,,,
,,,,,,,,2023-08-16_08h42.04.075,HF_wild_card,2022.2.4,Win32,29.96883241,5e258b8b3d2e1b7e12b4ebda,64d2fd46c836a06233681665,64dc7dbd03c3f74a1f133b9c,,,,,,,ctch,resources/DBN.BMP,resources/DR.BMP,Door3,0.166666667,-0.056666667,1,0,0,0.7519,optionRight,70,5460,3,13,0,13,0,1,,,,,,,,,,,,,,,,,,,,,,,,,,,,,,,,,,,,,,,
,,,,,,,,2023-08-16_08h42.04.075,HF_wild_card,2022.2.4,Win32,29.96883241,5e258b8b3d2e1b7e12b4ebda,64d2fd46c836a06233681665,64dc7dbd03c3f74a1f133b9c,,,,,,,decisionTrl,resources/DR.BMP,resources/DB.BMP,Door4,0.258888889,-0.047777778,1,0,0,1.347,optionRight,80,5540,3,14,0,14,0,1,,,,,,,,,,,,,,,,,,,,,,,,,,,,,,,,,,,,,,,
,,,,,,,,2023-08-16_08h42.04.075,HF_wild_card,2022.2.4,Win32,29.96883241,5e258b8b3d2e1b7e12b4ebda,64d2fd46c836a06233681665,64dc7dbd03c3f74a1f133b9c,,,,,,,decisionTrl,resources/DP.BMP,resources/DBN.BMP,Door1,-0.185555556,-0.06,1,0,0,0.9597,optionLeft,30,5570,3,15,0,15,0,1,,,,,,,,,,,,,,,,,,,,,,,,,,,,,,,,,,,,,,,
,,,,,,,,2023-08-16_08h42.04.075,HF_wild_card,2022.2.4,Win32,29.96883241,5e258b8b3d2e1b7e12b4ebda,64d2fd46c836a06233681665,64dc7dbd03c3f74a1f133b9c,,,,,,,decisionTrl,resources/DG.BMP,resources/DP.BMP,Door1,0.382222222,-0.108888889,1,0,0,1.2889,optionRight,30,5600,3,16,0,16,0,1,,,,,,,,,,,,,,,,,,,,,,,,,,,,,,,,,,,,,,,
,,,,,,,,2023-08-16_08h42.04.075,HF_wild_card,2022.2.4,Win32,29.96883241,5e258b8b3d2e1b7e12b4ebda,64d2fd46c836a06233681665,64dc7dbd03c3f74a1f133b9c,,,,,,,ctch,resources/DR.BMP,resources/DBN.BMP,Door3,-0.215555556,-0.062222222,1,0,0,1.0337,optionLeft,70,5670,3,17,0,17,0,1,,,,,,,,,,,,,,,,,,,,,,,,,,,,,,,,,,,,,,,
,,,,,,,,2023-08-16_08h42.04.075,HF_wild_card,2022.2.4,Win32,29.96883241,5e258b8b3d2e1b7e12b4ebda,64d2fd46c836a06233681665,64dc7dbd03c3f74a1f133b9c,,,,,,,sngl,resources/Empty.png,resources/DG.BMP,WildCard_Ex,0.322222222,-0.118888889,1,0,0,6.0943,optionRight,95,5765,3,18,0,18,0,1,,,,,,,,,,,,,,,,,,,,,,,,,,,,,,,,,,,,,,,
,,,,,,,,2023-08-16_08h42.04.075,HF_wild_card,2022.2.4,Win32,29.96883241,5e258b8b3d2e1b7e12b4ebda,64d2fd46c836a06233681665,64dc7dbd03c3f74a1f133b9c,,,,,,,decisionTrl,resources/DP.BMP,resources/DBN.BMP,Door1,-0.233333333,-0.067777778,1,0,0,1.3472,optionLeft,30,5795,3,19,0,19,0,1,,,,,,,,,,,,,,,,,,,,,,,,,,,,,,,,,,,,,,,
,,,,,,,,2023-08-16_08h42.04.075,HF_wild_card,2022.2.4,Win32,29.96883241,5e258b8b3d2e1b7e12b4ebda,64d2fd46c836a06233681665,64dc7dbd03c3f74a1f133b9c,,,,,,,decisionTrl,resources/DG.BMP,resources/DB.BMP,WildCard_Ex,-0.226666667,-0.044444444,1,0,0,0.9112,optionLeft,5,5800,3,20,0,20,0,1,,,,,,,,,,,,,,,,,,,,,,,,,,,,,,,,,,,,,,,
,,,,,,,,2023-08-16_08h42.04.075,HF_wild_card,2022.2.4,Win32,29.96883241,5e258b8b3d2e1b7e12b4ebda,64d2fd46c836a06233681665,64dc7dbd03c3f74a1f133b9c,,,,,,,decisionTrl,resources/DB.BMP,resources/DR.BMP,Door4,-0.272222222,-0.021111111,1,0,0,0.756,optionLeft,80,5880,3,21,0,21,0,1,,,,,,,,,,,,,,,,,,,,,,,,,,,,,,,,,,,,,,,
,,,,,,,,2023-08-16_08h42.04.075,HF_wild_card,2022.2.4,Win32,29.96883241,5e258b8b3d2e1b7e12b4ebda,64d2fd46c836a06233681665,64dc7dbd03c3f74a1f133b9c,,,,,,,ctch,resources/DP.BMP,resources/DB.BMP,Door4,0.285555556,-0.048888889,1,0,0,0.6706,optionRight,80,5960,3,22,0,22,0,1,,,,,,,,,,,,,,,,,,,,,,,,,,,,,,,,,,,,,,,
,,,,,,,,2023-08-16_08h42.04.075,HF_wild_card,2022.2.4,Win32,29.96883241,5e258b8b3d2e1b7e12b4ebda,64d2fd46c836a06233681665,64dc7dbd03c3f74a1f133b9c,,,,,,,decisionTrl,resources/DB.BMP,resources/DG.BMP,Door4,-0.221111111,-0.022222222,1,0,0,0.8122,optionLeft,80,6040,3,23,0,23,0,1,,,,,,,,,,,,,,,,,,,,,,,,,,,,,,,,,,,,,,,
,,,,,,,,2023-08-16_08h42.04.075,HF_wild_card,2022.2.4,Win32,29.96883241,5e258b8b3d2e1b7e12b4ebda,64d2fd46c836a06233681665,64dc7dbd03c3f74a1f133b9c,,,,,,,ctch,resources/DB.BMP,resources/DP.BMP,Door4,-0.262222222,-0.011111111,1,0,0,1.027,optionLeft,80,6120,3,24,0,24,0,1,,,,,,,,,,,,,,,,,,,,,,,,,,,,,,,,,,,,,,,
,,,,,,,,2023-08-16_08h42.04.075,HF_wild_card,2022.2.4,Win32,29.96883241,5e258b8b3d2e1b7e12b4ebda,64d2fd46c836a06233681665,64dc7dbd03c3f74a1f133b9c,,,,,,,decisionTrl,resources/DR.BMP,resources/DG.BMP,Door3,-0.221111111,-0.038888889,1,0,0,0.954,optionLeft,70,6190,3,25,0,25,0,1,,,,,,,,,,,,,,,,,,,,,,,,,,,,,,,,,,,,,,,
,,,,,,,,2023-08-16_08h42.04.075,HF_wild_card,2022.2.4,Win32,29.96883241,5e258b8b3d2e1b7e12b4ebda,64d2fd46c836a06233681665,64dc7dbd03c3f74a1f133b9c,,,,,,,sngl,resources/Empty.png,resources/DG.BMP,WildCard_Ex,0.202222222,-0.052222222,1,0,0,0.9542,optionRight,5,6195,3,26,0,26,0,1,,,,,,,,,,,,,,,,,,,,,,,,,,,,,,,,,,,,,,,
,,,,,,,,2023-08-16_08h42.04.075,HF_wild_card,2022.2.4,Win32,29.96883241,5e258b8b3d2e1b7e12b4ebda,64d2fd46c836a06233681665,64dc7dbd03c3f74a1f133b9c,,,,,,,decisionTrl,resources/DP.BMP,resources/DBN.BMP,Door1,-0.277777778,0.02,1,0,0,0.7331,optionLeft,30,6225,3,27,0,27,0,1,,,,,,,,,,,,,,,,,,,,,,,,,,,,,,,,,,,,,,,
,,,,,,,,2023-08-16_08h42.04.075,HF_wild_card,2022.2.4,Win32,29.96883241,5e258b8b3d2e1b7e12b4ebda,64d2fd46c836a06233681665,64dc7dbd03c3f74a1f133b9c,,,,,,,sngl,resources/Empty.png,resources/DR.BMP,Door3,0.17,-0.03,1,0,0,0.6147,optionRight,70,6295,3,28,0,28,0,1,,,,,,,,,,,,,,,,,,,,,,,,,,,,,,,,,,,,,,,
,,,,,,,,2023-08-16_08h42.04.075,HF_wild_card,2022.2.4,Win32,29.96883241,5e258b8b3d2e1b7e12b4ebda,64d2fd46c836a06233681665,64dc7dbd03c3f74a1f133b9c,,,,,,,decisionTrl,resources/DBN.BMP,resources/DP.BMP,Door1,0.132222222,-0.043333333,1,0,0,0.7978,optionRight,30,6325,3,29,0,29,0,1,,,,,,,,,,,,,,,,,,,,,,,,,,,,,,,,,,,,,,,
,,,,,,,,2023-08-16_08h42.04.075,HF_wild_card,2022.2.4,Win32,29.96883241,5e258b8b3d2e1b7e12b4ebda,64d2fd46c836a06233681665,64dc7dbd03c3f74a1f133b9c,,,,,,,decisionTrl,resources/DBN.BMP,resources/DP.BMP,Door1,0.171111111,-0.036666667,1,0,0,0.6221,optionRight,30,6355,3,30,0,30,0,1,,,,,,,,,,,,,,,,,,,,,,,,,,,,,,,,,,,,,,,
,,,,,,,,2023-08-16_08h42.04.075,HF_wild_card,2022.2.4,Win32,29.96883241,5e258b8b3d2e1b7e12b4ebda,64d2fd46c836a06233681665,64dc7dbd03c3f74a1f133b9c,,,,,,,decisionTrl,resources/DR.BMP,resources/DB.BMP,Door4,0.128888889,-0.06,1,0,0,1.2436,optionRight,80,6435,3,31,0,31,0,1,,,,,,,,,,,,,,,,,,,,,,,,,,,,,,,,,,,,,,,
,,,,,,,,2023-08-16_08h42.04.075,HF_wild_card,2022.2.4,Win32,29.96883241,5e258b8b3d2e1b7e12b4ebda,64d2fd46c836a06233681665,64dc7dbd03c3f74a1f133b9c,,,,,,,decisionTrl,resources/DB.BMP,resources/DR.BMP,Door4,-0.215555556,-0.031111111,1,0,0,0.7715,optionLeft,80,6515,3,32,0,32,0,1,,,,,,,,,,,,,,,,,,,,,,,,,,,,,,,,,,,,,,,
,,,,,,,,2023-08-16_08h42.04.075,HF_wild_card,2022.2.4,Win32,29.96883241,5e258b8b3d2e1b7e12b4ebda,64d2fd46c836a06233681665,64dc7dbd03c3f74a1f133b9c,,,,,,,decisionTrl,resources/DB.BMP,resources/DR.BMP,Door4,-0.2,-0.005555556,1,0,0,0.7173,optionLeft,60,6575,3,33,0,33,0,1,,,,,,,,,,,,,,,,,,,,,,,,,,,,,,,,,,,,,,,
,,,,,,,,2023-08-16_08h42.04.075,HF_wild_card,2022.2.4,Win32,29.96883241,5e258b8b3d2e1b7e12b4ebda,64d2fd46c836a06233681665,64dc7dbd03c3f74a1f133b9c,,,,,,,decisionTrl,resources/DBN.BMP,resources/DG.BMP,Door2,-0.194444444,-0.032222222,1,0,0,1.9579,optionLeft,20,6595,3,34,0,34,0,1,,,,,,,,,,,,,,,,,,,,,,,,,,,,,,,,,,,,,,,
,,,,,,,,2023-08-16_08h42.04.075,HF_wild_card,2022.2.4,Win32,29.96883241,5e258b8b3d2e1b7e12b4ebda,64d2fd46c836a06233681665,64dc7dbd03c3f74a1f133b9c,,,,,,,sngl,resources/DP.BMP,resources/Empty.png,Door1,-0.166666667,-0.063333333,1,0,0,0.9118,optionLeft,30,6625,3,35,0,35,0,1,,,,,,,,,,,,,,,,,,,,,,,,,,,,,,,,,,,,,,,
,,,,,,,,2023-08-16_08h42.04.075,HF_wild_card,2022.2.4,Win32,29.96883241,5e258b8b3d2e1b7e12b4ebda,64d2fd46c836a06233681665,64dc7dbd03c3f74a1f133b9c,,,,,,,decisionTrl,resources/DBN.BMP,resources/DP.BMP,Door1,0.174444444,-0.087777778,1,0,0,1.0209,optionRight,30,6655,3,36,0,36,0,1,,,,,,,,,,,,,,,,,,,,,,,,,,,,,,,,,,,,,,,
,,,,,,,,2023-08-16_08h42.04.075,HF_wild_card,2022.2.4,Win32,29.96883241,5e258b8b3d2e1b7e12b4ebda,64d2fd46c836a06233681665,64dc7dbd03c3f74a1f133b9c,,,,,,,ctch,resources/DP.BMP,resources/DB.BMP,Door4,0.162222222,-0.071111111,1,0,0,0.7366,optionRight,80,6735,3,37,0,37,0,1,,,,,,,,,,,,,,,,,,,,,,,,,,,,,,,,,,,,,,,
,,,,,,,,2023-08-16_08h42.04.075,HF_wild_card,2022.2.4,Win32,29.96883241,5e258b8b3d2e1b7e12b4ebda,64d2fd46c836a06233681665,64dc7dbd03c3f74a1f133b9c,,,,,,,decisionTrl,resources/DG.BMP,resources/DR.BMP,Door3,0.2,-0.094444444,1,0,0,1.1564,optionRight,70,6805,3,38,0,38,0,1,,,,,,,,,,,,,,,,,,,,,,,,,,,,,,,,,,,,,,,
,,,,,,,,2023-08-16_08h42.04.075,HF_wild_card,2022.2.4,Win32,29.96883241,5e258b8b3d2e1b7e12b4ebda,64d2fd46c836a06233681665,64dc7dbd03c3f74a1f133b9c,,,,,,,decisionTrl,resources/DBN.BMP,resources/DP.BMP,Door1,0.176666667,-0.074444444,1,0,0,0.7706,optionRight,30,6835,3,39,0,39,0,1,,,,,,,,,,,,,,,,,,,,,,,,,,,,,,,,,,,,,,,
,,,,,,,,2023-08-16_08h42.04.075,HF_wild_card,2022.2.4,Win32,29.96883241,5e258b8b3d2e1b7e12b4ebda,64d2fd46c836a06233681665,64dc7dbd03c3f74a1f133b9c,,,,,,,sngl,resources/Empty.png,resources/DB.BMP,Door4,0.184444444,-0.031111111,1,0,0,0.6614,optionRight,60,6895,3,40,0,40,0,1,,,,,,,,,,,,,,,,,,,,,,,,,,,,,,,,,,,,,,,
,,,,,,,,2023-08-16_08h42.04.075,HF_wild_card,2022.2.4,Win32,29.96883241,5e258b8b3d2e1b7e12b4ebda,64d2fd46c836a06233681665,64dc7dbd03c3f74a1f133b9c,,,,,,,decisionTrl,resources/DR.BMP,resources/DB.BMP,Door4,0.18,-0.026666667,1,0,0,1.6817,optionRight,80,6975,3,41,0,41,0,1,,,,,,,,,,,,,,,,,,,,,,,,,,,,,,,,,,,,,,,
,,,,,,,,2023-08-16_08h42.04.075,HF_wild_card,2022.2.4,Win32,29.96883241,5e258b8b3d2e1b7e12b4ebda,64d2fd46c836a06233681665,64dc7dbd03c3f74a1f133b9c,,,,,,,decisionTrl,resources/DG.BMP,resources/DBN.BMP,WildCard_Ex,-0.265555556,-0.081111111,1,0,0,3.2948,optionLeft,95,7070,3,42,0,42,0,1,,,,,,,,,,,,,,,,,,,,,,,,,,,,,,,,,,,,,,,
,,,,,,,,2023-08-16_08h42.04.075,HF_wild_card,2022.2.4,Win32,29.96883241,5e258b8b3d2e1b7e12b4ebda,64d2fd46c836a06233681665,64dc7dbd03c3f74a1f133b9c,,,,,,,sngl,resources/Empty.png,resources/DBN.BMP,Door2,0.131111111,-0.036666667,1,0,0,0.9881,optionRight,20,7090,3,43,0,43,0,1,,,,,,,,,,,,,,,,,,,,,,,,,,,,,,,,,,,,,,,
,,,,,,,,2023-08-16_08h42.04.075,HF_wild_card,2022.2.4,Win32,29.96883241,5e258b8b3d2e1b7e12b4ebda,64d2fd46c836a06233681665,64dc7dbd03c3f74a1f133b9c,,,,,,,,,,,,,,,,,,,,,,,,,,2,0,2,0,1,,,,,,,,,,,,,,,,,,,,,,,,,,,,,,,,,,
,,,,,,,,2023-08-16_08h42.04.075,HF_wild_card,2022.2.4,Win32,29.96883241,5e258b8b3d2e1b7e12b4ebda,64d2fd46c836a06233681665,64dc7dbd03c3f74a1f133b9c,,,,,,,decisionTrl,resources/DR.BMP,resources/DY.BMP,WildCard_NonEx,0.227777778,-0.118888889,1,0,0,1.7735,optionRight,45,7135,4,0,0,0,0,1,,,,,,,,,,,,,,,,,,,,,,,,,,,,,,,,,,,,,,,
,,,,,,,,2023-08-16_08h42.04.075,HF_wild_card,2022.2.4,Win32,29.96883241,5e258b8b3d2e1b7e12b4ebda,64d2fd46c836a06233681665,64dc7dbd03c3f74a1f133b9c,,,,,,,decisionTrl,resources/DB.BMP,resources/DR.BMP,Door4,-0.241111111,-0.01,1,0,0,1.2452,optionLeft,60,7195,4,1,0,1,0,1,,,,,,,,,,,,,,,,,,,,,,,,,,,,,,,,,,,,,,,
,,,,,,,,2023-08-16_08h42.04.075,HF_wild_card,2022.2.4,Win32,29.96883241,5e258b8b3d2e1b7e12b4ebda,64d2fd46c836a06233681665,64dc7dbd03c3f74a1f133b9c,,,,,,,decisionTrl,resources/DY.BMP,resources/DB.BMP,WildCard_NonEx,-0.186666667,-0.02,1,0,0,2.8832,optionLeft,45,7240,4,2,0,2,0,1,,,,,,,,,,,,,,,,,,,,,,,,,,,,,,,,,,,,,,,
,,,,,,,,2023-08-16_08h42.04.075,HF_wild_card,2022.2.4,Win32,29.96883241,5e258b8b3d2e1b7e12b4ebda,64d2fd46c836a06233681665,64dc7dbd03c3f74a1f133b9c,,,,,,,ctch,resources/DR.BMP,resources/DBN.BMP,Door3,-0.247777778,-0.023333333,1,0,0,1.2814,optionLeft,70,7310,4,3,0,3,0,1,,,,,,,,,,,,,,,,,,,,,,,,,,,,,,,,,,,,,,,
,,,,,,,,2023-08-16_08h42.04.075,HF_wild_card,2022.2.4,Win32,29.96883241,5e258b8b3d2e1b7e12b4ebda,64d2fd46c836a06233681665,64dc7dbd03c3f74a1f133b9c,,,,,,,sngl,resources/Empty.png,resources/DBN.BMP,Door2,0.22,-0.03,1,0,0,0.8147,optionRight,40,7350,4,4,0,4,0,1,,,,,,,,,,,,,,,,,,,,,,,,,,,,,,,,,,,,,,,
,,,,,,,,2023-08-16_08h42.04.075,HF_wild_card,2022.2.4,Win32,29.96883241,5e258b8b3d2e1b7e12b4ebda,64d2fd46c836a06233681665,64dc7dbd03c3f74a1f133b9c,,,,,,,decisionTrl,resources/DR.BMP,resources/DB.BMP,Door4,0.286666667,-0.057777778,1,0,0,1.5426,optionRight,80,7430,4,5,0,5,0,1,,,,,,,,,,,,,,,,,,,,,,,,,,,,,,,,,,,,,,,
,,,,,,,,2023-08-16_08h42.04.075,HF_wild_card,2022.2.4,Win32,29.96883241,5e258b8b3d2e1b7e12b4ebda,64d2fd46c836a06233681665,64dc7dbd03c3f74a1f133b9c,,,,,,,decisionTrl,resources/DBN.BMP,resources/DP.BMP,Door1,0.197777778,-0.075555556,1,0,0,1.215,optionRight,30,7460,4,6,0,6,0,1,,,,,,,,,,,,,,,,,,,,,,,,,,,,,,,,,,,,,,,
,,,,,,,,2023-08-16_08h42.04.075,HF_wild_card,2022.2.4,Win32,29.96883241,5e258b8b3d2e1b7e12b4ebda,64d2fd46c836a06233681665,64dc7dbd03c3f74a1f133b9c,,,,,,,decisionTrl,resources/DBN.BMP,resources/DP.BMP,Door2,-0.206666667,-0.028888889,1,0,0,1.4485,optionLeft,20,7480,4,7,0,7,0,1,,,,,,,,,,,,,,,,,,,,,,,,,,,,,,,,,,,,,,,
,,,,,,,,2023-08-16_08h42.04.075,HF_wild_card,2022.2.4,Win32,29.96883241,5e258b8b3d2e1b7e12b4ebda,64d2fd46c836a06233681665,64dc7dbd03c3f74a1f133b9c,,,,,,,sngl,resources/DR.BMP,resources/Empty.png,Door3,-0.204444444,-0.036666667,1,0,0,0.8611,optionLeft,70,7550,4,8,0,8,0,1,,,,,,,,,,,,,,,,,,,,,,,,,,,,,,,,,,,,,,,
,,,,,,,,2023-08-16_08h42.04.075,HF_wild_card,2022.2.4,Win32,29.96883241,5e258b8b3d2e1b7e12b4ebda,64d2fd46c836a06233681665,64dc7dbd03c3f74a1f133b9c,,,,,,,decisionTrl,resources/DR.BMP,resources/DB.BMP,Door4,0.241111111,-0.033333333,1,0,0,0.6283,optionRight,60,7610,4,9,0,9,0,1,,,,,,,,,,,,,,,,,,,,,,,,,,,,,,,,,,,,,,,
,,,,,,,,2023-08-16_08h42.04.075,HF_wild_card,2022.2.4,Win32,29.96883241,5e258b8b3d2e1b7e12b4ebda,64d2fd46c836a06233681665,64dc7dbd03c3f74a1f133b9c,,,,,,,decisionTrl,resources/DR.BMP,resources/DB.BMP,Door4,0.178888889,-0.036666667,1,0,0,1.2585,optionRight,60,7670,4,10,0,10,0,1,,,,,,,,,,,,,,,,,,,,,,,,,,,,,,,,,,,,,,,
,,,,,,,,2023-08-16_08h42.04.075,HF_wild_card,2022.2.4,Win32,29.96883241,5e258b8b3d2e1b7e12b4ebda,64d2fd46c836a06233681665,64dc7dbd03c3f74a1f133b9c,,,,,,,ctch,resources/DBN.BMP,resources/DR.BMP,Door3,0.23,-0.035555556,1,0,0,0.7468,optionRight,70,7740,4,11,0,11,0,1,,,,,,,,,,,,,,,,,,,,,,,,,,,,,,,,,,,,,,,
,,,,,,,,2023-08-16_08h42.04.075,HF_wild_card,2022.2.4,Win32,29.96883241,5e258b8b3d2e1b7e12b4ebda,64d2fd46c836a06233681665,64dc7dbd03c3f74a1f133b9c,,,,,,,ctch,resources/DR.BMP,resources/DBN.BMP,Door3,-0.278888889,0.001111111,1,0,0,1.3442,optionLeft,70,7810,4,12,0,12,0,1,,,,,,,,,,,,,,,,,,,,,,,,,,,,,,,,,,,,,,,
,,,,,,,,2023-08-16_08h42.04.075,HF_wild_card,2022.2.4,Win32,29.96883241,5e258b8b3d2e1b7e12b4ebda,64d2fd46c836a06233681665,64dc7dbd03c3f74a1f133b9c,,,,,,,decisionTrl,resources/DP.BMP,resources/DBN.BMP,Door1,-0.264444444,-0.018888889,1,0,0,1.9204,optionLeft,30,7840,4,13,0,13,0,1,,,,,,,,,,,,,,,,,,,,,,,,,,,,,,,,,,,,,,,
,,,,,,,,2023-08-16_08h42.04.075,HF_wild_card,2022.2.4,Win32,29.96883241,5e258b8b3d2e1b7e12b4ebda,64d2fd46c836a06233681665,64dc7dbd03c3f74a1f133b9c,,,,,,,decisionTrl,resources/DY.BMP,resources/DBN.BMP,WildCard_NonEx,-0.194444444,-0.002222222,1,0,0,1.2823,optionLeft,45,7885,4,14,0,14,0,1,,,,,,,,,,,,,,,,,,,,,,,,,,,,,,,,,,,,,,,
,,,,,,,,2023-08-16_08h42.04.075,HF_wild_card,2022.2.4,Win32,29.96883241,5e258b8b3d2e1b7e12b4ebda,64d2fd46c836a06233681665,64dc7dbd03c3f74a1f133b9c,,,,,,,sngl,resources/Empty.png,resources/DP.BMP,Door1,0.29,-0.081111111,1,0,0,0.7826,optionRight,30,7915,4,15,0,15,0,1,,,,,,,,,,,,,,,,,,,,,,,,,,,,,,,,,,,,,,,
,,,,,,,,2023-08-16_08h42.04.075,HF_wild_card,2022.2.4,Win32,29.96883241,5e258b8b3d2e1b7e12b4ebda,64d2fd46c836a06233681665,64dc7dbd03c3f74a1f133b9c,,,,,,,decisionTrl,resources/DY.BMP,resources/DR.BMP,Door3,0.216666667,-0.056666667,1,0,0,0.8553,optionRight,70,7985,4,16,0,16,0,1,,,,,,,,,,,,,,,,,,,,,,,,,,,,,,,,,,,,,,,
,,,,,,,,2023-08-16_08h42.04.075,HF_wild_card,2022.2.4,Win32,29.96883241,5e258b8b3d2e1b7e12b4ebda,64d2fd46c836a06233681665,64dc7dbd03c3f74a1f133b9c,,,,,,,decisionTrl,resources/DBN.BMP,resources/DP.BMP,Door2,-0.214444444,-0.016666667,1,0,0,2.2046,optionLeft,20,8005,4,17,0,17,0,1,,,,,,,,,,,,,,,,,,,,,,,,,,,,,,,,,,,,,,,
,,,,,,,,2023-08-16_08h42.04.075,HF_wild_card,2022.2.4,Win32,29.96883241,5e258b8b3d2e1b7e12b4ebda,64d2fd46c836a06233681665,64dc7dbd03c3f74a1f133b9c,,,,,,,decisionTrl,resources/DP.BMP,resources/DBN.BMP,Door1,-0.205555556,-0.044444444,1,0,0,1.0411,optionLeft,30,8035,4,18,0,18,0,1,,,,,,,,,,,,,,,,,,,,,,,,,,,,,,,,,,,,,,,
,,,,,,,,2023-08-16_08h42.04.075,HF_wild_card,2022.2.4,Win32,29.96883241,5e258b8b3d2e1b7e12b4ebda,64d2fd46c836a06233681665,64dc7dbd03c3f74a1f133b9c,,,,,,,decisionTrl,resources/DP.BMP,resources/DY.BMP,WildCard_NonEx,0.205555556,-0.065555556,1,0,0,0.8808,optionRight,45,8080,4,19,0,19,0,1,,,,,,,,,,,,,,,,,,,,,,,,,,,,,,,,,,,,,,,
,,,,,,,,2023-08-16_08h42.04.075,HF_wild_card,2022.2.4,Win32,29.96883241,5e258b8b3d2e1b7e12b4ebda,64d2fd46c836a06233681665,64dc7dbd03c3f74a1f133b9c,,,,,,,sngl,resources/Empty.png,resources/DY.BMP,WildCard_NonEx,0.17,-0.05,1,0,0,0.9451,optionRight,45,8125,4,20,0,20,0,1,,,,,,,,,,,,,,,,,,,,,,,,,,,,,,,,,,,,,,,
,,,,,,,,2023-08-16_08h42.04.075,HF_wild_card,2022.2.4,Win32,29.96883241,5e258b8b3d2e1b7e12b4ebda,64d2fd46c836a06233681665,64dc7dbd03c3f74a1f133b9c,,,,,,,decisionTrl,resources/DBN.BMP,resources/DP.BMP,Door1,0.217777778,-0.066666667,1,0,0,0.8481,optionRight,30,8155,4,21,0,21,0,1,,,,,,,,,,,,,,,,,,,,,,,,,,,,,,,,,,,,,,,
,,,,,,,,2023-08-16_08h42.04.075,HF_wild_card,2022.2.4,Win32,29.96883241,5e258b8b3d2e1b7e12b4ebda,64d2fd46c836a06233681665,64dc7dbd03c3f74a1f133b9c,,,,,,,ctch,resources/DP.BMP,resources/DB.BMP,Door4,0.196666667,-0.05,1,0,0,0.8461,optionRight,80,8235,4,22,0,22,0,1,,,,,,,,,,,,,,,,,,,,,,,,,,,,,,,,,,,,,,,
,,,,,,,,2023-08-16_08h42.04.075,HF_wild_card,2022.2.4,Win32,29.96883241,5e258b8b3d2e1b7e12b4ebda,64d2fd46c836a06233681665,64dc7dbd03c3f74a1f133b9c,,,,,,,decisionTrl,resources/DB.BMP,resources/DY.BMP,Door4,-0.225555556,0.015555556,1,0,0,1.1221,optionLeft,60,8295,4,23,0,23,0,1,,,,,,,,,,,,,,,,,,,,,,,,,,,,,,,,,,,,,,,
,,,,,,,,2023-08-16_08h42.04.075,HF_wild_card,2022.2.4,Win32,29.96883241,5e258b8b3d2e1b7e12b4ebda,64d2fd46c836a06233681665,64dc7dbd03c3f74a1f133b9c,,,,,,,sngl,resources/DB.BMP,resources/Empty.png,Door4,-0.192222222,0.033333333,1,0,0,0.7146,optionLeft,60,8355,4,24,0,24,0,1,,,,,,,,,,,,,,,,,,,,,,,,,,,,,,,,,,,,,,,
,,,,,,,,2023-08-16_08h42.04.075,HF_wild_card,2022.2.4,Win32,29.96883241,5e258b8b3d2e1b7e12b4ebda,64d2fd46c836a06233681665,64dc7dbd03c3f74a1f133b9c,,,,,,,ctch,resources/DB.BMP,resources/DP.BMP,Door4,-0.241111111,0.047777778,1,0,0,0.6683,optionLeft,80,8435,4,25,0,25,0,1,,,,,,,,,,,,,,,,,,,,,,,,,,,,,,,,,,,,,,,
,,,,,,,,2023-08-16_08h42.04.075,HF_wild_card,2022.2.4,Win32,29.96883241,5e258b8b3d2e1b7e12b4ebda,64d2fd46c836a06233681665,64dc7dbd03c3f74a1f133b9c,,,,,,,decisionTrl,resources/DR.BMP,resources/DB.BMP,Door4,0.26,-0.047777778,1,0,0,0.7393,optionRight,60,8495,4,26,0,26,0,1,,,,,,,,,,,,,,,,,,,,,,,,,,,,,,,,,,,,,,,
,,,,,,,,2023-08-16_08h42.04.075,HF_wild_card,2022.2.4,Win32,29.96883241,5e258b8b3d2e1b7e12b4ebda,64d2fd46c836a06233681665,64dc7dbd03c3f74a1f133b9c,,,,,,,sngl,resources/Empty.png,resources/DY.BMP,WildCard_NonEx,0.212222222,-0.035555556,1,0,0,0.6951,optionRight,55,8550,4,27,0,27,0,1,,,,,,,,,,,,,,,,,,,,,,,,,,,,,,,,,,,,,,,
,,,,,,,,2023-08-16_08h42.04.075,HF_wild_card,2022.2.4,Win32,29.96883241,5e258b8b3d2e1b7e12b4ebda,64d2fd46c836a06233681665,64dc7dbd03c3f74a1f133b9c,,,,,,,sngl,resources/Empty.png,resources/DB.BMP,Door4,0.21,-0.026666667,1,0,0,0.5954,optionRight,80,8630,4,28,0,28,0,1,,,,,,,,,,,,,,,,,,,,,,,,,,,,,,,,,,,,,,,
,,,,,,,,2023-08-16_08h42.04.075,HF_wild_card,2022.2.4,Win32,29.96883241,5e258b8b3d2e1b7e12b4ebda,64d2fd46c836a06233681665,64dc7dbd03c3f74a1f133b9c,,,,,,,ctch,resources/DB.BMP,resources/DP.BMP,Door4,-0.208888889,-0.008888889,1,0,0,0.7726,optionLeft,60,8690,4,29,0,29,0,1,,,,,,,,,,,,,,,,,,,,,,,,,,,,,,,,,,,,,,,
,,,,,,,,2023-08-16_08h42.04.075,HF_wild_card,2022.2.4,Win32,29.96883241,5e258b8b3d2e1b7e12b4ebda,64d2fd46c836a06233681665,64dc7dbd03c3f74a1f133b9c,,,,,,,sngl,resources/DY.BMP,resources/Empty.png,WildCard_NonEx,-0.193333333,0.025555556,1,0,0,0.7182,optionLeft,45,8735,4,30,0,30,0,1,,,,,,,,,,,,,,,,,,,,,,,,,,,,,,,,,,,,,,,
,,,,,,,,2023-08-16_08h42.04.075,HF_wild_card,2022.2.4,Win32,29.96883241,5e258b8b3d2e1b7e12b4ebda,64d2fd46c836a06233681665,64dc7dbd03c3f74a1f133b9c,,,,,,,decisionTrl,resources/DB.BMP,resources/DR.BMP,Door4,-0.253333333,-0.001111111,1,0,0,0.9506,optionLeft,80,8815,4,31,0,31,0,1,,,,,,,,,,,,,,,,,,,,,,,,,,,,,,,,,,,,,,,
,,,,,,,,2023-08-16_08h42.04.075,HF_wild_card,2022.2.4,Win32,29.96883241,5e258b8b3d2e1b7e12b4ebda,64d2fd46c836a06233681665,64dc7dbd03c3f74a1f133b9c,,,,,,,ctch,resources/DBN.BMP,resources/DR.BMP,Door3,0.2,-0.072222222,1,0,0,0.9513,optionRight,70,8885,4,32,0,32,0,1,,,,,,,,,,,,,,,,,,,,,,,,,,,,,,,,,,,,,,,
,,,,,,,,2023-08-16_08h42.04.075,HF_wild_card,2022.2.4,Win32,29.96883241,5e258b8b3d2e1b7e12b4ebda,64d2fd46c836a06233681665,64dc7dbd03c3f74a1f133b9c,,,,,,,sngl,resources/DY.BMP,resources/Empty.png,WildCard_NonEx,-0.218888889,-0.023333333,1,0,0,0.7569,optionLeft,55,8940,4,33,0,33,0,1,,,,,,,,,,,,,,,,,,,,,,,,,,,,,,,,,,,,,,,
,,,,,,,,2023-08-16_08h42.04.075,HF_wild_card,2022.2.4,Win32,29.96883241,5e258b8b3d2e1b7e12b4ebda,64d2fd46c836a06233681665,64dc7dbd03c3f74a1f133b9c,,,,,,,sngl,resources/DP.BMP,resources/Empty.png,Door1,-0.161111111,-0.04,1,0,0,0.7813,optionLeft,30,8970,4,34,0,34,0,1,,,,,,,,,,,,,,,,,,,,,,,,,,,,,,,,,,,,,,,
,,,,,,,,2023-08-16_08h42.04.075,HF_wild_card,2022.2.4,Win32,29.96883241,5e258b8b3d2e1b7e12b4ebda,64d2fd46c836a06233681665,64dc7dbd03c3f74a1f133b9c,,,,,,,decisionTrl,resources/DP.BMP,resources/DBN.BMP,Door1,-0.275555556,-0.032222222,1,0,0,0.8296,optionLeft,30,9000,4,35,0,35,0,1,,,,,,,,,,,,,,,,,,,,,,,,,,,,,,,,,,,,,,,
,,,,,,,,2023-08-16_08h42.04.075,HF_wild_card,2022.2.4,Win32,29.96883241,5e258b8b3d2e1b7e12b4ebda,64d2fd46c836a06233681665,64dc7dbd03c3f74a1f133b9c,,,,,,,sngl,resources/DBN.BMP,resources/Empty.png,Door2,-0.14,-0.008888889,1,0,0,0.9781,optionLeft,20,9020,4,36,0,36,0,1,,,,,,,,,,,,,,,,,,,,,,,,,,,,,,,,,,,,,,,
,,,,,,,,2023-08-16_08h42.04.075,HF_wild_card,2022.2.4,Win32,29.96883241,5e258b8b3d2e1b7e12b4ebda,64d2fd46c836a06233681665,64dc7dbd03c3f74a1f133b9c,,,,,,,decisionTrl,resources/DBN.BMP,resources/DY.BMP,WildCard_NonEx,0.168888889,-0.005555556,1,0,0,0.7815,optionRight,55,9075,4,37,0,37,0,1,,,,,,,,,,,,,,,,,,,,,,,,,,,,,,,,,,,,,,,
,,,,,,,,2023-08-16_08h42.04.075,HF_wild_card,2022.2.4,Win32,29.96883241,5e258b8b3d2e1b7e12b4ebda,64d2fd46c836a06233681665,64dc7dbd03c3f74a1f133b9c,,,,,,,sngl,resources/Empty.png,resources/DR.BMP,Door3,0.205555556,-0.031111111,1,0,0,0.6785,optionRight,70,9145,4,38,0,38,0,1,,,,,,,,,,,,,,,,,,,,,,,,,,,,,,,,,,,,,,,
,,,,,,,,2023-08-16_08h42.04.075,HF_wild_card,2022.2.4,Win32,29.96883241,5e258b8b3d2e1b7e12b4ebda,64d2fd46c836a06233681665,64dc7dbd03c3f74a1f133b9c,,,,,,,decisionTrl,resources/DB.BMP,resources/DR.BMP,Door4,-0.263333333,0.002222222,1,0,0,0.9982,optionLeft,80,9225,4,39,0,39,0,1,,,,,,,,,,,,,,,,,,,,,,,,,,,,,,,,,,,,,,,
,,,,,,,,2023-08-16_08h42.04.075,HF_wild_card,2022.2.4,Win32,29.96883241,5e258b8b3d2e1b7e12b4ebda,64d2fd46c836a06233681665,64dc7dbd03c3f74a1f133b9c,,,,,,,decisionTrl,resources/DY.BMP,resources/DP.BMP,WildCard_NonEx,-0.176666667,-0.028888889,1,0,0,1.954,optionLeft,45,9270,4,40,0,40,0,1,,,,,,,,,,,,,,,,,,,,,,,,,,,,,,,,,,,,,,,
,,,,,,,,2023-08-16_08h42.04.075,HF_wild_card,2022.2.4,Win32,29.96883241,5e258b8b3d2e1b7e12b4ebda,64d2fd46c836a06233681665,64dc7dbd03c3f74a1f133b9c,,,,,,,decisionTrl,resources/DB.BMP,resources/DR.BMP,Door4,-0.177777778,-0.021111111,1,0,0,1.1346,optionLeft,60,9330,4,41,0,41,0,1,,,,,,,,,,,,,,,,,,,,,,,,,,,,,,,,,,,,,,,
,,,,,,,,2023-08-16_08h42.04.075,HF_wild_card,2022.2.4,Win32,29.96883241,5e258b8b3d2e1b7e12b4ebda,64d2fd46c836a06233681665,64dc7dbd03c3f74a1f133b9c,,,,,,,ctch,resources/DP.BMP,resources/DB.BMP,Door4,0.263333333,-0.028888889,1,0,0,1.0386,optionRight,80,9410,4,42,0,42,0,1,,,,,,,,,,,,,,,,,,,,,,,,,,,,,,,,,,,,,,,
,,,,,,,,2023-08-16_08h42.04.075,HF_wild_card,2022.2.4,Win32,29.96883241,5e258b8b3d2e1b7e12b4ebda,64d2fd46c836a06233681665,64dc7dbd03c3f74a1f133b9c,,,,,,,decisionTrl,resources/DP.BMP,resources/DBN.BMP,Door1,-0.227777778,-0.02,1,0,0,0.9309,optionLeft,30,9440,4,43,0,43,0,1,,,,,,,,,,,,,,,,,,,,,,,,,,,,,,,,,,,,,,,
,,,,,,,,2023-08-16_08h42.04.075,HF_wild_card,2022.2.4,Win32,29.96883241,5e258b8b3d2e1b7e12b4ebda,64d2fd46c836a06233681665,64dc7dbd03c3f74a1f133b9c,,,,,,,,,,,,,,,,,,,,,,,,,,3,0,3,0,1,,,,,,,,,,,,,,,,,,,,,,,,,,,,,,,,,,
,,,,,,,,2023-08-16_08h42.04.075,HF_wild_card,2022.2.4,Win32,29.96883241,5e258b8b3d2e1b7e12b4ebda,64d2fd46c836a06233681665,64dc7dbd03c3f74a1f133b9c,,,,,,,sngl,resources/DP.BMP,resources/Empty.png,Door1,-0.276666667,-0.056666667,1,0,0,0.8685,optionLeft,30,9470,5,0,0,0,0,1,,,,,,,,,,,,,,,,,,,,,,,,,,,,,,,,,,,,,,,
,,,,,,,,2023-08-16_08h42.04.075,HF_wild_card,2022.2.4,Win32,29.96883241,5e258b8b3d2e1b7e12b4ebda,64d2fd46c836a06233681665,64dc7dbd03c3f74a1f133b9c,,,,,,,decisionTrl,resources/DB.BMP,resources/DR.BMP,Door4,-0.182222222,-0.066666667,1,0,0,1.0525,optionLeft,80,9550,5,1,0,1,0,1,,,,,,,,,,,,,,,,,,,,,,,,,,,,,,,,,,,,,,,
,,,,,,,,2023-08-16_08h42.04.075,HF_wild_card,2022.2.4,Win32,29.96883241,5e258b8b3d2e1b7e12b4ebda,64d2fd46c836a06233681665,64dc7dbd03c3f74a1f133b9c,,,,,,,decisionTrl,resources/DR.BMP,resources/DB.BMP,Door4,0.242222222,-0.086666667,1,0,0,0.6217,optionRight,60,9610,5,2,0,2,0,1,,,,,,,,,,,,,,,,,,,,,,,,,,,,,,,,,,,,,,,
,,,,,,,,2023-08-16_08h42.04.075,HF_wild_card,2022.2.4,Win32,29.96883241,5e258b8b3d2e1b7e12b4ebda,64d2fd46c836a06233681665,64dc7dbd03c3f74a1f133b9c,,,,,,,decisionTrl,resources/DP.BMP,resources/DBN.BMP,Door1,-0.182222222,-0.032222222,1,0,0,0.7984,optionLeft,30,9640,5,3,0,3,0,1,,,,,,,,,,,,,,,,,,,,,,,,,,,,,,,,,,,,,,,
,,,,,,,,2023-08-16_08h42.04.075,HF_wild_card,2022.2.4,Win32,29.96883241,5e258b8b3d2e1b7e12b4ebda,64d2fd46c836a06233681665,64dc7dbd03c3f74a1f133b9c,,,,,,,decisionTrl,resources/DBN.BMP,resources/DY.BMP,WildCard_NonEx,0.261111111,-0.063333333,1,0,0,0.6844,optionRight,55,9695,5,4,0,4,0,1,,,,,,,,,,,,,,,,,,,,,,,,,,,,,,,,,,,,,,,
,,,,,,,,2023-08-16_08h42.04.075,HF_wild_card,2022.2.4,Win32,29.96883241,5e258b8b3d2e1b7e12b4ebda,64d2fd46c836a06233681665,64dc7dbd03c3f74a1f133b9c,,,,,,,decisionTrl,resources/DBN.BMP,resources/DP.BMP,Door1,0.242222222,-0.056666667,1,0,0,0.6219,optionRight,30,9725,5,5,0,5,0,1,,,,,,,,,,,,,,,,,,,,,,,,,,,,,,,,,,,,,,,
,,,,,,,,2023-08-16_08h42.04.075,HF_wild_card,2022.2.4,Win32,29.96883241,5e258b8b3d2e1b7e12b4ebda,64d2fd46c836a06233681665,64dc7dbd03c3f74a1f133b9c,,,,,,,sngl,resources/DY.BMP,resources/Empty.png,WildCard_NonEx,-0.182222222,-0.028888889,1,0,0,0.7323,optionLeft,45,9770,5,6,0,6,0,1,,,,,,,,,,,,,,,,,,,,,,,,,,,,,,,,,,,,,,,
,,,,,,,,2023-08-16_08h42.04.075,HF_wild_card,2022.2.4,Win32,29.96883241,5e258b8b3d2e1b7e12b4ebda,64d2fd46c836a06233681665,64dc7dbd03c3f74a1f133b9c,,,,,,,sngl,resources/Empty.png,resources/DB.BMP,Door4,0.225555556,-0.074444444,1,0,0,0.5806,optionRight,60,9830,5,7,0,7,0,1,,,,,,,,,,,,,,,,,,,,,,,,,,,,,,,,,,,,,,,
,,,,,,,,2023-08-16_08h42.04.075,HF_wild_card,2022.2.4,Win32,29.96883241,5e258b8b3d2e1b7e12b4ebda,64d2fd46c836a06233681665,64dc7dbd03c3f74a1f133b9c,,,,,,,sngl,resources/DY.BMP,resources/Empty.png,WildCard_NonEx,-0.227777778,-0.022222222,1,0,0,0.629,optionLeft,55,9885,5,8,0,8,0,1,,,,,,,,,,,,,,,,,,,,,,,,,,,,,,,,,,,,,,,
,,,,,,,,2023-08-16_08h42.04.075,HF_wild_card,2022.2.4,Win32,29.96883241,5e258b8b3d2e1b7e12b4ebda,64d2fd46c836a06233681665,64dc7dbd03c3f74a1f133b9c,,,,,,,sngl,resources/Empty.png,resources/DP.BMP,Door1,0.222222222,-0.026666667,1,0,0,0.6021,optionRight,30,9915,5,9,0,9,0,1,,,,,,,,,,,,,,,,,,,,,,,,,,,,,,,,,,,,,,,
,,,,,,,,2023-08-16_08h42.04.075,HF_wild_card,2022.2.4,Win32,29.96883241,5e258b8b3d2e1b7e12b4ebda,64d2fd46c836a06233681665,64dc7dbd03c3f74a1f133b9c,,,,,,,ctch,resources/DR.BMP,resources/DBN.BMP,Door3,-0.206666667,0.005555556,1,0,0,0.8454,optionLeft,70,9985,5,10,0,10,0,1,,,,,,,,,,,,,,,,,,,,,,,,,,,,,,,,,,,,,,,
,,,,,,,,2023-08-16_08h42.04.075,HF_wild_card,2022.2.4,Win32,29.96883241,5e258b8b3d2e1b7e12b4ebda,64d2fd46c836a06233681665,64dc7dbd03c3f74a1f133b9c,,,,,,,decisionTrl,resources/DBN.BMP,resources/DP.BMP,Door1,0.243333333,-0.052222222,1,0,0,0.6509,optionRight,30,10015,5,11,0,11,0,1,,,,,,,,,,,,,,,,,,,,,,,,,,,,,,,,,,,,,,,
,,,,,,,,2023-08-16_08h42.04.075,HF_wild_card,2022.2.4,Win32,29.96883241,5e258b8b3d2e1b7e12b4ebda,64d2fd46c836a06233681665,64dc7dbd03c3f74a1f133b9c,,,,,,,ctch,resources/DB.BMP,resources/DP.BMP,Door4,-0.27,0.008888889,1,0,0,0.7665,optionLeft,80,10095,5,12,0,12,0,1,,,,,,,,,,,,,,,,,,,,,,,,,,,,,,,,,,,,,,,
,,,,,,,,2023-08-16_08h42.04.075,HF_wild_card,2022.2.4,Win32,29.96883241,5e258b8b3d2e1b7e12b4ebda,64d2fd46c836a06233681665,64dc7dbd03c3f74a1f133b9c,,,,,,,decisionTrl,resources/DB.BMP,resources/DY.BMP,Door4,-0.22,0.008888889,1,0,0,0.6451,optionLeft,80,10175,5,13,0,13,0,1,,,,,,,,,,,,,,,,,,,,,,,,,,,,,,,,,,,,,,,
,,,,,,,,2023-08-16_08h42.04.075,HF_wild_card,2022.2.4,Win32,29.96883241,5e258b8b3d2e1b7e12b4ebda,64d2fd46c836a06233681665,64dc7dbd03c3f74a1f133b9c,,,,,,,ctch,resources/DBN.BMP,resources/DR.BMP,Door3,0.255555556,-0.031111111,1,0,0,0.6549,optionRight,70,10245,5,14,0,14,0,1,,,,,,,,,,,,,,,,,,,,,,,,,,,,,,,,,,,,,,,
,,,,,,,,2023-08-16_08h42.04.075,HF_wild_card,2022.2.4,Win32,29.96883241,5e258b8b3d2e1b7e12b4ebda,64d2fd46c836a06233681665,64dc7dbd03c3f74a1f133b9c,,,,,,,decisionTrl,resources/DBN.BMP,resources/DP.BMP,Door1,0.241111111,-0.042222222,1,0,0,0.6111,optionRight,30,10275,5,15,0,15,0,1,,,,,,,,,,,,,,,,,,,,,,,,,,,,,,,,,,,,,,,
,,,,,,,,2023-08-16_08h42.04.075,HF_wild_card,2022.2.4,Win32,29.96883241,5e258b8b3d2e1b7e12b4ebda,64d2fd46c836a06233681665,64dc7dbd03c3f74a1f133b9c,,,,,,,sngl,resources/Empty.png,resources/DR.BMP,Door3,0.247777778,-0.017777778,1,0,0,0.5904,optionRight,70,10345,5,16,0,16,0,1,,,,,,,,,,,,,,,,,,,,,,,,,,,,,,,,,,,,,,,
,,,,,,,,2023-08-16_08h42.04.075,HF_wild_card,2022.2.4,Win32,29.96883241,5e258b8b3d2e1b7e12b4ebda,64d2fd46c836a06233681665,64dc7dbd03c3f74a1f133b9c,,,,,,,decisionTrl,resources/DY.BMP,resources/DB.BMP,Door4,0.246666667,-0.02,1,0,0,0.8122,optionRight,80,10425,5,17,0,17,0,1,,,,,,,,,,,,,,,,,,,,,,,,,,,,,,,,,,,,,,,
,,,,,,,,2023-08-16_08h42.04.075,HF_wild_card,2022.2.4,Win32,29.96883241,5e258b8b3d2e1b7e12b4ebda,64d2fd46c836a06233681665,64dc7dbd03c3f74a1f133b9c,,,,,,,decisionTrl,resources/DP.BMP,resources/DY.BMP,WildCard_NonEx,0.253333333,-0.031111111,1,0,0,1.3795,optionRight,45,10470,5,18,0,18,0,1,,,,,,,,,,,,,,,,,,,,,,,,,,,,,,,,,,,,,,,
,,,,,,,,2023-08-16_08h42.04.075,HF_wild_card,2022.2.4,Win32,29.96883241,5e258b8b3d2e1b7e12b4ebda,64d2fd46c836a06233681665,64dc7dbd03c3f74a1f133b9c,,,,,,,sngl,resources/Empty.png,resources/DBN.BMP,Door2,0.167777778,-0.014444444,1,0,0,0.825,optionRight,20,10490,5,19,0,19,0,1,,,,,,,,,,,,,,,,,,,,,,,,,,,,,,,,,,,,,,,
,,,,,,,,2023-08-16_08h42.04.075,HF_wild_card,2022.2.4,Win32,29.96883241,5e258b8b3d2e1b7e12b4ebda,64d2fd46c836a06233681665,64dc7dbd03c3f74a1f133b9c,,,,,,,sngl,resources/DR.BMP,resources/Empty.png,Door3,-0.156666667,0.004444444,1,0,0,0.7032,optionLeft,70,10560,5,20,0,20,0,1,,,,,,,,,,,,,,,,,,,,,,,,,,,,,,,,,,,,,,,
,,,,,,,,2023-08-16_08h42.04.075,HF_wild_card,2022.2.4,Win32,29.96883241,5e258b8b3d2e1b7e12b4ebda,64d2fd46c836a06233681665,64dc7dbd03c3f74a1f133b9c,,,,,,,decisionTrl,resources/DR.BMP,resources/DB.BMP,Door3,-0.181111111,-0.01,1,0,0,0.7139,optionLeft,70,10630,5,21,0,21,0,1,,,,,,,,,,,,,,,,,,,,,,,,,,,,,,,,,,,,,,,
,,,,,,,,2023-08-16_08h42.04.075,HF_wild_card,2022.2.4,Win32,29.96883241,5e258b8b3d2e1b7e12b4ebda,64d2fd46c836a06233681665,64dc7dbd03c3f74a1f133b9c,,,,,,,decisionTrl,resources/DR.BMP,resources/DY.BMP,Door3,-0.157777778,-0.048888889,1,0,0,0.8771,optionLeft,70,10700,5,22,0,22,0,1,,,,,,,,,,,,,,,,,,,,,,,,,,,,,,,,,,,,,,,
,,,,,,,,2023-08-16_08h42.04.075,HF_wild_card,2022.2.4,Win32,29.96883241,5e258b8b3d2e1b7e12b4ebda,64d2fd46c836a06233681665,64dc7dbd03c3f74a1f133b9c,,,,,,,decisionTrl,resources/DR.BMP,resources/DB.BMP,Door4,0.227777778,-0.045555556,1,0,0,0.7535,optionRight,60,10760,5,23,0,23,0,1,,,,,,,,,,,,,,,,,,,,,,,,,,,,,,,,,,,,,,,
,,,,,,,,2023-08-16_08h42.04.075,HF_wild_card,2022.2.4,Win32,29.96883241,5e258b8b3d2e1b7e12b4ebda,64d2fd46c836a06233681665,64dc7dbd03c3f74a1f133b9c,,,,,,,ctch,resources/DBN.BMP,resources/DR.BMP,Door3,0.251111111,-0.037777778,1,0,0,0.7601,optionRight,70,10830,5,24,0,24,0,1,,,,,,,,,,,,,,,,,,,,,,,,,,,,,,,,,,,,,,,
,,,,,,,,2023-08-16_08h42.04.075,HF_wild_card,2022.2.4,Win32,29.96883241,5e258b8b3d2e1b7e12b4ebda,64d2fd46c836a06233681665,64dc7dbd03c3f74a1f133b9c,,,,,,,decisionTrl,resources/DP.BMP,resources/DBN.BMP,Door1,-0.161111111,-0.023333333,1,0,0,1.6549,optionLeft,30,10860,5,25,0,25,0,1,,,,,,,,,,,,,,,,,,,,,,,,,,,,,,,,,,,,,,,
,,,,,,,,2023-08-16_08h42.04.075,HF_wild_card,2022.2.4,Win32,29.96883241,5e258b8b3d2e1b7e12b4ebda,64d2fd46c836a06233681665,64dc7dbd03c3f74a1f133b9c,,,,,,,decisionTrl,resources/DP.BMP,resources/DBN.BMP,Door1,-0.242222222,-0.033333333,1,0,0,0.779,optionLeft,30,10890,5,26,0,26,0,1,,,,,,,,,,,,,,,,,,,,,,,,,,,,,,,,,,,,,,,
,,,,,,,,2023-08-16_08h42.04.075,HF_wild_card,2022.2.4,Win32,29.96883241,5e258b8b3d2e1b7e12b4ebda,64d2fd46c836a06233681665,64dc7dbd03c3f74a1f133b9c,,,,,,,decisionTrl,resources/DY.BMP,resources/DR.BMP,Door3,0.211111111,-0.024444444,1,0,0,1.4246,optionRight,70,10960,5,27,0,27,0,1,,,,,,,,,,,,,,,,,,,,,,,,,,,,,,,,,,,,,,,
,,,,,,,,2023-08-16_08h42.04.075,HF_wild_card,2022.2.4,Win32,29.96883241,5e258b8b3d2e1b7e12b4ebda,64d2fd46c836a06233681665,64dc7dbd03c3f74a1f133b9c,,,,,,,decisionTrl,resources/DR.BMP,resources/DB.BMP,Door3,-0.158888889,-0.02,1,0,0,0.717,optionLeft,70,11030,5,28,0,28,0,1,,,,,,,,,,,,,,,,,,,,,,,,,,,,,,,,,,,,,,,
,,,,,,,,2023-08-16_08h42.04.075,HF_wild_card,2022.2.4,Win32,29.96883241,5e258b8b3d2e1b7e12b4ebda,64d2fd46c836a06233681665,64dc7dbd03c3f74a1f133b9c,,,,,,,decisionTrl,resources/DP.BMP,resources/DBN.BMP,Door1,-0.266666667,-0.033333333,1,0,0,0.8138,optionLeft,30,11060,5,29,0,29,0,1,,,,,,,,,,,,,,,,,,,,,,,,,,,,,,,,,,,,,,,
,,,,,,,,2023-08-16_08h42.04.075,HF_wild_card,2022.2.4,Win32,29.96883241,5e258b8b3d2e1b7e12b4ebda,64d2fd46c836a06233681665,64dc7dbd03c3f74a1f133b9c,,,,,,,decisionTrl,resources/DY.BMP,resources/DBN.BMP,WildCard_NonEx,-0.118888889,-0.006666667,1,0,0,1.0554,optionLeft,55,11115,5,30,0,30,0,1,,,,,,,,,,,,,,,,,,,,,,,,,,,,,,,,,,,,,,,
,,,,,,,,2023-08-16_08h42.04.075,HF_wild_card,2022.2.4,Win32,29.96883241,5e258b8b3d2e1b7e12b4ebda,64d2fd46c836a06233681665,64dc7dbd03c3f74a1f133b9c,,,,,,,decisionTrl,resources/DY.BMP,resources/DP.BMP,WildCard_NonEx,-0.212222222,-0.001111111,1,0,0,1.3918,optionLeft,45,11160,5,31,0,31,0,1,,,,,,,,,,,,,,,,,,,,,,,,,,,,,,,,,,,,,,,
,,,,,,,,2023-08-16_08h42.04.075,HF_wild_card,2022.2.4,Win32,29.96883241,5e258b8b3d2e1b7e12b4ebda,64d2fd46c836a06233681665,64dc7dbd03c3f74a1f133b9c,,,,,,,ctch,resources/DB.BMP,resources/DP.BMP,Door4,-0.253333333,-0.032222222,1,0,0,0.7996,optionLeft,80,11240,5,32,0,32,0,1,,,,,,,,,,,,,,,,,,,,,,,,,,,,,,,,,,,,,,,
,,,,,,,,2023-08-16_08h42.04.075,HF_wild_card,2022.2.4,Win32,29.96883241,5e258b8b3d2e1b7e12b4ebda,64d2fd46c836a06233681665,64dc7dbd03c3f74a1f133b9c,,,,,,,decisionTrl,resources/DBN.BMP,resources/DP.BMP,Door1,0.293333333,-0.066666667,1,0,0,0.7535,optionRight,30,11270,5,33,0,33,0,1,,,,,,,,,,,,,,,,,,,,,,,,,,,,,,,,,,,,,,,
,,,,,,,,2023-08-16_08h42.04.075,HF_wild_card,2022.2.4,Win32,29.96883241,5e258b8b3d2e1b7e12b4ebda,64d2fd46c836a06233681665,64dc7dbd03c3f74a1f133b9c,,,,,,,ctch,resources/DP.BMP,resources/DB.BMP,Door4,0.218888889,-0.06,1,0,0,0.6848,optionRight,60,11330,5,34,0,34,0,1,,,,,,,,,,,,,,,,,,,,,,,,,,,,,,,,,,,,,,,
,,,,,,,,2023-08-16_08h42.04.075,HF_wild_card,2022.2.4,Win32,29.96883241,5e258b8b3d2e1b7e12b4ebda,64d2fd46c836a06233681665,64dc7dbd03c3f74a1f133b9c,,,,,,,sngl,resources/DBN.BMP,resources/Empty.png,Door2,-0.245555556,0.003333333,1,0,0,0.9565,optionLeft,40,11370,5,35,0,35,0,1,,,,,,,,,,,,,,,,,,,,,,,,,,,,,,,,,,,,,,,
,,,,,,,,2023-08-16_08h42.04.075,HF_wild_card,2022.2.4,Win32,29.96883241,5e258b8b3d2e1b7e12b4ebda,64d2fd46c836a06233681665,64dc7dbd03c3f74a1f133b9c,,,,,,,decisionTrl,resources/DB.BMP,resources/DR.BMP,Door4,-0.151111111,-0.006666667,1,0,0,1.2764,optionLeft,60,11430,5,36,0,36,0,1,,,,,,,,,,,,,,,,,,,,,,,,,,,,,,,,,,,,,,,
,,,,,,,,2023-08-16_08h42.04.075,HF_wild_card,2022.2.4,Win32,29.96883241,5e258b8b3d2e1b7e12b4ebda,64d2fd46c836a06233681665,64dc7dbd03c3f74a1f133b9c,,,,,,,sngl,resources/DB.BMP,resources/Empty.png,Door4,-0.298888889,-0.023333333,1,0,0,0.7974,optionLeft,80,11510,5,37,0,37,0,1,,,,,,,,,,,,,,,,,,,,,,,,,,,,,,,,,,,,,,,
,,,,,,,,2023-08-16_08h42.04.075,HF_wild_card,2022.2.4,Win32,29.96883241,5e258b8b3d2e1b7e12b4ebda,64d2fd46c836a06233681665,64dc7dbd03c3f74a1f133b9c,,,,,,,decisionTrl,resources/DB.BMP,resources/DR.BMP,Door3,0.268888889,-0.067777778,1,0,0,0.7204,optionRight,70,11580,5,38,0,38,0,1,,,,,,,,,,,,,,,,,,,,,,,,,,,,,,,,,,,,,,,
,,,,,,,,2023-08-16_08h42.04.075,HF_wild_card,2022.2.4,Win32,29.96883241,5e258b8b3d2e1b7e12b4ebda,64d2fd46c836a06233681665,64dc7dbd03c3f74a1f133b9c,,,,,,,ctch,resources/DR.BMP,resources/DBN.BMP,Door3,-0.196666667,-0.041111111,1,0,0,0.9567,optionLeft,70,11650,5,39,0,39,0,1,,,,,,,,,,,,,,,,,,,,,,,,,,,,,,,,,,,,,,,
,,,,,,,,2023-08-16_08h42.04.075,HF_wild_card,2022.2.4,Win32,29.96883241,5e258b8b3d2e1b7e12b4ebda,64d2fd46c836a06233681665,64dc7dbd03c3f74a1f133b9c,,,,,,,sngl,resources/Empty.png,resources/DY.BMP,WildCard_NonEx,0.172222222,-0.02,1,0,0,0.7462,optionRight,45,11695,5,40,0,40,0,1,,,,,,,,,,,,,,,,,,,,,,,,,,,,,,,,,,,,,,,
,,,,,,,,2023-08-16_08h42.04.075,HF_wild_card,2022.2.4,Win32,29.96883241,5e258b8b3d2e1b7e12b4ebda,64d2fd46c836a06233681665,64dc7dbd03c3f74a1f133b9c,,,,,,,decisionTrl,resources/DB.BMP,resources/DR.BMP,Door3,0.178888889,-0.033333333,1,0,0,1.2126,optionRight,70,11765,5,41,0,41,0,1,,,,,,,,,,,,,,,,,,,,,,,,,,,,,,,,,,,,,,,
,,,,,,,,2023-08-16_08h42.04.075,HF_wild_card,2022.2.4,Win32,29.96883241,5e258b8b3d2e1b7e12b4ebda,64d2fd46c836a06233681665,64dc7dbd03c3f74a1f133b9c,,,,,,,ctch,resources/DP.BMP,resources/DB.BMP,Door4,0.225555556,-0.042222222,1,0,0,0.7609,optionRight,60,11825,5,42,0,42,0,1,,,,,,,,,,,,,,,,,,,,,,,,,,,,,,,,,,,,,,,
,,,,,,,,2023-08-16_08h42.04.075,HF_wild_card,2022.2.4,Win32,29.96883241,5e258b8b3d2e1b7e12b4ebda,64d2fd46c836a06233681665,64dc7dbd03c3f74a1f133b9c,,,,,,,sngl,resources/Empty.png,resources/DY.BMP,WildCard_NonEx,0.175555556,-0.04,1,0,0,0.7807,optionRight,55,11880,5,43,0,43,0,1,,,,,,,,,,,,,,,,,,,,,,,,,,,,,,,,,,,,,,,
,,,,,,,,2023-08-16_08h42.04.075,HF_wild_card,2022.2.4,Win32,29.96883241,5e258b8b3d2e1b7e12b4ebda,64d2fd46c836a06233681665,64dc7dbd03c3f74a1f133b9c,,,,,,,,,,,,,,,,,,,,,,,,,,4,0,4,0,1,,,,,,,,,,,,,,,,,,,,,,,,,,,,,,,,,,
,,,,,,,,2023-08-16_08h42.04.075,HF_wild_card,2022.2.4,Win32,29.96883241,5e258b8b3d2e1b7e12b4ebda,64d2fd46c836a06233681665,64dc7dbd03c3f74a1f133b9c,,,,,,,decisionTrl,resources/DBN.BMP,resources/DP.BMP,Door1,0.231111111,-0.116666667,1,0,0,0.9463,optionRight,30,11910,6,0,0,0,0,1,,,,,,,,,,,,,,,,,,,,,,,,,,,,,,,,,,,,,,,
,,,,,,,,2023-08-16_08h42.04.075,HF_wild_card,2022.2.4,Win32,29.96883241,5e258b8b3d2e1b7e12b4ebda,64d2fd46c836a06233681665,64dc7dbd03c3f74a1f133b9c,,,,,,,ctch,resources/DB.BMP,resources/DP.BMP,Door4,-0.276666667,-0.013333333,1,0,0,1.0686,optionLeft,60,11970,6,1,0,1,0,1,,,,,,,,,,,,,,,,,,,,,,,,,,,,,,,,,,,,,,,
,,,,,,,,2023-08-16_08h42.04.075,HF_wild_card,2022.2.4,Win32,29.96883241,5e258b8b3d2e1b7e12b4ebda,64d2fd46c836a06233681665,64dc7dbd03c3f74a1f133b9c,,,,,,,sngl,resources/DY.BMP,resources/Empty.png,WildCard_NonEx,-0.147777778,0.026666667,1,0,0,0.7144,optionLeft,55,12025,6,2,0,2,0,1,,,,,,,,,,,,,,,,,,,,,,,,,,,,,,,,,,,,,,,
,,,,,,,,2023-08-16_08h42.04.075,HF_wild_card,2022.2.4,Win32,29.96883241,5e258b8b3d2e1b7e12b4ebda,64d2fd46c836a06233681665,64dc7dbd03c3f74a1f133b9c,,,,,,,decisionTrl,resources/DBN.BMP,resources/DP.BMP,Door1,0.166666667,-0.05,1,0,0,0.6696,optionRight,30,12055,6,3,0,3,0,1,,,,,,,,,,,,,,,,,,,,,,,,,,,,,,,,,,,,,,,
,,,,,,,,2023-08-16_08h42.04.075,HF_wild_card,2022.2.4,Win32,29.96883241,5e258b8b3d2e1b7e12b4ebda,64d2fd46c836a06233681665,64dc7dbd03c3f74a1f133b9c,,,,,,,ctch,resources/DR.BMP,resources/DBN.BMP,Door3,-0.254444444,0.004444444,1,0,0,0.7689,optionLeft,70,12125,6,4,0,4,0,1,,,,,,,,,,,,,,,,,,,,,,,,,,,,,,,,,,,,,,,
,,,,,,,,2023-08-16_08h42.04.075,HF_wild_card,2022.2.4,Win32,29.96883241,5e258b8b3d2e1b7e12b4ebda,64d2fd46c836a06233681665,64dc7dbd03c3f74a1f133b9c,,,,,,,decisionTrl,resources/DB.BMP,resources/DR.BMP,Door3,0.211111111,-0.051111111,1,0,0,2.8293,optionRight,70,12195,6,5,0,5,0,1,,,,,,,,,,,,,,,,,,,,,,,,,,,,,,,,,,,,,,,
,,,,,,,,2023-08-16_08h42.04.075,HF_wild_card,2022.2.4,Win32,29.96883241,5e258b8b3d2e1b7e12b4ebda,64d2fd46c836a06233681665,64dc7dbd03c3f74a1f133b9c,,,,,,,decisionTrl,resources/DP.BMP,resources/DBN.BMP,Door1,-0.283333333,-0.041111111,1,0,0,1.2054,optionLeft,30,12225,6,6,0,6,0,1,,,,,,,,,,,,,,,,,,,,,,,,,,,,,,,,,,,,,,,
,,,,,,,,2023-08-16_08h42.04.075,HF_wild_card,2022.2.4,Win32,29.96883241,5e258b8b3d2e1b7e12b4ebda,64d2fd46c836a06233681665,64dc7dbd03c3f74a1f133b9c,,,,,,,ctch,resources/DBN.BMP,resources/DR.BMP,Door3,0.302222222,-0.025555556,1,0,0,0.7286,optionRight,70,12295,6,7,0,7,0,1,,,,,,,,,,,,,,,,,,,,,,,,,,,,,,,,,,,,,,,
,,,,,,,,2023-08-16_08h42.04.075,HF_wild_card,2022.2.4,Win32,29.96883241,5e258b8b3d2e1b7e12b4ebda,64d2fd46c836a06233681665,64dc7dbd03c3f74a1f133b9c,,,,,,,decisionTrl,resources/DB.BMP,resources/DY.BMP,Door4,-0.235555556,0.017777778,1,0,0,0.7991,optionLeft,60,12355,6,8,0,8,0,1,,,,,,,,,,,,,,,,,,,,,,,,,,,,,,,,,,,,,,,
,,,,,,,,2023-08-16_08h42.04.075,HF_wild_card,2022.2.4,Win32,29.96883241,5e258b8b3d2e1b7e12b4ebda,64d2fd46c836a06233681665,64dc7dbd03c3f74a1f133b9c,,,,,,,decisionTrl,resources/DY.BMP,resources/DB.BMP,Door4,0.216666667,-0.048888889,1,0,0,0.6788,optionRight,60,12415,6,9,0,9,0,1,,,,,,,,,,,,,,,,,,,,,,,,,,,,,,,,,,,,,,,
,,,,,,,,2023-08-16_08h42.04.075,HF_wild_card,2022.2.4,Win32,29.96883241,5e258b8b3d2e1b7e12b4ebda,64d2fd46c836a06233681665,64dc7dbd03c3f74a1f133b9c,,,,,,,decisionTrl,resources/DY.BMP,resources/DR.BMP,Door3,0.214444444,-0.05,1,0,0,1.0621,optionRight,70,12485,6,10,0,10,0,1,,,,,,,,,,,,,,,,,,,,,,,,,,,,,,,,,,,,,,,
,,,,,,,,2023-08-16_08h42.04.075,HF_wild_card,2022.2.4,Win32,29.96883241,5e258b8b3d2e1b7e12b4ebda,64d2fd46c836a06233681665,64dc7dbd03c3f74a1f133b9c,,,,,,,decisionTrl,resources/DP.BMP,resources/DBN.BMP,Door1,-0.235555556,0.031111111,1,0,0,0.7525,optionLeft,30,12515,6,11,0,11,0,1,,,,,,,,,,,,,,,,,,,,,,,,,,,,,,,,,,,,,,,
,,,,,,,,2023-08-16_08h42.04.075,HF_wild_card,2022.2.4,Win32,29.96883241,5e258b8b3d2e1b7e12b4ebda,64d2fd46c836a06233681665,64dc7dbd03c3f74a1f133b9c,,,,,,,decisionTrl,resources/DP.BMP,resources/DBN.BMP,Door1,-0.275555556,0.025555556,1,0,0,0.7116,optionLeft,30,12545,6,12,0,12,0,1,,,,,,,,,,,,,,,,,,,,,,,,,,,,,,,,,,,,,,,
,,,,,,,,2023-08-16_08h42.04.075,HF_wild_card,2022.2.4,Win32,29.96883241,5e258b8b3d2e1b7e12b4ebda,64d2fd46c836a06233681665,64dc7dbd03c3f74a1f133b9c,,,,,,,ctch,resources/DB.BMP,resources/DP.BMP,Door4,-0.24,0.016666667,1,0,0,1.6093,optionLeft,60,12605,6,13,0,13,0,1,,,,,,,,,,,,,,,,,,,,,,,,,,,,,,,,,,,,,,,
,,,,,,,,2023-08-16_08h42.04.075,HF_wild_card,2022.2.4,Win32,29.96883241,5e258b8b3d2e1b7e12b4ebda,64d2fd46c836a06233681665,64dc7dbd03c3f74a1f133b9c,,,,,,,decisionTrl,resources/DP.BMP,resources/DBN.BMP,Door1,-0.221111111,0.001111111,1,0,0,1.1682,optionLeft,30,12635,6,14,0,14,0,1,,,,,,,,,,,,,,,,,,,,,,,,,,,,,,,,,,,,,,,
,,,,,,,,2023-08-16_08h42.04.075,HF_wild_card,2022.2.4,Win32,29.96883241,5e258b8b3d2e1b7e12b4ebda,64d2fd46c836a06233681665,64dc7dbd03c3f74a1f133b9c,,,,,,,decisionTrl,resources/DR.BMP,resources/DB.BMP,Door3,-0.218888889,0.026666667,1,0,0,1.9092,optionLeft,70,12705,6,15,0,15,0,1,,,,,,,,,,,,,,,,,,,,,,,,,,,,,,,,,,,,,,,
,,,,,,,,2023-08-16_08h42.04.075,HF_wild_card,2022.2.4,Win32,29.96883241,5e258b8b3d2e1b7e12b4ebda,64d2fd46c836a06233681665,64dc7dbd03c3f74a1f133b9c,,,,,,,sngl,resources/Empty.png,resources/DB.BMP,Door4,0.203333333,-0.036666667,1,0,0,0.6764,optionRight,80,12785,6,16,0,16,0,1,,,,,,,,,,,,,,,,,,,,,,,,,,,,,,,,,,,,,,,
,,,,,,,,2023-08-16_08h42.04.075,HF_wild_card,2022.2.4,Win32,29.96883241,5e258b8b3d2e1b7e12b4ebda,64d2fd46c836a06233681665,64dc7dbd03c3f74a1f133b9c,,,,,,,sngl,resources/DB.BMP,resources/Empty.png,Door4,-0.225555556,0.006666667,1,0,0,0.6656,optionLeft,60,12845,6,17,0,17,0,1,,,,,,,,,,,,,,,,,,,,,,,,,,,,,,,,,,,,,,,
,,,,,,,,2023-08-16_08h42.04.075,HF_wild_card,2022.2.4,Win32,29.96883241,5e258b8b3d2e1b7e12b4ebda,64d2fd46c836a06233681665,64dc7dbd03c3f74a1f133b9c,,,,,,,sngl,resources/Empty.png,resources/DR.BMP,Door3,0.232222222,-0.064444444,1,0,0,0.6358,optionRight,70,12915,6,18,0,18,0,1,,,,,,,,,,,,,,,,,,,,,,,,,,,,,,,,,,,,,,,
,,,,,,,,2023-08-16_08h42.04.075,HF_wild_card,2022.2.4,Win32,29.96883241,5e258b8b3d2e1b7e12b4ebda,64d2fd46c836a06233681665,64dc7dbd03c3f74a1f133b9c,,,,,,,decisionTrl,resources/DR.BMP,resources/DY.BMP,Door3,-0.27,-0.011111111,1,0,0,0.9632,optionLeft,70,12985,6,19,0,19,0,1,,,,,,,,,,,,,,,,,,,,,,,,,,,,,,,,,,,,,,,
,,,,,,,,2023-08-16_08h42.04.075,HF_wild_card,2022.2.4,Win32,29.96883241,5e258b8b3d2e1b7e12b4ebda,64d2fd46c836a06233681665,64dc7dbd03c3f74a1f133b9c,,,,,,,decisionTrl,resources/DY.BMP,resources/DP.BMP,WildCard_NonEx,-0.167777778,-0.038888889,1,0,0,1.453,optionLeft,55,13040,6,20,0,20,0,1,,,,,,,,,,,,,,,,,,,,,,,,,,,,,,,,,,,,,,,
,,,,,,,,2023-08-16_08h42.04.075,HF_wild_card,2022.2.4,Win32,29.96883241,5e258b8b3d2e1b7e12b4ebda,64d2fd46c836a06233681665,64dc7dbd03c3f74a1f133b9c,,,,,,,decisionTrl,resources/DY.BMP,resources/DBN.BMP,WildCard_NonEx,-0.203333333,-0.012222222,1,0,0,0.9681,optionLeft,45,13085,6,21,0,21,0,1,,,,,,,,,,,,,,,,,,,,,,,,,,,,,,,,,,,,,,,
,,,,,,,,2023-08-16_08h42.04.075,HF_wild_card,2022.2.4,Win32,29.96883241,5e258b8b3d2e1b7e12b4ebda,64d2fd46c836a06233681665,64dc7dbd03c3f74a1f133b9c,,,,,,,decisionTrl,resources/DBN.BMP,resources/DP.BMP,Door1,0.388888889,-0.142222222,1,0,0,1.3135,optionRight,30,13115,6,22,0,22,0,1,,,,,,,,,,,,,,,,,,,,,,,,,,,,,,,,,,,,,,,
,,,,,,,,2023-08-16_08h42.04.075,HF_wild_card,2022.2.4,Win32,29.96883241,5e258b8b3d2e1b7e12b4ebda,64d2fd46c836a06233681665,64dc7dbd03c3f74a1f133b9c,,,,,,,decisionTrl,resources/DB.BMP,resources/DR.BMP,Door3,0.261111111,-0.061111111,1,0,0,1.1536,optionRight,70,13185,6,23,0,23,0,1,,,,,,,,,,,,,,,,,,,,,,,,,,,,,,,,,,,,,,,
,,,,,,,,2023-08-16_08h42.04.075,HF_wild_card,2022.2.4,Win32,29.96883241,5e258b8b3d2e1b7e12b4ebda,64d2fd46c836a06233681665,64dc7dbd03c3f74a1f133b9c,,,,,,,sngl,resources/Empty.png,resources/DP.BMP,Door1,0.218888889,-0.071111111,1,0,0,0.8472,optionRight,30,13215,6,24,0,24,0,1,,,,,,,,,,,,,,,,,,,,,,,,,,,,,,,,,,,,,,,
,,,,,,,,2023-08-16_08h42.04.075,HF_wild_card,2022.2.4,Win32,29.96883241,5e258b8b3d2e1b7e12b4ebda,64d2fd46c836a06233681665,64dc7dbd03c3f74a1f133b9c,,,,,,,sngl,resources/DBN.BMP,resources/Empty.png,Door2,-0.163333333,0,1,0,0,0.7799,optionLeft,20,13235,6,25,0,25,0,1,,,,,,,,,,,,,,,,,,,,,,,,,,,,,,,,,,,,,,,
,,,,,,,,2023-08-16_08h42.04.075,HF_wild_card,2022.2.4,Win32,29.96883241,5e258b8b3d2e1b7e12b4ebda,64d2fd46c836a06233681665,64dc7dbd03c3f74a1f133b9c,,,,,,,decisionTrl,resources/DR.BMP,resources/DB.BMP,Door4,0.235555556,-0.075555556,1,0,0,0.9789,optionRight,80,13315,6,26,0,26,0,1,,,,,,,,,,,,,,,,,,,,,,,,,,,,,,,,,,,,,,,
,,,,,,,,2023-08-16_08h42.04.075,HF_wild_card,2022.2.4,Win32,29.96883241,5e258b8b3d2e1b7e12b4ebda,64d2fd46c836a06233681665,64dc7dbd03c3f74a1f133b9c,,,,,,,decisionTrl,resources/DP.BMP,resources/DY.BMP,WildCard_NonEx,0.255555556,-0.065555556,1,0,0,2.0228,optionRight,45,13360,6,27,0,27,0,1,,,,,,,,,,,,,,,,,,,,,,,,,,,,,,,,,,,,,,,
,,,,,,,,2023-08-16_08h42.04.075,HF_wild_card,2022.2.4,Win32,29.96883241,5e258b8b3d2e1b7e12b4ebda,64d2fd46c836a06233681665,64dc7dbd03c3f74a1f133b9c,,,,,,,sngl,resources/Empty.png,resources/DY.BMP,WildCard_NonEx,0.244444444,-0.051111111,1,0,0,0.6312,optionRight,55,13415,6,28,0,28,0,1,,,,,,,,,,,,,,,,,,,,,,,,,,,,,,,,,,,,,,,
,,,,,,,,2023-08-16_08h42.04.075,HF_wild_card,2022.2.4,Win32,29.96883241,5e258b8b3d2e1b7e12b4ebda,64d2fd46c836a06233681665,64dc7dbd03c3f74a1f133b9c,,,,,,,decisionTrl,resources/DR.BMP,resources/DB.BMP,Door4,0.233333333,-0.046666667,1,0,0,0.8067,optionRight,60,13475,6,29,0,29,0,1,,,,,,,,,,,,,,,,,,,,,,,,,,,,,,,,,,,,,,,
,,,,,,,,2023-08-16_08h42.04.075,HF_wild_card,2022.2.4,Win32,29.96883241,5e258b8b3d2e1b7e12b4ebda,64d2fd46c836a06233681665,64dc7dbd03c3f74a1f133b9c,,,,,,,ctch,resources/DP.BMP,resources/DB.BMP,Door4,0.304444444,-0.056666667,1,0,0,0.6201,optionRight,80,13555,6,30,0,30,0,1,,,,,,,,,,,,,,,,,,,,,,,,,,,,,,,,,,,,,,,
,,,,,,,,2023-08-16_08h42.04.075,HF_wild_card,2022.2.4,Win32,29.96883241,5e258b8b3d2e1b7e12b4ebda,64d2fd46c836a06233681665,64dc7dbd03c3f74a1f133b9c,,,,,,,decisionTrl,resources/DBN.BMP,resources/DY.BMP,WildCard_NonEx,0.168888889,-0.022222222,1,0,0,0.7132,optionRight,45,13600,6,31,0,31,0,1,,,,,,,,,,,,,,,,,,,,,,,,,,,,,,,,,,,,,,,
,,,,,,,,2023-08-16_08h42.04.075,HF_wild_card,2022.2.4,Win32,29.96883241,5e258b8b3d2e1b7e12b4ebda,64d2fd46c836a06233681665,64dc7dbd03c3f74a1f133b9c,,,,,,,sngl,resources/DR.BMP,resources/Empty.png,Door3,-0.213333333,-0.011111111,1,0,0,0.7444,optionLeft,70,13670,6,32,0,32,0,1,,,,,,,,,,,,,,,,,,,,,,,,,,,,,,,,,,,,,,,
,,,,,,,,2023-08-16_08h42.04.075,HF_wild_card,2022.2.4,Win32,29.96883241,5e258b8b3d2e1b7e12b4ebda,64d2fd46c836a06233681665,64dc7dbd03c3f74a1f133b9c,,,,,,,sngl,resources/Empty.png,resources/DY.BMP,WildCard_NonEx,0.184444444,-0.051111111,1,0,0,0.663,optionRight,45,13715,6,33,0,33,0,1,,,,,,,,,,,,,,,,,,,,,,,,,,,,,,,,,,,,,,,
,,,,,,,,2023-08-16_08h42.04.075,HF_wild_card,2022.2.4,Win32,29.96883241,5e258b8b3d2e1b7e12b4ebda,64d2fd46c836a06233681665,64dc7dbd03c3f74a1f133b9c,,,,,,,sngl,resources/DP.BMP,resources/Empty.png,Door1,-0.197777778,-0.014444444,1,0,0,0.7475,optionLeft,30,13745,6,34,0,34,0,1,,,,,,,,,,,,,,,,,,,,,,,,,,,,,,,,,,,,,,,
,,,,,,,,2023-08-16_08h42.04.075,HF_wild_card,2022.2.4,Win32,29.96883241,5e258b8b3d2e1b7e12b4ebda,64d2fd46c836a06233681665,64dc7dbd03c3f74a1f133b9c,,,,,,,ctch,resources/DBN.BMP,resources/DR.BMP,Door3,0.165555556,-0.033333333,1,0,0,0.6723,optionRight,70,13815,6,35,0,35,0,1,,,,,,,,,,,,,,,,,,,,,,,,,,,,,,,,,,,,,,,
,,,,,,,,2023-08-16_08h42.04.075,HF_wild_card,2022.2.4,Win32,29.96883241,5e258b8b3d2e1b7e12b4ebda,64d2fd46c836a06233681665,64dc7dbd03c3f74a1f133b9c,,,,,,,sngl,resources/DY.BMP,resources/Empty.png,WildCard_NonEx,-0.167777778,0.02,1,0,0,0.7632,optionLeft,45,13860,6,36,0,36,0,1,,,,,,,,,,,,,,,,,,,,,,,,,,,,,,,,,,,,,,,
,,,,,,,,2023-08-16_08h42.04.075,HF_wild_card,2022.2.4,Win32,29.96883241,5e258b8b3d2e1b7e12b4ebda,64d2fd46c836a06233681665,64dc7dbd03c3f74a1f133b9c,,,,,,,decisionTrl,resources/DB.BMP,resources/DR.BMP,Door4,-0.146666667,0.006666667,1,0,0,3.4342,optionLeft,80,13940,6,37,0,37,0,1,,,,,,,,,,,,,,,,,,,,,,,,,,,,,,,,,,,,,,,
,,,,,,,,2023-08-16_08h42.04.075,HF_wild_card,2022.2.4,Win32,29.96883241,5e258b8b3d2e1b7e12b4ebda,64d2fd46c836a06233681665,64dc7dbd03c3f74a1f133b9c,,,,,,,decisionTrl,resources/DR.BMP,resources/DB.BMP,Door4,0.293333333,-0.064444444,1,0,0,0.7013,optionRight,60,14000,6,38,0,38,0,1,,,,,,,,,,,,,,,,,,,,,,,,,,,,,,,,,,,,,,,
,,,,,,,,2023-08-16_08h42.04.075,HF_wild_card,2022.2.4,Win32,29.96883241,5e258b8b3d2e1b7e12b4ebda,64d2fd46c836a06233681665,64dc7dbd03c3f74a1f133b9c,,,,,,,sngl,resources/Empty.png,resources/DBN.BMP,Door2,0.205555556,-0.022222222,1,0,0,1.3809,optionRight,40,14040,6,39,0,39,0,1,,,,,,,,,,,,,,,,,,,,,,,,,,,,,,,,,,,,,,,
,,,,,,,,2023-08-16_08h42.04.075,HF_wild_card,2022.2.4,Win32,29.96883241,5e258b8b3d2e1b7e12b4ebda,64d2fd46c836a06233681665,64dc7dbd03c3f74a1f133b9c,,,,,,,decisionTrl,resources/DB.BMP,resources/DR.BMP,Door4,-0.3,-0.022222222,1,0,0,1.5386,optionLeft,80,14120,6,40,0,40,0,1,,,,,,,,,,,,,,,,,,,,,,,,,,,,,,,,,,,,,,,
,,,,,,,,2023-08-16_08h42.04.075,HF_wild_card,2022.2.4,Win32,29.96883241,5e258b8b3d2e1b7e12b4ebda,64d2fd46c836a06233681665,64dc7dbd03c3f74a1f133b9c,,,,,,,ctch,resources/DR.BMP,resources/DBN.BMP,Door3,-0.268888889,0.007777778,1,0,0,1.3039,optionLeft,70,14190,6,41,0,41,0,1,,,,,,,,,,,,,,,,,,,,,,,,,,,,,,,,,,,,,,,
,,,,,,,,2023-08-16_08h42.04.075,HF_wild_card,2022.2.4,Win32,29.96883241,5e258b8b3d2e1b7e12b4ebda,64d2fd46c836a06233681665,64dc7dbd03c3f74a1f133b9c,,,,,,,decisionTrl,resources/DBN.BMP,resources/DP.BMP,Door1,0.215555556,-0.044444444,1,0,0,0.8723,optionRight,30,14220,6,42,0,42,0,1,,,,,,,,,,,,,,,,,,,,,,,,,,,,,,,,,,,,,,,
,,,,,,,,2023-08-16_08h42.04.075,HF_wild_card,2022.2.4,Win32,29.96883241,5e258b8b3d2e1b7e12b4ebda,64d2fd46c836a06233681665,64dc7dbd03c3f74a1f133b9c,,,,,,,ctch,resources/DP.BMP,resources/DB.BMP,Door4,0.227777778,-0.056666667,1,0,0,1.1362,optionRight,80,14300,6,43,0,43,0,1,,,,,,,,,,,,,,,,,,,,,,,,,,,,,,,,,,,,,,,
,,,,,,,,2023-08-16_08h42.04.075,HF_wild_card,2022.2.4,Win32,29.96883241,5e258b8b3d2e1b7e12b4ebda,64d2fd46c836a06233681665,64dc7dbd03c3f74a1f133b9c,,,,,,,,,,,,,,,,,,,,,,,,,,5,0,5,0,1,,,,,,,,,,,,,,,,,,,,,,,,,,,,,,,,,,
,,,,,,,,2023-08-16_08h42.04.075,HF_wild_card,2022.2.4,Win32,29.96883241,5e258b8b3d2e1b7e12b4ebda,64d2fd46c836a06233681665,64dc7dbd03c3f74a1f133b9c,,,,,,,ctch,resources/DB.BMP,resources/DP.BMP,Door4,-0.316666667,-0.043333333,1,0,0,1.4101,optionLeft,80,14380,7,0,0,0,0,1,,,,,,,,,,,,,,,,,,,,,,,,,,,,,,,,,,,,,,,
,,,,,,,,2023-08-16_08h42.04.075,HF_wild_card,2022.2.4,Win32,29.96883241,5e258b8b3d2e1b7e12b4ebda,64d2fd46c836a06233681665,64dc7dbd03c3f74a1f133b9c,,,,,,,decisionTrl,resources/DB.BMP,resources/DR.BMP,Door3,0.268888889,-0.02,1,0,0,2.2252,optionRight,70,14450,7,1,0,1,0,1,,,,,,,,,,,,,,,,,,,,,,,,,,,,,,,,,,,,,,,
,,,,,,,,2023-08-16_08h42.04.075,HF_wild_card,2022.2.4,Win32,29.96883241,5e258b8b3d2e1b7e12b4ebda,64d2fd46c836a06233681665,64dc7dbd03c3f74a1f133b9c,,,,,,,ctch,resources/DB.BMP,resources/DP.BMP,Door4,-0.218888889,-0.004444444,1,0,0,0.924,optionLeft,80,14530,7,2,0,2,0,1,,,,,,,,,,,,,,,,,,,,,,,,,,,,,,,,,,,,,,,
,,,,,,,,2023-08-16_08h42.04.075,HF_wild_card,2022.2.4,Win32,29.96883241,5e258b8b3d2e1b7e12b4ebda,64d2fd46c836a06233681665,64dc7dbd03c3f74a1f133b9c,,,,,,,decisionTrl,resources/DB.BMP,resources/DR.BMP,Door3,0.294444444,-0.05,1,0,0,2.3471,optionRight,70,14600,7,3,0,3,0,1,,,,,,,,,,,,,,,,,,,,,,,,,,,,,,,,,,,,,,,
,,,,,,,,2023-08-16_08h42.04.075,HF_wild_card,2022.2.4,Win32,29.96883241,5e258b8b3d2e1b7e12b4ebda,64d2fd46c836a06233681665,64dc7dbd03c3f74a1f133b9c,,,,,,,decisionTrl,resources/DR.BMP,resources/DB.BMP,Door4,0.226666667,-0.045555556,1,0,0,1.5838,optionRight,80,14680,7,4,0,4,0,1,,,,,,,,,,,,,,,,,,,,,,,,,,,,,,,,,,,,,,,
,,,,,,,,2023-08-16_08h42.04.075,HF_wild_card,2022.2.4,Win32,29.96883241,5e258b8b3d2e1b7e12b4ebda,64d2fd46c836a06233681665,64dc7dbd03c3f74a1f133b9c,,,,,,,ctch,resources/DR.BMP,resources/DBN.BMP,Door3,-0.224444444,-0.048888889,1,0,0,0.922,optionLeft,70,14750,7,5,0,5,0,1,,,,,,,,,,,,,,,,,,,,,,,,,,,,,,,,,,,,,,,
,,,,,,,,2023-08-16_08h42.04.075,HF_wild_card,2022.2.4,Win32,29.96883241,5e258b8b3d2e1b7e12b4ebda,64d2fd46c836a06233681665,64dc7dbd03c3f74a1f133b9c,,,,,,,decisionTrl,resources/DP.BMP,resources/DBN.BMP,Door1,-0.237777778,-0.05,1,0,0,0.8868,optionLeft,30,14780,7,6,0,6,0,1,,,,,,,,,,,,,,,,,,,,,,,,,,,,,,,,,,,,,,,
,,,,,,,,2023-08-16_08h42.04.075,HF_wild_card,2022.2.4,Win32,29.96883241,5e258b8b3d2e1b7e12b4ebda,64d2fd46c836a06233681665,64dc7dbd03c3f74a1f133b9c,,,,,,,ctch,resources/DP.BMP,resources/DB.BMP,Door4,0.325555556,-0.074444444,1,0,0,0.8497,optionRight,80,14860,7,7,0,7,0,1,,,,,,,,,,,,,,,,,,,,,,,,,,,,,,,,,,,,,,,
,,,,,,,,2023-08-16_08h42.04.075,HF_wild_card,2022.2.4,Win32,29.96883241,5e258b8b3d2e1b7e12b4ebda,64d2fd46c836a06233681665,64dc7dbd03c3f74a1f133b9c,,,,,,,decisionTrl,resources/DR.BMP,resources/DB.BMP,Door3,-0.273333333,-0.023333333,1,0,0,0.7573,optionLeft,70,14930,7,8,0,8,0,1,,,,,,,,,,,,,,,,,,,,,,,,,,,,,,,,,,,,,,,
,,,,,,,,2023-08-16_08h42.04.075,HF_wild_card,2022.2.4,Win32,29.96883241,5e258b8b3d2e1b7e12b4ebda,64d2fd46c836a06233681665,64dc7dbd03c3f74a1f133b9c,,,,,,,decisionTrl,resources/DBN.BMP,resources/DP.BMP,Door1,0.265555556,-0.047777778,1,0,0,0.6873,optionRight,30,14960,7,9,0,9,0,1,,,,,,,,,,,,,,,,,,,,,,,,,,,,,,,,,,,,,,,
,,,,,,,,2023-08-16_08h42.04.075,HF_wild_card,2022.2.4,Win32,29.96883241,5e258b8b3d2e1b7e12b4ebda,64d2fd46c836a06233681665,64dc7dbd03c3f74a1f133b9c,,,,,,,decisionTrl,resources/DB.BMP,resources/DR.BMP,Door4,-0.221111111,-0.045555556,1,0,0,1.6625,optionLeft,60,15020,7,10,0,10,0,1,,,,,,,,,,,,,,,,,,,,,,,,,,,,,,,,,,,,,,,
,,,,,,,,2023-08-16_08h42.04.075,HF_wild_card,2022.2.4,Win32,29.96883241,5e258b8b3d2e1b7e12b4ebda,64d2fd46c836a06233681665,64dc7dbd03c3f74a1f133b9c,,,,,,,decisionTrl,resources/DBN.BMP,resources/DP.BMP,Door1,0.35,-0.088888889,1,0,0,0.8041,optionRight,30,15050,7,11,0,11,0,1,,,,,,,,,,,,,,,,,,,,,,,,,,,,,,,,,,,,,,,
,,,,,,,,2023-08-16_08h42.04.075,HF_wild_card,2022.2.4,Win32,29.96883241,5e258b8b3d2e1b7e12b4ebda,64d2fd46c836a06233681665,64dc7dbd03c3f74a1f133b9c,,,,,,,decisionTrl,resources/DBN.BMP,resources/DP.BMP,Door1,0.271111111,-0.068888889,1,0,0,0.7579,optionRight,30,15080,7,12,0,12,0,1,,,,,,,,,,,,,,,,,,,,,,,,,,,,,,,,,,,,,,,
,,,,,,,,2023-08-16_08h42.04.075,HF_wild_card,2022.2.4,Win32,29.96883241,5e258b8b3d2e1b7e12b4ebda,64d2fd46c836a06233681665,64dc7dbd03c3f74a1f133b9c,,,,,,,ctch,resources/DB.BMP,resources/DP.BMP,Door4,-0.172222222,-0.04,1,0,0,1.0941,optionLeft,80,15160,7,13,0,13,0,1,,,,,,,,,,,,,,,,,,,,,,,,,,,,,,,,,,,,,,,
,,,,,,,,2023-08-16_08h42.04.075,HF_wild_card,2022.2.4,Win32,29.96883241,5e258b8b3d2e1b7e12b4ebda,64d2fd46c836a06233681665,64dc7dbd03c3f74a1f133b9c,,,,,,,decisionTrl,resources/DBN.BMP,resources/DP.BMP,Door1,0.21,-0.027777778,1,0,0,0.8083,optionRight,30,15190,7,14,0,14,0,1,,,,,,,,,,,,,,,,,,,,,,,,,,,,,,,,,,,,,,,
,,,,,,,,2023-08-16_08h42.04.075,HF_wild_card,2022.2.4,Win32,29.96883241,5e258b8b3d2e1b7e12b4ebda,64d2fd46c836a06233681665,64dc7dbd03c3f74a1f133b9c,,,,,,,decisionTrl,resources/DBN.BMP,resources/DP.BMP,Door1,0.227777778,-0.023333333,1,0,0,0.7042,optionRight,30,15220,7,15,0,15,0,1,,,,,,,,,,,,,,,,,,,,,,,,,,,,,,,,,,,,,,,
,,,,,,,,2023-08-16_08h42.04.075,HF_wild_card,2022.2.4,Win32,29.96883241,5e258b8b3d2e1b7e12b4ebda,64d2fd46c836a06233681665,64dc7dbd03c3f74a1f133b9c,,,,,,,decisionTrl,resources/DR.BMP,resources/DB.BMP,Door4,0.208888889,-0.033333333,1,0,0,1.5592,optionRight,80,15300,7,16,0,16,0,1,,,,,,,,,,,,,,,,,,,,,,,,,,,,,,,,,,,,,,,
,,,,,,,,2023-08-16_08h42.04.075,HF_wild_card,2022.2.4,Win32,29.96883241,5e258b8b3d2e1b7e12b4ebda,64d2fd46c836a06233681665,64dc7dbd03c3f74a1f133b9c,,,,,,,decisionTrl,resources/DB.BMP,resources/DR.BMP,Door3,0.166666667,-0.035555556,1,0,0,0.8925,optionRight,70,15370,7,17,0,17,0,1,,,,,,,,,,,,,,,,,,,,,,,,,,,,,,,,,,,,,,,
,,,,,,,,2023-08-16_08h42.04.075,HF_wild_card,2022.2.4,Win32,29.96883241,5e258b8b3d2e1b7e12b4ebda,64d2fd46c836a06233681665,64dc7dbd03c3f74a1f133b9c,,,,,,,decisionTrl,resources/DP.BMP,resources/DBN.BMP,Door1,-0.265555556,0.003333333,1,0,0,0.8141,optionLeft,30,15400,7,18,0,18,0,1,,,,,,,,,,,,,,,,,,,,,,,,,,,,,,,,,,,,,,,
,,,,,,,,2023-08-16_08h42.04.075,HF_wild_card,2022.2.4,Win32,29.96883241,5e258b8b3d2e1b7e12b4ebda,64d2fd46c836a06233681665,64dc7dbd03c3f74a1f133b9c,,,,,,,ctch,resources/DR.BMP,resources/DBN.BMP,Door3,-0.218888889,0.024444444,1,0,0,0.8563,optionLeft,70,15470,7,19,0,19,0,1,,,,,,,,,,,,,,,,,,,,,,,,,,,,,,,,,,,,,,,
,,,,,,,,2023-08-16_08h42.04.075,HF_wild_card,2022.2.4,Win32,29.96883241,5e258b8b3d2e1b7e12b4ebda,64d2fd46c836a06233681665,64dc7dbd03c3f74a1f133b9c,,,,,,,decisionTrl,resources/DP.BMP,resources/DBN.BMP,Door1,-0.266666667,0.004444444,1,0,0,1.1618,optionLeft,30,15500,7,20,0,20,0,1,,,,,,,,,,,,,,,,,,,,,,,,,,,,,,,,,,,,,,,
,,,,,,,,2023-08-16_08h42.04.075,HF_wild_card,2022.2.4,Win32,29.96883241,5e258b8b3d2e1b7e12b4ebda,64d2fd46c836a06233681665,64dc7dbd03c3f74a1f133b9c,,,,,,,ctch,resources/DBN.BMP,resources/DR.BMP,Door3,0.276666667,-0.058888889,1,0,0,0.9373,optionRight,70,15570,7,21,0,21,0,1,,,,,,,,,,,,,,,,,,,,,,,,,,,,,,,,,,,,,,,
,,,,,,,,2023-08-16_08h42.04.075,HF_wild_card,2022.2.4,Win32,29.96883241,5e258b8b3d2e1b7e12b4ebda,64d2fd46c836a06233681665,64dc7dbd03c3f74a1f133b9c,,,,,,,ctch,resources/DBN.BMP,resources/DR.BMP,Door3,0.232222222,-0.037777778,1,0,0,1.0869,optionRight,70,15640,7,22,0,22,0,1,,,,,,,,,,,,,,,,,,,,,,,,,,,,,,,,,,,,,,,
,,,,,,,,2023-08-16_08h42.04.075,HF_wild_card,2022.2.4,Win32,29.96883241,5e258b8b3d2e1b7e12b4ebda,64d2fd46c836a06233681665,64dc7dbd03c3f74a1f133b9c,,,,,,,ctch,resources/DBN.BMP,resources/DR.BMP,Door3,0.276666667,-0.015555556,1,0,0,0.7834,optionRight,70,15710,7,23,0,23,0,1,,,,,,,,,,,,,,,,,,,,,,,,,,,,,,,,,,,,,,,
,,,,,,,,2023-08-16_08h42.04.075,HF_wild_card,2022.2.4,Win32,29.96883241,5e258b8b3d2e1b7e12b4ebda,64d2fd46c836a06233681665,64dc7dbd03c3f74a1f133b9c,,,,,,,decisionTrl,resources/DB.BMP,resources/DR.BMP,Door4,-0.302222222,0.017777778,1,0,0,1.0948,optionLeft,80,15790,7,24,0,24,0,1,,,,,,,,,,,,,,,,,,,,,,,,,,,,,,,,,,,,,,,
,,,,,,,,2023-08-16_08h42.04.075,HF_wild_card,2022.2.4,Win32,29.96883241,5e258b8b3d2e1b7e12b4ebda,64d2fd46c836a06233681665,64dc7dbd03c3f74a1f133b9c,,,,,,,decisionTrl,resources/DR.BMP,resources/DB.BMP,Door3,-0.212222222,-0.021111111,1,0,0,0.929,optionLeft,70,15860,7,25,0,25,0,1,,,,,,,,,,,,,,,,,,,,,,,,,,,,,,,,,,,,,,,
,,,,,,,,2023-08-16_08h42.04.075,HF_wild_card,2022.2.4,Win32,29.96883241,5e258b8b3d2e1b7e12b4ebda,64d2fd46c836a06233681665,64dc7dbd03c3f74a1f133b9c,,,,,,,ctch,resources/DP.BMP,resources/DB.BMP,Door4,0.248888889,-0.041111111,1,0,0,0.8871,optionRight,60,15920,7,26,0,26,0,1,,,,,,,,,,,,,,,,,,,,,,,,,,,,,,,,,,,,,,,
,,,,,,,,2023-08-16_08h42.04.075,HF_wild_card,2022.2.4,Win32,29.96883241,5e258b8b3d2e1b7e12b4ebda,64d2fd46c836a06233681665,64dc7dbd03c3f74a1f133b9c,,,,,,,ctch,resources/DP.BMP,resources/DB.BMP,Door4,0.283333333,-0.003333333,1,0,0,0.6875,optionRight,60,15980,7,27,0,27,0,1,,,,,,,,,,,,,,,,,,,,,,,,,,,,,,,,,,,,,,,
,,,,,,,,2023-08-16_08h42.04.075,HF_wild_card,2022.2.4,Win32,29.96883241,5e258b8b3d2e1b7e12b4ebda,64d2fd46c836a06233681665,64dc7dbd03c3f74a1f133b9c,,,,,,,ctch,resources/DR.BMP,resources/DBN.BMP,Door3,-0.224444444,-0.006666667,1,0,0,0.9165,optionLeft,70,16050,7,28,0,28,0,1,,,,,,,,,,,,,,,,,,,,,,,,,,,,,,,,,,,,,,,
,,,,,,,,2023-08-16_08h42.04.075,HF_wild_card,2022.2.4,Win32,29.96883241,5e258b8b3d2e1b7e12b4ebda,64d2fd46c836a06233681665,64dc7dbd03c3f74a1f133b9c,,,,,,,decisionTrl,resources/DP.BMP,resources/DBN.BMP,Door1,-0.29,0.005555556,1,0,0,0.8085,optionLeft,30,16080,7,29,0,29,0,1,,,,,,,,,,,,,,,,,,,,,,,,,,,,,,,,,,,,,,,
,,,,,,,,2023-08-16_08h42.04.075,HF_wild_card,2022.2.4,Win32,29.96883241,5e258b8b3d2e1b7e12b4ebda,64d2fd46c836a06233681665,64dc7dbd03c3f74a1f133b9c,,,,,,,decisionTrl,resources/DR.BMP,resources/DB.BMP,Door4,0.155555556,0.004444444,1,0,0,1.1522,optionRight,60,16140,7,30,0,30,0,1,,,,,,,,,,,,,,,,,,,,,,,,,,,,,,,,,,,,,,,
,,,,,,,,2023-08-16_08h42.04.075,HF_wild_card,2022.2.4,Win32,29.96883241,5e258b8b3d2e1b7e12b4ebda,64d2fd46c836a06233681665,64dc7dbd03c3f74a1f133b9c,,,,,,,decisionTrl,resources/DP.BMP,resources/DBN.BMP,Door1,-0.252222222,0.008888889,1,0,0,0.8461,optionLeft,30,16170,7,31,0,31,0,1,,,,,,,,,,,,,,,,,,,,,,,,,,,,,,,,,,,,,,,
,,,,,,,,2023-08-16_08h42.04.075,HF_wild_card,2022.2.4,Win32,29.96883241,5e258b8b3d2e1b7e12b4ebda,64d2fd46c836a06233681665,64dc7dbd03c3f74a1f133b9c,,,,,,,decisionTrl,resources/DP.BMP,resources/DBN.BMP,Door1,-0.197777778,0.005555556,1,0,0,0.8254,optionLeft,30,16200,7,32,0,32,0,1,,,,,,,,,,,,,,,,,,,,,,,,,,,,,,,,,,,,,,,
,,,,,,,,2023-08-16_08h42.04.075,HF_wild_card,2022.2.4,Win32,29.96883241,5e258b8b3d2e1b7e12b4ebda,64d2fd46c836a06233681665,64dc7dbd03c3f74a1f133b9c,,,,,,,decisionTrl,resources/DR.BMP,resources/DB.BMP,Door4,0.232222222,-0.035555556,1,0,0,0.7038,optionRight,60,16260,7,33,0,33,0,1,,,,,,,,,,,,,,,,,,,,,,,,,,,,,,,,,,,,,,,
,,,,,,,,2023-08-16_08h42.04.075,HF_wild_card,2022.2.4,Win32,29.96883241,5e258b8b3d2e1b7e12b4ebda,64d2fd46c836a06233681665,64dc7dbd03c3f74a1f133b9c,,,,,,,decisionTrl,resources/DBN.BMP,resources/DP.BMP,Door1,0.261111111,-0.032222222,1,0,0,0.8564,optionRight,30,16290,7,34,0,34,0,1,,,,,,,,,,,,,,,,,,,,,,,,,,,,,,,,,,,,,,,
,,,,,,,,2023-08-16_08h42.04.075,HF_wild_card,2022.2.4,Win32,29.96883241,5e258b8b3d2e1b7e12b4ebda,64d2fd46c836a06233681665,64dc7dbd03c3f74a1f133b9c,,,,,,,decisionTrl,resources/DB.BMP,resources/DR.BMP,Door3,0.192222222,-0.015555556,1,0,0,1.1649,optionRight,70,16360,7,35,0,35,0,1,,,,,,,,,,,,,,,,,,,,,,,,,,,,,,,,,,,,,,,
,,,,,,,,2023-08-16_08h42.04.075,HF_wild_card,2022.2.4,Win32,29.96883241,5e258b8b3d2e1b7e12b4ebda,64d2fd46c836a06233681665,64dc7dbd03c3f74a1f133b9c,,,,,,,,,,,,,,,,,,,,,,,,,,6,0,6,0,1,,,,,,,,,,,,,,,,,,,,,,,,,,,,,,,,,,
,,,,,,,,2023-08-16_08h42.04.075,HF_wild_card,2022.2.4,Win32,29.96883241,5e258b8b3d2e1b7e12b4ebda,64d2fd46c836a06233681665,64dc7dbd03c3f74a1f133b9c,,,,,,,,,,,,,,,,,,,,,,,,,,,,,,,4,,,,,,,,,,,,,,,,,,,,,,,,,,,,,,,,,
,,,,,,,,2023-08-16_08h42.04.075,HF_wild_card,2022.2.4,Win32,29.96883241,5e258b8b3d2e1b7e12b4ebda,64d2fd46c836a06233681665,64dc7dbd03c3f74a1f133b9c,,,,,,,,,,,,,,,,,,,,,,,,,,,,,,,,,,,,,,,,,,,,,,,,,,,,,,,,,,,,,,,,
,,,,,,,,2023-08-16_08h42.04.075,HF_wild_card,2022.2.4,Win32,29.96883241,5e258b8b3d2e1b7e12b4ebda,64d2fd46c836a06233681665,64dc7dbd03c3f74a1f133b9c,,,,,,,,,,,,,,,,,,,,,,,,,,,,,,,,60,WC_extreme,resources/DG.BMP,0,0,0,0,1,,,,,,,,,,,,,,,,,,,,,,,,,
,,,,,,,,2023-08-16_08h42.04.075,HF_wild_card,2022.2.4,Win32,29.96883241,5e258b8b3d2e1b7e12b4ebda,64d2fd46c836a06233681665,64dc7dbd03c3f74a1f133b9c,,,,,,,,,,,,,,,,,,,,,,,,,,,,,,,,70,Door3,resources/DR.BMP,1,0,1,0,1,,,,,,,,,,,,,,,,,,,,,,,,,
,,,,,,,,2023-08-16_08h42.04.075,HF_wild_card,2022.2.4,Win32,29.96883241,5e258b8b3d2e1b7e12b4ebda,64d2fd46c836a06233681665,64dc7dbd03c3f74a1f133b9c,,,,,,,,,,,,,,,,,,,,,,,,,,,,,,,,30,Door1,resources/DP.BMP,2,0,2,0,1,,,,,,,,,,,,,,,,,,,,,,,,,
,,,,,,,,2023-08-16_08h42.04.075,HF_wild_card,2022.2.4,Win32,29.96883241,5e258b8b3d2e1b7e12b4ebda,64d2fd46c836a06233681665,64dc7dbd03c3f74a1f133b9c,,,,,,,,,,,,,,,,,,,,,,,,,,,,,,,,20,Door2,resources/DBN.BMP,3,0,3,0,1,,,,,,,,,,,,,,,,,,,,,,,,,
,,,,,,,,2023-08-16_08h42.04.075,HF_wild_card,2022.2.4,Win32,29.96883241,5e258b8b3d2e1b7e12b4ebda,64d2fd46c836a06233681665,64dc7dbd03c3f74a1f133b9c,,,,,,,,,,,,,,,,,,,,,,,,,,,,,,,,45,WC_nonExtreme,resources/DY.BMP,4,0,4,0,1,,,,,,,,,,,,,,,,,,,,,,,,,
,,,,,,,,2023-08-16_08h42.04.075,HF_wild_card,2022.2.4,Win32,29.96883241,5e258b8b3d2e1b7e12b4ebda,64d2fd46c836a06233681665,64dc7dbd03c3f74a1f133b9c,,,,,,,,,,,,,,,,,,,,,,,,,,,,,,,,80,Door4,resources/DB.BMP,5,0,5,0,1,,,,,,,,,,,,,,,,,,,,,,,,,
,,,,,,,,2023-08-16_08h42.04.075,HF_wild_card,2022.2.4,Win32,29.96883241,5e258b8b3d2e1b7e12b4ebda,64d2fd46c836a06233681665,64dc7dbd03c3f74a1f133b9c,,,,,,,,,,,,,,,,,,,,,,,,,,,,,,,,,,,,,,,,,,,,,,,,,,,,,,,,,,,,,,,,
,,,,,,,,2023-08-16_08h42.04.075,HF_wild_card,2022.2.4,Win32,29.96883241,5e258b8b3d2e1b7e12b4ebda,64d2fd46c836a06233681665,64dc7dbd03c3f74a1f133b9c,,,,,,,,,,,,,,,,,,,,,,,,,,,,,,,,,,,,,,,,0,0,0,0,1,,,,,,,,,,,,,,,,,,,,
