Condition,Low fixed image (Door1),Low risky image (Door2),High fixed image (Door3),High risky image (Door4),Extreme Wild Card,NonExtreme Wild Card,,date,expName,psychopyVersion,OS,frameRate,PROLIFIC_PID,STUDY_ID,SESSION_ID,mouse_2.x,mouse_2.y,mouse_2.leftButton,mouse_2.midButton,mouse_2.rightButton,mouse_2.clicked_name,Trial Type,Left Option Image,Right Option Image,Chosen Door,mouse.x,mouse.y,mouse.leftButton,mouse.midButton,mouse.rightButton,mouse.time,mouse.clicked_name,Feedback,Cumulative Reward,Block,trial.thisRepN,trial.thisTrialN,trial.thisN,trial.thisIndex,trial.ran,blocks.thisRepN,blocks.thisTrialN,blocks.thisN,blocks.thisIndex,blocks.ran,Money conversion,First Outcome Reported,Shown Door (First Outcome),Displayed Image (First Outcome),outcomes.thisRepN,outcomes.thisTrialN,outcomes.thisN,outcomes.thisIndex,outcomes.ran,judgments.thisRepN,judgments.thisTrialN,judgments.thisN,judgments.thisIndex,judgments.ran,freqMouse.x,freqMouse.y,freqMouse.leftButton,freqMouse.midButton,freqMouse.rightButton,freqMouse.clicked_name,FQJ for first outcome,FQJ for second outcome,Shown Door,Displayed Image,trials.thisRepN,trials.thisTrialN,trials.thisN,trials.thisIndex,trials.ran,judgBlock.thisRepN,judgBlock.thisTrialN,judgBlock.thisN,judgBlock.thisIndex,judgBlock.ran
0,resources/DBN.BMP,resources/DB.BMP,resources/DY.BMP,resources/DG.BMP,resources/DR.BMP,resources/DP.BMP,,2023-08-16_08h47.03.565,HF_wild_card,2022.2.4,Win32,59.65519298,5af4579eb625f70001e0cfad,64d2fd46c836a06233681665,64dc7e9cb1882173e1f02f9b,,,,,,,,,,,,,,,,,,,,,,,,,,,,,,,,,,,,,,,,,,,,,,,,,,,,,,,,,,,,,,,,
,,,,,,,,2023-08-16_08h47.03.565,HF_wild_card,2022.2.4,Win32,59.65519298,5af4579eb625f70001e0cfad,64d2fd46c836a06233681665,64dc7e9cb1882173e1f02f9b,0.008333333,-0.425,1,0,0,agree,,,,,,,,,,,,,,,,,,,,,,,,,,,,,,,,,,,,,,,,,,,,,,,,,,,,,,,,,,
,,,,,,,,2023-08-16_08h47.03.565,HF_wild_card,2022.2.4,Win32,59.65519298,5af4579eb625f70001e0cfad,64d2fd46c836a06233681665,64dc7e9cb1882173e1f02f9b,,,,,,,,,,,,,,,,,,,,,,,,,,,,,,,,,,,,,,,,,,,,,,,,,,,,,,,,,,,,,,,,
,,,,,,,,2023-08-16_08h47.03.565,HF_wild_card,2022.2.4,Win32,59.65519298,5af4579eb625f70001e0cfad,64d2fd46c836a06233681665,64dc7e9cb1882173e1f02f9b,,,,,,,ctch,resources/DY.BMP,resources/DB.BMP,Door3,-0.33166666,-0.106666692,1,0,0,1.6611,optionLeft,70,70,1,0,0,0,0,1,,,,,,,,,,,,,,,,,,,,,,,,,,,,,,,,,,,,,,,
,,,,,,,,2023-08-16_08h47.03.565,HF_wild_card,2022.2.4,Win32,59.65519298,5af4579eb625f70001e0cfad,64d2fd46c836a06233681665,64dc7e9cb1882173e1f02f9b,,,,,,,decisionTrl,resources/DBN.BMP,resources/DB.BMP,Door2,0.311666743,0.008333333,1,0,0,1.1976,optionRight,40,110,1,1,0,1,0,1,,,,,,,,,,,,,,,,,,,,,,,,,,,,,,,,,,,,,,,
,,,,,,,,2023-08-16_08h47.03.565,HF_wild_card,2022.2.4,Win32,59.65519298,5af4579eb625f70001e0cfad,64d2fd46c836a06233681665,64dc7e9cb1882173e1f02f9b,,,,,,,ctch,resources/DG.BMP,resources/DBN.BMP,Door4,-0.002499962,-0.00583334,1,0,0,0.0789,optionLeft,80,190,1,2,0,2,0,1,,,,,,,,,,,,,,,,,,,,,,,,,,,,,,,,,,,,,,,
,,,,,,,,2023-08-16_08h47.03.565,HF_wild_card,2022.2.4,Win32,59.65519298,5af4579eb625f70001e0cfad,64d2fd46c836a06233681665,64dc7e9cb1882173e1f02f9b,,,,,,,decisionTrl,resources/DY.BMP,resources/DG.BMP,Door3,-0.31916666,0.010000006,1,0,0,1.1473,optionLeft,70,260,1,3,0,3,0,1,,,,,,,,,,,,,,,,,,,,,,,,,,,,,,,,,,,,,,,
,,,,,,,,2023-08-16_08h47.03.565,HF_wild_card,2022.2.4,Win32,59.65519298,5af4579eb625f70001e0cfad,64d2fd46c836a06233681665,64dc7e9cb1882173e1f02f9b,,,,,,,decisionTrl,resources/DY.BMP,resources/DG.BMP,Door3,-0.179166667,0.008333333,1,0,0,1.0145,optionLeft,70,330,1,4,0,4,0,1,,,,,,,,,,,,,,,,,,,,,,,,,,,,,,,,,,,,,,,
,,,,,,,,2023-08-16_08h47.03.565,HF_wild_card,2022.2.4,Win32,59.65519298,5af4579eb625f70001e0cfad,64d2fd46c836a06233681665,64dc7e9cb1882173e1f02f9b,,,,,,,sngl,resources/Empty.png,resources/DG.BMP,Door4,0.293333308,0.00666666,1,0,0,1.4146,optionRight,60,390,1,5,0,5,0,1,,,,,,,,,,,,,,,,,,,,,,,,,,,,,,,,,,,,,,,
,,,,,,,,2023-08-16_08h47.03.565,HF_wild_card,2022.2.4,Win32,59.65519298,5af4579eb625f70001e0cfad,64d2fd46c836a06233681665,64dc7e9cb1882173e1f02f9b,,,,,,,decisionTrl,resources/DR.BMP,resources/DY.BMP,WildCard_Ex,-0.234999975,-0.00583334,1,0,0,1.8315,optionLeft,5,395,1,6,0,6,0,1,,,,,,,,,,,,,,,,,,,,,,,,,,,,,,,,,,,,,,,
,,,,,,,,2023-08-16_08h47.03.565,HF_wild_card,2022.2.4,Win32,59.65519298,5af4579eb625f70001e0cfad,64d2fd46c836a06233681665,64dc7e9cb1882173e1f02f9b,,,,,,,decisionTrl,resources/DG.BMP,resources/DY.BMP,Door3,0.456666692,0.04333334,1,0,0,1.0897,optionRight,70,465,1,7,0,7,0,1,,,,,,,,,,,,,,,,,,,,,,,,,,,,,,,,,,,,,,,
,,,,,,,,2023-08-16_08h47.03.565,HF_wild_card,2022.2.4,Win32,59.65519298,5af4579eb625f70001e0cfad,64d2fd46c836a06233681665,64dc7e9cb1882173e1f02f9b,,,,,,,ctch,resources/DBN.BMP,resources/DG.BMP,Door4,0.293333308,0.021666654,1,0,0,1.2469,optionRight,60,525,1,8,0,8,0,1,,,,,,,,,,,,,,,,,,,,,,,,,,,,,,,,,,,,,,,
,,,,,,,,2023-08-16_08h47.03.565,HF_wild_card,2022.2.4,Win32,59.65519298,5af4579eb625f70001e0cfad,64d2fd46c836a06233681665,64dc7e9cb1882173e1f02f9b,,,,,,,decisionTrl,resources/DR.BMP,resources/DBN.BMP,WildCard_Ex,-0.35666666,0.004166667,1,0,0,0.9894,optionLeft,5,530,1,9,0,9,0,1,,,,,,,,,,,,,,,,,,,,,,,,,,,,,,,,,,,,,,,
,,,,,,,,2023-08-16_08h47.03.565,HF_wild_card,2022.2.4,Win32,59.65519298,5af4579eb625f70001e0cfad,64d2fd46c836a06233681665,64dc7e9cb1882173e1f02f9b,,,,,,,decisionTrl,resources/DBN.BMP,resources/DB.BMP,Door2,0.330000051,-0.001666673,1,0,0,1.082,optionRight,20,550,1,10,0,10,0,1,,,,,,,,,,,,,,,,,,,,,,,,,,,,,,,,,,,,,,,
,,,,,,,,2023-08-16_08h47.03.565,HF_wild_card,2022.2.4,Win32,59.65519298,5af4579eb625f70001e0cfad,64d2fd46c836a06233681665,64dc7e9cb1882173e1f02f9b,,,,,,,sngl,resources/Empty.png,resources/DBN.BMP,Door1,0.340000025,0.03083334,1,0,0,1.1044,optionRight,30,580,1,11,0,11,0,1,,,,,,,,,,,,,,,,,,,,,,,,,,,,,,,,,,,,,,,
,,,,,,,,2023-08-16_08h47.03.565,HF_wild_card,2022.2.4,Win32,59.65519298,5af4579eb625f70001e0cfad,64d2fd46c836a06233681665,64dc7e9cb1882173e1f02f9b,,,,,,,decisionTrl,resources/DY.BMP,resources/DG.BMP,Door3,-0.36833334,0.00666666,1,0,0,0.9557,optionLeft,70,650,1,12,0,12,0,1,,,,,,,,,,,,,,,,,,,,,,,,,,,,,,,,,,,,,,,
,,,,,,,,2023-08-16_08h47.03.565,HF_wild_card,2022.2.4,Win32,59.65519298,5af4579eb625f70001e0cfad,64d2fd46c836a06233681665,64dc7e9cb1882173e1f02f9b,,,,,,,sngl,resources/Empty.png,resources/DR.BMP,WildCard_Ex,0.445000076,0.00583334,1,0,0,1.1322,optionRight,95,745,1,13,0,13,0,1,,,,,,,,,,,,,,,,,,,,,,,,,,,,,,,,,,,,,,,
,,,,,,,,2023-08-16_08h47.03.565,HF_wild_card,2022.2.4,Win32,59.65519298,5af4579eb625f70001e0cfad,64d2fd46c836a06233681665,64dc7e9cb1882173e1f02f9b,,,,,,,decisionTrl,resources/DG.BMP,resources/DY.BMP,Door3,0.395833333,0.039166673,1,0,0,0.9653,optionRight,70,815,1,14,0,14,0,1,,,,,,,,,,,,,,,,,,,,,,,,,,,,,,,,,,,,,,,
,,,,,,,,2023-08-16_08h47.03.565,HF_wild_card,2022.2.4,Win32,59.65519298,5af4579eb625f70001e0cfad,64d2fd46c836a06233681665,64dc7e9cb1882173e1f02f9b,,,,,,,ctch,resources/DY.BMP,resources/DB.BMP,Door3,-0.35583334,0.035000006,1,0,0,0.9223,optionLeft,70,885,1,15,0,15,0,1,,,,,,,,,,,,,,,,,,,,,,,,,,,,,,,,,,,,,,,
,,,,,,,,2023-08-16_08h47.03.565,HF_wild_card,2022.2.4,Win32,59.65519298,5af4579eb625f70001e0cfad,64d2fd46c836a06233681665,64dc7e9cb1882173e1f02f9b,,,,,,,sngl,resources/DR.BMP,resources/Empty.png,WildCard_Ex,-0.317499987,0.024166648,1,0,0,0.8738,optionLeft,5,890,1,16,0,16,0,1,,,,,,,,,,,,,,,,,,,,,,,,,,,,,,,,,,,,,,,
,,,,,,,,2023-08-16_08h47.03.565,HF_wild_card,2022.2.4,Win32,59.65519298,5af4579eb625f70001e0cfad,64d2fd46c836a06233681665,64dc7e9cb1882173e1f02f9b,,,,,,,decisionTrl,resources/DR.BMP,resources/DB.BMP,WildCard_Ex,-0.286666648,0.023333327,1,0,0,1.1209,optionLeft,95,985,1,17,0,17,0,1,,,,,,,,,,,,,,,,,,,,,,,,,,,,,,,,,,,,,,,
,,,,,,,,2023-08-16_08h47.03.565,HF_wild_card,2022.2.4,Win32,59.65519298,5af4579eb625f70001e0cfad,64d2fd46c836a06233681665,64dc7e9cb1882173e1f02f9b,,,,,,,sngl,resources/DR.BMP,resources/Empty.png,WildCard_Ex,-0.28166666,0.002499994,1,0,0,0.8067,optionLeft,95,1080,1,18,0,18,0,1,,,,,,,,,,,,,,,,,,,,,,,,,,,,,,,,,,,,,,,
,,,,,,,,2023-08-16_08h47.03.565,HF_wild_card,2022.2.4,Win32,59.65519298,5af4579eb625f70001e0cfad,64d2fd46c836a06233681665,64dc7e9cb1882173e1f02f9b,,,,,,,decisionTrl,resources/DBN.BMP,resources/DB.BMP,Door2,0.330000051,0.002499994,1,0,0,0.9973,optionRight,40,1120,1,19,0,19,0,1,,,,,,,,,,,,,,,,,,,,,,,,,,,,,,,,,,,,,,,
,,,,,,,,2023-08-16_08h47.03.565,HF_wild_card,2022.2.4,Win32,59.65519298,5af4579eb625f70001e0cfad,64d2fd46c836a06233681665,64dc7e9cb1882173e1f02f9b,,,,,,,sngl,resources/DG.BMP,resources/Empty.png,Door4,-0.279166667,0.013333321,1,0,0,0.8385,optionLeft,80,1200,1,20,0,20,0,1,,,,,,,,,,,,,,,,,,,,,,,,,,,,,,,,,,,,,,,
,,,,,,,,2023-08-16_08h47.03.565,HF_wild_card,2022.2.4,Win32,59.65519298,5af4579eb625f70001e0cfad,64d2fd46c836a06233681665,64dc7e9cb1882173e1f02f9b,,,,,,,decisionTrl,resources/DB.BMP,resources/DBN.BMP,Door2,-0.308333333,0.020833333,1,0,0,1.1883,optionLeft,40,1240,1,21,0,21,0,1,,,,,,,,,,,,,,,,,,,,,,,,,,,,,,,,,,,,,,,
,,,,,,,,2023-08-16_08h47.03.565,HF_wild_card,2022.2.4,Win32,59.65519298,5af4579eb625f70001e0cfad,64d2fd46c836a06233681665,64dc7e9cb1882173e1f02f9b,,,,,,,decisionTrl,resources/DBN.BMP,resources/DB.BMP,Door2,0.319166692,0.020833333,1,0,0,1.073,optionRight,40,1280,1,22,0,22,0,1,,,,,,,,,,,,,,,,,,,,,,,,,,,,,,,,,,,,,,,
,,,,,,,,2023-08-16_08h47.03.565,HF_wild_card,2022.2.4,Win32,59.65519298,5af4579eb625f70001e0cfad,64d2fd46c836a06233681665,64dc7e9cb1882173e1f02f9b,,,,,,,sngl,resources/DBN.BMP,resources/Empty.png,Door1,-0.288333321,0.021666654,1,0,0,1.198,optionLeft,30,1310,1,23,0,23,0,1,,,,,,,,,,,,,,,,,,,,,,,,,,,,,,,,,,,,,,,
,,,,,,,,2023-08-16_08h47.03.565,HF_wild_card,2022.2.4,Win32,59.65519298,5af4579eb625f70001e0cfad,64d2fd46c836a06233681665,64dc7e9cb1882173e1f02f9b,,,,,,,decisionTrl,resources/DY.BMP,resources/DG.BMP,Door3,-0.329999987,0.009166654,1,0,0,1.3473,optionLeft,70,1380,1,24,0,24,0,1,,,,,,,,,,,,,,,,,,,,,,,,,,,,,,,,,,,,,,,
,,,,,,,,2023-08-16_08h47.03.565,HF_wild_card,2022.2.4,Win32,59.65519298,5af4579eb625f70001e0cfad,64d2fd46c836a06233681665,64dc7e9cb1882173e1f02f9b,,,,,,,decisionTrl,resources/DR.BMP,resources/DG.BMP,WildCard_Ex,-0.298333327,0.036666648,1,0,0,0.9798,optionLeft,95,1475,1,25,0,25,0,1,,,,,,,,,,,,,,,,,,,,,,,,,,,,,,,,,,,,,,,
,,,,,,,,2023-08-16_08h47.03.565,HF_wild_card,2022.2.4,Win32,59.65519298,5af4579eb625f70001e0cfad,64d2fd46c836a06233681665,64dc7e9cb1882173e1f02f9b,,,,,,,decisionTrl,resources/DG.BMP,resources/DR.BMP,WildCard_Ex,0.37833341,0.025,1,0,0,1.1487,optionRight,5,1480,1,26,0,26,0,1,,,,,,,,,,,,,,,,,,,,,,,,,,,,,,,,,,,,,,,
,,,,,,,,2023-08-16_08h47.03.565,HF_wild_card,2022.2.4,Win32,59.65519298,5af4579eb625f70001e0cfad,64d2fd46c836a06233681665,64dc7e9cb1882173e1f02f9b,,,,,,,decisionTrl,resources/DG.BMP,resources/DY.BMP,Door3,0.386666743,0.008333333,1,0,0,1.0315,optionRight,70,1550,1,27,0,27,0,1,,,,,,,,,,,,,,,,,,,,,,,,,,,,,,,,,,,,,,,
,,,,,,,,2023-08-16_08h47.03.565,HF_wild_card,2022.2.4,Win32,59.65519298,5af4579eb625f70001e0cfad,64d2fd46c836a06233681665,64dc7e9cb1882173e1f02f9b,,,,,,,decisionTrl,resources/DB.BMP,resources/DBN.BMP,Door2,-0.282499981,-0.022500006,1,0,0,1.087,optionLeft,40,1590,1,28,0,28,0,1,,,,,,,,,,,,,,,,,,,,,,,,,,,,,,,,,,,,,,,
,,,,,,,,2023-08-16_08h47.03.565,HF_wild_card,2022.2.4,Win32,59.65519298,5af4579eb625f70001e0cfad,64d2fd46c836a06233681665,64dc7e9cb1882173e1f02f9b,,,,,,,decisionTrl,resources/DY.BMP,resources/DR.BMP,Door3,-0.175833321,0.014166673,1,0,0,1.0809,optionLeft,70,1660,1,29,0,29,0,1,,,,,,,,,,,,,,,,,,,,,,,,,,,,,,,,,,,,,,,
,,,,,,,,2023-08-16_08h47.03.565,HF_wild_card,2022.2.4,Win32,59.65519298,5af4579eb625f70001e0cfad,64d2fd46c836a06233681665,64dc7e9cb1882173e1f02f9b,,,,,,,decisionTrl,resources/DB.BMP,resources/DBN.BMP,Door2,-0.1875,-0.010000006,1,0,0,0.9809,optionLeft,40,1700,1,30,0,30,0,1,,,,,,,,,,,,,,,,,,,,,,,,,,,,,,,,,,,,,,,
,,,,,,,,2023-08-16_08h47.03.565,HF_wild_card,2022.2.4,Win32,59.65519298,5af4579eb625f70001e0cfad,64d2fd46c836a06233681665,64dc7e9cb1882173e1f02f9b,,,,,,,sngl,resources/Empty.png,resources/DY.BMP,Door3,0.338333384,0.04333334,1,0,0,0.8442,optionRight,70,1770,1,31,0,31,0,1,,,,,,,,,,,,,,,,,,,,,,,,,,,,,,,,,,,,,,,
,,,,,,,,2023-08-16_08h47.03.565,HF_wild_card,2022.2.4,Win32,59.65519298,5af4579eb625f70001e0cfad,64d2fd46c836a06233681665,64dc7e9cb1882173e1f02f9b,,,,,,,decisionTrl,resources/DB.BMP,resources/DR.BMP,WildCard_Ex,0.240000025,-0.049166679,1,0,0,1.0821,optionRight,5,1775,1,32,0,32,0,1,,,,,,,,,,,,,,,,,,,,,,,,,,,,,,,,,,,,,,,
,,,,,,,,2023-08-16_08h47.03.565,HF_wild_card,2022.2.4,Win32,59.65519298,5af4579eb625f70001e0cfad,64d2fd46c836a06233681665,64dc7e9cb1882173e1f02f9b,,,,,,,decisionTrl,resources/DBN.BMP,resources/DR.BMP,WildCard_Ex,0.316666667,0.025833321,1,0,0,0.9044,optionRight,5,1780,1,33,0,33,0,1,,,,,,,,,,,,,,,,,,,,,,,,,,,,,,,,,,,,,,,
,,,,,,,,2023-08-16_08h47.03.565,HF_wild_card,2022.2.4,Win32,59.65519298,5af4579eb625f70001e0cfad,64d2fd46c836a06233681665,64dc7e9cb1882173e1f02f9b,,,,,,,decisionTrl,resources/DB.BMP,resources/DBN.BMP,Door2,-0.252499962,0,1,0,0,0.8985,optionLeft,40,1820,1,34,0,34,0,1,,,,,,,,,,,,,,,,,,,,,,,,,,,,,,,,,,,,,,,
,,,,,,,,2023-08-16_08h47.03.565,HF_wild_card,2022.2.4,Win32,59.65519298,5af4579eb625f70001e0cfad,64d2fd46c836a06233681665,64dc7e9cb1882173e1f02f9b,,,,,,,sngl,resources/Empty.png,resources/DR.BMP,WildCard_Ex,0.345833333,0.049166648,1,0,0,0.8646,optionRight,5,1825,1,35,0,35,0,1,,,,,,,,,,,,,,,,,,,,,,,,,,,,,,,,,,,,,,,
,,,,,,,,2023-08-16_08h47.03.565,HF_wild_card,2022.2.4,Win32,59.65519298,5af4579eb625f70001e0cfad,64d2fd46c836a06233681665,64dc7e9cb1882173e1f02f9b,,,,,,,ctch,resources/DBN.BMP,resources/DG.BMP,Door4,0.241666667,-0.002499994,1,0,0,1.0317,optionRight,60,1885,1,36,0,36,0,1,,,,,,,,,,,,,,,,,,,,,,,,,,,,,,,,,,,,,,,
,,,,,,,,2023-08-16_08h47.03.565,HF_wild_card,2022.2.4,Win32,59.65519298,5af4579eb625f70001e0cfad,64d2fd46c836a06233681665,64dc7e9cb1882173e1f02f9b,,,,,,,sngl,resources/DY.BMP,resources/Empty.png,Door3,-0.33083334,-0.008333333,1,0,0,1.0954,optionLeft,70,1955,1,37,0,37,0,1,,,,,,,,,,,,,,,,,,,,,,,,,,,,,,,,,,,,,,,
,,,,,,,,2023-08-16_08h47.03.565,HF_wild_card,2022.2.4,Win32,59.65519298,5af4579eb625f70001e0cfad,64d2fd46c836a06233681665,64dc7e9cb1882173e1f02f9b,,,,,,,ctch,resources/DB.BMP,resources/DY.BMP,Door3,0.334999975,0.014166673,1,0,0,0.9134,optionRight,70,2025,1,38,0,38,0,1,,,,,,,,,,,,,,,,,,,,,,,,,,,,,,,,,,,,,,,
,,,,,,,,2023-08-16_08h47.03.565,HF_wild_card,2022.2.4,Win32,59.65519298,5af4579eb625f70001e0cfad,64d2fd46c836a06233681665,64dc7e9cb1882173e1f02f9b,,,,,,,decisionTrl,resources/DG.BMP,resources/DY.BMP,Door3,0.226666705,0.0125,1,0,0,1.0486,optionRight,70,2095,1,39,0,39,0,1,,,,,,,,,,,,,,,,,,,,,,,,,,,,,,,,,,,,,,,
,,,,,,,,2023-08-16_08h47.03.565,HF_wild_card,2022.2.4,Win32,59.65519298,5af4579eb625f70001e0cfad,64d2fd46c836a06233681665,64dc7e9cb1882173e1f02f9b,,,,,,,ctch,resources/DB.BMP,resources/DY.BMP,Door3,0.247500038,0.029166667,1,0,0,0.8983,optionRight,70,2165,1,40,0,40,0,1,,,,,,,,,,,,,,,,,,,,,,,,,,,,,,,,,,,,,,,
,,,,,,,,2023-08-16_08h47.03.565,HF_wild_card,2022.2.4,Win32,59.65519298,5af4579eb625f70001e0cfad,64d2fd46c836a06233681665,64dc7e9cb1882173e1f02f9b,,,,,,,ctch,resources/DG.BMP,resources/DBN.BMP,Door4,-0.231666629,-0.005000019,1,0,0,1.2048,optionLeft,60,2225,1,41,0,41,0,1,,,,,,,,,,,,,,,,,,,,,,,,,,,,,,,,,,,,,,,
,,,,,,,,2023-08-16_08h47.03.565,HF_wild_card,2022.2.4,Win32,59.65519298,5af4579eb625f70001e0cfad,64d2fd46c836a06233681665,64dc7e9cb1882173e1f02f9b,,,,,,,sngl,resources/DB.BMP,resources/Empty.png,Door2,-0.231666629,-0.027499994,1,0,0,0.9733,optionLeft,40,2265,1,42,0,42,0,1,,,,,,,,,,,,,,,,,,,,,,,,,,,,,,,,,,,,,,,
,,,,,,,,2023-08-16_08h47.03.565,HF_wild_card,2022.2.4,Win32,59.65519298,5af4579eb625f70001e0cfad,64d2fd46c836a06233681665,64dc7e9cb1882173e1f02f9b,,,,,,,sngl,resources/Empty.png,resources/DB.BMP,Door2,0.286666743,0.010000006,1,0,0,0.8709,optionRight,20,2285,1,43,0,43,0,1,,,,,,,,,,,,,,,,,,,,,,,,,,,,,,,,,,,,,,,
,,,,,,,,2023-08-16_08h47.03.565,HF_wild_card,2022.2.4,Win32,59.65519298,5af4579eb625f70001e0cfad,64d2fd46c836a06233681665,64dc7e9cb1882173e1f02f9b,,,,,,,,,,,,,,,,,,,,,,,,,,0,0,0,0,1,,,,,,,,,,,,,,,,,,,,,,,,,,,,,,,,,,
,,,,,,,,2023-08-16_08h47.03.565,HF_wild_card,2022.2.4,Win32,59.65519298,5af4579eb625f70001e0cfad,64d2fd46c836a06233681665,64dc7e9cb1882173e1f02f9b,,,,,,,ctch,resources/DY.BMP,resources/DB.BMP,Door3,-0.335000006,-0.057500013,1,0,0,0.9032,optionLeft,70,2355,2,0,0,0,0,1,,,,,,,,,,,,,,,,,,,,,,,,,,,,,,,,,,,,,,,
,,,,,,,,2023-08-16_08h47.03.565,HF_wild_card,2022.2.4,Win32,59.65519298,5af4579eb625f70001e0cfad,64d2fd46c836a06233681665,64dc7e9cb1882173e1f02f9b,,,,,,,sngl,resources/DBN.BMP,resources/Empty.png,Door1,-0.2625,0.049166648,1,0,0,0.864,optionLeft,30,2385,2,1,0,1,0,1,,,,,,,,,,,,,,,,,,,,,,,,,,,,,,,,,,,,,,,
,,,,,,,,2023-08-16_08h47.03.565,HF_wild_card,2022.2.4,Win32,59.65519298,5af4579eb625f70001e0cfad,64d2fd46c836a06233681665,64dc7e9cb1882173e1f02f9b,,,,,,,decisionTrl,resources/DY.BMP,resources/DR.BMP,Door3,-0.006666629,0.00666666,1,0,0,0.4389,optionLeft,70,2455,2,2,0,2,0,1,,,,,,,,,,,,,,,,,,,,,,,,,,,,,,,,,,,,,,,
,,,,,,,,2023-08-16_08h47.03.565,HF_wild_card,2022.2.4,Win32,59.65519298,5af4579eb625f70001e0cfad,64d2fd46c836a06233681665,64dc7e9cb1882173e1f02f9b,,,,,,,decisionTrl,resources/DB.BMP,resources/DBN.BMP,Door2,0.003333346,0.003333314,1,0,0,0.5404,optionLeft,20,2475,2,3,0,3,0,1,,,,,,,,,,,,,,,,,,,,,,,,,,,,,,,,,,,,,,,
,,,,,,,,2023-08-16_08h47.03.565,HF_wild_card,2022.2.4,Win32,59.65519298,5af4579eb625f70001e0cfad,64d2fd46c836a06233681665,64dc7e9cb1882173e1f02f9b,,,,,,,sngl,resources/DR.BMP,resources/Empty.png,WildCard_Ex,-0.121666654,0.020833333,1,0,0,0.8067,optionLeft,5,2480,2,4,0,4,0,1,,,,,,,,,,,,,,,,,,,,,,,,,,,,,,,,,,,,,,,
,,,,,,,,2023-08-16_08h47.03.565,HF_wild_card,2022.2.4,Win32,59.65519298,5af4579eb625f70001e0cfad,64d2fd46c836a06233681665,64dc7e9cb1882173e1f02f9b,,,,,,,sngl,resources/Empty.png,resources/DG.BMP,Door4,0.281666692,0.032499981,1,0,0,1.0467,optionRight,80,2560,2,5,0,5,0,1,,,,,,,,,,,,,,,,,,,,,,,,,,,,,,,,,,,,,,,
,,,,,,,,2023-08-16_08h47.03.565,HF_wild_card,2022.2.4,Win32,59.65519298,5af4579eb625f70001e0cfad,64d2fd46c836a06233681665,64dc7e9cb1882173e1f02f9b,,,,,,,decisionTrl,resources/DR.BMP,resources/DY.BMP,Door3,0.227500025,-0.002499994,1,0,0,1.5153,optionRight,70,2630,2,6,0,6,0,1,,,,,,,,,,,,,,,,,,,,,,,,,,,,,,,,,,,,,,,
,,,,,,,,2023-08-16_08h47.03.565,HF_wild_card,2022.2.4,Win32,59.65519298,5af4579eb625f70001e0cfad,64d2fd46c836a06233681665,64dc7e9cb1882173e1f02f9b,,,,,,,decisionTrl,resources/DBN.BMP,resources/DB.BMP,Door2,0.210000038,0.011666648,1,0,0,0.9811,optionRight,40,2670,2,7,0,7,0,1,,,,,,,,,,,,,,,,,,,,,,,,,,,,,,,,,,,,,,,
,,,,,,,,2023-08-16_08h47.03.565,HF_wild_card,2022.2.4,Win32,59.65519298,5af4579eb625f70001e0cfad,64d2fd46c836a06233681665,64dc7e9cb1882173e1f02f9b,,,,,,,decisionTrl,resources/DG.BMP,resources/DY.BMP,Door3,0.242499987,-0.000833352,1,0,0,0.9055,optionRight,70,2740,2,8,0,8,0,1,,,,,,,,,,,,,,,,,,,,,,,,,,,,,,,,,,,,,,,
,,,,,,,,2023-08-16_08h47.03.565,HF_wild_card,2022.2.4,Win32,59.65519298,5af4579eb625f70001e0cfad,64d2fd46c836a06233681665,64dc7e9cb1882173e1f02f9b,,,,,,,sngl,resources/Empty.png,resources/DBN.BMP,Door1,0.194166692,-0.005000019,1,0,0,1.0358,optionRight,30,2770,2,9,0,9,0,1,,,,,,,,,,,,,,,,,,,,,,,,,,,,,,,,,,,,,,,
,,,,,,,,2023-08-16_08h47.03.565,HF_wild_card,2022.2.4,Win32,59.65519298,5af4579eb625f70001e0cfad,64d2fd46c836a06233681665,64dc7e9cb1882173e1f02f9b,,,,,,,ctch,resources/DBN.BMP,resources/DG.BMP,Door4,0.159166654,-0.00666666,1,0,0,0.9984,optionRight,80,2850,2,10,0,10,0,1,,,,,,,,,,,,,,,,,,,,,,,,,,,,,,,,,,,,,,,
,,,,,,,,2023-08-16_08h47.03.565,HF_wild_card,2022.2.4,Win32,59.65519298,5af4579eb625f70001e0cfad,64d2fd46c836a06233681665,64dc7e9cb1882173e1f02f9b,,,,,,,ctch,resources/DG.BMP,resources/DBN.BMP,Door4,-0.249166679,-0.00666666,1,0,0,0.8552,optionLeft,60,2910,2,11,0,11,0,1,,,,,,,,,,,,,,,,,,,,,,,,,,,,,,,,,,,,,,,
,,,,,,,,2023-08-16_08h47.03.565,HF_wild_card,2022.2.4,Win32,59.65519298,5af4579eb625f70001e0cfad,64d2fd46c836a06233681665,64dc7e9cb1882173e1f02f9b,,,,,,,ctch,resources/DB.BMP,resources/DY.BMP,Door3,0.222500038,0.001666673,1,0,0,0.9306,optionRight,70,2980,2,12,0,12,0,1,,,,,,,,,,,,,,,,,,,,,,,,,,,,,,,,,,,,,,,
,,,,,,,,2023-08-16_08h47.03.565,HF_wild_card,2022.2.4,Win32,59.65519298,5af4579eb625f70001e0cfad,64d2fd46c836a06233681665,64dc7e9cb1882173e1f02f9b,,,,,,,decisionTrl,resources/DBN.BMP,resources/DB.BMP,Door2,0.381666692,-0.014166673,1,0,0,1.0644,optionRight,40,3020,2,13,0,13,0,1,,,,,,,,,,,,,,,,,,,,,,,,,,,,,,,,,,,,,,,
,,,,,,,,2023-08-16_08h47.03.565,HF_wild_card,2022.2.4,Win32,59.65519298,5af4579eb625f70001e0cfad,64d2fd46c836a06233681665,64dc7e9cb1882173e1f02f9b,,,,,,,sngl,resources/DY.BMP,resources/Empty.png,Door3,-0.283333333,0.029166667,1,0,0,0.7398,optionLeft,70,3090,2,14,0,14,0,1,,,,,,,,,,,,,,,,,,,,,,,,,,,,,,,,,,,,,,,
,,,,,,,,2023-08-16_08h47.03.565,HF_wild_card,2022.2.4,Win32,59.65519298,5af4579eb625f70001e0cfad,64d2fd46c836a06233681665,64dc7e9cb1882173e1f02f9b,,,,,,,decisionTrl,resources/DG.BMP,resources/DY.BMP,Door3,0.223333359,0.025833321,1,0,0,0.7916,optionRight,70,3160,2,15,0,15,0,1,,,,,,,,,,,,,,,,,,,,,,,,,,,,,,,,,,,,,,,
,,,,,,,,2023-08-16_08h47.03.565,HF_wild_card,2022.2.4,Win32,59.65519298,5af4579eb625f70001e0cfad,64d2fd46c836a06233681665,64dc7e9cb1882173e1f02f9b,,,,,,,decisionTrl,resources/DY.BMP,resources/DG.BMP,Door3,-0.218333308,0.022500006,1,0,0,0.7237,optionLeft,70,3230,2,16,0,16,0,1,,,,,,,,,,,,,,,,,,,,,,,,,,,,,,,,,,,,,,,
,,,,,,,,2023-08-16_08h47.03.565,HF_wild_card,2022.2.4,Win32,59.65519298,5af4579eb625f70001e0cfad,64d2fd46c836a06233681665,64dc7e9cb1882173e1f02f9b,,,,,,,sngl,resources/Empty.png,resources/DY.BMP,Door3,0.150833321,0.004166667,1,0,0,0.7885,optionRight,70,3300,2,17,0,17,0,1,,,,,,,,,,,,,,,,,,,,,,,,,,,,,,,,,,,,,,,
,,,,,,,,2023-08-16_08h47.03.565,HF_wild_card,2022.2.4,Win32,59.65519298,5af4579eb625f70001e0cfad,64d2fd46c836a06233681665,64dc7e9cb1882173e1f02f9b,,,,,,,decisionTrl,resources/DY.BMP,resources/DG.BMP,Door3,-0.180833308,0.019999981,1,0,0,0.7807,optionLeft,70,3370,2,18,0,18,0,1,,,,,,,,,,,,,,,,,,,,,,,,,,,,,,,,,,,,,,,
,,,,,,,,2023-08-16_08h47.03.565,HF_wild_card,2022.2.4,Win32,59.65519298,5af4579eb625f70001e0cfad,64d2fd46c836a06233681665,64dc7e9cb1882173e1f02f9b,,,,,,,decisionTrl,resources/DR.BMP,resources/DBN.BMP,WildCard_Ex,-0.261666679,0.035000006,1,0,0,0.9483,optionLeft,5,3375,2,19,0,19,0,1,,,,,,,,,,,,,,,,,,,,,,,,,,,,,,,,,,,,,,,
,,,,,,,,2023-08-16_08h47.03.565,HF_wild_card,2022.2.4,Win32,59.65519298,5af4579eb625f70001e0cfad,64d2fd46c836a06233681665,64dc7e9cb1882173e1f02f9b,,,,,,,ctch,resources/DY.BMP,resources/DB.BMP,Door3,-0.170000013,0.05,1,0,0,0.7812,optionLeft,70,3445,2,20,0,20,0,1,,,,,,,,,,,,,,,,,,,,,,,,,,,,,,,,,,,,,,,
,,,,,,,,2023-08-16_08h47.03.565,HF_wild_card,2022.2.4,Win32,59.65519298,5af4579eb625f70001e0cfad,64d2fd46c836a06233681665,64dc7e9cb1882173e1f02f9b,,,,,,,decisionTrl,resources/DY.BMP,resources/DG.BMP,Door3,-0.221666654,0.035000006,1,0,0,0.8644,optionLeft,70,3515,2,21,0,21,0,1,,,,,,,,,,,,,,,,,,,,,,,,,,,,,,,,,,,,,,,
,,,,,,,,2023-08-16_08h47.03.565,HF_wild_card,2022.2.4,Win32,59.65519298,5af4579eb625f70001e0cfad,64d2fd46c836a06233681665,64dc7e9cb1882173e1f02f9b,,,,,,,decisionTrl,resources/DBN.BMP,resources/DR.BMP,WildCard_Ex,0.185000038,0,1,0,0,0.7813,optionRight,5,3520,2,22,0,22,0,1,,,,,,,,,,,,,,,,,,,,,,,,,,,,,,,,,,,,,,,
,,,,,,,,2023-08-16_08h47.03.565,HF_wild_card,2022.2.4,Win32,59.65519298,5af4579eb625f70001e0cfad,64d2fd46c836a06233681665,64dc7e9cb1882173e1f02f9b,,,,,,,decisionTrl,resources/DR.BMP,resources/DB.BMP,WildCard_Ex,-0.239166641,0.035000006,1,0,0,0.7069,optionLeft,95,3615,2,23,0,23,0,1,,,,,,,,,,,,,,,,,,,,,,,,,,,,,,,,,,,,,,,
,,,,,,,,2023-08-16_08h47.03.565,HF_wild_card,2022.2.4,Win32,59.65519298,5af4579eb625f70001e0cfad,64d2fd46c836a06233681665,64dc7e9cb1882173e1f02f9b,,,,,,,sngl,resources/DB.BMP,resources/Empty.png,Door2,-0.194166629,0.025833321,1,0,0,0.7681,optionLeft,20,3635,2,24,0,24,0,1,,,,,,,,,,,,,,,,,,,,,,,,,,,,,,,,,,,,,,,
,,,,,,,,2023-08-16_08h47.03.565,HF_wild_card,2022.2.4,Win32,59.65519298,5af4579eb625f70001e0cfad,64d2fd46c836a06233681665,64dc7e9cb1882173e1f02f9b,,,,,,,decisionTrl,resources/DBN.BMP,resources/DB.BMP,Door2,0.196666654,-0.021666686,1,0,0,0.7407,optionRight,20,3655,2,25,0,25,0,1,,,,,,,,,,,,,,,,,,,,,,,,,,,,,,,,,,,,,,,
,,,,,,,,2023-08-16_08h47.03.565,HF_wild_card,2022.2.4,Win32,59.65519298,5af4579eb625f70001e0cfad,64d2fd46c836a06233681665,64dc7e9cb1882173e1f02f9b,,,,,,,decisionTrl,resources/DR.BMP,resources/DG.BMP,WildCard_Ex,-0.25,0.023333327,1,0,0,0.7808,optionLeft,95,3750,2,26,0,26,0,1,,,,,,,,,,,,,,,,,,,,,,,,,,,,,,,,,,,,,,,
,,,,,,,,2023-08-16_08h47.03.565,HF_wild_card,2022.2.4,Win32,59.65519298,5af4579eb625f70001e0cfad,64d2fd46c836a06233681665,64dc7e9cb1882173e1f02f9b,,,,,,,decisionTrl,resources/DY.BMP,resources/DG.BMP,Door3,-0.185833295,0.013333321,1,0,0,0.7214,optionLeft,70,3820,2,27,0,27,0,1,,,,,,,,,,,,,,,,,,,,,,,,,,,,,,,,,,,,,,,
,,,,,,,,2023-08-16_08h47.03.565,HF_wild_card,2022.2.4,Win32,59.65519298,5af4579eb625f70001e0cfad,64d2fd46c836a06233681665,64dc7e9cb1882173e1f02f9b,,,,,,,decisionTrl,resources/DG.BMP,resources/DY.BMP,Door3,0.173333359,-0.020000013,1,0,0,0.7809,optionRight,70,3890,2,28,0,28,0,1,,,,,,,,,,,,,,,,,,,,,,,,,,,,,,,,,,,,,,,
,,,,,,,,2023-08-16_08h47.03.565,HF_wild_card,2022.2.4,Win32,59.65519298,5af4579eb625f70001e0cfad,64d2fd46c836a06233681665,64dc7e9cb1882173e1f02f9b,,,,,,,ctch,resources/DG.BMP,resources/DBN.BMP,Door4,-0.234166654,0.010000006,1,0,0,0.7569,optionLeft,60,3950,2,29,0,29,0,1,,,,,,,,,,,,,,,,,,,,,,,,,,,,,,,,,,,,,,,
,,,,,,,,2023-08-16_08h47.03.565,HF_wild_card,2022.2.4,Win32,59.65519298,5af4579eb625f70001e0cfad,64d2fd46c836a06233681665,64dc7e9cb1882173e1f02f9b,,,,,,,sngl,resources/DR.BMP,resources/Empty.png,WildCard_Ex,-0.189166641,0.034166654,1,0,0,0.7309,optionLeft,95,4045,2,30,0,30,0,1,,,,,,,,,,,,,,,,,,,,,,,,,,,,,,,,,,,,,,,
,,,,,,,,2023-08-16_08h47.03.565,HF_wild_card,2022.2.4,Win32,59.65519298,5af4579eb625f70001e0cfad,64d2fd46c836a06233681665,64dc7e9cb1882173e1f02f9b,,,,,,,decisionTrl,resources/DBN.BMP,resources/DB.BMP,Door2,0.231666692,0.021666654,1,0,0,0.8488,optionRight,20,4065,2,31,0,31,0,1,,,,,,,,,,,,,,,,,,,,,,,,,,,,,,,,,,,,,,,
,,,,,,,,2023-08-16_08h47.03.565,HF_wild_card,2022.2.4,Win32,59.65519298,5af4579eb625f70001e0cfad,64d2fd46c836a06233681665,64dc7e9cb1882173e1f02f9b,,,,,,,sngl,resources/Empty.png,resources/DR.BMP,WildCard_Ex,0.185000038,0.013333321,1,0,0,0.8705,optionRight,5,4070,2,32,0,32,0,1,,,,,,,,,,,,,,,,,,,,,,,,,,,,,,,,,,,,,,,
,,,,,,,,2023-08-16_08h47.03.565,HF_wild_card,2022.2.4,Win32,59.65519298,5af4579eb625f70001e0cfad,64d2fd46c836a06233681665,64dc7e9cb1882173e1f02f9b,,,,,,,sngl,resources/Empty.png,resources/DB.BMP,Door2,0.183333333,0.025833321,1,0,0,0.8562,optionRight,40,4110,2,33,0,33,0,1,,,,,,,,,,,,,,,,,,,,,,,,,,,,,,,,,,,,,,,
,,,,,,,,2023-08-16_08h47.03.565,HF_wild_card,2022.2.4,Win32,59.65519298,5af4579eb625f70001e0cfad,64d2fd46c836a06233681665,64dc7e9cb1882173e1f02f9b,,,,,,,decisionTrl,resources/DB.BMP,resources/DR.BMP,WildCard_Ex,0.196666654,-0.027499994,1,0,0,0.8753,optionRight,5,4115,2,34,0,34,0,1,,,,,,,,,,,,,,,,,,,,,,,,,,,,,,,,,,,,,,,
,,,,,,,,2023-08-16_08h47.03.565,HF_wild_card,2022.2.4,Win32,59.65519298,5af4579eb625f70001e0cfad,64d2fd46c836a06233681665,64dc7e9cb1882173e1f02f9b,,,,,,,decisionTrl,resources/DB.BMP,resources/DBN.BMP,Door2,-0.233333333,0.016666667,1,0,0,1.0975,optionLeft,40,4155,2,35,0,35,0,1,,,,,,,,,,,,,,,,,,,,,,,,,,,,,,,,,,,,,,,
,,,,,,,,2023-08-16_08h47.03.565,HF_wild_card,2022.2.4,Win32,59.65519298,5af4579eb625f70001e0cfad,64d2fd46c836a06233681665,64dc7e9cb1882173e1f02f9b,,,,,,,decisionTrl,resources/DB.BMP,resources/DBN.BMP,Door2,-0.15,0.010833327,1,0,0,0.8991,optionLeft,20,4175,2,36,0,36,0,1,,,,,,,,,,,,,,,,,,,,,,,,,,,,,,,,,,,,,,,
,,,,,,,,2023-08-16_08h47.03.565,HF_wild_card,2022.2.4,Win32,59.65519298,5af4579eb625f70001e0cfad,64d2fd46c836a06233681665,64dc7e9cb1882173e1f02f9b,,,,,,,ctch,resources/DBN.BMP,resources/DG.BMP,Door4,0.231666692,0.029999987,1,0,0,0.997,optionRight,60,4235,2,37,0,37,0,1,,,,,,,,,,,,,,,,,,,,,,,,,,,,,,,,,,,,,,,
,,,,,,,,2023-08-16_08h47.03.565,HF_wild_card,2022.2.4,Win32,59.65519298,5af4579eb625f70001e0cfad,64d2fd46c836a06233681665,64dc7e9cb1882173e1f02f9b,,,,,,,sngl,resources/Empty.png,resources/DR.BMP,WildCard_Ex,0.173333359,0.026666673,1,0,0,0.8647,optionRight,95,4330,2,38,0,38,0,1,,,,,,,,,,,,,,,,,,,,,,,,,,,,,,,,,,,,,,,
,,,,,,,,2023-08-16_08h47.03.565,HF_wild_card,2022.2.4,Win32,59.65519298,5af4579eb625f70001e0cfad,64d2fd46c836a06233681665,64dc7e9cb1882173e1f02f9b,,,,,,,sngl,resources/DG.BMP,resources/Empty.png,Door4,-0.252499962,0.00666666,1,0,0,0.7477,optionLeft,60,4390,2,39,0,39,0,1,,,,,,,,,,,,,,,,,,,,,,,,,,,,,,,,,,,,,,,
,,,,,,,,2023-08-16_08h47.03.565,HF_wild_card,2022.2.4,Win32,59.65519298,5af4579eb625f70001e0cfad,64d2fd46c836a06233681665,64dc7e9cb1882173e1f02f9b,,,,,,,decisionTrl,resources/DG.BMP,resources/DY.BMP,Door3,0.277500025,0.034166654,1,0,0,0.8641,optionRight,70,4460,2,40,0,40,0,1,,,,,,,,,,,,,,,,,,,,,,,,,,,,,,,,,,,,,,,
,,,,,,,,2023-08-16_08h47.03.565,HF_wild_card,2022.2.4,Win32,59.65519298,5af4579eb625f70001e0cfad,64d2fd46c836a06233681665,64dc7e9cb1882173e1f02f9b,,,,,,,decisionTrl,resources/DG.BMP,resources/DR.BMP,WildCard_Ex,0.183333333,-0.004166667,1,0,0,0.9484,optionRight,95,4555,2,41,0,41,0,1,,,,,,,,,,,,,,,,,,,,,,,,,,,,,,,,,,,,,,,
,,,,,,,,2023-08-16_08h47.03.565,HF_wild_card,2022.2.4,Win32,59.65519298,5af4579eb625f70001e0cfad,64d2fd46c836a06233681665,64dc7e9cb1882173e1f02f9b,,,,,,,ctch,resources/DB.BMP,resources/DY.BMP,Door3,0.191666667,-0.032500013,1,0,0,0.9146,optionRight,70,4625,2,42,0,42,0,1,,,,,,,,,,,,,,,,,,,,,,,,,,,,,,,,,,,,,,,
,,,,,,,,2023-08-16_08h47.03.565,HF_wild_card,2022.2.4,Win32,59.65519298,5af4579eb625f70001e0cfad,64d2fd46c836a06233681665,64dc7e9cb1882173e1f02f9b,,,,,,,decisionTrl,resources/DB.BMP,resources/DBN.BMP,Door2,-0.191666667,0.004999987,1,0,0,0.9533,optionLeft,20,4645,2,43,0,43,0,1,,,,,,,,,,,,,,,,,,,,,,,,,,,,,,,,,,,,,,,
,,,,,,,,2023-08-16_08h47.03.565,HF_wild_card,2022.2.4,Win32,59.65519298,5af4579eb625f70001e0cfad,64d2fd46c836a06233681665,64dc7e9cb1882173e1f02f9b,,,,,,,,,,,,,,,,,,,,,,,,,,1,0,1,0,1,,,,,,,,,,,,,,,,,,,,,,,,,,,,,,,,,,
,,,,,,,,2023-08-16_08h47.03.565,HF_wild_card,2022.2.4,Win32,59.65519298,5af4579eb625f70001e0cfad,64d2fd46c836a06233681665,64dc7e9cb1882173e1f02f9b,,,,,,,decisionTrl,resources/DB.BMP,resources/DBN.BMP,Door2,-0.228333346,-0.149166679,1,0,0,0.9221,optionLeft,40,4685,3,0,0,0,0,1,,,,,,,,,,,,,,,,,,,,,,,,,,,,,,,,,,,,,,,
,,,,,,,,2023-08-16_08h47.03.565,HF_wild_card,2022.2.4,Win32,59.65519298,5af4579eb625f70001e0cfad,64d2fd46c836a06233681665,64dc7e9cb1882173e1f02f9b,,,,,,,decisionTrl,resources/DBN.BMP,resources/DB.BMP,Door2,0.267500051,-0.042499987,1,0,0,0.83,optionRight,20,4705,3,1,0,1,0,1,,,,,,,,,,,,,,,,,,,,,,,,,,,,,,,,,,,,,,,
,,,,,,,,2023-08-16_08h47.03.565,HF_wild_card,2022.2.4,Win32,59.65519298,5af4579eb625f70001e0cfad,64d2fd46c836a06233681665,64dc7e9cb1882173e1f02f9b,,,,,,,decisionTrl,resources/DBN.BMP,resources/DB.BMP,Door2,0.149166679,0.014999994,1,0,0,0.7309,optionRight,20,4725,3,2,0,2,0,1,,,,,,,,,,,,,,,,,,,,,,,,,,,,,,,,,,,,,,,
,,,,,,,,2023-08-16_08h47.03.565,HF_wild_card,2022.2.4,Win32,59.65519298,5af4579eb625f70001e0cfad,64d2fd46c836a06233681665,64dc7e9cb1882173e1f02f9b,,,,,,,sngl,resources/Empty.png,resources/DB.BMP,Door2,0.143333371,-0.001666673,1,0,0,0.7154,optionRight,20,4745,3,3,0,3,0,1,,,,,,,,,,,,,,,,,,,,,,,,,,,,,,,,,,,,,,,
,,,,,,,,2023-08-16_08h47.03.565,HF_wild_card,2022.2.4,Win32,59.65519298,5af4579eb625f70001e0cfad,64d2fd46c836a06233681665,64dc7e9cb1882173e1f02f9b,,,,,,,decisionTrl,resources/DR.BMP,resources/DG.BMP,WildCard_Ex,-0.294999981,0.025,1,0,0,0.8299,optionLeft,5,4750,3,4,0,4,0,1,,,,,,,,,,,,,,,,,,,,,,,,,,,,,,,,,,,,,,,
,,,,,,,,2023-08-16_08h47.03.565,HF_wild_card,2022.2.4,Win32,59.65519298,5af4579eb625f70001e0cfad,64d2fd46c836a06233681665,64dc7e9cb1882173e1f02f9b,,,,,,,decisionTrl,resources/DR.BMP,resources/DBN.BMP,WildCard_Ex,-0.222499975,0.052499994,1,0,0,0.6811,optionLeft,5,4755,3,5,0,5,0,1,,,,,,,,,,,,,,,,,,,,,,,,,,,,,,,,,,,,,,,
,,,,,,,,2023-08-16_08h47.03.565,HF_wild_card,2022.2.4,Win32,59.65519298,5af4579eb625f70001e0cfad,64d2fd46c836a06233681665,64dc7e9cb1882173e1f02f9b,,,,,,,sngl,resources/DBN.BMP,resources/Empty.png,Door1,-0.166666667,0.019999981,1,0,0,0.8128,optionLeft,30,4785,3,6,0,6,0,1,,,,,,,,,,,,,,,,,,,,,,,,,,,,,,,,,,,,,,,
,,,,,,,,2023-08-16_08h47.03.565,HF_wild_card,2022.2.4,Win32,59.65519298,5af4579eb625f70001e0cfad,64d2fd46c836a06233681665,64dc7e9cb1882173e1f02f9b,,,,,,,sngl,resources/Empty.png,resources/DBN.BMP,Door1,0.185000038,0.013333321,1,0,0,0.8144,optionRight,30,4815,3,7,0,7,0,1,,,,,,,,,,,,,,,,,,,,,,,,,,,,,,,,,,,,,,,
,,,,,,,,2023-08-16_08h47.03.565,HF_wild_card,2022.2.4,Win32,59.65519298,5af4579eb625f70001e0cfad,64d2fd46c836a06233681665,64dc7e9cb1882173e1f02f9b,,,,,,,sngl,resources/Empty.png,resources/DG.BMP,Door4,0.164166705,-0.005000019,1,0,0,0.8241,optionRight,60,4875,3,8,0,8,0,1,,,,,,,,,,,,,,,,,,,,,,,,,,,,,,,,,,,,,,,
,,,,,,,,2023-08-16_08h47.03.565,HF_wild_card,2022.2.4,Win32,59.65519298,5af4579eb625f70001e0cfad,64d2fd46c836a06233681665,64dc7e9cb1882173e1f02f9b,,,,,,,decisionTrl,resources/DR.BMP,resources/DY.BMP,Door3,0.215833346,0.000833321,1,0,0,1.3481,optionRight,70,4945,3,9,0,9,0,1,,,,,,,,,,,,,,,,,,,,,,,,,,,,,,,,,,,,,,,
,,,,,,,,2023-08-16_08h47.03.565,HF_wild_card,2022.2.4,Win32,59.65519298,5af4579eb625f70001e0cfad,64d2fd46c836a06233681665,64dc7e9cb1882173e1f02f9b,,,,,,,sngl,resources/DB.BMP,resources/Empty.png,Door2,-0.200833321,0.00583334,1,0,0,0.6974,optionLeft,40,4985,3,10,0,10,0,1,,,,,,,,,,,,,,,,,,,,,,,,,,,,,,,,,,,,,,,
,,,,,,,,2023-08-16_08h47.03.565,HF_wild_card,2022.2.4,Win32,59.65519298,5af4579eb625f70001e0cfad,64d2fd46c836a06233681665,64dc7e9cb1882173e1f02f9b,,,,,,,ctch,resources/DB.BMP,resources/DY.BMP,Door3,0.207500013,0,1,0,0,0.956,optionRight,70,5055,3,11,0,11,0,1,,,,,,,,,,,,,,,,,,,,,,,,,,,,,,,,,,,,,,,
,,,,,,,,2023-08-16_08h47.03.565,HF_wild_card,2022.2.4,Win32,59.65519298,5af4579eb625f70001e0cfad,64d2fd46c836a06233681665,64dc7e9cb1882173e1f02f9b,,,,,,,decisionTrl,resources/DB.BMP,resources/DBN.BMP,Door2,-0.194166629,0.020833333,1,0,0,0.9646,optionLeft,40,5095,3,12,0,12,0,1,,,,,,,,,,,,,,,,,,,,,,,,,,,,,,,,,,,,,,,
,,,,,,,,2023-08-16_08h47.03.565,HF_wild_card,2022.2.4,Win32,59.65519298,5af4579eb625f70001e0cfad,64d2fd46c836a06233681665,64dc7e9cb1882173e1f02f9b,,,,,,,ctch,resources/DY.BMP,resources/DB.BMP,Door3,-0.241666667,0.064999994,1,0,0,0.6821,optionLeft,70,5165,3,13,0,13,0,1,,,,,,,,,,,,,,,,,,,,,,,,,,,,,,,,,,,,,,,
,,,,,,,,2023-08-16_08h47.03.565,HF_wild_card,2022.2.4,Win32,59.65519298,5af4579eb625f70001e0cfad,64d2fd46c836a06233681665,64dc7e9cb1882173e1f02f9b,,,,,,,decisionTrl,resources/DY.BMP,resources/DR.BMP,Door3,-0.209166654,0.039166673,1,0,0,0.9132,optionLeft,70,5235,3,14,0,14,0,1,,,,,,,,,,,,,,,,,,,,,,,,,,,,,,,,,,,,,,,
,,,,,,,,2023-08-16_08h47.03.565,HF_wild_card,2022.2.4,Win32,59.65519298,5af4579eb625f70001e0cfad,64d2fd46c836a06233681665,64dc7e9cb1882173e1f02f9b,,,,,,,sngl,resources/DG.BMP,resources/Empty.png,Door4,-0.232500013,0.038333321,1,0,0,0.8484,optionLeft,80,5315,3,15,0,15,0,1,,,,,,,,,,,,,,,,,,,,,,,,,,,,,,,,,,,,,,,
,,,,,,,,2023-08-16_08h47.03.565,HF_wild_card,2022.2.4,Win32,59.65519298,5af4579eb625f70001e0cfad,64d2fd46c836a06233681665,64dc7e9cb1882173e1f02f9b,,,,,,,decisionTrl,resources/DG.BMP,resources/DY.BMP,Door3,0.231666692,0,1,0,0,0.9892,optionRight,70,5385,3,16,0,16,0,1,,,,,,,,,,,,,,,,,,,,,,,,,,,,,,,,,,,,,,,
,,,,,,,,2023-08-16_08h47.03.565,HF_wild_card,2022.2.4,Win32,59.65519298,5af4579eb625f70001e0cfad,64d2fd46c836a06233681665,64dc7e9cb1882173e1f02f9b,,,,,,,ctch,resources/DG.BMP,resources/DBN.BMP,Door4,-0.175833321,0.00583334,1,0,0,0.73,optionLeft,60,5445,3,17,0,17,0,1,,,,,,,,,,,,,,,,,,,,,,,,,,,,,,,,,,,,,,,
,,,,,,,,2023-08-16_08h47.03.565,HF_wild_card,2022.2.4,Win32,59.65519298,5af4579eb625f70001e0cfad,64d2fd46c836a06233681665,64dc7e9cb1882173e1f02f9b,,,,,,,ctch,resources/DBN.BMP,resources/DG.BMP,Door4,0.224166679,0.029166667,1,0,0,0.9015,optionRight,80,5525,3,18,0,18,0,1,,,,,,,,,,,,,,,,,,,,,,,,,,,,,,,,,,,,,,,
,,,,,,,,2023-08-16_08h47.03.565,HF_wild_card,2022.2.4,Win32,59.65519298,5af4579eb625f70001e0cfad,64d2fd46c836a06233681665,64dc7e9cb1882173e1f02f9b,,,,,,,sngl,resources/DR.BMP,resources/Empty.png,WildCard_Ex,-0.191666667,0.014999994,1,0,0,0.7804,optionLeft,5,5530,3,19,0,19,0,1,,,,,,,,,,,,,,,,,,,,,,,,,,,,,,,,,,,,,,,
,,,,,,,,2023-08-16_08h47.03.565,HF_wild_card,2022.2.4,Win32,59.65519298,5af4579eb625f70001e0cfad,64d2fd46c836a06233681665,64dc7e9cb1882173e1f02f9b,,,,,,,decisionTrl,resources/DG.BMP,resources/DY.BMP,Door3,0.134166654,0.014166673,1,0,0,0.7633,optionRight,70,5600,3,20,0,20,0,1,,,,,,,,,,,,,,,,,,,,,,,,,,,,,,,,,,,,,,,
,,,,,,,,2023-08-16_08h47.03.565,HF_wild_card,2022.2.4,Win32,59.65519298,5af4579eb625f70001e0cfad,64d2fd46c836a06233681665,64dc7e9cb1882173e1f02f9b,,,,,,,decisionTrl,resources/DB.BMP,resources/DR.BMP,WildCard_Ex,0.170000013,0.01916666,1,0,0,0.8479,optionRight,5,5605,3,21,0,21,0,1,,,,,,,,,,,,,,,,,,,,,,,,,,,,,,,,,,,,,,,
,,,,,,,,2023-08-16_08h47.03.565,HF_wild_card,2022.2.4,Win32,59.65519298,5af4579eb625f70001e0cfad,64d2fd46c836a06233681665,64dc7e9cb1882173e1f02f9b,,,,,,,sngl,resources/Empty.png,resources/DY.BMP,Door3,0.2125,0.010000006,1,0,0,0.8061,optionRight,70,5675,3,22,0,22,0,1,,,,,,,,,,,,,,,,,,,,,,,,,,,,,,,,,,,,,,,
,,,,,,,,2023-08-16_08h47.03.565,HF_wild_card,2022.2.4,Win32,59.65519298,5af4579eb625f70001e0cfad,64d2fd46c836a06233681665,64dc7e9cb1882173e1f02f9b,,,,,,,decisionTrl,resources/DY.BMP,resources/DG.BMP,Door3,-0.183333333,-0.010833327,1,0,0,0.7483,optionLeft,70,5745,3,23,0,23,0,1,,,,,,,,,,,,,,,,,,,,,,,,,,,,,,,,,,,,,,,
,,,,,,,,2023-08-16_08h47.03.565,HF_wild_card,2022.2.4,Win32,59.65519298,5af4579eb625f70001e0cfad,64d2fd46c836a06233681665,64dc7e9cb1882173e1f02f9b,,,,,,,decisionTrl,resources/DB.BMP,resources/DBN.BMP,Door2,-0.226666641,0.011666648,1,0,0,0.8472,optionLeft,40,5785,3,24,0,24,0,1,,,,,,,,,,,,,,,,,,,,,,,,,,,,,,,,,,,,,,,
,,,,,,,,2023-08-16_08h47.03.565,HF_wild_card,2022.2.4,Win32,59.65519298,5af4579eb625f70001e0cfad,64d2fd46c836a06233681665,64dc7e9cb1882173e1f02f9b,,,,,,,ctch,resources/DBN.BMP,resources/DG.BMP,Door4,0.223333359,-0.005000019,1,0,0,0.8479,optionRight,80,5865,3,25,0,25,0,1,,,,,,,,,,,,,,,,,,,,,,,,,,,,,,,,,,,,,,,
,,,,,,,,2023-08-16_08h47.03.565,HF_wild_card,2022.2.4,Win32,59.65519298,5af4579eb625f70001e0cfad,64d2fd46c836a06233681665,64dc7e9cb1882173e1f02f9b,,,,,,,decisionTrl,resources/DY.BMP,resources/DG.BMP,Door3,-0.167499987,0.014166673,1,0,0,0.6766,optionLeft,70,5935,3,26,0,26,0,1,,,,,,,,,,,,,,,,,,,,,,,,,,,,,,,,,,,,,,,
,,,,,,,,2023-08-16_08h47.03.565,HF_wild_card,2022.2.4,Win32,59.65519298,5af4579eb625f70001e0cfad,64d2fd46c836a06233681665,64dc7e9cb1882173e1f02f9b,,,,,,,decisionTrl,resources/DG.BMP,resources/DR.BMP,WildCard_Ex,0.231666692,-0.001666673,1,0,0,0.8074,optionRight,5,5940,3,27,0,27,0,1,,,,,,,,,,,,,,,,,,,,,,,,,,,,,,,,,,,,,,,
,,,,,,,,2023-08-16_08h47.03.565,HF_wild_card,2022.2.4,Win32,59.65519298,5af4579eb625f70001e0cfad,64d2fd46c836a06233681665,64dc7e9cb1882173e1f02f9b,,,,,,,ctch,resources/DY.BMP,resources/DB.BMP,Door3,-0.226666641,0.014999994,1,0,0,0.7368,optionLeft,70,6010,3,28,0,28,0,1,,,,,,,,,,,,,,,,,,,,,,,,,,,,,,,,,,,,,,,
,,,,,,,,2023-08-16_08h47.03.565,HF_wild_card,2022.2.4,Win32,59.65519298,5af4579eb625f70001e0cfad,64d2fd46c836a06233681665,64dc7e9cb1882173e1f02f9b,,,,,,,sngl,resources/Empty.png,resources/DR.BMP,WildCard_Ex,0.214166705,0.002499994,1,0,0,0.7075,optionRight,5,6015,3,29,0,29,0,1,,,,,,,,,,,,,,,,,,,,,,,,,,,,,,,,,,,,,,,
,,,,,,,,2023-08-16_08h47.03.565,HF_wild_card,2022.2.4,Win32,59.65519298,5af4579eb625f70001e0cfad,64d2fd46c836a06233681665,64dc7e9cb1882173e1f02f9b,,,,,,,decisionTrl,resources/DY.BMP,resources/DG.BMP,Door3,-0.214999962,0.00666666,1,0,0,0.6899,optionLeft,70,6085,3,30,0,30,0,1,,,,,,,,,,,,,,,,,,,,,,,,,,,,,,,,,,,,,,,
,,,,,,,,2023-08-16_08h47.03.565,HF_wild_card,2022.2.4,Win32,59.65519298,5af4579eb625f70001e0cfad,64d2fd46c836a06233681665,64dc7e9cb1882173e1f02f9b,,,,,,,sngl,resources/DR.BMP,resources/Empty.png,WildCard_Ex,-0.257500013,-0.003333346,1,0,0,0.8081,optionLeft,95,6180,3,31,0,31,0,1,,,,,,,,,,,,,,,,,,,,,,,,,,,,,,,,,,,,,,,
,,,,,,,,2023-08-16_08h47.03.565,HF_wild_card,2022.2.4,Win32,59.65519298,5af4579eb625f70001e0cfad,64d2fd46c836a06233681665,64dc7e9cb1882173e1f02f9b,,,,,,,decisionTrl,resources/DB.BMP,resources/DBN.BMP,Door2,-0.198333295,0.03166666,1,0,0,0.873,optionLeft,40,6220,3,32,0,32,0,1,,,,,,,,,,,,,,,,,,,,,,,,,,,,,,,,,,,,,,,
,,,,,,,,2023-08-16_08h47.03.565,HF_wild_card,2022.2.4,Win32,59.65519298,5af4579eb625f70001e0cfad,64d2fd46c836a06233681665,64dc7e9cb1882173e1f02f9b,,,,,,,decisionTrl,resources/DBN.BMP,resources/DB.BMP,Door2,0.225833321,0.015833314,1,0,0,0.8977,optionRight,20,6240,3,33,0,33,0,1,,,,,,,,,,,,,,,,,,,,,,,,,,,,,,,,,,,,,,,
,,,,,,,,2023-08-16_08h47.03.565,HF_wild_card,2022.2.4,Win32,59.65519298,5af4579eb625f70001e0cfad,64d2fd46c836a06233681665,64dc7e9cb1882173e1f02f9b,,,,,,,decisionTrl,resources/DY.BMP,resources/DG.BMP,Door3,-0.170833333,0.022500006,1,0,0,0.7739,optionLeft,70,6310,3,34,0,34,0,1,,,,,,,,,,,,,,,,,,,,,,,,,,,,,,,,,,,,,,,
,,,,,,,,2023-08-16_08h47.03.565,HF_wild_card,2022.2.4,Win32,59.65519298,5af4579eb625f70001e0cfad,64d2fd46c836a06233681665,64dc7e9cb1882173e1f02f9b,,,,,,,sngl,resources/Empty.png,resources/DR.BMP,WildCard_Ex,0.196666654,-0.010833327,1,0,0,0.7909,optionRight,95,6405,3,35,0,35,0,1,,,,,,,,,,,,,,,,,,,,,,,,,,,,,,,,,,,,,,,
,,,,,,,,2023-08-16_08h47.03.565,HF_wild_card,2022.2.4,Win32,59.65519298,5af4579eb625f70001e0cfad,64d2fd46c836a06233681665,64dc7e9cb1882173e1f02f9b,,,,,,,decisionTrl,resources/DBN.BMP,resources/DR.BMP,WildCard_Ex,0.245833333,-0.040833346,1,0,0,0.8977,optionRight,95,6500,3,36,0,36,0,1,,,,,,,,,,,,,,,,,,,,,,,,,,,,,,,,,,,,,,,
,,,,,,,,2023-08-16_08h47.03.565,HF_wild_card,2022.2.4,Win32,59.65519298,5af4579eb625f70001e0cfad,64d2fd46c836a06233681665,64dc7e9cb1882173e1f02f9b,,,,,,,ctch,resources/DB.BMP,resources/DY.BMP,Door3,0.214166705,-0.040000025,1,0,0,0.9324,optionRight,70,6570,3,37,0,37,0,1,,,,,,,,,,,,,,,,,,,,,,,,,,,,,,,,,,,,,,,
,,,,,,,,2023-08-16_08h47.03.565,HF_wild_card,2022.2.4,Win32,59.65519298,5af4579eb625f70001e0cfad,64d2fd46c836a06233681665,64dc7e9cb1882173e1f02f9b,,,,,,,decisionTrl,resources/DG.BMP,resources/DY.BMP,Door3,0.210000038,-0.009166686,1,0,0,0.8067,optionRight,70,6640,3,38,0,38,0,1,,,,,,,,,,,,,,,,,,,,,,,,,,,,,,,,,,,,,,,
,,,,,,,,2023-08-16_08h47.03.565,HF_wild_card,2022.2.4,Win32,59.65519298,5af4579eb625f70001e0cfad,64d2fd46c836a06233681665,64dc7e9cb1882173e1f02f9b,,,,,,,sngl,resources/DY.BMP,resources/Empty.png,Door3,-0.189999962,0.002499994,1,0,0,0.6649,optionLeft,70,6710,3,39,0,39,0,1,,,,,,,,,,,,,,,,,,,,,,,,,,,,,,,,,,,,,,,
,,,,,,,,2023-08-16_08h47.03.565,HF_wild_card,2022.2.4,Win32,59.65519298,5af4579eb625f70001e0cfad,64d2fd46c836a06233681665,64dc7e9cb1882173e1f02f9b,,,,,,,decisionTrl,resources/DR.BMP,resources/DB.BMP,WildCard_Ex,-0.175833321,0.017499987,1,0,0,0.8968,optionLeft,5,6715,3,40,0,40,0,1,,,,,,,,,,,,,,,,,,,,,,,,,,,,,,,,,,,,,,,
,,,,,,,,2023-08-16_08h47.03.565,HF_wild_card,2022.2.4,Win32,59.65519298,5af4579eb625f70001e0cfad,64d2fd46c836a06233681665,64dc7e9cb1882173e1f02f9b,,,,,,,decisionTrl,resources/DG.BMP,resources/DY.BMP,Door3,0.254166667,0.008333333,1,0,0,0.7567,optionRight,70,6785,3,41,0,41,0,1,,,,,,,,,,,,,,,,,,,,,,,,,,,,,,,,,,,,,,,
,,,,,,,,2023-08-16_08h47.03.565,HF_wild_card,2022.2.4,Win32,59.65519298,5af4579eb625f70001e0cfad,64d2fd46c836a06233681665,64dc7e9cb1882173e1f02f9b,,,,,,,ctch,resources/DG.BMP,resources/DBN.BMP,Door4,-0.216666667,0,1,0,0,0.8076,optionLeft,60,6845,3,42,0,42,0,1,,,,,,,,,,,,,,,,,,,,,,,,,,,,,,,,,,,,,,,
,,,,,,,,2023-08-16_08h47.03.565,HF_wild_card,2022.2.4,Win32,59.65519298,5af4579eb625f70001e0cfad,64d2fd46c836a06233681665,64dc7e9cb1882173e1f02f9b,,,,,,,decisionTrl,resources/DBN.BMP,resources/DB.BMP,Door2,0.156666692,0.022500006,1,0,0,0.8812,optionRight,40,6885,3,43,0,43,0,1,,,,,,,,,,,,,,,,,,,,,,,,,,,,,,,,,,,,,,,
,,,,,,,,2023-08-16_08h47.03.565,HF_wild_card,2022.2.4,Win32,59.65519298,5af4579eb625f70001e0cfad,64d2fd46c836a06233681665,64dc7e9cb1882173e1f02f9b,,,,,,,,,,,,,,,,,,,,,,,,,,2,0,2,0,1,,,,,,,,,,,,,,,,,,,,,,,,,,,,,,,,,,
,,,,,,,,2023-08-16_08h47.03.565,HF_wild_card,2022.2.4,Win32,59.65519298,5af4579eb625f70001e0cfad,64d2fd46c836a06233681665,64dc7e9cb1882173e1f02f9b,,,,,,,decisionTrl,resources/DP.BMP,resources/DG.BMP,WildCard_NonEx,-0.354166667,-0.002499994,1,0,0,1.3384,optionLeft,45,6930,4,0,0,0,0,1,,,,,,,,,,,,,,,,,,,,,,,,,,,,,,,,,,,,,,,
,,,,,,,,2023-08-16_08h47.03.565,HF_wild_card,2022.2.4,Win32,59.65519298,5af4579eb625f70001e0cfad,64d2fd46c836a06233681665,64dc7e9cb1882173e1f02f9b,,,,,,,sngl,resources/Empty.png,resources/DBN.BMP,Door1,0.145833333,-0.007500013,1,0,0,1.0317,optionRight,30,6960,4,1,0,1,0,1,,,,,,,,,,,,,,,,,,,,,,,,,,,,,,,,,,,,,,,
,,,,,,,,2023-08-16_08h47.03.565,HF_wild_card,2022.2.4,Win32,59.65519298,5af4579eb625f70001e0cfad,64d2fd46c836a06233681665,64dc7e9cb1882173e1f02f9b,,,,,,,sngl,resources/DBN.BMP,resources/Empty.png,Door1,-0.174166679,-0.009166686,1,0,0,0.7641,optionLeft,30,6990,4,2,0,2,0,1,,,,,,,,,,,,,,,,,,,,,,,,,,,,,,,,,,,,,,,
,,,,,,,,2023-08-16_08h47.03.565,HF_wild_card,2022.2.4,Win32,59.65519298,5af4579eb625f70001e0cfad,64d2fd46c836a06233681665,64dc7e9cb1882173e1f02f9b,,,,,,,decisionTrl,resources/DP.BMP,resources/DBN.BMP,WildCard_NonEx,-0.351666673,0.084166654,1,0,0,0.7808,optionLeft,55,7045,4,3,0,3,0,1,,,,,,,,,,,,,,,,,,,,,,,,,,,,,,,,,,,,,,,
,,,,,,,,2023-08-16_08h47.03.565,HF_wild_card,2022.2.4,Win32,59.65519298,5af4579eb625f70001e0cfad,64d2fd46c836a06233681665,64dc7e9cb1882173e1f02f9b,,,,,,,decisionTrl,resources/DP.BMP,resources/DY.BMP,Door3,0.245833333,0.028333314,1,0,0,0.9978,optionRight,70,7115,4,4,0,4,0,1,,,,,,,,,,,,,,,,,,,,,,,,,,,,,,,,,,,,,,,
,,,,,,,,2023-08-16_08h47.03.565,HF_wild_card,2022.2.4,Win32,59.65519298,5af4579eb625f70001e0cfad,64d2fd46c836a06233681665,64dc7e9cb1882173e1f02f9b,,,,,,,sngl,resources/Empty.png,resources/DY.BMP,Door3,0.274166743,0.022500006,1,0,0,1.1297,optionRight,70,7185,4,5,0,5,0,1,,,,,,,,,,,,,,,,,,,,,,,,,,,,,,,,,,,,,,,
,,,,,,,,2023-08-16_08h47.03.565,HF_wild_card,2022.2.4,Win32,59.65519298,5af4579eb625f70001e0cfad,64d2fd46c836a06233681665,64dc7e9cb1882173e1f02f9b,,,,,,,sngl,resources/DG.BMP,resources/Empty.png,Door4,-0.31916666,0.000833321,1,0,0,0.7889,optionLeft,60,7245,4,6,0,6,0,1,,,,,,,,,,,,,,,,,,,,,,,,,,,,,,,,,,,,,,,
,,,,,,,,2023-08-16_08h47.03.565,HF_wild_card,2022.2.4,Win32,59.65519298,5af4579eb625f70001e0cfad,64d2fd46c836a06233681665,64dc7e9cb1882173e1f02f9b,,,,,,,decisionTrl,resources/DY.BMP,resources/DG.BMP,Door3,-0.231666629,0.015833314,1,0,0,0.8696,optionLeft,70,7315,4,7,0,7,0,1,,,,,,,,,,,,,,,,,,,,,,,,,,,,,,,,,,,,,,,
,,,,,,,,2023-08-16_08h47.03.565,HF_wild_card,2022.2.4,Win32,59.65519298,5af4579eb625f70001e0cfad,64d2fd46c836a06233681665,64dc7e9cb1882173e1f02f9b,,,,,,,decisionTrl,resources/DY.BMP,resources/DG.BMP,Door3,-0.234166654,0.020833333,1,0,0,0.6812,optionLeft,70,7385,4,8,0,8,0,1,,,,,,,,,,,,,,,,,,,,,,,,,,,,,,,,,,,,,,,
,,,,,,,,2023-08-16_08h47.03.565,HF_wild_card,2022.2.4,Win32,59.65519298,5af4579eb625f70001e0cfad,64d2fd46c836a06233681665,64dc7e9cb1882173e1f02f9b,,,,,,,decisionTrl,resources/DY.BMP,resources/DG.BMP,Door3,-0.177499962,0.025833321,1,0,0,0.6313,optionLeft,70,7455,4,9,0,9,0,1,,,,,,,,,,,,,,,,,,,,,,,,,,,,,,,,,,,,,,,
,,,,,,,,2023-08-16_08h47.03.565,HF_wild_card,2022.2.4,Win32,59.65519298,5af4579eb625f70001e0cfad,64d2fd46c836a06233681665,64dc7e9cb1882173e1f02f9b,,,,,,,decisionTrl,resources/DBN.BMP,resources/DP.BMP,WildCard_NonEx,-0.016666667,-0.005000019,1,0,0,0.0803,optionRight,55,7510,4,10,0,10,0,1,,,,,,,,,,,,,,,,,,,,,,,,,,,,,,,,,,,,,,,
,,,,,,,,2023-08-16_08h47.03.565,HF_wild_card,2022.2.4,Win32,59.65519298,5af4579eb625f70001e0cfad,64d2fd46c836a06233681665,64dc7e9cb1882173e1f02f9b,,,,,,,decisionTrl,resources/DBN.BMP,resources/DB.BMP,Door2,0.249166679,-0.005000019,1,0,0,0.8489,optionRight,40,7550,4,11,0,11,0,1,,,,,,,,,,,,,,,,,,,,,,,,,,,,,,,,,,,,,,,
,,,,,,,,2023-08-16_08h47.03.565,HF_wild_card,2022.2.4,Win32,59.65519298,5af4579eb625f70001e0cfad,64d2fd46c836a06233681665,64dc7e9cb1882173e1f02f9b,,,,,,,decisionTrl,resources/DG.BMP,resources/DY.BMP,Door3,0.252500025,-0.014166673,1,0,0,0.7972,optionRight,70,7620,4,12,0,12,0,1,,,,,,,,,,,,,,,,,,,,,,,,,,,,,,,,,,,,,,,
,,,,,,,,2023-08-16_08h47.03.565,HF_wild_card,2022.2.4,Win32,59.65519298,5af4579eb625f70001e0cfad,64d2fd46c836a06233681665,64dc7e9cb1882173e1f02f9b,,,,,,,decisionTrl,resources/DB.BMP,resources/DBN.BMP,Door2,-0.159999975,-0.010833327,1,0,0,1.2314,optionLeft,20,7640,4,13,0,13,0,1,,,,,,,,,,,,,,,,,,,,,,,,,,,,,,,,,,,,,,,
,,,,,,,,2023-08-16_08h47.03.565,HF_wild_card,2022.2.4,Win32,59.65519298,5af4579eb625f70001e0cfad,64d2fd46c836a06233681665,64dc7e9cb1882173e1f02f9b,,,,,,,decisionTrl,resources/DG.BMP,resources/DP.BMP,WildCard_NonEx,0.296666718,0.002499994,1,0,0,0.9469,optionRight,45,7685,4,14,0,14,0,1,,,,,,,,,,,,,,,,,,,,,,,,,,,,,,,,,,,,,,,
,,,,,,,,2023-08-16_08h47.03.565,HF_wild_card,2022.2.4,Win32,59.65519298,5af4579eb625f70001e0cfad,64d2fd46c836a06233681665,64dc7e9cb1882173e1f02f9b,,,,,,,decisionTrl,resources/DY.BMP,resources/DG.BMP,Door3,-0.28083334,-0.013333352,1,0,0,0.7635,optionLeft,70,7755,4,15,0,15,0,1,,,,,,,,,,,,,,,,,,,,,,,,,,,,,,,,,,,,,,,
,,,,,,,,2023-08-16_08h47.03.565,HF_wild_card,2022.2.4,Win32,59.65519298,5af4579eb625f70001e0cfad,64d2fd46c836a06233681665,64dc7e9cb1882173e1f02f9b,,,,,,,decisionTrl,resources/DBN.BMP,resources/DB.BMP,Door2,0.240000025,-0.020833333,1,0,0,0.9219,optionRight,40,7795,4,16,0,16,0,1,,,,,,,,,,,,,,,,,,,,,,,,,,,,,,,,,,,,,,,
,,,,,,,,2023-08-16_08h47.03.565,HF_wild_card,2022.2.4,Win32,59.65519298,5af4579eb625f70001e0cfad,64d2fd46c836a06233681665,64dc7e9cb1882173e1f02f9b,,,,,,,decisionTrl,resources/DG.BMP,resources/DY.BMP,Door3,0.251666705,-0.043333371,1,0,0,0.7971,optionRight,70,7865,4,17,0,17,0,1,,,,,,,,,,,,,,,,,,,,,,,,,,,,,,,,,,,,,,,
,,,,,,,,2023-08-16_08h47.03.565,HF_wild_card,2022.2.4,Win32,59.65519298,5af4579eb625f70001e0cfad,64d2fd46c836a06233681665,64dc7e9cb1882173e1f02f9b,,,,,,,sngl,resources/Empty.png,resources/DB.BMP,Door2,0.260833359,0.019999981,1,0,0,0.7811,optionRight,40,7905,4,18,0,18,0,1,,,,,,,,,,,,,,,,,,,,,,,,,,,,,,,,,,,,,,,
,,,,,,,,2023-08-16_08h47.03.565,HF_wild_card,2022.2.4,Win32,59.65519298,5af4579eb625f70001e0cfad,64d2fd46c836a06233681665,64dc7e9cb1882173e1f02f9b,,,,,,,decisionTrl,resources/DBN.BMP,resources/DB.BMP,Door2,0.203333346,0.000833321,1,0,0,1.0494,optionRight,20,7925,4,19,0,19,0,1,,,,,,,,,,,,,,,,,,,,,,,,,,,,,,,,,,,,,,,
,,,,,,,,2023-08-16_08h47.03.565,HF_wild_card,2022.2.4,Win32,59.65519298,5af4579eb625f70001e0cfad,64d2fd46c836a06233681665,64dc7e9cb1882173e1f02f9b,,,,,,,decisionTrl,resources/DP.BMP,resources/DB.BMP,WildCard_NonEx,-0.134999975,-0.004166667,1,0,0,0.8317,optionLeft,55,7980,4,20,0,20,0,1,,,,,,,,,,,,,,,,,,,,,,,,,,,,,,,,,,,,,,,
,,,,,,,,2023-08-16_08h47.03.565,HF_wild_card,2022.2.4,Win32,59.65519298,5af4579eb625f70001e0cfad,64d2fd46c836a06233681665,64dc7e9cb1882173e1f02f9b,,,,,,,decisionTrl,resources/DBN.BMP,resources/DB.BMP,Door2,0.245833333,-0.011666679,1,0,0,1.1242,optionRight,40,8020,4,21,0,21,0,1,,,,,,,,,,,,,,,,,,,,,,,,,,,,,,,,,,,,,,,
,,,,,,,,2023-08-16_08h47.03.565,HF_wild_card,2022.2.4,Win32,59.65519298,5af4579eb625f70001e0cfad,64d2fd46c836a06233681665,64dc7e9cb1882173e1f02f9b,,,,,,,ctch,resources/DB.BMP,resources/DY.BMP,Door3,0.29083341,-0.054166667,1,0,0,0.8525,optionRight,70,8090,4,22,0,22,0,1,,,,,,,,,,,,,,,,,,,,,,,,,,,,,,,,,,,,,,,
,,,,,,,,2023-08-16_08h47.03.565,HF_wild_card,2022.2.4,Win32,59.65519298,5af4579eb625f70001e0cfad,64d2fd46c836a06233681665,64dc7e9cb1882173e1f02f9b,,,,,,,decisionTrl,resources/DB.BMP,resources/DBN.BMP,Door2,-0.235833295,0.009166654,1,0,0,0.7937,optionLeft,20,8110,4,23,0,23,0,1,,,,,,,,,,,,,,,,,,,,,,,,,,,,,,,,,,,,,,,
,,,,,,,,2023-08-16_08h47.03.565,HF_wild_card,2022.2.4,Win32,59.65519298,5af4579eb625f70001e0cfad,64d2fd46c836a06233681665,64dc7e9cb1882173e1f02f9b,,,,,,,sngl,resources/DP.BMP,resources/Empty.png,WildCard_NonEx,-0.192499987,-0.002499994,1,0,0,0.7319,optionLeft,55,8165,4,24,0,24,0,1,,,,,,,,,,,,,,,,,,,,,,,,,,,,,,,,,,,,,,,
,,,,,,,,2023-08-16_08h47.03.565,HF_wild_card,2022.2.4,Win32,59.65519298,5af4579eb625f70001e0cfad,64d2fd46c836a06233681665,64dc7e9cb1882173e1f02f9b,,,,,,,sngl,resources/Empty.png,resources/DP.BMP,WildCard_NonEx,0.229999987,-0.010833327,1,0,0,0.738,optionRight,45,8210,4,25,0,25,0,1,,,,,,,,,,,,,,,,,,,,,,,,,,,,,,,,,,,,,,,
,,,,,,,,2023-08-16_08h47.03.565,HF_wild_card,2022.2.4,Win32,59.65519298,5af4579eb625f70001e0cfad,64d2fd46c836a06233681665,64dc7e9cb1882173e1f02f9b,,,,,,,decisionTrl,resources/DB.BMP,resources/DBN.BMP,Door2,-0.221666654,0.035000006,1,0,0,0.9803,optionLeft,40,8250,4,26,0,26,0,1,,,,,,,,,,,,,,,,,,,,,,,,,,,,,,,,,,,,,,,
,,,,,,,,2023-08-16_08h47.03.565,HF_wild_card,2022.2.4,Win32,59.65519298,5af4579eb625f70001e0cfad,64d2fd46c836a06233681665,64dc7e9cb1882173e1f02f9b,,,,,,,ctch,resources/DBN.BMP,resources/DG.BMP,Door4,0.2125,0.004166667,1,0,0,0.8991,optionRight,80,8330,4,27,0,27,0,1,,,,,,,,,,,,,,,,,,,,,,,,,,,,,,,,,,,,,,,
,,,,,,,,2023-08-16_08h47.03.565,HF_wild_card,2022.2.4,Win32,59.65519298,5af4579eb625f70001e0cfad,64d2fd46c836a06233681665,64dc7e9cb1882173e1f02f9b,,,,,,,ctch,resources/DY.BMP,resources/DB.BMP,Door3,-0.250833321,0.024166648,1,0,0,0.9287,optionLeft,70,8400,4,28,0,28,0,1,,,,,,,,,,,,,,,,,,,,,,,,,,,,,,,,,,,,,,,
,,,,,,,,2023-08-16_08h47.03.565,HF_wild_card,2022.2.4,Win32,59.65519298,5af4579eb625f70001e0cfad,64d2fd46c836a06233681665,64dc7e9cb1882173e1f02f9b,,,,,,,decisionTrl,resources/DY.BMP,resources/DP.BMP,WildCard_NonEx,0.319166692,-0.041666667,1,0,0,1.0376,optionRight,55,8455,4,29,0,29,0,1,,,,,,,,,,,,,,,,,,,,,,,,,,,,,,,,,,,,,,,
,,,,,,,,2023-08-16_08h47.03.565,HF_wild_card,2022.2.4,Win32,59.65519298,5af4579eb625f70001e0cfad,64d2fd46c836a06233681665,64dc7e9cb1882173e1f02f9b,,,,,,,sngl,resources/DP.BMP,resources/Empty.png,WildCard_NonEx,-0.243333308,0.009166654,1,0,0,0.6901,optionLeft,45,8500,4,30,0,30,0,1,,,,,,,,,,,,,,,,,,,,,,,,,,,,,,,,,,,,,,,
,,,,,,,,2023-08-16_08h47.03.565,HF_wild_card,2022.2.4,Win32,59.65519298,5af4579eb625f70001e0cfad,64d2fd46c836a06233681665,64dc7e9cb1882173e1f02f9b,,,,,,,ctch,resources/DG.BMP,resources/DBN.BMP,Door4,-0.245000013,0.052499994,1,0,0,0.7742,optionLeft,80,8580,4,31,0,31,0,1,,,,,,,,,,,,,,,,,,,,,,,,,,,,,,,,,,,,,,,
,,,,,,,,2023-08-16_08h47.03.565,HF_wild_card,2022.2.4,Win32,59.65519298,5af4579eb625f70001e0cfad,64d2fd46c836a06233681665,64dc7e9cb1882173e1f02f9b,,,,,,,sngl,resources/Empty.png,resources/DP.BMP,WildCard_NonEx,0.245833333,-0.025833352,1,0,0,0.6633,optionRight,55,8635,4,32,0,32,0,1,,,,,,,,,,,,,,,,,,,,,,,,,,,,,,,,,,,,,,,
,,,,,,,,2023-08-16_08h47.03.565,HF_wild_card,2022.2.4,Win32,59.65519298,5af4579eb625f70001e0cfad,64d2fd46c836a06233681665,64dc7e9cb1882173e1f02f9b,,,,,,,ctch,resources/DB.BMP,resources/DY.BMP,Door3,0.235833359,-0.016666667,1,0,0,0.757,optionRight,70,8705,4,33,0,33,0,1,,,,,,,,,,,,,,,,,,,,,,,,,,,,,,,,,,,,,,,
,,,,,,,,2023-08-16_08h47.03.565,HF_wild_card,2022.2.4,Win32,59.65519298,5af4579eb625f70001e0cfad,64d2fd46c836a06233681665,64dc7e9cb1882173e1f02f9b,,,,,,,decisionTrl,resources/DG.BMP,resources/DY.BMP,Door3,0.178333346,0.0125,1,0,0,0.714,optionRight,70,8775,4,34,0,34,0,1,,,,,,,,,,,,,,,,,,,,,,,,,,,,,,,,,,,,,,,
,,,,,,,,2023-08-16_08h47.03.565,HF_wild_card,2022.2.4,Win32,59.65519298,5af4579eb625f70001e0cfad,64d2fd46c836a06233681665,64dc7e9cb1882173e1f02f9b,,,,,,,ctch,resources/DG.BMP,resources/DBN.BMP,Door4,-0.221666654,0.051666673,1,0,0,0.6747,optionLeft,80,8855,4,35,0,35,0,1,,,,,,,,,,,,,,,,,,,,,,,,,,,,,,,,,,,,,,,
,,,,,,,,2023-08-16_08h47.03.565,HF_wild_card,2022.2.4,Win32,59.65519298,5af4579eb625f70001e0cfad,64d2fd46c836a06233681665,64dc7e9cb1882173e1f02f9b,,,,,,,decisionTrl,resources/DG.BMP,resources/DY.BMP,Door3,0.224166679,0.016666667,1,0,0,0.6731,optionRight,70,8925,4,36,0,36,0,1,,,,,,,,,,,,,,,,,,,,,,,,,,,,,,,,,,,,,,,
,,,,,,,,2023-08-16_08h47.03.565,HF_wild_card,2022.2.4,Win32,59.65519298,5af4579eb625f70001e0cfad,64d2fd46c836a06233681665,64dc7e9cb1882173e1f02f9b,,,,,,,sngl,resources/DY.BMP,resources/Empty.png,Door3,-0.322500006,0.01833334,1,0,0,0.6717,optionLeft,70,8995,4,37,0,37,0,1,,,,,,,,,,,,,,,,,,,,,,,,,,,,,,,,,,,,,,,
,,,,,,,,2023-08-16_08h47.03.565,HF_wild_card,2022.2.4,Win32,59.65519298,5af4579eb625f70001e0cfad,64d2fd46c836a06233681665,64dc7e9cb1882173e1f02f9b,,,,,,,decisionTrl,resources/DB.BMP,resources/DBN.BMP,Door2,-0.204999987,0.046666654,1,0,0,0.6904,optionLeft,40,9035,4,38,0,38,0,1,,,,,,,,,,,,,,,,,,,,,,,,,,,,,,,,,,,,,,,
,,,,,,,,2023-08-16_08h47.03.565,HF_wild_card,2022.2.4,Win32,59.65519298,5af4579eb625f70001e0cfad,64d2fd46c836a06233681665,64dc7e9cb1882173e1f02f9b,,,,,,,sngl,resources/DB.BMP,resources/Empty.png,Door2,-0.183333333,0.035833327,1,0,0,0.7308,optionLeft,20,9055,4,39,0,39,0,1,,,,,,,,,,,,,,,,,,,,,,,,,,,,,,,,,,,,,,,
,,,,,,,,2023-08-16_08h47.03.565,HF_wild_card,2022.2.4,Win32,59.65519298,5af4579eb625f70001e0cfad,64d2fd46c836a06233681665,64dc7e9cb1882173e1f02f9b,,,,,,,ctch,resources/DBN.BMP,resources/DG.BMP,Door4,-0.024166679,-0.000833352,1,0,0,0.4141,optionRight,80,9135,4,40,0,40,0,1,,,,,,,,,,,,,,,,,,,,,,,,,,,,,,,,,,,,,,,
,,,,,,,,2023-08-16_08h47.03.565,HF_wild_card,2022.2.4,Win32,59.65519298,5af4579eb625f70001e0cfad,64d2fd46c836a06233681665,64dc7e9cb1882173e1f02f9b,,,,,,,ctch,resources/DY.BMP,resources/DB.BMP,Door3,-0.314166673,0.00666666,1,0,0,0.6473,optionLeft,70,9205,4,41,0,41,0,1,,,,,,,,,,,,,,,,,,,,,,,,,,,,,,,,,,,,,,,
,,,,,,,,2023-08-16_08h47.03.565,HF_wild_card,2022.2.4,Win32,59.65519298,5af4579eb625f70001e0cfad,64d2fd46c836a06233681665,64dc7e9cb1882173e1f02f9b,,,,,,,decisionTrl,resources/DB.BMP,resources/DP.BMP,WildCard_NonEx,0.252500025,0.001666673,1,0,0,0.7967,optionRight,45,9250,4,42,0,42,0,1,,,,,,,,,,,,,,,,,,,,,,,,,,,,,,,,,,,,,,,
,,,,,,,,2023-08-16_08h47.03.565,HF_wild_card,2022.2.4,Win32,59.65519298,5af4579eb625f70001e0cfad,64d2fd46c836a06233681665,64dc7e9cb1882173e1f02f9b,,,,,,,sngl,resources/Empty.png,resources/DG.BMP,Door4,0.208333333,-0.010000006,1,0,0,0.7807,optionRight,80,9330,4,43,0,43,0,1,,,,,,,,,,,,,,,,,,,,,,,,,,,,,,,,,,,,,,,
,,,,,,,,2023-08-16_08h47.03.565,HF_wild_card,2022.2.4,Win32,59.65519298,5af4579eb625f70001e0cfad,64d2fd46c836a06233681665,64dc7e9cb1882173e1f02f9b,,,,,,,,,,,,,,,,,,,,,,,,,,3,0,3,0,1,,,,,,,,,,,,,,,,,,,,,,,,,,,,,,,,,,
,,,,,,,,2023-08-16_08h47.03.565,HF_wild_card,2022.2.4,Win32,59.65519298,5af4579eb625f70001e0cfad,64d2fd46c836a06233681665,64dc7e9cb1882173e1f02f9b,,,,,,,decisionTrl,resources/DY.BMP,resources/DG.BMP,Door3,-0.238333321,-0.115833346,1,0,0,0.8948,optionLeft,70,9400,5,0,0,0,0,1,,,,,,,,,,,,,,,,,,,,,,,,,,,,,,,,,,,,,,,
,,,,,,,,2023-08-16_08h47.03.565,HF_wild_card,2022.2.4,Win32,59.65519298,5af4579eb625f70001e0cfad,64d2fd46c836a06233681665,64dc7e9cb1882173e1f02f9b,,,,,,,sngl,resources/Empty.png,resources/DB.BMP,Door2,0.225833321,0.014999994,1,0,0,0.8303,optionRight,20,9420,5,1,0,1,0,1,,,,,,,,,,,,,,,,,,,,,,,,,,,,,,,,,,,,,,,
,,,,,,,,2023-08-16_08h47.03.565,HF_wild_card,2022.2.4,Win32,59.65519298,5af4579eb625f70001e0cfad,64d2fd46c836a06233681665,64dc7e9cb1882173e1f02f9b,,,,,,,decisionTrl,resources/DBN.BMP,resources/DB.BMP,Door2,0.215833346,0.027499994,1,0,0,0.7312,optionRight,40,9460,5,2,0,2,0,1,,,,,,,,,,,,,,,,,,,,,,,,,,,,,,,,,,,,,,,
,,,,,,,,2023-08-16_08h47.03.565,HF_wild_card,2022.2.4,Win32,59.65519298,5af4579eb625f70001e0cfad,64d2fd46c836a06233681665,64dc7e9cb1882173e1f02f9b,,,,,,,ctch,resources/DY.BMP,resources/DB.BMP,Door3,-0.136666679,0.022500006,1,0,0,0.6468,optionLeft,70,9530,5,3,0,3,0,1,,,,,,,,,,,,,,,,,,,,,,,,,,,,,,,,,,,,,,,
,,,,,,,,2023-08-16_08h47.03.565,HF_wild_card,2022.2.4,Win32,59.65519298,5af4579eb625f70001e0cfad,64d2fd46c836a06233681665,64dc7e9cb1882173e1f02f9b,,,,,,,decisionTrl,resources/DB.BMP,resources/DBN.BMP,Door2,-0.156666629,0.035833327,1,0,0,0.7643,optionLeft,20,9550,5,4,0,4,0,1,,,,,,,,,,,,,,,,,,,,,,,,,,,,,,,,,,,,,,,
,,,,,,,,2023-08-16_08h47.03.565,HF_wild_card,2022.2.4,Win32,59.65519298,5af4579eb625f70001e0cfad,64d2fd46c836a06233681665,64dc7e9cb1882173e1f02f9b,,,,,,,decisionTrl,resources/DG.BMP,resources/DY.BMP,Door3,0.227500025,0.041666667,1,0,0,0.7486,optionRight,70,9620,5,5,0,5,0,1,,,,,,,,,,,,,,,,,,,,,,,,,,,,,,,,,,,,,,,
,,,,,,,,2023-08-16_08h47.03.565,HF_wild_card,2022.2.4,Win32,59.65519298,5af4579eb625f70001e0cfad,64d2fd46c836a06233681665,64dc7e9cb1882173e1f02f9b,,,,,,,decisionTrl,resources/DP.BMP,resources/DY.BMP,WildCard_NonEx,-0.2125,0.004999987,1,0,0,0.7476,optionLeft,45,9665,5,6,0,6,0,1,,,,,,,,,,,,,,,,,,,,,,,,,,,,,,,,,,,,,,,
,,,,,,,,2023-08-16_08h47.03.565,HF_wild_card,2022.2.4,Win32,59.65519298,5af4579eb625f70001e0cfad,64d2fd46c836a06233681665,64dc7e9cb1882173e1f02f9b,,,,,,,decisionTrl,resources/DP.BMP,resources/DBN.BMP,WildCard_NonEx,-0.224166679,0.008333333,1,0,0,0.6627,optionLeft,45,9710,5,7,0,7,0,1,,,,,,,,,,,,,,,,,,,,,,,,,,,,,,,,,,,,,,,
,,,,,,,,2023-08-16_08h47.03.565,HF_wild_card,2022.2.4,Win32,59.65519298,5af4579eb625f70001e0cfad,64d2fd46c836a06233681665,64dc7e9cb1882173e1f02f9b,,,,,,,decisionTrl,resources/DG.BMP,resources/DY.BMP,Door3,0.221666654,0.017499987,1,0,0,0.781,optionRight,70,9780,5,8,0,8,0,1,,,,,,,,,,,,,,,,,,,,,,,,,,,,,,,,,,,,,,,
,,,,,,,,2023-08-16_08h47.03.565,HF_wild_card,2022.2.4,Win32,59.65519298,5af4579eb625f70001e0cfad,64d2fd46c836a06233681665,64dc7e9cb1882173e1f02f9b,,,,,,,sngl,resources/Empty.png,resources/DP.BMP,WildCard_NonEx,0.221666654,-0.010000006,1,0,0,0.7975,optionRight,45,9825,5,9,0,9,0,1,,,,,,,,,,,,,,,,,,,,,,,,,,,,,,,,,,,,,,,
,,,,,,,,2023-08-16_08h47.03.565,HF_wild_card,2022.2.4,Win32,59.65519298,5af4579eb625f70001e0cfad,64d2fd46c836a06233681665,64dc7e9cb1882173e1f02f9b,,,,,,,decisionTrl,resources/DG.BMP,resources/DP.BMP,WildCard_NonEx,0.200833321,-0.003333346,1,0,0,0.8635,optionRight,55,9880,5,10,0,10,0,1,,,,,,,,,,,,,,,,,,,,,,,,,,,,,,,,,,,,,,,
,,,,,,,,2023-08-16_08h47.03.565,HF_wild_card,2022.2.4,Win32,59.65519298,5af4579eb625f70001e0cfad,64d2fd46c836a06233681665,64dc7e9cb1882173e1f02f9b,,,,,,,sngl,resources/Empty.png,resources/DBN.BMP,Door1,0.200833321,0.002499994,1,0,0,0.8306,optionRight,30,9910,5,11,0,11,0,1,,,,,,,,,,,,,,,,,,,,,,,,,,,,,,,,,,,,,,,
,,,,,,,,2023-08-16_08h47.03.565,HF_wild_card,2022.2.4,Win32,59.65519298,5af4579eb625f70001e0cfad,64d2fd46c836a06233681665,64dc7e9cb1882173e1f02f9b,,,,,,,ctch,resources/DG.BMP,resources/DBN.BMP,Door4,-0.188333321,0.004166667,1,0,0,0.7475,optionLeft,60,9970,5,12,0,12,0,1,,,,,,,,,,,,,,,,,,,,,,,,,,,,,,,,,,,,,,,
,,,,,,,,2023-08-16_08h47.03.565,HF_wild_card,2022.2.4,Win32,59.65519298,5af4579eb625f70001e0cfad,64d2fd46c836a06233681665,64dc7e9cb1882173e1f02f9b,,,,,,,decisionTrl,resources/DBN.BMP,resources/DB.BMP,Door2,0.214166705,-0.011666679,1,0,0,0.8138,optionRight,40,10010,5,13,0,13,0,1,,,,,,,,,,,,,,,,,,,,,,,,,,,,,,,,,,,,,,,
,,,,,,,,2023-08-16_08h47.03.565,HF_wild_card,2022.2.4,Win32,59.65519298,5af4579eb625f70001e0cfad,64d2fd46c836a06233681665,64dc7e9cb1882173e1f02f9b,,,,,,,sngl,resources/Empty.png,resources/DG.BMP,Door4,0.155833371,0.00583334,1,0,0,0.7642,optionRight,60,10070,5,14,0,14,0,1,,,,,,,,,,,,,,,,,,,,,,,,,,,,,,,,,,,,,,,
,,,,,,,,2023-08-16_08h47.03.565,HF_wild_card,2022.2.4,Win32,59.65519298,5af4579eb625f70001e0cfad,64d2fd46c836a06233681665,64dc7e9cb1882173e1f02f9b,,,,,,,sngl,resources/Empty.png,resources/DP.BMP,WildCard_NonEx,0.218333371,0.004999987,1,0,0,0.6815,optionRight,55,10125,5,15,0,15,0,1,,,,,,,,,,,,,,,,,,,,,,,,,,,,,,,,,,,,,,,
,,,,,,,,2023-08-16_08h47.03.565,HF_wild_card,2022.2.4,Win32,59.65519298,5af4579eb625f70001e0cfad,64d2fd46c836a06233681665,64dc7e9cb1882173e1f02f9b,,,,,,,decisionTrl,resources/DBN.BMP,resources/DB.BMP,Door2,0.165833346,0.015833314,1,0,0,1.0307,optionRight,40,10165,5,16,0,16,0,1,,,,,,,,,,,,,,,,,,,,,,,,,,,,,,,,,,,,,,,
,,,,,,,,2023-08-16_08h47.03.565,HF_wild_card,2022.2.4,Win32,59.65519298,5af4579eb625f70001e0cfad,64d2fd46c836a06233681665,64dc7e9cb1882173e1f02f9b,,,,,,,decisionTrl,resources/DY.BMP,resources/DP.BMP,Door3,-0.148333295,0.001666673,1,0,0,0.7826,optionLeft,70,10235,5,17,0,17,0,1,,,,,,,,,,,,,,,,,,,,,,,,,,,,,,,,,,,,,,,
,,,,,,,,2023-08-16_08h47.03.565,HF_wild_card,2022.2.4,Win32,59.65519298,5af4579eb625f70001e0cfad,64d2fd46c836a06233681665,64dc7e9cb1882173e1f02f9b,,,,,,,decisionTrl,resources/DG.BMP,resources/DY.BMP,Door3,0.265000025,0.0125,1,0,0,0.697,optionRight,70,10305,5,18,0,18,0,1,,,,,,,,,,,,,,,,,,,,,,,,,,,,,,,,,,,,,,,
,,,,,,,,2023-08-16_08h47.03.565,HF_wild_card,2022.2.4,Win32,59.65519298,5af4579eb625f70001e0cfad,64d2fd46c836a06233681665,64dc7e9cb1882173e1f02f9b,,,,,,,decisionTrl,resources/DY.BMP,resources/DG.BMP,Door3,-0.216666667,0.021666654,1,0,0,0.7306,optionLeft,70,10375,5,19,0,19,0,1,,,,,,,,,,,,,,,,,,,,,,,,,,,,,,,,,,,,,,,
,,,,,,,,2023-08-16_08h47.03.565,HF_wild_card,2022.2.4,Win32,59.65519298,5af4579eb625f70001e0cfad,64d2fd46c836a06233681665,64dc7e9cb1882173e1f02f9b,,,,,,,decisionTrl,resources/DB.BMP,resources/DBN.BMP,Door2,-0.250833321,0.036666648,1,0,0,0.7146,optionLeft,40,10415,5,20,0,20,0,1,,,,,,,,,,,,,,,,,,,,,,,,,,,,,,,,,,,,,,,
,,,,,,,,2023-08-16_08h47.03.565,HF_wild_card,2022.2.4,Win32,59.65519298,5af4579eb625f70001e0cfad,64d2fd46c836a06233681665,64dc7e9cb1882173e1f02f9b,,,,,,,sngl,resources/DP.BMP,resources/Empty.png,WildCard_NonEx,-0.193333308,0.029166667,1,0,0,0.6803,optionLeft,55,10470,5,21,0,21,0,1,,,,,,,,,,,,,,,,,,,,,,,,,,,,,,,,,,,,,,,
,,,,,,,,2023-08-16_08h47.03.565,HF_wild_card,2022.2.4,Win32,59.65519298,5af4579eb625f70001e0cfad,64d2fd46c836a06233681665,64dc7e9cb1882173e1f02f9b,,,,,,,sngl,resources/DB.BMP,resources/Empty.png,Door2,-0.157500013,0.015833314,1,0,0,0.7308,optionLeft,40,10510,5,22,0,22,0,1,,,,,,,,,,,,,,,,,,,,,,,,,,,,,,,,,,,,,,,
,,,,,,,,2023-08-16_08h47.03.565,HF_wild_card,2022.2.4,Win32,59.65519298,5af4579eb625f70001e0cfad,64d2fd46c836a06233681665,64dc7e9cb1882173e1f02f9b,,,,,,,decisionTrl,resources/DY.BMP,resources/DG.BMP,Door3,-0.1875,0.036666648,1,0,0,0.7155,optionLeft,70,10580,5,23,0,23,0,1,,,,,,,,,,,,,,,,,,,,,,,,,,,,,,,,,,,,,,,
,,,,,,,,2023-08-16_08h47.03.565,HF_wild_card,2022.2.4,Win32,59.65519298,5af4579eb625f70001e0cfad,64d2fd46c836a06233681665,64dc7e9cb1882173e1f02f9b,,,,,,,decisionTrl,resources/DG.BMP,resources/DY.BMP,Door3,0.2125,0.033333333,1,0,0,0.7973,optionRight,70,10650,5,24,0,24,0,1,,,,,,,,,,,,,,,,,,,,,,,,,,,,,,,,,,,,,,,
,,,,,,,,2023-08-16_08h47.03.565,HF_wild_card,2022.2.4,Win32,59.65519298,5af4579eb625f70001e0cfad,64d2fd46c836a06233681665,64dc7e9cb1882173e1f02f9b,,,,,,,decisionTrl,resources/DBN.BMP,resources/DB.BMP,Door2,0.215000025,0.000833321,1,0,0,1.0977,optionRight,20,10670,5,25,0,25,0,1,,,,,,,,,,,,,,,,,,,,,,,,,,,,,,,,,,,,,,,
,,,,,,,,2023-08-16_08h47.03.565,HF_wild_card,2022.2.4,Win32,59.65519298,5af4579eb625f70001e0cfad,64d2fd46c836a06233681665,64dc7e9cb1882173e1f02f9b,,,,,,,sngl,resources/DBN.BMP,resources/Empty.png,Door1,-0.182500013,0.041666667,1,0,0,0.7975,optionLeft,30,10700,5,26,0,26,0,1,,,,,,,,,,,,,,,,,,,,,,,,,,,,,,,,,,,,,,,
,,,,,,,,2023-08-16_08h47.03.565,HF_wild_card,2022.2.4,Win32,59.65519298,5af4579eb625f70001e0cfad,64d2fd46c836a06233681665,64dc7e9cb1882173e1f02f9b,,,,,,,decisionTrl,resources/DP.BMP,resources/DG.BMP,WildCard_NonEx,-0.1875,0.033333333,1,0,0,0.7646,optionLeft,45,10745,5,27,0,27,0,1,,,,,,,,,,,,,,,,,,,,,,,,,,,,,,,,,,,,,,,
,,,,,,,,2023-08-16_08h47.03.565,HF_wild_card,2022.2.4,Win32,59.65519298,5af4579eb625f70001e0cfad,64d2fd46c836a06233681665,64dc7e9cb1882173e1f02f9b,,,,,,,decisionTrl,resources/DB.BMP,resources/DP.BMP,WildCard_NonEx,0.213333321,-0.0125,1,0,0,0.7482,optionRight,45,10790,5,28,0,28,0,1,,,,,,,,,,,,,,,,,,,,,,,,,,,,,,,,,,,,,,,
,,,,,,,,2023-08-16_08h47.03.565,HF_wild_card,2022.2.4,Win32,59.65519298,5af4579eb625f70001e0cfad,64d2fd46c836a06233681665,64dc7e9cb1882173e1f02f9b,,,,,,,ctch,resources/DG.BMP,resources/DBN.BMP,Door4,-0.211666679,0.03166666,1,0,0,0.9977,optionLeft,80,10870,5,29,0,29,0,1,,,,,,,,,,,,,,,,,,,,,,,,,,,,,,,,,,,,,,,
,,,,,,,,2023-08-16_08h47.03.565,HF_wild_card,2022.2.4,Win32,59.65519298,5af4579eb625f70001e0cfad,64d2fd46c836a06233681665,64dc7e9cb1882173e1f02f9b,,,,,,,decisionTrl,resources/DB.BMP,resources/DBN.BMP,Door2,-0.193333308,0.040833314,1,0,0,0.749,optionLeft,40,10910,5,30,0,30,0,1,,,,,,,,,,,,,,,,,,,,,,,,,,,,,,,,,,,,,,,
,,,,,,,,2023-08-16_08h47.03.565,HF_wild_card,2022.2.4,Win32,59.65519298,5af4579eb625f70001e0cfad,64d2fd46c836a06233681665,64dc7e9cb1882173e1f02f9b,,,,,,,ctch,resources/DY.BMP,resources/DB.BMP,Door3,-0.161666679,0.024166648,1,0,0,0.7982,optionLeft,70,10980,5,31,0,31,0,1,,,,,,,,,,,,,,,,,,,,,,,,,,,,,,,,,,,,,,,
,,,,,,,,2023-08-16_08h47.03.565,HF_wild_card,2022.2.4,Win32,59.65519298,5af4579eb625f70001e0cfad,64d2fd46c836a06233681665,64dc7e9cb1882173e1f02f9b,,,,,,,ctch,resources/DB.BMP,resources/DY.BMP,Door3,0.148333359,-0.021666686,1,0,0,0.8316,optionRight,70,11050,5,32,0,32,0,1,,,,,,,,,,,,,,,,,,,,,,,,,,,,,,,,,,,,,,,
,,,,,,,,2023-08-16_08h47.03.565,HF_wild_card,2022.2.4,Win32,59.65519298,5af4579eb625f70001e0cfad,64d2fd46c836a06233681665,64dc7e9cb1882173e1f02f9b,,,,,,,ctch,resources/DB.BMP,resources/DY.BMP,Door3,0.151666705,-0.026666673,1,0,0,0.831,optionRight,70,11120,5,33,0,33,0,1,,,,,,,,,,,,,,,,,,,,,,,,,,,,,,,,,,,,,,,
,,,,,,,,2023-08-16_08h47.03.565,HF_wild_card,2022.2.4,Win32,59.65519298,5af4579eb625f70001e0cfad,64d2fd46c836a06233681665,64dc7e9cb1882173e1f02f9b,,,,,,,decisionTrl,resources/DBN.BMP,resources/DP.BMP,WildCard_NonEx,0.116666667,-0.002499994,1,0,0,0.8813,optionRight,45,11165,5,34,0,34,0,1,,,,,,,,,,,,,,,,,,,,,,,,,,,,,,,,,,,,,,,
,,,,,,,,2023-08-16_08h47.03.565,HF_wild_card,2022.2.4,Win32,59.65519298,5af4579eb625f70001e0cfad,64d2fd46c836a06233681665,64dc7e9cb1882173e1f02f9b,,,,,,,decisionTrl,resources/DP.BMP,resources/DB.BMP,WildCard_NonEx,-0.178333346,0.008333333,1,0,0,0.6972,optionLeft,45,11210,5,35,0,35,0,1,,,,,,,,,,,,,,,,,,,,,,,,,,,,,,,,,,,,,,,
,,,,,,,,2023-08-16_08h47.03.565,HF_wild_card,2022.2.4,Win32,59.65519298,5af4579eb625f70001e0cfad,64d2fd46c836a06233681665,64dc7e9cb1882173e1f02f9b,,,,,,,sngl,resources/Empty.png,resources/DY.BMP,Door3,0.196666654,-0.016666667,1,0,0,0.8149,optionRight,70,11280,5,36,0,36,0,1,,,,,,,,,,,,,,,,,,,,,,,,,,,,,,,,,,,,,,,
,,,,,,,,2023-08-16_08h47.03.565,HF_wild_card,2022.2.4,Win32,59.65519298,5af4579eb625f70001e0cfad,64d2fd46c836a06233681665,64dc7e9cb1882173e1f02f9b,,,,,,,decisionTrl,resources/DY.BMP,resources/DG.BMP,Door3,-0.15,-0.010833327,1,0,0,0.8809,optionLeft,70,11350,5,37,0,37,0,1,,,,,,,,,,,,,,,,,,,,,,,,,,,,,,,,,,,,,,,
,,,,,,,,2023-08-16_08h47.03.565,HF_wild_card,2022.2.4,Win32,59.65519298,5af4579eb625f70001e0cfad,64d2fd46c836a06233681665,64dc7e9cb1882173e1f02f9b,,,,,,,sngl,resources/DP.BMP,resources/Empty.png,WildCard_NonEx,-0.150833321,0.022500006,1,0,0,0.7114,optionLeft,45,11395,5,38,0,38,0,1,,,,,,,,,,,,,,,,,,,,,,,,,,,,,,,,,,,,,,,
,,,,,,,,2023-08-16_08h47.03.565,HF_wild_card,2022.2.4,Win32,59.65519298,5af4579eb625f70001e0cfad,64d2fd46c836a06233681665,64dc7e9cb1882173e1f02f9b,,,,,,,ctch,resources/DBN.BMP,resources/DG.BMP,Door4,0.176666705,0.019999981,1,0,0,0.8291,optionRight,60,11455,5,39,0,39,0,1,,,,,,,,,,,,,,,,,,,,,,,,,,,,,,,,,,,,,,,
,,,,,,,,2023-08-16_08h47.03.565,HF_wild_card,2022.2.4,Win32,59.65519298,5af4579eb625f70001e0cfad,64d2fd46c836a06233681665,64dc7e9cb1882173e1f02f9b,,,,,,,ctch,resources/DBN.BMP,resources/DG.BMP,Door4,0.177500025,-0.017500019,1,0,0,0.882,optionRight,60,11515,5,40,0,40,0,1,,,,,,,,,,,,,,,,,,,,,,,,,,,,,,,,,,,,,,,
,,,,,,,,2023-08-16_08h47.03.565,HF_wild_card,2022.2.4,Win32,59.65519298,5af4579eb625f70001e0cfad,64d2fd46c836a06233681665,64dc7e9cb1882173e1f02f9b,,,,,,,sngl,resources/DG.BMP,resources/Empty.png,Door4,-0.134166654,0.011666648,1,0,0,0.7804,optionLeft,80,11595,5,41,0,41,0,1,,,,,,,,,,,,,,,,,,,,,,,,,,,,,,,,,,,,,,,
,,,,,,,,2023-08-16_08h47.03.565,HF_wild_card,2022.2.4,Win32,59.65519298,5af4579eb625f70001e0cfad,64d2fd46c836a06233681665,64dc7e9cb1882173e1f02f9b,,,,,,,sngl,resources/DY.BMP,resources/Empty.png,Door3,-0.200833321,0.026666673,1,0,0,0.6637,optionLeft,70,11665,5,42,0,42,0,1,,,,,,,,,,,,,,,,,,,,,,,,,,,,,,,,,,,,,,,
,,,,,,,,2023-08-16_08h47.03.565,HF_wild_card,2022.2.4,Win32,59.65519298,5af4579eb625f70001e0cfad,64d2fd46c836a06233681665,64dc7e9cb1882173e1f02f9b,,,,,,,decisionTrl,resources/DB.BMP,resources/DBN.BMP,Door2,-0.180833308,0.03083334,1,0,0,0.7475,optionLeft,40,11705,5,43,0,43,0,1,,,,,,,,,,,,,,,,,,,,,,,,,,,,,,,,,,,,,,,
,,,,,,,,2023-08-16_08h47.03.565,HF_wild_card,2022.2.4,Win32,59.65519298,5af4579eb625f70001e0cfad,64d2fd46c836a06233681665,64dc7e9cb1882173e1f02f9b,,,,,,,,,,,,,,,,,,,,,,,,,,4,0,4,0,1,,,,,,,,,,,,,,,,,,,,,,,,,,,,,,,,,,
,,,,,,,,2023-08-16_08h47.03.565,HF_wild_card,2022.2.4,Win32,59.65519298,5af4579eb625f70001e0cfad,64d2fd46c836a06233681665,64dc7e9cb1882173e1f02f9b,,,,,,,ctch,resources/DBN.BMP,resources/DG.BMP,Door4,0.250833321,-0.135833359,1,0,0,0.8057,optionRight,80,11785,6,0,0,0,0,1,,,,,,,,,,,,,,,,,,,,,,,,,,,,,,,,,,,,,,,
,,,,,,,,2023-08-16_08h47.03.565,HF_wild_card,2022.2.4,Win32,59.65519298,5af4579eb625f70001e0cfad,64d2fd46c836a06233681665,64dc7e9cb1882173e1f02f9b,,,,,,,decisionTrl,resources/DBN.BMP,resources/DB.BMP,Door2,0.182500013,0,1,0,0,0.897,optionRight,20,11805,6,1,0,1,0,1,,,,,,,,,,,,,,,,,,,,,,,,,,,,,,,,,,,,,,,
,,,,,,,,2023-08-16_08h47.03.565,HF_wild_card,2022.2.4,Win32,59.65519298,5af4579eb625f70001e0cfad,64d2fd46c836a06233681665,64dc7e9cb1882173e1f02f9b,,,,,,,ctch,resources/DBN.BMP,resources/DG.BMP,Door4,0.147500038,0.022500006,1,0,0,0.8308,optionRight,80,11885,6,2,0,2,0,1,,,,,,,,,,,,,,,,,,,,,,,,,,,,,,,,,,,,,,,
,,,,,,,,2023-08-16_08h47.03.565,HF_wild_card,2022.2.4,Win32,59.65519298,5af4579eb625f70001e0cfad,64d2fd46c836a06233681665,64dc7e9cb1882173e1f02f9b,,,,,,,decisionTrl,resources/DB.BMP,resources/DP.BMP,WildCard_NonEx,0.133333333,0.014166673,1,0,0,0.7811,optionRight,55,11940,6,3,0,3,0,1,,,,,,,,,,,,,,,,,,,,,,,,,,,,,,,,,,,,,,,
,,,,,,,,2023-08-16_08h47.03.565,HF_wild_card,2022.2.4,Win32,59.65519298,5af4579eb625f70001e0cfad,64d2fd46c836a06233681665,64dc7e9cb1882173e1f02f9b,,,,,,,decisionTrl,resources/DP.BMP,resources/DBN.BMP,WildCard_NonEx,-0.179999987,0.039166673,1,0,0,0.6981,optionLeft,55,11995,6,4,0,4,0,1,,,,,,,,,,,,,,,,,,,,,,,,,,,,,,,,,,,,,,,
,,,,,,,,2023-08-16_08h47.03.565,HF_wild_card,2022.2.4,Win32,59.65519298,5af4579eb625f70001e0cfad,64d2fd46c836a06233681665,64dc7e9cb1882173e1f02f9b,,,,,,,sngl,resources/DY.BMP,resources/Empty.png,Door3,-0.121666654,0.0125,1,0,0,0.6638,optionLeft,70,12065,6,5,0,5,0,1,,,,,,,,,,,,,,,,,,,,,,,,,,,,,,,,,,,,,,,
,,,,,,,,2023-08-16_08h47.03.565,HF_wild_card,2022.2.4,Win32,59.65519298,5af4579eb625f70001e0cfad,64d2fd46c836a06233681665,64dc7e9cb1882173e1f02f9b,,,,,,,decisionTrl,resources/DG.BMP,resources/DP.BMP,WildCard_NonEx,0.388333384,-0.080833371,1,0,0,0.9281,optionRight,55,12120,6,6,0,6,0,1,,,,,,,,,,,,,,,,,,,,,,,,,,,,,,,,,,,,,,,
,,,,,,,,2023-08-16_08h47.03.565,HF_wild_card,2022.2.4,Win32,59.65519298,5af4579eb625f70001e0cfad,64d2fd46c836a06233681665,64dc7e9cb1882173e1f02f9b,,,,,,,sngl,resources/Empty.png,resources/DBN.BMP,Door1,0.264166705,0,1,0,0,0.9426,optionRight,30,12150,6,7,0,7,0,1,,,,,,,,,,,,,,,,,,,,,,,,,,,,,,,,,,,,,,,
,,,,,,,,2023-08-16_08h47.03.565,HF_wild_card,2022.2.4,Win32,59.65519298,5af4579eb625f70001e0cfad,64d2fd46c836a06233681665,64dc7e9cb1882173e1f02f9b,,,,,,,sngl,resources/DP.BMP,resources/Empty.png,WildCard_NonEx,-0.213333321,-0.042499987,1,0,0,0.7474,optionLeft,45,12195,6,8,0,8,0,1,,,,,,,,,,,,,,,,,,,,,,,,,,,,,,,,,,,,,,,
,,,,,,,,2023-08-16_08h47.03.565,HF_wild_card,2022.2.4,Win32,59.65519298,5af4579eb625f70001e0cfad,64d2fd46c836a06233681665,64dc7e9cb1882173e1f02f9b,,,,,,,sngl,resources/DP.BMP,resources/Empty.png,WildCard_NonEx,-0.255833308,0.01916666,1,0,0,0.6304,optionLeft,55,12250,6,9,0,9,0,1,,,,,,,,,,,,,,,,,,,,,,,,,,,,,,,,,,,,,,,
,,,,,,,,2023-08-16_08h47.03.565,HF_wild_card,2022.2.4,Win32,59.65519298,5af4579eb625f70001e0cfad,64d2fd46c836a06233681665,64dc7e9cb1882173e1f02f9b,,,,,,,ctch,resources/DY.BMP,resources/DB.BMP,Door3,-0.209166654,0.045833333,1,0,0,0.7472,optionLeft,70,12320,6,10,0,10,0,1,,,,,,,,,,,,,,,,,,,,,,,,,,,,,,,,,,,,,,,
,,,,,,,,2023-08-16_08h47.03.565,HF_wild_card,2022.2.4,Win32,59.65519298,5af4579eb625f70001e0cfad,64d2fd46c836a06233681665,64dc7e9cb1882173e1f02f9b,,,,,,,sngl,resources/DBN.BMP,resources/Empty.png,Door1,-0.180833308,0.050833321,1,0,0,0.7159,optionLeft,30,12350,6,11,0,11,0,1,,,,,,,,,,,,,,,,,,,,,,,,,,,,,,,,,,,,,,,
,,,,,,,,2023-08-16_08h47.03.565,HF_wild_card,2022.2.4,Win32,59.65519298,5af4579eb625f70001e0cfad,64d2fd46c836a06233681665,64dc7e9cb1882173e1f02f9b,,,,,,,decisionTrl,resources/DG.BMP,resources/DY.BMP,Door3,0.172500038,0.01833334,1,0,0,0.8148,optionRight,70,12420,6,12,0,12,0,1,,,,,,,,,,,,,,,,,,,,,,,,,,,,,,,,,,,,,,,
,,,,,,,,2023-08-16_08h47.03.565,HF_wild_card,2022.2.4,Win32,59.65519298,5af4579eb625f70001e0cfad,64d2fd46c836a06233681665,64dc7e9cb1882173e1f02f9b,,,,,,,decisionTrl,resources/DG.BMP,resources/DY.BMP,Door3,0.193333371,-0.007500013,1,0,0,0.7476,optionRight,70,12490,6,13,0,13,0,1,,,,,,,,,,,,,,,,,,,,,,,,,,,,,,,,,,,,,,,
,,,,,,,,2023-08-16_08h47.03.565,HF_wild_card,2022.2.4,Win32,59.65519298,5af4579eb625f70001e0cfad,64d2fd46c836a06233681665,64dc7e9cb1882173e1f02f9b,,,,,,,decisionTrl,resources/DY.BMP,resources/DG.BMP,Door3,-0.216666667,0.01916666,1,0,0,0.6458,optionLeft,70,12560,6,14,0,14,0,1,,,,,,,,,,,,,,,,,,,,,,,,,,,,,,,,,,,,,,,
,,,,,,,,2023-08-16_08h47.03.565,HF_wild_card,2022.2.4,Win32,59.65519298,5af4579eb625f70001e0cfad,64d2fd46c836a06233681665,64dc7e9cb1882173e1f02f9b,,,,,,,decisionTrl,resources/DY.BMP,resources/DG.BMP,Door3,-0.155833308,0.027499994,1,0,0,0.6981,optionLeft,70,12630,6,15,0,15,0,1,,,,,,,,,,,,,,,,,,,,,,,,,,,,,,,,,,,,,,,
,,,,,,,,2023-08-16_08h47.03.565,HF_wild_card,2022.2.4,Win32,59.65519298,5af4579eb625f70001e0cfad,64d2fd46c836a06233681665,64dc7e9cb1882173e1f02f9b,,,,,,,ctch,resources/DB.BMP,resources/DY.BMP,Door3,0.199166679,-0.009166686,1,0,0,0.798,optionRight,70,12700,6,16,0,16,0,1,,,,,,,,,,,,,,,,,,,,,,,,,,,,,,,,,,,,,,,
,,,,,,,,2023-08-16_08h47.03.565,HF_wild_card,2022.2.4,Win32,59.65519298,5af4579eb625f70001e0cfad,64d2fd46c836a06233681665,64dc7e9cb1882173e1f02f9b,,,,,,,decisionTrl,resources/DG.BMP,resources/DY.BMP,Door3,0.140833346,-0.009166686,1,0,0,0.7984,optionRight,70,12770,6,17,0,17,0,1,,,,,,,,,,,,,,,,,,,,,,,,,,,,,,,,,,,,,,,
,,,,,,,,2023-08-16_08h47.03.565,HF_wild_card,2022.2.4,Win32,59.65519298,5af4579eb625f70001e0cfad,64d2fd46c836a06233681665,64dc7e9cb1882173e1f02f9b,,,,,,,decisionTrl,resources/DG.BMP,resources/DY.BMP,Door3,0.135833359,0.004166667,1,0,0,0.7809,optionRight,70,12840,6,18,0,18,0,1,,,,,,,,,,,,,,,,,,,,,,,,,,,,,,,,,,,,,,,
,,,,,,,,2023-08-16_08h47.03.565,HF_wild_card,2022.2.4,Win32,59.65519298,5af4579eb625f70001e0cfad,64d2fd46c836a06233681665,64dc7e9cb1882173e1f02f9b,,,,,,,decisionTrl,resources/DBN.BMP,resources/DB.BMP,Door2,0.114166705,0.0125,1,0,0,0.9821,optionRight,20,12860,6,19,0,19,0,1,,,,,,,,,,,,,,,,,,,,,,,,,,,,,,,,,,,,,,,
,,,,,,,,2023-08-16_08h47.03.565,HF_wild_card,2022.2.4,Win32,59.65519298,5af4579eb625f70001e0cfad,64d2fd46c836a06233681665,64dc7e9cb1882173e1f02f9b,,,,,,,sngl,resources/DB.BMP,resources/Empty.png,Door2,-0.222499975,0.048333327,1,0,0,0.6472,optionLeft,20,12880,6,20,0,20,0,1,,,,,,,,,,,,,,,,,,,,,,,,,,,,,,,,,,,,,,,
,,,,,,,,2023-08-16_08h47.03.565,HF_wild_card,2022.2.4,Win32,59.65519298,5af4579eb625f70001e0cfad,64d2fd46c836a06233681665,64dc7e9cb1882173e1f02f9b,,,,,,,decisionTrl,resources/DB.BMP,resources/DBN.BMP,Door2,-0.204166667,0.036666648,1,0,0,0.698,optionLeft,20,12900,6,21,0,21,0,1,,,,,,,,,,,,,,,,,,,,,,,,,,,,,,,,,,,,,,,
,,,,,,,,2023-08-16_08h47.03.565,HF_wild_card,2022.2.4,Win32,59.65519298,5af4579eb625f70001e0cfad,64d2fd46c836a06233681665,64dc7e9cb1882173e1f02f9b,,,,,,,decisionTrl,resources/DP.BMP,resources/DB.BMP,WildCard_NonEx,-0.009999975,-0.003333346,1,0,0,0.1636,optionLeft,55,12955,6,22,0,22,0,1,,,,,,,,,,,,,,,,,,,,,,,,,,,,,,,,,,,,,,,
,,,,,,,,2023-08-16_08h47.03.565,HF_wild_card,2022.2.4,Win32,59.65519298,5af4579eb625f70001e0cfad,64d2fd46c836a06233681665,64dc7e9cb1882173e1f02f9b,,,,,,,sngl,resources/Empty.png,resources/DG.BMP,Door4,0.170833333,0.03083334,1,0,0,0.7481,optionRight,80,13035,6,23,0,23,0,1,,,,,,,,,,,,,,,,,,,,,,,,,,,,,,,,,,,,,,,
,,,,,,,,2023-08-16_08h47.03.565,HF_wild_card,2022.2.4,Win32,59.65519298,5af4579eb625f70001e0cfad,64d2fd46c836a06233681665,64dc7e9cb1882173e1f02f9b,,,,,,,sngl,resources/Empty.png,resources/DB.BMP,Door2,0.124166679,-0.0125,1,0,0,0.7808,optionRight,40,13075,6,24,0,24,0,1,,,,,,,,,,,,,,,,,,,,,,,,,,,,,,,,,,,,,,,
,,,,,,,,2023-08-16_08h47.03.565,HF_wild_card,2022.2.4,Win32,59.65519298,5af4579eb625f70001e0cfad,64d2fd46c836a06233681665,64dc7e9cb1882173e1f02f9b,,,,,,,ctch,resources/DG.BMP,resources/DBN.BMP,Door4,-0.217499987,0.03083334,1,0,0,0.7309,optionLeft,60,13135,6,25,0,25,0,1,,,,,,,,,,,,,,,,,,,,,,,,,,,,,,,,,,,,,,,
,,,,,,,,2023-08-16_08h47.03.565,HF_wild_card,2022.2.4,Win32,59.65519298,5af4579eb625f70001e0cfad,64d2fd46c836a06233681665,64dc7e9cb1882173e1f02f9b,,,,,,,decisionTrl,resources/DY.BMP,resources/DP.BMP,Door3,-0.179166667,0.00583334,1,0,0,1.9981,optionLeft,70,13205,6,26,0,26,0,1,,,,,,,,,,,,,,,,,,,,,,,,,,,,,,,,,,,,,,,
,,,,,,,,2023-08-16_08h47.03.565,HF_wild_card,2022.2.4,Win32,59.65519298,5af4579eb625f70001e0cfad,64d2fd46c836a06233681665,64dc7e9cb1882173e1f02f9b,,,,,,,sngl,resources/DG.BMP,resources/Empty.png,Door4,-0.219166629,0.032499981,1,0,0,0.8974,optionLeft,60,13265,6,27,0,27,0,1,,,,,,,,,,,,,,,,,,,,,,,,,,,,,,,,,,,,,,,
,,,,,,,,2023-08-16_08h47.03.565,HF_wild_card,2022.2.4,Win32,59.65519298,5af4579eb625f70001e0cfad,64d2fd46c836a06233681665,64dc7e9cb1882173e1f02f9b,,,,,,,ctch,resources/DG.BMP,resources/DBN.BMP,Door4,-0.245833333,0.03166666,1,0,0,0.8146,optionLeft,60,13325,6,28,0,28,0,1,,,,,,,,,,,,,,,,,,,,,,,,,,,,,,,,,,,,,,,
,,,,,,,,2023-08-16_08h47.03.565,HF_wild_card,2022.2.4,Win32,59.65519298,5af4579eb625f70001e0cfad,64d2fd46c836a06233681665,64dc7e9cb1882173e1f02f9b,,,,,,,decisionTrl,resources/DP.BMP,resources/DY.BMP,Door3,0.155833371,-0.003333346,1,0,0,1.0311,optionRight,70,13395,6,29,0,29,0,1,,,,,,,,,,,,,,,,,,,,,,,,,,,,,,,,,,,,,,,
,,,,,,,,2023-08-16_08h47.03.565,HF_wild_card,2022.2.4,Win32,59.65519298,5af4579eb625f70001e0cfad,64d2fd46c836a06233681665,64dc7e9cb1882173e1f02f9b,,,,,,,ctch,resources/DB.BMP,resources/DY.BMP,Door3,0.004166667,0.002499994,1,0,0,0.3984,optionRight,70,13465,6,30,0,30,0,1,,,,,,,,,,,,,,,,,,,,,,,,,,,,,,,,,,,,,,,
,,,,,,,,2023-08-16_08h47.03.565,HF_wild_card,2022.2.4,Win32,59.65519298,5af4579eb625f70001e0cfad,64d2fd46c836a06233681665,64dc7e9cb1882173e1f02f9b,,,,,,,decisionTrl,resources/DY.BMP,resources/DG.BMP,Door3,-0.148333295,0.020833333,1,0,0,0.6295,optionLeft,70,13535,6,31,0,31,0,1,,,,,,,,,,,,,,,,,,,,,,,,,,,,,,,,,,,,,,,
,,,,,,,,2023-08-16_08h47.03.565,HF_wild_card,2022.2.4,Win32,59.65519298,5af4579eb625f70001e0cfad,64d2fd46c836a06233681665,64dc7e9cb1882173e1f02f9b,,,,,,,sngl,resources/Empty.png,resources/DP.BMP,WildCard_NonEx,0.215833346,0.004999987,1,0,0,0.6812,optionRight,55,13590,6,32,0,32,0,1,,,,,,,,,,,,,,,,,,,,,,,,,,,,,,,,,,,,,,,
,,,,,,,,2023-08-16_08h47.03.565,HF_wild_card,2022.2.4,Win32,59.65519298,5af4579eb625f70001e0cfad,64d2fd46c836a06233681665,64dc7e9cb1882173e1f02f9b,,,,,,,decisionTrl,resources/DB.BMP,resources/DBN.BMP,Door2,-0.189166641,0.028333314,1,0,0,0.6979,optionLeft,20,13610,6,33,0,33,0,1,,,,,,,,,,,,,,,,,,,,,,,,,,,,,,,,,,,,,,,
,,,,,,,,2023-08-16_08h47.03.565,HF_wild_card,2022.2.4,Win32,59.65519298,5af4579eb625f70001e0cfad,64d2fd46c836a06233681665,64dc7e9cb1882173e1f02f9b,,,,,,,decisionTrl,resources/DB.BMP,resources/DBN.BMP,Door2,-0.253333346,0.049166648,1,0,0,0.6482,optionLeft,40,13650,6,34,0,34,0,1,,,,,,,,,,,,,,,,,,,,,,,,,,,,,,,,,,,,,,,
,,,,,,,,2023-08-16_08h47.03.565,HF_wild_card,2022.2.4,Win32,59.65519298,5af4579eb625f70001e0cfad,64d2fd46c836a06233681665,64dc7e9cb1882173e1f02f9b,,,,,,,decisionTrl,resources/DP.BMP,resources/DG.BMP,WildCard_NonEx,-0.207500013,0.021666654,1,0,0,0.7113,optionLeft,55,13705,6,35,0,35,0,1,,,,,,,,,,,,,,,,,,,,,,,,,,,,,,,,,,,,,,,
,,,,,,,,2023-08-16_08h47.03.565,HF_wild_card,2022.2.4,Win32,59.65519298,5af4579eb625f70001e0cfad,64d2fd46c836a06233681665,64dc7e9cb1882173e1f02f9b,,,,,,,decisionTrl,resources/DB.BMP,resources/DBN.BMP,Door2,-0.201666641,0.029166667,1,0,0,0.847,optionLeft,40,13745,6,36,0,36,0,1,,,,,,,,,,,,,,,,,,,,,,,,,,,,,,,,,,,,,,,
,,,,,,,,2023-08-16_08h47.03.565,HF_wild_card,2022.2.4,Win32,59.65519298,5af4579eb625f70001e0cfad,64d2fd46c836a06233681665,64dc7e9cb1882173e1f02f9b,,,,,,,decisionTrl,resources/DBN.BMP,resources/DB.BMP,Door2,0.132500013,0.00666666,1,0,0,1.0471,optionRight,20,13765,6,37,0,37,0,1,,,,,,,,,,,,,,,,,,,,,,,,,,,,,,,,,,,,,,,
,,,,,,,,2023-08-16_08h47.03.565,HF_wild_card,2022.2.4,Win32,59.65519298,5af4579eb625f70001e0cfad,64d2fd46c836a06233681665,64dc7e9cb1882173e1f02f9b,,,,,,,decisionTrl,resources/DBN.BMP,resources/DP.BMP,WildCard_NonEx,0.200833321,0.003333314,1,0,0,0.8799,optionRight,55,13820,6,38,0,38,0,1,,,,,,,,,,,,,,,,,,,,,,,,,,,,,,,,,,,,,,,
,,,,,,,,2023-08-16_08h47.03.565,HF_wild_card,2022.2.4,Win32,59.65519298,5af4579eb625f70001e0cfad,64d2fd46c836a06233681665,64dc7e9cb1882173e1f02f9b,,,,,,,ctch,resources/DY.BMP,resources/DB.BMP,Door3,-0.128333346,0.029999987,1,0,0,0.7135,optionLeft,70,13890,6,39,0,39,0,1,,,,,,,,,,,,,,,,,,,,,,,,,,,,,,,,,,,,,,,
,,,,,,,,2023-08-16_08h47.03.565,HF_wild_card,2022.2.4,Win32,59.65519298,5af4579eb625f70001e0cfad,64d2fd46c836a06233681665,64dc7e9cb1882173e1f02f9b,,,,,,,decisionTrl,resources/DY.BMP,resources/DG.BMP,Door3,-0.169166629,0.01833334,1,0,0,0.632,optionLeft,70,13960,6,40,0,40,0,1,,,,,,,,,,,,,,,,,,,,,,,,,,,,,,,,,,,,,,,
,,,,,,,,2023-08-16_08h47.03.565,HF_wild_card,2022.2.4,Win32,59.65519298,5af4579eb625f70001e0cfad,64d2fd46c836a06233681665,64dc7e9cb1882173e1f02f9b,,,,,,,sngl,resources/Empty.png,resources/DY.BMP,Door3,0.176666705,0.017499987,1,0,0,0.83,optionRight,70,14030,6,41,0,41,0,1,,,,,,,,,,,,,,,,,,,,,,,,,,,,,,,,,,,,,,,
,,,,,,,,2023-08-16_08h47.03.565,HF_wild_card,2022.2.4,Win32,59.65519298,5af4579eb625f70001e0cfad,64d2fd46c836a06233681665,64dc7e9cb1882173e1f02f9b,,,,,,,decisionTrl,resources/DBN.BMP,resources/DB.BMP,Door2,0.152500025,0.041666667,1,0,0,1.0477,optionRight,20,14050,6,42,0,42,0,1,,,,,,,,,,,,,,,,,,,,,,,,,,,,,,,,,,,,,,,
,,,,,,,,2023-08-16_08h47.03.565,HF_wild_card,2022.2.4,Win32,59.65519298,5af4579eb625f70001e0cfad,64d2fd46c836a06233681665,64dc7e9cb1882173e1f02f9b,,,,,,,sngl,resources/Empty.png,resources/DP.BMP,WildCard_NonEx,0.177500025,0.029166667,1,0,0,0.7982,optionRight,45,14095,6,43,0,43,0,1,,,,,,,,,,,,,,,,,,,,,,,,,,,,,,,,,,,,,,,
,,,,,,,,2023-08-16_08h47.03.565,HF_wild_card,2022.2.4,Win32,59.65519298,5af4579eb625f70001e0cfad,64d2fd46c836a06233681665,64dc7e9cb1882173e1f02f9b,,,,,,,,,,,,,,,,,,,,,,,,,,5,0,5,0,1,,,,,,,,,,,,,,,,,,,,,,,,,,,,,,,,,,
,,,,,,,,2023-08-16_08h47.03.565,HF_wild_card,2022.2.4,Win32,59.65519298,5af4579eb625f70001e0cfad,64d2fd46c836a06233681665,64dc7e9cb1882173e1f02f9b,,,,,,,decisionTrl,resources/DBN.BMP,resources/DB.BMP,Door2,0.274166743,-0.144166692,1,0,0,1.1994,optionRight,20,14115,7,0,0,0,0,1,,,,,,,,,,,,,,,,,,,,,,,,,,,,,,,,,,,,,,,
,,,,,,,,2023-08-16_08h47.03.565,HF_wild_card,2022.2.4,Win32,59.65519298,5af4579eb625f70001e0cfad,64d2fd46c836a06233681665,64dc7e9cb1882173e1f02f9b,,,,,,,ctch,resources/DBN.BMP,resources/DG.BMP,Door4,0.215000025,0.027499994,1,0,0,0.8974,optionRight,60,14175,7,1,0,1,0,1,,,,,,,,,,,,,,,,,,,,,,,,,,,,,,,,,,,,,,,
,,,,,,,,2023-08-16_08h47.03.565,HF_wild_card,2022.2.4,Win32,59.65519298,5af4579eb625f70001e0cfad,64d2fd46c836a06233681665,64dc7e9cb1882173e1f02f9b,,,,,,,decisionTrl,resources/DB.BMP,resources/DBN.BMP,Door2,-0.194166629,0.016666667,1,0,0,0.7321,optionLeft,20,14195,7,2,0,2,0,1,,,,,,,,,,,,,,,,,,,,,,,,,,,,,,,,,,,,,,,
,,,,,,,,2023-08-16_08h47.03.565,HF_wild_card,2022.2.4,Win32,59.65519298,5af4579eb625f70001e0cfad,64d2fd46c836a06233681665,64dc7e9cb1882173e1f02f9b,,,,,,,decisionTrl,resources/DY.BMP,resources/DG.BMP,Door3,-0.135833295,0.014999994,1,0,0,0.7152,optionLeft,70,14265,7,3,0,3,0,1,,,,,,,,,,,,,,,,,,,,,,,,,,,,,,,,,,,,,,,
,,,,,,,,2023-08-16_08h47.03.565,HF_wild_card,2022.2.4,Win32,59.65519298,5af4579eb625f70001e0cfad,64d2fd46c836a06233681665,64dc7e9cb1882173e1f02f9b,,,,,,,decisionTrl,resources/DG.BMP,resources/DY.BMP,Door3,0.195833333,-0.00583334,1,0,0,0.7155,optionRight,70,14335,7,4,0,4,0,1,,,,,,,,,,,,,,,,,,,,,,,,,,,,,,,,,,,,,,,
,,,,,,,,2023-08-16_08h47.03.565,HF_wild_card,2022.2.4,Win32,59.65519298,5af4579eb625f70001e0cfad,64d2fd46c836a06233681665,64dc7e9cb1882173e1f02f9b,,,,,,,ctch,resources/DB.BMP,resources/DY.BMP,Door3,0.209166654,-0.003333346,1,0,0,0.7495,optionRight,70,14405,7,5,0,5,0,1,,,,,,,,,,,,,,,,,,,,,,,,,,,,,,,,,,,,,,,
,,,,,,,,2023-08-16_08h47.03.565,HF_wild_card,2022.2.4,Win32,59.65519298,5af4579eb625f70001e0cfad,64d2fd46c836a06233681665,64dc7e9cb1882173e1f02f9b,,,,,,,decisionTrl,resources/DY.BMP,resources/DG.BMP,Door3,-0.164166641,0.013333321,1,0,0,0.6657,optionLeft,70,14475,7,6,0,6,0,1,,,,,,,,,,,,,,,,,,,,,,,,,,,,,,,,,,,,,,,
,,,,,,,,2023-08-16_08h47.03.565,HF_wild_card,2022.2.4,Win32,59.65519298,5af4579eb625f70001e0cfad,64d2fd46c836a06233681665,64dc7e9cb1882173e1f02f9b,,,,,,,decisionTrl,resources/DBN.BMP,resources/DB.BMP,Door2,0.189166705,0.004166667,1,0,0,0.9663,optionRight,40,14515,7,7,0,7,0,1,,,,,,,,,,,,,,,,,,,,,,,,,,,,,,,,,,,,,,,
,,,,,,,,2023-08-16_08h47.03.565,HF_wild_card,2022.2.4,Win32,59.65519298,5af4579eb625f70001e0cfad,64d2fd46c836a06233681665,64dc7e9cb1882173e1f02f9b,,,,,,,decisionTrl,resources/DB.BMP,resources/DBN.BMP,Door2,-0.204166667,0.000833321,1,0,0,0.699,optionLeft,20,14535,7,8,0,8,0,1,,,,,,,,,,,,,,,,,,,,,,,,,,,,,,,,,,,,,,,
,,,,,,,,2023-08-16_08h47.03.565,HF_wild_card,2022.2.4,Win32,59.65519298,5af4579eb625f70001e0cfad,64d2fd46c836a06233681665,64dc7e9cb1882173e1f02f9b,,,,,,,decisionTrl,resources/DY.BMP,resources/DG.BMP,Door3,-0.167499987,0.01916666,1,0,0,0.649,optionLeft,70,14605,7,9,0,9,0,1,,,,,,,,,,,,,,,,,,,,,,,,,,,,,,,,,,,,,,,
,,,,,,,,2023-08-16_08h47.03.565,HF_wild_card,2022.2.4,Win32,59.65519298,5af4579eb625f70001e0cfad,64d2fd46c836a06233681665,64dc7e9cb1882173e1f02f9b,,,,,,,decisionTrl,resources/DG.BMP,resources/DY.BMP,Door3,0.120833333,0.01916666,1,0,0,0.8321,optionRight,70,14675,7,10,0,10,0,1,,,,,,,,,,,,,,,,,,,,,,,,,,,,,,,,,,,,,,,
,,,,,,,,2023-08-16_08h47.03.565,HF_wild_card,2022.2.4,Win32,59.65519298,5af4579eb625f70001e0cfad,64d2fd46c836a06233681665,64dc7e9cb1882173e1f02f9b,,,,,,,decisionTrl,resources/DG.BMP,resources/DY.BMP,Door3,0.145833333,-0.00666666,1,0,0,0.7999,optionRight,70,14745,7,11,0,11,0,1,,,,,,,,,,,,,,,,,,,,,,,,,,,,,,,,,,,,,,,
,,,,,,,,2023-08-16_08h47.03.565,HF_wild_card,2022.2.4,Win32,59.65519298,5af4579eb625f70001e0cfad,64d2fd46c836a06233681665,64dc7e9cb1882173e1f02f9b,,,,,,,decisionTrl,resources/DG.BMP,resources/DY.BMP,Door3,0.194166692,-0.001666673,1,0,0,0.7332,optionRight,70,14815,7,12,0,12,0,1,,,,,,,,,,,,,,,,,,,,,,,,,,,,,,,,,,,,,,,
,,,,,,,,2023-08-16_08h47.03.565,HF_wild_card,2022.2.4,Win32,59.65519298,5af4579eb625f70001e0cfad,64d2fd46c836a06233681665,64dc7e9cb1882173e1f02f9b,,,,,,,ctch,resources/DBN.BMP,resources/DG.BMP,Door4,0.184166654,0.003333314,1,0,0,1.0326,optionRight,60,14875,7,13,0,13,0,1,,,,,,,,,,,,,,,,,,,,,,,,,,,,,,,,,,,,,,,
,,,,,,,,2023-08-16_08h47.03.565,HF_wild_card,2022.2.4,Win32,59.65519298,5af4579eb625f70001e0cfad,64d2fd46c836a06233681665,64dc7e9cb1882173e1f02f9b,,,,,,,decisionTrl,resources/DG.BMP,resources/DY.BMP,Door3,0.143333371,0.011666648,1,0,0,0.8829,optionRight,70,14945,7,14,0,14,0,1,,,,,,,,,,,,,,,,,,,,,,,,,,,,,,,,,,,,,,,
,,,,,,,,2023-08-16_08h47.03.565,HF_wild_card,2022.2.4,Win32,59.65519298,5af4579eb625f70001e0cfad,64d2fd46c836a06233681665,64dc7e9cb1882173e1f02f9b,,,,,,,decisionTrl,resources/DY.BMP,resources/DG.BMP,Door3,-0.146666654,0.0125,1,0,0,0.7157,optionLeft,70,15015,7,15,0,15,0,1,,,,,,,,,,,,,,,,,,,,,,,,,,,,,,,,,,,,,,,
,,,,,,,,2023-08-16_08h47.03.565,HF_wild_card,2022.2.4,Win32,59.65519298,5af4579eb625f70001e0cfad,64d2fd46c836a06233681665,64dc7e9cb1882173e1f02f9b,,,,,,,ctch,resources/DG.BMP,resources/DBN.BMP,Door4,-0.220833333,-0.016666667,1,0,0,1.399,optionLeft,60,15075,7,16,0,16,0,1,,,,,,,,,,,,,,,,,,,,,,,,,,,,,,,,,,,,,,,
,,,,,,,,2023-08-16_08h47.03.565,HF_wild_card,2022.2.4,Win32,59.65519298,5af4579eb625f70001e0cfad,64d2fd46c836a06233681665,64dc7e9cb1882173e1f02f9b,,,,,,,ctch,resources/DB.BMP,resources/DY.BMP,Door3,0.155833371,-0.010833327,1,0,0,0.9495,optionRight,70,15145,7,17,0,17,0,1,,,,,,,,,,,,,,,,,,,,,,,,,,,,,,,,,,,,,,,
,,,,,,,,2023-08-16_08h47.03.565,HF_wild_card,2022.2.4,Win32,59.65519298,5af4579eb625f70001e0cfad,64d2fd46c836a06233681665,64dc7e9cb1882173e1f02f9b,,,,,,,decisionTrl,resources/DB.BMP,resources/DBN.BMP,Door2,-0.185833295,-0.004166667,1,0,0,0.8658,optionLeft,40,15185,7,18,0,18,0,1,,,,,,,,,,,,,,,,,,,,,,,,,,,,,,,,,,,,,,,
,,,,,,,,2023-08-16_08h47.03.565,HF_wild_card,2022.2.4,Win32,59.65519298,5af4579eb625f70001e0cfad,64d2fd46c836a06233681665,64dc7e9cb1882173e1f02f9b,,,,,,,decisionTrl,resources/DBN.BMP,resources/DB.BMP,Door2,0.156666692,0,1,0,0,0.7319,optionRight,20,15205,7,19,0,19,0,1,,,,,,,,,,,,,,,,,,,,,,,,,,,,,,,,,,,,,,,
,,,,,,,,2023-08-16_08h47.03.565,HF_wild_card,2022.2.4,Win32,59.65519298,5af4579eb625f70001e0cfad,64d2fd46c836a06233681665,64dc7e9cb1882173e1f02f9b,,,,,,,decisionTrl,resources/DBN.BMP,resources/DB.BMP,Door2,0.142499987,-0.005000019,1,0,0,0.7817,optionRight,40,15245,7,20,0,20,0,1,,,,,,,,,,,,,,,,,,,,,,,,,,,,,,,,,,,,,,,
,,,,,,,,2023-08-16_08h47.03.565,HF_wild_card,2022.2.4,Win32,59.65519298,5af4579eb625f70001e0cfad,64d2fd46c836a06233681665,64dc7e9cb1882173e1f02f9b,,,,,,,decisionTrl,resources/DY.BMP,resources/DG.BMP,Door3,-0.200833321,0.024166648,1,0,0,0.6327,optionLeft,70,15315,7,21,0,21,0,1,,,,,,,,,,,,,,,,,,,,,,,,,,,,,,,,,,,,,,,
,,,,,,,,2023-08-16_08h47.03.565,HF_wild_card,2022.2.4,Win32,59.65519298,5af4579eb625f70001e0cfad,64d2fd46c836a06233681665,64dc7e9cb1882173e1f02f9b,,,,,,,ctch,resources/DBN.BMP,resources/DG.BMP,Door4,0.200833321,-0.00666666,1,0,0,0.9822,optionRight,80,15395,7,22,0,22,0,1,,,,,,,,,,,,,,,,,,,,,,,,,,,,,,,,,,,,,,,
,,,,,,,,2023-08-16_08h47.03.565,HF_wild_card,2022.2.4,Win32,59.65519298,5af4579eb625f70001e0cfad,64d2fd46c836a06233681665,64dc7e9cb1882173e1f02f9b,,,,,,,ctch,resources/DG.BMP,resources/DBN.BMP,Door4,-0.214999962,0.0125,1,0,0,0.7156,optionLeft,60,15455,7,23,0,23,0,1,,,,,,,,,,,,,,,,,,,,,,,,,,,,,,,,,,,,,,,
,,,,,,,,2023-08-16_08h47.03.565,HF_wild_card,2022.2.4,Win32,59.65519298,5af4579eb625f70001e0cfad,64d2fd46c836a06233681665,64dc7e9cb1882173e1f02f9b,,,,,,,decisionTrl,resources/DG.BMP,resources/DY.BMP,Door3,0.172500038,0.014999994,1,0,0,0.8826,optionRight,70,15525,7,24,0,24,0,1,,,,,,,,,,,,,,,,,,,,,,,,,,,,,,,,,,,,,,,
,,,,,,,,2023-08-16_08h47.03.565,HF_wild_card,2022.2.4,Win32,59.65519298,5af4579eb625f70001e0cfad,64d2fd46c836a06233681665,64dc7e9cb1882173e1f02f9b,,,,,,,ctch,resources/DG.BMP,resources/DBN.BMP,Door4,-0.147499975,0.013333321,1,0,0,1.3155,optionLeft,60,15585,7,25,0,25,0,1,,,,,,,,,,,,,,,,,,,,,,,,,,,,,,,,,,,,,,,
,,,,,,,,2023-08-16_08h47.03.565,HF_wild_card,2022.2.4,Win32,59.65519298,5af4579eb625f70001e0cfad,64d2fd46c836a06233681665,64dc7e9cb1882173e1f02f9b,,,,,,,ctch,resources/DY.BMP,resources/DB.BMP,Door3,-0.150833321,0.004999987,1,0,0,1.0651,optionLeft,70,15655,7,26,0,26,0,1,,,,,,,,,,,,,,,,,,,,,,,,,,,,,,,,,,,,,,,
,,,,,,,,2023-08-16_08h47.03.565,HF_wild_card,2022.2.4,Win32,59.65519298,5af4579eb625f70001e0cfad,64d2fd46c836a06233681665,64dc7e9cb1882173e1f02f9b,,,,,,,decisionTrl,resources/DB.BMP,resources/DBN.BMP,Door2,-0.179166667,0.010000006,1,0,0,0.7319,optionLeft,40,15695,7,27,0,27,0,1,,,,,,,,,,,,,,,,,,,,,,,,,,,,,,,,,,,,,,,
,,,,,,,,2023-08-16_08h47.03.565,HF_wild_card,2022.2.4,Win32,59.65519298,5af4579eb625f70001e0cfad,64d2fd46c836a06233681665,64dc7e9cb1882173e1f02f9b,,,,,,,decisionTrl,resources/DBN.BMP,resources/DB.BMP,Door2,0.211666679,0.002499994,1,0,0,0.8161,optionRight,20,15715,7,28,0,28,0,1,,,,,,,,,,,,,,,,,,,,,,,,,,,,,,,,,,,,,,,
,,,,,,,,2023-08-16_08h47.03.565,HF_wild_card,2022.2.4,Win32,59.65519298,5af4579eb625f70001e0cfad,64d2fd46c836a06233681665,64dc7e9cb1882173e1f02f9b,,,,,,,ctch,resources/DY.BMP,resources/DB.BMP,Door3,-0.196666654,0.023333327,1,0,0,0.6986,optionLeft,70,15785,7,29,0,29,0,1,,,,,,,,,,,,,,,,,,,,,,,,,,,,,,,,,,,,,,,
,,,,,,,,2023-08-16_08h47.03.565,HF_wild_card,2022.2.4,Win32,59.65519298,5af4579eb625f70001e0cfad,64d2fd46c836a06233681665,64dc7e9cb1882173e1f02f9b,,,,,,,ctch,resources/DB.BMP,resources/DY.BMP,Door3,0.181666692,0.008333333,1,0,0,0.7324,optionRight,70,15855,7,30,0,30,0,1,,,,,,,,,,,,,,,,,,,,,,,,,,,,,,,,,,,,,,,
,,,,,,,,2023-08-16_08h47.03.565,HF_wild_card,2022.2.4,Win32,59.65519298,5af4579eb625f70001e0cfad,64d2fd46c836a06233681665,64dc7e9cb1882173e1f02f9b,,,,,,,ctch,resources/DY.BMP,resources/DB.BMP,Door3,-0.147499975,0.021666654,1,0,0,0.6331,optionLeft,70,15925,7,31,0,31,0,1,,,,,,,,,,,,,,,,,,,,,,,,,,,,,,,,,,,,,,,
,,,,,,,,2023-08-16_08h47.03.565,HF_wild_card,2022.2.4,Win32,59.65519298,5af4579eb625f70001e0cfad,64d2fd46c836a06233681665,64dc7e9cb1882173e1f02f9b,,,,,,,decisionTrl,resources/DB.BMP,resources/DBN.BMP,Door2,-0.179999987,0.0125,1,0,0,0.8991,optionLeft,40,15965,7,32,0,32,0,1,,,,,,,,,,,,,,,,,,,,,,,,,,,,,,,,,,,,,,,
,,,,,,,,2023-08-16_08h47.03.565,HF_wild_card,2022.2.4,Win32,59.65519298,5af4579eb625f70001e0cfad,64d2fd46c836a06233681665,64dc7e9cb1882173e1f02f9b,,,,,,,decisionTrl,resources/DY.BMP,resources/DG.BMP,Door3,-0.205833308,0.029166667,1,0,0,0.6488,optionLeft,70,16035,7,33,0,33,0,1,,,,,,,,,,,,,,,,,,,,,,,,,,,,,,,,,,,,,,,
,,,,,,,,2023-08-16_08h47.03.565,HF_wild_card,2022.2.4,Win32,59.65519298,5af4579eb625f70001e0cfad,64d2fd46c836a06233681665,64dc7e9cb1882173e1f02f9b,,,,,,,decisionTrl,resources/DBN.BMP,resources/DB.BMP,Door2,0.2625,0.025833321,1,0,0,0.949,optionRight,40,16075,7,34,0,34,0,1,,,,,,,,,,,,,,,,,,,,,,,,,,,,,,,,,,,,,,,
,,,,,,,,2023-08-16_08h47.03.565,HF_wild_card,2022.2.4,Win32,59.65519298,5af4579eb625f70001e0cfad,64d2fd46c836a06233681665,64dc7e9cb1882173e1f02f9b,,,,,,,decisionTrl,resources/DB.BMP,resources/DBN.BMP,Door2,-0.154999987,0,1,0,0,0.7155,optionLeft,40,16115,7,35,0,35,0,1,,,,,,,,,,,,,,,,,,,,,,,,,,,,,,,,,,,,,,,
,,,,,,,,2023-08-16_08h47.03.565,HF_wild_card,2022.2.4,Win32,59.65519298,5af4579eb625f70001e0cfad,64d2fd46c836a06233681665,64dc7e9cb1882173e1f02f9b,,,,,,,,,,,,,,,,,,,,,,,,,,6,0,6,0,1,,,,,,,,,,,,,,,,,,,,,,,,,,,,,,,,,,
,,,,,,,,2023-08-16_08h47.03.565,HF_wild_card,2022.2.4,Win32,59.65519298,5af4579eb625f70001e0cfad,64d2fd46c836a06233681665,64dc7e9cb1882173e1f02f9b,,,,,,,,,,,,,,,,,,,,,,,,,,,,,,,4,,,,,,,,,,,,,,,,,,,,,,,,,,,,,,,,,
,,,,,,,,2023-08-16_08h47.03.565,HF_wild_card,2022.2.4,Win32,59.65519298,5af4579eb625f70001e0cfad,64d2fd46c836a06233681665,64dc7e9cb1882173e1f02f9b,,,,,,,,,,,,,,,,,,,,,,,,,,,,,,,,,,,,,,,,,,,,,,,,,,,,,,,,,,,,,,,,
,,,,,,,,2023-08-16_08h47.03.565,HF_wild_card,2022.2.4,Win32,59.65519298,5af4579eb625f70001e0cfad,64d2fd46c836a06233681665,64dc7e9cb1882173e1f02f9b,,,,,,,,,,,,,,,,,,,,,,,,,,,,,,,,45,Door1,resources/DBN.BMP,0,0,0,0,1,,,,,,,,,,,,,,,,,,,,,,,,,
,,,,,,,,2023-08-16_08h47.03.565,HF_wild_card,2022.2.4,Win32,59.65519298,5af4579eb625f70001e0cfad,64d2fd46c836a06233681665,64dc7e9cb1882173e1f02f9b,,,,,,,,,,,,,,,,,,,,,,,,,,,,,,,,65,Door4,resources/DG.BMP,1,0,1,0,1,,,,,,,,,,,,,,,,,,,,,,,,,
,,,,,,,,2023-08-16_08h47.03.565,HF_wild_card,2022.2.4,Win32,59.65519298,5af4579eb625f70001e0cfad,64d2fd46c836a06233681665,64dc7e9cb1882173e1f02f9b,,,,,,,,,,,,,,,,,,,,,,,,,,,,,,,,35,WC_extreme,resources/DR.BMP,2,0,2,0,1,,,,,,,,,,,,,,,,,,,,,,,,,
,,,,,,,,2023-08-16_08h47.03.565,HF_wild_card,2022.2.4,Win32,59.65519298,5af4579eb625f70001e0cfad,64d2fd46c836a06233681665,64dc7e9cb1882173e1f02f9b,,,,,,,,,,,,,,,,,,,,,,,,,,,,,,,,65,WC_nonExtreme,resources/DP.BMP,3,0,3,0,1,,,,,,,,,,,,,,,,,,,,,,,,,
,,,,,,,,2023-08-16_08h47.03.565,HF_wild_card,2022.2.4,Win32,59.65519298,5af4579eb625f70001e0cfad,64d2fd46c836a06233681665,64dc7e9cb1882173e1f02f9b,,,,,,,,,,,,,,,,,,,,,,,,,,,,,,,,65,Door3,resources/DY.BMP,4,0,4,0,1,,,,,,,,,,,,,,,,,,,,,,,,,
,,,,,,,,2023-08-16_08h47.03.565,HF_wild_card,2022.2.4,Win32,59.65519298,5af4579eb625f70001e0cfad,64d2fd46c836a06233681665,64dc7e9cb1882173e1f02f9b,,,,,,,,,,,,,,,,,,,,,,,,,,,,,,,,45,Door2,resources/DB.BMP,5,0,5,0,1,,,,,,,,,,,,,,,,,,,,,,,,,
,,,,,,,,2023-08-16_08h47.03.565,HF_wild_card,2022.2.4,Win32,59.65519298,5af4579eb625f70001e0cfad,64d2fd46c836a06233681665,64dc7e9cb1882173e1f02f9b,,,,,,,,,,,,,,,,,,,,,,,,,,,,,,,,,,,,,,,,,,,,,,,,,,,,,,,,,,,,,,,,
,,,,,,,,2023-08-16_08h47.03.565,HF_wild_card,2022.2.4,Win32,59.65519298,5af4579eb625f70001e0cfad,64d2fd46c836a06233681665,64dc7e9cb1882173e1f02f9b,,,,,,,,,,,,,,,,,,,,,,,,,,,,,,,,,,,,,,,,0,0,0,0,1,,,,,,,,,,,,,,,,,,,,
