Condition,Low fixed image (Door1),Low risky image (Door2),High fixed image (Door3),High risky image (Door4),NonExtreme Wild Card 1,NonExtreme Wild Card 2,,date,expName,psychopyVersion,OS,frameRate,PROLIFIC_PID,STUDY_ID,SESSION_ID,mouse_2.x,mouse_2.y,mouse_2.leftButton,mouse_2.midButton,mouse_2.rightButton,mouse_2.clicked_name,Trial Type,Left Option Image,Right Option Image,Chosen Door,mouse.x,mouse.y,mouse.leftButton,mouse.midButton,mouse.rightButton,mouse.time,mouse.clicked_name,Feedback,Cumulative Reward,Block,trial.thisRepN,trial.thisTrialN,trial.thisN,trial.thisIndex,trial.ran,blocks.thisRepN,blocks.thisTrialN,blocks.thisN,blocks.thisIndex,blocks.ran,Money conversion,First Outcome Reported,Shown Door (First Outcome),Displayed Image (First Outcome),outcomes.thisRepN,outcomes.thisTrialN,outcomes.thisN,outcomes.thisIndex,outcomes.ran,judgments.thisRepN,judgments.thisTrialN,judgments.thisN,judgments.thisIndex,judgments.ran,freqMouse.x,freqMouse.y,freqMouse.leftButton,freqMouse.midButton,freqMouse.rightButton,freqMouse.clicked_name,FQJ for first outcome,FQJ for second outcome,Shown Door,Displayed Image,trials.thisRepN,trials.thisTrialN,trials.thisN,trials.thisIndex,trials.ran,judgBlock.thisRepN,judgBlock.thisTrialN,judgBlock.thisN,judgBlock.thisIndex,judgBlock.ran
2,resources/DY.BMP,resources/DP.BMP,resources/DR.BMP,resources/DB.BMP,resources/DG.BMP,resources/DBN.BMP,,2023-08-16_08h33.48.970,HF_wild_card,2022.2.4,Win32,144.9485433,64007622a1b9dbf7a50405cb,64d2fd46c836a06233681665,64dc7bc7cd581e52bf779d47,,,,,,,,,,,,,,,,,,,,,,,,,,,,,,,,,,,,,,,,,,,,,,,,,,,,,,,,,,,,,,,,
,,,,,,,,2023-08-16_08h33.48.970,HF_wild_card,2022.2.4,Win32,144.9485433,64007622a1b9dbf7a50405cb,64d2fd46c836a06233681665,64dc7bc7cd581e52bf779d47,0.015740741,-0.423148148,1,0,0,agree,,,,,,,,,,,,,,,,,,,,,,,,,,,,,,,,,,,,,,,,,,,,,,,,,,,,,,,,,,
,,,,,,,,2023-08-16_08h33.48.970,HF_wild_card,2022.2.4,Win32,144.9485433,64007622a1b9dbf7a50405cb,64d2fd46c836a06233681665,64dc7bc7cd581e52bf779d47,,,,,,,,,,,,,,,,,,,,,,,,,,,,,,,,,,,,,,,,,,,,,,,,,,,,,,,,,,,,,,,,
,,,,,,,,2023-08-16_08h33.48.970,HF_wild_card,2022.2.4,Win32,144.9485433,64007622a1b9dbf7a50405cb,64d2fd46c836a06233681665,64dc7bc7cd581e52bf779d47,,,,,,,ctch,resources/DB.BMP,resources/DY.BMP,Door4,-0.410185185,-0.056481481,1,0,0,2.9211,optionLeft,60,60,1,0,0,0,0,1,,,,,,,,,,,,,,,,,,,,,,,,,,,,,,,,,,,,,,,
,,,,,,,,2023-08-16_08h33.48.970,HF_wild_card,2022.2.4,Win32,144.9485433,64007622a1b9dbf7a50405cb,64d2fd46c836a06233681665,64dc7bc7cd581e52bf779d47,,,,,,,sngl,resources/DR.BMP,resources/Empty.png,Door3,-0.387962963,-0.042592593,1,0,0,2.7618,optionLeft,70,130,1,1,0,1,0,1,,,,,,,,,,,,,,,,,,,,,,,,,,,,,,,,,,,,,,,
,,,,,,,,2023-08-16_08h33.48.970,HF_wild_card,2022.2.4,Win32,144.9485433,64007622a1b9dbf7a50405cb,64d2fd46c836a06233681665,64dc7bc7cd581e52bf779d47,,,,,,,decisionTrl,resources/DY.BMP,resources/DP.BMP,Door1,-0.437962963,-0.025925926,1,0,0,2.0462,optionLeft,30,160,1,2,0,2,0,1,,,,,,,,,,,,,,,,,,,,,,,,,,,,,,,,,,,,,,,
,,,,,,,,2023-08-16_08h33.48.970,HF_wild_card,2022.2.4,Win32,144.9485433,64007622a1b9dbf7a50405cb,64d2fd46c836a06233681665,64dc7bc7cd581e52bf779d47,,,,,,,decisionTrl,resources/DY.BMP,resources/DP.BMP,Door1,-0.417592593,0.014814815,1,0,0,1.6862,optionLeft,30,190,1,3,0,3,0,1,,,,,,,,,,,,,,,,,,,,,,,,,,,,,,,,,,,,,,,
,,,,,,,,2023-08-16_08h33.48.970,HF_wild_card,2022.2.4,Win32,144.9485433,64007622a1b9dbf7a50405cb,64d2fd46c836a06233681665,64dc7bc7cd581e52bf779d47,,,,,,,decisionTrl,resources/DB.BMP,resources/DR.BMP,Door4,-0.337962963,-0.037962963,1,0,0,1.165,optionLeft,60,250,1,4,0,4,0,1,,,,,,,,,,,,,,,,,,,,,,,,,,,,,,,,,,,,,,,
,,,,,,,,2023-08-16_08h33.48.970,HF_wild_card,2022.2.4,Win32,144.9485433,64007622a1b9dbf7a50405cb,64d2fd46c836a06233681665,64dc7bc7cd581e52bf779d47,,,,,,,ctch,resources/DB.BMP,resources/DY.BMP,Door1,0.374074074,-0.033333333,1,0,0,2.6094,optionRight,30,280,1,5,0,5,0,1,,,,,,,,,,,,,,,,,,,,,,,,,,,,,,,,,,,,,,,
,,,,,,,,2023-08-16_08h33.48.970,HF_wild_card,2022.2.4,Win32,144.9485433,64007622a1b9dbf7a50405cb,64d2fd46c836a06233681665,64dc7bc7cd581e52bf779d47,,,,,,,decisionTrl,resources/DP.BMP,resources/DY.BMP,Door2,-0.361111111,-0.048148148,1,0,0,2.1199,optionLeft,40,320,1,6,0,6,0,1,,,,,,,,,,,,,,,,,,,,,,,,,,,,,,,,,,,,,,,
,,,,,,,,2023-08-16_08h33.48.970,HF_wild_card,2022.2.4,Win32,144.9485433,64007622a1b9dbf7a50405cb,64d2fd46c836a06233681665,64dc7bc7cd581e52bf779d47,,,,,,,decisionTrl,resources/DBN.BMP,resources/DB.BMP,WildCard_NonEx,-0.334259259,-0.038888889,1,0,0,1.2902,optionLeft,55,375,1,7,0,7,0,1,,,,,,,,,,,,,,,,,,,,,,,,,,,,,,,,,,,,,,,
,,,,,,,,2023-08-16_08h33.48.970,HF_wild_card,2022.2.4,Win32,144.9485433,64007622a1b9dbf7a50405cb,64d2fd46c836a06233681665,64dc7bc7cd581e52bf779d47,,,,,,,ctch,resources/DY.BMP,resources/DB.BMP,Door4,0.334259259,-0.033333333,1,0,0,1.3869,optionRight,80,455,1,8,0,8,0,1,,,,,,,,,,,,,,,,,,,,,,,,,,,,,,,,,,,,,,,
,,,,,,,,2023-08-16_08h33.48.970,HF_wild_card,2022.2.4,Win32,144.9485433,64007622a1b9dbf7a50405cb,64d2fd46c836a06233681665,64dc7bc7cd581e52bf779d47,,,,,,,decisionTrl,resources/DY.BMP,resources/DBN.BMP,WildCard_NonEx,0.366666667,-0.025925926,1,0,0,1.1445,optionRight,45,500,1,9,0,9,0,1,,,,,,,,,,,,,,,,,,,,,,,,,,,,,,,,,,,,,,,
,,,,,,,,2023-08-16_08h33.48.970,HF_wild_card,2022.2.4,Win32,144.9485433,64007622a1b9dbf7a50405cb,64d2fd46c836a06233681665,64dc7bc7cd581e52bf779d47,,,,,,,decisionTrl,resources/DR.BMP,resources/DB.BMP,Door4,0.318518519,-0.021296296,1,0,0,1.3111,optionRight,80,580,1,10,0,10,0,1,,,,,,,,,,,,,,,,,,,,,,,,,,,,,,,,,,,,,,,
,,,,,,,,2023-08-16_08h33.48.970,HF_wild_card,2022.2.4,Win32,144.9485433,64007622a1b9dbf7a50405cb,64d2fd46c836a06233681665,64dc7bc7cd581e52bf779d47,,,,,,,decisionTrl,resources/DR.BMP,resources/DB.BMP,Door4,0.27037037,-0.019444444,1,0,0,0.7837,optionRight,60,640,1,11,0,11,0,1,,,,,,,,,,,,,,,,,,,,,,,,,,,,,,,,,,,,,,,
,,,,,,,,2023-08-16_08h33.48.970,HF_wild_card,2022.2.4,Win32,144.9485433,64007622a1b9dbf7a50405cb,64d2fd46c836a06233681665,64dc7bc7cd581e52bf779d47,,,,,,,ctch,resources/DY.BMP,resources/DB.BMP,Door1,-0.321296296,-0.049074074,1,0,0,1.0335,optionLeft,30,670,1,12,0,12,0,1,,,,,,,,,,,,,,,,,,,,,,,,,,,,,,,,,,,,,,,
,,,,,,,,2023-08-16_08h33.48.970,HF_wild_card,2022.2.4,Win32,144.9485433,64007622a1b9dbf7a50405cb,64d2fd46c836a06233681665,64dc7bc7cd581e52bf779d47,,,,,,,sngl,resources/Empty.png,resources/DP.BMP,Door2,0.303703704,-0.044444444,1,0,0,1.4152,optionRight,20,690,1,13,0,13,0,1,,,,,,,,,,,,,,,,,,,,,,,,,,,,,,,,,,,,,,,
,,,,,,,,2023-08-16_08h33.48.970,HF_wild_card,2022.2.4,Win32,144.9485433,64007622a1b9dbf7a50405cb,64d2fd46c836a06233681665,64dc7bc7cd581e52bf779d47,,,,,,,sngl,resources/DB.BMP,resources/Empty.png,Door4,-0.343518519,-0.047222222,1,0,0,0.8593,optionLeft,80,770,1,14,0,14,0,1,,,,,,,,,,,,,,,,,,,,,,,,,,,,,,,,,,,,,,,
,,,,,,,,2023-08-16_08h33.48.970,HF_wild_card,2022.2.4,Win32,144.9485433,64007622a1b9dbf7a50405cb,64d2fd46c836a06233681665,64dc7bc7cd581e52bf779d47,,,,,,,sngl,resources/DBN.BMP,resources/Empty.png,WildCard_NonEx,-0.376851852,-0.038888889,1,0,0,1.0262,optionLeft,55,825,1,15,0,15,0,1,,,,,,,,,,,,,,,,,,,,,,,,,,,,,,,,,,,,,,,
,,,,,,,,2023-08-16_08h33.48.970,HF_wild_card,2022.2.4,Win32,144.9485433,64007622a1b9dbf7a50405cb,64d2fd46c836a06233681665,64dc7bc7cd581e52bf779d47,,,,,,,decisionTrl,resources/DP.BMP,resources/DY.BMP,Door2,-0.375925926,-0.022222222,1,0,0,1.0826,optionLeft,20,845,1,16,0,16,0,1,,,,,,,,,,,,,,,,,,,,,,,,,,,,,,,,,,,,,,,
,,,,,,,,2023-08-16_08h33.48.970,HF_wild_card,2022.2.4,Win32,144.9485433,64007622a1b9dbf7a50405cb,64d2fd46c836a06233681665,64dc7bc7cd581e52bf779d47,,,,,,,decisionTrl,resources/DBN.BMP,resources/DY.BMP,WildCard_NonEx,-0.347222222,-0.013888889,1,0,0,1.6862,optionLeft,45,890,1,17,0,17,0,1,,,,,,,,,,,,,,,,,,,,,,,,,,,,,,,,,,,,,,,
,,,,,,,,2023-08-16_08h33.48.970,HF_wild_card,2022.2.4,Win32,144.9485433,64007622a1b9dbf7a50405cb,64d2fd46c836a06233681665,64dc7bc7cd581e52bf779d47,,,,,,,decisionTrl,resources/DBN.BMP,resources/DR.BMP,WildCard_NonEx,-0.391666667,-0.044444444,1,0,0,0.9955,optionLeft,45,935,1,18,0,18,0,1,,,,,,,,,,,,,,,,,,,,,,,,,,,,,,,,,,,,,,,
,,,,,,,,2023-08-16_08h33.48.970,HF_wild_card,2022.2.4,Win32,144.9485433,64007622a1b9dbf7a50405cb,64d2fd46c836a06233681665,64dc7bc7cd581e52bf779d47,,,,,,,sngl,resources/DBN.BMP,resources/Empty.png,WildCard_NonEx,-0.544444444,-0.009259259,1,0,0,0.9568,optionLeft,45,980,1,19,0,19,0,1,,,,,,,,,,,,,,,,,,,,,,,,,,,,,,,,,,,,,,,
,,,,,,,,2023-08-16_08h33.48.970,HF_wild_card,2022.2.4,Win32,144.9485433,64007622a1b9dbf7a50405cb,64d2fd46c836a06233681665,64dc7bc7cd581e52bf779d47,,,,,,,sngl,resources/Empty.png,resources/DY.BMP,Door1,0.402777778,-0.050925926,1,0,0,1.4878,optionRight,30,1010,1,20,0,20,0,1,,,,,,,,,,,,,,,,,,,,,,,,,,,,,,,,,,,,,,,
,,,,,,,,2023-08-16_08h33.48.970,HF_wild_card,2022.2.4,Win32,144.9485433,64007622a1b9dbf7a50405cb,64d2fd46c836a06233681665,64dc7bc7cd581e52bf779d47,,,,,,,decisionTrl,resources/DY.BMP,resources/DP.BMP,Door1,-0.331481481,-0.040740741,1,0,0,3.2645,optionLeft,30,1040,1,21,0,21,0,1,,,,,,,,,,,,,,,,,,,,,,,,,,,,,,,,,,,,,,,
,,,,,,,,2023-08-16_08h33.48.970,HF_wild_card,2022.2.4,Win32,144.9485433,64007622a1b9dbf7a50405cb,64d2fd46c836a06233681665,64dc7bc7cd581e52bf779d47,,,,,,,ctch,resources/DR.BMP,resources/DP.BMP,Door3,-0.371296296,-0.05462963,1,0,0,1.7299,optionLeft,70,1110,1,22,0,22,0,1,,,,,,,,,,,,,,,,,,,,,,,,,,,,,,,,,,,,,,,
,,,,,,,,2023-08-16_08h33.48.970,HF_wild_card,2022.2.4,Win32,144.9485433,64007622a1b9dbf7a50405cb,64d2fd46c836a06233681665,64dc7bc7cd581e52bf779d47,,,,,,,decisionTrl,resources/DB.BMP,resources/DBN.BMP,Door4,-0.390740741,-0.066666667,1,0,0,1.8171,optionLeft,80,1190,1,23,0,23,0,1,,,,,,,,,,,,,,,,,,,,,,,,,,,,,,,,,,,,,,,
,,,,,,,,2023-08-16_08h33.48.970,HF_wild_card,2022.2.4,Win32,144.9485433,64007622a1b9dbf7a50405cb,64d2fd46c836a06233681665,64dc7bc7cd581e52bf779d47,,,,,,,sngl,resources/Empty.png,resources/DBN.BMP,WildCard_NonEx,0.269444444,-0.064814815,1,0,0,0.8806,optionRight,45,1235,1,24,0,24,0,1,,,,,,,,,,,,,,,,,,,,,,,,,,,,,,,,,,,,,,,
,,,,,,,,2023-08-16_08h33.48.970,HF_wild_card,2022.2.4,Win32,144.9485433,64007622a1b9dbf7a50405cb,64d2fd46c836a06233681665,64dc7bc7cd581e52bf779d47,,,,,,,decisionTrl,resources/DR.BMP,resources/DB.BMP,Door4,0.452777778,-0.099074074,1,0,0,3.1552,optionRight,60,1295,1,25,0,25,0,1,,,,,,,,,,,,,,,,,,,,,,,,,,,,,,,,,,,,,,,
,,,,,,,,2023-08-16_08h33.48.970,HF_wild_card,2022.2.4,Win32,144.9485433,64007622a1b9dbf7a50405cb,64d2fd46c836a06233681665,64dc7bc7cd581e52bf779d47,,,,,,,decisionTrl,resources/DP.BMP,resources/DBN.BMP,Door2,-0.341666667,-0.075,1,0,0,1.8946,optionLeft,20,1315,1,26,0,26,0,1,,,,,,,,,,,,,,,,,,,,,,,,,,,,,,,,,,,,,,,
,,,,,,,,2023-08-16_08h33.48.970,HF_wild_card,2022.2.4,Win32,144.9485433,64007622a1b9dbf7a50405cb,64d2fd46c836a06233681665,64dc7bc7cd581e52bf779d47,,,,,,,decisionTrl,resources/DR.BMP,resources/DB.BMP,Door4,0.438888889,-0.072222222,1,0,0,0.9085,optionRight,60,1375,1,27,0,27,0,1,,,,,,,,,,,,,,,,,,,,,,,,,,,,,,,,,,,,,,,
,,,,,,,,2023-08-16_08h33.48.970,HF_wild_card,2022.2.4,Win32,144.9485433,64007622a1b9dbf7a50405cb,64d2fd46c836a06233681665,64dc7bc7cd581e52bf779d47,,,,,,,decisionTrl,resources/DR.BMP,resources/DBN.BMP,Door3,-0.336111111,-0.063888889,1,0,0,1.0533,optionLeft,70,1445,1,28,0,28,0,1,,,,,,,,,,,,,,,,,,,,,,,,,,,,,,,,,,,,,,,
,,,,,,,,2023-08-16_08h33.48.970,HF_wild_card,2022.2.4,Win32,144.9485433,64007622a1b9dbf7a50405cb,64d2fd46c836a06233681665,64dc7bc7cd581e52bf779d47,,,,,,,decisionTrl,resources/DB.BMP,resources/DR.BMP,Door3,0.372222222,-0.041666667,1,0,0,1.5751,optionRight,70,1515,1,29,0,29,0,1,,,,,,,,,,,,,,,,,,,,,,,,,,,,,,,,,,,,,,,
,,,,,,,,2023-08-16_08h33.48.970,HF_wild_card,2022.2.4,Win32,144.9485433,64007622a1b9dbf7a50405cb,64d2fd46c836a06233681665,64dc7bc7cd581e52bf779d47,,,,,,,decisionTrl,resources/DY.BMP,resources/DP.BMP,Door1,-0.402777778,-0.111111111,1,0,0,1.4941,optionLeft,30,1545,1,30,0,30,0,1,,,,,,,,,,,,,,,,,,,,,,,,,,,,,,,,,,,,,,,
,,,,,,,,2023-08-16_08h33.48.970,HF_wild_card,2022.2.4,Win32,144.9485433,64007622a1b9dbf7a50405cb,64d2fd46c836a06233681665,64dc7bc7cd581e52bf779d47,,,,,,,decisionTrl,resources/DP.BMP,resources/DY.BMP,Door2,-0.343518519,-0.081481481,1,0,0,1.5336,optionLeft,20,1565,1,31,0,31,0,1,,,,,,,,,,,,,,,,,,,,,,,,,,,,,,,,,,,,,,,
,,,,,,,,2023-08-16_08h33.48.970,HF_wild_card,2022.2.4,Win32,144.9485433,64007622a1b9dbf7a50405cb,64d2fd46c836a06233681665,64dc7bc7cd581e52bf779d47,,,,,,,sngl,resources/DP.BMP,resources/Empty.png,Door2,-0.443518519,-0.056481481,1,0,0,0.7831,optionLeft,40,1605,1,32,0,32,0,1,,,,,,,,,,,,,,,,,,,,,,,,,,,,,,,,,,,,,,,
,,,,,,,,2023-08-16_08h33.48.970,HF_wild_card,2022.2.4,Win32,144.9485433,64007622a1b9dbf7a50405cb,64d2fd46c836a06233681665,64dc7bc7cd581e52bf779d47,,,,,,,decisionTrl,resources/DP.BMP,resources/DY.BMP,Door1,0.438888889,-0.096296296,1,0,0,1.0403,optionRight,30,1635,1,33,0,33,0,1,,,,,,,,,,,,,,,,,,,,,,,,,,,,,,,,,,,,,,,
,,,,,,,,2023-08-16_08h33.48.970,HF_wild_card,2022.2.4,Win32,144.9485433,64007622a1b9dbf7a50405cb,64d2fd46c836a06233681665,64dc7bc7cd581e52bf779d47,,,,,,,sngl,resources/Empty.png,resources/DR.BMP,Door3,0.258333333,-0.025,1,0,0,0.7838,optionRight,70,1705,1,34,0,34,0,1,,,,,,,,,,,,,,,,,,,,,,,,,,,,,,,,,,,,,,,
,,,,,,,,2023-08-16_08h33.48.970,HF_wild_card,2022.2.4,Win32,144.9485433,64007622a1b9dbf7a50405cb,64d2fd46c836a06233681665,64dc7bc7cd581e52bf779d47,,,,,,,ctch,resources/DP.BMP,resources/DR.BMP,Door2,-0.34537037,-0.067592593,1,0,0,1.2594,optionLeft,20,1725,1,35,0,35,0,1,,,,,,,,,,,,,,,,,,,,,,,,,,,,,,,,,,,,,,,
,,,,,,,,2023-08-16_08h33.48.970,HF_wild_card,2022.2.4,Win32,144.9485433,64007622a1b9dbf7a50405cb,64d2fd46c836a06233681665,64dc7bc7cd581e52bf779d47,,,,,,,sngl,resources/DY.BMP,resources/Empty.png,Door1,-0.313888889,-0.036111111,1,0,0,0.7515,optionLeft,30,1755,1,36,0,36,0,1,,,,,,,,,,,,,,,,,,,,,,,,,,,,,,,,,,,,,,,
,,,,,,,,2023-08-16_08h33.48.970,HF_wild_card,2022.2.4,Win32,144.9485433,64007622a1b9dbf7a50405cb,64d2fd46c836a06233681665,64dc7bc7cd581e52bf779d47,,,,,,,decisionTrl,resources/DB.BMP,resources/DR.BMP,Door3,0.385185185,-0.087962963,1,0,0,1.3665,optionRight,70,1825,1,37,0,37,0,1,,,,,,,,,,,,,,,,,,,,,,,,,,,,,,,,,,,,,,,
,,,,,,,,2023-08-16_08h33.48.970,HF_wild_card,2022.2.4,Win32,144.9485433,64007622a1b9dbf7a50405cb,64d2fd46c836a06233681665,64dc7bc7cd581e52bf779d47,,,,,,,ctch,resources/DP.BMP,resources/DR.BMP,Door2,-0.299074074,-0.080555556,1,0,0,1.0513,optionLeft,20,1845,1,38,0,38,0,1,,,,,,,,,,,,,,,,,,,,,,,,,,,,,,,,,,,,,,,
,,,,,,,,2023-08-16_08h33.48.970,HF_wild_card,2022.2.4,Win32,144.9485433,64007622a1b9dbf7a50405cb,64d2fd46c836a06233681665,64dc7bc7cd581e52bf779d47,,,,,,,ctch,resources/DR.BMP,resources/DP.BMP,Door2,0.471296296,-0.076851852,1,0,0,1.5702,optionRight,40,1885,1,39,0,39,0,1,,,,,,,,,,,,,,,,,,,,,,,,,,,,,,,,,,,,,,,
,,,,,,,,2023-08-16_08h33.48.970,HF_wild_card,2022.2.4,Win32,144.9485433,64007622a1b9dbf7a50405cb,64d2fd46c836a06233681665,64dc7bc7cd581e52bf779d47,,,,,,,decisionTrl,resources/DB.BMP,resources/DR.BMP,Door4,-0.25,-0.037962963,1,0,0,1.6722,optionLeft,80,1965,1,40,0,40,0,1,,,,,,,,,,,,,,,,,,,,,,,,,,,,,,,,,,,,,,,
,,,,,,,,2023-08-16_08h33.48.970,HF_wild_card,2022.2.4,Win32,144.9485433,64007622a1b9dbf7a50405cb,64d2fd46c836a06233681665,64dc7bc7cd581e52bf779d47,,,,,,,sngl,resources/Empty.png,resources/DB.BMP,Door4,0.433333333,-0.066666667,1,0,0,0.9432,optionRight,60,2025,1,41,0,41,0,1,,,,,,,,,,,,,,,,,,,,,,,,,,,,,,,,,,,,,,,
,,,,,,,,2023-08-16_08h33.48.970,HF_wild_card,2022.2.4,Win32,144.9485433,64007622a1b9dbf7a50405cb,64d2fd46c836a06233681665,64dc7bc7cd581e52bf779d47,,,,,,,sngl,resources/Empty.png,resources/DBN.BMP,WildCard_NonEx,0.331481481,-0.061111111,1,0,0,2.762,optionRight,55,2080,1,42,0,42,0,1,,,,,,,,,,,,,,,,,,,,,,,,,,,,,,,,,,,,,,,
,,,,,,,,2023-08-16_08h33.48.970,HF_wild_card,2022.2.4,Win32,144.9485433,64007622a1b9dbf7a50405cb,64d2fd46c836a06233681665,64dc7bc7cd581e52bf779d47,,,,,,,decisionTrl,resources/DBN.BMP,resources/DP.BMP,Door2,0.39537037,-0.073148148,1,0,0,1.4607,optionRight,20,2100,1,43,0,43,0,1,,,,,,,,,,,,,,,,,,,,,,,,,,,,,,,,,,,,,,,
,,,,,,,,2023-08-16_08h33.48.970,HF_wild_card,2022.2.4,Win32,144.9485433,64007622a1b9dbf7a50405cb,64d2fd46c836a06233681665,64dc7bc7cd581e52bf779d47,,,,,,,,,,,,,,,,,,,,,,,,,,0,0,0,0,1,,,,,,,,,,,,,,,,,,,,,,,,,,,,,,,,,,
,,,,,,,,2023-08-16_08h33.48.970,HF_wild_card,2022.2.4,Win32,144.9485433,64007622a1b9dbf7a50405cb,64d2fd46c836a06233681665,64dc7bc7cd581e52bf779d47,,,,,,,decisionTrl,resources/DBN.BMP,resources/DP.BMP,Door2,0.559259259,-0.125,1,0,0,1.1595,optionRight,20,2120,2,0,0,0,0,1,,,,,,,,,,,,,,,,,,,,,,,,,,,,,,,,,,,,,,,
,,,,,,,,2023-08-16_08h33.48.970,HF_wild_card,2022.2.4,Win32,144.9485433,64007622a1b9dbf7a50405cb,64d2fd46c836a06233681665,64dc7bc7cd581e52bf779d47,,,,,,,decisionTrl,resources/DR.BMP,resources/DBN.BMP,Door3,-0.297222222,-0.058333333,1,0,0,1.4146,optionLeft,70,2190,2,1,0,1,0,1,,,,,,,,,,,,,,,,,,,,,,,,,,,,,,,,,,,,,,,
,,,,,,,,2023-08-16_08h33.48.970,HF_wild_card,2022.2.4,Win32,144.9485433,64007622a1b9dbf7a50405cb,64d2fd46c836a06233681665,64dc7bc7cd581e52bf779d47,,,,,,,ctch,resources/DP.BMP,resources/DR.BMP,Door3,0.346296296,-0.051851852,1,0,0,0.6162,optionRight,70,2260,2,2,0,2,0,1,,,,,,,,,,,,,,,,,,,,,,,,,,,,,,,,,,,,,,,
,,,,,,,,2023-08-16_08h33.48.970,HF_wild_card,2022.2.4,Win32,144.9485433,64007622a1b9dbf7a50405cb,64d2fd46c836a06233681665,64dc7bc7cd581e52bf779d47,,,,,,,decisionTrl,resources/DR.BMP,resources/DB.BMP,Door3,-0.269444444,-0.059259259,1,0,0,0.61,optionLeft,70,2330,2,3,0,3,0,1,,,,,,,,,,,,,,,,,,,,,,,,,,,,,,,,,,,,,,,
,,,,,,,,2023-08-16_08h33.48.970,HF_wild_card,2022.2.4,Win32,144.9485433,64007622a1b9dbf7a50405cb,64d2fd46c836a06233681665,64dc7bc7cd581e52bf779d47,,,,,,,ctch,resources/DR.BMP,resources/DP.BMP,Door3,-0.339814815,-0.061111111,1,0,0,0.7443,optionLeft,70,2400,2,4,0,4,0,1,,,,,,,,,,,,,,,,,,,,,,,,,,,,,,,,,,,,,,,
,,,,,,,,2023-08-16_08h33.48.970,HF_wild_card,2022.2.4,Win32,144.9485433,64007622a1b9dbf7a50405cb,64d2fd46c836a06233681665,64dc7bc7cd581e52bf779d47,,,,,,,decisionTrl,resources/DY.BMP,resources/DP.BMP,Door1,-0.290740741,-0.102777778,1,0,0,1.6512,optionLeft,30,2430,2,5,0,5,0,1,,,,,,,,,,,,,,,,,,,,,,,,,,,,,,,,,,,,,,,
,,,,,,,,2023-08-16_08h33.48.970,HF_wild_card,2022.2.4,Win32,144.9485433,64007622a1b9dbf7a50405cb,64d2fd46c836a06233681665,64dc7bc7cd581e52bf779d47,,,,,,,ctch,resources/DB.BMP,resources/DY.BMP,Door4,-0.321296296,-0.041666667,1,0,0,0.9848,optionLeft,80,2510,2,6,0,6,0,1,,,,,,,,,,,,,,,,,,,,,,,,,,,,,,,,,,,,,,,
,,,,,,,,2023-08-16_08h33.48.970,HF_wild_card,2022.2.4,Win32,144.9485433,64007622a1b9dbf7a50405cb,64d2fd46c836a06233681665,64dc7bc7cd581e52bf779d47,,,,,,,decisionTrl,resources/DBN.BMP,resources/DB.BMP,Door4,0.426851852,-0.065740741,1,0,0,0.5957,optionRight,60,2570,2,7,0,7,0,1,,,,,,,,,,,,,,,,,,,,,,,,,,,,,,,,,,,,,,,
,,,,,,,,2023-08-16_08h33.48.970,HF_wild_card,2022.2.4,Win32,144.9485433,64007622a1b9dbf7a50405cb,64d2fd46c836a06233681665,64dc7bc7cd581e52bf779d47,,,,,,,ctch,resources/DY.BMP,resources/DB.BMP,Door4,0.330555556,-0.060185185,1,0,0,0.7847,optionRight,80,2650,2,8,0,8,0,1,,,,,,,,,,,,,,,,,,,,,,,,,,,,,,,,,,,,,,,
,,,,,,,,2023-08-16_08h33.48.970,HF_wild_card,2022.2.4,Win32,144.9485433,64007622a1b9dbf7a50405cb,64d2fd46c836a06233681665,64dc7bc7cd581e52bf779d47,,,,,,,ctch,resources/DR.BMP,resources/DP.BMP,Door2,0.489814815,-0.071296296,1,0,0,1.7903,optionRight,20,2670,2,9,0,9,0,1,,,,,,,,,,,,,,,,,,,,,,,,,,,,,,,,,,,,,,,
,,,,,,,,2023-08-16_08h33.48.970,HF_wild_card,2022.2.4,Win32,144.9485433,64007622a1b9dbf7a50405cb,64d2fd46c836a06233681665,64dc7bc7cd581e52bf779d47,,,,,,,decisionTrl,resources/DY.BMP,resources/DP.BMP,Door2,0.469444444,-0.075925926,1,0,0,1.6513,optionRight,20,2690,2,10,0,10,0,1,,,,,,,,,,,,,,,,,,,,,,,,,,,,,,,,,,,,,,,
,,,,,,,,2023-08-16_08h33.48.970,HF_wild_card,2022.2.4,Win32,144.9485433,64007622a1b9dbf7a50405cb,64d2fd46c836a06233681665,64dc7bc7cd581e52bf779d47,,,,,,,sngl,resources/Empty.png,resources/DB.BMP,Door4,0.265740741,-0.026851852,1,0,0,0.6548,optionRight,80,2770,2,11,0,11,0,1,,,,,,,,,,,,,,,,,,,,,,,,,,,,,,,,,,,,,,,
,,,,,,,,2023-08-16_08h33.48.970,HF_wild_card,2022.2.4,Win32,144.9485433,64007622a1b9dbf7a50405cb,64d2fd46c836a06233681665,64dc7bc7cd581e52bf779d47,,,,,,,sngl,resources/DR.BMP,resources/Empty.png,Door3,-0.384259259,-0.032407407,1,0,0,0.9016,optionLeft,70,2840,2,12,0,12,0,1,,,,,,,,,,,,,,,,,,,,,,,,,,,,,,,,,,,,,,,
,,,,,,,,2023-08-16_08h33.48.970,HF_wild_card,2022.2.4,Win32,144.9485433,64007622a1b9dbf7a50405cb,64d2fd46c836a06233681665,64dc7bc7cd581e52bf779d47,,,,,,,decisionTrl,resources/DY.BMP,resources/DP.BMP,Door1,-0.314814815,-0.065740741,1,0,0,2.9427,optionLeft,30,2870,2,13,0,13,0,1,,,,,,,,,,,,,,,,,,,,,,,,,,,,,,,,,,,,,,,
,,,,,,,,2023-08-16_08h33.48.970,HF_wild_card,2022.2.4,Win32,144.9485433,64007622a1b9dbf7a50405cb,64d2fd46c836a06233681665,64dc7bc7cd581e52bf779d47,,,,,,,decisionTrl,resources/DR.BMP,resources/DB.BMP,Door4,0.366666667,-0.050925926,1,0,0,1.5265,optionRight,60,2930,2,14,0,14,0,1,,,,,,,,,,,,,,,,,,,,,,,,,,,,,,,,,,,,,,,
,,,,,,,,2023-08-16_08h33.48.970,HF_wild_card,2022.2.4,Win32,144.9485433,64007622a1b9dbf7a50405cb,64d2fd46c836a06233681665,64dc7bc7cd581e52bf779d47,,,,,,,ctch,resources/DB.BMP,resources/DY.BMP,Door4,-0.311111111,-0.02962963,1,0,0,0.9463,optionLeft,60,2990,2,15,0,15,0,1,,,,,,,,,,,,,,,,,,,,,,,,,,,,,,,,,,,,,,,
,,,,,,,,2023-08-16_08h33.48.970,HF_wild_card,2022.2.4,Win32,144.9485433,64007622a1b9dbf7a50405cb,64d2fd46c836a06233681665,64dc7bc7cd581e52bf779d47,,,,,,,sngl,resources/DBN.BMP,resources/Empty.png,WildCard_NonEx,-0.35462963,-0.053703704,1,0,0,0.6619,optionLeft,45,3035,2,16,0,16,0,1,,,,,,,,,,,,,,,,,,,,,,,,,,,,,,,,,,,,,,,
,,,,,,,,2023-08-16_08h33.48.970,HF_wild_card,2022.2.4,Win32,144.9485433,64007622a1b9dbf7a50405cb,64d2fd46c836a06233681665,64dc7bc7cd581e52bf779d47,,,,,,,ctch,resources/DY.BMP,resources/DB.BMP,Door4,0.425925926,-0.05,1,0,0,0.8985,optionRight,60,3095,2,17,0,17,0,1,,,,,,,,,,,,,,,,,,,,,,,,,,,,,,,,,,,,,,,
,,,,,,,,2023-08-16_08h33.48.970,HF_wild_card,2022.2.4,Win32,144.9485433,64007622a1b9dbf7a50405cb,64d2fd46c836a06233681665,64dc7bc7cd581e52bf779d47,,,,,,,decisionTrl,resources/DB.BMP,resources/DBN.BMP,Door4,-0.30462963,-0.009259259,1,0,0,0.7872,optionLeft,80,3175,2,18,0,18,0,1,,,,,,,,,,,,,,,,,,,,,,,,,,,,,,,,,,,,,,,
,,,,,,,,2023-08-16_08h33.48.970,HF_wild_card,2022.2.4,Win32,144.9485433,64007622a1b9dbf7a50405cb,64d2fd46c836a06233681665,64dc7bc7cd581e52bf779d47,,,,,,,decisionTrl,resources/DP.BMP,resources/DY.BMP,Door2,-0.378703704,-0.065740741,1,0,0,1.8343,optionLeft,40,3215,2,19,0,19,0,1,,,,,,,,,,,,,,,,,,,,,,,,,,,,,,,,,,,,,,,
,,,,,,,,2023-08-16_08h33.48.970,HF_wild_card,2022.2.4,Win32,144.9485433,64007622a1b9dbf7a50405cb,64d2fd46c836a06233681665,64dc7bc7cd581e52bf779d47,,,,,,,sngl,resources/DB.BMP,resources/Empty.png,Door4,-0.357407407,-0.032407407,1,0,0,0.7765,optionLeft,60,3275,2,20,0,20,0,1,,,,,,,,,,,,,,,,,,,,,,,,,,,,,,,,,,,,,,,
,,,,,,,,2023-08-16_08h33.48.970,HF_wild_card,2022.2.4,Win32,144.9485433,64007622a1b9dbf7a50405cb,64d2fd46c836a06233681665,64dc7bc7cd581e52bf779d47,,,,,,,sngl,resources/DY.BMP,resources/Empty.png,Door1,-0.34537037,-0.027777778,1,0,0,1.5544,optionLeft,30,3305,2,21,0,21,0,1,,,,,,,,,,,,,,,,,,,,,,,,,,,,,,,,,,,,,,,
,,,,,,,,2023-08-16_08h33.48.970,HF_wild_card,2022.2.4,Win32,144.9485433,64007622a1b9dbf7a50405cb,64d2fd46c836a06233681665,64dc7bc7cd581e52bf779d47,,,,,,,decisionTrl,resources/DP.BMP,resources/DY.BMP,Door1,0.351851852,-0.080555556,1,0,0,1.3479,optionRight,30,3335,2,22,0,22,0,1,,,,,,,,,,,,,,,,,,,,,,,,,,,,,,,,,,,,,,,
,,,,,,,,2023-08-16_08h33.48.970,HF_wild_card,2022.2.4,Win32,144.9485433,64007622a1b9dbf7a50405cb,64d2fd46c836a06233681665,64dc7bc7cd581e52bf779d47,,,,,,,sngl,resources/DP.BMP,resources/Empty.png,Door2,-0.312962963,-0.047222222,1,0,0,0.6998,optionLeft,20,3355,2,23,0,23,0,1,,,,,,,,,,,,,,,,,,,,,,,,,,,,,,,,,,,,,,,
,,,,,,,,2023-08-16_08h33.48.970,HF_wild_card,2022.2.4,Win32,144.9485433,64007622a1b9dbf7a50405cb,64d2fd46c836a06233681665,64dc7bc7cd581e52bf779d47,,,,,,,decisionTrl,resources/DBN.BMP,resources/DY.BMP,WildCard_NonEx,-0.353703704,-0.062037037,1,0,0,1.6234,optionLeft,55,3410,2,24,0,24,0,1,,,,,,,,,,,,,,,,,,,,,,,,,,,,,,,,,,,,,,,
,,,,,,,,2023-08-16_08h33.48.970,HF_wild_card,2022.2.4,Win32,144.9485433,64007622a1b9dbf7a50405cb,64d2fd46c836a06233681665,64dc7bc7cd581e52bf779d47,,,,,,,decisionTrl,resources/DP.BMP,resources/DY.BMP,Door1,0.261111111,-0.044444444,1,0,0,1.6997,optionRight,30,3440,2,25,0,25,0,1,,,,,,,,,,,,,,,,,,,,,,,,,,,,,,,,,,,,,,,
,,,,,,,,2023-08-16_08h33.48.970,HF_wild_card,2022.2.4,Win32,144.9485433,64007622a1b9dbf7a50405cb,64d2fd46c836a06233681665,64dc7bc7cd581e52bf779d47,,,,,,,sngl,resources/Empty.png,resources/DBN.BMP,WildCard_NonEx,0.2,-0.035185185,1,0,0,0.8454,optionRight,45,3485,2,26,0,26,0,1,,,,,,,,,,,,,,,,,,,,,,,,,,,,,,,,,,,,,,,
,,,,,,,,2023-08-16_08h33.48.970,HF_wild_card,2022.2.4,Win32,144.9485433,64007622a1b9dbf7a50405cb,64d2fd46c836a06233681665,64dc7bc7cd581e52bf779d47,,,,,,,decisionTrl,resources/DY.BMP,resources/DBN.BMP,Door1,-0.322222222,-0.053703704,1,0,0,0.8319,optionLeft,30,3515,2,27,0,27,0,1,,,,,,,,,,,,,,,,,,,,,,,,,,,,,,,,,,,,,,,
,,,,,,,,2023-08-16_08h33.48.970,HF_wild_card,2022.2.4,Win32,144.9485433,64007622a1b9dbf7a50405cb,64d2fd46c836a06233681665,64dc7bc7cd581e52bf779d47,,,,,,,decisionTrl,resources/DB.BMP,resources/DR.BMP,Door4,-0.377777778,-0.062962963,1,0,0,0.8739,optionLeft,60,3575,2,28,0,28,0,1,,,,,,,,,,,,,,,,,,,,,,,,,,,,,,,,,,,,,,,
,,,,,,,,2023-08-16_08h33.48.970,HF_wild_card,2022.2.4,Win32,144.9485433,64007622a1b9dbf7a50405cb,64d2fd46c836a06233681665,64dc7bc7cd581e52bf779d47,,,,,,,sngl,resources/Empty.png,resources/DBN.BMP,WildCard_NonEx,0.35462963,-0.024074074,1,0,0,0.8668,optionRight,55,3630,2,29,0,29,0,1,,,,,,,,,,,,,,,,,,,,,,,,,,,,,,,,,,,,,,,
,,,,,,,,2023-08-16_08h33.48.970,HF_wild_card,2022.2.4,Win32,144.9485433,64007622a1b9dbf7a50405cb,64d2fd46c836a06233681665,64dc7bc7cd581e52bf779d47,,,,,,,sngl,resources/Empty.png,resources/DP.BMP,Door2,0.308333333,-0.034259259,1,0,0,0.8184,optionRight,40,3670,2,30,0,30,0,1,,,,,,,,,,,,,,,,,,,,,,,,,,,,,,,,,,,,,,,
,,,,,,,,2023-08-16_08h33.48.970,HF_wild_card,2022.2.4,Win32,144.9485433,64007622a1b9dbf7a50405cb,64d2fd46c836a06233681665,64dc7bc7cd581e52bf779d47,,,,,,,sngl,resources/Empty.png,resources/DR.BMP,Door3,0.324074074,-0.05462963,1,0,0,0.7419,optionRight,70,3740,2,31,0,31,0,1,,,,,,,,,,,,,,,,,,,,,,,,,,,,,,,,,,,,,,,
,,,,,,,,2023-08-16_08h33.48.970,HF_wild_card,2022.2.4,Win32,144.9485433,64007622a1b9dbf7a50405cb,64d2fd46c836a06233681665,64dc7bc7cd581e52bf779d47,,,,,,,sngl,resources/Empty.png,resources/DY.BMP,Door1,0.398148148,-0.087962963,1,0,0,0.6301,optionRight,30,3770,2,32,0,32,0,1,,,,,,,,,,,,,,,,,,,,,,,,,,,,,,,,,,,,,,,
,,,,,,,,2023-08-16_08h33.48.970,HF_wild_card,2022.2.4,Win32,144.9485433,64007622a1b9dbf7a50405cb,64d2fd46c836a06233681665,64dc7bc7cd581e52bf779d47,,,,,,,decisionTrl,resources/DP.BMP,resources/DBN.BMP,WildCard_NonEx,0.406481481,-0.030555556,1,0,0,1.7417,optionRight,45,3815,2,33,0,33,0,1,,,,,,,,,,,,,,,,,,,,,,,,,,,,,,,,,,,,,,,
,,,,,,,,2023-08-16_08h33.48.970,HF_wild_card,2022.2.4,Win32,144.9485433,64007622a1b9dbf7a50405cb,64d2fd46c836a06233681665,64dc7bc7cd581e52bf779d47,,,,,,,decisionTrl,resources/DBN.BMP,resources/DR.BMP,Door3,0.325925926,-0.065740741,1,0,0,1.3943,optionRight,70,3885,2,34,0,34,0,1,,,,,,,,,,,,,,,,,,,,,,,,,,,,,,,,,,,,,,,
,,,,,,,,2023-08-16_08h33.48.970,HF_wild_card,2022.2.4,Win32,144.9485433,64007622a1b9dbf7a50405cb,64d2fd46c836a06233681665,64dc7bc7cd581e52bf779d47,,,,,,,decisionTrl,resources/DY.BMP,resources/DP.BMP,Door2,0.421296296,-0.058333333,1,0,0,2.2897,optionRight,20,3905,2,35,0,35,0,1,,,,,,,,,,,,,,,,,,,,,,,,,,,,,,,,,,,,,,,
,,,,,,,,2023-08-16_08h33.48.970,HF_wild_card,2022.2.4,Win32,144.9485433,64007622a1b9dbf7a50405cb,64d2fd46c836a06233681665,64dc7bc7cd581e52bf779d47,,,,,,,sngl,resources/DBN.BMP,resources/Empty.png,WildCard_NonEx,-0.337962963,0.040740741,1,0,0,0.9777,optionLeft,55,3960,2,36,0,36,0,1,,,,,,,,,,,,,,,,,,,,,,,,,,,,,,,,,,,,,,,
,,,,,,,,2023-08-16_08h33.48.970,HF_wild_card,2022.2.4,Win32,144.9485433,64007622a1b9dbf7a50405cb,64d2fd46c836a06233681665,64dc7bc7cd581e52bf779d47,,,,,,,decisionTrl,resources/DB.BMP,resources/DR.BMP,Door3,0.440740741,-0.063888889,1,0,0,1.9006,optionRight,70,4030,2,37,0,37,0,1,,,,,,,,,,,,,,,,,,,,,,,,,,,,,,,,,,,,,,,
,,,,,,,,2023-08-16_08h33.48.970,HF_wild_card,2022.2.4,Win32,144.9485433,64007622a1b9dbf7a50405cb,64d2fd46c836a06233681665,64dc7bc7cd581e52bf779d47,,,,,,,decisionTrl,resources/DR.BMP,resources/DB.BMP,Door4,0.394444444,-0.056481481,1,0,0,1.2767,optionRight,80,4110,2,38,0,38,0,1,,,,,,,,,,,,,,,,,,,,,,,,,,,,,,,,,,,,,,,
,,,,,,,,2023-08-16_08h33.48.970,HF_wild_card,2022.2.4,Win32,144.9485433,64007622a1b9dbf7a50405cb,64d2fd46c836a06233681665,64dc7bc7cd581e52bf779d47,,,,,,,decisionTrl,resources/DR.BMP,resources/DB.BMP,Door4,0.377777778,-0.071296296,1,0,0,0.6235,optionRight,80,4190,2,39,0,39,0,1,,,,,,,,,,,,,,,,,,,,,,,,,,,,,,,,,,,,,,,
,,,,,,,,2023-08-16_08h33.48.970,HF_wild_card,2022.2.4,Win32,144.9485433,64007622a1b9dbf7a50405cb,64d2fd46c836a06233681665,64dc7bc7cd581e52bf779d47,,,,,,,decisionTrl,resources/DB.BMP,resources/DR.BMP,Door3,0.322222222,-0.042592593,1,0,0,2.0542,optionRight,70,4260,2,40,0,40,0,1,,,,,,,,,,,,,,,,,,,,,,,,,,,,,,,,,,,,,,,
,,,,,,,,2023-08-16_08h33.48.970,HF_wild_card,2022.2.4,Win32,144.9485433,64007622a1b9dbf7a50405cb,64d2fd46c836a06233681665,64dc7bc7cd581e52bf779d47,,,,,,,ctch,resources/DP.BMP,resources/DR.BMP,Door3,0.35462963,-0.039814815,1,0,0,0.9783,optionRight,70,4330,2,41,0,41,0,1,,,,,,,,,,,,,,,,,,,,,,,,,,,,,,,,,,,,,,,
,,,,,,,,2023-08-16_08h33.48.970,HF_wild_card,2022.2.4,Win32,144.9485433,64007622a1b9dbf7a50405cb,64d2fd46c836a06233681665,64dc7bc7cd581e52bf779d47,,,,,,,decisionTrl,resources/DB.BMP,resources/DR.BMP,Door3,0.380555556,-0.087037037,1,0,0,0.6863,optionRight,70,4400,2,42,0,42,0,1,,,,,,,,,,,,,,,,,,,,,,,,,,,,,,,,,,,,,,,
,,,,,,,,2023-08-16_08h33.48.970,HF_wild_card,2022.2.4,Win32,144.9485433,64007622a1b9dbf7a50405cb,64d2fd46c836a06233681665,64dc7bc7cd581e52bf779d47,,,,,,,decisionTrl,resources/DP.BMP,resources/DY.BMP,Door2,-0.438888889,0.006481481,1,0,0,3.6081,optionLeft,20,4420,2,43,0,43,0,1,,,,,,,,,,,,,,,,,,,,,,,,,,,,,,,,,,,,,,,
,,,,,,,,2023-08-16_08h33.48.970,HF_wild_card,2022.2.4,Win32,144.9485433,64007622a1b9dbf7a50405cb,64d2fd46c836a06233681665,64dc7bc7cd581e52bf779d47,,,,,,,,,,,,,,,,,,,,,,,,,,1,0,1,0,1,,,,,,,,,,,,,,,,,,,,,,,,,,,,,,,,,,
,,,,,,,,2023-08-16_08h33.48.970,HF_wild_card,2022.2.4,Win32,144.9485433,64007622a1b9dbf7a50405cb,64d2fd46c836a06233681665,64dc7bc7cd581e52bf779d47,,,,,,,sngl,resources/DY.BMP,resources/Empty.png,Door1,-0.393518519,-0.048148148,1,0,0,1.2014,optionLeft,30,4450,3,0,0,0,0,1,,,,,,,,,,,,,,,,,,,,,,,,,,,,,,,,,,,,,,,
,,,,,,,,2023-08-16_08h33.48.970,HF_wild_card,2022.2.4,Win32,144.9485433,64007622a1b9dbf7a50405cb,64d2fd46c836a06233681665,64dc7bc7cd581e52bf779d47,,,,,,,ctch,resources/DB.BMP,resources/DY.BMP,Door1,0.428703704,-0.05462963,1,0,0,1.9912,optionRight,30,4480,3,1,0,1,0,1,,,,,,,,,,,,,,,,,,,,,,,,,,,,,,,,,,,,,,,
,,,,,,,,2023-08-16_08h33.48.970,HF_wild_card,2022.2.4,Win32,144.9485433,64007622a1b9dbf7a50405cb,64d2fd46c836a06233681665,64dc7bc7cd581e52bf779d47,,,,,,,sngl,resources/Empty.png,resources/DB.BMP,Door4,0.466666667,-0.031481481,1,0,0,0.7418,optionRight,60,4540,3,2,0,2,0,1,,,,,,,,,,,,,,,,,,,,,,,,,,,,,,,,,,,,,,,
,,,,,,,,2023-08-16_08h33.48.970,HF_wild_card,2022.2.4,Win32,144.9485433,64007622a1b9dbf7a50405cb,64d2fd46c836a06233681665,64dc7bc7cd581e52bf779d47,,,,,,,decisionTrl,resources/DB.BMP,resources/DBN.BMP,Door4,-0.266666667,-0.05,1,0,0,0.7899,optionLeft,60,4600,3,3,0,3,0,1,,,,,,,,,,,,,,,,,,,,,,,,,,,,,,,,,,,,,,,
,,,,,,,,2023-08-16_08h33.48.970,HF_wild_card,2022.2.4,Win32,144.9485433,64007622a1b9dbf7a50405cb,64d2fd46c836a06233681665,64dc7bc7cd581e52bf779d47,,,,,,,sngl,resources/Empty.png,resources/DP.BMP,Door2,0.365740741,-0.087037037,1,0,0,0.8526,optionRight,20,4620,3,4,0,4,0,1,,,,,,,,,,,,,,,,,,,,,,,,,,,,,,,,,,,,,,,
,,,,,,,,2023-08-16_08h33.48.970,HF_wild_card,2022.2.4,Win32,144.9485433,64007622a1b9dbf7a50405cb,64d2fd46c836a06233681665,64dc7bc7cd581e52bf779d47,,,,,,,decisionTrl,resources/DY.BMP,resources/DP.BMP,Door1,-0.326851852,-0.006481481,1,0,0,2.9916,optionLeft,30,4650,3,5,0,5,0,1,,,,,,,,,,,,,,,,,,,,,,,,,,,,,,,,,,,,,,,
,,,,,,,,2023-08-16_08h33.48.970,HF_wild_card,2022.2.4,Win32,144.9485433,64007622a1b9dbf7a50405cb,64d2fd46c836a06233681665,64dc7bc7cd581e52bf779d47,,,,,,,ctch,resources/DR.BMP,resources/DP.BMP,Door3,-0.35,-0.02962963,1,0,0,2.2618,optionLeft,70,4720,3,6,0,6,0,1,,,,,,,,,,,,,,,,,,,,,,,,,,,,,,,,,,,,,,,
,,,,,,,,2023-08-16_08h33.48.970,HF_wild_card,2022.2.4,Win32,144.9485433,64007622a1b9dbf7a50405cb,64d2fd46c836a06233681665,64dc7bc7cd581e52bf779d47,,,,,,,decisionTrl,resources/DR.BMP,resources/DBN.BMP,Door3,-0.315740741,-0.011111111,1,0,0,1.0049,optionLeft,70,4790,3,7,0,7,0,1,,,,,,,,,,,,,,,,,,,,,,,,,,,,,,,,,,,,,,,
,,,,,,,,2023-08-16_08h33.48.970,HF_wild_card,2022.2.4,Win32,144.9485433,64007622a1b9dbf7a50405cb,64d2fd46c836a06233681665,64dc7bc7cd581e52bf779d47,,,,,,,decisionTrl,resources/DBN.BMP,resources/DP.BMP,WildCard_NonEx,-0.387962963,-0.041666667,1,0,0,2.6585,optionLeft,55,4845,3,8,0,8,0,1,,,,,,,,,,,,,,,,,,,,,,,,,,,,,,,,,,,,,,,
,,,,,,,,2023-08-16_08h33.48.970,HF_wild_card,2022.2.4,Win32,144.9485433,64007622a1b9dbf7a50405cb,64d2fd46c836a06233681665,64dc7bc7cd581e52bf779d47,,,,,,,sngl,resources/DP.BMP,resources/Empty.png,Door2,-0.312037037,-0.050925926,1,0,0,1.2693,optionLeft,40,4885,3,9,0,9,0,1,,,,,,,,,,,,,,,,,,,,,,,,,,,,,,,,,,,,,,,
,,,,,,,,2023-08-16_08h33.48.970,HF_wild_card,2022.2.4,Win32,144.9485433,64007622a1b9dbf7a50405cb,64d2fd46c836a06233681665,64dc7bc7cd581e52bf779d47,,,,,,,decisionTrl,resources/DBN.BMP,resources/DB.BMP,Door4,0.32962963,-0.055555556,1,0,0,1.3878,optionRight,60,4945,3,10,0,10,0,1,,,,,,,,,,,,,,,,,,,,,,,,,,,,,,,,,,,,,,,
,,,,,,,,2023-08-16_08h33.48.970,HF_wild_card,2022.2.4,Win32,144.9485433,64007622a1b9dbf7a50405cb,64d2fd46c836a06233681665,64dc7bc7cd581e52bf779d47,,,,,,,sngl,resources/DBN.BMP,resources/Empty.png,WildCard_NonEx,-0.263888889,-0.037962963,1,0,0,0.9084,optionLeft,55,5000,3,11,0,11,0,1,,,,,,,,,,,,,,,,,,,,,,,,,,,,,,,,,,,,,,,
,,,,,,,,2023-08-16_08h33.48.970,HF_wild_card,2022.2.4,Win32,144.9485433,64007622a1b9dbf7a50405cb,64d2fd46c836a06233681665,64dc7bc7cd581e52bf779d47,,,,,,,ctch,resources/DP.BMP,resources/DR.BMP,Door3,0.364814815,-0.017592593,1,0,0,1.2416,optionRight,70,5070,3,12,0,12,0,1,,,,,,,,,,,,,,,,,,,,,,,,,,,,,,,,,,,,,,,
,,,,,,,,2023-08-16_08h33.48.970,HF_wild_card,2022.2.4,Win32,144.9485433,64007622a1b9dbf7a50405cb,64d2fd46c836a06233681665,64dc7bc7cd581e52bf779d47,,,,,,,ctch,resources/DR.BMP,resources/DP.BMP,Door3,-0.334259259,-0.066666667,1,0,0,3.3035,optionLeft,70,5140,3,13,0,13,0,1,,,,,,,,,,,,,,,,,,,,,,,,,,,,,,,,,,,,,,,
,,,,,,,,2023-08-16_08h33.48.970,HF_wild_card,2022.2.4,Win32,144.9485433,64007622a1b9dbf7a50405cb,64d2fd46c836a06233681665,64dc7bc7cd581e52bf779d47,,,,,,,decisionTrl,resources/DP.BMP,resources/DY.BMP,Door1,0.418518519,-0.053703704,1,0,0,2.6024,optionRight,30,5170,3,14,0,14,0,1,,,,,,,,,,,,,,,,,,,,,,,,,,,,,,,,,,,,,,,
,,,,,,,,2023-08-16_08h33.48.970,HF_wild_card,2022.2.4,Win32,144.9485433,64007622a1b9dbf7a50405cb,64d2fd46c836a06233681665,64dc7bc7cd581e52bf779d47,,,,,,,decisionTrl,resources/DP.BMP,resources/DY.BMP,Door2,-0.282407407,-0.025925926,1,0,0,0.9502,optionLeft,40,5210,3,15,0,15,0,1,,,,,,,,,,,,,,,,,,,,,,,,,,,,,,,,,,,,,,,
,,,,,,,,2023-08-16_08h33.48.970,HF_wild_card,2022.2.4,Win32,144.9485433,64007622a1b9dbf7a50405cb,64d2fd46c836a06233681665,64dc7bc7cd581e52bf779d47,,,,,,,decisionTrl,resources/DBN.BMP,resources/DY.BMP,WildCard_NonEx,-0.366666667,-0.010185185,1,0,0,1.1442,optionLeft,45,5255,3,16,0,16,0,1,,,,,,,,,,,,,,,,,,,,,,,,,,,,,,,,,,,,,,,
,,,,,,,,2023-08-16_08h33.48.970,HF_wild_card,2022.2.4,Win32,144.9485433,64007622a1b9dbf7a50405cb,64d2fd46c836a06233681665,64dc7bc7cd581e52bf779d47,,,,,,,decisionTrl,resources/DY.BMP,resources/DBN.BMP,WildCard_NonEx,0.409259259,-0.025,1,0,0,1.4021,optionRight,45,5300,3,17,0,17,0,1,,,,,,,,,,,,,,,,,,,,,,,,,,,,,,,,,,,,,,,
,,,,,,,,2023-08-16_08h33.48.970,HF_wild_card,2022.2.4,Win32,144.9485433,64007622a1b9dbf7a50405cb,64d2fd46c836a06233681665,64dc7bc7cd581e52bf779d47,,,,,,,sngl,resources/Empty.png,resources/DR.BMP,Door3,0.335185185,-0.019444444,1,0,0,0.7688,optionRight,70,5370,3,18,0,18,0,1,,,,,,,,,,,,,,,,,,,,,,,,,,,,,,,,,,,,,,,
,,,,,,,,2023-08-16_08h33.48.970,HF_wild_card,2022.2.4,Win32,144.9485433,64007622a1b9dbf7a50405cb,64d2fd46c836a06233681665,64dc7bc7cd581e52bf779d47,,,,,,,decisionTrl,resources/DB.BMP,resources/DR.BMP,Door4,-0.372222222,-0.05,1,0,0,2.7622,optionLeft,80,5450,3,19,0,19,0,1,,,,,,,,,,,,,,,,,,,,,,,,,,,,,,,,,,,,,,,
,,,,,,,,2023-08-16_08h33.48.970,HF_wild_card,2022.2.4,Win32,144.9485433,64007622a1b9dbf7a50405cb,64d2fd46c836a06233681665,64dc7bc7cd581e52bf779d47,,,,,,,decisionTrl,resources/DP.BMP,resources/DBN.BMP,WildCard_NonEx,0.313888889,0.005555556,1,0,0,1.8388,optionRight,45,5495,3,20,0,20,0,1,,,,,,,,,,,,,,,,,,,,,,,,,,,,,,,,,,,,,,,
,,,,,,,,2023-08-16_08h33.48.970,HF_wild_card,2022.2.4,Win32,144.9485433,64007622a1b9dbf7a50405cb,64d2fd46c836a06233681665,64dc7bc7cd581e52bf779d47,,,,,,,decisionTrl,resources/DP.BMP,resources/DY.BMP,Door1,0.260185185,-0.032407407,1,0,0,6.4351,optionRight,30,5525,3,21,0,21,0,1,,,,,,,,,,,,,,,,,,,,,,,,,,,,,,,,,,,,,,,
,,,,,,,,2023-08-16_08h33.48.970,HF_wild_card,2022.2.4,Win32,144.9485433,64007622a1b9dbf7a50405cb,64d2fd46c836a06233681665,64dc7bc7cd581e52bf779d47,,,,,,,sngl,resources/Empty.png,resources/DBN.BMP,WildCard_NonEx,0.25462963,-0.044444444,1,0,0,0.7697,optionRight,55,5580,3,22,0,22,0,1,,,,,,,,,,,,,,,,,,,,,,,,,,,,,,,,,,,,,,,
,,,,,,,,2023-08-16_08h33.48.970,HF_wild_card,2022.2.4,Win32,144.9485433,64007622a1b9dbf7a50405cb,64d2fd46c836a06233681665,64dc7bc7cd581e52bf779d47,,,,,,,sngl,resources/Empty.png,resources/DY.BMP,Door1,0.238888889,-0.062962963,1,0,0,0.8527,optionRight,30,5610,3,23,0,23,0,1,,,,,,,,,,,,,,,,,,,,,,,,,,,,,,,,,,,,,,,
,,,,,,,,2023-08-16_08h33.48.970,HF_wild_card,2022.2.4,Win32,144.9485433,64007622a1b9dbf7a50405cb,64d2fd46c836a06233681665,64dc7bc7cd581e52bf779d47,,,,,,,decisionTrl,resources/DR.BMP,resources/DB.BMP,Door4,0.383333333,-0.024074074,1,0,0,1.7412,optionRight,80,5690,3,24,0,24,0,1,,,,,,,,,,,,,,,,,,,,,,,,,,,,,,,,,,,,,,,
,,,,,,,,2023-08-16_08h33.48.970,HF_wild_card,2022.2.4,Win32,144.9485433,64007622a1b9dbf7a50405cb,64d2fd46c836a06233681665,64dc7bc7cd581e52bf779d47,,,,,,,decisionTrl,resources/DY.BMP,resources/DP.BMP,Door2,0.402777778,-0.037037037,1,0,0,1.7204,optionRight,40,5730,3,25,0,25,0,1,,,,,,,,,,,,,,,,,,,,,,,,,,,,,,,,,,,,,,,
,,,,,,,,2023-08-16_08h33.48.970,HF_wild_card,2022.2.4,Win32,144.9485433,64007622a1b9dbf7a50405cb,64d2fd46c836a06233681665,64dc7bc7cd581e52bf779d47,,,,,,,sngl,resources/DB.BMP,resources/Empty.png,Door4,-0.363888889,-0.02962963,1,0,0,0.8103,optionLeft,80,5810,3,26,0,26,0,1,,,,,,,,,,,,,,,,,,,,,,,,,,,,,,,,,,,,,,,
,,,,,,,,2023-08-16_08h33.48.970,HF_wild_card,2022.2.4,Win32,144.9485433,64007622a1b9dbf7a50405cb,64d2fd46c836a06233681665,64dc7bc7cd581e52bf779d47,,,,,,,sngl,resources/Empty.png,resources/DBN.BMP,WildCard_NonEx,0.223148148,0.023148148,1,0,0,0.9293,optionRight,45,5855,3,27,0,27,0,1,,,,,,,,,,,,,,,,,,,,,,,,,,,,,,,,,,,,,,,
,,,,,,,,2023-08-16_08h33.48.970,HF_wild_card,2022.2.4,Win32,144.9485433,64007622a1b9dbf7a50405cb,64d2fd46c836a06233681665,64dc7bc7cd581e52bf779d47,,,,,,,decisionTrl,resources/DBN.BMP,resources/DR.BMP,Door3,0.39537037,-0.055555556,1,0,0,1.818,optionRight,70,5925,3,28,0,28,0,1,,,,,,,,,,,,,,,,,,,,,,,,,,,,,,,,,,,,,,,
,,,,,,,,2023-08-16_08h33.48.970,HF_wild_card,2022.2.4,Win32,144.9485433,64007622a1b9dbf7a50405cb,64d2fd46c836a06233681665,64dc7bc7cd581e52bf779d47,,,,,,,ctch,resources/DY.BMP,resources/DB.BMP,Door4,0.222222222,-0.032407407,1,0,0,1.1856,optionRight,60,5985,3,29,0,29,0,1,,,,,,,,,,,,,,,,,,,,,,,,,,,,,,,,,,,,,,,
,,,,,,,,2023-08-16_08h33.48.970,HF_wild_card,2022.2.4,Win32,144.9485433,64007622a1b9dbf7a50405cb,64d2fd46c836a06233681665,64dc7bc7cd581e52bf779d47,,,,,,,decisionTrl,resources/DY.BMP,resources/DP.BMP,Door2,0.324074074,-0.030555556,1,0,0,1.7003,optionRight,40,6025,3,30,0,30,0,1,,,,,,,,,,,,,,,,,,,,,,,,,,,,,,,,,,,,,,,
,,,,,,,,2023-08-16_08h33.48.970,HF_wild_card,2022.2.4,Win32,144.9485433,64007622a1b9dbf7a50405cb,64d2fd46c836a06233681665,64dc7bc7cd581e52bf779d47,,,,,,,decisionTrl,resources/DB.BMP,resources/DR.BMP,Door4,-0.226851852,-0.013888889,1,0,0,0.8948,optionLeft,60,6085,3,31,0,31,0,1,,,,,,,,,,,,,,,,,,,,,,,,,,,,,,,,,,,,,,,
,,,,,,,,2023-08-16_08h33.48.970,HF_wild_card,2022.2.4,Win32,144.9485433,64007622a1b9dbf7a50405cb,64d2fd46c836a06233681665,64dc7bc7cd581e52bf779d47,,,,,,,decisionTrl,resources/DY.BMP,resources/DP.BMP,Door2,0.435185185,-0.062962963,1,0,0,1.957,optionRight,40,6125,3,32,0,32,0,1,,,,,,,,,,,,,,,,,,,,,,,,,,,,,,,,,,,,,,,
,,,,,,,,2023-08-16_08h33.48.970,HF_wild_card,2022.2.4,Win32,144.9485433,64007622a1b9dbf7a50405cb,64d2fd46c836a06233681665,64dc7bc7cd581e52bf779d47,,,,,,,ctch,resources/DB.BMP,resources/DY.BMP,Door4,-0.368518519,-0.05462963,1,0,0,1.5541,optionLeft,60,6185,3,33,0,33,0,1,,,,,,,,,,,,,,,,,,,,,,,,,,,,,,,,,,,,,,,
,,,,,,,,2023-08-16_08h33.48.970,HF_wild_card,2022.2.4,Win32,144.9485433,64007622a1b9dbf7a50405cb,64d2fd46c836a06233681665,64dc7bc7cd581e52bf779d47,,,,,,,decisionTrl,resources/DP.BMP,resources/DY.BMP,Door2,-0.390740741,-0.017592593,1,0,0,2.5123,optionLeft,20,6205,3,34,0,34,0,1,,,,,,,,,,,,,,,,,,,,,,,,,,,,,,,,,,,,,,,
,,,,,,,,2023-08-16_08h33.48.970,HF_wild_card,2022.2.4,Win32,144.9485433,64007622a1b9dbf7a50405cb,64d2fd46c836a06233681665,64dc7bc7cd581e52bf779d47,,,,,,,decisionTrl,resources/DR.BMP,resources/DB.BMP,Door4,0.410185185,-0.052777778,1,0,0,2.3943,optionRight,80,6285,3,35,0,35,0,1,,,,,,,,,,,,,,,,,,,,,,,,,,,,,,,,,,,,,,,
,,,,,,,,2023-08-16_08h33.48.970,HF_wild_card,2022.2.4,Win32,144.9485433,64007622a1b9dbf7a50405cb,64d2fd46c836a06233681665,64dc7bc7cd581e52bf779d47,,,,,,,decisionTrl,resources/DB.BMP,resources/DR.BMP,Door4,-0.277777778,-0.050925926,1,0,0,0.797,optionLeft,60,6345,3,36,0,36,0,1,,,,,,,,,,,,,,,,,,,,,,,,,,,,,,,,,,,,,,,
,,,,,,,,2023-08-16_08h33.48.970,HF_wild_card,2022.2.4,Win32,144.9485433,64007622a1b9dbf7a50405cb,64d2fd46c836a06233681665,64dc7bc7cd581e52bf779d47,,,,,,,ctch,resources/DY.BMP,resources/DB.BMP,Door4,0.323148148,-0.037962963,1,0,0,1.2069,optionRight,80,6425,3,37,0,37,0,1,,,,,,,,,,,,,,,,,,,,,,,,,,,,,,,,,,,,,,,
,,,,,,,,2023-08-16_08h33.48.970,HF_wild_card,2022.2.4,Win32,144.9485433,64007622a1b9dbf7a50405cb,64d2fd46c836a06233681665,64dc7bc7cd581e52bf779d47,,,,,,,decisionTrl,resources/DR.BMP,resources/DB.BMP,Door4,0.32037037,-0.013888889,1,0,0,0.749,optionRight,80,6505,3,38,0,38,0,1,,,,,,,,,,,,,,,,,,,,,,,,,,,,,,,,,,,,,,,
,,,,,,,,2023-08-16_08h33.48.970,HF_wild_card,2022.2.4,Win32,144.9485433,64007622a1b9dbf7a50405cb,64d2fd46c836a06233681665,64dc7bc7cd581e52bf779d47,,,,,,,decisionTrl,resources/DB.BMP,resources/DR.BMP,Door3,0.274074074,-0.044444444,1,0,0,2.1307,optionRight,70,6575,3,39,0,39,0,1,,,,,,,,,,,,,,,,,,,,,,,,,,,,,,,,,,,,,,,
,,,,,,,,2023-08-16_08h33.48.970,HF_wild_card,2022.2.4,Win32,144.9485433,64007622a1b9dbf7a50405cb,64d2fd46c836a06233681665,64dc7bc7cd581e52bf779d47,,,,,,,sngl,resources/DBN.BMP,resources/Empty.png,WildCard_NonEx,-0.431481481,0.023148148,1,0,0,1.0285,optionLeft,45,6620,3,40,0,40,0,1,,,,,,,,,,,,,,,,,,,,,,,,,,,,,,,,,,,,,,,
,,,,,,,,2023-08-16_08h33.48.970,HF_wild_card,2022.2.4,Win32,144.9485433,64007622a1b9dbf7a50405cb,64d2fd46c836a06233681665,64dc7bc7cd581e52bf779d47,,,,,,,ctch,resources/DP.BMP,resources/DR.BMP,Door3,0.433333333,-0.059259259,1,0,0,2.1651,optionRight,70,6690,3,41,0,41,0,1,,,,,,,,,,,,,,,,,,,,,,,,,,,,,,,,,,,,,,,
,,,,,,,,2023-08-16_08h33.48.970,HF_wild_card,2022.2.4,Win32,144.9485433,64007622a1b9dbf7a50405cb,64d2fd46c836a06233681665,64dc7bc7cd581e52bf779d47,,,,,,,sngl,resources/DR.BMP,resources/Empty.png,Door3,-0.32037037,-0.053703704,1,0,0,2.6584,optionLeft,70,6760,3,42,0,42,0,1,,,,,,,,,,,,,,,,,,,,,,,,,,,,,,,,,,,,,,,
,,,,,,,,2023-08-16_08h33.48.970,HF_wild_card,2022.2.4,Win32,144.9485433,64007622a1b9dbf7a50405cb,64d2fd46c836a06233681665,64dc7bc7cd581e52bf779d47,,,,,,,decisionTrl,resources/DR.BMP,resources/DB.BMP,Door4,0.361111111,-0.047222222,1,0,0,0.9981,optionRight,60,6820,3,43,0,43,0,1,,,,,,,,,,,,,,,,,,,,,,,,,,,,,,,,,,,,,,,
,,,,,,,,2023-08-16_08h33.48.970,HF_wild_card,2022.2.4,Win32,144.9485433,64007622a1b9dbf7a50405cb,64d2fd46c836a06233681665,64dc7bc7cd581e52bf779d47,,,,,,,,,,,,,,,,,,,,,,,,,,2,0,2,0,1,,,,,,,,,,,,,,,,,,,,,,,,,,,,,,,,,,
,,,,,,,,2023-08-16_08h33.48.970,HF_wild_card,2022.2.4,Win32,144.9485433,64007622a1b9dbf7a50405cb,64d2fd46c836a06233681665,64dc7bc7cd581e52bf779d47,,,,,,,ctch,resources/DR.BMP,resources/DP.BMP,Door3,-0.335185185,-0.156481481,1,0,0,1.7413,optionLeft,70,6890,4,0,0,0,0,1,,,,,,,,,,,,,,,,,,,,,,,,,,,,,,,,,,,,,,,
,,,,,,,,2023-08-16_08h33.48.970,HF_wild_card,2022.2.4,Win32,144.9485433,64007622a1b9dbf7a50405cb,64d2fd46c836a06233681665,64dc7bc7cd581e52bf779d47,,,,,,,decisionTrl,resources/DR.BMP,resources/DB.BMP,Door4,0.324074074,-0.035185185,1,0,0,0.9287,optionRight,60,6950,4,1,0,1,0,1,,,,,,,,,,,,,,,,,,,,,,,,,,,,,,,,,,,,,,,
,,,,,,,,2023-08-16_08h33.48.970,HF_wild_card,2022.2.4,Win32,144.9485433,64007622a1b9dbf7a50405cb,64d2fd46c836a06233681665,64dc7bc7cd581e52bf779d47,,,,,,,ctch,resources/DR.BMP,resources/DP.BMP,Door3,-0.293518519,-0.053703704,1,0,0,0.6653,optionLeft,70,7020,4,2,0,2,0,1,,,,,,,,,,,,,,,,,,,,,,,,,,,,,,,,,,,,,,,
,,,,,,,,2023-08-16_08h33.48.970,HF_wild_card,2022.2.4,Win32,144.9485433,64007622a1b9dbf7a50405cb,64d2fd46c836a06233681665,64dc7bc7cd581e52bf779d47,,,,,,,ctch,resources/DB.BMP,resources/DY.BMP,Door4,-0.373148148,-0.018518519,1,0,0,0.7552,optionLeft,80,7100,4,3,0,3,0,1,,,,,,,,,,,,,,,,,,,,,,,,,,,,,,,,,,,,,,,
,,,,,,,,2023-08-16_08h33.48.970,HF_wild_card,2022.2.4,Win32,144.9485433,64007622a1b9dbf7a50405cb,64d2fd46c836a06233681665,64dc7bc7cd581e52bf779d47,,,,,,,sngl,resources/DP.BMP,resources/Empty.png,Door2,-0.305555556,-0.043518519,1,0,0,1.1099,optionLeft,20,7120,4,4,0,4,0,1,,,,,,,,,,,,,,,,,,,,,,,,,,,,,,,,,,,,,,,
,,,,,,,,2023-08-16_08h33.48.970,HF_wild_card,2022.2.4,Win32,144.9485433,64007622a1b9dbf7a50405cb,64d2fd46c836a06233681665,64dc7bc7cd581e52bf779d47,,,,,,,decisionTrl,resources/DB.BMP,resources/DG.BMP,Door4,-0.399074074,0.027777778,1,0,0,0.7002,optionLeft,80,7200,4,5,0,5,0,1,,,,,,,,,,,,,,,,,,,,,,,,,,,,,,,,,,,,,,,
,,,,,,,,2023-08-16_08h33.48.970,HF_wild_card,2022.2.4,Win32,144.9485433,64007622a1b9dbf7a50405cb,64d2fd46c836a06233681665,64dc7bc7cd581e52bf779d47,,,,,,,sngl,resources/DY.BMP,resources/Empty.png,Door1,-0.44537037,0.007407407,1,0,0,1.1092,optionLeft,30,7230,4,6,0,6,0,1,,,,,,,,,,,,,,,,,,,,,,,,,,,,,,,,,,,,,,,
,,,,,,,,2023-08-16_08h33.48.970,HF_wild_card,2022.2.4,Win32,144.9485433,64007622a1b9dbf7a50405cb,64d2fd46c836a06233681665,64dc7bc7cd581e52bf779d47,,,,,,,sngl,resources/Empty.png,resources/DG.BMP,WildCard_Ex,0.385185185,-0.011111111,1,0,0,2.0494,optionRight,55,7285,4,7,0,7,0,1,,,,,,,,,,,,,,,,,,,,,,,,,,,,,,,,,,,,,,,
,,,,,,,,2023-08-16_08h33.48.970,HF_wild_card,2022.2.4,Win32,144.9485433,64007622a1b9dbf7a50405cb,64d2fd46c836a06233681665,64dc7bc7cd581e52bf779d47,,,,,,,decisionTrl,resources/DY.BMP,resources/DP.BMP,Door2,0.30462963,-0.025925926,1,0,0,1.978,optionRight,20,7305,4,8,0,8,0,1,,,,,,,,,,,,,,,,,,,,,,,,,,,,,,,,,,,,,,,
,,,,,,,,2023-08-16_08h33.48.970,HF_wild_card,2022.2.4,Win32,144.9485433,64007622a1b9dbf7a50405cb,64d2fd46c836a06233681665,64dc7bc7cd581e52bf779d47,,,,,,,decisionTrl,resources/DG.BMP,resources/DR.BMP,Door3,0.316666667,-0.083333333,1,0,0,2.5469,optionRight,70,7375,4,9,0,9,0,1,,,,,,,,,,,,,,,,,,,,,,,,,,,,,,,,,,,,,,,
,,,,,,,,2023-08-16_08h33.48.970,HF_wild_card,2022.2.4,Win32,144.9485433,64007622a1b9dbf7a50405cb,64d2fd46c836a06233681665,64dc7bc7cd581e52bf779d47,,,,,,,ctch,resources/DP.BMP,resources/DR.BMP,Door3,0.277777778,-0.041666667,1,0,0,0.8594,optionRight,70,7445,4,10,0,10,0,1,,,,,,,,,,,,,,,,,,,,,,,,,,,,,,,,,,,,,,,
,,,,,,,,2023-08-16_08h33.48.970,HF_wild_card,2022.2.4,Win32,144.9485433,64007622a1b9dbf7a50405cb,64d2fd46c836a06233681665,64dc7bc7cd581e52bf779d47,,,,,,,decisionTrl,resources/DB.BMP,resources/DR.BMP,Door4,-0.396296296,-0.061111111,1,0,0,0.6657,optionLeft,60,7505,4,11,0,11,0,1,,,,,,,,,,,,,,,,,,,,,,,,,,,,,,,,,,,,,,,
,,,,,,,,2023-08-16_08h33.48.970,HF_wild_card,2022.2.4,Win32,144.9485433,64007622a1b9dbf7a50405cb,64d2fd46c836a06233681665,64dc7bc7cd581e52bf779d47,,,,,,,sngl,resources/DR.BMP,resources/Empty.png,Door3,-0.350925926,-0.026851852,1,0,0,0.8595,optionLeft,70,7575,4,12,0,12,0,1,,,,,,,,,,,,,,,,,,,,,,,,,,,,,,,,,,,,,,,
,,,,,,,,2023-08-16_08h33.48.970,HF_wild_card,2022.2.4,Win32,144.9485433,64007622a1b9dbf7a50405cb,64d2fd46c836a06233681665,64dc7bc7cd581e52bf779d47,,,,,,,decisionTrl,resources/DY.BMP,resources/DP.BMP,Door2,0.409259259,-0.056481481,1,0,0,1.7,optionRight,20,7595,4,13,0,13,0,1,,,,,,,,,,,,,,,,,,,,,,,,,,,,,,,,,,,,,,,
,,,,,,,,2023-08-16_08h33.48.970,HF_wild_card,2022.2.4,Win32,144.9485433,64007622a1b9dbf7a50405cb,64d2fd46c836a06233681665,64dc7bc7cd581e52bf779d47,,,,,,,decisionTrl,resources/DG.BMP,resources/DB.BMP,Door4,0.408333333,-0.022222222,1,0,0,1.6183,optionRight,60,7655,4,14,0,14,0,1,,,,,,,,,,,,,,,,,,,,,,,,,,,,,,,,,,,,,,,
,,,,,,,,2023-08-16_08h33.48.970,HF_wild_card,2022.2.4,Win32,144.9485433,64007622a1b9dbf7a50405cb,64d2fd46c836a06233681665,64dc7bc7cd581e52bf779d47,,,,,,,ctch,resources/DB.BMP,resources/DY.BMP,Door4,-0.412962963,-0.046296296,1,0,0,0.9501,optionLeft,60,7715,4,15,0,15,0,1,,,,,,,,,,,,,,,,,,,,,,,,,,,,,,,,,,,,,,,
,,,,,,,,2023-08-16_08h33.48.970,HF_wild_card,2022.2.4,Win32,144.9485433,64007622a1b9dbf7a50405cb,64d2fd46c836a06233681665,64dc7bc7cd581e52bf779d47,,,,,,,decisionTrl,resources/DP.BMP,resources/DY.BMP,Door2,-0.316666667,-0.025,1,0,0,1.5819,optionLeft,20,7735,4,16,0,16,0,1,,,,,,,,,,,,,,,,,,,,,,,,,,,,,,,,,,,,,,,
,,,,,,,,2023-08-16_08h33.48.970,HF_wild_card,2022.2.4,Win32,144.9485433,64007622a1b9dbf7a50405cb,64d2fd46c836a06233681665,64dc7bc7cd581e52bf779d47,,,,,,,sngl,resources/Empty.png,resources/DY.BMP,Door1,0.288888889,-0.018518519,1,0,0,1.3035,optionRight,30,7765,4,17,0,17,0,1,,,,,,,,,,,,,,,,,,,,,,,,,,,,,,,,,,,,,,,
,,,,,,,,2023-08-16_08h33.48.970,HF_wild_card,2022.2.4,Win32,144.9485433,64007622a1b9dbf7a50405cb,64d2fd46c836a06233681665,64dc7bc7cd581e52bf779d47,,,,,,,decisionTrl,resources/DG.BMP,resources/DY.BMP,WildCard_Ex,-0.308333333,-0.017592593,1,0,0,1.5403,optionLeft,55,7820,4,18,0,18,0,1,,,,,,,,,,,,,,,,,,,,,,,,,,,,,,,,,,,,,,,
,,,,,,,,2023-08-16_08h33.48.970,HF_wild_card,2022.2.4,Win32,144.9485433,64007622a1b9dbf7a50405cb,64d2fd46c836a06233681665,64dc7bc7cd581e52bf779d47,,,,,,,decisionTrl,resources/DY.BMP,resources/DP.BMP,Door1,-0.330555556,-0.008333333,1,0,0,2.8385,optionLeft,30,7850,4,19,0,19,0,1,,,,,,,,,,,,,,,,,,,,,,,,,,,,,,,,,,,,,,,
,,,,,,,,2023-08-16_08h33.48.970,HF_wild_card,2022.2.4,Win32,144.9485433,64007622a1b9dbf7a50405cb,64d2fd46c836a06233681665,64dc7bc7cd581e52bf779d47,,,,,,,decisionTrl,resources/DG.BMP,resources/DP.BMP,WildCard_Ex,-0.271296296,-0.041666667,1,0,0,1.6512,optionLeft,45,7895,4,20,0,20,0,1,,,,,,,,,,,,,,,,,,,,,,,,,,,,,,,,,,,,,,,
,,,,,,,,2023-08-16_08h33.48.970,HF_wild_card,2022.2.4,Win32,144.9485433,64007622a1b9dbf7a50405cb,64d2fd46c836a06233681665,64dc7bc7cd581e52bf779d47,,,,,,,decisionTrl,resources/DB.BMP,resources/DR.BMP,Door4,-0.326851852,-0.034259259,1,0,0,0.7485,optionLeft,60,7955,4,21,0,21,0,1,,,,,,,,,,,,,,,,,,,,,,,,,,,,,,,,,,,,,,,
,,,,,,,,2023-08-16_08h33.48.970,HF_wild_card,2022.2.4,Win32,144.9485433,64007622a1b9dbf7a50405cb,64d2fd46c836a06233681665,64dc7bc7cd581e52bf779d47,,,,,,,ctch,resources/DY.BMP,resources/DB.BMP,Door4,0.353703704,-0.071296296,1,0,0,2.2202,optionRight,60,8015,4,22,0,22,0,1,,,,,,,,,,,,,,,,,,,,,,,,,,,,,,,,,,,,,,,
,,,,,,,,2023-08-16_08h33.48.970,HF_wild_card,2022.2.4,Win32,144.9485433,64007622a1b9dbf7a50405cb,64d2fd46c836a06233681665,64dc7bc7cd581e52bf779d47,,,,,,,sngl,resources/DG.BMP,resources/Empty.png,WildCard_Ex,-0.287962963,-0.002777778,1,0,0,1.7904,optionLeft,45,8060,4,23,0,23,0,1,,,,,,,,,,,,,,,,,,,,,,,,,,,,,,,,,,,,,,,
,,,,,,,,2023-08-16_08h33.48.970,HF_wild_card,2022.2.4,Win32,144.9485433,64007622a1b9dbf7a50405cb,64d2fd46c836a06233681665,64dc7bc7cd581e52bf779d47,,,,,,,decisionTrl,resources/DY.BMP,resources/DG.BMP,WildCard_Ex,0.376851852,-0.033333333,1,0,0,2.2416,optionRight,45,8105,4,24,0,24,0,1,,,,,,,,,,,,,,,,,,,,,,,,,,,,,,,,,,,,,,,
,,,,,,,,2023-08-16_08h33.48.970,HF_wild_card,2022.2.4,Win32,144.9485433,64007622a1b9dbf7a50405cb,64d2fd46c836a06233681665,64dc7bc7cd581e52bf779d47,,,,,,,decisionTrl,resources/DP.BMP,resources/DY.BMP,Door2,-0.319444444,-0.040740741,1,0,0,2.1099,optionLeft,20,8125,4,25,0,25,0,1,,,,,,,,,,,,,,,,,,,,,,,,,,,,,,,,,,,,,,,
,,,,,,,,2023-08-16_08h33.48.970,HF_wild_card,2022.2.4,Win32,144.9485433,64007622a1b9dbf7a50405cb,64d2fd46c836a06233681665,64dc7bc7cd581e52bf779d47,,,,,,,sngl,resources/Empty.png,resources/DP.BMP,Door2,0.308333333,-0.037962963,1,0,0,0.9568,optionRight,40,8165,4,26,0,26,0,1,,,,,,,,,,,,,,,,,,,,,,,,,,,,,,,,,,,,,,,
,,,,,,,,2023-08-16_08h33.48.970,HF_wild_card,2022.2.4,Win32,144.9485433,64007622a1b9dbf7a50405cb,64d2fd46c836a06233681665,64dc7bc7cd581e52bf779d47,,,,,,,sngl,resources/Empty.png,resources/DG.BMP,WildCard_Ex,0.363888889,-0.048148148,1,0,0,0.9565,optionRight,45,8210,4,27,0,27,0,1,,,,,,,,,,,,,,,,,,,,,,,,,,,,,,,,,,,,,,,
,,,,,,,,2023-08-16_08h33.48.970,HF_wild_card,2022.2.4,Win32,144.9485433,64007622a1b9dbf7a50405cb,64d2fd46c836a06233681665,64dc7bc7cd581e52bf779d47,,,,,,,decisionTrl,resources/DB.BMP,resources/DR.BMP,Door4,-0.387962963,-0.022222222,1,0,0,0.9985,optionLeft,60,8270,4,28,0,28,0,1,,,,,,,,,,,,,,,,,,,,,,,,,,,,,,,,,,,,,,,
,,,,,,,,2023-08-16_08h33.48.970,HF_wild_card,2022.2.4,Win32,144.9485433,64007622a1b9dbf7a50405cb,64d2fd46c836a06233681665,64dc7bc7cd581e52bf779d47,,,,,,,decisionTrl,resources/DB.BMP,resources/DR.BMP,Door4,-0.327777778,-0.048148148,1,0,0,0.9778,optionLeft,60,8330,4,29,0,29,0,1,,,,,,,,,,,,,,,,,,,,,,,,,,,,,,,,,,,,,,,
,,,,,,,,2023-08-16_08h33.48.970,HF_wild_card,2022.2.4,Win32,144.9485433,64007622a1b9dbf7a50405cb,64d2fd46c836a06233681665,64dc7bc7cd581e52bf779d47,,,,,,,ctch,resources/DP.BMP,resources/DR.BMP,Door3,0.34537037,-0.063888889,1,0,0,1.5607,optionRight,70,8400,4,30,0,30,0,1,,,,,,,,,,,,,,,,,,,,,,,,,,,,,,,,,,,,,,,
,,,,,,,,2023-08-16_08h33.48.970,HF_wild_card,2022.2.4,Win32,144.9485433,64007622a1b9dbf7a50405cb,64d2fd46c836a06233681665,64dc7bc7cd581e52bf779d47,,,,,,,decisionTrl,resources/DP.BMP,resources/DY.BMP,Door2,-0.398148148,-0.043518519,1,0,0,2.6647,optionLeft,20,8420,4,31,0,31,0,1,,,,,,,,,,,,,,,,,,,,,,,,,,,,,,,,,,,,,,,
,,,,,,,,2023-08-16_08h33.48.970,HF_wild_card,2022.2.4,Win32,144.9485433,64007622a1b9dbf7a50405cb,64d2fd46c836a06233681665,64dc7bc7cd581e52bf779d47,,,,,,,decisionTrl,resources/DR.BMP,resources/DB.BMP,Door4,0.342592593,-0.018518519,1,0,0,1.1376,optionRight,60,8480,4,32,0,32,0,1,,,,,,,,,,,,,,,,,,,,,,,,,,,,,,,,,,,,,,,
,,,,,,,,2023-08-16_08h33.48.970,HF_wild_card,2022.2.4,Win32,144.9485433,64007622a1b9dbf7a50405cb,64d2fd46c836a06233681665,64dc7bc7cd581e52bf779d47,,,,,,,decisionTrl,resources/DR.BMP,resources/DB.BMP,Door4,0.325925926,-0.046296296,1,0,0,0.9079,optionRight,60,8540,4,33,0,33,0,1,,,,,,,,,,,,,,,,,,,,,,,,,,,,,,,,,,,,,,,
,,,,,,,,2023-08-16_08h33.48.970,HF_wild_card,2022.2.4,Win32,144.9485433,64007622a1b9dbf7a50405cb,64d2fd46c836a06233681665,64dc7bc7cd581e52bf779d47,,,,,,,sngl,resources/DG.BMP,resources/Empty.png,WildCard_Ex,-0.390740741,-0.002777778,1,0,0,1.0407,optionLeft,55,8595,4,34,0,34,0,1,,,,,,,,,,,,,,,,,,,,,,,,,,,,,,,,,,,,,,,
,,,,,,,,2023-08-16_08h33.48.970,HF_wild_card,2022.2.4,Win32,144.9485433,64007622a1b9dbf7a50405cb,64d2fd46c836a06233681665,64dc7bc7cd581e52bf779d47,,,,,,,ctch,resources/DY.BMP,resources/DB.BMP,Door4,0.29537037,-0.010185185,1,0,0,0.7558,optionRight,60,8655,4,35,0,35,0,1,,,,,,,,,,,,,,,,,,,,,,,,,,,,,,,,,,,,,,,
,,,,,,,,2023-08-16_08h33.48.970,HF_wild_card,2022.2.4,Win32,144.9485433,64007622a1b9dbf7a50405cb,64d2fd46c836a06233681665,64dc7bc7cd581e52bf779d47,,,,,,,decisionTrl,resources/DR.BMP,resources/DG.BMP,Door3,-0.477777778,-0.013888889,1,0,0,1.4433,optionLeft,70,8725,4,36,0,36,0,1,,,,,,,,,,,,,,,,,,,,,,,,,,,,,,,,,,,,,,,
,,,,,,,,2023-08-16_08h33.48.970,HF_wild_card,2022.2.4,Win32,144.9485433,64007622a1b9dbf7a50405cb,64d2fd46c836a06233681665,64dc7bc7cd581e52bf779d47,,,,,,,decisionTrl,resources/DR.BMP,resources/DB.BMP,Door3,-0.408333333,-0.00462963,1,0,0,0.9715,optionLeft,70,8795,4,37,0,37,0,1,,,,,,,,,,,,,,,,,,,,,,,,,,,,,,,,,,,,,,,
,,,,,,,,2023-08-16_08h33.48.970,HF_wild_card,2022.2.4,Win32,144.9485433,64007622a1b9dbf7a50405cb,64d2fd46c836a06233681665,64dc7bc7cd581e52bf779d47,,,,,,,decisionTrl,resources/DP.BMP,resources/DG.BMP,WildCard_Ex,0.440740741,-0.027777778,1,0,0,1.8527,optionRight,55,8850,4,38,0,38,0,1,,,,,,,,,,,,,,,,,,,,,,,,,,,,,,,,,,,,,,,
,,,,,,,,2023-08-16_08h33.48.970,HF_wild_card,2022.2.4,Win32,144.9485433,64007622a1b9dbf7a50405cb,64d2fd46c836a06233681665,64dc7bc7cd581e52bf779d47,,,,,,,sngl,resources/DB.BMP,resources/Empty.png,Door4,-0.361111111,-0.037037037,1,0,0,2.3107,optionLeft,60,8910,4,39,0,39,0,1,,,,,,,,,,,,,,,,,,,,,,,,,,,,,,,,,,,,,,,
,,,,,,,,2023-08-16_08h33.48.970,HF_wild_card,2022.2.4,Win32,144.9485433,64007622a1b9dbf7a50405cb,64d2fd46c836a06233681665,64dc7bc7cd581e52bf779d47,,,,,,,sngl,resources/Empty.png,resources/DB.BMP,Door4,0.347222222,-0.018518519,1,0,0,0.9637,optionRight,80,8990,4,40,0,40,0,1,,,,,,,,,,,,,,,,,,,,,,,,,,,,,,,,,,,,,,,
,,,,,,,,2023-08-16_08h33.48.970,HF_wild_card,2022.2.4,Win32,144.9485433,64007622a1b9dbf7a50405cb,64d2fd46c836a06233681665,64dc7bc7cd581e52bf779d47,,,,,,,decisionTrl,resources/DP.BMP,resources/DY.BMP,Door2,-0.467592593,-0.063888889,1,0,0,3.2688,optionLeft,40,9030,4,41,0,41,0,1,,,,,,,,,,,,,,,,,,,,,,,,,,,,,,,,,,,,,,,
,,,,,,,,2023-08-16_08h33.48.970,HF_wild_card,2022.2.4,Win32,144.9485433,64007622a1b9dbf7a50405cb,64d2fd46c836a06233681665,64dc7bc7cd581e52bf779d47,,,,,,,decisionTrl,resources/DY.BMP,resources/DP.BMP,Door1,-0.376851852,-0.087037037,1,0,0,3.0613,optionLeft,30,9060,4,42,0,42,0,1,,,,,,,,,,,,,,,,,,,,,,,,,,,,,,,,,,,,,,,
,,,,,,,,2023-08-16_08h33.48.970,HF_wild_card,2022.2.4,Win32,144.9485433,64007622a1b9dbf7a50405cb,64d2fd46c836a06233681665,64dc7bc7cd581e52bf779d47,,,,,,,sngl,resources/Empty.png,resources/DR.BMP,Door3,0.365740741,-0.088888889,1,0,0,0.8802,optionRight,70,9130,4,43,0,43,0,1,,,,,,,,,,,,,,,,,,,,,,,,,,,,,,,,,,,,,,,
,,,,,,,,2023-08-16_08h33.48.970,HF_wild_card,2022.2.4,Win32,144.9485433,64007622a1b9dbf7a50405cb,64d2fd46c836a06233681665,64dc7bc7cd581e52bf779d47,,,,,,,,,,,,,,,,,,,,,,,,,,3,0,3,0,1,,,,,,,,,,,,,,,,,,,,,,,,,,,,,,,,,,
,,,,,,,,2023-08-16_08h33.48.970,HF_wild_card,2022.2.4,Win32,144.9485433,64007622a1b9dbf7a50405cb,64d2fd46c836a06233681665,64dc7bc7cd581e52bf779d47,,,,,,,sngl,resources/DR.BMP,resources/Empty.png,Door3,-0.412037037,-0.074074074,1,0,0,1.0611,optionLeft,70,9200,5,0,0,0,0,1,,,,,,,,,,,,,,,,,,,,,,,,,,,,,,,,,,,,,,,
,,,,,,,,2023-08-16_08h33.48.970,HF_wild_card,2022.2.4,Win32,144.9485433,64007622a1b9dbf7a50405cb,64d2fd46c836a06233681665,64dc7bc7cd581e52bf779d47,,,,,,,sngl,resources/DP.BMP,resources/Empty.png,Door2,-0.375925926,-0.093518519,1,0,0,0.9293,optionLeft,40,9240,5,1,0,1,0,1,,,,,,,,,,,,,,,,,,,,,,,,,,,,,,,,,,,,,,,
,,,,,,,,2023-08-16_08h33.48.970,HF_wild_card,2022.2.4,Win32,144.9485433,64007622a1b9dbf7a50405cb,64d2fd46c836a06233681665,64dc7bc7cd581e52bf779d47,,,,,,,sngl,resources/Empty.png,resources/DP.BMP,Door2,0.412962963,-0.067592593,1,0,0,1.2693,optionRight,20,9260,5,2,0,2,0,1,,,,,,,,,,,,,,,,,,,,,,,,,,,,,,,,,,,,,,,
,,,,,,,,2023-08-16_08h33.48.970,HF_wild_card,2022.2.4,Win32,144.9485433,64007622a1b9dbf7a50405cb,64d2fd46c836a06233681665,64dc7bc7cd581e52bf779d47,,,,,,,decisionTrl,resources/DG.BMP,resources/DB.BMP,Door4,0.323148148,-0.009259259,1,0,0,1.4357,optionRight,60,9320,5,3,0,3,0,1,,,,,,,,,,,,,,,,,,,,,,,,,,,,,,,,,,,,,,,
,,,,,,,,2023-08-16_08h33.48.970,HF_wild_card,2022.2.4,Win32,144.9485433,64007622a1b9dbf7a50405cb,64d2fd46c836a06233681665,64dc7bc7cd581e52bf779d47,,,,,,,decisionTrl,resources/DB.BMP,resources/DG.BMP,Door4,-0.446296296,-0.084259259,1,0,0,0.9639,optionLeft,80,9400,5,4,0,4,0,1,,,,,,,,,,,,,,,,,,,,,,,,,,,,,,,,,,,,,,,
,,,,,,,,2023-08-16_08h33.48.970,HF_wild_card,2022.2.4,Win32,144.9485433,64007622a1b9dbf7a50405cb,64d2fd46c836a06233681665,64dc7bc7cd581e52bf779d47,,,,,,,decisionTrl,resources/DR.BMP,resources/DG.BMP,WildCard_Ex,0.312962963,-0.05,1,0,0,1.6859,optionRight,45,9445,5,5,0,5,0,1,,,,,,,,,,,,,,,,,,,,,,,,,,,,,,,,,,,,,,,
,,,,,,,,2023-08-16_08h33.48.970,HF_wild_card,2022.2.4,Win32,144.9485433,64007622a1b9dbf7a50405cb,64d2fd46c836a06233681665,64dc7bc7cd581e52bf779d47,,,,,,,decisionTrl,resources/DB.BMP,resources/DR.BMP,Door3,0.282407407,-0.097222222,1,0,0,2.29,optionRight,70,9515,5,6,0,6,0,1,,,,,,,,,,,,,,,,,,,,,,,,,,,,,,,,,,,,,,,
,,,,,,,,2023-08-16_08h33.48.970,HF_wild_card,2022.2.4,Win32,144.9485433,64007622a1b9dbf7a50405cb,64d2fd46c836a06233681665,64dc7bc7cd581e52bf779d47,,,,,,,ctch,resources/DB.BMP,resources/DY.BMP,Door4,-0.325,-0.089814815,1,0,0,1.0268,optionLeft,60,9575,5,7,0,7,0,1,,,,,,,,,,,,,,,,,,,,,,,,,,,,,,,,,,,,,,,
,,,,,,,,2023-08-16_08h33.48.970,HF_wild_card,2022.2.4,Win32,144.9485433,64007622a1b9dbf7a50405cb,64d2fd46c836a06233681665,64dc7bc7cd581e52bf779d47,,,,,,,decisionTrl,resources/DB.BMP,resources/DR.BMP,Door4,-0.278703704,-0.062037037,1,0,0,0.8739,optionLeft,80,9655,5,8,0,8,0,1,,,,,,,,,,,,,,,,,,,,,,,,,,,,,,,,,,,,,,,
,,,,,,,,2023-08-16_08h33.48.970,HF_wild_card,2022.2.4,Win32,144.9485433,64007622a1b9dbf7a50405cb,64d2fd46c836a06233681665,64dc7bc7cd581e52bf779d47,,,,,,,sngl,resources/Empty.png,resources/DG.BMP,WildCard_Ex,0.260185185,-0.109259259,1,0,0,1.7072,optionRight,45,9700,5,9,0,9,0,1,,,,,,,,,,,,,,,,,,,,,,,,,,,,,,,,,,,,,,,
,,,,,,,,2023-08-16_08h33.48.970,HF_wild_card,2022.2.4,Win32,144.9485433,64007622a1b9dbf7a50405cb,64d2fd46c836a06233681665,64dc7bc7cd581e52bf779d47,,,,,,,sngl,resources/DG.BMP,resources/Empty.png,WildCard_Ex,-0.258333333,-0.10462963,1,0,0,0.9152,optionLeft,55,9755,5,10,0,10,0,1,,,,,,,,,,,,,,,,,,,,,,,,,,,,,,,,,,,,,,,
,,,,,,,,2023-08-16_08h33.48.970,HF_wild_card,2022.2.4,Win32,144.9485433,64007622a1b9dbf7a50405cb,64d2fd46c836a06233681665,64dc7bc7cd581e52bf779d47,,,,,,,ctch,resources/DB.BMP,resources/DY.BMP,Door4,-0.421296296,-0.052777778,1,0,0,1.3042,optionLeft,60,9815,5,11,0,11,0,1,,,,,,,,,,,,,,,,,,,,,,,,,,,,,,,,,,,,,,,
,,,,,,,,2023-08-16_08h33.48.970,HF_wild_card,2022.2.4,Win32,144.9485433,64007622a1b9dbf7a50405cb,64d2fd46c836a06233681665,64dc7bc7cd581e52bf779d47,,,,,,,decisionTrl,resources/DR.BMP,resources/DB.BMP,Door4,0.343518519,-0.085185185,1,0,0,0.9705,optionRight,60,9875,5,12,0,12,0,1,,,,,,,,,,,,,,,,,,,,,,,,,,,,,,,,,,,,,,,
,,,,,,,,2023-08-16_08h33.48.970,HF_wild_card,2022.2.4,Win32,144.9485433,64007622a1b9dbf7a50405cb,64d2fd46c836a06233681665,64dc7bc7cd581e52bf779d47,,,,,,,decisionTrl,resources/DY.BMP,resources/DP.BMP,Door2,0.477777778,-0.112962963,1,0,0,1.7068,optionRight,20,9895,5,13,0,13,0,1,,,,,,,,,,,,,,,,,,,,,,,,,,,,,,,,,,,,,,,
,,,,,,,,2023-08-16_08h33.48.970,HF_wild_card,2022.2.4,Win32,144.9485433,64007622a1b9dbf7a50405cb,64d2fd46c836a06233681665,64dc7bc7cd581e52bf779d47,,,,,,,decisionTrl,resources/DB.BMP,resources/DR.BMP,Door4,-0.246296296,-0.091666667,1,0,0,0.7552,optionLeft,80,9975,5,14,0,14,0,1,,,,,,,,,,,,,,,,,,,,,,,,,,,,,,,,,,,,,,,
,,,,,,,,2023-08-16_08h33.48.970,HF_wild_card,2022.2.4,Win32,144.9485433,64007622a1b9dbf7a50405cb,64d2fd46c836a06233681665,64dc7bc7cd581e52bf779d47,,,,,,,decisionTrl,resources/DG.BMP,resources/DR.BMP,Door3,0.35462963,-0.102777778,1,0,0,1.3248,optionRight,70,10045,5,15,0,15,0,1,,,,,,,,,,,,,,,,,,,,,,,,,,,,,,,,,,,,,,,
,,,,,,,,2023-08-16_08h33.48.970,HF_wild_card,2022.2.4,Win32,144.9485433,64007622a1b9dbf7a50405cb,64d2fd46c836a06233681665,64dc7bc7cd581e52bf779d47,,,,,,,decisionTrl,resources/DP.BMP,resources/DY.BMP,Door2,-0.32037037,-0.058333333,1,0,0,3.9431,optionLeft,40,10085,5,16,0,16,0,1,,,,,,,,,,,,,,,,,,,,,,,,,,,,,,,,,,,,,,,
,,,,,,,,2023-08-16_08h33.48.970,HF_wild_card,2022.2.4,Win32,144.9485433,64007622a1b9dbf7a50405cb,64d2fd46c836a06233681665,64dc7bc7cd581e52bf779d47,,,,,,,decisionTrl,resources/DP.BMP,resources/DY.BMP,Door2,-0.333333333,-0.044444444,1,0,0,1.2417,optionLeft,20,10105,5,17,0,17,0,1,,,,,,,,,,,,,,,,,,,,,,,,,,,,,,,,,,,,,,,
,,,,,,,,2023-08-16_08h33.48.970,HF_wild_card,2022.2.4,Win32,144.9485433,64007622a1b9dbf7a50405cb,64d2fd46c836a06233681665,64dc7bc7cd581e52bf779d47,,,,,,,decisionTrl,resources/DB.BMP,resources/DR.BMP,Door4,-0.425925926,-0.072222222,1,0,0,0.7766,optionLeft,60,10165,5,18,0,18,0,1,,,,,,,,,,,,,,,,,,,,,,,,,,,,,,,,,,,,,,,
,,,,,,,,2023-08-16_08h33.48.970,HF_wild_card,2022.2.4,Win32,144.9485433,64007622a1b9dbf7a50405cb,64d2fd46c836a06233681665,64dc7bc7cd581e52bf779d47,,,,,,,ctch,resources/DP.BMP,resources/DR.BMP,Door3,0.302777778,-0.081481481,1,0,0,1.0333,optionRight,70,10235,5,19,0,19,0,1,,,,,,,,,,,,,,,,,,,,,,,,,,,,,,,,,,,,,,,
,,,,,,,,2023-08-16_08h33.48.970,HF_wild_card,2022.2.4,Win32,144.9485433,64007622a1b9dbf7a50405cb,64d2fd46c836a06233681665,64dc7bc7cd581e52bf779d47,,,,,,,decisionTrl,resources/DR.BMP,resources/DB.BMP,Door4,0.380555556,-0.089814815,1,0,0,1.5195,optionRight,60,10295,5,20,0,20,0,1,,,,,,,,,,,,,,,,,,,,,,,,,,,,,,,,,,,,,,,
,,,,,,,,2023-08-16_08h33.48.970,HF_wild_card,2022.2.4,Win32,144.9485433,64007622a1b9dbf7a50405cb,64d2fd46c836a06233681665,64dc7bc7cd581e52bf779d47,,,,,,,decisionTrl,resources/DY.BMP,resources/DP.BMP,Door1,-0.347222222,-0.047222222,1,0,0,1.8865,optionLeft,30,10325,5,21,0,21,0,1,,,,,,,,,,,,,,,,,,,,,,,,,,,,,,,,,,,,,,,
,,,,,,,,2023-08-16_08h33.48.970,HF_wild_card,2022.2.4,Win32,144.9485433,64007622a1b9dbf7a50405cb,64d2fd46c836a06233681665,64dc7bc7cd581e52bf779d47,,,,,,,decisionTrl,resources/DY.BMP,resources/DG.BMP,WildCard_Ex,0.418518519,-0.065740741,1,0,0,0.856,optionRight,55,10380,5,22,0,22,0,1,,,,,,,,,,,,,,,,,,,,,,,,,,,,,,,,,,,,,,,
,,,,,,,,2023-08-16_08h33.48.970,HF_wild_card,2022.2.4,Win32,144.9485433,64007622a1b9dbf7a50405cb,64d2fd46c836a06233681665,64dc7bc7cd581e52bf779d47,,,,,,,ctch,resources/DY.BMP,resources/DB.BMP,Door4,0.425925926,-0.123148148,1,0,0,0.6373,optionRight,60,10440,5,23,0,23,0,1,,,,,,,,,,,,,,,,,,,,,,,,,,,,,,,,,,,,,,,
,,,,,,,,2023-08-16_08h33.48.970,HF_wild_card,2022.2.4,Win32,144.9485433,64007622a1b9dbf7a50405cb,64d2fd46c836a06233681665,64dc7bc7cd581e52bf779d47,,,,,,,decisionTrl,resources/DR.BMP,resources/DB.BMP,Door4,0.430555556,-0.084259259,1,0,0,0.6166,optionRight,60,10500,5,24,0,24,0,1,,,,,,,,,,,,,,,,,,,,,,,,,,,,,,,,,,,,,,,
,,,,,,,,2023-08-16_08h33.48.970,HF_wild_card,2022.2.4,Win32,144.9485433,64007622a1b9dbf7a50405cb,64d2fd46c836a06233681665,64dc7bc7cd581e52bf779d47,,,,,,,decisionTrl,resources/DR.BMP,resources/DB.BMP,Door3,-0.319444444,-0.115740741,1,0,0,0.6789,optionLeft,70,10570,5,25,0,25,0,1,,,,,,,,,,,,,,,,,,,,,,,,,,,,,,,,,,,,,,,
,,,,,,,,2023-08-16_08h33.48.970,HF_wild_card,2022.2.4,Win32,144.9485433,64007622a1b9dbf7a50405cb,64d2fd46c836a06233681665,64dc7bc7cd581e52bf779d47,,,,,,,sngl,resources/Empty.png,resources/DY.BMP,Door1,0.344444444,-0.138888889,1,0,0,0.7897,optionRight,30,10600,5,26,0,26,0,1,,,,,,,,,,,,,,,,,,,,,,,,,,,,,,,,,,,,,,,
,,,,,,,,2023-08-16_08h33.48.970,HF_wild_card,2022.2.4,Win32,144.9485433,64007622a1b9dbf7a50405cb,64d2fd46c836a06233681665,64dc7bc7cd581e52bf779d47,,,,,,,decisionTrl,resources/DP.BMP,resources/DG.BMP,WildCard_Ex,0.369444444,-0.060185185,1,0,0,1.8871,optionRight,55,10655,5,27,0,27,0,1,,,,,,,,,,,,,,,,,,,,,,,,,,,,,,,,,,,,,,,
,,,,,,,,2023-08-16_08h33.48.970,HF_wild_card,2022.2.4,Win32,144.9485433,64007622a1b9dbf7a50405cb,64d2fd46c836a06233681665,64dc7bc7cd581e52bf779d47,,,,,,,sngl,resources/Empty.png,resources/DR.BMP,Door3,0.288888889,-0.035185185,1,0,0,0.8379,optionRight,70,10725,5,28,0,28,0,1,,,,,,,,,,,,,,,,,,,,,,,,,,,,,,,,,,,,,,,
,,,,,,,,2023-08-16_08h33.48.970,HF_wild_card,2022.2.4,Win32,144.9485433,64007622a1b9dbf7a50405cb,64d2fd46c836a06233681665,64dc7bc7cd581e52bf779d47,,,,,,,sngl,resources/Empty.png,resources/DB.BMP,Door4,0.463888889,-0.111111111,1,0,0,0.5542,optionRight,60,10785,5,29,0,29,0,1,,,,,,,,,,,,,,,,,,,,,,,,,,,,,,,,,,,,,,,
,,,,,,,,2023-08-16_08h33.48.970,HF_wild_card,2022.2.4,Win32,144.9485433,64007622a1b9dbf7a50405cb,64d2fd46c836a06233681665,64dc7bc7cd581e52bf779d47,,,,,,,sngl,resources/DG.BMP,resources/Empty.png,WildCard_Ex,-0.403703704,-0.034259259,1,0,0,4.387,optionLeft,45,10830,5,30,0,30,0,1,,,,,,,,,,,,,,,,,,,,,,,,,,,,,,,,,,,,,,,
,,,,,,,,2023-08-16_08h33.48.970,HF_wild_card,2022.2.4,Win32,144.9485433,64007622a1b9dbf7a50405cb,64d2fd46c836a06233681665,64dc7bc7cd581e52bf779d47,,,,,,,decisionTrl,resources/DY.BMP,resources/DP.BMP,Door1,-0.45462963,-0.058333333,1,0,0,1.9986,optionLeft,30,10860,5,31,0,31,0,1,,,,,,,,,,,,,,,,,,,,,,,,,,,,,,,,,,,,,,,
,,,,,,,,2023-08-16_08h33.48.970,HF_wild_card,2022.2.4,Win32,144.9485433,64007622a1b9dbf7a50405cb,64d2fd46c836a06233681665,64dc7bc7cd581e52bf779d47,,,,,,,decisionTrl,resources/DY.BMP,resources/DP.BMP,Door2,0.416666667,-0.094444444,1,0,0,0.6863,optionRight,20,10880,5,32,0,32,0,1,,,,,,,,,,,,,,,,,,,,,,,,,,,,,,,,,,,,,,,
,,,,,,,,2023-08-16_08h33.48.970,HF_wild_card,2022.2.4,Win32,144.9485433,64007622a1b9dbf7a50405cb,64d2fd46c836a06233681665,64dc7bc7cd581e52bf779d47,,,,,,,ctch,resources/DP.BMP,resources/DR.BMP,Door3,0.431481481,-0.153703704,1,0,0,1.7833,optionRight,70,10950,5,33,0,33,0,1,,,,,,,,,,,,,,,,,,,,,,,,,,,,,,,,,,,,,,,
,,,,,,,,2023-08-16_08h33.48.970,HF_wild_card,2022.2.4,Win32,144.9485433,64007622a1b9dbf7a50405cb,64d2fd46c836a06233681665,64dc7bc7cd581e52bf779d47,,,,,,,ctch,resources/DR.BMP,resources/DP.BMP,Door2,0.463888889,-0.085185185,1,0,0,1.7972,optionRight,40,10990,5,34,0,34,0,1,,,,,,,,,,,,,,,,,,,,,,,,,,,,,,,,,,,,,,,
,,,,,,,,2023-08-16_08h33.48.970,HF_wild_card,2022.2.4,Win32,144.9485433,64007622a1b9dbf7a50405cb,64d2fd46c836a06233681665,64dc7bc7cd581e52bf779d47,,,,,,,sngl,resources/Empty.png,resources/DG.BMP,WildCard_Ex,0.405555556,-0.052777778,1,0,0,0.7163,optionRight,55,11045,5,35,0,35,0,1,,,,,,,,,,,,,,,,,,,,,,,,,,,,,,,,,,,,,,,
,,,,,,,,2023-08-16_08h33.48.970,HF_wild_card,2022.2.4,Win32,144.9485433,64007622a1b9dbf7a50405cb,64d2fd46c836a06233681665,64dc7bc7cd581e52bf779d47,,,,,,,decisionTrl,resources/DG.BMP,resources/DP.BMP,Door2,0.386111111,-0.021296296,1,0,0,0.8738,optionRight,40,11085,5,36,0,36,0,1,,,,,,,,,,,,,,,,,,,,,,,,,,,,,,,,,,,,,,,
,,,,,,,,2023-08-16_08h33.48.970,HF_wild_card,2022.2.4,Win32,144.9485433,64007622a1b9dbf7a50405cb,64d2fd46c836a06233681665,64dc7bc7cd581e52bf779d47,,,,,,,sngl,resources/DB.BMP,resources/Empty.png,Door4,-0.12037037,-0.05,1,0,0,0.8666,optionLeft,80,11165,5,37,0,37,0,1,,,,,,,,,,,,,,,,,,,,,,,,,,,,,,,,,,,,,,,
,,,,,,,,2023-08-16_08h33.48.970,HF_wild_card,2022.2.4,Win32,144.9485433,64007622a1b9dbf7a50405cb,64d2fd46c836a06233681665,64dc7bc7cd581e52bf779d47,,,,,,,ctch,resources/DY.BMP,resources/DB.BMP,Door4,0.413888889,-0.075,1,0,0,3.5599,optionRight,60,11225,5,38,0,38,0,1,,,,,,,,,,,,,,,,,,,,,,,,,,,,,,,,,,,,,,,
,,,,,,,,2023-08-16_08h33.48.970,HF_wild_card,2022.2.4,Win32,144.9485433,64007622a1b9dbf7a50405cb,64d2fd46c836a06233681665,64dc7bc7cd581e52bf779d47,,,,,,,ctch,resources/DR.BMP,resources/DP.BMP,Door3,-0.365740741,-0.050925926,1,0,0,1.3112,optionLeft,70,11295,5,39,0,39,0,1,,,,,,,,,,,,,,,,,,,,,,,,,,,,,,,,,,,,,,,
,,,,,,,,2023-08-16_08h33.48.970,HF_wild_card,2022.2.4,Win32,144.9485433,64007622a1b9dbf7a50405cb,64d2fd46c836a06233681665,64dc7bc7cd581e52bf779d47,,,,,,,decisionTrl,resources/DP.BMP,resources/DY.BMP,Door2,-0.314814815,-0.048148148,1,0,0,0.8947,optionLeft,20,11315,5,40,0,40,0,1,,,,,,,,,,,,,,,,,,,,,,,,,,,,,,,,,,,,,,,
,,,,,,,,2023-08-16_08h33.48.970,HF_wild_card,2022.2.4,Win32,144.9485433,64007622a1b9dbf7a50405cb,64d2fd46c836a06233681665,64dc7bc7cd581e52bf779d47,,,,,,,sngl,resources/DY.BMP,resources/Empty.png,Door1,-0.283333333,-0.035185185,1,0,0,0.7065,optionLeft,30,11345,5,41,0,41,0,1,,,,,,,,,,,,,,,,,,,,,,,,,,,,,,,,,,,,,,,
,,,,,,,,2023-08-16_08h33.48.970,HF_wild_card,2022.2.4,Win32,144.9485433,64007622a1b9dbf7a50405cb,64d2fd46c836a06233681665,64dc7bc7cd581e52bf779d47,,,,,,,decisionTrl,resources/DP.BMP,resources/DY.BMP,Door1,0.438888889,-0.068518519,1,0,0,0.8386,optionRight,30,11375,5,42,0,42,0,1,,,,,,,,,,,,,,,,,,,,,,,,,,,,,,,,,,,,,,,
,,,,,,,,2023-08-16_08h33.48.970,HF_wild_card,2022.2.4,Win32,144.9485433,64007622a1b9dbf7a50405cb,64d2fd46c836a06233681665,64dc7bc7cd581e52bf779d47,,,,,,,decisionTrl,resources/DG.BMP,resources/DY.BMP,WildCard_Ex,-0.341666667,-0.047222222,1,0,0,1.0958,optionLeft,45,11420,5,43,0,43,0,1,,,,,,,,,,,,,,,,,,,,,,,,,,,,,,,,,,,,,,,
,,,,,,,,2023-08-16_08h33.48.970,HF_wild_card,2022.2.4,Win32,144.9485433,64007622a1b9dbf7a50405cb,64d2fd46c836a06233681665,64dc7bc7cd581e52bf779d47,,,,,,,,,,,,,,,,,,,,,,,,,,4,0,4,0,1,,,,,,,,,,,,,,,,,,,,,,,,,,,,,,,,,,
,,,,,,,,2023-08-16_08h33.48.970,HF_wild_card,2022.2.4,Win32,144.9485433,64007622a1b9dbf7a50405cb,64d2fd46c836a06233681665,64dc7bc7cd581e52bf779d47,,,,,,,decisionTrl,resources/DB.BMP,resources/DR.BMP,Door4,-0.328703704,-0.072222222,1,0,0,0.8309,optionLeft,80,11500,6,0,0,0,0,1,,,,,,,,,,,,,,,,,,,,,,,,,,,,,,,,,,,,,,,
,,,,,,,,2023-08-16_08h33.48.970,HF_wild_card,2022.2.4,Win32,144.9485433,64007622a1b9dbf7a50405cb,64d2fd46c836a06233681665,64dc7bc7cd581e52bf779d47,,,,,,,decisionTrl,resources/DR.BMP,resources/DG.BMP,Door3,-0.342592593,-0.032407407,1,0,0,1.3221,optionLeft,70,11570,6,1,0,1,0,1,,,,,,,,,,,,,,,,,,,,,,,,,,,,,,,,,,,,,,,
,,,,,,,,2023-08-16_08h33.48.970,HF_wild_card,2022.2.4,Win32,144.9485433,64007622a1b9dbf7a50405cb,64d2fd46c836a06233681665,64dc7bc7cd581e52bf779d47,,,,,,,sngl,resources/DY.BMP,resources/Empty.png,Door1,-0.415740741,-0.055555556,1,0,0,0.9154,optionLeft,30,11600,6,2,0,2,0,1,,,,,,,,,,,,,,,,,,,,,,,,,,,,,,,,,,,,,,,
,,,,,,,,2023-08-16_08h33.48.970,HF_wild_card,2022.2.4,Win32,144.9485433,64007622a1b9dbf7a50405cb,64d2fd46c836a06233681665,64dc7bc7cd581e52bf779d47,,,,,,,sngl,resources/DG.BMP,resources/Empty.png,WildCard_Ex,-0.355555556,-0.056481481,1,0,0,1.4747,optionLeft,45,11645,6,3,0,3,0,1,,,,,,,,,,,,,,,,,,,,,,,,,,,,,,,,,,,,,,,
,,,,,,,,2023-08-16_08h33.48.970,HF_wild_card,2022.2.4,Win32,144.9485433,64007622a1b9dbf7a50405cb,64d2fd46c836a06233681665,64dc7bc7cd581e52bf779d47,,,,,,,decisionTrl,resources/DP.BMP,resources/DY.BMP,Door1,0.285185185,-0.042592593,1,0,0,1.252,optionRight,30,11675,6,4,0,4,0,1,,,,,,,,,,,,,,,,,,,,,,,,,,,,,,,,,,,,,,,
,,,,,,,,2023-08-16_08h33.48.970,HF_wild_card,2022.2.4,Win32,144.9485433,64007622a1b9dbf7a50405cb,64d2fd46c836a06233681665,64dc7bc7cd581e52bf779d47,,,,,,,decisionTrl,resources/DP.BMP,resources/DG.BMP,WildCard_Ex,0.266666667,-0.058333333,1,0,0,1.6468,optionRight,55,11730,6,5,0,5,0,1,,,,,,,,,,,,,,,,,,,,,,,,,,,,,,,,,,,,,,,
,,,,,,,,2023-08-16_08h33.48.970,HF_wild_card,2022.2.4,Win32,144.9485433,64007622a1b9dbf7a50405cb,64d2fd46c836a06233681665,64dc7bc7cd581e52bf779d47,,,,,,,decisionTrl,resources/DP.BMP,resources/DY.BMP,Door2,-0.330555556,-0.050925926,1,0,0,0.7421,optionLeft,40,11770,6,6,0,6,0,1,,,,,,,,,,,,,,,,,,,,,,,,,,,,,,,,,,,,,,,
,,,,,,,,2023-08-16_08h33.48.970,HF_wild_card,2022.2.4,Win32,144.9485433,64007622a1b9dbf7a50405cb,64d2fd46c836a06233681665,64dc7bc7cd581e52bf779d47,,,,,,,ctch,resources/DB.BMP,resources/DY.BMP,Door4,-0.309259259,-0.060185185,1,0,0,0.7417,optionLeft,80,11850,6,7,0,7,0,1,,,,,,,,,,,,,,,,,,,,,,,,,,,,,,,,,,,,,,,
,,,,,,,,2023-08-16_08h33.48.970,HF_wild_card,2022.2.4,Win32,144.9485433,64007622a1b9dbf7a50405cb,64d2fd46c836a06233681665,64dc7bc7cd581e52bf779d47,,,,,,,decisionTrl,resources/DG.BMP,resources/DB.BMP,Door4,0.283333333,-0.042592593,1,0,0,0.9711,optionRight,60,11910,6,8,0,8,0,1,,,,,,,,,,,,,,,,,,,,,,,,,,,,,,,,,,,,,,,
,,,,,,,,2023-08-16_08h33.48.970,HF_wild_card,2022.2.4,Win32,144.9485433,64007622a1b9dbf7a50405cb,64d2fd46c836a06233681665,64dc7bc7cd581e52bf779d47,,,,,,,decisionTrl,resources/DY.BMP,resources/DP.BMP,Door1,-0.285185185,-0.084259259,1,0,0,1.0192,optionLeft,30,11940,6,9,0,9,0,1,,,,,,,,,,,,,,,,,,,,,,,,,,,,,,,,,,,,,,,
,,,,,,,,2023-08-16_08h33.48.970,HF_wild_card,2022.2.4,Win32,144.9485433,64007622a1b9dbf7a50405cb,64d2fd46c836a06233681665,64dc7bc7cd581e52bf779d47,,,,,,,sngl,resources/Empty.png,resources/DP.BMP,Door2,0.37962963,-0.056481481,1,0,0,0.686,optionRight,40,11980,6,10,0,10,0,1,,,,,,,,,,,,,,,,,,,,,,,,,,,,,,,,,,,,,,,
,,,,,,,,2023-08-16_08h33.48.970,HF_wild_card,2022.2.4,Win32,144.9485433,64007622a1b9dbf7a50405cb,64d2fd46c836a06233681665,64dc7bc7cd581e52bf779d47,,,,,,,decisionTrl,resources/DG.BMP,resources/DY.BMP,WildCard_Ex,-0.238888889,-0.036111111,1,0,0,1.7276,optionLeft,55,12035,6,11,0,11,0,1,,,,,,,,,,,,,,,,,,,,,,,,,,,,,,,,,,,,,,,
,,,,,,,,2023-08-16_08h33.48.970,HF_wild_card,2022.2.4,Win32,144.9485433,64007622a1b9dbf7a50405cb,64d2fd46c836a06233681665,64dc7bc7cd581e52bf779d47,,,,,,,sngl,resources/DP.BMP,resources/Empty.png,Door2,-0.285185185,-0.058333333,1,0,0,0.8175,optionLeft,20,12055,6,12,0,12,0,1,,,,,,,,,,,,,,,,,,,,,,,,,,,,,,,,,,,,,,,
,,,,,,,,2023-08-16_08h33.48.970,HF_wild_card,2022.2.4,Win32,144.9485433,64007622a1b9dbf7a50405cb,64d2fd46c836a06233681665,64dc7bc7cd581e52bf779d47,,,,,,,decisionTrl,resources/DB.BMP,resources/DR.BMP,Door4,-0.30462963,-0.044444444,1,0,0,0.8876,optionLeft,60,12115,6,13,0,13,0,1,,,,,,,,,,,,,,,,,,,,,,,,,,,,,,,,,,,,,,,
,,,,,,,,2023-08-16_08h33.48.970,HF_wild_card,2022.2.4,Win32,144.9485433,64007622a1b9dbf7a50405cb,64d2fd46c836a06233681665,64dc7bc7cd581e52bf779d47,,,,,,,decisionTrl,resources/DB.BMP,resources/DG.BMP,Door4,-0.351851852,-0.023148148,1,0,0,1.0126,optionLeft,80,12195,6,14,0,14,0,1,,,,,,,,,,,,,,,,,,,,,,,,,,,,,,,,,,,,,,,
,,,,,,,,2023-08-16_08h33.48.970,HF_wild_card,2022.2.4,Win32,144.9485433,64007622a1b9dbf7a50405cb,64d2fd46c836a06233681665,64dc7bc7cd581e52bf779d47,,,,,,,sngl,resources/DR.BMP,resources/Empty.png,Door3,-0.372222222,-0.046296296,1,0,0,0.9221,optionLeft,70,12265,6,15,0,15,0,1,,,,,,,,,,,,,,,,,,,,,,,,,,,,,,,,,,,,,,,
,,,,,,,,2023-08-16_08h33.48.970,HF_wild_card,2022.2.4,Win32,144.9485433,64007622a1b9dbf7a50405cb,64d2fd46c836a06233681665,64dc7bc7cd581e52bf779d47,,,,,,,decisionTrl,resources/DY.BMP,resources/DP.BMP,Door2,0.252777778,-0.083333333,1,0,0,0.6725,optionRight,40,12305,6,16,0,16,0,1,,,,,,,,,,,,,,,,,,,,,,,,,,,,,,,,,,,,,,,
,,,,,,,,2023-08-16_08h33.48.970,HF_wild_card,2022.2.4,Win32,144.9485433,64007622a1b9dbf7a50405cb,64d2fd46c836a06233681665,64dc7bc7cd581e52bf779d47,,,,,,,ctch,resources/DP.BMP,resources/DR.BMP,Door2,-0.32962963,-0.087037037,1,0,0,0.7138,optionLeft,40,12345,6,17,0,17,0,1,,,,,,,,,,,,,,,,,,,,,,,,,,,,,,,,,,,,,,,
,,,,,,,,2023-08-16_08h33.48.970,HF_wild_card,2022.2.4,Win32,144.9485433,64007622a1b9dbf7a50405cb,64d2fd46c836a06233681665,64dc7bc7cd581e52bf779d47,,,,,,,decisionTrl,resources/DB.BMP,resources/DR.BMP,Door4,-0.247222222,-0.063888889,1,0,0,0.7696,optionLeft,60,12405,6,18,0,18,0,1,,,,,,,,,,,,,,,,,,,,,,,,,,,,,,,,,,,,,,,
,,,,,,,,2023-08-16_08h33.48.970,HF_wild_card,2022.2.4,Win32,144.9485433,64007622a1b9dbf7a50405cb,64d2fd46c836a06233681665,64dc7bc7cd581e52bf779d47,,,,,,,ctch,resources/DP.BMP,resources/DR.BMP,Door3,0.384259259,-0.112962963,1,0,0,0.589,optionRight,70,12475,6,19,0,19,0,1,,,,,,,,,,,,,,,,,,,,,,,,,,,,,,,,,,,,,,,
,,,,,,,,2023-08-16_08h33.48.970,HF_wild_card,2022.2.4,Win32,144.9485433,64007622a1b9dbf7a50405cb,64d2fd46c836a06233681665,64dc7bc7cd581e52bf779d47,,,,,,,ctch,resources/DR.BMP,resources/DP.BMP,Door2,0.362962963,-0.084259259,1,0,0,1.443,optionRight,20,12495,6,20,0,20,0,1,,,,,,,,,,,,,,,,,,,,,,,,,,,,,,,,,,,,,,,
,,,,,,,,2023-08-16_08h33.48.970,HF_wild_card,2022.2.4,Win32,144.9485433,64007622a1b9dbf7a50405cb,64d2fd46c836a06233681665,64dc7bc7cd581e52bf779d47,,,,,,,sngl,resources/Empty.png,resources/DY.BMP,Door1,0.401851852,-0.075925926,1,0,0,0.7848,optionRight,30,12525,6,21,0,21,0,1,,,,,,,,,,,,,,,,,,,,,,,,,,,,,,,,,,,,,,,
,,,,,,,,2023-08-16_08h33.48.970,HF_wild_card,2022.2.4,Win32,144.9485433,64007622a1b9dbf7a50405cb,64d2fd46c836a06233681665,64dc7bc7cd581e52bf779d47,,,,,,,decisionTrl,resources/DP.BMP,resources/DY.BMP,Door2,-0.383333333,-0.067592593,1,0,0,1.4781,optionLeft,40,12565,6,22,0,22,0,1,,,,,,,,,,,,,,,,,,,,,,,,,,,,,,,,,,,,,,,
,,,,,,,,2023-08-16_08h33.48.970,HF_wild_card,2022.2.4,Win32,144.9485433,64007622a1b9dbf7a50405cb,64d2fd46c836a06233681665,64dc7bc7cd581e52bf779d47,,,,,,,sngl,resources/DG.BMP,resources/Empty.png,WildCard_Ex,-0.291666667,-0.036111111,1,0,0,0.7556,optionLeft,55,12620,6,23,0,23,0,1,,,,,,,,,,,,,,,,,,,,,,,,,,,,,,,,,,,,,,,
,,,,,,,,2023-08-16_08h33.48.970,HF_wild_card,2022.2.4,Win32,144.9485433,64007622a1b9dbf7a50405cb,64d2fd46c836a06233681665,64dc7bc7cd581e52bf779d47,,,,,,,decisionTrl,resources/DR.BMP,resources/DB.BMP,Door4,0.275,-0.067592593,1,0,0,0.6722,optionRight,60,12680,6,24,0,24,0,1,,,,,,,,,,,,,,,,,,,,,,,,,,,,,,,,,,,,,,,
,,,,,,,,2023-08-16_08h33.48.970,HF_wild_card,2022.2.4,Win32,144.9485433,64007622a1b9dbf7a50405cb,64d2fd46c836a06233681665,64dc7bc7cd581e52bf779d47,,,,,,,sngl,resources/DB.BMP,resources/Empty.png,Door4,-0.309259259,-0.072222222,1,0,0,0.9843,optionLeft,60,12740,6,25,0,25,0,1,,,,,,,,,,,,,,,,,,,,,,,,,,,,,,,,,,,,,,,
,,,,,,,,2023-08-16_08h33.48.970,HF_wild_card,2022.2.4,Win32,144.9485433,64007622a1b9dbf7a50405cb,64d2fd46c836a06233681665,64dc7bc7cd581e52bf779d47,,,,,,,ctch,resources/DB.BMP,resources/DY.BMP,Door4,-0.507407407,-0.102777778,1,0,0,8.609,optionLeft,60,12800,6,26,0,26,0,1,,,,,,,,,,,,,,,,,,,,,,,,,,,,,,,,,,,,,,,
,,,,,,,,2023-08-16_08h33.48.970,HF_wild_card,2022.2.4,Win32,144.9485433,64007622a1b9dbf7a50405cb,64d2fd46c836a06233681665,64dc7bc7cd581e52bf779d47,,,,,,,sngl,resources/Empty.png,resources/DR.BMP,Door3,0.360185185,-0.122222222,1,0,0,0.7279,optionRight,70,12870,6,27,0,27,0,1,,,,,,,,,,,,,,,,,,,,,,,,,,,,,,,,,,,,,,,
,,,,,,,,2023-08-16_08h33.48.970,HF_wild_card,2022.2.4,Win32,144.9485433,64007622a1b9dbf7a50405cb,64d2fd46c836a06233681665,64dc7bc7cd581e52bf779d47,,,,,,,decisionTrl,resources/DR.BMP,resources/DB.BMP,Door3,-0.437962963,-0.071296296,1,0,0,1.8869,optionLeft,70,12940,6,28,0,28,0,1,,,,,,,,,,,,,,,,,,,,,,,,,,,,,,,,,,,,,,,
,,,,,,,,2023-08-16_08h33.48.970,HF_wild_card,2022.2.4,Win32,144.9485433,64007622a1b9dbf7a50405cb,64d2fd46c836a06233681665,64dc7bc7cd581e52bf779d47,,,,,,,decisionTrl,resources/DP.BMP,resources/DY.BMP,Door2,-0.401851852,-0.082407407,1,0,0,2.1718,optionLeft,20,12960,6,29,0,29,0,1,,,,,,,,,,,,,,,,,,,,,,,,,,,,,,,,,,,,,,,
,,,,,,,,2023-08-16_08h33.48.970,HF_wild_card,2022.2.4,Win32,144.9485433,64007622a1b9dbf7a50405cb,64d2fd46c836a06233681665,64dc7bc7cd581e52bf779d47,,,,,,,decisionTrl,resources/DR.BMP,resources/DB.BMP,Door4,0.371296296,-0.114814815,1,0,0,1.4154,optionRight,80,13040,6,30,0,30,0,1,,,,,,,,,,,,,,,,,,,,,,,,,,,,,,,,,,,,,,,
,,,,,,,,2023-08-16_08h33.48.970,HF_wild_card,2022.2.4,Win32,144.9485433,64007622a1b9dbf7a50405cb,64d2fd46c836a06233681665,64dc7bc7cd581e52bf779d47,,,,,,,sngl,resources/Empty.png,resources/DB.BMP,Door4,0.313888889,-0.075,1,0,0,0.6234,optionRight,80,13120,6,31,0,31,0,1,,,,,,,,,,,,,,,,,,,,,,,,,,,,,,,,,,,,,,,
,,,,,,,,2023-08-16_08h33.48.970,HF_wild_card,2022.2.4,Win32,144.9485433,64007622a1b9dbf7a50405cb,64d2fd46c836a06233681665,64dc7bc7cd581e52bf779d47,,,,,,,decisionTrl,resources/DG.BMP,resources/DR.BMP,Door3,0.225925926,-0.060185185,1,0,0,3.0043,optionRight,70,13190,6,32,0,32,0,1,,,,,,,,,,,,,,,,,,,,,,,,,,,,,,,,,,,,,,,
,,,,,,,,2023-08-16_08h33.48.970,HF_wild_card,2022.2.4,Win32,144.9485433,64007622a1b9dbf7a50405cb,64d2fd46c836a06233681665,64dc7bc7cd581e52bf779d47,,,,,,,decisionTrl,resources/DY.BMP,resources/DG.BMP,WildCard_Ex,0.274074074,-0.091666667,1,0,0,1.012,optionRight,55,13245,6,33,0,33,0,1,,,,,,,,,,,,,,,,,,,,,,,,,,,,,,,,,,,,,,,
,,,,,,,,2023-08-16_08h33.48.970,HF_wild_card,2022.2.4,Win32,144.9485433,64007622a1b9dbf7a50405cb,64d2fd46c836a06233681665,64dc7bc7cd581e52bf779d47,,,,,,,decisionTrl,resources/DR.BMP,resources/DB.BMP,Door4,0.321296296,-0.093518519,1,0,0,0.7419,optionRight,80,13325,6,34,0,34,0,1,,,,,,,,,,,,,,,,,,,,,,,,,,,,,,,,,,,,,,,
,,,,,,,,2023-08-16_08h33.48.970,HF_wild_card,2022.2.4,Win32,144.9485433,64007622a1b9dbf7a50405cb,64d2fd46c836a06233681665,64dc7bc7cd581e52bf779d47,,,,,,,decisionTrl,resources/DY.BMP,resources/DP.BMP,Door2,0.425925926,-0.073148148,1,0,0,4.3243,optionRight,20,13345,6,35,0,35,0,1,,,,,,,,,,,,,,,,,,,,,,,,,,,,,,,,,,,,,,,
,,,,,,,,2023-08-16_08h33.48.970,HF_wild_card,2022.2.4,Win32,144.9485433,64007622a1b9dbf7a50405cb,64d2fd46c836a06233681665,64dc7bc7cd581e52bf779d47,,,,,,,ctch,resources/DY.BMP,resources/DB.BMP,Door4,0.287962963,-0.065740741,1,0,0,0.9914,optionRight,60,13405,6,36,0,36,0,1,,,,,,,,,,,,,,,,,,,,,,,,,,,,,,,,,,,,,,,
,,,,,,,,2023-08-16_08h33.48.970,HF_wild_card,2022.2.4,Win32,144.9485433,64007622a1b9dbf7a50405cb,64d2fd46c836a06233681665,64dc7bc7cd581e52bf779d47,,,,,,,sngl,resources/Empty.png,resources/DG.BMP,WildCard_Ex,0.27037037,-0.062037037,1,0,0,0.7905,optionRight,55,13460,6,37,0,37,0,1,,,,,,,,,,,,,,,,,,,,,,,,,,,,,,,,,,,,,,,
,,,,,,,,2023-08-16_08h33.48.970,HF_wild_card,2022.2.4,Win32,144.9485433,64007622a1b9dbf7a50405cb,64d2fd46c836a06233681665,64dc7bc7cd581e52bf779d47,,,,,,,ctch,resources/DR.BMP,resources/DP.BMP,Door3,-0.433333333,-0.07037037,1,0,0,1.5335,optionLeft,70,13530,6,38,0,38,0,1,,,,,,,,,,,,,,,,,,,,,,,,,,,,,,,,,,,,,,,
,,,,,,,,2023-08-16_08h33.48.970,HF_wild_card,2022.2.4,Win32,144.9485433,64007622a1b9dbf7a50405cb,64d2fd46c836a06233681665,64dc7bc7cd581e52bf779d47,,,,,,,decisionTrl,resources/DB.BMP,resources/DR.BMP,Door3,0.287037037,-0.042592593,1,0,0,1.0335,optionRight,70,13600,6,39,0,39,0,1,,,,,,,,,,,,,,,,,,,,,,,,,,,,,,,,,,,,,,,
,,,,,,,,2023-08-16_08h33.48.970,HF_wild_card,2022.2.4,Win32,144.9485433,64007622a1b9dbf7a50405cb,64d2fd46c836a06233681665,64dc7bc7cd581e52bf779d47,,,,,,,decisionTrl,resources/DG.BMP,resources/DP.BMP,WildCard_Ex,-0.302777778,-0.109259259,1,0,0,1.7971,optionLeft,45,13645,6,40,0,40,0,1,,,,,,,,,,,,,,,,,,,,,,,,,,,,,,,,,,,,,,,
,,,,,,,,2023-08-16_08h33.48.970,HF_wild_card,2022.2.4,Win32,144.9485433,64007622a1b9dbf7a50405cb,64d2fd46c836a06233681665,64dc7bc7cd581e52bf779d47,,,,,,,sngl,resources/Empty.png,resources/DG.BMP,WildCard_Ex,0.313888889,-0.064814815,1,0,0,0.6516,optionRight,45,13690,6,41,0,41,0,1,,,,,,,,,,,,,,,,,,,,,,,,,,,,,,,,,,,,,,,
,,,,,,,,2023-08-16_08h33.48.970,HF_wild_card,2022.2.4,Win32,144.9485433,64007622a1b9dbf7a50405cb,64d2fd46c836a06233681665,64dc7bc7cd581e52bf779d47,,,,,,,ctch,resources/DY.BMP,resources/DB.BMP,Door4,0.300925926,-0.082407407,1,0,0,0.7973,optionRight,80,13770,6,42,0,42,0,1,,,,,,,,,,,,,,,,,,,,,,,,,,,,,,,,,,,,,,,
,,,,,,,,2023-08-16_08h33.48.970,HF_wild_card,2022.2.4,Win32,144.9485433,64007622a1b9dbf7a50405cb,64d2fd46c836a06233681665,64dc7bc7cd581e52bf779d47,,,,,,,decisionTrl,resources/DY.BMP,resources/DP.BMP,Door2,0.359259259,-0.140740741,1,0,0,1.3181,optionRight,40,13810,6,43,0,43,0,1,,,,,,,,,,,,,,,,,,,,,,,,,,,,,,,,,,,,,,,
,,,,,,,,2023-08-16_08h33.48.970,HF_wild_card,2022.2.4,Win32,144.9485433,64007622a1b9dbf7a50405cb,64d2fd46c836a06233681665,64dc7bc7cd581e52bf779d47,,,,,,,,,,,,,,,,,,,,,,,,,,5,0,5,0,1,,,,,,,,,,,,,,,,,,,,,,,,,,,,,,,,,,
,,,,,,,,2023-08-16_08h33.48.970,HF_wild_card,2022.2.4,Win32,144.9485433,64007622a1b9dbf7a50405cb,64d2fd46c836a06233681665,64dc7bc7cd581e52bf779d47,,,,,,,ctch,resources/DY.BMP,resources/DB.BMP,Door4,0.322222222,-0.121296296,1,0,0,1.4573,optionRight,80,13890,7,0,0,0,0,1,,,,,,,,,,,,,,,,,,,,,,,,,,,,,,,,,,,,,,,
,,,,,,,,2023-08-16_08h33.48.970,HF_wild_card,2022.2.4,Win32,144.9485433,64007622a1b9dbf7a50405cb,64d2fd46c836a06233681665,64dc7bc7cd581e52bf779d47,,,,,,,decisionTrl,resources/DR.BMP,resources/DB.BMP,Door4,0.30462963,-0.018518519,1,0,0,0.6451,optionRight,60,13950,7,1,0,1,0,1,,,,,,,,,,,,,,,,,,,,,,,,,,,,,,,,,,,,,,,
,,,,,,,,2023-08-16_08h33.48.970,HF_wild_card,2022.2.4,Win32,144.9485433,64007622a1b9dbf7a50405cb,64d2fd46c836a06233681665,64dc7bc7cd581e52bf779d47,,,,,,,decisionTrl,resources/DB.BMP,resources/DR.BMP,Door4,-0.317592593,-0.072222222,1,0,0,0.7839,optionLeft,60,14010,7,2,0,2,0,1,,,,,,,,,,,,,,,,,,,,,,,,,,,,,,,,,,,,,,,
,,,,,,,,2023-08-16_08h33.48.970,HF_wild_card,2022.2.4,Win32,144.9485433,64007622a1b9dbf7a50405cb,64d2fd46c836a06233681665,64dc7bc7cd581e52bf779d47,,,,,,,ctch,resources/DP.BMP,resources/DR.BMP,Door2,-0.37962963,-0.094444444,1,0,0,0.7496,optionLeft,20,14030,7,3,0,3,0,1,,,,,,,,,,,,,,,,,,,,,,,,,,,,,,,,,,,,,,,
,,,,,,,,2023-08-16_08h33.48.970,HF_wild_card,2022.2.4,Win32,144.9485433,64007622a1b9dbf7a50405cb,64d2fd46c836a06233681665,64dc7bc7cd581e52bf779d47,,,,,,,ctch,resources/DB.BMP,resources/DY.BMP,Door4,-0.303703704,-0.09537037,1,0,0,0.8047,optionLeft,80,14110,7,4,0,4,0,1,,,,,,,,,,,,,,,,,,,,,,,,,,,,,,,,,,,,,,,
,,,,,,,,2023-08-16_08h33.48.970,HF_wild_card,2022.2.4,Win32,144.9485433,64007622a1b9dbf7a50405cb,64d2fd46c836a06233681665,64dc7bc7cd581e52bf779d47,,,,,,,ctch,resources/DP.BMP,resources/DR.BMP,Door3,0.294444444,-0.072222222,1,0,0,1.0061,optionRight,70,14180,7,5,0,5,0,1,,,,,,,,,,,,,,,,,,,,,,,,,,,,,,,,,,,,,,,
,,,,,,,,2023-08-16_08h33.48.970,HF_wild_card,2022.2.4,Win32,144.9485433,64007622a1b9dbf7a50405cb,64d2fd46c836a06233681665,64dc7bc7cd581e52bf779d47,,,,,,,decisionTrl,resources/DP.BMP,resources/DY.BMP,Door1,0.440740741,-0.110185185,1,0,0,2.2492,optionRight,30,14210,7,6,0,6,0,1,,,,,,,,,,,,,,,,,,,,,,,,,,,,,,,,,,,,,,,
,,,,,,,,2023-08-16_08h33.48.970,HF_wild_card,2022.2.4,Win32,144.9485433,64007622a1b9dbf7a50405cb,64d2fd46c836a06233681665,64dc7bc7cd581e52bf779d47,,,,,,,ctch,resources/DY.BMP,resources/DB.BMP,Door4,0.415740741,-0.124074074,1,0,0,0.7216,optionRight,80,14290,7,7,0,7,0,1,,,,,,,,,,,,,,,,,,,,,,,,,,,,,,,,,,,,,,,
,,,,,,,,2023-08-16_08h33.48.970,HF_wild_card,2022.2.4,Win32,144.9485433,64007622a1b9dbf7a50405cb,64d2fd46c836a06233681665,64dc7bc7cd581e52bf779d47,,,,,,,decisionTrl,resources/DY.BMP,resources/DP.BMP,Door2,0.357407407,-0.081481481,1,0,0,1.4158,optionRight,40,14330,7,8,0,8,0,1,,,,,,,,,,,,,,,,,,,,,,,,,,,,,,,,,,,,,,,
,,,,,,,,2023-08-16_08h33.48.970,HF_wild_card,2022.2.4,Win32,144.9485433,64007622a1b9dbf7a50405cb,64d2fd46c836a06233681665,64dc7bc7cd581e52bf779d47,,,,,,,decisionTrl,resources/DR.BMP,resources/DB.BMP,Door4,0.381481481,-0.115740741,1,0,0,0.7701,optionRight,80,14410,7,9,0,9,0,1,,,,,,,,,,,,,,,,,,,,,,,,,,,,,,,,,,,,,,,
,,,,,,,,2023-08-16_08h33.48.970,HF_wild_card,2022.2.4,Win32,144.9485433,64007622a1b9dbf7a50405cb,64d2fd46c836a06233681665,64dc7bc7cd581e52bf779d47,,,,,,,decisionTrl,resources/DR.BMP,resources/DB.BMP,Door4,0.410185185,-0.1,1,0,0,0.7634,optionRight,60,14470,7,10,0,10,0,1,,,,,,,,,,,,,,,,,,,,,,,,,,,,,,,,,,,,,,,
,,,,,,,,2023-08-16_08h33.48.970,HF_wild_card,2022.2.4,Win32,144.9485433,64007622a1b9dbf7a50405cb,64d2fd46c836a06233681665,64dc7bc7cd581e52bf779d47,,,,,,,decisionTrl,resources/DY.BMP,resources/DP.BMP,Door2,0.277777778,-0.152777778,1,0,0,1.5548,optionRight,40,14510,7,11,0,11,0,1,,,,,,,,,,,,,,,,,,,,,,,,,,,,,,,,,,,,,,,
,,,,,,,,2023-08-16_08h33.48.970,HF_wild_card,2022.2.4,Win32,144.9485433,64007622a1b9dbf7a50405cb,64d2fd46c836a06233681665,64dc7bc7cd581e52bf779d47,,,,,,,decisionTrl,resources/DP.BMP,resources/DY.BMP,Door2,-0.437037037,-0.072222222,1,0,0,0.7972,optionLeft,20,14530,7,12,0,12,0,1,,,,,,,,,,,,,,,,,,,,,,,,,,,,,,,,,,,,,,,
,,,,,,,,2023-08-16_08h33.48.970,HF_wild_card,2022.2.4,Win32,144.9485433,64007622a1b9dbf7a50405cb,64d2fd46c836a06233681665,64dc7bc7cd581e52bf779d47,,,,,,,decisionTrl,resources/DB.BMP,resources/DR.BMP,Door4,-0.375,-0.083333333,1,0,0,0.7488,optionLeft,60,14590,7,13,0,13,0,1,,,,,,,,,,,,,,,,,,,,,,,,,,,,,,,,,,,,,,,
,,,,,,,,2023-08-16_08h33.48.970,HF_wild_card,2022.2.4,Win32,144.9485433,64007622a1b9dbf7a50405cb,64d2fd46c836a06233681665,64dc7bc7cd581e52bf779d47,,,,,,,ctch,resources/DR.BMP,resources/DP.BMP,Door3,-0.44537037,-0.078703704,1,0,0,2.5132,optionLeft,70,14660,7,14,0,14,0,1,,,,,,,,,,,,,,,,,,,,,,,,,,,,,,,,,,,,,,,
,,,,,,,,2023-08-16_08h33.48.970,HF_wild_card,2022.2.4,Win32,144.9485433,64007622a1b9dbf7a50405cb,64d2fd46c836a06233681665,64dc7bc7cd581e52bf779d47,,,,,,,decisionTrl,resources/DB.BMP,resources/DR.BMP,Door4,-0.351851852,-0.118518519,1,0,0,1.2078,optionLeft,60,14720,7,15,0,15,0,1,,,,,,,,,,,,,,,,,,,,,,,,,,,,,,,,,,,,,,,
,,,,,,,,2023-08-16_08h33.48.970,HF_wild_card,2022.2.4,Win32,144.9485433,64007622a1b9dbf7a50405cb,64d2fd46c836a06233681665,64dc7bc7cd581e52bf779d47,,,,,,,decisionTrl,resources/DB.BMP,resources/DR.BMP,Door4,-0.383333333,-0.07037037,1,0,0,0.5829,optionLeft,60,14780,7,16,0,16,0,1,,,,,,,,,,,,,,,,,,,,,,,,,,,,,,,,,,,,,,,
,,,,,,,,2023-08-16_08h33.48.970,HF_wild_card,2022.2.4,Win32,144.9485433,64007622a1b9dbf7a50405cb,64d2fd46c836a06233681665,64dc7bc7cd581e52bf779d47,,,,,,,decisionTrl,resources/DP.BMP,resources/DY.BMP,Door2,-0.396296296,-0.131481481,1,0,0,0.6794,optionLeft,20,14800,7,17,0,17,0,1,,,,,,,,,,,,,,,,,,,,,,,,,,,,,,,,,,,,,,,
,,,,,,,,2023-08-16_08h33.48.970,HF_wild_card,2022.2.4,Win32,144.9485433,64007622a1b9dbf7a50405cb,64d2fd46c836a06233681665,64dc7bc7cd581e52bf779d47,,,,,,,ctch,resources/DR.BMP,resources/DP.BMP,Door3,-0.359259259,-0.107407407,1,0,0,2.5271,optionLeft,70,14870,7,18,0,18,0,1,,,,,,,,,,,,,,,,,,,,,,,,,,,,,,,,,,,,,,,
,,,,,,,,2023-08-16_08h33.48.970,HF_wild_card,2022.2.4,Win32,144.9485433,64007622a1b9dbf7a50405cb,64d2fd46c836a06233681665,64dc7bc7cd581e52bf779d47,,,,,,,decisionTrl,resources/DB.BMP,resources/DR.BMP,Door4,-0.342592593,-0.072222222,1,0,0,0.8949,optionLeft,60,14930,7,19,0,19,0,1,,,,,,,,,,,,,,,,,,,,,,,,,,,,,,,,,,,,,,,
,,,,,,,,2023-08-16_08h33.48.970,HF_wild_card,2022.2.4,Win32,144.9485433,64007622a1b9dbf7a50405cb,64d2fd46c836a06233681665,64dc7bc7cd581e52bf779d47,,,,,,,decisionTrl,resources/DY.BMP,resources/DP.BMP,Door1,-0.27037037,-0.136111111,1,0,0,1.7771,optionLeft,30,14960,7,20,0,20,0,1,,,,,,,,,,,,,,,,,,,,,,,,,,,,,,,,,,,,,,,
,,,,,,,,2023-08-16_08h33.48.970,HF_wild_card,2022.2.4,Win32,144.9485433,64007622a1b9dbf7a50405cb,64d2fd46c836a06233681665,64dc7bc7cd581e52bf779d47,,,,,,,decisionTrl,resources/DY.BMP,resources/DP.BMP,Door2,0.418518519,-0.069444444,1,0,0,1.1452,optionRight,40,15000,7,21,0,21,0,1,,,,,,,,,,,,,,,,,,,,,,,,,,,,,,,,,,,,,,,
,,,,,,,,2023-08-16_08h33.48.970,HF_wild_card,2022.2.4,Win32,144.9485433,64007622a1b9dbf7a50405cb,64d2fd46c836a06233681665,64dc7bc7cd581e52bf779d47,,,,,,,decisionTrl,resources/DB.BMP,resources/DR.BMP,Door4,-0.325925926,-0.032407407,1,0,0,0.9658,optionLeft,60,15060,7,22,0,22,0,1,,,,,,,,,,,,,,,,,,,,,,,,,,,,,,,,,,,,,,,
,,,,,,,,2023-08-16_08h33.48.970,HF_wild_card,2022.2.4,Win32,144.9485433,64007622a1b9dbf7a50405cb,64d2fd46c836a06233681665,64dc7bc7cd581e52bf779d47,,,,,,,decisionTrl,resources/DP.BMP,resources/DY.BMP,Door2,-0.392592593,-0.100925926,1,0,0,1.3676,optionLeft,40,15100,7,23,0,23,0,1,,,,,,,,,,,,,,,,,,,,,,,,,,,,,,,,,,,,,,,
,,,,,,,,2023-08-16_08h33.48.970,HF_wild_card,2022.2.4,Win32,144.9485433,64007622a1b9dbf7a50405cb,64d2fd46c836a06233681665,64dc7bc7cd581e52bf779d47,,,,,,,ctch,resources/DY.BMP,resources/DB.BMP,Door4,0.310185185,-0.074074074,1,0,0,0.8117,optionRight,60,15160,7,24,0,24,0,1,,,,,,,,,,,,,,,,,,,,,,,,,,,,,,,,,,,,,,,
,,,,,,,,2023-08-16_08h33.48.970,HF_wild_card,2022.2.4,Win32,144.9485433,64007622a1b9dbf7a50405cb,64d2fd46c836a06233681665,64dc7bc7cd581e52bf779d47,,,,,,,ctch,resources/DB.BMP,resources/DY.BMP,Door4,-0.32037037,-0.071296296,1,0,0,1.2841,optionLeft,80,15240,7,25,0,25,0,1,,,,,,,,,,,,,,,,,,,,,,,,,,,,,,,,,,,,,,,
,,,,,,,,2023-08-16_08h33.48.970,HF_wild_card,2022.2.4,Win32,144.9485433,64007622a1b9dbf7a50405cb,64d2fd46c836a06233681665,64dc7bc7cd581e52bf779d47,,,,,,,decisionTrl,resources/DR.BMP,resources/DB.BMP,Door4,0.242592593,-0.108333333,1,0,0,1.069,optionRight,80,15320,7,26,0,26,0,1,,,,,,,,,,,,,,,,,,,,,,,,,,,,,,,,,,,,,,,
,,,,,,,,2023-08-16_08h33.48.970,HF_wild_card,2022.2.4,Win32,144.9485433,64007622a1b9dbf7a50405cb,64d2fd46c836a06233681665,64dc7bc7cd581e52bf779d47,,,,,,,decisionTrl,resources/DP.BMP,resources/DY.BMP,Door2,-0.348148148,-0.055555556,1,0,0,1.4223,optionLeft,20,15340,7,27,0,27,0,1,,,,,,,,,,,,,,,,,,,,,,,,,,,,,,,,,,,,,,,
,,,,,,,,2023-08-16_08h33.48.970,HF_wild_card,2022.2.4,Win32,144.9485433,64007622a1b9dbf7a50405cb,64d2fd46c836a06233681665,64dc7bc7cd581e52bf779d47,,,,,,,decisionTrl,resources/DP.BMP,resources/DY.BMP,Door2,-0.337962963,-0.015740741,1,0,0,1.1244,optionLeft,20,15360,7,28,0,28,0,1,,,,,,,,,,,,,,,,,,,,,,,,,,,,,,,,,,,,,,,
,,,,,,,,2023-08-16_08h33.48.970,HF_wild_card,2022.2.4,Win32,144.9485433,64007622a1b9dbf7a50405cb,64d2fd46c836a06233681665,64dc7bc7cd581e52bf779d47,,,,,,,decisionTrl,resources/DY.BMP,resources/DP.BMP,Door2,0.306481481,-0.038888889,1,0,0,1.6381,optionRight,40,15400,7,29,0,29,0,1,,,,,,,,,,,,,,,,,,,,,,,,,,,,,,,,,,,,,,,
,,,,,,,,2023-08-16_08h33.48.970,HF_wild_card,2022.2.4,Win32,144.9485433,64007622a1b9dbf7a50405cb,64d2fd46c836a06233681665,64dc7bc7cd581e52bf779d47,,,,,,,decisionTrl,resources/DR.BMP,resources/DB.BMP,Door4,0.343518519,-0.062962963,1,0,0,0.8603,optionRight,80,15480,7,30,0,30,0,1,,,,,,,,,,,,,,,,,,,,,,,,,,,,,,,,,,,,,,,
,,,,,,,,2023-08-16_08h33.48.970,HF_wild_card,2022.2.4,Win32,144.9485433,64007622a1b9dbf7a50405cb,64d2fd46c836a06233681665,64dc7bc7cd581e52bf779d47,,,,,,,decisionTrl,resources/DY.BMP,resources/DP.BMP,Door2,0.283333333,-0.098148148,1,0,0,0.6171,optionRight,20,15500,7,31,0,31,0,1,,,,,,,,,,,,,,,,,,,,,,,,,,,,,,,,,,,,,,,
,,,,,,,,2023-08-16_08h33.48.970,HF_wild_card,2022.2.4,Win32,144.9485433,64007622a1b9dbf7a50405cb,64d2fd46c836a06233681665,64dc7bc7cd581e52bf779d47,,,,,,,decisionTrl,resources/DR.BMP,resources/DB.BMP,Door4,0.277777778,-0.061111111,1,0,0,0.7145,optionRight,60,15560,7,32,0,32,0,1,,,,,,,,,,,,,,,,,,,,,,,,,,,,,,,,,,,,,,,
,,,,,,,,2023-08-16_08h33.48.970,HF_wild_card,2022.2.4,Win32,144.9485433,64007622a1b9dbf7a50405cb,64d2fd46c836a06233681665,64dc7bc7cd581e52bf779d47,,,,,,,ctch,resources/DP.BMP,resources/DR.BMP,Door3,0.377777778,-0.058333333,1,0,0,1.242,optionRight,70,15630,7,33,0,33,0,1,,,,,,,,,,,,,,,,,,,,,,,,,,,,,,,,,,,,,,,
,,,,,,,,2023-08-16_08h33.48.970,HF_wild_card,2022.2.4,Win32,144.9485433,64007622a1b9dbf7a50405cb,64d2fd46c836a06233681665,64dc7bc7cd581e52bf779d47,,,,,,,ctch,resources/DB.BMP,resources/DY.BMP,Door4,-0.435185185,-0.021296296,1,0,0,0.7491,optionLeft,60,15690,7,34,0,34,0,1,,,,,,,,,,,,,,,,,,,,,,,,,,,,,,,,,,,,,,,
,,,,,,,,2023-08-16_08h33.48.970,HF_wild_card,2022.2.4,Win32,144.9485433,64007622a1b9dbf7a50405cb,64d2fd46c836a06233681665,64dc7bc7cd581e52bf779d47,,,,,,,ctch,resources/DR.BMP,resources/DP.BMP,Door2,0.262037037,-0.039814815,1,0,0,1.0272,optionRight,40,15730,7,35,0,35,0,1,,,,,,,,,,,,,,,,,,,,,,,,,,,,,,,,,,,,,,,
,,,,,,,,2023-08-16_08h33.48.970,HF_wild_card,2022.2.4,Win32,144.9485433,64007622a1b9dbf7a50405cb,64d2fd46c836a06233681665,64dc7bc7cd581e52bf779d47,,,,,,,,,,,,,,,,,,,,,,,,,,6,0,6,0,1,,,,,,,,,,,,,,,,,,,,,,,,,,,,,,,,,,
,,,,,,,,2023-08-16_08h33.48.970,HF_wild_card,2022.2.4,Win32,144.9485433,64007622a1b9dbf7a50405cb,64d2fd46c836a06233681665,64dc7bc7cd581e52bf779d47,,,,,,,,,,,,,,,,,,,,,,,,,,,,,,,3,,,,,,,,,,,,,,,,,,,,,,,,,,,,,,,,,
,,,,,,,,2023-08-16_08h33.48.970,HF_wild_card,2022.2.4,Win32,144.9485433,64007622a1b9dbf7a50405cb,64d2fd46c836a06233681665,64dc7bc7cd581e52bf779d47,,,,,,,,,,,,,,,,,,,,,,,,,,,,,,,,,,,,,,,,,,,,,,,,,,,,,,,,,,,,,,,,
,,,,,,,,2023-08-16_08h33.48.970,HF_wild_card,2022.2.4,Win32,144.9485433,64007622a1b9dbf7a50405cb,64d2fd46c836a06233681665,64dc7bc7cd581e52bf779d47,,,,,,,,,,,,,,,,,,,,,,,,,,,,,,,,45,WC_nonExtreme,resources/DBN.BMP,0,0,0,0,1,,,,,,,,,,,,,,,,,,,,,,,,,
,,,,,,,,2023-08-16_08h33.48.970,HF_wild_card,2022.2.4,Win32,144.9485433,64007622a1b9dbf7a50405cb,64d2fd46c836a06233681665,64dc7bc7cd581e52bf779d47,,,,,,,,,,,,,,,,,,,,,,,,,,,,,,,,45,WC_extreme,resources/DG.BMP,1,0,1,0,1,,,,,,,,,,,,,,,,,,,,,,,,,
,,,,,,,,2023-08-16_08h33.48.970,HF_wild_card,2022.2.4,Win32,144.9485433,64007622a1b9dbf7a50405cb,64d2fd46c836a06233681665,64dc7bc7cd581e52bf779d47,,,,,,,,,,,,,,,,,,,,,,,,,,,,,,,,70,Door4,resources/DB.BMP,2,0,2,0,1,,,,,,,,,,,,,,,,,,,,,,,,,
,,,,,,,,2023-08-16_08h33.48.970,HF_wild_card,2022.2.4,Win32,144.9485433,64007622a1b9dbf7a50405cb,64d2fd46c836a06233681665,64dc7bc7cd581e52bf779d47,,,,,,,,,,,,,,,,,,,,,,,,,,,,,,,,55,Door3,resources/DR.BMP,3,0,3,0,1,,,,,,,,,,,,,,,,,,,,,,,,,
,,,,,,,,2023-08-16_08h33.48.970,HF_wild_card,2022.2.4,Win32,144.9485433,64007622a1b9dbf7a50405cb,64d2fd46c836a06233681665,64dc7bc7cd581e52bf779d47,,,,,,,,,,,,,,,,,,,,,,,,,,,,,,,,30,Door1,resources/DY.BMP,4,0,4,0,1,,,,,,,,,,,,,,,,,,,,,,,,,
,,,,,,,,2023-08-16_08h33.48.970,HF_wild_card,2022.2.4,Win32,144.9485433,64007622a1b9dbf7a50405cb,64d2fd46c836a06233681665,64dc7bc7cd581e52bf779d47,,,,,,,,,,,,,,,,,,,,,,,,,,,,,,,,80,Door2,resources/DP.BMP,5,0,5,0,1,,,,,,,,,,,,,,,,,,,,,,,,,
,,,,,,,,2023-08-16_08h33.48.970,HF_wild_card,2022.2.4,Win32,144.9485433,64007622a1b9dbf7a50405cb,64d2fd46c836a06233681665,64dc7bc7cd581e52bf779d47,,,,,,,,,,,,,,,,,,,,,,,,,,,,,,,,,,,,,,,,,,,,,,,,,,,,,,,,,,,,,,,,
