Condition,Low fixed image (Door1),Low risky image (Door2),High fixed image (Door3),High risky image (Door4),Extreme Wild Card,NonExtreme Wild Card,,date,expName,psychopyVersion,OS,frameRate,PROLIFIC_PID,STUDY_ID,SESSION_ID,mouse_2.x,mouse_2.y,mouse_2.leftButton,mouse_2.midButton,mouse_2.rightButton,mouse_2.clicked_name,Trial Type,Left Option Image,Right Option Image,Chosen Door,mouse.x,mouse.y,mouse.leftButton,mouse.midButton,mouse.rightButton,mouse.time,mouse.clicked_name,Feedback,Cumulative Reward,Block,trial.thisRepN,trial.thisTrialN,trial.thisN,trial.thisIndex,trial.ran,blocks.thisRepN,blocks.thisTrialN,blocks.thisN,blocks.thisIndex,blocks.ran,Money conversion,First Outcome Reported,Shown Door (First Outcome),Displayed Image (First Outcome),outcomes.thisRepN,outcomes.thisTrialN,outcomes.thisN,outcomes.thisIndex,outcomes.ran,judgments.thisRepN,judgments.thisTrialN,judgments.thisN,judgments.thisIndex,judgments.ran,freqMouse.x,freqMouse.y,freqMouse.leftButton,freqMouse.midButton,freqMouse.rightButton,freqMouse.clicked_name,FQJ for first outcome,FQJ for second outcome,Shown Door,Displayed Image,trials.thisRepN,trials.thisTrialN,trials.thisN,trials.thisIndex,trials.ran,judgBlock.thisRepN,judgBlock.thisTrialN,judgBlock.thisN,judgBlock.thisIndex,judgBlock.ran
0,resources/DY.BMP,resources/DBN.BMP,resources/DP.BMP,resources/DB.BMP,resources/DR.BMP,resources/DG.BMP,,2023-08-16_08h47.54.554,HF_wild_card,2022.2.4,Win32,11.99529784,64135e5651180cd4c2843e4f,64d2fd46c836a06233681665,64dc7effd5690df31c4e5738,,,,,,,,,,,,,,,,,,,,,,,,,,,,,,,,,,,,,,,,,,,,,,,,,,,,,,,,,,,,,,,,
,,,,,,,,2023-08-16_08h47.54.554,HF_wild_card,2022.2.4,Win32,11.99529784,64135e5651180cd4c2843e4f,64d2fd46c836a06233681665,64dc7effd5690df31c4e5738,0.013333333,-0.417142857,1,0,0,agree,,,,,,,,,,,,,,,,,,,,,,,,,,,,,,,,,,,,,,,,,,,,,,,,,,,,,,,,,,
,,,,,,,,2023-08-16_08h47.54.554,HF_wild_card,2022.2.4,Win32,11.99529784,64135e5651180cd4c2843e4f,64d2fd46c836a06233681665,64dc7effd5690df31c4e5738,,,,,,,,,,,,,,,,,,,,,,,,,,,,,,,,,,,,,,,,,,,,,,,,,,,,,,,,,,,,,,,,
,,,,,,,,2023-08-16_08h47.54.554,HF_wild_card,2022.2.4,Win32,11.99529784,64135e5651180cd4c2843e4f,64d2fd46c836a06233681665,64dc7effd5690df31c4e5738,,,,,,,ctch,resources/DY.BMP,resources/DB.BMP,Door1,-0.340952381,0.040952381,1,0,0,3.433,optionLeft,30,30,1,0,0,0,0,1,,,,,,,,,,,,,,,,,,,,,,,,,,,,,,,,,,,,,,,
,,,,,,,,2023-08-16_08h47.54.554,HF_wild_card,2022.2.4,Win32,11.99529784,64135e5651180cd4c2843e4f,64d2fd46c836a06233681665,64dc7effd5690df31c4e5738,,,,,,,ctch,resources/DBN.BMP,resources/DP.BMP,Door2,-0.36,0.057142857,1,0,0,1.8161,optionLeft,20,50,1,1,0,1,0,1,,,,,,,,,,,,,,,,,,,,,,,,,,,,,,,,,,,,,,,
,,,,,,,,2023-08-16_08h47.54.554,HF_wild_card,2022.2.4,Win32,11.99529784,64135e5651180cd4c2843e4f,64d2fd46c836a06233681665,64dc7effd5690df31c4e5738,,,,,,,decisionTrl,resources/DB.BMP,resources/DP.BMP,Door4,-0.312380952,0.035238095,1,0,0,3.026,optionLeft,60,110,1,2,0,2,0,1,,,,,,,,,,,,,,,,,,,,,,,,,,,,,,,,,,,,,,,
,,,,,,,,2023-08-16_08h47.54.554,HF_wild_card,2022.2.4,Win32,11.99529784,64135e5651180cd4c2843e4f,64d2fd46c836a06233681665,64dc7effd5690df31c4e5738,,,,,,,decisionTrl,resources/DR.BMP,resources/DB.BMP,WildCard_Ex,-0.454285714,-0.047619048,1,0,0,5.5549,optionLeft,95,205,1,3,0,3,0,1,,,,,,,,,,,,,,,,,,,,,,,,,,,,,,,,,,,,,,,
,,,,,,,,2023-08-16_08h47.54.554,HF_wild_card,2022.2.4,Win32,11.99529784,64135e5651180cd4c2843e4f,64d2fd46c836a06233681665,64dc7effd5690df31c4e5738,,,,,,,decisionTrl,resources/DBN.BMP,resources/DY.BMP,Door2,-0.33047619,0.06,1,0,0,0.8547,optionLeft,20,225,1,4,0,4,0,1,,,,,,,,,,,,,,,,,,,,,,,,,,,,,,,,,,,,,,,
,,,,,,,,2023-08-16_08h47.54.554,HF_wild_card,2022.2.4,Win32,11.99529784,64135e5651180cd4c2843e4f,64d2fd46c836a06233681665,64dc7effd5690df31c4e5738,,,,,,,sngl,resources/DBN.BMP,resources/Empty.png,Door2,-0.41047619,0.076190476,1,0,0,3.8294,optionLeft,40,265,1,5,0,5,0,1,,,,,,,,,,,,,,,,,,,,,,,,,,,,,,,,,,,,,,,
,,,,,,,,2023-08-16_08h47.54.554,HF_wild_card,2022.2.4,Win32,11.99529784,64135e5651180cd4c2843e4f,64d2fd46c836a06233681665,64dc7effd5690df31c4e5738,,,,,,,decisionTrl,resources/DY.BMP,resources/DR.BMP,WildCard_Ex,0.438095238,0.00952381,1,0,0,3.3101,optionRight,95,360,1,6,0,6,0,1,,,,,,,,,,,,,,,,,,,,,,,,,,,,,,,,,,,,,,,
,,,,,,,,2023-08-16_08h47.54.554,HF_wild_card,2022.2.4,Win32,11.99529784,64135e5651180cd4c2843e4f,64d2fd46c836a06233681665,64dc7effd5690df31c4e5738,,,,,,,sngl,resources/DR.BMP,resources/Empty.png,WildCard_Ex,-0.38952381,0.16952381,1,0,0,2.5454,optionLeft,95,455,1,7,0,7,0,1,,,,,,,,,,,,,,,,,,,,,,,,,,,,,,,,,,,,,,,
,,,,,,,,2023-08-16_08h47.54.554,HF_wild_card,2022.2.4,Win32,11.99529784,64135e5651180cd4c2843e4f,64d2fd46c836a06233681665,64dc7effd5690df31c4e5738,,,,,,,sngl,resources/DP.BMP,resources/Empty.png,Door3,-0.304761905,-0.076190476,1,0,0,0.8143,optionLeft,70,525,1,8,0,8,0,1,,,,,,,,,,,,,,,,,,,,,,,,,,,,,,,,,,,,,,,
,,,,,,,,2023-08-16_08h47.54.554,HF_wild_card,2022.2.4,Win32,11.99529784,64135e5651180cd4c2843e4f,64d2fd46c836a06233681665,64dc7effd5690df31c4e5738,,,,,,,decisionTrl,resources/DP.BMP,resources/DB.BMP,Door4,0.443809524,0.001904762,1,0,0,6.8279,optionRight,80,605,1,9,0,9,0,1,,,,,,,,,,,,,,,,,,,,,,,,,,,,,,,,,,,,,,,
,,,,,,,,2023-08-16_08h47.54.554,HF_wild_card,2022.2.4,Win32,11.99529784,64135e5651180cd4c2843e4f,64d2fd46c836a06233681665,64dc7effd5690df31c4e5738,,,,,,,decisionTrl,resources/DB.BMP,resources/DP.BMP,Door4,-0.376190476,0.016190476,1,0,0,0.8614,optionLeft,80,685,1,10,0,10,0,1,,,,,,,,,,,,,,,,,,,,,,,,,,,,,,,,,,,,,,,
,,,,,,,,2023-08-16_08h47.54.554,HF_wild_card,2022.2.4,Win32,11.99529784,64135e5651180cd4c2843e4f,64d2fd46c836a06233681665,64dc7effd5690df31c4e5738,,,,,,,ctch,resources/DP.BMP,resources/DBN.BMP,Door2,0.414285714,0.171428571,1,0,0,3.0383,optionRight,40,725,1,11,0,11,0,1,,,,,,,,,,,,,,,,,,,,,,,,,,,,,,,,,,,,,,,
,,,,,,,,2023-08-16_08h47.54.554,HF_wild_card,2022.2.4,Win32,11.99529784,64135e5651180cd4c2843e4f,64d2fd46c836a06233681665,64dc7effd5690df31c4e5738,,,,,,,sngl,resources/Empty.png,resources/DBN.BMP,Door2,0.332380952,0.064761905,1,0,0,0.7066,optionRight,20,745,1,12,0,12,0,1,,,,,,,,,,,,,,,,,,,,,,,,,,,,,,,,,,,,,,,
,,,,,,,,2023-08-16_08h47.54.554,HF_wild_card,2022.2.4,Win32,11.99529784,64135e5651180cd4c2843e4f,64d2fd46c836a06233681665,64dc7effd5690df31c4e5738,,,,,,,decisionTrl,resources/DY.BMP,resources/DBN.BMP,Door2,0.32952381,0.022857143,1,0,0,0.9961,optionRight,40,785,1,13,0,13,0,1,,,,,,,,,,,,,,,,,,,,,,,,,,,,,,,,,,,,,,,
,,,,,,,,2023-08-16_08h47.54.554,HF_wild_card,2022.2.4,Win32,11.99529784,64135e5651180cd4c2843e4f,64d2fd46c836a06233681665,64dc7effd5690df31c4e5738,,,,,,,ctch,resources/DBN.BMP,resources/DP.BMP,Door2,-0.33047619,0.047619048,1,0,0,0.7849,optionLeft,40,825,1,14,0,14,0,1,,,,,,,,,,,,,,,,,,,,,,,,,,,,,,,,,,,,,,,
,,,,,,,,2023-08-16_08h47.54.554,HF_wild_card,2022.2.4,Win32,11.99529784,64135e5651180cd4c2843e4f,64d2fd46c836a06233681665,64dc7effd5690df31c4e5738,,,,,,,sngl,resources/Empty.png,resources/DY.BMP,Door1,-0.243809524,0.01047619,1,0,0,1.5208,optionRight,30,855,1,15,0,15,0,1,,,,,,,,,,,,,,,,,,,,,,,,,,,,,,,,,,,,,,,
,,,,,,,,2023-08-16_08h47.54.554,HF_wild_card,2022.2.4,Win32,11.99529784,64135e5651180cd4c2843e4f,64d2fd46c836a06233681665,64dc7effd5690df31c4e5738,,,,,,,decisionTrl,resources/DBN.BMP,resources/DY.BMP,Door2,-0.317142857,0.033333333,1,0,0,0.7228,optionLeft,20,875,1,16,0,16,0,1,,,,,,,,,,,,,,,,,,,,,,,,,,,,,,,,,,,,,,,
,,,,,,,,2023-08-16_08h47.54.554,HF_wild_card,2022.2.4,Win32,11.99529784,64135e5651180cd4c2843e4f,64d2fd46c836a06233681665,64dc7effd5690df31c4e5738,,,,,,,decisionTrl,resources/DBN.BMP,resources/DY.BMP,Door2,-0.36952381,0.025714286,1,0,0,1.5816,optionLeft,40,915,1,17,0,17,0,1,,,,,,,,,,,,,,,,,,,,,,,,,,,,,,,,,,,,,,,
,,,,,,,,2023-08-16_08h47.54.554,HF_wild_card,2022.2.4,Win32,11.99529784,64135e5651180cd4c2843e4f,64d2fd46c836a06233681665,64dc7effd5690df31c4e5738,,,,,,,decisionTrl,resources/DR.BMP,resources/DP.BMP,Door3,0.416190476,0.003809524,1,0,0,1.9017,optionRight,70,985,1,18,0,18,0,1,,,,,,,,,,,,,,,,,,,,,,,,,,,,,,,,,,,,,,,
,,,,,,,,2023-08-16_08h47.54.554,HF_wild_card,2022.2.4,Win32,11.99529784,64135e5651180cd4c2843e4f,64d2fd46c836a06233681665,64dc7effd5690df31c4e5738,,,,,,,sngl,resources/DB.BMP,resources/Empty.png,Door4,-0.324761905,0.045714286,1,0,0,0.7006,optionLeft,80,1065,1,19,0,19,0,1,,,,,,,,,,,,,,,,,,,,,,,,,,,,,,,,,,,,,,,
,,,,,,,,2023-08-16_08h47.54.554,HF_wild_card,2022.2.4,Win32,11.99529784,64135e5651180cd4c2843e4f,64d2fd46c836a06233681665,64dc7effd5690df31c4e5738,,,,,,,decisionTrl,resources/DY.BMP,resources/DBN.BMP,Door1,-0.114285714,0.007619048,1,0,0,10.3408,optionLeft,30,1095,1,20,0,20,0,1,,,,,,,,,,,,,,,,,,,,,,,,,,,,,,,,,,,,,,,
,,,,,,,,2023-08-16_08h47.54.554,HF_wild_card,2022.2.4,Win32,11.99529784,64135e5651180cd4c2843e4f,64d2fd46c836a06233681665,64dc7effd5690df31c4e5738,,,,,,,decisionTrl,resources/DR.BMP,resources/DY.BMP,Door1,0.377142857,0,1,0,0,2.5944,optionRight,30,1125,1,21,0,21,0,1,,,,,,,,,,,,,,,,,,,,,,,,,,,,,,,,,,,,,,,
,,,,,,,,2023-08-16_08h47.54.554,HF_wild_card,2022.2.4,Win32,11.99529784,64135e5651180cd4c2843e4f,64d2fd46c836a06233681665,64dc7effd5690df31c4e5738,,,,,,,decisionTrl,resources/DY.BMP,resources/DBN.BMP,Door1,-0.303809524,-0.01047619,1,0,0,0.6095,optionLeft,30,1155,1,22,0,22,0,1,,,,,,,,,,,,,,,,,,,,,,,,,,,,,,,,,,,,,,,
,,,,,,,,2023-08-16_08h47.54.554,HF_wild_card,2022.2.4,Win32,11.99529784,64135e5651180cd4c2843e4f,64d2fd46c836a06233681665,64dc7effd5690df31c4e5738,,,,,,,sngl,resources/DY.BMP,resources/Empty.png,Door1,0.646666667,0.098095238,1,0,0,2.7425,optionLeft,30,1185,1,23,0,23,0,1,,,,,,,,,,,,,,,,,,,,,,,,,,,,,,,,,,,,,,,
,,,,,,,,2023-08-16_08h47.54.554,HF_wild_card,2022.2.4,Win32,11.99529784,64135e5651180cd4c2843e4f,64d2fd46c836a06233681665,64dc7effd5690df31c4e5738,,,,,,,sngl,resources/Empty.png,resources/DB.BMP,Door4,-0.42,-0.101904762,1,0,0,5.2758,optionRight,60,1245,1,24,0,24,0,1,,,,,,,,,,,,,,,,,,,,,,,,,,,,,,,,,,,,,,,
,,,,,,,,2023-08-16_08h47.54.554,HF_wild_card,2022.2.4,Win32,11.99529784,64135e5651180cd4c2843e4f,64d2fd46c836a06233681665,64dc7effd5690df31c4e5738,,,,,,,decisionTrl,resources/DP.BMP,resources/DB.BMP,Door3,-0.38,0.007619048,1,0,0,1.8518,optionLeft,70,1315,1,25,0,25,0,1,,,,,,,,,,,,,,,,,,,,,,,,,,,,,,,,,,,,,,,
,,,,,,,,2023-08-16_08h47.54.554,HF_wild_card,2022.2.4,Win32,11.99529784,64135e5651180cd4c2843e4f,64d2fd46c836a06233681665,64dc7effd5690df31c4e5738,,,,,,,sngl,resources/Empty.png,resources/DR.BMP,WildCard_Ex,0.391428571,-0.046666667,1,0,0,1.4639,optionRight,5,1320,1,26,0,26,0,1,,,,,,,,,,,,,,,,,,,,,,,,,,,,,,,,,,,,,,,
,,,,,,,,2023-08-16_08h47.54.554,HF_wild_card,2022.2.4,Win32,11.99529784,64135e5651180cd4c2843e4f,64d2fd46c836a06233681665,64dc7effd5690df31c4e5738,,,,,,,sngl,resources/Empty.png,resources/DP.BMP,Door3,0.382857143,-0.06,1,0,0,0.8767,optionRight,70,1390,1,27,0,27,0,1,,,,,,,,,,,,,,,,,,,,,,,,,,,,,,,,,,,,,,,
,,,,,,,,2023-08-16_08h47.54.554,HF_wild_card,2022.2.4,Win32,11.99529784,64135e5651180cd4c2843e4f,64d2fd46c836a06233681665,64dc7effd5690df31c4e5738,,,,,,,decisionTrl,resources/DB.BMP,resources/DP.BMP,Door3,0.373333333,-0.003809524,1,0,0,0.9795,optionRight,70,1460,1,28,0,28,0,1,,,,,,,,,,,,,,,,,,,,,,,,,,,,,,,,,,,,,,,
,,,,,,,,2023-08-16_08h47.54.554,HF_wild_card,2022.2.4,Win32,11.99529784,64135e5651180cd4c2843e4f,64d2fd46c836a06233681665,64dc7effd5690df31c4e5738,,,,,,,ctch,resources/DP.BMP,resources/DBN.BMP,Door3,-0.406666667,-0.046666667,1,0,0,0.9769,optionLeft,70,1530,1,29,0,29,0,1,,,,,,,,,,,,,,,,,,,,,,,,,,,,,,,,,,,,,,,
,,,,,,,,2023-08-16_08h47.54.554,HF_wild_card,2022.2.4,Win32,11.99529784,64135e5651180cd4c2843e4f,64d2fd46c836a06233681665,64dc7effd5690df31c4e5738,,,,,,,ctch,resources/DB.BMP,resources/DY.BMP,Door4,-0.351428571,-0.038095238,1,0,0,1.1189,optionLeft,80,1610,1,30,0,30,0,1,,,,,,,,,,,,,,,,,,,,,,,,,,,,,,,,,,,,,,,
,,,,,,,,2023-08-16_08h47.54.554,HF_wild_card,2022.2.4,Win32,11.99529784,64135e5651180cd4c2843e4f,64d2fd46c836a06233681665,64dc7effd5690df31c4e5738,,,,,,,decisionTrl,resources/DY.BMP,resources/DBN.BMP,Door2,0.353333333,-0.019047619,1,0,0,1.745,optionRight,40,1650,1,31,0,31,0,1,,,,,,,,,,,,,,,,,,,,,,,,,,,,,,,,,,,,,,,
,,,,,,,,2023-08-16_08h47.54.554,HF_wild_card,2022.2.4,Win32,11.99529784,64135e5651180cd4c2843e4f,64d2fd46c836a06233681665,64dc7effd5690df31c4e5738,,,,,,,decisionTrl,resources/DB.BMP,resources/DR.BMP,WildCard_Ex,0.234285714,-0.00952381,1,0,0,1.9446,optionRight,95,1745,1,32,0,32,0,1,,,,,,,,,,,,,,,,,,,,,,,,,,,,,,,,,,,,,,,
,,,,,,,,2023-08-16_08h47.54.554,HF_wild_card,2022.2.4,Win32,11.99529784,64135e5651180cd4c2843e4f,64d2fd46c836a06233681665,64dc7effd5690df31c4e5738,,,,,,,ctch,resources/DY.BMP,resources/DB.BMP,Door4,0.39047619,-0.045714286,1,0,0,3.5177,optionRight,80,1825,1,33,0,33,0,1,,,,,,,,,,,,,,,,,,,,,,,,,,,,,,,,,,,,,,,
,,,,,,,,2023-08-16_08h47.54.554,HF_wild_card,2022.2.4,Win32,11.99529784,64135e5651180cd4c2843e4f,64d2fd46c836a06233681665,64dc7effd5690df31c4e5738,,,,,,,decisionTrl,resources/DB.BMP,resources/DP.BMP,Door3,0.392380952,-0.048571429,1,0,0,0.6505,optionRight,70,1895,1,34,0,34,0,1,,,,,,,,,,,,,,,,,,,,,,,,,,,,,,,,,,,,,,,
,,,,,,,,2023-08-16_08h47.54.554,HF_wild_card,2022.2.4,Win32,11.99529784,64135e5651180cd4c2843e4f,64d2fd46c836a06233681665,64dc7effd5690df31c4e5738,,,,,,,decisionTrl,resources/DP.BMP,resources/DR.BMP,Door3,-0.408571429,-0.084761905,1,0,0,2.6698,optionLeft,70,1965,1,35,0,35,0,1,,,,,,,,,,,,,,,,,,,,,,,,,,,,,,,,,,,,,,,
,,,,,,,,2023-08-16_08h47.54.554,HF_wild_card,2022.2.4,Win32,11.99529784,64135e5651180cd4c2843e4f,64d2fd46c836a06233681665,64dc7effd5690df31c4e5738,,,,,,,sngl,resources/Empty.png,resources/DR.BMP,WildCard_Ex,0.392380952,-0.04952381,1,0,0,1.0836,optionRight,95,2060,1,36,0,36,0,1,,,,,,,,,,,,,,,,,,,,,,,,,,,,,,,,,,,,,,,
,,,,,,,,2023-08-16_08h47.54.554,HF_wild_card,2022.2.4,Win32,11.99529784,64135e5651180cd4c2843e4f,64d2fd46c836a06233681665,64dc7effd5690df31c4e5738,,,,,,,decisionTrl,resources/DP.BMP,resources/DB.BMP,Door4,0.387619048,-0.046666667,1,0,0,2.4194,optionRight,80,2140,1,37,0,37,0,1,,,,,,,,,,,,,,,,,,,,,,,,,,,,,,,,,,,,,,,
,,,,,,,,2023-08-16_08h47.54.554,HF_wild_card,2022.2.4,Win32,11.99529784,64135e5651180cd4c2843e4f,64d2fd46c836a06233681665,64dc7effd5690df31c4e5738,,,,,,,decisionTrl,resources/DBN.BMP,resources/DY.BMP,Door1,0.407619048,0.027619048,1,0,0,1.4649,optionRight,30,2170,1,38,0,38,0,1,,,,,,,,,,,,,,,,,,,,,,,,,,,,,,,,,,,,,,,
,,,,,,,,2023-08-16_08h47.54.554,HF_wild_card,2022.2.4,Win32,11.99529784,64135e5651180cd4c2843e4f,64d2fd46c836a06233681665,64dc7effd5690df31c4e5738,,,,,,,sngl,resources/DR.BMP,resources/Empty.png,WildCard_Ex,-0.40952381,-0.045714286,1,0,0,1.2054,optionLeft,5,2175,1,39,0,39,0,1,,,,,,,,,,,,,,,,,,,,,,,,,,,,,,,,,,,,,,,
,,,,,,,,2023-08-16_08h47.54.554,HF_wild_card,2022.2.4,Win32,11.99529784,64135e5651180cd4c2843e4f,64d2fd46c836a06233681665,64dc7effd5690df31c4e5738,,,,,,,decisionTrl,resources/DP.BMP,resources/DB.BMP,Door4,0.380952381,-0.042857143,1,0,0,3.1473,optionRight,60,2235,1,40,0,40,0,1,,,,,,,,,,,,,,,,,,,,,,,,,,,,,,,,,,,,,,,
,,,,,,,,2023-08-16_08h47.54.554,HF_wild_card,2022.2.4,Win32,11.99529784,64135e5651180cd4c2843e4f,64d2fd46c836a06233681665,64dc7effd5690df31c4e5738,,,,,,,decisionTrl,resources/DBN.BMP,resources/DR.BMP,Door2,-0.408571429,0.015238095,1,0,0,2.1729,optionLeft,40,2275,1,41,0,41,0,1,,,,,,,,,,,,,,,,,,,,,,,,,,,,,,,,,,,,,,,
,,,,,,,,2023-08-16_08h47.54.554,HF_wild_card,2022.2.4,Win32,11.99529784,64135e5651180cd4c2843e4f,64d2fd46c836a06233681665,64dc7effd5690df31c4e5738,,,,,,,decisionTrl,resources/DR.BMP,resources/DBN.BMP,WildCard_Ex,-0.426666667,-0.047619048,1,0,0,2.3045,optionLeft,5,2280,1,42,0,42,0,1,,,,,,,,,,,,,,,,,,,,,,,,,,,,,,,,,,,,,,,
,,,,,,,,2023-08-16_08h47.54.554,HF_wild_card,2022.2.4,Win32,11.99529784,64135e5651180cd4c2843e4f,64d2fd46c836a06233681665,64dc7effd5690df31c4e5738,,,,,,,ctch,resources/DB.BMP,resources/DY.BMP,Door4,-0.43047619,-0.04,1,0,0,1.5987,optionLeft,80,2360,1,43,0,43,0,1,,,,,,,,,,,,,,,,,,,,,,,,,,,,,,,,,,,,,,,
,,,,,,,,2023-08-16_08h47.54.554,HF_wild_card,2022.2.4,Win32,11.99529784,64135e5651180cd4c2843e4f,64d2fd46c836a06233681665,64dc7effd5690df31c4e5738,,,,,,,,,,,,,,,,,,,,,,,,,,0,0,0,0,1,,,,,,,,,,,,,,,,,,,,,,,,,,,,,,,,,,
,,,,,,,,2023-08-16_08h47.54.554,HF_wild_card,2022.2.4,Win32,11.99529784,64135e5651180cd4c2843e4f,64d2fd46c836a06233681665,64dc7effd5690df31c4e5738,,,,,,,ctch,resources/DY.BMP,resources/DB.BMP,Door4,0.381904762,-0.044761905,1,0,0,2.3043,optionRight,60,2420,2,0,0,0,0,1,,,,,,,,,,,,,,,,,,,,,,,,,,,,,,,,,,,,,,,
,,,,,,,,2023-08-16_08h47.54.554,HF_wild_card,2022.2.4,Win32,11.99529784,64135e5651180cd4c2843e4f,64d2fd46c836a06233681665,64dc7effd5690df31c4e5738,,,,,,,sngl,resources/Empty.png,resources/DBN.BMP,Door2,0.392380952,0.007619048,1,0,0,17.3057,optionRight,40,2460,2,1,0,1,0,1,,,,,,,,,,,,,,,,,,,,,,,,,,,,,,,,,,,,,,,
,,,,,,,,2023-08-16_08h47.54.554,HF_wild_card,2022.2.4,Win32,11.99529784,64135e5651180cd4c2843e4f,64d2fd46c836a06233681665,64dc7effd5690df31c4e5738,,,,,,,decisionTrl,resources/DR.BMP,resources/DP.BMP,WildCard_Ex,-0.423809524,-0.036190476,1,0,0,0.8743,optionLeft,95,2555,2,2,0,2,0,1,,,,,,,,,,,,,,,,,,,,,,,,,,,,,,,,,,,,,,,
,,,,,,,,2023-08-16_08h47.54.554,HF_wild_card,2022.2.4,Win32,11.99529784,64135e5651180cd4c2843e4f,64d2fd46c836a06233681665,64dc7effd5690df31c4e5738,,,,,,,ctch,resources/DB.BMP,resources/DY.BMP,Door4,-0.41047619,-0.04,1,0,0,5.3515,optionLeft,60,2615,2,3,0,3,0,1,,,,,,,,,,,,,,,,,,,,,,,,,,,,,,,,,,,,,,,
,,,,,,,,2023-08-16_08h47.54.554,HF_wild_card,2022.2.4,Win32,11.99529784,64135e5651180cd4c2843e4f,64d2fd46c836a06233681665,64dc7effd5690df31c4e5738,,,,,,,decisionTrl,resources/DY.BMP,resources/DBN.BMP,Door2,0.436190476,-0.008571429,1,0,0,1.1203,optionRight,40,2655,2,4,0,4,0,1,,,,,,,,,,,,,,,,,,,,,,,,,,,,,,,,,,,,,,,
,,,,,,,,2023-08-16_08h47.54.554,HF_wild_card,2022.2.4,Win32,11.99529784,64135e5651180cd4c2843e4f,64d2fd46c836a06233681665,64dc7effd5690df31c4e5738,,,,,,,ctch,resources/DP.BMP,resources/DBN.BMP,Door2,0.39047619,-0.012380952,1,0,0,6.1203,optionRight,20,2675,2,5,0,5,0,1,,,,,,,,,,,,,,,,,,,,,,,,,,,,,,,,,,,,,,,
,,,,,,,,2023-08-16_08h47.54.554,HF_wild_card,2022.2.4,Win32,11.99529784,64135e5651180cd4c2843e4f,64d2fd46c836a06233681665,64dc7effd5690df31c4e5738,,,,,,,sngl,resources/Empty.png,resources/DR.BMP,WildCard_Ex,0.246666667,0.004761905,1,0,0,4.6661,optionRight,5,2680,2,6,0,6,0,1,,,,,,,,,,,,,,,,,,,,,,,,,,,,,,,,,,,,,,,
,,,,,,,,2023-08-16_08h47.54.554,HF_wild_card,2022.2.4,Win32,11.99529784,64135e5651180cd4c2843e4f,64d2fd46c836a06233681665,64dc7effd5690df31c4e5738,,,,,,,ctch,resources/DP.BMP,resources/DBN.BMP,Door2,0.584761905,0.019047619,1,0,0,4.5127,optionRight,20,2700,2,7,0,7,0,1,,,,,,,,,,,,,,,,,,,,,,,,,,,,,,,,,,,,,,,
,,,,,,,,2023-08-16_08h47.54.554,HF_wild_card,2022.2.4,Win32,11.99529784,64135e5651180cd4c2843e4f,64d2fd46c836a06233681665,64dc7effd5690df31c4e5738,,,,,,,decisionTrl,resources/DP.BMP,resources/DB.BMP,Door4,0.383809524,-0.042857143,1,0,0,1.2176,optionRight,80,2780,2,8,0,8,0,1,,,,,,,,,,,,,,,,,,,,,,,,,,,,,,,,,,,,,,,
,,,,,,,,2023-08-16_08h47.54.554,HF_wild_card,2022.2.4,Win32,11.99529784,64135e5651180cd4c2843e4f,64d2fd46c836a06233681665,64dc7effd5690df31c4e5738,,,,,,,decisionTrl,resources/DBN.BMP,resources/DR.BMP,WildCard_Ex,0.455238095,-0.066666667,1,0,0,0.9779,optionRight,5,2785,2,9,0,9,0,1,,,,,,,,,,,,,,,,,,,,,,,,,,,,,,,,,,,,,,,
,,,,,,,,2023-08-16_08h47.54.554,HF_wild_card,2022.2.4,Win32,11.99529784,64135e5651180cd4c2843e4f,64d2fd46c836a06233681665,64dc7effd5690df31c4e5738,,,,,,,decisionTrl,resources/DP.BMP,resources/DB.BMP,Door4,0.379047619,-0.047619048,1,0,0,3.0929,optionRight,80,2865,2,10,0,10,0,1,,,,,,,,,,,,,,,,,,,,,,,,,,,,,,,,,,,,,,,
,,,,,,,,2023-08-16_08h47.54.554,HF_wild_card,2022.2.4,Win32,11.99529784,64135e5651180cd4c2843e4f,64d2fd46c836a06233681665,64dc7effd5690df31c4e5738,,,,,,,sngl,resources/Empty.png,resources/DY.BMP,Door1,0.406666667,0.028571429,1,0,0,2.219,optionRight,30,2895,2,11,0,11,0,1,,,,,,,,,,,,,,,,,,,,,,,,,,,,,,,,,,,,,,,
,,,,,,,,2023-08-16_08h47.54.554,HF_wild_card,2022.2.4,Win32,11.99529784,64135e5651180cd4c2843e4f,64d2fd46c836a06233681665,64dc7effd5690df31c4e5738,,,,,,,sngl,resources/DR.BMP,resources/Empty.png,WildCard_Ex,-0.4,-0.047619048,1,0,0,2.0711,optionLeft,5,2900,2,12,0,12,0,1,,,,,,,,,,,,,,,,,,,,,,,,,,,,,,,,,,,,,,,
,,,,,,,,2023-08-16_08h47.54.554,HF_wild_card,2022.2.4,Win32,11.99529784,64135e5651180cd4c2843e4f,64d2fd46c836a06233681665,64dc7effd5690df31c4e5738,,,,,,,sngl,resources/DBN.BMP,resources/Empty.png,Door2,-0.399047619,0.01047619,1,0,0,1.3212,optionLeft,20,2920,2,13,0,13,0,1,,,,,,,,,,,,,,,,,,,,,,,,,,,,,,,,,,,,,,,
,,,,,,,,2023-08-16_08h47.54.554,HF_wild_card,2022.2.4,Win32,11.99529784,64135e5651180cd4c2843e4f,64d2fd46c836a06233681665,64dc7effd5690df31c4e5738,,,,,,,sngl,resources/Empty.png,resources/DR.BMP,WildCard_Ex,0.406666667,-0.044761905,1,0,0,0.9839,optionRight,95,3015,2,14,0,14,0,1,,,,,,,,,,,,,,,,,,,,,,,,,,,,,,,,,,,,,,,
,,,,,,,,2023-08-16_08h47.54.554,HF_wild_card,2022.2.4,Win32,11.99529784,64135e5651180cd4c2843e4f,64d2fd46c836a06233681665,64dc7effd5690df31c4e5738,,,,,,,decisionTrl,resources/DR.BMP,resources/DBN.BMP,Door2,0.399047619,0.003809524,1,0,0,2.1486,optionRight,40,3055,2,15,0,15,0,1,,,,,,,,,,,,,,,,,,,,,,,,,,,,,,,,,,,,,,,
,,,,,,,,2023-08-16_08h47.54.554,HF_wild_card,2022.2.4,Win32,11.99529784,64135e5651180cd4c2843e4f,64d2fd46c836a06233681665,64dc7effd5690df31c4e5738,,,,,,,decisionTrl,resources/DR.BMP,resources/DB.BMP,WildCard_Ex,-0.400952381,-0.037142857,1,0,0,0.8527,optionLeft,5,3060,2,16,0,16,0,1,,,,,,,,,,,,,,,,,,,,,,,,,,,,,,,,,,,,,,,
,,,,,,,,2023-08-16_08h47.54.554,HF_wild_card,2022.2.4,Win32,11.99529784,64135e5651180cd4c2843e4f,64d2fd46c836a06233681665,64dc7effd5690df31c4e5738,,,,,,,sngl,resources/DR.BMP,resources/Empty.png,WildCard_Ex,-0.406666667,-0.048571429,1,0,0,1.0051,optionLeft,95,3155,2,17,0,17,0,1,,,,,,,,,,,,,,,,,,,,,,,,,,,,,,,,,,,,,,,
,,,,,,,,2023-08-16_08h47.54.554,HF_wild_card,2022.2.4,Win32,11.99529784,64135e5651180cd4c2843e4f,64d2fd46c836a06233681665,64dc7effd5690df31c4e5738,,,,,,,decisionTrl,resources/DY.BMP,resources/DBN.BMP,Door2,0.399047619,0.001904762,1,0,0,1.0037,optionRight,20,3175,2,18,0,18,0,1,,,,,,,,,,,,,,,,,,,,,,,,,,,,,,,,,,,,,,,
,,,,,,,,2023-08-16_08h47.54.554,HF_wild_card,2022.2.4,Win32,11.99529784,64135e5651180cd4c2843e4f,64d2fd46c836a06233681665,64dc7effd5690df31c4e5738,,,,,,,decisionTrl,resources/DR.BMP,resources/DY.BMP,WildCard_Ex,-0.374285714,-0.05047619,1,0,0,0.6358,optionLeft,95,3270,2,19,0,19,0,1,,,,,,,,,,,,,,,,,,,,,,,,,,,,,,,,,,,,,,,
,,,,,,,,2023-08-16_08h47.54.554,HF_wild_card,2022.2.4,Win32,11.99529784,64135e5651180cd4c2843e4f,64d2fd46c836a06233681665,64dc7effd5690df31c4e5738,,,,,,,decisionTrl,resources/DB.BMP,resources/DP.BMP,Door4,-0.480952381,-0.033333333,1,0,0,1.4516,optionLeft,60,3330,2,20,0,20,0,1,,,,,,,,,,,,,,,,,,,,,,,,,,,,,,,,,,,,,,,
,,,,,,,,2023-08-16_08h47.54.554,HF_wild_card,2022.2.4,Win32,11.99529784,64135e5651180cd4c2843e4f,64d2fd46c836a06233681665,64dc7effd5690df31c4e5738,,,,,,,decisionTrl,resources/DB.BMP,resources/DP.BMP,Door4,-0.760952381,-0.079047619,1,0,0,2.9386,optionLeft,60,3390,2,21,0,21,0,1,,,,,,,,,,,,,,,,,,,,,,,,,,,,,,,,,,,,,,,
,,,,,,,,2023-08-16_08h47.54.554,HF_wild_card,2022.2.4,Win32,11.99529784,64135e5651180cd4c2843e4f,64d2fd46c836a06233681665,64dc7effd5690df31c4e5738,,,,,,,sngl,resources/DP.BMP,resources/Empty.png,Door3,-0.383809524,0.003809524,1,0,0,0.8891,optionLeft,70,3460,2,22,0,22,0,1,,,,,,,,,,,,,,,,,,,,,,,,,,,,,,,,,,,,,,,
,,,,,,,,2023-08-16_08h47.54.554,HF_wild_card,2022.2.4,Win32,11.99529784,64135e5651180cd4c2843e4f,64d2fd46c836a06233681665,64dc7effd5690df31c4e5738,,,,,,,decisionTrl,resources/DB.BMP,resources/DP.BMP,Door3,0.423809524,-0.039047619,1,0,0,1.8001,optionRight,70,3530,2,23,0,23,0,1,,,,,,,,,,,,,,,,,,,,,,,,,,,,,,,,,,,,,,,
,,,,,,,,2023-08-16_08h47.54.554,HF_wild_card,2022.2.4,Win32,11.99529784,64135e5651180cd4c2843e4f,64d2fd46c836a06233681665,64dc7effd5690df31c4e5738,,,,,,,decisionTrl,resources/DP.BMP,resources/DR.BMP,Door3,-0.321904762,-0.06952381,1,0,0,0.6135,optionLeft,70,3600,2,24,0,24,0,1,,,,,,,,,,,,,,,,,,,,,,,,,,,,,,,,,,,,,,,
,,,,,,,,2023-08-16_08h47.54.554,HF_wild_card,2022.2.4,Win32,11.99529784,64135e5651180cd4c2843e4f,64d2fd46c836a06233681665,64dc7effd5690df31c4e5738,,,,,,,decisionTrl,resources/DBN.BMP,resources/DY.BMP,Door2,-0.413333333,0.011428571,1,0,0,1.0842,optionLeft,20,3620,2,25,0,25,0,1,,,,,,,,,,,,,,,,,,,,,,,,,,,,,,,,,,,,,,,
,,,,,,,,2023-08-16_08h47.54.554,HF_wild_card,2022.2.4,Win32,11.99529784,64135e5651180cd4c2843e4f,64d2fd46c836a06233681665,64dc7effd5690df31c4e5738,,,,,,,decisionTrl,resources/DB.BMP,resources/DP.BMP,Door3,0.314285714,-0.04952381,1,0,0,1.7117,optionRight,70,3690,2,26,0,26,0,1,,,,,,,,,,,,,,,,,,,,,,,,,,,,,,,,,,,,,,,
,,,,,,,,2023-08-16_08h47.54.554,HF_wild_card,2022.2.4,Win32,11.99529784,64135e5651180cd4c2843e4f,64d2fd46c836a06233681665,64dc7effd5690df31c4e5738,,,,,,,sngl,resources/DY.BMP,resources/Empty.png,Door1,-0.347619048,-0.044761905,1,0,0,0.9102,optionLeft,30,3720,2,27,0,27,0,1,,,,,,,,,,,,,,,,,,,,,,,,,,,,,,,,,,,,,,,
,,,,,,,,2023-08-16_08h47.54.554,HF_wild_card,2022.2.4,Win32,11.99529784,64135e5651180cd4c2843e4f,64d2fd46c836a06233681665,64dc7effd5690df31c4e5738,,,,,,,decisionTrl,resources/DY.BMP,resources/DBN.BMP,Door2,0.447619048,-0.028571429,1,0,0,0.7222,optionRight,20,3740,2,28,0,28,0,1,,,,,,,,,,,,,,,,,,,,,,,,,,,,,,,,,,,,,,,
,,,,,,,,2023-08-16_08h47.54.554,HF_wild_card,2022.2.4,Win32,11.99529784,64135e5651180cd4c2843e4f,64d2fd46c836a06233681665,64dc7effd5690df31c4e5738,,,,,,,decisionTrl,resources/DB.BMP,resources/DR.BMP,WildCard_Ex,0.252380952,-0.000952381,1,0,0,1.4828,optionRight,5,3745,2,29,0,29,0,1,,,,,,,,,,,,,,,,,,,,,,,,,,,,,,,,,,,,,,,
,,,,,,,,2023-08-16_08h47.54.554,HF_wild_card,2022.2.4,Win32,11.99529784,64135e5651180cd4c2843e4f,64d2fd46c836a06233681665,64dc7effd5690df31c4e5738,,,,,,,decisionTrl,resources/DY.BMP,resources/DR.BMP,Door1,-0.397142857,-0.004761905,1,0,0,0.6017,optionLeft,30,3775,2,30,0,30,0,1,,,,,,,,,,,,,,,,,,,,,,,,,,,,,,,,,,,,,,,
,,,,,,,,2023-08-16_08h47.54.554,HF_wild_card,2022.2.4,Win32,11.99529784,64135e5651180cd4c2843e4f,64d2fd46c836a06233681665,64dc7effd5690df31c4e5738,,,,,,,decisionTrl,resources/DP.BMP,resources/DB.BMP,Door3,-0.400952381,-0.022857143,1,0,0,0.7341,optionLeft,70,3845,2,31,0,31,0,1,,,,,,,,,,,,,,,,,,,,,,,,,,,,,,,,,,,,,,,
,,,,,,,,2023-08-16_08h47.54.554,HF_wild_card,2022.2.4,Win32,11.99529784,64135e5651180cd4c2843e4f,64d2fd46c836a06233681665,64dc7effd5690df31c4e5738,,,,,,,decisionTrl,resources/DP.BMP,resources/DB.BMP,Door3,-0.346666667,-0.01047619,1,0,0,0.5989,optionLeft,70,3915,2,32,0,32,0,1,,,,,,,,,,,,,,,,,,,,,,,,,,,,,,,,,,,,,,,
,,,,,,,,2023-08-16_08h47.54.554,HF_wild_card,2022.2.4,Win32,11.99529784,64135e5651180cd4c2843e4f,64d2fd46c836a06233681665,64dc7effd5690df31c4e5738,,,,,,,ctch,resources/DB.BMP,resources/DY.BMP,Door4,-0.425714286,-0.034285714,1,0,0,2.0794,optionLeft,60,3975,2,33,0,33,0,1,,,,,,,,,,,,,,,,,,,,,,,,,,,,,,,,,,,,,,,
,,,,,,,,2023-08-16_08h47.54.554,HF_wild_card,2022.2.4,Win32,11.99529784,64135e5651180cd4c2843e4f,64d2fd46c836a06233681665,64dc7effd5690df31c4e5738,,,,,,,ctch,resources/DY.BMP,resources/DB.BMP,Door1,-0.331428571,-0.017142857,1,0,0,0.7604,optionLeft,30,4005,2,34,0,34,0,1,,,,,,,,,,,,,,,,,,,,,,,,,,,,,,,,,,,,,,,
,,,,,,,,2023-08-16_08h47.54.554,HF_wild_card,2022.2.4,Win32,11.99529784,64135e5651180cd4c2843e4f,64d2fd46c836a06233681665,64dc7effd5690df31c4e5738,,,,,,,decisionTrl,resources/DY.BMP,resources/DBN.BMP,Door1,-0.396190476,-0.004761905,1,0,0,0.9229,optionLeft,30,4035,2,35,0,35,0,1,,,,,,,,,,,,,,,,,,,,,,,,,,,,,,,,,,,,,,,
,,,,,,,,2023-08-16_08h47.54.554,HF_wild_card,2022.2.4,Win32,11.99529784,64135e5651180cd4c2843e4f,64d2fd46c836a06233681665,64dc7effd5690df31c4e5738,,,,,,,ctch,resources/DBN.BMP,resources/DP.BMP,Door3,0.426666667,-0.023809524,1,0,0,0.9922,optionRight,70,4105,2,36,0,36,0,1,,,,,,,,,,,,,,,,,,,,,,,,,,,,,,,,,,,,,,,
,,,,,,,,2023-08-16_08h47.54.554,HF_wild_card,2022.2.4,Win32,11.99529784,64135e5651180cd4c2843e4f,64d2fd46c836a06233681665,64dc7effd5690df31c4e5738,,,,,,,sngl,resources/Empty.png,resources/DP.BMP,Door3,0.43047619,-0.013333333,1,0,0,0.6926,optionRight,70,4175,2,37,0,37,0,1,,,,,,,,,,,,,,,,,,,,,,,,,,,,,,,,,,,,,,,
,,,,,,,,2023-08-16_08h47.54.554,HF_wild_card,2022.2.4,Win32,11.99529784,64135e5651180cd4c2843e4f,64d2fd46c836a06233681665,64dc7effd5690df31c4e5738,,,,,,,decisionTrl,resources/DBN.BMP,resources/DY.BMP,Door2,-0.396190476,0.018095238,1,0,0,1.5858,optionLeft,40,4215,2,38,0,38,0,1,,,,,,,,,,,,,,,,,,,,,,,,,,,,,,,,,,,,,,,
,,,,,,,,2023-08-16_08h47.54.554,HF_wild_card,2022.2.4,Win32,11.99529784,64135e5651180cd4c2843e4f,64d2fd46c836a06233681665,64dc7effd5690df31c4e5738,,,,,,,ctch,resources/DBN.BMP,resources/DP.BMP,Door2,-0.452380952,-0.001904762,1,0,0,0.6327,optionLeft,20,4235,2,39,0,39,0,1,,,,,,,,,,,,,,,,,,,,,,,,,,,,,,,,,,,,,,,
,,,,,,,,2023-08-16_08h47.54.554,HF_wild_card,2022.2.4,Win32,11.99529784,64135e5651180cd4c2843e4f,64d2fd46c836a06233681665,64dc7effd5690df31c4e5738,,,,,,,decisionTrl,resources/DBN.BMP,resources/DY.BMP,Door1,0.446666667,-0.005714286,1,0,0,0.6158,optionRight,30,4265,2,40,0,40,0,1,,,,,,,,,,,,,,,,,,,,,,,,,,,,,,,,,,,,,,,
,,,,,,,,2023-08-16_08h47.54.554,HF_wild_card,2022.2.4,Win32,11.99529784,64135e5651180cd4c2843e4f,64d2fd46c836a06233681665,64dc7effd5690df31c4e5738,,,,,,,sngl,resources/DB.BMP,resources/Empty.png,Door4,-0.32952381,0,1,0,0,0.6566,optionLeft,60,4325,2,41,0,41,0,1,,,,,,,,,,,,,,,,,,,,,,,,,,,,,,,,,,,,,,,
,,,,,,,,2023-08-16_08h47.54.554,HF_wild_card,2022.2.4,Win32,11.99529784,64135e5651180cd4c2843e4f,64d2fd46c836a06233681665,64dc7effd5690df31c4e5738,,,,,,,decisionTrl,resources/DBN.BMP,resources/DY.BMP,Door2,-0.443809524,0.007619048,1,0,0,0.8483,optionLeft,20,4345,2,42,0,42,0,1,,,,,,,,,,,,,,,,,,,,,,,,,,,,,,,,,,,,,,,
,,,,,,,,2023-08-16_08h47.54.554,HF_wild_card,2022.2.4,Win32,11.99529784,64135e5651180cd4c2843e4f,64d2fd46c836a06233681665,64dc7effd5690df31c4e5738,,,,,,,sngl,resources/Empty.png,resources/DB.BMP,Door4,0.348571429,0.021904762,1,0,0,0.7118,optionRight,80,4425,2,43,0,43,0,1,,,,,,,,,,,,,,,,,,,,,,,,,,,,,,,,,,,,,,,
,,,,,,,,2023-08-16_08h47.54.554,HF_wild_card,2022.2.4,Win32,11.99529784,64135e5651180cd4c2843e4f,64d2fd46c836a06233681665,64dc7effd5690df31c4e5738,,,,,,,,,,,,,,,,,,,,,,,,,,1,0,1,0,1,,,,,,,,,,,,,,,,,,,,,,,,,,,,,,,,,,
,,,,,,,,2023-08-16_08h47.54.554,HF_wild_card,2022.2.4,Win32,11.99529784,64135e5651180cd4c2843e4f,64d2fd46c836a06233681665,64dc7effd5690df31c4e5738,,,,,,,ctch,resources/DBN.BMP,resources/DP.BMP,Door2,-0.405714286,0.00952381,1,0,0,0.8651,optionLeft,40,4465,3,0,0,0,0,1,,,,,,,,,,,,,,,,,,,,,,,,,,,,,,,,,,,,,,,
,,,,,,,,2023-08-16_08h47.54.554,HF_wild_card,2022.2.4,Win32,11.99529784,64135e5651180cd4c2843e4f,64d2fd46c836a06233681665,64dc7effd5690df31c4e5738,,,,,,,ctch,resources/DBN.BMP,resources/DP.BMP,Door2,-0.4,0.005714286,1,0,0,0.8434,optionLeft,40,4505,3,1,0,1,0,1,,,,,,,,,,,,,,,,,,,,,,,,,,,,,,,,,,,,,,,
,,,,,,,,2023-08-16_08h47.54.554,HF_wild_card,2022.2.4,Win32,11.99529784,64135e5651180cd4c2843e4f,64d2fd46c836a06233681665,64dc7effd5690df31c4e5738,,,,,,,decisionTrl,resources/DBN.BMP,resources/DY.BMP,Door2,-0.30952381,-0.035238095,1,0,0,0.7193,optionLeft,40,4545,3,2,0,2,0,1,,,,,,,,,,,,,,,,,,,,,,,,,,,,,,,,,,,,,,,
,,,,,,,,2023-08-16_08h47.54.554,HF_wild_card,2022.2.4,Win32,11.99529784,64135e5651180cd4c2843e4f,64d2fd46c836a06233681665,64dc7effd5690df31c4e5738,,,,,,,decisionTrl,resources/DBN.BMP,resources/DY.BMP,Door2,-0.37047619,0.024761905,1,0,0,0.7278,optionLeft,20,4565,3,3,0,3,0,1,,,,,,,,,,,,,,,,,,,,,,,,,,,,,,,,,,,,,,,
,,,,,,,,2023-08-16_08h47.54.554,HF_wild_card,2022.2.4,Win32,11.99529784,64135e5651180cd4c2843e4f,64d2fd46c836a06233681665,64dc7effd5690df31c4e5738,,,,,,,ctch,resources/DB.BMP,resources/DY.BMP,Door4,-0.311428571,0.002857143,1,0,0,0.4811,optionLeft,80,4645,3,4,0,4,0,1,,,,,,,,,,,,,,,,,,,,,,,,,,,,,,,,,,,,,,,
,,,,,,,,2023-08-16_08h47.54.554,HF_wild_card,2022.2.4,Win32,11.99529784,64135e5651180cd4c2843e4f,64d2fd46c836a06233681665,64dc7effd5690df31c4e5738,,,,,,,ctch,resources/DY.BMP,resources/DB.BMP,Door1,-0.375238095,0.032380952,1,0,0,2.4457,optionLeft,30,4675,3,5,0,5,0,1,,,,,,,,,,,,,,,,,,,,,,,,,,,,,,,,,,,,,,,
,,,,,,,,2023-08-16_08h47.54.554,HF_wild_card,2022.2.4,Win32,11.99529784,64135e5651180cd4c2843e4f,64d2fd46c836a06233681665,64dc7effd5690df31c4e5738,,,,,,,decisionTrl,resources/DB.BMP,resources/DP.BMP,Door3,0.45047619,-0.05047619,1,0,0,0.6106,optionRight,70,4745,3,6,0,6,0,1,,,,,,,,,,,,,,,,,,,,,,,,,,,,,,,,,,,,,,,
,,,,,,,,2023-08-16_08h47.54.554,HF_wild_card,2022.2.4,Win32,11.99529784,64135e5651180cd4c2843e4f,64d2fd46c836a06233681665,64dc7effd5690df31c4e5738,,,,,,,sngl,resources/DP.BMP,resources/Empty.png,Door3,-0.32952381,-0.019047619,1,0,0,0.6682,optionLeft,70,4815,3,7,0,7,0,1,,,,,,,,,,,,,,,,,,,,,,,,,,,,,,,,,,,,,,,
,,,,,,,,2023-08-16_08h47.54.554,HF_wild_card,2022.2.4,Win32,11.99529784,64135e5651180cd4c2843e4f,64d2fd46c836a06233681665,64dc7effd5690df31c4e5738,,,,,,,sngl,resources/Empty.png,resources/DB.BMP,Door4,0.513333333,-0.015238095,1,0,0,0.6518,optionRight,60,4875,3,8,0,8,0,1,,,,,,,,,,,,,,,,,,,,,,,,,,,,,,,,,,,,,,,
,,,,,,,,2023-08-16_08h47.54.554,HF_wild_card,2022.2.4,Win32,11.99529784,64135e5651180cd4c2843e4f,64d2fd46c836a06233681665,64dc7effd5690df31c4e5738,,,,,,,decisionTrl,resources/DP.BMP,resources/DB.BMP,Door3,-0.398095238,-0.028571429,1,0,0,0.9627,optionLeft,70,4945,3,9,0,9,0,1,,,,,,,,,,,,,,,,,,,,,,,,,,,,,,,,,,,,,,,
,,,,,,,,2023-08-16_08h47.54.554,HF_wild_card,2022.2.4,Win32,11.99529784,64135e5651180cd4c2843e4f,64d2fd46c836a06233681665,64dc7effd5690df31c4e5738,,,,,,,decisionTrl,resources/DB.BMP,resources/DP.BMP,Door3,0.455238095,-0.062857143,1,0,0,1.1578,optionRight,70,5015,3,10,0,10,0,1,,,,,,,,,,,,,,,,,,,,,,,,,,,,,,,,,,,,,,,
,,,,,,,,2023-08-16_08h47.54.554,HF_wild_card,2022.2.4,Win32,11.99529784,64135e5651180cd4c2843e4f,64d2fd46c836a06233681665,64dc7effd5690df31c4e5738,,,,,,,decisionTrl,resources/DP.BMP,resources/DR.BMP,Door3,-0.391428571,0.002857143,1,0,0,0.762,optionLeft,70,5085,3,11,0,11,0,1,,,,,,,,,,,,,,,,,,,,,,,,,,,,,,,,,,,,,,,
,,,,,,,,2023-08-16_08h47.54.554,HF_wild_card,2022.2.4,Win32,11.99529784,64135e5651180cd4c2843e4f,64d2fd46c836a06233681665,64dc7effd5690df31c4e5738,,,,,,,sngl,resources/DY.BMP,resources/Empty.png,Door1,-0.408571429,-0.008571429,1,0,0,0.5446,optionLeft,30,5115,3,12,0,12,0,1,,,,,,,,,,,,,,,,,,,,,,,,,,,,,,,,,,,,,,,
,,,,,,,,2023-08-16_08h47.54.554,HF_wild_card,2022.2.4,Win32,11.99529784,64135e5651180cd4c2843e4f,64d2fd46c836a06233681665,64dc7effd5690df31c4e5738,,,,,,,sngl,resources/Empty.png,resources/DBN.BMP,Door2,0.364761905,-0.003809524,1,0,0,0.7705,optionRight,20,5135,3,13,0,13,0,1,,,,,,,,,,,,,,,,,,,,,,,,,,,,,,,,,,,,,,,
,,,,,,,,2023-08-16_08h47.54.554,HF_wild_card,2022.2.4,Win32,11.99529784,64135e5651180cd4c2843e4f,64d2fd46c836a06233681665,64dc7effd5690df31c4e5738,,,,,,,decisionTrl,resources/DB.BMP,resources/DP.BMP,Door4,-0.405714286,-0.008571429,1,0,0,0.6365,optionLeft,60,5195,3,14,0,14,0,1,,,,,,,,,,,,,,,,,,,,,,,,,,,,,,,,,,,,,,,
,,,,,,,,2023-08-16_08h47.54.554,HF_wild_card,2022.2.4,Win32,11.99529784,64135e5651180cd4c2843e4f,64d2fd46c836a06233681665,64dc7effd5690df31c4e5738,,,,,,,sngl,resources/Empty.png,resources/DY.BMP,Door1,0.386666667,-0.00952381,1,0,0,0.7709,optionRight,30,5225,3,15,0,15,0,1,,,,,,,,,,,,,,,,,,,,,,,,,,,,,,,,,,,,,,,
,,,,,,,,2023-08-16_08h47.54.554,HF_wild_card,2022.2.4,Win32,11.99529784,64135e5651180cd4c2843e4f,64d2fd46c836a06233681665,64dc7effd5690df31c4e5738,,,,,,,decisionTrl,resources/DY.BMP,resources/DR.BMP,Door1,-0.435238095,-0.039047619,1,0,0,0.7317,optionLeft,30,5255,3,16,0,16,0,1,,,,,,,,,,,,,,,,,,,,,,,,,,,,,,,,,,,,,,,
,,,,,,,,2023-08-16_08h47.54.554,HF_wild_card,2022.2.4,Win32,11.99529784,64135e5651180cd4c2843e4f,64d2fd46c836a06233681665,64dc7effd5690df31c4e5738,,,,,,,ctch,resources/DB.BMP,resources/DY.BMP,Door4,-0.417142857,-0.044761905,1,0,0,2.7833,optionLeft,80,5335,3,17,0,17,0,1,,,,,,,,,,,,,,,,,,,,,,,,,,,,,,,,,,,,,,,
,,,,,,,,2023-08-16_08h47.54.554,HF_wild_card,2022.2.4,Win32,11.99529784,64135e5651180cd4c2843e4f,64d2fd46c836a06233681665,64dc7effd5690df31c4e5738,,,,,,,decisionTrl,resources/DBN.BMP,resources/DY.BMP,Door2,-0.426666667,0.00952381,1,0,0,1.7843,optionLeft,40,5375,3,18,0,18,0,1,,,,,,,,,,,,,,,,,,,,,,,,,,,,,,,,,,,,,,,
,,,,,,,,2023-08-16_08h47.54.554,HF_wild_card,2022.2.4,Win32,11.99529784,64135e5651180cd4c2843e4f,64d2fd46c836a06233681665,64dc7effd5690df31c4e5738,,,,,,,decisionTrl,resources/DY.BMP,resources/DBN.BMP,Door1,-0.385714286,0.03047619,1,0,0,1.6269,optionLeft,30,5405,3,19,0,19,0,1,,,,,,,,,,,,,,,,,,,,,,,,,,,,,,,,,,,,,,,
,,,,,,,,2023-08-16_08h47.54.554,HF_wild_card,2022.2.4,Win32,11.99529784,64135e5651180cd4c2843e4f,64d2fd46c836a06233681665,64dc7effd5690df31c4e5738,,,,,,,sngl,resources/Empty.png,resources/DR.BMP,WildCard_Ex,0.364761905,-0.037142857,1,0,0,0.9937,optionRight,5,5410,3,20,0,20,0,1,,,,,,,,,,,,,,,,,,,,,,,,,,,,,,,,,,,,,,,
,,,,,,,,2023-08-16_08h47.54.554,HF_wild_card,2022.2.4,Win32,11.99529784,64135e5651180cd4c2843e4f,64d2fd46c836a06233681665,64dc7effd5690df31c4e5738,,,,,,,decisionTrl,resources/DR.BMP,resources/DY.BMP,WildCard_Ex,-0.385714286,-0.007619048,1,0,0,0.8573,optionLeft,5,5415,3,21,0,21,0,1,,,,,,,,,,,,,,,,,,,,,,,,,,,,,,,,,,,,,,,
,,,,,,,,2023-08-16_08h47.54.554,HF_wild_card,2022.2.4,Win32,11.99529784,64135e5651180cd4c2843e4f,64d2fd46c836a06233681665,64dc7effd5690df31c4e5738,,,,,,,sngl,resources/DR.BMP,resources/Empty.png,WildCard_Ex,-0.387619048,-0.054285714,1,0,0,0.6777,optionLeft,5,5420,3,22,0,22,0,1,,,,,,,,,,,,,,,,,,,,,,,,,,,,,,,,,,,,,,,
,,,,,,,,2023-08-16_08h47.54.554,HF_wild_card,2022.2.4,Win32,11.99529784,64135e5651180cd4c2843e4f,64d2fd46c836a06233681665,64dc7effd5690df31c4e5738,,,,,,,ctch,resources/DY.BMP,resources/DB.BMP,Door4,0.39047619,-0.043809524,1,0,0,1.8296,optionRight,60,5480,3,23,0,23,0,1,,,,,,,,,,,,,,,,,,,,,,,,,,,,,,,,,,,,,,,
,,,,,,,,2023-08-16_08h47.54.554,HF_wild_card,2022.2.4,Win32,11.99529784,64135e5651180cd4c2843e4f,64d2fd46c836a06233681665,64dc7effd5690df31c4e5738,,,,,,,sngl,resources/Empty.png,resources/DR.BMP,WildCard_Ex,0.40952381,-0.012380952,1,0,0,0.5878,optionRight,95,5575,3,24,0,24,0,1,,,,,,,,,,,,,,,,,,,,,,,,,,,,,,,,,,,,,,,
,,,,,,,,2023-08-16_08h47.54.554,HF_wild_card,2022.2.4,Win32,11.99529784,64135e5651180cd4c2843e4f,64d2fd46c836a06233681665,64dc7effd5690df31c4e5738,,,,,,,decisionTrl,resources/DR.BMP,resources/DP.BMP,WildCard_Ex,-0.423809524,-0.044761905,1,0,0,1.6333,optionLeft,95,5670,3,25,0,25,0,1,,,,,,,,,,,,,,,,,,,,,,,,,,,,,,,,,,,,,,,
,,,,,,,,2023-08-16_08h47.54.554,HF_wild_card,2022.2.4,Win32,11.99529784,64135e5651180cd4c2843e4f,64d2fd46c836a06233681665,64dc7effd5690df31c4e5738,,,,,,,decisionTrl,resources/DY.BMP,resources/DBN.BMP,Door2,0.461904762,-0.023809524,1,0,0,0.9761,optionRight,20,5690,3,26,0,26,0,1,,,,,,,,,,,,,,,,,,,,,,,,,,,,,,,,,,,,,,,
,,,,,,,,2023-08-16_08h47.54.554,HF_wild_card,2022.2.4,Win32,11.99529784,64135e5651180cd4c2843e4f,64d2fd46c836a06233681665,64dc7effd5690df31c4e5738,,,,,,,ctch,resources/DP.BMP,resources/DBN.BMP,Door3,-0.339047619,-0.04,1,0,0,0.7276,optionLeft,70,5760,3,27,0,27,0,1,,,,,,,,,,,,,,,,,,,,,,,,,,,,,,,,,,,,,,,
,,,,,,,,2023-08-16_08h47.54.554,HF_wild_card,2022.2.4,Win32,11.99529784,64135e5651180cd4c2843e4f,64d2fd46c836a06233681665,64dc7effd5690df31c4e5738,,,,,,,decisionTrl,resources/DY.BMP,resources/DBN.BMP,Door1,-0.36,-0.044761905,1,0,0,1.7427,optionLeft,30,5790,3,28,0,28,0,1,,,,,,,,,,,,,,,,,,,,,,,,,,,,,,,,,,,,,,,
,,,,,,,,2023-08-16_08h47.54.554,HF_wild_card,2022.2.4,Win32,11.99529784,64135e5651180cd4c2843e4f,64d2fd46c836a06233681665,64dc7effd5690df31c4e5738,,,,,,,sngl,resources/Empty.png,resources/DP.BMP,Door3,0.396190476,-0.011428571,1,0,0,0.878,optionRight,70,5860,3,29,0,29,0,1,,,,,,,,,,,,,,,,,,,,,,,,,,,,,,,,,,,,,,,
,,,,,,,,2023-08-16_08h47.54.554,HF_wild_card,2022.2.4,Win32,11.99529784,64135e5651180cd4c2843e4f,64d2fd46c836a06233681665,64dc7effd5690df31c4e5738,,,,,,,sngl,resources/DB.BMP,resources/Empty.png,Door4,-0.393333333,-0.023809524,1,0,0,0.8819,optionLeft,80,5940,3,30,0,30,0,1,,,,,,,,,,,,,,,,,,,,,,,,,,,,,,,,,,,,,,,
,,,,,,,,2023-08-16_08h47.54.554,HF_wild_card,2022.2.4,Win32,11.99529784,64135e5651180cd4c2843e4f,64d2fd46c836a06233681665,64dc7effd5690df31c4e5738,,,,,,,sngl,resources/DBN.BMP,resources/Empty.png,Door2,-0.412380952,-0.01047619,1,0,0,0.7583,optionLeft,40,5980,3,31,0,31,0,1,,,,,,,,,,,,,,,,,,,,,,,,,,,,,,,,,,,,,,,
,,,,,,,,2023-08-16_08h47.54.554,HF_wild_card,2022.2.4,Win32,11.99529784,64135e5651180cd4c2843e4f,64d2fd46c836a06233681665,64dc7effd5690df31c4e5738,,,,,,,decisionTrl,resources/DB.BMP,resources/DP.BMP,Door3,0.413333333,-0.001904762,1,0,0,1.4546,optionRight,70,6050,3,32,0,32,0,1,,,,,,,,,,,,,,,,,,,,,,,,,,,,,,,,,,,,,,,
,,,,,,,,2023-08-16_08h47.54.554,HF_wild_card,2022.2.4,Win32,11.99529784,64135e5651180cd4c2843e4f,64d2fd46c836a06233681665,64dc7effd5690df31c4e5738,,,,,,,ctch,resources/DP.BMP,resources/DBN.BMP,Door3,-0.433333333,-0.025714286,1,0,0,4.9423,optionLeft,70,6120,3,33,0,33,0,1,,,,,,,,,,,,,,,,,,,,,,,,,,,,,,,,,,,,,,,
,,,,,,,,2023-08-16_08h47.54.554,HF_wild_card,2022.2.4,Win32,11.99529784,64135e5651180cd4c2843e4f,64d2fd46c836a06233681665,64dc7effd5690df31c4e5738,,,,,,,decisionTrl,resources/DBN.BMP,resources/DR.BMP,WildCard_Ex,0.391428571,-0.045714286,1,0,0,2.5373,optionRight,95,6215,3,34,0,34,0,1,,,,,,,,,,,,,,,,,,,,,,,,,,,,,,,,,,,,,,,
,,,,,,,,2023-08-16_08h47.54.554,HF_wild_card,2022.2.4,Win32,11.99529784,64135e5651180cd4c2843e4f,64d2fd46c836a06233681665,64dc7effd5690df31c4e5738,,,,,,,decisionTrl,resources/DY.BMP,resources/DBN.BMP,Door1,-0.379047619,0.02,1,0,0,3.6632,optionLeft,30,6245,3,35,0,35,0,1,,,,,,,,,,,,,,,,,,,,,,,,,,,,,,,,,,,,,,,
,,,,,,,,2023-08-16_08h47.54.554,HF_wild_card,2022.2.4,Win32,11.99529784,64135e5651180cd4c2843e4f,64d2fd46c836a06233681665,64dc7effd5690df31c4e5738,,,,,,,decisionTrl,resources/DB.BMP,resources/DR.BMP,Door4,-0.401904762,-0.075238095,1,0,0,0.9626,optionLeft,80,6325,3,36,0,36,0,1,,,,,,,,,,,,,,,,,,,,,,,,,,,,,,,,,,,,,,,
,,,,,,,,2023-08-16_08h47.54.554,HF_wild_card,2022.2.4,Win32,11.99529784,64135e5651180cd4c2843e4f,64d2fd46c836a06233681665,64dc7effd5690df31c4e5738,,,,,,,decisionTrl,resources/DR.BMP,resources/DB.BMP,WildCard_Ex,-0.408571429,-0.042857143,1,0,0,1.2223,optionLeft,95,6420,3,37,0,37,0,1,,,,,,,,,,,,,,,,,,,,,,,,,,,,,,,,,,,,,,,
,,,,,,,,2023-08-16_08h47.54.554,HF_wild_card,2022.2.4,Win32,11.99529784,64135e5651180cd4c2843e4f,64d2fd46c836a06233681665,64dc7effd5690df31c4e5738,,,,,,,decisionTrl,resources/DBN.BMP,resources/DY.BMP,Door2,-0.399047619,0.018095238,1,0,0,2.8026,optionLeft,20,6440,3,38,0,38,0,1,,,,,,,,,,,,,,,,,,,,,,,,,,,,,,,,,,,,,,,
,,,,,,,,2023-08-16_08h47.54.554,HF_wild_card,2022.2.4,Win32,11.99529784,64135e5651180cd4c2843e4f,64d2fd46c836a06233681665,64dc7effd5690df31c4e5738,,,,,,,sngl,resources/DR.BMP,resources/Empty.png,WildCard_Ex,-0.403809524,0.002857143,1,0,0,0.7812,optionLeft,95,6535,3,39,0,39,0,1,,,,,,,,,,,,,,,,,,,,,,,,,,,,,,,,,,,,,,,
,,,,,,,,2023-08-16_08h47.54.554,HF_wild_card,2022.2.4,Win32,11.99529784,64135e5651180cd4c2843e4f,64d2fd46c836a06233681665,64dc7effd5690df31c4e5738,,,,,,,decisionTrl,resources/DP.BMP,resources/DB.BMP,Door3,-0.383809524,0.007619048,1,0,0,2.2281,optionLeft,70,6605,3,40,0,40,0,1,,,,,,,,,,,,,,,,,,,,,,,,,,,,,,,,,,,,,,,
,,,,,,,,2023-08-16_08h47.54.554,HF_wild_card,2022.2.4,Win32,11.99529784,64135e5651180cd4c2843e4f,64d2fd46c836a06233681665,64dc7effd5690df31c4e5738,,,,,,,decisionTrl,resources/DR.BMP,resources/DBN.BMP,WildCard_Ex,-0.412380952,-0.05047619,1,0,0,1.9839,optionLeft,5,6610,3,41,0,41,0,1,,,,,,,,,,,,,,,,,,,,,,,,,,,,,,,,,,,,,,,
,,,,,,,,2023-08-16_08h47.54.554,HF_wild_card,2022.2.4,Win32,11.99529784,64135e5651180cd4c2843e4f,64d2fd46c836a06233681665,64dc7effd5690df31c4e5738,,,,,,,decisionTrl,resources/DP.BMP,resources/DB.BMP,Door3,-0.413333333,0.000952381,1,0,0,2.9272,optionLeft,70,6680,3,42,0,42,0,1,,,,,,,,,,,,,,,,,,,,,,,,,,,,,,,,,,,,,,,
,,,,,,,,2023-08-16_08h47.54.554,HF_wild_card,2022.2.4,Win32,11.99529784,64135e5651180cd4c2843e4f,64d2fd46c836a06233681665,64dc7effd5690df31c4e5738,,,,,,,decisionTrl,resources/DP.BMP,resources/DB.BMP,Door3,-0.378095238,0.002857143,1,0,0,0.7259,optionLeft,70,6750,3,43,0,43,0,1,,,,,,,,,,,,,,,,,,,,,,,,,,,,,,,,,,,,,,,
,,,,,,,,2023-08-16_08h47.54.554,HF_wild_card,2022.2.4,Win32,11.99529784,64135e5651180cd4c2843e4f,64d2fd46c836a06233681665,64dc7effd5690df31c4e5738,,,,,,,,,,,,,,,,,,,,,,,,,,2,0,2,0,1,,,,,,,,,,,,,,,,,,,,,,,,,,,,,,,,,,
,,,,,,,,2023-08-16_08h47.54.554,HF_wild_card,2022.2.4,Win32,11.99529784,64135e5651180cd4c2843e4f,64d2fd46c836a06233681665,64dc7effd5690df31c4e5738,,,,,,,sngl,resources/Empty.png,resources/DBN.BMP,Door2,0.400952381,0.000952381,1,0,0,1.2988,optionRight,40,6790,4,0,0,0,0,1,,,,,,,,,,,,,,,,,,,,,,,,,,,,,,,,,,,,,,,
,,,,,,,,2023-08-16_08h47.54.554,HF_wild_card,2022.2.4,Win32,11.99529784,64135e5651180cd4c2843e4f,64d2fd46c836a06233681665,64dc7effd5690df31c4e5738,,,,,,,decisionTrl,resources/DP.BMP,resources/DB.BMP,Door3,-0.377142857,0,1,0,0,1.3943,optionLeft,70,6860,4,1,0,1,0,1,,,,,,,,,,,,,,,,,,,,,,,,,,,,,,,,,,,,,,,
,,,,,,,,2023-08-16_08h47.54.554,HF_wild_card,2022.2.4,Win32,11.99529784,64135e5651180cd4c2843e4f,64d2fd46c836a06233681665,64dc7effd5690df31c4e5738,,,,,,,sngl,resources/Empty.png,resources/DY.BMP,Door1,0.418095238,0.035238095,1,0,0,1.5241,optionRight,30,6890,4,2,0,2,0,1,,,,,,,,,,,,,,,,,,,,,,,,,,,,,,,,,,,,,,,
,,,,,,,,2023-08-16_08h47.54.554,HF_wild_card,2022.2.4,Win32,11.99529784,64135e5651180cd4c2843e4f,64d2fd46c836a06233681665,64dc7effd5690df31c4e5738,,,,,,,sngl,resources/DY.BMP,resources/Empty.png,Door1,-0.378095238,0.040952381,1,0,0,0.6612,optionLeft,30,6920,4,3,0,3,0,1,,,,,,,,,,,,,,,,,,,,,,,,,,,,,,,,,,,,,,,
,,,,,,,,2023-08-16_08h47.54.554,HF_wild_card,2022.2.4,Win32,11.99529784,64135e5651180cd4c2843e4f,64d2fd46c836a06233681665,64dc7effd5690df31c4e5738,,,,,,,decisionTrl,resources/DB.BMP,resources/DP.BMP,Door4,-0.406666667,-0.026666667,1,0,0,0.8419,optionLeft,60,6980,4,4,0,4,0,1,,,,,,,,,,,,,,,,,,,,,,,,,,,,,,,,,,,,,,,
,,,,,,,,2023-08-16_08h47.54.554,HF_wild_card,2022.2.4,Win32,11.99529784,64135e5651180cd4c2843e4f,64d2fd46c836a06233681665,64dc7effd5690df31c4e5738,,,,,,,decisionTrl,resources/DB.BMP,resources/DG.BMP,WildCard_NonEx,0.441904762,-0.004761905,1,0,0,1.1973,optionRight,55,7035,4,5,0,5,0,1,,,,,,,,,,,,,,,,,,,,,,,,,,,,,,,,,,,,,,,
,,,,,,,,2023-08-16_08h47.54.554,HF_wild_card,2022.2.4,Win32,11.99529784,64135e5651180cd4c2843e4f,64d2fd46c836a06233681665,64dc7effd5690df31c4e5738,,,,,,,sngl,resources/Empty.png,resources/DG.BMP,WildCard_NonEx,0.402857143,0.016190476,1,0,0,0.7544,optionRight,45,7080,4,6,0,6,0,1,,,,,,,,,,,,,,,,,,,,,,,,,,,,,,,,,,,,,,,
,,,,,,,,2023-08-16_08h47.54.554,HF_wild_card,2022.2.4,Win32,11.99529784,64135e5651180cd4c2843e4f,64d2fd46c836a06233681665,64dc7effd5690df31c4e5738,,,,,,,decisionTrl,resources/DY.BMP,resources/DBN.BMP,Door1,-0.383809524,0.04952381,1,0,0,2.5134,optionLeft,30,7110,4,7,0,7,0,1,,,,,,,,,,,,,,,,,,,,,,,,,,,,,,,,,,,,,,,
,,,,,,,,2023-08-16_08h47.54.554,HF_wild_card,2022.2.4,Win32,11.99529784,64135e5651180cd4c2843e4f,64d2fd46c836a06233681665,64dc7effd5690df31c4e5738,,,,,,,decisionTrl,resources/DY.BMP,resources/DBN.BMP,Door1,-0.385714286,-0.01047619,1,0,0,3.8093,optionLeft,30,7140,4,8,0,8,0,1,,,,,,,,,,,,,,,,,,,,,,,,,,,,,,,,,,,,,,,
,,,,,,,,2023-08-16_08h47.54.554,HF_wild_card,2022.2.4,Win32,11.99529784,64135e5651180cd4c2843e4f,64d2fd46c836a06233681665,64dc7effd5690df31c4e5738,,,,,,,sngl,resources/DG.BMP,resources/Empty.png,WildCard_NonEx,-0.378095238,0.032380952,1,0,0,1.3014,optionLeft,45,7185,4,9,0,9,0,1,,,,,,,,,,,,,,,,,,,,,,,,,,,,,,,,,,,,,,,
,,,,,,,,2023-08-16_08h47.54.554,HF_wild_card,2022.2.4,Win32,11.99529784,64135e5651180cd4c2843e4f,64d2fd46c836a06233681665,64dc7effd5690df31c4e5738,,,,,,,decisionTrl,resources/DY.BMP,resources/DG.BMP,WildCard_NonEx,0.439047619,-0.027619048,1,0,0,0.8568,optionRight,55,7240,4,10,0,10,0,1,,,,,,,,,,,,,,,,,,,,,,,,,,,,,,,,,,,,,,,
,,,,,,,,2023-08-16_08h47.54.554,HF_wild_card,2022.2.4,Win32,11.99529784,64135e5651180cd4c2843e4f,64d2fd46c836a06233681665,64dc7effd5690df31c4e5738,,,,,,,ctch,resources/DB.BMP,resources/DY.BMP,Door4,-0.419047619,-0.040952381,1,0,0,11.066,optionLeft,80,7320,4,11,0,11,0,1,,,,,,,,,,,,,,,,,,,,,,,,,,,,,,,,,,,,,,,
,,,,,,,,2023-08-16_08h47.54.554,HF_wild_card,2022.2.4,Win32,11.99529784,64135e5651180cd4c2843e4f,64d2fd46c836a06233681665,64dc7effd5690df31c4e5738,,,,,,,decisionTrl,resources/DB.BMP,resources/DP.BMP,Door3,0.545714286,0.01047619,1,0,0,1.806,optionRight,70,7390,4,12,0,12,0,1,,,,,,,,,,,,,,,,,,,,,,,,,,,,,,,,,,,,,,,
,,,,,,,,2023-08-16_08h47.54.554,HF_wild_card,2022.2.4,Win32,11.99529784,64135e5651180cd4c2843e4f,64d2fd46c836a06233681665,64dc7effd5690df31c4e5738,,,,,,,decisionTrl,resources/DG.BMP,resources/DY.BMP,WildCard_NonEx,-0.338095238,-0.016190476,1,0,0,0.7564,optionLeft,55,7445,4,13,0,13,0,1,,,,,,,,,,,,,,,,,,,,,,,,,,,,,,,,,,,,,,,
,,,,,,,,2023-08-16_08h47.54.554,HF_wild_card,2022.2.4,Win32,11.99529784,64135e5651180cd4c2843e4f,64d2fd46c836a06233681665,64dc7effd5690df31c4e5738,,,,,,,ctch,resources/DP.BMP,resources/DBN.BMP,Door3,-0.285033365,0.030981888,1,0,0,8.7843,optionLeft,70,7515,4,14,0,14,0,1,,,,,,,,,,,,,,,,,,,,,,,,,,,,,,,,,,,,,,,
,,,,,,,,2023-08-16_08h47.54.554,HF_wild_card,2022.2.4,Win32,11.99529784,64135e5651180cd4c2843e4f,64d2fd46c836a06233681665,64dc7effd5690df31c4e5738,,,,,,,sngl,resources/Empty.png,resources/DP.BMP,Door3,0.376190476,-0.017142857,1,0,0,0.6603,optionRight,70,7585,4,15,0,15,0,1,,,,,,,,,,,,,,,,,,,,,,,,,,,,,,,,,,,,,,,
,,,,,,,,2023-08-16_08h47.54.554,HF_wild_card,2022.2.4,Win32,11.99529784,64135e5651180cd4c2843e4f,64d2fd46c836a06233681665,64dc7effd5690df31c4e5738,,,,,,,sngl,resources/DG.BMP,resources/Empty.png,WildCard_NonEx,-0.353333333,0.020952381,1,0,0,1.2334,optionLeft,55,7640,4,16,0,16,0,1,,,,,,,,,,,,,,,,,,,,,,,,,,,,,,,,,,,,,,,
,,,,,,,,2023-08-16_08h47.54.554,HF_wild_card,2022.2.4,Win32,11.99529784,64135e5651180cd4c2843e4f,64d2fd46c836a06233681665,64dc7effd5690df31c4e5738,,,,,,,decisionTrl,resources/DP.BMP,resources/DB.BMP,Door4,0.267619048,0.046666667,1,0,0,1.2366,optionRight,60,7700,4,17,0,17,0,1,,,,,,,,,,,,,,,,,,,,,,,,,,,,,,,,,,,,,,,
,,,,,,,,2023-08-16_08h47.54.554,HF_wild_card,2022.2.4,Win32,11.99529784,64135e5651180cd4c2843e4f,64d2fd46c836a06233681665,64dc7effd5690df31c4e5738,,,,,,,sngl,resources/DB.BMP,resources/Empty.png,Door4,0.343809524,-0.008571429,1,0,0,1.6358,optionLeft,60,7760,4,18,0,18,0,1,,,,,,,,,,,,,,,,,,,,,,,,,,,,,,,,,,,,,,,
,,,,,,,,2023-08-16_08h47.54.554,HF_wild_card,2022.2.4,Win32,11.99529784,64135e5651180cd4c2843e4f,64d2fd46c836a06233681665,64dc7effd5690df31c4e5738,,,,,,,ctch,resources/DY.BMP,resources/DB.BMP,Door1,-0.384761905,0.037142857,1,0,0,1.7886,optionLeft,30,7790,4,19,0,19,0,1,,,,,,,,,,,,,,,,,,,,,,,,,,,,,,,,,,,,,,,
,,,,,,,,2023-08-16_08h47.54.554,HF_wild_card,2022.2.4,Win32,11.99529784,64135e5651180cd4c2843e4f,64d2fd46c836a06233681665,64dc7effd5690df31c4e5738,,,,,,,decisionTrl,resources/DP.BMP,resources/DG.BMP,Door3,-0.375238095,0.00952381,1,0,0,2.942,optionLeft,70,7860,4,20,0,20,0,1,,,,,,,,,,,,,,,,,,,,,,,,,,,,,,,,,,,,,,,
,,,,,,,,2023-08-16_08h47.54.554,HF_wild_card,2022.2.4,Win32,11.99529784,64135e5651180cd4c2843e4f,64d2fd46c836a06233681665,64dc7effd5690df31c4e5738,,,,,,,decisionTrl,resources/DG.BMP,resources/DBN.BMP,WildCard_NonEx,-0.36952381,0.027619048,1,0,0,1.4827,optionLeft,45,7905,4,21,0,21,0,1,,,,,,,,,,,,,,,,,,,,,,,,,,,,,,,,,,,,,,,
,,,,,,,,2023-08-16_08h47.54.554,HF_wild_card,2022.2.4,Win32,11.99529784,64135e5651180cd4c2843e4f,64d2fd46c836a06233681665,64dc7effd5690df31c4e5738,,,,,,,ctch,resources/DY.BMP,resources/DB.BMP,Door1,-0.396190476,-0.037142857,1,0,0,1.0814,optionLeft,30,7935,4,22,0,22,0,1,,,,,,,,,,,,,,,,,,,,,,,,,,,,,,,,,,,,,,,
,,,,,,,,2023-08-16_08h47.54.554,HF_wild_card,2022.2.4,Win32,11.99529784,64135e5651180cd4c2843e4f,64d2fd46c836a06233681665,64dc7effd5690df31c4e5738,,,,,,,sngl,resources/Empty.png,resources/DG.BMP,WildCard_NonEx,0.405714286,-0.096190476,1,0,0,2.3832,optionRight,55,7990,4,23,0,23,0,1,,,,,,,,,,,,,,,,,,,,,,,,,,,,,,,,,,,,,,,
,,,,,,,,2023-08-16_08h47.54.554,HF_wild_card,2022.2.4,Win32,11.99529784,64135e5651180cd4c2843e4f,64d2fd46c836a06233681665,64dc7effd5690df31c4e5738,,,,,,,decisionTrl,resources/DB.BMP,resources/DP.BMP,Door3,0.374285714,-0.046666667,1,0,0,0.6216,optionRight,70,8060,4,24,0,24,0,1,,,,,,,,,,,,,,,,,,,,,,,,,,,,,,,,,,,,,,,
,,,,,,,,2023-08-16_08h47.54.554,HF_wild_card,2022.2.4,Win32,11.99529784,64135e5651180cd4c2843e4f,64d2fd46c836a06233681665,64dc7effd5690df31c4e5738,,,,,,,decisionTrl,resources/DY.BMP,resources/DBN.BMP,Door2,0.387619048,-0.012380952,1,0,0,1.3786,optionRight,20,8080,4,25,0,25,0,1,,,,,,,,,,,,,,,,,,,,,,,,,,,,,,,,,,,,,,,
,,,,,,,,2023-08-16_08h47.54.554,HF_wild_card,2022.2.4,Win32,11.99529784,64135e5651180cd4c2843e4f,64d2fd46c836a06233681665,64dc7effd5690df31c4e5738,,,,,,,ctch,resources/DP.BMP,resources/DBN.BMP,Door3,-0.401904762,0,1,0,0,0.7156,optionLeft,70,8150,4,26,0,26,0,1,,,,,,,,,,,,,,,,,,,,,,,,,,,,,,,,,,,,,,,
,,,,,,,,2023-08-16_08h47.54.554,HF_wild_card,2022.2.4,Win32,11.99529784,64135e5651180cd4c2843e4f,64d2fd46c836a06233681665,64dc7effd5690df31c4e5738,,,,,,,sngl,resources/Empty.png,resources/DB.BMP,Door4,0.436190476,0.005714286,1,0,0,0.6457,optionRight,80,8230,4,27,0,27,0,1,,,,,,,,,,,,,,,,,,,,,,,,,,,,,,,,,,,,,,,
,,,,,,,,2023-08-16_08h47.54.554,HF_wild_card,2022.2.4,Win32,11.99529784,64135e5651180cd4c2843e4f,64d2fd46c836a06233681665,64dc7effd5690df31c4e5738,,,,,,,decisionTrl,resources/DB.BMP,resources/DP.BMP,Door4,-0.416190476,-0.018095238,1,0,0,0.7244,optionLeft,60,8290,4,28,0,28,0,1,,,,,,,,,,,,,,,,,,,,,,,,,,,,,,,,,,,,,,,
,,,,,,,,2023-08-16_08h47.54.554,HF_wild_card,2022.2.4,Win32,11.99529784,64135e5651180cd4c2843e4f,64d2fd46c836a06233681665,64dc7effd5690df31c4e5738,,,,,,,ctch,resources/DBN.BMP,resources/DP.BMP,Door3,0.356190476,-0.024761905,1,0,0,0.6029,optionRight,70,8360,4,29,0,29,0,1,,,,,,,,,,,,,,,,,,,,,,,,,,,,,,,,,,,,,,,
,,,,,,,,2023-08-16_08h47.54.554,HF_wild_card,2022.2.4,Win32,11.99529784,64135e5651180cd4c2843e4f,64d2fd46c836a06233681665,64dc7effd5690df31c4e5738,,,,,,,decisionTrl,resources/DBN.BMP,resources/DY.BMP,Door1,0.363809524,-0.026666667,1,0,0,1.2034,optionRight,30,8390,4,30,0,30,0,1,,,,,,,,,,,,,,,,,,,,,,,,,,,,,,,,,,,,,,,
,,,,,,,,2023-08-16_08h47.54.554,HF_wild_card,2022.2.4,Win32,11.99529784,64135e5651180cd4c2843e4f,64d2fd46c836a06233681665,64dc7effd5690df31c4e5738,,,,,,,decisionTrl,resources/DP.BMP,resources/DB.BMP,Door3,-0.394285714,-0.037142857,1,0,0,1.3505,optionLeft,70,8460,4,31,0,31,0,1,,,,,,,,,,,,,,,,,,,,,,,,,,,,,,,,,,,,,,,
,,,,,,,,2023-08-16_08h47.54.554,HF_wild_card,2022.2.4,Win32,11.99529784,64135e5651180cd4c2843e4f,64d2fd46c836a06233681665,64dc7effd5690df31c4e5738,,,,,,,decisionTrl,resources/DP.BMP,resources/DB.BMP,Door3,-0.385714286,0,1,0,0,2.6432,optionLeft,70,8530,4,32,0,32,0,1,,,,,,,,,,,,,,,,,,,,,,,,,,,,,,,,,,,,,,,
,,,,,,,,2023-08-16_08h47.54.554,HF_wild_card,2022.2.4,Win32,11.99529784,64135e5651180cd4c2843e4f,64d2fd46c836a06233681665,64dc7effd5690df31c4e5738,,,,,,,sngl,resources/DBN.BMP,resources/Empty.png,Door2,-0.407619048,0.19047619,1,0,0,1.7416,optionLeft,20,8550,4,33,0,33,0,1,,,,,,,,,,,,,,,,,,,,,,,,,,,,,,,,,,,,,,,
,,,,,,,,2023-08-16_08h47.54.554,HF_wild_card,2022.2.4,Win32,11.99529784,64135e5651180cd4c2843e4f,64d2fd46c836a06233681665,64dc7effd5690df31c4e5738,,,,,,,ctch,resources/DB.BMP,resources/DY.BMP,Door4,-0.422857143,-0.04952381,1,0,0,2.9202,optionLeft,80,8630,4,34,0,34,0,1,,,,,,,,,,,,,,,,,,,,,,,,,,,,,,,,,,,,,,,
,,,,,,,,2023-08-16_08h47.54.554,HF_wild_card,2022.2.4,Win32,11.99529784,64135e5651180cd4c2843e4f,64d2fd46c836a06233681665,64dc7effd5690df31c4e5738,,,,,,,decisionTrl,resources/DY.BMP,resources/DBN.BMP,Door2,0.460952381,-0.03047619,1,0,0,1.332,optionRight,40,8670,4,35,0,35,0,1,,,,,,,,,,,,,,,,,,,,,,,,,,,,,,,,,,,,,,,
,,,,,,,,2023-08-16_08h47.54.554,HF_wild_card,2022.2.4,Win32,11.99529784,64135e5651180cd4c2843e4f,64d2fd46c836a06233681665,64dc7effd5690df31c4e5738,,,,,,,decisionTrl,resources/DG.BMP,resources/DP.BMP,Door3,0.356190476,-0.026666667,1,0,0,1.2187,optionRight,70,8740,4,36,0,36,0,1,,,,,,,,,,,,,,,,,,,,,,,,,,,,,,,,,,,,,,,
,,,,,,,,2023-08-16_08h47.54.554,HF_wild_card,2022.2.4,Win32,11.99529784,64135e5651180cd4c2843e4f,64d2fd46c836a06233681665,64dc7effd5690df31c4e5738,,,,,,,decisionTrl,resources/DG.BMP,resources/DB.BMP,Door4,0.44952381,-0.054285714,1,0,0,0.9723,optionRight,60,8800,4,37,0,37,0,1,,,,,,,,,,,,,,,,,,,,,,,,,,,,,,,,,,,,,,,
,,,,,,,,2023-08-16_08h47.54.554,HF_wild_card,2022.2.4,Win32,11.99529784,64135e5651180cd4c2843e4f,64d2fd46c836a06233681665,64dc7effd5690df31c4e5738,,,,,,,decisionTrl,resources/DBN.BMP,resources/DY.BMP,Door1,0.36952381,-0.05047619,1,0,0,0.9742,optionRight,30,8830,4,38,0,38,0,1,,,,,,,,,,,,,,,,,,,,,,,,,,,,,,,,,,,,,,,
,,,,,,,,2023-08-16_08h47.54.554,HF_wild_card,2022.2.4,Win32,11.99529784,64135e5651180cd4c2843e4f,64d2fd46c836a06233681665,64dc7effd5690df31c4e5738,,,,,,,decisionTrl,resources/DBN.BMP,resources/DY.BMP,Door1,0.326666667,-0.043809524,1,0,0,0.9609,optionRight,30,8860,4,39,0,39,0,1,,,,,,,,,,,,,,,,,,,,,,,,,,,,,,,,,,,,,,,
,,,,,,,,2023-08-16_08h47.54.554,HF_wild_card,2022.2.4,Win32,11.99529784,64135e5651180cd4c2843e4f,64d2fd46c836a06233681665,64dc7effd5690df31c4e5738,,,,,,,decisionTrl,resources/DBN.BMP,resources/DG.BMP,WildCard_NonEx,0.448571429,0.01047619,1,0,0,0.7559,optionRight,45,8905,4,40,0,40,0,1,,,,,,,,,,,,,,,,,,,,,,,,,,,,,,,,,,,,,,,
,,,,,,,,2023-08-16_08h47.54.554,HF_wild_card,2022.2.4,Win32,11.99529784,64135e5651180cd4c2843e4f,64d2fd46c836a06233681665,64dc7effd5690df31c4e5738,,,,,,,ctch,resources/DBN.BMP,resources/DP.BMP,Door3,0.40952381,0.014285714,1,0,0,2.7277,optionRight,70,8975,4,41,0,41,0,1,,,,,,,,,,,,,,,,,,,,,,,,,,,,,,,,,,,,,,,
,,,,,,,,2023-08-16_08h47.54.554,HF_wild_card,2022.2.4,Win32,11.99529784,64135e5651180cd4c2843e4f,64d2fd46c836a06233681665,64dc7effd5690df31c4e5738,,,,,,,sngl,resources/DP.BMP,resources/Empty.png,Door3,-0.383809524,0.008571429,1,0,0,2.4844,optionLeft,70,9045,4,42,0,42,0,1,,,,,,,,,,,,,,,,,,,,,,,,,,,,,,,,,,,,,,,
,,,,,,,,2023-08-16_08h47.54.554,HF_wild_card,2022.2.4,Win32,11.99529784,64135e5651180cd4c2843e4f,64d2fd46c836a06233681665,64dc7effd5690df31c4e5738,,,,,,,decisionTrl,resources/DBN.BMP,resources/DY.BMP,Door1,0.394285714,-0.025714286,1,0,0,0.849,optionRight,30,9075,4,43,0,43,0,1,,,,,,,,,,,,,,,,,,,,,,,,,,,,,,,,,,,,,,,
,,,,,,,,2023-08-16_08h47.54.554,HF_wild_card,2022.2.4,Win32,11.99529784,64135e5651180cd4c2843e4f,64d2fd46c836a06233681665,64dc7effd5690df31c4e5738,,,,,,,,,,,,,,,,,,,,,,,,,,3,0,3,0,1,,,,,,,,,,,,,,,,,,,,,,,,,,,,,,,,,,
,,,,,,,,2023-08-16_08h47.54.554,HF_wild_card,2022.2.4,Win32,11.99529784,64135e5651180cd4c2843e4f,64d2fd46c836a06233681665,64dc7effd5690df31c4e5738,,,,,,,decisionTrl,resources/DB.BMP,resources/DG.BMP,Door4,-0.419047619,-0.04,1,0,0,1.9286,optionLeft,80,9155,5,0,0,0,0,1,,,,,,,,,,,,,,,,,,,,,,,,,,,,,,,,,,,,,,,
,,,,,,,,2023-08-16_08h47.54.554,HF_wild_card,2022.2.4,Win32,11.99529784,64135e5651180cd4c2843e4f,64d2fd46c836a06233681665,64dc7effd5690df31c4e5738,,,,,,,decisionTrl,resources/DY.BMP,resources/DBN.BMP,Door2,0.40952381,0.019047619,1,0,0,1.7065,optionRight,40,9195,5,1,0,1,0,1,,,,,,,,,,,,,,,,,,,,,,,,,,,,,,,,,,,,,,,
,,,,,,,,2023-08-16_08h47.54.554,HF_wild_card,2022.2.4,Win32,11.99529784,64135e5651180cd4c2843e4f,64d2fd46c836a06233681665,64dc7effd5690df31c4e5738,,,,,,,sngl,resources/Empty.png,resources/DP.BMP,Door3,0.417142857,0.007619048,1,0,0,1.9527,optionRight,70,9265,5,2,0,2,0,1,,,,,,,,,,,,,,,,,,,,,,,,,,,,,,,,,,,,,,,
,,,,,,,,2023-08-16_08h47.54.554,HF_wild_card,2022.2.4,Win32,11.99529784,64135e5651180cd4c2843e4f,64d2fd46c836a06233681665,64dc7effd5690df31c4e5738,,,,,,,decisionTrl,resources/DB.BMP,resources/DP.BMP,Door4,-0.368571429,-0.071428571,1,0,0,0.9113,optionLeft,60,9325,5,3,0,3,0,1,,,,,,,,,,,,,,,,,,,,,,,,,,,,,,,,,,,,,,,
,,,,,,,,2023-08-16_08h47.54.554,HF_wild_card,2022.2.4,Win32,11.99529784,64135e5651180cd4c2843e4f,64d2fd46c836a06233681665,64dc7effd5690df31c4e5738,,,,,,,ctch,resources/DP.BMP,resources/DBN.BMP,Door3,-0.402857143,-0.017142857,1,0,0,1.3598,optionLeft,70,9395,5,4,0,4,0,1,,,,,,,,,,,,,,,,,,,,,,,,,,,,,,,,,,,,,,,
,,,,,,,,2023-08-16_08h47.54.554,HF_wild_card,2022.2.4,Win32,11.99529784,64135e5651180cd4c2843e4f,64d2fd46c836a06233681665,64dc7effd5690df31c4e5738,,,,,,,decisionTrl,resources/DBN.BMP,resources/DY.BMP,Door1,0.419047619,0.022857143,1,0,0,2.212,optionRight,30,9425,5,5,0,5,0,1,,,,,,,,,,,,,,,,,,,,,,,,,,,,,,,,,,,,,,,
,,,,,,,,2023-08-16_08h47.54.554,HF_wild_card,2022.2.4,Win32,11.99529784,64135e5651180cd4c2843e4f,64d2fd46c836a06233681665,64dc7effd5690df31c4e5738,,,,,,,decisionTrl,resources/DY.BMP,resources/DG.BMP,WildCard_NonEx,0.421904762,0.033333333,1,0,0,1.9641,optionRight,55,9480,5,6,0,6,0,1,,,,,,,,,,,,,,,,,,,,,,,,,,,,,,,,,,,,,,,
,,,,,,,,2023-08-16_08h47.54.554,HF_wild_card,2022.2.4,Win32,11.99529784,64135e5651180cd4c2843e4f,64d2fd46c836a06233681665,64dc7effd5690df31c4e5738,,,,,,,sngl,resources/DY.BMP,resources/Empty.png,Door1,-0.406666667,0.045714286,1,0,0,1.3008,optionLeft,30,9510,5,7,0,7,0,1,,,,,,,,,,,,,,,,,,,,,,,,,,,,,,,,,,,,,,,
,,,,,,,,2023-08-16_08h47.54.554,HF_wild_card,2022.2.4,Win32,11.99529784,64135e5651180cd4c2843e4f,64d2fd46c836a06233681665,64dc7effd5690df31c4e5738,,,,,,,decisionTrl,resources/DG.BMP,resources/DP.BMP,Door3,0.407619048,-0.04,1,0,0,2.8165,optionRight,70,9580,5,8,0,8,0,1,,,,,,,,,,,,,,,,,,,,,,,,,,,,,,,,,,,,,,,
,,,,,,,,2023-08-16_08h47.54.554,HF_wild_card,2022.2.4,Win32,11.99529784,64135e5651180cd4c2843e4f,64d2fd46c836a06233681665,64dc7effd5690df31c4e5738,,,,,,,decisionTrl,resources/DY.BMP,resources/DBN.BMP,Door1,-0.39047619,0.044761905,1,0,0,1.9627,optionLeft,30,9610,5,9,0,9,0,1,,,,,,,,,,,,,,,,,,,,,,,,,,,,,,,,,,,,,,,
,,,,,,,,2023-08-16_08h47.54.554,HF_wild_card,2022.2.4,Win32,11.99529784,64135e5651180cd4c2843e4f,64d2fd46c836a06233681665,64dc7effd5690df31c4e5738,,,,,,,decisionTrl,resources/DG.BMP,resources/DBN.BMP,WildCard_NonEx,-0.392380952,0.031428571,1,0,0,1.9296,optionLeft,45,9655,5,10,0,10,0,1,,,,,,,,,,,,,,,,,,,,,,,,,,,,,,,,,,,,,,,
,,,,,,,,2023-08-16_08h47.54.554,HF_wild_card,2022.2.4,Win32,11.99529784,64135e5651180cd4c2843e4f,64d2fd46c836a06233681665,64dc7effd5690df31c4e5738,,,,,,,ctch,resources/DB.BMP,resources/DY.BMP,Door4,-0.440952381,0.025714286,1,0,0,1.7059,optionLeft,80,9735,5,11,0,11,0,1,,,,,,,,,,,,,,,,,,,,,,,,,,,,,,,,,,,,,,,
,,,,,,,,2023-08-16_08h47.54.554,HF_wild_card,2022.2.4,Win32,11.99529784,64135e5651180cd4c2843e4f,64d2fd46c836a06233681665,64dc7effd5690df31c4e5738,,,,,,,sngl,resources/Empty.png,resources/DG.BMP,WildCard_NonEx,0.442857143,0.04952381,1,0,0,0.6466,optionRight,55,9790,5,12,0,12,0,1,,,,,,,,,,,,,,,,,,,,,,,,,,,,,,,,,,,,,,,
,,,,,,,,2023-08-16_08h47.54.554,HF_wild_card,2022.2.4,Win32,11.99529784,64135e5651180cd4c2843e4f,64d2fd46c836a06233681665,64dc7effd5690df31c4e5738,,,,,,,sngl,resources/DBN.BMP,resources/Empty.png,Door2,-0.362857143,0.037142857,1,0,0,1.2254,optionLeft,40,9830,5,13,0,13,0,1,,,,,,,,,,,,,,,,,,,,,,,,,,,,,,,,,,,,,,,
,,,,,,,,2023-08-16_08h47.54.554,HF_wild_card,2022.2.4,Win32,11.99529784,64135e5651180cd4c2843e4f,64d2fd46c836a06233681665,64dc7effd5690df31c4e5738,,,,,,,decisionTrl,resources/DY.BMP,resources/DBN.BMP,Door2,0.382857143,0.023809524,1,0,0,1.5785,optionRight,40,9870,5,14,0,14,0,1,,,,,,,,,,,,,,,,,,,,,,,,,,,,,,,,,,,,,,,
,,,,,,,,2023-08-16_08h47.54.554,HF_wild_card,2022.2.4,Win32,11.99529784,64135e5651180cd4c2843e4f,64d2fd46c836a06233681665,64dc7effd5690df31c4e5738,,,,,,,sngl,resources/Empty.png,resources/DY.BMP,Door1,0.400952381,0.05047619,1,0,0,1.9553,optionRight,30,9900,5,15,0,15,0,1,,,,,,,,,,,,,,,,,,,,,,,,,,,,,,,,,,,,,,,
,,,,,,,,2023-08-16_08h47.54.554,HF_wild_card,2022.2.4,Win32,11.99529784,64135e5651180cd4c2843e4f,64d2fd46c836a06233681665,64dc7effd5690df31c4e5738,,,,,,,decisionTrl,resources/DG.BMP,resources/DB.BMP,Door4,0.378095238,-0.041904762,1,0,0,2.7284,optionRight,60,9960,5,16,0,16,0,1,,,,,,,,,,,,,,,,,,,,,,,,,,,,,,,,,,,,,,,
,,,,,,,,2023-08-16_08h47.54.554,HF_wild_card,2022.2.4,Win32,11.99529784,64135e5651180cd4c2843e4f,64d2fd46c836a06233681665,64dc7effd5690df31c4e5738,,,,,,,sngl,resources/Empty.png,resources/DB.BMP,Door4,0.386666667,-0.042857143,1,0,0,3.2691,optionRight,60,10020,5,17,0,17,0,1,,,,,,,,,,,,,,,,,,,,,,,,,,,,,,,,,,,,,,,
,,,,,,,,2023-08-16_08h47.54.554,HF_wild_card,2022.2.4,Win32,11.99529784,64135e5651180cd4c2843e4f,64d2fd46c836a06233681665,64dc7effd5690df31c4e5738,,,,,,,decisionTrl,resources/DBN.BMP,resources/DG.BMP,WildCard_NonEx,0.308571429,0.011428571,1,0,0,3.9174,optionRight,55,10075,5,18,0,18,0,1,,,,,,,,,,,,,,,,,,,,,,,,,,,,,,,,,,,,,,,
,,,,,,,,2023-08-16_08h47.54.554,HF_wild_card,2022.2.4,Win32,11.99529784,64135e5651180cd4c2843e4f,64d2fd46c836a06233681665,64dc7effd5690df31c4e5738,,,,,,,decisionTrl,resources/DBN.BMP,resources/DY.BMP,Door2,-0.40952381,0.058095238,1,0,0,4.2804,optionLeft,40,10115,5,19,0,19,0,1,,,,,,,,,,,,,,,,,,,,,,,,,,,,,,,,,,,,,,,
,,,,,,,,2023-08-16_08h47.54.554,HF_wild_card,2022.2.4,Win32,11.99529784,64135e5651180cd4c2843e4f,64d2fd46c836a06233681665,64dc7effd5690df31c4e5738,,,,,,,ctch,resources/DY.BMP,resources/DB.BMP,Door4,0.371428571,-0.045714286,1,0,0,2.2808,optionRight,80,10195,5,20,0,20,0,1,,,,,,,,,,,,,,,,,,,,,,,,,,,,,,,,,,,,,,,
,,,,,,,,2023-08-16_08h47.54.554,HF_wild_card,2022.2.4,Win32,11.99529784,64135e5651180cd4c2843e4f,64d2fd46c836a06233681665,64dc7effd5690df31c4e5738,,,,,,,decisionTrl,resources/DB.BMP,resources/DP.BMP,Door4,-0.405714286,-0.015238095,1,0,0,0.8593,optionLeft,60,10255,5,21,0,21,0,1,,,,,,,,,,,,,,,,,,,,,,,,,,,,,,,,,,,,,,,
,,,,,,,,2023-08-16_08h47.54.554,HF_wild_card,2022.2.4,Win32,11.99529784,64135e5651180cd4c2843e4f,64d2fd46c836a06233681665,64dc7effd5690df31c4e5738,,,,,,,ctch,resources/DB.BMP,resources/DY.BMP,Door4,-0.420952381,-0.040952381,1,0,0,2.3608,optionLeft,60,10315,5,22,0,22,0,1,,,,,,,,,,,,,,,,,,,,,,,,,,,,,,,,,,,,,,,
,,,,,,,,2023-08-16_08h47.54.554,HF_wild_card,2022.2.4,Win32,11.99529784,64135e5651180cd4c2843e4f,64d2fd46c836a06233681665,64dc7effd5690df31c4e5738,,,,,,,sngl,resources/Empty.png,resources/DG.BMP,WildCard_NonEx,0.439047619,0.007619048,1,0,0,0.7636,optionRight,45,10360,5,23,0,23,0,1,,,,,,,,,,,,,,,,,,,,,,,,,,,,,,,,,,,,,,,
,,,,,,,,2023-08-16_08h47.54.554,HF_wild_card,2022.2.4,Win32,11.99529784,64135e5651180cd4c2843e4f,64d2fd46c836a06233681665,64dc7effd5690df31c4e5738,,,,,,,decisionTrl,resources/DP.BMP,resources/DB.BMP,Door3,-0.367619048,0.011428571,1,0,0,3.5124,optionLeft,70,10430,5,24,0,24,0,1,,,,,,,,,,,,,,,,,,,,,,,,,,,,,,,,,,,,,,,
,,,,,,,,2023-08-16_08h47.54.554,HF_wild_card,2022.2.4,Win32,11.99529784,64135e5651180cd4c2843e4f,64d2fd46c836a06233681665,64dc7effd5690df31c4e5738,,,,,,,decisionTrl,resources/DBN.BMP,resources/DY.BMP,Door2,-0.385714286,0.012380952,1,0,0,2.8207,optionLeft,20,10450,5,25,0,25,0,1,,,,,,,,,,,,,,,,,,,,,,,,,,,,,,,,,,,,,,,
,,,,,,,,2023-08-16_08h47.54.554,HF_wild_card,2022.2.4,Win32,11.99529784,64135e5651180cd4c2843e4f,64d2fd46c836a06233681665,64dc7effd5690df31c4e5738,,,,,,,decisionTrl,resources/DBN.BMP,resources/DY.BMP,Door1,0.425714286,0.005714286,1,0,0,1.5852,optionRight,30,10480,5,26,0,26,0,1,,,,,,,,,,,,,,,,,,,,,,,,,,,,,,,,,,,,,,,
,,,,,,,,2023-08-16_08h47.54.554,HF_wild_card,2022.2.4,Win32,11.99529784,64135e5651180cd4c2843e4f,64d2fd46c836a06233681665,64dc7effd5690df31c4e5738,,,,,,,sngl,resources/DB.BMP,resources/Empty.png,Door4,-0.439047619,-0.036190476,1,0,0,1.4442,optionLeft,80,10560,5,27,0,27,0,1,,,,,,,,,,,,,,,,,,,,,,,,,,,,,,,,,,,,,,,
,,,,,,,,2023-08-16_08h47.54.554,HF_wild_card,2022.2.4,Win32,11.99529784,64135e5651180cd4c2843e4f,64d2fd46c836a06233681665,64dc7effd5690df31c4e5738,,,,,,,sngl,resources/DG.BMP,resources/Empty.png,WildCard_NonEx,-0.366666667,0.028571429,1,0,0,2.4716,optionLeft,45,10605,5,28,0,28,0,1,,,,,,,,,,,,,,,,,,,,,,,,,,,,,,,,,,,,,,,
,,,,,,,,2023-08-16_08h47.54.554,HF_wild_card,2022.2.4,Win32,11.99529784,64135e5651180cd4c2843e4f,64d2fd46c836a06233681665,64dc7effd5690df31c4e5738,,,,,,,decisionTrl,resources/DY.BMP,resources/DBN.BMP,Door2,0.515238095,-0.019047619,1,0,0,0.8776,optionRight,40,10645,5,29,0,29,0,1,,,,,,,,,,,,,,,,,,,,,,,,,,,,,,,,,,,,,,,
,,,,,,,,2023-08-16_08h47.54.554,HF_wild_card,2022.2.4,Win32,11.99529784,64135e5651180cd4c2843e4f,64d2fd46c836a06233681665,64dc7effd5690df31c4e5738,,,,,,,ctch,resources/DBN.BMP,resources/DP.BMP,Door3,0.400952381,0.020952381,1,0,0,2.1812,optionRight,70,10715,5,30,0,30,0,1,,,,,,,,,,,,,,,,,,,,,,,,,,,,,,,,,,,,,,,
,,,,,,,,2023-08-16_08h47.54.554,HF_wild_card,2022.2.4,Win32,11.99529784,64135e5651180cd4c2843e4f,64d2fd46c836a06233681665,64dc7effd5690df31c4e5738,,,,,,,decisionTrl,resources/DP.BMP,resources/DG.BMP,Door3,-0.356190476,-0.006666667,1,0,0,1.5801,optionLeft,70,10785,5,31,0,31,0,1,,,,,,,,,,,,,,,,,,,,,,,,,,,,,,,,,,,,,,,
,,,,,,,,2023-08-16_08h47.54.554,HF_wild_card,2022.2.4,Win32,11.99529784,64135e5651180cd4c2843e4f,64d2fd46c836a06233681665,64dc7effd5690df31c4e5738,,,,,,,sngl,resources/DP.BMP,resources/Empty.png,Door3,-0.392380952,-0.004761905,1,0,0,2.8356,optionLeft,70,10855,5,32,0,32,0,1,,,,,,,,,,,,,,,,,,,,,,,,,,,,,,,,,,,,,,,
,,,,,,,,2023-08-16_08h47.54.554,HF_wild_card,2022.2.4,Win32,11.99529784,64135e5651180cd4c2843e4f,64d2fd46c836a06233681665,64dc7effd5690df31c4e5738,,,,,,,decisionTrl,resources/DP.BMP,resources/DB.BMP,Door3,-0.4,0.008571429,1,0,0,2.7759,optionLeft,70,10925,5,33,0,33,0,1,,,,,,,,,,,,,,,,,,,,,,,,,,,,,,,,,,,,,,,
,,,,,,,,2023-08-16_08h47.54.554,HF_wild_card,2022.2.4,Win32,11.99529784,64135e5651180cd4c2843e4f,64d2fd46c836a06233681665,64dc7effd5690df31c4e5738,,,,,,,sngl,resources/Empty.png,resources/DBN.BMP,Door2,0.393333333,0.003809524,1,0,0,0.8197,optionRight,20,10945,5,34,0,34,0,1,,,,,,,,,,,,,,,,,,,,,,,,,,,,,,,,,,,,,,,
,,,,,,,,2023-08-16_08h47.54.554,HF_wild_card,2022.2.4,Win32,11.99529784,64135e5651180cd4c2843e4f,64d2fd46c836a06233681665,64dc7effd5690df31c4e5738,,,,,,,ctch,resources/DP.BMP,resources/DBN.BMP,Door3,-0.37047619,-0.107619048,1,0,0,2.4028,optionLeft,70,11015,5,35,0,35,0,1,,,,,,,,,,,,,,,,,,,,,,,,,,,,,,,,,,,,,,,
,,,,,,,,2023-08-16_08h47.54.554,HF_wild_card,2022.2.4,Win32,11.99529784,64135e5651180cd4c2843e4f,64d2fd46c836a06233681665,64dc7effd5690df31c4e5738,,,,,,,decisionTrl,resources/DB.BMP,resources/DP.BMP,Door3,0.412380952,-0.004761905,1,0,0,1.1306,optionRight,70,11085,5,36,0,36,0,1,,,,,,,,,,,,,,,,,,,,,,,,,,,,,,,,,,,,,,,
,,,,,,,,2023-08-16_08h47.54.554,HF_wild_card,2022.2.4,Win32,11.99529784,64135e5651180cd4c2843e4f,64d2fd46c836a06233681665,64dc7effd5690df31c4e5738,,,,,,,decisionTrl,resources/DP.BMP,resources/DB.BMP,Door3,-0.40952381,-0.014285714,1,0,0,4.1251,optionLeft,70,11155,5,37,0,37,0,1,,,,,,,,,,,,,,,,,,,,,,,,,,,,,,,,,,,,,,,
,,,,,,,,2023-08-16_08h47.54.554,HF_wild_card,2022.2.4,Win32,11.99529784,64135e5651180cd4c2843e4f,64d2fd46c836a06233681665,64dc7effd5690df31c4e5738,,,,,,,decisionTrl,resources/DP.BMP,resources/DB.BMP,Door3,-0.45047619,-0.097142857,1,0,0,0.8444,optionLeft,70,11225,5,38,0,38,0,1,,,,,,,,,,,,,,,,,,,,,,,,,,,,,,,,,,,,,,,
,,,,,,,,2023-08-16_08h47.54.554,HF_wild_card,2022.2.4,Win32,11.99529784,64135e5651180cd4c2843e4f,64d2fd46c836a06233681665,64dc7effd5690df31c4e5738,,,,,,,decisionTrl,resources/DG.BMP,resources/DY.BMP,WildCard_NonEx,-0.371428571,-0.03047619,1,0,0,2.6923,optionLeft,45,11270,5,39,0,39,0,1,,,,,,,,,,,,,,,,,,,,,,,,,,,,,,,,,,,,,,,
,,,,,,,,2023-08-16_08h47.54.554,HF_wild_card,2022.2.4,Win32,11.99529784,64135e5651180cd4c2843e4f,64d2fd46c836a06233681665,64dc7effd5690df31c4e5738,,,,,,,decisionTrl,resources/DB.BMP,resources/DP.BMP,Door3,0.436190476,-0.008571429,1,0,0,1.3304,optionRight,70,11340,5,40,0,40,0,1,,,,,,,,,,,,,,,,,,,,,,,,,,,,,,,,,,,,,,,
,,,,,,,,2023-08-16_08h47.54.554,HF_wild_card,2022.2.4,Win32,11.99529784,64135e5651180cd4c2843e4f,64d2fd46c836a06233681665,64dc7effd5690df31c4e5738,,,,,,,sngl,resources/DG.BMP,resources/Empty.png,WildCard_NonEx,-0.42,-0.036190476,1,0,0,0.6623,optionLeft,55,11395,5,41,0,41,0,1,,,,,,,,,,,,,,,,,,,,,,,,,,,,,,,,,,,,,,,
,,,,,,,,2023-08-16_08h47.54.554,HF_wild_card,2022.2.4,Win32,11.99529784,64135e5651180cd4c2843e4f,64d2fd46c836a06233681665,64dc7effd5690df31c4e5738,,,,,,,ctch,resources/DY.BMP,resources/DB.BMP,Door4,0.372380952,-0.019047619,1,0,0,1.0232,optionRight,80,11475,5,42,0,42,0,1,,,,,,,,,,,,,,,,,,,,,,,,,,,,,,,,,,,,,,,
,,,,,,,,2023-08-16_08h47.54.554,HF_wild_card,2022.2.4,Win32,11.99529784,64135e5651180cd4c2843e4f,64d2fd46c836a06233681665,64dc7effd5690df31c4e5738,,,,,,,ctch,resources/DBN.BMP,resources/DP.BMP,Door3,0.426666667,0.157142857,1,0,0,4.2108,optionRight,70,11545,5,43,0,43,0,1,,,,,,,,,,,,,,,,,,,,,,,,,,,,,,,,,,,,,,,
,,,,,,,,2023-08-16_08h47.54.554,HF_wild_card,2022.2.4,Win32,11.99529784,64135e5651180cd4c2843e4f,64d2fd46c836a06233681665,64dc7effd5690df31c4e5738,,,,,,,,,,,,,,,,,,,,,,,,,,4,0,4,0,1,,,,,,,,,,,,,,,,,,,,,,,,,,,,,,,,,,
,,,,,,,,2023-08-16_08h47.54.554,HF_wild_card,2022.2.4,Win32,11.99529784,64135e5651180cd4c2843e4f,64d2fd46c836a06233681665,64dc7effd5690df31c4e5738,,,,,,,decisionTrl,resources/DB.BMP,resources/DP.BMP,Door4,-0.428571429,-0.04952381,1,0,0,1.6908,optionLeft,60,11605,6,0,0,0,0,1,,,,,,,,,,,,,,,,,,,,,,,,,,,,,,,,,,,,,,,
,,,,,,,,2023-08-16_08h47.54.554,HF_wild_card,2022.2.4,Win32,11.99529784,64135e5651180cd4c2843e4f,64d2fd46c836a06233681665,64dc7effd5690df31c4e5738,,,,,,,decisionTrl,resources/DBN.BMP,resources/DG.BMP,WildCard_NonEx,0.445714286,0.04952381,1,0,0,1.9271,optionRight,55,11660,6,1,0,1,0,1,,,,,,,,,,,,,,,,,,,,,,,,,,,,,,,,,,,,,,,
,,,,,,,,2023-08-16_08h47.54.554,HF_wild_card,2022.2.4,Win32,11.99529784,64135e5651180cd4c2843e4f,64d2fd46c836a06233681665,64dc7effd5690df31c4e5738,,,,,,,sngl,resources/DB.BMP,resources/Empty.png,Door4,-0.403809524,-0.035238095,1,0,0,1.2008,optionLeft,60,11720,6,2,0,2,0,1,,,,,,,,,,,,,,,,,,,,,,,,,,,,,,,,,,,,,,,
,,,,,,,,2023-08-16_08h47.54.554,HF_wild_card,2022.2.4,Win32,11.99529784,64135e5651180cd4c2843e4f,64d2fd46c836a06233681665,64dc7effd5690df31c4e5738,,,,,,,ctch,resources/DP.BMP,resources/DBN.BMP,Door2,0.321904762,-0.022857143,1,0,0,0.9667,optionRight,20,11740,6,3,0,3,0,1,,,,,,,,,,,,,,,,,,,,,,,,,,,,,,,,,,,,,,,
,,,,,,,,2023-08-16_08h47.54.554,HF_wild_card,2022.2.4,Win32,11.99529784,64135e5651180cd4c2843e4f,64d2fd46c836a06233681665,64dc7effd5690df31c4e5738,,,,,,,decisionTrl,resources/DP.BMP,resources/DG.BMP,Door3,-0.356190476,-0.095238095,1,0,0,3.0091,optionLeft,70,11810,6,4,0,4,0,1,,,,,,,,,,,,,,,,,,,,,,,,,,,,,,,,,,,,,,,
,,,,,,,,2023-08-16_08h47.54.554,HF_wild_card,2022.2.4,Win32,11.99529784,64135e5651180cd4c2843e4f,64d2fd46c836a06233681665,64dc7effd5690df31c4e5738,,,,,,,decisionTrl,resources/DG.BMP,resources/DP.BMP,Door3,0.356190476,0.026666667,1,0,0,0.8887,optionRight,70,11880,6,5,0,5,0,1,,,,,,,,,,,,,,,,,,,,,,,,,,,,,,,,,,,,,,,
,,,,,,,,2023-08-16_08h47.54.554,HF_wild_card,2022.2.4,Win32,11.99529784,64135e5651180cd4c2843e4f,64d2fd46c836a06233681665,64dc7effd5690df31c4e5738,,,,,,,sngl,resources/Empty.png,resources/DG.BMP,WildCard_NonEx,0.413333333,0.001904762,1,0,0,0.6551,optionRight,55,11935,6,6,0,6,0,1,,,,,,,,,,,,,,,,,,,,,,,,,,,,,,,,,,,,,,,
,,,,,,,,2023-08-16_08h47.54.554,HF_wild_card,2022.2.4,Win32,11.99529784,64135e5651180cd4c2843e4f,64d2fd46c836a06233681665,64dc7effd5690df31c4e5738,,,,,,,decisionTrl,resources/DG.BMP,resources/DBN.BMP,WildCard_NonEx,-0.46952381,-0.04,1,0,0,1.9529,optionLeft,55,11990,6,7,0,7,0,1,,,,,,,,,,,,,,,,,,,,,,,,,,,,,,,,,,,,,,,
,,,,,,,,2023-08-16_08h47.54.554,HF_wild_card,2022.2.4,Win32,11.99529784,64135e5651180cd4c2843e4f,64d2fd46c836a06233681665,64dc7effd5690df31c4e5738,,,,,,,sngl,resources/DG.BMP,resources/Empty.png,WildCard_NonEx,-0.46,0.003809524,1,0,0,0.6485,optionLeft,55,12045,6,8,0,8,0,1,,,,,,,,,,,,,,,,,,,,,,,,,,,,,,,,,,,,,,,
,,,,,,,,2023-08-16_08h47.54.554,HF_wild_card,2022.2.4,Win32,11.99529784,64135e5651180cd4c2843e4f,64d2fd46c836a06233681665,64dc7effd5690df31c4e5738,,,,,,,decisionTrl,resources/DG.BMP,resources/DY.BMP,Door1,0.512380952,0.01047619,1,0,0,2.1755,optionRight,30,12075,6,9,0,9,0,1,,,,,,,,,,,,,,,,,,,,,,,,,,,,,,,,,,,,,,,
,,,,,,,,2023-08-16_08h47.54.554,HF_wild_card,2022.2.4,Win32,11.99529784,64135e5651180cd4c2843e4f,64d2fd46c836a06233681665,64dc7effd5690df31c4e5738,,,,,,,ctch,resources/DY.BMP,resources/DB.BMP,Door4,0.395238095,-0.036190476,1,0,0,1.9407,optionRight,80,12155,6,10,0,10,0,1,,,,,,,,,,,,,,,,,,,,,,,,,,,,,,,,,,,,,,,
,,,,,,,,2023-08-16_08h47.54.554,HF_wild_card,2022.2.4,Win32,11.99529784,64135e5651180cd4c2843e4f,64d2fd46c836a06233681665,64dc7effd5690df31c4e5738,,,,,,,decisionTrl,resources/DB.BMP,resources/DP.BMP,Door4,-0.302857143,-0.021904762,1,0,0,0.7486,optionLeft,60,12215,6,11,0,11,0,1,,,,,,,,,,,,,,,,,,,,,,,,,,,,,,,,,,,,,,,
,,,,,,,,2023-08-16_08h47.54.554,HF_wild_card,2022.2.4,Win32,11.99529784,64135e5651180cd4c2843e4f,64d2fd46c836a06233681665,64dc7effd5690df31c4e5738,,,,,,,decisionTrl,resources/DB.BMP,resources/DP.BMP,Door3,0.419047619,0,1,0,0,0.6313,optionRight,70,12285,6,12,0,12,0,1,,,,,,,,,,,,,,,,,,,,,,,,,,,,,,,,,,,,,,,
,,,,,,,,2023-08-16_08h47.54.554,HF_wild_card,2022.2.4,Win32,11.99529784,64135e5651180cd4c2843e4f,64d2fd46c836a06233681665,64dc7effd5690df31c4e5738,,,,,,,ctch,resources/DBN.BMP,resources/DP.BMP,Door3,0.437142857,-0.003809524,1,0,0,0.7228,optionRight,70,12355,6,13,0,13,0,1,,,,,,,,,,,,,,,,,,,,,,,,,,,,,,,,,,,,,,,
,,,,,,,,2023-08-16_08h47.54.554,HF_wild_card,2022.2.4,Win32,11.99529784,64135e5651180cd4c2843e4f,64d2fd46c836a06233681665,64dc7effd5690df31c4e5738,,,,,,,ctch,resources/DY.BMP,resources/DB.BMP,Door4,0.376190476,-0.038095238,1,0,0,2.4438,optionRight,60,12415,6,14,0,14,0,1,,,,,,,,,,,,,,,,,,,,,,,,,,,,,,,,,,,,,,,
,,,,,,,,2023-08-16_08h47.54.554,HF_wild_card,2022.2.4,Win32,11.99529784,64135e5651180cd4c2843e4f,64d2fd46c836a06233681665,64dc7effd5690df31c4e5738,,,,,,,sngl,resources/Empty.png,resources/DB.BMP,Door4,0.405714286,-0.053333333,1,0,0,0.6537,optionRight,80,12495,6,15,0,15,0,1,,,,,,,,,,,,,,,,,,,,,,,,,,,,,,,,,,,,,,,
,,,,,,,,2023-08-16_08h47.54.554,HF_wild_card,2022.2.4,Win32,11.99529784,64135e5651180cd4c2843e4f,64d2fd46c836a06233681665,64dc7effd5690df31c4e5738,,,,,,,decisionTrl,resources/DY.BMP,resources/DBN.BMP,Door1,-0.333333333,-0.024761905,1,0,0,1.2067,optionLeft,30,12525,6,16,0,16,0,1,,,,,,,,,,,,,,,,,,,,,,,,,,,,,,,,,,,,,,,
,,,,,,,,2023-08-16_08h47.54.554,HF_wild_card,2022.2.4,Win32,11.99529784,64135e5651180cd4c2843e4f,64d2fd46c836a06233681665,64dc7effd5690df31c4e5738,,,,,,,sngl,resources/DG.BMP,resources/Empty.png,WildCard_NonEx,-0.354285714,-0.04952381,1,0,0,0.7065,optionLeft,45,12570,6,17,0,17,0,1,,,,,,,,,,,,,,,,,,,,,,,,,,,,,,,,,,,,,,,
,,,,,,,,2023-08-16_08h47.54.554,HF_wild_card,2022.2.4,Win32,11.99529784,64135e5651180cd4c2843e4f,64d2fd46c836a06233681665,64dc7effd5690df31c4e5738,,,,,,,decisionTrl,resources/DB.BMP,resources/DP.BMP,Door3,0.375238095,-0.005714286,1,0,0,1.0195,optionRight,70,12640,6,18,0,18,0,1,,,,,,,,,,,,,,,,,,,,,,,,,,,,,,,,,,,,,,,
,,,,,,,,2023-08-16_08h47.54.554,HF_wild_card,2022.2.4,Win32,11.99529784,64135e5651180cd4c2843e4f,64d2fd46c836a06233681665,64dc7effd5690df31c4e5738,,,,,,,ctch,resources/DP.BMP,resources/DBN.BMP,Door3,-0.428571429,-0.092380952,1,0,0,4.1311,optionLeft,70,12710,6,19,0,19,0,1,,,,,,,,,,,,,,,,,,,,,,,,,,,,,,,,,,,,,,,
,,,,,,,,2023-08-16_08h47.54.554,HF_wild_card,2022.2.4,Win32,11.99529784,64135e5651180cd4c2843e4f,64d2fd46c836a06233681665,64dc7effd5690df31c4e5738,,,,,,,sngl,resources/Empty.png,resources/DP.BMP,Door3,0.332380952,-0.000952381,1,0,0,0.7739,optionRight,70,12780,6,20,0,20,0,1,,,,,,,,,,,,,,,,,,,,,,,,,,,,,,,,,,,,,,,
,,,,,,,,2023-08-16_08h47.54.554,HF_wild_card,2022.2.4,Win32,11.99529784,64135e5651180cd4c2843e4f,64d2fd46c836a06233681665,64dc7effd5690df31c4e5738,,,,,,,ctch,resources/DB.BMP,resources/DY.BMP,Door4,-0.366666667,-0.061904762,1,0,0,0.8504,optionLeft,80,12860,6,21,0,21,0,1,,,,,,,,,,,,,,,,,,,,,,,,,,,,,,,,,,,,,,,
,,,,,,,,2023-08-16_08h47.54.554,HF_wild_card,2022.2.4,Win32,11.99529784,64135e5651180cd4c2843e4f,64d2fd46c836a06233681665,64dc7effd5690df31c4e5738,,,,,,,sngl,resources/DY.BMP,resources/Empty.png,Door1,-0.372380952,-0.046666667,1,0,0,0.7692,optionLeft,30,12890,6,22,0,22,0,1,,,,,,,,,,,,,,,,,,,,,,,,,,,,,,,,,,,,,,,
,,,,,,,,2023-08-16_08h47.54.554,HF_wild_card,2022.2.4,Win32,11.99529784,64135e5651180cd4c2843e4f,64d2fd46c836a06233681665,64dc7effd5690df31c4e5738,,,,,,,decisionTrl,resources/DY.BMP,resources/DG.BMP,WildCard_NonEx,0.364761905,-0.00952381,1,0,0,1.1013,optionRight,45,12935,6,23,0,23,0,1,,,,,,,,,,,,,,,,,,,,,,,,,,,,,,,,,,,,,,,
,,,,,,,,2023-08-16_08h47.54.554,HF_wild_card,2022.2.4,Win32,11.99529784,64135e5651180cd4c2843e4f,64d2fd46c836a06233681665,64dc7effd5690df31c4e5738,,,,,,,decisionTrl,resources/DY.BMP,resources/DBN.BMP,Door2,0.411428571,0.038095238,1,0,0,2.6032,optionRight,20,12955,6,24,0,24,0,1,,,,,,,,,,,,,,,,,,,,,,,,,,,,,,,,,,,,,,,
,,,,,,,,2023-08-16_08h47.54.554,HF_wild_card,2022.2.4,Win32,11.99529784,64135e5651180cd4c2843e4f,64d2fd46c836a06233681665,64dc7effd5690df31c4e5738,,,,,,,decisionTrl,resources/DP.BMP,resources/DB.BMP,Door3,-0.462857143,-0.060952381,1,0,0,7.3944,optionLeft,70,13025,6,25,0,25,0,1,,,,,,,,,,,,,,,,,,,,,,,,,,,,,,,,,,,,,,,
,,,,,,,,2023-08-16_08h47.54.554,HF_wild_card,2022.2.4,Win32,11.99529784,64135e5651180cd4c2843e4f,64d2fd46c836a06233681665,64dc7effd5690df31c4e5738,,,,,,,sngl,resources/Empty.png,resources/DY.BMP,Door1,0.325714286,-0.016190476,1,0,0,0.6528,optionRight,30,13055,6,26,0,26,0,1,,,,,,,,,,,,,,,,,,,,,,,,,,,,,,,,,,,,,,,
,,,,,,,,2023-08-16_08h47.54.554,HF_wild_card,2022.2.4,Win32,11.99529784,64135e5651180cd4c2843e4f,64d2fd46c836a06233681665,64dc7effd5690df31c4e5738,,,,,,,sngl,resources/DP.BMP,resources/Empty.png,Door3,-0.371428571,-0.005714286,1,0,0,2.5125,optionLeft,70,13125,6,27,0,27,0,1,,,,,,,,,,,,,,,,,,,,,,,,,,,,,,,,,,,,,,,
,,,,,,,,2023-08-16_08h47.54.554,HF_wild_card,2022.2.4,Win32,11.99529784,64135e5651180cd4c2843e4f,64d2fd46c836a06233681665,64dc7effd5690df31c4e5738,,,,,,,sngl,resources/DBN.BMP,resources/Empty.png,Door2,-0.4,-0.003809524,1,0,0,0.7629,optionLeft,20,13145,6,28,0,28,0,1,,,,,,,,,,,,,,,,,,,,,,,,,,,,,,,,,,,,,,,
,,,,,,,,2023-08-16_08h47.54.554,HF_wild_card,2022.2.4,Win32,11.99529784,64135e5651180cd4c2843e4f,64d2fd46c836a06233681665,64dc7effd5690df31c4e5738,,,,,,,decisionTrl,resources/DBN.BMP,resources/DY.BMP,Door2,-0.32952381,0.031428571,1,0,0,2.2354,optionLeft,20,13165,6,29,0,29,0,1,,,,,,,,,,,,,,,,,,,,,,,,,,,,,,,,,,,,,,,
,,,,,,,,2023-08-16_08h47.54.554,HF_wild_card,2022.2.4,Win32,11.99529784,64135e5651180cd4c2843e4f,64d2fd46c836a06233681665,64dc7effd5690df31c4e5738,,,,,,,decisionTrl,resources/DP.BMP,resources/DB.BMP,Door3,-0.312380952,-0.032380952,1,0,0,1.3228,optionLeft,70,13235,6,30,0,30,0,1,,,,,,,,,,,,,,,,,,,,,,,,,,,,,,,,,,,,,,,
,,,,,,,,2023-08-16_08h47.54.554,HF_wild_card,2022.2.4,Win32,11.99529784,64135e5651180cd4c2843e4f,64d2fd46c836a06233681665,64dc7effd5690df31c4e5738,,,,,,,decisionTrl,resources/DP.BMP,resources/DB.BMP,Door3,-0.413333333,0.026666667,1,0,0,2.1779,optionLeft,70,13305,6,31,0,31,0,1,,,,,,,,,,,,,,,,,,,,,,,,,,,,,,,,,,,,,,,
,,,,,,,,2023-08-16_08h47.54.554,HF_wild_card,2022.2.4,Win32,11.99529784,64135e5651180cd4c2843e4f,64d2fd46c836a06233681665,64dc7effd5690df31c4e5738,,,,,,,decisionTrl,resources/DB.BMP,resources/DG.BMP,Door4,-0.338095238,-0.004761905,1,0,0,0.721,optionLeft,60,13365,6,32,0,32,0,1,,,,,,,,,,,,,,,,,,,,,,,,,,,,,,,,,,,,,,,
,,,,,,,,2023-08-16_08h47.54.554,HF_wild_card,2022.2.4,Win32,11.99529784,64135e5651180cd4c2843e4f,64d2fd46c836a06233681665,64dc7effd5690df31c4e5738,,,,,,,ctch,resources/DBN.BMP,resources/DP.BMP,Door3,0.411428571,0.01047619,1,0,0,3.1483,optionRight,70,13435,6,33,0,33,0,1,,,,,,,,,,,,,,,,,,,,,,,,,,,,,,,,,,,,,,,
,,,,,,,,2023-08-16_08h47.54.554,HF_wild_card,2022.2.4,Win32,11.99529784,64135e5651180cd4c2843e4f,64d2fd46c836a06233681665,64dc7effd5690df31c4e5738,,,,,,,decisionTrl,resources/DBN.BMP,resources/DY.BMP,Door1,0.440952381,0.005714286,1,0,0,1.4625,optionRight,30,13465,6,34,0,34,0,1,,,,,,,,,,,,,,,,,,,,,,,,,,,,,,,,,,,,,,,
,,,,,,,,2023-08-16_08h47.54.554,HF_wild_card,2022.2.4,Win32,11.99529784,64135e5651180cd4c2843e4f,64d2fd46c836a06233681665,64dc7effd5690df31c4e5738,,,,,,,decisionTrl,resources/DBN.BMP,resources/DY.BMP,Door1,0.426666667,-0.011428571,1,0,0,1.0885,optionRight,30,13495,6,35,0,35,0,1,,,,,,,,,,,,,,,,,,,,,,,,,,,,,,,,,,,,,,,
,,,,,,,,2023-08-16_08h47.54.554,HF_wild_card,2022.2.4,Win32,11.99529784,64135e5651180cd4c2843e4f,64d2fd46c836a06233681665,64dc7effd5690df31c4e5738,,,,,,,decisionTrl,resources/DY.BMP,resources/DBN.BMP,Door1,-0.415238095,-0.036190476,1,0,0,1.1201,optionLeft,30,13525,6,36,0,36,0,1,,,,,,,,,,,,,,,,,,,,,,,,,,,,,,,,,,,,,,,
,,,,,,,,2023-08-16_08h47.54.554,HF_wild_card,2022.2.4,Win32,11.99529784,64135e5651180cd4c2843e4f,64d2fd46c836a06233681665,64dc7effd5690df31c4e5738,,,,,,,decisionTrl,resources/DG.BMP,resources/DB.BMP,Door4,0.191428571,-0.011428571,1,0,0,1.1171,optionRight,60,13585,6,37,0,37,0,1,,,,,,,,,,,,,,,,,,,,,,,,,,,,,,,,,,,,,,,
,,,,,,,,2023-08-16_08h47.54.554,HF_wild_card,2022.2.4,Win32,11.99529784,64135e5651180cd4c2843e4f,64d2fd46c836a06233681665,64dc7effd5690df31c4e5738,,,,,,,sngl,resources/Empty.png,resources/DBN.BMP,Door2,0.447619048,0.023809524,1,0,0,0.6523,optionRight,40,13625,6,38,0,38,0,1,,,,,,,,,,,,,,,,,,,,,,,,,,,,,,,,,,,,,,,
,,,,,,,,2023-08-16_08h47.54.554,HF_wild_card,2022.2.4,Win32,11.99529784,64135e5651180cd4c2843e4f,64d2fd46c836a06233681665,64dc7effd5690df31c4e5738,,,,,,,decisionTrl,resources/DBN.BMP,resources/DY.BMP,Door1,0.332380952,-0.02,1,0,0,1.3696,optionRight,30,13655,6,39,0,39,0,1,,,,,,,,,,,,,,,,,,,,,,,,,,,,,,,,,,,,,,,
,,,,,,,,2023-08-16_08h47.54.554,HF_wild_card,2022.2.4,Win32,11.99529784,64135e5651180cd4c2843e4f,64d2fd46c836a06233681665,64dc7effd5690df31c4e5738,,,,,,,decisionTrl,resources/DP.BMP,resources/DB.BMP,Door4,0.383809524,-0.044761905,1,0,0,2.4132,optionRight,80,13735,6,40,0,40,0,1,,,,,,,,,,,,,,,,,,,,,,,,,,,,,,,,,,,,,,,
,,,,,,,,2023-08-16_08h47.54.554,HF_wild_card,2022.2.4,Win32,11.99529784,64135e5651180cd4c2843e4f,64d2fd46c836a06233681665,64dc7effd5690df31c4e5738,,,,,,,ctch,resources/DB.BMP,resources/DY.BMP,Door4,-0.391428571,0.000952381,1,0,0,0.7269,optionLeft,60,13795,6,41,0,41,0,1,,,,,,,,,,,,,,,,,,,,,,,,,,,,,,,,,,,,,,,
,,,,,,,,2023-08-16_08h47.54.554,HF_wild_card,2022.2.4,Win32,11.99529784,64135e5651180cd4c2843e4f,64d2fd46c836a06233681665,64dc7effd5690df31c4e5738,,,,,,,sngl,resources/Empty.png,resources/DG.BMP,WildCard_NonEx,0.433333333,0.035238095,1,0,0,2.7327,optionRight,45,13840,6,42,0,42,0,1,,,,,,,,,,,,,,,,,,,,,,,,,,,,,,,,,,,,,,,
,,,,,,,,2023-08-16_08h47.54.554,HF_wild_card,2022.2.4,Win32,11.99529784,64135e5651180cd4c2843e4f,64d2fd46c836a06233681665,64dc7effd5690df31c4e5738,,,,,,,decisionTrl,resources/DY.BMP,resources/DBN.BMP,Door1,-0.385714286,0.023809524,1,0,0,2.7819,optionLeft,30,13870,6,43,0,43,0,1,,,,,,,,,,,,,,,,,,,,,,,,,,,,,,,,,,,,,,,
,,,,,,,,2023-08-16_08h47.54.554,HF_wild_card,2022.2.4,Win32,11.99529784,64135e5651180cd4c2843e4f,64d2fd46c836a06233681665,64dc7effd5690df31c4e5738,,,,,,,,,,,,,,,,,,,,,,,,,,5,0,5,0,1,,,,,,,,,,,,,,,,,,,,,,,,,,,,,,,,,,
,,,,,,,,2023-08-16_08h47.54.554,HF_wild_card,2022.2.4,Win32,11.99529784,64135e5651180cd4c2843e4f,64d2fd46c836a06233681665,64dc7effd5690df31c4e5738,,,,,,,decisionTrl,resources/DBN.BMP,resources/DY.BMP,Door1,0.421904762,-0.047619048,1,0,0,6.6465,optionRight,30,13900,7,0,0,0,0,1,,,,,,,,,,,,,,,,,,,,,,,,,,,,,,,,,,,,,,,
,,,,,,,,2023-08-16_08h47.54.554,HF_wild_card,2022.2.4,Win32,11.99529784,64135e5651180cd4c2843e4f,64d2fd46c836a06233681665,64dc7effd5690df31c4e5738,,,,,,,decisionTrl,resources/DP.BMP,resources/DB.BMP,Door3,-0.382857143,0.015238095,1,0,0,2.7575,optionLeft,70,13970,7,1,0,1,0,1,,,,,,,,,,,,,,,,,,,,,,,,,,,,,,,,,,,,,,,
,,,,,,,,2023-08-16_08h47.54.554,HF_wild_card,2022.2.4,Win32,11.99529784,64135e5651180cd4c2843e4f,64d2fd46c836a06233681665,64dc7effd5690df31c4e5738,,,,,,,decisionTrl,resources/DB.BMP,resources/DP.BMP,Door3,0.414285714,0.007619048,1,0,0,5.5145,optionRight,70,14040,7,2,0,2,0,1,,,,,,,,,,,,,,,,,,,,,,,,,,,,,,,,,,,,,,,
,,,,,,,,2023-08-16_08h47.54.554,HF_wild_card,2022.2.4,Win32,11.99529784,64135e5651180cd4c2843e4f,64d2fd46c836a06233681665,64dc7effd5690df31c4e5738,,,,,,,decisionTrl,resources/DBN.BMP,resources/DY.BMP,Door1,0.34952381,0.026666667,1,0,0,2.3954,optionRight,30,14070,7,3,0,3,0,1,,,,,,,,,,,,,,,,,,,,,,,,,,,,,,,,,,,,,,,
,,,,,,,,2023-08-16_08h47.54.554,HF_wild_card,2022.2.4,Win32,11.99529784,64135e5651180cd4c2843e4f,64d2fd46c836a06233681665,64dc7effd5690df31c4e5738,,,,,,,ctch,resources/DBN.BMP,resources/DP.BMP,Door3,0.457142857,-0.057142857,1,0,0,0.9526,optionRight,70,14140,7,4,0,4,0,1,,,,,,,,,,,,,,,,,,,,,,,,,,,,,,,,,,,,,,,
,,,,,,,,2023-08-16_08h47.54.554,HF_wild_card,2022.2.4,Win32,11.99529784,64135e5651180cd4c2843e4f,64d2fd46c836a06233681665,64dc7effd5690df31c4e5738,,,,,,,ctch,resources/DBN.BMP,resources/DP.BMP,Door3,0.343809524,-0.022857143,1,0,0,0.847,optionRight,70,14210,7,5,0,5,0,1,,,,,,,,,,,,,,,,,,,,,,,,,,,,,,,,,,,,,,,
,,,,,,,,2023-08-16_08h47.54.554,HF_wild_card,2022.2.4,Win32,11.99529784,64135e5651180cd4c2843e4f,64d2fd46c836a06233681665,64dc7effd5690df31c4e5738,,,,,,,decisionTrl,resources/DP.BMP,resources/DB.BMP,Door4,0.354285714,-0.059047619,1,0,0,1.3286,optionRight,80,14290,7,6,0,6,0,1,,,,,,,,,,,,,,,,,,,,,,,,,,,,,,,,,,,,,,,
,,,,,,,,2023-08-16_08h47.54.554,HF_wild_card,2022.2.4,Win32,11.99529784,64135e5651180cd4c2843e4f,64d2fd46c836a06233681665,64dc7effd5690df31c4e5738,,,,,,,decisionTrl,resources/DY.BMP,resources/DBN.BMP,Door1,-0.333333333,-0.044761905,1,0,0,1.2405,optionLeft,30,14320,7,7,0,7,0,1,,,,,,,,,,,,,,,,,,,,,,,,,,,,,,,,,,,,,,,
,,,,,,,,2023-08-16_08h47.54.554,HF_wild_card,2022.2.4,Win32,11.99529784,64135e5651180cd4c2843e4f,64d2fd46c836a06233681665,64dc7effd5690df31c4e5738,,,,,,,decisionTrl,resources/DB.BMP,resources/DP.BMP,Door3,0.371428571,-0.003809524,1,0,0,1.5812,optionRight,70,14390,7,8,0,8,0,1,,,,,,,,,,,,,,,,,,,,,,,,,,,,,,,,,,,,,,,
,,,,,,,,2023-08-16_08h47.54.554,HF_wild_card,2022.2.4,Win32,11.99529784,64135e5651180cd4c2843e4f,64d2fd46c836a06233681665,64dc7effd5690df31c4e5738,,,,,,,ctch,resources/DB.BMP,resources/DY.BMP,Door4,-0.402857143,-0.045714286,1,0,0,1.8853,optionLeft,60,14450,7,9,0,9,0,1,,,,,,,,,,,,,,,,,,,,,,,,,,,,,,,,,,,,,,,
,,,,,,,,2023-08-16_08h47.54.554,HF_wild_card,2022.2.4,Win32,11.99529784,64135e5651180cd4c2843e4f,64d2fd46c836a06233681665,64dc7effd5690df31c4e5738,,,,,,,decisionTrl,resources/DP.BMP,resources/DB.BMP,Door3,-0.4,0.004761905,1,0,0,1.2161,optionLeft,70,14520,7,10,0,10,0,1,,,,,,,,,,,,,,,,,,,,,,,,,,,,,,,,,,,,,,,
,,,,,,,,2023-08-16_08h47.54.554,HF_wild_card,2022.2.4,Win32,11.99529784,64135e5651180cd4c2843e4f,64d2fd46c836a06233681665,64dc7effd5690df31c4e5738,,,,,,,decisionTrl,resources/DY.BMP,resources/DBN.BMP,Door1,-0.38,-0.063809524,1,0,0,3.2503,optionLeft,30,14550,7,11,0,11,0,1,,,,,,,,,,,,,,,,,,,,,,,,,,,,,,,,,,,,,,,
,,,,,,,,2023-08-16_08h47.54.554,HF_wild_card,2022.2.4,Win32,11.99529784,64135e5651180cd4c2843e4f,64d2fd46c836a06233681665,64dc7effd5690df31c4e5738,,,,,,,decisionTrl,resources/DBN.BMP,resources/DY.BMP,Door1,0.454285714,0.045714286,1,0,0,0.9662,optionRight,30,14580,7,12,0,12,0,1,,,,,,,,,,,,,,,,,,,,,,,,,,,,,,,,,,,,,,,
,,,,,,,,2023-08-16_08h47.54.554,HF_wild_card,2022.2.4,Win32,11.99529784,64135e5651180cd4c2843e4f,64d2fd46c836a06233681665,64dc7effd5690df31c4e5738,,,,,,,ctch,resources/DP.BMP,resources/DBN.BMP,Door3,-0.374285714,0.016190476,1,0,0,1.7996,optionLeft,70,14650,7,13,0,13,0,1,,,,,,,,,,,,,,,,,,,,,,,,,,,,,,,,,,,,,,,
,,,,,,,,2023-08-16_08h47.54.554,HF_wild_card,2022.2.4,Win32,11.99529784,64135e5651180cd4c2843e4f,64d2fd46c836a06233681665,64dc7effd5690df31c4e5738,,,,,,,decisionTrl,resources/DB.BMP,resources/DP.BMP,Door4,-0.394285714,-0.035238095,1,0,0,1.9883,optionLeft,60,14710,7,14,0,14,0,1,,,,,,,,,,,,,,,,,,,,,,,,,,,,,,,,,,,,,,,
,,,,,,,,2023-08-16_08h47.54.554,HF_wild_card,2022.2.4,Win32,11.99529784,64135e5651180cd4c2843e4f,64d2fd46c836a06233681665,64dc7effd5690df31c4e5738,,,,,,,decisionTrl,resources/DB.BMP,resources/DP.BMP,Door4,-0.415238095,-0.038095238,1,0,0,0.9555,optionLeft,60,14770,7,15,0,15,0,1,,,,,,,,,,,,,,,,,,,,,,,,,,,,,,,,,,,,,,,
,,,,,,,,2023-08-16_08h47.54.554,HF_wild_card,2022.2.4,Win32,11.99529784,64135e5651180cd4c2843e4f,64d2fd46c836a06233681665,64dc7effd5690df31c4e5738,,,,,,,decisionTrl,resources/DP.BMP,resources/DB.BMP,Door4,0.478095238,0.01047619,1,0,0,0.7257,optionRight,60,14830,7,16,0,16,0,1,,,,,,,,,,,,,,,,,,,,,,,,,,,,,,,,,,,,,,,
,,,,,,,,2023-08-16_08h47.54.554,HF_wild_card,2022.2.4,Win32,11.99529784,64135e5651180cd4c2843e4f,64d2fd46c836a06233681665,64dc7effd5690df31c4e5738,,,,,,,decisionTrl,resources/DP.BMP,resources/DB.BMP,Door3,-0.362857143,-0.038095238,1,0,0,0.7572,optionLeft,70,14900,7,17,0,17,0,1,,,,,,,,,,,,,,,,,,,,,,,,,,,,,,,,,,,,,,,
,,,,,,,,2023-08-16_08h47.54.554,HF_wild_card,2022.2.4,Win32,11.99529784,64135e5651180cd4c2843e4f,64d2fd46c836a06233681665,64dc7effd5690df31c4e5738,,,,,,,decisionTrl,resources/DB.BMP,resources/DP.BMP,Door3,0.436190476,-0.035238095,1,0,0,0.8508,optionRight,70,14970,7,18,0,18,0,1,,,,,,,,,,,,,,,,,,,,,,,,,,,,,,,,,,,,,,,
,,,,,,,,2023-08-16_08h47.54.554,HF_wild_card,2022.2.4,Win32,11.99529784,64135e5651180cd4c2843e4f,64d2fd46c836a06233681665,64dc7effd5690df31c4e5738,,,,,,,decisionTrl,resources/DB.BMP,resources/DP.BMP,Door3,0.417142857,-0.022857143,1,0,0,1.0373,optionRight,70,15040,7,19,0,19,0,1,,,,,,,,,,,,,,,,,,,,,,,,,,,,,,,,,,,,,,,
,,,,,,,,2023-08-16_08h47.54.554,HF_wild_card,2022.2.4,Win32,11.99529784,64135e5651180cd4c2843e4f,64d2fd46c836a06233681665,64dc7effd5690df31c4e5738,,,,,,,ctch,resources/DY.BMP,resources/DB.BMP,Door4,0.405714286,-0.011428571,1,0,0,0.9685,optionRight,80,15120,7,20,0,20,0,1,,,,,,,,,,,,,,,,,,,,,,,,,,,,,,,,,,,,,,,
,,,,,,,,2023-08-16_08h47.54.554,HF_wild_card,2022.2.4,Win32,11.99529784,64135e5651180cd4c2843e4f,64d2fd46c836a06233681665,64dc7effd5690df31c4e5738,,,,,,,ctch,resources/DY.BMP,resources/DB.BMP,Door4,0.397142857,-0.01047619,1,0,0,0.7158,optionRight,80,15200,7,21,0,21,0,1,,,,,,,,,,,,,,,,,,,,,,,,,,,,,,,,,,,,,,,
,,,,,,,,2023-08-16_08h47.54.554,HF_wild_card,2022.2.4,Win32,11.99529784,64135e5651180cd4c2843e4f,64d2fd46c836a06233681665,64dc7effd5690df31c4e5738,,,,,,,decisionTrl,resources/DY.BMP,resources/DBN.BMP,Door1,-0.54,-0.040952381,1,0,0,1.3227,optionLeft,30,15230,7,22,0,22,0,1,,,,,,,,,,,,,,,,,,,,,,,,,,,,,,,,,,,,,,,
,,,,,,,,2023-08-16_08h47.54.554,HF_wild_card,2022.2.4,Win32,11.99529784,64135e5651180cd4c2843e4f,64d2fd46c836a06233681665,64dc7effd5690df31c4e5738,,,,,,,decisionTrl,resources/DY.BMP,resources/DBN.BMP,Door1,-0.224761905,-0.012380952,1,0,0,1.1407,optionLeft,30,15260,7,23,0,23,0,1,,,,,,,,,,,,,,,,,,,,,,,,,,,,,,,,,,,,,,,
,,,,,,,,2023-08-16_08h47.54.554,HF_wild_card,2022.2.4,Win32,11.99529784,64135e5651180cd4c2843e4f,64d2fd46c836a06233681665,64dc7effd5690df31c4e5738,,,,,,,ctch,resources/DB.BMP,resources/DY.BMP,Door4,-0.36,-0.013333333,1,0,0,0.7173,optionLeft,80,15340,7,24,0,24,0,1,,,,,,,,,,,,,,,,,,,,,,,,,,,,,,,,,,,,,,,
,,,,,,,,2023-08-16_08h47.54.554,HF_wild_card,2022.2.4,Win32,11.99529784,64135e5651180cd4c2843e4f,64d2fd46c836a06233681665,64dc7effd5690df31c4e5738,,,,,,,ctch,resources/DP.BMP,resources/DBN.BMP,Door3,-0.29047619,0.012380952,1,0,0,1.4474,optionLeft,70,15410,7,25,0,25,0,1,,,,,,,,,,,,,,,,,,,,,,,,,,,,,,,,,,,,,,,
,,,,,,,,2023-08-16_08h47.54.554,HF_wild_card,2022.2.4,Win32,11.99529784,64135e5651180cd4c2843e4f,64d2fd46c836a06233681665,64dc7effd5690df31c4e5738,,,,,,,decisionTrl,resources/DY.BMP,resources/DBN.BMP,Door1,-0.418095238,-0.006666667,1,0,0,0.9837,optionLeft,30,15440,7,26,0,26,0,1,,,,,,,,,,,,,,,,,,,,,,,,,,,,,,,,,,,,,,,
,,,,,,,,2023-08-16_08h47.54.554,HF_wild_card,2022.2.4,Win32,11.99529784,64135e5651180cd4c2843e4f,64d2fd46c836a06233681665,64dc7effd5690df31c4e5738,,,,,,,decisionTrl,resources/DY.BMP,resources/DBN.BMP,Door1,-0.380952381,0.033333333,1,0,0,4.9933,optionLeft,30,15470,7,27,0,27,0,1,,,,,,,,,,,,,,,,,,,,,,,,,,,,,,,,,,,,,,,
,,,,,,,,2023-08-16_08h47.54.554,HF_wild_card,2022.2.4,Win32,11.99529784,64135e5651180cd4c2843e4f,64d2fd46c836a06233681665,64dc7effd5690df31c4e5738,,,,,,,ctch,resources/DB.BMP,resources/DY.BMP,Door4,-0.364761905,0.063809524,1,0,0,4.1917,optionLeft,60,15530,7,28,0,28,0,1,,,,,,,,,,,,,,,,,,,,,,,,,,,,,,,,,,,,,,,
,,,,,,,,2023-08-16_08h47.54.554,HF_wild_card,2022.2.4,Win32,11.99529784,64135e5651180cd4c2843e4f,64d2fd46c836a06233681665,64dc7effd5690df31c4e5738,,,,,,,decisionTrl,resources/DBN.BMP,resources/DY.BMP,Door1,0.541904762,0.01047619,1,0,0,0.887,optionRight,30,15560,7,29,0,29,0,1,,,,,,,,,,,,,,,,,,,,,,,,,,,,,,,,,,,,,,,
,,,,,,,,2023-08-16_08h47.54.554,HF_wild_card,2022.2.4,Win32,11.99529784,64135e5651180cd4c2843e4f,64d2fd46c836a06233681665,64dc7effd5690df31c4e5738,,,,,,,decisionTrl,resources/DBN.BMP,resources/DY.BMP,Door1,0.407619048,0.026666667,1,0,0,3.9824,optionRight,30,15590,7,30,0,30,0,1,,,,,,,,,,,,,,,,,,,,,,,,,,,,,,,,,,,,,,,
,,,,,,,,2023-08-16_08h47.54.554,HF_wild_card,2022.2.4,Win32,11.99529784,64135e5651180cd4c2843e4f,64d2fd46c836a06233681665,64dc7effd5690df31c4e5738,,,,,,,ctch,resources/DBN.BMP,resources/DP.BMP,Door3,0.471428571,-0.007619048,1,0,0,1.1015,optionRight,70,15660,7,31,0,31,0,1,,,,,,,,,,,,,,,,,,,,,,,,,,,,,,,,,,,,,,,
,,,,,,,,2023-08-16_08h47.54.554,HF_wild_card,2022.2.4,Win32,11.99529784,64135e5651180cd4c2843e4f,64d2fd46c836a06233681665,64dc7effd5690df31c4e5738,,,,,,,decisionTrl,resources/DP.BMP,resources/DB.BMP,Door3,-0.316190476,-0.02,1,0,0,1.8168,optionLeft,70,15730,7,32,0,32,0,1,,,,,,,,,,,,,,,,,,,,,,,,,,,,,,,,,,,,,,,
,,,,,,,,2023-08-16_08h47.54.554,HF_wild_card,2022.2.4,Win32,11.99529784,64135e5651180cd4c2843e4f,64d2fd46c836a06233681665,64dc7effd5690df31c4e5738,,,,,,,ctch,resources/DP.BMP,resources/DBN.BMP,Door3,-0.354285714,-0.003809524,1,0,0,0.7143,optionLeft,70,15800,7,33,0,33,0,1,,,,,,,,,,,,,,,,,,,,,,,,,,,,,,,,,,,,,,,
,,,,,,,,2023-08-16_08h47.54.554,HF_wild_card,2022.2.4,Win32,11.99529784,64135e5651180cd4c2843e4f,64d2fd46c836a06233681665,64dc7effd5690df31c4e5738,,,,,,,ctch,resources/DY.BMP,resources/DB.BMP,Door4,0.325714286,0.001904762,1,0,0,1.2413,optionRight,80,15880,7,34,0,34,0,1,,,,,,,,,,,,,,,,,,,,,,,,,,,,,,,,,,,,,,,
,,,,,,,,2023-08-16_08h47.54.554,HF_wild_card,2022.2.4,Win32,11.99529784,64135e5651180cd4c2843e4f,64d2fd46c836a06233681665,64dc7effd5690df31c4e5738,,,,,,,decisionTrl,resources/DBN.BMP,resources/DY.BMP,Door1,0.395238095,0.006666667,1,0,0,0.963,optionRight,30,15910,7,35,0,35,0,1,,,,,,,,,,,,,,,,,,,,,,,,,,,,,,,,,,,,,,,
,,,,,,,,2023-08-16_08h47.54.554,HF_wild_card,2022.2.4,Win32,11.99529784,64135e5651180cd4c2843e4f,64d2fd46c836a06233681665,64dc7effd5690df31c4e5738,,,,,,,,,,,,,,,,,,,,,,,,,,6,0,6,0,1,,,,,,,,,,,,,,,,,,,,,,,,,,,,,,,,,,
,,,,,,,,2023-08-16_08h47.54.554,HF_wild_card,2022.2.4,Win32,11.99529784,64135e5651180cd4c2843e4f,64d2fd46c836a06233681665,64dc7effd5690df31c4e5738,,,,,,,,,,,,,,,,,,,,,,,,,,,,,,,3,,,,,,,,,,,,,,,,,,,,,,,,,,,,,,,,,
,,,,,,,,2023-08-16_08h47.54.554,HF_wild_card,2022.2.4,Win32,11.99529784,64135e5651180cd4c2843e4f,64d2fd46c836a06233681665,64dc7effd5690df31c4e5738,,,,,,,,,,,,,,,,,,,,,,,,,,,,,,,,,,,,,,,,,,,,,,,,,,,,,,,,,,,,,,,,
,,,,,,,,2023-08-16_08h47.54.554,HF_wild_card,2022.2.4,Win32,11.99529784,64135e5651180cd4c2843e4f,64d2fd46c836a06233681665,64dc7effd5690df31c4e5738,,,,,,,,,,,,,,,,,,,,,,,,,,,,,,,,30,Door1,resources/DY.BMP,0,0,0,0,1,,,,,,,,,,,,,,,,,,,,,,,,,
,,,,,,,,2023-08-16_08h47.54.554,HF_wild_card,2022.2.4,Win32,11.99529784,64135e5651180cd4c2843e4f,64d2fd46c836a06233681665,64dc7effd5690df31c4e5738,,,,,,,,,,,,,,,,,,,,,,,,,,,,,,,,20,Door2,resources/DBN.BMP,1,0,1,0,1,,,,,,,,,,,,,,,,,,,,,,,,,
,,,,,,,,2023-08-16_08h47.54.554,HF_wild_card,2022.2.4,Win32,11.99529784,64135e5651180cd4c2843e4f,64d2fd46c836a06233681665,64dc7effd5690df31c4e5738,,,,,,,,,,,,,,,,,,,,,,,,,,,,,,,,40,WC_extreme,resources/DR.BMP,2,0,2,0,1,,,,,,,,,,,,,,,,,,,,,,,,,
,,,,,,,,2023-08-16_08h47.54.554,HF_wild_card,2022.2.4,Win32,11.99529784,64135e5651180cd4c2843e4f,64d2fd46c836a06233681665,64dc7effd5690df31c4e5738,,,,,,,,,,,,,,,,,,,,,,,,,,,,,,,,50,WC_nonExtreme,resources/DG.BMP,3,0,3,0,1,,,,,,,,,,,,,,,,,,,,,,,,,
,,,,,,,,2023-08-16_08h47.54.554,HF_wild_card,2022.2.4,Win32,11.99529784,64135e5651180cd4c2843e4f,64d2fd46c836a06233681665,64dc7effd5690df31c4e5738,,,,,,,,,,,,,,,,,,,,,,,,,,,,,,,,70,Door4,resources/DB.BMP,4,0,4,0,1,,,,,,,,,,,,,,,,,,,,,,,,,
,,,,,,,,2023-08-16_08h47.54.554,HF_wild_card,2022.2.4,Win32,11.99529784,64135e5651180cd4c2843e4f,64d2fd46c836a06233681665,64dc7effd5690df31c4e5738,,,,,,,,,,,,,,,,,,,,,,,,,,,,,,,,80,Door3,resources/DP.BMP,5,0,5,0,1,,,,,,,,,,,,,,,,,,,,,,,,,
,,,,,,,,2023-08-16_08h47.54.554,HF_wild_card,2022.2.4,Win32,11.99529784,64135e5651180cd4c2843e4f,64d2fd46c836a06233681665,64dc7effd5690df31c4e5738,,,,,,,,,,,,,,,,,,,,,,,,,,,,,,,,,,,,,,,,,,,,,,,,,,,,,,,,,,,,,,,,
,,,,,,,,2023-08-16_08h47.54.554,HF_wild_card,2022.2.4,Win32,11.99529784,64135e5651180cd4c2843e4f,64d2fd46c836a06233681665,64dc7effd5690df31c4e5738,,,,,,,,,,,,,,,,,,,,,,,,,,,,,,,,,,,,,,,,0,0,0,0,1,,,,,,,,,,,,,,,,,,,,
