Condition,Low fixed image (Door1),Low risky image (Door2),High fixed image (Door3),High risky image (Door4),Extreme Wild Card,NonExtreme Wild Card,,date,expName,psychopyVersion,OS,frameRate,PROLIFIC_PID,STUDY_ID,SESSION_ID,mouse_2.x,mouse_2.y,mouse_2.leftButton,mouse_2.midButton,mouse_2.rightButton,mouse_2.clicked_name,Trial Type,Left Option Image,Right Option Image,Chosen Door,mouse.x,mouse.y,mouse.leftButton,mouse.midButton,mouse.rightButton,mouse.time,mouse.clicked_name,Feedback,Cumulative Reward,Block,trial.thisRepN,trial.thisTrialN,trial.thisN,trial.thisIndex,trial.ran,blocks.thisRepN,blocks.thisTrialN,blocks.thisN,blocks.thisIndex,blocks.ran,Money conversion,First Outcome Reported,Shown Door (First Outcome),Displayed Image (First Outcome),outcomes.thisRepN,outcomes.thisTrialN,outcomes.thisN,outcomes.thisIndex,outcomes.ran,judgments.thisRepN,judgments.thisTrialN,judgments.thisN,judgments.thisIndex,judgments.ran,freqMouse.x,freqMouse.y,freqMouse.leftButton,freqMouse.midButton,freqMouse.rightButton,freqMouse.clicked_name,FQJ for first outcome,FQJ for second outcome,Shown Door,Displayed Image,trials.thisRepN,trials.thisTrialN,trials.thisN,trials.thisIndex,trials.ran,judgBlock.thisRepN,judgBlock.thisTrialN,judgBlock.thisN,judgBlock.thisIndex,judgBlock.ran
1,resources/DB.BMP,resources/DG.BMP,resources/DP.BMP,resources/DBN.BMP,resources/DR.BMP,resources/DY.BMP,,2023-08-16_08h34.16.995,HF_wild_card,2022.2.4,Win32,59.84798612,62b0567cdc9d1b36d234a319,64d2fd46c836a06233681665,64dc7be8348813c8bd4e572e,,,,,,,,,,,,,,,,,,,,,,,,,,,,,,,,,,,,,,,,,,,,,,,,,,,,,,,,,,,,,,,,
,,,,,,,,2023-08-16_08h34.16.995,HF_wild_card,2022.2.4,Win32,59.84798612,62b0567cdc9d1b36d234a319,64d2fd46c836a06233681665,64dc7be8348813c8bd4e572e,0.002777806,-0.424074102,1,0,0,agree,,,,,,,,,,,,,,,,,,,,,,,,,,,,,,,,,,,,,,,,,,,,,,,,,,,,,,,,,,
,,,,,,,,2023-08-16_08h34.16.995,HF_wild_card,2022.2.4,Win32,59.84798612,62b0567cdc9d1b36d234a319,64d2fd46c836a06233681665,64dc7be8348813c8bd4e572e,,,,,,,,,,,,,,,,,,,,,,,,,,,,,,,,,,,,,,,,,,,,,,,,,,,,,,,,,,,,,,,,
,,,,,,,,2023-08-16_08h34.16.995,HF_wild_card,2022.2.4,Win32,59.84798612,62b0567cdc9d1b36d234a319,64d2fd46c836a06233681665,64dc7be8348813c8bd4e572e,,,,,,,sngl,resources/DY.BMP,resources/Empty.png,WildCard_NonEx,-0.428703697,-0.068518533,1,0,0,1.5708,optionLeft,55,55,1,0,0,0,0,1,,,,,,,,,,,,,,,,,,,,,,,,,,,,,,,,,,,,,,,
,,,,,,,,2023-08-16_08h34.16.995,HF_wild_card,2022.2.4,Win32,59.84798612,62b0567cdc9d1b36d234a319,64d2fd46c836a06233681665,64dc7be8348813c8bd4e572e,,,,,,,decisionTrl,resources/DG.BMP,resources/DB.BMP,Door1,0.342592593,-0.034259266,1,0,0,1.4115,optionRight,30,85,1,1,0,1,0,1,,,,,,,,,,,,,,,,,,,,,,,,,,,,,,,,,,,,,,,
,,,,,,,,2023-08-16_08h34.16.995,HF_wild_card,2022.2.4,Win32,59.84798612,62b0567cdc9d1b36d234a319,64d2fd46c836a06233681665,64dc7be8348813c8bd4e572e,,,,,,,decisionTrl,resources/DB.BMP,resources/DG.BMP,Door2,0.404629601,-0.017592607,1,0,0,1.2793,optionRight,40,125,1,2,0,2,0,1,,,,,,,,,,,,,,,,,,,,,,,,,,,,,,,,,,,,,,,
,,,,,,,,2023-08-16_08h34.16.995,HF_wild_card,2022.2.4,Win32,59.84798612,62b0567cdc9d1b36d234a319,64d2fd46c836a06233681665,64dc7be8348813c8bd4e572e,,,,,,,decisionTrl,resources/DY.BMP,resources/DG.BMP,WildCard_NonEx,-0.339814822,-0.01666666,1,0,0,0.8627,optionLeft,45,170,1,3,0,3,0,1,,,,,,,,,,,,,,,,,,,,,,,,,,,,,,,,,,,,,,,
,,,,,,,,2023-08-16_08h34.16.995,HF_wild_card,2022.2.4,Win32,59.84798612,62b0567cdc9d1b36d234a319,64d2fd46c836a06233681665,64dc7be8348813c8bd4e572e,,,,,,,sngl,resources/Empty.png,resources/DB.BMP,Door1,0.343518575,-0.025925919,1,0,0,0.845200001,optionRight,30,200,1,4,0,4,0,1,,,,,,,,,,,,,,,,,,,,,,,,,,,,,,,,,,,,,,,
,,,,,,,,2023-08-16_08h34.16.995,HF_wild_card,2022.2.4,Win32,59.84798612,62b0567cdc9d1b36d234a319,64d2fd46c836a06233681665,64dc7be8348813c8bd4e572e,,,,,,,decisionTrl,resources/DB.BMP,resources/DG.BMP,Door2,0.407407407,-0.022222236,1,0,0,0.913,optionRight,40,240,1,5,0,5,0,1,,,,,,,,,,,,,,,,,,,,,,,,,,,,,,,,,,,,,,,
,,,,,,,,2023-08-16_08h34.16.995,HF_wild_card,2022.2.4,Win32,59.84798612,62b0567cdc9d1b36d234a319,64d2fd46c836a06233681665,64dc7be8348813c8bd4e572e,,,,,,,ctch,resources/DB.BMP,resources/DBN.BMP,Door1,-0.457407386,0.011111118,1,0,0,0.6119,optionLeft,30,270,1,6,0,6,0,1,,,,,,,,,,,,,,,,,,,,,,,,,,,,,,,,,,,,,,,
,,,,,,,,2023-08-16_08h34.16.995,HF_wild_card,2022.2.4,Win32,59.84798612,62b0567cdc9d1b36d234a319,64d2fd46c836a06233681665,64dc7be8348813c8bd4e572e,,,,,,,decisionTrl,resources/DB.BMP,resources/DG.BMP,Door2,0.341666751,0.008333312,1,0,0,0.8125,optionRight,20,290,1,7,0,7,0,1,,,,,,,,,,,,,,,,,,,,,,,,,,,,,,,,,,,,,,,
,,,,,,,,2023-08-16_08h34.16.995,HF_wild_card,2022.2.4,Win32,59.84798612,62b0567cdc9d1b36d234a319,64d2fd46c836a06233681665,64dc7be8348813c8bd4e572e,,,,,,,decisionTrl,resources/DG.BMP,resources/DB.BMP,Door2,-0.309259238,0.002777771,1,0,0,0.646,optionLeft,20,310,1,8,0,8,0,1,,,,,,,,,,,,,,,,,,,,,,,,,,,,,,,,,,,,,,,
,,,,,,,,2023-08-16_08h34.16.995,HF_wild_card,2022.2.4,Win32,59.84798612,62b0567cdc9d1b36d234a319,64d2fd46c836a06233681665,64dc7be8348813c8bd4e572e,,,,,,,sngl,resources/Empty.png,resources/DP.BMP,Door3,0.452777863,-0.003703718,1,0,0,0.579400001,optionRight,70,380,1,9,0,9,0,1,,,,,,,,,,,,,,,,,,,,,,,,,,,,,,,,,,,,,,,
,,,,,,,,2023-08-16_08h34.16.995,HF_wild_card,2022.2.4,Win32,59.84798612,62b0567cdc9d1b36d234a319,64d2fd46c836a06233681665,64dc7be8348813c8bd4e572e,,,,,,,decisionTrl,resources/DBN.BMP,resources/DP.BMP,Door3,0.428703732,-0.058333326,1,0,0,0.8297,optionRight,70,450,1,10,0,10,0,1,,,,,,,,,,,,,,,,,,,,,,,,,,,,,,,,,,,,,,,
,,,,,,,,2023-08-16_08h34.16.995,HF_wild_card,2022.2.4,Win32,59.84798612,62b0567cdc9d1b36d234a319,64d2fd46c836a06233681665,64dc7be8348813c8bd4e572e,,,,,,,decisionTrl,resources/DP.BMP,resources/DBN.BMP,Door3,-0.326851845,-0.010185206,1,0,0,1.795900001,optionLeft,70,520,1,11,0,11,0,1,,,,,,,,,,,,,,,,,,,,,,,,,,,,,,,,,,,,,,,
,,,,,,,,2023-08-16_08h34.16.995,HF_wild_card,2022.2.4,Win32,59.84798612,62b0567cdc9d1b36d234a319,64d2fd46c836a06233681665,64dc7be8348813c8bd4e572e,,,,,,,sngl,resources/DG.BMP,resources/Empty.png,Door2,-0.365740741,-0.00462963,1,0,0,1.2128,optionLeft,40,560,1,12,0,12,0,1,,,,,,,,,,,,,,,,,,,,,,,,,,,,,,,,,,,,,,,
,,,,,,,,2023-08-16_08h34.16.995,HF_wild_card,2022.2.4,Win32,59.84798612,62b0567cdc9d1b36d234a319,64d2fd46c836a06233681665,64dc7be8348813c8bd4e572e,,,,,,,decisionTrl,resources/DBN.BMP,resources/DP.BMP,Door4,-0.298148155,-0.025000007,1,0,0,0.996,optionLeft,60,620,1,13,0,13,0,1,,,,,,,,,,,,,,,,,,,,,,,,,,,,,,,,,,,,,,,
,,,,,,,,2023-08-16_08h34.16.995,HF_wild_card,2022.2.4,Win32,59.84798612,62b0567cdc9d1b36d234a319,64d2fd46c836a06233681665,64dc7be8348813c8bd4e572e,,,,,,,decisionTrl,resources/DP.BMP,resources/DBN.BMP,Door3,-0.170370384,-0.014814836,1,0,0,0.8127,optionLeft,70,690,1,14,0,14,0,1,,,,,,,,,,,,,,,,,,,,,,,,,,,,,,,,,,,,,,,
,,,,,,,,2023-08-16_08h34.16.995,HF_wild_card,2022.2.4,Win32,59.84798612,62b0567cdc9d1b36d234a319,64d2fd46c836a06233681665,64dc7be8348813c8bd4e572e,,,,,,,decisionTrl,resources/DG.BMP,resources/DY.BMP,WildCard_NonEx,0.40370376,-0.083333333,1,0,0,14.4782,optionRight,45,735,1,15,0,15,0,1,,,,,,,,,,,,,,,,,,,,,,,,,,,,,,,,,,,,,,,
,,,,,,,,2023-08-16_08h34.16.995,HF_wild_card,2022.2.4,Win32,59.84798612,62b0567cdc9d1b36d234a319,64d2fd46c836a06233681665,64dc7be8348813c8bd4e572e,,,,,,,sngl,resources/DBN.BMP,resources/Empty.png,Door4,-0.233333305,0.121296282,1,0,0,2.803599999,optionLeft,80,815,1,16,0,16,0,1,,,,,,,,,,,,,,,,,,,,,,,,,,,,,,,,,,,,,,,
,,,,,,,,2023-08-16_08h34.16.995,HF_wild_card,2022.2.4,Win32,59.84798612,62b0567cdc9d1b36d234a319,64d2fd46c836a06233681665,64dc7be8348813c8bd4e572e,,,,,,,ctch,resources/DB.BMP,resources/DBN.BMP,Door1,-0.274999972,-0.041666667,1,0,0,1.0343,optionLeft,30,845,1,17,0,17,0,1,,,,,,,,,,,,,,,,,,,,,,,,,,,,,,,,,,,,,,,
,,,,,,,,2023-08-16_08h34.16.995,HF_wild_card,2022.2.4,Win32,59.84798612,62b0567cdc9d1b36d234a319,64d2fd46c836a06233681665,64dc7be8348813c8bd4e572e,,,,,,,decisionTrl,resources/DBN.BMP,resources/DP.BMP,Door3,0.339814787,-0.042592614,1,0,0,0.7788,optionRight,70,915,1,18,0,18,0,1,,,,,,,,,,,,,,,,,,,,,,,,,,,,,,,,,,,,,,,
,,,,,,,,2023-08-16_08h34.16.995,HF_wild_card,2022.2.4,Win32,59.84798612,62b0567cdc9d1b36d234a319,64d2fd46c836a06233681665,64dc7be8348813c8bd4e572e,,,,,,,ctch,resources/DG.BMP,resources/DP.BMP,Door2,-0.326851845,0.006481489,1,0,0,0.7615,optionLeft,20,935,1,19,0,19,0,1,,,,,,,,,,,,,,,,,,,,,,,,,,,,,,,,,,,,,,,
,,,,,,,,2023-08-16_08h34.16.995,HF_wild_card,2022.2.4,Win32,59.84798612,62b0567cdc9d1b36d234a319,64d2fd46c836a06233681665,64dc7be8348813c8bd4e572e,,,,,,,ctch,resources/DP.BMP,resources/DG.BMP,Door3,-0.229629587,0.050925926,1,0,0,0.9362,optionLeft,70,1005,1,20,0,20,0,1,,,,,,,,,,,,,,,,,,,,,,,,,,,,,,,,,,,,,,,
,,,,,,,,2023-08-16_08h34.16.995,HF_wild_card,2022.2.4,Win32,59.84798612,62b0567cdc9d1b36d234a319,64d2fd46c836a06233681665,64dc7be8348813c8bd4e572e,,,,,,,sngl,resources/DB.BMP,resources/Empty.png,Door1,-0.375925912,0.046296296,1,0,0,0.7516,optionLeft,30,1035,1,21,0,21,0,1,,,,,,,,,,,,,,,,,,,,,,,,,,,,,,,,,,,,,,,
,,,,,,,,2023-08-16_08h34.16.995,HF_wild_card,2022.2.4,Win32,59.84798612,62b0567cdc9d1b36d234a319,64d2fd46c836a06233681665,64dc7be8348813c8bd4e572e,,,,,,,decisionTrl,resources/DY.BMP,resources/DP.BMP,Door3,0.380555612,-0.030555548,1,0,0,0.679,optionRight,70,1105,1,22,0,22,0,1,,,,,,,,,,,,,,,,,,,,,,,,,,,,,,,,,,,,,,,
,,,,,,,,2023-08-16_08h34.16.995,HF_wild_card,2022.2.4,Win32,59.84798612,62b0567cdc9d1b36d234a319,64d2fd46c836a06233681665,64dc7be8348813c8bd4e572e,,,,,,,decisionTrl,resources/DP.BMP,resources/DY.BMP,Door3,-0.340740734,-0.029629637,1,0,0,0.7113,optionLeft,70,1175,1,23,0,23,0,1,,,,,,,,,,,,,,,,,,,,,,,,,,,,,,,,,,,,,,,
,,,,,,,,2023-08-16_08h34.16.995,HF_wild_card,2022.2.4,Win32,59.84798612,62b0567cdc9d1b36d234a319,64d2fd46c836a06233681665,64dc7be8348813c8bd4e572e,,,,,,,sngl,resources/Empty.png,resources/DBN.BMP,Door4,0.428703732,-0.025925919,1,0,0,0.6113,optionRight,60,1235,1,24,0,24,0,1,,,,,,,,,,,,,,,,,,,,,,,,,,,,,,,,,,,,,,,
,,,,,,,,2023-08-16_08h34.16.995,HF_wild_card,2022.2.4,Win32,59.84798612,62b0567cdc9d1b36d234a319,64d2fd46c836a06233681665,64dc7be8348813c8bd4e572e,,,,,,,decisionTrl,resources/DBN.BMP,resources/DY.BMP,Door4,-0.271296254,-0.054629644,1,0,0,0.678,optionLeft,80,1315,1,25,0,25,0,1,,,,,,,,,,,,,,,,,,,,,,,,,,,,,,,,,,,,,,,
,,,,,,,,2023-08-16_08h34.16.995,HF_wild_card,2022.2.4,Win32,59.84798612,62b0567cdc9d1b36d234a319,64d2fd46c836a06233681665,64dc7be8348813c8bd4e572e,,,,,,,ctch,resources/DP.BMP,resources/DG.BMP,Door2,0.307407379,-0.044444437,1,0,0,0.8765,optionRight,20,1335,1,26,0,26,0,1,,,,,,,,,,,,,,,,,,,,,,,,,,,,,,,,,,,,,,,
,,,,,,,,2023-08-16_08h34.16.995,HF_wild_card,2022.2.4,Win32,59.84798612,62b0567cdc9d1b36d234a319,64d2fd46c836a06233681665,64dc7be8348813c8bd4e572e,,,,,,,decisionTrl,resources/DG.BMP,resources/DB.BMP,Door2,-0.336111104,-0.019444466,1,0,0,1.2628,optionLeft,40,1375,1,27,0,27,0,1,,,,,,,,,,,,,,,,,,,,,,,,,,,,,,,,,,,,,,,
,,,,,,,,2023-08-16_08h34.16.995,HF_wild_card,2022.2.4,Win32,59.84798612,62b0567cdc9d1b36d234a319,64d2fd46c836a06233681665,64dc7be8348813c8bd4e572e,,,,,,,decisionTrl,resources/DY.BMP,resources/DB.BMP,WildCard_NonEx,-0.390740748,-0.047222243,1,0,0,0.7292,optionLeft,45,1420,1,28,0,28,0,1,,,,,,,,,,,,,,,,,,,,,,,,,,,,,,,,,,,,,,,
,,,,,,,,2023-08-16_08h34.16.995,HF_wild_card,2022.2.4,Win32,59.84798612,62b0567cdc9d1b36d234a319,64d2fd46c836a06233681665,64dc7be8348813c8bd4e572e,,,,,,,ctch,resources/DG.BMP,resources/DP.BMP,Door3,0.464814787,-0.009259259,1,0,0,0.591099999,optionRight,70,1490,1,29,0,29,0,1,,,,,,,,,,,,,,,,,,,,,,,,,,,,,,,,,,,,,,,
,,,,,,,,2023-08-16_08h34.16.995,HF_wild_card,2022.2.4,Win32,59.84798612,62b0567cdc9d1b36d234a319,64d2fd46c836a06233681665,64dc7be8348813c8bd4e572e,,,,,,,decisionTrl,resources/DP.BMP,resources/DBN.BMP,Door4,0.394444501,-0.01666666,1,0,0,0.613099999,optionRight,80,1570,1,30,0,30,0,1,,,,,,,,,,,,,,,,,,,,,,,,,,,,,,,,,,,,,,,
,,,,,,,,2023-08-16_08h34.16.995,HF_wild_card,2022.2.4,Win32,59.84798612,62b0567cdc9d1b36d234a319,64d2fd46c836a06233681665,64dc7be8348813c8bd4e572e,,,,,,,decisionTrl,resources/DY.BMP,resources/DBN.BMP,Door4,0.410185213,-0.00462963,1,0,0,0.7461,optionRight,80,1650,1,31,0,31,0,1,,,,,,,,,,,,,,,,,,,,,,,,,,,,,,,,,,,,,,,
,,,,,,,,2023-08-16_08h34.16.995,HF_wild_card,2022.2.4,Win32,59.84798612,62b0567cdc9d1b36d234a319,64d2fd46c836a06233681665,64dc7be8348813c8bd4e572e,,,,,,,sngl,resources/Empty.png,resources/DG.BMP,Door2,0.354629658,-0.022222236,1,0,0,0.5735,optionRight,20,1670,1,32,0,32,0,1,,,,,,,,,,,,,,,,,,,,,,,,,,,,,,,,,,,,,,,
,,,,,,,,2023-08-16_08h34.16.995,HF_wild_card,2022.2.4,Win32,59.84798612,62b0567cdc9d1b36d234a319,64d2fd46c836a06233681665,64dc7be8348813c8bd4e572e,,,,,,,decisionTrl,resources/DG.BMP,resources/DB.BMP,Door2,-0.257407365,0.03148146,1,0,0,0.9626,optionLeft,20,1690,1,33,0,33,0,1,,,,,,,,,,,,,,,,,,,,,,,,,,,,,,,,,,,,,,,
,,,,,,,,2023-08-16_08h34.16.995,HF_wild_card,2022.2.4,Win32,59.84798612,62b0567cdc9d1b36d234a319,64d2fd46c836a06233681665,64dc7be8348813c8bd4e572e,,,,,,,sngl,resources/DY.BMP,resources/Empty.png,WildCard_NonEx,-0.203703704,0.001851859,1,0,0,0.8291,optionLeft,45,1735,1,34,0,34,0,1,,,,,,,,,,,,,,,,,,,,,,,,,,,,,,,,,,,,,,,
,,,,,,,,2023-08-16_08h34.16.995,HF_wild_card,2022.2.4,Win32,59.84798612,62b0567cdc9d1b36d234a319,64d2fd46c836a06233681665,64dc7be8348813c8bd4e572e,,,,,,,decisionTrl,resources/DP.BMP,resources/DBN.BMP,Door4,0.386111083,-0.012962977,1,0,0,0.9626,optionRight,80,1815,1,35,0,35,0,1,,,,,,,,,,,,,,,,,,,,,,,,,,,,,,,,,,,,,,,
,,,,,,,,2023-08-16_08h34.16.995,HF_wild_card,2022.2.4,Win32,59.84798612,62b0567cdc9d1b36d234a319,64d2fd46c836a06233681665,64dc7be8348813c8bd4e572e,,,,,,,sngl,resources/DP.BMP,resources/Empty.png,Door3,-0.267592607,-0.006481489,1,0,0,0.5795,optionLeft,70,1885,1,36,0,36,0,1,,,,,,,,,,,,,,,,,,,,,,,,,,,,,,,,,,,,,,,
,,,,,,,,2023-08-16_08h34.16.995,HF_wild_card,2022.2.4,Win32,59.84798612,62b0567cdc9d1b36d234a319,64d2fd46c836a06233681665,64dc7be8348813c8bd4e572e,,,,,,,decisionTrl,resources/DB.BMP,resources/DG.BMP,Door2,0.475926011,0.039814808,1,0,0,0.696400001,optionRight,20,1905,1,37,0,37,0,1,,,,,,,,,,,,,,,,,,,,,,,,,,,,,,,,,,,,,,,
,,,,,,,,2023-08-16_08h34.16.995,HF_wild_card,2022.2.4,Win32,59.84798612,62b0567cdc9d1b36d234a319,64d2fd46c836a06233681665,64dc7be8348813c8bd4e572e,,,,,,,decisionTrl,resources/DBN.BMP,resources/DP.BMP,Door4,-0.27870369,-0.0074074,1,0,0,0.9622,optionLeft,80,1985,1,38,0,38,0,1,,,,,,,,,,,,,,,,,,,,,,,,,,,,,,,,,,,,,,,
,,,,,,,,2023-08-16_08h34.16.995,HF_wild_card,2022.2.4,Win32,59.84798612,62b0567cdc9d1b36d234a319,64d2fd46c836a06233681665,64dc7be8348813c8bd4e572e,,,,,,,ctch,resources/DBN.BMP,resources/DB.BMP,Door4,-0.296296296,0.081481474,1,0,0,2.0959,optionLeft,80,2065,1,39,0,39,0,1,,,,,,,,,,,,,,,,,,,,,,,,,,,,,,,,,,,,,,,
,,,,,,,,2023-08-16_08h34.16.995,HF_wild_card,2022.2.4,Win32,59.84798612,62b0567cdc9d1b36d234a319,64d2fd46c836a06233681665,64dc7be8348813c8bd4e572e,,,,,,,decisionTrl,resources/DB.BMP,resources/DY.BMP,WildCard_NonEx,0.400925954,0.03611109,1,0,0,4.5135,optionRight,45,2110,1,40,0,40,0,1,,,,,,,,,,,,,,,,,,,,,,,,,,,,,,,,,,,,,,,
,,,,,,,,2023-08-16_08h34.16.995,HF_wild_card,2022.2.4,Win32,59.84798612,62b0567cdc9d1b36d234a319,64d2fd46c836a06233681665,64dc7be8348813c8bd4e572e,,,,,,,sngl,resources/Empty.png,resources/DY.BMP,WildCard_NonEx,0.458333333,0.025925919,1,0,0,0.629900001,optionRight,55,2165,1,41,0,41,0,1,,,,,,,,,,,,,,,,,,,,,,,,,,,,,,,,,,,,,,,
,,,,,,,,2023-08-16_08h34.16.995,HF_wild_card,2022.2.4,Win32,59.84798612,62b0567cdc9d1b36d234a319,64d2fd46c836a06233681665,64dc7be8348813c8bd4e572e,,,,,,,sngl,resources/Empty.png,resources/DY.BMP,WildCard_NonEx,0.437962991,-0.032407407,1,0,0,0.53,optionRight,45,2210,1,42,0,42,0,1,,,,,,,,,,,,,,,,,,,,,,,,,,,,,,,,,,,,,,,
,,,,,,,,2023-08-16_08h34.16.995,HF_wild_card,2022.2.4,Win32,59.84798612,62b0567cdc9d1b36d234a319,64d2fd46c836a06233681665,64dc7be8348813c8bd4e572e,,,,,,,ctch,resources/DBN.BMP,resources/DB.BMP,Door4,-0.300925926,0.002777771,1,0,0,0.7795,optionLeft,60,2270,1,43,0,43,0,1,,,,,,,,,,,,,,,,,,,,,,,,,,,,,,,,,,,,,,,
,,,,,,,,2023-08-16_08h34.16.995,HF_wild_card,2022.2.4,Win32,59.84798612,62b0567cdc9d1b36d234a319,64d2fd46c836a06233681665,64dc7be8348813c8bd4e572e,,,,,,,,,,,,,,,,,,,,,,,,,,0,0,0,0,1,,,,,,,,,,,,,,,,,,,,,,,,,,,,,,,,,,
,,,,,,,,2023-08-16_08h34.16.995,HF_wild_card,2022.2.4,Win32,59.84798612,62b0567cdc9d1b36d234a319,64d2fd46c836a06233681665,64dc7be8348813c8bd4e572e,,,,,,,ctch,resources/DP.BMP,resources/DG.BMP,Door3,-0.297222208,-0.040740755,1,0,0,0.788099999,optionLeft,70,2340,2,0,0,0,0,1,,,,,,,,,,,,,,,,,,,,,,,,,,,,,,,,,,,,,,,
,,,,,,,,2023-08-16_08h34.16.995,HF_wild_card,2022.2.4,Win32,59.84798612,62b0567cdc9d1b36d234a319,64d2fd46c836a06233681665,64dc7be8348813c8bd4e572e,,,,,,,decisionTrl,resources/DB.BMP,resources/DG.BMP,Door1,-0.259259259,-0.049074067,1,0,0,0.929,optionLeft,30,2370,2,1,0,1,0,1,,,,,,,,,,,,,,,,,,,,,,,,,,,,,,,,,,,,,,,
,,,,,,,,2023-08-16_08h34.16.995,HF_wild_card,2022.2.4,Win32,59.84798612,62b0567cdc9d1b36d234a319,64d2fd46c836a06233681665,64dc7be8348813c8bd4e572e,,,,,,,decisionTrl,resources/DY.BMP,resources/DB.BMP,WildCard_NonEx,-0.368518511,-0.014814836,1,0,0,17.1397,optionLeft,55,2425,2,2,0,2,0,1,,,,,,,,,,,,,,,,,,,,,,,,,,,,,,,,,,,,,,,
,,,,,,,,2023-08-16_08h34.16.995,HF_wild_card,2022.2.4,Win32,59.84798612,62b0567cdc9d1b36d234a319,64d2fd46c836a06233681665,64dc7be8348813c8bd4e572e,,,,,,,ctch,resources/DBN.BMP,resources/DB.BMP,Door4,-0.157407407,0.055555556,1,0,0,1.013200001,optionLeft,80,2505,2,3,0,3,0,1,,,,,,,,,,,,,,,,,,,,,,,,,,,,,,,,,,,,,,,
,,,,,,,,2023-08-16_08h34.16.995,HF_wild_card,2022.2.4,Win32,59.84798612,62b0567cdc9d1b36d234a319,64d2fd46c836a06233681665,64dc7be8348813c8bd4e572e,,,,,,,sngl,resources/Empty.png,resources/DG.BMP,Door2,0.283333319,-0.032407407,1,0,0,0.7958,optionRight,40,2545,2,4,0,4,0,1,,,,,,,,,,,,,,,,,,,,,,,,,,,,,,,,,,,,,,,
,,,,,,,,2023-08-16_08h34.16.995,HF_wild_card,2022.2.4,Win32,59.84798612,62b0567cdc9d1b36d234a319,64d2fd46c836a06233681665,64dc7be8348813c8bd4e572e,,,,,,,sngl,resources/DB.BMP,resources/Empty.png,Door1,-0.420370349,-0.019444466,1,0,0,0.5629,optionLeft,30,2575,2,5,0,5,0,1,,,,,,,,,,,,,,,,,,,,,,,,,,,,,,,,,,,,,,,
,,,,,,,,2023-08-16_08h34.16.995,HF_wild_card,2022.2.4,Win32,59.84798612,62b0567cdc9d1b36d234a319,64d2fd46c836a06233681665,64dc7be8348813c8bd4e572e,,,,,,,ctch,resources/DG.BMP,resources/DP.BMP,Door3,0.192592621,0.020370377,1,0,0,0.6777,optionRight,70,2645,2,6,0,6,0,1,,,,,,,,,,,,,,,,,,,,,,,,,,,,,,,,,,,,,,,
,,,,,,,,2023-08-16_08h34.16.995,HF_wild_card,2022.2.4,Win32,59.84798612,62b0567cdc9d1b36d234a319,64d2fd46c836a06233681665,64dc7be8348813c8bd4e572e,,,,,,,sngl,resources/Empty.png,resources/DY.BMP,WildCard_NonEx,0.238888917,-0.005555577,1,0,0,0.7114,optionRight,45,2690,2,7,0,7,0,1,,,,,,,,,,,,,,,,,,,,,,,,,,,,,,,,,,,,,,,
,,,,,,,,2023-08-16_08h34.16.995,HF_wild_card,2022.2.4,Win32,59.84798612,62b0567cdc9d1b36d234a319,64d2fd46c836a06233681665,64dc7be8348813c8bd4e572e,,,,,,,decisionTrl,resources/DG.BMP,resources/DY.BMP,Door2,-0.259259259,-0.013888889,1,0,0,0.795200001,optionLeft,20,2710,2,8,0,8,0,1,,,,,,,,,,,,,,,,,,,,,,,,,,,,,,,,,,,,,,,
,,,,,,,,2023-08-16_08h34.16.995,HF_wild_card,2022.2.4,Win32,59.84798612,62b0567cdc9d1b36d234a319,64d2fd46c836a06233681665,64dc7be8348813c8bd4e572e,,,,,,,sngl,resources/Empty.png,resources/DY.BMP,WildCard_NonEx,0.238888917,-0.013888889,1,0,0,0.7183,optionRight,55,2765,2,9,0,9,0,1,,,,,,,,,,,,,,,,,,,,,,,,,,,,,,,,,,,,,,,
,,,,,,,,2023-08-16_08h34.16.995,HF_wild_card,2022.2.4,Win32,59.84798612,62b0567cdc9d1b36d234a319,64d2fd46c836a06233681665,64dc7be8348813c8bd4e572e,,,,,,,decisionTrl,resources/DY.BMP,resources/DBN.BMP,Door4,0.444444444,0,1,0,0,0.9783,optionRight,80,2845,2,10,0,10,0,1,,,,,,,,,,,,,,,,,,,,,,,,,,,,,,,,,,,,,,,
,,,,,,,,2023-08-16_08h34.16.995,HF_wild_card,2022.2.4,Win32,59.84798612,62b0567cdc9d1b36d234a319,64d2fd46c836a06233681665,64dc7be8348813c8bd4e572e,,,,,,,decisionTrl,resources/DB.BMP,resources/DY.BMP,WildCard_NonEx,0.400925954,-0.001851859,1,0,0,0.756299999,optionRight,45,2890,2,11,0,11,0,1,,,,,,,,,,,,,,,,,,,,,,,,,,,,,,,,,,,,,,,
,,,,,,,,2023-08-16_08h34.16.995,HF_wild_card,2022.2.4,Win32,59.84798612,62b0567cdc9d1b36d234a319,64d2fd46c836a06233681665,64dc7be8348813c8bd4e572e,,,,,,,decisionTrl,resources/DBN.BMP,resources/DP.BMP,Door4,-0.307407414,0.01203703,1,0,0,1.0213,optionLeft,60,2950,2,12,0,12,0,1,,,,,,,,,,,,,,,,,,,,,,,,,,,,,,,,,,,,,,,
,,,,,,,,2023-08-16_08h34.16.995,HF_wild_card,2022.2.4,Win32,59.84798612,62b0567cdc9d1b36d234a319,64d2fd46c836a06233681665,64dc7be8348813c8bd4e572e,,,,,,,decisionTrl,resources/DBN.BMP,resources/DY.BMP,Door4,-0.438888868,0.04074072,1,0,0,2.1459,optionLeft,80,3030,2,13,0,13,0,1,,,,,,,,,,,,,,,,,,,,,,,,,,,,,,,,,,,,,,,
,,,,,,,,2023-08-16_08h34.16.995,HF_wild_card,2022.2.4,Win32,59.84798612,62b0567cdc9d1b36d234a319,64d2fd46c836a06233681665,64dc7be8348813c8bd4e572e,,,,,,,decisionTrl,resources/DBN.BMP,resources/DP.BMP,Door4,-0.324999986,0.0074074,1,0,0,0.938900001,optionLeft,60,3090,2,14,0,14,0,1,,,,,,,,,,,,,,,,,,,,,,,,,,,,,,,,,,,,,,,
,,,,,,,,2023-08-16_08h34.16.995,HF_wild_card,2022.2.4,Win32,59.84798612,62b0567cdc9d1b36d234a319,64d2fd46c836a06233681665,64dc7be8348813c8bd4e572e,,,,,,,sngl,resources/DBN.BMP,resources/Empty.png,Door4,-0.184259273,0.026851831,1,0,0,0.7452,optionLeft,60,3150,2,15,0,15,0,1,,,,,,,,,,,,,,,,,,,,,,,,,,,,,,,,,,,,,,,
,,,,,,,,2023-08-16_08h34.16.995,HF_wild_card,2022.2.4,Win32,59.84798612,62b0567cdc9d1b36d234a319,64d2fd46c836a06233681665,64dc7be8348813c8bd4e572e,,,,,,,decisionTrl,resources/DP.BMP,resources/DBN.BMP,Door4,0.186111097,0.003703683,1,0,0,0.912,optionRight,60,3210,2,16,0,16,0,1,,,,,,,,,,,,,,,,,,,,,,,,,,,,,,,,,,,,,,,
,,,,,,,,2023-08-16_08h34.16.995,HF_wild_card,2022.2.4,Win32,59.84798612,62b0567cdc9d1b36d234a319,64d2fd46c836a06233681665,64dc7be8348813c8bd4e572e,,,,,,,sngl,resources/DG.BMP,resources/Empty.png,Door2,-0.196296268,0.014814801,1,0,0,0.728200001,optionLeft,20,3230,2,17,0,17,0,1,,,,,,,,,,,,,,,,,,,,,,,,,,,,,,,,,,,,,,,
,,,,,,,,2023-08-16_08h34.16.995,HF_wild_card,2022.2.4,Win32,59.84798612,62b0567cdc9d1b36d234a319,64d2fd46c836a06233681665,64dc7be8348813c8bd4e572e,,,,,,,decisionTrl,resources/DBN.BMP,resources/DP.BMP,Door4,-0.277777778,-0.008333347,1,0,0,1.0277,optionLeft,60,3290,2,18,0,18,0,1,,,,,,,,,,,,,,,,,,,,,,,,,,,,,,,,,,,,,,,
,,,,,,,,2023-08-16_08h34.16.995,HF_wild_card,2022.2.4,Win32,59.84798612,62b0567cdc9d1b36d234a319,64d2fd46c836a06233681665,64dc7be8348813c8bd4e572e,,,,,,,ctch,resources/DP.BMP,resources/DG.BMP,Door3,-0.214814787,0.0074074,1,0,0,0.677900001,optionLeft,70,3360,2,19,0,19,0,1,,,,,,,,,,,,,,,,,,,,,,,,,,,,,,,,,,,,,,,
,,,,,,,,2023-08-16_08h34.16.995,HF_wild_card,2022.2.4,Win32,59.84798612,62b0567cdc9d1b36d234a319,64d2fd46c836a06233681665,64dc7be8348813c8bd4e572e,,,,,,,ctch,resources/DBN.BMP,resources/DB.BMP,Door4,-0.212962963,0.032407407,1,0,0,0.8948,optionLeft,60,3420,2,20,0,20,0,1,,,,,,,,,,,,,,,,,,,,,,,,,,,,,,,,,,,,,,,
,,,,,,,,2023-08-16_08h34.16.995,HF_wild_card,2022.2.4,Win32,59.84798612,62b0567cdc9d1b36d234a319,64d2fd46c836a06233681665,64dc7be8348813c8bd4e572e,,,,,,,decisionTrl,resources/DBN.BMP,resources/DP.BMP,Door4,-0.19722218,-0.033333355,1,0,0,0.895900001,optionLeft,60,3480,2,21,0,21,0,1,,,,,,,,,,,,,,,,,,,,,,,,,,,,,,,,,,,,,,,
,,,,,,,,2023-08-16_08h34.16.995,HF_wild_card,2022.2.4,Win32,59.84798612,62b0567cdc9d1b36d234a319,64d2fd46c836a06233681665,64dc7be8348813c8bd4e572e,,,,,,,decisionTrl,resources/DB.BMP,resources/DG.BMP,Door1,-0.167592578,-0.074074074,1,0,0,1.7119,optionLeft,30,3510,2,22,0,22,0,1,,,,,,,,,,,,,,,,,,,,,,,,,,,,,,,,,,,,,,,
,,,,,,,,2023-08-16_08h34.16.995,HF_wild_card,2022.2.4,Win32,59.84798612,62b0567cdc9d1b36d234a319,64d2fd46c836a06233681665,64dc7be8348813c8bd4e572e,,,,,,,decisionTrl,resources/DP.BMP,resources/DBN.BMP,Door4,0.462037122,0.046296296,1,0,0,1.394599999,optionRight,80,3590,2,23,0,23,0,1,,,,,,,,,,,,,,,,,,,,,,,,,,,,,,,,,,,,,,,
,,,,,,,,2023-08-16_08h34.16.995,HF_wild_card,2022.2.4,Win32,59.84798612,62b0567cdc9d1b36d234a319,64d2fd46c836a06233681665,64dc7be8348813c8bd4e572e,,,,,,,sngl,resources/DY.BMP,resources/Empty.png,WildCard_NonEx,-0.290740755,-0.039814808,1,0,0,0.6452,optionLeft,55,3645,2,24,0,24,0,1,,,,,,,,,,,,,,,,,,,,,,,,,,,,,,,,,,,,,,,
,,,,,,,,2023-08-16_08h34.16.995,HF_wild_card,2022.2.4,Win32,59.84798612,62b0567cdc9d1b36d234a319,64d2fd46c836a06233681665,64dc7be8348813c8bd4e572e,,,,,,,sngl,resources/DY.BMP,resources/Empty.png,WildCard_NonEx,-0.189814815,-0.057407414,1,0,0,0.620099999,optionLeft,45,3690,2,25,0,25,0,1,,,,,,,,,,,,,,,,,,,,,,,,,,,,,,,,,,,,,,,
,,,,,,,,2023-08-16_08h34.16.995,HF_wild_card,2022.2.4,Win32,59.84798612,62b0567cdc9d1b36d234a319,64d2fd46c836a06233681665,64dc7be8348813c8bd4e572e,,,,,,,decisionTrl,resources/DG.BMP,resources/DB.BMP,Door1,0.425925926,-0.081481474,1,0,0,9.360599999,optionRight,30,3720,2,26,0,26,0,1,,,,,,,,,,,,,,,,,,,,,,,,,,,,,,,,,,,,,,,
,,,,,,,,2023-08-16_08h34.16.995,HF_wild_card,2022.2.4,Win32,59.84798612,62b0567cdc9d1b36d234a319,64d2fd46c836a06233681665,64dc7be8348813c8bd4e572e,,,,,,,decisionTrl,resources/DP.BMP,resources/DBN.BMP,Door4,0.168518561,0.034259266,1,0,0,1.4958,optionRight,80,3800,2,27,0,27,0,1,,,,,,,,,,,,,,,,,,,,,,,,,,,,,,,,,,,,,,,
,,,,,,,,2023-08-16_08h34.16.995,HF_wild_card,2022.2.4,Win32,59.84798612,62b0567cdc9d1b36d234a319,64d2fd46c836a06233681665,64dc7be8348813c8bd4e572e,,,,,,,ctch,resources/DB.BMP,resources/DBN.BMP,Door4,0.229629658,0.029629637,1,0,0,0.9614,optionRight,60,3860,2,28,0,28,0,1,,,,,,,,,,,,,,,,,,,,,,,,,,,,,,,,,,,,,,,
,,,,,,,,2023-08-16_08h34.16.995,HF_wild_card,2022.2.4,Win32,59.84798612,62b0567cdc9d1b36d234a319,64d2fd46c836a06233681665,64dc7be8348813c8bd4e572e,,,,,,,decisionTrl,resources/DP.BMP,resources/DY.BMP,Door3,-0.251851824,-0.042592614,1,0,0,0.7295,optionLeft,70,3930,2,29,0,29,0,1,,,,,,,,,,,,,,,,,,,,,,,,,,,,,,,,,,,,,,,
,,,,,,,,2023-08-16_08h34.16.995,HF_wild_card,2022.2.4,Win32,59.84798612,62b0567cdc9d1b36d234a319,64d2fd46c836a06233681665,64dc7be8348813c8bd4e572e,,,,,,,decisionTrl,resources/DB.BMP,resources/DG.BMP,Door1,-0.151851866,-0.039814808,1,0,0,3.008,optionLeft,30,3960,2,30,0,30,0,1,,,,,,,,,,,,,,,,,,,,,,,,,,,,,,,,,,,,,,,
,,,,,,,,2023-08-16_08h34.16.995,HF_wild_card,2022.2.4,Win32,59.84798612,62b0567cdc9d1b36d234a319,64d2fd46c836a06233681665,64dc7be8348813c8bd4e572e,,,,,,,ctch,resources/DB.BMP,resources/DBN.BMP,Door4,0.162037037,0.002777771,1,0,0,0.8283,optionRight,80,4040,2,31,0,31,0,1,,,,,,,,,,,,,,,,,,,,,,,,,,,,,,,,,,,,,,,
,,,,,,,,2023-08-16_08h34.16.995,HF_wild_card,2022.2.4,Win32,59.84798612,62b0567cdc9d1b36d234a319,64d2fd46c836a06233681665,64dc7be8348813c8bd4e572e,,,,,,,decisionTrl,resources/DB.BMP,resources/DG.BMP,Door1,-0.222222222,-0.075925933,1,0,0,2.644599999,optionLeft,30,4070,2,32,0,32,0,1,,,,,,,,,,,,,,,,,,,,,,,,,,,,,,,,,,,,,,,
,,,,,,,,2023-08-16_08h34.16.995,HF_wild_card,2022.2.4,Win32,59.84798612,62b0567cdc9d1b36d234a319,64d2fd46c836a06233681665,64dc7be8348813c8bd4e572e,,,,,,,ctch,resources/DG.BMP,resources/DP.BMP,Door3,0.209259245,-0.022222236,1,0,0,0.8958,optionRight,70,4140,2,33,0,33,0,1,,,,,,,,,,,,,,,,,,,,,,,,,,,,,,,,,,,,,,,
,,,,,,,,2023-08-16_08h34.16.995,HF_wild_card,2022.2.4,Win32,59.84798612,62b0567cdc9d1b36d234a319,64d2fd46c836a06233681665,64dc7be8348813c8bd4e572e,,,,,,,decisionTrl,resources/DG.BMP,resources/DB.BMP,Door1,0.235185199,-0.031481496,1,0,0,0.6285,optionRight,30,4170,2,34,0,34,0,1,,,,,,,,,,,,,,,,,,,,,,,,,,,,,,,,,,,,,,,
,,,,,,,,2023-08-16_08h34.16.995,HF_wild_card,2022.2.4,Win32,59.84798612,62b0567cdc9d1b36d234a319,64d2fd46c836a06233681665,64dc7be8348813c8bd4e572e,,,,,,,sngl,resources/Empty.png,resources/DBN.BMP,Door4,0.248148176,0.023148148,1,0,0,0.662099999,optionRight,80,4250,2,35,0,35,0,1,,,,,,,,,,,,,,,,,,,,,,,,,,,,,,,,,,,,,,,
,,,,,,,,2023-08-16_08h34.16.995,HF_wild_card,2022.2.4,Win32,59.84798612,62b0567cdc9d1b36d234a319,64d2fd46c836a06233681665,64dc7be8348813c8bd4e572e,,,,,,,decisionTrl,resources/DG.BMP,resources/DB.BMP,Door1,0.169444473,-0.071296303,1,0,0,1.3612,optionRight,30,4280,2,36,0,36,0,1,,,,,,,,,,,,,,,,,,,,,,,,,,,,,,,,,,,,,,,
,,,,,,,,2023-08-16_08h34.16.995,HF_wild_card,2022.2.4,Win32,59.84798612,62b0567cdc9d1b36d234a319,64d2fd46c836a06233681665,64dc7be8348813c8bd4e572e,,,,,,,sngl,resources/Empty.png,resources/DP.BMP,Door3,0.405555584,-0.050925926,1,0,0,0.6318,optionRight,70,4350,2,37,0,37,0,1,,,,,,,,,,,,,,,,,,,,,,,,,,,,,,,,,,,,,,,
,,,,,,,,2023-08-16_08h34.16.995,HF_wild_card,2022.2.4,Win32,59.84798612,62b0567cdc9d1b36d234a319,64d2fd46c836a06233681665,64dc7be8348813c8bd4e572e,,,,,,,sngl,resources/DP.BMP,resources/Empty.png,Door3,-0.163888861,-0.057407414,1,0,0,0.5948,optionLeft,70,4420,2,38,0,38,0,1,,,,,,,,,,,,,,,,,,,,,,,,,,,,,,,,,,,,,,,
,,,,,,,,2023-08-16_08h34.16.995,HF_wild_card,2022.2.4,Win32,59.84798612,62b0567cdc9d1b36d234a319,64d2fd46c836a06233681665,64dc7be8348813c8bd4e572e,,,,,,,decisionTrl,resources/DY.BMP,resources/DP.BMP,Door3,0.266666695,-0.024074095,1,0,0,1.4796,optionRight,70,4490,2,39,0,39,0,1,,,,,,,,,,,,,,,,,,,,,,,,,,,,,,,,,,,,,,,
,,,,,,,,2023-08-16_08h34.16.995,HF_wild_card,2022.2.4,Win32,59.84798612,62b0567cdc9d1b36d234a319,64d2fd46c836a06233681665,64dc7be8348813c8bd4e572e,,,,,,,decisionTrl,resources/DG.BMP,resources/DB.BMP,Door1,0.352777834,-0.012962977,1,0,0,1.2112,optionRight,30,4520,2,40,0,40,0,1,,,,,,,,,,,,,,,,,,,,,,,,,,,,,,,,,,,,,,,
,,,,,,,,2023-08-16_08h34.16.995,HF_wild_card,2022.2.4,Win32,59.84798612,62b0567cdc9d1b36d234a319,64d2fd46c836a06233681665,64dc7be8348813c8bd4e572e,,,,,,,decisionTrl,resources/DP.BMP,resources/DBN.BMP,Door4,0.387037065,0.029629637,1,0,0,1.1115,optionRight,60,4580,2,41,0,41,0,1,,,,,,,,,,,,,,,,,,,,,,,,,,,,,,,,,,,,,,,
,,,,,,,,2023-08-16_08h34.16.995,HF_wild_card,2022.2.4,Win32,59.84798612,62b0567cdc9d1b36d234a319,64d2fd46c836a06233681665,64dc7be8348813c8bd4e572e,,,,,,,sngl,resources/Empty.png,resources/DB.BMP,Door1,0.502777806,0.081481474,1,0,0,1.1445,optionRight,30,4610,2,42,0,42,0,1,,,,,,,,,,,,,,,,,,,,,,,,,,,,,,,,,,,,,,,
,,,,,,,,2023-08-16_08h34.16.995,HF_wild_card,2022.2.4,Win32,59.84798612,62b0567cdc9d1b36d234a319,64d2fd46c836a06233681665,64dc7be8348813c8bd4e572e,,,,,,,decisionTrl,resources/DY.BMP,resources/DG.BMP,Door2,0.27407406,0.03148146,1,0,0,1.661900001,optionRight,20,4630,2,43,0,43,0,1,,,,,,,,,,,,,,,,,,,,,,,,,,,,,,,,,,,,,,,
,,,,,,,,2023-08-16_08h34.16.995,HF_wild_card,2022.2.4,Win32,59.84798612,62b0567cdc9d1b36d234a319,64d2fd46c836a06233681665,64dc7be8348813c8bd4e572e,,,,,,,,,,,,,,,,,,,,,,,,,,1,0,1,0,1,,,,,,,,,,,,,,,,,,,,,,,,,,,,,,,,,,
,,,,,,,,2023-08-16_08h34.16.995,HF_wild_card,2022.2.4,Win32,59.84798612,62b0567cdc9d1b36d234a319,64d2fd46c836a06233681665,64dc7be8348813c8bd4e572e,,,,,,,decisionTrl,resources/DB.BMP,resources/DG.BMP,Door1,-0.143518519,-0.041666667,1,0,0,0.969,optionLeft,30,4660,3,0,0,0,0,1,,,,,,,,,,,,,,,,,,,,,,,,,,,,,,,,,,,,,,,
,,,,,,,,2023-08-16_08h34.16.995,HF_wild_card,2022.2.4,Win32,59.84798612,62b0567cdc9d1b36d234a319,64d2fd46c836a06233681665,64dc7be8348813c8bd4e572e,,,,,,,decisionTrl,resources/DBN.BMP,resources/DY.BMP,Door4,-0.296296296,-0.014814836,1,0,0,0.779,optionLeft,80,4740,3,1,0,1,0,1,,,,,,,,,,,,,,,,,,,,,,,,,,,,,,,,,,,,,,,
,,,,,,,,2023-08-16_08h34.16.995,HF_wild_card,2022.2.4,Win32,59.84798612,62b0567cdc9d1b36d234a319,64d2fd46c836a06233681665,64dc7be8348813c8bd4e572e,,,,,,,decisionTrl,resources/DB.BMP,resources/DG.BMP,Door1,-0.193518533,-0.023148148,1,0,0,2.0938,optionLeft,30,4770,3,2,0,2,0,1,,,,,,,,,,,,,,,,,,,,,,,,,,,,,,,,,,,,,,,
,,,,,,,,2023-08-16_08h34.16.995,HF_wild_card,2022.2.4,Win32,59.84798612,62b0567cdc9d1b36d234a319,64d2fd46c836a06233681665,64dc7be8348813c8bd4e572e,,,,,,,sngl,resources/DB.BMP,resources/Empty.png,Door1,-0.249074088,-0.035185178,1,0,0,0.561700001,optionLeft,30,4800,3,3,0,3,0,1,,,,,,,,,,,,,,,,,,,,,,,,,,,,,,,,,,,,,,,
,,,,,,,,2023-08-16_08h34.16.995,HF_wild_card,2022.2.4,Win32,59.84798612,62b0567cdc9d1b36d234a319,64d2fd46c836a06233681665,64dc7be8348813c8bd4e572e,,,,,,,decisionTrl,resources/DP.BMP,resources/DBN.BMP,Door4,0.346296381,0.01203703,1,0,0,1.0282,optionRight,80,4880,3,4,0,4,0,1,,,,,,,,,,,,,,,,,,,,,,,,,,,,,,,,,,,,,,,
,,,,,,,,2023-08-16_08h34.16.995,HF_wild_card,2022.2.4,Win32,59.84798612,62b0567cdc9d1b36d234a319,64d2fd46c836a06233681665,64dc7be8348813c8bd4e572e,,,,,,,decisionTrl,resources/DB.BMP,resources/DG.BMP,Door1,-0.23055557,-0.051851873,1,0,0,0.6286,optionLeft,30,4910,3,5,0,5,0,1,,,,,,,,,,,,,,,,,,,,,,,,,,,,,,,,,,,,,,,
,,,,,,,,2023-08-16_08h34.16.995,HF_wild_card,2022.2.4,Win32,59.84798612,62b0567cdc9d1b36d234a319,64d2fd46c836a06233681665,64dc7be8348813c8bd4e572e,,,,,,,decisionTrl,resources/DY.BMP,resources/DB.BMP,Door1,0.284259302,-0.034259266,1,0,0,1.3444,optionRight,30,4940,3,6,0,6,0,1,,,,,,,,,,,,,,,,,,,,,,,,,,,,,,,,,,,,,,,
,,,,,,,,2023-08-16_08h34.16.995,HF_wild_card,2022.2.4,Win32,59.84798612,62b0567cdc9d1b36d234a319,64d2fd46c836a06233681665,64dc7be8348813c8bd4e572e,,,,,,,decisionTrl,resources/DBN.BMP,resources/DP.BMP,Door4,-0.126851824,-0.039814808,1,0,0,0.9776,optionLeft,80,5020,3,7,0,7,0,1,,,,,,,,,,,,,,,,,,,,,,,,,,,,,,,,,,,,,,,
,,,,,,,,2023-08-16_08h34.16.995,HF_wild_card,2022.2.4,Win32,59.84798612,62b0567cdc9d1b36d234a319,64d2fd46c836a06233681665,64dc7be8348813c8bd4e572e,,,,,,,sngl,resources/Empty.png,resources/DB.BMP,Door1,0.187037079,-0.010185206,1,0,0,0.66,optionRight,30,5050,3,8,0,8,0,1,,,,,,,,,,,,,,,,,,,,,,,,,,,,,,,,,,,,,,,
,,,,,,,,2023-08-16_08h34.16.995,HF_wild_card,2022.2.4,Win32,59.84798612,62b0567cdc9d1b36d234a319,64d2fd46c836a06233681665,64dc7be8348813c8bd4e572e,,,,,,,ctch,resources/DBN.BMP,resources/DB.BMP,Door4,-0.116666653,-0.018518519,1,0,0,0.678,optionLeft,60,5110,3,9,0,9,0,1,,,,,,,,,,,,,,,,,,,,,,,,,,,,,,,,,,,,,,,
,,,,,,,,2023-08-16_08h34.16.995,HF_wild_card,2022.2.4,Win32,59.84798612,62b0567cdc9d1b36d234a319,64d2fd46c836a06233681665,64dc7be8348813c8bd4e572e,,,,,,,sngl,resources/DBN.BMP,resources/Empty.png,Door4,-0.117592564,0.011111118,1,0,0,0.694900001,optionLeft,80,5190,3,10,0,10,0,1,,,,,,,,,,,,,,,,,,,,,,,,,,,,,,,,,,,,,,,
,,,,,,,,2023-08-16_08h34.16.995,HF_wild_card,2022.2.4,Win32,59.84798612,62b0567cdc9d1b36d234a319,64d2fd46c836a06233681665,64dc7be8348813c8bd4e572e,,,,,,,ctch,resources/DP.BMP,resources/DG.BMP,Door3,-0.262036995,-0.020370377,1,0,0,0.6623,optionLeft,70,5260,3,11,0,11,0,1,,,,,,,,,,,,,,,,,,,,,,,,,,,,,,,,,,,,,,,
,,,,,,,,2023-08-16_08h34.16.995,HF_wild_card,2022.2.4,Win32,59.84798612,62b0567cdc9d1b36d234a319,64d2fd46c836a06233681665,64dc7be8348813c8bd4e572e,,,,,,,sngl,resources/Empty.png,resources/DBN.BMP,Door4,0.199074074,0.011111118,1,0,0,0.5944,optionRight,60,5320,3,12,0,12,0,1,,,,,,,,,,,,,,,,,,,,,,,,,,,,,,,,,,,,,,,
,,,,,,,,2023-08-16_08h34.16.995,HF_wild_card,2022.2.4,Win32,59.84798612,62b0567cdc9d1b36d234a319,64d2fd46c836a06233681665,64dc7be8348813c8bd4e572e,,,,,,,ctch,resources/DBN.BMP,resources/DB.BMP,Door4,-0.247222194,-0.025000007,1,0,0,0.6439,optionLeft,60,5380,3,13,0,13,0,1,,,,,,,,,,,,,,,,,,,,,,,,,,,,,,,,,,,,,,,
,,,,,,,,2023-08-16_08h34.16.995,HF_wild_card,2022.2.4,Win32,59.84798612,62b0567cdc9d1b36d234a319,64d2fd46c836a06233681665,64dc7be8348813c8bd4e572e,,,,,,,decisionTrl,resources/DG.BMP,resources/DB.BMP,Door1,0.14444443,0.009259259,1,0,0,1.0453,optionRight,30,5410,3,14,0,14,0,1,,,,,,,,,,,,,,,,,,,,,,,,,,,,,,,,,,,,,,,
,,,,,,,,2023-08-16_08h34.16.995,HF_wild_card,2022.2.4,Win32,59.84798612,62b0567cdc9d1b36d234a319,64d2fd46c836a06233681665,64dc7be8348813c8bd4e572e,,,,,,,decisionTrl,resources/DG.BMP,resources/DY.BMP,WildCard_NonEx,0.335185157,-0.015740748,1,0,0,0.9616,optionRight,55,5465,3,15,0,15,0,1,,,,,,,,,,,,,,,,,,,,,,,,,,,,,,,,,,,,,,,
,,,,,,,,2023-08-16_08h34.16.995,HF_wild_card,2022.2.4,Win32,59.84798612,62b0567cdc9d1b36d234a319,64d2fd46c836a06233681665,64dc7be8348813c8bd4e572e,,,,,,,decisionTrl,resources/DP.BMP,resources/DBN.BMP,Door4,0.22129631,-0.011111118,1,0,0,0.963,optionRight,60,5525,3,16,0,16,0,1,,,,,,,,,,,,,,,,,,,,,,,,,,,,,,,,,,,,,,,
,,,,,,,,2023-08-16_08h34.16.995,HF_wild_card,2022.2.4,Win32,59.84798612,62b0567cdc9d1b36d234a319,64d2fd46c836a06233681665,64dc7be8348813c8bd4e572e,,,,,,,decisionTrl,resources/DP.BMP,resources/DY.BMP,Door3,-0.241666653,-0.061111132,1,0,0,0.594700001,optionLeft,70,5595,3,17,0,17,0,1,,,,,,,,,,,,,,,,,,,,,,,,,,,,,,,,,,,,,,,
,,,,,,,,2023-08-16_08h34.16.995,HF_wild_card,2022.2.4,Win32,59.84798612,62b0567cdc9d1b36d234a319,64d2fd46c836a06233681665,64dc7be8348813c8bd4e572e,,,,,,,sngl,resources/Empty.png,resources/DY.BMP,WildCard_NonEx,0.288888931,0.03148146,1,0,0,0.578,optionRight,55,5650,3,18,0,18,0,1,,,,,,,,,,,,,,,,,,,,,,,,,,,,,,,,,,,,,,,
,,,,,,,,2023-08-16_08h34.16.995,HF_wild_card,2022.2.4,Win32,59.84798612,62b0567cdc9d1b36d234a319,64d2fd46c836a06233681665,64dc7be8348813c8bd4e572e,,,,,,,decisionTrl,resources/DBN.BMP,resources/DP.BMP,Door4,-0.125925912,-0.018518519,1,0,0,0.6784,optionLeft,80,5730,3,19,0,19,0,1,,,,,,,,,,,,,,,,,,,,,,,,,,,,,,,,,,,,,,,
,,,,,,,,2023-08-16_08h34.16.995,HF_wild_card,2022.2.4,Win32,59.84798612,62b0567cdc9d1b36d234a319,64d2fd46c836a06233681665,64dc7be8348813c8bd4e572e,,,,,,,sngl,resources/DP.BMP,resources/Empty.png,Door3,-0.488888882,-0.114814829,1,0,0,0.544400001,optionLeft,70,5800,3,20,0,20,0,1,,,,,,,,,,,,,,,,,,,,,,,,,,,,,,,,,,,,,,,
,,,,,,,,2023-08-16_08h34.16.995,HF_wild_card,2022.2.4,Win32,59.84798612,62b0567cdc9d1b36d234a319,64d2fd46c836a06233681665,64dc7be8348813c8bd4e572e,,,,,,,ctch,resources/DB.BMP,resources/DBN.BMP,Door4,0.186111097,-0.018518519,1,0,0,0.944700001,optionRight,80,5880,3,21,0,21,0,1,,,,,,,,,,,,,,,,,,,,,,,,,,,,,,,,,,,,,,,
,,,,,,,,2023-08-16_08h34.16.995,HF_wild_card,2022.2.4,Win32,59.84798612,62b0567cdc9d1b36d234a319,64d2fd46c836a06233681665,64dc7be8348813c8bd4e572e,,,,,,,sngl,resources/DY.BMP,resources/Empty.png,WildCard_NonEx,-0.5,-0.112963005,1,0,0,0.6618,optionLeft,55,5935,3,22,0,22,0,1,,,,,,,,,,,,,,,,,,,,,,,,,,,,,,,,,,,,,,,
,,,,,,,,2023-08-16_08h34.16.995,HF_wild_card,2022.2.4,Win32,59.84798612,62b0567cdc9d1b36d234a319,64d2fd46c836a06233681665,64dc7be8348813c8bd4e572e,,,,,,,ctch,resources/DG.BMP,resources/DP.BMP,Door3,0.235185199,0.020370377,1,0,0,0.7279,optionRight,70,6005,3,23,0,23,0,1,,,,,,,,,,,,,,,,,,,,,,,,,,,,,,,,,,,,,,,
,,,,,,,,2023-08-16_08h34.16.995,HF_wild_card,2022.2.4,Win32,59.84798612,62b0567cdc9d1b36d234a319,64d2fd46c836a06233681665,64dc7be8348813c8bd4e572e,,,,,,,decisionTrl,resources/DBN.BMP,resources/DP.BMP,Door3,0.135185171,0.018518519,1,0,0,0.5957,optionRight,70,6075,3,24,0,24,0,1,,,,,,,,,,,,,,,,,,,,,,,,,,,,,,,,,,,,,,,
,,,,,,,,2023-08-16_08h34.16.995,HF_wild_card,2022.2.4,Win32,59.84798612,62b0567cdc9d1b36d234a319,64d2fd46c836a06233681665,64dc7be8348813c8bd4e572e,,,,,,,decisionTrl,resources/DBN.BMP,resources/DP.BMP,Door4,-0.171296296,-0.009259259,1,0,0,1.0282,optionLeft,60,6135,3,25,0,25,0,1,,,,,,,,,,,,,,,,,,,,,,,,,,,,,,,,,,,,,,,
,,,,,,,,2023-08-16_08h34.16.995,HF_wild_card,2022.2.4,Win32,59.84798612,62b0567cdc9d1b36d234a319,64d2fd46c836a06233681665,64dc7be8348813c8bd4e572e,,,,,,,decisionTrl,resources/DY.BMP,resources/DG.BMP,WildCard_NonEx,-0.305555556,-0.099074116,1,0,0,1.4945,optionLeft,45,6180,3,26,0,26,0,1,,,,,,,,,,,,,,,,,,,,,,,,,,,,,,,,,,,,,,,
,,,,,,,,2023-08-16_08h34.16.995,HF_wild_card,2022.2.4,Win32,59.84798612,62b0567cdc9d1b36d234a319,64d2fd46c836a06233681665,64dc7be8348813c8bd4e572e,,,,,,,decisionTrl,resources/DB.BMP,resources/DY.BMP,WildCard_NonEx,0.133333347,-0.018518519,1,0,0,1.6285,optionRight,45,6225,3,27,0,27,0,1,,,,,,,,,,,,,,,,,,,,,,,,,,,,,,,,,,,,,,,
,,,,,,,,2023-08-16_08h34.16.995,HF_wild_card,2022.2.4,Win32,59.84798612,62b0567cdc9d1b36d234a319,64d2fd46c836a06233681665,64dc7be8348813c8bd4e572e,,,,,,,decisionTrl,resources/DG.BMP,resources/DB.BMP,Door1,0.162037037,-0.017592607,1,0,0,1.1949,optionRight,30,6255,3,28,0,28,0,1,,,,,,,,,,,,,,,,,,,,,,,,,,,,,,,,,,,,,,,
,,,,,,,,2023-08-16_08h34.16.995,HF_wild_card,2022.2.4,Win32,59.84798612,62b0567cdc9d1b36d234a319,64d2fd46c836a06233681665,64dc7be8348813c8bd4e572e,,,,,,,sngl,resources/Empty.png,resources/DP.BMP,Door3,0.214814857,0.003703683,1,0,0,0.6448,optionRight,70,6325,3,29,0,29,0,1,,,,,,,,,,,,,,,,,,,,,,,,,,,,,,,,,,,,,,,
,,,,,,,,2023-08-16_08h34.16.995,HF_wild_card,2022.2.4,Win32,59.84798612,62b0567cdc9d1b36d234a319,64d2fd46c836a06233681665,64dc7be8348813c8bd4e572e,,,,,,,decisionTrl,resources/DP.BMP,resources/DBN.BMP,Door3,-0.174074032,-0.025000007,1,0,0,0.8449,optionLeft,70,6395,3,30,0,30,0,1,,,,,,,,,,,,,,,,,,,,,,,,,,,,,,,,,,,,,,,
,,,,,,,,2023-08-16_08h34.16.995,HF_wild_card,2022.2.4,Win32,59.84798612,62b0567cdc9d1b36d234a319,64d2fd46c836a06233681665,64dc7be8348813c8bd4e572e,,,,,,,decisionTrl,resources/DG.BMP,resources/DB.BMP,Door1,0.253703718,0.034259266,1,0,0,0.8953,optionRight,30,6425,3,31,0,31,0,1,,,,,,,,,,,,,,,,,,,,,,,,,,,,,,,,,,,,,,,
,,,,,,,,2023-08-16_08h34.16.995,HF_wild_card,2022.2.4,Win32,59.84798612,62b0567cdc9d1b36d234a319,64d2fd46c836a06233681665,64dc7be8348813c8bd4e572e,,,,,,,decisionTrl,resources/DB.BMP,resources/DG.BMP,Door1,-0.108333305,-0.058333326,1,0,0,1.428400001,optionLeft,30,6455,3,32,0,32,0,1,,,,,,,,,,,,,,,,,,,,,,,,,,,,,,,,,,,,,,,
,,,,,,,,2023-08-16_08h34.16.995,HF_wild_card,2022.2.4,Win32,59.84798612,62b0567cdc9d1b36d234a319,64d2fd46c836a06233681665,64dc7be8348813c8bd4e572e,,,,,,,decisionTrl,resources/DG.BMP,resources/DB.BMP,Door2,-0.212037051,-0.014814836,1,0,0,0.9785,optionLeft,40,6495,3,33,0,33,0,1,,,,,,,,,,,,,,,,,,,,,,,,,,,,,,,,,,,,,,,
,,,,,,,,2023-08-16_08h34.16.995,HF_wild_card,2022.2.4,Win32,59.84798612,62b0567cdc9d1b36d234a319,64d2fd46c836a06233681665,64dc7be8348813c8bd4e572e,,,,,,,sngl,resources/Empty.png,resources/DG.BMP,Door2,0.248148176,0.03611109,1,0,0,0.6453,optionRight,20,6515,3,34,0,34,0,1,,,,,,,,,,,,,,,,,,,,,,,,,,,,,,,,,,,,,,,
,,,,,,,,2023-08-16_08h34.16.995,HF_wild_card,2022.2.4,Win32,59.84798612,62b0567cdc9d1b36d234a319,64d2fd46c836a06233681665,64dc7be8348813c8bd4e572e,,,,,,,decisionTrl,resources/DY.BMP,resources/DBN.BMP,Door4,0.307407379,0.053703697,1,0,0,1.228099999,optionRight,60,6575,3,35,0,35,0,1,,,,,,,,,,,,,,,,,,,,,,,,,,,,,,,,,,,,,,,
,,,,,,,,2023-08-16_08h34.16.995,HF_wild_card,2022.2.4,Win32,59.84798612,62b0567cdc9d1b36d234a319,64d2fd46c836a06233681665,64dc7be8348813c8bd4e572e,,,,,,,sngl,resources/DY.BMP,resources/Empty.png,WildCard_NonEx,-0.190740727,-0.050925926,1,0,0,0.528599999,optionLeft,45,6620,3,36,0,36,0,1,,,,,,,,,,,,,,,,,,,,,,,,,,,,,,,,,,,,,,,
,,,,,,,,2023-08-16_08h34.16.995,HF_wild_card,2022.2.4,Win32,59.84798612,62b0567cdc9d1b36d234a319,64d2fd46c836a06233681665,64dc7be8348813c8bd4e572e,,,,,,,decisionTrl,resources/DY.BMP,resources/DP.BMP,Door3,0.169444473,0.032407407,1,0,0,2.2951,optionRight,70,6690,3,37,0,37,0,1,,,,,,,,,,,,,,,,,,,,,,,,,,,,,,,,,,,,,,,
,,,,,,,,2023-08-16_08h34.16.995,HF_wild_card,2022.2.4,Win32,59.84798612,62b0567cdc9d1b36d234a319,64d2fd46c836a06233681665,64dc7be8348813c8bd4e572e,,,,,,,sngl,resources/Empty.png,resources/DY.BMP,WildCard_NonEx,0.232407393,0.051851838,1,0,0,0.644400001,optionRight,45,6735,3,38,0,38,0,1,,,,,,,,,,,,,,,,,,,,,,,,,,,,,,,,,,,,,,,
,,,,,,,,2023-08-16_08h34.16.995,HF_wild_card,2022.2.4,Win32,59.84798612,62b0567cdc9d1b36d234a319,64d2fd46c836a06233681665,64dc7be8348813c8bd4e572e,,,,,,,ctch,resources/DP.BMP,resources/DG.BMP,Door3,-0.157407407,-0.023148148,1,0,0,0.8122,optionLeft,70,6805,3,39,0,39,0,1,,,,,,,,,,,,,,,,,,,,,,,,,,,,,,,,,,,,,,,
,,,,,,,,2023-08-16_08h34.16.995,HF_wild_card,2022.2.4,Win32,59.84798612,62b0567cdc9d1b36d234a319,64d2fd46c836a06233681665,64dc7be8348813c8bd4e572e,,,,,,,decisionTrl,resources/DP.BMP,resources/DBN.BMP,Door4,0.20185188,0.054629608,1,0,0,0.9282,optionRight,80,6885,3,40,0,40,0,1,,,,,,,,,,,,,,,,,,,,,,,,,,,,,,,,,,,,,,,
,,,,,,,,2023-08-16_08h34.16.995,HF_wild_card,2022.2.4,Win32,59.84798612,62b0567cdc9d1b36d234a319,64d2fd46c836a06233681665,64dc7be8348813c8bd4e572e,,,,,,,ctch,resources/DG.BMP,resources/DP.BMP,Door3,0.137962977,0.001851859,1,0,0,0.978099999,optionRight,70,6955,3,41,0,41,0,1,,,,,,,,,,,,,,,,,,,,,,,,,,,,,,,,,,,,,,,
,,,,,,,,2023-08-16_08h34.16.995,HF_wild_card,2022.2.4,Win32,59.84798612,62b0567cdc9d1b36d234a319,64d2fd46c836a06233681665,64dc7be8348813c8bd4e572e,,,,,,,sngl,resources/DG.BMP,resources/Empty.png,Door2,-0.182407379,-0.012962977,1,0,0,0.845,optionLeft,40,6995,3,42,0,42,0,1,,,,,,,,,,,,,,,,,,,,,,,,,,,,,,,,,,,,,,,
,,,,,,,,2023-08-16_08h34.16.995,HF_wild_card,2022.2.4,Win32,59.84798612,62b0567cdc9d1b36d234a319,64d2fd46c836a06233681665,64dc7be8348813c8bd4e572e,,,,,,,ctch,resources/DB.BMP,resources/DBN.BMP,Door4,0.352777834,0.070370356,1,0,0,0.694400001,optionRight,60,7055,3,43,0,43,0,1,,,,,,,,,,,,,,,,,,,,,,,,,,,,,,,,,,,,,,,
,,,,,,,,2023-08-16_08h34.16.995,HF_wild_card,2022.2.4,Win32,59.84798612,62b0567cdc9d1b36d234a319,64d2fd46c836a06233681665,64dc7be8348813c8bd4e572e,,,,,,,,,,,,,,,,,,,,,,,,,,2,0,2,0,1,,,,,,,,,,,,,,,,,,,,,,,,,,,,,,,,,,
,,,,,,,,2023-08-16_08h34.16.995,HF_wild_card,2022.2.4,Win32,59.84798612,62b0567cdc9d1b36d234a319,64d2fd46c836a06233681665,64dc7be8348813c8bd4e572e,,,,,,,decisionTrl,resources/DBN.BMP,resources/DP.BMP,Door4,-0.185185185,-0.079629651,1,0,0,0.742400001,optionLeft,60,7115,4,0,0,0,0,1,,,,,,,,,,,,,,,,,,,,,,,,,,,,,,,,,,,,,,,
,,,,,,,,2023-08-16_08h34.16.995,HF_wild_card,2022.2.4,Win32,59.84798612,62b0567cdc9d1b36d234a319,64d2fd46c836a06233681665,64dc7be8348813c8bd4e572e,,,,,,,ctch,resources/DB.BMP,resources/DBN.BMP,Door4,0.315740797,0.01203703,1,0,0,0.896,optionRight,60,7175,4,1,0,1,0,1,,,,,,,,,,,,,,,,,,,,,,,,,,,,,,,,,,,,,,,
,,,,,,,,2023-08-16_08h34.16.995,HF_wild_card,2022.2.4,Win32,59.84798612,62b0567cdc9d1b36d234a319,64d2fd46c836a06233681665,64dc7be8348813c8bd4e572e,,,,,,,decisionTrl,resources/DB.BMP,resources/DG.BMP,Door1,-0.438888868,-0.028703725,1,0,0,1.0958,optionLeft,30,7205,4,2,0,2,0,1,,,,,,,,,,,,,,,,,,,,,,,,,,,,,,,,,,,,,,,
,,,,,,,,2023-08-16_08h34.16.995,HF_wild_card,2022.2.4,Win32,59.84798612,62b0567cdc9d1b36d234a319,64d2fd46c836a06233681665,64dc7be8348813c8bd4e572e,,,,,,,decisionTrl,resources/DBN.BMP,resources/DP.BMP,Door4,-0.165740755,0.015740748,1,0,0,0.9128,optionLeft,80,7285,4,3,0,3,0,1,,,,,,,,,,,,,,,,,,,,,,,,,,,,,,,,,,,,,,,
,,,,,,,,2023-08-16_08h34.16.995,HF_wild_card,2022.2.4,Win32,59.84798612,62b0567cdc9d1b36d234a319,64d2fd46c836a06233681665,64dc7be8348813c8bd4e572e,,,,,,,ctch,resources/DBN.BMP,resources/DB.BMP,Door4,-0.240740741,-0.034259266,1,0,0,0.8952,optionLeft,80,7365,4,4,0,4,0,1,,,,,,,,,,,,,,,,,,,,,,,,,,,,,,,,,,,,,,,
,,,,,,,,2023-08-16_08h34.16.995,HF_wild_card,2022.2.4,Win32,59.84798612,62b0567cdc9d1b36d234a319,64d2fd46c836a06233681665,64dc7be8348813c8bd4e572e,,,,,,,ctch,resources/DP.BMP,resources/DG.BMP,Door3,-0.187962921,-0.059259273,1,0,0,0.7955,optionLeft,70,7435,4,5,0,5,0,1,,,,,,,,,,,,,,,,,,,,,,,,,,,,,,,,,,,,,,,
,,,,,,,,2023-08-16_08h34.16.995,HF_wild_card,2022.2.4,Win32,59.84798612,62b0567cdc9d1b36d234a319,64d2fd46c836a06233681665,64dc7be8348813c8bd4e572e,,,,,,,sngl,resources/Empty.png,resources/DG.BMP,Door2,0.251851894,0.002777771,1,0,0,0.645,optionRight,40,7475,4,6,0,6,0,1,,,,,,,,,,,,,,,,,,,,,,,,,,,,,,,,,,,,,,,
,,,,,,,,2023-08-16_08h34.16.995,HF_wild_card,2022.2.4,Win32,59.84798612,62b0567cdc9d1b36d234a319,64d2fd46c836a06233681665,64dc7be8348813c8bd4e572e,,,,,,,ctch,resources/DG.BMP,resources/DP.BMP,Door3,0.23055557,0.049074067,1,0,0,0.8788,optionRight,70,7545,4,7,0,7,0,1,,,,,,,,,,,,,,,,,,,,,,,,,,,,,,,,,,,,,,,
,,,,,,,,2023-08-16_08h34.16.995,HF_wild_card,2022.2.4,Win32,59.84798612,62b0567cdc9d1b36d234a319,64d2fd46c836a06233681665,64dc7be8348813c8bd4e572e,,,,,,,sngl,resources/DG.BMP,resources/Empty.png,Door2,-0.139814801,-0.054629644,1,0,0,0.5298,optionLeft,20,7565,4,8,0,8,0,1,,,,,,,,,,,,,,,,,,,,,,,,,,,,,,,,,,,,,,,
,,,,,,,,2023-08-16_08h34.16.995,HF_wild_card,2022.2.4,Win32,59.84798612,62b0567cdc9d1b36d234a319,64d2fd46c836a06233681665,64dc7be8348813c8bd4e572e,,,,,,,sngl,resources/Empty.png,resources/DBN.BMP,Door4,0.291666667,0.018518519,1,0,0,0.616099999,optionRight,80,7645,4,9,0,9,0,1,,,,,,,,,,,,,,,,,,,,,,,,,,,,,,,,,,,,,,,
,,,,,,,,2023-08-16_08h34.16.995,HF_wild_card,2022.2.4,Win32,59.84798612,62b0567cdc9d1b36d234a319,64d2fd46c836a06233681665,64dc7be8348813c8bd4e572e,,,,,,,decisionTrl,resources/DP.BMP,resources/DBN.BMP,Door4,0.359259288,0.030555548,1,0,0,1.111299999,optionRight,60,7705,4,10,0,10,0,1,,,,,,,,,,,,,,,,,,,,,,,,,,,,,,,,,,,,,,,
,,,,,,,,2023-08-16_08h34.16.995,HF_wild_card,2022.2.4,Win32,59.84798612,62b0567cdc9d1b36d234a319,64d2fd46c836a06233681665,64dc7be8348813c8bd4e572e,,,,,,,decisionTrl,resources/DR.BMP,resources/DG.BMP,WildCard_Ex,-0.162962949,-0.048148155,1,0,0,1.5615,optionLeft,95,7800,4,11,0,11,0,1,,,,,,,,,,,,,,,,,,,,,,,,,,,,,,,,,,,,,,,
,,,,,,,,2023-08-16_08h34.16.995,HF_wild_card,2022.2.4,Win32,59.84798612,62b0567cdc9d1b36d234a319,64d2fd46c836a06233681665,64dc7be8348813c8bd4e572e,,,,,,,decisionTrl,resources/DG.BMP,resources/DB.BMP,Door1,0.648148148,0.071296303,1,0,0,2.6853,optionRight,30,7830,4,12,0,12,0,1,,,,,,,,,,,,,,,,,,,,,,,,,,,,,,,,,,,,,,,
,,,,,,,,2023-08-16_08h34.16.995,HF_wild_card,2022.2.4,Win32,59.84798612,62b0567cdc9d1b36d234a319,64d2fd46c836a06233681665,64dc7be8348813c8bd4e572e,,,,,,,decisionTrl,resources/DB.BMP,resources/DR.BMP,WildCard_Ex,0.450925898,0.073148127,1,0,0,0.7455,optionRight,5,7835,4,13,0,13,0,1,,,,,,,,,,,,,,,,,,,,,,,,,,,,,,,,,,,,,,,
,,,,,,,,2023-08-16_08h34.16.995,HF_wild_card,2022.2.4,Win32,59.84798612,62b0567cdc9d1b36d234a319,64d2fd46c836a06233681665,64dc7be8348813c8bd4e572e,,,,,,,decisionTrl,resources/DR.BMP,resources/DP.BMP,WildCard_Ex,-0.246296282,-0.053703697,1,0,0,0.578200001,optionLeft,95,7930,4,14,0,14,0,1,,,,,,,,,,,,,,,,,,,,,,,,,,,,,,,,,,,,,,,
,,,,,,,,2023-08-16_08h34.16.995,HF_wild_card,2022.2.4,Win32,59.84798612,62b0567cdc9d1b36d234a319,64d2fd46c836a06233681665,64dc7be8348813c8bd4e572e,,,,,,,decisionTrl,resources/DBN.BMP,resources/DR.BMP,Door4,-0.217592593,-0.015740748,1,0,0,1.0941,optionLeft,60,7990,4,15,0,15,0,1,,,,,,,,,,,,,,,,,,,,,,,,,,,,,,,,,,,,,,,
,,,,,,,,2023-08-16_08h34.16.995,HF_wild_card,2022.2.4,Win32,59.84798612,62b0567cdc9d1b36d234a319,64d2fd46c836a06233681665,64dc7be8348813c8bd4e572e,,,,,,,sngl,resources/DR.BMP,resources/Empty.png,WildCard_Ex,-0.176851838,-0.025000007,1,0,0,0.6099,optionLeft,95,8085,4,16,0,16,0,1,,,,,,,,,,,,,,,,,,,,,,,,,,,,,,,,,,,,,,,
,,,,,,,,2023-08-16_08h34.16.995,HF_wild_card,2022.2.4,Win32,59.84798612,62b0567cdc9d1b36d234a319,64d2fd46c836a06233681665,64dc7be8348813c8bd4e572e,,,,,,,decisionTrl,resources/DR.BMP,resources/DBN.BMP,WildCard_Ex,-0.169444402,0.003703683,1,0,0,1.0273,optionLeft,95,8180,4,17,0,17,0,1,,,,,,,,,,,,,,,,,,,,,,,,,,,,,,,,,,,,,,,
,,,,,,,,2023-08-16_08h34.16.995,HF_wild_card,2022.2.4,Win32,59.84798612,62b0567cdc9d1b36d234a319,64d2fd46c836a06233681665,64dc7be8348813c8bd4e572e,,,,,,,ctch,resources/DP.BMP,resources/DG.BMP,Door3,-0.212962963,-0.000925947,1,0,0,0.6945,optionLeft,70,8250,4,18,0,18,0,1,,,,,,,,,,,,,,,,,,,,,,,,,,,,,,,,,,,,,,,
,,,,,,,,2023-08-16_08h34.16.995,HF_wild_card,2022.2.4,Win32,59.84798612,62b0567cdc9d1b36d234a319,64d2fd46c836a06233681665,64dc7be8348813c8bd4e572e,,,,,,,sngl,resources/Empty.png,resources/DB.BMP,Door1,0.152777778,-0.025925919,1,0,0,0.9616,optionRight,30,8280,4,19,0,19,0,1,,,,,,,,,,,,,,,,,,,,,,,,,,,,,,,,,,,,,,,
,,,,,,,,2023-08-16_08h34.16.995,HF_wild_card,2022.2.4,Win32,59.84798612,62b0567cdc9d1b36d234a319,64d2fd46c836a06233681665,64dc7be8348813c8bd4e572e,,,,,,,sngl,resources/DBN.BMP,resources/Empty.png,Door4,-0.201851809,-0.056481503,1,0,0,0.6295,optionLeft,60,8340,4,20,0,20,0,1,,,,,,,,,,,,,,,,,,,,,,,,,,,,,,,,,,,,,,,
,,,,,,,,2023-08-16_08h34.16.995,HF_wild_card,2022.2.4,Win32,59.84798612,62b0567cdc9d1b36d234a319,64d2fd46c836a06233681665,64dc7be8348813c8bd4e572e,,,,,,,decisionTrl,resources/DP.BMP,resources/DBN.BMP,Door3,-0.125925912,-0.008333347,1,0,0,1.562,optionLeft,70,8410,4,21,0,21,0,1,,,,,,,,,,,,,,,,,,,,,,,,,,,,,,,,,,,,,,,
,,,,,,,,2023-08-16_08h34.16.995,HF_wild_card,2022.2.4,Win32,59.84798612,62b0567cdc9d1b36d234a319,64d2fd46c836a06233681665,64dc7be8348813c8bd4e572e,,,,,,,decisionTrl,resources/DR.BMP,resources/DB.BMP,WildCard_Ex,-0.147222236,0.009259259,1,0,0,0.7952,optionLeft,95,8505,4,22,0,22,0,1,,,,,,,,,,,,,,,,,,,,,,,,,,,,,,,,,,,,,,,
,,,,,,,,2023-08-16_08h34.16.995,HF_wild_card,2022.2.4,Win32,59.84798612,62b0567cdc9d1b36d234a319,64d2fd46c836a06233681665,64dc7be8348813c8bd4e572e,,,,,,,decisionTrl,resources/DB.BMP,resources/DG.BMP,Door1,-0.15370369,-0.031481496,1,0,0,1.7282,optionLeft,30,8535,4,23,0,23,0,1,,,,,,,,,,,,,,,,,,,,,,,,,,,,,,,,,,,,,,,
,,,,,,,,2023-08-16_08h34.16.995,HF_wild_card,2022.2.4,Win32,59.84798612,62b0567cdc9d1b36d234a319,64d2fd46c836a06233681665,64dc7be8348813c8bd4e572e,,,,,,,decisionTrl,resources/DG.BMP,resources/DB.BMP,Door1,0.255555541,-0.032407407,1,0,0,4.627099999,optionRight,30,8565,4,24,0,24,0,1,,,,,,,,,,,,,,,,,,,,,,,,,,,,,,,,,,,,,,,
,,,,,,,,2023-08-16_08h34.16.995,HF_wild_card,2022.2.4,Win32,59.84798612,62b0567cdc9d1b36d234a319,64d2fd46c836a06233681665,64dc7be8348813c8bd4e572e,,,,,,,decisionTrl,resources/DBN.BMP,resources/DP.BMP,Door4,-0.158333319,-0.025925919,1,0,0,1.1786,optionLeft,60,8625,4,25,0,25,0,1,,,,,,,,,,,,,,,,,,,,,,,,,,,,,,,,,,,,,,,
,,,,,,,,2023-08-16_08h34.16.995,HF_wild_card,2022.2.4,Win32,59.84798612,62b0567cdc9d1b36d234a319,64d2fd46c836a06233681665,64dc7be8348813c8bd4e572e,,,,,,,ctch,resources/DB.BMP,resources/DBN.BMP,Door4,0.267592607,-0.061111132,1,0,0,0.8784,optionRight,60,8685,4,26,0,26,0,1,,,,,,,,,,,,,,,,,,,,,,,,,,,,,,,,,,,,,,,
,,,,,,,,2023-08-16_08h34.16.995,HF_wild_card,2022.2.4,Win32,59.84798612,62b0567cdc9d1b36d234a319,64d2fd46c836a06233681665,64dc7be8348813c8bd4e572e,,,,,,,sngl,resources/DR.BMP,resources/Empty.png,WildCard_Ex,-0.175925926,0.01203703,1,0,0,0.718400001,optionLeft,5,8690,4,27,0,27,0,1,,,,,,,,,,,,,,,,,,,,,,,,,,,,,,,,,,,,,,,
,,,,,,,,2023-08-16_08h34.16.995,HF_wild_card,2022.2.4,Win32,59.84798612,62b0567cdc9d1b36d234a319,64d2fd46c836a06233681665,64dc7be8348813c8bd4e572e,,,,,,,sngl,resources/DB.BMP,resources/Empty.png,Door1,-0.17777775,-0.008333347,1,0,0,0.611400001,optionLeft,30,8720,4,28,0,28,0,1,,,,,,,,,,,,,,,,,,,,,,,,,,,,,,,,,,,,,,,
,,,,,,,,2023-08-16_08h34.16.995,HF_wild_card,2022.2.4,Win32,59.84798612,62b0567cdc9d1b36d234a319,64d2fd46c836a06233681665,64dc7be8348813c8bd4e572e,,,,,,,decisionTrl,resources/DG.BMP,resources/DB.BMP,Door1,0.273148148,-0.013888889,1,0,0,0.6947,optionRight,30,8750,4,29,0,29,0,1,,,,,,,,,,,,,,,,,,,,,,,,,,,,,,,,,,,,,,,
,,,,,,,,2023-08-16_08h34.16.995,HF_wild_card,2022.2.4,Win32,59.84798612,62b0567cdc9d1b36d234a319,64d2fd46c836a06233681665,64dc7be8348813c8bd4e572e,,,,,,,ctch,resources/DBN.BMP,resources/DB.BMP,Door4,-0.218518504,-0.025925919,1,0,0,0.6782,optionLeft,80,8830,4,30,0,30,0,1,,,,,,,,,,,,,,,,,,,,,,,,,,,,,,,,,,,,,,,
,,,,,,,,2023-08-16_08h34.16.995,HF_wild_card,2022.2.4,Win32,59.84798612,62b0567cdc9d1b36d234a319,64d2fd46c836a06233681665,64dc7be8348813c8bd4e572e,,,,,,,decisionTrl,resources/DP.BMP,resources/DR.BMP,WildCard_Ex,0.255555541,-0.045370384,1,0,0,0.643,optionRight,5,8835,4,31,0,31,0,1,,,,,,,,,,,,,,,,,,,,,,,,,,,,,,,,,,,,,,,
,,,,,,,,2023-08-16_08h34.16.995,HF_wild_card,2022.2.4,Win32,59.84798612,62b0567cdc9d1b36d234a319,64d2fd46c836a06233681665,64dc7be8348813c8bd4e572e,,,,,,,decisionTrl,resources/DB.BMP,resources/DG.BMP,Door1,-0.261111083,-0.089814822,1,0,0,1.361700001,optionLeft,30,8865,4,32,0,32,0,1,,,,,,,,,,,,,,,,,,,,,,,,,,,,,,,,,,,,,,,
,,,,,,,,2023-08-16_08h34.16.995,HF_wild_card,2022.2.4,Win32,59.84798612,62b0567cdc9d1b36d234a319,64d2fd46c836a06233681665,64dc7be8348813c8bd4e572e,,,,,,,decisionTrl,resources/DP.BMP,resources/DBN.BMP,Door3,-0.159259231,-0.039814808,1,0,0,1.478099999,optionLeft,70,8935,4,33,0,33,0,1,,,,,,,,,,,,,,,,,,,,,,,,,,,,,,,,,,,,,,,
,,,,,,,,2023-08-16_08h34.16.995,HF_wild_card,2022.2.4,Win32,59.84798612,62b0567cdc9d1b36d234a319,64d2fd46c836a06233681665,64dc7be8348813c8bd4e572e,,,,,,,decisionTrl,resources/DB.BMP,resources/DG.BMP,Door1,-0.137962977,-0.028703725,1,0,0,2.2106,optionLeft,30,8965,4,34,0,34,0,1,,,,,,,,,,,,,,,,,,,,,,,,,,,,,,,,,,,,,,,
,,,,,,,,2023-08-16_08h34.16.995,HF_wild_card,2022.2.4,Win32,59.84798612,62b0567cdc9d1b36d234a319,64d2fd46c836a06233681665,64dc7be8348813c8bd4e572e,,,,,,,decisionTrl,resources/DG.BMP,resources/DB.BMP,Door1,0.160185213,-0.023148148,1,0,0,1.311,optionRight,30,8995,4,35,0,35,0,1,,,,,,,,,,,,,,,,,,,,,,,,,,,,,,,,,,,,,,,
,,,,,,,,2023-08-16_08h34.16.995,HF_wild_card,2022.2.4,Win32,59.84798612,62b0567cdc9d1b36d234a319,64d2fd46c836a06233681665,64dc7be8348813c8bd4e572e,,,,,,,ctch,resources/DG.BMP,resources/DP.BMP,Door3,0.374074159,0.03148146,1,0,0,0.8429,optionRight,70,9065,4,36,0,36,0,1,,,,,,,,,,,,,,,,,,,,,,,,,,,,,,,,,,,,,,,
,,,,,,,,2023-08-16_08h34.16.995,HF_wild_card,2022.2.4,Win32,59.84798612,62b0567cdc9d1b36d234a319,64d2fd46c836a06233681665,64dc7be8348813c8bd4e572e,,,,,,,decisionTrl,resources/DG.BMP,resources/DR.BMP,WildCard_Ex,0.296296296,0.062037044,1,0,0,0.7946,optionRight,5,9070,4,37,0,37,0,1,,,,,,,,,,,,,,,,,,,,,,,,,,,,,,,,,,,,,,,
,,,,,,,,2023-08-16_08h34.16.995,HF_wild_card,2022.2.4,Win32,59.84798612,62b0567cdc9d1b36d234a319,64d2fd46c836a06233681665,64dc7be8348813c8bd4e572e,,,,,,,decisionTrl,resources/DP.BMP,resources/DBN.BMP,Door3,-0.169444402,0.012962942,1,0,0,1.578700001,optionLeft,70,9140,4,38,0,38,0,1,,,,,,,,,,,,,,,,,,,,,,,,,,,,,,,,,,,,,,,
,,,,,,,,2023-08-16_08h34.16.995,HF_wild_card,2022.2.4,Win32,59.84798612,62b0567cdc9d1b36d234a319,64d2fd46c836a06233681665,64dc7be8348813c8bd4e572e,,,,,,,sngl,resources/Empty.png,resources/DR.BMP,WildCard_Ex,0.470370399,0.053703697,1,0,0,0.7122,optionRight,5,9145,4,39,0,39,0,1,,,,,,,,,,,,,,,,,,,,,,,,,,,,,,,,,,,,,,,
,,,,,,,,2023-08-16_08h34.16.995,HF_wild_card,2022.2.4,Win32,59.84798612,62b0567cdc9d1b36d234a319,64d2fd46c836a06233681665,64dc7be8348813c8bd4e572e,,,,,,,sngl,resources/Empty.png,resources/DP.BMP,Door3,0.256481524,-0.031481496,1,0,0,0.6957,optionRight,70,9215,4,40,0,40,0,1,,,,,,,,,,,,,,,,,,,,,,,,,,,,,,,,,,,,,,,
,,,,,,,,2023-08-16_08h34.16.995,HF_wild_card,2022.2.4,Win32,59.84798612,62b0567cdc9d1b36d234a319,64d2fd46c836a06233681665,64dc7be8348813c8bd4e572e,,,,,,,sngl,resources/DP.BMP,resources/Empty.png,Door3,-0.310185185,0.009259259,1,0,0,0.7291,optionLeft,70,9285,4,41,0,41,0,1,,,,,,,,,,,,,,,,,,,,,,,,,,,,,,,,,,,,,,,
,,,,,,,,2023-08-16_08h34.16.995,HF_wild_card,2022.2.4,Win32,59.84798612,62b0567cdc9d1b36d234a319,64d2fd46c836a06233681665,64dc7be8348813c8bd4e572e,,,,,,,decisionTrl,resources/DBN.BMP,resources/DP.BMP,Door4,-0.154629601,-0.012962977,1,0,0,0.826,optionLeft,80,9365,4,42,0,42,0,1,,,,,,,,,,,,,,,,,,,,,,,,,,,,,,,,,,,,,,,
,,,,,,,,2023-08-16_08h34.16.995,HF_wild_card,2022.2.4,Win32,59.84798612,62b0567cdc9d1b36d234a319,64d2fd46c836a06233681665,64dc7be8348813c8bd4e572e,,,,,,,sngl,resources/Empty.png,resources/DR.BMP,WildCard_Ex,0.270370413,0.020370377,1,0,0,0.6615,optionRight,95,9460,4,43,0,43,0,1,,,,,,,,,,,,,,,,,,,,,,,,,,,,,,,,,,,,,,,
,,,,,,,,2023-08-16_08h34.16.995,HF_wild_card,2022.2.4,Win32,59.84798612,62b0567cdc9d1b36d234a319,64d2fd46c836a06233681665,64dc7be8348813c8bd4e572e,,,,,,,,,,,,,,,,,,,,,,,,,,3,0,3,0,1,,,,,,,,,,,,,,,,,,,,,,,,,,,,,,,,,,
,,,,,,,,2023-08-16_08h34.16.995,HF_wild_card,2022.2.4,Win32,59.84798612,62b0567cdc9d1b36d234a319,64d2fd46c836a06233681665,64dc7be8348813c8bd4e572e,,,,,,,decisionTrl,resources/DBN.BMP,resources/DP.BMP,Door4,-0.143518519,-0.071296303,1,0,0,0.819099999,optionLeft,80,9540,5,0,0,0,0,1,,,,,,,,,,,,,,,,,,,,,,,,,,,,,,,,,,,,,,,
,,,,,,,,2023-08-16_08h34.16.995,HF_wild_card,2022.2.4,Win32,59.84798612,62b0567cdc9d1b36d234a319,64d2fd46c836a06233681665,64dc7be8348813c8bd4e572e,,,,,,,decisionTrl,resources/DR.BMP,resources/DBN.BMP,WildCard_Ex,-0.204629616,-0.055555556,1,0,0,0.6107,optionLeft,5,9545,5,1,0,1,0,1,,,,,,,,,,,,,,,,,,,,,,,,,,,,,,,,,,,,,,,
,,,,,,,,2023-08-16_08h34.16.995,HF_wild_card,2022.2.4,Win32,59.84798612,62b0567cdc9d1b36d234a319,64d2fd46c836a06233681665,64dc7be8348813c8bd4e572e,,,,,,,decisionTrl,resources/DP.BMP,resources/DBN.BMP,Door4,0.256481524,0.057407414,1,0,0,0.619299999,optionRight,60,9605,5,2,0,2,0,1,,,,,,,,,,,,,,,,,,,,,,,,,,,,,,,,,,,,,,,
,,,,,,,,2023-08-16_08h34.16.995,HF_wild_card,2022.2.4,Win32,59.84798612,62b0567cdc9d1b36d234a319,64d2fd46c836a06233681665,64dc7be8348813c8bd4e572e,,,,,,,ctch,resources/DP.BMP,resources/DG.BMP,Door3,-0.262036995,-0.005555577,1,0,0,0.7454,optionLeft,70,9675,5,3,0,3,0,1,,,,,,,,,,,,,,,,,,,,,,,,,,,,,,,,,,,,,,,
,,,,,,,,2023-08-16_08h34.16.995,HF_wild_card,2022.2.4,Win32,59.84798612,62b0567cdc9d1b36d234a319,64d2fd46c836a06233681665,64dc7be8348813c8bd4e572e,,,,,,,sngl,resources/DR.BMP,resources/Empty.png,WildCard_Ex,-0.154629601,0.034259266,1,0,0,0.6617,optionLeft,5,9680,5,4,0,4,0,1,,,,,,,,,,,,,,,,,,,,,,,,,,,,,,,,,,,,,,,
,,,,,,,,2023-08-16_08h34.16.995,HF_wild_card,2022.2.4,Win32,59.84798612,62b0567cdc9d1b36d234a319,64d2fd46c836a06233681665,64dc7be8348813c8bd4e572e,,,,,,,sngl,resources/Empty.png,resources/DG.BMP,Door2,0.375,0.037962949,1,0,0,0.5449,optionRight,20,9700,5,5,0,5,0,1,,,,,,,,,,,,,,,,,,,,,,,,,,,,,,,,,,,,,,,
,,,,,,,,2023-08-16_08h34.16.995,HF_wild_card,2022.2.4,Win32,59.84798612,62b0567cdc9d1b36d234a319,64d2fd46c836a06233681665,64dc7be8348813c8bd4e572e,,,,,,,ctch,resources/DG.BMP,resources/DP.BMP,Door3,0.462037122,0.04074072,1,0,0,0.7293,optionRight,70,9770,5,6,0,6,0,1,,,,,,,,,,,,,,,,,,,,,,,,,,,,,,,,,,,,,,,
,,,,,,,,2023-08-16_08h34.16.995,HF_wild_card,2022.2.4,Win32,59.84798612,62b0567cdc9d1b36d234a319,64d2fd46c836a06233681665,64dc7be8348813c8bd4e572e,,,,,,,sngl,resources/Empty.png,resources/DR.BMP,WildCard_Ex,0.371296353,0.02870369,1,0,0,0.6611,optionRight,5,9775,5,7,0,7,0,1,,,,,,,,,,,,,,,,,,,,,,,,,,,,,,,,,,,,,,,
,,,,,,,,2023-08-16_08h34.16.995,HF_wild_card,2022.2.4,Win32,59.84798612,62b0567cdc9d1b36d234a319,64d2fd46c836a06233681665,64dc7be8348813c8bd4e572e,,,,,,,decisionTrl,resources/DBN.BMP,resources/DR.BMP,Door4,-0.244444459,-0.059259273,1,0,0,0.6449,optionLeft,80,9855,5,8,0,8,0,1,,,,,,,,,,,,,,,,,,,,,,,,,,,,,,,,,,,,,,,
,,,,,,,,2023-08-16_08h34.16.995,HF_wild_card,2022.2.4,Win32,59.84798612,62b0567cdc9d1b36d234a319,64d2fd46c836a06233681665,64dc7be8348813c8bd4e572e,,,,,,,decisionTrl,resources/DB.BMP,resources/DG.BMP,Door1,-0.27407406,-0.038888896,1,0,0,1.678,optionLeft,30,9885,5,9,0,9,0,1,,,,,,,,,,,,,,,,,,,,,,,,,,,,,,,,,,,,,,,
,,,,,,,,2023-08-16_08h34.16.995,HF_wild_card,2022.2.4,Win32,59.84798612,62b0567cdc9d1b36d234a319,64d2fd46c836a06233681665,64dc7be8348813c8bd4e572e,,,,,,,decisionTrl,resources/DBN.BMP,resources/DP.BMP,Door4,-0.320370356,0.030555548,1,0,0,0.960900001,optionLeft,80,9965,5,10,0,10,0,1,,,,,,,,,,,,,,,,,,,,,,,,,,,,,,,,,,,,,,,
,,,,,,,,2023-08-16_08h34.16.995,HF_wild_card,2022.2.4,Win32,59.84798612,62b0567cdc9d1b36d234a319,64d2fd46c836a06233681665,64dc7be8348813c8bd4e572e,,,,,,,decisionTrl,resources/DR.BMP,resources/DB.BMP,WildCard_Ex,-0.48796297,0.03611109,1,0,0,2.0771,optionLeft,5,9970,5,11,0,11,0,1,,,,,,,,,,,,,,,,,,,,,,,,,,,,,,,,,,,,,,,
,,,,,,,,2023-08-16_08h34.16.995,HF_wild_card,2022.2.4,Win32,59.84798612,62b0567cdc9d1b36d234a319,64d2fd46c836a06233681665,64dc7be8348813c8bd4e572e,,,,,,,decisionTrl,resources/DB.BMP,resources/DG.BMP,Door1,-0.264814801,0.012962942,1,0,0,0.682200001,optionLeft,30,10000,5,12,0,12,0,1,,,,,,,,,,,,,,,,,,,,,,,,,,,,,,,,,,,,,,,
,,,,,,,,2023-08-16_08h34.16.995,HF_wild_card,2022.2.4,Win32,59.84798612,62b0567cdc9d1b36d234a319,64d2fd46c836a06233681665,64dc7be8348813c8bd4e572e,,,,,,,decisionTrl,resources/DG.BMP,resources/DR.BMP,WildCard_Ex,0.189814815,-0.093518504,1,0,0,1.244700001,optionRight,95,10095,5,13,0,13,0,1,,,,,,,,,,,,,,,,,,,,,,,,,,,,,,,,,,,,,,,
,,,,,,,,2023-08-16_08h34.16.995,HF_wild_card,2022.2.4,Win32,59.84798612,62b0567cdc9d1b36d234a319,64d2fd46c836a06233681665,64dc7be8348813c8bd4e572e,,,,,,,ctch,resources/DP.BMP,resources/DG.BMP,Door3,-0.239814829,-0.037037037,1,0,0,0.7115,optionLeft,70,10165,5,14,0,14,0,1,,,,,,,,,,,,,,,,,,,,,,,,,,,,,,,,,,,,,,,
,,,,,,,,2023-08-16_08h34.16.995,HF_wild_card,2022.2.4,Win32,59.84798612,62b0567cdc9d1b36d234a319,64d2fd46c836a06233681665,64dc7be8348813c8bd4e572e,,,,,,,decisionTrl,resources/DP.BMP,resources/DBN.BMP,Door4,0.62037037,0.180555556,1,0,0,0.7951,optionRight,60,10225,5,15,0,15,0,1,,,,,,,,,,,,,,,,,,,,,,,,,,,,,,,,,,,,,,,
,,,,,,,,2023-08-16_08h34.16.995,HF_wild_card,2022.2.4,Win32,59.84798612,62b0567cdc9d1b36d234a319,64d2fd46c836a06233681665,64dc7be8348813c8bd4e572e,,,,,,,decisionTrl,resources/DG.BMP,resources/DB.BMP,Door2,-0.223148134,-0.008333347,1,0,0,2.310700001,optionLeft,20,10245,5,16,0,16,0,1,,,,,,,,,,,,,,,,,,,,,,,,,,,,,,,,,,,,,,,
,,,,,,,,2023-08-16_08h34.16.995,HF_wild_card,2022.2.4,Win32,59.84798612,62b0567cdc9d1b36d234a319,64d2fd46c836a06233681665,64dc7be8348813c8bd4e572e,,,,,,,sngl,resources/Empty.png,resources/DB.BMP,Door1,0.152777778,0.00462963,1,0,0,0.5443,optionRight,30,10275,5,17,0,17,0,1,,,,,,,,,,,,,,,,,,,,,,,,,,,,,,,,,,,,,,,
,,,,,,,,2023-08-16_08h34.16.995,HF_wild_card,2022.2.4,Win32,59.84798612,62b0567cdc9d1b36d234a319,64d2fd46c836a06233681665,64dc7be8348813c8bd4e572e,,,,,,,sngl,resources/DB.BMP,resources/Empty.png,Door1,-0.128703718,0,1,0,0,0.5617,optionLeft,30,10305,5,18,0,18,0,1,,,,,,,,,,,,,,,,,,,,,,,,,,,,,,,,,,,,,,,
,,,,,,,,2023-08-16_08h34.16.995,HF_wild_card,2022.2.4,Win32,59.84798612,62b0567cdc9d1b36d234a319,64d2fd46c836a06233681665,64dc7be8348813c8bd4e572e,,,,,,,ctch,resources/DG.BMP,resources/DP.BMP,Door3,0.234259288,-0.011111118,1,0,0,0.694799999,optionRight,70,10375,5,19,0,19,0,1,,,,,,,,,,,,,,,,,,,,,,,,,,,,,,,,,,,,,,,
,,,,,,,,2023-08-16_08h34.16.995,HF_wild_card,2022.2.4,Win32,59.84798612,62b0567cdc9d1b36d234a319,64d2fd46c836a06233681665,64dc7be8348813c8bd4e572e,,,,,,,ctch,resources/DBN.BMP,resources/DB.BMP,Door4,-0.189814815,-0.029629637,1,0,0,1.0115,optionLeft,60,10435,5,20,0,20,0,1,,,,,,,,,,,,,,,,,,,,,,,,,,,,,,,,,,,,,,,
,,,,,,,,2023-08-16_08h34.16.995,HF_wild_card,2022.2.4,Win32,59.84798612,62b0567cdc9d1b36d234a319,64d2fd46c836a06233681665,64dc7be8348813c8bd4e572e,,,,,,,decisionTrl,resources/DP.BMP,resources/DBN.BMP,Door3,-0.107407393,-0.025925919,1,0,0,1.3615,optionLeft,70,10505,5,21,0,21,0,1,,,,,,,,,,,,,,,,,,,,,,,,,,,,,,,,,,,,,,,
,,,,,,,,2023-08-16_08h34.16.995,HF_wild_card,2022.2.4,Win32,59.84798612,62b0567cdc9d1b36d234a319,64d2fd46c836a06233681665,64dc7be8348813c8bd4e572e,,,,,,,decisionTrl,resources/DG.BMP,resources/DB.BMP,Door1,0.166666667,-0.017592607,1,0,0,0.945200001,optionRight,30,10535,5,22,0,22,0,1,,,,,,,,,,,,,,,,,,,,,,,,,,,,,,,,,,,,,,,
,,,,,,,,2023-08-16_08h34.16.995,HF_wild_card,2022.2.4,Win32,59.84798612,62b0567cdc9d1b36d234a319,64d2fd46c836a06233681665,64dc7be8348813c8bd4e572e,,,,,,,sngl,resources/Empty.png,resources/DP.BMP,Door3,0.107407393,-0.043518526,1,0,0,0.6449,optionRight,70,10605,5,23,0,23,0,1,,,,,,,,,,,,,,,,,,,,,,,,,,,,,,,,,,,,,,,
,,,,,,,,2023-08-16_08h34.16.995,HF_wild_card,2022.2.4,Win32,59.84798612,62b0567cdc9d1b36d234a319,64d2fd46c836a06233681665,64dc7be8348813c8bd4e572e,,,,,,,sngl,resources/DBN.BMP,resources/Empty.png,Door4,-0.266666624,-0.068518533,1,0,0,0.695700001,optionLeft,80,10685,5,24,0,24,0,1,,,,,,,,,,,,,,,,,,,,,,,,,,,,,,,,,,,,,,,
,,,,,,,,2023-08-16_08h34.16.995,HF_wild_card,2022.2.4,Win32,59.84798612,62b0567cdc9d1b36d234a319,64d2fd46c836a06233681665,64dc7be8348813c8bd4e572e,,,,,,,decisionTrl,resources/DB.BMP,resources/DG.BMP,Door1,-0.236111111,-0.068518533,1,0,0,5.1113,optionLeft,30,10715,5,25,0,25,0,1,,,,,,,,,,,,,,,,,,,,,,,,,,,,,,,,,,,,,,,
,,,,,,,,2023-08-16_08h34.16.995,HF_wild_card,2022.2.4,Win32,59.84798612,62b0567cdc9d1b36d234a319,64d2fd46c836a06233681665,64dc7be8348813c8bd4e572e,,,,,,,decisionTrl,resources/DP.BMP,resources/DR.BMP,Door3,-0.402777778,-0.054629644,1,0,0,0.929,optionLeft,70,10785,5,26,0,26,0,1,,,,,,,,,,,,,,,,,,,,,,,,,,,,,,,,,,,,,,,
,,,,,,,,2023-08-16_08h34.16.995,HF_wild_card,2022.2.4,Win32,59.84798612,62b0567cdc9d1b36d234a319,64d2fd46c836a06233681665,64dc7be8348813c8bd4e572e,,,,,,,decisionTrl,resources/DB.BMP,resources/DR.BMP,Door1,-0.413888896,-0.01666666,1,0,0,0.9283,optionLeft,30,10815,5,27,0,27,0,1,,,,,,,,,,,,,,,,,,,,,,,,,,,,,,,,,,,,,,,
,,,,,,,,2023-08-16_08h34.16.995,HF_wild_card,2022.2.4,Win32,59.84798612,62b0567cdc9d1b36d234a319,64d2fd46c836a06233681665,64dc7be8348813c8bd4e572e,,,,,,,ctch,resources/DBN.BMP,resources/DB.BMP,Door4,-0.310185185,-0.038888896,1,0,0,0.710700001,optionLeft,60,10875,5,28,0,28,0,1,,,,,,,,,,,,,,,,,,,,,,,,,,,,,,,,,,,,,,,
,,,,,,,,2023-08-16_08h34.16.995,HF_wild_card,2022.2.4,Win32,59.84798612,62b0567cdc9d1b36d234a319,64d2fd46c836a06233681665,64dc7be8348813c8bd4e572e,,,,,,,ctch,resources/DB.BMP,resources/DBN.BMP,Door4,0.388888889,0.052777785,1,0,0,0.9615,optionRight,60,10935,5,29,0,29,0,1,,,,,,,,,,,,,,,,,,,,,,,,,,,,,,,,,,,,,,,
,,,,,,,,2023-08-16_08h34.16.995,HF_wild_card,2022.2.4,Win32,59.84798612,62b0567cdc9d1b36d234a319,64d2fd46c836a06233681665,64dc7be8348813c8bd4e572e,,,,,,,sngl,resources/DR.BMP,resources/Empty.png,WildCard_Ex,-0.344444452,-0.050000014,1,0,0,0.578099999,optionLeft,95,11030,5,30,0,30,0,1,,,,,,,,,,,,,,,,,,,,,,,,,,,,,,,,,,,,,,,
,,,,,,,,2023-08-16_08h34.16.995,HF_wild_card,2022.2.4,Win32,59.84798612,62b0567cdc9d1b36d234a319,64d2fd46c836a06233681665,64dc7be8348813c8bd4e572e,,,,,,,decisionTrl,resources/DBN.BMP,resources/DP.BMP,Door4,-0.246296282,-0.042592614,1,0,0,0.7117,optionLeft,60,11090,5,31,0,31,0,1,,,,,,,,,,,,,,,,,,,,,,,,,,,,,,,,,,,,,,,
,,,,,,,,2023-08-16_08h34.16.995,HF_wild_card,2022.2.4,Win32,59.84798612,62b0567cdc9d1b36d234a319,64d2fd46c836a06233681665,64dc7be8348813c8bd4e572e,,,,,,,decisionTrl,resources/DG.BMP,resources/DB.BMP,Door1,0.334259316,0.087037016,1,0,0,0.944799999,optionRight,30,11120,5,32,0,32,0,1,,,,,,,,,,,,,,,,,,,,,,,,,,,,,,,,,,,,,,,
,,,,,,,,2023-08-16_08h34.16.995,HF_wild_card,2022.2.4,Win32,59.84798612,62b0567cdc9d1b36d234a319,64d2fd46c836a06233681665,64dc7be8348813c8bd4e572e,,,,,,,decisionTrl,resources/DB.BMP,resources/DG.BMP,Door1,-0.17777775,-0.041666667,1,0,0,1.326700001,optionLeft,30,11150,5,33,0,33,0,1,,,,,,,,,,,,,,,,,,,,,,,,,,,,,,,,,,,,,,,
,,,,,,,,2023-08-16_08h34.16.995,HF_wild_card,2022.2.4,Win32,59.84798612,62b0567cdc9d1b36d234a319,64d2fd46c836a06233681665,64dc7be8348813c8bd4e572e,,,,,,,decisionTrl,resources/DBN.BMP,resources/DP.BMP,Door4,-0.165740755,-0.009259259,1,0,0,0.878299999,optionLeft,80,11230,5,34,0,34,0,1,,,,,,,,,,,,,,,,,,,,,,,,,,,,,,,,,,,,,,,
,,,,,,,,2023-08-16_08h34.16.995,HF_wild_card,2022.2.4,Win32,59.84798612,62b0567cdc9d1b36d234a319,64d2fd46c836a06233681665,64dc7be8348813c8bd4e572e,,,,,,,sngl,resources/Empty.png,resources/DR.BMP,WildCard_Ex,0.200925968,-0.009259259,1,0,0,0.7283,optionRight,95,11325,5,35,0,35,0,1,,,,,,,,,,,,,,,,,,,,,,,,,,,,,,,,,,,,,,,
,,,,,,,,2023-08-16_08h34.16.995,HF_wild_card,2022.2.4,Win32,59.84798612,62b0567cdc9d1b36d234a319,64d2fd46c836a06233681665,64dc7be8348813c8bd4e572e,,,,,,,decisionTrl,resources/DG.BMP,resources/DB.BMP,Door1,0.317592621,0.069444444,1,0,0,1.561599999,optionRight,30,11355,5,36,0,36,0,1,,,,,,,,,,,,,,,,,,,,,,,,,,,,,,,,,,,,,,,
,,,,,,,,2023-08-16_08h34.16.995,HF_wild_card,2022.2.4,Win32,59.84798612,62b0567cdc9d1b36d234a319,64d2fd46c836a06233681665,64dc7be8348813c8bd4e572e,,,,,,,sngl,resources/Empty.png,resources/DBN.BMP,Door4,0.27870369,-0.044444437,1,0,0,1.2288,optionRight,60,11415,5,37,0,37,0,1,,,,,,,,,,,,,,,,,,,,,,,,,,,,,,,,,,,,,,,
,,,,,,,,2023-08-16_08h34.16.995,HF_wild_card,2022.2.4,Win32,59.84798612,62b0567cdc9d1b36d234a319,64d2fd46c836a06233681665,64dc7be8348813c8bd4e572e,,,,,,,sngl,resources/DG.BMP,resources/Empty.png,Door2,-0.148148148,-0.012962977,1,0,0,1.0191,optionLeft,40,11455,5,38,0,38,0,1,,,,,,,,,,,,,,,,,,,,,,,,,,,,,,,,,,,,,,,
,,,,,,,,2023-08-16_08h34.16.995,HF_wild_card,2022.2.4,Win32,59.84798612,62b0567cdc9d1b36d234a319,64d2fd46c836a06233681665,64dc7be8348813c8bd4e572e,,,,,,,sngl,resources/DP.BMP,resources/Empty.png,Door3,-0.306481467,-0.001851859,1,0,0,0.5953,optionLeft,70,11525,5,39,0,39,0,1,,,,,,,,,,,,,,,,,,,,,,,,,,,,,,,,,,,,,,,
,,,,,,,,2023-08-16_08h34.16.995,HF_wild_card,2022.2.4,Win32,59.84798612,62b0567cdc9d1b36d234a319,64d2fd46c836a06233681665,64dc7be8348813c8bd4e572e,,,,,,,decisionTrl,resources/DP.BMP,resources/DBN.BMP,Door3,-0.274999972,-0.011111118,1,0,0,9.2,optionLeft,70,11595,5,40,0,40,0,1,,,,,,,,,,,,,,,,,,,,,,,,,,,,,,,,,,,,,,,
,,,,,,,,2023-08-16_08h34.16.995,HF_wild_card,2022.2.4,Win32,59.84798612,62b0567cdc9d1b36d234a319,64d2fd46c836a06233681665,64dc7be8348813c8bd4e572e,,,,,,,decisionTrl,resources/DR.BMP,resources/DG.BMP,WildCard_Ex,-0.185185185,-0.045370384,1,0,0,1.1116,optionLeft,95,11690,5,41,0,41,0,1,,,,,,,,,,,,,,,,,,,,,,,,,,,,,,,,,,,,,,,
,,,,,,,,2023-08-16_08h34.16.995,HF_wild_card,2022.2.4,Win32,59.84798612,62b0567cdc9d1b36d234a319,64d2fd46c836a06233681665,64dc7be8348813c8bd4e572e,,,,,,,ctch,resources/DB.BMP,resources/DBN.BMP,Door4,0.192592621,-0.01203703,1,0,0,0.7785,optionRight,60,11750,5,42,0,42,0,1,,,,,,,,,,,,,,,,,,,,,,,,,,,,,,,,,,,,,,,
,,,,,,,,2023-08-16_08h34.16.995,HF_wild_card,2022.2.4,Win32,59.84798612,62b0567cdc9d1b36d234a319,64d2fd46c836a06233681665,64dc7be8348813c8bd4e572e,,,,,,,decisionTrl,resources/DR.BMP,resources/DP.BMP,WildCard_Ex,-0.25,-0.061111132,1,0,0,0.6111,optionLeft,95,11845,5,43,0,43,0,1,,,,,,,,,,,,,,,,,,,,,,,,,,,,,,,,,,,,,,,
,,,,,,,,2023-08-16_08h34.16.995,HF_wild_card,2022.2.4,Win32,59.84798612,62b0567cdc9d1b36d234a319,64d2fd46c836a06233681665,64dc7be8348813c8bd4e572e,,,,,,,,,,,,,,,,,,,,,,,,,,4,0,4,0,1,,,,,,,,,,,,,,,,,,,,,,,,,,,,,,,,,,
,,,,,,,,2023-08-16_08h34.16.995,HF_wild_card,2022.2.4,Win32,59.84798612,62b0567cdc9d1b36d234a319,64d2fd46c836a06233681665,64dc7be8348813c8bd4e572e,,,,,,,sngl,resources/Empty.png,resources/DP.BMP,Door3,0.339814787,-0.175925926,1,0,0,0.8026,optionRight,70,11915,6,0,0,0,0,1,,,,,,,,,,,,,,,,,,,,,,,,,,,,,,,,,,,,,,,
,,,,,,,,2023-08-16_08h34.16.995,HF_wild_card,2022.2.4,Win32,59.84798612,62b0567cdc9d1b36d234a319,64d2fd46c836a06233681665,64dc7be8348813c8bd4e572e,,,,,,,decisionTrl,resources/DG.BMP,resources/DB.BMP,Door2,-0.285185143,-0.097222222,1,0,0,0.711700001,optionLeft,40,11955,6,1,0,1,0,1,,,,,,,,,,,,,,,,,,,,,,,,,,,,,,,,,,,,,,,
,,,,,,,,2023-08-16_08h34.16.995,HF_wild_card,2022.2.4,Win32,59.84798612,62b0567cdc9d1b36d234a319,64d2fd46c836a06233681665,64dc7be8348813c8bd4e572e,,,,,,,decisionTrl,resources/DBN.BMP,resources/DP.BMP,Door4,-0.235185199,-0.047222243,1,0,0,0.911299999,optionLeft,60,12015,6,2,0,2,0,1,,,,,,,,,,,,,,,,,,,,,,,,,,,,,,,,,,,,,,,
,,,,,,,,2023-08-16_08h34.16.995,HF_wild_card,2022.2.4,Win32,59.84798612,62b0567cdc9d1b36d234a319,64d2fd46c836a06233681665,64dc7be8348813c8bd4e572e,,,,,,,decisionTrl,resources/DB.BMP,resources/DG.BMP,Door2,0.172222208,-0.046296296,1,0,0,1.095,optionRight,20,12035,6,3,0,3,0,1,,,,,,,,,,,,,,,,,,,,,,,,,,,,,,,,,,,,,,,
,,,,,,,,2023-08-16_08h34.16.995,HF_wild_card,2022.2.4,Win32,59.84798612,62b0567cdc9d1b36d234a319,64d2fd46c836a06233681665,64dc7be8348813c8bd4e572e,,,,,,,decisionTrl,resources/DR.BMP,resources/DP.BMP,WildCard_Ex,-0.199999986,0.037037037,1,0,0,0.9948,optionLeft,5,12040,6,4,0,4,0,1,,,,,,,,,,,,,,,,,,,,,,,,,,,,,,,,,,,,,,,
,,,,,,,,2023-08-16_08h34.16.995,HF_wild_card,2022.2.4,Win32,59.84798612,62b0567cdc9d1b36d234a319,64d2fd46c836a06233681665,64dc7be8348813c8bd4e572e,,,,,,,sngl,resources/DG.BMP,resources/Empty.png,Door2,-0.201851809,0.066666674,1,0,0,0.6527,optionLeft,20,12060,6,5,0,5,0,1,,,,,,,,,,,,,,,,,,,,,,,,,,,,,,,,,,,,,,,
,,,,,,,,2023-08-16_08h34.16.995,HF_wild_card,2022.2.4,Win32,59.84798612,62b0567cdc9d1b36d234a319,64d2fd46c836a06233681665,64dc7be8348813c8bd4e572e,,,,,,,sngl,resources/Empty.png,resources/DG.BMP,Door2,0.208333333,-0.028703725,1,0,0,0.547900001,optionRight,40,12100,6,6,0,6,0,1,,,,,,,,,,,,,,,,,,,,,,,,,,,,,,,,,,,,,,,
,,,,,,,,2023-08-16_08h34.16.995,HF_wild_card,2022.2.4,Win32,59.84798612,62b0567cdc9d1b36d234a319,64d2fd46c836a06233681665,64dc7be8348813c8bd4e572e,,,,,,,ctch,resources/DG.BMP,resources/DP.BMP,Door3,0.189814815,0.002777771,1,0,0,1.3931,optionRight,70,12170,6,7,0,7,0,1,,,,,,,,,,,,,,,,,,,,,,,,,,,,,,,,,,,,,,,
,,,,,,,,2023-08-16_08h34.16.995,HF_wild_card,2022.2.4,Win32,59.84798612,62b0567cdc9d1b36d234a319,64d2fd46c836a06233681665,64dc7be8348813c8bd4e572e,,,,,,,ctch,resources/DBN.BMP,resources/DB.BMP,Door4,-0.17314812,0.00462963,1,0,0,0.8309,optionLeft,80,12250,6,8,0,8,0,1,,,,,,,,,,,,,,,,,,,,,,,,,,,,,,,,,,,,,,,
,,,,,,,,2023-08-16_08h34.16.995,HF_wild_card,2022.2.4,Win32,59.84798612,62b0567cdc9d1b36d234a319,64d2fd46c836a06233681665,64dc7be8348813c8bd4e572e,,,,,,,sngl,resources/DBN.BMP,resources/Empty.png,Door4,-0.264814801,0,1,0,0,0.5132,optionLeft,60,12310,6,9,0,9,0,1,,,,,,,,,,,,,,,,,,,,,,,,,,,,,,,,,,,,,,,
,,,,,,,,2023-08-16_08h34.16.995,HF_wild_card,2022.2.4,Win32,59.84798612,62b0567cdc9d1b36d234a319,64d2fd46c836a06233681665,64dc7be8348813c8bd4e572e,,,,,,,sngl,resources/Empty.png,resources/DR.BMP,WildCard_Ex,0.12962963,-0.062962956,1,0,0,0.916099999,optionRight,95,12405,6,10,0,10,0,1,,,,,,,,,,,,,,,,,,,,,,,,,,,,,,,,,,,,,,,
,,,,,,,,2023-08-16_08h34.16.995,HF_wild_card,2022.2.4,Win32,59.84798612,62b0567cdc9d1b36d234a319,64d2fd46c836a06233681665,64dc7be8348813c8bd4e572e,,,,,,,decisionTrl,resources/DR.BMP,resources/DG.BMP,WildCard_Ex,-0.125,-0.008333347,1,0,0,0.604099999,optionLeft,5,12410,6,11,0,11,0,1,,,,,,,,,,,,,,,,,,,,,,,,,,,,,,,,,,,,,,,
,,,,,,,,2023-08-16_08h34.16.995,HF_wild_card,2022.2.4,Win32,59.84798612,62b0567cdc9d1b36d234a319,64d2fd46c836a06233681665,64dc7be8348813c8bd4e572e,,,,,,,ctch,resources/DG.BMP,resources/DP.BMP,Door3,0.183333362,-0.067592586,1,0,0,1.2797,optionRight,70,12480,6,12,0,12,0,1,,,,,,,,,,,,,,,,,,,,,,,,,,,,,,,,,,,,,,,
,,,,,,,,2023-08-16_08h34.16.995,HF_wild_card,2022.2.4,Win32,59.84798612,62b0567cdc9d1b36d234a319,64d2fd46c836a06233681665,64dc7be8348813c8bd4e572e,,,,,,,decisionTrl,resources/DB.BMP,resources/DG.BMP,Door1,-0.240740741,-0.00462963,1,0,0,2.9659,optionLeft,30,12510,6,13,0,13,0,1,,,,,,,,,,,,,,,,,,,,,,,,,,,,,,,,,,,,,,,
,,,,,,,,2023-08-16_08h34.16.995,HF_wild_card,2022.2.4,Win32,59.84798612,62b0567cdc9d1b36d234a319,64d2fd46c836a06233681665,64dc7be8348813c8bd4e572e,,,,,,,sngl,resources/DP.BMP,resources/Empty.png,Door3,-0.17314812,0.009259259,1,0,0,0.5235,optionLeft,70,12580,6,14,0,14,0,1,,,,,,,,,,,,,,,,,,,,,,,,,,,,,,,,,,,,,,,
,,,,,,,,2023-08-16_08h34.16.995,HF_wild_card,2022.2.4,Win32,59.84798612,62b0567cdc9d1b36d234a319,64d2fd46c836a06233681665,64dc7be8348813c8bd4e572e,,,,,,,ctch,resources/DB.BMP,resources/DBN.BMP,Door4,0.112037023,-0.028703725,1,0,0,1.1483,optionRight,80,12660,6,15,0,15,0,1,,,,,,,,,,,,,,,,,,,,,,,,,,,,,,,,,,,,,,,
,,,,,,,,2023-08-16_08h34.16.995,HF_wild_card,2022.2.4,Win32,59.84798612,62b0567cdc9d1b36d234a319,64d2fd46c836a06233681665,64dc7be8348813c8bd4e572e,,,,,,,decisionTrl,resources/DP.BMP,resources/DR.BMP,Door3,-0.342592593,-0.0074074,1,0,0,0.9484,optionLeft,70,12730,6,16,0,16,0,1,,,,,,,,,,,,,,,,,,,,,,,,,,,,,,,,,,,,,,,
,,,,,,,,2023-08-16_08h34.16.995,HF_wild_card,2022.2.4,Win32,59.84798612,62b0567cdc9d1b36d234a319,64d2fd46c836a06233681665,64dc7be8348813c8bd4e572e,,,,,,,ctch,resources/DP.BMP,resources/DG.BMP,Door3,-0.162962949,-0.077777792,1,0,0,1.0645,optionLeft,70,12800,6,17,0,17,0,1,,,,,,,,,,,,,,,,,,,,,,,,,,,,,,,,,,,,,,,
,,,,,,,,2023-08-16_08h34.16.995,HF_wild_card,2022.2.4,Win32,59.84798612,62b0567cdc9d1b36d234a319,64d2fd46c836a06233681665,64dc7be8348813c8bd4e572e,,,,,,,sngl,resources/DR.BMP,resources/Empty.png,WildCard_Ex,-0.250925912,-0.010185206,1,0,0,0.713400001,optionLeft,95,12895,6,18,0,18,0,1,,,,,,,,,,,,,,,,,,,,,,,,,,,,,,,,,,,,,,,
,,,,,,,,2023-08-16_08h34.16.995,HF_wild_card,2022.2.4,Win32,59.84798612,62b0567cdc9d1b36d234a319,64d2fd46c836a06233681665,64dc7be8348813c8bd4e572e,,,,,,,decisionTrl,resources/DBN.BMP,resources/DP.BMP,Door4,-0.264814801,0.018518519,1,0,0,0.7985,optionLeft,60,12955,6,19,0,19,0,1,,,,,,,,,,,,,,,,,,,,,,,,,,,,,,,,,,,,,,,
,,,,,,,,2023-08-16_08h34.16.995,HF_wild_card,2022.2.4,Win32,59.84798612,62b0567cdc9d1b36d234a319,64d2fd46c836a06233681665,64dc7be8348813c8bd4e572e,,,,,,,sngl,resources/Empty.png,resources/DBN.BMP,Door4,0.171296296,0.008333312,1,0,0,0.6785,optionRight,80,13035,6,20,0,20,0,1,,,,,,,,,,,,,,,,,,,,,,,,,,,,,,,,,,,,,,,
,,,,,,,,2023-08-16_08h34.16.995,HF_wild_card,2022.2.4,Win32,59.84798612,62b0567cdc9d1b36d234a319,64d2fd46c836a06233681665,64dc7be8348813c8bd4e572e,,,,,,,decisionTrl,resources/DP.BMP,resources/DBN.BMP,Door4,0.20185188,-0.020370377,1,0,0,2.3068,optionRight,80,13115,6,21,0,21,0,1,,,,,,,,,,,,,,,,,,,,,,,,,,,,,,,,,,,,,,,
,,,,,,,,2023-08-16_08h34.16.995,HF_wild_card,2022.2.4,Win32,59.84798612,62b0567cdc9d1b36d234a319,64d2fd46c836a06233681665,64dc7be8348813c8bd4e572e,,,,,,,sngl,resources/Empty.png,resources/DB.BMP,Door1,0.155555584,-0.012962977,1,0,0,0.6979,optionRight,30,13145,6,22,0,22,0,1,,,,,,,,,,,,,,,,,,,,,,,,,,,,,,,,,,,,,,,
,,,,,,,,2023-08-16_08h34.16.995,HF_wild_card,2022.2.4,Win32,59.84798612,62b0567cdc9d1b36d234a319,64d2fd46c836a06233681665,64dc7be8348813c8bd4e572e,,,,,,,decisionTrl,resources/DG.BMP,resources/DB.BMP,Door1,0.287037037,-0.041666667,1,0,0,0.9957,optionRight,30,13175,6,23,0,23,0,1,,,,,,,,,,,,,,,,,,,,,,,,,,,,,,,,,,,,,,,
,,,,,,,,2023-08-16_08h34.16.995,HF_wild_card,2022.2.4,Win32,59.84798612,62b0567cdc9d1b36d234a319,64d2fd46c836a06233681665,64dc7be8348813c8bd4e572e,,,,,,,decisionTrl,resources/DG.BMP,resources/DR.BMP,Door2,-0.232407393,-0.028703725,1,0,0,0.7325,optionLeft,20,13195,6,24,0,24,0,1,,,,,,,,,,,,,,,,,,,,,,,,,,,,,,,,,,,,,,,
,,,,,,,,2023-08-16_08h34.16.995,HF_wild_card,2022.2.4,Win32,59.84798612,62b0567cdc9d1b36d234a319,64d2fd46c836a06233681665,64dc7be8348813c8bd4e572e,,,,,,,decisionTrl,resources/DB.BMP,resources/DR.BMP,WildCard_Ex,0.162962949,-0.025925919,1,0,0,0.6361,optionRight,5,13200,6,25,0,25,0,1,,,,,,,,,,,,,,,,,,,,,,,,,,,,,,,,,,,,,,,
,,,,,,,,2023-08-16_08h34.16.995,HF_wild_card,2022.2.4,Win32,59.84798612,62b0567cdc9d1b36d234a319,64d2fd46c836a06233681665,64dc7be8348813c8bd4e572e,,,,,,,decisionTrl,resources/DP.BMP,resources/DBN.BMP,Door4,0.275925954,0.006481489,1,0,0,1.1275,optionRight,60,13260,6,26,0,26,0,1,,,,,,,,,,,,,,,,,,,,,,,,,,,,,,,,,,,,,,,
,,,,,,,,2023-08-16_08h34.16.995,HF_wild_card,2022.2.4,Win32,59.84798612,62b0567cdc9d1b36d234a319,64d2fd46c836a06233681665,64dc7be8348813c8bd4e572e,,,,,,,decisionTrl,resources/DBN.BMP,resources/DP.BMP,Door4,-0.179629644,-0.038888896,1,0,0,1.1993,optionLeft,60,13320,6,27,0,27,0,1,,,,,,,,,,,,,,,,,,,,,,,,,,,,,,,,,,,,,,,
,,,,,,,,2023-08-16_08h34.16.995,HF_wild_card,2022.2.4,Win32,59.84798612,62b0567cdc9d1b36d234a319,64d2fd46c836a06233681665,64dc7be8348813c8bd4e572e,,,,,,,decisionTrl,resources/DBN.BMP,resources/DR.BMP,WildCard_Ex,0.119444459,-0.01666666,1,0,0,0.8762,optionRight,5,13325,6,28,0,28,0,1,,,,,,,,,,,,,,,,,,,,,,,,,,,,,,,,,,,,,,,
,,,,,,,,2023-08-16_08h34.16.995,HF_wild_card,2022.2.4,Win32,59.84798612,62b0567cdc9d1b36d234a319,64d2fd46c836a06233681665,64dc7be8348813c8bd4e572e,,,,,,,decisionTrl,resources/DB.BMP,resources/DG.BMP,Door2,0.128703718,-0.024074095,1,0,0,0.9106,optionRight,40,13365,6,29,0,29,0,1,,,,,,,,,,,,,,,,,,,,,,,,,,,,,,,,,,,,,,,
,,,,,,,,2023-08-16_08h34.16.995,HF_wild_card,2022.2.4,Win32,59.84798612,62b0567cdc9d1b36d234a319,64d2fd46c836a06233681665,64dc7be8348813c8bd4e572e,,,,,,,decisionTrl,resources/DG.BMP,resources/DB.BMP,Door1,0.171296296,0.026851831,1,0,0,1.2635,optionRight,30,13395,6,30,0,30,0,1,,,,,,,,,,,,,,,,,,,,,,,,,,,,,,,,,,,,,,,
,,,,,,,,2023-08-16_08h34.16.995,HF_wild_card,2022.2.4,Win32,59.84798612,62b0567cdc9d1b36d234a319,64d2fd46c836a06233681665,64dc7be8348813c8bd4e572e,,,,,,,decisionTrl,resources/DBN.BMP,resources/DP.BMP,Door4,-0.296296296,-0.040740755,1,0,0,0.7724,optionLeft,80,13475,6,31,0,31,0,1,,,,,,,,,,,,,,,,,,,,,,,,,,,,,,,,,,,,,,,
,,,,,,,,2023-08-16_08h34.16.995,HF_wild_card,2022.2.4,Win32,59.84798612,62b0567cdc9d1b36d234a319,64d2fd46c836a06233681665,64dc7be8348813c8bd4e572e,,,,,,,decisionTrl,resources/DP.BMP,resources/DBN.BMP,Door3,-0.211111069,-0.026851866,1,0,0,1.101799999,optionLeft,70,13545,6,32,0,32,0,1,,,,,,,,,,,,,,,,,,,,,,,,,,,,,,,,,,,,,,,
,,,,,,,,2023-08-16_08h34.16.995,HF_wild_card,2022.2.4,Win32,59.84798612,62b0567cdc9d1b36d234a319,64d2fd46c836a06233681665,64dc7be8348813c8bd4e572e,,,,,,,sngl,resources/DB.BMP,resources/Empty.png,Door1,-0.200925898,-0.009259259,1,0,0,0.6669,optionLeft,30,13575,6,33,0,33,0,1,,,,,,,,,,,,,,,,,,,,,,,,,,,,,,,,,,,,,,,
,,,,,,,,2023-08-16_08h34.16.995,HF_wild_card,2022.2.4,Win32,59.84798612,62b0567cdc9d1b36d234a319,64d2fd46c836a06233681665,64dc7be8348813c8bd4e572e,,,,,,,decisionTrl,resources/DG.BMP,resources/DB.BMP,Door1,0.111111111,-0.013888889,1,0,0,2.213900001,optionRight,30,13605,6,34,0,34,0,1,,,,,,,,,,,,,,,,,,,,,,,,,,,,,,,,,,,,,,,
,,,,,,,,2023-08-16_08h34.16.995,HF_wild_card,2022.2.4,Win32,59.84798612,62b0567cdc9d1b36d234a319,64d2fd46c836a06233681665,64dc7be8348813c8bd4e572e,,,,,,,sngl,resources/Empty.png,resources/DR.BMP,WildCard_Ex,0.12962963,0.0074074,1,0,0,0.7393,optionRight,5,13610,6,35,0,35,0,1,,,,,,,,,,,,,,,,,,,,,,,,,,,,,,,,,,,,,,,
,,,,,,,,2023-08-16_08h34.16.995,HF_wild_card,2022.2.4,Win32,59.84798612,62b0567cdc9d1b36d234a319,64d2fd46c836a06233681665,64dc7be8348813c8bd4e572e,,,,,,,decisionTrl,resources/DB.BMP,resources/DG.BMP,Door2,0.158333319,-0.047222243,1,0,0,4.4596,optionRight,20,13630,6,36,0,36,0,1,,,,,,,,,,,,,,,,,,,,,,,,,,,,,,,,,,,,,,,
,,,,,,,,2023-08-16_08h34.16.995,HF_wild_card,2022.2.4,Win32,59.84798612,62b0567cdc9d1b36d234a319,64d2fd46c836a06233681665,64dc7be8348813c8bd4e572e,,,,,,,ctch,resources/DP.BMP,resources/DG.BMP,Door3,-0.311111097,-0.073148162,1,0,0,0.6381,optionLeft,70,13700,6,37,0,37,0,1,,,,,,,,,,,,,,,,,,,,,,,,,,,,,,,,,,,,,,,
,,,,,,,,2023-08-16_08h34.16.995,HF_wild_card,2022.2.4,Win32,59.84798612,62b0567cdc9d1b36d234a319,64d2fd46c836a06233681665,64dc7be8348813c8bd4e572e,,,,,,,decisionTrl,resources/DP.BMP,resources/DBN.BMP,Door4,0.319444444,0.046296296,1,0,0,0.749799999,optionRight,60,13760,6,38,0,38,0,1,,,,,,,,,,,,,,,,,,,,,,,,,,,,,,,,,,,,,,,
,,,,,,,,2023-08-16_08h34.16.995,HF_wild_card,2022.2.4,Win32,59.84798612,62b0567cdc9d1b36d234a319,64d2fd46c836a06233681665,64dc7be8348813c8bd4e572e,,,,,,,ctch,resources/DBN.BMP,resources/DB.BMP,Door4,-0.131481453,-0.00462963,1,0,0,0.7334,optionLeft,60,13820,6,39,0,39,0,1,,,,,,,,,,,,,,,,,,,,,,,,,,,,,,,,,,,,,,,
,,,,,,,,2023-08-16_08h34.16.995,HF_wild_card,2022.2.4,Win32,59.84798612,62b0567cdc9d1b36d234a319,64d2fd46c836a06233681665,64dc7be8348813c8bd4e572e,,,,,,,sngl,resources/DR.BMP,resources/Empty.png,WildCard_Ex,-0.156481496,-0.018518519,1,0,0,0.5653,optionLeft,5,13825,6,40,0,40,0,1,,,,,,,,,,,,,,,,,,,,,,,,,,,,,,,,,,,,,,,
,,,,,,,,2023-08-16_08h34.16.995,HF_wild_card,2022.2.4,Win32,59.84798612,62b0567cdc9d1b36d234a319,64d2fd46c836a06233681665,64dc7be8348813c8bd4e572e,,,,,,,decisionTrl,resources/DR.BMP,resources/DB.BMP,WildCard_Ex,-0.135185171,-0.023148148,1,0,0,0.682200001,optionLeft,5,13830,6,41,0,41,0,1,,,,,,,,,,,,,,,,,,,,,,,,,,,,,,,,,,,,,,,
,,,,,,,,2023-08-16_08h34.16.995,HF_wild_card,2022.2.4,Win32,59.84798612,62b0567cdc9d1b36d234a319,64d2fd46c836a06233681665,64dc7be8348813c8bd4e572e,,,,,,,ctch,resources/DB.BMP,resources/DBN.BMP,Door4,0.415740826,0.01203703,1,0,0,0.6142,optionRight,80,13910,6,42,0,42,0,1,,,,,,,,,,,,,,,,,,,,,,,,,,,,,,,,,,,,,,,
,,,,,,,,2023-08-16_08h34.16.995,HF_wild_card,2022.2.4,Win32,59.84798612,62b0567cdc9d1b36d234a319,64d2fd46c836a06233681665,64dc7be8348813c8bd4e572e,,,,,,,decisionTrl,resources/DR.BMP,resources/DBN.BMP,Door4,0.348148205,0.025000007,1,0,0,1.2244,optionRight,60,13970,6,43,0,43,0,1,,,,,,,,,,,,,,,,,,,,,,,,,,,,,,,,,,,,,,,
,,,,,,,,2023-08-16_08h34.16.995,HF_wild_card,2022.2.4,Win32,59.84798612,62b0567cdc9d1b36d234a319,64d2fd46c836a06233681665,64dc7be8348813c8bd4e572e,,,,,,,,,,,,,,,,,,,,,,,,,,5,0,5,0,1,,,,,,,,,,,,,,,,,,,,,,,,,,,,,,,,,,
,,,,,,,,2023-08-16_08h34.16.995,HF_wild_card,2022.2.4,Win32,59.84798612,62b0567cdc9d1b36d234a319,64d2fd46c836a06233681665,64dc7be8348813c8bd4e572e,,,,,,,ctch,resources/DB.BMP,resources/DBN.BMP,Door4,0.234259288,-0.046296296,1,0,0,0.814,optionRight,80,14050,7,0,0,0,0,1,,,,,,,,,,,,,,,,,,,,,,,,,,,,,,,,,,,,,,,
,,,,,,,,2023-08-16_08h34.16.995,HF_wild_card,2022.2.4,Win32,59.84798612,62b0567cdc9d1b36d234a319,64d2fd46c836a06233681665,64dc7be8348813c8bd4e572e,,,,,,,decisionTrl,resources/DB.BMP,resources/DG.BMP,Door2,0.180555556,0.000925912,1,0,0,1.4156,optionRight,40,14090,7,1,0,1,0,1,,,,,,,,,,,,,,,,,,,,,,,,,,,,,,,,,,,,,,,
,,,,,,,,2023-08-16_08h34.16.995,HF_wild_card,2022.2.4,Win32,59.84798612,62b0567cdc9d1b36d234a319,64d2fd46c836a06233681665,64dc7be8348813c8bd4e572e,,,,,,,decisionTrl,resources/DBN.BMP,resources/DP.BMP,Door4,-0.233333305,0.022222201,1,0,0,0.7737,optionLeft,80,14170,7,2,0,2,0,1,,,,,,,,,,,,,,,,,,,,,,,,,,,,,,,,,,,,,,,
,,,,,,,,2023-08-16_08h34.16.995,HF_wild_card,2022.2.4,Win32,59.84798612,62b0567cdc9d1b36d234a319,64d2fd46c836a06233681665,64dc7be8348813c8bd4e572e,,,,,,,decisionTrl,resources/DBN.BMP,resources/DP.BMP,Door4,-0.327777757,0.025000007,1,0,0,0.9505,optionLeft,80,14250,7,3,0,3,0,1,,,,,,,,,,,,,,,,,,,,,,,,,,,,,,,,,,,,,,,
,,,,,,,,2023-08-16_08h34.16.995,HF_wild_card,2022.2.4,Win32,59.84798612,62b0567cdc9d1b36d234a319,64d2fd46c836a06233681665,64dc7be8348813c8bd4e572e,,,,,,,decisionTrl,resources/DP.BMP,resources/DBN.BMP,Door3,-0.146296254,-0.013888889,1,0,0,0.8844,optionLeft,70,14320,7,4,0,4,0,1,,,,,,,,,,,,,,,,,,,,,,,,,,,,,,,,,,,,,,,
,,,,,,,,2023-08-16_08h34.16.995,HF_wild_card,2022.2.4,Win32,59.84798612,62b0567cdc9d1b36d234a319,64d2fd46c836a06233681665,64dc7be8348813c8bd4e572e,,,,,,,ctch,resources/DB.BMP,resources/DBN.BMP,Door4,0.287037037,-0.018518519,1,0,0,0.6872,optionRight,60,14380,7,5,0,5,0,1,,,,,,,,,,,,,,,,,,,,,,,,,,,,,,,,,,,,,,,
,,,,,,,,2023-08-16_08h34.16.995,HF_wild_card,2022.2.4,Win32,59.84798612,62b0567cdc9d1b36d234a319,64d2fd46c836a06233681665,64dc7be8348813c8bd4e572e,,,,,,,decisionTrl,resources/DB.BMP,resources/DG.BMP,Door2,0.377777806,0.015740748,1,0,0,1.2053,optionRight,40,14420,7,6,0,6,0,1,,,,,,,,,,,,,,,,,,,,,,,,,,,,,,,,,,,,,,,
,,,,,,,,2023-08-16_08h34.16.995,HF_wild_card,2022.2.4,Win32,59.84798612,62b0567cdc9d1b36d234a319,64d2fd46c836a06233681665,64dc7be8348813c8bd4e572e,,,,,,,decisionTrl,resources/DG.BMP,resources/DB.BMP,Door2,-0.212962963,0.034259266,1,0,0,0.8476,optionLeft,40,14460,7,7,0,7,0,1,,,,,,,,,,,,,,,,,,,,,,,,,,,,,,,,,,,,,,,
,,,,,,,,2023-08-16_08h34.16.995,HF_wild_card,2022.2.4,Win32,59.84798612,62b0567cdc9d1b36d234a319,64d2fd46c836a06233681665,64dc7be8348813c8bd4e572e,,,,,,,decisionTrl,resources/DBN.BMP,resources/DP.BMP,Door4,-0.191666638,-0.021296289,1,0,0,0.766,optionLeft,80,14540,7,8,0,8,0,1,,,,,,,,,,,,,,,,,,,,,,,,,,,,,,,,,,,,,,,
,,,,,,,,2023-08-16_08h34.16.995,HF_wild_card,2022.2.4,Win32,59.84798612,62b0567cdc9d1b36d234a319,64d2fd46c836a06233681665,64dc7be8348813c8bd4e572e,,,,,,,ctch,resources/DP.BMP,resources/DG.BMP,Door3,-0.186111097,0.009259259,1,0,0,0.733400001,optionLeft,70,14610,7,9,0,9,0,1,,,,,,,,,,,,,,,,,,,,,,,,,,,,,,,,,,,,,,,
,,,,,,,,2023-08-16_08h34.16.995,HF_wild_card,2022.2.4,Win32,59.84798612,62b0567cdc9d1b36d234a319,64d2fd46c836a06233681665,64dc7be8348813c8bd4e572e,,,,,,,decisionTrl,resources/DBN.BMP,resources/DP.BMP,Door4,-0.189814815,0.013888889,1,0,0,0.8253,optionLeft,80,14690,7,10,0,10,0,1,,,,,,,,,,,,,,,,,,,,,,,,,,,,,,,,,,,,,,,
,,,,,,,,2023-08-16_08h34.16.995,HF_wild_card,2022.2.4,Win32,59.84798612,62b0567cdc9d1b36d234a319,64d2fd46c836a06233681665,64dc7be8348813c8bd4e572e,,,,,,,ctch,resources/DBN.BMP,resources/DB.BMP,Door4,-0.210185157,0.003703683,1,0,0,0.682900001,optionLeft,60,14750,7,11,0,11,0,1,,,,,,,,,,,,,,,,,,,,,,,,,,,,,,,,,,,,,,,
,,,,,,,,2023-08-16_08h34.16.995,HF_wild_card,2022.2.4,Win32,59.84798612,62b0567cdc9d1b36d234a319,64d2fd46c836a06233681665,64dc7be8348813c8bd4e572e,,,,,,,decisionTrl,resources/DG.BMP,resources/DB.BMP,Door1,0.23055557,0.011111118,1,0,0,1.8787,optionRight,30,14780,7,12,0,12,0,1,,,,,,,,,,,,,,,,,,,,,,,,,,,,,,,,,,,,,,,
,,,,,,,,2023-08-16_08h34.16.995,HF_wild_card,2022.2.4,Win32,59.84798612,62b0567cdc9d1b36d234a319,64d2fd46c836a06233681665,64dc7be8348813c8bd4e572e,,,,,,,decisionTrl,resources/DG.BMP,resources/DB.BMP,Door2,-0.139814801,-0.049074067,1,0,0,1.5992,optionLeft,40,14820,7,13,0,13,0,1,,,,,,,,,,,,,,,,,,,,,,,,,,,,,,,,,,,,,,,
,,,,,,,,2023-08-16_08h34.16.995,HF_wild_card,2022.2.4,Win32,59.84798612,62b0567cdc9d1b36d234a319,64d2fd46c836a06233681665,64dc7be8348813c8bd4e572e,,,,,,,decisionTrl,resources/DP.BMP,resources/DBN.BMP,Door4,0.419444473,-0.042592614,1,0,0,2.3155,optionRight,60,14880,7,14,0,14,0,1,,,,,,,,,,,,,,,,,,,,,,,,,,,,,,,,,,,,,,,
,,,,,,,,2023-08-16_08h34.16.995,HF_wild_card,2022.2.4,Win32,59.84798612,62b0567cdc9d1b36d234a319,64d2fd46c836a06233681665,64dc7be8348813c8bd4e572e,,,,,,,decisionTrl,resources/DB.BMP,resources/DG.BMP,Door1,-0.209259245,-0.071296303,1,0,0,1.7455,optionLeft,30,14910,7,15,0,15,0,1,,,,,,,,,,,,,,,,,,,,,,,,,,,,,,,,,,,,,,,
,,,,,,,,2023-08-16_08h34.16.995,HF_wild_card,2022.2.4,Win32,59.84798612,62b0567cdc9d1b36d234a319,64d2fd46c836a06233681665,64dc7be8348813c8bd4e572e,,,,,,,ctch,resources/DG.BMP,resources/DP.BMP,Door3,0.276851866,0.01203703,1,0,0,1.0631,optionRight,70,14980,7,16,0,16,0,1,,,,,,,,,,,,,,,,,,,,,,,,,,,,,,,,,,,,,,,
,,,,,,,,2023-08-16_08h34.16.995,HF_wild_card,2022.2.4,Win32,59.84798612,62b0567cdc9d1b36d234a319,64d2fd46c836a06233681665,64dc7be8348813c8bd4e572e,,,,,,,ctch,resources/DG.BMP,resources/DP.BMP,Door3,0.310185185,0.00462963,1,0,0,0.9048,optionRight,70,15050,7,17,0,17,0,1,,,,,,,,,,,,,,,,,,,,,,,,,,,,,,,,,,,,,,,
,,,,,,,,2023-08-16_08h34.16.995,HF_wild_card,2022.2.4,Win32,59.84798612,62b0567cdc9d1b36d234a319,64d2fd46c836a06233681665,64dc7be8348813c8bd4e572e,,,,,,,ctch,resources/DBN.BMP,resources/DB.BMP,Door4,-0.237962935,-0.017592607,1,0,0,0.824,optionLeft,80,15130,7,18,0,18,0,1,,,,,,,,,,,,,,,,,,,,,,,,,,,,,,,,,,,,,,,
,,,,,,,,2023-08-16_08h34.16.995,HF_wild_card,2022.2.4,Win32,59.84798612,62b0567cdc9d1b36d234a319,64d2fd46c836a06233681665,64dc7be8348813c8bd4e572e,,,,,,,ctch,resources/DP.BMP,resources/DG.BMP,Door3,-0.182407379,-0.001851859,1,0,0,0.6705,optionLeft,70,15200,7,19,0,19,0,1,,,,,,,,,,,,,,,,,,,,,,,,,,,,,,,,,,,,,,,
,,,,,,,,2023-08-16_08h34.16.995,HF_wild_card,2022.2.4,Win32,59.84798612,62b0567cdc9d1b36d234a319,64d2fd46c836a06233681665,64dc7be8348813c8bd4e572e,,,,,,,ctch,resources/DBN.BMP,resources/DB.BMP,Door4,-0.198148162,0.005555541,1,0,0,0.636799999,optionLeft,60,15260,7,20,0,20,0,1,,,,,,,,,,,,,,,,,,,,,,,,,,,,,,,,,,,,,,,
,,,,,,,,2023-08-16_08h34.16.995,HF_wild_card,2022.2.4,Win32,59.84798612,62b0567cdc9d1b36d234a319,64d2fd46c836a06233681665,64dc7be8348813c8bd4e572e,,,,,,,decisionTrl,resources/DB.BMP,resources/DG.BMP,Door2,0.496296353,0.048148155,1,0,0,0.9665,optionRight,40,15300,7,21,0,21,0,1,,,,,,,,,,,,,,,,,,,,,,,,,,,,,,,,,,,,,,,
,,,,,,,,2023-08-16_08h34.16.995,HF_wild_card,2022.2.4,Win32,59.84798612,62b0567cdc9d1b36d234a319,64d2fd46c836a06233681665,64dc7be8348813c8bd4e572e,,,,,,,decisionTrl,resources/DP.BMP,resources/DBN.BMP,Door3,-0.285185143,-0.071296303,1,0,0,1.532099999,optionLeft,70,15370,7,22,0,22,0,1,,,,,,,,,,,,,,,,,,,,,,,,,,,,,,,,,,,,,,,
,,,,,,,,2023-08-16_08h34.16.995,HF_wild_card,2022.2.4,Win32,59.84798612,62b0567cdc9d1b36d234a319,64d2fd46c836a06233681665,64dc7be8348813c8bd4e572e,,,,,,,decisionTrl,resources/DB.BMP,resources/DG.BMP,Door1,-0.249074088,-0.052777785,1,0,0,1.464400001,optionLeft,30,15400,7,23,0,23,0,1,,,,,,,,,,,,,,,,,,,,,,,,,,,,,,,,,,,,,,,
,,,,,,,,2023-08-16_08h34.16.995,HF_wild_card,2022.2.4,Win32,59.84798612,62b0567cdc9d1b36d234a319,64d2fd46c836a06233681665,64dc7be8348813c8bd4e572e,,,,,,,decisionTrl,resources/DP.BMP,resources/DBN.BMP,Door4,0.178703732,-0.000925947,1,0,0,0.672200001,optionRight,60,15460,7,24,0,24,0,1,,,,,,,,,,,,,,,,,,,,,,,,,,,,,,,,,,,,,,,
,,,,,,,,2023-08-16_08h34.16.995,HF_wild_card,2022.2.4,Win32,59.84798612,62b0567cdc9d1b36d234a319,64d2fd46c836a06233681665,64dc7be8348813c8bd4e572e,,,,,,,decisionTrl,resources/DP.BMP,resources/DBN.BMP,Door4,0.262037065,0.010185171,1,0,0,0.6072,optionRight,80,15540,7,25,0,25,0,1,,,,,,,,,,,,,,,,,,,,,,,,,,,,,,,,,,,,,,,
,,,,,,,,2023-08-16_08h34.16.995,HF_wild_card,2022.2.4,Win32,59.84798612,62b0567cdc9d1b36d234a319,64d2fd46c836a06233681665,64dc7be8348813c8bd4e572e,,,,,,,decisionTrl,resources/DG.BMP,resources/DB.BMP,Door1,0.486111111,-0.055555556,1,0,0,3.2822,optionRight,30,15570,7,26,0,26,0,1,,,,,,,,,,,,,,,,,,,,,,,,,,,,,,,,,,,,,,,
,,,,,,,,2023-08-16_08h34.16.995,HF_wild_card,2022.2.4,Win32,59.84798612,62b0567cdc9d1b36d234a319,64d2fd46c836a06233681665,64dc7be8348813c8bd4e572e,,,,,,,decisionTrl,resources/DB.BMP,resources/DG.BMP,Door1,-0.187037009,-0.025000007,1,0,0,3.182,optionLeft,30,15600,7,27,0,27,0,1,,,,,,,,,,,,,,,,,,,,,,,,,,,,,,,,,,,,,,,
,,,,,,,,2023-08-16_08h34.16.995,HF_wild_card,2022.2.4,Win32,59.84798612,62b0567cdc9d1b36d234a319,64d2fd46c836a06233681665,64dc7be8348813c8bd4e572e,,,,,,,decisionTrl,resources/DBN.BMP,resources/DP.BMP,Door4,-0.185185185,-0.017592607,1,0,0,1.131900001,optionLeft,60,15660,7,28,0,28,0,1,,,,,,,,,,,,,,,,,,,,,,,,,,,,,,,,,,,,,,,
,,,,,,,,2023-08-16_08h34.16.995,HF_wild_card,2022.2.4,Win32,59.84798612,62b0567cdc9d1b36d234a319,64d2fd46c836a06233681665,64dc7be8348813c8bd4e572e,,,,,,,decisionTrl,resources/DG.BMP,resources/DB.BMP,Door1,0.154629672,-0.062962956,1,0,0,1.182099999,optionRight,30,15690,7,29,0,29,0,1,,,,,,,,,,,,,,,,,,,,,,,,,,,,,,,,,,,,,,,
,,,,,,,,2023-08-16_08h34.16.995,HF_wild_card,2022.2.4,Win32,59.84798612,62b0567cdc9d1b36d234a319,64d2fd46c836a06233681665,64dc7be8348813c8bd4e572e,,,,,,,decisionTrl,resources/DP.BMP,resources/DBN.BMP,Door4,0.252777806,-0.061111132,1,0,0,4.0736,optionRight,60,15750,7,30,0,30,0,1,,,,,,,,,,,,,,,,,,,,,,,,,,,,,,,,,,,,,,,
,,,,,,,,2023-08-16_08h34.16.995,HF_wild_card,2022.2.4,Win32,59.84798612,62b0567cdc9d1b36d234a319,64d2fd46c836a06233681665,64dc7be8348813c8bd4e572e,,,,,,,ctch,resources/DG.BMP,resources/DP.BMP,Door3,0.441666638,0.008333312,1,0,0,1.382700001,optionRight,70,15820,7,31,0,31,0,1,,,,,,,,,,,,,,,,,,,,,,,,,,,,,,,,,,,,,,,
,,,,,,,,2023-08-16_08h34.16.995,HF_wild_card,2022.2.4,Win32,59.84798612,62b0567cdc9d1b36d234a319,64d2fd46c836a06233681665,64dc7be8348813c8bd4e572e,,,,,,,decisionTrl,resources/DG.BMP,resources/DB.BMP,Door1,0.134259259,-0.059259273,1,0,0,2.716400001,optionRight,30,15850,7,32,0,32,0,1,,,,,,,,,,,,,,,,,,,,,,,,,,,,,,,,,,,,,,,
,,,,,,,,2023-08-16_08h34.16.995,HF_wild_card,2022.2.4,Win32,59.84798612,62b0567cdc9d1b36d234a319,64d2fd46c836a06233681665,64dc7be8348813c8bd4e572e,,,,,,,decisionTrl,resources/DBN.BMP,resources/DP.BMP,Door4,-0.212037051,-0.058333326,1,0,0,0.7839,optionLeft,60,15910,7,33,0,33,0,1,,,,,,,,,,,,,,,,,,,,,,,,,,,,,,,,,,,,,,,
,,,,,,,,2023-08-16_08h34.16.995,HF_wild_card,2022.2.4,Win32,59.84798612,62b0567cdc9d1b36d234a319,64d2fd46c836a06233681665,64dc7be8348813c8bd4e572e,,,,,,,ctch,resources/DP.BMP,resources/DG.BMP,Door3,-0.14444443,-0.01666666,1,0,0,0.7944,optionLeft,70,15980,7,34,0,34,0,1,,,,,,,,,,,,,,,,,,,,,,,,,,,,,,,,,,,,,,,
,,,,,,,,2023-08-16_08h34.16.995,HF_wild_card,2022.2.4,Win32,59.84798612,62b0567cdc9d1b36d234a319,64d2fd46c836a06233681665,64dc7be8348813c8bd4e572e,,,,,,,ctch,resources/DB.BMP,resources/DBN.BMP,Door4,0.271296325,-0.01203703,1,0,0,0.6964,optionRight,80,16060,7,35,0,35,0,1,,,,,,,,,,,,,,,,,,,,,,,,,,,,,,,,,,,,,,,
,,,,,,,,2023-08-16_08h34.16.995,HF_wild_card,2022.2.4,Win32,59.84798612,62b0567cdc9d1b36d234a319,64d2fd46c836a06233681665,64dc7be8348813c8bd4e572e,,,,,,,,,,,,,,,,,,,,,,,,,,6,0,6,0,1,,,,,,,,,,,,,,,,,,,,,,,,,,,,,,,,,,
,,,,,,,,2023-08-16_08h34.16.995,HF_wild_card,2022.2.4,Win32,59.84798612,62b0567cdc9d1b36d234a319,64d2fd46c836a06233681665,64dc7be8348813c8bd4e572e,,,,,,,,,,,,,,,,,,,,,,,,,,,,,,,4,,,,,,,,,,,,,,,,,,,,,,,,,,,,,,,,,
,,,,,,,,2023-08-16_08h34.16.995,HF_wild_card,2022.2.4,Win32,59.84798612,62b0567cdc9d1b36d234a319,64d2fd46c836a06233681665,64dc7be8348813c8bd4e572e,,,,,,,,,,,,,,,,,,,,,,,,,,,,,,,,,,,,,,,,,,,,,,,,,,,,,,,,,,,,,,,,
,,,,,,,,2023-08-16_08h34.16.995,HF_wild_card,2022.2.4,Win32,59.84798612,62b0567cdc9d1b36d234a319,64d2fd46c836a06233681665,64dc7be8348813c8bd4e572e,,,,,,,,,,,,,,,,,,,,,,,,,,,,,,,,20,Door2,resources/DG.BMP,0,0,0,0,1,,,,,,,,,,,,,,,,,,,,,,,,,
,,,,,,,,2023-08-16_08h34.16.995,HF_wild_card,2022.2.4,Win32,59.84798612,62b0567cdc9d1b36d234a319,64d2fd46c836a06233681665,64dc7be8348813c8bd4e572e,,,,,,,,,,,,,,,,,,,,,,,,,,,,,,,,70,Door3,resources/DP.BMP,1,0,1,0,1,,,,,,,,,,,,,,,,,,,,,,,,,
,,,,,,,,2023-08-16_08h34.16.995,HF_wild_card,2022.2.4,Win32,59.84798612,62b0567cdc9d1b36d234a319,64d2fd46c836a06233681665,64dc7be8348813c8bd4e572e,,,,,,,,,,,,,,,,,,,,,,,,,,,,,,,,80,Door4,resources/DBN.BMP,2,0,2,0,1,,,,,,,,,,,,,,,,,,,,,,,,,
,,,,,,,,2023-08-16_08h34.16.995,HF_wild_card,2022.2.4,Win32,59.84798612,62b0567cdc9d1b36d234a319,64d2fd46c836a06233681665,64dc7be8348813c8bd4e572e,,,,,,,,,,,,,,,,,,,,,,,,,,,,,,,,30,Door1,resources/DB.BMP,3,0,3,0,1,,,,,,,,,,,,,,,,,,,,,,,,,
,,,,,,,,2023-08-16_08h34.16.995,HF_wild_card,2022.2.4,Win32,59.84798612,62b0567cdc9d1b36d234a319,64d2fd46c836a06233681665,64dc7be8348813c8bd4e572e,,,,,,,,,,,,,,,,,,,,,,,,,,,,,,,,45,WC_nonExtreme,resources/DY.BMP,4,0,4,0,1,,,,,,,,,,,,,,,,,,,,,,,,,
