Condition,Low fixed image (Door1),Low risky image (Door2),High fixed image (Door3),High risky image (Door4),NonExtreme Wild Card 1,NonExtreme Wild Card 2,,date,expName,psychopyVersion,OS,frameRate,PROLIFIC_PID,STUDY_ID,SESSION_ID,mouse_2.x,mouse_2.y,mouse_2.leftButton,mouse_2.midButton,mouse_2.rightButton,mouse_2.clicked_name,Trial Type,Left Option Image,Right Option Image,Chosen Door,mouse.x,mouse.y,mouse.leftButton,mouse.midButton,mouse.rightButton,mouse.time,mouse.clicked_name,Feedback,Cumulative Reward,Block,trial.thisRepN,trial.thisTrialN,trial.thisN,trial.thisIndex,trial.ran,blocks.thisRepN,blocks.thisTrialN,blocks.thisN,blocks.thisIndex,blocks.ran,Money conversion,First Outcome Reported,Shown Door (First Outcome),Displayed Image (First Outcome),outcomes.thisRepN,outcomes.thisTrialN,outcomes.thisN,outcomes.thisIndex,outcomes.ran,judgments.thisRepN,judgments.thisTrialN,judgments.thisN,judgments.thisIndex,judgments.ran,freqMouse.x,freqMouse.y,freqMouse.leftButton,freqMouse.midButton,freqMouse.rightButton,freqMouse.clicked_name,FQJ for first outcome,FQJ for second outcome,Shown Door,Displayed Image,trials.thisRepN,trials.thisTrialN,trials.thisN,trials.thisIndex,trials.ran,judgBlock.thisRepN,judgBlock.thisTrialN,judgBlock.thisN,judgBlock.thisIndex,judgBlock.ran
2,resources/DBN.BMP,resources/DB.BMP,resources/DY.BMP,resources/DR.BMP,resources/DP.BMP,resources/DG.BMP,,2023-08-16_08h59.47.403,HF_wild_card,2022.2.4,MacIntel,2.864131338,64403305213136974ed0f67a,64d2fd46c836a06233681665,64dc7eae96ba187eefe1fce0,,,,,,,,,,,,,,,,,,,,,,,,,,,,,,,,,,,,,,,,,,,,,,,,,,,,,,,,,,,,,,,,
,,,,,,,,2023-08-16_08h59.47.403,HF_wild_card,2022.2.4,MacIntel,2.864131338,64403305213136974ed0f67a,64d2fd46c836a06233681665,64dc7eae96ba187eefe1fce0,-0.013869781,-0.415294189,1,0,0,agree,,,,,,,,,,,,,,,,,,,,,,,,,,,,,,,,,,,,,,,,,,,,,,,,,,,,,,,,,,
,,,,,,,,2023-08-16_08h59.47.403,HF_wild_card,2022.2.4,MacIntel,2.864131338,64403305213136974ed0f67a,64d2fd46c836a06233681665,64dc7eae96ba187eefe1fce0,,,,,,,,,,,,,,,,,,,,,,,,,,,,,,,,,,,,,,,,,,,,,,,,,,,,,,,,,,,,,,,,
,,,,,,,,2023-08-16_08h59.47.403,HF_wild_card,2022.2.4,MacIntel,2.864131338,64403305213136974ed0f67a,64d2fd46c836a06233681665,64dc7eae96ba187eefe1fce0,,,,,,,sngl,resources/Empty.png,resources/DG.BMP,WildCard_NonEx,0.425192337,-0.015813637,1,0,0,4.2299,optionRight,45,45,1,0,0,0,0,1,,,,,,,,,,,,,,,,,,,,,,,,,,,,,,,,,,,,,,,
,,,,,,,,2023-08-16_08h59.47.403,HF_wild_card,2022.2.4,MacIntel,2.864131338,64403305213136974ed0f67a,64d2fd46c836a06233681665,64dc7eae96ba187eefe1fce0,,,,,,,sngl,resources/Empty.png,resources/DB.BMP,Door2,0.387629242,-0.046826553,1,0,0,5.9319,optionRight,20,65,1,1,0,1,0,1,,,,,,,,,,,,,,,,,,,,,,,,,,,,,,,,,,,,,,,
,,,,,,,,2023-08-16_08h59.47.403,HF_wild_card,2022.2.4,MacIntel,2.864131338,64403305213136974ed0f67a,64d2fd46c836a06233681665,64dc7eae96ba187eefe1fce0,,,,,,,ctch,resources/DR.BMP,resources/DBN.BMP,Door4,-0.405540237,-0.053589096,1,0,0,15.315,optionLeft,60,125,1,2,0,2,0,1,,,,,,,,,,,,,,,,,,,,,,,,,,,,,,,,,,,,,,,
,,,,,,,,2023-08-16_08h59.47.403,HF_wild_card,2022.2.4,MacIntel,2.864131338,64403305213136974ed0f67a,64d2fd46c836a06233681665,64dc7eae96ba187eefe1fce0,,,,,,,decisionTrl,resources/DB.BMP,resources/DBN.BMP,Door1,0.380543289,0.014038963,1,0,0,12.6402,optionRight,30,155,1,3,0,3,0,1,,,,,,,,,,,,,,,,,,,,,,,,,,,,,,,,,,,,,,,
,,,,,,,,2023-08-16_08h59.47.403,HF_wild_card,2022.2.4,MacIntel,2.864131338,64403305213136974ed0f67a,64d2fd46c836a06233681665,64dc7eae96ba187eefe1fce0,,,,,,,sngl,resources/DR.BMP,resources/Empty.png,Door4,-0.400305405,-0.041228828,1,0,0,21.7993,optionLeft,80,235,1,4,0,4,0,1,,,,,,,,,,,,,,,,,,,,,,,,,,,,,,,,,,,,,,,
,,,,,,,,2023-08-16_08h59.47.403,HF_wild_card,2022.2.4,MacIntel,2.864131338,64403305213136974ed0f67a,64d2fd46c836a06233681665,64dc7eae96ba187eefe1fce0,,,,,,,decisionTrl,resources/DBN.BMP,resources/DG.BMP,Door1,-0.446955948,0.037885704,1,0,0,1.7027,optionLeft,30,265,1,5,0,5,0,1,,,,,,,,,,,,,,,,,,,,,,,,,,,,,,,,,,,,,,,
,,,,,,,,2023-08-16_08h59.47.403,HF_wild_card,2022.2.4,MacIntel,2.864131338,64403305213136974ed0f67a,64d2fd46c836a06233681665,64dc7eae96ba187eefe1fce0,,,,,,,decisionTrl,resources/DR.BMP,resources/DY.BMP,Door3,0.405562286,-0.031395874,1,0,0,8.2297,optionRight,70,335,1,6,0,6,0,1,,,,,,,,,,,,,,,,,,,,,,,,,,,,,,,,,,,,,,,
,,,,,,,,2023-08-16_08h59.47.403,HF_wild_card,2022.2.4,MacIntel,2.864131338,64403305213136974ed0f67a,64d2fd46c836a06233681665,64dc7eae96ba187eefe1fce0,,,,,,,decisionTrl,resources/DY.BMP,resources/DG.BMP,Door3,-0.395657921,0.014555016,1,0,0,4.2515,optionLeft,70,405,1,7,0,7,0,1,,,,,,,,,,,,,,,,,,,,,,,,,,,,,,,,,,,,,,,
,,,,,,,,2023-08-16_08h59.47.403,HF_wild_card,2022.2.4,MacIntel,2.864131338,64403305213136974ed0f67a,64d2fd46c836a06233681665,64dc7eae96ba187eefe1fce0,,,,,,,decisionTrl,resources/DY.BMP,resources/DR.BMP,Door3,-0.396372643,0.031011543,1,0,0,12.0727,optionLeft,70,475,1,8,0,8,0,1,,,,,,,,,,,,,,,,,,,,,,,,,,,,,,,,,,,,,,,
,,,,,,,,2023-08-16_08h59.47.403,HF_wild_card,2022.2.4,MacIntel,2.864131338,64403305213136974ed0f67a,64d2fd46c836a06233681665,64dc7eae96ba187eefe1fce0,,,,,,,decisionTrl,resources/DR.BMP,resources/DY.BMP,Door4,-0.436816864,-0.043707695,1,0,0,1.67,optionLeft,80,555,1,9,0,9,0,1,,,,,,,,,,,,,,,,,,,,,,,,,,,,,,,,,,,,,,,
,,,,,,,,2023-08-16_08h59.47.403,HF_wild_card,2022.2.4,MacIntel,2.864131338,64403305213136974ed0f67a,64d2fd46c836a06233681665,64dc7eae96ba187eefe1fce0,,,,,,,sngl,resources/DY.BMP,resources/Empty.png,Door3,-0.388873177,0.028384895,1,0,0,6.2069,optionLeft,70,625,1,10,0,10,0,1,,,,,,,,,,,,,,,,,,,,,,,,,,,,,,,,,,,,,,,
,,,,,,,,2023-08-16_08h59.47.403,HF_wild_card,2022.2.4,MacIntel,2.864131338,64403305213136974ed0f67a,64d2fd46c836a06233681665,64dc7eae96ba187eefe1fce0,,,,,,,decisionTrl,resources/DBN.BMP,resources/DB.BMP,Door2,0.369636078,-0.035542946,1,0,0,3.909,optionRight,20,645,1,11,0,11,0,1,,,,,,,,,,,,,,,,,,,,,,,,,,,,,,,,,,,,,,,
,,,,,,,,2023-08-16_08h59.47.403,HF_wild_card,2022.2.4,MacIntel,2.864131338,64403305213136974ed0f67a,64d2fd46c836a06233681665,64dc7eae96ba187eefe1fce0,,,,,,,ctch,resources/DB.BMP,resources/DY.BMP,Door3,0.392231979,0.03053093,1,0,0,4.4784,optionRight,70,715,1,12,0,12,0,1,,,,,,,,,,,,,,,,,,,,,,,,,,,,,,,,,,,,,,,
,,,,,,,,2023-08-16_08h59.47.403,HF_wild_card,2022.2.4,MacIntel,2.864131338,64403305213136974ed0f67a,64d2fd46c836a06233681665,64dc7eae96ba187eefe1fce0,,,,,,,decisionTrl,resources/DG.BMP,resources/DR.BMP,Door4,0.381680222,-0.034412994,1,0,0,2.8878,optionRight,60,775,1,13,0,13,0,1,,,,,,,,,,,,,,,,,,,,,,,,,,,,,,,,,,,,,,,
,,,,,,,,2023-08-16_08h59.47.403,HF_wild_card,2022.2.4,MacIntel,2.864131338,64403305213136974ed0f67a,64d2fd46c836a06233681665,64dc7eae96ba187eefe1fce0,,,,,,,ctch,resources/DR.BMP,resources/DBN.BMP,Door1,0.352266617,0.013344841,1,0,0,2.6273,optionRight,30,805,1,14,0,14,0,1,,,,,,,,,,,,,,,,,,,,,,,,,,,,,,,,,,,,,,,
,,,,,,,,2023-08-16_08h59.47.403,HF_wild_card,2022.2.4,MacIntel,2.864131338,64403305213136974ed0f67a,64d2fd46c836a06233681665,64dc7eae96ba187eefe1fce0,,,,,,,sngl,resources/DG.BMP,resources/Empty.png,WildCard_NonEx,-0.332077065,0.007686043,1,0,0,3.3439,optionLeft,45,850,1,15,0,15,0,1,,,,,,,,,,,,,,,,,,,,,,,,,,,,,,,,,,,,,,,
,,,,,,,,2023-08-16_08h59.47.403,HF_wild_card,2022.2.4,MacIntel,2.864131338,64403305213136974ed0f67a,64d2fd46c836a06233681665,64dc7eae96ba187eefe1fce0,,,,,,,sngl,resources/Empty.png,resources/DG.BMP,WildCard_NonEx,0.387507706,-0.023644409,1,0,0,4.4894,optionRight,55,905,1,16,0,16,0,1,,,,,,,,,,,,,,,,,,,,,,,,,,,,,,,,,,,,,,,
,,,,,,,,2023-08-16_08h59.47.403,HF_wild_card,2022.2.4,MacIntel,2.864131338,64403305213136974ed0f67a,64d2fd46c836a06233681665,64dc7eae96ba187eefe1fce0,,,,,,,sngl,resources/DG.BMP,resources/Empty.png,WildCard_NonEx,-0.377263527,-0.004281769,1,0,0,1.4873,optionLeft,55,960,1,17,0,17,0,1,,,,,,,,,,,,,,,,,,,,,,,,,,,,,,,,,,,,,,,
,,,,,,,,2023-08-16_08h59.47.403,HF_wild_card,2022.2.4,MacIntel,2.864131338,64403305213136974ed0f67a,64d2fd46c836a06233681665,64dc7eae96ba187eefe1fce0,,,,,,,ctch,resources/DBN.BMP,resources/DR.BMP,Door4,0.381784439,-0.033141975,1,0,0,2.1454,optionRight,60,1020,1,18,0,18,0,1,,,,,,,,,,,,,,,,,,,,,,,,,,,,,,,,,,,,,,,
,,,,,,,,2023-08-16_08h59.47.403,HF_wild_card,2022.2.4,MacIntel,2.864131338,64403305213136974ed0f67a,64d2fd46c836a06233681665,64dc7eae96ba187eefe1fce0,,,,,,,decisionTrl,resources/DB.BMP,resources/DBN.BMP,Door1,0.399672165,0.020860558,1,0,0,2.0837,optionRight,30,1050,1,19,0,19,0,1,,,,,,,,,,,,,,,,,,,,,,,,,,,,,,,,,,,,,,,
,,,,,,,,2023-08-16_08h59.47.403,HF_wild_card,2022.2.4,MacIntel,2.864131338,64403305213136974ed0f67a,64d2fd46c836a06233681665,64dc7eae96ba187eefe1fce0,,,,,,,ctch,resources/DY.BMP,resources/DB.BMP,Door3,-0.397200623,0.030457382,1,0,0,1.4812,optionLeft,70,1120,1,20,0,20,0,1,,,,,,,,,,,,,,,,,,,,,,,,,,,,,,,,,,,,,,,
,,,,,,,,2023-08-16_08h59.47.403,HF_wild_card,2022.2.4,MacIntel,2.864131338,64403305213136974ed0f67a,64d2fd46c836a06233681665,64dc7eae96ba187eefe1fce0,,,,,,,decisionTrl,resources/DBN.BMP,resources/DB.BMP,Door1,-0.395243988,0.012719765,1,0,0,2.5503,optionLeft,30,1150,1,21,0,21,0,1,,,,,,,,,,,,,,,,,,,,,,,,,,,,,,,,,,,,,,,
,,,,,,,,2023-08-16_08h59.47.403,HF_wild_card,2022.2.4,MacIntel,2.864131338,64403305213136974ed0f67a,64d2fd46c836a06233681665,64dc7eae96ba187eefe1fce0,,,,,,,sngl,resources/DBN.BMP,resources/Empty.png,Door1,-0.379743462,-0.016886406,1,0,0,1.4674,optionLeft,30,1180,1,22,0,22,0,1,,,,,,,,,,,,,,,,,,,,,,,,,,,,,,,,,,,,,,,
,,,,,,,,2023-08-16_08h59.47.403,HF_wild_card,2022.2.4,MacIntel,2.864131338,64403305213136974ed0f67a,64d2fd46c836a06233681665,64dc7eae96ba187eefe1fce0,,,,,,,decisionTrl,resources/DBN.BMP,resources/DB.BMP,Door2,0.386764832,-0.03142662,1,0,0,1.2886,optionRight,20,1200,1,23,0,23,0,1,,,,,,,,,,,,,,,,,,,,,,,,,,,,,,,,,,,,,,,
,,,,,,,,2023-08-16_08h59.47.403,HF_wild_card,2022.2.4,MacIntel,2.864131338,64403305213136974ed0f67a,64d2fd46c836a06233681665,64dc7eae96ba187eefe1fce0,,,,,,,ctch,resources/DY.BMP,resources/DB.BMP,Door3,-0.389923744,0.015650215,1,0,0,4.7518,optionLeft,70,1270,1,24,0,24,0,1,,,,,,,,,,,,,,,,,,,,,,,,,,,,,,,,,,,,,,,
,,,,,,,,2023-08-16_08h59.47.403,HF_wild_card,2022.2.4,MacIntel,2.864131338,64403305213136974ed0f67a,64d2fd46c836a06233681665,64dc7eae96ba187eefe1fce0,,,,,,,decisionTrl,resources/DG.BMP,resources/DBN.BMP,Door1,0.397162094,-0.005353165,1,0,0,2.7354,optionRight,30,1300,1,25,0,25,0,1,,,,,,,,,,,,,,,,,,,,,,,,,,,,,,,,,,,,,,,
,,,,,,,,2023-08-16_08h59.47.403,HF_wild_card,2022.2.4,MacIntel,2.864131338,64403305213136974ed0f67a,64d2fd46c836a06233681665,64dc7eae96ba187eefe1fce0,,,,,,,decisionTrl,resources/DB.BMP,resources/DBN.BMP,Door2,-0.404805069,-0.026458626,1,0,0,1.3231,optionLeft,20,1320,1,26,0,26,0,1,,,,,,,,,,,,,,,,,,,,,,,,,,,,,,,,,,,,,,,
,,,,,,,,2023-08-16_08h59.47.403,HF_wild_card,2022.2.4,MacIntel,2.864131338,64403305213136974ed0f67a,64d2fd46c836a06233681665,64dc7eae96ba187eefe1fce0,,,,,,,ctch,resources/DB.BMP,resources/DY.BMP,Door3,0.395,-0.014753532,1,0,0,1.2987,optionRight,70,1390,1,27,0,27,0,1,,,,,,,,,,,,,,,,,,,,,,,,,,,,,,,,,,,,,,,
,,,,,,,,2023-08-16_08h59.47.403,HF_wild_card,2022.2.4,MacIntel,2.864131338,64403305213136974ed0f67a,64d2fd46c836a06233681665,64dc7eae96ba187eefe1fce0,,,,,,,decisionTrl,resources/DY.BMP,resources/DR.BMP,Door3,-0.396076164,0.012639084,1,0,0,9.5272,optionLeft,70,1460,1,28,0,28,0,1,,,,,,,,,,,,,,,,,,,,,,,,,,,,,,,,,,,,,,,
,,,,,,,,2023-08-16_08h59.47.403,HF_wild_card,2022.2.4,MacIntel,2.864131338,64403305213136974ed0f67a,64d2fd46c836a06233681665,64dc7eae96ba187eefe1fce0,,,,,,,decisionTrl,resources/DR.BMP,resources/DY.BMP,Door3,0.404476929,-0.002592621,1,0,0,7.208,optionRight,70,1530,1,29,0,29,0,1,,,,,,,,,,,,,,,,,,,,,,,,,,,,,,,,,,,,,,,
,,,,,,,,2023-08-16_08h59.47.403,HF_wild_card,2022.2.4,MacIntel,2.864131338,64403305213136974ed0f67a,64d2fd46c836a06233681665,64dc7eae96ba187eefe1fce0,,,,,,,decisionTrl,resources/DY.BMP,resources/DR.BMP,Door3,-0.377632446,0.025536003,1,0,0,2.5135,optionLeft,70,1600,1,30,0,30,0,1,,,,,,,,,,,,,,,,,,,,,,,,,,,,,,,,,,,,,,,
,,,,,,,,2023-08-16_08h59.47.403,HF_wild_card,2022.2.4,MacIntel,2.864131338,64403305213136974ed0f67a,64d2fd46c836a06233681665,64dc7eae96ba187eefe1fce0,,,,,,,sngl,resources/Empty.png,resources/DY.BMP,Door3,0.411449585,0.020196686,1,0,0,9.4559,optionRight,70,1670,1,31,0,31,0,1,,,,,,,,,,,,,,,,,,,,,,,,,,,,,,,,,,,,,,,
,,,,,,,,2023-08-16_08h59.47.403,HF_wild_card,2022.2.4,MacIntel,2.864131338,64403305213136974ed0f67a,64d2fd46c836a06233681665,64dc7eae96ba187eefe1fce0,,,,,,,decisionTrl,resources/DG.BMP,resources/DY.BMP,Door3,0.419149323,0.020535698,1,0,0,4.5579,optionRight,70,1740,1,32,0,32,0,1,,,,,,,,,,,,,,,,,,,,,,,,,,,,,,,,,,,,,,,
,,,,,,,,2023-08-16_08h59.47.403,HF_wild_card,2022.2.4,MacIntel,2.864131338,64403305213136974ed0f67a,64d2fd46c836a06233681665,64dc7eae96ba187eefe1fce0,,,,,,,ctch,resources/DBN.BMP,resources/DR.BMP,Door1,-0.390235596,0.008898964,1,0,0,2.6206,optionLeft,30,1770,1,33,0,33,0,1,,,,,,,,,,,,,,,,,,,,,,,,,,,,,,,,,,,,,,,
,,,,,,,,2023-08-16_08h59.47.403,HF_wild_card,2022.2.4,MacIntel,2.864131338,64403305213136974ed0f67a,64d2fd46c836a06233681665,64dc7eae96ba187eefe1fce0,,,,,,,decisionTrl,resources/DB.BMP,resources/DBN.BMP,Door2,-0.445106049,-0.024925423,1,0,0,6.252,optionLeft,20,1790,1,34,0,34,0,1,,,,,,,,,,,,,,,,,,,,,,,,,,,,,,,,,,,,,,,
,,,,,,,,2023-08-16_08h59.47.403,HF_wild_card,2022.2.4,MacIntel,2.864131338,64403305213136974ed0f67a,64d2fd46c836a06233681665,64dc7eae96ba187eefe1fce0,,,,,,,decisionTrl,resources/DY.BMP,resources/DR.BMP,Door3,-0.388181305,-0.010434227,1,0,0,1.4143,optionLeft,70,1860,1,35,0,35,0,1,,,,,,,,,,,,,,,,,,,,,,,,,,,,,,,,,,,,,,,
,,,,,,,,2023-08-16_08h59.47.403,HF_wild_card,2022.2.4,MacIntel,2.864131338,64403305213136974ed0f67a,64d2fd46c836a06233681665,64dc7eae96ba187eefe1fce0,,,,,,,sngl,resources/Empty.png,resources/DBN.BMP,Door1,0.379921188,0.017003136,1,0,0,4.5206,optionRight,30,1890,1,36,0,36,0,1,,,,,,,,,,,,,,,,,,,,,,,,,,,,,,,,,,,,,,,
,,,,,,,,2023-08-16_08h59.47.403,HF_wild_card,2022.2.4,MacIntel,2.864131338,64403305213136974ed0f67a,64d2fd46c836a06233681665,64dc7eae96ba187eefe1fce0,,,,,,,decisionTrl,resources/DG.BMP,resources/DB.BMP,Door2,0.396416702,-0.052072105,1,0,0,5.8281,optionRight,40,1930,1,37,0,37,0,1,,,,,,,,,,,,,,,,,,,,,,,,,,,,,,,,,,,,,,,
,,,,,,,,2023-08-16_08h59.47.403,HF_wild_card,2022.2.4,MacIntel,2.864131338,64403305213136974ed0f67a,64d2fd46c836a06233681665,64dc7eae96ba187eefe1fce0,,,,,,,decisionTrl,resources/DB.BMP,resources/DG.BMP,Door2,-0.388296471,-0.045202103,1,0,0,1.7746,optionLeft,20,1950,1,38,0,38,0,1,,,,,,,,,,,,,,,,,,,,,,,,,,,,,,,,,,,,,,,
,,,,,,,,2023-08-16_08h59.47.403,HF_wild_card,2022.2.4,MacIntel,2.864131338,64403305213136974ed0f67a,64d2fd46c836a06233681665,64dc7eae96ba187eefe1fce0,,,,,,,decisionTrl,resources/DBN.BMP,resources/DB.BMP,Door2,0.400369415,-0.041967163,1,0,0,3.2394,optionRight,20,1970,1,39,0,39,0,1,,,,,,,,,,,,,,,,,,,,,,,,,,,,,,,,,,,,,,,
,,,,,,,,2023-08-16_08h59.47.403,HF_wild_card,2022.2.4,MacIntel,2.864131338,64403305213136974ed0f67a,64d2fd46c836a06233681665,64dc7eae96ba187eefe1fce0,,,,,,,decisionTrl,resources/DR.BMP,resources/DG.BMP,Door4,-0.409226532,-0.035801926,1,0,0,6.1046,optionLeft,80,2050,1,40,0,40,0,1,,,,,,,,,,,,,,,,,,,,,,,,,,,,,,,,,,,,,,,
,,,,,,,,2023-08-16_08h59.47.403,HF_wild_card,2022.2.4,MacIntel,2.864131338,64403305213136974ed0f67a,64d2fd46c836a06233681665,64dc7eae96ba187eefe1fce0,,,,,,,sngl,resources/Empty.png,resources/DR.BMP,Door4,0.395984039,-0.046635971,1,0,0,7.385,optionRight,60,2110,1,41,0,41,0,1,,,,,,,,,,,,,,,,,,,,,,,,,,,,,,,,,,,,,,,
,,,,,,,,2023-08-16_08h59.47.403,HF_wild_card,2022.2.4,MacIntel,2.864131338,64403305213136974ed0f67a,64d2fd46c836a06233681665,64dc7eae96ba187eefe1fce0,,,,,,,decisionTrl,resources/DR.BMP,resources/DY.BMP,Door3,0.400689926,-0.040526962,1,0,0,2.1553,optionRight,70,2180,1,42,0,42,0,1,,,,,,,,,,,,,,,,,,,,,,,,,,,,,,,,,,,,,,,
,,,,,,,,2023-08-16_08h59.47.403,HF_wild_card,2022.2.4,MacIntel,2.864131338,64403305213136974ed0f67a,64d2fd46c836a06233681665,64dc7eae96ba187eefe1fce0,,,,,,,sngl,resources/DB.BMP,resources/Empty.png,Door2,-0.403168297,-0.048898163,1,0,0,1.2247,optionLeft,40,2220,1,43,0,43,0,1,,,,,,,,,,,,,,,,,,,,,,,,,,,,,,,,,,,,,,,
,,,,,,,,2023-08-16_08h59.47.403,HF_wild_card,2022.2.4,MacIntel,2.864131338,64403305213136974ed0f67a,64d2fd46c836a06233681665,64dc7eae96ba187eefe1fce0,,,,,,,,,,,,,,,,,,,,,,,,,,0,0,0,0,1,,,,,,,,,,,,,,,,,,,,,,,,,,,,,,,,,,
,,,,,,,,2023-08-16_08h59.47.403,HF_wild_card,2022.2.4,MacIntel,2.864131338,64403305213136974ed0f67a,64d2fd46c836a06233681665,64dc7eae96ba187eefe1fce0,,,,,,,sngl,resources/Empty.png,resources/DG.BMP,WildCard_NonEx,0.406787643,-0.020686646,1,0,0,1.7248,optionRight,45,2265,2,0,0,0,0,1,,,,,,,,,,,,,,,,,,,,,,,,,,,,,,,,,,,,,,,
,,,,,,,,2023-08-16_08h59.47.403,HF_wild_card,2022.2.4,MacIntel,2.864131338,64403305213136974ed0f67a,64d2fd46c836a06233681665,64dc7eae96ba187eefe1fce0,,,,,,,decisionTrl,resources/DB.BMP,resources/DBN.BMP,Door2,-0.427436523,-0.016889648,1,0,0,1.6154,optionLeft,40,2305,2,1,0,1,0,1,,,,,,,,,,,,,,,,,,,,,,,,,,,,,,,,,,,,,,,
,,,,,,,,2023-08-16_08h59.47.403,HF_wild_card,2022.2.4,MacIntel,2.864131338,64403305213136974ed0f67a,64d2fd46c836a06233681665,64dc7eae96ba187eefe1fce0,,,,,,,decisionTrl,resources/DB.BMP,resources/DBN.BMP,Door2,0.011947479,-0.002556229,1,0,0,0.4519,optionLeft,20,2325,2,2,0,2,0,1,,,,,,,,,,,,,,,,,,,,,,,,,,,,,,,,,,,,,,,
,,,,,,,,2023-08-16_08h59.47.403,HF_wild_card,2022.2.4,MacIntel,2.864131338,64403305213136974ed0f67a,64d2fd46c836a06233681665,64dc7eae96ba187eefe1fce0,,,,,,,decisionTrl,resources/DB.BMP,resources/DBN.BMP,Door1,0.248297043,0.010492935,1,0,0,1.4209,optionRight,30,2355,2,3,0,3,0,1,,,,,,,,,,,,,,,,,,,,,,,,,,,,,,,,,,,,,,,
,,,,,,,,2023-08-16_08h59.47.403,HF_wild_card,2022.2.4,MacIntel,2.864131338,64403305213136974ed0f67a,64d2fd46c836a06233681665,64dc7eae96ba187eefe1fce0,,,,,,,ctch,resources/DY.BMP,resources/DB.BMP,Door3,-0.404947319,0.009128761,1,0,0,5.2679,optionLeft,70,2425,2,4,0,4,0,1,,,,,,,,,,,,,,,,,,,,,,,,,,,,,,,,,,,,,,,
,,,,,,,,2023-08-16_08h59.47.403,HF_wild_card,2022.2.4,MacIntel,2.864131338,64403305213136974ed0f67a,64d2fd46c836a06233681665,64dc7eae96ba187eefe1fce0,,,,,,,decisionTrl,resources/DG.BMP,resources/DB.BMP,WildCard_NonEx,-0.384469528,0.003171501,1,0,0,5.1174,optionLeft,55,2480,2,5,0,5,0,1,,,,,,,,,,,,,,,,,,,,,,,,,,,,,,,,,,,,,,,
,,,,,,,,2023-08-16_08h59.47.403,HF_wild_card,2022.2.4,MacIntel,2.864131338,64403305213136974ed0f67a,64d2fd46c836a06233681665,64dc7eae96ba187eefe1fce0,,,,,,,decisionTrl,resources/DR.BMP,resources/DY.BMP,Door3,0.428446503,0.007471771,1,0,0,6.8266,optionRight,70,2550,2,6,0,6,0,1,,,,,,,,,,,,,,,,,,,,,,,,,,,,,,,,,,,,,,,
,,,,,,,,2023-08-16_08h59.47.403,HF_wild_card,2022.2.4,MacIntel,2.864131338,64403305213136974ed0f67a,64d2fd46c836a06233681665,64dc7eae96ba187eefe1fce0,,,,,,,decisionTrl,resources/DG.BMP,resources/DR.BMP,WildCard_NonEx,-0.374258461,0.027552795,1,0,0,5.3953,optionLeft,55,2605,2,7,0,7,0,1,,,,,,,,,,,,,,,,,,,,,,,,,,,,,,,,,,,,,,,
,,,,,,,,2023-08-16_08h59.47.403,HF_wild_card,2022.2.4,MacIntel,2.864131338,64403305213136974ed0f67a,64d2fd46c836a06233681665,64dc7eae96ba187eefe1fce0,,,,,,,decisionTrl,resources/DB.BMP,resources/DBN.BMP,Door1,0.303351059,0.018146706,1,0,0,2.5793,optionRight,30,2635,2,8,0,8,0,1,,,,,,,,,,,,,,,,,,,,,,,,,,,,,,,,,,,,,,,
,,,,,,,,2023-08-16_08h59.47.403,HF_wild_card,2022.2.4,MacIntel,2.864131338,64403305213136974ed0f67a,64d2fd46c836a06233681665,64dc7eae96ba187eefe1fce0,,,,,,,ctch,resources/DB.BMP,resources/DY.BMP,Door3,0.287188187,0.031679535,1,0,0,1.2056,optionRight,70,2705,2,9,0,9,0,1,,,,,,,,,,,,,,,,,,,,,,,,,,,,,,,,,,,,,,,
,,,,,,,,2023-08-16_08h59.47.403,HF_wild_card,2022.2.4,MacIntel,2.864131338,64403305213136974ed0f67a,64d2fd46c836a06233681665,64dc7eae96ba187eefe1fce0,,,,,,,sngl,resources/Empty.png,resources/DY.BMP,Door3,0.385492096,-0.002653961,1,0,0,3.0491,optionRight,70,2775,2,10,0,10,0,1,,,,,,,,,,,,,,,,,,,,,,,,,,,,,,,,,,,,,,,
,,,,,,,,2023-08-16_08h59.47.403,HF_wild_card,2022.2.4,MacIntel,2.864131338,64403305213136974ed0f67a,64d2fd46c836a06233681665,64dc7eae96ba187eefe1fce0,,,,,,,decisionTrl,resources/DBN.BMP,resources/DG.BMP,WildCard_NonEx,0.394101791,0.002599564,1,0,0,4.1142,optionRight,45,2820,2,11,0,11,0,1,,,,,,,,,,,,,,,,,,,,,,,,,,,,,,,,,,,,,,,
,,,,,,,,2023-08-16_08h59.47.403,HF_wild_card,2022.2.4,MacIntel,2.864131338,64403305213136974ed0f67a,64d2fd46c836a06233681665,64dc7eae96ba187eefe1fce0,,,,,,,decisionTrl,resources/DBN.BMP,resources/DB.BMP,Door2,0.323929672,-0.004456825,1,0,0,1.4754,optionRight,40,2860,2,12,0,12,0,1,,,,,,,,,,,,,,,,,,,,,,,,,,,,,,,,,,,,,,,
,,,,,,,,2023-08-16_08h59.47.403,HF_wild_card,2022.2.4,MacIntel,2.864131338,64403305213136974ed0f67a,64d2fd46c836a06233681665,64dc7eae96ba187eefe1fce0,,,,,,,sngl,resources/Empty.png,resources/DB.BMP,Door2,0.424845581,-0.048614807,1,0,0,1.0026,optionRight,40,2900,2,13,0,13,0,1,,,,,,,,,,,,,,,,,,,,,,,,,,,,,,,,,,,,,,,
,,,,,,,,2023-08-16_08h59.47.403,HF_wild_card,2022.2.4,MacIntel,2.864131338,64403305213136974ed0f67a,64d2fd46c836a06233681665,64dc7eae96ba187eefe1fce0,,,,,,,ctch,resources/DBN.BMP,resources/DR.BMP,Door4,0.334089584,-0.019093399,1,0,0,2.2105,optionRight,60,2960,2,14,0,14,0,1,,,,,,,,,,,,,,,,,,,,,,,,,,,,,,,,,,,,,,,
,,,,,,,,2023-08-16_08h59.47.403,HF_wild_card,2022.2.4,MacIntel,2.864131338,64403305213136974ed0f67a,64d2fd46c836a06233681665,64dc7eae96ba187eefe1fce0,,,,,,,decisionTrl,resources/DY.BMP,resources/DR.BMP,Door3,-0.356959877,0.011700058,1,0,0,4.3842,optionLeft,70,3030,2,15,0,15,0,1,,,,,,,,,,,,,,,,,,,,,,,,,,,,,,,,,,,,,,,
,,,,,,,,2023-08-16_08h59.47.403,HF_wild_card,2022.2.4,MacIntel,2.864131338,64403305213136974ed0f67a,64d2fd46c836a06233681665,64dc7eae96ba187eefe1fce0,,,,,,,decisionTrl,resources/DR.BMP,resources/DG.BMP,Door4,-0.375993309,0.001944389,1,0,0,1.9319,optionLeft,60,3090,2,16,0,16,0,1,,,,,,,,,,,,,,,,,,,,,,,,,,,,,,,,,,,,,,,
,,,,,,,,2023-08-16_08h59.47.403,HF_wild_card,2022.2.4,MacIntel,2.864131338,64403305213136974ed0f67a,64d2fd46c836a06233681665,64dc7eae96ba187eefe1fce0,,,,,,,decisionTrl,resources/DY.BMP,resources/DR.BMP,Door3,-0.304947166,0.007729683,1,0,0,3.095,optionLeft,70,3160,2,17,0,17,0,1,,,,,,,,,,,,,,,,,,,,,,,,,,,,,,,,,,,,,,,
,,,,,,,,2023-08-16_08h59.47.403,HF_wild_card,2022.2.4,MacIntel,2.864131338,64403305213136974ed0f67a,64d2fd46c836a06233681665,64dc7eae96ba187eefe1fce0,,,,,,,decisionTrl,resources/DG.BMP,resources/DY.BMP,Door3,0.458536301,-0.015801163,1,0,0,2.4175,optionRight,70,3230,2,18,0,18,0,1,,,,,,,,,,,,,,,,,,,,,,,,,,,,,,,,,,,,,,,
,,,,,,,,2023-08-16_08h59.47.403,HF_wild_card,2022.2.4,MacIntel,2.864131338,64403305213136974ed0f67a,64d2fd46c836a06233681665,64dc7eae96ba187eefe1fce0,,,,,,,ctch,resources/DBN.BMP,resources/DR.BMP,Door4,0.234283218,-0.042488174,1,0,0,3.5437,optionRight,80,3310,2,19,0,19,0,1,,,,,,,,,,,,,,,,,,,,,,,,,,,,,,,,,,,,,,,
,,,,,,,,2023-08-16_08h59.47.403,HF_wild_card,2022.2.4,MacIntel,2.864131338,64403305213136974ed0f67a,64d2fd46c836a06233681665,64dc7eae96ba187eefe1fce0,,,,,,,sngl,resources/Empty.png,resources/DG.BMP,WildCard_NonEx,0.433004074,-0.02713501,1,0,0,14.3455,optionRight,55,3365,2,20,0,20,0,1,,,,,,,,,,,,,,,,,,,,,,,,,,,,,,,,,,,,,,,
,,,,,,,,2023-08-16_08h59.47.403,HF_wild_card,2022.2.4,MacIntel,2.864131338,64403305213136974ed0f67a,64d2fd46c836a06233681665,64dc7eae96ba187eefe1fce0,,,,,,,decisionTrl,resources/DY.BMP,resources/DG.BMP,Door3,-0.384523621,-0.016869011,1,0,0,49.3683,optionLeft,70,3435,2,21,0,21,0,1,,,,,,,,,,,,,,,,,,,,,,,,,,,,,,,,,,,,,,,
,,,,,,,,2023-08-16_08h59.47.403,HF_wild_card,2022.2.4,MacIntel,2.864131338,64403305213136974ed0f67a,64d2fd46c836a06233681665,64dc7eae96ba187eefe1fce0,,,,,,,ctch,resources/DB.BMP,resources/DY.BMP,Door3,0.356824417,-0.049756927,1,0,0,1.4482,optionRight,70,3505,2,22,0,22,0,1,,,,,,,,,,,,,,,,,,,,,,,,,,,,,,,,,,,,,,,
,,,,,,,,2023-08-16_08h59.47.403,HF_wild_card,2022.2.4,MacIntel,2.864131338,64403305213136974ed0f67a,64d2fd46c836a06233681665,64dc7eae96ba187eefe1fce0,,,,,,,sngl,resources/DBN.BMP,resources/Empty.png,Door1,-0.22954895,0.011709099,1,0,0,1.7333,optionLeft,30,3535,2,23,0,23,0,1,,,,,,,,,,,,,,,,,,,,,,,,,,,,,,,,,,,,,,,
,,,,,,,,2023-08-16_08h59.47.403,HF_wild_card,2022.2.4,MacIntel,2.864131338,64403305213136974ed0f67a,64d2fd46c836a06233681665,64dc7eae96ba187eefe1fce0,,,,,,,sngl,resources/DB.BMP,resources/Empty.png,Door2,-0.397608833,-0.007445564,1,0,0,4.2914,optionLeft,20,3555,2,24,0,24,0,1,,,,,,,,,,,,,,,,,,,,,,,,,,,,,,,,,,,,,,,
,,,,,,,,2023-08-16_08h59.47.403,HF_wild_card,2022.2.4,MacIntel,2.864131338,64403305213136974ed0f67a,64d2fd46c836a06233681665,64dc7eae96ba187eefe1fce0,,,,,,,decisionTrl,resources/DR.BMP,resources/DY.BMP,Door3,0.478380661,-0.042629662,1,0,0,9.7654,optionRight,70,3625,2,25,0,25,0,1,,,,,,,,,,,,,,,,,,,,,,,,,,,,,,,,,,,,,,,
,,,,,,,,2023-08-16_08h59.47.403,HF_wild_card,2022.2.4,MacIntel,2.864131338,64403305213136974ed0f67a,64d2fd46c836a06233681665,64dc7eae96ba187eefe1fce0,,,,,,,decisionTrl,resources/DB.BMP,resources/DG.BMP,WildCard_NonEx,0.419684906,-0.040927162,1,0,0,16.1079,optionRight,45,3670,2,26,0,26,0,1,,,,,,,,,,,,,,,,,,,,,,,,,,,,,,,,,,,,,,,
,,,,,,,,2023-08-16_08h59.47.403,HF_wild_card,2022.2.4,MacIntel,2.864131338,64403305213136974ed0f67a,64d2fd46c836a06233681665,64dc7eae96ba187eefe1fce0,,,,,,,decisionTrl,resources/DY.BMP,resources/DR.BMP,Door3,-0.348578606,0.028980293,1,0,0,3.201,optionLeft,70,3740,2,27,0,27,0,1,,,,,,,,,,,,,,,,,,,,,,,,,,,,,,,,,,,,,,,
,,,,,,,,2023-08-16_08h59.47.403,HF_wild_card,2022.2.4,MacIntel,2.864131338,64403305213136974ed0f67a,64d2fd46c836a06233681665,64dc7eae96ba187eefe1fce0,,,,,,,sngl,resources/DG.BMP,resources/Empty.png,WildCard_NonEx,-0.307832146,-0.062543259,1,0,0,1.3328,optionLeft,45,3785,2,28,0,28,0,1,,,,,,,,,,,,,,,,,,,,,,,,,,,,,,,,,,,,,,,
,,,,,,,,2023-08-16_08h59.47.403,HF_wild_card,2022.2.4,MacIntel,2.864131338,64403305213136974ed0f67a,64d2fd46c836a06233681665,64dc7eae96ba187eefe1fce0,,,,,,,decisionTrl,resources/DBN.BMP,resources/DB.BMP,Door1,-0.413327675,-0.007512016,1,0,0,4.4911,optionLeft,30,3815,2,29,0,29,0,1,,,,,,,,,,,,,,,,,,,,,,,,,,,,,,,,,,,,,,,
,,,,,,,,2023-08-16_08h59.47.403,HF_wild_card,2022.2.4,MacIntel,2.864131338,64403305213136974ed0f67a,64d2fd46c836a06233681665,64dc7eae96ba187eefe1fce0,,,,,,,decisionTrl,resources/DR.BMP,resources/DY.BMP,Door3,0.303138123,0.035286865,1,0,0,1.2902,optionRight,70,3885,2,30,0,30,0,1,,,,,,,,,,,,,,,,,,,,,,,,,,,,,,,,,,,,,,,
,,,,,,,,2023-08-16_08h59.47.403,HF_wild_card,2022.2.4,MacIntel,2.864131338,64403305213136974ed0f67a,64d2fd46c836a06233681665,64dc7eae96ba187eefe1fce0,,,,,,,sngl,resources/Empty.png,resources/DR.BMP,Door4,0.280952377,0.016167488,1,0,0,2.4174,optionRight,80,3965,2,31,0,31,0,1,,,,,,,,,,,,,,,,,,,,,,,,,,,,,,,,,,,,,,,
,,,,,,,,2023-08-16_08h59.47.403,HF_wild_card,2022.2.4,MacIntel,2.864131338,64403305213136974ed0f67a,64d2fd46c836a06233681665,64dc7eae96ba187eefe1fce0,,,,,,,decisionTrl,resources/DBN.BMP,resources/DB.BMP,Door1,-0.281436501,-0.024222717,1,0,0,1.2526,optionLeft,30,3995,2,32,0,32,0,1,,,,,,,,,,,,,,,,,,,,,,,,,,,,,,,,,,,,,,,
,,,,,,,,2023-08-16_08h59.47.403,HF_wild_card,2022.2.4,MacIntel,2.864131338,64403305213136974ed0f67a,64d2fd46c836a06233681665,64dc7eae96ba187eefe1fce0,,,,,,,sngl,resources/Empty.png,resources/DBN.BMP,Door1,0.185872116,0.023489075,1,0,0,0.9759,optionRight,30,4025,2,33,0,33,0,1,,,,,,,,,,,,,,,,,,,,,,,,,,,,,,,,,,,,,,,
,,,,,,,,2023-08-16_08h59.47.403,HF_wild_card,2022.2.4,MacIntel,2.864131338,64403305213136974ed0f67a,64d2fd46c836a06233681665,64dc7eae96ba187eefe1fce0,,,,,,,decisionTrl,resources/DR.BMP,resources/DY.BMP,Door4,-0.329225693,-0.020096245,1,0,0,2.0274,optionLeft,60,4085,2,34,0,34,0,1,,,,,,,,,,,,,,,,,,,,,,,,,,,,,,,,,,,,,,,
,,,,,,,,2023-08-16_08h59.47.403,HF_wild_card,2022.2.4,MacIntel,2.864131338,64403305213136974ed0f67a,64d2fd46c836a06233681665,64dc7eae96ba187eefe1fce0,,,,,,,sngl,resources/DY.BMP,resources/Empty.png,Door3,-0.275489616,-0.062861404,1,0,0,0.934,optionLeft,70,4155,2,35,0,35,0,1,,,,,,,,,,,,,,,,,,,,,,,,,,,,,,,,,,,,,,,
,,,,,,,,2023-08-16_08h59.47.403,HF_wild_card,2022.2.4,MacIntel,2.864131338,64403305213136974ed0f67a,64d2fd46c836a06233681665,64dc7eae96ba187eefe1fce0,,,,,,,decisionTrl,resources/DG.BMP,resources/DBN.BMP,WildCard_NonEx,-0.453894844,0.02141655,1,0,0,2.2103,optionLeft,45,4200,2,36,0,36,0,1,,,,,,,,,,,,,,,,,,,,,,,,,,,,,,,,,,,,,,,
,,,,,,,,2023-08-16_08h59.47.403,HF_wild_card,2022.2.4,MacIntel,2.864131338,64403305213136974ed0f67a,64d2fd46c836a06233681665,64dc7eae96ba187eefe1fce0,,,,,,,sngl,resources/DR.BMP,resources/Empty.png,Door4,-0.491272221,0.012396317,1,0,0,1.2641,optionLeft,60,4260,2,37,0,37,0,1,,,,,,,,,,,,,,,,,,,,,,,,,,,,,,,,,,,,,,,
,,,,,,,,2023-08-16_08h59.47.403,HF_wild_card,2022.2.4,MacIntel,2.864131338,64403305213136974ed0f67a,64d2fd46c836a06233681665,64dc7eae96ba187eefe1fce0,,,,,,,decisionTrl,resources/DY.BMP,resources/DR.BMP,Door3,-0.380548897,-0.025488129,1,0,0,2.0162,optionLeft,70,4330,2,38,0,38,0,1,,,,,,,,,,,,,,,,,,,,,,,,,,,,,,,,,,,,,,,
,,,,,,,,2023-08-16_08h59.47.403,HF_wild_card,2022.2.4,MacIntel,2.864131338,64403305213136974ed0f67a,64d2fd46c836a06233681665,64dc7eae96ba187eefe1fce0,,,,,,,decisionTrl,resources/DBN.BMP,resources/DB.BMP,Door1,-0.38678463,0.03329525,1,0,0,2.9833,optionLeft,30,4360,2,39,0,39,0,1,,,,,,,,,,,,,,,,,,,,,,,,,,,,,,,,,,,,,,,
,,,,,,,,2023-08-16_08h59.47.403,HF_wild_card,2022.2.4,MacIntel,2.864131338,64403305213136974ed0f67a,64d2fd46c836a06233681665,64dc7eae96ba187eefe1fce0,,,,,,,ctch,resources/DR.BMP,resources/DBN.BMP,Door4,-0.314339104,-0.02891819,1,0,0,6.7143,optionLeft,80,4440,2,40,0,40,0,1,,,,,,,,,,,,,,,,,,,,,,,,,,,,,,,,,,,,,,,
,,,,,,,,2023-08-16_08h59.47.403,HF_wild_card,2022.2.4,MacIntel,2.864131338,64403305213136974ed0f67a,64d2fd46c836a06233681665,64dc7eae96ba187eefe1fce0,,,,,,,sngl,resources/DG.BMP,resources/Empty.png,WildCard_NonEx,-0.256075211,0.026085701,1,0,0,1.2859,optionLeft,55,4495,2,41,0,41,0,1,,,,,,,,,,,,,,,,,,,,,,,,,,,,,,,,,,,,,,,
,,,,,,,,2023-08-16_08h59.47.403,HF_wild_card,2022.2.4,MacIntel,2.864131338,64403305213136974ed0f67a,64d2fd46c836a06233681665,64dc7eae96ba187eefe1fce0,,,,,,,ctch,resources/DY.BMP,resources/DB.BMP,Door3,-0.31981678,-0.00222641,1,0,0,1.3507,optionLeft,70,4565,2,42,0,42,0,1,,,,,,,,,,,,,,,,,,,,,,,,,,,,,,,,,,,,,,,
,,,,,,,,2023-08-16_08h59.47.403,HF_wild_card,2022.2.4,MacIntel,2.864131338,64403305213136974ed0f67a,64d2fd46c836a06233681665,64dc7eae96ba187eefe1fce0,,,,,,,ctch,resources/DR.BMP,resources/DBN.BMP,Door4,-0.341291504,0.037322388,1,0,0,5.648,optionLeft,60,4625,2,43,0,43,0,1,,,,,,,,,,,,,,,,,,,,,,,,,,,,,,,,,,,,,,,
,,,,,,,,2023-08-16_08h59.47.403,HF_wild_card,2022.2.4,MacIntel,2.864131338,64403305213136974ed0f67a,64d2fd46c836a06233681665,64dc7eae96ba187eefe1fce0,,,,,,,,,,,,,,,,,,,,,,,,,,1,0,1,0,1,,,,,,,,,,,,,,,,,,,,,,,,,,,,,,,,,,
,,,,,,,,2023-08-16_08h59.47.403,HF_wild_card,2022.2.4,MacIntel,2.864131338,64403305213136974ed0f67a,64d2fd46c836a06233681665,64dc7eae96ba187eefe1fce0,,,,,,,decisionTrl,resources/DY.BMP,resources/DG.BMP,Door3,-0.357554932,-0.049239693,1,0,0,1.2407,optionLeft,70,4695,3,0,0,0,0,1,,,,,,,,,,,,,,,,,,,,,,,,,,,,,,,,,,,,,,,
,,,,,,,,2023-08-16_08h59.47.403,HF_wild_card,2022.2.4,MacIntel,2.864131338,64403305213136974ed0f67a,64d2fd46c836a06233681665,64dc7eae96ba187eefe1fce0,,,,,,,decisionTrl,resources/DBN.BMP,resources/DB.BMP,Door1,-0.323232422,0.076064644,1,0,0,4.8145,optionLeft,30,4725,3,1,0,1,0,1,,,,,,,,,,,,,,,,,,,,,,,,,,,,,,,,,,,,,,,
,,,,,,,,2023-08-16_08h59.47.403,HF_wild_card,2022.2.4,MacIntel,2.864131338,64403305213136974ed0f67a,64d2fd46c836a06233681665,64dc7eae96ba187eefe1fce0,,,,,,,decisionTrl,resources/DBN.BMP,resources/DG.BMP,WildCard_NonEx,0.313110352,-0.022108307,1,0,0,1.5094,optionRight,45,4770,3,2,0,2,0,1,,,,,,,,,,,,,,,,,,,,,,,,,,,,,,,,,,,,,,,
,,,,,,,,2023-08-16_08h59.47.403,HF_wild_card,2022.2.4,MacIntel,2.864131338,64403305213136974ed0f67a,64d2fd46c836a06233681665,64dc7eae96ba187eefe1fce0,,,,,,,decisionTrl,resources/DB.BMP,resources/DBN.BMP,Door2,-0.347252274,-0.075169563,1,0,0,6.2888,optionLeft,20,4790,3,3,0,3,0,1,,,,,,,,,,,,,,,,,,,,,,,,,,,,,,,,,,,,,,,
,,,,,,,,2023-08-16_08h59.47.403,HF_wild_card,2022.2.4,MacIntel,2.864131338,64403305213136974ed0f67a,64d2fd46c836a06233681665,64dc7eae96ba187eefe1fce0,,,,,,,sngl,resources/DBN.BMP,resources/Empty.png,Door1,-0.262619896,0.041331444,1,0,0,1.2297,optionLeft,30,4820,3,4,0,4,0,1,,,,,,,,,,,,,,,,,,,,,,,,,,,,,,,,,,,,,,,
,,,,,,,,2023-08-16_08h59.47.403,HF_wild_card,2022.2.4,MacIntel,2.864131338,64403305213136974ed0f67a,64d2fd46c836a06233681665,64dc7eae96ba187eefe1fce0,,,,,,,ctch,resources/DBN.BMP,resources/DR.BMP,Door4,0.347043381,-0.03841217,1,0,0,13.7074,optionRight,60,4880,3,5,0,5,0,1,,,,,,,,,,,,,,,,,,,,,,,,,,,,,,,,,,,,,,,
,,,,,,,,2023-08-16_08h59.47.403,HF_wild_card,2022.2.4,MacIntel,2.864131338,64403305213136974ed0f67a,64d2fd46c836a06233681665,64dc7eae96ba187eefe1fce0,,,,,,,decisionTrl,resources/DR.BMP,resources/DY.BMP,Door3,0.307028656,0.005782318,1,0,0,3.5104,optionRight,70,4950,3,6,0,6,0,1,,,,,,,,,,,,,,,,,,,,,,,,,,,,,,,,,,,,,,,
,,,,,,,,2023-08-16_08h59.47.403,HF_wild_card,2022.2.4,MacIntel,2.864131338,64403305213136974ed0f67a,64d2fd46c836a06233681665,64dc7eae96ba187eefe1fce0,,,,,,,sngl,resources/Empty.png,resources/DB.BMP,Door2,0.369456177,-0.011570969,1,0,0,1.5643,optionRight,20,4970,3,7,0,7,0,1,,,,,,,,,,,,,,,,,,,,,,,,,,,,,,,,,,,,,,,
,,,,,,,,2023-08-16_08h59.47.403,HF_wild_card,2022.2.4,MacIntel,2.864131338,64403305213136974ed0f67a,64d2fd46c836a06233681665,64dc7eae96ba187eefe1fce0,,,,,,,sngl,resources/DG.BMP,resources/Empty.png,WildCard_NonEx,-0.376465225,-0.010108337,1,0,0,1.0229,optionLeft,45,5015,3,8,0,8,0,1,,,,,,,,,,,,,,,,,,,,,,,,,,,,,,,,,,,,,,,
,,,,,,,,2023-08-16_08h59.47.403,HF_wild_card,2022.2.4,MacIntel,2.864131338,64403305213136974ed0f67a,64d2fd46c836a06233681665,64dc7eae96ba187eefe1fce0,,,,,,,decisionTrl,resources/DG.BMP,resources/DBN.BMP,WildCard_NonEx,-0.326282196,0.050019035,1,0,0,2.585,optionLeft,55,5070,3,9,0,9,0,1,,,,,,,,,,,,,,,,,,,,,,,,,,,,,,,,,,,,,,,
,,,,,,,,2023-08-16_08h59.47.403,HF_wild_card,2022.2.4,MacIntel,2.864131338,64403305213136974ed0f67a,64d2fd46c836a06233681665,64dc7eae96ba187eefe1fce0,,,,,,,decisionTrl,resources/DR.BMP,resources/DY.BMP,Door3,0.441972961,-0.03413063,1,0,0,1.0659,optionRight,70,5140,3,10,0,10,0,1,,,,,,,,,,,,,,,,,,,,,,,,,,,,,,,,,,,,,,,
,,,,,,,,2023-08-16_08h59.47.403,HF_wild_card,2022.2.4,MacIntel,2.864131338,64403305213136974ed0f67a,64d2fd46c836a06233681665,64dc7eae96ba187eefe1fce0,,,,,,,decisionTrl,resources/DB.BMP,resources/DBN.BMP,Door1,0.205776138,-0.030719681,1,0,0,2.009,optionRight,30,5170,3,11,0,11,0,1,,,,,,,,,,,,,,,,,,,,,,,,,,,,,,,,,,,,,,,
,,,,,,,,2023-08-16_08h59.47.403,HF_wild_card,2022.2.4,MacIntel,2.864131338,64403305213136974ed0f67a,64d2fd46c836a06233681665,64dc7eae96ba187eefe1fce0,,,,,,,sngl,resources/DG.BMP,resources/Empty.png,WildCard_NonEx,-0.390028038,0.038890991,1,0,0,1.8677,optionLeft,55,5225,3,12,0,12,0,1,,,,,,,,,,,,,,,,,,,,,,,,,,,,,,,,,,,,,,,
,,,,,,,,2023-08-16_08h59.47.403,HF_wild_card,2022.2.4,MacIntel,2.864131338,64403305213136974ed0f67a,64d2fd46c836a06233681665,64dc7eae96ba187eefe1fce0,,,,,,,ctch,resources/DR.BMP,resources/DBN.BMP,Door4,-0.285333061,0.008621979,1,0,0,1.4681,optionLeft,60,5285,3,13,0,13,0,1,,,,,,,,,,,,,,,,,,,,,,,,,,,,,,,,,,,,,,,
,,,,,,,,2023-08-16_08h59.47.403,HF_wild_card,2022.2.4,MacIntel,2.864131338,64403305213136974ed0f67a,64d2fd46c836a06233681665,64dc7eae96ba187eefe1fce0,,,,,,,decisionTrl,resources/DG.BMP,resources/DR.BMP,Door4,0.383826523,-0.053104286,1,0,0,2.7515,optionRight,80,5365,3,14,0,14,0,1,,,,,,,,,,,,,,,,,,,,,,,,,,,,,,,,,,,,,,,
,,,,,,,,2023-08-16_08h59.47.403,HF_wild_card,2022.2.4,MacIntel,2.864131338,64403305213136974ed0f67a,64d2fd46c836a06233681665,64dc7eae96ba187eefe1fce0,,,,,,,decisionTrl,resources/DB.BMP,resources/DG.BMP,WildCard_NonEx,0.368314133,-0.045311928,1,0,0,2.4558,optionRight,45,5410,3,15,0,15,0,1,,,,,,,,,,,,,,,,,,,,,,,,,,,,,,,,,,,,,,,
,,,,,,,,2023-08-16_08h59.47.403,HF_wild_card,2022.2.4,MacIntel,2.864131338,64403305213136974ed0f67a,64d2fd46c836a06233681665,64dc7eae96ba187eefe1fce0,,,,,,,decisionTrl,resources/DY.BMP,resources/DR.BMP,Door3,-0.286865425,-0.041035194,1,0,0,2.5468,optionLeft,70,5480,3,16,0,16,0,1,,,,,,,,,,,,,,,,,,,,,,,,,,,,,,,,,,,,,,,
,,,,,,,,2023-08-16_08h59.47.403,HF_wild_card,2022.2.4,MacIntel,2.864131338,64403305213136974ed0f67a,64d2fd46c836a06233681665,64dc7eae96ba187eefe1fce0,,,,,,,decisionTrl,resources/DG.BMP,resources/DB.BMP,WildCard_NonEx,-0.368713722,-0.019261703,1,0,0,5.607,optionLeft,45,5525,3,17,0,17,0,1,,,,,,,,,,,,,,,,,,,,,,,,,,,,,,,,,,,,,,,
,,,,,,,,2023-08-16_08h59.47.403,HF_wild_card,2022.2.4,MacIntel,2.864131338,64403305213136974ed0f67a,64d2fd46c836a06233681665,64dc7eae96ba187eefe1fce0,,,,,,,decisionTrl,resources/DR.BMP,resources/DY.BMP,Door3,0.458278427,-0.067644424,1,0,0,7.9186,optionRight,70,5595,3,18,0,18,0,1,,,,,,,,,,,,,,,,,,,,,,,,,,,,,,,,,,,,,,,
,,,,,,,,2023-08-16_08h59.47.403,HF_wild_card,2022.2.4,MacIntel,2.864131338,64403305213136974ed0f67a,64d2fd46c836a06233681665,64dc7eae96ba187eefe1fce0,,,,,,,decisionTrl,resources/DG.BMP,resources/DY.BMP,Door3,0.36639389,0.030785561,1,0,0,3.458,optionRight,70,5665,3,19,0,19,0,1,,,,,,,,,,,,,,,,,,,,,,,,,,,,,,,,,,,,,,,
,,,,,,,,2023-08-16_08h59.47.403,HF_wild_card,2022.2.4,MacIntel,2.864131338,64403305213136974ed0f67a,64d2fd46c836a06233681665,64dc7eae96ba187eefe1fce0,,,,,,,sngl,resources/Empty.png,resources/DG.BMP,WildCard_NonEx,0.402695541,-0.016843643,1,0,0,1.3956,optionRight,55,5720,3,20,0,20,0,1,,,,,,,,,,,,,,,,,,,,,,,,,,,,,,,,,,,,,,,
,,,,,,,,2023-08-16_08h59.47.403,HF_wild_card,2022.2.4,MacIntel,2.864131338,64403305213136974ed0f67a,64d2fd46c836a06233681665,64dc7eae96ba187eefe1fce0,,,,,,,ctch,resources/DR.BMP,resources/DBN.BMP,Door4,-0.264045715,0.009777031,1,0,0,2.1747,optionLeft,60,5780,3,21,0,21,0,1,,,,,,,,,,,,,,,,,,,,,,,,,,,,,,,,,,,,,,,
,,,,,,,,2023-08-16_08h59.47.403,HF_wild_card,2022.2.4,MacIntel,2.864131338,64403305213136974ed0f67a,64d2fd46c836a06233681665,64dc7eae96ba187eefe1fce0,,,,,,,sngl,resources/Empty.png,resources/DY.BMP,Door3,0.418517075,0.134733315,1,0,0,4.3211,optionRight,70,5850,3,22,0,22,0,1,,,,,,,,,,,,,,,,,,,,,,,,,,,,,,,,,,,,,,,
,,,,,,,,2023-08-16_08h59.47.403,HF_wild_card,2022.2.4,MacIntel,2.864131338,64403305213136974ed0f67a,64d2fd46c836a06233681665,64dc7eae96ba187eefe1fce0,,,,,,,decisionTrl,resources/DY.BMP,resources/DR.BMP,Door3,-0.2461549,0.060257111,1,0,0,1.7463,optionLeft,70,5920,3,23,0,23,0,1,,,,,,,,,,,,,,,,,,,,,,,,,,,,,,,,,,,,,,,
,,,,,,,,2023-08-16_08h59.47.403,HF_wild_card,2022.2.4,MacIntel,2.864131338,64403305213136974ed0f67a,64d2fd46c836a06233681665,64dc7eae96ba187eefe1fce0,,,,,,,sngl,resources/Empty.png,resources/DG.BMP,WildCard_NonEx,0.420662842,0.059509964,1,0,0,1.0568,optionRight,45,5965,3,24,0,24,0,1,,,,,,,,,,,,,,,,,,,,,,,,,,,,,,,,,,,,,,,
,,,,,,,,2023-08-16_08h59.47.403,HF_wild_card,2022.2.4,MacIntel,2.864131338,64403305213136974ed0f67a,64d2fd46c836a06233681665,64dc7eae96ba187eefe1fce0,,,,,,,ctch,resources/DBN.BMP,resources/DR.BMP,Door4,0.363095474,-0.013948402,1,0,0,2.7071,optionRight,80,6045,3,25,0,25,0,1,,,,,,,,,,,,,,,,,,,,,,,,,,,,,,,,,,,,,,,
,,,,,,,,2023-08-16_08h59.47.403,HF_wild_card,2022.2.4,MacIntel,2.864131338,64403305213136974ed0f67a,64d2fd46c836a06233681665,64dc7eae96ba187eefe1fce0,,,,,,,sngl,resources/Empty.png,resources/DR.BMP,Door4,0.269025497,0.019659119,1,0,0,4.3851,optionRight,60,6105,3,26,0,26,0,1,,,,,,,,,,,,,,,,,,,,,,,,,,,,,,,,,,,,,,,
,,,,,,,,2023-08-16_08h59.47.403,HF_wild_card,2022.2.4,MacIntel,2.864131338,64403305213136974ed0f67a,64d2fd46c836a06233681665,64dc7eae96ba187eefe1fce0,,,,,,,decisionTrl,resources/DY.BMP,resources/DR.BMP,Door3,-0.297937622,-0.016293068,1,0,0,4.3208,optionLeft,70,6175,3,27,0,27,0,1,,,,,,,,,,,,,,,,,,,,,,,,,,,,,,,,,,,,,,,
,,,,,,,,2023-08-16_08h59.47.403,HF_wild_card,2022.2.4,MacIntel,2.864131338,64403305213136974ed0f67a,64d2fd46c836a06233681665,64dc7eae96ba187eefe1fce0,,,,,,,decisionTrl,resources/DBN.BMP,resources/DB.BMP,Door1,-0.298568192,0.008475723,1,0,0,2.9497,optionLeft,30,6205,3,28,0,28,0,1,,,,,,,,,,,,,,,,,,,,,,,,,,,,,,,,,,,,,,,
,,,,,,,,2023-08-16_08h59.47.403,HF_wild_card,2022.2.4,MacIntel,2.864131338,64403305213136974ed0f67a,64d2fd46c836a06233681665,64dc7eae96ba187eefe1fce0,,,,,,,decisionTrl,resources/DR.BMP,resources/DG.BMP,Door4,-0.473314896,-0.023985977,1,0,0,10.4655,optionLeft,60,6265,3,29,0,29,0,1,,,,,,,,,,,,,,,,,,,,,,,,,,,,,,,,,,,,,,,
,,,,,,,,2023-08-16_08h59.47.403,HF_wild_card,2022.2.4,MacIntel,2.864131338,64403305213136974ed0f67a,64d2fd46c836a06233681665,64dc7eae96ba187eefe1fce0,,,,,,,sngl,resources/DB.BMP,resources/Empty.png,Door2,-0.251294022,-0.016446037,1,0,0,1.3654,optionLeft,40,6305,3,30,0,30,0,1,,,,,,,,,,,,,,,,,,,,,,,,,,,,,,,,,,,,,,,
,,,,,,,,2023-08-16_08h59.47.403,HF_wild_card,2022.2.4,MacIntel,2.864131338,64403305213136974ed0f67a,64d2fd46c836a06233681665,64dc7eae96ba187eefe1fce0,,,,,,,decisionTrl,resources/DR.BMP,resources/DY.BMP,Door3,0.319695435,-0.037644615,1,0,0,3.086,optionRight,70,6375,3,31,0,31,0,1,,,,,,,,,,,,,,,,,,,,,,,,,,,,,,,,,,,,,,,
,,,,,,,,2023-08-16_08h59.47.403,HF_wild_card,2022.2.4,MacIntel,2.864131338,64403305213136974ed0f67a,64d2fd46c836a06233681665,64dc7eae96ba187eefe1fce0,,,,,,,decisionTrl,resources/DB.BMP,resources/DBN.BMP,Door1,0.33008461,0.01476593,1,0,0,1.5826,optionRight,30,6405,3,32,0,32,0,1,,,,,,,,,,,,,,,,,,,,,,,,,,,,,,,,,,,,,,,
,,,,,,,,2023-08-16_08h59.47.403,HF_wild_card,2022.2.4,MacIntel,2.864131338,64403305213136974ed0f67a,64d2fd46c836a06233681665,64dc7eae96ba187eefe1fce0,,,,,,,ctch,resources/DB.BMP,resources/DY.BMP,Door3,0.295249023,-0.02055912,1,0,0,1.1255,optionRight,70,6475,3,33,0,33,0,1,,,,,,,,,,,,,,,,,,,,,,,,,,,,,,,,,,,,,,,
,,,,,,,,2023-08-16_08h59.47.403,HF_wild_card,2022.2.4,MacIntel,2.864131338,64403305213136974ed0f67a,64d2fd46c836a06233681665,64dc7eae96ba187eefe1fce0,,,,,,,ctch,resources/DB.BMP,resources/DY.BMP,Door3,0.330493317,-0.006614876,1,0,0,2.4061,optionRight,70,6545,3,34,0,34,0,1,,,,,,,,,,,,,,,,,,,,,,,,,,,,,,,,,,,,,,,
,,,,,,,,2023-08-16_08h59.47.403,HF_wild_card,2022.2.4,MacIntel,2.864131338,64403305213136974ed0f67a,64d2fd46c836a06233681665,64dc7eae96ba187eefe1fce0,,,,,,,decisionTrl,resources/DB.BMP,resources/DBN.BMP,Door1,0.331466446,-0.002314529,1,0,0,2.2524,optionRight,30,6575,3,35,0,35,0,1,,,,,,,,,,,,,,,,,,,,,,,,,,,,,,,,,,,,,,,
,,,,,,,,2023-08-16_08h59.47.403,HF_wild_card,2022.2.4,MacIntel,2.864131338,64403305213136974ed0f67a,64d2fd46c836a06233681665,64dc7eae96ba187eefe1fce0,,,,,,,sngl,resources/Empty.png,resources/DBN.BMP,Door1,0.242664719,0.007800179,1,0,0,1.1402,optionRight,30,6605,3,36,0,36,0,1,,,,,,,,,,,,,,,,,,,,,,,,,,,,,,,,,,,,,,,
,,,,,,,,2023-08-16_08h59.47.403,HF_wild_card,2022.2.4,MacIntel,2.864131338,64403305213136974ed0f67a,64d2fd46c836a06233681665,64dc7eae96ba187eefe1fce0,,,,,,,ctch,resources/DY.BMP,resources/DB.BMP,Door3,-0.337688713,0.02826931,1,0,0,4.0345,optionLeft,70,6675,3,37,0,37,0,1,,,,,,,,,,,,,,,,,,,,,,,,,,,,,,,,,,,,,,,
,,,,,,,,2023-08-16_08h59.47.403,HF_wild_card,2022.2.4,MacIntel,2.864131338,64403305213136974ed0f67a,64d2fd46c836a06233681665,64dc7eae96ba187eefe1fce0,,,,,,,ctch,resources/DY.BMP,resources/DB.BMP,Door3,-0.354778404,0.012387657,1,0,0,4.9559,optionLeft,70,6745,3,38,0,38,0,1,,,,,,,,,,,,,,,,,,,,,,,,,,,,,,,,,,,,,,,
,,,,,,,,2023-08-16_08h59.47.403,HF_wild_card,2022.2.4,MacIntel,2.864131338,64403305213136974ed0f67a,64d2fd46c836a06233681665,64dc7eae96ba187eefe1fce0,,,,,,,sngl,resources/DY.BMP,resources/Empty.png,Door3,-0.152058868,-0.028161011,1,0,0,1.3042,optionLeft,70,6815,3,39,0,39,0,1,,,,,,,,,,,,,,,,,,,,,,,,,,,,,,,,,,,,,,,
,,,,,,,,2023-08-16_08h59.47.403,HF_wild_card,2022.2.4,MacIntel,2.864131338,64403305213136974ed0f67a,64d2fd46c836a06233681665,64dc7eae96ba187eefe1fce0,,,,,,,decisionTrl,resources/DBN.BMP,resources/DB.BMP,Door1,-0.448831749,-0.00584568,1,0,0,2.0042,optionLeft,30,6845,3,40,0,40,0,1,,,,,,,,,,,,,,,,,,,,,,,,,,,,,,,,,,,,,,,
,,,,,,,,2023-08-16_08h59.47.403,HF_wild_card,2022.2.4,MacIntel,2.864131338,64403305213136974ed0f67a,64d2fd46c836a06233681665,64dc7eae96ba187eefe1fce0,,,,,,,decisionTrl,resources/DBN.BMP,resources/DB.BMP,Door1,-0.372967415,0.034136734,1,0,0,2.0261,optionLeft,30,6875,3,41,0,41,0,1,,,,,,,,,,,,,,,,,,,,,,,,,,,,,,,,,,,,,,,
,,,,,,,,2023-08-16_08h59.47.403,HF_wild_card,2022.2.4,MacIntel,2.864131338,64403305213136974ed0f67a,64d2fd46c836a06233681665,64dc7eae96ba187eefe1fce0,,,,,,,decisionTrl,resources/DY.BMP,resources/DR.BMP,Door3,-0.228427696,-0.02255909,1,0,0,1.3029,optionLeft,70,6945,3,42,0,42,0,1,,,,,,,,,,,,,,,,,,,,,,,,,,,,,,,,,,,,,,,
,,,,,,,,2023-08-16_08h59.47.403,HF_wild_card,2022.2.4,MacIntel,2.864131338,64403305213136974ed0f67a,64d2fd46c836a06233681665,64dc7eae96ba187eefe1fce0,,,,,,,sngl,resources/DR.BMP,resources/Empty.png,Door4,-0.339300041,0.039436569,1,0,0,1.1325,optionLeft,80,7025,3,43,0,43,0,1,,,,,,,,,,,,,,,,,,,,,,,,,,,,,,,,,,,,,,,
,,,,,,,,2023-08-16_08h59.47.403,HF_wild_card,2022.2.4,MacIntel,2.864131338,64403305213136974ed0f67a,64d2fd46c836a06233681665,64dc7eae96ba187eefe1fce0,,,,,,,,,,,,,,,,,,,,,,,,,,2,0,2,0,1,,,,,,,,,,,,,,,,,,,,,,,,,,,,,,,,,,
,,,,,,,,2023-08-16_08h59.47.403,HF_wild_card,2022.2.4,MacIntel,2.864131338,64403305213136974ed0f67a,64d2fd46c836a06233681665,64dc7eae96ba187eefe1fce0,,,,,,,decisionTrl,resources/DY.BMP,resources/DR.BMP,Door3,-0.339629669,-0.047332802,1,0,0,4.9097,optionLeft,70,7095,4,0,0,0,0,1,,,,,,,,,,,,,,,,,,,,,,,,,,,,,,,,,,,,,,,
,,,,,,,,2023-08-16_08h59.47.403,HF_wild_card,2022.2.4,MacIntel,2.864131338,64403305213136974ed0f67a,64d2fd46c836a06233681665,64dc7eae96ba187eefe1fce0,,,,,,,decisionTrl,resources/DY.BMP,resources/DR.BMP,Door3,-0.467722549,0.066276512,1,0,0,1.6961,optionLeft,70,7165,4,1,0,1,0,1,,,,,,,,,,,,,,,,,,,,,,,,,,,,,,,,,,,,,,,
,,,,,,,,2023-08-16_08h59.47.403,HF_wild_card,2022.2.4,MacIntel,2.864131338,64403305213136974ed0f67a,64d2fd46c836a06233681665,64dc7eae96ba187eefe1fce0,,,,,,,decisionTrl,resources/DBN.BMP,resources/DB.BMP,Door1,-0.326887131,-0.009155693,1,0,0,1.3195,optionLeft,30,7195,4,2,0,2,0,1,,,,,,,,,,,,,,,,,,,,,,,,,,,,,,,,,,,,,,,
,,,,,,,,2023-08-16_08h59.47.403,HF_wild_card,2022.2.4,MacIntel,2.864131338,64403305213136974ed0f67a,64d2fd46c836a06233681665,64dc7eae96ba187eefe1fce0,,,,,,,decisionTrl,resources/DR.BMP,resources/DY.BMP,Door3,0.376358948,0.058432961,1,0,0,1.2052,optionRight,70,7265,4,3,0,3,0,1,,,,,,,,,,,,,,,,,,,,,,,,,,,,,,,,,,,,,,,
,,,,,,,,2023-08-16_08h59.47.403,HF_wild_card,2022.2.4,MacIntel,2.864131338,64403305213136974ed0f67a,64d2fd46c836a06233681665,64dc7eae96ba187eefe1fce0,,,,,,,sngl,resources/DB.BMP,resources/Empty.png,Door2,-0.314097633,0.007156372,1,0,0,1.7849,optionLeft,20,7285,4,4,0,4,0,1,,,,,,,,,,,,,,,,,,,,,,,,,,,,,,,,,,,,,,,
,,,,,,,,2023-08-16_08h59.47.403,HF_wild_card,2022.2.4,MacIntel,2.864131338,64403305213136974ed0f67a,64d2fd46c836a06233681665,64dc7eae96ba187eefe1fce0,,,,,,,decisionTrl,resources/DBN.BMP,resources/DB.BMP,Door1,-0.416770248,0.012987442,1,0,0,1.1167,optionLeft,30,7315,4,5,0,5,0,1,,,,,,,,,,,,,,,,,,,,,,,,,,,,,,,,,,,,,,,
,,,,,,,,2023-08-16_08h59.47.403,HF_wild_card,2022.2.4,MacIntel,2.864131338,64403305213136974ed0f67a,64d2fd46c836a06233681665,64dc7eae96ba187eefe1fce0,,,,,,,decisionTrl,resources/DP.BMP,resources/DBN.BMP,WildCard_Ex,-0.353044205,-0.015577354,1,0,0,4.5285,optionLeft,45,7360,4,6,0,6,0,1,,,,,,,,,,,,,,,,,,,,,,,,,,,,,,,,,,,,,,,
,,,,,,,,2023-08-16_08h59.47.403,HF_wild_card,2022.2.4,MacIntel,2.864131338,64403305213136974ed0f67a,64d2fd46c836a06233681665,64dc7eae96ba187eefe1fce0,,,,,,,ctch,resources/DY.BMP,resources/DB.BMP,Door3,-0.269554634,-0.079950752,1,0,0,1.0635,optionLeft,70,7430,4,7,0,7,0,1,,,,,,,,,,,,,,,,,,,,,,,,,,,,,,,,,,,,,,,
,,,,,,,,2023-08-16_08h59.47.403,HF_wild_card,2022.2.4,MacIntel,2.864131338,64403305213136974ed0f67a,64d2fd46c836a06233681665,64dc7eae96ba187eefe1fce0,,,,,,,sngl,resources/DBN.BMP,resources/Empty.png,Door1,-0.279528122,-0.017260666,1,0,0,1.007,optionLeft,30,7460,4,8,0,8,0,1,,,,,,,,,,,,,,,,,,,,,,,,,,,,,,,,,,,,,,,
,,,,,,,,2023-08-16_08h59.47.403,HF_wild_card,2022.2.4,MacIntel,2.864131338,64403305213136974ed0f67a,64d2fd46c836a06233681665,64dc7eae96ba187eefe1fce0,,,,,,,ctch,resources/DR.BMP,resources/DBN.BMP,Door4,-0.255321465,-0.014303894,1,0,0,1.6344,optionLeft,80,7540,4,9,0,9,0,1,,,,,,,,,,,,,,,,,,,,,,,,,,,,,,,,,,,,,,,
,,,,,,,,2023-08-16_08h59.47.403,HF_wild_card,2022.2.4,MacIntel,2.864131338,64403305213136974ed0f67a,64d2fd46c836a06233681665,64dc7eae96ba187eefe1fce0,,,,,,,ctch,resources/DBN.BMP,resources/DR.BMP,Door4,0.333667374,0.038259315,1,0,0,1.6253,optionRight,60,7600,4,10,0,10,0,1,,,,,,,,,,,,,,,,,,,,,,,,,,,,,,,,,,,,,,,
,,,,,,,,2023-08-16_08h59.47.403,HF_wild_card,2022.2.4,MacIntel,2.864131338,64403305213136974ed0f67a,64d2fd46c836a06233681665,64dc7eae96ba187eefe1fce0,,,,,,,decisionTrl,resources/DB.BMP,resources/DBN.BMP,Door1,0.285608063,-0.021829033,1,0,0,18.3222,optionRight,30,7630,4,11,0,11,0,1,,,,,,,,,,,,,,,,,,,,,,,,,,,,,,,,,,,,,,,
,,,,,,,,2023-08-16_08h59.47.403,HF_wild_card,2022.2.4,MacIntel,2.864131338,64403305213136974ed0f67a,64d2fd46c836a06233681665,64dc7eae96ba187eefe1fce0,,,,,,,decisionTrl,resources/DBN.BMP,resources/DP.BMP,WildCard_Ex,0.304103317,0.015411491,1,0,0,1.9607,optionRight,45,7675,4,12,0,12,0,1,,,,,,,,,,,,,,,,,,,,,,,,,,,,,,,,,,,,,,,
,,,,,,,,2023-08-16_08h59.47.403,HF_wild_card,2022.2.4,MacIntel,2.864131338,64403305213136974ed0f67a,64d2fd46c836a06233681665,64dc7eae96ba187eefe1fce0,,,,,,,sngl,resources/DP.BMP,resources/Empty.png,WildCard_Ex,-0.35819458,0.093862534,1,0,0,1.4815,optionLeft,45,7720,4,13,0,13,0,1,,,,,,,,,,,,,,,,,,,,,,,,,,,,,,,,,,,,,,,
,,,,,,,,2023-08-16_08h59.47.403,HF_wild_card,2022.2.4,MacIntel,2.864131338,64403305213136974ed0f67a,64d2fd46c836a06233681665,64dc7eae96ba187eefe1fce0,,,,,,,decisionTrl,resources/DP.BMP,resources/DB.BMP,WildCard_Ex,-0.640915051,-0.00437645,1,0,0,2.5262,optionLeft,55,7775,4,14,0,14,0,1,,,,,,,,,,,,,,,,,,,,,,,,,,,,,,,,,,,,,,,
,,,,,,,,2023-08-16_08h59.47.403,HF_wild_card,2022.2.4,MacIntel,2.864131338,64403305213136974ed0f67a,64d2fd46c836a06233681665,64dc7eae96ba187eefe1fce0,,,,,,,decisionTrl,resources/DR.BMP,resources/DY.BMP,Door3,0.352860107,0.00427063,1,0,0,3.2943,optionRight,70,7845,4,15,0,15,0,1,,,,,,,,,,,,,,,,,,,,,,,,,,,,,,,,,,,,,,,
,,,,,,,,2023-08-16_08h59.47.403,HF_wild_card,2022.2.4,MacIntel,2.864131338,64403305213136974ed0f67a,64d2fd46c836a06233681665,64dc7eae96ba187eefe1fce0,,,,,,,sngl,resources/Empty.png,resources/DR.BMP,Door4,0.261138992,0.048021011,1,0,0,0.9631,optionRight,80,7925,4,16,0,16,0,1,,,,,,,,,,,,,,,,,,,,,,,,,,,,,,,,,,,,,,,
,,,,,,,,2023-08-16_08h59.47.403,HF_wild_card,2022.2.4,MacIntel,2.864131338,64403305213136974ed0f67a,64d2fd46c836a06233681665,64dc7eae96ba187eefe1fce0,,,,,,,sngl,resources/Empty.png,resources/DBN.BMP,Door1,0.325202637,0.086113892,1,0,0,1.3226,optionRight,30,7955,4,17,0,17,0,1,,,,,,,,,,,,,,,,,,,,,,,,,,,,,,,,,,,,,,,
,,,,,,,,2023-08-16_08h59.47.403,HF_wild_card,2022.2.4,MacIntel,2.864131338,64403305213136974ed0f67a,64d2fd46c836a06233681665,64dc7eae96ba187eefe1fce0,,,,,,,decisionTrl,resources/DR.BMP,resources/DP.BMP,Door4,-0.269542732,0.007541313,1,0,0,2.1036,optionLeft,80,8035,4,18,0,18,0,1,,,,,,,,,,,,,,,,,,,,,,,,,,,,,,,,,,,,,,,
,,,,,,,,2023-08-16_08h59.47.403,HF_wild_card,2022.2.4,MacIntel,2.864131338,64403305213136974ed0f67a,64d2fd46c836a06233681665,64dc7eae96ba187eefe1fce0,,,,,,,sngl,resources/DR.BMP,resources/Empty.png,Door4,-0.319039917,-0.008968964,1,0,0,0.9096,optionLeft,60,8095,4,19,0,19,0,1,,,,,,,,,,,,,,,,,,,,,,,,,,,,,,,,,,,,,,,
,,,,,,,,2023-08-16_08h59.47.403,HF_wild_card,2022.2.4,MacIntel,2.864131338,64403305213136974ed0f67a,64d2fd46c836a06233681665,64dc7eae96ba187eefe1fce0,,,,,,,decisionTrl,resources/DY.BMP,resources/DR.BMP,Door3,-0.225518303,0.007958412,1,0,0,2.1507,optionLeft,70,8165,4,20,0,20,0,1,,,,,,,,,,,,,,,,,,,,,,,,,,,,,,,,,,,,,,,
,,,,,,,,2023-08-16_08h59.47.403,HF_wild_card,2022.2.4,MacIntel,2.864131338,64403305213136974ed0f67a,64d2fd46c836a06233681665,64dc7eae96ba187eefe1fce0,,,,,,,decisionTrl,resources/DP.BMP,resources/DY.BMP,Door3,0.300793152,-0.053057556,1,0,0,1.3952,optionRight,70,8235,4,21,0,21,0,1,,,,,,,,,,,,,,,,,,,,,,,,,,,,,,,,,,,,,,,
,,,,,,,,2023-08-16_08h59.47.403,HF_wild_card,2022.2.4,MacIntel,2.864131338,64403305213136974ed0f67a,64d2fd46c836a06233681665,64dc7eae96ba187eefe1fce0,,,,,,,decisionTrl,resources/DR.BMP,resources/DY.BMP,Door3,0.275806732,-0.002773895,1,0,0,1.0876,optionRight,70,8305,4,22,0,22,0,1,,,,,,,,,,,,,,,,,,,,,,,,,,,,,,,,,,,,,,,
,,,,,,,,2023-08-16_08h59.47.403,HF_wild_card,2022.2.4,MacIntel,2.864131338,64403305213136974ed0f67a,64d2fd46c836a06233681665,64dc7eae96ba187eefe1fce0,,,,,,,sngl,resources/Empty.png,resources/DP.BMP,WildCard_Ex,0.174923477,-0.036565437,1,0,0,1.7211,optionRight,45,8350,4,23,0,23,0,1,,,,,,,,,,,,,,,,,,,,,,,,,,,,,,,,,,,,,,,
,,,,,,,,2023-08-16_08h59.47.403,HF_wild_card,2022.2.4,MacIntel,2.864131338,64403305213136974ed0f67a,64d2fd46c836a06233681665,64dc7eae96ba187eefe1fce0,,,,,,,decisionTrl,resources/DB.BMP,resources/DBN.BMP,Door1,0.195071564,-0.026551361,1,0,0,1.5312,optionRight,30,8380,4,24,0,24,0,1,,,,,,,,,,,,,,,,,,,,,,,,,,,,,,,,,,,,,,,
,,,,,,,,2023-08-16_08h59.47.403,HF_wild_card,2022.2.4,MacIntel,2.864131338,64403305213136974ed0f67a,64d2fd46c836a06233681665,64dc7eae96ba187eefe1fce0,,,,,,,decisionTrl,resources/DP.BMP,resources/DR.BMP,Door4,0.320466232,-0.025524788,1,0,0,3.0273,optionRight,60,8440,4,25,0,25,0,1,,,,,,,,,,,,,,,,,,,,,,,,,,,,,,,,,,,,,,,
,,,,,,,,2023-08-16_08h59.47.403,HF_wild_card,2022.2.4,MacIntel,2.864131338,64403305213136974ed0f67a,64d2fd46c836a06233681665,64dc7eae96ba187eefe1fce0,,,,,,,ctch,resources/DBN.BMP,resources/DR.BMP,Door4,0.359283524,-0.053208618,1,0,0,2.502,optionRight,60,8500,4,26,0,26,0,1,,,,,,,,,,,,,,,,,,,,,,,,,,,,,,,,,,,,,,,
,,,,,,,,2023-08-16_08h59.47.403,HF_wild_card,2022.2.4,MacIntel,2.864131338,64403305213136974ed0f67a,64d2fd46c836a06233681665,64dc7eae96ba187eefe1fce0,,,,,,,decisionTrl,resources/DBN.BMP,resources/DB.BMP,Door1,-0.369620819,0.033435364,1,0,0,19.2383,optionLeft,30,8530,4,27,0,27,0,1,,,,,,,,,,,,,,,,,,,,,,,,,,,,,,,,,,,,,,,
,,,,,,,,2023-08-16_08h59.47.403,HF_wild_card,2022.2.4,MacIntel,2.864131338,64403305213136974ed0f67a,64d2fd46c836a06233681665,64dc7eae96ba187eefe1fce0,,,,,,,decisionTrl,resources/DR.BMP,resources/DY.BMP,Door3,0.329779587,-0.008647919,1,0,0,4.7916,optionRight,70,8600,4,28,0,28,0,1,,,,,,,,,,,,,,,,,,,,,,,,,,,,,,,,,,,,,,,
,,,,,,,,2023-08-16_08h59.47.403,HF_wild_card,2022.2.4,MacIntel,2.864131338,64403305213136974ed0f67a,64d2fd46c836a06233681665,64dc7eae96ba187eefe1fce0,,,,,,,sngl,resources/DY.BMP,resources/Empty.png,Door3,-0.002222214,-0.006792717,1,0,0,0.4675,optionLeft,70,8670,4,29,0,29,0,1,,,,,,,,,,,,,,,,,,,,,,,,,,,,,,,,,,,,,,,
,,,,,,,,2023-08-16_08h59.47.403,HF_wild_card,2022.2.4,MacIntel,2.864131338,64403305213136974ed0f67a,64d2fd46c836a06233681665,64dc7eae96ba187eefe1fce0,,,,,,,sngl,resources/Empty.png,resources/DY.BMP,Door3,0.342059479,-0.008480949,1,0,0,1.2883,optionRight,70,8740,4,30,0,30,0,1,,,,,,,,,,,,,,,,,,,,,,,,,,,,,,,,,,,,,,,
,,,,,,,,2023-08-16_08h59.47.403,HF_wild_card,2022.2.4,MacIntel,2.864131338,64403305213136974ed0f67a,64d2fd46c836a06233681665,64dc7eae96ba187eefe1fce0,,,,,,,ctch,resources/DR.BMP,resources/DBN.BMP,Door4,-0.213816605,0.009999275,1,0,0,1.0924,optionLeft,60,8800,4,31,0,31,0,1,,,,,,,,,,,,,,,,,,,,,,,,,,,,,,,,,,,,,,,
,,,,,,,,2023-08-16_08h59.47.403,HF_wild_card,2022.2.4,MacIntel,2.864131338,64403305213136974ed0f67a,64d2fd46c836a06233681665,64dc7eae96ba187eefe1fce0,,,,,,,decisionTrl,resources/DBN.BMP,resources/DB.BMP,Door1,-0.262111015,0.012374458,1,0,0,1.1425,optionLeft,30,8830,4,32,0,32,0,1,,,,,,,,,,,,,,,,,,,,,,,,,,,,,,,,,,,,,,,
,,,,,,,,2023-08-16_08h59.47.403,HF_wild_card,2022.2.4,MacIntel,2.864131338,64403305213136974ed0f67a,64d2fd46c836a06233681665,64dc7eae96ba187eefe1fce0,,,,,,,ctch,resources/DB.BMP,resources/DY.BMP,Door3,0.159230118,0.032466927,1,0,0,1.1814,optionRight,70,8900,4,33,0,33,0,1,,,,,,,,,,,,,,,,,,,,,,,,,,,,,,,,,,,,,,,
,,,,,,,,2023-08-16_08h59.47.403,HF_wild_card,2022.2.4,MacIntel,2.864131338,64403305213136974ed0f67a,64d2fd46c836a06233681665,64dc7eae96ba187eefe1fce0,,,,,,,decisionTrl,resources/DB.BMP,resources/DP.BMP,WildCard_Ex,0.407076721,-0.017842102,1,0,0,6.2789,optionRight,55,8955,4,34,0,34,0,1,,,,,,,,,,,,,,,,,,,,,,,,,,,,,,,,,,,,,,,
,,,,,,,,2023-08-16_08h59.47.403,HF_wild_card,2022.2.4,MacIntel,2.864131338,64403305213136974ed0f67a,64d2fd46c836a06233681665,64dc7eae96ba187eefe1fce0,,,,,,,decisionTrl,resources/DY.BMP,resources/DP.BMP,Door3,-0.300256348,0.054114113,1,0,0,2.7452,optionLeft,70,9025,4,35,0,35,0,1,,,,,,,,,,,,,,,,,,,,,,,,,,,,,,,,,,,,,,,
,,,,,,,,2023-08-16_08h59.47.403,HF_wild_card,2022.2.4,MacIntel,2.864131338,64403305213136974ed0f67a,64d2fd46c836a06233681665,64dc7eae96ba187eefe1fce0,,,,,,,ctch,resources/DY.BMP,resources/DB.BMP,Door3,-0.216535988,0.025154762,1,0,0,1.1265,optionLeft,70,9095,4,36,0,36,0,1,,,,,,,,,,,,,,,,,,,,,,,,,,,,,,,,,,,,,,,
,,,,,,,,2023-08-16_08h59.47.403,HF_wild_card,2022.2.4,MacIntel,2.864131338,64403305213136974ed0f67a,64d2fd46c836a06233681665,64dc7eae96ba187eefe1fce0,,,,,,,sngl,resources/Empty.png,resources/DB.BMP,Door2,0.309104385,-0.025914383,1,0,0,1.7444,optionRight,40,9135,4,37,0,37,0,1,,,,,,,,,,,,,,,,,,,,,,,,,,,,,,,,,,,,,,,
,,,,,,,,2023-08-16_08h59.47.403,HF_wild_card,2022.2.4,MacIntel,2.864131338,64403305213136974ed0f67a,64d2fd46c836a06233681665,64dc7eae96ba187eefe1fce0,,,,,,,ctch,resources/DB.BMP,resources/DY.BMP,Door3,0.290070953,0.030383453,1,0,0,2.4245,optionRight,70,9205,4,38,0,38,0,1,,,,,,,,,,,,,,,,,,,,,,,,,,,,,,,,,,,,,,,
,,,,,,,,2023-08-16_08h59.47.403,HF_wild_card,2022.2.4,MacIntel,2.864131338,64403305213136974ed0f67a,64d2fd46c836a06233681665,64dc7eae96ba187eefe1fce0,,,,,,,decisionTrl,resources/DB.BMP,resources/DBN.BMP,Door1,0.316014786,-0.003153381,1,0,0,1.7622,optionRight,30,9235,4,39,0,39,0,1,,,,,,,,,,,,,,,,,,,,,,,,,,,,,,,,,,,,,,,
,,,,,,,,2023-08-16_08h59.47.403,HF_wild_card,2022.2.4,MacIntel,2.864131338,64403305213136974ed0f67a,64d2fd46c836a06233681665,64dc7eae96ba187eefe1fce0,,,,,,,decisionTrl,resources/DY.BMP,resources/DR.BMP,Door3,-0.304787483,0.016253433,1,0,0,1.0864,optionLeft,70,9305,4,40,0,40,0,1,,,,,,,,,,,,,,,,,,,,,,,,,,,,,,,,,,,,,,,
,,,,,,,,2023-08-16_08h59.47.403,HF_wild_card,2022.2.4,MacIntel,2.864131338,64403305213136974ed0f67a,64d2fd46c836a06233681665,64dc7eae96ba187eefe1fce0,,,,,,,sngl,resources/Empty.png,resources/DP.BMP,WildCard_Ex,0.41781662,-0.10679039,1,0,0,2.351,optionRight,55,9360,4,41,0,41,0,1,,,,,,,,,,,,,,,,,,,,,,,,,,,,,,,,,,,,,,,
,,,,,,,,2023-08-16_08h59.47.403,HF_wild_card,2022.2.4,MacIntel,2.864131338,64403305213136974ed0f67a,64d2fd46c836a06233681665,64dc7eae96ba187eefe1fce0,,,,,,,decisionTrl,resources/DB.BMP,resources/DBN.BMP,Door1,0.277232895,0.061718712,1,0,0,2.2703,optionRight,30,9390,4,42,0,42,0,1,,,,,,,,,,,,,,,,,,,,,,,,,,,,,,,,,,,,,,,
,,,,,,,,2023-08-16_08h59.47.403,HF_wild_card,2022.2.4,MacIntel,2.864131338,64403305213136974ed0f67a,64d2fd46c836a06233681665,64dc7eae96ba187eefe1fce0,,,,,,,sngl,resources/DP.BMP,resources/Empty.png,WildCard_Ex,-0.279153633,0.045430908,1,0,0,4.4328,optionLeft,55,9445,4,43,0,43,0,1,,,,,,,,,,,,,,,,,,,,,,,,,,,,,,,,,,,,,,,
,,,,,,,,2023-08-16_08h59.47.403,HF_wild_card,2022.2.4,MacIntel,2.864131338,64403305213136974ed0f67a,64d2fd46c836a06233681665,64dc7eae96ba187eefe1fce0,,,,,,,,,,,,,,,,,,,,,,,,,,3,0,3,0,1,,,,,,,,,,,,,,,,,,,,,,,,,,,,,,,,,,
,,,,,,,,2023-08-16_08h59.47.403,HF_wild_card,2022.2.4,MacIntel,2.864131338,64403305213136974ed0f67a,64d2fd46c836a06233681665,64dc7eae96ba187eefe1fce0,,,,,,,ctch,resources/DR.BMP,resources/DBN.BMP,Door4,-0.488528214,-0.01275238,1,0,0,2.4271,optionLeft,60,9505,5,0,0,0,0,1,,,,,,,,,,,,,,,,,,,,,,,,,,,,,,,,,,,,,,,
,,,,,,,,2023-08-16_08h59.47.403,HF_wild_card,2022.2.4,MacIntel,2.864131338,64403305213136974ed0f67a,64d2fd46c836a06233681665,64dc7eae96ba187eefe1fce0,,,,,,,ctch,resources/DY.BMP,resources/DB.BMP,Door3,-0.257690086,0.020036621,1,0,0,1.1181,optionLeft,70,9575,5,1,0,1,0,1,,,,,,,,,,,,,,,,,,,,,,,,,,,,,,,,,,,,,,,
,,,,,,,,2023-08-16_08h59.47.403,HF_wild_card,2022.2.4,MacIntel,2.864131338,64403305213136974ed0f67a,64d2fd46c836a06233681665,64dc7eae96ba187eefe1fce0,,,,,,,sngl,resources/Empty.png,resources/DBN.BMP,Door1,0.29990387,0.013024063,1,0,0,1.4606,optionRight,30,9605,5,2,0,2,0,1,,,,,,,,,,,,,,,,,,,,,,,,,,,,,,,,,,,,,,,
,,,,,,,,2023-08-16_08h59.47.403,HF_wild_card,2022.2.4,MacIntel,2.864131338,64403305213136974ed0f67a,64d2fd46c836a06233681665,64dc7eae96ba187eefe1fce0,,,,,,,ctch,resources/DBN.BMP,resources/DR.BMP,Door4,0.276451492,-0.03886776,1,0,0,1.8937,optionRight,60,9665,5,3,0,3,0,1,,,,,,,,,,,,,,,,,,,,,,,,,,,,,,,,,,,,,,,
,,,,,,,,2023-08-16_08h59.47.403,HF_wild_card,2022.2.4,MacIntel,2.864131338,64403305213136974ed0f67a,64d2fd46c836a06233681665,64dc7eae96ba187eefe1fce0,,,,,,,sngl,resources/DBN.BMP,resources/Empty.png,Door1,-0.30723175,0.037355995,1,0,0,1.3748,optionLeft,30,9695,5,4,0,4,0,1,,,,,,,,,,,,,,,,,,,,,,,,,,,,,,,,,,,,,,,
,,,,,,,,2023-08-16_08h59.47.403,HF_wild_card,2022.2.4,MacIntel,2.864131338,64403305213136974ed0f67a,64d2fd46c836a06233681665,64dc7eae96ba187eefe1fce0,,,,,,,decisionTrl,resources/DP.BMP,resources/DR.BMP,Door4,0.225462646,0.010362892,1,0,0,1.8561,optionRight,80,9775,5,5,0,5,0,1,,,,,,,,,,,,,,,,,,,,,,,,,,,,,,,,,,,,,,,
,,,,,,,,2023-08-16_08h59.47.403,HF_wild_card,2022.2.4,MacIntel,2.864131338,64403305213136974ed0f67a,64d2fd46c836a06233681665,64dc7eae96ba187eefe1fce0,,,,,,,decisionTrl,resources/DBN.BMP,resources/DB.BMP,Door1,-0.381948776,-0.014907188,1,0,0,1.7148,optionLeft,30,9805,5,6,0,6,0,1,,,,,,,,,,,,,,,,,,,,,,,,,,,,,,,,,,,,,,,
,,,,,,,,2023-08-16_08h59.47.403,HF_wild_card,2022.2.4,MacIntel,2.864131338,64403305213136974ed0f67a,64d2fd46c836a06233681665,64dc7eae96ba187eefe1fce0,,,,,,,decisionTrl,resources/DR.BMP,resources/DY.BMP,Door3,0.410912094,-0.037543297,1,0,0,1.382,optionRight,70,9875,5,7,0,7,0,1,,,,,,,,,,,,,,,,,,,,,,,,,,,,,,,,,,,,,,,
,,,,,,,,2023-08-16_08h59.47.403,HF_wild_card,2022.2.4,MacIntel,2.864131338,64403305213136974ed0f67a,64d2fd46c836a06233681665,64dc7eae96ba187eefe1fce0,,,,,,,decisionTrl,resources/DB.BMP,resources/DP.BMP,WildCard_Ex,0.476741486,-0.011108704,1,0,0,1.8592,optionRight,55,9930,5,8,0,8,0,1,,,,,,,,,,,,,,,,,,,,,,,,,,,,,,,,,,,,,,,
,,,,,,,,2023-08-16_08h59.47.403,HF_wild_card,2022.2.4,MacIntel,2.864131338,64403305213136974ed0f67a,64d2fd46c836a06233681665,64dc7eae96ba187eefe1fce0,,,,,,,sngl,resources/DP.BMP,resources/Empty.png,WildCard_Ex,-0.295480042,0.012608147,1,0,0,0.9497,optionLeft,45,9975,5,9,0,9,0,1,,,,,,,,,,,,,,,,,,,,,,,,,,,,,,,,,,,,,,,
,,,,,,,,2023-08-16_08h59.47.403,HF_wild_card,2022.2.4,MacIntel,2.864131338,64403305213136974ed0f67a,64d2fd46c836a06233681665,64dc7eae96ba187eefe1fce0,,,,,,,ctch,resources/DB.BMP,resources/DY.BMP,Door3,0.312262115,0.024326057,1,0,0,2.4274,optionRight,70,10045,5,10,0,10,0,1,,,,,,,,,,,,,,,,,,,,,,,,,,,,,,,,,,,,,,,
,,,,,,,,2023-08-16_08h59.47.403,HF_wild_card,2022.2.4,MacIntel,2.864131338,64403305213136974ed0f67a,64d2fd46c836a06233681665,64dc7eae96ba187eefe1fce0,,,,,,,ctch,resources/DY.BMP,resources/DB.BMP,Door3,-0.272485046,0.063128128,1,0,0,1.6775,optionLeft,70,10115,5,11,0,11,0,1,,,,,,,,,,,,,,,,,,,,,,,,,,,,,,,,,,,,,,,
,,,,,,,,2023-08-16_08h59.47.403,HF_wild_card,2022.2.4,MacIntel,2.864131338,64403305213136974ed0f67a,64d2fd46c836a06233681665,64dc7eae96ba187eefe1fce0,,,,,,,decisionTrl,resources/DBN.BMP,resources/DB.BMP,Door1,-0.24008194,0.008652611,1,0,0,2.0508,optionLeft,30,10145,5,12,0,12,0,1,,,,,,,,,,,,,,,,,,,,,,,,,,,,,,,,,,,,,,,
,,,,,,,,2023-08-16_08h59.47.403,HF_wild_card,2022.2.4,MacIntel,2.864131338,64403305213136974ed0f67a,64d2fd46c836a06233681665,64dc7eae96ba187eefe1fce0,,,,,,,decisionTrl,resources/DY.BMP,resources/DR.BMP,Door3,-0.284344902,0.037606583,1,0,0,2.4961,optionLeft,70,10215,5,13,0,13,0,1,,,,,,,,,,,,,,,,,,,,,,,,,,,,,,,,,,,,,,,
,,,,,,,,2023-08-16_08h59.47.403,HF_wild_card,2022.2.4,MacIntel,2.864131338,64403305213136974ed0f67a,64d2fd46c836a06233681665,64dc7eae96ba187eefe1fce0,,,,,,,decisionTrl,resources/DP.BMP,resources/DBN.BMP,WildCard_Ex,-0.293041153,0.022077103,1,0,0,1.6151,optionLeft,55,10270,5,14,0,14,0,1,,,,,,,,,,,,,,,,,,,,,,,,,,,,,,,,,,,,,,,
,,,,,,,,2023-08-16_08h59.47.403,HF_wild_card,2022.2.4,MacIntel,2.864131338,64403305213136974ed0f67a,64d2fd46c836a06233681665,64dc7eae96ba187eefe1fce0,,,,,,,sngl,resources/DB.BMP,resources/Empty.png,Door2,-0.293832283,0.01891449,1,0,0,1.0294,optionLeft,40,10310,5,15,0,15,0,1,,,,,,,,,,,,,,,,,,,,,,,,,,,,,,,,,,,,,,,
,,,,,,,,2023-08-16_08h59.47.403,HF_wild_card,2022.2.4,MacIntel,2.864131338,64403305213136974ed0f67a,64d2fd46c836a06233681665,64dc7eae96ba187eefe1fce0,,,,,,,decisionTrl,resources/DB.BMP,resources/DBN.BMP,Door1,0.332433243,-0.011936111,1,0,0,1.0293,optionRight,30,10340,5,16,0,16,0,1,,,,,,,,,,,,,,,,,,,,,,,,,,,,,,,,,,,,,,,
,,,,,,,,2023-08-16_08h59.47.403,HF_wild_card,2022.2.4,MacIntel,2.864131338,64403305213136974ed0f67a,64d2fd46c836a06233681665,64dc7eae96ba187eefe1fce0,,,,,,,decisionTrl,resources/DY.BMP,resources/DP.BMP,Door3,-0.227999992,0.01012886,1,0,0,3.1849,optionLeft,70,10410,5,17,0,17,0,1,,,,,,,,,,,,,,,,,,,,,,,,,,,,,,,,,,,,,,,
,,,,,,,,2023-08-16_08h59.47.403,HF_wild_card,2022.2.4,MacIntel,2.864131338,64403305213136974ed0f67a,64d2fd46c836a06233681665,64dc7eae96ba187eefe1fce0,,,,,,,sngl,resources/Empty.png,resources/DP.BMP,WildCard_Ex,0.313435822,-0.035249863,1,0,0,0.9784,optionRight,45,10455,5,18,0,18,0,1,,,,,,,,,,,,,,,,,,,,,,,,,,,,,,,,,,,,,,,
,,,,,,,,2023-08-16_08h59.47.403,HF_wild_card,2022.2.4,MacIntel,2.864131338,64403305213136974ed0f67a,64d2fd46c836a06233681665,64dc7eae96ba187eefe1fce0,,,,,,,decisionTrl,resources/DR.BMP,resources/DY.BMP,Door3,0.537700043,-0.107212143,1,0,0,1.3468,optionRight,70,10525,5,19,0,19,0,1,,,,,,,,,,,,,,,,,,,,,,,,,,,,,,,,,,,,,,,
,,,,,,,,2023-08-16_08h59.47.403,HF_wild_card,2022.2.4,MacIntel,2.864131338,64403305213136974ed0f67a,64d2fd46c836a06233681665,64dc7eae96ba187eefe1fce0,,,,,,,decisionTrl,resources/DBN.BMP,resources/DP.BMP,WildCard_Ex,0.39923027,0.011161194,1,0,0,1.2075,optionRight,45,10570,5,20,0,20,0,1,,,,,,,,,,,,,,,,,,,,,,,,,,,,,,,,,,,,,,,
,,,,,,,,2023-08-16_08h59.47.403,HF_wild_card,2022.2.4,MacIntel,2.864131338,64403305213136974ed0f67a,64d2fd46c836a06233681665,64dc7eae96ba187eefe1fce0,,,,,,,decisionTrl,resources/DP.BMP,resources/DY.BMP,Door3,0.329763184,0.002515068,1,0,0,1.0896,optionRight,70,10640,5,21,0,21,0,1,,,,,,,,,,,,,,,,,,,,,,,,,,,,,,,,,,,,,,,
,,,,,,,,2023-08-16_08h59.47.403,HF_wild_card,2022.2.4,MacIntel,2.864131338,64403305213136974ed0f67a,64d2fd46c836a06233681665,64dc7eae96ba187eefe1fce0,,,,,,,decisionTrl,resources/DBN.BMP,resources/DB.BMP,Door1,-0.204542046,0.005535088,1,0,0,1.3378,optionLeft,30,10670,5,22,0,22,0,1,,,,,,,,,,,,,,,,,,,,,,,,,,,,,,,,,,,,,,,
,,,,,,,,2023-08-16_08h59.47.403,HF_wild_card,2022.2.4,MacIntel,2.864131338,64403305213136974ed0f67a,64d2fd46c836a06233681665,64dc7eae96ba187eefe1fce0,,,,,,,decisionTrl,resources/DY.BMP,resources/DR.BMP,Door3,-0.201375351,0.007134285,1,0,0,2.4439,optionLeft,70,10740,5,23,0,23,0,1,,,,,,,,,,,,,,,,,,,,,,,,,,,,,,,,,,,,,,,
,,,,,,,,2023-08-16_08h59.47.403,HF_wild_card,2022.2.4,MacIntel,2.864131338,64403305213136974ed0f67a,64d2fd46c836a06233681665,64dc7eae96ba187eefe1fce0,,,,,,,sngl,resources/Empty.png,resources/DR.BMP,Door4,0.219594803,-0.02394165,1,0,0,0.8627,optionRight,60,10800,5,24,0,24,0,1,,,,,,,,,,,,,,,,,,,,,,,,,,,,,,,,,,,,,,,
,,,,,,,,2023-08-16_08h59.47.403,HF_wild_card,2022.2.4,MacIntel,2.864131338,64403305213136974ed0f67a,64d2fd46c836a06233681665,64dc7eae96ba187eefe1fce0,,,,,,,sngl,resources/Empty.png,resources/DB.BMP,Door2,0.131582489,0.025993385,1,0,0,0.9848,optionRight,20,10820,5,25,0,25,0,1,,,,,,,,,,,,,,,,,,,,,,,,,,,,,,,,,,,,,,,
,,,,,,,,2023-08-16_08h59.47.403,HF_wild_card,2022.2.4,MacIntel,2.864131338,64403305213136974ed0f67a,64d2fd46c836a06233681665,64dc7eae96ba187eefe1fce0,,,,,,,decisionTrl,resources/DBN.BMP,resources/DB.BMP,Door1,-0.299608612,-0.008722992,1,0,0,2.4864,optionLeft,30,10850,5,26,0,26,0,1,,,,,,,,,,,,,,,,,,,,,,,,,,,,,,,,,,,,,,,
,,,,,,,,2023-08-16_08h59.47.403,HF_wild_card,2022.2.4,MacIntel,2.864131338,64403305213136974ed0f67a,64d2fd46c836a06233681665,64dc7eae96ba187eefe1fce0,,,,,,,decisionTrl,resources/DR.BMP,resources/DY.BMP,Door3,0.293349762,0.00233429,1,0,0,1.1343,optionRight,70,10920,5,27,0,27,0,1,,,,,,,,,,,,,,,,,,,,,,,,,,,,,,,,,,,,,,,
,,,,,,,,2023-08-16_08h59.47.403,HF_wild_card,2022.2.4,MacIntel,2.864131338,64403305213136974ed0f67a,64d2fd46c836a06233681665,64dc7eae96ba187eefe1fce0,,,,,,,sngl,resources/DP.BMP,resources/Empty.png,WildCard_Ex,-0.249247208,0.011230087,1,0,0,2.1283,optionLeft,55,10975,5,28,0,28,0,1,,,,,,,,,,,,,,,,,,,,,,,,,,,,,,,,,,,,,,,
,,,,,,,,2023-08-16_08h59.47.403,HF_wild_card,2022.2.4,MacIntel,2.864131338,64403305213136974ed0f67a,64d2fd46c836a06233681665,64dc7eae96ba187eefe1fce0,,,,,,,decisionTrl,resources/DY.BMP,resources/DR.BMP,Door3,-0.26989418,-0.001128006,1,0,0,1.1547,optionLeft,70,11045,5,29,0,29,0,1,,,,,,,,,,,,,,,,,,,,,,,,,,,,,,,,,,,,,,,
,,,,,,,,2023-08-16_08h59.47.403,HF_wild_card,2022.2.4,MacIntel,2.864131338,64403305213136974ed0f67a,64d2fd46c836a06233681665,64dc7eae96ba187eefe1fce0,,,,,,,decisionTrl,resources/DR.BMP,resources/DY.BMP,Door3,0.272762451,-0.03951786,1,0,0,1.6474,optionRight,70,11115,5,30,0,30,0,1,,,,,,,,,,,,,,,,,,,,,,,,,,,,,,,,,,,,,,,
,,,,,,,,2023-08-16_08h59.47.403,HF_wild_card,2022.2.4,MacIntel,2.864131338,64403305213136974ed0f67a,64d2fd46c836a06233681665,64dc7eae96ba187eefe1fce0,,,,,,,sngl,resources/DR.BMP,resources/Empty.png,Door4,-0.308093719,0.045811768,1,0,0,1.1379,optionLeft,80,11195,5,31,0,31,0,1,,,,,,,,,,,,,,,,,,,,,,,,,,,,,,,,,,,,,,,
,,,,,,,,2023-08-16_08h59.47.403,HF_wild_card,2022.2.4,MacIntel,2.864131338,64403305213136974ed0f67a,64d2fd46c836a06233681665,64dc7eae96ba187eefe1fce0,,,,,,,decisionTrl,resources/DB.BMP,resources/DBN.BMP,Door1,0.407117538,0.044278641,1,0,0,3.0474,optionRight,30,11225,5,32,0,32,0,1,,,,,,,,,,,,,,,,,,,,,,,,,,,,,,,,,,,,,,,
,,,,,,,,2023-08-16_08h59.47.403,HF_wild_card,2022.2.4,MacIntel,2.864131338,64403305213136974ed0f67a,64d2fd46c836a06233681665,64dc7eae96ba187eefe1fce0,,,,,,,sngl,resources/DY.BMP,resources/Empty.png,Door3,-0.254624939,0.005439148,1,0,0,1.2256,optionLeft,70,11295,5,33,0,33,0,1,,,,,,,,,,,,,,,,,,,,,,,,,,,,,,,,,,,,,,,
,,,,,,,,2023-08-16_08h59.47.403,HF_wild_card,2022.2.4,MacIntel,2.864131338,64403305213136974ed0f67a,64d2fd46c836a06233681665,64dc7eae96ba187eefe1fce0,,,,,,,decisionTrl,resources/DB.BMP,resources/DBN.BMP,Door1,0.287512665,-0.002536507,1,0,0,1.6091,optionRight,30,11325,5,34,0,34,0,1,,,,,,,,,,,,,,,,,,,,,,,,,,,,,,,,,,,,,,,
,,,,,,,,2023-08-16_08h59.47.403,HF_wild_card,2022.2.4,MacIntel,2.864131338,64403305213136974ed0f67a,64d2fd46c836a06233681665,64dc7eae96ba187eefe1fce0,,,,,,,decisionTrl,resources/DB.BMP,resources/DBN.BMP,Door1,0.343930054,0.02536972,1,0,0,1.7335,optionRight,30,11355,5,35,0,35,0,1,,,,,,,,,,,,,,,,,,,,,,,,,,,,,,,,,,,,,,,
,,,,,,,,2023-08-16_08h59.47.403,HF_wild_card,2022.2.4,MacIntel,2.864131338,64403305213136974ed0f67a,64d2fd46c836a06233681665,64dc7eae96ba187eefe1fce0,,,,,,,sngl,resources/Empty.png,resources/DP.BMP,WildCard_Ex,0.29435936,-0.020884171,1,0,0,0.964,optionRight,55,11410,5,36,0,36,0,1,,,,,,,,,,,,,,,,,,,,,,,,,,,,,,,,,,,,,,,
,,,,,,,,2023-08-16_08h59.47.403,HF_wild_card,2022.2.4,MacIntel,2.864131338,64403305213136974ed0f67a,64d2fd46c836a06233681665,64dc7eae96ba187eefe1fce0,,,,,,,decisionTrl,resources/DP.BMP,resources/DB.BMP,WildCard_Ex,-0.397360229,0.01920414,1,0,0,2.4432,optionLeft,45,11455,5,37,0,37,0,1,,,,,,,,,,,,,,,,,,,,,,,,,,,,,,,,,,,,,,,
,,,,,,,,2023-08-16_08h59.47.403,HF_wild_card,2022.2.4,MacIntel,2.864131338,64403305213136974ed0f67a,64d2fd46c836a06233681665,64dc7eae96ba187eefe1fce0,,,,,,,decisionTrl,resources/DY.BMP,resources/DR.BMP,Door3,-0.277320213,-0.002536964,1,0,0,1.092,optionLeft,70,11525,5,38,0,38,0,1,,,,,,,,,,,,,,,,,,,,,,,,,,,,,,,,,,,,,,,
,,,,,,,,2023-08-16_08h59.47.403,HF_wild_card,2022.2.4,MacIntel,2.864131338,64403305213136974ed0f67a,64d2fd46c836a06233681665,64dc7eae96ba187eefe1fce0,,,,,,,ctch,resources/DBN.BMP,resources/DR.BMP,Door4,0.296492996,-0.030671196,1,0,0,1.6249,optionRight,60,11585,5,39,0,39,0,1,,,,,,,,,,,,,,,,,,,,,,,,,,,,,,,,,,,,,,,
,,,,,,,,2023-08-16_08h59.47.403,HF_wild_card,2022.2.4,MacIntel,2.864131338,64403305213136974ed0f67a,64d2fd46c836a06233681665,64dc7eae96ba187eefe1fce0,,,,,,,ctch,resources/DR.BMP,resources/DBN.BMP,Door4,-0.356465912,0.042652054,1,0,0,1.0259,optionLeft,80,11665,5,40,0,40,0,1,,,,,,,,,,,,,,,,,,,,,,,,,,,,,,,,,,,,,,,
,,,,,,,,2023-08-16_08h59.47.403,HF_wild_card,2022.2.4,MacIntel,2.864131338,64403305213136974ed0f67a,64d2fd46c836a06233681665,64dc7eae96ba187eefe1fce0,,,,,,,sngl,resources/Empty.png,resources/DY.BMP,Door3,0.284661407,0.01325367,1,0,0,1.0135,optionRight,70,11735,5,41,0,41,0,1,,,,,,,,,,,,,,,,,,,,,,,,,,,,,,,,,,,,,,,
,,,,,,,,2023-08-16_08h59.47.403,HF_wild_card,2022.2.4,MacIntel,2.864131338,64403305213136974ed0f67a,64d2fd46c836a06233681665,64dc7eae96ba187eefe1fce0,,,,,,,ctch,resources/DB.BMP,resources/DY.BMP,Door3,0.402564087,-0.014882545,1,0,0,1.1424,optionRight,70,11805,5,42,0,42,0,1,,,,,,,,,,,,,,,,,,,,,,,,,,,,,,,,,,,,,,,
,,,,,,,,2023-08-16_08h59.47.403,HF_wild_card,2022.2.4,MacIntel,2.864131338,64403305213136974ed0f67a,64d2fd46c836a06233681665,64dc7eae96ba187eefe1fce0,,,,,,,decisionTrl,resources/DR.BMP,resources/DP.BMP,Door4,-0.378817024,0.077441521,1,0,0,1.9187,optionLeft,80,11885,5,43,0,43,0,1,,,,,,,,,,,,,,,,,,,,,,,,,,,,,,,,,,,,,,,
,,,,,,,,2023-08-16_08h59.47.403,HF_wild_card,2022.2.4,MacIntel,2.864131338,64403305213136974ed0f67a,64d2fd46c836a06233681665,64dc7eae96ba187eefe1fce0,,,,,,,,,,,,,,,,,,,,,,,,,,4,0,4,0,1,,,,,,,,,,,,,,,,,,,,,,,,,,,,,,,,,,
,,,,,,,,2023-08-16_08h59.47.403,HF_wild_card,2022.2.4,MacIntel,2.864131338,64403305213136974ed0f67a,64d2fd46c836a06233681665,64dc7eae96ba187eefe1fce0,,,,,,,decisionTrl,resources/DBN.BMP,resources/DP.BMP,WildCard_Ex,0.353427505,0.068519897,1,0,0,1.5401,optionRight,55,11940,6,0,0,0,0,1,,,,,,,,,,,,,,,,,,,,,,,,,,,,,,,,,,,,,,,
,,,,,,,,2023-08-16_08h59.47.403,HF_wild_card,2022.2.4,MacIntel,2.864131338,64403305213136974ed0f67a,64d2fd46c836a06233681665,64dc7eae96ba187eefe1fce0,,,,,,,decisionTrl,resources/DY.BMP,resources/DR.BMP,Door3,-0.360538025,0.016365471,1,0,0,1.3887,optionLeft,70,12010,6,1,0,1,0,1,,,,,,,,,,,,,,,,,,,,,,,,,,,,,,,,,,,,,,,
,,,,,,,,2023-08-16_08h59.47.403,HF_wild_card,2022.2.4,MacIntel,2.864131338,64403305213136974ed0f67a,64d2fd46c836a06233681665,64dc7eae96ba187eefe1fce0,,,,,,,decisionTrl,resources/DR.BMP,resources/DP.BMP,Door4,-0.296606789,0.006551285,1,0,0,3.0595,optionLeft,60,12070,6,2,0,2,0,1,,,,,,,,,,,,,,,,,,,,,,,,,,,,,,,,,,,,,,,
,,,,,,,,2023-08-16_08h59.47.403,HF_wild_card,2022.2.4,MacIntel,2.864131338,64403305213136974ed0f67a,64d2fd46c836a06233681665,64dc7eae96ba187eefe1fce0,,,,,,,sngl,resources/DP.BMP,resources/Empty.png,WildCard_Ex,-0.366431541,-0.018707275,1,0,0,7.6509,optionLeft,45,12115,6,3,0,3,0,1,,,,,,,,,,,,,,,,,,,,,,,,,,,,,,,,,,,,,,,
,,,,,,,,2023-08-16_08h59.47.403,HF_wild_card,2022.2.4,MacIntel,2.864131338,64403305213136974ed0f67a,64d2fd46c836a06233681665,64dc7eae96ba187eefe1fce0,,,,,,,ctch,resources/DR.BMP,resources/DBN.BMP,Door4,-0.382471657,-0.000842972,1,0,0,1.0699,optionLeft,80,12195,6,4,0,4,0,1,,,,,,,,,,,,,,,,,,,,,,,,,,,,,,,,,,,,,,,
,,,,,,,,2023-08-16_08h59.47.403,HF_wild_card,2022.2.4,MacIntel,2.864131338,64403305213136974ed0f67a,64d2fd46c836a06233681665,64dc7eae96ba187eefe1fce0,,,,,,,decisionTrl,resources/DB.BMP,resources/DBN.BMP,Door1,0.452562256,0.031059761,1,0,0,3.201,optionRight,30,12225,6,5,0,5,0,1,,,,,,,,,,,,,,,,,,,,,,,,,,,,,,,,,,,,,,,
,,,,,,,,2023-08-16_08h59.47.403,HF_wild_card,2022.2.4,MacIntel,2.864131338,64403305213136974ed0f67a,64d2fd46c836a06233681665,64dc7eae96ba187eefe1fce0,,,,,,,sngl,resources/Empty.png,resources/DR.BMP,Door4,0.427415161,0.01004673,1,0,0,3.3965,optionRight,80,12305,6,6,0,6,0,1,,,,,,,,,,,,,,,,,,,,,,,,,,,,,,,,,,,,,,,
,,,,,,,,2023-08-16_08h59.47.403,HF_wild_card,2022.2.4,MacIntel,2.864131338,64403305213136974ed0f67a,64d2fd46c836a06233681665,64dc7eae96ba187eefe1fce0,,,,,,,ctch,resources/DY.BMP,resources/DB.BMP,Door3,-0.409465485,-0.0425457,1,0,0,2.4684,optionLeft,70,12375,6,7,0,7,0,1,,,,,,,,,,,,,,,,,,,,,,,,,,,,,,,,,,,,,,,
,,,,,,,,2023-08-16_08h59.47.403,HF_wild_card,2022.2.4,MacIntel,2.864131338,64403305213136974ed0f67a,64d2fd46c836a06233681665,64dc7eae96ba187eefe1fce0,,,,,,,decisionTrl,resources/DB.BMP,resources/DBN.BMP,Door1,0.36117485,-0.001719475,1,0,0,3.3301,optionRight,30,12405,6,8,0,8,0,1,,,,,,,,,,,,,,,,,,,,,,,,,,,,,,,,,,,,,,,
,,,,,,,,2023-08-16_08h59.47.403,HF_wild_card,2022.2.4,MacIntel,2.864131338,64403305213136974ed0f67a,64d2fd46c836a06233681665,64dc7eae96ba187eefe1fce0,,,,,,,decisionTrl,resources/DY.BMP,resources/DP.BMP,Door3,-0.425896606,-0.051436615,1,0,0,2.4673,optionLeft,70,12475,6,9,0,9,0,1,,,,,,,,,,,,,,,,,,,,,,,,,,,,,,,,,,,,,,,
,,,,,,,,2023-08-16_08h59.47.403,HF_wild_card,2022.2.4,MacIntel,2.864131338,64403305213136974ed0f67a,64d2fd46c836a06233681665,64dc7eae96ba187eefe1fce0,,,,,,,ctch,resources/DBN.BMP,resources/DR.BMP,Door4,0.253900986,-0.03366394,1,0,0,3.2644,optionRight,80,12555,6,10,0,10,0,1,,,,,,,,,,,,,,,,,,,,,,,,,,,,,,,,,,,,,,,
,,,,,,,,2023-08-16_08h59.47.403,HF_wild_card,2022.2.4,MacIntel,2.864131338,64403305213136974ed0f67a,64d2fd46c836a06233681665,64dc7eae96ba187eefe1fce0,,,,,,,sngl,resources/Empty.png,resources/DBN.BMP,Door1,0.383651733,0.015083656,1,0,0,0.9275,optionRight,30,12585,6,11,0,11,0,1,,,,,,,,,,,,,,,,,,,,,,,,,,,,,,,,,,,,,,,
,,,,,,,,2023-08-16_08h59.47.403,HF_wild_card,2022.2.4,MacIntel,2.864131338,64403305213136974ed0f67a,64d2fd46c836a06233681665,64dc7eae96ba187eefe1fce0,,,,,,,ctch,resources/DBN.BMP,resources/DR.BMP,Door4,0.339674454,-0.048491478,1,0,0,2.2744,optionRight,80,12665,6,12,0,12,0,1,,,,,,,,,,,,,,,,,,,,,,,,,,,,,,,,,,,,,,,
,,,,,,,,2023-08-16_08h59.47.403,HF_wild_card,2022.2.4,MacIntel,2.864131338,64403305213136974ed0f67a,64d2fd46c836a06233681665,64dc7eae96ba187eefe1fce0,,,,,,,sngl,resources/Empty.png,resources/DY.BMP,Door3,0.266616287,-0.000706291,1,0,0,1.2506,optionRight,70,12735,6,13,0,13,0,1,,,,,,,,,,,,,,,,,,,,,,,,,,,,,,,,,,,,,,,
,,,,,,,,2023-08-16_08h59.47.403,HF_wild_card,2022.2.4,MacIntel,2.864131338,64403305213136974ed0f67a,64d2fd46c836a06233681665,64dc7eae96ba187eefe1fce0,,,,,,,sngl,resources/Empty.png,resources/DP.BMP,WildCard_Ex,0.357071457,-0.055337753,1,0,0,3.7498,optionRight,45,12780,6,14,0,14,0,1,,,,,,,,,,,,,,,,,,,,,,,,,,,,,,,,,,,,,,,
,,,,,,,,2023-08-16_08h59.47.403,HF_wild_card,2022.2.4,MacIntel,2.864131338,64403305213136974ed0f67a,64d2fd46c836a06233681665,64dc7eae96ba187eefe1fce0,,,,,,,sngl,resources/Empty.png,resources/DP.BMP,WildCard_Ex,0.299995193,-0.007129097,1,0,0,2.5486,optionRight,55,12835,6,15,0,15,0,1,,,,,,,,,,,,,,,,,,,,,,,,,,,,,,,,,,,,,,,
,,,,,,,,2023-08-16_08h59.47.403,HF_wild_card,2022.2.4,MacIntel,2.864131338,64403305213136974ed0f67a,64d2fd46c836a06233681665,64dc7eae96ba187eefe1fce0,,,,,,,decisionTrl,resources/DP.BMP,resources/DBN.BMP,WildCard_Ex,-0.423816032,0.010210381,1,0,0,1.1139,optionLeft,55,12890,6,16,0,16,0,1,,,,,,,,,,,,,,,,,,,,,,,,,,,,,,,,,,,,,,,
,,,,,,,,2023-08-16_08h59.47.403,HF_wild_card,2022.2.4,MacIntel,2.864131338,64403305213136974ed0f67a,64d2fd46c836a06233681665,64dc7eae96ba187eefe1fce0,,,,,,,sngl,resources/DP.BMP,resources/Empty.png,WildCard_Ex,-0.292173195,-0.033492165,1,0,0,0.829,optionLeft,55,12945,6,17,0,17,0,1,,,,,,,,,,,,,,,,,,,,,,,,,,,,,,,,,,,,,,,
,,,,,,,,2023-08-16_08h59.47.403,HF_wild_card,2022.2.4,MacIntel,2.864131338,64403305213136974ed0f67a,64d2fd46c836a06233681665,64dc7eae96ba187eefe1fce0,,,,,,,decisionTrl,resources/DP.BMP,resources/DR.BMP,Door4,0.293002472,-0.052402382,1,0,0,1.6828,optionRight,80,13025,6,18,0,18,0,1,,,,,,,,,,,,,,,,,,,,,,,,,,,,,,,,,,,,,,,
,,,,,,,,2023-08-16_08h59.47.403,HF_wild_card,2022.2.4,MacIntel,2.864131338,64403305213136974ed0f67a,64d2fd46c836a06233681665,64dc7eae96ba187eefe1fce0,,,,,,,decisionTrl,resources/DP.BMP,resources/DB.BMP,WildCard_Ex,-0.228111992,-0.029596748,1,0,0,1.3538,optionLeft,55,13080,6,19,0,19,0,1,,,,,,,,,,,,,,,,,,,,,,,,,,,,,,,,,,,,,,,
,,,,,,,,2023-08-16_08h59.47.403,HF_wild_card,2022.2.4,MacIntel,2.864131338,64403305213136974ed0f67a,64d2fd46c836a06233681665,64dc7eae96ba187eefe1fce0,,,,,,,ctch,resources/DY.BMP,resources/DB.BMP,Door3,-0.376822701,0.021803513,1,0,0,1.3774,optionLeft,70,13150,6,20,0,20,0,1,,,,,,,,,,,,,,,,,,,,,,,,,,,,,,,,,,,,,,,
,,,,,,,,2023-08-16_08h59.47.403,HF_wild_card,2022.2.4,MacIntel,2.864131338,64403305213136974ed0f67a,64d2fd46c836a06233681665,64dc7eae96ba187eefe1fce0,,,,,,,decisionTrl,resources/DR.BMP,resources/DY.BMP,Door3,0.364740677,-0.002705002,1,0,0,3.2439,optionRight,70,13220,6,21,0,21,0,1,,,,,,,,,,,,,,,,,,,,,,,,,,,,,,,,,,,,,,,
,,,,,,,,2023-08-16_08h59.47.403,HF_wild_card,2022.2.4,MacIntel,2.864131338,64403305213136974ed0f67a,64d2fd46c836a06233681665,64dc7eae96ba187eefe1fce0,,,,,,,decisionTrl,resources/DR.BMP,resources/DY.BMP,Door3,0.468966522,-0.004457092,1,0,0,1.9617,optionRight,70,13290,6,22,0,22,0,1,,,,,,,,,,,,,,,,,,,,,,,,,,,,,,,,,,,,,,,
,,,,,,,,2023-08-16_08h59.47.403,HF_wild_card,2022.2.4,MacIntel,2.864131338,64403305213136974ed0f67a,64d2fd46c836a06233681665,64dc7eae96ba187eefe1fce0,,,,,,,sngl,resources/Empty.png,resources/DB.BMP,Door2,0.317830963,-0.004520798,1,0,0,1.4797,optionRight,40,13330,6,23,0,23,0,1,,,,,,,,,,,,,,,,,,,,,,,,,,,,,,,,,,,,,,,
,,,,,,,,2023-08-16_08h59.47.403,HF_wild_card,2022.2.4,MacIntel,2.864131338,64403305213136974ed0f67a,64d2fd46c836a06233681665,64dc7eae96ba187eefe1fce0,,,,,,,decisionTrl,resources/DB.BMP,resources/DBN.BMP,Door1,0.303991547,-0.012905006,1,0,0,1.6362,optionRight,30,13360,6,24,0,24,0,1,,,,,,,,,,,,,,,,,,,,,,,,,,,,,,,,,,,,,,,
,,,,,,,,2023-08-16_08h59.47.403,HF_wild_card,2022.2.4,MacIntel,2.864131338,64403305213136974ed0f67a,64d2fd46c836a06233681665,64dc7eae96ba187eefe1fce0,,,,,,,decisionTrl,resources/DP.BMP,resources/DY.BMP,Door3,0.322851486,-0.050410652,1,0,0,1.4938,optionRight,70,13430,6,25,0,25,0,1,,,,,,,,,,,,,,,,,,,,,,,,,,,,,,,,,,,,,,,
,,,,,,,,2023-08-16_08h59.47.403,HF_wild_card,2022.2.4,MacIntel,2.864131338,64403305213136974ed0f67a,64d2fd46c836a06233681665,64dc7eae96ba187eefe1fce0,,,,,,,decisionTrl,resources/DY.BMP,resources/DR.BMP,Door3,-0.274356575,-0.002709579,1,0,0,2.6177,optionLeft,70,13500,6,26,0,26,0,1,,,,,,,,,,,,,,,,,,,,,,,,,,,,,,,,,,,,,,,
,,,,,,,,2023-08-16_08h59.47.403,HF_wild_card,2022.2.4,MacIntel,2.864131338,64403305213136974ed0f67a,64d2fd46c836a06233681665,64dc7eae96ba187eefe1fce0,,,,,,,ctch,resources/DB.BMP,resources/DY.BMP,Door3,0.361890259,-0.061165466,1,0,0,2.7437,optionRight,70,13570,6,27,0,27,0,1,,,,,,,,,,,,,,,,,,,,,,,,,,,,,,,,,,,,,,,
,,,,,,,,2023-08-16_08h59.47.403,HF_wild_card,2022.2.4,MacIntel,2.864131338,64403305213136974ed0f67a,64d2fd46c836a06233681665,64dc7eae96ba187eefe1fce0,,,,,,,decisionTrl,resources/DBN.BMP,resources/DB.BMP,Door1,-0.294640884,-0.006649055,1,0,0,2.3358,optionLeft,30,13600,6,28,0,28,0,1,,,,,,,,,,,,,,,,,,,,,,,,,,,,,,,,,,,,,,,
,,,,,,,,2023-08-16_08h59.47.403,HF_wild_card,2022.2.4,MacIntel,2.864131338,64403305213136974ed0f67a,64d2fd46c836a06233681665,64dc7eae96ba187eefe1fce0,,,,,,,decisionTrl,resources/DY.BMP,resources/DR.BMP,Door3,-0.351291656,0.033699074,1,0,0,1.0775,optionLeft,70,13670,6,29,0,29,0,1,,,,,,,,,,,,,,,,,,,,,,,,,,,,,,,,,,,,,,,
,,,,,,,,2023-08-16_08h59.47.403,HF_wild_card,2022.2.4,MacIntel,2.864131338,64403305213136974ed0f67a,64d2fd46c836a06233681665,64dc7eae96ba187eefe1fce0,,,,,,,decisionTrl,resources/DBN.BMP,resources/DB.BMP,Door1,-0.29934433,0.036308022,1,0,0,1.416,optionLeft,30,13700,6,30,0,30,0,1,,,,,,,,,,,,,,,,,,,,,,,,,,,,,,,,,,,,,,,
,,,,,,,,2023-08-16_08h59.47.403,HF_wild_card,2022.2.4,MacIntel,2.864131338,64403305213136974ed0f67a,64d2fd46c836a06233681665,64dc7eae96ba187eefe1fce0,,,,,,,ctch,resources/DR.BMP,resources/DBN.BMP,Door4,-0.472399864,0.042207222,1,0,0,1.3047,optionLeft,80,13780,6,31,0,31,0,1,,,,,,,,,,,,,,,,,,,,,,,,,,,,,,,,,,,,,,,
,,,,,,,,2023-08-16_08h59.47.403,HF_wild_card,2022.2.4,MacIntel,2.864131338,64403305213136974ed0f67a,64d2fd46c836a06233681665,64dc7eae96ba187eefe1fce0,,,,,,,sngl,resources/DB.BMP,resources/Empty.png,Door2,-0.246054726,0.014815941,1,0,0,1.1039,optionLeft,20,13800,6,32,0,32,0,1,,,,,,,,,,,,,,,,,,,,,,,,,,,,,,,,,,,,,,,
,,,,,,,,2023-08-16_08h59.47.403,HF_wild_card,2022.2.4,MacIntel,2.864131338,64403305213136974ed0f67a,64d2fd46c836a06233681665,64dc7eae96ba187eefe1fce0,,,,,,,decisionTrl,resources/DB.BMP,resources/DP.BMP,WildCard_Ex,0.381107254,-0.074573097,1,0,0,1.697,optionRight,45,13845,6,33,0,33,0,1,,,,,,,,,,,,,,,,,,,,,,,,,,,,,,,,,,,,,,,
,,,,,,,,2023-08-16_08h59.47.403,HF_wild_card,2022.2.4,MacIntel,2.864131338,64403305213136974ed0f67a,64d2fd46c836a06233681665,64dc7eae96ba187eefe1fce0,,,,,,,sngl,resources/DR.BMP,resources/Empty.png,Door4,-0.40242939,0.018692589,1,0,0,1.214,optionLeft,60,13905,6,34,0,34,0,1,,,,,,,,,,,,,,,,,,,,,,,,,,,,,,,,,,,,,,,
,,,,,,,,2023-08-16_08h59.47.403,HF_wild_card,2022.2.4,MacIntel,2.864131338,64403305213136974ed0f67a,64d2fd46c836a06233681665,64dc7eae96ba187eefe1fce0,,,,,,,sngl,resources/DY.BMP,resources/Empty.png,Door3,-0.282979736,0.047195969,1,0,0,3.9161,optionLeft,70,13975,6,35,0,35,0,1,,,,,,,,,,,,,,,,,,,,,,,,,,,,,,,,,,,,,,,
,,,,,,,,2023-08-16_08h59.47.403,HF_wild_card,2022.2.4,MacIntel,2.864131338,64403305213136974ed0f67a,64d2fd46c836a06233681665,64dc7eae96ba187eefe1fce0,,,,,,,decisionTrl,resources/DBN.BMP,resources/DB.BMP,Door1,-0.257257385,0.022621422,1,0,0,1.2817,optionLeft,30,14005,6,36,0,36,0,1,,,,,,,,,,,,,,,,,,,,,,,,,,,,,,,,,,,,,,,
,,,,,,,,2023-08-16_08h59.47.403,HF_wild_card,2022.2.4,MacIntel,2.864131338,64403305213136974ed0f67a,64d2fd46c836a06233681665,64dc7eae96ba187eefe1fce0,,,,,,,ctch,resources/DB.BMP,resources/DY.BMP,Door3,0.498432159,-0.049702415,1,0,0,1.0691,optionRight,70,14075,6,37,0,37,0,1,,,,,,,,,,,,,,,,,,,,,,,,,,,,,,,,,,,,,,,
,,,,,,,,2023-08-16_08h59.47.403,HF_wild_card,2022.2.4,MacIntel,2.864131338,64403305213136974ed0f67a,64d2fd46c836a06233681665,64dc7eae96ba187eefe1fce0,,,,,,,decisionTrl,resources/DBN.BMP,resources/DB.BMP,Door1,-0.406958275,0.002578278,1,0,0,4.0998,optionLeft,30,14105,6,38,0,38,0,1,,,,,,,,,,,,,,,,,,,,,,,,,,,,,,,,,,,,,,,
,,,,,,,,2023-08-16_08h59.47.403,HF_wild_card,2022.2.4,MacIntel,2.864131338,64403305213136974ed0f67a,64d2fd46c836a06233681665,64dc7eae96ba187eefe1fce0,,,,,,,decisionTrl,resources/DR.BMP,resources/DY.BMP,Door3,0.315678101,-0.045965843,1,0,0,1.4155,optionRight,70,14175,6,39,0,39,0,1,,,,,,,,,,,,,,,,,,,,,,,,,,,,,,,,,,,,,,,
,,,,,,,,2023-08-16_08h59.47.403,HF_wild_card,2022.2.4,MacIntel,2.864131338,64403305213136974ed0f67a,64d2fd46c836a06233681665,64dc7eae96ba187eefe1fce0,,,,,,,decisionTrl,resources/DB.BMP,resources/DBN.BMP,Door1,0.355880127,-0.021646309,1,0,0,3.5512,optionRight,30,14205,6,40,0,40,0,1,,,,,,,,,,,,,,,,,,,,,,,,,,,,,,,,,,,,,,,
,,,,,,,,2023-08-16_08h59.47.403,HF_wild_card,2022.2.4,MacIntel,2.864131338,64403305213136974ed0f67a,64d2fd46c836a06233681665,64dc7eae96ba187eefe1fce0,,,,,,,sngl,resources/DBN.BMP,resources/Empty.png,Door1,-0.282398872,0.002886734,1,0,0,0.9696,optionLeft,30,14235,6,41,0,41,0,1,,,,,,,,,,,,,,,,,,,,,,,,,,,,,,,,,,,,,,,
,,,,,,,,2023-08-16_08h59.47.403,HF_wild_card,2022.2.4,MacIntel,2.864131338,64403305213136974ed0f67a,64d2fd46c836a06233681665,64dc7eae96ba187eefe1fce0,,,,,,,decisionTrl,resources/DR.BMP,resources/DY.BMP,Door3,0.452870178,-0.018560257,1,0,0,2.6214,optionRight,70,14305,6,42,0,42,0,1,,,,,,,,,,,,,,,,,,,,,,,,,,,,,,,,,,,,,,,
,,,,,,,,2023-08-16_08h59.47.403,HF_wild_card,2022.2.4,MacIntel,2.864131338,64403305213136974ed0f67a,64d2fd46c836a06233681665,64dc7eae96ba187eefe1fce0,,,,,,,decisionTrl,resources/DY.BMP,resources/DR.BMP,Door3,-0.341562653,0.007738495,1,0,0,1.2261,optionLeft,70,14375,6,43,0,43,0,1,,,,,,,,,,,,,,,,,,,,,,,,,,,,,,,,,,,,,,,
,,,,,,,,2023-08-16_08h59.47.403,HF_wild_card,2022.2.4,MacIntel,2.864131338,64403305213136974ed0f67a,64d2fd46c836a06233681665,64dc7eae96ba187eefe1fce0,,,,,,,,,,,,,,,,,,,,,,,,,,5,0,5,0,1,,,,,,,,,,,,,,,,,,,,,,,,,,,,,,,,,,
,,,,,,,,2023-08-16_08h59.47.403,HF_wild_card,2022.2.4,MacIntel,2.864131338,64403305213136974ed0f67a,64d2fd46c836a06233681665,64dc7eae96ba187eefe1fce0,,,,,,,decisionTrl,resources/DR.BMP,resources/DY.BMP,Door3,0.32443718,-0.034361649,1,0,0,1.4977,optionRight,70,14445,7,0,0,0,0,1,,,,,,,,,,,,,,,,,,,,,,,,,,,,,,,,,,,,,,,
,,,,,,,,2023-08-16_08h59.47.403,HF_wild_card,2022.2.4,MacIntel,2.864131338,64403305213136974ed0f67a,64d2fd46c836a06233681665,64dc7eae96ba187eefe1fce0,,,,,,,ctch,resources/DR.BMP,resources/DBN.BMP,Door4,-0.389441681,0.056320305,1,0,0,4.1094,optionLeft,80,14525,7,1,0,1,0,1,,,,,,,,,,,,,,,,,,,,,,,,,,,,,,,,,,,,,,,
,,,,,,,,2023-08-16_08h59.47.403,HF_wild_card,2022.2.4,MacIntel,2.864131338,64403305213136974ed0f67a,64d2fd46c836a06233681665,64dc7eae96ba187eefe1fce0,,,,,,,ctch,resources/DY.BMP,resources/DB.BMP,Door3,-0.350015564,-0.010876617,1,0,0,2.6468,optionLeft,70,14595,7,2,0,2,0,1,,,,,,,,,,,,,,,,,,,,,,,,,,,,,,,,,,,,,,,
,,,,,,,,2023-08-16_08h59.47.403,HF_wild_card,2022.2.4,MacIntel,2.864131338,64403305213136974ed0f67a,64d2fd46c836a06233681665,64dc7eae96ba187eefe1fce0,,,,,,,decisionTrl,resources/DY.BMP,resources/DR.BMP,Door3,-0.335765877,-0.00531723,1,0,0,1.3496,optionLeft,70,14665,7,3,0,3,0,1,,,,,,,,,,,,,,,,,,,,,,,,,,,,,,,,,,,,,,,
,,,,,,,,2023-08-16_08h59.47.403,HF_wild_card,2022.2.4,MacIntel,2.864131338,64403305213136974ed0f67a,64d2fd46c836a06233681665,64dc7eae96ba187eefe1fce0,,,,,,,decisionTrl,resources/DR.BMP,resources/DY.BMP,Door3,0.487605133,0.050280304,1,0,0,1.5374,optionRight,70,14735,7,4,0,4,0,1,,,,,,,,,,,,,,,,,,,,,,,,,,,,,,,,,,,,,,,
,,,,,,,,2023-08-16_08h59.47.403,HF_wild_card,2022.2.4,MacIntel,2.864131338,64403305213136974ed0f67a,64d2fd46c836a06233681665,64dc7eae96ba187eefe1fce0,,,,,,,decisionTrl,resources/DB.BMP,resources/DBN.BMP,Door1,0.545919189,-0.001442108,1,0,0,1.9329,optionRight,30,14765,7,5,0,5,0,1,,,,,,,,,,,,,,,,,,,,,,,,,,,,,,,,,,,,,,,
,,,,,,,,2023-08-16_08h59.47.403,HF_wild_card,2022.2.4,MacIntel,2.864131338,64403305213136974ed0f67a,64d2fd46c836a06233681665,64dc7eae96ba187eefe1fce0,,,,,,,decisionTrl,resources/DB.BMP,resources/DBN.BMP,Door1,0.327827225,0.08250103,1,0,0,1.8812,optionRight,30,14795,7,6,0,6,0,1,,,,,,,,,,,,,,,,,,,,,,,,,,,,,,,,,,,,,,,
,,,,,,,,2023-08-16_08h59.47.403,HF_wild_card,2022.2.4,MacIntel,2.864131338,64403305213136974ed0f67a,64d2fd46c836a06233681665,64dc7eae96ba187eefe1fce0,,,,,,,decisionTrl,resources/DY.BMP,resources/DR.BMP,Door3,-0.320655289,0.002462158,1,0,0,2.7314,optionLeft,70,14865,7,7,0,7,0,1,,,,,,,,,,,,,,,,,,,,,,,,,,,,,,,,,,,,,,,
,,,,,,,,2023-08-16_08h59.47.403,HF_wild_card,2022.2.4,MacIntel,2.864131338,64403305213136974ed0f67a,64d2fd46c836a06233681665,64dc7eae96ba187eefe1fce0,,,,,,,ctch,resources/DY.BMP,resources/DB.BMP,Door3,-0.291405334,-0.046246452,1,0,0,4.0194,optionLeft,70,14935,7,8,0,8,0,1,,,,,,,,,,,,,,,,,,,,,,,,,,,,,,,,,,,,,,,
,,,,,,,,2023-08-16_08h59.47.403,HF_wild_card,2022.2.4,MacIntel,2.864131338,64403305213136974ed0f67a,64d2fd46c836a06233681665,64dc7eae96ba187eefe1fce0,,,,,,,ctch,resources/DR.BMP,resources/DBN.BMP,Door4,-0.441977539,0.04156414,1,0,0,1.5439,optionLeft,80,15015,7,9,0,9,0,1,,,,,,,,,,,,,,,,,,,,,,,,,,,,,,,,,,,,,,,
,,,,,,,,2023-08-16_08h59.47.403,HF_wild_card,2022.2.4,MacIntel,2.864131338,64403305213136974ed0f67a,64d2fd46c836a06233681665,64dc7eae96ba187eefe1fce0,,,,,,,decisionTrl,resources/DBN.BMP,resources/DB.BMP,Door1,-0.363208466,0.032140045,1,0,0,1.7561,optionLeft,30,15045,7,10,0,10,0,1,,,,,,,,,,,,,,,,,,,,,,,,,,,,,,,,,,,,,,,
,,,,,,,,2023-08-16_08h59.47.403,HF_wild_card,2022.2.4,MacIntel,2.864131338,64403305213136974ed0f67a,64d2fd46c836a06233681665,64dc7eae96ba187eefe1fce0,,,,,,,decisionTrl,resources/DBN.BMP,resources/DB.BMP,Door1,-0.357316093,0.017774544,1,0,0,1.6902,optionLeft,30,15075,7,11,0,11,0,1,,,,,,,,,,,,,,,,,,,,,,,,,,,,,,,,,,,,,,,
,,,,,,,,2023-08-16_08h59.47.403,HF_wild_card,2022.2.4,MacIntel,2.864131338,64403305213136974ed0f67a,64d2fd46c836a06233681665,64dc7eae96ba187eefe1fce0,,,,,,,decisionTrl,resources/DBN.BMP,resources/DB.BMP,Door1,-0.342511673,0.024379959,1,0,0,1.5947,optionLeft,30,15105,7,12,0,12,0,1,,,,,,,,,,,,,,,,,,,,,,,,,,,,,,,,,,,,,,,
,,,,,,,,2023-08-16_08h59.47.403,HF_wild_card,2022.2.4,MacIntel,2.864131338,64403305213136974ed0f67a,64d2fd46c836a06233681665,64dc7eae96ba187eefe1fce0,,,,,,,decisionTrl,resources/DR.BMP,resources/DY.BMP,Door3,0.406322021,-0.052584648,1,0,0,1.1128,optionRight,70,15175,7,13,0,13,0,1,,,,,,,,,,,,,,,,,,,,,,,,,,,,,,,,,,,,,,,
,,,,,,,,2023-08-16_08h59.47.403,HF_wild_card,2022.2.4,MacIntel,2.864131338,64403305213136974ed0f67a,64d2fd46c836a06233681665,64dc7eae96ba187eefe1fce0,,,,,,,decisionTrl,resources/DBN.BMP,resources/DB.BMP,Door1,-0.310246391,0.029396019,1,0,0,3.7593,optionLeft,30,15205,7,14,0,14,0,1,,,,,,,,,,,,,,,,,,,,,,,,,,,,,,,,,,,,,,,
,,,,,,,,2023-08-16_08h59.47.403,HF_wild_card,2022.2.4,MacIntel,2.864131338,64403305213136974ed0f67a,64d2fd46c836a06233681665,64dc7eae96ba187eefe1fce0,,,,,,,ctch,resources/DB.BMP,resources/DY.BMP,Door3,0.377776108,0.006016617,1,0,0,1.0483,optionRight,70,15275,7,15,0,15,0,1,,,,,,,,,,,,,,,,,,,,,,,,,,,,,,,,,,,,,,,
,,,,,,,,2023-08-16_08h59.47.403,HF_wild_card,2022.2.4,MacIntel,2.864131338,64403305213136974ed0f67a,64d2fd46c836a06233681665,64dc7eae96ba187eefe1fce0,,,,,,,decisionTrl,resources/DB.BMP,resources/DBN.BMP,Door1,0.32536377,0.065852737,1,0,0,2.8503,optionRight,30,15305,7,16,0,16,0,1,,,,,,,,,,,,,,,,,,,,,,,,,,,,,,,,,,,,,,,
,,,,,,,,2023-08-16_08h59.47.403,HF_wild_card,2022.2.4,MacIntel,2.864131338,64403305213136974ed0f67a,64d2fd46c836a06233681665,64dc7eae96ba187eefe1fce0,,,,,,,decisionTrl,resources/DR.BMP,resources/DY.BMP,Door3,0.510349426,-0.053575478,1,0,0,1.3152,optionRight,70,15375,7,17,0,17,0,1,,,,,,,,,,,,,,,,,,,,,,,,,,,,,,,,,,,,,,,
,,,,,,,,2023-08-16_08h59.47.403,HF_wild_card,2022.2.4,MacIntel,2.864131338,64403305213136974ed0f67a,64d2fd46c836a06233681665,64dc7eae96ba187eefe1fce0,,,,,,,ctch,resources/DR.BMP,resources/DBN.BMP,Door4,-0.260561295,-0.072438774,1,0,0,1.6221,optionLeft,80,15455,7,18,0,18,0,1,,,,,,,,,,,,,,,,,,,,,,,,,,,,,,,,,,,,,,,
,,,,,,,,2023-08-16_08h59.47.403,HF_wild_card,2022.2.4,MacIntel,2.864131338,64403305213136974ed0f67a,64d2fd46c836a06233681665,64dc7eae96ba187eefe1fce0,,,,,,,decisionTrl,resources/DR.BMP,resources/DY.BMP,Door3,0.271824341,0.024890594,1,0,0,1.361,optionRight,70,15525,7,19,0,19,0,1,,,,,,,,,,,,,,,,,,,,,,,,,,,,,,,,,,,,,,,
,,,,,,,,2023-08-16_08h59.47.403,HF_wild_card,2022.2.4,MacIntel,2.864131338,64403305213136974ed0f67a,64d2fd46c836a06233681665,64dc7eae96ba187eefe1fce0,,,,,,,decisionTrl,resources/DY.BMP,resources/DR.BMP,Door3,-0.339106941,-0.021821899,1,0,0,1.0052,optionLeft,70,15595,7,20,0,20,0,1,,,,,,,,,,,,,,,,,,,,,,,,,,,,,,,,,,,,,,,
,,,,,,,,2023-08-16_08h59.47.403,HF_wild_card,2022.2.4,MacIntel,2.864131338,64403305213136974ed0f67a,64d2fd46c836a06233681665,64dc7eae96ba187eefe1fce0,,,,,,,decisionTrl,resources/DY.BMP,resources/DR.BMP,Door3,-0.297292786,0.010070076,1,0,0,1.5949,optionLeft,70,15665,7,21,0,21,0,1,,,,,,,,,,,,,,,,,,,,,,,,,,,,,,,,,,,,,,,
,,,,,,,,2023-08-16_08h59.47.403,HF_wild_card,2022.2.4,MacIntel,2.864131338,64403305213136974ed0f67a,64d2fd46c836a06233681665,64dc7eae96ba187eefe1fce0,,,,,,,decisionTrl,resources/DBN.BMP,resources/DB.BMP,Door1,-0.374766922,-0.020925102,1,0,0,1.542,optionLeft,30,15695,7,22,0,22,0,1,,,,,,,,,,,,,,,,,,,,,,,,,,,,,,,,,,,,,,,
,,,,,,,,2023-08-16_08h59.47.403,HF_wild_card,2022.2.4,MacIntel,2.864131338,64403305213136974ed0f67a,64d2fd46c836a06233681665,64dc7eae96ba187eefe1fce0,,,,,,,decisionTrl,resources/DY.BMP,resources/DR.BMP,Door3,-0.30443325,-0.003861046,1,0,0,1.3471,optionLeft,70,15765,7,23,0,23,0,1,,,,,,,,,,,,,,,,,,,,,,,,,,,,,,,,,,,,,,,
,,,,,,,,2023-08-16_08h59.47.403,HF_wild_card,2022.2.4,MacIntel,2.864131338,64403305213136974ed0f67a,64d2fd46c836a06233681665,64dc7eae96ba187eefe1fce0,,,,,,,decisionTrl,resources/DB.BMP,resources/DBN.BMP,Door1,0.282126617,0.020061951,1,0,0,2.6489,optionRight,30,15795,7,24,0,24,0,1,,,,,,,,,,,,,,,,,,,,,,,,,,,,,,,,,,,,,,,
,,,,,,,,2023-08-16_08h59.47.403,HF_wild_card,2022.2.4,MacIntel,2.864131338,64403305213136974ed0f67a,64d2fd46c836a06233681665,64dc7eae96ba187eefe1fce0,,,,,,,ctch,resources/DY.BMP,resources/DB.BMP,Door3,-0.33321785,0.004487114,1,0,0,1.9726,optionLeft,70,15865,7,25,0,25,0,1,,,,,,,,,,,,,,,,,,,,,,,,,,,,,,,,,,,,,,,
,,,,,,,,2023-08-16_08h59.47.403,HF_wild_card,2022.2.4,MacIntel,2.864131338,64403305213136974ed0f67a,64d2fd46c836a06233681665,64dc7eae96ba187eefe1fce0,,,,,,,ctch,resources/DB.BMP,resources/DY.BMP,Door3,0.316417694,0.004076958,1,0,0,2.9491,optionRight,70,15935,7,26,0,26,0,1,,,,,,,,,,,,,,,,,,,,,,,,,,,,,,,,,,,,,,,
,,,,,,,,2023-08-16_08h59.47.403,HF_wild_card,2022.2.4,MacIntel,2.864131338,64403305213136974ed0f67a,64d2fd46c836a06233681665,64dc7eae96ba187eefe1fce0,,,,,,,decisionTrl,resources/DB.BMP,resources/DBN.BMP,Door1,0.309404144,0.027126846,1,0,0,3.36,optionRight,30,15965,7,27,0,27,0,1,,,,,,,,,,,,,,,,,,,,,,,,,,,,,,,,,,,,,,,
,,,,,,,,2023-08-16_08h59.47.403,HF_wild_card,2022.2.4,MacIntel,2.864131338,64403305213136974ed0f67a,64d2fd46c836a06233681665,64dc7eae96ba187eefe1fce0,,,,,,,decisionTrl,resources/DY.BMP,resources/DR.BMP,Door3,-0.282580872,-0.000608673,1,0,0,1.3761,optionLeft,70,16035,7,28,0,28,0,1,,,,,,,,,,,,,,,,,,,,,,,,,,,,,,,,,,,,,,,
,,,,,,,,2023-08-16_08h59.47.403,HF_wild_card,2022.2.4,MacIntel,2.864131338,64403305213136974ed0f67a,64d2fd46c836a06233681665,64dc7eae96ba187eefe1fce0,,,,,,,decisionTrl,resources/DB.BMP,resources/DBN.BMP,Door1,0.42008812,-0.013119926,1,0,0,1.9538,optionRight,30,16065,7,29,0,29,0,1,,,,,,,,,,,,,,,,,,,,,,,,,,,,,,,,,,,,,,,
,,,,,,,,2023-08-16_08h59.47.403,HF_wild_card,2022.2.4,MacIntel,2.864131338,64403305213136974ed0f67a,64d2fd46c836a06233681665,64dc7eae96ba187eefe1fce0,,,,,,,ctch,resources/DBN.BMP,resources/DR.BMP,Door4,0.421360626,-0.088876877,1,0,0,1.3426,optionRight,80,16145,7,30,0,30,0,1,,,,,,,,,,,,,,,,,,,,,,,,,,,,,,,,,,,,,,,
,,,,,,,,2023-08-16_08h59.47.403,HF_wild_card,2022.2.4,MacIntel,2.864131338,64403305213136974ed0f67a,64d2fd46c836a06233681665,64dc7eae96ba187eefe1fce0,,,,,,,decisionTrl,resources/DR.BMP,resources/DY.BMP,Door3,0.391286087,-0.057417641,1,0,0,1.3242,optionRight,70,16215,7,31,0,31,0,1,,,,,,,,,,,,,,,,,,,,,,,,,,,,,,,,,,,,,,,
,,,,,,,,2023-08-16_08h59.47.403,HF_wild_card,2022.2.4,MacIntel,2.864131338,64403305213136974ed0f67a,64d2fd46c836a06233681665,64dc7eae96ba187eefe1fce0,,,,,,,ctch,resources/DB.BMP,resources/DY.BMP,Door3,0.377473984,0.05189415,1,0,0,1.0712,optionRight,70,16285,7,32,0,32,0,1,,,,,,,,,,,,,,,,,,,,,,,,,,,,,,,,,,,,,,,
,,,,,,,,2023-08-16_08h59.47.403,HF_wild_card,2022.2.4,MacIntel,2.864131338,64403305213136974ed0f67a,64d2fd46c836a06233681665,64dc7eae96ba187eefe1fce0,,,,,,,ctch,resources/DBN.BMP,resources/DR.BMP,Door4,0.385867691,-0.022671585,1,0,0,1.5685,optionRight,80,16365,7,33,0,33,0,1,,,,,,,,,,,,,,,,,,,,,,,,,,,,,,,,,,,,,,,
,,,,,,,,2023-08-16_08h59.47.403,HF_wild_card,2022.2.4,MacIntel,2.864131338,64403305213136974ed0f67a,64d2fd46c836a06233681665,64dc7eae96ba187eefe1fce0,,,,,,,ctch,resources/DBN.BMP,resources/DR.BMP,Door4,0.399626541,0.032462692,1,0,0,0.9959,optionRight,80,16445,7,34,0,34,0,1,,,,,,,,,,,,,,,,,,,,,,,,,,,,,,,,,,,,,,,
,,,,,,,,2023-08-16_08h59.47.403,HF_wild_card,2022.2.4,MacIntel,2.864131338,64403305213136974ed0f67a,64d2fd46c836a06233681665,64dc7eae96ba187eefe1fce0,,,,,,,decisionTrl,resources/DBN.BMP,resources/DB.BMP,Door1,-0.410909004,0.033662834,1,0,0,1.3783,optionLeft,30,16475,7,35,0,35,0,1,,,,,,,,,,,,,,,,,,,,,,,,,,,,,,,,,,,,,,,
,,,,,,,,2023-08-16_08h59.47.403,HF_wild_card,2022.2.4,MacIntel,2.864131338,64403305213136974ed0f67a,64d2fd46c836a06233681665,64dc7eae96ba187eefe1fce0,,,,,,,,,,,,,,,,,,,,,,,,,,6,0,6,0,1,,,,,,,,,,,,,,,,,,,,,,,,,,,,,,,,,,
,,,,,,,,2023-08-16_08h59.47.403,HF_wild_card,2022.2.4,MacIntel,2.864131338,64403305213136974ed0f67a,64d2fd46c836a06233681665,64dc7eae96ba187eefe1fce0,,,,,,,,,,,,,,,,,,,,,,,,,,,,,,,4,,,,,,,,,,,,,,,,,,,,,,,,,,,,,,,,,
,,,,,,,,2023-08-16_08h59.47.403,HF_wild_card,2022.2.4,MacIntel,2.864131338,64403305213136974ed0f67a,64d2fd46c836a06233681665,64dc7eae96ba187eefe1fce0,,,,,,,,,,,,,,,,,,,,,,,,,,,,,,,,,,,,,,,,,,,,,,,,,,,,,,,,,,,,,,,,
,,,,,,,,2023-08-16_08h59.47.403,HF_wild_card,2022.2.4,MacIntel,2.864131338,64403305213136974ed0f67a,64d2fd46c836a06233681665,64dc7eae96ba187eefe1fce0,,,,,,,,,,,,,,,,,,,,,,,,,,,,,,,,20,Door2,resources/DB.BMP,0,0,0,0,1,,,,,,,,,,,,,,,,,,,,,,,,,
,,,,,,,,2023-08-16_08h59.47.403,HF_wild_card,2022.2.4,MacIntel,2.864131338,64403305213136974ed0f67a,64d2fd46c836a06233681665,64dc7eae96ba187eefe1fce0,,,,,,,,,,,,,,,,,,,,,,,,,,,,,,,,70,Door3,resources/DY.BMP,1,0,1,0,1,,,,,,,,,,,,,,,,,,,,,,,,,
,,,,,,,,2023-08-16_08h59.47.403,HF_wild_card,2022.2.4,MacIntel,2.864131338,64403305213136974ed0f67a,64d2fd46c836a06233681665,64dc7eae96ba187eefe1fce0,,,,,,,,,,,,,,,,,,,,,,,,,,,,,,,,80,Door4,resources/DR.BMP,2,0,2,0,1,,,,,,,,,,,,,,,,,,,,,,,,,
