Condition,Low fixed image (Door1),Low risky image (Door2),High fixed image (Door3),High risky image (Door4),Extreme Wild Card,NonExtreme Wild Card,,date,expName,psychopyVersion,OS,frameRate,PROLIFIC_PID,STUDY_ID,SESSION_ID,mouse_2.x,mouse_2.y,mouse_2.leftButton,mouse_2.midButton,mouse_2.rightButton,mouse_2.clicked_name,Trial Type,Left Option Image,Right Option Image,Chosen Door,mouse.x,mouse.y,mouse.leftButton,mouse.midButton,mouse.rightButton,mouse.time,mouse.clicked_name,Feedback,Cumulative Reward,Block,trial.thisRepN,trial.thisTrialN,trial.thisN,trial.thisIndex,trial.ran,blocks.thisRepN,blocks.thisTrialN,blocks.thisN,blocks.thisIndex,blocks.ran,Money conversion,First Outcome Reported,Shown Door (First Outcome),Displayed Image (First Outcome),outcomes.thisRepN,outcomes.thisTrialN,outcomes.thisN,outcomes.thisIndex,outcomes.ran,judgments.thisRepN,judgments.thisTrialN,judgments.thisN,judgments.thisIndex,judgments.ran,freqMouse.x,freqMouse.y,freqMouse.leftButton,freqMouse.midButton,freqMouse.rightButton,freqMouse.clicked_name,FQJ for first outcome,FQJ for second outcome,Shown Door,Displayed Image,trials.thisRepN,trials.thisTrialN,trials.thisN,trials.thisIndex,trials.ran,judgBlock.thisRepN,judgBlock.thisTrialN,judgBlock.thisN,judgBlock.thisIndex,judgBlock.ran
0,resources/DG.BMP,resources/DP.BMP,resources/DR.BMP,resources/DY.BMP,resources/DB.BMP,resources/DBN.BMP,,2023-08-16_08h38.45.480,HF_wild_card,2022.2.4,Win32,60.02040694,602e88f43a3b7aa44bf522e6,64d2fd46c836a06233681665,64dc7ccdad403bec63a1d418,,,,,,,,,,,,,,,,,,,,,,,,,,,,,,,,,,,,,,,,,,,,,,,,,,,,,,,,,,,,,,,,
,,,,,,,,2023-08-16_08h38.45.480,HF_wild_card,2022.2.4,Win32,60.02040694,602e88f43a3b7aa44bf522e6,64d2fd46c836a06233681665,64dc7ccdad403bec63a1d418,0.006510417,-0.42578125,1,0,0,agree,,,,,,,,,,,,,,,,,,,,,,,,,,,,,,,,,,,,,,,,,,,,,,,,,,,,,,,,,,
,,,,,,,,2023-08-16_08h38.45.480,HF_wild_card,2022.2.4,Win32,60.02040694,602e88f43a3b7aa44bf522e6,64d2fd46c836a06233681665,64dc7ccdad403bec63a1d418,,,,,,,,,,,,,,,,,,,,,,,,,,,,,,,,,,,,,,,,,,,,,,,,,,,,,,,,,,,,,,,,
,,,,,,,,2023-08-16_08h38.45.480,HF_wild_card,2022.2.4,Win32,60.02040694,602e88f43a3b7aa44bf522e6,64d2fd46c836a06233681665,64dc7ccdad403bec63a1d418,,,,,,,decisionTrl,resources/DG.BMP,resources/DP.BMP,Door1,-0.368489583,-0.09375,1,0,0,7.4602,optionLeft,30,30,1,0,0,0,0,1,,,,,,,,,,,,,,,,,,,,,,,,,,,,,,,,,,,,,,,
,,,,,,,,2023-08-16_08h38.45.480,HF_wild_card,2022.2.4,Win32,60.02040694,602e88f43a3b7aa44bf522e6,64d2fd46c836a06233681665,64dc7ccdad403bec63a1d418,,,,,,,sngl,resources/DG.BMP,resources/Empty.png,Door1,-0.322916667,-0.091145833,1,0,0,3.7009,optionLeft,30,60,1,1,0,1,0,1,,,,,,,,,,,,,,,,,,,,,,,,,,,,,,,,,,,,,,,
,,,,,,,,2023-08-16_08h38.45.480,HF_wild_card,2022.2.4,Win32,60.02040694,602e88f43a3b7aa44bf522e6,64d2fd46c836a06233681665,64dc7ccdad403bec63a1d418,,,,,,,decisionTrl,resources/DG.BMP,resources/DP.BMP,Door2,0.375,-0.067708333,1,0,0,3.1527,optionRight,20,80,1,2,0,2,0,1,,,,,,,,,,,,,,,,,,,,,,,,,,,,,,,,,,,,,,,
,,,,,,,,2023-08-16_08h38.45.480,HF_wild_card,2022.2.4,Win32,60.02040694,602e88f43a3b7aa44bf522e6,64d2fd46c836a06233681665,64dc7ccdad403bec63a1d418,,,,,,,decisionTrl,resources/DG.BMP,resources/DP.BMP,Door1,-0.333333333,-0.032552083,1,0,0,2.7988,optionLeft,30,110,1,3,0,3,0,1,,,,,,,,,,,,,,,,,,,,,,,,,,,,,,,,,,,,,,,
,,,,,,,,2023-08-16_08h38.45.480,HF_wild_card,2022.2.4,Win32,60.02040694,602e88f43a3b7aa44bf522e6,64d2fd46c836a06233681665,64dc7ccdad403bec63a1d418,,,,,,,ctch,resources/DG.BMP,resources/DY.BMP,Door1,-0.32421875,0.02734375,1,0,0,2.3561,optionLeft,30,140,1,4,0,4,0,1,,,,,,,,,,,,,,,,,,,,,,,,,,,,,,,,,,,,,,,
,,,,,,,,2023-08-16_08h38.45.480,HF_wild_card,2022.2.4,Win32,60.02040694,602e88f43a3b7aa44bf522e6,64d2fd46c836a06233681665,64dc7ccdad403bec63a1d418,,,,,,,decisionTrl,resources/DP.BMP,resources/DG.BMP,Door2,-0.328125,-0.028645833,1,0,0,3.1594,optionLeft,20,160,1,5,0,5,0,1,,,,,,,,,,,,,,,,,,,,,,,,,,,,,,,,,,,,,,,
,,,,,,,,2023-08-16_08h38.45.480,HF_wild_card,2022.2.4,Win32,60.02040694,602e88f43a3b7aa44bf522e6,64d2fd46c836a06233681665,64dc7ccdad403bec63a1d418,,,,,,,sngl,resources/Empty.png,resources/DY.BMP,Door4,0.4140625,0.002604167,1,0,0,2.8459,optionRight,60,220,1,6,0,6,0,1,,,,,,,,,,,,,,,,,,,,,,,,,,,,,,,,,,,,,,,
,,,,,,,,2023-08-16_08h38.45.480,HF_wild_card,2022.2.4,Win32,60.02040694,602e88f43a3b7aa44bf522e6,64d2fd46c836a06233681665,64dc7ccdad403bec63a1d418,,,,,,,sngl,resources/Empty.png,resources/DR.BMP,Door3,0.384114583,-0.010416667,1,0,0,2.0508,optionRight,70,290,1,7,0,7,0,1,,,,,,,,,,,,,,,,,,,,,,,,,,,,,,,,,,,,,,,
,,,,,,,,2023-08-16_08h38.45.480,HF_wild_card,2022.2.4,Win32,60.02040694,602e88f43a3b7aa44bf522e6,64d2fd46c836a06233681665,64dc7ccdad403bec63a1d418,,,,,,,sngl,resources/DR.BMP,resources/Empty.png,Door3,-0.377604167,0.009114583,1,0,0,2.8276,optionLeft,70,360,1,8,0,8,0,1,,,,,,,,,,,,,,,,,,,,,,,,,,,,,,,,,,,,,,,
,,,,,,,,2023-08-16_08h38.45.480,HF_wild_card,2022.2.4,Win32,60.02040694,602e88f43a3b7aa44bf522e6,64d2fd46c836a06233681665,64dc7ccdad403bec63a1d418,,,,,,,sngl,resources/Empty.png,resources/DP.BMP,Door2,0.391927083,0.010416667,1,0,0,2.8995,optionRight,20,380,1,9,0,9,0,1,,,,,,,,,,,,,,,,,,,,,,,,,,,,,,,,,,,,,,,
,,,,,,,,2023-08-16_08h38.45.480,HF_wild_card,2022.2.4,Win32,60.02040694,602e88f43a3b7aa44bf522e6,64d2fd46c836a06233681665,64dc7ccdad403bec63a1d418,,,,,,,ctch,resources/DY.BMP,resources/DG.BMP,Door4,-0.364583333,0,1,0,0,2.291,optionLeft,80,460,1,10,0,10,0,1,,,,,,,,,,,,,,,,,,,,,,,,,,,,,,,,,,,,,,,
,,,,,,,,2023-08-16_08h38.45.480,HF_wild_card,2022.2.4,Win32,60.02040694,602e88f43a3b7aa44bf522e6,64d2fd46c836a06233681665,64dc7ccdad403bec63a1d418,,,,,,,decisionTrl,resources/DR.BMP,resources/DY.BMP,Door4,0.328125,-0.044270833,1,0,0,2.7803,optionRight,80,540,1,11,0,11,0,1,,,,,,,,,,,,,,,,,,,,,,,,,,,,,,,,,,,,,,,
,,,,,,,,2023-08-16_08h38.45.480,HF_wild_card,2022.2.4,Win32,60.02040694,602e88f43a3b7aa44bf522e6,64d2fd46c836a06233681665,64dc7ccdad403bec63a1d418,,,,,,,sngl,resources/DB.BMP,resources/Empty.png,WildCard_Ex,-0.380208333,-0.024739583,1,0,0,3.0345,optionLeft,5,545,1,12,0,12,0,1,,,,,,,,,,,,,,,,,,,,,,,,,,,,,,,,,,,,,,,
,,,,,,,,2023-08-16_08h38.45.480,HF_wild_card,2022.2.4,Win32,60.02040694,602e88f43a3b7aa44bf522e6,64d2fd46c836a06233681665,64dc7ccdad403bec63a1d418,,,,,,,decisionTrl,resources/DP.BMP,resources/DG.BMP,Door2,-0.37109375,-0.05859375,1,0,0,4.7514,optionLeft,40,585,1,13,0,13,0,1,,,,,,,,,,,,,,,,,,,,,,,,,,,,,,,,,,,,,,,
,,,,,,,,2023-08-16_08h38.45.480,HF_wild_card,2022.2.4,Win32,60.02040694,602e88f43a3b7aa44bf522e6,64d2fd46c836a06233681665,64dc7ccdad403bec63a1d418,,,,,,,decisionTrl,resources/DB.BMP,resources/DY.BMP,Door4,0.442708333,0,1,0,0,2.1391,optionRight,80,665,1,14,0,14,0,1,,,,,,,,,,,,,,,,,,,,,,,,,,,,,,,,,,,,,,,
,,,,,,,,2023-08-16_08h38.45.480,HF_wild_card,2022.2.4,Win32,60.02040694,602e88f43a3b7aa44bf522e6,64d2fd46c836a06233681665,64dc7ccdad403bec63a1d418,,,,,,,ctch,resources/DP.BMP,resources/DR.BMP,Door2,-0.35546875,-0.10546875,1,0,0,3.7829,optionLeft,20,685,1,15,0,15,0,1,,,,,,,,,,,,,,,,,,,,,,,,,,,,,,,,,,,,,,,
,,,,,,,,2023-08-16_08h38.45.480,HF_wild_card,2022.2.4,Win32,60.02040694,602e88f43a3b7aa44bf522e6,64d2fd46c836a06233681665,64dc7ccdad403bec63a1d418,,,,,,,decisionTrl,resources/DY.BMP,resources/DB.BMP,Door4,-0.364583333,-0.015625,1,0,0,2.1528,optionLeft,60,745,1,16,0,16,0,1,,,,,,,,,,,,,,,,,,,,,,,,,,,,,,,,,,,,,,,
,,,,,,,,2023-08-16_08h38.45.480,HF_wild_card,2022.2.4,Win32,60.02040694,602e88f43a3b7aa44bf522e6,64d2fd46c836a06233681665,64dc7ccdad403bec63a1d418,,,,,,,sngl,resources/DB.BMP,resources/Empty.png,WildCard_Ex,-0.365885417,-0.022135417,1,0,0,2.0002,optionLeft,95,840,1,17,0,17,0,1,,,,,,,,,,,,,,,,,,,,,,,,,,,,,,,,,,,,,,,
,,,,,,,,2023-08-16_08h38.45.480,HF_wild_card,2022.2.4,Win32,60.02040694,602e88f43a3b7aa44bf522e6,64d2fd46c836a06233681665,64dc7ccdad403bec63a1d418,,,,,,,decisionTrl,resources/DB.BMP,resources/DP.BMP,Door2,0.408854167,-0.028645833,1,0,0,2.3019,optionRight,20,860,1,18,0,18,0,1,,,,,,,,,,,,,,,,,,,,,,,,,,,,,,,,,,,,,,,
,,,,,,,,2023-08-16_08h38.45.480,HF_wild_card,2022.2.4,Win32,60.02040694,602e88f43a3b7aa44bf522e6,64d2fd46c836a06233681665,64dc7ccdad403bec63a1d418,,,,,,,sngl,resources/Empty.png,resources/DB.BMP,WildCard_Ex,0.389322917,0.032552083,1,0,0,2.1044,optionRight,95,955,1,19,0,19,0,1,,,,,,,,,,,,,,,,,,,,,,,,,,,,,,,,,,,,,,,
,,,,,,,,2023-08-16_08h38.45.480,HF_wild_card,2022.2.4,Win32,60.02040694,602e88f43a3b7aa44bf522e6,64d2fd46c836a06233681665,64dc7ccdad403bec63a1d418,,,,,,,decisionTrl,resources/DP.BMP,resources/DG.BMP,Door2,-0.361979167,-0.001302083,1,0,0,2.8916,optionLeft,20,975,1,20,0,20,0,1,,,,,,,,,,,,,,,,,,,,,,,,,,,,,,,,,,,,,,,
,,,,,,,,2023-08-16_08h38.45.480,HF_wild_card,2022.2.4,Win32,60.02040694,602e88f43a3b7aa44bf522e6,64d2fd46c836a06233681665,64dc7ccdad403bec63a1d418,,,,,,,ctch,resources/DR.BMP,resources/DP.BMP,Door3,-0.352864583,0.010416667,1,0,0,2.5455,optionLeft,70,1045,1,21,0,21,0,1,,,,,,,,,,,,,,,,,,,,,,,,,,,,,,,,,,,,,,,
,,,,,,,,2023-08-16_08h38.45.480,HF_wild_card,2022.2.4,Win32,60.02040694,602e88f43a3b7aa44bf522e6,64d2fd46c836a06233681665,64dc7ccdad403bec63a1d418,,,,,,,ctch,resources/DY.BMP,resources/DG.BMP,Door4,-0.365885417,0.00390625,1,0,0,1.8283,optionLeft,60,1105,1,22,0,22,0,1,,,,,,,,,,,,,,,,,,,,,,,,,,,,,,,,,,,,,,,
,,,,,,,,2023-08-16_08h38.45.480,HF_wild_card,2022.2.4,Win32,60.02040694,602e88f43a3b7aa44bf522e6,64d2fd46c836a06233681665,64dc7ccdad403bec63a1d418,,,,,,,decisionTrl,resources/DR.BMP,resources/DB.BMP,Door3,-0.356770833,0.0078125,1,0,0,1.844,optionLeft,70,1175,1,23,0,23,0,1,,,,,,,,,,,,,,,,,,,,,,,,,,,,,,,,,,,,,,,
,,,,,,,,2023-08-16_08h38.45.480,HF_wild_card,2022.2.4,Win32,60.02040694,602e88f43a3b7aa44bf522e6,64d2fd46c836a06233681665,64dc7ccdad403bec63a1d418,,,,,,,sngl,resources/Empty.png,resources/DB.BMP,WildCard_Ex,0.352864583,-0.03125,1,0,0,1.7546,optionRight,5,1180,1,24,0,24,0,1,,,,,,,,,,,,,,,,,,,,,,,,,,,,,,,,,,,,,,,
,,,,,,,,2023-08-16_08h38.45.480,HF_wild_card,2022.2.4,Win32,60.02040694,602e88f43a3b7aa44bf522e6,64d2fd46c836a06233681665,64dc7ccdad403bec63a1d418,,,,,,,decisionTrl,resources/DY.BMP,resources/DR.BMP,Door4,-0.328125,-0.01171875,1,0,0,2.311,optionLeft,60,1240,1,25,0,25,0,1,,,,,,,,,,,,,,,,,,,,,,,,,,,,,,,,,,,,,,,
,,,,,,,,2023-08-16_08h38.45.480,HF_wild_card,2022.2.4,Win32,60.02040694,602e88f43a3b7aa44bf522e6,64d2fd46c836a06233681665,64dc7ccdad403bec63a1d418,,,,,,,decisionTrl,resources/DP.BMP,resources/DB.BMP,Door2,-0.352864583,-0.0546875,1,0,0,2.2127,optionLeft,20,1260,1,26,0,26,0,1,,,,,,,,,,,,,,,,,,,,,,,,,,,,,,,,,,,,,,,
,,,,,,,,2023-08-16_08h38.45.480,HF_wild_card,2022.2.4,Win32,60.02040694,602e88f43a3b7aa44bf522e6,64d2fd46c836a06233681665,64dc7ccdad403bec63a1d418,,,,,,,decisionTrl,resources/DY.BMP,resources/DR.BMP,Door4,-0.388020833,-0.088541667,1,0,0,1.9543,optionLeft,60,1320,1,27,0,27,0,1,,,,,,,,,,,,,,,,,,,,,,,,,,,,,,,,,,,,,,,
,,,,,,,,2023-08-16_08h38.45.480,HF_wild_card,2022.2.4,Win32,60.02040694,602e88f43a3b7aa44bf522e6,64d2fd46c836a06233681665,64dc7ccdad403bec63a1d418,,,,,,,decisionTrl,resources/DR.BMP,resources/DY.BMP,Door4,0.397135417,-0.028645833,1,0,0,2.1315,optionRight,80,1400,1,28,0,28,0,1,,,,,,,,,,,,,,,,,,,,,,,,,,,,,,,,,,,,,,,
,,,,,,,,2023-08-16_08h38.45.480,HF_wild_card,2022.2.4,Win32,60.02040694,602e88f43a3b7aa44bf522e6,64d2fd46c836a06233681665,64dc7ccdad403bec63a1d418,,,,,,,ctch,resources/DP.BMP,resources/DR.BMP,Door2,-0.369791667,-0.084635417,1,0,0,2.3105,optionLeft,20,1420,1,29,0,29,0,1,,,,,,,,,,,,,,,,,,,,,,,,,,,,,,,,,,,,,,,
,,,,,,,,2023-08-16_08h38.45.480,HF_wild_card,2022.2.4,Win32,60.02040694,602e88f43a3b7aa44bf522e6,64d2fd46c836a06233681665,64dc7ccdad403bec63a1d418,,,,,,,decisionTrl,resources/DB.BMP,resources/DG.BMP,Door1,0.352864583,-0.067708333,1,0,0,1.4089,optionRight,30,1450,1,30,0,30,0,1,,,,,,,,,,,,,,,,,,,,,,,,,,,,,,,,,,,,,,,
,,,,,,,,2023-08-16_08h38.45.480,HF_wild_card,2022.2.4,Win32,60.02040694,602e88f43a3b7aa44bf522e6,64d2fd46c836a06233681665,64dc7ccdad403bec63a1d418,,,,,,,decisionTrl,resources/DY.BMP,resources/DR.BMP,Door4,-0.376302083,-0.016927083,1,0,0,1.9274,optionLeft,80,1530,1,31,0,31,0,1,,,,,,,,,,,,,,,,,,,,,,,,,,,,,,,,,,,,,,,
,,,,,,,,2023-08-16_08h38.45.480,HF_wild_card,2022.2.4,Win32,60.02040694,602e88f43a3b7aa44bf522e6,64d2fd46c836a06233681665,64dc7ccdad403bec63a1d418,,,,,,,decisionTrl,resources/DR.BMP,resources/DY.BMP,Door3,-0.389322917,-0.055989583,1,0,0,3.4708,optionLeft,70,1600,1,32,0,32,0,1,,,,,,,,,,,,,,,,,,,,,,,,,,,,,,,,,,,,,,,
,,,,,,,,2023-08-16_08h38.45.480,HF_wild_card,2022.2.4,Win32,60.02040694,602e88f43a3b7aa44bf522e6,64d2fd46c836a06233681665,64dc7ccdad403bec63a1d418,,,,,,,sngl,resources/DP.BMP,resources/Empty.png,Door2,-0.376302083,-0.022135417,1,0,0,3.912,optionLeft,40,1640,1,33,0,33,0,1,,,,,,,,,,,,,,,,,,,,,,,,,,,,,,,,,,,,,,,
,,,,,,,,2023-08-16_08h38.45.480,HF_wild_card,2022.2.4,Win32,60.02040694,602e88f43a3b7aa44bf522e6,64d2fd46c836a06233681665,64dc7ccdad403bec63a1d418,,,,,,,decisionTrl,resources/DP.BMP,resources/DG.BMP,Door2,-0.352864583,-0.032552083,1,0,0,3.0413,optionLeft,40,1680,1,34,0,34,0,1,,,,,,,,,,,,,,,,,,,,,,,,,,,,,,,,,,,,,,,
,,,,,,,,2023-08-16_08h38.45.480,HF_wild_card,2022.2.4,Win32,60.02040694,602e88f43a3b7aa44bf522e6,64d2fd46c836a06233681665,64dc7ccdad403bec63a1d418,,,,,,,ctch,resources/DR.BMP,resources/DP.BMP,Door3,-0.388020833,-0.048177083,1,0,0,2.0599,optionLeft,70,1750,1,35,0,35,0,1,,,,,,,,,,,,,,,,,,,,,,,,,,,,,,,,,,,,,,,
,,,,,,,,2023-08-16_08h38.45.480,HF_wild_card,2022.2.4,Win32,60.02040694,602e88f43a3b7aa44bf522e6,64d2fd46c836a06233681665,64dc7ccdad403bec63a1d418,,,,,,,decisionTrl,resources/DY.BMP,resources/DR.BMP,Door3,0.395833333,-0.071614583,1,0,0,2.2645,optionRight,70,1820,1,36,0,36,0,1,,,,,,,,,,,,,,,,,,,,,,,,,,,,,,,,,,,,,,,
,,,,,,,,2023-08-16_08h38.45.480,HF_wild_card,2022.2.4,Win32,60.02040694,602e88f43a3b7aa44bf522e6,64d2fd46c836a06233681665,64dc7ccdad403bec63a1d418,,,,,,,decisionTrl,resources/DB.BMP,resources/DR.BMP,Door3,0.333333333,-0.07421875,1,0,0,2.078,optionRight,70,1890,1,37,0,37,0,1,,,,,,,,,,,,,,,,,,,,,,,,,,,,,,,,,,,,,,,
,,,,,,,,2023-08-16_08h38.45.480,HF_wild_card,2022.2.4,Win32,60.02040694,602e88f43a3b7aa44bf522e6,64d2fd46c836a06233681665,64dc7ccdad403bec63a1d418,,,,,,,decisionTrl,resources/DG.BMP,resources/DP.BMP,Door1,-0.334635417,-0.006510417,1,0,0,2.7586,optionLeft,30,1920,1,38,0,38,0,1,,,,,,,,,,,,,,,,,,,,,,,,,,,,,,,,,,,,,,,
,,,,,,,,2023-08-16_08h38.45.480,HF_wild_card,2022.2.4,Win32,60.02040694,602e88f43a3b7aa44bf522e6,64d2fd46c836a06233681665,64dc7ccdad403bec63a1d418,,,,,,,ctch,resources/DG.BMP,resources/DY.BMP,Door4,0.381510417,-0.002604167,1,0,0,1.2162,optionRight,80,2000,1,39,0,39,0,1,,,,,,,,,,,,,,,,,,,,,,,,,,,,,,,,,,,,,,,
,,,,,,,,2023-08-16_08h38.45.480,HF_wild_card,2022.2.4,Win32,60.02040694,602e88f43a3b7aa44bf522e6,64d2fd46c836a06233681665,64dc7ccdad403bec63a1d418,,,,,,,sngl,resources/DY.BMP,resources/Empty.png,Door4,-0.35546875,-0.024739583,1,0,0,1.2251,optionLeft,80,2080,1,40,0,40,0,1,,,,,,,,,,,,,,,,,,,,,,,,,,,,,,,,,,,,,,,
,,,,,,,,2023-08-16_08h38.45.480,HF_wild_card,2022.2.4,Win32,60.02040694,602e88f43a3b7aa44bf522e6,64d2fd46c836a06233681665,64dc7ccdad403bec63a1d418,,,,,,,sngl,resources/Empty.png,resources/DG.BMP,Door1,0.462239583,0.01171875,1,0,0,2.5597,optionRight,30,2110,1,41,0,41,0,1,,,,,,,,,,,,,,,,,,,,,,,,,,,,,,,,,,,,,,,
,,,,,,,,2023-08-16_08h38.45.480,HF_wild_card,2022.2.4,Win32,60.02040694,602e88f43a3b7aa44bf522e6,64d2fd46c836a06233681665,64dc7ccdad403bec63a1d418,,,,,,,decisionTrl,resources/DG.BMP,resources/DB.BMP,Door1,-0.30078125,0.006510417,1,0,0,2.2595,optionLeft,30,2140,1,42,0,42,0,1,,,,,,,,,,,,,,,,,,,,,,,,,,,,,,,,,,,,,,,
,,,,,,,,2023-08-16_08h38.45.480,HF_wild_card,2022.2.4,Win32,60.02040694,602e88f43a3b7aa44bf522e6,64d2fd46c836a06233681665,64dc7ccdad403bec63a1d418,,,,,,,decisionTrl,resources/DR.BMP,resources/DY.BMP,Door4,0.372395833,-0.063802083,1,0,0,1.6635,optionRight,80,2220,1,43,0,43,0,1,,,,,,,,,,,,,,,,,,,,,,,,,,,,,,,,,,,,,,,
,,,,,,,,2023-08-16_08h38.45.480,HF_wild_card,2022.2.4,Win32,60.02040694,602e88f43a3b7aa44bf522e6,64d2fd46c836a06233681665,64dc7ccdad403bec63a1d418,,,,,,,,,,,,,,,,,,,,,,,,,,0,0,0,0,1,,,,,,,,,,,,,,,,,,,,,,,,,,,,,,,,,,
,,,,,,,,2023-08-16_08h38.45.480,HF_wild_card,2022.2.4,Win32,60.02040694,602e88f43a3b7aa44bf522e6,64d2fd46c836a06233681665,64dc7ccdad403bec63a1d418,,,,,,,decisionTrl,resources/DY.BMP,resources/DR.BMP,Door4,-0.451822917,-0.118489583,1,0,0,3.7093,optionLeft,60,2280,2,0,0,0,0,1,,,,,,,,,,,,,,,,,,,,,,,,,,,,,,,,,,,,,,,
,,,,,,,,2023-08-16_08h38.45.480,HF_wild_card,2022.2.4,Win32,60.02040694,602e88f43a3b7aa44bf522e6,64d2fd46c836a06233681665,64dc7ccdad403bec63a1d418,,,,,,,decisionTrl,resources/DG.BMP,resources/DP.BMP,Door1,-0.26171875,-0.1328125,1,0,0,2.4663,optionLeft,30,2310,2,1,0,1,0,1,,,,,,,,,,,,,,,,,,,,,,,,,,,,,,,,,,,,,,,
,,,,,,,,2023-08-16_08h38.45.480,HF_wild_card,2022.2.4,Win32,60.02040694,602e88f43a3b7aa44bf522e6,64d2fd46c836a06233681665,64dc7ccdad403bec63a1d418,,,,,,,decisionTrl,resources/DR.BMP,resources/DY.BMP,Door3,-0.34765625,-0.102864583,1,0,0,1.8354,optionLeft,70,2380,2,2,0,2,0,1,,,,,,,,,,,,,,,,,,,,,,,,,,,,,,,,,,,,,,,
,,,,,,,,2023-08-16_08h38.45.480,HF_wild_card,2022.2.4,Win32,60.02040694,602e88f43a3b7aa44bf522e6,64d2fd46c836a06233681665,64dc7ccdad403bec63a1d418,,,,,,,sngl,resources/DR.BMP,resources/Empty.png,Door3,-0.372395833,0.045572917,1,0,0,1.552,optionLeft,70,2450,2,3,0,3,0,1,,,,,,,,,,,,,,,,,,,,,,,,,,,,,,,,,,,,,,,
,,,,,,,,2023-08-16_08h38.45.480,HF_wild_card,2022.2.4,Win32,60.02040694,602e88f43a3b7aa44bf522e6,64d2fd46c836a06233681665,64dc7ccdad403bec63a1d418,,,,,,,decisionTrl,resources/DY.BMP,resources/DR.BMP,Door4,-0.350260417,-0.032552083,1,0,0,2.1329,optionLeft,80,2530,2,4,0,4,0,1,,,,,,,,,,,,,,,,,,,,,,,,,,,,,,,,,,,,,,,
,,,,,,,,2023-08-16_08h38.45.480,HF_wild_card,2022.2.4,Win32,60.02040694,602e88f43a3b7aa44bf522e6,64d2fd46c836a06233681665,64dc7ccdad403bec63a1d418,,,,,,,ctch,resources/DY.BMP,resources/DG.BMP,Door4,-0.34765625,-0.022135417,1,0,0,1.3974,optionLeft,80,2610,2,5,0,5,0,1,,,,,,,,,,,,,,,,,,,,,,,,,,,,,,,,,,,,,,,
,,,,,,,,2023-08-16_08h38.45.480,HF_wild_card,2022.2.4,Win32,60.02040694,602e88f43a3b7aa44bf522e6,64d2fd46c836a06233681665,64dc7ccdad403bec63a1d418,,,,,,,decisionTrl,resources/DB.BMP,resources/DG.BMP,Door1,0.322916667,-0.036458333,1,0,0,1.6876,optionRight,30,2640,2,6,0,6,0,1,,,,,,,,,,,,,,,,,,,,,,,,,,,,,,,,,,,,,,,
,,,,,,,,2023-08-16_08h38.45.480,HF_wild_card,2022.2.4,Win32,60.02040694,602e88f43a3b7aa44bf522e6,64d2fd46c836a06233681665,64dc7ccdad403bec63a1d418,,,,,,,decisionTrl,resources/DP.BMP,resources/DG.BMP,Door2,-0.342447917,-0.022135417,1,0,0,2.1273,optionLeft,40,2680,2,7,0,7,0,1,,,,,,,,,,,,,,,,,,,,,,,,,,,,,,,,,,,,,,,
,,,,,,,,2023-08-16_08h38.45.480,HF_wild_card,2022.2.4,Win32,60.02040694,602e88f43a3b7aa44bf522e6,64d2fd46c836a06233681665,64dc7ccdad403bec63a1d418,,,,,,,decisionTrl,resources/DR.BMP,resources/DY.BMP,Door4,0.34765625,-0.059895833,1,0,0,1.288,optionRight,60,2740,2,8,0,8,0,1,,,,,,,,,,,,,,,,,,,,,,,,,,,,,,,,,,,,,,,
,,,,,,,,2023-08-16_08h38.45.480,HF_wild_card,2022.2.4,Win32,60.02040694,602e88f43a3b7aa44bf522e6,64d2fd46c836a06233681665,64dc7ccdad403bec63a1d418,,,,,,,decisionTrl,resources/DG.BMP,resources/DP.BMP,Door2,0.359375,-0.020833333,1,0,0,2.0723,optionRight,20,2760,2,9,0,9,0,1,,,,,,,,,,,,,,,,,,,,,,,,,,,,,,,,,,,,,,,
,,,,,,,,2023-08-16_08h38.45.480,HF_wild_card,2022.2.4,Win32,60.02040694,602e88f43a3b7aa44bf522e6,64d2fd46c836a06233681665,64dc7ccdad403bec63a1d418,,,,,,,sngl,resources/DY.BMP,resources/Empty.png,Door4,-0.3515625,-0.0859375,1,0,0,1.1805,optionLeft,60,2820,2,10,0,10,0,1,,,,,,,,,,,,,,,,,,,,,,,,,,,,,,,,,,,,,,,
,,,,,,,,2023-08-16_08h38.45.480,HF_wild_card,2022.2.4,Win32,60.02040694,602e88f43a3b7aa44bf522e6,64d2fd46c836a06233681665,64dc7ccdad403bec63a1d418,,,,,,,decisionTrl,resources/DG.BMP,resources/DB.BMP,Door1,-0.315104167,-0.041666667,1,0,0,1.9877,optionLeft,30,2850,2,11,0,11,0,1,,,,,,,,,,,,,,,,,,,,,,,,,,,,,,,,,,,,,,,
,,,,,,,,2023-08-16_08h38.45.480,HF_wild_card,2022.2.4,Win32,60.02040694,602e88f43a3b7aa44bf522e6,64d2fd46c836a06233681665,64dc7ccdad403bec63a1d418,,,,,,,sngl,resources/DB.BMP,resources/Empty.png,WildCard_Ex,-0.26953125,-0.057291667,1,0,0,1.803,optionLeft,5,2855,2,12,0,12,0,1,,,,,,,,,,,,,,,,,,,,,,,,,,,,,,,,,,,,,,,
,,,,,,,,2023-08-16_08h38.45.480,HF_wild_card,2022.2.4,Win32,60.02040694,602e88f43a3b7aa44bf522e6,64d2fd46c836a06233681665,64dc7ccdad403bec63a1d418,,,,,,,decisionTrl,resources/DR.BMP,resources/DY.BMP,Door4,0.333333333,-0.06640625,1,0,0,1.7705,optionRight,80,2935,2,13,0,13,0,1,,,,,,,,,,,,,,,,,,,,,,,,,,,,,,,,,,,,,,,
,,,,,,,,2023-08-16_08h38.45.480,HF_wild_card,2022.2.4,Win32,60.02040694,602e88f43a3b7aa44bf522e6,64d2fd46c836a06233681665,64dc7ccdad403bec63a1d418,,,,,,,decisionTrl,resources/DB.BMP,resources/DY.BMP,Door4,0.3671875,-0.087239583,1,0,0,1.6838,optionRight,60,2995,2,14,0,14,0,1,,,,,,,,,,,,,,,,,,,,,,,,,,,,,,,,,,,,,,,
,,,,,,,,2023-08-16_08h38.45.480,HF_wild_card,2022.2.4,Win32,60.02040694,602e88f43a3b7aa44bf522e6,64d2fd46c836a06233681665,64dc7ccdad403bec63a1d418,,,,,,,sngl,resources/DG.BMP,resources/Empty.png,Door1,0.18359375,-0.002604167,1,0,0,2.5298,optionLeft,30,3025,2,15,0,15,0,1,,,,,,,,,,,,,,,,,,,,,,,,,,,,,,,,,,,,,,,
,,,,,,,,2023-08-16_08h38.45.480,HF_wild_card,2022.2.4,Win32,60.02040694,602e88f43a3b7aa44bf522e6,64d2fd46c836a06233681665,64dc7ccdad403bec63a1d418,,,,,,,sngl,resources/Empty.png,resources/DY.BMP,Door4,0.341145833,-0.006510417,1,0,0,2.048,optionRight,80,3105,2,16,0,16,0,1,,,,,,,,,,,,,,,,,,,,,,,,,,,,,,,,,,,,,,,
,,,,,,,,2023-08-16_08h38.45.480,HF_wild_card,2022.2.4,Win32,60.02040694,602e88f43a3b7aa44bf522e6,64d2fd46c836a06233681665,64dc7ccdad403bec63a1d418,,,,,,,decisionTrl,resources/DR.BMP,resources/DB.BMP,Door3,-0.328125,-0.029947917,1,0,0,2.0108,optionLeft,70,3175,2,17,0,17,0,1,,,,,,,,,,,,,,,,,,,,,,,,,,,,,,,,,,,,,,,
,,,,,,,,2023-08-16_08h38.45.480,HF_wild_card,2022.2.4,Win32,60.02040694,602e88f43a3b7aa44bf522e6,64d2fd46c836a06233681665,64dc7ccdad403bec63a1d418,,,,,,,decisionTrl,resources/DP.BMP,resources/DG.BMP,Door2,-0.35546875,-0.048177083,1,0,0,2.5508,optionLeft,40,3215,2,18,0,18,0,1,,,,,,,,,,,,,,,,,,,,,,,,,,,,,,,,,,,,,,,
,,,,,,,,2023-08-16_08h38.45.480,HF_wild_card,2022.2.4,Win32,60.02040694,602e88f43a3b7aa44bf522e6,64d2fd46c836a06233681665,64dc7ccdad403bec63a1d418,,,,,,,ctch,resources/DG.BMP,resources/DY.BMP,Door4,0.430989583,-0.024739583,1,0,0,1.9189,optionRight,60,3275,2,19,0,19,0,1,,,,,,,,,,,,,,,,,,,,,,,,,,,,,,,,,,,,,,,
,,,,,,,,2023-08-16_08h38.45.480,HF_wild_card,2022.2.4,Win32,60.02040694,602e88f43a3b7aa44bf522e6,64d2fd46c836a06233681665,64dc7ccdad403bec63a1d418,,,,,,,sngl,resources/Empty.png,resources/DB.BMP,WildCard_Ex,0.345052083,0.006510417,1,0,0,2.5875,optionRight,5,3280,2,20,0,20,0,1,,,,,,,,,,,,,,,,,,,,,,,,,,,,,,,,,,,,,,,
,,,,,,,,2023-08-16_08h38.45.480,HF_wild_card,2022.2.4,Win32,60.02040694,602e88f43a3b7aa44bf522e6,64d2fd46c836a06233681665,64dc7ccdad403bec63a1d418,,,,,,,sngl,resources/Empty.png,resources/DP.BMP,Door2,0.412760417,-0.005208333,1,0,0,1.6981,optionRight,40,3320,2,21,0,21,0,1,,,,,,,,,,,,,,,,,,,,,,,,,,,,,,,,,,,,,,,
,,,,,,,,2023-08-16_08h38.45.480,HF_wild_card,2022.2.4,Win32,60.02040694,602e88f43a3b7aa44bf522e6,64d2fd46c836a06233681665,64dc7ccdad403bec63a1d418,,,,,,,ctch,resources/DG.BMP,resources/DY.BMP,Door4,0.321614583,-0.072916667,1,0,0,1.8997,optionRight,80,3400,2,22,0,22,0,1,,,,,,,,,,,,,,,,,,,,,,,,,,,,,,,,,,,,,,,
,,,,,,,,2023-08-16_08h38.45.480,HF_wild_card,2022.2.4,Win32,60.02040694,602e88f43a3b7aa44bf522e6,64d2fd46c836a06233681665,64dc7ccdad403bec63a1d418,,,,,,,ctch,resources/DY.BMP,resources/DG.BMP,Door4,-0.401041667,-0.048177083,1,0,0,1.9173,optionLeft,60,3460,2,23,0,23,0,1,,,,,,,,,,,,,,,,,,,,,,,,,,,,,,,,,,,,,,,
,,,,,,,,2023-08-16_08h38.45.480,HF_wild_card,2022.2.4,Win32,60.02040694,602e88f43a3b7aa44bf522e6,64d2fd46c836a06233681665,64dc7ccdad403bec63a1d418,,,,,,,ctch,resources/DP.BMP,resources/DR.BMP,Door2,-0.319010417,-0.05859375,1,0,0,1.2231,optionLeft,40,3500,2,24,0,24,0,1,,,,,,,,,,,,,,,,,,,,,,,,,,,,,,,,,,,,,,,
,,,,,,,,2023-08-16_08h38.45.480,HF_wild_card,2022.2.4,Win32,60.02040694,602e88f43a3b7aa44bf522e6,64d2fd46c836a06233681665,64dc7ccdad403bec63a1d418,,,,,,,decisionTrl,resources/DR.BMP,resources/DY.BMP,Door4,0.404947917,0.045572917,1,0,0,20.2085,optionRight,80,3580,2,25,0,25,0,1,,,,,,,,,,,,,,,,,,,,,,,,,,,,,,,,,,,,,,,
,,,,,,,,2023-08-16_08h38.45.480,HF_wild_card,2022.2.4,Win32,60.02040694,602e88f43a3b7aa44bf522e6,64d2fd46c836a06233681665,64dc7ccdad403bec63a1d418,,,,,,,ctch,resources/DR.BMP,resources/DP.BMP,Door2,0.37109375,-0.1015625,1,0,0,4.4755,optionRight,20,3600,2,26,0,26,0,1,,,,,,,,,,,,,,,,,,,,,,,,,,,,,,,,,,,,,,,
,,,,,,,,2023-08-16_08h38.45.480,HF_wild_card,2022.2.4,Win32,60.02040694,602e88f43a3b7aa44bf522e6,64d2fd46c836a06233681665,64dc7ccdad403bec63a1d418,,,,,,,sngl,resources/Empty.png,resources/DB.BMP,WildCard_Ex,0.266927083,-0.032552083,1,0,0,2.8148,optionRight,95,3695,2,27,0,27,0,1,,,,,,,,,,,,,,,,,,,,,,,,,,,,,,,,,,,,,,,
,,,,,,,,2023-08-16_08h38.45.480,HF_wild_card,2022.2.4,Win32,60.02040694,602e88f43a3b7aa44bf522e6,64d2fd46c836a06233681665,64dc7ccdad403bec63a1d418,,,,,,,decisionTrl,resources/DG.BMP,resources/DP.BMP,Door2,0.3125,-0.059895833,1,0,0,1.9619,optionRight,20,3715,2,28,0,28,0,1,,,,,,,,,,,,,,,,,,,,,,,,,,,,,,,,,,,,,,,
,,,,,,,,2023-08-16_08h38.45.480,HF_wild_card,2022.2.4,Win32,60.02040694,602e88f43a3b7aa44bf522e6,64d2fd46c836a06233681665,64dc7ccdad403bec63a1d418,,,,,,,sngl,resources/Empty.png,resources/DG.BMP,Door1,0.282552083,-0.036458333,1,0,0,2.4109,optionRight,30,3745,2,29,0,29,0,1,,,,,,,,,,,,,,,,,,,,,,,,,,,,,,,,,,,,,,,
,,,,,,,,2023-08-16_08h38.45.480,HF_wild_card,2022.2.4,Win32,60.02040694,602e88f43a3b7aa44bf522e6,64d2fd46c836a06233681665,64dc7ccdad403bec63a1d418,,,,,,,ctch,resources/DP.BMP,resources/DR.BMP,Door2,-0.365885417,-0.110677083,1,0,0,6.7837,optionLeft,40,3785,2,30,0,30,0,1,,,,,,,,,,,,,,,,,,,,,,,,,,,,,,,,,,,,,,,
,,,,,,,,2023-08-16_08h38.45.480,HF_wild_card,2022.2.4,Win32,60.02040694,602e88f43a3b7aa44bf522e6,64d2fd46c836a06233681665,64dc7ccdad403bec63a1d418,,,,,,,sngl,resources/DB.BMP,resources/Empty.png,WildCard_Ex,-0.282552083,-0.06640625,1,0,0,1.3501,optionLeft,95,3880,2,31,0,31,0,1,,,,,,,,,,,,,,,,,,,,,,,,,,,,,,,,,,,,,,,
,,,,,,,,2023-08-16_08h38.45.480,HF_wild_card,2022.2.4,Win32,60.02040694,602e88f43a3b7aa44bf522e6,64d2fd46c836a06233681665,64dc7ccdad403bec63a1d418,,,,,,,decisionTrl,resources/DY.BMP,resources/DR.BMP,Door4,-0.33203125,-0.015625,1,0,0,1.7815,optionLeft,80,3960,2,32,0,32,0,1,,,,,,,,,,,,,,,,,,,,,,,,,,,,,,,,,,,,,,,
,,,,,,,,2023-08-16_08h38.45.480,HF_wild_card,2022.2.4,Win32,60.02040694,602e88f43a3b7aa44bf522e6,64d2fd46c836a06233681665,64dc7ccdad403bec63a1d418,,,,,,,decisionTrl,resources/DY.BMP,resources/DB.BMP,Door4,-0.244791667,-0.1015625,1,0,0,83.6275,optionLeft,60,4020,2,33,0,33,0,1,,,,,,,,,,,,,,,,,,,,,,,,,,,,,,,,,,,,,,,
,,,,,,,,2023-08-16_08h38.45.480,HF_wild_card,2022.2.4,Win32,60.02040694,602e88f43a3b7aa44bf522e6,64d2fd46c836a06233681665,64dc7ccdad403bec63a1d418,,,,,,,decisionTrl,resources/DP.BMP,resources/DG.BMP,Door2,-0.32421875,-0.0625,1,0,0,2.3382,optionLeft,20,4040,2,34,0,34,0,1,,,,,,,,,,,,,,,,,,,,,,,,,,,,,,,,,,,,,,,
,,,,,,,,2023-08-16_08h38.45.480,HF_wild_card,2022.2.4,Win32,60.02040694,602e88f43a3b7aa44bf522e6,64d2fd46c836a06233681665,64dc7ccdad403bec63a1d418,,,,,,,decisionTrl,resources/DB.BMP,resources/DP.BMP,Door2,0.380208333,-0.104166667,1,0,0,1.6447,optionRight,20,4060,2,35,0,35,0,1,,,,,,,,,,,,,,,,,,,,,,,,,,,,,,,,,,,,,,,
,,,,,,,,2023-08-16_08h38.45.480,HF_wild_card,2022.2.4,Win32,60.02040694,602e88f43a3b7aa44bf522e6,64d2fd46c836a06233681665,64dc7ccdad403bec63a1d418,,,,,,,decisionTrl,resources/DB.BMP,resources/DR.BMP,Door3,0.319010417,-0.041666667,1,0,0,1.8596,optionRight,70,4130,2,36,0,36,0,1,,,,,,,,,,,,,,,,,,,,,,,,,,,,,,,,,,,,,,,
,,,,,,,,2023-08-16_08h38.45.480,HF_wild_card,2022.2.4,Win32,60.02040694,602e88f43a3b7aa44bf522e6,64d2fd46c836a06233681665,64dc7ccdad403bec63a1d418,,,,,,,decisionTrl,resources/DG.BMP,resources/DP.BMP,Door2,0.325520833,-0.102864583,1,0,0,2.3125,optionRight,20,4150,2,37,0,37,0,1,,,,,,,,,,,,,,,,,,,,,,,,,,,,,,,,,,,,,,,
,,,,,,,,2023-08-16_08h38.45.480,HF_wild_card,2022.2.4,Win32,60.02040694,602e88f43a3b7aa44bf522e6,64d2fd46c836a06233681665,64dc7ccdad403bec63a1d418,,,,,,,ctch,resources/DR.BMP,resources/DP.BMP,Door3,-0.388020833,-0.083333333,1,0,0,1.5205,optionLeft,70,4220,2,38,0,38,0,1,,,,,,,,,,,,,,,,,,,,,,,,,,,,,,,,,,,,,,,
,,,,,,,,2023-08-16_08h38.45.480,HF_wild_card,2022.2.4,Win32,60.02040694,602e88f43a3b7aa44bf522e6,64d2fd46c836a06233681665,64dc7ccdad403bec63a1d418,,,,,,,decisionTrl,resources/DY.BMP,resources/DR.BMP,Door4,-0.361979167,-0.0859375,1,0,0,1.3429,optionLeft,80,4300,2,39,0,39,0,1,,,,,,,,,,,,,,,,,,,,,,,,,,,,,,,,,,,,,,,
,,,,,,,,2023-08-16_08h38.45.480,HF_wild_card,2022.2.4,Win32,60.02040694,602e88f43a3b7aa44bf522e6,64d2fd46c836a06233681665,64dc7ccdad403bec63a1d418,,,,,,,sngl,resources/Empty.png,resources/DR.BMP,Door3,0.286458333,-0.020833333,1,0,0,1.8022,optionRight,70,4370,2,40,0,40,0,1,,,,,,,,,,,,,,,,,,,,,,,,,,,,,,,,,,,,,,,
,,,,,,,,2023-08-16_08h38.45.480,HF_wild_card,2022.2.4,Win32,60.02040694,602e88f43a3b7aa44bf522e6,64d2fd46c836a06233681665,64dc7ccdad403bec63a1d418,,,,,,,sngl,resources/DP.BMP,resources/Empty.png,Door2,-0.321614583,-0.052083333,1,0,0,1.7983,optionLeft,20,4390,2,41,0,41,0,1,,,,,,,,,,,,,,,,,,,,,,,,,,,,,,,,,,,,,,,
,,,,,,,,2023-08-16_08h38.45.480,HF_wild_card,2022.2.4,Win32,60.02040694,602e88f43a3b7aa44bf522e6,64d2fd46c836a06233681665,64dc7ccdad403bec63a1d418,,,,,,,decisionTrl,resources/DP.BMP,resources/DG.BMP,Door2,-0.341145833,-0.05859375,1,0,0,1.3034,optionLeft,40,4430,2,42,0,42,0,1,,,,,,,,,,,,,,,,,,,,,,,,,,,,,,,,,,,,,,,
,,,,,,,,2023-08-16_08h38.45.480,HF_wild_card,2022.2.4,Win32,60.02040694,602e88f43a3b7aa44bf522e6,64d2fd46c836a06233681665,64dc7ccdad403bec63a1d418,,,,,,,decisionTrl,resources/DP.BMP,resources/DB.BMP,Door2,-0.305989583,-0.12109375,1,0,0,1.4121,optionLeft,20,4450,2,43,0,43,0,1,,,,,,,,,,,,,,,,,,,,,,,,,,,,,,,,,,,,,,,
,,,,,,,,2023-08-16_08h38.45.480,HF_wild_card,2022.2.4,Win32,60.02040694,602e88f43a3b7aa44bf522e6,64d2fd46c836a06233681665,64dc7ccdad403bec63a1d418,,,,,,,,,,,,,,,,,,,,,,,,,,1,0,1,0,1,,,,,,,,,,,,,,,,,,,,,,,,,,,,,,,,,,
,,,,,,,,2023-08-16_08h38.45.480,HF_wild_card,2022.2.4,Win32,60.02040694,602e88f43a3b7aa44bf522e6,64d2fd46c836a06233681665,64dc7ccdad403bec63a1d418,,,,,,,decisionTrl,resources/DR.BMP,resources/DY.BMP,Door4,0.44921875,-0.196614583,1,0,0,2.6803,optionRight,60,4510,3,0,0,0,0,1,,,,,,,,,,,,,,,,,,,,,,,,,,,,,,,,,,,,,,,
,,,,,,,,2023-08-16_08h38.45.480,HF_wild_card,2022.2.4,Win32,60.02040694,602e88f43a3b7aa44bf522e6,64d2fd46c836a06233681665,64dc7ccdad403bec63a1d418,,,,,,,ctch,resources/DY.BMP,resources/DG.BMP,Door4,-0.397135417,-0.1328125,1,0,0,1.5407,optionLeft,80,4590,3,1,0,1,0,1,,,,,,,,,,,,,,,,,,,,,,,,,,,,,,,,,,,,,,,
,,,,,,,,2023-08-16_08h38.45.480,HF_wild_card,2022.2.4,Win32,60.02040694,602e88f43a3b7aa44bf522e6,64d2fd46c836a06233681665,64dc7ccdad403bec63a1d418,,,,,,,decisionTrl,resources/DY.BMP,resources/DR.BMP,Door4,-0.348958333,-0.059895833,1,0,0,1.3667,optionLeft,60,4650,3,2,0,2,0,1,,,,,,,,,,,,,,,,,,,,,,,,,,,,,,,,,,,,,,,
,,,,,,,,2023-08-16_08h38.45.480,HF_wild_card,2022.2.4,Win32,60.02040694,602e88f43a3b7aa44bf522e6,64d2fd46c836a06233681665,64dc7ccdad403bec63a1d418,,,,,,,decisionTrl,resources/DG.BMP,resources/DB.BMP,Door1,-0.266927083,-0.048177083,1,0,0,1.9975,optionLeft,30,4680,3,3,0,3,0,1,,,,,,,,,,,,,,,,,,,,,,,,,,,,,,,,,,,,,,,
,,,,,,,,2023-08-16_08h38.45.480,HF_wild_card,2022.2.4,Win32,60.02040694,602e88f43a3b7aa44bf522e6,64d2fd46c836a06233681665,64dc7ccdad403bec63a1d418,,,,,,,decisionTrl,resources/DG.BMP,resources/DP.BMP,Door2,0.430989583,-0.020833333,1,0,0,1.6989,optionRight,40,4720,3,4,0,4,0,1,,,,,,,,,,,,,,,,,,,,,,,,,,,,,,,,,,,,,,,
,,,,,,,,2023-08-16_08h38.45.480,HF_wild_card,2022.2.4,Win32,60.02040694,602e88f43a3b7aa44bf522e6,64d2fd46c836a06233681665,64dc7ccdad403bec63a1d418,,,,,,,decisionTrl,resources/DG.BMP,resources/DP.BMP,Door2,0.408854167,-0.006510417,1,0,0,1.4126,optionRight,40,4760,3,5,0,5,0,1,,,,,,,,,,,,,,,,,,,,,,,,,,,,,,,,,,,,,,,
,,,,,,,,2023-08-16_08h38.45.480,HF_wild_card,2022.2.4,Win32,60.02040694,602e88f43a3b7aa44bf522e6,64d2fd46c836a06233681665,64dc7ccdad403bec63a1d418,,,,,,,sngl,resources/DP.BMP,resources/Empty.png,Door2,-0.454427083,-0.0390625,1,0,0,1.0569,optionLeft,40,4800,3,6,0,6,0,1,,,,,,,,,,,,,,,,,,,,,,,,,,,,,,,,,,,,,,,
,,,,,,,,2023-08-16_08h38.45.480,HF_wild_card,2022.2.4,Win32,60.02040694,602e88f43a3b7aa44bf522e6,64d2fd46c836a06233681665,64dc7ccdad403bec63a1d418,,,,,,,decisionTrl,resources/DP.BMP,resources/DG.BMP,Door2,-0.345052083,-0.087239583,1,0,0,1.4648,optionLeft,20,4820,3,7,0,7,0,1,,,,,,,,,,,,,,,,,,,,,,,,,,,,,,,,,,,,,,,
,,,,,,,,2023-08-16_08h38.45.480,HF_wild_card,2022.2.4,Win32,60.02040694,602e88f43a3b7aa44bf522e6,64d2fd46c836a06233681665,64dc7ccdad403bec63a1d418,,,,,,,decisionTrl,resources/DB.BMP,resources/DG.BMP,Door1,0.411458333,-0.174479167,1,0,0,1.4633,optionRight,30,4850,3,8,0,8,0,1,,,,,,,,,,,,,,,,,,,,,,,,,,,,,,,,,,,,,,,
,,,,,,,,2023-08-16_08h38.45.480,HF_wild_card,2022.2.4,Win32,60.02040694,602e88f43a3b7aa44bf522e6,64d2fd46c836a06233681665,64dc7ccdad403bec63a1d418,,,,,,,decisionTrl,resources/DR.BMP,resources/DY.BMP,Door4,0.350260417,0.05078125,1,0,0,30.8289,optionRight,80,4930,3,9,0,9,0,1,,,,,,,,,,,,,,,,,,,,,,,,,,,,,,,,,,,,,,,
,,,,,,,,2023-08-16_08h38.45.480,HF_wild_card,2022.2.4,Win32,60.02040694,602e88f43a3b7aa44bf522e6,64d2fd46c836a06233681665,64dc7ccdad403bec63a1d418,,,,,,,decisionTrl,resources/DB.BMP,resources/DR.BMP,Door3,0.305989583,-0.111979167,1,0,0,1.5755,optionRight,70,5000,3,10,0,10,0,1,,,,,,,,,,,,,,,,,,,,,,,,,,,,,,,,,,,,,,,
,,,,,,,,2023-08-16_08h38.45.480,HF_wild_card,2022.2.4,Win32,60.02040694,602e88f43a3b7aa44bf522e6,64d2fd46c836a06233681665,64dc7ccdad403bec63a1d418,,,,,,,ctch,resources/DY.BMP,resources/DG.BMP,Door4,-0.290364583,-0.018229167,1,0,0,1.7626,optionLeft,60,5060,3,11,0,11,0,1,,,,,,,,,,,,,,,,,,,,,,,,,,,,,,,,,,,,,,,
,,,,,,,,2023-08-16_08h38.45.480,HF_wild_card,2022.2.4,Win32,60.02040694,602e88f43a3b7aa44bf522e6,64d2fd46c836a06233681665,64dc7ccdad403bec63a1d418,,,,,,,decisionTrl,resources/DP.BMP,resources/DG.BMP,Door2,-0.290364583,-0.020833333,1,0,0,3.1639,optionLeft,40,5100,3,12,0,12,0,1,,,,,,,,,,,,,,,,,,,,,,,,,,,,,,,,,,,,,,,
,,,,,,,,2023-08-16_08h38.45.480,HF_wild_card,2022.2.4,Win32,60.02040694,602e88f43a3b7aa44bf522e6,64d2fd46c836a06233681665,64dc7ccdad403bec63a1d418,,,,,,,decisionTrl,resources/DG.BMP,resources/DP.BMP,Door2,0.391927083,-0.08984375,1,0,0,1.0512,optionRight,20,5120,3,13,0,13,0,1,,,,,,,,,,,,,,,,,,,,,,,,,,,,,,,,,,,,,,,
,,,,,,,,2023-08-16_08h38.45.480,HF_wild_card,2022.2.4,Win32,60.02040694,602e88f43a3b7aa44bf522e6,64d2fd46c836a06233681665,64dc7ccdad403bec63a1d418,,,,,,,ctch,resources/DP.BMP,resources/DR.BMP,Door2,-0.434895833,-0.109375,1,0,0,1.3765,optionLeft,40,5160,3,14,0,14,0,1,,,,,,,,,,,,,,,,,,,,,,,,,,,,,,,,,,,,,,,
,,,,,,,,2023-08-16_08h38.45.480,HF_wild_card,2022.2.4,Win32,60.02040694,602e88f43a3b7aa44bf522e6,64d2fd46c836a06233681665,64dc7ccdad403bec63a1d418,,,,,,,sngl,resources/DY.BMP,resources/Empty.png,Door4,-0.359375,-0.036458333,1,0,0,1.1319,optionLeft,80,5240,3,15,0,15,0,1,,,,,,,,,,,,,,,,,,,,,,,,,,,,,,,,,,,,,,,
,,,,,,,,2023-08-16_08h38.45.480,HF_wild_card,2022.2.4,Win32,60.02040694,602e88f43a3b7aa44bf522e6,64d2fd46c836a06233681665,64dc7ccdad403bec63a1d418,,,,,,,ctch,resources/DP.BMP,resources/DR.BMP,Door2,-0.278645833,-0.080729167,1,0,0,5.2191,optionLeft,20,5260,3,16,0,16,0,1,,,,,,,,,,,,,,,,,,,,,,,,,,,,,,,,,,,,,,,
,,,,,,,,2023-08-16_08h38.45.480,HF_wild_card,2022.2.4,Win32,60.02040694,602e88f43a3b7aa44bf522e6,64d2fd46c836a06233681665,64dc7ccdad403bec63a1d418,,,,,,,ctch,resources/DR.BMP,resources/DP.BMP,Door2,0.3359375,-0.102864583,1,0,0,1.8995,optionRight,40,5300,3,17,0,17,0,1,,,,,,,,,,,,,,,,,,,,,,,,,,,,,,,,,,,,,,,
,,,,,,,,2023-08-16_08h38.45.480,HF_wild_card,2022.2.4,Win32,60.02040694,602e88f43a3b7aa44bf522e6,64d2fd46c836a06233681665,64dc7ccdad403bec63a1d418,,,,,,,decisionTrl,resources/DR.BMP,resources/DB.BMP,Door3,-0.313802083,-0.01171875,1,0,0,1.8714,optionLeft,70,5370,3,18,0,18,0,1,,,,,,,,,,,,,,,,,,,,,,,,,,,,,,,,,,,,,,,
,,,,,,,,2023-08-16_08h38.45.480,HF_wild_card,2022.2.4,Win32,60.02040694,602e88f43a3b7aa44bf522e6,64d2fd46c836a06233681665,64dc7ccdad403bec63a1d418,,,,,,,sngl,resources/Empty.png,resources/DB.BMP,WildCard_Ex,0.348958333,0.005208333,1,0,0,1.1313,optionRight,5,5375,3,19,0,19,0,1,,,,,,,,,,,,,,,,,,,,,,,,,,,,,,,,,,,,,,,
,,,,,,,,2023-08-16_08h38.45.480,HF_wild_card,2022.2.4,Win32,60.02040694,602e88f43a3b7aa44bf522e6,64d2fd46c836a06233681665,64dc7ccdad403bec63a1d418,,,,,,,sngl,resources/DB.BMP,resources/Empty.png,WildCard_Ex,-0.4453125,0.05859375,1,0,0,1.8563,optionLeft,5,5380,3,20,0,20,0,1,,,,,,,,,,,,,,,,,,,,,,,,,,,,,,,,,,,,,,,
,,,,,,,,2023-08-16_08h38.45.480,HF_wild_card,2022.2.4,Win32,60.02040694,602e88f43a3b7aa44bf522e6,64d2fd46c836a06233681665,64dc7ccdad403bec63a1d418,,,,,,,decisionTrl,resources/DR.BMP,resources/DY.BMP,Door4,0.354166667,-0.071614583,1,0,0,1.5622,optionRight,80,5460,3,21,0,21,0,1,,,,,,,,,,,,,,,,,,,,,,,,,,,,,,,,,,,,,,,
,,,,,,,,2023-08-16_08h38.45.480,HF_wild_card,2022.2.4,Win32,60.02040694,602e88f43a3b7aa44bf522e6,64d2fd46c836a06233681665,64dc7ccdad403bec63a1d418,,,,,,,decisionTrl,resources/DY.BMP,resources/DR.BMP,Door4,-0.286458333,-0.024739583,1,0,0,1.5671,optionLeft,60,5520,3,22,0,22,0,1,,,,,,,,,,,,,,,,,,,,,,,,,,,,,,,,,,,,,,,
,,,,,,,,2023-08-16_08h38.45.480,HF_wild_card,2022.2.4,Win32,60.02040694,602e88f43a3b7aa44bf522e6,64d2fd46c836a06233681665,64dc7ccdad403bec63a1d418,,,,,,,sngl,resources/Empty.png,resources/DB.BMP,WildCard_Ex,0.28125,-0.063802083,1,0,0,1.6926,optionRight,95,5615,3,23,0,23,0,1,,,,,,,,,,,,,,,,,,,,,,,,,,,,,,,,,,,,,,,
,,,,,,,,2023-08-16_08h38.45.480,HF_wild_card,2022.2.4,Win32,60.02040694,602e88f43a3b7aa44bf522e6,64d2fd46c836a06233681665,64dc7ccdad403bec63a1d418,,,,,,,ctch,resources/DR.BMP,resources/DP.BMP,Door2,0.36328125,-0.00390625,1,0,0,1.688,optionRight,20,5635,3,24,0,24,0,1,,,,,,,,,,,,,,,,,,,,,,,,,,,,,,,,,,,,,,,
,,,,,,,,2023-08-16_08h38.45.480,HF_wild_card,2022.2.4,Win32,60.02040694,602e88f43a3b7aa44bf522e6,64d2fd46c836a06233681665,64dc7ccdad403bec63a1d418,,,,,,,sngl,resources/Empty.png,resources/DY.BMP,Door4,0.373697917,0.046875,1,0,0,1.4833,optionRight,60,5695,3,25,0,25,0,1,,,,,,,,,,,,,,,,,,,,,,,,,,,,,,,,,,,,,,,
,,,,,,,,2023-08-16_08h38.45.480,HF_wild_card,2022.2.4,Win32,60.02040694,602e88f43a3b7aa44bf522e6,64d2fd46c836a06233681665,64dc7ccdad403bec63a1d418,,,,,,,sngl,resources/DG.BMP,resources/Empty.png,Door1,-0.25390625,-0.015625,1,0,0,1.8794,optionLeft,30,5725,3,26,0,26,0,1,,,,,,,,,,,,,,,,,,,,,,,,,,,,,,,,,,,,,,,
,,,,,,,,2023-08-16_08h38.45.480,HF_wild_card,2022.2.4,Win32,60.02040694,602e88f43a3b7aa44bf522e6,64d2fd46c836a06233681665,64dc7ccdad403bec63a1d418,,,,,,,decisionTrl,resources/DR.BMP,resources/DY.BMP,Door4,0.380208333,-0.134114583,1,0,0,2.0376,optionRight,80,5805,3,27,0,27,0,1,,,,,,,,,,,,,,,,,,,,,,,,,,,,,,,,,,,,,,,
,,,,,,,,2023-08-16_08h38.45.480,HF_wild_card,2022.2.4,Win32,60.02040694,602e88f43a3b7aa44bf522e6,64d2fd46c836a06233681665,64dc7ccdad403bec63a1d418,,,,,,,sngl,resources/Empty.png,resources/DG.BMP,Door1,0.30859375,-0.1015625,1,0,0,3.025,optionRight,30,5835,3,28,0,28,0,1,,,,,,,,,,,,,,,,,,,,,,,,,,,,,,,,,,,,,,,
,,,,,,,,2023-08-16_08h38.45.480,HF_wild_card,2022.2.4,Win32,60.02040694,602e88f43a3b7aa44bf522e6,64d2fd46c836a06233681665,64dc7ccdad403bec63a1d418,,,,,,,ctch,resources/DG.BMP,resources/DY.BMP,Door4,0.319010417,-0.06640625,1,0,0,14.7519,optionRight,80,5915,3,29,0,29,0,1,,,,,,,,,,,,,,,,,,,,,,,,,,,,,,,,,,,,,,,
,,,,,,,,2023-08-16_08h38.45.480,HF_wild_card,2022.2.4,Win32,60.02040694,602e88f43a3b7aa44bf522e6,64d2fd46c836a06233681665,64dc7ccdad403bec63a1d418,,,,,,,decisionTrl,resources/DY.BMP,resources/DR.BMP,Door4,-0.34375,-0.118489583,1,0,0,1.1809,optionLeft,80,5995,3,30,0,30,0,1,,,,,,,,,,,,,,,,,,,,,,,,,,,,,,,,,,,,,,,
,,,,,,,,2023-08-16_08h38.45.480,HF_wild_card,2022.2.4,Win32,60.02040694,602e88f43a3b7aa44bf522e6,64d2fd46c836a06233681665,64dc7ccdad403bec63a1d418,,,,,,,decisionTrl,resources/DY.BMP,resources/DB.BMP,Door4,-0.3046875,-0.046875,1,0,0,1.108,optionLeft,80,6075,3,31,0,31,0,1,,,,,,,,,,,,,,,,,,,,,,,,,,,,,,,,,,,,,,,
,,,,,,,,2023-08-16_08h38.45.480,HF_wild_card,2022.2.4,Win32,60.02040694,602e88f43a3b7aa44bf522e6,64d2fd46c836a06233681665,64dc7ccdad403bec63a1d418,,,,,,,decisionTrl,resources/DP.BMP,resources/DG.BMP,Door2,-0.364583333,-0.07421875,1,0,0,2.1904,optionLeft,40,6115,3,32,0,32,0,1,,,,,,,,,,,,,,,,,,,,,,,,,,,,,,,,,,,,,,,
,,,,,,,,2023-08-16_08h38.45.480,HF_wild_card,2022.2.4,Win32,60.02040694,602e88f43a3b7aa44bf522e6,64d2fd46c836a06233681665,64dc7ccdad403bec63a1d418,,,,,,,sngl,resources/DB.BMP,resources/Empty.png,WildCard_Ex,-0.2734375,-0.041666667,1,0,0,1.543,optionLeft,95,6210,3,33,0,33,0,1,,,,,,,,,,,,,,,,,,,,,,,,,,,,,,,,,,,,,,,
,,,,,,,,2023-08-16_08h38.45.480,HF_wild_card,2022.2.4,Win32,60.02040694,602e88f43a3b7aa44bf522e6,64d2fd46c836a06233681665,64dc7ccdad403bec63a1d418,,,,,,,decisionTrl,resources/DY.BMP,resources/DR.BMP,Door4,-0.240885417,-0.026041667,1,0,0,1.7404,optionLeft,60,6270,3,34,0,34,0,1,,,,,,,,,,,,,,,,,,,,,,,,,,,,,,,,,,,,,,,
,,,,,,,,2023-08-16_08h38.45.480,HF_wild_card,2022.2.4,Win32,60.02040694,602e88f43a3b7aa44bf522e6,64d2fd46c836a06233681665,64dc7ccdad403bec63a1d418,,,,,,,sngl,resources/DR.BMP,resources/Empty.png,Door3,-0.23046875,-0.032552083,1,0,0,1.2217,optionLeft,70,6340,3,35,0,35,0,1,,,,,,,,,,,,,,,,,,,,,,,,,,,,,,,,,,,,,,,
,,,,,,,,2023-08-16_08h38.45.480,HF_wild_card,2022.2.4,Win32,60.02040694,602e88f43a3b7aa44bf522e6,64d2fd46c836a06233681665,64dc7ccdad403bec63a1d418,,,,,,,decisionTrl,resources/DB.BMP,resources/DY.BMP,Door4,0.372395833,-0.055989583,1,0,0,1.704,optionRight,80,6420,3,36,0,36,0,1,,,,,,,,,,,,,,,,,,,,,,,,,,,,,,,,,,,,,,,
,,,,,,,,2023-08-16_08h38.45.480,HF_wild_card,2022.2.4,Win32,60.02040694,602e88f43a3b7aa44bf522e6,64d2fd46c836a06233681665,64dc7ccdad403bec63a1d418,,,,,,,decisionTrl,resources/DP.BMP,resources/DB.BMP,Door2,-0.30859375,-0.111979167,1,0,0,1.6196,optionLeft,40,6460,3,37,0,37,0,1,,,,,,,,,,,,,,,,,,,,,,,,,,,,,,,,,,,,,,,
,,,,,,,,2023-08-16_08h38.45.480,HF_wild_card,2022.2.4,Win32,60.02040694,602e88f43a3b7aa44bf522e6,64d2fd46c836a06233681665,64dc7ccdad403bec63a1d418,,,,,,,ctch,resources/DG.BMP,resources/DY.BMP,Door4,0.356770833,-0.0703125,1,0,0,1.2718,optionRight,60,6520,3,38,0,38,0,1,,,,,,,,,,,,,,,,,,,,,,,,,,,,,,,,,,,,,,,
,,,,,,,,2023-08-16_08h38.45.480,HF_wild_card,2022.2.4,Win32,60.02040694,602e88f43a3b7aa44bf522e6,64d2fd46c836a06233681665,64dc7ccdad403bec63a1d418,,,,,,,decisionTrl,resources/DG.BMP,resources/DP.BMP,Door2,0.342447917,-0.001302083,1,0,0,6.3807,optionRight,40,6560,3,39,0,39,0,1,,,,,,,,,,,,,,,,,,,,,,,,,,,,,,,,,,,,,,,
,,,,,,,,2023-08-16_08h38.45.480,HF_wild_card,2022.2.4,Win32,60.02040694,602e88f43a3b7aa44bf522e6,64d2fd46c836a06233681665,64dc7ccdad403bec63a1d418,,,,,,,sngl,resources/Empty.png,resources/DP.BMP,Door2,0.31640625,-0.065104167,1,0,0,1.2449,optionRight,20,6580,3,40,0,40,0,1,,,,,,,,,,,,,,,,,,,,,,,,,,,,,,,,,,,,,,,
,,,,,,,,2023-08-16_08h38.45.480,HF_wild_card,2022.2.4,Win32,60.02040694,602e88f43a3b7aa44bf522e6,64d2fd46c836a06233681665,64dc7ccdad403bec63a1d418,,,,,,,sngl,resources/Empty.png,resources/DR.BMP,Door3,0.377604167,-0.1328125,1,0,0,1.1195,optionRight,70,6650,3,41,0,41,0,1,,,,,,,,,,,,,,,,,,,,,,,,,,,,,,,,,,,,,,,
,,,,,,,,2023-08-16_08h38.45.480,HF_wild_card,2022.2.4,Win32,60.02040694,602e88f43a3b7aa44bf522e6,64d2fd46c836a06233681665,64dc7ccdad403bec63a1d418,,,,,,,decisionTrl,resources/DP.BMP,resources/DG.BMP,Door2,-0.34375,-0.037760417,1,0,0,1.549,optionLeft,20,6670,3,42,0,42,0,1,,,,,,,,,,,,,,,,,,,,,,,,,,,,,,,,,,,,,,,
,,,,,,,,2023-08-16_08h38.45.480,HF_wild_card,2022.2.4,Win32,60.02040694,602e88f43a3b7aa44bf522e6,64d2fd46c836a06233681665,64dc7ccdad403bec63a1d418,,,,,,,decisionTrl,resources/DB.BMP,resources/DP.BMP,Door2,0.397135417,-0.001302083,1,0,0,1.0434,optionRight,20,6690,3,43,0,43,0,1,,,,,,,,,,,,,,,,,,,,,,,,,,,,,,,,,,,,,,,
,,,,,,,,2023-08-16_08h38.45.480,HF_wild_card,2022.2.4,Win32,60.02040694,602e88f43a3b7aa44bf522e6,64d2fd46c836a06233681665,64dc7ccdad403bec63a1d418,,,,,,,,,,,,,,,,,,,,,,,,,,2,0,2,0,1,,,,,,,,,,,,,,,,,,,,,,,,,,,,,,,,,,
,,,,,,,,2023-08-16_08h38.45.480,HF_wild_card,2022.2.4,Win32,60.02040694,602e88f43a3b7aa44bf522e6,64d2fd46c836a06233681665,64dc7ccdad403bec63a1d418,,,,,,,decisionTrl,resources/DR.BMP,resources/DY.BMP,Door4,0.325520833,-0.0625,1,0,0,2.0443,optionRight,60,6750,4,0,0,0,0,1,,,,,,,,,,,,,,,,,,,,,,,,,,,,,,,,,,,,,,,
,,,,,,,,2023-08-16_08h38.45.480,HF_wild_card,2022.2.4,Win32,60.02040694,602e88f43a3b7aa44bf522e6,64d2fd46c836a06233681665,64dc7ccdad403bec63a1d418,,,,,,,ctch,resources/DY.BMP,resources/DG.BMP,Door4,-0.240885417,-0.05078125,1,0,0,1.1514,optionLeft,60,6810,4,1,0,1,0,1,,,,,,,,,,,,,,,,,,,,,,,,,,,,,,,,,,,,,,,
,,,,,,,,2023-08-16_08h38.45.480,HF_wild_card,2022.2.4,Win32,60.02040694,602e88f43a3b7aa44bf522e6,64d2fd46c836a06233681665,64dc7ccdad403bec63a1d418,,,,,,,decisionTrl,resources/DP.BMP,resources/DG.BMP,Door2,-0.35546875,-0.076822917,1,0,0,1.8406,optionLeft,40,6850,4,2,0,2,0,1,,,,,,,,,,,,,,,,,,,,,,,,,,,,,,,,,,,,,,,
,,,,,,,,2023-08-16_08h38.45.480,HF_wild_card,2022.2.4,Win32,60.02040694,602e88f43a3b7aa44bf522e6,64d2fd46c836a06233681665,64dc7ccdad403bec63a1d418,,,,,,,decisionTrl,resources/DY.BMP,resources/DR.BMP,Door4,-0.2890625,-0.002604167,1,0,0,2.04,optionLeft,60,6910,4,3,0,3,0,1,,,,,,,,,,,,,,,,,,,,,,,,,,,,,,,,,,,,,,,
,,,,,,,,2023-08-16_08h38.45.480,HF_wild_card,2022.2.4,Win32,60.02040694,602e88f43a3b7aa44bf522e6,64d2fd46c836a06233681665,64dc7ccdad403bec63a1d418,,,,,,,sngl,resources/DBN.BMP,resources/Empty.png,WildCard_NonEx,-0.3671875,-0.026041667,1,0,0,2.181,optionLeft,55,6965,4,4,0,4,0,1,,,,,,,,,,,,,,,,,,,,,,,,,,,,,,,,,,,,,,,
,,,,,,,,2023-08-16_08h38.45.480,HF_wild_card,2022.2.4,Win32,60.02040694,602e88f43a3b7aa44bf522e6,64d2fd46c836a06233681665,64dc7ccdad403bec63a1d418,,,,,,,decisionTrl,resources/DP.BMP,resources/DG.BMP,Door2,-0.372395833,-0.1328125,1,0,0,2.1633,optionLeft,40,7005,4,5,0,5,0,1,,,,,,,,,,,,,,,,,,,,,,,,,,,,,,,,,,,,,,,
,,,,,,,,2023-08-16_08h38.45.480,HF_wild_card,2022.2.4,Win32,60.02040694,602e88f43a3b7aa44bf522e6,64d2fd46c836a06233681665,64dc7ccdad403bec63a1d418,,,,,,,decisionTrl,resources/DY.BMP,resources/DBN.BMP,Door4,-0.2890625,-0.07421875,1,0,0,2.3454,optionLeft,80,7085,4,6,0,6,0,1,,,,,,,,,,,,,,,,,,,,,,,,,,,,,,,,,,,,,,,
,,,,,,,,2023-08-16_08h38.45.480,HF_wild_card,2022.2.4,Win32,60.02040694,602e88f43a3b7aa44bf522e6,64d2fd46c836a06233681665,64dc7ccdad403bec63a1d418,,,,,,,sngl,resources/Empty.png,resources/DG.BMP,Door1,0.350260417,0.01171875,1,0,0,1.5145,optionRight,30,7115,4,7,0,7,0,1,,,,,,,,,,,,,,,,,,,,,,,,,,,,,,,,,,,,,,,
,,,,,,,,2023-08-16_08h38.45.480,HF_wild_card,2022.2.4,Win32,60.02040694,602e88f43a3b7aa44bf522e6,64d2fd46c836a06233681665,64dc7ccdad403bec63a1d418,,,,,,,sngl,resources/DP.BMP,resources/Empty.png,Door2,-0.325520833,-0.053385417,1,0,0,1.4618,optionLeft,20,7135,4,8,0,8,0,1,,,,,,,,,,,,,,,,,,,,,,,,,,,,,,,,,,,,,,,
,,,,,,,,2023-08-16_08h38.45.480,HF_wild_card,2022.2.4,Win32,60.02040694,602e88f43a3b7aa44bf522e6,64d2fd46c836a06233681665,64dc7ccdad403bec63a1d418,,,,,,,ctch,resources/DR.BMP,resources/DP.BMP,Door3,-0.330729167,-0.0234375,1,0,0,1.4092,optionLeft,70,7205,4,9,0,9,0,1,,,,,,,,,,,,,,,,,,,,,,,,,,,,,,,,,,,,,,,
,,,,,,,,2023-08-16_08h38.45.480,HF_wild_card,2022.2.4,Win32,60.02040694,602e88f43a3b7aa44bf522e6,64d2fd46c836a06233681665,64dc7ccdad403bec63a1d418,,,,,,,decisionTrl,resources/DP.BMP,resources/DG.BMP,Door1,0.313802083,-0.03125,1,0,0,2.7885,optionRight,30,7235,4,10,0,10,0,1,,,,,,,,,,,,,,,,,,,,,,,,,,,,,,,,,,,,,,,
,,,,,,,,2023-08-16_08h38.45.480,HF_wild_card,2022.2.4,Win32,60.02040694,602e88f43a3b7aa44bf522e6,64d2fd46c836a06233681665,64dc7ccdad403bec63a1d418,,,,,,,decisionTrl,resources/DG.BMP,resources/DP.BMP,Door1,-0.276041667,-0.022135417,1,0,0,1.3871,optionLeft,30,7265,4,11,0,11,0,1,,,,,,,,,,,,,,,,,,,,,,,,,,,,,,,,,,,,,,,
,,,,,,,,2023-08-16_08h38.45.480,HF_wild_card,2022.2.4,Win32,60.02040694,602e88f43a3b7aa44bf522e6,64d2fd46c836a06233681665,64dc7ccdad403bec63a1d418,,,,,,,decisionTrl,resources/DR.BMP,resources/DBN.BMP,Door3,-0.341145833,-0.10546875,1,0,0,1.6474,optionLeft,70,7335,4,12,0,12,0,1,,,,,,,,,,,,,,,,,,,,,,,,,,,,,,,,,,,,,,,
,,,,,,,,2023-08-16_08h38.45.480,HF_wild_card,2022.2.4,Win32,60.02040694,602e88f43a3b7aa44bf522e6,64d2fd46c836a06233681665,64dc7ccdad403bec63a1d418,,,,,,,ctch,resources/DG.BMP,resources/DY.BMP,Door4,0.321614583,-0.065104167,1,0,0,2.0011,optionRight,80,7415,4,13,0,13,0,1,,,,,,,,,,,,,,,,,,,,,,,,,,,,,,,,,,,,,,,
,,,,,,,,2023-08-16_08h38.45.480,HF_wild_card,2022.2.4,Win32,60.02040694,602e88f43a3b7aa44bf522e6,64d2fd46c836a06233681665,64dc7ccdad403bec63a1d418,,,,,,,decisionTrl,resources/DBN.BMP,resources/DR.BMP,Door3,0.3828125,-0.075520833,1,0,0,1.5222,optionRight,70,7485,4,14,0,14,0,1,,,,,,,,,,,,,,,,,,,,,,,,,,,,,,,,,,,,,,,
,,,,,,,,2023-08-16_08h38.45.480,HF_wild_card,2022.2.4,Win32,60.02040694,602e88f43a3b7aa44bf522e6,64d2fd46c836a06233681665,64dc7ccdad403bec63a1d418,,,,,,,decisionTrl,resources/DP.BMP,resources/DG.BMP,Door1,0.438802083,-0.018229167,1,0,0,3.4494,optionRight,30,7515,4,15,0,15,0,1,,,,,,,,,,,,,,,,,,,,,,,,,,,,,,,,,,,,,,,
,,,,,,,,2023-08-16_08h38.45.480,HF_wild_card,2022.2.4,Win32,60.02040694,602e88f43a3b7aa44bf522e6,64d2fd46c836a06233681665,64dc7ccdad403bec63a1d418,,,,,,,ctch,resources/DP.BMP,resources/DR.BMP,Door3,0.294270833,-0.06640625,1,0,0,2.2276,optionRight,70,7585,4,16,0,16,0,1,,,,,,,,,,,,,,,,,,,,,,,,,,,,,,,,,,,,,,,
,,,,,,,,2023-08-16_08h38.45.480,HF_wild_card,2022.2.4,Win32,60.02040694,602e88f43a3b7aa44bf522e6,64d2fd46c836a06233681665,64dc7ccdad403bec63a1d418,,,,,,,decisionTrl,resources/DY.BMP,resources/DR.BMP,Door4,-0.286458333,-0.0234375,1,0,0,1.9716,optionLeft,80,7665,4,17,0,17,0,1,,,,,,,,,,,,,,,,,,,,,,,,,,,,,,,,,,,,,,,
,,,,,,,,2023-08-16_08h38.45.480,HF_wild_card,2022.2.4,Win32,60.02040694,602e88f43a3b7aa44bf522e6,64d2fd46c836a06233681665,64dc7ccdad403bec63a1d418,,,,,,,decisionTrl,resources/DR.BMP,resources/DY.BMP,Door4,0.424479167,-0.0546875,1,0,0,1.5906,optionRight,80,7745,4,18,0,18,0,1,,,,,,,,,,,,,,,,,,,,,,,,,,,,,,,,,,,,,,,
,,,,,,,,2023-08-16_08h38.45.480,HF_wild_card,2022.2.4,Win32,60.02040694,602e88f43a3b7aa44bf522e6,64d2fd46c836a06233681665,64dc7ccdad403bec63a1d418,,,,,,,sngl,resources/Empty.png,resources/DR.BMP,Door3,0.305989583,-0.026041667,1,0,0,1.5985,optionRight,70,7815,4,19,0,19,0,1,,,,,,,,,,,,,,,,,,,,,,,,,,,,,,,,,,,,,,,
,,,,,,,,2023-08-16_08h38.45.480,HF_wild_card,2022.2.4,Win32,60.02040694,602e88f43a3b7aa44bf522e6,64d2fd46c836a06233681665,64dc7ccdad403bec63a1d418,,,,,,,ctch,resources/DR.BMP,resources/DP.BMP,Door3,-0.28125,0.006510417,1,0,0,1.6768,optionLeft,70,7885,4,20,0,20,0,1,,,,,,,,,,,,,,,,,,,,,,,,,,,,,,,,,,,,,,,
,,,,,,,,2023-08-16_08h38.45.480,HF_wild_card,2022.2.4,Win32,60.02040694,602e88f43a3b7aa44bf522e6,64d2fd46c836a06233681665,64dc7ccdad403bec63a1d418,,,,,,,decisionTrl,resources/DG.BMP,resources/DP.BMP,Door1,-0.265625,0.0078125,1,0,0,3.0588,optionLeft,30,7915,4,21,0,21,0,1,,,,,,,,,,,,,,,,,,,,,,,,,,,,,,,,,,,,,,,
,,,,,,,,2023-08-16_08h38.45.480,HF_wild_card,2022.2.4,Win32,60.02040694,602e88f43a3b7aa44bf522e6,64d2fd46c836a06233681665,64dc7ccdad403bec63a1d418,,,,,,,decisionTrl,resources/DBN.BMP,resources/DP.BMP,WildCard_NonEx,-0.345052083,0,1,0,0,2.3615,optionLeft,45,7960,4,22,0,22,0,1,,,,,,,,,,,,,,,,,,,,,,,,,,,,,,,,,,,,,,,
,,,,,,,,2023-08-16_08h38.45.480,HF_wild_card,2022.2.4,Win32,60.02040694,602e88f43a3b7aa44bf522e6,64d2fd46c836a06233681665,64dc7ccdad403bec63a1d418,,,,,,,decisionTrl,resources/DG.BMP,resources/DP.BMP,Door2,0.29296875,-0.0625,1,0,0,3.1766,optionRight,20,7980,4,23,0,23,0,1,,,,,,,,,,,,,,,,,,,,,,,,,,,,,,,,,,,,,,,
,,,,,,,,2023-08-16_08h38.45.480,HF_wild_card,2022.2.4,Win32,60.02040694,602e88f43a3b7aa44bf522e6,64d2fd46c836a06233681665,64dc7ccdad403bec63a1d418,,,,,,,decisionTrl,resources/DBN.BMP,resources/DY.BMP,Door4,0.317708333,-0.059895833,1,0,0,1.8268,optionRight,80,8060,4,24,0,24,0,1,,,,,,,,,,,,,,,,,,,,,,,,,,,,,,,,,,,,,,,
,,,,,,,,2023-08-16_08h38.45.480,HF_wild_card,2022.2.4,Win32,60.02040694,602e88f43a3b7aa44bf522e6,64d2fd46c836a06233681665,64dc7ccdad403bec63a1d418,,,,,,,decisionTrl,resources/DY.BMP,resources/DR.BMP,Door4,-0.272135417,-0.01171875,1,0,0,1.4642,optionLeft,80,8140,4,25,0,25,0,1,,,,,,,,,,,,,,,,,,,,,,,,,,,,,,,,,,,,,,,
,,,,,,,,2023-08-16_08h38.45.480,HF_wild_card,2022.2.4,Win32,60.02040694,602e88f43a3b7aa44bf522e6,64d2fd46c836a06233681665,64dc7ccdad403bec63a1d418,,,,,,,sngl,resources/DY.BMP,resources/Empty.png,Door4,-0.295572917,-0.016927083,1,0,0,1.2411,optionLeft,60,8200,4,26,0,26,0,1,,,,,,,,,,,,,,,,,,,,,,,,,,,,,,,,,,,,,,,
,,,,,,,,2023-08-16_08h38.45.480,HF_wild_card,2022.2.4,Win32,60.02040694,602e88f43a3b7aa44bf522e6,64d2fd46c836a06233681665,64dc7ccdad403bec63a1d418,,,,,,,decisionTrl,resources/DG.BMP,resources/DBN.BMP,WildCard_NonEx,0.328125,-0.020833333,1,0,0,3.147,optionRight,45,8245,4,27,0,27,0,1,,,,,,,,,,,,,,,,,,,,,,,,,,,,,,,,,,,,,,,
,,,,,,,,2023-08-16_08h38.45.480,HF_wild_card,2022.2.4,Win32,60.02040694,602e88f43a3b7aa44bf522e6,64d2fd46c836a06233681665,64dc7ccdad403bec63a1d418,,,,,,,decisionTrl,resources/DR.BMP,resources/DY.BMP,Door4,0.296875,-0.071614583,1,0,0,1.3304,optionRight,60,8305,4,28,0,28,0,1,,,,,,,,,,,,,,,,,,,,,,,,,,,,,,,,,,,,,,,
,,,,,,,,2023-08-16_08h38.45.480,HF_wild_card,2022.2.4,Win32,60.02040694,602e88f43a3b7aa44bf522e6,64d2fd46c836a06233681665,64dc7ccdad403bec63a1d418,,,,,,,sngl,resources/Empty.png,resources/DBN.BMP,WildCard_NonEx,0.298177083,-0.01953125,1,0,0,1.5627,optionRight,55,8360,4,29,0,29,0,1,,,,,,,,,,,,,,,,,,,,,,,,,,,,,,,,,,,,,,,
,,,,,,,,2023-08-16_08h38.45.480,HF_wild_card,2022.2.4,Win32,60.02040694,602e88f43a3b7aa44bf522e6,64d2fd46c836a06233681665,64dc7ccdad403bec63a1d418,,,,,,,sngl,resources/Empty.png,resources/DBN.BMP,WildCard_NonEx,0.247395833,-0.028645833,1,0,0,1.1952,optionRight,45,8405,4,30,0,30,0,1,,,,,,,,,,,,,,,,,,,,,,,,,,,,,,,,,,,,,,,
,,,,,,,,2023-08-16_08h38.45.480,HF_wild_card,2022.2.4,Win32,60.02040694,602e88f43a3b7aa44bf522e6,64d2fd46c836a06233681665,64dc7ccdad403bec63a1d418,,,,,,,decisionTrl,resources/DR.BMP,resources/DY.BMP,Door3,-0.311197917,-0.0078125,1,0,0,2.2179,optionLeft,70,8475,4,31,0,31,0,1,,,,,,,,,,,,,,,,,,,,,,,,,,,,,,,,,,,,,,,
,,,,,,,,2023-08-16_08h38.45.480,HF_wild_card,2022.2.4,Win32,60.02040694,602e88f43a3b7aa44bf522e6,64d2fd46c836a06233681665,64dc7ccdad403bec63a1d418,,,,,,,decisionTrl,resources/DBN.BMP,resources/DG.BMP,WildCard_NonEx,-0.34765625,-0.102864583,1,0,0,2.5628,optionLeft,55,8530,4,32,0,32,0,1,,,,,,,,,,,,,,,,,,,,,,,,,,,,,,,,,,,,,,,
,,,,,,,,2023-08-16_08h38.45.480,HF_wild_card,2022.2.4,Win32,60.02040694,602e88f43a3b7aa44bf522e6,64d2fd46c836a06233681665,64dc7ccdad403bec63a1d418,,,,,,,sngl,resources/Empty.png,resources/DP.BMP,Door2,0.32421875,-0.0234375,1,0,0,1.6695,optionRight,40,8570,4,33,0,33,0,1,,,,,,,,,,,,,,,,,,,,,,,,,,,,,,,,,,,,,,,
,,,,,,,,2023-08-16_08h38.45.480,HF_wild_card,2022.2.4,Win32,60.02040694,602e88f43a3b7aa44bf522e6,64d2fd46c836a06233681665,64dc7ccdad403bec63a1d418,,,,,,,decisionTrl,resources/DY.BMP,resources/DR.BMP,Door3,0.311197917,-0.046875,1,0,0,2.6516,optionRight,70,8640,4,34,0,34,0,1,,,,,,,,,,,,,,,,,,,,,,,,,,,,,,,,,,,,,,,
,,,,,,,,2023-08-16_08h38.45.480,HF_wild_card,2022.2.4,Win32,60.02040694,602e88f43a3b7aa44bf522e6,64d2fd46c836a06233681665,64dc7ccdad403bec63a1d418,,,,,,,decisionTrl,resources/DP.BMP,resources/DBN.BMP,WildCard_NonEx,0.291666667,0.010416667,1,0,0,3.412,optionRight,55,8695,4,35,0,35,0,1,,,,,,,,,,,,,,,,,,,,,,,,,,,,,,,,,,,,,,,
,,,,,,,,2023-08-16_08h38.45.480,HF_wild_card,2022.2.4,Win32,60.02040694,602e88f43a3b7aa44bf522e6,64d2fd46c836a06233681665,64dc7ccdad403bec63a1d418,,,,,,,ctch,resources/DG.BMP,resources/DY.BMP,Door4,0.266927083,-0.015625,1,0,0,3.2679,optionRight,60,8755,4,36,0,36,0,1,,,,,,,,,,,,,,,,,,,,,,,,,,,,,,,,,,,,,,,
,,,,,,,,2023-08-16_08h38.45.480,HF_wild_card,2022.2.4,Win32,60.02040694,602e88f43a3b7aa44bf522e6,64d2fd46c836a06233681665,64dc7ccdad403bec63a1d418,,,,,,,ctch,resources/DY.BMP,resources/DG.BMP,Door4,-0.260416667,-0.002604167,1,0,0,1.7754,optionLeft,60,8815,4,37,0,37,0,1,,,,,,,,,,,,,,,,,,,,,,,,,,,,,,,,,,,,,,,
,,,,,,,,2023-08-16_08h38.45.480,HF_wild_card,2022.2.4,Win32,60.02040694,602e88f43a3b7aa44bf522e6,64d2fd46c836a06233681665,64dc7ccdad403bec63a1d418,,,,,,,sngl,resources/DR.BMP,resources/Empty.png,Door3,-0.295572917,-0.020833333,1,0,0,1.3655,optionLeft,70,8885,4,38,0,38,0,1,,,,,,,,,,,,,,,,,,,,,,,,,,,,,,,,,,,,,,,
,,,,,,,,2023-08-16_08h38.45.480,HF_wild_card,2022.2.4,Win32,60.02040694,602e88f43a3b7aa44bf522e6,64d2fd46c836a06233681665,64dc7ccdad403bec63a1d418,,,,,,,sngl,resources/DG.BMP,resources/Empty.png,Door1,-0.283854167,-0.026041667,1,0,0,1.5455,optionLeft,30,8915,4,39,0,39,0,1,,,,,,,,,,,,,,,,,,,,,,,,,,,,,,,,,,,,,,,
,,,,,,,,2023-08-16_08h38.45.480,HF_wild_card,2022.2.4,Win32,60.02040694,602e88f43a3b7aa44bf522e6,64d2fd46c836a06233681665,64dc7ccdad403bec63a1d418,,,,,,,sngl,resources/Empty.png,resources/DY.BMP,Door4,0.234375,-0.061197917,1,0,0,1.3846,optionRight,80,8995,4,40,0,40,0,1,,,,,,,,,,,,,,,,,,,,,,,,,,,,,,,,,,,,,,,
,,,,,,,,2023-08-16_08h38.45.480,HF_wild_card,2022.2.4,Win32,60.02040694,602e88f43a3b7aa44bf522e6,64d2fd46c836a06233681665,64dc7ccdad403bec63a1d418,,,,,,,ctch,resources/DP.BMP,resources/DR.BMP,Door3,0.41015625,0.046875,1,0,0,2.414,optionRight,70,9065,4,41,0,41,0,1,,,,,,,,,,,,,,,,,,,,,,,,,,,,,,,,,,,,,,,
,,,,,,,,2023-08-16_08h38.45.480,HF_wild_card,2022.2.4,Win32,60.02040694,602e88f43a3b7aa44bf522e6,64d2fd46c836a06233681665,64dc7ccdad403bec63a1d418,,,,,,,sngl,resources/DBN.BMP,resources/Empty.png,WildCard_NonEx,-0.235677083,0.01953125,1,0,0,1.3293,optionLeft,45,9110,4,42,0,42,0,1,,,,,,,,,,,,,,,,,,,,,,,,,,,,,,,,,,,,,,,
,,,,,,,,2023-08-16_08h38.45.480,HF_wild_card,2022.2.4,Win32,60.02040694,602e88f43a3b7aa44bf522e6,64d2fd46c836a06233681665,64dc7ccdad403bec63a1d418,,,,,,,decisionTrl,resources/DG.BMP,resources/DP.BMP,Door2,0.315104167,-0.078125,1,0,0,5.3468,optionRight,40,9150,4,43,0,43,0,1,,,,,,,,,,,,,,,,,,,,,,,,,,,,,,,,,,,,,,,
,,,,,,,,2023-08-16_08h38.45.480,HF_wild_card,2022.2.4,Win32,60.02040694,602e88f43a3b7aa44bf522e6,64d2fd46c836a06233681665,64dc7ccdad403bec63a1d418,,,,,,,,,,,,,,,,,,,,,,,,,,3,0,3,0,1,,,,,,,,,,,,,,,,,,,,,,,,,,,,,,,,,,
,,,,,,,,2023-08-16_08h38.45.480,HF_wild_card,2022.2.4,Win32,60.02040694,602e88f43a3b7aa44bf522e6,64d2fd46c836a06233681665,64dc7ccdad403bec63a1d418,,,,,,,decisionTrl,resources/DG.BMP,resources/DP.BMP,Door2,0.305989583,-0.127604167,1,0,0,1.882,optionRight,40,9190,5,0,0,0,0,1,,,,,,,,,,,,,,,,,,,,,,,,,,,,,,,,,,,,,,,
,,,,,,,,2023-08-16_08h38.45.480,HF_wild_card,2022.2.4,Win32,60.02040694,602e88f43a3b7aa44bf522e6,64d2fd46c836a06233681665,64dc7ccdad403bec63a1d418,,,,,,,sngl,resources/Empty.png,resources/DP.BMP,Door2,0.420572917,-0.063802083,1,0,0,1.2637,optionRight,20,9210,5,1,0,1,0,1,,,,,,,,,,,,,,,,,,,,,,,,,,,,,,,,,,,,,,,
,,,,,,,,2023-08-16_08h38.45.480,HF_wild_card,2022.2.4,Win32,60.02040694,602e88f43a3b7aa44bf522e6,64d2fd46c836a06233681665,64dc7ccdad403bec63a1d418,,,,,,,ctch,resources/DY.BMP,resources/DG.BMP,Door4,-0.21875,-0.014322917,1,0,0,1.4183,optionLeft,80,9290,5,2,0,2,0,1,,,,,,,,,,,,,,,,,,,,,,,,,,,,,,,,,,,,,,,
,,,,,,,,2023-08-16_08h38.45.480,HF_wild_card,2022.2.4,Win32,60.02040694,602e88f43a3b7aa44bf522e6,64d2fd46c836a06233681665,64dc7ccdad403bec63a1d418,,,,,,,decisionTrl,resources/DBN.BMP,resources/DP.BMP,WildCard_NonEx,-0.328125,-0.147135417,1,0,0,2.5783,optionLeft,45,9335,5,3,0,3,0,1,,,,,,,,,,,,,,,,,,,,,,,,,,,,,,,,,,,,,,,
,,,,,,,,2023-08-16_08h38.45.480,HF_wild_card,2022.2.4,Win32,60.02040694,602e88f43a3b7aa44bf522e6,64d2fd46c836a06233681665,64dc7ccdad403bec63a1d418,,,,,,,ctch,resources/DG.BMP,resources/DY.BMP,Door4,0.23046875,-0.040364583,1,0,0,1.2163,optionRight,60,9395,5,4,0,4,0,1,,,,,,,,,,,,,,,,,,,,,,,,,,,,,,,,,,,,,,,
,,,,,,,,2023-08-16_08h38.45.480,HF_wild_card,2022.2.4,Win32,60.02040694,602e88f43a3b7aa44bf522e6,64d2fd46c836a06233681665,64dc7ccdad403bec63a1d418,,,,,,,decisionTrl,resources/DBN.BMP,resources/DR.BMP,Door3,0.319010417,-0.022135417,1,0,0,1.5097,optionRight,70,9465,5,5,0,5,0,1,,,,,,,,,,,,,,,,,,,,,,,,,,,,,,,,,,,,,,,
,,,,,,,,2023-08-16_08h38.45.480,HF_wild_card,2022.2.4,Win32,60.02040694,602e88f43a3b7aa44bf522e6,64d2fd46c836a06233681665,64dc7ccdad403bec63a1d418,,,,,,,sngl,resources/DR.BMP,resources/Empty.png,Door3,-0.239583333,0.010416667,1,0,0,1.3127,optionLeft,70,9535,5,6,0,6,0,1,,,,,,,,,,,,,,,,,,,,,,,,,,,,,,,,,,,,,,,
,,,,,,,,2023-08-16_08h38.45.480,HF_wild_card,2022.2.4,Win32,60.02040694,602e88f43a3b7aa44bf522e6,64d2fd46c836a06233681665,64dc7ccdad403bec63a1d418,,,,,,,decisionTrl,resources/DG.BMP,resources/DBN.BMP,WildCard_NonEx,0.28515625,-0.020833333,1,0,0,2.0804,optionRight,55,9590,5,7,0,7,0,1,,,,,,,,,,,,,,,,,,,,,,,,,,,,,,,,,,,,,,,
,,,,,,,,2023-08-16_08h38.45.480,HF_wild_card,2022.2.4,Win32,60.02040694,602e88f43a3b7aa44bf522e6,64d2fd46c836a06233681665,64dc7ccdad403bec63a1d418,,,,,,,sngl,resources/Empty.png,resources/DR.BMP,Door3,0.317708333,-0.002604167,1,0,0,1.2192,optionRight,70,9660,5,8,0,8,0,1,,,,,,,,,,,,,,,,,,,,,,,,,,,,,,,,,,,,,,,
,,,,,,,,2023-08-16_08h38.45.480,HF_wild_card,2022.2.4,Win32,60.02040694,602e88f43a3b7aa44bf522e6,64d2fd46c836a06233681665,64dc7ccdad403bec63a1d418,,,,,,,sngl,resources/Empty.png,resources/DY.BMP,Door4,0.33203125,0.001302083,1,0,0,1.1972,optionRight,60,9720,5,9,0,9,0,1,,,,,,,,,,,,,,,,,,,,,,,,,,,,,,,,,,,,,,,
,,,,,,,,2023-08-16_08h38.45.480,HF_wild_card,2022.2.4,Win32,60.02040694,602e88f43a3b7aa44bf522e6,64d2fd46c836a06233681665,64dc7ccdad403bec63a1d418,,,,,,,sngl,resources/DBN.BMP,resources/Empty.png,WildCard_NonEx,-0.326822917,0.0078125,1,0,0,1.2538,optionLeft,55,9775,5,10,0,10,0,1,,,,,,,,,,,,,,,,,,,,,,,,,,,,,,,,,,,,,,,
,,,,,,,,2023-08-16_08h38.45.480,HF_wild_card,2022.2.4,Win32,60.02040694,602e88f43a3b7aa44bf522e6,64d2fd46c836a06233681665,64dc7ccdad403bec63a1d418,,,,,,,decisionTrl,resources/DBN.BMP,resources/DG.BMP,WildCard_NonEx,-0.248697917,0.001302083,1,0,0,1.4997,optionLeft,45,9820,5,11,0,11,0,1,,,,,,,,,,,,,,,,,,,,,,,,,,,,,,,,,,,,,,,
,,,,,,,,2023-08-16_08h38.45.480,HF_wild_card,2022.2.4,Win32,60.02040694,602e88f43a3b7aa44bf522e6,64d2fd46c836a06233681665,64dc7ccdad403bec63a1d418,,,,,,,decisionTrl,resources/DP.BMP,resources/DG.BMP,Door1,0.311197917,-0.0546875,1,0,0,3.1004,optionRight,30,9850,5,12,0,12,0,1,,,,,,,,,,,,,,,,,,,,,,,,,,,,,,,,,,,,,,,
,,,,,,,,2023-08-16_08h38.45.480,HF_wild_card,2022.2.4,Win32,60.02040694,602e88f43a3b7aa44bf522e6,64d2fd46c836a06233681665,64dc7ccdad403bec63a1d418,,,,,,,decisionTrl,resources/DG.BMP,resources/DP.BMP,Door2,0.260416667,-0.0234375,1,0,0,3.4076,optionRight,20,9870,5,13,0,13,0,1,,,,,,,,,,,,,,,,,,,,,,,,,,,,,,,,,,,,,,,
,,,,,,,,2023-08-16_08h38.45.480,HF_wild_card,2022.2.4,Win32,60.02040694,602e88f43a3b7aa44bf522e6,64d2fd46c836a06233681665,64dc7ccdad403bec63a1d418,,,,,,,sngl,resources/DG.BMP,resources/Empty.png,Door1,-0.2734375,-0.018229167,1,0,0,1.1229,optionLeft,30,9900,5,14,0,14,0,1,,,,,,,,,,,,,,,,,,,,,,,,,,,,,,,,,,,,,,,
,,,,,,,,2023-08-16_08h38.45.480,HF_wild_card,2022.2.4,Win32,60.02040694,602e88f43a3b7aa44bf522e6,64d2fd46c836a06233681665,64dc7ccdad403bec63a1d418,,,,,,,decisionTrl,resources/DY.BMP,resources/DR.BMP,Door4,-0.247395833,-0.024739583,1,0,0,2.3314,optionLeft,60,9960,5,15,0,15,0,1,,,,,,,,,,,,,,,,,,,,,,,,,,,,,,,,,,,,,,,
,,,,,,,,2023-08-16_08h38.45.480,HF_wild_card,2022.2.4,Win32,60.02040694,602e88f43a3b7aa44bf522e6,64d2fd46c836a06233681665,64dc7ccdad403bec63a1d418,,,,,,,ctch,resources/DP.BMP,resources/DR.BMP,Door3,0.299479167,-0.0078125,1,0,0,1.3886,optionRight,70,10030,5,16,0,16,0,1,,,,,,,,,,,,,,,,,,,,,,,,,,,,,,,,,,,,,,,
,,,,,,,,2023-08-16_08h38.45.480,HF_wild_card,2022.2.4,Win32,60.02040694,602e88f43a3b7aa44bf522e6,64d2fd46c836a06233681665,64dc7ccdad403bec63a1d418,,,,,,,sngl,resources/DP.BMP,resources/Empty.png,Door2,-0.307291667,-0.059895833,1,0,0,20.117,optionLeft,40,10070,5,17,0,17,0,1,,,,,,,,,,,,,,,,,,,,,,,,,,,,,,,,,,,,,,,
,,,,,,,,2023-08-16_08h38.45.480,HF_wild_card,2022.2.4,Win32,60.02040694,602e88f43a3b7aa44bf522e6,64d2fd46c836a06233681665,64dc7ccdad403bec63a1d418,,,,,,,decisionTrl,resources/DY.BMP,resources/DR.BMP,Door4,-0.259114583,-0.055989583,1,0,0,2.2927,optionLeft,80,10150,5,18,0,18,0,1,,,,,,,,,,,,,,,,,,,,,,,,,,,,,,,,,,,,,,,
,,,,,,,,2023-08-16_08h38.45.480,HF_wild_card,2022.2.4,Win32,60.02040694,602e88f43a3b7aa44bf522e6,64d2fd46c836a06233681665,64dc7ccdad403bec63a1d418,,,,,,,decisionTrl,resources/DP.BMP,resources/DG.BMP,Door2,-0.346354167,-0.084635417,1,0,0,1.8653,optionLeft,20,10170,5,19,0,19,0,1,,,,,,,,,,,,,,,,,,,,,,,,,,,,,,,,,,,,,,,
,,,,,,,,2023-08-16_08h38.45.480,HF_wild_card,2022.2.4,Win32,60.02040694,602e88f43a3b7aa44bf522e6,64d2fd46c836a06233681665,64dc7ccdad403bec63a1d418,,,,,,,decisionTrl,resources/DY.BMP,resources/DR.BMP,Door4,-0.302083333,-0.126302083,1,0,0,1.5462,optionLeft,80,10250,5,20,0,20,0,1,,,,,,,,,,,,,,,,,,,,,,,,,,,,,,,,,,,,,,,
,,,,,,,,2023-08-16_08h38.45.480,HF_wild_card,2022.2.4,Win32,60.02040694,602e88f43a3b7aa44bf522e6,64d2fd46c836a06233681665,64dc7ccdad403bec63a1d418,,,,,,,decisionTrl,resources/DY.BMP,resources/DR.BMP,Door4,-0.354166667,-0.067708333,1,0,0,1.4605,optionLeft,80,10330,5,21,0,21,0,1,,,,,,,,,,,,,,,,,,,,,,,,,,,,,,,,,,,,,,,
,,,,,,,,2023-08-16_08h38.45.480,HF_wild_card,2022.2.4,Win32,60.02040694,602e88f43a3b7aa44bf522e6,64d2fd46c836a06233681665,64dc7ccdad403bec63a1d418,,,,,,,ctch,resources/DG.BMP,resources/DY.BMP,Door4,0.338541667,-0.037760417,1,0,0,0.9983,optionRight,60,10390,5,22,0,22,0,1,,,,,,,,,,,,,,,,,,,,,,,,,,,,,,,,,,,,,,,
,,,,,,,,2023-08-16_08h38.45.480,HF_wild_card,2022.2.4,Win32,60.02040694,602e88f43a3b7aa44bf522e6,64d2fd46c836a06233681665,64dc7ccdad403bec63a1d418,,,,,,,decisionTrl,resources/DP.BMP,resources/DBN.BMP,Door2,-0.311197917,-0.040364583,1,0,0,1.9317,optionLeft,40,10430,5,23,0,23,0,1,,,,,,,,,,,,,,,,,,,,,,,,,,,,,,,,,,,,,,,
,,,,,,,,2023-08-16_08h38.45.480,HF_wild_card,2022.2.4,Win32,60.02040694,602e88f43a3b7aa44bf522e6,64d2fd46c836a06233681665,64dc7ccdad403bec63a1d418,,,,,,,sngl,resources/Empty.png,resources/DG.BMP,Door1,0.290364583,-0.022135417,1,0,0,1.3013,optionRight,30,10460,5,24,0,24,0,1,,,,,,,,,,,,,,,,,,,,,,,,,,,,,,,,,,,,,,,
,,,,,,,,2023-08-16_08h38.45.480,HF_wild_card,2022.2.4,Win32,60.02040694,602e88f43a3b7aa44bf522e6,64d2fd46c836a06233681665,64dc7ccdad403bec63a1d418,,,,,,,decisionTrl,resources/DG.BMP,resources/DP.BMP,Door2,0.294270833,-0.048177083,1,0,0,1.5599,optionRight,20,10480,5,25,0,25,0,1,,,,,,,,,,,,,,,,,,,,,,,,,,,,,,,,,,,,,,,
,,,,,,,,2023-08-16_08h38.45.480,HF_wild_card,2022.2.4,Win32,60.02040694,602e88f43a3b7aa44bf522e6,64d2fd46c836a06233681665,64dc7ccdad403bec63a1d418,,,,,,,decisionTrl,resources/DBN.BMP,resources/DY.BMP,Door4,0.309895833,-0.0625,1,0,0,1.531,optionRight,80,10560,5,26,0,26,0,1,,,,,,,,,,,,,,,,,,,,,,,,,,,,,,,,,,,,,,,
,,,,,,,,2023-08-16_08h38.45.480,HF_wild_card,2022.2.4,Win32,60.02040694,602e88f43a3b7aa44bf522e6,64d2fd46c836a06233681665,64dc7ccdad403bec63a1d418,,,,,,,decisionTrl,resources/DY.BMP,resources/DBN.BMP,Door4,-0.260416667,-0.015625,1,0,0,1.1818,optionLeft,80,10640,5,27,0,27,0,1,,,,,,,,,,,,,,,,,,,,,,,,,,,,,,,,,,,,,,,
,,,,,,,,2023-08-16_08h38.45.480,HF_wild_card,2022.2.4,Win32,60.02040694,602e88f43a3b7aa44bf522e6,64d2fd46c836a06233681665,64dc7ccdad403bec63a1d418,,,,,,,ctch,resources/DY.BMP,resources/DG.BMP,Door4,-0.25,-0.05078125,1,0,0,1.7328,optionLeft,60,10700,5,28,0,28,0,1,,,,,,,,,,,,,,,,,,,,,,,,,,,,,,,,,,,,,,,
,,,,,,,,2023-08-16_08h38.45.480,HF_wild_card,2022.2.4,Win32,60.02040694,602e88f43a3b7aa44bf522e6,64d2fd46c836a06233681665,64dc7ccdad403bec63a1d418,,,,,,,ctch,resources/DP.BMP,resources/DR.BMP,Door2,-0.328125,-0.0546875,1,0,0,1.4149,optionLeft,40,10740,5,29,0,29,0,1,,,,,,,,,,,,,,,,,,,,,,,,,,,,,,,,,,,,,,,
,,,,,,,,2023-08-16_08h38.45.480,HF_wild_card,2022.2.4,Win32,60.02040694,602e88f43a3b7aa44bf522e6,64d2fd46c836a06233681665,64dc7ccdad403bec63a1d418,,,,,,,sngl,resources/DY.BMP,resources/Empty.png,Door4,-0.259114583,-0.07421875,1,0,0,1.3609,optionLeft,80,10820,5,30,0,30,0,1,,,,,,,,,,,,,,,,,,,,,,,,,,,,,,,,,,,,,,,
,,,,,,,,2023-08-16_08h38.45.480,HF_wild_card,2022.2.4,Win32,60.02040694,602e88f43a3b7aa44bf522e6,64d2fd46c836a06233681665,64dc7ccdad403bec63a1d418,,,,,,,decisionTrl,resources/DR.BMP,resources/DY.BMP,Door4,0.348958333,-0.018229167,1,0,0,1.5777,optionRight,60,10880,5,31,0,31,0,1,,,,,,,,,,,,,,,,,,,,,,,,,,,,,,,,,,,,,,,
,,,,,,,,2023-08-16_08h38.45.480,HF_wild_card,2022.2.4,Win32,60.02040694,602e88f43a3b7aa44bf522e6,64d2fd46c836a06233681665,64dc7ccdad403bec63a1d418,,,,,,,decisionTrl,resources/DR.BMP,resources/DY.BMP,Door4,0.290364583,-0.020833333,1,0,0,1.887,optionRight,80,10960,5,32,0,32,0,1,,,,,,,,,,,,,,,,,,,,,,,,,,,,,,,,,,,,,,,
,,,,,,,,2023-08-16_08h38.45.480,HF_wild_card,2022.2.4,Win32,60.02040694,602e88f43a3b7aa44bf522e6,64d2fd46c836a06233681665,64dc7ccdad403bec63a1d418,,,,,,,decisionTrl,resources/DR.BMP,resources/DY.BMP,Door4,0.298177083,-0.1015625,1,0,0,1.6257,optionRight,80,11040,5,33,0,33,0,1,,,,,,,,,,,,,,,,,,,,,,,,,,,,,,,,,,,,,,,
,,,,,,,,2023-08-16_08h38.45.480,HF_wild_card,2022.2.4,Win32,60.02040694,602e88f43a3b7aa44bf522e6,64d2fd46c836a06233681665,64dc7ccdad403bec63a1d418,,,,,,,sngl,resources/DBN.BMP,resources/Empty.png,WildCard_NonEx,-0.157552083,0.0078125,1,0,0,1.4451,optionLeft,45,11085,5,34,0,34,0,1,,,,,,,,,,,,,,,,,,,,,,,,,,,,,,,,,,,,,,,
,,,,,,,,2023-08-16_08h38.45.480,HF_wild_card,2022.2.4,Win32,60.02040694,602e88f43a3b7aa44bf522e6,64d2fd46c836a06233681665,64dc7ccdad403bec63a1d418,,,,,,,decisionTrl,resources/DP.BMP,resources/DG.BMP,Door2,-0.298177083,-0.024739583,1,0,0,1.784,optionLeft,20,11105,5,35,0,35,0,1,,,,,,,,,,,,,,,,,,,,,,,,,,,,,,,,,,,,,,,
,,,,,,,,2023-08-16_08h38.45.480,HF_wild_card,2022.2.4,Win32,60.02040694,602e88f43a3b7aa44bf522e6,64d2fd46c836a06233681665,64dc7ccdad403bec63a1d418,,,,,,,sngl,resources/Empty.png,resources/DBN.BMP,WildCard_NonEx,0.21875,-0.01171875,1,0,0,1.0014,optionRight,55,11160,5,36,0,36,0,1,,,,,,,,,,,,,,,,,,,,,,,,,,,,,,,,,,,,,,,
,,,,,,,,2023-08-16_08h38.45.480,HF_wild_card,2022.2.4,Win32,60.02040694,602e88f43a3b7aa44bf522e6,64d2fd46c836a06233681665,64dc7ccdad403bec63a1d418,,,,,,,decisionTrl,resources/DR.BMP,resources/DY.BMP,Door4,0.39453125,-0.053385417,1,0,0,1.2767,optionRight,60,11220,5,37,0,37,0,1,,,,,,,,,,,,,,,,,,,,,,,,,,,,,,,,,,,,,,,
,,,,,,,,2023-08-16_08h38.45.480,HF_wild_card,2022.2.4,Win32,60.02040694,602e88f43a3b7aa44bf522e6,64d2fd46c836a06233681665,64dc7ccdad403bec63a1d418,,,,,,,ctch,resources/DR.BMP,resources/DP.BMP,Door3,-0.20703125,-0.0703125,1,0,0,1.0018,optionLeft,70,11290,5,38,0,38,0,1,,,,,,,,,,,,,,,,,,,,,,,,,,,,,,,,,,,,,,,
,,,,,,,,2023-08-16_08h38.45.480,HF_wild_card,2022.2.4,Win32,60.02040694,602e88f43a3b7aa44bf522e6,64d2fd46c836a06233681665,64dc7ccdad403bec63a1d418,,,,,,,sngl,resources/Empty.png,resources/DBN.BMP,WildCard_NonEx,0.225260417,0.022135417,1,0,0,0.9877,optionRight,45,11335,5,39,0,39,0,1,,,,,,,,,,,,,,,,,,,,,,,,,,,,,,,,,,,,,,,
,,,,,,,,2023-08-16_08h38.45.480,HF_wild_card,2022.2.4,Win32,60.02040694,602e88f43a3b7aa44bf522e6,64d2fd46c836a06233681665,64dc7ccdad403bec63a1d418,,,,,,,decisionTrl,resources/DR.BMP,resources/DBN.BMP,Door3,-0.272135417,-0.079427083,1,0,0,1.1111,optionLeft,70,11405,5,40,0,40,0,1,,,,,,,,,,,,,,,,,,,,,,,,,,,,,,,,,,,,,,,
,,,,,,,,2023-08-16_08h38.45.480,HF_wild_card,2022.2.4,Win32,60.02040694,602e88f43a3b7aa44bf522e6,64d2fd46c836a06233681665,64dc7ccdad403bec63a1d418,,,,,,,decisionTrl,resources/DG.BMP,resources/DP.BMP,Door2,0.233072917,-0.020833333,1,0,0,1.3899,optionRight,40,11445,5,41,0,41,0,1,,,,,,,,,,,,,,,,,,,,,,,,,,,,,,,,,,,,,,,
,,,,,,,,2023-08-16_08h38.45.480,HF_wild_card,2022.2.4,Win32,60.02040694,602e88f43a3b7aa44bf522e6,64d2fd46c836a06233681665,64dc7ccdad403bec63a1d418,,,,,,,ctch,resources/DR.BMP,resources/DP.BMP,Door3,-0.305989583,-0.03515625,1,0,0,1.3296,optionLeft,70,11515,5,42,0,42,0,1,,,,,,,,,,,,,,,,,,,,,,,,,,,,,,,,,,,,,,,
,,,,,,,,2023-08-16_08h38.45.480,HF_wild_card,2022.2.4,Win32,60.02040694,602e88f43a3b7aa44bf522e6,64d2fd46c836a06233681665,64dc7ccdad403bec63a1d418,,,,,,,decisionTrl,resources/DP.BMP,resources/DG.BMP,Door1,0.225260417,-0.006510417,1,0,0,1.2907,optionRight,30,11545,5,43,0,43,0,1,,,,,,,,,,,,,,,,,,,,,,,,,,,,,,,,,,,,,,,
,,,,,,,,2023-08-16_08h38.45.480,HF_wild_card,2022.2.4,Win32,60.02040694,602e88f43a3b7aa44bf522e6,64d2fd46c836a06233681665,64dc7ccdad403bec63a1d418,,,,,,,,,,,,,,,,,,,,,,,,,,4,0,4,0,1,,,,,,,,,,,,,,,,,,,,,,,,,,,,,,,,,,
,,,,,,,,2023-08-16_08h38.45.480,HF_wild_card,2022.2.4,Win32,60.02040694,602e88f43a3b7aa44bf522e6,64d2fd46c836a06233681665,64dc7ccdad403bec63a1d418,,,,,,,decisionTrl,resources/DG.BMP,resources/DP.BMP,Door1,-0.186197917,-0.169270833,1,0,0,1.8229,optionLeft,30,11575,6,0,0,0,0,1,,,,,,,,,,,,,,,,,,,,,,,,,,,,,,,,,,,,,,,
,,,,,,,,2023-08-16_08h38.45.480,HF_wild_card,2022.2.4,Win32,60.02040694,602e88f43a3b7aa44bf522e6,64d2fd46c836a06233681665,64dc7ccdad403bec63a1d418,,,,,,,decisionTrl,resources/DG.BMP,resources/DP.BMP,Door2,0.295572917,-0.028645833,1,0,0,1.1042,optionRight,40,11615,6,1,0,1,0,1,,,,,,,,,,,,,,,,,,,,,,,,,,,,,,,,,,,,,,,
,,,,,,,,2023-08-16_08h38.45.480,HF_wild_card,2022.2.4,Win32,60.02040694,602e88f43a3b7aa44bf522e6,64d2fd46c836a06233681665,64dc7ccdad403bec63a1d418,,,,,,,decisionTrl,resources/DP.BMP,resources/DG.BMP,Door2,-0.282552083,-0.05078125,1,0,0,1.2963,optionLeft,40,11655,6,2,0,2,0,1,,,,,,,,,,,,,,,,,,,,,,,,,,,,,,,,,,,,,,,
,,,,,,,,2023-08-16_08h38.45.480,HF_wild_card,2022.2.4,Win32,60.02040694,602e88f43a3b7aa44bf522e6,64d2fd46c836a06233681665,64dc7ccdad403bec63a1d418,,,,,,,decisionTrl,resources/DY.BMP,resources/DR.BMP,Door4,-0.197916667,-0.046875,1,0,0,1.0986,optionLeft,80,11735,6,3,0,3,0,1,,,,,,,,,,,,,,,,,,,,,,,,,,,,,,,,,,,,,,,
,,,,,,,,2023-08-16_08h38.45.480,HF_wild_card,2022.2.4,Win32,60.02040694,602e88f43a3b7aa44bf522e6,64d2fd46c836a06233681665,64dc7ccdad403bec63a1d418,,,,,,,decisionTrl,resources/DP.BMP,resources/DG.BMP,Door2,-0.28125,-0.055989583,1,0,0,1.1631,optionLeft,20,11755,6,4,0,4,0,1,,,,,,,,,,,,,,,,,,,,,,,,,,,,,,,,,,,,,,,
,,,,,,,,2023-08-16_08h38.45.480,HF_wild_card,2022.2.4,Win32,60.02040694,602e88f43a3b7aa44bf522e6,64d2fd46c836a06233681665,64dc7ccdad403bec63a1d418,,,,,,,sngl,resources/Empty.png,resources/DG.BMP,Door1,0.28125,-0.026041667,1,0,0,1.3003,optionRight,30,11785,6,5,0,5,0,1,,,,,,,,,,,,,,,,,,,,,,,,,,,,,,,,,,,,,,,
,,,,,,,,2023-08-16_08h38.45.480,HF_wild_card,2022.2.4,Win32,60.02040694,602e88f43a3b7aa44bf522e6,64d2fd46c836a06233681665,64dc7ccdad403bec63a1d418,,,,,,,decisionTrl,resources/DR.BMP,resources/DBN.BMP,Door3,-0.231770833,-0.0625,1,0,0,0.9123,optionLeft,70,11855,6,6,0,6,0,1,,,,,,,,,,,,,,,,,,,,,,,,,,,,,,,,,,,,,,,
,,,,,,,,2023-08-16_08h38.45.480,HF_wild_card,2022.2.4,Win32,60.02040694,602e88f43a3b7aa44bf522e6,64d2fd46c836a06233681665,64dc7ccdad403bec63a1d418,,,,,,,sngl,resources/DBN.BMP,resources/Empty.png,WildCard_NonEx,-0.227864583,-0.05859375,1,0,0,1.3884,optionLeft,55,11910,6,7,0,7,0,1,,,,,,,,,,,,,,,,,,,,,,,,,,,,,,,,,,,,,,,
,,,,,,,,2023-08-16_08h38.45.480,HF_wild_card,2022.2.4,Win32,60.02040694,602e88f43a3b7aa44bf522e6,64d2fd46c836a06233681665,64dc7ccdad403bec63a1d418,,,,,,,decisionTrl,resources/DY.BMP,resources/DBN.BMP,Door4,-0.2265625,-0.032552083,1,0,0,1.1926,optionLeft,60,11970,6,8,0,8,0,1,,,,,,,,,,,,,,,,,,,,,,,,,,,,,,,,,,,,,,,
,,,,,,,,2023-08-16_08h38.45.480,HF_wild_card,2022.2.4,Win32,60.02040694,602e88f43a3b7aa44bf522e6,64d2fd46c836a06233681665,64dc7ccdad403bec63a1d418,,,,,,,decisionTrl,resources/DBN.BMP,resources/DY.BMP,Door4,0.248697917,-0.03515625,1,0,0,1.3274,optionRight,60,12030,6,9,0,9,0,1,,,,,,,,,,,,,,,,,,,,,,,,,,,,,,,,,,,,,,,
,,,,,,,,2023-08-16_08h38.45.480,HF_wild_card,2022.2.4,Win32,60.02040694,602e88f43a3b7aa44bf522e6,64d2fd46c836a06233681665,64dc7ccdad403bec63a1d418,,,,,,,sngl,resources/DY.BMP,resources/Empty.png,Door4,-0.255208333,-0.005208333,1,0,0,1.141,optionLeft,60,12090,6,10,0,10,0,1,,,,,,,,,,,,,,,,,,,,,,,,,,,,,,,,,,,,,,,
,,,,,,,,2023-08-16_08h38.45.480,HF_wild_card,2022.2.4,Win32,60.02040694,602e88f43a3b7aa44bf522e6,64d2fd46c836a06233681665,64dc7ccdad403bec63a1d418,,,,,,,ctch,resources/DY.BMP,resources/DG.BMP,Door4,-0.248697917,-0.04296875,1,0,0,1.7444,optionLeft,80,12170,6,11,0,11,0,1,,,,,,,,,,,,,,,,,,,,,,,,,,,,,,,,,,,,,,,
,,,,,,,,2023-08-16_08h38.45.480,HF_wild_card,2022.2.4,Win32,60.02040694,602e88f43a3b7aa44bf522e6,64d2fd46c836a06233681665,64dc7ccdad403bec63a1d418,,,,,,,sngl,resources/Empty.png,resources/DR.BMP,Door3,0.213541667,-0.065104167,1,0,0,1.162,optionRight,70,12240,6,12,0,12,0,1,,,,,,,,,,,,,,,,,,,,,,,,,,,,,,,,,,,,,,,
,,,,,,,,2023-08-16_08h38.45.480,HF_wild_card,2022.2.4,Win32,60.02040694,602e88f43a3b7aa44bf522e6,64d2fd46c836a06233681665,64dc7ccdad403bec63a1d418,,,,,,,ctch,resources/DR.BMP,resources/DP.BMP,Door3,-0.294270833,-0.048177083,1,0,0,2.5482,optionLeft,70,12310,6,13,0,13,0,1,,,,,,,,,,,,,,,,,,,,,,,,,,,,,,,,,,,,,,,
,,,,,,,,2023-08-16_08h38.45.480,HF_wild_card,2022.2.4,Win32,60.02040694,602e88f43a3b7aa44bf522e6,64d2fd46c836a06233681665,64dc7ccdad403bec63a1d418,,,,,,,decisionTrl,resources/DBN.BMP,resources/DR.BMP,Door3,0.234375,-0.01953125,1,0,0,1.1146,optionRight,70,12380,6,14,0,14,0,1,,,,,,,,,,,,,,,,,,,,,,,,,,,,,,,,,,,,,,,
,,,,,,,,2023-08-16_08h38.45.480,HF_wild_card,2022.2.4,Win32,60.02040694,602e88f43a3b7aa44bf522e6,64d2fd46c836a06233681665,64dc7ccdad403bec63a1d418,,,,,,,ctch,resources/DR.BMP,resources/DP.BMP,Door3,-0.184895833,-0.028645833,1,0,0,5.2935,optionLeft,70,12450,6,15,0,15,0,1,,,,,,,,,,,,,,,,,,,,,,,,,,,,,,,,,,,,,,,
,,,,,,,,2023-08-16_08h38.45.480,HF_wild_card,2022.2.4,Win32,60.02040694,602e88f43a3b7aa44bf522e6,64d2fd46c836a06233681665,64dc7ccdad403bec63a1d418,,,,,,,decisionTrl,resources/DG.BMP,resources/DBN.BMP,Door1,-0.270833333,-0.053385417,1,0,0,2.0286,optionLeft,30,12480,6,16,0,16,0,1,,,,,,,,,,,,,,,,,,,,,,,,,,,,,,,,,,,,,,,
,,,,,,,,2023-08-16_08h38.45.480,HF_wild_card,2022.2.4,Win32,60.02040694,602e88f43a3b7aa44bf522e6,64d2fd46c836a06233681665,64dc7ccdad403bec63a1d418,,,,,,,decisionTrl,resources/DR.BMP,resources/DY.BMP,Door4,0.315104167,0.014322917,1,0,0,1.1624,optionRight,60,12540,6,17,0,17,0,1,,,,,,,,,,,,,,,,,,,,,,,,,,,,,,,,,,,,,,,
,,,,,,,,2023-08-16_08h38.45.480,HF_wild_card,2022.2.4,Win32,60.02040694,602e88f43a3b7aa44bf522e6,64d2fd46c836a06233681665,64dc7ccdad403bec63a1d418,,,,,,,ctch,resources/DP.BMP,resources/DR.BMP,Door2,-0.27734375,-0.048177083,1,0,0,3.5959,optionLeft,20,12560,6,18,0,18,0,1,,,,,,,,,,,,,,,,,,,,,,,,,,,,,,,,,,,,,,,
,,,,,,,,2023-08-16_08h38.45.480,HF_wild_card,2022.2.4,Win32,60.02040694,602e88f43a3b7aa44bf522e6,64d2fd46c836a06233681665,64dc7ccdad403bec63a1d418,,,,,,,sngl,resources/Empty.png,resources/DY.BMP,Door4,0.260416667,0.016927083,1,0,0,1.4031,optionRight,80,12640,6,19,0,19,0,1,,,,,,,,,,,,,,,,,,,,,,,,,,,,,,,,,,,,,,,
,,,,,,,,2023-08-16_08h38.45.480,HF_wild_card,2022.2.4,Win32,60.02040694,602e88f43a3b7aa44bf522e6,64d2fd46c836a06233681665,64dc7ccdad403bec63a1d418,,,,,,,ctch,resources/DP.BMP,resources/DR.BMP,Door3,0.236979167,-0.024739583,1,0,0,2.4835,optionRight,70,12710,6,20,0,20,0,1,,,,,,,,,,,,,,,,,,,,,,,,,,,,,,,,,,,,,,,
,,,,,,,,2023-08-16_08h38.45.480,HF_wild_card,2022.2.4,Win32,60.02040694,602e88f43a3b7aa44bf522e6,64d2fd46c836a06233681665,64dc7ccdad403bec63a1d418,,,,,,,sngl,resources/DR.BMP,resources/Empty.png,Door3,-0.263020833,-0.037760417,1,0,0,1.5838,optionLeft,70,12780,6,21,0,21,0,1,,,,,,,,,,,,,,,,,,,,,,,,,,,,,,,,,,,,,,,
,,,,,,,,2023-08-16_08h38.45.480,HF_wild_card,2022.2.4,Win32,60.02040694,602e88f43a3b7aa44bf522e6,64d2fd46c836a06233681665,64dc7ccdad403bec63a1d418,,,,,,,decisionTrl,resources/DR.BMP,resources/DY.BMP,Door4,0.311197917,-0.009114583,1,0,0,1.3095,optionRight,80,12860,6,22,0,22,0,1,,,,,,,,,,,,,,,,,,,,,,,,,,,,,,,,,,,,,,,
,,,,,,,,2023-08-16_08h38.45.480,HF_wild_card,2022.2.4,Win32,60.02040694,602e88f43a3b7aa44bf522e6,64d2fd46c836a06233681665,64dc7ccdad403bec63a1d418,,,,,,,decisionTrl,resources/DY.BMP,resources/DR.BMP,Door4,-0.255208333,-0.04296875,1,0,0,1.8672,optionLeft,60,12920,6,23,0,23,0,1,,,,,,,,,,,,,,,,,,,,,,,,,,,,,,,,,,,,,,,
,,,,,,,,2023-08-16_08h38.45.480,HF_wild_card,2022.2.4,Win32,60.02040694,602e88f43a3b7aa44bf522e6,64d2fd46c836a06233681665,64dc7ccdad403bec63a1d418,,,,,,,sngl,resources/Empty.png,resources/DBN.BMP,WildCard_NonEx,0.227864583,0.032552083,1,0,0,1.4535,optionRight,55,12975,6,24,0,24,0,1,,,,,,,,,,,,,,,,,,,,,,,,,,,,,,,,,,,,,,,
,,,,,,,,2023-08-16_08h38.45.480,HF_wild_card,2022.2.4,Win32,60.02040694,602e88f43a3b7aa44bf522e6,64d2fd46c836a06233681665,64dc7ccdad403bec63a1d418,,,,,,,decisionTrl,resources/DR.BMP,resources/DY.BMP,Door4,0.2578125,-0.049479167,1,0,0,1.5034,optionRight,80,13055,6,25,0,25,0,1,,,,,,,,,,,,,,,,,,,,,,,,,,,,,,,,,,,,,,,
,,,,,,,,2023-08-16_08h38.45.480,HF_wild_card,2022.2.4,Win32,60.02040694,602e88f43a3b7aa44bf522e6,64d2fd46c836a06233681665,64dc7ccdad403bec63a1d418,,,,,,,decisionTrl,resources/DBN.BMP,resources/DP.BMP,Door2,0.311197917,-0.045572917,1,0,0,1.462,optionRight,20,13075,6,26,0,26,0,1,,,,,,,,,,,,,,,,,,,,,,,,,,,,,,,,,,,,,,,
,,,,,,,,2023-08-16_08h38.45.480,HF_wild_card,2022.2.4,Win32,60.02040694,602e88f43a3b7aa44bf522e6,64d2fd46c836a06233681665,64dc7ccdad403bec63a1d418,,,,,,,decisionTrl,resources/DG.BMP,resources/DP.BMP,Door2,0.296875,0.016927083,1,0,0,1.1484,optionRight,20,13095,6,27,0,27,0,1,,,,,,,,,,,,,,,,,,,,,,,,,,,,,,,,,,,,,,,
,,,,,,,,2023-08-16_08h38.45.480,HF_wild_card,2022.2.4,Win32,60.02040694,602e88f43a3b7aa44bf522e6,64d2fd46c836a06233681665,64dc7ccdad403bec63a1d418,,,,,,,decisionTrl,resources/DP.BMP,resources/DBN.BMP,Door2,-0.276041667,-0.032552083,1,0,0,0.9861,optionLeft,20,13115,6,28,0,28,0,1,,,,,,,,,,,,,,,,,,,,,,,,,,,,,,,,,,,,,,,
,,,,,,,,2023-08-16_08h38.45.480,HF_wild_card,2022.2.4,Win32,60.02040694,602e88f43a3b7aa44bf522e6,64d2fd46c836a06233681665,64dc7ccdad403bec63a1d418,,,,,,,sngl,resources/Empty.png,resources/DBN.BMP,WildCard_NonEx,0.309895833,0.002604167,1,0,0,0.889,optionRight,45,13160,6,29,0,29,0,1,,,,,,,,,,,,,,,,,,,,,,,,,,,,,,,,,,,,,,,
,,,,,,,,2023-08-16_08h38.45.480,HF_wild_card,2022.2.4,Win32,60.02040694,602e88f43a3b7aa44bf522e6,64d2fd46c836a06233681665,64dc7ccdad403bec63a1d418,,,,,,,decisionTrl,resources/DG.BMP,resources/DP.BMP,Door1,-0.263020833,0.013020833,1,0,0,2.0801,optionLeft,30,13190,6,30,0,30,0,1,,,,,,,,,,,,,,,,,,,,,,,,,,,,,,,,,,,,,,,
,,,,,,,,2023-08-16_08h38.45.480,HF_wild_card,2022.2.4,Win32,60.02040694,602e88f43a3b7aa44bf522e6,64d2fd46c836a06233681665,64dc7ccdad403bec63a1d418,,,,,,,decisionTrl,resources/DY.BMP,resources/DR.BMP,Door3,0.290364583,0.016927083,1,0,0,2.0077,optionRight,70,13260,6,31,0,31,0,1,,,,,,,,,,,,,,,,,,,,,,,,,,,,,,,,,,,,,,,
,,,,,,,,2023-08-16_08h38.45.480,HF_wild_card,2022.2.4,Win32,60.02040694,602e88f43a3b7aa44bf522e6,64d2fd46c836a06233681665,64dc7ccdad403bec63a1d418,,,,,,,decisionTrl,resources/DP.BMP,resources/DG.BMP,Door2,-0.287760417,-0.083333333,1,0,0,9.2802,optionLeft,40,13300,6,32,0,32,0,1,,,,,,,,,,,,,,,,,,,,,,,,,,,,,,,,,,,,,,,
,,,,,,,,2023-08-16_08h38.45.480,HF_wild_card,2022.2.4,Win32,60.02040694,602e88f43a3b7aa44bf522e6,64d2fd46c836a06233681665,64dc7ccdad403bec63a1d418,,,,,,,ctch,resources/DY.BMP,resources/DG.BMP,Door4,-0.319010417,-0.135416667,1,0,0,1.2633,optionLeft,60,13360,6,33,0,33,0,1,,,,,,,,,,,,,,,,,,,,,,,,,,,,,,,,,,,,,,,
,,,,,,,,2023-08-16_08h38.45.480,HF_wild_card,2022.2.4,Win32,60.02040694,602e88f43a3b7aa44bf522e6,64d2fd46c836a06233681665,64dc7ccdad403bec63a1d418,,,,,,,sngl,resources/DP.BMP,resources/Empty.png,Door2,-0.389322917,-0.111979167,1,0,0,2.0372,optionLeft,20,13380,6,34,0,34,0,1,,,,,,,,,,,,,,,,,,,,,,,,,,,,,,,,,,,,,,,
,,,,,,,,2023-08-16_08h38.45.480,HF_wild_card,2022.2.4,Win32,60.02040694,602e88f43a3b7aa44bf522e6,64d2fd46c836a06233681665,64dc7ccdad403bec63a1d418,,,,,,,sngl,resources/DG.BMP,resources/Empty.png,Door1,-0.200520833,-0.014322917,1,0,0,1.448,optionLeft,30,13410,6,35,0,35,0,1,,,,,,,,,,,,,,,,,,,,,,,,,,,,,,,,,,,,,,,
,,,,,,,,2023-08-16_08h38.45.480,HF_wild_card,2022.2.4,Win32,60.02040694,602e88f43a3b7aa44bf522e6,64d2fd46c836a06233681665,64dc7ccdad403bec63a1d418,,,,,,,ctch,resources/DG.BMP,resources/DY.BMP,Door4,0.263020833,-0.032552083,1,0,0,2.2366,optionRight,60,13470,6,36,0,36,0,1,,,,,,,,,,,,,,,,,,,,,,,,,,,,,,,,,,,,,,,
,,,,,,,,2023-08-16_08h38.45.480,HF_wild_card,2022.2.4,Win32,60.02040694,602e88f43a3b7aa44bf522e6,64d2fd46c836a06233681665,64dc7ccdad403bec63a1d418,,,,,,,decisionTrl,resources/DR.BMP,resources/DY.BMP,Door3,-0.248697917,-0.046875,1,0,0,1.0749,optionLeft,70,13540,6,37,0,37,0,1,,,,,,,,,,,,,,,,,,,,,,,,,,,,,,,,,,,,,,,
,,,,,,,,2023-08-16_08h38.45.480,HF_wild_card,2022.2.4,Win32,60.02040694,602e88f43a3b7aa44bf522e6,64d2fd46c836a06233681665,64dc7ccdad403bec63a1d418,,,,,,,decisionTrl,resources/DBN.BMP,resources/DG.BMP,WildCard_NonEx,-0.21484375,-0.00390625,1,0,0,1.9627,optionLeft,55,13595,6,38,0,38,0,1,,,,,,,,,,,,,,,,,,,,,,,,,,,,,,,,,,,,,,,
,,,,,,,,2023-08-16_08h38.45.480,HF_wild_card,2022.2.4,Win32,60.02040694,602e88f43a3b7aa44bf522e6,64d2fd46c836a06233681665,64dc7ccdad403bec63a1d418,,,,,,,sngl,resources/DBN.BMP,resources/Empty.png,WildCard_NonEx,-0.2421875,0,1,0,0,1.0826,optionLeft,45,13640,6,39,0,39,0,1,,,,,,,,,,,,,,,,,,,,,,,,,,,,,,,,,,,,,,,
,,,,,,,,2023-08-16_08h38.45.480,HF_wild_card,2022.2.4,Win32,60.02040694,602e88f43a3b7aa44bf522e6,64d2fd46c836a06233681665,64dc7ccdad403bec63a1d418,,,,,,,decisionTrl,resources/DP.BMP,resources/DG.BMP,Door1,0.256510417,-0.059895833,1,0,0,4.1767,optionRight,30,13670,6,40,0,40,0,1,,,,,,,,,,,,,,,,,,,,,,,,,,,,,,,,,,,,,,,
,,,,,,,,2023-08-16_08h38.45.480,HF_wild_card,2022.2.4,Win32,60.02040694,602e88f43a3b7aa44bf522e6,64d2fd46c836a06233681665,64dc7ccdad403bec63a1d418,,,,,,,decisionTrl,resources/DY.BMP,resources/DR.BMP,Door3,0.307291667,-0.1328125,1,0,0,1.8302,optionRight,70,13740,6,41,0,41,0,1,,,,,,,,,,,,,,,,,,,,,,,,,,,,,,,,,,,,,,,
,,,,,,,,2023-08-16_08h38.45.480,HF_wild_card,2022.2.4,Win32,60.02040694,602e88f43a3b7aa44bf522e6,64d2fd46c836a06233681665,64dc7ccdad403bec63a1d418,,,,,,,sngl,resources/Empty.png,resources/DP.BMP,Door2,0.255208333,-0.063802083,1,0,0,1.354,optionRight,40,13780,6,42,0,42,0,1,,,,,,,,,,,,,,,,,,,,,,,,,,,,,,,,,,,,,,,
,,,,,,,,2023-08-16_08h38.45.480,HF_wild_card,2022.2.4,Win32,60.02040694,602e88f43a3b7aa44bf522e6,64d2fd46c836a06233681665,64dc7ccdad403bec63a1d418,,,,,,,ctch,resources/DG.BMP,resources/DY.BMP,Door4,0.217447917,-0.052083333,1,0,0,1.5784,optionRight,60,13840,6,43,0,43,0,1,,,,,,,,,,,,,,,,,,,,,,,,,,,,,,,,,,,,,,,
,,,,,,,,2023-08-16_08h38.45.480,HF_wild_card,2022.2.4,Win32,60.02040694,602e88f43a3b7aa44bf522e6,64d2fd46c836a06233681665,64dc7ccdad403bec63a1d418,,,,,,,,,,,,,,,,,,,,,,,,,,5,0,5,0,1,,,,,,,,,,,,,,,,,,,,,,,,,,,,,,,,,,
,,,,,,,,2023-08-16_08h38.45.480,HF_wild_card,2022.2.4,Win32,60.02040694,602e88f43a3b7aa44bf522e6,64d2fd46c836a06233681665,64dc7ccdad403bec63a1d418,,,,,,,ctch,resources/DR.BMP,resources/DP.BMP,Door3,-0.255208333,-0.09765625,1,0,0,2.1797,optionLeft,70,13910,7,0,0,0,0,1,,,,,,,,,,,,,,,,,,,,,,,,,,,,,,,,,,,,,,,
,,,,,,,,2023-08-16_08h38.45.480,HF_wild_card,2022.2.4,Win32,60.02040694,602e88f43a3b7aa44bf522e6,64d2fd46c836a06233681665,64dc7ccdad403bec63a1d418,,,,,,,ctch,resources/DP.BMP,resources/DR.BMP,Door3,0.287760417,-0.083333333,1,0,0,1.714,optionRight,70,13980,7,1,0,1,0,1,,,,,,,,,,,,,,,,,,,,,,,,,,,,,,,,,,,,,,,
,,,,,,,,2023-08-16_08h38.45.480,HF_wild_card,2022.2.4,Win32,60.02040694,602e88f43a3b7aa44bf522e6,64d2fd46c836a06233681665,64dc7ccdad403bec63a1d418,,,,,,,decisionTrl,resources/DY.BMP,resources/DR.BMP,Door3,0.30859375,-0.0546875,1,0,0,1.95,optionRight,70,14050,7,2,0,2,0,1,,,,,,,,,,,,,,,,,,,,,,,,,,,,,,,,,,,,,,,
,,,,,,,,2023-08-16_08h38.45.480,HF_wild_card,2022.2.4,Win32,60.02040694,602e88f43a3b7aa44bf522e6,64d2fd46c836a06233681665,64dc7ccdad403bec63a1d418,,,,,,,ctch,resources/DG.BMP,resources/DY.BMP,Door4,0.294270833,-0.075520833,1,0,0,1.5356,optionRight,60,14110,7,3,0,3,0,1,,,,,,,,,,,,,,,,,,,,,,,,,,,,,,,,,,,,,,,
,,,,,,,,2023-08-16_08h38.45.480,HF_wild_card,2022.2.4,Win32,60.02040694,602e88f43a3b7aa44bf522e6,64d2fd46c836a06233681665,64dc7ccdad403bec63a1d418,,,,,,,ctch,resources/DR.BMP,resources/DP.BMP,Door3,-0.220052083,-0.018229167,1,0,0,1.3997,optionLeft,70,14180,7,4,0,4,0,1,,,,,,,,,,,,,,,,,,,,,,,,,,,,,,,,,,,,,,,
,,,,,,,,2023-08-16_08h38.45.480,HF_wild_card,2022.2.4,Win32,60.02040694,602e88f43a3b7aa44bf522e6,64d2fd46c836a06233681665,64dc7ccdad403bec63a1d418,,,,,,,decisionTrl,resources/DP.BMP,resources/DG.BMP,Door1,0.34375,-0.05078125,1,0,0,3.2143,optionRight,30,14210,7,5,0,5,0,1,,,,,,,,,,,,,,,,,,,,,,,,,,,,,,,,,,,,,,,
,,,,,,,,2023-08-16_08h38.45.480,HF_wild_card,2022.2.4,Win32,60.02040694,602e88f43a3b7aa44bf522e6,64d2fd46c836a06233681665,64dc7ccdad403bec63a1d418,,,,,,,decisionTrl,resources/DG.BMP,resources/DP.BMP,Door1,-0.22265625,-0.029947917,1,0,0,3.1741,optionLeft,30,14240,7,6,0,6,0,1,,,,,,,,,,,,,,,,,,,,,,,,,,,,,,,,,,,,,,,
,,,,,,,,2023-08-16_08h38.45.480,HF_wild_card,2022.2.4,Win32,60.02040694,602e88f43a3b7aa44bf522e6,64d2fd46c836a06233681665,64dc7ccdad403bec63a1d418,,,,,,,ctch,resources/DG.BMP,resources/DY.BMP,Door4,0.3046875,-0.092447917,1,0,0,1.4346,optionRight,80,14320,7,7,0,7,0,1,,,,,,,,,,,,,,,,,,,,,,,,,,,,,,,,,,,,,,,
,,,,,,,,2023-08-16_08h38.45.480,HF_wild_card,2022.2.4,Win32,60.02040694,602e88f43a3b7aa44bf522e6,64d2fd46c836a06233681665,64dc7ccdad403bec63a1d418,,,,,,,decisionTrl,resources/DG.BMP,resources/DP.BMP,Door1,-0.234375,-0.001302083,1,0,0,2.8508,optionLeft,30,14350,7,8,0,8,0,1,,,,,,,,,,,,,,,,,,,,,,,,,,,,,,,,,,,,,,,
,,,,,,,,2023-08-16_08h38.45.480,HF_wild_card,2022.2.4,Win32,60.02040694,602e88f43a3b7aa44bf522e6,64d2fd46c836a06233681665,64dc7ccdad403bec63a1d418,,,,,,,decisionTrl,resources/DG.BMP,resources/DP.BMP,Door1,-0.196614583,-0.044270833,1,0,0,6.8876,optionLeft,30,14380,7,9,0,9,0,1,,,,,,,,,,,,,,,,,,,,,,,,,,,,,,,,,,,,,,,
,,,,,,,,2023-08-16_08h38.45.480,HF_wild_card,2022.2.4,Win32,60.02040694,602e88f43a3b7aa44bf522e6,64d2fd46c836a06233681665,64dc7ccdad403bec63a1d418,,,,,,,decisionTrl,resources/DP.BMP,resources/DG.BMP,Door2,-0.313802083,-0.100260417,1,0,0,3.0861,optionLeft,40,14420,7,10,0,10,0,1,,,,,,,,,,,,,,,,,,,,,,,,,,,,,,,,,,,,,,,
,,,,,,,,2023-08-16_08h38.45.480,HF_wild_card,2022.2.4,Win32,60.02040694,602e88f43a3b7aa44bf522e6,64d2fd46c836a06233681665,64dc7ccdad403bec63a1d418,,,,,,,ctch,resources/DY.BMP,resources/DG.BMP,Door4,-0.23828125,0.001302083,1,0,0,1.2717,optionLeft,80,14500,7,11,0,11,0,1,,,,,,,,,,,,,,,,,,,,,,,,,,,,,,,,,,,,,,,
,,,,,,,,2023-08-16_08h38.45.480,HF_wild_card,2022.2.4,Win32,60.02040694,602e88f43a3b7aa44bf522e6,64d2fd46c836a06233681665,64dc7ccdad403bec63a1d418,,,,,,,decisionTrl,resources/DG.BMP,resources/DP.BMP,Door1,-0.23046875,-0.022135417,1,0,0,3.1963,optionLeft,30,14530,7,12,0,12,0,1,,,,,,,,,,,,,,,,,,,,,,,,,,,,,,,,,,,,,,,
,,,,,,,,2023-08-16_08h38.45.480,HF_wild_card,2022.2.4,Win32,60.02040694,602e88f43a3b7aa44bf522e6,64d2fd46c836a06233681665,64dc7ccdad403bec63a1d418,,,,,,,decisionTrl,resources/DR.BMP,resources/DY.BMP,Door3,-0.279947917,-0.024739583,1,0,0,2.5327,optionLeft,70,14600,7,13,0,13,0,1,,,,,,,,,,,,,,,,,,,,,,,,,,,,,,,,,,,,,,,
,,,,,,,,2023-08-16_08h38.45.480,HF_wild_card,2022.2.4,Win32,60.02040694,602e88f43a3b7aa44bf522e6,64d2fd46c836a06233681665,64dc7ccdad403bec63a1d418,,,,,,,decisionTrl,resources/DY.BMP,resources/DR.BMP,Door3,0.313802083,-0.108072917,1,0,0,4.7727,optionRight,70,14670,7,14,0,14,0,1,,,,,,,,,,,,,,,,,,,,,,,,,,,,,,,,,,,,,,,
,,,,,,,,2023-08-16_08h38.45.480,HF_wild_card,2022.2.4,Win32,60.02040694,602e88f43a3b7aa44bf522e6,64d2fd46c836a06233681665,64dc7ccdad403bec63a1d418,,,,,,,ctch,resources/DR.BMP,resources/DP.BMP,Door3,-0.294270833,-0.130208333,1,0,0,18.7448,optionLeft,70,14740,7,15,0,15,0,1,,,,,,,,,,,,,,,,,,,,,,,,,,,,,,,,,,,,,,,
,,,,,,,,2023-08-16_08h38.45.480,HF_wild_card,2022.2.4,Win32,60.02040694,602e88f43a3b7aa44bf522e6,64d2fd46c836a06233681665,64dc7ccdad403bec63a1d418,,,,,,,decisionTrl,resources/DP.BMP,resources/DG.BMP,Door1,0.311197917,0.006510417,1,0,0,15.0354,optionRight,30,14770,7,16,0,16,0,1,,,,,,,,,,,,,,,,,,,,,,,,,,,,,,,,,,,,,,,
,,,,,,,,2023-08-16_08h38.45.480,HF_wild_card,2022.2.4,Win32,60.02040694,602e88f43a3b7aa44bf522e6,64d2fd46c836a06233681665,64dc7ccdad403bec63a1d418,,,,,,,decisionTrl,resources/DY.BMP,resources/DR.BMP,Door3,0.39453125,-0.122395833,1,0,0,4.2284,optionRight,70,14840,7,17,0,17,0,1,,,,,,,,,,,,,,,,,,,,,,,,,,,,,,,,,,,,,,,
,,,,,,,,2023-08-16_08h38.45.480,HF_wild_card,2022.2.4,Win32,60.02040694,602e88f43a3b7aa44bf522e6,64d2fd46c836a06233681665,64dc7ccdad403bec63a1d418,,,,,,,decisionTrl,resources/DP.BMP,resources/DG.BMP,Door2,-0.287760417,-0.014322917,1,0,0,3.2439,optionLeft,20,14860,7,18,0,18,0,1,,,,,,,,,,,,,,,,,,,,,,,,,,,,,,,,,,,,,,,
,,,,,,,,2023-08-16_08h38.45.480,HF_wild_card,2022.2.4,Win32,60.02040694,602e88f43a3b7aa44bf522e6,64d2fd46c836a06233681665,64dc7ccdad403bec63a1d418,,,,,,,decisionTrl,resources/DR.BMP,resources/DY.BMP,Door3,-0.25,-0.0625,1,0,0,1.7565,optionLeft,70,14930,7,19,0,19,0,1,,,,,,,,,,,,,,,,,,,,,,,,,,,,,,,,,,,,,,,
,,,,,,,,2023-08-16_08h38.45.480,HF_wild_card,2022.2.4,Win32,60.02040694,602e88f43a3b7aa44bf522e6,64d2fd46c836a06233681665,64dc7ccdad403bec63a1d418,,,,,,,decisionTrl,resources/DY.BMP,resources/DR.BMP,Door3,0.264322917,-0.143229167,1,0,0,1.7967,optionRight,70,15000,7,20,0,20,0,1,,,,,,,,,,,,,,,,,,,,,,,,,,,,,,,,,,,,,,,
,,,,,,,,2023-08-16_08h38.45.480,HF_wild_card,2022.2.4,Win32,60.02040694,602e88f43a3b7aa44bf522e6,64d2fd46c836a06233681665,64dc7ccdad403bec63a1d418,,,,,,,ctch,resources/DY.BMP,resources/DG.BMP,Door4,-0.2578125,-0.005208333,1,0,0,1.762,optionLeft,60,15060,7,21,0,21,0,1,,,,,,,,,,,,,,,,,,,,,,,,,,,,,,,,,,,,,,,
,,,,,,,,2023-08-16_08h38.45.480,HF_wild_card,2022.2.4,Win32,60.02040694,602e88f43a3b7aa44bf522e6,64d2fd46c836a06233681665,64dc7ccdad403bec63a1d418,,,,,,,decisionTrl,resources/DY.BMP,resources/DR.BMP,Door3,0.345052083,-0.036458333,1,0,0,1.4716,optionRight,70,15130,7,22,0,22,0,1,,,,,,,,,,,,,,,,,,,,,,,,,,,,,,,,,,,,,,,
,,,,,,,,2023-08-16_08h38.45.480,HF_wild_card,2022.2.4,Win32,60.02040694,602e88f43a3b7aa44bf522e6,64d2fd46c836a06233681665,64dc7ccdad403bec63a1d418,,,,,,,decisionTrl,resources/DR.BMP,resources/DY.BMP,Door3,-0.236979167,0.018229167,1,0,0,4.7693,optionLeft,70,15200,7,23,0,23,0,1,,,,,,,,,,,,,,,,,,,,,,,,,,,,,,,,,,,,,,,
,,,,,,,,2023-08-16_08h38.45.480,HF_wild_card,2022.2.4,Win32,60.02040694,602e88f43a3b7aa44bf522e6,64d2fd46c836a06233681665,64dc7ccdad403bec63a1d418,,,,,,,decisionTrl,resources/DR.BMP,resources/DY.BMP,Door3,-0.240885417,-0.016927083,1,0,0,2.513,optionLeft,70,15270,7,24,0,24,0,1,,,,,,,,,,,,,,,,,,,,,,,,,,,,,,,,,,,,,,,
,,,,,,,,2023-08-16_08h38.45.480,HF_wild_card,2022.2.4,Win32,60.02040694,602e88f43a3b7aa44bf522e6,64d2fd46c836a06233681665,64dc7ccdad403bec63a1d418,,,,,,,decisionTrl,resources/DY.BMP,resources/DR.BMP,Door3,0.35546875,-0.029947917,1,0,0,2.0053,optionRight,70,15340,7,25,0,25,0,1,,,,,,,,,,,,,,,,,,,,,,,,,,,,,,,,,,,,,,,
,,,,,,,,2023-08-16_08h38.45.480,HF_wild_card,2022.2.4,Win32,60.02040694,602e88f43a3b7aa44bf522e6,64d2fd46c836a06233681665,64dc7ccdad403bec63a1d418,,,,,,,decisionTrl,resources/DG.BMP,resources/DP.BMP,Door1,-0.3046875,0.002604167,1,0,0,2.2871,optionLeft,30,15370,7,26,0,26,0,1,,,,,,,,,,,,,,,,,,,,,,,,,,,,,,,,,,,,,,,
,,,,,,,,2023-08-16_08h38.45.480,HF_wild_card,2022.2.4,Win32,60.02040694,602e88f43a3b7aa44bf522e6,64d2fd46c836a06233681665,64dc7ccdad403bec63a1d418,,,,,,,decisionTrl,resources/DR.BMP,resources/DY.BMP,Door3,-0.313802083,-0.016927083,1,0,0,2.467,optionLeft,70,15440,7,27,0,27,0,1,,,,,,,,,,,,,,,,,,,,,,,,,,,,,,,,,,,,,,,
,,,,,,,,2023-08-16_08h38.45.480,HF_wild_card,2022.2.4,Win32,60.02040694,602e88f43a3b7aa44bf522e6,64d2fd46c836a06233681665,64dc7ccdad403bec63a1d418,,,,,,,decisionTrl,resources/DP.BMP,resources/DG.BMP,Door1,0.309895833,-0.018229167,1,0,0,3.7063,optionRight,30,15470,7,28,0,28,0,1,,,,,,,,,,,,,,,,,,,,,,,,,,,,,,,,,,,,,,,
,,,,,,,,2023-08-16_08h38.45.480,HF_wild_card,2022.2.4,Win32,60.02040694,602e88f43a3b7aa44bf522e6,64d2fd46c836a06233681665,64dc7ccdad403bec63a1d418,,,,,,,ctch,resources/DP.BMP,resources/DR.BMP,Door3,0.305989583,-0.104166667,1,0,0,3.0697,optionRight,70,15540,7,29,0,29,0,1,,,,,,,,,,,,,,,,,,,,,,,,,,,,,,,,,,,,,,,
,,,,,,,,2023-08-16_08h38.45.480,HF_wild_card,2022.2.4,Win32,60.02040694,602e88f43a3b7aa44bf522e6,64d2fd46c836a06233681665,64dc7ccdad403bec63a1d418,,,,,,,ctch,resources/DG.BMP,resources/DY.BMP,Door4,0.2578125,-0.076822917,1,0,0,1.3549,optionRight,80,15620,7,30,0,30,0,1,,,,,,,,,,,,,,,,,,,,,,,,,,,,,,,,,,,,,,,
,,,,,,,,2023-08-16_08h38.45.480,HF_wild_card,2022.2.4,Win32,60.02040694,602e88f43a3b7aa44bf522e6,64d2fd46c836a06233681665,64dc7ccdad403bec63a1d418,,,,,,,decisionTrl,resources/DG.BMP,resources/DP.BMP,Door1,-0.282552083,0.014322917,1,0,0,1.9566,optionLeft,30,15650,7,31,0,31,0,1,,,,,,,,,,,,,,,,,,,,,,,,,,,,,,,,,,,,,,,
,,,,,,,,2023-08-16_08h38.45.480,HF_wild_card,2022.2.4,Win32,60.02040694,602e88f43a3b7aa44bf522e6,64d2fd46c836a06233681665,64dc7ccdad403bec63a1d418,,,,,,,decisionTrl,resources/DR.BMP,resources/DY.BMP,Door3,-0.290364583,-0.013020833,1,0,0,2.1279,optionLeft,70,15720,7,32,0,32,0,1,,,,,,,,,,,,,,,,,,,,,,,,,,,,,,,,,,,,,,,
,,,,,,,,2023-08-16_08h38.45.480,HF_wild_card,2022.2.4,Win32,60.02040694,602e88f43a3b7aa44bf522e6,64d2fd46c836a06233681665,64dc7ccdad403bec63a1d418,,,,,,,ctch,resources/DY.BMP,resources/DG.BMP,Door4,-0.256510417,0.0078125,1,0,0,1.6504,optionLeft,80,15800,7,33,0,33,0,1,,,,,,,,,,,,,,,,,,,,,,,,,,,,,,,,,,,,,,,
,,,,,,,,2023-08-16_08h38.45.480,HF_wild_card,2022.2.4,Win32,60.02040694,602e88f43a3b7aa44bf522e6,64d2fd46c836a06233681665,64dc7ccdad403bec63a1d418,,,,,,,decisionTrl,resources/DP.BMP,resources/DG.BMP,Door1,0.2109375,-0.115885417,1,0,0,2.2555,optionRight,30,15830,7,34,0,34,0,1,,,,,,,,,,,,,,,,,,,,,,,,,,,,,,,,,,,,,,,
,,,,,,,,2023-08-16_08h38.45.480,HF_wild_card,2022.2.4,Win32,60.02040694,602e88f43a3b7aa44bf522e6,64d2fd46c836a06233681665,64dc7ccdad403bec63a1d418,,,,,,,ctch,resources/DP.BMP,resources/DR.BMP,Door3,0.256510417,-0.0390625,1,0,0,1.2906,optionRight,70,15900,7,35,0,35,0,1,,,,,,,,,,,,,,,,,,,,,,,,,,,,,,,,,,,,,,,
,,,,,,,,2023-08-16_08h38.45.480,HF_wild_card,2022.2.4,Win32,60.02040694,602e88f43a3b7aa44bf522e6,64d2fd46c836a06233681665,64dc7ccdad403bec63a1d418,,,,,,,,,,,,,,,,,,,,,,,,,,6,0,6,0,1,,,,,,,,,,,,,,,,,,,,,,,,,,,,,,,,,,
,,,,,,,,2023-08-16_08h38.45.480,HF_wild_card,2022.2.4,Win32,60.02040694,602e88f43a3b7aa44bf522e6,64d2fd46c836a06233681665,64dc7ccdad403bec63a1d418,,,,,,,,,,,,,,,,,,,,,,,,,,,,,,,3,,,,,,,,,,,,,,,,,,,,,,,,,,,,,,,,,
,,,,,,,,2023-08-16_08h38.45.480,HF_wild_card,2022.2.4,Win32,60.02040694,602e88f43a3b7aa44bf522e6,64d2fd46c836a06233681665,64dc7ccdad403bec63a1d418,,,,,,,,,,,,,,,,,,,,,,,,,,,,,,,,,,,,,,,,,,,,,,,,,,,,,,,,,,,,,,,,
,,,,,,,,2023-08-16_08h38.45.480,HF_wild_card,2022.2.4,Win32,60.02040694,602e88f43a3b7aa44bf522e6,64d2fd46c836a06233681665,64dc7ccdad403bec63a1d418,,,,,,,,,,,,,,,,,,,,,,,,,,,,,,,,55,WC_nonExtreme,resources/DBN.BMP,0,0,0,0,1,,,,,,,,,,,,,,,,,,,,,,,,,
,,,,,,,,2023-08-16_08h38.45.480,HF_wild_card,2022.2.4,Win32,60.02040694,602e88f43a3b7aa44bf522e6,64d2fd46c836a06233681665,64dc7ccdad403bec63a1d418,,,,,,,,,,,,,,,,,,,,,,,,,,,,,,,,30,Door1,resources/DG.BMP,1,0,1,0,1,,,,,,,,,,,,,,,,,,,,,,,,,
,,,,,,,,2023-08-16_08h38.45.480,HF_wild_card,2022.2.4,Win32,60.02040694,602e88f43a3b7aa44bf522e6,64d2fd46c836a06233681665,64dc7ccdad403bec63a1d418,,,,,,,,,,,,,,,,,,,,,,,,,,,,,,,,60,Door4,resources/DY.BMP,2,0,2,0,1,,,,,,,,,,,,,,,,,,,,,,,,,
,,,,,,,,2023-08-16_08h38.45.480,HF_wild_card,2022.2.4,Win32,60.02040694,602e88f43a3b7aa44bf522e6,64d2fd46c836a06233681665,64dc7ccdad403bec63a1d418,,,,,,,,,,,,,,,,,,,,,,,,,,,,,,,,5,WC_extreme,resources/DB.BMP,3,0,3,0,1,,,,,,,,,,,,,,,,,,,,,,,,,
,,,,,,,,2023-08-16_08h38.45.480,HF_wild_card,2022.2.4,Win32,60.02040694,602e88f43a3b7aa44bf522e6,64d2fd46c836a06233681665,64dc7ccdad403bec63a1d418,,,,,,,,,,,,,,,,,,,,,,,,,,,,,,,,70,Door3,resources/DR.BMP,4,0,4,0,1,,,,,,,,,,,,,,,,,,,,,,,,,
,,,,,,,,2023-08-16_08h38.45.480,HF_wild_card,2022.2.4,Win32,60.02040694,602e88f43a3b7aa44bf522e6,64d2fd46c836a06233681665,64dc7ccdad403bec63a1d418,,,,,,,,,,,,,,,,,,,,,,,,,,,,,,,,20,Door2,resources/DP.BMP,5,0,5,0,1,,,,,,,,,,,,,,,,,,,,,,,,,
,,,,,,,,2023-08-16_08h38.45.480,HF_wild_card,2022.2.4,Win32,60.02040694,602e88f43a3b7aa44bf522e6,64d2fd46c836a06233681665,64dc7ccdad403bec63a1d418,,,,,,,,,,,,,,,,,,,,,,,,,,,,,,,,,,,,,,,,,,,,,,,,,,,,,,,,,,,,,,,,
,,,,,,,,2023-08-16_08h38.45.480,HF_wild_card,2022.2.4,Win32,60.02040694,602e88f43a3b7aa44bf522e6,64d2fd46c836a06233681665,64dc7ccdad403bec63a1d418,,,,,,,,,,,,,,,,,,,,,,,,,,,,,,,,,,,,,,,,0,0,0,0,1,,,,,,,,,,,,,,,,,,,,
,,,,,,,,2023-08-16_08h38.45.480,HF_wild_card,2022.2.4,Win32,60.02040694,602e88f43a3b7aa44bf522e6,64d2fd46c836a06233681665,64dc7ccdad403bec63a1d418,,,,,,,,,,,,,,,,,,,,,,,,,,,,,,,,,,,,,,,,1,0,1,0,1,,,,,,,,,,,,,,,,,,,,
