Condition,Low fixed image (Door1),Low risky image (Door2),High fixed image (Door3),High risky image (Door4),Extreme Wild Card,NonExtreme Wild Card,,date,expName,psychopyVersion,OS,frameRate,PROLIFIC_PID,STUDY_ID,SESSION_ID,mouse_2.x,mouse_2.y,mouse_2.leftButton,mouse_2.midButton,mouse_2.rightButton,mouse_2.clicked_name,Trial Type,Left Option Image,Right Option Image,Chosen Door,mouse.x,mouse.y,mouse.leftButton,mouse.midButton,mouse.rightButton,mouse.time,mouse.clicked_name,Feedback,Cumulative Reward,Block,trial.thisRepN,trial.thisTrialN,trial.thisN,trial.thisIndex,trial.ran,blocks.thisRepN,blocks.thisTrialN,blocks.thisN,blocks.thisIndex,blocks.ran,Money conversion,First Outcome Reported,Shown Door (First Outcome),Displayed Image (First Outcome),outcomes.thisRepN,outcomes.thisTrialN,outcomes.thisN,outcomes.thisIndex,outcomes.ran,judgments.thisRepN,judgments.thisTrialN,judgments.thisN,judgments.thisIndex,judgments.ran,freqMouse.x,freqMouse.y,freqMouse.leftButton,freqMouse.midButton,freqMouse.rightButton,freqMouse.clicked_name,trials.thisRepN,trials.thisTrialN,trials.thisN,trials.thisIndex,trials.ran,FQJ for first outcome,FQJ for second outcome,Shown Door,Displayed Image,judgBlock.thisRepN,judgBlock.thisTrialN,judgBlock.thisN,judgBlock.thisIndex,judgBlock.ran
1,resources/DY.BMP,resources/DG.BMP,resources/DBN.BMP,resources/DR.BMP,resources/DP.BMP,resources/DB.BMP,,2023-08-16_08h48.08.275,HF_wild_card,2022.2.4,Win32,2.994720308,5a0a057c80acd80001047392,64d2fd46c836a06233681665,64dc7f131bff2ecef98bcdc5,,,,,,,,,,,,,,,,,,,,,,,,,,,,,,,,,,,,,,,,,,,,,,,,,,,,,,,,,,,,,,,,
,,,,,,,,2023-08-16_08h48.08.275,HF_wild_card,2022.2.4,Win32,2.994720308,5a0a057c80acd80001047392,64d2fd46c836a06233681665,64dc7f131bff2ecef98bcdc5,-0.018229167,-0.423177083,1,0,0,agree,,,,,,,,,,,,,,,,,,,,,,,,,,,,,,,,,,,,,,,,,,,,,,,,,,,,,,,,,,
,,,,,,,,2023-08-16_08h48.08.275,HF_wild_card,2022.2.4,Win32,2.994720308,5a0a057c80acd80001047392,64d2fd46c836a06233681665,64dc7f131bff2ecef98bcdc5,,,,,,,,,,,,,,,,,,,,,,,,,,,,,,,,,,,,,,,,,,,,,,,,,,,,,,,,,,,,,,,,
,,,,,,,,2023-08-16_08h48.08.275,HF_wild_card,2022.2.4,Win32,2.994720308,5a0a057c80acd80001047392,64d2fd46c836a06233681665,64dc7f131bff2ecef98bcdc5,,,,,,,decisionTrl,resources/DR.BMP,resources/DB.BMP,Door4,-0.38671875,-0.061197917,1,0,0,14.2418,optionLeft,80,80,1,0,0,0,0,1,,,,,,,,,,,,,,,,,,,,,,,,,,,,,,,,,,,,,,,
,,,,,,,,2023-08-16_08h48.08.275,HF_wild_card,2022.2.4,Win32,2.994720308,5a0a057c80acd80001047392,64d2fd46c836a06233681665,64dc7f131bff2ecef98bcdc5,,,,,,,decisionTrl,resources/DG.BMP,resources/DY.BMP,Door1,0.412760417,-0.026041667,1,0,0,2.7943,optionRight,30,110,1,1,0,1,0,1,,,,,,,,,,,,,,,,,,,,,,,,,,,,,,,,,,,,,,,
,,,,,,,,2023-08-16_08h48.08.275,HF_wild_card,2022.2.4,Win32,2.994720308,5a0a057c80acd80001047392,64d2fd46c836a06233681665,64dc7f131bff2ecef98bcdc5,,,,,,,decisionTrl,resources/DB.BMP,resources/DR.BMP,Door4,0.294270833,-0.009114583,1,0,0,2.2831,optionRight,80,190,1,2,0,2,0,1,,,,,,,,,,,,,,,,,,,,,,,,,,,,,,,,,,,,,,,
,,,,,,,,2023-08-16_08h48.08.275,HF_wild_card,2022.2.4,Win32,2.994720308,5a0a057c80acd80001047392,64d2fd46c836a06233681665,64dc7f131bff2ecef98bcdc5,,,,,,,sngl,resources/DY.BMP,resources/Empty.png,Door1,-0.377604167,0.02734375,1,0,0,4.6542,optionLeft,30,220,1,3,0,3,0,1,,,,,,,,,,,,,,,,,,,,,,,,,,,,,,,,,,,,,,,
,,,,,,,,2023-08-16_08h48.08.275,HF_wild_card,2022.2.4,Win32,2.994720308,5a0a057c80acd80001047392,64d2fd46c836a06233681665,64dc7f131bff2ecef98bcdc5,,,,,,,decisionTrl,resources/DR.BMP,resources/DBN.BMP,Door4,-0.356770833,-0.02734375,1,0,0,2.7883,optionLeft,80,300,1,4,0,4,0,1,,,,,,,,,,,,,,,,,,,,,,,,,,,,,,,,,,,,,,,
,,,,,,,,2023-08-16_08h48.08.275,HF_wild_card,2022.2.4,Win32,2.994720308,5a0a057c80acd80001047392,64d2fd46c836a06233681665,64dc7f131bff2ecef98bcdc5,,,,,,,decisionTrl,resources/DG.BMP,resources/DY.BMP,Door1,0.388020833,0.014322917,1,0,0,1.8641,optionRight,30,330,1,5,0,5,0,1,,,,,,,,,,,,,,,,,,,,,,,,,,,,,,,,,,,,,,,
,,,,,,,,2023-08-16_08h48.08.275,HF_wild_card,2022.2.4,Win32,2.994720308,5a0a057c80acd80001047392,64d2fd46c836a06233681665,64dc7f131bff2ecef98bcdc5,,,,,,,decisionTrl,resources/DG.BMP,resources/DB.BMP,Door2,-0.28515625,-0.024739583,1,0,0,2.3557,optionLeft,20,350,1,6,0,6,0,1,,,,,,,,,,,,,,,,,,,,,,,,,,,,,,,,,,,,,,,
,,,,,,,,2023-08-16_08h48.08.275,HF_wild_card,2022.2.4,Win32,2.994720308,5a0a057c80acd80001047392,64d2fd46c836a06233681665,64dc7f131bff2ecef98bcdc5,,,,,,,sngl,resources/DB.BMP,resources/Empty.png,WildCard_NonEx,-0.315104167,-0.057291667,1,0,0,2.0946,optionLeft,55,405,1,7,0,7,0,1,,,,,,,,,,,,,,,,,,,,,,,,,,,,,,,,,,,,,,,
,,,,,,,,2023-08-16_08h48.08.275,HF_wild_card,2022.2.4,Win32,2.994720308,5a0a057c80acd80001047392,64d2fd46c836a06233681665,64dc7f131bff2ecef98bcdc5,,,,,,,sngl,resources/DB.BMP,resources/Empty.png,WildCard_NonEx,-0.41015625,-0.03515625,1,0,0,3.3603,optionLeft,45,450,1,8,0,8,0,1,,,,,,,,,,,,,,,,,,,,,,,,,,,,,,,,,,,,,,,
,,,,,,,,2023-08-16_08h48.08.275,HF_wild_card,2022.2.4,Win32,2.994720308,5a0a057c80acd80001047392,64d2fd46c836a06233681665,64dc7f131bff2ecef98bcdc5,,,,,,,decisionTrl,resources/DB.BMP,resources/DY.BMP,Door1,0.350260417,-0.01171875,1,0,0,3.5485,optionRight,30,480,1,9,0,9,0,1,,,,,,,,,,,,,,,,,,,,,,,,,,,,,,,,,,,,,,,
,,,,,,,,2023-08-16_08h48.08.275,HF_wild_card,2022.2.4,Win32,2.994720308,5a0a057c80acd80001047392,64d2fd46c836a06233681665,64dc7f131bff2ecef98bcdc5,,,,,,,decisionTrl,resources/DBN.BMP,resources/DR.BMP,Door3,-0.3828125,-0.0078125,1,0,0,1.9027,optionLeft,70,550,1,10,0,10,0,1,,,,,,,,,,,,,,,,,,,,,,,,,,,,,,,,,,,,,,,
,,,,,,,,2023-08-16_08h48.08.275,HF_wild_card,2022.2.4,Win32,2.994720308,5a0a057c80acd80001047392,64d2fd46c836a06233681665,64dc7f131bff2ecef98bcdc5,,,,,,,ctch,resources/DR.BMP,resources/DY.BMP,Door4,-0.369791667,-0.053385417,1,0,0,1.9427,optionLeft,60,610,1,11,0,11,0,1,,,,,,,,,,,,,,,,,,,,,,,,,,,,,,,,,,,,,,,
,,,,,,,,2023-08-16_08h48.08.275,HF_wild_card,2022.2.4,Win32,2.994720308,5a0a057c80acd80001047392,64d2fd46c836a06233681665,64dc7f131bff2ecef98bcdc5,,,,,,,decisionTrl,resources/DBN.BMP,resources/DB.BMP,Door3,-0.365885417,-0.026041667,1,0,0,2.3107,optionLeft,70,680,1,12,0,12,0,1,,,,,,,,,,,,,,,,,,,,,,,,,,,,,,,,,,,,,,,
,,,,,,,,2023-08-16_08h48.08.275,HF_wild_card,2022.2.4,Win32,2.994720308,5a0a057c80acd80001047392,64d2fd46c836a06233681665,64dc7f131bff2ecef98bcdc5,,,,,,,sngl,resources/Empty.png,resources/DY.BMP,Door1,0.315104167,-0.015625,1,0,0,1.6575,optionRight,30,710,1,13,0,13,0,1,,,,,,,,,,,,,,,,,,,,,,,,,,,,,,,,,,,,,,,
,,,,,,,,2023-08-16_08h48.08.275,HF_wild_card,2022.2.4,Win32,2.994720308,5a0a057c80acd80001047392,64d2fd46c836a06233681665,64dc7f131bff2ecef98bcdc5,,,,,,,ctch,resources/DY.BMP,resources/DR.BMP,Door4,0.342447917,0.01171875,1,0,0,1.4144,optionRight,80,790,1,14,0,14,0,1,,,,,,,,,,,,,,,,,,,,,,,,,,,,,,,,,,,,,,,
,,,,,,,,2023-08-16_08h48.08.275,HF_wild_card,2022.2.4,Win32,2.994720308,5a0a057c80acd80001047392,64d2fd46c836a06233681665,64dc7f131bff2ecef98bcdc5,,,,,,,decisionTrl,resources/DB.BMP,resources/DBN.BMP,Door3,0.41015625,0.010416667,1,0,0,1.8732,optionRight,70,860,1,15,0,15,0,1,,,,,,,,,,,,,,,,,,,,,,,,,,,,,,,,,,,,,,,
,,,,,,,,2023-08-16_08h48.08.275,HF_wild_card,2022.2.4,Win32,2.994720308,5a0a057c80acd80001047392,64d2fd46c836a06233681665,64dc7f131bff2ecef98bcdc5,,,,,,,decisionTrl,resources/DG.BMP,resources/DY.BMP,Door2,-0.354166667,-0.032552083,1,0,0,1.9047,optionLeft,20,880,1,16,0,16,0,1,,,,,,,,,,,,,,,,,,,,,,,,,,,,,,,,,,,,,,,
,,,,,,,,2023-08-16_08h48.08.275,HF_wild_card,2022.2.4,Win32,2.994720308,5a0a057c80acd80001047392,64d2fd46c836a06233681665,64dc7f131bff2ecef98bcdc5,,,,,,,decisionTrl,resources/DY.BMP,resources/DG.BMP,Door1,-0.29296875,-0.03125,1,0,0,1.8999,optionLeft,30,910,1,17,0,17,0,1,,,,,,,,,,,,,,,,,,,,,,,,,,,,,,,,,,,,,,,
,,,,,,,,2023-08-16_08h48.08.275,HF_wild_card,2022.2.4,Win32,2.994720308,5a0a057c80acd80001047392,64d2fd46c836a06233681665,64dc7f131bff2ecef98bcdc5,,,,,,,ctch,resources/DBN.BMP,resources/DG.BMP,Door3,-0.326822917,0.018229167,1,0,0,6.749,optionLeft,70,980,1,18,0,18,0,1,,,,,,,,,,,,,,,,,,,,,,,,,,,,,,,,,,,,,,,
,,,,,,,,2023-08-16_08h48.08.275,HF_wild_card,2022.2.4,Win32,2.994720308,5a0a057c80acd80001047392,64d2fd46c836a06233681665,64dc7f131bff2ecef98bcdc5,,,,,,,sngl,resources/Empty.png,resources/DBN.BMP,Door3,0.3515625,0.024739583,1,0,0,1.7072,optionRight,70,1050,1,19,0,19,0,1,,,,,,,,,,,,,,,,,,,,,,,,,,,,,,,,,,,,,,,
,,,,,,,,2023-08-16_08h48.08.275,HF_wild_card,2022.2.4,Win32,2.994720308,5a0a057c80acd80001047392,64d2fd46c836a06233681665,64dc7f131bff2ecef98bcdc5,,,,,,,sngl,resources/DR.BMP,resources/Empty.png,Door4,-0.388020833,-0.016927083,1,0,0,1.3063,optionLeft,80,1130,1,20,0,20,0,1,,,,,,,,,,,,,,,,,,,,,,,,,,,,,,,,,,,,,,,
,,,,,,,,2023-08-16_08h48.08.275,HF_wild_card,2022.2.4,Win32,2.994720308,5a0a057c80acd80001047392,64d2fd46c836a06233681665,64dc7f131bff2ecef98bcdc5,,,,,,,decisionTrl,resources/DB.BMP,resources/DG.BMP,Door2,0.40234375,0.024739583,1,0,0,1.9463,optionRight,20,1150,1,21,0,21,0,1,,,,,,,,,,,,,,,,,,,,,,,,,,,,,,,,,,,,,,,
,,,,,,,,2023-08-16_08h48.08.275,HF_wild_card,2022.2.4,Win32,2.994720308,5a0a057c80acd80001047392,64d2fd46c836a06233681665,64dc7f131bff2ecef98bcdc5,,,,,,,sngl,resources/Empty.png,resources/DR.BMP,Door4,0.294270833,0.002604167,1,0,0,1.2569,optionRight,60,1210,1,22,0,22,0,1,,,,,,,,,,,,,,,,,,,,,,,,,,,,,,,,,,,,,,,
,,,,,,,,2023-08-16_08h48.08.275,HF_wild_card,2022.2.4,Win32,2.994720308,5a0a057c80acd80001047392,64d2fd46c836a06233681665,64dc7f131bff2ecef98bcdc5,,,,,,,sngl,resources/DG.BMP,resources/Empty.png,Door2,-0.369791667,-0.037760417,1,0,0,1.2491,optionLeft,40,1250,1,23,0,23,0,1,,,,,,,,,,,,,,,,,,,,,,,,,,,,,,,,,,,,,,,
,,,,,,,,2023-08-16_08h48.08.275,HF_wild_card,2022.2.4,Win32,2.994720308,5a0a057c80acd80001047392,64d2fd46c836a06233681665,64dc7f131bff2ecef98bcdc5,,,,,,,sngl,resources/DBN.BMP,resources/Empty.png,Door3,-0.37890625,0,1,0,0,1.2519,optionLeft,70,1320,1,24,0,24,0,1,,,,,,,,,,,,,,,,,,,,,,,,,,,,,,,,,,,,,,,
,,,,,,,,2023-08-16_08h48.08.275,HF_wild_card,2022.2.4,Win32,2.994720308,5a0a057c80acd80001047392,64d2fd46c836a06233681665,64dc7f131bff2ecef98bcdc5,,,,,,,sngl,resources/Empty.png,resources/DB.BMP,WildCard_NonEx,0.376302083,0.002604167,1,0,0,1.6503,optionRight,45,1365,1,25,0,25,0,1,,,,,,,,,,,,,,,,,,,,,,,,,,,,,,,,,,,,,,,
,,,,,,,,2023-08-16_08h48.08.275,HF_wild_card,2022.2.4,Win32,2.994720308,5a0a057c80acd80001047392,64d2fd46c836a06233681665,64dc7f131bff2ecef98bcdc5,,,,,,,decisionTrl,resources/DY.BMP,resources/DG.BMP,Door1,-0.3515625,-0.029947917,1,0,0,1.8281,optionLeft,30,1395,1,26,0,26,0,1,,,,,,,,,,,,,,,,,,,,,,,,,,,,,,,,,,,,,,,
,,,,,,,,2023-08-16_08h48.08.275,HF_wild_card,2022.2.4,Win32,2.994720308,5a0a057c80acd80001047392,64d2fd46c836a06233681665,64dc7f131bff2ecef98bcdc5,,,,,,,decisionTrl,resources/DG.BMP,resources/DY.BMP,Door1,0.415364583,-0.006510417,1,0,0,1.8638,optionRight,30,1425,1,27,0,27,0,1,,,,,,,,,,,,,,,,,,,,,,,,,,,,,,,,,,,,,,,
,,,,,,,,2023-08-16_08h48.08.275,HF_wild_card,2022.2.4,Win32,2.994720308,5a0a057c80acd80001047392,64d2fd46c836a06233681665,64dc7f131bff2ecef98bcdc5,,,,,,,ctch,resources/DBN.BMP,resources/DG.BMP,Door3,-0.42578125,0.0625,1,0,0,3.2729,optionLeft,70,1495,1,28,0,28,0,1,,,,,,,,,,,,,,,,,,,,,,,,,,,,,,,,,,,,,,,
,,,,,,,,2023-08-16_08h48.08.275,HF_wild_card,2022.2.4,Win32,2.994720308,5a0a057c80acd80001047392,64d2fd46c836a06233681665,64dc7f131bff2ecef98bcdc5,,,,,,,decisionTrl,resources/DBN.BMP,resources/DR.BMP,Door3,-0.385416667,0.018229167,1,0,0,1.8522,optionLeft,70,1565,1,29,0,29,0,1,,,,,,,,,,,,,,,,,,,,,,,,,,,,,,,,,,,,,,,
,,,,,,,,2023-08-16_08h48.08.275,HF_wild_card,2022.2.4,Win32,2.994720308,5a0a057c80acd80001047392,64d2fd46c836a06233681665,64dc7f131bff2ecef98bcdc5,,,,,,,sngl,resources/Empty.png,resources/DG.BMP,Door2,0.3671875,-0.01953125,1,0,0,1.696,optionRight,20,1585,1,30,0,30,0,1,,,,,,,,,,,,,,,,,,,,,,,,,,,,,,,,,,,,,,,
,,,,,,,,2023-08-16_08h48.08.275,HF_wild_card,2022.2.4,Win32,2.994720308,5a0a057c80acd80001047392,64d2fd46c836a06233681665,64dc7f131bff2ecef98bcdc5,,,,,,,decisionTrl,resources/DY.BMP,resources/DB.BMP,Door1,-0.3203125,-0.00390625,1,0,0,1.8525,optionLeft,30,1615,1,31,0,31,0,1,,,,,,,,,,,,,,,,,,,,,,,,,,,,,,,,,,,,,,,
,,,,,,,,2023-08-16_08h48.08.275,HF_wild_card,2022.2.4,Win32,2.994720308,5a0a057c80acd80001047392,64d2fd46c836a06233681665,64dc7f131bff2ecef98bcdc5,,,,,,,ctch,resources/DG.BMP,resources/DBN.BMP,Door3,0.34375,0.010416667,1,0,0,1.3928,optionRight,70,1685,1,32,0,32,0,1,,,,,,,,,,,,,,,,,,,,,,,,,,,,,,,,,,,,,,,
,,,,,,,,2023-08-16_08h48.08.275,HF_wild_card,2022.2.4,Win32,2.994720308,5a0a057c80acd80001047392,64d2fd46c836a06233681665,64dc7f131bff2ecef98bcdc5,,,,,,,decisionTrl,resources/DR.BMP,resources/DBN.BMP,Door3,0.33984375,0.014322917,1,0,0,1.8547,optionRight,70,1755,1,33,0,33,0,1,,,,,,,,,,,,,,,,,,,,,,,,,,,,,,,,,,,,,,,
,,,,,,,,2023-08-16_08h48.08.275,HF_wild_card,2022.2.4,Win32,2.994720308,5a0a057c80acd80001047392,64d2fd46c836a06233681665,64dc7f131bff2ecef98bcdc5,,,,,,,ctch,resources/DG.BMP,resources/DBN.BMP,Door3,0.463541667,0.018229167,1,0,0,1.41,optionRight,70,1825,1,34,0,34,0,1,,,,,,,,,,,,,,,,,,,,,,,,,,,,,,,,,,,,,,,
,,,,,,,,2023-08-16_08h48.08.275,HF_wild_card,2022.2.4,Win32,2.994720308,5a0a057c80acd80001047392,64d2fd46c836a06233681665,64dc7f131bff2ecef98bcdc5,,,,,,,decisionTrl,resources/DBN.BMP,resources/DR.BMP,Door3,-0.772135417,-0.498697917,1,0,0,4.8917,optionLeft,70,1895,1,35,0,35,0,1,,,,,,,,,,,,,,,,,,,,,,,,,,,,,,,,,,,,,,,
,,,,,,,,2023-08-16_08h48.08.275,HF_wild_card,2022.2.4,Win32,2.994720308,5a0a057c80acd80001047392,64d2fd46c836a06233681665,64dc7f131bff2ecef98bcdc5,,,,,,,ctch,resources/DR.BMP,resources/DY.BMP,Door4,-0.303385417,0.05078125,1,0,0,1.844,optionLeft,60,1955,1,36,0,36,0,1,,,,,,,,,,,,,,,,,,,,,,,,,,,,,,,,,,,,,,,
,,,,,,,,2023-08-16_08h48.08.275,HF_wild_card,2022.2.4,Win32,2.994720308,5a0a057c80acd80001047392,64d2fd46c836a06233681665,64dc7f131bff2ecef98bcdc5,,,,,,,decisionTrl,resources/DR.BMP,resources/DBN.BMP,Door3,0.3828125,0.028645833,1,0,0,1.4361,optionRight,70,2025,1,37,0,37,0,1,,,,,,,,,,,,,,,,,,,,,,,,,,,,,,,,,,,,,,,
,,,,,,,,2023-08-16_08h48.08.275,HF_wild_card,2022.2.4,Win32,2.994720308,5a0a057c80acd80001047392,64d2fd46c836a06233681665,64dc7f131bff2ecef98bcdc5,,,,,,,decisionTrl,resources/DR.BMP,resources/DBN.BMP,Door3,0.395833333,0.016927083,1,0,0,1.3993,optionRight,70,2095,1,38,0,38,0,1,,,,,,,,,,,,,,,,,,,,,,,,,,,,,,,,,,,,,,,
,,,,,,,,2023-08-16_08h48.08.275,HF_wild_card,2022.2.4,Win32,2.994720308,5a0a057c80acd80001047392,64d2fd46c836a06233681665,64dc7f131bff2ecef98bcdc5,,,,,,,decisionTrl,resources/DBN.BMP,resources/DR.BMP,Door3,-0.337239583,-0.013020833,1,0,0,1.4272,optionLeft,70,2165,1,39,0,39,0,1,,,,,,,,,,,,,,,,,,,,,,,,,,,,,,,,,,,,,,,
,,,,,,,,2023-08-16_08h48.08.275,HF_wild_card,2022.2.4,Win32,2.994720308,5a0a057c80acd80001047392,64d2fd46c836a06233681665,64dc7f131bff2ecef98bcdc5,,,,,,,ctch,resources/DY.BMP,resources/DR.BMP,Door4,0.372395833,-0.055989583,1,0,0,1.3773,optionRight,80,2245,1,40,0,40,0,1,,,,,,,,,,,,,,,,,,,,,,,,,,,,,,,,,,,,,,,
,,,,,,,,2023-08-16_08h48.08.275,HF_wild_card,2022.2.4,Win32,2.994720308,5a0a057c80acd80001047392,64d2fd46c836a06233681665,64dc7f131bff2ecef98bcdc5,,,,,,,sngl,resources/Empty.png,resources/DB.BMP,WildCard_NonEx,0.287760417,-0.029947917,1,0,0,1.6514,optionRight,55,2300,1,41,0,41,0,1,,,,,,,,,,,,,,,,,,,,,,,,,,,,,,,,,,,,,,,
,,,,,,,,2023-08-16_08h48.08.275,HF_wild_card,2022.2.4,Win32,2.994720308,5a0a057c80acd80001047392,64d2fd46c836a06233681665,64dc7f131bff2ecef98bcdc5,,,,,,,decisionTrl,resources/DY.BMP,resources/DG.BMP,Door1,-0.338541667,-0.010416667,1,0,0,3.1882,optionLeft,30,2330,1,42,0,42,0,1,,,,,,,,,,,,,,,,,,,,,,,,,,,,,,,,,,,,,,,
,,,,,,,,2023-08-16_08h48.08.275,HF_wild_card,2022.2.4,Win32,2.994720308,5a0a057c80acd80001047392,64d2fd46c836a06233681665,64dc7f131bff2ecef98bcdc5,,,,,,,decisionTrl,resources/DY.BMP,resources/DG.BMP,Door2,0.41015625,0.015625,1,0,0,2.2846,optionRight,20,2350,1,43,0,43,0,1,,,,,,,,,,,,,,,,,,,,,,,,,,,,,,,,,,,,,,,
,,,,,,,,2023-08-16_08h48.08.275,HF_wild_card,2022.2.4,Win32,2.994720308,5a0a057c80acd80001047392,64d2fd46c836a06233681665,64dc7f131bff2ecef98bcdc5,,,,,,,,,,,,,,,,,,,,,,,,,,0,0,0,0,1,,,,,,,,,,,,,,,,,,,,,,,,,,,,,,,,,,
,,,,,,,,2023-08-16_08h48.08.275,HF_wild_card,2022.2.4,Win32,2.994720308,5a0a057c80acd80001047392,64d2fd46c836a06233681665,64dc7f131bff2ecef98bcdc5,,,,,,,decisionTrl,resources/DBN.BMP,resources/DR.BMP,Door3,-0.33984375,-0.0078125,1,0,0,1.3924,optionLeft,70,2420,2,0,0,0,0,1,,,,,,,,,,,,,,,,,,,,,,,,,,,,,,,,,,,,,,,
,,,,,,,,2023-08-16_08h48.08.275,HF_wild_card,2022.2.4,Win32,2.994720308,5a0a057c80acd80001047392,64d2fd46c836a06233681665,64dc7f131bff2ecef98bcdc5,,,,,,,decisionTrl,resources/DB.BMP,resources/DG.BMP,WildCard_NonEx,-0.333333333,-0.04296875,1,0,0,2.3447,optionLeft,45,2465,2,1,0,1,0,1,,,,,,,,,,,,,,,,,,,,,,,,,,,,,,,,,,,,,,,
,,,,,,,,2023-08-16_08h48.08.275,HF_wild_card,2022.2.4,Win32,2.994720308,5a0a057c80acd80001047392,64d2fd46c836a06233681665,64dc7f131bff2ecef98bcdc5,,,,,,,sngl,resources/DB.BMP,resources/Empty.png,WildCard_NonEx,-0.3984375,-0.0390625,1,0,0,1.263,optionLeft,45,2510,2,2,0,2,0,1,,,,,,,,,,,,,,,,,,,,,,,,,,,,,,,,,,,,,,,
,,,,,,,,2023-08-16_08h48.08.275,HF_wild_card,2022.2.4,Win32,2.994720308,5a0a057c80acd80001047392,64d2fd46c836a06233681665,64dc7f131bff2ecef98bcdc5,,,,,,,decisionTrl,resources/DG.BMP,resources/DY.BMP,Door2,-0.354166667,-0.046875,1,0,0,1.8352,optionLeft,20,2530,2,3,0,3,0,1,,,,,,,,,,,,,,,,,,,,,,,,,,,,,,,,,,,,,,,
,,,,,,,,2023-08-16_08h48.08.275,HF_wild_card,2022.2.4,Win32,2.994720308,5a0a057c80acd80001047392,64d2fd46c836a06233681665,64dc7f131bff2ecef98bcdc5,,,,,,,ctch,resources/DG.BMP,resources/DBN.BMP,Door3,0.32421875,-0.028645833,1,0,0,3.7579,optionRight,70,2600,2,4,0,4,0,1,,,,,,,,,,,,,,,,,,,,,,,,,,,,,,,,,,,,,,,
,,,,,,,,2023-08-16_08h48.08.275,HF_wild_card,2022.2.4,Win32,2.994720308,5a0a057c80acd80001047392,64d2fd46c836a06233681665,64dc7f131bff2ecef98bcdc5,,,,,,,sngl,resources/DY.BMP,resources/Empty.png,Door1,-0.296875,0.013020833,1,0,0,3.709,optionLeft,30,2630,2,5,0,5,0,1,,,,,,,,,,,,,,,,,,,,,,,,,,,,,,,,,,,,,,,
,,,,,,,,2023-08-16_08h48.08.275,HF_wild_card,2022.2.4,Win32,2.994720308,5a0a057c80acd80001047392,64d2fd46c836a06233681665,64dc7f131bff2ecef98bcdc5,,,,,,,decisionTrl,resources/DG.BMP,resources/DY.BMP,Door1,0.30859375,0.033854167,1,0,0,2.2977,optionRight,30,2660,2,6,0,6,0,1,,,,,,,,,,,,,,,,,,,,,,,,,,,,,,,,,,,,,,,
,,,,,,,,2023-08-16_08h48.08.275,HF_wild_card,2022.2.4,Win32,2.994720308,5a0a057c80acd80001047392,64d2fd46c836a06233681665,64dc7f131bff2ecef98bcdc5,,,,,,,sngl,resources/Empty.png,resources/DB.BMP,WildCard_NonEx,0.319010417,0.03515625,1,0,0,1.6725,optionRight,55,2715,2,7,0,7,0,1,,,,,,,,,,,,,,,,,,,,,,,,,,,,,,,,,,,,,,,
,,,,,,,,2023-08-16_08h48.08.275,HF_wild_card,2022.2.4,Win32,2.994720308,5a0a057c80acd80001047392,64d2fd46c836a06233681665,64dc7f131bff2ecef98bcdc5,,,,,,,decisionTrl,resources/DB.BMP,resources/DBN.BMP,Door3,0.389322917,-0.067708333,1,0,0,1.8243,optionRight,70,2785,2,8,0,8,0,1,,,,,,,,,,,,,,,,,,,,,,,,,,,,,,,,,,,,,,,
,,,,,,,,2023-08-16_08h48.08.275,HF_wild_card,2022.2.4,Win32,2.994720308,5a0a057c80acd80001047392,64d2fd46c836a06233681665,64dc7f131bff2ecef98bcdc5,,,,,,,decisionTrl,resources/DG.BMP,resources/DY.BMP,Door2,-0.322916667,-0.079427083,1,0,0,2.2678,optionLeft,40,2825,2,9,0,9,0,1,,,,,,,,,,,,,,,,,,,,,,,,,,,,,,,,,,,,,,,
,,,,,,,,2023-08-16_08h48.08.275,HF_wild_card,2022.2.4,Win32,2.994720308,5a0a057c80acd80001047392,64d2fd46c836a06233681665,64dc7f131bff2ecef98bcdc5,,,,,,,sngl,resources/Empty.png,resources/DBN.BMP,Door3,0.42578125,-0.014322917,1,0,0,2.1253,optionRight,70,2895,2,10,0,10,0,1,,,,,,,,,,,,,,,,,,,,,,,,,,,,,,,,,,,,,,,
,,,,,,,,2023-08-16_08h48.08.275,HF_wild_card,2022.2.4,Win32,2.994720308,5a0a057c80acd80001047392,64d2fd46c836a06233681665,64dc7f131bff2ecef98bcdc5,,,,,,,sngl,resources/DBN.BMP,resources/Empty.png,Door3,-0.31640625,0.0390625,1,0,0,1.7099,optionLeft,70,2965,2,11,0,11,0,1,,,,,,,,,,,,,,,,,,,,,,,,,,,,,,,,,,,,,,,
,,,,,,,,2023-08-16_08h48.08.275,HF_wild_card,2022.2.4,Win32,2.994720308,5a0a057c80acd80001047392,64d2fd46c836a06233681665,64dc7f131bff2ecef98bcdc5,,,,,,,decisionTrl,resources/DY.BMP,resources/DG.BMP,Door1,-0.3984375,0.10546875,1,0,0,1.8538,optionLeft,30,2995,2,12,0,12,0,1,,,,,,,,,,,,,,,,,,,,,,,,,,,,,,,,,,,,,,,
,,,,,,,,2023-08-16_08h48.08.275,HF_wild_card,2022.2.4,Win32,2.994720308,5a0a057c80acd80001047392,64d2fd46c836a06233681665,64dc7f131bff2ecef98bcdc5,,,,,,,sngl,resources/Empty.png,resources/DR.BMP,Door4,0.350260417,-0.091145833,1,0,0,1.2647,optionRight,80,3075,2,13,0,13,0,1,,,,,,,,,,,,,,,,,,,,,,,,,,,,,,,,,,,,,,,
,,,,,,,,2023-08-16_08h48.08.275,HF_wild_card,2022.2.4,Win32,2.994720308,5a0a057c80acd80001047392,64d2fd46c836a06233681665,64dc7f131bff2ecef98bcdc5,,,,,,,decisionTrl,resources/DB.BMP,resources/DR.BMP,Door4,0.447916667,-0.0859375,1,0,0,1.3792,optionRight,80,3155,2,14,0,14,0,1,,,,,,,,,,,,,,,,,,,,,,,,,,,,,,,,,,,,,,,
,,,,,,,,2023-08-16_08h48.08.275,HF_wild_card,2022.2.4,Win32,2.994720308,5a0a057c80acd80001047392,64d2fd46c836a06233681665,64dc7f131bff2ecef98bcdc5,,,,,,,decisionTrl,resources/DY.BMP,resources/DG.BMP,Door1,-0.411458333,0.009114583,1,0,0,1.4055,optionLeft,30,3185,2,15,0,15,0,1,,,,,,,,,,,,,,,,,,,,,,,,,,,,,,,,,,,,,,,
,,,,,,,,2023-08-16_08h48.08.275,HF_wild_card,2022.2.4,Win32,2.994720308,5a0a057c80acd80001047392,64d2fd46c836a06233681665,64dc7f131bff2ecef98bcdc5,,,,,,,ctch,resources/DBN.BMP,resources/DG.BMP,Door3,-0.322916667,0.0234375,1,0,0,1.3856,optionLeft,70,3255,2,16,0,16,0,1,,,,,,,,,,,,,,,,,,,,,,,,,,,,,,,,,,,,,,,
,,,,,,,,2023-08-16_08h48.08.275,HF_wild_card,2022.2.4,Win32,2.994720308,5a0a057c80acd80001047392,64d2fd46c836a06233681665,64dc7f131bff2ecef98bcdc5,,,,,,,decisionTrl,resources/DR.BMP,resources/DBN.BMP,Door4,-0.423177083,-0.005208333,1,0,0,1.3901,optionLeft,80,3335,2,17,0,17,0,1,,,,,,,,,,,,,,,,,,,,,,,,,,,,,,,,,,,,,,,
,,,,,,,,2023-08-16_08h48.08.275,HF_wild_card,2022.2.4,Win32,2.994720308,5a0a057c80acd80001047392,64d2fd46c836a06233681665,64dc7f131bff2ecef98bcdc5,,,,,,,ctch,resources/DBN.BMP,resources/DG.BMP,Door3,-0.365885417,-0.013020833,1,0,0,1.3947,optionLeft,70,3405,2,18,0,18,0,1,,,,,,,,,,,,,,,,,,,,,,,,,,,,,,,,,,,,,,,
,,,,,,,,2023-08-16_08h48.08.275,HF_wild_card,2022.2.4,Win32,2.994720308,5a0a057c80acd80001047392,64d2fd46c836a06233681665,64dc7f131bff2ecef98bcdc5,,,,,,,decisionTrl,resources/DR.BMP,resources/DBN.BMP,Door3,0.3203125,-0.001302083,1,0,0,1.4022,optionRight,70,3475,2,19,0,19,0,1,,,,,,,,,,,,,,,,,,,,,,,,,,,,,,,,,,,,,,,
,,,,,,,,2023-08-16_08h48.08.275,HF_wild_card,2022.2.4,Win32,2.994720308,5a0a057c80acd80001047392,64d2fd46c836a06233681665,64dc7f131bff2ecef98bcdc5,,,,,,,ctch,resources/DY.BMP,resources/DR.BMP,Door4,0.346354167,-0.065104167,1,0,0,1.3977,optionRight,80,3555,2,20,0,20,0,1,,,,,,,,,,,,,,,,,,,,,,,,,,,,,,,,,,,,,,,
,,,,,,,,2023-08-16_08h48.08.275,HF_wild_card,2022.2.4,Win32,2.994720308,5a0a057c80acd80001047392,64d2fd46c836a06233681665,64dc7f131bff2ecef98bcdc5,,,,,,,decisionTrl,resources/DB.BMP,resources/DY.BMP,WildCard_NonEx,-0.333333333,-0.033854167,1,0,0,3.7142,optionLeft,45,3600,2,21,0,21,0,1,,,,,,,,,,,,,,,,,,,,,,,,,,,,,,,,,,,,,,,
,,,,,,,,2023-08-16_08h48.08.275,HF_wild_card,2022.2.4,Win32,2.994720308,5a0a057c80acd80001047392,64d2fd46c836a06233681665,64dc7f131bff2ecef98bcdc5,,,,,,,decisionTrl,resources/DBN.BMP,resources/DR.BMP,Door4,0.311197917,-0.102864583,1,0,0,4.216,optionRight,60,3660,2,22,0,22,0,1,,,,,,,,,,,,,,,,,,,,,,,,,,,,,,,,,,,,,,,
,,,,,,,,2023-08-16_08h48.08.275,HF_wild_card,2022.2.4,Win32,2.994720308,5a0a057c80acd80001047392,64d2fd46c836a06233681665,64dc7f131bff2ecef98bcdc5,,,,,,,decisionTrl,resources/DY.BMP,resources/DB.BMP,Door1,-0.348958333,0.002604167,1,0,0,1.8229,optionLeft,30,3690,2,23,0,23,0,1,,,,,,,,,,,,,,,,,,,,,,,,,,,,,,,,,,,,,,,
,,,,,,,,2023-08-16_08h48.08.275,HF_wild_card,2022.2.4,Win32,2.994720308,5a0a057c80acd80001047392,64d2fd46c836a06233681665,64dc7f131bff2ecef98bcdc5,,,,,,,ctch,resources/DR.BMP,resources/DY.BMP,Door4,-0.28125,-0.03515625,1,0,0,1.3729,optionLeft,80,3770,2,24,0,24,0,1,,,,,,,,,,,,,,,,,,,,,,,,,,,,,,,,,,,,,,,
,,,,,,,,2023-08-16_08h48.08.275,HF_wild_card,2022.2.4,Win32,2.994720308,5a0a057c80acd80001047392,64d2fd46c836a06233681665,64dc7f131bff2ecef98bcdc5,,,,,,,sngl,resources/DG.BMP,resources/Empty.png,Door2,-0.30859375,-0.014322917,1,0,0,1.2905,optionLeft,20,3790,2,25,0,25,0,1,,,,,,,,,,,,,,,,,,,,,,,,,,,,,,,,,,,,,,,
,,,,,,,,2023-08-16_08h48.08.275,HF_wild_card,2022.2.4,Win32,2.994720308,5a0a057c80acd80001047392,64d2fd46c836a06233681665,64dc7f131bff2ecef98bcdc5,,,,,,,decisionTrl,resources/DR.BMP,resources/DBN.BMP,Door3,0.388020833,0.001302083,1,0,0,1.4108,optionRight,70,3860,2,26,0,26,0,1,,,,,,,,,,,,,,,,,,,,,,,,,,,,,,,,,,,,,,,
,,,,,,,,2023-08-16_08h48.08.275,HF_wild_card,2022.2.4,Win32,2.994720308,5a0a057c80acd80001047392,64d2fd46c836a06233681665,64dc7f131bff2ecef98bcdc5,,,,,,,ctch,resources/DG.BMP,resources/DBN.BMP,Door3,0.360677083,-0.006510417,1,0,0,1.3754,optionRight,70,3930,2,27,0,27,0,1,,,,,,,,,,,,,,,,,,,,,,,,,,,,,,,,,,,,,,,
,,,,,,,,2023-08-16_08h48.08.275,HF_wild_card,2022.2.4,Win32,2.994720308,5a0a057c80acd80001047392,64d2fd46c836a06233681665,64dc7f131bff2ecef98bcdc5,,,,,,,decisionTrl,resources/DG.BMP,resources/DY.BMP,Door1,0.407552083,0.013020833,1,0,0,1.8779,optionRight,30,3960,2,28,0,28,0,1,,,,,,,,,,,,,,,,,,,,,,,,,,,,,,,,,,,,,,,
,,,,,,,,2023-08-16_08h48.08.275,HF_wild_card,2022.2.4,Win32,2.994720308,5a0a057c80acd80001047392,64d2fd46c836a06233681665,64dc7f131bff2ecef98bcdc5,,,,,,,decisionTrl,resources/DY.BMP,resources/DG.BMP,Door1,-0.384114583,-0.018229167,1,0,0,1.4361,optionLeft,30,3990,2,29,0,29,0,1,,,,,,,,,,,,,,,,,,,,,,,,,,,,,,,,,,,,,,,
,,,,,,,,2023-08-16_08h48.08.275,HF_wild_card,2022.2.4,Win32,2.994720308,5a0a057c80acd80001047392,64d2fd46c836a06233681665,64dc7f131bff2ecef98bcdc5,,,,,,,decisionTrl,resources/DR.BMP,resources/DB.BMP,Door4,-0.39453125,-0.02734375,1,0,0,1.3805,optionLeft,80,4070,2,30,0,30,0,1,,,,,,,,,,,,,,,,,,,,,,,,,,,,,,,,,,,,,,,
,,,,,,,,2023-08-16_08h48.08.275,HF_wild_card,2022.2.4,Win32,2.994720308,5a0a057c80acd80001047392,64d2fd46c836a06233681665,64dc7f131bff2ecef98bcdc5,,,,,,,sngl,resources/Empty.png,resources/DG.BMP,Door2,0.307291667,-0.026041667,1,0,0,1.2563,optionRight,40,4110,2,31,0,31,0,1,,,,,,,,,,,,,,,,,,,,,,,,,,,,,,,,,,,,,,,
,,,,,,,,2023-08-16_08h48.08.275,HF_wild_card,2022.2.4,Win32,2.994720308,5a0a057c80acd80001047392,64d2fd46c836a06233681665,64dc7f131bff2ecef98bcdc5,,,,,,,decisionTrl,resources/DR.BMP,resources/DBN.BMP,Door4,-0.338541667,-0.016927083,1,0,0,1.4487,optionLeft,80,4190,2,32,0,32,0,1,,,,,,,,,,,,,,,,,,,,,,,,,,,,,,,,,,,,,,,
,,,,,,,,2023-08-16_08h48.08.275,HF_wild_card,2022.2.4,Win32,2.994720308,5a0a057c80acd80001047392,64d2fd46c836a06233681665,64dc7f131bff2ecef98bcdc5,,,,,,,decisionTrl,resources/DG.BMP,resources/DB.BMP,Door2,-0.33203125,0.01171875,1,0,0,1.4069,optionLeft,40,4230,2,33,0,33,0,1,,,,,,,,,,,,,,,,,,,,,,,,,,,,,,,,,,,,,,,
,,,,,,,,2023-08-16_08h48.08.275,HF_wild_card,2022.2.4,Win32,2.994720308,5a0a057c80acd80001047392,64d2fd46c836a06233681665,64dc7f131bff2ecef98bcdc5,,,,,,,decisionTrl,resources/DY.BMP,resources/DG.BMP,Door1,-0.389322917,-0.013020833,1,0,0,1.8632,optionLeft,30,4260,2,34,0,34,0,1,,,,,,,,,,,,,,,,,,,,,,,,,,,,,,,,,,,,,,,
,,,,,,,,2023-08-16_08h48.08.275,HF_wild_card,2022.2.4,Win32,2.994720308,5a0a057c80acd80001047392,64d2fd46c836a06233681665,64dc7f131bff2ecef98bcdc5,,,,,,,ctch,resources/DY.BMP,resources/DR.BMP,Door4,0.3984375,-0.036458333,1,0,0,3.2297,optionRight,60,4320,2,35,0,35,0,1,,,,,,,,,,,,,,,,,,,,,,,,,,,,,,,,,,,,,,,
,,,,,,,,2023-08-16_08h48.08.275,HF_wild_card,2022.2.4,Win32,2.994720308,5a0a057c80acd80001047392,64d2fd46c836a06233681665,64dc7f131bff2ecef98bcdc5,,,,,,,ctch,resources/DR.BMP,resources/DY.BMP,Door4,-0.330729167,0.00390625,1,0,0,1.8162,optionLeft,80,4400,2,36,0,36,0,1,,,,,,,,,,,,,,,,,,,,,,,,,,,,,,,,,,,,,,,
,,,,,,,,2023-08-16_08h48.08.275,HF_wild_card,2022.2.4,Win32,2.994720308,5a0a057c80acd80001047392,64d2fd46c836a06233681665,64dc7f131bff2ecef98bcdc5,,,,,,,decisionTrl,resources/DBN.BMP,resources/DB.BMP,Door3,-0.388020833,-0.00390625,1,0,0,1.4133,optionLeft,70,4470,2,37,0,37,0,1,,,,,,,,,,,,,,,,,,,,,,,,,,,,,,,,,,,,,,,
,,,,,,,,2023-08-16_08h48.08.275,HF_wild_card,2022.2.4,Win32,2.994720308,5a0a057c80acd80001047392,64d2fd46c836a06233681665,64dc7f131bff2ecef98bcdc5,,,,,,,sngl,resources/Empty.png,resources/DB.BMP,WildCard_NonEx,0.30078125,-0.044270833,1,0,0,1.2334,optionRight,45,4515,2,38,0,38,0,1,,,,,,,,,,,,,,,,,,,,,,,,,,,,,,,,,,,,,,,
,,,,,,,,2023-08-16_08h48.08.275,HF_wild_card,2022.2.4,Win32,2.994720308,5a0a057c80acd80001047392,64d2fd46c836a06233681665,64dc7f131bff2ecef98bcdc5,,,,,,,sngl,resources/DB.BMP,resources/Empty.png,WildCard_NonEx,-0.3984375,-0.010416667,1,0,0,1.2589,optionLeft,55,4570,2,39,0,39,0,1,,,,,,,,,,,,,,,,,,,,,,,,,,,,,,,,,,,,,,,
,,,,,,,,2023-08-16_08h48.08.275,HF_wild_card,2022.2.4,Win32,2.994720308,5a0a057c80acd80001047392,64d2fd46c836a06233681665,64dc7f131bff2ecef98bcdc5,,,,,,,decisionTrl,resources/DBN.BMP,resources/DR.BMP,Door4,0.37109375,-0.045572917,1,0,0,4.1304,optionRight,60,4630,2,40,0,40,0,1,,,,,,,,,,,,,,,,,,,,,,,,,,,,,,,,,,,,,,,
,,,,,,,,2023-08-16_08h48.08.275,HF_wild_card,2022.2.4,Win32,2.994720308,5a0a057c80acd80001047392,64d2fd46c836a06233681665,64dc7f131bff2ecef98bcdc5,,,,,,,sngl,resources/DR.BMP,resources/Empty.png,Door4,-0.350260417,0.015625,1,0,0,1.278,optionLeft,60,4690,2,41,0,41,0,1,,,,,,,,,,,,,,,,,,,,,,,,,,,,,,,,,,,,,,,
,,,,,,,,2023-08-16_08h48.08.275,HF_wild_card,2022.2.4,Win32,2.994720308,5a0a057c80acd80001047392,64d2fd46c836a06233681665,64dc7f131bff2ecef98bcdc5,,,,,,,decisionTrl,resources/DBN.BMP,resources/DR.BMP,Door4,0.391927083,-0.03125,1,0,0,1.8953,optionRight,80,4770,2,42,0,42,0,1,,,,,,,,,,,,,,,,,,,,,,,,,,,,,,,,,,,,,,,
,,,,,,,,2023-08-16_08h48.08.275,HF_wild_card,2022.2.4,Win32,2.994720308,5a0a057c80acd80001047392,64d2fd46c836a06233681665,64dc7f131bff2ecef98bcdc5,,,,,,,sngl,resources/Empty.png,resources/DY.BMP,Door1,0.328125,-0.024739583,1,0,0,1.2538,optionRight,30,4800,2,43,0,43,0,1,,,,,,,,,,,,,,,,,,,,,,,,,,,,,,,,,,,,,,,
,,,,,,,,2023-08-16_08h48.08.275,HF_wild_card,2022.2.4,Win32,2.994720308,5a0a057c80acd80001047392,64d2fd46c836a06233681665,64dc7f131bff2ecef98bcdc5,,,,,,,,,,,,,,,,,,,,,,,,,,1,0,1,0,1,,,,,,,,,,,,,,,,,,,,,,,,,,,,,,,,,,
,,,,,,,,2023-08-16_08h48.08.275,HF_wild_card,2022.2.4,Win32,2.994720308,5a0a057c80acd80001047392,64d2fd46c836a06233681665,64dc7f131bff2ecef98bcdc5,,,,,,,decisionTrl,resources/DR.BMP,resources/DB.BMP,Door4,-0.442708333,-0.01953125,1,0,0,1.3956,optionLeft,60,4860,3,0,0,0,0,1,,,,,,,,,,,,,,,,,,,,,,,,,,,,,,,,,,,,,,,
,,,,,,,,2023-08-16_08h48.08.275,HF_wild_card,2022.2.4,Win32,2.994720308,5a0a057c80acd80001047392,64d2fd46c836a06233681665,64dc7f131bff2ecef98bcdc5,,,,,,,decisionTrl,resources/DR.BMP,resources/DBN.BMP,Door4,-0.290364583,-0.022135417,1,0,0,1.9058,optionLeft,80,4940,3,1,0,1,0,1,,,,,,,,,,,,,,,,,,,,,,,,,,,,,,,,,,,,,,,
,,,,,,,,2023-08-16_08h48.08.275,HF_wild_card,2022.2.4,Win32,2.994720308,5a0a057c80acd80001047392,64d2fd46c836a06233681665,64dc7f131bff2ecef98bcdc5,,,,,,,decisionTrl,resources/DY.BMP,resources/DG.BMP,Door1,-0.391927083,-0.00390625,1,0,0,1.4024,optionLeft,30,4970,3,2,0,2,0,1,,,,,,,,,,,,,,,,,,,,,,,,,,,,,,,,,,,,,,,
,,,,,,,,2023-08-16_08h48.08.275,HF_wild_card,2022.2.4,Win32,2.994720308,5a0a057c80acd80001047392,64d2fd46c836a06233681665,64dc7f131bff2ecef98bcdc5,,,,,,,decisionTrl,resources/DY.BMP,resources/DG.BMP,Door1,-0.341145833,-0.010416667,1,0,0,1.3803,optionLeft,30,5000,3,3,0,3,0,1,,,,,,,,,,,,,,,,,,,,,,,,,,,,,,,,,,,,,,,
,,,,,,,,2023-08-16_08h48.08.275,HF_wild_card,2022.2.4,Win32,2.994720308,5a0a057c80acd80001047392,64d2fd46c836a06233681665,64dc7f131bff2ecef98bcdc5,,,,,,,sngl,resources/DB.BMP,resources/Empty.png,WildCard_NonEx,-0.359375,-0.00390625,1,0,0,1.2771,optionLeft,45,5045,3,4,0,4,0,1,,,,,,,,,,,,,,,,,,,,,,,,,,,,,,,,,,,,,,,
,,,,,,,,2023-08-16_08h48.08.275,HF_wild_card,2022.2.4,Win32,2.994720308,5a0a057c80acd80001047392,64d2fd46c836a06233681665,64dc7f131bff2ecef98bcdc5,,,,,,,ctch,resources/DR.BMP,resources/DY.BMP,Door4,-0.30859375,0,1,0,0,1.3927,optionLeft,80,5125,3,5,0,5,0,1,,,,,,,,,,,,,,,,,,,,,,,,,,,,,,,,,,,,,,,
,,,,,,,,2023-08-16_08h48.08.275,HF_wild_card,2022.2.4,Win32,2.994720308,5a0a057c80acd80001047392,64d2fd46c836a06233681665,64dc7f131bff2ecef98bcdc5,,,,,,,sngl,resources/Empty.png,resources/DG.BMP,Door2,0.385416667,-0.001302083,1,0,0,1.2488,optionRight,20,5145,3,6,0,6,0,1,,,,,,,,,,,,,,,,,,,,,,,,,,,,,,,,,,,,,,,
,,,,,,,,2023-08-16_08h48.08.275,HF_wild_card,2022.2.4,Win32,2.994720308,5a0a057c80acd80001047392,64d2fd46c836a06233681665,64dc7f131bff2ecef98bcdc5,,,,,,,ctch,resources/DG.BMP,resources/DBN.BMP,Door3,0.352864583,-0.00390625,1,0,0,1.429,optionRight,70,5215,3,7,0,7,0,1,,,,,,,,,,,,,,,,,,,,,,,,,,,,,,,,,,,,,,,
,,,,,,,,2023-08-16_08h48.08.275,HF_wild_card,2022.2.4,Win32,2.994720308,5a0a057c80acd80001047392,64d2fd46c836a06233681665,64dc7f131bff2ecef98bcdc5,,,,,,,sngl,resources/DY.BMP,resources/Empty.png,Door1,-0.359375,-0.0546875,1,0,0,1.2603,optionLeft,30,5245,3,8,0,8,0,1,,,,,,,,,,,,,,,,,,,,,,,,,,,,,,,,,,,,,,,
,,,,,,,,2023-08-16_08h48.08.275,HF_wild_card,2022.2.4,Win32,2.994720308,5a0a057c80acd80001047392,64d2fd46c836a06233681665,64dc7f131bff2ecef98bcdc5,,,,,,,sngl,resources/DB.BMP,resources/Empty.png,WildCard_NonEx,-0.358072917,-0.040364583,1,0,0,1.2531,optionLeft,55,5300,3,9,0,9,0,1,,,,,,,,,,,,,,,,,,,,,,,,,,,,,,,,,,,,,,,
,,,,,,,,2023-08-16_08h48.08.275,HF_wild_card,2022.2.4,Win32,2.994720308,5a0a057c80acd80001047392,64d2fd46c836a06233681665,64dc7f131bff2ecef98bcdc5,,,,,,,ctch,resources/DG.BMP,resources/DBN.BMP,Door3,0.385416667,-0.00390625,1,0,0,1.3819,optionRight,70,5370,3,10,0,10,0,1,,,,,,,,,,,,,,,,,,,,,,,,,,,,,,,,,,,,,,,
,,,,,,,,2023-08-16_08h48.08.275,HF_wild_card,2022.2.4,Win32,2.994720308,5a0a057c80acd80001047392,64d2fd46c836a06233681665,64dc7f131bff2ecef98bcdc5,,,,,,,decisionTrl,resources/DB.BMP,resources/DY.BMP,WildCard_NonEx,-0.377604167,-0.040364583,1,0,0,1.3807,optionLeft,55,5425,3,11,0,11,0,1,,,,,,,,,,,,,,,,,,,,,,,,,,,,,,,,,,,,,,,
,,,,,,,,2023-08-16_08h48.08.275,HF_wild_card,2022.2.4,Win32,2.994720308,5a0a057c80acd80001047392,64d2fd46c836a06233681665,64dc7f131bff2ecef98bcdc5,,,,,,,decisionTrl,resources/DR.BMP,resources/DBN.BMP,Door4,-0.390625,-0.053385417,1,0,0,1.935,optionLeft,60,5485,3,12,0,12,0,1,,,,,,,,,,,,,,,,,,,,,,,,,,,,,,,,,,,,,,,
,,,,,,,,2023-08-16_08h48.08.275,HF_wild_card,2022.2.4,Win32,2.994720308,5a0a057c80acd80001047392,64d2fd46c836a06233681665,64dc7f131bff2ecef98bcdc5,,,,,,,sngl,resources/Empty.png,resources/DBN.BMP,Door3,0.2890625,0.045572917,1,0,0,1.2567,optionRight,70,5555,3,13,0,13,0,1,,,,,,,,,,,,,,,,,,,,,,,,,,,,,,,,,,,,,,,
,,,,,,,,2023-08-16_08h48.08.275,HF_wild_card,2022.2.4,Win32,2.994720308,5a0a057c80acd80001047392,64d2fd46c836a06233681665,64dc7f131bff2ecef98bcdc5,,,,,,,decisionTrl,resources/DG.BMP,resources/DY.BMP,Door1,0.57421875,-0.026041667,1,0,0,1.8841,optionRight,30,5585,3,14,0,14,0,1,,,,,,,,,,,,,,,,,,,,,,,,,,,,,,,,,,,,,,,
,,,,,,,,2023-08-16_08h48.08.275,HF_wild_card,2022.2.4,Win32,2.994720308,5a0a057c80acd80001047392,64d2fd46c836a06233681665,64dc7f131bff2ecef98bcdc5,,,,,,,decisionTrl,resources/DR.BMP,resources/DBN.BMP,Door4,-0.337239583,-0.03515625,1,0,0,1.3951,optionLeft,80,5665,3,15,0,15,0,1,,,,,,,,,,,,,,,,,,,,,,,,,,,,,,,,,,,,,,,
,,,,,,,,2023-08-16_08h48.08.275,HF_wild_card,2022.2.4,Win32,2.994720308,5a0a057c80acd80001047392,64d2fd46c836a06233681665,64dc7f131bff2ecef98bcdc5,,,,,,,decisionTrl,resources/DY.BMP,resources/DG.BMP,Door1,-0.348958333,-0.02734375,1,0,0,1.3873,optionLeft,30,5695,3,16,0,16,0,1,,,,,,,,,,,,,,,,,,,,,,,,,,,,,,,,,,,,,,,
,,,,,,,,2023-08-16_08h48.08.275,HF_wild_card,2022.2.4,Win32,2.994720308,5a0a057c80acd80001047392,64d2fd46c836a06233681665,64dc7f131bff2ecef98bcdc5,,,,,,,ctch,resources/DBN.BMP,resources/DG.BMP,Door3,-0.30859375,-0.091145833,1,0,0,1.4448,optionLeft,70,5765,3,17,0,17,0,1,,,,,,,,,,,,,,,,,,,,,,,,,,,,,,,,,,,,,,,
,,,,,,,,2023-08-16_08h48.08.275,HF_wild_card,2022.2.4,Win32,2.994720308,5a0a057c80acd80001047392,64d2fd46c836a06233681665,64dc7f131bff2ecef98bcdc5,,,,,,,decisionTrl,resources/DBN.BMP,resources/DR.BMP,Door4,0.3828125,-0.032552083,1,0,0,1.3807,optionRight,80,5845,3,18,0,18,0,1,,,,,,,,,,,,,,,,,,,,,,,,,,,,,,,,,,,,,,,
,,,,,,,,2023-08-16_08h48.08.275,HF_wild_card,2022.2.4,Win32,2.994720308,5a0a057c80acd80001047392,64d2fd46c836a06233681665,64dc7f131bff2ecef98bcdc5,,,,,,,decisionTrl,resources/DR.BMP,resources/DBN.BMP,Door4,-0.259114583,-0.033854167,1,0,0,1.5121,optionLeft,60,5905,3,19,0,19,0,1,,,,,,,,,,,,,,,,,,,,,,,,,,,,,,,,,,,,,,,
,,,,,,,,2023-08-16_08h48.08.275,HF_wild_card,2022.2.4,Win32,2.994720308,5a0a057c80acd80001047392,64d2fd46c836a06233681665,64dc7f131bff2ecef98bcdc5,,,,,,,ctch,resources/DY.BMP,resources/DR.BMP,Door4,0.368489583,-0.014322917,1,0,0,1.3717,optionRight,80,5985,3,20,0,20,0,1,,,,,,,,,,,,,,,,,,,,,,,,,,,,,,,,,,,,,,,
,,,,,,,,2023-08-16_08h48.08.275,HF_wild_card,2022.2.4,Win32,2.994720308,5a0a057c80acd80001047392,64d2fd46c836a06233681665,64dc7f131bff2ecef98bcdc5,,,,,,,sngl,resources/Empty.png,resources/DB.BMP,WildCard_NonEx,0.313802083,-0.0703125,1,0,0,1.2497,optionRight,45,6030,3,21,0,21,0,1,,,,,,,,,,,,,,,,,,,,,,,,,,,,,,,,,,,,,,,
,,,,,,,,2023-08-16_08h48.08.275,HF_wild_card,2022.2.4,Win32,2.994720308,5a0a057c80acd80001047392,64d2fd46c836a06233681665,64dc7f131bff2ecef98bcdc5,,,,,,,decisionTrl,resources/DG.BMP,resources/DB.BMP,WildCard_NonEx,0.33203125,-0.072916667,1,0,0,1.3911,optionRight,55,6085,3,22,0,22,0,1,,,,,,,,,,,,,,,,,,,,,,,,,,,,,,,,,,,,,,,
,,,,,,,,2023-08-16_08h48.08.275,HF_wild_card,2022.2.4,Win32,2.994720308,5a0a057c80acd80001047392,64d2fd46c836a06233681665,64dc7f131bff2ecef98bcdc5,,,,,,,decisionTrl,resources/DY.BMP,resources/DB.BMP,Door1,-0.39453125,-0.041666667,1,0,0,1.9243,optionLeft,30,6115,3,23,0,23,0,1,,,,,,,,,,,,,,,,,,,,,,,,,,,,,,,,,,,,,,,
,,,,,,,,2023-08-16_08h48.08.275,HF_wild_card,2022.2.4,Win32,2.994720308,5a0a057c80acd80001047392,64d2fd46c836a06233681665,64dc7f131bff2ecef98bcdc5,,,,,,,decisionTrl,resources/DG.BMP,resources/DY.BMP,Door2,-0.345052083,-0.079427083,1,0,0,2.4414,optionLeft,20,6135,3,24,0,24,0,1,,,,,,,,,,,,,,,,,,,,,,,,,,,,,,,,,,,,,,,
,,,,,,,,2023-08-16_08h48.08.275,HF_wild_card,2022.2.4,Win32,2.994720308,5a0a057c80acd80001047392,64d2fd46c836a06233681665,64dc7f131bff2ecef98bcdc5,,,,,,,decisionTrl,resources/DBN.BMP,resources/DB.BMP,Door3,-0.354166667,-0.010416667,1,0,0,1.3897,optionLeft,70,6205,3,25,0,25,0,1,,,,,,,,,,,,,,,,,,,,,,,,,,,,,,,,,,,,,,,
,,,,,,,,2023-08-16_08h48.08.275,HF_wild_card,2022.2.4,Win32,2.994720308,5a0a057c80acd80001047392,64d2fd46c836a06233681665,64dc7f131bff2ecef98bcdc5,,,,,,,decisionTrl,resources/DB.BMP,resources/DG.BMP,WildCard_NonEx,-0.3671875,-0.033854167,1,0,0,1.967,optionLeft,55,6260,3,26,0,26,0,1,,,,,,,,,,,,,,,,,,,,,,,,,,,,,,,,,,,,,,,
,,,,,,,,2023-08-16_08h48.08.275,HF_wild_card,2022.2.4,Win32,2.994720308,5a0a057c80acd80001047392,64d2fd46c836a06233681665,64dc7f131bff2ecef98bcdc5,,,,,,,sngl,resources/DR.BMP,resources/Empty.png,Door4,-0.3671875,-0.028645833,1,0,0,1.3084,optionLeft,80,6340,3,27,0,27,0,1,,,,,,,,,,,,,,,,,,,,,,,,,,,,,,,,,,,,,,,
,,,,,,,,2023-08-16_08h48.08.275,HF_wild_card,2022.2.4,Win32,2.994720308,5a0a057c80acd80001047392,64d2fd46c836a06233681665,64dc7f131bff2ecef98bcdc5,,,,,,,sngl,resources/DBN.BMP,resources/Empty.png,Door3,-0.64453125,0.109375,1,0,0,1.3611,optionLeft,70,6410,3,28,0,28,0,1,,,,,,,,,,,,,,,,,,,,,,,,,,,,,,,,,,,,,,,
,,,,,,,,2023-08-16_08h48.08.275,HF_wild_card,2022.2.4,Win32,2.994720308,5a0a057c80acd80001047392,64d2fd46c836a06233681665,64dc7f131bff2ecef98bcdc5,,,,,,,decisionTrl,resources/DBN.BMP,resources/DR.BMP,Door3,-0.348958333,0.03515625,1,0,0,1.3856,optionLeft,70,6480,3,29,0,29,0,1,,,,,,,,,,,,,,,,,,,,,,,,,,,,,,,,,,,,,,,
,,,,,,,,2023-08-16_08h48.08.275,HF_wild_card,2022.2.4,Win32,2.994720308,5a0a057c80acd80001047392,64d2fd46c836a06233681665,64dc7f131bff2ecef98bcdc5,,,,,,,sngl,resources/Empty.png,resources/DY.BMP,Door1,0.3984375,-0.072916667,1,0,0,1.2459,optionRight,30,6510,3,30,0,30,0,1,,,,,,,,,,,,,,,,,,,,,,,,,,,,,,,,,,,,,,,
,,,,,,,,2023-08-16_08h48.08.275,HF_wild_card,2022.2.4,Win32,2.994720308,5a0a057c80acd80001047392,64d2fd46c836a06233681665,64dc7f131bff2ecef98bcdc5,,,,,,,sngl,resources/Empty.png,resources/DB.BMP,WildCard_NonEx,0.348958333,-0.080729167,1,0,0,1.2415,optionRight,55,6565,3,31,0,31,0,1,,,,,,,,,,,,,,,,,,,,,,,,,,,,,,,,,,,,,,,
,,,,,,,,2023-08-16_08h48.08.275,HF_wild_card,2022.2.4,Win32,2.994720308,5a0a057c80acd80001047392,64d2fd46c836a06233681665,64dc7f131bff2ecef98bcdc5,,,,,,,ctch,resources/DY.BMP,resources/DR.BMP,Door4,0.302083333,-0.026041667,1,0,0,1.3858,optionRight,60,6625,3,32,0,32,0,1,,,,,,,,,,,,,,,,,,,,,,,,,,,,,,,,,,,,,,,
,,,,,,,,2023-08-16_08h48.08.275,HF_wild_card,2022.2.4,Win32,2.994720308,5a0a057c80acd80001047392,64d2fd46c836a06233681665,64dc7f131bff2ecef98bcdc5,,,,,,,sngl,resources/DG.BMP,resources/Empty.png,Door2,-0.3203125,-0.03515625,1,0,0,1.2975,optionLeft,40,6665,3,33,0,33,0,1,,,,,,,,,,,,,,,,,,,,,,,,,,,,,,,,,,,,,,,
,,,,,,,,2023-08-16_08h48.08.275,HF_wild_card,2022.2.4,Win32,2.994720308,5a0a057c80acd80001047392,64d2fd46c836a06233681665,64dc7f131bff2ecef98bcdc5,,,,,,,ctch,resources/DR.BMP,resources/DY.BMP,Door4,-0.333333333,-0.041666667,1,0,0,1.4027,optionLeft,80,6745,3,34,0,34,0,1,,,,,,,,,,,,,,,,,,,,,,,,,,,,,,,,,,,,,,,
,,,,,,,,2023-08-16_08h48.08.275,HF_wild_card,2022.2.4,Win32,2.994720308,5a0a057c80acd80001047392,64d2fd46c836a06233681665,64dc7f131bff2ecef98bcdc5,,,,,,,decisionTrl,resources/DB.BMP,resources/DBN.BMP,Door3,0.440104167,-0.065104167,1,0,0,1.3792,optionRight,70,6815,3,35,0,35,0,1,,,,,,,,,,,,,,,,,,,,,,,,,,,,,,,,,,,,,,,
,,,,,,,,2023-08-16_08h48.08.275,HF_wild_card,2022.2.4,Win32,2.994720308,5a0a057c80acd80001047392,64d2fd46c836a06233681665,64dc7f131bff2ecef98bcdc5,,,,,,,decisionTrl,resources/DG.BMP,resources/DY.BMP,Door2,-0.279947917,-0.005208333,1,0,0,1.8548,optionLeft,40,6855,3,36,0,36,0,1,,,,,,,,,,,,,,,,,,,,,,,,,,,,,,,,,,,,,,,
,,,,,,,,2023-08-16_08h48.08.275,HF_wild_card,2022.2.4,Win32,2.994720308,5a0a057c80acd80001047392,64d2fd46c836a06233681665,64dc7f131bff2ecef98bcdc5,,,,,,,decisionTrl,resources/DBN.BMP,resources/DR.BMP,Door4,0.31640625,-0.01953125,1,0,0,1.4531,optionRight,80,6935,3,37,0,37,0,1,,,,,,,,,,,,,,,,,,,,,,,,,,,,,,,,,,,,,,,
,,,,,,,,2023-08-16_08h48.08.275,HF_wild_card,2022.2.4,Win32,2.994720308,5a0a057c80acd80001047392,64d2fd46c836a06233681665,64dc7f131bff2ecef98bcdc5,,,,,,,decisionTrl,resources/DB.BMP,resources/DR.BMP,Door4,0.315104167,-0.061197917,1,0,0,1.3768,optionRight,60,6995,3,38,0,38,0,1,,,,,,,,,,,,,,,,,,,,,,,,,,,,,,,,,,,,,,,
,,,,,,,,2023-08-16_08h48.08.275,HF_wild_card,2022.2.4,Win32,2.994720308,5a0a057c80acd80001047392,64d2fd46c836a06233681665,64dc7f131bff2ecef98bcdc5,,,,,,,decisionTrl,resources/DG.BMP,resources/DY.BMP,Door1,0.31640625,-0.01953125,1,0,0,2.3289,optionRight,30,7025,3,39,0,39,0,1,,,,,,,,,,,,,,,,,,,,,,,,,,,,,,,,,,,,,,,
,,,,,,,,2023-08-16_08h48.08.275,HF_wild_card,2022.2.4,Win32,2.994720308,5a0a057c80acd80001047392,64d2fd46c836a06233681665,64dc7f131bff2ecef98bcdc5,,,,,,,ctch,resources/DBN.BMP,resources/DG.BMP,Door3,-0.33203125,-0.03125,1,0,0,1.3863,optionLeft,70,7095,3,40,0,40,0,1,,,,,,,,,,,,,,,,,,,,,,,,,,,,,,,,,,,,,,,
,,,,,,,,2023-08-16_08h48.08.275,HF_wild_card,2022.2.4,Win32,2.994720308,5a0a057c80acd80001047392,64d2fd46c836a06233681665,64dc7f131bff2ecef98bcdc5,,,,,,,decisionTrl,resources/DY.BMP,resources/DG.BMP,Door1,-0.311197917,-0.018229167,1,0,0,1.3847,optionLeft,30,7125,3,41,0,41,0,1,,,,,,,,,,,,,,,,,,,,,,,,,,,,,,,,,,,,,,,
,,,,,,,,2023-08-16_08h48.08.275,HF_wild_card,2022.2.4,Win32,2.994720308,5a0a057c80acd80001047392,64d2fd46c836a06233681665,64dc7f131bff2ecef98bcdc5,,,,,,,decisionTrl,resources/DBN.BMP,resources/DR.BMP,Door4,0.32421875,-0.0078125,1,0,0,1.375,optionRight,60,7185,3,42,0,42,0,1,,,,,,,,,,,,,,,,,,,,,,,,,,,,,,,,,,,,,,,
,,,,,,,,2023-08-16_08h48.08.275,HF_wild_card,2022.2.4,Win32,2.994720308,5a0a057c80acd80001047392,64d2fd46c836a06233681665,64dc7f131bff2ecef98bcdc5,,,,,,,sngl,resources/Empty.png,resources/DR.BMP,Door4,0.282552083,0.0078125,1,0,0,1.2646,optionRight,60,7245,3,43,0,43,0,1,,,,,,,,,,,,,,,,,,,,,,,,,,,,,,,,,,,,,,,
,,,,,,,,2023-08-16_08h48.08.275,HF_wild_card,2022.2.4,Win32,2.994720308,5a0a057c80acd80001047392,64d2fd46c836a06233681665,64dc7f131bff2ecef98bcdc5,,,,,,,,,,,,,,,,,,,,,,,,,,2,0,2,0,1,,,,,,,,,,,,,,,,,,,,,,,,,,,,,,,,,,
,,,,,,,,2023-08-16_08h48.08.275,HF_wild_card,2022.2.4,Win32,2.994720308,5a0a057c80acd80001047392,64d2fd46c836a06233681665,64dc7f131bff2ecef98bcdc5,,,,,,,ctch,resources/DR.BMP,resources/DY.BMP,Door4,-0.385416667,-0.041666667,1,0,0,1.3868,optionLeft,60,7305,4,0,0,0,0,1,,,,,,,,,,,,,,,,,,,,,,,,,,,,,,,,,,,,,,,
,,,,,,,,2023-08-16_08h48.08.275,HF_wild_card,2022.2.4,Win32,2.994720308,5a0a057c80acd80001047392,64d2fd46c836a06233681665,64dc7f131bff2ecef98bcdc5,,,,,,,sngl,resources/Empty.png,resources/DY.BMP,Door1,0.3671875,-0.01171875,1,0,0,1.2539,optionRight,30,7335,4,1,0,1,0,1,,,,,,,,,,,,,,,,,,,,,,,,,,,,,,,,,,,,,,,
,,,,,,,,2023-08-16_08h48.08.275,HF_wild_card,2022.2.4,Win32,2.994720308,5a0a057c80acd80001047392,64d2fd46c836a06233681665,64dc7f131bff2ecef98bcdc5,,,,,,,decisionTrl,resources/DY.BMP,resources/DP.BMP,WildCard_Ex,0.403645833,-0.02734375,1,0,0,1.3848,optionRight,95,7430,4,2,0,2,0,1,,,,,,,,,,,,,,,,,,,,,,,,,,,,,,,,,,,,,,,
,,,,,,,,2023-08-16_08h48.08.275,HF_wild_card,2022.2.4,Win32,2.994720308,5a0a057c80acd80001047392,64d2fd46c836a06233681665,64dc7f131bff2ecef98bcdc5,,,,,,,sngl,resources/DBN.BMP,resources/Empty.png,Door3,-0.3203125,-0.032552083,1,0,0,1.2609,optionLeft,70,7500,4,3,0,3,0,1,,,,,,,,,,,,,,,,,,,,,,,,,,,,,,,,,,,,,,,
,,,,,,,,2023-08-16_08h48.08.275,HF_wild_card,2022.2.4,Win32,2.994720308,5a0a057c80acd80001047392,64d2fd46c836a06233681665,64dc7f131bff2ecef98bcdc5,,,,,,,decisionTrl,resources/DG.BMP,resources/DY.BMP,Door2,-0.298177083,-0.028645833,1,0,0,1.8784,optionLeft,20,7520,4,4,0,4,0,1,,,,,,,,,,,,,,,,,,,,,,,,,,,,,,,,,,,,,,,
,,,,,,,,2023-08-16_08h48.08.275,HF_wild_card,2022.2.4,Win32,2.994720308,5a0a057c80acd80001047392,64d2fd46c836a06233681665,64dc7f131bff2ecef98bcdc5,,,,,,,sngl,resources/DY.BMP,resources/Empty.png,Door1,-0.298177083,-0.033854167,1,0,0,1.2887,optionLeft,30,7550,4,5,0,5,0,1,,,,,,,,,,,,,,,,,,,,,,,,,,,,,,,,,,,,,,,
,,,,,,,,2023-08-16_08h48.08.275,HF_wild_card,2022.2.4,Win32,2.994720308,5a0a057c80acd80001047392,64d2fd46c836a06233681665,64dc7f131bff2ecef98bcdc5,,,,,,,ctch,resources/DBN.BMP,resources/DG.BMP,Door3,-0.295572917,-0.032552083,1,0,0,1.4198,optionLeft,70,7620,4,6,0,6,0,1,,,,,,,,,,,,,,,,,,,,,,,,,,,,,,,,,,,,,,,
,,,,,,,,2023-08-16_08h48.08.275,HF_wild_card,2022.2.4,Win32,2.994720308,5a0a057c80acd80001047392,64d2fd46c836a06233681665,64dc7f131bff2ecef98bcdc5,,,,,,,ctch,resources/DG.BMP,resources/DBN.BMP,Door3,0.384114583,-0.075520833,1,0,0,1.3933,optionRight,70,7690,4,7,0,7,0,1,,,,,,,,,,,,,,,,,,,,,,,,,,,,,,,,,,,,,,,
,,,,,,,,2023-08-16_08h48.08.275,HF_wild_card,2022.2.4,Win32,2.994720308,5a0a057c80acd80001047392,64d2fd46c836a06233681665,64dc7f131bff2ecef98bcdc5,,,,,,,decisionTrl,resources/DY.BMP,resources/DG.BMP,Door1,-0.29296875,-0.041666667,1,0,0,1.8474,optionLeft,30,7720,4,8,0,8,0,1,,,,,,,,,,,,,,,,,,,,,,,,,,,,,,,,,,,,,,,
,,,,,,,,2023-08-16_08h48.08.275,HF_wild_card,2022.2.4,Win32,2.994720308,5a0a057c80acd80001047392,64d2fd46c836a06233681665,64dc7f131bff2ecef98bcdc5,,,,,,,decisionTrl,resources/DG.BMP,resources/DY.BMP,Door2,-0.303385417,-0.03125,1,0,0,1.4287,optionLeft,20,7740,4,9,0,9,0,1,,,,,,,,,,,,,,,,,,,,,,,,,,,,,,,,,,,,,,,
,,,,,,,,2023-08-16_08h48.08.275,HF_wild_card,2022.2.4,Win32,2.994720308,5a0a057c80acd80001047392,64d2fd46c836a06233681665,64dc7f131bff2ecef98bcdc5,,,,,,,decisionTrl,resources/DP.BMP,resources/DG.BMP,WildCard_Ex,-0.334635417,-0.015625,1,0,0,1.3887,optionLeft,5,7745,4,10,0,10,0,1,,,,,,,,,,,,,,,,,,,,,,,,,,,,,,,,,,,,,,,
,,,,,,,,2023-08-16_08h48.08.275,HF_wild_card,2022.2.4,Win32,2.994720308,5a0a057c80acd80001047392,64d2fd46c836a06233681665,64dc7f131bff2ecef98bcdc5,,,,,,,decisionTrl,resources/DBN.BMP,resources/DR.BMP,Door3,-0.283854167,0.0234375,1,0,0,1.3787,optionLeft,70,7815,4,11,0,11,0,1,,,,,,,,,,,,,,,,,,,,,,,,,,,,,,,,,,,,,,,
,,,,,,,,2023-08-16_08h48.08.275,HF_wild_card,2022.2.4,Win32,2.994720308,5a0a057c80acd80001047392,64d2fd46c836a06233681665,64dc7f131bff2ecef98bcdc5,,,,,,,sngl,resources/DP.BMP,resources/Empty.png,WildCard_Ex,-0.319010417,-0.040364583,1,0,0,1.2724,optionLeft,95,7910,4,12,0,12,0,1,,,,,,,,,,,,,,,,,,,,,,,,,,,,,,,,,,,,,,,
,,,,,,,,2023-08-16_08h48.08.275,HF_wild_card,2022.2.4,Win32,2.994720308,5a0a057c80acd80001047392,64d2fd46c836a06233681665,64dc7f131bff2ecef98bcdc5,,,,,,,ctch,resources/DY.BMP,resources/DR.BMP,Door4,0.315104167,-0.037760417,1,0,0,1.8317,optionRight,60,7970,4,13,0,13,0,1,,,,,,,,,,,,,,,,,,,,,,,,,,,,,,,,,,,,,,,
,,,,,,,,2023-08-16_08h48.08.275,HF_wild_card,2022.2.4,Win32,2.994720308,5a0a057c80acd80001047392,64d2fd46c836a06233681665,64dc7f131bff2ecef98bcdc5,,,,,,,decisionTrl,resources/DP.BMP,resources/DR.BMP,WildCard_Ex,-0.298177083,-0.022135417,1,0,0,1.4015,optionLeft,5,7975,4,14,0,14,0,1,,,,,,,,,,,,,,,,,,,,,,,,,,,,,,,,,,,,,,,
,,,,,,,,2023-08-16_08h48.08.275,HF_wild_card,2022.2.4,Win32,2.994720308,5a0a057c80acd80001047392,64d2fd46c836a06233681665,64dc7f131bff2ecef98bcdc5,,,,,,,sngl,resources/Empty.png,resources/DP.BMP,WildCard_Ex,0.375,0.001302083,1,0,0,1.2801,optionRight,5,7980,4,15,0,15,0,1,,,,,,,,,,,,,,,,,,,,,,,,,,,,,,,,,,,,,,,
,,,,,,,,2023-08-16_08h48.08.275,HF_wild_card,2022.2.4,Win32,2.994720308,5a0a057c80acd80001047392,64d2fd46c836a06233681665,64dc7f131bff2ecef98bcdc5,,,,,,,decisionTrl,resources/DR.BMP,resources/DBN.BMP,Door4,-0.322916667,-0.072916667,1,0,0,1.8577,optionLeft,60,8040,4,16,0,16,0,1,,,,,,,,,,,,,,,,,,,,,,,,,,,,,,,,,,,,,,,
,,,,,,,,2023-08-16_08h48.08.275,HF_wild_card,2022.2.4,Win32,2.994720308,5a0a057c80acd80001047392,64d2fd46c836a06233681665,64dc7f131bff2ecef98bcdc5,,,,,,,sngl,resources/Empty.png,resources/DG.BMP,Door2,0.274739583,-0.03125,1,0,0,1.254,optionRight,40,8080,4,17,0,17,0,1,,,,,,,,,,,,,,,,,,,,,,,,,,,,,,,,,,,,,,,
,,,,,,,,2023-08-16_08h48.08.275,HF_wild_card,2022.2.4,Win32,2.994720308,5a0a057c80acd80001047392,64d2fd46c836a06233681665,64dc7f131bff2ecef98bcdc5,,,,,,,ctch,resources/DBN.BMP,resources/DG.BMP,Door3,-0.356770833,0.005208333,1,0,0,1.4862,optionLeft,70,8150,4,18,0,18,0,1,,,,,,,,,,,,,,,,,,,,,,,,,,,,,,,,,,,,,,,
,,,,,,,,2023-08-16_08h48.08.275,HF_wild_card,2022.2.4,Win32,2.994720308,5a0a057c80acd80001047392,64d2fd46c836a06233681665,64dc7f131bff2ecef98bcdc5,,,,,,,ctch,resources/DY.BMP,resources/DR.BMP,Door4,0.302083333,0.00390625,1,0,0,1.3679,optionRight,80,8230,4,19,0,19,0,1,,,,,,,,,,,,,,,,,,,,,,,,,,,,,,,,,,,,,,,
,,,,,,,,2023-08-16_08h48.08.275,HF_wild_card,2022.2.4,Win32,2.994720308,5a0a057c80acd80001047392,64d2fd46c836a06233681665,64dc7f131bff2ecef98bcdc5,,,,,,,decisionTrl,resources/DP.BMP,resources/DBN.BMP,WildCard_Ex,-0.321614583,-0.0546875,1,0,0,1.3853,optionLeft,95,8325,4,20,0,20,0,1,,,,,,,,,,,,,,,,,,,,,,,,,,,,,,,,,,,,,,,
,,,,,,,,2023-08-16_08h48.08.275,HF_wild_card,2022.2.4,Win32,2.994720308,5a0a057c80acd80001047392,64d2fd46c836a06233681665,64dc7f131bff2ecef98bcdc5,,,,,,,sngl,resources/DG.BMP,resources/Empty.png,Door2,-0.319010417,-0.005208333,1,0,0,1.2911,optionLeft,20,8345,4,21,0,21,0,1,,,,,,,,,,,,,,,,,,,,,,,,,,,,,,,,,,,,,,,
,,,,,,,,2023-08-16_08h48.08.275,HF_wild_card,2022.2.4,Win32,2.994720308,5a0a057c80acd80001047392,64d2fd46c836a06233681665,64dc7f131bff2ecef98bcdc5,,,,,,,sngl,resources/Empty.png,resources/DR.BMP,Door4,0.302083333,0.010416667,1,0,0,1.2727,optionRight,80,8425,4,22,0,22,0,1,,,,,,,,,,,,,,,,,,,,,,,,,,,,,,,,,,,,,,,
,,,,,,,,2023-08-16_08h48.08.275,HF_wild_card,2022.2.4,Win32,2.994720308,5a0a057c80acd80001047392,64d2fd46c836a06233681665,64dc7f131bff2ecef98bcdc5,,,,,,,decisionTrl,resources/DR.BMP,resources/DP.BMP,WildCard_Ex,0.411458333,-0.045572917,1,0,0,1.4159,optionRight,95,8520,4,23,0,23,0,1,,,,,,,,,,,,,,,,,,,,,,,,,,,,,,,,,,,,,,,
,,,,,,,,2023-08-16_08h48.08.275,HF_wild_card,2022.2.4,Win32,2.994720308,5a0a057c80acd80001047392,64d2fd46c836a06233681665,64dc7f131bff2ecef98bcdc5,,,,,,,sngl,resources/DP.BMP,resources/Empty.png,WildCard_Ex,-0.326822917,-0.048177083,1,0,0,1.2913,optionLeft,5,8525,4,24,0,24,0,1,,,,,,,,,,,,,,,,,,,,,,,,,,,,,,,,,,,,,,,
,,,,,,,,2023-08-16_08h48.08.275,HF_wild_card,2022.2.4,Win32,2.994720308,5a0a057c80acd80001047392,64d2fd46c836a06233681665,64dc7f131bff2ecef98bcdc5,,,,,,,decisionTrl,resources/DY.BMP,resources/DG.BMP,Door1,-0.393229167,-0.01953125,1,0,0,1.4689,optionLeft,30,8555,4,25,0,25,0,1,,,,,,,,,,,,,,,,,,,,,,,,,,,,,,,,,,,,,,,
,,,,,,,,2023-08-16_08h48.08.275,HF_wild_card,2022.2.4,Win32,2.994720308,5a0a057c80acd80001047392,64d2fd46c836a06233681665,64dc7f131bff2ecef98bcdc5,,,,,,,decisionTrl,resources/DR.BMP,resources/DBN.BMP,Door4,-0.321614583,0.01953125,1,0,0,1.9409,optionLeft,80,8635,4,26,0,26,0,1,,,,,,,,,,,,,,,,,,,,,,,,,,,,,,,,,,,,,,,
,,,,,,,,2023-08-16_08h48.08.275,HF_wild_card,2022.2.4,Win32,2.994720308,5a0a057c80acd80001047392,64d2fd46c836a06233681665,64dc7f131bff2ecef98bcdc5,,,,,,,decisionTrl,resources/DBN.BMP,resources/DR.BMP,Door4,0.3515625,0.010416667,1,0,0,1.9072,optionRight,60,8695,4,27,0,27,0,1,,,,,,,,,,,,,,,,,,,,,,,,,,,,,,,,,,,,,,,
,,,,,,,,2023-08-16_08h48.08.275,HF_wild_card,2022.2.4,Win32,2.994720308,5a0a057c80acd80001047392,64d2fd46c836a06233681665,64dc7f131bff2ecef98bcdc5,,,,,,,ctch,resources/DG.BMP,resources/DBN.BMP,Door3,0.33203125,0.03125,1,0,0,1.4308,optionRight,70,8765,4,28,0,28,0,1,,,,,,,,,,,,,,,,,,,,,,,,,,,,,,,,,,,,,,,
,,,,,,,,2023-08-16_08h48.08.275,HF_wild_card,2022.2.4,Win32,2.994720308,5a0a057c80acd80001047392,64d2fd46c836a06233681665,64dc7f131bff2ecef98bcdc5,,,,,,,decisionTrl,resources/DY.BMP,resources/DG.BMP,Door1,-0.3046875,-0.015625,1,0,0,1.423,optionLeft,30,8795,4,29,0,29,0,1,,,,,,,,,,,,,,,,,,,,,,,,,,,,,,,,,,,,,,,
,,,,,,,,2023-08-16_08h48.08.275,HF_wild_card,2022.2.4,Win32,2.994720308,5a0a057c80acd80001047392,64d2fd46c836a06233681665,64dc7f131bff2ecef98bcdc5,,,,,,,decisionTrl,resources/DG.BMP,resources/DY.BMP,Door1,0.389322917,-0.002604167,1,0,0,1.8366,optionRight,30,8825,4,30,0,30,0,1,,,,,,,,,,,,,,,,,,,,,,,,,,,,,,,,,,,,,,,
,,,,,,,,2023-08-16_08h48.08.275,HF_wild_card,2022.2.4,Win32,2.994720308,5a0a057c80acd80001047392,64d2fd46c836a06233681665,64dc7f131bff2ecef98bcdc5,,,,,,,decisionTrl,resources/DR.BMP,resources/DBN.BMP,Door4,-0.32421875,-0.01953125,1,0,0,1.8663,optionLeft,60,8885,4,31,0,31,0,1,,,,,,,,,,,,,,,,,,,,,,,,,,,,,,,,,,,,,,,
,,,,,,,,2023-08-16_08h48.08.275,HF_wild_card,2022.2.4,Win32,2.994720308,5a0a057c80acd80001047392,64d2fd46c836a06233681665,64dc7f131bff2ecef98bcdc5,,,,,,,decisionTrl,resources/DY.BMP,resources/DG.BMP,Door1,-0.31640625,-0.015625,1,0,0,1.3906,optionLeft,30,8915,4,32,0,32,0,1,,,,,,,,,,,,,,,,,,,,,,,,,,,,,,,,,,,,,,,
,,,,,,,,2023-08-16_08h48.08.275,HF_wild_card,2022.2.4,Win32,2.994720308,5a0a057c80acd80001047392,64d2fd46c836a06233681665,64dc7f131bff2ecef98bcdc5,,,,,,,decisionTrl,resources/DBN.BMP,resources/DP.BMP,Door3,-0.270833333,-0.055989583,1,0,0,1.8757,optionLeft,70,8985,4,33,0,33,0,1,,,,,,,,,,,,,,,,,,,,,,,,,,,,,,,,,,,,,,,
,,,,,,,,2023-08-16_08h48.08.275,HF_wild_card,2022.2.4,Win32,2.994720308,5a0a057c80acd80001047392,64d2fd46c836a06233681665,64dc7f131bff2ecef98bcdc5,,,,,,,decisionTrl,resources/DR.BMP,resources/DBN.BMP,Door4,-0.412760417,-0.037760417,1,0,0,1.392,optionLeft,80,9065,4,34,0,34,0,1,,,,,,,,,,,,,,,,,,,,,,,,,,,,,,,,,,,,,,,
,,,,,,,,2023-08-16_08h48.08.275,HF_wild_card,2022.2.4,Win32,2.994720308,5a0a057c80acd80001047392,64d2fd46c836a06233681665,64dc7f131bff2ecef98bcdc5,,,,,,,ctch,resources/DR.BMP,resources/DY.BMP,Door4,-0.341145833,-0.024739583,1,0,0,1.3842,optionLeft,60,9125,4,35,0,35,0,1,,,,,,,,,,,,,,,,,,,,,,,,,,,,,,,,,,,,,,,
,,,,,,,,2023-08-16_08h48.08.275,HF_wild_card,2022.2.4,Win32,2.994720308,5a0a057c80acd80001047392,64d2fd46c836a06233681665,64dc7f131bff2ecef98bcdc5,,,,,,,decisionTrl,resources/DBN.BMP,resources/DR.BMP,Door3,-0.279947917,-0.032552083,1,0,0,1.8496,optionLeft,70,9195,4,36,0,36,0,1,,,,,,,,,,,,,,,,,,,,,,,,,,,,,,,,,,,,,,,
,,,,,,,,2023-08-16_08h48.08.275,HF_wild_card,2022.2.4,Win32,2.994720308,5a0a057c80acd80001047392,64d2fd46c836a06233681665,64dc7f131bff2ecef98bcdc5,,,,,,,sngl,resources/DR.BMP,resources/Empty.png,Door4,-0.3125,-0.033854167,1,0,0,1.2711,optionLeft,60,9255,4,37,0,37,0,1,,,,,,,,,,,,,,,,,,,,,,,,,,,,,,,,,,,,,,,
,,,,,,,,2023-08-16_08h48.08.275,HF_wild_card,2022.2.4,Win32,2.994720308,5a0a057c80acd80001047392,64d2fd46c836a06233681665,64dc7f131bff2ecef98bcdc5,,,,,,,decisionTrl,resources/DG.BMP,resources/DY.BMP,Door2,-0.243489583,-0.028645833,1,0,0,1.8659,optionLeft,40,9295,4,38,0,38,0,1,,,,,,,,,,,,,,,,,,,,,,,,,,,,,,,,,,,,,,,
,,,,,,,,2023-08-16_08h48.08.275,HF_wild_card,2022.2.4,Win32,2.994720308,5a0a057c80acd80001047392,64d2fd46c836a06233681665,64dc7f131bff2ecef98bcdc5,,,,,,,decisionTrl,resources/DP.BMP,resources/DY.BMP,WildCard_Ex,-0.309895833,0.009114583,1,0,0,1.3908,optionLeft,5,9300,4,39,0,39,0,1,,,,,,,,,,,,,,,,,,,,,,,,,,,,,,,,,,,,,,,
,,,,,,,,2023-08-16_08h48.08.275,HF_wild_card,2022.2.4,Win32,2.994720308,5a0a057c80acd80001047392,64d2fd46c836a06233681665,64dc7f131bff2ecef98bcdc5,,,,,,,decisionTrl,resources/DBN.BMP,resources/DR.BMP,Door4,0.311197917,0.009114583,1,0,0,1.8495,optionRight,60,9360,4,40,0,40,0,1,,,,,,,,,,,,,,,,,,,,,,,,,,,,,,,,,,,,,,,
,,,,,,,,2023-08-16_08h48.08.275,HF_wild_card,2022.2.4,Win32,2.994720308,5a0a057c80acd80001047392,64d2fd46c836a06233681665,64dc7f131bff2ecef98bcdc5,,,,,,,decisionTrl,resources/DG.BMP,resources/DP.BMP,WildCard_Ex,0.313802083,-0.02734375,1,0,0,1.53,optionRight,5,9365,4,41,0,41,0,1,,,,,,,,,,,,,,,,,,,,,,,,,,,,,,,,,,,,,,,
,,,,,,,,2023-08-16_08h48.08.275,HF_wild_card,2022.2.4,Win32,2.994720308,5a0a057c80acd80001047392,64d2fd46c836a06233681665,64dc7f131bff2ecef98bcdc5,,,,,,,sngl,resources/Empty.png,resources/DBN.BMP,Door3,0.322916667,-0.046875,1,0,0,1.3188,optionRight,70,9435,4,42,0,42,0,1,,,,,,,,,,,,,,,,,,,,,,,,,,,,,,,,,,,,,,,
,,,,,,,,2023-08-16_08h48.08.275,HF_wild_card,2022.2.4,Win32,2.994720308,5a0a057c80acd80001047392,64d2fd46c836a06233681665,64dc7f131bff2ecef98bcdc5,,,,,,,sngl,resources/Empty.png,resources/DP.BMP,WildCard_Ex,0.298177083,-0.036458333,1,0,0,1.2892,optionRight,95,9530,4,43,0,43,0,1,,,,,,,,,,,,,,,,,,,,,,,,,,,,,,,,,,,,,,,
,,,,,,,,2023-08-16_08h48.08.275,HF_wild_card,2022.2.4,Win32,2.994720308,5a0a057c80acd80001047392,64d2fd46c836a06233681665,64dc7f131bff2ecef98bcdc5,,,,,,,,,,,,,,,,,,,,,,,,,,3,0,3,0,1,,,,,,,,,,,,,,,,,,,,,,,,,,,,,,,,,,
,,,,,,,,2023-08-16_08h48.08.275,HF_wild_card,2022.2.4,Win32,2.994720308,5a0a057c80acd80001047392,64d2fd46c836a06233681665,64dc7f131bff2ecef98bcdc5,,,,,,,decisionTrl,resources/DP.BMP,resources/DBN.BMP,WildCard_Ex,-0.361979167,-0.104166667,1,0,0,1.376,optionLeft,5,9535,5,0,0,0,0,1,,,,,,,,,,,,,,,,,,,,,,,,,,,,,,,,,,,,,,,
,,,,,,,,2023-08-16_08h48.08.275,HF_wild_card,2022.2.4,Win32,2.994720308,5a0a057c80acd80001047392,64d2fd46c836a06233681665,64dc7f131bff2ecef98bcdc5,,,,,,,decisionTrl,resources/DBN.BMP,resources/DP.BMP,Door3,-0.389322917,0.022135417,1,0,0,1.3926,optionLeft,70,9605,5,1,0,1,0,1,,,,,,,,,,,,,,,,,,,,,,,,,,,,,,,,,,,,,,,
,,,,,,,,2023-08-16_08h48.08.275,HF_wild_card,2022.2.4,Win32,2.994720308,5a0a057c80acd80001047392,64d2fd46c836a06233681665,64dc7f131bff2ecef98bcdc5,,,,,,,ctch,resources/DG.BMP,resources/DBN.BMP,Door3,0.321614583,-0.009114583,1,0,0,1.3984,optionRight,70,9675,5,2,0,2,0,1,,,,,,,,,,,,,,,,,,,,,,,,,,,,,,,,,,,,,,,
,,,,,,,,2023-08-16_08h48.08.275,HF_wild_card,2022.2.4,Win32,2.994720308,5a0a057c80acd80001047392,64d2fd46c836a06233681665,64dc7f131bff2ecef98bcdc5,,,,,,,decisionTrl,resources/DBN.BMP,resources/DR.BMP,Door4,0.393229167,-0.03125,1,0,0,1.8584,optionRight,60,9735,5,3,0,3,0,1,,,,,,,,,,,,,,,,,,,,,,,,,,,,,,,,,,,,,,,
,,,,,,,,2023-08-16_08h48.08.275,HF_wild_card,2022.2.4,Win32,2.994720308,5a0a057c80acd80001047392,64d2fd46c836a06233681665,64dc7f131bff2ecef98bcdc5,,,,,,,sngl,resources/DP.BMP,resources/Empty.png,WildCard_Ex,-0.37890625,-0.01953125,1,0,0,1.2923,optionLeft,5,9740,5,4,0,4,0,1,,,,,,,,,,,,,,,,,,,,,,,,,,,,,,,,,,,,,,,
,,,,,,,,2023-08-16_08h48.08.275,HF_wild_card,2022.2.4,Win32,2.994720308,5a0a057c80acd80001047392,64d2fd46c836a06233681665,64dc7f131bff2ecef98bcdc5,,,,,,,decisionTrl,resources/DR.BMP,resources/DP.BMP,Door4,-0.3046875,-0.00390625,1,0,0,1.4567,optionLeft,60,9800,5,5,0,5,0,1,,,,,,,,,,,,,,,,,,,,,,,,,,,,,,,,,,,,,,,
,,,,,,,,2023-08-16_08h48.08.275,HF_wild_card,2022.2.4,Win32,2.994720308,5a0a057c80acd80001047392,64d2fd46c836a06233681665,64dc7f131bff2ecef98bcdc5,,,,,,,sngl,resources/DR.BMP,resources/Empty.png,Door4,-0.358072917,-0.006510417,1,0,0,1.2697,optionLeft,80,9880,5,6,0,6,0,1,,,,,,,,,,,,,,,,,,,,,,,,,,,,,,,,,,,,,,,
,,,,,,,,2023-08-16_08h48.08.275,HF_wild_card,2022.2.4,Win32,2.994720308,5a0a057c80acd80001047392,64d2fd46c836a06233681665,64dc7f131bff2ecef98bcdc5,,,,,,,ctch,resources/DBN.BMP,resources/DG.BMP,Door3,-0.3125,0.01953125,1,0,0,1.3741,optionLeft,70,9950,5,7,0,7,0,1,,,,,,,,,,,,,,,,,,,,,,,,,,,,,,,,,,,,,,,
,,,,,,,,2023-08-16_08h48.08.275,HF_wild_card,2022.2.4,Win32,2.994720308,5a0a057c80acd80001047392,64d2fd46c836a06233681665,64dc7f131bff2ecef98bcdc5,,,,,,,sngl,resources/Empty.png,resources/DBN.BMP,Door3,0.358072917,0.024739583,1,0,0,1.2679,optionRight,70,10020,5,8,0,8,0,1,,,,,,,,,,,,,,,,,,,,,,,,,,,,,,,,,,,,,,,
,,,,,,,,2023-08-16_08h48.08.275,HF_wild_card,2022.2.4,Win32,2.994720308,5a0a057c80acd80001047392,64d2fd46c836a06233681665,64dc7f131bff2ecef98bcdc5,,,,,,,sngl,resources/Empty.png,resources/DG.BMP,Door2,0.333333333,-0.00390625,1,0,0,1.2541,optionRight,20,10040,5,9,0,9,0,1,,,,,,,,,,,,,,,,,,,,,,,,,,,,,,,,,,,,,,,
,,,,,,,,2023-08-16_08h48.08.275,HF_wild_card,2022.2.4,Win32,2.994720308,5a0a057c80acd80001047392,64d2fd46c836a06233681665,64dc7f131bff2ecef98bcdc5,,,,,,,sngl,resources/Empty.png,resources/DR.BMP,Door4,0.334635417,-0.016927083,1,0,0,1.2417,optionRight,60,10100,5,10,0,10,0,1,,,,,,,,,,,,,,,,,,,,,,,,,,,,,,,,,,,,,,,
,,,,,,,,2023-08-16_08h48.08.275,HF_wild_card,2022.2.4,Win32,2.994720308,5a0a057c80acd80001047392,64d2fd46c836a06233681665,64dc7f131bff2ecef98bcdc5,,,,,,,decisionTrl,resources/DR.BMP,resources/DBN.BMP,Door4,-0.440104167,-0.024739583,1,0,0,1.9346,optionLeft,80,10180,5,11,0,11,0,1,,,,,,,,,,,,,,,,,,,,,,,,,,,,,,,,,,,,,,,
,,,,,,,,2023-08-16_08h48.08.275,HF_wild_card,2022.2.4,Win32,2.994720308,5a0a057c80acd80001047392,64d2fd46c836a06233681665,64dc7f131bff2ecef98bcdc5,,,,,,,decisionTrl,resources/DBN.BMP,resources/DR.BMP,Door3,-0.302083333,0.010416667,1,0,0,1.4035,optionLeft,70,10250,5,12,0,12,0,1,,,,,,,,,,,,,,,,,,,,,,,,,,,,,,,,,,,,,,,
,,,,,,,,2023-08-16_08h48.08.275,HF_wild_card,2022.2.4,Win32,2.994720308,5a0a057c80acd80001047392,64d2fd46c836a06233681665,64dc7f131bff2ecef98bcdc5,,,,,,,decisionTrl,resources/DBN.BMP,resources/DR.BMP,Door4,0.3046875,0.02734375,1,0,0,1.8979,optionRight,60,10310,5,13,0,13,0,1,,,,,,,,,,,,,,,,,,,,,,,,,,,,,,,,,,,,,,,
,,,,,,,,2023-08-16_08h48.08.275,HF_wild_card,2022.2.4,Win32,2.994720308,5a0a057c80acd80001047392,64d2fd46c836a06233681665,64dc7f131bff2ecef98bcdc5,,,,,,,ctch,resources/DR.BMP,resources/DY.BMP,Door4,-0.346354167,-0.022135417,1,0,0,1.399,optionLeft,60,10370,5,14,0,14,0,1,,,,,,,,,,,,,,,,,,,,,,,,,,,,,,,,,,,,,,,
,,,,,,,,2023-08-16_08h48.08.275,HF_wild_card,2022.2.4,Win32,2.994720308,5a0a057c80acd80001047392,64d2fd46c836a06233681665,64dc7f131bff2ecef98bcdc5,,,,,,,decisionTrl,resources/DR.BMP,resources/DBN.BMP,Door3,0.34765625,-0.016927083,1,0,0,1.3955,optionRight,70,10440,5,15,0,15,0,1,,,,,,,,,,,,,,,,,,,,,,,,,,,,,,,,,,,,,,,
,,,,,,,,2023-08-16_08h48.08.275,HF_wild_card,2022.2.4,Win32,2.994720308,5a0a057c80acd80001047392,64d2fd46c836a06233681665,64dc7f131bff2ecef98bcdc5,,,,,,,decisionTrl,resources/DG.BMP,resources/DY.BMP,Door2,-0.442708333,-0.005208333,1,0,0,1.4401,optionLeft,20,10460,5,16,0,16,0,1,,,,,,,,,,,,,,,,,,,,,,,,,,,,,,,,,,,,,,,
,,,,,,,,2023-08-16_08h48.08.275,HF_wild_card,2022.2.4,Win32,2.994720308,5a0a057c80acd80001047392,64d2fd46c836a06233681665,64dc7f131bff2ecef98bcdc5,,,,,,,decisionTrl,resources/DP.BMP,resources/DR.BMP,Door4,0.399739583,-0.106770833,1,0,0,1.9949,optionRight,60,10520,5,17,0,17,0,1,,,,,,,,,,,,,,,,,,,,,,,,,,,,,,,,,,,,,,,
,,,,,,,,2023-08-16_08h48.08.275,HF_wild_card,2022.2.4,Win32,2.994720308,5a0a057c80acd80001047392,64d2fd46c836a06233681665,64dc7f131bff2ecef98bcdc5,,,,,,,decisionTrl,resources/DY.BMP,resources/DG.BMP,Door1,-0.31640625,-0.065104167,1,0,0,1.9315,optionLeft,30,10550,5,18,0,18,0,1,,,,,,,,,,,,,,,,,,,,,,,,,,,,,,,,,,,,,,,
,,,,,,,,2023-08-16_08h48.08.275,HF_wild_card,2022.2.4,Win32,2.994720308,5a0a057c80acd80001047392,64d2fd46c836a06233681665,64dc7f131bff2ecef98bcdc5,,,,,,,ctch,resources/DR.BMP,resources/DY.BMP,Door4,-0.407552083,-0.020833333,1,0,0,1.4953,optionLeft,60,10610,5,19,0,19,0,1,,,,,,,,,,,,,,,,,,,,,,,,,,,,,,,,,,,,,,,
,,,,,,,,2023-08-16_08h48.08.275,HF_wild_card,2022.2.4,Win32,2.994720308,5a0a057c80acd80001047392,64d2fd46c836a06233681665,64dc7f131bff2ecef98bcdc5,,,,,,,decisionTrl,resources/DG.BMP,resources/DY.BMP,Door1,0.37890625,-0.06640625,1,0,0,1.4748,optionRight,30,10640,5,20,0,20,0,1,,,,,,,,,,,,,,,,,,,,,,,,,,,,,,,,,,,,,,,
,,,,,,,,2023-08-16_08h48.08.275,HF_wild_card,2022.2.4,Win32,2.994720308,5a0a057c80acd80001047392,64d2fd46c836a06233681665,64dc7f131bff2ecef98bcdc5,,,,,,,sngl,resources/DY.BMP,resources/Empty.png,Door1,-0.325520833,0.015625,1,0,0,1.2786,optionLeft,30,10670,5,21,0,21,0,1,,,,,,,,,,,,,,,,,,,,,,,,,,,,,,,,,,,,,,,
,,,,,,,,2023-08-16_08h48.08.275,HF_wild_card,2022.2.4,Win32,2.994720308,5a0a057c80acd80001047392,64d2fd46c836a06233681665,64dc7f131bff2ecef98bcdc5,,,,,,,decisionTrl,resources/DR.BMP,resources/DBN.BMP,Door3,0.50390625,-0.04296875,1,0,0,1.3979,optionRight,70,10740,5,22,0,22,0,1,,,,,,,,,,,,,,,,,,,,,,,,,,,,,,,,,,,,,,,
,,,,,,,,2023-08-16_08h48.08.275,HF_wild_card,2022.2.4,Win32,2.994720308,5a0a057c80acd80001047392,64d2fd46c836a06233681665,64dc7f131bff2ecef98bcdc5,,,,,,,ctch,resources/DG.BMP,resources/DBN.BMP,Door3,0.313802083,0.010416667,1,0,0,1.4212,optionRight,70,10810,5,23,0,23,0,1,,,,,,,,,,,,,,,,,,,,,,,,,,,,,,,,,,,,,,,
,,,,,,,,2023-08-16_08h48.08.275,HF_wild_card,2022.2.4,Win32,2.994720308,5a0a057c80acd80001047392,64d2fd46c836a06233681665,64dc7f131bff2ecef98bcdc5,,,,,,,sngl,resources/Empty.png,resources/DY.BMP,Door1,0.350260417,-0.013020833,1,0,0,1.3528,optionRight,30,10840,5,24,0,24,0,1,,,,,,,,,,,,,,,,,,,,,,,,,,,,,,,,,,,,,,,
,,,,,,,,2023-08-16_08h48.08.275,HF_wild_card,2022.2.4,Win32,2.994720308,5a0a057c80acd80001047392,64d2fd46c836a06233681665,64dc7f131bff2ecef98bcdc5,,,,,,,decisionTrl,resources/DG.BMP,resources/DP.BMP,WildCard_Ex,0.37890625,-0.0234375,1,0,0,1.4049,optionRight,95,10935,5,25,0,25,0,1,,,,,,,,,,,,,,,,,,,,,,,,,,,,,,,,,,,,,,,
,,,,,,,,2023-08-16_08h48.08.275,HF_wild_card,2022.2.4,Win32,2.994720308,5a0a057c80acd80001047392,64d2fd46c836a06233681665,64dc7f131bff2ecef98bcdc5,,,,,,,sngl,resources/Empty.png,resources/DP.BMP,WildCard_Ex,0.407552083,-0.061197917,1,0,0,1.2827,optionRight,95,11030,5,26,0,26,0,1,,,,,,,,,,,,,,,,,,,,,,,,,,,,,,,,,,,,,,,
,,,,,,,,2023-08-16_08h48.08.275,HF_wild_card,2022.2.4,Win32,2.994720308,5a0a057c80acd80001047392,64d2fd46c836a06233681665,64dc7f131bff2ecef98bcdc5,,,,,,,decisionTrl,resources/DY.BMP,resources/DG.BMP,Door1,-0.337239583,-0.03515625,1,0,0,1.4128,optionLeft,30,11060,5,27,0,27,0,1,,,,,,,,,,,,,,,,,,,,,,,,,,,,,,,,,,,,,,,
,,,,,,,,2023-08-16_08h48.08.275,HF_wild_card,2022.2.4,Win32,2.994720308,5a0a057c80acd80001047392,64d2fd46c836a06233681665,64dc7f131bff2ecef98bcdc5,,,,,,,decisionTrl,resources/DP.BMP,resources/DY.BMP,WildCard_Ex,-0.427083333,-0.033854167,1,0,0,1.9823,optionLeft,5,11065,5,28,0,28,0,1,,,,,,,,,,,,,,,,,,,,,,,,,,,,,,,,,,,,,,,
,,,,,,,,2023-08-16_08h48.08.275,HF_wild_card,2022.2.4,Win32,2.994720308,5a0a057c80acd80001047392,64d2fd46c836a06233681665,64dc7f131bff2ecef98bcdc5,,,,,,,decisionTrl,resources/DP.BMP,resources/DG.BMP,Door2,0.490885417,-0.01171875,1,0,0,1.4432,optionRight,40,11105,5,29,0,29,0,1,,,,,,,,,,,,,,,,,,,,,,,,,,,,,,,,,,,,,,,
,,,,,,,,2023-08-16_08h48.08.275,HF_wild_card,2022.2.4,Win32,2.994720308,5a0a057c80acd80001047392,64d2fd46c836a06233681665,64dc7f131bff2ecef98bcdc5,,,,,,,sngl,resources/DP.BMP,resources/Empty.png,WildCard_Ex,-0.372395833,-0.018229167,1,0,0,1.2968,optionLeft,95,11200,5,30,0,30,0,1,,,,,,,,,,,,,,,,,,,,,,,,,,,,,,,,,,,,,,,
,,,,,,,,2023-08-16_08h48.08.275,HF_wild_card,2022.2.4,Win32,2.994720308,5a0a057c80acd80001047392,64d2fd46c836a06233681665,64dc7f131bff2ecef98bcdc5,,,,,,,decisionTrl,resources/DBN.BMP,resources/DR.BMP,Door3,-0.345052083,0.006510417,1,0,0,1.4099,optionLeft,70,11270,5,31,0,31,0,1,,,,,,,,,,,,,,,,,,,,,,,,,,,,,,,,,,,,,,,
,,,,,,,,2023-08-16_08h48.08.275,HF_wild_card,2022.2.4,Win32,2.994720308,5a0a057c80acd80001047392,64d2fd46c836a06233681665,64dc7f131bff2ecef98bcdc5,,,,,,,decisionTrl,resources/DY.BMP,resources/DG.BMP,Door1,-0.3359375,-0.006510417,1,0,0,1.3906,optionLeft,30,11300,5,32,0,32,0,1,,,,,,,,,,,,,,,,,,,,,,,,,,,,,,,,,,,,,,,
,,,,,,,,2023-08-16_08h48.08.275,HF_wild_card,2022.2.4,Win32,2.994720308,5a0a057c80acd80001047392,64d2fd46c836a06233681665,64dc7f131bff2ecef98bcdc5,,,,,,,ctch,resources/DY.BMP,resources/DR.BMP,Door4,0.32421875,-0.040364583,1,0,0,1.3969,optionRight,60,11360,5,33,0,33,0,1,,,,,,,,,,,,,,,,,,,,,,,,,,,,,,,,,,,,,,,
,,,,,,,,2023-08-16_08h48.08.275,HF_wild_card,2022.2.4,Win32,2.994720308,5a0a057c80acd80001047392,64d2fd46c836a06233681665,64dc7f131bff2ecef98bcdc5,,,,,,,decisionTrl,resources/DY.BMP,resources/DG.BMP,Door1,-0.35546875,-0.010416667,1,0,0,1.4701,optionLeft,30,11390,5,34,0,34,0,1,,,,,,,,,,,,,,,,,,,,,,,,,,,,,,,,,,,,,,,
,,,,,,,,2023-08-16_08h48.08.275,HF_wild_card,2022.2.4,Win32,2.994720308,5a0a057c80acd80001047392,64d2fd46c836a06233681665,64dc7f131bff2ecef98bcdc5,,,,,,,ctch,resources/DBN.BMP,resources/DG.BMP,Door3,-0.3984375,0.053385417,1,0,0,1.3928,optionLeft,70,11460,5,35,0,35,0,1,,,,,,,,,,,,,,,,,,,,,,,,,,,,,,,,,,,,,,,
,,,,,,,,2023-08-16_08h48.08.275,HF_wild_card,2022.2.4,Win32,2.994720308,5a0a057c80acd80001047392,64d2fd46c836a06233681665,64dc7f131bff2ecef98bcdc5,,,,,,,sngl,resources/DBN.BMP,resources/Empty.png,Door3,-0.373697917,0.005208333,1,0,0,1.2611,optionLeft,70,11530,5,36,0,36,0,1,,,,,,,,,,,,,,,,,,,,,,,,,,,,,,,,,,,,,,,
,,,,,,,,2023-08-16_08h48.08.275,HF_wild_card,2022.2.4,Win32,2.994720308,5a0a057c80acd80001047392,64d2fd46c836a06233681665,64dc7f131bff2ecef98bcdc5,,,,,,,decisionTrl,resources/DG.BMP,resources/DY.BMP,Door2,-0.372395833,0.01171875,1,0,0,1.4055,optionLeft,20,11550,5,37,0,37,0,1,,,,,,,,,,,,,,,,,,,,,,,,,,,,,,,,,,,,,,,
,,,,,,,,2023-08-16_08h48.08.275,HF_wild_card,2022.2.4,Win32,2.994720308,5a0a057c80acd80001047392,64d2fd46c836a06233681665,64dc7f131bff2ecef98bcdc5,,,,,,,ctch,resources/DY.BMP,resources/DR.BMP,Door4,0.213541667,-0.013020833,1,0,0,1.373,optionRight,80,11630,5,38,0,38,0,1,,,,,,,,,,,,,,,,,,,,,,,,,,,,,,,,,,,,,,,
,,,,,,,,2023-08-16_08h48.08.275,HF_wild_card,2022.2.4,Win32,2.994720308,5a0a057c80acd80001047392,64d2fd46c836a06233681665,64dc7f131bff2ecef98bcdc5,,,,,,,sngl,resources/Empty.png,resources/DP.BMP,WildCard_Ex,0.330729167,0.010416667,1,0,0,1.2782,optionRight,5,11635,5,39,0,39,0,1,,,,,,,,,,,,,,,,,,,,,,,,,,,,,,,,,,,,,,,
,,,,,,,,2023-08-16_08h48.08.275,HF_wild_card,2022.2.4,Win32,2.994720308,5a0a057c80acd80001047392,64d2fd46c836a06233681665,64dc7f131bff2ecef98bcdc5,,,,,,,decisionTrl,resources/DG.BMP,resources/DY.BMP,Door2,-0.346354167,-0.026041667,1,0,0,1.4129,optionLeft,20,11655,5,40,0,40,0,1,,,,,,,,,,,,,,,,,,,,,,,,,,,,,,,,,,,,,,,
,,,,,,,,2023-08-16_08h48.08.275,HF_wild_card,2022.2.4,Win32,2.994720308,5a0a057c80acd80001047392,64d2fd46c836a06233681665,64dc7f131bff2ecef98bcdc5,,,,,,,sngl,resources/DG.BMP,resources/Empty.png,Door2,-0.30859375,0.00390625,1,0,0,1.263,optionLeft,40,11695,5,41,0,41,0,1,,,,,,,,,,,,,,,,,,,,,,,,,,,,,,,,,,,,,,,
,,,,,,,,2023-08-16_08h48.08.275,HF_wild_card,2022.2.4,Win32,2.994720308,5a0a057c80acd80001047392,64d2fd46c836a06233681665,64dc7f131bff2ecef98bcdc5,,,,,,,decisionTrl,resources/DY.BMP,resources/DP.BMP,WildCard_Ex,0.354166667,-0.029947917,1,0,0,1.9328,optionRight,5,11700,5,42,0,42,0,1,,,,,,,,,,,,,,,,,,,,,,,,,,,,,,,,,,,,,,,
,,,,,,,,2023-08-16_08h48.08.275,HF_wild_card,2022.2.4,Win32,2.994720308,5a0a057c80acd80001047392,64d2fd46c836a06233681665,64dc7f131bff2ecef98bcdc5,,,,,,,decisionTrl,resources/DR.BMP,resources/DBN.BMP,Door3,0.41796875,-0.006510417,1,0,0,1.4963,optionRight,70,11770,5,43,0,43,0,1,,,,,,,,,,,,,,,,,,,,,,,,,,,,,,,,,,,,,,,
,,,,,,,,2023-08-16_08h48.08.275,HF_wild_card,2022.2.4,Win32,2.994720308,5a0a057c80acd80001047392,64d2fd46c836a06233681665,64dc7f131bff2ecef98bcdc5,,,,,,,,,,,,,,,,,,,,,,,,,,4,0,4,0,1,,,,,,,,,,,,,,,,,,,,,,,,,,,,,,,,,,
,,,,,,,,2023-08-16_08h48.08.275,HF_wild_card,2022.2.4,Win32,2.994720308,5a0a057c80acd80001047392,64d2fd46c836a06233681665,64dc7f131bff2ecef98bcdc5,,,,,,,ctch,resources/DY.BMP,resources/DR.BMP,Door1,-0.298177083,-0.057291667,1,0,0,1.8903,optionLeft,30,11800,6,0,0,0,0,1,,,,,,,,,,,,,,,,,,,,,,,,,,,,,,,,,,,,,,,
,,,,,,,,2023-08-16_08h48.08.275,HF_wild_card,2022.2.4,Win32,2.994720308,5a0a057c80acd80001047392,64d2fd46c836a06233681665,64dc7f131bff2ecef98bcdc5,,,,,,,decisionTrl,resources/DP.BMP,resources/DR.BMP,Door4,0.330729167,0.026041667,1,0,0,1.4081,optionRight,80,11880,6,1,0,1,0,1,,,,,,,,,,,,,,,,,,,,,,,,,,,,,,,,,,,,,,,
,,,,,,,,2023-08-16_08h48.08.275,HF_wild_card,2022.2.4,Win32,2.994720308,5a0a057c80acd80001047392,64d2fd46c836a06233681665,64dc7f131bff2ecef98bcdc5,,,,,,,sngl,resources/DY.BMP,resources/Empty.png,Door1,-0.276041667,-0.0234375,1,0,0,1.2732,optionLeft,30,11910,6,2,0,2,0,1,,,,,,,,,,,,,,,,,,,,,,,,,,,,,,,,,,,,,,,
,,,,,,,,2023-08-16_08h48.08.275,HF_wild_card,2022.2.4,Win32,2.994720308,5a0a057c80acd80001047392,64d2fd46c836a06233681665,64dc7f131bff2ecef98bcdc5,,,,,,,decisionTrl,resources/DP.BMP,resources/DBN.BMP,Door3,0.3515625,0.01171875,1,0,0,1.4563,optionRight,70,11980,6,3,0,3,0,1,,,,,,,,,,,,,,,,,,,,,,,,,,,,,,,,,,,,,,,
,,,,,,,,2023-08-16_08h48.08.275,HF_wild_card,2022.2.4,Win32,2.994720308,5a0a057c80acd80001047392,64d2fd46c836a06233681665,64dc7f131bff2ecef98bcdc5,,,,,,,ctch,resources/DG.BMP,resources/DBN.BMP,Door3,0.389322917,0.013020833,1,0,0,1.4455,optionRight,70,12050,6,4,0,4,0,1,,,,,,,,,,,,,,,,,,,,,,,,,,,,,,,,,,,,,,,
,,,,,,,,2023-08-16_08h48.08.275,HF_wild_card,2022.2.4,Win32,2.994720308,5a0a057c80acd80001047392,64d2fd46c836a06233681665,64dc7f131bff2ecef98bcdc5,,,,,,,sngl,resources/Empty.png,resources/DP.BMP,WildCard_Ex,0.41015625,-0.01171875,1,0,0,1.3486,optionRight,95,12145,6,5,0,5,0,1,,,,,,,,,,,,,,,,,,,,,,,,,,,,,,,,,,,,,,,
,,,,,,,,2023-08-16_08h48.08.275,HF_wild_card,2022.2.4,Win32,2.994720308,5a0a057c80acd80001047392,64d2fd46c836a06233681665,64dc7f131bff2ecef98bcdc5,,,,,,,ctch,resources/DBN.BMP,resources/DG.BMP,Door3,-0.290364583,-0.010416667,1,0,0,1.5258,optionLeft,70,12215,6,6,0,6,0,1,,,,,,,,,,,,,,,,,,,,,,,,,,,,,,,,,,,,,,,
,,,,,,,,2023-08-16_08h48.08.275,HF_wild_card,2022.2.4,Win32,2.994720308,5a0a057c80acd80001047392,64d2fd46c836a06233681665,64dc7f131bff2ecef98bcdc5,,,,,,,decisionTrl,resources/DG.BMP,resources/DY.BMP,Door2,-0.279947917,-0.006510417,1,0,0,1.499,optionLeft,40,12255,6,7,0,7,0,1,,,,,,,,,,,,,,,,,,,,,,,,,,,,,,,,,,,,,,,
,,,,,,,,2023-08-16_08h48.08.275,HF_wild_card,2022.2.4,Win32,2.994720308,5a0a057c80acd80001047392,64d2fd46c836a06233681665,64dc7f131bff2ecef98bcdc5,,,,,,,decisionTrl,resources/DY.BMP,resources/DP.BMP,WildCard_Ex,0.454427083,0.009114583,1,0,0,1.9249,optionRight,95,12350,6,8,0,8,0,1,,,,,,,,,,,,,,,,,,,,,,,,,,,,,,,,,,,,,,,
,,,,,,,,2023-08-16_08h48.08.275,HF_wild_card,2022.2.4,Win32,2.994720308,5a0a057c80acd80001047392,64d2fd46c836a06233681665,64dc7f131bff2ecef98bcdc5,,,,,,,sngl,resources/DBN.BMP,resources/Empty.png,Door3,-0.37890625,-0.026041667,1,0,0,1.3301,optionLeft,70,12420,6,9,0,9,0,1,,,,,,,,,,,,,,,,,,,,,,,,,,,,,,,,,,,,,,,
,,,,,,,,2023-08-16_08h48.08.275,HF_wild_card,2022.2.4,Win32,2.994720308,5a0a057c80acd80001047392,64d2fd46c836a06233681665,64dc7f131bff2ecef98bcdc5,,,,,,,decisionTrl,resources/DBN.BMP,resources/DR.BMP,Door3,-0.333333333,0.026041667,1,0,0,1.4035,optionLeft,70,12490,6,10,0,10,0,1,,,,,,,,,,,,,,,,,,,,,,,,,,,,,,,,,,,,,,,
,,,,,,,,2023-08-16_08h48.08.275,HF_wild_card,2022.2.4,Win32,2.994720308,5a0a057c80acd80001047392,64d2fd46c836a06233681665,64dc7f131bff2ecef98bcdc5,,,,,,,decisionTrl,resources/DP.BMP,resources/DY.BMP,WildCard_Ex,-0.233072917,-0.032552083,1,0,0,1.9066,optionLeft,5,12495,6,11,0,11,0,1,,,,,,,,,,,,,,,,,,,,,,,,,,,,,,,,,,,,,,,
,,,,,,,,2023-08-16_08h48.08.275,HF_wild_card,2022.2.4,Win32,2.994720308,5a0a057c80acd80001047392,64d2fd46c836a06233681665,64dc7f131bff2ecef98bcdc5,,,,,,,sngl,resources/Empty.png,resources/DY.BMP,Door1,0.295572917,0.01171875,1,0,0,1.3032,optionRight,30,12525,6,12,0,12,0,1,,,,,,,,,,,,,,,,,,,,,,,,,,,,,,,,,,,,,,,
,,,,,,,,2023-08-16_08h48.08.275,HF_wild_card,2022.2.4,Win32,2.994720308,5a0a057c80acd80001047392,64d2fd46c836a06233681665,64dc7f131bff2ecef98bcdc5,,,,,,,decisionTrl,resources/DG.BMP,resources/DY.BMP,Door2,-0.3828125,-0.026041667,1,0,0,1.4364,optionLeft,40,12565,6,13,0,13,0,1,,,,,,,,,,,,,,,,,,,,,,,,,,,,,,,,,,,,,,,
,,,,,,,,2023-08-16_08h48.08.275,HF_wild_card,2022.2.4,Win32,2.994720308,5a0a057c80acd80001047392,64d2fd46c836a06233681665,64dc7f131bff2ecef98bcdc5,,,,,,,sngl,resources/Empty.png,resources/DG.BMP,Door2,0.36328125,0.04296875,1,0,0,1.3021,optionRight,40,12605,6,14,0,14,0,1,,,,,,,,,,,,,,,,,,,,,,,,,,,,,,,,,,,,,,,
,,,,,,,,2023-08-16_08h48.08.275,HF_wild_card,2022.2.4,Win32,2.994720308,5a0a057c80acd80001047392,64d2fd46c836a06233681665,64dc7f131bff2ecef98bcdc5,,,,,,,decisionTrl,resources/DP.BMP,resources/DG.BMP,WildCard_Ex,-0.3515625,-0.01953125,1,0,0,1.4178,optionLeft,95,12700,6,15,0,15,0,1,,,,,,,,,,,,,,,,,,,,,,,,,,,,,,,,,,,,,,,
,,,,,,,,2023-08-16_08h48.08.275,HF_wild_card,2022.2.4,Win32,2.994720308,5a0a057c80acd80001047392,64d2fd46c836a06233681665,64dc7f131bff2ecef98bcdc5,,,,,,,decisionTrl,resources/DG.BMP,resources/DY.BMP,Door2,-0.315104167,-0.013020833,1,0,0,1.9016,optionLeft,20,12720,6,16,0,16,0,1,,,,,,,,,,,,,,,,,,,,,,,,,,,,,,,,,,,,,,,
,,,,,,,,2023-08-16_08h48.08.275,HF_wild_card,2022.2.4,Win32,2.994720308,5a0a057c80acd80001047392,64d2fd46c836a06233681665,64dc7f131bff2ecef98bcdc5,,,,,,,decisionTrl,resources/DY.BMP,resources/DG.BMP,Door1,-0.32421875,-0.0234375,1,0,0,1.4274,optionLeft,30,12750,6,17,0,17,0,1,,,,,,,,,,,,,,,,,,,,,,,,,,,,,,,,,,,,,,,
,,,,,,,,2023-08-16_08h48.08.275,HF_wild_card,2022.2.4,Win32,2.994720308,5a0a057c80acd80001047392,64d2fd46c836a06233681665,64dc7f131bff2ecef98bcdc5,,,,,,,decisionTrl,resources/DY.BMP,resources/DG.BMP,Door1,-0.346354167,-0.022135417,1,0,0,1.4293,optionLeft,30,12780,6,18,0,18,0,1,,,,,,,,,,,,,,,,,,,,,,,,,,,,,,,,,,,,,,,
,,,,,,,,2023-08-16_08h48.08.275,HF_wild_card,2022.2.4,Win32,2.994720308,5a0a057c80acd80001047392,64d2fd46c836a06233681665,64dc7f131bff2ecef98bcdc5,,,,,,,sngl,resources/DP.BMP,resources/Empty.png,WildCard_Ex,-0.34765625,-0.0078125,1,0,0,1.2797,optionLeft,95,12875,6,19,0,19,0,1,,,,,,,,,,,,,,,,,,,,,,,,,,,,,,,,,,,,,,,
,,,,,,,,2023-08-16_08h48.08.275,HF_wild_card,2022.2.4,Win32,2.994720308,5a0a057c80acd80001047392,64d2fd46c836a06233681665,64dc7f131bff2ecef98bcdc5,,,,,,,decisionTrl,resources/DBN.BMP,resources/DR.BMP,Door3,-0.376302083,-0.001302083,1,0,0,1.4026,optionLeft,70,12945,6,20,0,20,0,1,,,,,,,,,,,,,,,,,,,,,,,,,,,,,,,,,,,,,,,
,,,,,,,,2023-08-16_08h48.08.275,HF_wild_card,2022.2.4,Win32,2.994720308,5a0a057c80acd80001047392,64d2fd46c836a06233681665,64dc7f131bff2ecef98bcdc5,,,,,,,ctch,resources/DR.BMP,resources/DY.BMP,Door4,-0.345052083,-0.028645833,1,0,0,1.3984,optionLeft,80,13025,6,21,0,21,0,1,,,,,,,,,,,,,,,,,,,,,,,,,,,,,,,,,,,,,,,
,,,,,,,,2023-08-16_08h48.08.275,HF_wild_card,2022.2.4,Win32,2.994720308,5a0a057c80acd80001047392,64d2fd46c836a06233681665,64dc7f131bff2ecef98bcdc5,,,,,,,sngl,resources/DP.BMP,resources/Empty.png,WildCard_Ex,-0.427083333,-0.033854167,1,0,0,1.2676,optionLeft,5,13030,6,22,0,22,0,1,,,,,,,,,,,,,,,,,,,,,,,,,,,,,,,,,,,,,,,
,,,,,,,,2023-08-16_08h48.08.275,HF_wild_card,2022.2.4,Win32,2.994720308,5a0a057c80acd80001047392,64d2fd46c836a06233681665,64dc7f131bff2ecef98bcdc5,,,,,,,decisionTrl,resources/DR.BMP,resources/DBN.BMP,Door3,0.265625,0.013020833,1,0,0,1.4484,optionRight,70,13100,6,23,0,23,0,1,,,,,,,,,,,,,,,,,,,,,,,,,,,,,,,,,,,,,,,
,,,,,,,,2023-08-16_08h48.08.275,HF_wild_card,2022.2.4,Win32,2.994720308,5a0a057c80acd80001047392,64d2fd46c836a06233681665,64dc7f131bff2ecef98bcdc5,,,,,,,sngl,resources/Empty.png,resources/DBN.BMP,Door3,0.319010417,0.006510417,1,0,0,1.2582,optionRight,70,13170,6,24,0,24,0,1,,,,,,,,,,,,,,,,,,,,,,,,,,,,,,,,,,,,,,,
,,,,,,,,2023-08-16_08h48.08.275,HF_wild_card,2022.2.4,Win32,2.994720308,5a0a057c80acd80001047392,64d2fd46c836a06233681665,64dc7f131bff2ecef98bcdc5,,,,,,,decisionTrl,resources/DG.BMP,resources/DY.BMP,Door2,-0.337239583,-0.037760417,1,0,0,1.4048,optionLeft,20,13190,6,25,0,25,0,1,,,,,,,,,,,,,,,,,,,,,,,,,,,,,,,,,,,,,,,
,,,,,,,,2023-08-16_08h48.08.275,HF_wild_card,2022.2.4,Win32,2.994720308,5a0a057c80acd80001047392,64d2fd46c836a06233681665,64dc7f131bff2ecef98bcdc5,,,,,,,decisionTrl,resources/DY.BMP,resources/DG.BMP,Door1,-0.384114583,-0.016927083,1,0,0,1.3992,optionLeft,30,13220,6,26,0,26,0,1,,,,,,,,,,,,,,,,,,,,,,,,,,,,,,,,,,,,,,,
,,,,,,,,2023-08-16_08h48.08.275,HF_wild_card,2022.2.4,Win32,2.994720308,5a0a057c80acd80001047392,64d2fd46c836a06233681665,64dc7f131bff2ecef98bcdc5,,,,,,,decisionTrl,resources/DR.BMP,resources/DBN.BMP,Door3,0.385416667,0.020833333,1,0,0,1.4422,optionRight,70,13290,6,27,0,27,0,1,,,,,,,,,,,,,,,,,,,,,,,,,,,,,,,,,,,,,,,
,,,,,,,,2023-08-16_08h48.08.275,HF_wild_card,2022.2.4,Win32,2.994720308,5a0a057c80acd80001047392,64d2fd46c836a06233681665,64dc7f131bff2ecef98bcdc5,,,,,,,decisionTrl,resources/DR.BMP,resources/DBN.BMP,Door3,0.31640625,0.0390625,1,0,0,1.4284,optionRight,70,13360,6,28,0,28,0,1,,,,,,,,,,,,,,,,,,,,,,,,,,,,,,,,,,,,,,,
,,,,,,,,2023-08-16_08h48.08.275,HF_wild_card,2022.2.4,Win32,2.994720308,5a0a057c80acd80001047392,64d2fd46c836a06233681665,64dc7f131bff2ecef98bcdc5,,,,,,,decisionTrl,resources/DG.BMP,resources/DP.BMP,WildCard_Ex,0.356770833,-0.009114583,1,0,0,1.4358,optionRight,95,13455,6,29,0,29,0,1,,,,,,,,,,,,,,,,,,,,,,,,,,,,,,,,,,,,,,,
,,,,,,,,2023-08-16_08h48.08.275,HF_wild_card,2022.2.4,Win32,2.994720308,5a0a057c80acd80001047392,64d2fd46c836a06233681665,64dc7f131bff2ecef98bcdc5,,,,,,,decisionTrl,resources/DBN.BMP,resources/DP.BMP,Door3,-0.313802083,-0.014322917,1,0,0,1.8848,optionLeft,70,13525,6,30,0,30,0,1,,,,,,,,,,,,,,,,,,,,,,,,,,,,,,,,,,,,,,,
,,,,,,,,2023-08-16_08h48.08.275,HF_wild_card,2022.2.4,Win32,2.994720308,5a0a057c80acd80001047392,64d2fd46c836a06233681665,64dc7f131bff2ecef98bcdc5,,,,,,,decisionTrl,resources/DY.BMP,resources/DG.BMP,Door1,-0.315104167,-0.016927083,1,0,0,1.3952,optionLeft,30,13555,6,31,0,31,0,1,,,,,,,,,,,,,,,,,,,,,,,,,,,,,,,,,,,,,,,
,,,,,,,,2023-08-16_08h48.08.275,HF_wild_card,2022.2.4,Win32,2.994720308,5a0a057c80acd80001047392,64d2fd46c836a06233681665,64dc7f131bff2ecef98bcdc5,,,,,,,ctch,resources/DG.BMP,resources/DBN.BMP,Door3,0.325520833,0.006510417,1,0,0,1.3915,optionRight,70,13625,6,32,0,32,0,1,,,,,,,,,,,,,,,,,,,,,,,,,,,,,,,,,,,,,,,
,,,,,,,,2023-08-16_08h48.08.275,HF_wild_card,2022.2.4,Win32,2.994720308,5a0a057c80acd80001047392,64d2fd46c836a06233681665,64dc7f131bff2ecef98bcdc5,,,,,,,sngl,resources/Empty.png,resources/DP.BMP,WildCard_Ex,0.290364583,0.01171875,1,0,0,1.2988,optionRight,5,13630,6,33,0,33,0,1,,,,,,,,,,,,,,,,,,,,,,,,,,,,,,,,,,,,,,,
,,,,,,,,2023-08-16_08h48.08.275,HF_wild_card,2022.2.4,Win32,2.994720308,5a0a057c80acd80001047392,64d2fd46c836a06233681665,64dc7f131bff2ecef98bcdc5,,,,,,,decisionTrl,resources/DR.BMP,resources/DP.BMP,WildCard_Ex,0.32421875,-0.002604167,1,0,0,1.4352,optionRight,5,13635,6,34,0,34,0,1,,,,,,,,,,,,,,,,,,,,,,,,,,,,,,,,,,,,,,,
,,,,,,,,2023-08-16_08h48.08.275,HF_wild_card,2022.2.4,Win32,2.994720308,5a0a057c80acd80001047392,64d2fd46c836a06233681665,64dc7f131bff2ecef98bcdc5,,,,,,,sngl,resources/Empty.png,resources/DR.BMP,Door4,0.330729167,0.0234375,1,0,0,1.3011,optionRight,80,13715,6,35,0,35,0,1,,,,,,,,,,,,,,,,,,,,,,,,,,,,,,,,,,,,,,,
,,,,,,,,2023-08-16_08h48.08.275,HF_wild_card,2022.2.4,Win32,2.994720308,5a0a057c80acd80001047392,64d2fd46c836a06233681665,64dc7f131bff2ecef98bcdc5,,,,,,,ctch,resources/DY.BMP,resources/DR.BMP,Door4,0.322916667,0.041666667,1,0,0,1.4236,optionRight,80,13795,6,36,0,36,0,1,,,,,,,,,,,,,,,,,,,,,,,,,,,,,,,,,,,,,,,
,,,,,,,,2023-08-16_08h48.08.275,HF_wild_card,2022.2.4,Win32,2.994720308,5a0a057c80acd80001047392,64d2fd46c836a06233681665,64dc7f131bff2ecef98bcdc5,,,,,,,ctch,resources/DBN.BMP,resources/DG.BMP,Door3,-0.36328125,-0.029947917,1,0,0,1.3987,optionLeft,70,13865,6,37,0,37,0,1,,,,,,,,,,,,,,,,,,,,,,,,,,,,,,,,,,,,,,,
,,,,,,,,2023-08-16_08h48.08.275,HF_wild_card,2022.2.4,Win32,2.994720308,5a0a057c80acd80001047392,64d2fd46c836a06233681665,64dc7f131bff2ecef98bcdc5,,,,,,,ctch,resources/DR.BMP,resources/DY.BMP,Door4,-0.412760417,-0.02734375,1,0,0,1.4016,optionLeft,80,13945,6,38,0,38,0,1,,,,,,,,,,,,,,,,,,,,,,,,,,,,,,,,,,,,,,,
,,,,,,,,2023-08-16_08h48.08.275,HF_wild_card,2022.2.4,Win32,2.994720308,5a0a057c80acd80001047392,64d2fd46c836a06233681665,64dc7f131bff2ecef98bcdc5,,,,,,,decisionTrl,resources/DBN.BMP,resources/DR.BMP,Door3,-0.29296875,-0.001302083,1,0,0,1.3813,optionLeft,70,14015,6,39,0,39,0,1,,,,,,,,,,,,,,,,,,,,,,,,,,,,,,,,,,,,,,,
,,,,,,,,2023-08-16_08h48.08.275,HF_wild_card,2022.2.4,Win32,2.994720308,5a0a057c80acd80001047392,64d2fd46c836a06233681665,64dc7f131bff2ecef98bcdc5,,,,,,,sngl,resources/DG.BMP,resources/Empty.png,Door2,-0.36328125,-0.022135417,1,0,0,1.2851,optionLeft,20,14035,6,40,0,40,0,1,,,,,,,,,,,,,,,,,,,,,,,,,,,,,,,,,,,,,,,
,,,,,,,,2023-08-16_08h48.08.275,HF_wild_card,2022.2.4,Win32,2.994720308,5a0a057c80acd80001047392,64d2fd46c836a06233681665,64dc7f131bff2ecef98bcdc5,,,,,,,decisionTrl,resources/DR.BMP,resources/DBN.BMP,Door4,-0.352864583,-0.037760417,1,0,0,1.9137,optionLeft,80,14115,6,41,0,41,0,1,,,,,,,,,,,,,,,,,,,,,,,,,,,,,,,,,,,,,,,
,,,,,,,,2023-08-16_08h48.08.275,HF_wild_card,2022.2.4,Win32,2.994720308,5a0a057c80acd80001047392,64d2fd46c836a06233681665,64dc7f131bff2ecef98bcdc5,,,,,,,decisionTrl,resources/DBN.BMP,resources/DR.BMP,Door4,0.463541667,-0.0078125,1,0,0,1.943,optionRight,60,14175,6,42,0,42,0,1,,,,,,,,,,,,,,,,,,,,,,,,,,,,,,,,,,,,,,,
,,,,,,,,2023-08-16_08h48.08.275,HF_wild_card,2022.2.4,Win32,2.994720308,5a0a057c80acd80001047392,64d2fd46c836a06233681665,64dc7f131bff2ecef98bcdc5,,,,,,,sngl,resources/DR.BMP,resources/Empty.png,Door4,-0.391927083,-0.020833333,1,0,0,1.2912,optionLeft,60,14235,6,43,0,43,0,1,,,,,,,,,,,,,,,,,,,,,,,,,,,,,,,,,,,,,,,
,,,,,,,,2023-08-16_08h48.08.275,HF_wild_card,2022.2.4,Win32,2.994720308,5a0a057c80acd80001047392,64d2fd46c836a06233681665,64dc7f131bff2ecef98bcdc5,,,,,,,,,,,,,,,,,,,,,,,,,,5,0,5,0,1,,,,,,,,,,,,,,,,,,,,,,,,,,,,,,,,,,
,,,,,,,,2023-08-16_08h48.08.275,HF_wild_card,2022.2.4,Win32,2.994720308,5a0a057c80acd80001047392,64d2fd46c836a06233681665,64dc7f131bff2ecef98bcdc5,,,,,,,ctch,resources/DBN.BMP,resources/DG.BMP,Door3,-0.44140625,0.072916667,1,0,0,1.3511,optionLeft,70,14305,7,0,0,0,0,1,,,,,,,,,,,,,,,,,,,,,,,,,,,,,,,,,,,,,,,
,,,,,,,,2023-08-16_08h48.08.275,HF_wild_card,2022.2.4,Win32,2.994720308,5a0a057c80acd80001047392,64d2fd46c836a06233681665,64dc7f131bff2ecef98bcdc5,,,,,,,decisionTrl,resources/DG.BMP,resources/DY.BMP,Door1,0.36328125,0.014322917,1,0,0,1.3756,optionRight,30,14335,7,1,0,1,0,1,,,,,,,,,,,,,,,,,,,,,,,,,,,,,,,,,,,,,,,
,,,,,,,,2023-08-16_08h48.08.275,HF_wild_card,2022.2.4,Win32,2.994720308,5a0a057c80acd80001047392,64d2fd46c836a06233681665,64dc7f131bff2ecef98bcdc5,,,,,,,decisionTrl,resources/DG.BMP,resources/DY.BMP,Door2,-0.35546875,-0.014322917,1,0,0,1.499,optionLeft,40,14375,7,2,0,2,0,1,,,,,,,,,,,,,,,,,,,,,,,,,,,,,,,,,,,,,,,
,,,,,,,,2023-08-16_08h48.08.275,HF_wild_card,2022.2.4,Win32,2.994720308,5a0a057c80acd80001047392,64d2fd46c836a06233681665,64dc7f131bff2ecef98bcdc5,,,,,,,decisionTrl,resources/DBN.BMP,resources/DR.BMP,Door3,-0.361979167,0.040364583,1,0,0,1.3963,optionLeft,70,14445,7,3,0,3,0,1,,,,,,,,,,,,,,,,,,,,,,,,,,,,,,,,,,,,,,,
,,,,,,,,2023-08-16_08h48.08.275,HF_wild_card,2022.2.4,Win32,2.994720308,5a0a057c80acd80001047392,64d2fd46c836a06233681665,64dc7f131bff2ecef98bcdc5,,,,,,,decisionTrl,resources/DR.BMP,resources/DBN.BMP,Door3,0.420572917,0.020833333,1,0,0,1.3863,optionRight,70,14515,7,4,0,4,0,1,,,,,,,,,,,,,,,,,,,,,,,,,,,,,,,,,,,,,,,
,,,,,,,,2023-08-16_08h48.08.275,HF_wild_card,2022.2.4,Win32,2.994720308,5a0a057c80acd80001047392,64d2fd46c836a06233681665,64dc7f131bff2ecef98bcdc5,,,,,,,decisionTrl,resources/DR.BMP,resources/DBN.BMP,Door3,0.329427083,0.015625,1,0,0,1.4152,optionRight,70,14585,7,5,0,5,0,1,,,,,,,,,,,,,,,,,,,,,,,,,,,,,,,,,,,,,,,
,,,,,,,,2023-08-16_08h48.08.275,HF_wild_card,2022.2.4,Win32,2.994720308,5a0a057c80acd80001047392,64d2fd46c836a06233681665,64dc7f131bff2ecef98bcdc5,,,,,,,decisionTrl,resources/DR.BMP,resources/DBN.BMP,Door4,-0.42578125,0,1,0,0,1.3663,optionLeft,60,14645,7,6,0,6,0,1,,,,,,,,,,,,,,,,,,,,,,,,,,,,,,,,,,,,,,,
,,,,,,,,2023-08-16_08h48.08.275,HF_wild_card,2022.2.4,Win32,2.994720308,5a0a057c80acd80001047392,64d2fd46c836a06233681665,64dc7f131bff2ecef98bcdc5,,,,,,,decisionTrl,resources/DBN.BMP,resources/DR.BMP,Door3,-0.313802083,0.00390625,1,0,0,1.3782,optionLeft,70,14715,7,7,0,7,0,1,,,,,,,,,,,,,,,,,,,,,,,,,,,,,,,,,,,,,,,
,,,,,,,,2023-08-16_08h48.08.275,HF_wild_card,2022.2.4,Win32,2.994720308,5a0a057c80acd80001047392,64d2fd46c836a06233681665,64dc7f131bff2ecef98bcdc5,,,,,,,decisionTrl,resources/DG.BMP,resources/DY.BMP,Door2,-0.36328125,-0.001302083,1,0,0,1.4082,optionLeft,40,14755,7,8,0,8,0,1,,,,,,,,,,,,,,,,,,,,,,,,,,,,,,,,,,,,,,,
,,,,,,,,2023-08-16_08h48.08.275,HF_wild_card,2022.2.4,Win32,2.994720308,5a0a057c80acd80001047392,64d2fd46c836a06233681665,64dc7f131bff2ecef98bcdc5,,,,,,,ctch,resources/DG.BMP,resources/DBN.BMP,Door3,0.3046875,0.037760417,1,0,0,1.379,optionRight,70,14825,7,9,0,9,0,1,,,,,,,,,,,,,,,,,,,,,,,,,,,,,,,,,,,,,,,
,,,,,,,,2023-08-16_08h48.08.275,HF_wild_card,2022.2.4,Win32,2.994720308,5a0a057c80acd80001047392,64d2fd46c836a06233681665,64dc7f131bff2ecef98bcdc5,,,,,,,ctch,resources/DG.BMP,resources/DBN.BMP,Door3,0.309895833,0.03125,1,0,0,1.3581,optionRight,70,14895,7,10,0,10,0,1,,,,,,,,,,,,,,,,,,,,,,,,,,,,,,,,,,,,,,,
,,,,,,,,2023-08-16_08h48.08.275,HF_wild_card,2022.2.4,Win32,2.994720308,5a0a057c80acd80001047392,64d2fd46c836a06233681665,64dc7f131bff2ecef98bcdc5,,,,,,,ctch,resources/DR.BMP,resources/DY.BMP,Door4,-0.397135417,-0.032552083,1,0,0,1.4335,optionLeft,60,14955,7,11,0,11,0,1,,,,,,,,,,,,,,,,,,,,,,,,,,,,,,,,,,,,,,,
,,,,,,,,2023-08-16_08h48.08.275,HF_wild_card,2022.2.4,Win32,2.994720308,5a0a057c80acd80001047392,64d2fd46c836a06233681665,64dc7f131bff2ecef98bcdc5,,,,,,,ctch,resources/DY.BMP,resources/DR.BMP,Door1,-0.369791667,0.001302083,1,0,0,1.3906,optionLeft,30,14985,7,12,0,12,0,1,,,,,,,,,,,,,,,,,,,,,,,,,,,,,,,,,,,,,,,
,,,,,,,,2023-08-16_08h48.08.275,HF_wild_card,2022.2.4,Win32,2.994720308,5a0a057c80acd80001047392,64d2fd46c836a06233681665,64dc7f131bff2ecef98bcdc5,,,,,,,decisionTrl,resources/DY.BMP,resources/DG.BMP,Door1,-0.412760417,-0.03125,1,0,0,1.4423,optionLeft,30,15015,7,13,0,13,0,1,,,,,,,,,,,,,,,,,,,,,,,,,,,,,,,,,,,,,,,
,,,,,,,,2023-08-16_08h48.08.275,HF_wild_card,2022.2.4,Win32,2.994720308,5a0a057c80acd80001047392,64d2fd46c836a06233681665,64dc7f131bff2ecef98bcdc5,,,,,,,decisionTrl,resources/DG.BMP,resources/DY.BMP,Door1,0.294270833,0.0078125,1,0,0,1.9052,optionRight,30,15045,7,14,0,14,0,1,,,,,,,,,,,,,,,,,,,,,,,,,,,,,,,,,,,,,,,
,,,,,,,,2023-08-16_08h48.08.275,HF_wild_card,2022.2.4,Win32,2.994720308,5a0a057c80acd80001047392,64d2fd46c836a06233681665,64dc7f131bff2ecef98bcdc5,,,,,,,decisionTrl,resources/DBN.BMP,resources/DR.BMP,Door3,-0.315104167,0.016927083,1,0,0,1.4109,optionLeft,70,15115,7,15,0,15,0,1,,,,,,,,,,,,,,,,,,,,,,,,,,,,,,,,,,,,,,,
,,,,,,,,2023-08-16_08h48.08.275,HF_wild_card,2022.2.4,Win32,2.994720308,5a0a057c80acd80001047392,64d2fd46c836a06233681665,64dc7f131bff2ecef98bcdc5,,,,,,,ctch,resources/DBN.BMP,resources/DG.BMP,Door3,-0.395833333,0.063802083,1,0,0,1.3788,optionLeft,70,15185,7,16,0,16,0,1,,,,,,,,,,,,,,,,,,,,,,,,,,,,,,,,,,,,,,,
,,,,,,,,2023-08-16_08h48.08.275,HF_wild_card,2022.2.4,Win32,2.994720308,5a0a057c80acd80001047392,64d2fd46c836a06233681665,64dc7f131bff2ecef98bcdc5,,,,,,,ctch,resources/DBN.BMP,resources/DG.BMP,Door3,-0.348958333,0.03125,1,0,0,1.3959,optionLeft,70,15255,7,17,0,17,0,1,,,,,,,,,,,,,,,,,,,,,,,,,,,,,,,,,,,,,,,
,,,,,,,,2023-08-16_08h48.08.275,HF_wild_card,2022.2.4,Win32,2.994720308,5a0a057c80acd80001047392,64d2fd46c836a06233681665,64dc7f131bff2ecef98bcdc5,,,,,,,decisionTrl,resources/DY.BMP,resources/DG.BMP,Door1,-0.4296875,0.013020833,1,0,0,1.4607,optionLeft,30,15285,7,18,0,18,0,1,,,,,,,,,,,,,,,,,,,,,,,,,,,,,,,,,,,,,,,
,,,,,,,,2023-08-16_08h48.08.275,HF_wild_card,2022.2.4,Win32,2.994720308,5a0a057c80acd80001047392,64d2fd46c836a06233681665,64dc7f131bff2ecef98bcdc5,,,,,,,ctch,resources/DY.BMP,resources/DR.BMP,Door4,0.338541667,-0.036458333,1,0,0,1.4236,optionRight,80,15365,7,19,0,19,0,1,,,,,,,,,,,,,,,,,,,,,,,,,,,,,,,,,,,,,,,
,,,,,,,,2023-08-16_08h48.08.275,HF_wild_card,2022.2.4,Win32,2.994720308,5a0a057c80acd80001047392,64d2fd46c836a06233681665,64dc7f131bff2ecef98bcdc5,,,,,,,decisionTrl,resources/DBN.BMP,resources/DR.BMP,Door3,-0.354166667,0.009114583,1,0,0,1.4115,optionLeft,70,15435,7,20,0,20,0,1,,,,,,,,,,,,,,,,,,,,,,,,,,,,,,,,,,,,,,,
,,,,,,,,2023-08-16_08h48.08.275,HF_wild_card,2022.2.4,Win32,2.994720308,5a0a057c80acd80001047392,64d2fd46c836a06233681665,64dc7f131bff2ecef98bcdc5,,,,,,,decisionTrl,resources/DR.BMP,resources/DBN.BMP,Door3,0.329427083,-0.01171875,1,0,0,1.8385,optionRight,70,15505,7,21,0,21,0,1,,,,,,,,,,,,,,,,,,,,,,,,,,,,,,,,,,,,,,,
,,,,,,,,2023-08-16_08h48.08.275,HF_wild_card,2022.2.4,Win32,2.994720308,5a0a057c80acd80001047392,64d2fd46c836a06233681665,64dc7f131bff2ecef98bcdc5,,,,,,,decisionTrl,resources/DY.BMP,resources/DG.BMP,Door1,-0.415364583,-0.018229167,1,0,0,1.3705,optionLeft,30,15535,7,22,0,22,0,1,,,,,,,,,,,,,,,,,,,,,,,,,,,,,,,,,,,,,,,
,,,,,,,,2023-08-16_08h48.08.275,HF_wild_card,2022.2.4,Win32,2.994720308,5a0a057c80acd80001047392,64d2fd46c836a06233681665,64dc7f131bff2ecef98bcdc5,,,,,,,decisionTrl,resources/DR.BMP,resources/DBN.BMP,Door4,-0.321614583,-0.018229167,1,0,0,1.8868,optionLeft,80,15615,7,23,0,23,0,1,,,,,,,,,,,,,,,,,,,,,,,,,,,,,,,,,,,,,,,
,,,,,,,,2023-08-16_08h48.08.275,HF_wild_card,2022.2.4,Win32,2.994720308,5a0a057c80acd80001047392,64d2fd46c836a06233681665,64dc7f131bff2ecef98bcdc5,,,,,,,decisionTrl,resources/DY.BMP,resources/DG.BMP,Door1,-0.33984375,-0.002604167,1,0,0,1.3698,optionLeft,30,15645,7,24,0,24,0,1,,,,,,,,,,,,,,,,,,,,,,,,,,,,,,,,,,,,,,,
,,,,,,,,2023-08-16_08h48.08.275,HF_wild_card,2022.2.4,Win32,2.994720308,5a0a057c80acd80001047392,64d2fd46c836a06233681665,64dc7f131bff2ecef98bcdc5,,,,,,,decisionTrl,resources/DBN.BMP,resources/DR.BMP,Door3,-0.365885417,0.005208333,1,0,0,1.3732,optionLeft,70,15715,7,25,0,25,0,1,,,,,,,,,,,,,,,,,,,,,,,,,,,,,,,,,,,,,,,
,,,,,,,,2023-08-16_08h48.08.275,HF_wild_card,2022.2.4,Win32,2.994720308,5a0a057c80acd80001047392,64d2fd46c836a06233681665,64dc7f131bff2ecef98bcdc5,,,,,,,decisionTrl,resources/DY.BMP,resources/DG.BMP,Door1,-0.361979167,-0.016927083,1,0,0,1.3823,optionLeft,30,15745,7,26,0,26,0,1,,,,,,,,,,,,,,,,,,,,,,,,,,,,,,,,,,,,,,,
,,,,,,,,2023-08-16_08h48.08.275,HF_wild_card,2022.2.4,Win32,2.994720308,5a0a057c80acd80001047392,64d2fd46c836a06233681665,64dc7f131bff2ecef98bcdc5,,,,,,,ctch,resources/DY.BMP,resources/DR.BMP,Door1,-0.317708333,-0.018229167,1,0,0,1.3743,optionLeft,30,15775,7,27,0,27,0,1,,,,,,,,,,,,,,,,,,,,,,,,,,,,,,,,,,,,,,,
,,,,,,,,2023-08-16_08h48.08.275,HF_wild_card,2022.2.4,Win32,2.994720308,5a0a057c80acd80001047392,64d2fd46c836a06233681665,64dc7f131bff2ecef98bcdc5,,,,,,,decisionTrl,resources/DY.BMP,resources/DG.BMP,Door1,-0.342447917,-0.00390625,1,0,0,1.4212,optionLeft,30,15805,7,28,0,28,0,1,,,,,,,,,,,,,,,,,,,,,,,,,,,,,,,,,,,,,,,
,,,,,,,,2023-08-16_08h48.08.275,HF_wild_card,2022.2.4,Win32,2.994720308,5a0a057c80acd80001047392,64d2fd46c836a06233681665,64dc7f131bff2ecef98bcdc5,,,,,,,ctch,resources/DR.BMP,resources/DY.BMP,Door4,-0.390625,-0.01953125,1,0,0,1.4317,optionLeft,80,15885,7,29,0,29,0,1,,,,,,,,,,,,,,,,,,,,,,,,,,,,,,,,,,,,,,,
,,,,,,,,2023-08-16_08h48.08.275,HF_wild_card,2022.2.4,Win32,2.994720308,5a0a057c80acd80001047392,64d2fd46c836a06233681665,64dc7f131bff2ecef98bcdc5,,,,,,,ctch,resources/DG.BMP,resources/DBN.BMP,Door3,0.309895833,-0.01953125,1,0,0,1.4535,optionRight,70,15955,7,30,0,30,0,1,,,,,,,,,,,,,,,,,,,,,,,,,,,,,,,,,,,,,,,
,,,,,,,,2023-08-16_08h48.08.275,HF_wild_card,2022.2.4,Win32,2.994720308,5a0a057c80acd80001047392,64d2fd46c836a06233681665,64dc7f131bff2ecef98bcdc5,,,,,,,decisionTrl,resources/DBN.BMP,resources/DR.BMP,Door4,0.325520833,-0.037760417,1,0,0,1.892,optionRight,80,16035,7,31,0,31,0,1,,,,,,,,,,,,,,,,,,,,,,,,,,,,,,,,,,,,,,,
,,,,,,,,2023-08-16_08h48.08.275,HF_wild_card,2022.2.4,Win32,2.994720308,5a0a057c80acd80001047392,64d2fd46c836a06233681665,64dc7f131bff2ecef98bcdc5,,,,,,,decisionTrl,resources/DG.BMP,resources/DY.BMP,Door2,-0.377604167,-0.014322917,1,0,0,1.8865,optionLeft,20,16055,7,32,0,32,0,1,,,,,,,,,,,,,,,,,,,,,,,,,,,,,,,,,,,,,,,
,,,,,,,,2023-08-16_08h48.08.275,HF_wild_card,2022.2.4,Win32,2.994720308,5a0a057c80acd80001047392,64d2fd46c836a06233681665,64dc7f131bff2ecef98bcdc5,,,,,,,decisionTrl,resources/DG.BMP,resources/DY.BMP,Door1,0.313802083,-0.015625,1,0,0,1.8742,optionRight,30,16085,7,33,0,33,0,1,,,,,,,,,,,,,,,,,,,,,,,,,,,,,,,,,,,,,,,
,,,,,,,,2023-08-16_08h48.08.275,HF_wild_card,2022.2.4,Win32,2.994720308,5a0a057c80acd80001047392,64d2fd46c836a06233681665,64dc7f131bff2ecef98bcdc5,,,,,,,decisionTrl,resources/DR.BMP,resources/DBN.BMP,Door4,-0.33984375,0.005208333,1,0,0,1.406,optionLeft,80,16165,7,34,0,34,0,1,,,,,,,,,,,,,,,,,,,,,,,,,,,,,,,,,,,,,,,
,,,,,,,,2023-08-16_08h48.08.275,HF_wild_card,2022.2.4,Win32,2.994720308,5a0a057c80acd80001047392,64d2fd46c836a06233681665,64dc7f131bff2ecef98bcdc5,,,,,,,ctch,resources/DR.BMP,resources/DY.BMP,Door4,-0.3203125,-0.014322917,1,0,0,1.3715,optionLeft,80,16245,7,35,0,35,0,1,,,,,,,,,,,,,,,,,,,,,,,,,,,,,,,,,,,,,,,
,,,,,,,,2023-08-16_08h48.08.275,HF_wild_card,2022.2.4,Win32,2.994720308,5a0a057c80acd80001047392,64d2fd46c836a06233681665,64dc7f131bff2ecef98bcdc5,,,,,,,,,,,,,,,,,,,,,,,,,,6,0,6,0,1,,,,,,,,,,,,,,,,,,,,,,,,,,,,,,,,,,
,,,,,,,,2023-08-16_08h48.08.275,HF_wild_card,2022.2.4,Win32,2.994720308,5a0a057c80acd80001047392,64d2fd46c836a06233681665,64dc7f131bff2ecef98bcdc5,,,,,,,,,,,,,,,,,,,,,,,,,,,,,,,4,,,,,,,,,,,,,,,,,,,,,,,,,,,,,,,,,
,,,,,,,,2023-08-16_08h48.08.275,HF_wild_card,2022.2.4,Win32,2.994720308,5a0a057c80acd80001047392,64d2fd46c836a06233681665,64dc7f131bff2ecef98bcdc5,,,,,,,,,,,,,,,,,,,,,,,,,,,,,,,,,,,,,,,,,,,,,,,,,,,,,,,,,,,,,,,,
,,,,,,,,2023-08-16_08h48.08.275,HF_wild_card,2022.2.4,Win32,2.994720308,5a0a057c80acd80001047392,64d2fd46c836a06233681665,64dc7f131bff2ecef98bcdc5,,,,,,,,,,,,,,,,,,,,,,,,,,,,,,,,70,Door3,resources/DBN.BMP,0,0,0,0,1,,,,,,,,,,,,,,,,,,,,,,,,,
,,,,,,,,2023-08-16_08h48.08.275,HF_wild_card,2022.2.4,Win32,2.994720308,5a0a057c80acd80001047392,64d2fd46c836a06233681665,64dc7f131bff2ecef98bcdc5,,,,,,,,,,,,,,,,,,,,,,,,,,,,,,,,80,Door4,resources/DR.BMP,1,0,1,0,1,,,,,,,,,,,,,,,,,,,,,,,,,
,,,,,,,,2023-08-16_08h48.08.275,HF_wild_card,2022.2.4,Win32,2.994720308,5a0a057c80acd80001047392,64d2fd46c836a06233681665,64dc7f131bff2ecef98bcdc5,,,,,,,,,,,,,,,,,,,,,,,,,,,,,,,,30,Door1,resources/DY.BMP,2,0,2,0,1,,,,,,,,,,,,,,,,,,,,,,,,,
,,,,,,,,2023-08-16_08h48.08.275,HF_wild_card,2022.2.4,Win32,2.994720308,5a0a057c80acd80001047392,64d2fd46c836a06233681665,64dc7f131bff2ecef98bcdc5,,,,,,,,,,,,,,,,,,,,,,,,,,,,,,,,20,Door2,resources/DG.BMP,3,0,3,0,1,,,,,,,,,,,,,,,,,,,,,,,,,
,,,,,,,,2023-08-16_08h48.08.275,HF_wild_card,2022.2.4,Win32,2.994720308,5a0a057c80acd80001047392,64d2fd46c836a06233681665,64dc7f131bff2ecef98bcdc5,,,,,,,,,,,,,,,,,,,,,,,,,,,,,,,,95,WC_extreme,resources/DP.BMP,4,0,4,0,1,,,,,,,,,,,,,,,,,,,,,,,,,
,,,,,,,,2023-08-16_08h48.08.275,HF_wild_card,2022.2.4,Win32,2.994720308,5a0a057c80acd80001047392,64d2fd46c836a06233681665,64dc7f131bff2ecef98bcdc5,,,,,,,,,,,,,,,,,,,,,,,,,,,,,,,,40,WC_nonExtreme,resources/DB.BMP,5,0,5,0,1,,,,,,,,,,,,,,,,,,,,,,,,,
,,,,,,,,2023-08-16_08h48.08.275,HF_wild_card,2022.2.4,Win32,2.994720308,5a0a057c80acd80001047392,64d2fd46c836a06233681665,64dc7f131bff2ecef98bcdc5,,,,,,,,,,,,,,,,,,,,,,,,,,,,,,,,,,,,,,,,,,,,,,,,,,,,,,,,,,,,,,,,
,,,,,,,,2023-08-16_08h48.08.275,HF_wild_card,2022.2.4,Win32,2.994720308,5a0a057c80acd80001047392,64d2fd46c836a06233681665,64dc7f131bff2ecef98bcdc5,,,,,,,,,,,,,,,,,,,,,,,,,,,,,,,,,,,,,,,,0,0,0,0,1,,,,,,,,,,,,,,,,,,,,
