Condition,Low fixed image (Door1),Low risky image (Door2),High fixed image (Door3),High risky image (Door4),NonExtreme Wild Card 1,NonExtreme Wild Card 2,,date,expName,psychopyVersion,OS,frameRate,PROLIFIC_PID,STUDY_ID,SESSION_ID,mouse_2.x,mouse_2.y,mouse_2.leftButton,mouse_2.midButton,mouse_2.rightButton,mouse_2.clicked_name,Trial Type,Left Option Image,Right Option Image,Chosen Door,mouse.x,mouse.y,mouse.leftButton,mouse.midButton,mouse.rightButton,mouse.time,mouse.clicked_name,Feedback,Cumulative Reward,Block,trial.thisRepN,trial.thisTrialN,trial.thisN,trial.thisIndex,trial.ran,blocks.thisRepN,blocks.thisTrialN,blocks.thisN,blocks.thisIndex,blocks.ran,Money conversion,First Outcome Reported,Shown Door (First Outcome),Displayed Image (First Outcome),outcomes.thisRepN,outcomes.thisTrialN,outcomes.thisN,outcomes.thisIndex,outcomes.ran,judgments.thisRepN,judgments.thisTrialN,judgments.thisN,judgments.thisIndex,judgments.ran,freqMouse.x,freqMouse.y,freqMouse.leftButton,freqMouse.midButton,freqMouse.rightButton,freqMouse.clicked_name,FQJ for first outcome,FQJ for second outcome,Shown Door,Displayed Image,trials.thisRepN,trials.thisTrialN,trials.thisN,trials.thisIndex,trials.ran,judgBlock.thisRepN,judgBlock.thisTrialN,judgBlock.thisN,judgBlock.thisIndex,judgBlock.ran
2,resources/DG.BMP,resources/DP.BMP,resources/DR.BMP,resources/DBN.BMP,resources/DB.BMP,resources/DY.BMP,,2023-08-16_08h40.45.553,HF_wild_card,2022.2.4,Win32,59.99520038,62b055edf6ce67b0502628ed,64d2fd46c836a06233681665,64dc7d767fbf6820418b8b30,,,,,,,,,,,,,,,,,,,,,,,,,,,,,,,,,,,,,,,,,,,,,,,,,,,,,,,,,,,,,,,,
,,,,,,,,2023-08-16_08h40.45.553,HF_wild_card,2022.2.4,Win32,59.99520038,62b055edf6ce67b0502628ed,64d2fd46c836a06233681665,64dc7d767fbf6820418b8b30,0,-0.42962963,1,0,0,agree,,,,,,,,,,,,,,,,,,,,,,,,,,,,,,,,,,,,,,,,,,,,,,,,,,,,,,,,,,
,,,,,,,,2023-08-16_08h40.45.553,HF_wild_card,2022.2.4,Win32,59.99520038,62b055edf6ce67b0502628ed,64d2fd46c836a06233681665,64dc7d767fbf6820418b8b30,,,,,,,,,,,,,,,,,,,,,,,,,,,,,,,,,,,,,,,,,,,,,,,,,,,,,,,,,,,,,,,,
,,,,,,,,2023-08-16_08h40.45.553,HF_wild_card,2022.2.4,Win32,59.99520038,62b055edf6ce67b0502628ed,64d2fd46c836a06233681665,64dc7d767fbf6820418b8b30,,,,,,,decisionTrl,resources/DG.BMP,resources/DP.BMP,Door1,-0.212962963,-0.097222222,1,0,0,2.4456,optionLeft,30,30,1,0,0,0,0,1,,,,,,,,,,,,,,,,,,,,,,,,,,,,,,,,,,,,,,,
,,,,,,,,2023-08-16_08h40.45.553,HF_wild_card,2022.2.4,Win32,59.99520038,62b055edf6ce67b0502628ed,64d2fd46c836a06233681665,64dc7d767fbf6820418b8b30,,,,,,,decisionTrl,resources/DP.BMP,resources/DG.BMP,Door2,-0.19537037,-0.021296296,1,0,0,1.546,optionLeft,20,50,1,1,0,1,0,1,,,,,,,,,,,,,,,,,,,,,,,,,,,,,,,,,,,,,,,
,,,,,,,,2023-08-16_08h40.45.553,HF_wild_card,2022.2.4,Win32,59.99520038,62b055edf6ce67b0502628ed,64d2fd46c836a06233681665,64dc7d767fbf6820418b8b30,,,,,,,sngl,resources/Empty.png,resources/DY.BMP,WildCard_NonEx,0.185185185,0.013888889,1,0,0,1.2107,optionRight,55,105,1,2,0,2,0,1,,,,,,,,,,,,,,,,,,,,,,,,,,,,,,,,,,,,,,,
,,,,,,,,2023-08-16_08h40.45.553,HF_wild_card,2022.2.4,Win32,59.99520038,62b055edf6ce67b0502628ed,64d2fd46c836a06233681665,64dc7d767fbf6820418b8b30,,,,,,,sngl,resources/DR.BMP,resources/Empty.png,Door3,-0.313888889,-0.062037037,1,0,0,0.6288,optionLeft,70,175,1,3,0,3,0,1,,,,,,,,,,,,,,,,,,,,,,,,,,,,,,,,,,,,,,,
,,,,,,,,2023-08-16_08h40.45.553,HF_wild_card,2022.2.4,Win32,59.99520038,62b055edf6ce67b0502628ed,64d2fd46c836a06233681665,64dc7d767fbf6820418b8b30,,,,,,,decisionTrl,resources/DR.BMP,resources/DBN.BMP,Door3,-0.322222222,-0.050925926,1,0,0,0.8962,optionLeft,70,245,1,4,0,4,0,1,,,,,,,,,,,,,,,,,,,,,,,,,,,,,,,,,,,,,,,
,,,,,,,,2023-08-16_08h40.45.553,HF_wild_card,2022.2.4,Win32,59.99520038,62b055edf6ce67b0502628ed,64d2fd46c836a06233681665,64dc7d767fbf6820418b8b30,,,,,,,decisionTrl,resources/DG.BMP,resources/DY.BMP,WildCard_NonEx,0.388888889,0.011111111,1,0,0,1.0629,optionRight,45,290,1,5,0,5,0,1,,,,,,,,,,,,,,,,,,,,,,,,,,,,,,,,,,,,,,,
,,,,,,,,2023-08-16_08h40.45.553,HF_wild_card,2022.2.4,Win32,59.99520038,62b055edf6ce67b0502628ed,64d2fd46c836a06233681665,64dc7d767fbf6820418b8b30,,,,,,,decisionTrl,resources/DY.BMP,resources/DP.BMP,Door2,0.287962963,-0.027777778,1,0,0,0.713,optionRight,20,310,1,6,0,6,0,1,,,,,,,,,,,,,,,,,,,,,,,,,,,,,,,,,,,,,,,
,,,,,,,,2023-08-16_08h40.45.553,HF_wild_card,2022.2.4,Win32,59.99520038,62b055edf6ce67b0502628ed,64d2fd46c836a06233681665,64dc7d767fbf6820418b8b30,,,,,,,ctch,resources/DG.BMP,resources/DBN.BMP,Door1,-0.336111111,-0.037037037,1,0,0,0.6283,optionLeft,30,340,1,7,0,7,0,1,,,,,,,,,,,,,,,,,,,,,,,,,,,,,,,,,,,,,,,
,,,,,,,,2023-08-16_08h40.45.553,HF_wild_card,2022.2.4,Win32,59.99520038,62b055edf6ce67b0502628ed,64d2fd46c836a06233681665,64dc7d767fbf6820418b8b30,,,,,,,decisionTrl,resources/DP.BMP,resources/DY.BMP,WildCard_NonEx,0.259259259,0.009259259,1,0,0,0.8627,optionRight,55,395,1,8,0,8,0,1,,,,,,,,,,,,,,,,,,,,,,,,,,,,,,,,,,,,,,,
,,,,,,,,2023-08-16_08h40.45.553,HF_wild_card,2022.2.4,Win32,59.99520038,62b055edf6ce67b0502628ed,64d2fd46c836a06233681665,64dc7d767fbf6820418b8b30,,,,,,,sngl,resources/Empty.png,resources/DP.BMP,Door2,-0.200925926,-0.024074074,1,0,0,1.1282,optionRight,20,415,1,9,0,9,0,1,,,,,,,,,,,,,,,,,,,,,,,,,,,,,,,,,,,,,,,
,,,,,,,,2023-08-16_08h40.45.553,HF_wild_card,2022.2.4,Win32,59.99520038,62b055edf6ce67b0502628ed,64d2fd46c836a06233681665,64dc7d767fbf6820418b8b30,,,,,,,sngl,resources/DY.BMP,resources/Empty.png,WildCard_NonEx,-0.438888889,-0.064814815,1,0,0,0.5628,optionLeft,45,460,1,10,0,10,0,1,,,,,,,,,,,,,,,,,,,,,,,,,,,,,,,,,,,,,,,
,,,,,,,,2023-08-16_08h40.45.553,HF_wild_card,2022.2.4,Win32,59.99520038,62b055edf6ce67b0502628ed,64d2fd46c836a06233681665,64dc7d767fbf6820418b8b30,,,,,,,ctch,resources/DR.BMP,resources/DP.BMP,Door3,-0.238888889,-0.023148148,1,0,0,0.7791,optionLeft,70,530,1,11,0,11,0,1,,,,,,,,,,,,,,,,,,,,,,,,,,,,,,,,,,,,,,,
,,,,,,,,2023-08-16_08h40.45.553,HF_wild_card,2022.2.4,Win32,59.99520038,62b055edf6ce67b0502628ed,64d2fd46c836a06233681665,64dc7d767fbf6820418b8b30,,,,,,,decisionTrl,resources/DR.BMP,resources/DBN.BMP,Door3,-0.283333333,-0.063888889,1,0,0,0.4957,optionLeft,70,600,1,12,0,12,0,1,,,,,,,,,,,,,,,,,,,,,,,,,,,,,,,,,,,,,,,
,,,,,,,,2023-08-16_08h40.45.553,HF_wild_card,2022.2.4,Win32,59.99520038,62b055edf6ce67b0502628ed,64d2fd46c836a06233681665,64dc7d767fbf6820418b8b30,,,,,,,ctch,resources/DP.BMP,resources/DR.BMP,Door3,0.412962963,0.026851852,1,0,0,1.1303,optionRight,70,670,1,13,0,13,0,1,,,,,,,,,,,,,,,,,,,,,,,,,,,,,,,,,,,,,,,
,,,,,,,,2023-08-16_08h40.45.553,HF_wild_card,2022.2.4,Win32,59.99520038,62b055edf6ce67b0502628ed,64d2fd46c836a06233681665,64dc7d767fbf6820418b8b30,,,,,,,decisionTrl,resources/DG.BMP,resources/DP.BMP,Door1,-0.310185185,-0.022222222,1,0,0,1.113,optionLeft,30,700,1,14,0,14,0,1,,,,,,,,,,,,,,,,,,,,,,,,,,,,,,,,,,,,,,,
,,,,,,,,2023-08-16_08h40.45.553,HF_wild_card,2022.2.4,Win32,59.99520038,62b055edf6ce67b0502628ed,64d2fd46c836a06233681665,64dc7d767fbf6820418b8b30,,,,,,,decisionTrl,resources/DY.BMP,resources/DR.BMP,Door3,0.398148148,0.032407407,1,0,0,1.9315,optionRight,70,770,1,15,0,15,0,1,,,,,,,,,,,,,,,,,,,,,,,,,,,,,,,,,,,,,,,
,,,,,,,,2023-08-16_08h40.45.553,HF_wild_card,2022.2.4,Win32,59.99520038,62b055edf6ce67b0502628ed,64d2fd46c836a06233681665,64dc7d767fbf6820418b8b30,,,,,,,sngl,resources/DG.BMP,resources/Empty.png,Door1,-0.273148148,-0.04537037,1,0,0,0.5957,optionLeft,30,800,1,16,0,16,0,1,,,,,,,,,,,,,,,,,,,,,,,,,,,,,,,,,,,,,,,
,,,,,,,,2023-08-16_08h40.45.553,HF_wild_card,2022.2.4,Win32,59.99520038,62b055edf6ce67b0502628ed,64d2fd46c836a06233681665,64dc7d767fbf6820418b8b30,,,,,,,decisionTrl,resources/DR.BMP,resources/DBN.BMP,Door4,0.227777778,0.013888889,1,0,0,1.0284,optionRight,80,880,1,17,0,17,0,1,,,,,,,,,,,,,,,,,,,,,,,,,,,,,,,,,,,,,,,
,,,,,,,,2023-08-16_08h40.45.553,HF_wild_card,2022.2.4,Win32,59.99520038,62b055edf6ce67b0502628ed,64d2fd46c836a06233681665,64dc7d767fbf6820418b8b30,,,,,,,decisionTrl,resources/DR.BMP,resources/DY.BMP,Door3,-0.330555556,-0.060185185,1,0,0,0.8472,optionLeft,70,950,1,18,0,18,0,1,,,,,,,,,,,,,,,,,,,,,,,,,,,,,,,,,,,,,,,
,,,,,,,,2023-08-16_08h40.45.553,HF_wild_card,2022.2.4,Win32,59.99520038,62b055edf6ce67b0502628ed,64d2fd46c836a06233681665,64dc7d767fbf6820418b8b30,,,,,,,sngl,resources/DBN.BMP,resources/Empty.png,Door4,-0.387962963,-0.056481481,1,0,0,0.4959,optionLeft,80,1030,1,19,0,19,0,1,,,,,,,,,,,,,,,,,,,,,,,,,,,,,,,,,,,,,,,
,,,,,,,,2023-08-16_08h40.45.553,HF_wild_card,2022.2.4,Win32,59.99520038,62b055edf6ce67b0502628ed,64d2fd46c836a06233681665,64dc7d767fbf6820418b8b30,,,,,,,sngl,resources/Empty.png,resources/DBN.BMP,Door4,0.433333333,0.028703704,1,0,0,0.461,optionRight,60,1090,1,20,0,20,0,1,,,,,,,,,,,,,,,,,,,,,,,,,,,,,,,,,,,,,,,
,,,,,,,,2023-08-16_08h40.45.553,HF_wild_card,2022.2.4,Win32,59.99520038,62b055edf6ce67b0502628ed,64d2fd46c836a06233681665,64dc7d767fbf6820418b8b30,,,,,,,decisionTrl,resources/DBN.BMP,resources/DR.BMP,Door4,-0.380555556,-0.078703704,1,0,0,0.4961,optionLeft,60,1150,1,21,0,21,0,1,,,,,,,,,,,,,,,,,,,,,,,,,,,,,,,,,,,,,,,
,,,,,,,,2023-08-16_08h40.45.553,HF_wild_card,2022.2.4,Win32,59.99520038,62b055edf6ce67b0502628ed,64d2fd46c836a06233681665,64dc7d767fbf6820418b8b30,,,,,,,decisionTrl,resources/DG.BMP,resources/DP.BMP,Door1,-0.196296296,-0.034259259,1,0,0,0.929,optionLeft,30,1180,1,22,0,22,0,1,,,,,,,,,,,,,,,,,,,,,,,,,,,,,,,,,,,,,,,
,,,,,,,,2023-08-16_08h40.45.553,HF_wild_card,2022.2.4,Win32,59.99520038,62b055edf6ce67b0502628ed,64d2fd46c836a06233681665,64dc7d767fbf6820418b8b30,,,,,,,decisionTrl,resources/DBN.BMP,resources/DR.BMP,Door3,0.433333333,0.031481481,1,0,0,0.4155,optionRight,70,1250,1,23,0,23,0,1,,,,,,,,,,,,,,,,,,,,,,,,,,,,,,,,,,,,,,,
,,,,,,,,2023-08-16_08h40.45.553,HF_wild_card,2022.2.4,Win32,59.99520038,62b055edf6ce67b0502628ed,64d2fd46c836a06233681665,64dc7d767fbf6820418b8b30,,,,,,,decisionTrl,resources/DBN.BMP,resources/DR.BMP,Door4,-0.210185185,-0.061111111,1,0,0,0.8631,optionLeft,80,1330,1,24,0,24,0,1,,,,,,,,,,,,,,,,,,,,,,,,,,,,,,,,,,,,,,,
,,,,,,,,2023-08-16_08h40.45.553,HF_wild_card,2022.2.4,Win32,59.99520038,62b055edf6ce67b0502628ed,64d2fd46c836a06233681665,64dc7d767fbf6820418b8b30,,,,,,,decisionTrl,resources/DBN.BMP,resources/DR.BMP,Door4,-0.255555556,-0.047222222,1,0,0,0.5793,optionLeft,60,1390,1,25,0,25,0,1,,,,,,,,,,,,,,,,,,,,,,,,,,,,,,,,,,,,,,,
,,,,,,,,2023-08-16_08h40.45.553,HF_wild_card,2022.2.4,Win32,59.99520038,62b055edf6ce67b0502628ed,64d2fd46c836a06233681665,64dc7d767fbf6820418b8b30,,,,,,,sngl,resources/Empty.png,resources/DG.BMP,Door1,0.188888889,0.027777778,1,0,0,0.6788,optionRight,30,1420,1,26,0,26,0,1,,,,,,,,,,,,,,,,,,,,,,,,,,,,,,,,,,,,,,,
,,,,,,,,2023-08-16_08h40.45.553,HF_wild_card,2022.2.4,Win32,59.99520038,62b055edf6ce67b0502628ed,64d2fd46c836a06233681665,64dc7d767fbf6820418b8b30,,,,,,,decisionTrl,resources/DY.BMP,resources/DBN.BMP,Door4,0.237962963,0.031481481,1,0,0,0.6456,optionRight,80,1500,1,27,0,27,0,1,,,,,,,,,,,,,,,,,,,,,,,,,,,,,,,,,,,,,,,
,,,,,,,,2023-08-16_08h40.45.553,HF_wild_card,2022.2.4,Win32,59.99520038,62b055edf6ce67b0502628ed,64d2fd46c836a06233681665,64dc7d767fbf6820418b8b30,,,,,,,decisionTrl,resources/DP.BMP,resources/DG.BMP,Door2,-0.17962963,-0.027777778,1,0,0,0.7125,optionLeft,40,1540,1,28,0,28,0,1,,,,,,,,,,,,,,,,,,,,,,,,,,,,,,,,,,,,,,,
,,,,,,,,2023-08-16_08h40.45.553,HF_wild_card,2022.2.4,Win32,59.99520038,62b055edf6ce67b0502628ed,64d2fd46c836a06233681665,64dc7d767fbf6820418b8b30,,,,,,,decisionTrl,resources/DBN.BMP,resources/DY.BMP,Door4,-0.225925926,-0.037037037,1,0,0,0.846,optionLeft,60,1600,1,29,0,29,0,1,,,,,,,,,,,,,,,,,,,,,,,,,,,,,,,,,,,,,,,
,,,,,,,,2023-08-16_08h40.45.553,HF_wild_card,2022.2.4,Win32,59.99520038,62b055edf6ce67b0502628ed,64d2fd46c836a06233681665,64dc7d767fbf6820418b8b30,,,,,,,ctch,resources/DP.BMP,resources/DR.BMP,Door3,0.280555556,0.025,1,0,0,0.5122,optionRight,70,1670,1,30,0,30,0,1,,,,,,,,,,,,,,,,,,,,,,,,,,,,,,,,,,,,,,,
,,,,,,,,2023-08-16_08h40.45.553,HF_wild_card,2022.2.4,Win32,59.99520038,62b055edf6ce67b0502628ed,64d2fd46c836a06233681665,64dc7d767fbf6820418b8b30,,,,,,,ctch,resources/DG.BMP,resources/DBN.BMP,Door4,0.27037037,0.019444444,1,0,0,0.7283,optionRight,80,1750,1,31,0,31,0,1,,,,,,,,,,,,,,,,,,,,,,,,,,,,,,,,,,,,,,,
,,,,,,,,2023-08-16_08h40.45.553,HF_wild_card,2022.2.4,Win32,59.99520038,62b055edf6ce67b0502628ed,64d2fd46c836a06233681665,64dc7d767fbf6820418b8b30,,,,,,,ctch,resources/DBN.BMP,resources/DG.BMP,Door4,-0.343518519,-0.072222222,1,0,0,0.4622,optionLeft,80,1830,1,32,0,32,0,1,,,,,,,,,,,,,,,,,,,,,,,,,,,,,,,,,,,,,,,
,,,,,,,,2023-08-16_08h40.45.553,HF_wild_card,2022.2.4,Win32,59.99520038,62b055edf6ce67b0502628ed,64d2fd46c836a06233681665,64dc7d767fbf6820418b8b30,,,,,,,sngl,resources/DP.BMP,resources/Empty.png,Door2,-0.130555556,-0.041666667,1,0,0,0.7124,optionLeft,40,1870,1,33,0,33,0,1,,,,,,,,,,,,,,,,,,,,,,,,,,,,,,,,,,,,,,,
,,,,,,,,2023-08-16_08h40.45.553,HF_wild_card,2022.2.4,Win32,59.99520038,62b055edf6ce67b0502628ed,64d2fd46c836a06233681665,64dc7d767fbf6820418b8b30,,,,,,,sngl,resources/Empty.png,resources/DR.BMP,Door3,0.418518519,0.02037037,1,0,0,0.4621,optionRight,70,1940,1,34,0,34,0,1,,,,,,,,,,,,,,,,,,,,,,,,,,,,,,,,,,,,,,,
,,,,,,,,2023-08-16_08h40.45.553,HF_wild_card,2022.2.4,Win32,59.99520038,62b055edf6ce67b0502628ed,64d2fd46c836a06233681665,64dc7d767fbf6820418b8b30,,,,,,,decisionTrl,resources/DG.BMP,resources/DP.BMP,Door1,-0.171296296,-0.032407407,1,0,0,0.9291,optionLeft,30,1970,1,35,0,35,0,1,,,,,,,,,,,,,,,,,,,,,,,,,,,,,,,,,,,,,,,
,,,,,,,,2023-08-16_08h40.45.553,HF_wild_card,2022.2.4,Win32,59.99520038,62b055edf6ce67b0502628ed,64d2fd46c836a06233681665,64dc7d767fbf6820418b8b30,,,,,,,sngl,resources/DY.BMP,resources/Empty.png,WildCard_NonEx,-0.353703704,-0.071296296,1,0,0,0.4792,optionLeft,55,2025,1,36,0,36,0,1,,,,,,,,,,,,,,,,,,,,,,,,,,,,,,,,,,,,,,,
,,,,,,,,2023-08-16_08h40.45.553,HF_wild_card,2022.2.4,Win32,59.99520038,62b055edf6ce67b0502628ed,64d2fd46c836a06233681665,64dc7d767fbf6820418b8b30,,,,,,,decisionTrl,resources/DP.BMP,resources/DG.BMP,Door1,0.349074074,0.046296296,1,0,0,1.5132,optionRight,30,2055,1,37,0,37,0,1,,,,,,,,,,,,,,,,,,,,,,,,,,,,,,,,,,,,,,,
,,,,,,,,2023-08-16_08h40.45.553,HF_wild_card,2022.2.4,Win32,59.99520038,62b055edf6ce67b0502628ed,64d2fd46c836a06233681665,64dc7d767fbf6820418b8b30,,,,,,,decisionTrl,resources/DP.BMP,resources/DG.BMP,Door2,-0.460185185,-0.061111111,1,0,0,0.4953,optionLeft,20,2075,1,38,0,38,0,1,,,,,,,,,,,,,,,,,,,,,,,,,,,,,,,,,,,,,,,
,,,,,,,,2023-08-16_08h40.45.553,HF_wild_card,2022.2.4,Win32,59.99520038,62b055edf6ce67b0502628ed,64d2fd46c836a06233681665,64dc7d767fbf6820418b8b30,,,,,,,ctch,resources/DBN.BMP,resources/DG.BMP,Door4,-0.266666667,-0.010185185,1,0,0,0.8624,optionLeft,80,2155,1,39,0,39,0,1,,,,,,,,,,,,,,,,,,,,,,,,,,,,,,,,,,,,,,,
,,,,,,,,2023-08-16_08h40.45.553,HF_wild_card,2022.2.4,Win32,59.99520038,62b055edf6ce67b0502628ed,64d2fd46c836a06233681665,64dc7d767fbf6820418b8b30,,,,,,,sngl,resources/Empty.png,resources/DY.BMP,WildCard_NonEx,0.249074074,0.051851852,1,0,0,0.5314,optionRight,45,2200,1,40,0,40,0,1,,,,,,,,,,,,,,,,,,,,,,,,,,,,,,,,,,,,,,,
,,,,,,,,2023-08-16_08h40.45.553,HF_wild_card,2022.2.4,Win32,59.99520038,62b055edf6ce67b0502628ed,64d2fd46c836a06233681665,64dc7d767fbf6820418b8b30,,,,,,,decisionTrl,resources/DR.BMP,resources/DBN.BMP,Door4,0.334259259,0.025,1,0,0,0.9348,optionRight,80,2280,1,41,0,41,0,1,,,,,,,,,,,,,,,,,,,,,,,,,,,,,,,,,,,,,,,
,,,,,,,,2023-08-16_08h40.45.553,HF_wild_card,2022.2.4,Win32,59.99520038,62b055edf6ce67b0502628ed,64d2fd46c836a06233681665,64dc7d767fbf6820418b8b30,,,,,,,ctch,resources/DR.BMP,resources/DP.BMP,Door3,-0.282407407,-0.05,1,0,0,0.5956,optionLeft,70,2350,1,42,0,42,0,1,,,,,,,,,,,,,,,,,,,,,,,,,,,,,,,,,,,,,,,
,,,,,,,,2023-08-16_08h40.45.553,HF_wild_card,2022.2.4,Win32,59.99520038,62b055edf6ce67b0502628ed,64d2fd46c836a06233681665,64dc7d767fbf6820418b8b30,,,,,,,decisionTrl,resources/DY.BMP,resources/DG.BMP,WildCard_NonEx,-0.190740741,-0.02962963,1,0,0,0.5982,optionLeft,45,2395,1,43,0,43,0,1,,,,,,,,,,,,,,,,,,,,,,,,,,,,,,,,,,,,,,,
,,,,,,,,2023-08-16_08h40.45.553,HF_wild_card,2022.2.4,Win32,59.99520038,62b055edf6ce67b0502628ed,64d2fd46c836a06233681665,64dc7d767fbf6820418b8b30,,,,,,,,,,,,,,,,,,,,,,,,,,0,0,0,0,1,,,,,,,,,,,,,,,,,,,,,,,,,,,,,,,,,,
,,,,,,,,2023-08-16_08h40.45.553,HF_wild_card,2022.2.4,Win32,59.99520038,62b055edf6ce67b0502628ed,64d2fd46c836a06233681665,64dc7d767fbf6820418b8b30,,,,,,,sngl,resources/DBN.BMP,resources/Empty.png,Door4,-0.331481481,-0.066666667,1,0,0,1.2172,optionLeft,60,2455,2,0,0,0,0,1,,,,,,,,,,,,,,,,,,,,,,,,,,,,,,,,,,,,,,,
,,,,,,,,2023-08-16_08h40.45.553,HF_wild_card,2022.2.4,Win32,59.99520038,62b055edf6ce67b0502628ed,64d2fd46c836a06233681665,64dc7d767fbf6820418b8b30,,,,,,,sngl,resources/Empty.png,resources/DR.BMP,Door3,0.362962963,0.018518519,1,0,0,0.5294,optionRight,70,2525,2,1,0,1,0,1,,,,,,,,,,,,,,,,,,,,,,,,,,,,,,,,,,,,,,,
,,,,,,,,2023-08-16_08h40.45.553,HF_wild_card,2022.2.4,Win32,59.99520038,62b055edf6ce67b0502628ed,64d2fd46c836a06233681665,64dc7d767fbf6820418b8b30,,,,,,,sngl,resources/DG.BMP,resources/Empty.png,Door1,-0.181481481,-0.030555556,1,0,0,0.4625,optionLeft,30,2555,2,2,0,2,0,1,,,,,,,,,,,,,,,,,,,,,,,,,,,,,,,,,,,,,,,
,,,,,,,,2023-08-16_08h40.45.553,HF_wild_card,2022.2.4,Win32,59.99520038,62b055edf6ce67b0502628ed,64d2fd46c836a06233681665,64dc7d767fbf6820418b8b30,,,,,,,decisionTrl,resources/DR.BMP,resources/DBN.BMP,Door4,0.425925926,0.037037037,1,0,0,0.6617,optionRight,80,2635,2,3,0,3,0,1,,,,,,,,,,,,,,,,,,,,,,,,,,,,,,,,,,,,,,,
,,,,,,,,2023-08-16_08h40.45.553,HF_wild_card,2022.2.4,Win32,59.99520038,62b055edf6ce67b0502628ed,64d2fd46c836a06233681665,64dc7d767fbf6820418b8b30,,,,,,,decisionTrl,resources/DY.BMP,resources/DG.BMP,WildCard_NonEx,-0.161111111,-0.013888889,1,0,0,0.6953,optionLeft,45,2680,2,4,0,4,0,1,,,,,,,,,,,,,,,,,,,,,,,,,,,,,,,,,,,,,,,
,,,,,,,,2023-08-16_08h40.45.553,HF_wild_card,2022.2.4,Win32,59.99520038,62b055edf6ce67b0502628ed,64d2fd46c836a06233681665,64dc7d767fbf6820418b8b30,,,,,,,decisionTrl,resources/DY.BMP,resources/DBN.BMP,Door4,0.10462963,0.008333333,1,0,0,0.7291,optionRight,80,2760,2,5,0,5,0,1,,,,,,,,,,,,,,,,,,,,,,,,,,,,,,,,,,,,,,,
,,,,,,,,2023-08-16_08h40.45.553,HF_wild_card,2022.2.4,Win32,59.99520038,62b055edf6ce67b0502628ed,64d2fd46c836a06233681665,64dc7d767fbf6820418b8b30,,,,,,,decisionTrl,resources/DR.BMP,resources/DBN.BMP,Door4,0.189814815,0.017592593,1,0,0,0.5793,optionRight,60,2820,2,6,0,6,0,1,,,,,,,,,,,,,,,,,,,,,,,,,,,,,,,,,,,,,,,
,,,,,,,,2023-08-16_08h40.45.553,HF_wild_card,2022.2.4,Win32,59.99520038,62b055edf6ce67b0502628ed,64d2fd46c836a06233681665,64dc7d767fbf6820418b8b30,,,,,,,decisionTrl,resources/DR.BMP,resources/DY.BMP,Door3,-0.132407407,0.000925926,1,0,0,0.6293,optionLeft,70,2890,2,7,0,7,0,1,,,,,,,,,,,,,,,,,,,,,,,,,,,,,,,,,,,,,,,
,,,,,,,,2023-08-16_08h40.45.553,HF_wild_card,2022.2.4,Win32,59.99520038,62b055edf6ce67b0502628ed,64d2fd46c836a06233681665,64dc7d767fbf6820418b8b30,,,,,,,decisionTrl,resources/DP.BMP,resources/DG.BMP,Door2,-0.178703704,-0.026851852,1,0,0,0.912,optionLeft,40,2930,2,8,0,8,0,1,,,,,,,,,,,,,,,,,,,,,,,,,,,,,,,,,,,,,,,
,,,,,,,,2023-08-16_08h40.45.553,HF_wild_card,2022.2.4,Win32,59.99520038,62b055edf6ce67b0502628ed,64d2fd46c836a06233681665,64dc7d767fbf6820418b8b30,,,,,,,decisionTrl,resources/DP.BMP,resources/DG.BMP,Door2,-0.165740741,-0.02037037,1,0,0,0.6126,optionLeft,20,2950,2,9,0,9,0,1,,,,,,,,,,,,,,,,,,,,,,,,,,,,,,,,,,,,,,,
,,,,,,,,2023-08-16_08h40.45.553,HF_wild_card,2022.2.4,Win32,59.99520038,62b055edf6ce67b0502628ed,64d2fd46c836a06233681665,64dc7d767fbf6820418b8b30,,,,,,,ctch,resources/DG.BMP,resources/DBN.BMP,Door4,0.187037037,0.012962963,1,0,0,0.6126,optionRight,80,3030,2,10,0,10,0,1,,,,,,,,,,,,,,,,,,,,,,,,,,,,,,,,,,,,,,,
,,,,,,,,2023-08-16_08h40.45.553,HF_wild_card,2022.2.4,Win32,59.99520038,62b055edf6ce67b0502628ed,64d2fd46c836a06233681665,64dc7d767fbf6820418b8b30,,,,,,,decisionTrl,resources/DP.BMP,resources/DG.BMP,Door1,0.183333333,0.00462963,1,0,0,0.7294,optionRight,30,3060,2,11,0,11,0,1,,,,,,,,,,,,,,,,,,,,,,,,,,,,,,,,,,,,,,,
,,,,,,,,2023-08-16_08h40.45.553,HF_wild_card,2022.2.4,Win32,59.99520038,62b055edf6ce67b0502628ed,64d2fd46c836a06233681665,64dc7d767fbf6820418b8b30,,,,,,,decisionTrl,resources/DG.BMP,resources/DP.BMP,Door2,0.127777778,0.014814815,1,0,0,0.7297,optionRight,20,3080,2,12,0,12,0,1,,,,,,,,,,,,,,,,,,,,,,,,,,,,,,,,,,,,,,,
,,,,,,,,2023-08-16_08h40.45.553,HF_wild_card,2022.2.4,Win32,59.99520038,62b055edf6ce67b0502628ed,64d2fd46c836a06233681665,64dc7d767fbf6820418b8b30,,,,,,,ctch,resources/DBN.BMP,resources/DG.BMP,Door4,-0.264814815,-0.037037037,1,0,0,0.5793,optionLeft,80,3160,2,13,0,13,0,1,,,,,,,,,,,,,,,,,,,,,,,,,,,,,,,,,,,,,,,
,,,,,,,,2023-08-16_08h40.45.553,HF_wild_card,2022.2.4,Win32,59.99520038,62b055edf6ce67b0502628ed,64d2fd46c836a06233681665,64dc7d767fbf6820418b8b30,,,,,,,sngl,resources/Empty.png,resources/DP.BMP,Door2,0.24537037,0.015740741,1,0,0,0.6631,optionRight,40,3200,2,14,0,14,0,1,,,,,,,,,,,,,,,,,,,,,,,,,,,,,,,,,,,,,,,
,,,,,,,,2023-08-16_08h40.45.553,HF_wild_card,2022.2.4,Win32,59.99520038,62b055edf6ce67b0502628ed,64d2fd46c836a06233681665,64dc7d767fbf6820418b8b30,,,,,,,decisionTrl,resources/DBN.BMP,resources/DR.BMP,Door4,-0.188888889,-0.033333333,1,0,0,0.5793,optionLeft,60,3260,2,15,0,15,0,1,,,,,,,,,,,,,,,,,,,,,,,,,,,,,,,,,,,,,,,
,,,,,,,,2023-08-16_08h40.45.553,HF_wild_card,2022.2.4,Win32,59.99520038,62b055edf6ce67b0502628ed,64d2fd46c836a06233681665,64dc7d767fbf6820418b8b30,,,,,,,decisionTrl,resources/DBN.BMP,resources/DY.BMP,Door4,-0.212962963,-0.043518519,1,0,0,0.4792,optionLeft,80,3340,2,16,0,16,0,1,,,,,,,,,,,,,,,,,,,,,,,,,,,,,,,,,,,,,,,
,,,,,,,,2023-08-16_08h40.45.553,HF_wild_card,2022.2.4,Win32,59.99520038,62b055edf6ce67b0502628ed,64d2fd46c836a06233681665,64dc7d767fbf6820418b8b30,,,,,,,sngl,resources/DY.BMP,resources/Empty.png,WildCard_NonEx,-0.344444444,-0.05,1,0,0,0.6965,optionLeft,45,3385,2,17,0,17,0,1,,,,,,,,,,,,,,,,,,,,,,,,,,,,,,,,,,,,,,,
,,,,,,,,2023-08-16_08h40.45.553,HF_wild_card,2022.2.4,Win32,59.99520038,62b055edf6ce67b0502628ed,64d2fd46c836a06233681665,64dc7d767fbf6820418b8b30,,,,,,,ctch,resources/DG.BMP,resources/DBN.BMP,Door4,0.117592593,0.012037037,1,0,0,0.4788,optionRight,60,3445,2,18,0,18,0,1,,,,,,,,,,,,,,,,,,,,,,,,,,,,,,,,,,,,,,,
,,,,,,,,2023-08-16_08h40.45.553,HF_wild_card,2022.2.4,Win32,59.99520038,62b055edf6ce67b0502628ed,64d2fd46c836a06233681665,64dc7d767fbf6820418b8b30,,,,,,,decisionTrl,resources/DY.BMP,resources/DR.BMP,Door3,0.17962963,0.017592593,1,0,0,0.6122,optionRight,70,3515,2,19,0,19,0,1,,,,,,,,,,,,,,,,,,,,,,,,,,,,,,,,,,,,,,,
,,,,,,,,2023-08-16_08h40.45.553,HF_wild_card,2022.2.4,Win32,59.99520038,62b055edf6ce67b0502628ed,64d2fd46c836a06233681665,64dc7d767fbf6820418b8b30,,,,,,,ctch,resources/DBN.BMP,resources/DG.BMP,Door4,-0.210185185,-0.036111111,1,0,0,0.5125,optionLeft,60,3575,2,20,0,20,0,1,,,,,,,,,,,,,,,,,,,,,,,,,,,,,,,,,,,,,,,
,,,,,,,,2023-08-16_08h40.45.553,HF_wild_card,2022.2.4,Win32,59.99520038,62b055edf6ce67b0502628ed,64d2fd46c836a06233681665,64dc7d767fbf6820418b8b30,,,,,,,sngl,resources/DR.BMP,resources/Empty.png,Door3,-0.271296296,-0.033333333,1,0,0,0.4793,optionLeft,70,3645,2,21,0,21,0,1,,,,,,,,,,,,,,,,,,,,,,,,,,,,,,,,,,,,,,,
,,,,,,,,2023-08-16_08h40.45.553,HF_wild_card,2022.2.4,Win32,59.99520038,62b055edf6ce67b0502628ed,64d2fd46c836a06233681665,64dc7d767fbf6820418b8b30,,,,,,,decisionTrl,resources/DG.BMP,resources/DP.BMP,Door1,-0.156481481,-0.00462963,1,0,0,0.8134,optionLeft,30,3675,2,22,0,22,0,1,,,,,,,,,,,,,,,,,,,,,,,,,,,,,,,,,,,,,,,
,,,,,,,,2023-08-16_08h40.45.553,HF_wild_card,2022.2.4,Win32,59.99520038,62b055edf6ce67b0502628ed,64d2fd46c836a06233681665,64dc7d767fbf6820418b8b30,,,,,,,decisionTrl,resources/DG.BMP,resources/DP.BMP,Door2,0.256481481,0.014814815,1,0,0,0.5295,optionRight,20,3695,2,23,0,23,0,1,,,,,,,,,,,,,,,,,,,,,,,,,,,,,,,,,,,,,,,
,,,,,,,,2023-08-16_08h40.45.553,HF_wild_card,2022.2.4,Win32,59.99520038,62b055edf6ce67b0502628ed,64d2fd46c836a06233681665,64dc7d767fbf6820418b8b30,,,,,,,decisionTrl,resources/DR.BMP,resources/DBN.BMP,Door3,-0.185185185,-0.037962963,1,0,0,0.4124,optionLeft,70,3765,2,24,0,24,0,1,,,,,,,,,,,,,,,,,,,,,,,,,,,,,,,,,,,,,,,
,,,,,,,,2023-08-16_08h40.45.553,HF_wild_card,2022.2.4,Win32,59.99520038,62b055edf6ce67b0502628ed,64d2fd46c836a06233681665,64dc7d767fbf6820418b8b30,,,,,,,decisionTrl,resources/DBN.BMP,resources/DR.BMP,Door4,-0.19537037,-0.038888889,1,0,0,0.4625,optionLeft,60,3825,2,25,0,25,0,1,,,,,,,,,,,,,,,,,,,,,,,,,,,,,,,,,,,,,,,
,,,,,,,,2023-08-16_08h40.45.553,HF_wild_card,2022.2.4,Win32,59.99520038,62b055edf6ce67b0502628ed,64d2fd46c836a06233681665,64dc7d767fbf6820418b8b30,,,,,,,ctch,resources/DR.BMP,resources/DP.BMP,Door3,-0.156481481,-0.030555556,1,0,0,0.4459,optionLeft,70,3895,2,26,0,26,0,1,,,,,,,,,,,,,,,,,,,,,,,,,,,,,,,,,,,,,,,
,,,,,,,,2023-08-16_08h40.45.553,HF_wild_card,2022.2.4,Win32,59.99520038,62b055edf6ce67b0502628ed,64d2fd46c836a06233681665,64dc7d767fbf6820418b8b30,,,,,,,decisionTrl,resources/DP.BMP,resources/DG.BMP,Door1,0.186111111,0.016666667,1,0,0,0.7121,optionRight,30,3925,2,27,0,27,0,1,,,,,,,,,,,,,,,,,,,,,,,,,,,,,,,,,,,,,,,
,,,,,,,,2023-08-16_08h40.45.553,HF_wild_card,2022.2.4,Win32,59.99520038,62b055edf6ce67b0502628ed,64d2fd46c836a06233681665,64dc7d767fbf6820418b8b30,,,,,,,ctch,resources/DP.BMP,resources/DR.BMP,Door3,0.131481481,0.014814815,1,0,0,0.646,optionRight,70,3995,2,28,0,28,0,1,,,,,,,,,,,,,,,,,,,,,,,,,,,,,,,,,,,,,,,
,,,,,,,,2023-08-16_08h40.45.553,HF_wild_card,2022.2.4,Win32,59.99520038,62b055edf6ce67b0502628ed,64d2fd46c836a06233681665,64dc7d767fbf6820418b8b30,,,,,,,decisionTrl,resources/DR.BMP,resources/DBN.BMP,Door4,0.133333333,0.018518519,1,0,0,0.8119,optionRight,80,4075,2,29,0,29,0,1,,,,,,,,,,,,,,,,,,,,,,,,,,,,,,,,,,,,,,,
,,,,,,,,2023-08-16_08h40.45.553,HF_wild_card,2022.2.4,Win32,59.99520038,62b055edf6ce67b0502628ed,64d2fd46c836a06233681665,64dc7d767fbf6820418b8b30,,,,,,,decisionTrl,resources/DY.BMP,resources/DP.BMP,WildCard_NonEx,-0.237962963,-0.028703704,1,0,0,0.6627,optionLeft,45,4120,2,30,0,30,0,1,,,,,,,,,,,,,,,,,,,,,,,,,,,,,,,,,,,,,,,
,,,,,,,,2023-08-16_08h40.45.553,HF_wild_card,2022.2.4,Win32,59.99520038,62b055edf6ce67b0502628ed,64d2fd46c836a06233681665,64dc7d767fbf6820418b8b30,,,,,,,ctch,resources/DP.BMP,resources/DR.BMP,Door3,0.203703704,0.024074074,1,0,0,0.5461,optionRight,70,4190,2,31,0,31,0,1,,,,,,,,,,,,,,,,,,,,,,,,,,,,,,,,,,,,,,,
,,,,,,,,2023-08-16_08h40.45.553,HF_wild_card,2022.2.4,Win32,59.99520038,62b055edf6ce67b0502628ed,64d2fd46c836a06233681665,64dc7d767fbf6820418b8b30,,,,,,,sngl,resources/Empty.png,resources/DY.BMP,WildCard_NonEx,0.265740741,0.025,1,0,0,0.6962,optionRight,45,4235,2,32,0,32,0,1,,,,,,,,,,,,,,,,,,,,,,,,,,,,,,,,,,,,,,,
,,,,,,,,2023-08-16_08h40.45.553,HF_wild_card,2022.2.4,Win32,59.99520038,62b055edf6ce67b0502628ed,64d2fd46c836a06233681665,64dc7d767fbf6820418b8b30,,,,,,,decisionTrl,resources/DP.BMP,resources/DY.BMP,WildCard_NonEx,0.164814815,0.019444444,1,0,0,0.5465,optionRight,45,4280,2,33,0,33,0,1,,,,,,,,,,,,,,,,,,,,,,,,,,,,,,,,,,,,,,,
,,,,,,,,2023-08-16_08h40.45.553,HF_wild_card,2022.2.4,Win32,59.99520038,62b055edf6ce67b0502628ed,64d2fd46c836a06233681665,64dc7d767fbf6820418b8b30,,,,,,,decisionTrl,resources/DBN.BMP,resources/DR.BMP,Door3,0.25,0.028703704,1,0,0,0.5129,optionRight,70,4350,2,34,0,34,0,1,,,,,,,,,,,,,,,,,,,,,,,,,,,,,,,,,,,,,,,
,,,,,,,,2023-08-16_08h40.45.553,HF_wild_card,2022.2.4,Win32,59.99520038,62b055edf6ce67b0502628ed,64d2fd46c836a06233681665,64dc7d767fbf6820418b8b30,,,,,,,sngl,resources/DY.BMP,resources/Empty.png,WildCard_NonEx,-0.256481481,-0.042592593,1,0,0,0.4628,optionLeft,55,4405,2,35,0,35,0,1,,,,,,,,,,,,,,,,,,,,,,,,,,,,,,,,,,,,,,,
,,,,,,,,2023-08-16_08h40.45.553,HF_wild_card,2022.2.4,Win32,59.99520038,62b055edf6ce67b0502628ed,64d2fd46c836a06233681665,64dc7d767fbf6820418b8b30,,,,,,,sngl,resources/Empty.png,resources/DG.BMP,Door1,0.269444444,0.019444444,1,0,0,0.446,optionRight,30,4435,2,36,0,36,0,1,,,,,,,,,,,,,,,,,,,,,,,,,,,,,,,,,,,,,,,
,,,,,,,,2023-08-16_08h40.45.553,HF_wild_card,2022.2.4,Win32,59.99520038,62b055edf6ce67b0502628ed,64d2fd46c836a06233681665,64dc7d767fbf6820418b8b30,,,,,,,ctch,resources/DR.BMP,resources/DP.BMP,Door3,-0.297222222,-0.05,1,0,0,0.43,optionLeft,70,4505,2,37,0,37,0,1,,,,,,,,,,,,,,,,,,,,,,,,,,,,,,,,,,,,,,,
,,,,,,,,2023-08-16_08h40.45.553,HF_wild_card,2022.2.4,Win32,59.99520038,62b055edf6ce67b0502628ed,64d2fd46c836a06233681665,64dc7d767fbf6820418b8b30,,,,,,,decisionTrl,resources/DBN.BMP,resources/DR.BMP,Door4,-0.182407407,-0.019444444,1,0,0,0.7624,optionLeft,60,4565,2,38,0,38,0,1,,,,,,,,,,,,,,,,,,,,,,,,,,,,,,,,,,,,,,,
,,,,,,,,2023-08-16_08h40.45.553,HF_wild_card,2022.2.4,Win32,59.99520038,62b055edf6ce67b0502628ed,64d2fd46c836a06233681665,64dc7d767fbf6820418b8b30,,,,,,,decisionTrl,resources/DG.BMP,resources/DY.BMP,Door1,-0.149074074,-0.035185185,1,0,0,0.6631,optionLeft,30,4595,2,39,0,39,0,1,,,,,,,,,,,,,,,,,,,,,,,,,,,,,,,,,,,,,,,
,,,,,,,,2023-08-16_08h40.45.553,HF_wild_card,2022.2.4,Win32,59.99520038,62b055edf6ce67b0502628ed,64d2fd46c836a06233681665,64dc7d767fbf6820418b8b30,,,,,,,decisionTrl,resources/DG.BMP,resources/DP.BMP,Door1,-0.206481481,-0.037037037,1,0,0,0.479,optionLeft,30,4625,2,40,0,40,0,1,,,,,,,,,,,,,,,,,,,,,,,,,,,,,,,,,,,,,,,
,,,,,,,,2023-08-16_08h40.45.553,HF_wild_card,2022.2.4,Win32,59.99520038,62b055edf6ce67b0502628ed,64d2fd46c836a06233681665,64dc7d767fbf6820418b8b30,,,,,,,sngl,resources/Empty.png,resources/DY.BMP,WildCard_NonEx,0.266666667,0.022222222,1,0,0,0.446,optionRight,55,4680,2,41,0,41,0,1,,,,,,,,,,,,,,,,,,,,,,,,,,,,,,,,,,,,,,,
,,,,,,,,2023-08-16_08h40.45.553,HF_wild_card,2022.2.4,Win32,59.99520038,62b055edf6ce67b0502628ed,64d2fd46c836a06233681665,64dc7d767fbf6820418b8b30,,,,,,,sngl,resources/DP.BMP,resources/Empty.png,Door2,-0.14537037,-0.018518519,1,0,0,0.5129,optionLeft,20,4700,2,42,0,42,0,1,,,,,,,,,,,,,,,,,,,,,,,,,,,,,,,,,,,,,,,
,,,,,,,,2023-08-16_08h40.45.553,HF_wild_card,2022.2.4,Win32,59.99520038,62b055edf6ce67b0502628ed,64d2fd46c836a06233681665,64dc7d767fbf6820418b8b30,,,,,,,sngl,resources/Empty.png,resources/DBN.BMP,Door4,0.287037037,0.02037037,1,0,0,0.5122,optionRight,80,4780,2,43,0,43,0,1,,,,,,,,,,,,,,,,,,,,,,,,,,,,,,,,,,,,,,,
,,,,,,,,2023-08-16_08h40.45.553,HF_wild_card,2022.2.4,Win32,59.99520038,62b055edf6ce67b0502628ed,64d2fd46c836a06233681665,64dc7d767fbf6820418b8b30,,,,,,,,,,,,,,,,,,,,,,,,,,1,0,1,0,1,,,,,,,,,,,,,,,,,,,,,,,,,,,,,,,,,,
,,,,,,,,2023-08-16_08h40.45.553,HF_wild_card,2022.2.4,Win32,59.99520038,62b055edf6ce67b0502628ed,64d2fd46c836a06233681665,64dc7d767fbf6820418b8b30,,,,,,,sngl,resources/Empty.png,resources/DP.BMP,Door2,0.135185185,-0.062037037,1,0,0,0.6515,optionRight,20,4800,3,0,0,0,0,1,,,,,,,,,,,,,,,,,,,,,,,,,,,,,,,,,,,,,,,
,,,,,,,,2023-08-16_08h40.45.553,HF_wild_card,2022.2.4,Win32,59.99520038,62b055edf6ce67b0502628ed,64d2fd46c836a06233681665,64dc7d767fbf6820418b8b30,,,,,,,decisionTrl,resources/DG.BMP,resources/DP.BMP,Door2,0.146296296,0.035185185,1,0,0,0.7463,optionRight,40,4840,3,1,0,1,0,1,,,,,,,,,,,,,,,,,,,,,,,,,,,,,,,,,,,,,,,
,,,,,,,,2023-08-16_08h40.45.553,HF_wild_card,2022.2.4,Win32,59.99520038,62b055edf6ce67b0502628ed,64d2fd46c836a06233681665,64dc7d767fbf6820418b8b30,,,,,,,ctch,resources/DBN.BMP,resources/DG.BMP,Door4,-0.25462963,-0.035185185,1,0,0,0.5112,optionLeft,80,4920,3,2,0,2,0,1,,,,,,,,,,,,,,,,,,,,,,,,,,,,,,,,,,,,,,,
,,,,,,,,2023-08-16_08h40.45.553,HF_wild_card,2022.2.4,Win32,59.99520038,62b055edf6ce67b0502628ed,64d2fd46c836a06233681665,64dc7d767fbf6820418b8b30,,,,,,,decisionTrl,resources/DR.BMP,resources/DY.BMP,Door3,-0.155555556,-0.022222222,1,0,0,0.5459,optionLeft,70,4990,3,3,0,3,0,1,,,,,,,,,,,,,,,,,,,,,,,,,,,,,,,,,,,,,,,
,,,,,,,,2023-08-16_08h40.45.553,HF_wild_card,2022.2.4,Win32,59.99520038,62b055edf6ce67b0502628ed,64d2fd46c836a06233681665,64dc7d767fbf6820418b8b30,,,,,,,sngl,resources/DY.BMP,resources/Empty.png,WildCard_NonEx,-0.260185185,-0.046296296,1,0,0,0.413,optionLeft,45,5035,3,4,0,4,0,1,,,,,,,,,,,,,,,,,,,,,,,,,,,,,,,,,,,,,,,
,,,,,,,,2023-08-16_08h40.45.553,HF_wild_card,2022.2.4,Win32,59.99520038,62b055edf6ce67b0502628ed,64d2fd46c836a06233681665,64dc7d767fbf6820418b8b30,,,,,,,sngl,resources/DR.BMP,resources/Empty.png,Door3,-0.267592593,-0.036111111,1,0,0,0.379,optionLeft,70,5105,3,5,0,5,0,1,,,,,,,,,,,,,,,,,,,,,,,,,,,,,,,,,,,,,,,
,,,,,,,,2023-08-16_08h40.45.553,HF_wild_card,2022.2.4,Win32,59.99520038,62b055edf6ce67b0502628ed,64d2fd46c836a06233681665,64dc7d767fbf6820418b8b30,,,,,,,decisionTrl,resources/DBN.BMP,resources/DR.BMP,Door4,-0.32962963,-0.022222222,1,0,0,0.7127,optionLeft,60,5165,3,6,0,6,0,1,,,,,,,,,,,,,,,,,,,,,,,,,,,,,,,,,,,,,,,
,,,,,,,,2023-08-16_08h40.45.553,HF_wild_card,2022.2.4,Win32,59.99520038,62b055edf6ce67b0502628ed,64d2fd46c836a06233681665,64dc7d767fbf6820418b8b30,,,,,,,sngl,resources/Empty.png,resources/DR.BMP,Door3,0.317592593,0.037962963,1,0,0,0.3961,optionRight,70,5235,3,7,0,7,0,1,,,,,,,,,,,,,,,,,,,,,,,,,,,,,,,,,,,,,,,
,,,,,,,,2023-08-16_08h40.45.553,HF_wild_card,2022.2.4,Win32,59.99520038,62b055edf6ce67b0502628ed,64d2fd46c836a06233681665,64dc7d767fbf6820418b8b30,,,,,,,decisionTrl,resources/DP.BMP,resources/DG.BMP,Door2,-0.209259259,-0.012037037,1,0,0,1.0631,optionLeft,40,5275,3,8,0,8,0,1,,,,,,,,,,,,,,,,,,,,,,,,,,,,,,,,,,,,,,,
,,,,,,,,2023-08-16_08h40.45.553,HF_wild_card,2022.2.4,Win32,59.99520038,62b055edf6ce67b0502628ed,64d2fd46c836a06233681665,64dc7d767fbf6820418b8b30,,,,,,,sngl,resources/Empty.png,resources/DY.BMP,WildCard_NonEx,0.175925926,0.044444444,1,0,0,0.4632,optionRight,55,5330,3,9,0,9,0,1,,,,,,,,,,,,,,,,,,,,,,,,,,,,,,,,,,,,,,,
,,,,,,,,2023-08-16_08h40.45.553,HF_wild_card,2022.2.4,Win32,59.99520038,62b055edf6ce67b0502628ed,64d2fd46c836a06233681665,64dc7d767fbf6820418b8b30,,,,,,,decisionTrl,resources/DBN.BMP,resources/DY.BMP,Door4,-0.15462963,-0.02037037,1,0,0,0.6285,optionLeft,60,5390,3,10,0,10,0,1,,,,,,,,,,,,,,,,,,,,,,,,,,,,,,,,,,,,,,,
,,,,,,,,2023-08-16_08h40.45.553,HF_wild_card,2022.2.4,Win32,59.99520038,62b055edf6ce67b0502628ed,64d2fd46c836a06233681665,64dc7d767fbf6820418b8b30,,,,,,,ctch,resources/DBN.BMP,resources/DG.BMP,Door4,-0.118518519,-0.00462963,1,0,0,0.5459,optionLeft,60,5450,3,11,0,11,0,1,,,,,,,,,,,,,,,,,,,,,,,,,,,,,,,,,,,,,,,
,,,,,,,,2023-08-16_08h40.45.553,HF_wild_card,2022.2.4,Win32,59.99520038,62b055edf6ce67b0502628ed,64d2fd46c836a06233681665,64dc7d767fbf6820418b8b30,,,,,,,decisionTrl,resources/DR.BMP,resources/DBN.BMP,Door4,0.359259259,0.034259259,1,0,0,0.7128,optionRight,60,5510,3,12,0,12,0,1,,,,,,,,,,,,,,,,,,,,,,,,,,,,,,,,,,,,,,,
,,,,,,,,2023-08-16_08h40.45.553,HF_wild_card,2022.2.4,Win32,59.99520038,62b055edf6ce67b0502628ed,64d2fd46c836a06233681665,64dc7d767fbf6820418b8b30,,,,,,,ctch,resources/DR.BMP,resources/DP.BMP,Door3,-0.252777778,-0.044444444,1,0,0,0.396,optionLeft,70,5580,3,13,0,13,0,1,,,,,,,,,,,,,,,,,,,,,,,,,,,,,,,,,,,,,,,
,,,,,,,,2023-08-16_08h40.45.553,HF_wild_card,2022.2.4,Win32,59.99520038,62b055edf6ce67b0502628ed,64d2fd46c836a06233681665,64dc7d767fbf6820418b8b30,,,,,,,decisionTrl,resources/DY.BMP,resources/DBN.BMP,Door4,0.169444444,0.031481481,1,0,0,0.4949,optionRight,80,5660,3,14,0,14,0,1,,,,,,,,,,,,,,,,,,,,,,,,,,,,,,,,,,,,,,,
,,,,,,,,2023-08-16_08h40.45.553,HF_wild_card,2022.2.4,Win32,59.99520038,62b055edf6ce67b0502628ed,64d2fd46c836a06233681665,64dc7d767fbf6820418b8b30,,,,,,,decisionTrl,resources/DP.BMP,resources/DG.BMP,Door2,-0.156481481,-0.012962963,1,0,0,1.2799,optionLeft,40,5700,3,15,0,15,0,1,,,,,,,,,,,,,,,,,,,,,,,,,,,,,,,,,,,,,,,
,,,,,,,,2023-08-16_08h40.45.553,HF_wild_card,2022.2.4,Win32,59.99520038,62b055edf6ce67b0502628ed,64d2fd46c836a06233681665,64dc7d767fbf6820418b8b30,,,,,,,ctch,resources/DP.BMP,resources/DR.BMP,Door3,0.211111111,0.018518519,1,0,0,0.5793,optionRight,70,5770,3,16,0,16,0,1,,,,,,,,,,,,,,,,,,,,,,,,,,,,,,,,,,,,,,,
,,,,,,,,2023-08-16_08h40.45.553,HF_wild_card,2022.2.4,Win32,59.99520038,62b055edf6ce67b0502628ed,64d2fd46c836a06233681665,64dc7d767fbf6820418b8b30,,,,,,,sngl,resources/DG.BMP,resources/Empty.png,Door1,-0.187962963,0.016666667,1,0,0,0.4639,optionLeft,30,5800,3,17,0,17,0,1,,,,,,,,,,,,,,,,,,,,,,,,,,,,,,,,,,,,,,,
,,,,,,,,2023-08-16_08h40.45.553,HF_wild_card,2022.2.4,Win32,59.99520038,62b055edf6ce67b0502628ed,64d2fd46c836a06233681665,64dc7d767fbf6820418b8b30,,,,,,,ctch,resources/DG.BMP,resources/DBN.BMP,Door4,0.225,0.067592593,1,0,0,0.588,optionRight,80,5880,3,18,0,18,0,1,,,,,,,,,,,,,,,,,,,,,,,,,,,,,,,,,,,,,,,
,,,,,,,,2023-08-16_08h40.45.553,HF_wild_card,2022.2.4,Win32,59.99520038,62b055edf6ce67b0502628ed,64d2fd46c836a06233681665,64dc7d767fbf6820418b8b30,,,,,,,decisionTrl,resources/DG.BMP,resources/DP.BMP,Door1,-0.188888889,-0.021296296,1,0,0,0.7601,optionLeft,30,5910,3,19,0,19,0,1,,,,,,,,,,,,,,,,,,,,,,,,,,,,,,,,,,,,,,,
,,,,,,,,2023-08-16_08h40.45.553,HF_wild_card,2022.2.4,Win32,59.99520038,62b055edf6ce67b0502628ed,64d2fd46c836a06233681665,64dc7d767fbf6820418b8b30,,,,,,,decisionTrl,resources/DG.BMP,resources/DY.BMP,WildCard_NonEx,0.117592593,0,1,0,0,0.5274,optionRight,45,5955,3,20,0,20,0,1,,,,,,,,,,,,,,,,,,,,,,,,,,,,,,,,,,,,,,,
,,,,,,,,2023-08-16_08h40.45.553,HF_wild_card,2022.2.4,Win32,59.99520038,62b055edf6ce67b0502628ed,64d2fd46c836a06233681665,64dc7d767fbf6820418b8b30,,,,,,,sngl,resources/DP.BMP,resources/Empty.png,Door2,-0.313888889,-0.038888889,1,0,0,0.4808,optionLeft,40,5995,3,21,0,21,0,1,,,,,,,,,,,,,,,,,,,,,,,,,,,,,,,,,,,,,,,
,,,,,,,,2023-08-16_08h40.45.553,HF_wild_card,2022.2.4,Win32,59.99520038,62b055edf6ce67b0502628ed,64d2fd46c836a06233681665,64dc7d767fbf6820418b8b30,,,,,,,sngl,resources/Empty.png,resources/DG.BMP,Door1,0.274074074,0.015740741,1,0,0,0.452,optionRight,30,6025,3,22,0,22,0,1,,,,,,,,,,,,,,,,,,,,,,,,,,,,,,,,,,,,,,,
,,,,,,,,2023-08-16_08h40.45.553,HF_wild_card,2022.2.4,Win32,59.99520038,62b055edf6ce67b0502628ed,64d2fd46c836a06233681665,64dc7d767fbf6820418b8b30,,,,,,,decisionTrl,resources/DR.BMP,resources/DBN.BMP,Door3,-0.252777778,-0.028703704,1,0,0,0.4154,optionLeft,70,6095,3,23,0,23,0,1,,,,,,,,,,,,,,,,,,,,,,,,,,,,,,,,,,,,,,,
,,,,,,,,2023-08-16_08h40.45.553,HF_wild_card,2022.2.4,Win32,59.99520038,62b055edf6ce67b0502628ed,64d2fd46c836a06233681665,64dc7d767fbf6820418b8b30,,,,,,,decisionTrl,resources/DBN.BMP,resources/DR.BMP,Door4,-0.162037037,-0.019444444,1,0,0,0.4492,optionLeft,80,6175,3,24,0,24,0,1,,,,,,,,,,,,,,,,,,,,,,,,,,,,,,,,,,,,,,,
,,,,,,,,2023-08-16_08h40.45.553,HF_wild_card,2022.2.4,Win32,59.99520038,62b055edf6ce67b0502628ed,64d2fd46c836a06233681665,64dc7d767fbf6820418b8b30,,,,,,,decisionTrl,resources/DG.BMP,resources/DP.BMP,Door1,-0.292592593,-0.038888889,1,0,0,0.6482,optionLeft,30,6205,3,25,0,25,0,1,,,,,,,,,,,,,,,,,,,,,,,,,,,,,,,,,,,,,,,
,,,,,,,,2023-08-16_08h40.45.553,HF_wild_card,2022.2.4,Win32,59.99520038,62b055edf6ce67b0502628ed,64d2fd46c836a06233681665,64dc7d767fbf6820418b8b30,,,,,,,ctch,resources/DR.BMP,resources/DP.BMP,Door3,-0.177777778,-0.015740741,1,0,0,0.4994,optionLeft,70,6275,3,26,0,26,0,1,,,,,,,,,,,,,,,,,,,,,,,,,,,,,,,,,,,,,,,
,,,,,,,,2023-08-16_08h40.45.553,HF_wild_card,2022.2.4,Win32,59.99520038,62b055edf6ce67b0502628ed,64d2fd46c836a06233681665,64dc7d767fbf6820418b8b30,,,,,,,ctch,resources/DP.BMP,resources/DR.BMP,Door3,0.288888889,0.013888889,1,0,0,0.4144,optionRight,70,6345,3,27,0,27,0,1,,,,,,,,,,,,,,,,,,,,,,,,,,,,,,,,,,,,,,,
,,,,,,,,2023-08-16_08h40.45.553,HF_wild_card,2022.2.4,Win32,59.99520038,62b055edf6ce67b0502628ed,64d2fd46c836a06233681665,64dc7d767fbf6820418b8b30,,,,,,,decisionTrl,resources/DP.BMP,resources/DG.BMP,Door1,0.211111111,0.011111111,1,0,0,0.7768,optionRight,30,6375,3,28,0,28,0,1,,,,,,,,,,,,,,,,,,,,,,,,,,,,,,,,,,,,,,,
,,,,,,,,2023-08-16_08h40.45.553,HF_wild_card,2022.2.4,Win32,59.99520038,62b055edf6ce67b0502628ed,64d2fd46c836a06233681665,64dc7d767fbf6820418b8b30,,,,,,,decisionTrl,resources/DBN.BMP,resources/DR.BMP,Door4,-0.335185185,-0.006481481,1,0,0,0.6694,optionLeft,80,6455,3,29,0,29,0,1,,,,,,,,,,,,,,,,,,,,,,,,,,,,,,,,,,,,,,,
,,,,,,,,2023-08-16_08h40.45.553,HF_wild_card,2022.2.4,Win32,59.99520038,62b055edf6ce67b0502628ed,64d2fd46c836a06233681665,64dc7d767fbf6820418b8b30,,,,,,,decisionTrl,resources/DR.BMP,resources/DBN.BMP,Door4,0.223148148,0.02962963,1,0,0,0.7364,optionRight,80,6535,3,30,0,30,0,1,,,,,,,,,,,,,,,,,,,,,,,,,,,,,,,,,,,,,,,
,,,,,,,,2023-08-16_08h40.45.553,HF_wild_card,2022.2.4,Win32,59.99520038,62b055edf6ce67b0502628ed,64d2fd46c836a06233681665,64dc7d767fbf6820418b8b30,,,,,,,ctch,resources/DG.BMP,resources/DBN.BMP,Door4,0.248148148,0.013888889,1,0,0,0.4831,optionRight,60,6595,3,31,0,31,0,1,,,,,,,,,,,,,,,,,,,,,,,,,,,,,,,,,,,,,,,
,,,,,,,,2023-08-16_08h40.45.553,HF_wild_card,2022.2.4,Win32,59.99520038,62b055edf6ce67b0502628ed,64d2fd46c836a06233681665,64dc7d767fbf6820418b8b30,,,,,,,decisionTrl,resources/DY.BMP,resources/DG.BMP,WildCard_NonEx,-0.158333333,-0.026851852,1,0,0,0.6026,optionLeft,55,6650,3,32,0,32,0,1,,,,,,,,,,,,,,,,,,,,,,,,,,,,,,,,,,,,,,,
,,,,,,,,2023-08-16_08h40.45.553,HF_wild_card,2022.2.4,Win32,59.99520038,62b055edf6ce67b0502628ed,64d2fd46c836a06233681665,64dc7d767fbf6820418b8b30,,,,,,,decisionTrl,resources/DBN.BMP,resources/DR.BMP,Door3,0.202777778,0.001851852,1,0,0,1.0505,optionRight,70,6720,3,33,0,33,0,1,,,,,,,,,,,,,,,,,,,,,,,,,,,,,,,,,,,,,,,
,,,,,,,,2023-08-16_08h40.45.553,HF_wild_card,2022.2.4,Win32,59.99520038,62b055edf6ce67b0502628ed,64d2fd46c836a06233681665,64dc7d767fbf6820418b8b30,,,,,,,sngl,resources/DBN.BMP,resources/Empty.png,Door4,-0.306481481,-0.035185185,1,0,0,0.4499,optionLeft,80,6800,3,34,0,34,0,1,,,,,,,,,,,,,,,,,,,,,,,,,,,,,,,,,,,,,,,
,,,,,,,,2023-08-16_08h40.45.553,HF_wild_card,2022.2.4,Win32,59.99520038,62b055edf6ce67b0502628ed,64d2fd46c836a06233681665,64dc7d767fbf6820418b8b30,,,,,,,decisionTrl,resources/DP.BMP,resources/DG.BMP,Door2,-0.182407407,-0.026851852,1,0,0,0.7686,optionLeft,40,6840,3,35,0,35,0,1,,,,,,,,,,,,,,,,,,,,,,,,,,,,,,,,,,,,,,,
,,,,,,,,2023-08-16_08h40.45.553,HF_wild_card,2022.2.4,Win32,59.99520038,62b055edf6ce67b0502628ed,64d2fd46c836a06233681665,64dc7d767fbf6820418b8b30,,,,,,,decisionTrl,resources/DG.BMP,resources/DP.BMP,Door2,0.267592593,0.031481481,1,0,0,0.5831,optionRight,20,6860,3,36,0,36,0,1,,,,,,,,,,,,,,,,,,,,,,,,,,,,,,,,,,,,,,,
,,,,,,,,2023-08-16_08h40.45.553,HF_wild_card,2022.2.4,Win32,59.99520038,62b055edf6ce67b0502628ed,64d2fd46c836a06233681665,64dc7d767fbf6820418b8b30,,,,,,,decisionTrl,resources/DR.BMP,resources/DBN.BMP,Door4,0.236111111,0.023148148,1,0,0,0.649,optionRight,60,6920,3,37,0,37,0,1,,,,,,,,,,,,,,,,,,,,,,,,,,,,,,,,,,,,,,,
,,,,,,,,2023-08-16_08h40.45.553,HF_wild_card,2022.2.4,Win32,59.99520038,62b055edf6ce67b0502628ed,64d2fd46c836a06233681665,64dc7d767fbf6820418b8b30,,,,,,,decisionTrl,resources/DP.BMP,resources/DY.BMP,Door2,-0.223148148,-0.040740741,1,0,0,0.5825,optionLeft,20,6940,3,38,0,38,0,1,,,,,,,,,,,,,,,,,,,,,,,,,,,,,,,,,,,,,,,
,,,,,,,,2023-08-16_08h40.45.553,HF_wild_card,2022.2.4,Win32,59.99520038,62b055edf6ce67b0502628ed,64d2fd46c836a06233681665,64dc7d767fbf6820418b8b30,,,,,,,sngl,resources/Empty.png,resources/DY.BMP,WildCard_NonEx,0.284259259,0.025,1,0,0,0.4298,optionRight,45,6985,3,39,0,39,0,1,,,,,,,,,,,,,,,,,,,,,,,,,,,,,,,,,,,,,,,
,,,,,,,,2023-08-16_08h40.45.553,HF_wild_card,2022.2.4,Win32,59.99520038,62b055edf6ce67b0502628ed,64d2fd46c836a06233681665,64dc7d767fbf6820418b8b30,,,,,,,decisionTrl,resources/DY.BMP,resources/DR.BMP,WildCard_NonEx,-0.187962963,-0.025,1,0,0,0.4597,optionLeft,55,7040,3,40,0,40,0,1,,,,,,,,,,,,,,,,,,,,,,,,,,,,,,,,,,,,,,,
,,,,,,,,2023-08-16_08h40.45.553,HF_wild_card,2022.2.4,Win32,59.99520038,62b055edf6ce67b0502628ed,64d2fd46c836a06233681665,64dc7d767fbf6820418b8b30,,,,,,,sngl,resources/DY.BMP,resources/Empty.png,WildCard_NonEx,-0.216666667,-0.037962963,1,0,0,0.5041,optionLeft,55,7095,3,41,0,41,0,1,,,,,,,,,,,,,,,,,,,,,,,,,,,,,,,,,,,,,,,
,,,,,,,,2023-08-16_08h40.45.553,HF_wild_card,2022.2.4,Win32,59.99520038,62b055edf6ce67b0502628ed,64d2fd46c836a06233681665,64dc7d767fbf6820418b8b30,,,,,,,decisionTrl,resources/DY.BMP,resources/DP.BMP,WildCard_NonEx,-0.137962963,0.003703704,1,0,0,0.4928,optionLeft,55,7150,3,42,0,42,0,1,,,,,,,,,,,,,,,,,,,,,,,,,,,,,,,,,,,,,,,
,,,,,,,,2023-08-16_08h40.45.553,HF_wild_card,2022.2.4,Win32,59.99520038,62b055edf6ce67b0502628ed,64d2fd46c836a06233681665,64dc7d767fbf6820418b8b30,,,,,,,sngl,resources/Empty.png,resources/DBN.BMP,Door4,0.281481481,0.023148148,1,0,0,0.4795,optionRight,60,7210,3,43,0,43,0,1,,,,,,,,,,,,,,,,,,,,,,,,,,,,,,,,,,,,,,,
,,,,,,,,2023-08-16_08h40.45.553,HF_wild_card,2022.2.4,Win32,59.99520038,62b055edf6ce67b0502628ed,64d2fd46c836a06233681665,64dc7d767fbf6820418b8b30,,,,,,,,,,,,,,,,,,,,,,,,,,2,0,2,0,1,,,,,,,,,,,,,,,,,,,,,,,,,,,,,,,,,,
,,,,,,,,2023-08-16_08h40.45.553,HF_wild_card,2022.2.4,Win32,59.99520038,62b055edf6ce67b0502628ed,64d2fd46c836a06233681665,64dc7d767fbf6820418b8b30,,,,,,,decisionTrl,resources/DR.BMP,resources/DBN.BMP,Door4,0.25462963,-0.027777778,1,0,0,0.7621,optionRight,60,7270,4,0,0,0,0,1,,,,,,,,,,,,,,,,,,,,,,,,,,,,,,,,,,,,,,,
,,,,,,,,2023-08-16_08h40.45.553,HF_wild_card,2022.2.4,Win32,59.99520038,62b055edf6ce67b0502628ed,64d2fd46c836a06233681665,64dc7d767fbf6820418b8b30,,,,,,,sngl,resources/Empty.png,resources/DG.BMP,Door1,0.158333333,0.011111111,1,0,0,0.5461,optionRight,30,7300,4,1,0,1,0,1,,,,,,,,,,,,,,,,,,,,,,,,,,,,,,,,,,,,,,,
,,,,,,,,2023-08-16_08h40.45.553,HF_wild_card,2022.2.4,Win32,59.99520038,62b055edf6ce67b0502628ed,64d2fd46c836a06233681665,64dc7d767fbf6820418b8b30,,,,,,,sngl,resources/Empty.png,resources/DR.BMP,Door3,0.235185185,0.024074074,1,0,0,0.3792,optionRight,70,7370,4,2,0,2,0,1,,,,,,,,,,,,,,,,,,,,,,,,,,,,,,,,,,,,,,,
,,,,,,,,2023-08-16_08h40.45.553,HF_wild_card,2022.2.4,Win32,59.99520038,62b055edf6ce67b0502628ed,64d2fd46c836a06233681665,64dc7d767fbf6820418b8b30,,,,,,,decisionTrl,resources/DG.BMP,resources/DP.BMP,Door1,-0.157407407,-0.006481481,1,0,0,0.8125,optionLeft,30,7400,4,3,0,3,0,1,,,,,,,,,,,,,,,,,,,,,,,,,,,,,,,,,,,,,,,
,,,,,,,,2023-08-16_08h40.45.553,HF_wild_card,2022.2.4,Win32,59.99520038,62b055edf6ce67b0502628ed,64d2fd46c836a06233681665,64dc7d767fbf6820418b8b30,,,,,,,sngl,resources/DP.BMP,resources/Empty.png,Door2,-0.130555556,-0.006481481,1,0,0,0.4291,optionLeft,20,7420,4,4,0,4,0,1,,,,,,,,,,,,,,,,,,,,,,,,,,,,,,,,,,,,,,,
,,,,,,,,2023-08-16_08h40.45.553,HF_wild_card,2022.2.4,Win32,59.99520038,62b055edf6ce67b0502628ed,64d2fd46c836a06233681665,64dc7d767fbf6820418b8b30,,,,,,,ctch,resources/DR.BMP,resources/DP.BMP,Door3,-0.193518519,0.00462963,1,0,0,0.4625,optionLeft,70,7490,4,5,0,5,0,1,,,,,,,,,,,,,,,,,,,,,,,,,,,,,,,,,,,,,,,
,,,,,,,,2023-08-16_08h40.45.553,HF_wild_card,2022.2.4,Win32,59.99520038,62b055edf6ce67b0502628ed,64d2fd46c836a06233681665,64dc7d767fbf6820418b8b30,,,,,,,ctch,resources/DBN.BMP,resources/DG.BMP,Door4,-0.248148148,-0.007407407,1,0,0,0.5771,optionLeft,80,7570,4,6,0,6,0,1,,,,,,,,,,,,,,,,,,,,,,,,,,,,,,,,,,,,,,,
,,,,,,,,2023-08-16_08h40.45.553,HF_wild_card,2022.2.4,Win32,59.99520038,62b055edf6ce67b0502628ed,64d2fd46c836a06233681665,64dc7d767fbf6820418b8b30,,,,,,,decisionTrl,resources/DG.BMP,resources/DB.BMP,WildCard_Ex,0.517592593,0.018518519,1,0,0,0.7434,optionRight,45,7615,4,7,0,7,0,1,,,,,,,,,,,,,,,,,,,,,,,,,,,,,,,,,,,,,,,
,,,,,,,,2023-08-16_08h40.45.553,HF_wild_card,2022.2.4,Win32,59.99520038,62b055edf6ce67b0502628ed,64d2fd46c836a06233681665,64dc7d767fbf6820418b8b30,,,,,,,decisionTrl,resources/DG.BMP,resources/DP.BMP,Door1,-0.141666667,-0.018518519,1,0,0,0.6959,optionLeft,30,7645,4,8,0,8,0,1,,,,,,,,,,,,,,,,,,,,,,,,,,,,,,,,,,,,,,,
,,,,,,,,2023-08-16_08h40.45.553,HF_wild_card,2022.2.4,Win32,59.99520038,62b055edf6ce67b0502628ed,64d2fd46c836a06233681665,64dc7d767fbf6820418b8b30,,,,,,,ctch,resources/DG.BMP,resources/DBN.BMP,Door4,0.192592593,0.018518519,1,0,0,0.5631,optionRight,60,7705,4,9,0,9,0,1,,,,,,,,,,,,,,,,,,,,,,,,,,,,,,,,,,,,,,,
,,,,,,,,2023-08-16_08h40.45.553,HF_wild_card,2022.2.4,Win32,59.99520038,62b055edf6ce67b0502628ed,64d2fd46c836a06233681665,64dc7d767fbf6820418b8b30,,,,,,,sngl,resources/DB.BMP,resources/Empty.png,WildCard_Ex,-0.217592593,-0.019444444,1,0,0,0.5628,optionLeft,55,7760,4,10,0,10,0,1,,,,,,,,,,,,,,,,,,,,,,,,,,,,,,,,,,,,,,,
,,,,,,,,2023-08-16_08h40.45.553,HF_wild_card,2022.2.4,Win32,59.99520038,62b055edf6ce67b0502628ed,64d2fd46c836a06233681665,64dc7d767fbf6820418b8b30,,,,,,,sngl,resources/Empty.png,resources/DB.BMP,WildCard_Ex,0.256481481,0.026851852,1,0,0,0.5625,optionRight,55,7815,4,11,0,11,0,1,,,,,,,,,,,,,,,,,,,,,,,,,,,,,,,,,,,,,,,
,,,,,,,,2023-08-16_08h40.45.553,HF_wild_card,2022.2.4,Win32,59.99520038,62b055edf6ce67b0502628ed,64d2fd46c836a06233681665,64dc7d767fbf6820418b8b30,,,,,,,sngl,resources/Empty.png,resources/DB.BMP,WildCard_Ex,0.203703704,0.017592593,1,0,0,0.4622,optionRight,45,7860,4,12,0,12,0,1,,,,,,,,,,,,,,,,,,,,,,,,,,,,,,,,,,,,,,,
,,,,,,,,2023-08-16_08h40.45.553,HF_wild_card,2022.2.4,Win32,59.99520038,62b055edf6ce67b0502628ed,64d2fd46c836a06233681665,64dc7d767fbf6820418b8b30,,,,,,,decisionTrl,resources/DG.BMP,resources/DP.BMP,Door1,-0.132407407,-0.006481481,1,0,0,0.9632,optionLeft,30,7890,4,13,0,13,0,1,,,,,,,,,,,,,,,,,,,,,,,,,,,,,,,,,,,,,,,
,,,,,,,,2023-08-16_08h40.45.553,HF_wild_card,2022.2.4,Win32,59.99520038,62b055edf6ce67b0502628ed,64d2fd46c836a06233681665,64dc7d767fbf6820418b8b30,,,,,,,decisionTrl,resources/DB.BMP,resources/DBN.BMP,Door4,0.325,0.042592593,1,0,0,1.2965,optionRight,80,7970,4,14,0,14,0,1,,,,,,,,,,,,,,,,,,,,,,,,,,,,,,,,,,,,,,,
,,,,,,,,2023-08-16_08h40.45.553,HF_wild_card,2022.2.4,Win32,59.99520038,62b055edf6ce67b0502628ed,64d2fd46c836a06233681665,64dc7d767fbf6820418b8b30,,,,,,,decisionTrl,resources/DR.BMP,resources/DBN.BMP,Door3,-0.226851852,-0.009259259,1,0,0,1.1633,optionLeft,70,8040,4,15,0,15,0,1,,,,,,,,,,,,,,,,,,,,,,,,,,,,,,,,,,,,,,,
,,,,,,,,2023-08-16_08h40.45.553,HF_wild_card,2022.2.4,Win32,59.99520038,62b055edf6ce67b0502628ed,64d2fd46c836a06233681665,64dc7d767fbf6820418b8b30,,,,,,,decisionTrl,resources/DBN.BMP,resources/DR.BMP,Door4,-0.194444444,-0.011111111,1,0,0,0.7133,optionLeft,60,8100,4,16,0,16,0,1,,,,,,,,,,,,,,,,,,,,,,,,,,,,,,,,,,,,,,,
,,,,,,,,2023-08-16_08h40.45.553,HF_wild_card,2022.2.4,Win32,59.99520038,62b055edf6ce67b0502628ed,64d2fd46c836a06233681665,64dc7d767fbf6820418b8b30,,,,,,,sngl,resources/DBN.BMP,resources/Empty.png,Door4,-0.192592593,-0.006481481,1,0,0,0.4616,optionLeft,60,8160,4,17,0,17,0,1,,,,,,,,,,,,,,,,,,,,,,,,,,,,,,,,,,,,,,,
,,,,,,,,2023-08-16_08h40.45.553,HF_wild_card,2022.2.4,Win32,59.99520038,62b055edf6ce67b0502628ed,64d2fd46c836a06233681665,64dc7d767fbf6820418b8b30,,,,,,,decisionTrl,resources/DR.BMP,resources/DBN.BMP,Door4,0.293518519,0.040740741,1,0,0,0.8464,optionRight,80,8240,4,18,0,18,0,1,,,,,,,,,,,,,,,,,,,,,,,,,,,,,,,,,,,,,,,
,,,,,,,,2023-08-16_08h40.45.553,HF_wild_card,2022.2.4,Win32,59.99520038,62b055edf6ce67b0502628ed,64d2fd46c836a06233681665,64dc7d767fbf6820418b8b30,,,,,,,decisionTrl,resources/DBN.BMP,resources/DR.BMP,Door4,-0.186111111,-0.014814815,1,0,0,0.5289,optionLeft,60,8300,4,19,0,19,0,1,,,,,,,,,,,,,,,,,,,,,,,,,,,,,,,,,,,,,,,
,,,,,,,,2023-08-16_08h40.45.553,HF_wild_card,2022.2.4,Win32,59.99520038,62b055edf6ce67b0502628ed,64d2fd46c836a06233681665,64dc7d767fbf6820418b8b30,,,,,,,decisionTrl,resources/DP.BMP,resources/DG.BMP,Door1,0.214814815,0.038888889,1,0,0,0.8964,optionRight,30,8330,4,20,0,20,0,1,,,,,,,,,,,,,,,,,,,,,,,,,,,,,,,,,,,,,,,
,,,,,,,,2023-08-16_08h40.45.553,HF_wild_card,2022.2.4,Win32,59.99520038,62b055edf6ce67b0502628ed,64d2fd46c836a06233681665,64dc7d767fbf6820418b8b30,,,,,,,ctch,resources/DP.BMP,resources/DR.BMP,Door3,0.20462963,0.028703704,1,0,0,0.4621,optionRight,70,8400,4,21,0,21,0,1,,,,,,,,,,,,,,,,,,,,,,,,,,,,,,,,,,,,,,,
,,,,,,,,2023-08-16_08h40.45.553,HF_wild_card,2022.2.4,Win32,59.99520038,62b055edf6ce67b0502628ed,64d2fd46c836a06233681665,64dc7d767fbf6820418b8b30,,,,,,,decisionTrl,resources/DB.BMP,resources/DP.BMP,WildCard_Ex,-0.232407407,-0.007407407,1,0,0,1.247,optionLeft,55,8455,4,22,0,22,0,1,,,,,,,,,,,,,,,,,,,,,,,,,,,,,,,,,,,,,,,
,,,,,,,,2023-08-16_08h40.45.553,HF_wild_card,2022.2.4,Win32,59.99520038,62b055edf6ce67b0502628ed,64d2fd46c836a06233681665,64dc7d767fbf6820418b8b30,,,,,,,ctch,resources/DR.BMP,resources/DP.BMP,Door3,-0.159259259,-0.002777778,1,0,0,0.513,optionLeft,70,8525,4,23,0,23,0,1,,,,,,,,,,,,,,,,,,,,,,,,,,,,,,,,,,,,,,,
,,,,,,,,2023-08-16_08h40.45.553,HF_wild_card,2022.2.4,Win32,59.99520038,62b055edf6ce67b0502628ed,64d2fd46c836a06233681665,64dc7d767fbf6820418b8b30,,,,,,,decisionTrl,resources/DP.BMP,resources/DG.BMP,Door1,0.161111111,0.008333333,1,0,0,0.7799,optionRight,30,8555,4,24,0,24,0,1,,,,,,,,,,,,,,,,,,,,,,,,,,,,,,,,,,,,,,,
,,,,,,,,2023-08-16_08h40.45.553,HF_wild_card,2022.2.4,Win32,59.99520038,62b055edf6ce67b0502628ed,64d2fd46c836a06233681665,64dc7d767fbf6820418b8b30,,,,,,,decisionTrl,resources/DR.BMP,resources/DBN.BMP,Door4,0.247222222,0.007407407,1,0,0,0.7626,optionRight,80,8635,4,25,0,25,0,1,,,,,,,,,,,,,,,,,,,,,,,,,,,,,,,,,,,,,,,
,,,,,,,,2023-08-16_08h40.45.553,HF_wild_card,2022.2.4,Win32,59.99520038,62b055edf6ce67b0502628ed,64d2fd46c836a06233681665,64dc7d767fbf6820418b8b30,,,,,,,ctch,resources/DP.BMP,resources/DR.BMP,Door3,0.342592593,0.018518519,1,0,0,0.4293,optionRight,70,8705,4,26,0,26,0,1,,,,,,,,,,,,,,,,,,,,,,,,,,,,,,,,,,,,,,,
,,,,,,,,2023-08-16_08h40.45.553,HF_wild_card,2022.2.4,Win32,59.99520038,62b055edf6ce67b0502628ed,64d2fd46c836a06233681665,64dc7d767fbf6820418b8b30,,,,,,,decisionTrl,resources/DBN.BMP,resources/DR.BMP,Door4,-0.209259259,0,1,0,0,0.5294,optionLeft,60,8765,4,27,0,27,0,1,,,,,,,,,,,,,,,,,,,,,,,,,,,,,,,,,,,,,,,
,,,,,,,,2023-08-16_08h40.45.553,HF_wild_card,2022.2.4,Win32,59.99520038,62b055edf6ce67b0502628ed,64d2fd46c836a06233681665,64dc7d767fbf6820418b8b30,,,,,,,sngl,resources/DB.BMP,resources/Empty.png,WildCard_Ex,-0.225925926,-0.026851852,1,0,0,0.4623,optionLeft,45,8810,4,28,0,28,0,1,,,,,,,,,,,,,,,,,,,,,,,,,,,,,,,,,,,,,,,
,,,,,,,,2023-08-16_08h40.45.553,HF_wild_card,2022.2.4,Win32,59.99520038,62b055edf6ce67b0502628ed,64d2fd46c836a06233681665,64dc7d767fbf6820418b8b30,,,,,,,ctch,resources/DG.BMP,resources/DBN.BMP,Door4,0.121296296,0.011111111,1,0,0,0.5123,optionRight,80,8890,4,29,0,29,0,1,,,,,,,,,,,,,,,,,,,,,,,,,,,,,,,,,,,,,,,
,,,,,,,,2023-08-16_08h40.45.553,HF_wild_card,2022.2.4,Win32,59.99520038,62b055edf6ce67b0502628ed,64d2fd46c836a06233681665,64dc7d767fbf6820418b8b30,,,,,,,decisionTrl,resources/DP.BMP,resources/DB.BMP,WildCard_Ex,0.415740741,0.011111111,1,0,0,1.1962,optionRight,55,8945,4,30,0,30,0,1,,,,,,,,,,,,,,,,,,,,,,,,,,,,,,,,,,,,,,,
,,,,,,,,2023-08-16_08h40.45.553,HF_wild_card,2022.2.4,Win32,59.99520038,62b055edf6ce67b0502628ed,64d2fd46c836a06233681665,64dc7d767fbf6820418b8b30,,,,,,,decisionTrl,resources/DP.BMP,resources/DG.BMP,Door2,-0.224074074,-0.021296296,1,0,0,0.5796,optionLeft,40,8985,4,31,0,31,0,1,,,,,,,,,,,,,,,,,,,,,,,,,,,,,,,,,,,,,,,
,,,,,,,,2023-08-16_08h40.45.553,HF_wild_card,2022.2.4,Win32,59.99520038,62b055edf6ce67b0502628ed,64d2fd46c836a06233681665,64dc7d767fbf6820418b8b30,,,,,,,sngl,resources/Empty.png,resources/DBN.BMP,Door4,0.184259259,0.009259259,1,0,0,0.4631,optionRight,80,9065,4,32,0,32,0,1,,,,,,,,,,,,,,,,,,,,,,,,,,,,,,,,,,,,,,,
,,,,,,,,2023-08-16_08h40.45.553,HF_wild_card,2022.2.4,Win32,59.99520038,62b055edf6ce67b0502628ed,64d2fd46c836a06233681665,64dc7d767fbf6820418b8b30,,,,,,,decisionTrl,resources/DB.BMP,resources/DG.BMP,WildCard_Ex,-0.227777778,-0.032407407,1,0,0,0.7131,optionLeft,45,9110,4,33,0,33,0,1,,,,,,,,,,,,,,,,,,,,,,,,,,,,,,,,,,,,,,,
,,,,,,,,2023-08-16_08h40.45.553,HF_wild_card,2022.2.4,Win32,59.99520038,62b055edf6ce67b0502628ed,64d2fd46c836a06233681665,64dc7d767fbf6820418b8b30,,,,,,,sngl,resources/DG.BMP,resources/Empty.png,Door1,-0.302777778,-0.021296296,1,0,0,0.5127,optionLeft,30,9140,4,34,0,34,0,1,,,,,,,,,,,,,,,,,,,,,,,,,,,,,,,,,,,,,,,
,,,,,,,,2023-08-16_08h40.45.553,HF_wild_card,2022.2.4,Win32,59.99520038,62b055edf6ce67b0502628ed,64d2fd46c836a06233681665,64dc7d767fbf6820418b8b30,,,,,,,decisionTrl,resources/DR.BMP,resources/DB.BMP,Door3,-0.2,-0.005555556,1,0,0,0.7457,optionLeft,70,9210,4,35,0,35,0,1,,,,,,,,,,,,,,,,,,,,,,,,,,,,,,,,,,,,,,,
,,,,,,,,2023-08-16_08h40.45.553,HF_wild_card,2022.2.4,Win32,59.99520038,62b055edf6ce67b0502628ed,64d2fd46c836a06233681665,64dc7d767fbf6820418b8b30,,,,,,,decisionTrl,resources/DBN.BMP,resources/DB.BMP,Door4,-0.206481481,-0.003703704,1,0,0,0.6959,optionLeft,60,9270,4,36,0,36,0,1,,,,,,,,,,,,,,,,,,,,,,,,,,,,,,,,,,,,,,,
,,,,,,,,2023-08-16_08h40.45.553,HF_wild_card,2022.2.4,Win32,59.99520038,62b055edf6ce67b0502628ed,64d2fd46c836a06233681665,64dc7d767fbf6820418b8b30,,,,,,,sngl,resources/DR.BMP,resources/Empty.png,Door3,-0.22037037,-0.012962963,1,0,0,0.4792,optionLeft,70,9340,4,37,0,37,0,1,,,,,,,,,,,,,,,,,,,,,,,,,,,,,,,,,,,,,,,
,,,,,,,,2023-08-16_08h40.45.553,HF_wild_card,2022.2.4,Win32,59.99520038,62b055edf6ce67b0502628ed,64d2fd46c836a06233681665,64dc7d767fbf6820418b8b30,,,,,,,decisionTrl,resources/DB.BMP,resources/DR.BMP,Door3,0.125,-0.002777778,1,0,0,0.7463,optionRight,70,9410,4,38,0,38,0,1,,,,,,,,,,,,,,,,,,,,,,,,,,,,,,,,,,,,,,,
,,,,,,,,2023-08-16_08h40.45.553,HF_wild_card,2022.2.4,Win32,59.99520038,62b055edf6ce67b0502628ed,64d2fd46c836a06233681665,64dc7d767fbf6820418b8b30,,,,,,,decisionTrl,resources/DG.BMP,resources/DP.BMP,Door1,-0.213888889,-0.033333333,1,0,0,0.8632,optionLeft,30,9440,4,39,0,39,0,1,,,,,,,,,,,,,,,,,,,,,,,,,,,,,,,,,,,,,,,
,,,,,,,,2023-08-16_08h40.45.553,HF_wild_card,2022.2.4,Win32,59.99520038,62b055edf6ce67b0502628ed,64d2fd46c836a06233681665,64dc7d767fbf6820418b8b30,,,,,,,decisionTrl,resources/DP.BMP,resources/DG.BMP,Door1,0.160185185,0.014814815,1,0,0,0.6629,optionRight,30,9470,4,40,0,40,0,1,,,,,,,,,,,,,,,,,,,,,,,,,,,,,,,,,,,,,,,
,,,,,,,,2023-08-16_08h40.45.553,HF_wild_card,2022.2.4,Win32,59.99520038,62b055edf6ce67b0502628ed,64d2fd46c836a06233681665,64dc7d767fbf6820418b8b30,,,,,,,sngl,resources/Empty.png,resources/DP.BMP,Door2,0.102777778,0,1,0,0,0.4453,optionRight,40,9510,4,41,0,41,0,1,,,,,,,,,,,,,,,,,,,,,,,,,,,,,,,,,,,,,,,
,,,,,,,,2023-08-16_08h40.45.553,HF_wild_card,2022.2.4,Win32,59.99520038,62b055edf6ce67b0502628ed,64d2fd46c836a06233681665,64dc7d767fbf6820418b8b30,,,,,,,decisionTrl,resources/DBN.BMP,resources/DR.BMP,Door3,0.149074074,0.014814815,1,0,0,1.0967,optionRight,70,9580,4,42,0,42,0,1,,,,,,,,,,,,,,,,,,,,,,,,,,,,,,,,,,,,,,,
,,,,,,,,2023-08-16_08h40.45.553,HF_wild_card,2022.2.4,Win32,59.99520038,62b055edf6ce67b0502628ed,64d2fd46c836a06233681665,64dc7d767fbf6820418b8b30,,,,,,,ctch,resources/DBN.BMP,resources/DG.BMP,Door4,-0.178703704,-0.027777778,1,0,0,0.4788,optionLeft,60,9640,4,43,0,43,0,1,,,,,,,,,,,,,,,,,,,,,,,,,,,,,,,,,,,,,,,
,,,,,,,,2023-08-16_08h40.45.553,HF_wild_card,2022.2.4,Win32,59.99520038,62b055edf6ce67b0502628ed,64d2fd46c836a06233681665,64dc7d767fbf6820418b8b30,,,,,,,,,,,,,,,,,,,,,,,,,,3,0,3,0,1,,,,,,,,,,,,,,,,,,,,,,,,,,,,,,,,,,
,,,,,,,,2023-08-16_08h40.45.553,HF_wild_card,2022.2.4,Win32,59.99520038,62b055edf6ce67b0502628ed,64d2fd46c836a06233681665,64dc7d767fbf6820418b8b30,,,,,,,decisionTrl,resources/DP.BMP,resources/DG.BMP,Door1,0.177777778,0.011111111,1,0,0,1.7361,optionRight,30,9670,5,0,0,0,0,1,,,,,,,,,,,,,,,,,,,,,,,,,,,,,,,,,,,,,,,
,,,,,,,,2023-08-16_08h40.45.553,HF_wild_card,2022.2.4,Win32,59.99520038,62b055edf6ce67b0502628ed,64d2fd46c836a06233681665,64dc7d767fbf6820418b8b30,,,,,,,sngl,resources/Empty.png,resources/DB.BMP,WildCard_Ex,0.264814815,0.033333333,1,0,0,0.4295,optionRight,45,9715,5,1,0,1,0,1,,,,,,,,,,,,,,,,,,,,,,,,,,,,,,,,,,,,,,,
,,,,,,,,2023-08-16_08h40.45.553,HF_wild_card,2022.2.4,Win32,59.99520038,62b055edf6ce67b0502628ed,64d2fd46c836a06233681665,64dc7d767fbf6820418b8b30,,,,,,,ctch,resources/DBN.BMP,resources/DG.BMP,Door4,-0.246296296,0.007407407,1,0,0,0.5282,optionLeft,60,9775,5,2,0,2,0,1,,,,,,,,,,,,,,,,,,,,,,,,,,,,,,,,,,,,,,,
,,,,,,,,2023-08-16_08h40.45.553,HF_wild_card,2022.2.4,Win32,59.99520038,62b055edf6ce67b0502628ed,64d2fd46c836a06233681665,64dc7d767fbf6820418b8b30,,,,,,,sngl,resources/DG.BMP,resources/Empty.png,Door1,-0.343518519,-0.007407407,1,0,0,0.4125,optionLeft,30,9805,5,3,0,3,0,1,,,,,,,,,,,,,,,,,,,,,,,,,,,,,,,,,,,,,,,
,,,,,,,,2023-08-16_08h40.45.553,HF_wild_card,2022.2.4,Win32,59.99520038,62b055edf6ce67b0502628ed,64d2fd46c836a06233681665,64dc7d767fbf6820418b8b30,,,,,,,decisionTrl,resources/DP.BMP,resources/DG.BMP,Door2,-0.210185185,-0.011111111,1,0,0,0.6786,optionLeft,40,9845,5,4,0,4,0,1,,,,,,,,,,,,,,,,,,,,,,,,,,,,,,,,,,,,,,,
,,,,,,,,2023-08-16_08h40.45.553,HF_wild_card,2022.2.4,Win32,59.99520038,62b055edf6ce67b0502628ed,64d2fd46c836a06233681665,64dc7d767fbf6820418b8b30,,,,,,,sngl,resources/DB.BMP,resources/Empty.png,WildCard_Ex,-0.361111111,-0.011111111,1,0,0,0.4122,optionLeft,55,9900,5,5,0,5,0,1,,,,,,,,,,,,,,,,,,,,,,,,,,,,,,,,,,,,,,,
,,,,,,,,2023-08-16_08h40.45.553,HF_wild_card,2022.2.4,Win32,59.99520038,62b055edf6ce67b0502628ed,64d2fd46c836a06233681665,64dc7d767fbf6820418b8b30,,,,,,,decisionTrl,resources/DR.BMP,resources/DBN.BMP,Door3,-0.166666667,-0.016666667,1,0,0,0.7628,optionLeft,70,9970,5,6,0,6,0,1,,,,,,,,,,,,,,,,,,,,,,,,,,,,,,,,,,,,,,,
,,,,,,,,2023-08-16_08h40.45.553,HF_wild_card,2022.2.4,Win32,59.99520038,62b055edf6ce67b0502628ed,64d2fd46c836a06233681665,64dc7d767fbf6820418b8b30,,,,,,,decisionTrl,resources/DBN.BMP,resources/DR.BMP,Door4,-0.208333333,-0.013888889,1,0,0,0.4626,optionLeft,80,10050,5,7,0,7,0,1,,,,,,,,,,,,,,,,,,,,,,,,,,,,,,,,,,,,,,,
,,,,,,,,2023-08-16_08h40.45.553,HF_wild_card,2022.2.4,Win32,59.99520038,62b055edf6ce67b0502628ed,64d2fd46c836a06233681665,64dc7d767fbf6820418b8b30,,,,,,,ctch,resources/DP.BMP,resources/DR.BMP,Door3,0.323148148,-0.019444444,1,0,0,0.4951,optionRight,70,10120,5,8,0,8,0,1,,,,,,,,,,,,,,,,,,,,,,,,,,,,,,,,,,,,,,,
,,,,,,,,2023-08-16_08h40.45.553,HF_wild_card,2022.2.4,Win32,59.99520038,62b055edf6ce67b0502628ed,64d2fd46c836a06233681665,64dc7d767fbf6820418b8b30,,,,,,,sngl,resources/Empty.png,resources/DR.BMP,Door3,0.190740741,0.005555556,1,0,0,0.4118,optionRight,70,10190,5,9,0,9,0,1,,,,,,,,,,,,,,,,,,,,,,,,,,,,,,,,,,,,,,,
,,,,,,,,2023-08-16_08h40.45.553,HF_wild_card,2022.2.4,Win32,59.99520038,62b055edf6ce67b0502628ed,64d2fd46c836a06233681665,64dc7d767fbf6820418b8b30,,,,,,,decisionTrl,resources/DBN.BMP,resources/DR.BMP,Door4,-0.261111111,-0.024074074,1,0,0,0.7297,optionLeft,80,10270,5,10,0,10,0,1,,,,,,,,,,,,,,,,,,,,,,,,,,,,,,,,,,,,,,,
,,,,,,,,2023-08-16_08h40.45.553,HF_wild_card,2022.2.4,Win32,59.99520038,62b055edf6ce67b0502628ed,64d2fd46c836a06233681665,64dc7d767fbf6820418b8b30,,,,,,,ctch,resources/DR.BMP,resources/DP.BMP,Door3,-0.287037037,-0.027777778,1,0,0,0.4961,optionLeft,70,10340,5,11,0,11,0,1,,,,,,,,,,,,,,,,,,,,,,,,,,,,,,,,,,,,,,,
,,,,,,,,2023-08-16_08h40.45.553,HF_wild_card,2022.2.4,Win32,59.99520038,62b055edf6ce67b0502628ed,64d2fd46c836a06233681665,64dc7d767fbf6820418b8b30,,,,,,,decisionTrl,resources/DR.BMP,resources/DBN.BMP,Door3,-0.19537037,-0.028703704,1,0,0,0.9132,optionLeft,70,10410,5,12,0,12,0,1,,,,,,,,,,,,,,,,,,,,,,,,,,,,,,,,,,,,,,,
,,,,,,,,2023-08-16_08h40.45.553,HF_wild_card,2022.2.4,Win32,59.99520038,62b055edf6ce67b0502628ed,64d2fd46c836a06233681665,64dc7d767fbf6820418b8b30,,,,,,,decisionTrl,resources/DP.BMP,resources/DG.BMP,Door2,-0.177777778,0.009259259,1,0,0,0.4793,optionLeft,20,10430,5,13,0,13,0,1,,,,,,,,,,,,,,,,,,,,,,,,,,,,,,,,,,,,,,,
,,,,,,,,2023-08-16_08h40.45.553,HF_wild_card,2022.2.4,Win32,59.99520038,62b055edf6ce67b0502628ed,64d2fd46c836a06233681665,64dc7d767fbf6820418b8b30,,,,,,,sngl,resources/Empty.png,resources/DBN.BMP,Door4,0.259259259,0.007407407,1,0,0,0.4122,optionRight,60,10490,5,14,0,14,0,1,,,,,,,,,,,,,,,,,,,,,,,,,,,,,,,,,,,,,,,
,,,,,,,,2023-08-16_08h40.45.553,HF_wild_card,2022.2.4,Win32,59.99520038,62b055edf6ce67b0502628ed,64d2fd46c836a06233681665,64dc7d767fbf6820418b8b30,,,,,,,sngl,resources/DBN.BMP,resources/Empty.png,Door4,-0.196296296,0.019444444,1,0,0,0.4288,optionLeft,80,10570,5,15,0,15,0,1,,,,,,,,,,,,,,,,,,,,,,,,,,,,,,,,,,,,,,,
,,,,,,,,2023-08-16_08h40.45.553,HF_wild_card,2022.2.4,Win32,59.99520038,62b055edf6ce67b0502628ed,64d2fd46c836a06233681665,64dc7d767fbf6820418b8b30,,,,,,,ctch,resources/DG.BMP,resources/DBN.BMP,Door4,0.219444444,0.019444444,1,0,0,0.4287,optionRight,80,10650,5,16,0,16,0,1,,,,,,,,,,,,,,,,,,,,,,,,,,,,,,,,,,,,,,,
,,,,,,,,2023-08-16_08h40.45.553,HF_wild_card,2022.2.4,Win32,59.99520038,62b055edf6ce67b0502628ed,64d2fd46c836a06233681665,64dc7d767fbf6820418b8b30,,,,,,,decisionTrl,resources/DBN.BMP,resources/DR.BMP,Door4,-0.27962963,-0.009259259,1,0,0,0.6792,optionLeft,80,10730,5,17,0,17,0,1,,,,,,,,,,,,,,,,,,,,,,,,,,,,,,,,,,,,,,,
,,,,,,,,2023-08-16_08h40.45.553,HF_wild_card,2022.2.4,Win32,59.99520038,62b055edf6ce67b0502628ed,64d2fd46c836a06233681665,64dc7d767fbf6820418b8b30,,,,,,,decisionTrl,resources/DB.BMP,resources/DP.BMP,Door2,0.138888889,0.012037037,1,0,0,0.4788,optionRight,40,10770,5,18,0,18,0,1,,,,,,,,,,,,,,,,,,,,,,,,,,,,,,,,,,,,,,,
,,,,,,,,2023-08-16_08h40.45.553,HF_wild_card,2022.2.4,Win32,59.99520038,62b055edf6ce67b0502628ed,64d2fd46c836a06233681665,64dc7d767fbf6820418b8b30,,,,,,,decisionTrl,resources/DR.BMP,resources/DBN.BMP,Door3,-0.261111111,-0.028703704,1,0,0,0.9131,optionLeft,70,10840,5,19,0,19,0,1,,,,,,,,,,,,,,,,,,,,,,,,,,,,,,,,,,,,,,,
,,,,,,,,2023-08-16_08h40.45.553,HF_wild_card,2022.2.4,Win32,59.99520038,62b055edf6ce67b0502628ed,64d2fd46c836a06233681665,64dc7d767fbf6820418b8b30,,,,,,,decisionTrl,resources/DB.BMP,resources/DR.BMP,Door3,0.65,0.015740741,1,0,0,0.4961,optionRight,70,10910,5,20,0,20,0,1,,,,,,,,,,,,,,,,,,,,,,,,,,,,,,,,,,,,,,,
,,,,,,,,2023-08-16_08h40.45.553,HF_wild_card,2022.2.4,Win32,59.99520038,62b055edf6ce67b0502628ed,64d2fd46c836a06233681665,64dc7d767fbf6820418b8b30,,,,,,,sngl,resources/DR.BMP,resources/Empty.png,Door3,-0.358333333,-0.026851852,1,0,0,0.3956,optionLeft,70,10980,5,21,0,21,0,1,,,,,,,,,,,,,,,,,,,,,,,,,,,,,,,,,,,,,,,
,,,,,,,,2023-08-16_08h40.45.553,HF_wild_card,2022.2.4,Win32,59.99520038,62b055edf6ce67b0502628ed,64d2fd46c836a06233681665,64dc7d767fbf6820418b8b30,,,,,,,decisionTrl,resources/DB.BMP,resources/DG.BMP,WildCard_Ex,-0.333333333,-0.02037037,1,0,0,0.6793,optionLeft,55,11035,5,22,0,22,0,1,,,,,,,,,,,,,,,,,,,,,,,,,,,,,,,,,,,,,,,
,,,,,,,,2023-08-16_08h40.45.553,HF_wild_card,2022.2.4,Win32,59.99520038,62b055edf6ce67b0502628ed,64d2fd46c836a06233681665,64dc7d767fbf6820418b8b30,,,,,,,ctch,resources/DG.BMP,resources/DBN.BMP,Door4,0.12037037,-0.001851852,1,0,0,0.5963,optionRight,60,11095,5,23,0,23,0,1,,,,,,,,,,,,,,,,,,,,,,,,,,,,,,,,,,,,,,,
,,,,,,,,2023-08-16_08h40.45.553,HF_wild_card,2022.2.4,Win32,59.99520038,62b055edf6ce67b0502628ed,64d2fd46c836a06233681665,64dc7d767fbf6820418b8b30,,,,,,,sngl,resources/DP.BMP,resources/Empty.png,Door2,-0.271296296,-0.018518519,1,0,0,0.4118,optionLeft,40,11135,5,24,0,24,0,1,,,,,,,,,,,,,,,,,,,,,,,,,,,,,,,,,,,,,,,
,,,,,,,,2023-08-16_08h40.45.553,HF_wild_card,2022.2.4,Win32,59.99520038,62b055edf6ce67b0502628ed,64d2fd46c836a06233681665,64dc7d767fbf6820418b8b30,,,,,,,decisionTrl,resources/DG.BMP,resources/DP.BMP,Door2,0.197222222,0.006481481,1,0,0,0.5962,optionRight,20,11155,5,25,0,25,0,1,,,,,,,,,,,,,,,,,,,,,,,,,,,,,,,,,,,,,,,
,,,,,,,,2023-08-16_08h40.45.553,HF_wild_card,2022.2.4,Win32,59.99520038,62b055edf6ce67b0502628ed,64d2fd46c836a06233681665,64dc7d767fbf6820418b8b30,,,,,,,decisionTrl,resources/DBN.BMP,resources/DB.BMP,Door4,-0.200925926,-0.00462963,1,0,0,0.7794,optionLeft,60,11215,5,26,0,26,0,1,,,,,,,,,,,,,,,,,,,,,,,,,,,,,,,,,,,,,,,
,,,,,,,,2023-08-16_08h40.45.553,HF_wild_card,2022.2.4,Win32,59.99520038,62b055edf6ce67b0502628ed,64d2fd46c836a06233681665,64dc7d767fbf6820418b8b30,,,,,,,decisionTrl,resources/DG.BMP,resources/DP.BMP,Door1,-0.427777778,-0.053703704,1,0,0,1.0298,optionLeft,30,11245,5,27,0,27,0,1,,,,,,,,,,,,,,,,,,,,,,,,,,,,,,,,,,,,,,,
,,,,,,,,2023-08-16_08h40.45.553,HF_wild_card,2022.2.4,Win32,59.99520038,62b055edf6ce67b0502628ed,64d2fd46c836a06233681665,64dc7d767fbf6820418b8b30,,,,,,,sngl,resources/Empty.png,resources/DB.BMP,WildCard_Ex,0.183333333,-0.006481481,1,0,0,0.4295,optionRight,55,11300,5,28,0,28,0,1,,,,,,,,,,,,,,,,,,,,,,,,,,,,,,,,,,,,,,,
,,,,,,,,2023-08-16_08h40.45.553,HF_wild_card,2022.2.4,Win32,59.99520038,62b055edf6ce67b0502628ed,64d2fd46c836a06233681665,64dc7d767fbf6820418b8b30,,,,,,,ctch,resources/DBN.BMP,resources/DG.BMP,Door4,-0.227777778,-0.009259259,1,0,0,0.5625,optionLeft,60,11360,5,29,0,29,0,1,,,,,,,,,,,,,,,,,,,,,,,,,,,,,,,,,,,,,,,
,,,,,,,,2023-08-16_08h40.45.553,HF_wild_card,2022.2.4,Win32,59.99520038,62b055edf6ce67b0502628ed,64d2fd46c836a06233681665,64dc7d767fbf6820418b8b30,,,,,,,decisionTrl,resources/DP.BMP,resources/DG.BMP,Door2,-0.142592593,-0.023148148,1,0,0,0.7799,optionLeft,40,11400,5,30,0,30,0,1,,,,,,,,,,,,,,,,,,,,,,,,,,,,,,,,,,,,,,,
,,,,,,,,2023-08-16_08h40.45.553,HF_wild_card,2022.2.4,Win32,59.99520038,62b055edf6ce67b0502628ed,64d2fd46c836a06233681665,64dc7d767fbf6820418b8b30,,,,,,,decisionTrl,resources/DG.BMP,resources/DB.BMP,WildCard_Ex,0.158333333,-0.016666667,1,0,0,0.5619,optionRight,45,11445,5,31,0,31,0,1,,,,,,,,,,,,,,,,,,,,,,,,,,,,,,,,,,,,,,,
,,,,,,,,2023-08-16_08h40.45.553,HF_wild_card,2022.2.4,Win32,59.99520038,62b055edf6ce67b0502628ed,64d2fd46c836a06233681665,64dc7d767fbf6820418b8b30,,,,,,,decisionTrl,resources/DR.BMP,resources/DBN.BMP,Door4,0.226851852,0.014814815,1,0,0,0.6788,optionRight,60,11505,5,32,0,32,0,1,,,,,,,,,,,,,,,,,,,,,,,,,,,,,,,,,,,,,,,
,,,,,,,,2023-08-16_08h40.45.553,HF_wild_card,2022.2.4,Win32,59.99520038,62b055edf6ce67b0502628ed,64d2fd46c836a06233681665,64dc7d767fbf6820418b8b30,,,,,,,ctch,resources/DR.BMP,resources/DP.BMP,Door3,-0.208333333,-0.02037037,1,0,0,0.496,optionLeft,70,11575,5,33,0,33,0,1,,,,,,,,,,,,,,,,,,,,,,,,,,,,,,,,,,,,,,,
,,,,,,,,2023-08-16_08h40.45.553,HF_wild_card,2022.2.4,Win32,59.99520038,62b055edf6ce67b0502628ed,64d2fd46c836a06233681665,64dc7d767fbf6820418b8b30,,,,,,,decisionTrl,resources/DG.BMP,resources/DP.BMP,Door2,0.224074074,0.007407407,1,0,0,0.6601,optionRight,40,11615,5,34,0,34,0,1,,,,,,,,,,,,,,,,,,,,,,,,,,,,,,,,,,,,,,,
,,,,,,,,2023-08-16_08h40.45.553,HF_wild_card,2022.2.4,Win32,59.99520038,62b055edf6ce67b0502628ed,64d2fd46c836a06233681665,64dc7d767fbf6820418b8b30,,,,,,,ctch,resources/DP.BMP,resources/DR.BMP,Door3,0.246296296,0.006481481,1,0,0,0.5795,optionRight,70,11685,5,35,0,35,0,1,,,,,,,,,,,,,,,,,,,,,,,,,,,,,,,,,,,,,,,
,,,,,,,,2023-08-16_08h40.45.553,HF_wild_card,2022.2.4,Win32,59.99520038,62b055edf6ce67b0502628ed,64d2fd46c836a06233681665,64dc7d767fbf6820418b8b30,,,,,,,decisionTrl,resources/DBN.BMP,resources/DR.BMP,Door4,-0.203703704,-0.003703704,1,0,0,0.7297,optionLeft,60,11745,5,36,0,36,0,1,,,,,,,,,,,,,,,,,,,,,,,,,,,,,,,,,,,,,,,
,,,,,,,,2023-08-16_08h40.45.553,HF_wild_card,2022.2.4,Win32,59.99520038,62b055edf6ce67b0502628ed,64d2fd46c836a06233681665,64dc7d767fbf6820418b8b30,,,,,,,decisionTrl,resources/DB.BMP,resources/DBN.BMP,Door4,0.246296296,0.023148148,1,0,0,0.4121,optionRight,60,11805,5,37,0,37,0,1,,,,,,,,,,,,,,,,,,,,,,,,,,,,,,,,,,,,,,,
,,,,,,,,2023-08-16_08h40.45.553,HF_wild_card,2022.2.4,Win32,59.99520038,62b055edf6ce67b0502628ed,64d2fd46c836a06233681665,64dc7d767fbf6820418b8b30,,,,,,,sngl,resources/Empty.png,resources/DG.BMP,Door1,0.334259259,0.007407407,1,0,0,0.4294,optionRight,30,11835,5,38,0,38,0,1,,,,,,,,,,,,,,,,,,,,,,,,,,,,,,,,,,,,,,,
,,,,,,,,2023-08-16_08h40.45.553,HF_wild_card,2022.2.4,Win32,59.99520038,62b055edf6ce67b0502628ed,64d2fd46c836a06233681665,64dc7d767fbf6820418b8b30,,,,,,,decisionTrl,resources/DG.BMP,resources/DP.BMP,Door1,-0.225,-0.017592593,1,0,0,0.7959,optionLeft,30,11865,5,39,0,39,0,1,,,,,,,,,,,,,,,,,,,,,,,,,,,,,,,,,,,,,,,
,,,,,,,,2023-08-16_08h40.45.553,HF_wild_card,2022.2.4,Win32,59.99520038,62b055edf6ce67b0502628ed,64d2fd46c836a06233681665,64dc7d767fbf6820418b8b30,,,,,,,sngl,resources/DB.BMP,resources/Empty.png,WildCard_Ex,-0.351851852,-0.037962963,1,0,0,0.4291,optionLeft,45,11910,5,40,0,40,0,1,,,,,,,,,,,,,,,,,,,,,,,,,,,,,,,,,,,,,,,
,,,,,,,,2023-08-16_08h40.45.553,HF_wild_card,2022.2.4,Win32,59.99520038,62b055edf6ce67b0502628ed,64d2fd46c836a06233681665,64dc7d767fbf6820418b8b30,,,,,,,decisionTrl,resources/DP.BMP,resources/DB.BMP,WildCard_Ex,0.140740741,-0.005555556,1,0,0,0.7963,optionRight,45,11955,5,41,0,41,0,1,,,,,,,,,,,,,,,,,,,,,,,,,,,,,,,,,,,,,,,
,,,,,,,,2023-08-16_08h40.45.553,HF_wild_card,2022.2.4,Win32,59.99520038,62b055edf6ce67b0502628ed,64d2fd46c836a06233681665,64dc7d767fbf6820418b8b30,,,,,,,sngl,resources/Empty.png,resources/DP.BMP,Door2,0.219444444,0.019444444,1,0,0,0.4626,optionRight,20,11975,5,42,0,42,0,1,,,,,,,,,,,,,,,,,,,,,,,,,,,,,,,,,,,,,,,
,,,,,,,,2023-08-16_08h40.45.553,HF_wild_card,2022.2.4,Win32,59.99520038,62b055edf6ce67b0502628ed,64d2fd46c836a06233681665,64dc7d767fbf6820418b8b30,,,,,,,decisionTrl,resources/DR.BMP,resources/DB.BMP,Door3,-0.299074074,-0.02962963,1,0,0,0.5129,optionLeft,70,12045,5,43,0,43,0,1,,,,,,,,,,,,,,,,,,,,,,,,,,,,,,,,,,,,,,,
,,,,,,,,2023-08-16_08h40.45.553,HF_wild_card,2022.2.4,Win32,59.99520038,62b055edf6ce67b0502628ed,64d2fd46c836a06233681665,64dc7d767fbf6820418b8b30,,,,,,,,,,,,,,,,,,,,,,,,,,4,0,4,0,1,,,,,,,,,,,,,,,,,,,,,,,,,,,,,,,,,,
,,,,,,,,2023-08-16_08h40.45.553,HF_wild_card,2022.2.4,Win32,59.99520038,62b055edf6ce67b0502628ed,64d2fd46c836a06233681665,64dc7d767fbf6820418b8b30,,,,,,,decisionTrl,resources/DR.BMP,resources/DBN.BMP,Door3,-0.306481481,-0.105555556,1,0,0,0.8421,optionLeft,70,12115,6,0,0,0,0,1,,,,,,,,,,,,,,,,,,,,,,,,,,,,,,,,,,,,,,,
,,,,,,,,2023-08-16_08h40.45.553,HF_wild_card,2022.2.4,Win32,59.99520038,62b055edf6ce67b0502628ed,64d2fd46c836a06233681665,64dc7d767fbf6820418b8b30,,,,,,,ctch,resources/DBN.BMP,resources/DG.BMP,Door4,-0.273148148,0.041666667,1,0,0,0.7478,optionLeft,80,12195,6,1,0,1,0,1,,,,,,,,,,,,,,,,,,,,,,,,,,,,,,,,,,,,,,,
,,,,,,,,2023-08-16_08h40.45.553,HF_wild_card,2022.2.4,Win32,59.99520038,62b055edf6ce67b0502628ed,64d2fd46c836a06233681665,64dc7d767fbf6820418b8b30,,,,,,,ctch,resources/DG.BMP,resources/DBN.BMP,Door4,0.20462963,0.025925926,1,0,0,0.4333,optionRight,60,12255,6,2,0,2,0,1,,,,,,,,,,,,,,,,,,,,,,,,,,,,,,,,,,,,,,,
,,,,,,,,2023-08-16_08h40.45.553,HF_wild_card,2022.2.4,Win32,59.99520038,62b055edf6ce67b0502628ed,64d2fd46c836a06233681665,64dc7d767fbf6820418b8b30,,,,,,,decisionTrl,resources/DG.BMP,resources/DB.BMP,Door1,-0.272222222,-0.001851852,1,0,0,0.4653,optionLeft,30,12285,6,3,0,3,0,1,,,,,,,,,,,,,,,,,,,,,,,,,,,,,,,,,,,,,,,
,,,,,,,,2023-08-16_08h40.45.553,HF_wild_card,2022.2.4,Win32,59.99520038,62b055edf6ce67b0502628ed,64d2fd46c836a06233681665,64dc7d767fbf6820418b8b30,,,,,,,ctch,resources/DR.BMP,resources/DP.BMP,Door3,-0.390740741,-0.025925926,1,0,0,0.699,optionLeft,70,12355,6,4,0,4,0,1,,,,,,,,,,,,,,,,,,,,,,,,,,,,,,,,,,,,,,,
,,,,,,,,2023-08-16_08h40.45.553,HF_wild_card,2022.2.4,Win32,59.99520038,62b055edf6ce67b0502628ed,64d2fd46c836a06233681665,64dc7d767fbf6820418b8b30,,,,,,,sngl,resources/DG.BMP,resources/Empty.png,Door1,-0.292592593,-0.028703704,1,0,0,0.446,optionLeft,30,12385,6,5,0,5,0,1,,,,,,,,,,,,,,,,,,,,,,,,,,,,,,,,,,,,,,,
,,,,,,,,2023-08-16_08h40.45.553,HF_wild_card,2022.2.4,Win32,59.99520038,62b055edf6ce67b0502628ed,64d2fd46c836a06233681665,64dc7d767fbf6820418b8b30,,,,,,,sngl,resources/Empty.png,resources/DB.BMP,WildCard_Ex,0.193518519,0.003703704,1,0,0,0.42,optionRight,45,12430,6,6,0,6,0,1,,,,,,,,,,,,,,,,,,,,,,,,,,,,,,,,,,,,,,,
,,,,,,,,2023-08-16_08h40.45.553,HF_wild_card,2022.2.4,Win32,59.99520038,62b055edf6ce67b0502628ed,64d2fd46c836a06233681665,64dc7d767fbf6820418b8b30,,,,,,,decisionTrl,resources/DR.BMP,resources/DB.BMP,Door3,-0.27037037,-0.032407407,1,0,0,0.4988,optionLeft,70,12500,6,7,0,7,0,1,,,,,,,,,,,,,,,,,,,,,,,,,,,,,,,,,,,,,,,
,,,,,,,,2023-08-16_08h40.45.553,HF_wild_card,2022.2.4,Win32,59.99520038,62b055edf6ce67b0502628ed,64d2fd46c836a06233681665,64dc7d767fbf6820418b8b30,,,,,,,decisionTrl,resources/DP.BMP,resources/DG.BMP,Door2,-0.337962963,0.007407407,1,0,0,0.5154,optionLeft,40,12540,6,8,0,8,0,1,,,,,,,,,,,,,,,,,,,,,,,,,,,,,,,,,,,,,,,
,,,,,,,,2023-08-16_08h40.45.553,HF_wild_card,2022.2.4,Win32,59.99520038,62b055edf6ce67b0502628ed,64d2fd46c836a06233681665,64dc7d767fbf6820418b8b30,,,,,,,decisionTrl,resources/DG.BMP,resources/DP.BMP,Door2,0.164814815,0.023148148,1,0,0,0.699,optionRight,20,12560,6,9,0,9,0,1,,,,,,,,,,,,,,,,,,,,,,,,,,,,,,,,,,,,,,,
,,,,,,,,2023-08-16_08h40.45.553,HF_wild_card,2022.2.4,Win32,59.99520038,62b055edf6ce67b0502628ed,64d2fd46c836a06233681665,64dc7d767fbf6820418b8b30,,,,,,,sngl,resources/DR.BMP,resources/Empty.png,Door3,-0.365740741,-0.013888889,1,0,0,0.4621,optionLeft,70,12630,6,10,0,10,0,1,,,,,,,,,,,,,,,,,,,,,,,,,,,,,,,,,,,,,,,
,,,,,,,,2023-08-16_08h40.45.553,HF_wild_card,2022.2.4,Win32,59.99520038,62b055edf6ce67b0502628ed,64d2fd46c836a06233681665,64dc7d767fbf6820418b8b30,,,,,,,decisionTrl,resources/DB.BMP,resources/DP.BMP,WildCard_Ex,-0.250925926,-0.014814815,1,0,0,0.6152,optionLeft,45,12675,6,11,0,11,0,1,,,,,,,,,,,,,,,,,,,,,,,,,,,,,,,,,,,,,,,
,,,,,,,,2023-08-16_08h40.45.553,HF_wild_card,2022.2.4,Win32,59.99520038,62b055edf6ce67b0502628ed,64d2fd46c836a06233681665,64dc7d767fbf6820418b8b30,,,,,,,ctch,resources/DG.BMP,resources/DBN.BMP,Door4,0.242592593,0.001851852,1,0,0,0.531,optionRight,80,12755,6,12,0,12,0,1,,,,,,,,,,,,,,,,,,,,,,,,,,,,,,,,,,,,,,,
,,,,,,,,2023-08-16_08h40.45.553,HF_wild_card,2022.2.4,Win32,59.99520038,62b055edf6ce67b0502628ed,64d2fd46c836a06233681665,64dc7d767fbf6820418b8b30,,,,,,,decisionTrl,resources/DBN.BMP,resources/DR.BMP,Door4,-0.299074074,-0.031481481,1,0,0,0.7,optionLeft,80,12835,6,13,0,13,0,1,,,,,,,,,,,,,,,,,,,,,,,,,,,,,,,,,,,,,,,
,,,,,,,,2023-08-16_08h40.45.553,HF_wild_card,2022.2.4,Win32,59.99520038,62b055edf6ce67b0502628ed,64d2fd46c836a06233681665,64dc7d767fbf6820418b8b30,,,,,,,ctch,resources/DBN.BMP,resources/DG.BMP,Door4,-0.312962963,-0.026851852,1,0,0,0.4816,optionLeft,60,12895,6,14,0,14,0,1,,,,,,,,,,,,,,,,,,,,,,,,,,,,,,,,,,,,,,,
,,,,,,,,2023-08-16_08h40.45.553,HF_wild_card,2022.2.4,Win32,59.99520038,62b055edf6ce67b0502628ed,64d2fd46c836a06233681665,64dc7d767fbf6820418b8b30,,,,,,,sngl,resources/Empty.png,resources/DR.BMP,Door3,0.188888889,0.006481481,1,0,0,0.4153,optionRight,70,12965,6,15,0,15,0,1,,,,,,,,,,,,,,,,,,,,,,,,,,,,,,,,,,,,,,,
,,,,,,,,2023-08-16_08h40.45.553,HF_wild_card,2022.2.4,Win32,59.99520038,62b055edf6ce67b0502628ed,64d2fd46c836a06233681665,64dc7d767fbf6820418b8b30,,,,,,,sngl,resources/Empty.png,resources/DBN.BMP,Door4,0.259259259,0.017592593,1,0,0,0.4317,optionRight,80,13045,6,16,0,16,0,1,,,,,,,,,,,,,,,,,,,,,,,,,,,,,,,,,,,,,,,
,,,,,,,,2023-08-16_08h40.45.553,HF_wild_card,2022.2.4,Win32,59.99520038,62b055edf6ce67b0502628ed,64d2fd46c836a06233681665,64dc7d767fbf6820418b8b30,,,,,,,decisionTrl,resources/DG.BMP,resources/DP.BMP,Door1,-0.22962963,-0.021296296,1,0,0,1.3489,optionLeft,30,13075,6,17,0,17,0,1,,,,,,,,,,,,,,,,,,,,,,,,,,,,,,,,,,,,,,,
,,,,,,,,2023-08-16_08h40.45.553,HF_wild_card,2022.2.4,Win32,59.99520038,62b055edf6ce67b0502628ed,64d2fd46c836a06233681665,64dc7d767fbf6820418b8b30,,,,,,,decisionTrl,resources/DBN.BMP,resources/DR.BMP,Door3,0.306481481,0.015740741,1,0,0,0.8833,optionRight,70,13145,6,18,0,18,0,1,,,,,,,,,,,,,,,,,,,,,,,,,,,,,,,,,,,,,,,
,,,,,,,,2023-08-16_08h40.45.553,HF_wild_card,2022.2.4,Win32,59.99520038,62b055edf6ce67b0502628ed,64d2fd46c836a06233681665,64dc7d767fbf6820418b8b30,,,,,,,decisionTrl,resources/DB.BMP,resources/DG.BMP,WildCard_Ex,-0.162962963,-0.015740741,1,0,0,0.4706,optionLeft,45,13190,6,19,0,19,0,1,,,,,,,,,,,,,,,,,,,,,,,,,,,,,,,,,,,,,,,
,,,,,,,,2023-08-16_08h40.45.553,HF_wild_card,2022.2.4,Win32,59.99520038,62b055edf6ce67b0502628ed,64d2fd46c836a06233681665,64dc7d767fbf6820418b8b30,,,,,,,ctch,resources/DP.BMP,resources/DR.BMP,Door3,0.20462963,0.009259259,1,0,0,0.5326,optionRight,70,13260,6,20,0,20,0,1,,,,,,,,,,,,,,,,,,,,,,,,,,,,,,,,,,,,,,,
,,,,,,,,2023-08-16_08h40.45.553,HF_wild_card,2022.2.4,Win32,59.99520038,62b055edf6ce67b0502628ed,64d2fd46c836a06233681665,64dc7d767fbf6820418b8b30,,,,,,,decisionTrl,resources/DBN.BMP,resources/DR.BMP,Door4,-0.262037037,-0.014814815,1,0,0,0.6158,optionLeft,80,13340,6,21,0,21,0,1,,,,,,,,,,,,,,,,,,,,,,,,,,,,,,,,,,,,,,,
,,,,,,,,2023-08-16_08h40.45.553,HF_wild_card,2022.2.4,Win32,59.99520038,62b055edf6ce67b0502628ed,64d2fd46c836a06233681665,64dc7d767fbf6820418b8b30,,,,,,,sngl,resources/Empty.png,resources/DB.BMP,WildCard_Ex,0.209259259,-0.000925926,1,0,0,0.4324,optionRight,55,13395,6,22,0,22,0,1,,,,,,,,,,,,,,,,,,,,,,,,,,,,,,,,,,,,,,,
,,,,,,,,2023-08-16_08h40.45.553,HF_wild_card,2022.2.4,Win32,59.99520038,62b055edf6ce67b0502628ed,64d2fd46c836a06233681665,64dc7d767fbf6820418b8b30,,,,,,,sngl,resources/DBN.BMP,resources/Empty.png,Door4,-0.228703704,-0.02037037,1,0,0,0.415,optionLeft,60,13455,6,23,0,23,0,1,,,,,,,,,,,,,,,,,,,,,,,,,,,,,,,,,,,,,,,
,,,,,,,,2023-08-16_08h40.45.553,HF_wild_card,2022.2.4,Win32,59.99520038,62b055edf6ce67b0502628ed,64d2fd46c836a06233681665,64dc7d767fbf6820418b8b30,,,,,,,decisionTrl,resources/DB.BMP,resources/DBN.BMP,Door4,0.260185185,0.012037037,1,0,0,0.5156,optionRight,60,13515,6,24,0,24,0,1,,,,,,,,,,,,,,,,,,,,,,,,,,,,,,,,,,,,,,,
,,,,,,,,2023-08-16_08h40.45.553,HF_wild_card,2022.2.4,Win32,59.99520038,62b055edf6ce67b0502628ed,64d2fd46c836a06233681665,64dc7d767fbf6820418b8b30,,,,,,,ctch,resources/DP.BMP,resources/DR.BMP,Door3,0.231481481,0.018518519,1,0,0,0.6378,optionRight,70,13585,6,25,0,25,0,1,,,,,,,,,,,,,,,,,,,,,,,,,,,,,,,,,,,,,,,
,,,,,,,,2023-08-16_08h40.45.553,HF_wild_card,2022.2.4,Win32,59.99520038,62b055edf6ce67b0502628ed,64d2fd46c836a06233681665,64dc7d767fbf6820418b8b30,,,,,,,decisionTrl,resources/DR.BMP,resources/DBN.BMP,Door3,-0.330555556,-0.034259259,1,0,0,0.4751,optionLeft,70,13655,6,26,0,26,0,1,,,,,,,,,,,,,,,,,,,,,,,,,,,,,,,,,,,,,,,
,,,,,,,,2023-08-16_08h40.45.553,HF_wild_card,2022.2.4,Win32,59.99520038,62b055edf6ce67b0502628ed,64d2fd46c836a06233681665,64dc7d767fbf6820418b8b30,,,,,,,decisionTrl,resources/DG.BMP,resources/DP.BMP,Door1,-0.183333333,-0.012037037,1,0,0,0.7156,optionLeft,30,13685,6,27,0,27,0,1,,,,,,,,,,,,,,,,,,,,,,,,,,,,,,,,,,,,,,,
,,,,,,,,2023-08-16_08h40.45.553,HF_wild_card,2022.2.4,Win32,59.99520038,62b055edf6ce67b0502628ed,64d2fd46c836a06233681665,64dc7d767fbf6820418b8b30,,,,,,,decisionTrl,resources/DP.BMP,resources/DG.BMP,Door2,-0.230555556,-0.012962963,1,0,0,0.4984,optionLeft,20,13705,6,28,0,28,0,1,,,,,,,,,,,,,,,,,,,,,,,,,,,,,,,,,,,,,,,
,,,,,,,,2023-08-16_08h40.45.553,HF_wild_card,2022.2.4,Win32,59.99520038,62b055edf6ce67b0502628ed,64d2fd46c836a06233681665,64dc7d767fbf6820418b8b30,,,,,,,decisionTrl,resources/DP.BMP,resources/DG.BMP,Door1,0.281481481,0.001851852,1,0,0,0.5991,optionRight,30,13735,6,29,0,29,0,1,,,,,,,,,,,,,,,,,,,,,,,,,,,,,,,,,,,,,,,
,,,,,,,,2023-08-16_08h40.45.553,HF_wild_card,2022.2.4,Win32,59.99520038,62b055edf6ce67b0502628ed,64d2fd46c836a06233681665,64dc7d767fbf6820418b8b30,,,,,,,sngl,resources/Empty.png,resources/DP.BMP,Door2,0.511111111,0.001851852,1,0,0,0.4822,optionRight,40,13775,6,30,0,30,0,1,,,,,,,,,,,,,,,,,,,,,,,,,,,,,,,,,,,,,,,
,,,,,,,,2023-08-16_08h40.45.553,HF_wild_card,2022.2.4,Win32,59.99520038,62b055edf6ce67b0502628ed,64d2fd46c836a06233681665,64dc7d767fbf6820418b8b30,,,,,,,decisionTrl,resources/DP.BMP,resources/DB.BMP,WildCard_Ex,0.191666667,0.011111111,1,0,0,0.849,optionRight,55,13830,6,31,0,31,0,1,,,,,,,,,,,,,,,,,,,,,,,,,,,,,,,,,,,,,,,
,,,,,,,,2023-08-16_08h40.45.553,HF_wild_card,2022.2.4,Win32,59.99520038,62b055edf6ce67b0502628ed,64d2fd46c836a06233681665,64dc7d767fbf6820418b8b30,,,,,,,decisionTrl,resources/DR.BMP,resources/DBN.BMP,Door4,0.194444444,0.007407407,1,0,0,0.7996,optionRight,60,13890,6,32,0,32,0,1,,,,,,,,,,,,,,,,,,,,,,,,,,,,,,,,,,,,,,,
,,,,,,,,2023-08-16_08h40.45.553,HF_wild_card,2022.2.4,Win32,59.99520038,62b055edf6ce67b0502628ed,64d2fd46c836a06233681665,64dc7d767fbf6820418b8b30,,,,,,,decisionTrl,resources/DG.BMP,resources/DP.BMP,Door2,0.160185185,0.006481481,1,0,0,0.5663,optionRight,40,13930,6,33,0,33,0,1,,,,,,,,,,,,,,,,,,,,,,,,,,,,,,,,,,,,,,,
,,,,,,,,2023-08-16_08h40.45.553,HF_wild_card,2022.2.4,Win32,59.99520038,62b055edf6ce67b0502628ed,64d2fd46c836a06233681665,64dc7d767fbf6820418b8b30,,,,,,,sngl,resources/Empty.png,resources/DG.BMP,Door1,0.162037037,0.015740741,1,0,0,0.4812,optionRight,30,13960,6,34,0,34,0,1,,,,,,,,,,,,,,,,,,,,,,,,,,,,,,,,,,,,,,,
,,,,,,,,2023-08-16_08h40.45.553,HF_wild_card,2022.2.4,Win32,59.99520038,62b055edf6ce67b0502628ed,64d2fd46c836a06233681665,64dc7d767fbf6820418b8b30,,,,,,,decisionTrl,resources/DP.BMP,resources/DG.BMP,Door2,-0.175,-0.02962963,1,0,0,0.5986,optionLeft,40,14000,6,35,0,35,0,1,,,,,,,,,,,,,,,,,,,,,,,,,,,,,,,,,,,,,,,
,,,,,,,,2023-08-16_08h40.45.553,HF_wild_card,2022.2.4,Win32,59.99520038,62b055edf6ce67b0502628ed,64d2fd46c836a06233681665,64dc7d767fbf6820418b8b30,,,,,,,decisionTrl,resources/DBN.BMP,resources/DB.BMP,Door4,-0.260185185,-0.021296296,1,0,0,0.549,optionLeft,80,14080,6,36,0,36,0,1,,,,,,,,,,,,,,,,,,,,,,,,,,,,,,,,,,,,,,,
,,,,,,,,2023-08-16_08h40.45.553,HF_wild_card,2022.2.4,Win32,59.99520038,62b055edf6ce67b0502628ed,64d2fd46c836a06233681665,64dc7d767fbf6820418b8b30,,,,,,,decisionTrl,resources/DBN.BMP,resources/DR.BMP,Door4,-0.334259259,-0.032407407,1,0,0,0.6324,optionLeft,80,14160,6,37,0,37,0,1,,,,,,,,,,,,,,,,,,,,,,,,,,,,,,,,,,,,,,,
,,,,,,,,2023-08-16_08h40.45.553,HF_wild_card,2022.2.4,Win32,59.99520038,62b055edf6ce67b0502628ed,64d2fd46c836a06233681665,64dc7d767fbf6820418b8b30,,,,,,,decisionTrl,resources/DR.BMP,resources/DBN.BMP,Door3,-0.326851852,-0.025925926,1,0,0,0.8495,optionLeft,70,14230,6,38,0,38,0,1,,,,,,,,,,,,,,,,,,,,,,,,,,,,,,,,,,,,,,,
,,,,,,,,2023-08-16_08h40.45.553,HF_wild_card,2022.2.4,Win32,59.99520038,62b055edf6ce67b0502628ed,64d2fd46c836a06233681665,64dc7d767fbf6820418b8b30,,,,,,,ctch,resources/DR.BMP,resources/DP.BMP,Door3,-0.262962963,-0.039814815,1,0,0,0.4818,optionLeft,70,14300,6,39,0,39,0,1,,,,,,,,,,,,,,,,,,,,,,,,,,,,,,,,,,,,,,,
,,,,,,,,2023-08-16_08h40.45.553,HF_wild_card,2022.2.4,Win32,59.99520038,62b055edf6ce67b0502628ed,64d2fd46c836a06233681665,64dc7d767fbf6820418b8b30,,,,,,,decisionTrl,resources/DB.BMP,resources/DR.BMP,Door3,0.181481481,0.002777778,1,0,0,0.6318,optionRight,70,14370,6,40,0,40,0,1,,,,,,,,,,,,,,,,,,,,,,,,,,,,,,,,,,,,,,,
,,,,,,,,2023-08-16_08h40.45.553,HF_wild_card,2022.2.4,Win32,59.99520038,62b055edf6ce67b0502628ed,64d2fd46c836a06233681665,64dc7d767fbf6820418b8b30,,,,,,,sngl,resources/DP.BMP,resources/Empty.png,Door2,-0.198148148,-0.032407407,1,0,0,0.4484,optionLeft,20,14390,6,41,0,41,0,1,,,,,,,,,,,,,,,,,,,,,,,,,,,,,,,,,,,,,,,
,,,,,,,,2023-08-16_08h40.45.553,HF_wild_card,2022.2.4,Win32,59.99520038,62b055edf6ce67b0502628ed,64d2fd46c836a06233681665,64dc7d767fbf6820418b8b30,,,,,,,sngl,resources/DB.BMP,resources/Empty.png,WildCard_Ex,-0.231481481,-0.042592593,1,0,0,0.4317,optionLeft,55,14445,6,42,0,42,0,1,,,,,,,,,,,,,,,,,,,,,,,,,,,,,,,,,,,,,,,
,,,,,,,,2023-08-16_08h40.45.553,HF_wild_card,2022.2.4,Win32,59.99520038,62b055edf6ce67b0502628ed,64d2fd46c836a06233681665,64dc7d767fbf6820418b8b30,,,,,,,sngl,resources/DB.BMP,resources/Empty.png,WildCard_Ex,-0.230555556,-0.038888889,1,0,0,0.4322,optionLeft,45,14490,6,43,0,43,0,1,,,,,,,,,,,,,,,,,,,,,,,,,,,,,,,,,,,,,,,
,,,,,,,,2023-08-16_08h40.45.553,HF_wild_card,2022.2.4,Win32,59.99520038,62b055edf6ce67b0502628ed,64d2fd46c836a06233681665,64dc7d767fbf6820418b8b30,,,,,,,,,,,,,,,,,,,,,,,,,,5,0,5,0,1,,,,,,,,,,,,,,,,,,,,,,,,,,,,,,,,,,
,,,,,,,,2023-08-16_08h40.45.553,HF_wild_card,2022.2.4,Win32,59.99520038,62b055edf6ce67b0502628ed,64d2fd46c836a06233681665,64dc7d767fbf6820418b8b30,,,,,,,decisionTrl,resources/DR.BMP,resources/DBN.BMP,Door4,0.210185185,-0.046296296,1,0,0,0.6896,optionRight,80,14570,7,0,0,0,0,1,,,,,,,,,,,,,,,,,,,,,,,,,,,,,,,,,,,,,,,
,,,,,,,,2023-08-16_08h40.45.553,HF_wild_card,2022.2.4,Win32,59.99520038,62b055edf6ce67b0502628ed,64d2fd46c836a06233681665,64dc7d767fbf6820418b8b30,,,,,,,ctch,resources/DG.BMP,resources/DBN.BMP,Door4,0.257407407,-0.012962963,1,0,0,0.5312,optionRight,80,14650,7,1,0,1,0,1,,,,,,,,,,,,,,,,,,,,,,,,,,,,,,,,,,,,,,,
,,,,,,,,2023-08-16_08h40.45.553,HF_wild_card,2022.2.4,Win32,59.99520038,62b055edf6ce67b0502628ed,64d2fd46c836a06233681665,64dc7d767fbf6820418b8b30,,,,,,,decisionTrl,resources/DR.BMP,resources/DBN.BMP,Door4,0.176851852,0.023148148,1,0,0,0.7827,optionRight,80,14730,7,2,0,2,0,1,,,,,,,,,,,,,,,,,,,,,,,,,,,,,,,,,,,,,,,
,,,,,,,,2023-08-16_08h40.45.553,HF_wild_card,2022.2.4,Win32,59.99520038,62b055edf6ce67b0502628ed,64d2fd46c836a06233681665,64dc7d767fbf6820418b8b30,,,,,,,decisionTrl,resources/DG.BMP,resources/DP.BMP,Door1,-0.248148148,-0.028703704,1,0,0,0.8477,optionLeft,30,14760,7,3,0,3,0,1,,,,,,,,,,,,,,,,,,,,,,,,,,,,,,,,,,,,,,,
,,,,,,,,2023-08-16_08h40.45.553,HF_wild_card,2022.2.4,Win32,59.99520038,62b055edf6ce67b0502628ed,64d2fd46c836a06233681665,64dc7d767fbf6820418b8b30,,,,,,,decisionTrl,resources/DP.BMP,resources/DG.BMP,Door2,-0.201851852,-0.028703704,1,0,0,0.832,optionLeft,20,14780,7,4,0,4,0,1,,,,,,,,,,,,,,,,,,,,,,,,,,,,,,,,,,,,,,,
,,,,,,,,2023-08-16_08h40.45.553,HF_wild_card,2022.2.4,Win32,59.99520038,62b055edf6ce67b0502628ed,64d2fd46c836a06233681665,64dc7d767fbf6820418b8b30,,,,,,,ctch,resources/DP.BMP,resources/DR.BMP,Door3,0.251851852,0.017592593,1,0,0,0.5982,optionRight,70,14850,7,5,0,5,0,1,,,,,,,,,,,,,,,,,,,,,,,,,,,,,,,,,,,,,,,
,,,,,,,,2023-08-16_08h40.45.553,HF_wild_card,2022.2.4,Win32,59.99520038,62b055edf6ce67b0502628ed,64d2fd46c836a06233681665,64dc7d767fbf6820418b8b30,,,,,,,decisionTrl,resources/DP.BMP,resources/DG.BMP,Door1,0.265740741,0.037962963,1,0,0,0.7988,optionRight,30,14880,7,6,0,6,0,1,,,,,,,,,,,,,,,,,,,,,,,,,,,,,,,,,,,,,,,
,,,,,,,,2023-08-16_08h40.45.553,HF_wild_card,2022.2.4,Win32,59.99520038,62b055edf6ce67b0502628ed,64d2fd46c836a06233681665,64dc7d767fbf6820418b8b30,,,,,,,ctch,resources/DBN.BMP,resources/DG.BMP,Door4,-0.221296296,-0.012037037,1,0,0,0.5147,optionLeft,80,14960,7,7,0,7,0,1,,,,,,,,,,,,,,,,,,,,,,,,,,,,,,,,,,,,,,,
,,,,,,,,2023-08-16_08h40.45.553,HF_wild_card,2022.2.4,Win32,59.99520038,62b055edf6ce67b0502628ed,64d2fd46c836a06233681665,64dc7d767fbf6820418b8b30,,,,,,,decisionTrl,resources/DG.BMP,resources/DP.BMP,Door1,-0.234259259,-0.011111111,1,0,0,0.6829,optionLeft,30,14990,7,8,0,8,0,1,,,,,,,,,,,,,,,,,,,,,,,,,,,,,,,,,,,,,,,
,,,,,,,,2023-08-16_08h40.45.553,HF_wild_card,2022.2.4,Win32,59.99520038,62b055edf6ce67b0502628ed,64d2fd46c836a06233681665,64dc7d767fbf6820418b8b30,,,,,,,ctch,resources/DR.BMP,resources/DP.BMP,Door3,-0.180555556,-0.025,1,0,0,0.5991,optionLeft,70,15060,7,9,0,9,0,1,,,,,,,,,,,,,,,,,,,,,,,,,,,,,,,,,,,,,,,
,,,,,,,,2023-08-16_08h40.45.553,HF_wild_card,2022.2.4,Win32,59.99520038,62b055edf6ce67b0502628ed,64d2fd46c836a06233681665,64dc7d767fbf6820418b8b30,,,,,,,decisionTrl,resources/DG.BMP,resources/DP.BMP,Door2,0.224074074,0,1,0,0,0.666,optionRight,20,15080,7,10,0,10,0,1,,,,,,,,,,,,,,,,,,,,,,,,,,,,,,,,,,,,,,,
,,,,,,,,2023-08-16_08h40.45.553,HF_wild_card,2022.2.4,Win32,59.99520038,62b055edf6ce67b0502628ed,64d2fd46c836a06233681665,64dc7d767fbf6820418b8b30,,,,,,,decisionTrl,resources/DP.BMP,resources/DG.BMP,Door2,-0.284259259,-0.035185185,1,0,0,0.4988,optionLeft,20,15100,7,11,0,11,0,1,,,,,,,,,,,,,,,,,,,,,,,,,,,,,,,,,,,,,,,
,,,,,,,,2023-08-16_08h40.45.553,HF_wild_card,2022.2.4,Win32,59.99520038,62b055edf6ce67b0502628ed,64d2fd46c836a06233681665,64dc7d767fbf6820418b8b30,,,,,,,ctch,resources/DG.BMP,resources/DBN.BMP,Door4,0.314814815,0.017592593,1,0,0,0.53,optionRight,80,15180,7,12,0,12,0,1,,,,,,,,,,,,,,,,,,,,,,,,,,,,,,,,,,,,,,,
,,,,,,,,2023-08-16_08h40.45.553,HF_wild_card,2022.2.4,Win32,59.99520038,62b055edf6ce67b0502628ed,64d2fd46c836a06233681665,64dc7d767fbf6820418b8b30,,,,,,,decisionTrl,resources/DG.BMP,resources/DP.BMP,Door2,0.267592593,-0.000925926,1,0,0,0.6823,optionRight,40,15220,7,13,0,13,0,1,,,,,,,,,,,,,,,,,,,,,,,,,,,,,,,,,,,,,,,
,,,,,,,,2023-08-16_08h40.45.553,HF_wild_card,2022.2.4,Win32,59.99520038,62b055edf6ce67b0502628ed,64d2fd46c836a06233681665,64dc7d767fbf6820418b8b30,,,,,,,ctch,resources/DR.BMP,resources/DP.BMP,Door3,-0.268518519,-0.032407407,1,0,0,0.5817,optionLeft,70,15290,7,14,0,14,0,1,,,,,,,,,,,,,,,,,,,,,,,,,,,,,,,,,,,,,,,
,,,,,,,,2023-08-16_08h40.45.553,HF_wild_card,2022.2.4,Win32,59.99520038,62b055edf6ce67b0502628ed,64d2fd46c836a06233681665,64dc7d767fbf6820418b8b30,,,,,,,decisionTrl,resources/DBN.BMP,resources/DR.BMP,Door4,-0.212962963,-0.007407407,1,0,0,0.6989,optionLeft,60,15350,7,15,0,15,0,1,,,,,,,,,,,,,,,,,,,,,,,,,,,,,,,,,,,,,,,
,,,,,,,,2023-08-16_08h40.45.553,HF_wild_card,2022.2.4,Win32,59.99520038,62b055edf6ce67b0502628ed,64d2fd46c836a06233681665,64dc7d767fbf6820418b8b30,,,,,,,decisionTrl,resources/DP.BMP,resources/DG.BMP,Door2,-0.238888889,-0.036111111,1,0,0,0.648,optionLeft,20,15370,7,16,0,16,0,1,,,,,,,,,,,,,,,,,,,,,,,,,,,,,,,,,,,,,,,
,,,,,,,,2023-08-16_08h40.45.553,HF_wild_card,2022.2.4,Win32,59.99520038,62b055edf6ce67b0502628ed,64d2fd46c836a06233681665,64dc7d767fbf6820418b8b30,,,,,,,ctch,resources/DBN.BMP,resources/DG.BMP,Door4,-0.247222222,-0.012962963,1,0,0,0.4489,optionLeft,80,15450,7,17,0,17,0,1,,,,,,,,,,,,,,,,,,,,,,,,,,,,,,,,,,,,,,,
,,,,,,,,2023-08-16_08h40.45.553,HF_wild_card,2022.2.4,Win32,59.99520038,62b055edf6ce67b0502628ed,64d2fd46c836a06233681665,64dc7d767fbf6820418b8b30,,,,,,,ctch,resources/DG.BMP,resources/DBN.BMP,Door4,0.191666667,0.012037037,1,0,0,0.4627,optionRight,80,15530,7,18,0,18,0,1,,,,,,,,,,,,,,,,,,,,,,,,,,,,,,,,,,,,,,,
,,,,,,,,2023-08-16_08h40.45.553,HF_wild_card,2022.2.4,Win32,59.99520038,62b055edf6ce67b0502628ed,64d2fd46c836a06233681665,64dc7d767fbf6820418b8b30,,,,,,,decisionTrl,resources/DR.BMP,resources/DBN.BMP,Door3,-0.391666667,-0.001851852,1,0,0,0.6322,optionLeft,70,15600,7,19,0,19,0,1,,,,,,,,,,,,,,,,,,,,,,,,,,,,,,,,,,,,,,,
,,,,,,,,2023-08-16_08h40.45.553,HF_wild_card,2022.2.4,Win32,59.99520038,62b055edf6ce67b0502628ed,64d2fd46c836a06233681665,64dc7d767fbf6820418b8b30,,,,,,,decisionTrl,resources/DR.BMP,resources/DBN.BMP,Door3,-0.261111111,-0.012962963,1,0,0,0.5489,optionLeft,70,15670,7,20,0,20,0,1,,,,,,,,,,,,,,,,,,,,,,,,,,,,,,,,,,,,,,,
,,,,,,,,2023-08-16_08h40.45.553,HF_wild_card,2022.2.4,Win32,59.99520038,62b055edf6ce67b0502628ed,64d2fd46c836a06233681665,64dc7d767fbf6820418b8b30,,,,,,,decisionTrl,resources/DP.BMP,resources/DG.BMP,Door2,-0.161111111,-0.016666667,1,0,0,0.4989,optionLeft,20,15690,7,21,0,21,0,1,,,,,,,,,,,,,,,,,,,,,,,,,,,,,,,,,,,,,,,
,,,,,,,,2023-08-16_08h40.45.553,HF_wild_card,2022.2.4,Win32,59.99520038,62b055edf6ce67b0502628ed,64d2fd46c836a06233681665,64dc7d767fbf6820418b8b30,,,,,,,decisionTrl,resources/DR.BMP,resources/DBN.BMP,Door3,-0.209259259,-0.027777778,1,0,0,0.4821,optionLeft,70,15760,7,22,0,22,0,1,,,,,,,,,,,,,,,,,,,,,,,,,,,,,,,,,,,,,,,
,,,,,,,,2023-08-16_08h40.45.553,HF_wild_card,2022.2.4,Win32,59.99520038,62b055edf6ce67b0502628ed,64d2fd46c836a06233681665,64dc7d767fbf6820418b8b30,,,,,,,decisionTrl,resources/DBN.BMP,resources/DR.BMP,Door4,-0.240740741,-0.030555556,1,0,0,0.4991,optionLeft,60,15820,7,23,0,23,0,1,,,,,,,,,,,,,,,,,,,,,,,,,,,,,,,,,,,,,,,
,,,,,,,,2023-08-16_08h40.45.553,HF_wild_card,2022.2.4,Win32,59.99520038,62b055edf6ce67b0502628ed,64d2fd46c836a06233681665,64dc7d767fbf6820418b8b30,,,,,,,decisionTrl,resources/DBN.BMP,resources/DR.BMP,Door3,0.17962963,0.001851852,1,0,0,0.5822,optionRight,70,15890,7,24,0,24,0,1,,,,,,,,,,,,,,,,,,,,,,,,,,,,,,,,,,,,,,,
,,,,,,,,2023-08-16_08h40.45.553,HF_wild_card,2022.2.4,Win32,59.99520038,62b055edf6ce67b0502628ed,64d2fd46c836a06233681665,64dc7d767fbf6820418b8b30,,,,,,,ctch,resources/DR.BMP,resources/DP.BMP,Door3,-0.25,-0.027777778,1,0,0,0.4151,optionLeft,70,15960,7,25,0,25,0,1,,,,,,,,,,,,,,,,,,,,,,,,,,,,,,,,,,,,,,,
,,,,,,,,2023-08-16_08h40.45.553,HF_wild_card,2022.2.4,Win32,59.99520038,62b055edf6ce67b0502628ed,64d2fd46c836a06233681665,64dc7d767fbf6820418b8b30,,,,,,,decisionTrl,resources/DBN.BMP,resources/DR.BMP,Door3,0.181481481,-0.00462963,1,0,0,0.4485,optionRight,70,16030,7,26,0,26,0,1,,,,,,,,,,,,,,,,,,,,,,,,,,,,,,,,,,,,,,,
,,,,,,,,2023-08-16_08h40.45.553,HF_wild_card,2022.2.4,Win32,59.99520038,62b055edf6ce67b0502628ed,64d2fd46c836a06233681665,64dc7d767fbf6820418b8b30,,,,,,,decisionTrl,resources/DG.BMP,resources/DP.BMP,Door1,-0.255555556,-0.02962963,1,0,0,0.5981,optionLeft,30,16060,7,27,0,27,0,1,,,,,,,,,,,,,,,,,,,,,,,,,,,,,,,,,,,,,,,
,,,,,,,,2023-08-16_08h40.45.553,HF_wild_card,2022.2.4,Win32,59.99520038,62b055edf6ce67b0502628ed,64d2fd46c836a06233681665,64dc7d767fbf6820418b8b30,,,,,,,decisionTrl,resources/DP.BMP,resources/DG.BMP,Door1,0.25,0.005555556,1,0,0,0.6326,optionRight,30,16090,7,28,0,28,0,1,,,,,,,,,,,,,,,,,,,,,,,,,,,,,,,,,,,,,,,
,,,,,,,,2023-08-16_08h40.45.553,HF_wild_card,2022.2.4,Win32,59.99520038,62b055edf6ce67b0502628ed,64d2fd46c836a06233681665,64dc7d767fbf6820418b8b30,,,,,,,decisionTrl,resources/DR.BMP,resources/DBN.BMP,Door3,-0.219444444,-0.025925926,1,0,0,0.5657,optionLeft,70,16160,7,29,0,29,0,1,,,,,,,,,,,,,,,,,,,,,,,,,,,,,,,,,,,,,,,
,,,,,,,,2023-08-16_08h40.45.553,HF_wild_card,2022.2.4,Win32,59.99520038,62b055edf6ce67b0502628ed,64d2fd46c836a06233681665,64dc7d767fbf6820418b8b30,,,,,,,decisionTrl,resources/DG.BMP,resources/DP.BMP,Door2,0.172222222,-0.00462963,1,0,0,0.5155,optionRight,20,16180,7,30,0,30,0,1,,,,,,,,,,,,,,,,,,,,,,,,,,,,,,,,,,,,,,,
,,,,,,,,2023-08-16_08h40.45.553,HF_wild_card,2022.2.4,Win32,59.99520038,62b055edf6ce67b0502628ed,64d2fd46c836a06233681665,64dc7d767fbf6820418b8b30,,,,,,,ctch,resources/DBN.BMP,resources/DG.BMP,Door4,-0.300925926,-0.025925926,1,0,0,0.5138,optionLeft,80,16260,7,31,0,31,0,1,,,,,,,,,,,,,,,,,,,,,,,,,,,,,,,,,,,,,,,
,,,,,,,,2023-08-16_08h40.45.553,HF_wild_card,2022.2.4,Win32,59.99520038,62b055edf6ce67b0502628ed,64d2fd46c836a06233681665,64dc7d767fbf6820418b8b30,,,,,,,decisionTrl,resources/DBN.BMP,resources/DR.BMP,Door3,0.222222222,0.016666667,1,0,0,0.5826,optionRight,70,16330,7,32,0,32,0,1,,,,,,,,,,,,,,,,,,,,,,,,,,,,,,,,,,,,,,,
,,,,,,,,2023-08-16_08h40.45.553,HF_wild_card,2022.2.4,Win32,59.99520038,62b055edf6ce67b0502628ed,64d2fd46c836a06233681665,64dc7d767fbf6820418b8b30,,,,,,,ctch,resources/DP.BMP,resources/DR.BMP,Door3,0.199074074,0.012962963,1,0,0,0.4319,optionRight,70,16400,7,33,0,33,0,1,,,,,,,,,,,,,,,,,,,,,,,,,,,,,,,,,,,,,,,
,,,,,,,,2023-08-16_08h40.45.553,HF_wild_card,2022.2.4,Win32,59.99520038,62b055edf6ce67b0502628ed,64d2fd46c836a06233681665,64dc7d767fbf6820418b8b30,,,,,,,ctch,resources/DP.BMP,resources/DR.BMP,Door3,0.294444444,0.025925926,1,0,0,0.4322,optionRight,70,16470,7,34,0,34,0,1,,,,,,,,,,,,,,,,,,,,,,,,,,,,,,,,,,,,,,,
,,,,,,,,2023-08-16_08h40.45.553,HF_wild_card,2022.2.4,Win32,59.99520038,62b055edf6ce67b0502628ed,64d2fd46c836a06233681665,64dc7d767fbf6820418b8b30,,,,,,,decisionTrl,resources/DBN.BMP,resources/DR.BMP,Door3,0.200925926,0.019444444,1,0,0,0.4486,optionRight,70,16540,7,35,0,35,0,1,,,,,,,,,,,,,,,,,,,,,,,,,,,,,,,,,,,,,,,
,,,,,,,,2023-08-16_08h40.45.553,HF_wild_card,2022.2.4,Win32,59.99520038,62b055edf6ce67b0502628ed,64d2fd46c836a06233681665,64dc7d767fbf6820418b8b30,,,,,,,,,,,,,,,,,,,,,,,,,,6,0,6,0,1,,,,,,,,,,,,,,,,,,,,,,,,,,,,,,,,,,
,,,,,,,,2023-08-16_08h40.45.553,HF_wild_card,2022.2.4,Win32,59.99520038,62b055edf6ce67b0502628ed,64d2fd46c836a06233681665,64dc7d767fbf6820418b8b30,,,,,,,,,,,,,,,,,,,,,,,,,,,,,,,4,,,,,,,,,,,,,,,,,,,,,,,,,,,,,,,,,
,,,,,,,,2023-08-16_08h40.45.553,HF_wild_card,2022.2.4,Win32,59.99520038,62b055edf6ce67b0502628ed,64d2fd46c836a06233681665,64dc7d767fbf6820418b8b30,,,,,,,,,,,,,,,,,,,,,,,,,,,,,,,,,,,,,,,,,,,,,,,,,,,,,,,,,,,,,,,,
,,,,,,,,2023-08-16_08h40.45.553,HF_wild_card,2022.2.4,Win32,59.99520038,62b055edf6ce67b0502628ed,64d2fd46c836a06233681665,64dc7d767fbf6820418b8b30,,,,,,,,,,,,,,,,,,,,,,,,,,,,,,,,20,Door1,resources/DG.BMP,0,0,0,0,1,,,,,,,,,,,,,,,,,,,,,,,,,
,,,,,,,,2023-08-16_08h40.45.553,HF_wild_card,2022.2.4,Win32,59.99520038,62b055edf6ce67b0502628ed,64d2fd46c836a06233681665,64dc7d767fbf6820418b8b30,,,,,,,,,,,,,,,,,,,,,,,,,,,,,,,,55,WC_extreme,resources/DB.BMP,1,0,1,0,1,,,,,,,,,,,,,,,,,,,,,,,,,
,,,,,,,,2023-08-16_08h40.45.553,HF_wild_card,2022.2.4,Win32,59.99520038,62b055edf6ce67b0502628ed,64d2fd46c836a06233681665,64dc7d767fbf6820418b8b30,,,,,,,,,,,,,,,,,,,,,,,,,,,,,,,,55,WC_nonExtreme,resources/DY.BMP,2,0,2,0,1,,,,,,,,,,,,,,,,,,,,,,,,,
,,,,,,,,2023-08-16_08h40.45.553,HF_wild_card,2022.2.4,Win32,59.99520038,62b055edf6ce67b0502628ed,64d2fd46c836a06233681665,64dc7d767fbf6820418b8b30,,,,,,,,,,,,,,,,,,,,,,,,,,,,,,,,80,Door4,resources/DBN.BMP,3,0,3,0,1,,,,,,,,,,,,,,,,,,,,,,,,,
,,,,,,,,2023-08-16_08h40.45.553,HF_wild_card,2022.2.4,Win32,59.99520038,62b055edf6ce67b0502628ed,64d2fd46c836a06233681665,64dc7d767fbf6820418b8b30,,,,,,,,,,,,,,,,,,,,,,,,,,,,,,,,30,Door2,resources/DP.BMP,4,0,4,0,1,,,,,,,,,,,,,,,,,,,,,,,,,
,,,,,,,,2023-08-16_08h40.45.553,HF_wild_card,2022.2.4,Win32,59.99520038,62b055edf6ce67b0502628ed,64d2fd46c836a06233681665,64dc7d767fbf6820418b8b30,,,,,,,,,,,,,,,,,,,,,,,,,,,,,,,,70,Door3,resources/DR.BMP,5,0,5,0,1,,,,,,,,,,,,,,,,,,,,,,,,,
,,,,,,,,2023-08-16_08h40.45.553,HF_wild_card,2022.2.4,Win32,59.99520038,62b055edf6ce67b0502628ed,64d2fd46c836a06233681665,64dc7d767fbf6820418b8b30,,,,,,,,,,,,,,,,,,,,,,,,,,,,,,,,,,,,,,,,,,,,,,,,,,,,,,,,,,,,,,,,
,,,,,,,,2023-08-16_08h40.45.553,HF_wild_card,2022.2.4,Win32,59.99520038,62b055edf6ce67b0502628ed,64d2fd46c836a06233681665,64dc7d767fbf6820418b8b30,,,,,,,,,,,,,,,,,,,,,,,,,,,,,,,,,,,,,,,,0,0,0,0,1,,,,,,,,,,,,,,,,,,,,
