Condition,Low fixed image (Door1),Low risky image (Door2),High fixed image (Door3),High risky image (Door4),NonExtreme Wild Card 1,NonExtreme Wild Card 2,,date,expName,psychopyVersion,OS,frameRate,PROLIFIC_PID,STUDY_ID,SESSION_ID,mouse_2.x,mouse_2.y,mouse_2.leftButton,mouse_2.midButton,mouse_2.rightButton,mouse_2.clicked_name,Trial Type,Left Option Image,Right Option Image,Chosen Door,mouse.x,mouse.y,mouse.leftButton,mouse.midButton,mouse.rightButton,mouse.time,mouse.clicked_name,Feedback,Cumulative Reward,Block,trial.thisRepN,trial.thisTrialN,trial.thisN,trial.thisIndex,trial.ran,blocks.thisRepN,blocks.thisTrialN,blocks.thisN,blocks.thisIndex,blocks.ran,Money conversion,First Outcome Reported,Shown Door (First Outcome),Displayed Image (First Outcome),outcomes.thisRepN,outcomes.thisTrialN,outcomes.thisN,outcomes.thisIndex,outcomes.ran,judgments.thisRepN,judgments.thisTrialN,judgments.thisN,judgments.thisIndex,judgments.ran,freqMouse.x,freqMouse.y,freqMouse.leftButton,freqMouse.midButton,freqMouse.rightButton,freqMouse.clicked_name,FQJ for first outcome,FQJ for second outcome,Shown Door,Displayed Image,trials.thisRepN,trials.thisTrialN,trials.thisN,trials.thisIndex,trials.ran,judgBlock.thisRepN,judgBlock.thisTrialN,judgBlock.thisN,judgBlock.thisIndex,judgBlock.ran
2,resources/DY.BMP,resources/DG.BMP,resources/DR.BMP,resources/DP.BMP,resources/DB.BMP,resources/DBN.BMP,,2023-08-16_08h09.03.821,HF_wild_card,2022.2.4,Win32,60.0024001,59dd4d2b0fb3a90001bd91f8,64d2fd46c836a06233681665,64dc75f7f001a851bd4411c2,,,,,,,,,,,,,,,,,,,,,,,,,,,,,,,,,,,,,,,,,,,,,,,,,,,,,,,,,,,,,,,,
,,,,,,,,2023-08-16_08h09.03.821,HF_wild_card,2022.2.4,Win32,60.0024001,59dd4d2b0fb3a90001bd91f8,64d2fd46c836a06233681665,64dc75f7f001a851bd4411c2,-0.012962977,-0.424074102,1,0,0,agree,,,,,,,,,,,,,,,,,,,,,,,,,,,,,,,,,,,,,,,,,,,,,,,,,,,,,,,,,,
,,,,,,,,2023-08-16_08h09.03.821,HF_wild_card,2022.2.4,Win32,60.0024001,59dd4d2b0fb3a90001bd91f8,64d2fd46c836a06233681665,64dc75f7f001a851bd4411c2,,,,,,,,,,,,,,,,,,,,,,,,,,,,,,,,,,,,,,,,,,,,,,,,,,,,,,,,,,,,,,,,
,,,,,,,,2023-08-16_08h09.03.821,HF_wild_card,2022.2.4,Win32,60.0024001,59dd4d2b0fb3a90001bd91f8,64d2fd46c836a06233681665,64dc75f7f001a851bd4411c2,,,,,,,decisionTrl,resources/DG.BMP,resources/DY.BMP,Door1,0.05277782,-0.309259273,1,0,0,3.9674,optionRight,30,30,1,0,0,0,0,1,,,,,,,,,,,,,,,,,,,,,,,,,,,,,,,,,,,,,,,
,,,,,,,,2023-08-16_08h09.03.821,HF_wild_card,2022.2.4,Win32,60.0024001,59dd4d2b0fb3a90001bd91f8,64d2fd46c836a06233681665,64dc75f7f001a851bd4411c2,,,,,,,decisionTrl,resources/DP.BMP,resources/DR.BMP,Door4,-0.332407386,-0.001851859,1,0,0,3.9756,optionLeft,60,90,1,1,0,1,0,1,,,,,,,,,,,,,,,,,,,,,,,,,,,,,,,,,,,,,,,
,,,,,,,,2023-08-16_08h09.03.821,HF_wild_card,2022.2.4,Win32,60.0024001,59dd4d2b0fb3a90001bd91f8,64d2fd46c836a06233681665,64dc75f7f001a851bd4411c2,,,,,,,decisionTrl,resources/DBN.BMP,resources/DR.BMP,Door3,0.285185213,-0.080555563,1,0,0,2.4277,optionRight,70,160,1,2,0,2,0,1,,,,,,,,,,,,,,,,,,,,,,,,,,,,,,,,,,,,,,,
,,,,,,,,2023-08-16_08h09.03.821,HF_wild_card,2022.2.4,Win32,60.0024001,59dd4d2b0fb3a90001bd91f8,64d2fd46c836a06233681665,64dc75f7f001a851bd4411c2,,,,,,,decisionTrl,resources/DY.BMP,resources/DG.BMP,Door1,-0.235185199,-0.033333355,1,0,0,2.7856,optionLeft,30,190,1,3,0,3,0,1,,,,,,,,,,,,,,,,,,,,,,,,,,,,,,,,,,,,,,,
,,,,,,,,2023-08-16_08h09.03.821,HF_wild_card,2022.2.4,Win32,60.0024001,59dd4d2b0fb3a90001bd91f8,64d2fd46c836a06233681665,64dc75f7f001a851bd4411c2,,,,,,,decisionTrl,resources/DBN.BMP,resources/DY.BMP,Door1,0.304629714,-0.048148155,1,0,0,2.0114,optionRight,30,220,1,4,0,4,0,1,,,,,,,,,,,,,,,,,,,,,,,,,,,,,,,,,,,,,,,
,,,,,,,,2023-08-16_08h09.03.821,HF_wild_card,2022.2.4,Win32,60.0024001,59dd4d2b0fb3a90001bd91f8,64d2fd46c836a06233681665,64dc75f7f001a851bd4411c2,,,,,,,decisionTrl,resources/DR.BMP,resources/DP.BMP,Door3,-0.349074081,-0.013888889,1,0,0,2.0636,optionLeft,70,290,1,5,0,5,0,1,,,,,,,,,,,,,,,,,,,,,,,,,,,,,,,,,,,,,,,
,,,,,,,,2023-08-16_08h09.03.821,HF_wild_card,2022.2.4,Win32,60.0024001,59dd4d2b0fb3a90001bd91f8,64d2fd46c836a06233681665,64dc75f7f001a851bd4411c2,,,,,,,ctch,resources/DR.BMP,resources/DG.BMP,Door3,-0.369444423,-0.025000007,1,0,0,1.6039,optionLeft,70,360,1,6,0,6,0,1,,,,,,,,,,,,,,,,,,,,,,,,,,,,,,,,,,,,,,,
,,,,,,,,2023-08-16_08h09.03.821,HF_wild_card,2022.2.4,Win32,60.0024001,59dd4d2b0fb3a90001bd91f8,64d2fd46c836a06233681665,64dc75f7f001a851bd4411c2,,,,,,,decisionTrl,resources/DR.BMP,resources/DP.BMP,Door3,-0.354629623,-0.044444437,1,0,0,2.2266,optionLeft,70,430,1,7,0,7,0,1,,,,,,,,,,,,,,,,,,,,,,,,,,,,,,,,,,,,,,,
,,,,,,,,2023-08-16_08h09.03.821,HF_wild_card,2022.2.4,Win32,60.0024001,59dd4d2b0fb3a90001bd91f8,64d2fd46c836a06233681665,64dc75f7f001a851bd4411c2,,,,,,,decisionTrl,resources/DY.BMP,resources/DG.BMP,Door1,-0.220370328,-0.027777778,1,0,0,1.5863,optionLeft,30,460,1,8,0,8,0,1,,,,,,,,,,,,,,,,,,,,,,,,,,,,,,,,,,,,,,,
,,,,,,,,2023-08-16_08h09.03.821,HF_wild_card,2022.2.4,Win32,60.0024001,59dd4d2b0fb3a90001bd91f8,64d2fd46c836a06233681665,64dc75f7f001a851bd4411c2,,,,,,,sngl,resources/Empty.png,resources/DR.BMP,Door3,0.273148148,-0.022222236,1,0,0,1.7623,optionRight,70,530,1,9,0,9,0,1,,,,,,,,,,,,,,,,,,,,,,,,,,,,,,,,,,,,,,,
,,,,,,,,2023-08-16_08h09.03.821,HF_wild_card,2022.2.4,Win32,60.0024001,59dd4d2b0fb3a90001bd91f8,64d2fd46c836a06233681665,64dc75f7f001a851bd4411c2,,,,,,,decisionTrl,resources/DY.BMP,resources/DBN.BMP,Door1,-0.242592564,-0.040740755,1,0,0,4.1103,optionLeft,30,560,1,10,0,10,0,1,,,,,,,,,,,,,,,,,,,,,,,,,,,,,,,,,,,,,,,
,,,,,,,,2023-08-16_08h09.03.821,HF_wild_card,2022.2.4,Win32,60.0024001,59dd4d2b0fb3a90001bd91f8,64d2fd46c836a06233681665,64dc75f7f001a851bd4411c2,,,,,,,sngl,resources/DG.BMP,resources/Empty.png,Door2,-0.261111083,-0.017592607,1,0,0,1.3212,optionLeft,40,600,1,11,0,11,0,1,,,,,,,,,,,,,,,,,,,,,,,,,,,,,,,,,,,,,,,
,,,,,,,,2023-08-16_08h09.03.821,HF_wild_card,2022.2.4,Win32,60.0024001,59dd4d2b0fb3a90001bd91f8,64d2fd46c836a06233681665,64dc75f7f001a851bd4411c2,,,,,,,sngl,resources/Empty.png,resources/DBN.BMP,WildCard_NonEx,0.349074046,0.062037044,1,0,0,12.2994,optionRight,55,655,1,12,0,12,0,1,,,,,,,,,,,,,,,,,,,,,,,,,,,,,,,,,,,,,,,
,,,,,,,,2023-08-16_08h09.03.821,HF_wild_card,2022.2.4,Win32,60.0024001,59dd4d2b0fb3a90001bd91f8,64d2fd46c836a06233681665,64dc75f7f001a851bd4411c2,,,,,,,decisionTrl,resources/DBN.BMP,resources/DG.BMP,WildCard_NonEx,-0.431481467,0.061111097,1,0,0,12.7089,optionLeft,45,700,1,13,0,13,0,1,,,,,,,,,,,,,,,,,,,,,,,,,,,,,,,,,,,,,,,
,,,,,,,,2023-08-16_08h09.03.821,HF_wild_card,2022.2.4,Win32,60.0024001,59dd4d2b0fb3a90001bd91f8,64d2fd46c836a06233681665,64dc75f7f001a851bd4411c2,,,,,,,decisionTrl,resources/DR.BMP,resources/DBN.BMP,Door3,-0.329629616,-0.038888896,1,0,0,1.6921,optionLeft,70,770,1,14,0,14,0,1,,,,,,,,,,,,,,,,,,,,,,,,,,,,,,,,,,,,,,,
,,,,,,,,2023-08-16_08h09.03.821,HF_wild_card,2022.2.4,Win32,60.0024001,59dd4d2b0fb3a90001bd91f8,64d2fd46c836a06233681665,64dc75f7f001a851bd4411c2,,,,,,,decisionTrl,resources/DY.BMP,resources/DG.BMP,Door2,0.281481496,-0.025925919,1,0,0,3.0348,optionRight,40,810,1,15,0,15,0,1,,,,,,,,,,,,,,,,,,,,,,,,,,,,,,,,,,,,,,,
,,,,,,,,2023-08-16_08h09.03.821,HF_wild_card,2022.2.4,Win32,60.0024001,59dd4d2b0fb3a90001bd91f8,64d2fd46c836a06233681665,64dc75f7f001a851bd4411c2,,,,,,,decisionTrl,resources/DP.BMP,resources/DR.BMP,Door3,0.363888917,-0.037037037,1,0,0,2.2789,optionRight,70,880,1,16,0,16,0,1,,,,,,,,,,,,,,,,,,,,,,,,,,,,,,,,,,,,,,,
,,,,,,,,2023-08-16_08h09.03.821,HF_wild_card,2022.2.4,Win32,60.0024001,59dd4d2b0fb3a90001bd91f8,64d2fd46c836a06233681665,64dc75f7f001a851bd4411c2,,,,,,,sngl,resources/DBN.BMP,resources/Empty.png,WildCard_NonEx,-0.27870369,-0.019444466,1,0,0,1.1807,optionLeft,55,935,1,17,0,17,0,1,,,,,,,,,,,,,,,,,,,,,,,,,,,,,,,,,,,,,,,
,,,,,,,,2023-08-16_08h09.03.821,HF_wild_card,2022.2.4,Win32,60.0024001,59dd4d2b0fb3a90001bd91f8,64d2fd46c836a06233681665,64dc75f7f001a851bd4411c2,,,,,,,sngl,resources/DR.BMP,resources/Empty.png,Door3,-0.361111111,-0.058333326,1,0,0,1.5523,optionLeft,70,1005,1,18,0,18,0,1,,,,,,,,,,,,,,,,,,,,,,,,,,,,,,,,,,,,,,,
,,,,,,,,2023-08-16_08h09.03.821,HF_wild_card,2022.2.4,Win32,60.0024001,59dd4d2b0fb3a90001bd91f8,64d2fd46c836a06233681665,64dc75f7f001a851bd4411c2,,,,,,,sngl,resources/DBN.BMP,resources/Empty.png,WildCard_NonEx,-0.3675926,-0.081481474,1,0,0,1.0792,optionLeft,45,1050,1,19,0,19,0,1,,,,,,,,,,,,,,,,,,,,,,,,,,,,,,,,,,,,,,,
,,,,,,,,2023-08-16_08h09.03.821,HF_wild_card,2022.2.4,Win32,60.0024001,59dd4d2b0fb3a90001bd91f8,64d2fd46c836a06233681665,64dc75f7f001a851bd4411c2,,,,,,,decisionTrl,resources/DBN.BMP,resources/DP.BMP,Door4,0.328703704,-0.052777785,1,0,0,1.4802,optionRight,60,1110,1,20,0,20,0,1,,,,,,,,,,,,,,,,,,,,,,,,,,,,,,,,,,,,,,,
,,,,,,,,2023-08-16_08h09.03.821,HF_wild_card,2022.2.4,Win32,60.0024001,59dd4d2b0fb3a90001bd91f8,64d2fd46c836a06233681665,64dc75f7f001a851bd4411c2,,,,,,,decisionTrl,resources/DP.BMP,resources/DR.BMP,Door3,0.268518519,-0.022222236,1,0,0,2.1836,optionRight,70,1180,1,21,0,21,0,1,,,,,,,,,,,,,,,,,,,,,,,,,,,,,,,,,,,,,,,
,,,,,,,,2023-08-16_08h09.03.821,HF_wild_card,2022.2.4,Win32,60.0024001,59dd4d2b0fb3a90001bd91f8,64d2fd46c836a06233681665,64dc75f7f001a851bd4411c2,,,,,,,sngl,resources/Empty.png,resources/DP.BMP,Door4,0.27870369,-0.062962956,1,0,0,1.2459,optionRight,60,1240,1,22,0,22,0,1,,,,,,,,,,,,,,,,,,,,,,,,,,,,,,,,,,,,,,,
,,,,,,,,2023-08-16_08h09.03.821,HF_wild_card,2022.2.4,Win32,60.0024001,59dd4d2b0fb3a90001bd91f8,64d2fd46c836a06233681665,64dc75f7f001a851bd4411c2,,,,,,,decisionTrl,resources/DR.BMP,resources/DP.BMP,Door3,-0.400925919,-0.089814822,1,0,0,1.5708,optionLeft,70,1310,1,23,0,23,0,1,,,,,,,,,,,,,,,,,,,,,,,,,,,,,,,,,,,,,,,
,,,,,,,,2023-08-16_08h09.03.821,HF_wild_card,2022.2.4,Win32,60.0024001,59dd4d2b0fb3a90001bd91f8,64d2fd46c836a06233681665,64dc75f7f001a851bd4411c2,,,,,,,sngl,resources/Empty.png,resources/DBN.BMP,WildCard_NonEx,0.244444459,-0.078703704,1,0,0,1.4358,optionRight,45,1355,1,24,0,24,0,1,,,,,,,,,,,,,,,,,,,,,,,,,,,,,,,,,,,,,,,
,,,,,,,,2023-08-16_08h09.03.821,HF_wild_card,2022.2.4,Win32,60.0024001,59dd4d2b0fb3a90001bd91f8,64d2fd46c836a06233681665,64dc75f7f001a851bd4411c2,,,,,,,decisionTrl,resources/DG.BMP,resources/DY.BMP,Door2,-0.312037044,-0.035185178,1,0,0,3.6162,optionLeft,40,1395,1,25,0,25,0,1,,,,,,,,,,,,,,,,,,,,,,,,,,,,,,,,,,,,,,,
,,,,,,,,2023-08-16_08h09.03.821,HF_wild_card,2022.2.4,Win32,60.0024001,59dd4d2b0fb3a90001bd91f8,64d2fd46c836a06233681665,64dc75f7f001a851bd4411c2,,,,,,,decisionTrl,resources/DY.BMP,resources/DG.BMP,Door2,0.356481481,-0.050000014,1,0,0,2.9286,optionRight,20,1415,1,26,0,26,0,1,,,,,,,,,,,,,,,,,,,,,,,,,,,,,,,,,,,,,,,
,,,,,,,,2023-08-16_08h09.03.821,HF_wild_card,2022.2.4,Win32,60.0024001,59dd4d2b0fb3a90001bd91f8,64d2fd46c836a06233681665,64dc75f7f001a851bd4411c2,,,,,,,decisionTrl,resources/DG.BMP,resources/DBN.BMP,WildCard_NonEx,0.359259288,-0.085185192,1,0,0,2.3521,optionRight,45,1460,1,27,0,27,0,1,,,,,,,,,,,,,,,,,,,,,,,,,,,,,,,,,,,,,,,
,,,,,,,,2023-08-16_08h09.03.821,HF_wild_card,2022.2.4,Win32,60.0024001,59dd4d2b0fb3a90001bd91f8,64d2fd46c836a06233681665,64dc75f7f001a851bd4411c2,,,,,,,sngl,resources/Empty.png,resources/DY.BMP,Door1,0.305555556,-0.08888891,1,0,0,1.0964,optionRight,30,1490,1,28,0,28,0,1,,,,,,,,,,,,,,,,,,,,,,,,,,,,,,,,,,,,,,,
,,,,,,,,2023-08-16_08h09.03.821,HF_wild_card,2022.2.4,Win32,60.0024001,59dd4d2b0fb3a90001bd91f8,64d2fd46c836a06233681665,64dc75f7f001a851bd4411c2,,,,,,,decisionTrl,resources/DP.BMP,resources/DBN.BMP,Door4,-0.35833334,-0.070370392,1,0,0,2.3183,optionLeft,60,1550,1,29,0,29,0,1,,,,,,,,,,,,,,,,,,,,,,,,,,,,,,,,,,,,,,,
,,,,,,,,2023-08-16_08h09.03.821,HF_wild_card,2022.2.4,Win32,60.0024001,59dd4d2b0fb3a90001bd91f8,64d2fd46c836a06233681665,64dc75f7f001a851bd4411c2,,,,,,,decisionTrl,resources/DP.BMP,resources/DR.BMP,Door3,0.382407436,-0.008333347,1,0,0,2.9604,optionRight,70,1620,1,30,0,30,0,1,,,,,,,,,,,,,,,,,,,,,,,,,,,,,,,,,,,,,,,
,,,,,,,,2023-08-16_08h09.03.821,HF_wild_card,2022.2.4,Win32,60.0024001,59dd4d2b0fb3a90001bd91f8,64d2fd46c836a06233681665,64dc75f7f001a851bd4411c2,,,,,,,ctch,resources/DG.BMP,resources/DR.BMP,Door3,0.337037122,-0.060185185,1,0,0,1.6686,optionRight,70,1690,1,31,0,31,0,1,,,,,,,,,,,,,,,,,,,,,,,,,,,,,,,,,,,,,,,
,,,,,,,,2023-08-16_08h09.03.821,HF_wild_card,2022.2.4,Win32,60.0024001,59dd4d2b0fb3a90001bd91f8,64d2fd46c836a06233681665,64dc75f7f001a851bd4411c2,,,,,,,sngl,resources/DP.BMP,resources/Empty.png,Door4,-0.317592586,-0.050000014,1,0,0,2.2625,optionLeft,80,1770,1,32,0,32,0,1,,,,,,,,,,,,,,,,,,,,,,,,,,,,,,,,,,,,,,,
,,,,,,,,2023-08-16_08h09.03.821,HF_wild_card,2022.2.4,Win32,60.0024001,59dd4d2b0fb3a90001bd91f8,64d2fd46c836a06233681665,64dc75f7f001a851bd4411c2,,,,,,,decisionTrl,resources/DR.BMP,resources/DP.BMP,Door3,-0.3675926,-0.062962956,1,0,0,4.3848,optionLeft,70,1840,1,33,0,33,0,1,,,,,,,,,,,,,,,,,,,,,,,,,,,,,,,,,,,,,,,
,,,,,,,,2023-08-16_08h09.03.821,HF_wild_card,2022.2.4,Win32,60.0024001,59dd4d2b0fb3a90001bd91f8,64d2fd46c836a06233681665,64dc75f7f001a851bd4411c2,,,,,,,ctch,resources/DP.BMP,resources/DY.BMP,Door4,-0.466666645,-0.040740755,1,0,0,1.7124,optionLeft,80,1920,1,34,0,34,0,1,,,,,,,,,,,,,,,,,,,,,,,,,,,,,,,,,,,,,,,
,,,,,,,,2023-08-16_08h09.03.821,HF_wild_card,2022.2.4,Win32,60.0024001,59dd4d2b0fb3a90001bd91f8,64d2fd46c836a06233681665,64dc75f7f001a851bd4411c2,,,,,,,ctch,resources/DY.BMP,resources/DP.BMP,Door4,0.352777834,-0.048148155,1,0,0,1.4454,optionRight,80,2000,1,35,0,35,0,1,,,,,,,,,,,,,,,,,,,,,,,,,,,,,,,,,,,,,,,
,,,,,,,,2023-08-16_08h09.03.821,HF_wild_card,2022.2.4,Win32,60.0024001,59dd4d2b0fb3a90001bd91f8,64d2fd46c836a06233681665,64dc75f7f001a851bd4411c2,,,,,,,ctch,resources/DY.BMP,resources/DP.BMP,Door4,0.277777778,-0.049074067,1,0,0,1.1464,optionRight,60,2060,1,36,0,36,0,1,,,,,,,,,,,,,,,,,,,,,,,,,,,,,,,,,,,,,,,
,,,,,,,,2023-08-16_08h09.03.821,HF_wild_card,2022.2.4,Win32,60.0024001,59dd4d2b0fb3a90001bd91f8,64d2fd46c836a06233681665,64dc75f7f001a851bd4411c2,,,,,,,ctch,resources/DG.BMP,resources/DR.BMP,Door3,0.255555541,-0.065740762,1,0,0,2.978,optionRight,70,2130,1,37,0,37,0,1,,,,,,,,,,,,,,,,,,,,,,,,,,,,,,,,,,,,,,,
,,,,,,,,2023-08-16_08h09.03.821,HF_wild_card,2022.2.4,Win32,60.0024001,59dd4d2b0fb3a90001bd91f8,64d2fd46c836a06233681665,64dc75f7f001a851bd4411c2,,,,,,,decisionTrl,resources/DG.BMP,resources/DY.BMP,Door2,-0.318518497,-0.053703697,1,0,0,2.2932,optionLeft,40,2170,1,38,0,38,0,1,,,,,,,,,,,,,,,,,,,,,,,,,,,,,,,,,,,,,,,
,,,,,,,,2023-08-16_08h09.03.821,HF_wild_card,2022.2.4,Win32,60.0024001,59dd4d2b0fb3a90001bd91f8,64d2fd46c836a06233681665,64dc75f7f001a851bd4411c2,,,,,,,sngl,resources/Empty.png,resources/DG.BMP,Door2,0.305555556,-0.052777785,1,0,0,1.1205,optionRight,20,2190,1,39,0,39,0,1,,,,,,,,,,,,,,,,,,,,,,,,,,,,,,,,,,,,,,,
,,,,,,,,2023-08-16_08h09.03.821,HF_wild_card,2022.2.4,Win32,60.0024001,59dd4d2b0fb3a90001bd91f8,64d2fd46c836a06233681665,64dc75f7f001a851bd4411c2,,,,,,,sngl,resources/DY.BMP,resources/Empty.png,Door1,-0.231481481,-0.035185178,1,0,0,1.3462,optionLeft,30,2220,1,40,0,40,0,1,,,,,,,,,,,,,,,,,,,,,,,,,,,,,,,,,,,,,,,
,,,,,,,,2023-08-16_08h09.03.821,HF_wild_card,2022.2.4,Win32,60.0024001,59dd4d2b0fb3a90001bd91f8,64d2fd46c836a06233681665,64dc75f7f001a851bd4411c2,,,,,,,decisionTrl,resources/DG.BMP,resources/DY.BMP,Door2,-0.266666624,-0.043518526,1,0,0,4.0151,optionLeft,20,2240,1,41,0,41,0,1,,,,,,,,,,,,,,,,,,,,,,,,,,,,,,,,,,,,,,,
,,,,,,,,2023-08-16_08h09.03.821,HF_wild_card,2022.2.4,Win32,60.0024001,59dd4d2b0fb3a90001bd91f8,64d2fd46c836a06233681665,64dc75f7f001a851bd4411c2,,,,,,,ctch,resources/DP.BMP,resources/DY.BMP,Door4,-0.375,-0.080555563,1,0,0,1.429,optionLeft,80,2320,1,42,0,42,0,1,,,,,,,,,,,,,,,,,,,,,,,,,,,,,,,,,,,,,,,
,,,,,,,,2023-08-16_08h09.03.821,HF_wild_card,2022.2.4,Win32,60.0024001,59dd4d2b0fb3a90001bd91f8,64d2fd46c836a06233681665,64dc75f7f001a851bd4411c2,,,,,,,ctch,resources/DR.BMP,resources/DG.BMP,Door3,-0.298148155,-0.08425928,1,0,0,1.3222,optionLeft,70,2390,1,43,0,43,0,1,,,,,,,,,,,,,,,,,,,,,,,,,,,,,,,,,,,,,,,
,,,,,,,,2023-08-16_08h09.03.821,HF_wild_card,2022.2.4,Win32,60.0024001,59dd4d2b0fb3a90001bd91f8,64d2fd46c836a06233681665,64dc75f7f001a851bd4411c2,,,,,,,,,,,,,,,,,,,,,,,,,,0,0,0,0,1,,,,,,,,,,,,,,,,,,,,,,,,,,,,,,,,,,
,,,,,,,,2023-08-16_08h09.03.821,HF_wild_card,2022.2.4,Win32,60.0024001,59dd4d2b0fb3a90001bd91f8,64d2fd46c836a06233681665,64dc75f7f001a851bd4411c2,,,,,,,sngl,resources/Empty.png,resources/DBN.BMP,WildCard_NonEx,0.346296381,-0.112037023,1,0,0,1.5519,optionRight,45,2435,2,0,0,0,0,1,,,,,,,,,,,,,,,,,,,,,,,,,,,,,,,,,,,,,,,
,,,,,,,,2023-08-16_08h09.03.821,HF_wild_card,2022.2.4,Win32,60.0024001,59dd4d2b0fb3a90001bd91f8,64d2fd46c836a06233681665,64dc75f7f001a851bd4411c2,,,,,,,sngl,resources/DY.BMP,resources/Empty.png,Door1,-0.257407365,-0.080555563,1,0,0,1.1357,optionLeft,30,2465,2,1,0,1,0,1,,,,,,,,,,,,,,,,,,,,,,,,,,,,,,,,,,,,,,,
,,,,,,,,2023-08-16_08h09.03.821,HF_wild_card,2022.2.4,Win32,60.0024001,59dd4d2b0fb3a90001bd91f8,64d2fd46c836a06233681665,64dc75f7f001a851bd4411c2,,,,,,,decisionTrl,resources/DG.BMP,resources/DBN.BMP,Door2,-0.305555556,-0.10555557,1,0,0,1.9959,optionLeft,20,2485,2,2,0,2,0,1,,,,,,,,,,,,,,,,,,,,,,,,,,,,,,,,,,,,,,,
,,,,,,,,2023-08-16_08h09.03.821,HF_wild_card,2022.2.4,Win32,60.0024001,59dd4d2b0fb3a90001bd91f8,64d2fd46c836a06233681665,64dc75f7f001a851bd4411c2,,,,,,,decisionTrl,resources/DP.BMP,resources/DR.BMP,Door4,-0.395370377,-0.076851845,1,0,0,1.7557,optionLeft,80,2565,2,3,0,3,0,1,,,,,,,,,,,,,,,,,,,,,,,,,,,,,,,,,,,,,,,
,,,,,,,,2023-08-16_08h09.03.821,HF_wild_card,2022.2.4,Win32,60.0024001,59dd4d2b0fb3a90001bd91f8,64d2fd46c836a06233681665,64dc75f7f001a851bd4411c2,,,,,,,decisionTrl,resources/DG.BMP,resources/DY.BMP,Door2,-0.368518511,-0.076851845,1,0,0,2.9845,optionLeft,20,2585,2,4,0,4,0,1,,,,,,,,,,,,,,,,,,,,,,,,,,,,,,,,,,,,,,,
,,,,,,,,2023-08-16_08h09.03.821,HF_wild_card,2022.2.4,Win32,60.0024001,59dd4d2b0fb3a90001bd91f8,64d2fd46c836a06233681665,64dc75f7f001a851bd4411c2,,,,,,,sngl,resources/Empty.png,resources/DBN.BMP,WildCard_NonEx,0.239814829,-0.095370399,1,0,0,1.0341,optionRight,55,2640,2,5,0,5,0,1,,,,,,,,,,,,,,,,,,,,,,,,,,,,,,,,,,,,,,,
,,,,,,,,2023-08-16_08h09.03.821,HF_wild_card,2022.2.4,Win32,60.0024001,59dd4d2b0fb3a90001bd91f8,64d2fd46c836a06233681665,64dc75f7f001a851bd4411c2,,,,,,,decisionTrl,resources/DP.BMP,resources/DR.BMP,Door4,-0.273148148,-0.041666667,1,0,0,1.4132,optionLeft,80,2720,2,6,0,6,0,1,,,,,,,,,,,,,,,,,,,,,,,,,,,,,,,,,,,,,,,
,,,,,,,,2023-08-16_08h09.03.821,HF_wild_card,2022.2.4,Win32,60.0024001,59dd4d2b0fb3a90001bd91f8,64d2fd46c836a06233681665,64dc75f7f001a851bd4411c2,,,,,,,ctch,resources/DY.BMP,resources/DP.BMP,Door4,0.312037009,-0.060185185,1,0,0,2.246,optionRight,80,2800,2,7,0,7,0,1,,,,,,,,,,,,,,,,,,,,,,,,,,,,,,,,,,,,,,,
,,,,,,,,2023-08-16_08h09.03.821,HF_wild_card,2022.2.4,Win32,60.0024001,59dd4d2b0fb3a90001bd91f8,64d2fd46c836a06233681665,64dc75f7f001a851bd4411c2,,,,,,,decisionTrl,resources/DR.BMP,resources/DP.BMP,Door4,0.251851894,-0.073148162,1,0,0,6.9802,optionRight,60,2860,2,8,0,8,0,1,,,,,,,,,,,,,,,,,,,,,,,,,,,,,,,,,,,,,,,
,,,,,,,,2023-08-16_08h09.03.821,HF_wild_card,2022.2.4,Win32,60.0024001,59dd4d2b0fb3a90001bd91f8,64d2fd46c836a06233681665,64dc75f7f001a851bd4411c2,,,,,,,decisionTrl,resources/DY.BMP,resources/DG.BMP,Door2,0.461111139,-0.098148134,1,0,0,3.5759,optionRight,20,2880,2,9,0,9,0,1,,,,,,,,,,,,,,,,,,,,,,,,,,,,,,,,,,,,,,,
,,,,,,,,2023-08-16_08h09.03.821,HF_wild_card,2022.2.4,Win32,60.0024001,59dd4d2b0fb3a90001bd91f8,64d2fd46c836a06233681665,64dc75f7f001a851bd4411c2,,,,,,,decisionTrl,resources/DR.BMP,resources/DP.BMP,Door3,-0.353703711,-0.08425928,1,0,0,2.8841,optionLeft,70,2950,2,10,0,10,0,1,,,,,,,,,,,,,,,,,,,,,,,,,,,,,,,,,,,,,,,
,,,,,,,,2023-08-16_08h09.03.821,HF_wild_card,2022.2.4,Win32,60.0024001,59dd4d2b0fb3a90001bd91f8,64d2fd46c836a06233681665,64dc75f7f001a851bd4411c2,,,,,,,decisionTrl,resources/DY.BMP,resources/DBN.BMP,WildCard_NonEx,0.288888931,-0.059259273,1,0,0,1.4366,optionRight,45,2995,2,11,0,11,0,1,,,,,,,,,,,,,,,,,,,,,,,,,,,,,,,,,,,,,,,
,,,,,,,,2023-08-16_08h09.03.821,HF_wild_card,2022.2.4,Win32,60.0024001,59dd4d2b0fb3a90001bd91f8,64d2fd46c836a06233681665,64dc75f7f001a851bd4411c2,,,,,,,sngl,resources/DR.BMP,resources/Empty.png,Door3,-0.261111083,-0.021296289,1,0,0,1.0631,optionLeft,70,3065,2,12,0,12,0,1,,,,,,,,,,,,,,,,,,,,,,,,,,,,,,,,,,,,,,,
,,,,,,,,2023-08-16_08h09.03.821,HF_wild_card,2022.2.4,Win32,60.0024001,59dd4d2b0fb3a90001bd91f8,64d2fd46c836a06233681665,64dc75f7f001a851bd4411c2,,,,,,,ctch,resources/DR.BMP,resources/DG.BMP,Door3,-0.312037044,-0.092592593,1,0,0,1.1364,optionLeft,70,3135,2,13,0,13,0,1,,,,,,,,,,,,,,,,,,,,,,,,,,,,,,,,,,,,,,,
,,,,,,,,2023-08-16_08h09.03.821,HF_wild_card,2022.2.4,Win32,60.0024001,59dd4d2b0fb3a90001bd91f8,64d2fd46c836a06233681665,64dc75f7f001a851bd4411c2,,,,,,,sngl,resources/Empty.png,resources/DG.BMP,Door2,0.342592593,-0.054629644,1,0,0,2.6797,optionRight,40,3175,2,14,0,14,0,1,,,,,,,,,,,,,,,,,,,,,,,,,,,,,,,,,,,,,,,
,,,,,,,,2023-08-16_08h09.03.821,HF_wild_card,2022.2.4,Win32,60.0024001,59dd4d2b0fb3a90001bd91f8,64d2fd46c836a06233681665,64dc75f7f001a851bd4411c2,,,,,,,ctch,resources/DP.BMP,resources/DY.BMP,Door4,-0.309259238,-0.062962956,1,0,0,3.9194,optionLeft,60,3235,2,15,0,15,0,1,,,,,,,,,,,,,,,,,,,,,,,,,,,,,,,,,,,,,,,
,,,,,,,,2023-08-16_08h09.03.821,HF_wild_card,2022.2.4,Win32,60.0024001,59dd4d2b0fb3a90001bd91f8,64d2fd46c836a06233681665,64dc75f7f001a851bd4411c2,,,,,,,decisionTrl,resources/DY.BMP,resources/DG.BMP,Door2,0.334259316,0.012962942,1,0,0,4.0761,optionRight,20,3255,2,16,0,16,0,1,,,,,,,,,,,,,,,,,,,,,,,,,,,,,,,,,,,,,,,
,,,,,,,,2023-08-16_08h09.03.821,HF_wild_card,2022.2.4,Win32,60.0024001,59dd4d2b0fb3a90001bd91f8,64d2fd46c836a06233681665,64dc75f7f001a851bd4411c2,,,,,,,decisionTrl,resources/DG.BMP,resources/DY.BMP,Door2,-0.368518511,-0.045370384,1,0,0,2.7263,optionLeft,40,3295,2,17,0,17,0,1,,,,,,,,,,,,,,,,,,,,,,,,,,,,,,,,,,,,,,,
,,,,,,,,2023-08-16_08h09.03.821,HF_wild_card,2022.2.4,Win32,60.0024001,59dd4d2b0fb3a90001bd91f8,64d2fd46c836a06233681665,64dc75f7f001a851bd4411c2,,,,,,,decisionTrl,resources/DBN.BMP,resources/DG.BMP,WildCard_NonEx,-0.418518526,-0.037037037,1,0,0,2.5682,optionLeft,55,3350,2,18,0,18,0,1,,,,,,,,,,,,,,,,,,,,,,,,,,,,,,,,,,,,,,,
,,,,,,,,2023-08-16_08h09.03.821,HF_wild_card,2022.2.4,Win32,60.0024001,59dd4d2b0fb3a90001bd91f8,64d2fd46c836a06233681665,64dc75f7f001a851bd4411c2,,,,,,,sngl,resources/DBN.BMP,resources/Empty.png,WildCard_NonEx,-0.323148127,-0.061111132,1,0,0,1.0618,optionLeft,55,3405,2,19,0,19,0,1,,,,,,,,,,,,,,,,,,,,,,,,,,,,,,,,,,,,,,,
,,,,,,,,2023-08-16_08h09.03.821,HF_wild_card,2022.2.4,Win32,60.0024001,59dd4d2b0fb3a90001bd91f8,64d2fd46c836a06233681665,64dc75f7f001a851bd4411c2,,,,,,,decisionTrl,resources/DR.BMP,resources/DP.BMP,Door4,0.313888974,-0.059259273,1,0,0,2.2281,optionRight,60,3465,2,20,0,20,0,1,,,,,,,,,,,,,,,,,,,,,,,,,,,,,,,,,,,,,,,
,,,,,,,,2023-08-16_08h09.03.821,HF_wild_card,2022.2.4,Win32,60.0024001,59dd4d2b0fb3a90001bd91f8,64d2fd46c836a06233681665,64dc75f7f001a851bd4411c2,,,,,,,decisionTrl,resources/DR.BMP,resources/DP.BMP,Door3,-0.36296297,-0.025925919,1,0,0,4.9436,optionLeft,70,3535,2,21,0,21,0,1,,,,,,,,,,,,,,,,,,,,,,,,,,,,,,,,,,,,,,,
,,,,,,,,2023-08-16_08h09.03.821,HF_wild_card,2022.2.4,Win32,60.0024001,59dd4d2b0fb3a90001bd91f8,64d2fd46c836a06233681665,64dc75f7f001a851bd4411c2,,,,,,,sngl,resources/DBN.BMP,resources/Empty.png,WildCard_NonEx,-0.312962956,0.001851859,1,0,0,3.0755,optionLeft,45,3580,2,22,0,22,0,1,,,,,,,,,,,,,,,,,,,,,,,,,,,,,,,,,,,,,,,
,,,,,,,,2023-08-16_08h09.03.821,HF_wild_card,2022.2.4,Win32,60.0024001,59dd4d2b0fb3a90001bd91f8,64d2fd46c836a06233681665,64dc75f7f001a851bd4411c2,,,,,,,ctch,resources/DY.BMP,resources/DP.BMP,Door4,0.341666751,-0.049074067,1,0,0,1.6783,optionRight,80,3660,2,23,0,23,0,1,,,,,,,,,,,,,,,,,,,,,,,,,,,,,,,,,,,,,,,
,,,,,,,,2023-08-16_08h09.03.821,HF_wild_card,2022.2.4,Win32,60.0024001,59dd4d2b0fb3a90001bd91f8,64d2fd46c836a06233681665,64dc75f7f001a851bd4411c2,,,,,,,ctch,resources/DG.BMP,resources/DR.BMP,Door3,0.486111111,-0.037962984,1,0,0,2.1949,optionRight,70,3730,2,24,0,24,0,1,,,,,,,,,,,,,,,,,,,,,,,,,,,,,,,,,,,,,,,
,,,,,,,,2023-08-16_08h09.03.821,HF_wild_card,2022.2.4,Win32,60.0024001,59dd4d2b0fb3a90001bd91f8,64d2fd46c836a06233681665,64dc75f7f001a851bd4411c2,,,,,,,sngl,resources/DG.BMP,resources/Empty.png,Door2,-0.343518504,-0.070370392,1,0,0,1.2801,optionLeft,20,3750,2,25,0,25,0,1,,,,,,,,,,,,,,,,,,,,,,,,,,,,,,,,,,,,,,,
,,,,,,,,2023-08-16_08h09.03.821,HF_wild_card,2022.2.4,Win32,60.0024001,59dd4d2b0fb3a90001bd91f8,64d2fd46c836a06233681665,64dc75f7f001a851bd4411c2,,,,,,,decisionTrl,resources/DBN.BMP,resources/DR.BMP,Door3,0.337037122,-0.08888891,1,0,0,1.1119,optionRight,70,3820,2,26,0,26,0,1,,,,,,,,,,,,,,,,,,,,,,,,,,,,,,,,,,,,,,,
,,,,,,,,2023-08-16_08h09.03.821,HF_wild_card,2022.2.4,Win32,60.0024001,59dd4d2b0fb3a90001bd91f8,64d2fd46c836a06233681665,64dc75f7f001a851bd4411c2,,,,,,,sngl,resources/DP.BMP,resources/Empty.png,Door4,-0.257407365,-0.066666674,1,0,0,1.0123,optionLeft,60,3880,2,27,0,27,0,1,,,,,,,,,,,,,,,,,,,,,,,,,,,,,,,,,,,,,,,
,,,,,,,,2023-08-16_08h09.03.821,HF_wild_card,2022.2.4,Win32,60.0024001,59dd4d2b0fb3a90001bd91f8,64d2fd46c836a06233681665,64dc75f7f001a851bd4411c2,,,,,,,ctch,resources/DR.BMP,resources/DG.BMP,Door3,-0.333333333,-0.068518533,1,0,0,2.1189,optionLeft,70,3950,2,28,0,28,0,1,,,,,,,,,,,,,,,,,,,,,,,,,,,,,,,,,,,,,,,
,,,,,,,,2023-08-16_08h09.03.821,HF_wild_card,2022.2.4,Win32,60.0024001,59dd4d2b0fb3a90001bd91f8,64d2fd46c836a06233681665,64dc75f7f001a851bd4411c2,,,,,,,decisionTrl,resources/DP.BMP,resources/DR.BMP,Door3,0.286111125,-0.061111132,1,0,0,2.426,optionRight,70,4020,2,29,0,29,0,1,,,,,,,,,,,,,,,,,,,,,,,,,,,,,,,,,,,,,,,
,,,,,,,,2023-08-16_08h09.03.821,HF_wild_card,2022.2.4,Win32,60.0024001,59dd4d2b0fb3a90001bd91f8,64d2fd46c836a06233681665,64dc75f7f001a851bd4411c2,,,,,,,ctch,resources/DP.BMP,resources/DY.BMP,Door4,-0.281481496,-0.039814808,1,0,0,1.3637,optionLeft,80,4100,2,30,0,30,0,1,,,,,,,,,,,,,,,,,,,,,,,,,,,,,,,,,,,,,,,
,,,,,,,,2023-08-16_08h09.03.821,HF_wild_card,2022.2.4,Win32,60.0024001,59dd4d2b0fb3a90001bd91f8,64d2fd46c836a06233681665,64dc75f7f001a851bd4411c2,,,,,,,decisionTrl,resources/DY.BMP,resources/DG.BMP,Door1,-0.26944443,-0.0074074,1,0,0,4.6768,optionLeft,30,4130,2,31,0,31,0,1,,,,,,,,,,,,,,,,,,,,,,,,,,,,,,,,,,,,,,,
,,,,,,,,2023-08-16_08h09.03.821,HF_wild_card,2022.2.4,Win32,60.0024001,59dd4d2b0fb3a90001bd91f8,64d2fd46c836a06233681665,64dc75f7f001a851bd4411c2,,,,,,,decisionTrl,resources/DP.BMP,resources/DBN.BMP,Door4,-0.331481474,-0.041666667,1,0,0,1.4935,optionLeft,80,4210,2,32,0,32,0,1,,,,,,,,,,,,,,,,,,,,,,,,,,,,,,,,,,,,,,,
,,,,,,,,2023-08-16_08h09.03.821,HF_wild_card,2022.2.4,Win32,60.0024001,59dd4d2b0fb3a90001bd91f8,64d2fd46c836a06233681665,64dc75f7f001a851bd4411c2,,,,,,,decisionTrl,resources/DG.BMP,resources/DY.BMP,Door1,0.235185199,-0.062962956,1,0,0,4.1669,optionRight,30,4240,2,33,0,33,0,1,,,,,,,,,,,,,,,,,,,,,,,,,,,,,,,,,,,,,,,
,,,,,,,,2023-08-16_08h09.03.821,HF_wild_card,2022.2.4,Win32,60.0024001,59dd4d2b0fb3a90001bd91f8,64d2fd46c836a06233681665,64dc75f7f001a851bd4411c2,,,,,,,decisionTrl,resources/DBN.BMP,resources/DY.BMP,Door1,0.240740741,-0.073148162,1,0,0,1.3309,optionRight,30,4270,2,34,0,34,0,1,,,,,,,,,,,,,,,,,,,,,,,,,,,,,,,,,,,,,,,
,,,,,,,,2023-08-16_08h09.03.821,HF_wild_card,2022.2.4,Win32,60.0024001,59dd4d2b0fb3a90001bd91f8,64d2fd46c836a06233681665,64dc75f7f001a851bd4411c2,,,,,,,sngl,resources/Empty.png,resources/DP.BMP,Door4,0.264814801,-0.075925933,1,0,0,1.1625,optionRight,80,4350,2,35,0,35,0,1,,,,,,,,,,,,,,,,,,,,,,,,,,,,,,,,,,,,,,,
,,,,,,,,2023-08-16_08h09.03.821,HF_wild_card,2022.2.4,Win32,60.0024001,59dd4d2b0fb3a90001bd91f8,64d2fd46c836a06233681665,64dc75f7f001a851bd4411c2,,,,,,,ctch,resources/DG.BMP,resources/DR.BMP,Door3,0.305555556,-0.124074088,1,0,0,1.2797,optionRight,70,4420,2,36,0,36,0,1,,,,,,,,,,,,,,,,,,,,,,,,,,,,,,,,,,,,,,,
,,,,,,,,2023-08-16_08h09.03.821,HF_wild_card,2022.2.4,Win32,60.0024001,59dd4d2b0fb3a90001bd91f8,64d2fd46c836a06233681665,64dc75f7f001a851bd4411c2,,,,,,,decisionTrl,resources/DR.BMP,resources/DBN.BMP,Door3,-0.273148148,-0.052777785,1,0,0,1.2972,optionLeft,70,4490,2,37,0,37,0,1,,,,,,,,,,,,,,,,,,,,,,,,,,,,,,,,,,,,,,,
,,,,,,,,2023-08-16_08h09.03.821,HF_wild_card,2022.2.4,Win32,60.0024001,59dd4d2b0fb3a90001bd91f8,64d2fd46c836a06233681665,64dc75f7f001a851bd4411c2,,,,,,,sngl,resources/Empty.png,resources/DR.BMP,Door3,0.26944443,-0.079629651,1,0,0,1.1956,optionRight,70,4560,2,38,0,38,0,1,,,,,,,,,,,,,,,,,,,,,,,,,,,,,,,,,,,,,,,
,,,,,,,,2023-08-16_08h09.03.821,HF_wild_card,2022.2.4,Win32,60.0024001,59dd4d2b0fb3a90001bd91f8,64d2fd46c836a06233681665,64dc75f7f001a851bd4411c2,,,,,,,decisionTrl,resources/DBN.BMP,resources/DP.BMP,Door4,0.319444444,-0.109259288,1,0,0,1.4102,optionRight,80,4640,2,39,0,39,0,1,,,,,,,,,,,,,,,,,,,,,,,,,,,,,,,,,,,,,,,
,,,,,,,,2023-08-16_08h09.03.821,HF_wild_card,2022.2.4,Win32,60.0024001,59dd4d2b0fb3a90001bd91f8,64d2fd46c836a06233681665,64dc75f7f001a851bd4411c2,,,,,,,decisionTrl,resources/DY.BMP,resources/DG.BMP,Door2,0.285185213,-0.079629651,1,0,0,4.45,optionRight,40,4680,2,40,0,40,0,1,,,,,,,,,,,,,,,,,,,,,,,,,,,,,,,,,,,,,,,
,,,,,,,,2023-08-16_08h09.03.821,HF_wild_card,2022.2.4,Win32,60.0024001,59dd4d2b0fb3a90001bd91f8,64d2fd46c836a06233681665,64dc75f7f001a851bd4411c2,,,,,,,decisionTrl,resources/DP.BMP,resources/DR.BMP,Door3,0.242592635,-0.117592635,1,0,0,1.8467,optionRight,70,4750,2,41,0,41,0,1,,,,,,,,,,,,,,,,,,,,,,,,,,,,,,,,,,,,,,,
,,,,,,,,2023-08-16_08h09.03.821,HF_wild_card,2022.2.4,Win32,60.0024001,59dd4d2b0fb3a90001bd91f8,64d2fd46c836a06233681665,64dc75f7f001a851bd4411c2,,,,,,,decisionTrl,resources/DG.BMP,resources/DY.BMP,Door2,-0.224074046,-0.056481503,1,0,0,2.6214,optionLeft,20,4770,2,42,0,42,0,1,,,,,,,,,,,,,,,,,,,,,,,,,,,,,,,,,,,,,,,
,,,,,,,,2023-08-16_08h09.03.821,HF_wild_card,2022.2.4,Win32,60.0024001,59dd4d2b0fb3a90001bd91f8,64d2fd46c836a06233681665,64dc75f7f001a851bd4411c2,,,,,,,sngl,resources/Empty.png,resources/DY.BMP,Door1,0.219444487,-0.061111132,1,0,0,1.1861,optionRight,30,4800,2,43,0,43,0,1,,,,,,,,,,,,,,,,,,,,,,,,,,,,,,,,,,,,,,,
,,,,,,,,2023-08-16_08h09.03.821,HF_wild_card,2022.2.4,Win32,60.0024001,59dd4d2b0fb3a90001bd91f8,64d2fd46c836a06233681665,64dc75f7f001a851bd4411c2,,,,,,,,,,,,,,,,,,,,,,,,,,1,0,1,0,1,,,,,,,,,,,,,,,,,,,,,,,,,,,,,,,,,,
,,,,,,,,2023-08-16_08h09.03.821,HF_wild_card,2022.2.4,Win32,60.0024001,59dd4d2b0fb3a90001bd91f8,64d2fd46c836a06233681665,64dc75f7f001a851bd4411c2,,,,,,,ctch,resources/DP.BMP,resources/DY.BMP,Door4,-0.270370342,-0.14907406,1,0,0,1.3255,optionLeft,80,4880,3,0,0,0,0,1,,,,,,,,,,,,,,,,,,,,,,,,,,,,,,,,,,,,,,,
,,,,,,,,2023-08-16_08h09.03.821,HF_wild_card,2022.2.4,Win32,60.0024001,59dd4d2b0fb3a90001bd91f8,64d2fd46c836a06233681665,64dc75f7f001a851bd4411c2,,,,,,,decisionTrl,resources/DY.BMP,resources/DG.BMP,Door1,-0.220370328,-0.034259266,1,0,0,2.6359,optionLeft,30,4910,3,1,0,1,0,1,,,,,,,,,,,,,,,,,,,,,,,,,,,,,,,,,,,,,,,
,,,,,,,,2023-08-16_08h09.03.821,HF_wild_card,2022.2.4,Win32,60.0024001,59dd4d2b0fb3a90001bd91f8,64d2fd46c836a06233681665,64dc75f7f001a851bd4411c2,,,,,,,decisionTrl,resources/DY.BMP,resources/DBN.BMP,Door1,-0.342592593,-0.076851845,1,0,0,1.1297,optionLeft,30,4940,3,2,0,2,0,1,,,,,,,,,,,,,,,,,,,,,,,,,,,,,,,,,,,,,,,
,,,,,,,,2023-08-16_08h09.03.821,HF_wild_card,2022.2.4,Win32,60.0024001,59dd4d2b0fb3a90001bd91f8,64d2fd46c836a06233681665,64dc75f7f001a851bd4411c2,,,,,,,decisionTrl,resources/DR.BMP,resources/DP.BMP,Door3,-0.301851838,-0.046296296,1,0,0,2.002,optionLeft,70,5010,3,3,0,3,0,1,,,,,,,,,,,,,,,,,,,,,,,,,,,,,,,,,,,,,,,
,,,,,,,,2023-08-16_08h09.03.821,HF_wild_card,2022.2.4,Win32,60.0024001,59dd4d2b0fb3a90001bd91f8,64d2fd46c836a06233681665,64dc75f7f001a851bd4411c2,,,,,,,decisionTrl,resources/DY.BMP,resources/DG.BMP,Door2,0.339814787,-0.135185171,1,0,0,3.0769,optionRight,40,5050,3,4,0,4,0,1,,,,,,,,,,,,,,,,,,,,,,,,,,,,,,,,,,,,,,,
,,,,,,,,2023-08-16_08h09.03.821,HF_wild_card,2022.2.4,Win32,60.0024001,59dd4d2b0fb3a90001bd91f8,64d2fd46c836a06233681665,64dc75f7f001a851bd4411c2,,,,,,,sngl,resources/DP.BMP,resources/Empty.png,Door4,-0.203703704,-0.058333326,1,0,0,1.1609,optionLeft,80,5130,3,5,0,5,0,1,,,,,,,,,,,,,,,,,,,,,,,,,,,,,,,,,,,,,,,
,,,,,,,,2023-08-16_08h09.03.821,HF_wild_card,2022.2.4,Win32,60.0024001,59dd4d2b0fb3a90001bd91f8,64d2fd46c836a06233681665,64dc75f7f001a851bd4411c2,,,,,,,ctch,resources/DG.BMP,resources/DR.BMP,Door3,0.273148148,-0.128703718,1,0,0,1.5792,optionRight,70,5200,3,6,0,6,0,1,,,,,,,,,,,,,,,,,,,,,,,,,,,,,,,,,,,,,,,
,,,,,,,,2023-08-16_08h09.03.821,HF_wild_card,2022.2.4,Win32,60.0024001,59dd4d2b0fb3a90001bd91f8,64d2fd46c836a06233681665,64dc75f7f001a851bd4411c2,,,,,,,decisionTrl,resources/DY.BMP,resources/DG.BMP,Door2,0.294444473,-0.098148134,1,0,0,4.5438,optionRight,20,5220,3,7,0,7,0,1,,,,,,,,,,,,,,,,,,,,,,,,,,,,,,,,,,,,,,,
,,,,,,,,2023-08-16_08h09.03.821,HF_wild_card,2022.2.4,Win32,60.0024001,59dd4d2b0fb3a90001bd91f8,64d2fd46c836a06233681665,64dc75f7f001a851bd4411c2,,,,,,,sngl,resources/DR.BMP,resources/Empty.png,Door3,-0.280555513,-0.030555548,1,0,0,0.9977,optionLeft,70,5290,3,8,0,8,0,1,,,,,,,,,,,,,,,,,,,,,,,,,,,,,,,,,,,,,,,
,,,,,,,,2023-08-16_08h09.03.821,HF_wild_card,2022.2.4,Win32,60.0024001,59dd4d2b0fb3a90001bd91f8,64d2fd46c836a06233681665,64dc75f7f001a851bd4411c2,,,,,,,sngl,resources/Empty.png,resources/DP.BMP,Door4,0.253703718,-0.076851845,1,0,0,1.0303,optionRight,60,5350,3,9,0,9,0,1,,,,,,,,,,,,,,,,,,,,,,,,,,,,,,,,,,,,,,,
,,,,,,,,2023-08-16_08h09.03.821,HF_wild_card,2022.2.4,Win32,60.0024001,59dd4d2b0fb3a90001bd91f8,64d2fd46c836a06233681665,64dc75f7f001a851bd4411c2,,,,,,,sngl,resources/DY.BMP,resources/Empty.png,Door1,-0.265740712,-0.077777792,1,0,0,1.0806,optionLeft,30,5380,3,10,0,10,0,1,,,,,,,,,,,,,,,,,,,,,,,,,,,,,,,,,,,,,,,
,,,,,,,,2023-08-16_08h09.03.821,HF_wild_card,2022.2.4,Win32,60.0024001,59dd4d2b0fb3a90001bd91f8,64d2fd46c836a06233681665,64dc75f7f001a851bd4411c2,,,,,,,sngl,resources/Empty.png,resources/DBN.BMP,WildCard_NonEx,0.264814801,-0.078703704,1,0,0,1.1958,optionRight,55,5435,3,11,0,11,0,1,,,,,,,,,,,,,,,,,,,,,,,,,,,,,,,,,,,,,,,
,,,,,,,,2023-08-16_08h09.03.821,HF_wild_card,2022.2.4,Win32,60.0024001,59dd4d2b0fb3a90001bd91f8,64d2fd46c836a06233681665,64dc75f7f001a851bd4411c2,,,,,,,decisionTrl,resources/DR.BMP,resources/DBN.BMP,Door3,-0.292592578,-0.074074074,1,0,0,1.4293,optionLeft,70,5505,3,12,0,12,0,1,,,,,,,,,,,,,,,,,,,,,,,,,,,,,,,,,,,,,,,
,,,,,,,,2023-08-16_08h09.03.821,HF_wild_card,2022.2.4,Win32,60.0024001,59dd4d2b0fb3a90001bd91f8,64d2fd46c836a06233681665,64dc75f7f001a851bd4411c2,,,,,,,sngl,resources/Empty.png,resources/DR.BMP,Door3,0.295370384,-0.089814822,1,0,0,0.963,optionRight,70,5575,3,13,0,13,0,1,,,,,,,,,,,,,,,,,,,,,,,,,,,,,,,,,,,,,,,
,,,,,,,,2023-08-16_08h09.03.821,HF_wild_card,2022.2.4,Win32,60.0024001,59dd4d2b0fb3a90001bd91f8,64d2fd46c836a06233681665,64dc75f7f001a851bd4411c2,,,,,,,ctch,resources/DY.BMP,resources/DP.BMP,Door4,0.26944443,-0.125,1,0,0,1.1138,optionRight,60,5635,3,14,0,14,0,1,,,,,,,,,,,,,,,,,,,,,,,,,,,,,,,,,,,,,,,
,,,,,,,,2023-08-16_08h09.03.821,HF_wild_card,2022.2.4,Win32,60.0024001,59dd4d2b0fb3a90001bd91f8,64d2fd46c836a06233681665,64dc75f7f001a851bd4411c2,,,,,,,decisionTrl,resources/DBN.BMP,resources/DR.BMP,Door3,0.294444473,-0.112037023,1,0,0,1.2968,optionRight,70,5705,3,15,0,15,0,1,,,,,,,,,,,,,,,,,,,,,,,,,,,,,,,,,,,,,,,
,,,,,,,,2023-08-16_08h09.03.821,HF_wild_card,2022.2.4,Win32,60.0024001,59dd4d2b0fb3a90001bd91f8,64d2fd46c836a06233681665,64dc75f7f001a851bd4411c2,,,,,,,ctch,resources/DG.BMP,resources/DR.BMP,Door3,0.296296296,-0.137962977,1,0,0,1.0025,optionRight,70,5775,3,16,0,16,0,1,,,,,,,,,,,,,,,,,,,,,,,,,,,,,,,,,,,,,,,
,,,,,,,,2023-08-16_08h09.03.821,HF_wild_card,2022.2.4,Win32,60.0024001,59dd4d2b0fb3a90001bd91f8,64d2fd46c836a06233681665,64dc75f7f001a851bd4411c2,,,,,,,ctch,resources/DR.BMP,resources/DG.BMP,Door3,-0.207407422,-0.08425928,1,0,0,1.0635,optionLeft,70,5845,3,17,0,17,0,1,,,,,,,,,,,,,,,,,,,,,,,,,,,,,,,,,,,,,,,
,,,,,,,,2023-08-16_08h09.03.821,HF_wild_card,2022.2.4,Win32,60.0024001,59dd4d2b0fb3a90001bd91f8,64d2fd46c836a06233681665,64dc75f7f001a851bd4411c2,,,,,,,decisionTrl,resources/DP.BMP,resources/DR.BMP,Door3,0.30277775,-0.101851852,1,0,0,1.596,optionRight,70,5915,3,18,0,18,0,1,,,,,,,,,,,,,,,,,,,,,,,,,,,,,,,,,,,,,,,
,,,,,,,,2023-08-16_08h09.03.821,HF_wild_card,2022.2.4,Win32,60.0024001,59dd4d2b0fb3a90001bd91f8,64d2fd46c836a06233681665,64dc75f7f001a851bd4411c2,,,,,,,sngl,resources/Empty.png,resources/DBN.BMP,WildCard_NonEx,0.22592594,-0.093518504,1,0,0,1.0804,optionRight,45,5960,3,19,0,19,0,1,,,,,,,,,,,,,,,,,,,,,,,,,,,,,,,,,,,,,,,
,,,,,,,,2023-08-16_08h09.03.821,HF_wild_card,2022.2.4,Win32,60.0024001,59dd4d2b0fb3a90001bd91f8,64d2fd46c836a06233681665,64dc75f7f001a851bd4411c2,,,,,,,decisionTrl,resources/DG.BMP,resources/DBN.BMP,WildCard_NonEx,0.213888875,-0.114814829,1,0,0,2.6956,optionRight,55,6015,3,20,0,20,0,1,,,,,,,,,,,,,,,,,,,,,,,,,,,,,,,,,,,,,,,
,,,,,,,,2023-08-16_08h09.03.821,HF_wild_card,2022.2.4,Win32,60.0024001,59dd4d2b0fb3a90001bd91f8,64d2fd46c836a06233681665,64dc75f7f001a851bd4411c2,,,,,,,decisionTrl,resources/DP.BMP,resources/DBN.BMP,Door4,-0.326851845,-0.099074116,1,0,0,1.1144,optionLeft,80,6095,3,21,0,21,0,1,,,,,,,,,,,,,,,,,,,,,,,,,,,,,,,,,,,,,,,
,,,,,,,,2023-08-16_08h09.03.821,HF_wild_card,2022.2.4,Win32,60.0024001,59dd4d2b0fb3a90001bd91f8,64d2fd46c836a06233681665,64dc75f7f001a851bd4411c2,,,,,,,decisionTrl,resources/DY.BMP,resources/DG.BMP,Door1,-0.157407407,-0.026851866,1,0,0,2.8622,optionLeft,30,6125,3,22,0,22,0,1,,,,,,,,,,,,,,,,,,,,,,,,,,,,,,,,,,,,,,,
,,,,,,,,2023-08-16_08h09.03.821,HF_wild_card,2022.2.4,Win32,60.0024001,59dd4d2b0fb3a90001bd91f8,64d2fd46c836a06233681665,64dc75f7f001a851bd4411c2,,,,,,,sngl,resources/Empty.png,resources/DY.BMP,Door1,0.209259245,-0.061111132,1,0,0,0.9808,optionRight,30,6155,3,23,0,23,0,1,,,,,,,,,,,,,,,,,,,,,,,,,,,,,,,,,,,,,,,
,,,,,,,,2023-08-16_08h09.03.821,HF_wild_card,2022.2.4,Win32,60.0024001,59dd4d2b0fb3a90001bd91f8,64d2fd46c836a06233681665,64dc75f7f001a851bd4411c2,,,,,,,decisionTrl,resources/DBN.BMP,resources/DG.BMP,WildCard_NonEx,-0.224999958,-0.046296296,1,0,0,1.7228,optionLeft,45,6200,3,24,0,24,0,1,,,,,,,,,,,,,,,,,,,,,,,,,,,,,,,,,,,,,,,
,,,,,,,,2023-08-16_08h09.03.821,HF_wild_card,2022.2.4,Win32,60.0024001,59dd4d2b0fb3a90001bd91f8,64d2fd46c836a06233681665,64dc75f7f001a851bd4411c2,,,,,,,sngl,resources/DG.BMP,resources/Empty.png,Door2,-0.147222236,-0.069444444,1,0,0,1.0367,optionLeft,40,6240,3,25,0,25,0,1,,,,,,,,,,,,,,,,,,,,,,,,,,,,,,,,,,,,,,,
,,,,,,,,2023-08-16_08h09.03.821,HF_wild_card,2022.2.4,Win32,60.0024001,59dd4d2b0fb3a90001bd91f8,64d2fd46c836a06233681665,64dc75f7f001a851bd4411c2,,,,,,,decisionTrl,resources/DR.BMP,resources/DP.BMP,Door3,-0.143518519,-0.092592593,1,0,0,2.2556,optionLeft,70,6310,3,26,0,26,0,1,,,,,,,,,,,,,,,,,,,,,,,,,,,,,,,,,,,,,,,
,,,,,,,,2023-08-16_08h09.03.821,HF_wild_card,2022.2.4,Win32,60.0024001,59dd4d2b0fb3a90001bd91f8,64d2fd46c836a06233681665,64dc75f7f001a851bd4411c2,,,,,,,decisionTrl,resources/DR.BMP,resources/DP.BMP,Door3,-0.22129631,-0.064814815,1,0,0,1.4957,optionLeft,70,6380,3,27,0,27,0,1,,,,,,,,,,,,,,,,,,,,,,,,,,,,,,,,,,,,,,,
,,,,,,,,2023-08-16_08h09.03.821,HF_wild_card,2022.2.4,Win32,60.0024001,59dd4d2b0fb3a90001bd91f8,64d2fd46c836a06233681665,64dc75f7f001a851bd4411c2,,,,,,,decisionTrl,resources/DG.BMP,resources/DY.BMP,Door2,-0.23055557,-0.045370384,1,0,0,3.5365,optionLeft,40,6420,3,28,0,28,0,1,,,,,,,,,,,,,,,,,,,,,,,,,,,,,,,,,,,,,,,
,,,,,,,,2023-08-16_08h09.03.821,HF_wild_card,2022.2.4,Win32,60.0024001,59dd4d2b0fb3a90001bd91f8,64d2fd46c836a06233681665,64dc75f7f001a851bd4411c2,,,,,,,sngl,resources/DBN.BMP,resources/Empty.png,WildCard_NonEx,-0.231481481,-0.058333326,1,0,0,0.9462,optionLeft,45,6465,3,29,0,29,0,1,,,,,,,,,,,,,,,,,,,,,,,,,,,,,,,,,,,,,,,
,,,,,,,,2023-08-16_08h09.03.821,HF_wild_card,2022.2.4,Win32,60.0024001,59dd4d2b0fb3a90001bd91f8,64d2fd46c836a06233681665,64dc75f7f001a851bd4411c2,,,,,,,decisionTrl,resources/DBN.BMP,resources/DP.BMP,Door4,0.253703718,-0.076851845,1,0,0,0.9799,optionRight,60,6525,3,30,0,30,0,1,,,,,,,,,,,,,,,,,,,,,,,,,,,,,,,,,,,,,,,
,,,,,,,,2023-08-16_08h09.03.821,HF_wild_card,2022.2.4,Win32,60.0024001,59dd4d2b0fb3a90001bd91f8,64d2fd46c836a06233681665,64dc75f7f001a851bd4411c2,,,,,,,decisionTrl,resources/DP.BMP,resources/DR.BMP,Door4,-0.229629587,-0.019444466,1,0,0,0.8966,optionLeft,80,6605,3,31,0,31,0,1,,,,,,,,,,,,,,,,,,,,,,,,,,,,,,,,,,,,,,,
,,,,,,,,2023-08-16_08h09.03.821,HF_wild_card,2022.2.4,Win32,60.0024001,59dd4d2b0fb3a90001bd91f8,64d2fd46c836a06233681665,64dc75f7f001a851bd4411c2,,,,,,,ctch,resources/DR.BMP,resources/DG.BMP,Door3,-0.25462963,-0.068518533,1,0,0,1.1859,optionLeft,70,6675,3,32,0,32,0,1,,,,,,,,,,,,,,,,,,,,,,,,,,,,,,,,,,,,,,,
,,,,,,,,2023-08-16_08h09.03.821,HF_wild_card,2022.2.4,Win32,60.0024001,59dd4d2b0fb3a90001bd91f8,64d2fd46c836a06233681665,64dc75f7f001a851bd4411c2,,,,,,,sngl,resources/DBN.BMP,resources/Empty.png,WildCard_NonEx,-0.218518504,-0.046296296,1,0,0,1.1289,optionLeft,55,6730,3,33,0,33,0,1,,,,,,,,,,,,,,,,,,,,,,,,,,,,,,,,,,,,,,,
,,,,,,,,2023-08-16_08h09.03.821,HF_wild_card,2022.2.4,Win32,60.0024001,59dd4d2b0fb3a90001bd91f8,64d2fd46c836a06233681665,64dc75f7f001a851bd4411c2,,,,,,,decisionTrl,resources/DBN.BMP,resources/DY.BMP,WildCard_NonEx,-0.171296296,-0.045370384,1,0,0,1.5646,optionLeft,55,6785,3,34,0,34,0,1,,,,,,,,,,,,,,,,,,,,,,,,,,,,,,,,,,,,,,,
,,,,,,,,2023-08-16_08h09.03.821,HF_wild_card,2022.2.4,Win32,60.0024001,59dd4d2b0fb3a90001bd91f8,64d2fd46c836a06233681665,64dc75f7f001a851bd4411c2,,,,,,,decisionTrl,resources/DP.BMP,resources/DR.BMP,Door4,-0.203703704,-0.057407414,1,0,0,1.7954,optionLeft,60,6845,3,35,0,35,0,1,,,,,,,,,,,,,,,,,,,,,,,,,,,,,,,,,,,,,,,
,,,,,,,,2023-08-16_08h09.03.821,HF_wild_card,2022.2.4,Win32,60.0024001,59dd4d2b0fb3a90001bd91f8,64d2fd46c836a06233681665,64dc75f7f001a851bd4411c2,,,,,,,decisionTrl,resources/DG.BMP,resources/DY.BMP,Door1,0.165740755,-0.071296303,1,0,0,2.6944,optionRight,30,6875,3,36,0,36,0,1,,,,,,,,,,,,,,,,,,,,,,,,,,,,,,,,,,,,,,,
,,,,,,,,2023-08-16_08h09.03.821,HF_wild_card,2022.2.4,Win32,60.0024001,59dd4d2b0fb3a90001bd91f8,64d2fd46c836a06233681665,64dc75f7f001a851bd4411c2,,,,,,,decisionTrl,resources/DP.BMP,resources/DR.BMP,Door3,0.27407406,-0.104629658,1,0,0,3.5015,optionRight,70,6945,3,37,0,37,0,1,,,,,,,,,,,,,,,,,,,,,,,,,,,,,,,,,,,,,,,
,,,,,,,,2023-08-16_08h09.03.821,HF_wild_card,2022.2.4,Win32,60.0024001,59dd4d2b0fb3a90001bd91f8,64d2fd46c836a06233681665,64dc75f7f001a851bd4411c2,,,,,,,decisionTrl,resources/DG.BMP,resources/DY.BMP,Door2,-0.196296268,-0.050000014,1,0,0,2.629,optionLeft,20,6965,3,38,0,38,0,1,,,,,,,,,,,,,,,,,,,,,,,,,,,,,,,,,,,,,,,
,,,,,,,,2023-08-16_08h09.03.821,HF_wild_card,2022.2.4,Win32,60.0024001,59dd4d2b0fb3a90001bd91f8,64d2fd46c836a06233681665,64dc75f7f001a851bd4411c2,,,,,,,ctch,resources/DP.BMP,resources/DY.BMP,Door4,-0.303703697,-0.082407422,1,0,0,1.396,optionLeft,60,7025,3,39,0,39,0,1,,,,,,,,,,,,,,,,,,,,,,,,,,,,,,,,,,,,,,,
,,,,,,,,2023-08-16_08h09.03.821,HF_wild_card,2022.2.4,Win32,60.0024001,59dd4d2b0fb3a90001bd91f8,64d2fd46c836a06233681665,64dc75f7f001a851bd4411c2,,,,,,,decisionTrl,resources/DG.BMP,resources/DY.BMP,Door1,0.189814815,-0.076851845,1,0,0,2.3288,optionRight,30,7055,3,40,0,40,0,1,,,,,,,,,,,,,,,,,,,,,,,,,,,,,,,,,,,,,,,
,,,,,,,,2023-08-16_08h09.03.821,HF_wild_card,2022.2.4,Win32,60.0024001,59dd4d2b0fb3a90001bd91f8,64d2fd46c836a06233681665,64dc75f7f001a851bd4411c2,,,,,,,decisionTrl,resources/DR.BMP,resources/DP.BMP,Door3,-0.204629616,-0.065740762,1,0,0,1.6127,optionLeft,70,7125,3,41,0,41,0,1,,,,,,,,,,,,,,,,,,,,,,,,,,,,,,,,,,,,,,,
,,,,,,,,2023-08-16_08h09.03.821,HF_wild_card,2022.2.4,Win32,60.0024001,59dd4d2b0fb3a90001bd91f8,64d2fd46c836a06233681665,64dc75f7f001a851bd4411c2,,,,,,,sngl,resources/Empty.png,resources/DG.BMP,Door2,0.196296339,-0.036111125,1,0,0,1.2963,optionRight,20,7145,3,42,0,42,0,1,,,,,,,,,,,,,,,,,,,,,,,,,,,,,,,,,,,,,,,
,,,,,,,,2023-08-16_08h09.03.821,HF_wild_card,2022.2.4,Win32,60.0024001,59dd4d2b0fb3a90001bd91f8,64d2fd46c836a06233681665,64dc75f7f001a851bd4411c2,,,,,,,ctch,resources/DY.BMP,resources/DP.BMP,Door4,0.253703718,-0.092592593,1,0,0,1.5462,optionRight,80,7225,3,43,0,43,0,1,,,,,,,,,,,,,,,,,,,,,,,,,,,,,,,,,,,,,,,
,,,,,,,,2023-08-16_08h09.03.821,HF_wild_card,2022.2.4,Win32,60.0024001,59dd4d2b0fb3a90001bd91f8,64d2fd46c836a06233681665,64dc75f7f001a851bd4411c2,,,,,,,,,,,,,,,,,,,,,,,,,,2,0,2,0,1,,,,,,,,,,,,,,,,,,,,,,,,,,,,,,,,,,
,,,,,,,,2023-08-16_08h09.03.821,HF_wild_card,2022.2.4,Win32,60.0024001,59dd4d2b0fb3a90001bd91f8,64d2fd46c836a06233681665,64dc75f7f001a851bd4411c2,,,,,,,sngl,resources/DP.BMP,resources/Empty.png,Door4,-0.348148134,-0.163888931,1,0,0,1.5248,optionLeft,60,7285,4,0,0,0,0,1,,,,,,,,,,,,,,,,,,,,,,,,,,,,,,,,,,,,,,,
,,,,,,,,2023-08-16_08h09.03.821,HF_wild_card,2022.2.4,Win32,60.0024001,59dd4d2b0fb3a90001bd91f8,64d2fd46c836a06233681665,64dc75f7f001a851bd4411c2,,,,,,,ctch,resources/DG.BMP,resources/DR.BMP,Door3,0.257407436,-0.077777792,1,0,0,1.2363,optionRight,70,7355,4,1,0,1,0,1,,,,,,,,,,,,,,,,,,,,,,,,,,,,,,,,,,,,,,,
,,,,,,,,2023-08-16_08h09.03.821,HF_wild_card,2022.2.4,Win32,60.0024001,59dd4d2b0fb3a90001bd91f8,64d2fd46c836a06233681665,64dc75f7f001a851bd4411c2,,,,,,,sngl,resources/Empty.png,resources/DB.BMP,WildCard_Ex,0.242592635,-0.094444487,1,0,0,1.5466,optionRight,55,7410,4,2,0,2,0,1,,,,,,,,,,,,,,,,,,,,,,,,,,,,,,,,,,,,,,,
,,,,,,,,2023-08-16_08h09.03.821,HF_wild_card,2022.2.4,Win32,60.0024001,59dd4d2b0fb3a90001bd91f8,64d2fd46c836a06233681665,64dc75f7f001a851bd4411c2,,,,,,,decisionTrl,resources/DY.BMP,resources/DG.BMP,Door1,-0.185185185,-0.056481503,1,0,0,2.3694,optionLeft,30,7440,4,3,0,3,0,1,,,,,,,,,,,,,,,,,,,,,,,,,,,,,,,,,,,,,,,
,,,,,,,,2023-08-16_08h09.03.821,HF_wild_card,2022.2.4,Win32,60.0024001,59dd4d2b0fb3a90001bd91f8,64d2fd46c836a06233681665,64dc75f7f001a851bd4411c2,,,,,,,decisionTrl,resources/DG.BMP,resources/DY.BMP,Door1,0.220370399,-0.087962963,1,0,0,2.0453,optionRight,30,7470,4,4,0,4,0,1,,,,,,,,,,,,,,,,,,,,,,,,,,,,,,,,,,,,,,,
,,,,,,,,2023-08-16_08h09.03.821,HF_wild_card,2022.2.4,Win32,60.0024001,59dd4d2b0fb3a90001bd91f8,64d2fd46c836a06233681665,64dc75f7f001a851bd4411c2,,,,,,,decisionTrl,resources/DR.BMP,resources/DP.BMP,Door3,-0.294444402,0.017592571,1,0,0,1.996,optionLeft,70,7540,4,5,0,5,0,1,,,,,,,,,,,,,,,,,,,,,,,,,,,,,,,,,,,,,,,
,,,,,,,,2023-08-16_08h09.03.821,HF_wild_card,2022.2.4,Win32,60.0024001,59dd4d2b0fb3a90001bd91f8,64d2fd46c836a06233681665,64dc75f7f001a851bd4411c2,,,,,,,sngl,resources/DG.BMP,resources/Empty.png,Door2,-0.213888875,-0.057407414,1,0,0,1.1296,optionLeft,20,7560,4,6,0,6,0,1,,,,,,,,,,,,,,,,,,,,,,,,,,,,,,,,,,,,,,,
,,,,,,,,2023-08-16_08h09.03.821,HF_wild_card,2022.2.4,Win32,60.0024001,59dd4d2b0fb3a90001bd91f8,64d2fd46c836a06233681665,64dc75f7f001a851bd4411c2,,,,,,,sngl,resources/Empty.png,resources/DB.BMP,WildCard_Ex,0.248148176,-0.070370392,1,0,0,1.13,optionRight,45,7605,4,7,0,7,0,1,,,,,,,,,,,,,,,,,,,,,,,,,,,,,,,,,,,,,,,
,,,,,,,,2023-08-16_08h09.03.821,HF_wild_card,2022.2.4,Win32,60.0024001,59dd4d2b0fb3a90001bd91f8,64d2fd46c836a06233681665,64dc75f7f001a851bd4411c2,,,,,,,sngl,resources/DB.BMP,resources/Empty.png,WildCard_Ex,-0.199074074,-0.039814808,1,0,0,1.1294,optionLeft,45,7650,4,8,0,8,0,1,,,,,,,,,,,,,,,,,,,,,,,,,,,,,,,,,,,,,,,
,,,,,,,,2023-08-16_08h09.03.821,HF_wild_card,2022.2.4,Win32,60.0024001,59dd4d2b0fb3a90001bd91f8,64d2fd46c836a06233681665,64dc75f7f001a851bd4411c2,,,,,,,decisionTrl,resources/DR.BMP,resources/DB.BMP,Door3,-0.256481453,-0.046296296,1,0,0,1.4627,optionLeft,70,7720,4,9,0,9,0,1,,,,,,,,,,,,,,,,,,,,,,,,,,,,,,,,,,,,,,,
,,,,,,,,2023-08-16_08h09.03.821,HF_wild_card,2022.2.4,Win32,60.0024001,59dd4d2b0fb3a90001bd91f8,64d2fd46c836a06233681665,64dc75f7f001a851bd4411c2,,,,,,,ctch,resources/DR.BMP,resources/DG.BMP,Door3,-0.279629601,-0.080555563,1,0,0,1.0804,optionLeft,70,7790,4,10,0,10,0,1,,,,,,,,,,,,,,,,,,,,,,,,,,,,,,,,,,,,,,,
,,,,,,,,2023-08-16_08h09.03.821,HF_wild_card,2022.2.4,Win32,60.0024001,59dd4d2b0fb3a90001bd91f8,64d2fd46c836a06233681665,64dc75f7f001a851bd4411c2,,,,,,,decisionTrl,resources/DY.BMP,resources/DG.BMP,Door1,-0.187037009,-0.030555548,1,0,0,2.9785,optionLeft,30,7820,4,11,0,11,0,1,,,,,,,,,,,,,,,,,,,,,,,,,,,,,,,,,,,,,,,
,,,,,,,,2023-08-16_08h09.03.821,HF_wild_card,2022.2.4,Win32,60.0024001,59dd4d2b0fb3a90001bd91f8,64d2fd46c836a06233681665,64dc75f7f001a851bd4411c2,,,,,,,decisionTrl,resources/DR.BMP,resources/DP.BMP,Door3,-0.237962935,-0.070370392,1,0,0,1.6967,optionLeft,70,7890,4,12,0,12,0,1,,,,,,,,,,,,,,,,,,,,,,,,,,,,,,,,,,,,,,,
,,,,,,,,2023-08-16_08h09.03.821,HF_wild_card,2022.2.4,Win32,60.0024001,59dd4d2b0fb3a90001bd91f8,64d2fd46c836a06233681665,64dc75f7f001a851bd4411c2,,,,,,,decisionTrl,resources/DG.BMP,resources/DY.BMP,Door2,-0.184259273,-0.049074067,1,0,0,3.1284,optionLeft,20,7910,4,13,0,13,0,1,,,,,,,,,,,,,,,,,,,,,,,,,,,,,,,,,,,,,,,
,,,,,,,,2023-08-16_08h09.03.821,HF_wild_card,2022.2.4,Win32,60.0024001,59dd4d2b0fb3a90001bd91f8,64d2fd46c836a06233681665,64dc75f7f001a851bd4411c2,,,,,,,decisionTrl,resources/DB.BMP,resources/DP.BMP,Door4,0.190740727,-0.036111125,1,0,0,1.7937,optionRight,60,7970,4,14,0,14,0,1,,,,,,,,,,,,,,,,,,,,,,,,,,,,,,,,,,,,,,,
,,,,,,,,2023-08-16_08h09.03.821,HF_wild_card,2022.2.4,Win32,60.0024001,59dd4d2b0fb3a90001bd91f8,64d2fd46c836a06233681665,64dc75f7f001a851bd4411c2,,,,,,,decisionTrl,resources/DP.BMP,resources/DR.BMP,Door3,0.171296296,-0.092592593,1,0,0,1.7464,optionRight,70,8040,4,15,0,15,0,1,,,,,,,,,,,,,,,,,,,,,,,,,,,,,,,,,,,,,,,
,,,,,,,,2023-08-16_08h09.03.821,HF_wild_card,2022.2.4,Win32,60.0024001,59dd4d2b0fb3a90001bd91f8,64d2fd46c836a06233681665,64dc75f7f001a851bd4411c2,,,,,,,decisionTrl,resources/DB.BMP,resources/DG.BMP,WildCard_Ex,-0.337962963,-0.139814801,1,0,0,1.7538,optionLeft,45,8085,4,16,0,16,0,1,,,,,,,,,,,,,,,,,,,,,,,,,,,,,,,,,,,,,,,
,,,,,,,,2023-08-16_08h09.03.821,HF_wild_card,2022.2.4,Win32,60.0024001,59dd4d2b0fb3a90001bd91f8,64d2fd46c836a06233681665,64dc75f7f001a851bd4411c2,,,,,,,decisionTrl,resources/DY.BMP,resources/DB.BMP,WildCard_Ex,0.228703746,-0.094444487,1,0,0,1.5874,optionRight,45,8130,4,17,0,17,0,1,,,,,,,,,,,,,,,,,,,,,,,,,,,,,,,,,,,,,,,
,,,,,,,,2023-08-16_08h09.03.821,HF_wild_card,2022.2.4,Win32,60.0024001,59dd4d2b0fb3a90001bd91f8,64d2fd46c836a06233681665,64dc75f7f001a851bd4411c2,,,,,,,decisionTrl,resources/DY.BMP,resources/DG.BMP,Door1,-0.191666638,-0.034259266,1,0,0,2.2296,optionLeft,30,8160,4,18,0,18,0,1,,,,,,,,,,,,,,,,,,,,,,,,,,,,,,,,,,,,,,,
,,,,,,,,2023-08-16_08h09.03.821,HF_wild_card,2022.2.4,Win32,60.0024001,59dd4d2b0fb3a90001bd91f8,64d2fd46c836a06233681665,64dc75f7f001a851bd4411c2,,,,,,,sngl,resources/Empty.png,resources/DY.BMP,Door1,0.223148134,-0.060185185,1,0,0,0.9867,optionRight,30,8190,4,19,0,19,0,1,,,,,,,,,,,,,,,,,,,,,,,,,,,,,,,,,,,,,,,
,,,,,,,,2023-08-16_08h09.03.821,HF_wild_card,2022.2.4,Win32,60.0024001,59dd4d2b0fb3a90001bd91f8,64d2fd46c836a06233681665,64dc75f7f001a851bd4411c2,,,,,,,decisionTrl,resources/DP.BMP,resources/DR.BMP,Door3,0.260185171,-0.052777785,1,0,0,2.013,optionRight,70,8260,4,20,0,20,0,1,,,,,,,,,,,,,,,,,,,,,,,,,,,,,,,,,,,,,,,
,,,,,,,,2023-08-16_08h09.03.821,HF_wild_card,2022.2.4,Win32,60.0024001,59dd4d2b0fb3a90001bd91f8,64d2fd46c836a06233681665,64dc75f7f001a851bd4411c2,,,,,,,ctch,resources/DG.BMP,resources/DR.BMP,Door3,0.237037023,-0.075925933,1,0,0,1.1295,optionRight,70,8330,4,21,0,21,0,1,,,,,,,,,,,,,,,,,,,,,,,,,,,,,,,,,,,,,,,
,,,,,,,,2023-08-16_08h09.03.821,HF_wild_card,2022.2.4,Win32,60.0024001,59dd4d2b0fb3a90001bd91f8,64d2fd46c836a06233681665,64dc75f7f001a851bd4411c2,,,,,,,decisionTrl,resources/DG.BMP,resources/DY.BMP,Door1,0.25,-0.087037051,1,0,0,3.8448,optionRight,30,8360,4,22,0,22,0,1,,,,,,,,,,,,,,,,,,,,,,,,,,,,,,,,,,,,,,,
,,,,,,,,2023-08-16_08h09.03.821,HF_wild_card,2022.2.4,Win32,60.0024001,59dd4d2b0fb3a90001bd91f8,64d2fd46c836a06233681665,64dc75f7f001a851bd4411c2,,,,,,,decisionTrl,resources/DY.BMP,resources/DG.BMP,Door1,-0.227777764,-0.067592586,1,0,0,1.321,optionLeft,30,8390,4,23,0,23,0,1,,,,,,,,,,,,,,,,,,,,,,,,,,,,,,,,,,,,,,,
,,,,,,,,2023-08-16_08h09.03.821,HF_wild_card,2022.2.4,Win32,60.0024001,59dd4d2b0fb3a90001bd91f8,64d2fd46c836a06233681665,64dc75f7f001a851bd4411c2,,,,,,,ctch,resources/DY.BMP,resources/DP.BMP,Door4,0.212037051,-0.094444487,1,0,0,1.1475,optionRight,80,8470,4,24,0,24,0,1,,,,,,,,,,,,,,,,,,,,,,,,,,,,,,,,,,,,,,,
,,,,,,,,2023-08-16_08h09.03.821,HF_wild_card,2022.2.4,Win32,60.0024001,59dd4d2b0fb3a90001bd91f8,64d2fd46c836a06233681665,64dc75f7f001a851bd4411c2,,,,,,,ctch,resources/DY.BMP,resources/DP.BMP,Door4,0.187037079,-0.077777792,1,0,0,1.0312,optionRight,60,8530,4,25,0,25,0,1,,,,,,,,,,,,,,,,,,,,,,,,,,,,,,,,,,,,,,,
,,,,,,,,2023-08-16_08h09.03.821,HF_wild_card,2022.2.4,Win32,60.0024001,59dd4d2b0fb3a90001bd91f8,64d2fd46c836a06233681665,64dc75f7f001a851bd4411c2,,,,,,,decisionTrl,resources/DP.BMP,resources/DB.BMP,Door4,-0.193518533,-0.068518533,1,0,0,1.5961,optionLeft,60,8590,4,26,0,26,0,1,,,,,,,,,,,,,,,,,,,,,,,,,,,,,,,,,,,,,,,
,,,,,,,,2023-08-16_08h09.03.821,HF_wild_card,2022.2.4,Win32,60.0024001,59dd4d2b0fb3a90001bd91f8,64d2fd46c836a06233681665,64dc75f7f001a851bd4411c2,,,,,,,sngl,resources/DR.BMP,resources/Empty.png,Door3,-0.130555541,-0.044444437,1,0,0,1.1291,optionLeft,70,8660,4,27,0,27,0,1,,,,,,,,,,,,,,,,,,,,,,,,,,,,,,,,,,,,,,,
,,,,,,,,2023-08-16_08h09.03.821,HF_wild_card,2022.2.4,Win32,60.0024001,59dd4d2b0fb3a90001bd91f8,64d2fd46c836a06233681665,64dc75f7f001a851bd4411c2,,,,,,,decisionTrl,resources/DB.BMP,resources/DY.BMP,WildCard_Ex,-0.174074032,-0.070370392,1,0,0,1.5791,optionLeft,45,8705,4,28,0,28,0,1,,,,,,,,,,,,,,,,,,,,,,,,,,,,,,,,,,,,,,,
,,,,,,,,2023-08-16_08h09.03.821,HF_wild_card,2022.2.4,Win32,60.0024001,59dd4d2b0fb3a90001bd91f8,64d2fd46c836a06233681665,64dc75f7f001a851bd4411c2,,,,,,,ctch,resources/DP.BMP,resources/DY.BMP,Door4,-0.218518504,-0.076851845,1,0,0,1.1463,optionLeft,80,8785,4,29,0,29,0,1,,,,,,,,,,,,,,,,,,,,,,,,,,,,,,,,,,,,,,,
,,,,,,,,2023-08-16_08h09.03.821,HF_wild_card,2022.2.4,Win32,60.0024001,59dd4d2b0fb3a90001bd91f8,64d2fd46c836a06233681665,64dc75f7f001a851bd4411c2,,,,,,,decisionTrl,resources/DG.BMP,resources/DB.BMP,WildCard_Ex,0.156481496,-0.078703704,1,0,0,1.5965,optionRight,45,8830,4,30,0,30,0,1,,,,,,,,,,,,,,,,,,,,,,,,,,,,,,,,,,,,,,,
,,,,,,,,2023-08-16_08h09.03.821,HF_wild_card,2022.2.4,Win32,60.0024001,59dd4d2b0fb3a90001bd91f8,64d2fd46c836a06233681665,64dc75f7f001a851bd4411c2,,,,,,,ctch,resources/DP.BMP,resources/DY.BMP,Door4,-0.19259255,-0.059259273,1,0,0,1.2802,optionLeft,60,8890,4,31,0,31,0,1,,,,,,,,,,,,,,,,,,,,,,,,,,,,,,,,,,,,,,,
,,,,,,,,2023-08-16_08h09.03.821,HF_wild_card,2022.2.4,Win32,60.0024001,59dd4d2b0fb3a90001bd91f8,64d2fd46c836a06233681665,64dc75f7f001a851bd4411c2,,,,,,,decisionTrl,resources/DG.BMP,resources/DY.BMP,Door2,-0.182407379,-0.022222236,1,0,0,2.663,optionLeft,40,8930,4,32,0,32,0,1,,,,,,,,,,,,,,,,,,,,,,,,,,,,,,,,,,,,,,,
,,,,,,,,2023-08-16_08h09.03.821,HF_wild_card,2022.2.4,Win32,60.0024001,59dd4d2b0fb3a90001bd91f8,64d2fd46c836a06233681665,64dc75f7f001a851bd4411c2,,,,,,,sngl,resources/Empty.png,resources/DP.BMP,Door4,0.213888875,-0.062037044,1,0,0,1.0803,optionRight,80,9010,4,33,0,33,0,1,,,,,,,,,,,,,,,,,,,,,,,,,,,,,,,,,,,,,,,
,,,,,,,,2023-08-16_08h09.03.821,HF_wild_card,2022.2.4,Win32,60.0024001,59dd4d2b0fb3a90001bd91f8,64d2fd46c836a06233681665,64dc75f7f001a851bd4411c2,,,,,,,decisionTrl,resources/DR.BMP,resources/DP.BMP,Door3,-0.178703661,-0.055555556,1,0,0,2.1954,optionLeft,70,9080,4,34,0,34,0,1,,,,,,,,,,,,,,,,,,,,,,,,,,,,,,,,,,,,,,,
,,,,,,,,2023-08-16_08h09.03.821,HF_wild_card,2022.2.4,Win32,60.0024001,59dd4d2b0fb3a90001bd91f8,64d2fd46c836a06233681665,64dc75f7f001a851bd4411c2,,,,,,,decisionTrl,resources/DR.BMP,resources/DP.BMP,Door4,0.211111139,-0.050925926,1,0,0,1.78,optionRight,60,9140,4,35,0,35,0,1,,,,,,,,,,,,,,,,,,,,,,,,,,,,,,,,,,,,,,,
,,,,,,,,2023-08-16_08h09.03.821,HF_wild_card,2022.2.4,Win32,60.0024001,59dd4d2b0fb3a90001bd91f8,64d2fd46c836a06233681665,64dc75f7f001a851bd4411c2,,,,,,,sngl,resources/Empty.png,resources/DG.BMP,Door2,0.170370384,-0.048148155,1,0,0,1.0973,optionRight,40,9180,4,36,0,36,0,1,,,,,,,,,,,,,,,,,,,,,,,,,,,,,,,,,,,,,,,
,,,,,,,,2023-08-16_08h09.03.821,HF_wild_card,2022.2.4,Win32,60.0024001,59dd4d2b0fb3a90001bd91f8,64d2fd46c836a06233681665,64dc75f7f001a851bd4411c2,,,,,,,sngl,resources/DB.BMP,resources/Empty.png,WildCard_Ex,-0.139814801,-0.032407407,1,0,0,1.048,optionLeft,55,9235,4,37,0,37,0,1,,,,,,,,,,,,,,,,,,,,,,,,,,,,,,,,,,,,,,,
,,,,,,,,2023-08-16_08h09.03.821,HF_wild_card,2022.2.4,Win32,60.0024001,59dd4d2b0fb3a90001bd91f8,64d2fd46c836a06233681665,64dc75f7f001a851bd4411c2,,,,,,,sngl,resources/Empty.png,resources/DR.BMP,Door3,0.224074116,-0.064814815,1,0,0,1.203,optionRight,70,9305,4,38,0,38,0,1,,,,,,,,,,,,,,,,,,,,,,,,,,,,,,,,,,,,,,,
,,,,,,,,2023-08-16_08h09.03.821,HF_wild_card,2022.2.4,Win32,60.0024001,59dd4d2b0fb3a90001bd91f8,64d2fd46c836a06233681665,64dc75f7f001a851bd4411c2,,,,,,,sngl,resources/DY.BMP,resources/Empty.png,Door1,-0.191666638,-0.086111104,1,0,0,1.0301,optionLeft,30,9335,4,39,0,39,0,1,,,,,,,,,,,,,,,,,,,,,,,,,,,,,,,,,,,,,,,
,,,,,,,,2023-08-16_08h09.03.821,HF_wild_card,2022.2.4,Win32,60.0024001,59dd4d2b0fb3a90001bd91f8,64d2fd46c836a06233681665,64dc75f7f001a851bd4411c2,,,,,,,decisionTrl,resources/DB.BMP,resources/DR.BMP,Door3,0.204629616,-0.058333326,1,0,0,1.3804,optionRight,70,9405,4,40,0,40,0,1,,,,,,,,,,,,,,,,,,,,,,,,,,,,,,,,,,,,,,,
,,,,,,,,2023-08-16_08h09.03.821,HF_wild_card,2022.2.4,Win32,60.0024001,59dd4d2b0fb3a90001bd91f8,64d2fd46c836a06233681665,64dc75f7f001a851bd4411c2,,,,,,,decisionTrl,resources/DP.BMP,resources/DR.BMP,Door3,0.205555598,-0.083333333,1,0,0,1.2466,optionRight,70,9475,4,41,0,41,0,1,,,,,,,,,,,,,,,,,,,,,,,,,,,,,,,,,,,,,,,
,,,,,,,,2023-08-16_08h09.03.821,HF_wild_card,2022.2.4,Win32,60.0024001,59dd4d2b0fb3a90001bd91f8,64d2fd46c836a06233681665,64dc75f7f001a851bd4411c2,,,,,,,ctch,resources/DR.BMP,resources/DG.BMP,Door3,-0.183333291,-0.097222222,1,0,0,1.1461,optionLeft,70,9545,4,42,0,42,0,1,,,,,,,,,,,,,,,,,,,,,,,,,,,,,,,,,,,,,,,
,,,,,,,,2023-08-16_08h09.03.821,HF_wild_card,2022.2.4,Win32,60.0024001,59dd4d2b0fb3a90001bd91f8,64d2fd46c836a06233681665,64dc75f7f001a851bd4411c2,,,,,,,decisionTrl,resources/DP.BMP,resources/DR.BMP,Door3,0.213888875,-0.110185199,1,0,0,1.5791,optionRight,70,9615,4,43,0,43,0,1,,,,,,,,,,,,,,,,,,,,,,,,,,,,,,,,,,,,,,,
,,,,,,,,2023-08-16_08h09.03.821,HF_wild_card,2022.2.4,Win32,60.0024001,59dd4d2b0fb3a90001bd91f8,64d2fd46c836a06233681665,64dc75f7f001a851bd4411c2,,,,,,,,,,,,,,,,,,,,,,,,,,3,0,3,0,1,,,,,,,,,,,,,,,,,,,,,,,,,,,,,,,,,,
,,,,,,,,2023-08-16_08h09.03.821,HF_wild_card,2022.2.4,Win32,60.0024001,59dd4d2b0fb3a90001bd91f8,64d2fd46c836a06233681665,64dc75f7f001a851bd4411c2,,,,,,,decisionTrl,resources/DY.BMP,resources/DG.BMP,Door1,-0.183333291,-0.135185171,1,0,0,1.6003,optionLeft,30,9645,5,0,0,0,0,1,,,,,,,,,,,,,,,,,,,,,,,,,,,,,,,,,,,,,,,
,,,,,,,,2023-08-16_08h09.03.821,HF_wild_card,2022.2.4,Win32,60.0024001,59dd4d2b0fb3a90001bd91f8,64d2fd46c836a06233681665,64dc75f7f001a851bd4411c2,,,,,,,decisionTrl,resources/DG.BMP,resources/DY.BMP,Door1,0.20648151,-0.064814815,1,0,0,1.2946,optionRight,30,9675,5,1,0,1,0,1,,,,,,,,,,,,,,,,,,,,,,,,,,,,,,,,,,,,,,,
,,,,,,,,2023-08-16_08h09.03.821,HF_wild_card,2022.2.4,Win32,60.0024001,59dd4d2b0fb3a90001bd91f8,64d2fd46c836a06233681665,64dc75f7f001a851bd4411c2,,,,,,,sngl,resources/DY.BMP,resources/Empty.png,Door1,-0.188888903,-0.079629651,1,0,0,0.9637,optionLeft,30,9705,5,2,0,2,0,1,,,,,,,,,,,,,,,,,,,,,,,,,,,,,,,,,,,,,,,
,,,,,,,,2023-08-16_08h09.03.821,HF_wild_card,2022.2.4,Win32,60.0024001,59dd4d2b0fb3a90001bd91f8,64d2fd46c836a06233681665,64dc75f7f001a851bd4411c2,,,,,,,decisionTrl,resources/DG.BMP,resources/DY.BMP,Door1,0.165740755,-0.054629644,1,0,0,1.28,optionRight,30,9735,5,3,0,3,0,1,,,,,,,,,,,,,,,,,,,,,,,,,,,,,,,,,,,,,,,
,,,,,,,,2023-08-16_08h09.03.821,HF_wild_card,2022.2.4,Win32,60.0024001,59dd4d2b0fb3a90001bd91f8,64d2fd46c836a06233681665,64dc75f7f001a851bd4411c2,,,,,,,ctch,resources/DR.BMP,resources/DG.BMP,Door3,-0.22592594,-0.092592593,1,0,0,1.2802,optionLeft,70,9805,5,4,0,4,0,1,,,,,,,,,,,,,,,,,,,,,,,,,,,,,,,,,,,,,,,
,,,,,,,,2023-08-16_08h09.03.821,HF_wild_card,2022.2.4,Win32,60.0024001,59dd4d2b0fb3a90001bd91f8,64d2fd46c836a06233681665,64dc75f7f001a851bd4411c2,,,,,,,decisionTrl,resources/DR.BMP,resources/DP.BMP,Door3,-0.217592593,-0.053703697,1,0,0,1.4942,optionLeft,70,9875,5,5,0,5,0,1,,,,,,,,,,,,,,,,,,,,,,,,,,,,,,,,,,,,,,,
,,,,,,,,2023-08-16_08h09.03.821,HF_wild_card,2022.2.4,Win32,60.0024001,59dd4d2b0fb3a90001bd91f8,64d2fd46c836a06233681665,64dc75f7f001a851bd4411c2,,,,,,,ctch,resources/DR.BMP,resources/DG.BMP,Door3,-0.256481453,-0.097222222,1,0,0,1.0128,optionLeft,70,9945,5,6,0,6,0,1,,,,,,,,,,,,,,,,,,,,,,,,,,,,,,,,,,,,,,,
,,,,,,,,2023-08-16_08h09.03.821,HF_wild_card,2022.2.4,Win32,60.0024001,59dd4d2b0fb3a90001bd91f8,64d2fd46c836a06233681665,64dc75f7f001a851bd4411c2,,,,,,,decisionTrl,resources/DG.BMP,resources/DY.BMP,Door2,-0.196296268,-0.081481474,1,0,0,2.0125,optionLeft,40,9985,5,7,0,7,0,1,,,,,,,,,,,,,,,,,,,,,,,,,,,,,,,,,,,,,,,
,,,,,,,,2023-08-16_08h09.03.821,HF_wild_card,2022.2.4,Win32,60.0024001,59dd4d2b0fb3a90001bd91f8,64d2fd46c836a06233681665,64dc75f7f001a851bd4411c2,,,,,,,sngl,resources/Empty.png,resources/DB.BMP,WildCard_Ex,0.188888903,-0.042592614,1,0,0,1.1296,optionRight,55,10040,5,8,0,8,0,1,,,,,,,,,,,,,,,,,,,,,,,,,,,,,,,,,,,,,,,
,,,,,,,,2023-08-16_08h09.03.821,HF_wild_card,2022.2.4,Win32,60.0024001,59dd4d2b0fb3a90001bd91f8,64d2fd46c836a06233681665,64dc75f7f001a851bd4411c2,,,,,,,decisionTrl,resources/DP.BMP,resources/DR.BMP,Door3,0.20185188,-0.081481474,1,0,0,1.4799,optionRight,70,10110,5,9,0,9,0,1,,,,,,,,,,,,,,,,,,,,,,,,,,,,,,,,,,,,,,,
,,,,,,,,2023-08-16_08h09.03.821,HF_wild_card,2022.2.4,Win32,60.0024001,59dd4d2b0fb3a90001bd91f8,64d2fd46c836a06233681665,64dc75f7f001a851bd4411c2,,,,,,,sngl,resources/Empty.png,resources/DB.BMP,WildCard_Ex,0.202777792,-0.085185192,1,0,0,1.1468,optionRight,45,10155,5,10,0,10,0,1,,,,,,,,,,,,,,,,,,,,,,,,,,,,,,,,,,,,,,,
,,,,,,,,2023-08-16_08h09.03.821,HF_wild_card,2022.2.4,Win32,60.0024001,59dd4d2b0fb3a90001bd91f8,64d2fd46c836a06233681665,64dc75f7f001a851bd4411c2,,,,,,,decisionTrl,resources/DB.BMP,resources/DY.BMP,WildCard_Ex,-0.190740727,-0.075925933,1,0,0,1.413,optionLeft,55,10210,5,11,0,11,0,1,,,,,,,,,,,,,,,,,,,,,,,,,,,,,,,,,,,,,,,
,,,,,,,,2023-08-16_08h09.03.821,HF_wild_card,2022.2.4,Win32,60.0024001,59dd4d2b0fb3a90001bd91f8,64d2fd46c836a06233681665,64dc75f7f001a851bd4411c2,,,,,,,ctch,resources/DY.BMP,resources/DP.BMP,Door4,0.176851838,-0.071296303,1,0,0,1.1806,optionRight,60,10270,5,12,0,12,0,1,,,,,,,,,,,,,,,,,,,,,,,,,,,,,,,,,,,,,,,
,,,,,,,,2023-08-16_08h09.03.821,HF_wild_card,2022.2.4,Win32,60.0024001,59dd4d2b0fb3a90001bd91f8,64d2fd46c836a06233681665,64dc75f7f001a851bd4411c2,,,,,,,ctch,resources/DG.BMP,resources/DR.BMP,Door3,0.22129631,-0.08888891,1,0,0,1.0816,optionRight,70,10340,5,13,0,13,0,1,,,,,,,,,,,,,,,,,,,,,,,,,,,,,,,,,,,,,,,
,,,,,,,,2023-08-16_08h09.03.821,HF_wild_card,2022.2.4,Win32,60.0024001,59dd4d2b0fb3a90001bd91f8,64d2fd46c836a06233681665,64dc75f7f001a851bd4411c2,,,,,,,decisionTrl,resources/DP.BMP,resources/DR.BMP,Door3,0.208333333,-0.082407422,1,0,0,1.3226,optionRight,70,10410,5,14,0,14,0,1,,,,,,,,,,,,,,,,,,,,,,,,,,,,,,,,,,,,,,,
,,,,,,,,2023-08-16_08h09.03.821,HF_wild_card,2022.2.4,Win32,60.0024001,59dd4d2b0fb3a90001bd91f8,64d2fd46c836a06233681665,64dc75f7f001a851bd4411c2,,,,,,,ctch,resources/DG.BMP,resources/DR.BMP,Door3,0.170370384,-0.062037044,1,0,0,1.0813,optionRight,70,10480,5,15,0,15,0,1,,,,,,,,,,,,,,,,,,,,,,,,,,,,,,,,,,,,,,,
,,,,,,,,2023-08-16_08h09.03.821,HF_wild_card,2022.2.4,Win32,60.0024001,59dd4d2b0fb3a90001bd91f8,64d2fd46c836a06233681665,64dc75f7f001a851bd4411c2,,,,,,,decisionTrl,resources/DP.BMP,resources/DB.BMP,Door4,-0.187037009,-0.080555563,1,0,0,1.5802,optionLeft,60,10540,5,16,0,16,0,1,,,,,,,,,,,,,,,,,,,,,,,,,,,,,,,,,,,,,,,
,,,,,,,,2023-08-16_08h09.03.821,HF_wild_card,2022.2.4,Win32,60.0024001,59dd4d2b0fb3a90001bd91f8,64d2fd46c836a06233681665,64dc75f7f001a851bd4411c2,,,,,,,decisionTrl,resources/DP.BMP,resources/DR.BMP,Door3,0.235185199,-0.094444487,1,0,0,1.3884,optionRight,70,10610,5,17,0,17,0,1,,,,,,,,,,,,,,,,,,,,,,,,,,,,,,,,,,,,,,,
,,,,,,,,2023-08-16_08h09.03.821,HF_wild_card,2022.2.4,Win32,60.0024001,59dd4d2b0fb3a90001bd91f8,64d2fd46c836a06233681665,64dc75f7f001a851bd4411c2,,,,,,,decisionTrl,resources/DR.BMP,resources/DP.BMP,Door3,-0.183333291,-0.10092594,1,0,0,1.6119,optionLeft,70,10680,5,18,0,18,0,1,,,,,,,,,,,,,,,,,,,,,,,,,,,,,,,,,,,,,,,
,,,,,,,,2023-08-16_08h09.03.821,HF_wild_card,2022.2.4,Win32,60.0024001,59dd4d2b0fb3a90001bd91f8,64d2fd46c836a06233681665,64dc75f7f001a851bd4411c2,,,,,,,ctch,resources/DP.BMP,resources/DY.BMP,Door4,-0.203703704,-0.08425928,1,0,0,1.4117,optionLeft,80,10760,5,19,0,19,0,1,,,,,,,,,,,,,,,,,,,,,,,,,,,,,,,,,,,,,,,
,,,,,,,,2023-08-16_08h09.03.821,HF_wild_card,2022.2.4,Win32,60.0024001,59dd4d2b0fb3a90001bd91f8,64d2fd46c836a06233681665,64dc75f7f001a851bd4411c2,,,,,,,decisionTrl,resources/DP.BMP,resources/DR.BMP,Door3,0.208333333,-0.063888903,1,0,0,1.4543,optionRight,70,10830,5,20,0,20,0,1,,,,,,,,,,,,,,,,,,,,,,,,,,,,,,,,,,,,,,,
,,,,,,,,2023-08-16_08h09.03.821,HF_wild_card,2022.2.4,Win32,60.0024001,59dd4d2b0fb3a90001bd91f8,64d2fd46c836a06233681665,64dc75f7f001a851bd4411c2,,,,,,,sngl,resources/DB.BMP,resources/Empty.png,WildCard_Ex,-0.184259273,-0.100000028,1,0,0,1.0135,optionLeft,45,10875,5,21,0,21,0,1,,,,,,,,,,,,,,,,,,,,,,,,,,,,,,,,,,,,,,,
,,,,,,,,2023-08-16_08h09.03.821,HF_wild_card,2022.2.4,Win32,60.0024001,59dd4d2b0fb3a90001bd91f8,64d2fd46c836a06233681665,64dc75f7f001a851bd4411c2,,,,,,,sngl,resources/Empty.png,resources/DY.BMP,Door1,0.12962963,-0.044444437,1,0,0,1.3146,optionRight,30,10905,5,22,0,22,0,1,,,,,,,,,,,,,,,,,,,,,,,,,,,,,,,,,,,,,,,
,,,,,,,,2023-08-16_08h09.03.821,HF_wild_card,2022.2.4,Win32,60.0024001,59dd4d2b0fb3a90001bd91f8,64d2fd46c836a06233681665,64dc75f7f001a851bd4411c2,,,,,,,ctch,resources/DY.BMP,resources/DP.BMP,Door4,0.183333362,-0.08425928,1,0,0,1.4307,optionRight,80,10985,5,23,0,23,0,1,,,,,,,,,,,,,,,,,,,,,,,,,,,,,,,,,,,,,,,
,,,,,,,,2023-08-16_08h09.03.821,HF_wild_card,2022.2.4,Win32,60.0024001,59dd4d2b0fb3a90001bd91f8,64d2fd46c836a06233681665,64dc75f7f001a851bd4411c2,,,,,,,decisionTrl,resources/DG.BMP,resources/DY.BMP,Door1,0.155555584,-0.116666653,1,0,0,2.4621,optionRight,30,11015,5,24,0,24,0,1,,,,,,,,,,,,,,,,,,,,,,,,,,,,,,,,,,,,,,,
,,,,,,,,2023-08-16_08h09.03.821,HF_wild_card,2022.2.4,Win32,60.0024001,59dd4d2b0fb3a90001bd91f8,64d2fd46c836a06233681665,64dc75f7f001a851bd4411c2,,,,,,,sngl,resources/Empty.png,resources/DP.BMP,Door4,0.166666667,-0.062962956,1,0,0,1.1135,optionRight,60,11075,5,25,0,25,0,1,,,,,,,,,,,,,,,,,,,,,,,,,,,,,,,,,,,,,,,
,,,,,,,,2023-08-16_08h09.03.821,HF_wild_card,2022.2.4,Win32,60.0024001,59dd4d2b0fb3a90001bd91f8,64d2fd46c836a06233681665,64dc75f7f001a851bd4411c2,,,,,,,decisionTrl,resources/DY.BMP,resources/DG.BMP,Door1,-0.175925926,-0.082407422,1,0,0,2.0881,optionLeft,30,11105,5,26,0,26,0,1,,,,,,,,,,,,,,,,,,,,,,,,,,,,,,,,,,,,,,,
,,,,,,,,2023-08-16_08h09.03.821,HF_wild_card,2022.2.4,Win32,60.0024001,59dd4d2b0fb3a90001bd91f8,64d2fd46c836a06233681665,64dc75f7f001a851bd4411c2,,,,,,,sngl,resources/DR.BMP,resources/Empty.png,Door3,-0.121296282,-0.081481474,1,0,0,1.0798,optionLeft,70,11175,5,27,0,27,0,1,,,,,,,,,,,,,,,,,,,,,,,,,,,,,,,,,,,,,,,
,,,,,,,,2023-08-16_08h09.03.821,HF_wild_card,2022.2.4,Win32,60.0024001,59dd4d2b0fb3a90001bd91f8,64d2fd46c836a06233681665,64dc75f7f001a851bd4411c2,,,,,,,sngl,resources/DP.BMP,resources/Empty.png,Door4,-0.184259273,-0.103703746,1,0,0,0.9805,optionLeft,80,11255,5,28,0,28,0,1,,,,,,,,,,,,,,,,,,,,,,,,,,,,,,,,,,,,,,,
,,,,,,,,2023-08-16_08h09.03.821,HF_wild_card,2022.2.4,Win32,60.0024001,59dd4d2b0fb3a90001bd91f8,64d2fd46c836a06233681665,64dc75f7f001a851bd4411c2,,,,,,,sngl,resources/Empty.png,resources/DR.BMP,Door3,0.150000042,-0.046296296,1,0,0,1.1803,optionRight,70,11325,5,29,0,29,0,1,,,,,,,,,,,,,,,,,,,,,,,,,,,,,,,,,,,,,,,
,,,,,,,,2023-08-16_08h09.03.821,HF_wild_card,2022.2.4,Win32,60.0024001,59dd4d2b0fb3a90001bd91f8,64d2fd46c836a06233681665,64dc75f7f001a851bd4411c2,,,,,,,decisionTrl,resources/DY.BMP,resources/DG.BMP,Door1,-0.147222236,-0.094444487,1,0,0,1.5628,optionLeft,30,11355,5,30,0,30,0,1,,,,,,,,,,,,,,,,,,,,,,,,,,,,,,,,,,,,,,,
,,,,,,,,2023-08-16_08h09.03.821,HF_wild_card,2022.2.4,Win32,60.0024001,59dd4d2b0fb3a90001bd91f8,64d2fd46c836a06233681665,64dc75f7f001a851bd4411c2,,,,,,,sngl,resources/DB.BMP,resources/Empty.png,WildCard_Ex,-0.138888889,-0.079629651,1,0,0,1.0305,optionLeft,55,11410,5,31,0,31,0,1,,,,,,,,,,,,,,,,,,,,,,,,,,,,,,,,,,,,,,,
,,,,,,,,2023-08-16_08h09.03.821,HF_wild_card,2022.2.4,Win32,60.0024001,59dd4d2b0fb3a90001bd91f8,64d2fd46c836a06233681665,64dc75f7f001a851bd4411c2,,,,,,,decisionTrl,resources/DY.BMP,resources/DG.BMP,Door2,0.175000014,-0.098148134,1,0,0,2.1468,optionRight,40,11450,5,32,0,32,0,1,,,,,,,,,,,,,,,,,,,,,,,,,,,,,,,,,,,,,,,
,,,,,,,,2023-08-16_08h09.03.821,HF_wild_card,2022.2.4,Win32,60.0024001,59dd4d2b0fb3a90001bd91f8,64d2fd46c836a06233681665,64dc75f7f001a851bd4411c2,,,,,,,sngl,resources/DG.BMP,resources/Empty.png,Door2,-0.181481467,-0.095370399,1,0,0,1.047,optionLeft,40,11490,5,33,0,33,0,1,,,,,,,,,,,,,,,,,,,,,,,,,,,,,,,,,,,,,,,
,,,,,,,,2023-08-16_08h09.03.821,HF_wild_card,2022.2.4,Win32,60.0024001,59dd4d2b0fb3a90001bd91f8,64d2fd46c836a06233681665,64dc75f7f001a851bd4411c2,,,,,,,decisionTrl,resources/DB.BMP,resources/DG.BMP,WildCard_Ex,-0.187962921,-0.123148176,1,0,0,1.5799,optionLeft,55,11545,5,34,0,34,0,1,,,,,,,,,,,,,,,,,,,,,,,,,,,,,,,,,,,,,,,
,,,,,,,,2023-08-16_08h09.03.821,HF_wild_card,2022.2.4,Win32,60.0024001,59dd4d2b0fb3a90001bd91f8,64d2fd46c836a06233681665,64dc75f7f001a851bd4411c2,,,,,,,decisionTrl,resources/DB.BMP,resources/DR.BMP,Door3,0.216666681,-0.095370399,1,0,0,1.4969,optionRight,70,11615,5,35,0,35,0,1,,,,,,,,,,,,,,,,,,,,,,,,,,,,,,,,,,,,,,,
,,,,,,,,2023-08-16_08h09.03.821,HF_wild_card,2022.2.4,Win32,60.0024001,59dd4d2b0fb3a90001bd91f8,64d2fd46c836a06233681665,64dc75f7f001a851bd4411c2,,,,,,,decisionTrl,resources/DR.BMP,resources/DB.BMP,Door3,-0.19722218,-0.106481481,1,0,0,1.197,optionLeft,70,11685,5,36,0,36,0,1,,,,,,,,,,,,,,,,,,,,,,,,,,,,,,,,,,,,,,,
,,,,,,,,2023-08-16_08h09.03.821,HF_wild_card,2022.2.4,Win32,60.0024001,59dd4d2b0fb3a90001bd91f8,64d2fd46c836a06233681665,64dc75f7f001a851bd4411c2,,,,,,,decisionTrl,resources/DR.BMP,resources/DP.BMP,Door3,-0.260185171,-0.026851866,1,0,0,10.4543,optionLeft,70,11755,5,37,0,37,0,1,,,,,,,,,,,,,,,,,,,,,,,,,,,,,,,,,,,,,,,
,,,,,,,,2023-08-16_08h09.03.821,HF_wild_card,2022.2.4,Win32,60.0024001,59dd4d2b0fb3a90001bd91f8,64d2fd46c836a06233681665,64dc75f7f001a851bd4411c2,,,,,,,decisionTrl,resources/DG.BMP,resources/DB.BMP,WildCard_Ex,0.187962991,-0.090740734,1,0,0,5.7522,optionRight,55,11810,5,38,0,38,0,1,,,,,,,,,,,,,,,,,,,,,,,,,,,,,,,,,,,,,,,
,,,,,,,,2023-08-16_08h09.03.821,HF_wild_card,2022.2.4,Win32,60.0024001,59dd4d2b0fb3a90001bd91f8,64d2fd46c836a06233681665,64dc75f7f001a851bd4411c2,,,,,,,decisionTrl,resources/DB.BMP,resources/DP.BMP,Door4,0.321296268,-0.131481524,1,0,0,2.5348,optionRight,60,11870,5,39,0,39,0,1,,,,,,,,,,,,,,,,,,,,,,,,,,,,,,,,,,,,,,,
,,,,,,,,2023-08-16_08h09.03.821,HF_wild_card,2022.2.4,Win32,60.0024001,59dd4d2b0fb3a90001bd91f8,64d2fd46c836a06233681665,64dc75f7f001a851bd4411c2,,,,,,,ctch,resources/DP.BMP,resources/DY.BMP,Door4,-0.265740712,-0.048148155,1,0,0,1.1979,optionLeft,60,11930,5,40,0,40,0,1,,,,,,,,,,,,,,,,,,,,,,,,,,,,,,,,,,,,,,,
,,,,,,,,2023-08-16_08h09.03.821,HF_wild_card,2022.2.4,Win32,60.0024001,59dd4d2b0fb3a90001bd91f8,64d2fd46c836a06233681665,64dc75f7f001a851bd4411c2,,,,,,,decisionTrl,resources/DY.BMP,resources/DB.BMP,WildCard_Ex,0.198148162,-0.091666681,1,0,0,1.4969,optionRight,45,11975,5,41,0,41,0,1,,,,,,,,,,,,,,,,,,,,,,,,,,,,,,,,,,,,,,,
,,,,,,,,2023-08-16_08h09.03.821,HF_wild_card,2022.2.4,Win32,60.0024001,59dd4d2b0fb3a90001bd91f8,64d2fd46c836a06233681665,64dc75f7f001a851bd4411c2,,,,,,,sngl,resources/Empty.png,resources/DG.BMP,Door2,0.235185199,-0.021296289,1,0,0,1.7049,optionRight,20,11995,5,42,0,42,0,1,,,,,,,,,,,,,,,,,,,,,,,,,,,,,,,,,,,,,,,
,,,,,,,,2023-08-16_08h09.03.821,HF_wild_card,2022.2.4,Win32,60.0024001,59dd4d2b0fb3a90001bd91f8,64d2fd46c836a06233681665,64dc75f7f001a851bd4411c2,,,,,,,decisionTrl,resources/DR.BMP,resources/DP.BMP,Door4,0.243518547,-0.113888917,1,0,0,1.0296,optionRight,60,12055,5,43,0,43,0,1,,,,,,,,,,,,,,,,,,,,,,,,,,,,,,,,,,,,,,,
,,,,,,,,2023-08-16_08h09.03.821,HF_wild_card,2022.2.4,Win32,60.0024001,59dd4d2b0fb3a90001bd91f8,64d2fd46c836a06233681665,64dc75f7f001a851bd4411c2,,,,,,,,,,,,,,,,,,,,,,,,,,4,0,4,0,1,,,,,,,,,,,,,,,,,,,,,,,,,,,,,,,,,,
,,,,,,,,2023-08-16_08h09.03.821,HF_wild_card,2022.2.4,Win32,60.0024001,59dd4d2b0fb3a90001bd91f8,64d2fd46c836a06233681665,64dc75f7f001a851bd4411c2,,,,,,,decisionTrl,resources/DB.BMP,resources/DR.BMP,Door3,0.287037037,-0.104629658,1,0,0,25.6502,optionRight,70,12125,6,0,0,0,0,1,,,,,,,,,,,,,,,,,,,,,,,,,,,,,,,,,,,,,,,
,,,,,,,,2023-08-16_08h09.03.821,HF_wild_card,2022.2.4,Win32,60.0024001,59dd4d2b0fb3a90001bd91f8,64d2fd46c836a06233681665,64dc75f7f001a851bd4411c2,,,,,,,decisionTrl,resources/DY.BMP,resources/DG.BMP,Door1,-0.22129631,0.018518519,1,0,0,6.5591,optionLeft,30,12155,6,1,0,1,0,1,,,,,,,,,,,,,,,,,,,,,,,,,,,,,,,,,,,,,,,
,,,,,,,,2023-08-16_08h09.03.821,HF_wild_card,2022.2.4,Win32,60.0024001,59dd4d2b0fb3a90001bd91f8,64d2fd46c836a06233681665,64dc75f7f001a851bd4411c2,,,,,,,ctch,resources/DP.BMP,resources/DY.BMP,Door4,-0.287037037,-0.056481503,1,0,0,1.3962,optionLeft,80,12235,6,2,0,2,0,1,,,,,,,,,,,,,,,,,,,,,,,,,,,,,,,,,,,,,,,
,,,,,,,,2023-08-16_08h09.03.821,HF_wild_card,2022.2.4,Win32,60.0024001,59dd4d2b0fb3a90001bd91f8,64d2fd46c836a06233681665,64dc75f7f001a851bd4411c2,,,,,,,decisionTrl,resources/DG.BMP,resources/DB.BMP,WildCard_Ex,0.250925912,-0.036111125,1,0,0,1.1459,optionRight,45,12280,6,3,0,3,0,1,,,,,,,,,,,,,,,,,,,,,,,,,,,,,,,,,,,,,,,
,,,,,,,,2023-08-16_08h09.03.821,HF_wild_card,2022.2.4,Win32,60.0024001,59dd4d2b0fb3a90001bd91f8,64d2fd46c836a06233681665,64dc75f7f001a851bd4411c2,,,,,,,ctch,resources/DY.BMP,resources/DP.BMP,Door4,0.172222208,-0.064814815,1,0,0,0.964,optionRight,80,12360,6,4,0,4,0,1,,,,,,,,,,,,,,,,,,,,,,,,,,,,,,,,,,,,,,,
,,,,,,,,2023-08-16_08h09.03.821,HF_wild_card,2022.2.4,Win32,60.0024001,59dd4d2b0fb3a90001bd91f8,64d2fd46c836a06233681665,64dc75f7f001a851bd4411c2,,,,,,,decisionTrl,resources/DR.BMP,resources/DP.BMP,Door3,-0.215740698,-0.048148155,1,0,0,1.5804,optionLeft,70,12430,6,5,0,5,0,1,,,,,,,,,,,,,,,,,,,,,,,,,,,,,,,,,,,,,,,
,,,,,,,,2023-08-16_08h09.03.821,HF_wild_card,2022.2.4,Win32,60.0024001,59dd4d2b0fb3a90001bd91f8,64d2fd46c836a06233681665,64dc75f7f001a851bd4411c2,,,,,,,decisionTrl,resources/DR.BMP,resources/DB.BMP,Door3,-0.182407379,-0.079629651,1,0,0,1.0306,optionLeft,70,12500,6,6,0,6,0,1,,,,,,,,,,,,,,,,,,,,,,,,,,,,,,,,,,,,,,,
,,,,,,,,2023-08-16_08h09.03.821,HF_wild_card,2022.2.4,Win32,60.0024001,59dd4d2b0fb3a90001bd91f8,64d2fd46c836a06233681665,64dc75f7f001a851bd4411c2,,,,,,,decisionTrl,resources/DY.BMP,resources/DG.BMP,Door1,-0.193518533,-0.048148155,1,0,0,3.4875,optionLeft,30,12530,6,7,0,7,0,1,,,,,,,,,,,,,,,,,,,,,,,,,,,,,,,,,,,,,,,
,,,,,,,,2023-08-16_08h09.03.821,HF_wild_card,2022.2.4,Win32,60.0024001,59dd4d2b0fb3a90001bd91f8,64d2fd46c836a06233681665,64dc75f7f001a851bd4411c2,,,,,,,decisionTrl,resources/DR.BMP,resources/DP.BMP,Door3,-0.194444444,-0.100000028,1,0,0,2.0448,optionLeft,70,12600,6,8,0,8,0,1,,,,,,,,,,,,,,,,,,,,,,,,,,,,,,,,,,,,,,,
,,,,,,,,2023-08-16_08h09.03.821,HF_wild_card,2022.2.4,Win32,60.0024001,59dd4d2b0fb3a90001bd91f8,64d2fd46c836a06233681665,64dc75f7f001a851bd4411c2,,,,,,,decisionTrl,resources/DB.BMP,resources/DG.BMP,WildCard_Ex,-0.226851852,-0.040740755,1,0,0,1.4863,optionLeft,55,12655,6,9,0,9,0,1,,,,,,,,,,,,,,,,,,,,,,,,,,,,,,,,,,,,,,,
,,,,,,,,2023-08-16_08h09.03.821,HF_wild_card,2022.2.4,Win32,60.0024001,59dd4d2b0fb3a90001bd91f8,64d2fd46c836a06233681665,64dc75f7f001a851bd4411c2,,,,,,,sngl,resources/Empty.png,resources/DB.BMP,WildCard_Ex,0.175000014,-0.066666674,1,0,0,1.0971,optionRight,55,12710,6,10,0,10,0,1,,,,,,,,,,,,,,,,,,,,,,,,,,,,,,,,,,,,,,,
,,,,,,,,2023-08-16_08h09.03.821,HF_wild_card,2022.2.4,Win32,60.0024001,59dd4d2b0fb3a90001bd91f8,64d2fd46c836a06233681665,64dc75f7f001a851bd4411c2,,,,,,,sngl,resources/DB.BMP,resources/Empty.png,WildCard_Ex,-0.194444444,-0.037037037,1,0,0,0.9517,optionLeft,45,12755,6,11,0,11,0,1,,,,,,,,,,,,,,,,,,,,,,,,,,,,,,,,,,,,,,,
,,,,,,,,2023-08-16_08h09.03.821,HF_wild_card,2022.2.4,Win32,60.0024001,59dd4d2b0fb3a90001bd91f8,64d2fd46c836a06233681665,64dc75f7f001a851bd4411c2,,,,,,,sngl,resources/Empty.png,resources/DB.BMP,WildCard_Ex,0.173148191,-0.043518526,1,0,0,0.964,optionRight,45,12800,6,12,0,12,0,1,,,,,,,,,,,,,,,,,,,,,,,,,,,,,,,,,,,,,,,
,,,,,,,,2023-08-16_08h09.03.821,HF_wild_card,2022.2.4,Win32,60.0024001,59dd4d2b0fb3a90001bd91f8,64d2fd46c836a06233681665,64dc75f7f001a851bd4411c2,,,,,,,sngl,resources/DP.BMP,resources/Empty.png,Door4,-0.140740712,-0.050925926,1,0,0,0.8981,optionLeft,60,12860,6,13,0,13,0,1,,,,,,,,,,,,,,,,,,,,,,,,,,,,,,,,,,,,,,,
,,,,,,,,2023-08-16_08h09.03.821,HF_wild_card,2022.2.4,Win32,60.0024001,59dd4d2b0fb3a90001bd91f8,64d2fd46c836a06233681665,64dc75f7f001a851bd4411c2,,,,,,,ctch,resources/DP.BMP,resources/DY.BMP,Door4,-0.206481439,-0.049074067,1,0,0,1.1147,optionLeft,60,12920,6,14,0,14,0,1,,,,,,,,,,,,,,,,,,,,,,,,,,,,,,,,,,,,,,,
,,,,,,,,2023-08-16_08h09.03.821,HF_wild_card,2022.2.4,Win32,60.0024001,59dd4d2b0fb3a90001bd91f8,64d2fd46c836a06233681665,64dc75f7f001a851bd4411c2,,,,,,,decisionTrl,resources/DP.BMP,resources/DR.BMP,Door3,0.134259259,-0.115740741,1,0,0,1.879,optionRight,70,12990,6,15,0,15,0,1,,,,,,,,,,,,,,,,,,,,,,,,,,,,,,,,,,,,,,,
,,,,,,,,2023-08-16_08h09.03.821,HF_wild_card,2022.2.4,Win32,60.0024001,59dd4d2b0fb3a90001bd91f8,64d2fd46c836a06233681665,64dc75f7f001a851bd4411c2,,,,,,,decisionTrl,resources/DP.BMP,resources/DR.BMP,Door3,0.252777806,-0.086111104,1,0,0,1.5469,optionRight,70,13060,6,16,0,16,0,1,,,,,,,,,,,,,,,,,,,,,,,,,,,,,,,,,,,,,,,
,,,,,,,,2023-08-16_08h09.03.821,HF_wild_card,2022.2.4,Win32,60.0024001,59dd4d2b0fb3a90001bd91f8,64d2fd46c836a06233681665,64dc75f7f001a851bd4411c2,,,,,,,decisionTrl,resources/DP.BMP,resources/DB.BMP,Door4,-0.202777792,-0.025925919,1,0,0,1.214,optionLeft,80,13140,6,17,0,17,0,1,,,,,,,,,,,,,,,,,,,,,,,,,,,,,,,,,,,,,,,
,,,,,,,,2023-08-16_08h09.03.821,HF_wild_card,2022.2.4,Win32,60.0024001,59dd4d2b0fb3a90001bd91f8,64d2fd46c836a06233681665,64dc75f7f001a851bd4411c2,,,,,,,ctch,resources/DG.BMP,resources/DR.BMP,Door3,0.338888945,0.073148127,1,0,0,23.6015,optionRight,70,13210,6,18,0,18,0,1,,,,,,,,,,,,,,,,,,,,,,,,,,,,,,,,,,,,,,,
,,,,,,,,2023-08-16_08h09.03.821,HF_wild_card,2022.2.4,Win32,60.0024001,59dd4d2b0fb3a90001bd91f8,64d2fd46c836a06233681665,64dc75f7f001a851bd4411c2,,,,,,,decisionTrl,resources/DB.BMP,resources/DP.BMP,Door4,0.22129631,-0.063888903,1,0,0,1.813,optionRight,60,13270,6,19,0,19,0,1,,,,,,,,,,,,,,,,,,,,,,,,,,,,,,,,,,,,,,,
,,,,,,,,2023-08-16_08h09.03.821,HF_wild_card,2022.2.4,Win32,60.0024001,59dd4d2b0fb3a90001bd91f8,64d2fd46c836a06233681665,64dc75f7f001a851bd4411c2,,,,,,,ctch,resources/DR.BMP,resources/DG.BMP,Door3,-0.251851824,-0.045370384,1,0,0,1.2517,optionLeft,70,13340,6,20,0,20,0,1,,,,,,,,,,,,,,,,,,,,,,,,,,,,,,,,,,,,,,,
,,,,,,,,2023-08-16_08h09.03.821,HF_wild_card,2022.2.4,Win32,60.0024001,59dd4d2b0fb3a90001bd91f8,64d2fd46c836a06233681665,64dc75f7f001a851bd4411c2,,,,,,,decisionTrl,resources/DP.BMP,resources/DR.BMP,Door3,0.14907406,-0.116666653,1,0,0,29.1037,optionRight,70,13410,6,21,0,21,0,1,,,,,,,,,,,,,,,,,,,,,,,,,,,,,,,,,,,,,,,
,,,,,,,,2023-08-16_08h09.03.821,HF_wild_card,2022.2.4,Win32,60.0024001,59dd4d2b0fb3a90001bd91f8,64d2fd46c836a06233681665,64dc75f7f001a851bd4411c2,,,,,,,sngl,resources/DY.BMP,resources/Empty.png,Door1,-0.259259259,-0.005555577,1,0,0,1.679,optionLeft,30,13440,6,22,0,22,0,1,,,,,,,,,,,,,,,,,,,,,,,,,,,,,,,,,,,,,,,
,,,,,,,,2023-08-16_08h09.03.821,HF_wild_card,2022.2.4,Win32,60.0024001,59dd4d2b0fb3a90001bd91f8,64d2fd46c836a06233681665,64dc75f7f001a851bd4411c2,,,,,,,decisionTrl,resources/DG.BMP,resources/DY.BMP,Door1,0.255555541,-0.066666674,1,0,0,2.2293,optionRight,30,13470,6,23,0,23,0,1,,,,,,,,,,,,,,,,,,,,,,,,,,,,,,,,,,,,,,,
,,,,,,,,2023-08-16_08h09.03.821,HF_wild_card,2022.2.4,Win32,60.0024001,59dd4d2b0fb3a90001bd91f8,64d2fd46c836a06233681665,64dc75f7f001a851bd4411c2,,,,,,,sngl,resources/Empty.png,resources/DY.BMP,Door1,0.198148162,-0.052777785,1,0,0,0.9805,optionRight,30,13500,6,24,0,24,0,1,,,,,,,,,,,,,,,,,,,,,,,,,,,,,,,,,,,,,,,
,,,,,,,,2023-08-16_08h09.03.821,HF_wild_card,2022.2.4,Win32,60.0024001,59dd4d2b0fb3a90001bd91f8,64d2fd46c836a06233681665,64dc75f7f001a851bd4411c2,,,,,,,sngl,resources/DR.BMP,resources/Empty.png,Door3,-0.189814815,-0.055555556,1,0,0,0.8481,optionLeft,70,13570,6,25,0,25,0,1,,,,,,,,,,,,,,,,,,,,,,,,,,,,,,,,,,,,,,,
,,,,,,,,2023-08-16_08h09.03.821,HF_wild_card,2022.2.4,Win32,60.0024001,59dd4d2b0fb3a90001bd91f8,64d2fd46c836a06233681665,64dc75f7f001a851bd4411c2,,,,,,,decisionTrl,resources/DP.BMP,resources/DR.BMP,Door3,0.203703704,-0.127777806,1,0,0,6.1256,optionRight,70,13640,6,26,0,26,0,1,,,,,,,,,,,,,,,,,,,,,,,,,,,,,,,,,,,,,,,
,,,,,,,,2023-08-16_08h09.03.821,HF_wild_card,2022.2.4,Win32,60.0024001,59dd4d2b0fb3a90001bd91f8,64d2fd46c836a06233681665,64dc75f7f001a851bd4411c2,,,,,,,ctch,resources/DY.BMP,resources/DP.BMP,Door4,0.279629672,-0.087037051,1,0,0,1.2623,optionRight,60,13700,6,27,0,27,0,1,,,,,,,,,,,,,,,,,,,,,,,,,,,,,,,,,,,,,,,
,,,,,,,,2023-08-16_08h09.03.821,HF_wild_card,2022.2.4,Win32,60.0024001,59dd4d2b0fb3a90001bd91f8,64d2fd46c836a06233681665,64dc75f7f001a851bd4411c2,,,,,,,ctch,resources/DG.BMP,resources/DR.BMP,Door3,0.263888889,-0.067592586,1,0,0,13.6185,optionRight,70,13770,6,28,0,28,0,1,,,,,,,,,,,,,,,,,,,,,,,,,,,,,,,,,,,,,,,
,,,,,,,,2023-08-16_08h09.03.821,HF_wild_card,2022.2.4,Win32,60.0024001,59dd4d2b0fb3a90001bd91f8,64d2fd46c836a06233681665,64dc75f7f001a851bd4411c2,,,,,,,decisionTrl,resources/DY.BMP,resources/DG.BMP,Door1,-0.271296254,-0.062962956,1,0,0,1.5799,optionLeft,30,13800,6,29,0,29,0,1,,,,,,,,,,,,,,,,,,,,,,,,,,,,,,,,,,,,,,,
,,,,,,,,2023-08-16_08h09.03.821,HF_wild_card,2022.2.4,Win32,60.0024001,59dd4d2b0fb3a90001bd91f8,64d2fd46c836a06233681665,64dc75f7f001a851bd4411c2,,,,,,,sngl,resources/DB.BMP,resources/Empty.png,WildCard_Ex,-0.181481467,-0.062037044,1,0,0,0.9477,optionLeft,55,13855,6,30,0,30,0,1,,,,,,,,,,,,,,,,,,,,,,,,,,,,,,,,,,,,,,,
,,,,,,,,2023-08-16_08h09.03.821,HF_wild_card,2022.2.4,Win32,60.0024001,59dd4d2b0fb3a90001bd91f8,64d2fd46c836a06233681665,64dc75f7f001a851bd4411c2,,,,,,,decisionTrl,resources/DB.BMP,resources/DY.BMP,WildCard_Ex,-0.181481467,-0.069444444,1,0,0,1.0808,optionLeft,45,13900,6,31,0,31,0,1,,,,,,,,,,,,,,,,,,,,,,,,,,,,,,,,,,,,,,,
,,,,,,,,2023-08-16_08h09.03.821,HF_wild_card,2022.2.4,Win32,60.0024001,59dd4d2b0fb3a90001bd91f8,64d2fd46c836a06233681665,64dc75f7f001a851bd4411c2,,,,,,,decisionTrl,resources/DY.BMP,resources/DG.BMP,Door1,-0.323148127,-0.072222215,1,0,0,1.7772,optionLeft,30,13930,6,32,0,32,0,1,,,,,,,,,,,,,,,,,,,,,,,,,,,,,,,,,,,,,,,
,,,,,,,,2023-08-16_08h09.03.821,HF_wild_card,2022.2.4,Win32,60.0024001,59dd4d2b0fb3a90001bd91f8,64d2fd46c836a06233681665,64dc75f7f001a851bd4411c2,,,,,,,sngl,resources/Empty.png,resources/DR.BMP,Door3,0.32222225,0.005555541,1,0,0,20.9332,optionRight,70,14000,6,33,0,33,0,1,,,,,,,,,,,,,,,,,,,,,,,,,,,,,,,,,,,,,,,
,,,,,,,,2023-08-16_08h09.03.821,HF_wild_card,2022.2.4,Win32,60.0024001,59dd4d2b0fb3a90001bd91f8,64d2fd46c836a06233681665,64dc75f7f001a851bd4411c2,,,,,,,decisionTrl,resources/DG.BMP,resources/DY.BMP,Door2,-0.328703704,-0.057407414,1,0,0,5.8999,optionLeft,20,14020,6,34,0,34,0,1,,,,,,,,,,,,,,,,,,,,,,,,,,,,,,,,,,,,,,,
,,,,,,,,2023-08-16_08h09.03.821,HF_wild_card,2022.2.4,Win32,60.0024001,59dd4d2b0fb3a90001bd91f8,64d2fd46c836a06233681665,64dc75f7f001a851bd4411c2,,,,,,,decisionTrl,resources/DR.BMP,resources/DP.BMP,Door3,-0.136111083,-0.077777792,1,0,0,4.087,optionLeft,70,14090,6,35,0,35,0,1,,,,,,,,,,,,,,,,,,,,,,,,,,,,,,,,,,,,,,,
,,,,,,,,2023-08-16_08h09.03.821,HF_wild_card,2022.2.4,Win32,60.0024001,59dd4d2b0fb3a90001bd91f8,64d2fd46c836a06233681665,64dc75f7f001a851bd4411c2,,,,,,,decisionTrl,resources/DG.BMP,resources/DY.BMP,Door2,-0.237037023,-0.077777792,1,0,0,3.6437,optionLeft,20,14110,6,36,0,36,0,1,,,,,,,,,,,,,,,,,,,,,,,,,,,,,,,,,,,,,,,
,,,,,,,,2023-08-16_08h09.03.821,HF_wild_card,2022.2.4,Win32,60.0024001,59dd4d2b0fb3a90001bd91f8,64d2fd46c836a06233681665,64dc75f7f001a851bd4411c2,,,,,,,ctch,resources/DR.BMP,resources/DG.BMP,Door3,-0.274999972,-0.097222222,1,0,0,0.9795,optionLeft,70,14180,6,37,0,37,0,1,,,,,,,,,,,,,,,,,,,,,,,,,,,,,,,,,,,,,,,
,,,,,,,,2023-08-16_08h09.03.821,HF_wild_card,2022.2.4,Win32,60.0024001,59dd4d2b0fb3a90001bd91f8,64d2fd46c836a06233681665,64dc75f7f001a851bd4411c2,,,,,,,decisionTrl,resources/DY.BMP,resources/DB.BMP,Door1,-0.237037023,-0.093518504,1,0,0,1.2304,optionLeft,30,14210,6,38,0,38,0,1,,,,,,,,,,,,,,,,,,,,,,,,,,,,,,,,,,,,,,,
,,,,,,,,2023-08-16_08h09.03.821,HF_wild_card,2022.2.4,Win32,60.0024001,59dd4d2b0fb3a90001bd91f8,64d2fd46c836a06233681665,64dc75f7f001a851bd4411c2,,,,,,,sngl,resources/Empty.png,resources/DP.BMP,Door4,0.276851866,-0.054629644,1,0,0,0.9145,optionRight,80,14290,6,39,0,39,0,1,,,,,,,,,,,,,,,,,,,,,,,,,,,,,,,,,,,,,,,
,,,,,,,,2023-08-16_08h09.03.821,HF_wild_card,2022.2.4,Win32,60.0024001,59dd4d2b0fb3a90001bd91f8,64d2fd46c836a06233681665,64dc75f7f001a851bd4411c2,,,,,,,sngl,resources/Empty.png,resources/DG.BMP,Door2,0.175000014,-0.062962956,1,0,0,0.9628,optionRight,40,14330,6,40,0,40,0,1,,,,,,,,,,,,,,,,,,,,,,,,,,,,,,,,,,,,,,,
,,,,,,,,2023-08-16_08h09.03.821,HF_wild_card,2022.2.4,Win32,60.0024001,59dd4d2b0fb3a90001bd91f8,64d2fd46c836a06233681665,64dc75f7f001a851bd4411c2,,,,,,,decisionTrl,resources/DG.BMP,resources/DY.BMP,Door2,-0.186111097,-0.064814815,1,0,0,1.4301,optionLeft,20,14350,6,41,0,41,0,1,,,,,,,,,,,,,,,,,,,,,,,,,,,,,,,,,,,,,,,
,,,,,,,,2023-08-16_08h09.03.821,HF_wild_card,2022.2.4,Win32,60.0024001,59dd4d2b0fb3a90001bd91f8,64d2fd46c836a06233681665,64dc75f7f001a851bd4411c2,,,,,,,sngl,resources/DG.BMP,resources/Empty.png,Door2,-0.143518519,-0.069444444,1,0,0,1.0305,optionLeft,20,14370,6,42,0,42,0,1,,,,,,,,,,,,,,,,,,,,,,,,,,,,,,,,,,,,,,,
,,,,,,,,2023-08-16_08h09.03.821,HF_wild_card,2022.2.4,Win32,60.0024001,59dd4d2b0fb3a90001bd91f8,64d2fd46c836a06233681665,64dc75f7f001a851bd4411c2,,,,,,,decisionTrl,resources/DR.BMP,resources/DP.BMP,Door4,0.212962963,-0.054629644,1,0,0,1.17,optionRight,80,14450,6,43,0,43,0,1,,,,,,,,,,,,,,,,,,,,,,,,,,,,,,,,,,,,,,,
,,,,,,,,2023-08-16_08h09.03.821,HF_wild_card,2022.2.4,Win32,60.0024001,59dd4d2b0fb3a90001bd91f8,64d2fd46c836a06233681665,64dc75f7f001a851bd4411c2,,,,,,,,,,,,,,,,,,,,,,,,,,5,0,5,0,1,,,,,,,,,,,,,,,,,,,,,,,,,,,,,,,,,,
,,,,,,,,2023-08-16_08h09.03.821,HF_wild_card,2022.2.4,Win32,60.0024001,59dd4d2b0fb3a90001bd91f8,64d2fd46c836a06233681665,64dc75f7f001a851bd4411c2,,,,,,,decisionTrl,resources/DY.BMP,resources/DG.BMP,Door2,0.20185188,-0.14907406,1,0,0,1.7669,optionRight,40,14490,7,0,0,0,0,1,,,,,,,,,,,,,,,,,,,,,,,,,,,,,,,,,,,,,,,
,,,,,,,,2023-08-16_08h09.03.821,HF_wild_card,2022.2.4,Win32,60.0024001,59dd4d2b0fb3a90001bd91f8,64d2fd46c836a06233681665,64dc75f7f001a851bd4411c2,,,,,,,decisionTrl,resources/DY.BMP,resources/DG.BMP,Door2,0.193518533,-0.056481503,1,0,0,1.9953,optionRight,40,14530,7,1,0,1,0,1,,,,,,,,,,,,,,,,,,,,,,,,,,,,,,,,,,,,,,,
,,,,,,,,2023-08-16_08h09.03.821,HF_wild_card,2022.2.4,Win32,60.0024001,59dd4d2b0fb3a90001bd91f8,64d2fd46c836a06233681665,64dc75f7f001a851bd4411c2,,,,,,,ctch,resources/DY.BMP,resources/DP.BMP,Door4,0.246296282,-0.077777792,1,0,0,1.33,optionRight,60,14590,7,2,0,2,0,1,,,,,,,,,,,,,,,,,,,,,,,,,,,,,,,,,,,,,,,
,,,,,,,,2023-08-16_08h09.03.821,HF_wild_card,2022.2.4,Win32,60.0024001,59dd4d2b0fb3a90001bd91f8,64d2fd46c836a06233681665,64dc75f7f001a851bd4411c2,,,,,,,ctch,resources/DR.BMP,resources/DG.BMP,Door3,-0.217592593,-0.085185192,1,0,0,1.7976,optionLeft,70,14660,7,3,0,3,0,1,,,,,,,,,,,,,,,,,,,,,,,,,,,,,,,,,,,,,,,
,,,,,,,,2023-08-16_08h09.03.821,HF_wild_card,2022.2.4,Win32,60.0024001,59dd4d2b0fb3a90001bd91f8,64d2fd46c836a06233681665,64dc75f7f001a851bd4411c2,,,,,,,decisionTrl,resources/DP.BMP,resources/DR.BMP,Door3,0.235185199,-0.087037051,1,0,0,1.9143,optionRight,70,14730,7,4,0,4,0,1,,,,,,,,,,,,,,,,,,,,,,,,,,,,,,,,,,,,,,,
,,,,,,,,2023-08-16_08h09.03.821,HF_wild_card,2022.2.4,Win32,60.0024001,59dd4d2b0fb3a90001bd91f8,64d2fd46c836a06233681665,64dc75f7f001a851bd4411c2,,,,,,,ctch,resources/DP.BMP,resources/DY.BMP,Door4,-0.196296268,-0.085185192,1,0,0,1.3982,optionLeft,80,14810,7,5,0,5,0,1,,,,,,,,,,,,,,,,,,,,,,,,,,,,,,,,,,,,,,,
,,,,,,,,2023-08-16_08h09.03.821,HF_wild_card,2022.2.4,Win32,60.0024001,59dd4d2b0fb3a90001bd91f8,64d2fd46c836a06233681665,64dc75f7f001a851bd4411c2,,,,,,,decisionTrl,resources/DR.BMP,resources/DP.BMP,Door3,-0.262036995,-0.086111104,1,0,0,1.8148,optionLeft,70,14880,7,6,0,6,0,1,,,,,,,,,,,,,,,,,,,,,,,,,,,,,,,,,,,,,,,
,,,,,,,,2023-08-16_08h09.03.821,HF_wild_card,2022.2.4,Win32,60.0024001,59dd4d2b0fb3a90001bd91f8,64d2fd46c836a06233681665,64dc75f7f001a851bd4411c2,,,,,,,ctch,resources/DR.BMP,resources/DG.BMP,Door3,-0.218518504,-0.078703704,1,0,0,1.2992,optionLeft,70,14950,7,7,0,7,0,1,,,,,,,,,,,,,,,,,,,,,,,,,,,,,,,,,,,,,,,
,,,,,,,,2023-08-16_08h09.03.821,HF_wild_card,2022.2.4,Win32,60.0024001,59dd4d2b0fb3a90001bd91f8,64d2fd46c836a06233681665,64dc75f7f001a851bd4411c2,,,,,,,decisionTrl,resources/DG.BMP,resources/DY.BMP,Door2,-0.176851838,-0.08425928,1,0,0,1.7702,optionLeft,20,14970,7,8,0,8,0,1,,,,,,,,,,,,,,,,,,,,,,,,,,,,,,,,,,,,,,,
,,,,,,,,2023-08-16_08h09.03.821,HF_wild_card,2022.2.4,Win32,60.0024001,59dd4d2b0fb3a90001bd91f8,64d2fd46c836a06233681665,64dc75f7f001a851bd4411c2,,,,,,,ctch,resources/DG.BMP,resources/DR.BMP,Door3,0.194444444,-0.059259273,1,0,0,1.248,optionRight,70,15040,7,9,0,9,0,1,,,,,,,,,,,,,,,,,,,,,,,,,,,,,,,,,,,,,,,
,,,,,,,,2023-08-16_08h09.03.821,HF_wild_card,2022.2.4,Win32,60.0024001,59dd4d2b0fb3a90001bd91f8,64d2fd46c836a06233681665,64dc75f7f001a851bd4411c2,,,,,,,decisionTrl,resources/DP.BMP,resources/DR.BMP,Door3,0.12037037,-0.083333333,1,0,0,2.0795,optionRight,70,15110,7,10,0,10,0,1,,,,,,,,,,,,,,,,,,,,,,,,,,,,,,,,,,,,,,,
,,,,,,,,2023-08-16_08h09.03.821,HF_wild_card,2022.2.4,Win32,60.0024001,59dd4d2b0fb3a90001bd91f8,64d2fd46c836a06233681665,64dc75f7f001a851bd4411c2,,,,,,,ctch,resources/DR.BMP,resources/DG.BMP,Door3,-0.236111111,-0.069444444,1,0,0,1.6144,optionLeft,70,15180,7,11,0,11,0,1,,,,,,,,,,,,,,,,,,,,,,,,,,,,,,,,,,,,,,,
,,,,,,,,2023-08-16_08h09.03.821,HF_wild_card,2022.2.4,Win32,60.0024001,59dd4d2b0fb3a90001bd91f8,64d2fd46c836a06233681665,64dc75f7f001a851bd4411c2,,,,,,,decisionTrl,resources/DY.BMP,resources/DG.BMP,Door1,-0.169444402,-0.030555548,1,0,0,2.3308,optionLeft,30,15210,7,12,0,12,0,1,,,,,,,,,,,,,,,,,,,,,,,,,,,,,,,,,,,,,,,
,,,,,,,,2023-08-16_08h09.03.821,HF_wild_card,2022.2.4,Win32,60.0024001,59dd4d2b0fb3a90001bd91f8,64d2fd46c836a06233681665,64dc75f7f001a851bd4411c2,,,,,,,ctch,resources/DP.BMP,resources/DY.BMP,Door4,-0.237037023,-0.067592586,1,0,0,1.3647,optionLeft,60,15270,7,13,0,13,0,1,,,,,,,,,,,,,,,,,,,,,,,,,,,,,,,,,,,,,,,
,,,,,,,,2023-08-16_08h09.03.821,HF_wild_card,2022.2.4,Win32,60.0024001,59dd4d2b0fb3a90001bd91f8,64d2fd46c836a06233681665,64dc75f7f001a851bd4411c2,,,,,,,ctch,resources/DP.BMP,resources/DY.BMP,Door4,-0.250925912,-0.095370399,1,0,0,1.1314,optionLeft,60,15330,7,14,0,14,0,1,,,,,,,,,,,,,,,,,,,,,,,,,,,,,,,,,,,,,,,
,,,,,,,,2023-08-16_08h09.03.821,HF_wild_card,2022.2.4,Win32,60.0024001,59dd4d2b0fb3a90001bd91f8,64d2fd46c836a06233681665,64dc75f7f001a851bd4411c2,,,,,,,decisionTrl,resources/DG.BMP,resources/DY.BMP,Door1,0.210185228,-0.046296296,1,0,0,1.8811,optionRight,30,15360,7,15,0,15,0,1,,,,,,,,,,,,,,,,,,,,,,,,,,,,,,,,,,,,,,,
,,,,,,,,2023-08-16_08h09.03.821,HF_wild_card,2022.2.4,Win32,60.0024001,59dd4d2b0fb3a90001bd91f8,64d2fd46c836a06233681665,64dc75f7f001a851bd4411c2,,,,,,,decisionTrl,resources/DY.BMP,resources/DG.BMP,Door1,-0.239814829,-0.073148162,1,0,0,1.2642,optionLeft,30,15390,7,16,0,16,0,1,,,,,,,,,,,,,,,,,,,,,,,,,,,,,,,,,,,,,,,
,,,,,,,,2023-08-16_08h09.03.821,HF_wild_card,2022.2.4,Win32,60.0024001,59dd4d2b0fb3a90001bd91f8,64d2fd46c836a06233681665,64dc75f7f001a851bd4411c2,,,,,,,ctch,resources/DY.BMP,resources/DP.BMP,Door4,0.243518547,-0.041666667,1,0,0,1.2143,optionRight,60,15450,7,17,0,17,0,1,,,,,,,,,,,,,,,,,,,,,,,,,,,,,,,,,,,,,,,
,,,,,,,,2023-08-16_08h09.03.821,HF_wild_card,2022.2.4,Win32,60.0024001,59dd4d2b0fb3a90001bd91f8,64d2fd46c836a06233681665,64dc75f7f001a851bd4411c2,,,,,,,decisionTrl,resources/DP.BMP,resources/DR.BMP,Door3,0.218518504,-0.046296296,1,0,0,1.506,optionRight,70,15520,7,18,0,18,0,1,,,,,,,,,,,,,,,,,,,,,,,,,,,,,,,,,,,,,,,
,,,,,,,,2023-08-16_08h09.03.821,HF_wild_card,2022.2.4,Win32,60.0024001,59dd4d2b0fb3a90001bd91f8,64d2fd46c836a06233681665,64dc75f7f001a851bd4411c2,,,,,,,decisionTrl,resources/DR.BMP,resources/DP.BMP,Door3,-0.222222222,-0.057407414,1,0,0,1.613,optionLeft,70,15590,7,19,0,19,0,1,,,,,,,,,,,,,,,,,,,,,,,,,,,,,,,,,,,,,,,
,,,,,,,,2023-08-16_08h09.03.821,HF_wild_card,2022.2.4,Win32,60.0024001,59dd4d2b0fb3a90001bd91f8,64d2fd46c836a06233681665,64dc75f7f001a851bd4411c2,,,,,,,decisionTrl,resources/DP.BMP,resources/DR.BMP,Door3,0.208333333,-0.064814815,1,0,0,1.5463,optionRight,70,15660,7,20,0,20,0,1,,,,,,,,,,,,,,,,,,,,,,,,,,,,,,,,,,,,,,,
,,,,,,,,2023-08-16_08h09.03.821,HF_wild_card,2022.2.4,Win32,60.0024001,59dd4d2b0fb3a90001bd91f8,64d2fd46c836a06233681665,64dc75f7f001a851bd4411c2,,,,,,,decisionTrl,resources/DG.BMP,resources/DY.BMP,Door1,0.160185213,-0.062962956,1,0,0,1.888,optionRight,30,15690,7,21,0,21,0,1,,,,,,,,,,,,,,,,,,,,,,,,,,,,,,,,,,,,,,,
,,,,,,,,2023-08-16_08h09.03.821,HF_wild_card,2022.2.4,Win32,60.0024001,59dd4d2b0fb3a90001bd91f8,64d2fd46c836a06233681665,64dc75f7f001a851bd4411c2,,,,,,,ctch,resources/DG.BMP,resources/DR.BMP,Door3,0.374074159,-0.074074074,1,0,0,3.5516,optionRight,70,15760,7,22,0,22,0,1,,,,,,,,,,,,,,,,,,,,,,,,,,,,,,,,,,,,,,,
,,,,,,,,2023-08-16_08h09.03.821,HF_wild_card,2022.2.4,Win32,60.0024001,59dd4d2b0fb3a90001bd91f8,64d2fd46c836a06233681665,64dc75f7f001a851bd4411c2,,,,,,,decisionTrl,resources/DP.BMP,resources/DR.BMP,Door3,0.234259288,-0.089814822,1,0,0,1.6149,optionRight,70,15830,7,23,0,23,0,1,,,,,,,,,,,,,,,,,,,,,,,,,,,,,,,,,,,,,,,
,,,,,,,,2023-08-16_08h09.03.821,HF_wild_card,2022.2.4,Win32,60.0024001,59dd4d2b0fb3a90001bd91f8,64d2fd46c836a06233681665,64dc75f7f001a851bd4411c2,,,,,,,decisionTrl,resources/DY.BMP,resources/DG.BMP,Door2,0.162962949,-0.08425928,1,0,0,1.7811,optionRight,40,15870,7,24,0,24,0,1,,,,,,,,,,,,,,,,,,,,,,,,,,,,,,,,,,,,,,,
,,,,,,,,2023-08-16_08h09.03.821,HF_wild_card,2022.2.4,Win32,60.0024001,59dd4d2b0fb3a90001bd91f8,64d2fd46c836a06233681665,64dc75f7f001a851bd4411c2,,,,,,,decisionTrl,resources/DG.BMP,resources/DY.BMP,Door1,0.189814815,-0.089814822,1,0,0,1.2489,optionRight,30,15900,7,25,0,25,0,1,,,,,,,,,,,,,,,,,,,,,,,,,,,,,,,,,,,,,,,
,,,,,,,,2023-08-16_08h09.03.821,HF_wild_card,2022.2.4,Win32,60.0024001,59dd4d2b0fb3a90001bd91f8,64d2fd46c836a06233681665,64dc75f7f001a851bd4411c2,,,,,,,ctch,resources/DY.BMP,resources/DP.BMP,Door4,0.26944443,-0.112963005,1,0,0,1.1149,optionRight,60,15960,7,26,0,26,0,1,,,,,,,,,,,,,,,,,,,,,,,,,,,,,,,,,,,,,,,
,,,,,,,,2023-08-16_08h09.03.821,HF_wild_card,2022.2.4,Win32,60.0024001,59dd4d2b0fb3a90001bd91f8,64d2fd46c836a06233681665,64dc75f7f001a851bd4411c2,,,,,,,decisionTrl,resources/DY.BMP,resources/DG.BMP,Door1,-0.25,-0.08425928,1,0,0,1.3134,optionLeft,30,15990,7,27,0,27,0,1,,,,,,,,,,,,,,,,,,,,,,,,,,,,,,,,,,,,,,,
,,,,,,,,2023-08-16_08h09.03.821,HF_wild_card,2022.2.4,Win32,60.0024001,59dd4d2b0fb3a90001bd91f8,64d2fd46c836a06233681665,64dc75f7f001a851bd4411c2,,,,,,,decisionTrl,resources/DR.BMP,resources/DP.BMP,Door3,-0.248148106,-0.058333326,1,0,0,1.4479,optionLeft,70,16060,7,28,0,28,0,1,,,,,,,,,,,,,,,,,,,,,,,,,,,,,,,,,,,,,,,
,,,,,,,,2023-08-16_08h09.03.821,HF_wild_card,2022.2.4,Win32,60.0024001,59dd4d2b0fb3a90001bd91f8,64d2fd46c836a06233681665,64dc75f7f001a851bd4411c2,,,,,,,ctch,resources/DG.BMP,resources/DR.BMP,Door3,0.189814815,-0.087037051,1,0,0,1.1082,optionRight,70,16130,7,29,0,29,0,1,,,,,,,,,,,,,,,,,,,,,,,,,,,,,,,,,,,,,,,
,,,,,,,,2023-08-16_08h09.03.821,HF_wild_card,2022.2.4,Win32,60.0024001,59dd4d2b0fb3a90001bd91f8,64d2fd46c836a06233681665,64dc75f7f001a851bd4411c2,,,,,,,decisionTrl,resources/DG.BMP,resources/DY.BMP,Door2,-0.224074046,-0.076851845,1,0,0,1.8961,optionLeft,40,16170,7,30,0,30,0,1,,,,,,,,,,,,,,,,,,,,,,,,,,,,,,,,,,,,,,,
,,,,,,,,2023-08-16_08h09.03.821,HF_wild_card,2022.2.4,Win32,60.0024001,59dd4d2b0fb3a90001bd91f8,64d2fd46c836a06233681665,64dc75f7f001a851bd4411c2,,,,,,,decisionTrl,resources/DR.BMP,resources/DP.BMP,Door3,-0.250925912,-0.080555563,1,0,0,1.4632,optionLeft,70,16240,7,31,0,31,0,1,,,,,,,,,,,,,,,,,,,,,,,,,,,,,,,,,,,,,,,
,,,,,,,,2023-08-16_08h09.03.821,HF_wild_card,2022.2.4,Win32,60.0024001,59dd4d2b0fb3a90001bd91f8,64d2fd46c836a06233681665,64dc75f7f001a851bd4411c2,,,,,,,decisionTrl,resources/DG.BMP,resources/DY.BMP,Door1,0.187037079,-0.073148162,1,0,0,1.3052,optionRight,30,16270,7,32,0,32,0,1,,,,,,,,,,,,,,,,,,,,,,,,,,,,,,,,,,,,,,,
,,,,,,,,2023-08-16_08h09.03.821,HF_wild_card,2022.2.4,Win32,60.0024001,59dd4d2b0fb3a90001bd91f8,64d2fd46c836a06233681665,64dc75f7f001a851bd4411c2,,,,,,,decisionTrl,resources/DR.BMP,resources/DP.BMP,Door3,-0.224074046,-0.091666681,1,0,0,1.747,optionLeft,70,16340,7,33,0,33,0,1,,,,,,,,,,,,,,,,,,,,,,,,,,,,,,,,,,,,,,,
,,,,,,,,2023-08-16_08h09.03.821,HF_wild_card,2022.2.4,Win32,60.0024001,59dd4d2b0fb3a90001bd91f8,64d2fd46c836a06233681665,64dc75f7f001a851bd4411c2,,,,,,,decisionTrl,resources/DR.BMP,resources/DP.BMP,Door3,-0.24537037,-0.090740734,1,0,0,1.2711,optionLeft,70,16410,7,34,0,34,0,1,,,,,,,,,,,,,,,,,,,,,,,,,,,,,,,,,,,,,,,
,,,,,,,,2023-08-16_08h09.03.821,HF_wild_card,2022.2.4,Win32,60.0024001,59dd4d2b0fb3a90001bd91f8,64d2fd46c836a06233681665,64dc75f7f001a851bd4411c2,,,,,,,decisionTrl,resources/DP.BMP,resources/DR.BMP,Door3,0.243518547,-0.082407422,1,0,0,2.2297,optionRight,70,16480,7,35,0,35,0,1,,,,,,,,,,,,,,,,,,,,,,,,,,,,,,,,,,,,,,,
,,,,,,,,2023-08-16_08h09.03.821,HF_wild_card,2022.2.4,Win32,60.0024001,59dd4d2b0fb3a90001bd91f8,64d2fd46c836a06233681665,64dc75f7f001a851bd4411c2,,,,,,,,,,,,,,,,,,,,,,,,,,6,0,6,0,1,,,,,,,,,,,,,,,,,,,,,,,,,,,,,,,,,,
,,,,,,,,2023-08-16_08h09.03.821,HF_wild_card,2022.2.4,Win32,60.0024001,59dd4d2b0fb3a90001bd91f8,64d2fd46c836a06233681665,64dc75f7f001a851bd4411c2,,,,,,,,,,,,,,,,,,,,,,,,,,,,,,,4,,,,,,,,,,,,,,,,,,,,,,,,,,,,,,,,,
,,,,,,,,2023-08-16_08h09.03.821,HF_wild_card,2022.2.4,Win32,60.0024001,59dd4d2b0fb3a90001bd91f8,64d2fd46c836a06233681665,64dc75f7f001a851bd4411c2,,,,,,,,,,,,,,,,,,,,,,,,,,,,,,,,,,,,,,,,,,,,,,,,,,,,,,,,,,,,,,,,
,,,,,,,,2023-08-16_08h09.03.821,HF_wild_card,2022.2.4,Win32,60.0024001,59dd4d2b0fb3a90001bd91f8,64d2fd46c836a06233681665,64dc75f7f001a851bd4411c2,,,,,,,,,,,,,,,,,,,,,,,,,,,,,,,,55,WC_extreme,resources/DB.BMP,0,0,0,0,1,,,,,,,,,,,,,,,,,,,,,,,,,
,,,,,,,,2023-08-16_08h09.03.821,HF_wild_card,2022.2.4,Win32,60.0024001,59dd4d2b0fb3a90001bd91f8,64d2fd46c836a06233681665,64dc75f7f001a851bd4411c2,,,,,,,,,,,,,,,,,,,,,,,,,,,,,,,,40,Door2,resources/DG.BMP,1,0,1,0,1,,,,,,,,,,,,,,,,,,,,,,,,,
,,,,,,,,2023-08-16_08h09.03.821,HF_wild_card,2022.2.4,Win32,60.0024001,59dd4d2b0fb3a90001bd91f8,64d2fd46c836a06233681665,64dc75f7f001a851bd4411c2,,,,,,,,,,,,,,,,,,,,,,,,,,,,,,,,55,WC_nonExtreme,resources/DBN.BMP,2,0,2,0,1,,,,,,,,,,,,,,,,,,,,,,,,,
,,,,,,,,2023-08-16_08h09.03.821,HF_wild_card,2022.2.4,Win32,60.0024001,59dd4d2b0fb3a90001bd91f8,64d2fd46c836a06233681665,64dc75f7f001a851bd4411c2,,,,,,,,,,,,,,,,,,,,,,,,,,,,,,,,60,Door4,resources/DP.BMP,3,0,3,0,1,,,,,,,,,,,,,,,,,,,,,,,,,
,,,,,,,,2023-08-16_08h09.03.821,HF_wild_card,2022.2.4,Win32,60.0024001,59dd4d2b0fb3a90001bd91f8,64d2fd46c836a06233681665,64dc75f7f001a851bd4411c2,,,,,,,,,,,,,,,,,,,,,,,,,,,,,,,,20,Door1,resources/DY.BMP,4,0,4,0,1,,,,,,,,,,,,,,,,,,,,,,,,,
,,,,,,,,2023-08-16_08h09.03.821,HF_wild_card,2022.2.4,Win32,60.0024001,59dd4d2b0fb3a90001bd91f8,64d2fd46c836a06233681665,64dc75f7f001a851bd4411c2,,,,,,,,,,,,,,,,,,,,,,,,,,,,,,,,70,Door3,resources/DR.BMP,5,0,5,0,1,,,,,,,,,,,,,,,,,,,,,,,,,
,,,,,,,,2023-08-16_08h09.03.821,HF_wild_card,2022.2.4,Win32,60.0024001,59dd4d2b0fb3a90001bd91f8,64d2fd46c836a06233681665,64dc75f7f001a851bd4411c2,,,,,,,,,,,,,,,,,,,,,,,,,,,,,,,,,,,,,,,,,,,,,,,,,,,,,,,,,,,,,,,,
,,,,,,,,2023-08-16_08h09.03.821,HF_wild_card,2022.2.4,Win32,60.0024001,59dd4d2b0fb3a90001bd91f8,64d2fd46c836a06233681665,64dc75f7f001a851bd4411c2,,,,,,,,,,,,,,,,,,,,,,,,,,,,,,,,,,,,,,,,0,0,0,0,1,,,,,,,,,,,,,,,,,,,,
