Condition,Low fixed image (Door1),Low risky image (Door2),High fixed image (Door3),High risky image (Door4),Extreme Wild Card,NonExtreme Wild Card,,date,expName,psychopyVersion,OS,frameRate,PROLIFIC_PID,STUDY_ID,SESSION_ID,mouse_2.x,mouse_2.y,mouse_2.leftButton,mouse_2.midButton,mouse_2.rightButton,mouse_2.clicked_name,Trial Type,Left Option Image,Right Option Image,Chosen Door,mouse.x,mouse.y,mouse.leftButton,mouse.midButton,mouse.rightButton,mouse.time,mouse.clicked_name,Feedback,Cumulative Reward,Block,trial.thisRepN,trial.thisTrialN,trial.thisN,trial.thisIndex,trial.ran,blocks.thisRepN,blocks.thisTrialN,blocks.thisN,blocks.thisIndex,blocks.ran,Money conversion,First Outcome Reported,Shown Door (First Outcome),Displayed Image (First Outcome),outcomes.thisRepN,outcomes.thisTrialN,outcomes.thisN,outcomes.thisIndex,outcomes.ran,judgments.thisRepN,judgments.thisTrialN,judgments.thisN,judgments.thisIndex,judgments.ran,freqMouse.x,freqMouse.y,freqMouse.leftButton,freqMouse.midButton,freqMouse.rightButton,freqMouse.clicked_name,FQJ for first outcome,FQJ for second outcome,Shown Door,Displayed Image,trials.thisRepN,trials.thisTrialN,trials.thisN,trials.thisIndex,trials.ran,judgBlock.thisRepN,judgBlock.thisTrialN,judgBlock.thisN,judgBlock.thisIndex,judgBlock.ran
1,resources/DR.BMP,resources/DB.BMP,resources/DY.BMP,resources/DP.BMP,resources/DG.BMP,resources/DBN.BMP,,2023-08-06_08h32.47.720,HF_wild_card,2022.2.4,MacIntel,59.94125757,5bbc3d95f1f9ba000141d855,64ce5acb97489d65b14ecc7a,64cf4becd461555f56cbd567,,,,,,,,,,,,,,,,,,,,,,,,,,,,,,,,,,,,,,,,,,,,,,,,,,,,,,,,,,,,,,,,
,,,,,,,,2023-08-06_08h32.47.720,HF_wild_card,2022.2.4,MacIntel,59.94125757,5bbc3d95f1f9ba000141d855,64ce5acb97489d65b14ecc7a,64cf4becd461555f56cbd567,0.022170116,-0.425684724,1,0,0,agree,,,,,,,,,,,,,,,,,,,,,,,,,,,,,,,,,,,,,,,,,,,,,,,,,,,,,,,,,,
,,,,,,,,2023-08-06_08h32.47.720,HF_wild_card,2022.2.4,MacIntel,59.94125757,5bbc3d95f1f9ba000141d855,64ce5acb97489d65b14ecc7a,64cf4becd461555f56cbd567,,,,,,,,,,,,,,,,,,,,,,,,,,,,,,,,,,,,,,,,,,,,,,,,,,,,,,,,,,,,,,,,
,,,,,,,,2023-08-06_08h32.47.720,HF_wild_card,2022.2.4,MacIntel,59.94125757,5bbc3d95f1f9ba000141d855,64ce5acb97489d65b14ecc7a,64cf4becd461555f56cbd567,,,,,,,decisionTrl,resources/DY.BMP,resources/DP.BMP,Door4,0.348495822,-0.120173362,1,0,0,2.4914,optionRight,80,80,1,0,0,0,0,1,,,,,,,,,,,,,,,,,,,,,,,,,,,,,,,,,,,,,,,
,,,,,,,,2023-08-06_08h32.47.720,HF_wild_card,2022.2.4,MacIntel,59.94125757,5bbc3d95f1f9ba000141d855,64ce5acb97489d65b14ecc7a,64cf4becd461555f56cbd567,,,,,,,decisionTrl,resources/DBN.BMP,resources/DP.BMP,Door4,0.233979063,-0.034761669,1,0,0,2.0004,optionRight,60,140,1,1,0,1,0,1,,,,,,,,,,,,,,,,,,,,,,,,,,,,,,,,,,,,,,,
,,,,,,,,2023-08-06_08h32.47.720,HF_wild_card,2022.2.4,MacIntel,59.94125757,5bbc3d95f1f9ba000141d855,64ce5acb97489d65b14ecc7a,64cf4becd461555f56cbd567,,,,,,,sngl,resources/DP.BMP,resources/Empty.png,Door4,-0.267448821,4.0351E-05,1,0,0,1.5214,optionLeft,80,220,1,2,0,2,0,1,,,,,,,,,,,,,,,,,,,,,,,,,,,,,,,,,,,,,,,
,,,,,,,,2023-08-06_08h32.47.720,HF_wild_card,2022.2.4,MacIntel,59.94125757,5bbc3d95f1f9ba000141d855,64ce5acb97489d65b14ecc7a,64cf4becd461555f56cbd567,,,,,,,sngl,resources/Empty.png,resources/DY.BMP,Door3,0.189584012,-0.017144775,1,0,0,1.5449,optionRight,70,290,1,3,0,3,0,1,,,,,,,,,,,,,,,,,,,,,,,,,,,,,,,,,,,,,,,
,,,,,,,,2023-08-06_08h32.47.720,HF_wild_card,2022.2.4,MacIntel,59.94125757,5bbc3d95f1f9ba000141d855,64ce5acb97489d65b14ecc7a,64cf4becd461555f56cbd567,,,,,,,decisionTrl,resources/DP.BMP,resources/DY.BMP,Door4,-0.224700193,-0.023642533,1,0,0,1.1167,optionLeft,60,350,1,4,0,4,0,1,,,,,,,,,,,,,,,,,,,,,,,,,,,,,,,,,,,,,,,
,,,,,,,,2023-08-06_08h32.47.720,HF_wild_card,2022.2.4,MacIntel,59.94125757,5bbc3d95f1f9ba000141d855,64ce5acb97489d65b14ecc7a,64cf4becd461555f56cbd567,,,,,,,decisionTrl,resources/DB.BMP,resources/DR.BMP,Door1,0.241018677,-0.010657416,1,0,0,1.3279,optionRight,30,380,1,5,0,5,0,1,,,,,,,,,,,,,,,,,,,,,,,,,,,,,,,,,,,,,,,
,,,,,,,,2023-08-06_08h32.47.720,HF_wild_card,2022.2.4,MacIntel,59.94125757,5bbc3d95f1f9ba000141d855,64ce5acb97489d65b14ecc7a,64cf4becd461555f56cbd567,,,,,,,decisionTrl,resources/DY.BMP,resources/DBN.BMP,Door3,-0.242046271,-0.02845069,1,0,0,0.9461,optionLeft,70,450,1,6,0,6,0,1,,,,,,,,,,,,,,,,,,,,,,,,,,,,,,,,,,,,,,,
,,,,,,,,2023-08-06_08h32.47.720,HF_wild_card,2022.2.4,MacIntel,59.94125757,5bbc3d95f1f9ba000141d855,64ce5acb97489d65b14ecc7a,64cf4becd461555f56cbd567,,,,,,,ctch,resources/DR.BMP,resources/DP.BMP,Door4,0.223367762,-0.009115883,1,0,0,1.1528,optionRight,80,530,1,7,0,7,0,1,,,,,,,,,,,,,,,,,,,,,,,,,,,,,,,,,,,,,,,
,,,,,,,,2023-08-06_08h32.47.720,HF_wild_card,2022.2.4,MacIntel,59.94125757,5bbc3d95f1f9ba000141d855,64ce5acb97489d65b14ecc7a,64cf4becd461555f56cbd567,,,,,,,decisionTrl,resources/DR.BMP,resources/DB.BMP,Door2,0.242971011,-0.044899495,1,0,0,1.6983,optionRight,20,550,1,8,0,8,0,1,,,,,,,,,,,,,,,,,,,,,,,,,,,,,,,,,,,,,,,
,,,,,,,,2023-08-06_08h32.47.720,HF_wild_card,2022.2.4,MacIntel,59.94125757,5bbc3d95f1f9ba000141d855,64ce5acb97489d65b14ecc7a,64cf4becd461555f56cbd567,,,,,,,sngl,resources/DB.BMP,resources/Empty.png,Door2,-0.153517999,-0.026332997,1,0,0,0.8192,optionLeft,40,590,1,9,0,9,0,1,,,,,,,,,,,,,,,,,,,,,,,,,,,,,,,,,,,,,,,
,,,,,,,,2023-08-06_08h32.47.720,HF_wild_card,2022.2.4,MacIntel,59.94125757,5bbc3d95f1f9ba000141d855,64ce5acb97489d65b14ecc7a,64cf4becd461555f56cbd567,,,,,,,sngl,resources/Empty.png,resources/DBN.BMP,WildCard_NonEx,0.257064141,0.016627672,1,0,0,1.1163,optionRight,55,645,1,10,0,10,0,1,,,,,,,,,,,,,,,,,,,,,,,,,,,,,,,,,,,,,,,
,,,,,,,,2023-08-06_08h32.47.720,HF_wild_card,2022.2.4,MacIntel,59.94125757,5bbc3d95f1f9ba000141d855,64ce5acb97489d65b14ecc7a,64cf4becd461555f56cbd567,,,,,,,sngl,resources/Empty.png,resources/DR.BMP,Door1,0.288357544,0.006110071,1,0,0,1.1317,optionRight,30,675,1,11,0,11,0,1,,,,,,,,,,,,,,,,,,,,,,,,,,,,,,,,,,,,,,,
,,,,,,,,2023-08-06_08h32.47.720,HF_wild_card,2022.2.4,MacIntel,59.94125757,5bbc3d95f1f9ba000141d855,64ce5acb97489d65b14ecc7a,64cf4becd461555f56cbd567,,,,,,,decisionTrl,resources/DR.BMP,resources/DBN.BMP,Door1,-0.165786178,-0.039048937,1,0,0,1.1339,optionLeft,30,705,1,12,0,12,0,1,,,,,,,,,,,,,,,,,,,,,,,,,,,,,,,,,,,,,,,
,,,,,,,,2023-08-06_08h32.47.720,HF_wild_card,2022.2.4,MacIntel,59.94125757,5bbc3d95f1f9ba000141d855,64ce5acb97489d65b14ecc7a,64cf4becd461555f56cbd567,,,,,,,sngl,resources/DBN.BMP,resources/Empty.png,WildCard_NonEx,-0.159946526,-0.034242136,1,0,0,0.7806,optionLeft,55,760,1,13,0,13,0,1,,,,,,,,,,,,,,,,,,,,,,,,,,,,,,,,,,,,,,,
,,,,,,,,2023-08-06_08h32.47.720,HF_wild_card,2022.2.4,MacIntel,59.94125757,5bbc3d95f1f9ba000141d855,64ce5acb97489d65b14ecc7a,64cf4becd461555f56cbd567,,,,,,,decisionTrl,resources/DR.BMP,resources/DB.BMP,Door1,-0.176129716,-0.040279417,1,0,0,2.1562,optionLeft,30,790,1,14,0,14,0,1,,,,,,,,,,,,,,,,,,,,,,,,,,,,,,,,,,,,,,,
,,,,,,,,2023-08-06_08h32.47.720,HF_wild_card,2022.2.4,MacIntel,59.94125757,5bbc3d95f1f9ba000141d855,64ce5acb97489d65b14ecc7a,64cf4becd461555f56cbd567,,,,,,,decisionTrl,resources/DBN.BMP,resources/DB.BMP,WildCard_NonEx,-0.185505789,0.03602504,1,0,0,2.7507,optionLeft,55,845,1,15,0,15,0,1,,,,,,,,,,,,,,,,,,,,,,,,,,,,,,,,,,,,,,,
,,,,,,,,2023-08-06_08h32.47.720,HF_wild_card,2022.2.4,MacIntel,59.94125757,5bbc3d95f1f9ba000141d855,64ce5acb97489d65b14ecc7a,64cf4becd461555f56cbd567,,,,,,,sngl,resources/DR.BMP,resources/Empty.png,Door1,-0.18017872,-0.021987972,1,0,0,0.9113,optionLeft,30,875,1,16,0,16,0,1,,,,,,,,,,,,,,,,,,,,,,,,,,,,,,,,,,,,,,,
,,,,,,,,2023-08-06_08h32.47.720,HF_wild_card,2022.2.4,MacIntel,59.94125757,5bbc3d95f1f9ba000141d855,64ce5acb97489d65b14ecc7a,64cf4becd461555f56cbd567,,,,,,,decisionTrl,resources/DP.BMP,resources/DY.BMP,Door4,-0.114679577,-0.018308682,1,0,0,2.1155,optionLeft,60,935,1,17,0,17,0,1,,,,,,,,,,,,,,,,,,,,,,,,,,,,,,,,,,,,,,,
,,,,,,,,2023-08-06_08h32.47.720,HF_wild_card,2022.2.4,MacIntel,59.94125757,5bbc3d95f1f9ba000141d855,64ce5acb97489d65b14ecc7a,64cf4becd461555f56cbd567,,,,,,,decisionTrl,resources/DP.BMP,resources/DBN.BMP,Door4,-0.23245714,-0.045763143,1,0,0,1.6008,optionLeft,60,995,1,18,0,18,0,1,,,,,,,,,,,,,,,,,,,,,,,,,,,,,,,,,,,,,,,
,,,,,,,,2023-08-06_08h32.47.720,HF_wild_card,2022.2.4,MacIntel,59.94125757,5bbc3d95f1f9ba000141d855,64ce5acb97489d65b14ecc7a,64cf4becd461555f56cbd567,,,,,,,sngl,resources/Empty.png,resources/DP.BMP,Door4,0.173825751,0.004027642,1,0,0,1.0966,optionRight,60,1055,1,19,0,19,0,1,,,,,,,,,,,,,,,,,,,,,,,,,,,,,,,,,,,,,,,
,,,,,,,,2023-08-06_08h32.47.720,HF_wild_card,2022.2.4,MacIntel,59.94125757,5bbc3d95f1f9ba000141d855,64ce5acb97489d65b14ecc7a,64cf4becd461555f56cbd567,,,,,,,decisionTrl,resources/DY.BMP,resources/DP.BMP,Door4,0.290084839,-0.006263733,1,0,0,0.8484,optionRight,80,1135,1,20,0,20,0,1,,,,,,,,,,,,,,,,,,,,,,,,,,,,,,,,,,,,,,,
,,,,,,,,2023-08-06_08h32.47.720,HF_wild_card,2022.2.4,MacIntel,59.94125757,5bbc3d95f1f9ba000141d855,64ce5acb97489d65b14ecc7a,64cf4becd461555f56cbd567,,,,,,,decisionTrl,resources/DB.BMP,resources/DR.BMP,Door1,0.187780649,-0.009401336,1,0,0,1.8823,optionRight,30,1165,1,21,0,21,0,1,,,,,,,,,,,,,,,,,,,,,,,,,,,,,,,,,,,,,,,
,,,,,,,,2023-08-06_08h32.47.720,HF_wild_card,2022.2.4,MacIntel,59.94125757,5bbc3d95f1f9ba000141d855,64ce5acb97489d65b14ecc7a,64cf4becd461555f56cbd567,,,,,,,ctch,resources/DP.BMP,resources/DR.BMP,Door4,-0.139966781,0.019659085,1,0,0,1.1816,optionLeft,80,1245,1,22,0,22,0,1,,,,,,,,,,,,,,,,,,,,,,,,,,,,,,,,,,,,,,,
,,,,,,,,2023-08-06_08h32.47.720,HF_wild_card,2022.2.4,MacIntel,59.94125757,5bbc3d95f1f9ba000141d855,64ce5acb97489d65b14ecc7a,64cf4becd461555f56cbd567,,,,,,,sngl,resources/Empty.png,resources/DBN.BMP,WildCard_NonEx,0.231473796,0.0270594,1,0,0,0.9332,optionRight,45,1290,1,23,0,23,0,1,,,,,,,,,,,,,,,,,,,,,,,,,,,,,,,,,,,,,,,
,,,,,,,,2023-08-06_08h32.47.720,HF_wild_card,2022.2.4,MacIntel,59.94125757,5bbc3d95f1f9ba000141d855,64ce5acb97489d65b14ecc7a,64cf4becd461555f56cbd567,,,,,,,ctch,resources/DB.BMP,resources/DY.BMP,Door3,0.274070005,-0.004752661,1,0,0,1.1468,optionRight,70,1360,1,24,0,24,0,1,,,,,,,,,,,,,,,,,,,,,,,,,,,,,,,,,,,,,,,
,,,,,,,,2023-08-06_08h32.47.720,HF_wild_card,2022.2.4,MacIntel,59.94125757,5bbc3d95f1f9ba000141d855,64ce5acb97489d65b14ecc7a,64cf4becd461555f56cbd567,,,,,,,ctch,resources/DY.BMP,resources/DB.BMP,Door3,-0.147938877,-0.037478412,1,0,0,0.9476,optionLeft,70,1430,1,25,0,25,0,1,,,,,,,,,,,,,,,,,,,,,,,,,,,,,,,,,,,,,,,
,,,,,,,,2023-08-06_08h32.47.720,HF_wild_card,2022.2.4,MacIntel,59.94125757,5bbc3d95f1f9ba000141d855,64ce5acb97489d65b14ecc7a,64cf4becd461555f56cbd567,,,,,,,ctch,resources/DY.BMP,resources/DB.BMP,Door3,-0.178064134,-0.004266357,1,0,0,1.1319,optionLeft,70,1500,1,26,0,26,0,1,,,,,,,,,,,,,,,,,,,,,,,,,,,,,,,,,,,,,,,
,,,,,,,,2023-08-06_08h32.47.720,HF_wild_card,2022.2.4,MacIntel,59.94125757,5bbc3d95f1f9ba000141d855,64ce5acb97489d65b14ecc7a,64cf4becd461555f56cbd567,,,,,,,decisionTrl,resources/DBN.BMP,resources/DY.BMP,Door3,0.195231685,-0.008730288,1,0,0,1.3167,optionRight,70,1570,1,27,0,27,0,1,,,,,,,,,,,,,,,,,,,,,,,,,,,,,,,,,,,,,,,
,,,,,,,,2023-08-06_08h32.47.720,HF_wild_card,2022.2.4,MacIntel,59.94125757,5bbc3d95f1f9ba000141d855,64ce5acb97489d65b14ecc7a,64cf4becd461555f56cbd567,,,,,,,decisionTrl,resources/DY.BMP,resources/DP.BMP,Door4,0.223570873,0.004797702,1,0,0,1.3226,optionRight,80,1650,1,28,0,28,0,1,,,,,,,,,,,,,,,,,,,,,,,,,,,,,,,,,,,,,,,
,,,,,,,,2023-08-06_08h32.47.720,HF_wild_card,2022.2.4,MacIntel,59.94125757,5bbc3d95f1f9ba000141d855,64ce5acb97489d65b14ecc7a,64cf4becd461555f56cbd567,,,,,,,decisionTrl,resources/DY.BMP,resources/DP.BMP,Door4,0.227873965,0.002483453,1,0,0,1.1467,optionRight,80,1730,1,29,0,29,0,1,,,,,,,,,,,,,,,,,,,,,,,,,,,,,,,,,,,,,,,
,,,,,,,,2023-08-06_08h32.47.720,HF_wild_card,2022.2.4,MacIntel,59.94125757,5bbc3d95f1f9ba000141d855,64ce5acb97489d65b14ecc7a,64cf4becd461555f56cbd567,,,,,,,decisionTrl,resources/DR.BMP,resources/DB.BMP,Door1,-0.178952252,-0.038206538,1,0,0,1.8678,optionLeft,30,1760,1,30,0,30,0,1,,,,,,,,,,,,,,,,,,,,,,,,,,,,,,,,,,,,,,,
,,,,,,,,2023-08-06_08h32.47.720,HF_wild_card,2022.2.4,MacIntel,59.94125757,5bbc3d95f1f9ba000141d855,64ce5acb97489d65b14ecc7a,64cf4becd461555f56cbd567,,,,,,,decisionTrl,resources/DP.BMP,resources/DY.BMP,Door4,-0.151036919,-0.020314082,1,0,0,1.9906,optionLeft,80,1840,1,31,0,31,0,1,,,,,,,,,,,,,,,,,,,,,,,,,,,,,,,,,,,,,,,
,,,,,,,,2023-08-06_08h32.47.720,HF_wild_card,2022.2.4,MacIntel,59.94125757,5bbc3d95f1f9ba000141d855,64ce5acb97489d65b14ecc7a,64cf4becd461555f56cbd567,,,,,,,ctch,resources/DB.BMP,resources/DY.BMP,Door3,0.207912643,-0.018422897,1,0,0,0.9959,optionRight,70,1910,1,32,0,32,0,1,,,,,,,,,,,,,,,,,,,,,,,,,,,,,,,,,,,,,,,
,,,,,,,,2023-08-06_08h32.47.720,HF_wild_card,2022.2.4,MacIntel,59.94125757,5bbc3d95f1f9ba000141d855,64ce5acb97489d65b14ecc7a,64cf4becd461555f56cbd567,,,,,,,sngl,resources/DY.BMP,resources/Empty.png,Door3,-0.151016518,-0.017759026,1,0,0,0.7474,optionLeft,70,1980,1,33,0,33,0,1,,,,,,,,,,,,,,,,,,,,,,,,,,,,,,,,,,,,,,,
,,,,,,,,2023-08-06_08h32.47.720,HF_wild_card,2022.2.4,MacIntel,59.94125757,5bbc3d95f1f9ba000141d855,64ce5acb97489d65b14ecc7a,64cf4becd461555f56cbd567,,,,,,,sngl,resources/Empty.png,resources/DB.BMP,Door2,0.165709319,0.008924583,1,0,0,0.9146,optionRight,20,2000,1,34,0,34,0,1,,,,,,,,,,,,,,,,,,,,,,,,,,,,,,,,,,,,,,,
,,,,,,,,2023-08-06_08h32.47.720,HF_wild_card,2022.2.4,MacIntel,59.94125757,5bbc3d95f1f9ba000141d855,64ce5acb97489d65b14ecc7a,64cf4becd461555f56cbd567,,,,,,,sngl,resources/DBN.BMP,resources/Empty.png,WildCard_NonEx,-0.125948136,-0.004683374,1,0,0,0.8149,optionLeft,45,2045,1,35,0,35,0,1,,,,,,,,,,,,,,,,,,,,,,,,,,,,,,,,,,,,,,,
,,,,,,,,2023-08-06_08h32.47.720,HF_wild_card,2022.2.4,MacIntel,59.94125757,5bbc3d95f1f9ba000141d855,64ce5acb97489d65b14ecc7a,64cf4becd461555f56cbd567,,,,,,,ctch,resources/DP.BMP,resources/DR.BMP,Door4,-0.132827759,-0.024210442,1,0,0,1.1811,optionLeft,80,2125,1,36,0,36,0,1,,,,,,,,,,,,,,,,,,,,,,,,,,,,,,,,,,,,,,,
,,,,,,,,2023-08-06_08h32.47.720,HF_wild_card,2022.2.4,MacIntel,59.94125757,5bbc3d95f1f9ba000141d855,64ce5acb97489d65b14ecc7a,64cf4becd461555f56cbd567,,,,,,,decisionTrl,resources/DB.BMP,resources/DR.BMP,Door1,0.282669519,-0.028480699,1,0,0,2.2986,optionRight,30,2155,1,37,0,37,0,1,,,,,,,,,,,,,,,,,,,,,,,,,,,,,,,,,,,,,,,
,,,,,,,,2023-08-06_08h32.47.720,HF_wild_card,2022.2.4,MacIntel,59.94125757,5bbc3d95f1f9ba000141d855,64ce5acb97489d65b14ecc7a,64cf4becd461555f56cbd567,,,,,,,decisionTrl,resources/DP.BMP,resources/DY.BMP,Door4,-0.084173245,-0.008990252,1,0,0,1.0806,optionLeft,80,2235,1,38,0,38,0,1,,,,,,,,,,,,,,,,,,,,,,,,,,,,,,,,,,,,,,,
,,,,,,,,2023-08-06_08h32.47.720,HF_wild_card,2022.2.4,MacIntel,59.94125757,5bbc3d95f1f9ba000141d855,64ce5acb97489d65b14ecc7a,64cf4becd461555f56cbd567,,,,,,,decisionTrl,resources/DB.BMP,resources/DBN.BMP,WildCard_NonEx,0.217425198,0.001168145,1,0,0,1.1808,optionRight,55,2290,1,39,0,39,0,1,,,,,,,,,,,,,,,,,,,,,,,,,,,,,,,,,,,,,,,
,,,,,,,,2023-08-06_08h32.47.720,HF_wild_card,2022.2.4,MacIntel,59.94125757,5bbc3d95f1f9ba000141d855,64ce5acb97489d65b14ecc7a,64cf4becd461555f56cbd567,,,,,,,decisionTrl,resources/DR.BMP,resources/DB.BMP,Door1,-0.127393708,-0.003811589,1,0,0,1.7341,optionLeft,30,2320,1,40,0,40,0,1,,,,,,,,,,,,,,,,,,,,,,,,,,,,,,,,,,,,,,,
,,,,,,,,2023-08-06_08h32.47.720,HF_wild_card,2022.2.4,MacIntel,59.94125757,5bbc3d95f1f9ba000141d855,64ce5acb97489d65b14ecc7a,64cf4becd461555f56cbd567,,,,,,,decisionTrl,resources/DBN.BMP,resources/DR.BMP,WildCard_NonEx,-0.134478647,-0.009580315,1,0,0,1.4719,optionLeft,45,2365,1,41,0,41,0,1,,,,,,,,,,,,,,,,,,,,,,,,,,,,,,,,,,,,,,,
,,,,,,,,2023-08-06_08h32.47.720,HF_wild_card,2022.2.4,MacIntel,59.94125757,5bbc3d95f1f9ba000141d855,64ce5acb97489d65b14ecc7a,64cf4becd461555f56cbd567,,,,,,,decisionTrl,resources/DB.BMP,resources/DR.BMP,Door1,0.246693477,-0.015495074,1,0,0,1.1986,optionRight,30,2395,1,42,0,42,0,1,,,,,,,,,,,,,,,,,,,,,,,,,,,,,,,,,,,,,,,
,,,,,,,,2023-08-06_08h32.47.720,HF_wild_card,2022.2.4,MacIntel,59.94125757,5bbc3d95f1f9ba000141d855,64ce5acb97489d65b14ecc7a,64cf4becd461555f56cbd567,,,,,,,ctch,resources/DR.BMP,resources/DP.BMP,Door4,0.183112024,-0.020754496,1,0,0,1.032,optionRight,80,2475,1,43,0,43,0,1,,,,,,,,,,,,,,,,,,,,,,,,,,,,,,,,,,,,,,,
,,,,,,,,2023-08-06_08h32.47.720,HF_wild_card,2022.2.4,MacIntel,59.94125757,5bbc3d95f1f9ba000141d855,64ce5acb97489d65b14ecc7a,64cf4becd461555f56cbd567,,,,,,,,,,,,,,,,,,,,,,,,,,0,0,0,0,1,,,,,,,,,,,,,,,,,,,,,,,,,,,,,,,,,,
,,,,,,,,2023-08-06_08h32.47.720,HF_wild_card,2022.2.4,MacIntel,59.94125757,5bbc3d95f1f9ba000141d855,64ce5acb97489d65b14ecc7a,64cf4becd461555f56cbd567,,,,,,,ctch,resources/DR.BMP,resources/DP.BMP,Door4,0.158359104,-0.156778519,1,0,0,0.9002,optionRight,60,2535,2,0,0,0,0,1,,,,,,,,,,,,,,,,,,,,,,,,,,,,,,,,,,,,,,,
,,,,,,,,2023-08-06_08h32.47.720,HF_wild_card,2022.2.4,MacIntel,59.94125757,5bbc3d95f1f9ba000141d855,64ce5acb97489d65b14ecc7a,64cf4becd461555f56cbd567,,,,,,,sngl,resources/Empty.png,resources/DY.BMP,Door3,0.138101761,-0.018306082,1,0,0,0.9495,optionRight,70,2605,2,1,0,1,0,1,,,,,,,,,,,,,,,,,,,,,,,,,,,,,,,,,,,,,,,
,,,,,,,,2023-08-06_08h32.47.720,HF_wild_card,2022.2.4,MacIntel,59.94125757,5bbc3d95f1f9ba000141d855,64ce5acb97489d65b14ecc7a,64cf4becd461555f56cbd567,,,,,,,sngl,resources/Empty.png,resources/DB.BMP,Door2,0.168153438,0.009585119,1,0,0,0.8637,optionRight,40,2645,2,2,0,2,0,1,,,,,,,,,,,,,,,,,,,,,,,,,,,,,,,,,,,,,,,
,,,,,,,,2023-08-06_08h32.47.720,HF_wild_card,2022.2.4,MacIntel,59.94125757,5bbc3d95f1f9ba000141d855,64ce5acb97489d65b14ecc7a,64cf4becd461555f56cbd567,,,,,,,sngl,resources/Empty.png,resources/DP.BMP,Door4,0.180383075,0.016391613,1,0,0,0.9136,optionRight,80,2725,2,3,0,3,0,1,,,,,,,,,,,,,,,,,,,,,,,,,,,,,,,,,,,,,,,
,,,,,,,,2023-08-06_08h32.47.720,HF_wild_card,2022.2.4,MacIntel,59.94125757,5bbc3d95f1f9ba000141d855,64ce5acb97489d65b14ecc7a,64cf4becd461555f56cbd567,,,,,,,decisionTrl,resources/DP.BMP,resources/DY.BMP,Door4,-0.207508341,-0.038015578,1,0,0,0.9617,optionLeft,60,2785,2,4,0,4,0,1,,,,,,,,,,,,,,,,,,,,,,,,,,,,,,,,,,,,,,,
,,,,,,,,2023-08-06_08h32.47.720,HF_wild_card,2022.2.4,MacIntel,59.94125757,5bbc3d95f1f9ba000141d855,64ce5acb97489d65b14ecc7a,64cf4becd461555f56cbd567,,,,,,,decisionTrl,resources/DBN.BMP,resources/DY.BMP,Door3,0.227817225,0.002630672,1,0,0,0.8553,optionRight,70,2855,2,5,0,5,0,1,,,,,,,,,,,,,,,,,,,,,,,,,,,,,,,,,,,,,,,
,,,,,,,,2023-08-06_08h32.47.720,HF_wild_card,2022.2.4,MacIntel,59.94125757,5bbc3d95f1f9ba000141d855,64ce5acb97489d65b14ecc7a,64cf4becd461555f56cbd567,,,,,,,decisionTrl,resources/DP.BMP,resources/DY.BMP,Door4,-0.167032086,-0.053635774,1,0,0,0.9672,optionLeft,60,2915,2,6,0,6,0,1,,,,,,,,,,,,,,,,,,,,,,,,,,,,,,,,,,,,,,,
,,,,,,,,2023-08-06_08h32.47.720,HF_wild_card,2022.2.4,MacIntel,59.94125757,5bbc3d95f1f9ba000141d855,64ce5acb97489d65b14ecc7a,64cf4becd461555f56cbd567,,,,,,,decisionTrl,resources/DP.BMP,resources/DBN.BMP,WildCard_NonEx,0.171894667,0.021434982,1,0,0,1.6522,optionRight,55,2970,2,7,0,7,0,1,,,,,,,,,,,,,,,,,,,,,,,,,,,,,,,,,,,,,,,
,,,,,,,,2023-08-06_08h32.47.720,HF_wild_card,2022.2.4,MacIntel,59.94125757,5bbc3d95f1f9ba000141d855,64ce5acb97489d65b14ecc7a,64cf4becd461555f56cbd567,,,,,,,sngl,resources/DB.BMP,resources/Empty.png,Door2,-0.182676245,-0.010811361,1,0,0,0.9473,optionLeft,20,2990,2,8,0,8,0,1,,,,,,,,,,,,,,,,,,,,,,,,,,,,,,,,,,,,,,,
,,,,,,,,2023-08-06_08h32.47.720,HF_wild_card,2022.2.4,MacIntel,59.94125757,5bbc3d95f1f9ba000141d855,64ce5acb97489d65b14ecc7a,64cf4becd461555f56cbd567,,,,,,,decisionTrl,resources/DB.BMP,resources/DR.BMP,Door1,0.228726874,0.011580517,1,0,0,1.0643,optionRight,30,3020,2,9,0,9,0,1,,,,,,,,,,,,,,,,,,,,,,,,,,,,,,,,,,,,,,,
,,,,,,,,2023-08-06_08h32.47.720,HF_wild_card,2022.2.4,MacIntel,59.94125757,5bbc3d95f1f9ba000141d855,64ce5acb97489d65b14ecc7a,64cf4becd461555f56cbd567,,,,,,,sngl,resources/DR.BMP,resources/Empty.png,Door1,-0.168413855,-0.013563933,1,0,0,0.7798,optionLeft,30,3050,2,10,0,10,0,1,,,,,,,,,,,,,,,,,,,,,,,,,,,,,,,,,,,,,,,
,,,,,,,,2023-08-06_08h32.47.720,HF_wild_card,2022.2.4,MacIntel,59.94125757,5bbc3d95f1f9ba000141d855,64ce5acb97489d65b14ecc7a,64cf4becd461555f56cbd567,,,,,,,sngl,resources/Empty.png,resources/DBN.BMP,WildCard_NonEx,0.139595653,-0.007224019,1,0,0,0.8134,optionRight,45,3095,2,11,0,11,0,1,,,,,,,,,,,,,,,,,,,,,,,,,,,,,,,,,,,,,,,
,,,,,,,,2023-08-06_08h32.47.720,HF_wild_card,2022.2.4,MacIntel,59.94125757,5bbc3d95f1f9ba000141d855,64ce5acb97489d65b14ecc7a,64cf4becd461555f56cbd567,,,,,,,decisionTrl,resources/DP.BMP,resources/DY.BMP,Door4,-0.155374824,-0.050451547,1,0,0,1.4488,optionLeft,80,3175,2,12,0,12,0,1,,,,,,,,,,,,,,,,,,,,,,,,,,,,,,,,,,,,,,,
,,,,,,,,2023-08-06_08h32.47.720,HF_wild_card,2022.2.4,MacIntel,59.94125757,5bbc3d95f1f9ba000141d855,64ce5acb97489d65b14ecc7a,64cf4becd461555f56cbd567,,,,,,,ctch,resources/DP.BMP,resources/DR.BMP,Door4,-0.09812543,-0.022231038,1,0,0,1.0804,optionLeft,60,3235,2,13,0,13,0,1,,,,,,,,,,,,,,,,,,,,,,,,,,,,,,,,,,,,,,,
,,,,,,,,2023-08-06_08h32.47.720,HF_wild_card,2022.2.4,MacIntel,59.94125757,5bbc3d95f1f9ba000141d855,64ce5acb97489d65b14ecc7a,64cf4becd461555f56cbd567,,,,,,,ctch,resources/DY.BMP,resources/DB.BMP,Door3,-0.133907233,-0.015060029,1,0,0,1.1325,optionLeft,70,3305,2,14,0,14,0,1,,,,,,,,,,,,,,,,,,,,,,,,,,,,,,,,,,,,,,,
,,,,,,,,2023-08-06_08h32.47.720,HF_wild_card,2022.2.4,MacIntel,59.94125757,5bbc3d95f1f9ba000141d855,64ce5acb97489d65b14ecc7a,64cf4becd461555f56cbd567,,,,,,,decisionTrl,resources/DB.BMP,resources/DR.BMP,Door1,0.175134729,-0.00339898,1,0,0,1.4475,optionRight,30,3335,2,15,0,15,0,1,,,,,,,,,,,,,,,,,,,,,,,,,,,,,,,,,,,,,,,
,,,,,,,,2023-08-06_08h32.47.720,HF_wild_card,2022.2.4,MacIntel,59.94125757,5bbc3d95f1f9ba000141d855,64ce5acb97489d65b14ecc7a,64cf4becd461555f56cbd567,,,,,,,sngl,resources/DBN.BMP,resources/Empty.png,WildCard_NonEx,-0.145335106,-0.025150497,1,0,0,0.7644,optionLeft,45,3380,2,16,0,16,0,1,,,,,,,,,,,,,,,,,,,,,,,,,,,,,,,,,,,,,,,
,,,,,,,,2023-08-06_08h32.47.720,HF_wild_card,2022.2.4,MacIntel,59.94125757,5bbc3d95f1f9ba000141d855,64ce5acb97489d65b14ecc7a,64cf4becd461555f56cbd567,,,,,,,sngl,resources/DY.BMP,resources/Empty.png,Door3,-0.109820557,-0.017480751,1,0,0,0.7968,optionLeft,70,3450,2,17,0,17,0,1,,,,,,,,,,,,,,,,,,,,,,,,,,,,,,,,,,,,,,,
,,,,,,,,2023-08-06_08h32.47.720,HF_wild_card,2022.2.4,MacIntel,59.94125757,5bbc3d95f1f9ba000141d855,64ce5acb97489d65b14ecc7a,64cf4becd461555f56cbd567,,,,,,,ctch,resources/DY.BMP,resources/DB.BMP,Door3,-0.11021039,-0.011534627,1,0,0,0.9966,optionLeft,70,3520,2,18,0,18,0,1,,,,,,,,,,,,,,,,,,,,,,,,,,,,,,,,,,,,,,,
,,,,,,,,2023-08-06_08h32.47.720,HF_wild_card,2022.2.4,MacIntel,59.94125757,5bbc3d95f1f9ba000141d855,64ce5acb97489d65b14ecc7a,64cf4becd461555f56cbd567,,,,,,,sngl,resources/Empty.png,resources/DBN.BMP,WildCard_NonEx,0.161437536,0.000240411,1,0,0,1.0783,optionRight,55,3575,2,19,0,19,0,1,,,,,,,,,,,,,,,,,,,,,,,,,,,,,,,,,,,,,,,
,,,,,,,,2023-08-06_08h32.47.720,HF_wild_card,2022.2.4,MacIntel,59.94125757,5bbc3d95f1f9ba000141d855,64ce5acb97489d65b14ecc7a,64cf4becd461555f56cbd567,,,,,,,decisionTrl,resources/DB.BMP,resources/DR.BMP,Door1,0.181408126,-0.006973323,1,0,0,1.4811,optionRight,30,3605,2,20,0,20,0,1,,,,,,,,,,,,,,,,,,,,,,,,,,,,,,,,,,,,,,,
,,,,,,,,2023-08-06_08h32.47.720,HF_wild_card,2022.2.4,MacIntel,59.94125757,5bbc3d95f1f9ba000141d855,64ce5acb97489d65b14ecc7a,64cf4becd461555f56cbd567,,,,,,,decisionTrl,resources/DY.BMP,resources/DP.BMP,Door4,0.185153198,-0.015735598,1,0,0,1.8484,optionRight,80,3685,2,21,0,21,0,1,,,,,,,,,,,,,,,,,,,,,,,,,,,,,,,,,,,,,,,
,,,,,,,,2023-08-06_08h32.47.720,HF_wild_card,2022.2.4,MacIntel,59.94125757,5bbc3d95f1f9ba000141d855,64ce5acb97489d65b14ecc7a,64cf4becd461555f56cbd567,,,,,,,sngl,resources/Empty.png,resources/DR.BMP,Door1,0.159272823,0.011596228,1,0,0,0.8984,optionRight,30,3715,2,22,0,22,0,1,,,,,,,,,,,,,,,,,,,,,,,,,,,,,,,,,,,,,,,
,,,,,,,,2023-08-06_08h32.47.720,HF_wild_card,2022.2.4,MacIntel,59.94125757,5bbc3d95f1f9ba000141d855,64ce5acb97489d65b14ecc7a,64cf4becd461555f56cbd567,,,,,,,decisionTrl,resources/DY.BMP,resources/DP.BMP,Door4,0.184994168,-0.007106075,1,0,0,1.1105,optionRight,80,3795,2,23,0,23,0,1,,,,,,,,,,,,,,,,,,,,,,,,,,,,,,,,,,,,,,,
,,,,,,,,2023-08-06_08h32.47.720,HF_wild_card,2022.2.4,MacIntel,59.94125757,5bbc3d95f1f9ba000141d855,64ce5acb97489d65b14ecc7a,64cf4becd461555f56cbd567,,,,,,,ctch,resources/DR.BMP,resources/DP.BMP,Door4,0.227958849,-0.001584767,1,0,0,0.8144,optionRight,80,3875,2,24,0,24,0,1,,,,,,,,,,,,,,,,,,,,,,,,,,,,,,,,,,,,,,,
,,,,,,,,2023-08-06_08h32.47.720,HF_wild_card,2022.2.4,MacIntel,59.94125757,5bbc3d95f1f9ba000141d855,64ce5acb97489d65b14ecc7a,64cf4becd461555f56cbd567,,,,,,,decisionTrl,resources/DY.BMP,resources/DBN.BMP,Door3,-0.144313162,0.003708507,1,0,0,0.8826,optionLeft,70,3945,2,25,0,25,0,1,,,,,,,,,,,,,,,,,,,,,,,,,,,,,,,,,,,,,,,
,,,,,,,,2023-08-06_08h32.47.720,HF_wild_card,2022.2.4,MacIntel,59.94125757,5bbc3d95f1f9ba000141d855,64ce5acb97489d65b14ecc7a,64cf4becd461555f56cbd567,,,,,,,decisionTrl,resources/DY.BMP,resources/DP.BMP,Door4,0.21748499,0.013140587,1,0,0,0.931,optionRight,80,4025,2,26,0,26,0,1,,,,,,,,,,,,,,,,,,,,,,,,,,,,,,,,,,,,,,,
,,,,,,,,2023-08-06_08h32.47.720,HF_wild_card,2022.2.4,MacIntel,59.94125757,5bbc3d95f1f9ba000141d855,64ce5acb97489d65b14ecc7a,64cf4becd461555f56cbd567,,,,,,,ctch,resources/DB.BMP,resources/DY.BMP,Door3,0.162166341,0.010175465,1,0,0,0.8532,optionRight,70,4095,2,27,0,27,0,1,,,,,,,,,,,,,,,,,,,,,,,,,,,,,,,,,,,,,,,
,,,,,,,,2023-08-06_08h32.47.720,HF_wild_card,2022.2.4,MacIntel,59.94125757,5bbc3d95f1f9ba000141d855,64ce5acb97489d65b14ecc7a,64cf4becd461555f56cbd567,,,,,,,decisionTrl,resources/DR.BMP,resources/DB.BMP,Door1,-0.143082682,-0.008472527,1,0,0,1.3833,optionLeft,30,4125,2,28,0,28,0,1,,,,,,,,,,,,,,,,,,,,,,,,,,,,,,,,,,,,,,,
,,,,,,,,2023-08-06_08h32.47.720,HF_wild_card,2022.2.4,MacIntel,59.94125757,5bbc3d95f1f9ba000141d855,64ce5acb97489d65b14ecc7a,64cf4becd461555f56cbd567,,,,,,,ctch,resources/DP.BMP,resources/DR.BMP,Door4,-0.125663644,-0.014247244,1,0,0,1.3146,optionLeft,60,4185,2,29,0,29,0,1,,,,,,,,,,,,,,,,,,,,,,,,,,,,,,,,,,,,,,,
,,,,,,,,2023-08-06_08h32.47.720,HF_wild_card,2022.2.4,MacIntel,59.94125757,5bbc3d95f1f9ba000141d855,64ce5acb97489d65b14ecc7a,64cf4becd461555f56cbd567,,,,,,,decisionTrl,resources/DR.BMP,resources/DB.BMP,Door1,-0.162891134,0.00128722,1,0,0,1.4965,optionLeft,30,4215,2,30,0,30,0,1,,,,,,,,,,,,,,,,,,,,,,,,,,,,,,,,,,,,,,,
,,,,,,,,2023-08-06_08h32.47.720,HF_wild_card,2022.2.4,MacIntel,59.94125757,5bbc3d95f1f9ba000141d855,64ce5acb97489d65b14ecc7a,64cf4becd461555f56cbd567,,,,,,,decisionTrl,resources/DY.BMP,resources/DP.BMP,Door4,0.198097512,-0.025422047,1,0,0,1.1327,optionRight,80,4295,2,31,0,31,0,1,,,,,,,,,,,,,,,,,,,,,,,,,,,,,,,,,,,,,,,
,,,,,,,,2023-08-06_08h32.47.720,HF_wild_card,2022.2.4,MacIntel,59.94125757,5bbc3d95f1f9ba000141d855,64ce5acb97489d65b14ecc7a,64cf4becd461555f56cbd567,,,,,,,sngl,resources/DBN.BMP,resources/Empty.png,WildCard_NonEx,-0.129466361,-0.003194738,1,0,0,0.8648,optionLeft,55,4350,2,32,0,32,0,1,,,,,,,,,,,,,,,,,,,,,,,,,,,,,,,,,,,,,,,
,,,,,,,,2023-08-06_08h32.47.720,HF_wild_card,2022.2.4,MacIntel,59.94125757,5bbc3d95f1f9ba000141d855,64ce5acb97489d65b14ecc7a,64cf4becd461555f56cbd567,,,,,,,ctch,resources/DB.BMP,resources/DY.BMP,Door3,0.160762533,-0.003242549,1,0,0,0.9234,optionRight,70,4420,2,33,0,33,0,1,,,,,,,,,,,,,,,,,,,,,,,,,,,,,,,,,,,,,,,
,,,,,,,,2023-08-06_08h32.47.720,HF_wild_card,2022.2.4,MacIntel,59.94125757,5bbc3d95f1f9ba000141d855,64ce5acb97489d65b14ecc7a,64cf4becd461555f56cbd567,,,,,,,decisionTrl,resources/DB.BMP,resources/DR.BMP,Door2,-0.104042675,-0.01098808,1,0,0,2.1473,optionLeft,20,4440,2,34,0,34,0,1,,,,,,,,,,,,,,,,,,,,,,,,,,,,,,,,,,,,,,,
,,,,,,,,2023-08-06_08h32.47.720,HF_wild_card,2022.2.4,MacIntel,59.94125757,5bbc3d95f1f9ba000141d855,64ce5acb97489d65b14ecc7a,64cf4becd461555f56cbd567,,,,,,,decisionTrl,resources/DBN.BMP,resources/DP.BMP,Door4,0.189599383,-0.002277233,1,0,0,0.8995,optionRight,80,4520,2,35,0,35,0,1,,,,,,,,,,,,,,,,,,,,,,,,,,,,,,,,,,,,,,,
,,,,,,,,2023-08-06_08h32.47.720,HF_wild_card,2022.2.4,MacIntel,59.94125757,5bbc3d95f1f9ba000141d855,64ce5acb97489d65b14ecc7a,64cf4becd461555f56cbd567,,,,,,,decisionTrl,resources/DBN.BMP,resources/DB.BMP,WildCard_NonEx,-0.138547149,-0.023954434,1,0,0,1.5724,optionLeft,45,4565,2,36,0,36,0,1,,,,,,,,,,,,,,,,,,,,,,,,,,,,,,,,,,,,,,,
,,,,,,,,2023-08-06_08h32.47.720,HF_wild_card,2022.2.4,MacIntel,59.94125757,5bbc3d95f1f9ba000141d855,64ce5acb97489d65b14ecc7a,64cf4becd461555f56cbd567,,,,,,,decisionTrl,resources/DBN.BMP,resources/DR.BMP,WildCard_NonEx,-0.144222401,-0.037431335,1,0,0,1.4639,optionLeft,55,4620,2,37,0,37,0,1,,,,,,,,,,,,,,,,,,,,,,,,,,,,,,,,,,,,,,,
,,,,,,,,2023-08-06_08h32.47.720,HF_wild_card,2022.2.4,MacIntel,59.94125757,5bbc3d95f1f9ba000141d855,64ce5acb97489d65b14ecc7a,64cf4becd461555f56cbd567,,,,,,,sngl,resources/DP.BMP,resources/Empty.png,Door4,-0.12159972,-0.015784935,1,0,0,1.2829,optionLeft,60,4680,2,38,0,38,0,1,,,,,,,,,,,,,,,,,,,,,,,,,,,,,,,,,,,,,,,
,,,,,,,,2023-08-06_08h32.47.720,HF_wild_card,2022.2.4,MacIntel,59.94125757,5bbc3d95f1f9ba000141d855,64ce5acb97489d65b14ecc7a,64cf4becd461555f56cbd567,,,,,,,decisionTrl,resources/DB.BMP,resources/DBN.BMP,WildCard_NonEx,0.146391579,-0.007262053,1,0,0,1.1997,optionRight,55,4735,2,39,0,39,0,1,,,,,,,,,,,,,,,,,,,,,,,,,,,,,,,,,,,,,,,
,,,,,,,,2023-08-06_08h32.47.720,HF_wild_card,2022.2.4,MacIntel,59.94125757,5bbc3d95f1f9ba000141d855,64ce5acb97489d65b14ecc7a,64cf4becd461555f56cbd567,,,,,,,decisionTrl,resources/DR.BMP,resources/DB.BMP,Door1,-0.136623185,-0.003790057,1,0,0,1.5136,optionLeft,30,4765,2,40,0,40,0,1,,,,,,,,,,,,,,,,,,,,,,,,,,,,,,,,,,,,,,,
,,,,,,,,2023-08-06_08h32.47.720,HF_wild_card,2022.2.4,MacIntel,59.94125757,5bbc3d95f1f9ba000141d855,64ce5acb97489d65b14ecc7a,64cf4becd461555f56cbd567,,,,,,,decisionTrl,resources/DR.BMP,resources/DB.BMP,Door1,-0.144418957,-0.013995926,1,0,0,1.2984,optionLeft,30,4795,2,41,0,41,0,1,,,,,,,,,,,,,,,,,,,,,,,,,,,,,,,,,,,,,,,
,,,,,,,,2023-08-06_08h32.47.720,HF_wild_card,2022.2.4,MacIntel,59.94125757,5bbc3d95f1f9ba000141d855,64ce5acb97489d65b14ecc7a,64cf4becd461555f56cbd567,,,,,,,decisionTrl,resources/DR.BMP,resources/DBN.BMP,WildCard_NonEx,0.192707203,0.025738864,1,0,0,1.3288,optionRight,55,4850,2,42,0,42,0,1,,,,,,,,,,,,,,,,,,,,,,,,,,,,,,,,,,,,,,,
,,,,,,,,2023-08-06_08h32.47.720,HF_wild_card,2022.2.4,MacIntel,59.94125757,5bbc3d95f1f9ba000141d855,64ce5acb97489d65b14ecc7a,64cf4becd461555f56cbd567,,,,,,,decisionTrl,resources/DP.BMP,resources/DY.BMP,Door4,-0.112284682,-0.012852648,1,0,0,1.1979,optionLeft,80,4930,2,43,0,43,0,1,,,,,,,,,,,,,,,,,,,,,,,,,,,,,,,,,,,,,,,
,,,,,,,,2023-08-06_08h32.47.720,HF_wild_card,2022.2.4,MacIntel,59.94125757,5bbc3d95f1f9ba000141d855,64ce5acb97489d65b14ecc7a,64cf4becd461555f56cbd567,,,,,,,,,,,,,,,,,,,,,,,,,,1,0,1,0,1,,,,,,,,,,,,,,,,,,,,,,,,,,,,,,,,,,
,,,,,,,,2023-08-06_08h32.47.720,HF_wild_card,2022.2.4,MacIntel,59.94125757,5bbc3d95f1f9ba000141d855,64ce5acb97489d65b14ecc7a,64cf4becd461555f56cbd567,,,,,,,decisionTrl,resources/DY.BMP,resources/DP.BMP,Door4,0.18534139,-0.168766106,1,0,0,1.0427,optionRight,60,4990,3,0,0,0,0,1,,,,,,,,,,,,,,,,,,,,,,,,,,,,,,,,,,,,,,,
,,,,,,,,2023-08-06_08h32.47.720,HF_wild_card,2022.2.4,MacIntel,59.94125757,5bbc3d95f1f9ba000141d855,64ce5acb97489d65b14ecc7a,64cf4becd461555f56cbd567,,,,,,,sngl,resources/Empty.png,resources/DY.BMP,Door3,0.121300139,-0.027225805,1,0,0,0.828,optionRight,70,5060,3,1,0,1,0,1,,,,,,,,,,,,,,,,,,,,,,,,,,,,,,,,,,,,,,,
,,,,,,,,2023-08-06_08h32.47.720,HF_wild_card,2022.2.4,MacIntel,59.94125757,5bbc3d95f1f9ba000141d855,64ce5acb97489d65b14ecc7a,64cf4becd461555f56cbd567,,,,,,,ctch,resources/DB.BMP,resources/DY.BMP,Door3,0.178331163,-0.016501872,1,0,0,0.7807,optionRight,70,5130,3,2,0,2,0,1,,,,,,,,,,,,,,,,,,,,,,,,,,,,,,,,,,,,,,,
,,,,,,,,2023-08-06_08h32.47.720,HF_wild_card,2022.2.4,MacIntel,59.94125757,5bbc3d95f1f9ba000141d855,64ce5acb97489d65b14ecc7a,64cf4becd461555f56cbd567,,,,,,,sngl,resources/Empty.png,resources/DBN.BMP,WildCard_NonEx,0.150754123,-0.003994412,1,0,0,0.8819,optionRight,55,5185,3,3,0,3,0,1,,,,,,,,,,,,,,,,,,,,,,,,,,,,,,,,,,,,,,,
,,,,,,,,2023-08-06_08h32.47.720,HF_wild_card,2022.2.4,MacIntel,59.94125757,5bbc3d95f1f9ba000141d855,64ce5acb97489d65b14ecc7a,64cf4becd461555f56cbd567,,,,,,,decisionTrl,resources/DB.BMP,resources/DR.BMP,Door2,-0.190743566,-0.020613833,1,0,0,1.6972,optionLeft,40,5225,3,4,0,4,0,1,,,,,,,,,,,,,,,,,,,,,,,,,,,,,,,,,,,,,,,
,,,,,,,,2023-08-06_08h32.47.720,HF_wild_card,2022.2.4,MacIntel,59.94125757,5bbc3d95f1f9ba000141d855,64ce5acb97489d65b14ecc7a,64cf4becd461555f56cbd567,,,,,,,decisionTrl,resources/DP.BMP,resources/DY.BMP,Door3,0.206324599,-0.033536162,1,0,0,0.9805,optionRight,70,5295,3,5,0,5,0,1,,,,,,,,,,,,,,,,,,,,,,,,,,,,,,,,,,,,,,,
,,,,,,,,2023-08-06_08h32.47.720,HF_wild_card,2022.2.4,MacIntel,59.94125757,5bbc3d95f1f9ba000141d855,64ce5acb97489d65b14ecc7a,64cf4becd461555f56cbd567,,,,,,,sngl,resources/Empty.png,resources/DR.BMP,Door1,0.150042612,-0.008101174,1,0,0,0.9154,optionRight,30,5325,3,6,0,6,0,1,,,,,,,,,,,,,,,,,,,,,,,,,,,,,,,,,,,,,,,
,,,,,,,,2023-08-06_08h32.47.720,HF_wild_card,2022.2.4,MacIntel,59.94125757,5bbc3d95f1f9ba000141d855,64ce5acb97489d65b14ecc7a,64cf4becd461555f56cbd567,,,,,,,decisionTrl,resources/DR.BMP,resources/DB.BMP,Door2,0.215379955,0.005240829,1,0,0,2.1034,optionRight,20,5345,3,7,0,7,0,1,,,,,,,,,,,,,,,,,,,,,,,,,,,,,,,,,,,,,,,
,,,,,,,,2023-08-06_08h32.47.720,HF_wild_card,2022.2.4,MacIntel,59.94125757,5bbc3d95f1f9ba000141d855,64ce5acb97489d65b14ecc7a,64cf4becd461555f56cbd567,,,,,,,ctch,resources/DP.BMP,resources/DR.BMP,Door4,-0.207848556,-0.030064901,1,0,0,1.0778,optionLeft,60,5405,3,8,0,8,0,1,,,,,,,,,,,,,,,,,,,,,,,,,,,,,,,,,,,,,,,
,,,,,,,,2023-08-06_08h32.47.720,HF_wild_card,2022.2.4,MacIntel,59.94125757,5bbc3d95f1f9ba000141d855,64ce5acb97489d65b14ecc7a,64cf4becd461555f56cbd567,,,,,,,decisionTrl,resources/DY.BMP,resources/DP.BMP,Door3,-0.168189098,-0.034406196,1,0,0,0.8136,optionLeft,70,5475,3,9,0,9,0,1,,,,,,,,,,,,,,,,,,,,,,,,,,,,,,,,,,,,,,,
,,,,,,,,2023-08-06_08h32.47.720,HF_wild_card,2022.2.4,MacIntel,59.94125757,5bbc3d95f1f9ba000141d855,64ce5acb97489d65b14ecc7a,64cf4becd461555f56cbd567,,,,,,,sngl,resources/DBN.BMP,resources/Empty.png,WildCard_NonEx,-0.12254876,-0.003267811,1,0,0,0.863,optionLeft,45,5520,3,10,0,10,0,1,,,,,,,,,,,,,,,,,,,,,,,,,,,,,,,,,,,,,,,
,,,,,,,,2023-08-06_08h32.47.720,HF_wild_card,2022.2.4,MacIntel,59.94125757,5bbc3d95f1f9ba000141d855,64ce5acb97489d65b14ecc7a,64cf4becd461555f56cbd567,,,,,,,decisionTrl,resources/DP.BMP,resources/DY.BMP,Door3,0.163617169,-0.014051197,1,0,0,0.8189,optionRight,70,5590,3,11,0,11,0,1,,,,,,,,,,,,,,,,,,,,,,,,,,,,,,,,,,,,,,,
,,,,,,,,2023-08-06_08h32.47.720,HF_wild_card,2022.2.4,MacIntel,59.94125757,5bbc3d95f1f9ba000141d855,64ce5acb97489d65b14ecc7a,64cf4becd461555f56cbd567,,,,,,,ctch,resources/DY.BMP,resources/DB.BMP,Door3,-0.125120149,-0.008725202,1,0,0,0.9799,optionLeft,70,5660,3,12,0,12,0,1,,,,,,,,,,,,,,,,,,,,,,,,,,,,,,,,,,,,,,,
,,,,,,,,2023-08-06_08h32.47.720,HF_wild_card,2022.2.4,MacIntel,59.94125757,5bbc3d95f1f9ba000141d855,64ce5acb97489d65b14ecc7a,64cf4becd461555f56cbd567,,,,,,,sngl,resources/Empty.png,resources/DB.BMP,Door2,0.113020381,-0.014916371,1,0,0,0.7836,optionRight,20,5680,3,13,0,13,0,1,,,,,,,,,,,,,,,,,,,,,,,,,,,,,,,,,,,,,,,
,,,,,,,,2023-08-06_08h32.47.720,HF_wild_card,2022.2.4,MacIntel,59.94125757,5bbc3d95f1f9ba000141d855,64ce5acb97489d65b14ecc7a,64cf4becd461555f56cbd567,,,,,,,decisionTrl,resources/DB.BMP,resources/DR.BMP,Door1,0.164922418,-0.009156912,1,0,0,1.3164,optionRight,30,5710,3,14,0,14,0,1,,,,,,,,,,,,,,,,,,,,,,,,,,,,,,,,,,,,,,,
,,,,,,,,2023-08-06_08h32.47.720,HF_wild_card,2022.2.4,MacIntel,59.94125757,5bbc3d95f1f9ba000141d855,64ce5acb97489d65b14ecc7a,64cf4becd461555f56cbd567,,,,,,,decisionTrl,resources/DY.BMP,resources/DP.BMP,Door3,-0.191121702,-0.012709724,1,0,0,1.1054,optionLeft,70,5780,3,15,0,15,0,1,,,,,,,,,,,,,,,,,,,,,,,,,,,,,,,,,,,,,,,
,,,,,,,,2023-08-06_08h32.47.720,HF_wild_card,2022.2.4,MacIntel,59.94125757,5bbc3d95f1f9ba000141d855,64ce5acb97489d65b14ecc7a,64cf4becd461555f56cbd567,,,,,,,decisionTrl,resources/DB.BMP,resources/DR.BMP,Door1,0.209513459,-0.00145891,1,0,0,1.131,optionRight,30,5810,3,16,0,16,0,1,,,,,,,,,,,,,,,,,,,,,,,,,,,,,,,,,,,,,,,
,,,,,,,,2023-08-06_08h32.47.720,HF_wild_card,2022.2.4,MacIntel,59.94125757,5bbc3d95f1f9ba000141d855,64ce5acb97489d65b14ecc7a,64cf4becd461555f56cbd567,,,,,,,decisionTrl,resources/DBN.BMP,resources/DP.BMP,Door4,0.202399586,-0.01261738,1,0,0,1.1154,optionRight,60,5870,3,17,0,17,0,1,,,,,,,,,,,,,,,,,,,,,,,,,,,,,,,,,,,,,,,
,,,,,,,,2023-08-06_08h32.47.720,HF_wild_card,2022.2.4,MacIntel,59.94125757,5bbc3d95f1f9ba000141d855,64ce5acb97489d65b14ecc7a,64cf4becd461555f56cbd567,,,,,,,decisionTrl,resources/DB.BMP,resources/DR.BMP,Door1,0.188584617,-0.015818504,1,0,0,1.2138,optionRight,30,5900,3,18,0,18,0,1,,,,,,,,,,,,,,,,,,,,,,,,,,,,,,,,,,,,,,,
,,,,,,,,2023-08-06_08h32.47.720,HF_wild_card,2022.2.4,MacIntel,59.94125757,5bbc3d95f1f9ba000141d855,64ce5acb97489d65b14ecc7a,64cf4becd461555f56cbd567,,,,,,,decisionTrl,resources/DP.BMP,resources/DY.BMP,Door3,0.180303955,-0.0159434,1,0,0,1.1286,optionRight,70,5970,3,19,0,19,0,1,,,,,,,,,,,,,,,,,,,,,,,,,,,,,,,,,,,,,,,
,,,,,,,,2023-08-06_08h32.47.720,HF_wild_card,2022.2.4,MacIntel,59.94125757,5bbc3d95f1f9ba000141d855,64ce5acb97489d65b14ecc7a,64cf4becd461555f56cbd567,,,,,,,ctch,resources/DR.BMP,resources/DP.BMP,Door4,0.173431849,-0.003149753,1,0,0,1.3479,optionRight,60,6030,3,20,0,20,0,1,,,,,,,,,,,,,,,,,,,,,,,,,,,,,,,,,,,,,,,
,,,,,,,,2023-08-06_08h32.47.720,HF_wild_card,2022.2.4,MacIntel,59.94125757,5bbc3d95f1f9ba000141d855,64ce5acb97489d65b14ecc7a,64cf4becd461555f56cbd567,,,,,,,decisionTrl,resources/DR.BMP,resources/DB.BMP,Door1,-0.216099661,-0.027233887,1,0,0,1.167,optionLeft,30,6060,3,21,0,21,0,1,,,,,,,,,,,,,,,,,,,,,,,,,,,,,,,,,,,,,,,
,,,,,,,,2023-08-06_08h32.47.720,HF_wild_card,2022.2.4,MacIntel,59.94125757,5bbc3d95f1f9ba000141d855,64ce5acb97489d65b14ecc7a,64cf4becd461555f56cbd567,,,,,,,ctch,resources/DP.BMP,resources/DR.BMP,Door4,-0.161827144,-0.033769848,1,0,0,1.0764,optionLeft,60,6120,3,22,0,22,0,1,,,,,,,,,,,,,,,,,,,,,,,,,,,,,,,,,,,,,,,
,,,,,,,,2023-08-06_08h32.47.720,HF_wild_card,2022.2.4,MacIntel,59.94125757,5bbc3d95f1f9ba000141d855,64ce5acb97489d65b14ecc7a,64cf4becd461555f56cbd567,,,,,,,sngl,resources/DP.BMP,resources/Empty.png,Door4,-0.163707818,-0.024608188,1,0,0,0.7635,optionLeft,80,6200,3,23,0,23,0,1,,,,,,,,,,,,,,,,,,,,,,,,,,,,,,,,,,,,,,,
,,,,,,,,2023-08-06_08h32.47.720,HF_wild_card,2022.2.4,MacIntel,59.94125757,5bbc3d95f1f9ba000141d855,64ce5acb97489d65b14ecc7a,64cf4becd461555f56cbd567,,,,,,,decisionTrl,resources/DP.BMP,resources/DBN.BMP,Door4,-0.14559767,-0.005705374,1,0,0,0.9815,optionLeft,80,6280,3,24,0,24,0,1,,,,,,,,,,,,,,,,,,,,,,,,,,,,,,,,,,,,,,,
,,,,,,,,2023-08-06_08h32.47.720,HF_wild_card,2022.2.4,MacIntel,59.94125757,5bbc3d95f1f9ba000141d855,64ce5acb97489d65b14ecc7a,64cf4becd461555f56cbd567,,,,,,,decisionTrl,resources/DY.BMP,resources/DBN.BMP,Door3,-0.146078887,-0.002750425,1,0,0,0.7959,optionLeft,70,6350,3,25,0,25,0,1,,,,,,,,,,,,,,,,,,,,,,,,,,,,,,,,,,,,,,,
,,,,,,,,2023-08-06_08h32.47.720,HF_wild_card,2022.2.4,MacIntel,59.94125757,5bbc3d95f1f9ba000141d855,64ce5acb97489d65b14ecc7a,64cf4becd461555f56cbd567,,,,,,,decisionTrl,resources/DP.BMP,resources/DY.BMP,Door3,0.188217163,-0.003317091,1,0,0,1.3144,optionRight,70,6420,3,26,0,26,0,1,,,,,,,,,,,,,,,,,,,,,,,,,,,,,,,,,,,,,,,
,,,,,,,,2023-08-06_08h32.47.720,HF_wild_card,2022.2.4,MacIntel,59.94125757,5bbc3d95f1f9ba000141d855,64ce5acb97489d65b14ecc7a,64cf4becd461555f56cbd567,,,,,,,decisionTrl,resources/DB.BMP,resources/DBN.BMP,WildCard_NonEx,0.164209097,0.002033149,1,0,0,1.064,optionRight,55,6475,3,27,0,27,0,1,,,,,,,,,,,,,,,,,,,,,,,,,,,,,,,,,,,,,,,
,,,,,,,,2023-08-06_08h32.47.720,HF_wild_card,2022.2.4,MacIntel,59.94125757,5bbc3d95f1f9ba000141d855,64ce5acb97489d65b14ecc7a,64cf4becd461555f56cbd567,,,,,,,sngl,resources/DB.BMP,resources/Empty.png,Door2,-0.115200014,-0.00530938,1,0,0,0.8123,optionLeft,40,6515,3,28,0,28,0,1,,,,,,,,,,,,,,,,,,,,,,,,,,,,,,,,,,,,,,,
,,,,,,,,2023-08-06_08h32.47.720,HF_wild_card,2022.2.4,MacIntel,59.94125757,5bbc3d95f1f9ba000141d855,64ce5acb97489d65b14ecc7a,64cf4becd461555f56cbd567,,,,,,,sngl,resources/Empty.png,resources/DBN.BMP,WildCard_NonEx,0.189300085,0.000308115,1,0,0,0.7478,optionRight,45,6560,3,29,0,29,0,1,,,,,,,,,,,,,,,,,,,,,,,,,,,,,,,,,,,,,,,
,,,,,,,,2023-08-06_08h32.47.720,HF_wild_card,2022.2.4,MacIntel,59.94125757,5bbc3d95f1f9ba000141d855,64ce5acb97489d65b14ecc7a,64cf4becd461555f56cbd567,,,,,,,decisionTrl,resources/DBN.BMP,resources/DB.BMP,WildCard_NonEx,-0.118828441,-0.002059145,1,0,0,1.3653,optionLeft,45,6605,3,30,0,30,0,1,,,,,,,,,,,,,,,,,,,,,,,,,,,,,,,,,,,,,,,
,,,,,,,,2023-08-06_08h32.47.720,HF_wild_card,2022.2.4,MacIntel,59.94125757,5bbc3d95f1f9ba000141d855,64ce5acb97489d65b14ecc7a,64cf4becd461555f56cbd567,,,,,,,ctch,resources/DY.BMP,resources/DB.BMP,Door3,-0.211763622,-0.054888973,1,0,0,1.049,optionLeft,70,6675,3,31,0,31,0,1,,,,,,,,,,,,,,,,,,,,,,,,,,,,,,,,,,,,,,,
,,,,,,,,2023-08-06_08h32.47.720,HF_wild_card,2022.2.4,MacIntel,59.94125757,5bbc3d95f1f9ba000141d855,64ce5acb97489d65b14ecc7a,64cf4becd461555f56cbd567,,,,,,,decisionTrl,resources/DR.BMP,resources/DBN.BMP,WildCard_NonEx,0.284377374,0.006307983,1,0,0,2.4044,optionRight,45,6720,3,32,0,32,0,1,,,,,,,,,,,,,,,,,,,,,,,,,,,,,,,,,,,,,,,
,,,,,,,,2023-08-06_08h32.47.720,HF_wild_card,2022.2.4,MacIntel,59.94125757,5bbc3d95f1f9ba000141d855,64ce5acb97489d65b14ecc7a,64cf4becd461555f56cbd567,,,,,,,ctch,resources/DB.BMP,resources/DY.BMP,Door3,0.194247323,-0.010258484,1,0,0,0.9135,optionRight,70,6790,3,33,0,33,0,1,,,,,,,,,,,,,,,,,,,,,,,,,,,,,,,,,,,,,,,
,,,,,,,,2023-08-06_08h32.47.720,HF_wild_card,2022.2.4,MacIntel,59.94125757,5bbc3d95f1f9ba000141d855,64ce5acb97489d65b14ecc7a,64cf4becd461555f56cbd567,,,,,,,sngl,resources/DY.BMP,resources/Empty.png,Door3,-0.158175433,-0.051067437,1,0,0,0.949,optionLeft,70,6860,3,34,0,34,0,1,,,,,,,,,,,,,,,,,,,,,,,,,,,,,,,,,,,,,,,
,,,,,,,,2023-08-06_08h32.47.720,HF_wild_card,2022.2.4,MacIntel,59.94125757,5bbc3d95f1f9ba000141d855,64ce5acb97489d65b14ecc7a,64cf4becd461555f56cbd567,,,,,,,sngl,resources/DBN.BMP,resources/Empty.png,WildCard_NonEx,-0.189055605,-0.022048611,1,0,0,0.8004,optionLeft,55,6915,3,35,0,35,0,1,,,,,,,,,,,,,,,,,,,,,,,,,,,,,,,,,,,,,,,
,,,,,,,,2023-08-06_08h32.47.720,HF_wild_card,2022.2.4,MacIntel,59.94125757,5bbc3d95f1f9ba000141d855,64ce5acb97489d65b14ecc7a,64cf4becd461555f56cbd567,,,,,,,decisionTrl,resources/DR.BMP,resources/DB.BMP,Door1,-0.170020549,-0.049531386,1,0,0,1.1046,optionLeft,30,6945,3,36,0,36,0,1,,,,,,,,,,,,,,,,,,,,,,,,,,,,,,,,,,,,,,,
,,,,,,,,2023-08-06_08h32.47.720,HF_wild_card,2022.2.4,MacIntel,59.94125757,5bbc3d95f1f9ba000141d855,64ce5acb97489d65b14ecc7a,64cf4becd461555f56cbd567,,,,,,,ctch,resources/DR.BMP,resources/DP.BMP,Door4,0.185195245,-0.008737974,1,0,0,1.1472,optionRight,80,7025,3,37,0,37,0,1,,,,,,,,,,,,,,,,,,,,,,,,,,,,,,,,,,,,,,,
,,,,,,,,2023-08-06_08h32.47.720,HF_wild_card,2022.2.4,MacIntel,59.94125757,5bbc3d95f1f9ba000141d855,64ce5acb97489d65b14ecc7a,64cf4becd461555f56cbd567,,,,,,,decisionTrl,resources/DY.BMP,resources/DP.BMP,Door4,0.140582275,-0.011312979,1,0,0,0.8013,optionRight,80,7105,3,38,0,38,0,1,,,,,,,,,,,,,,,,,,,,,,,,,,,,,,,,,,,,,,,
,,,,,,,,2023-08-06_08h32.47.720,HF_wild_card,2022.2.4,MacIntel,59.94125757,5bbc3d95f1f9ba000141d855,64ce5acb97489d65b14ecc7a,64cf4becd461555f56cbd567,,,,,,,decisionTrl,resources/DBN.BMP,resources/DY.BMP,Door3,0.219472249,0.00428382,1,0,0,0.8496,optionRight,70,7175,3,39,0,39,0,1,,,,,,,,,,,,,,,,,,,,,,,,,,,,,,,,,,,,,,,
,,,,,,,,2023-08-06_08h32.47.720,HF_wild_card,2022.2.4,MacIntel,59.94125757,5bbc3d95f1f9ba000141d855,64ce5acb97489d65b14ecc7a,64cf4becd461555f56cbd567,,,,,,,decisionTrl,resources/DBN.BMP,resources/DR.BMP,Door1,0.184048688,0.005553408,1,0,0,0.78,optionRight,30,7205,3,40,0,40,0,1,,,,,,,,,,,,,,,,,,,,,,,,,,,,,,,,,,,,,,,
,,,,,,,,2023-08-06_08h32.47.720,HF_wild_card,2022.2.4,MacIntel,59.94125757,5bbc3d95f1f9ba000141d855,64ce5acb97489d65b14ecc7a,64cf4becd461555f56cbd567,,,,,,,sngl,resources/DR.BMP,resources/Empty.png,Door1,-0.17860616,-0.032609332,1,0,0,0.7646,optionLeft,30,7235,3,41,0,41,0,1,,,,,,,,,,,,,,,,,,,,,,,,,,,,,,,,,,,,,,,
,,,,,,,,2023-08-06_08h32.47.720,HF_wild_card,2022.2.4,MacIntel,59.94125757,5bbc3d95f1f9ba000141d855,64ce5acb97489d65b14ecc7a,64cf4becd461555f56cbd567,,,,,,,decisionTrl,resources/DR.BMP,resources/DB.BMP,Door1,-0.117080349,-0.024399143,1,0,0,1.1658,optionLeft,30,7265,3,42,0,42,0,1,,,,,,,,,,,,,,,,,,,,,,,,,,,,,,,,,,,,,,,
,,,,,,,,2023-08-06_08h32.47.720,HF_wild_card,2022.2.4,MacIntel,59.94125757,5bbc3d95f1f9ba000141d855,64ce5acb97489d65b14ecc7a,64cf4becd461555f56cbd567,,,,,,,sngl,resources/Empty.png,resources/DP.BMP,Door4,0.160193888,0.001825121,1,0,0,0.8663,optionRight,60,7325,3,43,0,43,0,1,,,,,,,,,,,,,,,,,,,,,,,,,,,,,,,,,,,,,,,
,,,,,,,,2023-08-06_08h32.47.720,HF_wild_card,2022.2.4,MacIntel,59.94125757,5bbc3d95f1f9ba000141d855,64ce5acb97489d65b14ecc7a,64cf4becd461555f56cbd567,,,,,,,,,,,,,,,,,,,,,,,,,,2,0,2,0,1,,,,,,,,,,,,,,,,,,,,,,,,,,,,,,,,,,
,,,,,,,,2023-08-06_08h32.47.720,HF_wild_card,2022.2.4,MacIntel,59.94125757,5bbc3d95f1f9ba000141d855,64ce5acb97489d65b14ecc7a,64cf4becd461555f56cbd567,,,,,,,decisionTrl,resources/DG.BMP,resources/DP.BMP,WildCard_Ex,-0.143997871,-0.118725982,1,0,0,1.1343,optionLeft,95,7420,4,0,0,0,0,1,,,,,,,,,,,,,,,,,,,,,,,,,,,,,,,,,,,,,,,
,,,,,,,,2023-08-06_08h32.47.720,HF_wild_card,2022.2.4,MacIntel,59.94125757,5bbc3d95f1f9ba000141d855,64ce5acb97489d65b14ecc7a,64cf4becd461555f56cbd567,,,,,,,ctch,resources/DR.BMP,resources/DP.BMP,Door4,0.232259454,-0.00651279,1,0,0,0.8316,optionRight,60,7480,4,1,0,1,0,1,,,,,,,,,,,,,,,,,,,,,,,,,,,,,,,,,,,,,,,
,,,,,,,,2023-08-06_08h32.47.720,HF_wild_card,2022.2.4,MacIntel,59.94125757,5bbc3d95f1f9ba000141d855,64ce5acb97489d65b14ecc7a,64cf4becd461555f56cbd567,,,,,,,decisionTrl,resources/DY.BMP,resources/DP.BMP,Door3,-0.176012731,-0.013519796,1,0,0,0.9706,optionLeft,70,7550,4,2,0,2,0,1,,,,,,,,,,,,,,,,,,,,,,,,,,,,,,,,,,,,,,,
,,,,,,,,2023-08-06_08h32.47.720,HF_wild_card,2022.2.4,MacIntel,59.94125757,5bbc3d95f1f9ba000141d855,64ce5acb97489d65b14ecc7a,64cf4becd461555f56cbd567,,,,,,,sngl,resources/Empty.png,resources/DG.BMP,WildCard_Ex,0.227767831,0.024879116,1,0,0,0.7982,optionRight,95,7645,4,3,0,3,0,1,,,,,,,,,,,,,,,,,,,,,,,,,,,,,,,,,,,,,,,
,,,,,,,,2023-08-06_08h32.47.720,HF_wild_card,2022.2.4,MacIntel,59.94125757,5bbc3d95f1f9ba000141d855,64ce5acb97489d65b14ecc7a,64cf4becd461555f56cbd567,,,,,,,sngl,resources/Empty.png,resources/DG.BMP,WildCard_Ex,0.22686598,0.02365214,1,0,0,0.6804,optionRight,5,7650,4,4,0,4,0,1,,,,,,,,,,,,,,,,,,,,,,,,,,,,,,,,,,,,,,,
,,,,,,,,2023-08-06_08h32.47.720,HF_wild_card,2022.2.4,MacIntel,59.94125757,5bbc3d95f1f9ba000141d855,64ce5acb97489d65b14ecc7a,64cf4becd461555f56cbd567,,,,,,,ctch,resources/DY.BMP,resources/DB.BMP,Door3,-0.121070636,-0.037235853,1,0,0,1.3508,optionLeft,70,7720,4,5,0,5,0,1,,,,,,,,,,,,,,,,,,,,,,,,,,,,,,,,,,,,,,,
,,,,,,,,2023-08-06_08h32.47.720,HF_wild_card,2022.2.4,MacIntel,59.94125757,5bbc3d95f1f9ba000141d855,64ce5acb97489d65b14ecc7a,64cf4becd461555f56cbd567,,,,,,,decisionTrl,resources/DB.BMP,resources/DR.BMP,Door1,0.15358152,-0.017167098,1,0,0,1.3312,optionRight,30,7750,4,6,0,6,0,1,,,,,,,,,,,,,,,,,,,,,,,,,,,,,,,,,,,,,,,
,,,,,,,,2023-08-06_08h32.47.720,HF_wild_card,2022.2.4,MacIntel,59.94125757,5bbc3d95f1f9ba000141d855,64ce5acb97489d65b14ecc7a,64cf4becd461555f56cbd567,,,,,,,sngl,resources/DP.BMP,resources/Empty.png,Door4,-0.152038744,-0.015874227,1,0,0,0.8482,optionLeft,60,7810,4,7,0,7,0,1,,,,,,,,,,,,,,,,,,,,,,,,,,,,,,,,,,,,,,,
,,,,,,,,2023-08-06_08h32.47.720,HF_wild_card,2022.2.4,MacIntel,59.94125757,5bbc3d95f1f9ba000141d855,64ce5acb97489d65b14ecc7a,64cf4becd461555f56cbd567,,,,,,,sngl,resources/Empty.png,resources/DY.BMP,Door3,0.200691167,-0.019128079,1,0,0,0.7191,optionRight,70,7880,4,8,0,8,0,1,,,,,,,,,,,,,,,,,,,,,,,,,,,,,,,,,,,,,,,
,,,,,,,,2023-08-06_08h32.47.720,HF_wild_card,2022.2.4,MacIntel,59.94125757,5bbc3d95f1f9ba000141d855,64ce5acb97489d65b14ecc7a,64cf4becd461555f56cbd567,,,,,,,sngl,resources/Empty.png,resources/DB.BMP,Door2,0.14089039,-0.008988274,1,0,0,0.7812,optionRight,40,7920,4,9,0,9,0,1,,,,,,,,,,,,,,,,,,,,,,,,,,,,,,,,,,,,,,,
,,,,,,,,2023-08-06_08h32.47.720,HF_wild_card,2022.2.4,MacIntel,59.94125757,5bbc3d95f1f9ba000141d855,64ce5acb97489d65b14ecc7a,64cf4becd461555f56cbd567,,,,,,,decisionTrl,resources/DY.BMP,resources/DP.BMP,Door4,0.147009051,-0.007332809,1,0,0,1.6986,optionRight,60,7980,4,10,0,10,0,1,,,,,,,,,,,,,,,,,,,,,,,,,,,,,,,,,,,,,,,
,,,,,,,,2023-08-06_08h32.47.720,HF_wild_card,2022.2.4,MacIntel,59.94125757,5bbc3d95f1f9ba000141d855,64ce5acb97489d65b14ecc7a,64cf4becd461555f56cbd567,,,,,,,decisionTrl,resources/DR.BMP,resources/DB.BMP,Door1,-0.162534813,-0.029654609,1,0,0,1.1314,optionLeft,30,8010,4,11,0,11,0,1,,,,,,,,,,,,,,,,,,,,,,,,,,,,,,,,,,,,,,,
,,,,,,,,2023-08-06_08h32.47.720,HF_wild_card,2022.2.4,MacIntel,59.94125757,5bbc3d95f1f9ba000141d855,64ce5acb97489d65b14ecc7a,64cf4becd461555f56cbd567,,,,,,,sngl,resources/Empty.png,resources/DR.BMP,Door1,0.153436392,-0.009171097,1,0,0,0.8625,optionRight,30,8040,4,12,0,12,0,1,,,,,,,,,,,,,,,,,,,,,,,,,,,,,,,,,,,,,,,
,,,,,,,,2023-08-06_08h32.47.720,HF_wild_card,2022.2.4,MacIntel,59.94125757,5bbc3d95f1f9ba000141d855,64ce5acb97489d65b14ecc7a,64cf4becd461555f56cbd567,,,,,,,decisionTrl,resources/DR.BMP,resources/DB.BMP,Door1,-0.15136244,-0.046678783,1,0,0,1.1387,optionLeft,30,8070,4,13,0,13,0,1,,,,,,,,,,,,,,,,,,,,,,,,,,,,,,,,,,,,,,,
,,,,,,,,2023-08-06_08h32.47.720,HF_wild_card,2022.2.4,MacIntel,59.94125757,5bbc3d95f1f9ba000141d855,64ce5acb97489d65b14ecc7a,64cf4becd461555f56cbd567,,,,,,,ctch,resources/DR.BMP,resources/DP.BMP,Door4,0.198405174,-0.013313746,1,0,0,1.2133,optionRight,80,8150,4,14,0,14,0,1,,,,,,,,,,,,,,,,,,,,,,,,,,,,,,,,,,,,,,,
,,,,,,,,2023-08-06_08h32.47.720,HF_wild_card,2022.2.4,MacIntel,59.94125757,5bbc3d95f1f9ba000141d855,64ce5acb97489d65b14ecc7a,64cf4becd461555f56cbd567,,,,,,,ctch,resources/DP.BMP,resources/DR.BMP,Door4,-0.183318075,-0.025515238,1,0,0,0.9475,optionLeft,80,8230,4,15,0,15,0,1,,,,,,,,,,,,,,,,,,,,,,,,,,,,,,,,,,,,,,,
,,,,,,,,2023-08-06_08h32.47.720,HF_wild_card,2022.2.4,MacIntel,59.94125757,5bbc3d95f1f9ba000141d855,64ce5acb97489d65b14ecc7a,64cf4becd461555f56cbd567,,,,,,,decisionTrl,resources/DG.BMP,resources/DB.BMP,WildCard_Ex,-0.170645029,-0.057068775,1,0,0,1.0672,optionLeft,5,8235,4,16,0,16,0,1,,,,,,,,,,,,,,,,,,,,,,,,,,,,,,,,,,,,,,,
,,,,,,,,2023-08-06_08h32.47.720,HF_wild_card,2022.2.4,MacIntel,59.94125757,5bbc3d95f1f9ba000141d855,64ce5acb97489d65b14ecc7a,64cf4becd461555f56cbd567,,,,,,,decisionTrl,resources/DB.BMP,resources/DR.BMP,Door1,0.171586891,-0.022157966,1,0,0,2.2001,optionRight,30,8265,4,17,0,17,0,1,,,,,,,,,,,,,,,,,,,,,,,,,,,,,,,,,,,,,,,
,,,,,,,,2023-08-06_08h32.47.720,HF_wild_card,2022.2.4,MacIntel,59.94125757,5bbc3d95f1f9ba000141d855,64ce5acb97489d65b14ecc7a,64cf4becd461555f56cbd567,,,,,,,sngl,resources/DG.BMP,resources/Empty.png,WildCard_Ex,-0.174166305,-0.02542069,1,0,0,1.2991,optionLeft,5,8270,4,18,0,18,0,1,,,,,,,,,,,,,,,,,,,,,,,,,,,,,,,,,,,,,,,
,,,,,,,,2023-08-06_08h32.47.720,HF_wild_card,2022.2.4,MacIntel,59.94125757,5bbc3d95f1f9ba000141d855,64ce5acb97489d65b14ecc7a,64cf4becd461555f56cbd567,,,,,,,ctch,resources/DB.BMP,resources/DY.BMP,Door3,0.208947528,-0.010555183,1,0,0,0.8142,optionRight,70,8340,4,19,0,19,0,1,,,,,,,,,,,,,,,,,,,,,,,,,,,,,,,,,,,,,,,
,,,,,,,,2023-08-06_08h32.47.720,HF_wild_card,2022.2.4,MacIntel,59.94125757,5bbc3d95f1f9ba000141d855,64ce5acb97489d65b14ecc7a,64cf4becd461555f56cbd567,,,,,,,decisionTrl,resources/DG.BMP,resources/DY.BMP,Door3,0.232558865,-0.011078389,1,0,0,0.8659,optionRight,70,8410,4,20,0,20,0,1,,,,,,,,,,,,,,,,,,,,,,,,,,,,,,,,,,,,,,,
,,,,,,,,2023-08-06_08h32.47.720,HF_wild_card,2022.2.4,MacIntel,59.94125757,5bbc3d95f1f9ba000141d855,64ce5acb97489d65b14ecc7a,64cf4becd461555f56cbd567,,,,,,,decisionTrl,resources/DG.BMP,resources/DR.BMP,Door1,0.186659975,-0.007949264,1,0,0,0.8963,optionRight,30,8440,4,21,0,21,0,1,,,,,,,,,,,,,,,,,,,,,,,,,,,,,,,,,,,,,,,
,,,,,,,,2023-08-06_08h32.47.720,HF_wild_card,2022.2.4,MacIntel,59.94125757,5bbc3d95f1f9ba000141d855,64ce5acb97489d65b14ecc7a,64cf4becd461555f56cbd567,,,,,,,sngl,resources/DY.BMP,resources/Empty.png,Door3,-0.141720864,-0.039421647,1,0,0,0.7348,optionLeft,70,8510,4,22,0,22,0,1,,,,,,,,,,,,,,,,,,,,,,,,,,,,,,,,,,,,,,,
,,,,,,,,2023-08-06_08h32.47.720,HF_wild_card,2022.2.4,MacIntel,59.94125757,5bbc3d95f1f9ba000141d855,64ce5acb97489d65b14ecc7a,64cf4becd461555f56cbd567,,,,,,,decisionTrl,resources/DY.BMP,resources/DP.BMP,Door4,0.132405147,-0.025987074,1,0,0,0.9805,optionRight,80,8590,4,23,0,23,0,1,,,,,,,,,,,,,,,,,,,,,,,,,,,,,,,,,,,,,,,
,,,,,,,,2023-08-06_08h32.47.720,HF_wild_card,2022.2.4,MacIntel,59.94125757,5bbc3d95f1f9ba000141d855,64ce5acb97489d65b14ecc7a,64cf4becd461555f56cbd567,,,,,,,decisionTrl,resources/DY.BMP,resources/DP.BMP,Door4,0.19055707,-0.016005566,1,0,0,0.7812,optionRight,80,8670,4,24,0,24,0,1,,,,,,,,,,,,,,,,,,,,,,,,,,,,,,,,,,,,,,,
,,,,,,,,2023-08-06_08h32.47.720,HF_wild_card,2022.2.4,MacIntel,59.94125757,5bbc3d95f1f9ba000141d855,64ce5acb97489d65b14ecc7a,64cf4becd461555f56cbd567,,,,,,,decisionTrl,resources/DB.BMP,resources/DG.BMP,WildCard_Ex,0.178304941,0.001394597,1,0,0,2.1635,optionRight,5,8675,4,25,0,25,0,1,,,,,,,,,,,,,,,,,,,,,,,,,,,,,,,,,,,,,,,
,,,,,,,,2023-08-06_08h32.47.720,HF_wild_card,2022.2.4,MacIntel,59.94125757,5bbc3d95f1f9ba000141d855,64ce5acb97489d65b14ecc7a,64cf4becd461555f56cbd567,,,,,,,decisionTrl,resources/DP.BMP,resources/DY.BMP,Door4,-0.149073283,-0.021207682,1,0,0,2.329,optionLeft,80,8755,4,26,0,26,0,1,,,,,,,,,,,,,,,,,,,,,,,,,,,,,,,,,,,,,,,
,,,,,,,,2023-08-06_08h32.47.720,HF_wild_card,2022.2.4,MacIntel,59.94125757,5bbc3d95f1f9ba000141d855,64ce5acb97489d65b14ecc7a,64cf4becd461555f56cbd567,,,,,,,decisionTrl,resources/DB.BMP,resources/DR.BMP,Door1,0.170848931,-0.025158239,1,0,0,1.8296,optionRight,30,8785,4,27,0,27,0,1,,,,,,,,,,,,,,,,,,,,,,,,,,,,,,,,,,,,,,,
,,,,,,,,2023-08-06_08h32.47.720,HF_wild_card,2022.2.4,MacIntel,59.94125757,5bbc3d95f1f9ba000141d855,64ce5acb97489d65b14ecc7a,64cf4becd461555f56cbd567,,,,,,,decisionTrl,resources/DP.BMP,resources/DG.BMP,Door4,-0.174852837,-0.052719173,1,0,0,1.131,optionLeft,80,8865,4,28,0,28,0,1,,,,,,,,,,,,,,,,,,,,,,,,,,,,,,,,,,,,,,,
,,,,,,,,2023-08-06_08h32.47.720,HF_wild_card,2022.2.4,MacIntel,59.94125757,5bbc3d95f1f9ba000141d855,64ce5acb97489d65b14ecc7a,64cf4becd461555f56cbd567,,,,,,,decisionTrl,resources/DB.BMP,resources/DR.BMP,Door1,0.147526042,-0.002734658,1,0,0,1.1512,optionRight,30,8895,4,29,0,29,0,1,,,,,,,,,,,,,,,,,,,,,,,,,,,,,,,,,,,,,,,
,,,,,,,,2023-08-06_08h32.47.720,HF_wild_card,2022.2.4,MacIntel,59.94125757,5bbc3d95f1f9ba000141d855,64ce5acb97489d65b14ecc7a,64cf4becd461555f56cbd567,,,,,,,decisionTrl,resources/DR.BMP,resources/DB.BMP,Door1,-0.141113281,-0.039252839,1,0,0,1.5912,optionLeft,30,8925,4,30,0,30,0,1,,,,,,,,,,,,,,,,,,,,,,,,,,,,,,,,,,,,,,,
,,,,,,,,2023-08-06_08h32.47.720,HF_wild_card,2022.2.4,MacIntel,59.94125757,5bbc3d95f1f9ba000141d855,64ce5acb97489d65b14ecc7a,64cf4becd461555f56cbd567,,,,,,,sngl,resources/Empty.png,resources/DP.BMP,Door4,0.156246157,0.009472882,1,0,0,0.7991,optionRight,80,9005,4,31,0,31,0,1,,,,,,,,,,,,,,,,,,,,,,,,,,,,,,,,,,,,,,,
,,,,,,,,2023-08-06_08h32.47.720,HF_wild_card,2022.2.4,MacIntel,59.94125757,5bbc3d95f1f9ba000141d855,64ce5acb97489d65b14ecc7a,64cf4becd461555f56cbd567,,,,,,,decisionTrl,resources/DY.BMP,resources/DG.BMP,Door3,-0.112071002,-0.013919406,1,0,0,1.6804,optionLeft,70,9075,4,32,0,32,0,1,,,,,,,,,,,,,,,,,,,,,,,,,,,,,,,,,,,,,,,
,,,,,,,,2023-08-06_08h32.47.720,HF_wild_card,2022.2.4,MacIntel,59.94125757,5bbc3d95f1f9ba000141d855,64ce5acb97489d65b14ecc7a,64cf4becd461555f56cbd567,,,,,,,decisionTrl,resources/DR.BMP,resources/DB.BMP,Door1,-0.117671599,-0.022647603,1,0,0,1.187,optionLeft,30,9105,4,33,0,33,0,1,,,,,,,,,,,,,,,,,,,,,,,,,,,,,,,,,,,,,,,
,,,,,,,,2023-08-06_08h32.47.720,HF_wild_card,2022.2.4,MacIntel,59.94125757,5bbc3d95f1f9ba000141d855,64ce5acb97489d65b14ecc7a,64cf4becd461555f56cbd567,,,,,,,decisionTrl,resources/DP.BMP,resources/DY.BMP,Door3,0.151755665,0.011663536,1,0,0,2.0164,optionRight,70,9175,4,34,0,34,0,1,,,,,,,,,,,,,,,,,,,,,,,,,,,,,,,,,,,,,,,
,,,,,,,,2023-08-06_08h32.47.720,HF_wild_card,2022.2.4,MacIntel,59.94125757,5bbc3d95f1f9ba000141d855,64ce5acb97489d65b14ecc7a,64cf4becd461555f56cbd567,,,,,,,decisionTrl,resources/DR.BMP,resources/DG.BMP,Door1,-0.122651559,0.006233441,1,0,0,1.5662,optionLeft,30,9205,4,35,0,35,0,1,,,,,,,,,,,,,,,,,,,,,,,,,,,,,,,,,,,,,,,
,,,,,,,,2023-08-06_08h32.47.720,HF_wild_card,2022.2.4,MacIntel,59.94125757,5bbc3d95f1f9ba000141d855,64ce5acb97489d65b14ecc7a,64cf4becd461555f56cbd567,,,,,,,decisionTrl,resources/DP.BMP,resources/DY.BMP,Door4,-0.099161558,0.011640309,1,0,0,1.5352,optionLeft,60,9265,4,36,0,36,0,1,,,,,,,,,,,,,,,,,,,,,,,,,,,,,,,,,,,,,,,
,,,,,,,,2023-08-06_08h32.47.720,HF_wild_card,2022.2.4,MacIntel,59.94125757,5bbc3d95f1f9ba000141d855,64ce5acb97489d65b14ecc7a,64cf4becd461555f56cbd567,,,,,,,sngl,resources/DR.BMP,resources/Empty.png,Door1,-0.120762804,-0.011660823,1,0,0,0.9467,optionLeft,30,9295,4,37,0,37,0,1,,,,,,,,,,,,,,,,,,,,,,,,,,,,,,,,,,,,,,,
,,,,,,,,2023-08-06_08h32.47.720,HF_wild_card,2022.2.4,MacIntel,59.94125757,5bbc3d95f1f9ba000141d855,64ce5acb97489d65b14ecc7a,64cf4becd461555f56cbd567,,,,,,,ctch,resources/DP.BMP,resources/DR.BMP,Door4,-0.125012264,-0.007542815,1,0,0,1.1978,optionLeft,60,9355,4,38,0,38,0,1,,,,,,,,,,,,,,,,,,,,,,,,,,,,,,,,,,,,,,,
,,,,,,,,2023-08-06_08h32.47.720,HF_wild_card,2022.2.4,MacIntel,59.94125757,5bbc3d95f1f9ba000141d855,64ce5acb97489d65b14ecc7a,64cf4becd461555f56cbd567,,,,,,,sngl,resources/DG.BMP,resources/Empty.png,WildCard_Ex,-0.155512548,-0.005991279,1,0,0,1.0332,optionLeft,95,9450,4,39,0,39,0,1,,,,,,,,,,,,,,,,,,,,,,,,,,,,,,,,,,,,,,,
,,,,,,,,2023-08-06_08h32.47.720,HF_wild_card,2022.2.4,MacIntel,59.94125757,5bbc3d95f1f9ba000141d855,64ce5acb97489d65b14ecc7a,64cf4becd461555f56cbd567,,,,,,,sngl,resources/DB.BMP,resources/Empty.png,Door2,-0.191780882,-0.020696174,1,0,0,1.0294,optionLeft,20,9470,4,40,0,40,0,1,,,,,,,,,,,,,,,,,,,,,,,,,,,,,,,,,,,,,,,
,,,,,,,,2023-08-06_08h32.47.720,HF_wild_card,2022.2.4,MacIntel,59.94125757,5bbc3d95f1f9ba000141d855,64ce5acb97489d65b14ecc7a,64cf4becd461555f56cbd567,,,,,,,decisionTrl,resources/DP.BMP,resources/DY.BMP,Door4,-0.168066011,-0.025664775,1,0,0,1.5311,optionLeft,80,9550,4,41,0,41,0,1,,,,,,,,,,,,,,,,,,,,,,,,,,,,,,,,,,,,,,,
,,,,,,,,2023-08-06_08h32.47.720,HF_wild_card,2022.2.4,MacIntel,59.94125757,5bbc3d95f1f9ba000141d855,64ce5acb97489d65b14ecc7a,64cf4becd461555f56cbd567,,,,,,,ctch,resources/DY.BMP,resources/DB.BMP,Door3,-0.149084529,-0.035845721,1,0,0,1.1322,optionLeft,70,9620,4,42,0,42,0,1,,,,,,,,,,,,,,,,,,,,,,,,,,,,,,,,,,,,,,,
,,,,,,,,2023-08-06_08h32.47.720,HF_wild_card,2022.2.4,MacIntel,59.94125757,5bbc3d95f1f9ba000141d855,64ce5acb97489d65b14ecc7a,64cf4becd461555f56cbd567,,,,,,,ctch,resources/DB.BMP,resources/DY.BMP,Door3,0.211002378,-0.020474582,1,0,0,0.9782,optionRight,70,9690,4,43,0,43,0,1,,,,,,,,,,,,,,,,,,,,,,,,,,,,,,,,,,,,,,,
,,,,,,,,2023-08-06_08h32.47.720,HF_wild_card,2022.2.4,MacIntel,59.94125757,5bbc3d95f1f9ba000141d855,64ce5acb97489d65b14ecc7a,64cf4becd461555f56cbd567,,,,,,,,,,,,,,,,,,,,,,,,,,3,0,3,0,1,,,,,,,,,,,,,,,,,,,,,,,,,,,,,,,,,,
,,,,,,,,2023-08-06_08h32.47.720,HF_wild_card,2022.2.4,MacIntel,59.94125757,5bbc3d95f1f9ba000141d855,64ce5acb97489d65b14ecc7a,64cf4becd461555f56cbd567,,,,,,,ctch,resources/DB.BMP,resources/DY.BMP,Door3,0.210347946,-0.112598787,1,0,0,1.0346,optionRight,70,9760,5,0,0,0,0,1,,,,,,,,,,,,,,,,,,,,,,,,,,,,,,,,,,,,,,,
,,,,,,,,2023-08-06_08h32.47.720,HF_wild_card,2022.2.4,MacIntel,59.94125757,5bbc3d95f1f9ba000141d855,64ce5acb97489d65b14ecc7a,64cf4becd461555f56cbd567,,,,,,,sngl,resources/DP.BMP,resources/Empty.png,Door4,-0.149234122,-0.043132867,1,0,0,0.8297,optionLeft,80,9840,5,1,0,1,0,1,,,,,,,,,,,,,,,,,,,,,,,,,,,,,,,,,,,,,,,
,,,,,,,,2023-08-06_08h32.47.720,HF_wild_card,2022.2.4,MacIntel,59.94125757,5bbc3d95f1f9ba000141d855,64ce5acb97489d65b14ecc7a,64cf4becd461555f56cbd567,,,,,,,decisionTrl,resources/DR.BMP,resources/DB.BMP,Door1,-0.153261312,-0.015743566,1,0,0,1.1472,optionLeft,30,9870,5,2,0,2,0,1,,,,,,,,,,,,,,,,,,,,,,,,,,,,,,,,,,,,,,,
,,,,,,,,2023-08-06_08h32.47.720,HF_wild_card,2022.2.4,MacIntel,59.94125757,5bbc3d95f1f9ba000141d855,64ce5acb97489d65b14ecc7a,64cf4becd461555f56cbd567,,,,,,,sngl,resources/Empty.png,resources/DP.BMP,Door4,0.158813816,-0.003744789,1,0,0,0.8312,optionRight,60,9930,5,3,0,3,0,1,,,,,,,,,,,,,,,,,,,,,,,,,,,,,,,,,,,,,,,
,,,,,,,,2023-08-06_08h32.47.720,HF_wild_card,2022.2.4,MacIntel,59.94125757,5bbc3d95f1f9ba000141d855,64ce5acb97489d65b14ecc7a,64cf4becd461555f56cbd567,,,,,,,decisionTrl,resources/DR.BMP,resources/DB.BMP,Door1,-0.126299936,-0.010452271,1,0,0,1.1505,optionLeft,30,9960,5,4,0,4,0,1,,,,,,,,,,,,,,,,,,,,,,,,,,,,,,,,,,,,,,,
,,,,,,,,2023-08-06_08h32.47.720,HF_wild_card,2022.2.4,MacIntel,59.94125757,5bbc3d95f1f9ba000141d855,64ce5acb97489d65b14ecc7a,64cf4becd461555f56cbd567,,,,,,,decisionTrl,resources/DP.BMP,resources/DG.BMP,Door4,-0.163600385,-0.044168204,1,0,0,1.0709,optionLeft,60,10020,5,5,0,5,0,1,,,,,,,,,,,,,,,,,,,,,,,,,,,,,,,,,,,,,,,
,,,,,,,,2023-08-06_08h32.47.720,HF_wild_card,2022.2.4,MacIntel,59.94125757,5bbc3d95f1f9ba000141d855,64ce5acb97489d65b14ecc7a,64cf4becd461555f56cbd567,,,,,,,decisionTrl,resources/DR.BMP,resources/DB.BMP,Door1,-0.108724354,-0.014011411,1,0,0,0.9643,optionLeft,30,10050,5,6,0,6,0,1,,,,,,,,,,,,,,,,,,,,,,,,,,,,,,,,,,,,,,,
,,,,,,,,2023-08-06_08h32.47.720,HF_wild_card,2022.2.4,MacIntel,59.94125757,5bbc3d95f1f9ba000141d855,64ce5acb97489d65b14ecc7a,64cf4becd461555f56cbd567,,,,,,,decisionTrl,resources/DB.BMP,resources/DG.BMP,WildCard_Ex,0.113703297,0.007338743,1,0,0,1.5153,optionRight,5,10055,5,7,0,7,0,1,,,,,,,,,,,,,,,,,,,,,,,,,,,,,,,,,,,,,,,
,,,,,,,,2023-08-06_08h32.47.720,HF_wild_card,2022.2.4,MacIntel,59.94125757,5bbc3d95f1f9ba000141d855,64ce5acb97489d65b14ecc7a,64cf4becd461555f56cbd567,,,,,,,decisionTrl,resources/DP.BMP,resources/DY.BMP,Door3,0.183926618,0.01543014,1,0,0,1.2316,optionRight,70,10125,5,8,0,8,0,1,,,,,,,,,,,,,,,,,,,,,,,,,,,,,,,,,,,,,,,
,,,,,,,,2023-08-06_08h32.47.720,HF_wild_card,2022.2.4,MacIntel,59.94125757,5bbc3d95f1f9ba000141d855,64ce5acb97489d65b14ecc7a,64cf4becd461555f56cbd567,,,,,,,sngl,resources/DB.BMP,resources/Empty.png,Door2,-0.142399993,-0.004001759,1,0,0,0.9617,optionLeft,40,10165,5,9,0,9,0,1,,,,,,,,,,,,,,,,,,,,,,,,,,,,,,,,,,,,,,,
,,,,,,,,2023-08-06_08h32.47.720,HF_wild_card,2022.2.4,MacIntel,59.94125757,5bbc3d95f1f9ba000141d855,64ce5acb97489d65b14ecc7a,64cf4becd461555f56cbd567,,,,,,,decisionTrl,resources/DG.BMP,resources/DB.BMP,WildCard_Ex,-0.149707144,-0.013969873,1,0,0,2.6155,optionLeft,5,10170,5,10,0,10,0,1,,,,,,,,,,,,,,,,,,,,,,,,,,,,,,,,,,,,,,,
,,,,,,,,2023-08-06_08h32.47.720,HF_wild_card,2022.2.4,MacIntel,59.94125757,5bbc3d95f1f9ba000141d855,64ce5acb97489d65b14ecc7a,64cf4becd461555f56cbd567,,,,,,,sngl,resources/DR.BMP,resources/Empty.png,Door1,-0.131901607,-0.015096255,1,0,0,0.9312,optionLeft,30,10200,5,11,0,11,0,1,,,,,,,,,,,,,,,,,,,,,,,,,,,,,,,,,,,,,,,
,,,,,,,,2023-08-06_08h32.47.720,HF_wild_card,2022.2.4,MacIntel,59.94125757,5bbc3d95f1f9ba000141d855,64ce5acb97489d65b14ecc7a,64cf4becd461555f56cbd567,,,,,,,decisionTrl,resources/DY.BMP,resources/DP.BMP,Door4,0.159920926,-0.009035464,1,0,0,1.6734,optionRight,80,10280,5,12,0,12,0,1,,,,,,,,,,,,,,,,,,,,,,,,,,,,,,,,,,,,,,,
,,,,,,,,2023-08-06_08h32.47.720,HF_wild_card,2022.2.4,MacIntel,59.94125757,5bbc3d95f1f9ba000141d855,64ce5acb97489d65b14ecc7a,64cf4becd461555f56cbd567,,,,,,,decisionTrl,resources/DB.BMP,resources/DR.BMP,Door1,0.158510222,-0.013276333,1,0,0,1.3474,optionRight,30,10310,5,13,0,13,0,1,,,,,,,,,,,,,,,,,,,,,,,,,,,,,,,,,,,,,,,
,,,,,,,,2023-08-06_08h32.47.720,HF_wild_card,2022.2.4,MacIntel,59.94125757,5bbc3d95f1f9ba000141d855,64ce5acb97489d65b14ecc7a,64cf4becd461555f56cbd567,,,,,,,decisionTrl,resources/DY.BMP,resources/DP.BMP,Door4,0.102917028,-0.010610623,1,0,0,1.1471,optionRight,80,10390,5,14,0,14,0,1,,,,,,,,,,,,,,,,,,,,,,,,,,,,,,,,,,,,,,,
,,,,,,,,2023-08-06_08h32.47.720,HF_wild_card,2022.2.4,MacIntel,59.94125757,5bbc3d95f1f9ba000141d855,64ce5acb97489d65b14ecc7a,64cf4becd461555f56cbd567,,,,,,,sngl,resources/Empty.png,resources/DG.BMP,WildCard_Ex,0.137864968,0.007714844,1,0,0,0.848,optionRight,95,10485,5,15,0,15,0,1,,,,,,,,,,,,,,,,,,,,,,,,,,,,,,,,,,,,,,,
,,,,,,,,2023-08-06_08h32.47.720,HF_wild_card,2022.2.4,MacIntel,59.94125757,5bbc3d95f1f9ba000141d855,64ce5acb97489d65b14ecc7a,64cf4becd461555f56cbd567,,,,,,,decisionTrl,resources/DP.BMP,resources/DY.BMP,Door4,-0.146261936,-0.018128572,1,0,0,1.9462,optionLeft,80,10565,5,16,0,16,0,1,,,,,,,,,,,,,,,,,,,,,,,,,,,,,,,,,,,,,,,
,,,,,,,,2023-08-06_08h32.47.720,HF_wild_card,2022.2.4,MacIntel,59.94125757,5bbc3d95f1f9ba000141d855,64ce5acb97489d65b14ecc7a,64cf4becd461555f56cbd567,,,,,,,ctch,resources/DY.BMP,resources/DB.BMP,Door3,-0.149554613,-0.039700374,1,0,0,1.7987,optionLeft,70,10635,5,17,0,17,0,1,,,,,,,,,,,,,,,,,,,,,,,,,,,,,,,,,,,,,,,
,,,,,,,,2023-08-06_08h32.47.720,HF_wild_card,2022.2.4,MacIntel,59.94125757,5bbc3d95f1f9ba000141d855,64ce5acb97489d65b14ecc7a,64cf4becd461555f56cbd567,,,,,,,decisionTrl,resources/DB.BMP,resources/DR.BMP,Door1,0.159428349,-0.022401767,1,0,0,1.0653,optionRight,30,10665,5,18,0,18,0,1,,,,,,,,,,,,,,,,,,,,,,,,,,,,,,,,,,,,,,,
,,,,,,,,2023-08-06_08h32.47.720,HF_wild_card,2022.2.4,MacIntel,59.94125757,5bbc3d95f1f9ba000141d855,64ce5acb97489d65b14ecc7a,64cf4becd461555f56cbd567,,,,,,,sngl,resources/DG.BMP,resources/Empty.png,WildCard_Ex,-0.131281648,-0.040324232,1,0,0,0.8297,optionLeft,5,10670,5,19,0,19,0,1,,,,,,,,,,,,,,,,,,,,,,,,,,,,,,,,,,,,,,,
,,,,,,,,2023-08-06_08h32.47.720,HF_wild_card,2022.2.4,MacIntel,59.94125757,5bbc3d95f1f9ba000141d855,64ce5acb97489d65b14ecc7a,64cf4becd461555f56cbd567,,,,,,,decisionTrl,resources/DP.BMP,resources/DY.BMP,Door4,-0.208651959,-0.027074291,1,0,0,1.582,optionLeft,80,10750,5,20,0,20,0,1,,,,,,,,,,,,,,,,,,,,,,,,,,,,,,,,,,,,,,,
,,,,,,,,2023-08-06_08h32.47.720,HF_wild_card,2022.2.4,MacIntel,59.94125757,5bbc3d95f1f9ba000141d855,64ce5acb97489d65b14ecc7a,64cf4becd461555f56cbd567,,,,,,,decisionTrl,resources/DB.BMP,resources/DR.BMP,Door1,0.15099736,-0.011218036,1,0,0,1.4159,optionRight,30,10780,5,21,0,21,0,1,,,,,,,,,,,,,,,,,,,,,,,,,,,,,,,,,,,,,,,
,,,,,,,,2023-08-06_08h32.47.720,HF_wild_card,2022.2.4,MacIntel,59.94125757,5bbc3d95f1f9ba000141d855,64ce5acb97489d65b14ecc7a,64cf4becd461555f56cbd567,,,,,,,decisionTrl,resources/DG.BMP,resources/DP.BMP,Door4,0.152518944,-0.016760367,1,0,0,1.2119,optionRight,60,10840,5,22,0,22,0,1,,,,,,,,,,,,,,,,,,,,,,,,,,,,,,,,,,,,,,,
,,,,,,,,2023-08-06_08h32.47.720,HF_wild_card,2022.2.4,MacIntel,59.94125757,5bbc3d95f1f9ba000141d855,64ce5acb97489d65b14ecc7a,64cf4becd461555f56cbd567,,,,,,,ctch,resources/DP.BMP,resources/DR.BMP,Door4,-0.173699951,-0.038689281,1,0,0,1.2146,optionLeft,60,10900,5,23,0,23,0,1,,,,,,,,,,,,,,,,,,,,,,,,,,,,,,,,,,,,,,,
,,,,,,,,2023-08-06_08h32.47.720,HF_wild_card,2022.2.4,MacIntel,59.94125757,5bbc3d95f1f9ba000141d855,64ce5acb97489d65b14ecc7a,64cf4becd461555f56cbd567,,,,,,,decisionTrl,resources/DG.BMP,resources/DR.BMP,WildCard_Ex,-0.171239217,0.00294359,1,0,0,3.1526,optionLeft,5,10905,5,24,0,24,0,1,,,,,,,,,,,,,,,,,,,,,,,,,,,,,,,,,,,,,,,
,,,,,,,,2023-08-06_08h32.47.720,HF_wild_card,2022.2.4,MacIntel,59.94125757,5bbc3d95f1f9ba000141d855,64ce5acb97489d65b14ecc7a,64cf4becd461555f56cbd567,,,,,,,decisionTrl,resources/DB.BMP,resources/DR.BMP,Door1,0.241242133,0.004323663,1,0,0,0.9951,optionRight,30,10935,5,25,0,25,0,1,,,,,,,,,,,,,,,,,,,,,,,,,,,,,,,,,,,,,,,
,,,,,,,,2023-08-06_08h32.47.720,HF_wild_card,2022.2.4,MacIntel,59.94125757,5bbc3d95f1f9ba000141d855,64ce5acb97489d65b14ecc7a,64cf4becd461555f56cbd567,,,,,,,decisionTrl,resources/DR.BMP,resources/DB.BMP,Door1,-0.152028571,-0.02777936,1,0,0,1.2979,optionLeft,30,10965,5,26,0,26,0,1,,,,,,,,,,,,,,,,,,,,,,,,,,,,,,,,,,,,,,,
,,,,,,,,2023-08-06_08h32.47.720,HF_wild_card,2022.2.4,MacIntel,59.94125757,5bbc3d95f1f9ba000141d855,64ce5acb97489d65b14ecc7a,64cf4becd461555f56cbd567,,,,,,,ctch,resources/DR.BMP,resources/DP.BMP,Door4,0.194917354,0.002869783,1,0,0,1.0989,optionRight,80,11045,5,27,0,27,0,1,,,,,,,,,,,,,,,,,,,,,,,,,,,,,,,,,,,,,,,
,,,,,,,,2023-08-06_08h32.47.720,HF_wild_card,2022.2.4,MacIntel,59.94125757,5bbc3d95f1f9ba000141d855,64ce5acb97489d65b14ecc7a,64cf4becd461555f56cbd567,,,,,,,decisionTrl,resources/DG.BMP,resources/DY.BMP,Door3,0.134441687,0.010317654,1,0,0,1.4047,optionRight,70,11115,5,28,0,28,0,1,,,,,,,,,,,,,,,,,,,,,,,,,,,,,,,,,,,,,,,
,,,,,,,,2023-08-06_08h32.47.720,HF_wild_card,2022.2.4,MacIntel,59.94125757,5bbc3d95f1f9ba000141d855,64ce5acb97489d65b14ecc7a,64cf4becd461555f56cbd567,,,,,,,decisionTrl,resources/DY.BMP,resources/DP.BMP,Door4,0.145708324,-0.005676778,1,0,0,1.0132,optionRight,80,11195,5,29,0,29,0,1,,,,,,,,,,,,,,,,,,,,,,,,,,,,,,,,,,,,,,,
,,,,,,,,2023-08-06_08h32.47.720,HF_wild_card,2022.2.4,MacIntel,59.94125757,5bbc3d95f1f9ba000141d855,64ce5acb97489d65b14ecc7a,64cf4becd461555f56cbd567,,,,,,,sngl,resources/Empty.png,resources/DB.BMP,Door2,0.162271683,0.015067546,1,0,0,1.0845,optionRight,20,11215,5,30,0,30,0,1,,,,,,,,,,,,,,,,,,,,,,,,,,,,,,,,,,,,,,,
,,,,,,,,2023-08-06_08h32.47.720,HF_wild_card,2022.2.4,MacIntel,59.94125757,5bbc3d95f1f9ba000141d855,64ce5acb97489d65b14ecc7a,64cf4becd461555f56cbd567,,,,,,,sngl,resources/DY.BMP,resources/Empty.png,Door3,-0.140544185,-0.014248262,1,0,0,0.7809,optionLeft,70,11285,5,31,0,31,0,1,,,,,,,,,,,,,,,,,,,,,,,,,,,,,,,,,,,,,,,
,,,,,,,,2023-08-06_08h32.47.720,HF_wild_card,2022.2.4,MacIntel,59.94125757,5bbc3d95f1f9ba000141d855,64ce5acb97489d65b14ecc7a,64cf4becd461555f56cbd567,,,,,,,sngl,resources/Empty.png,resources/DY.BMP,Door3,0.118310434,-0.002117694,1,0,0,0.7988,optionRight,70,11355,5,32,0,32,0,1,,,,,,,,,,,,,,,,,,,,,,,,,,,,,,,,,,,,,,,
,,,,,,,,2023-08-06_08h32.47.720,HF_wild_card,2022.2.4,MacIntel,59.94125757,5bbc3d95f1f9ba000141d855,64ce5acb97489d65b14ecc7a,64cf4becd461555f56cbd567,,,,,,,ctch,resources/DP.BMP,resources/DR.BMP,Door4,-0.154778488,-0.023240096,1,0,0,1.0474,optionLeft,60,11415,5,33,0,33,0,1,,,,,,,,,,,,,,,,,,,,,,,,,,,,,,,,,,,,,,,
,,,,,,,,2023-08-06_08h32.47.720,HF_wild_card,2022.2.4,MacIntel,59.94125757,5bbc3d95f1f9ba000141d855,64ce5acb97489d65b14ecc7a,64cf4becd461555f56cbd567,,,,,,,ctch,resources/DR.BMP,resources/DP.BMP,Door4,0.191535102,0.004361753,1,0,0,0.9487,optionRight,80,11495,5,34,0,34,0,1,,,,,,,,,,,,,,,,,,,,,,,,,,,,,,,,,,,,,,,
,,,,,,,,2023-08-06_08h32.47.720,HF_wild_card,2022.2.4,MacIntel,59.94125757,5bbc3d95f1f9ba000141d855,64ce5acb97489d65b14ecc7a,64cf4becd461555f56cbd567,,,,,,,decisionTrl,resources/DP.BMP,resources/DY.BMP,Door4,-0.187169619,-0.024321379,1,0,0,1.517,optionLeft,60,11555,5,35,0,35,0,1,,,,,,,,,,,,,,,,,,,,,,,,,,,,,,,,,,,,,,,
,,,,,,,,2023-08-06_08h32.47.720,HF_wild_card,2022.2.4,MacIntel,59.94125757,5bbc3d95f1f9ba000141d855,64ce5acb97489d65b14ecc7a,64cf4becd461555f56cbd567,,,,,,,decisionTrl,resources/DR.BMP,resources/DG.BMP,WildCard_Ex,0.148254168,0.004791203,1,0,0,1.5167,optionRight,5,11560,5,36,0,36,0,1,,,,,,,,,,,,,,,,,,,,,,,,,,,,,,,,,,,,,,,
,,,,,,,,2023-08-06_08h32.47.720,HF_wild_card,2022.2.4,MacIntel,59.94125757,5bbc3d95f1f9ba000141d855,64ce5acb97489d65b14ecc7a,64cf4becd461555f56cbd567,,,,,,,ctch,resources/DY.BMP,resources/DB.BMP,Door3,-0.150516538,-0.031059548,1,0,0,0.9145,optionLeft,70,11630,5,37,0,37,0,1,,,,,,,,,,,,,,,,,,,,,,,,,,,,,,,,,,,,,,,
,,,,,,,,2023-08-06_08h32.47.720,HF_wild_card,2022.2.4,MacIntel,59.94125757,5bbc3d95f1f9ba000141d855,64ce5acb97489d65b14ecc7a,64cf4becd461555f56cbd567,,,,,,,sngl,resources/DG.BMP,resources/Empty.png,WildCard_Ex,-0.115916951,-0.033291739,1,0,0,0.7971,optionLeft,95,11725,5,38,0,38,0,1,,,,,,,,,,,,,,,,,,,,,,,,,,,,,,,,,,,,,,,
,,,,,,,,2023-08-06_08h32.47.720,HF_wild_card,2022.2.4,MacIntel,59.94125757,5bbc3d95f1f9ba000141d855,64ce5acb97489d65b14ecc7a,64cf4becd461555f56cbd567,,,,,,,ctch,resources/DB.BMP,resources/DY.BMP,Door3,0.155691528,-0.015588831,1,0,0,0.9218,optionRight,70,11795,5,39,0,39,0,1,,,,,,,,,,,,,,,,,,,,,,,,,,,,,,,,,,,,,,,
,,,,,,,,2023-08-06_08h32.47.720,HF_wild_card,2022.2.4,MacIntel,59.94125757,5bbc3d95f1f9ba000141d855,64ce5acb97489d65b14ecc7a,64cf4becd461555f56cbd567,,,,,,,sngl,resources/Empty.png,resources/DG.BMP,WildCard_Ex,0.16901912,-0.016526455,1,0,0,0.9287,optionRight,5,11800,5,40,0,40,0,1,,,,,,,,,,,,,,,,,,,,,,,,,,,,,,,,,,,,,,,
,,,,,,,,2023-08-06_08h32.47.720,HF_wild_card,2022.2.4,MacIntel,59.94125757,5bbc3d95f1f9ba000141d855,64ce5acb97489d65b14ecc7a,64cf4becd461555f56cbd567,,,,,,,sngl,resources/Empty.png,resources/DR.BMP,Door1,0.14502993,-0.016336851,1,0,0,2.2333,optionRight,30,11830,5,41,0,41,0,1,,,,,,,,,,,,,,,,,,,,,,,,,,,,,,,,,,,,,,,
,,,,,,,,2023-08-06_08h32.47.720,HF_wild_card,2022.2.4,MacIntel,59.94125757,5bbc3d95f1f9ba000141d855,64ce5acb97489d65b14ecc7a,64cf4becd461555f56cbd567,,,,,,,decisionTrl,resources/DY.BMP,resources/DP.BMP,Door3,-0.124659786,-0.030666945,1,0,0,0.9826,optionLeft,70,11900,5,42,0,42,0,1,,,,,,,,,,,,,,,,,,,,,,,,,,,,,,,,,,,,,,,
,,,,,,,,2023-08-06_08h32.47.720,HF_wild_card,2022.2.4,MacIntel,59.94125757,5bbc3d95f1f9ba000141d855,64ce5acb97489d65b14ecc7a,64cf4becd461555f56cbd567,,,,,,,decisionTrl,resources/DY.BMP,resources/DG.BMP,Door3,-0.154078279,-0.051681858,1,0,0,1.2653,optionLeft,70,11970,5,43,0,43,0,1,,,,,,,,,,,,,,,,,,,,,,,,,,,,,,,,,,,,,,,
,,,,,,,,2023-08-06_08h32.47.720,HF_wild_card,2022.2.4,MacIntel,59.94125757,5bbc3d95f1f9ba000141d855,64ce5acb97489d65b14ecc7a,64cf4becd461555f56cbd567,,,,,,,,,,,,,,,,,,,,,,,,,,4,0,4,0,1,,,,,,,,,,,,,,,,,,,,,,,,,,,,,,,,,,
,,,,,,,,2023-08-06_08h32.47.720,HF_wild_card,2022.2.4,MacIntel,59.94125757,5bbc3d95f1f9ba000141d855,64ce5acb97489d65b14ecc7a,64cf4becd461555f56cbd567,,,,,,,sngl,resources/Empty.png,resources/DG.BMP,WildCard_Ex,0.227681704,-0.129315581,1,0,0,0.9004,optionRight,5,11975,6,0,0,0,0,1,,,,,,,,,,,,,,,,,,,,,,,,,,,,,,,,,,,,,,,
,,,,,,,,2023-08-06_08h32.47.720,HF_wild_card,2022.2.4,MacIntel,59.94125757,5bbc3d95f1f9ba000141d855,64ce5acb97489d65b14ecc7a,64cf4becd461555f56cbd567,,,,,,,sngl,resources/Empty.png,resources/DB.BMP,Door2,0.162662308,-0.027137474,1,0,0,1.3464,optionRight,40,12015,6,1,0,1,0,1,,,,,,,,,,,,,,,,,,,,,,,,,,,,,,,,,,,,,,,
,,,,,,,,2023-08-06_08h32.47.720,HF_wild_card,2022.2.4,MacIntel,59.94125757,5bbc3d95f1f9ba000141d855,64ce5acb97489d65b14ecc7a,64cf4becd461555f56cbd567,,,,,,,ctch,resources/DY.BMP,resources/DB.BMP,Door3,-0.178769486,-0.05344843,1,0,0,0.9482,optionLeft,70,12085,6,2,0,2,0,1,,,,,,,,,,,,,,,,,,,,,,,,,,,,,,,,,,,,,,,
,,,,,,,,2023-08-06_08h32.47.720,HF_wild_card,2022.2.4,MacIntel,59.94125757,5bbc3d95f1f9ba000141d855,64ce5acb97489d65b14ecc7a,64cf4becd461555f56cbd567,,,,,,,decisionTrl,resources/DB.BMP,resources/DR.BMP,Door1,0.165841336,-0.000234759,1,0,0,1.1134,optionRight,30,12115,6,3,0,3,0,1,,,,,,,,,,,,,,,,,,,,,,,,,,,,,,,,,,,,,,,
,,,,,,,,2023-08-06_08h32.47.720,HF_wild_card,2022.2.4,MacIntel,59.94125757,5bbc3d95f1f9ba000141d855,64ce5acb97489d65b14ecc7a,64cf4becd461555f56cbd567,,,,,,,decisionTrl,resources/DY.BMP,resources/DG.BMP,Door3,-0.096667989,-0.019644222,1,0,0,0.9893,optionLeft,70,12185,6,4,0,4,0,1,,,,,,,,,,,,,,,,,,,,,,,,,,,,,,,,,,,,,,,
,,,,,,,,2023-08-06_08h32.47.720,HF_wild_card,2022.2.4,MacIntel,59.94125757,5bbc3d95f1f9ba000141d855,64ce5acb97489d65b14ecc7a,64cf4becd461555f56cbd567,,,,,,,decisionTrl,resources/DR.BMP,resources/DG.BMP,Door1,-0.17377065,-0.007356997,1,0,0,1.882,optionLeft,30,12215,6,5,0,5,0,1,,,,,,,,,,,,,,,,,,,,,,,,,,,,,,,,,,,,,,,
,,,,,,,,2023-08-06_08h32.47.720,HF_wild_card,2022.2.4,MacIntel,59.94125757,5bbc3d95f1f9ba000141d855,64ce5acb97489d65b14ecc7a,64cf4becd461555f56cbd567,,,,,,,decisionTrl,resources/DG.BMP,resources/DR.BMP,WildCard_Ex,-0.175450078,0.001067776,1,0,0,2.6335,optionLeft,95,12310,6,6,0,6,0,1,,,,,,,,,,,,,,,,,,,,,,,,,,,,,,,,,,,,,,,
,,,,,,,,2023-08-06_08h32.47.720,HF_wild_card,2022.2.4,MacIntel,59.94125757,5bbc3d95f1f9ba000141d855,64ce5acb97489d65b14ecc7a,64cf4becd461555f56cbd567,,,,,,,decisionTrl,resources/DG.BMP,resources/DP.BMP,Door4,0.202737427,-0.007399043,1,0,0,1.7981,optionRight,80,12390,6,7,0,7,0,1,,,,,,,,,,,,,,,,,,,,,,,,,,,,,,,,,,,,,,,
,,,,,,,,2023-08-06_08h32.47.720,HF_wild_card,2022.2.4,MacIntel,59.94125757,5bbc3d95f1f9ba000141d855,64ce5acb97489d65b14ecc7a,64cf4becd461555f56cbd567,,,,,,,decisionTrl,resources/DY.BMP,resources/DP.BMP,Door4,0.227245303,-0.000178471,1,0,0,1.2659,optionRight,80,12470,6,8,0,8,0,1,,,,,,,,,,,,,,,,,,,,,,,,,,,,,,,,,,,,,,,
,,,,,,,,2023-08-06_08h32.47.720,HF_wild_card,2022.2.4,MacIntel,59.94125757,5bbc3d95f1f9ba000141d855,64ce5acb97489d65b14ecc7a,64cf4becd461555f56cbd567,,,,,,,decisionTrl,resources/DG.BMP,resources/DB.BMP,WildCard_Ex,-0.121872005,-0.000842794,1,0,0,1.9487,optionLeft,5,12475,6,9,0,9,0,1,,,,,,,,,,,,,,,,,,,,,,,,,,,,,,,,,,,,,,,
,,,,,,,,2023-08-06_08h32.47.720,HF_wild_card,2022.2.4,MacIntel,59.94125757,5bbc3d95f1f9ba000141d855,64ce5acb97489d65b14ecc7a,64cf4becd461555f56cbd567,,,,,,,sngl,resources/DB.BMP,resources/Empty.png,Door2,-0.13690502,-0.014624476,1,0,0,0.814,optionLeft,20,12495,6,10,0,10,0,1,,,,,,,,,,,,,,,,,,,,,,,,,,,,,,,,,,,,,,,
,,,,,,,,2023-08-06_08h32.47.720,HF_wild_card,2022.2.4,MacIntel,59.94125757,5bbc3d95f1f9ba000141d855,64ce5acb97489d65b14ecc7a,64cf4becd461555f56cbd567,,,,,,,decisionTrl,resources/DP.BMP,resources/DY.BMP,Door4,-0.214917896,-0.006482499,1,0,0,1.6653,optionLeft,80,12575,6,11,0,11,0,1,,,,,,,,,,,,,,,,,,,,,,,,,,,,,,,,,,,,,,,
,,,,,,,,2023-08-06_08h32.47.720,HF_wild_card,2022.2.4,MacIntel,59.94125757,5bbc3d95f1f9ba000141d855,64ce5acb97489d65b14ecc7a,64cf4becd461555f56cbd567,,,,,,,sngl,resources/DG.BMP,resources/Empty.png,WildCard_Ex,-0.135618987,0.004190855,1,0,0,1.0652,optionLeft,95,12670,6,12,0,12,0,1,,,,,,,,,,,,,,,,,,,,,,,,,,,,,,,,,,,,,,,
,,,,,,,,2023-08-06_08h32.47.720,HF_wild_card,2022.2.4,MacIntel,59.94125757,5bbc3d95f1f9ba000141d855,64ce5acb97489d65b14ecc7a,64cf4becd461555f56cbd567,,,,,,,sngl,resources/Empty.png,resources/DY.BMP,Door3,0.163644296,0.017007898,1,0,0,0.8215,optionRight,70,12740,6,13,0,13,0,1,,,,,,,,,,,,,,,,,,,,,,,,,,,,,,,,,,,,,,,
,,,,,,,,2023-08-06_08h32.47.720,HF_wild_card,2022.2.4,MacIntel,59.94125757,5bbc3d95f1f9ba000141d855,64ce5acb97489d65b14ecc7a,64cf4becd461555f56cbd567,,,,,,,sngl,resources/Empty.png,resources/DR.BMP,Door1,0.23296294,0.012755104,1,0,0,0.7471,optionRight,30,12770,6,14,0,14,0,1,,,,,,,,,,,,,,,,,,,,,,,,,,,,,,,,,,,,,,,
,,,,,,,,2023-08-06_08h32.47.720,HF_wild_card,2022.2.4,MacIntel,59.94125757,5bbc3d95f1f9ba000141d855,64ce5acb97489d65b14ecc7a,64cf4becd461555f56cbd567,,,,,,,ctch,resources/DB.BMP,resources/DY.BMP,Door3,0.221653578,0.000788936,1,0,0,1.0829,optionRight,70,12840,6,15,0,15,0,1,,,,,,,,,,,,,,,,,,,,,,,,,,,,,,,,,,,,,,,
,,,,,,,,2023-08-06_08h32.47.720,HF_wild_card,2022.2.4,MacIntel,59.94125757,5bbc3d95f1f9ba000141d855,64ce5acb97489d65b14ecc7a,64cf4becd461555f56cbd567,,,,,,,decisionTrl,resources/DB.BMP,resources/DR.BMP,Door1,0.211061266,0.004266753,1,0,0,1.1641,optionRight,30,12870,6,16,0,16,0,1,,,,,,,,,,,,,,,,,,,,,,,,,,,,,,,,,,,,,,,
,,,,,,,,2023-08-06_08h32.47.720,HF_wild_card,2022.2.4,MacIntel,59.94125757,5bbc3d95f1f9ba000141d855,64ce5acb97489d65b14ecc7a,64cf4becd461555f56cbd567,,,,,,,decisionTrl,resources/DP.BMP,resources/DY.BMP,Door4,-0.140636811,-0.02843837,1,0,0,1.3964,optionLeft,60,12930,6,17,0,17,0,1,,,,,,,,,,,,,,,,,,,,,,,,,,,,,,,,,,,,,,,
,,,,,,,,2023-08-06_08h32.47.720,HF_wild_card,2022.2.4,MacIntel,59.94125757,5bbc3d95f1f9ba000141d855,64ce5acb97489d65b14ecc7a,64cf4becd461555f56cbd567,,,,,,,ctch,resources/DB.BMP,resources/DY.BMP,Door3,0.179966114,-0.020709455,1,0,0,1.6971,optionRight,70,13000,6,18,0,18,0,1,,,,,,,,,,,,,,,,,,,,,,,,,,,,,,,,,,,,,,,
,,,,,,,,2023-08-06_08h32.47.720,HF_wild_card,2022.2.4,MacIntel,59.94125757,5bbc3d95f1f9ba000141d855,64ce5acb97489d65b14ecc7a,64cf4becd461555f56cbd567,,,,,,,decisionTrl,resources/DY.BMP,resources/DP.BMP,Door4,0.187716449,-0.009227159,1,0,0,1.1653,optionRight,60,13060,6,19,0,19,0,1,,,,,,,,,,,,,,,,,,,,,,,,,,,,,,,,,,,,,,,
,,,,,,,,2023-08-06_08h32.47.720,HF_wild_card,2022.2.4,MacIntel,59.94125757,5bbc3d95f1f9ba000141d855,64ce5acb97489d65b14ecc7a,64cf4becd461555f56cbd567,,,,,,,decisionTrl,resources/DR.BMP,resources/DB.BMP,Door1,-0.153919022,-0.025674778,1,0,0,1.1973,optionLeft,30,13090,6,20,0,20,0,1,,,,,,,,,,,,,,,,,,,,,,,,,,,,,,,,,,,,,,,
,,,,,,,,2023-08-06_08h32.47.720,HF_wild_card,2022.2.4,MacIntel,59.94125757,5bbc3d95f1f9ba000141d855,64ce5acb97489d65b14ecc7a,64cf4becd461555f56cbd567,,,,,,,sngl,resources/Empty.png,resources/DG.BMP,WildCard_Ex,0.188203148,0.000826744,1,0,0,1.0813,optionRight,95,13185,6,21,0,21,0,1,,,,,,,,,,,,,,,,,,,,,,,,,,,,,,,,,,,,,,,
,,,,,,,,2023-08-06_08h32.47.720,HF_wild_card,2022.2.4,MacIntel,59.94125757,5bbc3d95f1f9ba000141d855,64ce5acb97489d65b14ecc7a,64cf4becd461555f56cbd567,,,,,,,decisionTrl,resources/DY.BMP,resources/DP.BMP,Door4,0.144998621,-0.025285678,1,0,0,2.1497,optionRight,80,13265,6,22,0,22,0,1,,,,,,,,,,,,,,,,,,,,,,,,,,,,,,,,,,,,,,,
,,,,,,,,2023-08-06_08h32.47.720,HF_wild_card,2022.2.4,MacIntel,59.94125757,5bbc3d95f1f9ba000141d855,64ce5acb97489d65b14ecc7a,64cf4becd461555f56cbd567,,,,,,,sngl,resources/DY.BMP,resources/Empty.png,Door3,-0.184770994,-0.011936555,1,0,0,0.7216,optionLeft,70,13335,6,23,0,23,0,1,,,,,,,,,,,,,,,,,,,,,,,,,,,,,,,,,,,,,,,
,,,,,,,,2023-08-06_08h32.47.720,HF_wild_card,2022.2.4,MacIntel,59.94125757,5bbc3d95f1f9ba000141d855,64ce5acb97489d65b14ecc7a,64cf4becd461555f56cbd567,,,,,,,decisionTrl,resources/DP.BMP,resources/DY.BMP,Door4,-0.143044366,-0.020472209,1,0,0,1.2467,optionLeft,80,13415,6,24,0,24,0,1,,,,,,,,,,,,,,,,,,,,,,,,,,,,,,,,,,,,,,,
,,,,,,,,2023-08-06_08h32.47.720,HF_wild_card,2022.2.4,MacIntel,59.94125757,5bbc3d95f1f9ba000141d855,64ce5acb97489d65b14ecc7a,64cf4becd461555f56cbd567,,,,,,,decisionTrl,resources/DB.BMP,resources/DG.BMP,WildCard_Ex,0.197773686,-0.020424285,1,0,0,1.8153,optionRight,5,13420,6,25,0,25,0,1,,,,,,,,,,,,,,,,,,,,,,,,,,,,,,,,,,,,,,,
,,,,,,,,2023-08-06_08h32.47.720,HF_wild_card,2022.2.4,MacIntel,59.94125757,5bbc3d95f1f9ba000141d855,64ce5acb97489d65b14ecc7a,64cf4becd461555f56cbd567,,,,,,,decisionTrl,resources/DG.BMP,resources/DY.BMP,Door3,0.161477322,-0.009835476,1,0,0,1.2654,optionRight,70,13490,6,26,0,26,0,1,,,,,,,,,,,,,,,,,,,,,,,,,,,,,,,,,,,,,,,
,,,,,,,,2023-08-06_08h32.47.720,HF_wild_card,2022.2.4,MacIntel,59.94125757,5bbc3d95f1f9ba000141d855,64ce5acb97489d65b14ecc7a,64cf4becd461555f56cbd567,,,,,,,decisionTrl,resources/DP.BMP,resources/DG.BMP,Door4,-0.134050496,-0.043657373,1,0,0,1.2483,optionLeft,80,13570,6,27,0,27,0,1,,,,,,,,,,,,,,,,,,,,,,,,,,,,,,,,,,,,,,,
,,,,,,,,2023-08-06_08h32.47.720,HF_wild_card,2022.2.4,MacIntel,59.94125757,5bbc3d95f1f9ba000141d855,64ce5acb97489d65b14ecc7a,64cf4becd461555f56cbd567,,,,,,,sngl,resources/DP.BMP,resources/Empty.png,Door4,-0.132623348,-0.010341616,1,0,0,0.7963,optionLeft,60,13630,6,28,0,28,0,1,,,,,,,,,,,,,,,,,,,,,,,,,,,,,,,,,,,,,,,
,,,,,,,,2023-08-06_08h32.47.720,HF_wild_card,2022.2.4,MacIntel,59.94125757,5bbc3d95f1f9ba000141d855,64ce5acb97489d65b14ecc7a,64cf4becd461555f56cbd567,,,,,,,sngl,resources/DG.BMP,resources/Empty.png,WildCard_Ex,-0.166476214,-0.022590411,1,0,0,0.7679,optionLeft,5,13635,6,29,0,29,0,1,,,,,,,,,,,,,,,,,,,,,,,,,,,,,,,,,,,,,,,
,,,,,,,,2023-08-06_08h32.47.720,HF_wild_card,2022.2.4,MacIntel,59.94125757,5bbc3d95f1f9ba000141d855,64ce5acb97489d65b14ecc7a,64cf4becd461555f56cbd567,,,,,,,decisionTrl,resources/DY.BMP,resources/DP.BMP,Door4,0.142516525,0.004184412,1,0,0,1.2144,optionRight,80,13715,6,30,0,30,0,1,,,,,,,,,,,,,,,,,,,,,,,,,,,,,,,,,,,,,,,
,,,,,,,,2023-08-06_08h32.47.720,HF_wild_card,2022.2.4,MacIntel,59.94125757,5bbc3d95f1f9ba000141d855,64ce5acb97489d65b14ecc7a,64cf4becd461555f56cbd567,,,,,,,sngl,resources/DR.BMP,resources/Empty.png,Door1,-0.115260258,-0.003047406,1,0,0,0.8647,optionLeft,30,13745,6,31,0,31,0,1,,,,,,,,,,,,,,,,,,,,,,,,,,,,,,,,,,,,,,,
,,,,,,,,2023-08-06_08h32.47.720,HF_wild_card,2022.2.4,MacIntel,59.94125757,5bbc3d95f1f9ba000141d855,64ce5acb97489d65b14ecc7a,64cf4becd461555f56cbd567,,,,,,,ctch,resources/DR.BMP,resources/DP.BMP,Door4,0.142022027,0.019985849,1,0,0,0.8335,optionRight,80,13825,6,32,0,32,0,1,,,,,,,,,,,,,,,,,,,,,,,,,,,,,,,,,,,,,,,
,,,,,,,,2023-08-06_08h32.47.720,HF_wild_card,2022.2.4,MacIntel,59.94125757,5bbc3d95f1f9ba000141d855,64ce5acb97489d65b14ecc7a,64cf4becd461555f56cbd567,,,,,,,ctch,resources/DP.BMP,resources/DR.BMP,Door4,-0.142920091,-0.007508511,1,0,0,1.2971,optionLeft,80,13905,6,33,0,33,0,1,,,,,,,,,,,,,,,,,,,,,,,,,,,,,,,,,,,,,,,
,,,,,,,,2023-08-06_08h32.47.720,HF_wild_card,2022.2.4,MacIntel,59.94125757,5bbc3d95f1f9ba000141d855,64ce5acb97489d65b14ecc7a,64cf4becd461555f56cbd567,,,,,,,decisionTrl,resources/DP.BMP,resources/DY.BMP,Door4,-0.110217511,-0.0211406,1,0,0,1.1951,optionLeft,80,13985,6,34,0,34,0,1,,,,,,,,,,,,,,,,,,,,,,,,,,,,,,,,,,,,,,,
,,,,,,,,2023-08-06_08h32.47.720,HF_wild_card,2022.2.4,MacIntel,59.94125757,5bbc3d95f1f9ba000141d855,64ce5acb97489d65b14ecc7a,64cf4becd461555f56cbd567,,,,,,,decisionTrl,resources/DR.BMP,resources/DB.BMP,Door1,-0.072674956,-0.004674728,1,0,0,1.1975,optionLeft,30,14015,6,35,0,35,0,1,,,,,,,,,,,,,,,,,,,,,,,,,,,,,,,,,,,,,,,
,,,,,,,,2023-08-06_08h32.47.720,HF_wild_card,2022.2.4,MacIntel,59.94125757,5bbc3d95f1f9ba000141d855,64ce5acb97489d65b14ecc7a,64cf4becd461555f56cbd567,,,,,,,decisionTrl,resources/DB.BMP,resources/DR.BMP,Door1,0.216355048,-0.006051014,1,0,0,1.0162,optionRight,30,14045,6,36,0,36,0,1,,,,,,,,,,,,,,,,,,,,,,,,,,,,,,,,,,,,,,,
,,,,,,,,2023-08-06_08h32.47.720,HF_wild_card,2022.2.4,MacIntel,59.94125757,5bbc3d95f1f9ba000141d855,64ce5acb97489d65b14ecc7a,64cf4becd461555f56cbd567,,,,,,,decisionTrl,resources/DR.BMP,resources/DB.BMP,Door1,-0.186775547,-0.002647796,1,0,0,5.5241,optionLeft,30,14075,6,37,0,37,0,1,,,,,,,,,,,,,,,,,,,,,,,,,,,,,,,,,,,,,,,
,,,,,,,,2023-08-06_08h32.47.720,HF_wild_card,2022.2.4,MacIntel,59.94125757,5bbc3d95f1f9ba000141d855,64ce5acb97489d65b14ecc7a,64cf4becd461555f56cbd567,,,,,,,decisionTrl,resources/DR.BMP,resources/DB.BMP,Door1,-0.150929204,-0.014795939,1,0,0,2.5824,optionLeft,30,14105,6,38,0,38,0,1,,,,,,,,,,,,,,,,,,,,,,,,,,,,,,,,,,,,,,,
,,,,,,,,2023-08-06_08h32.47.720,HF_wild_card,2022.2.4,MacIntel,59.94125757,5bbc3d95f1f9ba000141d855,64ce5acb97489d65b14ecc7a,64cf4becd461555f56cbd567,,,,,,,ctch,resources/DY.BMP,resources/DB.BMP,Door3,-0.202864696,-0.016591277,1,0,0,0.9802,optionLeft,70,14175,6,39,0,39,0,1,,,,,,,,,,,,,,,,,,,,,,,,,,,,,,,,,,,,,,,
,,,,,,,,2023-08-06_08h32.47.720,HF_wild_card,2022.2.4,MacIntel,59.94125757,5bbc3d95f1f9ba000141d855,64ce5acb97489d65b14ecc7a,64cf4becd461555f56cbd567,,,,,,,ctch,resources/DP.BMP,resources/DR.BMP,Door4,-0.179373395,-0.011457768,1,0,0,1,optionLeft,60,14235,6,40,0,40,0,1,,,,,,,,,,,,,,,,,,,,,,,,,,,,,,,,,,,,,,,
,,,,,,,,2023-08-06_08h32.47.720,HF_wild_card,2022.2.4,MacIntel,59.94125757,5bbc3d95f1f9ba000141d855,64ce5acb97489d65b14ecc7a,64cf4becd461555f56cbd567,,,,,,,ctch,resources/DR.BMP,resources/DP.BMP,Door4,0.192647637,-0.015764477,1,0,0,1.132,optionRight,80,14315,6,41,0,41,0,1,,,,,,,,,,,,,,,,,,,,,,,,,,,,,,,,,,,,,,,
,,,,,,,,2023-08-06_08h32.47.720,HF_wild_card,2022.2.4,MacIntel,59.94125757,5bbc3d95f1f9ba000141d855,64ce5acb97489d65b14ecc7a,64cf4becd461555f56cbd567,,,,,,,sngl,resources/Empty.png,resources/DP.BMP,Door4,0.17853484,0.003834703,1,0,0,1.6304,optionRight,80,14395,6,42,0,42,0,1,,,,,,,,,,,,,,,,,,,,,,,,,,,,,,,,,,,,,,,
,,,,,,,,2023-08-06_08h32.47.720,HF_wild_card,2022.2.4,MacIntel,59.94125757,5bbc3d95f1f9ba000141d855,64ce5acb97489d65b14ecc7a,64cf4becd461555f56cbd567,,,,,,,decisionTrl,resources/DB.BMP,resources/DR.BMP,Door1,0.276326271,-0.02688593,1,0,0,2.5686,optionRight,30,14425,6,43,0,43,0,1,,,,,,,,,,,,,,,,,,,,,,,,,,,,,,,,,,,,,,,
,,,,,,,,2023-08-06_08h32.47.720,HF_wild_card,2022.2.4,MacIntel,59.94125757,5bbc3d95f1f9ba000141d855,64ce5acb97489d65b14ecc7a,64cf4becd461555f56cbd567,,,,,,,,,,,,,,,,,,,,,,,,,,5,0,5,0,1,,,,,,,,,,,,,,,,,,,,,,,,,,,,,,,,,,
,,,,,,,,2023-08-06_08h32.47.720,HF_wild_card,2022.2.4,MacIntel,59.94125757,5bbc3d95f1f9ba000141d855,64ce5acb97489d65b14ecc7a,64cf4becd461555f56cbd567,,,,,,,ctch,resources/DP.BMP,resources/DR.BMP,Door4,-0.147322817,-0.165534012,1,0,0,1.4076,optionLeft,60,14485,7,0,0,0,0,1,,,,,,,,,,,,,,,,,,,,,,,,,,,,,,,,,,,,,,,
,,,,,,,,2023-08-06_08h32.47.720,HF_wild_card,2022.2.4,MacIntel,59.94125757,5bbc3d95f1f9ba000141d855,64ce5acb97489d65b14ecc7a,64cf4becd461555f56cbd567,,,,,,,decisionTrl,resources/DB.BMP,resources/DR.BMP,Door1,0.201527009,0.024284363,1,0,0,0.953,optionRight,30,14515,7,1,0,1,0,1,,,,,,,,,,,,,,,,,,,,,,,,,,,,,,,,,,,,,,,
,,,,,,,,2023-08-06_08h32.47.720,HF_wild_card,2022.2.4,MacIntel,59.94125757,5bbc3d95f1f9ba000141d855,64ce5acb97489d65b14ecc7a,64cf4becd461555f56cbd567,,,,,,,decisionTrl,resources/DB.BMP,resources/DR.BMP,Door1,0.162448798,0.012815179,1,0,0,0.8561,optionRight,30,14545,7,2,0,2,0,1,,,,,,,,,,,,,,,,,,,,,,,,,,,,,,,,,,,,,,,
,,,,,,,,2023-08-06_08h32.47.720,HF_wild_card,2022.2.4,MacIntel,59.94125757,5bbc3d95f1f9ba000141d855,64ce5acb97489d65b14ecc7a,64cf4becd461555f56cbd567,,,,,,,ctch,resources/DP.BMP,resources/DR.BMP,Door4,-0.205216697,-0.029048552,1,0,0,1.0836,optionLeft,80,14625,7,3,0,3,0,1,,,,,,,,,,,,,,,,,,,,,,,,,,,,,,,,,,,,,,,
,,,,,,,,2023-08-06_08h32.47.720,HF_wild_card,2022.2.4,MacIntel,59.94125757,5bbc3d95f1f9ba000141d855,64ce5acb97489d65b14ecc7a,64cf4becd461555f56cbd567,,,,,,,decisionTrl,resources/DR.BMP,resources/DB.BMP,Door1,-0.170894651,-0.01783419,1,0,0,0.9831,optionLeft,30,14655,7,4,0,4,0,1,,,,,,,,,,,,,,,,,,,,,,,,,,,,,,,,,,,,,,,
,,,,,,,,2023-08-06_08h32.47.720,HF_wild_card,2022.2.4,MacIntel,59.94125757,5bbc3d95f1f9ba000141d855,64ce5acb97489d65b14ecc7a,64cf4becd461555f56cbd567,,,,,,,decisionTrl,resources/DR.BMP,resources/DB.BMP,Door1,-0.173131024,-0.014783789,1,0,0,1.033,optionLeft,30,14685,7,5,0,5,0,1,,,,,,,,,,,,,,,,,,,,,,,,,,,,,,,,,,,,,,,
,,,,,,,,2023-08-06_08h32.47.720,HF_wild_card,2022.2.4,MacIntel,59.94125757,5bbc3d95f1f9ba000141d855,64ce5acb97489d65b14ecc7a,64cf4becd461555f56cbd567,,,,,,,decisionTrl,resources/DY.BMP,resources/DP.BMP,Door4,0.148628291,-0.010679683,1,0,0,1.2668,optionRight,60,14745,7,6,0,6,0,1,,,,,,,,,,,,,,,,,,,,,,,,,,,,,,,,,,,,,,,
,,,,,,,,2023-08-06_08h32.47.720,HF_wild_card,2022.2.4,MacIntel,59.94125757,5bbc3d95f1f9ba000141d855,64ce5acb97489d65b14ecc7a,64cf4becd461555f56cbd567,,,,,,,decisionTrl,resources/DY.BMP,resources/DP.BMP,Door4,0.156333415,-0.002182459,1,0,0,0.9168,optionRight,80,14825,7,7,0,7,0,1,,,,,,,,,,,,,,,,,,,,,,,,,,,,,,,,,,,,,,,
,,,,,,,,2023-08-06_08h32.47.720,HF_wild_card,2022.2.4,MacIntel,59.94125757,5bbc3d95f1f9ba000141d855,64ce5acb97489d65b14ecc7a,64cf4becd461555f56cbd567,,,,,,,decisionTrl,resources/DY.BMP,resources/DP.BMP,Door4,0.17119864,0.006435423,1,0,0,0.9331,optionRight,60,14885,7,8,0,8,0,1,,,,,,,,,,,,,,,,,,,,,,,,,,,,,,,,,,,,,,,
,,,,,,,,2023-08-06_08h32.47.720,HF_wild_card,2022.2.4,MacIntel,59.94125757,5bbc3d95f1f9ba000141d855,64ce5acb97489d65b14ecc7a,64cf4becd461555f56cbd567,,,,,,,decisionTrl,resources/DB.BMP,resources/DR.BMP,Door1,0.119871691,-0.005910916,1,0,0,1.0828,optionRight,30,14915,7,9,0,9,0,1,,,,,,,,,,,,,,,,,,,,,,,,,,,,,,,,,,,,,,,
,,,,,,,,2023-08-06_08h32.47.720,HF_wild_card,2022.2.4,MacIntel,59.94125757,5bbc3d95f1f9ba000141d855,64ce5acb97489d65b14ecc7a,64cf4becd461555f56cbd567,,,,,,,ctch,resources/DY.BMP,resources/DB.BMP,Door3,-0.183837099,-0.031510643,1,0,0,1.2166,optionLeft,70,14985,7,10,0,10,0,1,,,,,,,,,,,,,,,,,,,,,,,,,,,,,,,,,,,,,,,
,,,,,,,,2023-08-06_08h32.47.720,HF_wild_card,2022.2.4,MacIntel,59.94125757,5bbc3d95f1f9ba000141d855,64ce5acb97489d65b14ecc7a,64cf4becd461555f56cbd567,,,,,,,decisionTrl,resources/DB.BMP,resources/DR.BMP,Door1,0.128005755,-0.004477042,1,0,0,0.9328,optionRight,30,15015,7,11,0,11,0,1,,,,,,,,,,,,,,,,,,,,,,,,,,,,,,,,,,,,,,,
,,,,,,,,2023-08-06_08h32.47.720,HF_wild_card,2022.2.4,MacIntel,59.94125757,5bbc3d95f1f9ba000141d855,64ce5acb97489d65b14ecc7a,64cf4becd461555f56cbd567,,,,,,,ctch,resources/DP.BMP,resources/DR.BMP,Door4,-0.119392791,-0.027706966,1,0,0,0.7992,optionLeft,80,15095,7,12,0,12,0,1,,,,,,,,,,,,,,,,,,,,,,,,,,,,,,,,,,,,,,,
,,,,,,,,2023-08-06_08h32.47.720,HF_wild_card,2022.2.4,MacIntel,59.94125757,5bbc3d95f1f9ba000141d855,64ce5acb97489d65b14ecc7a,64cf4becd461555f56cbd567,,,,,,,decisionTrl,resources/DR.BMP,resources/DB.BMP,Door1,-0.153637469,-0.035443454,1,0,0,1.2994,optionLeft,30,15125,7,13,0,13,0,1,,,,,,,,,,,,,,,,,,,,,,,,,,,,,,,,,,,,,,,
,,,,,,,,2023-08-06_08h32.47.720,HF_wild_card,2022.2.4,MacIntel,59.94125757,5bbc3d95f1f9ba000141d855,64ce5acb97489d65b14ecc7a,64cf4becd461555f56cbd567,,,,,,,decisionTrl,resources/DY.BMP,resources/DP.BMP,Door4,0.087336222,-0.003964855,1,0,0,1.3155,optionRight,80,15205,7,14,0,14,0,1,,,,,,,,,,,,,,,,,,,,,,,,,,,,,,,,,,,,,,,
,,,,,,,,2023-08-06_08h32.47.720,HF_wild_card,2022.2.4,MacIntel,59.94125757,5bbc3d95f1f9ba000141d855,64ce5acb97489d65b14ecc7a,64cf4becd461555f56cbd567,,,,,,,decisionTrl,resources/DP.BMP,resources/DY.BMP,Door4,-0.15716191,-0.011054145,1,0,0,1.3343,optionLeft,80,15285,7,15,0,15,0,1,,,,,,,,,,,,,,,,,,,,,,,,,,,,,,,,,,,,,,,
,,,,,,,,2023-08-06_08h32.47.720,HF_wild_card,2022.2.4,MacIntel,59.94125757,5bbc3d95f1f9ba000141d855,64ce5acb97489d65b14ecc7a,64cf4becd461555f56cbd567,,,,,,,decisionTrl,resources/DB.BMP,resources/DR.BMP,Door1,0.169880507,0.017090465,1,0,0,1.0237,optionRight,30,15315,7,16,0,16,0,1,,,,,,,,,,,,,,,,,,,,,,,,,,,,,,,,,,,,,,,
,,,,,,,,2023-08-06_08h32.47.720,HF_wild_card,2022.2.4,MacIntel,59.94125757,5bbc3d95f1f9ba000141d855,64ce5acb97489d65b14ecc7a,64cf4becd461555f56cbd567,,,,,,,decisionTrl,resources/DB.BMP,resources/DR.BMP,Door1,0.173661974,0.01002429,1,0,0,0.8673,optionRight,30,15345,7,17,0,17,0,1,,,,,,,,,,,,,,,,,,,,,,,,,,,,,,,,,,,,,,,
,,,,,,,,2023-08-06_08h32.47.720,HF_wild_card,2022.2.4,MacIntel,59.94125757,5bbc3d95f1f9ba000141d855,64ce5acb97489d65b14ecc7a,64cf4becd461555f56cbd567,,,,,,,decisionTrl,resources/DP.BMP,resources/DY.BMP,Door4,-0.183088515,-0.021221528,1,0,0,1.1176,optionLeft,60,15405,7,18,0,18,0,1,,,,,,,,,,,,,,,,,,,,,,,,,,,,,,,,,,,,,,,
,,,,,,,,2023-08-06_08h32.47.720,HF_wild_card,2022.2.4,MacIntel,59.94125757,5bbc3d95f1f9ba000141d855,64ce5acb97489d65b14ecc7a,64cf4becd461555f56cbd567,,,,,,,ctch,resources/DR.BMP,resources/DP.BMP,Door4,0.180185841,0.010325057,1,0,0,0.8662,optionRight,80,15485,7,19,0,19,0,1,,,,,,,,,,,,,,,,,,,,,,,,,,,,,,,,,,,,,,,
,,,,,,,,2023-08-06_08h32.47.720,HF_wild_card,2022.2.4,MacIntel,59.94125757,5bbc3d95f1f9ba000141d855,64ce5acb97489d65b14ecc7a,64cf4becd461555f56cbd567,,,,,,,decisionTrl,resources/DP.BMP,resources/DY.BMP,Door4,-0.180255466,-0.026146783,1,0,0,1.2825,optionLeft,80,15565,7,20,0,20,0,1,,,,,,,,,,,,,,,,,,,,,,,,,,,,,,,,,,,,,,,
,,,,,,,,2023-08-06_08h32.47.720,HF_wild_card,2022.2.4,MacIntel,59.94125757,5bbc3d95f1f9ba000141d855,64ce5acb97489d65b14ecc7a,64cf4becd461555f56cbd567,,,,,,,ctch,resources/DB.BMP,resources/DY.BMP,Door3,0.183832126,0.004236857,1,0,0,0.849,optionRight,70,15635,7,21,0,21,0,1,,,,,,,,,,,,,,,,,,,,,,,,,,,,,,,,,,,,,,,
,,,,,,,,2023-08-06_08h32.47.720,HF_wild_card,2022.2.4,MacIntel,59.94125757,5bbc3d95f1f9ba000141d855,64ce5acb97489d65b14ecc7a,64cf4becd461555f56cbd567,,,,,,,ctch,resources/DB.BMP,resources/DY.BMP,Door3,0.154778149,-0.008271055,1,0,0,0.8002,optionRight,70,15705,7,22,0,22,0,1,,,,,,,,,,,,,,,,,,,,,,,,,,,,,,,,,,,,,,,
,,,,,,,,2023-08-06_08h32.47.720,HF_wild_card,2022.2.4,MacIntel,59.94125757,5bbc3d95f1f9ba000141d855,64ce5acb97489d65b14ecc7a,64cf4becd461555f56cbd567,,,,,,,ctch,resources/DB.BMP,resources/DY.BMP,Door3,0.174348054,0.001991328,1,0,0,0.8814,optionRight,70,15775,7,23,0,23,0,1,,,,,,,,,,,,,,,,,,,,,,,,,,,,,,,,,,,,,,,
,,,,,,,,2023-08-06_08h32.47.720,HF_wild_card,2022.2.4,MacIntel,59.94125757,5bbc3d95f1f9ba000141d855,64ce5acb97489d65b14ecc7a,64cf4becd461555f56cbd567,,,,,,,ctch,resources/DR.BMP,resources/DP.BMP,Door4,0.184362906,0.005396412,1,0,0,1.0987,optionRight,60,15835,7,24,0,24,0,1,,,,,,,,,,,,,,,,,,,,,,,,,,,,,,,,,,,,,,,
,,,,,,,,2023-08-06_08h32.47.720,HF_wild_card,2022.2.4,MacIntel,59.94125757,5bbc3d95f1f9ba000141d855,64ce5acb97489d65b14ecc7a,64cf4becd461555f56cbd567,,,,,,,ctch,resources/DY.BMP,resources/DB.BMP,Door3,-0.133828453,-0.021058485,1,0,0,0.9978,optionLeft,70,15905,7,25,0,25,0,1,,,,,,,,,,,,,,,,,,,,,,,,,,,,,,,,,,,,,,,
,,,,,,,,2023-08-06_08h32.47.720,HF_wild_card,2022.2.4,MacIntel,59.94125757,5bbc3d95f1f9ba000141d855,64ce5acb97489d65b14ecc7a,64cf4becd461555f56cbd567,,,,,,,decisionTrl,resources/DR.BMP,resources/DB.BMP,Door1,-0.14463614,-0.003113923,1,0,0,1.5,optionLeft,30,15935,7,26,0,26,0,1,,,,,,,,,,,,,,,,,,,,,,,,,,,,,,,,,,,,,,,
,,,,,,,,2023-08-06_08h32.47.720,HF_wild_card,2022.2.4,MacIntel,59.94125757,5bbc3d95f1f9ba000141d855,64ce5acb97489d65b14ecc7a,64cf4becd461555f56cbd567,,,,,,,decisionTrl,resources/DP.BMP,resources/DY.BMP,Door4,-0.169653038,0.000737282,1,0,0,1.1981,optionLeft,60,15995,7,27,0,27,0,1,,,,,,,,,,,,,,,,,,,,,,,,,,,,,,,,,,,,,,,
,,,,,,,,2023-08-06_08h32.47.720,HF_wild_card,2022.2.4,MacIntel,59.94125757,5bbc3d95f1f9ba000141d855,64ce5acb97489d65b14ecc7a,64cf4becd461555f56cbd567,,,,,,,decisionTrl,resources/DY.BMP,resources/DP.BMP,Door4,0.173440665,0.006386086,1,0,0,1.1989,optionRight,60,16055,7,28,0,28,0,1,,,,,,,,,,,,,,,,,,,,,,,,,,,,,,,,,,,,,,,
,,,,,,,,2023-08-06_08h32.47.720,HF_wild_card,2022.2.4,MacIntel,59.94125757,5bbc3d95f1f9ba000141d855,64ce5acb97489d65b14ecc7a,64cf4becd461555f56cbd567,,,,,,,ctch,resources/DY.BMP,resources/DB.BMP,Door3,-0.141561494,-0.033476201,1,0,0,0.8494,optionLeft,70,16125,7,29,0,29,0,1,,,,,,,,,,,,,,,,,,,,,,,,,,,,,,,,,,,,,,,
,,,,,,,,2023-08-06_08h32.47.720,HF_wild_card,2022.2.4,MacIntel,59.94125757,5bbc3d95f1f9ba000141d855,64ce5acb97489d65b14ecc7a,64cf4becd461555f56cbd567,,,,,,,decisionTrl,resources/DP.BMP,resources/DY.BMP,Door4,-0.15903812,-0.037042462,1,0,0,1.5577,optionLeft,80,16205,7,30,0,30,0,1,,,,,,,,,,,,,,,,,,,,,,,,,,,,,,,,,,,,,,,
,,,,,,,,2023-08-06_08h32.47.720,HF_wild_card,2022.2.4,MacIntel,59.94125757,5bbc3d95f1f9ba000141d855,64ce5acb97489d65b14ecc7a,64cf4becd461555f56cbd567,,,,,,,ctch,resources/DR.BMP,resources/DP.BMP,Door4,0.136855514,-0.019873895,1,0,0,0.7153,optionRight,60,16265,7,31,0,31,0,1,,,,,,,,,,,,,,,,,,,,,,,,,,,,,,,,,,,,,,,
,,,,,,,,2023-08-06_08h32.47.720,HF_wild_card,2022.2.4,MacIntel,59.94125757,5bbc3d95f1f9ba000141d855,64ce5acb97489d65b14ecc7a,64cf4becd461555f56cbd567,,,,,,,decisionTrl,resources/DR.BMP,resources/DB.BMP,Door1,-0.201787652,-0.034407778,1,0,0,1.1832,optionLeft,30,16295,7,32,0,32,0,1,,,,,,,,,,,,,,,,,,,,,,,,,,,,,,,,,,,,,,,
,,,,,,,,2023-08-06_08h32.47.720,HF_wild_card,2022.2.4,MacIntel,59.94125757,5bbc3d95f1f9ba000141d855,64ce5acb97489d65b14ecc7a,64cf4becd461555f56cbd567,,,,,,,decisionTrl,resources/DY.BMP,resources/DP.BMP,Door4,0.187499887,0.013361048,1,0,0,1.1503,optionRight,80,16375,7,33,0,33,0,1,,,,,,,,,,,,,,,,,,,,,,,,,,,,,,,,,,,,,,,
,,,,,,,,2023-08-06_08h32.47.720,HF_wild_card,2022.2.4,MacIntel,59.94125757,5bbc3d95f1f9ba000141d855,64ce5acb97489d65b14ecc7a,64cf4becd461555f56cbd567,,,,,,,decisionTrl,resources/DP.BMP,resources/DY.BMP,Door4,-0.214149927,0.008026801,1,0,0,1.399,optionLeft,80,16455,7,34,0,34,0,1,,,,,,,,,,,,,,,,,,,,,,,,,,,,,,,,,,,,,,,
,,,,,,,,2023-08-06_08h32.47.720,HF_wild_card,2022.2.4,MacIntel,59.94125757,5bbc3d95f1f9ba000141d855,64ce5acb97489d65b14ecc7a,64cf4becd461555f56cbd567,,,,,,,decisionTrl,resources/DR.BMP,resources/DB.BMP,Door1,-0.153423733,-0.021421023,1,0,0,0.915,optionLeft,30,16485,7,35,0,35,0,1,,,,,,,,,,,,,,,,,,,,,,,,,,,,,,,,,,,,,,,
,,,,,,,,2023-08-06_08h32.47.720,HF_wild_card,2022.2.4,MacIntel,59.94125757,5bbc3d95f1f9ba000141d855,64ce5acb97489d65b14ecc7a,64cf4becd461555f56cbd567,,,,,,,,,,,,,,,,,,,,,,,,,,6,0,6,0,1,,,,,,,,,,,,,,,,,,,,,,,,,,,,,,,,,,
,,,,,,,,2023-08-06_08h32.47.720,HF_wild_card,2022.2.4,MacIntel,59.94125757,5bbc3d95f1f9ba000141d855,64ce5acb97489d65b14ecc7a,64cf4becd461555f56cbd567,,,,,,,,,,,,,,,,,,,,,,,,,,,,,,,4,,,,,,,,,,,,,,,,,,,,,,,,,,,,,,,,,
,,,,,,,,2023-08-06_08h32.47.720,HF_wild_card,2022.2.4,MacIntel,59.94125757,5bbc3d95f1f9ba000141d855,64ce5acb97489d65b14ecc7a,64cf4becd461555f56cbd567,,,,,,,,,,,,,,,,,,,,,,,,,,,,,,,,,,,,,,,,,,,,,,,,,,,,,,,,,,,,,,,,
,,,,,,,,2023-08-06_08h32.47.720,HF_wild_card,2022.2.4,MacIntel,59.94125757,5bbc3d95f1f9ba000141d855,64ce5acb97489d65b14ecc7a,64cf4becd461555f56cbd567,,,,,,,,,,,,,,,,,,,,,,,,,,,,,,,,40,Door1,resources/DR.BMP,0,0,0,0,1,,,,,,,,,,,,,,,,,,,,,,,,,
,,,,,,,,2023-08-06_08h32.47.720,HF_wild_card,2022.2.4,MacIntel,59.94125757,5bbc3d95f1f9ba000141d855,64ce5acb97489d65b14ecc7a,64cf4becd461555f56cbd567,,,,,,,,,,,,,,,,,,,,,,,,,,,,,,,,70,Door3,resources/DY.BMP,1,0,1,0,1,,,,,,,,,,,,,,,,,,,,,,,,,
,,,,,,,,2023-08-06_08h32.47.720,HF_wild_card,2022.2.4,MacIntel,59.94125757,5bbc3d95f1f9ba000141d855,64ce5acb97489d65b14ecc7a,64cf4becd461555f56cbd567,,,,,,,,,,,,,,,,,,,,,,,,,,,,,,,,25,Door2,resources/DB.BMP,2,0,2,0,1,,,,,,,,,,,,,,,,,,,,,,,,,
