Condition,Low fixed image (Door1),Low risky image (Door2),High fixed image (Door3),High risky image (Door4),Extreme Wild Card,NonExtreme Wild Card,,date,expName,psychopyVersion,OS,frameRate,PROLIFIC_PID,STUDY_ID,SESSION_ID,mouse_2.x,mouse_2.y,mouse_2.leftButton,mouse_2.midButton,mouse_2.rightButton,mouse_2.clicked_name,Trial Type,Left Option Image,Right Option Image,Chosen Door,mouse.x,mouse.y,mouse.leftButton,mouse.midButton,mouse.rightButton,mouse.time,mouse.clicked_name,Feedback,Cumulative Reward,Block,trial.thisRepN,trial.thisTrialN,trial.thisN,trial.thisIndex,trial.ran,blocks.thisRepN,blocks.thisTrialN,blocks.thisN,blocks.thisIndex,blocks.ran,Money conversion,First Outcome Reported,Shown Door (First Outcome),Displayed Image (First Outcome),outcomes.thisRepN,outcomes.thisTrialN,outcomes.thisN,outcomes.thisIndex,outcomes.ran,judgments.thisRepN,judgments.thisTrialN,judgments.thisN,judgments.thisIndex,judgments.ran,freqMouse.x,freqMouse.y,freqMouse.leftButton,freqMouse.midButton,freqMouse.rightButton,freqMouse.clicked_name,FQJ for first outcome,FQJ for second outcome,Shown Door,Displayed Image,trials.thisRepN,trials.thisTrialN,trials.thisN,trials.thisIndex,trials.ran,judgBlock.thisRepN,judgBlock.thisTrialN,judgBlock.thisN,judgBlock.thisIndex,judgBlock.ran
0,resources/DR.BMP,resources/DG.BMP,resources/DB.BMP,resources/DY.BMP,resources/DBN.BMP,resources/DP.BMP,,2023-08-16_08h42.12.198,HF_wild_card,2022.2.4,MacIntel,60.0024001,60ddf72ef11f891328449fb0,64d2fd46c836a06233681665,64dc7dc754e17fa3494411ba,,,,,,,,,,,,,,,,,,,,,,,,,,,,,,,,,,,,,,,,,,,,,,,,,,,,,,,,,,,,,,,,
,,,,,,,,2023-08-16_08h42.12.198,HF_wild_card,2022.2.4,MacIntel,60.0024001,60ddf72ef11f891328449fb0,64d2fd46c836a06233681665,64dc7dc754e17fa3494411ba,-0.002762316,-0.41238973,1,0,0,agree,,,,,,,,,,,,,,,,,,,,,,,,,,,,,,,,,,,,,,,,,,,,,,,,,,,,,,,,,,
,,,,,,,,2023-08-16_08h42.12.198,HF_wild_card,2022.2.4,MacIntel,60.0024001,60ddf72ef11f891328449fb0,64d2fd46c836a06233681665,64dc7dc754e17fa3494411ba,,,,,,,,,,,,,,,,,,,,,,,,,,,,,,,,,,,,,,,,,,,,,,,,,,,,,,,,,,,,,,,,
,,,,,,,,2023-08-16_08h42.12.198,HF_wild_card,2022.2.4,MacIntel,60.0024001,60ddf72ef11f891328449fb0,64d2fd46c836a06233681665,64dc7dc754e17fa3494411ba,,,,,,,decisionTrl,resources/DBN.BMP,resources/DB.BMP,Door3,0.272200589,-0.161112739,1,0,0,2.2712,optionRight,70,70,1,0,0,0,0,1,,,,,,,,,,,,,,,,,,,,,,,,,,,,,,,,,,,,,,,
,,,,,,,,2023-08-16_08h42.12.198,HF_wild_card,2022.2.4,MacIntel,60.0024001,60ddf72ef11f891328449fb0,64d2fd46c836a06233681665,64dc7dc754e17fa3494411ba,,,,,,,ctch,resources/DB.BMP,resources/DG.BMP,Door3,-0.259186401,-0.02889228,1,0,0,1.2642,optionLeft,70,140,1,1,0,1,0,1,,,,,,,,,,,,,,,,,,,,,,,,,,,,,,,,,,,,,,,
,,,,,,,,2023-08-16_08h42.12.198,HF_wild_card,2022.2.4,MacIntel,60.0024001,60ddf72ef11f891328449fb0,64d2fd46c836a06233681665,64dc7dc754e17fa3494411ba,,,,,,,sngl,resources/Empty.png,resources/DBN.BMP,WildCard_Ex,0.366347385,-0.025086806,1,0,0,2.3455,optionRight,95,235,1,2,0,2,0,1,,,,,,,,,,,,,,,,,,,,,,,,,,,,,,,,,,,,,,,
,,,,,,,,2023-08-16_08h42.12.198,HF_wild_card,2022.2.4,MacIntel,60.0024001,60ddf72ef11f891328449fb0,64d2fd46c836a06233681665,64dc7dc754e17fa3494411ba,,,,,,,sngl,resources/DY.BMP,resources/Empty.png,Door4,-0.258733758,-0.005912069,1,0,0,1.3771,optionLeft,80,315,1,3,0,3,0,1,,,,,,,,,,,,,,,,,,,,,,,,,,,,,,,,,,,,,,,
,,,,,,,,2023-08-16_08h42.12.198,HF_wild_card,2022.2.4,MacIntel,60.0024001,60ddf72ef11f891328449fb0,64d2fd46c836a06233681665,64dc7dc754e17fa3494411ba,,,,,,,decisionTrl,resources/DY.BMP,resources/DB.BMP,Door3,0.228758138,-0.009700182,1,0,0,1.0271,optionRight,70,385,1,4,0,4,0,1,,,,,,,,,,,,,,,,,,,,,,,,,,,,,,,,,,,,,,,
,,,,,,,,2023-08-16_08h42.12.198,HF_wild_card,2022.2.4,MacIntel,60.0024001,60ddf72ef11f891328449fb0,64d2fd46c836a06233681665,64dc7dc754e17fa3494411ba,,,,,,,decisionTrl,resources/DR.BMP,resources/DG.BMP,Door1,-0.508731147,-0.02807841,1,0,0,2.1128,optionLeft,30,415,1,5,0,5,0,1,,,,,,,,,,,,,,,,,,,,,,,,,,,,,,,,,,,,,,,
,,,,,,,,2023-08-16_08h42.12.198,HF_wild_card,2022.2.4,MacIntel,60.0024001,60ddf72ef11f891328449fb0,64d2fd46c836a06233681665,64dc7dc754e17fa3494411ba,,,,,,,decisionTrl,resources/DB.BMP,resources/DY.BMP,Door3,-0.294044088,-0.029374457,1,0,0,0.9954,optionLeft,70,485,1,6,0,6,0,1,,,,,,,,,,,,,,,,,,,,,,,,,,,,,,,,,,,,,,,
,,,,,,,,2023-08-16_08h42.12.198,HF_wild_card,2022.2.4,MacIntel,60.0024001,60ddf72ef11f891328449fb0,64d2fd46c836a06233681665,64dc7dc754e17fa3494411ba,,,,,,,decisionTrl,resources/DB.BMP,resources/DBN.BMP,WildCard_Ex,0.484708388,-0.033509657,1,0,0,1.1776,optionRight,95,580,1,7,0,7,0,1,,,,,,,,,,,,,,,,,,,,,,,,,,,,,,,,,,,,,,,
,,,,,,,,2023-08-16_08h42.12.198,HF_wild_card,2022.2.4,MacIntel,60.0024001,60ddf72ef11f891328449fb0,64d2fd46c836a06233681665,64dc7dc754e17fa3494411ba,,,,,,,sngl,resources/DB.BMP,resources/Empty.png,Door3,-0.282128499,-0.03213328,1,0,0,1.047,optionLeft,70,650,1,8,0,8,0,1,,,,,,,,,,,,,,,,,,,,,,,,,,,,,,,,,,,,,,,
,,,,,,,,2023-08-16_08h42.12.198,HF_wild_card,2022.2.4,MacIntel,60.0024001,60ddf72ef11f891328449fb0,64d2fd46c836a06233681665,64dc7dc754e17fa3494411ba,,,,,,,decisionTrl,resources/DB.BMP,resources/DY.BMP,Door3,-0.359897156,-0.023413595,1,0,0,1.5808,optionLeft,70,720,1,9,0,9,0,1,,,,,,,,,,,,,,,,,,,,,,,,,,,,,,,,,,,,,,,
,,,,,,,,2023-08-16_08h42.12.198,HF_wild_card,2022.2.4,MacIntel,60.0024001,60ddf72ef11f891328449fb0,64d2fd46c836a06233681665,64dc7dc754e17fa3494411ba,,,,,,,decisionTrl,resources/DB.BMP,resources/DY.BMP,Door3,-0.350627679,-0.027402818,1,0,0,1.495,optionLeft,70,790,1,10,0,10,0,1,,,,,,,,,,,,,,,,,,,,,,,,,,,,,,,,,,,,,,,
,,,,,,,,2023-08-16_08h42.12.198,HF_wild_card,2022.2.4,MacIntel,60.0024001,60ddf72ef11f891328449fb0,64d2fd46c836a06233681665,64dc7dc754e17fa3494411ba,,,,,,,sngl,resources/DR.BMP,resources/Empty.png,Door1,-0.282367486,-0.045658705,1,0,0,1.0452,optionLeft,30,820,1,11,0,11,0,1,,,,,,,,,,,,,,,,,,,,,,,,,,,,,,,,,,,,,,,
,,,,,,,,2023-08-16_08h42.12.198,HF_wild_card,2022.2.4,MacIntel,60.0024001,60ddf72ef11f891328449fb0,64d2fd46c836a06233681665,64dc7dc754e17fa3494411ba,,,,,,,decisionTrl,resources/DR.BMP,resources/DG.BMP,Door2,0.258693373,0.027189602,1,0,0,1.6289,optionRight,40,860,1,12,0,12,0,1,,,,,,,,,,,,,,,,,,,,,,,,,,,,,,,,,,,,,,,
,,,,,,,,2023-08-16_08h42.12.198,HF_wild_card,2022.2.4,MacIntel,60.0024001,60ddf72ef11f891328449fb0,64d2fd46c836a06233681665,64dc7dc754e17fa3494411ba,,,,,,,sngl,resources/DG.BMP,resources/Empty.png,Door2,-0.264819573,-0.018856201,1,0,0,0.8816,optionLeft,40,900,1,13,0,13,0,1,,,,,,,,,,,,,,,,,,,,,,,,,,,,,,,,,,,,,,,
,,,,,,,,2023-08-16_08h42.12.198,HF_wild_card,2022.2.4,MacIntel,60.0024001,60ddf72ef11f891328449fb0,64d2fd46c836a06233681665,64dc7dc754e17fa3494411ba,,,,,,,decisionTrl,resources/DG.BMP,resources/DBN.BMP,WildCard_Ex,0.344585639,-0.016003757,1,0,0,0.9428,optionRight,5,905,1,14,0,14,0,1,,,,,,,,,,,,,,,,,,,,,,,,,,,,,,,,,,,,,,,
,,,,,,,,2023-08-16_08h42.12.198,HF_wild_card,2022.2.4,MacIntel,60.0024001,60ddf72ef11f891328449fb0,64d2fd46c836a06233681665,64dc7dc754e17fa3494411ba,,,,,,,decisionTrl,resources/DG.BMP,resources/DR.BMP,Door2,-0.269686313,-0.044704827,1,0,0,1.6963,optionLeft,20,925,1,15,0,15,0,1,,,,,,,,,,,,,,,,,,,,,,,,,,,,,,,,,,,,,,,
,,,,,,,,2023-08-16_08h42.12.198,HF_wild_card,2022.2.4,MacIntel,60.0024001,60ddf72ef11f891328449fb0,64d2fd46c836a06233681665,64dc7dc754e17fa3494411ba,,,,,,,decisionTrl,resources/DB.BMP,resources/DY.BMP,Door3,-0.288524272,-0.041721361,1,0,0,1.6107,optionLeft,70,995,1,16,0,16,0,1,,,,,,,,,,,,,,,,,,,,,,,,,,,,,,,,,,,,,,,
,,,,,,,,2023-08-16_08h42.12.198,HF_wild_card,2022.2.4,MacIntel,60.0024001,60ddf72ef11f891328449fb0,64d2fd46c836a06233681665,64dc7dc754e17fa3494411ba,,,,,,,decisionTrl,resources/DR.BMP,resources/DG.BMP,Door1,-0.16747484,-0.020731099,1,0,0,3.4265,optionLeft,30,1025,1,17,0,17,0,1,,,,,,,,,,,,,,,,,,,,,,,,,,,,,,,,,,,,,,,
,,,,,,,,2023-08-16_08h42.12.198,HF_wild_card,2022.2.4,MacIntel,60.0024001,60ddf72ef11f891328449fb0,64d2fd46c836a06233681665,64dc7dc754e17fa3494411ba,,,,,,,decisionTrl,resources/DBN.BMP,resources/DR.BMP,WildCard_Ex,-0.189210137,-0.001714952,1,0,0,0.9138,optionLeft,95,1120,1,18,0,18,0,1,,,,,,,,,,,,,,,,,,,,,,,,,,,,,,,,,,,,,,,
,,,,,,,,2023-08-16_08h42.12.198,HF_wild_card,2022.2.4,MacIntel,60.0024001,60ddf72ef11f891328449fb0,64d2fd46c836a06233681665,64dc7dc754e17fa3494411ba,,,,,,,ctch,resources/DY.BMP,resources/DR.BMP,Door1,0.252263251,-0.000263231,1,0,0,1.6773,optionRight,30,1150,1,19,0,19,0,1,,,,,,,,,,,,,,,,,,,,,,,,,,,,,,,,,,,,,,,
,,,,,,,,2023-08-16_08h42.12.198,HF_wild_card,2022.2.4,MacIntel,60.0024001,60ddf72ef11f891328449fb0,64d2fd46c836a06233681665,64dc7dc754e17fa3494411ba,,,,,,,ctch,resources/DY.BMP,resources/DR.BMP,Door1,0.338365479,-0.003114081,1,0,0,2.9473,optionRight,30,1180,1,20,0,20,0,1,,,,,,,,,,,,,,,,,,,,,,,,,,,,,,,,,,,,,,,
,,,,,,,,2023-08-16_08h42.12.198,HF_wild_card,2022.2.4,MacIntel,60.0024001,60ddf72ef11f891328449fb0,64d2fd46c836a06233681665,64dc7dc754e17fa3494411ba,,,,,,,ctch,resources/DG.BMP,resources/DB.BMP,Door2,-0.175629951,-0.010027568,1,0,0,2.0103,optionLeft,20,1200,1,21,0,21,0,1,,,,,,,,,,,,,,,,,,,,,,,,,,,,,,,,,,,,,,,
,,,,,,,,2023-08-16_08h42.12.198,HF_wild_card,2022.2.4,MacIntel,60.0024001,60ddf72ef11f891328449fb0,64d2fd46c836a06233681665,64dc7dc754e17fa3494411ba,,,,,,,decisionTrl,resources/DG.BMP,resources/DR.BMP,Door1,0.309768134,0.02118944,1,0,0,0.9958,optionRight,30,1230,1,22,0,22,0,1,,,,,,,,,,,,,,,,,,,,,,,,,,,,,,,,,,,,,,,
,,,,,,,,2023-08-16_08h42.12.198,HF_wild_card,2022.2.4,MacIntel,60.0024001,60ddf72ef11f891328449fb0,64d2fd46c836a06233681665,64dc7dc754e17fa3494411ba,,,,,,,decisionTrl,resources/DY.BMP,resources/DBN.BMP,WildCard_Ex,0.382539605,0.001935391,1,0,0,0.886,optionRight,95,1325,1,23,0,23,0,1,,,,,,,,,,,,,,,,,,,,,,,,,,,,,,,,,,,,,,,
,,,,,,,,2023-08-16_08h42.12.198,HF_wild_card,2022.2.4,MacIntel,60.0024001,60ddf72ef11f891328449fb0,64d2fd46c836a06233681665,64dc7dc754e17fa3494411ba,,,,,,,sngl,resources/Empty.png,resources/DB.BMP,Door3,0.24186381,-0.014322713,1,0,0,0.928,optionRight,70,1395,1,24,0,24,0,1,,,,,,,,,,,,,,,,,,,,,,,,,,,,,,,,,,,,,,,
,,,,,,,,2023-08-16_08h42.12.198,HF_wild_card,2022.2.4,MacIntel,60.0024001,60ddf72ef11f891328449fb0,64d2fd46c836a06233681665,64dc7dc754e17fa3494411ba,,,,,,,sngl,resources/Empty.png,resources/DBN.BMP,WildCard_Ex,0.286491225,-0.007941793,1,0,0,0.9435,optionRight,5,1400,1,25,0,25,0,1,,,,,,,,,,,,,,,,,,,,,,,,,,,,,,,,,,,,,,,
,,,,,,,,2023-08-16_08h42.12.198,HF_wild_card,2022.2.4,MacIntel,60.0024001,60ddf72ef11f891328449fb0,64d2fd46c836a06233681665,64dc7dc754e17fa3494411ba,,,,,,,decisionTrl,resources/DY.BMP,resources/DB.BMP,Door3,0.283131985,-0.035330607,1,0,0,1.879,optionRight,70,1470,1,26,0,26,0,1,,,,,,,,,,,,,,,,,,,,,,,,,,,,,,,,,,,,,,,
,,,,,,,,2023-08-16_08h42.12.198,HF_wild_card,2022.2.4,MacIntel,60.0024001,60ddf72ef11f891328449fb0,64d2fd46c836a06233681665,64dc7dc754e17fa3494411ba,,,,,,,decisionTrl,resources/DR.BMP,resources/DG.BMP,Door1,-0.320765652,-0.040116645,1,0,0,5.9956,optionLeft,30,1500,1,27,0,27,0,1,,,,,,,,,,,,,,,,,,,,,,,,,,,,,,,,,,,,,,,
,,,,,,,,2023-08-16_08h42.12.198,HF_wild_card,2022.2.4,MacIntel,60.0024001,60ddf72ef11f891328449fb0,64d2fd46c836a06233681665,64dc7dc754e17fa3494411ba,,,,,,,sngl,resources/Empty.png,resources/DY.BMP,Door4,0.32418552,-0.02393792,1,0,0,0.845,optionRight,60,1560,1,28,0,28,0,1,,,,,,,,,,,,,,,,,,,,,,,,,,,,,,,,,,,,,,,
,,,,,,,,2023-08-16_08h42.12.198,HF_wild_card,2022.2.4,MacIntel,60.0024001,60ddf72ef11f891328449fb0,64d2fd46c836a06233681665,64dc7dc754e17fa3494411ba,,,,,,,ctch,resources/DB.BMP,resources/DG.BMP,Door3,-0.269082472,-0.001559007,1,0,0,1.4791,optionLeft,70,1630,1,29,0,29,0,1,,,,,,,,,,,,,,,,,,,,,,,,,,,,,,,,,,,,,,,
,,,,,,,,2023-08-16_08h42.12.198,HF_wild_card,2022.2.4,MacIntel,60.0024001,60ddf72ef11f891328449fb0,64d2fd46c836a06233681665,64dc7dc754e17fa3494411ba,,,,,,,decisionTrl,resources/DG.BMP,resources/DR.BMP,Door1,0.236739299,-0.044183417,1,0,0,3.1632,optionRight,30,1660,1,30,0,30,0,1,,,,,,,,,,,,,,,,,,,,,,,,,,,,,,,,,,,,,,,
,,,,,,,,2023-08-16_08h42.12.198,HF_wild_card,2022.2.4,MacIntel,60.0024001,60ddf72ef11f891328449fb0,64d2fd46c836a06233681665,64dc7dc754e17fa3494411ba,,,,,,,decisionTrl,resources/DBN.BMP,resources/DY.BMP,WildCard_Ex,-0.245156148,0.014251912,1,0,0,0.9767,optionLeft,95,1755,1,31,0,31,0,1,,,,,,,,,,,,,,,,,,,,,,,,,,,,,,,,,,,,,,,
,,,,,,,,2023-08-16_08h42.12.198,HF_wild_card,2022.2.4,MacIntel,60.0024001,60ddf72ef11f891328449fb0,64d2fd46c836a06233681665,64dc7dc754e17fa3494411ba,,,,,,,decisionTrl,resources/DBN.BMP,resources/DG.BMP,WildCard_Ex,-0.245999383,-0.022407532,1,0,0,0.8777,optionLeft,5,1760,1,32,0,32,0,1,,,,,,,,,,,,,,,,,,,,,,,,,,,,,,,,,,,,,,,
,,,,,,,,2023-08-16_08h42.12.198,HF_wild_card,2022.2.4,MacIntel,60.0024001,60ddf72ef11f891328449fb0,64d2fd46c836a06233681665,64dc7dc754e17fa3494411ba,,,,,,,sngl,resources/Empty.png,resources/DR.BMP,Door1,0.239926554,0.000214403,1,0,0,0.8317,optionRight,30,1790,1,33,0,33,0,1,,,,,,,,,,,,,,,,,,,,,,,,,,,,,,,,,,,,,,,
,,,,,,,,2023-08-16_08h42.12.198,HF_wild_card,2022.2.4,MacIntel,60.0024001,60ddf72ef11f891328449fb0,64d2fd46c836a06233681665,64dc7dc754e17fa3494411ba,,,,,,,decisionTrl,resources/DY.BMP,resources/DB.BMP,Door3,0.209310845,-0.0535456,1,0,0,1.2992,optionRight,70,1860,1,34,0,34,0,1,,,,,,,,,,,,,,,,,,,,,,,,,,,,,,,,,,,,,,,
,,,,,,,,2023-08-16_08h42.12.198,HF_wild_card,2022.2.4,MacIntel,60.0024001,60ddf72ef11f891328449fb0,64d2fd46c836a06233681665,64dc7dc754e17fa3494411ba,,,,,,,ctch,resources/DR.BMP,resources/DY.BMP,Door1,-0.311935289,-0.011568536,1,0,0,1.9488,optionLeft,30,1890,1,35,0,35,0,1,,,,,,,,,,,,,,,,,,,,,,,,,,,,,,,,,,,,,,,
,,,,,,,,2023-08-16_08h42.12.198,HF_wild_card,2022.2.4,MacIntel,60.0024001,60ddf72ef11f891328449fb0,64d2fd46c836a06233681665,64dc7dc754e17fa3494411ba,,,,,,,ctch,resources/DR.BMP,resources/DY.BMP,Door1,-0.356274516,-0.047112562,1,0,0,1.2444,optionLeft,30,1920,1,36,0,36,0,1,,,,,,,,,,,,,,,,,,,,,,,,,,,,,,,,,,,,,,,
,,,,,,,,2023-08-16_08h42.12.198,HF_wild_card,2022.2.4,MacIntel,60.0024001,60ddf72ef11f891328449fb0,64d2fd46c836a06233681665,64dc7dc754e17fa3494411ba,,,,,,,ctch,resources/DG.BMP,resources/DB.BMP,Door3,0.26622545,-0.00705875,1,0,0,1.527,optionRight,70,1990,1,37,0,37,0,1,,,,,,,,,,,,,,,,,,,,,,,,,,,,,,,,,,,,,,,
,,,,,,,,2023-08-16_08h42.12.198,HF_wild_card,2022.2.4,MacIntel,60.0024001,60ddf72ef11f891328449fb0,64d2fd46c836a06233681665,64dc7dc754e17fa3494411ba,,,,,,,decisionTrl,resources/DR.BMP,resources/DBN.BMP,WildCard_Ex,0.331524455,0.032598945,1,0,0,0.8642,optionRight,95,2085,1,38,0,38,0,1,,,,,,,,,,,,,,,,,,,,,,,,,,,,,,,,,,,,,,,
,,,,,,,,2023-08-16_08h42.12.198,HF_wild_card,2022.2.4,MacIntel,60.0024001,60ddf72ef11f891328449fb0,64d2fd46c836a06233681665,64dc7dc754e17fa3494411ba,,,,,,,sngl,resources/DBN.BMP,resources/Empty.png,WildCard_Ex,-0.326672804,-0.006670125,1,0,0,0.9292,optionLeft,5,2090,1,39,0,39,0,1,,,,,,,,,,,,,,,,,,,,,,,,,,,,,,,,,,,,,,,
,,,,,,,,2023-08-16_08h42.12.198,HF_wild_card,2022.2.4,MacIntel,60.0024001,60ddf72ef11f891328449fb0,64d2fd46c836a06233681665,64dc7dc754e17fa3494411ba,,,,,,,decisionTrl,resources/DG.BMP,resources/DR.BMP,Door1,0.265176663,-0.006548598,1,0,0,1.0814,optionRight,30,2120,1,40,0,40,0,1,,,,,,,,,,,,,,,,,,,,,,,,,,,,,,,,,,,,,,,
,,,,,,,,2023-08-16_08h42.12.198,HF_wild_card,2022.2.4,MacIntel,60.0024001,60ddf72ef11f891328449fb0,64d2fd46c836a06233681665,64dc7dc754e17fa3494411ba,,,,,,,decisionTrl,resources/DY.BMP,resources/DB.BMP,Door3,0.208246528,-0.019566922,1,0,0,1.1807,optionRight,70,2190,1,41,0,41,0,1,,,,,,,,,,,,,,,,,,,,,,,,,,,,,,,,,,,,,,,
,,,,,,,,2023-08-16_08h42.12.198,HF_wild_card,2022.2.4,MacIntel,60.0024001,60ddf72ef11f891328449fb0,64d2fd46c836a06233681665,64dc7dc754e17fa3494411ba,,,,,,,sngl,resources/Empty.png,resources/DG.BMP,Door2,0.360506863,-0.083504774,1,0,0,0.7978,optionRight,20,2210,1,42,0,42,0,1,,,,,,,,,,,,,,,,,,,,,,,,,,,,,,,,,,,,,,,
,,,,,,,,2023-08-16_08h42.12.198,HF_wild_card,2022.2.4,MacIntel,60.0024001,60ddf72ef11f891328449fb0,64d2fd46c836a06233681665,64dc7dc754e17fa3494411ba,,,,,,,sngl,resources/DBN.BMP,resources/Empty.png,WildCard_Ex,-0.2830051,-0.015906982,1,0,0,0.7811,optionLeft,95,2305,1,43,0,43,0,1,,,,,,,,,,,,,,,,,,,,,,,,,,,,,,,,,,,,,,,
,,,,,,,,2023-08-16_08h42.12.198,HF_wild_card,2022.2.4,MacIntel,60.0024001,60ddf72ef11f891328449fb0,64d2fd46c836a06233681665,64dc7dc754e17fa3494411ba,,,,,,,,,,,,,,,,,,,,,,,,,,0,0,0,0,1,,,,,,,,,,,,,,,,,,,,,,,,,,,,,,,,,,
,,,,,,,,2023-08-16_08h42.12.198,HF_wild_card,2022.2.4,MacIntel,60.0024001,60ddf72ef11f891328449fb0,64d2fd46c836a06233681665,64dc7dc754e17fa3494411ba,,,,,,,sngl,resources/DR.BMP,resources/Empty.png,Door1,-0.25980289,-0.096860148,1,0,0,1.0457,optionLeft,30,2335,2,0,0,0,0,1,,,,,,,,,,,,,,,,,,,,,,,,,,,,,,,,,,,,,,,
,,,,,,,,2023-08-16_08h42.12.198,HF_wild_card,2022.2.4,MacIntel,60.0024001,60ddf72ef11f891328449fb0,64d2fd46c836a06233681665,64dc7dc754e17fa3494411ba,,,,,,,sngl,resources/Empty.png,resources/DR.BMP,Door1,0.314871351,-0.03139879,1,0,0,0.68,optionRight,30,2365,2,1,0,1,0,1,,,,,,,,,,,,,,,,,,,,,,,,,,,,,,,,,,,,,,,
,,,,,,,,2023-08-16_08h42.12.198,HF_wild_card,2022.2.4,MacIntel,60.0024001,60ddf72ef11f891328449fb0,64d2fd46c836a06233681665,64dc7dc754e17fa3494411ba,,,,,,,decisionTrl,resources/DY.BMP,resources/DB.BMP,Door3,0.274245334,0.003515761,1,0,0,0.8925,optionRight,70,2435,2,2,0,2,0,1,,,,,,,,,,,,,,,,,,,,,,,,,,,,,,,,,,,,,,,
,,,,,,,,2023-08-16_08h42.12.198,HF_wild_card,2022.2.4,MacIntel,60.0024001,60ddf72ef11f891328449fb0,64d2fd46c836a06233681665,64dc7dc754e17fa3494411ba,,,,,,,decisionTrl,resources/DY.BMP,resources/DB.BMP,Door3,0.319120483,-0.018592801,1,0,0,0.7636,optionRight,70,2505,2,3,0,3,0,1,,,,,,,,,,,,,,,,,,,,,,,,,,,,,,,,,,,,,,,
,,,,,,,,2023-08-16_08h42.12.198,HF_wild_card,2022.2.4,MacIntel,60.0024001,60ddf72ef11f891328449fb0,64d2fd46c836a06233681665,64dc7dc754e17fa3494411ba,,,,,,,decisionTrl,resources/DB.BMP,resources/DY.BMP,Door3,-0.237281833,-0.031998732,1,0,0,0.7607,optionLeft,70,2575,2,4,0,4,0,1,,,,,,,,,,,,,,,,,,,,,,,,,,,,,,,,,,,,,,,
,,,,,,,,2023-08-16_08h42.12.198,HF_wild_card,2022.2.4,MacIntel,60.0024001,60ddf72ef11f891328449fb0,64d2fd46c836a06233681665,64dc7dc754e17fa3494411ba,,,,,,,ctch,resources/DR.BMP,resources/DY.BMP,Door4,0.190225355,-0.007253961,1,0,0,1.6935,optionRight,80,2655,2,5,0,5,0,1,,,,,,,,,,,,,,,,,,,,,,,,,,,,,,,,,,,,,,,
,,,,,,,,2023-08-16_08h42.12.198,HF_wild_card,2022.2.4,MacIntel,60.0024001,60ddf72ef11f891328449fb0,64d2fd46c836a06233681665,64dc7dc754e17fa3494411ba,,,,,,,decisionTrl,resources/DG.BMP,resources/DR.BMP,Door1,0.293543905,-0.027006429,1,0,0,1.7626,optionRight,30,2685,2,6,0,6,0,1,,,,,,,,,,,,,,,,,,,,,,,,,,,,,,,,,,,,,,,
,,,,,,,,2023-08-16_08h42.12.198,HF_wild_card,2022.2.4,MacIntel,60.0024001,60ddf72ef11f891328449fb0,64d2fd46c836a06233681665,64dc7dc754e17fa3494411ba,,,,,,,ctch,resources/DG.BMP,resources/DB.BMP,Door3,0.404681261,0.018934937,1,0,0,1.5632,optionRight,70,2755,2,7,0,7,0,1,,,,,,,,,,,,,,,,,,,,,,,,,,,,,,,,,,,,,,,
,,,,,,,,2023-08-16_08h42.12.198,HF_wild_card,2022.2.4,MacIntel,60.0024001,60ddf72ef11f891328449fb0,64d2fd46c836a06233681665,64dc7dc754e17fa3494411ba,,,,,,,decisionTrl,resources/DG.BMP,resources/DR.BMP,Door2,-0.225244005,-0.028339301,1,0,0,2.24,optionLeft,40,2795,2,8,0,8,0,1,,,,,,,,,,,,,,,,,,,,,,,,,,,,,,,,,,,,,,,
,,,,,,,,2023-08-16_08h42.12.198,HF_wild_card,2022.2.4,MacIntel,60.0024001,60ddf72ef11f891328449fb0,64d2fd46c836a06233681665,64dc7dc754e17fa3494411ba,,,,,,,decisionTrl,resources/DB.BMP,resources/DY.BMP,Door3,-0.294274021,-0.012021891,1,0,0,0.9302,optionLeft,70,2865,2,9,0,9,0,1,,,,,,,,,,,,,,,,,,,,,,,,,,,,,,,,,,,,,,,
,,,,,,,,2023-08-16_08h42.12.198,HF_wild_card,2022.2.4,MacIntel,60.0024001,60ddf72ef11f891328449fb0,64d2fd46c836a06233681665,64dc7dc754e17fa3494411ba,,,,,,,sngl,resources/DBN.BMP,resources/Empty.png,WildCard_Ex,-0.277458767,-0.034455363,1,0,0,0.6957,optionLeft,5,2870,2,10,0,10,0,1,,,,,,,,,,,,,,,,,,,,,,,,,,,,,,,,,,,,,,,
,,,,,,,,2023-08-16_08h42.12.198,HF_wild_card,2022.2.4,MacIntel,60.0024001,60ddf72ef11f891328449fb0,64d2fd46c836a06233681665,64dc7dc754e17fa3494411ba,,,,,,,decisionTrl,resources/DBN.BMP,resources/DR.BMP,WildCard_Ex,-0.336248169,-0.077661133,1,0,0,1.0621,optionLeft,5,2875,2,11,0,11,0,1,,,,,,,,,,,,,,,,,,,,,,,,,,,,,,,,,,,,,,,
,,,,,,,,2023-08-16_08h42.12.198,HF_wild_card,2022.2.4,MacIntel,60.0024001,60ddf72ef11f891328449fb0,64d2fd46c836a06233681665,64dc7dc754e17fa3494411ba,,,,,,,decisionTrl,resources/DY.BMP,resources/DB.BMP,Door3,0.330252482,-0.006112332,1,0,0,1.1962,optionRight,70,2945,2,12,0,12,0,1,,,,,,,,,,,,,,,,,,,,,,,,,,,,,,,,,,,,,,,
,,,,,,,,2023-08-16_08h42.12.198,HF_wild_card,2022.2.4,MacIntel,60.0024001,60ddf72ef11f891328449fb0,64d2fd46c836a06233681665,64dc7dc754e17fa3494411ba,,,,,,,sngl,resources/DG.BMP,resources/Empty.png,Door2,-0.28134786,-0.00155053,1,0,0,0.8805,optionLeft,20,2965,2,13,0,13,0,1,,,,,,,,,,,,,,,,,,,,,,,,,,,,,,,,,,,,,,,
,,,,,,,,2023-08-16_08h42.12.198,HF_wild_card,2022.2.4,MacIntel,60.0024001,60ddf72ef11f891328449fb0,64d2fd46c836a06233681665,64dc7dc754e17fa3494411ba,,,,,,,ctch,resources/DY.BMP,resources/DR.BMP,Door1,0.293041382,-0.066267904,1,0,0,2.5475,optionRight,30,2995,2,14,0,14,0,1,,,,,,,,,,,,,,,,,,,,,,,,,,,,,,,,,,,,,,,
,,,,,,,,2023-08-16_08h42.12.198,HF_wild_card,2022.2.4,MacIntel,60.0024001,60ddf72ef11f891328449fb0,64d2fd46c836a06233681665,64dc7dc754e17fa3494411ba,,,,,,,decisionTrl,resources/DB.BMP,resources/DY.BMP,Door3,-0.290752055,-0.021977946,1,0,0,0.8645,optionLeft,70,3065,2,15,0,15,0,1,,,,,,,,,,,,,,,,,,,,,,,,,,,,,,,,,,,,,,,
,,,,,,,,2023-08-16_08h42.12.198,HF_wild_card,2022.2.4,MacIntel,60.0024001,60ddf72ef11f891328449fb0,64d2fd46c836a06233681665,64dc7dc754e17fa3494411ba,,,,,,,decisionTrl,resources/DB.BMP,resources/DY.BMP,Door3,-0.311865506,-0.088741998,1,0,0,0.6637,optionLeft,70,3135,2,16,0,16,0,1,,,,,,,,,,,,,,,,,,,,,,,,,,,,,,,,,,,,,,,
,,,,,,,,2023-08-16_08h42.12.198,HF_wild_card,2022.2.4,MacIntel,60.0024001,60ddf72ef11f891328449fb0,64d2fd46c836a06233681665,64dc7dc754e17fa3494411ba,,,,,,,decisionTrl,resources/DG.BMP,resources/DR.BMP,Door1,0.290196601,-0.032511224,1,0,0,4.663,optionRight,30,3165,2,17,0,17,0,1,,,,,,,,,,,,,,,,,,,,,,,,,,,,,,,,,,,,,,,
,,,,,,,,2023-08-16_08h42.12.198,HF_wild_card,2022.2.4,MacIntel,60.0024001,60ddf72ef11f891328449fb0,64d2fd46c836a06233681665,64dc7dc754e17fa3494411ba,,,,,,,decisionTrl,resources/DB.BMP,resources/DBN.BMP,WildCard_Ex,0.438716905,0.020857001,1,0,0,0.8461,optionRight,95,3260,2,18,0,18,0,1,,,,,,,,,,,,,,,,,,,,,,,,,,,,,,,,,,,,,,,
,,,,,,,,2023-08-16_08h42.12.198,HF_wild_card,2022.2.4,MacIntel,60.0024001,60ddf72ef11f891328449fb0,64d2fd46c836a06233681665,64dc7dc754e17fa3494411ba,,,,,,,decisionTrl,resources/DY.BMP,resources/DB.BMP,Door3,0.284693943,0.000872226,1,0,0,1.9625,optionRight,70,3330,2,19,0,19,0,1,,,,,,,,,,,,,,,,,,,,,,,,,,,,,,,,,,,,,,,
,,,,,,,,2023-08-16_08h42.12.198,HF_wild_card,2022.2.4,MacIntel,60.0024001,60ddf72ef11f891328449fb0,64d2fd46c836a06233681665,64dc7dc754e17fa3494411ba,,,,,,,decisionTrl,resources/DR.BMP,resources/DG.BMP,Door2,0.283839654,-0.042570394,1,0,0,2.0245,optionRight,20,3350,2,20,0,20,0,1,,,,,,,,,,,,,,,,,,,,,,,,,,,,,,,,,,,,,,,
,,,,,,,,2023-08-16_08h42.12.198,HF_wild_card,2022.2.4,MacIntel,60.0024001,60ddf72ef11f891328449fb0,64d2fd46c836a06233681665,64dc7dc754e17fa3494411ba,,,,,,,ctch,resources/DR.BMP,resources/DY.BMP,Door1,-0.335644769,-0.032309435,1,0,0,1.4125,optionLeft,30,3380,2,21,0,21,0,1,,,,,,,,,,,,,,,,,,,,,,,,,,,,,,,,,,,,,,,
,,,,,,,,2023-08-16_08h42.12.198,HF_wild_card,2022.2.4,MacIntel,60.0024001,60ddf72ef11f891328449fb0,64d2fd46c836a06233681665,64dc7dc754e17fa3494411ba,,,,,,,decisionTrl,resources/DR.BMP,resources/DBN.BMP,WildCard_Ex,0.379341634,0.030401001,1,0,0,0.7462,optionRight,95,3475,2,22,0,22,0,1,,,,,,,,,,,,,,,,,,,,,,,,,,,,,,,,,,,,,,,
,,,,,,,,2023-08-16_08h42.12.198,HF_wild_card,2022.2.4,MacIntel,60.0024001,60ddf72ef11f891328449fb0,64d2fd46c836a06233681665,64dc7dc754e17fa3494411ba,,,,,,,decisionTrl,resources/DY.BMP,resources/DBN.BMP,WildCard_Ex,0.368511692,0.009564887,1,0,0,0.7641,optionRight,95,3570,2,23,0,23,0,1,,,,,,,,,,,,,,,,,,,,,,,,,,,,,,,,,,,,,,,
,,,,,,,,2023-08-16_08h42.12.198,HF_wild_card,2022.2.4,MacIntel,60.0024001,60ddf72ef11f891328449fb0,64d2fd46c836a06233681665,64dc7dc754e17fa3494411ba,,,,,,,ctch,resources/DB.BMP,resources/DG.BMP,Door3,-0.319432576,-0.016867201,1,0,0,0.8973,optionLeft,70,3640,2,24,0,24,0,1,,,,,,,,,,,,,,,,,,,,,,,,,,,,,,,,,,,,,,,
,,,,,,,,2023-08-16_08h42.12.198,HF_wild_card,2022.2.4,MacIntel,60.0024001,60ddf72ef11f891328449fb0,64d2fd46c836a06233681665,64dc7dc754e17fa3494411ba,,,,,,,ctch,resources/DY.BMP,resources/DR.BMP,Door1,0.326840956,-0.032694906,1,0,0,1.765,optionRight,30,3670,2,25,0,25,0,1,,,,,,,,,,,,,,,,,,,,,,,,,,,,,,,,,,,,,,,
,,,,,,,,2023-08-16_08h42.12.198,HF_wild_card,2022.2.4,MacIntel,60.0024001,60ddf72ef11f891328449fb0,64d2fd46c836a06233681665,64dc7dc754e17fa3494411ba,,,,,,,sngl,resources/Empty.png,resources/DBN.BMP,WildCard_Ex,0.396839193,-0.014896952,1,0,0,0.7101,optionRight,95,3765,2,26,0,26,0,1,,,,,,,,,,,,,,,,,,,,,,,,,,,,,,,,,,,,,,,
,,,,,,,,2023-08-16_08h42.12.198,HF_wild_card,2022.2.4,MacIntel,60.0024001,60ddf72ef11f891328449fb0,64d2fd46c836a06233681665,64dc7dc754e17fa3494411ba,,,,,,,decisionTrl,resources/DBN.BMP,resources/DY.BMP,WildCard_Ex,-0.229262356,-0.06977478,1,0,0,0.9802,optionLeft,95,3860,2,27,0,27,0,1,,,,,,,,,,,,,,,,,,,,,,,,,,,,,,,,,,,,,,,
,,,,,,,,2023-08-16_08h42.12.198,HF_wild_card,2022.2.4,MacIntel,60.0024001,60ddf72ef11f891328449fb0,64d2fd46c836a06233681665,64dc7dc754e17fa3494411ba,,,,,,,ctch,resources/DG.BMP,resources/DB.BMP,Door3,0.287654419,-0.016754049,1,0,0,1.2292,optionRight,70,3930,2,28,0,28,0,1,,,,,,,,,,,,,,,,,,,,,,,,,,,,,,,,,,,,,,,
,,,,,,,,2023-08-16_08h42.12.198,HF_wild_card,2022.2.4,MacIntel,60.0024001,60ddf72ef11f891328449fb0,64d2fd46c836a06233681665,64dc7dc754e17fa3494411ba,,,,,,,sngl,resources/DB.BMP,resources/Empty.png,Door3,-0.295913696,-0.011325073,1,0,0,0.7301,optionLeft,70,4000,2,29,0,29,0,1,,,,,,,,,,,,,,,,,,,,,,,,,,,,,,,,,,,,,,,
,,,,,,,,2023-08-16_08h42.12.198,HF_wild_card,2022.2.4,MacIntel,60.0024001,60ddf72ef11f891328449fb0,64d2fd46c836a06233681665,64dc7dc754e17fa3494411ba,,,,,,,decisionTrl,resources/DR.BMP,resources/DG.BMP,Door1,-0.33240665,-0.023303663,1,0,0,2.1259,optionLeft,30,4030,2,30,0,30,0,1,,,,,,,,,,,,,,,,,,,,,,,,,,,,,,,,,,,,,,,
,,,,,,,,2023-08-16_08h42.12.198,HF_wild_card,2022.2.4,MacIntel,60.0024001,60ddf72ef11f891328449fb0,64d2fd46c836a06233681665,64dc7dc754e17fa3494411ba,,,,,,,decisionTrl,resources/DG.BMP,resources/DBN.BMP,WildCard_Ex,0.311638794,-0.047152744,1,0,0,0.862,optionRight,95,4125,2,31,0,31,0,1,,,,,,,,,,,,,,,,,,,,,,,,,,,,,,,,,,,,,,,
,,,,,,,,2023-08-16_08h42.12.198,HF_wild_card,2022.2.4,MacIntel,60.0024001,60ddf72ef11f891328449fb0,64d2fd46c836a06233681665,64dc7dc754e17fa3494411ba,,,,,,,sngl,resources/DBN.BMP,resources/Empty.png,WildCard_Ex,-0.205554335,-0.029050632,1,0,0,0.681,optionLeft,95,4220,2,32,0,32,0,1,,,,,,,,,,,,,,,,,,,,,,,,,,,,,,,,,,,,,,,
,,,,,,,,2023-08-16_08h42.12.198,HF_wild_card,2022.2.4,MacIntel,60.0024001,60ddf72ef11f891328449fb0,64d2fd46c836a06233681665,64dc7dc754e17fa3494411ba,,,,,,,sngl,resources/Empty.png,resources/DBN.BMP,WildCard_Ex,0.436272786,0.013132053,1,0,0,0.5962,optionRight,5,4225,2,33,0,33,0,1,,,,,,,,,,,,,,,,,,,,,,,,,,,,,,,,,,,,,,,
,,,,,,,,2023-08-16_08h42.12.198,HF_wild_card,2022.2.4,MacIntel,60.0024001,60ddf72ef11f891328449fb0,64d2fd46c836a06233681665,64dc7dc754e17fa3494411ba,,,,,,,decisionTrl,resources/DR.BMP,resources/DG.BMP,Door1,-0.299550578,-0.049596049,1,0,0,3.1773,optionLeft,30,4255,2,34,0,34,0,1,,,,,,,,,,,,,,,,,,,,,,,,,,,,,,,,,,,,,,,
,,,,,,,,2023-08-16_08h42.12.198,HF_wild_card,2022.2.4,MacIntel,60.0024001,60ddf72ef11f891328449fb0,64d2fd46c836a06233681665,64dc7dc754e17fa3494411ba,,,,,,,sngl,resources/Empty.png,resources/DB.BMP,Door3,0.282756958,-0.020292426,1,0,0,0.6684,optionRight,70,4325,2,35,0,35,0,1,,,,,,,,,,,,,,,,,,,,,,,,,,,,,,,,,,,,,,,
,,,,,,,,2023-08-16_08h42.12.198,HF_wild_card,2022.2.4,MacIntel,60.0024001,60ddf72ef11f891328449fb0,64d2fd46c836a06233681665,64dc7dc754e17fa3494411ba,,,,,,,decisionTrl,resources/DG.BMP,resources/DR.BMP,Door1,0.375272895,-0.022384847,1,0,0,1.8143,optionRight,30,4355,2,36,0,36,0,1,,,,,,,,,,,,,,,,,,,,,,,,,,,,,,,,,,,,,,,
,,,,,,,,2023-08-16_08h42.12.198,HF_wild_card,2022.2.4,MacIntel,60.0024001,60ddf72ef11f891328449fb0,64d2fd46c836a06233681665,64dc7dc754e17fa3494411ba,,,,,,,decisionTrl,resources/DR.BMP,resources/DG.BMP,Door1,-0.269383545,-0.0929992,1,0,0,1.7298,optionLeft,30,4385,2,37,0,37,0,1,,,,,,,,,,,,,,,,,,,,,,,,,,,,,,,,,,,,,,,
,,,,,,,,2023-08-16_08h42.12.198,HF_wild_card,2022.2.4,MacIntel,60.0024001,60ddf72ef11f891328449fb0,64d2fd46c836a06233681665,64dc7dc754e17fa3494411ba,,,,,,,decisionTrl,resources/DBN.BMP,resources/DB.BMP,WildCard_Ex,-0.235723165,-0.03089013,1,0,0,0.8321,optionLeft,95,4480,2,38,0,38,0,1,,,,,,,,,,,,,,,,,,,,,,,,,,,,,,,,,,,,,,,
,,,,,,,,2023-08-16_08h42.12.198,HF_wild_card,2022.2.4,MacIntel,60.0024001,60ddf72ef11f891328449fb0,64d2fd46c836a06233681665,64dc7dc754e17fa3494411ba,,,,,,,sngl,resources/DY.BMP,resources/Empty.png,Door4,-0.300654975,-0.04108629,1,0,0,0.9828,optionLeft,60,4540,2,39,0,39,0,1,,,,,,,,,,,,,,,,,,,,,,,,,,,,,,,,,,,,,,,
,,,,,,,,2023-08-16_08h42.12.198,HF_wild_card,2022.2.4,MacIntel,60.0024001,60ddf72ef11f891328449fb0,64d2fd46c836a06233681665,64dc7dc754e17fa3494411ba,,,,,,,sngl,resources/Empty.png,resources/DG.BMP,Door2,0.437715929,-0.034151815,1,0,0,1.0457,optionRight,40,4580,2,40,0,40,0,1,,,,,,,,,,,,,,,,,,,,,,,,,,,,,,,,,,,,,,,
,,,,,,,,2023-08-16_08h42.12.198,HF_wild_card,2022.2.4,MacIntel,60.0024001,60ddf72ef11f891328449fb0,64d2fd46c836a06233681665,64dc7dc754e17fa3494411ba,,,,,,,decisionTrl,resources/DBN.BMP,resources/DG.BMP,WildCard_Ex,-0.331058078,-0.053483887,1,0,0,0.8633,optionLeft,5,4585,2,41,0,41,0,1,,,,,,,,,,,,,,,,,,,,,,,,,,,,,,,,,,,,,,,
,,,,,,,,2023-08-16_08h42.12.198,HF_wild_card,2022.2.4,MacIntel,60.0024001,60ddf72ef11f891328449fb0,64d2fd46c836a06233681665,64dc7dc754e17fa3494411ba,,,,,,,sngl,resources/Empty.png,resources/DY.BMP,Door4,0.442821452,0.015030992,1,0,0,0.6828,optionRight,80,4665,2,42,0,42,0,1,,,,,,,,,,,,,,,,,,,,,,,,,,,,,,,,,,,,,,,
,,,,,,,,2023-08-16_08h42.12.198,HF_wild_card,2022.2.4,MacIntel,60.0024001,60ddf72ef11f891328449fb0,64d2fd46c836a06233681665,64dc7dc754e17fa3494411ba,,,,,,,ctch,resources/DB.BMP,resources/DG.BMP,Door3,-0.287587416,-0.036376377,1,0,0,0.9289,optionLeft,70,4735,2,43,0,43,0,1,,,,,,,,,,,,,,,,,,,,,,,,,,,,,,,,,,,,,,,
,,,,,,,,2023-08-16_08h42.12.198,HF_wild_card,2022.2.4,MacIntel,60.0024001,60ddf72ef11f891328449fb0,64d2fd46c836a06233681665,64dc7dc754e17fa3494411ba,,,,,,,,,,,,,,,,,,,,,,,,,,1,0,1,0,1,,,,,,,,,,,,,,,,,,,,,,,,,,,,,,,,,,
,,,,,,,,2023-08-16_08h42.12.198,HF_wild_card,2022.2.4,MacIntel,60.0024001,60ddf72ef11f891328449fb0,64d2fd46c836a06233681665,64dc7dc754e17fa3494411ba,,,,,,,decisionTrl,resources/DG.BMP,resources/DR.BMP,Door1,0.254845039,-0.097765842,1,0,0,1.5577,optionRight,30,4765,3,0,0,0,0,1,,,,,,,,,,,,,,,,,,,,,,,,,,,,,,,,,,,,,,,
,,,,,,,,2023-08-16_08h42.12.198,HF_wild_card,2022.2.4,MacIntel,60.0024001,60ddf72ef11f891328449fb0,64d2fd46c836a06233681665,64dc7dc754e17fa3494411ba,,,,,,,sngl,resources/Empty.png,resources/DBN.BMP,WildCard_Ex,0.411645372,0.003922085,1,0,0,0.7612,optionRight,5,4770,3,1,0,1,0,1,,,,,,,,,,,,,,,,,,,,,,,,,,,,,,,,,,,,,,,
,,,,,,,,2023-08-16_08h42.12.198,HF_wild_card,2022.2.4,MacIntel,60.0024001,60ddf72ef11f891328449fb0,64d2fd46c836a06233681665,64dc7dc754e17fa3494411ba,,,,,,,sngl,resources/Empty.png,resources/DY.BMP,Door4,0.294238892,-0.034788038,1,0,0,0.6455,optionRight,60,4830,3,2,0,2,0,1,,,,,,,,,,,,,,,,,,,,,,,,,,,,,,,,,,,,,,,
,,,,,,,,2023-08-16_08h42.12.198,HF_wild_card,2022.2.4,MacIntel,60.0024001,60ddf72ef11f891328449fb0,64d2fd46c836a06233681665,64dc7dc754e17fa3494411ba,,,,,,,ctch,resources/DY.BMP,resources/DR.BMP,Door4,-0.39454912,-0.044053141,1,0,0,0.9984,optionLeft,80,4910,3,3,0,3,0,1,,,,,,,,,,,,,,,,,,,,,,,,,,,,,,,,,,,,,,,
,,,,,,,,2023-08-16_08h42.12.198,HF_wild_card,2022.2.4,MacIntel,60.0024001,60ddf72ef11f891328449fb0,64d2fd46c836a06233681665,64dc7dc754e17fa3494411ba,,,,,,,ctch,resources/DB.BMP,resources/DG.BMP,Door3,-0.400276354,-0.079351807,1,0,0,0.9463,optionLeft,70,4980,3,4,0,4,0,1,,,,,,,,,,,,,,,,,,,,,,,,,,,,,,,,,,,,,,,
,,,,,,,,2023-08-16_08h42.12.198,HF_wild_card,2022.2.4,MacIntel,60.0024001,60ddf72ef11f891328449fb0,64d2fd46c836a06233681665,64dc7dc754e17fa3494411ba,,,,,,,decisionTrl,resources/DB.BMP,resources/DY.BMP,Door4,0.358126763,-0.012885267,1,0,0,0.6612,optionRight,80,5060,3,5,0,5,0,1,,,,,,,,,,,,,,,,,,,,,,,,,,,,,,,,,,,,,,,
,,,,,,,,2023-08-16_08h42.12.198,HF_wild_card,2022.2.4,MacIntel,60.0024001,60ddf72ef11f891328449fb0,64d2fd46c836a06233681665,64dc7dc754e17fa3494411ba,,,,,,,sngl,resources/DBN.BMP,resources/Empty.png,WildCard_Ex,-0.296572435,-0.026112807,1,0,0,0.6966,optionLeft,5,5065,3,6,0,6,0,1,,,,,,,,,,,,,,,,,,,,,,,,,,,,,,,,,,,,,,,
,,,,,,,,2023-08-16_08h42.12.198,HF_wild_card,2022.2.4,MacIntel,60.0024001,60ddf72ef11f891328449fb0,64d2fd46c836a06233681665,64dc7dc754e17fa3494411ba,,,,,,,ctch,resources/DB.BMP,resources/DG.BMP,Door3,-0.207210761,-0.028949822,1,0,0,0.9286,optionLeft,70,5135,3,7,0,7,0,1,,,,,,,,,,,,,,,,,,,,,,,,,,,,,,,,,,,,,,,
,,,,,,,,2023-08-16_08h42.12.198,HF_wild_card,2022.2.4,MacIntel,60.0024001,60ddf72ef11f891328449fb0,64d2fd46c836a06233681665,64dc7dc754e17fa3494411ba,,,,,,,decisionTrl,resources/DR.BMP,resources/DG.BMP,Door1,-0.219381104,-0.025592109,1,0,0,1.8474,optionLeft,30,5165,3,8,0,8,0,1,,,,,,,,,,,,,,,,,,,,,,,,,,,,,,,,,,,,,,,
,,,,,,,,2023-08-16_08h42.12.198,HF_wild_card,2022.2.4,MacIntel,60.0024001,60ddf72ef11f891328449fb0,64d2fd46c836a06233681665,64dc7dc754e17fa3494411ba,,,,,,,decisionTrl,resources/DY.BMP,resources/DB.BMP,Door4,-0.374860874,-0.027755025,1,0,0,0.863,optionLeft,60,5225,3,9,0,9,0,1,,,,,,,,,,,,,,,,,,,,,,,,,,,,,,,,,,,,,,,
,,,,,,,,2023-08-16_08h42.12.198,HF_wild_card,2022.2.4,MacIntel,60.0024001,60ddf72ef11f891328449fb0,64d2fd46c836a06233681665,64dc7dc754e17fa3494411ba,,,,,,,decisionTrl,resources/DBN.BMP,resources/DY.BMP,WildCard_Ex,-0.419514398,-0.02774448,1,0,0,0.9118,optionLeft,5,5230,3,10,0,10,0,1,,,,,,,,,,,,,,,,,,,,,,,,,,,,,,,,,,,,,,,
,,,,,,,,2023-08-16_08h42.12.198,HF_wild_card,2022.2.4,MacIntel,60.0024001,60ddf72ef11f891328449fb0,64d2fd46c836a06233681665,64dc7dc754e17fa3494411ba,,,,,,,ctch,resources/DR.BMP,resources/DY.BMP,Door4,0.332559136,0.003848809,1,0,0,2.8772,optionRight,80,5310,3,11,0,11,0,1,,,,,,,,,,,,,,,,,,,,,,,,,,,,,,,,,,,,,,,
,,,,,,,,2023-08-16_08h42.12.198,HF_wild_card,2022.2.4,MacIntel,60.0024001,60ddf72ef11f891328449fb0,64d2fd46c836a06233681665,64dc7dc754e17fa3494411ba,,,,,,,decisionTrl,resources/DG.BMP,resources/DBN.BMP,WildCard_Ex,0.285200602,0.046098022,1,0,0,0.8309,optionRight,95,5405,3,12,0,12,0,1,,,,,,,,,,,,,,,,,,,,,,,,,,,,,,,,,,,,,,,
,,,,,,,,2023-08-16_08h42.12.198,HF_wild_card,2022.2.4,MacIntel,60.0024001,60ddf72ef11f891328449fb0,64d2fd46c836a06233681665,64dc7dc754e17fa3494411ba,,,,,,,decisionTrl,resources/DY.BMP,resources/DB.BMP,Door4,-0.331903788,-0.058118693,1,0,0,1.5125,optionLeft,80,5485,3,13,0,13,0,1,,,,,,,,,,,,,,,,,,,,,,,,,,,,,,,,,,,,,,,
,,,,,,,,2023-08-16_08h42.12.198,HF_wild_card,2022.2.4,MacIntel,60.0024001,60ddf72ef11f891328449fb0,64d2fd46c836a06233681665,64dc7dc754e17fa3494411ba,,,,,,,decisionTrl,resources/DG.BMP,resources/DR.BMP,Door1,0.347101373,0.030839572,1,0,0,1.4608,optionRight,30,5515,3,14,0,14,0,1,,,,,,,,,,,,,,,,,,,,,,,,,,,,,,,,,,,,,,,
,,,,,,,,2023-08-16_08h42.12.198,HF_wild_card,2022.2.4,MacIntel,60.0024001,60ddf72ef11f891328449fb0,64d2fd46c836a06233681665,64dc7dc754e17fa3494411ba,,,,,,,ctch,resources/DY.BMP,resources/DR.BMP,Door4,-0.292351244,-0.020525445,1,0,0,1.1283,optionLeft,80,5595,3,15,0,15,0,1,,,,,,,,,,,,,,,,,,,,,,,,,,,,,,,,,,,,,,,
,,,,,,,,2023-08-16_08h42.12.198,HF_wild_card,2022.2.4,MacIntel,60.0024001,60ddf72ef11f891328449fb0,64d2fd46c836a06233681665,64dc7dc754e17fa3494411ba,,,,,,,decisionTrl,resources/DG.BMP,resources/DR.BMP,Door1,0.367145996,-0.058876953,1,0,0,1.2802,optionRight,30,5625,3,16,0,16,0,1,,,,,,,,,,,,,,,,,,,,,,,,,,,,,,,,,,,,,,,
,,,,,,,,2023-08-16_08h42.12.198,HF_wild_card,2022.2.4,MacIntel,60.0024001,60ddf72ef11f891328449fb0,64d2fd46c836a06233681665,64dc7dc754e17fa3494411ba,,,,,,,decisionTrl,resources/DR.BMP,resources/DG.BMP,Door1,-0.218310411,-0.062785916,1,0,0,1.4143,optionLeft,30,5655,3,17,0,17,0,1,,,,,,,,,,,,,,,,,,,,,,,,,,,,,,,,,,,,,,,
,,,,,,,,2023-08-16_08h42.12.198,HF_wild_card,2022.2.4,MacIntel,60.0024001,60ddf72ef11f891328449fb0,64d2fd46c836a06233681665,64dc7dc754e17fa3494411ba,,,,,,,decisionTrl,resources/DB.BMP,resources/DY.BMP,Door4,0.309784749,-0.037566935,1,0,0,1.2448,optionRight,60,5715,3,18,0,18,0,1,,,,,,,,,,,,,,,,,,,,,,,,,,,,,,,,,,,,,,,
,,,,,,,,2023-08-16_08h42.12.198,HF_wild_card,2022.2.4,MacIntel,60.0024001,60ddf72ef11f891328449fb0,64d2fd46c836a06233681665,64dc7dc754e17fa3494411ba,,,,,,,ctch,resources/DR.BMP,resources/DY.BMP,Door4,0.318561266,-0.007492879,1,0,0,1.0765,optionRight,80,5795,3,19,0,19,0,1,,,,,,,,,,,,,,,,,,,,,,,,,,,,,,,,,,,,,,,
,,,,,,,,2023-08-16_08h42.12.198,HF_wild_card,2022.2.4,MacIntel,60.0024001,60ddf72ef11f891328449fb0,64d2fd46c836a06233681665,64dc7dc754e17fa3494411ba,,,,,,,sngl,resources/DG.BMP,resources/Empty.png,Door2,-0.362423231,-0.042879978,1,0,0,0.9982,optionLeft,40,5835,3,20,0,20,0,1,,,,,,,,,,,,,,,,,,,,,,,,,,,,,,,,,,,,,,,
,,,,,,,,2023-08-16_08h42.12.198,HF_wild_card,2022.2.4,MacIntel,60.0024001,60ddf72ef11f891328449fb0,64d2fd46c836a06233681665,64dc7dc754e17fa3494411ba,,,,,,,sngl,resources/Empty.png,resources/DR.BMP,Door1,0.293765394,0.020971103,1,0,0,0.7287,optionRight,30,5865,3,21,0,21,0,1,,,,,,,,,,,,,,,,,,,,,,,,,,,,,,,,,,,,,,,
,,,,,,,,2023-08-16_08h42.12.198,HF_wild_card,2022.2.4,MacIntel,60.0024001,60ddf72ef11f891328449fb0,64d2fd46c836a06233681665,64dc7dc754e17fa3494411ba,,,,,,,sngl,resources/DB.BMP,resources/Empty.png,Door3,-0.29856859,-0.020621406,1,0,0,0.6932,optionLeft,70,5935,3,22,0,22,0,1,,,,,,,,,,,,,,,,,,,,,,,,,,,,,,,,,,,,,,,
,,,,,,,,2023-08-16_08h42.12.198,HF_wild_card,2022.2.4,MacIntel,60.0024001,60ddf72ef11f891328449fb0,64d2fd46c836a06233681665,64dc7dc754e17fa3494411ba,,,,,,,decisionTrl,resources/DY.BMP,resources/DB.BMP,Door4,-0.324579163,-0.022819078,1,0,0,1.0962,optionLeft,60,5995,3,23,0,23,0,1,,,,,,,,,,,,,,,,,,,,,,,,,,,,,,,,,,,,,,,
,,,,,,,,2023-08-16_08h42.12.198,HF_wild_card,2022.2.4,MacIntel,60.0024001,60ddf72ef11f891328449fb0,64d2fd46c836a06233681665,64dc7dc754e17fa3494411ba,,,,,,,decisionTrl,resources/DR.BMP,resources/DG.BMP,Door1,-0.288604804,-0.047888455,1,0,0,1.4128,optionLeft,30,6025,3,24,0,24,0,1,,,,,,,,,,,,,,,,,,,,,,,,,,,,,,,,,,,,,,,
,,,,,,,,2023-08-16_08h42.12.198,HF_wild_card,2022.2.4,MacIntel,60.0024001,60ddf72ef11f891328449fb0,64d2fd46c836a06233681665,64dc7dc754e17fa3494411ba,,,,,,,decisionTrl,resources/DB.BMP,resources/DY.BMP,Door3,-0.297604641,-0.034268324,1,0,0,1.13,optionLeft,70,6095,3,25,0,25,0,1,,,,,,,,,,,,,,,,,,,,,,,,,,,,,,,,,,,,,,,
,,,,,,,,2023-08-16_08h42.12.198,HF_wild_card,2022.2.4,MacIntel,60.0024001,60ddf72ef11f891328449fb0,64d2fd46c836a06233681665,64dc7dc754e17fa3494411ba,,,,,,,decisionTrl,resources/DB.BMP,resources/DY.BMP,Door4,0.316310696,-0.019532335,1,0,0,1.5975,optionRight,60,6155,3,26,0,26,0,1,,,,,,,,,,,,,,,,,,,,,,,,,,,,,,,,,,,,,,,
,,,,,,,,2023-08-16_08h42.12.198,HF_wild_card,2022.2.4,MacIntel,60.0024001,60ddf72ef11f891328449fb0,64d2fd46c836a06233681665,64dc7dc754e17fa3494411ba,,,,,,,sngl,resources/Empty.png,resources/DB.BMP,Door3,0.262076009,-0.040477193,1,0,0,0.6594,optionRight,70,6225,3,27,0,27,0,1,,,,,,,,,,,,,,,,,,,,,,,,,,,,,,,,,,,,,,,
,,,,,,,,2023-08-16_08h42.12.198,HF_wild_card,2022.2.4,MacIntel,60.0024001,60ddf72ef11f891328449fb0,64d2fd46c836a06233681665,64dc7dc754e17fa3494411ba,,,,,,,decisionTrl,resources/DR.BMP,resources/DBN.BMP,WildCard_Ex,0.235809733,-0.022038778,1,0,0,0.7952,optionRight,95,6320,3,28,0,28,0,1,,,,,,,,,,,,,,,,,,,,,,,,,,,,,,,,,,,,,,,
,,,,,,,,2023-08-16_08h42.12.198,HF_wild_card,2022.2.4,MacIntel,60.0024001,60ddf72ef11f891328449fb0,64d2fd46c836a06233681665,64dc7dc754e17fa3494411ba,,,,,,,sngl,resources/Empty.png,resources/DG.BMP,Door2,0.406259901,-0.017652622,1,0,0,1.4477,optionRight,20,6340,3,29,0,29,0,1,,,,,,,,,,,,,,,,,,,,,,,,,,,,,,,,,,,,,,,
,,,,,,,,2023-08-16_08h42.12.198,HF_wild_card,2022.2.4,MacIntel,60.0024001,60ddf72ef11f891328449fb0,64d2fd46c836a06233681665,64dc7dc754e17fa3494411ba,,,,,,,sngl,resources/DBN.BMP,resources/Empty.png,WildCard_Ex,-0.231028307,-0.029827237,1,0,0,0.7932,optionLeft,95,6435,3,30,0,30,0,1,,,,,,,,,,,,,,,,,,,,,,,,,,,,,,,,,,,,,,,
,,,,,,,,2023-08-16_08h42.12.198,HF_wild_card,2022.2.4,MacIntel,60.0024001,60ddf72ef11f891328449fb0,64d2fd46c836a06233681665,64dc7dc754e17fa3494411ba,,,,,,,decisionTrl,resources/DR.BMP,resources/DG.BMP,Door1,-0.393197869,-0.032074653,1,0,0,1.0453,optionLeft,30,6465,3,31,0,31,0,1,,,,,,,,,,,,,,,,,,,,,,,,,,,,,,,,,,,,,,,
,,,,,,,,2023-08-16_08h42.12.198,HF_wild_card,2022.2.4,MacIntel,60.0024001,60ddf72ef11f891328449fb0,64d2fd46c836a06233681665,64dc7dc754e17fa3494411ba,,,,,,,decisionTrl,resources/DY.BMP,resources/DBN.BMP,WildCard_Ex,0.276516385,-0.016322767,1,0,0,1.046,optionRight,5,6470,3,32,0,32,0,1,,,,,,,,,,,,,,,,,,,,,,,,,,,,,,,,,,,,,,,
,,,,,,,,2023-08-16_08h42.12.198,HF_wild_card,2022.2.4,MacIntel,60.0024001,60ddf72ef11f891328449fb0,64d2fd46c836a06233681665,64dc7dc754e17fa3494411ba,,,,,,,decisionTrl,resources/DBN.BMP,resources/DG.BMP,WildCard_Ex,-0.334581333,-0.042419366,1,0,0,0.7293,optionLeft,95,6565,3,33,0,33,0,1,,,,,,,,,,,,,,,,,,,,,,,,,,,,,,,,,,,,,,,
,,,,,,,,2023-08-16_08h42.12.198,HF_wild_card,2022.2.4,MacIntel,60.0024001,60ddf72ef11f891328449fb0,64d2fd46c836a06233681665,64dc7dc754e17fa3494411ba,,,,,,,sngl,resources/DR.BMP,resources/Empty.png,Door1,-0.411223043,-0.043206245,1,0,0,0.698,optionLeft,30,6595,3,34,0,34,0,1,,,,,,,,,,,,,,,,,,,,,,,,,,,,,,,,,,,,,,,
,,,,,,,,2023-08-16_08h42.12.198,HF_wild_card,2022.2.4,MacIntel,60.0024001,60ddf72ef11f891328449fb0,64d2fd46c836a06233681665,64dc7dc754e17fa3494411ba,,,,,,,decisionTrl,resources/DY.BMP,resources/DB.BMP,Door4,-0.472031148,-0.094575806,1,0,0,1.841,optionLeft,60,6655,3,35,0,35,0,1,,,,,,,,,,,,,,,,,,,,,,,,,,,,,,,,,,,,,,,
,,,,,,,,2023-08-16_08h42.12.198,HF_wild_card,2022.2.4,MacIntel,60.0024001,60ddf72ef11f891328449fb0,64d2fd46c836a06233681665,64dc7dc754e17fa3494411ba,,,,,,,ctch,resources/DG.BMP,resources/DB.BMP,Door3,0.271385362,0.00227339,1,0,0,0.864,optionRight,70,6725,3,36,0,36,0,1,,,,,,,,,,,,,,,,,,,,,,,,,,,,,,,,,,,,,,,
,,,,,,,,2023-08-16_08h42.12.198,HF_wild_card,2022.2.4,MacIntel,60.0024001,60ddf72ef11f891328449fb0,64d2fd46c836a06233681665,64dc7dc754e17fa3494411ba,,,,,,,decisionTrl,resources/DB.BMP,resources/DBN.BMP,WildCard_Ex,0.318707343,-0.005737983,1,0,0,0.8765,optionRight,5,6730,3,37,0,37,0,1,,,,,,,,,,,,,,,,,,,,,,,,,,,,,,,,,,,,,,,
,,,,,,,,2023-08-16_08h42.12.198,HF_wild_card,2022.2.4,MacIntel,60.0024001,60ddf72ef11f891328449fb0,64d2fd46c836a06233681665,64dc7dc754e17fa3494411ba,,,,,,,sngl,resources/Empty.png,resources/DBN.BMP,WildCard_Ex,0.299430542,-0.006562297,1,0,0,0.6951,optionRight,95,6825,3,38,0,38,0,1,,,,,,,,,,,,,,,,,,,,,,,,,,,,,,,,,,,,,,,
,,,,,,,,2023-08-16_08h42.12.198,HF_wild_card,2022.2.4,MacIntel,60.0024001,60ddf72ef11f891328449fb0,64d2fd46c836a06233681665,64dc7dc754e17fa3494411ba,,,,,,,decisionTrl,resources/DG.BMP,resources/DR.BMP,Door1,0.403595378,-0.012729424,1,0,0,2.03,optionRight,30,6855,3,39,0,39,0,1,,,,,,,,,,,,,,,,,,,,,,,,,,,,,,,,,,,,,,,
,,,,,,,,2023-08-16_08h42.12.198,HF_wild_card,2022.2.4,MacIntel,60.0024001,60ddf72ef11f891328449fb0,64d2fd46c836a06233681665,64dc7dc754e17fa3494411ba,,,,,,,decisionTrl,resources/DBN.BMP,resources/DB.BMP,WildCard_Ex,-0.299371338,-0.00068807,1,0,0,0.7611,optionLeft,5,6860,3,40,0,40,0,1,,,,,,,,,,,,,,,,,,,,,,,,,,,,,,,,,,,,,,,
,,,,,,,,2023-08-16_08h42.12.198,HF_wild_card,2022.2.4,MacIntel,60.0024001,60ddf72ef11f891328449fb0,64d2fd46c836a06233681665,64dc7dc754e17fa3494411ba,,,,,,,sngl,resources/DY.BMP,resources/Empty.png,Door4,-0.188268161,-0.006793009,1,0,0,0.6627,optionLeft,80,6940,3,41,0,41,0,1,,,,,,,,,,,,,,,,,,,,,,,,,,,,,,,,,,,,,,,
,,,,,,,,2023-08-16_08h42.12.198,HF_wild_card,2022.2.4,MacIntel,60.0024001,60ddf72ef11f891328449fb0,64d2fd46c836a06233681665,64dc7dc754e17fa3494411ba,,,,,,,decisionTrl,resources/DBN.BMP,resources/DR.BMP,WildCard_Ex,-0.358853895,-0.02286811,1,0,0,1.3108,optionLeft,95,7035,3,42,0,42,0,1,,,,,,,,,,,,,,,,,,,,,,,,,,,,,,,,,,,,,,,
,,,,,,,,2023-08-16_08h42.12.198,HF_wild_card,2022.2.4,MacIntel,60.0024001,60ddf72ef11f891328449fb0,64d2fd46c836a06233681665,64dc7dc754e17fa3494411ba,,,,,,,ctch,resources/DG.BMP,resources/DB.BMP,Door3,0.277210965,-0.019422201,1,0,0,0.8491,optionRight,70,7105,3,43,0,43,0,1,,,,,,,,,,,,,,,,,,,,,,,,,,,,,,,,,,,,,,,
,,,,,,,,2023-08-16_08h42.12.198,HF_wild_card,2022.2.4,MacIntel,60.0024001,60ddf72ef11f891328449fb0,64d2fd46c836a06233681665,64dc7dc754e17fa3494411ba,,,,,,,,,,,,,,,,,,,,,,,,,,2,0,2,0,1,,,,,,,,,,,,,,,,,,,,,,,,,,,,,,,,,,
,,,,,,,,2023-08-16_08h42.12.198,HF_wild_card,2022.2.4,MacIntel,60.0024001,60ddf72ef11f891328449fb0,64d2fd46c836a06233681665,64dc7dc754e17fa3494411ba,,,,,,,decisionTrl,resources/DY.BMP,resources/DP.BMP,WildCard_NonEx,0.427145182,-0.029290432,1,0,0,6.8644,optionRight,55,7160,4,0,0,0,0,1,,,,,,,,,,,,,,,,,,,,,,,,,,,,,,,,,,,,,,,
,,,,,,,,2023-08-16_08h42.12.198,HF_wild_card,2022.2.4,MacIntel,60.0024001,60ddf72ef11f891328449fb0,64d2fd46c836a06233681665,64dc7dc754e17fa3494411ba,,,,,,,decisionTrl,resources/DY.BMP,resources/DB.BMP,Door4,-0.483834907,-0.01575826,1,0,0,1.263,optionLeft,60,7220,4,1,0,1,0,1,,,,,,,,,,,,,,,,,,,,,,,,,,,,,,,,,,,,,,,
,,,,,,,,2023-08-16_08h42.12.198,HF_wild_card,2022.2.4,MacIntel,60.0024001,60ddf72ef11f891328449fb0,64d2fd46c836a06233681665,64dc7dc754e17fa3494411ba,,,,,,,decisionTrl,resources/DY.BMP,resources/DB.BMP,Door3,0.384190674,-0.000492961,1,0,0,0.8131,optionRight,70,7290,4,2,0,2,0,1,,,,,,,,,,,,,,,,,,,,,,,,,,,,,,,,,,,,,,,
,,,,,,,,2023-08-16_08h42.12.198,HF_wild_card,2022.2.4,MacIntel,60.0024001,60ddf72ef11f891328449fb0,64d2fd46c836a06233681665,64dc7dc754e17fa3494411ba,,,,,,,decisionTrl,resources/DB.BMP,resources/DY.BMP,Door3,-0.421897413,0.011549445,1,0,0,0.7941,optionLeft,70,7360,4,3,0,3,0,1,,,,,,,,,,,,,,,,,,,,,,,,,,,,,,,,,,,,,,,
,,,,,,,,2023-08-16_08h42.12.198,HF_wild_card,2022.2.4,MacIntel,60.0024001,60ddf72ef11f891328449fb0,64d2fd46c836a06233681665,64dc7dc754e17fa3494411ba,,,,,,,decisionTrl,resources/DG.BMP,resources/DR.BMP,Door1,0.378407796,-0.016548598,1,0,0,1.0917,optionRight,30,7390,4,4,0,4,0,1,,,,,,,,,,,,,,,,,,,,,,,,,,,,,,,,,,,,,,,
,,,,,,,,2023-08-16_08h42.12.198,HF_wild_card,2022.2.4,MacIntel,60.0024001,60ddf72ef11f891328449fb0,64d2fd46c836a06233681665,64dc7dc754e17fa3494411ba,,,,,,,sngl,resources/DY.BMP,resources/Empty.png,Door4,-0.436731127,-0.033988647,1,0,0,0.7811,optionLeft,60,7450,4,5,0,5,0,1,,,,,,,,,,,,,,,,,,,,,,,,,,,,,,,,,,,,,,,
,,,,,,,,2023-08-16_08h42.12.198,HF_wild_card,2022.2.4,MacIntel,60.0024001,60ddf72ef11f891328449fb0,64d2fd46c836a06233681665,64dc7dc754e17fa3494411ba,,,,,,,decisionTrl,resources/DY.BMP,resources/DB.BMP,Door3,0.417313504,-0.036622314,1,0,0,0.7809,optionRight,70,7520,4,6,0,6,0,1,,,,,,,,,,,,,,,,,,,,,,,,,,,,,,,,,,,,,,,
,,,,,,,,2023-08-16_08h42.12.198,HF_wild_card,2022.2.4,MacIntel,60.0024001,60ddf72ef11f891328449fb0,64d2fd46c836a06233681665,64dc7dc754e17fa3494411ba,,,,,,,sngl,resources/Empty.png,resources/DP.BMP,WildCard_NonEx,0.371924235,-0.059792955,1,0,0,0.7618,optionRight,45,7565,4,7,0,7,0,1,,,,,,,,,,,,,,,,,,,,,,,,,,,,,,,,,,,,,,,
,,,,,,,,2023-08-16_08h42.12.198,HF_wild_card,2022.2.4,MacIntel,60.0024001,60ddf72ef11f891328449fb0,64d2fd46c836a06233681665,64dc7dc754e17fa3494411ba,,,,,,,decisionTrl,resources/DG.BMP,resources/DR.BMP,Door1,0.387393934,-0.034467502,1,0,0,1.346,optionRight,30,7595,4,8,0,8,0,1,,,,,,,,,,,,,,,,,,,,,,,,,,,,,,,,,,,,,,,
,,,,,,,,2023-08-16_08h42.12.198,HF_wild_card,2022.2.4,MacIntel,60.0024001,60ddf72ef11f891328449fb0,64d2fd46c836a06233681665,64dc7dc754e17fa3494411ba,,,,,,,sngl,resources/DR.BMP,resources/Empty.png,Door1,-0.478417901,-0.014076402,1,0,0,0.7626,optionLeft,30,7625,4,9,0,9,0,1,,,,,,,,,,,,,,,,,,,,,,,,,,,,,,,,,,,,,,,
,,,,,,,,2023-08-16_08h42.12.198,HF_wild_card,2022.2.4,MacIntel,60.0024001,60ddf72ef11f891328449fb0,64d2fd46c836a06233681665,64dc7dc754e17fa3494411ba,,,,,,,ctch,resources/DR.BMP,resources/DY.BMP,Door4,0.285132175,-0.043587579,1,0,0,1.1287,optionRight,60,7685,4,10,0,10,0,1,,,,,,,,,,,,,,,,,,,,,,,,,,,,,,,,,,,,,,,
,,,,,,,,2023-08-16_08h42.12.198,HF_wild_card,2022.2.4,MacIntel,60.0024001,60ddf72ef11f891328449fb0,64d2fd46c836a06233681665,64dc7dc754e17fa3494411ba,,,,,,,decisionTrl,resources/DR.BMP,resources/DG.BMP,Door1,-0.352652995,-0.029706557,1,0,0,1.4298,optionLeft,30,7715,4,11,0,11,0,1,,,,,,,,,,,,,,,,,,,,,,,,,,,,,,,,,,,,,,,
,,,,,,,,2023-08-16_08h42.12.198,HF_wild_card,2022.2.4,MacIntel,60.0024001,60ddf72ef11f891328449fb0,64d2fd46c836a06233681665,64dc7dc754e17fa3494411ba,,,,,,,decisionTrl,resources/DR.BMP,resources/DG.BMP,Door1,-0.418129645,-0.08615214,1,0,0,4.1956,optionLeft,30,7745,4,12,0,12,0,1,,,,,,,,,,,,,,,,,,,,,,,,,,,,,,,,,,,,,,,
,,,,,,,,2023-08-16_08h42.12.198,HF_wild_card,2022.2.4,MacIntel,60.0024001,60ddf72ef11f891328449fb0,64d2fd46c836a06233681665,64dc7dc754e17fa3494411ba,,,,,,,sngl,resources/Empty.png,resources/DB.BMP,Door3,0.449878201,-0.093757528,1,0,0,0.7487,optionRight,70,7815,4,13,0,13,0,1,,,,,,,,,,,,,,,,,,,,,,,,,,,,,,,,,,,,,,,
,,,,,,,,2023-08-16_08h42.12.198,HF_wild_card,2022.2.4,MacIntel,60.0024001,60ddf72ef11f891328449fb0,64d2fd46c836a06233681665,64dc7dc754e17fa3494411ba,,,,,,,decisionTrl,resources/DB.BMP,resources/DY.BMP,Door3,-0.508798964,-0.046527947,1,0,0,0.863,optionLeft,70,7885,4,14,0,14,0,1,,,,,,,,,,,,,,,,,,,,,,,,,,,,,,,,,,,,,,,
,,,,,,,,2023-08-16_08h42.12.198,HF_wild_card,2022.2.4,MacIntel,60.0024001,60ddf72ef11f891328449fb0,64d2fd46c836a06233681665,64dc7dc754e17fa3494411ba,,,,,,,sngl,resources/Empty.png,resources/DG.BMP,Door2,0.432086589,-0.107521566,1,0,0,1.0284,optionRight,40,7925,4,15,0,15,0,1,,,,,,,,,,,,,,,,,,,,,,,,,,,,,,,,,,,,,,,
,,,,,,,,2023-08-16_08h42.12.198,HF_wild_card,2022.2.4,MacIntel,60.0024001,60ddf72ef11f891328449fb0,64d2fd46c836a06233681665,64dc7dc754e17fa3494411ba,,,,,,,sngl,resources/DB.BMP,resources/Empty.png,Door3,-0.473908556,-0.017384101,1,0,0,0.6488,optionLeft,70,7995,4,16,0,16,0,1,,,,,,,,,,,,,,,,,,,,,,,,,,,,,,,,,,,,,,,
,,,,,,,,2023-08-16_08h42.12.198,HF_wild_card,2022.2.4,MacIntel,60.0024001,60ddf72ef11f891328449fb0,64d2fd46c836a06233681665,64dc7dc754e17fa3494411ba,,,,,,,decisionTrl,resources/DG.BMP,resources/DR.BMP,Door1,0.355438368,-0.017942132,1,0,0,1.0102,optionRight,30,8025,4,17,0,17,0,1,,,,,,,,,,,,,,,,,,,,,,,,,,,,,,,,,,,,,,,
,,,,,,,,2023-08-16_08h42.12.198,HF_wild_card,2022.2.4,MacIntel,60.0024001,60ddf72ef11f891328449fb0,64d2fd46c836a06233681665,64dc7dc754e17fa3494411ba,,,,,,,decisionTrl,resources/DB.BMP,resources/DY.BMP,Door3,-0.419597846,0.008728434,1,0,0,1.5125,optionLeft,70,8095,4,18,0,18,0,1,,,,,,,,,,,,,,,,,,,,,,,,,,,,,,,,,,,,,,,
,,,,,,,,2023-08-16_08h42.12.198,HF_wild_card,2022.2.4,MacIntel,60.0024001,60ddf72ef11f891328449fb0,64d2fd46c836a06233681665,64dc7dc754e17fa3494411ba,,,,,,,sngl,resources/DP.BMP,resources/Empty.png,WildCard_NonEx,-0.406526557,-0.039001567,1,0,0,0.7625,optionLeft,55,8150,4,19,0,19,0,1,,,,,,,,,,,,,,,,,,,,,,,,,,,,,,,,,,,,,,,
,,,,,,,,2023-08-16_08h42.12.198,HF_wild_card,2022.2.4,MacIntel,60.0024001,60ddf72ef11f891328449fb0,64d2fd46c836a06233681665,64dc7dc754e17fa3494411ba,,,,,,,ctch,resources/DY.BMP,resources/DR.BMP,Door4,-0.402583788,-0.066618652,1,0,0,1.5165,optionLeft,80,8230,4,20,0,20,0,1,,,,,,,,,,,,,,,,,,,,,,,,,,,,,,,,,,,,,,,
,,,,,,,,2023-08-16_08h42.12.198,HF_wild_card,2022.2.4,MacIntel,60.0024001,60ddf72ef11f891328449fb0,64d2fd46c836a06233681665,64dc7dc754e17fa3494411ba,,,,,,,sngl,resources/Empty.png,resources/DR.BMP,Door1,0.319152425,-0.050575968,1,0,0,0.6969,optionRight,30,8260,4,21,0,21,0,1,,,,,,,,,,,,,,,,,,,,,,,,,,,,,,,,,,,,,,,
,,,,,,,,2023-08-16_08h42.12.198,HF_wild_card,2022.2.4,MacIntel,60.0024001,60ddf72ef11f891328449fb0,64d2fd46c836a06233681665,64dc7dc754e17fa3494411ba,,,,,,,decisionTrl,resources/DP.BMP,resources/DR.BMP,WildCard_NonEx,-0.288192715,-0.048028293,1,0,0,2.3104,optionLeft,45,8305,4,22,0,22,0,1,,,,,,,,,,,,,,,,,,,,,,,,,,,,,,,,,,,,,,,
,,,,,,,,2023-08-16_08h42.12.198,HF_wild_card,2022.2.4,MacIntel,60.0024001,60ddf72ef11f891328449fb0,64d2fd46c836a06233681665,64dc7dc754e17fa3494411ba,,,,,,,decisionTrl,resources/DP.BMP,resources/DG.BMP,WildCard_NonEx,-0.418808865,-0.084555122,1,0,0,1.348,optionLeft,55,8360,4,23,0,23,0,1,,,,,,,,,,,,,,,,,,,,,,,,,,,,,,,,,,,,,,,
,,,,,,,,2023-08-16_08h42.12.198,HF_wild_card,2022.2.4,MacIntel,60.0024001,60ddf72ef11f891328449fb0,64d2fd46c836a06233681665,64dc7dc754e17fa3494411ba,,,,,,,decisionTrl,resources/DG.BMP,resources/DP.BMP,WildCard_NonEx,0.390993517,-0.053731418,1,0,0,0.9948,optionRight,45,8405,4,24,0,24,0,1,,,,,,,,,,,,,,,,,,,,,,,,,,,,,,,,,,,,,,,
,,,,,,,,2023-08-16_08h42.12.198,HF_wild_card,2022.2.4,MacIntel,60.0024001,60ddf72ef11f891328449fb0,64d2fd46c836a06233681665,64dc7dc754e17fa3494411ba,,,,,,,decisionTrl,resources/DG.BMP,resources/DR.BMP,Door2,-0.328388401,-0.081710205,1,0,0,1.6639,optionLeft,20,8425,4,25,0,25,0,1,,,,,,,,,,,,,,,,,,,,,,,,,,,,,,,,,,,,,,,
,,,,,,,,2023-08-16_08h42.12.198,HF_wild_card,2022.2.4,MacIntel,60.0024001,60ddf72ef11f891328449fb0,64d2fd46c836a06233681665,64dc7dc754e17fa3494411ba,,,,,,,sngl,resources/DP.BMP,resources/Empty.png,WildCard_NonEx,-0.454317152,-0.060002238,1,0,0,0.7147,optionLeft,45,8470,4,26,0,26,0,1,,,,,,,,,,,,,,,,,,,,,,,,,,,,,,,,,,,,,,,
,,,,,,,,2023-08-16_08h42.12.198,HF_wild_card,2022.2.4,MacIntel,60.0024001,60ddf72ef11f891328449fb0,64d2fd46c836a06233681665,64dc7dc754e17fa3494411ba,,,,,,,ctch,resources/DY.BMP,resources/DR.BMP,Door4,-0.378722602,-0.019303114,1,0,0,0.9442,optionLeft,80,8550,4,27,0,27,0,1,,,,,,,,,,,,,,,,,,,,,,,,,,,,,,,,,,,,,,,
,,,,,,,,2023-08-16_08h42.12.198,HF_wild_card,2022.2.4,MacIntel,60.0024001,60ddf72ef11f891328449fb0,64d2fd46c836a06233681665,64dc7dc754e17fa3494411ba,,,,,,,ctch,resources/DR.BMP,resources/DY.BMP,Door4,0.359552138,-0.008758647,1,0,0,0.8966,optionRight,60,8610,4,28,0,28,0,1,,,,,,,,,,,,,,,,,,,,,,,,,,,,,,,,,,,,,,,
,,,,,,,,2023-08-16_08h42.12.198,HF_wild_card,2022.2.4,MacIntel,60.0024001,60ddf72ef11f891328449fb0,64d2fd46c836a06233681665,64dc7dc754e17fa3494411ba,,,,,,,decisionTrl,resources/DR.BMP,resources/DP.BMP,Door1,-0.31943044,0.028947008,1,0,0,1.0986,optionLeft,30,8640,4,29,0,29,0,1,,,,,,,,,,,,,,,,,,,,,,,,,,,,,,,,,,,,,,,
,,,,,,,,2023-08-16_08h42.12.198,HF_wild_card,2022.2.4,MacIntel,60.0024001,60ddf72ef11f891328449fb0,64d2fd46c836a06233681665,64dc7dc754e17fa3494411ba,,,,,,,decisionTrl,resources/DP.BMP,resources/DB.BMP,Door3,0.519994846,-0.132134467,1,0,0,2.3159,optionRight,70,8710,4,30,0,30,0,1,,,,,,,,,,,,,,,,,,,,,,,,,,,,,,,,,,,,,,,
,,,,,,,,2023-08-16_08h42.12.198,HF_wild_card,2022.2.4,MacIntel,60.0024001,60ddf72ef11f891328449fb0,64d2fd46c836a06233681665,64dc7dc754e17fa3494411ba,,,,,,,decisionTrl,resources/DB.BMP,resources/DP.BMP,Door3,-0.447486606,-0.03236084,1,0,0,1.428,optionLeft,70,8780,4,31,0,31,0,1,,,,,,,,,,,,,,,,,,,,,,,,,,,,,,,,,,,,,,,
,,,,,,,,2023-08-16_08h42.12.198,HF_wild_card,2022.2.4,MacIntel,60.0024001,60ddf72ef11f891328449fb0,64d2fd46c836a06233681665,64dc7dc754e17fa3494411ba,,,,,,,sngl,resources/DG.BMP,resources/Empty.png,Door2,-0.379250217,-0.067331204,1,0,0,0.6816,optionLeft,20,8800,4,32,0,32,0,1,,,,,,,,,,,,,,,,,,,,,,,,,,,,,,,,,,,,,,,
,,,,,,,,2023-08-16_08h42.12.198,HF_wild_card,2022.2.4,MacIntel,60.0024001,60ddf72ef11f891328449fb0,64d2fd46c836a06233681665,64dc7dc754e17fa3494411ba,,,,,,,ctch,resources/DG.BMP,resources/DB.BMP,Door3,0.327002767,-0.009613173,1,0,0,0.8893,optionRight,70,8870,4,33,0,33,0,1,,,,,,,,,,,,,,,,,,,,,,,,,,,,,,,,,,,,,,,
,,,,,,,,2023-08-16_08h42.12.198,HF_wild_card,2022.2.4,MacIntel,60.0024001,60ddf72ef11f891328449fb0,64d2fd46c836a06233681665,64dc7dc754e17fa3494411ba,,,,,,,sngl,resources/Empty.png,resources/DP.BMP,WildCard_NonEx,0.287246568,-0.037356296,1,0,0,0.7939,optionRight,55,8925,4,34,0,34,0,1,,,,,,,,,,,,,,,,,,,,,,,,,,,,,,,,,,,,,,,
,,,,,,,,2023-08-16_08h42.12.198,HF_wild_card,2022.2.4,MacIntel,60.0024001,60ddf72ef11f891328449fb0,64d2fd46c836a06233681665,64dc7dc754e17fa3494411ba,,,,,,,ctch,resources/DG.BMP,resources/DB.BMP,Door3,0.272521566,-0.08083903,1,0,0,1.2288,optionRight,70,8995,4,35,0,35,0,1,,,,,,,,,,,,,,,,,,,,,,,,,,,,,,,,,,,,,,,
,,,,,,,,2023-08-16_08h42.12.198,HF_wild_card,2022.2.4,MacIntel,60.0024001,60ddf72ef11f891328449fb0,64d2fd46c836a06233681665,64dc7dc754e17fa3494411ba,,,,,,,decisionTrl,resources/DP.BMP,resources/DY.BMP,Door4,0.338650716,-0.009246996,1,0,0,1.5128,optionRight,60,9055,4,36,0,36,0,1,,,,,,,,,,,,,,,,,,,,,,,,,,,,,,,,,,,,,,,
,,,,,,,,2023-08-16_08h42.12.198,HF_wild_card,2022.2.4,MacIntel,60.0024001,60ddf72ef11f891328449fb0,64d2fd46c836a06233681665,64dc7dc754e17fa3494411ba,,,,,,,decisionTrl,resources/DY.BMP,resources/DB.BMP,Door3,0.312946099,-0.043383484,1,0,0,2.2109,optionRight,70,9125,4,37,0,37,0,1,,,,,,,,,,,,,,,,,,,,,,,,,,,,,,,,,,,,,,,
,,,,,,,,2023-08-16_08h42.12.198,HF_wild_card,2022.2.4,MacIntel,60.0024001,60ddf72ef11f891328449fb0,64d2fd46c836a06233681665,64dc7dc754e17fa3494411ba,,,,,,,decisionTrl,resources/DR.BMP,resources/DG.BMP,Door1,-0.379032389,-0.047467041,1,0,0,2.128,optionLeft,30,9155,4,38,0,38,0,1,,,,,,,,,,,,,,,,,,,,,,,,,,,,,,,,,,,,,,,
,,,,,,,,2023-08-16_08h42.12.198,HF_wild_card,2022.2.4,MacIntel,60.0024001,60ddf72ef11f891328449fb0,64d2fd46c836a06233681665,64dc7dc754e17fa3494411ba,,,,,,,decisionTrl,resources/DR.BMP,resources/DG.BMP,Door1,-0.331050958,0.026756524,1,0,0,1.0297,optionLeft,30,9185,4,39,0,39,0,1,,,,,,,,,,,,,,,,,,,,,,,,,,,,,,,,,,,,,,,
,,,,,,,,2023-08-16_08h42.12.198,HF_wild_card,2022.2.4,MacIntel,60.0024001,60ddf72ef11f891328449fb0,64d2fd46c836a06233681665,64dc7dc754e17fa3494411ba,,,,,,,decisionTrl,resources/DB.BMP,resources/DY.BMP,Door3,-0.271688605,-0.030525106,1,0,0,1.8288,optionLeft,70,9255,4,40,0,40,0,1,,,,,,,,,,,,,,,,,,,,,,,,,,,,,,,,,,,,,,,
,,,,,,,,2023-08-16_08h42.12.198,HF_wild_card,2022.2.4,MacIntel,60.0024001,60ddf72ef11f891328449fb0,64d2fd46c836a06233681665,64dc7dc754e17fa3494411ba,,,,,,,sngl,resources/Empty.png,resources/DY.BMP,Door4,0.328894925,-0.007824232,1,0,0,1.2477,optionRight,80,9335,4,41,0,41,0,1,,,,,,,,,,,,,,,,,,,,,,,,,,,,,,,,,,,,,,,
,,,,,,,,2023-08-16_08h42.12.198,HF_wild_card,2022.2.4,MacIntel,60.0024001,60ddf72ef11f891328449fb0,64d2fd46c836a06233681665,64dc7dc754e17fa3494411ba,,,,,,,ctch,resources/DB.BMP,resources/DG.BMP,Door3,-0.363879327,-0.041837328,1,0,0,0.8111,optionLeft,70,9405,4,42,0,42,0,1,,,,,,,,,,,,,,,,,,,,,,,,,,,,,,,,,,,,,,,
,,,,,,,,2023-08-16_08h42.12.198,HF_wild_card,2022.2.4,MacIntel,60.0024001,60ddf72ef11f891328449fb0,64d2fd46c836a06233681665,64dc7dc754e17fa3494411ba,,,,,,,ctch,resources/DB.BMP,resources/DG.BMP,Door3,-0.32202318,0.002402412,1,0,0,0.93,optionLeft,70,9475,4,43,0,43,0,1,,,,,,,,,,,,,,,,,,,,,,,,,,,,,,,,,,,,,,,
,,,,,,,,2023-08-16_08h42.12.198,HF_wild_card,2022.2.4,MacIntel,60.0024001,60ddf72ef11f891328449fb0,64d2fd46c836a06233681665,64dc7dc754e17fa3494411ba,,,,,,,,,,,,,,,,,,,,,,,,,,3,0,3,0,1,,,,,,,,,,,,,,,,,,,,,,,,,,,,,,,,,,
,,,,,,,,2023-08-16_08h42.12.198,HF_wild_card,2022.2.4,MacIntel,60.0024001,60ddf72ef11f891328449fb0,64d2fd46c836a06233681665,64dc7dc754e17fa3494411ba,,,,,,,decisionTrl,resources/DB.BMP,resources/DY.BMP,Door3,-0.413997192,0.013036838,1,0,0,1.4789,optionLeft,70,9545,5,0,0,0,0,1,,,,,,,,,,,,,,,,,,,,,,,,,,,,,,,,,,,,,,,
,,,,,,,,2023-08-16_08h42.12.198,HF_wild_card,2022.2.4,MacIntel,60.0024001,60ddf72ef11f891328449fb0,64d2fd46c836a06233681665,64dc7dc754e17fa3494411ba,,,,,,,ctch,resources/DG.BMP,resources/DB.BMP,Door3,0.340031738,-0.081907959,1,0,0,0.911,optionRight,70,9615,5,1,0,1,0,1,,,,,,,,,,,,,,,,,,,,,,,,,,,,,,,,,,,,,,,
,,,,,,,,2023-08-16_08h42.12.198,HF_wild_card,2022.2.4,MacIntel,60.0024001,60ddf72ef11f891328449fb0,64d2fd46c836a06233681665,64dc7dc754e17fa3494411ba,,,,,,,decisionTrl,resources/DP.BMP,resources/DY.BMP,Door4,0.29350335,-0.07688836,1,0,0,3.4802,optionRight,60,9675,5,2,0,2,0,1,,,,,,,,,,,,,,,,,,,,,,,,,,,,,,,,,,,,,,,
,,,,,,,,2023-08-16_08h42.12.198,HF_wild_card,2022.2.4,MacIntel,60.0024001,60ddf72ef11f891328449fb0,64d2fd46c836a06233681665,64dc7dc754e17fa3494411ba,,,,,,,decisionTrl,resources/DB.BMP,resources/DY.BMP,Door3,-0.335628967,-0.190807156,1,0,0,2.3108,optionLeft,70,9745,5,3,0,3,0,1,,,,,,,,,,,,,,,,,,,,,,,,,,,,,,,,,,,,,,,
,,,,,,,,2023-08-16_08h42.12.198,HF_wild_card,2022.2.4,MacIntel,60.0024001,60ddf72ef11f891328449fb0,64d2fd46c836a06233681665,64dc7dc754e17fa3494411ba,,,,,,,sngl,resources/Empty.png,resources/DP.BMP,WildCard_NonEx,0.314190742,-0.026099548,1,0,0,0.8287,optionRight,45,9790,5,4,0,4,0,1,,,,,,,,,,,,,,,,,,,,,,,,,,,,,,,,,,,,,,,
,,,,,,,,2023-08-16_08h42.12.198,HF_wild_card,2022.2.4,MacIntel,60.0024001,60ddf72ef11f891328449fb0,64d2fd46c836a06233681665,64dc7dc754e17fa3494411ba,,,,,,,sngl,resources/Empty.png,resources/DB.BMP,Door3,0.336314019,-0.04157803,1,0,0,0.7462,optionRight,70,9860,5,5,0,5,0,1,,,,,,,,,,,,,,,,,,,,,,,,,,,,,,,,,,,,,,,
,,,,,,,,2023-08-16_08h42.12.198,HF_wild_card,2022.2.4,MacIntel,60.0024001,60ddf72ef11f891328449fb0,64d2fd46c836a06233681665,64dc7dc754e17fa3494411ba,,,,,,,sngl,resources/DB.BMP,resources/Empty.png,Door3,-0.397192586,-0.02355584,1,0,0,0.6606,optionLeft,70,9930,5,6,0,6,0,1,,,,,,,,,,,,,,,,,,,,,,,,,,,,,,,,,,,,,,,
,,,,,,,,2023-08-16_08h42.12.198,HF_wild_card,2022.2.4,MacIntel,60.0024001,60ddf72ef11f891328449fb0,64d2fd46c836a06233681665,64dc7dc754e17fa3494411ba,,,,,,,decisionTrl,resources/DY.BMP,resources/DB.BMP,Door4,-0.351888733,-0.027491794,1,0,0,1.3786,optionLeft,80,10010,5,7,0,7,0,1,,,,,,,,,,,,,,,,,,,,,,,,,,,,,,,,,,,,,,,
,,,,,,,,2023-08-16_08h42.12.198,HF_wild_card,2022.2.4,MacIntel,60.0024001,60ddf72ef11f891328449fb0,64d2fd46c836a06233681665,64dc7dc754e17fa3494411ba,,,,,,,sngl,resources/Empty.png,resources/DG.BMP,Door2,0.379856771,-0.040758124,1,0,0,0.7222,optionRight,20,10030,5,8,0,8,0,1,,,,,,,,,,,,,,,,,,,,,,,,,,,,,,,,,,,,,,,
,,,,,,,,2023-08-16_08h42.12.198,HF_wild_card,2022.2.4,MacIntel,60.0024001,60ddf72ef11f891328449fb0,64d2fd46c836a06233681665,64dc7dc754e17fa3494411ba,,,,,,,decisionTrl,resources/DP.BMP,resources/DR.BMP,WildCard_NonEx,-0.284551019,-0.026337077,1,0,0,3.1629,optionLeft,45,10075,5,9,0,9,0,1,,,,,,,,,,,,,,,,,,,,,,,,,,,,,,,,,,,,,,,
,,,,,,,,2023-08-16_08h42.12.198,HF_wild_card,2022.2.4,MacIntel,60.0024001,60ddf72ef11f891328449fb0,64d2fd46c836a06233681665,64dc7dc754e17fa3494411ba,,,,,,,decisionTrl,resources/DG.BMP,resources/DR.BMP,Door1,0.271558092,-0.039989963,1,0,0,1.0313,optionRight,30,10105,5,10,0,10,0,1,,,,,,,,,,,,,,,,,,,,,,,,,,,,,,,,,,,,,,,
,,,,,,,,2023-08-16_08h42.12.198,HF_wild_card,2022.2.4,MacIntel,60.0024001,60ddf72ef11f891328449fb0,64d2fd46c836a06233681665,64dc7dc754e17fa3494411ba,,,,,,,decisionTrl,resources/DB.BMP,resources/DP.BMP,Door3,-0.343399523,-0.032554999,1,0,0,3.2418,optionLeft,70,10175,5,11,0,11,0,1,,,,,,,,,,,,,,,,,,,,,,,,,,,,,,,,,,,,,,,
,,,,,,,,2023-08-16_08h42.12.198,HF_wild_card,2022.2.4,MacIntel,60.0024001,60ddf72ef11f891328449fb0,64d2fd46c836a06233681665,64dc7dc754e17fa3494411ba,,,,,,,decisionTrl,resources/DP.BMP,resources/DB.BMP,Door3,0.248074748,-0.029995694,1,0,0,1.596,optionRight,70,10245,5,12,0,12,0,1,,,,,,,,,,,,,,,,,,,,,,,,,,,,,,,,,,,,,,,
,,,,,,,,2023-08-16_08h42.12.198,HF_wild_card,2022.2.4,MacIntel,60.0024001,60ddf72ef11f891328449fb0,64d2fd46c836a06233681665,64dc7dc754e17fa3494411ba,,,,,,,decisionTrl,resources/DG.BMP,resources/DR.BMP,Door1,0.410403103,-0.051558499,1,0,0,1.2474,optionRight,30,10275,5,13,0,13,0,1,,,,,,,,,,,,,,,,,,,,,,,,,,,,,,,,,,,,,,,
,,,,,,,,2023-08-16_08h42.12.198,HF_wild_card,2022.2.4,MacIntel,60.0024001,60ddf72ef11f891328449fb0,64d2fd46c836a06233681665,64dc7dc754e17fa3494411ba,,,,,,,decisionTrl,resources/DP.BMP,resources/DG.BMP,WildCard_NonEx,-0.473872715,-0.046247999,1,0,0,2.2799,optionLeft,45,10320,5,14,0,14,0,1,,,,,,,,,,,,,,,,,,,,,,,,,,,,,,,,,,,,,,,
,,,,,,,,2023-08-16_08h42.12.198,HF_wild_card,2022.2.4,MacIntel,60.0024001,60ddf72ef11f891328449fb0,64d2fd46c836a06233681665,64dc7dc754e17fa3494411ba,,,,,,,ctch,resources/DR.BMP,resources/DY.BMP,Door4,0.339629991,-0.011484375,1,0,0,1.8455,optionRight,80,10400,5,15,0,15,0,1,,,,,,,,,,,,,,,,,,,,,,,,,,,,,,,,,,,,,,,
,,,,,,,,2023-08-16_08h42.12.198,HF_wild_card,2022.2.4,MacIntel,60.0024001,60ddf72ef11f891328449fb0,64d2fd46c836a06233681665,64dc7dc754e17fa3494411ba,,,,,,,sngl,resources/DR.BMP,resources/Empty.png,Door1,-0.31135827,0.001012573,1,0,0,0.7979,optionLeft,30,10430,5,16,0,16,0,1,,,,,,,,,,,,,,,,,,,,,,,,,,,,,,,,,,,,,,,
,,,,,,,,2023-08-16_08h42.12.198,HF_wild_card,2022.2.4,MacIntel,60.0024001,60ddf72ef11f891328449fb0,64d2fd46c836a06233681665,64dc7dc754e17fa3494411ba,,,,,,,decisionTrl,resources/DY.BMP,resources/DP.BMP,Door4,-0.416854485,-0.012118869,1,0,0,1.7467,optionLeft,60,10490,5,17,0,17,0,1,,,,,,,,,,,,,,,,,,,,,,,,,,,,,,,,,,,,,,,
,,,,,,,,2023-08-16_08h42.12.198,HF_wild_card,2022.2.4,MacIntel,60.0024001,60ddf72ef11f891328449fb0,64d2fd46c836a06233681665,64dc7dc754e17fa3494411ba,,,,,,,decisionTrl,resources/DR.BMP,resources/DG.BMP,Door1,-0.44087026,-0.045264282,1,0,0,2.5596,optionLeft,30,10520,5,18,0,18,0,1,,,,,,,,,,,,,,,,,,,,,,,,,,,,,,,,,,,,,,,
,,,,,,,,2023-08-16_08h42.12.198,HF_wild_card,2022.2.4,MacIntel,60.0024001,60ddf72ef11f891328449fb0,64d2fd46c836a06233681665,64dc7dc754e17fa3494411ba,,,,,,,decisionTrl,resources/DG.BMP,resources/DR.BMP,Door1,0.34111301,-0.011504788,1,0,0,1.0146,optionRight,30,10550,5,19,0,19,0,1,,,,,,,,,,,,,,,,,,,,,,,,,,,,,,,,,,,,,,,
,,,,,,,,2023-08-16_08h42.12.198,HF_wild_card,2022.2.4,MacIntel,60.0024001,60ddf72ef11f891328449fb0,64d2fd46c836a06233681665,64dc7dc754e17fa3494411ba,,,,,,,decisionTrl,resources/DR.BMP,resources/DG.BMP,Door1,-0.370245565,-0.037704807,1,0,0,0.9114,optionLeft,30,10580,5,20,0,20,0,1,,,,,,,,,,,,,,,,,,,,,,,,,,,,,,,,,,,,,,,
,,,,,,,,2023-08-16_08h42.12.198,HF_wild_card,2022.2.4,MacIntel,60.0024001,60ddf72ef11f891328449fb0,64d2fd46c836a06233681665,64dc7dc754e17fa3494411ba,,,,,,,ctch,resources/DY.BMP,resources/DR.BMP,Door4,-0.320022956,-0.036905721,1,0,0,1.0547,optionLeft,80,10660,5,21,0,21,0,1,,,,,,,,,,,,,,,,,,,,,,,,,,,,,,,,,,,,,,,
,,,,,,,,2023-08-16_08h42.12.198,HF_wild_card,2022.2.4,MacIntel,60.0024001,60ddf72ef11f891328449fb0,64d2fd46c836a06233681665,64dc7dc754e17fa3494411ba,,,,,,,ctch,resources/DR.BMP,resources/DY.BMP,Door4,0.295857069,-0.00051473,1,0,0,0.9145,optionRight,80,10740,5,22,0,22,0,1,,,,,,,,,,,,,,,,,,,,,,,,,,,,,,,,,,,,,,,
,,,,,,,,2023-08-16_08h42.12.198,HF_wild_card,2022.2.4,MacIntel,60.0024001,60ddf72ef11f891328449fb0,64d2fd46c836a06233681665,64dc7dc754e17fa3494411ba,,,,,,,decisionTrl,resources/DR.BMP,resources/DG.BMP,Door1,-0.341617296,-0.042651164,1,0,0,1.2961,optionLeft,30,10770,5,23,0,23,0,1,,,,,,,,,,,,,,,,,,,,,,,,,,,,,,,,,,,,,,,
,,,,,,,,2023-08-16_08h42.12.198,HF_wild_card,2022.2.4,MacIntel,60.0024001,60ddf72ef11f891328449fb0,64d2fd46c836a06233681665,64dc7dc754e17fa3494411ba,,,,,,,ctch,resources/DB.BMP,resources/DG.BMP,Door3,-0.361467794,-0.085685764,1,0,0,1.3615,optionLeft,70,10840,5,24,0,24,0,1,,,,,,,,,,,,,,,,,,,,,,,,,,,,,,,,,,,,,,,
,,,,,,,,2023-08-16_08h42.12.198,HF_wild_card,2022.2.4,MacIntel,60.0024001,60ddf72ef11f891328449fb0,64d2fd46c836a06233681665,64dc7dc754e17fa3494411ba,,,,,,,decisionTrl,resources/DB.BMP,resources/DY.BMP,Door3,-0.315520799,-0.063042399,1,0,0,1.7675,optionLeft,70,10910,5,25,0,25,0,1,,,,,,,,,,,,,,,,,,,,,,,,,,,,,,,,,,,,,,,
,,,,,,,,2023-08-16_08h42.12.198,HF_wild_card,2022.2.4,MacIntel,60.0024001,60ddf72ef11f891328449fb0,64d2fd46c836a06233681665,64dc7dc754e17fa3494411ba,,,,,,,sngl,resources/DP.BMP,resources/Empty.png,WildCard_NonEx,-0.399073181,-0.07136773,1,0,0,0.7939,optionLeft,55,10965,5,26,0,26,0,1,,,,,,,,,,,,,,,,,,,,,,,,,,,,,,,,,,,,,,,
,,,,,,,,2023-08-16_08h42.12.198,HF_wild_card,2022.2.4,MacIntel,60.0024001,60ddf72ef11f891328449fb0,64d2fd46c836a06233681665,64dc7dc754e17fa3494411ba,,,,,,,sngl,resources/Empty.png,resources/DP.BMP,WildCard_NonEx,0.331369832,-0.06704834,1,0,0,0.6793,optionRight,55,11020,5,27,0,27,0,1,,,,,,,,,,,,,,,,,,,,,,,,,,,,,,,,,,,,,,,
,,,,,,,,2023-08-16_08h42.12.198,HF_wild_card,2022.2.4,MacIntel,60.0024001,60ddf72ef11f891328449fb0,64d2fd46c836a06233681665,64dc7dc754e17fa3494411ba,,,,,,,decisionTrl,resources/DG.BMP,resources/DP.BMP,WildCard_NonEx,0.264623888,0.001383192,1,0,0,1.5274,optionRight,45,11065,5,28,0,28,0,1,,,,,,,,,,,,,,,,,,,,,,,,,,,,,,,,,,,,,,,
,,,,,,,,2023-08-16_08h42.12.198,HF_wild_card,2022.2.4,MacIntel,60.0024001,60ddf72ef11f891328449fb0,64d2fd46c836a06233681665,64dc7dc754e17fa3494411ba,,,,,,,sngl,resources/Empty.png,resources/DR.BMP,Door1,0.416996392,-0.041566162,1,0,0,0.7795,optionRight,30,11095,5,29,0,29,0,1,,,,,,,,,,,,,,,,,,,,,,,,,,,,,,,,,,,,,,,
,,,,,,,,2023-08-16_08h42.12.198,HF_wild_card,2022.2.4,MacIntel,60.0024001,60ddf72ef11f891328449fb0,64d2fd46c836a06233681665,64dc7dc754e17fa3494411ba,,,,,,,decisionTrl,resources/DR.BMP,resources/DP.BMP,WildCard_NonEx,0.331709798,-0.03544793,1,0,0,1.6474,optionRight,55,11150,5,30,0,30,0,1,,,,,,,,,,,,,,,,,,,,,,,,,,,,,,,,,,,,,,,
,,,,,,,,2023-08-16_08h42.12.198,HF_wild_card,2022.2.4,MacIntel,60.0024001,60ddf72ef11f891328449fb0,64d2fd46c836a06233681665,64dc7dc754e17fa3494411ba,,,,,,,ctch,resources/DB.BMP,resources/DG.BMP,Door3,-0.343240119,-0.037213542,1,0,0,1.1288,optionLeft,70,11220,5,31,0,31,0,1,,,,,,,,,,,,,,,,,,,,,,,,,,,,,,,,,,,,,,,
,,,,,,,,2023-08-16_08h42.12.198,HF_wild_card,2022.2.4,MacIntel,60.0024001,60ddf72ef11f891328449fb0,64d2fd46c836a06233681665,64dc7dc754e17fa3494411ba,,,,,,,decisionTrl,resources/DY.BMP,resources/DB.BMP,Door3,0.35381741,-0.052903035,1,0,0,1.3786,optionRight,70,11290,5,32,0,32,0,1,,,,,,,,,,,,,,,,,,,,,,,,,,,,,,,,,,,,,,,
,,,,,,,,2023-08-16_08h42.12.198,HF_wild_card,2022.2.4,MacIntel,60.0024001,60ddf72ef11f891328449fb0,64d2fd46c836a06233681665,64dc7dc754e17fa3494411ba,,,,,,,ctch,resources/DY.BMP,resources/DR.BMP,Door4,-0.327708808,0.001370917,1,0,0,1.2952,optionLeft,60,11350,5,33,0,33,0,1,,,,,,,,,,,,,,,,,,,,,,,,,,,,,,,,,,,,,,,
,,,,,,,,2023-08-16_08h42.12.198,HF_wild_card,2022.2.4,MacIntel,60.0024001,60ddf72ef11f891328449fb0,64d2fd46c836a06233681665,64dc7dc754e17fa3494411ba,,,,,,,decisionTrl,resources/DY.BMP,resources/DB.BMP,Door4,-0.331970588,-0.010700277,1,0,0,1.2789,optionLeft,60,11410,5,34,0,34,0,1,,,,,,,,,,,,,,,,,,,,,,,,,,,,,,,,,,,,,,,
,,,,,,,,2023-08-16_08h42.12.198,HF_wild_card,2022.2.4,MacIntel,60.0024001,60ddf72ef11f891328449fb0,64d2fd46c836a06233681665,64dc7dc754e17fa3494411ba,,,,,,,sngl,resources/DY.BMP,resources/Empty.png,Door4,-0.252881097,-0.018157145,1,0,0,0.7296,optionLeft,80,11490,5,35,0,35,0,1,,,,,,,,,,,,,,,,,,,,,,,,,,,,,,,,,,,,,,,
,,,,,,,,2023-08-16_08h42.12.198,HF_wild_card,2022.2.4,MacIntel,60.0024001,60ddf72ef11f891328449fb0,64d2fd46c836a06233681665,64dc7dc754e17fa3494411ba,,,,,,,decisionTrl,resources/DB.BMP,resources/DY.BMP,Door3,-0.330308261,-0.027481452,1,0,0,1.345,optionLeft,70,11560,5,36,0,36,0,1,,,,,,,,,,,,,,,,,,,,,,,,,,,,,,,,,,,,,,,
,,,,,,,,2023-08-16_08h42.12.198,HF_wild_card,2022.2.4,MacIntel,60.0024001,60ddf72ef11f891328449fb0,64d2fd46c836a06233681665,64dc7dc754e17fa3494411ba,,,,,,,decisionTrl,resources/DY.BMP,resources/DB.BMP,Door3,0.21553616,-0.030837199,1,0,0,1.4936,optionRight,70,11630,5,37,0,37,0,1,,,,,,,,,,,,,,,,,,,,,,,,,,,,,,,,,,,,,,,
,,,,,,,,2023-08-16_08h42.12.198,HF_wild_card,2022.2.4,MacIntel,60.0024001,60ddf72ef11f891328449fb0,64d2fd46c836a06233681665,64dc7dc754e17fa3494411ba,,,,,,,sngl,resources/DP.BMP,resources/Empty.png,WildCard_NonEx,-0.337746718,-0.015567322,1,0,0,0.8496,optionLeft,45,11675,5,38,0,38,0,1,,,,,,,,,,,,,,,,,,,,,,,,,,,,,,,,,,,,,,,
,,,,,,,,2023-08-16_08h42.12.198,HF_wild_card,2022.2.4,MacIntel,60.0024001,60ddf72ef11f891328449fb0,64d2fd46c836a06233681665,64dc7dc754e17fa3494411ba,,,,,,,ctch,resources/DG.BMP,resources/DB.BMP,Door3,0.40145657,0.024245436,1,0,0,1.4141,optionRight,70,11745,5,39,0,39,0,1,,,,,,,,,,,,,,,,,,,,,,,,,,,,,,,,,,,,,,,
,,,,,,,,2023-08-16_08h42.12.198,HF_wild_card,2022.2.4,MacIntel,60.0024001,60ddf72ef11f891328449fb0,64d2fd46c836a06233681665,64dc7dc754e17fa3494411ba,,,,,,,sngl,resources/Empty.png,resources/DY.BMP,Door4,0.364173313,-0.048343269,1,0,0,0.7966,optionRight,60,11805,5,40,0,40,0,1,,,,,,,,,,,,,,,,,,,,,,,,,,,,,,,,,,,,,,,
,,,,,,,,2023-08-16_08h42.12.198,HF_wild_card,2022.2.4,MacIntel,60.0024001,60ddf72ef11f891328449fb0,64d2fd46c836a06233681665,64dc7dc754e17fa3494411ba,,,,,,,decisionTrl,resources/DG.BMP,resources/DR.BMP,Door1,0.350424533,-0.056948378,1,0,0,1.062,optionRight,30,11835,5,41,0,41,0,1,,,,,,,,,,,,,,,,,,,,,,,,,,,,,,,,,,,,,,,
,,,,,,,,2023-08-16_08h42.12.198,HF_wild_card,2022.2.4,MacIntel,60.0024001,60ddf72ef11f891328449fb0,64d2fd46c836a06233681665,64dc7dc754e17fa3494411ba,,,,,,,decisionTrl,resources/DR.BMP,resources/DG.BMP,Door1,-0.394408535,-0.023259888,1,0,0,1.3106,optionLeft,30,11865,5,42,0,42,0,1,,,,,,,,,,,,,,,,,,,,,,,,,,,,,,,,,,,,,,,
,,,,,,,,2023-08-16_08h42.12.198,HF_wild_card,2022.2.4,MacIntel,60.0024001,60ddf72ef11f891328449fb0,64d2fd46c836a06233681665,64dc7dc754e17fa3494411ba,,,,,,,sngl,resources/DG.BMP,resources/Empty.png,Door2,-0.289753994,-0.050920241,1,0,0,0.7628,optionLeft,40,11905,5,43,0,43,0,1,,,,,,,,,,,,,,,,,,,,,,,,,,,,,,,,,,,,,,,
,,,,,,,,2023-08-16_08h42.12.198,HF_wild_card,2022.2.4,MacIntel,60.0024001,60ddf72ef11f891328449fb0,64d2fd46c836a06233681665,64dc7dc754e17fa3494411ba,,,,,,,,,,,,,,,,,,,,,,,,,,4,0,4,0,1,,,,,,,,,,,,,,,,,,,,,,,,,,,,,,,,,,
,,,,,,,,2023-08-16_08h42.12.198,HF_wild_card,2022.2.4,MacIntel,60.0024001,60ddf72ef11f891328449fb0,64d2fd46c836a06233681665,64dc7dc754e17fa3494411ba,,,,,,,decisionTrl,resources/DP.BMP,resources/DR.BMP,WildCard_NonEx,-0.285022753,-0.020899862,1,0,0,1.5282,optionLeft,55,11960,6,0,0,0,0,1,,,,,,,,,,,,,,,,,,,,,,,,,,,,,,,,,,,,,,,
,,,,,,,,2023-08-16_08h42.12.198,HF_wild_card,2022.2.4,MacIntel,60.0024001,60ddf72ef11f891328449fb0,64d2fd46c836a06233681665,64dc7dc754e17fa3494411ba,,,,,,,decisionTrl,resources/DP.BMP,resources/DB.BMP,Door3,0.369425049,-0.084163072,1,0,0,1.5308,optionRight,70,12030,6,1,0,1,0,1,,,,,,,,,,,,,,,,,,,,,,,,,,,,,,,,,,,,,,,
,,,,,,,,2023-08-16_08h42.12.198,HF_wild_card,2022.2.4,MacIntel,60.0024001,60ddf72ef11f891328449fb0,64d2fd46c836a06233681665,64dc7dc754e17fa3494411ba,,,,,,,sngl,resources/Empty.png,resources/DG.BMP,Door2,0.328410034,-0.112919922,1,0,0,0.7944,optionRight,40,12070,6,2,0,2,0,1,,,,,,,,,,,,,,,,,,,,,,,,,,,,,,,,,,,,,,,
,,,,,,,,2023-08-16_08h42.12.198,HF_wild_card,2022.2.4,MacIntel,60.0024001,60ddf72ef11f891328449fb0,64d2fd46c836a06233681665,64dc7dc754e17fa3494411ba,,,,,,,ctch,resources/DY.BMP,resources/DR.BMP,Door4,-0.265829875,-0.01179189,1,0,0,0.9155,optionLeft,80,12150,6,3,0,3,0,1,,,,,,,,,,,,,,,,,,,,,,,,,,,,,,,,,,,,,,,
,,,,,,,,2023-08-16_08h42.12.198,HF_wild_card,2022.2.4,MacIntel,60.0024001,60ddf72ef11f891328449fb0,64d2fd46c836a06233681665,64dc7dc754e17fa3494411ba,,,,,,,decisionTrl,resources/DG.BMP,resources/DP.BMP,WildCard_NonEx,0.242193536,-0.026573893,1,0,0,1.6905,optionRight,55,12205,6,4,0,4,0,1,,,,,,,,,,,,,,,,,,,,,,,,,,,,,,,,,,,,,,,
,,,,,,,,2023-08-16_08h42.12.198,HF_wild_card,2022.2.4,MacIntel,60.0024001,60ddf72ef11f891328449fb0,64d2fd46c836a06233681665,64dc7dc754e17fa3494411ba,,,,,,,decisionTrl,resources/DG.BMP,resources/DR.BMP,Door1,0.367431098,-0.070227051,1,0,0,2.1295,optionRight,30,12235,6,5,0,5,0,1,,,,,,,,,,,,,,,,,,,,,,,,,,,,,,,,,,,,,,,
,,,,,,,,2023-08-16_08h42.12.198,HF_wild_card,2022.2.4,MacIntel,60.0024001,60ddf72ef11f891328449fb0,64d2fd46c836a06233681665,64dc7dc754e17fa3494411ba,,,,,,,decisionTrl,resources/DB.BMP,resources/DY.BMP,Door3,-0.250973884,-0.058034465,1,0,0,1.7151,optionLeft,70,12305,6,6,0,6,0,1,,,,,,,,,,,,,,,,,,,,,,,,,,,,,,,,,,,,,,,
,,,,,,,,2023-08-16_08h42.12.198,HF_wild_card,2022.2.4,MacIntel,60.0024001,60ddf72ef11f891328449fb0,64d2fd46c836a06233681665,64dc7dc754e17fa3494411ba,,,,,,,sngl,resources/Empty.png,resources/DY.BMP,Door4,0.404213053,-0.028614773,1,0,0,0.8791,optionRight,80,12385,6,7,0,7,0,1,,,,,,,,,,,,,,,,,,,,,,,,,,,,,,,,,,,,,,,
,,,,,,,,2023-08-16_08h42.12.198,HF_wild_card,2022.2.4,MacIntel,60.0024001,60ddf72ef11f891328449fb0,64d2fd46c836a06233681665,64dc7dc754e17fa3494411ba,,,,,,,sngl,resources/DP.BMP,resources/Empty.png,WildCard_NonEx,-0.336076864,-0.029685737,1,0,0,0.7789,optionLeft,55,12440,6,8,0,8,0,1,,,,,,,,,,,,,,,,,,,,,,,,,,,,,,,,,,,,,,,
,,,,,,,,2023-08-16_08h42.12.198,HF_wild_card,2022.2.4,MacIntel,60.0024001,60ddf72ef11f891328449fb0,64d2fd46c836a06233681665,64dc7dc754e17fa3494411ba,,,,,,,sngl,resources/DB.BMP,resources/Empty.png,Door3,-0.311365797,-0.045013428,1,0,0,0.7942,optionLeft,70,12510,6,9,0,9,0,1,,,,,,,,,,,,,,,,,,,,,,,,,,,,,,,,,,,,,,,
,,,,,,,,2023-08-16_08h42.12.198,HF_wild_card,2022.2.4,MacIntel,60.0024001,60ddf72ef11f891328449fb0,64d2fd46c836a06233681665,64dc7dc754e17fa3494411ba,,,,,,,decisionTrl,resources/DR.BMP,resources/DG.BMP,Door1,-0.299839444,-0.003405084,1,0,0,1.2748,optionLeft,30,12540,6,10,0,10,0,1,,,,,,,,,,,,,,,,,,,,,,,,,,,,,,,,,,,,,,,
,,,,,,,,2023-08-16_08h42.12.198,HF_wild_card,2022.2.4,MacIntel,60.0024001,60ddf72ef11f891328449fb0,64d2fd46c836a06233681665,64dc7dc754e17fa3494411ba,,,,,,,decisionTrl,resources/DY.BMP,resources/DB.BMP,Door3,0.277994656,-0.084337023,1,0,0,1.5162,optionRight,70,12610,6,11,0,11,0,1,,,,,,,,,,,,,,,,,,,,,,,,,,,,,,,,,,,,,,,
,,,,,,,,2023-08-16_08h42.12.198,HF_wild_card,2022.2.4,MacIntel,60.0024001,60ddf72ef11f891328449fb0,64d2fd46c836a06233681665,64dc7dc754e17fa3494411ba,,,,,,,decisionTrl,resources/DB.BMP,resources/DY.BMP,Door3,-0.349442037,-0.054955377,1,0,0,1.0119,optionLeft,70,12680,6,12,0,12,0,1,,,,,,,,,,,,,,,,,,,,,,,,,,,,,,,,,,,,,,,
,,,,,,,,2023-08-16_08h42.12.198,HF_wild_card,2022.2.4,MacIntel,60.0024001,60ddf72ef11f891328449fb0,64d2fd46c836a06233681665,64dc7dc754e17fa3494411ba,,,,,,,decisionTrl,resources/DR.BMP,resources/DG.BMP,Door1,-0.336280924,-0.003896077,1,0,0,1.1468,optionLeft,30,12710,6,13,0,13,0,1,,,,,,,,,,,,,,,,,,,,,,,,,,,,,,,,,,,,,,,
,,,,,,,,2023-08-16_08h42.12.198,HF_wild_card,2022.2.4,MacIntel,60.0024001,60ddf72ef11f891328449fb0,64d2fd46c836a06233681665,64dc7dc754e17fa3494411ba,,,,,,,ctch,resources/DG.BMP,resources/DB.BMP,Door3,0.362410211,-0.052378269,1,0,0,0.8273,optionRight,70,12780,6,14,0,14,0,1,,,,,,,,,,,,,,,,,,,,,,,,,,,,,,,,,,,,,,,
,,,,,,,,2023-08-16_08h42.12.198,HF_wild_card,2022.2.4,MacIntel,60.0024001,60ddf72ef11f891328449fb0,64d2fd46c836a06233681665,64dc7dc754e17fa3494411ba,,,,,,,ctch,resources/DB.BMP,resources/DG.BMP,Door3,-0.340814412,-0.03409746,1,0,0,0.7458,optionLeft,70,12850,6,15,0,15,0,1,,,,,,,,,,,,,,,,,,,,,,,,,,,,,,,,,,,,,,,
,,,,,,,,2023-08-16_08h42.12.198,HF_wild_card,2022.2.4,MacIntel,60.0024001,60ddf72ef11f891328449fb0,64d2fd46c836a06233681665,64dc7dc754e17fa3494411ba,,,,,,,sngl,resources/DG.BMP,resources/Empty.png,Door2,-0.290928175,-0.049856635,1,0,0,0.7481,optionLeft,20,12870,6,16,0,16,0,1,,,,,,,,,,,,,,,,,,,,,,,,,,,,,,,,,,,,,,,
,,,,,,,,2023-08-16_08h42.12.198,HF_wild_card,2022.2.4,MacIntel,60.0024001,60ddf72ef11f891328449fb0,64d2fd46c836a06233681665,64dc7dc754e17fa3494411ba,,,,,,,sngl,resources/Empty.png,resources/DP.BMP,WildCard_NonEx,0.333375109,-0.039736565,1,0,0,0.7442,optionRight,45,12915,6,17,0,17,0,1,,,,,,,,,,,,,,,,,,,,,,,,,,,,,,,,,,,,,,,
,,,,,,,,2023-08-16_08h42.12.198,HF_wild_card,2022.2.4,MacIntel,60.0024001,60ddf72ef11f891328449fb0,64d2fd46c836a06233681665,64dc7dc754e17fa3494411ba,,,,,,,decisionTrl,resources/DB.BMP,resources/DP.BMP,Door3,-0.371064385,-0.026955566,1,0,0,1.298,optionLeft,70,12985,6,18,0,18,0,1,,,,,,,,,,,,,,,,,,,,,,,,,,,,,,,,,,,,,,,
,,,,,,,,2023-08-16_08h42.12.198,HF_wild_card,2022.2.4,MacIntel,60.0024001,60ddf72ef11f891328449fb0,64d2fd46c836a06233681665,64dc7dc754e17fa3494411ba,,,,,,,sngl,resources/DY.BMP,resources/Empty.png,Door4,-0.289020318,-0.029124959,1,0,0,0.7116,optionLeft,60,13045,6,19,0,19,0,1,,,,,,,,,,,,,,,,,,,,,,,,,,,,,,,,,,,,,,,
,,,,,,,,2023-08-16_08h42.12.198,HF_wild_card,2022.2.4,MacIntel,60.0024001,60ddf72ef11f891328449fb0,64d2fd46c836a06233681665,64dc7dc754e17fa3494411ba,,,,,,,decisionTrl,resources/DB.BMP,resources/DY.BMP,Door3,-0.394091288,-0.017218187,1,0,0,1.1623,optionLeft,70,13115,6,20,0,20,0,1,,,,,,,,,,,,,,,,,,,,,,,,,,,,,,,,,,,,,,,
,,,,,,,,2023-08-16_08h42.12.198,HF_wild_card,2022.2.4,MacIntel,60.0024001,60ddf72ef11f891328449fb0,64d2fd46c836a06233681665,64dc7dc754e17fa3494411ba,,,,,,,decisionTrl,resources/DB.BMP,resources/DY.BMP,Door3,-0.285050456,-0.035342611,1,0,0,0.7823,optionLeft,70,13185,6,21,0,21,0,1,,,,,,,,,,,,,,,,,,,,,,,,,,,,,,,,,,,,,,,
,,,,,,,,2023-08-16_08h42.12.198,HF_wild_card,2022.2.4,MacIntel,60.0024001,60ddf72ef11f891328449fb0,64d2fd46c836a06233681665,64dc7dc754e17fa3494411ba,,,,,,,ctch,resources/DY.BMP,resources/DR.BMP,Door4,-0.334558038,-0.066065674,1,0,0,1.3624,optionLeft,80,13265,6,22,0,22,0,1,,,,,,,,,,,,,,,,,,,,,,,,,,,,,,,,,,,,,,,
,,,,,,,,2023-08-16_08h42.12.198,HF_wild_card,2022.2.4,MacIntel,60.0024001,60ddf72ef11f891328449fb0,64d2fd46c836a06233681665,64dc7dc754e17fa3494411ba,,,,,,,decisionTrl,resources/DR.BMP,resources/DP.BMP,WildCard_NonEx,0.289248793,-0.024886271,1,0,0,1.912,optionRight,45,13310,6,23,0,23,0,1,,,,,,,,,,,,,,,,,,,,,,,,,,,,,,,,,,,,,,,
,,,,,,,,2023-08-16_08h42.12.198,HF_wild_card,2022.2.4,MacIntel,60.0024001,60ddf72ef11f891328449fb0,64d2fd46c836a06233681665,64dc7dc754e17fa3494411ba,,,,,,,sngl,resources/Empty.png,resources/DR.BMP,Door1,0.315380995,-0.024076131,1,0,0,0.7632,optionRight,30,13340,6,24,0,24,0,1,,,,,,,,,,,,,,,,,,,,,,,,,,,,,,,,,,,,,,,
,,,,,,,,2023-08-16_08h42.12.198,HF_wild_card,2022.2.4,MacIntel,60.0024001,60ddf72ef11f891328449fb0,64d2fd46c836a06233681665,64dc7dc754e17fa3494411ba,,,,,,,ctch,resources/DR.BMP,resources/DY.BMP,Door4,0.336675144,-0.038251919,1,0,0,0.9304,optionRight,60,13400,6,25,0,25,0,1,,,,,,,,,,,,,,,,,,,,,,,,,,,,,,,,,,,,,,,
,,,,,,,,2023-08-16_08h42.12.198,HF_wild_card,2022.2.4,MacIntel,60.0024001,60ddf72ef11f891328449fb0,64d2fd46c836a06233681665,64dc7dc754e17fa3494411ba,,,,,,,sngl,resources/Empty.png,resources/DP.BMP,WildCard_NonEx,0.333360392,-0.084004449,1,0,0,0.7284,optionRight,55,13455,6,26,0,26,0,1,,,,,,,,,,,,,,,,,,,,,,,,,,,,,,,,,,,,,,,
,,,,,,,,2023-08-16_08h42.12.198,HF_wild_card,2022.2.4,MacIntel,60.0024001,60ddf72ef11f891328449fb0,64d2fd46c836a06233681665,64dc7dc754e17fa3494411ba,,,,,,,decisionTrl,resources/DR.BMP,resources/DG.BMP,Door1,-0.277270915,-0.037113274,1,0,0,1.0821,optionLeft,30,13485,6,27,0,27,0,1,,,,,,,,,,,,,,,,,,,,,,,,,,,,,,,,,,,,,,,
,,,,,,,,2023-08-16_08h42.12.198,HF_wild_card,2022.2.4,MacIntel,60.0024001,60ddf72ef11f891328449fb0,64d2fd46c836a06233681665,64dc7dc754e17fa3494411ba,,,,,,,decisionTrl,resources/DG.BMP,resources/DR.BMP,Door1,0.322303196,-0.016635946,1,0,0,0.7119,optionRight,30,13515,6,28,0,28,0,1,,,,,,,,,,,,,,,,,,,,,,,,,,,,,,,,,,,,,,,
,,,,,,,,2023-08-16_08h42.12.198,HF_wild_card,2022.2.4,MacIntel,60.0024001,60ddf72ef11f891328449fb0,64d2fd46c836a06233681665,64dc7dc754e17fa3494411ba,,,,,,,sngl,resources/Empty.png,resources/DB.BMP,Door3,0.311979845,-0.085750665,1,0,0,0.6618,optionRight,70,13585,6,29,0,29,0,1,,,,,,,,,,,,,,,,,,,,,,,,,,,,,,,,,,,,,,,
,,,,,,,,2023-08-16_08h42.12.198,HF_wild_card,2022.2.4,MacIntel,60.0024001,60ddf72ef11f891328449fb0,64d2fd46c836a06233681665,64dc7dc754e17fa3494411ba,,,,,,,decisionTrl,resources/DG.BMP,resources/DR.BMP,Door1,0.351540392,-0.026000841,1,0,0,1.0324,optionRight,30,13615,6,30,0,30,0,1,,,,,,,,,,,,,,,,,,,,,,,,,,,,,,,,,,,,,,,
,,,,,,,,2023-08-16_08h42.12.198,HF_wild_card,2022.2.4,MacIntel,60.0024001,60ddf72ef11f891328449fb0,64d2fd46c836a06233681665,64dc7dc754e17fa3494411ba,,,,,,,decisionTrl,resources/DP.BMP,resources/DY.BMP,Door4,0.344501546,-0.06156311,1,0,0,1.3802,optionRight,80,13695,6,31,0,31,0,1,,,,,,,,,,,,,,,,,,,,,,,,,,,,,,,,,,,,,,,
,,,,,,,,2023-08-16_08h42.12.198,HF_wild_card,2022.2.4,MacIntel,60.0024001,60ddf72ef11f891328449fb0,64d2fd46c836a06233681665,64dc7dc754e17fa3494411ba,,,,,,,decisionTrl,resources/DR.BMP,resources/DG.BMP,Door1,-0.324535997,-0.036613498,1,0,0,1.0648,optionLeft,30,13725,6,32,0,32,0,1,,,,,,,,,,,,,,,,,,,,,,,,,,,,,,,,,,,,,,,
,,,,,,,,2023-08-16_08h42.12.198,HF_wild_card,2022.2.4,MacIntel,60.0024001,60ddf72ef11f891328449fb0,64d2fd46c836a06233681665,64dc7dc754e17fa3494411ba,,,,,,,sngl,resources/DP.BMP,resources/Empty.png,WildCard_NonEx,-0.313574151,-0.014381646,1,0,0,0.7438,optionLeft,45,13770,6,33,0,33,0,1,,,,,,,,,,,,,,,,,,,,,,,,,,,,,,,,,,,,,,,
,,,,,,,,2023-08-16_08h42.12.198,HF_wild_card,2022.2.4,MacIntel,60.0024001,60ddf72ef11f891328449fb0,64d2fd46c836a06233681665,64dc7dc754e17fa3494411ba,,,,,,,decisionTrl,resources/DY.BMP,resources/DB.BMP,Door3,0.402198758,-0.09005344,1,0,0,1.4574,optionRight,70,13840,6,34,0,34,0,1,,,,,,,,,,,,,,,,,,,,,,,,,,,,,,,,,,,,,,,
,,,,,,,,2023-08-16_08h42.12.198,HF_wild_card,2022.2.4,MacIntel,60.0024001,60ddf72ef11f891328449fb0,64d2fd46c836a06233681665,64dc7dc754e17fa3494411ba,,,,,,,ctch,resources/DR.BMP,resources/DY.BMP,Door4,0.326694675,-0.046137899,1,0,0,1.1978,optionRight,60,13900,6,35,0,35,0,1,,,,,,,,,,,,,,,,,,,,,,,,,,,,,,,,,,,,,,,
,,,,,,,,2023-08-16_08h42.12.198,HF_wild_card,2022.2.4,MacIntel,60.0024001,60ddf72ef11f891328449fb0,64d2fd46c836a06233681665,64dc7dc754e17fa3494411ba,,,,,,,decisionTrl,resources/DY.BMP,resources/DB.BMP,Door3,0.355121528,-0.086417508,1,0,0,1.2123,optionRight,70,13970,6,36,0,36,0,1,,,,,,,,,,,,,,,,,,,,,,,,,,,,,,,,,,,,,,,
,,,,,,,,2023-08-16_08h42.12.198,HF_wild_card,2022.2.4,MacIntel,60.0024001,60ddf72ef11f891328449fb0,64d2fd46c836a06233681665,64dc7dc754e17fa3494411ba,,,,,,,ctch,resources/DB.BMP,resources/DG.BMP,Door3,-0.435276964,-0.075948622,1,0,0,1.0287,optionLeft,70,14040,6,37,0,37,0,1,,,,,,,,,,,,,,,,,,,,,,,,,,,,,,,,,,,,,,,
,,,,,,,,2023-08-16_08h42.12.198,HF_wild_card,2022.2.4,MacIntel,60.0024001,60ddf72ef11f891328449fb0,64d2fd46c836a06233681665,64dc7dc754e17fa3494411ba,,,,,,,decisionTrl,resources/DY.BMP,resources/DP.BMP,Door4,-0.329100138,-0.057966648,1,0,0,1.2245,optionLeft,80,14120,6,38,0,38,0,1,,,,,,,,,,,,,,,,,,,,,,,,,,,,,,,,,,,,,,,
,,,,,,,,2023-08-16_08h42.12.198,HF_wild_card,2022.2.4,MacIntel,60.0024001,60ddf72ef11f891328449fb0,64d2fd46c836a06233681665,64dc7dc754e17fa3494411ba,,,,,,,decisionTrl,resources/DY.BMP,resources/DB.BMP,Door4,-0.282513835,-0.049875285,1,0,0,0.7994,optionLeft,80,14200,6,39,0,39,0,1,,,,,,,,,,,,,,,,,,,,,,,,,,,,,,,,,,,,,,,
,,,,,,,,2023-08-16_08h42.12.198,HF_wild_card,2022.2.4,MacIntel,60.0024001,60ddf72ef11f891328449fb0,64d2fd46c836a06233681665,64dc7dc754e17fa3494411ba,,,,,,,ctch,resources/DG.BMP,resources/DB.BMP,Door3,0.269964261,0.013680623,1,0,0,2.2121,optionRight,70,14270,6,40,0,40,0,1,,,,,,,,,,,,,,,,,,,,,,,,,,,,,,,,,,,,,,,
,,,,,,,,2023-08-16_08h42.12.198,HF_wild_card,2022.2.4,MacIntel,60.0024001,60ddf72ef11f891328449fb0,64d2fd46c836a06233681665,64dc7dc754e17fa3494411ba,,,,,,,decisionTrl,resources/DG.BMP,resources/DR.BMP,Door1,0.282923923,-0.085413818,1,0,0,3.6496,optionRight,30,14300,6,41,0,41,0,1,,,,,,,,,,,,,,,,,,,,,,,,,,,,,,,,,,,,,,,
,,,,,,,,2023-08-16_08h42.12.198,HF_wild_card,2022.2.4,MacIntel,60.0024001,60ddf72ef11f891328449fb0,64d2fd46c836a06233681665,64dc7dc754e17fa3494411ba,,,,,,,sngl,resources/DR.BMP,resources/Empty.png,Door1,-0.353896417,-0.021996189,1,0,0,0.727,optionLeft,30,14330,6,42,0,42,0,1,,,,,,,,,,,,,,,,,,,,,,,,,,,,,,,,,,,,,,,
,,,,,,,,2023-08-16_08h42.12.198,HF_wild_card,2022.2.4,MacIntel,60.0024001,60ddf72ef11f891328449fb0,64d2fd46c836a06233681665,64dc7dc754e17fa3494411ba,,,,,,,decisionTrl,resources/DP.BMP,resources/DG.BMP,WildCard_NonEx,-0.378302578,-0.068100586,1,0,0,1.5143,optionLeft,45,14375,6,43,0,43,0,1,,,,,,,,,,,,,,,,,,,,,,,,,,,,,,,,,,,,,,,
,,,,,,,,2023-08-16_08h42.12.198,HF_wild_card,2022.2.4,MacIntel,60.0024001,60ddf72ef11f891328449fb0,64d2fd46c836a06233681665,64dc7dc754e17fa3494411ba,,,,,,,,,,,,,,,,,,,,,,,,,,5,0,5,0,1,,,,,,,,,,,,,,,,,,,,,,,,,,,,,,,,,,
,,,,,,,,2023-08-16_08h42.12.198,HF_wild_card,2022.2.4,MacIntel,60.0024001,60ddf72ef11f891328449fb0,64d2fd46c836a06233681665,64dc7dc754e17fa3494411ba,,,,,,,decisionTrl,resources/DR.BMP,resources/DG.BMP,Door1,-0.508322652,-0.061569756,1,0,0,1.3297,optionLeft,30,14405,7,0,0,0,0,1,,,,,,,,,,,,,,,,,,,,,,,,,,,,,,,,,,,,,,,
,,,,,,,,2023-08-16_08h42.12.198,HF_wild_card,2022.2.4,MacIntel,60.0024001,60ddf72ef11f891328449fb0,64d2fd46c836a06233681665,64dc7dc754e17fa3494411ba,,,,,,,decisionTrl,resources/DG.BMP,resources/DR.BMP,Door1,0.367352431,-0.016631266,1,0,0,1.1307,optionRight,30,14435,7,1,0,1,0,1,,,,,,,,,,,,,,,,,,,,,,,,,,,,,,,,,,,,,,,
,,,,,,,,2023-08-16_08h42.12.198,HF_wild_card,2022.2.4,MacIntel,60.0024001,60ddf72ef11f891328449fb0,64d2fd46c836a06233681665,64dc7dc754e17fa3494411ba,,,,,,,decisionTrl,resources/DY.BMP,resources/DB.BMP,Door3,0.334439223,-0.081980116,1,0,0,1.4654,optionRight,70,14505,7,2,0,2,0,1,,,,,,,,,,,,,,,,,,,,,,,,,,,,,,,,,,,,,,,
,,,,,,,,2023-08-16_08h42.12.198,HF_wild_card,2022.2.4,MacIntel,60.0024001,60ddf72ef11f891328449fb0,64d2fd46c836a06233681665,64dc7dc754e17fa3494411ba,,,,,,,decisionTrl,resources/DB.BMP,resources/DY.BMP,Door3,-0.331642897,0.024529012,1,0,0,1.2956,optionLeft,70,14575,7,3,0,3,0,1,,,,,,,,,,,,,,,,,,,,,,,,,,,,,,,,,,,,,,,
,,,,,,,,2023-08-16_08h42.12.198,HF_wild_card,2022.2.4,MacIntel,60.0024001,60ddf72ef11f891328449fb0,64d2fd46c836a06233681665,64dc7dc754e17fa3494411ba,,,,,,,decisionTrl,resources/DG.BMP,resources/DR.BMP,Door1,0.354830458,-0.025712009,1,0,0,1.2338,optionRight,30,14605,7,4,0,4,0,1,,,,,,,,,,,,,,,,,,,,,,,,,,,,,,,,,,,,,,,
,,,,,,,,2023-08-16_08h42.12.198,HF_wild_card,2022.2.4,MacIntel,60.0024001,60ddf72ef11f891328449fb0,64d2fd46c836a06233681665,64dc7dc754e17fa3494411ba,,,,,,,ctch,resources/DR.BMP,resources/DY.BMP,Door4,0.333619859,-0.071004639,1,0,0,2.1579,optionRight,80,14685,7,5,0,5,0,1,,,,,,,,,,,,,,,,,,,,,,,,,,,,,,,,,,,,,,,
,,,,,,,,2023-08-16_08h42.12.198,HF_wild_card,2022.2.4,MacIntel,60.0024001,60ddf72ef11f891328449fb0,64d2fd46c836a06233681665,64dc7dc754e17fa3494411ba,,,,,,,ctch,resources/DR.BMP,resources/DY.BMP,Door4,0.378522135,-0.056262885,1,0,0,1.2302,optionRight,60,14745,7,6,0,6,0,1,,,,,,,,,,,,,,,,,,,,,,,,,,,,,,,,,,,,,,,
,,,,,,,,2023-08-16_08h42.12.198,HF_wild_card,2022.2.4,MacIntel,60.0024001,60ddf72ef11f891328449fb0,64d2fd46c836a06233681665,64dc7dc754e17fa3494411ba,,,,,,,decisionTrl,resources/DY.BMP,resources/DB.BMP,Door3,0.192388441,-0.108151109,1,0,0,1.4309,optionRight,70,14815,7,7,0,7,0,1,,,,,,,,,,,,,,,,,,,,,,,,,,,,,,,,,,,,,,,
,,,,,,,,2023-08-16_08h42.12.198,HF_wild_card,2022.2.4,MacIntel,60.0024001,60ddf72ef11f891328449fb0,64d2fd46c836a06233681665,64dc7dc754e17fa3494411ba,,,,,,,decisionTrl,resources/DY.BMP,resources/DB.BMP,Door3,0.335952488,-0.059976739,1,0,0,1.4301,optionRight,70,14885,7,8,0,8,0,1,,,,,,,,,,,,,,,,,,,,,,,,,,,,,,,,,,,,,,,
,,,,,,,,2023-08-16_08h42.12.198,HF_wild_card,2022.2.4,MacIntel,60.0024001,60ddf72ef11f891328449fb0,64d2fd46c836a06233681665,64dc7dc754e17fa3494411ba,,,,,,,ctch,resources/DB.BMP,resources/DG.BMP,Door3,-0.429014384,-0.010415073,1,0,0,1.3325,optionLeft,70,14955,7,9,0,9,0,1,,,,,,,,,,,,,,,,,,,,,,,,,,,,,,,,,,,,,,,
,,,,,,,,2023-08-16_08h42.12.198,HF_wild_card,2022.2.4,MacIntel,60.0024001,60ddf72ef11f891328449fb0,64d2fd46c836a06233681665,64dc7dc754e17fa3494411ba,,,,,,,decisionTrl,resources/DB.BMP,resources/DY.BMP,Door3,-0.403850132,-0.052925144,1,0,0,1.5346,optionLeft,70,15025,7,10,0,10,0,1,,,,,,,,,,,,,,,,,,,,,,,,,,,,,,,,,,,,,,,
,,,,,,,,2023-08-16_08h42.12.198,HF_wild_card,2022.2.4,MacIntel,60.0024001,60ddf72ef11f891328449fb0,64d2fd46c836a06233681665,64dc7dc754e17fa3494411ba,,,,,,,decisionTrl,resources/DB.BMP,resources/DY.BMP,Door3,-0.366448805,-0.028518609,1,0,0,1.1636,optionLeft,70,15095,7,11,0,11,0,1,,,,,,,,,,,,,,,,,,,,,,,,,,,,,,,,,,,,,,,
,,,,,,,,2023-08-16_08h42.12.198,HF_wild_card,2022.2.4,MacIntel,60.0024001,60ddf72ef11f891328449fb0,64d2fd46c836a06233681665,64dc7dc754e17fa3494411ba,,,,,,,ctch,resources/DG.BMP,resources/DB.BMP,Door3,0.362768962,-0.023572862,1,0,0,1.1639,optionRight,70,15165,7,12,0,12,0,1,,,,,,,,,,,,,,,,,,,,,,,,,,,,,,,,,,,,,,,
,,,,,,,,2023-08-16_08h42.12.198,HF_wild_card,2022.2.4,MacIntel,60.0024001,60ddf72ef11f891328449fb0,64d2fd46c836a06233681665,64dc7dc754e17fa3494411ba,,,,,,,decisionTrl,resources/DG.BMP,resources/DR.BMP,Door1,0.396042887,-0.070077176,1,0,0,2.1973,optionRight,30,15195,7,13,0,13,0,1,,,,,,,,,,,,,,,,,,,,,,,,,,,,,,,,,,,,,,,
,,,,,,,,2023-08-16_08h42.12.198,HF_wild_card,2022.2.4,MacIntel,60.0024001,60ddf72ef11f891328449fb0,64d2fd46c836a06233681665,64dc7dc754e17fa3494411ba,,,,,,,ctch,resources/DY.BMP,resources/DR.BMP,Door4,-0.551380141,0.031790636,1,0,0,1.2292,optionLeft,60,15255,7,14,0,14,0,1,,,,,,,,,,,,,,,,,,,,,,,,,,,,,,,,,,,,,,,
,,,,,,,,2023-08-16_08h42.12.198,HF_wild_card,2022.2.4,MacIntel,60.0024001,60ddf72ef11f891328449fb0,64d2fd46c836a06233681665,64dc7dc754e17fa3494411ba,,,,,,,decisionTrl,resources/DY.BMP,resources/DB.BMP,Door3,0.220800985,-0.08763638,1,0,0,1.8968,optionRight,70,15325,7,15,0,15,0,1,,,,,,,,,,,,,,,,,,,,,,,,,,,,,,,,,,,,,,,
,,,,,,,,2023-08-16_08h42.12.198,HF_wild_card,2022.2.4,MacIntel,60.0024001,60ddf72ef11f891328449fb0,64d2fd46c836a06233681665,64dc7dc754e17fa3494411ba,,,,,,,ctch,resources/DR.BMP,resources/DY.BMP,Door4,0.383552924,-0.122153998,1,0,0,1.4923,optionRight,60,15385,7,16,0,16,0,1,,,,,,,,,,,,,,,,,,,,,,,,,,,,,,,,,,,,,,,
,,,,,,,,2023-08-16_08h42.12.198,HF_wild_card,2022.2.4,MacIntel,60.0024001,60ddf72ef11f891328449fb0,64d2fd46c836a06233681665,64dc7dc754e17fa3494411ba,,,,,,,decisionTrl,resources/DR.BMP,resources/DG.BMP,Door1,-0.350952488,-0.150138075,1,0,0,2.5283,optionLeft,30,15415,7,17,0,17,0,1,,,,,,,,,,,,,,,,,,,,,,,,,,,,,,,,,,,,,,,
,,,,,,,,2023-08-16_08h42.12.198,HF_wild_card,2022.2.4,MacIntel,60.0024001,60ddf72ef11f891328449fb0,64d2fd46c836a06233681665,64dc7dc754e17fa3494411ba,,,,,,,decisionTrl,resources/DB.BMP,resources/DY.BMP,Door3,-0.227286648,-0.078530409,1,0,0,1.267,optionLeft,70,15485,7,18,0,18,0,1,,,,,,,,,,,,,,,,,,,,,,,,,,,,,,,,,,,,,,,
,,,,,,,,2023-08-16_08h42.12.198,HF_wild_card,2022.2.4,MacIntel,60.0024001,60ddf72ef11f891328449fb0,64d2fd46c836a06233681665,64dc7dc754e17fa3494411ba,,,,,,,ctch,resources/DB.BMP,resources/DG.BMP,Door3,-0.371402791,-0.066882189,1,0,0,1.4657,optionLeft,70,15555,7,19,0,19,0,1,,,,,,,,,,,,,,,,,,,,,,,,,,,,,,,,,,,,,,,
,,,,,,,,2023-08-16_08h42.12.198,HF_wild_card,2022.2.4,MacIntel,60.0024001,60ddf72ef11f891328449fb0,64d2fd46c836a06233681665,64dc7dc754e17fa3494411ba,,,,,,,decisionTrl,resources/DR.BMP,resources/DG.BMP,Door1,-0.322684903,-0.0496423,1,0,0,1.2676,optionLeft,30,15585,7,20,0,20,0,1,,,,,,,,,,,,,,,,,,,,,,,,,,,,,,,,,,,,,,,
,,,,,,,,2023-08-16_08h42.12.198,HF_wild_card,2022.2.4,MacIntel,60.0024001,60ddf72ef11f891328449fb0,64d2fd46c836a06233681665,64dc7dc754e17fa3494411ba,,,,,,,decisionTrl,resources/DG.BMP,resources/DR.BMP,Door1,0.360210368,-0.03142568,1,0,0,0.933,optionRight,30,15615,7,21,0,21,0,1,,,,,,,,,,,,,,,,,,,,,,,,,,,,,,,,,,,,,,,
,,,,,,,,2023-08-16_08h42.12.198,HF_wild_card,2022.2.4,MacIntel,60.0024001,60ddf72ef11f891328449fb0,64d2fd46c836a06233681665,64dc7dc754e17fa3494411ba,,,,,,,decisionTrl,resources/DY.BMP,resources/DB.BMP,Door3,0.152467787,-0.09899075,1,0,0,1.863,optionRight,70,15685,7,22,0,22,0,1,,,,,,,,,,,,,,,,,,,,,,,,,,,,,,,,,,,,,,,
,,,,,,,,2023-08-16_08h42.12.198,HF_wild_card,2022.2.4,MacIntel,60.0024001,60ddf72ef11f891328449fb0,64d2fd46c836a06233681665,64dc7dc754e17fa3494411ba,,,,,,,ctch,resources/DY.BMP,resources/DR.BMP,Door4,-0.336798774,-0.060547078,1,0,0,1.4338,optionLeft,80,15765,7,23,0,23,0,1,,,,,,,,,,,,,,,,,,,,,,,,,,,,,,,,,,,,,,,
,,,,,,,,2023-08-16_08h42.12.198,HF_wild_card,2022.2.4,MacIntel,60.0024001,60ddf72ef11f891328449fb0,64d2fd46c836a06233681665,64dc7dc754e17fa3494411ba,,,,,,,ctch,resources/DG.BMP,resources/DB.BMP,Door3,0.358070068,-0.09281996,1,0,0,1.1336,optionRight,70,15835,7,24,0,24,0,1,,,,,,,,,,,,,,,,,,,,,,,,,,,,,,,,,,,,,,,
,,,,,,,,2023-08-16_08h42.12.198,HF_wild_card,2022.2.4,MacIntel,60.0024001,60ddf72ef11f891328449fb0,64d2fd46c836a06233681665,64dc7dc754e17fa3494411ba,,,,,,,decisionTrl,resources/DB.BMP,resources/DY.BMP,Door3,-0.304670308,-0.086941664,1,0,0,1.695,optionLeft,70,15905,7,25,0,25,0,1,,,,,,,,,,,,,,,,,,,,,,,,,,,,,,,,,,,,,,,
,,,,,,,,2023-08-16_08h42.12.198,HF_wild_card,2022.2.4,MacIntel,60.0024001,60ddf72ef11f891328449fb0,64d2fd46c836a06233681665,64dc7dc754e17fa3494411ba,,,,,,,ctch,resources/DY.BMP,resources/DR.BMP,Door4,-0.288935004,-0.076028849,1,0,0,1.5289,optionLeft,60,15965,7,26,0,26,0,1,,,,,,,,,,,,,,,,,,,,,,,,,,,,,,,,,,,,,,,
,,,,,,,,2023-08-16_08h42.12.198,HF_wild_card,2022.2.4,MacIntel,60.0024001,60ddf72ef11f891328449fb0,64d2fd46c836a06233681665,64dc7dc754e17fa3494411ba,,,,,,,decisionTrl,resources/DY.BMP,resources/DB.BMP,Door3,0.278914998,-0.054660916,1,0,0,1.1974,optionRight,70,16035,7,27,0,27,0,1,,,,,,,,,,,,,,,,,,,,,,,,,,,,,,,,,,,,,,,
,,,,,,,,2023-08-16_08h42.12.198,HF_wild_card,2022.2.4,MacIntel,60.0024001,60ddf72ef11f891328449fb0,64d2fd46c836a06233681665,64dc7dc754e17fa3494411ba,,,,,,,ctch,resources/DG.BMP,resources/DB.BMP,Door3,0.274370117,-0.035664402,1,0,0,1.7305,optionRight,70,16105,7,28,0,28,0,1,,,,,,,,,,,,,,,,,,,,,,,,,,,,,,,,,,,,,,,
,,,,,,,,2023-08-16_08h42.12.198,HF_wild_card,2022.2.4,MacIntel,60.0024001,60ddf72ef11f891328449fb0,64d2fd46c836a06233681665,64dc7dc754e17fa3494411ba,,,,,,,decisionTrl,resources/DG.BMP,resources/DR.BMP,Door1,0.326566637,-0.138889635,1,0,0,2.0335,optionRight,30,16135,7,29,0,29,0,1,,,,,,,,,,,,,,,,,,,,,,,,,,,,,,,,,,,,,,,
,,,,,,,,2023-08-16_08h42.12.198,HF_wild_card,2022.2.4,MacIntel,60.0024001,60ddf72ef11f891328449fb0,64d2fd46c836a06233681665,64dc7dc754e17fa3494411ba,,,,,,,decisionTrl,resources/DG.BMP,resources/DR.BMP,Door1,0.372976752,-0.081147054,1,0,0,2.598,optionRight,30,16165,7,30,0,30,0,1,,,,,,,,,,,,,,,,,,,,,,,,,,,,,,,,,,,,,,,
,,,,,,,,2023-08-16_08h42.12.198,HF_wild_card,2022.2.4,MacIntel,60.0024001,60ddf72ef11f891328449fb0,64d2fd46c836a06233681665,64dc7dc754e17fa3494411ba,,,,,,,decisionTrl,resources/DR.BMP,resources/DG.BMP,Door1,-0.270207282,-0.040254178,1,0,0,0.9655,optionLeft,30,16195,7,31,0,31,0,1,,,,,,,,,,,,,,,,,,,,,,,,,,,,,,,,,,,,,,,
,,,,,,,,2023-08-16_08h42.12.198,HF_wild_card,2022.2.4,MacIntel,60.0024001,60ddf72ef11f891328449fb0,64d2fd46c836a06233681665,64dc7dc754e17fa3494411ba,,,,,,,ctch,resources/DB.BMP,resources/DG.BMP,Door3,-0.30231347,-0.011325616,1,0,0,0.964,optionLeft,70,16265,7,32,0,32,0,1,,,,,,,,,,,,,,,,,,,,,,,,,,,,,,,,,,,,,,,
,,,,,,,,2023-08-16_08h42.12.198,HF_wild_card,2022.2.4,MacIntel,60.0024001,60ddf72ef11f891328449fb0,64d2fd46c836a06233681665,64dc7dc754e17fa3494411ba,,,,,,,decisionTrl,resources/DR.BMP,resources/DG.BMP,Door1,-0.247060445,-0.062733392,1,0,0,1.2974,optionLeft,30,16295,7,33,0,33,0,1,,,,,,,,,,,,,,,,,,,,,,,,,,,,,,,,,,,,,,,
,,,,,,,,2023-08-16_08h42.12.198,HF_wild_card,2022.2.4,MacIntel,60.0024001,60ddf72ef11f891328449fb0,64d2fd46c836a06233681665,64dc7dc754e17fa3494411ba,,,,,,,decisionTrl,resources/DB.BMP,resources/DY.BMP,Door3,-0.301855062,-0.079879354,1,0,0,1.2328,optionLeft,70,16365,7,34,0,34,0,1,,,,,,,,,,,,,,,,,,,,,,,,,,,,,,,,,,,,,,,
,,,,,,,,2023-08-16_08h42.12.198,HF_wild_card,2022.2.4,MacIntel,60.0024001,60ddf72ef11f891328449fb0,64d2fd46c836a06233681665,64dc7dc754e17fa3494411ba,,,,,,,decisionTrl,resources/DR.BMP,resources/DG.BMP,Door1,-0.282254537,-0.015999959,1,0,0,1.1004,optionLeft,30,16395,7,35,0,35,0,1,,,,,,,,,,,,,,,,,,,,,,,,,,,,,,,,,,,,,,,
,,,,,,,,2023-08-16_08h42.12.198,HF_wild_card,2022.2.4,MacIntel,60.0024001,60ddf72ef11f891328449fb0,64d2fd46c836a06233681665,64dc7dc754e17fa3494411ba,,,,,,,,,,,,,,,,,,,,,,,,,,6,0,6,0,1,,,,,,,,,,,,,,,,,,,,,,,,,,,,,,,,,,
,,,,,,,,2023-08-16_08h42.12.198,HF_wild_card,2022.2.4,MacIntel,60.0024001,60ddf72ef11f891328449fb0,64d2fd46c836a06233681665,64dc7dc754e17fa3494411ba,,,,,,,,,,,,,,,,,,,,,,,,,,,,,,,4,,,,,,,,,,,,,,,,,,,,,,,,,,,,,,,,,
,,,,,,,,2023-08-16_08h42.12.198,HF_wild_card,2022.2.4,MacIntel,60.0024001,60ddf72ef11f891328449fb0,64d2fd46c836a06233681665,64dc7dc754e17fa3494411ba,,,,,,,,,,,,,,,,,,,,,,,,,,,,,,,,,,,,,,,,,,,,,,,,,,,,,,,,,,,,,,,,
,,,,,,,,2023-08-16_08h42.12.198,HF_wild_card,2022.2.4,MacIntel,60.0024001,60ddf72ef11f891328449fb0,64d2fd46c836a06233681665,64dc7dc754e17fa3494411ba,,,,,,,,,,,,,,,,,,,,,,,,,,,,,,,,75,WC_extreme,resources/DBN.BMP,0,0,0,0,1,,,,,,,,,,,,,,,,,,,,,,,,,
,,,,,,,,2023-08-16_08h42.12.198,HF_wild_card,2022.2.4,MacIntel,60.0024001,60ddf72ef11f891328449fb0,64d2fd46c836a06233681665,64dc7dc754e17fa3494411ba,,,,,,,,,,,,,,,,,,,,,,,,,,,,,,,,70,Door3,resources/DB.BMP,1,0,1,0,1,,,,,,,,,,,,,,,,,,,,,,,,,
,,,,,,,,2023-08-16_08h42.12.198,HF_wild_card,2022.2.4,MacIntel,60.0024001,60ddf72ef11f891328449fb0,64d2fd46c836a06233681665,64dc7dc754e17fa3494411ba,,,,,,,,,,,,,,,,,,,,,,,,,,,,,,,,30,Door1,resources/DR.BMP,2,0,2,0,1,,,,,,,,,,,,,,,,,,,,,,,,,
,,,,,,,,2023-08-16_08h42.12.198,HF_wild_card,2022.2.4,MacIntel,60.0024001,60ddf72ef11f891328449fb0,64d2fd46c836a06233681665,64dc7dc754e17fa3494411ba,,,,,,,,,,,,,,,,,,,,,,,,,,,,,,,,20,Door2,resources/DG.BMP,3,0,3,0,1,,,,,,,,,,,,,,,,,,,,,,,,,
