Condition,Low fixed image (Door1),Low risky image (Door2),High fixed image (Door3),High risky image (Door4),Extreme Wild Card,NonExtreme Wild Card,,date,expName,psychopyVersion,OS,frameRate,PROLIFIC_PID,STUDY_ID,SESSION_ID,mouse_2.x,mouse_2.y,mouse_2.leftButton,mouse_2.midButton,mouse_2.rightButton,mouse_2.clicked_name,Trial Type,Left Option Image,Right Option Image,Chosen Door,mouse.x,mouse.y,mouse.leftButton,mouse.midButton,mouse.rightButton,mouse.time,mouse.clicked_name,Feedback,Cumulative Reward,Block,trial.thisRepN,trial.thisTrialN,trial.thisN,trial.thisIndex,trial.ran,blocks.thisRepN,blocks.thisTrialN,blocks.thisN,blocks.thisIndex,blocks.ran,Money conversion,First Outcome Reported,Shown Door (First Outcome),Displayed Image (First Outcome),outcomes.thisRepN,outcomes.thisTrialN,outcomes.thisN,outcomes.thisIndex,outcomes.ran,judgments.thisRepN,judgments.thisTrialN,judgments.thisN,judgments.thisIndex,judgments.ran,freqMouse.x,freqMouse.y,freqMouse.leftButton,freqMouse.midButton,freqMouse.rightButton,freqMouse.clicked_name,FQJ for first outcome,FQJ for second outcome,Shown Door,Displayed Image,trials.thisRepN,trials.thisTrialN,trials.thisN,trials.thisIndex,trials.ran,judgBlock.thisRepN,judgBlock.thisTrialN,judgBlock.thisN,judgBlock.thisIndex,judgBlock.ran
0,resources/DBN.BMP,resources/DP.BMP,resources/DB.BMP,resources/DG.BMP,resources/DR.BMP,resources/DY.BMP,5717864c94d4fc001297198d,2023-08-16_08h24.35.905,HF_wild_card,2022.2.4,Win32,59.91970759,5717864c94d4fc001297198d,64d2fd46c836a06233681665,64dc79a2601d7d2f191270b7,,,,,,,,,,,,,,,,,,,,,,,,,,,,,,,,,,,,,,,,,,,,,,,,,,,,,,,,,,,,,,,,
,,,,,,,5717864c94d4fc001297198d,2023-08-16_08h24.35.905,HF_wild_card,2022.2.4,Win32,59.91970759,5717864c94d4fc001297198d,64d2fd46c836a06233681665,64dc79a2601d7d2f191270b7,0.012037065,-0.42777782,1,0,0,agree,,,,,,,,,,,,,,,,,,,,,,,,,,,,,,,,,,,,,,,,,,,,,,,,,,,,,,,,,,
,,,,,,,5717864c94d4fc001297198d,2023-08-16_08h24.35.905,HF_wild_card,2022.2.4,Win32,59.91970759,5717864c94d4fc001297198d,64d2fd46c836a06233681665,64dc79a2601d7d2f191270b7,,,,,,,,,,,,,,,,,,,,,,,,,,,,,,,,,,,,,,,,,,,,,,,,,,,,,,,,,,,,,,,,
,,,,,,,5717864c94d4fc001297198d,2023-08-16_08h24.35.905,HF_wild_card,2022.2.4,Win32,59.91970759,5717864c94d4fc001297198d,64d2fd46c836a06233681665,64dc79a2601d7d2f191270b7,,,,,,,ctch,resources/DBN.BMP,resources/DG.BMP,Door4,0.334259316,0.045370349,1,0,0,1.5721,optionRight,60,60,1,0,0,0,0,1,,,,,,,,,,,,,,,,,,,,,,,,,,,,,,,,,,,,,,,
,,,,,,,5717864c94d4fc001297198d,2023-08-16_08h24.35.905,HF_wild_card,2022.2.4,Win32,59.91970759,5717864c94d4fc001297198d,64d2fd46c836a06233681665,64dc79a2601d7d2f191270b7,,,,,,,decisionTrl,resources/DR.BMP,resources/DB.BMP,WildCard_Ex,-0.281481496,-0.014814836,1,0,0,1.2798,optionLeft,5,65,1,1,0,1,0,1,,,,,,,,,,,,,,,,,,,,,,,,,,,,,,,,,,,,,,,
,,,,,,,5717864c94d4fc001297198d,2023-08-16_08h24.35.905,HF_wild_card,2022.2.4,Win32,59.91970759,5717864c94d4fc001297198d,64d2fd46c836a06233681665,64dc79a2601d7d2f191270b7,,,,,,,decisionTrl,resources/DG.BMP,resources/DB.BMP,Door4,-0.313888868,0.002777771,1,0,0,0.9838,optionLeft,80,145,1,2,0,2,0,1,,,,,,,,,,,,,,,,,,,,,,,,,,,,,,,,,,,,,,,
,,,,,,,5717864c94d4fc001297198d,2023-08-16_08h24.35.905,HF_wild_card,2022.2.4,Win32,59.91970759,5717864c94d4fc001297198d,64d2fd46c836a06233681665,64dc79a2601d7d2f191270b7,,,,,,,decisionTrl,resources/DG.BMP,resources/DB.BMP,Door4,-0.276851866,-0.018518519,1,0,0,0.9461,optionLeft,60,205,1,3,0,3,0,1,,,,,,,,,,,,,,,,,,,,,,,,,,,,,,,,,,,,,,,
,,,,,,,5717864c94d4fc001297198d,2023-08-16_08h24.35.905,HF_wild_card,2022.2.4,Win32,59.91970759,5717864c94d4fc001297198d,64d2fd46c836a06233681665,64dc79a2601d7d2f191270b7,,,,,,,sngl,resources/DBN.BMP,resources/Empty.png,Door1,-0.250925912,-0.018518519,1,0,0,0.9964,optionLeft,30,235,1,4,0,4,0,1,,,,,,,,,,,,,,,,,,,,,,,,,,,,,,,,,,,,,,,
,,,,,,,5717864c94d4fc001297198d,2023-08-16_08h24.35.905,HF_wild_card,2022.2.4,Win32,59.91970759,5717864c94d4fc001297198d,64d2fd46c836a06233681665,64dc79a2601d7d2f191270b7,,,,,,,sngl,resources/Empty.png,resources/DP.BMP,Door2,0.243518547,-0.000925947,1,0,0,0.9501,optionRight,20,255,1,5,0,5,0,1,,,,,,,,,,,,,,,,,,,,,,,,,,,,,,,,,,,,,,,
,,,,,,,5717864c94d4fc001297198d,2023-08-16_08h24.35.905,HF_wild_card,2022.2.4,Win32,59.91970759,5717864c94d4fc001297198d,64d2fd46c836a06233681665,64dc79a2601d7d2f191270b7,,,,,,,decisionTrl,resources/DR.BMP,resources/DG.BMP,Door4,0.225000028,0.012962942,1,0,0,0.8639,optionRight,60,315,1,6,0,6,0,1,,,,,,,,,,,,,,,,,,,,,,,,,,,,,,,,,,,,,,,
,,,,,,,5717864c94d4fc001297198d,2023-08-16_08h24.35.905,HF_wild_card,2022.2.4,Win32,59.91970759,5717864c94d4fc001297198d,64d2fd46c836a06233681665,64dc79a2601d7d2f191270b7,,,,,,,decisionTrl,resources/DG.BMP,resources/DB.BMP,Door4,-0.232407393,-0.014814836,1,0,0,0.9812,optionLeft,80,395,1,7,0,7,0,1,,,,,,,,,,,,,,,,,,,,,,,,,,,,,,,,,,,,,,,
,,,,,,,5717864c94d4fc001297198d,2023-08-16_08h24.35.905,HF_wild_card,2022.2.4,Win32,59.91970759,5717864c94d4fc001297198d,64d2fd46c836a06233681665,64dc79a2601d7d2f191270b7,,,,,,,sngl,resources/Empty.png,resources/DB.BMP,Door3,0.204629616,-0.020370377,1,0,0,1.2968,optionRight,70,465,1,8,0,8,0,1,,,,,,,,,,,,,,,,,,,,,,,,,,,,,,,,,,,,,,,
,,,,,,,5717864c94d4fc001297198d,2023-08-16_08h24.35.905,HF_wild_card,2022.2.4,Win32,59.91970759,5717864c94d4fc001297198d,64d2fd46c836a06233681665,64dc79a2601d7d2f191270b7,,,,,,,sngl,resources/DG.BMP,resources/Empty.png,Door4,-0.319444444,0.005555541,1,0,0,0.7137,optionLeft,80,545,1,9,0,9,0,1,,,,,,,,,,,,,,,,,,,,,,,,,,,,,,,,,,,,,,,
,,,,,,,5717864c94d4fc001297198d,2023-08-16_08h24.35.905,HF_wild_card,2022.2.4,Win32,59.91970759,5717864c94d4fc001297198d,64d2fd46c836a06233681665,64dc79a2601d7d2f191270b7,,,,,,,decisionTrl,resources/DB.BMP,resources/DG.BMP,Door3,-0.14444443,0.002777771,1,0,0,1.1937,optionLeft,70,615,1,10,0,10,0,1,,,,,,,,,,,,,,,,,,,,,,,,,,,,,,,,,,,,,,,
,,,,,,,5717864c94d4fc001297198d,2023-08-16_08h24.35.905,HF_wild_card,2022.2.4,Win32,59.91970759,5717864c94d4fc001297198d,64d2fd46c836a06233681665,64dc79a2601d7d2f191270b7,,,,,,,decisionTrl,resources/DB.BMP,resources/DG.BMP,Door4,0.214814857,-0.013888889,1,0,0,0.6999,optionRight,60,675,1,11,0,11,0,1,,,,,,,,,,,,,,,,,,,,,,,,,,,,,,,,,,,,,,,
,,,,,,,5717864c94d4fc001297198d,2023-08-16_08h24.35.905,HF_wild_card,2022.2.4,Win32,59.91970759,5717864c94d4fc001297198d,64d2fd46c836a06233681665,64dc79a2601d7d2f191270b7,,,,,,,sngl,resources/Empty.png,resources/DR.BMP,WildCard_Ex,0.283333319,-0.018518519,1,0,0,0.6939,optionRight,5,680,1,12,0,12,0,1,,,,,,,,,,,,,,,,,,,,,,,,,,,,,,,,,,,,,,,
,,,,,,,5717864c94d4fc001297198d,2023-08-16_08h24.35.905,HF_wild_card,2022.2.4,Win32,59.91970759,5717864c94d4fc001297198d,64d2fd46c836a06233681665,64dc79a2601d7d2f191270b7,,,,,,,decisionTrl,resources/DB.BMP,resources/DG.BMP,Door3,-0.212962963,0,1,0,0,0.8637,optionLeft,70,750,1,13,0,13,0,1,,,,,,,,,,,,,,,,,,,,,,,,,,,,,,,,,,,,,,,
,,,,,,,5717864c94d4fc001297198d,2023-08-16_08h24.35.905,HF_wild_card,2022.2.4,Win32,59.91970759,5717864c94d4fc001297198d,64d2fd46c836a06233681665,64dc79a2601d7d2f191270b7,,,,,,,decisionTrl,resources/DR.BMP,resources/DP.BMP,WildCard_Ex,-0.203703704,-0.005555577,1,0,0,1.0301,optionLeft,5,755,1,14,0,14,0,1,,,,,,,,,,,,,,,,,,,,,,,,,,,,,,,,,,,,,,,
,,,,,,,5717864c94d4fc001297198d,2023-08-16_08h24.35.905,HF_wild_card,2022.2.4,Win32,59.91970759,5717864c94d4fc001297198d,64d2fd46c836a06233681665,64dc79a2601d7d2f191270b7,,,,,,,ctch,resources/DP.BMP,resources/DB.BMP,Door2,-0.268518519,0.00462963,1,0,0,0.7006,optionLeft,20,775,1,15,0,15,0,1,,,,,,,,,,,,,,,,,,,,,,,,,,,,,,,,,,,,,,,
,,,,,,,5717864c94d4fc001297198d,2023-08-16_08h24.35.905,HF_wild_card,2022.2.4,Win32,59.91970759,5717864c94d4fc001297198d,64d2fd46c836a06233681665,64dc79a2601d7d2f191270b7,,,,,,,ctch,resources/DB.BMP,resources/DP.BMP,Door3,-0.25462963,0.013888889,1,0,0,0.8179,optionLeft,70,845,1,16,0,16,0,1,,,,,,,,,,,,,,,,,,,,,,,,,,,,,,,,,,,,,,,
,,,,,,,5717864c94d4fc001297198d,2023-08-16_08h24.35.905,HF_wild_card,2022.2.4,Win32,59.91970759,5717864c94d4fc001297198d,64d2fd46c836a06233681665,64dc79a2601d7d2f191270b7,,,,,,,ctch,resources/DB.BMP,resources/DP.BMP,Door3,-0.327777757,0.029629637,1,0,0,0.6609,optionLeft,70,915,1,17,0,17,0,1,,,,,,,,,,,,,,,,,,,,,,,,,,,,,,,,,,,,,,,
,,,,,,,5717864c94d4fc001297198d,2023-08-16_08h24.35.905,HF_wild_card,2022.2.4,Win32,59.91970759,5717864c94d4fc001297198d,64d2fd46c836a06233681665,64dc79a2601d7d2f191270b7,,,,,,,decisionTrl,resources/DB.BMP,resources/DR.BMP,Door3,-0.377777771,0.044444437,1,0,0,1.4097,optionLeft,70,985,1,18,0,18,0,1,,,,,,,,,,,,,,,,,,,,,,,,,,,,,,,,,,,,,,,
,,,,,,,5717864c94d4fc001297198d,2023-08-16_08h24.35.905,HF_wild_card,2022.2.4,Win32,59.91970759,5717864c94d4fc001297198d,64d2fd46c836a06233681665,64dc79a2601d7d2f191270b7,,,,,,,sngl,resources/DR.BMP,resources/Empty.png,WildCard_Ex,-0.296296296,-0.00462963,1,0,0,0.7007,optionLeft,95,1080,1,19,0,19,0,1,,,,,,,,,,,,,,,,,,,,,,,,,,,,,,,,,,,,,,,
,,,,,,,5717864c94d4fc001297198d,2023-08-16_08h24.35.905,HF_wild_card,2022.2.4,Win32,59.91970759,5717864c94d4fc001297198d,64d2fd46c836a06233681665,64dc79a2601d7d2f191270b7,,,,,,,sngl,resources/Empty.png,resources/DG.BMP,Door4,0.205555598,-0.014814836,1,0,0,0.6602,optionRight,60,1140,1,20,0,20,0,1,,,,,,,,,,,,,,,,,,,,,,,,,,,,,,,,,,,,,,,
,,,,,,,5717864c94d4fc001297198d,2023-08-16_08h24.35.905,HF_wild_card,2022.2.4,Win32,59.91970759,5717864c94d4fc001297198d,64d2fd46c836a06233681665,64dc79a2601d7d2f191270b7,,,,,,,ctch,resources/DP.BMP,resources/DB.BMP,Door2,-0.246296282,0.00462963,1,0,0,1.0465,optionLeft,20,1160,1,21,0,21,0,1,,,,,,,,,,,,,,,,,,,,,,,,,,,,,,,,,,,,,,,
,,,,,,,5717864c94d4fc001297198d,2023-08-16_08h24.35.905,HF_wild_card,2022.2.4,Win32,59.91970759,5717864c94d4fc001297198d,64d2fd46c836a06233681665,64dc79a2601d7d2f191270b7,,,,,,,decisionTrl,resources/DBN.BMP,resources/DP.BMP,Door1,-0.37962963,0.043518526,1,0,0,1.6096,optionLeft,30,1190,1,22,0,22,0,1,,,,,,,,,,,,,,,,,,,,,,,,,,,,,,,,,,,,,,,
,,,,,,,5717864c94d4fc001297198d,2023-08-16_08h24.35.905,HF_wild_card,2022.2.4,Win32,59.91970759,5717864c94d4fc001297198d,64d2fd46c836a06233681665,64dc79a2601d7d2f191270b7,,,,,,,decisionTrl,resources/DP.BMP,resources/DBN.BMP,Door1,0.255555541,0.003703683,1,0,0,0.8472,optionRight,30,1220,1,23,0,23,0,1,,,,,,,,,,,,,,,,,,,,,,,,,,,,,,,,,,,,,,,
,,,,,,,5717864c94d4fc001297198d,2023-08-16_08h24.35.905,HF_wild_card,2022.2.4,Win32,59.91970759,5717864c94d4fc001297198d,64d2fd46c836a06233681665,64dc79a2601d7d2f191270b7,,,,,,,decisionTrl,resources/DB.BMP,resources/DG.BMP,Door3,-0.282407407,0.001851859,1,0,0,1.1962,optionLeft,70,1290,1,24,0,24,0,1,,,,,,,,,,,,,,,,,,,,,,,,,,,,,,,,,,,,,,,
,,,,,,,5717864c94d4fc001297198d,2023-08-16_08h24.35.905,HF_wild_card,2022.2.4,Win32,59.91970759,5717864c94d4fc001297198d,64d2fd46c836a06233681665,64dc79a2601d7d2f191270b7,,,,,,,ctch,resources/DG.BMP,resources/DBN.BMP,Door4,-0.297222208,0,1,0,0,0.8604,optionLeft,60,1350,1,25,0,25,0,1,,,,,,,,,,,,,,,,,,,,,,,,,,,,,,,,,,,,,,,
,,,,,,,5717864c94d4fc001297198d,2023-08-16_08h24.35.905,HF_wild_card,2022.2.4,Win32,59.91970759,5717864c94d4fc001297198d,64d2fd46c836a06233681665,64dc79a2601d7d2f191270b7,,,,,,,decisionTrl,resources/DBN.BMP,resources/DP.BMP,Door2,0.291666667,0.018518519,1,0,0,1.7814,optionRight,20,1370,1,26,0,26,0,1,,,,,,,,,,,,,,,,,,,,,,,,,,,,,,,,,,,,,,,
,,,,,,,5717864c94d4fc001297198d,2023-08-16_08h24.35.905,HF_wild_card,2022.2.4,Win32,59.91970759,5717864c94d4fc001297198d,64d2fd46c836a06233681665,64dc79a2601d7d2f191270b7,,,,,,,decisionTrl,resources/DP.BMP,resources/DBN.BMP,Door2,-0.346296275,0.029629637,1,0,0,1.0967,optionLeft,20,1390,1,27,0,27,0,1,,,,,,,,,,,,,,,,,,,,,,,,,,,,,,,,,,,,,,,
,,,,,,,5717864c94d4fc001297198d,2023-08-16_08h24.35.905,HF_wild_card,2022.2.4,Win32,59.91970759,5717864c94d4fc001297198d,64d2fd46c836a06233681665,64dc79a2601d7d2f191270b7,,,,,,,decisionTrl,resources/DBN.BMP,resources/DR.BMP,WildCard_Ex,0.214814857,-0.001851859,1,0,0,0.7277,optionRight,95,1485,1,28,0,28,0,1,,,,,,,,,,,,,,,,,,,,,,,,,,,,,,,,,,,,,,,
,,,,,,,5717864c94d4fc001297198d,2023-08-16_08h24.35.905,HF_wild_card,2022.2.4,Win32,59.91970759,5717864c94d4fc001297198d,64d2fd46c836a06233681665,64dc79a2601d7d2f191270b7,,,,,,,decisionTrl,resources/DBN.BMP,resources/DP.BMP,Door1,-0.339814822,0.033333319,1,0,0,1.0638,optionLeft,30,1515,1,29,0,29,0,1,,,,,,,,,,,,,,,,,,,,,,,,,,,,,,,,,,,,,,,
,,,,,,,5717864c94d4fc001297198d,2023-08-16_08h24.35.905,HF_wild_card,2022.2.4,Win32,59.91970759,5717864c94d4fc001297198d,64d2fd46c836a06233681665,64dc79a2601d7d2f191270b7,,,,,,,decisionTrl,resources/DP.BMP,resources/DBN.BMP,Door2,-0.313888868,0.013888889,1,0,0,0.7982,optionLeft,40,1555,1,30,0,30,0,1,,,,,,,,,,,,,,,,,,,,,,,,,,,,,,,,,,,,,,,
,,,,,,,5717864c94d4fc001297198d,2023-08-16_08h24.35.905,HF_wild_card,2022.2.4,Win32,59.91970759,5717864c94d4fc001297198d,64d2fd46c836a06233681665,64dc79a2601d7d2f191270b7,,,,,,,ctch,resources/DG.BMP,resources/DBN.BMP,Door4,-0.445370356,0.042592578,1,0,0,0.8973,optionLeft,60,1615,1,31,0,31,0,1,,,,,,,,,,,,,,,,,,,,,,,,,,,,,,,,,,,,,,,
,,,,,,,5717864c94d4fc001297198d,2023-08-16_08h24.35.905,HF_wild_card,2022.2.4,Win32,59.91970759,5717864c94d4fc001297198d,64d2fd46c836a06233681665,64dc79a2601d7d2f191270b7,,,,,,,decisionTrl,resources/DBN.BMP,resources/DP.BMP,Door2,0.344444416,0.012962942,1,0,0,0.701,optionRight,40,1655,1,32,0,32,0,1,,,,,,,,,,,,,,,,,,,,,,,,,,,,,,,,,,,,,,,
,,,,,,,5717864c94d4fc001297198d,2023-08-16_08h24.35.905,HF_wild_card,2022.2.4,Win32,59.91970759,5717864c94d4fc001297198d,64d2fd46c836a06233681665,64dc79a2601d7d2f191270b7,,,,,,,sngl,resources/DP.BMP,resources/Empty.png,Door2,-0.296296296,0.009259259,1,0,0,1.1106,optionLeft,40,1695,1,33,0,33,0,1,,,,,,,,,,,,,,,,,,,,,,,,,,,,,,,,,,,,,,,
,,,,,,,5717864c94d4fc001297198d,2023-08-16_08h24.35.905,HF_wild_card,2022.2.4,Win32,59.91970759,5717864c94d4fc001297198d,64d2fd46c836a06233681665,64dc79a2601d7d2f191270b7,,,,,,,ctch,resources/DBN.BMP,resources/DG.BMP,Door4,0.373148176,-0.045370384,1,0,0,1.1804,optionRight,60,1755,1,34,0,34,0,1,,,,,,,,,,,,,,,,,,,,,,,,,,,,,,,,,,,,,,,
,,,,,,,5717864c94d4fc001297198d,2023-08-16_08h24.35.905,HF_wild_card,2022.2.4,Win32,59.91970759,5717864c94d4fc001297198d,64d2fd46c836a06233681665,64dc79a2601d7d2f191270b7,,,,,,,sngl,resources/Empty.png,resources/DBN.BMP,Door1,0.262962977,-0.021296289,1,0,0,1.4139,optionRight,30,1785,1,35,0,35,0,1,,,,,,,,,,,,,,,,,,,,,,,,,,,,,,,,,,,,,,,
,,,,,,,5717864c94d4fc001297198d,2023-08-16_08h24.35.905,HF_wild_card,2022.2.4,Win32,59.91970759,5717864c94d4fc001297198d,64d2fd46c836a06233681665,64dc79a2601d7d2f191270b7,,,,,,,decisionTrl,resources/DP.BMP,resources/DBN.BMP,Door2,-0.207407422,0.014814801,1,0,0,0.6265,optionLeft,40,1825,1,36,0,36,0,1,,,,,,,,,,,,,,,,,,,,,,,,,,,,,,,,,,,,,,,
,,,,,,,5717864c94d4fc001297198d,2023-08-16_08h24.35.905,HF_wild_card,2022.2.4,Win32,59.91970759,5717864c94d4fc001297198d,64d2fd46c836a06233681665,64dc79a2601d7d2f191270b7,,,,,,,decisionTrl,resources/DR.BMP,resources/DBN.BMP,WildCard_Ex,-0.228703675,0.012962942,1,0,0,0.6662,optionLeft,95,1920,1,37,0,37,0,1,,,,,,,,,,,,,,,,,,,,,,,,,,,,,,,,,,,,,,,
,,,,,,,5717864c94d4fc001297198d,2023-08-16_08h24.35.905,HF_wild_card,2022.2.4,Win32,59.91970759,5717864c94d4fc001297198d,64d2fd46c836a06233681665,64dc79a2601d7d2f191270b7,,,,,,,decisionTrl,resources/DG.BMP,resources/DB.BMP,Door4,-0.344444452,0.02407406,1,0,0,0.6936,optionLeft,60,1980,1,38,0,38,0,1,,,,,,,,,,,,,,,,,,,,,,,,,,,,,,,,,,,,,,,
,,,,,,,5717864c94d4fc001297198d,2023-08-16_08h24.35.905,HF_wild_card,2022.2.4,Win32,59.91970759,5717864c94d4fc001297198d,64d2fd46c836a06233681665,64dc79a2601d7d2f191270b7,,,,,,,sngl,resources/DR.BMP,resources/Empty.png,WildCard_Ex,-0.274999972,0.034259266,1,0,0,0.6439,optionLeft,5,1985,1,39,0,39,0,1,,,,,,,,,,,,,,,,,,,,,,,,,,,,,,,,,,,,,,,
,,,,,,,5717864c94d4fc001297198d,2023-08-16_08h24.35.905,HF_wild_card,2022.2.4,Win32,59.91970759,5717864c94d4fc001297198d,64d2fd46c836a06233681665,64dc79a2601d7d2f191270b7,,,,,,,decisionTrl,resources/DP.BMP,resources/DR.BMP,WildCard_Ex,0.238888917,-0.013888889,1,0,0,0.7009,optionRight,95,2080,1,40,0,40,0,1,,,,,,,,,,,,,,,,,,,,,,,,,,,,,,,,,,,,,,,
,,,,,,,5717864c94d4fc001297198d,2023-08-16_08h24.35.905,HF_wild_card,2022.2.4,Win32,59.91970759,5717864c94d4fc001297198d,64d2fd46c836a06233681665,64dc79a2601d7d2f191270b7,,,,,,,decisionTrl,resources/DG.BMP,resources/DR.BMP,Door4,-0.308333326,0.010185171,1,0,0,0.6796,optionLeft,60,2140,1,41,0,41,0,1,,,,,,,,,,,,,,,,,,,,,,,,,,,,,,,,,,,,,,,
,,,,,,,5717864c94d4fc001297198d,2023-08-16_08h24.35.905,HF_wild_card,2022.2.4,Win32,59.91970759,5717864c94d4fc001297198d,64d2fd46c836a06233681665,64dc79a2601d7d2f191270b7,,,,,,,sngl,resources/DB.BMP,resources/Empty.png,Door3,-0.233333305,0.015740748,1,0,0,0.6161,optionLeft,70,2210,1,42,0,42,0,1,,,,,,,,,,,,,,,,,,,,,,,,,,,,,,,,,,,,,,,
,,,,,,,5717864c94d4fc001297198d,2023-08-16_08h24.35.905,HF_wild_card,2022.2.4,Win32,59.91970759,5717864c94d4fc001297198d,64d2fd46c836a06233681665,64dc79a2601d7d2f191270b7,,,,,,,sngl,resources/Empty.png,resources/DR.BMP,WildCard_Ex,0.217592593,-0.027777778,1,0,0,0.5979,optionRight,95,2305,1,43,0,43,0,1,,,,,,,,,,,,,,,,,,,,,,,,,,,,,,,,,,,,,,,
,,,,,,,5717864c94d4fc001297198d,2023-08-16_08h24.35.905,HF_wild_card,2022.2.4,Win32,59.91970759,5717864c94d4fc001297198d,64d2fd46c836a06233681665,64dc79a2601d7d2f191270b7,,,,,,,,,,,,,,,,,,,,,,,,,,0,0,0,0,1,,,,,,,,,,,,,,,,,,,,,,,,,,,,,,,,,,
,,,,,,,5717864c94d4fc001297198d,2023-08-16_08h24.35.905,HF_wild_card,2022.2.4,Win32,59.91970759,5717864c94d4fc001297198d,64d2fd46c836a06233681665,64dc79a2601d7d2f191270b7,,,,,,,decisionTrl,resources/DG.BMP,resources/DB.BMP,Door4,-0.266666624,-0.114814829,1,0,0,0.6859,optionLeft,60,2365,2,0,0,0,0,1,,,,,,,,,,,,,,,,,,,,,,,,,,,,,,,,,,,,,,,
,,,,,,,5717864c94d4fc001297198d,2023-08-16_08h24.35.905,HF_wild_card,2022.2.4,Win32,59.91970759,5717864c94d4fc001297198d,64d2fd46c836a06233681665,64dc79a2601d7d2f191270b7,,,,,,,decisionTrl,resources/DB.BMP,resources/DG.BMP,Door4,0.292592578,0.001851859,1,0,0,0.7803,optionRight,80,2445,2,1,0,1,0,1,,,,,,,,,,,,,,,,,,,,,,,,,,,,,,,,,,,,,,,
,,,,,,,5717864c94d4fc001297198d,2023-08-16_08h24.35.905,HF_wild_card,2022.2.4,Win32,59.91970759,5717864c94d4fc001297198d,64d2fd46c836a06233681665,64dc79a2601d7d2f191270b7,,,,,,,decisionTrl,resources/DG.BMP,resources/DR.BMP,Door4,-0.253703718,0.018518519,1,0,0,0.68,optionLeft,80,2525,2,2,0,2,0,1,,,,,,,,,,,,,,,,,,,,,,,,,,,,,,,,,,,,,,,
,,,,,,,5717864c94d4fc001297198d,2023-08-16_08h24.35.905,HF_wild_card,2022.2.4,Win32,59.91970759,5717864c94d4fc001297198d,64d2fd46c836a06233681665,64dc79a2601d7d2f191270b7,,,,,,,ctch,resources/DG.BMP,resources/DBN.BMP,Door4,-0.163888861,0.008333312,1,0,0,0.694,optionLeft,60,2585,2,3,0,3,0,1,,,,,,,,,,,,,,,,,,,,,,,,,,,,,,,,,,,,,,,
,,,,,,,5717864c94d4fc001297198d,2023-08-16_08h24.35.905,HF_wild_card,2022.2.4,Win32,59.91970759,5717864c94d4fc001297198d,64d2fd46c836a06233681665,64dc79a2601d7d2f191270b7,,,,,,,sngl,resources/DP.BMP,resources/Empty.png,Door2,-0.180555556,0.012962942,1,0,0,0.6939,optionLeft,20,2605,2,4,0,4,0,1,,,,,,,,,,,,,,,,,,,,,,,,,,,,,,,,,,,,,,,
,,,,,,,5717864c94d4fc001297198d,2023-08-16_08h24.35.905,HF_wild_card,2022.2.4,Win32,59.91970759,5717864c94d4fc001297198d,64d2fd46c836a06233681665,64dc79a2601d7d2f191270b7,,,,,,,decisionTrl,resources/DP.BMP,resources/DBN.BMP,Door2,-0.202777792,0.0074074,1,0,0,0.695,optionLeft,40,2645,2,5,0,5,0,1,,,,,,,,,,,,,,,,,,,,,,,,,,,,,,,,,,,,,,,
,,,,,,,5717864c94d4fc001297198d,2023-08-16_08h24.35.905,HF_wild_card,2022.2.4,Win32,59.91970759,5717864c94d4fc001297198d,64d2fd46c836a06233681665,64dc79a2601d7d2f191270b7,,,,,,,decisionTrl,resources/DP.BMP,resources/DBN.BMP,Door2,-0.238888847,0.029629637,1,0,0,0.7474,optionLeft,20,2665,2,6,0,6,0,1,,,,,,,,,,,,,,,,,,,,,,,,,,,,,,,,,,,,,,,
,,,,,,,5717864c94d4fc001297198d,2023-08-16_08h24.35.905,HF_wild_card,2022.2.4,Win32,59.91970759,5717864c94d4fc001297198d,64d2fd46c836a06233681665,64dc79a2601d7d2f191270b7,,,,,,,sngl,resources/DBN.BMP,resources/Empty.png,Door1,-0.175925926,0.01203703,1,0,0,0.7148,optionLeft,30,2695,2,7,0,7,0,1,,,,,,,,,,,,,,,,,,,,,,,,,,,,,,,,,,,,,,,
,,,,,,,5717864c94d4fc001297198d,2023-08-16_08h24.35.905,HF_wild_card,2022.2.4,Win32,59.91970759,5717864c94d4fc001297198d,64d2fd46c836a06233681665,64dc79a2601d7d2f191270b7,,,,,,,decisionTrl,resources/DBN.BMP,resources/DP.BMP,Door2,0.202777792,-0.020370377,1,0,0,0.9674,optionRight,20,2715,2,8,0,8,0,1,,,,,,,,,,,,,,,,,,,,,,,,,,,,,,,,,,,,,,,
,,,,,,,5717864c94d4fc001297198d,2023-08-16_08h24.35.905,HF_wild_card,2022.2.4,Win32,59.91970759,5717864c94d4fc001297198d,64d2fd46c836a06233681665,64dc79a2601d7d2f191270b7,,,,,,,ctch,resources/DB.BMP,resources/DP.BMP,Door3,-0.317592586,0.049999979,1,0,0,1.9637,optionLeft,70,2785,2,9,0,9,0,1,,,,,,,,,,,,,,,,,,,,,,,,,,,,,,,,,,,,,,,
,,,,,,,5717864c94d4fc001297198d,2023-08-16_08h24.35.905,HF_wild_card,2022.2.4,Win32,59.91970759,5717864c94d4fc001297198d,64d2fd46c836a06233681665,64dc79a2601d7d2f191270b7,,,,,,,ctch,resources/DP.BMP,resources/DB.BMP,Door3,0.232407393,-0.023148148,1,0,0,1.6266,optionRight,70,2855,2,10,0,10,0,1,,,,,,,,,,,,,,,,,,,,,,,,,,,,,,,,,,,,,,,
,,,,,,,5717864c94d4fc001297198d,2023-08-16_08h24.35.905,HF_wild_card,2022.2.4,Win32,59.91970759,5717864c94d4fc001297198d,64d2fd46c836a06233681665,64dc79a2601d7d2f191270b7,,,,,,,decisionTrl,resources/DR.BMP,resources/DBN.BMP,Door1,0.20185188,-0.005555577,1,0,0,1.0817,optionRight,30,2885,2,11,0,11,0,1,,,,,,,,,,,,,,,,,,,,,,,,,,,,,,,,,,,,,,,
,,,,,,,5717864c94d4fc001297198d,2023-08-16_08h24.35.905,HF_wild_card,2022.2.4,Win32,59.91970759,5717864c94d4fc001297198d,64d2fd46c836a06233681665,64dc79a2601d7d2f191270b7,,,,,,,decisionTrl,resources/DBN.BMP,resources/DP.BMP,Door2,0.29814812,-0.017592607,1,0,0,1.3447,optionRight,20,2905,2,12,0,12,0,1,,,,,,,,,,,,,,,,,,,,,,,,,,,,,,,,,,,,,,,
,,,,,,,5717864c94d4fc001297198d,2023-08-16_08h24.35.905,HF_wild_card,2022.2.4,Win32,59.91970759,5717864c94d4fc001297198d,64d2fd46c836a06233681665,64dc79a2601d7d2f191270b7,,,,,,,decisionTrl,resources/DBN.BMP,resources/DR.BMP,Door1,-0.287962949,0.043518526,1,0,0,0.6138,optionLeft,30,2935,2,13,0,13,0,1,,,,,,,,,,,,,,,,,,,,,,,,,,,,,,,,,,,,,,,
,,,,,,,5717864c94d4fc001297198d,2023-08-16_08h24.35.905,HF_wild_card,2022.2.4,Win32,59.91970759,5717864c94d4fc001297198d,64d2fd46c836a06233681665,64dc79a2601d7d2f191270b7,,,,,,,decisionTrl,resources/DB.BMP,resources/DR.BMP,Door3,-0.208333333,0.025000007,1,0,0,1.1966,optionLeft,70,3005,2,14,0,14,0,1,,,,,,,,,,,,,,,,,,,,,,,,,,,,,,,,,,,,,,,
,,,,,,,5717864c94d4fc001297198d,2023-08-16_08h24.35.905,HF_wild_card,2022.2.4,Win32,59.91970759,5717864c94d4fc001297198d,64d2fd46c836a06233681665,64dc79a2601d7d2f191270b7,,,,,,,decisionTrl,resources/DB.BMP,resources/DG.BMP,Door4,0.164814843,-0.0074074,1,0,0,1.7642,optionRight,80,3085,2,15,0,15,0,1,,,,,,,,,,,,,,,,,,,,,,,,,,,,,,,,,,,,,,,
,,,,,,,5717864c94d4fc001297198d,2023-08-16_08h24.35.905,HF_wild_card,2022.2.4,Win32,59.91970759,5717864c94d4fc001297198d,64d2fd46c836a06233681665,64dc79a2601d7d2f191270b7,,,,,,,decisionTrl,resources/DR.BMP,resources/DB.BMP,WildCard_Ex,-0.228703675,0.02870369,1,0,0,1.0141,optionLeft,5,3090,2,16,0,16,0,1,,,,,,,,,,,,,,,,,,,,,,,,,,,,,,,,,,,,,,,
,,,,,,,5717864c94d4fc001297198d,2023-08-16_08h24.35.905,HF_wild_card,2022.2.4,Win32,59.91970759,5717864c94d4fc001297198d,64d2fd46c836a06233681665,64dc79a2601d7d2f191270b7,,,,,,,sngl,resources/DR.BMP,resources/Empty.png,WildCard_Ex,-0.249074088,0.011111118,1,0,0,0.6765,optionLeft,5,3095,2,17,0,17,0,1,,,,,,,,,,,,,,,,,,,,,,,,,,,,,,,,,,,,,,,
,,,,,,,5717864c94d4fc001297198d,2023-08-16_08h24.35.905,HF_wild_card,2022.2.4,Win32,59.91970759,5717864c94d4fc001297198d,64d2fd46c836a06233681665,64dc79a2601d7d2f191270b7,,,,,,,sngl,resources/DG.BMP,resources/Empty.png,Door4,-0.271296254,0.01666666,1,0,0,0.6266,optionLeft,60,3155,2,18,0,18,0,1,,,,,,,,,,,,,,,,,,,,,,,,,,,,,,,,,,,,,,,
,,,,,,,5717864c94d4fc001297198d,2023-08-16_08h24.35.905,HF_wild_card,2022.2.4,Win32,59.91970759,5717864c94d4fc001297198d,64d2fd46c836a06233681665,64dc79a2601d7d2f191270b7,,,,,,,ctch,resources/DP.BMP,resources/DB.BMP,Door3,0.181481467,-0.008333347,1,0,0,0.8645,optionRight,70,3225,2,19,0,19,0,1,,,,,,,,,,,,,,,,,,,,,,,,,,,,,,,,,,,,,,,
,,,,,,,5717864c94d4fc001297198d,2023-08-16_08h24.35.905,HF_wild_card,2022.2.4,Win32,59.91970759,5717864c94d4fc001297198d,64d2fd46c836a06233681665,64dc79a2601d7d2f191270b7,,,,,,,decisionTrl,resources/DBN.BMP,resources/DP.BMP,Door1,-0.378703683,0.099999993,1,0,0,1.1963,optionLeft,30,3255,2,20,0,20,0,1,,,,,,,,,,,,,,,,,,,,,,,,,,,,,,,,,,,,,,,
,,,,,,,5717864c94d4fc001297198d,2023-08-16_08h24.35.905,HF_wild_card,2022.2.4,Win32,59.91970759,5717864c94d4fc001297198d,64d2fd46c836a06233681665,64dc79a2601d7d2f191270b7,,,,,,,decisionTrl,resources/DB.BMP,resources/DG.BMP,Door4,0.165740755,-0.009259259,1,0,0,1.0933,optionRight,80,3335,2,21,0,21,0,1,,,,,,,,,,,,,,,,,,,,,,,,,,,,,,,,,,,,,,,
,,,,,,,5717864c94d4fc001297198d,2023-08-16_08h24.35.905,HF_wild_card,2022.2.4,Win32,59.91970759,5717864c94d4fc001297198d,64d2fd46c836a06233681665,64dc79a2601d7d2f191270b7,,,,,,,ctch,resources/DG.BMP,resources/DBN.BMP,Door4,-0.172222208,0.026851831,1,0,0,0.8771,optionLeft,60,3395,2,22,0,22,0,1,,,,,,,,,,,,,,,,,,,,,,,,,,,,,,,,,,,,,,,
,,,,,,,5717864c94d4fc001297198d,2023-08-16_08h24.35.905,HF_wild_card,2022.2.4,Win32,59.91970759,5717864c94d4fc001297198d,64d2fd46c836a06233681665,64dc79a2601d7d2f191270b7,,,,,,,decisionTrl,resources/DG.BMP,resources/DB.BMP,Door4,-0.187962921,0.003703683,1,0,0,0.8774,optionLeft,60,3455,2,23,0,23,0,1,,,,,,,,,,,,,,,,,,,,,,,,,,,,,,,,,,,,,,,
,,,,,,,5717864c94d4fc001297198d,2023-08-16_08h24.35.905,HF_wild_card,2022.2.4,Win32,59.91970759,5717864c94d4fc001297198d,64d2fd46c836a06233681665,64dc79a2601d7d2f191270b7,,,,,,,ctch,resources/DBN.BMP,resources/DG.BMP,Door4,0.279629672,-0.0074074,1,0,0,0.7775,optionRight,60,3515,2,24,0,24,0,1,,,,,,,,,,,,,,,,,,,,,,,,,,,,,,,,,,,,,,,
,,,,,,,5717864c94d4fc001297198d,2023-08-16_08h24.35.905,HF_wild_card,2022.2.4,Win32,59.91970759,5717864c94d4fc001297198d,64d2fd46c836a06233681665,64dc79a2601d7d2f191270b7,,,,,,,decisionTrl,resources/DG.BMP,resources/DB.BMP,Door4,-0.145370342,0.025000007,1,0,0,0.7344,optionLeft,60,3575,2,25,0,25,0,1,,,,,,,,,,,,,,,,,,,,,,,,,,,,,,,,,,,,,,,
,,,,,,,5717864c94d4fc001297198d,2023-08-16_08h24.35.905,HF_wild_card,2022.2.4,Win32,59.91970759,5717864c94d4fc001297198d,64d2fd46c836a06233681665,64dc79a2601d7d2f191270b7,,,,,,,decisionTrl,resources/DP.BMP,resources/DBN.BMP,Door1,0.287037037,-0.017592607,1,0,0,0.9632,optionRight,30,3605,2,26,0,26,0,1,,,,,,,,,,,,,,,,,,,,,,,,,,,,,,,,,,,,,,,
,,,,,,,5717864c94d4fc001297198d,2023-08-16_08h24.35.905,HF_wild_card,2022.2.4,Win32,59.91970759,5717864c94d4fc001297198d,64d2fd46c836a06233681665,64dc79a2601d7d2f191270b7,,,,,,,ctch,resources/DB.BMP,resources/DP.BMP,Door3,-0.099999958,0.01666666,1,0,0,1.0297,optionLeft,70,3675,2,27,0,27,0,1,,,,,,,,,,,,,,,,,,,,,,,,,,,,,,,,,,,,,,,
,,,,,,,5717864c94d4fc001297198d,2023-08-16_08h24.35.905,HF_wild_card,2022.2.4,Win32,59.91970759,5717864c94d4fc001297198d,64d2fd46c836a06233681665,64dc79a2601d7d2f191270b7,,,,,,,sngl,resources/DB.BMP,resources/Empty.png,Door3,-0.224074046,0.035185178,1,0,0,0.6326,optionLeft,70,3745,2,28,0,28,0,1,,,,,,,,,,,,,,,,,,,,,,,,,,,,,,,,,,,,,,,
,,,,,,,5717864c94d4fc001297198d,2023-08-16_08h24.35.905,HF_wild_card,2022.2.4,Win32,59.91970759,5717864c94d4fc001297198d,64d2fd46c836a06233681665,64dc79a2601d7d2f191270b7,,,,,,,sngl,resources/Empty.png,resources/DBN.BMP,Door1,0.275000042,-0.021296289,1,0,0,0.6169,optionRight,30,3775,2,29,0,29,0,1,,,,,,,,,,,,,,,,,,,,,,,,,,,,,,,,,,,,,,,
,,,,,,,5717864c94d4fc001297198d,2023-08-16_08h24.35.905,HF_wild_card,2022.2.4,Win32,59.91970759,5717864c94d4fc001297198d,64d2fd46c836a06233681665,64dc79a2601d7d2f191270b7,,,,,,,sngl,resources/Empty.png,resources/DP.BMP,Door2,0.246296282,-0.01666666,1,0,0,0.6467,optionRight,40,3815,2,30,0,30,0,1,,,,,,,,,,,,,,,,,,,,,,,,,,,,,,,,,,,,,,,
,,,,,,,5717864c94d4fc001297198d,2023-08-16_08h24.35.905,HF_wild_card,2022.2.4,Win32,59.91970759,5717864c94d4fc001297198d,64d2fd46c836a06233681665,64dc79a2601d7d2f191270b7,,,,,,,decisionTrl,resources/DR.BMP,resources/DG.BMP,WildCard_Ex,-0.187037009,0.041666667,1,0,0,0.8634,optionLeft,95,3910,2,31,0,31,0,1,,,,,,,,,,,,,,,,,,,,,,,,,,,,,,,,,,,,,,,
,,,,,,,5717864c94d4fc001297198d,2023-08-16_08h24.35.905,HF_wild_card,2022.2.4,Win32,59.91970759,5717864c94d4fc001297198d,64d2fd46c836a06233681665,64dc79a2601d7d2f191270b7,,,,,,,decisionTrl,resources/DG.BMP,resources/DB.BMP,Door4,-0.223148134,0.067592586,1,0,0,1.2823,optionLeft,60,3970,2,32,0,32,0,1,,,,,,,,,,,,,,,,,,,,,,,,,,,,,,,,,,,,,,,
,,,,,,,5717864c94d4fc001297198d,2023-08-16_08h24.35.905,HF_wild_card,2022.2.4,Win32,59.91970759,5717864c94d4fc001297198d,64d2fd46c836a06233681665,64dc79a2601d7d2f191270b7,,,,,,,ctch,resources/DBN.BMP,resources/DG.BMP,Door1,-0.494444423,0.069444444,1,0,0,1.6279,optionLeft,30,4000,2,33,0,33,0,1,,,,,,,,,,,,,,,,,,,,,,,,,,,,,,,,,,,,,,,
,,,,,,,5717864c94d4fc001297198d,2023-08-16_08h24.35.905,HF_wild_card,2022.2.4,Win32,59.91970759,5717864c94d4fc001297198d,64d2fd46c836a06233681665,64dc79a2601d7d2f191270b7,,,,,,,decisionTrl,resources/DR.BMP,resources/DP.BMP,Door2,0.337962963,-0.056481503,1,0,0,1.5773,optionRight,40,4040,2,34,0,34,0,1,,,,,,,,,,,,,,,,,,,,,,,,,,,,,,,,,,,,,,,
,,,,,,,5717864c94d4fc001297198d,2023-08-16_08h24.35.905,HF_wild_card,2022.2.4,Win32,59.91970759,5717864c94d4fc001297198d,64d2fd46c836a06233681665,64dc79a2601d7d2f191270b7,,,,,,,decisionTrl,resources/DBN.BMP,resources/DP.BMP,Door2,0.308333362,-0.002777771,1,0,0,0.6338,optionRight,20,4060,2,35,0,35,0,1,,,,,,,,,,,,,,,,,,,,,,,,,,,,,,,,,,,,,,,
,,,,,,,5717864c94d4fc001297198d,2023-08-16_08h24.35.905,HF_wild_card,2022.2.4,Win32,59.91970759,5717864c94d4fc001297198d,64d2fd46c836a06233681665,64dc79a2601d7d2f191270b7,,,,,,,sngl,resources/Empty.png,resources/DR.BMP,WildCard_Ex,0.291666667,-0.021296289,1,0,0,0.6299,optionRight,5,4065,2,36,0,36,0,1,,,,,,,,,,,,,,,,,,,,,,,,,,,,,,,,,,,,,,,
,,,,,,,5717864c94d4fc001297198d,2023-08-16_08h24.35.905,HF_wild_card,2022.2.4,Win32,59.91970759,5717864c94d4fc001297198d,64d2fd46c836a06233681665,64dc79a2601d7d2f191270b7,,,,,,,sngl,resources/Empty.png,resources/DG.BMP,Door4,0.329629686,-0.005555577,1,0,0,0.5799,optionRight,80,4145,2,37,0,37,0,1,,,,,,,,,,,,,,,,,,,,,,,,,,,,,,,,,,,,,,,
,,,,,,,5717864c94d4fc001297198d,2023-08-16_08h24.35.905,HF_wild_card,2022.2.4,Win32,59.91970759,5717864c94d4fc001297198d,64d2fd46c836a06233681665,64dc79a2601d7d2f191270b7,,,,,,,sngl,resources/Empty.png,resources/DR.BMP,WildCard_Ex,0.347222222,-0.020370377,1,0,0,0.6307,optionRight,95,4240,2,38,0,38,0,1,,,,,,,,,,,,,,,,,,,,,,,,,,,,,,,,,,,,,,,
,,,,,,,5717864c94d4fc001297198d,2023-08-16_08h24.35.905,HF_wild_card,2022.2.4,Win32,59.91970759,5717864c94d4fc001297198d,64d2fd46c836a06233681665,64dc79a2601d7d2f191270b7,,,,,,,sngl,resources/Empty.png,resources/DB.BMP,Door3,0.44722225,-0.069444444,1,0,0,0.5834,optionRight,70,4310,2,39,0,39,0,1,,,,,,,,,,,,,,,,,,,,,,,,,,,,,,,,,,,,,,,
,,,,,,,5717864c94d4fc001297198d,2023-08-16_08h24.35.905,HF_wild_card,2022.2.4,Win32,59.91970759,5717864c94d4fc001297198d,64d2fd46c836a06233681665,64dc79a2601d7d2f191270b7,,,,,,,decisionTrl,resources/DB.BMP,resources/DG.BMP,Door4,0.20648151,-0.008333347,1,0,0,0.9106,optionRight,60,4370,2,40,0,40,0,1,,,,,,,,,,,,,,,,,,,,,,,,,,,,,,,,,,,,,,,
,,,,,,,5717864c94d4fc001297198d,2023-08-16_08h24.35.905,HF_wild_card,2022.2.4,Win32,59.91970759,5717864c94d4fc001297198d,64d2fd46c836a06233681665,64dc79a2601d7d2f191270b7,,,,,,,sngl,resources/DR.BMP,resources/Empty.png,WildCard_Ex,-0.087962963,0.002777771,1,0,0,0.6636,optionLeft,95,4465,2,41,0,41,0,1,,,,,,,,,,,,,,,,,,,,,,,,,,,,,,,,,,,,,,,
,,,,,,,5717864c94d4fc001297198d,2023-08-16_08h24.35.905,HF_wild_card,2022.2.4,Win32,59.91970759,5717864c94d4fc001297198d,64d2fd46c836a06233681665,64dc79a2601d7d2f191270b7,,,,,,,decisionTrl,resources/DP.BMP,resources/DBN.BMP,Door1,0.270370413,-0.000925947,1,0,0,0.9649,optionRight,30,4495,2,42,0,42,0,1,,,,,,,,,,,,,,,,,,,,,,,,,,,,,,,,,,,,,,,
,,,,,,,5717864c94d4fc001297198d,2023-08-16_08h24.35.905,HF_wild_card,2022.2.4,Win32,59.91970759,5717864c94d4fc001297198d,64d2fd46c836a06233681665,64dc79a2601d7d2f191270b7,,,,,,,decisionTrl,resources/DP.BMP,resources/DR.BMP,Door2,-0.128703718,0.00462963,1,0,0,0.859,optionLeft,20,4515,2,43,0,43,0,1,,,,,,,,,,,,,,,,,,,,,,,,,,,,,,,,,,,,,,,
,,,,,,,5717864c94d4fc001297198d,2023-08-16_08h24.35.905,HF_wild_card,2022.2.4,Win32,59.91970759,5717864c94d4fc001297198d,64d2fd46c836a06233681665,64dc79a2601d7d2f191270b7,,,,,,,,,,,,,,,,,,,,,,,,,,1,0,1,0,1,,,,,,,,,,,,,,,,,,,,,,,,,,,,,,,,,,
,,,,,,,5717864c94d4fc001297198d,2023-08-16_08h24.35.905,HF_wild_card,2022.2.4,Win32,59.91970759,5717864c94d4fc001297198d,64d2fd46c836a06233681665,64dc79a2601d7d2f191270b7,,,,,,,decisionTrl,resources/DR.BMP,resources/DBN.BMP,WildCard_Ex,-0.276851866,-0.050000014,1,0,0,2.5908,optionLeft,5,4520,3,0,0,0,0,1,,,,,,,,,,,,,,,,,,,,,,,,,,,,,,,,,,,,,,,
,,,,,,,5717864c94d4fc001297198d,2023-08-16_08h24.35.905,HF_wild_card,2022.2.4,Win32,59.91970759,5717864c94d4fc001297198d,64d2fd46c836a06233681665,64dc79a2601d7d2f191270b7,,,,,,,decisionTrl,resources/DP.BMP,resources/DBN.BMP,Door1,0.308333362,-0.031481496,1,0,0,0.6675,optionRight,30,4550,3,1,0,1,0,1,,,,,,,,,,,,,,,,,,,,,,,,,,,,,,,,,,,,,,,
,,,,,,,5717864c94d4fc001297198d,2023-08-16_08h24.35.905,HF_wild_card,2022.2.4,Win32,59.91970759,5717864c94d4fc001297198d,64d2fd46c836a06233681665,64dc79a2601d7d2f191270b7,,,,,,,sngl,resources/DB.BMP,resources/Empty.png,Door3,-0.205555527,0.029629637,1,0,0,0.7025,optionLeft,70,4620,3,2,0,2,0,1,,,,,,,,,,,,,,,,,,,,,,,,,,,,,,,,,,,,,,,
,,,,,,,5717864c94d4fc001297198d,2023-08-16_08h24.35.905,HF_wild_card,2022.2.4,Win32,59.91970759,5717864c94d4fc001297198d,64d2fd46c836a06233681665,64dc79a2601d7d2f191270b7,,,,,,,ctch,resources/DBN.BMP,resources/DG.BMP,Door4,0.235185199,-0.006481489,1,0,0,1.0598,optionRight,60,4680,3,3,0,3,0,1,,,,,,,,,,,,,,,,,,,,,,,,,,,,,,,,,,,,,,,
,,,,,,,5717864c94d4fc001297198d,2023-08-16_08h24.35.905,HF_wild_card,2022.2.4,Win32,59.91970759,5717864c94d4fc001297198d,64d2fd46c836a06233681665,64dc79a2601d7d2f191270b7,,,,,,,decisionTrl,resources/DBN.BMP,resources/DP.BMP,Door1,-0.325925933,0.017592571,1,0,0,0.6138,optionLeft,30,4710,3,4,0,4,0,1,,,,,,,,,,,,,,,,,,,,,,,,,,,,,,,,,,,,,,,
,,,,,,,5717864c94d4fc001297198d,2023-08-16_08h24.35.905,HF_wild_card,2022.2.4,Win32,59.91970759,5717864c94d4fc001297198d,64d2fd46c836a06233681665,64dc79a2601d7d2f191270b7,,,,,,,ctch,resources/DBN.BMP,resources/DG.BMP,Door4,0.301851908,-0.014814836,1,0,0,0.8306,optionRight,80,4790,3,5,0,5,0,1,,,,,,,,,,,,,,,,,,,,,,,,,,,,,,,,,,,,,,,
,,,,,,,5717864c94d4fc001297198d,2023-08-16_08h24.35.905,HF_wild_card,2022.2.4,Win32,59.91970759,5717864c94d4fc001297198d,64d2fd46c836a06233681665,64dc79a2601d7d2f191270b7,,,,,,,sngl,resources/DBN.BMP,resources/Empty.png,Door1,-0.236111111,0.044444437,1,0,0,0.76,optionLeft,30,4820,3,6,0,6,0,1,,,,,,,,,,,,,,,,,,,,,,,,,,,,,,,,,,,,,,,
,,,,,,,5717864c94d4fc001297198d,2023-08-16_08h24.35.905,HF_wild_card,2022.2.4,Win32,59.91970759,5717864c94d4fc001297198d,64d2fd46c836a06233681665,64dc79a2601d7d2f191270b7,,,,,,,sngl,resources/Empty.png,resources/DP.BMP,Door2,0.216666681,-0.015740748,1,0,0,0.6312,optionRight,20,4840,3,7,0,7,0,1,,,,,,,,,,,,,,,,,,,,,,,,,,,,,,,,,,,,,,,
,,,,,,,5717864c94d4fc001297198d,2023-08-16_08h24.35.905,HF_wild_card,2022.2.4,Win32,59.91970759,5717864c94d4fc001297198d,64d2fd46c836a06233681665,64dc79a2601d7d2f191270b7,,,,,,,decisionTrl,resources/DB.BMP,resources/DG.BMP,Door4,0.267592607,-0.035185178,1,0,0,0.8451,optionRight,60,4900,3,8,0,8,0,1,,,,,,,,,,,,,,,,,,,,,,,,,,,,,,,,,,,,,,,
,,,,,,,5717864c94d4fc001297198d,2023-08-16_08h24.35.905,HF_wild_card,2022.2.4,Win32,59.91970759,5717864c94d4fc001297198d,64d2fd46c836a06233681665,64dc79a2601d7d2f191270b7,,,,,,,ctch,resources/DP.BMP,resources/DB.BMP,Door3,0.399074131,-0.024074095,1,0,0,1.6344,optionRight,70,4970,3,9,0,9,0,1,,,,,,,,,,,,,,,,,,,,,,,,,,,,,,,,,,,,,,,
,,,,,,,5717864c94d4fc001297198d,2023-08-16_08h24.35.905,HF_wild_card,2022.2.4,Win32,59.91970759,5717864c94d4fc001297198d,64d2fd46c836a06233681665,64dc79a2601d7d2f191270b7,,,,,,,decisionTrl,resources/DB.BMP,resources/DG.BMP,Door4,0.251851894,-0.053703697,1,0,0,1.046,optionRight,80,5050,3,10,0,10,0,1,,,,,,,,,,,,,,,,,,,,,,,,,,,,,,,,,,,,,,,
,,,,,,,5717864c94d4fc001297198d,2023-08-16_08h24.35.905,HF_wild_card,2022.2.4,Win32,59.91970759,5717864c94d4fc001297198d,64d2fd46c836a06233681665,64dc79a2601d7d2f191270b7,,,,,,,ctch,resources/DP.BMP,resources/DB.BMP,Door3,0.227777764,-0.022222236,1,0,0,0.998,optionRight,70,5120,3,11,0,11,0,1,,,,,,,,,,,,,,,,,,,,,,,,,,,,,,,,,,,,,,,
,,,,,,,5717864c94d4fc001297198d,2023-08-16_08h24.35.905,HF_wild_card,2022.2.4,Win32,59.91970759,5717864c94d4fc001297198d,64d2fd46c836a06233681665,64dc79a2601d7d2f191270b7,,,,,,,sngl,resources/Empty.png,resources/DR.BMP,WildCard_Ex,0.306481538,-0.01666666,1,0,0,0.6988,optionRight,95,5215,3,12,0,12,0,1,,,,,,,,,,,,,,,,,,,,,,,,,,,,,,,,,,,,,,,
,,,,,,,5717864c94d4fc001297198d,2023-08-16_08h24.35.905,HF_wild_card,2022.2.4,Win32,59.91970759,5717864c94d4fc001297198d,64d2fd46c836a06233681665,64dc79a2601d7d2f191270b7,,,,,,,decisionTrl,resources/DBN.BMP,resources/DR.BMP,WildCard_Ex,0.299074102,0.018518519,1,0,0,0.8977,optionRight,95,5310,3,13,0,13,0,1,,,,,,,,,,,,,,,,,,,,,,,,,,,,,,,,,,,,,,,
,,,,,,,5717864c94d4fc001297198d,2023-08-16_08h24.35.905,HF_wild_card,2022.2.4,Win32,59.91970759,5717864c94d4fc001297198d,64d2fd46c836a06233681665,64dc79a2601d7d2f191270b7,,,,,,,decisionTrl,resources/DB.BMP,resources/DG.BMP,Door4,0.209259245,-0.011111118,1,0,0,0.8645,optionRight,60,5370,3,14,0,14,0,1,,,,,,,,,,,,,,,,,,,,,,,,,,,,,,,,,,,,,,,
,,,,,,,5717864c94d4fc001297198d,2023-08-16_08h24.35.905,HF_wild_card,2022.2.4,Win32,59.91970759,5717864c94d4fc001297198d,64d2fd46c836a06233681665,64dc79a2601d7d2f191270b7,,,,,,,sngl,resources/DR.BMP,resources/Empty.png,WildCard_Ex,-0.210185157,0.012962942,1,0,0,0.6807,optionLeft,95,5465,3,15,0,15,0,1,,,,,,,,,,,,,,,,,,,,,,,,,,,,,,,,,,,,,,,
,,,,,,,5717864c94d4fc001297198d,2023-08-16_08h24.35.905,HF_wild_card,2022.2.4,Win32,59.91970759,5717864c94d4fc001297198d,64d2fd46c836a06233681665,64dc79a2601d7d2f191270b7,,,,,,,decisionTrl,resources/DG.BMP,resources/DB.BMP,Door4,-0.236111111,0.020370377,1,0,0,2.0844,optionLeft,60,5525,3,16,0,16,0,1,,,,,,,,,,,,,,,,,,,,,,,,,,,,,,,,,,,,,,,
,,,,,,,5717864c94d4fc001297198d,2023-08-16_08h24.35.905,HF_wild_card,2022.2.4,Win32,59.91970759,5717864c94d4fc001297198d,64d2fd46c836a06233681665,64dc79a2601d7d2f191270b7,,,,,,,decisionTrl,resources/DG.BMP,resources/DB.BMP,Door3,0.190740727,-0.009259259,1,0,0,2.3605,optionRight,70,5595,3,17,0,17,0,1,,,,,,,,,,,,,,,,,,,,,,,,,,,,,,,,,,,,,,,
,,,,,,,5717864c94d4fc001297198d,2023-08-16_08h24.35.905,HF_wild_card,2022.2.4,Win32,59.91970759,5717864c94d4fc001297198d,64d2fd46c836a06233681665,64dc79a2601d7d2f191270b7,,,,,,,ctch,resources/DG.BMP,resources/DBN.BMP,Door4,-0.339814822,0,1,0,0,0.8606,optionLeft,80,5675,3,18,0,18,0,1,,,,,,,,,,,,,,,,,,,,,,,,,,,,,,,,,,,,,,,
,,,,,,,5717864c94d4fc001297198d,2023-08-16_08h24.35.905,HF_wild_card,2022.2.4,Win32,59.91970759,5717864c94d4fc001297198d,64d2fd46c836a06233681665,64dc79a2601d7d2f191270b7,,,,,,,sngl,resources/DP.BMP,resources/Empty.png,Door2,-0.27407406,0.008333312,1,0,0,0.68,optionLeft,40,5715,3,19,0,19,0,1,,,,,,,,,,,,,,,,,,,,,,,,,,,,,,,,,,,,,,,
,,,,,,,5717864c94d4fc001297198d,2023-08-16_08h24.35.905,HF_wild_card,2022.2.4,Win32,59.91970759,5717864c94d4fc001297198d,64d2fd46c836a06233681665,64dc79a2601d7d2f191270b7,,,,,,,decisionTrl,resources/DR.BMP,resources/DB.BMP,Door3,0.215740769,-0.031481496,1,0,0,0.8134,optionRight,70,5785,3,20,0,20,0,1,,,,,,,,,,,,,,,,,,,,,,,,,,,,,,,,,,,,,,,
,,,,,,,5717864c94d4fc001297198d,2023-08-16_08h24.35.905,HF_wild_card,2022.2.4,Win32,59.91970759,5717864c94d4fc001297198d,64d2fd46c836a06233681665,64dc79a2601d7d2f191270b7,,,,,,,decisionTrl,resources/DP.BMP,resources/DBN.BMP,Door2,-0.214814787,0.011111118,1,0,0,0.8176,optionLeft,40,5825,3,21,0,21,0,1,,,,,,,,,,,,,,,,,,,,,,,,,,,,,,,,,,,,,,,
,,,,,,,5717864c94d4fc001297198d,2023-08-16_08h24.35.905,HF_wild_card,2022.2.4,Win32,59.91970759,5717864c94d4fc001297198d,64d2fd46c836a06233681665,64dc79a2601d7d2f191270b7,,,,,,,ctch,resources/DB.BMP,resources/DP.BMP,Door3,-0.19722218,0.009259259,1,0,0,1.7308,optionLeft,70,5895,3,22,0,22,0,1,,,,,,,,,,,,,,,,,,,,,,,,,,,,,,,,,,,,,,,
,,,,,,,5717864c94d4fc001297198d,2023-08-16_08h24.35.905,HF_wild_card,2022.2.4,Win32,59.91970759,5717864c94d4fc001297198d,64d2fd46c836a06233681665,64dc79a2601d7d2f191270b7,,,,,,,sngl,resources/DR.BMP,resources/Empty.png,WildCard_Ex,-0.262962977,0.026851831,1,0,0,0.6998,optionLeft,5,5900,3,23,0,23,0,1,,,,,,,,,,,,,,,,,,,,,,,,,,,,,,,,,,,,,,,
,,,,,,,5717864c94d4fc001297198d,2023-08-16_08h24.35.905,HF_wild_card,2022.2.4,Win32,59.91970759,5717864c94d4fc001297198d,64d2fd46c836a06233681665,64dc79a2601d7d2f191270b7,,,,,,,sngl,resources/Empty.png,resources/DBN.BMP,Door1,0.19722225,-0.021296289,1,0,0,0.6598,optionRight,30,5930,3,24,0,24,0,1,,,,,,,,,,,,,,,,,,,,,,,,,,,,,,,,,,,,,,,
,,,,,,,5717864c94d4fc001297198d,2023-08-16_08h24.35.905,HF_wild_card,2022.2.4,Win32,59.91970759,5717864c94d4fc001297198d,64d2fd46c836a06233681665,64dc79a2601d7d2f191270b7,,,,,,,decisionTrl,resources/DG.BMP,resources/DB.BMP,Door4,-0.286111125,0.026851831,1,0,0,0.7677,optionLeft,80,6010,3,25,0,25,0,1,,,,,,,,,,,,,,,,,,,,,,,,,,,,,,,,,,,,,,,
,,,,,,,5717864c94d4fc001297198d,2023-08-16_08h24.35.905,HF_wild_card,2022.2.4,Win32,59.91970759,5717864c94d4fc001297198d,64d2fd46c836a06233681665,64dc79a2601d7d2f191270b7,,,,,,,decisionTrl,resources/DP.BMP,resources/DBN.BMP,Door2,-0.256481453,0.04074072,1,0,0,1.1972,optionLeft,40,6050,3,26,0,26,0,1,,,,,,,,,,,,,,,,,,,,,,,,,,,,,,,,,,,,,,,
,,,,,,,5717864c94d4fc001297198d,2023-08-16_08h24.35.905,HF_wild_card,2022.2.4,Win32,59.91970759,5717864c94d4fc001297198d,64d2fd46c836a06233681665,64dc79a2601d7d2f191270b7,,,,,,,sngl,resources/Empty.png,resources/DR.BMP,WildCard_Ex,0.212962963,-0.030555548,1,0,0,1.0107,optionRight,5,6055,3,27,0,27,0,1,,,,,,,,,,,,,,,,,,,,,,,,,,,,,,,,,,,,,,,
,,,,,,,5717864c94d4fc001297198d,2023-08-16_08h24.35.905,HF_wild_card,2022.2.4,Win32,59.91970759,5717864c94d4fc001297198d,64d2fd46c836a06233681665,64dc79a2601d7d2f191270b7,,,,,,,ctch,resources/DG.BMP,resources/DBN.BMP,Door4,-0.338888875,0.055555556,1,0,0,0.7443,optionLeft,80,6135,3,28,0,28,0,1,,,,,,,,,,,,,,,,,,,,,,,,,,,,,,,,,,,,,,,
,,,,,,,5717864c94d4fc001297198d,2023-08-16_08h24.35.905,HF_wild_card,2022.2.4,Win32,59.91970759,5717864c94d4fc001297198d,64d2fd46c836a06233681665,64dc79a2601d7d2f191270b7,,,,,,,decisionTrl,resources/DBN.BMP,resources/DP.BMP,Door2,0.209259245,-0.014814836,1,0,0,0.7966,optionRight,40,6175,3,29,0,29,0,1,,,,,,,,,,,,,,,,,,,,,,,,,,,,,,,,,,,,,,,
,,,,,,,5717864c94d4fc001297198d,2023-08-16_08h24.35.905,HF_wild_card,2022.2.4,Win32,59.91970759,5717864c94d4fc001297198d,64d2fd46c836a06233681665,64dc79a2601d7d2f191270b7,,,,,,,decisionTrl,resources/DP.BMP,resources/DR.BMP,WildCard_Ex,0.259259259,-0.01666666,1,0,0,1.5301,optionRight,95,6270,3,30,0,30,0,1,,,,,,,,,,,,,,,,,,,,,,,,,,,,,,,,,,,,,,,
,,,,,,,5717864c94d4fc001297198d,2023-08-16_08h24.35.905,HF_wild_card,2022.2.4,Win32,59.91970759,5717864c94d4fc001297198d,64d2fd46c836a06233681665,64dc79a2601d7d2f191270b7,,,,,,,decisionTrl,resources/DBN.BMP,resources/DP.BMP,Door2,0.289814843,-0.023148148,1,0,0,0.7174,optionRight,20,6290,3,31,0,31,0,1,,,,,,,,,,,,,,,,,,,,,,,,,,,,,,,,,,,,,,,
,,,,,,,5717864c94d4fc001297198d,2023-08-16_08h24.35.905,HF_wild_card,2022.2.4,Win32,59.91970759,5717864c94d4fc001297198d,64d2fd46c836a06233681665,64dc79a2601d7d2f191270b7,,,,,,,decisionTrl,resources/DR.BMP,resources/DG.BMP,Door4,0.183333362,-0.003703718,1,0,0,1.1795,optionRight,80,6370,3,32,0,32,0,1,,,,,,,,,,,,,,,,,,,,,,,,,,,,,,,,,,,,,,,
,,,,,,,5717864c94d4fc001297198d,2023-08-16_08h24.35.905,HF_wild_card,2022.2.4,Win32,59.91970759,5717864c94d4fc001297198d,64d2fd46c836a06233681665,64dc79a2601d7d2f191270b7,,,,,,,decisionTrl,resources/DR.BMP,resources/DP.BMP,WildCard_Ex,-0.314814815,0.014814801,1,0,0,0.7969,optionLeft,95,6465,3,33,0,33,0,1,,,,,,,,,,,,,,,,,,,,,,,,,,,,,,,,,,,,,,,
,,,,,,,5717864c94d4fc001297198d,2023-08-16_08h24.35.905,HF_wild_card,2022.2.4,Win32,59.91970759,5717864c94d4fc001297198d,64d2fd46c836a06233681665,64dc79a2601d7d2f191270b7,,,,,,,decisionTrl,resources/DB.BMP,resources/DR.BMP,WildCard_Ex,0.238888917,-0.021296289,1,0,0,0.6837,optionRight,5,6470,3,34,0,34,0,1,,,,,,,,,,,,,,,,,,,,,,,,,,,,,,,,,,,,,,,
,,,,,,,5717864c94d4fc001297198d,2023-08-16_08h24.35.905,HF_wild_card,2022.2.4,Win32,59.91970759,5717864c94d4fc001297198d,64d2fd46c836a06233681665,64dc79a2601d7d2f191270b7,,,,,,,decisionTrl,resources/DB.BMP,resources/DG.BMP,Door3,-0.24537037,0.02870369,1,0,0,0.8478,optionLeft,70,6540,3,35,0,35,0,1,,,,,,,,,,,,,,,,,,,,,,,,,,,,,,,,,,,,,,,
,,,,,,,5717864c94d4fc001297198d,2023-08-16_08h24.35.905,HF_wild_card,2022.2.4,Win32,59.91970759,5717864c94d4fc001297198d,64d2fd46c836a06233681665,64dc79a2601d7d2f191270b7,,,,,,,sngl,resources/DG.BMP,resources/Empty.png,Door4,-0.273148148,0.01666666,1,0,0,0.6964,optionLeft,80,6620,3,36,0,36,0,1,,,,,,,,,,,,,,,,,,,,,,,,,,,,,,,,,,,,,,,
,,,,,,,5717864c94d4fc001297198d,2023-08-16_08h24.35.905,HF_wild_card,2022.2.4,Win32,59.91970759,5717864c94d4fc001297198d,64d2fd46c836a06233681665,64dc79a2601d7d2f191270b7,,,,,,,ctch,resources/DB.BMP,resources/DP.BMP,Door2,0.199074074,-0.023148148,1,0,0,0.7839,optionRight,20,6640,3,37,0,37,0,1,,,,,,,,,,,,,,,,,,,,,,,,,,,,,,,,,,,,,,,
,,,,,,,5717864c94d4fc001297198d,2023-08-16_08h24.35.905,HF_wild_card,2022.2.4,Win32,59.91970759,5717864c94d4fc001297198d,64d2fd46c836a06233681665,64dc79a2601d7d2f191270b7,,,,,,,sngl,resources/Empty.png,resources/DG.BMP,Door4,0.29814812,-0.039814808,1,0,0,0.7479,optionRight,60,6700,3,38,0,38,0,1,,,,,,,,,,,,,,,,,,,,,,,,,,,,,,,,,,,,,,,
,,,,,,,5717864c94d4fc001297198d,2023-08-16_08h24.35.905,HF_wild_card,2022.2.4,Win32,59.91970759,5717864c94d4fc001297198d,64d2fd46c836a06233681665,64dc79a2601d7d2f191270b7,,,,,,,sngl,resources/Empty.png,resources/DB.BMP,Door3,0.179629644,-0.018518519,1,0,0,0.5839,optionRight,70,6770,3,39,0,39,0,1,,,,,,,,,,,,,,,,,,,,,,,,,,,,,,,,,,,,,,,
,,,,,,,5717864c94d4fc001297198d,2023-08-16_08h24.35.905,HF_wild_card,2022.2.4,Win32,59.91970759,5717864c94d4fc001297198d,64d2fd46c836a06233681665,64dc79a2601d7d2f191270b7,,,,,,,decisionTrl,resources/DG.BMP,resources/DB.BMP,Door4,-0.202777792,0.029629637,1,0,0,0.7345,optionLeft,60,6830,3,40,0,40,0,1,,,,,,,,,,,,,,,,,,,,,,,,,,,,,,,,,,,,,,,
,,,,,,,5717864c94d4fc001297198d,2023-08-16_08h24.35.905,HF_wild_card,2022.2.4,Win32,59.91970759,5717864c94d4fc001297198d,64d2fd46c836a06233681665,64dc79a2601d7d2f191270b7,,,,,,,decisionTrl,resources/DG.BMP,resources/DR.BMP,WildCard_Ex,0.376851824,-0.060185185,1,0,0,0.6843,optionRight,95,6925,3,41,0,41,0,1,,,,,,,,,,,,,,,,,,,,,,,,,,,,,,,,,,,,,,,
,,,,,,,5717864c94d4fc001297198d,2023-08-16_08h24.35.905,HF_wild_card,2022.2.4,Win32,59.91970759,5717864c94d4fc001297198d,64d2fd46c836a06233681665,64dc79a2601d7d2f191270b7,,,,,,,decisionTrl,resources/DBN.BMP,resources/DP.BMP,Door2,0.380555612,-0.028703725,1,0,0,0.7314,optionRight,20,6945,3,42,0,42,0,1,,,,,,,,,,,,,,,,,,,,,,,,,,,,,,,,,,,,,,,
,,,,,,,5717864c94d4fc001297198d,2023-08-16_08h24.35.905,HF_wild_card,2022.2.4,Win32,59.91970759,5717864c94d4fc001297198d,64d2fd46c836a06233681665,64dc79a2601d7d2f191270b7,,,,,,,decisionTrl,resources/DP.BMP,resources/DBN.BMP,Door2,-0.159259231,0.017592571,1,0,0,0.8987,optionLeft,40,6985,3,43,0,43,0,1,,,,,,,,,,,,,,,,,,,,,,,,,,,,,,,,,,,,,,,
,,,,,,,5717864c94d4fc001297198d,2023-08-16_08h24.35.905,HF_wild_card,2022.2.4,Win32,59.91970759,5717864c94d4fc001297198d,64d2fd46c836a06233681665,64dc79a2601d7d2f191270b7,,,,,,,,,,,,,,,,,,,,,,,,,,2,0,2,0,1,,,,,,,,,,,,,,,,,,,,,,,,,,,,,,,,,,
,,,,,,,5717864c94d4fc001297198d,2023-08-16_08h24.35.905,HF_wild_card,2022.2.4,Win32,59.91970759,5717864c94d4fc001297198d,64d2fd46c836a06233681665,64dc79a2601d7d2f191270b7,,,,,,,sngl,resources/Empty.png,resources/DY.BMP,WildCard_NonEx,0.277777778,-0.015740748,1,0,0,1.2726,optionRight,45,7030,4,0,0,0,0,1,,,,,,,,,,,,,,,,,,,,,,,,,,,,,,,,,,,,,,,
,,,,,,,5717864c94d4fc001297198d,2023-08-16_08h24.35.905,HF_wild_card,2022.2.4,Win32,59.91970759,5717864c94d4fc001297198d,64d2fd46c836a06233681665,64dc79a2601d7d2f191270b7,,,,,,,decisionTrl,resources/DG.BMP,resources/DY.BMP,Door4,-0.266666624,0.000925912,1,0,0,0.7941,optionLeft,80,7110,4,1,0,1,0,1,,,,,,,,,,,,,,,,,,,,,,,,,,,,,,,,,,,,,,,
,,,,,,,5717864c94d4fc001297198d,2023-08-16_08h24.35.905,HF_wild_card,2022.2.4,Win32,59.91970759,5717864c94d4fc001297198d,64d2fd46c836a06233681665,64dc79a2601d7d2f191270b7,,,,,,,decisionTrl,resources/DG.BMP,resources/DB.BMP,Door3,0.398148148,-0.002777771,1,0,0,1.0979,optionRight,70,7180,4,2,0,2,0,1,,,,,,,,,,,,,,,,,,,,,,,,,,,,,,,,,,,,,,,
,,,,,,,5717864c94d4fc001297198d,2023-08-16_08h24.35.905,HF_wild_card,2022.2.4,Win32,59.91970759,5717864c94d4fc001297198d,64d2fd46c836a06233681665,64dc79a2601d7d2f191270b7,,,,,,,ctch,resources/DB.BMP,resources/DP.BMP,Door2,0.215740769,0.0074074,1,0,0,1.6349,optionRight,20,7200,4,3,0,3,0,1,,,,,,,,,,,,,,,,,,,,,,,,,,,,,,,,,,,,,,,
,,,,,,,5717864c94d4fc001297198d,2023-08-16_08h24.35.905,HF_wild_card,2022.2.4,Win32,59.91970759,5717864c94d4fc001297198d,64d2fd46c836a06233681665,64dc79a2601d7d2f191270b7,,,,,,,sngl,resources/Empty.png,resources/DY.BMP,WildCard_NonEx,0.291666667,-0.000925947,1,0,0,0.7677,optionRight,55,7255,4,4,0,4,0,1,,,,,,,,,,,,,,,,,,,,,,,,,,,,,,,,,,,,,,,
,,,,,,,5717864c94d4fc001297198d,2023-08-16_08h24.35.905,HF_wild_card,2022.2.4,Win32,59.91970759,5717864c94d4fc001297198d,64d2fd46c836a06233681665,64dc79a2601d7d2f191270b7,,,,,,,decisionTrl,resources/DY.BMP,resources/DBN.BMP,WildCard_NonEx,-0.218518504,0.008333312,1,0,0,0.6978,optionLeft,45,7300,4,5,0,5,0,1,,,,,,,,,,,,,,,,,,,,,,,,,,,,,,,,,,,,,,,
,,,,,,,5717864c94d4fc001297198d,2023-08-16_08h24.35.905,HF_wild_card,2022.2.4,Win32,59.91970759,5717864c94d4fc001297198d,64d2fd46c836a06233681665,64dc79a2601d7d2f191270b7,,,,,,,decisionTrl,resources/DBN.BMP,resources/DP.BMP,Door1,-0.333333333,0.018518519,1,0,0,1.247,optionLeft,30,7330,4,6,0,6,0,1,,,,,,,,,,,,,,,,,,,,,,,,,,,,,,,,,,,,,,,
,,,,,,,5717864c94d4fc001297198d,2023-08-16_08h24.35.905,HF_wild_card,2022.2.4,Win32,59.91970759,5717864c94d4fc001297198d,64d2fd46c836a06233681665,64dc79a2601d7d2f191270b7,,,,,,,decisionTrl,resources/DBN.BMP,resources/DP.BMP,Door2,0.316666638,-0.008333347,1,0,0,0.5967,optionRight,40,7370,4,7,0,7,0,1,,,,,,,,,,,,,,,,,,,,,,,,,,,,,,,,,,,,,,,
,,,,,,,5717864c94d4fc001297198d,2023-08-16_08h24.35.905,HF_wild_card,2022.2.4,Win32,59.91970759,5717864c94d4fc001297198d,64d2fd46c836a06233681665,64dc79a2601d7d2f191270b7,,,,,,,sngl,resources/Empty.png,resources/DB.BMP,Door3,0.241666653,-0.005555577,1,0,0,0.6272,optionRight,70,7440,4,8,0,8,0,1,,,,,,,,,,,,,,,,,,,,,,,,,,,,,,,,,,,,,,,
,,,,,,,5717864c94d4fc001297198d,2023-08-16_08h24.35.905,HF_wild_card,2022.2.4,Win32,59.91970759,5717864c94d4fc001297198d,64d2fd46c836a06233681665,64dc79a2601d7d2f191270b7,,,,,,,decisionTrl,resources/DP.BMP,resources/DBN.BMP,Door2,-0.277777778,-0.006481489,1,0,0,0.9323,optionLeft,40,7480,4,9,0,9,0,1,,,,,,,,,,,,,,,,,,,,,,,,,,,,,,,,,,,,,,,
,,,,,,,5717864c94d4fc001297198d,2023-08-16_08h24.35.905,HF_wild_card,2022.2.4,Win32,59.91970759,5717864c94d4fc001297198d,64d2fd46c836a06233681665,64dc79a2601d7d2f191270b7,,,,,,,ctch,resources/DBN.BMP,resources/DG.BMP,Door4,0.181481467,0.0074074,1,0,0,0.7798,optionRight,80,7560,4,10,0,10,0,1,,,,,,,,,,,,,,,,,,,,,,,,,,,,,,,,,,,,,,,
,,,,,,,5717864c94d4fc001297198d,2023-08-16_08h24.35.905,HF_wild_card,2022.2.4,Win32,59.91970759,5717864c94d4fc001297198d,64d2fd46c836a06233681665,64dc79a2601d7d2f191270b7,,,,,,,sngl,resources/DG.BMP,resources/Empty.png,Door4,-0.211111069,0.005555541,1,0,0,0.6466,optionLeft,60,7620,4,11,0,11,0,1,,,,,,,,,,,,,,,,,,,,,,,,,,,,,,,,,,,,,,,
,,,,,,,5717864c94d4fc001297198d,2023-08-16_08h24.35.905,HF_wild_card,2022.2.4,Win32,59.91970759,5717864c94d4fc001297198d,64d2fd46c836a06233681665,64dc79a2601d7d2f191270b7,,,,,,,sngl,resources/Empty.png,resources/DG.BMP,Door4,0.212037051,-0.020370377,1,0,0,0.6311,optionRight,80,7700,4,12,0,12,0,1,,,,,,,,,,,,,,,,,,,,,,,,,,,,,,,,,,,,,,,
,,,,,,,5717864c94d4fc001297198d,2023-08-16_08h24.35.905,HF_wild_card,2022.2.4,Win32,59.91970759,5717864c94d4fc001297198d,64d2fd46c836a06233681665,64dc79a2601d7d2f191270b7,,,,,,,sngl,resources/DP.BMP,resources/Empty.png,Door2,-0.171296296,0.000925912,1,0,0,0.767,optionLeft,20,7720,4,13,0,13,0,1,,,,,,,,,,,,,,,,,,,,,,,,,,,,,,,,,,,,,,,
,,,,,,,5717864c94d4fc001297198d,2023-08-16_08h24.35.905,HF_wild_card,2022.2.4,Win32,59.91970759,5717864c94d4fc001297198d,64d2fd46c836a06233681665,64dc79a2601d7d2f191270b7,,,,,,,decisionTrl,resources/DB.BMP,resources/DG.BMP,Door4,0.261111153,-0.030555548,1,0,0,0.9007,optionRight,80,7800,4,14,0,14,0,1,,,,,,,,,,,,,,,,,,,,,,,,,,,,,,,,,,,,,,,
,,,,,,,5717864c94d4fc001297198d,2023-08-16_08h24.35.905,HF_wild_card,2022.2.4,Win32,59.91970759,5717864c94d4fc001297198d,64d2fd46c836a06233681665,64dc79a2601d7d2f191270b7,,,,,,,sngl,resources/DBN.BMP,resources/Empty.png,Door1,-0.264814801,0.035185178,1,0,0,0.7963,optionLeft,30,7830,4,15,0,15,0,1,,,,,,,,,,,,,,,,,,,,,,,,,,,,,,,,,,,,,,,
,,,,,,,5717864c94d4fc001297198d,2023-08-16_08h24.35.905,HF_wild_card,2022.2.4,Win32,59.91970759,5717864c94d4fc001297198d,64d2fd46c836a06233681665,64dc79a2601d7d2f191270b7,,,,,,,decisionTrl,resources/DG.BMP,resources/DB.BMP,Door4,-0.178703661,-0.0074074,1,0,0,1.051,optionLeft,80,7910,4,16,0,16,0,1,,,,,,,,,,,,,,,,,,,,,,,,,,,,,,,,,,,,,,,
,,,,,,,5717864c94d4fc001297198d,2023-08-16_08h24.35.905,HF_wild_card,2022.2.4,Win32,59.91970759,5717864c94d4fc001297198d,64d2fd46c836a06233681665,64dc79a2601d7d2f191270b7,,,,,,,decisionTrl,resources/DY.BMP,resources/DP.BMP,WildCard_NonEx,-0.232407393,0.003703683,1,0,0,1.0099,optionLeft,45,7955,4,17,0,17,0,1,,,,,,,,,,,,,,,,,,,,,,,,,,,,,,,,,,,,,,,
,,,,,,,5717864c94d4fc001297198d,2023-08-16_08h24.35.905,HF_wild_card,2022.2.4,Win32,59.91970759,5717864c94d4fc001297198d,64d2fd46c836a06233681665,64dc79a2601d7d2f191270b7,,,,,,,decisionTrl,resources/DP.BMP,resources/DBN.BMP,Door2,-0.234259217,0.0074074,1,0,0,0.8613,optionLeft,40,7995,4,18,0,18,0,1,,,,,,,,,,,,,,,,,,,,,,,,,,,,,,,,,,,,,,,
,,,,,,,5717864c94d4fc001297198d,2023-08-16_08h24.35.905,HF_wild_card,2022.2.4,Win32,59.91970759,5717864c94d4fc001297198d,64d2fd46c836a06233681665,64dc79a2601d7d2f191270b7,,,,,,,ctch,resources/DP.BMP,resources/DB.BMP,Door3,0.181481467,-0.000925947,1,0,0,1.1008,optionRight,70,8065,4,19,0,19,0,1,,,,,,,,,,,,,,,,,,,,,,,,,,,,,,,,,,,,,,,
,,,,,,,5717864c94d4fc001297198d,2023-08-16_08h24.35.905,HF_wild_card,2022.2.4,Win32,59.91970759,5717864c94d4fc001297198d,64d2fd46c836a06233681665,64dc79a2601d7d2f191270b7,,,,,,,sngl,resources/DY.BMP,resources/Empty.png,WildCard_NonEx,-0.283333319,-0.010185206,1,0,0,0.676,optionLeft,45,8110,4,20,0,20,0,1,,,,,,,,,,,,,,,,,,,,,,,,,,,,,,,,,,,,,,,
,,,,,,,5717864c94d4fc001297198d,2023-08-16_08h24.35.905,HF_wild_card,2022.2.4,Win32,59.91970759,5717864c94d4fc001297198d,64d2fd46c836a06233681665,64dc79a2601d7d2f191270b7,,,,,,,sngl,resources/Empty.png,resources/DP.BMP,Door2,0.319444444,-0.052777785,1,0,0,0.6321,optionRight,40,8150,4,21,0,21,0,1,,,,,,,,,,,,,,,,,,,,,,,,,,,,,,,,,,,,,,,
,,,,,,,5717864c94d4fc001297198d,2023-08-16_08h24.35.905,HF_wild_card,2022.2.4,Win32,59.91970759,5717864c94d4fc001297198d,64d2fd46c836a06233681665,64dc79a2601d7d2f191270b7,,,,,,,ctch,resources/DB.BMP,resources/DP.BMP,Door2,0.285185213,-0.01666666,1,0,0,0.8484,optionRight,20,8170,4,22,0,22,0,1,,,,,,,,,,,,,,,,,,,,,,,,,,,,,,,,,,,,,,,
,,,,,,,5717864c94d4fc001297198d,2023-08-16_08h24.35.905,HF_wild_card,2022.2.4,Win32,59.91970759,5717864c94d4fc001297198d,64d2fd46c836a06233681665,64dc79a2601d7d2f191270b7,,,,,,,decisionTrl,resources/DP.BMP,resources/DBN.BMP,Door2,-0.29351849,-0.0074074,1,0,0,0.6642,optionLeft,20,8190,4,23,0,23,0,1,,,,,,,,,,,,,,,,,,,,,,,,,,,,,,,,,,,,,,,
,,,,,,,5717864c94d4fc001297198d,2023-08-16_08h24.35.905,HF_wild_card,2022.2.4,Win32,59.91970759,5717864c94d4fc001297198d,64d2fd46c836a06233681665,64dc79a2601d7d2f191270b7,,,,,,,sngl,resources/Empty.png,resources/DBN.BMP,Door1,0.27407406,-0.008333347,1,0,0,0.5317,optionRight,30,8220,4,24,0,24,0,1,,,,,,,,,,,,,,,,,,,,,,,,,,,,,,,,,,,,,,,
,,,,,,,5717864c94d4fc001297198d,2023-08-16_08h24.35.905,HF_wild_card,2022.2.4,Win32,59.91970759,5717864c94d4fc001297198d,64d2fd46c836a06233681665,64dc79a2601d7d2f191270b7,,,,,,,sngl,resources/DB.BMP,resources/Empty.png,Door3,-0.228703675,0.01666666,1,0,0,0.6149,optionLeft,70,8290,4,25,0,25,0,1,,,,,,,,,,,,,,,,,,,,,,,,,,,,,,,,,,,,,,,
,,,,,,,5717864c94d4fc001297198d,2023-08-16_08h24.35.905,HF_wild_card,2022.2.4,Win32,59.91970759,5717864c94d4fc001297198d,64d2fd46c836a06233681665,64dc79a2601d7d2f191270b7,,,,,,,ctch,resources/DBN.BMP,resources/DG.BMP,Door1,-0.331481474,0.048148155,1,0,0,1.0302,optionLeft,30,8320,4,26,0,26,0,1,,,,,,,,,,,,,,,,,,,,,,,,,,,,,,,,,,,,,,,
,,,,,,,5717864c94d4fc001297198d,2023-08-16_08h24.35.905,HF_wild_card,2022.2.4,Win32,59.91970759,5717864c94d4fc001297198d,64d2fd46c836a06233681665,64dc79a2601d7d2f191270b7,,,,,,,decisionTrl,resources/DG.BMP,resources/DB.BMP,Door4,-0.337962963,0.000925912,1,0,0,1.4937,optionLeft,60,8380,4,27,0,27,0,1,,,,,,,,,,,,,,,,,,,,,,,,,,,,,,,,,,,,,,,
,,,,,,,5717864c94d4fc001297198d,2023-08-16_08h24.35.905,HF_wild_card,2022.2.4,Win32,59.91970759,5717864c94d4fc001297198d,64d2fd46c836a06233681665,64dc79a2601d7d2f191270b7,,,,,,,decisionTrl,resources/DY.BMP,resources/DG.BMP,Door4,0.231481481,-0.020370377,1,0,0,1.2271,optionRight,60,8440,4,28,0,28,0,1,,,,,,,,,,,,,,,,,,,,,,,,,,,,,,,,,,,,,,,
,,,,,,,5717864c94d4fc001297198d,2023-08-16_08h24.35.905,HF_wild_card,2022.2.4,Win32,59.91970759,5717864c94d4fc001297198d,64d2fd46c836a06233681665,64dc79a2601d7d2f191270b7,,,,,,,decisionTrl,resources/DBN.BMP,resources/DP.BMP,Door1,-0.283333319,0.014814801,1,0,0,1.1137,optionLeft,30,8470,4,29,0,29,0,1,,,,,,,,,,,,,,,,,,,,,,,,,,,,,,,,,,,,,,,
,,,,,,,5717864c94d4fc001297198d,2023-08-16_08h24.35.905,HF_wild_card,2022.2.4,Win32,59.91970759,5717864c94d4fc001297198d,64d2fd46c836a06233681665,64dc79a2601d7d2f191270b7,,,,,,,decisionTrl,resources/DY.BMP,resources/DB.BMP,WildCard_NonEx,-0.244444459,0.017592571,1,0,0,0.7798,optionLeft,45,8515,4,30,0,30,0,1,,,,,,,,,,,,,,,,,,,,,,,,,,,,,,,,,,,,,,,
,,,,,,,5717864c94d4fc001297198d,2023-08-16_08h24.35.905,HF_wild_card,2022.2.4,Win32,59.91970759,5717864c94d4fc001297198d,64d2fd46c836a06233681665,64dc79a2601d7d2f191270b7,,,,,,,decisionTrl,resources/DB.BMP,resources/DY.BMP,Door3,-0.183333291,0.003703683,1,0,0,1.4263,optionLeft,70,8585,4,31,0,31,0,1,,,,,,,,,,,,,,,,,,,,,,,,,,,,,,,,,,,,,,,
,,,,,,,5717864c94d4fc001297198d,2023-08-16_08h24.35.905,HF_wild_card,2022.2.4,Win32,59.91970759,5717864c94d4fc001297198d,64d2fd46c836a06233681665,64dc79a2601d7d2f191270b7,,,,,,,ctch,resources/DP.BMP,resources/DB.BMP,Door2,-0.250925912,0.003703683,1,0,0,0.6643,optionLeft,20,8605,4,32,0,32,0,1,,,,,,,,,,,,,,,,,,,,,,,,,,,,,,,,,,,,,,,
,,,,,,,5717864c94d4fc001297198d,2023-08-16_08h24.35.905,HF_wild_card,2022.2.4,Win32,59.91970759,5717864c94d4fc001297198d,64d2fd46c836a06233681665,64dc79a2601d7d2f191270b7,,,,,,,decisionTrl,resources/DB.BMP,resources/DG.BMP,Door4,0.24537037,0.002777771,1,0,0,0.6971,optionRight,80,8685,4,33,0,33,0,1,,,,,,,,,,,,,,,,,,,,,,,,,,,,,,,,,,,,,,,
,,,,,,,5717864c94d4fc001297198d,2023-08-16_08h24.35.905,HF_wild_card,2022.2.4,Win32,59.91970759,5717864c94d4fc001297198d,64d2fd46c836a06233681665,64dc79a2601d7d2f191270b7,,,,,,,decisionTrl,resources/DB.BMP,resources/DG.BMP,Door3,-0.234259217,0.002777771,1,0,0,0.6149,optionLeft,70,8755,4,34,0,34,0,1,,,,,,,,,,,,,,,,,,,,,,,,,,,,,,,,,,,,,,,
,,,,,,,5717864c94d4fc001297198d,2023-08-16_08h24.35.905,HF_wild_card,2022.2.4,Win32,59.91970759,5717864c94d4fc001297198d,64d2fd46c836a06233681665,64dc79a2601d7d2f191270b7,,,,,,,decisionTrl,resources/DBN.BMP,resources/DP.BMP,Door2,0.176851838,-0.013888889,1,0,0,0.9784,optionRight,20,8775,4,35,0,35,0,1,,,,,,,,,,,,,,,,,,,,,,,,,,,,,,,,,,,,,,,
,,,,,,,5717864c94d4fc001297198d,2023-08-16_08h24.35.905,HF_wild_card,2022.2.4,Win32,59.91970759,5717864c94d4fc001297198d,64d2fd46c836a06233681665,64dc79a2601d7d2f191270b7,,,,,,,decisionTrl,resources/DP.BMP,resources/DBN.BMP,Door2,-0.262036995,0.008333312,1,0,0,0.7635,optionLeft,20,8795,4,36,0,36,0,1,,,,,,,,,,,,,,,,,,,,,,,,,,,,,,,,,,,,,,,
,,,,,,,5717864c94d4fc001297198d,2023-08-16_08h24.35.905,HF_wild_card,2022.2.4,Win32,59.91970759,5717864c94d4fc001297198d,64d2fd46c836a06233681665,64dc79a2601d7d2f191270b7,,,,,,,ctch,resources/DG.BMP,resources/DBN.BMP,Door1,0.199999986,-0.014814836,1,0,0,0.8108,optionRight,30,8825,4,37,0,37,0,1,,,,,,,,,,,,,,,,,,,,,,,,,,,,,,,,,,,,,,,
,,,,,,,5717864c94d4fc001297198d,2023-08-16_08h24.35.905,HF_wild_card,2022.2.4,Win32,59.91970759,5717864c94d4fc001297198d,64d2fd46c836a06233681665,64dc79a2601d7d2f191270b7,,,,,,,decisionTrl,resources/DB.BMP,resources/DG.BMP,Door3,-0.19722218,0.025925919,1,0,0,0.5636,optionLeft,70,8895,4,38,0,38,0,1,,,,,,,,,,,,,,,,,,,,,,,,,,,,,,,,,,,,,,,
,,,,,,,5717864c94d4fc001297198d,2023-08-16_08h24.35.905,HF_wild_card,2022.2.4,Win32,59.91970759,5717864c94d4fc001297198d,64d2fd46c836a06233681665,64dc79a2601d7d2f191270b7,,,,,,,decisionTrl,resources/DBN.BMP,resources/DY.BMP,WildCard_NonEx,0.292592578,-0.030555548,1,0,0,0.8914,optionRight,55,8950,4,39,0,39,0,1,,,,,,,,,,,,,,,,,,,,,,,,,,,,,,,,,,,,,,,
,,,,,,,5717864c94d4fc001297198d,2023-08-16_08h24.35.905,HF_wild_card,2022.2.4,Win32,59.91970759,5717864c94d4fc001297198d,64d2fd46c836a06233681665,64dc79a2601d7d2f191270b7,,,,,,,ctch,resources/DG.BMP,resources/DBN.BMP,Door4,-0.320370356,-0.0074074,1,0,0,0.6112,optionLeft,60,9010,4,40,0,40,0,1,,,,,,,,,,,,,,,,,,,,,,,,,,,,,,,,,,,,,,,
,,,,,,,5717864c94d4fc001297198d,2023-08-16_08h24.35.905,HF_wild_card,2022.2.4,Win32,59.91970759,5717864c94d4fc001297198d,64d2fd46c836a06233681665,64dc79a2601d7d2f191270b7,,,,,,,decisionTrl,resources/DG.BMP,resources/DB.BMP,Door4,-0.199999986,0.006481489,1,0,0,0.6802,optionLeft,60,9070,4,41,0,41,0,1,,,,,,,,,,,,,,,,,,,,,,,,,,,,,,,,,,,,,,,
,,,,,,,5717864c94d4fc001297198d,2023-08-16_08h24.35.905,HF_wild_card,2022.2.4,Win32,59.91970759,5717864c94d4fc001297198d,64d2fd46c836a06233681665,64dc79a2601d7d2f191270b7,,,,,,,sngl,resources/DY.BMP,resources/Empty.png,WildCard_NonEx,-0.389814801,0.008333312,1,0,0,0.63,optionLeft,55,9125,4,42,0,42,0,1,,,,,,,,,,,,,,,,,,,,,,,,,,,,,,,,,,,,,,,
,,,,,,,5717864c94d4fc001297198d,2023-08-16_08h24.35.905,HF_wild_card,2022.2.4,Win32,59.91970759,5717864c94d4fc001297198d,64d2fd46c836a06233681665,64dc79a2601d7d2f191270b7,,,,,,,decisionTrl,resources/DP.BMP,resources/DY.BMP,Door2,-0.295370384,-0.002777771,1,0,0,0.7689,optionLeft,20,9145,4,43,0,43,0,1,,,,,,,,,,,,,,,,,,,,,,,,,,,,,,,,,,,,,,,
,,,,,,,5717864c94d4fc001297198d,2023-08-16_08h24.35.905,HF_wild_card,2022.2.4,Win32,59.91970759,5717864c94d4fc001297198d,64d2fd46c836a06233681665,64dc79a2601d7d2f191270b7,,,,,,,,,,,,,,,,,,,,,,,,,,3,0,3,0,1,,,,,,,,,,,,,,,,,,,,,,,,,,,,,,,,,,
,,,,,,,5717864c94d4fc001297198d,2023-08-16_08h24.35.905,HF_wild_card,2022.2.4,Win32,59.91970759,5717864c94d4fc001297198d,64d2fd46c836a06233681665,64dc79a2601d7d2f191270b7,,,,,,,ctch,resources/DG.BMP,resources/DBN.BMP,Door4,-0.334259245,-0.158333319,1,0,0,0.6987,optionLeft,80,9225,5,0,0,0,0,1,,,,,,,,,,,,,,,,,,,,,,,,,,,,,,,,,,,,,,,
,,,,,,,5717864c94d4fc001297198d,2023-08-16_08h24.35.905,HF_wild_card,2022.2.4,Win32,59.91970759,5717864c94d4fc001297198d,64d2fd46c836a06233681665,64dc79a2601d7d2f191270b7,,,,,,,decisionTrl,resources/DP.BMP,resources/DBN.BMP,Door2,-0.357407393,-0.002777771,1,0,0,0.7148,optionLeft,40,9265,5,1,0,1,0,1,,,,,,,,,,,,,,,,,,,,,,,,,,,,,,,,,,,,,,,
,,,,,,,5717864c94d4fc001297198d,2023-08-16_08h24.35.905,HF_wild_card,2022.2.4,Win32,59.91970759,5717864c94d4fc001297198d,64d2fd46c836a06233681665,64dc79a2601d7d2f191270b7,,,,,,,decisionTrl,resources/DB.BMP,resources/DG.BMP,Door4,0.263888889,-0.015740748,1,0,0,1.0602,optionRight,80,9345,5,2,0,2,0,1,,,,,,,,,,,,,,,,,,,,,,,,,,,,,,,,,,,,,,,
,,,,,,,5717864c94d4fc001297198d,2023-08-16_08h24.35.905,HF_wild_card,2022.2.4,Win32,59.91970759,5717864c94d4fc001297198d,64d2fd46c836a06233681665,64dc79a2601d7d2f191270b7,,,,,,,decisionTrl,resources/DG.BMP,resources/DB.BMP,Door3,0.249074088,0,1,0,0,0.7421,optionRight,70,9415,5,3,0,3,0,1,,,,,,,,,,,,,,,,,,,,,,,,,,,,,,,,,,,,,,,
,,,,,,,5717864c94d4fc001297198d,2023-08-16_08h24.35.905,HF_wild_card,2022.2.4,Win32,59.91970759,5717864c94d4fc001297198d,64d2fd46c836a06233681665,64dc79a2601d7d2f191270b7,,,,,,,decisionTrl,resources/DB.BMP,resources/DG.BMP,Door3,-0.374074053,0.02870369,1,0,0,0.6609,optionLeft,70,9485,5,4,0,4,0,1,,,,,,,,,,,,,,,,,,,,,,,,,,,,,,,,,,,,,,,
,,,,,,,5717864c94d4fc001297198d,2023-08-16_08h24.35.905,HF_wild_card,2022.2.4,Win32,59.91970759,5717864c94d4fc001297198d,64d2fd46c836a06233681665,64dc79a2601d7d2f191270b7,,,,,,,sngl,resources/DB.BMP,resources/Empty.png,Door3,-0.283333319,-0.000925947,1,0,0,0.8439,optionLeft,70,9555,5,5,0,5,0,1,,,,,,,,,,,,,,,,,,,,,,,,,,,,,,,,,,,,,,,
,,,,,,,5717864c94d4fc001297198d,2023-08-16_08h24.35.905,HF_wild_card,2022.2.4,Win32,59.91970759,5717864c94d4fc001297198d,64d2fd46c836a06233681665,64dc79a2601d7d2f191270b7,,,,,,,decisionTrl,resources/DY.BMP,resources/DBN.BMP,Door1,0.216666681,-0.020370377,1,0,0,0.7678,optionRight,30,9585,5,6,0,6,0,1,,,,,,,,,,,,,,,,,,,,,,,,,,,,,,,,,,,,,,,
,,,,,,,5717864c94d4fc001297198d,2023-08-16_08h24.35.905,HF_wild_card,2022.2.4,Win32,59.91970759,5717864c94d4fc001297198d,64d2fd46c836a06233681665,64dc79a2601d7d2f191270b7,,,,,,,decisionTrl,resources/DY.BMP,resources/DB.BMP,WildCard_NonEx,-0.38703703,0.009259259,1,0,0,0.5771,optionLeft,45,9630,5,7,0,7,0,1,,,,,,,,,,,,,,,,,,,,,,,,,,,,,,,,,,,,,,,
,,,,,,,5717864c94d4fc001297198d,2023-08-16_08h24.35.905,HF_wild_card,2022.2.4,Win32,59.91970759,5717864c94d4fc001297198d,64d2fd46c836a06233681665,64dc79a2601d7d2f191270b7,,,,,,,sngl,resources/Empty.png,resources/DP.BMP,Door2,0.257407436,-0.030555548,1,0,0,0.5801,optionRight,20,9650,5,8,0,8,0,1,,,,,,,,,,,,,,,,,,,,,,,,,,,,,,,,,,,,,,,
,,,,,,,5717864c94d4fc001297198d,2023-08-16_08h24.35.905,HF_wild_card,2022.2.4,Win32,59.91970759,5717864c94d4fc001297198d,64d2fd46c836a06233681665,64dc79a2601d7d2f191270b7,,,,,,,sngl,resources/DY.BMP,resources/Empty.png,WildCard_NonEx,-0.205555527,0.025000007,1,0,0,0.5641,optionLeft,45,9695,5,9,0,9,0,1,,,,,,,,,,,,,,,,,,,,,,,,,,,,,,,,,,,,,,,
,,,,,,,5717864c94d4fc001297198d,2023-08-16_08h24.35.905,HF_wild_card,2022.2.4,Win32,59.91970759,5717864c94d4fc001297198d,64d2fd46c836a06233681665,64dc79a2601d7d2f191270b7,,,,,,,decisionTrl,resources/DG.BMP,resources/DB.BMP,Door3,0.199999986,-0.014814836,1,0,0,0.7801,optionRight,70,9765,5,10,0,10,0,1,,,,,,,,,,,,,,,,,,,,,,,,,,,,,,,,,,,,,,,
,,,,,,,5717864c94d4fc001297198d,2023-08-16_08h24.35.905,HF_wild_card,2022.2.4,Win32,59.91970759,5717864c94d4fc001297198d,64d2fd46c836a06233681665,64dc79a2601d7d2f191270b7,,,,,,,sngl,resources/Empty.png,resources/DG.BMP,Door4,0.242592635,-0.000925947,1,0,0,0.7267,optionRight,60,9825,5,11,0,11,0,1,,,,,,,,,,,,,,,,,,,,,,,,,,,,,,,,,,,,,,,
,,,,,,,5717864c94d4fc001297198d,2023-08-16_08h24.35.905,HF_wild_card,2022.2.4,Win32,59.91970759,5717864c94d4fc001297198d,64d2fd46c836a06233681665,64dc79a2601d7d2f191270b7,,,,,,,decisionTrl,resources/DP.BMP,resources/DY.BMP,Door2,-0.182407379,0.009259259,1,0,0,0.6137,optionLeft,20,9845,5,12,0,12,0,1,,,,,,,,,,,,,,,,,,,,,,,,,,,,,,,,,,,,,,,
,,,,,,,5717864c94d4fc001297198d,2023-08-16_08h24.35.905,HF_wild_card,2022.2.4,Win32,59.91970759,5717864c94d4fc001297198d,64d2fd46c836a06233681665,64dc79a2601d7d2f191270b7,,,,,,,decisionTrl,resources/DBN.BMP,resources/DP.BMP,Door2,0.210185228,-0.022222236,1,0,0,0.7938,optionRight,40,9885,5,13,0,13,0,1,,,,,,,,,,,,,,,,,,,,,,,,,,,,,,,,,,,,,,,
,,,,,,,5717864c94d4fc001297198d,2023-08-16_08h24.35.905,HF_wild_card,2022.2.4,Win32,59.91970759,5717864c94d4fc001297198d,64d2fd46c836a06233681665,64dc79a2601d7d2f191270b7,,,,,,,decisionTrl,resources/DB.BMP,resources/DG.BMP,Door3,-0.22592594,0.015740748,1,0,0,0.7507,optionLeft,70,9955,5,14,0,14,0,1,,,,,,,,,,,,,,,,,,,,,,,,,,,,,,,,,,,,,,,
,,,,,,,5717864c94d4fc001297198d,2023-08-16_08h24.35.905,HF_wild_card,2022.2.4,Win32,59.91970759,5717864c94d4fc001297198d,64d2fd46c836a06233681665,64dc79a2601d7d2f191270b7,,,,,,,sngl,resources/DY.BMP,resources/Empty.png,WildCard_NonEx,-0.169444402,0.005555541,1,0,0,0.6474,optionLeft,55,10010,5,15,0,15,0,1,,,,,,,,,,,,,,,,,,,,,,,,,,,,,,,,,,,,,,,
,,,,,,,5717864c94d4fc001297198d,2023-08-16_08h24.35.905,HF_wild_card,2022.2.4,Win32,59.91970759,5717864c94d4fc001297198d,64d2fd46c836a06233681665,64dc79a2601d7d2f191270b7,,,,,,,ctch,resources/DP.BMP,resources/DB.BMP,Door3,0.223148134,-0.011111118,1,0,0,0.8972,optionRight,70,10080,5,16,0,16,0,1,,,,,,,,,,,,,,,,,,,,,,,,,,,,,,,,,,,,,,,
,,,,,,,5717864c94d4fc001297198d,2023-08-16_08h24.35.905,HF_wild_card,2022.2.4,Win32,59.91970759,5717864c94d4fc001297198d,64d2fd46c836a06233681665,64dc79a2601d7d2f191270b7,,,,,,,decisionTrl,resources/DBN.BMP,resources/DP.BMP,Door2,0.180555556,-0.01203703,1,0,0,0.8104,optionRight,20,10100,5,17,0,17,0,1,,,,,,,,,,,,,,,,,,,,,,,,,,,,,,,,,,,,,,,
,,,,,,,5717864c94d4fc001297198d,2023-08-16_08h24.35.905,HF_wild_card,2022.2.4,Win32,59.91970759,5717864c94d4fc001297198d,64d2fd46c836a06233681665,64dc79a2601d7d2f191270b7,,,,,,,sngl,resources/Empty.png,resources/DY.BMP,WildCard_NonEx,0.24537037,-0.020370377,1,0,0,0.6191,optionRight,55,10155,5,18,0,18,0,1,,,,,,,,,,,,,,,,,,,,,,,,,,,,,,,,,,,,,,,
,,,,,,,5717864c94d4fc001297198d,2023-08-16_08h24.35.905,HF_wild_card,2022.2.4,Win32,59.91970759,5717864c94d4fc001297198d,64d2fd46c836a06233681665,64dc79a2601d7d2f191270b7,,,,,,,decisionTrl,resources/DG.BMP,resources/DB.BMP,Door4,-0.247222194,0.032407407,1,0,0,0.7064,optionLeft,60,10215,5,19,0,19,0,1,,,,,,,,,,,,,,,,,,,,,,,,,,,,,,,,,,,,,,,
,,,,,,,5717864c94d4fc001297198d,2023-08-16_08h24.35.905,HF_wild_card,2022.2.4,Win32,59.91970759,5717864c94d4fc001297198d,64d2fd46c836a06233681665,64dc79a2601d7d2f191270b7,,,,,,,decisionTrl,resources/DY.BMP,resources/DP.BMP,Door2,0.231481481,0.01666666,1,0,0,1.0519,optionRight,20,10235,5,20,0,20,0,1,,,,,,,,,,,,,,,,,,,,,,,,,,,,,,,,,,,,,,,
,,,,,,,5717864c94d4fc001297198d,2023-08-16_08h24.35.905,HF_wild_card,2022.2.4,Win32,59.91970759,5717864c94d4fc001297198d,64d2fd46c836a06233681665,64dc79a2601d7d2f191270b7,,,,,,,decisionTrl,resources/DBN.BMP,resources/DY.BMP,WildCard_NonEx,0.391666695,-0.031481496,1,0,0,0.8099,optionRight,55,10290,5,21,0,21,0,1,,,,,,,,,,,,,,,,,,,,,,,,,,,,,,,,,,,,,,,
,,,,,,,5717864c94d4fc001297198d,2023-08-16_08h24.35.905,HF_wild_card,2022.2.4,Win32,59.91970759,5717864c94d4fc001297198d,64d2fd46c836a06233681665,64dc79a2601d7d2f191270b7,,,,,,,ctch,resources/DB.BMP,resources/DP.BMP,Door3,-0.223148134,0.003703683,1,0,0,0.7465,optionLeft,70,10360,5,22,0,22,0,1,,,,,,,,,,,,,,,,,,,,,,,,,,,,,,,,,,,,,,,
,,,,,,,5717864c94d4fc001297198d,2023-08-16_08h24.35.905,HF_wild_card,2022.2.4,Win32,59.91970759,5717864c94d4fc001297198d,64d2fd46c836a06233681665,64dc79a2601d7d2f191270b7,,,,,,,decisionTrl,resources/DY.BMP,resources/DG.BMP,WildCard_NonEx,-0.210185157,-0.013888889,1,0,0,0.7767,optionLeft,55,10415,5,23,0,23,0,1,,,,,,,,,,,,,,,,,,,,,,,,,,,,,,,,,,,,,,,
,,,,,,,5717864c94d4fc001297198d,2023-08-16_08h24.35.905,HF_wild_card,2022.2.4,Win32,59.91970759,5717864c94d4fc001297198d,64d2fd46c836a06233681665,64dc79a2601d7d2f191270b7,,,,,,,decisionTrl,resources/DB.BMP,resources/DY.BMP,WildCard_NonEx,0.318518603,-0.050925926,1,0,0,0.7133,optionRight,45,10460,5,24,0,24,0,1,,,,,,,,,,,,,,,,,,,,,,,,,,,,,,,,,,,,,,,
,,,,,,,5717864c94d4fc001297198d,2023-08-16_08h24.35.905,HF_wild_card,2022.2.4,Win32,59.91970759,5717864c94d4fc001297198d,64d2fd46c836a06233681665,64dc79a2601d7d2f191270b7,,,,,,,sngl,resources/Empty.png,resources/DBN.BMP,Door1,0.148148148,0,1,0,0,0.8434,optionRight,30,10490,5,25,0,25,0,1,,,,,,,,,,,,,,,,,,,,,,,,,,,,,,,,,,,,,,,
,,,,,,,5717864c94d4fc001297198d,2023-08-16_08h24.35.905,HF_wild_card,2022.2.4,Win32,59.91970759,5717864c94d4fc001297198d,64d2fd46c836a06233681665,64dc79a2601d7d2f191270b7,,,,,,,decisionTrl,resources/DP.BMP,resources/DBN.BMP,Door2,-0.288888861,0.048148155,1,0,0,0.7153,optionLeft,20,10510,5,26,0,26,0,1,,,,,,,,,,,,,,,,,,,,,,,,,,,,,,,,,,,,,,,
,,,,,,,5717864c94d4fc001297198d,2023-08-16_08h24.35.905,HF_wild_card,2022.2.4,Win32,59.91970759,5717864c94d4fc001297198d,64d2fd46c836a06233681665,64dc79a2601d7d2f191270b7,,,,,,,decisionTrl,resources/DP.BMP,resources/DBN.BMP,Door2,-0.241666653,0.03148146,1,0,0,0.9799,optionLeft,40,10550,5,27,0,27,0,1,,,,,,,,,,,,,,,,,,,,,,,,,,,,,,,,,,,,,,,
,,,,,,,5717864c94d4fc001297198d,2023-08-16_08h24.35.905,HF_wild_card,2022.2.4,Win32,59.91970759,5717864c94d4fc001297198d,64d2fd46c836a06233681665,64dc79a2601d7d2f191270b7,,,,,,,decisionTrl,resources/DG.BMP,resources/DB.BMP,Door3,0.226851852,-0.032407407,1,0,0,0.9009,optionRight,70,10620,5,28,0,28,0,1,,,,,,,,,,,,,,,,,,,,,,,,,,,,,,,,,,,,,,,
,,,,,,,5717864c94d4fc001297198d,2023-08-16_08h24.35.905,HF_wild_card,2022.2.4,Win32,59.91970759,5717864c94d4fc001297198d,64d2fd46c836a06233681665,64dc79a2601d7d2f191270b7,,,,,,,ctch,resources/DP.BMP,resources/DB.BMP,Door3,0.264814801,-0.014814836,1,0,0,0.731,optionRight,70,10690,5,29,0,29,0,1,,,,,,,,,,,,,,,,,,,,,,,,,,,,,,,,,,,,,,,
,,,,,,,5717864c94d4fc001297198d,2023-08-16_08h24.35.905,HF_wild_card,2022.2.4,Win32,59.91970759,5717864c94d4fc001297198d,64d2fd46c836a06233681665,64dc79a2601d7d2f191270b7,,,,,,,ctch,resources/DBN.BMP,resources/DG.BMP,Door4,0.287037037,-0.021296289,1,0,0,1.5845,optionRight,60,10750,5,30,0,30,0,1,,,,,,,,,,,,,,,,,,,,,,,,,,,,,,,,,,,,,,,
,,,,,,,5717864c94d4fc001297198d,2023-08-16_08h24.35.905,HF_wild_card,2022.2.4,Win32,59.91970759,5717864c94d4fc001297198d,64d2fd46c836a06233681665,64dc79a2601d7d2f191270b7,,,,,,,sngl,resources/DG.BMP,resources/Empty.png,Door4,-0.259259259,0.063888868,1,0,0,0.6275,optionLeft,80,10830,5,31,0,31,0,1,,,,,,,,,,,,,,,,,,,,,,,,,,,,,,,,,,,,,,,
,,,,,,,5717864c94d4fc001297198d,2023-08-16_08h24.35.905,HF_wild_card,2022.2.4,Win32,59.91970759,5717864c94d4fc001297198d,64d2fd46c836a06233681665,64dc79a2601d7d2f191270b7,,,,,,,decisionTrl,resources/DP.BMP,resources/DBN.BMP,Door2,-0.264814801,0.063888868,1,0,0,0.8103,optionLeft,40,10870,5,32,0,32,0,1,,,,,,,,,,,,,,,,,,,,,,,,,,,,,,,,,,,,,,,
,,,,,,,5717864c94d4fc001297198d,2023-08-16_08h24.35.905,HF_wild_card,2022.2.4,Win32,59.91970759,5717864c94d4fc001297198d,64d2fd46c836a06233681665,64dc79a2601d7d2f191270b7,,,,,,,sngl,resources/DBN.BMP,resources/Empty.png,Door1,-0.274999972,0.029629637,1,0,0,0.6431,optionLeft,30,10900,5,33,0,33,0,1,,,,,,,,,,,,,,,,,,,,,,,,,,,,,,,,,,,,,,,
,,,,,,,5717864c94d4fc001297198d,2023-08-16_08h24.35.905,HF_wild_card,2022.2.4,Win32,59.91970759,5717864c94d4fc001297198d,64d2fd46c836a06233681665,64dc79a2601d7d2f191270b7,,,,,,,decisionTrl,resources/DG.BMP,resources/DY.BMP,Door4,-0.250925912,0.01944443,1,0,0,0.9004,optionLeft,80,10980,5,34,0,34,0,1,,,,,,,,,,,,,,,,,,,,,,,,,,,,,,,,,,,,,,,
,,,,,,,5717864c94d4fc001297198d,2023-08-16_08h24.35.905,HF_wild_card,2022.2.4,Win32,59.91970759,5717864c94d4fc001297198d,64d2fd46c836a06233681665,64dc79a2601d7d2f191270b7,,,,,,,decisionTrl,resources/DBN.BMP,resources/DP.BMP,Door2,0.24537037,-0.038888896,1,0,0,0.8971,optionRight,20,11000,5,35,0,35,0,1,,,,,,,,,,,,,,,,,,,,,,,,,,,,,,,,,,,,,,,
,,,,,,,5717864c94d4fc001297198d,2023-08-16_08h24.35.905,HF_wild_card,2022.2.4,Win32,59.91970759,5717864c94d4fc001297198d,64d2fd46c836a06233681665,64dc79a2601d7d2f191270b7,,,,,,,sngl,resources/Empty.png,resources/DY.BMP,WildCard_NonEx,0.248148176,-0.039814808,1,0,0,0.7274,optionRight,45,11045,5,36,0,36,0,1,,,,,,,,,,,,,,,,,,,,,,,,,,,,,,,,,,,,,,,
,,,,,,,5717864c94d4fc001297198d,2023-08-16_08h24.35.905,HF_wild_card,2022.2.4,Win32,59.91970759,5717864c94d4fc001297198d,64d2fd46c836a06233681665,64dc79a2601d7d2f191270b7,,,,,,,decisionTrl,resources/DB.BMP,resources/DG.BMP,Door3,-0.25,0.035185178,1,0,0,0.7164,optionLeft,70,11115,5,37,0,37,0,1,,,,,,,,,,,,,,,,,,,,,,,,,,,,,,,,,,,,,,,
,,,,,,,5717864c94d4fc001297198d,2023-08-16_08h24.35.905,HF_wild_card,2022.2.4,Win32,59.91970759,5717864c94d4fc001297198d,64d2fd46c836a06233681665,64dc79a2601d7d2f191270b7,,,,,,,sngl,resources/Empty.png,resources/DB.BMP,Door3,0.236111111,-0.075000021,1,0,0,0.6507,optionRight,70,11185,5,38,0,38,0,1,,,,,,,,,,,,,,,,,,,,,,,,,,,,,,,,,,,,,,,
,,,,,,,5717864c94d4fc001297198d,2023-08-16_08h24.35.905,HF_wild_card,2022.2.4,Win32,59.91970759,5717864c94d4fc001297198d,64d2fd46c836a06233681665,64dc79a2601d7d2f191270b7,,,,,,,sngl,resources/DP.BMP,resources/Empty.png,Door2,-0.209259245,0.008333312,1,0,0,0.644,optionLeft,40,11225,5,39,0,39,0,1,,,,,,,,,,,,,,,,,,,,,,,,,,,,,,,,,,,,,,,
,,,,,,,5717864c94d4fc001297198d,2023-08-16_08h24.35.905,HF_wild_card,2022.2.4,Win32,59.91970759,5717864c94d4fc001297198d,64d2fd46c836a06233681665,64dc79a2601d7d2f191270b7,,,,,,,ctch,resources/DB.BMP,resources/DP.BMP,Door2,0.207407422,-0.050000014,1,0,0,1.0173,optionRight,20,11245,5,40,0,40,0,1,,,,,,,,,,,,,,,,,,,,,,,,,,,,,,,,,,,,,,,
,,,,,,,5717864c94d4fc001297198d,2023-08-16_08h24.35.905,HF_wild_card,2022.2.4,Win32,59.91970759,5717864c94d4fc001297198d,64d2fd46c836a06233681665,64dc79a2601d7d2f191270b7,,,,,,,decisionTrl,resources/DBN.BMP,resources/DP.BMP,Door2,0.281481496,-0.062037044,1,0,0,0.8178,optionRight,40,11285,5,41,0,41,0,1,,,,,,,,,,,,,,,,,,,,,,,,,,,,,,,,,,,,,,,
,,,,,,,5717864c94d4fc001297198d,2023-08-16_08h24.35.905,HF_wild_card,2022.2.4,Win32,59.91970759,5717864c94d4fc001297198d,64d2fd46c836a06233681665,64dc79a2601d7d2f191270b7,,,,,,,ctch,resources/DG.BMP,resources/DBN.BMP,Door4,-0.204629616,0.01666666,1,0,0,0.7134,optionLeft,80,11365,5,42,0,42,0,1,,,,,,,,,,,,,,,,,,,,,,,,,,,,,,,,,,,,,,,
,,,,,,,5717864c94d4fc001297198d,2023-08-16_08h24.35.905,HF_wild_card,2022.2.4,Win32,59.91970759,5717864c94d4fc001297198d,64d2fd46c836a06233681665,64dc79a2601d7d2f191270b7,,,,,,,ctch,resources/DBN.BMP,resources/DG.BMP,Door4,0.268518519,-0.022222236,1,0,0,0.647,optionRight,60,11425,5,43,0,43,0,1,,,,,,,,,,,,,,,,,,,,,,,,,,,,,,,,,,,,,,,
,,,,,,,5717864c94d4fc001297198d,2023-08-16_08h24.35.905,HF_wild_card,2022.2.4,Win32,59.91970759,5717864c94d4fc001297198d,64d2fd46c836a06233681665,64dc79a2601d7d2f191270b7,,,,,,,,,,,,,,,,,,,,,,,,,,4,0,4,0,1,,,,,,,,,,,,,,,,,,,,,,,,,,,,,,,,,,
,,,,,,,5717864c94d4fc001297198d,2023-08-16_08h24.35.905,HF_wild_card,2022.2.4,Win32,59.91970759,5717864c94d4fc001297198d,64d2fd46c836a06233681665,64dc79a2601d7d2f191270b7,,,,,,,sngl,resources/Empty.png,resources/DY.BMP,WildCard_NonEx,0.258333347,-0.190740727,1,0,0,4.1043,optionRight,45,11470,6,0,0,0,0,1,,,,,,,,,,,,,,,,,,,,,,,,,,,,,,,,,,,,,,,
,,,,,,,5717864c94d4fc001297198d,2023-08-16_08h24.35.905,HF_wild_card,2022.2.4,Win32,59.91970759,5717864c94d4fc001297198d,64d2fd46c836a06233681665,64dc79a2601d7d2f191270b7,,,,,,,sngl,resources/DY.BMP,resources/Empty.png,WildCard_NonEx,-0.267592607,0.009259259,1,0,0,0.5439,optionLeft,55,11525,6,1,0,1,0,1,,,,,,,,,,,,,,,,,,,,,,,,,,,,,,,,,,,,,,,
,,,,,,,5717864c94d4fc001297198d,2023-08-16_08h24.35.905,HF_wild_card,2022.2.4,Win32,59.91970759,5717864c94d4fc001297198d,64d2fd46c836a06233681665,64dc79a2601d7d2f191270b7,,,,,,,sngl,resources/DBN.BMP,resources/Empty.png,Door1,-0.215740698,0.003703683,1,0,0,0.584,optionLeft,30,11555,6,2,0,2,0,1,,,,,,,,,,,,,,,,,,,,,,,,,,,,,,,,,,,,,,,
,,,,,,,5717864c94d4fc001297198d,2023-08-16_08h24.35.905,HF_wild_card,2022.2.4,Win32,59.91970759,5717864c94d4fc001297198d,64d2fd46c836a06233681665,64dc79a2601d7d2f191270b7,,,,,,,sngl,resources/DY.BMP,resources/Empty.png,WildCard_NonEx,-0.242592564,0.018518519,1,0,0,0.5774,optionLeft,45,11600,6,3,0,3,0,1,,,,,,,,,,,,,,,,,,,,,,,,,,,,,,,,,,,,,,,
,,,,,,,5717864c94d4fc001297198d,2023-08-16_08h24.35.905,HF_wild_card,2022.2.4,Win32,59.91970759,5717864c94d4fc001297198d,64d2fd46c836a06233681665,64dc79a2601d7d2f191270b7,,,,,,,decisionTrl,resources/DY.BMP,resources/DP.BMP,Door2,0.248148176,-0.025000007,1,0,0,0.9311,optionRight,40,11640,6,4,0,4,0,1,,,,,,,,,,,,,,,,,,,,,,,,,,,,,,,,,,,,,,,
,,,,,,,5717864c94d4fc001297198d,2023-08-16_08h24.35.905,HF_wild_card,2022.2.4,Win32,59.91970759,5717864c94d4fc001297198d,64d2fd46c836a06233681665,64dc79a2601d7d2f191270b7,,,,,,,decisionTrl,resources/DB.BMP,resources/DG.BMP,Door4,0.240740741,-0.021296289,1,0,0,0.834,optionRight,80,11720,6,5,0,5,0,1,,,,,,,,,,,,,,,,,,,,,,,,,,,,,,,,,,,,,,,
,,,,,,,5717864c94d4fc001297198d,2023-08-16_08h24.35.905,HF_wild_card,2022.2.4,Win32,59.91970759,5717864c94d4fc001297198d,64d2fd46c836a06233681665,64dc79a2601d7d2f191270b7,,,,,,,sngl,resources/DP.BMP,resources/Empty.png,Door2,-0.159259231,0.03148146,1,0,0,0.6165,optionLeft,20,11740,6,6,0,6,0,1,,,,,,,,,,,,,,,,,,,,,,,,,,,,,,,,,,,,,,,
,,,,,,,5717864c94d4fc001297198d,2023-08-16_08h24.35.905,HF_wild_card,2022.2.4,Win32,59.91970759,5717864c94d4fc001297198d,64d2fd46c836a06233681665,64dc79a2601d7d2f191270b7,,,,,,,decisionTrl,resources/DB.BMP,resources/DG.BMP,Door4,0.253703718,-0.034259266,1,0,0,0.9807,optionRight,60,11800,6,7,0,7,0,1,,,,,,,,,,,,,,,,,,,,,,,,,,,,,,,,,,,,,,,
,,,,,,,5717864c94d4fc001297198d,2023-08-16_08h24.35.905,HF_wild_card,2022.2.4,Win32,59.91970759,5717864c94d4fc001297198d,64d2fd46c836a06233681665,64dc79a2601d7d2f191270b7,,,,,,,decisionTrl,resources/DB.BMP,resources/DG.BMP,Door3,-0.232407393,0.061111097,1,0,0,0.5679,optionLeft,70,11870,6,8,0,8,0,1,,,,,,,,,,,,,,,,,,,,,,,,,,,,,,,,,,,,,,,
,,,,,,,5717864c94d4fc001297198d,2023-08-16_08h24.35.905,HF_wild_card,2022.2.4,Win32,59.91970759,5717864c94d4fc001297198d,64d2fd46c836a06233681665,64dc79a2601d7d2f191270b7,,,,,,,decisionTrl,resources/DBN.BMP,resources/DP.BMP,Door1,-0.237962935,0.041666667,1,0,0,0.9765,optionLeft,30,11900,6,9,0,9,0,1,,,,,,,,,,,,,,,,,,,,,,,,,,,,,,,,,,,,,,,
,,,,,,,5717864c94d4fc001297198d,2023-08-16_08h24.35.905,HF_wild_card,2022.2.4,Win32,59.91970759,5717864c94d4fc001297198d,64d2fd46c836a06233681665,64dc79a2601d7d2f191270b7,,,,,,,ctch,resources/DBN.BMP,resources/DG.BMP,Door4,0.225000028,-0.029629637,1,0,0,0.9143,optionRight,80,11980,6,10,0,10,0,1,,,,,,,,,,,,,,,,,,,,,,,,,,,,,,,,,,,,,,,
,,,,,,,5717864c94d4fc001297198d,2023-08-16_08h24.35.905,HF_wild_card,2022.2.4,Win32,59.91970759,5717864c94d4fc001297198d,64d2fd46c836a06233681665,64dc79a2601d7d2f191270b7,,,,,,,ctch,resources/DB.BMP,resources/DP.BMP,Door3,-0.224999958,0.025000007,1,0,0,1.2298,optionLeft,70,12050,6,11,0,11,0,1,,,,,,,,,,,,,,,,,,,,,,,,,,,,,,,,,,,,,,,
,,,,,,,5717864c94d4fc001297198d,2023-08-16_08h24.35.905,HF_wild_card,2022.2.4,Win32,59.91970759,5717864c94d4fc001297198d,64d2fd46c836a06233681665,64dc79a2601d7d2f191270b7,,,,,,,sngl,resources/Empty.png,resources/DP.BMP,Door2,0.22129631,-0.018518519,1,0,0,0.8473,optionRight,40,12090,6,12,0,12,0,1,,,,,,,,,,,,,,,,,,,,,,,,,,,,,,,,,,,,,,,
,,,,,,,5717864c94d4fc001297198d,2023-08-16_08h24.35.905,HF_wild_card,2022.2.4,Win32,59.91970759,5717864c94d4fc001297198d,64d2fd46c836a06233681665,64dc79a2601d7d2f191270b7,,,,,,,decisionTrl,resources/DY.BMP,resources/DB.BMP,Door3,0.337037122,-0.0074074,1,0,0,1.5616,optionRight,70,12160,6,13,0,13,0,1,,,,,,,,,,,,,,,,,,,,,,,,,,,,,,,,,,,,,,,
,,,,,,,5717864c94d4fc001297198d,2023-08-16_08h24.35.905,HF_wild_card,2022.2.4,Win32,59.91970759,5717864c94d4fc001297198d,64d2fd46c836a06233681665,64dc79a2601d7d2f191270b7,,,,,,,sngl,resources/Empty.png,resources/DBN.BMP,Door1,0.350926011,-0.018518519,1,0,0,0.6644,optionRight,30,12190,6,14,0,14,0,1,,,,,,,,,,,,,,,,,,,,,,,,,,,,,,,,,,,,,,,
,,,,,,,5717864c94d4fc001297198d,2023-08-16_08h24.35.905,HF_wild_card,2022.2.4,Win32,59.91970759,5717864c94d4fc001297198d,64d2fd46c836a06233681665,64dc79a2601d7d2f191270b7,,,,,,,decisionTrl,resources/DBN.BMP,resources/DP.BMP,Door2,0.291666667,-0.022222236,1,0,0,0.8636,optionRight,40,12230,6,15,0,15,0,1,,,,,,,,,,,,,,,,,,,,,,,,,,,,,,,,,,,,,,,
,,,,,,,5717864c94d4fc001297198d,2023-08-16_08h24.35.905,HF_wild_card,2022.2.4,Win32,59.91970759,5717864c94d4fc001297198d,64d2fd46c836a06233681665,64dc79a2601d7d2f191270b7,,,,,,,decisionTrl,resources/DB.BMP,resources/DG.BMP,Door3,-0.317592586,0.025925919,1,0,0,1.1796,optionLeft,70,12300,6,16,0,16,0,1,,,,,,,,,,,,,,,,,,,,,,,,,,,,,,,,,,,,,,,
,,,,,,,5717864c94d4fc001297198d,2023-08-16_08h24.35.905,HF_wild_card,2022.2.4,Win32,59.91970759,5717864c94d4fc001297198d,64d2fd46c836a06233681665,64dc79a2601d7d2f191270b7,,,,,,,sngl,resources/Empty.png,resources/DY.BMP,WildCard_NonEx,0.243518547,-0.024074095,1,0,0,0.668,optionRight,55,12355,6,17,0,17,0,1,,,,,,,,,,,,,,,,,,,,,,,,,,,,,,,,,,,,,,,
,,,,,,,5717864c94d4fc001297198d,2023-08-16_08h24.35.905,HF_wild_card,2022.2.4,Win32,59.91970759,5717864c94d4fc001297198d,64d2fd46c836a06233681665,64dc79a2601d7d2f191270b7,,,,,,,ctch,resources/DB.BMP,resources/DP.BMP,Door3,-0.247222194,0.041666667,1,0,0,1.0824,optionLeft,70,12425,6,18,0,18,0,1,,,,,,,,,,,,,,,,,,,,,,,,,,,,,,,,,,,,,,,
,,,,,,,5717864c94d4fc001297198d,2023-08-16_08h24.35.905,HF_wild_card,2022.2.4,Win32,59.91970759,5717864c94d4fc001297198d,64d2fd46c836a06233681665,64dc79a2601d7d2f191270b7,,,,,,,sngl,resources/Empty.png,resources/DG.BMP,Door4,0.329629686,-0.039814808,1,0,0,0.6628,optionRight,80,12505,6,19,0,19,0,1,,,,,,,,,,,,,,,,,,,,,,,,,,,,,,,,,,,,,,,
,,,,,,,5717864c94d4fc001297198d,2023-08-16_08h24.35.905,HF_wild_card,2022.2.4,Win32,59.91970759,5717864c94d4fc001297198d,64d2fd46c836a06233681665,64dc79a2601d7d2f191270b7,,,,,,,decisionTrl,resources/DG.BMP,resources/DB.BMP,Door4,-0.322222215,0.037037037,1,0,0,0.9631,optionLeft,80,12585,6,20,0,20,0,1,,,,,,,,,,,,,,,,,,,,,,,,,,,,,,,,,,,,,,,
,,,,,,,5717864c94d4fc001297198d,2023-08-16_08h24.35.905,HF_wild_card,2022.2.4,Win32,59.91970759,5717864c94d4fc001297198d,64d2fd46c836a06233681665,64dc79a2601d7d2f191270b7,,,,,,,decisionTrl,resources/DG.BMP,resources/DB.BMP,Door4,-0.22592594,-0.006481489,1,0,0,0.8968,optionLeft,60,12645,6,21,0,21,0,1,,,,,,,,,,,,,,,,,,,,,,,,,,,,,,,,,,,,,,,
,,,,,,,5717864c94d4fc001297198d,2023-08-16_08h24.35.905,HF_wild_card,2022.2.4,Win32,59.91970759,5717864c94d4fc001297198d,64d2fd46c836a06233681665,64dc79a2601d7d2f191270b7,,,,,,,decisionTrl,resources/DG.BMP,resources/DB.BMP,Door4,-0.227777764,-0.015740748,1,0,0,1.5012,optionLeft,60,12705,6,22,0,22,0,1,,,,,,,,,,,,,,,,,,,,,,,,,,,,,,,,,,,,,,,
,,,,,,,5717864c94d4fc001297198d,2023-08-16_08h24.35.905,HF_wild_card,2022.2.4,Win32,59.91970759,5717864c94d4fc001297198d,64d2fd46c836a06233681665,64dc79a2601d7d2f191270b7,,,,,,,sngl,resources/Empty.png,resources/DB.BMP,Door3,0.264814801,-0.013888889,1,0,0,0.6466,optionRight,70,12775,6,23,0,23,0,1,,,,,,,,,,,,,,,,,,,,,,,,,,,,,,,,,,,,,,,
,,,,,,,5717864c94d4fc001297198d,2023-08-16_08h24.35.905,HF_wild_card,2022.2.4,Win32,59.91970759,5717864c94d4fc001297198d,64d2fd46c836a06233681665,64dc79a2601d7d2f191270b7,,,,,,,ctch,resources/DBN.BMP,resources/DG.BMP,Door4,0.218518504,-0.010185206,1,0,0,0.8109,optionRight,60,12835,6,24,0,24,0,1,,,,,,,,,,,,,,,,,,,,,,,,,,,,,,,,,,,,,,,
,,,,,,,5717864c94d4fc001297198d,2023-08-16_08h24.35.905,HF_wild_card,2022.2.4,Win32,59.91970759,5717864c94d4fc001297198d,64d2fd46c836a06233681665,64dc79a2601d7d2f191270b7,,,,,,,decisionTrl,resources/DG.BMP,resources/DY.BMP,Door4,-0.267592607,0.043518526,1,0,0,1.3431,optionLeft,60,12895,6,25,0,25,0,1,,,,,,,,,,,,,,,,,,,,,,,,,,,,,,,,,,,,,,,
,,,,,,,5717864c94d4fc001297198d,2023-08-16_08h24.35.905,HF_wild_card,2022.2.4,Win32,59.91970759,5717864c94d4fc001297198d,64d2fd46c836a06233681665,64dc79a2601d7d2f191270b7,,,,,,,decisionTrl,resources/DG.BMP,resources/DB.BMP,Door3,0.215740769,-0.021296289,1,0,0,0.9642,optionRight,70,12965,6,26,0,26,0,1,,,,,,,,,,,,,,,,,,,,,,,,,,,,,,,,,,,,,,,
,,,,,,,5717864c94d4fc001297198d,2023-08-16_08h24.35.905,HF_wild_card,2022.2.4,Win32,59.91970759,5717864c94d4fc001297198d,64d2fd46c836a06233681665,64dc79a2601d7d2f191270b7,,,,,,,decisionTrl,resources/DP.BMP,resources/DBN.BMP,Door2,-0.159259231,0.001851859,1,0,0,1.2974,optionLeft,20,12985,6,27,0,27,0,1,,,,,,,,,,,,,,,,,,,,,,,,,,,,,,,,,,,,,,,
,,,,,,,5717864c94d4fc001297198d,2023-08-16_08h24.35.905,HF_wild_card,2022.2.4,Win32,59.91970759,5717864c94d4fc001297198d,64d2fd46c836a06233681665,64dc79a2601d7d2f191270b7,,,,,,,ctch,resources/DG.BMP,resources/DBN.BMP,Door4,-0.151851866,0,1,0,0,0.7636,optionLeft,80,13065,6,28,0,28,0,1,,,,,,,,,,,,,,,,,,,,,,,,,,,,,,,,,,,,,,,
,,,,,,,5717864c94d4fc001297198d,2023-08-16_08h24.35.905,HF_wild_card,2022.2.4,Win32,59.91970759,5717864c94d4fc001297198d,64d2fd46c836a06233681665,64dc79a2601d7d2f191270b7,,,,,,,decisionTrl,resources/DB.BMP,resources/DY.BMP,Door3,-0.190740727,0,1,0,0,0.9804,optionLeft,70,13135,6,29,0,29,0,1,,,,,,,,,,,,,,,,,,,,,,,,,,,,,,,,,,,,,,,
,,,,,,,5717864c94d4fc001297198d,2023-08-16_08h24.35.905,HF_wild_card,2022.2.4,Win32,59.91970759,5717864c94d4fc001297198d,64d2fd46c836a06233681665,64dc79a2601d7d2f191270b7,,,,,,,decisionTrl,resources/DY.BMP,resources/DBN.BMP,WildCard_NonEx,-0.246296282,-0.005555577,1,0,0,1.5932,optionLeft,45,13180,6,30,0,30,0,1,,,,,,,,,,,,,,,,,,,,,,,,,,,,,,,,,,,,,,,
,,,,,,,5717864c94d4fc001297198d,2023-08-16_08h24.35.905,HF_wild_card,2022.2.4,Win32,59.91970759,5717864c94d4fc001297198d,64d2fd46c836a06233681665,64dc79a2601d7d2f191270b7,,,,,,,decisionTrl,resources/DP.BMP,resources/DY.BMP,WildCard_NonEx,0.181481467,-0.023148148,1,0,0,1.794,optionRight,45,13225,6,31,0,31,0,1,,,,,,,,,,,,,,,,,,,,,,,,,,,,,,,,,,,,,,,
,,,,,,,5717864c94d4fc001297198d,2023-08-16_08h24.35.905,HF_wild_card,2022.2.4,Win32,59.91970759,5717864c94d4fc001297198d,64d2fd46c836a06233681665,64dc79a2601d7d2f191270b7,,,,,,,ctch,resources/DG.BMP,resources/DBN.BMP,Door4,-0.19722218,0.014814801,1,0,0,0.7509,optionLeft,60,13285,6,32,0,32,0,1,,,,,,,,,,,,,,,,,,,,,,,,,,,,,,,,,,,,,,,
,,,,,,,5717864c94d4fc001297198d,2023-08-16_08h24.35.905,HF_wild_card,2022.2.4,Win32,59.91970759,5717864c94d4fc001297198d,64d2fd46c836a06233681665,64dc79a2601d7d2f191270b7,,,,,,,decisionTrl,resources/DP.BMP,resources/DBN.BMP,Door2,-0.265740712,-0.000925947,1,0,0,0.7889,optionLeft,20,13305,6,33,0,33,0,1,,,,,,,,,,,,,,,,,,,,,,,,,,,,,,,,,,,,,,,
,,,,,,,5717864c94d4fc001297198d,2023-08-16_08h24.35.905,HF_wild_card,2022.2.4,Win32,59.91970759,5717864c94d4fc001297198d,64d2fd46c836a06233681665,64dc79a2601d7d2f191270b7,,,,,,,decisionTrl,resources/DBN.BMP,resources/DP.BMP,Door1,-0.385185171,0.070370356,1,0,0,1.3979,optionLeft,30,13335,6,34,0,34,0,1,,,,,,,,,,,,,,,,,,,,,,,,,,,,,,,,,,,,,,,
,,,,,,,5717864c94d4fc001297198d,2023-08-16_08h24.35.905,HF_wild_card,2022.2.4,Win32,59.91970759,5717864c94d4fc001297198d,64d2fd46c836a06233681665,64dc79a2601d7d2f191270b7,,,,,,,sngl,resources/DG.BMP,resources/Empty.png,Door4,-0.26944443,0.021296289,1,0,0,0.584,optionLeft,60,13395,6,35,0,35,0,1,,,,,,,,,,,,,,,,,,,,,,,,,,,,,,,,,,,,,,,
,,,,,,,5717864c94d4fc001297198d,2023-08-16_08h24.35.905,HF_wild_card,2022.2.4,Win32,59.91970759,5717864c94d4fc001297198d,64d2fd46c836a06233681665,64dc79a2601d7d2f191270b7,,,,,,,ctch,resources/DP.BMP,resources/DB.BMP,Door3,0.265740783,-0.039814808,1,0,0,1.0107,optionRight,70,13465,6,36,0,36,0,1,,,,,,,,,,,,,,,,,,,,,,,,,,,,,,,,,,,,,,,
,,,,,,,5717864c94d4fc001297198d,2023-08-16_08h24.35.905,HF_wild_card,2022.2.4,Win32,59.91970759,5717864c94d4fc001297198d,64d2fd46c836a06233681665,64dc79a2601d7d2f191270b7,,,,,,,decisionTrl,resources/DP.BMP,resources/DBN.BMP,Door2,-0.150925884,-0.009259259,1,0,0,1.9633,optionLeft,40,13505,6,37,0,37,0,1,,,,,,,,,,,,,,,,,,,,,,,,,,,,,,,,,,,,,,,
,,,,,,,5717864c94d4fc001297198d,2023-08-16_08h24.35.905,HF_wild_card,2022.2.4,Win32,59.91970759,5717864c94d4fc001297198d,64d2fd46c836a06233681665,64dc79a2601d7d2f191270b7,,,,,,,decisionTrl,resources/DY.BMP,resources/DG.BMP,Door4,0.250925912,-0.029629637,1,0,0,0.8599,optionRight,80,13585,6,38,0,38,0,1,,,,,,,,,,,,,,,,,,,,,,,,,,,,,,,,,,,,,,,
,,,,,,,5717864c94d4fc001297198d,2023-08-16_08h24.35.905,HF_wild_card,2022.2.4,Win32,59.91970759,5717864c94d4fc001297198d,64d2fd46c836a06233681665,64dc79a2601d7d2f191270b7,,,,,,,decisionTrl,resources/DBN.BMP,resources/DY.BMP,WildCard_NonEx,0.231481481,-0.037037037,1,0,0,1.033,optionRight,45,13630,6,39,0,39,0,1,,,,,,,,,,,,,,,,,,,,,,,,,,,,,,,,,,,,,,,
,,,,,,,5717864c94d4fc001297198d,2023-08-16_08h24.35.905,HF_wild_card,2022.2.4,Win32,59.91970759,5717864c94d4fc001297198d,64d2fd46c836a06233681665,64dc79a2601d7d2f191270b7,,,,,,,decisionTrl,resources/DP.BMP,resources/DBN.BMP,Door2,-0.162037037,0.002777771,1,0,0,0.694,optionLeft,40,13670,6,40,0,40,0,1,,,,,,,,,,,,,,,,,,,,,,,,,,,,,,,,,,,,,,,
,,,,,,,5717864c94d4fc001297198d,2023-08-16_08h24.35.905,HF_wild_card,2022.2.4,Win32,59.91970759,5717864c94d4fc001297198d,64d2fd46c836a06233681665,64dc79a2601d7d2f191270b7,,,,,,,decisionTrl,resources/DBN.BMP,resources/DP.BMP,Door2,0.215740769,-0.057407414,1,0,0,0.6471,optionRight,20,13690,6,41,0,41,0,1,,,,,,,,,,,,,,,,,,,,,,,,,,,,,,,,,,,,,,,
,,,,,,,5717864c94d4fc001297198d,2023-08-16_08h24.35.905,HF_wild_card,2022.2.4,Win32,59.91970759,5717864c94d4fc001297198d,64d2fd46c836a06233681665,64dc79a2601d7d2f191270b7,,,,,,,sngl,resources/DB.BMP,resources/Empty.png,Door3,-0.127777735,0.015740748,1,0,0,0.6443,optionLeft,70,13760,6,42,0,42,0,1,,,,,,,,,,,,,,,,,,,,,,,,,,,,,,,,,,,,,,,
,,,,,,,5717864c94d4fc001297198d,2023-08-16_08h24.35.905,HF_wild_card,2022.2.4,Win32,59.91970759,5717864c94d4fc001297198d,64d2fd46c836a06233681665,64dc79a2601d7d2f191270b7,,,,,,,ctch,resources/DP.BMP,resources/DB.BMP,Door3,0.212037051,-0.049074067,1,0,0,0.8303,optionRight,70,13830,6,43,0,43,0,1,,,,,,,,,,,,,,,,,,,,,,,,,,,,,,,,,,,,,,,
,,,,,,,5717864c94d4fc001297198d,2023-08-16_08h24.35.905,HF_wild_card,2022.2.4,Win32,59.91970759,5717864c94d4fc001297198d,64d2fd46c836a06233681665,64dc79a2601d7d2f191270b7,,,,,,,,,,,,,,,,,,,,,,,,,,5,0,5,0,1,,,,,,,,,,,,,,,,,,,,,,,,,,,,,,,,,,
,,,,,,,5717864c94d4fc001297198d,2023-08-16_08h24.35.905,HF_wild_card,2022.2.4,Win32,59.91970759,5717864c94d4fc001297198d,64d2fd46c836a06233681665,64dc79a2601d7d2f191270b7,,,,,,,ctch,resources/DP.BMP,resources/DB.BMP,Door3,0.384259259,-0.069444444,1,0,0,0.9647,optionRight,70,13900,7,0,0,0,0,1,,,,,,,,,,,,,,,,,,,,,,,,,,,,,,,,,,,,,,,
,,,,,,,5717864c94d4fc001297198d,2023-08-16_08h24.35.905,HF_wild_card,2022.2.4,Win32,59.91970759,5717864c94d4fc001297198d,64d2fd46c836a06233681665,64dc79a2601d7d2f191270b7,,,,,,,decisionTrl,resources/DBN.BMP,resources/DP.BMP,Door2,0.312962991,0.0074074,1,0,0,1.1484,optionRight,20,13920,7,1,0,1,0,1,,,,,,,,,,,,,,,,,,,,,,,,,,,,,,,,,,,,,,,
,,,,,,,5717864c94d4fc001297198d,2023-08-16_08h24.35.905,HF_wild_card,2022.2.4,Win32,59.91970759,5717864c94d4fc001297198d,64d2fd46c836a06233681665,64dc79a2601d7d2f191270b7,,,,,,,decisionTrl,resources/DG.BMP,resources/DB.BMP,Door4,-0.154629601,0.005555541,1,0,0,1.0447,optionLeft,60,13980,7,2,0,2,0,1,,,,,,,,,,,,,,,,,,,,,,,,,,,,,,,,,,,,,,,
,,,,,,,5717864c94d4fc001297198d,2023-08-16_08h24.35.905,HF_wild_card,2022.2.4,Win32,59.91970759,5717864c94d4fc001297198d,64d2fd46c836a06233681665,64dc79a2601d7d2f191270b7,,,,,,,ctch,resources/DP.BMP,resources/DB.BMP,Door3,0.162037037,-0.027777778,1,0,0,0.8957,optionRight,70,14050,7,3,0,3,0,1,,,,,,,,,,,,,,,,,,,,,,,,,,,,,,,,,,,,,,,
,,,,,,,5717864c94d4fc001297198d,2023-08-16_08h24.35.905,HF_wild_card,2022.2.4,Win32,59.91970759,5717864c94d4fc001297198d,64d2fd46c836a06233681665,64dc79a2601d7d2f191270b7,,,,,,,decisionTrl,resources/DB.BMP,resources/DG.BMP,Door4,0.324074074,-0.051851873,1,0,0,1.2286,optionRight,60,14110,7,4,0,4,0,1,,,,,,,,,,,,,,,,,,,,,,,,,,,,,,,,,,,,,,,
,,,,,,,5717864c94d4fc001297198d,2023-08-16_08h24.35.905,HF_wild_card,2022.2.4,Win32,59.91970759,5717864c94d4fc001297198d,64d2fd46c836a06233681665,64dc79a2601d7d2f191270b7,,,,,,,decisionTrl,resources/DP.BMP,resources/DBN.BMP,Door2,-0.295370384,-0.00462963,1,0,0,0.9119,optionLeft,40,14150,7,5,0,5,0,1,,,,,,,,,,,,,,,,,,,,,,,,,,,,,,,,,,,,,,,
,,,,,,,5717864c94d4fc001297198d,2023-08-16_08h24.35.905,HF_wild_card,2022.2.4,Win32,59.91970759,5717864c94d4fc001297198d,64d2fd46c836a06233681665,64dc79a2601d7d2f191270b7,,,,,,,decisionTrl,resources/DBN.BMP,resources/DP.BMP,Door2,0.378703788,-0.040740755,1,0,0,0.8328,optionRight,40,14190,7,6,0,6,0,1,,,,,,,,,,,,,,,,,,,,,,,,,,,,,,,,,,,,,,,
,,,,,,,5717864c94d4fc001297198d,2023-08-16_08h24.35.905,HF_wild_card,2022.2.4,Win32,59.91970759,5717864c94d4fc001297198d,64d2fd46c836a06233681665,64dc79a2601d7d2f191270b7,,,,,,,decisionTrl,resources/DBN.BMP,resources/DP.BMP,Door2,0.312037009,-0.042592614,1,0,0,0.7488,optionRight,20,14210,7,7,0,7,0,1,,,,,,,,,,,,,,,,,,,,,,,,,,,,,,,,,,,,,,,
,,,,,,,5717864c94d4fc001297198d,2023-08-16_08h24.35.905,HF_wild_card,2022.2.4,Win32,59.91970759,5717864c94d4fc001297198d,64d2fd46c836a06233681665,64dc79a2601d7d2f191270b7,,,,,,,ctch,resources/DBN.BMP,resources/DG.BMP,Door4,0.421296296,-0.000925947,1,0,0,1.3475,optionRight,60,14270,7,8,0,8,0,1,,,,,,,,,,,,,,,,,,,,,,,,,,,,,,,,,,,,,,,
,,,,,,,5717864c94d4fc001297198d,2023-08-16_08h24.35.905,HF_wild_card,2022.2.4,Win32,59.91970759,5717864c94d4fc001297198d,64d2fd46c836a06233681665,64dc79a2601d7d2f191270b7,,,,,,,decisionTrl,resources/DG.BMP,resources/DB.BMP,Door4,-0.287037037,-0.01666666,1,0,0,1.079,optionLeft,80,14350,7,9,0,9,0,1,,,,,,,,,,,,,,,,,,,,,,,,,,,,,,,,,,,,,,,
,,,,,,,5717864c94d4fc001297198d,2023-08-16_08h24.35.905,HF_wild_card,2022.2.4,Win32,59.91970759,5717864c94d4fc001297198d,64d2fd46c836a06233681665,64dc79a2601d7d2f191270b7,,,,,,,decisionTrl,resources/DG.BMP,resources/DB.BMP,Door4,-0.234259217,0.025925919,1,0,0,0.7363,optionLeft,80,14430,7,10,0,10,0,1,,,,,,,,,,,,,,,,,,,,,,,,,,,,,,,,,,,,,,,
,,,,,,,5717864c94d4fc001297198d,2023-08-16_08h24.35.905,HF_wild_card,2022.2.4,Win32,59.91970759,5717864c94d4fc001297198d,64d2fd46c836a06233681665,64dc79a2601d7d2f191270b7,,,,,,,decisionTrl,resources/DP.BMP,resources/DBN.BMP,Door2,-0.296296296,0.005555541,1,0,0,0.7983,optionLeft,40,14470,7,11,0,11,0,1,,,,,,,,,,,,,,,,,,,,,,,,,,,,,,,,,,,,,,,
,,,,,,,5717864c94d4fc001297198d,2023-08-16_08h24.35.905,HF_wild_card,2022.2.4,Win32,59.91970759,5717864c94d4fc001297198d,64d2fd46c836a06233681665,64dc79a2601d7d2f191270b7,,,,,,,decisionTrl,resources/DG.BMP,resources/DB.BMP,Door4,-0.227777764,-0.044444437,1,0,0,0.9115,optionLeft,80,14550,7,12,0,12,0,1,,,,,,,,,,,,,,,,,,,,,,,,,,,,,,,,,,,,,,,
,,,,,,,5717864c94d4fc001297198d,2023-08-16_08h24.35.905,HF_wild_card,2022.2.4,Win32,59.91970759,5717864c94d4fc001297198d,64d2fd46c836a06233681665,64dc79a2601d7d2f191270b7,,,,,,,ctch,resources/DBN.BMP,resources/DG.BMP,Door4,0.235185199,0.023148148,1,0,0,1.4313,optionRight,80,14630,7,13,0,13,0,1,,,,,,,,,,,,,,,,,,,,,,,,,,,,,,,,,,,,,,,
,,,,,,,5717864c94d4fc001297198d,2023-08-16_08h24.35.905,HF_wild_card,2022.2.4,Win32,59.91970759,5717864c94d4fc001297198d,64d2fd46c836a06233681665,64dc79a2601d7d2f191270b7,,,,,,,decisionTrl,resources/DBN.BMP,resources/DP.BMP,Door2,0.296296296,0.045370349,1,0,0,0.8327,optionRight,20,14650,7,14,0,14,0,1,,,,,,,,,,,,,,,,,,,,,,,,,,,,,,,,,,,,,,,
,,,,,,,5717864c94d4fc001297198d,2023-08-16_08h24.35.905,HF_wild_card,2022.2.4,Win32,59.91970759,5717864c94d4fc001297198d,64d2fd46c836a06233681665,64dc79a2601d7d2f191270b7,,,,,,,ctch,resources/DB.BMP,resources/DP.BMP,Door3,-0.309259238,-0.051851873,1,0,0,1.2284,optionLeft,70,14720,7,15,0,15,0,1,,,,,,,,,,,,,,,,,,,,,,,,,,,,,,,,,,,,,,,
,,,,,,,5717864c94d4fc001297198d,2023-08-16_08h24.35.905,HF_wild_card,2022.2.4,Win32,59.91970759,5717864c94d4fc001297198d,64d2fd46c836a06233681665,64dc79a2601d7d2f191270b7,,,,,,,decisionTrl,resources/DP.BMP,resources/DBN.BMP,Door2,-0.237962935,-0.042592614,1,0,0,0.7675,optionLeft,40,14760,7,16,0,16,0,1,,,,,,,,,,,,,,,,,,,,,,,,,,,,,,,,,,,,,,,
,,,,,,,5717864c94d4fc001297198d,2023-08-16_08h24.35.905,HF_wild_card,2022.2.4,Win32,59.91970759,5717864c94d4fc001297198d,64d2fd46c836a06233681665,64dc79a2601d7d2f191270b7,,,,,,,decisionTrl,resources/DB.BMP,resources/DG.BMP,Door4,0.213888875,-0.001851859,1,0,0,1.3151,optionRight,80,14840,7,17,0,17,0,1,,,,,,,,,,,,,,,,,,,,,,,,,,,,,,,,,,,,,,,
,,,,,,,5717864c94d4fc001297198d,2023-08-16_08h24.35.905,HF_wild_card,2022.2.4,Win32,59.91970759,5717864c94d4fc001297198d,64d2fd46c836a06233681665,64dc79a2601d7d2f191270b7,,,,,,,ctch,resources/DG.BMP,resources/DBN.BMP,Door4,-0.373148141,-0.0074074,1,0,0,0.7118,optionLeft,80,14920,7,18,0,18,0,1,,,,,,,,,,,,,,,,,,,,,,,,,,,,,,,,,,,,,,,
,,,,,,,5717864c94d4fc001297198d,2023-08-16_08h24.35.905,HF_wild_card,2022.2.4,Win32,59.91970759,5717864c94d4fc001297198d,64d2fd46c836a06233681665,64dc79a2601d7d2f191270b7,,,,,,,ctch,resources/DBN.BMP,resources/DG.BMP,Door4,0.281481496,0.001851859,1,0,0,0.7818,optionRight,60,14980,7,19,0,19,0,1,,,,,,,,,,,,,,,,,,,,,,,,,,,,,,,,,,,,,,,
,,,,,,,5717864c94d4fc001297198d,2023-08-16_08h24.35.905,HF_wild_card,2022.2.4,Win32,59.91970759,5717864c94d4fc001297198d,64d2fd46c836a06233681665,64dc79a2601d7d2f191270b7,,,,,,,decisionTrl,resources/DB.BMP,resources/DG.BMP,Door3,-0.315740727,-0.0074074,1,0,0,3.2283,optionLeft,70,15050,7,20,0,20,0,1,,,,,,,,,,,,,,,,,,,,,,,,,,,,,,,,,,,,,,,
