Condition,Low fixed image (Door1),Low risky image (Door2),High fixed image (Door3),High risky image (Door4),Extreme Wild Card,NonExtreme Wild Card,,date,expName,psychopyVersion,OS,frameRate,PROLIFIC_PID,STUDY_ID,SESSION_ID,mouse_2.x,mouse_2.y,mouse_2.leftButton,mouse_2.midButton,mouse_2.rightButton,mouse_2.clicked_name,Trial Type,Left Option Image,Right Option Image,Chosen Door,mouse.x,mouse.y,mouse.leftButton,mouse.midButton,mouse.rightButton,mouse.time,mouse.clicked_name,Feedback,Cumulative Reward,Block,trial.thisRepN,trial.thisTrialN,trial.thisN,trial.thisIndex,trial.ran,blocks.thisRepN,blocks.thisTrialN,blocks.thisN,blocks.thisIndex,blocks.ran,Money conversion,First Outcome Reported,Shown Door (First Outcome),Displayed Image (First Outcome),outcomes.thisRepN,outcomes.thisTrialN,outcomes.thisN,outcomes.thisIndex,outcomes.ran,judgments.thisRepN,judgments.thisTrialN,judgments.thisN,judgments.thisIndex,judgments.ran,freqMouse.x,freqMouse.y,freqMouse.leftButton,freqMouse.midButton,freqMouse.rightButton,freqMouse.clicked_name,trials.thisRepN,trials.thisTrialN,trials.thisN,trials.thisIndex,trials.ran,FQJ for first outcome,FQJ for second outcome,Shown Door,Displayed Image,judgBlock.thisRepN,judgBlock.thisTrialN,judgBlock.thisN,judgBlock.thisIndex,judgBlock.ran
0,resources/DY.BMP,resources/DG.BMP,resources/DR.BMP,resources/DB.BMP,resources/DP.BMP,resources/DBN.BMP,,2023-08-06_08h46.06.781,HF_wild_card,2022.2.4,Win32,64.65795939,5fa5d1ec86ac6817fddaff05,64ce5acb97489d65b14ecc7a,64cf46a626a4b01c44514c0b,,,,,,,,,,,,,,,,,,,,,,,,,,,,,,,,,,,,,,,,,,,,,,,,,,,,,,,,,,,,,,,,
,,,,,,,,2023-08-06_08h46.06.781,HF_wild_card,2022.2.4,Win32,64.65795939,5fa5d1ec86ac6817fddaff05,64ce5acb97489d65b14ecc7a,64cf46a626a4b01c44514c0b,0.018518519,-0.411111125,1,0,0,agree,,,,,,,,,,,,,,,,,,,,,,,,,,,,,,,,,,,,,,,,,,,,,,,,,,,,,,,,,,
,,,,,,,,2023-08-06_08h46.06.781,HF_wild_card,2022.2.4,Win32,64.65795939,5fa5d1ec86ac6817fddaff05,64ce5acb97489d65b14ecc7a,64cf46a626a4b01c44514c0b,,,,,,,,,,,,,,,,,,,,,,,,,,,,,,,,,,,,,,,,,,,,,,,,,,,,,,,,,,,,,,,,
,,,,,,,,2023-08-06_08h46.06.781,HF_wild_card,2022.2.4,Win32,64.65795939,5fa5d1ec86ac6817fddaff05,64ce5acb97489d65b14ecc7a,64cf46a626a4b01c44514c0b,,,,,,,decisionTrl,resources/DB.BMP,resources/DP.BMP,WildCard_Ex,0.585185157,0.058333326,1,0,0,2.0604,optionRight,95,95,1,0,0,0,0,1,,,,,,,,,,,,,,,,,,,,,,,,,,,,,,,,,,,,,,,
,,,,,,,,2023-08-06_08h46.06.781,HF_wild_card,2022.2.4,Win32,64.65795939,5fa5d1ec86ac6817fddaff05,64ce5acb97489d65b14ecc7a,64cf46a626a4b01c44514c0b,,,,,,,sngl,resources/DY.BMP,resources/Empty.png,Door1,-0.336111104,-0.021296289,1,0,0,1.1848,optionLeft,30,125,1,1,0,1,0,1,,,,,,,,,,,,,,,,,,,,,,,,,,,,,,,,,,,,,,,
,,,,,,,,2023-08-06_08h46.06.781,HF_wild_card,2022.2.4,Win32,64.65795939,5fa5d1ec86ac6817fddaff05,64ce5acb97489d65b14ecc7a,64cf46a626a4b01c44514c0b,,,,,,,sngl,resources/DB.BMP,resources/Empty.png,Door4,-0.405555548,-0.036111125,1,0,0,2.5084,optionLeft,80,205,1,2,0,2,0,1,,,,,,,,,,,,,,,,,,,,,,,,,,,,,,,,,,,,,,,
,,,,,,,,2023-08-06_08h46.06.781,HF_wild_card,2022.2.4,Win32,64.65795939,5fa5d1ec86ac6817fddaff05,64ce5acb97489d65b14ecc7a,64cf46a626a4b01c44514c0b,,,,,,,decisionTrl,resources/DY.BMP,resources/DG.BMP,Door2,0.378703788,0.039814808,1,0,0,1.0362,optionRight,20,225,1,3,0,3,0,1,,,,,,,,,,,,,,,,,,,,,,,,,,,,,,,,,,,,,,,
,,,,,,,,2023-08-06_08h46.06.781,HF_wild_card,2022.2.4,Win32,64.65795939,5fa5d1ec86ac6817fddaff05,64ce5acb97489d65b14ecc7a,64cf46a626a4b01c44514c0b,,,,,,,decisionTrl,resources/DY.BMP,resources/DG.BMP,Door1,-0.294444402,-0.072222215,1,0,0,1.1296,optionLeft,30,255,1,4,0,4,0,1,,,,,,,,,,,,,,,,,,,,,,,,,,,,,,,,,,,,,,,
,,,,,,,,2023-08-06_08h46.06.781,HF_wild_card,2022.2.4,Win32,64.65795939,5fa5d1ec86ac6817fddaff05,64ce5acb97489d65b14ecc7a,64cf46a626a4b01c44514c0b,,,,,,,decisionTrl,resources/DR.BMP,resources/DB.BMP,Door3,-0.51203703,-0.048148155,1,0,0,1.1752,optionLeft,70,325,1,5,0,5,0,1,,,,,,,,,,,,,,,,,,,,,,,,,,,,,,,,,,,,,,,
,,,,,,,,2023-08-06_08h46.06.781,HF_wild_card,2022.2.4,Win32,64.65795939,5fa5d1ec86ac6817fddaff05,64ce5acb97489d65b14ecc7a,64cf46a626a4b01c44514c0b,,,,,,,sngl,resources/Empty.png,resources/DP.BMP,WildCard_Ex,0.287037037,-0.01666666,1,0,0,1.0131,optionRight,5,330,1,6,0,6,0,1,,,,,,,,,,,,,,,,,,,,,,,,,,,,,,,,,,,,,,,
,,,,,,,,2023-08-06_08h46.06.781,HF_wild_card,2022.2.4,Win32,64.65795939,5fa5d1ec86ac6817fddaff05,64ce5acb97489d65b14ecc7a,64cf46a626a4b01c44514c0b,,,,,,,decisionTrl,resources/DP.BMP,resources/DG.BMP,WildCard_Ex,-0.314814815,-0.002777771,1,0,0,1.5615,optionLeft,5,335,1,7,0,7,0,1,,,,,,,,,,,,,,,,,,,,,,,,,,,,,,,,,,,,,,,
,,,,,,,,2023-08-06_08h46.06.781,HF_wild_card,2022.2.4,Win32,64.65795939,5fa5d1ec86ac6817fddaff05,64ce5acb97489d65b14ecc7a,64cf46a626a4b01c44514c0b,,,,,,,decisionTrl,resources/DR.BMP,resources/DP.BMP,Door3,-0.445370356,-0.021296289,1,0,0,1.1197,optionLeft,70,405,1,8,0,8,0,1,,,,,,,,,,,,,,,,,,,,,,,,,,,,,,,,,,,,,,,
,,,,,,,,2023-08-06_08h46.06.781,HF_wild_card,2022.2.4,Win32,64.65795939,5fa5d1ec86ac6817fddaff05,64ce5acb97489d65b14ecc7a,64cf46a626a4b01c44514c0b,,,,,,,decisionTrl,resources/DY.BMP,resources/DG.BMP,Door2,0.381481453,0.035185178,1,0,0,1.2454,optionRight,20,425,1,9,0,9,0,1,,,,,,,,,,,,,,,,,,,,,,,,,,,,,,,,,,,,,,,
,,,,,,,,2023-08-06_08h46.06.781,HF_wild_card,2022.2.4,Win32,64.65795939,5fa5d1ec86ac6817fddaff05,64ce5acb97489d65b14ecc7a,64cf46a626a4b01c44514c0b,,,,,,,decisionTrl,resources/DY.BMP,resources/DG.BMP,Door1,-0.487037023,-0.005555577,1,0,0,0.8455,optionLeft,30,455,1,10,0,10,0,1,,,,,,,,,,,,,,,,,,,,,,,,,,,,,,,,,,,,,,,
,,,,,,,,2023-08-06_08h46.06.781,HF_wild_card,2022.2.4,Win32,64.65795939,5fa5d1ec86ac6817fddaff05,64ce5acb97489d65b14ecc7a,64cf46a626a4b01c44514c0b,,,,,,,decisionTrl,resources/DR.BMP,resources/DB.BMP,Door3,-0.388888889,-0.048148155,1,0,0,1.3489,optionLeft,70,525,1,11,0,11,0,1,,,,,,,,,,,,,,,,,,,,,,,,,,,,,,,,,,,,,,,
,,,,,,,,2023-08-06_08h46.06.781,HF_wild_card,2022.2.4,Win32,64.65795939,5fa5d1ec86ac6817fddaff05,64ce5acb97489d65b14ecc7a,64cf46a626a4b01c44514c0b,,,,,,,sngl,resources/DR.BMP,resources/Empty.png,Door3,-0.400000007,0.012962942,1,0,0,0.8539,optionLeft,70,595,1,12,0,12,0,1,,,,,,,,,,,,,,,,,,,,,,,,,,,,,,,,,,,,,,,
,,,,,,,,2023-08-06_08h46.06.781,HF_wild_card,2022.2.4,Win32,64.65795939,5fa5d1ec86ac6817fddaff05,64ce5acb97489d65b14ecc7a,64cf46a626a4b01c44514c0b,,,,,,,decisionTrl,resources/DP.BMP,resources/DR.BMP,Door3,0.279629672,-0.012962977,1,0,0,1.1046,optionRight,70,665,1,13,0,13,0,1,,,,,,,,,,,,,,,,,,,,,,,,,,,,,,,,,,,,,,,
,,,,,,,,2023-08-06_08h46.06.781,HF_wild_card,2022.2.4,Win32,64.65795939,5fa5d1ec86ac6817fddaff05,64ce5acb97489d65b14ecc7a,64cf46a626a4b01c44514c0b,,,,,,,ctch,resources/DY.BMP,resources/DB.BMP,Door4,0.271296325,-0.012962977,1,0,0,1.305,optionRight,60,725,1,14,0,14,0,1,,,,,,,,,,,,,,,,,,,,,,,,,,,,,,,,,,,,,,,
,,,,,,,,2023-08-06_08h46.06.781,HF_wild_card,2022.2.4,Win32,64.65795939,5fa5d1ec86ac6817fddaff05,64ce5acb97489d65b14ecc7a,64cf46a626a4b01c44514c0b,,,,,,,sngl,resources/DG.BMP,resources/Empty.png,Door2,-0.365740741,-0.069444444,1,0,0,1.2149,optionLeft,40,765,1,15,0,15,0,1,,,,,,,,,,,,,,,,,,,,,,,,,,,,,,,,,,,,,,,
,,,,,,,,2023-08-06_08h46.06.781,HF_wild_card,2022.2.4,Win32,64.65795939,5fa5d1ec86ac6817fddaff05,64ce5acb97489d65b14ecc7a,64cf46a626a4b01c44514c0b,,,,,,,sngl,resources/DP.BMP,resources/Empty.png,WildCard_Ex,-0.414814808,-0.015740748,1,0,0,1.0877,optionLeft,95,860,1,16,0,16,0,1,,,,,,,,,,,,,,,,,,,,,,,,,,,,,,,,,,,,,,,
,,,,,,,,2023-08-06_08h46.06.781,HF_wild_card,2022.2.4,Win32,64.65795939,5fa5d1ec86ac6817fddaff05,64ce5acb97489d65b14ecc7a,64cf46a626a4b01c44514c0b,,,,,,,ctch,resources/DG.BMP,resources/DR.BMP,Door3,0.421296296,-0.042592614,1,0,0,1.1051,optionRight,70,930,1,17,0,17,0,1,,,,,,,,,,,,,,,,,,,,,,,,,,,,,,,,,,,,,,,
,,,,,,,,2023-08-06_08h46.06.781,HF_wild_card,2022.2.4,Win32,64.65795939,5fa5d1ec86ac6817fddaff05,64ce5acb97489d65b14ecc7a,64cf46a626a4b01c44514c0b,,,,,,,decisionTrl,resources/DG.BMP,resources/DY.BMP,Door1,0.399074131,0.005555541,1,0,0,1.663,optionRight,30,960,1,18,0,18,0,1,,,,,,,,,,,,,,,,,,,,,,,,,,,,,,,,,,,,,,,
,,,,,,,,2023-08-06_08h46.06.781,HF_wild_card,2022.2.4,Win32,64.65795939,5fa5d1ec86ac6817fddaff05,64ce5acb97489d65b14ecc7a,64cf46a626a4b01c44514c0b,,,,,,,sngl,resources/Empty.png,resources/DB.BMP,Door4,0.336111139,-0.048148155,1,0,0,0.9367,optionRight,60,1020,1,19,0,19,0,1,,,,,,,,,,,,,,,,,,,,,,,,,,,,,,,,,,,,,,,
,,,,,,,,2023-08-06_08h46.06.781,HF_wild_card,2022.2.4,Win32,64.65795939,5fa5d1ec86ac6817fddaff05,64ce5acb97489d65b14ecc7a,64cf46a626a4b01c44514c0b,,,,,,,sngl,resources/Empty.png,resources/DY.BMP,Door1,0.330555527,0.013888889,1,0,0,0.8794,optionRight,30,1050,1,20,0,20,0,1,,,,,,,,,,,,,,,,,,,,,,,,,,,,,,,,,,,,,,,
,,,,,,,,2023-08-06_08h46.06.781,HF_wild_card,2022.2.4,Win32,64.65795939,5fa5d1ec86ac6817fddaff05,64ce5acb97489d65b14ecc7a,64cf46a626a4b01c44514c0b,,,,,,,sngl,resources/Empty.png,resources/DP.BMP,WildCard_Ex,0.376851824,-0.025000007,1,0,0,0.844,optionRight,95,1145,1,21,0,21,0,1,,,,,,,,,,,,,,,,,,,,,,,,,,,,,,,,,,,,,,,
,,,,,,,,2023-08-06_08h46.06.781,HF_wild_card,2022.2.4,Win32,64.65795939,5fa5d1ec86ac6817fddaff05,64ce5acb97489d65b14ecc7a,64cf46a626a4b01c44514c0b,,,,,,,decisionTrl,resources/DP.BMP,resources/DB.BMP,WildCard_Ex,-0.489814794,-0.005555577,1,0,0,1.6809,optionLeft,95,1240,1,22,0,22,0,1,,,,,,,,,,,,,,,,,,,,,,,,,,,,,,,,,,,,,,,
,,,,,,,,2023-08-06_08h46.06.781,HF_wild_card,2022.2.4,Win32,64.65795939,5fa5d1ec86ac6817fddaff05,64ce5acb97489d65b14ecc7a,64cf46a626a4b01c44514c0b,,,,,,,decisionTrl,resources/DB.BMP,resources/DR.BMP,Door3,0.316666638,0.010185171,1,0,0,1.0461,optionRight,70,1310,1,23,0,23,0,1,,,,,,,,,,,,,,,,,,,,,,,,,,,,,,,,,,,,,,,
,,,,,,,,2023-08-06_08h46.06.781,HF_wild_card,2022.2.4,Win32,64.65795939,5fa5d1ec86ac6817fddaff05,64ce5acb97489d65b14ecc7a,64cf46a626a4b01c44514c0b,,,,,,,sngl,resources/Empty.png,resources/DR.BMP,Door3,0.477777834,0.046296296,1,0,0,0.9293,optionRight,70,1380,1,24,0,24,0,1,,,,,,,,,,,,,,,,,,,,,,,,,,,,,,,,,,,,,,,
,,,,,,,,2023-08-06_08h46.06.781,HF_wild_card,2022.2.4,Win32,64.65795939,5fa5d1ec86ac6817fddaff05,64ce5acb97489d65b14ecc7a,64cf46a626a4b01c44514c0b,,,,,,,decisionTrl,resources/DR.BMP,resources/DB.BMP,Door3,-0.336111104,0.013888889,1,0,0,1.0533,optionLeft,70,1450,1,25,0,25,0,1,,,,,,,,,,,,,,,,,,,,,,,,,,,,,,,,,,,,,,,
,,,,,,,,2023-08-06_08h46.06.781,HF_wild_card,2022.2.4,Win32,64.65795939,5fa5d1ec86ac6817fddaff05,64ce5acb97489d65b14ecc7a,64cf46a626a4b01c44514c0b,,,,,,,sngl,resources/Empty.png,resources/DG.BMP,Door2,0.265740783,0.02870369,1,0,0,0.9372,optionRight,20,1470,1,26,0,26,0,1,,,,,,,,,,,,,,,,,,,,,,,,,,,,,,,,,,,,,,,
,,,,,,,,2023-08-06_08h46.06.781,HF_wild_card,2022.2.4,Win32,64.65795939,5fa5d1ec86ac6817fddaff05,64ce5acb97489d65b14ecc7a,64cf46a626a4b01c44514c0b,,,,,,,decisionTrl,resources/DB.BMP,resources/DR.BMP,Door3,0.461111139,0.035185178,1,0,0,1.1096,optionRight,70,1540,1,27,0,27,0,1,,,,,,,,,,,,,,,,,,,,,,,,,,,,,,,,,,,,,,,
,,,,,,,,2023-08-06_08h46.06.781,HF_wild_card,2022.2.4,Win32,64.65795939,5fa5d1ec86ac6817fddaff05,64ce5acb97489d65b14ecc7a,64cf46a626a4b01c44514c0b,,,,,,,decisionTrl,resources/DR.BMP,resources/DB.BMP,Door3,-0.246296282,0.000925912,1,0,0,1.0307,optionLeft,70,1610,1,28,0,28,0,1,,,,,,,,,,,,,,,,,,,,,,,,,,,,,,,,,,,,,,,
,,,,,,,,2023-08-06_08h46.06.781,HF_wild_card,2022.2.4,Win32,64.65795939,5fa5d1ec86ac6817fddaff05,64ce5acb97489d65b14ecc7a,64cf46a626a4b01c44514c0b,,,,,,,decisionTrl,resources/DY.BMP,resources/DP.BMP,Door1,-0.337037016,0.011111118,1,0,0,1.2385,optionLeft,30,1640,1,29,0,29,0,1,,,,,,,,,,,,,,,,,,,,,,,,,,,,,,,,,,,,,,,
,,,,,,,,2023-08-06_08h46.06.781,HF_wild_card,2022.2.4,Win32,64.65795939,5fa5d1ec86ac6817fddaff05,64ce5acb97489d65b14ecc7a,64cf46a626a4b01c44514c0b,,,,,,,decisionTrl,resources/DG.BMP,resources/DY.BMP,Door1,0.414814843,0.082407386,1,0,0,3.0007,optionRight,30,1670,1,30,0,30,0,1,,,,,,,,,,,,,,,,,,,,,,,,,,,,,,,,,,,,,,,
,,,,,,,,2023-08-06_08h46.06.781,HF_wild_card,2022.2.4,Win32,64.65795939,5fa5d1ec86ac6817fddaff05,64ce5acb97489d65b14ecc7a,64cf46a626a4b01c44514c0b,,,,,,,decisionTrl,resources/DB.BMP,resources/DR.BMP,Door3,0.511111083,0.006481489,1,0,0,1.0112,optionRight,70,1740,1,31,0,31,0,1,,,,,,,,,,,,,,,,,,,,,,,,,,,,,,,,,,,,,,,
,,,,,,,,2023-08-06_08h46.06.781,HF_wild_card,2022.2.4,Win32,64.65795939,5fa5d1ec86ac6817fddaff05,64ce5acb97489d65b14ecc7a,64cf46a626a4b01c44514c0b,,,,,,,ctch,resources/DR.BMP,resources/DG.BMP,Door3,-0.3675926,0.066666674,1,0,0,2.1961,optionLeft,70,1810,1,32,0,32,0,1,,,,,,,,,,,,,,,,,,,,,,,,,,,,,,,,,,,,,,,
,,,,,,,,2023-08-06_08h46.06.781,HF_wild_card,2022.2.4,Win32,64.65795939,5fa5d1ec86ac6817fddaff05,64ce5acb97489d65b14ecc7a,64cf46a626a4b01c44514c0b,,,,,,,ctch,resources/DB.BMP,resources/DY.BMP,Door4,-0.377777771,-0.137962977,1,0,0,3.9867,optionLeft,60,1870,1,33,0,33,0,1,,,,,,,,,,,,,,,,,,,,,,,,,,,,,,,,,,,,,,,
,,,,,,,,2023-08-06_08h46.06.781,HF_wild_card,2022.2.4,Win32,64.65795939,5fa5d1ec86ac6817fddaff05,64ce5acb97489d65b14ecc7a,64cf46a626a4b01c44514c0b,,,,,,,sngl,resources/DP.BMP,resources/Empty.png,WildCard_Ex,-0.486111111,0.021296289,1,0,0,0.8949,optionLeft,5,1875,1,34,0,34,0,1,,,,,,,,,,,,,,,,,,,,,,,,,,,,,,,,,,,,,,,
,,,,,,,,2023-08-06_08h46.06.781,HF_wild_card,2022.2.4,Win32,64.65795939,5fa5d1ec86ac6817fddaff05,64ce5acb97489d65b14ecc7a,64cf46a626a4b01c44514c0b,,,,,,,decisionTrl,resources/DP.BMP,resources/DY.BMP,WildCard_Ex,-0.473148134,-0.043518526,1,0,0,1.7298,optionLeft,95,1970,1,35,0,35,0,1,,,,,,,,,,,,,,,,,,,,,,,,,,,,,,,,,,,,,,,
,,,,,,,,2023-08-06_08h46.06.781,HF_wild_card,2022.2.4,Win32,64.65795939,5fa5d1ec86ac6817fddaff05,64ce5acb97489d65b14ecc7a,64cf46a626a4b01c44514c0b,,,,,,,ctch,resources/DB.BMP,resources/DY.BMP,Door4,-0.313888868,0.01203703,1,0,0,1.131,optionLeft,80,2050,1,36,0,36,0,1,,,,,,,,,,,,,,,,,,,,,,,,,,,,,,,,,,,,,,,
,,,,,,,,2023-08-06_08h46.06.781,HF_wild_card,2022.2.4,Win32,64.65795939,5fa5d1ec86ac6817fddaff05,64ce5acb97489d65b14ecc7a,64cf46a626a4b01c44514c0b,,,,,,,ctch,resources/DG.BMP,resources/DR.BMP,Door3,0.343518575,0.067592586,1,0,0,1.1305,optionRight,70,2120,1,37,0,37,0,1,,,,,,,,,,,,,,,,,,,,,,,,,,,,,,,,,,,,,,,
,,,,,,,,2023-08-06_08h46.06.781,HF_wild_card,2022.2.4,Win32,64.65795939,5fa5d1ec86ac6817fddaff05,64ce5acb97489d65b14ecc7a,64cf46a626a4b01c44514c0b,,,,,,,ctch,resources/DY.BMP,resources/DB.BMP,Door4,0.369444529,0.050925926,1,0,0,1.4634,optionRight,60,2180,1,38,0,38,0,1,,,,,,,,,,,,,,,,,,,,,,,,,,,,,,,,,,,,,,,
,,,,,,,,2023-08-06_08h46.06.781,HF_wild_card,2022.2.4,Win32,64.65795939,5fa5d1ec86ac6817fddaff05,64ce5acb97489d65b14ecc7a,64cf46a626a4b01c44514c0b,,,,,,,decisionTrl,resources/DG.BMP,resources/DP.BMP,WildCard_Ex,0.279629672,0.041666667,1,0,0,2.9294,optionRight,95,2275,1,39,0,39,0,1,,,,,,,,,,,,,,,,,,,,,,,,,,,,,,,,,,,,,,,
,,,,,,,,2023-08-06_08h46.06.781,HF_wild_card,2022.2.4,Win32,64.65795939,5fa5d1ec86ac6817fddaff05,64ce5acb97489d65b14ecc7a,64cf46a626a4b01c44514c0b,,,,,,,decisionTrl,resources/DG.BMP,resources/DY.BMP,Door2,-0.268518519,0.068518497,1,0,0,1.0901,optionLeft,40,2315,1,40,0,40,0,1,,,,,,,,,,,,,,,,,,,,,,,,,,,,,,,,,,,,,,,
,,,,,,,,2023-08-06_08h46.06.781,HF_wild_card,2022.2.4,Win32,64.65795939,5fa5d1ec86ac6817fddaff05,64ce5acb97489d65b14ecc7a,64cf46a626a4b01c44514c0b,,,,,,,ctch,resources/DR.BMP,resources/DG.BMP,Door3,-0.360185164,0.063888868,1,0,0,0.9791,optionLeft,70,2385,1,41,0,41,0,1,,,,,,,,,,,,,,,,,,,,,,,,,,,,,,,,,,,,,,,
,,,,,,,,2023-08-06_08h46.06.781,HF_wild_card,2022.2.4,Win32,64.65795939,5fa5d1ec86ac6817fddaff05,64ce5acb97489d65b14ecc7a,64cf46a626a4b01c44514c0b,,,,,,,decisionTrl,resources/DB.BMP,resources/DR.BMP,Door3,0.432407379,0.092592593,1,0,0,1.2727,optionRight,70,2455,1,42,0,42,0,1,,,,,,,,,,,,,,,,,,,,,,,,,,,,,,,,,,,,,,,
,,,,,,,,2023-08-06_08h46.06.781,HF_wild_card,2022.2.4,Win32,64.65795939,5fa5d1ec86ac6817fddaff05,64ce5acb97489d65b14ecc7a,64cf46a626a4b01c44514c0b,,,,,,,decisionTrl,resources/DG.BMP,resources/DY.BMP,Door2,-0.333333333,0.026851831,1,0,0,1.3969,optionLeft,40,2495,1,43,0,43,0,1,,,,,,,,,,,,,,,,,,,,,,,,,,,,,,,,,,,,,,,
,,,,,,,,2023-08-06_08h46.06.781,HF_wild_card,2022.2.4,Win32,64.65795939,5fa5d1ec86ac6817fddaff05,64ce5acb97489d65b14ecc7a,64cf46a626a4b01c44514c0b,,,,,,,,,,,,,,,,,,,,,,,,,,0,0,0,0,1,,,,,,,,,,,,,,,,,,,,,,,,,,,,,,,,,,
,,,,,,,,2023-08-06_08h46.06.781,HF_wild_card,2022.2.4,Win32,64.65795939,5fa5d1ec86ac6817fddaff05,64ce5acb97489d65b14ecc7a,64cf46a626a4b01c44514c0b,,,,,,,sngl,resources/DG.BMP,resources/Empty.png,Door2,-0.190740727,0.030555548,1,0,0,20.545,optionLeft,20,2515,2,0,0,0,0,1,,,,,,,,,,,,,,,,,,,,,,,,,,,,,,,,,,,,,,,
,,,,,,,,2023-08-06_08h46.06.781,HF_wild_card,2022.2.4,Win32,64.65795939,5fa5d1ec86ac6817fddaff05,64ce5acb97489d65b14ecc7a,64cf46a626a4b01c44514c0b,,,,,,,decisionTrl,resources/DR.BMP,resources/DP.BMP,Door3,-0.369444423,-0.002777771,1,0,0,1.5048,optionLeft,70,2585,2,1,0,1,0,1,,,,,,,,,,,,,,,,,,,,,,,,,,,,,,,,,,,,,,,
,,,,,,,,2023-08-06_08h46.06.781,HF_wild_card,2022.2.4,Win32,64.65795939,5fa5d1ec86ac6817fddaff05,64ce5acb97489d65b14ecc7a,64cf46a626a4b01c44514c0b,,,,,,,ctch,resources/DY.BMP,resources/DB.BMP,Door4,0.318518603,0.020370377,1,0,0,7.3574,optionRight,60,2645,2,2,0,2,0,1,,,,,,,,,,,,,,,,,,,,,,,,,,,,,,,,,,,,,,,
,,,,,,,,2023-08-06_08h46.06.781,HF_wild_card,2022.2.4,Win32,64.65795939,5fa5d1ec86ac6817fddaff05,64ce5acb97489d65b14ecc7a,64cf46a626a4b01c44514c0b,,,,,,,sngl,resources/DR.BMP,resources/Empty.png,Door3,-0.337962963,-0.027777778,1,0,0,2.265,optionLeft,70,2715,2,3,0,3,0,1,,,,,,,,,,,,,,,,,,,,,,,,,,,,,,,,,,,,,,,
,,,,,,,,2023-08-06_08h46.06.781,HF_wild_card,2022.2.4,Win32,64.65795939,5fa5d1ec86ac6817fddaff05,64ce5acb97489d65b14ecc7a,64cf46a626a4b01c44514c0b,,,,,,,sngl,resources/DY.BMP,resources/Empty.png,Door1,-0.301851838,0.04074072,1,0,0,7.9591,optionLeft,30,2745,2,4,0,4,0,1,,,,,,,,,,,,,,,,,,,,,,,,,,,,,,,,,,,,,,,
,,,,,,,,2023-08-06_08h46.06.781,HF_wild_card,2022.2.4,Win32,64.65795939,5fa5d1ec86ac6817fddaff05,64ce5acb97489d65b14ecc7a,64cf46a626a4b01c44514c0b,,,,,,,decisionTrl,resources/DY.BMP,resources/DG.BMP,Door1,-0.543518526,0.001851859,1,0,0,2.3309,optionLeft,30,2775,2,5,0,5,0,1,,,,,,,,,,,,,,,,,,,,,,,,,,,,,,,,,,,,,,,
,,,,,,,,2023-08-06_08h46.06.781,HF_wild_card,2022.2.4,Win32,64.65795939,5fa5d1ec86ac6817fddaff05,64ce5acb97489d65b14ecc7a,64cf46a626a4b01c44514c0b,,,,,,,ctch,resources/DB.BMP,resources/DY.BMP,Door4,-0.198148162,-0.029629637,1,0,0,2.1804,optionLeft,60,2835,2,6,0,6,0,1,,,,,,,,,,,,,,,,,,,,,,,,,,,,,,,,,,,,,,,
,,,,,,,,2023-08-06_08h46.06.781,HF_wild_card,2022.2.4,Win32,64.65795939,5fa5d1ec86ac6817fddaff05,64ce5acb97489d65b14ecc7a,64cf46a626a4b01c44514c0b,,,,,,,sngl,resources/DB.BMP,resources/Empty.png,Door4,-0.333333333,-0.062037044,1,0,0,0.846,optionLeft,60,2895,2,7,0,7,0,1,,,,,,,,,,,,,,,,,,,,,,,,,,,,,,,,,,,,,,,
,,,,,,,,2023-08-06_08h46.06.781,HF_wild_card,2022.2.4,Win32,64.65795939,5fa5d1ec86ac6817fddaff05,64ce5acb97489d65b14ecc7a,64cf46a626a4b01c44514c0b,,,,,,,ctch,resources/DB.BMP,resources/DY.BMP,Door4,-0.266666624,0.020370377,1,0,0,1.2615,optionLeft,80,2975,2,8,0,8,0,1,,,,,,,,,,,,,,,,,,,,,,,,,,,,,,,,,,,,,,,
,,,,,,,,2023-08-06_08h46.06.781,HF_wild_card,2022.2.4,Win32,64.65795939,5fa5d1ec86ac6817fddaff05,64ce5acb97489d65b14ecc7a,64cf46a626a4b01c44514c0b,,,,,,,decisionTrl,resources/DR.BMP,resources/DB.BMP,Door3,-0.402777778,-0.010185206,1,0,0,1.205,optionLeft,70,3045,2,9,0,9,0,1,,,,,,,,,,,,,,,,,,,,,,,,,,,,,,,,,,,,,,,
,,,,,,,,2023-08-06_08h46.06.781,HF_wild_card,2022.2.4,Win32,64.65795939,5fa5d1ec86ac6817fddaff05,64ce5acb97489d65b14ecc7a,64cf46a626a4b01c44514c0b,,,,,,,sngl,resources/DP.BMP,resources/Empty.png,WildCard_Ex,-0.363888882,-0.000925947,1,0,0,0.8415,optionLeft,5,3050,2,10,0,10,0,1,,,,,,,,,,,,,,,,,,,,,,,,,,,,,,,,,,,,,,,
,,,,,,,,2023-08-06_08h46.06.781,HF_wild_card,2022.2.4,Win32,64.65795939,5fa5d1ec86ac6817fddaff05,64ce5acb97489d65b14ecc7a,64cf46a626a4b01c44514c0b,,,,,,,sngl,resources/Empty.png,resources/DY.BMP,Door1,0.320370427,0,1,0,0,0.8397,optionRight,30,3080,2,11,0,11,0,1,,,,,,,,,,,,,,,,,,,,,,,,,,,,,,,,,,,,,,,
,,,,,,,,2023-08-06_08h46.06.781,HF_wild_card,2022.2.4,Win32,64.65795939,5fa5d1ec86ac6817fddaff05,64ce5acb97489d65b14ecc7a,64cf46a626a4b01c44514c0b,,,,,,,sngl,resources/DP.BMP,resources/Empty.png,WildCard_Ex,-0.298148155,-0.057407414,1,0,0,0.8548,optionLeft,95,3175,2,12,0,12,0,1,,,,,,,,,,,,,,,,,,,,,,,,,,,,,,,,,,,,,,,
,,,,,,,,2023-08-06_08h46.06.781,HF_wild_card,2022.2.4,Win32,64.65795939,5fa5d1ec86ac6817fddaff05,64ce5acb97489d65b14ecc7a,64cf46a626a4b01c44514c0b,,,,,,,decisionTrl,resources/DP.BMP,resources/DB.BMP,Door4,0.23055557,0.005555541,1,0,0,2.4237,optionRight,60,3235,2,13,0,13,0,1,,,,,,,,,,,,,,,,,,,,,,,,,,,,,,,,,,,,,,,
,,,,,,,,2023-08-06_08h46.06.781,HF_wild_card,2022.2.4,Win32,64.65795939,5fa5d1ec86ac6817fddaff05,64ce5acb97489d65b14ecc7a,64cf46a626a4b01c44514c0b,,,,,,,decisionTrl,resources/DR.BMP,resources/DB.BMP,Door3,-0.357407393,0.025000007,1,0,0,1.2137,optionLeft,70,3305,2,14,0,14,0,1,,,,,,,,,,,,,,,,,,,,,,,,,,,,,,,,,,,,,,,
,,,,,,,,2023-08-06_08h46.06.781,HF_wild_card,2022.2.4,Win32,64.65795939,5fa5d1ec86ac6817fddaff05,64ce5acb97489d65b14ecc7a,64cf46a626a4b01c44514c0b,,,,,,,sngl,resources/Empty.png,resources/DG.BMP,Door2,0.249074088,0.013888889,1,0,0,0.9291,optionRight,40,3345,2,15,0,15,0,1,,,,,,,,,,,,,,,,,,,,,,,,,,,,,,,,,,,,,,,
,,,,,,,,2023-08-06_08h46.06.781,HF_wild_card,2022.2.4,Win32,64.65795939,5fa5d1ec86ac6817fddaff05,64ce5acb97489d65b14ecc7a,64cf46a626a4b01c44514c0b,,,,,,,decisionTrl,resources/DR.BMP,resources/DB.BMP,Door3,-0.337962963,-0.043518526,1,0,0,1.5798,optionLeft,70,3415,2,16,0,16,0,1,,,,,,,,,,,,,,,,,,,,,,,,,,,,,,,,,,,,,,,
,,,,,,,,2023-08-06_08h46.06.781,HF_wild_card,2022.2.4,Win32,64.65795939,5fa5d1ec86ac6817fddaff05,64ce5acb97489d65b14ecc7a,64cf46a626a4b01c44514c0b,,,,,,,decisionTrl,resources/DB.BMP,resources/DR.BMP,Door3,0.449074074,0.094444452,1,0,0,2.0385,optionRight,70,3485,2,17,0,17,0,1,,,,,,,,,,,,,,,,,,,,,,,,,,,,,,,,,,,,,,,
,,,,,,,,2023-08-06_08h46.06.781,HF_wild_card,2022.2.4,Win32,64.65795939,5fa5d1ec86ac6817fddaff05,64ce5acb97489d65b14ecc7a,64cf46a626a4b01c44514c0b,,,,,,,decisionTrl,resources/DP.BMP,resources/DY.BMP,WildCard_Ex,-0.541666667,-0.005555577,1,0,0,7.3913,optionLeft,5,3490,2,18,0,18,0,1,,,,,,,,,,,,,,,,,,,,,,,,,,,,,,,,,,,,,,,
,,,,,,,,2023-08-06_08h46.06.781,HF_wild_card,2022.2.4,Win32,64.65795939,5fa5d1ec86ac6817fddaff05,64ce5acb97489d65b14ecc7a,64cf46a626a4b01c44514c0b,,,,,,,decisionTrl,resources/DP.BMP,resources/DR.BMP,Door3,0.431481538,0.002777771,1,0,0,1.1166,optionRight,70,3560,2,19,0,19,0,1,,,,,,,,,,,,,,,,,,,,,,,,,,,,,,,,,,,,,,,
,,,,,,,,2023-08-06_08h46.06.781,HF_wild_card,2022.2.4,Win32,64.65795939,5fa5d1ec86ac6817fddaff05,64ce5acb97489d65b14ecc7a,64cf46a626a4b01c44514c0b,,,,,,,ctch,resources/DR.BMP,resources/DG.BMP,Door3,-0.240740741,-0.00462963,1,0,0,1.3125,optionLeft,70,3630,2,20,0,20,0,1,,,,,,,,,,,,,,,,,,,,,,,,,,,,,,,,,,,,,,,
,,,,,,,,2023-08-06_08h46.06.781,HF_wild_card,2022.2.4,Win32,64.65795939,5fa5d1ec86ac6817fddaff05,64ce5acb97489d65b14ecc7a,64cf46a626a4b01c44514c0b,,,,,,,ctch,resources/DY.BMP,resources/DB.BMP,Door4,0.257407436,0.003703683,1,0,0,1.4129,optionRight,80,3710,2,21,0,21,0,1,,,,,,,,,,,,,,,,,,,,,,,,,,,,,,,,,,,,,,,
,,,,,,,,2023-08-06_08h46.06.781,HF_wild_card,2022.2.4,Win32,64.65795939,5fa5d1ec86ac6817fddaff05,64ce5acb97489d65b14ecc7a,64cf46a626a4b01c44514c0b,,,,,,,sngl,resources/Empty.png,resources/DR.BMP,Door3,0.438888974,0.032407407,1,0,0,0.8613,optionRight,70,3780,2,22,0,22,0,1,,,,,,,,,,,,,,,,,,,,,,,,,,,,,,,,,,,,,,,
,,,,,,,,2023-08-06_08h46.06.781,HF_wild_card,2022.2.4,Win32,64.65795939,5fa5d1ec86ac6817fddaff05,64ce5acb97489d65b14ecc7a,64cf46a626a4b01c44514c0b,,,,,,,decisionTrl,resources/DB.BMP,resources/DP.BMP,Door4,-0.315740727,0.038888896,1,0,0,1.1461,optionLeft,80,3860,2,23,0,23,0,1,,,,,,,,,,,,,,,,,,,,,,,,,,,,,,,,,,,,,,,
,,,,,,,,2023-08-06_08h46.06.781,HF_wild_card,2022.2.4,Win32,64.65795939,5fa5d1ec86ac6817fddaff05,64ce5acb97489d65b14ecc7a,64cf46a626a4b01c44514c0b,,,,,,,sngl,resources/Empty.png,resources/DP.BMP,WildCard_Ex,0.358333305,-0.023148148,1,0,0,0.9409,optionRight,95,3955,2,24,0,24,0,1,,,,,,,,,,,,,,,,,,,,,,,,,,,,,,,,,,,,,,,
,,,,,,,,2023-08-06_08h46.06.781,HF_wild_card,2022.2.4,Win32,64.65795939,5fa5d1ec86ac6817fddaff05,64ce5acb97489d65b14ecc7a,64cf46a626a4b01c44514c0b,,,,,,,ctch,resources/DG.BMP,resources/DR.BMP,Door3,0.309259344,0.021296289,1,0,0,1.1797,optionRight,70,4025,2,25,0,25,0,1,,,,,,,,,,,,,,,,,,,,,,,,,,,,,,,,,,,,,,,
,,,,,,,,2023-08-06_08h46.06.781,HF_wild_card,2022.2.4,Win32,64.65795939,5fa5d1ec86ac6817fddaff05,64ce5acb97489d65b14ecc7a,64cf46a626a4b01c44514c0b,,,,,,,decisionTrl,resources/DY.BMP,resources/DG.BMP,Door1,-0.326851845,0.010185171,1,0,0,2.4969,optionLeft,30,4055,2,26,0,26,0,1,,,,,,,,,,,,,,,,,,,,,,,,,,,,,,,,,,,,,,,
,,,,,,,,2023-08-06_08h46.06.781,HF_wild_card,2022.2.4,Win32,64.65795939,5fa5d1ec86ac6817fddaff05,64ce5acb97489d65b14ecc7a,64cf46a626a4b01c44514c0b,,,,,,,decisionTrl,resources/DY.BMP,resources/DG.BMP,Door2,0.316666638,0.042592578,1,0,0,1.506,optionRight,20,4075,2,27,0,27,0,1,,,,,,,,,,,,,,,,,,,,,,,,,,,,,,,,,,,,,,,
,,,,,,,,2023-08-06_08h46.06.781,HF_wild_card,2022.2.4,Win32,64.65795939,5fa5d1ec86ac6817fddaff05,64ce5acb97489d65b14ecc7a,64cf46a626a4b01c44514c0b,,,,,,,decisionTrl,resources/DG.BMP,resources/DY.BMP,Door2,-0.437037044,0.022222201,1,0,0,1.58,optionLeft,20,4095,2,28,0,28,0,1,,,,,,,,,,,,,,,,,,,,,,,,,,,,,,,,,,,,,,,
,,,,,,,,2023-08-06_08h46.06.781,HF_wild_card,2022.2.4,Win32,64.65795939,5fa5d1ec86ac6817fddaff05,64ce5acb97489d65b14ecc7a,64cf46a626a4b01c44514c0b,,,,,,,ctch,resources/DG.BMP,resources/DR.BMP,Door3,0.30277775,0.002777771,1,0,0,1.0114,optionRight,70,4165,2,29,0,29,0,1,,,,,,,,,,,,,,,,,,,,,,,,,,,,,,,,,,,,,,,
,,,,,,,,2023-08-06_08h46.06.781,HF_wild_card,2022.2.4,Win32,64.65795939,5fa5d1ec86ac6817fddaff05,64ce5acb97489d65b14ecc7a,64cf46a626a4b01c44514c0b,,,,,,,sngl,resources/Empty.png,resources/DB.BMP,Door4,0.338888945,-0.014814836,1,0,0,0.8456,optionRight,80,4245,2,30,0,30,0,1,,,,,,,,,,,,,,,,,,,,,,,,,,,,,,,,,,,,,,,
,,,,,,,,2023-08-06_08h46.06.781,HF_wild_card,2022.2.4,Win32,64.65795939,5fa5d1ec86ac6817fddaff05,64ce5acb97489d65b14ecc7a,64cf46a626a4b01c44514c0b,,,,,,,decisionTrl,resources/DP.BMP,resources/DG.BMP,WildCard_Ex,-0.414814808,0.032407407,1,0,0,2.1451,optionLeft,95,4340,2,31,0,31,0,1,,,,,,,,,,,,,,,,,,,,,,,,,,,,,,,,,,,,,,,
,,,,,,,,2023-08-06_08h46.06.781,HF_wild_card,2022.2.4,Win32,64.65795939,5fa5d1ec86ac6817fddaff05,64ce5acb97489d65b14ecc7a,64cf46a626a4b01c44514c0b,,,,,,,decisionTrl,resources/DG.BMP,resources/DY.BMP,Door1,0.325000057,0.005555541,1,0,0,1.8295,optionRight,30,4370,2,32,0,32,0,1,,,,,,,,,,,,,,,,,,,,,,,,,,,,,,,,,,,,,,,
,,,,,,,,2023-08-06_08h46.06.781,HF_wild_card,2022.2.4,Win32,64.65795939,5fa5d1ec86ac6817fddaff05,64ce5acb97489d65b14ecc7a,64cf46a626a4b01c44514c0b,,,,,,,decisionTrl,resources/DB.BMP,resources/DR.BMP,Door3,0.454629686,0.056481467,1,0,0,1.1631,optionRight,70,4440,2,33,0,33,0,1,,,,,,,,,,,,,,,,,,,,,,,,,,,,,,,,,,,,,,,
,,,,,,,,2023-08-06_08h46.06.781,HF_wild_card,2022.2.4,Win32,64.65795939,5fa5d1ec86ac6817fddaff05,64ce5acb97489d65b14ecc7a,64cf46a626a4b01c44514c0b,,,,,,,decisionTrl,resources/DG.BMP,resources/DY.BMP,Door1,0.375,0.008333312,1,0,0,1.7628,optionRight,30,4470,2,34,0,34,0,1,,,,,,,,,,,,,,,,,,,,,,,,,,,,,,,,,,,,,,,
,,,,,,,,2023-08-06_08h46.06.781,HF_wild_card,2022.2.4,Win32,64.65795939,5fa5d1ec86ac6817fddaff05,64ce5acb97489d65b14ecc7a,64cf46a626a4b01c44514c0b,,,,,,,decisionTrl,resources/DG.BMP,resources/DP.BMP,WildCard_Ex,0.636111083,0.066666674,1,0,0,2.5803,optionRight,95,4565,2,35,0,35,0,1,,,,,,,,,,,,,,,,,,,,,,,,,,,,,,,,,,,,,,,
,,,,,,,,2023-08-06_08h46.06.781,HF_wild_card,2022.2.4,Win32,64.65795939,5fa5d1ec86ac6817fddaff05,64ce5acb97489d65b14ecc7a,64cf46a626a4b01c44514c0b,,,,,,,ctch,resources/DR.BMP,resources/DG.BMP,Door3,-0.234259217,0.049999979,1,0,0,1.1284,optionLeft,70,4635,2,36,0,36,0,1,,,,,,,,,,,,,,,,,,,,,,,,,,,,,,,,,,,,,,,
,,,,,,,,2023-08-06_08h46.06.781,HF_wild_card,2022.2.4,Win32,64.65795939,5fa5d1ec86ac6817fddaff05,64ce5acb97489d65b14ecc7a,64cf46a626a4b01c44514c0b,,,,,,,decisionTrl,resources/DR.BMP,resources/DB.BMP,Door3,-0.270370342,0.039814808,1,0,0,1.0964,optionLeft,70,4705,2,37,0,37,0,1,,,,,,,,,,,,,,,,,,,,,,,,,,,,,,,,,,,,,,,
,,,,,,,,2023-08-06_08h46.06.781,HF_wild_card,2022.2.4,Win32,64.65795939,5fa5d1ec86ac6817fddaff05,64ce5acb97489d65b14ecc7a,64cf46a626a4b01c44514c0b,,,,,,,decisionTrl,resources/DY.BMP,resources/DP.BMP,WildCard_Ex,0.325925898,0.011111118,1,0,0,1.8621,optionRight,95,4800,2,38,0,38,0,1,,,,,,,,,,,,,,,,,,,,,,,,,,,,,,,,,,,,,,,
,,,,,,,,2023-08-06_08h46.06.781,HF_wild_card,2022.2.4,Win32,64.65795939,5fa5d1ec86ac6817fddaff05,64ce5acb97489d65b14ecc7a,64cf46a626a4b01c44514c0b,,,,,,,decisionTrl,resources/DB.BMP,resources/DR.BMP,Door3,0.250925912,0.01666666,1,0,0,1.0465,optionRight,70,4870,2,39,0,39,0,1,,,,,,,,,,,,,,,,,,,,,,,,,,,,,,,,,,,,,,,
,,,,,,,,2023-08-06_08h46.06.781,HF_wild_card,2022.2.4,Win32,64.65795939,5fa5d1ec86ac6817fddaff05,64ce5acb97489d65b14ecc7a,64cf46a626a4b01c44514c0b,,,,,,,decisionTrl,resources/DY.BMP,resources/DG.BMP,Door2,0.328703704,0.049074067,1,0,0,2.3721,optionRight,40,4910,2,40,0,40,0,1,,,,,,,,,,,,,,,,,,,,,,,,,,,,,,,,,,,,,,,
,,,,,,,,2023-08-06_08h46.06.781,HF_wild_card,2022.2.4,Win32,64.65795939,5fa5d1ec86ac6817fddaff05,64ce5acb97489d65b14ecc7a,64cf46a626a4b01c44514c0b,,,,,,,decisionTrl,resources/DG.BMP,resources/DY.BMP,Door1,0.310185185,0.043518526,1,0,0,2.2391,optionRight,30,4940,2,41,0,41,0,1,,,,,,,,,,,,,,,,,,,,,,,,,,,,,,,,,,,,,,,
,,,,,,,,2023-08-06_08h46.06.781,HF_wild_card,2022.2.4,Win32,64.65795939,5fa5d1ec86ac6817fddaff05,64ce5acb97489d65b14ecc7a,64cf46a626a4b01c44514c0b,,,,,,,sngl,resources/Empty.png,resources/DP.BMP,WildCard_Ex,0.300925926,0.050925926,1,0,0,0.9128,optionRight,5,4945,2,42,0,42,0,1,,,,,,,,,,,,,,,,,,,,,,,,,,,,,,,,,,,,,,,
,,,,,,,,2023-08-06_08h46.06.781,HF_wild_card,2022.2.4,Win32,64.65795939,5fa5d1ec86ac6817fddaff05,64ce5acb97489d65b14ecc7a,64cf46a626a4b01c44514c0b,,,,,,,decisionTrl,resources/DB.BMP,resources/DR.BMP,Door3,0.200925968,0.025000007,1,0,0,1.1712,optionRight,70,5015,2,43,0,43,0,1,,,,,,,,,,,,,,,,,,,,,,,,,,,,,,,,,,,,,,,
,,,,,,,,2023-08-06_08h46.06.781,HF_wild_card,2022.2.4,Win32,64.65795939,5fa5d1ec86ac6817fddaff05,64ce5acb97489d65b14ecc7a,64cf46a626a4b01c44514c0b,,,,,,,,,,,,,,,,,,,,,,,,,,1,0,1,0,1,,,,,,,,,,,,,,,,,,,,,,,,,,,,,,,,,,
,,,,,,,,2023-08-06_08h46.06.781,HF_wild_card,2022.2.4,Win32,64.65795939,5fa5d1ec86ac6817fddaff05,64ce5acb97489d65b14ecc7a,64cf46a626a4b01c44514c0b,,,,,,,sngl,resources/DY.BMP,resources/Empty.png,Door1,-0.176851838,-0.019444466,1,0,0,1.7266,optionLeft,30,5045,3,0,0,0,0,1,,,,,,,,,,,,,,,,,,,,,,,,,,,,,,,,,,,,,,,
,,,,,,,,2023-08-06_08h46.06.781,HF_wild_card,2022.2.4,Win32,64.65795939,5fa5d1ec86ac6817fddaff05,64ce5acb97489d65b14ecc7a,64cf46a626a4b01c44514c0b,,,,,,,ctch,resources/DB.BMP,resources/DY.BMP,Door4,-0.341666645,-0.013888889,1,0,0,0.9783,optionLeft,60,5105,3,1,0,1,0,1,,,,,,,,,,,,,,,,,,,,,,,,,,,,,,,,,,,,,,,
,,,,,,,,2023-08-06_08h46.06.781,HF_wild_card,2022.2.4,Win32,64.65795939,5fa5d1ec86ac6817fddaff05,64ce5acb97489d65b14ecc7a,64cf46a626a4b01c44514c0b,,,,,,,decisionTrl,resources/DG.BMP,resources/DP.BMP,WildCard_Ex,0.430555556,-0.008333347,1,0,0,1.4305,optionRight,5,5110,3,2,0,2,0,1,,,,,,,,,,,,,,,,,,,,,,,,,,,,,,,,,,,,,,,
,,,,,,,,2023-08-06_08h46.06.781,HF_wild_card,2022.2.4,Win32,64.65795939,5fa5d1ec86ac6817fddaff05,64ce5acb97489d65b14ecc7a,64cf46a626a4b01c44514c0b,,,,,,,decisionTrl,resources/DP.BMP,resources/DY.BMP,WildCard_Ex,-0.369444423,-0.003703718,1,0,0,0.9121,optionLeft,5,5115,3,3,0,3,0,1,,,,,,,,,,,,,,,,,,,,,,,,,,,,,,,,,,,,,,,
,,,,,,,,2023-08-06_08h46.06.781,HF_wild_card,2022.2.4,Win32,64.65795939,5fa5d1ec86ac6817fddaff05,64ce5acb97489d65b14ecc7a,64cf46a626a4b01c44514c0b,,,,,,,decisionTrl,resources/DP.BMP,resources/DB.BMP,Door4,0.399074131,0.006481489,1,0,0,1.1305,optionRight,60,5175,3,4,0,4,0,1,,,,,,,,,,,,,,,,,,,,,,,,,,,,,,,,,,,,,,,
,,,,,,,,2023-08-06_08h46.06.781,HF_wild_card,2022.2.4,Win32,64.65795939,5fa5d1ec86ac6817fddaff05,64ce5acb97489d65b14ecc7a,64cf46a626a4b01c44514c0b,,,,,,,sngl,resources/Empty.png,resources/DR.BMP,Door3,0.253703718,-0.002777771,1,0,0,0.8381,optionRight,70,5245,3,5,0,5,0,1,,,,,,,,,,,,,,,,,,,,,,,,,,,,,,,,,,,,,,,
,,,,,,,,2023-08-06_08h46.06.781,HF_wild_card,2022.2.4,Win32,64.65795939,5fa5d1ec86ac6817fddaff05,64ce5acb97489d65b14ecc7a,64cf46a626a4b01c44514c0b,,,,,,,decisionTrl,resources/DY.BMP,resources/DG.BMP,Door1,-0.287962949,0.006481489,1,0,0,3.0117,optionLeft,30,5275,3,6,0,6,0,1,,,,,,,,,,,,,,,,,,,,,,,,,,,,,,,,,,,,,,,
,,,,,,,,2023-08-06_08h46.06.781,HF_wild_card,2022.2.4,Win32,64.65795939,5fa5d1ec86ac6817fddaff05,64ce5acb97489d65b14ecc7a,64cf46a626a4b01c44514c0b,,,,,,,decisionTrl,resources/DG.BMP,resources/DY.BMP,Door2,-0.407407407,-0.0074074,1,0,0,0.981,optionLeft,40,5315,3,7,0,7,0,1,,,,,,,,,,,,,,,,,,,,,,,,,,,,,,,,,,,,,,,
,,,,,,,,2023-08-06_08h46.06.781,HF_wild_card,2022.2.4,Win32,64.65795939,5fa5d1ec86ac6817fddaff05,64ce5acb97489d65b14ecc7a,64cf46a626a4b01c44514c0b,,,,,,,sngl,resources/Empty.png,resources/DP.BMP,WildCard_Ex,0.258333347,-0.034259266,1,0,0,1.071,optionRight,95,5410,3,8,0,8,0,1,,,,,,,,,,,,,,,,,,,,,,,,,,,,,,,,,,,,,,,
,,,,,,,,2023-08-06_08h46.06.781,HF_wild_card,2022.2.4,Win32,64.65795939,5fa5d1ec86ac6817fddaff05,64ce5acb97489d65b14ecc7a,64cf46a626a4b01c44514c0b,,,,,,,decisionTrl,resources/DY.BMP,resources/DG.BMP,Door1,-0.248148106,0.052777785,1,0,0,1.9389,optionLeft,30,5440,3,9,0,9,0,1,,,,,,,,,,,,,,,,,,,,,,,,,,,,,,,,,,,,,,,
,,,,,,,,2023-08-06_08h46.06.781,HF_wild_card,2022.2.4,Win32,64.65795939,5fa5d1ec86ac6817fddaff05,64ce5acb97489d65b14ecc7a,64cf46a626a4b01c44514c0b,,,,,,,decisionTrl,resources/DB.BMP,resources/DR.BMP,Door3,0.357407464,-0.020370377,1,0,0,0.9628,optionRight,70,5510,3,10,0,10,0,1,,,,,,,,,,,,,,,,,,,,,,,,,,,,,,,,,,,,,,,
,,,,,,,,2023-08-06_08h46.06.781,HF_wild_card,2022.2.4,Win32,64.65795939,5fa5d1ec86ac6817fddaff05,64ce5acb97489d65b14ecc7a,64cf46a626a4b01c44514c0b,,,,,,,sngl,resources/Empty.png,resources/DP.BMP,WildCard_Ex,0.445370427,-0.027777778,1,0,0,1.0454,optionRight,5,5515,3,11,0,11,0,1,,,,,,,,,,,,,,,,,,,,,,,,,,,,,,,,,,,,,,,
,,,,,,,,2023-08-06_08h46.06.781,HF_wild_card,2022.2.4,Win32,64.65795939,5fa5d1ec86ac6817fddaff05,64ce5acb97489d65b14ecc7a,64cf46a626a4b01c44514c0b,,,,,,,decisionTrl,resources/DR.BMP,resources/DP.BMP,Door3,-0.298148155,0.009259259,1,0,0,1.1796,optionLeft,70,5585,3,12,0,12,0,1,,,,,,,,,,,,,,,,,,,,,,,,,,,,,,,,,,,,,,,
,,,,,,,,2023-08-06_08h46.06.781,HF_wild_card,2022.2.4,Win32,64.65795939,5fa5d1ec86ac6817fddaff05,64ce5acb97489d65b14ecc7a,64cf46a626a4b01c44514c0b,,,,,,,sngl,resources/DG.BMP,resources/Empty.png,Door2,-0.314814815,0.012962942,1,0,0,0.8715,optionLeft,40,5625,3,13,0,13,0,1,,,,,,,,,,,,,,,,,,,,,,,,,,,,,,,,,,,,,,,
,,,,,,,,2023-08-06_08h46.06.781,HF_wild_card,2022.2.4,Win32,64.65795939,5fa5d1ec86ac6817fddaff05,64ce5acb97489d65b14ecc7a,64cf46a626a4b01c44514c0b,,,,,,,decisionTrl,resources/DR.BMP,resources/DB.BMP,Door3,-0.332407386,0.020370377,1,0,0,1.0183,optionLeft,70,5695,3,14,0,14,0,1,,,,,,,,,,,,,,,,,,,,,,,,,,,,,,,,,,,,,,,
,,,,,,,,2023-08-06_08h46.06.781,HF_wild_card,2022.2.4,Win32,64.65795939,5fa5d1ec86ac6817fddaff05,64ce5acb97489d65b14ecc7a,64cf46a626a4b01c44514c0b,,,,,,,decisionTrl,resources/DY.BMP,resources/DG.BMP,Door1,-0.226851852,0,1,0,0,1.6129,optionLeft,30,5725,3,15,0,15,0,1,,,,,,,,,,,,,,,,,,,,,,,,,,,,,,,,,,,,,,,
,,,,,,,,2023-08-06_08h46.06.781,HF_wild_card,2022.2.4,Win32,64.65795939,5fa5d1ec86ac6817fddaff05,64ce5acb97489d65b14ecc7a,64cf46a626a4b01c44514c0b,,,,,,,sngl,resources/Empty.png,resources/DB.BMP,Door4,0.410185213,-0.034259266,1,0,0,0.9384,optionRight,60,5785,3,16,0,16,0,1,,,,,,,,,,,,,,,,,,,,,,,,,,,,,,,,,,,,,,,
,,,,,,,,2023-08-06_08h46.06.781,HF_wild_card,2022.2.4,Win32,64.65795939,5fa5d1ec86ac6817fddaff05,64ce5acb97489d65b14ecc7a,64cf46a626a4b01c44514c0b,,,,,,,ctch,resources/DR.BMP,resources/DG.BMP,Door3,-0.348148134,0.046296296,1,0,0,1.5737,optionLeft,70,5855,3,17,0,17,0,1,,,,,,,,,,,,,,,,,,,,,,,,,,,,,,,,,,,,,,,
,,,,,,,,2023-08-06_08h46.06.781,HF_wild_card,2022.2.4,Win32,64.65795939,5fa5d1ec86ac6817fddaff05,64ce5acb97489d65b14ecc7a,64cf46a626a4b01c44514c0b,,,,,,,ctch,resources/DG.BMP,resources/DR.BMP,Door3,0.354629658,0.020370377,1,0,0,1.1309,optionRight,70,5925,3,18,0,18,0,1,,,,,,,,,,,,,,,,,,,,,,,,,,,,,,,,,,,,,,,
,,,,,,,,2023-08-06_08h46.06.781,HF_wild_card,2022.2.4,Win32,64.65795939,5fa5d1ec86ac6817fddaff05,64ce5acb97489d65b14ecc7a,64cf46a626a4b01c44514c0b,,,,,,,decisionTrl,resources/DB.BMP,resources/DP.BMP,Door4,-0.344444452,-0.005555577,1,0,0,1.1536,optionLeft,80,6005,3,19,0,19,0,1,,,,,,,,,,,,,,,,,,,,,,,,,,,,,,,,,,,,,,,
,,,,,,,,2023-08-06_08h46.06.781,HF_wild_card,2022.2.4,Win32,64.65795939,5fa5d1ec86ac6817fddaff05,64ce5acb97489d65b14ecc7a,64cf46a626a4b01c44514c0b,,,,,,,sngl,resources/DR.BMP,resources/Empty.png,Door3,-0.290740755,0.058333326,1,0,0,0.8459,optionLeft,70,6075,3,20,0,20,0,1,,,,,,,,,,,,,,,,,,,,,,,,,,,,,,,,,,,,,,,
,,,,,,,,2023-08-06_08h46.06.781,HF_wild_card,2022.2.4,Win32,64.65795939,5fa5d1ec86ac6817fddaff05,64ce5acb97489d65b14ecc7a,64cf46a626a4b01c44514c0b,,,,,,,sngl,resources/DP.BMP,resources/Empty.png,WildCard_Ex,-0.179629644,0.01203703,1,0,0,0.863,optionLeft,5,6080,3,21,0,21,0,1,,,,,,,,,,,,,,,,,,,,,,,,,,,,,,,,,,,,,,,
,,,,,,,,2023-08-06_08h46.06.781,HF_wild_card,2022.2.4,Win32,64.65795939,5fa5d1ec86ac6817fddaff05,64ce5acb97489d65b14ecc7a,64cf46a626a4b01c44514c0b,,,,,,,decisionTrl,resources/DY.BMP,resources/DP.BMP,WildCard_Ex,0.372222194,-0.003703718,1,0,0,0.8109,optionRight,5,6085,3,22,0,22,0,1,,,,,,,,,,,,,,,,,,,,,,,,,,,,,,,,,,,,,,,
,,,,,,,,2023-08-06_08h46.06.781,HF_wild_card,2022.2.4,Win32,64.65795939,5fa5d1ec86ac6817fddaff05,64ce5acb97489d65b14ecc7a,64cf46a626a4b01c44514c0b,,,,,,,sngl,resources/DB.BMP,resources/Empty.png,Door4,-0.29351849,0.011111118,1,0,0,0.8281,optionLeft,80,6165,3,23,0,23,0,1,,,,,,,,,,,,,,,,,,,,,,,,,,,,,,,,,,,,,,,
,,,,,,,,2023-08-06_08h46.06.781,HF_wild_card,2022.2.4,Win32,64.65795939,5fa5d1ec86ac6817fddaff05,64ce5acb97489d65b14ecc7a,64cf46a626a4b01c44514c0b,,,,,,,ctch,resources/DG.BMP,resources/DR.BMP,Door3,0.349074046,0.011111118,1,0,0,0.9972,optionRight,70,6235,3,24,0,24,0,1,,,,,,,,,,,,,,,,,,,,,,,,,,,,,,,,,,,,,,,
,,,,,,,,2023-08-06_08h46.06.781,HF_wild_card,2022.2.4,Win32,64.65795939,5fa5d1ec86ac6817fddaff05,64ce5acb97489d65b14ecc7a,64cf46a626a4b01c44514c0b,,,,,,,sngl,resources/DP.BMP,resources/Empty.png,WildCard_Ex,-0.215740698,0.012962942,1,0,0,0.8291,optionLeft,95,6330,3,25,0,25,0,1,,,,,,,,,,,,,,,,,,,,,,,,,,,,,,,,,,,,,,,
,,,,,,,,2023-08-06_08h46.06.781,HF_wild_card,2022.2.4,Win32,64.65795939,5fa5d1ec86ac6817fddaff05,64ce5acb97489d65b14ecc7a,64cf46a626a4b01c44514c0b,,,,,,,ctch,resources/DY.BMP,resources/DB.BMP,Door4,0.350926011,-0.027777778,1,0,0,1.1819,optionRight,60,6390,3,26,0,26,0,1,,,,,,,,,,,,,,,,,,,,,,,,,,,,,,,,,,,,,,,
,,,,,,,,2023-08-06_08h46.06.781,HF_wild_card,2022.2.4,Win32,64.65795939,5fa5d1ec86ac6817fddaff05,64ce5acb97489d65b14ecc7a,64cf46a626a4b01c44514c0b,,,,,,,decisionTrl,resources/DP.BMP,resources/DR.BMP,Door3,0.42314812,0.041666667,1,0,0,1.3876,optionRight,70,6460,3,27,0,27,0,1,,,,,,,,,,,,,,,,,,,,,,,,,,,,,,,,,,,,,,,
,,,,,,,,2023-08-06_08h46.06.781,HF_wild_card,2022.2.4,Win32,64.65795939,5fa5d1ec86ac6817fddaff05,64ce5acb97489d65b14ecc7a,64cf46a626a4b01c44514c0b,,,,,,,decisionTrl,resources/DB.BMP,resources/DR.BMP,Door3,0.246296282,0.01666666,1,0,0,1.1049,optionRight,70,6530,3,28,0,28,0,1,,,,,,,,,,,,,,,,,,,,,,,,,,,,,,,,,,,,,,,
,,,,,,,,2023-08-06_08h46.06.781,HF_wild_card,2022.2.4,Win32,64.65795939,5fa5d1ec86ac6817fddaff05,64ce5acb97489d65b14ecc7a,64cf46a626a4b01c44514c0b,,,,,,,decisionTrl,resources/DB.BMP,resources/DR.BMP,Door3,0.327777863,-0.003703718,1,0,0,1.5132,optionRight,70,6600,3,29,0,29,0,1,,,,,,,,,,,,,,,,,,,,,,,,,,,,,,,,,,,,,,,
,,,,,,,,2023-08-06_08h46.06.781,HF_wild_card,2022.2.4,Win32,64.65795939,5fa5d1ec86ac6817fddaff05,64ce5acb97489d65b14ecc7a,64cf46a626a4b01c44514c0b,,,,,,,sngl,resources/Empty.png,resources/DG.BMP,Door2,0.27870369,-0.011111118,1,0,0,1.3451,optionRight,20,6620,3,30,0,30,0,1,,,,,,,,,,,,,,,,,,,,,,,,,,,,,,,,,,,,,,,
,,,,,,,,2023-08-06_08h46.06.781,HF_wild_card,2022.2.4,Win32,64.65795939,5fa5d1ec86ac6817fddaff05,64ce5acb97489d65b14ecc7a,64cf46a626a4b01c44514c0b,,,,,,,decisionTrl,resources/DR.BMP,resources/DB.BMP,Door3,-0.420370349,0.043518526,1,0,0,1.3384,optionLeft,70,6690,3,31,0,31,0,1,,,,,,,,,,,,,,,,,,,,,,,,,,,,,,,,,,,,,,,
,,,,,,,,2023-08-06_08h46.06.781,HF_wild_card,2022.2.4,Win32,64.65795939,5fa5d1ec86ac6817fddaff05,64ce5acb97489d65b14ecc7a,64cf46a626a4b01c44514c0b,,,,,,,decisionTrl,resources/DG.BMP,resources/DY.BMP,Door1,0.321296268,0.023148148,1,0,0,1.906,optionRight,30,6720,3,32,0,32,0,1,,,,,,,,,,,,,,,,,,,,,,,,,,,,,,,,,,,,,,,
,,,,,,,,2023-08-06_08h46.06.781,HF_wild_card,2022.2.4,Win32,64.65795939,5fa5d1ec86ac6817fddaff05,64ce5acb97489d65b14ecc7a,64cf46a626a4b01c44514c0b,,,,,,,decisionTrl,resources/DP.BMP,resources/DG.BMP,Door2,0.340740769,0.044444437,1,0,0,2.5419,optionRight,20,6740,3,33,0,33,0,1,,,,,,,,,,,,,,,,,,,,,,,,,,,,,,,,,,,,,,,
,,,,,,,,2023-08-06_08h46.06.781,HF_wild_card,2022.2.4,Win32,64.65795939,5fa5d1ec86ac6817fddaff05,64ce5acb97489d65b14ecc7a,64cf46a626a4b01c44514c0b,,,,,,,decisionTrl,resources/DY.BMP,resources/DG.BMP,Door1,-0.260185171,0.008333312,1,0,0,1.872,optionLeft,30,6770,3,34,0,34,0,1,,,,,,,,,,,,,,,,,,,,,,,,,,,,,,,,,,,,,,,
,,,,,,,,2023-08-06_08h46.06.781,HF_wild_card,2022.2.4,Win32,64.65795939,5fa5d1ec86ac6817fddaff05,64ce5acb97489d65b14ecc7a,64cf46a626a4b01c44514c0b,,,,,,,sngl,resources/Empty.png,resources/DY.BMP,Door1,0.24537037,0.02407406,1,0,0,0.9128,optionRight,30,6800,3,35,0,35,0,1,,,,,,,,,,,,,,,,,,,,,,,,,,,,,,,,,,,,,,,
,,,,,,,,2023-08-06_08h46.06.781,HF_wild_card,2022.2.4,Win32,64.65795939,5fa5d1ec86ac6817fddaff05,64ce5acb97489d65b14ecc7a,64cf46a626a4b01c44514c0b,,,,,,,decisionTrl,resources/DR.BMP,resources/DB.BMP,Door3,-0.247222194,0.047222208,1,0,0,0.9624,optionLeft,70,6870,3,36,0,36,0,1,,,,,,,,,,,,,,,,,,,,,,,,,,,,,,,,,,,,,,,
,,,,,,,,2023-08-06_08h46.06.781,HF_wild_card,2022.2.4,Win32,64.65795939,5fa5d1ec86ac6817fddaff05,64ce5acb97489d65b14ecc7a,64cf46a626a4b01c44514c0b,,,,,,,ctch,resources/DY.BMP,resources/DB.BMP,Door4,0.287037037,0.04074072,1,0,0,1.0963,optionRight,80,6950,3,37,0,37,0,1,,,,,,,,,,,,,,,,,,,,,,,,,,,,,,,,,,,,,,,
,,,,,,,,2023-08-06_08h46.06.781,HF_wild_card,2022.2.4,Win32,64.65795939,5fa5d1ec86ac6817fddaff05,64ce5acb97489d65b14ecc7a,64cf46a626a4b01c44514c0b,,,,,,,decisionTrl,resources/DG.BMP,resources/DY.BMP,Door1,0.291666667,0.02870369,1,0,0,2.3972,optionRight,30,6980,3,38,0,38,0,1,,,,,,,,,,,,,,,,,,,,,,,,,,,,,,,,,,,,,,,
,,,,,,,,2023-08-06_08h46.06.781,HF_wild_card,2022.2.4,Win32,64.65795939,5fa5d1ec86ac6817fddaff05,64ce5acb97489d65b14ecc7a,64cf46a626a4b01c44514c0b,,,,,,,decisionTrl,resources/DG.BMP,resources/DY.BMP,Door2,-0.421296296,-0.062962956,1,0,0,2.0469,optionLeft,20,7000,3,39,0,39,0,1,,,,,,,,,,,,,,,,,,,,,,,,,,,,,,,,,,,,,,,
,,,,,,,,2023-08-06_08h46.06.781,HF_wild_card,2022.2.4,Win32,64.65795939,5fa5d1ec86ac6817fddaff05,64ce5acb97489d65b14ecc7a,64cf46a626a4b01c44514c0b,,,,,,,ctch,resources/DR.BMP,resources/DG.BMP,Door3,-0.321296303,0.000925912,1,0,0,1.0443,optionLeft,70,7070,3,40,0,40,0,1,,,,,,,,,,,,,,,,,,,,,,,,,,,,,,,,,,,,,,,
,,,,,,,,2023-08-06_08h46.06.781,HF_wild_card,2022.2.4,Win32,64.65795939,5fa5d1ec86ac6817fddaff05,64ce5acb97489d65b14ecc7a,64cf46a626a4b01c44514c0b,,,,,,,decisionTrl,resources/DR.BMP,resources/DB.BMP,Door3,-0.419444437,0.053703697,1,0,0,1.1297,optionLeft,70,7140,3,41,0,41,0,1,,,,,,,,,,,,,,,,,,,,,,,,,,,,,,,,,,,,,,,
,,,,,,,,2023-08-06_08h46.06.781,HF_wild_card,2022.2.4,Win32,64.65795939,5fa5d1ec86ac6817fddaff05,64ce5acb97489d65b14ecc7a,64cf46a626a4b01c44514c0b,,,,,,,ctch,resources/DB.BMP,resources/DY.BMP,Door4,-0.268518519,0.054629608,1,0,0,0.976,optionLeft,60,7200,3,42,0,42,0,1,,,,,,,,,,,,,,,,,,,,,,,,,,,,,,,,,,,,,,,
,,,,,,,,2023-08-06_08h46.06.781,HF_wild_card,2022.2.4,Win32,64.65795939,5fa5d1ec86ac6817fddaff05,64ce5acb97489d65b14ecc7a,64cf46a626a4b01c44514c0b,,,,,,,decisionTrl,resources/DB.BMP,resources/DR.BMP,Door3,0.494444529,0.069444444,1,0,0,1.0463,optionRight,70,7270,3,43,0,43,0,1,,,,,,,,,,,,,,,,,,,,,,,,,,,,,,,,,,,,,,,
,,,,,,,,2023-08-06_08h46.06.781,HF_wild_card,2022.2.4,Win32,64.65795939,5fa5d1ec86ac6817fddaff05,64ce5acb97489d65b14ecc7a,64cf46a626a4b01c44514c0b,,,,,,,,,,,,,,,,,,,,,,,,,,2,0,2,0,1,,,,,,,,,,,,,,,,,,,,,,,,,,,,,,,,,,
,,,,,,,,2023-08-06_08h46.06.781,HF_wild_card,2022.2.4,Win32,64.65795939,5fa5d1ec86ac6817fddaff05,64ce5acb97489d65b14ecc7a,64cf46a626a4b01c44514c0b,,,,,,,decisionTrl,resources/DY.BMP,resources/DBN.BMP,WildCard_NonEx,0.329629686,-0.037962984,1,0,0,1.5395,optionRight,55,7325,4,0,0,0,0,1,,,,,,,,,,,,,,,,,,,,,,,,,,,,,,,,,,,,,,,
,,,,,,,,2023-08-06_08h46.06.781,HF_wild_card,2022.2.4,Win32,64.65795939,5fa5d1ec86ac6817fddaff05,64ce5acb97489d65b14ecc7a,64cf46a626a4b01c44514c0b,,,,,,,decisionTrl,resources/DR.BMP,resources/DB.BMP,Door3,-0.429629608,-0.013888889,1,0,0,1.0446,optionLeft,70,7395,4,1,0,1,0,1,,,,,,,,,,,,,,,,,,,,,,,,,,,,,,,,,,,,,,,
,,,,,,,,2023-08-06_08h46.06.781,HF_wild_card,2022.2.4,Win32,64.65795939,5fa5d1ec86ac6817fddaff05,64ce5acb97489d65b14ecc7a,64cf46a626a4b01c44514c0b,,,,,,,ctch,resources/DR.BMP,resources/DG.BMP,Door3,-0.339814822,-0.022222236,1,0,0,0.9128,optionLeft,70,7465,4,2,0,2,0,1,,,,,,,,,,,,,,,,,,,,,,,,,,,,,,,,,,,,,,,
,,,,,,,,2023-08-06_08h46.06.781,HF_wild_card,2022.2.4,Win32,64.65795939,5fa5d1ec86ac6817fddaff05,64ce5acb97489d65b14ecc7a,64cf46a626a4b01c44514c0b,,,,,,,decisionTrl,resources/DY.BMP,resources/DG.BMP,Door1,-0.298148155,0.073148127,1,0,0,1.7806,optionLeft,30,7495,4,3,0,3,0,1,,,,,,,,,,,,,,,,,,,,,,,,,,,,,,,,,,,,,,,
,,,,,,,,2023-08-06_08h46.06.781,HF_wild_card,2022.2.4,Win32,64.65795939,5fa5d1ec86ac6817fddaff05,64ce5acb97489d65b14ecc7a,64cf46a626a4b01c44514c0b,,,,,,,ctch,resources/DG.BMP,resources/DR.BMP,Door3,0.450000057,0.060185185,1,0,0,0.903,optionRight,70,7565,4,4,0,4,0,1,,,,,,,,,,,,,,,,,,,,,,,,,,,,,,,,,,,,,,,
,,,,,,,,2023-08-06_08h46.06.781,HF_wild_card,2022.2.4,Win32,64.65795939,5fa5d1ec86ac6817fddaff05,64ce5acb97489d65b14ecc7a,64cf46a626a4b01c44514c0b,,,,,,,decisionTrl,resources/DBN.BMP,resources/DB.BMP,WildCard_NonEx,-0.282407407,0.062037044,1,0,0,1.2723,optionLeft,45,7610,4,5,0,5,0,1,,,,,,,,,,,,,,,,,,,,,,,,,,,,,,,,,,,,,,,
,,,,,,,,2023-08-06_08h46.06.781,HF_wild_card,2022.2.4,Win32,64.65795939,5fa5d1ec86ac6817fddaff05,64ce5acb97489d65b14ecc7a,64cf46a626a4b01c44514c0b,,,,,,,sngl,resources/DB.BMP,resources/Empty.png,Door4,-0.426851838,-0.037037037,1,0,0,0.863,optionLeft,60,7670,4,6,0,6,0,1,,,,,,,,,,,,,,,,,,,,,,,,,,,,,,,,,,,,,,,
,,,,,,,,2023-08-06_08h46.06.781,HF_wild_card,2022.2.4,Win32,64.65795939,5fa5d1ec86ac6817fddaff05,64ce5acb97489d65b14ecc7a,64cf46a626a4b01c44514c0b,,,,,,,decisionTrl,resources/DR.BMP,resources/DB.BMP,Door3,-0.435185185,0,1,0,0,0.93,optionLeft,70,7740,4,7,0,7,0,1,,,,,,,,,,,,,,,,,,,,,,,,,,,,,,,,,,,,,,,
,,,,,,,,2023-08-06_08h46.06.781,HF_wild_card,2022.2.4,Win32,64.65795939,5fa5d1ec86ac6817fddaff05,64ce5acb97489d65b14ecc7a,64cf46a626a4b01c44514c0b,,,,,,,decisionTrl,resources/DBN.BMP,resources/DG.BMP,WildCard_NonEx,-0.39444443,0.037962949,1,0,0,1.3235,optionLeft,45,7785,4,8,0,8,0,1,,,,,,,,,,,,,,,,,,,,,,,,,,,,,,,,,,,,,,,
,,,,,,,,2023-08-06_08h46.06.781,HF_wild_card,2022.2.4,Win32,64.65795939,5fa5d1ec86ac6817fddaff05,64ce5acb97489d65b14ecc7a,64cf46a626a4b01c44514c0b,,,,,,,decisionTrl,resources/DG.BMP,resources/DY.BMP,Door1,0.259259259,-0.019444466,1,0,0,2.2136,optionRight,30,7815,4,9,0,9,0,1,,,,,,,,,,,,,,,,,,,,,,,,,,,,,,,,,,,,,,,
,,,,,,,,2023-08-06_08h46.06.781,HF_wild_card,2022.2.4,Win32,64.65795939,5fa5d1ec86ac6817fddaff05,64ce5acb97489d65b14ecc7a,64cf46a626a4b01c44514c0b,,,,,,,sngl,resources/Empty.png,resources/DG.BMP,Door2,0.25462963,-0.001851859,1,0,0,0.8809,optionRight,40,7855,4,10,0,10,0,1,,,,,,,,,,,,,,,,,,,,,,,,,,,,,,,,,,,,,,,
,,,,,,,,2023-08-06_08h46.06.781,HF_wild_card,2022.2.4,Win32,64.65795939,5fa5d1ec86ac6817fddaff05,64ce5acb97489d65b14ecc7a,64cf46a626a4b01c44514c0b,,,,,,,decisionTrl,resources/DG.BMP,resources/DY.BMP,Door2,-0.259259259,0.034259266,1,0,0,1.1794,optionLeft,20,7875,4,11,0,11,0,1,,,,,,,,,,,,,,,,,,,,,,,,,,,,,,,,,,,,,,,
,,,,,,,,2023-08-06_08h46.06.781,HF_wild_card,2022.2.4,Win32,64.65795939,5fa5d1ec86ac6817fddaff05,64ce5acb97489d65b14ecc7a,64cf46a626a4b01c44514c0b,,,,,,,decisionTrl,resources/DG.BMP,resources/DY.BMP,Door1,0.334259316,-0.035185178,1,0,0,1.3115,optionRight,30,7905,4,12,0,12,0,1,,,,,,,,,,,,,,,,,,,,,,,,,,,,,,,,,,,,,,,
,,,,,,,,2023-08-06_08h46.06.781,HF_wild_card,2022.2.4,Win32,64.65795939,5fa5d1ec86ac6817fddaff05,64ce5acb97489d65b14ecc7a,64cf46a626a4b01c44514c0b,,,,,,,decisionTrl,resources/DG.BMP,resources/DBN.BMP,WildCard_NonEx,0.250925912,0.039814808,1,0,0,1.2809,optionRight,45,7950,4,13,0,13,0,1,,,,,,,,,,,,,,,,,,,,,,,,,,,,,,,,,,,,,,,
,,,,,,,,2023-08-06_08h46.06.781,HF_wild_card,2022.2.4,Win32,64.65795939,5fa5d1ec86ac6817fddaff05,64ce5acb97489d65b14ecc7a,64cf46a626a4b01c44514c0b,,,,,,,decisionTrl,resources/DB.BMP,resources/DR.BMP,Door3,0.192592621,-0.014814836,1,0,0,1.4879,optionRight,70,8020,4,14,0,14,0,1,,,,,,,,,,,,,,,,,,,,,,,,,,,,,,,,,,,,,,,
,,,,,,,,2023-08-06_08h46.06.781,HF_wild_card,2022.2.4,Win32,64.65795939,5fa5d1ec86ac6817fddaff05,64ce5acb97489d65b14ecc7a,64cf46a626a4b01c44514c0b,,,,,,,sngl,resources/Empty.png,resources/DR.BMP,Door3,0.460185157,-0.002777771,1,0,0,0.8129,optionRight,70,8090,4,15,0,15,0,1,,,,,,,,,,,,,,,,,,,,,,,,,,,,,,,,,,,,,,,
,,,,,,,,2023-08-06_08h46.06.781,HF_wild_card,2022.2.4,Win32,64.65795939,5fa5d1ec86ac6817fddaff05,64ce5acb97489d65b14ecc7a,64cf46a626a4b01c44514c0b,,,,,,,sngl,resources/DR.BMP,resources/Empty.png,Door3,-0.344444452,-0.071296303,1,0,0,0.8019,optionLeft,70,8160,4,16,0,16,0,1,,,,,,,,,,,,,,,,,,,,,,,,,,,,,,,,,,,,,,,
,,,,,,,,2023-08-06_08h46.06.781,HF_wild_card,2022.2.4,Win32,64.65795939,5fa5d1ec86ac6817fddaff05,64ce5acb97489d65b14ecc7a,64cf46a626a4b01c44514c0b,,,,,,,decisionTrl,resources/DR.BMP,resources/DB.BMP,Door3,-0.331481474,-0.039814808,1,0,0,0.9225,optionLeft,70,8230,4,17,0,17,0,1,,,,,,,,,,,,,,,,,,,,,,,,,,,,,,,,,,,,,,,
,,,,,,,,2023-08-06_08h46.06.781,HF_wild_card,2022.2.4,Win32,64.65795939,5fa5d1ec86ac6817fddaff05,64ce5acb97489d65b14ecc7a,64cf46a626a4b01c44514c0b,,,,,,,sngl,resources/DG.BMP,resources/Empty.png,Door2,-0.164814772,0.0074074,1,0,0,0.8125,optionLeft,20,8250,4,18,0,18,0,1,,,,,,,,,,,,,,,,,,,,,,,,,,,,,,,,,,,,,,,
,,,,,,,,2023-08-06_08h46.06.781,HF_wild_card,2022.2.4,Win32,64.65795939,5fa5d1ec86ac6817fddaff05,64ce5acb97489d65b14ecc7a,64cf46a626a4b01c44514c0b,,,,,,,decisionTrl,resources/DG.BMP,resources/DY.BMP,Door2,-0.240740741,-0.009259259,1,0,0,0.8801,optionLeft,20,8270,4,19,0,19,0,1,,,,,,,,,,,,,,,,,,,,,,,,,,,,,,,,,,,,,,,
,,,,,,,,2023-08-06_08h46.06.781,HF_wild_card,2022.2.4,Win32,64.65795939,5fa5d1ec86ac6817fddaff05,64ce5acb97489d65b14ecc7a,64cf46a626a4b01c44514c0b,,,,,,,decisionTrl,resources/DB.BMP,resources/DBN.BMP,Door4,-0.272222236,0.010185171,1,0,0,0.8625,optionLeft,80,8350,4,20,0,20,0,1,,,,,,,,,,,,,,,,,,,,,,,,,,,,,,,,,,,,,,,
,,,,,,,,2023-08-06_08h46.06.781,HF_wild_card,2022.2.4,Win32,64.65795939,5fa5d1ec86ac6817fddaff05,64ce5acb97489d65b14ecc7a,64cf46a626a4b01c44514c0b,,,,,,,ctch,resources/DB.BMP,resources/DY.BMP,Door4,-0.272222236,-0.008333347,1,0,0,1.0467,optionLeft,80,8430,4,21,0,21,0,1,,,,,,,,,,,,,,,,,,,,,,,,,,,,,,,,,,,,,,,
,,,,,,,,2023-08-06_08h46.06.781,HF_wild_card,2022.2.4,Win32,64.65795939,5fa5d1ec86ac6817fddaff05,64ce5acb97489d65b14ecc7a,64cf46a626a4b01c44514c0b,,,,,,,ctch,resources/DY.BMP,resources/DB.BMP,Door4,0.321296268,0.005555541,1,0,0,0.8141,optionRight,80,8510,4,22,0,22,0,1,,,,,,,,,,,,,,,,,,,,,,,,,,,,,,,,,,,,,,,
,,,,,,,,2023-08-06_08h46.06.781,HF_wild_card,2022.2.4,Win32,64.65795939,5fa5d1ec86ac6817fddaff05,64ce5acb97489d65b14ecc7a,64cf46a626a4b01c44514c0b,,,,,,,sngl,resources/DBN.BMP,resources/Empty.png,WildCard_NonEx,-0.276851866,-0.003703718,1,0,0,0.8628,optionLeft,45,8555,4,23,0,23,0,1,,,,,,,,,,,,,,,,,,,,,,,,,,,,,,,,,,,,,,,
,,,,,,,,2023-08-06_08h46.06.781,HF_wild_card,2022.2.4,Win32,64.65795939,5fa5d1ec86ac6817fddaff05,64ce5acb97489d65b14ecc7a,64cf46a626a4b01c44514c0b,,,,,,,decisionTrl,resources/DBN.BMP,resources/DY.BMP,WildCard_NonEx,-0.40648146,0,1,0,0,1.1045,optionLeft,55,8610,4,24,0,24,0,1,,,,,,,,,,,,,,,,,,,,,,,,,,,,,,,,,,,,,,,
,,,,,,,,2023-08-06_08h46.06.781,HF_wild_card,2022.2.4,Win32,64.65795939,5fa5d1ec86ac6817fddaff05,64ce5acb97489d65b14ecc7a,64cf46a626a4b01c44514c0b,,,,,,,decisionTrl,resources/DY.BMP,resources/DG.BMP,Door1,-0.330555563,0.0074074,1,0,0,1.2045,optionLeft,30,8640,4,25,0,25,0,1,,,,,,,,,,,,,,,,,,,,,,,,,,,,,,,,,,,,,,,
,,,,,,,,2023-08-06_08h46.06.781,HF_wild_card,2022.2.4,Win32,64.65795939,5fa5d1ec86ac6817fddaff05,64ce5acb97489d65b14ecc7a,64cf46a626a4b01c44514c0b,,,,,,,decisionTrl,resources/DB.BMP,resources/DR.BMP,Door3,0.296296296,0.014814801,1,0,0,0.998,optionRight,70,8710,4,26,0,26,0,1,,,,,,,,,,,,,,,,,,,,,,,,,,,,,,,,,,,,,,,
,,,,,,,,2023-08-06_08h46.06.781,HF_wild_card,2022.2.4,Win32,64.65795939,5fa5d1ec86ac6817fddaff05,64ce5acb97489d65b14ecc7a,64cf46a626a4b01c44514c0b,,,,,,,ctch,resources/DG.BMP,resources/DR.BMP,Door3,0.286111125,0.011111118,1,0,0,1.9554,optionRight,70,8780,4,27,0,27,0,1,,,,,,,,,,,,,,,,,,,,,,,,,,,,,,,,,,,,,,,
,,,,,,,,2023-08-06_08h46.06.781,HF_wild_card,2022.2.4,Win32,64.65795939,5fa5d1ec86ac6817fddaff05,64ce5acb97489d65b14ecc7a,64cf46a626a4b01c44514c0b,,,,,,,decisionTrl,resources/DB.BMP,resources/DR.BMP,Door3,0.382407436,-0.013888889,1,0,0,4.4977,optionRight,70,8850,4,28,0,28,0,1,,,,,,,,,,,,,,,,,,,,,,,,,,,,,,,,,,,,,,,
,,,,,,,,2023-08-06_08h46.06.781,HF_wild_card,2022.2.4,Win32,64.65795939,5fa5d1ec86ac6817fddaff05,64ce5acb97489d65b14ecc7a,64cf46a626a4b01c44514c0b,,,,,,,sngl,resources/DY.BMP,resources/Empty.png,Door1,-0.297222208,-0.00462963,1,0,0,13.0435,optionLeft,30,8880,4,29,0,29,0,1,,,,,,,,,,,,,,,,,,,,,,,,,,,,,,,,,,,,,,,
,,,,,,,,2023-08-06_08h46.06.781,HF_wild_card,2022.2.4,Win32,64.65795939,5fa5d1ec86ac6817fddaff05,64ce5acb97489d65b14ecc7a,64cf46a626a4b01c44514c0b,,,,,,,sngl,resources/DBN.BMP,resources/Empty.png,WildCard_NonEx,-0.315740727,-0.058333326,1,0,0,2.3302,optionLeft,55,8935,4,30,0,30,0,1,,,,,,,,,,,,,,,,,,,,,,,,,,,,,,,,,,,,,,,
,,,,,,,,2023-08-06_08h46.06.781,HF_wild_card,2022.2.4,Win32,64.65795939,5fa5d1ec86ac6817fddaff05,64ce5acb97489d65b14ecc7a,64cf46a626a4b01c44514c0b,,,,,,,decisionTrl,resources/DB.BMP,resources/DR.BMP,Door3,0.359259288,0.043518526,1,0,0,4.8328,optionRight,70,9005,4,31,0,31,0,1,,,,,,,,,,,,,,,,,,,,,,,,,,,,,,,,,,,,,,,
,,,,,,,,2023-08-06_08h46.06.781,HF_wild_card,2022.2.4,Win32,64.65795939,5fa5d1ec86ac6817fddaff05,64ce5acb97489d65b14ecc7a,64cf46a626a4b01c44514c0b,,,,,,,sngl,resources/Empty.png,resources/DBN.BMP,WildCard_NonEx,0.372222194,0.003703683,1,0,0,3.8568,optionRight,55,9060,4,32,0,32,0,1,,,,,,,,,,,,,,,,,,,,,,,,,,,,,,,,,,,,,,,
,,,,,,,,2023-08-06_08h46.06.781,HF_wild_card,2022.2.4,Win32,64.65795939,5fa5d1ec86ac6817fddaff05,64ce5acb97489d65b14ecc7a,64cf46a626a4b01c44514c0b,,,,,,,ctch,resources/DY.BMP,resources/DB.BMP,Door4,0.225000028,0.01203703,1,0,0,1.1633,optionRight,80,9140,4,33,0,33,0,1,,,,,,,,,,,,,,,,,,,,,,,,,,,,,,,,,,,,,,,
,,,,,,,,2023-08-06_08h46.06.781,HF_wild_card,2022.2.4,Win32,64.65795939,5fa5d1ec86ac6817fddaff05,64ce5acb97489d65b14ecc7a,64cf46a626a4b01c44514c0b,,,,,,,decisionTrl,resources/DY.BMP,resources/DG.BMP,Door1,-0.246296282,0.035185178,1,0,0,1.3609,optionLeft,30,9170,4,34,0,34,0,1,,,,,,,,,,,,,,,,,,,,,,,,,,,,,,,,,,,,,,,
,,,,,,,,2023-08-06_08h46.06.781,HF_wild_card,2022.2.4,Win32,64.65795939,5fa5d1ec86ac6817fddaff05,64ce5acb97489d65b14ecc7a,64cf46a626a4b01c44514c0b,,,,,,,decisionTrl,resources/DY.BMP,resources/DG.BMP,Door1,-0.402777778,-0.068518533,1,0,0,2.1565,optionLeft,30,9200,4,35,0,35,0,1,,,,,,,,,,,,,,,,,,,,,,,,,,,,,,,,,,,,,,,
,,,,,,,,2023-08-06_08h46.06.781,HF_wild_card,2022.2.4,Win32,64.65795939,5fa5d1ec86ac6817fddaff05,64ce5acb97489d65b14ecc7a,64cf46a626a4b01c44514c0b,,,,,,,decisionTrl,resources/DR.BMP,resources/DBN.BMP,Door3,-0.307407414,0.01944443,1,0,0,1.1289,optionLeft,70,9270,4,36,0,36,0,1,,,,,,,,,,,,,,,,,,,,,,,,,,,,,,,,,,,,,,,
,,,,,,,,2023-08-06_08h46.06.781,HF_wild_card,2022.2.4,Win32,64.65795939,5fa5d1ec86ac6817fddaff05,64ce5acb97489d65b14ecc7a,64cf46a626a4b01c44514c0b,,,,,,,ctch,resources/DR.BMP,resources/DG.BMP,Door3,-0.252777735,0.01944443,1,0,0,2.1225,optionLeft,70,9340,4,37,0,37,0,1,,,,,,,,,,,,,,,,,,,,,,,,,,,,,,,,,,,,,,,
,,,,,,,,2023-08-06_08h46.06.781,HF_wild_card,2022.2.4,Win32,64.65795939,5fa5d1ec86ac6817fddaff05,64ce5acb97489d65b14ecc7a,64cf46a626a4b01c44514c0b,,,,,,,sngl,resources/Empty.png,resources/DY.BMP,Door1,0.25462963,0.029629637,1,0,0,1.2964,optionRight,30,9370,4,38,0,38,0,1,,,,,,,,,,,,,,,,,,,,,,,,,,,,,,,,,,,,,,,
,,,,,,,,2023-08-06_08h46.06.781,HF_wild_card,2022.2.4,Win32,64.65795939,5fa5d1ec86ac6817fddaff05,64ce5acb97489d65b14ecc7a,64cf46a626a4b01c44514c0b,,,,,,,sngl,resources/Empty.png,resources/DBN.BMP,WildCard_NonEx,0.285185213,0.057407414,1,0,0,0.9133,optionRight,45,9415,4,39,0,39,0,1,,,,,,,,,,,,,,,,,,,,,,,,,,,,,,,,,,,,,,,
,,,,,,,,2023-08-06_08h46.06.781,HF_wild_card,2022.2.4,Win32,64.65795939,5fa5d1ec86ac6817fddaff05,64ce5acb97489d65b14ecc7a,64cf46a626a4b01c44514c0b,,,,,,,sngl,resources/Empty.png,resources/DB.BMP,Door4,0.266666695,0.011111118,1,0,0,0.8723,optionRight,80,9495,4,40,0,40,0,1,,,,,,,,,,,,,,,,,,,,,,,,,,,,,,,,,,,,,,,
,,,,,,,,2023-08-06_08h46.06.781,HF_wild_card,2022.2.4,Win32,64.65795939,5fa5d1ec86ac6817fddaff05,64ce5acb97489d65b14ecc7a,64cf46a626a4b01c44514c0b,,,,,,,ctch,resources/DB.BMP,resources/DY.BMP,Door4,-0.227777764,-0.014814836,1,0,0,0.955,optionLeft,60,9555,4,41,0,41,0,1,,,,,,,,,,,,,,,,,,,,,,,,,,,,,,,,,,,,,,,
,,,,,,,,2023-08-06_08h46.06.781,HF_wild_card,2022.2.4,Win32,64.65795939,5fa5d1ec86ac6817fddaff05,64ce5acb97489d65b14ecc7a,64cf46a626a4b01c44514c0b,,,,,,,decisionTrl,resources/DBN.BMP,resources/DR.BMP,Door3,0.375,0.030555548,1,0,0,0.9388,optionRight,70,9625,4,42,0,42,0,1,,,,,,,,,,,,,,,,,,,,,,,,,,,,,,,,,,,,,,,
,,,,,,,,2023-08-06_08h46.06.781,HF_wild_card,2022.2.4,Win32,64.65795939,5fa5d1ec86ac6817fddaff05,64ce5acb97489d65b14ecc7a,64cf46a626a4b01c44514c0b,,,,,,,decisionTrl,resources/DR.BMP,resources/DB.BMP,Door3,-0.264814801,-0.00462963,1,0,0,0.9134,optionLeft,70,9695,4,43,0,43,0,1,,,,,,,,,,,,,,,,,,,,,,,,,,,,,,,,,,,,,,,
,,,,,,,,2023-08-06_08h46.06.781,HF_wild_card,2022.2.4,Win32,64.65795939,5fa5d1ec86ac6817fddaff05,64ce5acb97489d65b14ecc7a,64cf46a626a4b01c44514c0b,,,,,,,,,,,,,,,,,,,,,,,,,,3,0,3,0,1,,,,,,,,,,,,,,,,,,,,,,,,,,,,,,,,,,
,,,,,,,,2023-08-06_08h46.06.781,HF_wild_card,2022.2.4,Win32,64.65795939,5fa5d1ec86ac6817fddaff05,64ce5acb97489d65b14ecc7a,64cf46a626a4b01c44514c0b,,,,,,,ctch,resources/DY.BMP,resources/DB.BMP,Door4,0.299074102,0,1,0,0,1.6125,optionRight,60,9755,5,0,0,0,0,1,,,,,,,,,,,,,,,,,,,,,,,,,,,,,,,,,,,,,,,
,,,,,,,,2023-08-06_08h46.06.781,HF_wild_card,2022.2.4,Win32,64.65795939,5fa5d1ec86ac6817fddaff05,64ce5acb97489d65b14ecc7a,64cf46a626a4b01c44514c0b,,,,,,,sngl,resources/DR.BMP,resources/Empty.png,Door3,-0.346296275,-0.063888903,1,0,0,0.813,optionLeft,70,9825,5,1,0,1,0,1,,,,,,,,,,,,,,,,,,,,,,,,,,,,,,,,,,,,,,,
,,,,,,,,2023-08-06_08h46.06.781,HF_wild_card,2022.2.4,Win32,64.65795939,5fa5d1ec86ac6817fddaff05,64ce5acb97489d65b14ecc7a,64cf46a626a4b01c44514c0b,,,,,,,ctch,resources/DY.BMP,resources/DB.BMP,Door4,0.253703718,0.032407407,1,0,0,1.1125,optionRight,80,9905,5,2,0,2,0,1,,,,,,,,,,,,,,,,,,,,,,,,,,,,,,,,,,,,,,,
,,,,,,,,2023-08-06_08h46.06.781,HF_wild_card,2022.2.4,Win32,64.65795939,5fa5d1ec86ac6817fddaff05,64ce5acb97489d65b14ecc7a,64cf46a626a4b01c44514c0b,,,,,,,decisionTrl,resources/DY.BMP,resources/DG.BMP,Door1,-0.304629608,0.002777771,1,0,0,1.2284,optionLeft,30,9935,5,3,0,3,0,1,,,,,,,,,,,,,,,,,,,,,,,,,,,,,,,,,,,,,,,
,,,,,,,,2023-08-06_08h46.06.781,HF_wild_card,2022.2.4,Win32,64.65795939,5fa5d1ec86ac6817fddaff05,64ce5acb97489d65b14ecc7a,64cf46a626a4b01c44514c0b,,,,,,,decisionTrl,resources/DR.BMP,resources/DBN.BMP,Door3,-0.343518504,-0.000925947,1,0,0,0.8552,optionLeft,70,10005,5,4,0,4,0,1,,,,,,,,,,,,,,,,,,,,,,,,,,,,,,,,,,,,,,,
,,,,,,,,2023-08-06_08h46.06.781,HF_wild_card,2022.2.4,Win32,64.65795939,5fa5d1ec86ac6817fddaff05,64ce5acb97489d65b14ecc7a,64cf46a626a4b01c44514c0b,,,,,,,sngl,resources/Empty.png,resources/DBN.BMP,WildCard_NonEx,0.259259259,0.04074072,1,0,0,1.1411,optionRight,55,10060,5,5,0,5,0,1,,,,,,,,,,,,,,,,,,,,,,,,,,,,,,,,,,,,,,,
,,,,,,,,2023-08-06_08h46.06.781,HF_wild_card,2022.2.4,Win32,64.65795939,5fa5d1ec86ac6817fddaff05,64ce5acb97489d65b14ecc7a,64cf46a626a4b01c44514c0b,,,,,,,decisionTrl,resources/DB.BMP,resources/DBN.BMP,Door4,-0.39166666,-0.059259273,1,0,0,0.9391,optionLeft,80,10140,5,6,0,6,0,1,,,,,,,,,,,,,,,,,,,,,,,,,,,,,,,,,,,,,,,
,,,,,,,,2023-08-06_08h46.06.781,HF_wild_card,2022.2.4,Win32,64.65795939,5fa5d1ec86ac6817fddaff05,64ce5acb97489d65b14ecc7a,64cf46a626a4b01c44514c0b,,,,,,,sngl,resources/DG.BMP,resources/Empty.png,Door2,-0.342592593,-0.033333355,1,0,0,1.5189,optionLeft,40,10180,5,7,0,7,0,1,,,,,,,,,,,,,,,,,,,,,,,,,,,,,,,,,,,,,,,
,,,,,,,,2023-08-06_08h46.06.781,HF_wild_card,2022.2.4,Win32,64.65795939,5fa5d1ec86ac6817fddaff05,64ce5acb97489d65b14ecc7a,64cf46a626a4b01c44514c0b,,,,,,,decisionTrl,resources/DY.BMP,resources/DG.BMP,Door1,-0.426851838,0.002777771,1,0,0,2.2559,optionLeft,30,10210,5,8,0,8,0,1,,,,,,,,,,,,,,,,,,,,,,,,,,,,,,,,,,,,,,,
,,,,,,,,2023-08-06_08h46.06.781,HF_wild_card,2022.2.4,Win32,64.65795939,5fa5d1ec86ac6817fddaff05,64ce5acb97489d65b14ecc7a,64cf46a626a4b01c44514c0b,,,,,,,decisionTrl,resources/DG.BMP,resources/DY.BMP,Door1,0.325925898,0.032407407,1,0,0,4.163,optionRight,30,10240,5,9,0,9,0,1,,,,,,,,,,,,,,,,,,,,,,,,,,,,,,,,,,,,,,,
,,,,,,,,2023-08-06_08h46.06.781,HF_wild_card,2022.2.4,Win32,64.65795939,5fa5d1ec86ac6817fddaff05,64ce5acb97489d65b14ecc7a,64cf46a626a4b01c44514c0b,,,,,,,decisionTrl,resources/DY.BMP,resources/DG.BMP,Door1,-0.305555556,0.02870369,1,0,0,3.182,optionLeft,30,10270,5,10,0,10,0,1,,,,,,,,,,,,,,,,,,,,,,,,,,,,,,,,,,,,,,,
,,,,,,,,2023-08-06_08h46.06.781,HF_wild_card,2022.2.4,Win32,64.65795939,5fa5d1ec86ac6817fddaff05,64ce5acb97489d65b14ecc7a,64cf46a626a4b01c44514c0b,,,,,,,decisionTrl,resources/DBN.BMP,resources/DB.BMP,Door4,-0.00462963,0.00462963,1,0,0,0.8386,optionRight,80,10350,5,11,0,11,0,1,,,,,,,,,,,,,,,,,,,,,,,,,,,,,,,,,,,,,,,
,,,,,,,,2023-08-06_08h46.06.781,HF_wild_card,2022.2.4,Win32,64.65795939,5fa5d1ec86ac6817fddaff05,64ce5acb97489d65b14ecc7a,64cf46a626a4b01c44514c0b,,,,,,,decisionTrl,resources/DB.BMP,resources/DR.BMP,Door3,0.353703675,-0.006481489,1,0,0,2.4133,optionRight,70,10420,5,12,0,12,0,1,,,,,,,,,,,,,,,,,,,,,,,,,,,,,,,,,,,,,,,
,,,,,,,,2023-08-06_08h46.06.781,HF_wild_card,2022.2.4,Win32,64.65795939,5fa5d1ec86ac6817fddaff05,64ce5acb97489d65b14ecc7a,64cf46a626a4b01c44514c0b,,,,,,,ctch,resources/DR.BMP,resources/DG.BMP,Door3,-0.356481481,0.02870369,1,0,0,2.9938,optionLeft,70,10490,5,13,0,13,0,1,,,,,,,,,,,,,,,,,,,,,,,,,,,,,,,,,,,,,,,
,,,,,,,,2023-08-06_08h46.06.781,HF_wild_card,2022.2.4,Win32,64.65795939,5fa5d1ec86ac6817fddaff05,64ce5acb97489d65b14ecc7a,64cf46a626a4b01c44514c0b,,,,,,,decisionTrl,resources/DG.BMP,resources/DY.BMP,Door1,0.202777792,-0.002777771,1,0,0,1.4809,optionRight,30,10520,5,14,0,14,0,1,,,,,,,,,,,,,,,,,,,,,,,,,,,,,,,,,,,,,,,
,,,,,,,,2023-08-06_08h46.06.781,HF_wild_card,2022.2.4,Win32,64.65795939,5fa5d1ec86ac6817fddaff05,64ce5acb97489d65b14ecc7a,64cf46a626a4b01c44514c0b,,,,,,,decisionTrl,resources/DR.BMP,resources/DB.BMP,Door3,-0.288888861,0.020370377,1,0,0,1.813,optionLeft,70,10590,5,15,0,15,0,1,,,,,,,,,,,,,,,,,,,,,,,,,,,,,,,,,,,,,,,
,,,,,,,,2023-08-06_08h46.06.781,HF_wild_card,2022.2.4,Win32,64.65795939,5fa5d1ec86ac6817fddaff05,64ce5acb97489d65b14ecc7a,64cf46a626a4b01c44514c0b,,,,,,,decisionTrl,resources/DG.BMP,resources/DY.BMP,Door1,0.300925926,0.056481467,1,0,0,3.8905,optionRight,30,10620,5,16,0,16,0,1,,,,,,,,,,,,,,,,,,,,,,,,,,,,,,,,,,,,,,,
,,,,,,,,2023-08-06_08h46.06.781,HF_wild_card,2022.2.4,Win32,64.65795939,5fa5d1ec86ac6817fddaff05,64ce5acb97489d65b14ecc7a,64cf46a626a4b01c44514c0b,,,,,,,decisionTrl,resources/DBN.BMP,resources/DG.BMP,WildCard_NonEx,-0.27870369,0.062962956,1,0,0,3.0802,optionLeft,55,10675,5,17,0,17,0,1,,,,,,,,,,,,,,,,,,,,,,,,,,,,,,,,,,,,,,,
,,,,,,,,2023-08-06_08h46.06.781,HF_wild_card,2022.2.4,Win32,64.65795939,5fa5d1ec86ac6817fddaff05,64ce5acb97489d65b14ecc7a,64cf46a626a4b01c44514c0b,,,,,,,sngl,resources/Empty.png,resources/DB.BMP,Door4,0.262037065,0.038888896,1,0,0,2.2542,optionRight,60,10735,5,18,0,18,0,1,,,,,,,,,,,,,,,,,,,,,,,,,,,,,,,,,,,,,,,
,,,,,,,,2023-08-06_08h46.06.781,HF_wild_card,2022.2.4,Win32,64.65795939,5fa5d1ec86ac6817fddaff05,64ce5acb97489d65b14ecc7a,64cf46a626a4b01c44514c0b,,,,,,,decisionTrl,resources/DBN.BMP,resources/DY.BMP,WildCard_NonEx,-0.248148106,-0.003703718,1,0,0,1.8015,optionLeft,45,10780,5,19,0,19,0,1,,,,,,,,,,,,,,,,,,,,,,,,,,,,,,,,,,,,,,,
,,,,,,,,2023-08-06_08h46.06.781,HF_wild_card,2022.2.4,Win32,64.65795939,5fa5d1ec86ac6817fddaff05,64ce5acb97489d65b14ecc7a,64cf46a626a4b01c44514c0b,,,,,,,sngl,resources/DB.BMP,resources/Empty.png,Door4,-0.251851824,0.022222201,1,0,0,0.8951,optionLeft,80,10860,5,20,0,20,0,1,,,,,,,,,,,,,,,,,,,,,,,,,,,,,,,,,,,,,,,
,,,,,,,,2023-08-06_08h46.06.781,HF_wild_card,2022.2.4,Win32,64.65795939,5fa5d1ec86ac6817fddaff05,64ce5acb97489d65b14ecc7a,64cf46a626a4b01c44514c0b,,,,,,,decisionTrl,resources/DY.BMP,resources/DBN.BMP,WildCard_NonEx,0.399999972,0.055555556,1,0,0,10.2869,optionRight,45,10905,5,21,0,21,0,1,,,,,,,,,,,,,,,,,,,,,,,,,,,,,,,,,,,,,,,
,,,,,,,,2023-08-06_08h46.06.781,HF_wild_card,2022.2.4,Win32,64.65795939,5fa5d1ec86ac6817fddaff05,64ce5acb97489d65b14ecc7a,64cf46a626a4b01c44514c0b,,,,,,,sngl,resources/Empty.png,resources/DR.BMP,Door3,0.32685188,0.023148148,1,0,0,0.8467,optionRight,70,10975,5,22,0,22,0,1,,,,,,,,,,,,,,,,,,,,,,,,,,,,,,,,,,,,,,,
,,,,,,,,2023-08-06_08h46.06.781,HF_wild_card,2022.2.4,Win32,64.65795939,5fa5d1ec86ac6817fddaff05,64ce5acb97489d65b14ecc7a,64cf46a626a4b01c44514c0b,,,,,,,sngl,resources/Empty.png,resources/DY.BMP,Door1,0.208333333,0.015740748,1,0,0,0.8236,optionRight,30,11005,5,23,0,23,0,1,,,,,,,,,,,,,,,,,,,,,,,,,,,,,,,,,,,,,,,
,,,,,,,,2023-08-06_08h46.06.781,HF_wild_card,2022.2.4,Win32,64.65795939,5fa5d1ec86ac6817fddaff05,64ce5acb97489d65b14ecc7a,64cf46a626a4b01c44514c0b,,,,,,,decisionTrl,resources/DB.BMP,resources/DR.BMP,Door3,0.248148176,0.010185171,1,0,0,0.9634,optionRight,70,11075,5,24,0,24,0,1,,,,,,,,,,,,,,,,,,,,,,,,,,,,,,,,,,,,,,,
,,,,,,,,2023-08-06_08h46.06.781,HF_wild_card,2022.2.4,Win32,64.65795939,5fa5d1ec86ac6817fddaff05,64ce5acb97489d65b14ecc7a,64cf46a626a4b01c44514c0b,,,,,,,decisionTrl,resources/DY.BMP,resources/DG.BMP,Door1,-0.285185143,-0.001851859,1,0,0,1.0629,optionLeft,30,11105,5,25,0,25,0,1,,,,,,,,,,,,,,,,,,,,,,,,,,,,,,,,,,,,,,,
,,,,,,,,2023-08-06_08h46.06.781,HF_wild_card,2022.2.4,Win32,64.65795939,5fa5d1ec86ac6817fddaff05,64ce5acb97489d65b14ecc7a,64cf46a626a4b01c44514c0b,,,,,,,decisionTrl,resources/DG.BMP,resources/DBN.BMP,WildCard_NonEx,0.392592677,0.055555556,1,0,0,1.0791,optionRight,45,11150,5,26,0,26,0,1,,,,,,,,,,,,,,,,,,,,,,,,,,,,,,,,,,,,,,,
,,,,,,,,2023-08-06_08h46.06.781,HF_wild_card,2022.2.4,Win32,64.65795939,5fa5d1ec86ac6817fddaff05,64ce5acb97489d65b14ecc7a,64cf46a626a4b01c44514c0b,,,,,,,decisionTrl,resources/DB.BMP,resources/DR.BMP,Door3,0.309259344,0.033333319,1,0,0,0.9964,optionRight,70,11220,5,27,0,27,0,1,,,,,,,,,,,,,,,,,,,,,,,,,,,,,,,,,,,,,,,
,,,,,,,,2023-08-06_08h46.06.781,HF_wild_card,2022.2.4,Win32,64.65795939,5fa5d1ec86ac6817fddaff05,64ce5acb97489d65b14ecc7a,64cf46a626a4b01c44514c0b,,,,,,,sngl,resources/DBN.BMP,resources/Empty.png,WildCard_NonEx,-0.321296303,0.017592571,1,0,0,0.9895,optionLeft,45,11265,5,28,0,28,0,1,,,,,,,,,,,,,,,,,,,,,,,,,,,,,,,,,,,,,,,
,,,,,,,,2023-08-06_08h46.06.781,HF_wild_card,2022.2.4,Win32,64.65795939,5fa5d1ec86ac6817fddaff05,64ce5acb97489d65b14ecc7a,64cf46a626a4b01c44514c0b,,,,,,,decisionTrl,resources/DBN.BMP,resources/DR.BMP,Door3,0.344444416,0.029629637,1,0,0,1.9895,optionRight,70,11335,5,29,0,29,0,1,,,,,,,,,,,,,,,,,,,,,,,,,,,,,,,,,,,,,,,
,,,,,,,,2023-08-06_08h46.06.781,HF_wild_card,2022.2.4,Win32,64.65795939,5fa5d1ec86ac6817fddaff05,64ce5acb97489d65b14ecc7a,64cf46a626a4b01c44514c0b,,,,,,,ctch,resources/DB.BMP,resources/DY.BMP,Door4,-0.238888847,0.046296296,1,0,0,1.1793,optionLeft,80,11415,5,30,0,30,0,1,,,,,,,,,,,,,,,,,,,,,,,,,,,,,,,,,,,,,,,
,,,,,,,,2023-08-06_08h46.06.781,HF_wild_card,2022.2.4,Win32,64.65795939,5fa5d1ec86ac6817fddaff05,64ce5acb97489d65b14ecc7a,64cf46a626a4b01c44514c0b,,,,,,,ctch,resources/DG.BMP,resources/DR.BMP,Door3,0.325000057,0.015740748,1,0,0,1.2961,optionRight,70,11485,5,31,0,31,0,1,,,,,,,,,,,,,,,,,,,,,,,,,,,,,,,,,,,,,,,
,,,,,,,,2023-08-06_08h46.06.781,HF_wild_card,2022.2.4,Win32,64.65795939,5fa5d1ec86ac6817fddaff05,64ce5acb97489d65b14ecc7a,64cf46a626a4b01c44514c0b,,,,,,,ctch,resources/DR.BMP,resources/DG.BMP,Door3,-0.187962921,-0.013888889,1,0,0,0.938,optionLeft,70,11555,5,32,0,32,0,1,,,,,,,,,,,,,,,,,,,,,,,,,,,,,,,,,,,,,,,
,,,,,,,,2023-08-06_08h46.06.781,HF_wild_card,2022.2.4,Win32,64.65795939,5fa5d1ec86ac6817fddaff05,64ce5acb97489d65b14ecc7a,64cf46a626a4b01c44514c0b,,,,,,,decisionTrl,resources/DG.BMP,resources/DY.BMP,Door2,-0.17777775,0.018518519,1,0,0,5.3144,optionLeft,20,11575,5,33,0,33,0,1,,,,,,,,,,,,,,,,,,,,,,,,,,,,,,,,,,,,,,,
,,,,,,,,2023-08-06_08h46.06.781,HF_wild_card,2022.2.4,Win32,64.65795939,5fa5d1ec86ac6817fddaff05,64ce5acb97489d65b14ecc7a,64cf46a626a4b01c44514c0b,,,,,,,sngl,resources/DY.BMP,resources/Empty.png,Door1,-0.744444441,-0.145370413,1,0,0,24.7486,optionLeft,30,11605,5,34,0,34,0,1,,,,,,,,,,,,,,,,,,,,,,,,,,,,,,,,,,,,,,,
,,,,,,,,2023-08-06_08h46.06.781,HF_wild_card,2022.2.4,Win32,64.65795939,5fa5d1ec86ac6817fddaff05,64ce5acb97489d65b14ecc7a,64cf46a626a4b01c44514c0b,,,,,,,sngl,resources/Empty.png,resources/DBN.BMP,WildCard_NonEx,0.373148176,-0.050925926,1,0,0,3.7234,optionRight,45,11650,5,35,0,35,0,1,,,,,,,,,,,,,,,,,,,,,,,,,,,,,,,,,,,,,,,
,,,,,,,,2023-08-06_08h46.06.781,HF_wild_card,2022.2.4,Win32,64.65795939,5fa5d1ec86ac6817fddaff05,64ce5acb97489d65b14ecc7a,64cf46a626a4b01c44514c0b,,,,,,,ctch,resources/DG.BMP,resources/DR.BMP,Door3,0.347222222,0.04074072,1,0,0,2.0981,optionRight,70,11720,5,36,0,36,0,1,,,,,,,,,,,,,,,,,,,,,,,,,,,,,,,,,,,,,,,
,,,,,,,,2023-08-06_08h46.06.781,HF_wild_card,2022.2.4,Win32,64.65795939,5fa5d1ec86ac6817fddaff05,64ce5acb97489d65b14ecc7a,64cf46a626a4b01c44514c0b,,,,,,,decisionTrl,resources/DB.BMP,resources/DR.BMP,Door3,0.343518575,-0.01203703,1,0,0,1.5145,optionRight,70,11790,5,37,0,37,0,1,,,,,,,,,,,,,,,,,,,,,,,,,,,,,,,,,,,,,,,
,,,,,,,,2023-08-06_08h46.06.781,HF_wild_card,2022.2.4,Win32,64.65795939,5fa5d1ec86ac6817fddaff05,64ce5acb97489d65b14ecc7a,64cf46a626a4b01c44514c0b,,,,,,,decisionTrl,resources/DR.BMP,resources/DB.BMP,Door3,-0.324074074,-0.033333355,1,0,0,0.9152,optionLeft,70,11860,5,38,0,38,0,1,,,,,,,,,,,,,,,,,,,,,,,,,,,,,,,,,,,,,,,
,,,,,,,,2023-08-06_08h46.06.781,HF_wild_card,2022.2.4,Win32,64.65795939,5fa5d1ec86ac6817fddaff05,64ce5acb97489d65b14ecc7a,64cf46a626a4b01c44514c0b,,,,,,,decisionTrl,resources/DR.BMP,resources/DB.BMP,Door3,-0.187962921,-0.026851866,1,0,0,1.8279,optionLeft,70,11930,5,39,0,39,0,1,,,,,,,,,,,,,,,,,,,,,,,,,,,,,,,,,,,,,,,
,,,,,,,,2023-08-06_08h46.06.781,HF_wild_card,2022.2.4,Win32,64.65795939,5fa5d1ec86ac6817fddaff05,64ce5acb97489d65b14ecc7a,64cf46a626a4b01c44514c0b,,,,,,,decisionTrl,resources/DR.BMP,resources/DB.BMP,Door3,-0.250925912,-0.034259266,1,0,0,3.8645,optionLeft,70,12000,5,40,0,40,0,1,,,,,,,,,,,,,,,,,,,,,,,,,,,,,,,,,,,,,,,
,,,,,,,,2023-08-06_08h46.06.781,HF_wild_card,2022.2.4,Win32,64.65795939,5fa5d1ec86ac6817fddaff05,64ce5acb97489d65b14ecc7a,64cf46a626a4b01c44514c0b,,,,,,,ctch,resources/DB.BMP,resources/DY.BMP,Door4,0.001851894,0.012962942,1,0,0,0.798,optionLeft,80,12080,5,41,0,41,0,1,,,,,,,,,,,,,,,,,,,,,,,,,,,,,,,,,,,,,,,
,,,,,,,,2023-08-06_08h46.06.781,HF_wild_card,2022.2.4,Win32,64.65795939,5fa5d1ec86ac6817fddaff05,64ce5acb97489d65b14ecc7a,64cf46a626a4b01c44514c0b,,,,,,,sngl,resources/Empty.png,resources/DG.BMP,Door2,0.362037094,0.005555541,1,0,0,15.7522,optionRight,20,12100,5,42,0,42,0,1,,,,,,,,,,,,,,,,,,,,,,,,,,,,,,,,,,,,,,,
,,,,,,,,2023-08-06_08h46.06.781,HF_wild_card,2022.2.4,Win32,64.65795939,5fa5d1ec86ac6817fddaff05,64ce5acb97489d65b14ecc7a,64cf46a626a4b01c44514c0b,,,,,,,sngl,resources/DBN.BMP,resources/Empty.png,WildCard_NonEx,-0.375,0.046296296,1,0,0,18.0188,optionLeft,55,12155,5,43,0,43,0,1,,,,,,,,,,,,,,,,,,,,,,,,,,,,,,,,,,,,,,,
,,,,,,,,2023-08-06_08h46.06.781,HF_wild_card,2022.2.4,Win32,64.65795939,5fa5d1ec86ac6817fddaff05,64ce5acb97489d65b14ecc7a,64cf46a626a4b01c44514c0b,,,,,,,,,,,,,,,,,,,,,,,,,,4,0,4,0,1,,,,,,,,,,,,,,,,,,,,,,,,,,,,,,,,,,
,,,,,,,,2023-08-06_08h46.06.781,HF_wild_card,2022.2.4,Win32,64.65795939,5fa5d1ec86ac6817fddaff05,64ce5acb97489d65b14ecc7a,64cf46a626a4b01c44514c0b,,,,,,,sngl,resources/DR.BMP,resources/Empty.png,Door3,-0.322222215,0.034259266,1,0,0,1.0259,optionLeft,70,12225,6,0,0,0,0,1,,,,,,,,,,,,,,,,,,,,,,,,,,,,,,,,,,,,,,,
,,,,,,,,2023-08-06_08h46.06.781,HF_wild_card,2022.2.4,Win32,64.65795939,5fa5d1ec86ac6817fddaff05,64ce5acb97489d65b14ecc7a,64cf46a626a4b01c44514c0b,,,,,,,decisionTrl,resources/DG.BMP,resources/DY.BMP,Door1,0.188888903,0.000925912,1,0,0,3.5805,optionRight,30,12255,6,1,0,1,0,1,,,,,,,,,,,,,,,,,,,,,,,,,,,,,,,,,,,,,,,
,,,,,,,,2023-08-06_08h46.06.781,HF_wild_card,2022.2.4,Win32,64.65795939,5fa5d1ec86ac6817fddaff05,64ce5acb97489d65b14ecc7a,64cf46a626a4b01c44514c0b,,,,,,,decisionTrl,resources/DBN.BMP,resources/DY.BMP,WildCard_NonEx,-0.360185164,0.047222208,1,0,0,1.2772,optionLeft,45,12300,6,2,0,2,0,1,,,,,,,,,,,,,,,,,,,,,,,,,,,,,,,,,,,,,,,
,,,,,,,,2023-08-06_08h46.06.781,HF_wild_card,2022.2.4,Win32,64.65795939,5fa5d1ec86ac6817fddaff05,64ce5acb97489d65b14ecc7a,64cf46a626a4b01c44514c0b,,,,,,,ctch,resources/DY.BMP,resources/DB.BMP,Door4,0.410185213,0.137962942,1,0,0,1.0233,optionRight,60,12360,6,3,0,3,0,1,,,,,,,,,,,,,,,,,,,,,,,,,,,,,,,,,,,,,,,
,,,,,,,,2023-08-06_08h46.06.781,HF_wild_card,2022.2.4,Win32,64.65795939,5fa5d1ec86ac6817fddaff05,64ce5acb97489d65b14ecc7a,64cf46a626a4b01c44514c0b,,,,,,,sngl,resources/Empty.png,resources/DG.BMP,Door2,0.371296353,-0.036111125,1,0,0,0.896,optionRight,40,12400,6,4,0,4,0,1,,,,,,,,,,,,,,,,,,,,,,,,,,,,,,,,,,,,,,,
,,,,,,,,2023-08-06_08h46.06.781,HF_wild_card,2022.2.4,Win32,64.65795939,5fa5d1ec86ac6817fddaff05,64ce5acb97489d65b14ecc7a,64cf46a626a4b01c44514c0b,,,,,,,decisionTrl,resources/DBN.BMP,resources/DR.BMP,Door3,0.414814843,0.068518497,1,0,0,0.9053,optionRight,70,12470,6,5,0,5,0,1,,,,,,,,,,,,,,,,,,,,,,,,,,,,,,,,,,,,,,,
,,,,,,,,2023-08-06_08h46.06.781,HF_wild_card,2022.2.4,Win32,64.65795939,5fa5d1ec86ac6817fddaff05,64ce5acb97489d65b14ecc7a,64cf46a626a4b01c44514c0b,,,,,,,decisionTrl,resources/DG.BMP,resources/DY.BMP,Door1,0.410185213,0.070370356,1,0,0,1.5789,optionRight,30,12500,6,6,0,6,0,1,,,,,,,,,,,,,,,,,,,,,,,,,,,,,,,,,,,,,,,
,,,,,,,,2023-08-06_08h46.06.781,HF_wild_card,2022.2.4,Win32,64.65795939,5fa5d1ec86ac6817fddaff05,64ce5acb97489d65b14ecc7a,64cf46a626a4b01c44514c0b,,,,,,,ctch,resources/DB.BMP,resources/DY.BMP,Door4,0.005555541,-0.010185206,1,0,0,3.5827,optionLeft,80,12580,6,7,0,7,0,1,,,,,,,,,,,,,,,,,,,,,,,,,,,,,,,,,,,,,,,
,,,,,,,,2023-08-06_08h46.06.781,HF_wild_card,2022.2.4,Win32,64.65795939,5fa5d1ec86ac6817fddaff05,64ce5acb97489d65b14ecc7a,64cf46a626a4b01c44514c0b,,,,,,,decisionTrl,resources/DB.BMP,resources/DR.BMP,Door3,0.374074159,-0.053703697,1,0,0,2.6494,optionRight,70,12650,6,8,0,8,0,1,,,,,,,,,,,,,,,,,,,,,,,,,,,,,,,,,,,,,,,
,,,,,,,,2023-08-06_08h46.06.781,HF_wild_card,2022.2.4,Win32,64.65795939,5fa5d1ec86ac6817fddaff05,64ce5acb97489d65b14ecc7a,64cf46a626a4b01c44514c0b,,,,,,,decisionTrl,resources/DB.BMP,resources/DBN.BMP,Door4,-0.244444459,0.03611109,1,0,0,8.6093,optionLeft,60,12710,6,9,0,9,0,1,,,,,,,,,,,,,,,,,,,,,,,,,,,,,,,,,,,,,,,
,,,,,,,,2023-08-06_08h46.06.781,HF_wild_card,2022.2.4,Win32,64.65795939,5fa5d1ec86ac6817fddaff05,64ce5acb97489d65b14ecc7a,64cf46a626a4b01c44514c0b,,,,,,,ctch,resources/DR.BMP,resources/DG.BMP,Door3,0.010185171,0.009259259,1,0,0,3.3066,optionLeft,70,12780,6,10,0,10,0,1,,,,,,,,,,,,,,,,,,,,,,,,,,,,,,,,,,,,,,,
,,,,,,,,2023-08-06_08h46.06.781,HF_wild_card,2022.2.4,Win32,64.65795939,5fa5d1ec86ac6817fddaff05,64ce5acb97489d65b14ecc7a,64cf46a626a4b01c44514c0b,,,,,,,decisionTrl,resources/DG.BMP,resources/DY.BMP,Door1,0.412037037,-0.011111118,1,0,0,1.2058,optionRight,30,12810,6,11,0,11,0,1,,,,,,,,,,,,,,,,,,,,,,,,,,,,,,,,,,,,,,,
,,,,,,,,2023-08-06_08h46.06.781,HF_wild_card,2022.2.4,Win32,64.65795939,5fa5d1ec86ac6817fddaff05,64ce5acb97489d65b14ecc7a,64cf46a626a4b01c44514c0b,,,,,,,sngl,resources/Empty.png,resources/DBN.BMP,WildCard_NonEx,0.307407379,0.049074067,1,0,0,0.7574,optionRight,45,12855,6,12,0,12,0,1,,,,,,,,,,,,,,,,,,,,,,,,,,,,,,,,,,,,,,,
,,,,,,,,2023-08-06_08h46.06.781,HF_wild_card,2022.2.4,Win32,64.65795939,5fa5d1ec86ac6817fddaff05,64ce5acb97489d65b14ecc7a,64cf46a626a4b01c44514c0b,,,,,,,sngl,resources/Empty.png,resources/DR.BMP,Door3,0.273148148,0.025000007,1,0,0,3.3763,optionRight,70,12925,6,13,0,13,0,1,,,,,,,,,,,,,,,,,,,,,,,,,,,,,,,,,,,,,,,
,,,,,,,,2023-08-06_08h46.06.781,HF_wild_card,2022.2.4,Win32,64.65795939,5fa5d1ec86ac6817fddaff05,64ce5acb97489d65b14ecc7a,64cf46a626a4b01c44514c0b,,,,,,,ctch,resources/DB.BMP,resources/DY.BMP,Door4,-0.327777757,0.025000007,1,0,0,1.0143,optionLeft,80,13005,6,14,0,14,0,1,,,,,,,,,,,,,,,,,,,,,,,,,,,,,,,,,,,,,,,
,,,,,,,,2023-08-06_08h46.06.781,HF_wild_card,2022.2.4,Win32,64.65795939,5fa5d1ec86ac6817fddaff05,64ce5acb97489d65b14ecc7a,64cf46a626a4b01c44514c0b,,,,,,,decisionTrl,resources/DBN.BMP,resources/DG.BMP,WildCard_NonEx,0.013888889,-0.006481489,1,0,0,1.1054,optionLeft,55,13060,6,15,0,15,0,1,,,,,,,,,,,,,,,,,,,,,,,,,,,,,,,,,,,,,,,
,,,,,,,,2023-08-06_08h46.06.781,HF_wild_card,2022.2.4,Win32,64.65795939,5fa5d1ec86ac6817fddaff05,64ce5acb97489d65b14ecc7a,64cf46a626a4b01c44514c0b,,,,,,,decisionTrl,resources/DY.BMP,resources/DG.BMP,Door1,-0.306481467,-0.0074074,1,0,0,2.1888,optionLeft,30,13090,6,16,0,16,0,1,,,,,,,,,,,,,,,,,,,,,,,,,,,,,,,,,,,,,,,
,,,,,,,,2023-08-06_08h46.06.781,HF_wild_card,2022.2.4,Win32,64.65795939,5fa5d1ec86ac6817fddaff05,64ce5acb97489d65b14ecc7a,64cf46a626a4b01c44514c0b,,,,,,,decisionTrl,resources/DY.BMP,resources/DBN.BMP,WildCard_NonEx,0.160185213,0.011111118,1,0,0,14.715,optionRight,45,13135,6,17,0,17,0,1,,,,,,,,,,,,,,,,,,,,,,,,,,,,,,,,,,,,,,,
,,,,,,,,2023-08-06_08h46.06.781,HF_wild_card,2022.2.4,Win32,64.65795939,5fa5d1ec86ac6817fddaff05,64ce5acb97489d65b14ecc7a,64cf46a626a4b01c44514c0b,,,,,,,decisionTrl,resources/DY.BMP,resources/DG.BMP,Door1,-0.420370349,-0.012962977,1,0,0,1.7981,optionLeft,30,13165,6,18,0,18,0,1,,,,,,,,,,,,,,,,,,,,,,,,,,,,,,,,,,,,,,,
,,,,,,,,2023-08-06_08h46.06.781,HF_wild_card,2022.2.4,Win32,64.65795939,5fa5d1ec86ac6817fddaff05,64ce5acb97489d65b14ecc7a,64cf46a626a4b01c44514c0b,,,,,,,decisionTrl,resources/DB.BMP,resources/DR.BMP,Door3,0.259259259,-0.037962984,1,0,0,4.1256,optionRight,70,13235,6,19,0,19,0,1,,,,,,,,,,,,,,,,,,,,,,,,,,,,,,,,,,,,,,,
,,,,,,,,2023-08-06_08h46.06.781,HF_wild_card,2022.2.4,Win32,64.65795939,5fa5d1ec86ac6817fddaff05,64ce5acb97489d65b14ecc7a,64cf46a626a4b01c44514c0b,,,,,,,decisionTrl,resources/DBN.BMP,resources/DB.BMP,Door4,0.35555564,-0.062037044,1,0,0,1.672,optionRight,60,13295,6,20,0,20,0,1,,,,,,,,,,,,,,,,,,,,,,,,,,,,,,,,,,,,,,,
,,,,,,,,2023-08-06_08h46.06.781,HF_wild_card,2022.2.4,Win32,64.65795939,5fa5d1ec86ac6817fddaff05,64ce5acb97489d65b14ecc7a,64cf46a626a4b01c44514c0b,,,,,,,sngl,resources/DG.BMP,resources/Empty.png,Door2,-0.564814815,0.017592571,1,0,0,0.8293,optionLeft,20,13315,6,21,0,21,0,1,,,,,,,,,,,,,,,,,,,,,,,,,,,,,,,,,,,,,,,
,,,,,,,,2023-08-06_08h46.06.781,HF_wild_card,2022.2.4,Win32,64.65795939,5fa5d1ec86ac6817fddaff05,64ce5acb97489d65b14ecc7a,64cf46a626a4b01c44514c0b,,,,,,,decisionTrl,resources/DB.BMP,resources/DR.BMP,Door4,-0.232407393,0.015740748,1,0,0,3.0589,optionLeft,80,13395,6,22,0,22,0,1,,,,,,,,,,,,,,,,,,,,,,,,,,,,,,,,,,,,,,,
,,,,,,,,2023-08-06_08h46.06.781,HF_wild_card,2022.2.4,Win32,64.65795939,5fa5d1ec86ac6817fddaff05,64ce5acb97489d65b14ecc7a,64cf46a626a4b01c44514c0b,,,,,,,decisionTrl,resources/DR.BMP,resources/DB.BMP,Door4,0.273148148,-0.028703725,1,0,0,0.9458,optionRight,60,13455,6,23,0,23,0,1,,,,,,,,,,,,,,,,,,,,,,,,,,,,,,,,,,,,,,,
,,,,,,,,2023-08-06_08h46.06.781,HF_wild_card,2022.2.4,Win32,64.65795939,5fa5d1ec86ac6817fddaff05,64ce5acb97489d65b14ecc7a,64cf46a626a4b01c44514c0b,,,,,,,decisionTrl,resources/DB.BMP,resources/DR.BMP,Door4,-0.435185185,0.025000007,1,0,0,0.9378,optionLeft,60,13515,6,24,0,24,0,1,,,,,,,,,,,,,,,,,,,,,,,,,,,,,,,,,,,,,,,
,,,,,,,,2023-08-06_08h46.06.781,HF_wild_card,2022.2.4,Win32,64.65795939,5fa5d1ec86ac6817fddaff05,64ce5acb97489d65b14ecc7a,64cf46a626a4b01c44514c0b,,,,,,,decisionTrl,resources/DY.BMP,resources/DG.BMP,Door1,-0.227777764,0.001851859,1,0,0,1.0745,optionLeft,30,13545,6,25,0,25,0,1,,,,,,,,,,,,,,,,,,,,,,,,,,,,,,,,,,,,,,,
,,,,,,,,2023-08-06_08h46.06.781,HF_wild_card,2022.2.4,Win32,64.65795939,5fa5d1ec86ac6817fddaff05,64ce5acb97489d65b14ecc7a,64cf46a626a4b01c44514c0b,,,,,,,decisionTrl,resources/DR.BMP,resources/DB.BMP,Door3,-0.323148127,-0.083333333,1,0,0,1.4959,optionLeft,70,13615,6,26,0,26,0,1,,,,,,,,,,,,,,,,,,,,,,,,,,,,,,,,,,,,,,,
,,,,,,,,2023-08-06_08h46.06.781,HF_wild_card,2022.2.4,Win32,64.65795939,5fa5d1ec86ac6817fddaff05,64ce5acb97489d65b14ecc7a,64cf46a626a4b01c44514c0b,,,,,,,sngl,resources/Empty.png,resources/DBN.BMP,WildCard_NonEx,0.35555564,0.04074072,1,0,0,0.9555,optionRight,55,13670,6,27,0,27,0,1,,,,,,,,,,,,,,,,,,,,,,,,,,,,,,,,,,,,,,,
,,,,,,,,2023-08-06_08h46.06.781,HF_wild_card,2022.2.4,Win32,64.65795939,5fa5d1ec86ac6817fddaff05,64ce5acb97489d65b14ecc7a,64cf46a626a4b01c44514c0b,,,,,,,sngl,resources/Empty.png,resources/DY.BMP,Door1,0.52870376,-0.046296296,1,0,0,1.0912,optionRight,30,13700,6,28,0,28,0,1,,,,,,,,,,,,,,,,,,,,,,,,,,,,,,,,,,,,,,,
,,,,,,,,2023-08-06_08h46.06.781,HF_wild_card,2022.2.4,Win32,64.65795939,5fa5d1ec86ac6817fddaff05,64ce5acb97489d65b14ecc7a,64cf46a626a4b01c44514c0b,,,,,,,decisionTrl,resources/DG.BMP,resources/DBN.BMP,WildCard_NonEx,0.352777834,-0.022222236,1,0,0,1.4715,optionRight,55,13755,6,29,0,29,0,1,,,,,,,,,,,,,,,,,,,,,,,,,,,,,,,,,,,,,,,
,,,,,,,,2023-08-06_08h46.06.781,HF_wild_card,2022.2.4,Win32,64.65795939,5fa5d1ec86ac6817fddaff05,64ce5acb97489d65b14ecc7a,64cf46a626a4b01c44514c0b,,,,,,,decisionTrl,resources/DR.BMP,resources/DB.BMP,Door3,-0.292592578,0.030555548,1,0,0,0.9965,optionLeft,70,13825,6,30,0,30,0,1,,,,,,,,,,,,,,,,,,,,,,,,,,,,,,,,,,,,,,,
,,,,,,,,2023-08-06_08h46.06.781,HF_wild_card,2022.2.4,Win32,64.65795939,5fa5d1ec86ac6817fddaff05,64ce5acb97489d65b14ecc7a,64cf46a626a4b01c44514c0b,,,,,,,decisionTrl,resources/DR.BMP,resources/DBN.BMP,Door3,-0.37962963,0.034259266,1,0,0,0.8471,optionLeft,70,13895,6,31,0,31,0,1,,,,,,,,,,,,,,,,,,,,,,,,,,,,,,,,,,,,,,,
,,,,,,,,2023-08-06_08h46.06.781,HF_wild_card,2022.2.4,Win32,64.65795939,5fa5d1ec86ac6817fddaff05,64ce5acb97489d65b14ecc7a,64cf46a626a4b01c44514c0b,,,,,,,ctch,resources/DY.BMP,resources/DB.BMP,Door4,0.276851866,-0.022222236,1,0,0,1.7857,optionRight,60,13955,6,32,0,32,0,1,,,,,,,,,,,,,,,,,,,,,,,,,,,,,,,,,,,,,,,
,,,,,,,,2023-08-06_08h46.06.781,HF_wild_card,2022.2.4,Win32,64.65795939,5fa5d1ec86ac6817fddaff05,64ce5acb97489d65b14ecc7a,64cf46a626a4b01c44514c0b,,,,,,,ctch,resources/DG.BMP,resources/DR.BMP,Door3,0.420370455,0.023148148,1,0,0,1.914,optionRight,70,14025,6,33,0,33,0,1,,,,,,,,,,,,,,,,,,,,,,,,,,,,,,,,,,,,,,,
,,,,,,,,2023-08-06_08h46.06.781,HF_wild_card,2022.2.4,Win32,64.65795939,5fa5d1ec86ac6817fddaff05,64ce5acb97489d65b14ecc7a,64cf46a626a4b01c44514c0b,,,,,,,decisionTrl,resources/DR.BMP,resources/DB.BMP,Door3,-0.012962977,0.013888889,1,0,0,2.8154,optionLeft,70,14095,6,34,0,34,0,1,,,,,,,,,,,,,,,,,,,,,,,,,,,,,,,,,,,,,,,
,,,,,,,,2023-08-06_08h46.06.781,HF_wild_card,2022.2.4,Win32,64.65795939,5fa5d1ec86ac6817fddaff05,64ce5acb97489d65b14ecc7a,64cf46a626a4b01c44514c0b,,,,,,,ctch,resources/DR.BMP,resources/DG.BMP,Door3,-0.19722218,-0.055555556,1,0,0,12.962,optionLeft,70,14165,6,35,0,35,0,1,,,,,,,,,,,,,,,,,,,,,,,,,,,,,,,,,,,,,,,
,,,,,,,,2023-08-06_08h46.06.781,HF_wild_card,2022.2.4,Win32,64.65795939,5fa5d1ec86ac6817fddaff05,64ce5acb97489d65b14ecc7a,64cf46a626a4b01c44514c0b,,,,,,,sngl,resources/DBN.BMP,resources/Empty.png,WildCard_NonEx,0.01944443,0.0074074,1,0,0,44.3451,optionLeft,45,14210,6,36,0,36,0,1,,,,,,,,,,,,,,,,,,,,,,,,,,,,,,,,,,,,,,,
,,,,,,,,2023-08-06_08h46.06.781,HF_wild_card,2022.2.4,Win32,64.65795939,5fa5d1ec86ac6817fddaff05,64ce5acb97489d65b14ecc7a,64cf46a626a4b01c44514c0b,,,,,,,sngl,resources/Empty.png,resources/DB.BMP,Door4,0.373148176,0.0074074,1,0,0,1.432,optionRight,80,14290,6,37,0,37,0,1,,,,,,,,,,,,,,,,,,,,,,,,,,,,,,,,,,,,,,,
,,,,,,,,2023-08-06_08h46.06.781,HF_wild_card,2022.2.4,Win32,64.65795939,5fa5d1ec86ac6817fddaff05,64ce5acb97489d65b14ecc7a,64cf46a626a4b01c44514c0b,,,,,,,decisionTrl,resources/DY.BMP,resources/DG.BMP,Door1,-0.242592564,-0.015740748,1,0,0,2.5645,optionLeft,30,14320,6,38,0,38,0,1,,,,,,,,,,,,,,,,,,,,,,,,,,,,,,,,,,,,,,,
,,,,,,,,2023-08-06_08h46.06.781,HF_wild_card,2022.2.4,Win32,64.65795939,5fa5d1ec86ac6817fddaff05,64ce5acb97489d65b14ecc7a,64cf46a626a4b01c44514c0b,,,,,,,decisionTrl,resources/DG.BMP,resources/DY.BMP,Door1,0.553703732,0.061111097,1,0,0,1.5139,optionRight,30,14350,6,39,0,39,0,1,,,,,,,,,,,,,,,,,,,,,,,,,,,,,,,,,,,,,,,
,,,,,,,,2023-08-06_08h46.06.781,HF_wild_card,2022.2.4,Win32,64.65795939,5fa5d1ec86ac6817fddaff05,64ce5acb97489d65b14ecc7a,64cf46a626a4b01c44514c0b,,,,,,,sngl,resources/DY.BMP,resources/Empty.png,Door1,-0.290740755,-0.062037044,1,0,0,4.1642,optionLeft,30,14380,6,40,0,40,0,1,,,,,,,,,,,,,,,,,,,,,,,,,,,,,,,,,,,,,,,
,,,,,,,,2023-08-06_08h46.06.781,HF_wild_card,2022.2.4,Win32,64.65795939,5fa5d1ec86ac6817fddaff05,64ce5acb97489d65b14ecc7a,64cf46a626a4b01c44514c0b,,,,,,,ctch,resources/DG.BMP,resources/DR.BMP,Door3,0.317592621,0.038888896,1,0,0,1.1979,optionRight,70,14450,6,41,0,41,0,1,,,,,,,,,,,,,,,,,,,,,,,,,,,,,,,,,,,,,,,
,,,,,,,,2023-08-06_08h46.06.781,HF_wild_card,2022.2.4,Win32,64.65795939,5fa5d1ec86ac6817fddaff05,64ce5acb97489d65b14ecc7a,64cf46a626a4b01c44514c0b,,,,,,,sngl,resources/DB.BMP,resources/Empty.png,Door4,-0.260185171,-0.054629644,1,0,0,3.9823,optionLeft,60,14510,6,42,0,42,0,1,,,,,,,,,,,,,,,,,,,,,,,,,,,,,,,,,,,,,,,
,,,,,,,,2023-08-06_08h46.06.781,HF_wild_card,2022.2.4,Win32,64.65795939,5fa5d1ec86ac6817fddaff05,64ce5acb97489d65b14ecc7a,64cf46a626a4b01c44514c0b,,,,,,,sngl,resources/DBN.BMP,resources/Empty.png,WildCard_NonEx,-0.249074088,-0.042592614,1,0,0,1.3145,optionLeft,55,14565,6,43,0,43,0,1,,,,,,,,,,,,,,,,,,,,,,,,,,,,,,,,,,,,,,,
,,,,,,,,2023-08-06_08h46.06.781,HF_wild_card,2022.2.4,Win32,64.65795939,5fa5d1ec86ac6817fddaff05,64ce5acb97489d65b14ecc7a,64cf46a626a4b01c44514c0b,,,,,,,,,,,,,,,,,,,,,,,,,,5,0,5,0,1,,,,,,,,,,,,,,,,,,,,,,,,,,,,,,,,,,
,,,,,,,,2023-08-06_08h46.06.781,HF_wild_card,2022.2.4,Win32,64.65795939,5fa5d1ec86ac6817fddaff05,64ce5acb97489d65b14ecc7a,64cf46a626a4b01c44514c0b,,,,,,,decisionTrl,resources/DY.BMP,resources/DG.BMP,Door1,-0.3675926,-0.042592614,1,0,0,1.1099,optionLeft,30,14595,7,0,0,0,0,1,,,,,,,,,,,,,,,,,,,,,,,,,,,,,,,,,,,,,,,
,,,,,,,,2023-08-06_08h46.06.781,HF_wild_card,2022.2.4,Win32,64.65795939,5fa5d1ec86ac6817fddaff05,64ce5acb97489d65b14ecc7a,64cf46a626a4b01c44514c0b,,,,,,,decisionTrl,resources/DB.BMP,resources/DR.BMP,Door3,0.327777863,0.04074072,1,0,0,2.4926,optionRight,70,14665,7,1,0,1,0,1,,,,,,,,,,,,,,,,,,,,,,,,,,,,,,,,,,,,,,,
,,,,,,,,2023-08-06_08h46.06.781,HF_wild_card,2022.2.4,Win32,64.65795939,5fa5d1ec86ac6817fddaff05,64ce5acb97489d65b14ecc7a,64cf46a626a4b01c44514c0b,,,,,,,decisionTrl,resources/DR.BMP,resources/DB.BMP,Door3,-0.324999986,-0.079629651,1,0,0,3.0459,optionLeft,70,14735,7,2,0,2,0,1,,,,,,,,,,,,,,,,,,,,,,,,,,,,,,,,,,,,,,,
,,,,,,,,2023-08-06_08h46.06.781,HF_wild_card,2022.2.4,Win32,64.65795939,5fa5d1ec86ac6817fddaff05,64ce5acb97489d65b14ecc7a,64cf46a626a4b01c44514c0b,,,,,,,decisionTrl,resources/DR.BMP,resources/DB.BMP,Door3,-0.248148106,-0.047222243,1,0,0,2.4656,optionLeft,70,14805,7,3,0,3,0,1,,,,,,,,,,,,,,,,,,,,,,,,,,,,,,,,,,,,,,,
,,,,,,,,2023-08-06_08h46.06.781,HF_wild_card,2022.2.4,Win32,64.65795939,5fa5d1ec86ac6817fddaff05,64ce5acb97489d65b14ecc7a,64cf46a626a4b01c44514c0b,,,,,,,decisionTrl,resources/DG.BMP,resources/DY.BMP,Door1,0.27407406,0.057407414,1,0,0,3.892,optionRight,30,14835,7,4,0,4,0,1,,,,,,,,,,,,,,,,,,,,,,,,,,,,,,,,,,,,,,,
,,,,,,,,2023-08-06_08h46.06.781,HF_wild_card,2022.2.4,Win32,64.65795939,5fa5d1ec86ac6817fddaff05,64ce5acb97489d65b14ecc7a,64cf46a626a4b01c44514c0b,,,,,,,decisionTrl,resources/DB.BMP,resources/DR.BMP,Door3,0.281481496,0.081481474,1,0,0,5.142,optionRight,70,14905,7,5,0,5,0,1,,,,,,,,,,,,,,,,,,,,,,,,,,,,,,,,,,,,,,,
,,,,,,,,2023-08-06_08h46.06.781,HF_wild_card,2022.2.4,Win32,64.65795939,5fa5d1ec86ac6817fddaff05,64ce5acb97489d65b14ecc7a,64cf46a626a4b01c44514c0b,,,,,,,decisionTrl,resources/DR.BMP,resources/DB.BMP,Door3,-0.331481474,0.014814801,1,0,0,0.8886,optionLeft,70,14975,7,6,0,6,0,1,,,,,,,,,,,,,,,,,,,,,,,,,,,,,,,,,,,,,,,
,,,,,,,,2023-08-06_08h46.06.781,HF_wild_card,2022.2.4,Win32,64.65795939,5fa5d1ec86ac6817fddaff05,64ce5acb97489d65b14ecc7a,64cf46a626a4b01c44514c0b,,,,,,,ctch,resources/DR.BMP,resources/DG.BMP,Door3,-0.400925919,-0.018518519,1,0,0,0.8068,optionLeft,70,15045,7,7,0,7,0,1,,,,,,,,,,,,,,,,,,,,,,,,,,,,,,,,,,,,,,,
,,,,,,,,2023-08-06_08h46.06.781,HF_wild_card,2022.2.4,Win32,64.65795939,5fa5d1ec86ac6817fddaff05,64ce5acb97489d65b14ecc7a,64cf46a626a4b01c44514c0b,,,,,,,ctch,resources/DB.BMP,resources/DY.BMP,Door4,-0.482407393,-0.011111118,1,0,0,0.8647,optionLeft,80,15125,7,8,0,8,0,1,,,,,,,,,,,,,,,,,,,,,,,,,,,,,,,,,,,,,,,
,,,,,,,,2023-08-06_08h46.06.781,HF_wild_card,2022.2.4,Win32,64.65795939,5fa5d1ec86ac6817fddaff05,64ce5acb97489d65b14ecc7a,64cf46a626a4b01c44514c0b,,,,,,,decisionTrl,resources/DB.BMP,resources/DR.BMP,Door3,0.240740741,0.021296289,1,0,0,1.6515,optionRight,70,15195,7,9,0,9,0,1,,,,,,,,,,,,,,,,,,,,,,,,,,,,,,,,,,,,,,,
,,,,,,,,2023-08-06_08h46.06.781,HF_wild_card,2022.2.4,Win32,64.65795939,5fa5d1ec86ac6817fddaff05,64ce5acb97489d65b14ecc7a,64cf46a626a4b01c44514c0b,,,,,,,decisionTrl,resources/DY.BMP,resources/DG.BMP,Door1,-0.587962963,-0.060185185,1,0,0,4.5777,optionLeft,30,15225,7,10,0,10,0,1,,,,,,,,,,,,,,,,,,,,,,,,,,,,,,,,,,,,,,,
,,,,,,,,2023-08-06_08h46.06.781,HF_wild_card,2022.2.4,Win32,64.65795939,5fa5d1ec86ac6817fddaff05,64ce5acb97489d65b14ecc7a,64cf46a626a4b01c44514c0b,,,,,,,decisionTrl,resources/DB.BMP,resources/DR.BMP,Door3,0.271296325,0.047222208,1,0,0,4.5336,optionRight,70,15295,7,11,0,11,0,1,,,,,,,,,,,,,,,,,,,,,,,,,,,,,,,,,,,,,,,
,,,,,,,,2023-08-06_08h46.06.781,HF_wild_card,2022.2.4,Win32,64.65795939,5fa5d1ec86ac6817fddaff05,64ce5acb97489d65b14ecc7a,64cf46a626a4b01c44514c0b,,,,,,,decisionTrl,resources/DB.BMP,resources/DR.BMP,Door3,0.383333418,0.022222201,1,0,0,5.446,optionRight,70,15365,7,12,0,12,0,1,,,,,,,,,,,,,,,,,,,,,,,,,,,,,,,,,,,,,,,
,,,,,,,,2023-08-06_08h46.06.781,HF_wild_card,2022.2.4,Win32,64.65795939,5fa5d1ec86ac6817fddaff05,64ce5acb97489d65b14ecc7a,64cf46a626a4b01c44514c0b,,,,,,,ctch,resources/DY.BMP,resources/DB.BMP,Door4,0.276851866,0.025925919,1,0,0,3.5724,optionRight,60,15425,7,13,0,13,0,1,,,,,,,,,,,,,,,,,,,,,,,,,,,,,,,,,,,,,,,
,,,,,,,,2023-08-06_08h46.06.781,HF_wild_card,2022.2.4,Win32,64.65795939,5fa5d1ec86ac6817fddaff05,64ce5acb97489d65b14ecc7a,64cf46a626a4b01c44514c0b,,,,,,,ctch,resources/DR.BMP,resources/DG.BMP,Door3,-0.009259259,-0.013888889,1,0,0,1.8913,optionLeft,70,15495,7,14,0,14,0,1,,,,,,,,,,,,,,,,,,,,,,,,,,,,,,,,,,,,,,,
,,,,,,,,2023-08-06_08h46.06.781,HF_wild_card,2022.2.4,Win32,64.65795939,5fa5d1ec86ac6817fddaff05,64ce5acb97489d65b14ecc7a,64cf46a626a4b01c44514c0b,,,,,,,ctch,resources/DR.BMP,resources/DG.BMP,Door3,0.000925912,-0.001851859,1,0,0,1.5571,optionLeft,70,15565,7,15,0,15,0,1,,,,,,,,,,,,,,,,,,,,,,,,,,,,,,,,,,,,,,,
,,,,,,,,2023-08-06_08h46.06.781,HF_wild_card,2022.2.4,Win32,64.65795939,5fa5d1ec86ac6817fddaff05,64ce5acb97489d65b14ecc7a,64cf46a626a4b01c44514c0b,,,,,,,ctch,resources/DG.BMP,resources/DR.BMP,Door3,0.387963048,0.038888896,1,0,0,2.4253,optionRight,70,15635,7,16,0,16,0,1,,,,,,,,,,,,,,,,,,,,,,,,,,,,,,,,,,,,,,,
,,,,,,,,2023-08-06_08h46.06.781,HF_wild_card,2022.2.4,Win32,64.65795939,5fa5d1ec86ac6817fddaff05,64ce5acb97489d65b14ecc7a,64cf46a626a4b01c44514c0b,,,,,,,ctch,resources/DY.BMP,resources/DB.BMP,Door4,0.381481453,0.057407414,1,0,0,1.1366,optionRight,80,15715,7,17,0,17,0,1,,,,,,,,,,,,,,,,,,,,,,,,,,,,,,,,,,,,,,,
,,,,,,,,2023-08-06_08h46.06.781,HF_wild_card,2022.2.4,Win32,64.65795939,5fa5d1ec86ac6817fddaff05,64ce5acb97489d65b14ecc7a,64cf46a626a4b01c44514c0b,,,,,,,ctch,resources/DB.BMP,resources/DY.BMP,Door4,-0.308333326,-0.025925919,1,0,0,0.9883,optionLeft,80,15795,7,18,0,18,0,1,,,,,,,,,,,,,,,,,,,,,,,,,,,,,,,,,,,,,,,
,,,,,,,,2023-08-06_08h46.06.781,HF_wild_card,2022.2.4,Win32,64.65795939,5fa5d1ec86ac6817fddaff05,64ce5acb97489d65b14ecc7a,64cf46a626a4b01c44514c0b,,,,,,,decisionTrl,resources/DG.BMP,resources/DY.BMP,Door1,0.350000028,0.029629637,1,0,0,2.4526,optionRight,30,15825,7,19,0,19,0,1,,,,,,,,,,,,,,,,,,,,,,,,,,,,,,,,,,,,,,,
,,,,,,,,2023-08-06_08h46.06.781,HF_wild_card,2022.2.4,Win32,64.65795939,5fa5d1ec86ac6817fddaff05,64ce5acb97489d65b14ecc7a,64cf46a626a4b01c44514c0b,,,,,,,ctch,resources/DY.BMP,resources/DB.BMP,Door4,0.259259259,0.033333319,1,0,0,0.8977,optionRight,60,15885,7,20,0,20,0,1,,,,,,,,,,,,,,,,,,,,,,,,,,,,,,,,,,,,,,,
,,,,,,,,2023-08-06_08h46.06.781,HF_wild_card,2022.2.4,Win32,64.65795939,5fa5d1ec86ac6817fddaff05,64ce5acb97489d65b14ecc7a,64cf46a626a4b01c44514c0b,,,,,,,decisionTrl,resources/DR.BMP,resources/DB.BMP,Door3,-0.348148134,-0.053703697,1,0,0,0.9558,optionLeft,70,15955,7,21,0,21,0,1,,,,,,,,,,,,,,,,,,,,,,,,,,,,,,,,,,,,,,,
,,,,,,,,2023-08-06_08h46.06.781,HF_wild_card,2022.2.4,Win32,64.65795939,5fa5d1ec86ac6817fddaff05,64ce5acb97489d65b14ecc7a,64cf46a626a4b01c44514c0b,,,,,,,decisionTrl,resources/DG.BMP,resources/DY.BMP,Door1,0.458333333,0.03148146,1,0,0,1.0144,optionRight,30,15985,7,22,0,22,0,1,,,,,,,,,,,,,,,,,,,,,,,,,,,,,,,,,,,,,,,
,,,,,,,,2023-08-06_08h46.06.781,HF_wild_card,2022.2.4,Win32,64.65795939,5fa5d1ec86ac6817fddaff05,64ce5acb97489d65b14ecc7a,64cf46a626a4b01c44514c0b,,,,,,,decisionTrl,resources/DG.BMP,resources/DY.BMP,Door1,0.299074102,0.020370377,1,0,0,0.9079,optionRight,30,16015,7,23,0,23,0,1,,,,,,,,,,,,,,,,,,,,,,,,,,,,,,,,,,,,,,,
,,,,,,,,2023-08-06_08h46.06.781,HF_wild_card,2022.2.4,Win32,64.65795939,5fa5d1ec86ac6817fddaff05,64ce5acb97489d65b14ecc7a,64cf46a626a4b01c44514c0b,,,,,,,decisionTrl,resources/DG.BMP,resources/DY.BMP,Door1,0.010185171,0.003703683,1,0,0,2.9697,optionRight,30,16045,7,24,0,24,0,1,,,,,,,,,,,,,,,,,,,,,,,,,,,,,,,,,,,,,,,
,,,,,,,,2023-08-06_08h46.06.781,HF_wild_card,2022.2.4,Win32,64.65795939,5fa5d1ec86ac6817fddaff05,64ce5acb97489d65b14ecc7a,64cf46a626a4b01c44514c0b,,,,,,,decisionTrl,resources/DR.BMP,resources/DB.BMP,Door3,-0.273148148,-0.043518526,1,0,0,1.4813,optionLeft,70,16115,7,25,0,25,0,1,,,,,,,,,,,,,,,,,,,,,,,,,,,,,,,,,,,,,,,
,,,,,,,,2023-08-06_08h46.06.781,HF_wild_card,2022.2.4,Win32,64.65795939,5fa5d1ec86ac6817fddaff05,64ce5acb97489d65b14ecc7a,64cf46a626a4b01c44514c0b,,,,,,,ctch,resources/DB.BMP,resources/DY.BMP,Door4,-0.258333347,-0.024074095,1,0,0,1.5834,optionLeft,60,16175,7,26,0,26,0,1,,,,,,,,,,,,,,,,,,,,,,,,,,,,,,,,,,,,,,,
,,,,,,,,2023-08-06_08h46.06.781,HF_wild_card,2022.2.4,Win32,64.65795939,5fa5d1ec86ac6817fddaff05,64ce5acb97489d65b14ecc7a,64cf46a626a4b01c44514c0b,,,,,,,ctch,resources/DG.BMP,resources/DR.BMP,Door3,0.305555556,0.0074074,1,0,0,1.2232,optionRight,70,16245,7,27,0,27,0,1,,,,,,,,,,,,,,,,,,,,,,,,,,,,,,,,,,,,,,,
,,,,,,,,2023-08-06_08h46.06.781,HF_wild_card,2022.2.4,Win32,64.65795939,5fa5d1ec86ac6817fddaff05,64ce5acb97489d65b14ecc7a,64cf46a626a4b01c44514c0b,,,,,,,decisionTrl,resources/DY.BMP,resources/DG.BMP,Door1,-0.305555556,-0.038888896,1,0,0,1.9303,optionLeft,30,16275,7,28,0,28,0,1,,,,,,,,,,,,,,,,,,,,,,,,,,,,,,,,,,,,,,,
,,,,,,,,2023-08-06_08h46.06.781,HF_wild_card,2022.2.4,Win32,64.65795939,5fa5d1ec86ac6817fddaff05,64ce5acb97489d65b14ecc7a,64cf46a626a4b01c44514c0b,,,,,,,decisionTrl,resources/DR.BMP,resources/DB.BMP,Door3,-0.39166666,-0.063888903,1,0,0,1.2739,optionLeft,70,16345,7,29,0,29,0,1,,,,,,,,,,,,,,,,,,,,,,,,,,,,,,,,,,,,,,,
,,,,,,,,2023-08-06_08h46.06.781,HF_wild_card,2022.2.4,Win32,64.65795939,5fa5d1ec86ac6817fddaff05,64ce5acb97489d65b14ecc7a,64cf46a626a4b01c44514c0b,,,,,,,decisionTrl,resources/DB.BMP,resources/DR.BMP,Door3,0.443518603,0.011111118,1,0,0,2.1908,optionRight,70,16415,7,30,0,30,0,1,,,,,,,,,,,,,,,,,,,,,,,,,,,,,,,,,,,,,,,
,,,,,,,,2023-08-06_08h46.06.781,HF_wild_card,2022.2.4,Win32,64.65795939,5fa5d1ec86ac6817fddaff05,64ce5acb97489d65b14ecc7a,64cf46a626a4b01c44514c0b,,,,,,,ctch,resources/DG.BMP,resources/DR.BMP,Door3,0.412963019,0.030555548,1,0,0,1.3176,optionRight,70,16485,7,31,0,31,0,1,,,,,,,,,,,,,,,,,,,,,,,,,,,,,,,,,,,,,,,
,,,,,,,,2023-08-06_08h46.06.781,HF_wild_card,2022.2.4,Win32,64.65795939,5fa5d1ec86ac6817fddaff05,64ce5acb97489d65b14ecc7a,64cf46a626a4b01c44514c0b,,,,,,,decisionTrl,resources/DY.BMP,resources/DG.BMP,Door1,-0.251851824,-0.024074095,1,0,0,0.9116,optionLeft,30,16515,7,32,0,32,0,1,,,,,,,,,,,,,,,,,,,,,,,,,,,,,,,,,,,,,,,
,,,,,,,,2023-08-06_08h46.06.781,HF_wild_card,2022.2.4,Win32,64.65795939,5fa5d1ec86ac6817fddaff05,64ce5acb97489d65b14ecc7a,64cf46a626a4b01c44514c0b,,,,,,,decisionTrl,resources/DY.BMP,resources/DG.BMP,Door1,-0.337962963,-0.141666695,1,0,0,1.4989,optionLeft,30,16545,7,33,0,33,0,1,,,,,,,,,,,,,,,,,,,,,,,,,,,,,,,,,,,,,,,
,,,,,,,,2023-08-06_08h46.06.781,HF_wild_card,2022.2.4,Win32,64.65795939,5fa5d1ec86ac6817fddaff05,64ce5acb97489d65b14ecc7a,64cf46a626a4b01c44514c0b,,,,,,,decisionTrl,resources/DG.BMP,resources/DY.BMP,Door1,0.001851894,-0.01203703,1,0,0,1.982,optionRight,30,16575,7,34,0,34,0,1,,,,,,,,,,,,,,,,,,,,,,,,,,,,,,,,,,,,,,,
,,,,,,,,2023-08-06_08h46.06.781,HF_wild_card,2022.2.4,Win32,64.65795939,5fa5d1ec86ac6817fddaff05,64ce5acb97489d65b14ecc7a,64cf46a626a4b01c44514c0b,,,,,,,decisionTrl,resources/DY.BMP,resources/DG.BMP,Door1,0.001851894,-0.001851859,1,0,0,1.6484,optionLeft,30,16605,7,35,0,35,0,1,,,,,,,,,,,,,,,,,,,,,,,,,,,,,,,,,,,,,,,
,,,,,,,,2023-08-06_08h46.06.781,HF_wild_card,2022.2.4,Win32,64.65795939,5fa5d1ec86ac6817fddaff05,64ce5acb97489d65b14ecc7a,64cf46a626a4b01c44514c0b,,,,,,,,,,,,,,,,,,,,,,,,,,6,0,6,0,1,,,,,,,,,,,,,,,,,,,,,,,,,,,,,,,,,,
,,,,,,,,2023-08-06_08h46.06.781,HF_wild_card,2022.2.4,Win32,64.65795939,5fa5d1ec86ac6817fddaff05,64ce5acb97489d65b14ecc7a,64cf46a626a4b01c44514c0b,,,,,,,,,,,,,,,,,,,,,,,,,,,,,,,4,,,,,,,,,,,,,,,,,,,,,,,,,,,,,,,,,
,,,,,,,,2023-08-06_08h46.06.781,HF_wild_card,2022.2.4,Win32,64.65795939,5fa5d1ec86ac6817fddaff05,64ce5acb97489d65b14ecc7a,64cf46a626a4b01c44514c0b,,,,,,,,,,,,,,,,,,,,,,,,,,,,,,,,,,,,,,,,,,,,,,,,,,,,,,,,,,,,,,,,
,,,,,,,,2023-08-06_08h46.06.781,HF_wild_card,2022.2.4,Win32,64.65795939,5fa5d1ec86ac6817fddaff05,64ce5acb97489d65b14ecc7a,64cf46a626a4b01c44514c0b,,,,,,,,,,,,,,,,,,,,,,,,,,,,,,,,5,WC_extreme,resources/DP.BMP,0,0,0,0,1,,,,,,,,,,,,,,,,,,,,,,,,,
,,,,,,,,2023-08-06_08h46.06.781,HF_wild_card,2022.2.4,Win32,64.65795939,5fa5d1ec86ac6817fddaff05,64ce5acb97489d65b14ecc7a,64cf46a626a4b01c44514c0b,,,,,,,,,,,,,,,,,,,,,,,,,,,,,,,,70,Door3,resources/DR.BMP,1,0,1,0,1,,,,,,,,,,,,,,,,,,,,,,,,,
,,,,,,,,2023-08-06_08h46.06.781,HF_wild_card,2022.2.4,Win32,64.65795939,5fa5d1ec86ac6817fddaff05,64ce5acb97489d65b14ecc7a,64cf46a626a4b01c44514c0b,,,,,,,,,,,,,,,,,,,,,,,,,,,,,,,,30,Door1,resources/DY.BMP,2,0,2,0,1,,,,,,,,,,,,,,,,,,,,,,,,,
,,,,,,,,2023-08-06_08h46.06.781,HF_wild_card,2022.2.4,Win32,64.65795939,5fa5d1ec86ac6817fddaff05,64ce5acb97489d65b14ecc7a,64cf46a626a4b01c44514c0b,,,,,,,,,,,,,,,,,,,,,,,,,,,,,,,,35,WC_nonExtreme,resources/DBN.BMP,3,0,3,0,1,,,,,,,,,,,,,,,,,,,,,,,,,
,,,,,,,,2023-08-06_08h46.06.781,HF_wild_card,2022.2.4,Win32,64.65795939,5fa5d1ec86ac6817fddaff05,64ce5acb97489d65b14ecc7a,64cf46a626a4b01c44514c0b,,,,,,,,,,,,,,,,,,,,,,,,,,,,,,,,45,Door4,resources/DB.BMP,4,0,4,0,1,,,,,,,,,,,,,,,,,,,,,,,,,
,,,,,,,,2023-08-06_08h46.06.781,HF_wild_card,2022.2.4,Win32,64.65795939,5fa5d1ec86ac6817fddaff05,64ce5acb97489d65b14ecc7a,64cf46a626a4b01c44514c0b,,,,,,,,,,,,,,,,,,,,,,,,,,,,,,,,20,Door2,resources/DG.BMP,5,0,5,0,1,,,,,,,,,,,,,,,,,,,,,,,,,
,,,,,,,,2023-08-06_08h46.06.781,HF_wild_card,2022.2.4,Win32,64.65795939,5fa5d1ec86ac6817fddaff05,64ce5acb97489d65b14ecc7a,64cf46a626a4b01c44514c0b,,,,,,,,,,,,,,,,,,,,,,,,,,,,,,,,,,,,,,,,,,,,,,,,,,,,,,,,,,,,,,,,
,,,,,,,,2023-08-06_08h46.06.781,HF_wild_card,2022.2.4,Win32,64.65795939,5fa5d1ec86ac6817fddaff05,64ce5acb97489d65b14ecc7a,64cf46a626a4b01c44514c0b,,,,,,,,,,,,,,,,,,,,,,,,,,,,,,,,,,,,,,,,0,0,0,0,1,,,,,,,,,,,,,,,,,,,,
