Condition,Low fixed image (Door1),Low risky image (Door2),High fixed image (Door3),High risky image (Door4),Extreme Wild Card,NonExtreme Wild Card,,date,expName,psychopyVersion,OS,frameRate,PROLIFIC_PID,STUDY_ID,SESSION_ID,mouse_2.x,mouse_2.y,mouse_2.leftButton,mouse_2.midButton,mouse_2.rightButton,mouse_2.clicked_name,Trial Type,Left Option Image,Right Option Image,Chosen Door,mouse.x,mouse.y,mouse.leftButton,mouse.midButton,mouse.rightButton,mouse.time,mouse.clicked_name,Feedback,Cumulative Reward,Block,trial.thisRepN,trial.thisTrialN,trial.thisN,trial.thisIndex,trial.ran,blocks.thisRepN,blocks.thisTrialN,blocks.thisN,blocks.thisIndex,blocks.ran,Money conversion,First Outcome Reported,Shown Door (First Outcome),Displayed Image (First Outcome),outcomes.thisRepN,outcomes.thisTrialN,outcomes.thisN,outcomes.thisIndex,outcomes.ran,judgments.thisRepN,judgments.thisTrialN,judgments.thisN,judgments.thisIndex,judgments.ran,freqMouse.x,freqMouse.y,freqMouse.leftButton,freqMouse.midButton,freqMouse.rightButton,freqMouse.clicked_name,FQJ for first outcome,FQJ for second outcome,Shown Door,Displayed Image,trials.thisRepN,trials.thisTrialN,trials.thisN,trials.thisIndex,trials.ran,judgBlock.thisRepN,judgBlock.thisTrialN,judgBlock.thisN,judgBlock.thisIndex,judgBlock.ran
1,resources/DP.BMP,resources/DY.BMP,resources/DR.BMP,resources/DG.BMP,resources/DBN.BMP,resources/DB.BMP,,2023-08-06_08h28.03.245,HF_wild_card,2022.2.4,Win32,59.79788315,5e3b41c232667b35c717bdda,64ce5acb97489d65b14ecc7a,64cf4b6149702ec2f815bdb6,,,,,,,,,,,,,,,,,,,,,,,,,,,,,,,,,,,,,,,,,,,,,,,,,,,,,,,,,,,,,,,,
,,,,,,,,2023-08-06_08h28.03.245,HF_wild_card,2022.2.4,Win32,59.79788315,5e3b41c232667b35c717bdda,64ce5acb97489d65b14ecc7a,64cf4b6149702ec2f815bdb6,-0.014322917,-0.42578125,1,0,0,agree,,,,,,,,,,,,,,,,,,,,,,,,,,,,,,,,,,,,,,,,,,,,,,,,,,,,,,,,,,
,,,,,,,,2023-08-06_08h28.03.245,HF_wild_card,2022.2.4,Win32,59.79788315,5e3b41c232667b35c717bdda,64ce5acb97489d65b14ecc7a,64cf4b6149702ec2f815bdb6,,,,,,,,,,,,,,,,,,,,,,,,,,,,,,,,,,,,,,,,,,,,,,,,,,,,,,,,,,,,,,,,
,,,,,,,,2023-08-06_08h28.03.245,HF_wild_card,2022.2.4,Win32,59.79788315,5e3b41c232667b35c717bdda,64ce5acb97489d65b14ecc7a,64cf4b6149702ec2f815bdb6,,,,,,,ctch,resources/DR.BMP,resources/DY.BMP,Door2,0.377604167,0.001302083,1,0,0,5.0937,optionRight,40,40,1,0,0,0,0,1,,,,,,,,,,,,,,,,,,,,,,,,,,,,,,,,,,,,,,,
,,,,,,,,2023-08-06_08h28.03.245,HF_wild_card,2022.2.4,Win32,59.79788315,5e3b41c232667b35c717bdda,64ce5acb97489d65b14ecc7a,64cf4b6149702ec2f815bdb6,,,,,,,sngl,resources/DB.BMP,resources/Empty.png,WildCard_NonEx,-0.391927083,-0.018229167,1,0,0,3.4016,optionLeft,45,85,1,1,0,1,0,1,,,,,,,,,,,,,,,,,,,,,,,,,,,,,,,,,,,,,,,
,,,,,,,,2023-08-06_08h28.03.245,HF_wild_card,2022.2.4,Win32,59.79788315,5e3b41c232667b35c717bdda,64ce5acb97489d65b14ecc7a,64cf4b6149702ec2f815bdb6,,,,,,,sngl,resources/DR.BMP,resources/Empty.png,Door3,-0.401041667,-0.040364583,1,0,0,3.8002,optionLeft,70,155,1,2,0,2,0,1,,,,,,,,,,,,,,,,,,,,,,,,,,,,,,,,,,,,,,,
,,,,,,,,2023-08-06_08h28.03.245,HF_wild_card,2022.2.4,Win32,59.79788315,5e3b41c232667b35c717bdda,64ce5acb97489d65b14ecc7a,64cf4b6149702ec2f815bdb6,,,,,,,decisionTrl,resources/DY.BMP,resources/DP.BMP,Door2,-0.391927083,-0.013020833,1,0,0,2.8728,optionLeft,40,195,1,3,0,3,0,1,,,,,,,,,,,,,,,,,,,,,,,,,,,,,,,,,,,,,,,
,,,,,,,,2023-08-06_08h28.03.245,HF_wild_card,2022.2.4,Win32,59.79788315,5e3b41c232667b35c717bdda,64ce5acb97489d65b14ecc7a,64cf4b6149702ec2f815bdb6,,,,,,,ctch,resources/DR.BMP,resources/DY.BMP,Door3,-0.399739583,-0.049479167,1,0,0,2.9795,optionLeft,70,265,1,4,0,4,0,1,,,,,,,,,,,,,,,,,,,,,,,,,,,,,,,,,,,,,,,
,,,,,,,,2023-08-06_08h28.03.245,HF_wild_card,2022.2.4,Win32,59.79788315,5e3b41c232667b35c717bdda,64ce5acb97489d65b14ecc7a,64cf4b6149702ec2f815bdb6,,,,,,,sngl,resources/Empty.png,resources/DY.BMP,Door2,0.401041667,-0.013020833,1,0,0,1.8449,optionRight,20,285,1,5,0,5,0,1,,,,,,,,,,,,,,,,,,,,,,,,,,,,,,,,,,,,,,,
,,,,,,,,2023-08-06_08h28.03.245,HF_wild_card,2022.2.4,Win32,59.79788315,5e3b41c232667b35c717bdda,64ce5acb97489d65b14ecc7a,64cf4b6149702ec2f815bdb6,,,,,,,decisionTrl,resources/DB.BMP,resources/DG.BMP,Door4,0.397135417,-0.01953125,1,0,0,2.6785,optionRight,80,365,1,6,0,6,0,1,,,,,,,,,,,,,,,,,,,,,,,,,,,,,,,,,,,,,,,
,,,,,,,,2023-08-06_08h28.03.245,HF_wild_card,2022.2.4,Win32,59.79788315,5e3b41c232667b35c717bdda,64ce5acb97489d65b14ecc7a,64cf4b6149702ec2f815bdb6,,,,,,,decisionTrl,resources/DB.BMP,resources/DR.BMP,Door3,0.368489583,-0.033854167,1,0,0,2.7134,optionRight,70,435,1,7,0,7,0,1,,,,,,,,,,,,,,,,,,,,,,,,,,,,,,,,,,,,,,,
,,,,,,,,2023-08-06_08h28.03.245,HF_wild_card,2022.2.4,Win32,59.79788315,5e3b41c232667b35c717bdda,64ce5acb97489d65b14ecc7a,64cf4b6149702ec2f815bdb6,,,,,,,ctch,resources/DG.BMP,resources/DP.BMP,Door1,0.381510417,-0.020833333,1,0,0,2.5656,optionRight,30,465,1,8,0,8,0,1,,,,,,,,,,,,,,,,,,,,,,,,,,,,,,,,,,,,,,,
,,,,,,,,2023-08-06_08h28.03.245,HF_wild_card,2022.2.4,Win32,59.79788315,5e3b41c232667b35c717bdda,64ce5acb97489d65b14ecc7a,64cf4b6149702ec2f815bdb6,,,,,,,decisionTrl,resources/DG.BMP,resources/DR.BMP,Door4,-0.416666667,-0.029947917,1,0,0,1.7652,optionLeft,80,545,1,9,0,9,0,1,,,,,,,,,,,,,,,,,,,,,,,,,,,,,,,,,,,,,,,
,,,,,,,,2023-08-06_08h28.03.245,HF_wild_card,2022.2.4,Win32,59.79788315,5e3b41c232667b35c717bdda,64ce5acb97489d65b14ecc7a,64cf4b6149702ec2f815bdb6,,,,,,,decisionTrl,resources/DY.BMP,resources/DP.BMP,Door2,-0.408854167,-0.006510417,1,0,0,2.2638,optionLeft,40,585,1,10,0,10,0,1,,,,,,,,,,,,,,,,,,,,,,,,,,,,,,,,,,,,,,,
,,,,,,,,2023-08-06_08h28.03.245,HF_wild_card,2022.2.4,Win32,59.79788315,5e3b41c232667b35c717bdda,64ce5acb97489d65b14ecc7a,64cf4b6149702ec2f815bdb6,,,,,,,decisionTrl,resources/DG.BMP,resources/DR.BMP,Door4,-0.381510417,-0.04296875,1,0,0,2.4034,optionLeft,60,645,1,11,0,11,0,1,,,,,,,,,,,,,,,,,,,,,,,,,,,,,,,,,,,,,,,
,,,,,,,,2023-08-06_08h28.03.245,HF_wild_card,2022.2.4,Win32,59.79788315,5e3b41c232667b35c717bdda,64ce5acb97489d65b14ecc7a,64cf4b6149702ec2f815bdb6,,,,,,,decisionTrl,resources/DR.BMP,resources/DG.BMP,Door4,0.397135417,-0.036458333,1,0,0,2.6775,optionRight,60,705,1,12,0,12,0,1,,,,,,,,,,,,,,,,,,,,,,,,,,,,,,,,,,,,,,,
,,,,,,,,2023-08-06_08h28.03.245,HF_wild_card,2022.2.4,Win32,59.79788315,5e3b41c232667b35c717bdda,64ce5acb97489d65b14ecc7a,64cf4b6149702ec2f815bdb6,,,,,,,sngl,resources/Empty.png,resources/DB.BMP,WildCard_NonEx,0.411458333,-0.01953125,1,0,0,1.1448,optionRight,55,760,1,13,0,13,0,1,,,,,,,,,,,,,,,,,,,,,,,,,,,,,,,,,,,,,,,
,,,,,,,,2023-08-06_08h28.03.245,HF_wild_card,2022.2.4,Win32,59.79788315,5e3b41c232667b35c717bdda,64ce5acb97489d65b14ecc7a,64cf4b6149702ec2f815bdb6,,,,,,,decisionTrl,resources/DR.BMP,resources/DG.BMP,Door3,-0.40234375,-0.05078125,1,0,0,2.3663,optionLeft,70,830,1,14,0,14,0,1,,,,,,,,,,,,,,,,,,,,,,,,,,,,,,,,,,,,,,,
,,,,,,,,2023-08-06_08h28.03.245,HF_wild_card,2022.2.4,Win32,59.79788315,5e3b41c232667b35c717bdda,64ce5acb97489d65b14ecc7a,64cf4b6149702ec2f815bdb6,,,,,,,decisionTrl,resources/DB.BMP,resources/DP.BMP,Door1,0.408854167,-0.028645833,1,0,0,2.0294,optionRight,30,860,1,15,0,15,0,1,,,,,,,,,,,,,,,,,,,,,,,,,,,,,,,,,,,,,,,
,,,,,,,,2023-08-06_08h28.03.245,HF_wild_card,2022.2.4,Win32,59.79788315,5e3b41c232667b35c717bdda,64ce5acb97489d65b14ecc7a,64cf4b6149702ec2f815bdb6,,,,,,,decisionTrl,resources/DP.BMP,resources/DY.BMP,Door2,0.38671875,-0.014322917,1,0,0,1.1972,optionRight,20,880,1,16,0,16,0,1,,,,,,,,,,,,,,,,,,,,,,,,,,,,,,,,,,,,,,,
,,,,,,,,2023-08-06_08h28.03.245,HF_wild_card,2022.2.4,Win32,59.79788315,5e3b41c232667b35c717bdda,64ce5acb97489d65b14ecc7a,64cf4b6149702ec2f815bdb6,,,,,,,sngl,resources/DG.BMP,resources/Empty.png,Door4,-0.403645833,-0.040364583,1,0,0,1.2212,optionLeft,80,960,1,17,0,17,0,1,,,,,,,,,,,,,,,,,,,,,,,,,,,,,,,,,,,,,,,
,,,,,,,,2023-08-06_08h28.03.245,HF_wild_card,2022.2.4,Win32,59.79788315,5e3b41c232667b35c717bdda,64ce5acb97489d65b14ecc7a,64cf4b6149702ec2f815bdb6,,,,,,,sngl,resources/DY.BMP,resources/Empty.png,Door2,-0.399739583,-0.01953125,1,0,0,1.1108,optionLeft,40,1000,1,18,0,18,0,1,,,,,,,,,,,,,,,,,,,,,,,,,,,,,,,,,,,,,,,
,,,,,,,,2023-08-06_08h28.03.245,HF_wild_card,2022.2.4,Win32,59.79788315,5e3b41c232667b35c717bdda,64ce5acb97489d65b14ecc7a,64cf4b6149702ec2f815bdb6,,,,,,,ctch,resources/DP.BMP,resources/DG.BMP,Door4,0.399739583,-0.01171875,1,0,0,1.4485,optionRight,60,1060,1,19,0,19,0,1,,,,,,,,,,,,,,,,,,,,,,,,,,,,,,,,,,,,,,,
,,,,,,,,2023-08-06_08h28.03.245,HF_wild_card,2022.2.4,Win32,59.79788315,5e3b41c232667b35c717bdda,64ce5acb97489d65b14ecc7a,64cf4b6149702ec2f815bdb6,,,,,,,ctch,resources/DG.BMP,resources/DP.BMP,Door4,-0.385416667,-0.013020833,1,0,0,1.3661,optionLeft,60,1120,1,20,0,20,0,1,,,,,,,,,,,,,,,,,,,,,,,,,,,,,,,,,,,,,,,
,,,,,,,,2023-08-06_08h28.03.245,HF_wild_card,2022.2.4,Win32,59.79788315,5e3b41c232667b35c717bdda,64ce5acb97489d65b14ecc7a,64cf4b6149702ec2f815bdb6,,,,,,,decisionTrl,resources/DR.BMP,resources/DG.BMP,Door3,-0.411458333,-0.022135417,1,0,0,2.5629,optionLeft,70,1190,1,21,0,21,0,1,,,,,,,,,,,,,,,,,,,,,,,,,,,,,,,,,,,,,,,
,,,,,,,,2023-08-06_08h28.03.245,HF_wild_card,2022.2.4,Win32,59.79788315,5e3b41c232667b35c717bdda,64ce5acb97489d65b14ecc7a,64cf4b6149702ec2f815bdb6,,,,,,,decisionTrl,resources/DG.BMP,resources/DR.BMP,Door3,0.388020833,-0.016927083,1,0,0,1.2629,optionRight,70,1260,1,22,0,22,0,1,,,,,,,,,,,,,,,,,,,,,,,,,,,,,,,,,,,,,,,
,,,,,,,,2023-08-06_08h28.03.245,HF_wild_card,2022.2.4,Win32,59.79788315,5e3b41c232667b35c717bdda,64ce5acb97489d65b14ecc7a,64cf4b6149702ec2f815bdb6,,,,,,,decisionTrl,resources/DR.BMP,resources/DB.BMP,Door3,-0.40234375,-0.014322917,1,0,0,1.6118,optionLeft,70,1330,1,23,0,23,0,1,,,,,,,,,,,,,,,,,,,,,,,,,,,,,,,,,,,,,,,
,,,,,,,,2023-08-06_08h28.03.245,HF_wild_card,2022.2.4,Win32,59.79788315,5e3b41c232667b35c717bdda,64ce5acb97489d65b14ecc7a,64cf4b6149702ec2f815bdb6,,,,,,,ctch,resources/DY.BMP,resources/DR.BMP,Door3,0.401041667,-0.029947917,1,0,0,1.164,optionRight,70,1400,1,24,0,24,0,1,,,,,,,,,,,,,,,,,,,,,,,,,,,,,,,,,,,,,,,
,,,,,,,,2023-08-06_08h28.03.245,HF_wild_card,2022.2.4,Win32,59.79788315,5e3b41c232667b35c717bdda,64ce5acb97489d65b14ecc7a,64cf4b6149702ec2f815bdb6,,,,,,,decisionTrl,resources/DY.BMP,resources/DP.BMP,Door1,0.40625,-0.03515625,1,0,0,1.5963,optionRight,30,1430,1,25,0,25,0,1,,,,,,,,,,,,,,,,,,,,,,,,,,,,,,,,,,,,,,,
,,,,,,,,2023-08-06_08h28.03.245,HF_wild_card,2022.2.4,Win32,59.79788315,5e3b41c232667b35c717bdda,64ce5acb97489d65b14ecc7a,64cf4b6149702ec2f815bdb6,,,,,,,sngl,resources/Empty.png,resources/DB.BMP,WildCard_NonEx,0.419270833,-0.005208333,1,0,0,0.7967,optionRight,45,1475,1,26,0,26,0,1,,,,,,,,,,,,,,,,,,,,,,,,,,,,,,,,,,,,,,,
,,,,,,,,2023-08-06_08h28.03.245,HF_wild_card,2022.2.4,Win32,59.79788315,5e3b41c232667b35c717bdda,64ce5acb97489d65b14ecc7a,64cf4b6149702ec2f815bdb6,,,,,,,sngl,resources/DB.BMP,resources/Empty.png,WildCard_NonEx,-0.37109375,-0.036458333,1,0,0,0.9654,optionLeft,55,1530,1,27,0,27,0,1,,,,,,,,,,,,,,,,,,,,,,,,,,,,,,,,,,,,,,,
,,,,,,,,2023-08-06_08h28.03.245,HF_wild_card,2022.2.4,Win32,59.79788315,5e3b41c232667b35c717bdda,64ce5acb97489d65b14ecc7a,64cf4b6149702ec2f815bdb6,,,,,,,decisionTrl,resources/DG.BMP,resources/DR.BMP,Door3,0.329427083,-0.02734375,1,0,0,1.2626,optionRight,70,1600,1,28,0,28,0,1,,,,,,,,,,,,,,,,,,,,,,,,,,,,,,,,,,,,,,,
,,,,,,,,2023-08-06_08h28.03.245,HF_wild_card,2022.2.4,Win32,59.79788315,5e3b41c232667b35c717bdda,64ce5acb97489d65b14ecc7a,64cf4b6149702ec2f815bdb6,,,,,,,decisionTrl,resources/DP.BMP,resources/DY.BMP,Door2,0.350260417,-0.03515625,1,0,0,0.6795,optionRight,40,1640,1,29,0,29,0,1,,,,,,,,,,,,,,,,,,,,,,,,,,,,,,,,,,,,,,,
,,,,,,,,2023-08-06_08h28.03.245,HF_wild_card,2022.2.4,Win32,59.79788315,5e3b41c232667b35c717bdda,64ce5acb97489d65b14ecc7a,64cf4b6149702ec2f815bdb6,,,,,,,decisionTrl,resources/DB.BMP,resources/DY.BMP,Door2,0.373697917,-0.022135417,1,0,0,0.5974,optionRight,40,1680,1,30,0,30,0,1,,,,,,,,,,,,,,,,,,,,,,,,,,,,,,,,,,,,,,,
,,,,,,,,2023-08-06_08h28.03.245,HF_wild_card,2022.2.4,Win32,59.79788315,5e3b41c232667b35c717bdda,64ce5acb97489d65b14ecc7a,64cf4b6149702ec2f815bdb6,,,,,,,ctch,resources/DP.BMP,resources/DG.BMP,Door4,0.384114583,-0.028645833,1,0,0,0.6953,optionRight,60,1740,1,31,0,31,0,1,,,,,,,,,,,,,,,,,,,,,,,,,,,,,,,,,,,,,,,
,,,,,,,,2023-08-06_08h28.03.245,HF_wild_card,2022.2.4,Win32,59.79788315,5e3b41c232667b35c717bdda,64ce5acb97489d65b14ecc7a,64cf4b6149702ec2f815bdb6,,,,,,,ctch,resources/DY.BMP,resources/DR.BMP,Door3,0.35546875,-0.014322917,1,0,0,0.5968,optionRight,70,1810,1,32,0,32,0,1,,,,,,,,,,,,,,,,,,,,,,,,,,,,,,,,,,,,,,,
,,,,,,,,2023-08-06_08h28.03.245,HF_wild_card,2022.2.4,Win32,59.79788315,5e3b41c232667b35c717bdda,64ce5acb97489d65b14ecc7a,64cf4b6149702ec2f815bdb6,,,,,,,sngl,resources/DP.BMP,resources/Empty.png,Door1,-0.39453125,-0.049479167,1,0,0,0.6632,optionLeft,30,1840,1,33,0,33,0,1,,,,,,,,,,,,,,,,,,,,,,,,,,,,,,,,,,,,,,,
,,,,,,,,2023-08-06_08h28.03.245,HF_wild_card,2022.2.4,Win32,59.79788315,5e3b41c232667b35c717bdda,64ce5acb97489d65b14ecc7a,64cf4b6149702ec2f815bdb6,,,,,,,decisionTrl,resources/DY.BMP,resources/DB.BMP,Door2,-0.372395833,-0.028645833,1,0,0,1.4972,optionLeft,40,1880,1,34,0,34,0,1,,,,,,,,,,,,,,,,,,,,,,,,,,,,,,,,,,,,,,,
,,,,,,,,2023-08-06_08h28.03.245,HF_wild_card,2022.2.4,Win32,59.79788315,5e3b41c232667b35c717bdda,64ce5acb97489d65b14ecc7a,64cf4b6149702ec2f815bdb6,,,,,,,sngl,resources/Empty.png,resources/DP.BMP,Door1,0.390625,-0.002604167,1,0,0,0.7978,optionRight,30,1910,1,35,0,35,0,1,,,,,,,,,,,,,,,,,,,,,,,,,,,,,,,,,,,,,,,
,,,,,,,,2023-08-06_08h28.03.245,HF_wild_card,2022.2.4,Win32,59.79788315,5e3b41c232667b35c717bdda,64ce5acb97489d65b14ecc7a,64cf4b6149702ec2f815bdb6,,,,,,,sngl,resources/Empty.png,resources/DR.BMP,Door3,0.38671875,-0.041666667,1,0,0,1.6583,optionRight,70,1980,1,36,0,36,0,1,,,,,,,,,,,,,,,,,,,,,,,,,,,,,,,,,,,,,,,
,,,,,,,,2023-08-06_08h28.03.245,HF_wild_card,2022.2.4,Win32,59.79788315,5e3b41c232667b35c717bdda,64ce5acb97489d65b14ecc7a,64cf4b6149702ec2f815bdb6,,,,,,,decisionTrl,resources/DP.BMP,resources/DY.BMP,Door1,-0.444010417,-0.0078125,1,0,0,1.7495,optionLeft,30,2010,1,37,0,37,0,1,,,,,,,,,,,,,,,,,,,,,,,,,,,,,,,,,,,,,,,
,,,,,,,,2023-08-06_08h28.03.245,HF_wild_card,2022.2.4,Win32,59.79788315,5e3b41c232667b35c717bdda,64ce5acb97489d65b14ecc7a,64cf4b6149702ec2f815bdb6,,,,,,,decisionTrl,resources/DR.BMP,resources/DG.BMP,Door3,-0.423177083,-0.024739583,1,0,0,1.7269,optionLeft,70,2080,1,38,0,38,0,1,,,,,,,,,,,,,,,,,,,,,,,,,,,,,,,,,,,,,,,
,,,,,,,,2023-08-06_08h28.03.245,HF_wild_card,2022.2.4,Win32,59.79788315,5e3b41c232667b35c717bdda,64ce5acb97489d65b14ecc7a,64cf4b6149702ec2f815bdb6,,,,,,,sngl,resources/Empty.png,resources/DG.BMP,Door4,0.40234375,0.014322917,1,0,0,2.1111,optionRight,60,2140,1,39,0,39,0,1,,,,,,,,,,,,,,,,,,,,,,,,,,,,,,,,,,,,,,,
,,,,,,,,2023-08-06_08h28.03.245,HF_wild_card,2022.2.4,Win32,59.79788315,5e3b41c232667b35c717bdda,64ce5acb97489d65b14ecc7a,64cf4b6149702ec2f815bdb6,,,,,,,decisionTrl,resources/DP.BMP,resources/DB.BMP,WildCard_NonEx,0.37890625,-0.013020833,1,0,0,1.6451,optionRight,45,2185,1,40,0,40,0,1,,,,,,,,,,,,,,,,,,,,,,,,,,,,,,,,,,,,,,,
,,,,,,,,2023-08-06_08h28.03.245,HF_wild_card,2022.2.4,Win32,59.79788315,5e3b41c232667b35c717bdda,64ce5acb97489d65b14ecc7a,64cf4b6149702ec2f815bdb6,,,,,,,decisionTrl,resources/DP.BMP,resources/DY.BMP,Door2,0.403645833,-0.03125,1,0,0,1.6651,optionRight,20,2205,1,41,0,41,0,1,,,,,,,,,,,,,,,,,,,,,,,,,,,,,,,,,,,,,,,
,,,,,,,,2023-08-06_08h28.03.245,HF_wild_card,2022.2.4,Win32,59.79788315,5e3b41c232667b35c717bdda,64ce5acb97489d65b14ecc7a,64cf4b6149702ec2f815bdb6,,,,,,,decisionTrl,resources/DY.BMP,resources/DP.BMP,Door1,0.388020833,-0.026041667,1,0,0,2.4958,optionRight,30,2235,1,42,0,42,0,1,,,,,,,,,,,,,,,,,,,,,,,,,,,,,,,,,,,,,,,
,,,,,,,,2023-08-06_08h28.03.245,HF_wild_card,2022.2.4,Win32,59.79788315,5e3b41c232667b35c717bdda,64ce5acb97489d65b14ecc7a,64cf4b6149702ec2f815bdb6,,,,,,,decisionTrl,resources/DG.BMP,resources/DB.BMP,Door4,-0.372395833,-0.020833333,1,0,0,1.2223,optionLeft,80,2315,1,43,0,43,0,1,,,,,,,,,,,,,,,,,,,,,,,,,,,,,,,,,,,,,,,
,,,,,,,,2023-08-06_08h28.03.245,HF_wild_card,2022.2.4,Win32,59.79788315,5e3b41c232667b35c717bdda,64ce5acb97489d65b14ecc7a,64cf4b6149702ec2f815bdb6,,,,,,,,,,,,,,,,,,,,,,,,,,0,0,0,0,1,,,,,,,,,,,,,,,,,,,,,,,,,,,,,,,,,,
,,,,,,,,2023-08-06_08h28.03.245,HF_wild_card,2022.2.4,Win32,59.79788315,5e3b41c232667b35c717bdda,64ce5acb97489d65b14ecc7a,64cf4b6149702ec2f815bdb6,,,,,,,sngl,resources/Empty.png,resources/DB.BMP,WildCard_NonEx,0.385416667,-0.014322917,1,0,0,1.0893,optionRight,45,2360,2,0,0,0,0,1,,,,,,,,,,,,,,,,,,,,,,,,,,,,,,,,,,,,,,,
,,,,,,,,2023-08-06_08h28.03.245,HF_wild_card,2022.2.4,Win32,59.79788315,5e3b41c232667b35c717bdda,64ce5acb97489d65b14ecc7a,64cf4b6149702ec2f815bdb6,,,,,,,decisionTrl,resources/DR.BMP,resources/DG.BMP,Door3,-0.407552083,-0.029947917,1,0,0,0.9377,optionLeft,70,2430,2,1,0,1,0,1,,,,,,,,,,,,,,,,,,,,,,,,,,,,,,,,,,,,,,,
,,,,,,,,2023-08-06_08h28.03.245,HF_wild_card,2022.2.4,Win32,59.79788315,5e3b41c232667b35c717bdda,64ce5acb97489d65b14ecc7a,64cf4b6149702ec2f815bdb6,,,,,,,decisionTrl,resources/DB.BMP,resources/DP.BMP,WildCard_NonEx,-0.3984375,-0.0390625,1,0,0,1.0932,optionLeft,55,2485,2,2,0,2,0,1,,,,,,,,,,,,,,,,,,,,,,,,,,,,,,,,,,,,,,,
,,,,,,,,2023-08-06_08h28.03.245,HF_wild_card,2022.2.4,Win32,59.79788315,5e3b41c232667b35c717bdda,64ce5acb97489d65b14ecc7a,64cf4b6149702ec2f815bdb6,,,,,,,ctch,resources/DR.BMP,resources/DY.BMP,Door3,-0.390625,-0.048177083,1,0,0,1.0809,optionLeft,70,2555,2,3,0,3,0,1,,,,,,,,,,,,,,,,,,,,,,,,,,,,,,,,,,,,,,,
,,,,,,,,2023-08-06_08h28.03.245,HF_wild_card,2022.2.4,Win32,59.79788315,5e3b41c232667b35c717bdda,64ce5acb97489d65b14ecc7a,64cf4b6149702ec2f815bdb6,,,,,,,sngl,resources/Empty.png,resources/DY.BMP,Door2,0.401041667,-0.029947917,1,0,0,0.9819,optionRight,40,2595,2,4,0,4,0,1,,,,,,,,,,,,,,,,,,,,,,,,,,,,,,,,,,,,,,,
,,,,,,,,2023-08-06_08h28.03.245,HF_wild_card,2022.2.4,Win32,59.79788315,5e3b41c232667b35c717bdda,64ce5acb97489d65b14ecc7a,64cf4b6149702ec2f815bdb6,,,,,,,ctch,resources/DR.BMP,resources/DY.BMP,Door3,-0.397135417,-0.053385417,1,0,0,0.8424,optionLeft,70,2665,2,5,0,5,0,1,,,,,,,,,,,,,,,,,,,,,,,,,,,,,,,,,,,,,,,
,,,,,,,,2023-08-06_08h28.03.245,HF_wild_card,2022.2.4,Win32,59.79788315,5e3b41c232667b35c717bdda,64ce5acb97489d65b14ecc7a,64cf4b6149702ec2f815bdb6,,,,,,,decisionTrl,resources/DY.BMP,resources/DP.BMP,Door2,-0.408854167,-0.033854167,1,0,0,1.0316,optionLeft,20,2685,2,6,0,6,0,1,,,,,,,,,,,,,,,,,,,,,,,,,,,,,,,,,,,,,,,
,,,,,,,,2023-08-06_08h28.03.245,HF_wild_card,2022.2.4,Win32,59.79788315,5e3b41c232667b35c717bdda,64ce5acb97489d65b14ecc7a,64cf4b6149702ec2f815bdb6,,,,,,,ctch,resources/DY.BMP,resources/DR.BMP,Door3,0.389322917,-0.024739583,1,0,0,0.8057,optionRight,70,2755,2,7,0,7,0,1,,,,,,,,,,,,,,,,,,,,,,,,,,,,,,,,,,,,,,,
,,,,,,,,2023-08-06_08h28.03.245,HF_wild_card,2022.2.4,Win32,59.79788315,5e3b41c232667b35c717bdda,64ce5acb97489d65b14ecc7a,64cf4b6149702ec2f815bdb6,,,,,,,sngl,resources/Empty.png,resources/DG.BMP,Door4,0.411458333,-0.005208333,1,0,0,0.9133,optionRight,80,2835,2,8,0,8,0,1,,,,,,,,,,,,,,,,,,,,,,,,,,,,,,,,,,,,,,,
,,,,,,,,2023-08-06_08h28.03.245,HF_wild_card,2022.2.4,Win32,59.79788315,5e3b41c232667b35c717bdda,64ce5acb97489d65b14ecc7a,64cf4b6149702ec2f815bdb6,,,,,,,decisionTrl,resources/DG.BMP,resources/DB.BMP,Door4,-0.368489583,-0.022135417,1,0,0,0.7739,optionLeft,60,2895,2,9,0,9,0,1,,,,,,,,,,,,,,,,,,,,,,,,,,,,,,,,,,,,,,,
,,,,,,,,2023-08-06_08h28.03.245,HF_wild_card,2022.2.4,Win32,59.79788315,5e3b41c232667b35c717bdda,64ce5acb97489d65b14ecc7a,64cf4b6149702ec2f815bdb6,,,,,,,ctch,resources/DG.BMP,resources/DP.BMP,Door4,-0.36328125,-0.029947917,1,0,0,0.7627,optionLeft,80,2975,2,10,0,10,0,1,,,,,,,,,,,,,,,,,,,,,,,,,,,,,,,,,,,,,,,
,,,,,,,,2023-08-06_08h28.03.245,HF_wild_card,2022.2.4,Win32,59.79788315,5e3b41c232667b35c717bdda,64ce5acb97489d65b14ecc7a,64cf4b6149702ec2f815bdb6,,,,,,,decisionTrl,resources/DG.BMP,resources/DR.BMP,Door3,0.373697917,-0.016927083,1,0,0,1.0644,optionRight,70,3045,2,11,0,11,0,1,,,,,,,,,,,,,,,,,,,,,,,,,,,,,,,,,,,,,,,
,,,,,,,,2023-08-06_08h28.03.245,HF_wild_card,2022.2.4,Win32,59.79788315,5e3b41c232667b35c717bdda,64ce5acb97489d65b14ecc7a,64cf4b6149702ec2f815bdb6,,,,,,,sngl,resources/DY.BMP,resources/Empty.png,Door2,-0.380208333,-0.013020833,1,0,0,0.8853,optionLeft,20,3065,2,12,0,12,0,1,,,,,,,,,,,,,,,,,,,,,,,,,,,,,,,,,,,,,,,
,,,,,,,,2023-08-06_08h28.03.245,HF_wild_card,2022.2.4,Win32,59.79788315,5e3b41c232667b35c717bdda,64ce5acb97489d65b14ecc7a,64cf4b6149702ec2f815bdb6,,,,,,,decisionTrl,resources/DY.BMP,resources/DP.BMP,Door1,0.34765625,-0.016927083,1,0,0,1.1985,optionRight,30,3095,2,13,0,13,0,1,,,,,,,,,,,,,,,,,,,,,,,,,,,,,,,,,,,,,,,
,,,,,,,,2023-08-06_08h28.03.245,HF_wild_card,2022.2.4,Win32,59.79788315,5e3b41c232667b35c717bdda,64ce5acb97489d65b14ecc7a,64cf4b6149702ec2f815bdb6,,,,,,,decisionTrl,resources/DY.BMP,resources/DP.BMP,Door1,0.369791667,-0.0234375,1,0,0,0.8334,optionRight,30,3125,2,14,0,14,0,1,,,,,,,,,,,,,,,,,,,,,,,,,,,,,,,,,,,,,,,
,,,,,,,,2023-08-06_08h28.03.245,HF_wild_card,2022.2.4,Win32,59.79788315,5e3b41c232667b35c717bdda,64ce5acb97489d65b14ecc7a,64cf4b6149702ec2f815bdb6,,,,,,,ctch,resources/DG.BMP,resources/DP.BMP,Door4,-0.37109375,-0.001302083,1,0,0,0.9144,optionLeft,80,3205,2,15,0,15,0,1,,,,,,,,,,,,,,,,,,,,,,,,,,,,,,,,,,,,,,,
,,,,,,,,2023-08-06_08h28.03.245,HF_wild_card,2022.2.4,Win32,59.79788315,5e3b41c232667b35c717bdda,64ce5acb97489d65b14ecc7a,64cf4b6149702ec2f815bdb6,,,,,,,decisionTrl,resources/DB.BMP,resources/DY.BMP,WildCard_NonEx,-0.4140625,-0.03515625,1,0,0,1.1357,optionLeft,45,3250,2,16,0,16,0,1,,,,,,,,,,,,,,,,,,,,,,,,,,,,,,,,,,,,,,,
,,,,,,,,2023-08-06_08h28.03.245,HF_wild_card,2022.2.4,Win32,59.79788315,5e3b41c232667b35c717bdda,64ce5acb97489d65b14ecc7a,64cf4b6149702ec2f815bdb6,,,,,,,sngl,resources/DP.BMP,resources/Empty.png,Door1,-0.37109375,-0.024739583,1,0,0,0.7175,optionLeft,30,3280,2,17,0,17,0,1,,,,,,,,,,,,,,,,,,,,,,,,,,,,,,,,,,,,,,,
,,,,,,,,2023-08-06_08h28.03.245,HF_wild_card,2022.2.4,Win32,59.79788315,5e3b41c232667b35c717bdda,64ce5acb97489d65b14ecc7a,64cf4b6149702ec2f815bdb6,,,,,,,sngl,resources/DR.BMP,resources/Empty.png,Door3,-0.3828125,-0.045572917,1,0,0,0.8428,optionLeft,70,3350,2,18,0,18,0,1,,,,,,,,,,,,,,,,,,,,,,,,,,,,,,,,,,,,,,,
,,,,,,,,2023-08-06_08h28.03.245,HF_wild_card,2022.2.4,Win32,59.79788315,5e3b41c232667b35c717bdda,64ce5acb97489d65b14ecc7a,64cf4b6149702ec2f815bdb6,,,,,,,decisionTrl,resources/DB.BMP,resources/DG.BMP,Door4,0.397135417,0.032552083,1,0,0,1.8298,optionRight,80,3430,2,19,0,19,0,1,,,,,,,,,,,,,,,,,,,,,,,,,,,,,,,,,,,,,,,
,,,,,,,,2023-08-06_08h28.03.245,HF_wild_card,2022.2.4,Win32,59.79788315,5e3b41c232667b35c717bdda,64ce5acb97489d65b14ecc7a,64cf4b6149702ec2f815bdb6,,,,,,,decisionTrl,resources/DY.BMP,resources/DB.BMP,WildCard_NonEx,0.385416667,-0.033854167,1,0,0,1.0479,optionRight,55,3485,2,20,0,20,0,1,,,,,,,,,,,,,,,,,,,,,,,,,,,,,,,,,,,,,,,
,,,,,,,,2023-08-06_08h28.03.245,HF_wild_card,2022.2.4,Win32,59.79788315,5e3b41c232667b35c717bdda,64ce5acb97489d65b14ecc7a,64cf4b6149702ec2f815bdb6,,,,,,,decisionTrl,resources/DG.BMP,resources/DR.BMP,Door3,0.37890625,-0.020833333,1,0,0,1.1566,optionRight,70,3555,2,21,0,21,0,1,,,,,,,,,,,,,,,,,,,,,,,,,,,,,,,,,,,,,,,
,,,,,,,,2023-08-06_08h28.03.245,HF_wild_card,2022.2.4,Win32,59.79788315,5e3b41c232667b35c717bdda,64ce5acb97489d65b14ecc7a,64cf4b6149702ec2f815bdb6,,,,,,,decisionTrl,resources/DP.BMP,resources/DY.BMP,Door1,-0.411458333,-0.06640625,1,0,0,1.3021,optionLeft,30,3585,2,22,0,22,0,1,,,,,,,,,,,,,,,,,,,,,,,,,,,,,,,,,,,,,,,
,,,,,,,,2023-08-06_08h28.03.245,HF_wild_card,2022.2.4,Win32,59.79788315,5e3b41c232667b35c717bdda,64ce5acb97489d65b14ecc7a,64cf4b6149702ec2f815bdb6,,,,,,,decisionTrl,resources/DR.BMP,resources/DG.BMP,Door4,0.380208333,0.0234375,1,0,0,1.7003,optionRight,80,3665,2,23,0,23,0,1,,,,,,,,,,,,,,,,,,,,,,,,,,,,,,,,,,,,,,,
,,,,,,,,2023-08-06_08h28.03.245,HF_wild_card,2022.2.4,Win32,59.79788315,5e3b41c232667b35c717bdda,64ce5acb97489d65b14ecc7a,64cf4b6149702ec2f815bdb6,,,,,,,decisionTrl,resources/DP.BMP,resources/DB.BMP,WildCard_NonEx,0.37890625,-0.03125,1,0,0,0.9787,optionRight,55,3720,2,24,0,24,0,1,,,,,,,,,,,,,,,,,,,,,,,,,,,,,,,,,,,,,,,
,,,,,,,,2023-08-06_08h28.03.245,HF_wild_card,2022.2.4,Win32,59.79788315,5e3b41c232667b35c717bdda,64ce5acb97489d65b14ecc7a,64cf4b6149702ec2f815bdb6,,,,,,,decisionTrl,resources/DP.BMP,resources/DY.BMP,Door1,-0.385416667,-0.032552083,1,0,0,1.4236,optionLeft,30,3750,2,25,0,25,0,1,,,,,,,,,,,,,,,,,,,,,,,,,,,,,,,,,,,,,,,
,,,,,,,,2023-08-06_08h28.03.245,HF_wild_card,2022.2.4,Win32,59.79788315,5e3b41c232667b35c717bdda,64ce5acb97489d65b14ecc7a,64cf4b6149702ec2f815bdb6,,,,,,,ctch,resources/DP.BMP,resources/DG.BMP,Door4,0.389322917,0.020833333,1,0,0,1.4634,optionRight,60,3810,2,26,0,26,0,1,,,,,,,,,,,,,,,,,,,,,,,,,,,,,,,,,,,,,,,
,,,,,,,,2023-08-06_08h28.03.245,HF_wild_card,2022.2.4,Win32,59.79788315,5e3b41c232667b35c717bdda,64ce5acb97489d65b14ecc7a,64cf4b6149702ec2f815bdb6,,,,,,,sngl,resources/Empty.png,resources/DR.BMP,Door3,0.3671875,-0.006510417,1,0,0,0.7501,optionRight,70,3880,2,27,0,27,0,1,,,,,,,,,,,,,,,,,,,,,,,,,,,,,,,,,,,,,,,
,,,,,,,,2023-08-06_08h28.03.245,HF_wild_card,2022.2.4,Win32,59.79788315,5e3b41c232667b35c717bdda,64ce5acb97489d65b14ecc7a,64cf4b6149702ec2f815bdb6,,,,,,,ctch,resources/DY.BMP,resources/DR.BMP,Door3,0.31640625,-0.01171875,1,0,0,1.1927,optionRight,70,3950,2,28,0,28,0,1,,,,,,,,,,,,,,,,,,,,,,,,,,,,,,,,,,,,,,,
,,,,,,,,2023-08-06_08h28.03.245,HF_wild_card,2022.2.4,Win32,59.79788315,5e3b41c232667b35c717bdda,64ce5acb97489d65b14ecc7a,64cf4b6149702ec2f815bdb6,,,,,,,decisionTrl,resources/DG.BMP,resources/DR.BMP,Door4,-0.02734375,0.040364583,1,0,0,0.8471,optionLeft,60,4010,2,29,0,29,0,1,,,,,,,,,,,,,,,,,,,,,,,,,,,,,,,,,,,,,,,
,,,,,,,,2023-08-06_08h28.03.245,HF_wild_card,2022.2.4,Win32,59.79788315,5e3b41c232667b35c717bdda,64ce5acb97489d65b14ecc7a,64cf4b6149702ec2f815bdb6,,,,,,,sngl,resources/DB.BMP,resources/Empty.png,WildCard_NonEx,-0.403645833,-0.04296875,1,0,0,0.8644,optionLeft,45,4055,2,30,0,30,0,1,,,,,,,,,,,,,,,,,,,,,,,,,,,,,,,,,,,,,,,
,,,,,,,,2023-08-06_08h28.03.245,HF_wild_card,2022.2.4,Win32,59.79788315,5e3b41c232667b35c717bdda,64ce5acb97489d65b14ecc7a,64cf4b6149702ec2f815bdb6,,,,,,,decisionTrl,resources/DP.BMP,resources/DY.BMP,Door1,-0.3671875,-0.03515625,1,0,0,1.2369,optionLeft,30,4085,2,31,0,31,0,1,,,,,,,,,,,,,,,,,,,,,,,,,,,,,,,,,,,,,,,
,,,,,,,,2023-08-06_08h28.03.245,HF_wild_card,2022.2.4,Win32,59.79788315,5e3b41c232667b35c717bdda,64ce5acb97489d65b14ecc7a,64cf4b6149702ec2f815bdb6,,,,,,,sngl,resources/DB.BMP,resources/Empty.png,WildCard_NonEx,-0.40625,-0.033854167,1,0,0,0.768,optionLeft,55,4140,2,32,0,32,0,1,,,,,,,,,,,,,,,,,,,,,,,,,,,,,,,,,,,,,,,
,,,,,,,,2023-08-06_08h28.03.245,HF_wild_card,2022.2.4,Win32,59.79788315,5e3b41c232667b35c717bdda,64ce5acb97489d65b14ecc7a,64cf4b6149702ec2f815bdb6,,,,,,,decisionTrl,resources/DR.BMP,resources/DG.BMP,Door3,-0.420572917,-0.032552083,1,0,0,3.0509,optionLeft,70,4210,2,33,0,33,0,1,,,,,,,,,,,,,,,,,,,,,,,,,,,,,,,,,,,,,,,
,,,,,,,,2023-08-06_08h28.03.245,HF_wild_card,2022.2.4,Win32,59.79788315,5e3b41c232667b35c717bdda,64ce5acb97489d65b14ecc7a,64cf4b6149702ec2f815bdb6,,,,,,,ctch,resources/DP.BMP,resources/DG.BMP,Door4,0.430989583,0.009114583,1,0,0,2.0736,optionRight,80,4290,2,34,0,34,0,1,,,,,,,,,,,,,,,,,,,,,,,,,,,,,,,,,,,,,,,
,,,,,,,,2023-08-06_08h28.03.245,HF_wild_card,2022.2.4,Win32,59.79788315,5e3b41c232667b35c717bdda,64ce5acb97489d65b14ecc7a,64cf4b6149702ec2f815bdb6,,,,,,,sngl,resources/Empty.png,resources/DB.BMP,WildCard_NonEx,0.403645833,-0.006510417,1,0,0,0.98,optionRight,55,4345,2,35,0,35,0,1,,,,,,,,,,,,,,,,,,,,,,,,,,,,,,,,,,,,,,,
,,,,,,,,2023-08-06_08h28.03.245,HF_wild_card,2022.2.4,Win32,59.79788315,5e3b41c232667b35c717bdda,64ce5acb97489d65b14ecc7a,64cf4b6149702ec2f815bdb6,,,,,,,decisionTrl,resources/DB.BMP,resources/DR.BMP,Door3,0.380208333,-0.022135417,1,0,0,1.0024,optionRight,70,4415,2,36,0,36,0,1,,,,,,,,,,,,,,,,,,,,,,,,,,,,,,,,,,,,,,,
,,,,,,,,2023-08-06_08h28.03.245,HF_wild_card,2022.2.4,Win32,59.79788315,5e3b41c232667b35c717bdda,64ce5acb97489d65b14ecc7a,64cf4b6149702ec2f815bdb6,,,,,,,decisionTrl,resources/DP.BMP,resources/DY.BMP,Door1,-0.385416667,-0.057291667,1,0,0,1.2151,optionLeft,30,4445,2,37,0,37,0,1,,,,,,,,,,,,,,,,,,,,,,,,,,,,,,,,,,,,,,,
,,,,,,,,2023-08-06_08h28.03.245,HF_wild_card,2022.2.4,Win32,59.79788315,5e3b41c232667b35c717bdda,64ce5acb97489d65b14ecc7a,64cf4b6149702ec2f815bdb6,,,,,,,decisionTrl,resources/DY.BMP,resources/DP.BMP,Door1,0.40234375,-0.026041667,1,0,0,1.0437,optionRight,30,4475,2,38,0,38,0,1,,,,,,,,,,,,,,,,,,,,,,,,,,,,,,,,,,,,,,,
,,,,,,,,2023-08-06_08h28.03.245,HF_wild_card,2022.2.4,Win32,59.79788315,5e3b41c232667b35c717bdda,64ce5acb97489d65b14ecc7a,64cf4b6149702ec2f815bdb6,,,,,,,decisionTrl,resources/DG.BMP,resources/DR.BMP,Door4,-0.3671875,-0.055989583,1,0,0,1.3978,optionLeft,80,4555,2,39,0,39,0,1,,,,,,,,,,,,,,,,,,,,,,,,,,,,,,,,,,,,,,,
,,,,,,,,2023-08-06_08h28.03.245,HF_wild_card,2022.2.4,Win32,59.79788315,5e3b41c232667b35c717bdda,64ce5acb97489d65b14ecc7a,64cf4b6149702ec2f815bdb6,,,,,,,sngl,resources/Empty.png,resources/DP.BMP,Door1,0.377604167,-0.015625,1,0,0,1.0017,optionRight,30,4585,2,40,0,40,0,1,,,,,,,,,,,,,,,,,,,,,,,,,,,,,,,,,,,,,,,
,,,,,,,,2023-08-06_08h28.03.245,HF_wild_card,2022.2.4,Win32,59.79788315,5e3b41c232667b35c717bdda,64ce5acb97489d65b14ecc7a,64cf4b6149702ec2f815bdb6,,,,,,,sngl,resources/DG.BMP,resources/Empty.png,Door4,-0.329427083,-0.018229167,1,0,0,0.9356,optionLeft,60,4645,2,41,0,41,0,1,,,,,,,,,,,,,,,,,,,,,,,,,,,,,,,,,,,,,,,
,,,,,,,,2023-08-06_08h28.03.245,HF_wild_card,2022.2.4,Win32,59.79788315,5e3b41c232667b35c717bdda,64ce5acb97489d65b14ecc7a,64cf4b6149702ec2f815bdb6,,,,,,,decisionTrl,resources/DR.BMP,resources/DG.BMP,Door4,0.412760417,0.013020833,1,0,0,1.4476,optionRight,60,4705,2,42,0,42,0,1,,,,,,,,,,,,,,,,,,,,,,,,,,,,,,,,,,,,,,,
,,,,,,,,2023-08-06_08h28.03.245,HF_wild_card,2022.2.4,Win32,59.79788315,5e3b41c232667b35c717bdda,64ce5acb97489d65b14ecc7a,64cf4b6149702ec2f815bdb6,,,,,,,decisionTrl,resources/DR.BMP,resources/DB.BMP,Door3,-0.419270833,-0.057291667,1,0,0,0.9768,optionLeft,70,4775,2,43,0,43,0,1,,,,,,,,,,,,,,,,,,,,,,,,,,,,,,,,,,,,,,,
,,,,,,,,2023-08-06_08h28.03.245,HF_wild_card,2022.2.4,Win32,59.79788315,5e3b41c232667b35c717bdda,64ce5acb97489d65b14ecc7a,64cf4b6149702ec2f815bdb6,,,,,,,,,,,,,,,,,,,,,,,,,,1,0,1,0,1,,,,,,,,,,,,,,,,,,,,,,,,,,,,,,,,,,
,,,,,,,,2023-08-06_08h28.03.245,HF_wild_card,2022.2.4,Win32,59.79788315,5e3b41c232667b35c717bdda,64ce5acb97489d65b14ecc7a,64cf4b6149702ec2f815bdb6,,,,,,,decisionTrl,resources/DP.BMP,resources/DY.BMP,Door1,-0.423177083,-0.00390625,1,0,0,1.666,optionLeft,30,4805,3,0,0,0,0,1,,,,,,,,,,,,,,,,,,,,,,,,,,,,,,,,,,,,,,,
,,,,,,,,2023-08-06_08h28.03.245,HF_wild_card,2022.2.4,Win32,59.79788315,5e3b41c232667b35c717bdda,64ce5acb97489d65b14ecc7a,64cf4b6149702ec2f815bdb6,,,,,,,sngl,resources/DY.BMP,resources/Empty.png,Door2,-0.399739583,0.020833333,1,0,0,1.614,optionLeft,40,4845,3,1,0,1,0,1,,,,,,,,,,,,,,,,,,,,,,,,,,,,,,,,,,,,,,,
,,,,,,,,2023-08-06_08h28.03.245,HF_wild_card,2022.2.4,Win32,59.79788315,5e3b41c232667b35c717bdda,64ce5acb97489d65b14ecc7a,64cf4b6149702ec2f815bdb6,,,,,,,decisionTrl,resources/DP.BMP,resources/DY.BMP,Door2,0.412760417,0.03515625,1,0,0,1.2814,optionRight,40,4885,3,2,0,2,0,1,,,,,,,,,,,,,,,,,,,,,,,,,,,,,,,,,,,,,,,
,,,,,,,,2023-08-06_08h28.03.245,HF_wild_card,2022.2.4,Win32,59.79788315,5e3b41c232667b35c717bdda,64ce5acb97489d65b14ecc7a,64cf4b6149702ec2f815bdb6,,,,,,,decisionTrl,resources/DP.BMP,resources/DB.BMP,WildCard_NonEx,0.37890625,-0.032552083,1,0,0,1.4255,optionRight,45,4930,3,3,0,3,0,1,,,,,,,,,,,,,,,,,,,,,,,,,,,,,,,,,,,,,,,
,,,,,,,,2023-08-06_08h28.03.245,HF_wild_card,2022.2.4,Win32,59.79788315,5e3b41c232667b35c717bdda,64ce5acb97489d65b14ecc7a,64cf4b6149702ec2f815bdb6,,,,,,,decisionTrl,resources/DR.BMP,resources/DG.BMP,Door4,0.403645833,0.046875,1,0,0,2.7449,optionRight,60,4990,3,4,0,4,0,1,,,,,,,,,,,,,,,,,,,,,,,,,,,,,,,,,,,,,,,
,,,,,,,,2023-08-06_08h28.03.245,HF_wild_card,2022.2.4,Win32,59.79788315,5e3b41c232667b35c717bdda,64ce5acb97489d65b14ecc7a,64cf4b6149702ec2f815bdb6,,,,,,,sngl,resources/DB.BMP,resources/Empty.png,WildCard_NonEx,-0.397135417,-0.048177083,1,0,0,0.8496,optionLeft,55,5045,3,5,0,5,0,1,,,,,,,,,,,,,,,,,,,,,,,,,,,,,,,,,,,,,,,
,,,,,,,,2023-08-06_08h28.03.245,HF_wild_card,2022.2.4,Win32,59.79788315,5e3b41c232667b35c717bdda,64ce5acb97489d65b14ecc7a,64cf4b6149702ec2f815bdb6,,,,,,,decisionTrl,resources/DY.BMP,resources/DB.BMP,WildCard_NonEx,0.358072917,-0.0078125,1,0,0,1.6177,optionRight,55,5100,3,6,0,6,0,1,,,,,,,,,,,,,,,,,,,,,,,,,,,,,,,,,,,,,,,
,,,,,,,,2023-08-06_08h28.03.245,HF_wild_card,2022.2.4,Win32,59.79788315,5e3b41c232667b35c717bdda,64ce5acb97489d65b14ecc7a,64cf4b6149702ec2f815bdb6,,,,,,,decisionTrl,resources/DB.BMP,resources/DY.BMP,WildCard_NonEx,-0.411458333,-0.037760417,1,0,0,0.9967,optionLeft,45,5145,3,7,0,7,0,1,,,,,,,,,,,,,,,,,,,,,,,,,,,,,,,,,,,,,,,
,,,,,,,,2023-08-06_08h28.03.245,HF_wild_card,2022.2.4,Win32,59.79788315,5e3b41c232667b35c717bdda,64ce5acb97489d65b14ecc7a,64cf4b6149702ec2f815bdb6,,,,,,,sngl,resources/Empty.png,resources/DB.BMP,WildCard_NonEx,0.33984375,-0.014322917,1,0,0,0.6965,optionRight,55,5200,3,8,0,8,0,1,,,,,,,,,,,,,,,,,,,,,,,,,,,,,,,,,,,,,,,
,,,,,,,,2023-08-06_08h28.03.245,HF_wild_card,2022.2.4,Win32,59.79788315,5e3b41c232667b35c717bdda,64ce5acb97489d65b14ecc7a,64cf4b6149702ec2f815bdb6,,,,,,,sngl,resources/DB.BMP,resources/Empty.png,WildCard_NonEx,-0.38671875,-0.03125,1,0,0,0.8102,optionLeft,45,5245,3,9,0,9,0,1,,,,,,,,,,,,,,,,,,,,,,,,,,,,,,,,,,,,,,,
,,,,,,,,2023-08-06_08h28.03.245,HF_wild_card,2022.2.4,Win32,59.79788315,5e3b41c232667b35c717bdda,64ce5acb97489d65b14ecc7a,64cf4b6149702ec2f815bdb6,,,,,,,sngl,resources/DG.BMP,resources/Empty.png,Door4,-0.359375,0.028645833,1,0,0,1.6179,optionLeft,80,5325,3,10,0,10,0,1,,,,,,,,,,,,,,,,,,,,,,,,,,,,,,,,,,,,,,,
,,,,,,,,2023-08-06_08h28.03.245,HF_wild_card,2022.2.4,Win32,59.79788315,5e3b41c232667b35c717bdda,64ce5acb97489d65b14ecc7a,64cf4b6149702ec2f815bdb6,,,,,,,ctch,resources/DP.BMP,resources/DG.BMP,Door4,0.424479167,0.0390625,1,0,0,1.7752,optionRight,80,5405,3,11,0,11,0,1,,,,,,,,,,,,,,,,,,,,,,,,,,,,,,,,,,,,,,,
,,,,,,,,2023-08-06_08h28.03.245,HF_wild_card,2022.2.4,Win32,59.79788315,5e3b41c232667b35c717bdda,64ce5acb97489d65b14ecc7a,64cf4b6149702ec2f815bdb6,,,,,,,sngl,resources/DP.BMP,resources/Empty.png,Door1,-0.352864583,0.0078125,1,0,0,0.9693,optionLeft,30,5435,3,12,0,12,0,1,,,,,,,,,,,,,,,,,,,,,,,,,,,,,,,,,,,,,,,
,,,,,,,,2023-08-06_08h28.03.245,HF_wild_card,2022.2.4,Win32,59.79788315,5e3b41c232667b35c717bdda,64ce5acb97489d65b14ecc7a,64cf4b6149702ec2f815bdb6,,,,,,,decisionTrl,resources/DG.BMP,resources/DR.BMP,Door4,-0.389322917,0.059895833,1,0,0,1.2386,optionLeft,60,5495,3,13,0,13,0,1,,,,,,,,,,,,,,,,,,,,,,,,,,,,,,,,,,,,,,,
,,,,,,,,2023-08-06_08h28.03.245,HF_wild_card,2022.2.4,Win32,59.79788315,5e3b41c232667b35c717bdda,64ce5acb97489d65b14ecc7a,64cf4b6149702ec2f815bdb6,,,,,,,decisionTrl,resources/DG.BMP,resources/DR.BMP,Door3,0.40234375,0.005208333,1,0,0,1.5601,optionRight,70,5565,3,14,0,14,0,1,,,,,,,,,,,,,,,,,,,,,,,,,,,,,,,,,,,,,,,
,,,,,,,,2023-08-06_08h28.03.245,HF_wild_card,2022.2.4,Win32,59.79788315,5e3b41c232667b35c717bdda,64ce5acb97489d65b14ecc7a,64cf4b6149702ec2f815bdb6,,,,,,,ctch,resources/DG.BMP,resources/DP.BMP,Door4,-0.373697917,0.037760417,1,0,0,1.9627,optionLeft,60,5625,3,15,0,15,0,1,,,,,,,,,,,,,,,,,,,,,,,,,,,,,,,,,,,,,,,
,,,,,,,,2023-08-06_08h28.03.245,HF_wild_card,2022.2.4,Win32,59.79788315,5e3b41c232667b35c717bdda,64ce5acb97489d65b14ecc7a,64cf4b6149702ec2f815bdb6,,,,,,,sngl,resources/Empty.png,resources/DG.BMP,Door4,0.408854167,0.0546875,1,0,0,0.8012,optionRight,60,5685,3,16,0,16,0,1,,,,,,,,,,,,,,,,,,,,,,,,,,,,,,,,,,,,,,,
,,,,,,,,2023-08-06_08h28.03.245,HF_wild_card,2022.2.4,Win32,59.79788315,5e3b41c232667b35c717bdda,64ce5acb97489d65b14ecc7a,64cf4b6149702ec2f815bdb6,,,,,,,sngl,resources/Empty.png,resources/DB.BMP,WildCard_NonEx,0.368489583,0.044270833,1,0,0,0.8101,optionRight,45,5730,3,17,0,17,0,1,,,,,,,,,,,,,,,,,,,,,,,,,,,,,,,,,,,,,,,
,,,,,,,,2023-08-06_08h28.03.245,HF_wild_card,2022.2.4,Win32,59.79788315,5e3b41c232667b35c717bdda,64ce5acb97489d65b14ecc7a,64cf4b6149702ec2f815bdb6,,,,,,,decisionTrl,resources/DG.BMP,resources/DB.BMP,Door4,-0.338541667,0.067708333,1,0,0,1.1983,optionLeft,80,5810,3,18,0,18,0,1,,,,,,,,,,,,,,,,,,,,,,,,,,,,,,,,,,,,,,,
,,,,,,,,2023-08-06_08h28.03.245,HF_wild_card,2022.2.4,Win32,59.79788315,5e3b41c232667b35c717bdda,64ce5acb97489d65b14ecc7a,64cf4b6149702ec2f815bdb6,,,,,,,ctch,resources/DR.BMP,resources/DY.BMP,Door3,-0.41015625,-0.067708333,1,0,0,1.2287,optionLeft,70,5880,3,19,0,19,0,1,,,,,,,,,,,,,,,,,,,,,,,,,,,,,,,,,,,,,,,
,,,,,,,,2023-08-06_08h28.03.245,HF_wild_card,2022.2.4,Win32,59.79788315,5e3b41c232667b35c717bdda,64ce5acb97489d65b14ecc7a,64cf4b6149702ec2f815bdb6,,,,,,,ctch,resources/DP.BMP,resources/DG.BMP,Door4,0.39453125,0.065104167,1,0,0,1.3973,optionRight,60,5940,3,20,0,20,0,1,,,,,,,,,,,,,,,,,,,,,,,,,,,,,,,,,,,,,,,
,,,,,,,,2023-08-06_08h28.03.245,HF_wild_card,2022.2.4,Win32,59.79788315,5e3b41c232667b35c717bdda,64ce5acb97489d65b14ecc7a,64cf4b6149702ec2f815bdb6,,,,,,,sngl,resources/Empty.png,resources/DP.BMP,Door1,0.399739583,0.055989583,1,0,0,0.7059,optionRight,30,5970,3,21,0,21,0,1,,,,,,,,,,,,,,,,,,,,,,,,,,,,,,,,,,,,,,,
,,,,,,,,2023-08-06_08h28.03.245,HF_wild_card,2022.2.4,Win32,59.79788315,5e3b41c232667b35c717bdda,64ce5acb97489d65b14ecc7a,64cf4b6149702ec2f815bdb6,,,,,,,decisionTrl,resources/DY.BMP,resources/DP.BMP,Door1,0.420572917,0.0625,1,0,0,1.13,optionRight,30,6000,3,22,0,22,0,1,,,,,,,,,,,,,,,,,,,,,,,,,,,,,,,,,,,,,,,
,,,,,,,,2023-08-06_08h28.03.245,HF_wild_card,2022.2.4,Win32,59.79788315,5e3b41c232667b35c717bdda,64ce5acb97489d65b14ecc7a,64cf4b6149702ec2f815bdb6,,,,,,,decisionTrl,resources/DR.BMP,resources/DB.BMP,Door3,-0.372395833,0,1,0,0,1.0466,optionLeft,70,6070,3,23,0,23,0,1,,,,,,,,,,,,,,,,,,,,,,,,,,,,,,,,,,,,,,,
,,,,,,,,2023-08-06_08h28.03.245,HF_wild_card,2022.2.4,Win32,59.79788315,5e3b41c232667b35c717bdda,64ce5acb97489d65b14ecc7a,64cf4b6149702ec2f815bdb6,,,,,,,decisionTrl,resources/DB.BMP,resources/DG.BMP,Door4,0.42578125,0.078125,1,0,0,0.8979,optionRight,80,6150,3,24,0,24,0,1,,,,,,,,,,,,,,,,,,,,,,,,,,,,,,,,,,,,,,,
,,,,,,,,2023-08-06_08h28.03.245,HF_wild_card,2022.2.4,Win32,59.79788315,5e3b41c232667b35c717bdda,64ce5acb97489d65b14ecc7a,64cf4b6149702ec2f815bdb6,,,,,,,decisionTrl,resources/DR.BMP,resources/DG.BMP,Door4,0.384114583,0.05859375,1,0,0,0.9204,optionRight,60,6210,3,25,0,25,0,1,,,,,,,,,,,,,,,,,,,,,,,,,,,,,,,,,,,,,,,
,,,,,,,,2023-08-06_08h28.03.245,HF_wild_card,2022.2.4,Win32,59.79788315,5e3b41c232667b35c717bdda,64ce5acb97489d65b14ecc7a,64cf4b6149702ec2f815bdb6,,,,,,,decisionTrl,resources/DP.BMP,resources/DY.BMP,Door1,-0.359375,-0.015625,1,0,0,1.499,optionLeft,30,6240,3,26,0,26,0,1,,,,,,,,,,,,,,,,,,,,,,,,,,,,,,,,,,,,,,,
,,,,,,,,2023-08-06_08h28.03.245,HF_wild_card,2022.2.4,Win32,59.79788315,5e3b41c232667b35c717bdda,64ce5acb97489d65b14ecc7a,64cf4b6149702ec2f815bdb6,,,,,,,decisionTrl,resources/DY.BMP,resources/DP.BMP,Door1,0.315104167,0.0390625,1,0,0,0.8355,optionRight,30,6270,3,27,0,27,0,1,,,,,,,,,,,,,,,,,,,,,,,,,,,,,,,,,,,,,,,
,,,,,,,,2023-08-06_08h28.03.245,HF_wild_card,2022.2.4,Win32,59.79788315,5e3b41c232667b35c717bdda,64ce5acb97489d65b14ecc7a,64cf4b6149702ec2f815bdb6,,,,,,,decisionTrl,resources/DY.BMP,resources/DP.BMP,Door1,0.278645833,0.022135417,1,0,0,0.8964,optionRight,30,6300,3,28,0,28,0,1,,,,,,,,,,,,,,,,,,,,,,,,,,,,,,,,,,,,,,,
,,,,,,,,2023-08-06_08h28.03.245,HF_wild_card,2022.2.4,Win32,59.79788315,5e3b41c232667b35c717bdda,64ce5acb97489d65b14ecc7a,64cf4b6149702ec2f815bdb6,,,,,,,decisionTrl,resources/DB.BMP,resources/DP.BMP,WildCard_NonEx,-0.303385417,-0.01171875,1,0,0,0.8075,optionLeft,55,6355,3,29,0,29,0,1,,,,,,,,,,,,,,,,,,,,,,,,,,,,,,,,,,,,,,,
,,,,,,,,2023-08-06_08h28.03.245,HF_wild_card,2022.2.4,Win32,59.79788315,5e3b41c232667b35c717bdda,64ce5acb97489d65b14ecc7a,64cf4b6149702ec2f815bdb6,,,,,,,ctch,resources/DR.BMP,resources/DY.BMP,Door3,-0.25,-0.00390625,1,0,0,1.0153,optionLeft,70,6425,3,30,0,30,0,1,,,,,,,,,,,,,,,,,,,,,,,,,,,,,,,,,,,,,,,
,,,,,,,,2023-08-06_08h28.03.245,HF_wild_card,2022.2.4,Win32,59.79788315,5e3b41c232667b35c717bdda,64ce5acb97489d65b14ecc7a,64cf4b6149702ec2f815bdb6,,,,,,,decisionTrl,resources/DR.BMP,resources/DG.BMP,Door3,-0.365885417,0.014322917,1,0,0,1.0312,optionLeft,70,6495,3,31,0,31,0,1,,,,,,,,,,,,,,,,,,,,,,,,,,,,,,,,,,,,,,,
,,,,,,,,2023-08-06_08h28.03.245,HF_wild_card,2022.2.4,Win32,59.79788315,5e3b41c232667b35c717bdda,64ce5acb97489d65b14ecc7a,64cf4b6149702ec2f815bdb6,,,,,,,ctch,resources/DG.BMP,resources/DP.BMP,Door4,-0.385416667,0.076822917,1,0,0,0.9956,optionLeft,60,6555,3,32,0,32,0,1,,,,,,,,,,,,,,,,,,,,,,,,,,,,,,,,,,,,,,,
,,,,,,,,2023-08-06_08h28.03.245,HF_wild_card,2022.2.4,Win32,59.79788315,5e3b41c232667b35c717bdda,64ce5acb97489d65b14ecc7a,64cf4b6149702ec2f815bdb6,,,,,,,decisionTrl,resources/DG.BMP,resources/DR.BMP,Door3,0.34375,0.020833333,1,0,0,0.8365,optionRight,70,6625,3,33,0,33,0,1,,,,,,,,,,,,,,,,,,,,,,,,,,,,,,,,,,,,,,,
,,,,,,,,2023-08-06_08h28.03.245,HF_wild_card,2022.2.4,Win32,59.79788315,5e3b41c232667b35c717bdda,64ce5acb97489d65b14ecc7a,64cf4b6149702ec2f815bdb6,,,,,,,decisionTrl,resources/DB.BMP,resources/DR.BMP,Door3,0.3125,0.015625,1,0,0,0.9374,optionRight,70,6695,3,34,0,34,0,1,,,,,,,,,,,,,,,,,,,,,,,,,,,,,,,,,,,,,,,
,,,,,,,,2023-08-06_08h28.03.245,HF_wild_card,2022.2.4,Win32,59.79788315,5e3b41c232667b35c717bdda,64ce5acb97489d65b14ecc7a,64cf4b6149702ec2f815bdb6,,,,,,,sngl,resources/DR.BMP,resources/Empty.png,Door3,-0.342447917,0.024739583,1,0,0,0.8027,optionLeft,70,6765,3,35,0,35,0,1,,,,,,,,,,,,,,,,,,,,,,,,,,,,,,,,,,,,,,,
,,,,,,,,2023-08-06_08h28.03.245,HF_wild_card,2022.2.4,Win32,59.79788315,5e3b41c232667b35c717bdda,64ce5acb97489d65b14ecc7a,64cf4b6149702ec2f815bdb6,,,,,,,decisionTrl,resources/DR.BMP,resources/DG.BMP,Door3,-0.25390625,0.001302083,1,0,0,1.178,optionLeft,70,6835,3,36,0,36,0,1,,,,,,,,,,,,,,,,,,,,,,,,,,,,,,,,,,,,,,,
,,,,,,,,2023-08-06_08h28.03.245,HF_wild_card,2022.2.4,Win32,59.79788315,5e3b41c232667b35c717bdda,64ce5acb97489d65b14ecc7a,64cf4b6149702ec2f815bdb6,,,,,,,decisionTrl,resources/DG.BMP,resources/DR.BMP,Door3,0.3671875,0.01953125,1,0,0,0.8162,optionRight,70,6905,3,37,0,37,0,1,,,,,,,,,,,,,,,,,,,,,,,,,,,,,,,,,,,,,,,
,,,,,,,,2023-08-06_08h28.03.245,HF_wild_card,2022.2.4,Win32,59.79788315,5e3b41c232667b35c717bdda,64ce5acb97489d65b14ecc7a,64cf4b6149702ec2f815bdb6,,,,,,,ctch,resources/DY.BMP,resources/DR.BMP,Door3,0.3515625,0.02734375,1,0,0,0.8817,optionRight,70,6975,3,38,0,38,0,1,,,,,,,,,,,,,,,,,,,,,,,,,,,,,,,,,,,,,,,
,,,,,,,,2023-08-06_08h28.03.245,HF_wild_card,2022.2.4,Win32,59.79788315,5e3b41c232667b35c717bdda,64ce5acb97489d65b14ecc7a,64cf4b6149702ec2f815bdb6,,,,,,,ctch,resources/DY.BMP,resources/DR.BMP,Door3,0.380208333,0.036458333,1,0,0,0.9741,optionRight,70,7045,3,39,0,39,0,1,,,,,,,,,,,,,,,,,,,,,,,,,,,,,,,,,,,,,,,
,,,,,,,,2023-08-06_08h28.03.245,HF_wild_card,2022.2.4,Win32,59.79788315,5e3b41c232667b35c717bdda,64ce5acb97489d65b14ecc7a,64cf4b6149702ec2f815bdb6,,,,,,,decisionTrl,resources/DY.BMP,resources/DP.BMP,Door1,0.380208333,0.036458333,1,0,0,0.9948,optionRight,30,7075,3,40,0,40,0,1,,,,,,,,,,,,,,,,,,,,,,,,,,,,,,,,,,,,,,,
,,,,,,,,2023-08-06_08h28.03.245,HF_wild_card,2022.2.4,Win32,59.79788315,5e3b41c232667b35c717bdda,64ce5acb97489d65b14ecc7a,64cf4b6149702ec2f815bdb6,,,,,,,sngl,resources/Empty.png,resources/DY.BMP,Door2,0.231770833,0.016927083,1,0,0,0.9195,optionRight,20,7095,3,41,0,41,0,1,,,,,,,,,,,,,,,,,,,,,,,,,,,,,,,,,,,,,,,
,,,,,,,,2023-08-06_08h28.03.245,HF_wild_card,2022.2.4,Win32,59.79788315,5e3b41c232667b35c717bdda,64ce5acb97489d65b14ecc7a,64cf4b6149702ec2f815bdb6,,,,,,,decisionTrl,resources/DP.BMP,resources/DY.BMP,Door1,-0.372395833,0.00390625,1,0,0,1.2101,optionLeft,30,7125,3,42,0,42,0,1,,,,,,,,,,,,,,,,,,,,,,,,,,,,,,,,,,,,,,,
,,,,,,,,2023-08-06_08h28.03.245,HF_wild_card,2022.2.4,Win32,59.79788315,5e3b41c232667b35c717bdda,64ce5acb97489d65b14ecc7a,64cf4b6149702ec2f815bdb6,,,,,,,sngl,resources/Empty.png,resources/DR.BMP,Door3,0.40625,0.001302083,1,0,0,0.5922,optionRight,70,7195,3,43,0,43,0,1,,,,,,,,,,,,,,,,,,,,,,,,,,,,,,,,,,,,,,,
,,,,,,,,2023-08-06_08h28.03.245,HF_wild_card,2022.2.4,Win32,59.79788315,5e3b41c232667b35c717bdda,64ce5acb97489d65b14ecc7a,64cf4b6149702ec2f815bdb6,,,,,,,,,,,,,,,,,,,,,,,,,,2,0,2,0,1,,,,,,,,,,,,,,,,,,,,,,,,,,,,,,,,,,
,,,,,,,,2023-08-06_08h28.03.245,HF_wild_card,2022.2.4,Win32,59.79788315,5e3b41c232667b35c717bdda,64ce5acb97489d65b14ecc7a,64cf4b6149702ec2f815bdb6,,,,,,,sngl,resources/Empty.png,resources/DP.BMP,Door1,0.384114583,0.0234375,1,0,0,0.9637,optionRight,30,7225,4,0,0,0,0,1,,,,,,,,,,,,,,,,,,,,,,,,,,,,,,,,,,,,,,,
,,,,,,,,2023-08-06_08h28.03.245,HF_wild_card,2022.2.4,Win32,59.79788315,5e3b41c232667b35c717bdda,64ce5acb97489d65b14ecc7a,64cf4b6149702ec2f815bdb6,,,,,,,decisionTrl,resources/DG.BMP,resources/DR.BMP,Door3,0.334635417,0.015625,1,0,0,1.0474,optionRight,70,7295,4,1,0,1,0,1,,,,,,,,,,,,,,,,,,,,,,,,,,,,,,,,,,,,,,,
,,,,,,,,2023-08-06_08h28.03.245,HF_wild_card,2022.2.4,Win32,59.79788315,5e3b41c232667b35c717bdda,64ce5acb97489d65b14ecc7a,64cf4b6149702ec2f815bdb6,,,,,,,sngl,resources/Empty.png,resources/DR.BMP,Door3,0.330729167,-0.001302083,1,0,0,0.9077,optionRight,70,7365,4,2,0,2,0,1,,,,,,,,,,,,,,,,,,,,,,,,,,,,,,,,,,,,,,,
,,,,,,,,2023-08-06_08h28.03.245,HF_wild_card,2022.2.4,Win32,59.79788315,5e3b41c232667b35c717bdda,64ce5acb97489d65b14ecc7a,64cf4b6149702ec2f815bdb6,,,,,,,sngl,resources/Empty.png,resources/DBN.BMP,WildCard_Ex,0.350260417,0.02734375,1,0,0,2.3727,optionRight,5,7370,4,3,0,3,0,1,,,,,,,,,,,,,,,,,,,,,,,,,,,,,,,,,,,,,,,
,,,,,,,,2023-08-06_08h28.03.245,HF_wild_card,2022.2.4,Win32,59.79788315,5e3b41c232667b35c717bdda,64ce5acb97489d65b14ecc7a,64cf4b6149702ec2f815bdb6,,,,,,,decisionTrl,resources/DY.BMP,resources/DP.BMP,Door1,0.303385417,-0.01171875,1,0,0,1.4108,optionRight,30,7400,4,4,0,4,0,1,,,,,,,,,,,,,,,,,,,,,,,,,,,,,,,,,,,,,,,
,,,,,,,,2023-08-06_08h28.03.245,HF_wild_card,2022.2.4,Win32,59.79788315,5e3b41c232667b35c717bdda,64ce5acb97489d65b14ecc7a,64cf4b6149702ec2f815bdb6,,,,,,,decisionTrl,resources/DP.BMP,resources/DY.BMP,Door1,-0.36328125,-0.01953125,1,0,0,1.1339,optionLeft,30,7430,4,5,0,5,0,1,,,,,,,,,,,,,,,,,,,,,,,,,,,,,,,,,,,,,,,
,,,,,,,,2023-08-06_08h28.03.245,HF_wild_card,2022.2.4,Win32,59.79788315,5e3b41c232667b35c717bdda,64ce5acb97489d65b14ecc7a,64cf4b6149702ec2f815bdb6,,,,,,,decisionTrl,resources/DG.BMP,resources/DBN.BMP,Door4,-0.329427083,0.0390625,1,0,0,0.9269,optionLeft,80,7510,4,6,0,6,0,1,,,,,,,,,,,,,,,,,,,,,,,,,,,,,,,,,,,,,,,
,,,,,,,,2023-08-06_08h28.03.245,HF_wild_card,2022.2.4,Win32,59.79788315,5e3b41c232667b35c717bdda,64ce5acb97489d65b14ecc7a,64cf4b6149702ec2f815bdb6,,,,,,,ctch,resources/DR.BMP,resources/DY.BMP,Door3,-0.350260417,0.014322917,1,0,0,0.7695,optionLeft,70,7580,4,7,0,7,0,1,,,,,,,,,,,,,,,,,,,,,,,,,,,,,,,,,,,,,,,
,,,,,,,,2023-08-06_08h28.03.245,HF_wild_card,2022.2.4,Win32,59.79788315,5e3b41c232667b35c717bdda,64ce5acb97489d65b14ecc7a,64cf4b6149702ec2f815bdb6,,,,,,,sngl,resources/Empty.png,resources/DBN.BMP,WildCard_Ex,0.329427083,0.0546875,1,0,0,1.473,optionRight,95,7675,4,8,0,8,0,1,,,,,,,,,,,,,,,,,,,,,,,,,,,,,,,,,,,,,,,
,,,,,,,,2023-08-06_08h28.03.245,HF_wild_card,2022.2.4,Win32,59.79788315,5e3b41c232667b35c717bdda,64ce5acb97489d65b14ecc7a,64cf4b6149702ec2f815bdb6,,,,,,,decisionTrl,resources/DG.BMP,resources/DR.BMP,Door3,0.453125,0.001302083,1,0,0,1.1635,optionRight,70,7745,4,9,0,9,0,1,,,,,,,,,,,,,,,,,,,,,,,,,,,,,,,,,,,,,,,
,,,,,,,,2023-08-06_08h28.03.245,HF_wild_card,2022.2.4,Win32,59.79788315,5e3b41c232667b35c717bdda,64ce5acb97489d65b14ecc7a,64cf4b6149702ec2f815bdb6,,,,,,,decisionTrl,resources/DR.BMP,resources/DG.BMP,Door3,-0.337239583,0.04296875,1,0,0,1.0976,optionLeft,70,7815,4,10,0,10,0,1,,,,,,,,,,,,,,,,,,,,,,,,,,,,,,,,,,,,,,,
,,,,,,,,2023-08-06_08h28.03.245,HF_wild_card,2022.2.4,Win32,59.79788315,5e3b41c232667b35c717bdda,64ce5acb97489d65b14ecc7a,64cf4b6149702ec2f815bdb6,,,,,,,decisionTrl,resources/DR.BMP,resources/DBN.BMP,WildCard_Ex,0.397135417,0.0234375,1,0,0,1.526,optionRight,5,7820,4,11,0,11,0,1,,,,,,,,,,,,,,,,,,,,,,,,,,,,,,,,,,,,,,,
,,,,,,,,2023-08-06_08h28.03.245,HF_wild_card,2022.2.4,Win32,59.79788315,5e3b41c232667b35c717bdda,64ce5acb97489d65b14ecc7a,64cf4b6149702ec2f815bdb6,,,,,,,sngl,resources/DP.BMP,resources/Empty.png,Door1,-0.177083333,-0.03515625,1,0,0,0.7135,optionLeft,30,7850,4,12,0,12,0,1,,,,,,,,,,,,,,,,,,,,,,,,,,,,,,,,,,,,,,,
,,,,,,,,2023-08-06_08h28.03.245,HF_wild_card,2022.2.4,Win32,59.79788315,5e3b41c232667b35c717bdda,64ce5acb97489d65b14ecc7a,64cf4b6149702ec2f815bdb6,,,,,,,decisionTrl,resources/DR.BMP,resources/DG.BMP,Door3,-0.35546875,0.0234375,1,0,0,0.7994,optionLeft,70,7920,4,13,0,13,0,1,,,,,,,,,,,,,,,,,,,,,,,,,,,,,,,,,,,,,,,
,,,,,,,,2023-08-06_08h28.03.245,HF_wild_card,2022.2.4,Win32,59.79788315,5e3b41c232667b35c717bdda,64ce5acb97489d65b14ecc7a,64cf4b6149702ec2f815bdb6,,,,,,,ctch,resources/DG.BMP,resources/DP.BMP,Door4,-0.307291667,0.096354167,1,0,0,1.285,optionLeft,60,7980,4,14,0,14,0,1,,,,,,,,,,,,,,,,,,,,,,,,,,,,,,,,,,,,,,,
,,,,,,,,2023-08-06_08h28.03.245,HF_wild_card,2022.2.4,Win32,59.79788315,5e3b41c232667b35c717bdda,64ce5acb97489d65b14ecc7a,64cf4b6149702ec2f815bdb6,,,,,,,sngl,resources/DY.BMP,resources/Empty.png,Door2,-0.208333333,0.020833333,1,0,0,0.6362,optionLeft,20,8000,4,15,0,15,0,1,,,,,,,,,,,,,,,,,,,,,,,,,,,,,,,,,,,,,,,
,,,,,,,,2023-08-06_08h28.03.245,HF_wild_card,2022.2.4,Win32,59.79788315,5e3b41c232667b35c717bdda,64ce5acb97489d65b14ecc7a,64cf4b6149702ec2f815bdb6,,,,,,,ctch,resources/DY.BMP,resources/DR.BMP,Door3,0.358072917,-0.020833333,1,0,0,0.6272,optionRight,70,8070,4,16,0,16,0,1,,,,,,,,,,,,,,,,,,,,,,,,,,,,,,,,,,,,,,,
,,,,,,,,2023-08-06_08h28.03.245,HF_wild_card,2022.2.4,Win32,59.79788315,5e3b41c232667b35c717bdda,64ce5acb97489d65b14ecc7a,64cf4b6149702ec2f815bdb6,,,,,,,decisionTrl,resources/DY.BMP,resources/DP.BMP,Door1,0.345052083,-0.01953125,1,0,0,0.8118,optionRight,30,8100,4,17,0,17,0,1,,,,,,,,,,,,,,,,,,,,,,,,,,,,,,,,,,,,,,,
,,,,,,,,2023-08-06_08h28.03.245,HF_wild_card,2022.2.4,Win32,59.79788315,5e3b41c232667b35c717bdda,64ce5acb97489d65b14ecc7a,64cf4b6149702ec2f815bdb6,,,,,,,decisionTrl,resources/DP.BMP,resources/DY.BMP,Door1,-0.294270833,0.002604167,1,0,0,0.9661,optionLeft,30,8130,4,18,0,18,0,1,,,,,,,,,,,,,,,,,,,,,,,,,,,,,,,,,,,,,,,
,,,,,,,,2023-08-06_08h28.03.245,HF_wild_card,2022.2.4,Win32,59.79788315,5e3b41c232667b35c717bdda,64ce5acb97489d65b14ecc7a,64cf4b6149702ec2f815bdb6,,,,,,,decisionTrl,resources/DY.BMP,resources/DBN.BMP,Door2,-0.350260417,0.013020833,1,0,0,0.8273,optionLeft,20,8150,4,19,0,19,0,1,,,,,,,,,,,,,,,,,,,,,,,,,,,,,,,,,,,,,,,
,,,,,,,,2023-08-06_08h28.03.245,HF_wild_card,2022.2.4,Win32,59.79788315,5e3b41c232667b35c717bdda,64ce5acb97489d65b14ecc7a,64cf4b6149702ec2f815bdb6,,,,,,,sngl,resources/DBN.BMP,resources/Empty.png,WildCard_Ex,-0.30859375,0.03125,1,0,0,0.9757,optionLeft,5,8155,4,20,0,20,0,1,,,,,,,,,,,,,,,,,,,,,,,,,,,,,,,,,,,,,,,
,,,,,,,,2023-08-06_08h28.03.245,HF_wild_card,2022.2.4,Win32,59.79788315,5e3b41c232667b35c717bdda,64ce5acb97489d65b14ecc7a,64cf4b6149702ec2f815bdb6,,,,,,,ctch,resources/DR.BMP,resources/DY.BMP,Door3,-0.209635417,0.013020833,1,0,0,0.7987,optionLeft,70,8225,4,21,0,21,0,1,,,,,,,,,,,,,,,,,,,,,,,,,,,,,,,,,,,,,,,
,,,,,,,,2023-08-06_08h28.03.245,HF_wild_card,2022.2.4,Win32,59.79788315,5e3b41c232667b35c717bdda,64ce5acb97489d65b14ecc7a,64cf4b6149702ec2f815bdb6,,,,,,,ctch,resources/DP.BMP,resources/DG.BMP,Door4,0.397135417,-0.015625,1,0,0,0.9198,optionRight,80,8305,4,22,0,22,0,1,,,,,,,,,,,,,,,,,,,,,,,,,,,,,,,,,,,,,,,
,,,,,,,,2023-08-06_08h28.03.245,HF_wild_card,2022.2.4,Win32,59.79788315,5e3b41c232667b35c717bdda,64ce5acb97489d65b14ecc7a,64cf4b6149702ec2f815bdb6,,,,,,,decisionTrl,resources/DY.BMP,resources/DP.BMP,Door1,0.337239583,-0.010416667,1,0,0,1.2208,optionRight,30,8335,4,23,0,23,0,1,,,,,,,,,,,,,,,,,,,,,,,,,,,,,,,,,,,,,,,
,,,,,,,,2023-08-06_08h28.03.245,HF_wild_card,2022.2.4,Win32,59.79788315,5e3b41c232667b35c717bdda,64ce5acb97489d65b14ecc7a,64cf4b6149702ec2f815bdb6,,,,,,,ctch,resources/DY.BMP,resources/DR.BMP,Door3,0.391927083,-0.0390625,1,0,0,4.1053,optionRight,70,8405,4,24,0,24,0,1,,,,,,,,,,,,,,,,,,,,,,,,,,,,,,,,,,,,,,,
,,,,,,,,2023-08-06_08h28.03.245,HF_wild_card,2022.2.4,Win32,59.79788315,5e3b41c232667b35c717bdda,64ce5acb97489d65b14ecc7a,64cf4b6149702ec2f815bdb6,,,,,,,decisionTrl,resources/DP.BMP,resources/DBN.BMP,WildCard_Ex,0.485677083,0.016927083,1,0,0,1.9734,optionRight,5,8410,4,25,0,25,0,1,,,,,,,,,,,,,,,,,,,,,,,,,,,,,,,,,,,,,,,
,,,,,,,,2023-08-06_08h28.03.245,HF_wild_card,2022.2.4,Win32,59.79788315,5e3b41c232667b35c717bdda,64ce5acb97489d65b14ecc7a,64cf4b6149702ec2f815bdb6,,,,,,,decisionTrl,resources/DBN.BMP,resources/DY.BMP,Door2,0.408854167,0.005208333,1,0,0,0.7278,optionRight,40,8450,4,26,0,26,0,1,,,,,,,,,,,,,,,,,,,,,,,,,,,,,,,,,,,,,,,
,,,,,,,,2023-08-06_08h28.03.245,HF_wild_card,2022.2.4,Win32,59.79788315,5e3b41c232667b35c717bdda,64ce5acb97489d65b14ecc7a,64cf4b6149702ec2f815bdb6,,,,,,,decisionTrl,resources/DR.BMP,resources/DG.BMP,Door3,-0.279947917,0.020833333,1,0,0,0.771,optionLeft,70,8520,4,27,0,27,0,1,,,,,,,,,,,,,,,,,,,,,,,,,,,,,,,,,,,,,,,
,,,,,,,,2023-08-06_08h28.03.245,HF_wild_card,2022.2.4,Win32,59.79788315,5e3b41c232667b35c717bdda,64ce5acb97489d65b14ecc7a,64cf4b6149702ec2f815bdb6,,,,,,,sngl,resources/Empty.png,resources/DG.BMP,Door4,0.4296875,0.009114583,1,0,0,0.6298,optionRight,80,8600,4,28,0,28,0,1,,,,,,,,,,,,,,,,,,,,,,,,,,,,,,,,,,,,,,,
,,,,,,,,2023-08-06_08h28.03.245,HF_wild_card,2022.2.4,Win32,59.79788315,5e3b41c232667b35c717bdda,64ce5acb97489d65b14ecc7a,64cf4b6149702ec2f815bdb6,,,,,,,decisionTrl,resources/DG.BMP,resources/DR.BMP,Door4,-0.3828125,0.036458333,1,0,0,0.7289,optionLeft,80,8680,4,29,0,29,0,1,,,,,,,,,,,,,,,,,,,,,,,,,,,,,,,,,,,,,,,
,,,,,,,,2023-08-06_08h28.03.245,HF_wild_card,2022.2.4,Win32,59.79788315,5e3b41c232667b35c717bdda,64ce5acb97489d65b14ecc7a,64cf4b6149702ec2f815bdb6,,,,,,,decisionTrl,resources/DY.BMP,resources/DP.BMP,Door2,-0.282552083,-0.010416667,1,0,0,2.486,optionLeft,40,8720,4,30,0,30,0,1,,,,,,,,,,,,,,,,,,,,,,,,,,,,,,,,,,,,,,,
,,,,,,,,2023-08-06_08h28.03.245,HF_wild_card,2022.2.4,Win32,59.79788315,5e3b41c232667b35c717bdda,64ce5acb97489d65b14ecc7a,64cf4b6149702ec2f815bdb6,,,,,,,decisionTrl,resources/DP.BMP,resources/DY.BMP,Door2,0.33984375,0.001302083,1,0,0,0.6457,optionRight,40,8760,4,31,0,31,0,1,,,,,,,,,,,,,,,,,,,,,,,,,,,,,,,,,,,,,,,
,,,,,,,,2023-08-06_08h28.03.245,HF_wild_card,2022.2.4,Win32,59.79788315,5e3b41c232667b35c717bdda,64ce5acb97489d65b14ecc7a,64cf4b6149702ec2f815bdb6,,,,,,,decisionTrl,resources/DG.BMP,resources/DR.BMP,Door4,-0.294270833,0.040364583,1,0,0,1.1142,optionLeft,80,8840,4,32,0,32,0,1,,,,,,,,,,,,,,,,,,,,,,,,,,,,,,,,,,,,,,,
,,,,,,,,2023-08-06_08h28.03.245,HF_wild_card,2022.2.4,Win32,59.79788315,5e3b41c232667b35c717bdda,64ce5acb97489d65b14ecc7a,64cf4b6149702ec2f815bdb6,,,,,,,decisionTrl,resources/DP.BMP,resources/DY.BMP,Door2,0.384114583,0.010416667,1,0,0,0.6439,optionRight,40,8880,4,33,0,33,0,1,,,,,,,,,,,,,,,,,,,,,,,,,,,,,,,,,,,,,,,
,,,,,,,,2023-08-06_08h28.03.245,HF_wild_card,2022.2.4,Win32,59.79788315,5e3b41c232667b35c717bdda,64ce5acb97489d65b14ecc7a,64cf4b6149702ec2f815bdb6,,,,,,,sngl,resources/DR.BMP,resources/Empty.png,Door3,-0.369791667,0.02734375,1,0,0,0.722,optionLeft,70,8950,4,34,0,34,0,1,,,,,,,,,,,,,,,,,,,,,,,,,,,,,,,,,,,,,,,
,,,,,,,,2023-08-06_08h28.03.245,HF_wild_card,2022.2.4,Win32,59.79788315,5e3b41c232667b35c717bdda,64ce5acb97489d65b14ecc7a,64cf4b6149702ec2f815bdb6,,,,,,,ctch,resources/DG.BMP,resources/DP.BMP,Door4,-0.38671875,0.095052083,1,0,0,0.9119,optionLeft,60,9010,4,35,0,35,0,1,,,,,,,,,,,,,,,,,,,,,,,,,,,,,,,,,,,,,,,
,,,,,,,,2023-08-06_08h28.03.245,HF_wild_card,2022.2.4,Win32,59.79788315,5e3b41c232667b35c717bdda,64ce5acb97489d65b14ecc7a,64cf4b6149702ec2f815bdb6,,,,,,,ctch,resources/DP.BMP,resources/DG.BMP,Door4,0.40625,0.0234375,1,0,0,0.6849,optionRight,80,9090,4,36,0,36,0,1,,,,,,,,,,,,,,,,,,,,,,,,,,,,,,,,,,,,,,,
,,,,,,,,2023-08-06_08h28.03.245,HF_wild_card,2022.2.4,Win32,59.79788315,5e3b41c232667b35c717bdda,64ce5acb97489d65b14ecc7a,64cf4b6149702ec2f815bdb6,,,,,,,decisionTrl,resources/DBN.BMP,resources/DP.BMP,WildCard_Ex,-0.307291667,0.05078125,1,0,0,1.3211,optionLeft,5,9095,4,37,0,37,0,1,,,,,,,,,,,,,,,,,,,,,,,,,,,,,,,,,,,,,,,
,,,,,,,,2023-08-06_08h28.03.245,HF_wild_card,2022.2.4,Win32,59.79788315,5e3b41c232667b35c717bdda,64ce5acb97489d65b14ecc7a,64cf4b6149702ec2f815bdb6,,,,,,,sngl,resources/DG.BMP,resources/Empty.png,Door4,-0.338541667,0.049479167,1,0,0,0.6704,optionLeft,60,9155,4,38,0,38,0,1,,,,,,,,,,,,,,,,,,,,,,,,,,,,,,,,,,,,,,,
,,,,,,,,2023-08-06_08h28.03.245,HF_wild_card,2022.2.4,Win32,59.79788315,5e3b41c232667b35c717bdda,64ce5acb97489d65b14ecc7a,64cf4b6149702ec2f815bdb6,,,,,,,decisionTrl,resources/DBN.BMP,resources/DG.BMP,Door4,0.35546875,0.045572917,1,0,0,1.4176,optionRight,60,9215,4,39,0,39,0,1,,,,,,,,,,,,,,,,,,,,,,,,,,,,,,,,,,,,,,,
,,,,,,,,2023-08-06_08h28.03.245,HF_wild_card,2022.2.4,Win32,59.79788315,5e3b41c232667b35c717bdda,64ce5acb97489d65b14ecc7a,64cf4b6149702ec2f815bdb6,,,,,,,decisionTrl,resources/DBN.BMP,resources/DR.BMP,Door3,0.346354167,0.015625,1,0,0,1.2187,optionRight,70,9285,4,40,0,40,0,1,,,,,,,,,,,,,,,,,,,,,,,,,,,,,,,,,,,,,,,
,,,,,,,,2023-08-06_08h28.03.245,HF_wild_card,2022.2.4,Win32,59.79788315,5e3b41c232667b35c717bdda,64ce5acb97489d65b14ecc7a,64cf4b6149702ec2f815bdb6,,,,,,,sngl,resources/Empty.png,resources/DY.BMP,Door2,0.346354167,0.01171875,1,0,0,0.7297,optionRight,40,9325,4,41,0,41,0,1,,,,,,,,,,,,,,,,,,,,,,,,,,,,,,,,,,,,,,,
,,,,,,,,2023-08-06_08h28.03.245,HF_wild_card,2022.2.4,Win32,59.79788315,5e3b41c232667b35c717bdda,64ce5acb97489d65b14ecc7a,64cf4b6149702ec2f815bdb6,,,,,,,decisionTrl,resources/DR.BMP,resources/DG.BMP,Door4,0.287760417,0.0390625,1,0,0,1.3357,optionRight,60,9385,4,42,0,42,0,1,,,,,,,,,,,,,,,,,,,,,,,,,,,,,,,,,,,,,,,
,,,,,,,,2023-08-06_08h28.03.245,HF_wild_card,2022.2.4,Win32,59.79788315,5e3b41c232667b35c717bdda,64ce5acb97489d65b14ecc7a,64cf4b6149702ec2f815bdb6,,,,,,,sngl,resources/DBN.BMP,resources/Empty.png,WildCard_Ex,-0.263020833,0.037760417,1,0,0,0.8531,optionLeft,95,9480,4,43,0,43,0,1,,,,,,,,,,,,,,,,,,,,,,,,,,,,,,,,,,,,,,,
,,,,,,,,2023-08-06_08h28.03.245,HF_wild_card,2022.2.4,Win32,59.79788315,5e3b41c232667b35c717bdda,64ce5acb97489d65b14ecc7a,64cf4b6149702ec2f815bdb6,,,,,,,,,,,,,,,,,,,,,,,,,,3,0,3,0,1,,,,,,,,,,,,,,,,,,,,,,,,,,,,,,,,,,
,,,,,,,,2023-08-06_08h28.03.245,HF_wild_card,2022.2.4,Win32,59.79788315,5e3b41c232667b35c717bdda,64ce5acb97489d65b14ecc7a,64cf4b6149702ec2f815bdb6,,,,,,,sngl,resources/DBN.BMP,resources/Empty.png,WildCard_Ex,-0.463541667,0.078125,1,0,0,0.8066,optionLeft,5,9485,5,0,0,0,0,1,,,,,,,,,,,,,,,,,,,,,,,,,,,,,,,,,,,,,,,
,,,,,,,,2023-08-06_08h28.03.245,HF_wild_card,2022.2.4,Win32,59.79788315,5e3b41c232667b35c717bdda,64ce5acb97489d65b14ecc7a,64cf4b6149702ec2f815bdb6,,,,,,,decisionTrl,resources/DY.BMP,resources/DP.BMP,Door2,-0.372395833,0.037760417,1,0,0,0.9706,optionLeft,20,9505,5,1,0,1,0,1,,,,,,,,,,,,,,,,,,,,,,,,,,,,,,,,,,,,,,,
,,,,,,,,2023-08-06_08h28.03.245,HF_wild_card,2022.2.4,Win32,59.79788315,5e3b41c232667b35c717bdda,64ce5acb97489d65b14ecc7a,64cf4b6149702ec2f815bdb6,,,,,,,sngl,resources/Empty.png,resources/DP.BMP,Door1,0.317708333,-0.005208333,1,0,0,0.6525,optionRight,30,9535,5,2,0,2,0,1,,,,,,,,,,,,,,,,,,,,,,,,,,,,,,,,,,,,,,,
,,,,,,,,2023-08-06_08h28.03.245,HF_wild_card,2022.2.4,Win32,59.79788315,5e3b41c232667b35c717bdda,64ce5acb97489d65b14ecc7a,64cf4b6149702ec2f815bdb6,,,,,,,decisionTrl,resources/DBN.BMP,resources/DR.BMP,Door3,0.345052083,-0.006510417,1,0,0,1.2009,optionRight,70,9605,5,3,0,3,0,1,,,,,,,,,,,,,,,,,,,,,,,,,,,,,,,,,,,,,,,
,,,,,,,,2023-08-06_08h28.03.245,HF_wild_card,2022.2.4,Win32,59.79788315,5e3b41c232667b35c717bdda,64ce5acb97489d65b14ecc7a,64cf4b6149702ec2f815bdb6,,,,,,,ctch,resources/DR.BMP,resources/DY.BMP,Door3,-0.3125,0.001302083,1,0,0,1.2573,optionLeft,70,9675,5,4,0,4,0,1,,,,,,,,,,,,,,,,,,,,,,,,,,,,,,,,,,,,,,,
,,,,,,,,2023-08-06_08h28.03.245,HF_wild_card,2022.2.4,Win32,59.79788315,5e3b41c232667b35c717bdda,64ce5acb97489d65b14ecc7a,64cf4b6149702ec2f815bdb6,,,,,,,decisionTrl,resources/DP.BMP,resources/DY.BMP,Door2,0.338541667,-0.024739583,1,0,0,0.7931,optionRight,20,9695,5,5,0,5,0,1,,,,,,,,,,,,,,,,,,,,,,,,,,,,,,,,,,,,,,,
,,,,,,,,2023-08-06_08h28.03.245,HF_wild_card,2022.2.4,Win32,59.79788315,5e3b41c232667b35c717bdda,64ce5acb97489d65b14ecc7a,64cf4b6149702ec2f815bdb6,,,,,,,decisionTrl,resources/DG.BMP,resources/DR.BMP,Door4,-0.255208333,0.020833333,1,0,0,0.907,optionLeft,80,9775,5,6,0,6,0,1,,,,,,,,,,,,,,,,,,,,,,,,,,,,,,,,,,,,,,,
,,,,,,,,2023-08-06_08h28.03.245,HF_wild_card,2022.2.4,Win32,59.79788315,5e3b41c232667b35c717bdda,64ce5acb97489d65b14ecc7a,64cf4b6149702ec2f815bdb6,,,,,,,decisionTrl,resources/DY.BMP,resources/DP.BMP,Door1,0.358072917,-0.001302083,1,0,0,0.8818,optionRight,30,9805,5,7,0,7,0,1,,,,,,,,,,,,,,,,,,,,,,,,,,,,,,,,,,,,,,,
,,,,,,,,2023-08-06_08h28.03.245,HF_wild_card,2022.2.4,Win32,59.79788315,5e3b41c232667b35c717bdda,64ce5acb97489d65b14ecc7a,64cf4b6149702ec2f815bdb6,,,,,,,sngl,resources/DBN.BMP,resources/Empty.png,WildCard_Ex,-0.23046875,0.005208333,1,0,0,0.7724,optionLeft,95,9900,5,8,0,8,0,1,,,,,,,,,,,,,,,,,,,,,,,,,,,,,,,,,,,,,,,
,,,,,,,,2023-08-06_08h28.03.245,HF_wild_card,2022.2.4,Win32,59.79788315,5e3b41c232667b35c717bdda,64ce5acb97489d65b14ecc7a,64cf4b6149702ec2f815bdb6,,,,,,,decisionTrl,resources/DY.BMP,resources/DP.BMP,Door1,0.385416667,-0.005208333,1,0,0,0.9692,optionRight,30,9930,5,9,0,9,0,1,,,,,,,,,,,,,,,,,,,,,,,,,,,,,,,,,,,,,,,
,,,,,,,,2023-08-06_08h28.03.245,HF_wild_card,2022.2.4,Win32,59.79788315,5e3b41c232667b35c717bdda,64ce5acb97489d65b14ecc7a,64cf4b6149702ec2f815bdb6,,,,,,,decisionTrl,resources/DG.BMP,resources/DR.BMP,Door4,-0.25390625,0.028645833,1,0,0,0.9403,optionLeft,80,10010,5,10,0,10,0,1,,,,,,,,,,,,,,,,,,,,,,,,,,,,,,,,,,,,,,,
,,,,,,,,2023-08-06_08h28.03.245,HF_wild_card,2022.2.4,Win32,59.79788315,5e3b41c232667b35c717bdda,64ce5acb97489d65b14ecc7a,64cf4b6149702ec2f815bdb6,,,,,,,ctch,resources/DP.BMP,resources/DG.BMP,Door4,0.390625,0.026041667,1,0,0,0.952,optionRight,60,10070,5,11,0,11,0,1,,,,,,,,,,,,,,,,,,,,,,,,,,,,,,,,,,,,,,,
,,,,,,,,2023-08-06_08h28.03.245,HF_wild_card,2022.2.4,Win32,59.79788315,5e3b41c232667b35c717bdda,64ce5acb97489d65b14ecc7a,64cf4b6149702ec2f815bdb6,,,,,,,decisionTrl,resources/DP.BMP,resources/DY.BMP,Door1,-0.294270833,-0.002604167,1,0,0,1.0838,optionLeft,30,10100,5,12,0,12,0,1,,,,,,,,,,,,,,,,,,,,,,,,,,,,,,,,,,,,,,,
,,,,,,,,2023-08-06_08h28.03.245,HF_wild_card,2022.2.4,Win32,59.79788315,5e3b41c232667b35c717bdda,64ce5acb97489d65b14ecc7a,64cf4b6149702ec2f815bdb6,,,,,,,sngl,resources/DR.BMP,resources/Empty.png,Door3,-0.200520833,0.0234375,1,0,0,0.596,optionLeft,70,10170,5,13,0,13,0,1,,,,,,,,,,,,,,,,,,,,,,,,,,,,,,,,,,,,,,,
,,,,,,,,2023-08-06_08h28.03.245,HF_wild_card,2022.2.4,Win32,59.79788315,5e3b41c232667b35c717bdda,64ce5acb97489d65b14ecc7a,64cf4b6149702ec2f815bdb6,,,,,,,sngl,resources/DP.BMP,resources/Empty.png,Door1,-0.229166667,0.02734375,1,0,0,0.5501,optionLeft,30,10200,5,14,0,14,0,1,,,,,,,,,,,,,,,,,,,,,,,,,,,,,,,,,,,,,,,
,,,,,,,,2023-08-06_08h28.03.245,HF_wild_card,2022.2.4,Win32,59.79788315,5e3b41c232667b35c717bdda,64ce5acb97489d65b14ecc7a,64cf4b6149702ec2f815bdb6,,,,,,,decisionTrl,resources/DP.BMP,resources/DY.BMP,Door1,-0.295572917,0.02734375,1,0,0,0.9676,optionLeft,30,10230,5,15,0,15,0,1,,,,,,,,,,,,,,,,,,,,,,,,,,,,,,,,,,,,,,,
,,,,,,,,2023-08-06_08h28.03.245,HF_wild_card,2022.2.4,Win32,59.79788315,5e3b41c232667b35c717bdda,64ce5acb97489d65b14ecc7a,64cf4b6149702ec2f815bdb6,,,,,,,sngl,resources/Empty.png,resources/DR.BMP,Door3,0.283854167,0.03125,1,0,0,0.6008,optionRight,70,10300,5,16,0,16,0,1,,,,,,,,,,,,,,,,,,,,,,,,,,,,,,,,,,,,,,,
,,,,,,,,2023-08-06_08h28.03.245,HF_wild_card,2022.2.4,Win32,59.79788315,5e3b41c232667b35c717bdda,64ce5acb97489d65b14ecc7a,64cf4b6149702ec2f815bdb6,,,,,,,decisionTrl,resources/DP.BMP,resources/DY.BMP,Door1,-0.194010417,0.016927083,1,0,0,0.8219,optionLeft,30,10330,5,17,0,17,0,1,,,,,,,,,,,,,,,,,,,,,,,,,,,,,,,,,,,,,,,
,,,,,,,,2023-08-06_08h28.03.245,HF_wild_card,2022.2.4,Win32,59.79788315,5e3b41c232667b35c717bdda,64ce5acb97489d65b14ecc7a,64cf4b6149702ec2f815bdb6,,,,,,,decisionTrl,resources/DY.BMP,resources/DBN.BMP,WildCard_Ex,0.334635417,0.037760417,1,0,0,1.894,optionRight,5,10335,5,18,0,18,0,1,,,,,,,,,,,,,,,,,,,,,,,,,,,,,,,,,,,,,,,
,,,,,,,,2023-08-06_08h28.03.245,HF_wild_card,2022.2.4,Win32,59.79788315,5e3b41c232667b35c717bdda,64ce5acb97489d65b14ecc7a,64cf4b6149702ec2f815bdb6,,,,,,,decisionTrl,resources/DY.BMP,resources/DP.BMP,Door1,0.33984375,0.002604167,1,0,0,1.0806,optionRight,30,10365,5,19,0,19,0,1,,,,,,,,,,,,,,,,,,,,,,,,,,,,,,,,,,,,,,,
,,,,,,,,2023-08-06_08h28.03.245,HF_wild_card,2022.2.4,Win32,59.79788315,5e3b41c232667b35c717bdda,64ce5acb97489d65b14ecc7a,64cf4b6149702ec2f815bdb6,,,,,,,decisionTrl,resources/DBN.BMP,resources/DG.BMP,Door4,0.369791667,0.084635417,1,0,0,1.1748,optionRight,80,10445,5,20,0,20,0,1,,,,,,,,,,,,,,,,,,,,,,,,,,,,,,,,,,,,,,,
,,,,,,,,2023-08-06_08h28.03.245,HF_wild_card,2022.2.4,Win32,59.79788315,5e3b41c232667b35c717bdda,64ce5acb97489d65b14ecc7a,64cf4b6149702ec2f815bdb6,,,,,,,decisionTrl,resources/DG.BMP,resources/DR.BMP,Door4,-0.3125,0.044270833,1,0,0,1.3179,optionLeft,60,10505,5,21,0,21,0,1,,,,,,,,,,,,,,,,,,,,,,,,,,,,,,,,,,,,,,,
,,,,,,,,2023-08-06_08h28.03.245,HF_wild_card,2022.2.4,Win32,59.79788315,5e3b41c232667b35c717bdda,64ce5acb97489d65b14ecc7a,64cf4b6149702ec2f815bdb6,,,,,,,ctch,resources/DR.BMP,resources/DY.BMP,Door3,-0.369791667,0.046875,1,0,0,0.9297,optionLeft,70,10575,5,22,0,22,0,1,,,,,,,,,,,,,,,,,,,,,,,,,,,,,,,,,,,,,,,
,,,,,,,,2023-08-06_08h28.03.245,HF_wild_card,2022.2.4,Win32,59.79788315,5e3b41c232667b35c717bdda,64ce5acb97489d65b14ecc7a,64cf4b6149702ec2f815bdb6,,,,,,,ctch,resources/DG.BMP,resources/DP.BMP,Door4,-0.313802083,0.057291667,1,0,0,1.0201,optionLeft,60,10635,5,23,0,23,0,1,,,,,,,,,,,,,,,,,,,,,,,,,,,,,,,,,,,,,,,
,,,,,,,,2023-08-06_08h28.03.245,HF_wild_card,2022.2.4,Win32,59.79788315,5e3b41c232667b35c717bdda,64ce5acb97489d65b14ecc7a,64cf4b6149702ec2f815bdb6,,,,,,,decisionTrl,resources/DR.BMP,resources/DBN.BMP,Door3,-0.326822917,0.040364583,1,0,0,1.7368,optionLeft,70,10705,5,24,0,24,0,1,,,,,,,,,,,,,,,,,,,,,,,,,,,,,,,,,,,,,,,
,,,,,,,,2023-08-06_08h28.03.245,HF_wild_card,2022.2.4,Win32,59.79788315,5e3b41c232667b35c717bdda,64ce5acb97489d65b14ecc7a,64cf4b6149702ec2f815bdb6,,,,,,,decisionTrl,resources/DR.BMP,resources/DG.BMP,Door4,0.296875,0.063802083,1,0,0,1.7427,optionRight,60,10765,5,25,0,25,0,1,,,,,,,,,,,,,,,,,,,,,,,,,,,,,,,,,,,,,,,
,,,,,,,,2023-08-06_08h28.03.245,HF_wild_card,2022.2.4,Win32,59.79788315,5e3b41c232667b35c717bdda,64ce5acb97489d65b14ecc7a,64cf4b6149702ec2f815bdb6,,,,,,,sngl,resources/Empty.png,resources/DBN.BMP,WildCard_Ex,0.338541667,0.03125,1,0,0,0.888,optionRight,5,10770,5,26,0,26,0,1,,,,,,,,,,,,,,,,,,,,,,,,,,,,,,,,,,,,,,,
,,,,,,,,2023-08-06_08h28.03.245,HF_wild_card,2022.2.4,Win32,59.79788315,5e3b41c232667b35c717bdda,64ce5acb97489d65b14ecc7a,64cf4b6149702ec2f815bdb6,,,,,,,decisionTrl,resources/DG.BMP,resources/DR.BMP,Door3,0.295572917,-0.006510417,1,0,0,1.1434,optionRight,70,10840,5,27,0,27,0,1,,,,,,,,,,,,,,,,,,,,,,,,,,,,,,,,,,,,,,,
,,,,,,,,2023-08-06_08h28.03.245,HF_wild_card,2022.2.4,Win32,59.79788315,5e3b41c232667b35c717bdda,64ce5acb97489d65b14ecc7a,64cf4b6149702ec2f815bdb6,,,,,,,sngl,resources/Empty.png,resources/DBN.BMP,WildCard_Ex,0.322916667,0.0390625,1,0,0,1.0179,optionRight,95,10935,5,28,0,28,0,1,,,,,,,,,,,,,,,,,,,,,,,,,,,,,,,,,,,,,,,
,,,,,,,,2023-08-06_08h28.03.245,HF_wild_card,2022.2.4,Win32,59.79788315,5e3b41c232667b35c717bdda,64ce5acb97489d65b14ecc7a,64cf4b6149702ec2f815bdb6,,,,,,,ctch,resources/DY.BMP,resources/DR.BMP,Door3,0.338541667,-0.005208333,1,0,0,1.0119,optionRight,70,11005,5,29,0,29,0,1,,,,,,,,,,,,,,,,,,,,,,,,,,,,,,,,,,,,,,,
,,,,,,,,2023-08-06_08h28.03.245,HF_wild_card,2022.2.4,Win32,59.79788315,5e3b41c232667b35c717bdda,64ce5acb97489d65b14ecc7a,64cf4b6149702ec2f815bdb6,,,,,,,ctch,resources/DY.BMP,resources/DR.BMP,Door3,0.401041667,-0.014322917,1,0,0,0.9601,optionRight,70,11075,5,30,0,30,0,1,,,,,,,,,,,,,,,,,,,,,,,,,,,,,,,,,,,,,,,
,,,,,,,,2023-08-06_08h28.03.245,HF_wild_card,2022.2.4,Win32,59.79788315,5e3b41c232667b35c717bdda,64ce5acb97489d65b14ecc7a,64cf4b6149702ec2f815bdb6,,,,,,,decisionTrl,resources/DP.BMP,resources/DBN.BMP,Door1,-0.415364583,0.026041667,1,0,0,0.9753,optionLeft,30,11105,5,31,0,31,0,1,,,,,,,,,,,,,,,,,,,,,,,,,,,,,,,,,,,,,,,
,,,,,,,,2023-08-06_08h28.03.245,HF_wild_card,2022.2.4,Win32,59.79788315,5e3b41c232667b35c717bdda,64ce5acb97489d65b14ecc7a,64cf4b6149702ec2f815bdb6,,,,,,,sngl,resources/Empty.png,resources/DG.BMP,Door4,0.37109375,0.0078125,1,0,0,0.835,optionRight,60,11165,5,32,0,32,0,1,,,,,,,,,,,,,,,,,,,,,,,,,,,,,,,,,,,,,,,
,,,,,,,,2023-08-06_08h28.03.245,HF_wild_card,2022.2.4,Win32,59.79788315,5e3b41c232667b35c717bdda,64ce5acb97489d65b14ecc7a,64cf4b6149702ec2f815bdb6,,,,,,,sngl,resources/Empty.png,resources/DY.BMP,Door2,0.368489583,0.009114583,1,0,0,0.7458,optionRight,20,11185,5,33,0,33,0,1,,,,,,,,,,,,,,,,,,,,,,,,,,,,,,,,,,,,,,,
,,,,,,,,2023-08-06_08h28.03.245,HF_wild_card,2022.2.4,Win32,59.79788315,5e3b41c232667b35c717bdda,64ce5acb97489d65b14ecc7a,64cf4b6149702ec2f815bdb6,,,,,,,decisionTrl,resources/DR.BMP,resources/DG.BMP,Door4,0.376302083,0.04296875,1,0,0,1.1104,optionRight,60,11245,5,34,0,34,0,1,,,,,,,,,,,,,,,,,,,,,,,,,,,,,,,,,,,,,,,
,,,,,,,,2023-08-06_08h28.03.245,HF_wild_card,2022.2.4,Win32,59.79788315,5e3b41c232667b35c717bdda,64ce5acb97489d65b14ecc7a,64cf4b6149702ec2f815bdb6,,,,,,,sngl,resources/DG.BMP,resources/Empty.png,Door4,-0.34765625,0.0546875,1,0,0,0.7187,optionLeft,80,11325,5,35,0,35,0,1,,,,,,,,,,,,,,,,,,,,,,,,,,,,,,,,,,,,,,,
,,,,,,,,2023-08-06_08h28.03.245,HF_wild_card,2022.2.4,Win32,59.79788315,5e3b41c232667b35c717bdda,64ce5acb97489d65b14ecc7a,64cf4b6149702ec2f815bdb6,,,,,,,sngl,resources/DY.BMP,resources/Empty.png,Door2,-0.299479167,0.037760417,1,0,0,0.767,optionLeft,40,11365,5,36,0,36,0,1,,,,,,,,,,,,,,,,,,,,,,,,,,,,,,,,,,,,,,,
,,,,,,,,2023-08-06_08h28.03.245,HF_wild_card,2022.2.4,Win32,59.79788315,5e3b41c232667b35c717bdda,64ce5acb97489d65b14ecc7a,64cf4b6149702ec2f815bdb6,,,,,,,ctch,resources/DG.BMP,resources/DP.BMP,Door4,-0.315104167,0.10546875,1,0,0,0.9247,optionLeft,60,11425,5,37,0,37,0,1,,,,,,,,,,,,,,,,,,,,,,,,,,,,,,,,,,,,,,,
,,,,,,,,2023-08-06_08h28.03.245,HF_wild_card,2022.2.4,Win32,59.79788315,5e3b41c232667b35c717bdda,64ce5acb97489d65b14ecc7a,64cf4b6149702ec2f815bdb6,,,,,,,decisionTrl,resources/DG.BMP,resources/DBN.BMP,Door4,-0.315104167,0.0625,1,0,0,0.9755,optionLeft,80,11505,5,38,0,38,0,1,,,,,,,,,,,,,,,,,,,,,,,,,,,,,,,,,,,,,,,
,,,,,,,,2023-08-06_08h28.03.245,HF_wild_card,2022.2.4,Win32,59.79788315,5e3b41c232667b35c717bdda,64ce5acb97489d65b14ecc7a,64cf4b6149702ec2f815bdb6,,,,,,,decisionTrl,resources/DR.BMP,resources/DG.BMP,Door3,-0.322916667,0.020833333,1,0,0,0.883,optionLeft,70,11575,5,39,0,39,0,1,,,,,,,,,,,,,,,,,,,,,,,,,,,,,,,,,,,,,,,
,,,,,,,,2023-08-06_08h28.03.245,HF_wild_card,2022.2.4,Win32,59.79788315,5e3b41c232667b35c717bdda,64ce5acb97489d65b14ecc7a,64cf4b6149702ec2f815bdb6,,,,,,,decisionTrl,resources/DBN.BMP,resources/DY.BMP,Door2,0.338541667,0.036458333,1,0,0,1.0799,optionRight,40,11615,5,40,0,40,0,1,,,,,,,,,,,,,,,,,,,,,,,,,,,,,,,,,,,,,,,
,,,,,,,,2023-08-06_08h28.03.245,HF_wild_card,2022.2.4,Win32,59.79788315,5e3b41c232667b35c717bdda,64ce5acb97489d65b14ecc7a,64cf4b6149702ec2f815bdb6,,,,,,,decisionTrl,resources/DR.BMP,resources/DG.BMP,Door3,-0.390625,0.024739583,1,0,0,1.2709,optionLeft,70,11685,5,41,0,41,0,1,,,,,,,,,,,,,,,,,,,,,,,,,,,,,,,,,,,,,,,
,,,,,,,,2023-08-06_08h28.03.245,HF_wild_card,2022.2.4,Win32,59.79788315,5e3b41c232667b35c717bdda,64ce5acb97489d65b14ecc7a,64cf4b6149702ec2f815bdb6,,,,,,,ctch,resources/DP.BMP,resources/DG.BMP,Door4,0.424479167,0.0234375,1,0,0,1.8106,optionRight,80,11765,5,42,0,42,0,1,,,,,,,,,,,,,,,,,,,,,,,,,,,,,,,,,,,,,,,
,,,,,,,,2023-08-06_08h28.03.245,HF_wild_card,2022.2.4,Win32,59.79788315,5e3b41c232667b35c717bdda,64ce5acb97489d65b14ecc7a,64cf4b6149702ec2f815bdb6,,,,,,,decisionTrl,resources/DBN.BMP,resources/DP.BMP,Door1,0.4296875,0.0234375,1,0,0,1.29,optionRight,30,11795,5,43,0,43,0,1,,,,,,,,,,,,,,,,,,,,,,,,,,,,,,,,,,,,,,,
,,,,,,,,2023-08-06_08h28.03.245,HF_wild_card,2022.2.4,Win32,59.79788315,5e3b41c232667b35c717bdda,64ce5acb97489d65b14ecc7a,64cf4b6149702ec2f815bdb6,,,,,,,,,,,,,,,,,,,,,,,,,,4,0,4,0,1,,,,,,,,,,,,,,,,,,,,,,,,,,,,,,,,,,
,,,,,,,,2023-08-06_08h28.03.245,HF_wild_card,2022.2.4,Win32,59.79788315,5e3b41c232667b35c717bdda,64ce5acb97489d65b14ecc7a,64cf4b6149702ec2f815bdb6,,,,,,,decisionTrl,resources/DY.BMP,resources/DP.BMP,Door1,0.337239583,-0.024739583,1,0,0,1.229,optionRight,30,11825,6,0,0,0,0,1,,,,,,,,,,,,,,,,,,,,,,,,,,,,,,,,,,,,,,,
,,,,,,,,2023-08-06_08h28.03.245,HF_wild_card,2022.2.4,Win32,59.79788315,5e3b41c232667b35c717bdda,64ce5acb97489d65b14ecc7a,64cf4b6149702ec2f815bdb6,,,,,,,ctch,resources/DG.BMP,resources/DP.BMP,Door4,-0.34765625,0.020833333,1,0,0,0.7605,optionLeft,60,11885,6,1,0,1,0,1,,,,,,,,,,,,,,,,,,,,,,,,,,,,,,,,,,,,,,,
,,,,,,,,2023-08-06_08h28.03.245,HF_wild_card,2022.2.4,Win32,59.79788315,5e3b41c232667b35c717bdda,64ce5acb97489d65b14ecc7a,64cf4b6149702ec2f815bdb6,,,,,,,decisionTrl,resources/DR.BMP,resources/DG.BMP,Door3,-0.361979167,0.018229167,1,0,0,1.0648,optionLeft,70,11955,6,2,0,2,0,1,,,,,,,,,,,,,,,,,,,,,,,,,,,,,,,,,,,,,,,
,,,,,,,,2023-08-06_08h28.03.245,HF_wild_card,2022.2.4,Win32,59.79788315,5e3b41c232667b35c717bdda,64ce5acb97489d65b14ecc7a,64cf4b6149702ec2f815bdb6,,,,,,,ctch,resources/DY.BMP,resources/DR.BMP,Door3,0.375,-0.009114583,1,0,0,1.0631,optionRight,70,12025,6,3,0,3,0,1,,,,,,,,,,,,,,,,,,,,,,,,,,,,,,,,,,,,,,,
,,,,,,,,2023-08-06_08h28.03.245,HF_wild_card,2022.2.4,Win32,59.79788315,5e3b41c232667b35c717bdda,64ce5acb97489d65b14ecc7a,64cf4b6149702ec2f815bdb6,,,,,,,decisionTrl,resources/DP.BMP,resources/DY.BMP,Door1,-0.352864583,0.001302083,1,0,0,1.6638,optionLeft,30,12055,6,4,0,4,0,1,,,,,,,,,,,,,,,,,,,,,,,,,,,,,,,,,,,,,,,
,,,,,,,,2023-08-06_08h28.03.245,HF_wild_card,2022.2.4,Win32,59.79788315,5e3b41c232667b35c717bdda,64ce5acb97489d65b14ecc7a,64cf4b6149702ec2f815bdb6,,,,,,,decisionTrl,resources/DBN.BMP,resources/DP.BMP,Door1,0.376302083,-0.001302083,1,0,0,0.9969,optionRight,30,12085,6,5,0,5,0,1,,,,,,,,,,,,,,,,,,,,,,,,,,,,,,,,,,,,,,,
,,,,,,,,2023-08-06_08h28.03.245,HF_wild_card,2022.2.4,Win32,59.79788315,5e3b41c232667b35c717bdda,64ce5acb97489d65b14ecc7a,64cf4b6149702ec2f815bdb6,,,,,,,ctch,resources/DR.BMP,resources/DY.BMP,Door3,-0.30078125,0.016927083,1,0,0,0.8295,optionLeft,70,12155,6,6,0,6,0,1,,,,,,,,,,,,,,,,,,,,,,,,,,,,,,,,,,,,,,,
,,,,,,,,2023-08-06_08h28.03.245,HF_wild_card,2022.2.4,Win32,59.79788315,5e3b41c232667b35c717bdda,64ce5acb97489d65b14ecc7a,64cf4b6149702ec2f815bdb6,,,,,,,sngl,resources/DP.BMP,resources/Empty.png,Door1,-0.32421875,0.040364583,1,0,0,0.5654,optionLeft,30,12185,6,7,0,7,0,1,,,,,,,,,,,,,,,,,,,,,,,,,,,,,,,,,,,,,,,
,,,,,,,,2023-08-06_08h28.03.245,HF_wild_card,2022.2.4,Win32,59.79788315,5e3b41c232667b35c717bdda,64ce5acb97489d65b14ecc7a,64cf4b6149702ec2f815bdb6,,,,,,,decisionTrl,resources/DP.BMP,resources/DY.BMP,Door1,-0.38671875,0.0078125,1,0,0,1.4645,optionLeft,30,12215,6,8,0,8,0,1,,,,,,,,,,,,,,,,,,,,,,,,,,,,,,,,,,,,,,,
,,,,,,,,2023-08-06_08h28.03.245,HF_wild_card,2022.2.4,Win32,59.79788315,5e3b41c232667b35c717bdda,64ce5acb97489d65b14ecc7a,64cf4b6149702ec2f815bdb6,,,,,,,sngl,resources/DR.BMP,resources/Empty.png,Door3,-0.388020833,-0.002604167,1,0,0,0.8978,optionLeft,70,12285,6,9,0,9,0,1,,,,,,,,,,,,,,,,,,,,,,,,,,,,,,,,,,,,,,,
,,,,,,,,2023-08-06_08h28.03.245,HF_wild_card,2022.2.4,Win32,59.79788315,5e3b41c232667b35c717bdda,64ce5acb97489d65b14ecc7a,64cf4b6149702ec2f815bdb6,,,,,,,ctch,resources/DP.BMP,resources/DG.BMP,Door4,0.44140625,0.020833333,1,0,0,1.0787,optionRight,60,12345,6,10,0,10,0,1,,,,,,,,,,,,,,,,,,,,,,,,,,,,,,,,,,,,,,,
,,,,,,,,2023-08-06_08h28.03.245,HF_wild_card,2022.2.4,Win32,59.79788315,5e3b41c232667b35c717bdda,64ce5acb97489d65b14ecc7a,64cf4b6149702ec2f815bdb6,,,,,,,decisionTrl,resources/DG.BMP,resources/DR.BMP,Door3,0.2578125,0.005208333,1,0,0,1.1865,optionRight,70,12415,6,11,0,11,0,1,,,,,,,,,,,,,,,,,,,,,,,,,,,,,,,,,,,,,,,
,,,,,,,,2023-08-06_08h28.03.245,HF_wild_card,2022.2.4,Win32,59.79788315,5e3b41c232667b35c717bdda,64ce5acb97489d65b14ecc7a,64cf4b6149702ec2f815bdb6,,,,,,,sngl,resources/Empty.png,resources/DY.BMP,Door2,0.395833333,-0.005208333,1,0,0,0.8126,optionRight,40,12455,6,12,0,12,0,1,,,,,,,,,,,,,,,,,,,,,,,,,,,,,,,,,,,,,,,
,,,,,,,,2023-08-06_08h28.03.245,HF_wild_card,2022.2.4,Win32,59.79788315,5e3b41c232667b35c717bdda,64ce5acb97489d65b14ecc7a,64cf4b6149702ec2f815bdb6,,,,,,,decisionTrl,resources/DR.BMP,resources/DG.BMP,Door3,-0.446614583,0.018229167,1,0,0,0.8687,optionLeft,70,12525,6,13,0,13,0,1,,,,,,,,,,,,,,,,,,,,,,,,,,,,,,,,,,,,,,,
,,,,,,,,2023-08-06_08h28.03.245,HF_wild_card,2022.2.4,Win32,59.79788315,5e3b41c232667b35c717bdda,64ce5acb97489d65b14ecc7a,64cf4b6149702ec2f815bdb6,,,,,,,ctch,resources/DG.BMP,resources/DP.BMP,Door4,-0.359375,0.0390625,1,0,0,0.964,optionLeft,80,12605,6,14,0,14,0,1,,,,,,,,,,,,,,,,,,,,,,,,,,,,,,,,,,,,,,,
,,,,,,,,2023-08-06_08h28.03.245,HF_wild_card,2022.2.4,Win32,59.79788315,5e3b41c232667b35c717bdda,64ce5acb97489d65b14ecc7a,64cf4b6149702ec2f815bdb6,,,,,,,sngl,resources/Empty.png,resources/DG.BMP,Door4,0.373697917,0.002604167,1,0,0,0.9356,optionRight,80,12685,6,15,0,15,0,1,,,,,,,,,,,,,,,,,,,,,,,,,,,,,,,,,,,,,,,
,,,,,,,,2023-08-06_08h28.03.245,HF_wild_card,2022.2.4,Win32,59.79788315,5e3b41c232667b35c717bdda,64ce5acb97489d65b14ecc7a,64cf4b6149702ec2f815bdb6,,,,,,,sngl,resources/DG.BMP,resources/Empty.png,Door4,-0.404947917,0.04296875,1,0,0,0.7472,optionLeft,60,12745,6,16,0,16,0,1,,,,,,,,,,,,,,,,,,,,,,,,,,,,,,,,,,,,,,,
,,,,,,,,2023-08-06_08h28.03.245,HF_wild_card,2022.2.4,Win32,59.79788315,5e3b41c232667b35c717bdda,64ce5acb97489d65b14ecc7a,64cf4b6149702ec2f815bdb6,,,,,,,ctch,resources/DR.BMP,resources/DY.BMP,Door3,-0.37890625,-0.01953125,1,0,0,1.2636,optionLeft,70,12815,6,17,0,17,0,1,,,,,,,,,,,,,,,,,,,,,,,,,,,,,,,,,,,,,,,
,,,,,,,,2023-08-06_08h28.03.245,HF_wild_card,2022.2.4,Win32,59.79788315,5e3b41c232667b35c717bdda,64ce5acb97489d65b14ecc7a,64cf4b6149702ec2f815bdb6,,,,,,,sngl,resources/Empty.png,resources/DBN.BMP,WildCard_Ex,0.356770833,0.001302083,1,0,0,1.0431,optionRight,5,12820,6,18,0,18,0,1,,,,,,,,,,,,,,,,,,,,,,,,,,,,,,,,,,,,,,,
,,,,,,,,2023-08-06_08h28.03.245,HF_wild_card,2022.2.4,Win32,59.79788315,5e3b41c232667b35c717bdda,64ce5acb97489d65b14ecc7a,64cf4b6149702ec2f815bdb6,,,,,,,decisionTrl,resources/DG.BMP,resources/DR.BMP,Door3,0.385416667,-0.026041667,1,0,0,1.0652,optionRight,70,12890,6,19,0,19,0,1,,,,,,,,,,,,,,,,,,,,,,,,,,,,,,,,,,,,,,,
,,,,,,,,2023-08-06_08h28.03.245,HF_wild_card,2022.2.4,Win32,59.79788315,5e3b41c232667b35c717bdda,64ce5acb97489d65b14ecc7a,64cf4b6149702ec2f815bdb6,,,,,,,sngl,resources/DY.BMP,resources/Empty.png,Door2,-0.42578125,0.016927083,1,0,0,0.7324,optionLeft,20,12910,6,20,0,20,0,1,,,,,,,,,,,,,,,,,,,,,,,,,,,,,,,,,,,,,,,
,,,,,,,,2023-08-06_08h28.03.245,HF_wild_card,2022.2.4,Win32,59.79788315,5e3b41c232667b35c717bdda,64ce5acb97489d65b14ecc7a,64cf4b6149702ec2f815bdb6,,,,,,,decisionTrl,resources/DBN.BMP,resources/DY.BMP,Door2,0.427083333,0,1,0,0,0.7818,optionRight,20,12930,6,21,0,21,0,1,,,,,,,,,,,,,,,,,,,,,,,,,,,,,,,,,,,,,,,
,,,,,,,,2023-08-06_08h28.03.245,HF_wild_card,2022.2.4,Win32,59.79788315,5e3b41c232667b35c717bdda,64ce5acb97489d65b14ecc7a,64cf4b6149702ec2f815bdb6,,,,,,,decisionTrl,resources/DBN.BMP,resources/DR.BMP,Door3,0.372395833,-0.028645833,1,0,0,0.7639,optionRight,70,13000,6,22,0,22,0,1,,,,,,,,,,,,,,,,,,,,,,,,,,,,,,,,,,,,,,,
,,,,,,,,2023-08-06_08h28.03.245,HF_wild_card,2022.2.4,Win32,59.79788315,5e3b41c232667b35c717bdda,64ce5acb97489d65b14ecc7a,64cf4b6149702ec2f815bdb6,,,,,,,sngl,resources/Empty.png,resources/DBN.BMP,WildCard_Ex,0.325520833,-0.009114583,1,0,0,0.7306,optionRight,95,13095,6,23,0,23,0,1,,,,,,,,,,,,,,,,,,,,,,,,,,,,,,,,,,,,,,,
,,,,,,,,2023-08-06_08h28.03.245,HF_wild_card,2022.2.4,Win32,59.79788315,5e3b41c232667b35c717bdda,64ce5acb97489d65b14ecc7a,64cf4b6149702ec2f815bdb6,,,,,,,decisionTrl,resources/DY.BMP,resources/DBN.BMP,WildCard_Ex,0.334635417,-0.00390625,1,0,0,1.5465,optionRight,5,13100,6,24,0,24,0,1,,,,,,,,,,,,,,,,,,,,,,,,,,,,,,,,,,,,,,,
,,,,,,,,2023-08-06_08h28.03.245,HF_wild_card,2022.2.4,Win32,59.79788315,5e3b41c232667b35c717bdda,64ce5acb97489d65b14ecc7a,64cf4b6149702ec2f815bdb6,,,,,,,ctch,resources/DY.BMP,resources/DR.BMP,Door3,0.375,-0.014322917,1,0,0,1.0471,optionRight,70,13170,6,25,0,25,0,1,,,,,,,,,,,,,,,,,,,,,,,,,,,,,,,,,,,,,,,
,,,,,,,,2023-08-06_08h28.03.245,HF_wild_card,2022.2.4,Win32,59.79788315,5e3b41c232667b35c717bdda,64ce5acb97489d65b14ecc7a,64cf4b6149702ec2f815bdb6,,,,,,,decisionTrl,resources/DY.BMP,resources/DP.BMP,Door1,0.380208333,-0.016927083,1,0,0,1.0304,optionRight,30,13200,6,26,0,26,0,1,,,,,,,,,,,,,,,,,,,,,,,,,,,,,,,,,,,,,,,
,,,,,,,,2023-08-06_08h28.03.245,HF_wild_card,2022.2.4,Win32,59.79788315,5e3b41c232667b35c717bdda,64ce5acb97489d65b14ecc7a,64cf4b6149702ec2f815bdb6,,,,,,,decisionTrl,resources/DR.BMP,resources/DG.BMP,Door3,-0.34375,-0.005208333,1,0,0,0.8798,optionLeft,70,13270,6,27,0,27,0,1,,,,,,,,,,,,,,,,,,,,,,,,,,,,,,,,,,,,,,,
,,,,,,,,2023-08-06_08h28.03.245,HF_wild_card,2022.2.4,Win32,59.79788315,5e3b41c232667b35c717bdda,64ce5acb97489d65b14ecc7a,64cf4b6149702ec2f815bdb6,,,,,,,decisionTrl,resources/DY.BMP,resources/DP.BMP,Door1,0.34765625,0.0234375,1,0,0,0.9627,optionRight,30,13300,6,28,0,28,0,1,,,,,,,,,,,,,,,,,,,,,,,,,,,,,,,,,,,,,,,
,,,,,,,,2023-08-06_08h28.03.245,HF_wild_card,2022.2.4,Win32,59.79788315,5e3b41c232667b35c717bdda,64ce5acb97489d65b14ecc7a,64cf4b6149702ec2f815bdb6,,,,,,,decisionTrl,resources/DP.BMP,resources/DY.BMP,Door1,-0.33984375,-0.0234375,1,0,0,0.8303,optionLeft,30,13330,6,29,0,29,0,1,,,,,,,,,,,,,,,,,,,,,,,,,,,,,,,,,,,,,,,
,,,,,,,,2023-08-06_08h28.03.245,HF_wild_card,2022.2.4,Win32,59.79788315,5e3b41c232667b35c717bdda,64ce5acb97489d65b14ecc7a,64cf4b6149702ec2f815bdb6,,,,,,,decisionTrl,resources/DR.BMP,resources/DG.BMP,Door3,-0.352864583,-0.040364583,1,0,0,0.9471,optionLeft,70,13400,6,30,0,30,0,1,,,,,,,,,,,,,,,,,,,,,,,,,,,,,,,,,,,,,,,
,,,,,,,,2023-08-06_08h28.03.245,HF_wild_card,2022.2.4,Win32,59.79788315,5e3b41c232667b35c717bdda,64ce5acb97489d65b14ecc7a,64cf4b6149702ec2f815bdb6,,,,,,,decisionTrl,resources/DG.BMP,resources/DR.BMP,Door3,0.376302083,-0.040364583,1,0,0,0.8303,optionRight,70,13470,6,31,0,31,0,1,,,,,,,,,,,,,,,,,,,,,,,,,,,,,,,,,,,,,,,
,,,,,,,,2023-08-06_08h28.03.245,HF_wild_card,2022.2.4,Win32,59.79788315,5e3b41c232667b35c717bdda,64ce5acb97489d65b14ecc7a,64cf4b6149702ec2f815bdb6,,,,,,,ctch,resources/DP.BMP,resources/DG.BMP,Door4,0.364583333,-0.002604167,1,0,0,0.9253,optionRight,80,13550,6,32,0,32,0,1,,,,,,,,,,,,,,,,,,,,,,,,,,,,,,,,,,,,,,,
,,,,,,,,2023-08-06_08h28.03.245,HF_wild_card,2022.2.4,Win32,59.79788315,5e3b41c232667b35c717bdda,64ce5acb97489d65b14ecc7a,64cf4b6149702ec2f815bdb6,,,,,,,decisionTrl,resources/DP.BMP,resources/DBN.BMP,Door1,-0.42578125,-0.0234375,1,0,0,1.299,optionLeft,30,13580,6,33,0,33,0,1,,,,,,,,,,,,,,,,,,,,,,,,,,,,,,,,,,,,,,,
,,,,,,,,2023-08-06_08h28.03.245,HF_wild_card,2022.2.4,Win32,59.79788315,5e3b41c232667b35c717bdda,64ce5acb97489d65b14ecc7a,64cf4b6149702ec2f815bdb6,,,,,,,sngl,resources/Empty.png,resources/DR.BMP,Door3,0.330729167,-0.013020833,1,0,0,0.6479,optionRight,70,13650,6,34,0,34,0,1,,,,,,,,,,,,,,,,,,,,,,,,,,,,,,,,,,,,,,,
,,,,,,,,2023-08-06_08h28.03.245,HF_wild_card,2022.2.4,Win32,59.79788315,5e3b41c232667b35c717bdda,64ce5acb97489d65b14ecc7a,64cf4b6149702ec2f815bdb6,,,,,,,sngl,resources/DBN.BMP,resources/Empty.png,WildCard_Ex,-0.217447917,0.01171875,1,0,0,0.6436,optionLeft,95,13745,6,35,0,35,0,1,,,,,,,,,,,,,,,,,,,,,,,,,,,,,,,,,,,,,,,
,,,,,,,,2023-08-06_08h28.03.245,HF_wild_card,2022.2.4,Win32,59.79788315,5e3b41c232667b35c717bdda,64ce5acb97489d65b14ecc7a,64cf4b6149702ec2f815bdb6,,,,,,,decisionTrl,resources/DY.BMP,resources/DP.BMP,Door1,0.4140625,0.002604167,1,0,0,1.2462,optionRight,30,13775,6,36,0,36,0,1,,,,,,,,,,,,,,,,,,,,,,,,,,,,,,,,,,,,,,,
,,,,,,,,2023-08-06_08h28.03.245,HF_wild_card,2022.2.4,Win32,59.79788315,5e3b41c232667b35c717bdda,64ce5acb97489d65b14ecc7a,64cf4b6149702ec2f815bdb6,,,,,,,decisionTrl,resources/DP.BMP,resources/DY.BMP,Door1,-0.438802083,0.006510417,1,0,0,1.0369,optionLeft,30,13805,6,37,0,37,0,1,,,,,,,,,,,,,,,,,,,,,,,,,,,,,,,,,,,,,,,
,,,,,,,,2023-08-06_08h28.03.245,HF_wild_card,2022.2.4,Win32,59.79788315,5e3b41c232667b35c717bdda,64ce5acb97489d65b14ecc7a,64cf4b6149702ec2f815bdb6,,,,,,,sngl,resources/Empty.png,resources/DP.BMP,Door1,0.333333333,-0.009114583,1,0,0,0.6658,optionRight,30,13835,6,38,0,38,0,1,,,,,,,,,,,,,,,,,,,,,,,,,,,,,,,,,,,,,,,
,,,,,,,,2023-08-06_08h28.03.245,HF_wild_card,2022.2.4,Win32,59.79788315,5e3b41c232667b35c717bdda,64ce5acb97489d65b14ecc7a,64cf4b6149702ec2f815bdb6,,,,,,,decisionTrl,resources/DBN.BMP,resources/DG.BMP,Door4,0.477864583,-0.03125,1,0,0,0.7449,optionRight,60,13895,6,39,0,39,0,1,,,,,,,,,,,,,,,,,,,,,,,,,,,,,,,,,,,,,,,
,,,,,,,,2023-08-06_08h28.03.245,HF_wild_card,2022.2.4,Win32,59.79788315,5e3b41c232667b35c717bdda,64ce5acb97489d65b14ecc7a,64cf4b6149702ec2f815bdb6,,,,,,,decisionTrl,resources/DG.BMP,resources/DR.BMP,Door3,0.434895833,-0.040364583,1,0,0,0.9301,optionRight,70,13965,6,40,0,40,0,1,,,,,,,,,,,,,,,,,,,,,,,,,,,,,,,,,,,,,,,
,,,,,,,,2023-08-06_08h28.03.245,HF_wild_card,2022.2.4,Win32,59.79788315,5e3b41c232667b35c717bdda,64ce5acb97489d65b14ecc7a,64cf4b6149702ec2f815bdb6,,,,,,,sngl,resources/DBN.BMP,resources/Empty.png,WildCard_Ex,-0.274739583,-0.009114583,1,0,0,0.7432,optionLeft,5,13970,6,41,0,41,0,1,,,,,,,,,,,,,,,,,,,,,,,,,,,,,,,,,,,,,,,
,,,,,,,,2023-08-06_08h28.03.245,HF_wild_card,2022.2.4,Win32,59.79788315,5e3b41c232667b35c717bdda,64ce5acb97489d65b14ecc7a,64cf4b6149702ec2f815bdb6,,,,,,,decisionTrl,resources/DG.BMP,resources/DBN.BMP,Door4,-0.3203125,-0.01953125,1,0,0,0.663,optionLeft,60,14030,6,42,0,42,0,1,,,,,,,,,,,,,,,,,,,,,,,,,,,,,,,,,,,,,,,
,,,,,,,,2023-08-06_08h28.03.245,HF_wild_card,2022.2.4,Win32,59.79788315,5e3b41c232667b35c717bdda,64ce5acb97489d65b14ecc7a,64cf4b6149702ec2f815bdb6,,,,,,,decisionTrl,resources/DR.BMP,resources/DBN.BMP,Door3,-0.30859375,-0.005208333,1,0,0,0.6999,optionLeft,70,14100,6,43,0,43,0,1,,,,,,,,,,,,,,,,,,,,,,,,,,,,,,,,,,,,,,,
,,,,,,,,2023-08-06_08h28.03.245,HF_wild_card,2022.2.4,Win32,59.79788315,5e3b41c232667b35c717bdda,64ce5acb97489d65b14ecc7a,64cf4b6149702ec2f815bdb6,,,,,,,,,,,,,,,,,,,,,,,,,,5,0,5,0,1,,,,,,,,,,,,,,,,,,,,,,,,,,,,,,,,,,
,,,,,,,,2023-08-06_08h28.03.245,HF_wild_card,2022.2.4,Win32,59.79788315,5e3b41c232667b35c717bdda,64ce5acb97489d65b14ecc7a,64cf4b6149702ec2f815bdb6,,,,,,,decisionTrl,resources/DY.BMP,resources/DP.BMP,Door1,0.397135417,0.006510417,1,0,0,1.2631,optionRight,30,14130,7,0,0,0,0,1,,,,,,,,,,,,,,,,,,,,,,,,,,,,,,,,,,,,,,,
,,,,,,,,2023-08-06_08h28.03.245,HF_wild_card,2022.2.4,Win32,59.79788315,5e3b41c232667b35c717bdda,64ce5acb97489d65b14ecc7a,64cf4b6149702ec2f815bdb6,,,,,,,decisionTrl,resources/DG.BMP,resources/DR.BMP,Door3,0.278645833,-0.010416667,1,0,0,0.9994,optionRight,70,14200,7,1,0,1,0,1,,,,,,,,,,,,,,,,,,,,,,,,,,,,,,,,,,,,,,,
,,,,,,,,2023-08-06_08h28.03.245,HF_wild_card,2022.2.4,Win32,59.79788315,5e3b41c232667b35c717bdda,64ce5acb97489d65b14ecc7a,64cf4b6149702ec2f815bdb6,,,,,,,decisionTrl,resources/DY.BMP,resources/DP.BMP,Door1,0.40625,0.00390625,1,0,0,0.9495,optionRight,30,14230,7,2,0,2,0,1,,,,,,,,,,,,,,,,,,,,,,,,,,,,,,,,,,,,,,,
,,,,,,,,2023-08-06_08h28.03.245,HF_wild_card,2022.2.4,Win32,59.79788315,5e3b41c232667b35c717bdda,64ce5acb97489d65b14ecc7a,64cf4b6149702ec2f815bdb6,,,,,,,decisionTrl,resources/DP.BMP,resources/DY.BMP,Door1,-0.399739583,0.015625,1,0,0,0.9327,optionLeft,30,14260,7,3,0,3,0,1,,,,,,,,,,,,,,,,,,,,,,,,,,,,,,,,,,,,,,,
,,,,,,,,2023-08-06_08h28.03.245,HF_wild_card,2022.2.4,Win32,59.79788315,5e3b41c232667b35c717bdda,64ce5acb97489d65b14ecc7a,64cf4b6149702ec2f815bdb6,,,,,,,decisionTrl,resources/DG.BMP,resources/DR.BMP,Door3,0.36328125,-0.002604167,1,0,0,0.9323,optionRight,70,14330,7,4,0,4,0,1,,,,,,,,,,,,,,,,,,,,,,,,,,,,,,,,,,,,,,,
,,,,,,,,2023-08-06_08h28.03.245,HF_wild_card,2022.2.4,Win32,59.79788315,5e3b41c232667b35c717bdda,64ce5acb97489d65b14ecc7a,64cf4b6149702ec2f815bdb6,,,,,,,decisionTrl,resources/DR.BMP,resources/DG.BMP,Door3,-0.315104167,0.018229167,1,0,0,0.9458,optionLeft,70,14400,7,5,0,5,0,1,,,,,,,,,,,,,,,,,,,,,,,,,,,,,,,,,,,,,,,
,,,,,,,,2023-08-06_08h28.03.245,HF_wild_card,2022.2.4,Win32,59.79788315,5e3b41c232667b35c717bdda,64ce5acb97489d65b14ecc7a,64cf4b6149702ec2f815bdb6,,,,,,,decisionTrl,resources/DR.BMP,resources/DG.BMP,Door3,-0.345052083,0.009114583,1,0,0,0.7813,optionLeft,70,14470,7,6,0,6,0,1,,,,,,,,,,,,,,,,,,,,,,,,,,,,,,,,,,,,,,,
,,,,,,,,2023-08-06_08h28.03.245,HF_wild_card,2022.2.4,Win32,59.79788315,5e3b41c232667b35c717bdda,64ce5acb97489d65b14ecc7a,64cf4b6149702ec2f815bdb6,,,,,,,ctch,resources/DP.BMP,resources/DG.BMP,Door4,0.389322917,0.0390625,1,0,0,1.0007,optionRight,60,14530,7,7,0,7,0,1,,,,,,,,,,,,,,,,,,,,,,,,,,,,,,,,,,,,,,,
,,,,,,,,2023-08-06_08h28.03.245,HF_wild_card,2022.2.4,Win32,59.79788315,5e3b41c232667b35c717bdda,64ce5acb97489d65b14ecc7a,64cf4b6149702ec2f815bdb6,,,,,,,decisionTrl,resources/DY.BMP,resources/DP.BMP,Door1,0.309895833,0.005208333,1,0,0,0.8873,optionRight,30,14560,7,8,0,8,0,1,,,,,,,,,,,,,,,,,,,,,,,,,,,,,,,,,,,,,,,
,,,,,,,,2023-08-06_08h28.03.245,HF_wild_card,2022.2.4,Win32,59.79788315,5e3b41c232667b35c717bdda,64ce5acb97489d65b14ecc7a,64cf4b6149702ec2f815bdb6,,,,,,,ctch,resources/DG.BMP,resources/DP.BMP,Door4,-0.30859375,0.026041667,1,0,0,0.799,optionLeft,80,14640,7,9,0,9,0,1,,,,,,,,,,,,,,,,,,,,,,,,,,,,,,,,,,,,,,,
,,,,,,,,2023-08-06_08h28.03.245,HF_wild_card,2022.2.4,Win32,59.79788315,5e3b41c232667b35c717bdda,64ce5acb97489d65b14ecc7a,64cf4b6149702ec2f815bdb6,,,,,,,ctch,resources/DR.BMP,resources/DY.BMP,Door3,-0.348958333,0.002604167,1,0,0,0.7002,optionLeft,70,14710,7,10,0,10,0,1,,,,,,,,,,,,,,,,,,,,,,,,,,,,,,,,,,,,,,,
,,,,,,,,2023-08-06_08h28.03.245,HF_wild_card,2022.2.4,Win32,59.79788315,5e3b41c232667b35c717bdda,64ce5acb97489d65b14ecc7a,64cf4b6149702ec2f815bdb6,,,,,,,decisionTrl,resources/DP.BMP,resources/DY.BMP,Door1,-0.264322917,0.01171875,1,0,0,0.9644,optionLeft,30,14740,7,11,0,11,0,1,,,,,,,,,,,,,,,,,,,,,,,,,,,,,,,,,,,,,,,
,,,,,,,,2023-08-06_08h28.03.245,HF_wild_card,2022.2.4,Win32,59.79788315,5e3b41c232667b35c717bdda,64ce5acb97489d65b14ecc7a,64cf4b6149702ec2f815bdb6,,,,,,,decisionTrl,resources/DP.BMP,resources/DY.BMP,Door1,-0.31640625,0.0234375,1,0,0,0.8157,optionLeft,30,14770,7,12,0,12,0,1,,,,,,,,,,,,,,,,,,,,,,,,,,,,,,,,,,,,,,,
,,,,,,,,2023-08-06_08h28.03.245,HF_wild_card,2022.2.4,Win32,59.79788315,5e3b41c232667b35c717bdda,64ce5acb97489d65b14ecc7a,64cf4b6149702ec2f815bdb6,,,,,,,decisionTrl,resources/DG.BMP,resources/DR.BMP,Door3,0.278645833,0.005208333,1,0,0,0.7977,optionRight,70,14840,7,13,0,13,0,1,,,,,,,,,,,,,,,,,,,,,,,,,,,,,,,,,,,,,,,
,,,,,,,,2023-08-06_08h28.03.245,HF_wild_card,2022.2.4,Win32,59.79788315,5e3b41c232667b35c717bdda,64ce5acb97489d65b14ecc7a,64cf4b6149702ec2f815bdb6,,,,,,,decisionTrl,resources/DG.BMP,resources/DR.BMP,Door3,0.34765625,-0.010416667,1,0,0,0.6842,optionRight,70,14910,7,14,0,14,0,1,,,,,,,,,,,,,,,,,,,,,,,,,,,,,,,,,,,,,,,
,,,,,,,,2023-08-06_08h28.03.245,HF_wild_card,2022.2.4,Win32,59.79788315,5e3b41c232667b35c717bdda,64ce5acb97489d65b14ecc7a,64cf4b6149702ec2f815bdb6,,,,,,,ctch,resources/DR.BMP,resources/DY.BMP,Door3,-0.345052083,0.01953125,1,0,0,0.7189,optionLeft,70,14980,7,15,0,15,0,1,,,,,,,,,,,,,,,,,,,,,,,,,,,,,,,,,,,,,,,
,,,,,,,,2023-08-06_08h28.03.245,HF_wild_card,2022.2.4,Win32,59.79788315,5e3b41c232667b35c717bdda,64ce5acb97489d65b14ecc7a,64cf4b6149702ec2f815bdb6,,,,,,,decisionTrl,resources/DG.BMP,resources/DR.BMP,Door3,0.26953125,-0.013020833,1,0,0,0.7292,optionRight,70,15050,7,16,0,16,0,1,,,,,,,,,,,,,,,,,,,,,,,,,,,,,,,,,,,,,,,
,,,,,,,,2023-08-06_08h28.03.245,HF_wild_card,2022.2.4,Win32,59.79788315,5e3b41c232667b35c717bdda,64ce5acb97489d65b14ecc7a,64cf4b6149702ec2f815bdb6,,,,,,,decisionTrl,resources/DG.BMP,resources/DR.BMP,Door3,0.33984375,-0.014322917,1,0,0,0.7018,optionRight,70,15120,7,17,0,17,0,1,,,,,,,,,,,,,,,,,,,,,,,,,,,,,,,,,,,,,,,
,,,,,,,,2023-08-06_08h28.03.245,HF_wild_card,2022.2.4,Win32,59.79788315,5e3b41c232667b35c717bdda,64ce5acb97489d65b14ecc7a,64cf4b6149702ec2f815bdb6,,,,,,,decisionTrl,resources/DR.BMP,resources/DG.BMP,Door3,-0.26953125,0.00390625,1,0,0,0.9325,optionLeft,70,15190,7,18,0,18,0,1,,,,,,,,,,,,,,,,,,,,,,,,,,,,,,,,,,,,,,,
,,,,,,,,2023-08-06_08h28.03.245,HF_wild_card,2022.2.4,Win32,59.79788315,5e3b41c232667b35c717bdda,64ce5acb97489d65b14ecc7a,64cf4b6149702ec2f815bdb6,,,,,,,decisionTrl,resources/DR.BMP,resources/DG.BMP,Door3,-0.302083333,0.009114583,1,0,0,0.8318,optionLeft,70,15260,7,19,0,19,0,1,,,,,,,,,,,,,,,,,,,,,,,,,,,,,,,,,,,,,,,
,,,,,,,,2023-08-06_08h28.03.245,HF_wild_card,2022.2.4,Win32,59.79788315,5e3b41c232667b35c717bdda,64ce5acb97489d65b14ecc7a,64cf4b6149702ec2f815bdb6,,,,,,,decisionTrl,resources/DY.BMP,resources/DP.BMP,Door1,0.278645833,-0.00390625,1,0,0,0.9318,optionRight,30,15290,7,20,0,20,0,1,,,,,,,,,,,,,,,,,,,,,,,,,,,,,,,,,,,,,,,
,,,,,,,,2023-08-06_08h28.03.245,HF_wild_card,2022.2.4,Win32,59.79788315,5e3b41c232667b35c717bdda,64ce5acb97489d65b14ecc7a,64cf4b6149702ec2f815bdb6,,,,,,,decisionTrl,resources/DY.BMP,resources/DP.BMP,Door1,0.178385417,-0.005208333,1,0,0,1.1818,optionRight,30,15320,7,21,0,21,0,1,,,,,,,,,,,,,,,,,,,,,,,,,,,,,,,,,,,,,,,
,,,,,,,,2023-08-06_08h28.03.245,HF_wild_card,2022.2.4,Win32,59.79788315,5e3b41c232667b35c717bdda,64ce5acb97489d65b14ecc7a,64cf4b6149702ec2f815bdb6,,,,,,,ctch,resources/DG.BMP,resources/DP.BMP,Door4,-0.234375,0.0390625,1,0,0,0.9467,optionLeft,80,15400,7,22,0,22,0,1,,,,,,,,,,,,,,,,,,,,,,,,,,,,,,,,,,,,,,,
,,,,,,,,2023-08-06_08h28.03.245,HF_wild_card,2022.2.4,Win32,59.79788315,5e3b41c232667b35c717bdda,64ce5acb97489d65b14ecc7a,64cf4b6149702ec2f815bdb6,,,,,,,ctch,resources/DY.BMP,resources/DR.BMP,Door3,0.313802083,-0.020833333,1,0,0,0.8296,optionRight,70,15470,7,23,0,23,0,1,,,,,,,,,,,,,,,,,,,,,,,,,,,,,,,,,,,,,,,
,,,,,,,,2023-08-06_08h28.03.245,HF_wild_card,2022.2.4,Win32,59.79788315,5e3b41c232667b35c717bdda,64ce5acb97489d65b14ecc7a,64cf4b6149702ec2f815bdb6,,,,,,,decisionTrl,resources/DY.BMP,resources/DP.BMP,Door1,0.317708333,-0.03125,1,0,0,1.331,optionRight,30,15500,7,24,0,24,0,1,,,,,,,,,,,,,,,,,,,,,,,,,,,,,,,,,,,,,,,
,,,,,,,,2023-08-06_08h28.03.245,HF_wild_card,2022.2.4,Win32,59.79788315,5e3b41c232667b35c717bdda,64ce5acb97489d65b14ecc7a,64cf4b6149702ec2f815bdb6,,,,,,,decisionTrl,resources/DP.BMP,resources/DY.BMP,Door1,-0.236979167,0.01953125,1,0,0,0.8647,optionLeft,30,15530,7,25,0,25,0,1,,,,,,,,,,,,,,,,,,,,,,,,,,,,,,,,,,,,,,,
,,,,,,,,2023-08-06_08h28.03.245,HF_wild_card,2022.2.4,Win32,59.79788315,5e3b41c232667b35c717bdda,64ce5acb97489d65b14ecc7a,64cf4b6149702ec2f815bdb6,,,,,,,ctch,resources/DR.BMP,resources/DY.BMP,Door3,-0.20703125,0.006510417,1,0,0,0.7316,optionLeft,70,15600,7,26,0,26,0,1,,,,,,,,,,,,,,,,,,,,,,,,,,,,,,,,,,,,,,,
,,,,,,,,2023-08-06_08h28.03.245,HF_wild_card,2022.2.4,Win32,59.79788315,5e3b41c232667b35c717bdda,64ce5acb97489d65b14ecc7a,64cf4b6149702ec2f815bdb6,,,,,,,decisionTrl,resources/DR.BMP,resources/DG.BMP,Door3,-0.35546875,0.020833333,1,0,0,1.0644,optionLeft,70,15670,7,27,0,27,0,1,,,,,,,,,,,,,,,,,,,,,,,,,,,,,,,,,,,,,,,
,,,,,,,,2023-08-06_08h28.03.245,HF_wild_card,2022.2.4,Win32,59.79788315,5e3b41c232667b35c717bdda,64ce5acb97489d65b14ecc7a,64cf4b6149702ec2f815bdb6,,,,,,,ctch,resources/DG.BMP,resources/DP.BMP,Door4,-0.26171875,0.015625,1,0,0,0.6482,optionLeft,60,15730,7,28,0,28,0,1,,,,,,,,,,,,,,,,,,,,,,,,,,,,,,,,,,,,,,,
,,,,,,,,2023-08-06_08h28.03.245,HF_wild_card,2022.2.4,Win32,59.79788315,5e3b41c232667b35c717bdda,64ce5acb97489d65b14ecc7a,64cf4b6149702ec2f815bdb6,,,,,,,decisionTrl,resources/DP.BMP,resources/DY.BMP,Door1,-0.31640625,0.02734375,1,0,0,0.6818,optionLeft,30,15760,7,29,0,29,0,1,,,,,,,,,,,,,,,,,,,,,,,,,,,,,,,,,,,,,,,
,,,,,,,,2023-08-06_08h28.03.245,HF_wild_card,2022.2.4,Win32,59.79788315,5e3b41c232667b35c717bdda,64ce5acb97489d65b14ecc7a,64cf4b6149702ec2f815bdb6,,,,,,,decisionTrl,resources/DR.BMP,resources/DG.BMP,Door3,-0.266927083,0.0234375,1,0,0,0.7648,optionLeft,70,15830,7,30,0,30,0,1,,,,,,,,,,,,,,,,,,,,,,,,,,,,,,,,,,,,,,,
,,,,,,,,2023-08-06_08h28.03.245,HF_wild_card,2022.2.4,Win32,59.79788315,5e3b41c232667b35c717bdda,64ce5acb97489d65b14ecc7a,64cf4b6149702ec2f815bdb6,,,,,,,ctch,resources/DY.BMP,resources/DR.BMP,Door3,0.2421875,0.006510417,1,0,0,0.7314,optionRight,70,15900,7,31,0,31,0,1,,,,,,,,,,,,,,,,,,,,,,,,,,,,,,,,,,,,,,,
,,,,,,,,2023-08-06_08h28.03.245,HF_wild_card,2022.2.4,Win32,59.79788315,5e3b41c232667b35c717bdda,64ce5acb97489d65b14ecc7a,64cf4b6149702ec2f815bdb6,,,,,,,ctch,resources/DY.BMP,resources/DR.BMP,Door3,0.279947917,0.002604167,1,0,0,0.6468,optionRight,70,15970,7,32,0,32,0,1,,,,,,,,,,,,,,,,,,,,,,,,,,,,,,,,,,,,,,,
,,,,,,,,2023-08-06_08h28.03.245,HF_wild_card,2022.2.4,Win32,59.79788315,5e3b41c232667b35c717bdda,64ce5acb97489d65b14ecc7a,64cf4b6149702ec2f815bdb6,,,,,,,decisionTrl,resources/DP.BMP,resources/DY.BMP,Door1,-0.26171875,0.026041667,1,0,0,1.0477,optionLeft,30,16000,7,33,0,33,0,1,,,,,,,,,,,,,,,,,,,,,,,,,,,,,,,,,,,,,,,
,,,,,,,,2023-08-06_08h28.03.245,HF_wild_card,2022.2.4,Win32,59.79788315,5e3b41c232667b35c717bdda,64ce5acb97489d65b14ecc7a,64cf4b6149702ec2f815bdb6,,,,,,,ctch,resources/DP.BMP,resources/DG.BMP,Door4,0.276041667,0,1,0,0,0.6641,optionRight,60,16060,7,34,0,34,0,1,,,,,,,,,,,,,,,,,,,,,,,,,,,,,,,,,,,,,,,
,,,,,,,,2023-08-06_08h28.03.245,HF_wild_card,2022.2.4,Win32,59.79788315,5e3b41c232667b35c717bdda,64ce5acb97489d65b14ecc7a,64cf4b6149702ec2f815bdb6,,,,,,,ctch,resources/DP.BMP,resources/DG.BMP,Door4,0.295572917,-0.005208333,1,0,0,0.6806,optionRight,80,16140,7,35,0,35,0,1,,,,,,,,,,,,,,,,,,,,,,,,,,,,,,,,,,,,,,,
,,,,,,,,2023-08-06_08h28.03.245,HF_wild_card,2022.2.4,Win32,59.79788315,5e3b41c232667b35c717bdda,64ce5acb97489d65b14ecc7a,64cf4b6149702ec2f815bdb6,,,,,,,,,,,,,,,,,,,,,,,,,,6,0,6,0,1,,,,,,,,,,,,,,,,,,,,,,,,,,,,,,,,,,
,,,,,,,,2023-08-06_08h28.03.245,HF_wild_card,2022.2.4,Win32,59.79788315,5e3b41c232667b35c717bdda,64ce5acb97489d65b14ecc7a,64cf4b6149702ec2f815bdb6,,,,,,,,,,,,,,,,,,,,,,,,,,,,,,,4,,,,,,,,,,,,,,,,,,,,,,,,,,,,,,,,,
,,,,,,,,2023-08-06_08h28.03.245,HF_wild_card,2022.2.4,Win32,59.79788315,5e3b41c232667b35c717bdda,64ce5acb97489d65b14ecc7a,64cf4b6149702ec2f815bdb6,,,,,,,,,,,,,,,,,,,,,,,,,,,,,,,,,,,,,,,,,,,,,,,,,,,,,,,,,,,,,,,,
,,,,,,,,2023-08-06_08h28.03.245,HF_wild_card,2022.2.4,Win32,59.79788315,5e3b41c232667b35c717bdda,64ce5acb97489d65b14ecc7a,64cf4b6149702ec2f815bdb6,,,,,,,,,,,,,,,,,,,,,,,,,,,,,,,,30,Door1,resources/DP.BMP,0,0,0,0,1,,,,,,,,,,,,,,,,,,,,,,,,,
,,,,,,,,2023-08-06_08h28.03.245,HF_wild_card,2022.2.4,Win32,59.79788315,5e3b41c232667b35c717bdda,64ce5acb97489d65b14ecc7a,64cf4b6149702ec2f815bdb6,,,,,,,,,,,,,,,,,,,,,,,,,,,,,,,,20,Door2,resources/DY.BMP,1,0,1,0,1,,,,,,,,,,,,,,,,,,,,,,,,,
,,,,,,,,2023-08-06_08h28.03.245,HF_wild_card,2022.2.4,Win32,59.79788315,5e3b41c232667b35c717bdda,64ce5acb97489d65b14ecc7a,64cf4b6149702ec2f815bdb6,,,,,,,,,,,,,,,,,,,,,,,,,,,,,,,,5,WC_extreme,resources/DBN.BMP,2,0,2,0,1,,,,,,,,,,,,,,,,,,,,,,,,,
,,,,,,,,2023-08-06_08h28.03.245,HF_wild_card,2022.2.4,Win32,59.79788315,5e3b41c232667b35c717bdda,64ce5acb97489d65b14ecc7a,64cf4b6149702ec2f815bdb6,,,,,,,,,,,,,,,,,,,,,,,,,,,,,,,,60,Door4,resources/DG.BMP,3,0,3,0,1,,,,,,,,,,,,,,,,,,,,,,,,,
,,,,,,,,2023-08-06_08h28.03.245,HF_wild_card,2022.2.4,Win32,59.79788315,5e3b41c232667b35c717bdda,64ce5acb97489d65b14ecc7a,64cf4b6149702ec2f815bdb6,,,,,,,,,,,,,,,,,,,,,,,,,,,,,,,,55,WC_nonExtreme,resources/DB.BMP,4,0,4,0,1,,,,,,,,,,,,,,,,,,,,,,,,,
,,,,,,,,2023-08-06_08h28.03.245,HF_wild_card,2022.2.4,Win32,59.79788315,5e3b41c232667b35c717bdda,64ce5acb97489d65b14ecc7a,64cf4b6149702ec2f815bdb6,,,,,,,,,,,,,,,,,,,,,,,,,,,,,,,,70,Door3,resources/DR.BMP,5,0,5,0,1,,,,,,,,,,,,,,,,,,,,,,,,,
,,,,,,,,2023-08-06_08h28.03.245,HF_wild_card,2022.2.4,Win32,59.79788315,5e3b41c232667b35c717bdda,64ce5acb97489d65b14ecc7a,64cf4b6149702ec2f815bdb6,,,,,,,,,,,,,,,,,,,,,,,,,,,,,,,,,,,,,,,,,,,,,,,,,,,,,,,,,,,,,,,,
,,,,,,,,2023-08-06_08h28.03.245,HF_wild_card,2022.2.4,Win32,59.79788315,5e3b41c232667b35c717bdda,64ce5acb97489d65b14ecc7a,64cf4b6149702ec2f815bdb6,,,,,,,,,,,,,,,,,,,,,,,,,,,,,,,,,,,,,,,,0,0,0,0,1,,,,,,,,,,,,,,,,,,,,
,,,,,,,,2023-08-06_08h28.03.245,HF_wild_card,2022.2.4,Win32,59.79788315,5e3b41c232667b35c717bdda,64ce5acb97489d65b14ecc7a,64cf4b6149702ec2f815bdb6,,,,,,,,,,,,,,,,,,,,,,,,,,,,,,,,,,,,,,,,1,0,1,0,1,,,,,,,,,,,,,,,,,,,,
