Condition,Low fixed image (Door1),Low risky image (Door2),High fixed image (Door3),High risky image (Door4),Extreme Wild Card,NonExtreme Wild Card,,date,expName,psychopyVersion,OS,frameRate,PROLIFIC_PID,STUDY_ID,SESSION_ID,mouse_2.x,mouse_2.y,mouse_2.leftButton,mouse_2.midButton,mouse_2.rightButton,mouse_2.clicked_name,Trial Type,Left Option Image,Right Option Image,Chosen Door,mouse.x,mouse.y,mouse.leftButton,mouse.midButton,mouse.rightButton,mouse.time,mouse.clicked_name,Feedback,Cumulative Reward,Block,trial.thisRepN,trial.thisTrialN,trial.thisN,trial.thisIndex,trial.ran,blocks.thisRepN,blocks.thisTrialN,blocks.thisN,blocks.thisIndex,blocks.ran,Money conversion,First Outcome Reported,Shown Door (First Outcome),Displayed Image (First Outcome),outcomes.thisRepN,outcomes.thisTrialN,outcomes.thisN,outcomes.thisIndex,outcomes.ran,judgments.thisRepN,judgments.thisTrialN,judgments.thisN,judgments.thisIndex,judgments.ran,freqMouse.x,freqMouse.y,freqMouse.leftButton,freqMouse.midButton,freqMouse.rightButton,freqMouse.clicked_name,FQJ for first outcome,FQJ for second outcome,Shown Door,Displayed Image,trials.thisRepN,trials.thisTrialN,trials.thisN,trials.thisIndex,trials.ran,judgBlock.thisRepN,judgBlock.thisTrialN,judgBlock.thisN,judgBlock.thisIndex,judgBlock.ran
0,resources/DG.BMP,resources/DBN.BMP,resources/DB.BMP,resources/DR.BMP,resources/DY.BMP,resources/DP.BMP,,2023-08-16_08h20.02.213,HF_wild_card,2022.2.4,MacIntel,62.5,63ef566e5460d50a368654dd,64d2fd46c836a06233681665,64dc789045749e86a8779dc4,,,,,,,,,,,,,,,,,,,,,,,,,,,,,,,,,,,,,,,,,,,,,,,,,,,,,,,,,,,,,,,,
,,,,,,,,2023-08-16_08h20.02.213,HF_wild_card,2022.2.4,MacIntel,62.5,63ef566e5460d50a368654dd,64d2fd46c836a06233681665,64dc789045749e86a8779dc4,0.015981735,-0.418949772,1,0,0,agree,,,,,,,,,,,,,,,,,,,,,,,,,,,,,,,,,,,,,,,,,,,,,,,,,,,,,,,,,,
,,,,,,,,2023-08-16_08h20.02.213,HF_wild_card,2022.2.4,MacIntel,62.5,63ef566e5460d50a368654dd,64d2fd46c836a06233681665,64dc789045749e86a8779dc4,,,,,,,,,,,,,,,,,,,,,,,,,,,,,,,,,,,,,,,,,,,,,,,,,,,,,,,,,,,,,,,,
,,,,,,,,2023-08-16_08h20.02.213,HF_wild_card,2022.2.4,MacIntel,62.5,63ef566e5460d50a368654dd,64d2fd46c836a06233681665,64dc789045749e86a8779dc4,,,,,,,sngl,resources/DY.BMP,resources/Empty.png,WildCard_Ex,-0.402968037,-0.049086758,1,0,0,3.67,optionLeft,95,95,1,0,0,0,0,1,,,,,,,,,,,,,,,,,,,,,,,,,,,,,,,,,,,,,,,
,,,,,,,,2023-08-16_08h20.02.213,HF_wild_card,2022.2.4,MacIntel,62.5,63ef566e5460d50a368654dd,64d2fd46c836a06233681665,64dc789045749e86a8779dc4,,,,,,,sngl,resources/Empty.png,resources/DR.BMP,Door4,0.422374429,-0.02283105,1,0,0,1.928,optionRight,60,155,1,1,0,1,0,1,,,,,,,,,,,,,,,,,,,,,,,,,,,,,,,,,,,,,,,
,,,,,,,,2023-08-16_08h20.02.213,HF_wild_card,2022.2.4,MacIntel,62.5,63ef566e5460d50a368654dd,64d2fd46c836a06233681665,64dc789045749e86a8779dc4,,,,,,,ctch,resources/DBN.BMP,resources/DB.BMP,Door2,-0.385844749,0.089041096,1,0,0,6.662,optionLeft,40,195,1,2,0,2,0,1,,,,,,,,,,,,,,,,,,,,,,,,,,,,,,,,,,,,,,,
,,,,,,,,2023-08-16_08h20.02.213,HF_wild_card,2022.2.4,MacIntel,62.5,63ef566e5460d50a368654dd,64d2fd46c836a06233681665,64dc789045749e86a8779dc4,,,,,,,decisionTrl,resources/DY.BMP,resources/DB.BMP,Door3,0.371004566,-0.035388128,1,0,0,2.197,optionRight,70,265,1,3,0,3,0,1,,,,,,,,,,,,,,,,,,,,,,,,,,,,,,,,,,,,,,,
,,,,,,,,2023-08-16_08h20.02.213,HF_wild_card,2022.2.4,MacIntel,62.5,63ef566e5460d50a368654dd,64d2fd46c836a06233681665,64dc789045749e86a8779dc4,,,,,,,decisionTrl,resources/DBN.BMP,resources/DG.BMP,Door1,0.394977169,-0.078767123,1,0,0,4.88,optionRight,30,295,1,4,0,4,0,1,,,,,,,,,,,,,,,,,,,,,,,,,,,,,,,,,,,,,,,
,,,,,,,,2023-08-16_08h20.02.213,HF_wild_card,2022.2.4,MacIntel,62.5,63ef566e5460d50a368654dd,64d2fd46c836a06233681665,64dc789045749e86a8779dc4,,,,,,,decisionTrl,resources/DY.BMP,resources/DR.BMP,Door4,0.339041096,-0.04109589,1,0,0,1.864,optionRight,80,375,1,5,0,5,0,1,,,,,,,,,,,,,,,,,,,,,,,,,,,,,,,,,,,,,,,
,,,,,,,,2023-08-16_08h20.02.213,HF_wild_card,2022.2.4,MacIntel,62.5,63ef566e5460d50a368654dd,64d2fd46c836a06233681665,64dc789045749e86a8779dc4,,,,,,,decisionTrl,resources/DBN.BMP,resources/DY.BMP,Door2,-0.377853881,0.015981735,1,0,0,2.364,optionLeft,20,395,1,6,0,6,0,1,,,,,,,,,,,,,,,,,,,,,,,,,,,,,,,,,,,,,,,
,,,,,,,,2023-08-16_08h20.02.213,HF_wild_card,2022.2.4,MacIntel,62.5,63ef566e5460d50a368654dd,64d2fd46c836a06233681665,64dc789045749e86a8779dc4,,,,,,,sngl,resources/Empty.png,resources/DY.BMP,WildCard_Ex,0.391552511,0.030821918,1,0,0,0.83,optionRight,95,490,1,7,0,7,0,1,,,,,,,,,,,,,,,,,,,,,,,,,,,,,,,,,,,,,,,
,,,,,,,,2023-08-16_08h20.02.213,HF_wild_card,2022.2.4,MacIntel,62.5,63ef566e5460d50a368654dd,64d2fd46c836a06233681665,64dc789045749e86a8779dc4,,,,,,,decisionTrl,resources/DG.BMP,resources/DY.BMP,Door1,-0.333333333,-0.039954338,1,0,0,1.163,optionLeft,30,520,1,8,0,8,0,1,,,,,,,,,,,,,,,,,,,,,,,,,,,,,,,,,,,,,,,
,,,,,,,,2023-08-16_08h20.02.213,HF_wild_card,2022.2.4,MacIntel,62.5,63ef566e5460d50a368654dd,64d2fd46c836a06233681665,64dc789045749e86a8779dc4,,,,,,,sngl,resources/DB.BMP,resources/Empty.png,Door3,-0.363013699,-0.005707763,1,0,0,1.281,optionLeft,70,590,1,9,0,9,0,1,,,,,,,,,,,,,,,,,,,,,,,,,,,,,,,,,,,,,,,
,,,,,,,,2023-08-16_08h20.02.213,HF_wild_card,2022.2.4,MacIntel,62.5,63ef566e5460d50a368654dd,64d2fd46c836a06233681665,64dc789045749e86a8779dc4,,,,,,,ctch,resources/DG.BMP,resources/DR.BMP,Door4,0.391552511,-0.025114155,1,0,0,1.08,optionRight,80,670,1,10,0,10,0,1,,,,,,,,,,,,,,,,,,,,,,,,,,,,,,,,,,,,,,,
,,,,,,,,2023-08-16_08h20.02.213,HF_wild_card,2022.2.4,MacIntel,62.5,63ef566e5460d50a368654dd,64d2fd46c836a06233681665,64dc789045749e86a8779dc4,,,,,,,sngl,resources/DBN.BMP,resources/Empty.png,Door2,-0.431506849,-0.019406393,1,0,0,0.991,optionLeft,40,710,1,11,0,11,0,1,,,,,,,,,,,,,,,,,,,,,,,,,,,,,,,,,,,,,,,
,,,,,,,,2023-08-16_08h20.02.213,HF_wild_card,2022.2.4,MacIntel,62.5,63ef566e5460d50a368654dd,64d2fd46c836a06233681665,64dc789045749e86a8779dc4,,,,,,,decisionTrl,resources/DR.BMP,resources/DY.BMP,Door4,-0.444063927,-0.030821918,1,0,0,1.015,optionLeft,80,790,1,12,0,12,0,1,,,,,,,,,,,,,,,,,,,,,,,,,,,,,,,,,,,,,,,
,,,,,,,,2023-08-16_08h20.02.213,HF_wild_card,2022.2.4,MacIntel,62.5,63ef566e5460d50a368654dd,64d2fd46c836a06233681665,64dc789045749e86a8779dc4,,,,,,,decisionTrl,resources/DB.BMP,resources/DY.BMP,Door3,-0.307077626,-0.02283105,1,0,0,3.048,optionLeft,70,860,1,13,0,13,0,1,,,,,,,,,,,,,,,,,,,,,,,,,,,,,,,,,,,,,,,
,,,,,,,,2023-08-16_08h20.02.213,HF_wild_card,2022.2.4,MacIntel,62.5,63ef566e5460d50a368654dd,64d2fd46c836a06233681665,64dc789045749e86a8779dc4,,,,,,,sngl,resources/Empty.png,resources/DB.BMP,Door3,0.432648402,-0.03196347,1,0,0,0.931,optionRight,70,930,1,14,0,14,0,1,,,,,,,,,,,,,,,,,,,,,,,,,,,,,,,,,,,,,,,
,,,,,,,,2023-08-16_08h20.02.213,HF_wild_card,2022.2.4,MacIntel,62.5,63ef566e5460d50a368654dd,64d2fd46c836a06233681665,64dc789045749e86a8779dc4,,,,,,,sngl,resources/Empty.png,resources/DY.BMP,WildCard_Ex,0.366438356,-0.012557078,1,0,0,0.781,optionRight,5,935,1,15,0,15,0,1,,,,,,,,,,,,,,,,,,,,,,,,,,,,,,,,,,,,,,,
,,,,,,,,2023-08-16_08h20.02.213,HF_wild_card,2022.2.4,MacIntel,62.5,63ef566e5460d50a368654dd,64d2fd46c836a06233681665,64dc789045749e86a8779dc4,,,,,,,decisionTrl,resources/DG.BMP,resources/DBN.BMP,Door1,-0.380136986,-0.030821918,1,0,0,1.531,optionLeft,30,965,1,16,0,16,0,1,,,,,,,,,,,,,,,,,,,,,,,,,,,,,,,,,,,,,,,
,,,,,,,,2023-08-16_08h20.02.213,HF_wild_card,2022.2.4,MacIntel,62.5,63ef566e5460d50a368654dd,64d2fd46c836a06233681665,64dc789045749e86a8779dc4,,,,,,,ctch,resources/DBN.BMP,resources/DB.BMP,Door2,-0.273972603,-0.04109589,1,0,0,2.498,optionLeft,40,1005,1,17,0,17,0,1,,,,,,,,,,,,,,,,,,,,,,,,,,,,,,,,,,,,,,,
,,,,,,,,2023-08-16_08h20.02.213,HF_wild_card,2022.2.4,MacIntel,62.5,63ef566e5460d50a368654dd,64d2fd46c836a06233681665,64dc789045749e86a8779dc4,,,,,,,sngl,resources/Empty.png,resources/DG.BMP,Door1,0.315068493,-0.002283105,1,0,0,0.829,optionRight,30,1035,1,18,0,18,0,1,,,,,,,,,,,,,,,,,,,,,,,,,,,,,,,,,,,,,,,
,,,,,,,,2023-08-16_08h20.02.213,HF_wild_card,2022.2.4,MacIntel,62.5,63ef566e5460d50a368654dd,64d2fd46c836a06233681665,64dc789045749e86a8779dc4,,,,,,,decisionTrl,resources/DBN.BMP,resources/DG.BMP,Door2,-0.275114155,-0.046803653,1,0,0,1.464,optionLeft,20,1055,1,19,0,19,0,1,,,,,,,,,,,,,,,,,,,,,,,,,,,,,,,,,,,,,,,
,,,,,,,,2023-08-16_08h20.02.213,HF_wild_card,2022.2.4,MacIntel,62.5,63ef566e5460d50a368654dd,64d2fd46c836a06233681665,64dc789045749e86a8779dc4,,,,,,,decisionTrl,resources/DG.BMP,resources/DBN.BMP,Door1,-0.256849315,-0.054794521,1,0,0,0.848,optionLeft,30,1085,1,20,0,20,0,1,,,,,,,,,,,,,,,,,,,,,,,,,,,,,,,,,,,,,,,
,,,,,,,,2023-08-16_08h20.02.213,HF_wild_card,2022.2.4,MacIntel,62.5,63ef566e5460d50a368654dd,64d2fd46c836a06233681665,64dc789045749e86a8779dc4,,,,,,,decisionTrl,resources/DB.BMP,resources/DR.BMP,Door4,0.408675799,-0.005707763,1,0,0,0.914,optionRight,60,1145,1,21,0,21,0,1,,,,,,,,,,,,,,,,,,,,,,,,,,,,,,,,,,,,,,,
,,,,,,,,2023-08-16_08h20.02.213,HF_wild_card,2022.2.4,MacIntel,62.5,63ef566e5460d50a368654dd,64d2fd46c836a06233681665,64dc789045749e86a8779dc4,,,,,,,decisionTrl,resources/DB.BMP,resources/DR.BMP,Door3,0.011415525,-0.010273973,1,0,0,2.214,optionLeft,70,1215,1,22,0,22,0,1,,,,,,,,,,,,,,,,,,,,,,,,,,,,,,,,,,,,,,,
,,,,,,,,2023-08-16_08h20.02.213,HF_wild_card,2022.2.4,MacIntel,62.5,63ef566e5460d50a368654dd,64d2fd46c836a06233681665,64dc789045749e86a8779dc4,,,,,,,decisionTrl,resources/DG.BMP,resources/DBN.BMP,Door1,-0.396118721,-0.043378995,1,0,0,1.33,optionLeft,30,1245,1,23,0,23,0,1,,,,,,,,,,,,,,,,,,,,,,,,,,,,,,,,,,,,,,,
,,,,,,,,2023-08-16_08h20.02.213,HF_wild_card,2022.2.4,MacIntel,62.5,63ef566e5460d50a368654dd,64d2fd46c836a06233681665,64dc789045749e86a8779dc4,,,,,,,sngl,resources/DR.BMP,resources/Empty.png,Door4,-0.323059361,-0.038812785,1,0,0,0.715,optionLeft,80,1325,1,24,0,24,0,1,,,,,,,,,,,,,,,,,,,,,,,,,,,,,,,,,,,,,,,
,,,,,,,,2023-08-16_08h20.02.213,HF_wild_card,2022.2.4,MacIntel,62.5,63ef566e5460d50a368654dd,64d2fd46c836a06233681665,64dc789045749e86a8779dc4,,,,,,,decisionTrl,resources/DR.BMP,resources/DB.BMP,Door4,-0.374429224,-0.055936073,1,0,0,0.647,optionLeft,80,1405,1,25,0,25,0,1,,,,,,,,,,,,,,,,,,,,,,,,,,,,,,,,,,,,,,,
,,,,,,,,2023-08-16_08h20.02.213,HF_wild_card,2022.2.4,MacIntel,62.5,63ef566e5460d50a368654dd,64d2fd46c836a06233681665,64dc789045749e86a8779dc4,,,,,,,ctch,resources/DR.BMP,resources/DG.BMP,Door4,-0.297945205,-0.0456621,1,0,0,0.647,optionLeft,80,1485,1,26,0,26,0,1,,,,,,,,,,,,,,,,,,,,,,,,,,,,,,,,,,,,,,,
,,,,,,,,2023-08-16_08h20.02.213,HF_wild_card,2022.2.4,MacIntel,62.5,63ef566e5460d50a368654dd,64d2fd46c836a06233681665,64dc789045749e86a8779dc4,,,,,,,decisionTrl,resources/DBN.BMP,resources/DG.BMP,Door1,0.323059361,-0.03196347,1,0,0,2.229,optionRight,30,1515,1,27,0,27,0,1,,,,,,,,,,,,,,,,,,,,,,,,,,,,,,,,,,,,,,,
,,,,,,,,2023-08-16_08h20.02.213,HF_wild_card,2022.2.4,MacIntel,62.5,63ef566e5460d50a368654dd,64d2fd46c836a06233681665,64dc789045749e86a8779dc4,,,,,,,sngl,resources/DG.BMP,resources/Empty.png,Door1,-0.276255708,-0.02739726,1,0,0,0.847,optionLeft,30,1545,1,28,0,28,0,1,,,,,,,,,,,,,,,,,,,,,,,,,,,,,,,,,,,,,,,
,,,,,,,,2023-08-16_08h20.02.213,HF_wild_card,2022.2.4,MacIntel,62.5,63ef566e5460d50a368654dd,64d2fd46c836a06233681665,64dc789045749e86a8779dc4,,,,,,,decisionTrl,resources/DB.BMP,resources/DR.BMP,Door4,0.350456621,0.029680365,1,0,0,1.181,optionRight,60,1605,1,29,0,29,0,1,,,,,,,,,,,,,,,,,,,,,,,,,,,,,,,,,,,,,,,
,,,,,,,,2023-08-16_08h20.02.213,HF_wild_card,2022.2.4,MacIntel,62.5,63ef566e5460d50a368654dd,64d2fd46c836a06233681665,64dc789045749e86a8779dc4,,,,,,,ctch,resources/DB.BMP,resources/DBN.BMP,Door3,-0.332191781,-0.074200913,1,0,0,1.508,optionLeft,70,1675,1,30,0,30,0,1,,,,,,,,,,,,,,,,,,,,,,,,,,,,,,,,,,,,,,,
,,,,,,,,2023-08-16_08h20.02.213,HF_wild_card,2022.2.4,MacIntel,62.5,63ef566e5460d50a368654dd,64d2fd46c836a06233681665,64dc789045749e86a8779dc4,,,,,,,sngl,resources/DY.BMP,resources/Empty.png,WildCard_Ex,-0.23630137,-0.04109589,1,0,0,0.661,optionLeft,5,1680,1,31,0,31,0,1,,,,,,,,,,,,,,,,,,,,,,,,,,,,,,,,,,,,,,,
,,,,,,,,2023-08-16_08h20.02.213,HF_wild_card,2022.2.4,MacIntel,62.5,63ef566e5460d50a368654dd,64d2fd46c836a06233681665,64dc789045749e86a8779dc4,,,,,,,decisionTrl,resources/DR.BMP,resources/DB.BMP,Door4,-0.380136986,-0.063926941,1,0,0,0.664,optionLeft,80,1760,1,32,0,32,0,1,,,,,,,,,,,,,,,,,,,,,,,,,,,,,,,,,,,,,,,
,,,,,,,,2023-08-16_08h20.02.213,HF_wild_card,2022.2.4,MacIntel,62.5,63ef566e5460d50a368654dd,64d2fd46c836a06233681665,64dc789045749e86a8779dc4,,,,,,,decisionTrl,resources/DY.BMP,resources/DBN.BMP,WildCard_Ex,-0.352739726,-0.065068493,1,0,0,1.646,optionLeft,5,1765,1,33,0,33,0,1,,,,,,,,,,,,,,,,,,,,,,,,,,,,,,,,,,,,,,,
,,,,,,,,2023-08-16_08h20.02.213,HF_wild_card,2022.2.4,MacIntel,62.5,63ef566e5460d50a368654dd,64d2fd46c836a06233681665,64dc789045749e86a8779dc4,,,,,,,decisionTrl,resources/DBN.BMP,resources/DG.BMP,Door2,-0.26826484,-0.015981735,1,0,0,0.731,optionLeft,40,1805,1,34,0,34,0,1,,,,,,,,,,,,,,,,,,,,,,,,,,,,,,,,,,,,,,,
,,,,,,,,2023-08-16_08h20.02.213,HF_wild_card,2022.2.4,MacIntel,62.5,63ef566e5460d50a368654dd,64d2fd46c836a06233681665,64dc789045749e86a8779dc4,,,,,,,ctch,resources/DR.BMP,resources/DG.BMP,Door4,-0.292237443,-0.030821918,1,0,0,0.732,optionLeft,80,1885,1,35,0,35,0,1,,,,,,,,,,,,,,,,,,,,,,,,,,,,,,,,,,,,,,,
,,,,,,,,2023-08-16_08h20.02.213,HF_wild_card,2022.2.4,MacIntel,62.5,63ef566e5460d50a368654dd,64d2fd46c836a06233681665,64dc789045749e86a8779dc4,,,,,,,decisionTrl,resources/DG.BMP,resources/DBN.BMP,Door2,0.267123288,0.007990868,1,0,0,1.331,optionRight,20,1905,1,36,0,36,0,1,,,,,,,,,,,,,,,,,,,,,,,,,,,,,,,,,,,,,,,
,,,,,,,,2023-08-16_08h20.02.213,HF_wild_card,2022.2.4,MacIntel,62.5,63ef566e5460d50a368654dd,64d2fd46c836a06233681665,64dc789045749e86a8779dc4,,,,,,,decisionTrl,resources/DR.BMP,resources/DB.BMP,Door4,-0.232876712,-0.001141553,1,0,0,0.682,optionLeft,80,1985,1,37,0,37,0,1,,,,,,,,,,,,,,,,,,,,,,,,,,,,,,,,,,,,,,,
,,,,,,,,2023-08-16_08h20.02.213,HF_wild_card,2022.2.4,MacIntel,62.5,63ef566e5460d50a368654dd,64d2fd46c836a06233681665,64dc789045749e86a8779dc4,,,,,,,sngl,resources/Empty.png,resources/DBN.BMP,Door2,0.337899543,0.050228311,1,0,0,0.796,optionRight,20,2005,1,38,0,38,0,1,,,,,,,,,,,,,,,,,,,,,,,,,,,,,,,,,,,,,,,
,,,,,,,,2023-08-16_08h20.02.213,HF_wild_card,2022.2.4,MacIntel,62.5,63ef566e5460d50a368654dd,64d2fd46c836a06233681665,64dc789045749e86a8779dc4,,,,,,,decisionTrl,resources/DR.BMP,resources/DB.BMP,Door4,-0.397260274,-0.005707763,1,0,0,0.714,optionLeft,80,2085,1,39,0,39,0,1,,,,,,,,,,,,,,,,,,,,,,,,,,,,,,,,,,,,,,,
,,,,,,,,2023-08-16_08h20.02.213,HF_wild_card,2022.2.4,MacIntel,62.5,63ef566e5460d50a368654dd,64d2fd46c836a06233681665,64dc789045749e86a8779dc4,,,,,,,ctch,resources/DB.BMP,resources/DBN.BMP,Door3,-0.341324201,-0.039954338,1,0,0,1.414,optionLeft,70,2155,1,40,0,40,0,1,,,,,,,,,,,,,,,,,,,,,,,,,,,,,,,,,,,,,,,
,,,,,,,,2023-08-16_08h20.02.213,HF_wild_card,2022.2.4,MacIntel,62.5,63ef566e5460d50a368654dd,64d2fd46c836a06233681665,64dc789045749e86a8779dc4,,,,,,,decisionTrl,resources/DY.BMP,resources/DG.BMP,WildCard_Ex,-0.332191781,0.002283105,1,0,0,2.381,optionLeft,5,2160,1,41,0,41,0,1,,,,,,,,,,,,,,,,,,,,,,,,,,,,,,,,,,,,,,,
,,,,,,,,2023-08-16_08h20.02.213,HF_wild_card,2022.2.4,MacIntel,62.5,63ef566e5460d50a368654dd,64d2fd46c836a06233681665,64dc789045749e86a8779dc4,,,,,,,decisionTrl,resources/DB.BMP,resources/DR.BMP,Door4,0.465753425,-0.002283105,1,0,0,0.898,optionRight,60,2220,1,42,0,42,0,1,,,,,,,,,,,,,,,,,,,,,,,,,,,,,,,,,,,,,,,
,,,,,,,,2023-08-16_08h20.02.213,HF_wild_card,2022.2.4,MacIntel,62.5,63ef566e5460d50a368654dd,64d2fd46c836a06233681665,64dc789045749e86a8779dc4,,,,,,,ctch,resources/DG.BMP,resources/DR.BMP,Door4,0.391552511,0.019406393,1,0,0,1.148,optionRight,60,2280,1,43,0,43,0,1,,,,,,,,,,,,,,,,,,,,,,,,,,,,,,,,,,,,,,,
,,,,,,,,2023-08-16_08h20.02.213,HF_wild_card,2022.2.4,MacIntel,62.5,63ef566e5460d50a368654dd,64d2fd46c836a06233681665,64dc789045749e86a8779dc4,,,,,,,,,,,,,,,,,,,,,,,,,,0,0,0,0,1,,,,,,,,,,,,,,,,,,,,,,,,,,,,,,,,,,
,,,,,,,,2023-08-16_08h20.02.213,HF_wild_card,2022.2.4,MacIntel,62.5,63ef566e5460d50a368654dd,64d2fd46c836a06233681665,64dc789045749e86a8779dc4,,,,,,,sngl,resources/Empty.png,resources/DY.BMP,WildCard_Ex,0.386986301,-0.118721461,1,0,0,0.944,optionRight,5,2285,2,0,0,0,0,1,,,,,,,,,,,,,,,,,,,,,,,,,,,,,,,,,,,,,,,
,,,,,,,,2023-08-16_08h20.02.213,HF_wild_card,2022.2.4,MacIntel,62.5,63ef566e5460d50a368654dd,64d2fd46c836a06233681665,64dc789045749e86a8779dc4,,,,,,,decisionTrl,resources/DG.BMP,resources/DBN.BMP,Door1,-0.456621005,-0.075342466,1,0,0,1.546,optionLeft,30,2315,2,1,0,1,0,1,,,,,,,,,,,,,,,,,,,,,,,,,,,,,,,,,,,,,,,
,,,,,,,,2023-08-16_08h20.02.213,HF_wild_card,2022.2.4,MacIntel,62.5,63ef566e5460d50a368654dd,64d2fd46c836a06233681665,64dc789045749e86a8779dc4,,,,,,,sngl,resources/DY.BMP,resources/Empty.png,WildCard_Ex,-0.24086758,-0.052511416,1,0,0,0.615,optionLeft,95,2410,2,2,0,2,0,1,,,,,,,,,,,,,,,,,,,,,,,,,,,,,,,,,,,,,,,
,,,,,,,,2023-08-16_08h20.02.213,HF_wild_card,2022.2.4,MacIntel,62.5,63ef566e5460d50a368654dd,64d2fd46c836a06233681665,64dc789045749e86a8779dc4,,,,,,,sngl,resources/DR.BMP,resources/Empty.png,Door4,-0.343607306,-0.061643836,1,0,0,0.664,optionLeft,60,2470,2,3,0,3,0,1,,,,,,,,,,,,,,,,,,,,,,,,,,,,,,,,,,,,,,,
,,,,,,,,2023-08-16_08h20.02.213,HF_wild_card,2022.2.4,MacIntel,62.5,63ef566e5460d50a368654dd,64d2fd46c836a06233681665,64dc789045749e86a8779dc4,,,,,,,ctch,resources/DBN.BMP,resources/DB.BMP,Door3,0.25456621,0.066210046,1,0,0,3.548,optionRight,70,2540,2,4,0,4,0,1,,,,,,,,,,,,,,,,,,,,,,,,,,,,,,,,,,,,,,,
,,,,,,,,2023-08-16_08h20.02.213,HF_wild_card,2022.2.4,MacIntel,62.5,63ef566e5460d50a368654dd,64d2fd46c836a06233681665,64dc789045749e86a8779dc4,,,,,,,decisionTrl,resources/DB.BMP,resources/DR.BMP,Door4,0.390410959,0.067351598,1,0,0,0.881,optionRight,60,2600,2,5,0,5,0,1,,,,,,,,,,,,,,,,,,,,,,,,,,,,,,,,,,,,,,,
,,,,,,,,2023-08-16_08h20.02.213,HF_wild_card,2022.2.4,MacIntel,62.5,63ef566e5460d50a368654dd,64d2fd46c836a06233681665,64dc789045749e86a8779dc4,,,,,,,ctch,resources/DB.BMP,resources/DBN.BMP,Door3,-0.301369863,-0.078767123,1,0,0,0.598,optionLeft,70,2670,2,6,0,6,0,1,,,,,,,,,,,,,,,,,,,,,,,,,,,,,,,,,,,,,,,
,,,,,,,,2023-08-16_08h20.02.213,HF_wild_card,2022.2.4,MacIntel,62.5,63ef566e5460d50a368654dd,64d2fd46c836a06233681665,64dc789045749e86a8779dc4,,,,,,,sngl,resources/Empty.png,resources/DR.BMP,Door4,0.325342466,0.021689498,1,0,0,0.648,optionRight,80,2750,2,7,0,7,0,1,,,,,,,,,,,,,,,,,,,,,,,,,,,,,,,,,,,,,,,
,,,,,,,,2023-08-16_08h20.02.213,HF_wild_card,2022.2.4,MacIntel,62.5,63ef566e5460d50a368654dd,64d2fd46c836a06233681665,64dc789045749e86a8779dc4,,,,,,,decisionTrl,resources/DR.BMP,resources/DB.BMP,Door4,-0.418949772,0.012557078,1,0,0,0.665,optionLeft,80,2830,2,8,0,8,0,1,,,,,,,,,,,,,,,,,,,,,,,,,,,,,,,,,,,,,,,
,,,,,,,,2023-08-16_08h20.02.213,HF_wild_card,2022.2.4,MacIntel,62.5,63ef566e5460d50a368654dd,64d2fd46c836a06233681665,64dc789045749e86a8779dc4,,,,,,,decisionTrl,resources/DG.BMP,resources/DBN.BMP,Door2,0.184931507,0.063926941,1,0,0,1.198,optionRight,40,2870,2,9,0,9,0,1,,,,,,,,,,,,,,,,,,,,,,,,,,,,,,,,,,,,,,,
,,,,,,,,2023-08-16_08h20.02.213,HF_wild_card,2022.2.4,MacIntel,62.5,63ef566e5460d50a368654dd,64d2fd46c836a06233681665,64dc789045749e86a8779dc4,,,,,,,decisionTrl,resources/DY.BMP,resources/DR.BMP,Door4,0.350456621,0.083333333,1,0,0,1.264,optionRight,80,2950,2,10,0,10,0,1,,,,,,,,,,,,,,,,,,,,,,,,,,,,,,,,,,,,,,,
,,,,,,,,2023-08-16_08h20.02.213,HF_wild_card,2022.2.4,MacIntel,62.5,63ef566e5460d50a368654dd,64d2fd46c836a06233681665,64dc789045749e86a8779dc4,,,,,,,decisionTrl,resources/DBN.BMP,resources/DG.BMP,Door1,0.543378995,0.102739726,1,0,0,2.448,optionRight,30,2980,2,11,0,11,0,1,,,,,,,,,,,,,,,,,,,,,,,,,,,,,,,,,,,,,,,
,,,,,,,,2023-08-16_08h20.02.213,HF_wild_card,2022.2.4,MacIntel,62.5,63ef566e5460d50a368654dd,64d2fd46c836a06233681665,64dc789045749e86a8779dc4,,,,,,,decisionTrl,resources/DG.BMP,resources/DBN.BMP,Door2,0.319634703,0.118721461,1,0,0,1.648,optionRight,20,3000,2,12,0,12,0,1,,,,,,,,,,,,,,,,,,,,,,,,,,,,,,,,,,,,,,,
,,,,,,,,2023-08-16_08h20.02.213,HF_wild_card,2022.2.4,MacIntel,62.5,63ef566e5460d50a368654dd,64d2fd46c836a06233681665,64dc789045749e86a8779dc4,,,,,,,decisionTrl,resources/DY.BMP,resources/DB.BMP,Door3,0.28196347,0.063926941,1,0,0,1.881,optionRight,70,3070,2,13,0,13,0,1,,,,,,,,,,,,,,,,,,,,,,,,,,,,,,,,,,,,,,,
,,,,,,,,2023-08-16_08h20.02.213,HF_wild_card,2022.2.4,MacIntel,62.5,63ef566e5460d50a368654dd,64d2fd46c836a06233681665,64dc789045749e86a8779dc4,,,,,,,sngl,resources/Empty.png,resources/DBN.BMP,Door2,0.235159817,0.033105023,1,0,0,0.831,optionRight,40,3110,2,14,0,14,0,1,,,,,,,,,,,,,,,,,,,,,,,,,,,,,,,,,,,,,,,
,,,,,,,,2023-08-16_08h20.02.213,HF_wild_card,2022.2.4,MacIntel,62.5,63ef566e5460d50a368654dd,64d2fd46c836a06233681665,64dc789045749e86a8779dc4,,,,,,,decisionTrl,resources/DBN.BMP,resources/DG.BMP,Door1,0.356164384,0.148401826,1,0,0,0.981,optionRight,30,3140,2,15,0,15,0,1,,,,,,,,,,,,,,,,,,,,,,,,,,,,,,,,,,,,,,,
,,,,,,,,2023-08-16_08h20.02.213,HF_wild_card,2022.2.4,MacIntel,62.5,63ef566e5460d50a368654dd,64d2fd46c836a06233681665,64dc789045749e86a8779dc4,,,,,,,sngl,resources/Empty.png,resources/DY.BMP,WildCard_Ex,0.293378995,0.081050228,1,0,0,0.631,optionRight,95,3235,2,16,0,16,0,1,,,,,,,,,,,,,,,,,,,,,,,,,,,,,,,,,,,,,,,
,,,,,,,,2023-08-16_08h20.02.213,HF_wild_card,2022.2.4,MacIntel,62.5,63ef566e5460d50a368654dd,64d2fd46c836a06233681665,64dc789045749e86a8779dc4,,,,,,,decisionTrl,resources/DB.BMP,resources/DR.BMP,Door4,0.381278539,0.089041096,1,0,0,0.648,optionRight,80,3315,2,17,0,17,0,1,,,,,,,,,,,,,,,,,,,,,,,,,,,,,,,,,,,,,,,
,,,,,,,,2023-08-16_08h20.02.213,HF_wild_card,2022.2.4,MacIntel,62.5,63ef566e5460d50a368654dd,64d2fd46c836a06233681665,64dc789045749e86a8779dc4,,,,,,,sngl,resources/DG.BMP,resources/Empty.png,Door1,-0.363013699,0.070776256,1,0,0,0.848,optionLeft,30,3345,2,18,0,18,0,1,,,,,,,,,,,,,,,,,,,,,,,,,,,,,,,,,,,,,,,
,,,,,,,,2023-08-16_08h20.02.213,HF_wild_card,2022.2.4,MacIntel,62.5,63ef566e5460d50a368654dd,64d2fd46c836a06233681665,64dc789045749e86a8779dc4,,,,,,,sngl,resources/Empty.png,resources/DG.BMP,Door1,0.329908676,0.039954338,1,0,0,0.614,optionRight,30,3375,2,19,0,19,0,1,,,,,,,,,,,,,,,,,,,,,,,,,,,,,,,,,,,,,,,
,,,,,,,,2023-08-16_08h20.02.213,HF_wild_card,2022.2.4,MacIntel,62.5,63ef566e5460d50a368654dd,64d2fd46c836a06233681665,64dc789045749e86a8779dc4,,,,,,,decisionTrl,resources/DR.BMP,resources/DB.BMP,Door4,-0.297945205,-0.037671233,1,0,0,0.698,optionLeft,60,3435,2,20,0,20,0,1,,,,,,,,,,,,,,,,,,,,,,,,,,,,,,,,,,,,,,,
,,,,,,,,2023-08-16_08h20.02.213,HF_wild_card,2022.2.4,MacIntel,62.5,63ef566e5460d50a368654dd,64d2fd46c836a06233681665,64dc789045749e86a8779dc4,,,,,,,sngl,resources/DB.BMP,resources/Empty.png,Door3,-0.337899543,-0.023972603,1,0,0,0.698,optionLeft,70,3505,2,21,0,21,0,1,,,,,,,,,,,,,,,,,,,,,,,,,,,,,,,,,,,,,,,
,,,,,,,,2023-08-16_08h20.02.213,HF_wild_card,2022.2.4,MacIntel,62.5,63ef566e5460d50a368654dd,64d2fd46c836a06233681665,64dc789045749e86a8779dc4,,,,,,,decisionTrl,resources/DY.BMP,resources/DG.BMP,Door1,0.375570776,0.162100457,1,0,0,1.347,optionRight,30,3535,2,22,0,22,0,1,,,,,,,,,,,,,,,,,,,,,,,,,,,,,,,,,,,,,,,
,,,,,,,,2023-08-16_08h20.02.213,HF_wild_card,2022.2.4,MacIntel,62.5,63ef566e5460d50a368654dd,64d2fd46c836a06233681665,64dc789045749e86a8779dc4,,,,,,,ctch,resources/DB.BMP,resources/DBN.BMP,Door3,-0.350456621,0.014840183,1,0,0,2.131,optionLeft,70,3605,2,23,0,23,0,1,,,,,,,,,,,,,,,,,,,,,,,,,,,,,,,,,,,,,,,
,,,,,,,,2023-08-16_08h20.02.213,HF_wild_card,2022.2.4,MacIntel,62.5,63ef566e5460d50a368654dd,64d2fd46c836a06233681665,64dc789045749e86a8779dc4,,,,,,,decisionTrl,resources/DBN.BMP,resources/DY.BMP,Door2,-0.316210046,0.037671233,1,0,0,1.415,optionLeft,20,3625,2,24,0,24,0,1,,,,,,,,,,,,,,,,,,,,,,,,,,,,,,,,,,,,,,,
,,,,,,,,2023-08-16_08h20.02.213,HF_wild_card,2022.2.4,MacIntel,62.5,63ef566e5460d50a368654dd,64d2fd46c836a06233681665,64dc789045749e86a8779dc4,,,,,,,sngl,resources/DY.BMP,resources/Empty.png,WildCard_Ex,-0.186073059,0.01826484,1,0,0,0.647,optionLeft,5,3630,2,25,0,25,0,1,,,,,,,,,,,,,,,,,,,,,,,,,,,,,,,,,,,,,,,
,,,,,,,,2023-08-16_08h20.02.213,HF_wild_card,2022.2.4,MacIntel,62.5,63ef566e5460d50a368654dd,64d2fd46c836a06233681665,64dc789045749e86a8779dc4,,,,,,,decisionTrl,resources/DBN.BMP,resources/DG.BMP,Door1,0.401826484,0.167808219,1,0,0,1.848,optionRight,30,3660,2,26,0,26,0,1,,,,,,,,,,,,,,,,,,,,,,,,,,,,,,,,,,,,,,,
,,,,,,,,2023-08-16_08h20.02.213,HF_wild_card,2022.2.4,MacIntel,62.5,63ef566e5460d50a368654dd,64d2fd46c836a06233681665,64dc789045749e86a8779dc4,,,,,,,ctch,resources/DR.BMP,resources/DG.BMP,Door4,-0.296803653,0.04109589,1,0,0,0.698,optionLeft,60,3720,2,27,0,27,0,1,,,,,,,,,,,,,,,,,,,,,,,,,,,,,,,,,,,,,,,
,,,,,,,,2023-08-16_08h20.02.213,HF_wild_card,2022.2.4,MacIntel,62.5,63ef566e5460d50a368654dd,64d2fd46c836a06233681665,64dc789045749e86a8779dc4,,,,,,,decisionTrl,resources/DB.BMP,resources/DR.BMP,Door4,0.368721461,0.082191781,1,0,0,0.897,optionRight,80,3800,2,28,0,28,0,1,,,,,,,,,,,,,,,,,,,,,,,,,,,,,,,,,,,,,,,
,,,,,,,,2023-08-16_08h20.02.213,HF_wild_card,2022.2.4,MacIntel,62.5,63ef566e5460d50a368654dd,64d2fd46c836a06233681665,64dc789045749e86a8779dc4,,,,,,,decisionTrl,resources/DG.BMP,resources/DY.BMP,Door1,-0.294520548,-0.0456621,1,0,0,1.898,optionLeft,30,3830,2,29,0,29,0,1,,,,,,,,,,,,,,,,,,,,,,,,,,,,,,,,,,,,,,,
,,,,,,,,2023-08-16_08h20.02.213,HF_wild_card,2022.2.4,MacIntel,62.5,63ef566e5460d50a368654dd,64d2fd46c836a06233681665,64dc789045749e86a8779dc4,,,,,,,sngl,resources/DBN.BMP,resources/Empty.png,Door2,-0.22716895,-0.019406393,1,0,0,0.748,optionLeft,20,3850,2,30,0,30,0,1,,,,,,,,,,,,,,,,,,,,,,,,,,,,,,,,,,,,,,,
,,,,,,,,2023-08-16_08h20.02.213,HF_wild_card,2022.2.4,MacIntel,62.5,63ef566e5460d50a368654dd,64d2fd46c836a06233681665,64dc789045749e86a8779dc4,,,,,,,decisionTrl,resources/DR.BMP,resources/DB.BMP,Door4,-0.352739726,-0.083333333,1,0,0,0.647,optionLeft,60,3910,2,31,0,31,0,1,,,,,,,,,,,,,,,,,,,,,,,,,,,,,,,,,,,,,,,
,,,,,,,,2023-08-16_08h20.02.213,HF_wild_card,2022.2.4,MacIntel,62.5,63ef566e5460d50a368654dd,64d2fd46c836a06233681665,64dc789045749e86a8779dc4,,,,,,,ctch,resources/DBN.BMP,resources/DB.BMP,Door2,-0.302511416,-0.037671233,1,0,0,1.298,optionLeft,40,3950,2,32,0,32,0,1,,,,,,,,,,,,,,,,,,,,,,,,,,,,,,,,,,,,,,,
,,,,,,,,2023-08-16_08h20.02.213,HF_wild_card,2022.2.4,MacIntel,62.5,63ef566e5460d50a368654dd,64d2fd46c836a06233681665,64dc789045749e86a8779dc4,,,,,,,decisionTrl,resources/DR.BMP,resources/DY.BMP,Door4,-0.313926941,0.010273973,1,0,0,1.431,optionLeft,80,4030,2,33,0,33,0,1,,,,,,,,,,,,,,,,,,,,,,,,,,,,,,,,,,,,,,,
,,,,,,,,2023-08-16_08h20.02.213,HF_wild_card,2022.2.4,MacIntel,62.5,63ef566e5460d50a368654dd,64d2fd46c836a06233681665,64dc789045749e86a8779dc4,,,,,,,ctch,resources/DG.BMP,resources/DR.BMP,Door4,0.275114155,0.033105023,1,0,0,1.929,optionRight,60,4090,2,34,0,34,0,1,,,,,,,,,,,,,,,,,,,,,,,,,,,,,,,,,,,,,,,
,,,,,,,,2023-08-16_08h20.02.213,HF_wild_card,2022.2.4,MacIntel,62.5,63ef566e5460d50a368654dd,64d2fd46c836a06233681665,64dc789045749e86a8779dc4,,,,,,,decisionTrl,resources/DB.BMP,resources/DR.BMP,Door4,0.380136986,0.133561644,1,0,0,1.131,optionRight,80,4170,2,35,0,35,0,1,,,,,,,,,,,,,,,,,,,,,,,,,,,,,,,,,,,,,,,
,,,,,,,,2023-08-16_08h20.02.213,HF_wild_card,2022.2.4,MacIntel,62.5,63ef566e5460d50a368654dd,64d2fd46c836a06233681665,64dc789045749e86a8779dc4,,,,,,,ctch,resources/DR.BMP,resources/DG.BMP,Door4,-0.301369863,-0.006849315,1,0,0,0.998,optionLeft,80,4250,2,36,0,36,0,1,,,,,,,,,,,,,,,,,,,,,,,,,,,,,,,,,,,,,,,
,,,,,,,,2023-08-16_08h20.02.213,HF_wild_card,2022.2.4,MacIntel,62.5,63ef566e5460d50a368654dd,64d2fd46c836a06233681665,64dc789045749e86a8779dc4,,,,,,,ctch,resources/DG.BMP,resources/DR.BMP,Door4,0.339041096,0.057077626,1,0,0,0.682,optionRight,80,4330,2,37,0,37,0,1,,,,,,,,,,,,,,,,,,,,,,,,,,,,,,,,,,,,,,,
,,,,,,,,2023-08-16_08h20.02.213,HF_wild_card,2022.2.4,MacIntel,62.5,63ef566e5460d50a368654dd,64d2fd46c836a06233681665,64dc789045749e86a8779dc4,,,,,,,decisionTrl,resources/DBN.BMP,resources/DG.BMP,Door2,-0.307077626,0.00913242,1,0,0,2.097,optionLeft,20,4350,2,38,0,38,0,1,,,,,,,,,,,,,,,,,,,,,,,,,,,,,,,,,,,,,,,
,,,,,,,,2023-08-16_08h20.02.213,HF_wild_card,2022.2.4,MacIntel,62.5,63ef566e5460d50a368654dd,64d2fd46c836a06233681665,64dc789045749e86a8779dc4,,,,,,,sngl,resources/Empty.png,resources/DB.BMP,Door3,0.323059361,0.044520548,1,0,0,0.682,optionRight,70,4420,2,39,0,39,0,1,,,,,,,,,,,,,,,,,,,,,,,,,,,,,,,,,,,,,,,
,,,,,,,,2023-08-16_08h20.02.213,HF_wild_card,2022.2.4,MacIntel,62.5,63ef566e5460d50a368654dd,64d2fd46c836a06233681665,64dc789045749e86a8779dc4,,,,,,,decisionTrl,resources/DG.BMP,resources/DBN.BMP,Door2,0.372146119,0.180365297,1,0,0,1.964,optionRight,20,4440,2,40,0,40,0,1,,,,,,,,,,,,,,,,,,,,,,,,,,,,,,,,,,,,,,,
,,,,,,,,2023-08-16_08h20.02.213,HF_wild_card,2022.2.4,MacIntel,62.5,63ef566e5460d50a368654dd,64d2fd46c836a06233681665,64dc789045749e86a8779dc4,,,,,,,decisionTrl,resources/DY.BMP,resources/DBN.BMP,Door2,0.343607306,0.090182648,1,0,0,1.697,optionRight,40,4480,2,41,0,41,0,1,,,,,,,,,,,,,,,,,,,,,,,,,,,,,,,,,,,,,,,
,,,,,,,,2023-08-16_08h20.02.213,HF_wild_card,2022.2.4,MacIntel,62.5,63ef566e5460d50a368654dd,64d2fd46c836a06233681665,64dc789045749e86a8779dc4,,,,,,,decisionTrl,resources/DB.BMP,resources/DY.BMP,Door3,-0.223744292,0.029680365,1,0,0,0.945,optionLeft,70,4550,2,42,0,42,0,1,,,,,,,,,,,,,,,,,,,,,,,,,,,,,,,,,,,,,,,
,,,,,,,,2023-08-16_08h20.02.213,HF_wild_card,2022.2.4,MacIntel,62.5,63ef566e5460d50a368654dd,64d2fd46c836a06233681665,64dc789045749e86a8779dc4,,,,,,,decisionTrl,resources/DR.BMP,resources/DB.BMP,Door4,-0.167808219,-0.00456621,1,0,0,0.797,optionLeft,80,4630,2,43,0,43,0,1,,,,,,,,,,,,,,,,,,,,,,,,,,,,,,,,,,,,,,,
,,,,,,,,2023-08-16_08h20.02.213,HF_wild_card,2022.2.4,MacIntel,62.5,63ef566e5460d50a368654dd,64d2fd46c836a06233681665,64dc789045749e86a8779dc4,,,,,,,,,,,,,,,,,,,,,,,,,,1,0,1,0,1,,,,,,,,,,,,,,,,,,,,,,,,,,,,,,,,,,
,,,,,,,,2023-08-16_08h20.02.213,HF_wild_card,2022.2.4,MacIntel,62.5,63ef566e5460d50a368654dd,64d2fd46c836a06233681665,64dc789045749e86a8779dc4,,,,,,,decisionTrl,resources/DR.BMP,resources/DY.BMP,Door4,-0.312785388,-0.131278539,1,0,0,3.811,optionLeft,60,4690,3,0,0,0,0,1,,,,,,,,,,,,,,,,,,,,,,,,,,,,,,,,,,,,,,,
,,,,,,,,2023-08-16_08h20.02.213,HF_wild_card,2022.2.4,MacIntel,62.5,63ef566e5460d50a368654dd,64d2fd46c836a06233681665,64dc789045749e86a8779dc4,,,,,,,ctch,resources/DBN.BMP,resources/DB.BMP,Door3,0.385844749,0.066210046,1,0,0,1.48,optionRight,70,4760,3,1,0,1,0,1,,,,,,,,,,,,,,,,,,,,,,,,,,,,,,,,,,,,,,,
,,,,,,,,2023-08-16_08h20.02.213,HF_wild_card,2022.2.4,MacIntel,62.5,63ef566e5460d50a368654dd,64d2fd46c836a06233681665,64dc789045749e86a8779dc4,,,,,,,decisionTrl,resources/DY.BMP,resources/DR.BMP,Door4,0.356164384,0.065068493,1,0,0,0.764,optionRight,80,4840,3,2,0,2,0,1,,,,,,,,,,,,,,,,,,,,,,,,,,,,,,,,,,,,,,,
,,,,,,,,2023-08-16_08h20.02.213,HF_wild_card,2022.2.4,MacIntel,62.5,63ef566e5460d50a368654dd,64d2fd46c836a06233681665,64dc789045749e86a8779dc4,,,,,,,sngl,resources/DY.BMP,resources/Empty.png,WildCard_Ex,-0.271689498,-0.020547945,1,0,0,0.663,optionLeft,95,4935,3,3,0,3,0,1,,,,,,,,,,,,,,,,,,,,,,,,,,,,,,,,,,,,,,,
,,,,,,,,2023-08-16_08h20.02.213,HF_wild_card,2022.2.4,MacIntel,62.5,63ef566e5460d50a368654dd,64d2fd46c836a06233681665,64dc789045749e86a8779dc4,,,,,,,decisionTrl,resources/DBN.BMP,resources/DG.BMP,Door1,0.313926941,0.139269406,1,0,0,1.764,optionRight,30,4965,3,4,0,4,0,1,,,,,,,,,,,,,,,,,,,,,,,,,,,,,,,,,,,,,,,
,,,,,,,,2023-08-16_08h20.02.213,HF_wild_card,2022.2.4,MacIntel,62.5,63ef566e5460d50a368654dd,64d2fd46c836a06233681665,64dc789045749e86a8779dc4,,,,,,,decisionTrl,resources/DG.BMP,resources/DBN.BMP,Door2,0.26369863,0.22260274,1,0,0,2.297,optionRight,40,5005,3,5,0,5,0,1,,,,,,,,,,,,,,,,,,,,,,,,,,,,,,,,,,,,,,,
,,,,,,,,2023-08-16_08h20.02.213,HF_wild_card,2022.2.4,MacIntel,62.5,63ef566e5460d50a368654dd,64d2fd46c836a06233681665,64dc789045749e86a8779dc4,,,,,,,ctch,resources/DG.BMP,resources/DR.BMP,Door4,0.376712329,0.099315068,1,0,0,0.731,optionRight,80,5085,3,6,0,6,0,1,,,,,,,,,,,,,,,,,,,,,,,,,,,,,,,,,,,,,,,
,,,,,,,,2023-08-16_08h20.02.213,HF_wild_card,2022.2.4,MacIntel,62.5,63ef566e5460d50a368654dd,64d2fd46c836a06233681665,64dc789045749e86a8779dc4,,,,,,,sngl,resources/Empty.png,resources/DY.BMP,WildCard_Ex,0.301369863,0.136986301,1,0,0,1.115,optionRight,5,5090,3,7,0,7,0,1,,,,,,,,,,,,,,,,,,,,,,,,,,,,,,,,,,,,,,,
,,,,,,,,2023-08-16_08h20.02.213,HF_wild_card,2022.2.4,MacIntel,62.5,63ef566e5460d50a368654dd,64d2fd46c836a06233681665,64dc789045749e86a8779dc4,,,,,,,sngl,resources/DY.BMP,resources/Empty.png,WildCard_Ex,-0.223744292,0.01826484,1,0,0,0.681,optionLeft,5,5095,3,8,0,8,0,1,,,,,,,,,,,,,,,,,,,,,,,,,,,,,,,,,,,,,,,
,,,,,,,,2023-08-16_08h20.02.213,HF_wild_card,2022.2.4,MacIntel,62.5,63ef566e5460d50a368654dd,64d2fd46c836a06233681665,64dc789045749e86a8779dc4,,,,,,,decisionTrl,resources/DR.BMP,resources/DB.BMP,Door4,-0.301369863,0.087899543,1,0,0,1.446,optionLeft,80,5175,3,9,0,9,0,1,,,,,,,,,,,,,,,,,,,,,,,,,,,,,,,,,,,,,,,
,,,,,,,,2023-08-16_08h20.02.213,HF_wild_card,2022.2.4,MacIntel,62.5,63ef566e5460d50a368654dd,64d2fd46c836a06233681665,64dc789045749e86a8779dc4,,,,,,,decisionTrl,resources/DG.BMP,resources/DBN.BMP,Door1,-0.375570776,0.021689498,1,0,0,1.681,optionLeft,30,5205,3,10,0,10,0,1,,,,,,,,,,,,,,,,,,,,,,,,,,,,,,,,,,,,,,,
,,,,,,,,2023-08-16_08h20.02.213,HF_wild_card,2022.2.4,MacIntel,62.5,63ef566e5460d50a368654dd,64d2fd46c836a06233681665,64dc789045749e86a8779dc4,,,,,,,decisionTrl,resources/DBN.BMP,resources/DG.BMP,Door2,-0.384703196,0.075342466,1,0,0,0.848,optionLeft,40,5245,3,11,0,11,0,1,,,,,,,,,,,,,,,,,,,,,,,,,,,,,,,,,,,,,,,
,,,,,,,,2023-08-16_08h20.02.213,HF_wild_card,2022.2.4,MacIntel,62.5,63ef566e5460d50a368654dd,64d2fd46c836a06233681665,64dc789045749e86a8779dc4,,,,,,,sngl,resources/Empty.png,resources/DB.BMP,Door3,0.305936073,0.012557078,1,0,0,1.431,optionRight,70,5315,3,12,0,12,0,1,,,,,,,,,,,,,,,,,,,,,,,,,,,,,,,,,,,,,,,
,,,,,,,,2023-08-16_08h20.02.213,HF_wild_card,2022.2.4,MacIntel,62.5,63ef566e5460d50a368654dd,64d2fd46c836a06233681665,64dc789045749e86a8779dc4,,,,,,,decisionTrl,resources/DY.BMP,resources/DG.BMP,Door1,0.340182648,0.094748858,1,0,0,1.182,optionRight,30,5345,3,13,0,13,0,1,,,,,,,,,,,,,,,,,,,,,,,,,,,,,,,,,,,,,,,
,,,,,,,,2023-08-16_08h20.02.213,HF_wild_card,2022.2.4,MacIntel,62.5,63ef566e5460d50a368654dd,64d2fd46c836a06233681665,64dc789045749e86a8779dc4,,,,,,,decisionTrl,resources/DB.BMP,resources/DY.BMP,Door3,-0.311643836,0.01369863,1,0,0,0.98,optionLeft,70,5415,3,14,0,14,0,1,,,,,,,,,,,,,,,,,,,,,,,,,,,,,,,,,,,,,,,
,,,,,,,,2023-08-16_08h20.02.213,HF_wild_card,2022.2.4,MacIntel,62.5,63ef566e5460d50a368654dd,64d2fd46c836a06233681665,64dc789045749e86a8779dc4,,,,,,,decisionTrl,resources/DBN.BMP,resources/DY.BMP,Door2,-0.445205479,0.091324201,1,0,0,1.431,optionLeft,40,5455,3,15,0,15,0,1,,,,,,,,,,,,,,,,,,,,,,,,,,,,,,,,,,,,,,,
,,,,,,,,2023-08-16_08h20.02.213,HF_wild_card,2022.2.4,MacIntel,62.5,63ef566e5460d50a368654dd,64d2fd46c836a06233681665,64dc789045749e86a8779dc4,,,,,,,decisionTrl,resources/DG.BMP,resources/DBN.BMP,Door1,-0.303652968,-0.002283105,1,0,0,1.447,optionLeft,30,5485,3,16,0,16,0,1,,,,,,,,,,,,,,,,,,,,,,,,,,,,,,,,,,,,,,,
,,,,,,,,2023-08-16_08h20.02.213,HF_wild_card,2022.2.4,MacIntel,62.5,63ef566e5460d50a368654dd,64d2fd46c836a06233681665,64dc789045749e86a8779dc4,,,,,,,decisionTrl,resources/DY.BMP,resources/DBN.BMP,Door2,0.316210046,0.126712329,1,0,0,0.815,optionRight,20,5505,3,17,0,17,0,1,,,,,,,,,,,,,,,,,,,,,,,,,,,,,,,,,,,,,,,
,,,,,,,,2023-08-16_08h20.02.213,HF_wild_card,2022.2.4,MacIntel,62.5,63ef566e5460d50a368654dd,64d2fd46c836a06233681665,64dc789045749e86a8779dc4,,,,,,,ctch,resources/DB.BMP,resources/DBN.BMP,Door3,-0.402968037,0.003424658,1,0,0,2.181,optionLeft,70,5575,3,18,0,18,0,1,,,,,,,,,,,,,,,,,,,,,,,,,,,,,,,,,,,,,,,
,,,,,,,,2023-08-16_08h20.02.213,HF_wild_card,2022.2.4,MacIntel,62.5,63ef566e5460d50a368654dd,64d2fd46c836a06233681665,64dc789045749e86a8779dc4,,,,,,,ctch,resources/DB.BMP,resources/DBN.BMP,Door3,-0.197488584,-0.055936073,1,0,0,0.631,optionLeft,70,5645,3,19,0,19,0,1,,,,,,,,,,,,,,,,,,,,,,,,,,,,,,,,,,,,,,,
,,,,,,,,2023-08-16_08h20.02.213,HF_wild_card,2022.2.4,MacIntel,62.5,63ef566e5460d50a368654dd,64d2fd46c836a06233681665,64dc789045749e86a8779dc4,,,,,,,decisionTrl,resources/DG.BMP,resources/DBN.BMP,Door1,-0.347031963,0.001141553,1,0,0,1.498,optionLeft,30,5675,3,20,0,20,0,1,,,,,,,,,,,,,,,,,,,,,,,,,,,,,,,,,,,,,,,
,,,,,,,,2023-08-16_08h20.02.213,HF_wild_card,2022.2.4,MacIntel,62.5,63ef566e5460d50a368654dd,64d2fd46c836a06233681665,64dc789045749e86a8779dc4,,,,,,,decisionTrl,resources/DR.BMP,resources/DB.BMP,Door4,-0.197488584,-0.03652968,1,0,0,1.547,optionLeft,80,5755,3,21,0,21,0,1,,,,,,,,,,,,,,,,,,,,,,,,,,,,,,,,,,,,,,,
,,,,,,,,2023-08-16_08h20.02.213,HF_wild_card,2022.2.4,MacIntel,62.5,63ef566e5460d50a368654dd,64d2fd46c836a06233681665,64dc789045749e86a8779dc4,,,,,,,decisionTrl,resources/DB.BMP,resources/DR.BMP,Door4,0.256849315,0.025114155,1,0,0,0.997,optionRight,80,5835,3,22,0,22,0,1,,,,,,,,,,,,,,,,,,,,,,,,,,,,,,,,,,,,,,,
,,,,,,,,2023-08-16_08h20.02.213,HF_wild_card,2022.2.4,MacIntel,62.5,63ef566e5460d50a368654dd,64d2fd46c836a06233681665,64dc789045749e86a8779dc4,,,,,,,decisionTrl,resources/DR.BMP,resources/DB.BMP,Door4,-0.421232877,-0.092465753,1,0,0,1.397,optionLeft,80,5915,3,23,0,23,0,1,,,,,,,,,,,,,,,,,,,,,,,,,,,,,,,,,,,,,,,
,,,,,,,,2023-08-16_08h20.02.213,HF_wild_card,2022.2.4,MacIntel,62.5,63ef566e5460d50a368654dd,64d2fd46c836a06233681665,64dc789045749e86a8779dc4,,,,,,,decisionTrl,resources/DB.BMP,resources/DR.BMP,Door4,0.326484018,0.060502283,1,0,0,0.714,optionRight,60,5975,3,24,0,24,0,1,,,,,,,,,,,,,,,,,,,,,,,,,,,,,,,,,,,,,,,
,,,,,,,,2023-08-16_08h20.02.213,HF_wild_card,2022.2.4,MacIntel,62.5,63ef566e5460d50a368654dd,64d2fd46c836a06233681665,64dc789045749e86a8779dc4,,,,,,,sngl,resources/DR.BMP,resources/Empty.png,Door4,-0.226027397,-0.014840183,1,0,0,0.581,optionLeft,80,6055,3,25,0,25,0,1,,,,,,,,,,,,,,,,,,,,,,,,,,,,,,,,,,,,,,,
,,,,,,,,2023-08-16_08h20.02.213,HF_wild_card,2022.2.4,MacIntel,62.5,63ef566e5460d50a368654dd,64d2fd46c836a06233681665,64dc789045749e86a8779dc4,,,,,,,decisionTrl,resources/DBN.BMP,resources/DG.BMP,Door1,0.360730594,0.099315068,1,0,0,1.931,optionRight,30,6085,3,26,0,26,0,1,,,,,,,,,,,,,,,,,,,,,,,,,,,,,,,,,,,,,,,
,,,,,,,,2023-08-16_08h20.02.213,HF_wild_card,2022.2.4,MacIntel,62.5,63ef566e5460d50a368654dd,64d2fd46c836a06233681665,64dc789045749e86a8779dc4,,,,,,,sngl,resources/DBN.BMP,resources/Empty.png,Door2,-0.167808219,-0.023972603,1,0,0,0.631,optionLeft,40,6125,3,27,0,27,0,1,,,,,,,,,,,,,,,,,,,,,,,,,,,,,,,,,,,,,,,
,,,,,,,,2023-08-16_08h20.02.213,HF_wild_card,2022.2.4,MacIntel,62.5,63ef566e5460d50a368654dd,64d2fd46c836a06233681665,64dc789045749e86a8779dc4,,,,,,,ctch,resources/DG.BMP,resources/DR.BMP,Door4,0.326484018,0.076484018,1,0,0,0.765,optionRight,60,6185,3,28,0,28,0,1,,,,,,,,,,,,,,,,,,,,,,,,,,,,,,,,,,,,,,,
,,,,,,,,2023-08-16_08h20.02.213,HF_wild_card,2022.2.4,MacIntel,62.5,63ef566e5460d50a368654dd,64d2fd46c836a06233681665,64dc789045749e86a8779dc4,,,,,,,sngl,resources/Empty.png,resources/DG.BMP,Door1,0.151826484,0.049086758,1,0,0,0.714,optionRight,30,6215,3,29,0,29,0,1,,,,,,,,,,,,,,,,,,,,,,,,,,,,,,,,,,,,,,,
,,,,,,,,2023-08-16_08h20.02.213,HF_wild_card,2022.2.4,MacIntel,62.5,63ef566e5460d50a368654dd,64d2fd46c836a06233681665,64dc789045749e86a8779dc4,,,,,,,decisionTrl,resources/DB.BMP,resources/DR.BMP,Door4,0.293378995,0.071917808,1,0,0,0.698,optionRight,60,6275,3,30,0,30,0,1,,,,,,,,,,,,,,,,,,,,,,,,,,,,,,,,,,,,,,,
,,,,,,,,2023-08-16_08h20.02.213,HF_wild_card,2022.2.4,MacIntel,62.5,63ef566e5460d50a368654dd,64d2fd46c836a06233681665,64dc789045749e86a8779dc4,,,,,,,sngl,resources/DB.BMP,resources/Empty.png,Door3,-0.267123288,-0.010273973,1,0,0,0.596,optionLeft,70,6345,3,31,0,31,0,1,,,,,,,,,,,,,,,,,,,,,,,,,,,,,,,,,,,,,,,
,,,,,,,,2023-08-16_08h20.02.213,HF_wild_card,2022.2.4,MacIntel,62.5,63ef566e5460d50a368654dd,64d2fd46c836a06233681665,64dc789045749e86a8779dc4,,,,,,,decisionTrl,resources/DY.BMP,resources/DB.BMP,Door3,0.326484018,0.085616438,1,0,0,0.663,optionRight,70,6415,3,32,0,32,0,1,,,,,,,,,,,,,,,,,,,,,,,,,,,,,,,,,,,,,,,
,,,,,,,,2023-08-16_08h20.02.213,HF_wild_card,2022.2.4,MacIntel,62.5,63ef566e5460d50a368654dd,64d2fd46c836a06233681665,64dc789045749e86a8779dc4,,,,,,,ctch,resources/DR.BMP,resources/DG.BMP,Door4,-0.267123288,-0.03652968,1,0,0,1.748,optionLeft,80,6495,3,33,0,33,0,1,,,,,,,,,,,,,,,,,,,,,,,,,,,,,,,,,,,,,,,
,,,,,,,,2023-08-16_08h20.02.213,HF_wild_card,2022.2.4,MacIntel,62.5,63ef566e5460d50a368654dd,64d2fd46c836a06233681665,64dc789045749e86a8779dc4,,,,,,,ctch,resources/DR.BMP,resources/DG.BMP,Door4,-0.25913242,-0.023972603,1,0,0,0.698,optionLeft,60,6555,3,34,0,34,0,1,,,,,,,,,,,,,,,,,,,,,,,,,,,,,,,,,,,,,,,
,,,,,,,,2023-08-16_08h20.02.213,HF_wild_card,2022.2.4,MacIntel,62.5,63ef566e5460d50a368654dd,64d2fd46c836a06233681665,64dc789045749e86a8779dc4,,,,,,,decisionTrl,resources/DR.BMP,resources/DB.BMP,Door4,-0.237442922,-0.028538813,1,0,0,0.548,optionLeft,80,6635,3,35,0,35,0,1,,,,,,,,,,,,,,,,,,,,,,,,,,,,,,,,,,,,,,,
,,,,,,,,2023-08-16_08h20.02.213,HF_wild_card,2022.2.4,MacIntel,62.5,63ef566e5460d50a368654dd,64d2fd46c836a06233681665,64dc789045749e86a8779dc4,,,,,,,ctch,resources/DBN.BMP,resources/DB.BMP,Door3,0.279680365,0.044520548,1,0,0,1.414,optionRight,70,6705,3,36,0,36,0,1,,,,,,,,,,,,,,,,,,,,,,,,,,,,,,,,,,,,,,,
,,,,,,,,2023-08-16_08h20.02.213,HF_wild_card,2022.2.4,MacIntel,62.5,63ef566e5460d50a368654dd,64d2fd46c836a06233681665,64dc789045749e86a8779dc4,,,,,,,sngl,resources/Empty.png,resources/DR.BMP,Door4,0.2043379,-0.006849315,1,0,0,0.664,optionRight,60,6765,3,37,0,37,0,1,,,,,,,,,,,,,,,,,,,,,,,,,,,,,,,,,,,,,,,
,,,,,,,,2023-08-16_08h20.02.213,HF_wild_card,2022.2.4,MacIntel,62.5,63ef566e5460d50a368654dd,64d2fd46c836a06233681665,64dc789045749e86a8779dc4,,,,,,,decisionTrl,resources/DBN.BMP,resources/DG.BMP,Door2,-0.257990868,0.105022831,1,0,0,2.78,optionLeft,20,6785,3,38,0,38,0,1,,,,,,,,,,,,,,,,,,,,,,,,,,,,,,,,,,,,,,,
,,,,,,,,2023-08-16_08h20.02.213,HF_wild_card,2022.2.4,MacIntel,62.5,63ef566e5460d50a368654dd,64d2fd46c836a06233681665,64dc789045749e86a8779dc4,,,,,,,decisionTrl,resources/DG.BMP,resources/DY.BMP,Door1,-0.202054795,-0.04109589,1,0,0,1.648,optionLeft,30,6815,3,39,0,39,0,1,,,,,,,,,,,,,,,,,,,,,,,,,,,,,,,,,,,,,,,
,,,,,,,,2023-08-16_08h20.02.213,HF_wild_card,2022.2.4,MacIntel,62.5,63ef566e5460d50a368654dd,64d2fd46c836a06233681665,64dc789045749e86a8779dc4,,,,,,,sngl,resources/DG.BMP,resources/Empty.png,Door1,-0.152968037,-0.04109589,1,0,0,0.664,optionLeft,30,6845,3,40,0,40,0,1,,,,,,,,,,,,,,,,,,,,,,,,,,,,,,,,,,,,,,,
,,,,,,,,2023-08-16_08h20.02.213,HF_wild_card,2022.2.4,MacIntel,62.5,63ef566e5460d50a368654dd,64d2fd46c836a06233681665,64dc789045749e86a8779dc4,,,,,,,decisionTrl,resources/DB.BMP,resources/DR.BMP,Door4,0.385844749,0.102739726,1,0,0,0.647,optionRight,60,6905,3,41,0,41,0,1,,,,,,,,,,,,,,,,,,,,,,,,,,,,,,,,,,,,,,,
,,,,,,,,2023-08-16_08h20.02.213,HF_wild_card,2022.2.4,MacIntel,62.5,63ef566e5460d50a368654dd,64d2fd46c836a06233681665,64dc789045749e86a8779dc4,,,,,,,sngl,resources/Empty.png,resources/DBN.BMP,Door2,0.269406393,0.030821918,1,0,0,0.814,optionRight,20,6925,3,42,0,42,0,1,,,,,,,,,,,,,,,,,,,,,,,,,,,,,,,,,,,,,,,
,,,,,,,,2023-08-16_08h20.02.213,HF_wild_card,2022.2.4,MacIntel,62.5,63ef566e5460d50a368654dd,64d2fd46c836a06233681665,64dc789045749e86a8779dc4,,,,,,,sngl,resources/Empty.png,resources/DY.BMP,WildCard_Ex,0.267123288,0.049086758,1,0,0,0.647,optionRight,95,7020,3,43,0,43,0,1,,,,,,,,,,,,,,,,,,,,,,,,,,,,,,,,,,,,,,,
,,,,,,,,2023-08-16_08h20.02.213,HF_wild_card,2022.2.4,MacIntel,62.5,63ef566e5460d50a368654dd,64d2fd46c836a06233681665,64dc789045749e86a8779dc4,,,,,,,,,,,,,,,,,,,,,,,,,,2,0,2,0,1,,,,,,,,,,,,,,,,,,,,,,,,,,,,,,,,,,
,,,,,,,,2023-08-16_08h20.02.213,HF_wild_card,2022.2.4,MacIntel,62.5,63ef566e5460d50a368654dd,64d2fd46c836a06233681665,64dc789045749e86a8779dc4,,,,,,,decisionTrl,resources/DG.BMP,resources/DP.BMP,WildCard_NonEx,0.321917808,0.00456621,1,0,0,1.641,optionRight,45,7065,4,0,0,0,0,1,,,,,,,,,,,,,,,,,,,,,,,,,,,,,,,,,,,,,,,
,,,,,,,,2023-08-16_08h20.02.213,HF_wild_card,2022.2.4,MacIntel,62.5,63ef566e5460d50a368654dd,64d2fd46c836a06233681665,64dc789045749e86a8779dc4,,,,,,,sngl,resources/DBN.BMP,resources/Empty.png,Door2,-0.271689498,-0.095890411,1,0,0,0.696,optionLeft,20,7085,4,1,0,1,0,1,,,,,,,,,,,,,,,,,,,,,,,,,,,,,,,,,,,,,,,
,,,,,,,,2023-08-16_08h20.02.213,HF_wild_card,2022.2.4,MacIntel,62.5,63ef566e5460d50a368654dd,64d2fd46c836a06233681665,64dc789045749e86a8779dc4,,,,,,,decisionTrl,resources/DR.BMP,resources/DB.BMP,Door4,-0.407534247,-0.034246575,1,0,0,1.547,optionLeft,80,7165,4,2,0,2,0,1,,,,,,,,,,,,,,,,,,,,,,,,,,,,,,,,,,,,,,,
,,,,,,,,2023-08-16_08h20.02.213,HF_wild_card,2022.2.4,MacIntel,62.5,63ef566e5460d50a368654dd,64d2fd46c836a06233681665,64dc789045749e86a8779dc4,,,,,,,sngl,resources/DR.BMP,resources/Empty.png,Door4,-0.383561644,-0.002283105,1,0,0,2.197,optionLeft,60,7225,4,3,0,3,0,1,,,,,,,,,,,,,,,,,,,,,,,,,,,,,,,,,,,,,,,
,,,,,,,,2023-08-16_08h20.02.213,HF_wild_card,2022.2.4,MacIntel,62.5,63ef566e5460d50a368654dd,64d2fd46c836a06233681665,64dc789045749e86a8779dc4,,,,,,,decisionTrl,resources/DR.BMP,resources/DB.BMP,Door4,-0.187214612,-0.119863014,1,0,0,0.93,optionLeft,80,7305,4,4,0,4,0,1,,,,,,,,,,,,,,,,,,,,,,,,,,,,,,,,,,,,,,,
,,,,,,,,2023-08-16_08h20.02.213,HF_wild_card,2022.2.4,MacIntel,62.5,63ef566e5460d50a368654dd,64d2fd46c836a06233681665,64dc789045749e86a8779dc4,,,,,,,sngl,resources/Empty.png,resources/DG.BMP,Door1,0.284246575,0.085616438,1,0,0,0.631,optionRight,30,7335,4,5,0,5,0,1,,,,,,,,,,,,,,,,,,,,,,,,,,,,,,,,,,,,,,,
,,,,,,,,2023-08-16_08h20.02.213,HF_wild_card,2022.2.4,MacIntel,62.5,63ef566e5460d50a368654dd,64d2fd46c836a06233681665,64dc789045749e86a8779dc4,,,,,,,ctch,resources/DR.BMP,resources/DG.BMP,Door4,-0.394977169,0.011415525,1,0,0,0.698,optionLeft,60,7395,4,6,0,6,0,1,,,,,,,,,,,,,,,,,,,,,,,,,,,,,,,,,,,,,,,
,,,,,,,,2023-08-16_08h20.02.213,HF_wild_card,2022.2.4,MacIntel,62.5,63ef566e5460d50a368654dd,64d2fd46c836a06233681665,64dc789045749e86a8779dc4,,,,,,,sngl,resources/DG.BMP,resources/Empty.png,Door1,-0.25456621,-0.083333333,1,0,0,0.598,optionLeft,30,7425,4,7,0,7,0,1,,,,,,,,,,,,,,,,,,,,,,,,,,,,,,,,,,,,,,,
,,,,,,,,2023-08-16_08h20.02.213,HF_wild_card,2022.2.4,MacIntel,62.5,63ef566e5460d50a368654dd,64d2fd46c836a06233681665,64dc789045749e86a8779dc4,,,,,,,sngl,resources/DB.BMP,resources/Empty.png,Door3,-0.329908676,-0.005707763,1,0,0,0.615,optionLeft,70,7495,4,8,0,8,0,1,,,,,,,,,,,,,,,,,,,,,,,,,,,,,,,,,,,,,,,
,,,,,,,,2023-08-16_08h20.02.213,HF_wild_card,2022.2.4,MacIntel,62.5,63ef566e5460d50a368654dd,64d2fd46c836a06233681665,64dc789045749e86a8779dc4,,,,,,,ctch,resources/DG.BMP,resources/DR.BMP,Door4,0.378995434,0.039954338,1,0,0,0.659,optionRight,60,7555,4,9,0,9,0,1,,,,,,,,,,,,,,,,,,,,,,,,,,,,,,,,,,,,,,,
,,,,,,,,2023-08-16_08h20.02.213,HF_wild_card,2022.2.4,MacIntel,62.5,63ef566e5460d50a368654dd,64d2fd46c836a06233681665,64dc789045749e86a8779dc4,,,,,,,decisionTrl,resources/DB.BMP,resources/DR.BMP,Door4,0.423515982,0.043378995,1,0,0,1.314,optionRight,80,7635,4,10,0,10,0,1,,,,,,,,,,,,,,,,,,,,,,,,,,,,,,,,,,,,,,,
,,,,,,,,2023-08-16_08h20.02.213,HF_wild_card,2022.2.4,MacIntel,62.5,63ef566e5460d50a368654dd,64d2fd46c836a06233681665,64dc789045749e86a8779dc4,,,,,,,ctch,resources/DB.BMP,resources/DBN.BMP,Door3,-0.416666667,-0.067351598,1,0,0,3.597,optionLeft,70,7705,4,11,0,11,0,1,,,,,,,,,,,,,,,,,,,,,,,,,,,,,,,,,,,,,,,
,,,,,,,,2023-08-16_08h20.02.213,HF_wild_card,2022.2.4,MacIntel,62.5,63ef566e5460d50a368654dd,64d2fd46c836a06233681665,64dc789045749e86a8779dc4,,,,,,,sngl,resources/DP.BMP,resources/Empty.png,WildCard_NonEx,-0.384703196,-0.058219178,1,0,0,1.231,optionLeft,55,7760,4,12,0,12,0,1,,,,,,,,,,,,,,,,,,,,,,,,,,,,,,,,,,,,,,,
,,,,,,,,2023-08-16_08h20.02.213,HF_wild_card,2022.2.4,MacIntel,62.5,63ef566e5460d50a368654dd,64d2fd46c836a06233681665,64dc789045749e86a8779dc4,,,,,,,decisionTrl,resources/DG.BMP,resources/DBN.BMP,Door1,-0.445205479,-0.093607306,1,0,0,1.048,optionLeft,30,7790,4,13,0,13,0,1,,,,,,,,,,,,,,,,,,,,,,,,,,,,,,,,,,,,,,,
,,,,,,,,2023-08-16_08h20.02.213,HF_wild_card,2022.2.4,MacIntel,62.5,63ef566e5460d50a368654dd,64d2fd46c836a06233681665,64dc789045749e86a8779dc4,,,,,,,decisionTrl,resources/DBN.BMP,resources/DG.BMP,Door1,0.316210046,0.063926941,1,0,0,0.697,optionRight,30,7820,4,14,0,14,0,1,,,,,,,,,,,,,,,,,,,,,,,,,,,,,,,,,,,,,,,
,,,,,,,,2023-08-16_08h20.02.213,HF_wild_card,2022.2.4,MacIntel,62.5,63ef566e5460d50a368654dd,64d2fd46c836a06233681665,64dc789045749e86a8779dc4,,,,,,,decisionTrl,resources/DR.BMP,resources/DB.BMP,Door4,-0.331050228,-0.053652968,1,0,0,0.765,optionLeft,60,7880,4,15,0,15,0,1,,,,,,,,,,,,,,,,,,,,,,,,,,,,,,,,,,,,,,,
,,,,,,,,2023-08-16_08h20.02.213,HF_wild_card,2022.2.4,MacIntel,62.5,63ef566e5460d50a368654dd,64d2fd46c836a06233681665,64dc789045749e86a8779dc4,,,,,,,decisionTrl,resources/DR.BMP,resources/DB.BMP,Door3,0.292237443,0.025114155,1,0,0,0.581,optionRight,70,7950,4,16,0,16,0,1,,,,,,,,,,,,,,,,,,,,,,,,,,,,,,,,,,,,,,,
,,,,,,,,2023-08-16_08h20.02.213,HF_wild_card,2022.2.4,MacIntel,62.5,63ef566e5460d50a368654dd,64d2fd46c836a06233681665,64dc789045749e86a8779dc4,,,,,,,sngl,resources/Empty.png,resources/DP.BMP,WildCard_NonEx,0.190639269,0.015981735,1,0,0,0.631,optionRight,55,8005,4,17,0,17,0,1,,,,,,,,,,,,,,,,,,,,,,,,,,,,,,,,,,,,,,,
,,,,,,,,2023-08-16_08h20.02.213,HF_wild_card,2022.2.4,MacIntel,62.5,63ef566e5460d50a368654dd,64d2fd46c836a06233681665,64dc789045749e86a8779dc4,,,,,,,sngl,resources/DP.BMP,resources/Empty.png,WildCard_NonEx,-0.27739726,-0.055936073,1,0,0,0.581,optionLeft,45,8050,4,18,0,18,0,1,,,,,,,,,,,,,,,,,,,,,,,,,,,,,,,,,,,,,,,
,,,,,,,,2023-08-16_08h20.02.213,HF_wild_card,2022.2.4,MacIntel,62.5,63ef566e5460d50a368654dd,64d2fd46c836a06233681665,64dc789045749e86a8779dc4,,,,,,,decisionTrl,resources/DP.BMP,resources/DG.BMP,WildCard_NonEx,-0.234018265,-0.094748858,1,0,0,0.632,optionLeft,45,8095,4,19,0,19,0,1,,,,,,,,,,,,,,,,,,,,,,,,,,,,,,,,,,,,,,,
,,,,,,,,2023-08-16_08h20.02.213,HF_wild_card,2022.2.4,MacIntel,62.5,63ef566e5460d50a368654dd,64d2fd46c836a06233681665,64dc789045749e86a8779dc4,,,,,,,decisionTrl,resources/DG.BMP,resources/DBN.BMP,Door1,-0.26369863,-0.170091324,1,0,0,1.097,optionLeft,30,8125,4,20,0,20,0,1,,,,,,,,,,,,,,,,,,,,,,,,,,,,,,,,,,,,,,,
,,,,,,,,2023-08-16_08h20.02.213,HF_wild_card,2022.2.4,MacIntel,62.5,63ef566e5460d50a368654dd,64d2fd46c836a06233681665,64dc789045749e86a8779dc4,,,,,,,sngl,resources/Empty.png,resources/DR.BMP,Door4,0.394977169,0.034246575,1,0,0,0.563,optionRight,80,8205,4,21,0,21,0,1,,,,,,,,,,,,,,,,,,,,,,,,,,,,,,,,,,,,,,,
,,,,,,,,2023-08-16_08h20.02.213,HF_wild_card,2022.2.4,MacIntel,62.5,63ef566e5460d50a368654dd,64d2fd46c836a06233681665,64dc789045749e86a8779dc4,,,,,,,decisionTrl,resources/DB.BMP,resources/DR.BMP,Door4,0.273972603,0.050228311,1,0,0,1.048,optionRight,60,8265,4,22,0,22,0,1,,,,,,,,,,,,,,,,,,,,,,,,,,,,,,,,,,,,,,,
,,,,,,,,2023-08-16_08h20.02.213,HF_wild_card,2022.2.4,MacIntel,62.5,63ef566e5460d50a368654dd,64d2fd46c836a06233681665,64dc789045749e86a8779dc4,,,,,,,decisionTrl,resources/DBN.BMP,resources/DG.BMP,Door2,-0.243150685,0.012557078,1,0,0,1.448,optionLeft,40,8305,4,23,0,23,0,1,,,,,,,,,,,,,,,,,,,,,,,,,,,,,,,,,,,,,,,
,,,,,,,,2023-08-16_08h20.02.213,HF_wild_card,2022.2.4,MacIntel,62.5,63ef566e5460d50a368654dd,64d2fd46c836a06233681665,64dc789045749e86a8779dc4,,,,,,,ctch,resources/DG.BMP,resources/DR.BMP,Door4,0.299086758,0.01826484,1,0,0,0.648,optionRight,60,8365,4,24,0,24,0,1,,,,,,,,,,,,,,,,,,,,,,,,,,,,,,,,,,,,,,,
,,,,,,,,2023-08-16_08h20.02.213,HF_wild_card,2022.2.4,MacIntel,62.5,63ef566e5460d50a368654dd,64d2fd46c836a06233681665,64dc789045749e86a8779dc4,,,,,,,decisionTrl,resources/DP.BMP,resources/DR.BMP,WildCard_NonEx,-0.312785388,-0.039954338,1,0,0,0.815,optionLeft,55,8420,4,25,0,25,0,1,,,,,,,,,,,,,,,,,,,,,,,,,,,,,,,,,,,,,,,
,,,,,,,,2023-08-16_08h20.02.213,HF_wild_card,2022.2.4,MacIntel,62.5,63ef566e5460d50a368654dd,64d2fd46c836a06233681665,64dc789045749e86a8779dc4,,,,,,,decisionTrl,resources/DBN.BMP,resources/DP.BMP,WildCard_NonEx,0.287671233,0.038812785,1,0,0,0.664,optionRight,55,8475,4,26,0,26,0,1,,,,,,,,,,,,,,,,,,,,,,,,,,,,,,,,,,,,,,,
,,,,,,,,2023-08-16_08h20.02.213,HF_wild_card,2022.2.4,MacIntel,62.5,63ef566e5460d50a368654dd,64d2fd46c836a06233681665,64dc789045749e86a8779dc4,,,,,,,sngl,resources/Empty.png,resources/DBN.BMP,Door2,0.140410959,0.046803653,1,0,0,0.781,optionRight,40,8515,4,27,0,27,0,1,,,,,,,,,,,,,,,,,,,,,,,,,,,,,,,,,,,,,,,
,,,,,,,,2023-08-16_08h20.02.213,HF_wild_card,2022.2.4,MacIntel,62.5,63ef566e5460d50a368654dd,64d2fd46c836a06233681665,64dc789045749e86a8779dc4,,,,,,,decisionTrl,resources/DG.BMP,resources/DBN.BMP,Door1,-0.372146119,-0.029680365,1,0,0,1.449,optionLeft,30,8545,4,28,0,28,0,1,,,,,,,,,,,,,,,,,,,,,,,,,,,,,,,,,,,,,,,
,,,,,,,,2023-08-16_08h20.02.213,HF_wild_card,2022.2.4,MacIntel,62.5,63ef566e5460d50a368654dd,64d2fd46c836a06233681665,64dc789045749e86a8779dc4,,,,,,,sngl,resources/Empty.png,resources/DB.BMP,Door3,0.288812785,0.017123288,1,0,0,0.631,optionRight,70,8615,4,29,0,29,0,1,,,,,,,,,,,,,,,,,,,,,,,,,,,,,,,,,,,,,,,
,,,,,,,,2023-08-16_08h20.02.213,HF_wild_card,2022.2.4,MacIntel,62.5,63ef566e5460d50a368654dd,64d2fd46c836a06233681665,64dc789045749e86a8779dc4,,,,,,,ctch,resources/DR.BMP,resources/DG.BMP,Door4,-0.324200913,-0.019406393,1,0,0,0.731,optionLeft,80,8695,4,30,0,30,0,1,,,,,,,,,,,,,,,,,,,,,,,,,,,,,,,,,,,,,,,
,,,,,,,,2023-08-16_08h20.02.213,HF_wild_card,2022.2.4,MacIntel,62.5,63ef566e5460d50a368654dd,64d2fd46c836a06233681665,64dc789045749e86a8779dc4,,,,,,,decisionTrl,resources/DB.BMP,resources/DP.BMP,Door3,-0.305936073,0.01369863,1,0,0,1.881,optionLeft,70,8765,4,31,0,31,0,1,,,,,,,,,,,,,,,,,,,,,,,,,,,,,,,,,,,,,,,
,,,,,,,,2023-08-16_08h20.02.213,HF_wild_card,2022.2.4,MacIntel,62.5,63ef566e5460d50a368654dd,64d2fd46c836a06233681665,64dc789045749e86a8779dc4,,,,,,,decisionTrl,resources/DBN.BMP,resources/DG.BMP,Door2,-0.2043379,-0.025114155,1,0,0,1.882,optionLeft,40,8805,4,32,0,32,0,1,,,,,,,,,,,,,,,,,,,,,,,,,,,,,,,,,,,,,,,
,,,,,,,,2023-08-16_08h20.02.213,HF_wild_card,2022.2.4,MacIntel,62.5,63ef566e5460d50a368654dd,64d2fd46c836a06233681665,64dc789045749e86a8779dc4,,,,,,,decisionTrl,resources/DP.BMP,resources/DBN.BMP,WildCard_NonEx,-0.27739726,-0.019406393,1,0,0,0.682,optionLeft,45,8850,4,33,0,33,0,1,,,,,,,,,,,,,,,,,,,,,,,,,,,,,,,,,,,,,,,
,,,,,,,,2023-08-16_08h20.02.213,HF_wild_card,2022.2.4,MacIntel,62.5,63ef566e5460d50a368654dd,64d2fd46c836a06233681665,64dc789045749e86a8779dc4,,,,,,,decisionTrl,resources/DP.BMP,resources/DB.BMP,WildCard_NonEx,-0.288812785,-0.006849315,1,0,0,0.731,optionLeft,45,8895,4,34,0,34,0,1,,,,,,,,,,,,,,,,,,,,,,,,,,,,,,,,,,,,,,,
,,,,,,,,2023-08-16_08h20.02.213,HF_wild_card,2022.2.4,MacIntel,62.5,63ef566e5460d50a368654dd,64d2fd46c836a06233681665,64dc789045749e86a8779dc4,,,,,,,decisionTrl,resources/DR.BMP,resources/DP.BMP,Door4,-0.386986301,0.011415525,1,0,0,1.331,optionLeft,60,8955,4,35,0,35,0,1,,,,,,,,,,,,,,,,,,,,,,,,,,,,,,,,,,,,,,,
,,,,,,,,2023-08-16_08h20.02.213,HF_wild_card,2022.2.4,MacIntel,62.5,63ef566e5460d50a368654dd,64d2fd46c836a06233681665,64dc789045749e86a8779dc4,,,,,,,ctch,resources/DBN.BMP,resources/DB.BMP,Door3,0.405251142,0.156392694,1,0,0,2.781,optionRight,70,9025,4,36,0,36,0,1,,,,,,,,,,,,,,,,,,,,,,,,,,,,,,,,,,,,,,,
,,,,,,,,2023-08-16_08h20.02.213,HF_wild_card,2022.2.4,MacIntel,62.5,63ef566e5460d50a368654dd,64d2fd46c836a06233681665,64dc789045749e86a8779dc4,,,,,,,decisionTrl,resources/DB.BMP,resources/DR.BMP,Door4,0.414383562,0.151826484,1,0,0,0.699,optionRight,80,9105,4,37,0,37,0,1,,,,,,,,,,,,,,,,,,,,,,,,,,,,,,,,,,,,,,,
,,,,,,,,2023-08-16_08h20.02.213,HF_wild_card,2022.2.4,MacIntel,62.5,63ef566e5460d50a368654dd,64d2fd46c836a06233681665,64dc789045749e86a8779dc4,,,,,,,decisionTrl,resources/DG.BMP,resources/DBN.BMP,Door1,-0.157534247,0.074200913,1,0,0,3.898,optionLeft,30,9135,4,38,0,38,0,1,,,,,,,,,,,,,,,,,,,,,,,,,,,,,,,,,,,,,,,
,,,,,,,,2023-08-16_08h20.02.213,HF_wild_card,2022.2.4,MacIntel,62.5,63ef566e5460d50a368654dd,64d2fd46c836a06233681665,64dc789045749e86a8779dc4,,,,,,,sngl,resources/Empty.png,resources/DP.BMP,WildCard_NonEx,0.341324201,0.067351598,1,0,0,0.592,optionRight,45,9180,4,39,0,39,0,1,,,,,,,,,,,,,,,,,,,,,,,,,,,,,,,,,,,,,,,
,,,,,,,,2023-08-16_08h20.02.213,HF_wild_card,2022.2.4,MacIntel,62.5,63ef566e5460d50a368654dd,64d2fd46c836a06233681665,64dc789045749e86a8779dc4,,,,,,,ctch,resources/DB.BMP,resources/DBN.BMP,Door3,-0.320776256,0.014840183,1,0,0,1.647,optionLeft,70,9250,4,40,0,40,0,1,,,,,,,,,,,,,,,,,,,,,,,,,,,,,,,,,,,,,,,
,,,,,,,,2023-08-16_08h20.02.213,HF_wild_card,2022.2.4,MacIntel,62.5,63ef566e5460d50a368654dd,64d2fd46c836a06233681665,64dc789045749e86a8779dc4,,,,,,,decisionTrl,resources/DB.BMP,resources/DR.BMP,Door4,0.328767123,0.017123288,1,0,0,0.631,optionRight,80,9330,4,41,0,41,0,1,,,,,,,,,,,,,,,,,,,,,,,,,,,,,,,,,,,,,,,
,,,,,,,,2023-08-16_08h20.02.213,HF_wild_card,2022.2.4,MacIntel,62.5,63ef566e5460d50a368654dd,64d2fd46c836a06233681665,64dc789045749e86a8779dc4,,,,,,,ctch,resources/DBN.BMP,resources/DB.BMP,Door3,0.251141553,0.140410959,1,0,0,1.314,optionRight,70,9400,4,42,0,42,0,1,,,,,,,,,,,,,,,,,,,,,,,,,,,,,,,,,,,,,,,
,,,,,,,,2023-08-16_08h20.02.213,HF_wild_card,2022.2.4,MacIntel,62.5,63ef566e5460d50a368654dd,64d2fd46c836a06233681665,64dc789045749e86a8779dc4,,,,,,,decisionTrl,resources/DBN.BMP,resources/DG.BMP,Door2,-0.262557078,0.043378995,1,0,0,1.814,optionLeft,20,9420,4,43,0,43,0,1,,,,,,,,,,,,,,,,,,,,,,,,,,,,,,,,,,,,,,,
,,,,,,,,2023-08-16_08h20.02.213,HF_wild_card,2022.2.4,MacIntel,62.5,63ef566e5460d50a368654dd,64d2fd46c836a06233681665,64dc789045749e86a8779dc4,,,,,,,,,,,,,,,,,,,,,,,,,,3,0,3,0,1,,,,,,,,,,,,,,,,,,,,,,,,,,,,,,,,,,
,,,,,,,,2023-08-16_08h20.02.213,HF_wild_card,2022.2.4,MacIntel,62.5,63ef566e5460d50a368654dd,64d2fd46c836a06233681665,64dc789045749e86a8779dc4,,,,,,,decisionTrl,resources/DB.BMP,resources/DR.BMP,Door4,0.221461187,0.02283105,1,0,0,1.126,optionRight,60,9480,5,0,0,0,0,1,,,,,,,,,,,,,,,,,,,,,,,,,,,,,,,,,,,,,,,
,,,,,,,,2023-08-16_08h20.02.213,HF_wild_card,2022.2.4,MacIntel,62.5,63ef566e5460d50a368654dd,64d2fd46c836a06233681665,64dc789045749e86a8779dc4,,,,,,,sngl,resources/Empty.png,resources/DR.BMP,Door4,0.247716895,0.037671233,1,0,0,0.647,optionRight,60,9540,5,1,0,1,0,1,,,,,,,,,,,,,,,,,,,,,,,,,,,,,,,,,,,,,,,
,,,,,,,,2023-08-16_08h20.02.213,HF_wild_card,2022.2.4,MacIntel,62.5,63ef566e5460d50a368654dd,64d2fd46c836a06233681665,64dc789045749e86a8779dc4,,,,,,,decisionTrl,resources/DB.BMP,resources/DR.BMP,Door3,-0.202054795,0.079908676,1,0,0,1.031,optionLeft,70,9610,5,2,0,2,0,1,,,,,,,,,,,,,,,,,,,,,,,,,,,,,,,,,,,,,,,
,,,,,,,,2023-08-16_08h20.02.213,HF_wild_card,2022.2.4,MacIntel,62.5,63ef566e5460d50a368654dd,64d2fd46c836a06233681665,64dc789045749e86a8779dc4,,,,,,,decisionTrl,resources/DB.BMP,resources/DR.BMP,Door3,-0.26369863,-0.049086758,1,0,0,0.632,optionLeft,70,9680,5,3,0,3,0,1,,,,,,,,,,,,,,,,,,,,,,,,,,,,,,,,,,,,,,,
,,,,,,,,2023-08-16_08h20.02.213,HF_wild_card,2022.2.4,MacIntel,62.5,63ef566e5460d50a368654dd,64d2fd46c836a06233681665,64dc789045749e86a8779dc4,,,,,,,decisionTrl,resources/DR.BMP,resources/DB.BMP,Door3,0.216894977,0.038812785,1,0,0,0.915,optionRight,70,9750,5,4,0,4,0,1,,,,,,,,,,,,,,,,,,,,,,,,,,,,,,,,,,,,,,,
,,,,,,,,2023-08-16_08h20.02.213,HF_wild_card,2022.2.4,MacIntel,62.5,63ef566e5460d50a368654dd,64d2fd46c836a06233681665,64dc789045749e86a8779dc4,,,,,,,sngl,resources/DG.BMP,resources/Empty.png,Door1,-0.308219178,-0.113013699,1,0,0,0.731,optionLeft,30,9780,5,5,0,5,0,1,,,,,,,,,,,,,,,,,,,,,,,,,,,,,,,,,,,,,,,
,,,,,,,,2023-08-16_08h20.02.213,HF_wild_card,2022.2.4,MacIntel,62.5,63ef566e5460d50a368654dd,64d2fd46c836a06233681665,64dc789045749e86a8779dc4,,,,,,,ctch,resources/DB.BMP,resources/DBN.BMP,Door3,-0.407534247,-0.012557078,1,0,0,1.495,optionLeft,70,9850,5,6,0,6,0,1,,,,,,,,,,,,,,,,,,,,,,,,,,,,,,,,,,,,,,,
,,,,,,,,2023-08-16_08h20.02.213,HF_wild_card,2022.2.4,MacIntel,62.5,63ef566e5460d50a368654dd,64d2fd46c836a06233681665,64dc789045749e86a8779dc4,,,,,,,sngl,resources/Empty.png,resources/DP.BMP,WildCard_NonEx,0.271689498,0.058219178,1,0,0,0.664,optionRight,45,9895,5,7,0,7,0,1,,,,,,,,,,,,,,,,,,,,,,,,,,,,,,,,,,,,,,,
,,,,,,,,2023-08-16_08h20.02.213,HF_wild_card,2022.2.4,MacIntel,62.5,63ef566e5460d50a368654dd,64d2fd46c836a06233681665,64dc789045749e86a8779dc4,,,,,,,ctch,resources/DB.BMP,resources/DBN.BMP,Door3,-0.337899543,-0.020547945,1,0,0,1.781,optionLeft,70,9965,5,8,0,8,0,1,,,,,,,,,,,,,,,,,,,,,,,,,,,,,,,,,,,,,,,
,,,,,,,,2023-08-16_08h20.02.213,HF_wild_card,2022.2.4,MacIntel,62.5,63ef566e5460d50a368654dd,64d2fd46c836a06233681665,64dc789045749e86a8779dc4,,,,,,,decisionTrl,resources/DB.BMP,resources/DR.BMP,Door4,0.220319635,0.134703196,1,0,0,2.014,optionRight,80,10045,5,9,0,9,0,1,,,,,,,,,,,,,,,,,,,,,,,,,,,,,,,,,,,,,,,
,,,,,,,,2023-08-16_08h20.02.213,HF_wild_card,2022.2.4,MacIntel,62.5,63ef566e5460d50a368654dd,64d2fd46c836a06233681665,64dc789045749e86a8779dc4,,,,,,,ctch,resources/DBN.BMP,resources/DB.BMP,Door3,0.320776256,0.212328767,1,0,0,0.981,optionRight,70,10115,5,10,0,10,0,1,,,,,,,,,,,,,,,,,,,,,,,,,,,,,,,,,,,,,,,
,,,,,,,,2023-08-16_08h20.02.213,HF_wild_card,2022.2.4,MacIntel,62.5,63ef566e5460d50a368654dd,64d2fd46c836a06233681665,64dc789045749e86a8779dc4,,,,,,,decisionTrl,resources/DR.BMP,resources/DP.BMP,Door4,-0.229452055,-0.044520548,1,0,0,1.681,optionLeft,60,10175,5,11,0,11,0,1,,,,,,,,,,,,,,,,,,,,,,,,,,,,,,,,,,,,,,,
,,,,,,,,2023-08-16_08h20.02.213,HF_wild_card,2022.2.4,MacIntel,62.5,63ef566e5460d50a368654dd,64d2fd46c836a06233681665,64dc789045749e86a8779dc4,,,,,,,decisionTrl,resources/DBN.BMP,resources/DG.BMP,Door1,0.278538813,0.098173516,1,0,0,1.381,optionRight,30,10205,5,12,0,12,0,1,,,,,,,,,,,,,,,,,,,,,,,,,,,,,,,,,,,,,,,
,,,,,,,,2023-08-16_08h20.02.213,HF_wild_card,2022.2.4,MacIntel,62.5,63ef566e5460d50a368654dd,64d2fd46c836a06233681665,64dc789045749e86a8779dc4,,,,,,,sngl,resources/Empty.png,resources/DBN.BMP,Door2,0.141552511,0.077625571,1,0,0,0.731,optionRight,20,10225,5,13,0,13,0,1,,,,,,,,,,,,,,,,,,,,,,,,,,,,,,,,,,,,,,,
,,,,,,,,2023-08-16_08h20.02.213,HF_wild_card,2022.2.4,MacIntel,62.5,63ef566e5460d50a368654dd,64d2fd46c836a06233681665,64dc789045749e86a8779dc4,,,,,,,decisionTrl,resources/DR.BMP,resources/DB.BMP,Door4,-0.308219178,0.054794521,1,0,0,1.314,optionLeft,80,10305,5,14,0,14,0,1,,,,,,,,,,,,,,,,,,,,,,,,,,,,,,,,,,,,,,,
,,,,,,,,2023-08-16_08h20.02.213,HF_wild_card,2022.2.4,MacIntel,62.5,63ef566e5460d50a368654dd,64d2fd46c836a06233681665,64dc789045749e86a8779dc4,,,,,,,decisionTrl,resources/DP.BMP,resources/DB.BMP,Door3,0.232876712,0.166666667,1,0,0,1.497,optionRight,70,10375,5,15,0,15,0,1,,,,,,,,,,,,,,,,,,,,,,,,,,,,,,,,,,,,,,,
,,,,,,,,2023-08-16_08h20.02.213,HF_wild_card,2022.2.4,MacIntel,62.5,63ef566e5460d50a368654dd,64d2fd46c836a06233681665,64dc789045749e86a8779dc4,,,,,,,decisionTrl,resources/DBN.BMP,resources/DG.BMP,Door1,0.305936073,0.160958904,1,0,0,1.164,optionRight,30,10405,5,16,0,16,0,1,,,,,,,,,,,,,,,,,,,,,,,,,,,,,,,,,,,,,,,
,,,,,,,,2023-08-16_08h20.02.213,HF_wild_card,2022.2.4,MacIntel,62.5,63ef566e5460d50a368654dd,64d2fd46c836a06233681665,64dc789045749e86a8779dc4,,,,,,,ctch,resources/DR.BMP,resources/DG.BMP,Door4,-0.190639269,-0.038812785,1,0,0,0.998,optionLeft,80,10485,5,17,0,17,0,1,,,,,,,,,,,,,,,,,,,,,,,,,,,,,,,,,,,,,,,
,,,,,,,,2023-08-16_08h20.02.213,HF_wild_card,2022.2.4,MacIntel,62.5,63ef566e5460d50a368654dd,64d2fd46c836a06233681665,64dc789045749e86a8779dc4,,,,,,,decisionTrl,resources/DR.BMP,resources/DB.BMP,Door4,-0.275114155,0.023972603,1,0,0,0.881,optionLeft,80,10565,5,18,0,18,0,1,,,,,,,,,,,,,,,,,,,,,,,,,,,,,,,,,,,,,,,
,,,,,,,,2023-08-16_08h20.02.213,HF_wild_card,2022.2.4,MacIntel,62.5,63ef566e5460d50a368654dd,64d2fd46c836a06233681665,64dc789045749e86a8779dc4,,,,,,,sngl,resources/Empty.png,resources/DB.BMP,Door3,0.318493151,0.113013699,1,0,0,1.28,optionRight,70,10635,5,19,0,19,0,1,,,,,,,,,,,,,,,,,,,,,,,,,,,,,,,,,,,,,,,
,,,,,,,,2023-08-16_08h20.02.213,HF_wild_card,2022.2.4,MacIntel,62.5,63ef566e5460d50a368654dd,64d2fd46c836a06233681665,64dc789045749e86a8779dc4,,,,,,,ctch,resources/DBN.BMP,resources/DB.BMP,Door3,0.289954338,0.079908676,1,0,0,3.631,optionRight,70,10705,5,20,0,20,0,1,,,,,,,,,,,,,,,,,,,,,,,,,,,,,,,,,,,,,,,
,,,,,,,,2023-08-16_08h20.02.213,HF_wild_card,2022.2.4,MacIntel,62.5,63ef566e5460d50a368654dd,64d2fd46c836a06233681665,64dc789045749e86a8779dc4,,,,,,,decisionTrl,resources/DG.BMP,resources/DBN.BMP,Door1,-0.505707763,0.033105023,1,0,0,1.714,optionLeft,30,10735,5,21,0,21,0,1,,,,,,,,,,,,,,,,,,,,,,,,,,,,,,,,,,,,,,,
,,,,,,,,2023-08-16_08h20.02.213,HF_wild_card,2022.2.4,MacIntel,62.5,63ef566e5460d50a368654dd,64d2fd46c836a06233681665,64dc789045749e86a8779dc4,,,,,,,sngl,resources/DB.BMP,resources/Empty.png,Door3,-0.2956621,-0.01369863,1,0,0,0.882,optionLeft,70,10805,5,22,0,22,0,1,,,,,,,,,,,,,,,,,,,,,,,,,,,,,,,,,,,,,,,
,,,,,,,,2023-08-16_08h20.02.213,HF_wild_card,2022.2.4,MacIntel,62.5,63ef566e5460d50a368654dd,64d2fd46c836a06233681665,64dc789045749e86a8779dc4,,,,,,,sngl,resources/DBN.BMP,resources/Empty.png,Door2,-0.300228311,0.030821918,1,0,0,0.965,optionLeft,40,10845,5,23,0,23,0,1,,,,,,,,,,,,,,,,,,,,,,,,,,,,,,,,,,,,,,,
,,,,,,,,2023-08-16_08h20.02.213,HF_wild_card,2022.2.4,MacIntel,62.5,63ef566e5460d50a368654dd,64d2fd46c836a06233681665,64dc789045749e86a8779dc4,,,,,,,decisionTrl,resources/DB.BMP,resources/DP.BMP,WildCard_NonEx,0.331050228,0.087899543,1,0,0,0.747,optionRight,45,10890,5,24,0,24,0,1,,,,,,,,,,,,,,,,,,,,,,,,,,,,,,,,,,,,,,,
,,,,,,,,2023-08-16_08h20.02.213,HF_wild_card,2022.2.4,MacIntel,62.5,63ef566e5460d50a368654dd,64d2fd46c836a06233681665,64dc789045749e86a8779dc4,,,,,,,decisionTrl,resources/DR.BMP,resources/DB.BMP,Door4,-0.265981735,0.011415525,1,0,0,1.082,optionLeft,80,10970,5,25,0,25,0,1,,,,,,,,,,,,,,,,,,,,,,,,,,,,,,,,,,,,,,,
,,,,,,,,2023-08-16_08h20.02.213,HF_wild_card,2022.2.4,MacIntel,62.5,63ef566e5460d50a368654dd,64d2fd46c836a06233681665,64dc789045749e86a8779dc4,,,,,,,sngl,resources/DP.BMP,resources/Empty.png,WildCard_NonEx,-0.220319635,0.025114155,1,0,0,0.698,optionLeft,55,11025,5,26,0,26,0,1,,,,,,,,,,,,,,,,,,,,,,,,,,,,,,,,,,,,,,,
,,,,,,,,2023-08-16_08h20.02.213,HF_wild_card,2022.2.4,MacIntel,62.5,63ef566e5460d50a368654dd,64d2fd46c836a06233681665,64dc789045749e86a8779dc4,,,,,,,sngl,resources/DR.BMP,resources/Empty.png,Door4,-0.257990868,-0.015981735,1,0,0,0.698,optionLeft,80,11105,5,27,0,27,0,1,,,,,,,,,,,,,,,,,,,,,,,,,,,,,,,,,,,,,,,
,,,,,,,,2023-08-16_08h20.02.213,HF_wild_card,2022.2.4,MacIntel,62.5,63ef566e5460d50a368654dd,64d2fd46c836a06233681665,64dc789045749e86a8779dc4,,,,,,,decisionTrl,resources/DG.BMP,resources/DBN.BMP,Door1,-0.438356164,-0.03652968,1,0,0,1.131,optionLeft,30,11135,5,28,0,28,0,1,,,,,,,,,,,,,,,,,,,,,,,,,,,,,,,,,,,,,,,
,,,,,,,,2023-08-16_08h20.02.213,HF_wild_card,2022.2.4,MacIntel,62.5,63ef566e5460d50a368654dd,64d2fd46c836a06233681665,64dc789045749e86a8779dc4,,,,,,,ctch,resources/DR.BMP,resources/DG.BMP,Door4,-0.428082192,0.02739726,1,0,0,1.231,optionLeft,60,11195,5,29,0,29,0,1,,,,,,,,,,,,,,,,,,,,,,,,,,,,,,,,,,,,,,,
,,,,,,,,2023-08-16_08h20.02.213,HF_wild_card,2022.2.4,MacIntel,62.5,63ef566e5460d50a368654dd,64d2fd46c836a06233681665,64dc789045749e86a8779dc4,,,,,,,ctch,resources/DG.BMP,resources/DR.BMP,Door4,0.335616438,0.134703196,1,0,0,0.913,optionRight,80,11275,5,30,0,30,0,1,,,,,,,,,,,,,,,,,,,,,,,,,,,,,,,,,,,,,,,
,,,,,,,,2023-08-16_08h20.02.213,HF_wild_card,2022.2.4,MacIntel,62.5,63ef566e5460d50a368654dd,64d2fd46c836a06233681665,64dc789045749e86a8779dc4,,,,,,,decisionTrl,resources/DG.BMP,resources/DBN.BMP,Door1,-0.422374429,-0.03196347,1,0,0,0.965,optionLeft,30,11305,5,31,0,31,0,1,,,,,,,,,,,,,,,,,,,,,,,,,,,,,,,,,,,,,,,
,,,,,,,,2023-08-16_08h20.02.213,HF_wild_card,2022.2.4,MacIntel,62.5,63ef566e5460d50a368654dd,64d2fd46c836a06233681665,64dc789045749e86a8779dc4,,,,,,,decisionTrl,resources/DBN.BMP,resources/DP.BMP,WildCard_NonEx,0.252283105,0.084474886,1,0,0,1.048,optionRight,55,11360,5,32,0,32,0,1,,,,,,,,,,,,,,,,,,,,,,,,,,,,,,,,,,,,,,,
,,,,,,,,2023-08-16_08h20.02.213,HF_wild_card,2022.2.4,MacIntel,62.5,63ef566e5460d50a368654dd,64d2fd46c836a06233681665,64dc789045749e86a8779dc4,,,,,,,decisionTrl,resources/DBN.BMP,resources/DG.BMP,Door1,0.305936073,0.059360731,1,0,0,0.748,optionRight,30,11390,5,33,0,33,0,1,,,,,,,,,,,,,,,,,,,,,,,,,,,,,,,,,,,,,,,
,,,,,,,,2023-08-16_08h20.02.213,HF_wild_card,2022.2.4,MacIntel,62.5,63ef566e5460d50a368654dd,64d2fd46c836a06233681665,64dc789045749e86a8779dc4,,,,,,,sngl,resources/DP.BMP,resources/Empty.png,WildCard_NonEx,-0.389269406,0.007990868,1,0,0,0.781,optionLeft,45,11435,5,34,0,34,0,1,,,,,,,,,,,,,,,,,,,,,,,,,,,,,,,,,,,,,,,
,,,,,,,,2023-08-16_08h20.02.213,HF_wild_card,2022.2.4,MacIntel,62.5,63ef566e5460d50a368654dd,64d2fd46c836a06233681665,64dc789045749e86a8779dc4,,,,,,,decisionTrl,resources/DBN.BMP,resources/DG.BMP,Door1,0.309360731,0.164383562,1,0,0,0.698,optionRight,30,11465,5,35,0,35,0,1,,,,,,,,,,,,,,,,,,,,,,,,,,,,,,,,,,,,,,,
,,,,,,,,2023-08-16_08h20.02.213,HF_wild_card,2022.2.4,MacIntel,62.5,63ef566e5460d50a368654dd,64d2fd46c836a06233681665,64dc789045749e86a8779dc4,,,,,,,decisionTrl,resources/DP.BMP,resources/DG.BMP,WildCard_NonEx,-0.333333333,-0.039954338,1,0,0,2.779,optionLeft,45,11510,5,36,0,36,0,1,,,,,,,,,,,,,,,,,,,,,,,,,,,,,,,,,,,,,,,
,,,,,,,,2023-08-16_08h20.02.213,HF_wild_card,2022.2.4,MacIntel,62.5,63ef566e5460d50a368654dd,64d2fd46c836a06233681665,64dc789045749e86a8779dc4,,,,,,,decisionTrl,resources/DP.BMP,resources/DR.BMP,Door4,0.300228311,0.134703196,1,0,0,0.963,optionRight,60,11570,5,37,0,37,0,1,,,,,,,,,,,,,,,,,,,,,,,,,,,,,,,,,,,,,,,
,,,,,,,,2023-08-16_08h20.02.213,HF_wild_card,2022.2.4,MacIntel,62.5,63ef566e5460d50a368654dd,64d2fd46c836a06233681665,64dc789045749e86a8779dc4,,,,,,,sngl,resources/Empty.png,resources/DG.BMP,Door1,0.192922374,0.035388128,1,0,0,0.714,optionRight,30,11600,5,38,0,38,0,1,,,,,,,,,,,,,,,,,,,,,,,,,,,,,,,,,,,,,,,
,,,,,,,,2023-08-16_08h20.02.213,HF_wild_card,2022.2.4,MacIntel,62.5,63ef566e5460d50a368654dd,64d2fd46c836a06233681665,64dc789045749e86a8779dc4,,,,,,,sngl,resources/Empty.png,resources/DP.BMP,WildCard_NonEx,0.300228311,0.053652968,1,0,0,0.715,optionRight,55,11655,5,39,0,39,0,1,,,,,,,,,,,,,,,,,,,,,,,,,,,,,,,,,,,,,,,
,,,,,,,,2023-08-16_08h20.02.213,HF_wild_card,2022.2.4,MacIntel,62.5,63ef566e5460d50a368654dd,64d2fd46c836a06233681665,64dc789045749e86a8779dc4,,,,,,,decisionTrl,resources/DP.BMP,resources/DBN.BMP,WildCard_NonEx,-0.336757991,-0.066210046,1,0,0,1.348,optionLeft,45,11700,5,40,0,40,0,1,,,,,,,,,,,,,,,,,,,,,,,,,,,,,,,,,,,,,,,
,,,,,,,,2023-08-16_08h20.02.213,HF_wild_card,2022.2.4,MacIntel,62.5,63ef566e5460d50a368654dd,64d2fd46c836a06233681665,64dc789045749e86a8779dc4,,,,,,,decisionTrl,resources/DG.BMP,resources/DP.BMP,WildCard_NonEx,0.327625571,0.181506849,1,0,0,1.314,optionRight,55,11755,5,41,0,41,0,1,,,,,,,,,,,,,,,,,,,,,,,,,,,,,,,,,,,,,,,
,,,,,,,,2023-08-16_08h20.02.213,HF_wild_card,2022.2.4,MacIntel,62.5,63ef566e5460d50a368654dd,64d2fd46c836a06233681665,64dc789045749e86a8779dc4,,,,,,,decisionTrl,resources/DG.BMP,resources/DBN.BMP,Door1,-0.313926941,0.050228311,1,0,0,0.948,optionLeft,30,11785,5,42,0,42,0,1,,,,,,,,,,,,,,,,,,,,,,,,,,,,,,,,,,,,,,,
,,,,,,,,2023-08-16_08h20.02.213,HF_wild_card,2022.2.4,MacIntel,62.5,63ef566e5460d50a368654dd,64d2fd46c836a06233681665,64dc789045749e86a8779dc4,,,,,,,ctch,resources/DG.BMP,resources/DR.BMP,Door4,0.253424658,0.091324201,1,0,0,0.979,optionRight,60,11845,5,43,0,43,0,1,,,,,,,,,,,,,,,,,,,,,,,,,,,,,,,,,,,,,,,
,,,,,,,,2023-08-16_08h20.02.213,HF_wild_card,2022.2.4,MacIntel,62.5,63ef566e5460d50a368654dd,64d2fd46c836a06233681665,64dc789045749e86a8779dc4,,,,,,,,,,,,,,,,,,,,,,,,,,4,0,4,0,1,,,,,,,,,,,,,,,,,,,,,,,,,,,,,,,,,,
,,,,,,,,2023-08-16_08h20.02.213,HF_wild_card,2022.2.4,MacIntel,62.5,63ef566e5460d50a368654dd,64d2fd46c836a06233681665,64dc789045749e86a8779dc4,,,,,,,ctch,resources/DG.BMP,resources/DR.BMP,Door4,0.350456621,0.029680365,1,0,0,4.759,optionRight,60,11905,6,0,0,0,0,1,,,,,,,,,,,,,,,,,,,,,,,,,,,,,,,,,,,,,,,
,,,,,,,,2023-08-16_08h20.02.213,HF_wild_card,2022.2.4,MacIntel,62.5,63ef566e5460d50a368654dd,64d2fd46c836a06233681665,64dc789045749e86a8779dc4,,,,,,,sngl,resources/Empty.png,resources/DBN.BMP,Door2,0.251141553,0.075342466,1,0,0,0.697,optionRight,40,11945,6,1,0,1,0,1,,,,,,,,,,,,,,,,,,,,,,,,,,,,,,,,,,,,,,,
,,,,,,,,2023-08-16_08h20.02.213,HF_wild_card,2022.2.4,MacIntel,62.5,63ef566e5460d50a368654dd,64d2fd46c836a06233681665,64dc789045749e86a8779dc4,,,,,,,decisionTrl,resources/DB.BMP,resources/DR.BMP,Door4,0.296803653,0.160958904,1,0,0,2.198,optionRight,60,12005,6,2,0,2,0,1,,,,,,,,,,,,,,,,,,,,,,,,,,,,,,,,,,,,,,,
,,,,,,,,2023-08-16_08h20.02.213,HF_wild_card,2022.2.4,MacIntel,62.5,63ef566e5460d50a368654dd,64d2fd46c836a06233681665,64dc789045749e86a8779dc4,,,,,,,sngl,resources/Empty.png,resources/DP.BMP,WildCard_NonEx,0.230593607,0.085616438,1,0,0,0.581,optionRight,45,12050,6,3,0,3,0,1,,,,,,,,,,,,,,,,,,,,,,,,,,,,,,,,,,,,,,,
,,,,,,,,2023-08-16_08h20.02.213,HF_wild_card,2022.2.4,MacIntel,62.5,63ef566e5460d50a368654dd,64d2fd46c836a06233681665,64dc789045749e86a8779dc4,,,,,,,ctch,resources/DBN.BMP,resources/DB.BMP,Door3,0.181506849,0.111872146,1,0,0,0.997,optionRight,70,12120,6,4,0,4,0,1,,,,,,,,,,,,,,,,,,,,,,,,,,,,,,,,,,,,,,,
,,,,,,,,2023-08-16_08h20.02.213,HF_wild_card,2022.2.4,MacIntel,62.5,63ef566e5460d50a368654dd,64d2fd46c836a06233681665,64dc789045749e86a8779dc4,,,,,,,sngl,resources/DB.BMP,resources/Empty.png,Door3,-0.246575342,-0.046803653,1,0,0,0.596,optionLeft,70,12190,6,5,0,5,0,1,,,,,,,,,,,,,,,,,,,,,,,,,,,,,,,,,,,,,,,
,,,,,,,,2023-08-16_08h20.02.213,HF_wild_card,2022.2.4,MacIntel,62.5,63ef566e5460d50a368654dd,64d2fd46c836a06233681665,64dc789045749e86a8779dc4,,,,,,,decisionTrl,resources/DB.BMP,resources/DR.BMP,Door3,-0.313926941,-0.057077626,1,0,0,0.698,optionLeft,70,12260,6,6,0,6,0,1,,,,,,,,,,,,,,,,,,,,,,,,,,,,,,,,,,,,,,,
,,,,,,,,2023-08-16_08h20.02.213,HF_wild_card,2022.2.4,MacIntel,62.5,63ef566e5460d50a368654dd,64d2fd46c836a06233681665,64dc789045749e86a8779dc4,,,,,,,sngl,resources/Empty.png,resources/DB.BMP,Door3,0.239726027,0.034246575,1,0,0,0.614,optionRight,70,12330,6,7,0,7,0,1,,,,,,,,,,,,,,,,,,,,,,,,,,,,,,,,,,,,,,,
,,,,,,,,2023-08-16_08h20.02.213,HF_wild_card,2022.2.4,MacIntel,62.5,63ef566e5460d50a368654dd,64d2fd46c836a06233681665,64dc789045749e86a8779dc4,,,,,,,decisionTrl,resources/DG.BMP,resources/DBN.BMP,Door1,-0.21803653,-0.053652968,1,0,0,0.697,optionLeft,30,12360,6,8,0,8,0,1,,,,,,,,,,,,,,,,,,,,,,,,,,,,,,,,,,,,,,,
,,,,,,,,2023-08-16_08h20.02.213,HF_wild_card,2022.2.4,MacIntel,62.5,63ef566e5460d50a368654dd,64d2fd46c836a06233681665,64dc789045749e86a8779dc4,,,,,,,ctch,resources/DB.BMP,resources/DBN.BMP,Door3,-0.311643836,-0.02739726,1,0,0,0.731,optionLeft,70,12430,6,9,0,9,0,1,,,,,,,,,,,,,,,,,,,,,,,,,,,,,,,,,,,,,,,
,,,,,,,,2023-08-16_08h20.02.213,HF_wild_card,2022.2.4,MacIntel,62.5,63ef566e5460d50a368654dd,64d2fd46c836a06233681665,64dc789045749e86a8779dc4,,,,,,,ctch,resources/DBN.BMP,resources/DB.BMP,Door3,0.329908676,0.037671233,1,0,0,1.497,optionRight,70,12500,6,10,0,10,0,1,,,,,,,,,,,,,,,,,,,,,,,,,,,,,,,,,,,,,,,
,,,,,,,,2023-08-16_08h20.02.213,HF_wild_card,2022.2.4,MacIntel,62.5,63ef566e5460d50a368654dd,64d2fd46c836a06233681665,64dc789045749e86a8779dc4,,,,,,,sngl,resources/Empty.png,resources/DG.BMP,Door1,0.264840183,0.053652968,1,0,0,0.715,optionRight,30,12530,6,11,0,11,0,1,,,,,,,,,,,,,,,,,,,,,,,,,,,,,,,,,,,,,,,
,,,,,,,,2023-08-16_08h20.02.213,HF_wild_card,2022.2.4,MacIntel,62.5,63ef566e5460d50a368654dd,64d2fd46c836a06233681665,64dc789045749e86a8779dc4,,,,,,,decisionTrl,resources/DBN.BMP,resources/DG.BMP,Door1,0.317351598,0.099315068,1,0,0,0.898,optionRight,30,12560,6,12,0,12,0,1,,,,,,,,,,,,,,,,,,,,,,,,,,,,,,,,,,,,,,,
,,,,,,,,2023-08-16_08h20.02.213,HF_wild_card,2022.2.4,MacIntel,62.5,63ef566e5460d50a368654dd,64d2fd46c836a06233681665,64dc789045749e86a8779dc4,,,,,,,ctch,resources/DR.BMP,resources/DG.BMP,Door4,-0.4543379,0.015981735,1,0,0,0.765,optionLeft,80,12640,6,13,0,13,0,1,,,,,,,,,,,,,,,,,,,,,,,,,,,,,,,,,,,,,,,
,,,,,,,,2023-08-16_08h20.02.213,HF_wild_card,2022.2.4,MacIntel,62.5,63ef566e5460d50a368654dd,64d2fd46c836a06233681665,64dc789045749e86a8779dc4,,,,,,,decisionTrl,resources/DB.BMP,resources/DR.BMP,Door4,0.300228311,0.076484018,1,0,0,1.115,optionRight,60,12700,6,14,0,14,0,1,,,,,,,,,,,,,,,,,,,,,,,,,,,,,,,,,,,,,,,
,,,,,,,,2023-08-16_08h20.02.213,HF_wild_card,2022.2.4,MacIntel,62.5,63ef566e5460d50a368654dd,64d2fd46c836a06233681665,64dc789045749e86a8779dc4,,,,,,,sngl,resources/DR.BMP,resources/Empty.png,Door4,-0.260273973,-0.010273973,1,0,0,0.615,optionLeft,60,12760,6,15,0,15,0,1,,,,,,,,,,,,,,,,,,,,,,,,,,,,,,,,,,,,,,,
,,,,,,,,2023-08-16_08h20.02.213,HF_wild_card,2022.2.4,MacIntel,62.5,63ef566e5460d50a368654dd,64d2fd46c836a06233681665,64dc789045749e86a8779dc4,,,,,,,decisionTrl,resources/DBN.BMP,resources/DP.BMP,WildCard_NonEx,0.235159817,0.078767123,1,0,0,0.68,optionRight,45,12805,6,16,0,16,0,1,,,,,,,,,,,,,,,,,,,,,,,,,,,,,,,,,,,,,,,
,,,,,,,,2023-08-16_08h20.02.213,HF_wild_card,2022.2.4,MacIntel,62.5,63ef566e5460d50a368654dd,64d2fd46c836a06233681665,64dc789045749e86a8779dc4,,,,,,,sngl,resources/DBN.BMP,resources/Empty.png,Door2,-0.453196347,0.093607306,1,0,0,3.731,optionLeft,20,12825,6,17,0,17,0,1,,,,,,,,,,,,,,,,,,,,,,,,,,,,,,,,,,,,,,,
,,,,,,,,2023-08-16_08h20.02.213,HF_wild_card,2022.2.4,MacIntel,62.5,63ef566e5460d50a368654dd,64d2fd46c836a06233681665,64dc789045749e86a8779dc4,,,,,,,sngl,resources/Empty.png,resources/DR.BMP,Door4,0.269406393,0.065068493,1,0,0,0.796,optionRight,80,12905,6,18,0,18,0,1,,,,,,,,,,,,,,,,,,,,,,,,,,,,,,,,,,,,,,,
,,,,,,,,2023-08-16_08h20.02.213,HF_wild_card,2022.2.4,MacIntel,62.5,63ef566e5460d50a368654dd,64d2fd46c836a06233681665,64dc789045749e86a8779dc4,,,,,,,sngl,resources/DP.BMP,resources/Empty.png,WildCard_NonEx,-0.373287671,-0.061643836,1,0,0,0.664,optionLeft,55,12960,6,19,0,19,0,1,,,,,,,,,,,,,,,,,,,,,,,,,,,,,,,,,,,,,,,
,,,,,,,,2023-08-16_08h20.02.213,HF_wild_card,2022.2.4,MacIntel,62.5,63ef566e5460d50a368654dd,64d2fd46c836a06233681665,64dc789045749e86a8779dc4,,,,,,,ctch,resources/DB.BMP,resources/DBN.BMP,Door3,-0.352739726,0.01369863,1,0,0,0.73,optionLeft,70,13030,6,20,0,20,0,1,,,,,,,,,,,,,,,,,,,,,,,,,,,,,,,,,,,,,,,
,,,,,,,,2023-08-16_08h20.02.213,HF_wild_card,2022.2.4,MacIntel,62.5,63ef566e5460d50a368654dd,64d2fd46c836a06233681665,64dc789045749e86a8779dc4,,,,,,,decisionTrl,resources/DP.BMP,resources/DBN.BMP,WildCard_NonEx,-0.331050228,-0.01369863,1,0,0,1.381,optionLeft,55,13085,6,21,0,21,0,1,,,,,,,,,,,,,,,,,,,,,,,,,,,,,,,,,,,,,,,
,,,,,,,,2023-08-16_08h20.02.213,HF_wild_card,2022.2.4,MacIntel,62.5,63ef566e5460d50a368654dd,64d2fd46c836a06233681665,64dc789045749e86a8779dc4,,,,,,,decisionTrl,resources/DBN.BMP,resources/DG.BMP,Door1,0.400684932,0.155251142,1,0,0,0.798,optionRight,30,13115,6,22,0,22,0,1,,,,,,,,,,,,,,,,,,,,,,,,,,,,,,,,,,,,,,,
,,,,,,,,2023-08-16_08h20.02.213,HF_wild_card,2022.2.4,MacIntel,62.5,63ef566e5460d50a368654dd,64d2fd46c836a06233681665,64dc789045749e86a8779dc4,,,,,,,decisionTrl,resources/DR.BMP,resources/DB.BMP,Door4,-0.334474886,0.075342466,1,0,0,1.563,optionLeft,60,13175,6,23,0,23,0,1,,,,,,,,,,,,,,,,,,,,,,,,,,,,,,,,,,,,,,,
,,,,,,,,2023-08-16_08h20.02.213,HF_wild_card,2022.2.4,MacIntel,62.5,63ef566e5460d50a368654dd,64d2fd46c836a06233681665,64dc789045749e86a8779dc4,,,,,,,sngl,resources/DG.BMP,resources/Empty.png,Door1,-0.2043379,-0.025114155,1,0,0,0.646,optionLeft,30,13205,6,24,0,24,0,1,,,,,,,,,,,,,,,,,,,,,,,,,,,,,,,,,,,,,,,
,,,,,,,,2023-08-16_08h20.02.213,HF_wild_card,2022.2.4,MacIntel,62.5,63ef566e5460d50a368654dd,64d2fd46c836a06233681665,64dc789045749e86a8779dc4,,,,,,,decisionTrl,resources/DR.BMP,resources/DB.BMP,Door4,-0.248858447,-0.054794521,1,0,0,1.231,optionLeft,60,13265,6,25,0,25,0,1,,,,,,,,,,,,,,,,,,,,,,,,,,,,,,,,,,,,,,,
,,,,,,,,2023-08-16_08h20.02.213,HF_wild_card,2022.2.4,MacIntel,62.5,63ef566e5460d50a368654dd,64d2fd46c836a06233681665,64dc789045749e86a8779dc4,,,,,,,sngl,resources/DP.BMP,resources/Empty.png,WildCard_NonEx,-0.252283105,-0.04109589,1,0,0,0.631,optionLeft,45,13310,6,26,0,26,0,1,,,,,,,,,,,,,,,,,,,,,,,,,,,,,,,,,,,,,,,
,,,,,,,,2023-08-16_08h20.02.213,HF_wild_card,2022.2.4,MacIntel,62.5,63ef566e5460d50a368654dd,64d2fd46c836a06233681665,64dc789045749e86a8779dc4,,,,,,,decisionTrl,resources/DBN.BMP,resources/DG.BMP,Door1,0.260273973,0.01826484,1,0,0,1.231,optionRight,30,13340,6,27,0,27,0,1,,,,,,,,,,,,,,,,,,,,,,,,,,,,,,,,,,,,,,,
,,,,,,,,2023-08-16_08h20.02.213,HF_wild_card,2022.2.4,MacIntel,62.5,63ef566e5460d50a368654dd,64d2fd46c836a06233681665,64dc789045749e86a8779dc4,,,,,,,sngl,resources/Empty.png,resources/DP.BMP,WildCard_NonEx,0.26826484,0.005707763,1,0,0,0.748,optionRight,55,13395,6,28,0,28,0,1,,,,,,,,,,,,,,,,,,,,,,,,,,,,,,,,,,,,,,,
,,,,,,,,2023-08-16_08h20.02.213,HF_wild_card,2022.2.4,MacIntel,62.5,63ef566e5460d50a368654dd,64d2fd46c836a06233681665,64dc789045749e86a8779dc4,,,,,,,decisionTrl,resources/DR.BMP,resources/DB.BMP,Door4,-0.230593607,0.02739726,1,0,0,1.081,optionLeft,60,13455,6,29,0,29,0,1,,,,,,,,,,,,,,,,,,,,,,,,,,,,,,,,,,,,,,,
,,,,,,,,2023-08-16_08h20.02.213,HF_wild_card,2022.2.4,MacIntel,62.5,63ef566e5460d50a368654dd,64d2fd46c836a06233681665,64dc789045749e86a8779dc4,,,,,,,decisionTrl,resources/DB.BMP,resources/DR.BMP,Door3,-0.28652968,0.025114155,1,0,0,1.298,optionLeft,70,13525,6,30,0,30,0,1,,,,,,,,,,,,,,,,,,,,,,,,,,,,,,,,,,,,,,,
,,,,,,,,2023-08-16_08h20.02.213,HF_wild_card,2022.2.4,MacIntel,62.5,63ef566e5460d50a368654dd,64d2fd46c836a06233681665,64dc789045749e86a8779dc4,,,,,,,decisionTrl,resources/DR.BMP,resources/DB.BMP,Door3,0.25456621,0.033105023,1,0,0,0.648,optionRight,70,13595,6,31,0,31,0,1,,,,,,,,,,,,,,,,,,,,,,,,,,,,,,,,,,,,,,,
,,,,,,,,2023-08-16_08h20.02.213,HF_wild_card,2022.2.4,MacIntel,62.5,63ef566e5460d50a368654dd,64d2fd46c836a06233681665,64dc789045749e86a8779dc4,,,,,,,decisionTrl,resources/DG.BMP,resources/DBN.BMP,Door1,-0.313926941,0.026255708,1,0,0,1.53,optionLeft,30,13625,6,32,0,32,0,1,,,,,,,,,,,,,,,,,,,,,,,,,,,,,,,,,,,,,,,
,,,,,,,,2023-08-16_08h20.02.213,HF_wild_card,2022.2.4,MacIntel,62.5,63ef566e5460d50a368654dd,64d2fd46c836a06233681665,64dc789045749e86a8779dc4,,,,,,,decisionTrl,resources/DG.BMP,resources/DBN.BMP,Door1,-0.337899543,0.02283105,1,0,0,0.764,optionLeft,30,13655,6,33,0,33,0,1,,,,,,,,,,,,,,,,,,,,,,,,,,,,,,,,,,,,,,,
,,,,,,,,2023-08-16_08h20.02.213,HF_wild_card,2022.2.4,MacIntel,62.5,63ef566e5460d50a368654dd,64d2fd46c836a06233681665,64dc789045749e86a8779dc4,,,,,,,ctch,resources/DR.BMP,resources/DG.BMP,Door4,-0.337899543,0.047945205,1,0,0,1.097,optionLeft,60,13715,6,34,0,34,0,1,,,,,,,,,,,,,,,,,,,,,,,,,,,,,,,,,,,,,,,
,,,,,,,,2023-08-16_08h20.02.213,HF_wild_card,2022.2.4,MacIntel,62.5,63ef566e5460d50a368654dd,64d2fd46c836a06233681665,64dc789045749e86a8779dc4,,,,,,,decisionTrl,resources/DP.BMP,resources/DB.BMP,Door3,0.197488584,0.035388128,1,0,0,0.847,optionRight,70,13785,6,35,0,35,0,1,,,,,,,,,,,,,,,,,,,,,,,,,,,,,,,,,,,,,,,
,,,,,,,,2023-08-16_08h20.02.213,HF_wild_card,2022.2.4,MacIntel,62.5,63ef566e5460d50a368654dd,64d2fd46c836a06233681665,64dc789045749e86a8779dc4,,,,,,,decisionTrl,resources/DG.BMP,resources/DP.BMP,WildCard_NonEx,0.276255708,0.067351598,1,0,0,2.463,optionRight,55,13840,6,36,0,36,0,1,,,,,,,,,,,,,,,,,,,,,,,,,,,,,,,,,,,,,,,
,,,,,,,,2023-08-16_08h20.02.213,HF_wild_card,2022.2.4,MacIntel,62.5,63ef566e5460d50a368654dd,64d2fd46c836a06233681665,64dc789045749e86a8779dc4,,,,,,,decisionTrl,resources/DB.BMP,resources/DP.BMP,Door3,-0.360730594,0.026255708,1,0,0,1.248,optionLeft,70,13910,6,37,0,37,0,1,,,,,,,,,,,,,,,,,,,,,,,,,,,,,,,,,,,,,,,
,,,,,,,,2023-08-16_08h20.02.213,HF_wild_card,2022.2.4,MacIntel,62.5,63ef566e5460d50a368654dd,64d2fd46c836a06233681665,64dc789045749e86a8779dc4,,,,,,,decisionTrl,resources/DP.BMP,resources/DR.BMP,Door4,0.442922374,0.038812785,1,0,0,1.846,optionRight,60,13970,6,38,0,38,0,1,,,,,,,,,,,,,,,,,,,,,,,,,,,,,,,,,,,,,,,
,,,,,,,,2023-08-16_08h20.02.213,HF_wild_card,2022.2.4,MacIntel,62.5,63ef566e5460d50a368654dd,64d2fd46c836a06233681665,64dc789045749e86a8779dc4,,,,,,,ctch,resources/DG.BMP,resources/DR.BMP,Door4,0.221461187,0.106164384,1,0,0,1.831,optionRight,80,14050,6,39,0,39,0,1,,,,,,,,,,,,,,,,,,,,,,,,,,,,,,,,,,,,,,,
,,,,,,,,2023-08-16_08h20.02.213,HF_wild_card,2022.2.4,MacIntel,62.5,63ef566e5460d50a368654dd,64d2fd46c836a06233681665,64dc789045749e86a8779dc4,,,,,,,decisionTrl,resources/DP.BMP,resources/DG.BMP,WildCard_NonEx,-0.396118721,0.028538813,1,0,0,1.431,optionLeft,55,14105,6,40,0,40,0,1,,,,,,,,,,,,,,,,,,,,,,,,,,,,,,,,,,,,,,,
,,,,,,,,2023-08-16_08h20.02.213,HF_wild_card,2022.2.4,MacIntel,62.5,63ef566e5460d50a368654dd,64d2fd46c836a06233681665,64dc789045749e86a8779dc4,,,,,,,decisionTrl,resources/DBN.BMP,resources/DG.BMP,Door1,0.195205479,0.074200913,1,0,0,0.864,optionRight,30,14135,6,41,0,41,0,1,,,,,,,,,,,,,,,,,,,,,,,,,,,,,,,,,,,,,,,
,,,,,,,,2023-08-16_08h20.02.213,HF_wild_card,2022.2.4,MacIntel,62.5,63ef566e5460d50a368654dd,64d2fd46c836a06233681665,64dc789045749e86a8779dc4,,,,,,,decisionTrl,resources/DG.BMP,resources/DBN.BMP,Door1,-0.178082192,-0.055936073,1,0,0,1.13,optionLeft,30,14165,6,42,0,42,0,1,,,,,,,,,,,,,,,,,,,,,,,,,,,,,,,,,,,,,,,
,,,,,,,,2023-08-16_08h20.02.213,HF_wild_card,2022.2.4,MacIntel,62.5,63ef566e5460d50a368654dd,64d2fd46c836a06233681665,64dc789045749e86a8779dc4,,,,,,,decisionTrl,resources/DR.BMP,resources/DP.BMP,Door4,-0.366438356,0.059360731,1,0,0,1.197,optionLeft,80,14245,6,43,0,43,0,1,,,,,,,,,,,,,,,,,,,,,,,,,,,,,,,,,,,,,,,
,,,,,,,,2023-08-16_08h20.02.213,HF_wild_card,2022.2.4,MacIntel,62.5,63ef566e5460d50a368654dd,64d2fd46c836a06233681665,64dc789045749e86a8779dc4,,,,,,,,,,,,,,,,,,,,,,,,,,5,0,5,0,1,,,,,,,,,,,,,,,,,,,,,,,,,,,,,,,,,,
,,,,,,,,2023-08-16_08h20.02.213,HF_wild_card,2022.2.4,MacIntel,62.5,63ef566e5460d50a368654dd,64d2fd46c836a06233681665,64dc789045749e86a8779dc4,,,,,,,ctch,resources/DBN.BMP,resources/DB.BMP,Door3,0.157534247,-0.038812785,1,0,0,1.139,optionRight,70,14315,7,0,0,0,0,1,,,,,,,,,,,,,,,,,,,,,,,,,,,,,,,,,,,,,,,
,,,,,,,,2023-08-16_08h20.02.213,HF_wild_card,2022.2.4,MacIntel,62.5,63ef566e5460d50a368654dd,64d2fd46c836a06233681665,64dc789045749e86a8779dc4,,,,,,,decisionTrl,resources/DG.BMP,resources/DBN.BMP,Door1,-0.292237443,-0.035388128,1,0,0,1.116,optionLeft,30,14345,7,1,0,1,0,1,,,,,,,,,,,,,,,,,,,,,,,,,,,,,,,,,,,,,,,
,,,,,,,,2023-08-16_08h20.02.213,HF_wild_card,2022.2.4,MacIntel,62.5,63ef566e5460d50a368654dd,64d2fd46c836a06233681665,64dc789045749e86a8779dc4,,,,,,,decisionTrl,resources/DB.BMP,resources/DR.BMP,Door3,-0.319634703,0.058219178,1,0,0,2.1,optionLeft,70,14415,7,2,0,2,0,1,,,,,,,,,,,,,,,,,,,,,,,,,,,,,,,,,,,,,,,
,,,,,,,,2023-08-16_08h20.02.213,HF_wild_card,2022.2.4,MacIntel,62.5,63ef566e5460d50a368654dd,64d2fd46c836a06233681665,64dc789045749e86a8779dc4,,,,,,,ctch,resources/DBN.BMP,resources/DB.BMP,Door3,0.27739726,0.097031963,1,0,0,0.716,optionRight,70,14485,7,3,0,3,0,1,,,,,,,,,,,,,,,,,,,,,,,,,,,,,,,,,,,,,,,
,,,,,,,,2023-08-16_08h20.02.213,HF_wild_card,2022.2.4,MacIntel,62.5,63ef566e5460d50a368654dd,64d2fd46c836a06233681665,64dc789045749e86a8779dc4,,,,,,,decisionTrl,resources/DB.BMP,resources/DR.BMP,Door4,0.221461187,0.051369863,1,0,0,1.049,optionRight,80,14565,7,4,0,4,0,1,,,,,,,,,,,,,,,,,,,,,,,,,,,,,,,,,,,,,,,
,,,,,,,,2023-08-16_08h20.02.213,HF_wild_card,2022.2.4,MacIntel,62.5,63ef566e5460d50a368654dd,64d2fd46c836a06233681665,64dc789045749e86a8779dc4,,,,,,,ctch,resources/DR.BMP,resources/DG.BMP,Door4,-0.357305936,0.068493151,1,0,0,0.683,optionLeft,60,14625,7,5,0,5,0,1,,,,,,,,,,,,,,,,,,,,,,,,,,,,,,,,,,,,,,,
,,,,,,,,2023-08-16_08h20.02.213,HF_wild_card,2022.2.4,MacIntel,62.5,63ef566e5460d50a368654dd,64d2fd46c836a06233681665,64dc789045749e86a8779dc4,,,,,,,decisionTrl,resources/DG.BMP,resources/DBN.BMP,Door1,-0.350456621,0.037671233,1,0,0,1.282,optionLeft,30,14655,7,6,0,6,0,1,,,,,,,,,,,,,,,,,,,,,,,,,,,,,,,,,,,,,,,
,,,,,,,,2023-08-16_08h20.02.213,HF_wild_card,2022.2.4,MacIntel,62.5,63ef566e5460d50a368654dd,64d2fd46c836a06233681665,64dc789045749e86a8779dc4,,,,,,,ctch,resources/DR.BMP,resources/DG.BMP,Door4,-0.26369863,0.058219178,1,0,0,0.666,optionLeft,80,14735,7,7,0,7,0,1,,,,,,,,,,,,,,,,,,,,,,,,,,,,,,,,,,,,,,,
,,,,,,,,2023-08-16_08h20.02.213,HF_wild_card,2022.2.4,MacIntel,62.5,63ef566e5460d50a368654dd,64d2fd46c836a06233681665,64dc789045749e86a8779dc4,,,,,,,decisionTrl,resources/DG.BMP,resources/DBN.BMP,Door1,-0.195205479,-0.003424658,1,0,0,0.932,optionLeft,30,14765,7,8,0,8,0,1,,,,,,,,,,,,,,,,,,,,,,,,,,,,,,,,,,,,,,,
,,,,,,,,2023-08-16_08h20.02.213,HF_wild_card,2022.2.4,MacIntel,62.5,63ef566e5460d50a368654dd,64d2fd46c836a06233681665,64dc789045749e86a8779dc4,,,,,,,decisionTrl,resources/DBN.BMP,resources/DG.BMP,Door1,0.279680365,0.083333333,1,0,0,0.932,optionRight,30,14795,7,9,0,9,0,1,,,,,,,,,,,,,,,,,,,,,,,,,,,,,,,,,,,,,,,
,,,,,,,,2023-08-16_08h20.02.213,HF_wild_card,2022.2.4,MacIntel,62.5,63ef566e5460d50a368654dd,64d2fd46c836a06233681665,64dc789045749e86a8779dc4,,,,,,,decisionTrl,resources/DR.BMP,resources/DB.BMP,Door3,0.326484018,0.060502283,1,0,0,4.149,optionRight,70,14865,7,10,0,10,0,1,,,,,,,,,,,,,,,,,,,,,,,,,,,,,,,,,,,,,,,
,,,,,,,,2023-08-16_08h20.02.213,HF_wild_card,2022.2.4,MacIntel,62.5,63ef566e5460d50a368654dd,64d2fd46c836a06233681665,64dc789045749e86a8779dc4,,,,,,,decisionTrl,resources/DR.BMP,resources/DB.BMP,Door4,-0.229452055,0.059360731,1,0,0,0.667,optionLeft,60,14925,7,11,0,11,0,1,,,,,,,,,,,,,,,,,,,,,,,,,,,,,,,,,,,,,,,
,,,,,,,,2023-08-16_08h20.02.213,HF_wild_card,2022.2.4,MacIntel,62.5,63ef566e5460d50a368654dd,64d2fd46c836a06233681665,64dc789045749e86a8779dc4,,,,,,,decisionTrl,resources/DG.BMP,resources/DBN.BMP,Door1,-0.214611872,0.023972603,1,0,0,0.682,optionLeft,30,14955,7,12,0,12,0,1,,,,,,,,,,,,,,,,,,,,,,,,,,,,,,,,,,,,,,,
,,,,,,,,2023-08-16_08h20.02.213,HF_wild_card,2022.2.4,MacIntel,62.5,63ef566e5460d50a368654dd,64d2fd46c836a06233681665,64dc789045749e86a8779dc4,,,,,,,decisionTrl,resources/DR.BMP,resources/DB.BMP,Door3,0.299086758,0.109589041,1,0,0,4.016,optionRight,70,15025,7,13,0,13,0,1,,,,,,,,,,,,,,,,,,,,,,,,,,,,,,,,,,,,,,,
,,,,,,,,2023-08-16_08h20.02.213,HF_wild_card,2022.2.4,MacIntel,62.5,63ef566e5460d50a368654dd,64d2fd46c836a06233681665,64dc789045749e86a8779dc4,,,,,,,decisionTrl,resources/DR.BMP,resources/DB.BMP,Door4,-0.212328767,0.076484018,1,0,0,0.716,optionLeft,80,15105,7,14,0,14,0,1,,,,,,,,,,,,,,,,,,,,,,,,,,,,,,,,,,,,,,,
,,,,,,,,2023-08-16_08h20.02.213,HF_wild_card,2022.2.4,MacIntel,62.5,63ef566e5460d50a368654dd,64d2fd46c836a06233681665,64dc789045749e86a8779dc4,,,,,,,decisionTrl,resources/DBN.BMP,resources/DG.BMP,Door1,0.367579909,0.109589041,1,0,0,0.716,optionRight,30,15135,7,15,0,15,0,1,,,,,,,,,,,,,,,,,,,,,,,,,,,,,,,,,,,,,,,
,,,,,,,,2023-08-16_08h20.02.213,HF_wild_card,2022.2.4,MacIntel,62.5,63ef566e5460d50a368654dd,64d2fd46c836a06233681665,64dc789045749e86a8779dc4,,,,,,,ctch,resources/DBN.BMP,resources/DB.BMP,Door3,0.276255708,0.085616438,1,0,0,0.697,optionRight,70,15205,7,16,0,16,0,1,,,,,,,,,,,,,,,,,,,,,,,,,,,,,,,,,,,,,,,
,,,,,,,,2023-08-16_08h20.02.213,HF_wild_card,2022.2.4,MacIntel,62.5,63ef566e5460d50a368654dd,64d2fd46c836a06233681665,64dc789045749e86a8779dc4,,,,,,,decisionTrl,resources/DB.BMP,resources/DR.BMP,Door4,0.198630137,0.058219178,1,0,0,1.049,optionRight,60,15265,7,17,0,17,0,1,,,,,,,,,,,,,,,,,,,,,,,,,,,,,,,,,,,,,,,
,,,,,,,,2023-08-16_08h20.02.213,HF_wild_card,2022.2.4,MacIntel,62.5,63ef566e5460d50a368654dd,64d2fd46c836a06233681665,64dc789045749e86a8779dc4,,,,,,,ctch,resources/DB.BMP,resources/DBN.BMP,Door3,-0.174657534,0.011415525,1,0,0,0.683,optionLeft,70,15335,7,18,0,18,0,1,,,,,,,,,,,,,,,,,,,,,,,,,,,,,,,,,,,,,,,
,,,,,,,,2023-08-16_08h20.02.213,HF_wild_card,2022.2.4,MacIntel,62.5,63ef566e5460d50a368654dd,64d2fd46c836a06233681665,64dc789045749e86a8779dc4,,,,,,,decisionTrl,resources/DB.BMP,resources/DR.BMP,Door3,-0.168949772,0.01369863,1,0,0,0.616,optionLeft,70,15405,7,19,0,19,0,1,,,,,,,,,,,,,,,,,,,,,,,,,,,,,,,,,,,,,,,
,,,,,,,,2023-08-16_08h20.02.213,HF_wild_card,2022.2.4,MacIntel,62.5,63ef566e5460d50a368654dd,64d2fd46c836a06233681665,64dc789045749e86a8779dc4,,,,,,,ctch,resources/DG.BMP,resources/DR.BMP,Door4,0.189497717,0.047945205,1,0,0,0.616,optionRight,60,15465,7,20,0,20,0,1,,,,,,,,,,,,,,,,,,,,,,,,,,,,,,,,,,,,,,,
,,,,,,,,2023-08-16_08h20.02.213,HF_wild_card,2022.2.4,MacIntel,62.5,63ef566e5460d50a368654dd,64d2fd46c836a06233681665,64dc789045749e86a8779dc4,,,,,,,ctch,resources/DB.BMP,resources/DBN.BMP,Door3,-0.207762557,0.014840183,1,0,0,0.666,optionLeft,70,15535,7,21,0,21,0,1,,,,,,,,,,,,,,,,,,,,,,,,,,,,,,,,,,,,,,,
,,,,,,,,2023-08-16_08h20.02.213,HF_wild_card,2022.2.4,MacIntel,62.5,63ef566e5460d50a368654dd,64d2fd46c836a06233681665,64dc789045749e86a8779dc4,,,,,,,decisionTrl,resources/DBN.BMP,resources/DG.BMP,Door1,0.349315068,0.086757991,1,0,0,0.766,optionRight,30,15565,7,22,0,22,0,1,,,,,,,,,,,,,,,,,,,,,,,,,,,,,,,,,,,,,,,
,,,,,,,,2023-08-16_08h20.02.213,HF_wild_card,2022.2.4,MacIntel,62.5,63ef566e5460d50a368654dd,64d2fd46c836a06233681665,64dc789045749e86a8779dc4,,,,,,,decisionTrl,resources/DG.BMP,resources/DBN.BMP,Door1,-0.324200913,0.039954338,1,0,0,0.999,optionLeft,30,15595,7,23,0,23,0,1,,,,,,,,,,,,,,,,,,,,,,,,,,,,,,,,,,,,,,,
,,,,,,,,2023-08-16_08h20.02.213,HF_wild_card,2022.2.4,MacIntel,62.5,63ef566e5460d50a368654dd,64d2fd46c836a06233681665,64dc789045749e86a8779dc4,,,,,,,decisionTrl,resources/DR.BMP,resources/DB.BMP,Door4,-0.159817352,0.067351598,1,0,0,1.249,optionLeft,60,15655,7,24,0,24,0,1,,,,,,,,,,,,,,,,,,,,,,,,,,,,,,,,,,,,,,,
,,,,,,,,2023-08-16_08h20.02.213,HF_wild_card,2022.2.4,MacIntel,62.5,63ef566e5460d50a368654dd,64d2fd46c836a06233681665,64dc789045749e86a8779dc4,,,,,,,decisionTrl,resources/DB.BMP,resources/DR.BMP,Door3,-0.191780822,0.03652968,1,0,0,0.95,optionLeft,70,15725,7,25,0,25,0,1,,,,,,,,,,,,,,,,,,,,,,,,,,,,,,,,,,,,,,,
,,,,,,,,2023-08-16_08h20.02.213,HF_wild_card,2022.2.4,MacIntel,62.5,63ef566e5460d50a368654dd,64d2fd46c836a06233681665,64dc789045749e86a8779dc4,,,,,,,decisionTrl,resources/DBN.BMP,resources/DG.BMP,Door1,0.257990868,0.006849315,1,0,0,0.699,optionRight,30,15755,7,26,0,26,0,1,,,,,,,,,,,,,,,,,,,,,,,,,,,,,,,,,,,,,,,
,,,,,,,,2023-08-16_08h20.02.213,HF_wild_card,2022.2.4,MacIntel,62.5,63ef566e5460d50a368654dd,64d2fd46c836a06233681665,64dc789045749e86a8779dc4,,,,,,,ctch,resources/DG.BMP,resources/DR.BMP,Door4,0.23630137,0.052511416,1,0,0,0.632,optionRight,80,15835,7,27,0,27,0,1,,,,,,,,,,,,,,,,,,,,,,,,,,,,,,,,,,,,,,,
,,,,,,,,2023-08-16_08h20.02.213,HF_wild_card,2022.2.4,MacIntel,62.5,63ef566e5460d50a368654dd,64d2fd46c836a06233681665,64dc789045749e86a8779dc4,,,,,,,ctch,resources/DB.BMP,resources/DBN.BMP,Door3,-0.25,0.050228311,1,0,0,0.717,optionLeft,70,15905,7,28,0,28,0,1,,,,,,,,,,,,,,,,,,,,,,,,,,,,,,,,,,,,,,,
,,,,,,,,2023-08-16_08h20.02.213,HF_wild_card,2022.2.4,MacIntel,62.5,63ef566e5460d50a368654dd,64d2fd46c836a06233681665,64dc789045749e86a8779dc4,,,,,,,decisionTrl,resources/DB.BMP,resources/DR.BMP,Door3,-0.195205479,0.00913242,1,0,0,0.733,optionLeft,70,15975,7,29,0,29,0,1,,,,,,,,,,,,,,,,,,,,,,,,,,,,,,,,,,,,,,,
,,,,,,,,2023-08-16_08h20.02.213,HF_wild_card,2022.2.4,MacIntel,62.5,63ef566e5460d50a368654dd,64d2fd46c836a06233681665,64dc789045749e86a8779dc4,,,,,,,ctch,resources/DG.BMP,resources/DR.BMP,Door4,0.313926941,0.062785388,1,0,0,0.583,optionRight,80,16055,7,30,0,30,0,1,,,,,,,,,,,,,,,,,,,,,,,,,,,,,,,,,,,,,,,
,,,,,,,,2023-08-16_08h20.02.213,HF_wild_card,2022.2.4,MacIntel,62.5,63ef566e5460d50a368654dd,64d2fd46c836a06233681665,64dc789045749e86a8779dc4,,,,,,,ctch,resources/DR.BMP,resources/DG.BMP,Door4,-0.190639269,0.04109589,1,0,0,0.7,optionLeft,80,16135,7,31,0,31,0,1,,,,,,,,,,,,,,,,,,,,,,,,,,,,,,,,,,,,,,,
,,,,,,,,2023-08-16_08h20.02.213,HF_wild_card,2022.2.4,MacIntel,62.5,63ef566e5460d50a368654dd,64d2fd46c836a06233681665,64dc789045749e86a8779dc4,,,,,,,decisionTrl,resources/DBN.BMP,resources/DG.BMP,Door1,0.243150685,0.151826484,1,0,0,0.8,optionRight,30,16165,7,32,0,32,0,1,,,,,,,,,,,,,,,,,,,,,,,,,,,,,,,,,,,,,,,
,,,,,,,,2023-08-16_08h20.02.213,HF_wild_card,2022.2.4,MacIntel,62.5,63ef566e5460d50a368654dd,64d2fd46c836a06233681665,64dc789045749e86a8779dc4,,,,,,,decisionTrl,resources/DR.BMP,resources/DB.BMP,Door4,-0.108447489,0.168949772,1,0,0,2.683,optionLeft,80,16245,7,33,0,33,0,1,,,,,,,,,,,,,,,,,,,,,,,,,,,,,,,,,,,,,,,
,,,,,,,,2023-08-16_08h20.02.213,HF_wild_card,2022.2.4,MacIntel,62.5,63ef566e5460d50a368654dd,64d2fd46c836a06233681665,64dc789045749e86a8779dc4,,,,,,,decisionTrl,resources/DG.BMP,resources/DBN.BMP,Door1,-0.149543379,-0.014840183,1,0,0,1.183,optionLeft,30,16275,7,34,0,34,0,1,,,,,,,,,,,,,,,,,,,,,,,,,,,,,,,,,,,,,,,
,,,,,,,,2023-08-16_08h20.02.213,HF_wild_card,2022.2.4,MacIntel,62.5,63ef566e5460d50a368654dd,64d2fd46c836a06233681665,64dc789045749e86a8779dc4,,,,,,,decisionTrl,resources/DBN.BMP,resources/DG.BMP,Door1,0.224885845,0.0456621,1,0,0,0.649,optionRight,30,16305,7,35,0,35,0,1,,,,,,,,,,,,,,,,,,,,,,,,,,,,,,,,,,,,,,,
,,,,,,,,2023-08-16_08h20.02.213,HF_wild_card,2022.2.4,MacIntel,62.5,63ef566e5460d50a368654dd,64d2fd46c836a06233681665,64dc789045749e86a8779dc4,,,,,,,,,,,,,,,,,,,,,,,,,,6,0,6,0,1,,,,,,,,,,,,,,,,,,,,,,,,,,,,,,,,,,
,,,,,,,,2023-08-16_08h20.02.213,HF_wild_card,2022.2.4,MacIntel,62.5,63ef566e5460d50a368654dd,64d2fd46c836a06233681665,64dc789045749e86a8779dc4,,,,,,,,,,,,,,,,,,,,,,,,,,,,,,,4,,,,,,,,,,,,,,,,,,,,,,,,,,,,,,,,,
,,,,,,,,2023-08-16_08h20.02.213,HF_wild_card,2022.2.4,MacIntel,62.5,63ef566e5460d50a368654dd,64d2fd46c836a06233681665,64dc789045749e86a8779dc4,,,,,,,,,,,,,,,,,,,,,,,,,,,,,,,,,,,,,,,,,,,,,,,,,,,,,,,,,,,,,,,,
,,,,,,,,2023-08-16_08h20.02.213,HF_wild_card,2022.2.4,MacIntel,62.5,63ef566e5460d50a368654dd,64d2fd46c836a06233681665,64dc789045749e86a8779dc4,,,,,,,,,,,,,,,,,,,,,,,,,,,,,,,,20,WC_extreme,resources/DY.BMP,0,0,0,0,1,,,,,,,,,,,,,,,,,,,,,,,,,
,,,,,,,,2023-08-16_08h20.02.213,HF_wild_card,2022.2.4,MacIntel,62.5,63ef566e5460d50a368654dd,64d2fd46c836a06233681665,64dc789045749e86a8779dc4,,,,,,,,,,,,,,,,,,,,,,,,,,,,,,,,55,WC_nonExtreme,resources/DP.BMP,1,0,1,0,1,,,,,,,,,,,,,,,,,,,,,,,,,
,,,,,,,,2023-08-16_08h20.02.213,HF_wild_card,2022.2.4,MacIntel,62.5,63ef566e5460d50a368654dd,64d2fd46c836a06233681665,64dc789045749e86a8779dc4,,,,,,,,,,,,,,,,,,,,,,,,,,,,,,,,30,Door1,resources/DG.BMP,2,0,2,0,1,,,,,,,,,,,,,,,,,,,,,,,,,
,,,,,,,,2023-08-16_08h20.02.213,HF_wild_card,2022.2.4,MacIntel,62.5,63ef566e5460d50a368654dd,64d2fd46c836a06233681665,64dc789045749e86a8779dc4,,,,,,,,,,,,,,,,,,,,,,,,,,,,,,,,20,Door2,resources/DBN.BMP,3,0,3,0,1,,,,,,,,,,,,,,,,,,,,,,,,,
,,,,,,,,2023-08-16_08h20.02.213,HF_wild_card,2022.2.4,MacIntel,62.5,63ef566e5460d50a368654dd,64d2fd46c836a06233681665,64dc789045749e86a8779dc4,,,,,,,,,,,,,,,,,,,,,,,,,,,,,,,,70,Door4,resources/DR.BMP,4,0,4,0,1,,,,,,,,,,,,,,,,,,,,,,,,,
,,,,,,,,2023-08-16_08h20.02.213,HF_wild_card,2022.2.4,MacIntel,62.5,63ef566e5460d50a368654dd,64d2fd46c836a06233681665,64dc789045749e86a8779dc4,,,,,,,,,,,,,,,,,,,,,,,,,,,,,,,,70,Door3,resources/DB.BMP,5,0,5,0,1,,,,,,,,,,,,,,,,,,,,,,,,,
,,,,,,,,2023-08-16_08h20.02.213,HF_wild_card,2022.2.4,MacIntel,62.5,63ef566e5460d50a368654dd,64d2fd46c836a06233681665,64dc789045749e86a8779dc4,,,,,,,,,,,,,,,,,,,,,,,,,,,,,,,,,,,,,,,,,,,,,,,,,,,,,,,,,,,,,,,,
,,,,,,,,2023-08-16_08h20.02.213,HF_wild_card,2022.2.4,MacIntel,62.5,63ef566e5460d50a368654dd,64d2fd46c836a06233681665,64dc789045749e86a8779dc4,,,,,,,,,,,,,,,,,,,,,,,,,,,,,,,,,,,,,,,,0,0,0,0,1,,,,,,,,,,,,,,,,,,,,
,,,,,,,,2023-08-16_08h20.02.213,HF_wild_card,2022.2.4,MacIntel,62.5,63ef566e5460d50a368654dd,64d2fd46c836a06233681665,64dc789045749e86a8779dc4,,,,,,,,,,,,,,,,,,,,,,,,,,,,,,,,,,,,,,,,1,0,1,0,1,,,,,,,,,,,,,,,,,,,,
,,,,,,,,2023-08-16_08h20.02.213,HF_wild_card,2022.2.4,MacIntel,62.5,63ef566e5460d50a368654dd,64d2fd46c836a06233681665,64dc789045749e86a8779dc4,,,,,,,,,,,,,,,,,,,,,,,,,,,,,,,,,,,,,,,,,,,,,-0.28196347,-0.400684932,1,0,0,yes,40%,60%,WC_nonExtreme,resources/DP.BMP,0,0,0,0,1,,,,,
,,,,,,,,2023-08-16_08h20.02.213,HF_wild_card,2022.2.4,MacIntel,62.5,63ef566e5460d50a368654dd,64d2fd46c836a06233681665,64dc789045749e86a8779dc4,,,,,,,,,,,,,,,,,,,,,,,,,,,,,,,,,,,,,,,,,,,,,,,,,,,,,,,,,,,,0,0,0,0,1
,,,,,,,,2023-08-16_08h20.02.213,HF_wild_card,2022.2.4,MacIntel,62.5,63ef566e5460d50a368654dd,64d2fd46c836a06233681665,64dc789045749e86a8779dc4,,,,,,,,,,,,,,,,,,,,,,,,,,,,,,,,,,,,,,,,0,0,0,0,1,,,,,,,,,,,,,,,,,,,,
,,,,,,,,2023-08-16_08h20.02.213,HF_wild_card,2022.2.4,MacIntel,62.5,63ef566e5460d50a368654dd,64d2fd46c836a06233681665,64dc789045749e86a8779dc4,,,,,,,,,,,,,,,,,,,,,,,,,,,,,,,,,,,,,,,,1,0,1,0,1,,,,,,,,,,,,,,,,,,,,
,,,,,,,,2023-08-16_08h20.02.213,HF_wild_card,2022.2.4,MacIntel,62.5,63ef566e5460d50a368654dd,64d2fd46c836a06233681665,64dc789045749e86a8779dc4,,,,,,,,,,,,,,,,,,,,,,,,,,,,,,,,,,,,,,,,,,,,,-0.264840183,-0.418949772,1,0,0,yes,0%,100%,Door3,resources/DB.BMP,0,0,0,0,1,,,,,
