Condition,Low fixed image (Door1),Low risky image (Door2),High fixed image (Door3),High risky image (Door4),NonExtreme Wild Card 1,NonExtreme Wild Card 2,,date,expName,psychopyVersion,OS,frameRate,PROLIFIC_PID,STUDY_ID,SESSION_ID,mouse_2.x,mouse_2.y,mouse_2.leftButton,mouse_2.midButton,mouse_2.rightButton,mouse_2.clicked_name,Trial Type,Left Option Image,Right Option Image,Chosen Door,mouse.x,mouse.y,mouse.leftButton,mouse.midButton,mouse.rightButton,mouse.time,mouse.clicked_name,Feedback,Cumulative Reward,Block,trial.thisRepN,trial.thisTrialN,trial.thisN,trial.thisIndex,trial.ran,blocks.thisRepN,blocks.thisTrialN,blocks.thisN,blocks.thisIndex,blocks.ran,Money conversion,First Outcome Reported,Shown Door (First Outcome),Displayed Image (First Outcome),outcomes.thisRepN,outcomes.thisTrialN,outcomes.thisN,outcomes.thisIndex,outcomes.ran,judgments.thisRepN,judgments.thisTrialN,judgments.thisN,judgments.thisIndex,judgments.ran,freqMouse.x,freqMouse.y,freqMouse.leftButton,freqMouse.midButton,freqMouse.rightButton,freqMouse.clicked_name,trials.thisRepN,trials.thisTrialN,trials.thisN,trials.thisIndex,trials.ran,FQJ for first outcome,FQJ for second outcome,Shown Door,Displayed Image,judgBlock.thisRepN,judgBlock.thisTrialN,judgBlock.thisN,judgBlock.thisIndex,judgBlock.ran
2,resources/DB.BMP,resources/DR.BMP,resources/DBN.BMP,resources/DG.BMP,resources/DY.BMP,resources/DP.BMP,,2023-08-16_08h32.56.041,HF_wild_card,2022.2.4,MacIntel,60.45949214,57e17bdc1334540001170aa0,64d2fd46c836a06233681665,64dc7a3a13d7dc68afa1d418,,,,,,,,,,,,,,,,,,,,,,,,,,,,,,,,,,,,,,,,,,,,,,,,,,,,,,,,,,,,,,,,
,,,,,,,,2023-08-16_08h32.56.041,HF_wild_card,2022.2.4,MacIntel,60.45949214,57e17bdc1334540001170aa0,64d2fd46c836a06233681665,64dc7a3a13d7dc68afa1d418,0.013333333,-0.418095238,1,0,0,agree,,,,,,,,,,,,,,,,,,,,,,,,,,,,,,,,,,,,,,,,,,,,,,,,,,,,,,,,,,
,,,,,,,,2023-08-16_08h32.56.041,HF_wild_card,2022.2.4,MacIntel,60.45949214,57e17bdc1334540001170aa0,64d2fd46c836a06233681665,64dc7a3a13d7dc68afa1d418,,,,,,,,,,,,,,,,,,,,,,,,,,,,,,,,,,,,,,,,,,,,,,,,,,,,,,,,,,,,,,,,
,,,,,,,,2023-08-16_08h32.56.041,HF_wild_card,2022.2.4,MacIntel,60.45949214,57e17bdc1334540001170aa0,64d2fd46c836a06233681665,64dc7a3a13d7dc68afa1d418,,,,,,,decisionTrl,resources/DP.BMP,resources/DG.BMP,WildCard_NonEx,-0.307619048,-0.165714286,1,0,0,3.462,optionLeft,55,55,1,0,0,0,0,1,,,,,,,,,,,,,,,,,,,,,,,,,,,,,,,,,,,,,,,
,,,,,,,,2023-08-16_08h32.56.041,HF_wild_card,2022.2.4,MacIntel,60.45949214,57e17bdc1334540001170aa0,64d2fd46c836a06233681665,64dc7a3a13d7dc68afa1d418,,,,,,,ctch,resources/DG.BMP,resources/DB.BMP,Door1,0.240952381,-0.026666667,1,0,0,2.108,optionRight,30,85,1,1,0,1,0,1,,,,,,,,,,,,,,,,,,,,,,,,,,,,,,,,,,,,,,,
,,,,,,,,2023-08-16_08h32.56.041,HF_wild_card,2022.2.4,MacIntel,60.45949214,57e17bdc1334540001170aa0,64d2fd46c836a06233681665,64dc7a3a13d7dc68afa1d418,,,,,,,decisionTrl,resources/DP.BMP,resources/DR.BMP,WildCard_NonEx,-0.316190476,-0.018095238,1,0,0,2.928,optionLeft,55,140,1,2,0,2,0,1,,,,,,,,,,,,,,,,,,,,,,,,,,,,,,,,,,,,,,,
,,,,,,,,2023-08-16_08h32.56.041,HF_wild_card,2022.2.4,MacIntel,60.45949214,57e17bdc1334540001170aa0,64d2fd46c836a06233681665,64dc7a3a13d7dc68afa1d418,,,,,,,decisionTrl,resources/DR.BMP,resources/DP.BMP,WildCard_NonEx,0.325714286,-0.094285714,1,0,0,1.675,optionRight,45,185,1,3,0,3,0,1,,,,,,,,,,,,,,,,,,,,,,,,,,,,,,,,,,,,,,,
,,,,,,,,2023-08-16_08h32.56.041,HF_wild_card,2022.2.4,MacIntel,60.45949214,57e17bdc1334540001170aa0,64d2fd46c836a06233681665,64dc7a3a13d7dc68afa1d418,,,,,,,decisionTrl,resources/DBN.BMP,resources/DG.BMP,Door4,0.302857143,-0.077142857,1,0,0,2.611,optionRight,80,265,1,4,0,4,0,1,,,,,,,,,,,,,,,,,,,,,,,,,,,,,,,,,,,,,,,
,,,,,,,,2023-08-16_08h32.56.041,HF_wild_card,2022.2.4,MacIntel,60.45949214,57e17bdc1334540001170aa0,64d2fd46c836a06233681665,64dc7a3a13d7dc68afa1d418,,,,,,,sngl,resources/Empty.png,resources/DP.BMP,WildCard_NonEx,0.311428571,-0.027619048,1,0,0,1.742,optionRight,45,310,1,5,0,5,0,1,,,,,,,,,,,,,,,,,,,,,,,,,,,,,,,,,,,,,,,
,,,,,,,,2023-08-16_08h32.56.041,HF_wild_card,2022.2.4,MacIntel,60.45949214,57e17bdc1334540001170aa0,64d2fd46c836a06233681665,64dc7a3a13d7dc68afa1d418,,,,,,,decisionTrl,resources/DR.BMP,resources/DB.BMP,Door1,0.139047619,-0.020952381,1,0,0,2.33,optionRight,30,340,1,6,0,6,0,1,,,,,,,,,,,,,,,,,,,,,,,,,,,,,,,,,,,,,,,
,,,,,,,,2023-08-16_08h32.56.041,HF_wild_card,2022.2.4,MacIntel,60.45949214,57e17bdc1334540001170aa0,64d2fd46c836a06233681665,64dc7a3a13d7dc68afa1d418,,,,,,,decisionTrl,resources/DB.BMP,resources/DR.BMP,Door1,-0.186666667,-0.036190476,1,0,0,0.954,optionLeft,30,370,1,7,0,7,0,1,,,,,,,,,,,,,,,,,,,,,,,,,,,,,,,,,,,,,,,
,,,,,,,,2023-08-16_08h32.56.041,HF_wild_card,2022.2.4,MacIntel,60.45949214,57e17bdc1334540001170aa0,64d2fd46c836a06233681665,64dc7a3a13d7dc68afa1d418,,,,,,,ctch,resources/DBN.BMP,resources/DR.BMP,Door2,0.280952381,0.006666667,1,0,0,0.919,optionRight,20,390,1,8,0,8,0,1,,,,,,,,,,,,,,,,,,,,,,,,,,,,,,,,,,,,,,,
,,,,,,,,2023-08-16_08h32.56.041,HF_wild_card,2022.2.4,MacIntel,60.45949214,57e17bdc1334540001170aa0,64d2fd46c836a06233681665,64dc7a3a13d7dc68afa1d418,,,,,,,sngl,resources/DBN.BMP,resources/Empty.png,Door3,-0.255238095,-0.058095238,1,0,0,1.055,optionLeft,70,460,1,9,0,9,0,1,,,,,,,,,,,,,,,,,,,,,,,,,,,,,,,,,,,,,,,
,,,,,,,,2023-08-16_08h32.56.041,HF_wild_card,2022.2.4,MacIntel,60.45949214,57e17bdc1334540001170aa0,64d2fd46c836a06233681665,64dc7a3a13d7dc68afa1d418,,,,,,,sngl,resources/Empty.png,resources/DR.BMP,Door2,0.222857143,-0.022857143,1,0,0,1.335,optionRight,20,480,1,10,0,10,0,1,,,,,,,,,,,,,,,,,,,,,,,,,,,,,,,,,,,,,,,
,,,,,,,,2023-08-16_08h32.56.041,HF_wild_card,2022.2.4,MacIntel,60.45949214,57e17bdc1334540001170aa0,64d2fd46c836a06233681665,64dc7a3a13d7dc68afa1d418,,,,,,,decisionTrl,resources/DB.BMP,resources/DR.BMP,Door1,-0.201904762,-0.062857143,1,0,0,1.707,optionLeft,30,510,1,11,0,11,0,1,,,,,,,,,,,,,,,,,,,,,,,,,,,,,,,,,,,,,,,
,,,,,,,,2023-08-16_08h32.56.041,HF_wild_card,2022.2.4,MacIntel,60.45949214,57e17bdc1334540001170aa0,64d2fd46c836a06233681665,64dc7a3a13d7dc68afa1d418,,,,,,,decisionTrl,resources/DBN.BMP,resources/DG.BMP,Door3,-0.261904762,-0.065714286,1,0,0,1.092,optionLeft,70,580,1,12,0,12,0,1,,,,,,,,,,,,,,,,,,,,,,,,,,,,,,,,,,,,,,,
,,,,,,,,2023-08-16_08h32.56.041,HF_wild_card,2022.2.4,MacIntel,60.45949214,57e17bdc1334540001170aa0,64d2fd46c836a06233681665,64dc7a3a13d7dc68afa1d418,,,,,,,decisionTrl,resources/DP.BMP,resources/DBN.BMP,Door3,0.186666667,0.024761905,1,0,0,1.401,optionRight,70,650,1,13,0,13,0,1,,,,,,,,,,,,,,,,,,,,,,,,,,,,,,,,,,,,,,,
,,,,,,,,2023-08-16_08h32.56.041,HF_wild_card,2022.2.4,MacIntel,60.45949214,57e17bdc1334540001170aa0,64d2fd46c836a06233681665,64dc7a3a13d7dc68afa1d418,,,,,,,sngl,resources/DP.BMP,resources/Empty.png,WildCard_NonEx,-0.268571429,-0.092380952,1,0,0,0.969,optionLeft,55,705,1,14,0,14,0,1,,,,,,,,,,,,,,,,,,,,,,,,,,,,,,,,,,,,,,,
,,,,,,,,2023-08-16_08h32.56.041,HF_wild_card,2022.2.4,MacIntel,60.45949214,57e17bdc1334540001170aa0,64d2fd46c836a06233681665,64dc7a3a13d7dc68afa1d418,,,,,,,sngl,resources/DB.BMP,resources/Empty.png,Door1,-0.276190476,-0.15047619,1,0,0,2.257,optionLeft,30,735,1,15,0,15,0,1,,,,,,,,,,,,,,,,,,,,,,,,,,,,,,,,,,,,,,,
,,,,,,,,2023-08-16_08h32.56.041,HF_wild_card,2022.2.4,MacIntel,60.45949214,57e17bdc1334540001170aa0,64d2fd46c836a06233681665,64dc7a3a13d7dc68afa1d418,,,,,,,sngl,resources/DR.BMP,resources/Empty.png,Door2,-0.33047619,-0.058095238,1,0,0,1.116,optionLeft,40,775,1,16,0,16,0,1,,,,,,,,,,,,,,,,,,,,,,,,,,,,,,,,,,,,,,,
,,,,,,,,2023-08-16_08h32.56.041,HF_wild_card,2022.2.4,MacIntel,60.45949214,57e17bdc1334540001170aa0,64d2fd46c836a06233681665,64dc7a3a13d7dc68afa1d418,,,,,,,decisionTrl,resources/DG.BMP,resources/DBN.BMP,Door3,0.217142857,0.051428571,1,0,0,1.038,optionRight,70,845,1,17,0,17,0,1,,,,,,,,,,,,,,,,,,,,,,,,,,,,,,,,,,,,,,,
,,,,,,,,2023-08-16_08h32.56.041,HF_wild_card,2022.2.4,MacIntel,60.45949214,57e17bdc1334540001170aa0,64d2fd46c836a06233681665,64dc7a3a13d7dc68afa1d418,,,,,,,decisionTrl,resources/DR.BMP,resources/DB.BMP,Door2,-0.537142857,-0.121904762,1,0,0,3.012,optionLeft,40,885,1,18,0,18,0,1,,,,,,,,,,,,,,,,,,,,,,,,,,,,,,,,,,,,,,,
,,,,,,,,2023-08-16_08h32.56.041,HF_wild_card,2022.2.4,MacIntel,60.45949214,57e17bdc1334540001170aa0,64d2fd46c836a06233681665,64dc7a3a13d7dc68afa1d418,,,,,,,ctch,resources/DB.BMP,resources/DG.BMP,Door4,0.258095238,0.04,1,0,0,1.155,optionRight,80,965,1,19,0,19,0,1,,,,,,,,,,,,,,,,,,,,,,,,,,,,,,,,,,,,,,,
,,,,,,,,2023-08-16_08h32.56.041,HF_wild_card,2022.2.4,MacIntel,60.45949214,57e17bdc1334540001170aa0,64d2fd46c836a06233681665,64dc7a3a13d7dc68afa1d418,,,,,,,ctch,resources/DG.BMP,resources/DB.BMP,Door1,0.137142857,-0.020952381,1,0,0,2.122,optionRight,30,995,1,20,0,20,0,1,,,,,,,,,,,,,,,,,,,,,,,,,,,,,,,,,,,,,,,
,,,,,,,,2023-08-16_08h32.56.041,HF_wild_card,2022.2.4,MacIntel,60.45949214,57e17bdc1334540001170aa0,64d2fd46c836a06233681665,64dc7a3a13d7dc68afa1d418,,,,,,,decisionTrl,resources/DB.BMP,resources/DP.BMP,WildCard_NonEx,0.242857143,-0.007619048,1,0,0,1.692,optionRight,45,1040,1,21,0,21,0,1,,,,,,,,,,,,,,,,,,,,,,,,,,,,,,,,,,,,,,,
,,,,,,,,2023-08-16_08h32.56.041,HF_wild_card,2022.2.4,MacIntel,60.45949214,57e17bdc1334540001170aa0,64d2fd46c836a06233681665,64dc7a3a13d7dc68afa1d418,,,,,,,sngl,resources/Empty.png,resources/DP.BMP,WildCard_NonEx,0.247619048,0.011428571,1,0,0,1.14,optionRight,55,1095,1,22,0,22,0,1,,,,,,,,,,,,,,,,,,,,,,,,,,,,,,,,,,,,,,,
,,,,,,,,2023-08-16_08h32.56.041,HF_wild_card,2022.2.4,MacIntel,60.45949214,57e17bdc1334540001170aa0,64d2fd46c836a06233681665,64dc7a3a13d7dc68afa1d418,,,,,,,decisionTrl,resources/DBN.BMP,resources/DG.BMP,Door3,-0.202857143,-0.024761905,1,0,0,1.366,optionLeft,70,1165,1,23,0,23,0,1,,,,,,,,,,,,,,,,,,,,,,,,,,,,,,,,,,,,,,,
,,,,,,,,2023-08-16_08h32.56.041,HF_wild_card,2022.2.4,MacIntel,60.45949214,57e17bdc1334540001170aa0,64d2fd46c836a06233681665,64dc7a3a13d7dc68afa1d418,,,,,,,decisionTrl,resources/DR.BMP,resources/DB.BMP,Door1,0.197142857,0.043809524,1,0,0,1.872,optionRight,30,1195,1,24,0,24,0,1,,,,,,,,,,,,,,,,,,,,,,,,,,,,,,,,,,,,,,,
,,,,,,,,2023-08-16_08h32.56.041,HF_wild_card,2022.2.4,MacIntel,60.45949214,57e17bdc1334540001170aa0,64d2fd46c836a06233681665,64dc7a3a13d7dc68afa1d418,,,,,,,decisionTrl,resources/DR.BMP,resources/DB.BMP,Door2,-0.293333333,-0.11047619,1,0,0,1.039,optionLeft,20,1215,1,25,0,25,0,1,,,,,,,,,,,,,,,,,,,,,,,,,,,,,,,,,,,,,,,
,,,,,,,,2023-08-16_08h32.56.041,HF_wild_card,2022.2.4,MacIntel,60.45949214,57e17bdc1334540001170aa0,64d2fd46c836a06233681665,64dc7a3a13d7dc68afa1d418,,,,,,,ctch,resources/DR.BMP,resources/DBN.BMP,Door3,0.277142857,0.062857143,1,0,0,1.068,optionRight,70,1285,1,26,0,26,0,1,,,,,,,,,,,,,,,,,,,,,,,,,,,,,,,,,,,,,,,
,,,,,,,,2023-08-16_08h32.56.041,HF_wild_card,2022.2.4,MacIntel,60.45949214,57e17bdc1334540001170aa0,64d2fd46c836a06233681665,64dc7a3a13d7dc68afa1d418,,,,,,,sngl,resources/Empty.png,resources/DBN.BMP,Door3,0.285714286,0.041904762,1,0,0,0.991,optionRight,70,1355,1,27,0,27,0,1,,,,,,,,,,,,,,,,,,,,,,,,,,,,,,,,,,,,,,,
,,,,,,,,2023-08-16_08h32.56.041,HF_wild_card,2022.2.4,MacIntel,60.45949214,57e17bdc1334540001170aa0,64d2fd46c836a06233681665,64dc7a3a13d7dc68afa1d418,,,,,,,sngl,resources/Empty.png,resources/DG.BMP,Door4,0.274285714,-0.02952381,1,0,0,1.653,optionRight,60,1415,1,28,0,28,0,1,,,,,,,,,,,,,,,,,,,,,,,,,,,,,,,,,,,,,,,
,,,,,,,,2023-08-16_08h32.56.041,HF_wild_card,2022.2.4,MacIntel,60.45949214,57e17bdc1334540001170aa0,64d2fd46c836a06233681665,64dc7a3a13d7dc68afa1d418,,,,,,,sngl,resources/DG.BMP,resources/Empty.png,Door4,-0.243809524,-0.104761905,1,0,0,1.017,optionLeft,80,1495,1,29,0,29,0,1,,,,,,,,,,,,,,,,,,,,,,,,,,,,,,,,,,,,,,,
,,,,,,,,2023-08-16_08h32.56.041,HF_wild_card,2022.2.4,MacIntel,60.45949214,57e17bdc1334540001170aa0,64d2fd46c836a06233681665,64dc7a3a13d7dc68afa1d418,,,,,,,decisionTrl,resources/DB.BMP,resources/DR.BMP,Door1,-0.191428571,-0.034285714,1,0,0,4.597,optionLeft,30,1525,1,30,0,30,0,1,,,,,,,,,,,,,,,,,,,,,,,,,,,,,,,,,,,,,,,
,,,,,,,,2023-08-16_08h32.56.041,HF_wild_card,2022.2.4,MacIntel,60.45949214,57e17bdc1334540001170aa0,64d2fd46c836a06233681665,64dc7a3a13d7dc68afa1d418,,,,,,,decisionTrl,resources/DBN.BMP,resources/DG.BMP,Door3,-0.376190476,-0.013333333,1,0,0,1.972,optionLeft,70,1595,1,31,0,31,0,1,,,,,,,,,,,,,,,,,,,,,,,,,,,,,,,,,,,,,,,
,,,,,,,,2023-08-16_08h32.56.041,HF_wild_card,2022.2.4,MacIntel,60.45949214,57e17bdc1334540001170aa0,64d2fd46c836a06233681665,64dc7a3a13d7dc68afa1d418,,,,,,,decisionTrl,resources/DB.BMP,resources/DR.BMP,Door2,0.224761905,-0.018095238,1,0,0,1.877,optionRight,20,1615,1,32,0,32,0,1,,,,,,,,,,,,,,,,,,,,,,,,,,,,,,,,,,,,,,,
,,,,,,,,2023-08-16_08h32.56.041,HF_wild_card,2022.2.4,MacIntel,60.45949214,57e17bdc1334540001170aa0,64d2fd46c836a06233681665,64dc7a3a13d7dc68afa1d418,,,,,,,ctch,resources/DBN.BMP,resources/DR.BMP,Door3,-0.278095238,-0.000952381,1,0,0,1.004,optionLeft,70,1685,1,33,0,33,0,1,,,,,,,,,,,,,,,,,,,,,,,,,,,,,,,,,,,,,,,
,,,,,,,,2023-08-16_08h32.56.041,HF_wild_card,2022.2.4,MacIntel,60.45949214,57e17bdc1334540001170aa0,64d2fd46c836a06233681665,64dc7a3a13d7dc68afa1d418,,,,,,,sngl,resources/DP.BMP,resources/Empty.png,WildCard_NonEx,-0.33047619,0.101904762,1,0,0,7.429,optionLeft,45,1730,1,34,0,34,0,1,,,,,,,,,,,,,,,,,,,,,,,,,,,,,,,,,,,,,,,
,,,,,,,,2023-08-16_08h32.56.041,HF_wild_card,2022.2.4,MacIntel,60.45949214,57e17bdc1334540001170aa0,64d2fd46c836a06233681665,64dc7a3a13d7dc68afa1d418,,,,,,,sngl,resources/Empty.png,resources/DB.BMP,Door1,0.28952381,-0.024761905,1,0,0,1.49,optionRight,30,1760,1,35,0,35,0,1,,,,,,,,,,,,,,,,,,,,,,,,,,,,,,,,,,,,,,,
,,,,,,,,2023-08-16_08h32.56.041,HF_wild_card,2022.2.4,MacIntel,60.45949214,57e17bdc1334540001170aa0,64d2fd46c836a06233681665,64dc7a3a13d7dc68afa1d418,,,,,,,decisionTrl,resources/DG.BMP,resources/DBN.BMP,Door3,0.744761905,0.058095238,1,0,0,1.387,optionRight,70,1830,1,36,0,36,0,1,,,,,,,,,,,,,,,,,,,,,,,,,,,,,,,,,,,,,,,
,,,,,,,,2023-08-16_08h32.56.041,HF_wild_card,2022.2.4,MacIntel,60.45949214,57e17bdc1334540001170aa0,64d2fd46c836a06233681665,64dc7a3a13d7dc68afa1d418,,,,,,,decisionTrl,resources/DG.BMP,resources/DBN.BMP,Door3,0.44,0.098095238,1,0,0,0.999,optionRight,70,1900,1,37,0,37,0,1,,,,,,,,,,,,,,,,,,,,,,,,,,,,,,,,,,,,,,,
,,,,,,,,2023-08-16_08h32.56.041,HF_wild_card,2022.2.4,MacIntel,60.45949214,57e17bdc1334540001170aa0,64d2fd46c836a06233681665,64dc7a3a13d7dc68afa1d418,,,,,,,decisionTrl,resources/DP.BMP,resources/DB.BMP,WildCard_NonEx,-0.222857143,-0.068571429,1,0,0,2.239,optionLeft,55,1955,1,38,0,38,0,1,,,,,,,,,,,,,,,,,,,,,,,,,,,,,,,,,,,,,,,
,,,,,,,,2023-08-16_08h32.56.041,HF_wild_card,2022.2.4,MacIntel,60.45949214,57e17bdc1334540001170aa0,64d2fd46c836a06233681665,64dc7a3a13d7dc68afa1d418,,,,,,,decisionTrl,resources/DG.BMP,resources/DBN.BMP,Door3,0.365714286,0.066666667,1,0,0,1.003,optionRight,70,2025,1,39,0,39,0,1,,,,,,,,,,,,,,,,,,,,,,,,,,,,,,,,,,,,,,,
,,,,,,,,2023-08-16_08h32.56.041,HF_wild_card,2022.2.4,MacIntel,60.45949214,57e17bdc1334540001170aa0,64d2fd46c836a06233681665,64dc7a3a13d7dc68afa1d418,,,,,,,ctch,resources/DR.BMP,resources/DBN.BMP,Door3,0.17047619,0.012380952,1,0,0,1.138,optionRight,70,2095,1,40,0,40,0,1,,,,,,,,,,,,,,,,,,,,,,,,,,,,,,,,,,,,,,,
,,,,,,,,2023-08-16_08h32.56.041,HF_wild_card,2022.2.4,MacIntel,60.45949214,57e17bdc1334540001170aa0,64d2fd46c836a06233681665,64dc7a3a13d7dc68afa1d418,,,,,,,decisionTrl,resources/DG.BMP,resources/DP.BMP,Door4,-0.280952381,0.055238095,1,0,0,3.641,optionLeft,60,2155,1,41,0,41,0,1,,,,,,,,,,,,,,,,,,,,,,,,,,,,,,,,,,,,,,,
,,,,,,,,2023-08-16_08h32.56.041,HF_wild_card,2022.2.4,MacIntel,60.45949214,57e17bdc1334540001170aa0,64d2fd46c836a06233681665,64dc7a3a13d7dc68afa1d418,,,,,,,decisionTrl,resources/DBN.BMP,resources/DP.BMP,Door3,-0.232380952,0.016190476,1,0,0,1.283,optionLeft,70,2225,1,42,0,42,0,1,,,,,,,,,,,,,,,,,,,,,,,,,,,,,,,,,,,,,,,
,,,,,,,,2023-08-16_08h32.56.041,HF_wild_card,2022.2.4,MacIntel,60.45949214,57e17bdc1334540001170aa0,64d2fd46c836a06233681665,64dc7a3a13d7dc68afa1d418,,,,,,,ctch,resources/DB.BMP,resources/DG.BMP,Door4,0.25047619,-0.051428571,1,0,0,2.094,optionRight,60,2285,1,43,0,43,0,1,,,,,,,,,,,,,,,,,,,,,,,,,,,,,,,,,,,,,,,
,,,,,,,,2023-08-16_08h32.56.041,HF_wild_card,2022.2.4,MacIntel,60.45949214,57e17bdc1334540001170aa0,64d2fd46c836a06233681665,64dc7a3a13d7dc68afa1d418,,,,,,,,,,,,,,,,,,,,,,,,,,0,0,0,0,1,,,,,,,,,,,,,,,,,,,,,,,,,,,,,,,,,,
,,,,,,,,2023-08-16_08h32.56.041,HF_wild_card,2022.2.4,MacIntel,60.45949214,57e17bdc1334540001170aa0,64d2fd46c836a06233681665,64dc7a3a13d7dc68afa1d418,,,,,,,decisionTrl,resources/DG.BMP,resources/DBN.BMP,Door3,0.238095238,-0.137142857,1,0,0,12.6,optionRight,70,2355,2,0,0,0,0,1,,,,,,,,,,,,,,,,,,,,,,,,,,,,,,,,,,,,,,,
,,,,,,,,2023-08-16_08h32.56.041,HF_wild_card,2022.2.4,MacIntel,60.45949214,57e17bdc1334540001170aa0,64d2fd46c836a06233681665,64dc7a3a13d7dc68afa1d418,,,,,,,ctch,resources/DR.BMP,resources/DBN.BMP,Door3,0.282857143,-0.071428571,1,0,0,1.169,optionRight,70,2425,2,1,0,1,0,1,,,,,,,,,,,,,,,,,,,,,,,,,,,,,,,,,,,,,,,
,,,,,,,,2023-08-16_08h32.56.041,HF_wild_card,2022.2.4,MacIntel,60.45949214,57e17bdc1334540001170aa0,64d2fd46c836a06233681665,64dc7a3a13d7dc68afa1d418,,,,,,,sngl,resources/DP.BMP,resources/Empty.png,WildCard_NonEx,-0.311428571,-0.068571429,1,0,0,0.924,optionLeft,45,2470,2,2,0,2,0,1,,,,,,,,,,,,,,,,,,,,,,,,,,,,,,,,,,,,,,,
,,,,,,,,2023-08-16_08h32.56.041,HF_wild_card,2022.2.4,MacIntel,60.45949214,57e17bdc1334540001170aa0,64d2fd46c836a06233681665,64dc7a3a13d7dc68afa1d418,,,,,,,ctch,resources/DR.BMP,resources/DBN.BMP,Door3,0.235238095,0.06952381,1,0,0,0.902,optionRight,70,2540,2,3,0,3,0,1,,,,,,,,,,,,,,,,,,,,,,,,,,,,,,,,,,,,,,,
,,,,,,,,2023-08-16_08h32.56.041,HF_wild_card,2022.2.4,MacIntel,60.45949214,57e17bdc1334540001170aa0,64d2fd46c836a06233681665,64dc7a3a13d7dc68afa1d418,,,,,,,ctch,resources/DB.BMP,resources/DG.BMP,Door4,0.423809524,0.088571429,1,0,0,1.426,optionRight,80,2620,2,4,0,4,0,1,,,,,,,,,,,,,,,,,,,,,,,,,,,,,,,,,,,,,,,
,,,,,,,,2023-08-16_08h32.56.041,HF_wild_card,2022.2.4,MacIntel,60.45949214,57e17bdc1334540001170aa0,64d2fd46c836a06233681665,64dc7a3a13d7dc68afa1d418,,,,,,,decisionTrl,resources/DP.BMP,resources/DR.BMP,WildCard_NonEx,-0.255238095,-0.094285714,1,0,0,1.153,optionLeft,55,2675,2,5,0,5,0,1,,,,,,,,,,,,,,,,,,,,,,,,,,,,,,,,,,,,,,,
,,,,,,,,2023-08-16_08h32.56.041,HF_wild_card,2022.2.4,MacIntel,60.45949214,57e17bdc1334540001170aa0,64d2fd46c836a06233681665,64dc7a3a13d7dc68afa1d418,,,,,,,decisionTrl,resources/DP.BMP,resources/DB.BMP,WildCard_NonEx,-0.23047619,-0.062857143,1,0,0,1.123,optionLeft,45,2720,2,6,0,6,0,1,,,,,,,,,,,,,,,,,,,,,,,,,,,,,,,,,,,,,,,
,,,,,,,,2023-08-16_08h32.56.041,HF_wild_card,2022.2.4,MacIntel,60.45949214,57e17bdc1334540001170aa0,64d2fd46c836a06233681665,64dc7a3a13d7dc68afa1d418,,,,,,,decisionTrl,resources/DG.BMP,resources/DBN.BMP,Door3,0.325714286,0.131428571,1,0,0,0.84,optionRight,70,2790,2,7,0,7,0,1,,,,,,,,,,,,,,,,,,,,,,,,,,,,,,,,,,,,,,,
,,,,,,,,2023-08-16_08h32.56.041,HF_wild_card,2022.2.4,MacIntel,60.45949214,57e17bdc1334540001170aa0,64d2fd46c836a06233681665,64dc7a3a13d7dc68afa1d418,,,,,,,decisionTrl,resources/DB.BMP,resources/DR.BMP,Door1,-0.205714286,-0.059047619,1,0,0,1.257,optionLeft,30,2820,2,8,0,8,0,1,,,,,,,,,,,,,,,,,,,,,,,,,,,,,,,,,,,,,,,
,,,,,,,,2023-08-16_08h32.56.041,HF_wild_card,2022.2.4,MacIntel,60.45949214,57e17bdc1334540001170aa0,64d2fd46c836a06233681665,64dc7a3a13d7dc68afa1d418,,,,,,,decisionTrl,resources/DB.BMP,resources/DR.BMP,Door2,0.241904762,0.102857143,1,0,0,1.005,optionRight,20,2840,2,9,0,9,0,1,,,,,,,,,,,,,,,,,,,,,,,,,,,,,,,,,,,,,,,
,,,,,,,,2023-08-16_08h32.56.041,HF_wild_card,2022.2.4,MacIntel,60.45949214,57e17bdc1334540001170aa0,64d2fd46c836a06233681665,64dc7a3a13d7dc68afa1d418,,,,,,,sngl,resources/Empty.png,resources/DR.BMP,Door2,0.37047619,0.027619048,1,0,0,1.283,optionRight,40,2880,2,10,0,10,0,1,,,,,,,,,,,,,,,,,,,,,,,,,,,,,,,,,,,,,,,
,,,,,,,,2023-08-16_08h32.56.041,HF_wild_card,2022.2.4,MacIntel,60.45949214,57e17bdc1334540001170aa0,64d2fd46c836a06233681665,64dc7a3a13d7dc68afa1d418,,,,,,,decisionTrl,resources/DR.BMP,resources/DB.BMP,Door1,0.268571429,0.022857143,1,0,0,2.445,optionRight,30,2910,2,11,0,11,0,1,,,,,,,,,,,,,,,,,,,,,,,,,,,,,,,,,,,,,,,
,,,,,,,,2023-08-16_08h32.56.041,HF_wild_card,2022.2.4,MacIntel,60.45949214,57e17bdc1334540001170aa0,64d2fd46c836a06233681665,64dc7a3a13d7dc68afa1d418,,,,,,,decisionTrl,resources/DR.BMP,resources/DB.BMP,Door2,-0.276190476,-0.080952381,1,0,0,2.577,optionLeft,40,2950,2,12,0,12,0,1,,,,,,,,,,,,,,,,,,,,,,,,,,,,,,,,,,,,,,,
,,,,,,,,2023-08-16_08h32.56.041,HF_wild_card,2022.2.4,MacIntel,60.45949214,57e17bdc1334540001170aa0,64d2fd46c836a06233681665,64dc7a3a13d7dc68afa1d418,,,,,,,sngl,resources/DR.BMP,resources/Empty.png,Door2,-0.297142857,0.067619048,1,0,0,1.78,optionLeft,20,2970,2,13,0,13,0,1,,,,,,,,,,,,,,,,,,,,,,,,,,,,,,,,,,,,,,,
,,,,,,,,2023-08-16_08h32.56.041,HF_wild_card,2022.2.4,MacIntel,60.45949214,57e17bdc1334540001170aa0,64d2fd46c836a06233681665,64dc7a3a13d7dc68afa1d418,,,,,,,decisionTrl,resources/DR.BMP,resources/DB.BMP,Door1,0.219047619,0.015238095,1,0,0,1.625,optionRight,30,3000,2,14,0,14,0,1,,,,,,,,,,,,,,,,,,,,,,,,,,,,,,,,,,,,,,,
,,,,,,,,2023-08-16_08h32.56.041,HF_wild_card,2022.2.4,MacIntel,60.45949214,57e17bdc1334540001170aa0,64d2fd46c836a06233681665,64dc7a3a13d7dc68afa1d418,,,,,,,decisionTrl,resources/DG.BMP,resources/DBN.BMP,Door3,0.248571429,0.024761905,1,0,0,1.004,optionRight,70,3070,2,15,0,15,0,1,,,,,,,,,,,,,,,,,,,,,,,,,,,,,,,,,,,,,,,
,,,,,,,,2023-08-16_08h32.56.041,HF_wild_card,2022.2.4,MacIntel,60.45949214,57e17bdc1334540001170aa0,64d2fd46c836a06233681665,64dc7a3a13d7dc68afa1d418,,,,,,,decisionTrl,resources/DG.BMP,resources/DBN.BMP,Door3,0.18952381,0.044761905,1,0,0,0.79,optionRight,70,3140,2,16,0,16,0,1,,,,,,,,,,,,,,,,,,,,,,,,,,,,,,,,,,,,,,,
,,,,,,,,2023-08-16_08h32.56.041,HF_wild_card,2022.2.4,MacIntel,60.45949214,57e17bdc1334540001170aa0,64d2fd46c836a06233681665,64dc7a3a13d7dc68afa1d418,,,,,,,decisionTrl,resources/DBN.BMP,resources/DG.BMP,Door3,-0.377142857,-0.115238095,1,0,0,0.919,optionLeft,70,3210,2,17,0,17,0,1,,,,,,,,,,,,,,,,,,,,,,,,,,,,,,,,,,,,,,,
,,,,,,,,2023-08-16_08h32.56.041,HF_wild_card,2022.2.4,MacIntel,60.45949214,57e17bdc1334540001170aa0,64d2fd46c836a06233681665,64dc7a3a13d7dc68afa1d418,,,,,,,decisionTrl,resources/DR.BMP,resources/DB.BMP,Door1,0.334285714,0.08,1,0,0,1.355,optionRight,30,3240,2,18,0,18,0,1,,,,,,,,,,,,,,,,,,,,,,,,,,,,,,,,,,,,,,,
,,,,,,,,2023-08-16_08h32.56.041,HF_wild_card,2022.2.4,MacIntel,60.45949214,57e17bdc1334540001170aa0,64d2fd46c836a06233681665,64dc7a3a13d7dc68afa1d418,,,,,,,sngl,resources/Empty.png,resources/DB.BMP,Door1,0.252380952,0.073333333,1,0,0,0.853,optionRight,30,3270,2,19,0,19,0,1,,,,,,,,,,,,,,,,,,,,,,,,,,,,,,,,,,,,,,,
,,,,,,,,2023-08-16_08h32.56.041,HF_wild_card,2022.2.4,MacIntel,60.45949214,57e17bdc1334540001170aa0,64d2fd46c836a06233681665,64dc7a3a13d7dc68afa1d418,,,,,,,decisionTrl,resources/DBN.BMP,resources/DG.BMP,Door3,-0.22952381,-0.053333333,1,0,0,0.894,optionLeft,70,3340,2,20,0,20,0,1,,,,,,,,,,,,,,,,,,,,,,,,,,,,,,,,,,,,,,,
,,,,,,,,2023-08-16_08h32.56.041,HF_wild_card,2022.2.4,MacIntel,60.45949214,57e17bdc1334540001170aa0,64d2fd46c836a06233681665,64dc7a3a13d7dc68afa1d418,,,,,,,ctch,resources/DG.BMP,resources/DB.BMP,Door4,-0.178095238,0.026666667,1,0,0,3.492,optionLeft,80,3420,2,21,0,21,0,1,,,,,,,,,,,,,,,,,,,,,,,,,,,,,,,,,,,,,,,
,,,,,,,,2023-08-16_08h32.56.041,HF_wild_card,2022.2.4,MacIntel,60.45949214,57e17bdc1334540001170aa0,64d2fd46c836a06233681665,64dc7a3a13d7dc68afa1d418,,,,,,,decisionTrl,resources/DP.BMP,resources/DG.BMP,Door4,0.388571429,-0.001904762,1,0,0,1.639,optionRight,80,3500,2,22,0,22,0,1,,,,,,,,,,,,,,,,,,,,,,,,,,,,,,,,,,,,,,,
,,,,,,,,2023-08-16_08h32.56.041,HF_wild_card,2022.2.4,MacIntel,60.45949214,57e17bdc1334540001170aa0,64d2fd46c836a06233681665,64dc7a3a13d7dc68afa1d418,,,,,,,sngl,resources/Empty.png,resources/DP.BMP,WildCard_NonEx,0.301904762,0.099047619,1,0,0,0.903,optionRight,45,3545,2,23,0,23,0,1,,,,,,,,,,,,,,,,,,,,,,,,,,,,,,,,,,,,,,,
,,,,,,,,2023-08-16_08h32.56.041,HF_wild_card,2022.2.4,MacIntel,60.45949214,57e17bdc1334540001170aa0,64d2fd46c836a06233681665,64dc7a3a13d7dc68afa1d418,,,,,,,decisionTrl,resources/DBN.BMP,resources/DP.BMP,Door3,-0.254285714,-0.098095238,1,0,0,0.822,optionLeft,70,3615,2,24,0,24,0,1,,,,,,,,,,,,,,,,,,,,,,,,,,,,,,,,,,,,,,,
,,,,,,,,2023-08-16_08h32.56.041,HF_wild_card,2022.2.4,MacIntel,60.45949214,57e17bdc1334540001170aa0,64d2fd46c836a06233681665,64dc7a3a13d7dc68afa1d418,,,,,,,ctch,resources/DG.BMP,resources/DB.BMP,Door4,-0.311428571,-0.082857143,1,0,0,0.74,optionLeft,80,3695,2,25,0,25,0,1,,,,,,,,,,,,,,,,,,,,,,,,,,,,,,,,,,,,,,,
,,,,,,,,2023-08-16_08h32.56.041,HF_wild_card,2022.2.4,MacIntel,60.45949214,57e17bdc1334540001170aa0,64d2fd46c836a06233681665,64dc7a3a13d7dc68afa1d418,,,,,,,decisionTrl,resources/DBN.BMP,resources/DG.BMP,Door4,0.335238095,0.097142857,1,0,0,0.791,optionRight,80,3775,2,26,0,26,0,1,,,,,,,,,,,,,,,,,,,,,,,,,,,,,,,,,,,,,,,
,,,,,,,,2023-08-16_08h32.56.041,HF_wild_card,2022.2.4,MacIntel,60.45949214,57e17bdc1334540001170aa0,64d2fd46c836a06233681665,64dc7a3a13d7dc68afa1d418,,,,,,,decisionTrl,resources/DBN.BMP,resources/DG.BMP,Door3,-0.292380952,-0.088571429,1,0,0,0.659,optionLeft,70,3845,2,27,0,27,0,1,,,,,,,,,,,,,,,,,,,,,,,,,,,,,,,,,,,,,,,
,,,,,,,,2023-08-16_08h32.56.041,HF_wild_card,2022.2.4,MacIntel,60.45949214,57e17bdc1334540001170aa0,64d2fd46c836a06233681665,64dc7a3a13d7dc68afa1d418,,,,,,,sngl,resources/DG.BMP,resources/Empty.png,Door4,-0.231428571,-0.056190476,1,0,0,0.708,optionLeft,60,3905,2,28,0,28,0,1,,,,,,,,,,,,,,,,,,,,,,,,,,,,,,,,,,,,,,,
,,,,,,,,2023-08-16_08h32.56.041,HF_wild_card,2022.2.4,MacIntel,60.45949214,57e17bdc1334540001170aa0,64d2fd46c836a06233681665,64dc7a3a13d7dc68afa1d418,,,,,,,sngl,resources/Empty.png,resources/DG.BMP,Door4,0.337142857,0.087619048,1,0,0,0.787,optionRight,80,3985,2,29,0,29,0,1,,,,,,,,,,,,,,,,,,,,,,,,,,,,,,,,,,,,,,,
,,,,,,,,2023-08-16_08h32.56.041,HF_wild_card,2022.2.4,MacIntel,60.45949214,57e17bdc1334540001170aa0,64d2fd46c836a06233681665,64dc7a3a13d7dc68afa1d418,,,,,,,decisionTrl,resources/DB.BMP,resources/DR.BMP,Door2,0.248571429,0.074285714,1,0,0,1.824,optionRight,40,4025,2,30,0,30,0,1,,,,,,,,,,,,,,,,,,,,,,,,,,,,,,,,,,,,,,,
,,,,,,,,2023-08-16_08h32.56.041,HF_wild_card,2022.2.4,MacIntel,60.45949214,57e17bdc1334540001170aa0,64d2fd46c836a06233681665,64dc7a3a13d7dc68afa1d418,,,,,,,decisionTrl,resources/DG.BMP,resources/DP.BMP,Door4,-0.326666667,-0.114285714,1,0,0,1.507,optionLeft,80,4105,2,31,0,31,0,1,,,,,,,,,,,,,,,,,,,,,,,,,,,,,,,,,,,,,,,
,,,,,,,,2023-08-16_08h32.56.041,HF_wild_card,2022.2.4,MacIntel,60.45949214,57e17bdc1334540001170aa0,64d2fd46c836a06233681665,64dc7a3a13d7dc68afa1d418,,,,,,,sngl,resources/DB.BMP,resources/Empty.png,Door1,-0.288571429,-0.024761905,1,0,0,0.9,optionLeft,30,4135,2,32,0,32,0,1,,,,,,,,,,,,,,,,,,,,,,,,,,,,,,,,,,,,,,,
,,,,,,,,2023-08-16_08h32.56.041,HF_wild_card,2022.2.4,MacIntel,60.45949214,57e17bdc1334540001170aa0,64d2fd46c836a06233681665,64dc7a3a13d7dc68afa1d418,,,,,,,decisionTrl,resources/DB.BMP,resources/DP.BMP,WildCard_NonEx,0.198095238,0.032380952,1,0,0,1.525,optionRight,55,4190,2,33,0,33,0,1,,,,,,,,,,,,,,,,,,,,,,,,,,,,,,,,,,,,,,,
,,,,,,,,2023-08-16_08h32.56.041,HF_wild_card,2022.2.4,MacIntel,60.45949214,57e17bdc1334540001170aa0,64d2fd46c836a06233681665,64dc7a3a13d7dc68afa1d418,,,,,,,sngl,resources/Empty.png,resources/DBN.BMP,Door3,0.176190476,0.056190476,1,0,0,0.855,optionRight,70,4260,2,34,0,34,0,1,,,,,,,,,,,,,,,,,,,,,,,,,,,,,,,,,,,,,,,
,,,,,,,,2023-08-16_08h32.56.041,HF_wild_card,2022.2.4,MacIntel,60.45949214,57e17bdc1334540001170aa0,64d2fd46c836a06233681665,64dc7a3a13d7dc68afa1d418,,,,,,,ctch,resources/DB.BMP,resources/DG.BMP,Door4,0.319047619,0.132380952,1,0,0,1.083,optionRight,60,4320,2,35,0,35,0,1,,,,,,,,,,,,,,,,,,,,,,,,,,,,,,,,,,,,,,,
,,,,,,,,2023-08-16_08h32.56.041,HF_wild_card,2022.2.4,MacIntel,60.45949214,57e17bdc1334540001170aa0,64d2fd46c836a06233681665,64dc7a3a13d7dc68afa1d418,,,,,,,decisionTrl,resources/DB.BMP,resources/DR.BMP,Door2,0.477142857,0.124761905,1,0,0,1.86,optionRight,20,4340,2,36,0,36,0,1,,,,,,,,,,,,,,,,,,,,,,,,,,,,,,,,,,,,,,,
,,,,,,,,2023-08-16_08h32.56.041,HF_wild_card,2022.2.4,MacIntel,60.45949214,57e17bdc1334540001170aa0,64d2fd46c836a06233681665,64dc7a3a13d7dc68afa1d418,,,,,,,sngl,resources/DBN.BMP,resources/Empty.png,Door3,-0.331428571,-0.034285714,1,0,0,0.902,optionLeft,70,4410,2,37,0,37,0,1,,,,,,,,,,,,,,,,,,,,,,,,,,,,,,,,,,,,,,,
,,,,,,,,2023-08-16_08h32.56.041,HF_wild_card,2022.2.4,MacIntel,60.45949214,57e17bdc1334540001170aa0,64d2fd46c836a06233681665,64dc7a3a13d7dc68afa1d418,,,,,,,decisionTrl,resources/DP.BMP,resources/DBN.BMP,Door3,0.18952381,0.057142857,1,0,0,1.072,optionRight,70,4480,2,38,0,38,0,1,,,,,,,,,,,,,,,,,,,,,,,,,,,,,,,,,,,,,,,
,,,,,,,,2023-08-16_08h32.56.041,HF_wild_card,2022.2.4,MacIntel,60.45949214,57e17bdc1334540001170aa0,64d2fd46c836a06233681665,64dc7a3a13d7dc68afa1d418,,,,,,,ctch,resources/DBN.BMP,resources/DR.BMP,Door3,-0.201904762,-0.047619048,1,0,0,0.866,optionLeft,70,4550,2,39,0,39,0,1,,,,,,,,,,,,,,,,,,,,,,,,,,,,,,,,,,,,,,,
,,,,,,,,2023-08-16_08h32.56.041,HF_wild_card,2022.2.4,MacIntel,60.45949214,57e17bdc1334540001170aa0,64d2fd46c836a06233681665,64dc7a3a13d7dc68afa1d418,,,,,,,sngl,resources/Empty.png,resources/DP.BMP,WildCard_NonEx,0.305714286,0.082857143,1,0,0,0.864,optionRight,55,4605,2,40,0,40,0,1,,,,,,,,,,,,,,,,,,,,,,,,,,,,,,,,,,,,,,,
,,,,,,,,2023-08-16_08h32.56.041,HF_wild_card,2022.2.4,MacIntel,60.45949214,57e17bdc1334540001170aa0,64d2fd46c836a06233681665,64dc7a3a13d7dc68afa1d418,,,,,,,sngl,resources/DP.BMP,resources/Empty.png,WildCard_NonEx,-0.194285714,-0.023809524,1,0,0,0.817,optionLeft,55,4660,2,41,0,41,0,1,,,,,,,,,,,,,,,,,,,,,,,,,,,,,,,,,,,,,,,
,,,,,,,,2023-08-16_08h32.56.041,HF_wild_card,2022.2.4,MacIntel,60.45949214,57e17bdc1334540001170aa0,64d2fd46c836a06233681665,64dc7a3a13d7dc68afa1d418,,,,,,,ctch,resources/DBN.BMP,resources/DR.BMP,Door3,-0.12952381,-0.02952381,1,0,0,1.656,optionLeft,70,4730,2,42,0,42,0,1,,,,,,,,,,,,,,,,,,,,,,,,,,,,,,,,,,,,,,,
,,,,,,,,2023-08-16_08h32.56.041,HF_wild_card,2022.2.4,MacIntel,60.45949214,57e17bdc1334540001170aa0,64d2fd46c836a06233681665,64dc7a3a13d7dc68afa1d418,,,,,,,decisionTrl,resources/DR.BMP,resources/DP.BMP,WildCard_NonEx,0.281904762,0.060952381,1,0,0,1.104,optionRight,55,4785,2,43,0,43,0,1,,,,,,,,,,,,,,,,,,,,,,,,,,,,,,,,,,,,,,,
,,,,,,,,2023-08-16_08h32.56.041,HF_wild_card,2022.2.4,MacIntel,60.45949214,57e17bdc1334540001170aa0,64d2fd46c836a06233681665,64dc7a3a13d7dc68afa1d418,,,,,,,,,,,,,,,,,,,,,,,,,,1,0,1,0,1,,,,,,,,,,,,,,,,,,,,,,,,,,,,,,,,,,
,,,,,,,,2023-08-16_08h32.56.041,HF_wild_card,2022.2.4,MacIntel,60.45949214,57e17bdc1334540001170aa0,64d2fd46c836a06233681665,64dc7a3a13d7dc68afa1d418,,,,,,,ctch,resources/DB.BMP,resources/DG.BMP,Door4,0.21047619,-0.142857143,1,0,0,5.521,optionRight,80,4865,3,0,0,0,0,1,,,,,,,,,,,,,,,,,,,,,,,,,,,,,,,,,,,,,,,
,,,,,,,,2023-08-16_08h32.56.041,HF_wild_card,2022.2.4,MacIntel,60.45949214,57e17bdc1334540001170aa0,64d2fd46c836a06233681665,64dc7a3a13d7dc68afa1d418,,,,,,,sngl,resources/Empty.png,resources/DG.BMP,Door4,0.325714286,0.052380952,1,0,0,0.9,optionRight,60,4925,3,1,0,1,0,1,,,,,,,,,,,,,,,,,,,,,,,,,,,,,,,,,,,,,,,
,,,,,,,,2023-08-16_08h32.56.041,HF_wild_card,2022.2.4,MacIntel,60.45949214,57e17bdc1334540001170aa0,64d2fd46c836a06233681665,64dc7a3a13d7dc68afa1d418,,,,,,,decisionTrl,resources/DG.BMP,resources/DBN.BMP,Door3,0.264761905,0.064761905,1,0,0,1.391,optionRight,70,4995,3,2,0,2,0,1,,,,,,,,,,,,,,,,,,,,,,,,,,,,,,,,,,,,,,,
,,,,,,,,2023-08-16_08h32.56.041,HF_wild_card,2022.2.4,MacIntel,60.45949214,57e17bdc1334540001170aa0,64d2fd46c836a06233681665,64dc7a3a13d7dc68afa1d418,,,,,,,decisionTrl,resources/DB.BMP,resources/DR.BMP,Door2,0.197142857,0.094285714,1,0,0,1.471,optionRight,40,5035,3,3,0,3,0,1,,,,,,,,,,,,,,,,,,,,,,,,,,,,,,,,,,,,,,,
,,,,,,,,2023-08-16_08h32.56.041,HF_wild_card,2022.2.4,MacIntel,60.45949214,57e17bdc1334540001170aa0,64d2fd46c836a06233681665,64dc7a3a13d7dc68afa1d418,,,,,,,decisionTrl,resources/DG.BMP,resources/DBN.BMP,Door4,-0.222857143,-0.003809524,1,0,0,1.622,optionLeft,60,5095,3,4,0,4,0,1,,,,,,,,,,,,,,,,,,,,,,,,,,,,,,,,,,,,,,,
,,,,,,,,2023-08-16_08h32.56.041,HF_wild_card,2022.2.4,MacIntel,60.45949214,57e17bdc1334540001170aa0,64d2fd46c836a06233681665,64dc7a3a13d7dc68afa1d418,,,,,,,ctch,resources/DB.BMP,resources/DG.BMP,Door4,0.207619048,0.051428571,1,0,0,1.305,optionRight,60,5155,3,5,0,5,0,1,,,,,,,,,,,,,,,,,,,,,,,,,,,,,,,,,,,,,,,
,,,,,,,,2023-08-16_08h32.56.041,HF_wild_card,2022.2.4,MacIntel,60.45949214,57e17bdc1334540001170aa0,64d2fd46c836a06233681665,64dc7a3a13d7dc68afa1d418,,,,,,,decisionTrl,resources/DP.BMP,resources/DG.BMP,WildCard_NonEx,-0.195238095,-0.031428571,1,0,0,1.054,optionLeft,45,5200,3,6,0,6,0,1,,,,,,,,,,,,,,,,,,,,,,,,,,,,,,,,,,,,,,,
,,,,,,,,2023-08-16_08h32.56.041,HF_wild_card,2022.2.4,MacIntel,60.45949214,57e17bdc1334540001170aa0,64d2fd46c836a06233681665,64dc7a3a13d7dc68afa1d418,,,,,,,sngl,resources/DR.BMP,resources/Empty.png,Door2,-0.18952381,-0.060952381,1,0,0,1.256,optionLeft,40,5240,3,7,0,7,0,1,,,,,,,,,,,,,,,,,,,,,,,,,,,,,,,,,,,,,,,
,,,,,,,,2023-08-16_08h32.56.041,HF_wild_card,2022.2.4,MacIntel,60.45949214,57e17bdc1334540001170aa0,64d2fd46c836a06233681665,64dc7a3a13d7dc68afa1d418,,,,,,,sngl,resources/Empty.png,resources/DP.BMP,WildCard_NonEx,0.275238095,0.031428571,1,0,0,0.705,optionRight,45,5285,3,8,0,8,0,1,,,,,,,,,,,,,,,,,,,,,,,,,,,,,,,,,,,,,,,
,,,,,,,,2023-08-16_08h32.56.041,HF_wild_card,2022.2.4,MacIntel,60.45949214,57e17bdc1334540001170aa0,64d2fd46c836a06233681665,64dc7a3a13d7dc68afa1d418,,,,,,,sngl,resources/DG.BMP,resources/Empty.png,Door4,-0.200952381,-0.003809524,1,0,0,0.636,optionLeft,80,5365,3,9,0,9,0,1,,,,,,,,,,,,,,,,,,,,,,,,,,,,,,,,,,,,,,,
,,,,,,,,2023-08-16_08h32.56.041,HF_wild_card,2022.2.4,MacIntel,60.45949214,57e17bdc1334540001170aa0,64d2fd46c836a06233681665,64dc7a3a13d7dc68afa1d418,,,,,,,decisionTrl,resources/DG.BMP,resources/DP.BMP,Door4,-0.377142857,-0.076190476,1,0,0,1.205,optionLeft,80,5445,3,10,0,10,0,1,,,,,,,,,,,,,,,,,,,,,,,,,,,,,,,,,,,,,,,
,,,,,,,,2023-08-16_08h32.56.041,HF_wild_card,2022.2.4,MacIntel,60.45949214,57e17bdc1334540001170aa0,64d2fd46c836a06233681665,64dc7a3a13d7dc68afa1d418,,,,,,,sngl,resources/DP.BMP,resources/Empty.png,WildCard_NonEx,-0.282857143,-0.041904762,1,0,0,0.787,optionLeft,55,5500,3,11,0,11,0,1,,,,,,,,,,,,,,,,,,,,,,,,,,,,,,,,,,,,,,,
,,,,,,,,2023-08-16_08h32.56.041,HF_wild_card,2022.2.4,MacIntel,60.45949214,57e17bdc1334540001170aa0,64d2fd46c836a06233681665,64dc7a3a13d7dc68afa1d418,,,,,,,decisionTrl,resources/DG.BMP,resources/DBN.BMP,Door4,-0.266666667,-0.017142857,1,0,0,0.869,optionLeft,60,5560,3,12,0,12,0,1,,,,,,,,,,,,,,,,,,,,,,,,,,,,,,,,,,,,,,,
,,,,,,,,2023-08-16_08h32.56.041,HF_wild_card,2022.2.4,MacIntel,60.45949214,57e17bdc1334540001170aa0,64d2fd46c836a06233681665,64dc7a3a13d7dc68afa1d418,,,,,,,decisionTrl,resources/DG.BMP,resources/DBN.BMP,Door3,0.255238095,0.045714286,1,0,0,0.787,optionRight,70,5630,3,13,0,13,0,1,,,,,,,,,,,,,,,,,,,,,,,,,,,,,,,,,,,,,,,
,,,,,,,,2023-08-16_08h32.56.041,HF_wild_card,2022.2.4,MacIntel,60.45949214,57e17bdc1334540001170aa0,64d2fd46c836a06233681665,64dc7a3a13d7dc68afa1d418,,,,,,,sngl,resources/Empty.png,resources/DBN.BMP,Door3,0.232380952,0.045714286,1,0,0,0.8,optionRight,70,5700,3,14,0,14,0,1,,,,,,,,,,,,,,,,,,,,,,,,,,,,,,,,,,,,,,,
,,,,,,,,2023-08-16_08h32.56.041,HF_wild_card,2022.2.4,MacIntel,60.45949214,57e17bdc1334540001170aa0,64d2fd46c836a06233681665,64dc7a3a13d7dc68afa1d418,,,,,,,ctch,resources/DBN.BMP,resources/DR.BMP,Door3,-0.213333333,-0.044761905,1,0,0,1.12,optionLeft,70,5770,3,15,0,15,0,1,,,,,,,,,,,,,,,,,,,,,,,,,,,,,,,,,,,,,,,
,,,,,,,,2023-08-16_08h32.56.041,HF_wild_card,2022.2.4,MacIntel,60.45949214,57e17bdc1334540001170aa0,64d2fd46c836a06233681665,64dc7a3a13d7dc68afa1d418,,,,,,,ctch,resources/DBN.BMP,resources/DR.BMP,Door3,-0.191428571,-0.051428571,1,0,0,1.523,optionLeft,70,5840,3,16,0,16,0,1,,,,,,,,,,,,,,,,,,,,,,,,,,,,,,,,,,,,,,,
,,,,,,,,2023-08-16_08h32.56.041,HF_wild_card,2022.2.4,MacIntel,60.45949214,57e17bdc1334540001170aa0,64d2fd46c836a06233681665,64dc7a3a13d7dc68afa1d418,,,,,,,decisionTrl,resources/DBN.BMP,resources/DG.BMP,Door3,-0.240952381,-0.046666667,1,0,0,1.158,optionLeft,70,5910,3,17,0,17,0,1,,,,,,,,,,,,,,,,,,,,,,,,,,,,,,,,,,,,,,,
,,,,,,,,2023-08-16_08h32.56.041,HF_wild_card,2022.2.4,MacIntel,60.45949214,57e17bdc1334540001170aa0,64d2fd46c836a06233681665,64dc7a3a13d7dc68afa1d418,,,,,,,decisionTrl,resources/DBN.BMP,resources/DG.BMP,Door3,-0.195238095,-0.018095238,1,0,0,0.73,optionLeft,70,5980,3,18,0,18,0,1,,,,,,,,,,,,,,,,,,,,,,,,,,,,,,,,,,,,,,,
,,,,,,,,2023-08-16_08h32.56.041,HF_wild_card,2022.2.4,MacIntel,60.45949214,57e17bdc1334540001170aa0,64d2fd46c836a06233681665,64dc7a3a13d7dc68afa1d418,,,,,,,sngl,resources/Empty.png,resources/DR.BMP,Door2,0.328571429,0.062857143,1,0,0,0.872,optionRight,20,6000,3,19,0,19,0,1,,,,,,,,,,,,,,,,,,,,,,,,,,,,,,,,,,,,,,,
,,,,,,,,2023-08-16_08h32.56.041,HF_wild_card,2022.2.4,MacIntel,60.45949214,57e17bdc1334540001170aa0,64d2fd46c836a06233681665,64dc7a3a13d7dc68afa1d418,,,,,,,sngl,resources/Empty.png,resources/DP.BMP,WildCard_NonEx,0.219047619,0.063809524,1,0,0,0.749,optionRight,55,6055,3,20,0,20,0,1,,,,,,,,,,,,,,,,,,,,,,,,,,,,,,,,,,,,,,,
,,,,,,,,2023-08-16_08h32.56.041,HF_wild_card,2022.2.4,MacIntel,60.45949214,57e17bdc1334540001170aa0,64d2fd46c836a06233681665,64dc7a3a13d7dc68afa1d418,,,,,,,decisionTrl,resources/DR.BMP,resources/DB.BMP,Door1,-0.098095238,-0.011428571,1,0,0,1.289,optionRight,30,6085,3,21,0,21,0,1,,,,,,,,,,,,,,,,,,,,,,,,,,,,,,,,,,,,,,,
,,,,,,,,2023-08-16_08h32.56.041,HF_wild_card,2022.2.4,MacIntel,60.45949214,57e17bdc1334540001170aa0,64d2fd46c836a06233681665,64dc7a3a13d7dc68afa1d418,,,,,,,ctch,resources/DR.BMP,resources/DBN.BMP,Door3,0.183809524,0.012380952,1,0,0,1.048,optionRight,70,6155,3,22,0,22,0,1,,,,,,,,,,,,,,,,,,,,,,,,,,,,,,,,,,,,,,,
,,,,,,,,2023-08-16_08h32.56.041,HF_wild_card,2022.2.4,MacIntel,60.45949214,57e17bdc1334540001170aa0,64d2fd46c836a06233681665,64dc7a3a13d7dc68afa1d418,,,,,,,decisionTrl,resources/DBN.BMP,resources/DG.BMP,Door3,-0.24952381,-0.077142857,1,0,0,0.998,optionLeft,70,6225,3,23,0,23,0,1,,,,,,,,,,,,,,,,,,,,,,,,,,,,,,,,,,,,,,,
,,,,,,,,2023-08-16_08h32.56.041,HF_wild_card,2022.2.4,MacIntel,60.45949214,57e17bdc1334540001170aa0,64d2fd46c836a06233681665,64dc7a3a13d7dc68afa1d418,,,,,,,ctch,resources/DR.BMP,resources/DBN.BMP,Door3,0.179047619,0.015238095,1,0,0,1.255,optionRight,70,6295,3,24,0,24,0,1,,,,,,,,,,,,,,,,,,,,,,,,,,,,,,,,,,,,,,,
,,,,,,,,2023-08-16_08h32.56.041,HF_wild_card,2022.2.4,MacIntel,60.45949214,57e17bdc1334540001170aa0,64d2fd46c836a06233681665,64dc7a3a13d7dc68afa1d418,,,,,,,decisionTrl,resources/DB.BMP,resources/DR.BMP,Door1,-0.188571429,-0.05047619,1,0,0,2.17,optionLeft,30,6325,3,25,0,25,0,1,,,,,,,,,,,,,,,,,,,,,,,,,,,,,,,,,,,,,,,
,,,,,,,,2023-08-16_08h32.56.041,HF_wild_card,2022.2.4,MacIntel,60.45949214,57e17bdc1334540001170aa0,64d2fd46c836a06233681665,64dc7a3a13d7dc68afa1d418,,,,,,,decisionTrl,resources/DP.BMP,resources/DR.BMP,WildCard_NonEx,-0.262857143,-0.106666667,1,0,0,1.206,optionLeft,45,6370,3,26,0,26,0,1,,,,,,,,,,,,,,,,,,,,,,,,,,,,,,,,,,,,,,,
,,,,,,,,2023-08-16_08h32.56.041,HF_wild_card,2022.2.4,MacIntel,60.45949214,57e17bdc1334540001170aa0,64d2fd46c836a06233681665,64dc7a3a13d7dc68afa1d418,,,,,,,decisionTrl,resources/DB.BMP,resources/DR.BMP,Door1,-0.4,-0.154285714,1,0,0,1.989,optionLeft,30,6400,3,27,0,27,0,1,,,,,,,,,,,,,,,,,,,,,,,,,,,,,,,,,,,,,,,
,,,,,,,,2023-08-16_08h32.56.041,HF_wild_card,2022.2.4,MacIntel,60.45949214,57e17bdc1334540001170aa0,64d2fd46c836a06233681665,64dc7a3a13d7dc68afa1d418,,,,,,,ctch,resources/DG.BMP,resources/DB.BMP,Door4,-0.226666667,-0.047619048,1,0,0,1.424,optionLeft,60,6460,3,28,0,28,0,1,,,,,,,,,,,,,,,,,,,,,,,,,,,,,,,,,,,,,,,
,,,,,,,,2023-08-16_08h32.56.041,HF_wild_card,2022.2.4,MacIntel,60.45949214,57e17bdc1334540001170aa0,64d2fd46c836a06233681665,64dc7a3a13d7dc68afa1d418,,,,,,,sngl,resources/Empty.png,resources/DB.BMP,Door1,0.219047619,0.068571429,1,0,0,0.985,optionRight,30,6490,3,29,0,29,0,1,,,,,,,,,,,,,,,,,,,,,,,,,,,,,,,,,,,,,,,
,,,,,,,,2023-08-16_08h32.56.041,HF_wild_card,2022.2.4,MacIntel,60.45949214,57e17bdc1334540001170aa0,64d2fd46c836a06233681665,64dc7a3a13d7dc68afa1d418,,,,,,,decisionTrl,resources/DR.BMP,resources/DB.BMP,Door1,0.196190476,0.027619048,1,0,0,2.252,optionRight,30,6520,3,30,0,30,0,1,,,,,,,,,,,,,,,,,,,,,,,,,,,,,,,,,,,,,,,
,,,,,,,,2023-08-16_08h32.56.041,HF_wild_card,2022.2.4,MacIntel,60.45949214,57e17bdc1334540001170aa0,64d2fd46c836a06233681665,64dc7a3a13d7dc68afa1d418,,,,,,,sngl,resources/DB.BMP,resources/Empty.png,Door1,-0.196190476,-0.098095238,1,0,0,0.772,optionLeft,30,6550,3,31,0,31,0,1,,,,,,,,,,,,,,,,,,,,,,,,,,,,,,,,,,,,,,,
,,,,,,,,2023-08-16_08h32.56.041,HF_wild_card,2022.2.4,MacIntel,60.45949214,57e17bdc1334540001170aa0,64d2fd46c836a06233681665,64dc7a3a13d7dc68afa1d418,,,,,,,decisionTrl,resources/DR.BMP,resources/DB.BMP,Door2,-0.148571429,-0.067619048,1,0,0,1.489,optionLeft,20,6570,3,32,0,32,0,1,,,,,,,,,,,,,,,,,,,,,,,,,,,,,,,,,,,,,,,
,,,,,,,,2023-08-16_08h32.56.041,HF_wild_card,2022.2.4,MacIntel,60.45949214,57e17bdc1334540001170aa0,64d2fd46c836a06233681665,64dc7a3a13d7dc68afa1d418,,,,,,,decisionTrl,resources/DR.BMP,resources/DP.BMP,WildCard_NonEx,0.262857143,0.028571429,1,0,0,1.287,optionRight,55,6625,3,33,0,33,0,1,,,,,,,,,,,,,,,,,,,,,,,,,,,,,,,,,,,,,,,
,,,,,,,,2023-08-16_08h32.56.041,HF_wild_card,2022.2.4,MacIntel,60.45949214,57e17bdc1334540001170aa0,64d2fd46c836a06233681665,64dc7a3a13d7dc68afa1d418,,,,,,,decisionTrl,resources/DBN.BMP,resources/DG.BMP,Door3,-0.306666667,-0.102857143,1,0,0,1.118,optionLeft,70,6695,3,34,0,34,0,1,,,,,,,,,,,,,,,,,,,,,,,,,,,,,,,,,,,,,,,
,,,,,,,,2023-08-16_08h32.56.041,HF_wild_card,2022.2.4,MacIntel,60.45949214,57e17bdc1334540001170aa0,64d2fd46c836a06233681665,64dc7a3a13d7dc68afa1d418,,,,,,,decisionTrl,resources/DP.BMP,resources/DB.BMP,WildCard_NonEx,-0.37047619,-0.062857143,1,0,0,1.886,optionLeft,45,6740,3,35,0,35,0,1,,,,,,,,,,,,,,,,,,,,,,,,,,,,,,,,,,,,,,,
,,,,,,,,2023-08-16_08h32.56.041,HF_wild_card,2022.2.4,MacIntel,60.45949214,57e17bdc1334540001170aa0,64d2fd46c836a06233681665,64dc7a3a13d7dc68afa1d418,,,,,,,decisionTrl,resources/DBN.BMP,resources/DP.BMP,Door3,-0.4,-0.154285714,1,0,0,1.27,optionLeft,70,6810,3,36,0,36,0,1,,,,,,,,,,,,,,,,,,,,,,,,,,,,,,,,,,,,,,,
,,,,,,,,2023-08-16_08h32.56.041,HF_wild_card,2022.2.4,MacIntel,60.45949214,57e17bdc1334540001170aa0,64d2fd46c836a06233681665,64dc7a3a13d7dc68afa1d418,,,,,,,sngl,resources/DBN.BMP,resources/Empty.png,Door3,-0.207619048,-0.05047619,1,0,0,1.522,optionLeft,70,6880,3,37,0,37,0,1,,,,,,,,,,,,,,,,,,,,,,,,,,,,,,,,,,,,,,,
,,,,,,,,2023-08-16_08h32.56.041,HF_wild_card,2022.2.4,MacIntel,60.45949214,57e17bdc1334540001170aa0,64d2fd46c836a06233681665,64dc7a3a13d7dc68afa1d418,,,,,,,ctch,resources/DG.BMP,resources/DB.BMP,Door4,-0.235238095,-0.085714286,1,0,0,1.584,optionLeft,80,6960,3,38,0,38,0,1,,,,,,,,,,,,,,,,,,,,,,,,,,,,,,,,,,,,,,,
,,,,,,,,2023-08-16_08h32.56.041,HF_wild_card,2022.2.4,MacIntel,60.45949214,57e17bdc1334540001170aa0,64d2fd46c836a06233681665,64dc7a3a13d7dc68afa1d418,,,,,,,decisionTrl,resources/DB.BMP,resources/DP.BMP,WildCard_NonEx,0.257142857,-0.040952381,1,0,0,2.056,optionRight,55,7015,3,39,0,39,0,1,,,,,,,,,,,,,,,,,,,,,,,,,,,,,,,,,,,,,,,
,,,,,,,,2023-08-16_08h32.56.041,HF_wild_card,2022.2.4,MacIntel,60.45949214,57e17bdc1334540001170aa0,64d2fd46c836a06233681665,64dc7a3a13d7dc68afa1d418,,,,,,,decisionTrl,resources/DB.BMP,resources/DR.BMP,Door2,0.415238095,-0.033333333,1,0,0,3.007,optionRight,20,7035,3,40,0,40,0,1,,,,,,,,,,,,,,,,,,,,,,,,,,,,,,,,,,,,,,,
,,,,,,,,2023-08-16_08h32.56.041,HF_wild_card,2022.2.4,MacIntel,60.45949214,57e17bdc1334540001170aa0,64d2fd46c836a06233681665,64dc7a3a13d7dc68afa1d418,,,,,,,decisionTrl,resources/DP.BMP,resources/DBN.BMP,Door3,0.152380952,-0.012380952,1,0,0,1.038,optionRight,70,7105,3,41,0,41,0,1,,,,,,,,,,,,,,,,,,,,,,,,,,,,,,,,,,,,,,,
,,,,,,,,2023-08-16_08h32.56.041,HF_wild_card,2022.2.4,MacIntel,60.45949214,57e17bdc1334540001170aa0,64d2fd46c836a06233681665,64dc7a3a13d7dc68afa1d418,,,,,,,sngl,resources/DP.BMP,resources/Empty.png,WildCard_NonEx,-0.254285714,-0.035238095,1,0,0,0.652,optionLeft,45,7150,3,42,0,42,0,1,,,,,,,,,,,,,,,,,,,,,,,,,,,,,,,,,,,,,,,
,,,,,,,,2023-08-16_08h32.56.041,HF_wild_card,2022.2.4,MacIntel,60.45949214,57e17bdc1334540001170aa0,64d2fd46c836a06233681665,64dc7a3a13d7dc68afa1d418,,,,,,,decisionTrl,resources/DR.BMP,resources/DB.BMP,Door1,0.278095238,0.016190476,1,0,0,1.64,optionRight,30,7180,3,43,0,43,0,1,,,,,,,,,,,,,,,,,,,,,,,,,,,,,,,,,,,,,,,
,,,,,,,,2023-08-16_08h32.56.041,HF_wild_card,2022.2.4,MacIntel,60.45949214,57e17bdc1334540001170aa0,64d2fd46c836a06233681665,64dc7a3a13d7dc68afa1d418,,,,,,,,,,,,,,,,,,,,,,,,,,2,0,2,0,1,,,,,,,,,,,,,,,,,,,,,,,,,,,,,,,,,,
,,,,,,,,2023-08-16_08h32.56.041,HF_wild_card,2022.2.4,MacIntel,60.45949214,57e17bdc1334540001170aa0,64d2fd46c836a06233681665,64dc7a3a13d7dc68afa1d418,,,,,,,decisionTrl,resources/DBN.BMP,resources/DY.BMP,WildCard_Ex,0.215238095,-0.058095238,1,0,0,1.455,optionRight,55,7235,4,0,0,0,0,1,,,,,,,,,,,,,,,,,,,,,,,,,,,,,,,,,,,,,,,
,,,,,,,,2023-08-16_08h32.56.041,HF_wild_card,2022.2.4,MacIntel,60.45949214,57e17bdc1334540001170aa0,64d2fd46c836a06233681665,64dc7a3a13d7dc68afa1d418,,,,,,,sngl,resources/Empty.png,resources/DB.BMP,Door1,0.208571429,-0.037142857,1,0,0,0.772,optionRight,30,7265,4,1,0,1,0,1,,,,,,,,,,,,,,,,,,,,,,,,,,,,,,,,,,,,,,,
,,,,,,,,2023-08-16_08h32.56.041,HF_wild_card,2022.2.4,MacIntel,60.45949214,57e17bdc1334540001170aa0,64d2fd46c836a06233681665,64dc7a3a13d7dc68afa1d418,,,,,,,decisionTrl,resources/DY.BMP,resources/DB.BMP,WildCard_Ex,-0.202857143,-0.016190476,1,0,0,0.815,optionLeft,55,7320,4,2,0,2,0,1,,,,,,,,,,,,,,,,,,,,,,,,,,,,,,,,,,,,,,,
,,,,,,,,2023-08-16_08h32.56.041,HF_wild_card,2022.2.4,MacIntel,60.45949214,57e17bdc1334540001170aa0,64d2fd46c836a06233681665,64dc7a3a13d7dc68afa1d418,,,,,,,decisionTrl,resources/DR.BMP,resources/DY.BMP,WildCard_Ex,0.22,0.075238095,1,0,0,1.173,optionRight,45,7365,4,3,0,3,0,1,,,,,,,,,,,,,,,,,,,,,,,,,,,,,,,,,,,,,,,
,,,,,,,,2023-08-16_08h32.56.041,HF_wild_card,2022.2.4,MacIntel,60.45949214,57e17bdc1334540001170aa0,64d2fd46c836a06233681665,64dc7a3a13d7dc68afa1d418,,,,,,,ctch,resources/DR.BMP,resources/DBN.BMP,Door3,0.167619048,0.008571429,1,0,0,0.983,optionRight,70,7435,4,4,0,4,0,1,,,,,,,,,,,,,,,,,,,,,,,,,,,,,,,,,,,,,,,
,,,,,,,,2023-08-16_08h32.56.041,HF_wild_card,2022.2.4,MacIntel,60.45949214,57e17bdc1334540001170aa0,64d2fd46c836a06233681665,64dc7a3a13d7dc68afa1d418,,,,,,,decisionTrl,resources/DY.BMP,resources/DBN.BMP,WildCard_Ex,-0.25047619,-0.087619048,1,0,0,1.492,optionLeft,45,7480,4,5,0,5,0,1,,,,,,,,,,,,,,,,,,,,,,,,,,,,,,,,,,,,,,,
,,,,,,,,2023-08-16_08h32.56.041,HF_wild_card,2022.2.4,MacIntel,60.45949214,57e17bdc1334540001170aa0,64d2fd46c836a06233681665,64dc7a3a13d7dc68afa1d418,,,,,,,sngl,resources/Empty.png,resources/DR.BMP,Door2,0.317142857,0.057142857,1,0,0,0.799,optionRight,40,7520,4,6,0,6,0,1,,,,,,,,,,,,,,,,,,,,,,,,,,,,,,,,,,,,,,,
,,,,,,,,2023-08-16_08h32.56.041,HF_wild_card,2022.2.4,MacIntel,60.45949214,57e17bdc1334540001170aa0,64d2fd46c836a06233681665,64dc7a3a13d7dc68afa1d418,,,,,,,decisionTrl,resources/DB.BMP,resources/DR.BMP,Door1,-0.323809524,-0.126666667,1,0,0,1.676,optionLeft,30,7550,4,7,0,7,0,1,,,,,,,,,,,,,,,,,,,,,,,,,,,,,,,,,,,,,,,
,,,,,,,,2023-08-16_08h32.56.041,HF_wild_card,2022.2.4,MacIntel,60.45949214,57e17bdc1334540001170aa0,64d2fd46c836a06233681665,64dc7a3a13d7dc68afa1d418,,,,,,,decisionTrl,resources/DG.BMP,resources/DBN.BMP,Door3,0.246666667,0.035238095,1,0,0,1.019,optionRight,70,7620,4,8,0,8,0,1,,,,,,,,,,,,,,,,,,,,,,,,,,,,,,,,,,,,,,,
,,,,,,,,2023-08-16_08h32.56.041,HF_wild_card,2022.2.4,MacIntel,60.45949214,57e17bdc1334540001170aa0,64d2fd46c836a06233681665,64dc7a3a13d7dc68afa1d418,,,,,,,decisionTrl,resources/DG.BMP,resources/DY.BMP,Door4,-0.265714286,-0.052380952,1,0,0,0.654,optionLeft,80,7700,4,9,0,9,0,1,,,,,,,,,,,,,,,,,,,,,,,,,,,,,,,,,,,,,,,
,,,,,,,,2023-08-16_08h32.56.041,HF_wild_card,2022.2.4,MacIntel,60.45949214,57e17bdc1334540001170aa0,64d2fd46c836a06233681665,64dc7a3a13d7dc68afa1d418,,,,,,,decisionTrl,resources/DB.BMP,resources/DR.BMP,Door2,0.193333333,0.042857143,1,0,0,1.351,optionRight,20,7720,4,10,0,10,0,1,,,,,,,,,,,,,,,,,,,,,,,,,,,,,,,,,,,,,,,
,,,,,,,,2023-08-16_08h32.56.041,HF_wild_card,2022.2.4,MacIntel,60.45949214,57e17bdc1334540001170aa0,64d2fd46c836a06233681665,64dc7a3a13d7dc68afa1d418,,,,,,,ctch,resources/DBN.BMP,resources/DR.BMP,Door3,-0.174285714,-0.034285714,1,0,0,1.074,optionLeft,70,7790,4,11,0,11,0,1,,,,,,,,,,,,,,,,,,,,,,,,,,,,,,,,,,,,,,,
,,,,,,,,2023-08-16_08h32.56.041,HF_wild_card,2022.2.4,MacIntel,60.45949214,57e17bdc1334540001170aa0,64d2fd46c836a06233681665,64dc7a3a13d7dc68afa1d418,,,,,,,decisionTrl,resources/DR.BMP,resources/DB.BMP,Door2,-0.381904762,-0.10952381,1,0,0,1.14,optionLeft,20,7810,4,12,0,12,0,1,,,,,,,,,,,,,,,,,,,,,,,,,,,,,,,,,,,,,,,
,,,,,,,,2023-08-16_08h32.56.041,HF_wild_card,2022.2.4,MacIntel,60.45949214,57e17bdc1334540001170aa0,64d2fd46c836a06233681665,64dc7a3a13d7dc68afa1d418,,,,,,,sngl,resources/DG.BMP,resources/Empty.png,Door4,-0.244761905,-0.039047619,1,0,0,0.759,optionLeft,60,7870,4,13,0,13,0,1,,,,,,,,,,,,,,,,,,,,,,,,,,,,,,,,,,,,,,,
,,,,,,,,2023-08-16_08h32.56.041,HF_wild_card,2022.2.4,MacIntel,60.45949214,57e17bdc1334540001170aa0,64d2fd46c836a06233681665,64dc7a3a13d7dc68afa1d418,,,,,,,decisionTrl,resources/DY.BMP,resources/DR.BMP,WildCard_Ex,-0.235238095,-0.057142857,1,0,0,0.853,optionLeft,55,7925,4,14,0,14,0,1,,,,,,,,,,,,,,,,,,,,,,,,,,,,,,,,,,,,,,,
,,,,,,,,2023-08-16_08h32.56.041,HF_wild_card,2022.2.4,MacIntel,60.45949214,57e17bdc1334540001170aa0,64d2fd46c836a06233681665,64dc7a3a13d7dc68afa1d418,,,,,,,decisionTrl,resources/DB.BMP,resources/DY.BMP,WildCard_Ex,0.155238095,-0.027619048,1,0,0,1.756,optionRight,55,7980,4,15,0,15,0,1,,,,,,,,,,,,,,,,,,,,,,,,,,,,,,,,,,,,,,,
,,,,,,,,2023-08-16_08h32.56.041,HF_wild_card,2022.2.4,MacIntel,60.45949214,57e17bdc1334540001170aa0,64d2fd46c836a06233681665,64dc7a3a13d7dc68afa1d418,,,,,,,decisionTrl,resources/DR.BMP,resources/DB.BMP,Door1,0.194285714,0.063809524,1,0,0,1.188,optionRight,30,8010,4,16,0,16,0,1,,,,,,,,,,,,,,,,,,,,,,,,,,,,,,,,,,,,,,,
,,,,,,,,2023-08-16_08h32.56.041,HF_wild_card,2022.2.4,MacIntel,60.45949214,57e17bdc1334540001170aa0,64d2fd46c836a06233681665,64dc7a3a13d7dc68afa1d418,,,,,,,decisionTrl,resources/DG.BMP,resources/DBN.BMP,Door4,-0.160952381,-0.036190476,1,0,0,0.966,optionLeft,80,8090,4,17,0,17,0,1,,,,,,,,,,,,,,,,,,,,,,,,,,,,,,,,,,,,,,,
,,,,,,,,2023-08-16_08h32.56.041,HF_wild_card,2022.2.4,MacIntel,60.45949214,57e17bdc1334540001170aa0,64d2fd46c836a06233681665,64dc7a3a13d7dc68afa1d418,,,,,,,sngl,resources/DY.BMP,resources/Empty.png,WildCard_Ex,-0.224761905,-0.022857143,1,0,0,0.903,optionLeft,45,8135,4,18,0,18,0,1,,,,,,,,,,,,,,,,,,,,,,,,,,,,,,,,,,,,,,,
,,,,,,,,2023-08-16_08h32.56.041,HF_wild_card,2022.2.4,MacIntel,60.45949214,57e17bdc1334540001170aa0,64d2fd46c836a06233681665,64dc7a3a13d7dc68afa1d418,,,,,,,decisionTrl,resources/DBN.BMP,resources/DG.BMP,Door4,0.421904762,0.091428571,1,0,0,1.902,optionRight,60,8195,4,19,0,19,0,1,,,,,,,,,,,,,,,,,,,,,,,,,,,,,,,,,,,,,,,
,,,,,,,,2023-08-16_08h32.56.041,HF_wild_card,2022.2.4,MacIntel,60.45949214,57e17bdc1334540001170aa0,64d2fd46c836a06233681665,64dc7a3a13d7dc68afa1d418,,,,,,,sngl,resources/DBN.BMP,resources/Empty.png,Door3,-0.267619048,-0.038095238,1,0,0,0.889,optionLeft,70,8265,4,20,0,20,0,1,,,,,,,,,,,,,,,,,,,,,,,,,,,,,,,,,,,,,,,
,,,,,,,,2023-08-16_08h32.56.041,HF_wild_card,2022.2.4,MacIntel,60.45949214,57e17bdc1334540001170aa0,64d2fd46c836a06233681665,64dc7a3a13d7dc68afa1d418,,,,,,,ctch,resources/DG.BMP,resources/DB.BMP,Door4,-0.18,0.015238095,1,0,0,0.886,optionLeft,80,8345,4,21,0,21,0,1,,,,,,,,,,,,,,,,,,,,,,,,,,,,,,,,,,,,,,,
,,,,,,,,2023-08-16_08h32.56.041,HF_wild_card,2022.2.4,MacIntel,60.45949214,57e17bdc1334540001170aa0,64d2fd46c836a06233681665,64dc7a3a13d7dc68afa1d418,,,,,,,decisionTrl,resources/DR.BMP,resources/DB.BMP,Door1,0.206666667,-0.001904762,1,0,0,1.5,optionRight,30,8375,4,22,0,22,0,1,,,,,,,,,,,,,,,,,,,,,,,,,,,,,,,,,,,,,,,
,,,,,,,,2023-08-16_08h32.56.041,HF_wild_card,2022.2.4,MacIntel,60.45949214,57e17bdc1334540001170aa0,64d2fd46c836a06233681665,64dc7a3a13d7dc68afa1d418,,,,,,,sngl,resources/Empty.png,resources/DY.BMP,WildCard_Ex,0.14952381,0.020952381,1,0,0,0.853,optionRight,55,8430,4,23,0,23,0,1,,,,,,,,,,,,,,,,,,,,,,,,,,,,,,,,,,,,,,,
,,,,,,,,2023-08-16_08h32.56.041,HF_wild_card,2022.2.4,MacIntel,60.45949214,57e17bdc1334540001170aa0,64d2fd46c836a06233681665,64dc7a3a13d7dc68afa1d418,,,,,,,decisionTrl,resources/DB.BMP,resources/DR.BMP,Door2,0.104761905,0,1,0,0,1.155,optionRight,40,8470,4,24,0,24,0,1,,,,,,,,,,,,,,,,,,,,,,,,,,,,,,,,,,,,,,,
,,,,,,,,2023-08-16_08h32.56.041,HF_wild_card,2022.2.4,MacIntel,60.45949214,57e17bdc1334540001170aa0,64d2fd46c836a06233681665,64dc7a3a13d7dc68afa1d418,,,,,,,sngl,resources/DB.BMP,resources/Empty.png,Door1,-0.174285714,-0.03047619,1,0,0,0.659,optionLeft,30,8500,4,25,0,25,0,1,,,,,,,,,,,,,,,,,,,,,,,,,,,,,,,,,,,,,,,
,,,,,,,,2023-08-16_08h32.56.041,HF_wild_card,2022.2.4,MacIntel,60.45949214,57e17bdc1334540001170aa0,64d2fd46c836a06233681665,64dc7a3a13d7dc68afa1d418,,,,,,,sngl,resources/Empty.png,resources/DBN.BMP,Door3,0.143809524,0.002857143,1,0,0,0.703,optionRight,70,8570,4,26,0,26,0,1,,,,,,,,,,,,,,,,,,,,,,,,,,,,,,,,,,,,,,,
,,,,,,,,2023-08-16_08h32.56.041,HF_wild_card,2022.2.4,MacIntel,60.45949214,57e17bdc1334540001170aa0,64d2fd46c836a06233681665,64dc7a3a13d7dc68afa1d418,,,,,,,decisionTrl,resources/DY.BMP,resources/DG.BMP,Door4,0.223809524,0.063809524,1,0,0,1.267,optionRight,60,8630,4,27,0,27,0,1,,,,,,,,,,,,,,,,,,,,,,,,,,,,,,,,,,,,,,,
,,,,,,,,2023-08-16_08h32.56.041,HF_wild_card,2022.2.4,MacIntel,60.45949214,57e17bdc1334540001170aa0,64d2fd46c836a06233681665,64dc7a3a13d7dc68afa1d418,,,,,,,ctch,resources/DG.BMP,resources/DB.BMP,Door4,-0.232380952,-0.071428571,1,0,0,0.836,optionLeft,60,8690,4,28,0,28,0,1,,,,,,,,,,,,,,,,,,,,,,,,,,,,,,,,,,,,,,,
,,,,,,,,2023-08-16_08h32.56.041,HF_wild_card,2022.2.4,MacIntel,60.45949214,57e17bdc1334540001170aa0,64d2fd46c836a06233681665,64dc7a3a13d7dc68afa1d418,,,,,,,sngl,resources/DY.BMP,resources/Empty.png,WildCard_Ex,-0.244761905,-0.054285714,1,0,0,0.732,optionLeft,55,8745,4,29,0,29,0,1,,,,,,,,,,,,,,,,,,,,,,,,,,,,,,,,,,,,,,,
,,,,,,,,2023-08-16_08h32.56.041,HF_wild_card,2022.2.4,MacIntel,60.45949214,57e17bdc1334540001170aa0,64d2fd46c836a06233681665,64dc7a3a13d7dc68afa1d418,,,,,,,sngl,resources/Empty.png,resources/DG.BMP,Door4,0.213333333,0.08,1,0,0,0.733,optionRight,80,8825,4,30,0,30,0,1,,,,,,,,,,,,,,,,,,,,,,,,,,,,,,,,,,,,,,,
,,,,,,,,2023-08-16_08h32.56.041,HF_wild_card,2022.2.4,MacIntel,60.45949214,57e17bdc1334540001170aa0,64d2fd46c836a06233681665,64dc7a3a13d7dc68afa1d418,,,,,,,ctch,resources/DBN.BMP,resources/DR.BMP,Door3,-0.298095238,-0.112380952,1,0,0,1.006,optionLeft,70,8895,4,31,0,31,0,1,,,,,,,,,,,,,,,,,,,,,,,,,,,,,,,,,,,,,,,
,,,,,,,,2023-08-16_08h32.56.041,HF_wild_card,2022.2.4,MacIntel,60.45949214,57e17bdc1334540001170aa0,64d2fd46c836a06233681665,64dc7a3a13d7dc68afa1d418,,,,,,,decisionTrl,resources/DBN.BMP,resources/DG.BMP,Door4,0.244761905,0.01047619,1,0,0,0.971,optionRight,80,8975,4,32,0,32,0,1,,,,,,,,,,,,,,,,,,,,,,,,,,,,,,,,,,,,,,,
,,,,,,,,2023-08-16_08h32.56.041,HF_wild_card,2022.2.4,MacIntel,60.45949214,57e17bdc1334540001170aa0,64d2fd46c836a06233681665,64dc7a3a13d7dc68afa1d418,,,,,,,decisionTrl,resources/DBN.BMP,resources/DG.BMP,Door4,0.202857143,0.05047619,1,0,0,0.837,optionRight,80,9055,4,33,0,33,0,1,,,,,,,,,,,,,,,,,,,,,,,,,,,,,,,,,,,,,,,
,,,,,,,,2023-08-16_08h32.56.041,HF_wild_card,2022.2.4,MacIntel,60.45949214,57e17bdc1334540001170aa0,64d2fd46c836a06233681665,64dc7a3a13d7dc68afa1d418,,,,,,,decisionTrl,resources/DB.BMP,resources/DR.BMP,Door2,0.204761905,0.046666667,1,0,0,1.09,optionRight,20,9075,4,34,0,34,0,1,,,,,,,,,,,,,,,,,,,,,,,,,,,,,,,,,,,,,,,
,,,,,,,,2023-08-16_08h32.56.041,HF_wild_card,2022.2.4,MacIntel,60.45949214,57e17bdc1334540001170aa0,64d2fd46c836a06233681665,64dc7a3a13d7dc68afa1d418,,,,,,,decisionTrl,resources/DG.BMP,resources/DBN.BMP,Door4,-0.284761905,-0.04952381,1,0,0,1.07,optionLeft,60,9135,4,35,0,35,0,1,,,,,,,,,,,,,,,,,,,,,,,,,,,,,,,,,,,,,,,
,,,,,,,,2023-08-16_08h32.56.041,HF_wild_card,2022.2.4,MacIntel,60.45949214,57e17bdc1334540001170aa0,64d2fd46c836a06233681665,64dc7a3a13d7dc68afa1d418,,,,,,,decisionTrl,resources/DG.BMP,resources/DBN.BMP,Door3,0.172380952,0.104761905,1,0,0,0.8,optionRight,70,9205,4,36,0,36,0,1,,,,,,,,,,,,,,,,,,,,,,,,,,,,,,,,,,,,,,,
,,,,,,,,2023-08-16_08h32.56.041,HF_wild_card,2022.2.4,MacIntel,60.45949214,57e17bdc1334540001170aa0,64d2fd46c836a06233681665,64dc7a3a13d7dc68afa1d418,,,,,,,sngl,resources/Empty.png,resources/DY.BMP,WildCard_Ex,0.171428571,0.072380952,1,0,0,0.784,optionRight,45,9250,4,37,0,37,0,1,,,,,,,,,,,,,,,,,,,,,,,,,,,,,,,,,,,,,,,
,,,,,,,,2023-08-16_08h32.56.041,HF_wild_card,2022.2.4,MacIntel,60.45949214,57e17bdc1334540001170aa0,64d2fd46c836a06233681665,64dc7a3a13d7dc68afa1d418,,,,,,,decisionTrl,resources/DR.BMP,resources/DB.BMP,Door1,0.179047619,0.068571429,1,0,0,0.964,optionRight,30,9280,4,38,0,38,0,1,,,,,,,,,,,,,,,,,,,,,,,,,,,,,,,,,,,,,,,
,,,,,,,,2023-08-16_08h32.56.041,HF_wild_card,2022.2.4,MacIntel,60.45949214,57e17bdc1334540001170aa0,64d2fd46c836a06233681665,64dc7a3a13d7dc68afa1d418,,,,,,,decisionTrl,resources/DBN.BMP,resources/DG.BMP,Door3,-0.154285714,-0.035238095,1,0,0,0.701,optionLeft,70,9350,4,39,0,39,0,1,,,,,,,,,,,,,,,,,,,,,,,,,,,,,,,,,,,,,,,
,,,,,,,,2023-08-16_08h32.56.041,HF_wild_card,2022.2.4,MacIntel,60.45949214,57e17bdc1334540001170aa0,64d2fd46c836a06233681665,64dc7a3a13d7dc68afa1d418,,,,,,,ctch,resources/DB.BMP,resources/DG.BMP,Door4,0.223809524,0.066666667,1,0,0,0.614,optionRight,60,9410,4,40,0,40,0,1,,,,,,,,,,,,,,,,,,,,,,,,,,,,,,,,,,,,,,,
,,,,,,,,2023-08-16_08h32.56.041,HF_wild_card,2022.2.4,MacIntel,60.45949214,57e17bdc1334540001170aa0,64d2fd46c836a06233681665,64dc7a3a13d7dc68afa1d418,,,,,,,sngl,resources/DR.BMP,resources/Empty.png,Door2,-0.182857143,-0.017142857,1,0,0,0.775,optionLeft,20,9430,4,41,0,41,0,1,,,,,,,,,,,,,,,,,,,,,,,,,,,,,,,,,,,,,,,
,,,,,,,,2023-08-16_08h32.56.041,HF_wild_card,2022.2.4,MacIntel,60.45949214,57e17bdc1334540001170aa0,64d2fd46c836a06233681665,64dc7a3a13d7dc68afa1d418,,,,,,,ctch,resources/DB.BMP,resources/DG.BMP,Door4,0.137142857,0.053333333,1,0,0,0.836,optionRight,80,9510,4,42,0,42,0,1,,,,,,,,,,,,,,,,,,,,,,,,,,,,,,,,,,,,,,,
,,,,,,,,2023-08-16_08h32.56.041,HF_wild_card,2022.2.4,MacIntel,60.45949214,57e17bdc1334540001170aa0,64d2fd46c836a06233681665,64dc7a3a13d7dc68afa1d418,,,,,,,ctch,resources/DR.BMP,resources/DBN.BMP,Door3,0.088571429,0.028571429,1,0,0,0.892,optionRight,70,9580,4,43,0,43,0,1,,,,,,,,,,,,,,,,,,,,,,,,,,,,,,,,,,,,,,,
,,,,,,,,2023-08-16_08h32.56.041,HF_wild_card,2022.2.4,MacIntel,60.45949214,57e17bdc1334540001170aa0,64d2fd46c836a06233681665,64dc7a3a13d7dc68afa1d418,,,,,,,,,,,,,,,,,,,,,,,,,,3,0,3,0,1,,,,,,,,,,,,,,,,,,,,,,,,,,,,,,,,,,
,,,,,,,,2023-08-16_08h32.56.041,HF_wild_card,2022.2.4,MacIntel,60.45949214,57e17bdc1334540001170aa0,64d2fd46c836a06233681665,64dc7a3a13d7dc68afa1d418,,,,,,,ctch,resources/DG.BMP,resources/DB.BMP,Door4,-0.275238095,-0.146666667,1,0,0,1.552,optionLeft,80,9660,5,0,0,0,0,1,,,,,,,,,,,,,,,,,,,,,,,,,,,,,,,,,,,,,,,
,,,,,,,,2023-08-16_08h32.56.041,HF_wild_card,2022.2.4,MacIntel,60.45949214,57e17bdc1334540001170aa0,64d2fd46c836a06233681665,64dc7a3a13d7dc68afa1d418,,,,,,,decisionTrl,resources/DY.BMP,resources/DR.BMP,WildCard_Ex,-0.164761905,-0.12,1,0,0,1.571,optionLeft,55,9715,5,1,0,1,0,1,,,,,,,,,,,,,,,,,,,,,,,,,,,,,,,,,,,,,,,
,,,,,,,,2023-08-16_08h32.56.041,HF_wild_card,2022.2.4,MacIntel,60.45949214,57e17bdc1334540001170aa0,64d2fd46c836a06233681665,64dc7a3a13d7dc68afa1d418,,,,,,,sngl,resources/DY.BMP,resources/Empty.png,WildCard_Ex,-0.18952381,-0.038095238,1,0,0,0.738,optionLeft,45,9760,5,2,0,2,0,1,,,,,,,,,,,,,,,,,,,,,,,,,,,,,,,,,,,,,,,
,,,,,,,,2023-08-16_08h32.56.041,HF_wild_card,2022.2.4,MacIntel,60.45949214,57e17bdc1334540001170aa0,64d2fd46c836a06233681665,64dc7a3a13d7dc68afa1d418,,,,,,,ctch,resources/DBN.BMP,resources/DR.BMP,Door3,-0.274285714,-0.042857143,1,0,0,1.018,optionLeft,70,9830,5,3,0,3,0,1,,,,,,,,,,,,,,,,,,,,,,,,,,,,,,,,,,,,,,,
,,,,,,,,2023-08-16_08h32.56.041,HF_wild_card,2022.2.4,MacIntel,60.45949214,57e17bdc1334540001170aa0,64d2fd46c836a06233681665,64dc7a3a13d7dc68afa1d418,,,,,,,decisionTrl,resources/DB.BMP,resources/DR.BMP,Door1,-0.201904762,-0.03047619,1,0,0,1.307,optionLeft,30,9860,5,4,0,4,0,1,,,,,,,,,,,,,,,,,,,,,,,,,,,,,,,,,,,,,,,
,,,,,,,,2023-08-16_08h32.56.041,HF_wild_card,2022.2.4,MacIntel,60.45949214,57e17bdc1334540001170aa0,64d2fd46c836a06233681665,64dc7a3a13d7dc68afa1d418,,,,,,,sngl,resources/DG.BMP,resources/Empty.png,Door4,-0.179047619,-0.017142857,1,0,0,0.869,optionLeft,80,9940,5,5,0,5,0,1,,,,,,,,,,,,,,,,,,,,,,,,,,,,,,,,,,,,,,,
,,,,,,,,2023-08-16_08h32.56.041,HF_wild_card,2022.2.4,MacIntel,60.45949214,57e17bdc1334540001170aa0,64d2fd46c836a06233681665,64dc7a3a13d7dc68afa1d418,,,,,,,decisionTrl,resources/DBN.BMP,resources/DG.BMP,Door4,0.159047619,0.104761905,1,0,0,1.388,optionRight,80,10020,5,6,0,6,0,1,,,,,,,,,,,,,,,,,,,,,,,,,,,,,,,,,,,,,,,
,,,,,,,,2023-08-16_08h32.56.041,HF_wild_card,2022.2.4,MacIntel,60.45949214,57e17bdc1334540001170aa0,64d2fd46c836a06233681665,64dc7a3a13d7dc68afa1d418,,,,,,,decisionTrl,resources/DR.BMP,resources/DB.BMP,Door1,0.231428571,0.075238095,1,0,0,1.048,optionRight,30,10050,5,7,0,7,0,1,,,,,,,,,,,,,,,,,,,,,,,,,,,,,,,,,,,,,,,
,,,,,,,,2023-08-16_08h32.56.041,HF_wild_card,2022.2.4,MacIntel,60.45949214,57e17bdc1334540001170aa0,64d2fd46c836a06233681665,64dc7a3a13d7dc68afa1d418,,,,,,,ctch,resources/DB.BMP,resources/DG.BMP,Door4,0.237142857,0.125714286,1,0,0,1.084,optionRight,80,10130,5,8,0,8,0,1,,,,,,,,,,,,,,,,,,,,,,,,,,,,,,,,,,,,,,,
,,,,,,,,2023-08-16_08h32.56.041,HF_wild_card,2022.2.4,MacIntel,60.45949214,57e17bdc1334540001170aa0,64d2fd46c836a06233681665,64dc7a3a13d7dc68afa1d418,,,,,,,decisionTrl,resources/DBN.BMP,resources/DY.BMP,WildCard_Ex,0.200952381,0.08952381,1,0,0,0.968,optionRight,55,10185,5,9,0,9,0,1,,,,,,,,,,,,,,,,,,,,,,,,,,,,,,,,,,,,,,,
,,,,,,,,2023-08-16_08h32.56.041,HF_wild_card,2022.2.4,MacIntel,60.45949214,57e17bdc1334540001170aa0,64d2fd46c836a06233681665,64dc7a3a13d7dc68afa1d418,,,,,,,decisionTrl,resources/DBN.BMP,resources/DG.BMP,Door3,-0.162857143,0.004761905,1,0,0,0.656,optionLeft,70,10255,5,10,0,10,0,1,,,,,,,,,,,,,,,,,,,,,,,,,,,,,,,,,,,,,,,
,,,,,,,,2023-08-16_08h32.56.041,HF_wild_card,2022.2.4,MacIntel,60.45949214,57e17bdc1334540001170aa0,64d2fd46c836a06233681665,64dc7a3a13d7dc68afa1d418,,,,,,,decisionTrl,resources/DR.BMP,resources/DB.BMP,Door1,0.194285714,0.083809524,1,0,0,0.915,optionRight,30,10285,5,11,0,11,0,1,,,,,,,,,,,,,,,,,,,,,,,,,,,,,,,,,,,,,,,
,,,,,,,,2023-08-16_08h32.56.041,HF_wild_card,2022.2.4,MacIntel,60.45949214,57e17bdc1334540001170aa0,64d2fd46c836a06233681665,64dc7a3a13d7dc68afa1d418,,,,,,,sngl,resources/DB.BMP,resources/Empty.png,Door1,-0.191428571,-0.031428571,1,0,0,1.002,optionLeft,30,10315,5,12,0,12,0,1,,,,,,,,,,,,,,,,,,,,,,,,,,,,,,,,,,,,,,,
,,,,,,,,2023-08-16_08h32.56.041,HF_wild_card,2022.2.4,MacIntel,60.45949214,57e17bdc1334540001170aa0,64d2fd46c836a06233681665,64dc7a3a13d7dc68afa1d418,,,,,,,sngl,resources/DY.BMP,resources/Empty.png,WildCard_Ex,-0.157142857,0.01047619,1,0,0,0.842,optionLeft,55,10370,5,13,0,13,0,1,,,,,,,,,,,,,,,,,,,,,,,,,,,,,,,,,,,,,,,
,,,,,,,,2023-08-16_08h32.56.041,HF_wild_card,2022.2.4,MacIntel,60.45949214,57e17bdc1334540001170aa0,64d2fd46c836a06233681665,64dc7a3a13d7dc68afa1d418,,,,,,,ctch,resources/DR.BMP,resources/DBN.BMP,Door3,0.512380952,-0.001904762,1,0,0,3.23,optionRight,70,10440,5,14,0,14,0,1,,,,,,,,,,,,,,,,,,,,,,,,,,,,,,,,,,,,,,,
,,,,,,,,2023-08-16_08h32.56.041,HF_wild_card,2022.2.4,MacIntel,60.45949214,57e17bdc1334540001170aa0,64d2fd46c836a06233681665,64dc7a3a13d7dc68afa1d418,,,,,,,ctch,resources/DG.BMP,resources/DB.BMP,Door4,-0.216190476,-0.036190476,1,0,0,1.003,optionLeft,60,10500,5,15,0,15,0,1,,,,,,,,,,,,,,,,,,,,,,,,,,,,,,,,,,,,,,,
,,,,,,,,2023-08-16_08h32.56.041,HF_wild_card,2022.2.4,MacIntel,60.45949214,57e17bdc1334540001170aa0,64d2fd46c836a06233681665,64dc7a3a13d7dc68afa1d418,,,,,,,sngl,resources/Empty.png,resources/DY.BMP,WildCard_Ex,0.264761905,0.081904762,1,0,0,0.804,optionRight,45,10545,5,16,0,16,0,1,,,,,,,,,,,,,,,,,,,,,,,,,,,,,,,,,,,,,,,
,,,,,,,,2023-08-16_08h32.56.041,HF_wild_card,2022.2.4,MacIntel,60.45949214,57e17bdc1334540001170aa0,64d2fd46c836a06233681665,64dc7a3a13d7dc68afa1d418,,,,,,,decisionTrl,resources/DBN.BMP,resources/DG.BMP,Door3,-0.260952381,-0.006666667,1,0,0,1.037,optionLeft,70,10615,5,17,0,17,0,1,,,,,,,,,,,,,,,,,,,,,,,,,,,,,,,,,,,,,,,
,,,,,,,,2023-08-16_08h32.56.041,HF_wild_card,2022.2.4,MacIntel,60.45949214,57e17bdc1334540001170aa0,64d2fd46c836a06233681665,64dc7a3a13d7dc68afa1d418,,,,,,,ctch,resources/DBN.BMP,resources/DR.BMP,Door3,-0.207619048,0.059047619,1,0,0,1.05,optionLeft,70,10685,5,18,0,18,0,1,,,,,,,,,,,,,,,,,,,,,,,,,,,,,,,,,,,,,,,
,,,,,,,,2023-08-16_08h32.56.041,HF_wild_card,2022.2.4,MacIntel,60.45949214,57e17bdc1334540001170aa0,64d2fd46c836a06233681665,64dc7a3a13d7dc68afa1d418,,,,,,,decisionTrl,resources/DB.BMP,resources/DR.BMP,Door1,-0.159047619,-0.021904762,1,0,0,1.018,optionLeft,30,10715,5,19,0,19,0,1,,,,,,,,,,,,,,,,,,,,,,,,,,,,,,,,,,,,,,,
,,,,,,,,2023-08-16_08h32.56.041,HF_wild_card,2022.2.4,MacIntel,60.45949214,57e17bdc1334540001170aa0,64d2fd46c836a06233681665,64dc7a3a13d7dc68afa1d418,,,,,,,decisionTrl,resources/DY.BMP,resources/DG.BMP,WildCard_Ex,-0.120952381,-0.022857143,1,0,0,0.953,optionLeft,55,10770,5,20,0,20,0,1,,,,,,,,,,,,,,,,,,,,,,,,,,,,,,,,,,,,,,,
,,,,,,,,2023-08-16_08h32.56.041,HF_wild_card,2022.2.4,MacIntel,60.45949214,57e17bdc1334540001170aa0,64d2fd46c836a06233681665,64dc7a3a13d7dc68afa1d418,,,,,,,decisionTrl,resources/DY.BMP,resources/DBN.BMP,Door3,0.31047619,0.18,1,0,0,0.756,optionRight,70,10840,5,21,0,21,0,1,,,,,,,,,,,,,,,,,,,,,,,,,,,,,,,,,,,,,,,
,,,,,,,,2023-08-16_08h32.56.041,HF_wild_card,2022.2.4,MacIntel,60.45949214,57e17bdc1334540001170aa0,64d2fd46c836a06233681665,64dc7a3a13d7dc68afa1d418,,,,,,,decisionTrl,resources/DBN.BMP,resources/DG.BMP,Door3,-0.35047619,-0.062857143,1,0,0,0.867,optionLeft,70,10910,5,22,0,22,0,1,,,,,,,,,,,,,,,,,,,,,,,,,,,,,,,,,,,,,,,
,,,,,,,,2023-08-16_08h32.56.041,HF_wild_card,2022.2.4,MacIntel,60.45949214,57e17bdc1334540001170aa0,64d2fd46c836a06233681665,64dc7a3a13d7dc68afa1d418,,,,,,,decisionTrl,resources/DG.BMP,resources/DBN.BMP,Door4,-0.195238095,-0.004761905,1,0,0,1.134,optionLeft,60,10970,5,23,0,23,0,1,,,,,,,,,,,,,,,,,,,,,,,,,,,,,,,,,,,,,,,
,,,,,,,,2023-08-16_08h32.56.041,HF_wild_card,2022.2.4,MacIntel,60.45949214,57e17bdc1334540001170aa0,64d2fd46c836a06233681665,64dc7a3a13d7dc68afa1d418,,,,,,,decisionTrl,resources/DG.BMP,resources/DBN.BMP,Door3,0.297142857,0.16952381,1,0,0,0.689,optionRight,70,11040,5,24,0,24,0,1,,,,,,,,,,,,,,,,,,,,,,,,,,,,,,,,,,,,,,,
,,,,,,,,2023-08-16_08h32.56.041,HF_wild_card,2022.2.4,MacIntel,60.45949214,57e17bdc1334540001170aa0,64d2fd46c836a06233681665,64dc7a3a13d7dc68afa1d418,,,,,,,decisionTrl,resources/DY.BMP,resources/DB.BMP,WildCard_Ex,-0.19047619,-0.031428571,1,0,0,1.252,optionLeft,55,11095,5,25,0,25,0,1,,,,,,,,,,,,,,,,,,,,,,,,,,,,,,,,,,,,,,,
,,,,,,,,2023-08-16_08h32.56.041,HF_wild_card,2022.2.4,MacIntel,60.45949214,57e17bdc1334540001170aa0,64d2fd46c836a06233681665,64dc7a3a13d7dc68afa1d418,,,,,,,decisionTrl,resources/DR.BMP,resources/DB.BMP,Door2,-0.288571429,-0.052380952,1,0,0,1.804,optionLeft,20,11115,5,26,0,26,0,1,,,,,,,,,,,,,,,,,,,,,,,,,,,,,,,,,,,,,,,
,,,,,,,,2023-08-16_08h32.56.041,HF_wild_card,2022.2.4,MacIntel,60.45949214,57e17bdc1334540001170aa0,64d2fd46c836a06233681665,64dc7a3a13d7dc68afa1d418,,,,,,,decisionTrl,resources/DG.BMP,resources/DBN.BMP,Door3,0.108571429,0.032380952,1,0,0,1.258,optionRight,70,11185,5,27,0,27,0,1,,,,,,,,,,,,,,,,,,,,,,,,,,,,,,,,,,,,,,,
,,,,,,,,2023-08-16_08h32.56.041,HF_wild_card,2022.2.4,MacIntel,60.45949214,57e17bdc1334540001170aa0,64d2fd46c836a06233681665,64dc7a3a13d7dc68afa1d418,,,,,,,sngl,resources/Empty.png,resources/DG.BMP,Door4,0.224761905,0.001904762,1,0,0,1.543,optionRight,60,11245,5,28,0,28,0,1,,,,,,,,,,,,,,,,,,,,,,,,,,,,,,,,,,,,,,,
,,,,,,,,2023-08-16_08h32.56.041,HF_wild_card,2022.2.4,MacIntel,60.45949214,57e17bdc1334540001170aa0,64d2fd46c836a06233681665,64dc7a3a13d7dc68afa1d418,,,,,,,sngl,resources/Empty.png,resources/DB.BMP,Door1,0.179047619,0.015238095,1,0,0,0.822,optionRight,30,11275,5,29,0,29,0,1,,,,,,,,,,,,,,,,,,,,,,,,,,,,,,,,,,,,,,,
,,,,,,,,2023-08-16_08h32.56.041,HF_wild_card,2022.2.4,MacIntel,60.45949214,57e17bdc1334540001170aa0,64d2fd46c836a06233681665,64dc7a3a13d7dc68afa1d418,,,,,,,sngl,resources/Empty.png,resources/DY.BMP,WildCard_Ex,0.198095238,-0.00952381,1,0,0,0.851,optionRight,55,11330,5,30,0,30,0,1,,,,,,,,,,,,,,,,,,,,,,,,,,,,,,,,,,,,,,,
,,,,,,,,2023-08-16_08h32.56.041,HF_wild_card,2022.2.4,MacIntel,60.45949214,57e17bdc1334540001170aa0,64d2fd46c836a06233681665,64dc7a3a13d7dc68afa1d418,,,,,,,decisionTrl,resources/DG.BMP,resources/DY.BMP,Door4,-0.26952381,-0.021904762,1,0,0,1.155,optionLeft,80,11410,5,31,0,31,0,1,,,,,,,,,,,,,,,,,,,,,,,,,,,,,,,,,,,,,,,
,,,,,,,,2023-08-16_08h32.56.041,HF_wild_card,2022.2.4,MacIntel,60.45949214,57e17bdc1334540001170aa0,64d2fd46c836a06233681665,64dc7a3a13d7dc68afa1d418,,,,,,,sngl,resources/DBN.BMP,resources/Empty.png,Door3,-0.237142857,-0.006666667,1,0,0,0.82,optionLeft,70,11480,5,32,0,32,0,1,,,,,,,,,,,,,,,,,,,,,,,,,,,,,,,,,,,,,,,
,,,,,,,,2023-08-16_08h32.56.041,HF_wild_card,2022.2.4,MacIntel,60.45949214,57e17bdc1334540001170aa0,64d2fd46c836a06233681665,64dc7a3a13d7dc68afa1d418,,,,,,,sngl,resources/Empty.png,resources/DBN.BMP,Door3,0.179047619,0.068571429,1,0,0,0.905,optionRight,70,11550,5,33,0,33,0,1,,,,,,,,,,,,,,,,,,,,,,,,,,,,,,,,,,,,,,,
,,,,,,,,2023-08-16_08h32.56.041,HF_wild_card,2022.2.4,MacIntel,60.45949214,57e17bdc1334540001170aa0,64d2fd46c836a06233681665,64dc7a3a13d7dc68afa1d418,,,,,,,decisionTrl,resources/DR.BMP,resources/DB.BMP,Door1,0.204761905,0.026666667,1,0,0,1.121,optionRight,30,11580,5,34,0,34,0,1,,,,,,,,,,,,,,,,,,,,,,,,,,,,,,,,,,,,,,,
,,,,,,,,2023-08-16_08h32.56.041,HF_wild_card,2022.2.4,MacIntel,60.45949214,57e17bdc1334540001170aa0,64d2fd46c836a06233681665,64dc7a3a13d7dc68afa1d418,,,,,,,sngl,resources/Empty.png,resources/DR.BMP,Door2,0.237142857,0.064761905,1,0,0,0.902,optionRight,20,11600,5,35,0,35,0,1,,,,,,,,,,,,,,,,,,,,,,,,,,,,,,,,,,,,,,,
,,,,,,,,2023-08-16_08h32.56.041,HF_wild_card,2022.2.4,MacIntel,60.45949214,57e17bdc1334540001170aa0,64d2fd46c836a06233681665,64dc7a3a13d7dc68afa1d418,,,,,,,decisionTrl,resources/DG.BMP,resources/DBN.BMP,Door3,0.181904762,0.053333333,1,0,0,0.957,optionRight,70,11670,5,36,0,36,0,1,,,,,,,,,,,,,,,,,,,,,,,,,,,,,,,,,,,,,,,
,,,,,,,,2023-08-16_08h32.56.041,HF_wild_card,2022.2.4,MacIntel,60.45949214,57e17bdc1334540001170aa0,64d2fd46c836a06233681665,64dc7a3a13d7dc68afa1d418,,,,,,,decisionTrl,resources/DR.BMP,resources/DY.BMP,WildCard_Ex,0.17047619,0.079047619,1,0,0,1.526,optionRight,55,11725,5,37,0,37,0,1,,,,,,,,,,,,,,,,,,,,,,,,,,,,,,,,,,,,,,,
,,,,,,,,2023-08-16_08h32.56.041,HF_wild_card,2022.2.4,MacIntel,60.45949214,57e17bdc1334540001170aa0,64d2fd46c836a06233681665,64dc7a3a13d7dc68afa1d418,,,,,,,decisionTrl,resources/DB.BMP,resources/DR.BMP,Door1,-0.228571429,-0.056190476,1,0,0,1.606,optionLeft,30,11755,5,38,0,38,0,1,,,,,,,,,,,,,,,,,,,,,,,,,,,,,,,,,,,,,,,
,,,,,,,,2023-08-16_08h32.56.041,HF_wild_card,2022.2.4,MacIntel,60.45949214,57e17bdc1334540001170aa0,64d2fd46c836a06233681665,64dc7a3a13d7dc68afa1d418,,,,,,,decisionTrl,resources/DB.BMP,resources/DY.BMP,WildCard_Ex,0.321904762,0.047619048,1,0,0,1.286,optionRight,55,11810,5,39,0,39,0,1,,,,,,,,,,,,,,,,,,,,,,,,,,,,,,,,,,,,,,,
,,,,,,,,2023-08-16_08h32.56.041,HF_wild_card,2022.2.4,MacIntel,60.45949214,57e17bdc1334540001170aa0,64d2fd46c836a06233681665,64dc7a3a13d7dc68afa1d418,,,,,,,ctch,resources/DB.BMP,resources/DG.BMP,Door4,0.421904762,0.062857143,1,0,0,1.014,optionRight,60,11870,5,40,0,40,0,1,,,,,,,,,,,,,,,,,,,,,,,,,,,,,,,,,,,,,,,
,,,,,,,,2023-08-16_08h32.56.041,HF_wild_card,2022.2.4,MacIntel,60.45949214,57e17bdc1334540001170aa0,64d2fd46c836a06233681665,64dc7a3a13d7dc68afa1d418,,,,,,,ctch,resources/DR.BMP,resources/DBN.BMP,Door3,0.321904762,0.077142857,1,0,0,0.816,optionRight,70,11940,5,41,0,41,0,1,,,,,,,,,,,,,,,,,,,,,,,,,,,,,,,,,,,,,,,
,,,,,,,,2023-08-16_08h32.56.041,HF_wild_card,2022.2.4,MacIntel,60.45949214,57e17bdc1334540001170aa0,64d2fd46c836a06233681665,64dc7a3a13d7dc68afa1d418,,,,,,,sngl,resources/DR.BMP,resources/Empty.png,Door2,-0.146666667,-0.045714286,1,0,0,1.57,optionLeft,40,11980,5,42,0,42,0,1,,,,,,,,,,,,,,,,,,,,,,,,,,,,,,,,,,,,,,,
,,,,,,,,2023-08-16_08h32.56.041,HF_wild_card,2022.2.4,MacIntel,60.45949214,57e17bdc1334540001170aa0,64d2fd46c836a06233681665,64dc7a3a13d7dc68afa1d418,,,,,,,decisionTrl,resources/DB.BMP,resources/DR.BMP,Door1,-0.3,-0.003809524,1,0,0,1.252,optionLeft,30,12010,5,43,0,43,0,1,,,,,,,,,,,,,,,,,,,,,,,,,,,,,,,,,,,,,,,
,,,,,,,,2023-08-16_08h32.56.041,HF_wild_card,2022.2.4,MacIntel,60.45949214,57e17bdc1334540001170aa0,64d2fd46c836a06233681665,64dc7a3a13d7dc68afa1d418,,,,,,,,,,,,,,,,,,,,,,,,,,4,0,4,0,1,,,,,,,,,,,,,,,,,,,,,,,,,,,,,,,,,,
,,,,,,,,2023-08-16_08h32.56.041,HF_wild_card,2022.2.4,MacIntel,60.45949214,57e17bdc1334540001170aa0,64d2fd46c836a06233681665,64dc7a3a13d7dc68afa1d418,,,,,,,decisionTrl,resources/DG.BMP,resources/DBN.BMP,Door4,-0.178095238,-0.093333333,1,0,0,2.542,optionLeft,80,12090,6,0,0,0,0,1,,,,,,,,,,,,,,,,,,,,,,,,,,,,,,,,,,,,,,,
,,,,,,,,2023-08-16_08h32.56.041,HF_wild_card,2022.2.4,MacIntel,60.45949214,57e17bdc1334540001170aa0,64d2fd46c836a06233681665,64dc7a3a13d7dc68afa1d418,,,,,,,decisionTrl,resources/DBN.BMP,resources/DG.BMP,Door4,0.211428571,0.06952381,1,0,0,0.708,optionRight,60,12150,6,1,0,1,0,1,,,,,,,,,,,,,,,,,,,,,,,,,,,,,,,,,,,,,,,
,,,,,,,,2023-08-16_08h32.56.041,HF_wild_card,2022.2.4,MacIntel,60.45949214,57e17bdc1334540001170aa0,64d2fd46c836a06233681665,64dc7a3a13d7dc68afa1d418,,,,,,,decisionTrl,resources/DG.BMP,resources/DBN.BMP,Door3,0.306666667,0.093333333,1,0,0,0.851,optionRight,70,12220,6,2,0,2,0,1,,,,,,,,,,,,,,,,,,,,,,,,,,,,,,,,,,,,,,,
,,,,,,,,2023-08-16_08h32.56.041,HF_wild_card,2022.2.4,MacIntel,60.45949214,57e17bdc1334540001170aa0,64d2fd46c836a06233681665,64dc7a3a13d7dc68afa1d418,,,,,,,sngl,resources/DY.BMP,resources/Empty.png,WildCard_Ex,-0.146666667,-0.074285714,1,0,0,0.721,optionLeft,55,12275,6,3,0,3,0,1,,,,,,,,,,,,,,,,,,,,,,,,,,,,,,,,,,,,,,,
,,,,,,,,2023-08-16_08h32.56.041,HF_wild_card,2022.2.4,MacIntel,60.45949214,57e17bdc1334540001170aa0,64d2fd46c836a06233681665,64dc7a3a13d7dc68afa1d418,,,,,,,decisionTrl,resources/DB.BMP,resources/DY.BMP,WildCard_Ex,0.24952381,0.054285714,1,0,0,0.868,optionRight,55,12330,6,4,0,4,0,1,,,,,,,,,,,,,,,,,,,,,,,,,,,,,,,,,,,,,,,
,,,,,,,,2023-08-16_08h32.56.041,HF_wild_card,2022.2.4,MacIntel,60.45949214,57e17bdc1334540001170aa0,64d2fd46c836a06233681665,64dc7a3a13d7dc68afa1d418,,,,,,,decisionTrl,resources/DBN.BMP,resources/DG.BMP,Door4,0.242857143,0.08,1,0,0,1.07,optionRight,60,12390,6,5,0,5,0,1,,,,,,,,,,,,,,,,,,,,,,,,,,,,,,,,,,,,,,,
,,,,,,,,2023-08-16_08h32.56.041,HF_wild_card,2022.2.4,MacIntel,60.45949214,57e17bdc1334540001170aa0,64d2fd46c836a06233681665,64dc7a3a13d7dc68afa1d418,,,,,,,ctch,resources/DR.BMP,resources/DBN.BMP,Door3,0.198095238,0.04,1,0,0,0.822,optionRight,70,12460,6,6,0,6,0,1,,,,,,,,,,,,,,,,,,,,,,,,,,,,,,,,,,,,,,,
,,,,,,,,2023-08-16_08h32.56.041,HF_wild_card,2022.2.4,MacIntel,60.45949214,57e17bdc1334540001170aa0,64d2fd46c836a06233681665,64dc7a3a13d7dc68afa1d418,,,,,,,sngl,resources/Empty.png,resources/DBN.BMP,Door3,0.173333333,0.04,1,0,0,0.799,optionRight,70,12530,6,7,0,7,0,1,,,,,,,,,,,,,,,,,,,,,,,,,,,,,,,,,,,,,,,
,,,,,,,,2023-08-16_08h32.56.041,HF_wild_card,2022.2.4,MacIntel,60.45949214,57e17bdc1334540001170aa0,64d2fd46c836a06233681665,64dc7a3a13d7dc68afa1d418,,,,,,,decisionTrl,resources/DR.BMP,resources/DB.BMP,Door1,0.242857143,0.04952381,1,0,0,1.205,optionRight,30,12560,6,8,0,8,0,1,,,,,,,,,,,,,,,,,,,,,,,,,,,,,,,,,,,,,,,
,,,,,,,,2023-08-16_08h32.56.041,HF_wild_card,2022.2.4,MacIntel,60.45949214,57e17bdc1334540001170aa0,64d2fd46c836a06233681665,64dc7a3a13d7dc68afa1d418,,,,,,,sngl,resources/DY.BMP,resources/Empty.png,WildCard_Ex,-0.134285714,-0.021904762,1,0,0,0.715,optionLeft,45,12605,6,9,0,9,0,1,,,,,,,,,,,,,,,,,,,,,,,,,,,,,,,,,,,,,,,
,,,,,,,,2023-08-16_08h32.56.041,HF_wild_card,2022.2.4,MacIntel,60.45949214,57e17bdc1334540001170aa0,64d2fd46c836a06233681665,64dc7a3a13d7dc68afa1d418,,,,,,,sngl,resources/DR.BMP,resources/Empty.png,Door2,-0.132380952,-0.034285714,1,0,0,0.789,optionLeft,20,12625,6,10,0,10,0,1,,,,,,,,,,,,,,,,,,,,,,,,,,,,,,,,,,,,,,,
,,,,,,,,2023-08-16_08h32.56.041,HF_wild_card,2022.2.4,MacIntel,60.45949214,57e17bdc1334540001170aa0,64d2fd46c836a06233681665,64dc7a3a13d7dc68afa1d418,,,,,,,ctch,resources/DBN.BMP,resources/DR.BMP,Door3,-0.320952381,-0.10952381,1,0,0,0.955,optionLeft,70,12695,6,11,0,11,0,1,,,,,,,,,,,,,,,,,,,,,,,,,,,,,,,,,,,,,,,
,,,,,,,,2023-08-16_08h32.56.041,HF_wild_card,2022.2.4,MacIntel,60.45949214,57e17bdc1334540001170aa0,64d2fd46c836a06233681665,64dc7a3a13d7dc68afa1d418,,,,,,,ctch,resources/DR.BMP,resources/DBN.BMP,Door3,0.164761905,0.056190476,1,0,0,0.804,optionRight,70,12765,6,12,0,12,0,1,,,,,,,,,,,,,,,,,,,,,,,,,,,,,,,,,,,,,,,
,,,,,,,,2023-08-16_08h32.56.041,HF_wild_card,2022.2.4,MacIntel,60.45949214,57e17bdc1334540001170aa0,64d2fd46c836a06233681665,64dc7a3a13d7dc68afa1d418,,,,,,,decisionTrl,resources/DBN.BMP,resources/DG.BMP,Door3,-0.279047619,-0.078095238,1,0,0,0.904,optionLeft,70,12835,6,13,0,13,0,1,,,,,,,,,,,,,,,,,,,,,,,,,,,,,,,,,,,,,,,
,,,,,,,,2023-08-16_08h32.56.041,HF_wild_card,2022.2.4,MacIntel,60.45949214,57e17bdc1334540001170aa0,64d2fd46c836a06233681665,64dc7a3a13d7dc68afa1d418,,,,,,,decisionTrl,resources/DBN.BMP,resources/DG.BMP,Door4,0.01047619,-0.006666667,1,0,0,0.148,optionRight,80,12915,6,14,0,14,0,1,,,,,,,,,,,,,,,,,,,,,,,,,,,,,,,,,,,,,,,
,,,,,,,,2023-08-16_08h32.56.041,HF_wild_card,2022.2.4,MacIntel,60.45949214,57e17bdc1334540001170aa0,64d2fd46c836a06233681665,64dc7a3a13d7dc68afa1d418,,,,,,,sngl,resources/Empty.png,resources/DB.BMP,Door1,0.234285714,0.041904762,1,0,0,0.971,optionRight,30,12945,6,15,0,15,0,1,,,,,,,,,,,,,,,,,,,,,,,,,,,,,,,,,,,,,,,
,,,,,,,,2023-08-16_08h32.56.041,HF_wild_card,2022.2.4,MacIntel,60.45949214,57e17bdc1334540001170aa0,64d2fd46c836a06233681665,64dc7a3a13d7dc68afa1d418,,,,,,,sngl,resources/DG.BMP,resources/Empty.png,Door4,-0.225714286,-0.100952381,1,0,0,2.71,optionLeft,60,13005,6,16,0,16,0,1,,,,,,,,,,,,,,,,,,,,,,,,,,,,,,,,,,,,,,,
,,,,,,,,2023-08-16_08h32.56.041,HF_wild_card,2022.2.4,MacIntel,60.45949214,57e17bdc1334540001170aa0,64d2fd46c836a06233681665,64dc7a3a13d7dc68afa1d418,,,,,,,sngl,resources/Empty.png,resources/DY.BMP,WildCard_Ex,0.179047619,0.05047619,1,0,0,0.836,optionRight,45,13050,6,17,0,17,0,1,,,,,,,,,,,,,,,,,,,,,,,,,,,,,,,,,,,,,,,
,,,,,,,,2023-08-16_08h32.56.041,HF_wild_card,2022.2.4,MacIntel,60.45949214,57e17bdc1334540001170aa0,64d2fd46c836a06233681665,64dc7a3a13d7dc68afa1d418,,,,,,,decisionTrl,resources/DR.BMP,resources/DB.BMP,Door2,-0.141904762,-0.042857143,1,0,0,1.021,optionLeft,20,13070,6,18,0,18,0,1,,,,,,,,,,,,,,,,,,,,,,,,,,,,,,,,,,,,,,,
,,,,,,,,2023-08-16_08h32.56.041,HF_wild_card,2022.2.4,MacIntel,60.45949214,57e17bdc1334540001170aa0,64d2fd46c836a06233681665,64dc7a3a13d7dc68afa1d418,,,,,,,decisionTrl,resources/DB.BMP,resources/DR.BMP,Door2,0.204761905,0.044761905,1,0,0,0.773,optionRight,40,13110,6,19,0,19,0,1,,,,,,,,,,,,,,,,,,,,,,,,,,,,,,,,,,,,,,,
,,,,,,,,2023-08-16_08h32.56.041,HF_wild_card,2022.2.4,MacIntel,60.45949214,57e17bdc1334540001170aa0,64d2fd46c836a06233681665,64dc7a3a13d7dc68afa1d418,,,,,,,decisionTrl,resources/DR.BMP,resources/DB.BMP,Door2,-0.172380952,-0.062857143,1,0,0,0.885,optionLeft,20,13130,6,20,0,20,0,1,,,,,,,,,,,,,,,,,,,,,,,,,,,,,,,,,,,,,,,
,,,,,,,,2023-08-16_08h32.56.041,HF_wild_card,2022.2.4,MacIntel,60.45949214,57e17bdc1334540001170aa0,64d2fd46c836a06233681665,64dc7a3a13d7dc68afa1d418,,,,,,,sngl,resources/Empty.png,resources/DG.BMP,Door4,0.285714286,0.112380952,1,0,0,0.618,optionRight,80,13210,6,21,0,21,0,1,,,,,,,,,,,,,,,,,,,,,,,,,,,,,,,,,,,,,,,
,,,,,,,,2023-08-16_08h32.56.041,HF_wild_card,2022.2.4,MacIntel,60.45949214,57e17bdc1334540001170aa0,64d2fd46c836a06233681665,64dc7a3a13d7dc68afa1d418,,,,,,,decisionTrl,resources/DY.BMP,resources/DB.BMP,WildCard_Ex,-0.14952381,-0.033333333,1,0,0,1.086,optionLeft,55,13265,6,22,0,22,0,1,,,,,,,,,,,,,,,,,,,,,,,,,,,,,,,,,,,,,,,
,,,,,,,,2023-08-16_08h32.56.041,HF_wild_card,2022.2.4,MacIntel,60.45949214,57e17bdc1334540001170aa0,64d2fd46c836a06233681665,64dc7a3a13d7dc68afa1d418,,,,,,,decisionTrl,resources/DY.BMP,resources/DR.BMP,WildCard_Ex,-0.239047619,-0.072380952,1,0,0,0.954,optionLeft,55,13320,6,23,0,23,0,1,,,,,,,,,,,,,,,,,,,,,,,,,,,,,,,,,,,,,,,
,,,,,,,,2023-08-16_08h32.56.041,HF_wild_card,2022.2.4,MacIntel,60.45949214,57e17bdc1334540001170aa0,64d2fd46c836a06233681665,64dc7a3a13d7dc68afa1d418,,,,,,,ctch,resources/DG.BMP,resources/DB.BMP,Door4,-0.215238095,-0.043809524,1,0,0,0.706,optionLeft,60,13380,6,24,0,24,0,1,,,,,,,,,,,,,,,,,,,,,,,,,,,,,,,,,,,,,,,
,,,,,,,,2023-08-16_08h32.56.041,HF_wild_card,2022.2.4,MacIntel,60.45949214,57e17bdc1334540001170aa0,64d2fd46c836a06233681665,64dc7a3a13d7dc68afa1d418,,,,,,,decisionTrl,resources/DB.BMP,resources/DR.BMP,Door1,-0.125714286,-0.062857143,1,0,0,1.257,optionLeft,30,13410,6,25,0,25,0,1,,,,,,,,,,,,,,,,,,,,,,,,,,,,,,,,,,,,,,,
,,,,,,,,2023-08-16_08h32.56.041,HF_wild_card,2022.2.4,MacIntel,60.45949214,57e17bdc1334540001170aa0,64d2fd46c836a06233681665,64dc7a3a13d7dc68afa1d418,,,,,,,sngl,resources/DBN.BMP,resources/Empty.png,Door3,-0.240952381,-0.052380952,1,0,0,0.821,optionLeft,70,13480,6,26,0,26,0,1,,,,,,,,,,,,,,,,,,,,,,,,,,,,,,,,,,,,,,,
,,,,,,,,2023-08-16_08h32.56.041,HF_wild_card,2022.2.4,MacIntel,60.45949214,57e17bdc1334540001170aa0,64d2fd46c836a06233681665,64dc7a3a13d7dc68afa1d418,,,,,,,decisionTrl,resources/DY.BMP,resources/DG.BMP,Door4,0.236190476,0.033333333,1,0,0,1.257,optionRight,80,13560,6,27,0,27,0,1,,,,,,,,,,,,,,,,,,,,,,,,,,,,,,,,,,,,,,,
,,,,,,,,2023-08-16_08h32.56.041,HF_wild_card,2022.2.4,MacIntel,60.45949214,57e17bdc1334540001170aa0,64d2fd46c836a06233681665,64dc7a3a13d7dc68afa1d418,,,,,,,ctch,resources/DG.BMP,resources/DB.BMP,Door4,-0.267619048,-0.098095238,1,0,0,0.907,optionLeft,80,13640,6,28,0,28,0,1,,,,,,,,,,,,,,,,,,,,,,,,,,,,,,,,,,,,,,,
,,,,,,,,2023-08-16_08h32.56.041,HF_wild_card,2022.2.4,MacIntel,60.45949214,57e17bdc1334540001170aa0,64d2fd46c836a06233681665,64dc7a3a13d7dc68afa1d418,,,,,,,ctch,resources/DB.BMP,resources/DG.BMP,Door4,0.256190476,0.061904762,1,0,0,0.854,optionRight,80,13720,6,29,0,29,0,1,,,,,,,,,,,,,,,,,,,,,,,,,,,,,,,,,,,,,,,
,,,,,,,,2023-08-16_08h32.56.041,HF_wild_card,2022.2.4,MacIntel,60.45949214,57e17bdc1334540001170aa0,64d2fd46c836a06233681665,64dc7a3a13d7dc68afa1d418,,,,,,,sngl,resources/DB.BMP,resources/Empty.png,Door1,-0.315238095,0.006666667,1,0,0,1.241,optionLeft,30,13750,6,30,0,30,0,1,,,,,,,,,,,,,,,,,,,,,,,,,,,,,,,,,,,,,,,
,,,,,,,,2023-08-16_08h32.56.041,HF_wild_card,2022.2.4,MacIntel,60.45949214,57e17bdc1334540001170aa0,64d2fd46c836a06233681665,64dc7a3a13d7dc68afa1d418,,,,,,,sngl,resources/Empty.png,resources/DR.BMP,Door2,0.301904762,0.077142857,1,0,0,0.995,optionRight,40,13790,6,31,0,31,0,1,,,,,,,,,,,,,,,,,,,,,,,,,,,,,,,,,,,,,,,
,,,,,,,,2023-08-16_08h32.56.041,HF_wild_card,2022.2.4,MacIntel,60.45949214,57e17bdc1334540001170aa0,64d2fd46c836a06233681665,64dc7a3a13d7dc68afa1d418,,,,,,,decisionTrl,resources/DG.BMP,resources/DY.BMP,Door4,-0.241904762,-0.033333333,1,0,0,1.239,optionLeft,60,13850,6,32,0,32,0,1,,,,,,,,,,,,,,,,,,,,,,,,,,,,,,,,,,,,,,,
,,,,,,,,2023-08-16_08h32.56.041,HF_wild_card,2022.2.4,MacIntel,60.45949214,57e17bdc1334540001170aa0,64d2fd46c836a06233681665,64dc7a3a13d7dc68afa1d418,,,,,,,decisionTrl,resources/DR.BMP,resources/DY.BMP,WildCard_Ex,0.106666667,0.067619048,1,0,0,0.971,optionRight,55,13905,6,33,0,33,0,1,,,,,,,,,,,,,,,,,,,,,,,,,,,,,,,,,,,,,,,
,,,,,,,,2023-08-16_08h32.56.041,HF_wild_card,2022.2.4,MacIntel,60.45949214,57e17bdc1334540001170aa0,64d2fd46c836a06233681665,64dc7a3a13d7dc68afa1d418,,,,,,,decisionTrl,resources/DBN.BMP,resources/DY.BMP,Door3,-0.176190476,-0.02952381,1,0,0,1.002,optionLeft,70,13975,6,34,0,34,0,1,,,,,,,,,,,,,,,,,,,,,,,,,,,,,,,,,,,,,,,
,,,,,,,,2023-08-16_08h32.56.041,HF_wild_card,2022.2.4,MacIntel,60.45949214,57e17bdc1334540001170aa0,64d2fd46c836a06233681665,64dc7a3a13d7dc68afa1d418,,,,,,,decisionTrl,resources/DB.BMP,resources/DR.BMP,Door2,0.272380952,0.104761905,1,0,0,1.017,optionRight,40,14015,6,35,0,35,0,1,,,,,,,,,,,,,,,,,,,,,,,,,,,,,,,,,,,,,,,
,,,,,,,,2023-08-16_08h32.56.041,HF_wild_card,2022.2.4,MacIntel,60.45949214,57e17bdc1334540001170aa0,64d2fd46c836a06233681665,64dc7a3a13d7dc68afa1d418,,,,,,,sngl,resources/Empty.png,resources/DY.BMP,WildCard_Ex,0.161904762,0.048571429,1,0,0,0.767,optionRight,55,14070,6,36,0,36,0,1,,,,,,,,,,,,,,,,,,,,,,,,,,,,,,,,,,,,,,,
,,,,,,,,2023-08-16_08h32.56.041,HF_wild_card,2022.2.4,MacIntel,60.45949214,57e17bdc1334540001170aa0,64d2fd46c836a06233681665,64dc7a3a13d7dc68afa1d418,,,,,,,decisionTrl,resources/DB.BMP,resources/DR.BMP,Door2,0.254285714,0.1,1,0,0,1.586,optionRight,20,14090,6,37,0,37,0,1,,,,,,,,,,,,,,,,,,,,,,,,,,,,,,,,,,,,,,,
,,,,,,,,2023-08-16_08h32.56.041,HF_wild_card,2022.2.4,MacIntel,60.45949214,57e17bdc1334540001170aa0,64d2fd46c836a06233681665,64dc7a3a13d7dc68afa1d418,,,,,,,decisionTrl,resources/DR.BMP,resources/DB.BMP,Door2,-0.158095238,-0.105714286,1,0,0,1.025,optionLeft,20,14110,6,38,0,38,0,1,,,,,,,,,,,,,,,,,,,,,,,,,,,,,,,,,,,,,,,
,,,,,,,,2023-08-16_08h32.56.041,HF_wild_card,2022.2.4,MacIntel,60.45949214,57e17bdc1334540001170aa0,64d2fd46c836a06233681665,64dc7a3a13d7dc68afa1d418,,,,,,,ctch,resources/DB.BMP,resources/DG.BMP,Door4,0.379047619,0.136190476,1,0,0,0.688,optionRight,80,14190,6,39,0,39,0,1,,,,,,,,,,,,,,,,,,,,,,,,,,,,,,,,,,,,,,,
,,,,,,,,2023-08-16_08h32.56.041,HF_wild_card,2022.2.4,MacIntel,60.45949214,57e17bdc1334540001170aa0,64d2fd46c836a06233681665,64dc7a3a13d7dc68afa1d418,,,,,,,decisionTrl,resources/DG.BMP,resources/DBN.BMP,Door4,-0.245714286,-0.10952381,1,0,0,1.068,optionLeft,60,14250,6,40,0,40,0,1,,,,,,,,,,,,,,,,,,,,,,,,,,,,,,,,,,,,,,,
,,,,,,,,2023-08-16_08h32.56.041,HF_wild_card,2022.2.4,MacIntel,60.45949214,57e17bdc1334540001170aa0,64d2fd46c836a06233681665,64dc7a3a13d7dc68afa1d418,,,,,,,ctch,resources/DBN.BMP,resources/DR.BMP,Door3,-0.239047619,-0.081904762,1,0,0,1.022,optionLeft,70,14320,6,41,0,41,0,1,,,,,,,,,,,,,,,,,,,,,,,,,,,,,,,,,,,,,,,
,,,,,,,,2023-08-16_08h32.56.041,HF_wild_card,2022.2.4,MacIntel,60.45949214,57e17bdc1334540001170aa0,64d2fd46c836a06233681665,64dc7a3a13d7dc68afa1d418,,,,,,,decisionTrl,resources/DG.BMP,resources/DBN.BMP,Door4,-0.402857143,-0.123809524,1,0,0,2.347,optionLeft,60,14380,6,42,0,42,0,1,,,,,,,,,,,,,,,,,,,,,,,,,,,,,,,,,,,,,,,
,,,,,,,,2023-08-16_08h32.56.041,HF_wild_card,2022.2.4,MacIntel,60.45949214,57e17bdc1334540001170aa0,64d2fd46c836a06233681665,64dc7a3a13d7dc68afa1d418,,,,,,,decisionTrl,resources/DY.BMP,resources/DBN.BMP,Door3,0.219047619,0.022857143,1,0,0,0.805,optionRight,70,14450,6,43,0,43,0,1,,,,,,,,,,,,,,,,,,,,,,,,,,,,,,,,,,,,,,,
,,,,,,,,2023-08-16_08h32.56.041,HF_wild_card,2022.2.4,MacIntel,60.45949214,57e17bdc1334540001170aa0,64d2fd46c836a06233681665,64dc7a3a13d7dc68afa1d418,,,,,,,,,,,,,,,,,,,,,,,,,,5,0,5,0,1,,,,,,,,,,,,,,,,,,,,,,,,,,,,,,,,,,
,,,,,,,,2023-08-16_08h32.56.041,HF_wild_card,2022.2.4,MacIntel,60.45949214,57e17bdc1334540001170aa0,64d2fd46c836a06233681665,64dc7a3a13d7dc68afa1d418,,,,,,,decisionTrl,resources/DB.BMP,resources/DR.BMP,Door2,0.23047619,0.026666667,1,0,0,1.922,optionRight,20,14470,7,0,0,0,0,1,,,,,,,,,,,,,,,,,,,,,,,,,,,,,,,,,,,,,,,
,,,,,,,,2023-08-16_08h32.56.041,HF_wild_card,2022.2.4,MacIntel,60.45949214,57e17bdc1334540001170aa0,64d2fd46c836a06233681665,64dc7a3a13d7dc68afa1d418,,,,,,,ctch,resources/DB.BMP,resources/DG.BMP,Door4,0.194285714,0.016190476,1,0,0,0.971,optionRight,80,14550,7,1,0,1,0,1,,,,,,,,,,,,,,,,,,,,,,,,,,,,,,,,,,,,,,,
,,,,,,,,2023-08-16_08h32.56.041,HF_wild_card,2022.2.4,MacIntel,60.45949214,57e17bdc1334540001170aa0,64d2fd46c836a06233681665,64dc7a3a13d7dc68afa1d418,,,,,,,ctch,resources/DB.BMP,resources/DG.BMP,Door4,0.222857143,0.032380952,1,0,0,0.801,optionRight,60,14610,7,2,0,2,0,1,,,,,,,,,,,,,,,,,,,,,,,,,,,,,,,,,,,,,,,
,,,,,,,,2023-08-16_08h32.56.041,HF_wild_card,2022.2.4,MacIntel,60.45949214,57e17bdc1334540001170aa0,64d2fd46c836a06233681665,64dc7a3a13d7dc68afa1d418,,,,,,,decisionTrl,resources/DG.BMP,resources/DBN.BMP,Door3,0.30952381,0.031428571,1,0,0,1.138,optionRight,70,14680,7,3,0,3,0,1,,,,,,,,,,,,,,,,,,,,,,,,,,,,,,,,,,,,,,,
,,,,,,,,2023-08-16_08h32.56.041,HF_wild_card,2022.2.4,MacIntel,60.45949214,57e17bdc1334540001170aa0,64d2fd46c836a06233681665,64dc7a3a13d7dc68afa1d418,,,,,,,ctch,resources/DR.BMP,resources/DBN.BMP,Door3,0.193333333,0.081904762,1,0,0,0.782,optionRight,70,14750,7,4,0,4,0,1,,,,,,,,,,,,,,,,,,,,,,,,,,,,,,,,,,,,,,,
,,,,,,,,2023-08-16_08h32.56.041,HF_wild_card,2022.2.4,MacIntel,60.45949214,57e17bdc1334540001170aa0,64d2fd46c836a06233681665,64dc7a3a13d7dc68afa1d418,,,,,,,ctch,resources/DG.BMP,resources/DB.BMP,Door4,-0.185714286,-0.063809524,1,0,0,0.82,optionLeft,80,14830,7,5,0,5,0,1,,,,,,,,,,,,,,,,,,,,,,,,,,,,,,,,,,,,,,,
,,,,,,,,2023-08-16_08h32.56.041,HF_wild_card,2022.2.4,MacIntel,60.45949214,57e17bdc1334540001170aa0,64d2fd46c836a06233681665,64dc7a3a13d7dc68afa1d418,,,,,,,ctch,resources/DR.BMP,resources/DBN.BMP,Door3,0.314285714,0.080952381,1,0,0,0.767,optionRight,70,14900,7,6,0,6,0,1,,,,,,,,,,,,,,,,,,,,,,,,,,,,,,,,,,,,,,,
,,,,,,,,2023-08-16_08h32.56.041,HF_wild_card,2022.2.4,MacIntel,60.45949214,57e17bdc1334540001170aa0,64d2fd46c836a06233681665,64dc7a3a13d7dc68afa1d418,,,,,,,decisionTrl,resources/DR.BMP,resources/DB.BMP,Door1,0.180952381,0.033333333,1,0,0,1.286,optionRight,30,14930,7,7,0,7,0,1,,,,,,,,,,,,,,,,,,,,,,,,,,,,,,,,,,,,,,,
,,,,,,,,2023-08-16_08h32.56.041,HF_wild_card,2022.2.4,MacIntel,60.45949214,57e17bdc1334540001170aa0,64d2fd46c836a06233681665,64dc7a3a13d7dc68afa1d418,,,,,,,decisionTrl,resources/DG.BMP,resources/DBN.BMP,Door4,-0.273333333,-0.024761905,1,0,0,0.854,optionLeft,80,15010,7,8,0,8,0,1,,,,,,,,,,,,,,,,,,,,,,,,,,,,,,,,,,,,,,,
,,,,,,,,2023-08-16_08h32.56.041,HF_wild_card,2022.2.4,MacIntel,60.45949214,57e17bdc1334540001170aa0,64d2fd46c836a06233681665,64dc7a3a13d7dc68afa1d418,,,,,,,decisionTrl,resources/DBN.BMP,resources/DG.BMP,Door3,-0.201904762,-0.05047619,1,0,0,0.653,optionLeft,70,15080,7,9,0,9,0,1,,,,,,,,,,,,,,,,,,,,,,,,,,,,,,,,,,,,,,,
,,,,,,,,2023-08-16_08h32.56.041,HF_wild_card,2022.2.4,MacIntel,60.45949214,57e17bdc1334540001170aa0,64d2fd46c836a06233681665,64dc7a3a13d7dc68afa1d418,,,,,,,ctch,resources/DBN.BMP,resources/DR.BMP,Door3,-0.293333333,-0.011428571,1,0,0,0.736,optionLeft,70,15150,7,10,0,10,0,1,,,,,,,,,,,,,,,,,,,,,,,,,,,,,,,,,,,,,,,
,,,,,,,,2023-08-16_08h32.56.041,HF_wild_card,2022.2.4,MacIntel,60.45949214,57e17bdc1334540001170aa0,64d2fd46c836a06233681665,64dc7a3a13d7dc68afa1d418,,,,,,,decisionTrl,resources/DG.BMP,resources/DBN.BMP,Door3,0.152380952,0.02952381,1,0,0,0.806,optionRight,70,15220,7,11,0,11,0,1,,,,,,,,,,,,,,,,,,,,,,,,,,,,,,,,,,,,,,,
,,,,,,,,2023-08-16_08h32.56.041,HF_wild_card,2022.2.4,MacIntel,60.45949214,57e17bdc1334540001170aa0,64d2fd46c836a06233681665,64dc7a3a13d7dc68afa1d418,,,,,,,ctch,resources/DBN.BMP,resources/DR.BMP,Door3,-0.21047619,-0.028571429,1,0,0,0.632,optionLeft,70,15290,7,12,0,12,0,1,,,,,,,,,,,,,,,,,,,,,,,,,,,,,,,,,,,,,,,
,,,,,,,,2023-08-16_08h32.56.041,HF_wild_card,2022.2.4,MacIntel,60.45949214,57e17bdc1334540001170aa0,64d2fd46c836a06233681665,64dc7a3a13d7dc68afa1d418,,,,,,,decisionTrl,resources/DBN.BMP,resources/DG.BMP,Door4,0.202857143,0.037142857,1,0,0,0.771,optionRight,80,15370,7,13,0,13,0,1,,,,,,,,,,,,,,,,,,,,,,,,,,,,,,,,,,,,,,,
,,,,,,,,2023-08-16_08h32.56.041,HF_wild_card,2022.2.4,MacIntel,60.45949214,57e17bdc1334540001170aa0,64d2fd46c836a06233681665,64dc7a3a13d7dc68afa1d418,,,,,,,decisionTrl,resources/DB.BMP,resources/DR.BMP,Door1,-0.317142857,-0.111428571,1,0,0,1.037,optionLeft,30,15400,7,14,0,14,0,1,,,,,,,,,,,,,,,,,,,,,,,,,,,,,,,,,,,,,,,
,,,,,,,,2023-08-16_08h32.56.041,HF_wild_card,2022.2.4,MacIntel,60.45949214,57e17bdc1334540001170aa0,64d2fd46c836a06233681665,64dc7a3a13d7dc68afa1d418,,,,,,,decisionTrl,resources/DR.BMP,resources/DB.BMP,Door2,-0.175238095,-0.05047619,1,0,0,1.008,optionLeft,20,15420,7,15,0,15,0,1,,,,,,,,,,,,,,,,,,,,,,,,,,,,,,,,,,,,,,,
,,,,,,,,2023-08-16_08h32.56.041,HF_wild_card,2022.2.4,MacIntel,60.45949214,57e17bdc1334540001170aa0,64d2fd46c836a06233681665,64dc7a3a13d7dc68afa1d418,,,,,,,decisionTrl,resources/DG.BMP,resources/DBN.BMP,Door3,0.159047619,0.042857143,1,0,0,0.82,optionRight,70,15490,7,16,0,16,0,1,,,,,,,,,,,,,,,,,,,,,,,,,,,,,,,,,,,,,,,
,,,,,,,,2023-08-16_08h32.56.041,HF_wild_card,2022.2.4,MacIntel,60.45949214,57e17bdc1334540001170aa0,64d2fd46c836a06233681665,64dc7a3a13d7dc68afa1d418,,,,,,,ctch,resources/DBN.BMP,resources/DR.BMP,Door3,-0.217142857,-0.043809524,1,0,0,0.569,optionLeft,70,15560,7,17,0,17,0,1,,,,,,,,,,,,,,,,,,,,,,,,,,,,,,,,,,,,,,,
,,,,,,,,2023-08-16_08h32.56.041,HF_wild_card,2022.2.4,MacIntel,60.45949214,57e17bdc1334540001170aa0,64d2fd46c836a06233681665,64dc7a3a13d7dc68afa1d418,,,,,,,decisionTrl,resources/DG.BMP,resources/DBN.BMP,Door4,-0.273333333,-0.073333333,1,0,0,0.882,optionLeft,60,15620,7,18,0,18,0,1,,,,,,,,,,,,,,,,,,,,,,,,,,,,,,,,,,,,,,,
,,,,,,,,2023-08-16_08h32.56.041,HF_wild_card,2022.2.4,MacIntel,60.45949214,57e17bdc1334540001170aa0,64d2fd46c836a06233681665,64dc7a3a13d7dc68afa1d418,,,,,,,decisionTrl,resources/DB.BMP,resources/DR.BMP,Door2,0.194285714,0.066666667,1,0,0,0.955,optionRight,20,15640,7,19,0,19,0,1,,,,,,,,,,,,,,,,,,,,,,,,,,,,,,,,,,,,,,,
,,,,,,,,2023-08-16_08h32.56.041,HF_wild_card,2022.2.4,MacIntel,60.45949214,57e17bdc1334540001170aa0,64d2fd46c836a06233681665,64dc7a3a13d7dc68afa1d418,,,,,,,decisionTrl,resources/DBN.BMP,resources/DG.BMP,Door3,-0.175238095,-0.016190476,1,0,0,0.732,optionLeft,70,15710,7,20,0,20,0,1,,,,,,,,,,,,,,,,,,,,,,,,,,,,,,,,,,,,,,,
,,,,,,,,2023-08-16_08h32.56.041,HF_wild_card,2022.2.4,MacIntel,60.45949214,57e17bdc1334540001170aa0,64d2fd46c836a06233681665,64dc7a3a13d7dc68afa1d418,,,,,,,decisionTrl,resources/DBN.BMP,resources/DG.BMP,Door3,-0.235238095,-0.021904762,1,0,0,0.617,optionLeft,70,15780,7,21,0,21,0,1,,,,,,,,,,,,,,,,,,,,,,,,,,,,,,,,,,,,,,,
,,,,,,,,2023-08-16_08h32.56.041,HF_wild_card,2022.2.4,MacIntel,60.45949214,57e17bdc1334540001170aa0,64d2fd46c836a06233681665,64dc7a3a13d7dc68afa1d418,,,,,,,decisionTrl,resources/DBN.BMP,resources/DG.BMP,Door4,0.177142857,0.055238095,1,0,0,0.64,optionRight,80,15860,7,22,0,22,0,1,,,,,,,,,,,,,,,,,,,,,,,,,,,,,,,,,,,,,,,
,,,,,,,,2023-08-16_08h32.56.041,HF_wild_card,2022.2.4,MacIntel,60.45949214,57e17bdc1334540001170aa0,64d2fd46c836a06233681665,64dc7a3a13d7dc68afa1d418,,,,,,,ctch,resources/DG.BMP,resources/DB.BMP,Door4,-0.133333333,-0.006666667,1,0,0,0.583,optionLeft,80,15940,7,23,0,23,0,1,,,,,,,,,,,,,,,,,,,,,,,,,,,,,,,,,,,,,,,
,,,,,,,,2023-08-16_08h32.56.041,HF_wild_card,2022.2.4,MacIntel,60.45949214,57e17bdc1334540001170aa0,64d2fd46c836a06233681665,64dc7a3a13d7dc68afa1d418,,,,,,,decisionTrl,resources/DR.BMP,resources/DB.BMP,Door1,0.147619048,0.008571429,1,0,0,0.908,optionRight,30,15970,7,24,0,24,0,1,,,,,,,,,,,,,,,,,,,,,,,,,,,,,,,,,,,,,,,
,,,,,,,,2023-08-16_08h32.56.041,HF_wild_card,2022.2.4,MacIntel,60.45949214,57e17bdc1334540001170aa0,64d2fd46c836a06233681665,64dc7a3a13d7dc68afa1d418,,,,,,,decisionTrl,resources/DR.BMP,resources/DB.BMP,Door2,-0.168571429,0.006666667,1,0,0,0.704,optionLeft,40,16010,7,25,0,25,0,1,,,,,,,,,,,,,,,,,,,,,,,,,,,,,,,,,,,,,,,
,,,,,,,,2023-08-16_08h32.56.041,HF_wild_card,2022.2.4,MacIntel,60.45949214,57e17bdc1334540001170aa0,64d2fd46c836a06233681665,64dc7a3a13d7dc68afa1d418,,,,,,,ctch,resources/DR.BMP,resources/DBN.BMP,Door2,-0.15047619,0.007619048,1,0,0,0.635,optionLeft,40,16050,7,26,0,26,0,1,,,,,,,,,,,,,,,,,,,,,,,,,,,,,,,,,,,,,,,
,,,,,,,,2023-08-16_08h32.56.041,HF_wild_card,2022.2.4,MacIntel,60.45949214,57e17bdc1334540001170aa0,64d2fd46c836a06233681665,64dc7a3a13d7dc68afa1d418,,,,,,,decisionTrl,resources/DBN.BMP,resources/DG.BMP,Door3,-0.194285714,-0.024761905,1,0,0,0.704,optionLeft,70,16120,7,27,0,27,0,1,,,,,,,,,,,,,,,,,,,,,,,,,,,,,,,,,,,,,,,
,,,,,,,,2023-08-16_08h32.56.041,HF_wild_card,2022.2.4,MacIntel,60.45949214,57e17bdc1334540001170aa0,64d2fd46c836a06233681665,64dc7a3a13d7dc68afa1d418,,,,,,,ctch,resources/DB.BMP,resources/DG.BMP,Door4,0.146666667,0.013333333,1,0,0,0.718,optionRight,60,16180,7,28,0,28,0,1,,,,,,,,,,,,,,,,,,,,,,,,,,,,,,,,,,,,,,,
,,,,,,,,2023-08-16_08h32.56.041,HF_wild_card,2022.2.4,MacIntel,60.45949214,57e17bdc1334540001170aa0,64d2fd46c836a06233681665,64dc7a3a13d7dc68afa1d418,,,,,,,decisionTrl,resources/DB.BMP,resources/DR.BMP,Door2,0.126666667,0.025714286,1,0,0,0.801,optionRight,40,16220,7,29,0,29,0,1,,,,,,,,,,,,,,,,,,,,,,,,,,,,,,,,,,,,,,,
,,,,,,,,2023-08-16_08h32.56.041,HF_wild_card,2022.2.4,MacIntel,60.45949214,57e17bdc1334540001170aa0,64d2fd46c836a06233681665,64dc7a3a13d7dc68afa1d418,,,,,,,decisionTrl,resources/DR.BMP,resources/DB.BMP,Door1,0.202857143,0.059047619,1,0,0,0.697,optionRight,30,16250,7,30,0,30,0,1,,,,,,,,,,,,,,,,,,,,,,,,,,,,,,,,,,,,,,,
,,,,,,,,2023-08-16_08h32.56.041,HF_wild_card,2022.2.4,MacIntel,60.45949214,57e17bdc1334540001170aa0,64d2fd46c836a06233681665,64dc7a3a13d7dc68afa1d418,,,,,,,ctch,resources/DG.BMP,resources/DB.BMP,Door4,-0.228571429,-0.024761905,1,0,0,0.608,optionLeft,80,16330,7,31,0,31,0,1,,,,,,,,,,,,,,,,,,,,,,,,,,,,,,,,,,,,,,,
,,,,,,,,2023-08-16_08h32.56.041,HF_wild_card,2022.2.4,MacIntel,60.45949214,57e17bdc1334540001170aa0,64d2fd46c836a06233681665,64dc7a3a13d7dc68afa1d418,,,,,,,decisionTrl,resources/DR.BMP,resources/DB.BMP,Door1,0.152380952,0.047619048,1,0,0,0.655,optionRight,30,16360,7,32,0,32,0,1,,,,,,,,,,,,,,,,,,,,,,,,,,,,,,,,,,,,,,,
,,,,,,,,2023-08-16_08h32.56.041,HF_wild_card,2022.2.4,MacIntel,60.45949214,57e17bdc1334540001170aa0,64d2fd46c836a06233681665,64dc7a3a13d7dc68afa1d418,,,,,,,decisionTrl,resources/DB.BMP,resources/DR.BMP,Door2,0.145714286,0.044761905,1,0,0,0.756,optionRight,20,16380,7,33,0,33,0,1,,,,,,,,,,,,,,,,,,,,,,,,,,,,,,,,,,,,,,,
,,,,,,,,2023-08-16_08h32.56.041,HF_wild_card,2022.2.4,MacIntel,60.45949214,57e17bdc1334540001170aa0,64d2fd46c836a06233681665,64dc7a3a13d7dc68afa1d418,,,,,,,decisionTrl,resources/DG.BMP,resources/DBN.BMP,Door4,-0.12952381,-0.022857143,1,0,0,0.565,optionLeft,80,16460,7,34,0,34,0,1,,,,,,,,,,,,,,,,,,,,,,,,,,,,,,,,,,,,,,,
,,,,,,,,2023-08-16_08h32.56.041,HF_wild_card,2022.2.4,MacIntel,60.45949214,57e17bdc1334540001170aa0,64d2fd46c836a06233681665,64dc7a3a13d7dc68afa1d418,,,,,,,decisionTrl,resources/DB.BMP,resources/DR.BMP,Door1,0.003809524,0.00952381,1,0,0,0.668,optionLeft,30,16490,7,35,0,35,0,1,,,,,,,,,,,,,,,,,,,,,,,,,,,,,,,,,,,,,,,
,,,,,,,,2023-08-16_08h32.56.041,HF_wild_card,2022.2.4,MacIntel,60.45949214,57e17bdc1334540001170aa0,64d2fd46c836a06233681665,64dc7a3a13d7dc68afa1d418,,,,,,,,,,,,,,,,,,,,,,,,,,6,0,6,0,1,,,,,,,,,,,,,,,,,,,,,,,,,,,,,,,,,,
,,,,,,,,2023-08-16_08h32.56.041,HF_wild_card,2022.2.4,MacIntel,60.45949214,57e17bdc1334540001170aa0,64d2fd46c836a06233681665,64dc7a3a13d7dc68afa1d418,,,,,,,,,,,,,,,,,,,,,,,,,,,,,,,4,,,,,,,,,,,,,,,,,,,,,,,,,,,,,,,,,
,,,,,,,,2023-08-16_08h32.56.041,HF_wild_card,2022.2.4,MacIntel,60.45949214,57e17bdc1334540001170aa0,64d2fd46c836a06233681665,64dc7a3a13d7dc68afa1d418,,,,,,,,,,,,,,,,,,,,,,,,,,,,,,,,,,,,,,,,,,,,,,,,,,,,,,,,,,,,,,,,
,,,,,,,,2023-08-16_08h32.56.041,HF_wild_card,2022.2.4,MacIntel,60.45949214,57e17bdc1334540001170aa0,64d2fd46c836a06233681665,64dc7a3a13d7dc68afa1d418,,,,,,,,,,,,,,,,,,,,,,,,,,,,,,,,50,WC_extreme,resources/DY.BMP,0,0,0,0,1,,,,,,,,,,,,,,,,,,,,,,,,,
,,,,,,,,2023-08-16_08h32.56.041,HF_wild_card,2022.2.4,MacIntel,60.45949214,57e17bdc1334540001170aa0,64d2fd46c836a06233681665,64dc7a3a13d7dc68afa1d418,,,,,,,,,,,,,,,,,,,,,,,,,,,,,,,,80,Door4,resources/DG.BMP,1,0,1,0,1,,,,,,,,,,,,,,,,,,,,,,,,,
,,,,,,,,2023-08-16_08h32.56.041,HF_wild_card,2022.2.4,MacIntel,60.45949214,57e17bdc1334540001170aa0,64d2fd46c836a06233681665,64dc7a3a13d7dc68afa1d418,,,,,,,,,,,,,,,,,,,,,,,,,,,,,,,,50,WC_nonExtreme,resources/DP.BMP,2,0,2,0,1,,,,,,,,,,,,,,,,,,,,,,,,,
,,,,,,,,2023-08-16_08h32.56.041,HF_wild_card,2022.2.4,MacIntel,60.45949214,57e17bdc1334540001170aa0,64d2fd46c836a06233681665,64dc7a3a13d7dc68afa1d418,,,,,,,,,,,,,,,,,,,,,,,,,,,,,,,,70,Door3,resources/DBN.BMP,3,0,3,0,1,,,,,,,,,,,,,,,,,,,,,,,,,
