Condition,Low fixed image (Door1),Low risky image (Door2),High fixed image (Door3),High risky image (Door4),Extreme Wild Card,NonExtreme Wild Card,,date,expName,psychopyVersion,OS,frameRate,PROLIFIC_PID,STUDY_ID,SESSION_ID,mouse_2.x,mouse_2.y,mouse_2.leftButton,mouse_2.midButton,mouse_2.rightButton,mouse_2.clicked_name,Trial Type,Left Option Image,Right Option Image,Chosen Door,mouse.x,mouse.y,mouse.leftButton,mouse.midButton,mouse.rightButton,mouse.time,mouse.clicked_name,Feedback,Cumulative Reward,Block,trial.thisRepN,trial.thisTrialN,trial.thisN,trial.thisIndex,trial.ran,blocks.thisRepN,blocks.thisTrialN,blocks.thisN,blocks.thisIndex,blocks.ran,Money conversion,First Outcome Reported,Shown Door (First Outcome),Displayed Image (First Outcome),outcomes.thisRepN,outcomes.thisTrialN,outcomes.thisN,outcomes.thisIndex,outcomes.ran,judgments.thisRepN,judgments.thisTrialN,judgments.thisN,judgments.thisIndex,judgments.ran,freqMouse.x,freqMouse.y,freqMouse.leftButton,freqMouse.midButton,freqMouse.rightButton,freqMouse.clicked_name,FQJ for first outcome,FQJ for second outcome,Shown Door,Displayed Image,trials.thisRepN,trials.thisTrialN,trials.thisN,trials.thisIndex,trials.ran,judgBlock.thisRepN,judgBlock.thisTrialN,judgBlock.thisN,judgBlock.thisIndex,judgBlock.ran
0,resources/DG.BMP,resources/DP.BMP,resources/DBN.BMP,resources/DR.BMP,resources/DY.BMP,resources/DB.BMP,62029c60ef1cb18a1337c9d4,2023-08-06_08h17.46.309,HF_wild_card,2022.2.4,Win32,60.09615385,62029c60ef1cb18a1337c9d4,64ce5acb97489d65b14ecc7a,64cf490a9fcae12788e2d4e1,,,,,,,,,,,,,,,,,,,,,,,,,,,,,,,,,,,,,,,,,,,,,,,,,,,,,,,,,,,,,,,,
,,,,,,,62029c60ef1cb18a1337c9d4,2023-08-06_08h17.46.309,HF_wild_card,2022.2.4,Win32,60.09615385,62029c60ef1cb18a1337c9d4,64ce5acb97489d65b14ecc7a,64cf490a9fcae12788e2d4e1,0.001111111,-0.427777778,1,0,0,agree,,,,,,,,,,,,,,,,,,,,,,,,,,,,,,,,,,,,,,,,,,,,,,,,,,,,,,,,,,
,,,,,,,62029c60ef1cb18a1337c9d4,2023-08-06_08h17.46.309,HF_wild_card,2022.2.4,Win32,60.09615385,62029c60ef1cb18a1337c9d4,64ce5acb97489d65b14ecc7a,64cf490a9fcae12788e2d4e1,,,,,,,,,,,,,,,,,,,,,,,,,,,,,,,,,,,,,,,,,,,,,,,,,,,,,,,,,,,,,,,,
,,,,,,,62029c60ef1cb18a1337c9d4,2023-08-06_08h17.46.309,HF_wild_card,2022.2.4,Win32,60.09615385,62029c60ef1cb18a1337c9d4,64ce5acb97489d65b14ecc7a,64cf490a9fcae12788e2d4e1,,,,,,,decisionTrl,resources/DY.BMP,resources/DG.BMP,WildCard_Ex,-0.264444444,-0.061111111,1,0,0,2.506,optionLeft,95,95,1,0,0,0,0,1,,,,,,,,,,,,,,,,,,,,,,,,,,,,,,,,,,,,,,,
,,,,,,,62029c60ef1cb18a1337c9d4,2023-08-06_08h17.46.309,HF_wild_card,2022.2.4,Win32,60.09615385,62029c60ef1cb18a1337c9d4,64ce5acb97489d65b14ecc7a,64cf490a9fcae12788e2d4e1,,,,,,,decisionTrl,resources/DP.BMP,resources/DY.BMP,WildCard_Ex,0.371111111,-0.032222222,1,0,0,1.0914,optionRight,95,190,1,1,0,1,0,1,,,,,,,,,,,,,,,,,,,,,,,,,,,,,,,,,,,,,,,
,,,,,,,62029c60ef1cb18a1337c9d4,2023-08-06_08h17.46.309,HF_wild_card,2022.2.4,Win32,60.09615385,62029c60ef1cb18a1337c9d4,64ce5acb97489d65b14ecc7a,64cf490a9fcae12788e2d4e1,,,,,,,decisionTrl,resources/DR.BMP,resources/DBN.BMP,Door3,0.26,-0.022222222,1,0,0,1.0256,optionRight,70,260,1,2,0,2,0,1,,,,,,,,,,,,,,,,,,,,,,,,,,,,,,,,,,,,,,,
,,,,,,,62029c60ef1cb18a1337c9d4,2023-08-06_08h17.46.309,HF_wild_card,2022.2.4,Win32,60.09615385,62029c60ef1cb18a1337c9d4,64ce5acb97489d65b14ecc7a,64cf490a9fcae12788e2d4e1,,,,,,,decisionTrl,resources/DBN.BMP,resources/DR.BMP,Door3,-0.441111111,-0.007777778,1,0,0,0.7612,optionLeft,70,330,1,3,0,3,0,1,,,,,,,,,,,,,,,,,,,,,,,,,,,,,,,,,,,,,,,
,,,,,,,62029c60ef1cb18a1337c9d4,2023-08-06_08h17.46.309,HF_wild_card,2022.2.4,Win32,60.09615385,62029c60ef1cb18a1337c9d4,64ce5acb97489d65b14ecc7a,64cf490a9fcae12788e2d4e1,,,,,,,decisionTrl,resources/DP.BMP,resources/DG.BMP,Door1,0.493333333,-0.002222222,1,0,0,1.0763,optionRight,30,360,1,4,0,4,0,1,,,,,,,,,,,,,,,,,,,,,,,,,,,,,,,,,,,,,,,
,,,,,,,62029c60ef1cb18a1337c9d4,2023-08-06_08h17.46.309,HF_wild_card,2022.2.4,Win32,60.09615385,62029c60ef1cb18a1337c9d4,64ce5acb97489d65b14ecc7a,64cf490a9fcae12788e2d4e1,,,,,,,sngl,resources/Empty.png,resources/DR.BMP,Door4,0.238888889,-0.016666667,1,0,0,0.9128,optionRight,60,420,1,5,0,5,0,1,,,,,,,,,,,,,,,,,,,,,,,,,,,,,,,,,,,,,,,
,,,,,,,62029c60ef1cb18a1337c9d4,2023-08-06_08h17.46.309,HF_wild_card,2022.2.4,Win32,60.09615385,62029c60ef1cb18a1337c9d4,64ce5acb97489d65b14ecc7a,64cf490a9fcae12788e2d4e1,,,,,,,ctch,resources/DP.BMP,resources/DBN.BMP,Door3,0.271111111,-0.01,1,0,0,1.5092,optionRight,70,490,1,6,0,6,0,1,,,,,,,,,,,,,,,,,,,,,,,,,,,,,,,,,,,,,,,
,,,,,,,62029c60ef1cb18a1337c9d4,2023-08-06_08h17.46.309,HF_wild_card,2022.2.4,Win32,60.09615385,62029c60ef1cb18a1337c9d4,64ce5acb97489d65b14ecc7a,64cf490a9fcae12788e2d4e1,,,,,,,decisionTrl,resources/DG.BMP,resources/DP.BMP,Door2,0.298888889,0,1,0,0,1.8755,optionRight,40,530,1,7,0,7,0,1,,,,,,,,,,,,,,,,,,,,,,,,,,,,,,,,,,,,,,,
,,,,,,,62029c60ef1cb18a1337c9d4,2023-08-06_08h17.46.309,HF_wild_card,2022.2.4,Win32,60.09615385,62029c60ef1cb18a1337c9d4,64ce5acb97489d65b14ecc7a,64cf490a9fcae12788e2d4e1,,,,,,,decisionTrl,resources/DBN.BMP,resources/DR.BMP,Door3,-0.287777778,-0.026666667,1,0,0,1.3926,optionLeft,70,600,1,8,0,8,0,1,,,,,,,,,,,,,,,,,,,,,,,,,,,,,,,,,,,,,,,
,,,,,,,62029c60ef1cb18a1337c9d4,2023-08-06_08h17.46.309,HF_wild_card,2022.2.4,Win32,60.09615385,62029c60ef1cb18a1337c9d4,64ce5acb97489d65b14ecc7a,64cf490a9fcae12788e2d4e1,,,,,,,sngl,resources/Empty.png,resources/DP.BMP,Door2,0.246666667,-0.044444444,1,0,0,1.1107,optionRight,20,620,1,9,0,9,0,1,,,,,,,,,,,,,,,,,,,,,,,,,,,,,,,,,,,,,,,
,,,,,,,62029c60ef1cb18a1337c9d4,2023-08-06_08h17.46.309,HF_wild_card,2022.2.4,Win32,60.09615385,62029c60ef1cb18a1337c9d4,64ce5acb97489d65b14ecc7a,64cf490a9fcae12788e2d4e1,,,,,,,sngl,resources/DG.BMP,resources/Empty.png,Door1,-0.231111111,-0.014444444,1,0,0,1.0101,optionLeft,30,650,1,10,0,10,0,1,,,,,,,,,,,,,,,,,,,,,,,,,,,,,,,,,,,,,,,
,,,,,,,62029c60ef1cb18a1337c9d4,2023-08-06_08h17.46.309,HF_wild_card,2022.2.4,Win32,60.09615385,62029c60ef1cb18a1337c9d4,64ce5acb97489d65b14ecc7a,64cf490a9fcae12788e2d4e1,,,,,,,sngl,resources/Empty.png,resources/DG.BMP,Door1,0.291111111,-0.013333333,1,0,0,0.6267,optionRight,30,680,1,11,0,11,0,1,,,,,,,,,,,,,,,,,,,,,,,,,,,,,,,,,,,,,,,
,,,,,,,62029c60ef1cb18a1337c9d4,2023-08-06_08h17.46.309,HF_wild_card,2022.2.4,Win32,60.09615385,62029c60ef1cb18a1337c9d4,64ce5acb97489d65b14ecc7a,64cf490a9fcae12788e2d4e1,,,,,,,sngl,resources/DY.BMP,resources/Empty.png,WildCard_Ex,-0.28,-0.012222222,1,0,0,0.7279,optionLeft,5,685,1,12,0,12,0,1,,,,,,,,,,,,,,,,,,,,,,,,,,,,,,,,,,,,,,,
,,,,,,,62029c60ef1cb18a1337c9d4,2023-08-06_08h17.46.309,HF_wild_card,2022.2.4,Win32,60.09615385,62029c60ef1cb18a1337c9d4,64ce5acb97489d65b14ecc7a,64cf490a9fcae12788e2d4e1,,,,,,,decisionTrl,resources/DY.BMP,resources/DR.BMP,WildCard_Ex,-0.217777778,-0.012222222,1,0,0,1.1925,optionLeft,95,780,1,13,0,13,0,1,,,,,,,,,,,,,,,,,,,,,,,,,,,,,,,,,,,,,,,
,,,,,,,62029c60ef1cb18a1337c9d4,2023-08-06_08h17.46.309,HF_wild_card,2022.2.4,Win32,60.09615385,62029c60ef1cb18a1337c9d4,64ce5acb97489d65b14ecc7a,64cf490a9fcae12788e2d4e1,,,,,,,decisionTrl,resources/DP.BMP,resources/DG.BMP,Door2,-0.291111111,-0.015555556,1,0,0,1.0434,optionLeft,40,820,1,14,0,14,0,1,,,,,,,,,,,,,,,,,,,,,,,,,,,,,,,,,,,,,,,
,,,,,,,62029c60ef1cb18a1337c9d4,2023-08-06_08h17.46.309,HF_wild_card,2022.2.4,Win32,60.09615385,62029c60ef1cb18a1337c9d4,64ce5acb97489d65b14ecc7a,64cf490a9fcae12788e2d4e1,,,,,,,sngl,resources/Empty.png,resources/DY.BMP,WildCard_Ex,0.196666667,0.013333333,1,0,0,0.8778,optionRight,5,825,1,15,0,15,0,1,,,,,,,,,,,,,,,,,,,,,,,,,,,,,,,,,,,,,,,
,,,,,,,62029c60ef1cb18a1337c9d4,2023-08-06_08h17.46.309,HF_wild_card,2022.2.4,Win32,60.09615385,62029c60ef1cb18a1337c9d4,64ce5acb97489d65b14ecc7a,64cf490a9fcae12788e2d4e1,,,,,,,decisionTrl,resources/DBN.BMP,resources/DY.BMP,Door3,-0.284444444,-0.008888889,1,0,0,1.1613,optionLeft,70,895,1,16,0,16,0,1,,,,,,,,,,,,,,,,,,,,,,,,,,,,,,,,,,,,,,,
,,,,,,,62029c60ef1cb18a1337c9d4,2023-08-06_08h17.46.309,HF_wild_card,2022.2.4,Win32,60.09615385,62029c60ef1cb18a1337c9d4,64ce5acb97489d65b14ecc7a,64cf490a9fcae12788e2d4e1,,,,,,,decisionTrl,resources/DY.BMP,resources/DBN.BMP,Door3,0.241111111,-0.007777778,1,0,0,0.9783,optionRight,70,965,1,17,0,17,0,1,,,,,,,,,,,,,,,,,,,,,,,,,,,,,,,,,,,,,,,
,,,,,,,62029c60ef1cb18a1337c9d4,2023-08-06_08h17.46.309,HF_wild_card,2022.2.4,Win32,60.09615385,62029c60ef1cb18a1337c9d4,64ce5acb97489d65b14ecc7a,64cf490a9fcae12788e2d4e1,,,,,,,ctch,resources/DG.BMP,resources/DR.BMP,Door4,0.278888889,-0.014444444,1,0,0,1.1289,optionRight,60,1025,1,18,0,18,0,1,,,,,,,,,,,,,,,,,,,,,,,,,,,,,,,,,,,,,,,
,,,,,,,62029c60ef1cb18a1337c9d4,2023-08-06_08h17.46.309,HF_wild_card,2022.2.4,Win32,60.09615385,62029c60ef1cb18a1337c9d4,64ce5acb97489d65b14ecc7a,64cf490a9fcae12788e2d4e1,,,,,,,sngl,resources/Empty.png,resources/DBN.BMP,Door3,0.267777778,-0.001111111,1,0,0,0.8119,optionRight,70,1095,1,19,0,19,0,1,,,,,,,,,,,,,,,,,,,,,,,,,,,,,,,,,,,,,,,
,,,,,,,62029c60ef1cb18a1337c9d4,2023-08-06_08h17.46.309,HF_wild_card,2022.2.4,Win32,60.09615385,62029c60ef1cb18a1337c9d4,64ce5acb97489d65b14ecc7a,64cf490a9fcae12788e2d4e1,,,,,,,decisionTrl,resources/DR.BMP,resources/DBN.BMP,Door3,0.294444444,-0.027777778,1,0,0,0.8612,optionRight,70,1165,1,20,0,20,0,1,,,,,,,,,,,,,,,,,,,,,,,,,,,,,,,,,,,,,,,
,,,,,,,62029c60ef1cb18a1337c9d4,2023-08-06_08h17.46.309,HF_wild_card,2022.2.4,Win32,60.09615385,62029c60ef1cb18a1337c9d4,64ce5acb97489d65b14ecc7a,64cf490a9fcae12788e2d4e1,,,,,,,ctch,resources/DP.BMP,resources/DBN.BMP,Door3,0.344444444,-0.005555556,1,0,0,0.6444,optionRight,70,1235,1,21,0,21,0,1,,,,,,,,,,,,,,,,,,,,,,,,,,,,,,,,,,,,,,,
,,,,,,,62029c60ef1cb18a1337c9d4,2023-08-06_08h17.46.309,HF_wild_card,2022.2.4,Win32,60.09615385,62029c60ef1cb18a1337c9d4,64ce5acb97489d65b14ecc7a,64cf490a9fcae12788e2d4e1,,,,,,,decisionTrl,resources/DG.BMP,resources/DP.BMP,Door2,0.346666667,-0.026666667,1,0,0,1.3604,optionRight,40,1275,1,22,0,22,0,1,,,,,,,,,,,,,,,,,,,,,,,,,,,,,,,,,,,,,,,
,,,,,,,62029c60ef1cb18a1337c9d4,2023-08-06_08h17.46.309,HF_wild_card,2022.2.4,Win32,60.09615385,62029c60ef1cb18a1337c9d4,64ce5acb97489d65b14ecc7a,64cf490a9fcae12788e2d4e1,,,,,,,sngl,resources/DY.BMP,resources/Empty.png,WildCard_Ex,-0.242222222,-0.012222222,1,0,0,0.7107,optionLeft,95,1370,1,23,0,23,0,1,,,,,,,,,,,,,,,,,,,,,,,,,,,,,,,,,,,,,,,
,,,,,,,62029c60ef1cb18a1337c9d4,2023-08-06_08h17.46.309,HF_wild_card,2022.2.4,Win32,60.09615385,62029c60ef1cb18a1337c9d4,64ce5acb97489d65b14ecc7a,64cf490a9fcae12788e2d4e1,,,,,,,decisionTrl,resources/DY.BMP,resources/DP.BMP,WildCard_Ex,-0.314444444,-0.011111111,1,0,0,0.8937,optionLeft,5,1375,1,24,0,24,0,1,,,,,,,,,,,,,,,,,,,,,,,,,,,,,,,,,,,,,,,
,,,,,,,62029c60ef1cb18a1337c9d4,2023-08-06_08h17.46.309,HF_wild_card,2022.2.4,Win32,60.09615385,62029c60ef1cb18a1337c9d4,64ce5acb97489d65b14ecc7a,64cf490a9fcae12788e2d4e1,,,,,,,sngl,resources/DBN.BMP,resources/Empty.png,Door3,-0.222222222,0.033333333,1,0,0,0.9274,optionLeft,70,1445,1,25,0,25,0,1,,,,,,,,,,,,,,,,,,,,,,,,,,,,,,,,,,,,,,,
,,,,,,,62029c60ef1cb18a1337c9d4,2023-08-06_08h17.46.309,HF_wild_card,2022.2.4,Win32,60.09615385,62029c60ef1cb18a1337c9d4,64ce5acb97489d65b14ecc7a,64cf490a9fcae12788e2d4e1,,,,,,,sngl,resources/Empty.png,resources/DY.BMP,WildCard_Ex,0.346666667,0.025555556,1,0,0,0.6629,optionRight,95,1540,1,26,0,26,0,1,,,,,,,,,,,,,,,,,,,,,,,,,,,,,,,,,,,,,,,
,,,,,,,62029c60ef1cb18a1337c9d4,2023-08-06_08h17.46.309,HF_wild_card,2022.2.4,Win32,60.09615385,62029c60ef1cb18a1337c9d4,64ce5acb97489d65b14ecc7a,64cf490a9fcae12788e2d4e1,,,,,,,decisionTrl,resources/DBN.BMP,resources/DR.BMP,Door3,-0.216666667,0.017777778,1,0,0,0.8549,optionLeft,70,1610,1,27,0,27,0,1,,,,,,,,,,,,,,,,,,,,,,,,,,,,,,,,,,,,,,,
,,,,,,,62029c60ef1cb18a1337c9d4,2023-08-06_08h17.46.309,HF_wild_card,2022.2.4,Win32,60.09615385,62029c60ef1cb18a1337c9d4,64ce5acb97489d65b14ecc7a,64cf490a9fcae12788e2d4e1,,,,,,,decisionTrl,resources/DG.BMP,resources/DP.BMP,Door2,0.234444444,0.004444444,1,0,0,1.3764,optionRight,20,1630,1,28,0,28,0,1,,,,,,,,,,,,,,,,,,,,,,,,,,,,,,,,,,,,,,,
,,,,,,,62029c60ef1cb18a1337c9d4,2023-08-06_08h17.46.309,HF_wild_card,2022.2.4,Win32,60.09615385,62029c60ef1cb18a1337c9d4,64ce5acb97489d65b14ecc7a,64cf490a9fcae12788e2d4e1,,,,,,,ctch,resources/DR.BMP,resources/DG.BMP,Door4,-0.392222222,0.017777778,1,0,0,0.9938,optionLeft,60,1690,1,29,0,29,0,1,,,,,,,,,,,,,,,,,,,,,,,,,,,,,,,,,,,,,,,
,,,,,,,62029c60ef1cb18a1337c9d4,2023-08-06_08h17.46.309,HF_wild_card,2022.2.4,Win32,60.09615385,62029c60ef1cb18a1337c9d4,64ce5acb97489d65b14ecc7a,64cf490a9fcae12788e2d4e1,,,,,,,decisionTrl,resources/DG.BMP,resources/DY.BMP,WildCard_Ex,0.242222222,-0.015555556,1,0,0,0.8112,optionRight,95,1785,1,30,0,30,0,1,,,,,,,,,,,,,,,,,,,,,,,,,,,,,,,,,,,,,,,
,,,,,,,62029c60ef1cb18a1337c9d4,2023-08-06_08h17.46.309,HF_wild_card,2022.2.4,Win32,60.09615385,62029c60ef1cb18a1337c9d4,64ce5acb97489d65b14ecc7a,64cf490a9fcae12788e2d4e1,,,,,,,decisionTrl,resources/DR.BMP,resources/DBN.BMP,Door3,0.256666667,0.016666667,1,0,0,0.8311,optionRight,70,1855,1,31,0,31,0,1,,,,,,,,,,,,,,,,,,,,,,,,,,,,,,,,,,,,,,,
,,,,,,,62029c60ef1cb18a1337c9d4,2023-08-06_08h17.46.309,HF_wild_card,2022.2.4,Win32,60.09615385,62029c60ef1cb18a1337c9d4,64ce5acb97489d65b14ecc7a,64cf490a9fcae12788e2d4e1,,,,,,,decisionTrl,resources/DG.BMP,resources/DP.BMP,Door2,0.267777778,0.005555556,1,0,0,1.1773,optionRight,40,1895,1,32,0,32,0,1,,,,,,,,,,,,,,,,,,,,,,,,,,,,,,,,,,,,,,,
,,,,,,,62029c60ef1cb18a1337c9d4,2023-08-06_08h17.46.309,HF_wild_card,2022.2.4,Win32,60.09615385,62029c60ef1cb18a1337c9d4,64ce5acb97489d65b14ecc7a,64cf490a9fcae12788e2d4e1,,,,,,,decisionTrl,resources/DP.BMP,resources/DG.BMP,Door1,0.281111111,-0.008888889,1,0,0,0.9276,optionRight,30,1925,1,33,0,33,0,1,,,,,,,,,,,,,,,,,,,,,,,,,,,,,,,,,,,,,,,
,,,,,,,62029c60ef1cb18a1337c9d4,2023-08-06_08h17.46.309,HF_wild_card,2022.2.4,Win32,60.09615385,62029c60ef1cb18a1337c9d4,64ce5acb97489d65b14ecc7a,64cf490a9fcae12788e2d4e1,,,,,,,ctch,resources/DR.BMP,resources/DG.BMP,Door4,-0.273333333,-0.012222222,1,0,0,1.2594,optionLeft,80,2005,1,34,0,34,0,1,,,,,,,,,,,,,,,,,,,,,,,,,,,,,,,,,,,,,,,
,,,,,,,62029c60ef1cb18a1337c9d4,2023-08-06_08h17.46.309,HF_wild_card,2022.2.4,Win32,60.09615385,62029c60ef1cb18a1337c9d4,64ce5acb97489d65b14ecc7a,64cf490a9fcae12788e2d4e1,,,,,,,decisionTrl,resources/DP.BMP,resources/DG.BMP,Door2,-0.287777778,0,1,0,0,0.846,optionLeft,40,2045,1,35,0,35,0,1,,,,,,,,,,,,,,,,,,,,,,,,,,,,,,,,,,,,,,,
,,,,,,,62029c60ef1cb18a1337c9d4,2023-08-06_08h17.46.309,HF_wild_card,2022.2.4,Win32,60.09615385,62029c60ef1cb18a1337c9d4,64ce5acb97489d65b14ecc7a,64cf490a9fcae12788e2d4e1,,,,,,,ctch,resources/DG.BMP,resources/DR.BMP,Door4,0.241111111,-0.008888889,1,0,0,0.7774,optionRight,80,2125,1,36,0,36,0,1,,,,,,,,,,,,,,,,,,,,,,,,,,,,,,,,,,,,,,,
,,,,,,,62029c60ef1cb18a1337c9d4,2023-08-06_08h17.46.309,HF_wild_card,2022.2.4,Win32,60.09615385,62029c60ef1cb18a1337c9d4,64ce5acb97489d65b14ecc7a,64cf490a9fcae12788e2d4e1,,,,,,,ctch,resources/DBN.BMP,resources/DP.BMP,Door3,-0.252222222,-0.002222222,1,0,0,0.8945,optionLeft,70,2195,1,37,0,37,0,1,,,,,,,,,,,,,,,,,,,,,,,,,,,,,,,,,,,,,,,
,,,,,,,62029c60ef1cb18a1337c9d4,2023-08-06_08h17.46.309,HF_wild_card,2022.2.4,Win32,60.09615385,62029c60ef1cb18a1337c9d4,64ce5acb97489d65b14ecc7a,64cf490a9fcae12788e2d4e1,,,,,,,decisionTrl,resources/DR.BMP,resources/DY.BMP,WildCard_Ex,0.257777778,-0.003333333,1,0,0,1.2616,optionRight,5,2200,1,38,0,38,0,1,,,,,,,,,,,,,,,,,,,,,,,,,,,,,,,,,,,,,,,
,,,,,,,62029c60ef1cb18a1337c9d4,2023-08-06_08h17.46.309,HF_wild_card,2022.2.4,Win32,60.09615385,62029c60ef1cb18a1337c9d4,64ce5acb97489d65b14ecc7a,64cf490a9fcae12788e2d4e1,,,,,,,decisionTrl,resources/DR.BMP,resources/DBN.BMP,Door3,0.313333333,0.021111111,1,0,0,0.7941,optionRight,70,2270,1,39,0,39,0,1,,,,,,,,,,,,,,,,,,,,,,,,,,,,,,,,,,,,,,,
,,,,,,,62029c60ef1cb18a1337c9d4,2023-08-06_08h17.46.309,HF_wild_card,2022.2.4,Win32,60.09615385,62029c60ef1cb18a1337c9d4,64ce5acb97489d65b14ecc7a,64cf490a9fcae12788e2d4e1,,,,,,,sngl,resources/DR.BMP,resources/Empty.png,Door4,-0.315555556,0.027777778,1,0,0,0.7929,optionLeft,80,2350,1,40,0,40,0,1,,,,,,,,,,,,,,,,,,,,,,,,,,,,,,,,,,,,,,,
,,,,,,,62029c60ef1cb18a1337c9d4,2023-08-06_08h17.46.309,HF_wild_card,2022.2.4,Win32,60.09615385,62029c60ef1cb18a1337c9d4,64ce5acb97489d65b14ecc7a,64cf490a9fcae12788e2d4e1,,,,,,,ctch,resources/DBN.BMP,resources/DP.BMP,Door3,-0.226666667,0.003333333,1,0,0,0.7946,optionLeft,70,2420,1,41,0,41,0,1,,,,,,,,,,,,,,,,,,,,,,,,,,,,,,,,,,,,,,,
,,,,,,,62029c60ef1cb18a1337c9d4,2023-08-06_08h17.46.309,HF_wild_card,2022.2.4,Win32,60.09615385,62029c60ef1cb18a1337c9d4,64ce5acb97489d65b14ecc7a,64cf490a9fcae12788e2d4e1,,,,,,,decisionTrl,resources/DBN.BMP,resources/DR.BMP,Door3,-0.195555556,0.006666667,1,0,0,0.7943,optionLeft,70,2490,1,42,0,42,0,1,,,,,,,,,,,,,,,,,,,,,,,,,,,,,,,,,,,,,,,
,,,,,,,62029c60ef1cb18a1337c9d4,2023-08-06_08h17.46.309,HF_wild_card,2022.2.4,Win32,60.09615385,62029c60ef1cb18a1337c9d4,64ce5acb97489d65b14ecc7a,64cf490a9fcae12788e2d4e1,,,,,,,sngl,resources/DP.BMP,resources/Empty.png,Door2,-0.19,0.018888889,1,0,0,0.8781,optionLeft,40,2530,1,43,0,43,0,1,,,,,,,,,,,,,,,,,,,,,,,,,,,,,,,,,,,,,,,
,,,,,,,62029c60ef1cb18a1337c9d4,2023-08-06_08h17.46.309,HF_wild_card,2022.2.4,Win32,60.09615385,62029c60ef1cb18a1337c9d4,64ce5acb97489d65b14ecc7a,64cf490a9fcae12788e2d4e1,,,,,,,,,,,,,,,,,,,,,,,,,,0,0,0,0,1,,,,,,,,,,,,,,,,,,,,,,,,,,,,,,,,,,
,,,,,,,62029c60ef1cb18a1337c9d4,2023-08-06_08h17.46.309,HF_wild_card,2022.2.4,Win32,60.09615385,62029c60ef1cb18a1337c9d4,64ce5acb97489d65b14ecc7a,64cf490a9fcae12788e2d4e1,,,,,,,decisionTrl,resources/DBN.BMP,resources/DY.BMP,Door3,-0.44,-0.141111111,1,0,0,0.9813,optionLeft,70,2600,2,0,0,0,0,1,,,,,,,,,,,,,,,,,,,,,,,,,,,,,,,,,,,,,,,
,,,,,,,62029c60ef1cb18a1337c9d4,2023-08-06_08h17.46.309,HF_wild_card,2022.2.4,Win32,60.09615385,62029c60ef1cb18a1337c9d4,64ce5acb97489d65b14ecc7a,64cf490a9fcae12788e2d4e1,,,,,,,decisionTrl,resources/DG.BMP,resources/DP.BMP,Door1,-0.18,-0.022222222,1,0,0,1.8272,optionLeft,30,2630,2,1,0,1,0,1,,,,,,,,,,,,,,,,,,,,,,,,,,,,,,,,,,,,,,,
,,,,,,,62029c60ef1cb18a1337c9d4,2023-08-06_08h17.46.309,HF_wild_card,2022.2.4,Win32,60.09615385,62029c60ef1cb18a1337c9d4,64ce5acb97489d65b14ecc7a,64cf490a9fcae12788e2d4e1,,,,,,,decisionTrl,resources/DR.BMP,resources/DBN.BMP,Door3,0.313333333,-0.008888889,1,0,0,0.7285,optionRight,70,2700,2,2,0,2,0,1,,,,,,,,,,,,,,,,,,,,,,,,,,,,,,,,,,,,,,,
,,,,,,,62029c60ef1cb18a1337c9d4,2023-08-06_08h17.46.309,HF_wild_card,2022.2.4,Win32,60.09615385,62029c60ef1cb18a1337c9d4,64ce5acb97489d65b14ecc7a,64cf490a9fcae12788e2d4e1,,,,,,,sngl,resources/Empty.png,resources/DG.BMP,Door1,0.265555556,-0.002222222,1,0,0,0.9614,optionRight,30,2730,2,3,0,3,0,1,,,,,,,,,,,,,,,,,,,,,,,,,,,,,,,,,,,,,,,
,,,,,,,62029c60ef1cb18a1337c9d4,2023-08-06_08h17.46.309,HF_wild_card,2022.2.4,Win32,60.09615385,62029c60ef1cb18a1337c9d4,64ce5acb97489d65b14ecc7a,64cf490a9fcae12788e2d4e1,,,,,,,decisionTrl,resources/DP.BMP,resources/DG.BMP,Door2,-0.138888889,0.004444444,1,0,0,1.1776,optionLeft,40,2770,2,4,0,4,0,1,,,,,,,,,,,,,,,,,,,,,,,,,,,,,,,,,,,,,,,
,,,,,,,62029c60ef1cb18a1337c9d4,2023-08-06_08h17.46.309,HF_wild_card,2022.2.4,Win32,60.09615385,62029c60ef1cb18a1337c9d4,64ce5acb97489d65b14ecc7a,64cf490a9fcae12788e2d4e1,,,,,,,ctch,resources/DBN.BMP,resources/DP.BMP,Door3,-0.306666667,0.006666667,1,0,0,0.8109,optionLeft,70,2840,2,5,0,5,0,1,,,,,,,,,,,,,,,,,,,,,,,,,,,,,,,,,,,,,,,
,,,,,,,62029c60ef1cb18a1337c9d4,2023-08-06_08h17.46.309,HF_wild_card,2022.2.4,Win32,60.09615385,62029c60ef1cb18a1337c9d4,64ce5acb97489d65b14ecc7a,64cf490a9fcae12788e2d4e1,,,,,,,decisionTrl,resources/DR.BMP,resources/DBN.BMP,Door3,0.205555556,0.003333333,1,0,0,0.7622,optionRight,70,2910,2,6,0,6,0,1,,,,,,,,,,,,,,,,,,,,,,,,,,,,,,,,,,,,,,,
,,,,,,,62029c60ef1cb18a1337c9d4,2023-08-06_08h17.46.309,HF_wild_card,2022.2.4,Win32,60.09615385,62029c60ef1cb18a1337c9d4,64ce5acb97489d65b14ecc7a,64cf490a9fcae12788e2d4e1,,,,,,,decisionTrl,resources/DP.BMP,resources/DG.BMP,Door2,-0.243333333,0.002222222,1,0,0,1.161,optionLeft,40,2950,2,7,0,7,0,1,,,,,,,,,,,,,,,,,,,,,,,,,,,,,,,,,,,,,,,
,,,,,,,62029c60ef1cb18a1337c9d4,2023-08-06_08h17.46.309,HF_wild_card,2022.2.4,Win32,60.09615385,62029c60ef1cb18a1337c9d4,64ce5acb97489d65b14ecc7a,64cf490a9fcae12788e2d4e1,,,,,,,decisionTrl,resources/DR.BMP,resources/DY.BMP,WildCard_Ex,0.26,0.046666667,1,0,0,0.7624,optionRight,95,3045,2,8,0,8,0,1,,,,,,,,,,,,,,,,,,,,,,,,,,,,,,,,,,,,,,,
,,,,,,,62029c60ef1cb18a1337c9d4,2023-08-06_08h17.46.309,HF_wild_card,2022.2.4,Win32,60.09615385,62029c60ef1cb18a1337c9d4,64ce5acb97489d65b14ecc7a,64cf490a9fcae12788e2d4e1,,,,,,,decisionTrl,resources/DP.BMP,resources/DG.BMP,Door2,-0.251111111,-0.007777778,1,0,0,0.9277,optionLeft,40,3085,2,9,0,9,0,1,,,,,,,,,,,,,,,,,,,,,,,,,,,,,,,,,,,,,,,
,,,,,,,62029c60ef1cb18a1337c9d4,2023-08-06_08h17.46.309,HF_wild_card,2022.2.4,Win32,60.09615385,62029c60ef1cb18a1337c9d4,64ce5acb97489d65b14ecc7a,64cf490a9fcae12788e2d4e1,,,,,,,ctch,resources/DP.BMP,resources/DBN.BMP,Door3,0.22,0.025555556,1,0,0,0.8785,optionRight,70,3155,2,10,0,10,0,1,,,,,,,,,,,,,,,,,,,,,,,,,,,,,,,,,,,,,,,
,,,,,,,62029c60ef1cb18a1337c9d4,2023-08-06_08h17.46.309,HF_wild_card,2022.2.4,Win32,60.09615385,62029c60ef1cb18a1337c9d4,64ce5acb97489d65b14ecc7a,64cf490a9fcae12788e2d4e1,,,,,,,sngl,resources/DY.BMP,resources/Empty.png,WildCard_Ex,-0.275555556,0.062222222,1,0,0,0.9607,optionLeft,5,3160,2,11,0,11,0,1,,,,,,,,,,,,,,,,,,,,,,,,,,,,,,,,,,,,,,,
,,,,,,,62029c60ef1cb18a1337c9d4,2023-08-06_08h17.46.309,HF_wild_card,2022.2.4,Win32,60.09615385,62029c60ef1cb18a1337c9d4,64ce5acb97489d65b14ecc7a,64cf490a9fcae12788e2d4e1,,,,,,,decisionTrl,resources/DR.BMP,resources/DBN.BMP,Door3,0.236666667,0.004444444,1,0,0,0.7111,optionRight,70,3230,2,12,0,12,0,1,,,,,,,,,,,,,,,,,,,,,,,,,,,,,,,,,,,,,,,
,,,,,,,62029c60ef1cb18a1337c9d4,2023-08-06_08h17.46.309,HF_wild_card,2022.2.4,Win32,60.09615385,62029c60ef1cb18a1337c9d4,64ce5acb97489d65b14ecc7a,64cf490a9fcae12788e2d4e1,,,,,,,decisionTrl,resources/DBN.BMP,resources/DR.BMP,Door3,-0.303333333,0.01,1,0,0,0.6803,optionLeft,70,3300,2,13,0,13,0,1,,,,,,,,,,,,,,,,,,,,,,,,,,,,,,,,,,,,,,,
,,,,,,,62029c60ef1cb18a1337c9d4,2023-08-06_08h17.46.309,HF_wild_card,2022.2.4,Win32,60.09615385,62029c60ef1cb18a1337c9d4,64ce5acb97489d65b14ecc7a,64cf490a9fcae12788e2d4e1,,,,,,,sngl,resources/DY.BMP,resources/Empty.png,WildCard_Ex,-0.273333333,0.001111111,1,0,0,0.6445,optionLeft,95,3395,2,14,0,14,0,1,,,,,,,,,,,,,,,,,,,,,,,,,,,,,,,,,,,,,,,
,,,,,,,62029c60ef1cb18a1337c9d4,2023-08-06_08h17.46.309,HF_wild_card,2022.2.4,Win32,60.09615385,62029c60ef1cb18a1337c9d4,64ce5acb97489d65b14ecc7a,64cf490a9fcae12788e2d4e1,,,,,,,sngl,resources/DP.BMP,resources/Empty.png,Door2,-0.274444444,-0.01,1,0,0,0.6278,optionLeft,20,3415,2,15,0,15,0,1,,,,,,,,,,,,,,,,,,,,,,,,,,,,,,,,,,,,,,,
,,,,,,,62029c60ef1cb18a1337c9d4,2023-08-06_08h17.46.309,HF_wild_card,2022.2.4,Win32,60.09615385,62029c60ef1cb18a1337c9d4,64ce5acb97489d65b14ecc7a,64cf490a9fcae12788e2d4e1,,,,,,,ctch,resources/DG.BMP,resources/DR.BMP,Door4,0.254444444,0,1,0,0,1.4764,optionRight,60,3475,2,16,0,16,0,1,,,,,,,,,,,,,,,,,,,,,,,,,,,,,,,,,,,,,,,
,,,,,,,62029c60ef1cb18a1337c9d4,2023-08-06_08h17.46.309,HF_wild_card,2022.2.4,Win32,60.09615385,62029c60ef1cb18a1337c9d4,64ce5acb97489d65b14ecc7a,64cf490a9fcae12788e2d4e1,,,,,,,sngl,resources/DBN.BMP,resources/Empty.png,Door3,-0.28,0.012222222,1,0,0,0.6953,optionLeft,70,3545,2,17,0,17,0,1,,,,,,,,,,,,,,,,,,,,,,,,,,,,,,,,,,,,,,,
,,,,,,,62029c60ef1cb18a1337c9d4,2023-08-06_08h17.46.309,HF_wild_card,2022.2.4,Win32,60.09615385,62029c60ef1cb18a1337c9d4,64ce5acb97489d65b14ecc7a,64cf490a9fcae12788e2d4e1,,,,,,,decisionTrl,resources/DY.BMP,resources/DP.BMP,WildCard_Ex,-0.38,0.027777778,1,0,0,0.6948,optionLeft,5,3550,2,18,0,18,0,1,,,,,,,,,,,,,,,,,,,,,,,,,,,,,,,,,,,,,,,
,,,,,,,62029c60ef1cb18a1337c9d4,2023-08-06_08h17.46.309,HF_wild_card,2022.2.4,Win32,60.09615385,62029c60ef1cb18a1337c9d4,64ce5acb97489d65b14ecc7a,64cf490a9fcae12788e2d4e1,,,,,,,ctch,resources/DR.BMP,resources/DG.BMP,Door1,0.201111111,0.01,1,0,0,0.9939,optionRight,30,3580,2,19,0,19,0,1,,,,,,,,,,,,,,,,,,,,,,,,,,,,,,,,,,,,,,,
,,,,,,,62029c60ef1cb18a1337c9d4,2023-08-06_08h17.46.309,HF_wild_card,2022.2.4,Win32,60.09615385,62029c60ef1cb18a1337c9d4,64ce5acb97489d65b14ecc7a,64cf490a9fcae12788e2d4e1,,,,,,,sngl,resources/DG.BMP,resources/Empty.png,Door1,-0.357777778,0.013333333,1,0,0,0.6448,optionLeft,30,3610,2,20,0,20,0,1,,,,,,,,,,,,,,,,,,,,,,,,,,,,,,,,,,,,,,,
,,,,,,,62029c60ef1cb18a1337c9d4,2023-08-06_08h17.46.309,HF_wild_card,2022.2.4,Win32,60.09615385,62029c60ef1cb18a1337c9d4,64ce5acb97489d65b14ecc7a,64cf490a9fcae12788e2d4e1,,,,,,,decisionTrl,resources/DG.BMP,resources/DY.BMP,WildCard_Ex,0.19,0.008888889,1,0,0,0.7102,optionRight,95,3705,2,21,0,21,0,1,,,,,,,,,,,,,,,,,,,,,,,,,,,,,,,,,,,,,,,
,,,,,,,62029c60ef1cb18a1337c9d4,2023-08-06_08h17.46.309,HF_wild_card,2022.2.4,Win32,60.09615385,62029c60ef1cb18a1337c9d4,64ce5acb97489d65b14ecc7a,64cf490a9fcae12788e2d4e1,,,,,,,decisionTrl,resources/DBN.BMP,resources/DR.BMP,Door3,-0.201111111,0.014444444,1,0,0,0.8283,optionLeft,70,3775,2,22,0,22,0,1,,,,,,,,,,,,,,,,,,,,,,,,,,,,,,,,,,,,,,,
,,,,,,,62029c60ef1cb18a1337c9d4,2023-08-06_08h17.46.309,HF_wild_card,2022.2.4,Win32,60.09615385,62029c60ef1cb18a1337c9d4,64ce5acb97489d65b14ecc7a,64cf490a9fcae12788e2d4e1,,,,,,,decisionTrl,resources/DBN.BMP,resources/DR.BMP,Door4,0.202222222,0.016666667,1,0,0,0.7958,optionRight,80,3855,2,23,0,23,0,1,,,,,,,,,,,,,,,,,,,,,,,,,,,,,,,,,,,,,,,
,,,,,,,62029c60ef1cb18a1337c9d4,2023-08-06_08h17.46.309,HF_wild_card,2022.2.4,Win32,60.09615385,62029c60ef1cb18a1337c9d4,64ce5acb97489d65b14ecc7a,64cf490a9fcae12788e2d4e1,,,,,,,sngl,resources/Empty.png,resources/DR.BMP,Door4,0.312222222,0.007777778,1,0,0,0.7944,optionRight,80,3935,2,24,0,24,0,1,,,,,,,,,,,,,,,,,,,,,,,,,,,,,,,,,,,,,,,
,,,,,,,62029c60ef1cb18a1337c9d4,2023-08-06_08h17.46.309,HF_wild_card,2022.2.4,Win32,60.09615385,62029c60ef1cb18a1337c9d4,64ce5acb97489d65b14ecc7a,64cf490a9fcae12788e2d4e1,,,,,,,decisionTrl,resources/DG.BMP,resources/DP.BMP,Door2,0.228888889,0.015555556,1,0,0,1.0105,optionRight,40,3975,2,25,0,25,0,1,,,,,,,,,,,,,,,,,,,,,,,,,,,,,,,,,,,,,,,
,,,,,,,62029c60ef1cb18a1337c9d4,2023-08-06_08h17.46.309,HF_wild_card,2022.2.4,Win32,60.09615385,62029c60ef1cb18a1337c9d4,64ce5acb97489d65b14ecc7a,64cf490a9fcae12788e2d4e1,,,,,,,ctch,resources/DP.BMP,resources/DBN.BMP,Door3,0.194444444,0.035555556,1,0,0,0.995,optionRight,70,4045,2,26,0,26,0,1,,,,,,,,,,,,,,,,,,,,,,,,,,,,,,,,,,,,,,,
,,,,,,,62029c60ef1cb18a1337c9d4,2023-08-06_08h17.46.309,HF_wild_card,2022.2.4,Win32,60.09615385,62029c60ef1cb18a1337c9d4,64ce5acb97489d65b14ecc7a,64cf490a9fcae12788e2d4e1,,,,,,,sngl,resources/Empty.png,resources/DBN.BMP,Door3,0.342222222,0.035555556,1,0,0,0.6111,optionRight,70,4115,2,27,0,27,0,1,,,,,,,,,,,,,,,,,,,,,,,,,,,,,,,,,,,,,,,
,,,,,,,62029c60ef1cb18a1337c9d4,2023-08-06_08h17.46.309,HF_wild_card,2022.2.4,Win32,60.09615385,62029c60ef1cb18a1337c9d4,64ce5acb97489d65b14ecc7a,64cf490a9fcae12788e2d4e1,,,,,,,sngl,resources/Empty.png,resources/DP.BMP,Door2,0.201111111,0.008888889,1,0,0,0.9278,optionRight,40,4155,2,28,0,28,0,1,,,,,,,,,,,,,,,,,,,,,,,,,,,,,,,,,,,,,,,
,,,,,,,62029c60ef1cb18a1337c9d4,2023-08-06_08h17.46.309,HF_wild_card,2022.2.4,Win32,60.09615385,62029c60ef1cb18a1337c9d4,64ce5acb97489d65b14ecc7a,64cf490a9fcae12788e2d4e1,,,,,,,sngl,resources/DR.BMP,resources/Empty.png,Door4,-0.241111111,0.016666667,1,0,0,0.7306,optionLeft,60,4215,2,29,0,29,0,1,,,,,,,,,,,,,,,,,,,,,,,,,,,,,,,,,,,,,,,
,,,,,,,62029c60ef1cb18a1337c9d4,2023-08-06_08h17.46.309,HF_wild_card,2022.2.4,Win32,60.09615385,62029c60ef1cb18a1337c9d4,64ce5acb97489d65b14ecc7a,64cf490a9fcae12788e2d4e1,,,,,,,decisionTrl,resources/DBN.BMP,resources/DR.BMP,Door3,-0.344444444,0.007777778,1,0,0,0.7446,optionLeft,70,4285,2,30,0,30,0,1,,,,,,,,,,,,,,,,,,,,,,,,,,,,,,,,,,,,,,,
,,,,,,,62029c60ef1cb18a1337c9d4,2023-08-06_08h17.46.309,HF_wild_card,2022.2.4,Win32,60.09615385,62029c60ef1cb18a1337c9d4,64ce5acb97489d65b14ecc7a,64cf490a9fcae12788e2d4e1,,,,,,,decisionTrl,resources/DP.BMP,resources/DY.BMP,WildCard_Ex,0.265555556,0.032222222,1,0,0,0.712,optionRight,95,4380,2,31,0,31,0,1,,,,,,,,,,,,,,,,,,,,,,,,,,,,,,,,,,,,,,,
,,,,,,,62029c60ef1cb18a1337c9d4,2023-08-06_08h17.46.309,HF_wild_card,2022.2.4,Win32,60.09615385,62029c60ef1cb18a1337c9d4,64ce5acb97489d65b14ecc7a,64cf490a9fcae12788e2d4e1,,,,,,,decisionTrl,resources/DY.BMP,resources/DG.BMP,WildCard_Ex,-0.184444444,-0.001111111,1,0,0,0.7116,optionLeft,5,4385,2,32,0,32,0,1,,,,,,,,,,,,,,,,,,,,,,,,,,,,,,,,,,,,,,,
,,,,,,,62029c60ef1cb18a1337c9d4,2023-08-06_08h17.46.309,HF_wild_card,2022.2.4,Win32,60.09615385,62029c60ef1cb18a1337c9d4,64ce5acb97489d65b14ecc7a,64cf490a9fcae12788e2d4e1,,,,,,,decisionTrl,resources/DR.BMP,resources/DBN.BMP,Door3,0.314444444,-0.02,1,0,0,0.6813,optionRight,70,4455,2,33,0,33,0,1,,,,,,,,,,,,,,,,,,,,,,,,,,,,,,,,,,,,,,,
,,,,,,,62029c60ef1cb18a1337c9d4,2023-08-06_08h17.46.309,HF_wild_card,2022.2.4,Win32,60.09615385,62029c60ef1cb18a1337c9d4,64ce5acb97489d65b14ecc7a,64cf490a9fcae12788e2d4e1,,,,,,,sngl,resources/Empty.png,resources/DY.BMP,WildCard_Ex,0.358888889,0.015555556,1,0,0,0.845,optionRight,5,4460,2,34,0,34,0,1,,,,,,,,,,,,,,,,,,,,,,,,,,,,,,,,,,,,,,,
,,,,,,,62029c60ef1cb18a1337c9d4,2023-08-06_08h17.46.309,HF_wild_card,2022.2.4,Win32,60.09615385,62029c60ef1cb18a1337c9d4,64ce5acb97489d65b14ecc7a,64cf490a9fcae12788e2d4e1,,,,,,,decisionTrl,resources/DY.BMP,resources/DR.BMP,WildCard_Ex,-0.245555556,0.008888889,1,0,0,0.8291,optionLeft,5,4465,2,35,0,35,0,1,,,,,,,,,,,,,,,,,,,,,,,,,,,,,,,,,,,,,,,
,,,,,,,62029c60ef1cb18a1337c9d4,2023-08-06_08h17.46.309,HF_wild_card,2022.2.4,Win32,60.09615385,62029c60ef1cb18a1337c9d4,64ce5acb97489d65b14ecc7a,64cf490a9fcae12788e2d4e1,,,,,,,decisionTrl,resources/DY.BMP,resources/DBN.BMP,Door3,0.214444444,0.02,1,0,0,1.013,optionRight,70,4535,2,36,0,36,0,1,,,,,,,,,,,,,,,,,,,,,,,,,,,,,,,,,,,,,,,
,,,,,,,62029c60ef1cb18a1337c9d4,2023-08-06_08h17.46.309,HF_wild_card,2022.2.4,Win32,60.09615385,62029c60ef1cb18a1337c9d4,64ce5acb97489d65b14ecc7a,64cf490a9fcae12788e2d4e1,,,,,,,ctch,resources/DBN.BMP,resources/DP.BMP,Door3,-0.201111111,0.008888889,1,0,0,0.9785,optionLeft,70,4605,2,37,0,37,0,1,,,,,,,,,,,,,,,,,,,,,,,,,,,,,,,,,,,,,,,
,,,,,,,62029c60ef1cb18a1337c9d4,2023-08-06_08h17.46.309,HF_wild_card,2022.2.4,Win32,60.09615385,62029c60ef1cb18a1337c9d4,64ce5acb97489d65b14ecc7a,64cf490a9fcae12788e2d4e1,,,,,,,decisionTrl,resources/DG.BMP,resources/DP.BMP,Door2,0.393333333,0.014444444,1,0,0,1.2786,optionRight,20,4625,2,38,0,38,0,1,,,,,,,,,,,,,,,,,,,,,,,,,,,,,,,,,,,,,,,
,,,,,,,62029c60ef1cb18a1337c9d4,2023-08-06_08h17.46.309,HF_wild_card,2022.2.4,Win32,60.09615385,62029c60ef1cb18a1337c9d4,64ce5acb97489d65b14ecc7a,64cf490a9fcae12788e2d4e1,,,,,,,ctch,resources/DG.BMP,resources/DR.BMP,Door1,-0.26,-0.002222222,1,0,0,0.8942,optionLeft,30,4655,2,39,0,39,0,1,,,,,,,,,,,,,,,,,,,,,,,,,,,,,,,,,,,,,,,
,,,,,,,62029c60ef1cb18a1337c9d4,2023-08-06_08h17.46.309,HF_wild_card,2022.2.4,Win32,60.09615385,62029c60ef1cb18a1337c9d4,64ce5acb97489d65b14ecc7a,64cf490a9fcae12788e2d4e1,,,,,,,ctch,resources/DR.BMP,resources/DG.BMP,Door4,-0.246666667,-0.004444444,1,0,0,0.8773,optionLeft,60,4715,2,40,0,40,0,1,,,,,,,,,,,,,,,,,,,,,,,,,,,,,,,,,,,,,,,
,,,,,,,62029c60ef1cb18a1337c9d4,2023-08-06_08h17.46.309,HF_wild_card,2022.2.4,Win32,60.09615385,62029c60ef1cb18a1337c9d4,64ce5acb97489d65b14ecc7a,64cf490a9fcae12788e2d4e1,,,,,,,decisionTrl,resources/DG.BMP,resources/DP.BMP,Door2,0.312222222,-0.003333333,1,0,0,0.8602,optionRight,40,4755,2,41,0,41,0,1,,,,,,,,,,,,,,,,,,,,,,,,,,,,,,,,,,,,,,,
,,,,,,,62029c60ef1cb18a1337c9d4,2023-08-06_08h17.46.309,HF_wild_card,2022.2.4,Win32,60.09615385,62029c60ef1cb18a1337c9d4,64ce5acb97489d65b14ecc7a,64cf490a9fcae12788e2d4e1,,,,,,,sngl,resources/Empty.png,resources/DY.BMP,WildCard_Ex,0.25,0.001111111,1,0,0,0.677,optionRight,95,4850,2,42,0,42,0,1,,,,,,,,,,,,,,,,,,,,,,,,,,,,,,,,,,,,,,,
,,,,,,,62029c60ef1cb18a1337c9d4,2023-08-06_08h17.46.309,HF_wild_card,2022.2.4,Win32,60.09615385,62029c60ef1cb18a1337c9d4,64ce5acb97489d65b14ecc7a,64cf490a9fcae12788e2d4e1,,,,,,,decisionTrl,resources/DP.BMP,resources/DG.BMP,Door2,-0.227777778,0.004444444,1,0,0,0.7949,optionLeft,40,4890,2,43,0,43,0,1,,,,,,,,,,,,,,,,,,,,,,,,,,,,,,,,,,,,,,,
,,,,,,,62029c60ef1cb18a1337c9d4,2023-08-06_08h17.46.309,HF_wild_card,2022.2.4,Win32,60.09615385,62029c60ef1cb18a1337c9d4,64ce5acb97489d65b14ecc7a,64cf490a9fcae12788e2d4e1,,,,,,,,,,,,,,,,,,,,,,,,,,1,0,1,0,1,,,,,,,,,,,,,,,,,,,,,,,,,,,,,,,,,,
,,,,,,,62029c60ef1cb18a1337c9d4,2023-08-06_08h17.46.309,HF_wild_card,2022.2.4,Win32,60.09615385,62029c60ef1cb18a1337c9d4,64ce5acb97489d65b14ecc7a,64cf490a9fcae12788e2d4e1,,,,,,,decisionTrl,resources/DP.BMP,resources/DG.BMP,Door2,-0.25,-0.052222222,1,0,0,0.9203,optionLeft,40,4930,3,0,0,0,0,1,,,,,,,,,,,,,,,,,,,,,,,,,,,,,,,,,,,,,,,
,,,,,,,62029c60ef1cb18a1337c9d4,2023-08-06_08h17.46.309,HF_wild_card,2022.2.4,Win32,60.09615385,62029c60ef1cb18a1337c9d4,64ce5acb97489d65b14ecc7a,64cf490a9fcae12788e2d4e1,,,,,,,sngl,resources/Empty.png,resources/DG.BMP,Door1,0.208888889,-0.008888889,1,0,0,0.7285,optionRight,30,4960,3,1,0,1,0,1,,,,,,,,,,,,,,,,,,,,,,,,,,,,,,,,,,,,,,,
,,,,,,,62029c60ef1cb18a1337c9d4,2023-08-06_08h17.46.309,HF_wild_card,2022.2.4,Win32,60.09615385,62029c60ef1cb18a1337c9d4,64ce5acb97489d65b14ecc7a,64cf490a9fcae12788e2d4e1,,,,,,,decisionTrl,resources/DBN.BMP,resources/DR.BMP,Door3,-0.238888889,-0.014444444,1,0,0,0.679,optionLeft,70,5030,3,2,0,2,0,1,,,,,,,,,,,,,,,,,,,,,,,,,,,,,,,,,,,,,,,
,,,,,,,62029c60ef1cb18a1337c9d4,2023-08-06_08h17.46.309,HF_wild_card,2022.2.4,Win32,60.09615385,62029c60ef1cb18a1337c9d4,64ce5acb97489d65b14ecc7a,64cf490a9fcae12788e2d4e1,,,,,,,decisionTrl,resources/DBN.BMP,resources/DR.BMP,Door3,-0.181111111,0.013333333,1,0,0,0.6786,optionLeft,70,5100,3,3,0,3,0,1,,,,,,,,,,,,,,,,,,,,,,,,,,,,,,,,,,,,,,,
,,,,,,,62029c60ef1cb18a1337c9d4,2023-08-06_08h17.46.309,HF_wild_card,2022.2.4,Win32,60.09615385,62029c60ef1cb18a1337c9d4,64ce5acb97489d65b14ecc7a,64cf490a9fcae12788e2d4e1,,,,,,,ctch,resources/DR.BMP,resources/DG.BMP,Door1,0.162222222,0.032222222,1,0,0,1.5934,optionRight,30,5130,3,4,0,4,0,1,,,,,,,,,,,,,,,,,,,,,,,,,,,,,,,,,,,,,,,
,,,,,,,62029c60ef1cb18a1337c9d4,2023-08-06_08h17.46.309,HF_wild_card,2022.2.4,Win32,60.09615385,62029c60ef1cb18a1337c9d4,64ce5acb97489d65b14ecc7a,64cf490a9fcae12788e2d4e1,,,,,,,decisionTrl,resources/DY.BMP,resources/DG.BMP,WildCard_Ex,-0.23,-0.003333333,1,0,0,0.7114,optionLeft,5,5135,3,5,0,5,0,1,,,,,,,,,,,,,,,,,,,,,,,,,,,,,,,,,,,,,,,
,,,,,,,62029c60ef1cb18a1337c9d4,2023-08-06_08h17.46.309,HF_wild_card,2022.2.4,Win32,60.09615385,62029c60ef1cb18a1337c9d4,64ce5acb97489d65b14ecc7a,64cf490a9fcae12788e2d4e1,,,,,,,ctch,resources/DBN.BMP,resources/DP.BMP,Door3,-0.302222222,-0.013333333,1,0,0,0.7779,optionLeft,70,5205,3,6,0,6,0,1,,,,,,,,,,,,,,,,,,,,,,,,,,,,,,,,,,,,,,,
,,,,,,,62029c60ef1cb18a1337c9d4,2023-08-06_08h17.46.309,HF_wild_card,2022.2.4,Win32,60.09615385,62029c60ef1cb18a1337c9d4,64ce5acb97489d65b14ecc7a,64cf490a9fcae12788e2d4e1,,,,,,,sngl,resources/Empty.png,resources/DP.BMP,Door2,0.257777778,0.015555556,1,0,0,0.7109,optionRight,20,5225,3,7,0,7,0,1,,,,,,,,,,,,,,,,,,,,,,,,,,,,,,,,,,,,,,,
,,,,,,,62029c60ef1cb18a1337c9d4,2023-08-06_08h17.46.309,HF_wild_card,2022.2.4,Win32,60.09615385,62029c60ef1cb18a1337c9d4,64ce5acb97489d65b14ecc7a,64cf490a9fcae12788e2d4e1,,,,,,,ctch,resources/DR.BMP,resources/DG.BMP,Door4,-0.283333333,0.016666667,1,0,0,1.4605,optionLeft,80,5305,3,8,0,8,0,1,,,,,,,,,,,,,,,,,,,,,,,,,,,,,,,,,,,,,,,
,,,,,,,62029c60ef1cb18a1337c9d4,2023-08-06_08h17.46.309,HF_wild_card,2022.2.4,Win32,60.09615385,62029c60ef1cb18a1337c9d4,64ce5acb97489d65b14ecc7a,64cf490a9fcae12788e2d4e1,,,,,,,decisionTrl,resources/DR.BMP,resources/DBN.BMP,Door3,0.267777778,0.04,1,0,0,0.7782,optionRight,70,5375,3,9,0,9,0,1,,,,,,,,,,,,,,,,,,,,,,,,,,,,,,,,,,,,,,,
,,,,,,,62029c60ef1cb18a1337c9d4,2023-08-06_08h17.46.309,HF_wild_card,2022.2.4,Win32,60.09615385,62029c60ef1cb18a1337c9d4,64ce5acb97489d65b14ecc7a,64cf490a9fcae12788e2d4e1,,,,,,,sngl,resources/DY.BMP,resources/Empty.png,WildCard_Ex,-0.232222222,0.035555556,1,0,0,0.8613,optionLeft,5,5380,3,10,0,10,0,1,,,,,,,,,,,,,,,,,,,,,,,,,,,,,,,,,,,,,,,
,,,,,,,62029c60ef1cb18a1337c9d4,2023-08-06_08h17.46.309,HF_wild_card,2022.2.4,Win32,60.09615385,62029c60ef1cb18a1337c9d4,64ce5acb97489d65b14ecc7a,64cf490a9fcae12788e2d4e1,,,,,,,decisionTrl,resources/DP.BMP,resources/DG.BMP,Door2,-0.211111111,0.003333333,1,0,0,1.2428,optionLeft,20,5400,3,11,0,11,0,1,,,,,,,,,,,,,,,,,,,,,,,,,,,,,,,,,,,,,,,
,,,,,,,62029c60ef1cb18a1337c9d4,2023-08-06_08h17.46.309,HF_wild_card,2022.2.4,Win32,60.09615385,62029c60ef1cb18a1337c9d4,64ce5acb97489d65b14ecc7a,64cf490a9fcae12788e2d4e1,,,,,,,decisionTrl,resources/DY.BMP,resources/DR.BMP,WildCard_Ex,-0.268888889,0.024444444,1,0,0,0.6946,optionLeft,5,5405,3,12,0,12,0,1,,,,,,,,,,,,,,,,,,,,,,,,,,,,,,,,,,,,,,,
,,,,,,,62029c60ef1cb18a1337c9d4,2023-08-06_08h17.46.309,HF_wild_card,2022.2.4,Win32,60.09615385,62029c60ef1cb18a1337c9d4,64ce5acb97489d65b14ecc7a,64cf490a9fcae12788e2d4e1,,,,,,,ctch,resources/DP.BMP,resources/DBN.BMP,Door3,0.193333333,0.011111111,1,0,0,0.777,optionRight,70,5475,3,13,0,13,0,1,,,,,,,,,,,,,,,,,,,,,,,,,,,,,,,,,,,,,,,
,,,,,,,62029c60ef1cb18a1337c9d4,2023-08-06_08h17.46.309,HF_wild_card,2022.2.4,Win32,60.09615385,62029c60ef1cb18a1337c9d4,64ce5acb97489d65b14ecc7a,64cf490a9fcae12788e2d4e1,,,,,,,ctch,resources/DP.BMP,resources/DBN.BMP,Door3,0.262222222,0.023333333,1,0,0,0.7608,optionRight,70,5545,3,14,0,14,0,1,,,,,,,,,,,,,,,,,,,,,,,,,,,,,,,,,,,,,,,
,,,,,,,62029c60ef1cb18a1337c9d4,2023-08-06_08h17.46.309,HF_wild_card,2022.2.4,Win32,60.09615385,62029c60ef1cb18a1337c9d4,64ce5acb97489d65b14ecc7a,64cf490a9fcae12788e2d4e1,,,,,,,decisionTrl,resources/DBN.BMP,resources/DR.BMP,Door3,-0.213333333,0.01,1,0,0,1.0109,optionLeft,70,5615,3,15,0,15,0,1,,,,,,,,,,,,,,,,,,,,,,,,,,,,,,,,,,,,,,,
,,,,,,,62029c60ef1cb18a1337c9d4,2023-08-06_08h17.46.309,HF_wild_card,2022.2.4,Win32,60.09615385,62029c60ef1cb18a1337c9d4,64ce5acb97489d65b14ecc7a,64cf490a9fcae12788e2d4e1,,,,,,,ctch,resources/DG.BMP,resources/DR.BMP,Door1,-0.177777778,-0.005555556,1,0,0,1.1952,optionLeft,30,5645,3,16,0,16,0,1,,,,,,,,,,,,,,,,,,,,,,,,,,,,,,,,,,,,,,,
,,,,,,,62029c60ef1cb18a1337c9d4,2023-08-06_08h17.46.309,HF_wild_card,2022.2.4,Win32,60.09615385,62029c60ef1cb18a1337c9d4,64ce5acb97489d65b14ecc7a,64cf490a9fcae12788e2d4e1,,,,,,,sngl,resources/DBN.BMP,resources/Empty.png,Door3,-0.24,0.006666667,1,0,0,0.7769,optionLeft,70,5715,3,17,0,17,0,1,,,,,,,,,,,,,,,,,,,,,,,,,,,,,,,,,,,,,,,
,,,,,,,62029c60ef1cb18a1337c9d4,2023-08-06_08h17.46.309,HF_wild_card,2022.2.4,Win32,60.09615385,62029c60ef1cb18a1337c9d4,64ce5acb97489d65b14ecc7a,64cf490a9fcae12788e2d4e1,,,,,,,decisionTrl,resources/DG.BMP,resources/DP.BMP,Door2,0.292222222,0.012222222,1,0,0,1.0311,optionRight,20,5735,3,18,0,18,0,1,,,,,,,,,,,,,,,,,,,,,,,,,,,,,,,,,,,,,,,
,,,,,,,62029c60ef1cb18a1337c9d4,2023-08-06_08h17.46.309,HF_wild_card,2022.2.4,Win32,60.09615385,62029c60ef1cb18a1337c9d4,64ce5acb97489d65b14ecc7a,64cf490a9fcae12788e2d4e1,,,,,,,decisionTrl,resources/DBN.BMP,resources/DY.BMP,WildCard_Ex,0.27,0.017777778,1,0,0,0.6446,optionRight,95,5830,3,19,0,19,0,1,,,,,,,,,,,,,,,,,,,,,,,,,,,,,,,,,,,,,,,
,,,,,,,62029c60ef1cb18a1337c9d4,2023-08-06_08h17.46.309,HF_wild_card,2022.2.4,Win32,60.09615385,62029c60ef1cb18a1337c9d4,64ce5acb97489d65b14ecc7a,64cf490a9fcae12788e2d4e1,,,,,,,decisionTrl,resources/DR.BMP,resources/DBN.BMP,Door3,0.201111111,0.007777778,1,0,0,0.8765,optionRight,70,5900,3,20,0,20,0,1,,,,,,,,,,,,,,,,,,,,,,,,,,,,,,,,,,,,,,,
,,,,,,,62029c60ef1cb18a1337c9d4,2023-08-06_08h17.46.309,HF_wild_card,2022.2.4,Win32,60.09615385,62029c60ef1cb18a1337c9d4,64ce5acb97489d65b14ecc7a,64cf490a9fcae12788e2d4e1,,,,,,,sngl,resources/Empty.png,resources/DY.BMP,WildCard_Ex,0.248888889,0.017777778,1,0,0,0.5639,optionRight,5,5905,3,21,0,21,0,1,,,,,,,,,,,,,,,,,,,,,,,,,,,,,,,,,,,,,,,
,,,,,,,62029c60ef1cb18a1337c9d4,2023-08-06_08h17.46.309,HF_wild_card,2022.2.4,Win32,60.09615385,62029c60ef1cb18a1337c9d4,64ce5acb97489d65b14ecc7a,64cf490a9fcae12788e2d4e1,,,,,,,sngl,resources/Empty.png,resources/DY.BMP,WildCard_Ex,0.222222222,0.003333333,1,0,0,0.6964,optionRight,95,6000,3,22,0,22,0,1,,,,,,,,,,,,,,,,,,,,,,,,,,,,,,,,,,,,,,,
,,,,,,,62029c60ef1cb18a1337c9d4,2023-08-06_08h17.46.309,HF_wild_card,2022.2.4,Win32,60.09615385,62029c60ef1cb18a1337c9d4,64ce5acb97489d65b14ecc7a,64cf490a9fcae12788e2d4e1,,,,,,,sngl,resources/DR.BMP,resources/Empty.png,Door4,-0.184444444,-0.003333333,1,0,0,0.7613,optionLeft,80,6080,3,23,0,23,0,1,,,,,,,,,,,,,,,,,,,,,,,,,,,,,,,,,,,,,,,
,,,,,,,62029c60ef1cb18a1337c9d4,2023-08-06_08h17.46.309,HF_wild_card,2022.2.4,Win32,60.09615385,62029c60ef1cb18a1337c9d4,64ce5acb97489d65b14ecc7a,64cf490a9fcae12788e2d4e1,,,,,,,decisionTrl,resources/DR.BMP,resources/DY.BMP,WildCard_Ex,0.256666667,0.003333333,1,0,0,0.6614,optionRight,5,6085,3,24,0,24,0,1,,,,,,,,,,,,,,,,,,,,,,,,,,,,,,,,,,,,,,,
,,,,,,,62029c60ef1cb18a1337c9d4,2023-08-06_08h17.46.309,HF_wild_card,2022.2.4,Win32,60.09615385,62029c60ef1cb18a1337c9d4,64ce5acb97489d65b14ecc7a,64cf490a9fcae12788e2d4e1,,,,,,,decisionTrl,resources/DG.BMP,resources/DP.BMP,Door1,-0.304444444,-0.013333333,1,0,0,0.9601,optionLeft,30,6115,3,25,0,25,0,1,,,,,,,,,,,,,,,,,,,,,,,,,,,,,,,,,,,,,,,
,,,,,,,62029c60ef1cb18a1337c9d4,2023-08-06_08h17.46.309,HF_wild_card,2022.2.4,Win32,60.09615385,62029c60ef1cb18a1337c9d4,64ce5acb97489d65b14ecc7a,64cf490a9fcae12788e2d4e1,,,,,,,decisionTrl,resources/DP.BMP,resources/DG.BMP,Door1,0.166666667,0.018888889,1,0,0,1.3283,optionRight,30,6145,3,26,0,26,0,1,,,,,,,,,,,,,,,,,,,,,,,,,,,,,,,,,,,,,,,
,,,,,,,62029c60ef1cb18a1337c9d4,2023-08-06_08h17.46.309,HF_wild_card,2022.2.4,Win32,60.09615385,62029c60ef1cb18a1337c9d4,64ce5acb97489d65b14ecc7a,64cf490a9fcae12788e2d4e1,,,,,,,sngl,resources/DY.BMP,resources/Empty.png,WildCard_Ex,-0.174444444,-0.003333333,1,0,0,0.6776,optionLeft,95,6240,3,27,0,27,0,1,,,,,,,,,,,,,,,,,,,,,,,,,,,,,,,,,,,,,,,
,,,,,,,62029c60ef1cb18a1337c9d4,2023-08-06_08h17.46.309,HF_wild_card,2022.2.4,Win32,60.09615385,62029c60ef1cb18a1337c9d4,64ce5acb97489d65b14ecc7a,64cf490a9fcae12788e2d4e1,,,,,,,decisionTrl,resources/DBN.BMP,resources/DR.BMP,Door3,-0.272222222,-0.023333333,1,0,0,0.9446,optionLeft,70,6310,3,28,0,28,0,1,,,,,,,,,,,,,,,,,,,,,,,,,,,,,,,,,,,,,,,
,,,,,,,62029c60ef1cb18a1337c9d4,2023-08-06_08h17.46.309,HF_wild_card,2022.2.4,Win32,60.09615385,62029c60ef1cb18a1337c9d4,64ce5acb97489d65b14ecc7a,64cf490a9fcae12788e2d4e1,,,,,,,sngl,resources/Empty.png,resources/DR.BMP,Door4,0.233333333,-0.001111111,1,0,0,0.8618,optionRight,60,6370,3,29,0,29,0,1,,,,,,,,,,,,,,,,,,,,,,,,,,,,,,,,,,,,,,,
,,,,,,,62029c60ef1cb18a1337c9d4,2023-08-06_08h17.46.309,HF_wild_card,2022.2.4,Win32,60.09615385,62029c60ef1cb18a1337c9d4,64ce5acb97489d65b14ecc7a,64cf490a9fcae12788e2d4e1,,,,,,,decisionTrl,resources/DG.BMP,resources/DY.BMP,WildCard_Ex,0.211111111,0.006666667,1,0,0,0.7439,optionRight,5,6375,3,30,0,30,0,1,,,,,,,,,,,,,,,,,,,,,,,,,,,,,,,,,,,,,,,
,,,,,,,62029c60ef1cb18a1337c9d4,2023-08-06_08h17.46.309,HF_wild_card,2022.2.4,Win32,60.09615385,62029c60ef1cb18a1337c9d4,64ce5acb97489d65b14ecc7a,64cf490a9fcae12788e2d4e1,,,,,,,ctch,resources/DG.BMP,resources/DR.BMP,Door4,0.183333333,-0.005555556,1,0,0,1.0778,optionRight,60,6435,3,31,0,31,0,1,,,,,,,,,,,,,,,,,,,,,,,,,,,,,,,,,,,,,,,
,,,,,,,62029c60ef1cb18a1337c9d4,2023-08-06_08h17.46.309,HF_wild_card,2022.2.4,Win32,60.09615385,62029c60ef1cb18a1337c9d4,64ce5acb97489d65b14ecc7a,64cf490a9fcae12788e2d4e1,,,,,,,decisionTrl,resources/DR.BMP,resources/DBN.BMP,Door3,0.255555556,-0.001111111,1,0,0,0.7445,optionRight,70,6505,3,32,0,32,0,1,,,,,,,,,,,,,,,,,,,,,,,,,,,,,,,,,,,,,,,
,,,,,,,62029c60ef1cb18a1337c9d4,2023-08-06_08h17.46.309,HF_wild_card,2022.2.4,Win32,60.09615385,62029c60ef1cb18a1337c9d4,64ce5acb97489d65b14ecc7a,64cf490a9fcae12788e2d4e1,,,,,,,decisionTrl,resources/DG.BMP,resources/DP.BMP,Door2,0.167777778,-0.015555556,1,0,0,1.06,optionRight,40,6545,3,33,0,33,0,1,,,,,,,,,,,,,,,,,,,,,,,,,,,,,,,,,,,,,,,
,,,,,,,62029c60ef1cb18a1337c9d4,2023-08-06_08h17.46.309,HF_wild_card,2022.2.4,Win32,60.09615385,62029c60ef1cb18a1337c9d4,64ce5acb97489d65b14ecc7a,64cf490a9fcae12788e2d4e1,,,,,,,decisionTrl,resources/DY.BMP,resources/DBN.BMP,Door3,0.221111111,-0.031111111,1,0,0,0.7111,optionRight,70,6615,3,34,0,34,0,1,,,,,,,,,,,,,,,,,,,,,,,,,,,,,,,,,,,,,,,
,,,,,,,62029c60ef1cb18a1337c9d4,2023-08-06_08h17.46.309,HF_wild_card,2022.2.4,Win32,60.09615385,62029c60ef1cb18a1337c9d4,64ce5acb97489d65b14ecc7a,64cf490a9fcae12788e2d4e1,,,,,,,decisionTrl,resources/DR.BMP,resources/DBN.BMP,Door3,0.187777778,-0.003333333,1,0,0,0.8638,optionRight,70,6685,3,35,0,35,0,1,,,,,,,,,,,,,,,,,,,,,,,,,,,,,,,,,,,,,,,
,,,,,,,62029c60ef1cb18a1337c9d4,2023-08-06_08h17.46.309,HF_wild_card,2022.2.4,Win32,60.09615385,62029c60ef1cb18a1337c9d4,64ce5acb97489d65b14ecc7a,64cf490a9fcae12788e2d4e1,,,,,,,decisionTrl,resources/DY.BMP,resources/DP.BMP,WildCard_Ex,-0.173333333,-0.007777778,1,0,0,0.6613,optionLeft,5,6690,3,36,0,36,0,1,,,,,,,,,,,,,,,,,,,,,,,,,,,,,,,,,,,,,,,
,,,,,,,62029c60ef1cb18a1337c9d4,2023-08-06_08h17.46.309,HF_wild_card,2022.2.4,Win32,60.09615385,62029c60ef1cb18a1337c9d4,64ce5acb97489d65b14ecc7a,64cf490a9fcae12788e2d4e1,,,,,,,decisionTrl,resources/DP.BMP,resources/DY.BMP,WildCard_Ex,0.334444444,0,1,0,0,0.6281,optionRight,95,6785,3,37,0,37,0,1,,,,,,,,,,,,,,,,,,,,,,,,,,,,,,,,,,,,,,,
,,,,,,,62029c60ef1cb18a1337c9d4,2023-08-06_08h17.46.309,HF_wild_card,2022.2.4,Win32,60.09615385,62029c60ef1cb18a1337c9d4,64ce5acb97489d65b14ecc7a,64cf490a9fcae12788e2d4e1,,,,,,,sngl,resources/DG.BMP,resources/Empty.png,Door1,0.155555556,0.017777778,1,0,0,1.4937,optionLeft,30,6815,3,38,0,38,0,1,,,,,,,,,,,,,,,,,,,,,,,,,,,,,,,,,,,,,,,
,,,,,,,62029c60ef1cb18a1337c9d4,2023-08-06_08h17.46.309,HF_wild_card,2022.2.4,Win32,60.09615385,62029c60ef1cb18a1337c9d4,64ce5acb97489d65b14ecc7a,64cf490a9fcae12788e2d4e1,,,,,,,sngl,resources/DP.BMP,resources/Empty.png,Door2,-0.163333333,-0.003333333,1,0,0,0.728,optionLeft,40,6855,3,39,0,39,0,1,,,,,,,,,,,,,,,,,,,,,,,,,,,,,,,,,,,,,,,
,,,,,,,62029c60ef1cb18a1337c9d4,2023-08-06_08h17.46.309,HF_wild_card,2022.2.4,Win32,60.09615385,62029c60ef1cb18a1337c9d4,64ce5acb97489d65b14ecc7a,64cf490a9fcae12788e2d4e1,,,,,,,ctch,resources/DBN.BMP,resources/DP.BMP,Door3,-0.153333333,0.025555556,1,0,0,0.6607,optionLeft,70,6925,3,40,0,40,0,1,,,,,,,,,,,,,,,,,,,,,,,,,,,,,,,,,,,,,,,
,,,,,,,62029c60ef1cb18a1337c9d4,2023-08-06_08h17.46.309,HF_wild_card,2022.2.4,Win32,60.09615385,62029c60ef1cb18a1337c9d4,64ce5acb97489d65b14ecc7a,64cf490a9fcae12788e2d4e1,,,,,,,decisionTrl,resources/DG.BMP,resources/DP.BMP,Door1,-0.177777778,0.006666667,1,0,0,1.9422,optionLeft,30,6955,3,41,0,41,0,1,,,,,,,,,,,,,,,,,,,,,,,,,,,,,,,,,,,,,,,
,,,,,,,62029c60ef1cb18a1337c9d4,2023-08-06_08h17.46.309,HF_wild_card,2022.2.4,Win32,60.09615385,62029c60ef1cb18a1337c9d4,64ce5acb97489d65b14ecc7a,64cf490a9fcae12788e2d4e1,,,,,,,decisionTrl,resources/DP.BMP,resources/DG.BMP,Door1,0.208888889,-0.008888889,1,0,0,0.6784,optionRight,30,6985,3,42,0,42,0,1,,,,,,,,,,,,,,,,,,,,,,,,,,,,,,,,,,,,,,,
,,,,,,,62029c60ef1cb18a1337c9d4,2023-08-06_08h17.46.309,HF_wild_card,2022.2.4,Win32,60.09615385,62029c60ef1cb18a1337c9d4,64ce5acb97489d65b14ecc7a,64cf490a9fcae12788e2d4e1,,,,,,,sngl,resources/Empty.png,resources/DBN.BMP,Door3,0.273333333,-0.006666667,1,0,0,0.5948,optionRight,70,7055,3,43,0,43,0,1,,,,,,,,,,,,,,,,,,,,,,,,,,,,,,,,,,,,,,,
,,,,,,,62029c60ef1cb18a1337c9d4,2023-08-06_08h17.46.309,HF_wild_card,2022.2.4,Win32,60.09615385,62029c60ef1cb18a1337c9d4,64ce5acb97489d65b14ecc7a,64cf490a9fcae12788e2d4e1,,,,,,,,,,,,,,,,,,,,,,,,,,2,0,2,0,1,,,,,,,,,,,,,,,,,,,,,,,,,,,,,,,,,,
,,,,,,,62029c60ef1cb18a1337c9d4,2023-08-06_08h17.46.309,HF_wild_card,2022.2.4,Win32,60.09615385,62029c60ef1cb18a1337c9d4,64ce5acb97489d65b14ecc7a,64cf490a9fcae12788e2d4e1,,,,,,,decisionTrl,resources/DG.BMP,resources/DP.BMP,Door1,-0.186666667,-0.048888889,1,0,0,1.6346,optionLeft,30,7085,4,0,0,0,0,1,,,,,,,,,,,,,,,,,,,,,,,,,,,,,,,,,,,,,,,
,,,,,,,62029c60ef1cb18a1337c9d4,2023-08-06_08h17.46.309,HF_wild_card,2022.2.4,Win32,60.09615385,62029c60ef1cb18a1337c9d4,64ce5acb97489d65b14ecc7a,64cf490a9fcae12788e2d4e1,,,,,,,sngl,resources/Empty.png,resources/DG.BMP,Door1,0.278888889,-0.017777778,1,0,0,0.7105,optionRight,30,7115,4,1,0,1,0,1,,,,,,,,,,,,,,,,,,,,,,,,,,,,,,,,,,,,,,,
,,,,,,,62029c60ef1cb18a1337c9d4,2023-08-06_08h17.46.309,HF_wild_card,2022.2.4,Win32,60.09615385,62029c60ef1cb18a1337c9d4,64ce5acb97489d65b14ecc7a,64cf490a9fcae12788e2d4e1,,,,,,,ctch,resources/DBN.BMP,resources/DP.BMP,Door3,-0.312222222,0.008888889,1,0,0,0.9279,optionLeft,70,7185,4,2,0,2,0,1,,,,,,,,,,,,,,,,,,,,,,,,,,,,,,,,,,,,,,,
,,,,,,,62029c60ef1cb18a1337c9d4,2023-08-06_08h17.46.309,HF_wild_card,2022.2.4,Win32,60.09615385,62029c60ef1cb18a1337c9d4,64ce5acb97489d65b14ecc7a,64cf490a9fcae12788e2d4e1,,,,,,,sngl,resources/DB.BMP,resources/Empty.png,WildCard_NonEx,-0.292222222,0.026666667,1,0,0,0.7958,optionLeft,45,7230,4,3,0,3,0,1,,,,,,,,,,,,,,,,,,,,,,,,,,,,,,,,,,,,,,,
,,,,,,,62029c60ef1cb18a1337c9d4,2023-08-06_08h17.46.309,HF_wild_card,2022.2.4,Win32,60.09615385,62029c60ef1cb18a1337c9d4,64ce5acb97489d65b14ecc7a,64cf490a9fcae12788e2d4e1,,,,,,,sngl,resources/Empty.png,resources/DP.BMP,Door2,0.271111111,0.012222222,1,0,0,0.7613,optionRight,40,7270,4,4,0,4,0,1,,,,,,,,,,,,,,,,,,,,,,,,,,,,,,,,,,,,,,,
,,,,,,,62029c60ef1cb18a1337c9d4,2023-08-06_08h17.46.309,HF_wild_card,2022.2.4,Win32,60.09615385,62029c60ef1cb18a1337c9d4,64ce5acb97489d65b14ecc7a,64cf490a9fcae12788e2d4e1,,,,,,,ctch,resources/DR.BMP,resources/DG.BMP,Door4,-0.304444444,0.016666667,1,0,0,1.6608,optionLeft,60,7330,4,5,0,5,0,1,,,,,,,,,,,,,,,,,,,,,,,,,,,,,,,,,,,,,,,
,,,,,,,62029c60ef1cb18a1337c9d4,2023-08-06_08h17.46.309,HF_wild_card,2022.2.4,Win32,60.09615385,62029c60ef1cb18a1337c9d4,64ce5acb97489d65b14ecc7a,64cf490a9fcae12788e2d4e1,,,,,,,sngl,resources/Empty.png,resources/DB.BMP,WildCard_NonEx,0.326666667,-0.018888889,1,0,0,0.6618,optionRight,55,7385,4,6,0,6,0,1,,,,,,,,,,,,,,,,,,,,,,,,,,,,,,,,,,,,,,,
,,,,,,,62029c60ef1cb18a1337c9d4,2023-08-06_08h17.46.309,HF_wild_card,2022.2.4,Win32,60.09615385,62029c60ef1cb18a1337c9d4,64ce5acb97489d65b14ecc7a,64cf490a9fcae12788e2d4e1,,,,,,,decisionTrl,resources/DP.BMP,resources/DG.BMP,Door2,-0.327777778,-0.012222222,1,0,0,0.9101,optionLeft,20,7405,4,7,0,7,0,1,,,,,,,,,,,,,,,,,,,,,,,,,,,,,,,,,,,,,,,
,,,,,,,62029c60ef1cb18a1337c9d4,2023-08-06_08h17.46.309,HF_wild_card,2022.2.4,Win32,60.09615385,62029c60ef1cb18a1337c9d4,64ce5acb97489d65b14ecc7a,64cf490a9fcae12788e2d4e1,,,,,,,decisionTrl,resources/DBN.BMP,resources/DB.BMP,Door3,-0.282222222,-0.012222222,1,0,0,1.2621,optionLeft,70,7475,4,8,0,8,0,1,,,,,,,,,,,,,,,,,,,,,,,,,,,,,,,,,,,,,,,
,,,,,,,62029c60ef1cb18a1337c9d4,2023-08-06_08h17.46.309,HF_wild_card,2022.2.4,Win32,60.09615385,62029c60ef1cb18a1337c9d4,64ce5acb97489d65b14ecc7a,64cf490a9fcae12788e2d4e1,,,,,,,decisionTrl,resources/DB.BMP,resources/DR.BMP,WildCard_NonEx,-0.275555556,0.014444444,1,0,0,0.6774,optionLeft,55,7530,4,9,0,9,0,1,,,,,,,,,,,,,,,,,,,,,,,,,,,,,,,,,,,,,,,
,,,,,,,62029c60ef1cb18a1337c9d4,2023-08-06_08h17.46.309,HF_wild_card,2022.2.4,Win32,60.09615385,62029c60ef1cb18a1337c9d4,64ce5acb97489d65b14ecc7a,64cf490a9fcae12788e2d4e1,,,,,,,decisionTrl,resources/DG.BMP,resources/DP.BMP,Door2,0.243333333,0.025555556,1,0,0,1.259,optionRight,40,7570,4,10,0,10,0,1,,,,,,,,,,,,,,,,,,,,,,,,,,,,,,,,,,,,,,,
,,,,,,,62029c60ef1cb18a1337c9d4,2023-08-06_08h17.46.309,HF_wild_card,2022.2.4,Win32,60.09615385,62029c60ef1cb18a1337c9d4,64ce5acb97489d65b14ecc7a,64cf490a9fcae12788e2d4e1,,,,,,,decisionTrl,resources/DB.BMP,resources/DP.BMP,WildCard_NonEx,-0.333333333,0.003333333,1,0,0,0.8272,optionLeft,45,7615,4,11,0,11,0,1,,,,,,,,,,,,,,,,,,,,,,,,,,,,,,,,,,,,,,,
,,,,,,,62029c60ef1cb18a1337c9d4,2023-08-06_08h17.46.309,HF_wild_card,2022.2.4,Win32,60.09615385,62029c60ef1cb18a1337c9d4,64ce5acb97489d65b14ecc7a,64cf490a9fcae12788e2d4e1,,,,,,,decisionTrl,resources/DR.BMP,resources/DBN.BMP,Door3,0.264444444,0.021111111,1,0,0,0.7445,optionRight,70,7685,4,12,0,12,0,1,,,,,,,,,,,,,,,,,,,,,,,,,,,,,,,,,,,,,,,
,,,,,,,62029c60ef1cb18a1337c9d4,2023-08-06_08h17.46.309,HF_wild_card,2022.2.4,Win32,60.09615385,62029c60ef1cb18a1337c9d4,64ce5acb97489d65b14ecc7a,64cf490a9fcae12788e2d4e1,,,,,,,sngl,resources/DG.BMP,resources/Empty.png,Door1,-0.34,0.028888889,1,0,0,1.1945,optionLeft,30,7715,4,13,0,13,0,1,,,,,,,,,,,,,,,,,,,,,,,,,,,,,,,,,,,,,,,
,,,,,,,62029c60ef1cb18a1337c9d4,2023-08-06_08h17.46.309,HF_wild_card,2022.2.4,Win32,60.09615385,62029c60ef1cb18a1337c9d4,64ce5acb97489d65b14ecc7a,64cf490a9fcae12788e2d4e1,,,,,,,decisionTrl,resources/DR.BMP,resources/DBN.BMP,Door3,0.282222222,0.032222222,1,0,0,0.5955,optionRight,70,7785,4,14,0,14,0,1,,,,,,,,,,,,,,,,,,,,,,,,,,,,,,,,,,,,,,,
,,,,,,,62029c60ef1cb18a1337c9d4,2023-08-06_08h17.46.309,HF_wild_card,2022.2.4,Win32,60.09615385,62029c60ef1cb18a1337c9d4,64ce5acb97489d65b14ecc7a,64cf490a9fcae12788e2d4e1,,,,,,,decisionTrl,resources/DR.BMP,resources/DBN.BMP,Door3,0.355555556,0.042222222,1,0,0,0.6939,optionRight,70,7855,4,15,0,15,0,1,,,,,,,,,,,,,,,,,,,,,,,,,,,,,,,,,,,,,,,
,,,,,,,62029c60ef1cb18a1337c9d4,2023-08-06_08h17.46.309,HF_wild_card,2022.2.4,Win32,60.09615385,62029c60ef1cb18a1337c9d4,64ce5acb97489d65b14ecc7a,64cf490a9fcae12788e2d4e1,,,,,,,ctch,resources/DBN.BMP,resources/DP.BMP,Door3,-0.305555556,0.027777778,1,0,0,0.7618,optionLeft,70,7925,4,16,0,16,0,1,,,,,,,,,,,,,,,,,,,,,,,,,,,,,,,,,,,,,,,
,,,,,,,62029c60ef1cb18a1337c9d4,2023-08-06_08h17.46.309,HF_wild_card,2022.2.4,Win32,60.09615385,62029c60ef1cb18a1337c9d4,64ce5acb97489d65b14ecc7a,64cf490a9fcae12788e2d4e1,,,,,,,sngl,resources/DBN.BMP,resources/Empty.png,Door3,-0.278888889,0.016666667,1,0,0,0.6455,optionLeft,70,7995,4,17,0,17,0,1,,,,,,,,,,,,,,,,,,,,,,,,,,,,,,,,,,,,,,,
,,,,,,,62029c60ef1cb18a1337c9d4,2023-08-06_08h17.46.309,HF_wild_card,2022.2.4,Win32,60.09615385,62029c60ef1cb18a1337c9d4,64ce5acb97489d65b14ecc7a,64cf490a9fcae12788e2d4e1,,,,,,,ctch,resources/DG.BMP,resources/DR.BMP,Door4,0.246666667,0.001111111,1,0,0,1.194,optionRight,60,8055,4,18,0,18,0,1,,,,,,,,,,,,,,,,,,,,,,,,,,,,,,,,,,,,,,,
,,,,,,,62029c60ef1cb18a1337c9d4,2023-08-06_08h17.46.309,HF_wild_card,2022.2.4,Win32,60.09615385,62029c60ef1cb18a1337c9d4,64ce5acb97489d65b14ecc7a,64cf490a9fcae12788e2d4e1,,,,,,,sngl,resources/DR.BMP,resources/Empty.png,Door4,-0.237777778,0.01,1,0,0,0.8601,optionLeft,60,8115,4,19,0,19,0,1,,,,,,,,,,,,,,,,,,,,,,,,,,,,,,,,,,,,,,,
,,,,,,,62029c60ef1cb18a1337c9d4,2023-08-06_08h17.46.309,HF_wild_card,2022.2.4,Win32,60.09615385,62029c60ef1cb18a1337c9d4,64ce5acb97489d65b14ecc7a,64cf490a9fcae12788e2d4e1,,,,,,,decisionTrl,resources/DBN.BMP,resources/DR.BMP,Door3,-0.195555556,0.017777778,1,0,0,0.8963,optionLeft,70,8185,4,20,0,20,0,1,,,,,,,,,,,,,,,,,,,,,,,,,,,,,,,,,,,,,,,
,,,,,,,62029c60ef1cb18a1337c9d4,2023-08-06_08h17.46.309,HF_wild_card,2022.2.4,Win32,60.09615385,62029c60ef1cb18a1337c9d4,64ce5acb97489d65b14ecc7a,64cf490a9fcae12788e2d4e1,,,,,,,sngl,resources/Empty.png,resources/DB.BMP,WildCard_NonEx,0.417777778,0.012222222,1,0,0,0.6425,optionRight,45,8230,4,21,0,21,0,1,,,,,,,,,,,,,,,,,,,,,,,,,,,,,,,,,,,,,,,
,,,,,,,62029c60ef1cb18a1337c9d4,2023-08-06_08h17.46.309,HF_wild_card,2022.2.4,Win32,60.09615385,62029c60ef1cb18a1337c9d4,64ce5acb97489d65b14ecc7a,64cf490a9fcae12788e2d4e1,,,,,,,decisionTrl,resources/DP.BMP,resources/DG.BMP,Door2,-0.264444444,0.007777778,1,0,0,0.8625,optionLeft,40,8270,4,22,0,22,0,1,,,,,,,,,,,,,,,,,,,,,,,,,,,,,,,,,,,,,,,
,,,,,,,62029c60ef1cb18a1337c9d4,2023-08-06_08h17.46.309,HF_wild_card,2022.2.4,Win32,60.09615385,62029c60ef1cb18a1337c9d4,64ce5acb97489d65b14ecc7a,64cf490a9fcae12788e2d4e1,,,,,,,sngl,resources/Empty.png,resources/DR.BMP,Door4,0.288888889,0.017777778,1,0,0,0.6977,optionRight,80,8350,4,23,0,23,0,1,,,,,,,,,,,,,,,,,,,,,,,,,,,,,,,,,,,,,,,
,,,,,,,62029c60ef1cb18a1337c9d4,2023-08-06_08h17.46.309,HF_wild_card,2022.2.4,Win32,60.09615385,62029c60ef1cb18a1337c9d4,64ce5acb97489d65b14ecc7a,64cf490a9fcae12788e2d4e1,,,,,,,decisionTrl,resources/DBN.BMP,resources/DR.BMP,Door3,-0.314444444,0.003333333,1,0,0,0.6965,optionLeft,70,8420,4,24,0,24,0,1,,,,,,,,,,,,,,,,,,,,,,,,,,,,,,,,,,,,,,,
,,,,,,,62029c60ef1cb18a1337c9d4,2023-08-06_08h17.46.309,HF_wild_card,2022.2.4,Win32,60.09615385,62029c60ef1cb18a1337c9d4,64ce5acb97489d65b14ecc7a,64cf490a9fcae12788e2d4e1,,,,,,,decisionTrl,resources/DP.BMP,resources/DB.BMP,WildCard_NonEx,0.38,0.033333333,1,0,0,0.7771,optionRight,55,8475,4,25,0,25,0,1,,,,,,,,,,,,,,,,,,,,,,,,,,,,,,,,,,,,,,,
,,,,,,,62029c60ef1cb18a1337c9d4,2023-08-06_08h17.46.309,HF_wild_card,2022.2.4,Win32,60.09615385,62029c60ef1cb18a1337c9d4,64ce5acb97489d65b14ecc7a,64cf490a9fcae12788e2d4e1,,,,,,,decisionTrl,resources/DP.BMP,resources/DG.BMP,Door2,-0.304444444,-0.014444444,1,0,0,0.8629,optionLeft,40,8515,4,26,0,26,0,1,,,,,,,,,,,,,,,,,,,,,,,,,,,,,,,,,,,,,,,
,,,,,,,62029c60ef1cb18a1337c9d4,2023-08-06_08h17.46.309,HF_wild_card,2022.2.4,Win32,60.09615385,62029c60ef1cb18a1337c9d4,64ce5acb97489d65b14ecc7a,64cf490a9fcae12788e2d4e1,,,,,,,decisionTrl,resources/DP.BMP,resources/DG.BMP,Door2,-0.27,0.023333333,1,0,0,0.7119,optionLeft,40,8555,4,27,0,27,0,1,,,,,,,,,,,,,,,,,,,,,,,,,,,,,,,,,,,,,,,
,,,,,,,62029c60ef1cb18a1337c9d4,2023-08-06_08h17.46.309,HF_wild_card,2022.2.4,Win32,60.09615385,62029c60ef1cb18a1337c9d4,64ce5acb97489d65b14ecc7a,64cf490a9fcae12788e2d4e1,,,,,,,decisionTrl,resources/DB.BMP,resources/DG.BMP,WildCard_NonEx,-0.266666667,-0.032222222,1,0,0,1.2299,optionLeft,45,8600,4,28,0,28,0,1,,,,,,,,,,,,,,,,,,,,,,,,,,,,,,,,,,,,,,,
,,,,,,,62029c60ef1cb18a1337c9d4,2023-08-06_08h17.46.309,HF_wild_card,2022.2.4,Win32,60.09615385,62029c60ef1cb18a1337c9d4,64ce5acb97489d65b14ecc7a,64cf490a9fcae12788e2d4e1,,,,,,,decisionTrl,resources/DG.BMP,resources/DB.BMP,WildCard_NonEx,0.262222222,-0.01,1,0,0,0.562,optionRight,55,8655,4,29,0,29,0,1,,,,,,,,,,,,,,,,,,,,,,,,,,,,,,,,,,,,,,,
,,,,,,,62029c60ef1cb18a1337c9d4,2023-08-06_08h17.46.309,HF_wild_card,2022.2.4,Win32,60.09615385,62029c60ef1cb18a1337c9d4,64ce5acb97489d65b14ecc7a,64cf490a9fcae12788e2d4e1,,,,,,,ctch,resources/DP.BMP,resources/DBN.BMP,Door3,0.315555556,0.008888889,1,0,0,0.5614,optionRight,70,8725,4,30,0,30,0,1,,,,,,,,,,,,,,,,,,,,,,,,,,,,,,,,,,,,,,,
,,,,,,,62029c60ef1cb18a1337c9d4,2023-08-06_08h17.46.309,HF_wild_card,2022.2.4,Win32,60.09615385,62029c60ef1cb18a1337c9d4,64ce5acb97489d65b14ecc7a,64cf490a9fcae12788e2d4e1,,,,,,,decisionTrl,resources/DBN.BMP,resources/DR.BMP,Door3,-0.265555556,0.018888889,1,0,0,0.5956,optionLeft,70,8795,4,31,0,31,0,1,,,,,,,,,,,,,,,,,,,,,,,,,,,,,,,,,,,,,,,
,,,,,,,62029c60ef1cb18a1337c9d4,2023-08-06_08h17.46.309,HF_wild_card,2022.2.4,Win32,60.09615385,62029c60ef1cb18a1337c9d4,64ce5acb97489d65b14ecc7a,64cf490a9fcae12788e2d4e1,,,,,,,decisionTrl,resources/DG.BMP,resources/DP.BMP,Door2,0.291111111,0.011111111,1,0,0,0.8779,optionRight,20,8815,4,32,0,32,0,1,,,,,,,,,,,,,,,,,,,,,,,,,,,,,,,,,,,,,,,
,,,,,,,62029c60ef1cb18a1337c9d4,2023-08-06_08h17.46.309,HF_wild_card,2022.2.4,Win32,60.09615385,62029c60ef1cb18a1337c9d4,64ce5acb97489d65b14ecc7a,64cf490a9fcae12788e2d4e1,,,,,,,decisionTrl,resources/DG.BMP,resources/DP.BMP,Door2,0.204444444,0.016666667,1,0,0,0.7272,optionRight,40,8855,4,33,0,33,0,1,,,,,,,,,,,,,,,,,,,,,,,,,,,,,,,,,,,,,,,
,,,,,,,62029c60ef1cb18a1337c9d4,2023-08-06_08h17.46.309,HF_wild_card,2022.2.4,Win32,60.09615385,62029c60ef1cb18a1337c9d4,64ce5acb97489d65b14ecc7a,64cf490a9fcae12788e2d4e1,,,,,,,sngl,resources/Empty.png,resources/DBN.BMP,Door3,0.303333333,-0.002222222,1,0,0,0.5777,optionRight,70,8925,4,34,0,34,0,1,,,,,,,,,,,,,,,,,,,,,,,,,,,,,,,,,,,,,,,
,,,,,,,62029c60ef1cb18a1337c9d4,2023-08-06_08h17.46.309,HF_wild_card,2022.2.4,Win32,60.09615385,62029c60ef1cb18a1337c9d4,64ce5acb97489d65b14ecc7a,64cf490a9fcae12788e2d4e1,,,,,,,sngl,resources/DB.BMP,resources/Empty.png,WildCard_NonEx,-0.234444444,-0.005555556,1,0,0,0.694,optionLeft,55,8980,4,35,0,35,0,1,,,,,,,,,,,,,,,,,,,,,,,,,,,,,,,,,,,,,,,
,,,,,,,62029c60ef1cb18a1337c9d4,2023-08-06_08h17.46.309,HF_wild_card,2022.2.4,Win32,60.09615385,62029c60ef1cb18a1337c9d4,64ce5acb97489d65b14ecc7a,64cf490a9fcae12788e2d4e1,,,,,,,ctch,resources/DG.BMP,resources/DR.BMP,Door4,0.271111111,0.006666667,1,0,0,1.3943,optionRight,60,9040,4,36,0,36,0,1,,,,,,,,,,,,,,,,,,,,,,,,,,,,,,,,,,,,,,,
,,,,,,,62029c60ef1cb18a1337c9d4,2023-08-06_08h17.46.309,HF_wild_card,2022.2.4,Win32,60.09615385,62029c60ef1cb18a1337c9d4,64ce5acb97489d65b14ecc7a,64cf490a9fcae12788e2d4e1,,,,,,,decisionTrl,resources/DR.BMP,resources/DBN.BMP,Door3,0.397777778,0.008888889,1,0,0,0.6128,optionRight,70,9110,4,37,0,37,0,1,,,,,,,,,,,,,,,,,,,,,,,,,,,,,,,,,,,,,,,
,,,,,,,62029c60ef1cb18a1337c9d4,2023-08-06_08h17.46.309,HF_wild_card,2022.2.4,Win32,60.09615385,62029c60ef1cb18a1337c9d4,64ce5acb97489d65b14ecc7a,64cf490a9fcae12788e2d4e1,,,,,,,ctch,resources/DR.BMP,resources/DG.BMP,Door4,-0.243333333,0.002222222,1,0,0,1.0126,optionLeft,60,9170,4,38,0,38,0,1,,,,,,,,,,,,,,,,,,,,,,,,,,,,,,,,,,,,,,,
,,,,,,,62029c60ef1cb18a1337c9d4,2023-08-06_08h17.46.309,HF_wild_card,2022.2.4,Win32,60.09615385,62029c60ef1cb18a1337c9d4,64ce5acb97489d65b14ecc7a,64cf490a9fcae12788e2d4e1,,,,,,,ctch,resources/DP.BMP,resources/DBN.BMP,Door3,0.285555556,-0.003333333,1,0,0,0.678,optionRight,70,9240,4,39,0,39,0,1,,,,,,,,,,,,,,,,,,,,,,,,,,,,,,,,,,,,,,,
,,,,,,,62029c60ef1cb18a1337c9d4,2023-08-06_08h17.46.309,HF_wild_card,2022.2.4,Win32,60.09615385,62029c60ef1cb18a1337c9d4,64ce5acb97489d65b14ecc7a,64cf490a9fcae12788e2d4e1,,,,,,,decisionTrl,resources/DBN.BMP,resources/DR.BMP,Door3,-0.365555556,0.011111111,1,0,0,0.6292,optionLeft,70,9310,4,40,0,40,0,1,,,,,,,,,,,,,,,,,,,,,,,,,,,,,,,,,,,,,,,
,,,,,,,62029c60ef1cb18a1337c9d4,2023-08-06_08h17.46.309,HF_wild_card,2022.2.4,Win32,60.09615385,62029c60ef1cb18a1337c9d4,64ce5acb97489d65b14ecc7a,64cf490a9fcae12788e2d4e1,,,,,,,decisionTrl,resources/DB.BMP,resources/DBN.BMP,Door3,0.247777778,0.002222222,1,0,0,0.63,optionRight,70,9380,4,41,0,41,0,1,,,,,,,,,,,,,,,,,,,,,,,,,,,,,,,,,,,,,,,
,,,,,,,62029c60ef1cb18a1337c9d4,2023-08-06_08h17.46.309,HF_wild_card,2022.2.4,Win32,60.09615385,62029c60ef1cb18a1337c9d4,64ce5acb97489d65b14ecc7a,64cf490a9fcae12788e2d4e1,,,,,,,sngl,resources/DP.BMP,resources/Empty.png,Door2,-0.244444444,0.006666667,1,0,0,0.7771,optionLeft,20,9400,4,42,0,42,0,1,,,,,,,,,,,,,,,,,,,,,,,,,,,,,,,,,,,,,,,
,,,,,,,62029c60ef1cb18a1337c9d4,2023-08-06_08h17.46.309,HF_wild_card,2022.2.4,Win32,60.09615385,62029c60ef1cb18a1337c9d4,64ce5acb97489d65b14ecc7a,64cf490a9fcae12788e2d4e1,,,,,,,decisionTrl,resources/DR.BMP,resources/DB.BMP,WildCard_NonEx,0.316666667,0.027777778,1,0,0,0.9275,optionRight,55,9455,4,43,0,43,0,1,,,,,,,,,,,,,,,,,,,,,,,,,,,,,,,,,,,,,,,
,,,,,,,62029c60ef1cb18a1337c9d4,2023-08-06_08h17.46.309,HF_wild_card,2022.2.4,Win32,60.09615385,62029c60ef1cb18a1337c9d4,64ce5acb97489d65b14ecc7a,64cf490a9fcae12788e2d4e1,,,,,,,,,,,,,,,,,,,,,,,,,,3,0,3,0,1,,,,,,,,,,,,,,,,,,,,,,,,,,,,,,,,,,
,,,,,,,62029c60ef1cb18a1337c9d4,2023-08-06_08h17.46.309,HF_wild_card,2022.2.4,Win32,60.09615385,62029c60ef1cb18a1337c9d4,64ce5acb97489d65b14ecc7a,64cf490a9fcae12788e2d4e1,,,,,,,decisionTrl,resources/DB.BMP,resources/DP.BMP,WildCard_NonEx,-0.3,-0.065555556,1,0,0,0.8043,optionLeft,45,9500,5,0,0,0,0,1,,,,,,,,,,,,,,,,,,,,,,,,,,,,,,,,,,,,,,,
,,,,,,,62029c60ef1cb18a1337c9d4,2023-08-06_08h17.46.309,HF_wild_card,2022.2.4,Win32,60.09615385,62029c60ef1cb18a1337c9d4,64ce5acb97489d65b14ecc7a,64cf490a9fcae12788e2d4e1,,,,,,,decisionTrl,resources/DR.BMP,resources/DBN.BMP,Door3,0.233333333,0.02,1,0,0,0.5972,optionRight,70,9570,5,1,0,1,0,1,,,,,,,,,,,,,,,,,,,,,,,,,,,,,,,,,,,,,,,
,,,,,,,62029c60ef1cb18a1337c9d4,2023-08-06_08h17.46.309,HF_wild_card,2022.2.4,Win32,60.09615385,62029c60ef1cb18a1337c9d4,64ce5acb97489d65b14ecc7a,64cf490a9fcae12788e2d4e1,,,,,,,decisionTrl,resources/DG.BMP,resources/DP.BMP,Door2,0.24,0.002222222,1,0,0,1.0274,optionRight,40,9610,5,2,0,2,0,1,,,,,,,,,,,,,,,,,,,,,,,,,,,,,,,,,,,,,,,
,,,,,,,62029c60ef1cb18a1337c9d4,2023-08-06_08h17.46.309,HF_wild_card,2022.2.4,Win32,60.09615385,62029c60ef1cb18a1337c9d4,64ce5acb97489d65b14ecc7a,64cf490a9fcae12788e2d4e1,,,,,,,decisionTrl,resources/DB.BMP,resources/DG.BMP,WildCard_NonEx,-0.32,0.007777778,1,0,0,0.711,optionLeft,55,9665,5,3,0,3,0,1,,,,,,,,,,,,,,,,,,,,,,,,,,,,,,,,,,,,,,,
,,,,,,,62029c60ef1cb18a1337c9d4,2023-08-06_08h17.46.309,HF_wild_card,2022.2.4,Win32,60.09615385,62029c60ef1cb18a1337c9d4,64ce5acb97489d65b14ecc7a,64cf490a9fcae12788e2d4e1,,,,,,,sngl,resources/DB.BMP,resources/Empty.png,WildCard_NonEx,-0.22,0.026666667,1,0,0,0.6616,optionLeft,55,9720,5,4,0,4,0,1,,,,,,,,,,,,,,,,,,,,,,,,,,,,,,,,,,,,,,,
,,,,,,,62029c60ef1cb18a1337c9d4,2023-08-06_08h17.46.309,HF_wild_card,2022.2.4,Win32,60.09615385,62029c60ef1cb18a1337c9d4,64ce5acb97489d65b14ecc7a,64cf490a9fcae12788e2d4e1,,,,,,,decisionTrl,resources/DP.BMP,resources/DG.BMP,Door2,-0.228888889,0.033333333,1,0,0,0.6944,optionLeft,20,9740,5,5,0,5,0,1,,,,,,,,,,,,,,,,,,,,,,,,,,,,,,,,,,,,,,,
,,,,,,,62029c60ef1cb18a1337c9d4,2023-08-06_08h17.46.309,HF_wild_card,2022.2.4,Win32,60.09615385,62029c60ef1cb18a1337c9d4,64ce5acb97489d65b14ecc7a,64cf490a9fcae12788e2d4e1,,,,,,,sngl,resources/Empty.png,resources/DR.BMP,Door4,0.222222222,0.017777778,1,0,0,0.6948,optionRight,60,9800,5,6,0,6,0,1,,,,,,,,,,,,,,,,,,,,,,,,,,,,,,,,,,,,,,,
,,,,,,,62029c60ef1cb18a1337c9d4,2023-08-06_08h17.46.309,HF_wild_card,2022.2.4,Win32,60.09615385,62029c60ef1cb18a1337c9d4,64ce5acb97489d65b14ecc7a,64cf490a9fcae12788e2d4e1,,,,,,,decisionTrl,resources/DP.BMP,resources/DG.BMP,Door2,-0.24,0.013333333,1,0,0,0.6776,optionLeft,40,9840,5,7,0,7,0,1,,,,,,,,,,,,,,,,,,,,,,,,,,,,,,,,,,,,,,,
,,,,,,,62029c60ef1cb18a1337c9d4,2023-08-06_08h17.46.309,HF_wild_card,2022.2.4,Win32,60.09615385,62029c60ef1cb18a1337c9d4,64ce5acb97489d65b14ecc7a,64cf490a9fcae12788e2d4e1,,,,,,,ctch,resources/DG.BMP,resources/DR.BMP,Door4,0.263333333,-0.003333333,1,0,0,0.7118,optionRight,80,9920,5,8,0,8,0,1,,,,,,,,,,,,,,,,,,,,,,,,,,,,,,,,,,,,,,,
,,,,,,,62029c60ef1cb18a1337c9d4,2023-08-06_08h17.46.309,HF_wild_card,2022.2.4,Win32,60.09615385,62029c60ef1cb18a1337c9d4,64ce5acb97489d65b14ecc7a,64cf490a9fcae12788e2d4e1,,,,,,,decisionTrl,resources/DBN.BMP,resources/DR.BMP,Door3,-0.273333333,0.023333333,1,0,0,0.7294,optionLeft,70,9990,5,9,0,9,0,1,,,,,,,,,,,,,,,,,,,,,,,,,,,,,,,,,,,,,,,
,,,,,,,62029c60ef1cb18a1337c9d4,2023-08-06_08h17.46.309,HF_wild_card,2022.2.4,Win32,60.09615385,62029c60ef1cb18a1337c9d4,64ce5acb97489d65b14ecc7a,64cf490a9fcae12788e2d4e1,,,,,,,sngl,resources/DBN.BMP,resources/Empty.png,Door3,-0.204444444,0.054444444,1,0,0,0.6282,optionLeft,70,10060,5,10,0,10,0,1,,,,,,,,,,,,,,,,,,,,,,,,,,,,,,,,,,,,,,,
,,,,,,,62029c60ef1cb18a1337c9d4,2023-08-06_08h17.46.309,HF_wild_card,2022.2.4,Win32,60.09615385,62029c60ef1cb18a1337c9d4,64ce5acb97489d65b14ecc7a,64cf490a9fcae12788e2d4e1,,,,,,,decisionTrl,resources/DBN.BMP,resources/DR.BMP,Door3,-0.226666667,0.024444444,1,0,0,0.6948,optionLeft,70,10130,5,11,0,11,0,1,,,,,,,,,,,,,,,,,,,,,,,,,,,,,,,,,,,,,,,
,,,,,,,62029c60ef1cb18a1337c9d4,2023-08-06_08h17.46.309,HF_wild_card,2022.2.4,Win32,60.09615385,62029c60ef1cb18a1337c9d4,64ce5acb97489d65b14ecc7a,64cf490a9fcae12788e2d4e1,,,,,,,ctch,resources/DBN.BMP,resources/DP.BMP,Door3,-0.297777778,0.032222222,1,0,0,0.545,optionLeft,70,10200,5,12,0,12,0,1,,,,,,,,,,,,,,,,,,,,,,,,,,,,,,,,,,,,,,,
,,,,,,,62029c60ef1cb18a1337c9d4,2023-08-06_08h17.46.309,HF_wild_card,2022.2.4,Win32,60.09615385,62029c60ef1cb18a1337c9d4,64ce5acb97489d65b14ecc7a,64cf490a9fcae12788e2d4e1,,,,,,,ctch,resources/DP.BMP,resources/DBN.BMP,Door3,0.282222222,0.015555556,1,0,0,0.7106,optionRight,70,10270,5,13,0,13,0,1,,,,,,,,,,,,,,,,,,,,,,,,,,,,,,,,,,,,,,,
,,,,,,,62029c60ef1cb18a1337c9d4,2023-08-06_08h17.46.309,HF_wild_card,2022.2.4,Win32,60.09615385,62029c60ef1cb18a1337c9d4,64ce5acb97489d65b14ecc7a,64cf490a9fcae12788e2d4e1,,,,,,,sngl,resources/DG.BMP,resources/Empty.png,Door1,-0.18,0.017777778,1,0,0,0.8781,optionLeft,30,10300,5,14,0,14,0,1,,,,,,,,,,,,,,,,,,,,,,,,,,,,,,,,,,,,,,,
,,,,,,,62029c60ef1cb18a1337c9d4,2023-08-06_08h17.46.309,HF_wild_card,2022.2.4,Win32,60.09615385,62029c60ef1cb18a1337c9d4,64ce5acb97489d65b14ecc7a,64cf490a9fcae12788e2d4e1,,,,,,,ctch,resources/DBN.BMP,resources/DP.BMP,Door3,-0.215555556,0.003333333,1,0,0,0.8111,optionLeft,70,10370,5,15,0,15,0,1,,,,,,,,,,,,,,,,,,,,,,,,,,,,,,,,,,,,,,,
,,,,,,,62029c60ef1cb18a1337c9d4,2023-08-06_08h17.46.309,HF_wild_card,2022.2.4,Win32,60.09615385,62029c60ef1cb18a1337c9d4,64ce5acb97489d65b14ecc7a,64cf490a9fcae12788e2d4e1,,,,,,,sngl,resources/DR.BMP,resources/Empty.png,Door4,-0.214444444,0,1,0,0,0.578,optionLeft,80,10450,5,16,0,16,0,1,,,,,,,,,,,,,,,,,,,,,,,,,,,,,,,,,,,,,,,
,,,,,,,62029c60ef1cb18a1337c9d4,2023-08-06_08h17.46.309,HF_wild_card,2022.2.4,Win32,60.09615385,62029c60ef1cb18a1337c9d4,64ce5acb97489d65b14ecc7a,64cf490a9fcae12788e2d4e1,,,,,,,decisionTrl,resources/DBN.BMP,resources/DB.BMP,Door3,-0.24,0.05,1,0,0,0.795,optionLeft,70,10520,5,17,0,17,0,1,,,,,,,,,,,,,,,,,,,,,,,,,,,,,,,,,,,,,,,
,,,,,,,62029c60ef1cb18a1337c9d4,2023-08-06_08h17.46.309,HF_wild_card,2022.2.4,Win32,60.09615385,62029c60ef1cb18a1337c9d4,64ce5acb97489d65b14ecc7a,64cf490a9fcae12788e2d4e1,,,,,,,decisionTrl,resources/DR.BMP,resources/DBN.BMP,Door3,0.334444444,0.022222222,1,0,0,0.6791,optionRight,70,10590,5,18,0,18,0,1,,,,,,,,,,,,,,,,,,,,,,,,,,,,,,,,,,,,,,,
,,,,,,,62029c60ef1cb18a1337c9d4,2023-08-06_08h17.46.309,HF_wild_card,2022.2.4,Win32,60.09615385,62029c60ef1cb18a1337c9d4,64ce5acb97489d65b14ecc7a,64cf490a9fcae12788e2d4e1,,,,,,,decisionTrl,resources/DG.BMP,resources/DB.BMP,WildCard_NonEx,0.357777778,0.023333333,1,0,0,0.5682,optionRight,45,10635,5,19,0,19,0,1,,,,,,,,,,,,,,,,,,,,,,,,,,,,,,,,,,,,,,,
,,,,,,,62029c60ef1cb18a1337c9d4,2023-08-06_08h17.46.309,HF_wild_card,2022.2.4,Win32,60.09615385,62029c60ef1cb18a1337c9d4,64ce5acb97489d65b14ecc7a,64cf490a9fcae12788e2d4e1,,,,,,,decisionTrl,resources/DG.BMP,resources/DP.BMP,Door2,0.234444444,0.006666667,1,0,0,0.8615,optionRight,20,10655,5,20,0,20,0,1,,,,,,,,,,,,,,,,,,,,,,,,,,,,,,,,,,,,,,,
,,,,,,,62029c60ef1cb18a1337c9d4,2023-08-06_08h17.46.309,HF_wild_card,2022.2.4,Win32,60.09615385,62029c60ef1cb18a1337c9d4,64ce5acb97489d65b14ecc7a,64cf490a9fcae12788e2d4e1,,,,,,,decisionTrl,resources/DP.BMP,resources/DG.BMP,Door2,-0.243333333,-0.001111111,1,0,0,0.8318,optionLeft,20,10675,5,21,0,21,0,1,,,,,,,,,,,,,,,,,,,,,,,,,,,,,,,,,,,,,,,
,,,,,,,62029c60ef1cb18a1337c9d4,2023-08-06_08h17.46.309,HF_wild_card,2022.2.4,Win32,60.09615385,62029c60ef1cb18a1337c9d4,64ce5acb97489d65b14ecc7a,64cf490a9fcae12788e2d4e1,,,,,,,decisionTrl,resources/DG.BMP,resources/DP.BMP,Door2,0.205555556,0.011111111,1,0,0,0.7114,optionRight,20,10695,5,22,0,22,0,1,,,,,,,,,,,,,,,,,,,,,,,,,,,,,,,,,,,,,,,
,,,,,,,62029c60ef1cb18a1337c9d4,2023-08-06_08h17.46.309,HF_wild_card,2022.2.4,Win32,60.09615385,62029c60ef1cb18a1337c9d4,64ce5acb97489d65b14ecc7a,64cf490a9fcae12788e2d4e1,,,,,,,decisionTrl,resources/DG.BMP,resources/DP.BMP,Door2,0.292222222,0.004444444,1,0,0,0.761,optionRight,20,10715,5,23,0,23,0,1,,,,,,,,,,,,,,,,,,,,,,,,,,,,,,,,,,,,,,,
,,,,,,,62029c60ef1cb18a1337c9d4,2023-08-06_08h17.46.309,HF_wild_card,2022.2.4,Win32,60.09615385,62029c60ef1cb18a1337c9d4,64ce5acb97489d65b14ecc7a,64cf490a9fcae12788e2d4e1,,,,,,,decisionTrl,resources/DR.BMP,resources/DBN.BMP,Door3,0.293333333,0.016666667,1,0,0,0.6284,optionRight,70,10785,5,24,0,24,0,1,,,,,,,,,,,,,,,,,,,,,,,,,,,,,,,,,,,,,,,
,,,,,,,62029c60ef1cb18a1337c9d4,2023-08-06_08h17.46.309,HF_wild_card,2022.2.4,Win32,60.09615385,62029c60ef1cb18a1337c9d4,64ce5acb97489d65b14ecc7a,64cf490a9fcae12788e2d4e1,,,,,,,decisionTrl,resources/DB.BMP,resources/DBN.BMP,WildCard_NonEx,-0.267777778,0.014444444,1,0,0,1.1771,optionLeft,55,10840,5,25,0,25,0,1,,,,,,,,,,,,,,,,,,,,,,,,,,,,,,,,,,,,,,,
,,,,,,,62029c60ef1cb18a1337c9d4,2023-08-06_08h17.46.309,HF_wild_card,2022.2.4,Win32,60.09615385,62029c60ef1cb18a1337c9d4,64ce5acb97489d65b14ecc7a,64cf490a9fcae12788e2d4e1,,,,,,,sngl,resources/Empty.png,resources/DP.BMP,Door2,0.182222222,-0.002222222,1,0,0,0.7916,optionRight,20,10860,5,26,0,26,0,1,,,,,,,,,,,,,,,,,,,,,,,,,,,,,,,,,,,,,,,
,,,,,,,62029c60ef1cb18a1337c9d4,2023-08-06_08h17.46.309,HF_wild_card,2022.2.4,Win32,60.09615385,62029c60ef1cb18a1337c9d4,64ce5acb97489d65b14ecc7a,64cf490a9fcae12788e2d4e1,,,,,,,sngl,resources/DP.BMP,resources/Empty.png,Door2,-0.236666667,0.005555556,1,0,0,0.829,optionLeft,40,10900,5,27,0,27,0,1,,,,,,,,,,,,,,,,,,,,,,,,,,,,,,,,,,,,,,,
,,,,,,,62029c60ef1cb18a1337c9d4,2023-08-06_08h17.46.309,HF_wild_card,2022.2.4,Win32,60.09615385,62029c60ef1cb18a1337c9d4,64ce5acb97489d65b14ecc7a,64cf490a9fcae12788e2d4e1,,,,,,,sngl,resources/Empty.png,resources/DBN.BMP,Door3,0.236666667,0.027777778,1,0,0,0.5784,optionRight,70,10970,5,28,0,28,0,1,,,,,,,,,,,,,,,,,,,,,,,,,,,,,,,,,,,,,,,
,,,,,,,62029c60ef1cb18a1337c9d4,2023-08-06_08h17.46.309,HF_wild_card,2022.2.4,Win32,60.09615385,62029c60ef1cb18a1337c9d4,64ce5acb97489d65b14ecc7a,64cf490a9fcae12788e2d4e1,,,,,,,decisionTrl,resources/DB.BMP,resources/DR.BMP,WildCard_NonEx,-0.301111111,0.021111111,1,0,0,0.8624,optionLeft,45,11015,5,29,0,29,0,1,,,,,,,,,,,,,,,,,,,,,,,,,,,,,,,,,,,,,,,
,,,,,,,62029c60ef1cb18a1337c9d4,2023-08-06_08h17.46.309,HF_wild_card,2022.2.4,Win32,60.09615385,62029c60ef1cb18a1337c9d4,64ce5acb97489d65b14ecc7a,64cf490a9fcae12788e2d4e1,,,,,,,decisionTrl,resources/DR.BMP,resources/DBN.BMP,Door3,0.268888889,0.014444444,1,0,0,0.5788,optionRight,70,11085,5,30,0,30,0,1,,,,,,,,,,,,,,,,,,,,,,,,,,,,,,,,,,,,,,,
,,,,,,,62029c60ef1cb18a1337c9d4,2023-08-06_08h17.46.309,HF_wild_card,2022.2.4,Win32,60.09615385,62029c60ef1cb18a1337c9d4,64ce5acb97489d65b14ecc7a,64cf490a9fcae12788e2d4e1,,,,,,,sngl,resources/Empty.png,resources/DB.BMP,WildCard_NonEx,0.21,0.021111111,1,0,0,0.5772,optionRight,55,11140,5,31,0,31,0,1,,,,,,,,,,,,,,,,,,,,,,,,,,,,,,,,,,,,,,,
,,,,,,,62029c60ef1cb18a1337c9d4,2023-08-06_08h17.46.309,HF_wild_card,2022.2.4,Win32,60.09615385,62029c60ef1cb18a1337c9d4,64ce5acb97489d65b14ecc7a,64cf490a9fcae12788e2d4e1,,,,,,,sngl,resources/DB.BMP,resources/Empty.png,WildCard_NonEx,-0.236666667,0.013333333,1,0,0,0.645,optionLeft,45,11185,5,32,0,32,0,1,,,,,,,,,,,,,,,,,,,,,,,,,,,,,,,,,,,,,,,
,,,,,,,62029c60ef1cb18a1337c9d4,2023-08-06_08h17.46.309,HF_wild_card,2022.2.4,Win32,60.09615385,62029c60ef1cb18a1337c9d4,64ce5acb97489d65b14ecc7a,64cf490a9fcae12788e2d4e1,,,,,,,decisionTrl,resources/DBN.BMP,resources/DR.BMP,Door3,-0.19,0.018888889,1,0,0,0.7112,optionLeft,70,11255,5,33,0,33,0,1,,,,,,,,,,,,,,,,,,,,,,,,,,,,,,,,,,,,,,,
,,,,,,,62029c60ef1cb18a1337c9d4,2023-08-06_08h17.46.309,HF_wild_card,2022.2.4,Win32,60.09615385,62029c60ef1cb18a1337c9d4,64ce5acb97489d65b14ecc7a,64cf490a9fcae12788e2d4e1,,,,,,,ctch,resources/DR.BMP,resources/DG.BMP,Door4,-0.236666667,0.012222222,1,0,0,0.7652,optionLeft,80,11335,5,34,0,34,0,1,,,,,,,,,,,,,,,,,,,,,,,,,,,,,,,,,,,,,,,
,,,,,,,62029c60ef1cb18a1337c9d4,2023-08-06_08h17.46.309,HF_wild_card,2022.2.4,Win32,60.09615385,62029c60ef1cb18a1337c9d4,64ce5acb97489d65b14ecc7a,64cf490a9fcae12788e2d4e1,,,,,,,ctch,resources/DR.BMP,resources/DG.BMP,Door4,-0.243333333,0.018888889,1,0,0,0.63,optionLeft,60,11395,5,35,0,35,0,1,,,,,,,,,,,,,,,,,,,,,,,,,,,,,,,,,,,,,,,
,,,,,,,62029c60ef1cb18a1337c9d4,2023-08-06_08h17.46.309,HF_wild_card,2022.2.4,Win32,60.09615385,62029c60ef1cb18a1337c9d4,64ce5acb97489d65b14ecc7a,64cf490a9fcae12788e2d4e1,,,,,,,ctch,resources/DG.BMP,resources/DR.BMP,Door4,0.235555556,-0.004444444,1,0,0,0.8637,optionRight,60,11455,5,36,0,36,0,1,,,,,,,,,,,,,,,,,,,,,,,,,,,,,,,,,,,,,,,
,,,,,,,62029c60ef1cb18a1337c9d4,2023-08-06_08h17.46.309,HF_wild_card,2022.2.4,Win32,60.09615385,62029c60ef1cb18a1337c9d4,64ce5acb97489d65b14ecc7a,64cf490a9fcae12788e2d4e1,,,,,,,ctch,resources/DP.BMP,resources/DBN.BMP,Door3,0.312222222,0.03,1,0,0,0.6603,optionRight,70,11525,5,37,0,37,0,1,,,,,,,,,,,,,,,,,,,,,,,,,,,,,,,,,,,,,,,
,,,,,,,62029c60ef1cb18a1337c9d4,2023-08-06_08h17.46.309,HF_wild_card,2022.2.4,Win32,60.09615385,62029c60ef1cb18a1337c9d4,64ce5acb97489d65b14ecc7a,64cf490a9fcae12788e2d4e1,,,,,,,decisionTrl,resources/DBN.BMP,resources/DR.BMP,Door3,-0.225555556,0.028888889,1,0,0,0.6606,optionLeft,70,11595,5,38,0,38,0,1,,,,,,,,,,,,,,,,,,,,,,,,,,,,,,,,,,,,,,,
,,,,,,,62029c60ef1cb18a1337c9d4,2023-08-06_08h17.46.309,HF_wild_card,2022.2.4,Win32,60.09615385,62029c60ef1cb18a1337c9d4,64ce5acb97489d65b14ecc7a,64cf490a9fcae12788e2d4e1,,,,,,,sngl,resources/Empty.png,resources/DG.BMP,Door1,0.231111111,-0.003333333,1,0,0,0.7791,optionRight,30,11625,5,39,0,39,0,1,,,,,,,,,,,,,,,,,,,,,,,,,,,,,,,,,,,,,,,
,,,,,,,62029c60ef1cb18a1337c9d4,2023-08-06_08h17.46.309,HF_wild_card,2022.2.4,Win32,60.09615385,62029c60ef1cb18a1337c9d4,64ce5acb97489d65b14ecc7a,64cf490a9fcae12788e2d4e1,,,,,,,decisionTrl,resources/DP.BMP,resources/DG.BMP,Door2,-0.211111111,0.03,1,0,0,0.7593,optionLeft,40,11665,5,40,0,40,0,1,,,,,,,,,,,,,,,,,,,,,,,,,,,,,,,,,,,,,,,
,,,,,,,62029c60ef1cb18a1337c9d4,2023-08-06_08h17.46.309,HF_wild_card,2022.2.4,Win32,60.09615385,62029c60ef1cb18a1337c9d4,64ce5acb97489d65b14ecc7a,64cf490a9fcae12788e2d4e1,,,,,,,decisionTrl,resources/DP.BMP,resources/DB.BMP,Door2,-0.21,0.035555556,1,0,0,0.646,optionLeft,20,11685,5,41,0,41,0,1,,,,,,,,,,,,,,,,,,,,,,,,,,,,,,,,,,,,,,,
,,,,,,,62029c60ef1cb18a1337c9d4,2023-08-06_08h17.46.309,HF_wild_card,2022.2.4,Win32,60.09615385,62029c60ef1cb18a1337c9d4,64ce5acb97489d65b14ecc7a,64cf490a9fcae12788e2d4e1,,,,,,,decisionTrl,resources/DR.BMP,resources/DB.BMP,WildCard_NonEx,0.346666667,0.021111111,1,0,0,0.7454,optionRight,55,11740,5,42,0,42,0,1,,,,,,,,,,,,,,,,,,,,,,,,,,,,,,,,,,,,,,,
,,,,,,,62029c60ef1cb18a1337c9d4,2023-08-06_08h17.46.309,HF_wild_card,2022.2.4,Win32,60.09615385,62029c60ef1cb18a1337c9d4,64ce5acb97489d65b14ecc7a,64cf490a9fcae12788e2d4e1,,,,,,,sngl,resources/Empty.png,resources/DB.BMP,WildCard_NonEx,0.326666667,0.01,1,0,0,0.6112,optionRight,45,11785,5,43,0,43,0,1,,,,,,,,,,,,,,,,,,,,,,,,,,,,,,,,,,,,,,,
,,,,,,,62029c60ef1cb18a1337c9d4,2023-08-06_08h17.46.309,HF_wild_card,2022.2.4,Win32,60.09615385,62029c60ef1cb18a1337c9d4,64ce5acb97489d65b14ecc7a,64cf490a9fcae12788e2d4e1,,,,,,,,,,,,,,,,,,,,,,,,,,4,0,4,0,1,,,,,,,,,,,,,,,,,,,,,,,,,,,,,,,,,,
,,,,,,,62029c60ef1cb18a1337c9d4,2023-08-06_08h17.46.309,HF_wild_card,2022.2.4,Win32,60.09615385,62029c60ef1cb18a1337c9d4,64ce5acb97489d65b14ecc7a,64cf490a9fcae12788e2d4e1,,,,,,,decisionTrl,resources/DBN.BMP,resources/DR.BMP,Door3,-0.177777778,-0.025555556,1,0,0,0.7407,optionLeft,70,11855,6,0,0,0,0,1,,,,,,,,,,,,,,,,,,,,,,,,,,,,,,,,,,,,,,,
,,,,,,,62029c60ef1cb18a1337c9d4,2023-08-06_08h17.46.309,HF_wild_card,2022.2.4,Win32,60.09615385,62029c60ef1cb18a1337c9d4,64ce5acb97489d65b14ecc7a,64cf490a9fcae12788e2d4e1,,,,,,,sngl,resources/Empty.png,resources/DB.BMP,WildCard_NonEx,0.232222222,-0.021111111,1,0,0,0.611,optionRight,55,11910,6,1,0,1,0,1,,,,,,,,,,,,,,,,,,,,,,,,,,,,,,,,,,,,,,,
,,,,,,,62029c60ef1cb18a1337c9d4,2023-08-06_08h17.46.309,HF_wild_card,2022.2.4,Win32,60.09615385,62029c60ef1cb18a1337c9d4,64ce5acb97489d65b14ecc7a,64cf490a9fcae12788e2d4e1,,,,,,,sngl,resources/Empty.png,resources/DR.BMP,Door4,0.207777778,0.005555556,1,0,0,0.5451,optionRight,80,11990,6,2,0,2,0,1,,,,,,,,,,,,,,,,,,,,,,,,,,,,,,,,,,,,,,,
,,,,,,,62029c60ef1cb18a1337c9d4,2023-08-06_08h17.46.309,HF_wild_card,2022.2.4,Win32,60.09615385,62029c60ef1cb18a1337c9d4,64ce5acb97489d65b14ecc7a,64cf490a9fcae12788e2d4e1,,,,,,,ctch,resources/DP.BMP,resources/DBN.BMP,Door2,-0.332222222,0.041111111,1,0,0,0.5803,optionLeft,40,12030,6,3,0,3,0,1,,,,,,,,,,,,,,,,,,,,,,,,,,,,,,,,,,,,,,,
,,,,,,,62029c60ef1cb18a1337c9d4,2023-08-06_08h17.46.309,HF_wild_card,2022.2.4,Win32,60.09615385,62029c60ef1cb18a1337c9d4,64ce5acb97489d65b14ecc7a,64cf490a9fcae12788e2d4e1,,,,,,,ctch,resources/DBN.BMP,resources/DP.BMP,Door3,-0.236666667,0.023333333,1,0,0,0.6612,optionLeft,70,12100,6,4,0,4,0,1,,,,,,,,,,,,,,,,,,,,,,,,,,,,,,,,,,,,,,,
,,,,,,,62029c60ef1cb18a1337c9d4,2023-08-06_08h17.46.309,HF_wild_card,2022.2.4,Win32,60.09615385,62029c60ef1cb18a1337c9d4,64ce5acb97489d65b14ecc7a,64cf490a9fcae12788e2d4e1,,,,,,,decisionTrl,resources/DG.BMP,resources/DP.BMP,Door2,0.276666667,0.016666667,1,0,0,0.8287,optionRight,40,12140,6,5,0,5,0,1,,,,,,,,,,,,,,,,,,,,,,,,,,,,,,,,,,,,,,,
,,,,,,,62029c60ef1cb18a1337c9d4,2023-08-06_08h17.46.309,HF_wild_card,2022.2.4,Win32,60.09615385,62029c60ef1cb18a1337c9d4,64ce5acb97489d65b14ecc7a,64cf490a9fcae12788e2d4e1,,,,,,,ctch,resources/DR.BMP,resources/DG.BMP,Door4,-0.253333333,0.006666667,1,0,0,1.3092,optionLeft,80,12220,6,6,0,6,0,1,,,,,,,,,,,,,,,,,,,,,,,,,,,,,,,,,,,,,,,
,,,,,,,62029c60ef1cb18a1337c9d4,2023-08-06_08h17.46.309,HF_wild_card,2022.2.4,Win32,60.09615385,62029c60ef1cb18a1337c9d4,64ce5acb97489d65b14ecc7a,64cf490a9fcae12788e2d4e1,,,,,,,sngl,resources/Empty.png,resources/DB.BMP,WildCard_NonEx,0.256666667,0.001111111,1,0,0,0.5965,optionRight,45,12265,6,7,0,7,0,1,,,,,,,,,,,,,,,,,,,,,,,,,,,,,,,,,,,,,,,
,,,,,,,62029c60ef1cb18a1337c9d4,2023-08-06_08h17.46.309,HF_wild_card,2022.2.4,Win32,60.09615385,62029c60ef1cb18a1337c9d4,64ce5acb97489d65b14ecc7a,64cf490a9fcae12788e2d4e1,,,,,,,decisionTrl,resources/DR.BMP,resources/DBN.BMP,Door3,0.3,0.026666667,1,0,0,0.6449,optionRight,70,12335,6,8,0,8,0,1,,,,,,,,,,,,,,,,,,,,,,,,,,,,,,,,,,,,,,,
,,,,,,,62029c60ef1cb18a1337c9d4,2023-08-06_08h17.46.309,HF_wild_card,2022.2.4,Win32,60.09615385,62029c60ef1cb18a1337c9d4,64ce5acb97489d65b14ecc7a,64cf490a9fcae12788e2d4e1,,,,,,,sngl,resources/Empty.png,resources/DP.BMP,Door2,0.19,0.001111111,1,0,0,0.6948,optionRight,40,12375,6,9,0,9,0,1,,,,,,,,,,,,,,,,,,,,,,,,,,,,,,,,,,,,,,,
,,,,,,,62029c60ef1cb18a1337c9d4,2023-08-06_08h17.46.309,HF_wild_card,2022.2.4,Win32,60.09615385,62029c60ef1cb18a1337c9d4,64ce5acb97489d65b14ecc7a,64cf490a9fcae12788e2d4e1,,,,,,,sngl,resources/DG.BMP,resources/Empty.png,Door1,-0.2,0.012222222,1,0,0,0.7425,optionLeft,30,12405,6,10,0,10,0,1,,,,,,,,,,,,,,,,,,,,,,,,,,,,,,,,,,,,,,,
,,,,,,,62029c60ef1cb18a1337c9d4,2023-08-06_08h17.46.309,HF_wild_card,2022.2.4,Win32,60.09615385,62029c60ef1cb18a1337c9d4,64ce5acb97489d65b14ecc7a,64cf490a9fcae12788e2d4e1,,,,,,,decisionTrl,resources/DP.BMP,resources/DG.BMP,Door2,-0.252222222,0.03,1,0,0,0.8279,optionLeft,40,12445,6,11,0,11,0,1,,,,,,,,,,,,,,,,,,,,,,,,,,,,,,,,,,,,,,,
,,,,,,,62029c60ef1cb18a1337c9d4,2023-08-06_08h17.46.309,HF_wild_card,2022.2.4,Win32,60.09615385,62029c60ef1cb18a1337c9d4,64ce5acb97489d65b14ecc7a,64cf490a9fcae12788e2d4e1,,,,,,,decisionTrl,resources/DG.BMP,resources/DB.BMP,WildCard_NonEx,0.216666667,0.031111111,1,0,0,0.6963,optionRight,55,12500,6,12,0,12,0,1,,,,,,,,,,,,,,,,,,,,,,,,,,,,,,,,,,,,,,,
,,,,,,,62029c60ef1cb18a1337c9d4,2023-08-06_08h17.46.309,HF_wild_card,2022.2.4,Win32,60.09615385,62029c60ef1cb18a1337c9d4,64ce5acb97489d65b14ecc7a,64cf490a9fcae12788e2d4e1,,,,,,,decisionTrl,resources/DB.BMP,resources/DBN.BMP,Door3,0.346666667,0.07,1,0,0,0.762,optionRight,70,12570,6,13,0,13,0,1,,,,,,,,,,,,,,,,,,,,,,,,,,,,,,,,,,,,,,,
,,,,,,,62029c60ef1cb18a1337c9d4,2023-08-06_08h17.46.309,HF_wild_card,2022.2.4,Win32,60.09615385,62029c60ef1cb18a1337c9d4,64ce5acb97489d65b14ecc7a,64cf490a9fcae12788e2d4e1,,,,,,,ctch,resources/DR.BMP,resources/DG.BMP,Door4,-0.264444444,0.048888889,1,0,0,0.8777,optionLeft,60,12630,6,14,0,14,0,1,,,,,,,,,,,,,,,,,,,,,,,,,,,,,,,,,,,,,,,
,,,,,,,62029c60ef1cb18a1337c9d4,2023-08-06_08h17.46.309,HF_wild_card,2022.2.4,Win32,60.09615385,62029c60ef1cb18a1337c9d4,64ce5acb97489d65b14ecc7a,64cf490a9fcae12788e2d4e1,,,,,,,sngl,resources/DBN.BMP,resources/Empty.png,Door3,-0.2,0.037777778,1,0,0,0.6725,optionLeft,70,12700,6,15,0,15,0,1,,,,,,,,,,,,,,,,,,,,,,,,,,,,,,,,,,,,,,,
,,,,,,,62029c60ef1cb18a1337c9d4,2023-08-06_08h17.46.309,HF_wild_card,2022.2.4,Win32,60.09615385,62029c60ef1cb18a1337c9d4,64ce5acb97489d65b14ecc7a,64cf490a9fcae12788e2d4e1,,,,,,,decisionTrl,resources/DB.BMP,resources/DR.BMP,WildCard_NonEx,-0.197777778,0.017777778,1,0,0,0.8614,optionLeft,55,12755,6,16,0,16,0,1,,,,,,,,,,,,,,,,,,,,,,,,,,,,,,,,,,,,,,,
,,,,,,,62029c60ef1cb18a1337c9d4,2023-08-06_08h17.46.309,HF_wild_card,2022.2.4,Win32,60.09615385,62029c60ef1cb18a1337c9d4,64ce5acb97489d65b14ecc7a,64cf490a9fcae12788e2d4e1,,,,,,,decisionTrl,resources/DP.BMP,resources/DG.BMP,Door2,-0.205555556,0.024444444,1,0,0,0.9281,optionLeft,20,12775,6,17,0,17,0,1,,,,,,,,,,,,,,,,,,,,,,,,,,,,,,,,,,,,,,,
,,,,,,,62029c60ef1cb18a1337c9d4,2023-08-06_08h17.46.309,HF_wild_card,2022.2.4,Win32,60.09615385,62029c60ef1cb18a1337c9d4,64ce5acb97489d65b14ecc7a,64cf490a9fcae12788e2d4e1,,,,,,,decisionTrl,resources/DR.BMP,resources/DB.BMP,WildCard_NonEx,0.386666667,0.026666667,1,0,0,0.7778,optionRight,55,12830,6,18,0,18,0,1,,,,,,,,,,,,,,,,,,,,,,,,,,,,,,,,,,,,,,,
,,,,,,,62029c60ef1cb18a1337c9d4,2023-08-06_08h17.46.309,HF_wild_card,2022.2.4,Win32,60.09615385,62029c60ef1cb18a1337c9d4,64ce5acb97489d65b14ecc7a,64cf490a9fcae12788e2d4e1,,,,,,,decisionTrl,resources/DBN.BMP,resources/DR.BMP,Door3,-0.233333333,0.024444444,1,0,0,0.6786,optionLeft,70,12900,6,19,0,19,0,1,,,,,,,,,,,,,,,,,,,,,,,,,,,,,,,,,,,,,,,
,,,,,,,62029c60ef1cb18a1337c9d4,2023-08-06_08h17.46.309,HF_wild_card,2022.2.4,Win32,60.09615385,62029c60ef1cb18a1337c9d4,64ce5acb97489d65b14ecc7a,64cf490a9fcae12788e2d4e1,,,,,,,sngl,resources/Empty.png,resources/DG.BMP,Door1,0.24,0.003333333,1,0,0,0.6288,optionRight,30,12930,6,20,0,20,0,1,,,,,,,,,,,,,,,,,,,,,,,,,,,,,,,,,,,,,,,
,,,,,,,62029c60ef1cb18a1337c9d4,2023-08-06_08h17.46.309,HF_wild_card,2022.2.4,Win32,60.09615385,62029c60ef1cb18a1337c9d4,64ce5acb97489d65b14ecc7a,64cf490a9fcae12788e2d4e1,,,,,,,sngl,resources/DR.BMP,resources/Empty.png,Door4,-0.288888889,0.003333333,1,0,0,0.5939,optionLeft,60,12990,6,21,0,21,0,1,,,,,,,,,,,,,,,,,,,,,,,,,,,,,,,,,,,,,,,
,,,,,,,62029c60ef1cb18a1337c9d4,2023-08-06_08h17.46.309,HF_wild_card,2022.2.4,Win32,60.09615385,62029c60ef1cb18a1337c9d4,64ce5acb97489d65b14ecc7a,64cf490a9fcae12788e2d4e1,,,,,,,ctch,resources/DBN.BMP,resources/DP.BMP,Door3,-0.294444444,0.061111111,1,0,0,0.7622,optionLeft,70,13060,6,22,0,22,0,1,,,,,,,,,,,,,,,,,,,,,,,,,,,,,,,,,,,,,,,
,,,,,,,62029c60ef1cb18a1337c9d4,2023-08-06_08h17.46.309,HF_wild_card,2022.2.4,Win32,60.09615385,62029c60ef1cb18a1337c9d4,64ce5acb97489d65b14ecc7a,64cf490a9fcae12788e2d4e1,,,,,,,decisionTrl,resources/DBN.BMP,resources/DR.BMP,Door3,-0.307777778,0.101111111,1,0,0,0.645,optionLeft,70,13130,6,23,0,23,0,1,,,,,,,,,,,,,,,,,,,,,,,,,,,,,,,,,,,,,,,
,,,,,,,62029c60ef1cb18a1337c9d4,2023-08-06_08h17.46.309,HF_wild_card,2022.2.4,Win32,60.09615385,62029c60ef1cb18a1337c9d4,64ce5acb97489d65b14ecc7a,64cf490a9fcae12788e2d4e1,,,,,,,sngl,resources/Empty.png,resources/DBN.BMP,Door3,0.267777778,0.031111111,1,0,0,0.6107,optionRight,70,13200,6,24,0,24,0,1,,,,,,,,,,,,,,,,,,,,,,,,,,,,,,,,,,,,,,,
,,,,,,,62029c60ef1cb18a1337c9d4,2023-08-06_08h17.46.309,HF_wild_card,2022.2.4,Win32,60.09615385,62029c60ef1cb18a1337c9d4,64ce5acb97489d65b14ecc7a,64cf490a9fcae12788e2d4e1,,,,,,,sngl,resources/DP.BMP,resources/Empty.png,Door2,-0.242222222,0.038888889,1,0,0,0.6611,optionLeft,20,13220,6,25,0,25,0,1,,,,,,,,,,,,,,,,,,,,,,,,,,,,,,,,,,,,,,,
,,,,,,,62029c60ef1cb18a1337c9d4,2023-08-06_08h17.46.309,HF_wild_card,2022.2.4,Win32,60.09615385,62029c60ef1cb18a1337c9d4,64ce5acb97489d65b14ecc7a,64cf490a9fcae12788e2d4e1,,,,,,,sngl,resources/DB.BMP,resources/Empty.png,WildCard_NonEx,-0.224444444,0.043333333,1,0,0,0.6286,optionLeft,45,13265,6,26,0,26,0,1,,,,,,,,,,,,,,,,,,,,,,,,,,,,,,,,,,,,,,,
,,,,,,,62029c60ef1cb18a1337c9d4,2023-08-06_08h17.46.309,HF_wild_card,2022.2.4,Win32,60.09615385,62029c60ef1cb18a1337c9d4,64ce5acb97489d65b14ecc7a,64cf490a9fcae12788e2d4e1,,,,,,,ctch,resources/DP.BMP,resources/DBN.BMP,Door3,0.31,0.016666667,1,0,0,0.6621,optionRight,70,13335,6,27,0,27,0,1,,,,,,,,,,,,,,,,,,,,,,,,,,,,,,,,,,,,,,,
,,,,,,,62029c60ef1cb18a1337c9d4,2023-08-06_08h17.46.309,HF_wild_card,2022.2.4,Win32,60.09615385,62029c60ef1cb18a1337c9d4,64ce5acb97489d65b14ecc7a,64cf490a9fcae12788e2d4e1,,,,,,,decisionTrl,resources/DR.BMP,resources/DBN.BMP,Door3,0.173333333,0.024444444,1,0,0,0.6636,optionRight,70,13405,6,28,0,28,0,1,,,,,,,,,,,,,,,,,,,,,,,,,,,,,,,,,,,,,,,
,,,,,,,62029c60ef1cb18a1337c9d4,2023-08-06_08h17.46.309,HF_wild_card,2022.2.4,Win32,60.09615385,62029c60ef1cb18a1337c9d4,64ce5acb97489d65b14ecc7a,64cf490a9fcae12788e2d4e1,,,,,,,decisionTrl,resources/DP.BMP,resources/DG.BMP,Door2,-0.207777778,0.018888889,1,0,0,0.7943,optionLeft,40,13445,6,29,0,29,0,1,,,,,,,,,,,,,,,,,,,,,,,,,,,,,,,,,,,,,,,
,,,,,,,62029c60ef1cb18a1337c9d4,2023-08-06_08h17.46.309,HF_wild_card,2022.2.4,Win32,60.09615385,62029c60ef1cb18a1337c9d4,64ce5acb97489d65b14ecc7a,64cf490a9fcae12788e2d4e1,,,,,,,decisionTrl,resources/DB.BMP,resources/DP.BMP,WildCard_NonEx,-0.225555556,0.011111111,1,0,0,0.7276,optionLeft,45,13490,6,30,0,30,0,1,,,,,,,,,,,,,,,,,,,,,,,,,,,,,,,,,,,,,,,
,,,,,,,62029c60ef1cb18a1337c9d4,2023-08-06_08h17.46.309,HF_wild_card,2022.2.4,Win32,60.09615385,62029c60ef1cb18a1337c9d4,64ce5acb97489d65b14ecc7a,64cf490a9fcae12788e2d4e1,,,,,,,decisionTrl,resources/DG.BMP,resources/DP.BMP,Door1,-0.2,0.01,1,0,0,0.6786,optionLeft,30,13520,6,31,0,31,0,1,,,,,,,,,,,,,,,,,,,,,,,,,,,,,,,,,,,,,,,
,,,,,,,62029c60ef1cb18a1337c9d4,2023-08-06_08h17.46.309,HF_wild_card,2022.2.4,Win32,60.09615385,62029c60ef1cb18a1337c9d4,64ce5acb97489d65b14ecc7a,64cf490a9fcae12788e2d4e1,,,,,,,decisionTrl,resources/DG.BMP,resources/DP.BMP,Door2,0.338888889,0.012222222,1,0,0,0.7455,optionRight,40,13560,6,32,0,32,0,1,,,,,,,,,,,,,,,,,,,,,,,,,,,,,,,,,,,,,,,
,,,,,,,62029c60ef1cb18a1337c9d4,2023-08-06_08h17.46.309,HF_wild_card,2022.2.4,Win32,60.09615385,62029c60ef1cb18a1337c9d4,64ce5acb97489d65b14ecc7a,64cf490a9fcae12788e2d4e1,,,,,,,decisionTrl,resources/DBN.BMP,resources/DB.BMP,Door3,-0.221111111,0.033333333,1,0,0,0.7287,optionLeft,70,13630,6,33,0,33,0,1,,,,,,,,,,,,,,,,,,,,,,,,,,,,,,,,,,,,,,,
,,,,,,,62029c60ef1cb18a1337c9d4,2023-08-06_08h17.46.309,HF_wild_card,2022.2.4,Win32,60.09615385,62029c60ef1cb18a1337c9d4,64ce5acb97489d65b14ecc7a,64cf490a9fcae12788e2d4e1,,,,,,,ctch,resources/DG.BMP,resources/DR.BMP,Door4,0.33,0.017777778,1,0,0,1.0965,optionRight,60,13690,6,34,0,34,0,1,,,,,,,,,,,,,,,,,,,,,,,,,,,,,,,,,,,,,,,
,,,,,,,62029c60ef1cb18a1337c9d4,2023-08-06_08h17.46.309,HF_wild_card,2022.2.4,Win32,60.09615385,62029c60ef1cb18a1337c9d4,64ce5acb97489d65b14ecc7a,64cf490a9fcae12788e2d4e1,,,,,,,decisionTrl,resources/DG.BMP,resources/DP.BMP,Door2,0.262222222,0.015555556,1,0,0,0.7642,optionRight,40,13730,6,35,0,35,0,1,,,,,,,,,,,,,,,,,,,,,,,,,,,,,,,,,,,,,,,
,,,,,,,62029c60ef1cb18a1337c9d4,2023-08-06_08h17.46.309,HF_wild_card,2022.2.4,Win32,60.09615385,62029c60ef1cb18a1337c9d4,64ce5acb97489d65b14ecc7a,64cf490a9fcae12788e2d4e1,,,,,,,decisionTrl,resources/DP.BMP,resources/DB.BMP,WildCard_NonEx,0.236666667,0.013333333,1,0,0,0.7453,optionRight,45,13775,6,36,0,36,0,1,,,,,,,,,,,,,,,,,,,,,,,,,,,,,,,,,,,,,,,
,,,,,,,62029c60ef1cb18a1337c9d4,2023-08-06_08h17.46.309,HF_wild_card,2022.2.4,Win32,60.09615385,62029c60ef1cb18a1337c9d4,64ce5acb97489d65b14ecc7a,64cf490a9fcae12788e2d4e1,,,,,,,decisionTrl,resources/DR.BMP,resources/DBN.BMP,Door3,0.348888889,0.023333333,1,0,0,0.579,optionRight,70,13845,6,37,0,37,0,1,,,,,,,,,,,,,,,,,,,,,,,,,,,,,,,,,,,,,,,
,,,,,,,62029c60ef1cb18a1337c9d4,2023-08-06_08h17.46.309,HF_wild_card,2022.2.4,Win32,60.09615385,62029c60ef1cb18a1337c9d4,64ce5acb97489d65b14ecc7a,64cf490a9fcae12788e2d4e1,,,,,,,decisionTrl,resources/DP.BMP,resources/DG.BMP,Door2,-0.263333333,0.022222222,1,0,0,0.8618,optionLeft,40,13885,6,38,0,38,0,1,,,,,,,,,,,,,,,,,,,,,,,,,,,,,,,,,,,,,,,
,,,,,,,62029c60ef1cb18a1337c9d4,2023-08-06_08h17.46.309,HF_wild_card,2022.2.4,Win32,60.09615385,62029c60ef1cb18a1337c9d4,64ce5acb97489d65b14ecc7a,64cf490a9fcae12788e2d4e1,,,,,,,decisionTrl,resources/DR.BMP,resources/DBN.BMP,Door3,0.297777778,0.034444444,1,0,0,0.5956,optionRight,70,13955,6,39,0,39,0,1,,,,,,,,,,,,,,,,,,,,,,,,,,,,,,,,,,,,,,,
,,,,,,,62029c60ef1cb18a1337c9d4,2023-08-06_08h17.46.309,HF_wild_card,2022.2.4,Win32,60.09615385,62029c60ef1cb18a1337c9d4,64ce5acb97489d65b14ecc7a,64cf490a9fcae12788e2d4e1,,,,,,,decisionTrl,resources/DBN.BMP,resources/DR.BMP,Door3,-0.3,0.044444444,1,0,0,0.6452,optionLeft,70,14025,6,40,0,40,0,1,,,,,,,,,,,,,,,,,,,,,,,,,,,,,,,,,,,,,,,
,,,,,,,62029c60ef1cb18a1337c9d4,2023-08-06_08h17.46.309,HF_wild_card,2022.2.4,Win32,60.09615385,62029c60ef1cb18a1337c9d4,64ce5acb97489d65b14ecc7a,64cf490a9fcae12788e2d4e1,,,,,,,decisionTrl,resources/DB.BMP,resources/DG.BMP,WildCard_NonEx,-0.17,0.027777778,1,0,0,0.8277,optionLeft,45,14070,6,41,0,41,0,1,,,,,,,,,,,,,,,,,,,,,,,,,,,,,,,,,,,,,,,
,,,,,,,62029c60ef1cb18a1337c9d4,2023-08-06_08h17.46.309,HF_wild_card,2022.2.4,Win32,60.09615385,62029c60ef1cb18a1337c9d4,64ce5acb97489d65b14ecc7a,64cf490a9fcae12788e2d4e1,,,,,,,ctch,resources/DG.BMP,resources/DR.BMP,Door4,0.211111111,0.036666667,1,0,0,0.762,optionRight,80,14150,6,42,0,42,0,1,,,,,,,,,,,,,,,,,,,,,,,,,,,,,,,,,,,,,,,
,,,,,,,62029c60ef1cb18a1337c9d4,2023-08-06_08h17.46.309,HF_wild_card,2022.2.4,Win32,60.09615385,62029c60ef1cb18a1337c9d4,64ce5acb97489d65b14ecc7a,64cf490a9fcae12788e2d4e1,,,,,,,sngl,resources/DB.BMP,resources/Empty.png,WildCard_NonEx,-0.245555556,0.034444444,1,0,0,0.645,optionLeft,55,14205,6,43,0,43,0,1,,,,,,,,,,,,,,,,,,,,,,,,,,,,,,,,,,,,,,,
,,,,,,,62029c60ef1cb18a1337c9d4,2023-08-06_08h17.46.309,HF_wild_card,2022.2.4,Win32,60.09615385,62029c60ef1cb18a1337c9d4,64ce5acb97489d65b14ecc7a,64cf490a9fcae12788e2d4e1,,,,,,,,,,,,,,,,,,,,,,,,,,5,0,5,0,1,,,,,,,,,,,,,,,,,,,,,,,,,,,,,,,,,,
,,,,,,,62029c60ef1cb18a1337c9d4,2023-08-06_08h17.46.309,HF_wild_card,2022.2.4,Win32,60.09615385,62029c60ef1cb18a1337c9d4,64ce5acb97489d65b14ecc7a,64cf490a9fcae12788e2d4e1,,,,,,,decisionTrl,resources/DBN.BMP,resources/DR.BMP,Door3,-0.24,-0.013333333,1,0,0,0.6704,optionLeft,70,14275,7,0,0,0,0,1,,,,,,,,,,,,,,,,,,,,,,,,,,,,,,,,,,,,,,,
,,,,,,,62029c60ef1cb18a1337c9d4,2023-08-06_08h17.46.309,HF_wild_card,2022.2.4,Win32,60.09615385,62029c60ef1cb18a1337c9d4,64ce5acb97489d65b14ecc7a,64cf490a9fcae12788e2d4e1,,,,,,,ctch,resources/DP.BMP,resources/DBN.BMP,Door3,0.402222222,0.07,1,0,0,0.7286,optionRight,70,14345,7,1,0,1,0,1,,,,,,,,,,,,,,,,,,,,,,,,,,,,,,,,,,,,,,,
,,,,,,,62029c60ef1cb18a1337c9d4,2023-08-06_08h17.46.309,HF_wild_card,2022.2.4,Win32,60.09615385,62029c60ef1cb18a1337c9d4,64ce5acb97489d65b14ecc7a,64cf490a9fcae12788e2d4e1,,,,,,,decisionTrl,resources/DG.BMP,resources/DP.BMP,Door2,0.192222222,0.015555556,1,0,0,0.7315,optionRight,40,14385,7,2,0,2,0,1,,,,,,,,,,,,,,,,,,,,,,,,,,,,,,,,,,,,,,,
,,,,,,,62029c60ef1cb18a1337c9d4,2023-08-06_08h17.46.309,HF_wild_card,2022.2.4,Win32,60.09615385,62029c60ef1cb18a1337c9d4,64ce5acb97489d65b14ecc7a,64cf490a9fcae12788e2d4e1,,,,,,,decisionTrl,resources/DBN.BMP,resources/DR.BMP,Door3,-0.301111111,0.058888889,1,0,0,0.6131,optionLeft,70,14455,7,3,0,3,0,1,,,,,,,,,,,,,,,,,,,,,,,,,,,,,,,,,,,,,,,
,,,,,,,62029c60ef1cb18a1337c9d4,2023-08-06_08h17.46.309,HF_wild_card,2022.2.4,Win32,60.09615385,62029c60ef1cb18a1337c9d4,64ce5acb97489d65b14ecc7a,64cf490a9fcae12788e2d4e1,,,,,,,ctch,resources/DR.BMP,resources/DG.BMP,Door4,-0.238888889,0.054444444,1,0,0,0.8792,optionLeft,80,14535,7,4,0,4,0,1,,,,,,,,,,,,,,,,,,,,,,,,,,,,,,,,,,,,,,,
,,,,,,,62029c60ef1cb18a1337c9d4,2023-08-06_08h17.46.309,HF_wild_card,2022.2.4,Win32,60.09615385,62029c60ef1cb18a1337c9d4,64ce5acb97489d65b14ecc7a,64cf490a9fcae12788e2d4e1,,,,,,,decisionTrl,resources/DBN.BMP,resources/DR.BMP,Door3,-0.24,0.066666667,1,0,0,0.6129,optionLeft,70,14605,7,5,0,5,0,1,,,,,,,,,,,,,,,,,,,,,,,,,,,,,,,,,,,,,,,
,,,,,,,62029c60ef1cb18a1337c9d4,2023-08-06_08h17.46.309,HF_wild_card,2022.2.4,Win32,60.09615385,62029c60ef1cb18a1337c9d4,64ce5acb97489d65b14ecc7a,64cf490a9fcae12788e2d4e1,,,,,,,ctch,resources/DBN.BMP,resources/DP.BMP,Door3,-0.277777778,0.07,1,0,0,0.648,optionLeft,70,14675,7,6,0,6,0,1,,,,,,,,,,,,,,,,,,,,,,,,,,,,,,,,,,,,,,,
,,,,,,,62029c60ef1cb18a1337c9d4,2023-08-06_08h17.46.309,HF_wild_card,2022.2.4,Win32,60.09615385,62029c60ef1cb18a1337c9d4,64ce5acb97489d65b14ecc7a,64cf490a9fcae12788e2d4e1,,,,,,,decisionTrl,resources/DP.BMP,resources/DG.BMP,Door2,-0.18,0.042222222,1,0,0,0.7135,optionLeft,40,14715,7,7,0,7,0,1,,,,,,,,,,,,,,,,,,,,,,,,,,,,,,,,,,,,,,,
,,,,,,,62029c60ef1cb18a1337c9d4,2023-08-06_08h17.46.309,HF_wild_card,2022.2.4,Win32,60.09615385,62029c60ef1cb18a1337c9d4,64ce5acb97489d65b14ecc7a,64cf490a9fcae12788e2d4e1,,,,,,,decisionTrl,resources/DR.BMP,resources/DBN.BMP,Door3,0.382222222,0.05,1,0,0,0.5967,optionRight,70,14785,7,8,0,8,0,1,,,,,,,,,,,,,,,,,,,,,,,,,,,,,,,,,,,,,,,
,,,,,,,62029c60ef1cb18a1337c9d4,2023-08-06_08h17.46.309,HF_wild_card,2022.2.4,Win32,60.09615385,62029c60ef1cb18a1337c9d4,64ce5acb97489d65b14ecc7a,64cf490a9fcae12788e2d4e1,,,,,,,ctch,resources/DG.BMP,resources/DR.BMP,Door4,0.29,0.064444444,1,0,0,0.7797,optionRight,80,14865,7,9,0,9,0,1,,,,,,,,,,,,,,,,,,,,,,,,,,,,,,,,,,,,,,,
,,,,,,,62029c60ef1cb18a1337c9d4,2023-08-06_08h17.46.309,HF_wild_card,2022.2.4,Win32,60.09615385,62029c60ef1cb18a1337c9d4,64ce5acb97489d65b14ecc7a,64cf490a9fcae12788e2d4e1,,,,,,,decisionTrl,resources/DR.BMP,resources/DBN.BMP,Door3,0.317777778,0.075555556,1,0,0,0.63,optionRight,70,14935,7,10,0,10,0,1,,,,,,,,,,,,,,,,,,,,,,,,,,,,,,,,,,,,,,,
,,,,,,,62029c60ef1cb18a1337c9d4,2023-08-06_08h17.46.309,HF_wild_card,2022.2.4,Win32,60.09615385,62029c60ef1cb18a1337c9d4,64ce5acb97489d65b14ecc7a,64cf490a9fcae12788e2d4e1,,,,,,,ctch,resources/DP.BMP,resources/DBN.BMP,Door3,0.197777778,0.024444444,1,0,0,0.5984,optionRight,70,15005,7,11,0,11,0,1,,,,,,,,,,,,,,,,,,,,,,,,,,,,,,,,,,,,,,,
,,,,,,,62029c60ef1cb18a1337c9d4,2023-08-06_08h17.46.309,HF_wild_card,2022.2.4,Win32,60.09615385,62029c60ef1cb18a1337c9d4,64ce5acb97489d65b14ecc7a,64cf490a9fcae12788e2d4e1,,,,,,,decisionTrl,resources/DP.BMP,resources/DG.BMP,Door2,-0.156666667,0.028888889,1,0,0,1.4953,optionLeft,20,15025,7,12,0,12,0,1,,,,,,,,,,,,,,,,,,,,,,,,,,,,,,,,,,,,,,,
,,,,,,,62029c60ef1cb18a1337c9d4,2023-08-06_08h17.46.309,HF_wild_card,2022.2.4,Win32,60.09615385,62029c60ef1cb18a1337c9d4,64ce5acb97489d65b14ecc7a,64cf490a9fcae12788e2d4e1,,,,,,,decisionTrl,resources/DBN.BMP,resources/DR.BMP,Door3,-0.248888889,0.011111111,1,0,0,0.6309,optionLeft,70,15095,7,13,0,13,0,1,,,,,,,,,,,,,,,,,,,,,,,,,,,,,,,,,,,,,,,
,,,,,,,62029c60ef1cb18a1337c9d4,2023-08-06_08h17.46.309,HF_wild_card,2022.2.4,Win32,60.09615385,62029c60ef1cb18a1337c9d4,64ce5acb97489d65b14ecc7a,64cf490a9fcae12788e2d4e1,,,,,,,decisionTrl,resources/DR.BMP,resources/DBN.BMP,Door3,0.306666667,0.042222222,1,0,0,0.5961,optionRight,70,15165,7,14,0,14,0,1,,,,,,,,,,,,,,,,,,,,,,,,,,,,,,,,,,,,,,,
,,,,,,,62029c60ef1cb18a1337c9d4,2023-08-06_08h17.46.309,HF_wild_card,2022.2.4,Win32,60.09615385,62029c60ef1cb18a1337c9d4,64ce5acb97489d65b14ecc7a,64cf490a9fcae12788e2d4e1,,,,,,,decisionTrl,resources/DG.BMP,resources/DP.BMP,Door2,0.313333333,0.048888889,1,0,0,0.7794,optionRight,40,15205,7,15,0,15,0,1,,,,,,,,,,,,,,,,,,,,,,,,,,,,,,,,,,,,,,,
,,,,,,,62029c60ef1cb18a1337c9d4,2023-08-06_08h17.46.309,HF_wild_card,2022.2.4,Win32,60.09615385,62029c60ef1cb18a1337c9d4,64ce5acb97489d65b14ecc7a,64cf490a9fcae12788e2d4e1,,,,,,,ctch,resources/DR.BMP,resources/DG.BMP,Door4,-0.25,0.03,1,0,0,0.6802,optionLeft,60,15265,7,16,0,16,0,1,,,,,,,,,,,,,,,,,,,,,,,,,,,,,,,,,,,,,,,
,,,,,,,62029c60ef1cb18a1337c9d4,2023-08-06_08h17.46.309,HF_wild_card,2022.2.4,Win32,60.09615385,62029c60ef1cb18a1337c9d4,64ce5acb97489d65b14ecc7a,64cf490a9fcae12788e2d4e1,,,,,,,ctch,resources/DP.BMP,resources/DBN.BMP,Door3,0.245555556,0.03,1,0,0,0.6456,optionRight,70,15335,7,17,0,17,0,1,,,,,,,,,,,,,,,,,,,,,,,,,,,,,,,,,,,,,,,
,,,,,,,62029c60ef1cb18a1337c9d4,2023-08-06_08h17.46.309,HF_wild_card,2022.2.4,Win32,60.09615385,62029c60ef1cb18a1337c9d4,64ce5acb97489d65b14ecc7a,64cf490a9fcae12788e2d4e1,,,,,,,decisionTrl,resources/DG.BMP,resources/DP.BMP,Door2,0.262222222,0.028888889,1,0,0,0.729,optionRight,40,15375,7,18,0,18,0,1,,,,,,,,,,,,,,,,,,,,,,,,,,,,,,,,,,,,,,,
,,,,,,,62029c60ef1cb18a1337c9d4,2023-08-06_08h17.46.309,HF_wild_card,2022.2.4,Win32,60.09615385,62029c60ef1cb18a1337c9d4,64ce5acb97489d65b14ecc7a,64cf490a9fcae12788e2d4e1,,,,,,,ctch,resources/DG.BMP,resources/DR.BMP,Door4,0.304444444,0.037777778,1,0,0,0.7973,optionRight,80,15455,7,19,0,19,0,1,,,,,,,,,,,,,,,,,,,,,,,,,,,,,,,,,,,,,,,
,,,,,,,62029c60ef1cb18a1337c9d4,2023-08-06_08h17.46.309,HF_wild_card,2022.2.4,Win32,60.09615385,62029c60ef1cb18a1337c9d4,64ce5acb97489d65b14ecc7a,64cf490a9fcae12788e2d4e1,,,,,,,decisionTrl,resources/DP.BMP,resources/DG.BMP,Door2,-0.167777778,0.026666667,1,0,0,0.6301,optionLeft,40,15495,7,20,0,20,0,1,,,,,,,,,,,,,,,,,,,,,,,,,,,,,,,,,,,,,,,
,,,,,,,62029c60ef1cb18a1337c9d4,2023-08-06_08h17.46.309,HF_wild_card,2022.2.4,Win32,60.09615385,62029c60ef1cb18a1337c9d4,64ce5acb97489d65b14ecc7a,64cf490a9fcae12788e2d4e1,,,,,,,decisionTrl,resources/DBN.BMP,resources/DR.BMP,Door3,-0.211111111,0.041111111,1,0,0,0.6299,optionLeft,70,15565,7,21,0,21,0,1,,,,,,,,,,,,,,,,,,,,,,,,,,,,,,,,,,,,,,,
