Condition,Low fixed image (Door1),Low risky image (Door2),High fixed image (Door3),High risky image (Door4),Extreme Wild Card,NonExtreme Wild Card,,date,expName,psychopyVersion,OS,frameRate,PROLIFIC_PID,STUDY_ID,SESSION_ID,mouse_2.x,mouse_2.y,mouse_2.leftButton,mouse_2.midButton,mouse_2.rightButton,mouse_2.clicked_name,Trial Type,Left Option Image,Right Option Image,Chosen Door,mouse.x,mouse.y,mouse.leftButton,mouse.midButton,mouse.rightButton,mouse.time,mouse.clicked_name,Feedback,Cumulative Reward,Block,trial.thisRepN,trial.thisTrialN,trial.thisN,trial.thisIndex,trial.ran,blocks.thisRepN,blocks.thisTrialN,blocks.thisN,blocks.thisIndex,blocks.ran,Money conversion,First Outcome Reported,Shown Door (First Outcome),Displayed Image (First Outcome),outcomes.thisRepN,outcomes.thisTrialN,outcomes.thisN,outcomes.thisIndex,outcomes.ran,judgments.thisRepN,judgments.thisTrialN,judgments.thisN,judgments.thisIndex,judgments.ran,freqMouse.x,freqMouse.y,freqMouse.leftButton,freqMouse.midButton,freqMouse.rightButton,freqMouse.clicked_name,FQJ for first outcome,FQJ for second outcome,Shown Door,Displayed Image,trials.thisRepN,trials.thisTrialN,trials.thisN,trials.thisIndex,trials.ran,judgBlock.thisRepN,judgBlock.thisTrialN,judgBlock.thisN,judgBlock.thisIndex,judgBlock.ran
0,resources/DBN.BMP,resources/DR.BMP,resources/DB.BMP,resources/DG.BMP,resources/DP.BMP,resources/DY.BMP,,2023-08-16_08h38.53.918,HF_wild_card,2022.2.4,Win32,61.65228113,63874f631a1cdae0188d4e7a,64d2fd46c836a06233681665,64dc7d0179bf61fd774411ad,,,,,,,,,,,,,,,,,,,,,,,,,,,,,,,,,,,,,,,,,,,,,,,,,,,,,,,,,,,,,,,,
,,,,,,,,2023-08-16_08h38.53.918,HF_wild_card,2022.2.4,Win32,61.65228113,63874f631a1cdae0188d4e7a,64d2fd46c836a06233681665,64dc7d0179bf61fd774411ad,0.024444444,-0.43,1,0,0,agree,,,,,,,,,,,,,,,,,,,,,,,,,,,,,,,,,,,,,,,,,,,,,,,,,,,,,,,,,,
,,,,,,,,2023-08-16_08h38.53.918,HF_wild_card,2022.2.4,Win32,61.65228113,63874f631a1cdae0188d4e7a,64d2fd46c836a06233681665,64dc7d0179bf61fd774411ad,,,,,,,,,,,,,,,,,,,,,,,,,,,,,,,,,,,,,,,,,,,,,,,,,,,,,,,,,,,,,,,,
,,,,,,,,2023-08-16_08h38.53.918,HF_wild_card,2022.2.4,Win32,61.65228113,63874f631a1cdae0188d4e7a,64d2fd46c836a06233681665,64dc7d0179bf61fd774411ad,,,,,,,sngl,resources/DBN.BMP,resources/Empty.png,Door1,-0.29,-0.072222222,1,0,0,4.101,optionLeft,30,30,1,0,0,0,0,1,,,,,,,,,,,,,,,,,,,,,,,,,,,,,,,,,,,,,,,
,,,,,,,,2023-08-16_08h38.53.918,HF_wild_card,2022.2.4,Win32,61.65228113,63874f631a1cdae0188d4e7a,64d2fd46c836a06233681665,64dc7d0179bf61fd774411ad,,,,,,,ctch,resources/DB.BMP,resources/DR.BMP,Door2,0.296666667,-0.02,1,0,0,1.326,optionRight,40,70,1,1,0,1,0,1,,,,,,,,,,,,,,,,,,,,,,,,,,,,,,,,,,,,,,,
,,,,,,,,2023-08-16_08h38.53.918,HF_wild_card,2022.2.4,Win32,61.65228113,63874f631a1cdae0188d4e7a,64d2fd46c836a06233681665,64dc7d0179bf61fd774411ad,,,,,,,sngl,resources/DR.BMP,resources/Empty.png,Door2,-0.283333333,-0.022222222,1,0,0,1.16,optionLeft,40,110,1,2,0,2,0,1,,,,,,,,,,,,,,,,,,,,,,,,,,,,,,,,,,,,,,,
,,,,,,,,2023-08-16_08h38.53.918,HF_wild_card,2022.2.4,Win32,61.65228113,63874f631a1cdae0188d4e7a,64d2fd46c836a06233681665,64dc7d0179bf61fd774411ad,,,,,,,decisionTrl,resources/DR.BMP,resources/DBN.BMP,Door1,0.308888889,-0.022222222,1,0,0,1.309,optionRight,30,140,1,3,0,3,0,1,,,,,,,,,,,,,,,,,,,,,,,,,,,,,,,,,,,,,,,
,,,,,,,,2023-08-16_08h38.53.918,HF_wild_card,2022.2.4,Win32,61.65228113,63874f631a1cdae0188d4e7a,64d2fd46c836a06233681665,64dc7d0179bf61fd774411ad,,,,,,,decisionTrl,resources/DB.BMP,resources/DG.BMP,Door4,0.344444444,-0.023333333,1,0,0,1.111,optionRight,60,200,1,4,0,4,0,1,,,,,,,,,,,,,,,,,,,,,,,,,,,,,,,,,,,,,,,
,,,,,,,,2023-08-16_08h38.53.918,HF_wild_card,2022.2.4,Win32,61.65228113,63874f631a1cdae0188d4e7a,64d2fd46c836a06233681665,64dc7d0179bf61fd774411ad,,,,,,,ctch,resources/DG.BMP,resources/DBN.BMP,Door4,-0.214444444,-0.018888889,1,0,0,1.505,optionLeft,80,280,1,5,0,5,0,1,,,,,,,,,,,,,,,,,,,,,,,,,,,,,,,,,,,,,,,
,,,,,,,,2023-08-16_08h38.53.918,HF_wild_card,2022.2.4,Win32,61.65228113,63874f631a1cdae0188d4e7a,64d2fd46c836a06233681665,64dc7d0179bf61fd774411ad,,,,,,,ctch,resources/DBN.BMP,resources/DG.BMP,Door4,0.347777778,-0.018888889,1,0,0,1.026,optionRight,80,360,1,6,0,6,0,1,,,,,,,,,,,,,,,,,,,,,,,,,,,,,,,,,,,,,,,
,,,,,,,,2023-08-16_08h38.53.918,HF_wild_card,2022.2.4,Win32,61.65228113,63874f631a1cdae0188d4e7a,64d2fd46c836a06233681665,64dc7d0179bf61fd774411ad,,,,,,,sngl,resources/Empty.png,resources/DP.BMP,WildCard_Ex,0.32,-0.005555556,1,0,0,1.025,optionRight,95,455,1,7,0,7,0,1,,,,,,,,,,,,,,,,,,,,,,,,,,,,,,,,,,,,,,,
,,,,,,,,2023-08-16_08h38.53.918,HF_wild_card,2022.2.4,Win32,61.65228113,63874f631a1cdae0188d4e7a,64d2fd46c836a06233681665,64dc7d0179bf61fd774411ad,,,,,,,sngl,resources/Empty.png,resources/DP.BMP,WildCard_Ex,0.283333333,-0.013333333,1,0,0,0.794,optionRight,5,460,1,8,0,8,0,1,,,,,,,,,,,,,,,,,,,,,,,,,,,,,,,,,,,,,,,
,,,,,,,,2023-08-16_08h38.53.918,HF_wild_card,2022.2.4,Win32,61.65228113,63874f631a1cdae0188d4e7a,64d2fd46c836a06233681665,64dc7d0179bf61fd774411ad,,,,,,,sngl,resources/Empty.png,resources/DBN.BMP,Door1,0.323333333,-0.008888889,1,0,0,0.894,optionRight,30,490,1,9,0,9,0,1,,,,,,,,,,,,,,,,,,,,,,,,,,,,,,,,,,,,,,,
,,,,,,,,2023-08-16_08h38.53.918,HF_wild_card,2022.2.4,Win32,61.65228113,63874f631a1cdae0188d4e7a,64d2fd46c836a06233681665,64dc7d0179bf61fd774411ad,,,,,,,decisionTrl,resources/DP.BMP,resources/DR.BMP,Door2,0.278888889,-0.042222222,1,0,0,1.692,optionRight,20,510,1,10,0,10,0,1,,,,,,,,,,,,,,,,,,,,,,,,,,,,,,,,,,,,,,,
,,,,,,,,2023-08-16_08h38.53.918,HF_wild_card,2022.2.4,Win32,61.65228113,63874f631a1cdae0188d4e7a,64d2fd46c836a06233681665,64dc7d0179bf61fd774411ad,,,,,,,decisionTrl,resources/DG.BMP,resources/DP.BMP,WildCard_Ex,0.338888889,-0.025555556,1,0,0,0.694,optionRight,5,515,1,11,0,11,0,1,,,,,,,,,,,,,,,,,,,,,,,,,,,,,,,,,,,,,,,
,,,,,,,,2023-08-16_08h38.53.918,HF_wild_card,2022.2.4,Win32,61.65228113,63874f631a1cdae0188d4e7a,64d2fd46c836a06233681665,64dc7d0179bf61fd774411ad,,,,,,,sngl,resources/Empty.png,resources/DR.BMP,Door2,0.32,-0.01,1,0,0,1.028,optionRight,20,535,1,12,0,12,0,1,,,,,,,,,,,,,,,,,,,,,,,,,,,,,,,,,,,,,,,
,,,,,,,,2023-08-16_08h38.53.918,HF_wild_card,2022.2.4,Win32,61.65228113,63874f631a1cdae0188d4e7a,64d2fd46c836a06233681665,64dc7d0179bf61fd774411ad,,,,,,,decisionTrl,resources/DBN.BMP,resources/DR.BMP,Door1,-0.267777778,0.013333333,1,0,0,0.778,optionLeft,30,565,1,13,0,13,0,1,,,,,,,,,,,,,,,,,,,,,,,,,,,,,,,,,,,,,,,
,,,,,,,,2023-08-16_08h38.53.918,HF_wild_card,2022.2.4,Win32,61.65228113,63874f631a1cdae0188d4e7a,64d2fd46c836a06233681665,64dc7d0179bf61fd774411ad,,,,,,,decisionTrl,resources/DB.BMP,resources/DG.BMP,Door3,-0.297777778,0.012222222,1,0,0,1.578,optionLeft,70,635,1,14,0,14,0,1,,,,,,,,,,,,,,,,,,,,,,,,,,,,,,,,,,,,,,,
,,,,,,,,2023-08-16_08h38.53.918,HF_wild_card,2022.2.4,Win32,61.65228113,63874f631a1cdae0188d4e7a,64d2fd46c836a06233681665,64dc7d0179bf61fd774411ad,,,,,,,decisionTrl,resources/DR.BMP,resources/DP.BMP,WildCard_Ex,0.347777778,-0.02,1,0,0,1.095,optionRight,5,640,1,15,0,15,0,1,,,,,,,,,,,,,,,,,,,,,,,,,,,,,,,,,,,,,,,
,,,,,,,,2023-08-16_08h38.53.918,HF_wild_card,2022.2.4,Win32,61.65228113,63874f631a1cdae0188d4e7a,64d2fd46c836a06233681665,64dc7d0179bf61fd774411ad,,,,,,,sngl,resources/DG.BMP,resources/Empty.png,Door4,-0.302222222,0,1,0,0,1.024,optionLeft,80,720,1,16,0,16,0,1,,,,,,,,,,,,,,,,,,,,,,,,,,,,,,,,,,,,,,,
,,,,,,,,2023-08-16_08h38.53.918,HF_wild_card,2022.2.4,Win32,61.65228113,63874f631a1cdae0188d4e7a,64d2fd46c836a06233681665,64dc7d0179bf61fd774411ad,,,,,,,decisionTrl,resources/DP.BMP,resources/DG.BMP,WildCard_Ex,-0.295555556,0.001111111,1,0,0,0.993,optionLeft,95,815,1,17,0,17,0,1,,,,,,,,,,,,,,,,,,,,,,,,,,,,,,,,,,,,,,,
,,,,,,,,2023-08-16_08h38.53.918,HF_wild_card,2022.2.4,Win32,61.65228113,63874f631a1cdae0188d4e7a,64d2fd46c836a06233681665,64dc7d0179bf61fd774411ad,,,,,,,ctch,resources/DBN.BMP,resources/DG.BMP,Door4,0.317777778,-0.004444444,1,0,0,1.192,optionRight,60,875,1,18,0,18,0,1,,,,,,,,,,,,,,,,,,,,,,,,,,,,,,,,,,,,,,,
,,,,,,,,2023-08-16_08h38.53.918,HF_wild_card,2022.2.4,Win32,61.65228113,63874f631a1cdae0188d4e7a,64d2fd46c836a06233681665,64dc7d0179bf61fd774411ad,,,,,,,sngl,resources/DP.BMP,resources/Empty.png,WildCard_Ex,-0.246666667,-0.008888889,1,0,0,0.808,optionLeft,95,970,1,19,0,19,0,1,,,,,,,,,,,,,,,,,,,,,,,,,,,,,,,,,,,,,,,
,,,,,,,,2023-08-16_08h38.53.918,HF_wild_card,2022.2.4,Win32,61.65228113,63874f631a1cdae0188d4e7a,64d2fd46c836a06233681665,64dc7d0179bf61fd774411ad,,,,,,,decisionTrl,resources/DG.BMP,resources/DB.BMP,Door3,0.298888889,-0.02,1,0,0,1.127,optionRight,70,1040,1,20,0,20,0,1,,,,,,,,,,,,,,,,,,,,,,,,,,,,,,,,,,,,,,,
,,,,,,,,2023-08-16_08h38.53.918,HF_wild_card,2022.2.4,Win32,61.65228113,63874f631a1cdae0188d4e7a,64d2fd46c836a06233681665,64dc7d0179bf61fd774411ad,,,,,,,decisionTrl,resources/DR.BMP,resources/DBN.BMP,Door2,-0.26,-0.025555556,1,0,0,1.245,optionLeft,40,1080,1,21,0,21,0,1,,,,,,,,,,,,,,,,,,,,,,,,,,,,,,,,,,,,,,,
,,,,,,,,2023-08-16_08h38.53.918,HF_wild_card,2022.2.4,Win32,61.65228113,63874f631a1cdae0188d4e7a,64d2fd46c836a06233681665,64dc7d0179bf61fd774411ad,,,,,,,sngl,resources/DB.BMP,resources/Empty.png,Door3,-0.236666667,-0.02,1,0,0,0.861,optionLeft,70,1150,1,22,0,22,0,1,,,,,,,,,,,,,,,,,,,,,,,,,,,,,,,,,,,,,,,
,,,,,,,,2023-08-16_08h38.53.918,HF_wild_card,2022.2.4,Win32,61.65228113,63874f631a1cdae0188d4e7a,64d2fd46c836a06233681665,64dc7d0179bf61fd774411ad,,,,,,,decisionTrl,resources/DBN.BMP,resources/DR.BMP,Door2,0.313333333,-0.017777778,1,0,0,0.968,optionRight,20,1170,1,23,0,23,0,1,,,,,,,,,,,,,,,,,,,,,,,,,,,,,,,,,,,,,,,
,,,,,,,,2023-08-16_08h38.53.918,HF_wild_card,2022.2.4,Win32,61.65228113,63874f631a1cdae0188d4e7a,64d2fd46c836a06233681665,64dc7d0179bf61fd774411ad,,,,,,,decisionTrl,resources/DP.BMP,resources/DBN.BMP,WildCard_Ex,-0.285555556,-0.027777778,1,0,0,0.961,optionLeft,5,1175,1,24,0,24,0,1,,,,,,,,,,,,,,,,,,,,,,,,,,,,,,,,,,,,,,,
,,,,,,,,2023-08-16_08h38.53.918,HF_wild_card,2022.2.4,Win32,61.65228113,63874f631a1cdae0188d4e7a,64d2fd46c836a06233681665,64dc7d0179bf61fd774411ad,,,,,,,ctch,resources/DR.BMP,resources/DB.BMP,Door2,-0.283333333,-0.014444444,1,0,0,1.127,optionLeft,20,1195,1,25,0,25,0,1,,,,,,,,,,,,,,,,,,,,,,,,,,,,,,,,,,,,,,,
,,,,,,,,2023-08-16_08h38.53.918,HF_wild_card,2022.2.4,Win32,61.65228113,63874f631a1cdae0188d4e7a,64d2fd46c836a06233681665,64dc7d0179bf61fd774411ad,,,,,,,ctch,resources/DB.BMP,resources/DR.BMP,Door3,-0.261111111,-0.015555556,1,0,0,0.761,optionLeft,70,1265,1,26,0,26,0,1,,,,,,,,,,,,,,,,,,,,,,,,,,,,,,,,,,,,,,,
,,,,,,,,2023-08-16_08h38.53.918,HF_wild_card,2022.2.4,Win32,61.65228113,63874f631a1cdae0188d4e7a,64d2fd46c836a06233681665,64dc7d0179bf61fd774411ad,,,,,,,decisionTrl,resources/DG.BMP,resources/DB.BMP,Door3,0.247777778,-0.028888889,1,0,0,1.423,optionRight,70,1335,1,27,0,27,0,1,,,,,,,,,,,,,,,,,,,,,,,,,,,,,,,,,,,,,,,
,,,,,,,,2023-08-16_08h38.53.918,HF_wild_card,2022.2.4,Win32,61.65228113,63874f631a1cdae0188d4e7a,64d2fd46c836a06233681665,64dc7d0179bf61fd774411ad,,,,,,,decisionTrl,resources/DP.BMP,resources/DB.BMP,WildCard_Ex,-0.291111111,-0.028888889,1,0,0,1.21,optionLeft,95,1430,1,28,0,28,0,1,,,,,,,,,,,,,,,,,,,,,,,,,,,,,,,,,,,,,,,
,,,,,,,,2023-08-16_08h38.53.918,HF_wild_card,2022.2.4,Win32,61.65228113,63874f631a1cdae0188d4e7a,64d2fd46c836a06233681665,64dc7d0179bf61fd774411ad,,,,,,,decisionTrl,resources/DBN.BMP,resources/DR.BMP,Door1,-0.306666667,-0.025555556,1,0,0,1.54,optionLeft,30,1460,1,29,0,29,0,1,,,,,,,,,,,,,,,,,,,,,,,,,,,,,,,,,,,,,,,
,,,,,,,,2023-08-16_08h38.53.918,HF_wild_card,2022.2.4,Win32,61.65228113,63874f631a1cdae0188d4e7a,64d2fd46c836a06233681665,64dc7d0179bf61fd774411ad,,,,,,,decisionTrl,resources/DR.BMP,resources/DBN.BMP,Door1,0.338888889,-0.002222222,1,0,0,1.425,optionRight,30,1490,1,30,0,30,0,1,,,,,,,,,,,,,,,,,,,,,,,,,,,,,,,,,,,,,,,
,,,,,,,,2023-08-16_08h38.53.918,HF_wild_card,2022.2.4,Win32,61.65228113,63874f631a1cdae0188d4e7a,64d2fd46c836a06233681665,64dc7d0179bf61fd774411ad,,,,,,,decisionTrl,resources/DG.BMP,resources/DB.BMP,Door4,-0.27,-0.043333333,1,0,0,2.479,optionLeft,60,1550,1,31,0,31,0,1,,,,,,,,,,,,,,,,,,,,,,,,,,,,,,,,,,,,,,,
,,,,,,,,2023-08-16_08h38.53.918,HF_wild_card,2022.2.4,Win32,61.65228113,63874f631a1cdae0188d4e7a,64d2fd46c836a06233681665,64dc7d0179bf61fd774411ad,,,,,,,sngl,resources/DP.BMP,resources/Empty.png,WildCard_Ex,-0.273333333,-0.023333333,1,0,0,1.293,optionLeft,5,1555,1,32,0,32,0,1,,,,,,,,,,,,,,,,,,,,,,,,,,,,,,,,,,,,,,,
,,,,,,,,2023-08-16_08h38.53.918,HF_wild_card,2022.2.4,Win32,61.65228113,63874f631a1cdae0188d4e7a,64d2fd46c836a06233681665,64dc7d0179bf61fd774411ad,,,,,,,decisionTrl,resources/DBN.BMP,resources/DP.BMP,WildCard_Ex,0.32,-0.033333333,1,0,0,1.693,optionRight,5,1560,1,33,0,33,0,1,,,,,,,,,,,,,,,,,,,,,,,,,,,,,,,,,,,,,,,
,,,,,,,,2023-08-16_08h38.53.918,HF_wild_card,2022.2.4,Win32,61.65228113,63874f631a1cdae0188d4e7a,64d2fd46c836a06233681665,64dc7d0179bf61fd774411ad,,,,,,,ctch,resources/DG.BMP,resources/DBN.BMP,Door1,0.411111111,0.013333333,1,0,0,1.194,optionRight,30,1590,1,34,0,34,0,1,,,,,,,,,,,,,,,,,,,,,,,,,,,,,,,,,,,,,,,
,,,,,,,,2023-08-16_08h38.53.918,HF_wild_card,2022.2.4,Win32,61.65228113,63874f631a1cdae0188d4e7a,64d2fd46c836a06233681665,64dc7d0179bf61fd774411ad,,,,,,,decisionTrl,resources/DBN.BMP,resources/DR.BMP,Door2,0.301111111,-0.018888889,1,0,0,1.177,optionRight,20,1610,1,35,0,35,0,1,,,,,,,,,,,,,,,,,,,,,,,,,,,,,,,,,,,,,,,
,,,,,,,,2023-08-16_08h38.53.918,HF_wild_card,2022.2.4,Win32,61.65228113,63874f631a1cdae0188d4e7a,64d2fd46c836a06233681665,64dc7d0179bf61fd774411ad,,,,,,,decisionTrl,resources/DR.BMP,resources/DBN.BMP,Door2,-0.283333333,-0.042222222,1,0,0,1.161,optionLeft,40,1650,1,36,0,36,0,1,,,,,,,,,,,,,,,,,,,,,,,,,,,,,,,,,,,,,,,
,,,,,,,,2023-08-16_08h38.53.918,HF_wild_card,2022.2.4,Win32,61.65228113,63874f631a1cdae0188d4e7a,64d2fd46c836a06233681665,64dc7d0179bf61fd774411ad,,,,,,,decisionTrl,resources/DG.BMP,resources/DB.BMP,Door3,0.311111111,-0.025555556,1,0,0,1.56,optionRight,70,1720,1,37,0,37,0,1,,,,,,,,,,,,,,,,,,,,,,,,,,,,,,,,,,,,,,,
,,,,,,,,2023-08-16_08h38.53.918,HF_wild_card,2022.2.4,Win32,61.65228113,63874f631a1cdae0188d4e7a,64d2fd46c836a06233681665,64dc7d0179bf61fd774411ad,,,,,,,decisionTrl,resources/DB.BMP,resources/DP.BMP,WildCard_Ex,0.364444444,-0.02,1,0,0,1.408,optionRight,5,1725,1,38,0,38,0,1,,,,,,,,,,,,,,,,,,,,,,,,,,,,,,,,,,,,,,,
,,,,,,,,2023-08-16_08h38.53.918,HF_wild_card,2022.2.4,Win32,61.65228113,63874f631a1cdae0188d4e7a,64d2fd46c836a06233681665,64dc7d0179bf61fd774411ad,,,,,,,sngl,resources/Empty.png,resources/DB.BMP,Door3,0.328888889,-0.008888889,1,0,0,1.241,optionRight,70,1795,1,39,0,39,0,1,,,,,,,,,,,,,,,,,,,,,,,,,,,,,,,,,,,,,,,
,,,,,,,,2023-08-16_08h38.53.918,HF_wild_card,2022.2.4,Win32,61.65228113,63874f631a1cdae0188d4e7a,64d2fd46c836a06233681665,64dc7d0179bf61fd774411ad,,,,,,,sngl,resources/Empty.png,resources/DG.BMP,Door4,0.34,-0.012222222,1,0,0,2.591,optionRight,60,1855,1,40,0,40,0,1,,,,,,,,,,,,,,,,,,,,,,,,,,,,,,,,,,,,,,,
,,,,,,,,2023-08-16_08h38.53.918,HF_wild_card,2022.2.4,Win32,61.65228113,63874f631a1cdae0188d4e7a,64d2fd46c836a06233681665,64dc7d0179bf61fd774411ad,,,,,,,ctch,resources/DR.BMP,resources/DB.BMP,Door2,-0.334444444,-0.008888889,1,0,0,1.228,optionLeft,20,1875,1,41,0,41,0,1,,,,,,,,,,,,,,,,,,,,,,,,,,,,,,,,,,,,,,,
,,,,,,,,2023-08-16_08h38.53.918,HF_wild_card,2022.2.4,Win32,61.65228113,63874f631a1cdae0188d4e7a,64d2fd46c836a06233681665,64dc7d0179bf61fd774411ad,,,,,,,decisionTrl,resources/DB.BMP,resources/DG.BMP,Door4,0.398888889,-0.005555556,1,0,0,2.49,optionRight,80,1955,1,42,0,42,0,1,,,,,,,,,,,,,,,,,,,,,,,,,,,,,,,,,,,,,,,
,,,,,,,,2023-08-16_08h38.53.918,HF_wild_card,2022.2.4,Win32,61.65228113,63874f631a1cdae0188d4e7a,64d2fd46c836a06233681665,64dc7d0179bf61fd774411ad,,,,,,,decisionTrl,resources/DB.BMP,resources/DG.BMP,Door3,-0.3,0.005555556,1,0,0,1.944,optionLeft,70,2025,1,43,0,43,0,1,,,,,,,,,,,,,,,,,,,,,,,,,,,,,,,,,,,,,,,
,,,,,,,,2023-08-16_08h38.53.918,HF_wild_card,2022.2.4,Win32,61.65228113,63874f631a1cdae0188d4e7a,64d2fd46c836a06233681665,64dc7d0179bf61fd774411ad,,,,,,,,,,,,,,,,,,,,,,,,,,0,0,0,0,1,,,,,,,,,,,,,,,,,,,,,,,,,,,,,,,,,,
,,,,,,,,2023-08-16_08h38.53.918,HF_wild_card,2022.2.4,Win32,61.65228113,63874f631a1cdae0188d4e7a,64d2fd46c836a06233681665,64dc7d0179bf61fd774411ad,,,,,,,decisionTrl,resources/DR.BMP,resources/DBN.BMP,Door1,0.375555556,-0.038888889,1,0,0,1.537,optionRight,30,2055,2,0,0,0,0,1,,,,,,,,,,,,,,,,,,,,,,,,,,,,,,,,,,,,,,,
,,,,,,,,2023-08-16_08h38.53.918,HF_wild_card,2022.2.4,Win32,61.65228113,63874f631a1cdae0188d4e7a,64d2fd46c836a06233681665,64dc7d0179bf61fd774411ad,,,,,,,sngl,resources/Empty.png,resources/DG.BMP,Door4,0.302222222,0.01,1,0,0,1.259,optionRight,80,2135,2,1,0,1,0,1,,,,,,,,,,,,,,,,,,,,,,,,,,,,,,,,,,,,,,,
,,,,,,,,2023-08-16_08h38.53.918,HF_wild_card,2022.2.4,Win32,61.65228113,63874f631a1cdae0188d4e7a,64d2fd46c836a06233681665,64dc7d0179bf61fd774411ad,,,,,,,decisionTrl,resources/DR.BMP,resources/DBN.BMP,Door2,-0.391111111,-0.01,1,0,0,1.326,optionLeft,40,2175,2,2,0,2,0,1,,,,,,,,,,,,,,,,,,,,,,,,,,,,,,,,,,,,,,,
,,,,,,,,2023-08-16_08h38.53.918,HF_wild_card,2022.2.4,Win32,61.65228113,63874f631a1cdae0188d4e7a,64d2fd46c836a06233681665,64dc7d0179bf61fd774411ad,,,,,,,decisionTrl,resources/DG.BMP,resources/DB.BMP,Door3,0.246666667,0.035555556,1,0,0,1.745,optionRight,70,2245,2,3,0,3,0,1,,,,,,,,,,,,,,,,,,,,,,,,,,,,,,,,,,,,,,,
,,,,,,,,2023-08-16_08h38.53.918,HF_wild_card,2022.2.4,Win32,61.65228113,63874f631a1cdae0188d4e7a,64d2fd46c836a06233681665,64dc7d0179bf61fd774411ad,,,,,,,sngl,resources/DBN.BMP,resources/Empty.png,Door1,-0.328888889,-0.002222222,1,0,0,1.726,optionLeft,30,2275,2,4,0,4,0,1,,,,,,,,,,,,,,,,,,,,,,,,,,,,,,,,,,,,,,,
,,,,,,,,2023-08-16_08h38.53.918,HF_wild_card,2022.2.4,Win32,61.65228113,63874f631a1cdae0188d4e7a,64d2fd46c836a06233681665,64dc7d0179bf61fd774411ad,,,,,,,ctch,resources/DBN.BMP,resources/DG.BMP,Door4,0.305555556,0.052222222,1,0,0,1.71,optionRight,60,2335,2,5,0,5,0,1,,,,,,,,,,,,,,,,,,,,,,,,,,,,,,,,,,,,,,,
,,,,,,,,2023-08-16_08h38.53.918,HF_wild_card,2022.2.4,Win32,61.65228113,63874f631a1cdae0188d4e7a,64d2fd46c836a06233681665,64dc7d0179bf61fd774411ad,,,,,,,decisionTrl,resources/DB.BMP,resources/DP.BMP,WildCard_Ex,0.317777778,0.017777778,1,0,0,1.344,optionRight,95,2430,2,6,0,6,0,1,,,,,,,,,,,,,,,,,,,,,,,,,,,,,,,,,,,,,,,
,,,,,,,,2023-08-16_08h38.53.918,HF_wild_card,2022.2.4,Win32,61.65228113,63874f631a1cdae0188d4e7a,64d2fd46c836a06233681665,64dc7d0179bf61fd774411ad,,,,,,,sngl,resources/DB.BMP,resources/Empty.png,Door3,-0.387777778,0.002222222,1,0,0,1.127,optionLeft,70,2500,2,7,0,7,0,1,,,,,,,,,,,,,,,,,,,,,,,,,,,,,,,,,,,,,,,
,,,,,,,,2023-08-16_08h38.53.918,HF_wild_card,2022.2.4,Win32,61.65228113,63874f631a1cdae0188d4e7a,64d2fd46c836a06233681665,64dc7d0179bf61fd774411ad,,,,,,,sngl,resources/Empty.png,resources/DB.BMP,Door3,0.251111111,0.024444444,1,0,0,1.439,optionRight,70,2570,2,8,0,8,0,1,,,,,,,,,,,,,,,,,,,,,,,,,,,,,,,,,,,,,,,
,,,,,,,,2023-08-16_08h38.53.918,HF_wild_card,2022.2.4,Win32,61.65228113,63874f631a1cdae0188d4e7a,64d2fd46c836a06233681665,64dc7d0179bf61fd774411ad,,,,,,,ctch,resources/DG.BMP,resources/DBN.BMP,Door1,0.312222222,0.047777778,1,0,0,1.541,optionRight,30,2600,2,9,0,9,0,1,,,,,,,,,,,,,,,,,,,,,,,,,,,,,,,,,,,,,,,
,,,,,,,,2023-08-16_08h38.53.918,HF_wild_card,2022.2.4,Win32,61.65228113,63874f631a1cdae0188d4e7a,64d2fd46c836a06233681665,64dc7d0179bf61fd774411ad,,,,,,,decisionTrl,resources/DBN.BMP,resources/DR.BMP,Door2,0.308888889,0.011111111,1,0,0,2.625,optionRight,40,2640,2,10,0,10,0,1,,,,,,,,,,,,,,,,,,,,,,,,,,,,,,,,,,,,,,,
,,,,,,,,2023-08-16_08h38.53.918,HF_wild_card,2022.2.4,Win32,61.65228113,63874f631a1cdae0188d4e7a,64d2fd46c836a06233681665,64dc7d0179bf61fd774411ad,,,,,,,decisionTrl,resources/DG.BMP,resources/DP.BMP,WildCard_Ex,0.312222222,0.002222222,1,0,0,1.527,optionRight,95,2735,2,11,0,11,0,1,,,,,,,,,,,,,,,,,,,,,,,,,,,,,,,,,,,,,,,
,,,,,,,,2023-08-16_08h38.53.918,HF_wild_card,2022.2.4,Win32,61.65228113,63874f631a1cdae0188d4e7a,64d2fd46c836a06233681665,64dc7d0179bf61fd774411ad,,,,,,,sngl,resources/Empty.png,resources/DP.BMP,WildCard_Ex,0.306666667,-0.006666667,1,0,0,1.444,optionRight,95,2830,2,12,0,12,0,1,,,,,,,,,,,,,,,,,,,,,,,,,,,,,,,,,,,,,,,
,,,,,,,,2023-08-16_08h38.53.918,HF_wild_card,2022.2.4,Win32,61.65228113,63874f631a1cdae0188d4e7a,64d2fd46c836a06233681665,64dc7d0179bf61fd774411ad,,,,,,,sngl,resources/DG.BMP,resources/Empty.png,Door4,-0.351111111,-0.051111111,1,0,0,1.176,optionLeft,60,2890,2,13,0,13,0,1,,,,,,,,,,,,,,,,,,,,,,,,,,,,,,,,,,,,,,,
,,,,,,,,2023-08-16_08h38.53.918,HF_wild_card,2022.2.4,Win32,61.65228113,63874f631a1cdae0188d4e7a,64d2fd46c836a06233681665,64dc7d0179bf61fd774411ad,,,,,,,decisionTrl,resources/DP.BMP,resources/DG.BMP,Door4,0.263333333,0.007777778,1,0,0,1.742,optionRight,80,2970,2,14,0,14,0,1,,,,,,,,,,,,,,,,,,,,,,,,,,,,,,,,,,,,,,,
,,,,,,,,2023-08-16_08h38.53.918,HF_wild_card,2022.2.4,Win32,61.65228113,63874f631a1cdae0188d4e7a,64d2fd46c836a06233681665,64dc7d0179bf61fd774411ad,,,,,,,ctch,resources/DR.BMP,resources/DB.BMP,Door3,0.344444444,0.002222222,1,0,0,1.743,optionRight,70,3040,2,15,0,15,0,1,,,,,,,,,,,,,,,,,,,,,,,,,,,,,,,,,,,,,,,
,,,,,,,,2023-08-16_08h38.53.918,HF_wild_card,2022.2.4,Win32,61.65228113,63874f631a1cdae0188d4e7a,64d2fd46c836a06233681665,64dc7d0179bf61fd774411ad,,,,,,,decisionTrl,resources/DBN.BMP,resources/DR.BMP,Door1,-0.322222222,-0.004444444,1,0,0,1.524,optionLeft,30,3070,2,16,0,16,0,1,,,,,,,,,,,,,,,,,,,,,,,,,,,,,,,,,,,,,,,
,,,,,,,,2023-08-16_08h38.53.918,HF_wild_card,2022.2.4,Win32,61.65228113,63874f631a1cdae0188d4e7a,64d2fd46c836a06233681665,64dc7d0179bf61fd774411ad,,,,,,,decisionTrl,resources/DB.BMP,resources/DG.BMP,Door4,0.353333333,0.046666667,1,0,0,1.892,optionRight,80,3150,2,17,0,17,0,1,,,,,,,,,,,,,,,,,,,,,,,,,,,,,,,,,,,,,,,
,,,,,,,,2023-08-16_08h38.53.918,HF_wild_card,2022.2.4,Win32,61.65228113,63874f631a1cdae0188d4e7a,64d2fd46c836a06233681665,64dc7d0179bf61fd774411ad,,,,,,,decisionTrl,resources/DG.BMP,resources/DB.BMP,Door3,0.322222222,0,1,0,0,1.754,optionRight,70,3220,2,18,0,18,0,1,,,,,,,,,,,,,,,,,,,,,,,,,,,,,,,,,,,,,,,
,,,,,,,,2023-08-16_08h38.53.918,HF_wild_card,2022.2.4,Win32,61.65228113,63874f631a1cdae0188d4e7a,64d2fd46c836a06233681665,64dc7d0179bf61fd774411ad,,,,,,,decisionTrl,resources/DR.BMP,resources/DBN.BMP,Door2,-0.334444444,-0.014444444,1,0,0,1.708,optionLeft,20,3240,2,19,0,19,0,1,,,,,,,,,,,,,,,,,,,,,,,,,,,,,,,,,,,,,,,
,,,,,,,,2023-08-16_08h38.53.918,HF_wild_card,2022.2.4,Win32,61.65228113,63874f631a1cdae0188d4e7a,64d2fd46c836a06233681665,64dc7d0179bf61fd774411ad,,,,,,,decisionTrl,resources/DR.BMP,resources/DBN.BMP,Door1,0.302222222,0.036666667,1,0,0,1.794,optionRight,30,3270,2,20,0,20,0,1,,,,,,,,,,,,,,,,,,,,,,,,,,,,,,,,,,,,,,,
,,,,,,,,2023-08-16_08h38.53.918,HF_wild_card,2022.2.4,Win32,61.65228113,63874f631a1cdae0188d4e7a,64d2fd46c836a06233681665,64dc7d0179bf61fd774411ad,,,,,,,decisionTrl,resources/DBN.BMP,resources/DP.BMP,Door1,-0.354444444,0.037777778,1,0,0,1.792,optionLeft,30,3300,2,21,0,21,0,1,,,,,,,,,,,,,,,,,,,,,,,,,,,,,,,,,,,,,,,
,,,,,,,,2023-08-16_08h38.53.918,HF_wild_card,2022.2.4,Win32,61.65228113,63874f631a1cdae0188d4e7a,64d2fd46c836a06233681665,64dc7d0179bf61fd774411ad,,,,,,,sngl,resources/DR.BMP,resources/Empty.png,Door2,-0.403333333,0.003333333,1,0,0,1.21,optionLeft,20,3320,2,22,0,22,0,1,,,,,,,,,,,,,,,,,,,,,,,,,,,,,,,,,,,,,,,
,,,,,,,,2023-08-16_08h38.53.918,HF_wild_card,2022.2.4,Win32,61.65228113,63874f631a1cdae0188d4e7a,64d2fd46c836a06233681665,64dc7d0179bf61fd774411ad,,,,,,,sngl,resources/DP.BMP,resources/Empty.png,WildCard_Ex,-0.351111111,-0.011111111,1,0,0,1.212,optionLeft,5,3325,2,23,0,23,0,1,,,,,,,,,,,,,,,,,,,,,,,,,,,,,,,,,,,,,,,
,,,,,,,,2023-08-16_08h38.53.918,HF_wild_card,2022.2.4,Win32,61.65228113,63874f631a1cdae0188d4e7a,64d2fd46c836a06233681665,64dc7d0179bf61fd774411ad,,,,,,,decisionTrl,resources/DB.BMP,resources/DG.BMP,Door4,0.323333333,0.054444444,1,0,0,1.443,optionRight,60,3385,2,24,0,24,0,1,,,,,,,,,,,,,,,,,,,,,,,,,,,,,,,,,,,,,,,
,,,,,,,,2023-08-16_08h38.53.918,HF_wild_card,2022.2.4,Win32,61.65228113,63874f631a1cdae0188d4e7a,64d2fd46c836a06233681665,64dc7d0179bf61fd774411ad,,,,,,,sngl,resources/Empty.png,resources/DR.BMP,Door2,0.302222222,-0.002222222,1,0,0,1.478,optionRight,40,3425,2,25,0,25,0,1,,,,,,,,,,,,,,,,,,,,,,,,,,,,,,,,,,,,,,,
,,,,,,,,2023-08-16_08h38.53.918,HF_wild_card,2022.2.4,Win32,61.65228113,63874f631a1cdae0188d4e7a,64d2fd46c836a06233681665,64dc7d0179bf61fd774411ad,,,,,,,ctch,resources/DB.BMP,resources/DR.BMP,Door3,-0.346666667,0.008888889,1,0,0,1.561,optionLeft,70,3495,2,26,0,26,0,1,,,,,,,,,,,,,,,,,,,,,,,,,,,,,,,,,,,,,,,
,,,,,,,,2023-08-16_08h38.53.918,HF_wild_card,2022.2.4,Win32,61.65228113,63874f631a1cdae0188d4e7a,64d2fd46c836a06233681665,64dc7d0179bf61fd774411ad,,,,,,,sngl,resources/DP.BMP,resources/Empty.png,WildCard_Ex,-0.41,-0.031111111,1,0,0,1.227,optionLeft,95,3590,2,27,0,27,0,1,,,,,,,,,,,,,,,,,,,,,,,,,,,,,,,,,,,,,,,
,,,,,,,,2023-08-16_08h38.53.918,HF_wild_card,2022.2.4,Win32,61.65228113,63874f631a1cdae0188d4e7a,64d2fd46c836a06233681665,64dc7d0179bf61fd774411ad,,,,,,,decisionTrl,resources/DB.BMP,resources/DG.BMP,Door4,0.314444444,0.042222222,1,0,0,1.52,optionRight,60,3650,2,28,0,28,0,1,,,,,,,,,,,,,,,,,,,,,,,,,,,,,,,,,,,,,,,
,,,,,,,,2023-08-16_08h38.53.918,HF_wild_card,2022.2.4,Win32,61.65228113,63874f631a1cdae0188d4e7a,64d2fd46c836a06233681665,64dc7d0179bf61fd774411ad,,,,,,,ctch,resources/DBN.BMP,resources/DG.BMP,Door4,0.324444444,0.034444444,1,0,0,1.525,optionRight,60,3710,2,29,0,29,0,1,,,,,,,,,,,,,,,,,,,,,,,,,,,,,,,,,,,,,,,
,,,,,,,,2023-08-16_08h38.53.918,HF_wild_card,2022.2.4,Win32,61.65228113,63874f631a1cdae0188d4e7a,64d2fd46c836a06233681665,64dc7d0179bf61fd774411ad,,,,,,,ctch,resources/DR.BMP,resources/DB.BMP,Door3,0.304444444,0.036666667,1,0,0,2.192,optionRight,70,3780,2,30,0,30,0,1,,,,,,,,,,,,,,,,,,,,,,,,,,,,,,,,,,,,,,,
,,,,,,,,2023-08-16_08h38.53.918,HF_wild_card,2022.2.4,Win32,61.65228113,63874f631a1cdae0188d4e7a,64d2fd46c836a06233681665,64dc7d0179bf61fd774411ad,,,,,,,sngl,resources/Empty.png,resources/DP.BMP,WildCard_Ex,0.297777778,0.018888889,1,0,0,1.492,optionRight,5,3785,2,31,0,31,0,1,,,,,,,,,,,,,,,,,,,,,,,,,,,,,,,,,,,,,,,
,,,,,,,,2023-08-16_08h38.53.918,HF_wild_card,2022.2.4,Win32,61.65228113,63874f631a1cdae0188d4e7a,64d2fd46c836a06233681665,64dc7d0179bf61fd774411ad,,,,,,,decisionTrl,resources/DG.BMP,resources/DB.BMP,Door4,-0.38,-0.032222222,1,0,0,1.226,optionLeft,80,3865,2,32,0,32,0,1,,,,,,,,,,,,,,,,,,,,,,,,,,,,,,,,,,,,,,,
,,,,,,,,2023-08-16_08h38.53.918,HF_wild_card,2022.2.4,Win32,61.65228113,63874f631a1cdae0188d4e7a,64d2fd46c836a06233681665,64dc7d0179bf61fd774411ad,,,,,,,decisionTrl,resources/DG.BMP,resources/DB.BMP,Door4,-0.273333333,-0.015555556,1,0,0,2.095,optionLeft,60,3925,2,33,0,33,0,1,,,,,,,,,,,,,,,,,,,,,,,,,,,,,,,,,,,,,,,
,,,,,,,,2023-08-16_08h38.53.918,HF_wild_card,2022.2.4,Win32,61.65228113,63874f631a1cdae0188d4e7a,64d2fd46c836a06233681665,64dc7d0179bf61fd774411ad,,,,,,,decisionTrl,resources/DP.BMP,resources/DBN.BMP,Door1,0.305555556,0.007777778,1,0,0,2.342,optionRight,30,3955,2,34,0,34,0,1,,,,,,,,,,,,,,,,,,,,,,,,,,,,,,,,,,,,,,,
,,,,,,,,2023-08-16_08h38.53.918,HF_wild_card,2022.2.4,Win32,61.65228113,63874f631a1cdae0188d4e7a,64d2fd46c836a06233681665,64dc7d0179bf61fd774411ad,,,,,,,decisionTrl,resources/DBN.BMP,resources/DR.BMP,Door2,0.338888889,0,1,0,0,2.01,optionRight,20,3975,2,35,0,35,0,1,,,,,,,,,,,,,,,,,,,,,,,,,,,,,,,,,,,,,,,
,,,,,,,,2023-08-16_08h38.53.918,HF_wild_card,2022.2.4,Win32,61.65228113,63874f631a1cdae0188d4e7a,64d2fd46c836a06233681665,64dc7d0179bf61fd774411ad,,,,,,,sngl,resources/Empty.png,resources/DBN.BMP,Door1,0.308888889,0.03,1,0,0,2.919,optionRight,30,4005,2,36,0,36,0,1,,,,,,,,,,,,,,,,,,,,,,,,,,,,,,,,,,,,,,,
,,,,,,,,2023-08-16_08h38.53.918,HF_wild_card,2022.2.4,Win32,61.65228113,63874f631a1cdae0188d4e7a,64d2fd46c836a06233681665,64dc7d0179bf61fd774411ad,,,,,,,decisionTrl,resources/DBN.BMP,resources/DR.BMP,Door2,0.32,0.002222222,1,0,0,1.321,optionRight,20,4025,2,37,0,37,0,1,,,,,,,,,,,,,,,,,,,,,,,,,,,,,,,,,,,,,,,
,,,,,,,,2023-08-16_08h38.53.918,HF_wild_card,2022.2.4,Win32,61.65228113,63874f631a1cdae0188d4e7a,64d2fd46c836a06233681665,64dc7d0179bf61fd774411ad,,,,,,,decisionTrl,resources/DR.BMP,resources/DP.BMP,WildCard_Ex,0.313333333,0.004444444,1,0,0,3.586,optionRight,95,4120,2,38,0,38,0,1,,,,,,,,,,,,,,,,,,,,,,,,,,,,,,,,,,,,,,,
,,,,,,,,2023-08-16_08h38.53.918,HF_wild_card,2022.2.4,Win32,61.65228113,63874f631a1cdae0188d4e7a,64d2fd46c836a06233681665,64dc7d0179bf61fd774411ad,,,,,,,ctch,resources/DG.BMP,resources/DBN.BMP,Door4,-0.317777778,-0.015555556,1,0,0,1.473,optionLeft,60,4180,2,39,0,39,0,1,,,,,,,,,,,,,,,,,,,,,,,,,,,,,,,,,,,,,,,
,,,,,,,,2023-08-16_08h38.53.918,HF_wild_card,2022.2.4,Win32,61.65228113,63874f631a1cdae0188d4e7a,64d2fd46c836a06233681665,64dc7d0179bf61fd774411ad,,,,,,,decisionTrl,resources/DP.BMP,resources/DR.BMP,WildCard_Ex,-0.254444444,-0.026666667,1,0,0,1.959,optionLeft,5,4185,2,40,0,40,0,1,,,,,,,,,,,,,,,,,,,,,,,,,,,,,,,,,,,,,,,
,,,,,,,,2023-08-16_08h38.53.918,HF_wild_card,2022.2.4,Win32,61.65228113,63874f631a1cdae0188d4e7a,64d2fd46c836a06233681665,64dc7d0179bf61fd774411ad,,,,,,,ctch,resources/DB.BMP,resources/DR.BMP,Door2,0.266666667,0.002222222,1,0,0,1.808,optionRight,20,4205,2,41,0,41,0,1,,,,,,,,,,,,,,,,,,,,,,,,,,,,,,,,,,,,,,,
,,,,,,,,2023-08-16_08h38.53.918,HF_wild_card,2022.2.4,Win32,61.65228113,63874f631a1cdae0188d4e7a,64d2fd46c836a06233681665,64dc7d0179bf61fd774411ad,,,,,,,decisionTrl,resources/DB.BMP,resources/DG.BMP,Door3,-0.282222222,-0.02,1,0,0,2.311,optionLeft,70,4275,2,42,0,42,0,1,,,,,,,,,,,,,,,,,,,,,,,,,,,,,,,,,,,,,,,
,,,,,,,,2023-08-16_08h38.53.918,HF_wild_card,2022.2.4,Win32,61.65228113,63874f631a1cdae0188d4e7a,64d2fd46c836a06233681665,64dc7d0179bf61fd774411ad,,,,,,,decisionTrl,resources/DP.BMP,resources/DB.BMP,Door3,0.281111111,0.006666667,1,0,0,1.726,optionRight,70,4345,2,43,0,43,0,1,,,,,,,,,,,,,,,,,,,,,,,,,,,,,,,,,,,,,,,
,,,,,,,,2023-08-16_08h38.53.918,HF_wild_card,2022.2.4,Win32,61.65228113,63874f631a1cdae0188d4e7a,64d2fd46c836a06233681665,64dc7d0179bf61fd774411ad,,,,,,,,,,,,,,,,,,,,,,,,,,1,0,1,0,1,,,,,,,,,,,,,,,,,,,,,,,,,,,,,,,,,,
,,,,,,,,2023-08-16_08h38.53.918,HF_wild_card,2022.2.4,Win32,61.65228113,63874f631a1cdae0188d4e7a,64d2fd46c836a06233681665,64dc7d0179bf61fd774411ad,,,,,,,ctch,resources/DBN.BMP,resources/DG.BMP,Door4,0.37,-0.074444444,1,0,0,1.338,optionRight,80,4425,3,0,0,0,0,1,,,,,,,,,,,,,,,,,,,,,,,,,,,,,,,,,,,,,,,
,,,,,,,,2023-08-16_08h38.53.918,HF_wild_card,2022.2.4,Win32,61.65228113,63874f631a1cdae0188d4e7a,64d2fd46c836a06233681665,64dc7d0179bf61fd774411ad,,,,,,,decisionTrl,resources/DBN.BMP,resources/DR.BMP,Door2,0.347777778,-0.003333333,1,0,0,1.576,optionRight,40,4465,3,1,0,1,0,1,,,,,,,,,,,,,,,,,,,,,,,,,,,,,,,,,,,,,,,
,,,,,,,,2023-08-16_08h38.53.918,HF_wild_card,2022.2.4,Win32,61.65228113,63874f631a1cdae0188d4e7a,64d2fd46c836a06233681665,64dc7d0179bf61fd774411ad,,,,,,,decisionTrl,resources/DB.BMP,resources/DG.BMP,Door3,-0.374444444,-0.008888889,1,0,0,1.558,optionLeft,70,4535,3,2,0,2,0,1,,,,,,,,,,,,,,,,,,,,,,,,,,,,,,,,,,,,,,,
,,,,,,,,2023-08-16_08h38.53.918,HF_wild_card,2022.2.4,Win32,61.65228113,63874f631a1cdae0188d4e7a,64d2fd46c836a06233681665,64dc7d0179bf61fd774411ad,,,,,,,sngl,resources/Empty.png,resources/DG.BMP,Door4,0.382222222,0.017777778,1,0,0,1.31,optionRight,60,4595,3,3,0,3,0,1,,,,,,,,,,,,,,,,,,,,,,,,,,,,,,,,,,,,,,,
,,,,,,,,2023-08-16_08h38.53.918,HF_wild_card,2022.2.4,Win32,61.65228113,63874f631a1cdae0188d4e7a,64d2fd46c836a06233681665,64dc7d0179bf61fd774411ad,,,,,,,decisionTrl,resources/DP.BMP,resources/DR.BMP,WildCard_Ex,-0.356666667,-0.056666667,1,0,0,1.625,optionLeft,5,4600,3,4,0,4,0,1,,,,,,,,,,,,,,,,,,,,,,,,,,,,,,,,,,,,,,,
,,,,,,,,2023-08-16_08h38.53.918,HF_wild_card,2022.2.4,Win32,61.65228113,63874f631a1cdae0188d4e7a,64d2fd46c836a06233681665,64dc7d0179bf61fd774411ad,,,,,,,decisionTrl,resources/DBN.BMP,resources/DR.BMP,Door2,0.366666667,0.013333333,1,0,0,1.609,optionRight,40,4640,3,5,0,5,0,1,,,,,,,,,,,,,,,,,,,,,,,,,,,,,,,,,,,,,,,
,,,,,,,,2023-08-16_08h38.53.918,HF_wild_card,2022.2.4,Win32,61.65228113,63874f631a1cdae0188d4e7a,64d2fd46c836a06233681665,64dc7d0179bf61fd774411ad,,,,,,,decisionTrl,resources/DB.BMP,resources/DG.BMP,Door4,0.328888889,0.011111111,1,0,0,1.41,optionRight,60,4700,3,6,0,6,0,1,,,,,,,,,,,,,,,,,,,,,,,,,,,,,,,,,,,,,,,
,,,,,,,,2023-08-16_08h38.53.918,HF_wild_card,2022.2.4,Win32,61.65228113,63874f631a1cdae0188d4e7a,64d2fd46c836a06233681665,64dc7d0179bf61fd774411ad,,,,,,,sngl,resources/Empty.png,resources/DR.BMP,Door2,0.292222222,-0.022222222,1,0,0,2.642,optionRight,20,4720,3,7,0,7,0,1,,,,,,,,,,,,,,,,,,,,,,,,,,,,,,,,,,,,,,,
,,,,,,,,2023-08-16_08h38.53.918,HF_wild_card,2022.2.4,Win32,61.65228113,63874f631a1cdae0188d4e7a,64d2fd46c836a06233681665,64dc7d0179bf61fd774411ad,,,,,,,decisionTrl,resources/DB.BMP,resources/DP.BMP,WildCard_Ex,0.371111111,-0.004444444,1,0,0,2.077,optionRight,95,4815,3,8,0,8,0,1,,,,,,,,,,,,,,,,,,,,,,,,,,,,,,,,,,,,,,,
,,,,,,,,2023-08-16_08h38.53.918,HF_wild_card,2022.2.4,Win32,61.65228113,63874f631a1cdae0188d4e7a,64d2fd46c836a06233681665,64dc7d0179bf61fd774411ad,,,,,,,sngl,resources/DBN.BMP,resources/Empty.png,Door1,-0.28,-0.036666667,1,0,0,1.471,optionLeft,30,4845,3,9,0,9,0,1,,,,,,,,,,,,,,,,,,,,,,,,,,,,,,,,,,,,,,,
,,,,,,,,2023-08-16_08h38.53.918,HF_wild_card,2022.2.4,Win32,61.65228113,63874f631a1cdae0188d4e7a,64d2fd46c836a06233681665,64dc7d0179bf61fd774411ad,,,,,,,ctch,resources/DB.BMP,resources/DR.BMP,Door3,-0.27,-0.031111111,1,0,0,2.879,optionLeft,70,4915,3,10,0,10,0,1,,,,,,,,,,,,,,,,,,,,,,,,,,,,,,,,,,,,,,,
,,,,,,,,2023-08-16_08h38.53.918,HF_wild_card,2022.2.4,Win32,61.65228113,63874f631a1cdae0188d4e7a,64d2fd46c836a06233681665,64dc7d0179bf61fd774411ad,,,,,,,decisionTrl,resources/DR.BMP,resources/DP.BMP,WildCard_Ex,0.304444444,-0.011111111,1,0,0,2.856,optionRight,95,5010,3,11,0,11,0,1,,,,,,,,,,,,,,,,,,,,,,,,,,,,,,,,,,,,,,,
,,,,,,,,2023-08-16_08h38.53.918,HF_wild_card,2022.2.4,Win32,61.65228113,63874f631a1cdae0188d4e7a,64d2fd46c836a06233681665,64dc7d0179bf61fd774411ad,,,,,,,decisionTrl,resources/DG.BMP,resources/DB.BMP,Door4,-0.305555556,-0.047777778,1,0,0,1.577,optionLeft,60,5070,3,12,0,12,0,1,,,,,,,,,,,,,,,,,,,,,,,,,,,,,,,,,,,,,,,
,,,,,,,,2023-08-16_08h38.53.918,HF_wild_card,2022.2.4,Win32,61.65228113,63874f631a1cdae0188d4e7a,64d2fd46c836a06233681665,64dc7d0179bf61fd774411ad,,,,,,,ctch,resources/DBN.BMP,resources/DG.BMP,Door4,0.383333333,0.004444444,1,0,0,1.46,optionRight,60,5130,3,13,0,13,0,1,,,,,,,,,,,,,,,,,,,,,,,,,,,,,,,,,,,,,,,
,,,,,,,,2023-08-16_08h38.53.918,HF_wild_card,2022.2.4,Win32,61.65228113,63874f631a1cdae0188d4e7a,64d2fd46c836a06233681665,64dc7d0179bf61fd774411ad,,,,,,,decisionTrl,resources/DBN.BMP,resources/DR.BMP,Door1,-0.286666667,0.005555556,1,0,0,2.559,optionLeft,30,5160,3,14,0,14,0,1,,,,,,,,,,,,,,,,,,,,,,,,,,,,,,,,,,,,,,,
,,,,,,,,2023-08-16_08h38.53.918,HF_wild_card,2022.2.4,Win32,61.65228113,63874f631a1cdae0188d4e7a,64d2fd46c836a06233681665,64dc7d0179bf61fd774411ad,,,,,,,decisionTrl,resources/DBN.BMP,resources/DR.BMP,Door2,0.332222222,0.008888889,1,0,0,1.312,optionRight,20,5180,3,15,0,15,0,1,,,,,,,,,,,,,,,,,,,,,,,,,,,,,,,,,,,,,,,
,,,,,,,,2023-08-16_08h38.53.918,HF_wild_card,2022.2.4,Win32,61.65228113,63874f631a1cdae0188d4e7a,64d2fd46c836a06233681665,64dc7d0179bf61fd774411ad,,,,,,,decisionTrl,resources/DG.BMP,resources/DP.BMP,Door4,-0.272222222,-0.024444444,1,0,0,1.809,optionLeft,80,5260,3,16,0,16,0,1,,,,,,,,,,,,,,,,,,,,,,,,,,,,,,,,,,,,,,,
,,,,,,,,2023-08-16_08h38.53.918,HF_wild_card,2022.2.4,Win32,61.65228113,63874f631a1cdae0188d4e7a,64d2fd46c836a06233681665,64dc7d0179bf61fd774411ad,,,,,,,decisionTrl,resources/DG.BMP,resources/DB.BMP,Door3,0.275555556,0.006666667,1,0,0,1.877,optionRight,70,5330,3,17,0,17,0,1,,,,,,,,,,,,,,,,,,,,,,,,,,,,,,,,,,,,,,,
,,,,,,,,2023-08-16_08h38.53.918,HF_wild_card,2022.2.4,Win32,61.65228113,63874f631a1cdae0188d4e7a,64d2fd46c836a06233681665,64dc7d0179bf61fd774411ad,,,,,,,sngl,resources/Empty.png,resources/DP.BMP,WildCard_Ex,0.211111111,-0.015555556,1,0,0,1.49,optionRight,5,5335,3,18,0,18,0,1,,,,,,,,,,,,,,,,,,,,,,,,,,,,,,,,,,,,,,,
,,,,,,,,2023-08-16_08h38.53.918,HF_wild_card,2022.2.4,Win32,61.65228113,63874f631a1cdae0188d4e7a,64d2fd46c836a06233681665,64dc7d0179bf61fd774411ad,,,,,,,decisionTrl,resources/DR.BMP,resources/DBN.BMP,Door2,-0.318888889,-0.056666667,1,0,0,2.106,optionLeft,20,5355,3,19,0,19,0,1,,,,,,,,,,,,,,,,,,,,,,,,,,,,,,,,,,,,,,,
,,,,,,,,2023-08-16_08h38.53.918,HF_wild_card,2022.2.4,Win32,61.65228113,63874f631a1cdae0188d4e7a,64d2fd46c836a06233681665,64dc7d0179bf61fd774411ad,,,,,,,decisionTrl,resources/DB.BMP,resources/DG.BMP,Door4,0.322222222,-0.022222222,1,0,0,2.275,optionRight,60,5415,3,20,0,20,0,1,,,,,,,,,,,,,,,,,,,,,,,,,,,,,,,,,,,,,,,
,,,,,,,,2023-08-16_08h38.53.918,HF_wild_card,2022.2.4,Win32,61.65228113,63874f631a1cdae0188d4e7a,64d2fd46c836a06233681665,64dc7d0179bf61fd774411ad,,,,,,,sngl,resources/DG.BMP,resources/Empty.png,Door4,-0.296666667,-0.03,1,0,0,1.191,optionLeft,80,5495,3,21,0,21,0,1,,,,,,,,,,,,,,,,,,,,,,,,,,,,,,,,,,,,,,,
,,,,,,,,2023-08-16_08h38.53.918,HF_wild_card,2022.2.4,Win32,61.65228113,63874f631a1cdae0188d4e7a,64d2fd46c836a06233681665,64dc7d0179bf61fd774411ad,,,,,,,decisionTrl,resources/DB.BMP,resources/DG.BMP,Door3,-0.303333333,-0.021111111,1,0,0,1.145,optionLeft,70,5565,3,22,0,22,0,1,,,,,,,,,,,,,,,,,,,,,,,,,,,,,,,,,,,,,,,
,,,,,,,,2023-08-16_08h38.53.918,HF_wild_card,2022.2.4,Win32,61.65228113,63874f631a1cdae0188d4e7a,64d2fd46c836a06233681665,64dc7d0179bf61fd774411ad,,,,,,,ctch,resources/DR.BMP,resources/DB.BMP,Door2,-0.342222222,-0.01,1,0,0,3.006,optionLeft,20,5585,3,23,0,23,0,1,,,,,,,,,,,,,,,,,,,,,,,,,,,,,,,,,,,,,,,
,,,,,,,,2023-08-16_08h38.53.918,HF_wild_card,2022.2.4,Win32,61.65228113,63874f631a1cdae0188d4e7a,64d2fd46c836a06233681665,64dc7d0179bf61fd774411ad,,,,,,,sngl,resources/DP.BMP,resources/Empty.png,WildCard_Ex,-0.286666667,-0.035555556,1,0,0,1.259,optionLeft,5,5590,3,24,0,24,0,1,,,,,,,,,,,,,,,,,,,,,,,,,,,,,,,,,,,,,,,
,,,,,,,,2023-08-16_08h38.53.918,HF_wild_card,2022.2.4,Win32,61.65228113,63874f631a1cdae0188d4e7a,64d2fd46c836a06233681665,64dc7d0179bf61fd774411ad,,,,,,,ctch,resources/DR.BMP,resources/DB.BMP,Door3,0.252222222,0.002222222,1,0,0,1.44,optionRight,70,5660,3,25,0,25,0,1,,,,,,,,,,,,,,,,,,,,,,,,,,,,,,,,,,,,,,,
,,,,,,,,2023-08-16_08h38.53.918,HF_wild_card,2022.2.4,Win32,61.65228113,63874f631a1cdae0188d4e7a,64d2fd46c836a06233681665,64dc7d0179bf61fd774411ad,,,,,,,decisionTrl,resources/DR.BMP,resources/DBN.BMP,Door1,0.296666667,0.007777778,1,0,0,1.761,optionRight,30,5690,3,26,0,26,0,1,,,,,,,,,,,,,,,,,,,,,,,,,,,,,,,,,,,,,,,
,,,,,,,,2023-08-16_08h38.53.918,HF_wild_card,2022.2.4,Win32,61.65228113,63874f631a1cdae0188d4e7a,64d2fd46c836a06233681665,64dc7d0179bf61fd774411ad,,,,,,,sngl,resources/Empty.png,resources/DBN.BMP,Door1,0.28,0.014444444,1,0,0,1.243,optionRight,30,5720,3,27,0,27,0,1,,,,,,,,,,,,,,,,,,,,,,,,,,,,,,,,,,,,,,,
,,,,,,,,2023-08-16_08h38.53.918,HF_wild_card,2022.2.4,Win32,61.65228113,63874f631a1cdae0188d4e7a,64d2fd46c836a06233681665,64dc7d0179bf61fd774411ad,,,,,,,sngl,resources/Empty.png,resources/DP.BMP,WildCard_Ex,0.33,-0.013333333,1,0,0,1.326,optionRight,95,5815,3,28,0,28,0,1,,,,,,,,,,,,,,,,,,,,,,,,,,,,,,,,,,,,,,,
,,,,,,,,2023-08-16_08h38.53.918,HF_wild_card,2022.2.4,Win32,61.65228113,63874f631a1cdae0188d4e7a,64d2fd46c836a06233681665,64dc7d0179bf61fd774411ad,,,,,,,decisionTrl,resources/DP.BMP,resources/DG.BMP,WildCard_Ex,-0.315555556,-0.032222222,1,0,0,2.122,optionLeft,95,5910,3,29,0,29,0,1,,,,,,,,,,,,,,,,,,,,,,,,,,,,,,,,,,,,,,,
,,,,,,,,2023-08-16_08h38.53.918,HF_wild_card,2022.2.4,Win32,61.65228113,63874f631a1cdae0188d4e7a,64d2fd46c836a06233681665,64dc7d0179bf61fd774411ad,,,,,,,ctch,resources/DG.BMP,resources/DBN.BMP,Door4,-0.41,-0.025555556,1,0,0,1.16,optionLeft,60,5970,3,30,0,30,0,1,,,,,,,,,,,,,,,,,,,,,,,,,,,,,,,,,,,,,,,
,,,,,,,,2023-08-16_08h38.53.918,HF_wild_card,2022.2.4,Win32,61.65228113,63874f631a1cdae0188d4e7a,64d2fd46c836a06233681665,64dc7d0179bf61fd774411ad,,,,,,,decisionTrl,resources/DR.BMP,resources/DBN.BMP,Door1,0.32,-0.008888889,1,0,0,1.643,optionRight,30,6000,3,31,0,31,0,1,,,,,,,,,,,,,,,,,,,,,,,,,,,,,,,,,,,,,,,
,,,,,,,,2023-08-16_08h38.53.918,HF_wild_card,2022.2.4,Win32,61.65228113,63874f631a1cdae0188d4e7a,64d2fd46c836a06233681665,64dc7d0179bf61fd774411ad,,,,,,,decisionTrl,resources/DG.BMP,resources/DB.BMP,Door3,0.322222222,-0.015555556,1,0,0,1.593,optionRight,70,6070,3,32,0,32,0,1,,,,,,,,,,,,,,,,,,,,,,,,,,,,,,,,,,,,,,,
,,,,,,,,2023-08-16_08h38.53.918,HF_wild_card,2022.2.4,Win32,61.65228113,63874f631a1cdae0188d4e7a,64d2fd46c836a06233681665,64dc7d0179bf61fd774411ad,,,,,,,decisionTrl,resources/DG.BMP,resources/DB.BMP,Door4,-0.288888889,-0.03,1,0,0,2.577,optionLeft,80,6150,3,33,0,33,0,1,,,,,,,,,,,,,,,,,,,,,,,,,,,,,,,,,,,,,,,
,,,,,,,,2023-08-16_08h38.53.918,HF_wild_card,2022.2.4,Win32,61.65228113,63874f631a1cdae0188d4e7a,64d2fd46c836a06233681665,64dc7d0179bf61fd774411ad,,,,,,,sngl,resources/DP.BMP,resources/Empty.png,WildCard_Ex,-0.348888889,-0.055555556,1,0,0,1.161,optionLeft,95,6245,3,34,0,34,0,1,,,,,,,,,,,,,,,,,,,,,,,,,,,,,,,,,,,,,,,
,,,,,,,,2023-08-16_08h38.53.918,HF_wild_card,2022.2.4,Win32,61.65228113,63874f631a1cdae0188d4e7a,64d2fd46c836a06233681665,64dc7d0179bf61fd774411ad,,,,,,,decisionTrl,resources/DBN.BMP,resources/DP.BMP,WildCard_Ex,0.378888889,-0.003333333,1,0,0,1.559,optionRight,5,6250,3,35,0,35,0,1,,,,,,,,,,,,,,,,,,,,,,,,,,,,,,,,,,,,,,,
,,,,,,,,2023-08-16_08h38.53.918,HF_wild_card,2022.2.4,Win32,61.65228113,63874f631a1cdae0188d4e7a,64d2fd46c836a06233681665,64dc7d0179bf61fd774411ad,,,,,,,decisionTrl,resources/DP.BMP,resources/DBN.BMP,WildCard_Ex,-0.368888889,-0.047777778,1,0,0,2.388,optionLeft,5,6255,3,36,0,36,0,1,,,,,,,,,,,,,,,,,,,,,,,,,,,,,,,,,,,,,,,
,,,,,,,,2023-08-16_08h38.53.918,HF_wild_card,2022.2.4,Win32,61.65228113,63874f631a1cdae0188d4e7a,64d2fd46c836a06233681665,64dc7d0179bf61fd774411ad,,,,,,,ctch,resources/DB.BMP,resources/DR.BMP,Door2,0.292222222,0,1,0,0,1.354,optionRight,20,6275,3,37,0,37,0,1,,,,,,,,,,,,,,,,,,,,,,,,,,,,,,,,,,,,,,,
,,,,,,,,2023-08-16_08h38.53.918,HF_wild_card,2022.2.4,Win32,61.65228113,63874f631a1cdae0188d4e7a,64d2fd46c836a06233681665,64dc7d0179bf61fd774411ad,,,,,,,decisionTrl,resources/DR.BMP,resources/DBN.BMP,Door1,0.324444444,0.005555556,1,0,0,2.088,optionRight,30,6305,3,38,0,38,0,1,,,,,,,,,,,,,,,,,,,,,,,,,,,,,,,,,,,,,,,
,,,,,,,,2023-08-16_08h38.53.918,HF_wild_card,2022.2.4,Win32,61.65228113,63874f631a1cdae0188d4e7a,64d2fd46c836a06233681665,64dc7d0179bf61fd774411ad,,,,,,,ctch,resources/DG.BMP,resources/DBN.BMP,Door4,-0.397777778,-0.053333333,1,0,0,2.007,optionLeft,80,6385,3,39,0,39,0,1,,,,,,,,,,,,,,,,,,,,,,,,,,,,,,,,,,,,,,,
,,,,,,,,2023-08-16_08h38.53.918,HF_wild_card,2022.2.4,Win32,61.65228113,63874f631a1cdae0188d4e7a,64d2fd46c836a06233681665,64dc7d0179bf61fd774411ad,,,,,,,sngl,resources/DB.BMP,resources/Empty.png,Door3,-0.301111111,-0.008888889,1,0,0,1.125,optionLeft,70,6455,3,40,0,40,0,1,,,,,,,,,,,,,,,,,,,,,,,,,,,,,,,,,,,,,,,
,,,,,,,,2023-08-16_08h38.53.918,HF_wild_card,2022.2.4,Win32,61.65228113,63874f631a1cdae0188d4e7a,64d2fd46c836a06233681665,64dc7d0179bf61fd774411ad,,,,,,,decisionTrl,resources/DP.BMP,resources/DB.BMP,WildCard_Ex,-0.357777778,-0.063333333,1,0,0,2.873,optionLeft,95,6550,3,41,0,41,0,1,,,,,,,,,,,,,,,,,,,,,,,,,,,,,,,,,,,,,,,
,,,,,,,,2023-08-16_08h38.53.918,HF_wild_card,2022.2.4,Win32,61.65228113,63874f631a1cdae0188d4e7a,64d2fd46c836a06233681665,64dc7d0179bf61fd774411ad,,,,,,,sngl,resources/DR.BMP,resources/Empty.png,Door2,-0.318888889,-0.024444444,1,0,0,1.342,optionLeft,40,6590,3,42,0,42,0,1,,,,,,,,,,,,,,,,,,,,,,,,,,,,,,,,,,,,,,,
,,,,,,,,2023-08-16_08h38.53.918,HF_wild_card,2022.2.4,Win32,61.65228113,63874f631a1cdae0188d4e7a,64d2fd46c836a06233681665,64dc7d0179bf61fd774411ad,,,,,,,sngl,resources/Empty.png,resources/DB.BMP,Door3,0.256666667,-0.027777778,1,0,0,2.792,optionRight,70,6660,3,43,0,43,0,1,,,,,,,,,,,,,,,,,,,,,,,,,,,,,,,,,,,,,,,
,,,,,,,,2023-08-16_08h38.53.918,HF_wild_card,2022.2.4,Win32,61.65228113,63874f631a1cdae0188d4e7a,64d2fd46c836a06233681665,64dc7d0179bf61fd774411ad,,,,,,,,,,,,,,,,,,,,,,,,,,2,0,2,0,1,,,,,,,,,,,,,,,,,,,,,,,,,,,,,,,,,,
,,,,,,,,2023-08-16_08h38.53.918,HF_wild_card,2022.2.4,Win32,61.65228113,63874f631a1cdae0188d4e7a,64d2fd46c836a06233681665,64dc7d0179bf61fd774411ad,,,,,,,decisionTrl,resources/DY.BMP,resources/DBN.BMP,WildCard_NonEx,-0.365555556,-0.133333333,1,0,0,2.953,optionLeft,45,6705,4,0,0,0,0,1,,,,,,,,,,,,,,,,,,,,,,,,,,,,,,,,,,,,,,,
,,,,,,,,2023-08-16_08h38.53.918,HF_wild_card,2022.2.4,Win32,61.65228113,63874f631a1cdae0188d4e7a,64d2fd46c836a06233681665,64dc7d0179bf61fd774411ad,,,,,,,decisionTrl,resources/DR.BMP,resources/DBN.BMP,Door1,0.352222222,-0.027777778,1,0,0,4.256,optionRight,30,6735,4,1,0,1,0,1,,,,,,,,,,,,,,,,,,,,,,,,,,,,,,,,,,,,,,,
,,,,,,,,2023-08-16_08h38.53.918,HF_wild_card,2022.2.4,Win32,61.65228113,63874f631a1cdae0188d4e7a,64d2fd46c836a06233681665,64dc7d0179bf61fd774411ad,,,,,,,ctch,resources/DB.BMP,resources/DR.BMP,Door3,-0.316666667,-0.078888889,1,0,0,1.159,optionLeft,70,6805,4,2,0,2,0,1,,,,,,,,,,,,,,,,,,,,,,,,,,,,,,,,,,,,,,,
,,,,,,,,2023-08-16_08h38.53.918,HF_wild_card,2022.2.4,Win32,61.65228113,63874f631a1cdae0188d4e7a,64d2fd46c836a06233681665,64dc7d0179bf61fd774411ad,,,,,,,decisionTrl,resources/DR.BMP,resources/DBN.BMP,Door1,0.34,-0.037777778,1,0,0,3.741,optionRight,30,6835,4,3,0,3,0,1,,,,,,,,,,,,,,,,,,,,,,,,,,,,,,,,,,,,,,,
,,,,,,,,2023-08-16_08h38.53.918,HF_wild_card,2022.2.4,Win32,61.65228113,63874f631a1cdae0188d4e7a,64d2fd46c836a06233681665,64dc7d0179bf61fd774411ad,,,,,,,decisionTrl,resources/DR.BMP,resources/DBN.BMP,Door2,-0.318888889,-0.101111111,1,0,0,0.927,optionLeft,40,6875,4,4,0,4,0,1,,,,,,,,,,,,,,,,,,,,,,,,,,,,,,,,,,,,,,,
,,,,,,,,2023-08-16_08h38.53.918,HF_wild_card,2022.2.4,Win32,61.65228113,63874f631a1cdae0188d4e7a,64d2fd46c836a06233681665,64dc7d0179bf61fd774411ad,,,,,,,sngl,resources/Empty.png,resources/DBN.BMP,Door1,0.342222222,0,1,0,0,1.076,optionRight,30,6905,4,5,0,5,0,1,,,,,,,,,,,,,,,,,,,,,,,,,,,,,,,,,,,,,,,
,,,,,,,,2023-08-16_08h38.53.918,HF_wild_card,2022.2.4,Win32,61.65228113,63874f631a1cdae0188d4e7a,64d2fd46c836a06233681665,64dc7d0179bf61fd774411ad,,,,,,,ctch,resources/DB.BMP,resources/DR.BMP,Door3,-0.257777778,-0.06,1,0,0,2.941,optionLeft,70,6975,4,6,0,6,0,1,,,,,,,,,,,,,,,,,,,,,,,,,,,,,,,,,,,,,,,
,,,,,,,,2023-08-16_08h38.53.918,HF_wild_card,2022.2.4,Win32,61.65228113,63874f631a1cdae0188d4e7a,64d2fd46c836a06233681665,64dc7d0179bf61fd774411ad,,,,,,,decisionTrl,resources/DBN.BMP,resources/DY.BMP,WildCard_NonEx,0.331111111,-0.003333333,1,0,0,1.942,optionRight,55,7030,4,7,0,7,0,1,,,,,,,,,,,,,,,,,,,,,,,,,,,,,,,,,,,,,,,
,,,,,,,,2023-08-16_08h38.53.918,HF_wild_card,2022.2.4,Win32,61.65228113,63874f631a1cdae0188d4e7a,64d2fd46c836a06233681665,64dc7d0179bf61fd774411ad,,,,,,,ctch,resources/DG.BMP,resources/DBN.BMP,Door4,-0.328888889,-0.056666667,1,0,0,1.692,optionLeft,80,7110,4,8,0,8,0,1,,,,,,,,,,,,,,,,,,,,,,,,,,,,,,,,,,,,,,,
,,,,,,,,2023-08-16_08h38.53.918,HF_wild_card,2022.2.4,Win32,61.65228113,63874f631a1cdae0188d4e7a,64d2fd46c836a06233681665,64dc7d0179bf61fd774411ad,,,,,,,decisionTrl,resources/DG.BMP,resources/DB.BMP,Door4,-0.308888889,-0.02,1,0,0,2.159,optionLeft,80,7190,4,9,0,9,0,1,,,,,,,,,,,,,,,,,,,,,,,,,,,,,,,,,,,,,,,
,,,,,,,,2023-08-16_08h38.53.918,HF_wild_card,2022.2.4,Win32,61.65228113,63874f631a1cdae0188d4e7a,64d2fd46c836a06233681665,64dc7d0179bf61fd774411ad,,,,,,,sngl,resources/Empty.png,resources/DG.BMP,Door4,0.237777778,0.006666667,1,0,0,1.411,optionRight,80,7270,4,10,0,10,0,1,,,,,,,,,,,,,,,,,,,,,,,,,,,,,,,,,,,,,,,
,,,,,,,,2023-08-16_08h38.53.918,HF_wild_card,2022.2.4,Win32,61.65228113,63874f631a1cdae0188d4e7a,64d2fd46c836a06233681665,64dc7d0179bf61fd774411ad,,,,,,,sngl,resources/DBN.BMP,resources/Empty.png,Door1,-0.361111111,-0.02,1,0,0,1.243,optionLeft,30,7300,4,11,0,11,0,1,,,,,,,,,,,,,,,,,,,,,,,,,,,,,,,,,,,,,,,
,,,,,,,,2023-08-16_08h38.53.918,HF_wild_card,2022.2.4,Win32,61.65228113,63874f631a1cdae0188d4e7a,64d2fd46c836a06233681665,64dc7d0179bf61fd774411ad,,,,,,,ctch,resources/DR.BMP,resources/DB.BMP,Door3,0.291111111,-0.006666667,1,0,0,2.443,optionRight,70,7370,4,12,0,12,0,1,,,,,,,,,,,,,,,,,,,,,,,,,,,,,,,,,,,,,,,
,,,,,,,,2023-08-16_08h38.53.918,HF_wild_card,2022.2.4,Win32,61.65228113,63874f631a1cdae0188d4e7a,64d2fd46c836a06233681665,64dc7d0179bf61fd774411ad,,,,,,,sngl,resources/Empty.png,resources/DY.BMP,WildCard_NonEx,0.244444444,-0.017777778,1,0,0,1.443,optionRight,55,7425,4,13,0,13,0,1,,,,,,,,,,,,,,,,,,,,,,,,,,,,,,,,,,,,,,,
,,,,,,,,2023-08-16_08h38.53.918,HF_wild_card,2022.2.4,Win32,61.65228113,63874f631a1cdae0188d4e7a,64d2fd46c836a06233681665,64dc7d0179bf61fd774411ad,,,,,,,decisionTrl,resources/DB.BMP,resources/DY.BMP,Door3,-0.46,-0.033333333,1,0,0,1.494,optionLeft,70,7495,4,14,0,14,0,1,,,,,,,,,,,,,,,,,,,,,,,,,,,,,,,,,,,,,,,
,,,,,,,,2023-08-16_08h38.53.918,HF_wild_card,2022.2.4,Win32,61.65228113,63874f631a1cdae0188d4e7a,64d2fd46c836a06233681665,64dc7d0179bf61fd774411ad,,,,,,,decisionTrl,resources/DBN.BMP,resources/DR.BMP,Door2,0.27,-0.021111111,1,0,0,2.859,optionRight,20,7515,4,15,0,15,0,1,,,,,,,,,,,,,,,,,,,,,,,,,,,,,,,,,,,,,,,
,,,,,,,,2023-08-16_08h38.53.918,HF_wild_card,2022.2.4,Win32,61.65228113,63874f631a1cdae0188d4e7a,64d2fd46c836a06233681665,64dc7d0179bf61fd774411ad,,,,,,,ctch,resources/DG.BMP,resources/DBN.BMP,Door4,-0.392222222,-0.053333333,1,0,0,1.493,optionLeft,80,7595,4,16,0,16,0,1,,,,,,,,,,,,,,,,,,,,,,,,,,,,,,,,,,,,,,,
,,,,,,,,2023-08-16_08h38.53.918,HF_wild_card,2022.2.4,Win32,61.65228113,63874f631a1cdae0188d4e7a,64d2fd46c836a06233681665,64dc7d0179bf61fd774411ad,,,,,,,decisionTrl,resources/DG.BMP,resources/DB.BMP,Door4,-0.321111111,-0.007777778,1,0,0,2.375,optionLeft,80,7675,4,17,0,17,0,1,,,,,,,,,,,,,,,,,,,,,,,,,,,,,,,,,,,,,,,
,,,,,,,,2023-08-16_08h38.53.918,HF_wild_card,2022.2.4,Win32,61.65228113,63874f631a1cdae0188d4e7a,64d2fd46c836a06233681665,64dc7d0179bf61fd774411ad,,,,,,,sngl,resources/DB.BMP,resources/Empty.png,Door3,-0.303333333,-0.056666667,1,0,0,1.092,optionLeft,70,7745,4,18,0,18,0,1,,,,,,,,,,,,,,,,,,,,,,,,,,,,,,,,,,,,,,,
,,,,,,,,2023-08-16_08h38.53.918,HF_wild_card,2022.2.4,Win32,61.65228113,63874f631a1cdae0188d4e7a,64d2fd46c836a06233681665,64dc7d0179bf61fd774411ad,,,,,,,decisionTrl,resources/DG.BMP,resources/DB.BMP,Door3,0.373333333,-0.022222222,1,0,0,1.277,optionRight,70,7815,4,19,0,19,0,1,,,,,,,,,,,,,,,,,,,,,,,,,,,,,,,,,,,,,,,
,,,,,,,,2023-08-16_08h38.53.918,HF_wild_card,2022.2.4,Win32,61.65228113,63874f631a1cdae0188d4e7a,64d2fd46c836a06233681665,64dc7d0179bf61fd774411ad,,,,,,,decisionTrl,resources/DB.BMP,resources/DG.BMP,Door3,-0.342222222,-0.075555556,1,0,0,1.409,optionLeft,70,7885,4,20,0,20,0,1,,,,,,,,,,,,,,,,,,,,,,,,,,,,,,,,,,,,,,,
,,,,,,,,2023-08-16_08h38.53.918,HF_wild_card,2022.2.4,Win32,61.65228113,63874f631a1cdae0188d4e7a,64d2fd46c836a06233681665,64dc7d0179bf61fd774411ad,,,,,,,sngl,resources/DR.BMP,resources/Empty.png,Door2,-0.307777778,-0.043333333,1,0,0,1.144,optionLeft,20,7905,4,21,0,21,0,1,,,,,,,,,,,,,,,,,,,,,,,,,,,,,,,,,,,,,,,
,,,,,,,,2023-08-16_08h38.53.918,HF_wild_card,2022.2.4,Win32,61.65228113,63874f631a1cdae0188d4e7a,64d2fd46c836a06233681665,64dc7d0179bf61fd774411ad,,,,,,,decisionTrl,resources/DR.BMP,resources/DBN.BMP,Door1,0.28,-0.005555556,1,0,0,1.594,optionRight,30,7935,4,22,0,22,0,1,,,,,,,,,,,,,,,,,,,,,,,,,,,,,,,,,,,,,,,
,,,,,,,,2023-08-16_08h38.53.918,HF_wild_card,2022.2.4,Win32,61.65228113,63874f631a1cdae0188d4e7a,64d2fd46c836a06233681665,64dc7d0179bf61fd774411ad,,,,,,,decisionTrl,resources/DY.BMP,resources/DG.BMP,Door4,0.268888889,-0.018888889,1,0,0,1.76,optionRight,80,8015,4,23,0,23,0,1,,,,,,,,,,,,,,,,,,,,,,,,,,,,,,,,,,,,,,,
,,,,,,,,2023-08-16_08h38.53.918,HF_wild_card,2022.2.4,Win32,61.65228113,63874f631a1cdae0188d4e7a,64d2fd46c836a06233681665,64dc7d0179bf61fd774411ad,,,,,,,sngl,resources/DG.BMP,resources/Empty.png,Door4,-0.263333333,-0.035555556,1,0,0,1.106,optionLeft,60,8075,4,24,0,24,0,1,,,,,,,,,,,,,,,,,,,,,,,,,,,,,,,,,,,,,,,
,,,,,,,,2023-08-16_08h38.53.918,HF_wild_card,2022.2.4,Win32,61.65228113,63874f631a1cdae0188d4e7a,64d2fd46c836a06233681665,64dc7d0179bf61fd774411ad,,,,,,,sngl,resources/Empty.png,resources/DB.BMP,Door3,0.268888889,-0.003333333,1,0,0,1.474,optionRight,70,8145,4,25,0,25,0,1,,,,,,,,,,,,,,,,,,,,,,,,,,,,,,,,,,,,,,,
,,,,,,,,2023-08-16_08h38.53.918,HF_wild_card,2022.2.4,Win32,61.65228113,63874f631a1cdae0188d4e7a,64d2fd46c836a06233681665,64dc7d0179bf61fd774411ad,,,,,,,decisionTrl,resources/DBN.BMP,resources/DR.BMP,Door2,0.29,0.001111111,1,0,0,3.174,optionRight,40,8185,4,26,0,26,0,1,,,,,,,,,,,,,,,,,,,,,,,,,,,,,,,,,,,,,,,
,,,,,,,,2023-08-16_08h38.53.918,HF_wild_card,2022.2.4,Win32,61.65228113,63874f631a1cdae0188d4e7a,64d2fd46c836a06233681665,64dc7d0179bf61fd774411ad,,,,,,,sngl,resources/DY.BMP,resources/Empty.png,WildCard_NonEx,-0.371111111,-0.018888889,1,0,0,1.125,optionLeft,45,8230,4,27,0,27,0,1,,,,,,,,,,,,,,,,,,,,,,,,,,,,,,,,,,,,,,,
,,,,,,,,2023-08-16_08h38.53.918,HF_wild_card,2022.2.4,Win32,61.65228113,63874f631a1cdae0188d4e7a,64d2fd46c836a06233681665,64dc7d0179bf61fd774411ad,,,,,,,ctch,resources/DR.BMP,resources/DB.BMP,Door3,0.302222222,-0.014444444,1,0,0,2.591,optionRight,70,8300,4,28,0,28,0,1,,,,,,,,,,,,,,,,,,,,,,,,,,,,,,,,,,,,,,,
,,,,,,,,2023-08-16_08h38.53.918,HF_wild_card,2022.2.4,Win32,61.65228113,63874f631a1cdae0188d4e7a,64d2fd46c836a06233681665,64dc7d0179bf61fd774411ad,,,,,,,decisionTrl,resources/DY.BMP,resources/DB.BMP,Door3,0.234444444,-0.005555556,1,0,0,2.443,optionRight,70,8370,4,29,0,29,0,1,,,,,,,,,,,,,,,,,,,,,,,,,,,,,,,,,,,,,,,
,,,,,,,,2023-08-16_08h38.53.918,HF_wild_card,2022.2.4,Win32,61.65228113,63874f631a1cdae0188d4e7a,64d2fd46c836a06233681665,64dc7d0179bf61fd774411ad,,,,,,,sngl,resources/Empty.png,resources/DR.BMP,Door2,0.306666667,-0.006666667,1,0,0,1.283,optionRight,40,8410,4,30,0,30,0,1,,,,,,,,,,,,,,,,,,,,,,,,,,,,,,,,,,,,,,,
,,,,,,,,2023-08-16_08h38.53.918,HF_wild_card,2022.2.4,Win32,61.65228113,63874f631a1cdae0188d4e7a,64d2fd46c836a06233681665,64dc7d0179bf61fd774411ad,,,,,,,decisionTrl,resources/DY.BMP,resources/DR.BMP,WildCard_NonEx,-0.294444444,-0.031111111,1,0,0,1.376,optionLeft,45,8455,4,31,0,31,0,1,,,,,,,,,,,,,,,,,,,,,,,,,,,,,,,,,,,,,,,
,,,,,,,,2023-08-16_08h38.53.918,HF_wild_card,2022.2.4,Win32,61.65228113,63874f631a1cdae0188d4e7a,64d2fd46c836a06233681665,64dc7d0179bf61fd774411ad,,,,,,,decisionTrl,resources/DG.BMP,resources/DB.BMP,Door4,-0.363333333,-0.053333333,1,0,0,1.527,optionLeft,60,8515,4,32,0,32,0,1,,,,,,,,,,,,,,,,,,,,,,,,,,,,,,,,,,,,,,,
,,,,,,,,2023-08-16_08h38.53.918,HF_wild_card,2022.2.4,Win32,61.65228113,63874f631a1cdae0188d4e7a,64d2fd46c836a06233681665,64dc7d0179bf61fd774411ad,,,,,,,decisionTrl,resources/DG.BMP,resources/DY.BMP,Door4,-0.302222222,-0.017777778,1,0,0,1.47,optionLeft,60,8575,4,33,0,33,0,1,,,,,,,,,,,,,,,,,,,,,,,,,,,,,,,,,,,,,,,
,,,,,,,,2023-08-16_08h38.53.918,HF_wild_card,2022.2.4,Win32,61.65228113,63874f631a1cdae0188d4e7a,64d2fd46c836a06233681665,64dc7d0179bf61fd774411ad,,,,,,,decisionTrl,resources/DB.BMP,resources/DG.BMP,Door3,-0.307777778,-0.02,1,0,0,2.606,optionLeft,70,8645,4,34,0,34,0,1,,,,,,,,,,,,,,,,,,,,,,,,,,,,,,,,,,,,,,,
,,,,,,,,2023-08-16_08h38.53.918,HF_wild_card,2022.2.4,Win32,61.65228113,63874f631a1cdae0188d4e7a,64d2fd46c836a06233681665,64dc7d0179bf61fd774411ad,,,,,,,ctch,resources/DBN.BMP,resources/DG.BMP,Door4,0.344444444,0.007777778,1,0,0,1.492,optionRight,60,8705,4,35,0,35,0,1,,,,,,,,,,,,,,,,,,,,,,,,,,,,,,,,,,,,,,,
,,,,,,,,2023-08-16_08h38.53.918,HF_wild_card,2022.2.4,Win32,61.65228113,63874f631a1cdae0188d4e7a,64d2fd46c836a06233681665,64dc7d0179bf61fd774411ad,,,,,,,sngl,resources/DY.BMP,resources/Empty.png,WildCard_NonEx,-0.341111111,-0.04,1,0,0,1.243,optionLeft,55,8760,4,36,0,36,0,1,,,,,,,,,,,,,,,,,,,,,,,,,,,,,,,,,,,,,,,
,,,,,,,,2023-08-16_08h38.53.918,HF_wild_card,2022.2.4,Win32,61.65228113,63874f631a1cdae0188d4e7a,64d2fd46c836a06233681665,64dc7d0179bf61fd774411ad,,,,,,,decisionTrl,resources/DBN.BMP,resources/DR.BMP,Door1,-0.392222222,-0.014444444,1,0,0,3.357,optionLeft,30,8790,4,37,0,37,0,1,,,,,,,,,,,,,,,,,,,,,,,,,,,,,,,,,,,,,,,
,,,,,,,,2023-08-16_08h38.53.918,HF_wild_card,2022.2.4,Win32,61.65228113,63874f631a1cdae0188d4e7a,64d2fd46c836a06233681665,64dc7d0179bf61fd774411ad,,,,,,,decisionTrl,resources/DB.BMP,resources/DG.BMP,Door4,0.3,-0.001111111,1,0,0,1.841,optionRight,80,8870,4,38,0,38,0,1,,,,,,,,,,,,,,,,,,,,,,,,,,,,,,,,,,,,,,,
,,,,,,,,2023-08-16_08h38.53.918,HF_wild_card,2022.2.4,Win32,61.65228113,63874f631a1cdae0188d4e7a,64d2fd46c836a06233681665,64dc7d0179bf61fd774411ad,,,,,,,ctch,resources/DBN.BMP,resources/DG.BMP,Door4,0.338888889,0.008888889,1,0,0,1.506,optionRight,60,8930,4,39,0,39,0,1,,,,,,,,,,,,,,,,,,,,,,,,,,,,,,,,,,,,,,,
,,,,,,,,2023-08-16_08h38.53.918,HF_wild_card,2022.2.4,Win32,61.65228113,63874f631a1cdae0188d4e7a,64d2fd46c836a06233681665,64dc7d0179bf61fd774411ad,,,,,,,decisionTrl,resources/DB.BMP,resources/DG.BMP,Door3,-0.391111111,-0.032222222,1,0,0,1.577,optionLeft,70,9000,4,40,0,40,0,1,,,,,,,,,,,,,,,,,,,,,,,,,,,,,,,,,,,,,,,
,,,,,,,,2023-08-16_08h38.53.918,HF_wild_card,2022.2.4,Win32,61.65228113,63874f631a1cdae0188d4e7a,64d2fd46c836a06233681665,64dc7d0179bf61fd774411ad,,,,,,,decisionTrl,resources/DR.BMP,resources/DY.BMP,WildCard_NonEx,0.313333333,-0.011111111,1,0,0,1.792,optionRight,45,9045,4,41,0,41,0,1,,,,,,,,,,,,,,,,,,,,,,,,,,,,,,,,,,,,,,,
,,,,,,,,2023-08-16_08h38.53.918,HF_wild_card,2022.2.4,Win32,61.65228113,63874f631a1cdae0188d4e7a,64d2fd46c836a06233681665,64dc7d0179bf61fd774411ad,,,,,,,sngl,resources/Empty.png,resources/DY.BMP,WildCard_NonEx,0.293333333,0.007777778,1,0,0,1.574,optionRight,45,9090,4,42,0,42,0,1,,,,,,,,,,,,,,,,,,,,,,,,,,,,,,,,,,,,,,,
,,,,,,,,2023-08-16_08h38.53.918,HF_wild_card,2022.2.4,Win32,61.65228113,63874f631a1cdae0188d4e7a,64d2fd46c836a06233681665,64dc7d0179bf61fd774411ad,,,,,,,decisionTrl,resources/DBN.BMP,resources/DR.BMP,Door2,0.4,0.003333333,1,0,0,2.89,optionRight,40,9130,4,43,0,43,0,1,,,,,,,,,,,,,,,,,,,,,,,,,,,,,,,,,,,,,,,
,,,,,,,,2023-08-16_08h38.53.918,HF_wild_card,2022.2.4,Win32,61.65228113,63874f631a1cdae0188d4e7a,64d2fd46c836a06233681665,64dc7d0179bf61fd774411ad,,,,,,,,,,,,,,,,,,,,,,,,,,3,0,3,0,1,,,,,,,,,,,,,,,,,,,,,,,,,,,,,,,,,,
,,,,,,,,2023-08-16_08h38.53.918,HF_wild_card,2022.2.4,Win32,61.65228113,63874f631a1cdae0188d4e7a,64d2fd46c836a06233681665,64dc7d0179bf61fd774411ad,,,,,,,ctch,resources/DBN.BMP,resources/DG.BMP,Door4,0.514444444,-0.042222222,1,0,0,2.688,optionRight,60,9190,5,0,0,0,0,1,,,,,,,,,,,,,,,,,,,,,,,,,,,,,,,,,,,,,,,
,,,,,,,,2023-08-16_08h38.53.918,HF_wild_card,2022.2.4,Win32,61.65228113,63874f631a1cdae0188d4e7a,64d2fd46c836a06233681665,64dc7d0179bf61fd774411ad,,,,,,,sngl,resources/Empty.png,resources/DG.BMP,Door4,0.313333333,0,1,0,0,1.259,optionRight,60,9250,5,1,0,1,0,1,,,,,,,,,,,,,,,,,,,,,,,,,,,,,,,,,,,,,,,
,,,,,,,,2023-08-16_08h38.53.918,HF_wild_card,2022.2.4,Win32,61.65228113,63874f631a1cdae0188d4e7a,64d2fd46c836a06233681665,64dc7d0179bf61fd774411ad,,,,,,,sngl,resources/DY.BMP,resources/Empty.png,WildCard_NonEx,-0.4,-0.027777778,1,0,0,1.093,optionLeft,55,9305,5,2,0,2,0,1,,,,,,,,,,,,,,,,,,,,,,,,,,,,,,,,,,,,,,,
,,,,,,,,2023-08-16_08h38.53.918,HF_wild_card,2022.2.4,Win32,61.65228113,63874f631a1cdae0188d4e7a,64d2fd46c836a06233681665,64dc7d0179bf61fd774411ad,,,,,,,decisionTrl,resources/DY.BMP,resources/DR.BMP,WildCard_NonEx,-0.304444444,-0.028888889,1,0,0,1.561,optionLeft,55,9360,5,3,0,3,0,1,,,,,,,,,,,,,,,,,,,,,,,,,,,,,,,,,,,,,,,
,,,,,,,,2023-08-16_08h38.53.918,HF_wild_card,2022.2.4,Win32,61.65228113,63874f631a1cdae0188d4e7a,64d2fd46c836a06233681665,64dc7d0179bf61fd774411ad,,,,,,,sngl,resources/DG.BMP,resources/Empty.png,Door4,-0.273333333,0.002222222,1,0,0,0.983,optionLeft,80,9440,5,4,0,4,0,1,,,,,,,,,,,,,,,,,,,,,,,,,,,,,,,,,,,,,,,
,,,,,,,,2023-08-16_08h38.53.918,HF_wild_card,2022.2.4,Win32,61.65228113,63874f631a1cdae0188d4e7a,64d2fd46c836a06233681665,64dc7d0179bf61fd774411ad,,,,,,,decisionTrl,resources/DR.BMP,resources/DBN.BMP,Door1,0.351111111,-0.018888889,1,0,0,3.34,optionRight,30,9470,5,5,0,5,0,1,,,,,,,,,,,,,,,,,,,,,,,,,,,,,,,,,,,,,,,
,,,,,,,,2023-08-16_08h38.53.918,HF_wild_card,2022.2.4,Win32,61.65228113,63874f631a1cdae0188d4e7a,64d2fd46c836a06233681665,64dc7d0179bf61fd774411ad,,,,,,,decisionTrl,resources/DG.BMP,resources/DB.BMP,Door3,0.314444444,-0.01,1,0,0,1.541,optionRight,70,9540,5,6,0,6,0,1,,,,,,,,,,,,,,,,,,,,,,,,,,,,,,,,,,,,,,,
,,,,,,,,2023-08-16_08h38.53.918,HF_wild_card,2022.2.4,Win32,61.65228113,63874f631a1cdae0188d4e7a,64d2fd46c836a06233681665,64dc7d0179bf61fd774411ad,,,,,,,sngl,resources/Empty.png,resources/DR.BMP,Door2,0.311111111,-0.011111111,1,0,0,1.393,optionRight,20,9560,5,7,0,7,0,1,,,,,,,,,,,,,,,,,,,,,,,,,,,,,,,,,,,,,,,
,,,,,,,,2023-08-16_08h38.53.918,HF_wild_card,2022.2.4,Win32,61.65228113,63874f631a1cdae0188d4e7a,64d2fd46c836a06233681665,64dc7d0179bf61fd774411ad,,,,,,,decisionTrl,resources/DG.BMP,resources/DB.BMP,Door4,-0.231111111,-0.044444444,1,0,0,2.092,optionLeft,60,9620,5,8,0,8,0,1,,,,,,,,,,,,,,,,,,,,,,,,,,,,,,,,,,,,,,,
,,,,,,,,2023-08-16_08h38.53.918,HF_wild_card,2022.2.4,Win32,61.65228113,63874f631a1cdae0188d4e7a,64d2fd46c836a06233681665,64dc7d0179bf61fd774411ad,,,,,,,decisionTrl,resources/DG.BMP,resources/DB.BMP,Door3,0.294444444,0.004444444,1,0,0,1.045,optionRight,70,9690,5,9,0,9,0,1,,,,,,,,,,,,,,,,,,,,,,,,,,,,,,,,,,,,,,,
,,,,,,,,2023-08-16_08h38.53.918,HF_wild_card,2022.2.4,Win32,61.65228113,63874f631a1cdae0188d4e7a,64d2fd46c836a06233681665,64dc7d0179bf61fd774411ad,,,,,,,decisionTrl,resources/DB.BMP,resources/DG.BMP,Door3,-0.23,-0.043333333,1,0,0,3.789,optionLeft,70,9760,5,10,0,10,0,1,,,,,,,,,,,,,,,,,,,,,,,,,,,,,,,,,,,,,,,
,,,,,,,,2023-08-16_08h38.53.918,HF_wild_card,2022.2.4,Win32,61.65228113,63874f631a1cdae0188d4e7a,64d2fd46c836a06233681665,64dc7d0179bf61fd774411ad,,,,,,,sngl,resources/Empty.png,resources/DY.BMP,WildCard_NonEx,0.366666667,-0.01,1,0,0,1.062,optionRight,45,9805,5,11,0,11,0,1,,,,,,,,,,,,,,,,,,,,,,,,,,,,,,,,,,,,,,,
,,,,,,,,2023-08-16_08h38.53.918,HF_wild_card,2022.2.4,Win32,61.65228113,63874f631a1cdae0188d4e7a,64d2fd46c836a06233681665,64dc7d0179bf61fd774411ad,,,,,,,ctch,resources/DR.BMP,resources/DB.BMP,Door3,0.386666667,-0.004444444,1,0,0,2.21,optionRight,70,9875,5,12,0,12,0,1,,,,,,,,,,,,,,,,,,,,,,,,,,,,,,,,,,,,,,,
,,,,,,,,2023-08-16_08h38.53.918,HF_wild_card,2022.2.4,Win32,61.65228113,63874f631a1cdae0188d4e7a,64d2fd46c836a06233681665,64dc7d0179bf61fd774411ad,,,,,,,decisionTrl,resources/DR.BMP,resources/DBN.BMP,Door1,0.307777778,-0.001111111,1,0,0,3.656,optionRight,30,9905,5,13,0,13,0,1,,,,,,,,,,,,,,,,,,,,,,,,,,,,,,,,,,,,,,,
,,,,,,,,2023-08-16_08h38.53.918,HF_wild_card,2022.2.4,Win32,61.65228113,63874f631a1cdae0188d4e7a,64d2fd46c836a06233681665,64dc7d0179bf61fd774411ad,,,,,,,decisionTrl,resources/DY.BMP,resources/DB.BMP,Door3,0.26,-0.001111111,1,0,0,2.407,optionRight,70,9975,5,14,0,14,0,1,,,,,,,,,,,,,,,,,,,,,,,,,,,,,,,,,,,,,,,
,,,,,,,,2023-08-16_08h38.53.918,HF_wild_card,2022.2.4,Win32,61.65228113,63874f631a1cdae0188d4e7a,64d2fd46c836a06233681665,64dc7d0179bf61fd774411ad,,,,,,,decisionTrl,resources/DY.BMP,resources/DG.BMP,Door4,0.353333333,-0.011111111,1,0,0,1.277,optionRight,60,10035,5,15,0,15,0,1,,,,,,,,,,,,,,,,,,,,,,,,,,,,,,,,,,,,,,,
,,,,,,,,2023-08-16_08h38.53.918,HF_wild_card,2022.2.4,Win32,61.65228113,63874f631a1cdae0188d4e7a,64d2fd46c836a06233681665,64dc7d0179bf61fd774411ad,,,,,,,ctch,resources/DBN.BMP,resources/DG.BMP,Door4,0.331111111,-0.012222222,1,0,0,1.476,optionRight,60,10095,5,16,0,16,0,1,,,,,,,,,,,,,,,,,,,,,,,,,,,,,,,,,,,,,,,
,,,,,,,,2023-08-16_08h38.53.918,HF_wild_card,2022.2.4,Win32,61.65228113,63874f631a1cdae0188d4e7a,64d2fd46c836a06233681665,64dc7d0179bf61fd774411ad,,,,,,,sngl,resources/DR.BMP,resources/Empty.png,Door2,-0.253333333,-0.072222222,1,0,0,1.244,optionLeft,40,10135,5,17,0,17,0,1,,,,,,,,,,,,,,,,,,,,,,,,,,,,,,,,,,,,,,,
,,,,,,,,2023-08-16_08h38.53.918,HF_wild_card,2022.2.4,Win32,61.65228113,63874f631a1cdae0188d4e7a,64d2fd46c836a06233681665,64dc7d0179bf61fd774411ad,,,,,,,decisionTrl,resources/DB.BMP,resources/DY.BMP,Door3,-0.257777778,-0.043333333,1,0,0,2.576,optionLeft,70,10205,5,18,0,18,0,1,,,,,,,,,,,,,,,,,,,,,,,,,,,,,,,,,,,,,,,
,,,,,,,,2023-08-16_08h38.53.918,HF_wild_card,2022.2.4,Win32,61.65228113,63874f631a1cdae0188d4e7a,64d2fd46c836a06233681665,64dc7d0179bf61fd774411ad,,,,,,,sngl,resources/DB.BMP,resources/Empty.png,Door3,-0.28,-0.023333333,1,0,0,1.192,optionLeft,70,10275,5,19,0,19,0,1,,,,,,,,,,,,,,,,,,,,,,,,,,,,,,,,,,,,,,,
,,,,,,,,2023-08-16_08h38.53.918,HF_wild_card,2022.2.4,Win32,61.65228113,63874f631a1cdae0188d4e7a,64d2fd46c836a06233681665,64dc7d0179bf61fd774411ad,,,,,,,decisionTrl,resources/DY.BMP,resources/DBN.BMP,WildCard_NonEx,-0.38,-0.053333333,1,0,0,1.742,optionLeft,55,10330,5,20,0,20,0,1,,,,,,,,,,,,,,,,,,,,,,,,,,,,,,,,,,,,,,,
,,,,,,,,2023-08-16_08h38.53.918,HF_wild_card,2022.2.4,Win32,61.65228113,63874f631a1cdae0188d4e7a,64d2fd46c836a06233681665,64dc7d0179bf61fd774411ad,,,,,,,decisionTrl,resources/DBN.BMP,resources/DR.BMP,Door2,0.321111111,-0.023333333,1,0,0,3.321,optionRight,40,10370,5,21,0,21,0,1,,,,,,,,,,,,,,,,,,,,,,,,,,,,,,,,,,,,,,,
,,,,,,,,2023-08-16_08h38.53.918,HF_wild_card,2022.2.4,Win32,61.65228113,63874f631a1cdae0188d4e7a,64d2fd46c836a06233681665,64dc7d0179bf61fd774411ad,,,,,,,sngl,resources/DBN.BMP,resources/Empty.png,Door1,-0.347777778,-0.037777778,1,0,0,1.092,optionLeft,30,10400,5,22,0,22,0,1,,,,,,,,,,,,,,,,,,,,,,,,,,,,,,,,,,,,,,,
,,,,,,,,2023-08-16_08h38.53.918,HF_wild_card,2022.2.4,Win32,61.65228113,63874f631a1cdae0188d4e7a,64d2fd46c836a06233681665,64dc7d0179bf61fd774411ad,,,,,,,ctch,resources/DB.BMP,resources/DR.BMP,Door3,-0.39,-0.05,1,0,0,1.975,optionLeft,70,10470,5,23,0,23,0,1,,,,,,,,,,,,,,,,,,,,,,,,,,,,,,,,,,,,,,,
,,,,,,,,2023-08-16_08h38.53.918,HF_wild_card,2022.2.4,Win32,61.65228113,63874f631a1cdae0188d4e7a,64d2fd46c836a06233681665,64dc7d0179bf61fd774411ad,,,,,,,sngl,resources/Empty.png,resources/DB.BMP,Door3,0.264444444,-0.01,1,0,0,1.089,optionRight,70,10540,5,24,0,24,0,1,,,,,,,,,,,,,,,,,,,,,,,,,,,,,,,,,,,,,,,
,,,,,,,,2023-08-16_08h38.53.918,HF_wild_card,2022.2.4,Win32,61.65228113,63874f631a1cdae0188d4e7a,64d2fd46c836a06233681665,64dc7d0179bf61fd774411ad,,,,,,,decisionTrl,resources/DBN.BMP,resources/DY.BMP,WildCard_NonEx,0.31,-0.021111111,1,0,0,1.525,optionRight,45,10585,5,25,0,25,0,1,,,,,,,,,,,,,,,,,,,,,,,,,,,,,,,,,,,,,,,
,,,,,,,,2023-08-16_08h38.53.918,HF_wild_card,2022.2.4,Win32,61.65228113,63874f631a1cdae0188d4e7a,64d2fd46c836a06233681665,64dc7d0179bf61fd774411ad,,,,,,,sngl,resources/Empty.png,resources/DY.BMP,WildCard_NonEx,0.312222222,-0.014444444,1,0,0,0.942,optionRight,55,10640,5,26,0,26,0,1,,,,,,,,,,,,,,,,,,,,,,,,,,,,,,,,,,,,,,,
,,,,,,,,2023-08-16_08h38.53.918,HF_wild_card,2022.2.4,Win32,61.65228113,63874f631a1cdae0188d4e7a,64d2fd46c836a06233681665,64dc7d0179bf61fd774411ad,,,,,,,decisionTrl,resources/DR.BMP,resources/DBN.BMP,Door1,0.36,-0.008888889,1,0,0,2.092,optionRight,30,10670,5,27,0,27,0,1,,,,,,,,,,,,,,,,,,,,,,,,,,,,,,,,,,,,,,,
,,,,,,,,2023-08-16_08h38.53.918,HF_wild_card,2022.2.4,Win32,61.65228113,63874f631a1cdae0188d4e7a,64d2fd46c836a06233681665,64dc7d0179bf61fd774411ad,,,,,,,ctch,resources/DB.BMP,resources/DR.BMP,Door3,-0.272222222,-0.067777778,1,0,0,1.943,optionLeft,70,10740,5,28,0,28,0,1,,,,,,,,,,,,,,,,,,,,,,,,,,,,,,,,,,,,,,,
,,,,,,,,2023-08-16_08h38.53.918,HF_wild_card,2022.2.4,Win32,61.65228113,63874f631a1cdae0188d4e7a,64d2fd46c836a06233681665,64dc7d0179bf61fd774411ad,,,,,,,decisionTrl,resources/DR.BMP,resources/DBN.BMP,Door2,-0.297777778,-0.067777778,1,0,0,2.991,optionLeft,20,10760,5,29,0,29,0,1,,,,,,,,,,,,,,,,,,,,,,,,,,,,,,,,,,,,,,,
,,,,,,,,2023-08-16_08h38.53.918,HF_wild_card,2022.2.4,Win32,61.65228113,63874f631a1cdae0188d4e7a,64d2fd46c836a06233681665,64dc7d0179bf61fd774411ad,,,,,,,decisionTrl,resources/DG.BMP,resources/DY.BMP,Door4,-0.296666667,-0.055555556,1,0,0,2.205,optionLeft,60,10820,5,30,0,30,0,1,,,,,,,,,,,,,,,,,,,,,,,,,,,,,,,,,,,,,,,
,,,,,,,,2023-08-16_08h38.53.918,HF_wild_card,2022.2.4,Win32,61.65228113,63874f631a1cdae0188d4e7a,64d2fd46c836a06233681665,64dc7d0179bf61fd774411ad,,,,,,,decisionTrl,resources/DB.BMP,resources/DG.BMP,Door4,0.325555556,-0.014444444,1,0,0,2.339,optionRight,60,10880,5,31,0,31,0,1,,,,,,,,,,,,,,,,,,,,,,,,,,,,,,,,,,,,,,,
,,,,,,,,2023-08-16_08h38.53.918,HF_wild_card,2022.2.4,Win32,61.65228113,63874f631a1cdae0188d4e7a,64d2fd46c836a06233681665,64dc7d0179bf61fd774411ad,,,,,,,ctch,resources/DG.BMP,resources/DBN.BMP,Door4,-0.323333333,-0.06,1,0,0,1.857,optionLeft,60,10940,5,32,0,32,0,1,,,,,,,,,,,,,,,,,,,,,,,,,,,,,,,,,,,,,,,
,,,,,,,,2023-08-16_08h38.53.918,HF_wild_card,2022.2.4,Win32,61.65228113,63874f631a1cdae0188d4e7a,64d2fd46c836a06233681665,64dc7d0179bf61fd774411ad,,,,,,,decisionTrl,resources/DBN.BMP,resources/DR.BMP,Door1,-0.318888889,-0.021111111,1,0,0,1.825,optionLeft,30,10970,5,33,0,33,0,1,,,,,,,,,,,,,,,,,,,,,,,,,,,,,,,,,,,,,,,
,,,,,,,,2023-08-16_08h38.53.918,HF_wild_card,2022.2.4,Win32,61.65228113,63874f631a1cdae0188d4e7a,64d2fd46c836a06233681665,64dc7d0179bf61fd774411ad,,,,,,,decisionTrl,resources/DB.BMP,resources/DG.BMP,Door3,-0.372222222,-0.048888889,1,0,0,1.708,optionLeft,70,11040,5,34,0,34,0,1,,,,,,,,,,,,,,,,,,,,,,,,,,,,,,,,,,,,,,,
,,,,,,,,2023-08-16_08h38.53.918,HF_wild_card,2022.2.4,Win32,61.65228113,63874f631a1cdae0188d4e7a,64d2fd46c836a06233681665,64dc7d0179bf61fd774411ad,,,,,,,sngl,resources/DY.BMP,resources/Empty.png,WildCard_NonEx,-0.254444444,-0.041111111,1,0,0,1.075,optionLeft,45,11085,5,35,0,35,0,1,,,,,,,,,,,,,,,,,,,,,,,,,,,,,,,,,,,,,,,
,,,,,,,,2023-08-16_08h38.53.918,HF_wild_card,2022.2.4,Win32,61.65228113,63874f631a1cdae0188d4e7a,64d2fd46c836a06233681665,64dc7d0179bf61fd774411ad,,,,,,,decisionTrl,resources/DB.BMP,resources/DG.BMP,Door3,-0.311111111,-0.058888889,1,0,0,2.86,optionLeft,70,11155,5,36,0,36,0,1,,,,,,,,,,,,,,,,,,,,,,,,,,,,,,,,,,,,,,,
,,,,,,,,2023-08-16_08h38.53.918,HF_wild_card,2022.2.4,Win32,61.65228113,63874f631a1cdae0188d4e7a,64d2fd46c836a06233681665,64dc7d0179bf61fd774411ad,,,,,,,sngl,resources/Empty.png,resources/DBN.BMP,Door1,0.152222222,0.001111111,1,0,0,1.745,optionRight,30,11185,5,37,0,37,0,1,,,,,,,,,,,,,,,,,,,,,,,,,,,,,,,,,,,,,,,
,,,,,,,,2023-08-16_08h38.53.918,HF_wild_card,2022.2.4,Win32,61.65228113,63874f631a1cdae0188d4e7a,64d2fd46c836a06233681665,64dc7d0179bf61fd774411ad,,,,,,,decisionTrl,resources/DBN.BMP,resources/DR.BMP,Door1,-0.382222222,-0.046666667,1,0,0,1.709,optionLeft,30,11215,5,38,0,38,0,1,,,,,,,,,,,,,,,,,,,,,,,,,,,,,,,,,,,,,,,
,,,,,,,,2023-08-16_08h38.53.918,HF_wild_card,2022.2.4,Win32,61.65228113,63874f631a1cdae0188d4e7a,64d2fd46c836a06233681665,64dc7d0179bf61fd774411ad,,,,,,,decisionTrl,resources/DG.BMP,resources/DB.BMP,Door3,0.275555556,0.013333333,1,0,0,1.64,optionRight,70,11285,5,39,0,39,0,1,,,,,,,,,,,,,,,,,,,,,,,,,,,,,,,,,,,,,,,
,,,,,,,,2023-08-16_08h38.53.918,HF_wild_card,2022.2.4,Win32,61.65228113,63874f631a1cdae0188d4e7a,64d2fd46c836a06233681665,64dc7d0179bf61fd774411ad,,,,,,,decisionTrl,resources/DR.BMP,resources/DY.BMP,WildCard_NonEx,0.326666667,0.006666667,1,0,0,1.99,optionRight,45,11330,5,40,0,40,0,1,,,,,,,,,,,,,,,,,,,,,,,,,,,,,,,,,,,,,,,
,,,,,,,,2023-08-16_08h38.53.918,HF_wild_card,2022.2.4,Win32,61.65228113,63874f631a1cdae0188d4e7a,64d2fd46c836a06233681665,64dc7d0179bf61fd774411ad,,,,,,,ctch,resources/DR.BMP,resources/DB.BMP,Door3,0.32,-0.015555556,1,0,0,1.911,optionRight,70,11400,5,41,0,41,0,1,,,,,,,,,,,,,,,,,,,,,,,,,,,,,,,,,,,,,,,
,,,,,,,,2023-08-16_08h38.53.918,HF_wild_card,2022.2.4,Win32,61.65228113,63874f631a1cdae0188d4e7a,64d2fd46c836a06233681665,64dc7d0179bf61fd774411ad,,,,,,,ctch,resources/DG.BMP,resources/DBN.BMP,Door4,-0.307777778,-0.036666667,1,0,0,1.693,optionLeft,80,11480,5,42,0,42,0,1,,,,,,,,,,,,,,,,,,,,,,,,,,,,,,,,,,,,,,,
,,,,,,,,2023-08-16_08h38.53.918,HF_wild_card,2022.2.4,Win32,61.65228113,63874f631a1cdae0188d4e7a,64d2fd46c836a06233681665,64dc7d0179bf61fd774411ad,,,,,,,decisionTrl,resources/DBN.BMP,resources/DR.BMP,Door1,-0.338888889,-0.043333333,1,0,0,3.507,optionLeft,30,11510,5,43,0,43,0,1,,,,,,,,,,,,,,,,,,,,,,,,,,,,,,,,,,,,,,,
,,,,,,,,2023-08-16_08h38.53.918,HF_wild_card,2022.2.4,Win32,61.65228113,63874f631a1cdae0188d4e7a,64d2fd46c836a06233681665,64dc7d0179bf61fd774411ad,,,,,,,,,,,,,,,,,,,,,,,,,,4,0,4,0,1,,,,,,,,,,,,,,,,,,,,,,,,,,,,,,,,,,
,,,,,,,,2023-08-16_08h38.53.918,HF_wild_card,2022.2.4,Win32,61.65228113,63874f631a1cdae0188d4e7a,64d2fd46c836a06233681665,64dc7d0179bf61fd774411ad,,,,,,,ctch,resources/DB.BMP,resources/DR.BMP,Door3,-0.412222222,-0.142222222,1,0,0,1.724,optionLeft,70,11580,6,0,0,0,0,1,,,,,,,,,,,,,,,,,,,,,,,,,,,,,,,,,,,,,,,
,,,,,,,,2023-08-16_08h38.53.918,HF_wild_card,2022.2.4,Win32,61.65228113,63874f631a1cdae0188d4e7a,64d2fd46c836a06233681665,64dc7d0179bf61fd774411ad,,,,,,,ctch,resources/DBN.BMP,resources/DG.BMP,Door4,0.331111111,0.005555556,1,0,0,1.444,optionRight,60,11640,6,1,0,1,0,1,,,,,,,,,,,,,,,,,,,,,,,,,,,,,,,,,,,,,,,
,,,,,,,,2023-08-16_08h38.53.918,HF_wild_card,2022.2.4,Win32,61.65228113,63874f631a1cdae0188d4e7a,64d2fd46c836a06233681665,64dc7d0179bf61fd774411ad,,,,,,,decisionTrl,resources/DG.BMP,resources/DY.BMP,Door4,-0.288888889,-0.055555556,1,0,0,1.257,optionLeft,80,11720,6,2,0,2,0,1,,,,,,,,,,,,,,,,,,,,,,,,,,,,,,,,,,,,,,,
,,,,,,,,2023-08-16_08h38.53.918,HF_wild_card,2022.2.4,Win32,61.65228113,63874f631a1cdae0188d4e7a,64d2fd46c836a06233681665,64dc7d0179bf61fd774411ad,,,,,,,sngl,resources/DB.BMP,resources/Empty.png,Door3,-0.345555556,-0.051111111,1,0,0,1.092,optionLeft,70,11790,6,3,0,3,0,1,,,,,,,,,,,,,,,,,,,,,,,,,,,,,,,,,,,,,,,
,,,,,,,,2023-08-16_08h38.53.918,HF_wild_card,2022.2.4,Win32,61.65228113,63874f631a1cdae0188d4e7a,64d2fd46c836a06233681665,64dc7d0179bf61fd774411ad,,,,,,,sngl,resources/Empty.png,resources/DY.BMP,WildCard_NonEx,0.243333333,-0.036666667,1,0,0,2.091,optionRight,55,11845,6,4,0,4,0,1,,,,,,,,,,,,,,,,,,,,,,,,,,,,,,,,,,,,,,,
,,,,,,,,2023-08-16_08h38.53.918,HF_wild_card,2022.2.4,Win32,61.65228113,63874f631a1cdae0188d4e7a,64d2fd46c836a06233681665,64dc7d0179bf61fd774411ad,,,,,,,decisionTrl,resources/DR.BMP,resources/DBN.BMP,Door2,-0.323333333,-0.101111111,1,0,0,4.507,optionLeft,20,11865,6,5,0,5,0,1,,,,,,,,,,,,,,,,,,,,,,,,,,,,,,,,,,,,,,,
,,,,,,,,2023-08-16_08h38.53.918,HF_wild_card,2022.2.4,Win32,61.65228113,63874f631a1cdae0188d4e7a,64d2fd46c836a06233681665,64dc7d0179bf61fd774411ad,,,,,,,decisionTrl,resources/DY.BMP,resources/DR.BMP,WildCard_NonEx,-0.252222222,-0.054444444,1,0,0,1.309,optionLeft,45,11910,6,6,0,6,0,1,,,,,,,,,,,,,,,,,,,,,,,,,,,,,,,,,,,,,,,
,,,,,,,,2023-08-16_08h38.53.918,HF_wild_card,2022.2.4,Win32,61.65228113,63874f631a1cdae0188d4e7a,64d2fd46c836a06233681665,64dc7d0179bf61fd774411ad,,,,,,,decisionTrl,resources/DG.BMP,resources/DB.BMP,Door4,-0.331111111,-0.064444444,1,0,0,1.526,optionLeft,60,11970,6,7,0,7,0,1,,,,,,,,,,,,,,,,,,,,,,,,,,,,,,,,,,,,,,,
,,,,,,,,2023-08-16_08h38.53.918,HF_wild_card,2022.2.4,Win32,61.65228113,63874f631a1cdae0188d4e7a,64d2fd46c836a06233681665,64dc7d0179bf61fd774411ad,,,,,,,sngl,resources/Empty.png,resources/DR.BMP,Door2,0.233333333,-0.023333333,1,0,0,1.11,optionRight,40,12010,6,8,0,8,0,1,,,,,,,,,,,,,,,,,,,,,,,,,,,,,,,,,,,,,,,
,,,,,,,,2023-08-16_08h38.53.918,HF_wild_card,2022.2.4,Win32,61.65228113,63874f631a1cdae0188d4e7a,64d2fd46c836a06233681665,64dc7d0179bf61fd774411ad,,,,,,,decisionTrl,resources/DR.BMP,resources/DBN.BMP,Door2,-0.303333333,-0.084444444,1,0,0,1.859,optionLeft,20,12030,6,9,0,9,0,1,,,,,,,,,,,,,,,,,,,,,,,,,,,,,,,,,,,,,,,
,,,,,,,,2023-08-16_08h38.53.918,HF_wild_card,2022.2.4,Win32,61.65228113,63874f631a1cdae0188d4e7a,64d2fd46c836a06233681665,64dc7d0179bf61fd774411ad,,,,,,,sngl,resources/DY.BMP,resources/Empty.png,WildCard_NonEx,-0.27,-0.048888889,1,0,0,1.594,optionLeft,45,12075,6,10,0,10,0,1,,,,,,,,,,,,,,,,,,,,,,,,,,,,,,,,,,,,,,,
,,,,,,,,2023-08-16_08h38.53.918,HF_wild_card,2022.2.4,Win32,61.65228113,63874f631a1cdae0188d4e7a,64d2fd46c836a06233681665,64dc7d0179bf61fd774411ad,,,,,,,sngl,resources/Empty.png,resources/DB.BMP,Door3,0.412222222,-0.006666667,1,0,0,3.023,optionRight,70,12145,6,11,0,11,0,1,,,,,,,,,,,,,,,,,,,,,,,,,,,,,,,,,,,,,,,
,,,,,,,,2023-08-16_08h38.53.918,HF_wild_card,2022.2.4,Win32,61.65228113,63874f631a1cdae0188d4e7a,64d2fd46c836a06233681665,64dc7d0179bf61fd774411ad,,,,,,,decisionTrl,resources/DY.BMP,resources/DG.BMP,Door4,0.374444444,0.014444444,1,0,0,2.092,optionRight,80,12225,6,12,0,12,0,1,,,,,,,,,,,,,,,,,,,,,,,,,,,,,,,,,,,,,,,
,,,,,,,,2023-08-16_08h38.53.918,HF_wild_card,2022.2.4,Win32,61.65228113,63874f631a1cdae0188d4e7a,64d2fd46c836a06233681665,64dc7d0179bf61fd774411ad,,,,,,,sngl,resources/Empty.png,resources/DBN.BMP,Door1,0.397777778,-0.007777778,1,0,0,1.159,optionRight,30,12255,6,13,0,13,0,1,,,,,,,,,,,,,,,,,,,,,,,,,,,,,,,,,,,,,,,
,,,,,,,,2023-08-16_08h38.53.918,HF_wild_card,2022.2.4,Win32,61.65228113,63874f631a1cdae0188d4e7a,64d2fd46c836a06233681665,64dc7d0179bf61fd774411ad,,,,,,,ctch,resources/DR.BMP,resources/DB.BMP,Door3,0.277777778,0.005555556,1,0,0,1.659,optionRight,70,12325,6,14,0,14,0,1,,,,,,,,,,,,,,,,,,,,,,,,,,,,,,,,,,,,,,,
,,,,,,,,2023-08-16_08h38.53.918,HF_wild_card,2022.2.4,Win32,61.65228113,63874f631a1cdae0188d4e7a,64d2fd46c836a06233681665,64dc7d0179bf61fd774411ad,,,,,,,ctch,resources/DR.BMP,resources/DB.BMP,Door3,0.348888889,-0.003333333,1,0,0,1.278,optionRight,70,12395,6,15,0,15,0,1,,,,,,,,,,,,,,,,,,,,,,,,,,,,,,,,,,,,,,,
,,,,,,,,2023-08-16_08h38.53.918,HF_wild_card,2022.2.4,Win32,61.65228113,63874f631a1cdae0188d4e7a,64d2fd46c836a06233681665,64dc7d0179bf61fd774411ad,,,,,,,decisionTrl,resources/DB.BMP,resources/DG.BMP,Door4,0.4,0.003333333,1,0,0,1.394,optionRight,80,12475,6,16,0,16,0,1,,,,,,,,,,,,,,,,,,,,,,,,,,,,,,,,,,,,,,,
,,,,,,,,2023-08-16_08h38.53.918,HF_wild_card,2022.2.4,Win32,61.65228113,63874f631a1cdae0188d4e7a,64d2fd46c836a06233681665,64dc7d0179bf61fd774411ad,,,,,,,decisionTrl,resources/DR.BMP,resources/DBN.BMP,Door1,0.362222222,0.003333333,1,0,0,1.709,optionRight,30,12505,6,17,0,17,0,1,,,,,,,,,,,,,,,,,,,,,,,,,,,,,,,,,,,,,,,
,,,,,,,,2023-08-16_08h38.53.918,HF_wild_card,2022.2.4,Win32,61.65228113,63874f631a1cdae0188d4e7a,64d2fd46c836a06233681665,64dc7d0179bf61fd774411ad,,,,,,,decisionTrl,resources/DBN.BMP,resources/DR.BMP,Door1,-0.366666667,-0.033333333,1,0,0,1.326,optionLeft,30,12535,6,18,0,18,0,1,,,,,,,,,,,,,,,,,,,,,,,,,,,,,,,,,,,,,,,
,,,,,,,,2023-08-16_08h38.53.918,HF_wild_card,2022.2.4,Win32,61.65228113,63874f631a1cdae0188d4e7a,64d2fd46c836a06233681665,64dc7d0179bf61fd774411ad,,,,,,,decisionTrl,resources/DB.BMP,resources/DG.BMP,Door4,0.294444444,0.017777778,1,0,0,1.661,optionRight,80,12615,6,19,0,19,0,1,,,,,,,,,,,,,,,,,,,,,,,,,,,,,,,,,,,,,,,
,,,,,,,,2023-08-16_08h38.53.918,HF_wild_card,2022.2.4,Win32,61.65228113,63874f631a1cdae0188d4e7a,64d2fd46c836a06233681665,64dc7d0179bf61fd774411ad,,,,,,,sngl,resources/DG.BMP,resources/Empty.png,Door4,-0.275555556,-0.034444444,1,0,0,0.943,optionLeft,60,12675,6,20,0,20,0,1,,,,,,,,,,,,,,,,,,,,,,,,,,,,,,,,,,,,,,,
,,,,,,,,2023-08-16_08h38.53.918,HF_wild_card,2022.2.4,Win32,61.65228113,63874f631a1cdae0188d4e7a,64d2fd46c836a06233681665,64dc7d0179bf61fd774411ad,,,,,,,decisionTrl,resources/DB.BMP,resources/DG.BMP,Door3,-0.29,-0.031111111,1,0,0,1.076,optionLeft,70,12745,6,21,0,21,0,1,,,,,,,,,,,,,,,,,,,,,,,,,,,,,,,,,,,,,,,
,,,,,,,,2023-08-16_08h38.53.918,HF_wild_card,2022.2.4,Win32,61.65228113,63874f631a1cdae0188d4e7a,64d2fd46c836a06233681665,64dc7d0179bf61fd774411ad,,,,,,,ctch,resources/DB.BMP,resources/DR.BMP,Door3,-0.297777778,-0.025555556,1,0,0,1.694,optionLeft,70,12815,6,22,0,22,0,1,,,,,,,,,,,,,,,,,,,,,,,,,,,,,,,,,,,,,,,
,,,,,,,,2023-08-16_08h38.53.918,HF_wild_card,2022.2.4,Win32,61.65228113,63874f631a1cdae0188d4e7a,64d2fd46c836a06233681665,64dc7d0179bf61fd774411ad,,,,,,,decisionTrl,resources/DR.BMP,resources/DBN.BMP,Door1,0.385555556,0.018888889,1,0,0,1.473,optionRight,30,12845,6,23,0,23,0,1,,,,,,,,,,,,,,,,,,,,,,,,,,,,,,,,,,,,,,,
,,,,,,,,2023-08-16_08h38.53.918,HF_wild_card,2022.2.4,Win32,61.65228113,63874f631a1cdae0188d4e7a,64d2fd46c836a06233681665,64dc7d0179bf61fd774411ad,,,,,,,decisionTrl,resources/DY.BMP,resources/DB.BMP,Door3,0.348888889,-0.007777778,1,0,0,1.495,optionRight,70,12915,6,24,0,24,0,1,,,,,,,,,,,,,,,,,,,,,,,,,,,,,,,,,,,,,,,
,,,,,,,,2023-08-16_08h38.53.918,HF_wild_card,2022.2.4,Win32,61.65228113,63874f631a1cdae0188d4e7a,64d2fd46c836a06233681665,64dc7d0179bf61fd774411ad,,,,,,,decisionTrl,resources/DR.BMP,resources/DY.BMP,WildCard_NonEx,0.355555556,-0.008888889,1,0,0,1.777,optionRight,55,12970,6,25,0,25,0,1,,,,,,,,,,,,,,,,,,,,,,,,,,,,,,,,,,,,,,,
,,,,,,,,2023-08-16_08h38.53.918,HF_wild_card,2022.2.4,Win32,61.65228113,63874f631a1cdae0188d4e7a,64d2fd46c836a06233681665,64dc7d0179bf61fd774411ad,,,,,,,sngl,resources/DR.BMP,resources/Empty.png,Door2,-0.225555556,-0.035555556,1,0,0,1.026,optionLeft,20,12990,6,26,0,26,0,1,,,,,,,,,,,,,,,,,,,,,,,,,,,,,,,,,,,,,,,
,,,,,,,,2023-08-16_08h38.53.918,HF_wild_card,2022.2.4,Win32,61.65228113,63874f631a1cdae0188d4e7a,64d2fd46c836a06233681665,64dc7d0179bf61fd774411ad,,,,,,,sngl,resources/DBN.BMP,resources/Empty.png,Door1,-0.205555556,-0.031111111,1,0,0,0.927,optionLeft,30,13020,6,27,0,27,0,1,,,,,,,,,,,,,,,,,,,,,,,,,,,,,,,,,,,,,,,
,,,,,,,,2023-08-16_08h38.53.918,HF_wild_card,2022.2.4,Win32,61.65228113,63874f631a1cdae0188d4e7a,64d2fd46c836a06233681665,64dc7d0179bf61fd774411ad,,,,,,,sngl,resources/Empty.png,resources/DY.BMP,WildCard_NonEx,0.361111111,0.003333333,1,0,0,1.159,optionRight,45,13065,6,28,0,28,0,1,,,,,,,,,,,,,,,,,,,,,,,,,,,,,,,,,,,,,,,
,,,,,,,,2023-08-16_08h38.53.918,HF_wild_card,2022.2.4,Win32,61.65228113,63874f631a1cdae0188d4e7a,64d2fd46c836a06233681665,64dc7d0179bf61fd774411ad,,,,,,,decisionTrl,resources/DG.BMP,resources/DB.BMP,Door4,-0.224444444,-0.004444444,1,0,0,1.994,optionLeft,60,13125,6,29,0,29,0,1,,,,,,,,,,,,,,,,,,,,,,,,,,,,,,,,,,,,,,,
,,,,,,,,2023-08-16_08h38.53.918,HF_wild_card,2022.2.4,Win32,61.65228113,63874f631a1cdae0188d4e7a,64d2fd46c836a06233681665,64dc7d0179bf61fd774411ad,,,,,,,ctch,resources/DBN.BMP,resources/DG.BMP,Door4,0.372222222,0.016666667,1,0,0,1.058,optionRight,80,13205,6,30,0,30,0,1,,,,,,,,,,,,,,,,,,,,,,,,,,,,,,,,,,,,,,,
,,,,,,,,2023-08-16_08h38.53.918,HF_wild_card,2022.2.4,Win32,61.65228113,63874f631a1cdae0188d4e7a,64d2fd46c836a06233681665,64dc7d0179bf61fd774411ad,,,,,,,decisionTrl,resources/DBN.BMP,resources/DY.BMP,WildCard_NonEx,0.381111111,0.004444444,1,0,0,1.257,optionRight,55,13260,6,31,0,31,0,1,,,,,,,,,,,,,,,,,,,,,,,,,,,,,,,,,,,,,,,
,,,,,,,,2023-08-16_08h38.53.918,HF_wild_card,2022.2.4,Win32,61.65228113,63874f631a1cdae0188d4e7a,64d2fd46c836a06233681665,64dc7d0179bf61fd774411ad,,,,,,,sngl,resources/Empty.png,resources/DG.BMP,Door4,0.325555556,0.001111111,1,0,0,0.979,optionRight,80,13340,6,32,0,32,0,1,,,,,,,,,,,,,,,,,,,,,,,,,,,,,,,,,,,,,,,
,,,,,,,,2023-08-16_08h38.53.918,HF_wild_card,2022.2.4,Win32,61.65228113,63874f631a1cdae0188d4e7a,64d2fd46c836a06233681665,64dc7d0179bf61fd774411ad,,,,,,,decisionTrl,resources/DBN.BMP,resources/DR.BMP,Door1,-0.23,-0.014444444,1,0,0,1.592,optionLeft,30,13370,6,33,0,33,0,1,,,,,,,,,,,,,,,,,,,,,,,,,,,,,,,,,,,,,,,
,,,,,,,,2023-08-16_08h38.53.918,HF_wild_card,2022.2.4,Win32,61.65228113,63874f631a1cdae0188d4e7a,64d2fd46c836a06233681665,64dc7d0179bf61fd774411ad,,,,,,,decisionTrl,resources/DBN.BMP,resources/DR.BMP,Door1,-0.291111111,-0.02,1,0,0,0.91,optionLeft,30,13400,6,34,0,34,0,1,,,,,,,,,,,,,,,,,,,,,,,,,,,,,,,,,,,,,,,
,,,,,,,,2023-08-16_08h38.53.918,HF_wild_card,2022.2.4,Win32,61.65228113,63874f631a1cdae0188d4e7a,64d2fd46c836a06233681665,64dc7d0179bf61fd774411ad,,,,,,,decisionTrl,resources/DBN.BMP,resources/DR.BMP,Door1,-0.297777778,0.001111111,1,0,0,0.943,optionLeft,30,13430,6,35,0,35,0,1,,,,,,,,,,,,,,,,,,,,,,,,,,,,,,,,,,,,,,,
,,,,,,,,2023-08-16_08h38.53.918,HF_wild_card,2022.2.4,Win32,61.65228113,63874f631a1cdae0188d4e7a,64d2fd46c836a06233681665,64dc7d0179bf61fd774411ad,,,,,,,decisionTrl,resources/DB.BMP,resources/DG.BMP,Door4,0.285555556,0.014444444,1,0,0,2.109,optionRight,80,13510,6,36,0,36,0,1,,,,,,,,,,,,,,,,,,,,,,,,,,,,,,,,,,,,,,,
,,,,,,,,2023-08-16_08h38.53.918,HF_wild_card,2022.2.4,Win32,61.65228113,63874f631a1cdae0188d4e7a,64d2fd46c836a06233681665,64dc7d0179bf61fd774411ad,,,,,,,ctch,resources/DG.BMP,resources/DBN.BMP,Door4,-0.28,-0.02,1,0,0,1.343,optionLeft,80,13590,6,37,0,37,0,1,,,,,,,,,,,,,,,,,,,,,,,,,,,,,,,,,,,,,,,
,,,,,,,,2023-08-16_08h38.53.918,HF_wild_card,2022.2.4,Win32,61.65228113,63874f631a1cdae0188d4e7a,64d2fd46c836a06233681665,64dc7d0179bf61fd774411ad,,,,,,,decisionTrl,resources/DY.BMP,resources/DBN.BMP,WildCard_NonEx,-0.257777778,-0.025555556,1,0,0,2.939,optionLeft,55,13645,6,38,0,38,0,1,,,,,,,,,,,,,,,,,,,,,,,,,,,,,,,,,,,,,,,
,,,,,,,,2023-08-16_08h38.53.918,HF_wild_card,2022.2.4,Win32,61.65228113,63874f631a1cdae0188d4e7a,64d2fd46c836a06233681665,64dc7d0179bf61fd774411ad,,,,,,,decisionTrl,resources/DG.BMP,resources/DB.BMP,Door3,0.282222222,-0.007777778,1,0,0,1.724,optionRight,70,13715,6,39,0,39,0,1,,,,,,,,,,,,,,,,,,,,,,,,,,,,,,,,,,,,,,,
,,,,,,,,2023-08-16_08h38.53.918,HF_wild_card,2022.2.4,Win32,61.65228113,63874f631a1cdae0188d4e7a,64d2fd46c836a06233681665,64dc7d0179bf61fd774411ad,,,,,,,decisionTrl,resources/DB.BMP,resources/DY.BMP,Door3,-0.296666667,-0.027777778,1,0,0,1.525,optionLeft,70,13785,6,40,0,40,0,1,,,,,,,,,,,,,,,,,,,,,,,,,,,,,,,,,,,,,,,
,,,,,,,,2023-08-16_08h38.53.918,HF_wild_card,2022.2.4,Win32,61.65228113,63874f631a1cdae0188d4e7a,64d2fd46c836a06233681665,64dc7d0179bf61fd774411ad,,,,,,,decisionTrl,resources/DG.BMP,resources/DB.BMP,Door4,-0.258888889,-0.015555556,1,0,0,2.641,optionLeft,80,13865,6,41,0,41,0,1,,,,,,,,,,,,,,,,,,,,,,,,,,,,,,,,,,,,,,,
,,,,,,,,2023-08-16_08h38.53.918,HF_wild_card,2022.2.4,Win32,61.65228113,63874f631a1cdae0188d4e7a,64d2fd46c836a06233681665,64dc7d0179bf61fd774411ad,,,,,,,sngl,resources/DY.BMP,resources/Empty.png,WildCard_NonEx,-0.344444444,-0.022222222,1,0,0,1.076,optionLeft,55,13920,6,42,0,42,0,1,,,,,,,,,,,,,,,,,,,,,,,,,,,,,,,,,,,,,,,
,,,,,,,,2023-08-16_08h38.53.918,HF_wild_card,2022.2.4,Win32,61.65228113,63874f631a1cdae0188d4e7a,64d2fd46c836a06233681665,64dc7d0179bf61fd774411ad,,,,,,,ctch,resources/DG.BMP,resources/DBN.BMP,Door4,-0.35,-0.005555556,1,0,0,2.392,optionLeft,60,13980,6,43,0,43,0,1,,,,,,,,,,,,,,,,,,,,,,,,,,,,,,,,,,,,,,,
,,,,,,,,2023-08-16_08h38.53.918,HF_wild_card,2022.2.4,Win32,61.65228113,63874f631a1cdae0188d4e7a,64d2fd46c836a06233681665,64dc7d0179bf61fd774411ad,,,,,,,,,,,,,,,,,,,,,,,,,,5,0,5,0,1,,,,,,,,,,,,,,,,,,,,,,,,,,,,,,,,,,
,,,,,,,,2023-08-16_08h38.53.918,HF_wild_card,2022.2.4,Win32,61.65228113,63874f631a1cdae0188d4e7a,64d2fd46c836a06233681665,64dc7d0179bf61fd774411ad,,,,,,,decisionTrl,resources/DR.BMP,resources/DBN.BMP,Door1,0.295555556,-0.117777778,1,0,0,1.838,optionRight,30,14010,7,0,0,0,0,1,,,,,,,,,,,,,,,,,,,,,,,,,,,,,,,,,,,,,,,
,,,,,,,,2023-08-16_08h38.53.918,HF_wild_card,2022.2.4,Win32,61.65228113,63874f631a1cdae0188d4e7a,64d2fd46c836a06233681665,64dc7d0179bf61fd774411ad,,,,,,,ctch,resources/DG.BMP,resources/DBN.BMP,Door4,-0.326666667,-0.065555556,1,0,0,1.113,optionLeft,80,14090,7,1,0,1,0,1,,,,,,,,,,,,,,,,,,,,,,,,,,,,,,,,,,,,,,,
,,,,,,,,2023-08-16_08h38.53.918,HF_wild_card,2022.2.4,Win32,61.65228113,63874f631a1cdae0188d4e7a,64d2fd46c836a06233681665,64dc7d0179bf61fd774411ad,,,,,,,decisionTrl,resources/DR.BMP,resources/DBN.BMP,Door1,0.311111111,-0.014444444,1,0,0,1.28,optionRight,30,14120,7,2,0,2,0,1,,,,,,,,,,,,,,,,,,,,,,,,,,,,,,,,,,,,,,,
,,,,,,,,2023-08-16_08h38.53.918,HF_wild_card,2022.2.4,Win32,61.65228113,63874f631a1cdae0188d4e7a,64d2fd46c836a06233681665,64dc7d0179bf61fd774411ad,,,,,,,decisionTrl,resources/DB.BMP,resources/DG.BMP,Door4,0.275555556,-0.014444444,1,0,0,1.513,optionRight,60,14180,7,3,0,3,0,1,,,,,,,,,,,,,,,,,,,,,,,,,,,,,,,,,,,,,,,
,,,,,,,,2023-08-16_08h38.53.918,HF_wild_card,2022.2.4,Win32,61.65228113,63874f631a1cdae0188d4e7a,64d2fd46c836a06233681665,64dc7d0179bf61fd774411ad,,,,,,,ctch,resources/DR.BMP,resources/DB.BMP,Door3,0.292222222,-0.012222222,1,0,0,1.424,optionRight,70,14250,7,4,0,4,0,1,,,,,,,,,,,,,,,,,,,,,,,,,,,,,,,,,,,,,,,
,,,,,,,,2023-08-16_08h38.53.918,HF_wild_card,2022.2.4,Win32,61.65228113,63874f631a1cdae0188d4e7a,64d2fd46c836a06233681665,64dc7d0179bf61fd774411ad,,,,,,,decisionTrl,resources/DB.BMP,resources/DG.BMP,Door4,0.31,-0.014444444,1,0,0,1.72,optionRight,60,14310,7,5,0,5,0,1,,,,,,,,,,,,,,,,,,,,,,,,,,,,,,,,,,,,,,,
,,,,,,,,2023-08-16_08h38.53.918,HF_wild_card,2022.2.4,Win32,61.65228113,63874f631a1cdae0188d4e7a,64d2fd46c836a06233681665,64dc7d0179bf61fd774411ad,,,,,,,decisionTrl,resources/DB.BMP,resources/DG.BMP,Door3,-0.314444444,-0.036666667,1,0,0,1.364,optionLeft,70,14380,7,6,0,6,0,1,,,,,,,,,,,,,,,,,,,,,,,,,,,,,,,,,,,,,,,
,,,,,,,,2023-08-16_08h38.53.918,HF_wild_card,2022.2.4,Win32,61.65228113,63874f631a1cdae0188d4e7a,64d2fd46c836a06233681665,64dc7d0179bf61fd774411ad,,,,,,,ctch,resources/DR.BMP,resources/DB.BMP,Door3,0.372222222,-0.018888889,1,0,0,2.022,optionRight,70,14450,7,7,0,7,0,1,,,,,,,,,,,,,,,,,,,,,,,,,,,,,,,,,,,,,,,
,,,,,,,,2023-08-16_08h38.53.918,HF_wild_card,2022.2.4,Win32,61.65228113,63874f631a1cdae0188d4e7a,64d2fd46c836a06233681665,64dc7d0179bf61fd774411ad,,,,,,,decisionTrl,resources/DBN.BMP,resources/DR.BMP,Door1,-0.316666667,-0.016666667,1,0,0,1.578,optionLeft,30,14480,7,8,0,8,0,1,,,,,,,,,,,,,,,,,,,,,,,,,,,,,,,,,,,,,,,
,,,,,,,,2023-08-16_08h38.53.918,HF_wild_card,2022.2.4,Win32,61.65228113,63874f631a1cdae0188d4e7a,64d2fd46c836a06233681665,64dc7d0179bf61fd774411ad,,,,,,,decisionTrl,resources/DB.BMP,resources/DG.BMP,Door4,0.301111111,-0.001111111,1,0,0,1.646,optionRight,80,14560,7,9,0,9,0,1,,,,,,,,,,,,,,,,,,,,,,,,,,,,,,,,,,,,,,,
,,,,,,,,2023-08-16_08h38.53.918,HF_wild_card,2022.2.4,Win32,61.65228113,63874f631a1cdae0188d4e7a,64d2fd46c836a06233681665,64dc7d0179bf61fd774411ad,,,,,,,decisionTrl,resources/DBN.BMP,resources/DR.BMP,Door1,-0.322222222,-0.008888889,1,0,0,1.93,optionLeft,30,14590,7,10,0,10,0,1,,,,,,,,,,,,,,,,,,,,,,,,,,,,,,,,,,,,,,,
,,,,,,,,2023-08-16_08h38.53.918,HF_wild_card,2022.2.4,Win32,61.65228113,63874f631a1cdae0188d4e7a,64d2fd46c836a06233681665,64dc7d0179bf61fd774411ad,,,,,,,decisionTrl,resources/DG.BMP,resources/DB.BMP,Door4,-0.257777778,-0.031111111,1,0,0,2.978,optionLeft,60,14650,7,11,0,11,0,1,,,,,,,,,,,,,,,,,,,,,,,,,,,,,,,,,,,,,,,
,,,,,,,,2023-08-16_08h38.53.918,HF_wild_card,2022.2.4,Win32,61.65228113,63874f631a1cdae0188d4e7a,64d2fd46c836a06233681665,64dc7d0179bf61fd774411ad,,,,,,,ctch,resources/DBN.BMP,resources/DG.BMP,Door4,0.316666667,-0.005555556,1,0,0,1.325,optionRight,60,14710,7,12,0,12,0,1,,,,,,,,,,,,,,,,,,,,,,,,,,,,,,,,,,,,,,,
,,,,,,,,2023-08-16_08h38.53.918,HF_wild_card,2022.2.4,Win32,61.65228113,63874f631a1cdae0188d4e7a,64d2fd46c836a06233681665,64dc7d0179bf61fd774411ad,,,,,,,decisionTrl,resources/DR.BMP,resources/DBN.BMP,Door1,0.332222222,-0.004444444,1,0,0,1.629,optionRight,30,14740,7,13,0,13,0,1,,,,,,,,,,,,,,,,,,,,,,,,,,,,,,,,,,,,,,,
,,,,,,,,2023-08-16_08h38.53.918,HF_wild_card,2022.2.4,Win32,61.65228113,63874f631a1cdae0188d4e7a,64d2fd46c836a06233681665,64dc7d0179bf61fd774411ad,,,,,,,decisionTrl,resources/DBN.BMP,resources/DR.BMP,Door1,-0.321111111,-0.016666667,1,0,0,2.097,optionLeft,30,14770,7,14,0,14,0,1,,,,,,,,,,,,,,,,,,,,,,,,,,,,,,,,,,,,,,,
,,,,,,,,2023-08-16_08h38.53.918,HF_wild_card,2022.2.4,Win32,61.65228113,63874f631a1cdae0188d4e7a,64d2fd46c836a06233681665,64dc7d0179bf61fd774411ad,,,,,,,decisionTrl,resources/DG.BMP,resources/DB.BMP,Door3,0.235555556,-0.018888889,1,0,0,1.931,optionRight,70,14840,7,15,0,15,0,1,,,,,,,,,,,,,,,,,,,,,,,,,,,,,,,,,,,,,,,
,,,,,,,,2023-08-16_08h38.53.918,HF_wild_card,2022.2.4,Win32,61.65228113,63874f631a1cdae0188d4e7a,64d2fd46c836a06233681665,64dc7d0179bf61fd774411ad,,,,,,,decisionTrl,resources/DB.BMP,resources/DG.BMP,Door3,-0.247777778,-0.048888889,1,0,0,1.139,optionLeft,70,14910,7,16,0,16,0,1,,,,,,,,,,,,,,,,,,,,,,,,,,,,,,,,,,,,,,,
,,,,,,,,2023-08-16_08h38.53.918,HF_wild_card,2022.2.4,Win32,61.65228113,63874f631a1cdae0188d4e7a,64d2fd46c836a06233681665,64dc7d0179bf61fd774411ad,,,,,,,decisionTrl,resources/DG.BMP,resources/DB.BMP,Door4,-0.321111111,-0.04,1,0,0,1.293,optionLeft,60,14970,7,17,0,17,0,1,,,,,,,,,,,,,,,,,,,,,,,,,,,,,,,,,,,,,,,
,,,,,,,,2023-08-16_08h38.53.918,HF_wild_card,2022.2.4,Win32,61.65228113,63874f631a1cdae0188d4e7a,64d2fd46c836a06233681665,64dc7d0179bf61fd774411ad,,,,,,,decisionTrl,resources/DG.BMP,resources/DB.BMP,Door4,-0.266666667,-0.051111111,1,0,0,1.179,optionLeft,80,15050,7,18,0,18,0,1,,,,,,,,,,,,,,,,,,,,,,,,,,,,,,,,,,,,,,,
,,,,,,,,2023-08-16_08h38.53.918,HF_wild_card,2022.2.4,Win32,61.65228113,63874f631a1cdae0188d4e7a,64d2fd46c836a06233681665,64dc7d0179bf61fd774411ad,,,,,,,decisionTrl,resources/DR.BMP,resources/DBN.BMP,Door1,0.34,0.054444444,1,0,0,1.48,optionRight,30,15080,7,19,0,19,0,1,,,,,,,,,,,,,,,,,,,,,,,,,,,,,,,,,,,,,,,
,,,,,,,,2023-08-16_08h38.53.918,HF_wild_card,2022.2.4,Win32,61.65228113,63874f631a1cdae0188d4e7a,64d2fd46c836a06233681665,64dc7d0179bf61fd774411ad,,,,,,,ctch,resources/DB.BMP,resources/DR.BMP,Door3,-0.335555556,-0.073333333,1,0,0,2.512,optionLeft,70,15150,7,20,0,20,0,1,,,,,,,,,,,,,,,,,,,,,,,,,,,,,,,,,,,,,,,
,,,,,,,,2023-08-16_08h38.53.918,HF_wild_card,2022.2.4,Win32,61.65228113,63874f631a1cdae0188d4e7a,64d2fd46c836a06233681665,64dc7d0179bf61fd774411ad,,,,,,,decisionTrl,resources/DR.BMP,resources/DBN.BMP,Door1,0.294444444,0.013333333,1,0,0,1.245,optionRight,30,15180,7,21,0,21,0,1,,,,,,,,,,,,,,,,,,,,,,,,,,,,,,,,,,,,,,,
,,,,,,,,2023-08-16_08h38.53.918,HF_wild_card,2022.2.4,Win32,61.65228113,63874f631a1cdae0188d4e7a,64d2fd46c836a06233681665,64dc7d0179bf61fd774411ad,,,,,,,decisionTrl,resources/DG.BMP,resources/DB.BMP,Door3,0.314444444,-0.007777778,1,0,0,2.044,optionRight,70,15250,7,22,0,22,0,1,,,,,,,,,,,,,,,,,,,,,,,,,,,,,,,,,,,,,,,
,,,,,,,,2023-08-16_08h38.53.918,HF_wild_card,2022.2.4,Win32,61.65228113,63874f631a1cdae0188d4e7a,64d2fd46c836a06233681665,64dc7d0179bf61fd774411ad,,,,,,,ctch,resources/DBN.BMP,resources/DG.BMP,Door4,0.332222222,0.024444444,1,0,0,1.33,optionRight,60,15310,7,23,0,23,0,1,,,,,,,,,,,,,,,,,,,,,,,,,,,,,,,,,,,,,,,
,,,,,,,,2023-08-16_08h38.53.918,HF_wild_card,2022.2.4,Win32,61.65228113,63874f631a1cdae0188d4e7a,64d2fd46c836a06233681665,64dc7d0179bf61fd774411ad,,,,,,,decisionTrl,resources/DBN.BMP,resources/DR.BMP,Door1,-0.277777778,-0.038888889,1,0,0,1.38,optionLeft,30,15340,7,24,0,24,0,1,,,,,,,,,,,,,,,,,,,,,,,,,,,,,,,,,,,,,,,
,,,,,,,,2023-08-16_08h38.53.918,HF_wild_card,2022.2.4,Win32,61.65228113,63874f631a1cdae0188d4e7a,64d2fd46c836a06233681665,64dc7d0179bf61fd774411ad,,,,,,,ctch,resources/DG.BMP,resources/DBN.BMP,Door4,-0.294444444,-0.041111111,1,0,0,1.83,optionLeft,80,15420,7,25,0,25,0,1,,,,,,,,,,,,,,,,,,,,,,,,,,,,,,,,,,,,,,,
,,,,,,,,2023-08-16_08h38.53.918,HF_wild_card,2022.2.4,Win32,61.65228113,63874f631a1cdae0188d4e7a,64d2fd46c836a06233681665,64dc7d0179bf61fd774411ad,,,,,,,ctch,resources/DG.BMP,resources/DBN.BMP,Door4,-0.302222222,-0.063333333,1,0,0,1.231,optionLeft,60,15480,7,26,0,26,0,1,,,,,,,,,,,,,,,,,,,,,,,,,,,,,,,,,,,,,,,
,,,,,,,,2023-08-16_08h38.53.918,HF_wild_card,2022.2.4,Win32,61.65228113,63874f631a1cdae0188d4e7a,64d2fd46c836a06233681665,64dc7d0179bf61fd774411ad,,,,,,,decisionTrl,resources/DBN.BMP,resources/DR.BMP,Door1,-0.318888889,-0.02,1,0,0,2.009,optionLeft,30,15510,7,27,0,27,0,1,,,,,,,,,,,,,,,,,,,,,,,,,,,,,,,,,,,,,,,
,,,,,,,,2023-08-16_08h38.53.918,HF_wild_card,2022.2.4,Win32,61.65228113,63874f631a1cdae0188d4e7a,64d2fd46c836a06233681665,64dc7d0179bf61fd774411ad,,,,,,,ctch,resources/DB.BMP,resources/DR.BMP,Door3,-0.291111111,-0.02,1,0,0,2.029,optionLeft,70,15580,7,28,0,28,0,1,,,,,,,,,,,,,,,,,,,,,,,,,,,,,,,,,,,,,,,
,,,,,,,,2023-08-16_08h38.53.918,HF_wild_card,2022.2.4,Win32,61.65228113,63874f631a1cdae0188d4e7a,64d2fd46c836a06233681665,64dc7d0179bf61fd774411ad,,,,,,,decisionTrl,resources/DBN.BMP,resources/DR.BMP,Door1,-0.375555556,-0.03,1,0,0,1.58,optionLeft,30,15610,7,29,0,29,0,1,,,,,,,,,,,,,,,,,,,,,,,,,,,,,,,,,,,,,,,
,,,,,,,,2023-08-16_08h38.53.918,HF_wild_card,2022.2.4,Win32,61.65228113,63874f631a1cdae0188d4e7a,64d2fd46c836a06233681665,64dc7d0179bf61fd774411ad,,,,,,,ctch,resources/DR.BMP,resources/DB.BMP,Door3,0.287777778,0.022222222,1,0,0,1.978,optionRight,70,15680,7,30,0,30,0,1,,,,,,,,,,,,,,,,,,,,,,,,,,,,,,,,,,,,,,,
,,,,,,,,2023-08-16_08h38.53.918,HF_wild_card,2022.2.4,Win32,61.65228113,63874f631a1cdae0188d4e7a,64d2fd46c836a06233681665,64dc7d0179bf61fd774411ad,,,,,,,decisionTrl,resources/DG.BMP,resources/DB.BMP,Door4,-0.306666667,-0.052222222,1,0,0,1.514,optionLeft,80,15760,7,31,0,31,0,1,,,,,,,,,,,,,,,,,,,,,,,,,,,,,,,,,,,,,,,
,,,,,,,,2023-08-16_08h38.53.918,HF_wild_card,2022.2.4,Win32,61.65228113,63874f631a1cdae0188d4e7a,64d2fd46c836a06233681665,64dc7d0179bf61fd774411ad,,,,,,,decisionTrl,resources/DR.BMP,resources/DBN.BMP,Door1,0.268888889,0.015555556,1,0,0,1.381,optionRight,30,15790,7,32,0,32,0,1,,,,,,,,,,,,,,,,,,,,,,,,,,,,,,,,,,,,,,,
,,,,,,,,2023-08-16_08h38.53.918,HF_wild_card,2022.2.4,Win32,61.65228113,63874f631a1cdae0188d4e7a,64d2fd46c836a06233681665,64dc7d0179bf61fd774411ad,,,,,,,ctch,resources/DB.BMP,resources/DR.BMP,Door3,-0.31,-0.106666667,1,0,0,1.994,optionLeft,70,15860,7,33,0,33,0,1,,,,,,,,,,,,,,,,,,,,,,,,,,,,,,,,,,,,,,,
,,,,,,,,2023-08-16_08h38.53.918,HF_wild_card,2022.2.4,Win32,61.65228113,63874f631a1cdae0188d4e7a,64d2fd46c836a06233681665,64dc7d0179bf61fd774411ad,,,,,,,ctch,resources/DBN.BMP,resources/DG.BMP,Door4,0.308888889,-0.01,1,0,0,1.347,optionRight,60,15920,7,34,0,34,0,1,,,,,,,,,,,,,,,,,,,,,,,,,,,,,,,,,,,,,,,
,,,,,,,,2023-08-16_08h38.53.918,HF_wild_card,2022.2.4,Win32,61.65228113,63874f631a1cdae0188d4e7a,64d2fd46c836a06233681665,64dc7d0179bf61fd774411ad,,,,,,,decisionTrl,resources/DB.BMP,resources/DG.BMP,Door4,0.377777778,-0.031111111,1,0,0,3.593,optionRight,80,16000,7,35,0,35,0,1,,,,,,,,,,,,,,,,,,,,,,,,,,,,,,,,,,,,,,,
,,,,,,,,2023-08-16_08h38.53.918,HF_wild_card,2022.2.4,Win32,61.65228113,63874f631a1cdae0188d4e7a,64d2fd46c836a06233681665,64dc7d0179bf61fd774411ad,,,,,,,,,,,,,,,,,,,,,,,,,,6,0,6,0,1,,,,,,,,,,,,,,,,,,,,,,,,,,,,,,,,,,
,,,,,,,,2023-08-16_08h38.53.918,HF_wild_card,2022.2.4,Win32,61.65228113,63874f631a1cdae0188d4e7a,64d2fd46c836a06233681665,64dc7d0179bf61fd774411ad,,,,,,,,,,,,,,,,,,,,,,,,,,,,,,,4,,,,,,,,,,,,,,,,,,,,,,,,,,,,,,,,,
,,,,,,,,2023-08-16_08h38.53.918,HF_wild_card,2022.2.4,Win32,61.65228113,63874f631a1cdae0188d4e7a,64d2fd46c836a06233681665,64dc7d0179bf61fd774411ad,,,,,,,,,,,,,,,,,,,,,,,,,,,,,,,,,,,,,,,,,,,,,,,,,,,,,,,,,,,,,,,,
,,,,,,,,2023-08-16_08h38.53.918,HF_wild_card,2022.2.4,Win32,61.65228113,63874f631a1cdae0188d4e7a,64d2fd46c836a06233681665,64dc7d0179bf61fd774411ad,,,,,,,,,,,,,,,,,,,,,,,,,,,,,,,,55,WC_nonExtreme,resources/DY.BMP,0,0,0,0,1,,,,,,,,,,,,,,,,,,,,,,,,,
,,,,,,,,2023-08-16_08h38.53.918,HF_wild_card,2022.2.4,Win32,61.65228113,63874f631a1cdae0188d4e7a,64d2fd46c836a06233681665,64dc7d0179bf61fd774411ad,,,,,,,,,,,,,,,,,,,,,,,,,,,,,,,,30,Door1,resources/DBN.BMP,1,0,1,0,1,,,,,,,,,,,,,,,,,,,,,,,,,
,,,,,,,,2023-08-16_08h38.53.918,HF_wild_card,2022.2.4,Win32,61.65228113,63874f631a1cdae0188d4e7a,64d2fd46c836a06233681665,64dc7d0179bf61fd774411ad,,,,,,,,,,,,,,,,,,,,,,,,,,,,,,,,70,Door3,resources/DB.BMP,2,0,2,0,1,,,,,,,,,,,,,,,,,,,,,,,,,
,,,,,,,,2023-08-16_08h38.53.918,HF_wild_card,2022.2.4,Win32,61.65228113,63874f631a1cdae0188d4e7a,64d2fd46c836a06233681665,64dc7d0179bf61fd774411ad,,,,,,,,,,,,,,,,,,,,,,,,,,,,,,,,20,Door2,resources/DR.BMP,3,0,3,0,1,,,,,,,,,,,,,,,,,,,,,,,,,
,,,,,,,,2023-08-16_08h38.53.918,HF_wild_card,2022.2.4,Win32,61.65228113,63874f631a1cdae0188d4e7a,64d2fd46c836a06233681665,64dc7d0179bf61fd774411ad,,,,,,,,,,,,,,,,,,,,,,,,,,,,,,,,95,WC_extreme,resources/DP.BMP,4,0,4,0,1,,,,,,,,,,,,,,,,,,,,,,,,,
,,,,,,,,2023-08-16_08h38.53.918,HF_wild_card,2022.2.4,Win32,61.65228113,63874f631a1cdae0188d4e7a,64d2fd46c836a06233681665,64dc7d0179bf61fd774411ad,,,,,,,,,,,,,,,,,,,,,,,,,,,,,,,,80,Door4,resources/DG.BMP,5,0,5,0,1,,,,,,,,,,,,,,,,,,,,,,,,,
,,,,,,,,2023-08-16_08h38.53.918,HF_wild_card,2022.2.4,Win32,61.65228113,63874f631a1cdae0188d4e7a,64d2fd46c836a06233681665,64dc7d0179bf61fd774411ad,,,,,,,,,,,,,,,,,,,,,,,,,,,,,,,,,,,,,,,,,,,,,,,,,,,,,,,,,,,,,,,,
,,,,,,,,2023-08-16_08h38.53.918,HF_wild_card,2022.2.4,Win32,61.65228113,63874f631a1cdae0188d4e7a,64d2fd46c836a06233681665,64dc7d0179bf61fd774411ad,,,,,,,,,,,,,,,,,,,,,,,,,,,,,,,,,,,,,,,,0,0,0,0,1,,,,,,,,,,,,,,,,,,,,
,,,,,,,,2023-08-16_08h38.53.918,HF_wild_card,2022.2.4,Win32,61.65228113,63874f631a1cdae0188d4e7a,64d2fd46c836a06233681665,64dc7d0179bf61fd774411ad,,,,,,,,,,,,,,,,,,,,,,,,,,,,,,,,,,,,,,,,1,0,1,0,1,,,,,,,,,,,,,,,,,,,,
,,,,,,,,2023-08-16_08h38.53.918,HF_wild_card,2022.2.4,Win32,61.65228113,63874f631a1cdae0188d4e7a,64d2fd46c836a06233681665,64dc7d0179bf61fd774411ad,,,,,,,,,,,,,,,,,,,,,,,,,,,,,,,,,,,,,,,,,,,,,-0.261111111,-0.418888889,1,0,0,yes,0%,75%,Door3,resources/DB.BMP,0,0,0,0,1,,,,,
