Condition,Low fixed image (Door1),Low risky image (Door2),High fixed image (Door3),High risky image (Door4),NonExtreme Wild Card 1,NonExtreme Wild Card 2,,date,expName,psychopyVersion,OS,frameRate,PROLIFIC_PID,STUDY_ID,SESSION_ID,mouse_2.x,mouse_2.y,mouse_2.leftButton,mouse_2.midButton,mouse_2.rightButton,mouse_2.clicked_name,Trial Type,Left Option Image,Right Option Image,Chosen Door,mouse.x,mouse.y,mouse.leftButton,mouse.midButton,mouse.rightButton,mouse.time,mouse.clicked_name,Feedback,Cumulative Reward,Block,trial.thisRepN,trial.thisTrialN,trial.thisN,trial.thisIndex,trial.ran,blocks.thisRepN,blocks.thisTrialN,blocks.thisN,blocks.thisIndex,blocks.ran,Money conversion,First Outcome Reported,Shown Door (First Outcome),Displayed Image (First Outcome),outcomes.thisRepN,outcomes.thisTrialN,outcomes.thisN,outcomes.thisIndex,outcomes.ran,judgments.thisRepN,judgments.thisTrialN,judgments.thisN,judgments.thisIndex,judgments.ran,freqMouse.x,freqMouse.y,freqMouse.leftButton,freqMouse.midButton,freqMouse.rightButton,freqMouse.clicked_name,FQJ for first outcome,FQJ for second outcome,Shown Door,Displayed Image,trials.thisRepN,trials.thisTrialN,trials.thisN,trials.thisIndex,trials.ran,judgBlock.thisRepN,judgBlock.thisTrialN,judgBlock.thisN,judgBlock.thisIndex,judgBlock.ran
2,resources/DB.BMP,resources/DP.BMP,resources/DY.BMP,resources/DR.BMP,resources/DBN.BMP,resources/DG.BMP,,2023-08-06_08h28.44.784,HF_wild_card,2022.2.4,Linux x86_64,60.04563468,5c197c9c020cbb00011201fe,64ce5acb97489d65b14ecc7a,64cf4b7eb9e85d800069566b,,,,,,,,,,,,,,,,,,,,,,,,,,,,,,,,,,,,,,,,,,,,,,,,,,,,,,,,,,,,,,,,
,,,,,,,,2023-08-06_08h28.44.784,HF_wild_card,2022.2.4,Linux x86_64,60.04563468,5c197c9c020cbb00011201fe,64ce5acb97489d65b14ecc7a,64cf4b7eb9e85d800069566b,0.029084269,-0.411315466,1,0,0,agree,,,,,,,,,,,,,,,,,,,,,,,,,,,,,,,,,,,,,,,,,,,,,,,,,,,,,,,,,,
,,,,,,,,2023-08-06_08h28.44.784,HF_wild_card,2022.2.4,Linux x86_64,60.04563468,5c197c9c020cbb00011201fe,64ce5acb97489d65b14ecc7a,64cf4b7eb9e85d800069566b,,,,,,,,,,,,,,,,,,,,,,,,,,,,,,,,,,,,,,,,,,,,,,,,,,,,,,,,,,,,,,,,
,,,,,,,,2023-08-06_08h28.44.784,HF_wild_card,2022.2.4,Linux x86_64,60.04563468,5c197c9c020cbb00011201fe,64ce5acb97489d65b14ecc7a,64cf4b7eb9e85d800069566b,,,,,,,decisionTrl,resources/DY.BMP,resources/DG.BMP,WildCard_NonEx,0.308441049,-0.177702897,1,0,0,13.1729,optionRight,45,45,1,0,0,0,0,1,,,,,,,,,,,,,,,,,,,,,,,,,,,,,,,,,,,,,,,
,,,,,,,,2023-08-06_08h28.44.784,HF_wild_card,2022.2.4,Linux x86_64,60.04563468,5c197c9c020cbb00011201fe,64ce5acb97489d65b14ecc7a,64cf4b7eb9e85d800069566b,,,,,,,decisionTrl,resources/DP.BMP,resources/DG.BMP,Door2,-0.300512865,-0.091152841,1,0,0,4.263,optionLeft,20,65,1,1,0,1,0,1,,,,,,,,,,,,,,,,,,,,,,,,,,,,,,,,,,,,,,,
,,,,,,,,2023-08-06_08h28.44.784,HF_wild_card,2022.2.4,Linux x86_64,60.04563468,5c197c9c020cbb00011201fe,64ce5acb97489d65b14ecc7a,64cf4b7eb9e85d800069566b,,,,,,,sngl,resources/Empty.png,resources/DB.BMP,Door1,0.406475039,-0.01433631,1,0,0,2.7039,optionRight,30,95,1,2,0,2,0,1,,,,,,,,,,,,,,,,,,,,,,,,,,,,,,,,,,,,,,,
,,,,,,,,2023-08-06_08h28.44.784,HF_wild_card,2022.2.4,Linux x86_64,60.04563468,5c197c9c020cbb00011201fe,64ce5acb97489d65b14ecc7a,64cf4b7eb9e85d800069566b,,,,,,,sngl,resources/Empty.png,resources/DY.BMP,Door3,0.324784908,-0.01961749,1,0,0,1.7368,optionRight,70,165,1,3,0,3,0,1,,,,,,,,,,,,,,,,,,,,,,,,,,,,,,,,,,,,,,,
,,,,,,,,2023-08-06_08h28.44.784,HF_wild_card,2022.2.4,Linux x86_64,60.04563468,5c197c9c020cbb00011201fe,64ce5acb97489d65b14ecc7a,64cf4b7eb9e85d800069566b,,,,,,,decisionTrl,resources/DR.BMP,resources/DG.BMP,WildCard_NonEx,0.450007347,-0.010938461,1,0,0,2.2209,optionRight,45,210,1,4,0,4,0,1,,,,,,,,,,,,,,,,,,,,,,,,,,,,,,,,,,,,,,,
,,,,,,,,2023-08-06_08h28.44.784,HF_wild_card,2022.2.4,Linux x86_64,60.04563468,5c197c9c020cbb00011201fe,64ce5acb97489d65b14ecc7a,64cf4b7eb9e85d800069566b,,,,,,,decisionTrl,resources/DR.BMP,resources/DY.BMP,Door3,0.380530689,-0.007000054,1,0,0,1.8348,optionRight,70,280,1,5,0,5,0,1,,,,,,,,,,,,,,,,,,,,,,,,,,,,,,,,,,,,,,,
,,,,,,,,2023-08-06_08h28.44.784,HF_wild_card,2022.2.4,Linux x86_64,60.04563468,5c197c9c020cbb00011201fe,64ce5acb97489d65b14ecc7a,64cf4b7eb9e85d800069566b,,,,,,,decisionTrl,resources/DP.BMP,resources/DB.BMP,Door1,0.391462651,-0.091519165,1,0,0,4.8876,optionRight,30,310,1,6,0,6,0,1,,,,,,,,,,,,,,,,,,,,,,,,,,,,,,,,,,,,,,,
,,,,,,,,2023-08-06_08h28.44.784,HF_wild_card,2022.2.4,Linux x86_64,60.04563468,5c197c9c020cbb00011201fe,64ce5acb97489d65b14ecc7a,64cf4b7eb9e85d800069566b,,,,,,,decisionTrl,resources/DR.BMP,resources/DY.BMP,Door3,0.360697202,-0.02594548,1,0,0,1.9569,optionRight,70,380,1,7,0,7,0,1,,,,,,,,,,,,,,,,,,,,,,,,,,,,,,,,,,,,,,,
,,,,,,,,2023-08-06_08h28.44.784,HF_wild_card,2022.2.4,Linux x86_64,60.04563468,5c197c9c020cbb00011201fe,64ce5acb97489d65b14ecc7a,64cf4b7eb9e85d800069566b,,,,,,,sngl,resources/DY.BMP,resources/Empty.png,Door3,-0.46837178,0.02431748,1,0,0,1.6944,optionLeft,70,450,1,8,0,8,0,1,,,,,,,,,,,,,,,,,,,,,,,,,,,,,,,,,,,,,,,
,,,,,,,,2023-08-06_08h28.44.784,HF_wild_card,2022.2.4,Linux x86_64,60.04563468,5c197c9c020cbb00011201fe,64ce5acb97489d65b14ecc7a,64cf4b7eb9e85d800069566b,,,,,,,ctch,resources/DB.BMP,resources/DR.BMP,Door4,0.365707397,-0.096127771,1,0,0,3.2001,optionRight,80,530,1,9,0,9,0,1,,,,,,,,,,,,,,,,,,,,,,,,,,,,,,,,,,,,,,,
,,,,,,,,2023-08-06_08h28.44.784,HF_wild_card,2022.2.4,Linux x86_64,60.04563468,5c197c9c020cbb00011201fe,64ce5acb97489d65b14ecc7a,64cf4b7eb9e85d800069566b,,,,,,,sngl,resources/DG.BMP,resources/Empty.png,WildCard_NonEx,-0.371717608,0.003742868,1,0,0,2.1187,optionLeft,55,585,1,10,0,10,0,1,,,,,,,,,,,,,,,,,,,,,,,,,,,,,,,,,,,,,,,
,,,,,,,,2023-08-06_08h28.44.784,HF_wild_card,2022.2.4,Linux x86_64,60.04563468,5c197c9c020cbb00011201fe,64ce5acb97489d65b14ecc7a,64cf4b7eb9e85d800069566b,,,,,,,decisionTrl,resources/DB.BMP,resources/DP.BMP,Door2,0.413151268,-0.035374281,1,0,0,4.5534,optionRight,40,625,1,11,0,11,0,1,,,,,,,,,,,,,,,,,,,,,,,,,,,,,,,,,,,,,,,
,,,,,,,,2023-08-06_08h28.44.784,HF_wild_card,2022.2.4,Linux x86_64,60.04563468,5c197c9c020cbb00011201fe,64ce5acb97489d65b14ecc7a,64cf4b7eb9e85d800069566b,,,,,,,decisionTrl,resources/DR.BMP,resources/DY.BMP,Door4,-0.340534238,-0.055887689,1,0,0,1.7709,optionLeft,80,705,1,12,0,12,0,1,,,,,,,,,,,,,,,,,,,,,,,,,,,,,,,,,,,,,,,
,,,,,,,,2023-08-06_08h28.44.784,HF_wild_card,2022.2.4,Linux x86_64,60.04563468,5c197c9c020cbb00011201fe,64ce5acb97489d65b14ecc7a,64cf4b7eb9e85d800069566b,,,,,,,sngl,resources/DR.BMP,resources/Empty.png,Door4,-0.378952252,-0.007448437,1,0,0,1.7582,optionLeft,80,785,1,13,0,13,0,1,,,,,,,,,,,,,,,,,,,,,,,,,,,,,,,,,,,,,,,
,,,,,,,,2023-08-06_08h28.44.784,HF_wild_card,2022.2.4,Linux x86_64,60.04563468,5c197c9c020cbb00011201fe,64ce5acb97489d65b14ecc7a,64cf4b7eb9e85d800069566b,,,,,,,ctch,resources/DR.BMP,resources/DB.BMP,Door4,-0.366184828,-0.028791413,1,0,0,2.1583,optionLeft,60,845,1,14,0,14,0,1,,,,,,,,,,,,,,,,,,,,,,,,,,,,,,,,,,,,,,,
,,,,,,,,2023-08-06_08h28.44.784,HF_wild_card,2022.2.4,Linux x86_64,60.04563468,5c197c9c020cbb00011201fe,64ce5acb97489d65b14ecc7a,64cf4b7eb9e85d800069566b,,,,,,,sngl,resources/DP.BMP,resources/Empty.png,Door2,-0.410390331,-0.050593849,1,0,0,1.8104,optionLeft,40,885,1,15,0,15,0,1,,,,,,,,,,,,,,,,,,,,,,,,,,,,,,,,,,,,,,,
,,,,,,,,2023-08-06_08h28.44.784,HF_wild_card,2022.2.4,Linux x86_64,60.04563468,5c197c9c020cbb00011201fe,64ce5acb97489d65b14ecc7a,64cf4b7eb9e85d800069566b,,,,,,,ctch,resources/DB.BMP,resources/DR.BMP,Door4,0.471673584,-0.016507015,1,0,0,1.8873,optionRight,80,965,1,16,0,16,0,1,,,,,,,,,,,,,,,,,,,,,,,,,,,,,,,,,,,,,,,
,,,,,,,,2023-08-06_08h28.44.784,HF_wild_card,2022.2.4,Linux x86_64,60.04563468,5c197c9c020cbb00011201fe,64ce5acb97489d65b14ecc7a,64cf4b7eb9e85d800069566b,,,,,,,decisionTrl,resources/DB.BMP,resources/DG.BMP,WildCard_NonEx,0.520218574,-0.04245046,1,0,0,2.2707,optionRight,45,1010,1,17,0,17,0,1,,,,,,,,,,,,,,,,,,,,,,,,,,,,,,,,,,,,,,,
,,,,,,,,2023-08-06_08h28.44.784,HF_wild_card,2022.2.4,Linux x86_64,60.04563468,5c197c9c020cbb00011201fe,64ce5acb97489d65b14ecc7a,64cf4b7eb9e85d800069566b,,,,,,,sngl,resources/DG.BMP,resources/Empty.png,WildCard_NonEx,-0.363825763,0.028225906,1,0,0,1.7069,optionLeft,45,1055,1,18,0,18,0,1,,,,,,,,,,,,,,,,,,,,,,,,,,,,,,,,,,,,,,,
,,,,,,,,2023-08-06_08h28.44.784,HF_wild_card,2022.2.4,Linux x86_64,60.04563468,5c197c9c020cbb00011201fe,64ce5acb97489d65b14ecc7a,64cf4b7eb9e85d800069566b,,,,,,,decisionTrl,resources/DY.BMP,resources/DR.BMP,Door4,0.345236997,-0.048426762,1,0,0,2.1535,optionRight,80,1135,1,19,0,19,0,1,,,,,,,,,,,,,,,,,,,,,,,,,,,,,,,,,,,,,,,
,,,,,,,,2023-08-06_08h28.44.784,HF_wild_card,2022.2.4,Linux x86_64,60.04563468,5c197c9c020cbb00011201fe,64ce5acb97489d65b14ecc7a,64cf4b7eb9e85d800069566b,,,,,,,decisionTrl,resources/DG.BMP,resources/DB.BMP,WildCard_NonEx,-0.353899242,0.016386357,1,0,0,2.5908,optionLeft,55,1190,1,20,0,20,0,1,,,,,,,,,,,,,,,,,,,,,,,,,,,,,,,,,,,,,,,
,,,,,,,,2023-08-06_08h28.44.784,HF_wild_card,2022.2.4,Linux x86_64,60.04563468,5c197c9c020cbb00011201fe,64ce5acb97489d65b14ecc7a,64cf4b7eb9e85d800069566b,,,,,,,decisionTrl,resources/DB.BMP,resources/DP.BMP,Door2,0.439626849,-0.067060004,1,0,0,2.9732,optionRight,40,1230,1,21,0,21,0,1,,,,,,,,,,,,,,,,,,,,,,,,,,,,,,,,,,,,,,,
,,,,,,,,2023-08-06_08h28.44.784,HF_wild_card,2022.2.4,Linux x86_64,60.04563468,5c197c9c020cbb00011201fe,64ce5acb97489d65b14ecc7a,64cf4b7eb9e85d800069566b,,,,,,,decisionTrl,resources/DP.BMP,resources/DB.BMP,Door2,-0.282002597,-0.009688031,1,0,0,2.7146,optionLeft,40,1270,1,22,0,22,0,1,,,,,,,,,,,,,,,,,,,,,,,,,,,,,,,,,,,,,,,
,,,,,,,,2023-08-06_08h28.44.784,HF_wild_card,2022.2.4,Linux x86_64,60.04563468,5c197c9c020cbb00011201fe,64ce5acb97489d65b14ecc7a,64cf4b7eb9e85d800069566b,,,,,,,ctch,resources/DY.BMP,resources/DP.BMP,Door3,-0.312929846,-0.034573703,1,0,0,3.2846,optionLeft,70,1340,1,23,0,23,0,1,,,,,,,,,,,,,,,,,,,,,,,,,,,,,,,,,,,,,,,
,,,,,,,,2023-08-06_08h28.44.784,HF_wild_card,2022.2.4,Linux x86_64,60.04563468,5c197c9c020cbb00011201fe,64ce5acb97489d65b14ecc7a,64cf4b7eb9e85d800069566b,,,,,,,decisionTrl,resources/DG.BMP,resources/DR.BMP,Door4,0.3963319,-0.038630733,1,0,0,2.258,optionRight,80,1420,1,24,0,24,0,1,,,,,,,,,,,,,,,,,,,,,,,,,,,,,,,,,,,,,,,
,,,,,,,,2023-08-06_08h28.44.784,HF_wild_card,2022.2.4,Linux x86_64,60.04563468,5c197c9c020cbb00011201fe,64ce5acb97489d65b14ecc7a,64cf4b7eb9e85d800069566b,,,,,,,decisionTrl,resources/DR.BMP,resources/DY.BMP,Door4,-0.520176301,-0.008332938,1,0,0,1.8711,optionLeft,80,1500,1,25,0,25,0,1,,,,,,,,,,,,,,,,,,,,,,,,,,,,,,,,,,,,,,,
,,,,,,,,2023-08-06_08h28.44.784,HF_wild_card,2022.2.4,Linux x86_64,60.04563468,5c197c9c020cbb00011201fe,64ce5acb97489d65b14ecc7a,64cf4b7eb9e85d800069566b,,,,,,,sngl,resources/DB.BMP,resources/Empty.png,Door1,-0.342918905,-0.040691969,1,0,0,4.606,optionLeft,30,1530,1,26,0,26,0,1,,,,,,,,,,,,,,,,,,,,,,,,,,,,,,,,,,,,,,,
,,,,,,,,2023-08-06_08h28.44.784,HF_wild_card,2022.2.4,Linux x86_64,60.04563468,5c197c9c020cbb00011201fe,64ce5acb97489d65b14ecc7a,64cf4b7eb9e85d800069566b,,,,,,,decisionTrl,resources/DY.BMP,resources/DR.BMP,Door4,0.41077847,-0.013645879,1,0,0,3.0244,optionRight,80,1610,1,27,0,27,0,1,,,,,,,,,,,,,,,,,,,,,,,,,,,,,,,,,,,,,,,
,,,,,,,,2023-08-06_08h28.44.784,HF_wild_card,2022.2.4,Linux x86_64,60.04563468,5c197c9c020cbb00011201fe,64ce5acb97489d65b14ecc7a,64cf4b7eb9e85d800069566b,,,,,,,decisionTrl,resources/DB.BMP,resources/DP.BMP,Door2,0.483806695,-0.086136825,1,0,0,2.5717,optionRight,20,1630,1,28,0,28,0,1,,,,,,,,,,,,,,,,,,,,,,,,,,,,,,,,,,,,,,,
,,,,,,,,2023-08-06_08h28.44.784,HF_wild_card,2022.2.4,Linux x86_64,60.04563468,5c197c9c020cbb00011201fe,64ce5acb97489d65b14ecc7a,64cf4b7eb9e85d800069566b,,,,,,,decisionTrl,resources/DY.BMP,resources/DR.BMP,Door4,0.39617999,-0.063398404,1,0,0,4.2198,optionRight,80,1710,1,29,0,29,0,1,,,,,,,,,,,,,,,,,,,,,,,,,,,,,,,,,,,,,,,
,,,,,,,,2023-08-06_08h28.44.784,HF_wild_card,2022.2.4,Linux x86_64,60.04563468,5c197c9c020cbb00011201fe,64ce5acb97489d65b14ecc7a,64cf4b7eb9e85d800069566b,,,,,,,decisionTrl,resources/DP.BMP,resources/DB.BMP,Door2,-0.350334959,-0.002898661,1,0,0,2.1721,optionLeft,20,1730,1,30,0,30,0,1,,,,,,,,,,,,,,,,,,,,,,,,,,,,,,,,,,,,,,,
,,,,,,,,2023-08-06_08h28.44.784,HF_wild_card,2022.2.4,Linux x86_64,60.04563468,5c197c9c020cbb00011201fe,64ce5acb97489d65b14ecc7a,64cf4b7eb9e85d800069566b,,,,,,,sngl,resources/Empty.png,resources/DR.BMP,Door4,0.371202031,-0.05425692,1,0,0,1.5495,optionRight,60,1790,1,31,0,31,0,1,,,,,,,,,,,,,,,,,,,,,,,,,,,,,,,,,,,,,,,
,,,,,,,,2023-08-06_08h28.44.784,HF_wild_card,2022.2.4,Linux x86_64,60.04563468,5c197c9c020cbb00011201fe,64ce5acb97489d65b14ecc7a,64cf4b7eb9e85d800069566b,,,,,,,decisionTrl,resources/DB.BMP,resources/DP.BMP,Door1,-0.399394057,-0.060894888,1,0,0,1.4567,optionLeft,30,1820,1,32,0,32,0,1,,,,,,,,,,,,,,,,,,,,,,,,,,,,,,,,,,,,,,,
,,,,,,,,2023-08-06_08h28.44.784,HF_wild_card,2022.2.4,Linux x86_64,60.04563468,5c197c9c020cbb00011201fe,64ce5acb97489d65b14ecc7a,64cf4b7eb9e85d800069566b,,,,,,,sngl,resources/Empty.png,resources/DG.BMP,WildCard_NonEx,0.274396317,-0.014227973,1,0,0,1.4559,optionRight,55,1875,1,33,0,33,0,1,,,,,,,,,,,,,,,,,,,,,,,,,,,,,,,,,,,,,,,
,,,,,,,,2023-08-06_08h28.44.784,HF_wild_card,2022.2.4,Linux x86_64,60.04563468,5c197c9c020cbb00011201fe,64ce5acb97489d65b14ecc7a,64cf4b7eb9e85d800069566b,,,,,,,sngl,resources/Empty.png,resources/DG.BMP,WildCard_NonEx,0.323276435,-0.011197125,1,0,0,1.3418,optionRight,45,1920,1,34,0,34,0,1,,,,,,,,,,,,,,,,,,,,,,,,,,,,,,,,,,,,,,,
,,,,,,,,2023-08-06_08h28.44.784,HF_wild_card,2022.2.4,Linux x86_64,60.04563468,5c197c9c020cbb00011201fe,64ce5acb97489d65b14ecc7a,64cf4b7eb9e85d800069566b,,,,,,,decisionTrl,resources/DG.BMP,resources/DY.BMP,Door3,0.396769658,-0.011887953,1,0,0,1.659,optionRight,70,1990,1,35,0,35,0,1,,,,,,,,,,,,,,,,,,,,,,,,,,,,,,,,,,,,,,,
,,,,,,,,2023-08-06_08h28.44.784,HF_wild_card,2022.2.4,Linux x86_64,60.04563468,5c197c9c020cbb00011201fe,64ce5acb97489d65b14ecc7a,64cf4b7eb9e85d800069566b,,,,,,,ctch,resources/DR.BMP,resources/DB.BMP,Door4,-0.28323935,-0.018137049,1,0,0,2.4878,optionLeft,80,2070,1,36,0,36,0,1,,,,,,,,,,,,,,,,,,,,,,,,,,,,,,,,,,,,,,,
,,,,,,,,2023-08-06_08h28.44.784,HF_wild_card,2022.2.4,Linux x86_64,60.04563468,5c197c9c020cbb00011201fe,64ce5acb97489d65b14ecc7a,64cf4b7eb9e85d800069566b,,,,,,,decisionTrl,resources/DP.BMP,resources/DB.BMP,Door1,0.360438142,-0.040061442,1,0,0,2.2663,optionRight,30,2100,1,37,0,37,0,1,,,,,,,,,,,,,,,,,,,,,,,,,,,,,,,,,,,,,,,
,,,,,,,,2023-08-06_08h28.44.784,HF_wild_card,2022.2.4,Linux x86_64,60.04563468,5c197c9c020cbb00011201fe,64ce5acb97489d65b14ecc7a,64cf4b7eb9e85d800069566b,,,,,,,ctch,resources/DP.BMP,resources/DY.BMP,Door3,0.367011854,-0.066965061,1,0,0,2.3897,optionRight,70,2170,1,38,0,38,0,1,,,,,,,,,,,,,,,,,,,,,,,,,,,,,,,,,,,,,,,
,,,,,,,,2023-08-06_08h28.44.784,HF_wild_card,2022.2.4,Linux x86_64,60.04563468,5c197c9c020cbb00011201fe,64ce5acb97489d65b14ecc7a,64cf4b7eb9e85d800069566b,,,,,,,decisionTrl,resources/DY.BMP,resources/DR.BMP,Door4,0.403410961,0.009362002,1,0,0,1.6238,optionRight,80,2250,1,39,0,39,0,1,,,,,,,,,,,,,,,,,,,,,,,,,,,,,,,,,,,,,,,
,,,,,,,,2023-08-06_08h28.44.784,HF_wild_card,2022.2.4,Linux x86_64,60.04563468,5c197c9c020cbb00011201fe,64ce5acb97489d65b14ecc7a,64cf4b7eb9e85d800069566b,,,,,,,decisionTrl,resources/DG.BMP,resources/DP.BMP,WildCard_NonEx,-0.362299997,0.00179935,1,0,0,2.3047,optionLeft,55,2305,1,40,0,40,0,1,,,,,,,,,,,,,,,,,,,,,,,,,,,,,,,,,,,,,,,
,,,,,,,,2023-08-06_08h28.44.784,HF_wild_card,2022.2.4,Linux x86_64,60.04563468,5c197c9c020cbb00011201fe,64ce5acb97489d65b14ecc7a,64cf4b7eb9e85d800069566b,,,,,,,ctch,resources/DY.BMP,resources/DP.BMP,Door3,-0.309877862,-0.015773858,1,0,0,1.6406,optionLeft,70,2375,1,41,0,41,0,1,,,,,,,,,,,,,,,,,,,,,,,,,,,,,,,,,,,,,,,
,,,,,,,,2023-08-06_08h28.44.784,HF_wild_card,2022.2.4,Linux x86_64,60.04563468,5c197c9c020cbb00011201fe,64ce5acb97489d65b14ecc7a,64cf4b7eb9e85d800069566b,,,,,,,ctch,resources/DP.BMP,resources/DY.BMP,Door3,0.393034532,-0.014721906,1,0,0,1.4071,optionRight,70,2445,1,42,0,42,0,1,,,,,,,,,,,,,,,,,,,,,,,,,,,,,,,,,,,,,,,
,,,,,,,,2023-08-06_08h28.44.784,HF_wild_card,2022.2.4,Linux x86_64,60.04563468,5c197c9c020cbb00011201fe,64ce5acb97489d65b14ecc7a,64cf4b7eb9e85d800069566b,,,,,,,sngl,resources/Empty.png,resources/DP.BMP,Door2,0.261816406,-0.025869864,1,0,0,1.8328,optionRight,20,2465,1,43,0,43,0,1,,,,,,,,,,,,,,,,,,,,,,,,,,,,,,,,,,,,,,,
,,,,,,,,2023-08-06_08h28.44.784,HF_wild_card,2022.2.4,Linux x86_64,60.04563468,5c197c9c020cbb00011201fe,64ce5acb97489d65b14ecc7a,64cf4b7eb9e85d800069566b,,,,,,,,,,,,,,,,,,,,,,,,,,0,0,0,0,1,,,,,,,,,,,,,,,,,,,,,,,,,,,,,,,,,,
,,,,,,,,2023-08-06_08h28.44.784,HF_wild_card,2022.2.4,Linux x86_64,60.04563468,5c197c9c020cbb00011201fe,64ce5acb97489d65b14ecc7a,64cf4b7eb9e85d800069566b,,,,,,,decisionTrl,resources/DP.BMP,resources/DB.BMP,Door1,0.336557798,-0.105004092,1,0,0,3.0298,optionRight,30,2495,2,0,0,0,0,1,,,,,,,,,,,,,,,,,,,,,,,,,,,,,,,,,,,,,,,
,,,,,,,,2023-08-06_08h28.44.784,HF_wild_card,2022.2.4,Linux x86_64,60.04563468,5c197c9c020cbb00011201fe,64ce5acb97489d65b14ecc7a,64cf4b7eb9e85d800069566b,,,,,,,sngl,resources/Empty.png,resources/DP.BMP,Door2,0.305781612,-0.082341286,1,0,0,23.8409,optionRight,40,2535,2,1,0,1,0,1,,,,,,,,,,,,,,,,,,,,,,,,,,,,,,,,,,,,,,,
,,,,,,,,2023-08-06_08h28.44.784,HF_wild_card,2022.2.4,Linux x86_64,60.04563468,5c197c9c020cbb00011201fe,64ce5acb97489d65b14ecc7a,64cf4b7eb9e85d800069566b,,,,,,,ctch,resources/DB.BMP,resources/DR.BMP,Door4,0.297679873,-0.053131217,1,0,0,2.4732,optionRight,80,2615,2,2,0,2,0,1,,,,,,,,,,,,,,,,,,,,,,,,,,,,,,,,,,,,,,,
,,,,,,,,2023-08-06_08h28.44.784,HF_wild_card,2022.2.4,Linux x86_64,60.04563468,5c197c9c020cbb00011201fe,64ce5acb97489d65b14ecc7a,64cf4b7eb9e85d800069566b,,,,,,,decisionTrl,resources/DG.BMP,resources/DB.BMP,WildCard_NonEx,-0.253271315,-0.008237655,1,0,0,4.3992,optionLeft,55,2670,2,3,0,3,0,1,,,,,,,,,,,,,,,,,,,,,,,,,,,,,,,,,,,,,,,
,,,,,,,,2023-08-06_08h28.44.784,HF_wild_card,2022.2.4,Linux x86_64,60.04563468,5c197c9c020cbb00011201fe,64ce5acb97489d65b14ecc7a,64cf4b7eb9e85d800069566b,,,,,,,ctch,resources/DY.BMP,resources/DP.BMP,Door3,-0.352715047,0.015900845,1,0,0,1.3732,optionLeft,70,2740,2,4,0,4,0,1,,,,,,,,,,,,,,,,,,,,,,,,,,,,,,,,,,,,,,,
,,,,,,,,2023-08-06_08h28.44.784,HF_wild_card,2022.2.4,Linux x86_64,60.04563468,5c197c9c020cbb00011201fe,64ce5acb97489d65b14ecc7a,64cf4b7eb9e85d800069566b,,,,,,,sngl,resources/DG.BMP,resources/Empty.png,WildCard_NonEx,-0.332836518,0.014256117,1,0,0,1.4724,optionLeft,45,2785,2,5,0,5,0,1,,,,,,,,,,,,,,,,,,,,,,,,,,,,,,,,,,,,,,,
,,,,,,,,2023-08-06_08h28.44.784,HF_wild_card,2022.2.4,Linux x86_64,60.04563468,5c197c9c020cbb00011201fe,64ce5acb97489d65b14ecc7a,64cf4b7eb9e85d800069566b,,,,,,,decisionTrl,resources/DR.BMP,resources/DY.BMP,Door4,-0.369025845,0.006186309,1,0,0,1.9995,optionLeft,80,2865,2,6,0,6,0,1,,,,,,,,,,,,,,,,,,,,,,,,,,,,,,,,,,,,,,,
,,,,,,,,2023-08-06_08h28.44.784,HF_wild_card,2022.2.4,Linux x86_64,60.04563468,5c197c9c020cbb00011201fe,64ce5acb97489d65b14ecc7a,64cf4b7eb9e85d800069566b,,,,,,,decisionTrl,resources/DB.BMP,resources/DP.BMP,Door1,-0.309686788,-0.015460036,1,0,0,2.1292,optionLeft,30,2895,2,7,0,7,0,1,,,,,,,,,,,,,,,,,,,,,,,,,,,,,,,,,,,,,,,
,,,,,,,,2023-08-06_08h28.44.784,HF_wild_card,2022.2.4,Linux x86_64,60.04563468,5c197c9c020cbb00011201fe,64ce5acb97489d65b14ecc7a,64cf4b7eb9e85d800069566b,,,,,,,decisionTrl,resources/DY.BMP,resources/DR.BMP,Door3,-0.329461726,0.005792858,1,0,0,1.6397,optionLeft,70,2965,2,8,0,8,0,1,,,,,,,,,,,,,,,,,,,,,,,,,,,,,,,,,,,,,,,
,,,,,,,,2023-08-06_08h28.44.784,HF_wild_card,2022.2.4,Linux x86_64,60.04563468,5c197c9c020cbb00011201fe,64ce5acb97489d65b14ecc7a,64cf4b7eb9e85d800069566b,,,,,,,decisionTrl,resources/DR.BMP,resources/DY.BMP,Door4,-0.257473585,-0.046705006,1,0,0,1.7882,optionLeft,80,3045,2,9,0,9,0,1,,,,,,,,,,,,,,,,,,,,,,,,,,,,,,,,,,,,,,,
,,,,,,,,2023-08-06_08h28.44.784,HF_wild_card,2022.2.4,Linux x86_64,60.04563468,5c197c9c020cbb00011201fe,64ce5acb97489d65b14ecc7a,64cf4b7eb9e85d800069566b,,,,,,,decisionTrl,resources/DP.BMP,resources/DG.BMP,WildCard_NonEx,0.417596209,0.057796394,1,0,0,1.742,optionRight,55,3100,2,10,0,10,0,1,,,,,,,,,,,,,,,,,,,,,,,,,,,,,,,,,,,,,,,
,,,,,,,,2023-08-06_08h28.44.784,HF_wild_card,2022.2.4,Linux x86_64,60.04563468,5c197c9c020cbb00011201fe,64ce5acb97489d65b14ecc7a,64cf4b7eb9e85d800069566b,,,,,,,ctch,resources/DR.BMP,resources/DB.BMP,Door4,-0.446714415,0.064931516,1,0,0,1.5722,optionLeft,60,3160,2,11,0,11,0,1,,,,,,,,,,,,,,,,,,,,,,,,,,,,,,,,,,,,,,,
,,,,,,,,2023-08-06_08h28.44.784,HF_wild_card,2022.2.4,Linux x86_64,60.04563468,5c197c9c020cbb00011201fe,64ce5acb97489d65b14ecc7a,64cf4b7eb9e85d800069566b,,,,,,,ctch,resources/DP.BMP,resources/DY.BMP,Door3,0.380758893,0.002757715,1,0,0,1.5061,optionRight,70,3230,2,12,0,12,0,1,,,,,,,,,,,,,,,,,,,,,,,,,,,,,,,,,,,,,,,
,,,,,,,,2023-08-06_08h28.44.784,HF_wild_card,2022.2.4,Linux x86_64,60.04563468,5c197c9c020cbb00011201fe,64ce5acb97489d65b14ecc7a,64cf4b7eb9e85d800069566b,,,,,,,sngl,resources/Empty.png,resources/DY.BMP,Door3,0.321396891,0.008328925,1,0,0,1.0542,optionRight,70,3300,2,13,0,13,0,1,,,,,,,,,,,,,,,,,,,,,,,,,,,,,,,,,,,,,,,
,,,,,,,,2023-08-06_08h28.44.784,HF_wild_card,2022.2.4,Linux x86_64,60.04563468,5c197c9c020cbb00011201fe,64ce5acb97489d65b14ecc7a,64cf4b7eb9e85d800069566b,,,,,,,sngl,resources/DP.BMP,resources/Empty.png,Door2,-0.340297897,-0.004988494,1,0,0,1.2398,optionLeft,20,3320,2,14,0,14,0,1,,,,,,,,,,,,,,,,,,,,,,,,,,,,,,,,,,,,,,,
,,,,,,,,2023-08-06_08h28.44.784,HF_wild_card,2022.2.4,Linux x86_64,60.04563468,5c197c9c020cbb00011201fe,64ce5acb97489d65b14ecc7a,64cf4b7eb9e85d800069566b,,,,,,,decisionTrl,resources/DY.BMP,resources/DR.BMP,Door4,0.255652534,-0.01619404,1,0,0,2.038,optionRight,60,3380,2,15,0,15,0,1,,,,,,,,,,,,,,,,,,,,,,,,,,,,,,,,,,,,,,,
,,,,,,,,2023-08-06_08h28.44.784,HF_wild_card,2022.2.4,Linux x86_64,60.04563468,5c197c9c020cbb00011201fe,64ce5acb97489d65b14ecc7a,64cf4b7eb9e85d800069566b,,,,,,,decisionTrl,resources/DG.BMP,resources/DY.BMP,Door3,0.314943893,-0.005553578,1,0,0,1.6375,optionRight,70,3450,2,16,0,16,0,1,,,,,,,,,,,,,,,,,,,,,,,,,,,,,,,,,,,,,,,
,,,,,,,,2023-08-06_08h28.44.784,HF_wild_card,2022.2.4,Linux x86_64,60.04563468,5c197c9c020cbb00011201fe,64ce5acb97489d65b14ecc7a,64cf4b7eb9e85d800069566b,,,,,,,sngl,resources/DG.BMP,resources/Empty.png,WildCard_NonEx,-0.336693545,-0.00275845,1,0,0,1.0388,optionLeft,55,3505,2,17,0,17,0,1,,,,,,,,,,,,,,,,,,,,,,,,,,,,,,,,,,,,,,,
,,,,,,,,2023-08-06_08h28.44.784,HF_wild_card,2022.2.4,Linux x86_64,60.04563468,5c197c9c020cbb00011201fe,64ce5acb97489d65b14ecc7a,64cf4b7eb9e85d800069566b,,,,,,,ctch,resources/DB.BMP,resources/DR.BMP,Door4,0.360372812,0.004990189,1,0,0,1.3364,optionRight,80,3585,2,18,0,18,0,1,,,,,,,,,,,,,,,,,,,,,,,,,,,,,,,,,,,,,,,
,,,,,,,,2023-08-06_08h28.44.784,HF_wild_card,2022.2.4,Linux x86_64,60.04563468,5c197c9c020cbb00011201fe,64ce5acb97489d65b14ecc7a,64cf4b7eb9e85d800069566b,,,,,,,sngl,resources/Empty.png,resources/DG.BMP,WildCard_NonEx,0.388348615,0.021163093,1,0,0,1.1957,optionRight,55,3640,2,19,0,19,0,1,,,,,,,,,,,,,,,,,,,,,,,,,,,,,,,,,,,,,,,
,,,,,,,,2023-08-06_08h28.44.784,HF_wild_card,2022.2.4,Linux x86_64,60.04563468,5c197c9c020cbb00011201fe,64ce5acb97489d65b14ecc7a,64cf4b7eb9e85d800069566b,,,,,,,decisionTrl,resources/DB.BMP,resources/DP.BMP,Door1,-0.282654374,0.015901919,1,0,0,3.423,optionLeft,30,3670,2,20,0,20,0,1,,,,,,,,,,,,,,,,,,,,,,,,,,,,,,,,,,,,,,,
,,,,,,,,2023-08-06_08h28.44.784,HF_wild_card,2022.2.4,Linux x86_64,60.04563468,5c197c9c020cbb00011201fe,64ce5acb97489d65b14ecc7a,64cf4b7eb9e85d800069566b,,,,,,,decisionTrl,resources/DG.BMP,resources/DP.BMP,WildCard_NonEx,-0.327397495,0.02572564,1,0,0,1.9423,optionLeft,45,3715,2,21,0,21,0,1,,,,,,,,,,,,,,,,,,,,,,,,,,,,,,,,,,,,,,,
,,,,,,,,2023-08-06_08h28.44.784,HF_wild_card,2022.2.4,Linux x86_64,60.04563468,5c197c9c020cbb00011201fe,64ce5acb97489d65b14ecc7a,64cf4b7eb9e85d800069566b,,,,,,,decisionTrl,resources/DP.BMP,resources/DB.BMP,Door1,0.347797535,0.007867601,1,0,0,2.6898,optionRight,30,3745,2,22,0,22,0,1,,,,,,,,,,,,,,,,,,,,,,,,,,,,,,,,,,,,,,,
,,,,,,,,2023-08-06_08h28.44.784,HF_wild_card,2022.2.4,Linux x86_64,60.04563468,5c197c9c020cbb00011201fe,64ce5acb97489d65b14ecc7a,64cf4b7eb9e85d800069566b,,,,,,,sngl,resources/Empty.png,resources/DB.BMP,Door1,0.356302219,0.023283669,1,0,0,1.5729,optionRight,30,3775,2,23,0,23,0,1,,,,,,,,,,,,,,,,,,,,,,,,,,,,,,,,,,,,,,,
,,,,,,,,2023-08-06_08h28.44.784,HF_wild_card,2022.2.4,Linux x86_64,60.04563468,5c197c9c020cbb00011201fe,64ce5acb97489d65b14ecc7a,64cf4b7eb9e85d800069566b,,,,,,,ctch,resources/DP.BMP,resources/DY.BMP,Door3,0.402495999,-0.00474051,1,0,0,1.8739,optionRight,70,3845,2,24,0,24,0,1,,,,,,,,,,,,,,,,,,,,,,,,,,,,,,,,,,,,,,,
,,,,,,,,2023-08-06_08h28.44.784,HF_wild_card,2022.2.4,Linux x86_64,60.04563468,5c197c9c020cbb00011201fe,64ce5acb97489d65b14ecc7a,64cf4b7eb9e85d800069566b,,,,,,,sngl,resources/Empty.png,resources/DG.BMP,WildCard_NonEx,0.340899545,-0.003043789,1,0,0,4.0871,optionRight,45,3890,2,25,0,25,0,1,,,,,,,,,,,,,,,,,,,,,,,,,,,,,,,,,,,,,,,
,,,,,,,,2023-08-06_08h28.44.784,HF_wild_card,2022.2.4,Linux x86_64,60.04563468,5c197c9c020cbb00011201fe,64ce5acb97489d65b14ecc7a,64cf4b7eb9e85d800069566b,,,,,,,decisionTrl,resources/DY.BMP,resources/DG.BMP,Door3,-0.336996234,0.031462267,1,0,0,1.6064,optionLeft,70,3960,2,26,0,26,0,1,,,,,,,,,,,,,,,,,,,,,,,,,,,,,,,,,,,,,,,
,,,,,,,,2023-08-06_08h28.44.784,HF_wild_card,2022.2.4,Linux x86_64,60.04563468,5c197c9c020cbb00011201fe,64ce5acb97489d65b14ecc7a,64cf4b7eb9e85d800069566b,,,,,,,decisionTrl,resources/DR.BMP,resources/DY.BMP,Door4,-0.31976584,-0.003522124,1,0,0,4.3082,optionLeft,80,4040,2,27,0,27,0,1,,,,,,,,,,,,,,,,,,,,,,,,,,,,,,,,,,,,,,,
,,,,,,,,2023-08-06_08h28.44.784,HF_wild_card,2022.2.4,Linux x86_64,60.04563468,5c197c9c020cbb00011201fe,64ce5acb97489d65b14ecc7a,64cf4b7eb9e85d800069566b,,,,,,,decisionTrl,resources/DB.BMP,resources/DP.BMP,Door1,-0.301965445,-0.011494163,1,0,0,2.5737,optionLeft,30,4070,2,28,0,28,0,1,,,,,,,,,,,,,,,,,,,,,,,,,,,,,,,,,,,,,,,
,,,,,,,,2023-08-06_08h28.44.784,HF_wild_card,2022.2.4,Linux x86_64,60.04563468,5c197c9c020cbb00011201fe,64ce5acb97489d65b14ecc7a,64cf4b7eb9e85d800069566b,,,,,,,sngl,resources/DR.BMP,resources/Empty.png,Door4,-0.270488937,0.015821104,1,0,0,1.5192,optionLeft,60,4130,2,29,0,29,0,1,,,,,,,,,,,,,,,,,,,,,,,,,,,,,,,,,,,,,,,
,,,,,,,,2023-08-06_08h28.44.784,HF_wild_card,2022.2.4,Linux x86_64,60.04563468,5c197c9c020cbb00011201fe,64ce5acb97489d65b14ecc7a,64cf4b7eb9e85d800069566b,,,,,,,ctch,resources/DR.BMP,resources/DB.BMP,Door4,-0.272035104,-0.000466806,1,0,0,1.7714,optionLeft,80,4210,2,30,0,30,0,1,,,,,,,,,,,,,,,,,,,,,,,,,,,,,,,,,,,,,,,
,,,,,,,,2023-08-06_08h28.44.784,HF_wild_card,2022.2.4,Linux x86_64,60.04563468,5c197c9c020cbb00011201fe,64ce5acb97489d65b14ecc7a,64cf4b7eb9e85d800069566b,,,,,,,decisionTrl,resources/DR.BMP,resources/DG.BMP,Door4,-0.311206055,0.023024269,1,0,0,2.0205,optionLeft,60,4270,2,31,0,31,0,1,,,,,,,,,,,,,,,,,,,,,,,,,,,,,,,,,,,,,,,
,,,,,,,,2023-08-06_08h28.44.784,HF_wild_card,2022.2.4,Linux x86_64,60.04563468,5c197c9c020cbb00011201fe,64ce5acb97489d65b14ecc7a,64cf4b7eb9e85d800069566b,,,,,,,decisionTrl,resources/DP.BMP,resources/DB.BMP,Door1,0.417560154,-0.019474736,1,0,0,1.9079,optionRight,30,4300,2,32,0,32,0,1,,,,,,,,,,,,,,,,,,,,,,,,,,,,,,,,,,,,,,,
,,,,,,,,2023-08-06_08h28.44.784,HF_wild_card,2022.2.4,Linux x86_64,60.04563468,5c197c9c020cbb00011201fe,64ce5acb97489d65b14ecc7a,64cf4b7eb9e85d800069566b,,,,,,,ctch,resources/DY.BMP,resources/DP.BMP,Door3,-0.320740537,-0.021398135,1,0,0,1.4806,optionLeft,70,4370,2,33,0,33,0,1,,,,,,,,,,,,,,,,,,,,,,,,,,,,,,,,,,,,,,,
,,,,,,,,2023-08-06_08h28.44.784,HF_wild_card,2022.2.4,Linux x86_64,60.04563468,5c197c9c020cbb00011201fe,64ce5acb97489d65b14ecc7a,64cf4b7eb9e85d800069566b,,,,,,,decisionTrl,resources/DY.BMP,resources/DR.BMP,Door4,0.338359691,-0.017044972,1,0,0,1.9598,optionRight,60,4430,2,34,0,34,0,1,,,,,,,,,,,,,,,,,,,,,,,,,,,,,,,,,,,,,,,
,,,,,,,,2023-08-06_08h28.44.784,HF_wild_card,2022.2.4,Linux x86_64,60.04563468,5c197c9c020cbb00011201fe,64ce5acb97489d65b14ecc7a,64cf4b7eb9e85d800069566b,,,,,,,decisionTrl,resources/DY.BMP,resources/DR.BMP,Door4,0.280093497,-0.008271563,1,0,0,1.5897,optionRight,60,4490,2,35,0,35,0,1,,,,,,,,,,,,,,,,,,,,,,,,,,,,,,,,,,,,,,,
,,,,,,,,2023-08-06_08h28.44.784,HF_wild_card,2022.2.4,Linux x86_64,60.04563468,5c197c9c020cbb00011201fe,64ce5acb97489d65b14ecc7a,64cf4b7eb9e85d800069566b,,,,,,,decisionTrl,resources/DR.BMP,resources/DY.BMP,Door4,-0.356816779,0.016681869,1,0,0,2.2814,optionLeft,60,4550,2,36,0,36,0,1,,,,,,,,,,,,,,,,,,,,,,,,,,,,,,,,,,,,,,,
,,,,,,,,2023-08-06_08h28.44.784,HF_wild_card,2022.2.4,Linux x86_64,60.04563468,5c197c9c020cbb00011201fe,64ce5acb97489d65b14ecc7a,64cf4b7eb9e85d800069566b,,,,,,,sngl,resources/Empty.png,resources/DR.BMP,Door4,0.374227114,0.010582479,1,0,0,1.2707,optionRight,80,4630,2,37,0,37,0,1,,,,,,,,,,,,,,,,,,,,,,,,,,,,,,,,,,,,,,,
,,,,,,,,2023-08-06_08h28.44.784,HF_wild_card,2022.2.4,Linux x86_64,60.04563468,5c197c9c020cbb00011201fe,64ce5acb97489d65b14ecc7a,64cf4b7eb9e85d800069566b,,,,,,,decisionTrl,resources/DG.BMP,resources/DR.BMP,Door4,0.400525807,0.024669562,1,0,0,1.482,optionRight,60,4690,2,38,0,38,0,1,,,,,,,,,,,,,,,,,,,,,,,,,,,,,,,,,,,,,,,
,,,,,,,,2023-08-06_08h28.44.784,HF_wild_card,2022.2.4,Linux x86_64,60.04563468,5c197c9c020cbb00011201fe,64ce5acb97489d65b14ecc7a,64cf4b7eb9e85d800069566b,,,,,,,decisionTrl,resources/DB.BMP,resources/DG.BMP,WildCard_NonEx,0.269227204,-0.032035997,1,0,0,2.5596,optionRight,45,4735,2,39,0,39,0,1,,,,,,,,,,,,,,,,,,,,,,,,,,,,,,,,,,,,,,,
,,,,,,,,2023-08-06_08h28.44.784,HF_wild_card,2022.2.4,Linux x86_64,60.04563468,5c197c9c020cbb00011201fe,64ce5acb97489d65b14ecc7a,64cf4b7eb9e85d800069566b,,,,,,,decisionTrl,resources/DP.BMP,resources/DB.BMP,Door1,0.282072957,-0.008019737,1,0,0,1.6736,optionRight,30,4765,2,40,0,40,0,1,,,,,,,,,,,,,,,,,,,,,,,,,,,,,,,,,,,,,,,
,,,,,,,,2023-08-06_08h28.44.784,HF_wild_card,2022.2.4,Linux x86_64,60.04563468,5c197c9c020cbb00011201fe,64ce5acb97489d65b14ecc7a,64cf4b7eb9e85d800069566b,,,,,,,sngl,resources/DY.BMP,resources/Empty.png,Door3,-0.403682115,0.016993883,1,0,0,1.1545,optionLeft,70,4835,2,41,0,41,0,1,,,,,,,,,,,,,,,,,,,,,,,,,,,,,,,,,,,,,,,
,,,,,,,,2023-08-06_08h28.44.784,HF_wild_card,2022.2.4,Linux x86_64,60.04563468,5c197c9c020cbb00011201fe,64ce5acb97489d65b14ecc7a,64cf4b7eb9e85d800069566b,,,,,,,decisionTrl,resources/DB.BMP,resources/DP.BMP,Door1,-0.285529864,0.007634537,1,0,0,1.5572,optionLeft,30,4865,2,42,0,42,0,1,,,,,,,,,,,,,,,,,,,,,,,,,,,,,,,,,,,,,,,
,,,,,,,,2023-08-06_08h28.44.784,HF_wild_card,2022.2.4,Linux x86_64,60.04563468,5c197c9c020cbb00011201fe,64ce5acb97489d65b14ecc7a,64cf4b7eb9e85d800069566b,,,,,,,sngl,resources/DB.BMP,resources/Empty.png,Door1,-0.31309594,0.01167919,1,0,0,1.0896,optionLeft,30,4895,2,43,0,43,0,1,,,,,,,,,,,,,,,,,,,,,,,,,,,,,,,,,,,,,,,
,,,,,,,,2023-08-06_08h28.44.784,HF_wild_card,2022.2.4,Linux x86_64,60.04563468,5c197c9c020cbb00011201fe,64ce5acb97489d65b14ecc7a,64cf4b7eb9e85d800069566b,,,,,,,,,,,,,,,,,,,,,,,,,,1,0,1,0,1,,,,,,,,,,,,,,,,,,,,,,,,,,,,,,,,,,
,,,,,,,,2023-08-06_08h28.44.784,HF_wild_card,2022.2.4,Linux x86_64,60.04563468,5c197c9c020cbb00011201fe,64ce5acb97489d65b14ecc7a,64cf4b7eb9e85d800069566b,,,,,,,decisionTrl,resources/DY.BMP,resources/DG.BMP,Door3,-0.265211091,-0.057517497,1,0,0,2.2974,optionLeft,70,4965,3,0,0,0,0,1,,,,,,,,,,,,,,,,,,,,,,,,,,,,,,,,,,,,,,,
,,,,,,,,2023-08-06_08h28.44.784,HF_wild_card,2022.2.4,Linux x86_64,60.04563468,5c197c9c020cbb00011201fe,64ce5acb97489d65b14ecc7a,64cf4b7eb9e85d800069566b,,,,,,,sngl,resources/Empty.png,resources/DY.BMP,Door3,0.325802612,-0.044999469,1,0,0,1.2794,optionRight,70,5035,3,1,0,1,0,1,,,,,,,,,,,,,,,,,,,,,,,,,,,,,,,,,,,,,,,
,,,,,,,,2023-08-06_08h28.44.784,HF_wild_card,2022.2.4,Linux x86_64,60.04563468,5c197c9c020cbb00011201fe,64ce5acb97489d65b14ecc7a,64cf4b7eb9e85d800069566b,,,,,,,decisionTrl,resources/DB.BMP,resources/DP.BMP,Door1,-0.27164527,-0.024688551,1,0,0,1.7725,optionLeft,30,5065,3,2,0,2,0,1,,,,,,,,,,,,,,,,,,,,,,,,,,,,,,,,,,,,,,,
,,,,,,,,2023-08-06_08h28.44.784,HF_wild_card,2022.2.4,Linux x86_64,60.04563468,5c197c9c020cbb00011201fe,64ce5acb97489d65b14ecc7a,64cf4b7eb9e85d800069566b,,,,,,,ctch,resources/DB.BMP,resources/DR.BMP,Door4,0.327824006,-0.043166097,1,0,0,1.3421,optionRight,80,5145,3,3,0,3,0,1,,,,,,,,,,,,,,,,,,,,,,,,,,,,,,,,,,,,,,,
,,,,,,,,2023-08-06_08h28.44.784,HF_wild_card,2022.2.4,Linux x86_64,60.04563468,5c197c9c020cbb00011201fe,64ce5acb97489d65b14ecc7a,64cf4b7eb9e85d800069566b,,,,,,,decisionTrl,resources/DR.BMP,resources/DY.BMP,Door4,-0.416667486,-0.021078717,1,0,0,1.5721,optionLeft,60,5205,3,4,0,4,0,1,,,,,,,,,,,,,,,,,,,,,,,,,,,,,,,,,,,,,,,
,,,,,,,,2023-08-06_08h28.44.784,HF_wild_card,2022.2.4,Linux x86_64,60.04563468,5c197c9c020cbb00011201fe,64ce5acb97489d65b14ecc7a,64cf4b7eb9e85d800069566b,,,,,,,decisionTrl,resources/DP.BMP,resources/DB.BMP,Door1,0.328832556,-0.001267497,1,0,0,1.5567,optionRight,30,5235,3,5,0,5,0,1,,,,,,,,,,,,,,,,,,,,,,,,,,,,,,,,,,,,,,,
,,,,,,,,2023-08-06_08h28.44.784,HF_wild_card,2022.2.4,Linux x86_64,60.04563468,5c197c9c020cbb00011201fe,64ce5acb97489d65b14ecc7a,64cf4b7eb9e85d800069566b,,,,,,,decisionTrl,resources/DY.BMP,resources/DR.BMP,Door4,0.319342041,0.001301857,1,0,0,1.7553,optionRight,80,5315,3,6,0,6,0,1,,,,,,,,,,,,,,,,,,,,,,,,,,,,,,,,,,,,,,,
,,,,,,,,2023-08-06_08h28.44.784,HF_wild_card,2022.2.4,Linux x86_64,60.04563468,5c197c9c020cbb00011201fe,64ce5acb97489d65b14ecc7a,64cf4b7eb9e85d800069566b,,,,,,,decisionTrl,resources/DR.BMP,resources/DY.BMP,Door4,-0.258071786,-0.022573174,1,0,0,2.2888,optionLeft,80,5395,3,7,0,7,0,1,,,,,,,,,,,,,,,,,,,,,,,,,,,,,,,,,,,,,,,
,,,,,,,,2023-08-06_08h28.44.784,HF_wild_card,2022.2.4,Linux x86_64,60.04563468,5c197c9c020cbb00011201fe,64ce5acb97489d65b14ecc7a,64cf4b7eb9e85d800069566b,,,,,,,sngl,resources/DY.BMP,resources/Empty.png,Door3,-0.257431878,-0.005142834,1,0,0,1.0887,optionLeft,70,5465,3,8,0,8,0,1,,,,,,,,,,,,,,,,,,,,,,,,,,,,,,,,,,,,,,,
,,,,,,,,2023-08-06_08h28.44.784,HF_wild_card,2022.2.4,Linux x86_64,60.04563468,5c197c9c020cbb00011201fe,64ce5acb97489d65b14ecc7a,64cf4b7eb9e85d800069566b,,,,,,,sngl,resources/Empty.png,resources/DG.BMP,WildCard_NonEx,0.307211078,0.003678668,1,0,0,1.209,optionRight,45,5510,3,9,0,9,0,1,,,,,,,,,,,,,,,,,,,,,,,,,,,,,,,,,,,,,,,
,,,,,,,,2023-08-06_08h28.44.784,HF_wild_card,2022.2.4,Linux x86_64,60.04563468,5c197c9c020cbb00011201fe,64ce5acb97489d65b14ecc7a,64cf4b7eb9e85d800069566b,,,,,,,sngl,resources/DP.BMP,resources/Empty.png,Door2,-0.298123734,-0.026168371,1,0,0,1.6441,optionLeft,40,5550,3,10,0,10,0,1,,,,,,,,,,,,,,,,,,,,,,,,,,,,,,,,,,,,,,,
,,,,,,,,2023-08-06_08h28.44.784,HF_wild_card,2022.2.4,Linux x86_64,60.04563468,5c197c9c020cbb00011201fe,64ce5acb97489d65b14ecc7a,64cf4b7eb9e85d800069566b,,,,,,,ctch,resources/DB.BMP,resources/DR.BMP,Door4,0.312023926,0.015669364,1,0,0,2.4925,optionRight,80,5630,3,11,0,11,0,1,,,,,,,,,,,,,,,,,,,,,,,,,,,,,,,,,,,,,,,
,,,,,,,,2023-08-06_08h28.44.784,HF_wild_card,2022.2.4,Linux x86_64,60.04563468,5c197c9c020cbb00011201fe,64ce5acb97489d65b14ecc7a,64cf4b7eb9e85d800069566b,,,,,,,sngl,resources/Empty.png,resources/DP.BMP,Door2,0.308863209,0.013081642,1,0,0,1.2274,optionRight,20,5650,3,12,0,12,0,1,,,,,,,,,,,,,,,,,,,,,,,,,,,,,,,,,,,,,,,
,,,,,,,,2023-08-06_08h28.44.784,HF_wild_card,2022.2.4,Linux x86_64,60.04563468,5c197c9c020cbb00011201fe,64ce5acb97489d65b14ecc7a,64cf4b7eb9e85d800069566b,,,,,,,decisionTrl,resources/DP.BMP,resources/DB.BMP,Door2,-0.299858263,0.017562414,1,0,0,1.591,optionLeft,20,5670,3,13,0,13,0,1,,,,,,,,,,,,,,,,,,,,,,,,,,,,,,,,,,,,,,,
,,,,,,,,2023-08-06_08h28.44.784,HF_wild_card,2022.2.4,Linux x86_64,60.04563468,5c197c9c020cbb00011201fe,64ce5acb97489d65b14ecc7a,64cf4b7eb9e85d800069566b,,,,,,,sngl,resources/DG.BMP,resources/Empty.png,WildCard_NonEx,-0.207551123,-0.00486518,1,0,0,1.2235,optionLeft,45,5715,3,14,0,14,0,1,,,,,,,,,,,,,,,,,,,,,,,,,,,,,,,,,,,,,,,
,,,,,,,,2023-08-06_08h28.44.784,HF_wild_card,2022.2.4,Linux x86_64,60.04563468,5c197c9c020cbb00011201fe,64ce5acb97489d65b14ecc7a,64cf4b7eb9e85d800069566b,,,,,,,sngl,resources/Empty.png,resources/DR.BMP,Door4,0.31673697,-0.022115072,1,0,0,1.1076,optionRight,60,5775,3,15,0,15,0,1,,,,,,,,,,,,,,,,,,,,,,,,,,,,,,,,,,,,,,,
,,,,,,,,2023-08-06_08h28.44.784,HF_wild_card,2022.2.4,Linux x86_64,60.04563468,5c197c9c020cbb00011201fe,64ce5acb97489d65b14ecc7a,64cf4b7eb9e85d800069566b,,,,,,,sngl,resources/DR.BMP,resources/Empty.png,Door4,-0.28288919,0.013660968,1,0,0,1.0638,optionLeft,80,5855,3,16,0,16,0,1,,,,,,,,,,,,,,,,,,,,,,,,,,,,,,,,,,,,,,,
,,,,,,,,2023-08-06_08h28.44.784,HF_wild_card,2022.2.4,Linux x86_64,60.04563468,5c197c9c020cbb00011201fe,64ce5acb97489d65b14ecc7a,64cf4b7eb9e85d800069566b,,,,,,,decisionTrl,resources/DG.BMP,resources/DY.BMP,Door3,0.315859985,0.019555212,1,0,0,1.7726,optionRight,70,5925,3,17,0,17,0,1,,,,,,,,,,,,,,,,,,,,,,,,,,,,,,,,,,,,,,,
,,,,,,,,2023-08-06_08h28.44.784,HF_wild_card,2022.2.4,Linux x86_64,60.04563468,5c197c9c020cbb00011201fe,64ce5acb97489d65b14ecc7a,64cf4b7eb9e85d800069566b,,,,,,,ctch,resources/DY.BMP,resources/DP.BMP,Door3,-0.227504589,0.027153665,1,0,0,1.2055,optionLeft,70,5995,3,18,0,18,0,1,,,,,,,,,,,,,,,,,,,,,,,,,,,,,,,,,,,,,,,
,,,,,,,,2023-08-06_08h28.44.784,HF_wild_card,2022.2.4,Linux x86_64,60.04563468,5c197c9c020cbb00011201fe,64ce5acb97489d65b14ecc7a,64cf4b7eb9e85d800069566b,,,,,,,decisionTrl,resources/DY.BMP,resources/DR.BMP,Door4,0.315286255,-0.001540629,1,0,0,1.5089,optionRight,80,6075,3,19,0,19,0,1,,,,,,,,,,,,,,,,,,,,,,,,,,,,,,,,,,,,,,,
,,,,,,,,2023-08-06_08h28.44.784,HF_wild_card,2022.2.4,Linux x86_64,60.04563468,5c197c9c020cbb00011201fe,64ce5acb97489d65b14ecc7a,64cf4b7eb9e85d800069566b,,,,,,,decisionTrl,resources/DG.BMP,resources/DR.BMP,Door4,0.362860899,0.01329843,1,0,0,1.3411,optionRight,60,6135,3,20,0,20,0,1,,,,,,,,,,,,,,,,,,,,,,,,,,,,,,,,,,,,,,,
,,,,,,,,2023-08-06_08h28.44.784,HF_wild_card,2022.2.4,Linux x86_64,60.04563468,5c197c9c020cbb00011201fe,64ce5acb97489d65b14ecc7a,64cf4b7eb9e85d800069566b,,,,,,,decisionTrl,resources/DG.BMP,resources/DB.BMP,WildCard_NonEx,-0.337128872,0.029838703,1,0,0,1.4883,optionLeft,55,6190,3,21,0,21,0,1,,,,,,,,,,,,,,,,,,,,,,,,,,,,,,,,,,,,,,,
,,,,,,,,2023-08-06_08h28.44.784,HF_wild_card,2022.2.4,Linux x86_64,60.04563468,5c197c9c020cbb00011201fe,64ce5acb97489d65b14ecc7a,64cf4b7eb9e85d800069566b,,,,,,,ctch,resources/DP.BMP,resources/DY.BMP,Door3,0.280014716,0.000511226,1,0,0,1.3741,optionRight,70,6260,3,22,0,22,0,1,,,,,,,,,,,,,,,,,,,,,,,,,,,,,,,,,,,,,,,
,,,,,,,,2023-08-06_08h28.44.784,HF_wild_card,2022.2.4,Linux x86_64,60.04563468,5c197c9c020cbb00011201fe,64ce5acb97489d65b14ecc7a,64cf4b7eb9e85d800069566b,,,,,,,decisionTrl,resources/DP.BMP,resources/DG.BMP,WildCard_NonEx,0.372334233,0.019850724,1,0,0,2.1749,optionRight,55,6315,3,23,0,23,0,1,,,,,,,,,,,,,,,,,,,,,,,,,,,,,,,,,,,,,,,
,,,,,,,,2023-08-06_08h28.44.784,HF_wild_card,2022.2.4,Linux x86_64,60.04563468,5c197c9c020cbb00011201fe,64ce5acb97489d65b14ecc7a,64cf4b7eb9e85d800069566b,,,,,,,decisionTrl,resources/DB.BMP,resources/DP.BMP,Door2,0.267584568,0.015467552,1,0,0,2.8224,optionRight,20,6335,3,24,0,24,0,1,,,,,,,,,,,,,,,,,,,,,,,,,,,,,,,,,,,,,,,
,,,,,,,,2023-08-06_08h28.44.784,HF_wild_card,2022.2.4,Linux x86_64,60.04563468,5c197c9c020cbb00011201fe,64ce5acb97489d65b14ecc7a,64cf4b7eb9e85d800069566b,,,,,,,decisionTrl,resources/DP.BMP,resources/DB.BMP,Door1,0.334370931,0.027303314,1,0,0,1.7401,optionRight,30,6365,3,25,0,25,0,1,,,,,,,,,,,,,,,,,,,,,,,,,,,,,,,,,,,,,,,
,,,,,,,,2023-08-06_08h28.44.784,HF_wild_card,2022.2.4,Linux x86_64,60.04563468,5c197c9c020cbb00011201fe,64ce5acb97489d65b14ecc7a,64cf4b7eb9e85d800069566b,,,,,,,ctch,resources/DR.BMP,resources/DB.BMP,Door4,-0.232397065,-0.040527174,1,0,0,1.5551,optionLeft,80,6445,3,26,0,26,0,1,,,,,,,,,,,,,,,,,,,,,,,,,,,,,,,,,,,,,,,
,,,,,,,,2023-08-06_08h28.44.784,HF_wild_card,2022.2.4,Linux x86_64,60.04563468,5c197c9c020cbb00011201fe,64ce5acb97489d65b14ecc7a,64cf4b7eb9e85d800069566b,,,,,,,decisionTrl,resources/DY.BMP,resources/DR.BMP,Door4,0.401643654,0.034137245,1,0,0,1.7893,optionRight,80,6525,3,27,0,27,0,1,,,,,,,,,,,,,,,,,,,,,,,,,,,,,,,,,,,,,,,
,,,,,,,,2023-08-06_08h28.44.784,HF_wild_card,2022.2.4,Linux x86_64,60.04563468,5c197c9c020cbb00011201fe,64ce5acb97489d65b14ecc7a,64cf4b7eb9e85d800069566b,,,,,,,sngl,resources/Empty.png,resources/DG.BMP,WildCard_NonEx,0.248215626,-0.001441843,1,0,0,1.3115,optionRight,55,6580,3,28,0,28,0,1,,,,,,,,,,,,,,,,,,,,,,,,,,,,,,,,,,,,,,,
,,,,,,,,2023-08-06_08h28.44.784,HF_wild_card,2022.2.4,Linux x86_64,60.04563468,5c197c9c020cbb00011201fe,64ce5acb97489d65b14ecc7a,64cf4b7eb9e85d800069566b,,,,,,,decisionTrl,resources/DB.BMP,resources/DG.BMP,WildCard_NonEx,0.322843424,-0.006144149,1,0,0,1.6219,optionRight,45,6625,3,29,0,29,0,1,,,,,,,,,,,,,,,,,,,,,,,,,,,,,,,,,,,,,,,
,,,,,,,,2023-08-06_08h28.44.784,HF_wild_card,2022.2.4,Linux x86_64,60.04563468,5c197c9c020cbb00011201fe,64ce5acb97489d65b14ecc7a,64cf4b7eb9e85d800069566b,,,,,,,ctch,resources/DR.BMP,resources/DB.BMP,Door4,-0.401278121,0.009556919,1,0,0,1.2591,optionLeft,60,6685,3,30,0,30,0,1,,,,,,,,,,,,,,,,,,,,,,,,,,,,,,,,,,,,,,,
,,,,,,,,2023-08-06_08h28.44.784,HF_wild_card,2022.2.4,Linux x86_64,60.04563468,5c197c9c020cbb00011201fe,64ce5acb97489d65b14ecc7a,64cf4b7eb9e85d800069566b,,,,,,,ctch,resources/DP.BMP,resources/DY.BMP,Door3,0.323769689,0.001557301,1,0,0,1.4733,optionRight,70,6755,3,31,0,31,0,1,,,,,,,,,,,,,,,,,,,,,,,,,,,,,,,,,,,,,,,
,,,,,,,,2023-08-06_08h28.44.784,HF_wild_card,2022.2.4,Linux x86_64,60.04563468,5c197c9c020cbb00011201fe,64ce5acb97489d65b14ecc7a,64cf4b7eb9e85d800069566b,,,,,,,sngl,resources/DB.BMP,resources/Empty.png,Door1,-0.260784064,0.004333779,1,0,0,1.2005,optionLeft,30,6785,3,32,0,32,0,1,,,,,,,,,,,,,,,,,,,,,,,,,,,,,,,,,,,,,,,
,,,,,,,,2023-08-06_08h28.44.784,HF_wild_card,2022.2.4,Linux x86_64,60.04563468,5c197c9c020cbb00011201fe,64ce5acb97489d65b14ecc7a,64cf4b7eb9e85d800069566b,,,,,,,decisionTrl,resources/DB.BMP,resources/DP.BMP,Door1,-0.260085494,0.012524923,1,0,0,3.2635,optionLeft,30,6815,3,33,0,33,0,1,,,,,,,,,,,,,,,,,,,,,,,,,,,,,,,,,,,,,,,
,,,,,,,,2023-08-06_08h28.44.784,HF_wild_card,2022.2.4,Linux x86_64,60.04563468,5c197c9c020cbb00011201fe,64ce5acb97489d65b14ecc7a,64cf4b7eb9e85d800069566b,,,,,,,sngl,resources/Empty.png,resources/DB.BMP,Door1,0.336028714,-0.012289711,1,0,0,1.3743,optionRight,30,6845,3,34,0,34,0,1,,,,,,,,,,,,,,,,,,,,,,,,,,,,,,,,,,,,,,,
,,,,,,,,2023-08-06_08h28.44.784,HF_wild_card,2022.2.4,Linux x86_64,60.04563468,5c197c9c020cbb00011201fe,64ce5acb97489d65b14ecc7a,64cf4b7eb9e85d800069566b,,,,,,,decisionTrl,resources/DG.BMP,resources/DP.BMP,WildCard_NonEx,-0.342652667,0.001379451,1,0,0,2.339,optionLeft,55,6900,3,35,0,35,0,1,,,,,,,,,,,,,,,,,,,,,,,,,,,,,,,,,,,,,,,
,,,,,,,,2023-08-06_08h28.44.784,HF_wild_card,2022.2.4,Linux x86_64,60.04563468,5c197c9c020cbb00011201fe,64ce5acb97489d65b14ecc7a,64cf4b7eb9e85d800069566b,,,,,,,ctch,resources/DY.BMP,resources/DP.BMP,Door3,-0.341541488,-0.00039119,1,0,0,1.2221,optionLeft,70,6970,3,36,0,36,0,1,,,,,,,,,,,,,,,,,,,,,,,,,,,,,,,,,,,,,,,
,,,,,,,,2023-08-06_08h28.44.784,HF_wild_card,2022.2.4,Linux x86_64,60.04563468,5c197c9c020cbb00011201fe,64ce5acb97489d65b14ecc7a,64cf4b7eb9e85d800069566b,,,,,,,sngl,resources/DG.BMP,resources/Empty.png,WildCard_NonEx,-0.282149534,-0.014051367,1,0,0,1.0923,optionLeft,55,7025,3,37,0,37,0,1,,,,,,,,,,,,,,,,,,,,,,,,,,,,,,,,,,,,,,,
,,,,,,,,2023-08-06_08h28.44.784,HF_wild_card,2022.2.4,Linux x86_64,60.04563468,5c197c9c020cbb00011201fe,64ce5acb97489d65b14ecc7a,64cf4b7eb9e85d800069566b,,,,,,,decisionTrl,resources/DB.BMP,resources/DP.BMP,Door1,-0.190515871,-0.025938642,1,0,0,2.656,optionLeft,30,7055,3,38,0,38,0,1,,,,,,,,,,,,,,,,,,,,,,,,,,,,,,,,,,,,,,,
,,,,,,,,2023-08-06_08h28.44.784,HF_wild_card,2022.2.4,Linux x86_64,60.04563468,5c197c9c020cbb00011201fe,64ce5acb97489d65b14ecc7a,64cf4b7eb9e85d800069566b,,,,,,,decisionTrl,resources/DY.BMP,resources/DR.BMP,Door4,0.374795984,-0.047760631,1,0,0,1.673,optionRight,60,7115,3,39,0,39,0,1,,,,,,,,,,,,,,,,,,,,,,,,,,,,,,,,,,,,,,,
,,,,,,,,2023-08-06_08h28.44.784,HF_wild_card,2022.2.4,Linux x86_64,60.04563468,5c197c9c020cbb00011201fe,64ce5acb97489d65b14ecc7a,64cf4b7eb9e85d800069566b,,,,,,,decisionTrl,resources/DR.BMP,resources/DY.BMP,Door4,-0.308818393,-0.01983603,1,0,0,1.4378,optionLeft,60,7175,3,40,0,40,0,1,,,,,,,,,,,,,,,,,,,,,,,,,,,,,,,,,,,,,,,
,,,,,,,,2023-08-06_08h28.44.784,HF_wild_card,2022.2.4,Linux x86_64,60.04563468,5c197c9c020cbb00011201fe,64ce5acb97489d65b14ecc7a,64cf4b7eb9e85d800069566b,,,,,,,decisionTrl,resources/DR.BMP,resources/DG.BMP,Door4,-0.305423426,-0.022103769,1,0,0,1.2939,optionLeft,80,7255,3,41,0,41,0,1,,,,,,,,,,,,,,,,,,,,,,,,,,,,,,,,,,,,,,,
,,,,,,,,2023-08-06_08h28.44.784,HF_wild_card,2022.2.4,Linux x86_64,60.04563468,5c197c9c020cbb00011201fe,64ce5acb97489d65b14ecc7a,64cf4b7eb9e85d800069566b,,,,,,,decisionTrl,resources/DP.BMP,resources/DB.BMP,Door1,0.357206444,-0.003280809,1,0,0,2.0221,optionRight,30,7285,3,42,0,42,0,1,,,,,,,,,,,,,,,,,,,,,,,,,,,,,,,,,,,,,,,
,,,,,,,,2023-08-06_08h28.44.784,HF_wild_card,2022.2.4,Linux x86_64,60.04563468,5c197c9c020cbb00011201fe,64ce5acb97489d65b14ecc7a,64cf4b7eb9e85d800069566b,,,,,,,decisionTrl,resources/DR.BMP,resources/DY.BMP,Door4,-0.242483294,-0.041207942,1,0,0,1.7915,optionLeft,80,7365,3,43,0,43,0,1,,,,,,,,,,,,,,,,,,,,,,,,,,,,,,,,,,,,,,,
,,,,,,,,2023-08-06_08h28.44.784,HF_wild_card,2022.2.4,Linux x86_64,60.04563468,5c197c9c020cbb00011201fe,64ce5acb97489d65b14ecc7a,64cf4b7eb9e85d800069566b,,,,,,,,,,,,,,,,,,,,,,,,,,2,0,2,0,1,,,,,,,,,,,,,,,,,,,,,,,,,,,,,,,,,,
,,,,,,,,2023-08-06_08h28.44.784,HF_wild_card,2022.2.4,Linux x86_64,60.04563468,5c197c9c020cbb00011201fe,64ce5acb97489d65b14ecc7a,64cf4b7eb9e85d800069566b,,,,,,,decisionTrl,resources/DY.BMP,resources/DR.BMP,Door4,0.255180868,-0.152422926,1,0,0,2.6638,optionRight,60,7425,4,0,0,0,0,1,,,,,,,,,,,,,,,,,,,,,,,,,,,,,,,,,,,,,,,
,,,,,,,,2023-08-06_08h28.44.784,HF_wild_card,2022.2.4,Linux x86_64,60.04563468,5c197c9c020cbb00011201fe,64ce5acb97489d65b14ecc7a,64cf4b7eb9e85d800069566b,,,,,,,decisionTrl,resources/DR.BMP,resources/DY.BMP,Door4,-0.316678874,-0.013878095,1,0,0,1.9594,optionLeft,60,7485,4,1,0,1,0,1,,,,,,,,,,,,,,,,,,,,,,,,,,,,,,,,,,,,,,,
,,,,,,,,2023-08-06_08h28.44.784,HF_wild_card,2022.2.4,Linux x86_64,60.04563468,5c197c9c020cbb00011201fe,64ce5acb97489d65b14ecc7a,64cf4b7eb9e85d800069566b,,,,,,,decisionTrl,resources/DB.BMP,resources/DP.BMP,Door1,-0.302104357,-0.007998544,1,0,0,1.7711,optionLeft,30,7515,4,2,0,2,0,1,,,,,,,,,,,,,,,,,,,,,,,,,,,,,,,,,,,,,,,
,,,,,,,,2023-08-06_08h28.44.784,HF_wild_card,2022.2.4,Linux x86_64,60.04563468,5c197c9c020cbb00011201fe,64ce5acb97489d65b14ecc7a,64cf4b7eb9e85d800069566b,,,,,,,sngl,resources/DR.BMP,resources/Empty.png,Door4,-0.325819962,-0.010199822,1,0,0,0.9601,optionLeft,60,7575,4,3,0,3,0,1,,,,,,,,,,,,,,,,,,,,,,,,,,,,,,,,,,,,,,,
,,,,,,,,2023-08-06_08h28.44.784,HF_wild_card,2022.2.4,Linux x86_64,60.04563468,5c197c9c020cbb00011201fe,64ce5acb97489d65b14ecc7a,64cf4b7eb9e85d800069566b,,,,,,,ctch,resources/DR.BMP,resources/DB.BMP,Door4,-0.280625294,0.014018023,1,0,0,1.2098,optionLeft,80,7655,4,4,0,4,0,1,,,,,,,,,,,,,,,,,,,,,,,,,,,,,,,,,,,,,,,
,,,,,,,,2023-08-06_08h28.44.784,HF_wild_card,2022.2.4,Linux x86_64,60.04563468,5c197c9c020cbb00011201fe,64ce5acb97489d65b14ecc7a,64cf4b7eb9e85d800069566b,,,,,,,decisionTrl,resources/DP.BMP,resources/DB.BMP,Door1,0.26178295,0.012562674,1,0,0,2.2051,optionRight,30,7685,4,5,0,5,0,1,,,,,,,,,,,,,,,,,,,,,,,,,,,,,,,,,,,,,,,
,,,,,,,,2023-08-06_08h28.44.784,HF_wild_card,2022.2.4,Linux x86_64,60.04563468,5c197c9c020cbb00011201fe,64ce5acb97489d65b14ecc7a,64cf4b7eb9e85d800069566b,,,,,,,ctch,resources/DB.BMP,resources/DR.BMP,Door4,0.346321502,0.052291955,1,0,0,1.3068,optionRight,80,7765,4,6,0,6,0,1,,,,,,,,,,,,,,,,,,,,,,,,,,,,,,,,,,,,,,,
,,,,,,,,2023-08-06_08h28.44.784,HF_wild_card,2022.2.4,Linux x86_64,60.04563468,5c197c9c020cbb00011201fe,64ce5acb97489d65b14ecc7a,64cf4b7eb9e85d800069566b,,,,,,,decisionTrl,resources/DBN.BMP,resources/DP.BMP,WildCard_Ex,-0.258678238,0.007116191,1,0,0,2.9237,optionLeft,45,7810,4,7,0,7,0,1,,,,,,,,,,,,,,,,,,,,,,,,,,,,,,,,,,,,,,,
,,,,,,,,2023-08-06_08h28.44.784,HF_wild_card,2022.2.4,Linux x86_64,60.04563468,5c197c9c020cbb00011201fe,64ce5acb97489d65b14ecc7a,64cf4b7eb9e85d800069566b,,,,,,,decisionTrl,resources/DR.BMP,resources/DY.BMP,Door4,-0.332776218,-0.034953026,1,0,0,2.123,optionLeft,80,7890,4,8,0,8,0,1,,,,,,,,,,,,,,,,,,,,,,,,,,,,,,,,,,,,,,,
,,,,,,,,2023-08-06_08h28.44.784,HF_wild_card,2022.2.4,Linux x86_64,60.04563468,5c197c9c020cbb00011201fe,64ce5acb97489d65b14ecc7a,64cf4b7eb9e85d800069566b,,,,,,,sngl,resources/DP.BMP,resources/Empty.png,Door2,-0.258954649,0.013847521,1,0,0,1.1404,optionLeft,20,7910,4,9,0,9,0,1,,,,,,,,,,,,,,,,,,,,,,,,,,,,,,,,,,,,,,,
,,,,,,,,2023-08-06_08h28.44.784,HF_wild_card,2022.2.4,Linux x86_64,60.04563468,5c197c9c020cbb00011201fe,64ce5acb97489d65b14ecc7a,64cf4b7eb9e85d800069566b,,,,,,,sngl,resources/Empty.png,resources/DP.BMP,Door2,0.255308476,0.004314903,1,0,0,1.2221,optionRight,40,7950,4,10,0,10,0,1,,,,,,,,,,,,,,,,,,,,,,,,,,,,,,,,,,,,,,,
,,,,,,,,2023-08-06_08h28.44.784,HF_wild_card,2022.2.4,Linux x86_64,60.04563468,5c197c9c020cbb00011201fe,64ce5acb97489d65b14ecc7a,64cf4b7eb9e85d800069566b,,,,,,,sngl,resources/Empty.png,resources/DY.BMP,Door3,0.303193495,0.002800101,1,0,0,1.1236,optionRight,70,8020,4,11,0,11,0,1,,,,,,,,,,,,,,,,,,,,,,,,,,,,,,,,,,,,,,,
,,,,,,,,2023-08-06_08h28.44.784,HF_wild_card,2022.2.4,Linux x86_64,60.04563468,5c197c9c020cbb00011201fe,64ce5acb97489d65b14ecc7a,64cf4b7eb9e85d800069566b,,,,,,,decisionTrl,resources/DY.BMP,resources/DR.BMP,Door3,-0.252133009,0.009374378,1,0,0,2.6228,optionLeft,70,8090,4,12,0,12,0,1,,,,,,,,,,,,,,,,,,,,,,,,,,,,,,,,,,,,,,,
,,,,,,,,2023-08-06_08h28.44.784,HF_wild_card,2022.2.4,Linux x86_64,60.04563468,5c197c9c020cbb00011201fe,64ce5acb97489d65b14ecc7a,64cf4b7eb9e85d800069566b,,,,,,,sngl,resources/Empty.png,resources/DB.BMP,Door1,0.30870497,0.002295657,1,0,0,1.4409,optionRight,30,8120,4,13,0,13,0,1,,,,,,,,,,,,,,,,,,,,,,,,,,,,,,,,,,,,,,,
,,,,,,,,2023-08-06_08h28.44.784,HF_wild_card,2022.2.4,Linux x86_64,60.04563468,5c197c9c020cbb00011201fe,64ce5acb97489d65b14ecc7a,64cf4b7eb9e85d800069566b,,,,,,,decisionTrl,resources/DY.BMP,resources/DR.BMP,Door3,-0.225741408,0.013121428,1,0,0,2.1635,optionLeft,70,8190,4,14,0,14,0,1,,,,,,,,,,,,,,,,,,,,,,,,,,,,,,,,,,,,,,,
,,,,,,,,2023-08-06_08h28.44.784,HF_wild_card,2022.2.4,Linux x86_64,60.04563468,5c197c9c020cbb00011201fe,64ce5acb97489d65b14ecc7a,64cf4b7eb9e85d800069566b,,,,,,,sngl,resources/DY.BMP,resources/Empty.png,Door3,-0.174429717,0.022140277,1,0,0,2.0316,optionLeft,70,8260,4,15,0,15,0,1,,,,,,,,,,,,,,,,,,,,,,,,,,,,,,,,,,,,,,,
,,,,,,,,2023-08-06_08h28.44.784,HF_wild_card,2022.2.4,Linux x86_64,60.04563468,5c197c9c020cbb00011201fe,64ce5acb97489d65b14ecc7a,64cf4b7eb9e85d800069566b,,,,,,,sngl,resources/Empty.png,resources/DBN.BMP,WildCard_Ex,0.416349962,0.068431176,1,0,0,1.4133,optionRight,55,8315,4,16,0,16,0,1,,,,,,,,,,,,,,,,,,,,,,,,,,,,,,,,,,,,,,,
,,,,,,,,2023-08-06_08h28.44.784,HF_wild_card,2022.2.4,Linux x86_64,60.04563468,5c197c9c020cbb00011201fe,64ce5acb97489d65b14ecc7a,64cf4b7eb9e85d800069566b,,,,,,,decisionTrl,resources/DP.BMP,resources/DB.BMP,Door1,0.321894102,-0.025176154,1,0,0,1.6897,optionRight,30,8345,4,17,0,17,0,1,,,,,,,,,,,,,,,,,,,,,,,,,,,,,,,,,,,,,,,
,,,,,,,,2023-08-06_08h28.44.784,HF_wild_card,2022.2.4,Linux x86_64,60.04563468,5c197c9c020cbb00011201fe,64ce5acb97489d65b14ecc7a,64cf4b7eb9e85d800069566b,,,,,,,decisionTrl,resources/DBN.BMP,resources/DR.BMP,Door4,0.342494597,0.021969152,1,0,0,2.5583,optionRight,60,8405,4,18,0,18,0,1,,,,,,,,,,,,,,,,,,,,,,,,,,,,,,,,,,,,,,,
,,,,,,,,2023-08-06_08h28.44.784,HF_wild_card,2022.2.4,Linux x86_64,60.04563468,5c197c9c020cbb00011201fe,64ce5acb97489d65b14ecc7a,64cf4b7eb9e85d800069566b,,,,,,,decisionTrl,resources/DBN.BMP,resources/DB.BMP,WildCard_Ex,-0.179141574,0.0174725,1,0,0,1.7651,optionLeft,55,8460,4,19,0,19,0,1,,,,,,,,,,,,,,,,,,,,,,,,,,,,,,,,,,,,,,,
,,,,,,,,2023-08-06_08h28.44.784,HF_wild_card,2022.2.4,Linux x86_64,60.04563468,5c197c9c020cbb00011201fe,64ce5acb97489d65b14ecc7a,64cf4b7eb9e85d800069566b,,,,,,,ctch,resources/DP.BMP,resources/DY.BMP,Door3,0.284371835,-0.031550033,1,0,0,1.8315,optionRight,70,8530,4,20,0,20,0,1,,,,,,,,,,,,,,,,,,,,,,,,,,,,,,,,,,,,,,,
,,,,,,,,2023-08-06_08h28.44.784,HF_wild_card,2022.2.4,Linux x86_64,60.04563468,5c197c9c020cbb00011201fe,64ce5acb97489d65b14ecc7a,64cf4b7eb9e85d800069566b,,,,,,,decisionTrl,resources/DR.BMP,resources/DBN.BMP,Door4,-0.360211012,0.007366209,1,0,0,1.9738,optionLeft,80,8610,4,21,0,21,0,1,,,,,,,,,,,,,,,,,,,,,,,,,,,,,,,,,,,,,,,
,,,,,,,,2023-08-06_08h28.44.784,HF_wild_card,2022.2.4,Linux x86_64,60.04563468,5c197c9c020cbb00011201fe,64ce5acb97489d65b14ecc7a,64cf4b7eb9e85d800069566b,,,,,,,decisionTrl,resources/DB.BMP,resources/DP.BMP,Door1,-0.382165471,0.007537503,1,0,0,1.7729,optionLeft,30,8640,4,22,0,22,0,1,,,,,,,,,,,,,,,,,,,,,,,,,,,,,,,,,,,,,,,
,,,,,,,,2023-08-06_08h28.44.784,HF_wild_card,2022.2.4,Linux x86_64,60.04563468,5c197c9c020cbb00011201fe,64ce5acb97489d65b14ecc7a,64cf4b7eb9e85d800069566b,,,,,,,decisionTrl,resources/DP.BMP,resources/DBN.BMP,WildCard_Ex,0.303284596,0.059637875,1,0,0,1.7095,optionRight,55,8695,4,23,0,23,0,1,,,,,,,,,,,,,,,,,,,,,,,,,,,,,,,,,,,,,,,
,,,,,,,,2023-08-06_08h28.44.784,HF_wild_card,2022.2.4,Linux x86_64,60.04563468,5c197c9c020cbb00011201fe,64ce5acb97489d65b14ecc7a,64cf4b7eb9e85d800069566b,,,,,,,ctch,resources/DY.BMP,resources/DP.BMP,Door3,-0.333677165,-0.014657706,1,0,0,1.5698,optionLeft,70,8765,4,24,0,24,0,1,,,,,,,,,,,,,,,,,,,,,,,,,,,,,,,,,,,,,,,
,,,,,,,,2023-08-06_08h28.44.784,HF_wild_card,2022.2.4,Linux x86_64,60.04563468,5c197c9c020cbb00011201fe,64ce5acb97489d65b14ecc7a,64cf4b7eb9e85d800069566b,,,,,,,decisionTrl,resources/DP.BMP,resources/DB.BMP,Door1,0.345717706,0.007914112,1,0,0,1.7523,optionRight,30,8795,4,25,0,25,0,1,,,,,,,,,,,,,,,,,,,,,,,,,,,,,,,,,,,,,,,
,,,,,,,,2023-08-06_08h28.44.784,HF_wild_card,2022.2.4,Linux x86_64,60.04563468,5c197c9c020cbb00011201fe,64ce5acb97489d65b14ecc7a,64cf4b7eb9e85d800069566b,,,,,,,ctch,resources/DY.BMP,resources/DP.BMP,Door3,-0.357745531,0.042838061,1,0,0,1.2878,optionLeft,70,8865,4,26,0,26,0,1,,,,,,,,,,,,,,,,,,,,,,,,,,,,,,,,,,,,,,,
,,,,,,,,2023-08-06_08h28.44.784,HF_wild_card,2022.2.4,Linux x86_64,60.04563468,5c197c9c020cbb00011201fe,64ce5acb97489d65b14ecc7a,64cf4b7eb9e85d800069566b,,,,,,,sngl,resources/DBN.BMP,resources/Empty.png,WildCard_Ex,-0.297279301,0.05706838,1,0,0,1.2523,optionLeft,55,8920,4,27,0,27,0,1,,,,,,,,,,,,,,,,,,,,,,,,,,,,,,,,,,,,,,,
,,,,,,,,2023-08-06_08h28.44.784,HF_wild_card,2022.2.4,Linux x86_64,60.04563468,5c197c9c020cbb00011201fe,64ce5acb97489d65b14ecc7a,64cf4b7eb9e85d800069566b,,,,,,,decisionTrl,resources/DB.BMP,resources/DBN.BMP,WildCard_Ex,0.34262944,0.010451818,1,0,0,1.4562,optionRight,45,8965,4,28,0,28,0,1,,,,,,,,,,,,,,,,,,,,,,,,,,,,,,,,,,,,,,,
,,,,,,,,2023-08-06_08h28.44.784,HF_wild_card,2022.2.4,Linux x86_64,60.04563468,5c197c9c020cbb00011201fe,64ce5acb97489d65b14ecc7a,64cf4b7eb9e85d800069566b,,,,,,,sngl,resources/DB.BMP,resources/Empty.png,Door1,-0.212688022,0.042599205,1,0,0,1.1881,optionLeft,30,8995,4,29,0,29,0,1,,,,,,,,,,,,,,,,,,,,,,,,,,,,,,,,,,,,,,,
,,,,,,,,2023-08-06_08h28.44.784,HF_wild_card,2022.2.4,Linux x86_64,60.04563468,5c197c9c020cbb00011201fe,64ce5acb97489d65b14ecc7a,64cf4b7eb9e85d800069566b,,,,,,,decisionTrl,resources/DY.BMP,resources/DR.BMP,Door4,0.345493232,-0.002181781,1,0,0,2.175,optionRight,80,9075,4,30,0,30,0,1,,,,,,,,,,,,,,,,,,,,,,,,,,,,,,,,,,,,,,,
,,,,,,,,2023-08-06_08h28.44.784,HF_wild_card,2022.2.4,Linux x86_64,60.04563468,5c197c9c020cbb00011201fe,64ce5acb97489d65b14ecc7a,64cf4b7eb9e85d800069566b,,,,,,,sngl,resources/Empty.png,resources/DR.BMP,Door4,0.346271317,0.030930385,1,0,0,1.0398,optionRight,80,9155,4,31,0,31,0,1,,,,,,,,,,,,,,,,,,,,,,,,,,,,,,,,,,,,,,,
,,,,,,,,2023-08-06_08h28.44.784,HF_wild_card,2022.2.4,Linux x86_64,60.04563468,5c197c9c020cbb00011201fe,64ce5acb97489d65b14ecc7a,64cf4b7eb9e85d800069566b,,,,,,,decisionTrl,resources/DBN.BMP,resources/DY.BMP,Door3,0.210588243,-0.005942564,1,0,0,2.1252,optionRight,70,9225,4,32,0,32,0,1,,,,,,,,,,,,,,,,,,,,,,,,,,,,,,,,,,,,,,,
,,,,,,,,2023-08-06_08h28.44.784,HF_wild_card,2022.2.4,Linux x86_64,60.04563468,5c197c9c020cbb00011201fe,64ce5acb97489d65b14ecc7a,64cf4b7eb9e85d800069566b,,,,,,,ctch,resources/DP.BMP,resources/DY.BMP,Door3,0.280305424,-0.015945943,1,0,0,1.6893,optionRight,70,9295,4,33,0,33,0,1,,,,,,,,,,,,,,,,,,,,,,,,,,,,,,,,,,,,,,,
,,,,,,,,2023-08-06_08h28.44.784,HF_wild_card,2022.2.4,Linux x86_64,60.04563468,5c197c9c020cbb00011201fe,64ce5acb97489d65b14ecc7a,64cf4b7eb9e85d800069566b,,,,,,,decisionTrl,resources/DY.BMP,resources/DBN.BMP,Door3,-0.309178331,0.016860058,1,0,0,1.8808,optionLeft,70,9365,4,34,0,34,0,1,,,,,,,,,,,,,,,,,,,,,,,,,,,,,,,,,,,,,,,
,,,,,,,,2023-08-06_08h28.44.784,HF_wild_card,2022.2.4,Linux x86_64,60.04563468,5c197c9c020cbb00011201fe,64ce5acb97489d65b14ecc7a,64cf4b7eb9e85d800069566b,,,,,,,sngl,resources/Empty.png,resources/DBN.BMP,WildCard_Ex,0.327872495,0.034526316,1,0,0,1.1863,optionRight,45,9410,4,35,0,35,0,1,,,,,,,,,,,,,,,,,,,,,,,,,,,,,,,,,,,,,,,
,,,,,,,,2023-08-06_08h28.44.784,HF_wild_card,2022.2.4,Linux x86_64,60.04563468,5c197c9c020cbb00011201fe,64ce5acb97489d65b14ecc7a,64cf4b7eb9e85d800069566b,,,,,,,ctch,resources/DB.BMP,resources/DR.BMP,Door4,0.305595115,-0.005435124,1,0,0,1.5546,optionRight,60,9470,4,36,0,36,0,1,,,,,,,,,,,,,,,,,,,,,,,,,,,,,,,,,,,,,,,
,,,,,,,,2023-08-06_08h28.44.784,HF_wild_card,2022.2.4,Linux x86_64,60.04563468,5c197c9c020cbb00011201fe,64ce5acb97489d65b14ecc7a,64cf4b7eb9e85d800069566b,,,,,,,decisionTrl,resources/DR.BMP,resources/DY.BMP,Door4,-0.313162175,0.013331039,1,0,0,2.7817,optionLeft,80,9550,4,37,0,37,0,1,,,,,,,,,,,,,,,,,,,,,,,,,,,,,,,,,,,,,,,
,,,,,,,,2023-08-06_08h28.44.784,HF_wild_card,2022.2.4,Linux x86_64,60.04563468,5c197c9c020cbb00011201fe,64ce5acb97489d65b14ecc7a,64cf4b7eb9e85d800069566b,,,,,,,sngl,resources/DBN.BMP,resources/Empty.png,WildCard_Ex,-0.240480833,0.017256052,1,0,0,1.2078,optionLeft,45,9595,4,38,0,38,0,1,,,,,,,,,,,,,,,,,,,,,,,,,,,,,,,,,,,,,,,
,,,,,,,,2023-08-06_08h28.44.784,HF_wild_card,2022.2.4,Linux x86_64,60.04563468,5c197c9c020cbb00011201fe,64ce5acb97489d65b14ecc7a,64cf4b7eb9e85d800069566b,,,,,,,decisionTrl,resources/DP.BMP,resources/DB.BMP,Door1,0.298582628,-0.014962373,1,0,0,1.6299,optionRight,30,9625,4,39,0,39,0,1,,,,,,,,,,,,,,,,,,,,,,,,,,,,,,,,,,,,,,,
,,,,,,,,2023-08-06_08h28.44.784,HF_wild_card,2022.2.4,Linux x86_64,60.04563468,5c197c9c020cbb00011201fe,64ce5acb97489d65b14ecc7a,64cf4b7eb9e85d800069566b,,,,,,,decisionTrl,resources/DB.BMP,resources/DP.BMP,Door1,-0.279023517,0.015264836,1,0,0,1.4891,optionLeft,30,9655,4,40,0,40,0,1,,,,,,,,,,,,,,,,,,,,,,,,,,,,,,,,,,,,,,,
,,,,,,,,2023-08-06_08h28.44.784,HF_wild_card,2022.2.4,Linux x86_64,60.04563468,5c197c9c020cbb00011201fe,64ce5acb97489d65b14ecc7a,64cf4b7eb9e85d800069566b,,,,,,,ctch,resources/DR.BMP,resources/DB.BMP,Door4,-0.295998072,0.007524109,1,0,0,1.2735,optionLeft,80,9735,4,41,0,41,0,1,,,,,,,,,,,,,,,,,,,,,,,,,,,,,,,,,,,,,,,
,,,,,,,,2023-08-06_08h28.44.784,HF_wild_card,2022.2.4,Linux x86_64,60.04563468,5c197c9c020cbb00011201fe,64ce5acb97489d65b14ecc7a,64cf4b7eb9e85d800069566b,,,,,,,decisionTrl,resources/DR.BMP,resources/DY.BMP,Door4,-0.283491968,-0.010761572,1,0,0,1.5242,optionLeft,80,9815,4,42,0,42,0,1,,,,,,,,,,,,,,,,,,,,,,,,,,,,,,,,,,,,,,,
,,,,,,,,2023-08-06_08h28.44.784,HF_wild_card,2022.2.4,Linux x86_64,60.04563468,5c197c9c020cbb00011201fe,64ce5acb97489d65b14ecc7a,64cf4b7eb9e85d800069566b,,,,,,,decisionTrl,resources/DB.BMP,resources/DP.BMP,Door1,-0.236574583,-0.014998033,1,0,0,1.9737,optionLeft,30,9845,4,43,0,43,0,1,,,,,,,,,,,,,,,,,,,,,,,,,,,,,,,,,,,,,,,
,,,,,,,,2023-08-06_08h28.44.784,HF_wild_card,2022.2.4,Linux x86_64,60.04563468,5c197c9c020cbb00011201fe,64ce5acb97489d65b14ecc7a,64cf4b7eb9e85d800069566b,,,,,,,,,,,,,,,,,,,,,,,,,,3,0,3,0,1,,,,,,,,,,,,,,,,,,,,,,,,,,,,,,,,,,
,,,,,,,,2023-08-06_08h28.44.784,HF_wild_card,2022.2.4,Linux x86_64,60.04563468,5c197c9c020cbb00011201fe,64ce5acb97489d65b14ecc7a,64cf4b7eb9e85d800069566b,,,,,,,ctch,resources/DR.BMP,resources/DB.BMP,Door4,-0.292858943,-0.079461726,1,0,0,2.3288,optionLeft,80,9925,5,0,0,0,0,1,,,,,,,,,,,,,,,,,,,,,,,,,,,,,,,,,,,,,,,
,,,,,,,,2023-08-06_08h28.44.784,HF_wild_card,2022.2.4,Linux x86_64,60.04563468,5c197c9c020cbb00011201fe,64ce5acb97489d65b14ecc7a,64cf4b7eb9e85d800069566b,,,,,,,sngl,resources/DY.BMP,resources/Empty.png,Door3,-0.338417166,0.06716156,1,0,0,1.0622,optionLeft,70,9995,5,1,0,1,0,1,,,,,,,,,,,,,,,,,,,,,,,,,,,,,,,,,,,,,,,
,,,,,,,,2023-08-06_08h28.44.784,HF_wild_card,2022.2.4,Linux x86_64,60.04563468,5c197c9c020cbb00011201fe,64ce5acb97489d65b14ecc7a,64cf4b7eb9e85d800069566b,,,,,,,decisionTrl,resources/DBN.BMP,resources/DP.BMP,WildCard_Ex,-0.224361561,0.039959604,1,0,0,1.5802,optionLeft,45,10040,5,2,0,2,0,1,,,,,,,,,,,,,,,,,,,,,,,,,,,,,,,,,,,,,,,
,,,,,,,,2023-08-06_08h28.44.784,HF_wild_card,2022.2.4,Linux x86_64,60.04563468,5c197c9c020cbb00011201fe,64ce5acb97489d65b14ecc7a,64cf4b7eb9e85d800069566b,,,,,,,decisionTrl,resources/DR.BMP,resources/DY.BMP,Door4,-0.251446985,0.018533947,1,0,0,2.54,optionLeft,60,10100,5,3,0,3,0,1,,,,,,,,,,,,,,,,,,,,,,,,,,,,,,,,,,,,,,,
,,,,,,,,2023-08-06_08h28.44.784,HF_wild_card,2022.2.4,Linux x86_64,60.04563468,5c197c9c020cbb00011201fe,64ce5acb97489d65b14ecc7a,64cf4b7eb9e85d800069566b,,,,,,,sngl,resources/Empty.png,resources/DBN.BMP,WildCard_Ex,0.365494113,-0.006247909,1,0,0,1.0797,optionRight,45,10145,5,4,0,4,0,1,,,,,,,,,,,,,,,,,,,,,,,,,,,,,,,,,,,,,,,
,,,,,,,,2023-08-06_08h28.44.784,HF_wild_card,2022.2.4,Linux x86_64,60.04563468,5c197c9c020cbb00011201fe,64ce5acb97489d65b14ecc7a,64cf4b7eb9e85d800069566b,,,,,,,decisionTrl,resources/DY.BMP,resources/DR.BMP,Door4,0.384504417,0.029017018,1,0,0,1.5883,optionRight,60,10205,5,5,0,5,0,1,,,,,,,,,,,,,,,,,,,,,,,,,,,,,,,,,,,,,,,
,,,,,,,,2023-08-06_08h28.44.784,HF_wild_card,2022.2.4,Linux x86_64,60.04563468,5c197c9c020cbb00011201fe,64ce5acb97489d65b14ecc7a,64cf4b7eb9e85d800069566b,,,,,,,decisionTrl,resources/DY.BMP,resources/DBN.BMP,Door3,-0.268638554,-0.000300655,1,0,0,1.4643,optionLeft,70,10275,5,6,0,6,0,1,,,,,,,,,,,,,,,,,,,,,,,,,,,,,,,,,,,,,,,
,,,,,,,,2023-08-06_08h28.44.784,HF_wild_card,2022.2.4,Linux x86_64,60.04563468,5c197c9c020cbb00011201fe,64ce5acb97489d65b14ecc7a,64cf4b7eb9e85d800069566b,,,,,,,ctch,resources/DP.BMP,resources/DY.BMP,Door3,0.377978516,0.016471637,1,0,0,1.1083,optionRight,70,10345,5,7,0,7,0,1,,,,,,,,,,,,,,,,,,,,,,,,,,,,,,,,,,,,,,,
,,,,,,,,2023-08-06_08h28.44.784,HF_wild_card,2022.2.4,Linux x86_64,60.04563468,5c197c9c020cbb00011201fe,64ce5acb97489d65b14ecc7a,64cf4b7eb9e85d800069566b,,,,,,,decisionTrl,resources/DB.BMP,resources/DP.BMP,Door1,-0.262758834,0.029323832,1,0,0,1.5764,optionLeft,30,10375,5,8,0,8,0,1,,,,,,,,,,,,,,,,,,,,,,,,,,,,,,,,,,,,,,,
,,,,,,,,2023-08-06_08h28.44.784,HF_wild_card,2022.2.4,Linux x86_64,60.04563468,5c197c9c020cbb00011201fe,64ce5acb97489d65b14ecc7a,64cf4b7eb9e85d800069566b,,,,,,,decisionTrl,resources/DBN.BMP,resources/DB.BMP,WildCard_Ex,-0.314142863,0.022364694,1,0,0,1.1399,optionLeft,45,10420,5,9,0,9,0,1,,,,,,,,,,,,,,,,,,,,,,,,,,,,,,,,,,,,,,,
,,,,,,,,2023-08-06_08h28.44.784,HF_wild_card,2022.2.4,Linux x86_64,60.04563468,5c197c9c020cbb00011201fe,64ce5acb97489d65b14ecc7a,64cf4b7eb9e85d800069566b,,,,,,,sngl,resources/Empty.png,resources/DP.BMP,Door2,0.327267795,0.001493892,1,0,0,1.1461,optionRight,20,10440,5,10,0,10,0,1,,,,,,,,,,,,,,,,,,,,,,,,,,,,,,,,,,,,,,,
,,,,,,,,2023-08-06_08h28.44.784,HF_wild_card,2022.2.4,Linux x86_64,60.04563468,5c197c9c020cbb00011201fe,64ce5acb97489d65b14ecc7a,64cf4b7eb9e85d800069566b,,,,,,,sngl,resources/DBN.BMP,resources/Empty.png,WildCard_Ex,-0.297098513,0.051920855,1,0,0,1.0562,optionLeft,45,10485,5,11,0,11,0,1,,,,,,,,,,,,,,,,,,,,,,,,,,,,,,,,,,,,,,,
,,,,,,,,2023-08-06_08h28.44.784,HF_wild_card,2022.2.4,Linux x86_64,60.04563468,5c197c9c020cbb00011201fe,64ce5acb97489d65b14ecc7a,64cf4b7eb9e85d800069566b,,,,,,,decisionTrl,resources/DB.BMP,resources/DP.BMP,Door1,-0.342610112,0.074088683,1,0,0,1.2459,optionLeft,30,10515,5,12,0,12,0,1,,,,,,,,,,,,,,,,,,,,,,,,,,,,,,,,,,,,,,,
,,,,,,,,2023-08-06_08h28.44.784,HF_wild_card,2022.2.4,Linux x86_64,60.04563468,5c197c9c020cbb00011201fe,64ce5acb97489d65b14ecc7a,64cf4b7eb9e85d800069566b,,,,,,,ctch,resources/DB.BMP,resources/DR.BMP,Door4,0.449056781,-0.021132971,1,0,0,1.2243,optionRight,80,10595,5,13,0,13,0,1,,,,,,,,,,,,,,,,,,,,,,,,,,,,,,,,,,,,,,,
,,,,,,,,2023-08-06_08h28.44.784,HF_wild_card,2022.2.4,Linux x86_64,60.04563468,5c197c9c020cbb00011201fe,64ce5acb97489d65b14ecc7a,64cf4b7eb9e85d800069566b,,,,,,,decisionTrl,resources/DB.BMP,resources/DP.BMP,Door1,-0.273485537,0.014471436,1,0,0,1.5035,optionLeft,30,10625,5,14,0,14,0,1,,,,,,,,,,,,,,,,,,,,,,,,,,,,,,,,,,,,,,,
,,,,,,,,2023-08-06_08h28.44.784,HF_wild_card,2022.2.4,Linux x86_64,60.04563468,5c197c9c020cbb00011201fe,64ce5acb97489d65b14ecc7a,64cf4b7eb9e85d800069566b,,,,,,,decisionTrl,resources/DP.BMP,resources/DB.BMP,Door1,0.269212059,-0.054774532,1,0,0,2.3233,optionRight,30,10655,5,15,0,15,0,1,,,,,,,,,,,,,,,,,,,,,,,,,,,,,,,,,,,,,,,
,,,,,,,,2023-08-06_08h28.44.784,HF_wild_card,2022.2.4,Linux x86_64,60.04563468,5c197c9c020cbb00011201fe,64ce5acb97489d65b14ecc7a,64cf4b7eb9e85d800069566b,,,,,,,sngl,resources/DBN.BMP,resources/Empty.png,WildCard_Ex,-0.287266823,0.024474533,1,0,0,1.0063,optionLeft,55,10710,5,16,0,16,0,1,,,,,,,,,,,,,,,,,,,,,,,,,,,,,,,,,,,,,,,
,,,,,,,,2023-08-06_08h28.44.784,HF_wild_card,2022.2.4,Linux x86_64,60.04563468,5c197c9c020cbb00011201fe,64ce5acb97489d65b14ecc7a,64cf4b7eb9e85d800069566b,,,,,,,sngl,resources/Empty.png,resources/DR.BMP,Door4,0.306291707,0.030267532,1,0,0,1.0753,optionRight,60,10770,5,17,0,17,0,1,,,,,,,,,,,,,,,,,,,,,,,,,,,,,,,,,,,,,,,
,,,,,,,,2023-08-06_08h28.44.784,HF_wild_card,2022.2.4,Linux x86_64,60.04563468,5c197c9c020cbb00011201fe,64ce5acb97489d65b14ecc7a,64cf4b7eb9e85d800069566b,,,,,,,ctch,resources/DY.BMP,resources/DP.BMP,Door3,-0.287195954,0.000138968,1,0,0,0.9682,optionLeft,70,10840,5,18,0,18,0,1,,,,,,,,,,,,,,,,,,,,,,,,,,,,,,,,,,,,,,,
,,,,,,,,2023-08-06_08h28.44.784,HF_wild_card,2022.2.4,Linux x86_64,60.04563468,5c197c9c020cbb00011201fe,64ce5acb97489d65b14ecc7a,64cf4b7eb9e85d800069566b,,,,,,,sngl,resources/DB.BMP,resources/Empty.png,Door1,-0.290576115,0.034808915,1,0,0,1.0589,optionLeft,30,10870,5,19,0,19,0,1,,,,,,,,,,,,,,,,,,,,,,,,,,,,,,,,,,,,,,,
,,,,,,,,2023-08-06_08h28.44.784,HF_wild_card,2022.2.4,Linux x86_64,60.04563468,5c197c9c020cbb00011201fe,64ce5acb97489d65b14ecc7a,64cf4b7eb9e85d800069566b,,,,,,,ctch,resources/DB.BMP,resources/DR.BMP,Door4,0.359518772,-0.027589473,1,0,0,1.4086,optionRight,80,10950,5,20,0,20,0,1,,,,,,,,,,,,,,,,,,,,,,,,,,,,,,,,,,,,,,,
,,,,,,,,2023-08-06_08h28.44.784,HF_wild_card,2022.2.4,Linux x86_64,60.04563468,5c197c9c020cbb00011201fe,64ce5acb97489d65b14ecc7a,64cf4b7eb9e85d800069566b,,,,,,,sngl,resources/DP.BMP,resources/Empty.png,Door2,-0.26772184,0.000753897,1,0,0,1.0908,optionLeft,40,10990,5,21,0,21,0,1,,,,,,,,,,,,,,,,,,,,,,,,,,,,,,,,,,,,,,,
,,,,,,,,2023-08-06_08h28.44.784,HF_wild_card,2022.2.4,Linux x86_64,60.04563468,5c197c9c020cbb00011201fe,64ce5acb97489d65b14ecc7a,64cf4b7eb9e85d800069566b,,,,,,,decisionTrl,resources/DB.BMP,resources/DP.BMP,Door1,-0.279188933,-0.008137456,1,0,0,1.2079,optionLeft,30,11020,5,22,0,22,0,1,,,,,,,,,,,,,,,,,,,,,,,,,,,,,,,,,,,,,,,
,,,,,,,,2023-08-06_08h28.44.784,HF_wild_card,2022.2.4,Linux x86_64,60.04563468,5c197c9c020cbb00011201fe,64ce5acb97489d65b14ecc7a,64cf4b7eb9e85d800069566b,,,,,,,sngl,resources/Empty.png,resources/DB.BMP,Door1,0.362431505,-0.020056548,1,0,0,1.0945,optionRight,30,11050,5,23,0,23,0,1,,,,,,,,,,,,,,,,,,,,,,,,,,,,,,,,,,,,,,,
,,,,,,,,2023-08-06_08h28.44.784,HF_wild_card,2022.2.4,Linux x86_64,60.04563468,5c197c9c020cbb00011201fe,64ce5acb97489d65b14ecc7a,64cf4b7eb9e85d800069566b,,,,,,,decisionTrl,resources/DR.BMP,resources/DY.BMP,Door3,0.338003088,0.011887388,1,0,0,1.1146,optionRight,70,11120,5,24,0,24,0,1,,,,,,,,,,,,,,,,,,,,,,,,,,,,,,,,,,,,,,,
,,,,,,,,2023-08-06_08h28.44.784,HF_wild_card,2022.2.4,Linux x86_64,60.04563468,5c197c9c020cbb00011201fe,64ce5acb97489d65b14ecc7a,64cf4b7eb9e85d800069566b,,,,,,,decisionTrl,resources/DY.BMP,resources/DR.BMP,Door3,-0.278295729,0.000189605,1,0,0,1.0903,optionLeft,70,11190,5,25,0,25,0,1,,,,,,,,,,,,,,,,,,,,,,,,,,,,,,,,,,,,,,,
,,,,,,,,2023-08-06_08h28.44.784,HF_wild_card,2022.2.4,Linux x86_64,60.04563468,5c197c9c020cbb00011201fe,64ce5acb97489d65b14ecc7a,64cf4b7eb9e85d800069566b,,,,,,,decisionTrl,resources/DR.BMP,resources/DBN.BMP,Door4,-0.323154704,-0.004867836,1,0,0,1.033,optionLeft,80,11270,5,26,0,26,0,1,,,,,,,,,,,,,,,,,,,,,,,,,,,,,,,,,,,,,,,
,,,,,,,,2023-08-06_08h28.44.784,HF_wild_card,2022.2.4,Linux x86_64,60.04563468,5c197c9c020cbb00011201fe,64ce5acb97489d65b14ecc7a,64cf4b7eb9e85d800069566b,,,,,,,decisionTrl,resources/DY.BMP,resources/DR.BMP,Door4,0.383761936,0.016196979,1,0,0,1.7568,optionRight,60,11330,5,27,0,27,0,1,,,,,,,,,,,,,,,,,,,,,,,,,,,,,,,,,,,,,,,
,,,,,,,,2023-08-06_08h28.44.784,HF_wild_card,2022.2.4,Linux x86_64,60.04563468,5c197c9c020cbb00011201fe,64ce5acb97489d65b14ecc7a,64cf4b7eb9e85d800069566b,,,,,,,decisionTrl,resources/DBN.BMP,resources/DY.BMP,Door3,0.427925732,-0.013067344,1,0,0,1.3415,optionRight,70,11400,5,28,0,28,0,1,,,,,,,,,,,,,,,,,,,,,,,,,,,,,,,,,,,,,,,
,,,,,,,,2023-08-06_08h28.44.784,HF_wild_card,2022.2.4,Linux x86_64,60.04563468,5c197c9c020cbb00011201fe,64ce5acb97489d65b14ecc7a,64cf4b7eb9e85d800069566b,,,,,,,decisionTrl,resources/DP.BMP,resources/DBN.BMP,WildCard_Ex,0.366343293,0.050607215,1,0,0,1.5087,optionRight,55,11455,5,29,0,29,0,1,,,,,,,,,,,,,,,,,,,,,,,,,,,,,,,,,,,,,,,
,,,,,,,,2023-08-06_08h28.44.784,HF_wild_card,2022.2.4,Linux x86_64,60.04563468,5c197c9c020cbb00011201fe,64ce5acb97489d65b14ecc7a,64cf4b7eb9e85d800069566b,,,,,,,decisionTrl,resources/DY.BMP,resources/DR.BMP,Door3,-0.35064409,0.002143973,1,0,0,2.0249,optionLeft,70,11525,5,30,0,30,0,1,,,,,,,,,,,,,,,,,,,,,,,,,,,,,,,,,,,,,,,
,,,,,,,,2023-08-06_08h28.44.784,HF_wild_card,2022.2.4,Linux x86_64,60.04563468,5c197c9c020cbb00011201fe,64ce5acb97489d65b14ecc7a,64cf4b7eb9e85d800069566b,,,,,,,decisionTrl,resources/DR.BMP,resources/DY.BMP,Door3,0.376435569,-0.014391581,1,0,0,1.1783,optionRight,70,11595,5,31,0,31,0,1,,,,,,,,,,,,,,,,,,,,,,,,,,,,,,,,,,,,,,,
,,,,,,,,2023-08-06_08h28.44.784,HF_wild_card,2022.2.4,Linux x86_64,60.04563468,5c197c9c020cbb00011201fe,64ce5acb97489d65b14ecc7a,64cf4b7eb9e85d800069566b,,,,,,,decisionTrl,resources/DP.BMP,resources/DB.BMP,Door1,0.312909501,-0.012616193,1,0,0,1.362,optionRight,30,11625,5,32,0,32,0,1,,,,,,,,,,,,,,,,,,,,,,,,,,,,,,,,,,,,,,,
,,,,,,,,2023-08-06_08h28.44.784,HF_wild_card,2022.2.4,Linux x86_64,60.04563468,5c197c9c020cbb00011201fe,64ce5acb97489d65b14ecc7a,64cf4b7eb9e85d800069566b,,,,,,,decisionTrl,resources/DBN.BMP,resources/DR.BMP,Door4,0.317483068,-0.05052931,1,0,0,2.1224,optionRight,60,11685,5,33,0,33,0,1,,,,,,,,,,,,,,,,,,,,,,,,,,,,,,,,,,,,,,,
,,,,,,,,2023-08-06_08h28.44.784,HF_wild_card,2022.2.4,Linux x86_64,60.04563468,5c197c9c020cbb00011201fe,64ce5acb97489d65b14ecc7a,64cf4b7eb9e85d800069566b,,,,,,,ctch,resources/DR.BMP,resources/DB.BMP,Door4,-0.282556774,0.010022481,1,0,0,1.3072,optionLeft,60,11745,5,34,0,34,0,1,,,,,,,,,,,,,,,,,,,,,,,,,,,,,,,,,,,,,,,
,,,,,,,,2023-08-06_08h28.44.784,HF_wild_card,2022.2.4,Linux x86_64,60.04563468,5c197c9c020cbb00011201fe,64ce5acb97489d65b14ecc7a,64cf4b7eb9e85d800069566b,,,,,,,sngl,resources/DR.BMP,resources/Empty.png,Door4,-0.277058354,0.009989647,1,0,0,0.9926,optionLeft,80,11825,5,35,0,35,0,1,,,,,,,,,,,,,,,,,,,,,,,,,,,,,,,,,,,,,,,
,,,,,,,,2023-08-06_08h28.44.784,HF_wild_card,2022.2.4,Linux x86_64,60.04563468,5c197c9c020cbb00011201fe,64ce5acb97489d65b14ecc7a,64cf4b7eb9e85d800069566b,,,,,,,decisionTrl,resources/DP.BMP,resources/DB.BMP,Door1,0.311927061,-0.022616295,1,0,0,1.4416,optionRight,30,11855,5,36,0,36,0,1,,,,,,,,,,,,,,,,,,,,,,,,,,,,,,,,,,,,,,,
,,,,,,,,2023-08-06_08h28.44.784,HF_wild_card,2022.2.4,Linux x86_64,60.04563468,5c197c9c020cbb00011201fe,64ce5acb97489d65b14ecc7a,64cf4b7eb9e85d800069566b,,,,,,,ctch,resources/DP.BMP,resources/DY.BMP,Door3,0.399427287,-0.004743788,1,0,0,1.341,optionRight,70,11925,5,37,0,37,0,1,,,,,,,,,,,,,,,,,,,,,,,,,,,,,,,,,,,,,,,
,,,,,,,,2023-08-06_08h28.44.784,HF_wild_card,2022.2.4,Linux x86_64,60.04563468,5c197c9c020cbb00011201fe,64ce5acb97489d65b14ecc7a,64cf4b7eb9e85d800069566b,,,,,,,decisionTrl,resources/DB.BMP,resources/DBN.BMP,WildCard_Ex,0.378644477,0.087315171,1,0,0,1.3065,optionRight,55,11980,5,38,0,38,0,1,,,,,,,,,,,,,,,,,,,,,,,,,,,,,,,,,,,,,,,
,,,,,,,,2023-08-06_08h28.44.784,HF_wild_card,2022.2.4,Linux x86_64,60.04563468,5c197c9c020cbb00011201fe,64ce5acb97489d65b14ecc7a,64cf4b7eb9e85d800069566b,,,,,,,sngl,resources/Empty.png,resources/DY.BMP,Door3,0.341269486,0.034751186,1,0,0,0.9725,optionRight,70,12050,5,39,0,39,0,1,,,,,,,,,,,,,,,,,,,,,,,,,,,,,,,,,,,,,,,
,,,,,,,,2023-08-06_08h28.44.784,HF_wild_card,2022.2.4,Linux x86_64,60.04563468,5c197c9c020cbb00011201fe,64ce5acb97489d65b14ecc7a,64cf4b7eb9e85d800069566b,,,,,,,decisionTrl,resources/DP.BMP,resources/DB.BMP,Door1,0.272802395,-0.010280694,1,0,0,1.9596,optionRight,30,12080,5,40,0,40,0,1,,,,,,,,,,,,,,,,,,,,,,,,,,,,,,,,,,,,,,,
,,,,,,,,2023-08-06_08h28.44.784,HF_wild_card,2022.2.4,Linux x86_64,60.04563468,5c197c9c020cbb00011201fe,64ce5acb97489d65b14ecc7a,64cf4b7eb9e85d800069566b,,,,,,,sngl,resources/Empty.png,resources/DBN.BMP,WildCard_Ex,0.318145413,0.036331092,1,0,0,1.0451,optionRight,55,12135,5,41,0,41,0,1,,,,,,,,,,,,,,,,,,,,,,,,,,,,,,,,,,,,,,,
,,,,,,,,2023-08-06_08h28.44.784,HF_wild_card,2022.2.4,Linux x86_64,60.04563468,5c197c9c020cbb00011201fe,64ce5acb97489d65b14ecc7a,64cf4b7eb9e85d800069566b,,,,,,,ctch,resources/DY.BMP,resources/DP.BMP,Door3,-0.295471813,-0.006429715,1,0,0,2.2069,optionLeft,70,12205,5,42,0,42,0,1,,,,,,,,,,,,,,,,,,,,,,,,,,,,,,,,,,,,,,,
,,,,,,,,2023-08-06_08h28.44.784,HF_wild_card,2022.2.4,Linux x86_64,60.04563468,5c197c9c020cbb00011201fe,64ce5acb97489d65b14ecc7a,64cf4b7eb9e85d800069566b,,,,,,,decisionTrl,resources/DR.BMP,resources/DY.BMP,Door4,-0.321720378,-0.017023892,1,0,0,4.8525,optionLeft,80,12285,5,43,0,43,0,1,,,,,,,,,,,,,,,,,,,,,,,,,,,,,,,,,,,,,,,
,,,,,,,,2023-08-06_08h28.44.784,HF_wild_card,2022.2.4,Linux x86_64,60.04563468,5c197c9c020cbb00011201fe,64ce5acb97489d65b14ecc7a,64cf4b7eb9e85d800069566b,,,,,,,,,,,,,,,,,,,,,,,,,,4,0,4,0,1,,,,,,,,,,,,,,,,,,,,,,,,,,,,,,,,,,
,,,,,,,,2023-08-06_08h28.44.784,HF_wild_card,2022.2.4,Linux x86_64,60.04563468,5c197c9c020cbb00011201fe,64ce5acb97489d65b14ecc7a,64cf4b7eb9e85d800069566b,,,,,,,ctch,resources/DR.BMP,resources/DB.BMP,Door4,-0.24686381,-0.007797467,1,0,0,1.4633,optionLeft,80,12365,6,0,0,0,0,1,,,,,,,,,,,,,,,,,,,,,,,,,,,,,,,,,,,,,,,
,,,,,,,,2023-08-06_08h28.44.784,HF_wild_card,2022.2.4,Linux x86_64,60.04563468,5c197c9c020cbb00011201fe,64ce5acb97489d65b14ecc7a,64cf4b7eb9e85d800069566b,,,,,,,decisionTrl,resources/DB.BMP,resources/DBN.BMP,WildCard_Ex,0.328370158,0.067933316,1,0,0,1.3231,optionRight,55,12420,6,1,0,1,0,1,,,,,,,,,,,,,,,,,,,,,,,,,,,,,,,,,,,,,,,
,,,,,,,,2023-08-06_08h28.44.784,HF_wild_card,2022.2.4,Linux x86_64,60.04563468,5c197c9c020cbb00011201fe,64ce5acb97489d65b14ecc7a,64cf4b7eb9e85d800069566b,,,,,,,decisionTrl,resources/DY.BMP,resources/DBN.BMP,Door3,-0.302846216,0.079057679,1,0,0,1.3576,optionLeft,70,12490,6,2,0,2,0,1,,,,,,,,,,,,,,,,,,,,,,,,,,,,,,,,,,,,,,,
,,,,,,,,2023-08-06_08h28.44.784,HF_wild_card,2022.2.4,Linux x86_64,60.04563468,5c197c9c020cbb00011201fe,64ce5acb97489d65b14ecc7a,64cf4b7eb9e85d800069566b,,,,,,,decisionTrl,resources/DB.BMP,resources/DP.BMP,Door1,-0.210188746,0.002935791,1,0,0,1.4071,optionLeft,30,12520,6,3,0,3,0,1,,,,,,,,,,,,,,,,,,,,,,,,,,,,,,,,,,,,,,,
,,,,,,,,2023-08-06_08h28.44.784,HF_wild_card,2022.2.4,Linux x86_64,60.04563468,5c197c9c020cbb00011201fe,64ce5acb97489d65b14ecc7a,64cf4b7eb9e85d800069566b,,,,,,,decisionTrl,resources/DP.BMP,resources/DB.BMP,Door1,0.377587099,0.062257583,1,0,0,1.7076,optionRight,30,12550,6,4,0,4,0,1,,,,,,,,,,,,,,,,,,,,,,,,,,,,,,,,,,,,,,,
,,,,,,,,2023-08-06_08h28.44.784,HF_wild_card,2022.2.4,Linux x86_64,60.04563468,5c197c9c020cbb00011201fe,64ce5acb97489d65b14ecc7a,64cf4b7eb9e85d800069566b,,,,,,,decisionTrl,resources/DY.BMP,resources/DR.BMP,Door4,0.295207158,0.055984836,1,0,0,3.1397,optionRight,60,12610,6,5,0,5,0,1,,,,,,,,,,,,,,,,,,,,,,,,,,,,,,,,,,,,,,,
,,,,,,,,2023-08-06_08h28.44.784,HF_wild_card,2022.2.4,Linux x86_64,60.04563468,5c197c9c020cbb00011201fe,64ce5acb97489d65b14ecc7a,64cf4b7eb9e85d800069566b,,,,,,,ctch,resources/DR.BMP,resources/DB.BMP,Door4,-0.233448678,0.032038625,1,0,0,1.2606,optionLeft,60,12670,6,6,0,6,0,1,,,,,,,,,,,,,,,,,,,,,,,,,,,,,,,,,,,,,,,
,,,,,,,,2023-08-06_08h28.44.784,HF_wild_card,2022.2.4,Linux x86_64,60.04563468,5c197c9c020cbb00011201fe,64ce5acb97489d65b14ecc7a,64cf4b7eb9e85d800069566b,,,,,,,sngl,resources/Empty.png,resources/DY.BMP,Door3,0.297773686,0.015205835,1,0,0,1.0923,optionRight,70,12740,6,7,0,7,0,1,,,,,,,,,,,,,,,,,,,,,,,,,,,,,,,,,,,,,,,
,,,,,,,,2023-08-06_08h28.44.784,HF_wild_card,2022.2.4,Linux x86_64,60.04563468,5c197c9c020cbb00011201fe,64ce5acb97489d65b14ecc7a,64cf4b7eb9e85d800069566b,,,,,,,decisionTrl,resources/DR.BMP,resources/DY.BMP,Door3,0.301773071,0.038278792,1,0,0,1.2566,optionRight,70,12810,6,8,0,8,0,1,,,,,,,,,,,,,,,,,,,,,,,,,,,,,,,,,,,,,,,
,,,,,,,,2023-08-06_08h28.44.784,HF_wild_card,2022.2.4,Linux x86_64,60.04563468,5c197c9c020cbb00011201fe,64ce5acb97489d65b14ecc7a,64cf4b7eb9e85d800069566b,,,,,,,decisionTrl,resources/DB.BMP,resources/DP.BMP,Door1,-0.250074881,0.014507435,1,0,0,1.7888,optionLeft,30,12840,6,9,0,9,0,1,,,,,,,,,,,,,,,,,,,,,,,,,,,,,,,,,,,,,,,
,,,,,,,,2023-08-06_08h28.44.784,HF_wild_card,2022.2.4,Linux x86_64,60.04563468,5c197c9c020cbb00011201fe,64ce5acb97489d65b14ecc7a,64cf4b7eb9e85d800069566b,,,,,,,decisionTrl,resources/DB.BMP,resources/DP.BMP,Door1,-0.27816456,0.007898514,1,0,0,1.1921,optionLeft,30,12870,6,10,0,10,0,1,,,,,,,,,,,,,,,,,,,,,,,,,,,,,,,,,,,,,,,
,,,,,,,,2023-08-06_08h28.44.784,HF_wild_card,2022.2.4,Linux x86_64,60.04563468,5c197c9c020cbb00011201fe,64ce5acb97489d65b14ecc7a,64cf4b7eb9e85d800069566b,,,,,,,decisionTrl,resources/DBN.BMP,resources/DB.BMP,WildCard_Ex,-0.225738751,0.023506052,1,0,0,2.8024,optionLeft,55,12925,6,11,0,11,0,1,,,,,,,,,,,,,,,,,,,,,,,,,,,,,,,,,,,,,,,
,,,,,,,,2023-08-06_08h28.44.784,HF_wild_card,2022.2.4,Linux x86_64,60.04563468,5c197c9c020cbb00011201fe,64ce5acb97489d65b14ecc7a,64cf4b7eb9e85d800069566b,,,,,,,sngl,resources/Empty.png,resources/DBN.BMP,WildCard_Ex,0.315444381,-0.006244688,1,0,0,1.1551,optionRight,55,12980,6,12,0,12,0,1,,,,,,,,,,,,,,,,,,,,,,,,,,,,,,,,,,,,,,,
,,,,,,,,2023-08-06_08h28.44.784,HF_wild_card,2022.2.4,Linux x86_64,60.04563468,5c197c9c020cbb00011201fe,64ce5acb97489d65b14ecc7a,64cf4b7eb9e85d800069566b,,,,,,,decisionTrl,resources/DR.BMP,resources/DY.BMP,Door3,0.362903849,-0.016221449,1,0,0,1.4717,optionRight,70,13050,6,13,0,13,0,1,,,,,,,,,,,,,,,,,,,,,,,,,,,,,,,,,,,,,,,
,,,,,,,,2023-08-06_08h28.44.784,HF_wild_card,2022.2.4,Linux x86_64,60.04563468,5c197c9c020cbb00011201fe,64ce5acb97489d65b14ecc7a,64cf4b7eb9e85d800069566b,,,,,,,sngl,resources/DR.BMP,resources/Empty.png,Door4,-0.281628531,-0.011321174,1,0,0,1.0719,optionLeft,60,13110,6,14,0,14,0,1,,,,,,,,,,,,,,,,,,,,,,,,,,,,,,,,,,,,,,,
,,,,,,,,2023-08-06_08h28.44.784,HF_wild_card,2022.2.4,Linux x86_64,60.04563468,5c197c9c020cbb00011201fe,64ce5acb97489d65b14ecc7a,64cf4b7eb9e85d800069566b,,,,,,,decisionTrl,resources/DY.BMP,resources/DR.BMP,Door3,-0.286618946,0.023122999,1,0,0,1.1232,optionLeft,70,13180,6,15,0,15,0,1,,,,,,,,,,,,,,,,,,,,,,,,,,,,,,,,,,,,,,,
,,,,,,,,2023-08-06_08h28.44.784,HF_wild_card,2022.2.4,Linux x86_64,60.04563468,5c197c9c020cbb00011201fe,64ce5acb97489d65b14ecc7a,64cf4b7eb9e85d800069566b,,,,,,,sngl,resources/DY.BMP,resources/Empty.png,Door3,-0.269558546,0.003749819,1,0,0,0.9135,optionLeft,70,13250,6,16,0,16,0,1,,,,,,,,,,,,,,,,,,,,,,,,,,,,,,,,,,,,,,,
,,,,,,,,2023-08-06_08h28.44.784,HF_wild_card,2022.2.4,Linux x86_64,60.04563468,5c197c9c020cbb00011201fe,64ce5acb97489d65b14ecc7a,64cf4b7eb9e85d800069566b,,,,,,,ctch,resources/DB.BMP,resources/DR.BMP,Door4,0.31884856,-0.031638421,1,0,0,1.3728,optionRight,80,13330,6,17,0,17,0,1,,,,,,,,,,,,,,,,,,,,,,,,,,,,,,,,,,,,,,,
,,,,,,,,2023-08-06_08h28.44.784,HF_wild_card,2022.2.4,Linux x86_64,60.04563468,5c197c9c020cbb00011201fe,64ce5acb97489d65b14ecc7a,64cf4b7eb9e85d800069566b,,,,,,,decisionTrl,resources/DBN.BMP,resources/DR.BMP,Door4,0.354000854,0.011278901,1,0,0,1.7573,optionRight,80,13410,6,18,0,18,0,1,,,,,,,,,,,,,,,,,,,,,,,,,,,,,,,,,,,,,,,
,,,,,,,,2023-08-06_08h28.44.784,HF_wild_card,2022.2.4,Linux x86_64,60.04563468,5c197c9c020cbb00011201fe,64ce5acb97489d65b14ecc7a,64cf4b7eb9e85d800069566b,,,,,,,decisionTrl,resources/DY.BMP,resources/DR.BMP,Door3,-0.245902676,0.061363757,1,0,0,1.1379,optionLeft,70,13480,6,19,0,19,0,1,,,,,,,,,,,,,,,,,,,,,,,,,,,,,,,,,,,,,,,
,,,,,,,,2023-08-06_08h28.44.784,HF_wild_card,2022.2.4,Linux x86_64,60.04563468,5c197c9c020cbb00011201fe,64ce5acb97489d65b14ecc7a,64cf4b7eb9e85d800069566b,,,,,,,sngl,resources/DBN.BMP,resources/Empty.png,WildCard_Ex,-0.278033899,0.072429883,1,0,0,1.3389,optionLeft,55,13535,6,20,0,20,0,1,,,,,,,,,,,,,,,,,,,,,,,,,,,,,,,,,,,,,,,
,,,,,,,,2023-08-06_08h28.44.784,HF_wild_card,2022.2.4,Linux x86_64,60.04563468,5c197c9c020cbb00011201fe,64ce5acb97489d65b14ecc7a,64cf4b7eb9e85d800069566b,,,,,,,decisionTrl,resources/DR.BMP,resources/DY.BMP,Door3,0.391889671,-0.022724519,1,0,0,1.8874,optionRight,70,13605,6,21,0,21,0,1,,,,,,,,,,,,,,,,,,,,,,,,,,,,,,,,,,,,,,,
,,,,,,,,2023-08-06_08h28.44.784,HF_wild_card,2022.2.4,Linux x86_64,60.04563468,5c197c9c020cbb00011201fe,64ce5acb97489d65b14ecc7a,64cf4b7eb9e85d800069566b,,,,,,,decisionTrl,resources/DP.BMP,resources/DB.BMP,Door1,0.298152443,0.025929515,1,0,0,1.3889,optionRight,30,13635,6,22,0,22,0,1,,,,,,,,,,,,,,,,,,,,,,,,,,,,,,,,,,,,,,,
,,,,,,,,2023-08-06_08h28.44.784,HF_wild_card,2022.2.4,Linux x86_64,60.04563468,5c197c9c020cbb00011201fe,64ce5acb97489d65b14ecc7a,64cf4b7eb9e85d800069566b,,,,,,,ctch,resources/DP.BMP,resources/DY.BMP,Door3,0.347142198,0.049130729,1,0,0,1.3415,optionRight,70,13705,6,23,0,23,0,1,,,,,,,,,,,,,,,,,,,,,,,,,,,,,,,,,,,,,,,
,,,,,,,,2023-08-06_08h28.44.784,HF_wild_card,2022.2.4,Linux x86_64,60.04563468,5c197c9c020cbb00011201fe,64ce5acb97489d65b14ecc7a,64cf4b7eb9e85d800069566b,,,,,,,sngl,resources/Empty.png,resources/DR.BMP,Door4,0.364094374,0.073846068,1,0,0,1.0233,optionRight,80,13785,6,24,0,24,0,1,,,,,,,,,,,,,,,,,,,,,,,,,,,,,,,,,,,,,,,
,,,,,,,,2023-08-06_08h28.44.784,HF_wild_card,2022.2.4,Linux x86_64,60.04563468,5c197c9c020cbb00011201fe,64ce5acb97489d65b14ecc7a,64cf4b7eb9e85d800069566b,,,,,,,sngl,resources/Empty.png,resources/DB.BMP,Door1,0.347188653,0.015505642,1,0,0,1.3716,optionRight,30,13815,6,25,0,25,0,1,,,,,,,,,,,,,,,,,,,,,,,,,,,,,,,,,,,,,,,
,,,,,,,,2023-08-06_08h28.44.784,HF_wild_card,2022.2.4,Linux x86_64,60.04563468,5c197c9c020cbb00011201fe,64ce5acb97489d65b14ecc7a,64cf4b7eb9e85d800069566b,,,,,,,sngl,resources/DP.BMP,resources/Empty.png,Door2,-0.298292259,0.032474518,1,0,0,1.1592,optionLeft,20,13835,6,26,0,26,0,1,,,,,,,,,,,,,,,,,,,,,,,,,,,,,,,,,,,,,,,
,,,,,,,,2023-08-06_08h28.44.784,HF_wild_card,2022.2.4,Linux x86_64,60.04563468,5c197c9c020cbb00011201fe,64ce5acb97489d65b14ecc7a,64cf4b7eb9e85d800069566b,,,,,,,ctch,resources/DY.BMP,resources/DP.BMP,Door3,-0.335923145,0.036999596,1,0,0,1.4215,optionLeft,70,13905,6,27,0,27,0,1,,,,,,,,,,,,,,,,,,,,,,,,,,,,,,,,,,,,,,,
,,,,,,,,2023-08-06_08h28.44.784,HF_wild_card,2022.2.4,Linux x86_64,60.04563468,5c197c9c020cbb00011201fe,64ce5acb97489d65b14ecc7a,64cf4b7eb9e85d800069566b,,,,,,,sngl,resources/DB.BMP,resources/Empty.png,Door1,-0.251119939,0.029643419,1,0,0,1.1847,optionLeft,30,13935,6,28,0,28,0,1,,,,,,,,,,,,,,,,,,,,,,,,,,,,,,,,,,,,,,,
,,,,,,,,2023-08-06_08h28.44.784,HF_wild_card,2022.2.4,Linux x86_64,60.04563468,5c197c9c020cbb00011201fe,64ce5acb97489d65b14ecc7a,64cf4b7eb9e85d800069566b,,,,,,,decisionTrl,resources/DY.BMP,resources/DR.BMP,Door3,-0.252721998,-0.011988435,1,0,0,1.4577,optionLeft,70,14005,6,29,0,29,0,1,,,,,,,,,,,,,,,,,,,,,,,,,,,,,,,,,,,,,,,
,,,,,,,,2023-08-06_08h28.44.784,HF_wild_card,2022.2.4,Linux x86_64,60.04563468,5c197c9c020cbb00011201fe,64ce5acb97489d65b14ecc7a,64cf4b7eb9e85d800069566b,,,,,,,ctch,resources/DB.BMP,resources/DR.BMP,Door4,0.324318215,-0.045666617,1,0,0,1.3091,optionRight,60,14065,6,30,0,30,0,1,,,,,,,,,,,,,,,,,,,,,,,,,,,,,,,,,,,,,,,
,,,,,,,,2023-08-06_08h28.44.784,HF_wild_card,2022.2.4,Linux x86_64,60.04563468,5c197c9c020cbb00011201fe,64ce5acb97489d65b14ecc7a,64cf4b7eb9e85d800069566b,,,,,,,sngl,resources/DBN.BMP,resources/Empty.png,WildCard_Ex,-0.333422965,0.015211939,1,0,0,1.1372,optionLeft,45,14110,6,31,0,31,0,1,,,,,,,,,,,,,,,,,,,,,,,,,,,,,,,,,,,,,,,
,,,,,,,,2023-08-06_08h28.44.784,HF_wild_card,2022.2.4,Linux x86_64,60.04563468,5c197c9c020cbb00011201fe,64ce5acb97489d65b14ecc7a,64cf4b7eb9e85d800069566b,,,,,,,decisionTrl,resources/DP.BMP,resources/DB.BMP,Door1,0.2565042,-0.000272398,1,0,0,1.7889,optionRight,30,14140,6,32,0,32,0,1,,,,,,,,,,,,,,,,,,,,,,,,,,,,,,,,,,,,,,,
,,,,,,,,2023-08-06_08h28.44.784,HF_wild_card,2022.2.4,Linux x86_64,60.04563468,5c197c9c020cbb00011201fe,64ce5acb97489d65b14ecc7a,64cf4b7eb9e85d800069566b,,,,,,,decisionTrl,resources/DB.BMP,resources/DP.BMP,Door1,-0.195281643,-0.005922501,1,0,0,1.6203,optionLeft,30,14170,6,33,0,33,0,1,,,,,,,,,,,,,,,,,,,,,,,,,,,,,,,,,,,,,,,
,,,,,,,,2023-08-06_08h28.44.784,HF_wild_card,2022.2.4,Linux x86_64,60.04563468,5c197c9c020cbb00011201fe,64ce5acb97489d65b14ecc7a,64cf4b7eb9e85d800069566b,,,,,,,sngl,resources/Empty.png,resources/DP.BMP,Door2,0.310158511,0.024426835,1,0,0,1.49,optionRight,40,14210,6,34,0,34,0,1,,,,,,,,,,,,,,,,,,,,,,,,,,,,,,,,,,,,,,,
,,,,,,,,2023-08-06_08h28.44.784,HF_wild_card,2022.2.4,Linux x86_64,60.04563468,5c197c9c020cbb00011201fe,64ce5acb97489d65b14ecc7a,64cf4b7eb9e85d800069566b,,,,,,,decisionTrl,resources/DBN.BMP,resources/DY.BMP,Door3,0.334150074,-0.00087642,1,0,0,1.4234,optionRight,70,14280,6,35,0,35,0,1,,,,,,,,,,,,,,,,,,,,,,,,,,,,,,,,,,,,,,,
,,,,,,,,2023-08-06_08h28.44.784,HF_wild_card,2022.2.4,Linux x86_64,60.04563468,5c197c9c020cbb00011201fe,64ce5acb97489d65b14ecc7a,64cf4b7eb9e85d800069566b,,,,,,,ctch,resources/DP.BMP,resources/DY.BMP,Door3,0.338967782,0.044842642,1,0,0,1.6078,optionRight,70,14350,6,36,0,36,0,1,,,,,,,,,,,,,,,,,,,,,,,,,,,,,,,,,,,,,,,
,,,,,,,,2023-08-06_08h28.44.784,HF_wild_card,2022.2.4,Linux x86_64,60.04563468,5c197c9c020cbb00011201fe,64ce5acb97489d65b14ecc7a,64cf4b7eb9e85d800069566b,,,,,,,decisionTrl,resources/DBN.BMP,resources/DP.BMP,WildCard_Ex,-0.246081826,-0.022614034,1,0,0,2.1568,optionLeft,45,14395,6,37,0,37,0,1,,,,,,,,,,,,,,,,,,,,,,,,,,,,,,,,,,,,,,,
,,,,,,,,2023-08-06_08h28.44.784,HF_wild_card,2022.2.4,Linux x86_64,60.04563468,5c197c9c020cbb00011201fe,64ce5acb97489d65b14ecc7a,64cf4b7eb9e85d800069566b,,,,,,,sngl,resources/Empty.png,resources/DBN.BMP,WildCard_Ex,0.373163859,0.036779503,1,0,0,1.1057,optionRight,45,14440,6,38,0,38,0,1,,,,,,,,,,,,,,,,,,,,,,,,,,,,,,,,,,,,,,,
,,,,,,,,2023-08-06_08h28.44.784,HF_wild_card,2022.2.4,Linux x86_64,60.04563468,5c197c9c020cbb00011201fe,64ce5acb97489d65b14ecc7a,64cf4b7eb9e85d800069566b,,,,,,,decisionTrl,resources/DP.BMP,resources/DBN.BMP,WildCard_Ex,0.316789302,0.078605765,1,0,0,1.4576,optionRight,45,14485,6,39,0,39,0,1,,,,,,,,,,,,,,,,,,,,,,,,,,,,,,,,,,,,,,,
,,,,,,,,2023-08-06_08h28.44.784,HF_wild_card,2022.2.4,Linux x86_64,60.04563468,5c197c9c020cbb00011201fe,64ce5acb97489d65b14ecc7a,64cf4b7eb9e85d800069566b,,,,,,,decisionTrl,resources/DP.BMP,resources/DB.BMP,Door1,0.387754087,0.023678702,1,0,0,1.409,optionRight,30,14515,6,40,0,40,0,1,,,,,,,,,,,,,,,,,,,,,,,,,,,,,,,,,,,,,,,
,,,,,,,,2023-08-06_08h28.44.784,HF_wild_card,2022.2.4,Linux x86_64,60.04563468,5c197c9c020cbb00011201fe,64ce5acb97489d65b14ecc7a,64cf4b7eb9e85d800069566b,,,,,,,decisionTrl,resources/DR.BMP,resources/DY.BMP,Door3,0.298780879,0.032230942,1,0,0,2.624,optionRight,70,14585,6,41,0,41,0,1,,,,,,,,,,,,,,,,,,,,,,,,,,,,,,,,,,,,,,,
,,,,,,,,2023-08-06_08h28.44.784,HF_wild_card,2022.2.4,Linux x86_64,60.04563468,5c197c9c020cbb00011201fe,64ce5acb97489d65b14ecc7a,64cf4b7eb9e85d800069566b,,,,,,,decisionTrl,resources/DR.BMP,resources/DBN.BMP,Door4,-0.251613589,-0.00515634,1,0,0,2.2568,optionLeft,60,14645,6,42,0,42,0,1,,,,,,,,,,,,,,,,,,,,,,,,,,,,,,,,,,,,,,,
,,,,,,,,2023-08-06_08h28.44.784,HF_wild_card,2022.2.4,Linux x86_64,60.04563468,5c197c9c020cbb00011201fe,64ce5acb97489d65b14ecc7a,64cf4b7eb9e85d800069566b,,,,,,,ctch,resources/DY.BMP,resources/DP.BMP,Door3,-0.200049506,0.004633077,1,0,0,1.6394,optionLeft,70,14715,6,43,0,43,0,1,,,,,,,,,,,,,,,,,,,,,,,,,,,,,,,,,,,,,,,
,,,,,,,,2023-08-06_08h28.44.784,HF_wild_card,2022.2.4,Linux x86_64,60.04563468,5c197c9c020cbb00011201fe,64ce5acb97489d65b14ecc7a,64cf4b7eb9e85d800069566b,,,,,,,,,,,,,,,,,,,,,,,,,,5,0,5,0,1,,,,,,,,,,,,,,,,,,,,,,,,,,,,,,,,,,
,,,,,,,,2023-08-06_08h28.44.784,HF_wild_card,2022.2.4,Linux x86_64,60.04563468,5c197c9c020cbb00011201fe,64ce5acb97489d65b14ecc7a,64cf4b7eb9e85d800069566b,,,,,,,decisionTrl,resources/DR.BMP,resources/DY.BMP,Door3,0.305192283,-0.047945941,1,0,0,2.2266,optionRight,70,14785,7,0,0,0,0,1,,,,,,,,,,,,,,,,,,,,,,,,,,,,,,,,,,,,,,,
,,,,,,,,2023-08-06_08h28.44.784,HF_wild_card,2022.2.4,Linux x86_64,60.04563468,5c197c9c020cbb00011201fe,64ce5acb97489d65b14ecc7a,64cf4b7eb9e85d800069566b,,,,,,,ctch,resources/DR.BMP,resources/DB.BMP,Door4,-0.308819637,-0.047507222,1,0,0,1.5747,optionLeft,60,14845,7,1,0,1,0,1,,,,,,,,,,,,,,,,,,,,,,,,,,,,,,,,,,,,,,,
,,,,,,,,2023-08-06_08h28.44.784,HF_wild_card,2022.2.4,Linux x86_64,60.04563468,5c197c9c020cbb00011201fe,64ce5acb97489d65b14ecc7a,64cf4b7eb9e85d800069566b,,,,,,,decisionTrl,resources/DP.BMP,resources/DB.BMP,Door1,0.281440565,-0.00166852,1,0,0,1.5531,optionRight,30,14875,7,2,0,2,0,1,,,,,,,,,,,,,,,,,,,,,,,,,,,,,,,,,,,,,,,
,,,,,,,,2023-08-06_08h28.44.784,HF_wild_card,2022.2.4,Linux x86_64,60.04563468,5c197c9c020cbb00011201fe,64ce5acb97489d65b14ecc7a,64cf4b7eb9e85d800069566b,,,,,,,decisionTrl,resources/DY.BMP,resources/DR.BMP,Door3,-0.305802578,-0.024910934,1,0,0,1.1893,optionLeft,70,14945,7,3,0,3,0,1,,,,,,,,,,,,,,,,,,,,,,,,,,,,,,,,,,,,,,,
,,,,,,,,2023-08-06_08h28.44.784,HF_wild_card,2022.2.4,Linux x86_64,60.04563468,5c197c9c020cbb00011201fe,64ce5acb97489d65b14ecc7a,64cf4b7eb9e85d800069566b,,,,,,,decisionTrl,resources/DP.BMP,resources/DB.BMP,Door1,0.317543991,-0.028016719,1,0,0,1.4281,optionRight,30,14975,7,4,0,4,0,1,,,,,,,,,,,,,,,,,,,,,,,,,,,,,,,,,,,,,,,
,,,,,,,,2023-08-06_08h28.44.784,HF_wild_card,2022.2.4,Linux x86_64,60.04563468,5c197c9c020cbb00011201fe,64ce5acb97489d65b14ecc7a,64cf4b7eb9e85d800069566b,,,,,,,decisionTrl,resources/DP.BMP,resources/DB.BMP,Door1,0.417121718,0.029401935,1,0,0,1.3115,optionRight,30,15005,7,5,0,5,0,1,,,,,,,,,,,,,,,,,,,,,,,,,,,,,,,,,,,,,,,
,,,,,,,,2023-08-06_08h28.44.784,HF_wild_card,2022.2.4,Linux x86_64,60.04563468,5c197c9c020cbb00011201fe,64ce5acb97489d65b14ecc7a,64cf4b7eb9e85d800069566b,,,,,,,decisionTrl,resources/DB.BMP,resources/DP.BMP,Door1,-0.217960782,0.018776053,1,0,0,1.9591,optionLeft,30,15035,7,6,0,6,0,1,,,,,,,,,,,,,,,,,,,,,,,,,,,,,,,,,,,,,,,
,,,,,,,,2023-08-06_08h28.44.784,HF_wild_card,2022.2.4,Linux x86_64,60.04563468,5c197c9c020cbb00011201fe,64ce5acb97489d65b14ecc7a,64cf4b7eb9e85d800069566b,,,,,,,ctch,resources/DB.BMP,resources/DR.BMP,Door4,0.292973497,-0.0069215,1,0,0,1.3938,optionRight,60,15095,7,7,0,7,0,1,,,,,,,,,,,,,,,,,,,,,,,,,,,,,,,,,,,,,,,
,,,,,,,,2023-08-06_08h28.44.784,HF_wild_card,2022.2.4,Linux x86_64,60.04563468,5c197c9c020cbb00011201fe,64ce5acb97489d65b14ecc7a,64cf4b7eb9e85d800069566b,,,,,,,decisionTrl,resources/DY.BMP,resources/DR.BMP,Door3,-0.338314198,0.014516421,1,0,0,1.5081,optionLeft,70,15165,7,8,0,8,0,1,,,,,,,,,,,,,,,,,,,,,,,,,,,,,,,,,,,,,,,
,,,,,,,,2023-08-06_08h28.44.784,HF_wild_card,2022.2.4,Linux x86_64,60.04563468,5c197c9c020cbb00011201fe,64ce5acb97489d65b14ecc7a,64cf4b7eb9e85d800069566b,,,,,,,decisionTrl,resources/DR.BMP,resources/DY.BMP,Door3,0.375120827,0.032017121,1,0,0,1.2106,optionRight,70,15235,7,9,0,9,0,1,,,,,,,,,,,,,,,,,,,,,,,,,,,,,,,,,,,,,,,
,,,,,,,,2023-08-06_08h28.44.784,HF_wild_card,2022.2.4,Linux x86_64,60.04563468,5c197c9c020cbb00011201fe,64ce5acb97489d65b14ecc7a,64cf4b7eb9e85d800069566b,,,,,,,decisionTrl,resources/DY.BMP,resources/DR.BMP,Door3,-0.299580609,0.018603685,1,0,0,1.0923,optionLeft,70,15305,7,10,0,10,0,1,,,,,,,,,,,,,,,,,,,,,,,,,,,,,,,,,,,,,,,
,,,,,,,,2023-08-06_08h28.44.784,HF_wild_card,2022.2.4,Linux x86_64,60.04563468,5c197c9c020cbb00011201fe,64ce5acb97489d65b14ecc7a,64cf4b7eb9e85d800069566b,,,,,,,decisionTrl,resources/DB.BMP,resources/DP.BMP,Door1,-0.257802667,0.031874282,1,0,0,1.4233,optionLeft,30,15335,7,11,0,11,0,1,,,,,,,,,,,,,,,,,,,,,,,,,,,,,,,,,,,,,,,
,,,,,,,,2023-08-06_08h28.44.784,HF_wild_card,2022.2.4,Linux x86_64,60.04563468,5c197c9c020cbb00011201fe,64ce5acb97489d65b14ecc7a,64cf4b7eb9e85d800069566b,,,,,,,decisionTrl,resources/DP.BMP,resources/DB.BMP,Door1,0.290358819,0.024348224,1,0,0,1.3779,optionRight,30,15365,7,12,0,12,0,1,,,,,,,,,,,,,,,,,,,,,,,,,,,,,,,,,,,,,,,
,,,,,,,,2023-08-06_08h28.44.784,HF_wild_card,2022.2.4,Linux x86_64,60.04563468,5c197c9c020cbb00011201fe,64ce5acb97489d65b14ecc7a,64cf4b7eb9e85d800069566b,,,,,,,ctch,resources/DY.BMP,resources/DP.BMP,Door3,-0.363217502,0.037679743,1,0,0,1.2923,optionLeft,70,15435,7,13,0,13,0,1,,,,,,,,,,,,,,,,,,,,,,,,,,,,,,,,,,,,,,,
,,,,,,,,2023-08-06_08h28.44.784,HF_wild_card,2022.2.4,Linux x86_64,60.04563468,5c197c9c020cbb00011201fe,64ce5acb97489d65b14ecc7a,64cf4b7eb9e85d800069566b,,,,,,,decisionTrl,resources/DP.BMP,resources/DB.BMP,Door1,0.276725713,-0.013300408,1,0,0,1.4238,optionRight,30,15465,7,14,0,14,0,1,,,,,,,,,,,,,,,,,,,,,,,,,,,,,,,,,,,,,,,
,,,,,,,,2023-08-06_08h28.44.784,HF_wild_card,2022.2.4,Linux x86_64,60.04563468,5c197c9c020cbb00011201fe,64ce5acb97489d65b14ecc7a,64cf4b7eb9e85d800069566b,,,,,,,decisionTrl,resources/DY.BMP,resources/DR.BMP,Door3,-0.303771408,0.0379019,1,0,0,1.3295,optionLeft,70,15535,7,15,0,15,0,1,,,,,,,,,,,,,,,,,,,,,,,,,,,,,,,,,,,,,,,
,,,,,,,,2023-08-06_08h28.44.784,HF_wild_card,2022.2.4,Linux x86_64,60.04563468,5c197c9c020cbb00011201fe,64ce5acb97489d65b14ecc7a,64cf4b7eb9e85d800069566b,,,,,,,decisionTrl,resources/DY.BMP,resources/DR.BMP,Door3,-0.288480518,0.000281496,1,0,0,1.5938,optionLeft,70,15605,7,16,0,16,0,1,,,,,,,,,,,,,,,,,,,,,,,,,,,,,,,,,,,,,,,
,,,,,,,,2023-08-06_08h28.44.784,HF_wild_card,2022.2.4,Linux x86_64,60.04563468,5c197c9c020cbb00011201fe,64ce5acb97489d65b14ecc7a,64cf4b7eb9e85d800069566b,,,,,,,decisionTrl,resources/DR.BMP,resources/DY.BMP,Door3,0.288106735,-0.020225186,1,0,0,2.0275,optionRight,70,15675,7,17,0,17,0,1,,,,,,,,,,,,,,,,,,,,,,,,,,,,,,,,,,,,,,,
,,,,,,,,2023-08-06_08h28.44.784,HF_wild_card,2022.2.4,Linux x86_64,60.04563468,5c197c9c020cbb00011201fe,64ce5acb97489d65b14ecc7a,64cf4b7eb9e85d800069566b,,,,,,,decisionTrl,resources/DR.BMP,resources/DY.BMP,Door3,0.301414659,0.061369691,1,0,0,2.5565,optionRight,70,15745,7,18,0,18,0,1,,,,,,,,,,,,,,,,,,,,,,,,,,,,,,,,,,,,,,,
,,,,,,,,2023-08-06_08h28.44.784,HF_wild_card,2022.2.4,Linux x86_64,60.04563468,5c197c9c020cbb00011201fe,64ce5acb97489d65b14ecc7a,64cf4b7eb9e85d800069566b,,,,,,,decisionTrl,resources/DP.BMP,resources/DB.BMP,Door1,0.248372622,0.028722579,1,0,0,1.4587,optionRight,30,15775,7,19,0,19,0,1,,,,,,,,,,,,,,,,,,,,,,,,,,,,,,,,,,,,,,,
,,,,,,,,2023-08-06_08h28.44.784,HF_wild_card,2022.2.4,Linux x86_64,60.04563468,5c197c9c020cbb00011201fe,64ce5acb97489d65b14ecc7a,64cf4b7eb9e85d800069566b,,,,,,,ctch,resources/DY.BMP,resources/DP.BMP,Door3,-0.355530407,0.059579609,1,0,0,1.6435,optionLeft,70,15845,7,20,0,20,0,1,,,,,,,,,,,,,,,,,,,,,,,,,,,,,,,,,,,,,,,
,,,,,,,,2023-08-06_08h28.44.784,HF_wild_card,2022.2.4,Linux x86_64,60.04563468,5c197c9c020cbb00011201fe,64ce5acb97489d65b14ecc7a,64cf4b7eb9e85d800069566b,,,,,,,ctch,resources/DP.BMP,resources/DY.BMP,Door3,0.361950797,0.019156336,1,0,0,1.4227,optionRight,70,15915,7,21,0,21,0,1,,,,,,,,,,,,,,,,,,,,,,,,,,,,,,,,,,,,,,,
,,,,,,,,2023-08-06_08h28.44.784,HF_wild_card,2022.2.4,Linux x86_64,60.04563468,5c197c9c020cbb00011201fe,64ce5acb97489d65b14ecc7a,64cf4b7eb9e85d800069566b,,,,,,,decisionTrl,resources/DY.BMP,resources/DR.BMP,Door3,-0.325814085,0.083553964,1,0,0,1.4102,optionLeft,70,15985,7,22,0,22,0,1,,,,,,,,,,,,,,,,,,,,,,,,,,,,,,,,,,,,,,,
,,,,,,,,2023-08-06_08h28.44.784,HF_wild_card,2022.2.4,Linux x86_64,60.04563468,5c197c9c020cbb00011201fe,64ce5acb97489d65b14ecc7a,64cf4b7eb9e85d800069566b,,,,,,,ctch,resources/DB.BMP,resources/DR.BMP,Door4,0.34036334,0.050781476,1,0,0,1.4771,optionRight,80,16065,7,23,0,23,0,1,,,,,,,,,,,,,,,,,,,,,,,,,,,,,,,,,,,,,,,
,,,,,,,,2023-08-06_08h28.44.784,HF_wild_card,2022.2.4,Linux x86_64,60.04563468,5c197c9c020cbb00011201fe,64ce5acb97489d65b14ecc7a,64cf4b7eb9e85d800069566b,,,,,,,ctch,resources/DB.BMP,resources/DR.BMP,Door4,0.279614371,0.023629535,1,0,0,1.644,optionRight,80,16145,7,24,0,24,0,1,,,,,,,,,,,,,,,,,,,,,,,,,,,,,,,,,,,,,,,
,,,,,,,,2023-08-06_08h28.44.784,HF_wild_card,2022.2.4,Linux x86_64,60.04563468,5c197c9c020cbb00011201fe,64ce5acb97489d65b14ecc7a,64cf4b7eb9e85d800069566b,,,,,,,ctch,resources/DR.BMP,resources/DB.BMP,Door4,-0.359435696,0.023168606,1,0,0,1.3642,optionLeft,80,16225,7,25,0,25,0,1,,,,,,,,,,,,,,,,,,,,,,,,,,,,,,,,,,,,,,,
,,,,,,,,2023-08-06_08h28.44.784,HF_wild_card,2022.2.4,Linux x86_64,60.04563468,5c197c9c020cbb00011201fe,64ce5acb97489d65b14ecc7a,64cf4b7eb9e85d800069566b,,,,,,,ctch,resources/DP.BMP,resources/DY.BMP,Door3,0.400178471,0.046431647,1,0,0,1.3276,optionRight,70,16295,7,26,0,26,0,1,,,,,,,,,,,,,,,,,,,,,,,,,,,,,,,,,,,,,,,
,,,,,,,,2023-08-06_08h28.44.784,HF_wild_card,2022.2.4,Linux x86_64,60.04563468,5c197c9c020cbb00011201fe,64ce5acb97489d65b14ecc7a,64cf4b7eb9e85d800069566b,,,,,,,ctch,resources/DR.BMP,resources/DB.BMP,Door4,-0.378190217,0.005376689,1,0,0,1.4303,optionLeft,80,16375,7,27,0,27,0,1,,,,,,,,,,,,,,,,,,,,,,,,,,,,,,,,,,,,,,,
,,,,,,,,2023-08-06_08h28.44.784,HF_wild_card,2022.2.4,Linux x86_64,60.04563468,5c197c9c020cbb00011201fe,64ce5acb97489d65b14ecc7a,64cf4b7eb9e85d800069566b,,,,,,,decisionTrl,resources/DB.BMP,resources/DP.BMP,Door1,-0.37282794,0.060078261,1,0,0,1.5107,optionLeft,30,16405,7,28,0,28,0,1,,,,,,,,,,,,,,,,,,,,,,,,,,,,,,,,,,,,,,,
,,,,,,,,2023-08-06_08h28.44.784,HF_wild_card,2022.2.4,Linux x86_64,60.04563468,5c197c9c020cbb00011201fe,64ce5acb97489d65b14ecc7a,64cf4b7eb9e85d800069566b,,,,,,,decisionTrl,resources/DB.BMP,resources/DP.BMP,Door1,-0.383738426,0.106607649,1,0,0,1.2455,optionLeft,30,16435,7,29,0,29,0,1,,,,,,,,,,,,,,,,,,,,,,,,,,,,,,,,,,,,,,,
,,,,,,,,2023-08-06_08h28.44.784,HF_wild_card,2022.2.4,Linux x86_64,60.04563468,5c197c9c020cbb00011201fe,64ce5acb97489d65b14ecc7a,64cf4b7eb9e85d800069566b,,,,,,,decisionTrl,resources/DB.BMP,resources/DP.BMP,Door1,-0.35199585,0.080185756,1,0,0,1.1977,optionLeft,30,16465,7,30,0,30,0,1,,,,,,,,,,,,,,,,,,,,,,,,,,,,,,,,,,,,,,,
,,,,,,,,2023-08-06_08h28.44.784,HF_wild_card,2022.2.4,Linux x86_64,60.04563468,5c197c9c020cbb00011201fe,64ce5acb97489d65b14ecc7a,64cf4b7eb9e85d800069566b,,,,,,,decisionTrl,resources/DB.BMP,resources/DP.BMP,Door1,-0.315142257,-0.014102399,1,0,0,3.1124,optionLeft,30,16495,7,31,0,31,0,1,,,,,,,,,,,,,,,,,,,,,,,,,,,,,,,,,,,,,,,
,,,,,,,,2023-08-06_08h28.44.784,HF_wild_card,2022.2.4,Linux x86_64,60.04563468,5c197c9c020cbb00011201fe,64ce5acb97489d65b14ecc7a,64cf4b7eb9e85d800069566b,,,,,,,decisionTrl,resources/DR.BMP,resources/DY.BMP,Door3,0.386403063,0.01216815,1,0,0,1.5277,optionRight,70,16565,7,32,0,32,0,1,,,,,,,,,,,,,,,,,,,,,,,,,,,,,,,,,,,,,,,
,,,,,,,,2023-08-06_08h28.44.784,HF_wild_card,2022.2.4,Linux x86_64,60.04563468,5c197c9c020cbb00011201fe,64ce5acb97489d65b14ecc7a,64cf4b7eb9e85d800069566b,,,,,,,ctch,resources/DY.BMP,resources/DP.BMP,Door3,-0.316165613,0.055487315,1,0,0,1.0939,optionLeft,70,16635,7,33,0,33,0,1,,,,,,,,,,,,,,,,,,,,,,,,,,,,,,,,,,,,,,,
,,,,,,,,2023-08-06_08h28.44.784,HF_wild_card,2022.2.4,Linux x86_64,60.04563468,5c197c9c020cbb00011201fe,64ce5acb97489d65b14ecc7a,64cf4b7eb9e85d800069566b,,,,,,,ctch,resources/DP.BMP,resources/DY.BMP,Door3,0.35722125,0.001504008,1,0,0,1.4413,optionRight,70,16705,7,34,0,34,0,1,,,,,,,,,,,,,,,,,,,,,,,,,,,,,,,,,,,,,,,
,,,,,,,,2023-08-06_08h28.44.784,HF_wild_card,2022.2.4,Linux x86_64,60.04563468,5c197c9c020cbb00011201fe,64ce5acb97489d65b14ecc7a,64cf4b7eb9e85d800069566b,,,,,,,decisionTrl,resources/DR.BMP,resources/DY.BMP,Door3,0.419764992,0.02083096,1,0,0,1.2289,optionRight,70,16775,7,35,0,35,0,1,,,,,,,,,,,,,,,,,,,,,,,,,,,,,,,,,,,,,,,
,,,,,,,,2023-08-06_08h28.44.784,HF_wild_card,2022.2.4,Linux x86_64,60.04563468,5c197c9c020cbb00011201fe,64ce5acb97489d65b14ecc7a,64cf4b7eb9e85d800069566b,,,,,,,,,,,,,,,,,,,,,,,,,,6,0,6,0,1,,,,,,,,,,,,,,,,,,,,,,,,,,,,,,,,,,
