Condition,Low fixed image (Door1),Low risky image (Door2),High fixed image (Door3),High risky image (Door4),NonExtreme Wild Card 1,NonExtreme Wild Card 2,,date,expName,psychopyVersion,OS,frameRate,PROLIFIC_PID,STUDY_ID,SESSION_ID,mouse_2.x,mouse_2.y,mouse_2.leftButton,mouse_2.midButton,mouse_2.rightButton,mouse_2.clicked_name,Trial Type,Left Option Image,Right Option Image,Chosen Door,mouse.x,mouse.y,mouse.leftButton,mouse.midButton,mouse.rightButton,mouse.time,mouse.clicked_name,Feedback,Cumulative Reward,Block,trial.thisRepN,trial.thisTrialN,trial.thisN,trial.thisIndex,trial.ran,blocks.thisRepN,blocks.thisTrialN,blocks.thisN,blocks.thisIndex,blocks.ran,Money conversion,First Outcome Reported,Shown Door (First Outcome),Displayed Image (First Outcome),outcomes.thisRepN,outcomes.thisTrialN,outcomes.thisN,outcomes.thisIndex,outcomes.ran,judgments.thisRepN,judgments.thisTrialN,judgments.thisN,judgments.thisIndex,judgments.ran,freqMouse.x,freqMouse.y,freqMouse.leftButton,freqMouse.midButton,freqMouse.rightButton,freqMouse.clicked_name,FQJ for first outcome,FQJ for second outcome,Shown Door,Displayed Image,trials.thisRepN,trials.thisTrialN,trials.thisN,trials.thisIndex,trials.ran,judgBlock.thisRepN,judgBlock.thisTrialN,judgBlock.thisN,judgBlock.thisIndex,judgBlock.ran
2,resources/DBN.BMP,resources/DB.BMP,resources/DP.BMP,resources/DG.BMP,resources/DR.BMP,resources/DY.BMP,,2023-08-16_08h21.11.026,HF_wild_card,2022.2.4,Win32,60.17209218,5ed2717aec79fd1d3ca47d65,64d2fd46c836a06233681665,64dc78d195e0db63318b8b27,,,,,,,,,,,,,,,,,,,,,,,,,,,,,,,,,,,,,,,,,,,,,,,,,,,,,,,,,,,,,,,,
,,,,,,,,2023-08-16_08h21.11.026,HF_wild_card,2022.2.4,Win32,60.17209218,5ed2717aec79fd1d3ca47d65,64d2fd46c836a06233681665,64dc78d195e0db63318b8b27,0.00797528,-0.419270873,1,0,0,agree,,,,,,,,,,,,,,,,,,,,,,,,,,,,,,,,,,,,,,,,,,,,,,,,,,,,,,,,,,
,,,,,,,,2023-08-16_08h21.11.026,HF_wild_card,2022.2.4,Win32,60.17209218,5ed2717aec79fd1d3ca47d65,64d2fd46c836a06233681665,64dc78d195e0db63318b8b27,,,,,,,,,,,,,,,,,,,,,,,,,,,,,,,,,,,,,,,,,,,,,,,,,,,,,,,,,,,,,,,,
,,,,,,,,2023-08-16_08h21.11.026,HF_wild_card,2022.2.4,Win32,60.17209218,5ed2717aec79fd1d3ca47d65,64d2fd46c836a06233681665,64dc78d195e0db63318b8b27,,,,,,,ctch,resources/DBN.BMP,resources/DG.BMP,Door4,0.381673217,-0.197916687,1,0,0,4.2824,optionRight,80,80,1,0,0,0,0,1,,,,,,,,,,,,,,,,,,,,,,,,,,,,,,,,,,,,,,,
,,,,,,,,2023-08-16_08h21.11.026,HF_wild_card,2022.2.4,Win32,60.17209218,5ed2717aec79fd1d3ca47d65,64d2fd46c836a06233681665,64dc78d195e0db63318b8b27,,,,,,,decisionTrl,resources/DP.BMP,resources/DG.BMP,Door3,-0.309733033,-0.1015625,1,0,0,1.7768,optionLeft,70,150,1,1,0,1,0,1,,,,,,,,,,,,,,,,,,,,,,,,,,,,,,,,,,,,,,,
,,,,,,,,2023-08-16_08h21.11.026,HF_wild_card,2022.2.4,Win32,60.17209218,5ed2717aec79fd1d3ca47d65,64d2fd46c836a06233681665,64dc78d195e0db63318b8b27,,,,,,,sngl,resources/DY.BMP,resources/Empty.png,WildCard_NonEx,-0.193847656,-0.044270873,1,0,0,1.1555,optionLeft,45,195,1,2,0,2,0,1,,,,,,,,,,,,,,,,,,,,,,,,,,,,,,,,,,,,,,,
,,,,,,,,2023-08-16_08h21.11.026,HF_wild_card,2022.2.4,Win32,60.17209218,5ed2717aec79fd1d3ca47d65,64d2fd46c836a06233681665,64dc78d195e0db63318b8b27,,,,,,,sngl,resources/Empty.png,resources/DY.BMP,WildCard_NonEx,0.326985717,-0.059895873,1,0,0,1.2059,optionRight,45,240,1,3,0,3,0,1,,,,,,,,,,,,,,,,,,,,,,,,,,,,,,,,,,,,,,,
,,,,,,,,2023-08-16_08h21.11.026,HF_wild_card,2022.2.4,Win32,60.17209218,5ed2717aec79fd1d3ca47d65,64d2fd46c836a06233681665,64dc78d195e0db63318b8b27,,,,,,,decisionTrl,resources/DG.BMP,resources/DY.BMP,Door4,-0.24593097,-0.052083373,1,0,0,1.1617,optionLeft,60,300,1,4,0,4,0,1,,,,,,,,,,,,,,,,,,,,,,,,,,,,,,,,,,,,,,,
,,,,,,,,2023-08-16_08h21.11.026,HF_wild_card,2022.2.4,Win32,60.17209218,5ed2717aec79fd1d3ca47d65,64d2fd46c836a06233681665,64dc78d195e0db63318b8b27,,,,,,,ctch,resources/DBN.BMP,resources/DG.BMP,Door4,0.268391967,-0.08984375,1,0,0,1.5787,optionRight,80,380,1,5,0,5,0,1,,,,,,,,,,,,,,,,,,,,,,,,,,,,,,,,,,,,,,,
,,,,,,,,2023-08-16_08h21.11.026,HF_wild_card,2022.2.4,Win32,60.17209218,5ed2717aec79fd1d3ca47d65,64d2fd46c836a06233681665,64dc78d195e0db63318b8b27,,,,,,,ctch,resources/DP.BMP,resources/DB.BMP,Door3,-0.357910156,-0.048177123,1,0,0,1.8451,optionLeft,70,450,1,6,0,6,0,1,,,,,,,,,,,,,,,,,,,,,,,,,,,,,,,,,,,,,,,
,,,,,,,,2023-08-16_08h21.11.026,HF_wild_card,2022.2.4,Win32,60.17209218,5ed2717aec79fd1d3ca47d65,64d2fd46c836a06233681665,64dc78d195e0db63318b8b27,,,,,,,sngl,resources/DBN.BMP,resources/Empty.png,Door1,-0.329264283,-0.01953125,1,0,0,0.9788,optionLeft,30,480,1,7,0,7,0,1,,,,,,,,,,,,,,,,,,,,,,,,,,,,,,,,,,,,,,,
,,,,,,,,2023-08-16_08h21.11.026,HF_wild_card,2022.2.4,Win32,60.17209218,5ed2717aec79fd1d3ca47d65,64d2fd46c836a06233681665,64dc78d195e0db63318b8b27,,,,,,,decisionTrl,resources/DG.BMP,resources/DP.BMP,Door4,-0.286295533,-0.036458373,1,0,0,1.6782,optionLeft,60,540,1,8,0,8,0,1,,,,,,,,,,,,,,,,,,,,,,,,,,,,,,,,,,,,,,,
,,,,,,,,2023-08-16_08h21.11.026,HF_wild_card,2022.2.4,Win32,60.17209218,5ed2717aec79fd1d3ca47d65,64d2fd46c836a06233681665,64dc78d195e0db63318b8b27,,,,,,,decisionTrl,resources/DB.BMP,resources/DY.BMP,Door2,-0.262858033,-0.015625,1,0,0,1.2955,optionLeft,40,580,1,9,0,9,0,1,,,,,,,,,,,,,,,,,,,,,,,,,,,,,,,,,,,,,,,
,,,,,,,,2023-08-16_08h21.11.026,HF_wild_card,2022.2.4,Win32,60.17209218,5ed2717aec79fd1d3ca47d65,64d2fd46c836a06233681665,64dc78d195e0db63318b8b27,,,,,,,decisionTrl,resources/DG.BMP,resources/DP.BMP,Door4,-0.27718097,-0.0078125,1,0,0,1.7453,optionLeft,60,640,1,10,0,10,0,1,,,,,,,,,,,,,,,,,,,,,,,,,,,,,,,,,,,,,,,
,,,,,,,,2023-08-16_08h21.11.026,HF_wild_card,2022.2.4,Win32,60.17209218,5ed2717aec79fd1d3ca47d65,64d2fd46c836a06233681665,64dc78d195e0db63318b8b27,,,,,,,decisionTrl,resources/DG.BMP,resources/DP.BMP,Door3,0.302246094,-0.048177123,1,0,0,1.1788,optionRight,70,710,1,11,0,11,0,1,,,,,,,,,,,,,,,,,,,,,,,,,,,,,,,,,,,,,,,
,,,,,,,,2023-08-16_08h21.11.026,HF_wild_card,2022.2.4,Win32,60.17209218,5ed2717aec79fd1d3ca47d65,64d2fd46c836a06233681665,64dc78d195e0db63318b8b27,,,,,,,decisionTrl,resources/DB.BMP,resources/DBN.BMP,Door1,0.298339844,-0.029947937,1,0,0,1.7613,optionRight,30,740,1,12,0,12,0,1,,,,,,,,,,,,,,,,,,,,,,,,,,,,,,,,,,,,,,,
,,,,,,,,2023-08-16_08h21.11.026,HF_wild_card,2022.2.4,Win32,60.17209218,5ed2717aec79fd1d3ca47d65,64d2fd46c836a06233681665,64dc78d195e0db63318b8b27,,,,,,,decisionTrl,resources/DP.BMP,resources/DG.BMP,Door4,0.377766967,-0.032552123,1,0,0,1.4123,optionRight,80,820,1,13,0,13,0,1,,,,,,,,,,,,,,,,,,,,,,,,,,,,,,,,,,,,,,,
,,,,,,,,2023-08-16_08h21.11.026,HF_wild_card,2022.2.4,Win32,60.17209218,5ed2717aec79fd1d3ca47d65,64d2fd46c836a06233681665,64dc78d195e0db63318b8b27,,,,,,,decisionTrl,resources/DBN.BMP,resources/DY.BMP,WildCard_NonEx,0.326985717,-0.02734375,1,0,0,1.8117,optionRight,55,875,1,14,0,14,0,1,,,,,,,,,,,,,,,,,,,,,,,,,,,,,,,,,,,,,,,
,,,,,,,,2023-08-16_08h21.11.026,HF_wild_card,2022.2.4,Win32,60.17209218,5ed2717aec79fd1d3ca47d65,64d2fd46c836a06233681665,64dc78d195e0db63318b8b27,,,,,,,sngl,resources/Empty.png,resources/DBN.BMP,Door1,0.224121094,-0.01171875,1,0,0,0.8446,optionRight,30,905,1,15,0,15,0,1,,,,,,,,,,,,,,,,,,,,,,,,,,,,,,,,,,,,,,,
,,,,,,,,2023-08-16_08h21.11.026,HF_wild_card,2022.2.4,Win32,60.17209218,5ed2717aec79fd1d3ca47d65,64d2fd46c836a06233681665,64dc78d195e0db63318b8b27,,,,,,,sngl,resources/DB.BMP,resources/Empty.png,Door2,-0.22639972,0.00390625,1,0,0,0.9623,optionLeft,40,945,1,16,0,16,0,1,,,,,,,,,,,,,,,,,,,,,,,,,,,,,,,,,,,,,,,
,,,,,,,,2023-08-16_08h21.11.026,HF_wild_card,2022.2.4,Win32,60.17209218,5ed2717aec79fd1d3ca47d65,64d2fd46c836a06233681665,64dc78d195e0db63318b8b27,,,,,,,decisionTrl,resources/DB.BMP,resources/DBN.BMP,Door2,-0.24593097,-0.001302123,1,0,0,1.0624,optionLeft,20,965,1,17,0,17,0,1,,,,,,,,,,,,,,,,,,,,,,,,,,,,,,,,,,,,,,,
,,,,,,,,2023-08-16_08h21.11.026,HF_wild_card,2022.2.4,Win32,60.17209218,5ed2717aec79fd1d3ca47d65,64d2fd46c836a06233681665,64dc78d195e0db63318b8b27,,,,,,,ctch,resources/DG.BMP,resources/DBN.BMP,Door4,-0.314941406,0.0078125,1,0,0,0.8958,optionLeft,80,1045,1,18,0,18,0,1,,,,,,,,,,,,,,,,,,,,,,,,,,,,,,,,,,,,,,,
,,,,,,,,2023-08-16_08h21.11.026,HF_wild_card,2022.2.4,Win32,60.17209218,5ed2717aec79fd1d3ca47d65,64d2fd46c836a06233681665,64dc78d195e0db63318b8b27,,,,,,,decisionTrl,resources/DY.BMP,resources/DB.BMP,Door2,0.330891967,-0.0234375,1,0,0,0.9286,optionRight,40,1085,1,19,0,19,0,1,,,,,,,,,,,,,,,,,,,,,,,,,,,,,,,,,,,,,,,
,,,,,,,,2023-08-16_08h21.11.026,HF_wild_card,2022.2.4,Win32,60.17209218,5ed2717aec79fd1d3ca47d65,64d2fd46c836a06233681665,64dc78d195e0db63318b8b27,,,,,,,ctch,resources/DB.BMP,resources/DP.BMP,Door2,-0.34358722,-0.00390625,1,0,0,1.4456,optionLeft,40,1125,1,20,0,20,0,1,,,,,,,,,,,,,,,,,,,,,,,,,,,,,,,,,,,,,,,
,,,,,,,,2023-08-16_08h21.11.026,HF_wild_card,2022.2.4,Win32,60.17209218,5ed2717aec79fd1d3ca47d65,64d2fd46c836a06233681665,64dc78d195e0db63318b8b27,,,,,,,ctch,resources/DB.BMP,resources/DP.BMP,Door3,0.306152344,-0.02734375,1,0,0,0.8124,optionRight,70,1195,1,21,0,21,0,1,,,,,,,,,,,,,,,,,,,,,,,,,,,,,,,,,,,,,,,
,,,,,,,,2023-08-16_08h21.11.026,HF_wild_card,2022.2.4,Win32,60.17209218,5ed2717aec79fd1d3ca47d65,64d2fd46c836a06233681665,64dc78d195e0db63318b8b27,,,,,,,sngl,resources/DY.BMP,resources/Empty.png,WildCard_NonEx,-0.182128906,-0.00390625,1,0,0,1.2122,optionLeft,55,1250,1,22,0,22,0,1,,,,,,,,,,,,,,,,,,,,,,,,,,,,,,,,,,,,,,,
,,,,,,,,2023-08-16_08h21.11.026,HF_wild_card,2022.2.4,Win32,60.17209218,5ed2717aec79fd1d3ca47d65,64d2fd46c836a06233681665,64dc78d195e0db63318b8b27,,,,,,,decisionTrl,resources/DP.BMP,resources/DY.BMP,WildCard_NonEx,0.310058594,-0.01953125,1,0,0,2.9943,optionRight,55,1305,1,23,0,23,0,1,,,,,,,,,,,,,,,,,,,,,,,,,,,,,,,,,,,,,,,
,,,,,,,,2023-08-16_08h21.11.026,HF_wild_card,2022.2.4,Win32,60.17209218,5ed2717aec79fd1d3ca47d65,64d2fd46c836a06233681665,64dc78d195e0db63318b8b27,,,,,,,decisionTrl,resources/DY.BMP,resources/DP.BMP,WildCard_NonEx,-0.294108033,0.009114563,1,0,0,1.3623,optionLeft,55,1360,1,24,0,24,0,1,,,,,,,,,,,,,,,,,,,,,,,,,,,,,,,,,,,,,,,
,,,,,,,,2023-08-16_08h21.11.026,HF_wild_card,2022.2.4,Win32,60.17209218,5ed2717aec79fd1d3ca47d65,64d2fd46c836a06233681665,64dc78d195e0db63318b8b27,,,,,,,decisionTrl,resources/DB.BMP,resources/DBN.BMP,Door2,-0.313639283,0.01171875,1,0,0,1.5121,optionLeft,20,1380,1,25,0,25,0,1,,,,,,,,,,,,,,,,,,,,,,,,,,,,,,,,,,,,,,,
,,,,,,,,2023-08-16_08h21.11.026,HF_wild_card,2022.2.4,Win32,60.17209218,5ed2717aec79fd1d3ca47d65,64d2fd46c836a06233681665,64dc78d195e0db63318b8b27,,,,,,,sngl,resources/Empty.png,resources/DY.BMP,WildCard_NonEx,0.330891967,-0.010416687,1,0,0,0.8615,optionRight,55,1435,1,26,0,26,0,1,,,,,,,,,,,,,,,,,,,,,,,,,,,,,,,,,,,,,,,
,,,,,,,,2023-08-16_08h21.11.026,HF_wild_card,2022.2.4,Win32,60.17209218,5ed2717aec79fd1d3ca47d65,64d2fd46c836a06233681665,64dc78d195e0db63318b8b27,,,,,,,sngl,resources/Empty.png,resources/DP.BMP,Door3,0.248860717,-0.015625,1,0,0,0.979,optionRight,70,1505,1,27,0,27,0,1,,,,,,,,,,,,,,,,,,,,,,,,,,,,,,,,,,,,,,,
,,,,,,,,2023-08-16_08h21.11.026,HF_wild_card,2022.2.4,Win32,60.17209218,5ed2717aec79fd1d3ca47d65,64d2fd46c836a06233681665,64dc78d195e0db63318b8b27,,,,,,,decisionTrl,resources/DP.BMP,resources/DG.BMP,Door4,0.299641967,-0.015625,1,0,0,1.2454,optionRight,80,1585,1,28,0,28,0,1,,,,,,,,,,,,,,,,,,,,,,,,,,,,,,,,,,,,,,,
,,,,,,,,2023-08-16_08h21.11.026,HF_wild_card,2022.2.4,Win32,60.17209218,5ed2717aec79fd1d3ca47d65,64d2fd46c836a06233681665,64dc78d195e0db63318b8b27,,,,,,,ctch,resources/DP.BMP,resources/DB.BMP,Door3,-0.23030597,0.0078125,1,0,0,1.1121,optionLeft,70,1655,1,29,0,29,0,1,,,,,,,,,,,,,,,,,,,,,,,,,,,,,,,,,,,,,,,
,,,,,,,,2023-08-16_08h21.11.026,HF_wild_card,2022.2.4,Win32,60.17209218,5ed2717aec79fd1d3ca47d65,64d2fd46c836a06233681665,64dc78d195e0db63318b8b27,,,,,,,sngl,resources/DP.BMP,resources/Empty.png,Door3,-0.212076783,0.0078125,1,0,0,0.7957,optionLeft,70,1725,1,30,0,30,0,1,,,,,,,,,,,,,,,,,,,,,,,,,,,,,,,,,,,,,,,
,,,,,,,,2023-08-16_08h21.11.026,HF_wild_card,2022.2.4,Win32,60.17209218,5ed2717aec79fd1d3ca47d65,64d2fd46c836a06233681665,64dc78d195e0db63318b8b27,,,,,,,decisionTrl,resources/DY.BMP,resources/DG.BMP,Door4,0.32047534,-0.002604187,1,0,0,1.0118,optionRight,60,1785,1,31,0,31,0,1,,,,,,,,,,,,,,,,,,,,,,,,,,,,,,,,,,,,,,,
,,,,,,,,2023-08-16_08h21.11.026,HF_wild_card,2022.2.4,Win32,60.17209218,5ed2717aec79fd1d3ca47d65,64d2fd46c836a06233681665,64dc78d195e0db63318b8b27,,,,,,,sngl,resources/Empty.png,resources/DG.BMP,Door4,0.270996094,-0.002604187,1,0,0,0.8125,optionRight,60,1845,1,32,0,32,0,1,,,,,,,,,,,,,,,,,,,,,,,,,,,,,,,,,,,,,,,
,,,,,,,,2023-08-16_08h21.11.026,HF_wild_card,2022.2.4,Win32,60.17209218,5ed2717aec79fd1d3ca47d65,64d2fd46c836a06233681665,64dc78d195e0db63318b8b27,,,,,,,ctch,resources/DG.BMP,resources/DBN.BMP,Door4,-0.260253906,0.020833313,1,0,0,1.1956,optionLeft,80,1925,1,33,0,33,0,1,,,,,,,,,,,,,,,,,,,,,,,,,,,,,,,,,,,,,,,
,,,,,,,,2023-08-16_08h21.11.026,HF_wild_card,2022.2.4,Win32,60.17209218,5ed2717aec79fd1d3ca47d65,64d2fd46c836a06233681665,64dc78d195e0db63318b8b27,,,,,,,sngl,resources/Empty.png,resources/DB.BMP,Door2,0.341308594,-0.001302123,1,0,0,0.879,optionRight,20,1945,1,34,0,34,0,1,,,,,,,,,,,,,,,,,,,,,,,,,,,,,,,,,,,,,,,
,,,,,,,,2023-08-16_08h21.11.026,HF_wild_card,2022.2.4,Win32,60.17209218,5ed2717aec79fd1d3ca47d65,64d2fd46c836a06233681665,64dc78d195e0db63318b8b27,,,,,,,decisionTrl,resources/DBN.BMP,resources/DB.BMP,Door2,0.35953784,-0.005208373,1,0,0,0.9457,optionRight,40,1985,1,35,0,35,0,1,,,,,,,,,,,,,,,,,,,,,,,,,,,,,,,,,,,,,,,
,,,,,,,,2023-08-16_08h21.11.026,HF_wild_card,2022.2.4,Win32,60.17209218,5ed2717aec79fd1d3ca47d65,64d2fd46c836a06233681665,64dc78d195e0db63318b8b27,,,,,,,decisionTrl,resources/DY.BMP,resources/DBN.BMP,WildCard_NonEx,-0.23030597,0.013020813,1,0,0,1.2458,optionLeft,55,2040,1,36,0,36,0,1,,,,,,,,,,,,,,,,,,,,,,,,,,,,,,,,,,,,,,,
,,,,,,,,2023-08-16_08h21.11.026,HF_wild_card,2022.2.4,Win32,60.17209218,5ed2717aec79fd1d3ca47d65,64d2fd46c836a06233681665,64dc78d195e0db63318b8b27,,,,,,,decisionTrl,resources/DBN.BMP,resources/DB.BMP,Door2,0.28141284,-0.001302123,1,0,0,1.0115,optionRight,40,2080,1,37,0,37,0,1,,,,,,,,,,,,,,,,,,,,,,,,,,,,,,,,,,,,,,,
,,,,,,,,2023-08-16_08h21.11.026,HF_wild_card,2022.2.4,Win32,60.17209218,5ed2717aec79fd1d3ca47d65,64d2fd46c836a06233681665,64dc78d195e0db63318b8b27,,,,,,,sngl,resources/DG.BMP,resources/Empty.png,Door4,-0.26155597,0.0234375,1,0,0,0.7791,optionLeft,80,2160,1,38,0,38,0,1,,,,,,,,,,,,,,,,,,,,,,,,,,,,,,,,,,,,,,,
,,,,,,,,2023-08-16_08h21.11.026,HF_wild_card,2022.2.4,Win32,60.17209218,5ed2717aec79fd1d3ca47d65,64d2fd46c836a06233681665,64dc78d195e0db63318b8b27,,,,,,,decisionTrl,resources/DB.BMP,resources/DBN.BMP,Door2,-0.252441406,0.00390625,1,0,0,1.062,optionLeft,20,2180,1,39,0,39,0,1,,,,,,,,,,,,,,,,,,,,,,,,,,,,,,,,,,,,,,,
,,,,,,,,2023-08-16_08h21.11.026,HF_wild_card,2022.2.4,Win32,60.17209218,5ed2717aec79fd1d3ca47d65,64d2fd46c836a06233681665,64dc78d195e0db63318b8b27,,,,,,,decisionTrl,resources/DBN.BMP,resources/DB.BMP,Door2,0.294433594,-0.010416687,1,0,0,0.8125,optionRight,40,2220,1,40,0,40,0,1,,,,,,,,,,,,,,,,,,,,,,,,,,,,,,,,,,,,,,,
,,,,,,,,2023-08-16_08h21.11.026,HF_wild_card,2022.2.4,Win32,60.17209218,5ed2717aec79fd1d3ca47d65,64d2fd46c836a06233681665,64dc78d195e0db63318b8b27,,,,,,,decisionTrl,resources/DG.BMP,resources/DP.BMP,Door3,0.349121094,-0.009114623,1,0,0,1.5953,optionRight,70,2290,1,41,0,41,0,1,,,,,,,,,,,,,,,,,,,,,,,,,,,,,,,,,,,,,,,
,,,,,,,,2023-08-16_08h21.11.026,HF_wild_card,2022.2.4,Win32,60.17209218,5ed2717aec79fd1d3ca47d65,64d2fd46c836a06233681665,64dc78d195e0db63318b8b27,,,,,,,decisionTrl,resources/DBN.BMP,resources/DB.BMP,Door2,0.306152344,-0.03125,1,0,0,0.9455,optionRight,40,2330,1,42,0,42,0,1,,,,,,,,,,,,,,,,,,,,,,,,,,,,,,,,,,,,,,,
,,,,,,,,2023-08-16_08h21.11.026,HF_wild_card,2022.2.4,Win32,60.17209218,5ed2717aec79fd1d3ca47d65,64d2fd46c836a06233681665,64dc78d195e0db63318b8b27,,,,,,,decisionTrl,resources/DP.BMP,resources/DG.BMP,Door4,0.241048217,-0.029947937,1,0,0,1.5618,optionRight,80,2410,1,43,0,43,0,1,,,,,,,,,,,,,,,,,,,,,,,,,,,,,,,,,,,,,,,
,,,,,,,,2023-08-16_08h21.11.026,HF_wild_card,2022.2.4,Win32,60.17209218,5ed2717aec79fd1d3ca47d65,64d2fd46c836a06233681665,64dc78d195e0db63318b8b27,,,,,,,,,,,,,,,,,,,,,,,,,,0,0,0,0,1,,,,,,,,,,,,,,,,,,,,,,,,,,,,,,,,,,
,,,,,,,,2023-08-16_08h21.11.026,HF_wild_card,2022.2.4,Win32,60.17209218,5ed2717aec79fd1d3ca47d65,64d2fd46c836a06233681665,64dc78d195e0db63318b8b27,,,,,,,sngl,resources/Empty.png,resources/DBN.BMP,Door1,0.23063159,-0.125,1,0,0,0.9863,optionRight,30,2440,2,0,0,0,0,1,,,,,,,,,,,,,,,,,,,,,,,,,,,,,,,,,,,,,,,
,,,,,,,,2023-08-16_08h21.11.026,HF_wild_card,2022.2.4,Win32,60.17209218,5ed2717aec79fd1d3ca47d65,64d2fd46c836a06233681665,64dc78d195e0db63318b8b27,,,,,,,decisionTrl,resources/DB.BMP,resources/DY.BMP,Door2,-0.255045533,-0.016927123,1,0,0,1.0816,optionLeft,40,2480,2,1,0,1,0,1,,,,,,,,,,,,,,,,,,,,,,,,,,,,,,,,,,,,,,,
,,,,,,,,2023-08-16_08h21.11.026,HF_wild_card,2022.2.4,Win32,60.17209218,5ed2717aec79fd1d3ca47d65,64d2fd46c836a06233681665,64dc78d195e0db63318b8b27,,,,,,,decisionTrl,resources/DP.BMP,resources/DY.BMP,WildCard_NonEx,0.28922534,-0.033854187,1,0,0,1.3797,optionRight,55,2535,2,2,0,2,0,1,,,,,,,,,,,,,,,,,,,,,,,,,,,,,,,,,,,,,,,
,,,,,,,,2023-08-16_08h21.11.026,HF_wild_card,2022.2.4,Win32,60.17209218,5ed2717aec79fd1d3ca47d65,64d2fd46c836a06233681665,64dc78d195e0db63318b8b27,,,,,,,decisionTrl,resources/DY.BMP,resources/DP.BMP,WildCard_NonEx,-0.18733722,-0.018229187,1,0,0,1.4603,optionLeft,55,2590,2,3,0,3,0,1,,,,,,,,,,,,,,,,,,,,,,,,,,,,,,,,,,,,,,,
,,,,,,,,2023-08-16_08h21.11.026,HF_wild_card,2022.2.4,Win32,60.17209218,5ed2717aec79fd1d3ca47d65,64d2fd46c836a06233681665,64dc78d195e0db63318b8b27,,,,,,,decisionTrl,resources/DG.BMP,resources/DP.BMP,Door4,-0.243326783,0,1,0,0,2.1369,optionLeft,60,2650,2,4,0,4,0,1,,,,,,,,,,,,,,,,,,,,,,,,,,,,,,,,,,,,,,,
,,,,,,,,2023-08-16_08h21.11.026,HF_wild_card,2022.2.4,Win32,60.17209218,5ed2717aec79fd1d3ca47d65,64d2fd46c836a06233681665,64dc78d195e0db63318b8b27,,,,,,,decisionTrl,resources/DG.BMP,resources/DY.BMP,Door4,-0.24202472,0.005208313,1,0,0,1.875,optionLeft,80,2730,2,5,0,5,0,1,,,,,,,,,,,,,,,,,,,,,,,,,,,,,,,,,,,,,,,
,,,,,,,,2023-08-16_08h21.11.026,HF_wild_card,2022.2.4,Win32,60.17209218,5ed2717aec79fd1d3ca47d65,64d2fd46c836a06233681665,64dc78d195e0db63318b8b27,,,,,,,sngl,resources/Empty.png,resources/DG.BMP,Door4,0.294433594,-0.006510437,1,0,0,0.8295,optionRight,80,2810,2,6,0,6,0,1,,,,,,,,,,,,,,,,,,,,,,,,,,,,,,,,,,,,,,,
,,,,,,,,2023-08-16_08h21.11.026,HF_wild_card,2022.2.4,Win32,60.17209218,5ed2717aec79fd1d3ca47d65,64d2fd46c836a06233681665,64dc78d195e0db63318b8b27,,,,,,,decisionTrl,resources/DBN.BMP,resources/DB.BMP,Door2,0.26188159,-0.001302123,1,0,0,1.2152,optionRight,20,2830,2,7,0,7,0,1,,,,,,,,,,,,,,,,,,,,,,,,,,,,,,,,,,,,,,,
,,,,,,,,2023-08-16_08h21.11.026,HF_wild_card,2022.2.4,Win32,60.17209218,5ed2717aec79fd1d3ca47d65,64d2fd46c836a06233681665,64dc78d195e0db63318b8b27,,,,,,,decisionTrl,resources/DBN.BMP,resources/DY.BMP,WildCard_NonEx,0.25406909,0.006510407,1,0,0,1.1469,optionRight,55,2885,2,8,0,8,0,1,,,,,,,,,,,,,,,,,,,,,,,,,,,,,,,,,,,,,,,
,,,,,,,,2023-08-16_08h21.11.026,HF_wild_card,2022.2.4,Win32,60.17209218,5ed2717aec79fd1d3ca47d65,64d2fd46c836a06233681665,64dc78d195e0db63318b8b27,,,,,,,sngl,resources/DG.BMP,resources/Empty.png,Door4,-0.212076783,0.015625,1,0,0,0.8143,optionLeft,60,2945,2,9,0,9,0,1,,,,,,,,,,,,,,,,,,,,,,,,,,,,,,,,,,,,,,,
,,,,,,,,2023-08-16_08h21.11.026,HF_wild_card,2022.2.4,Win32,60.17209218,5ed2717aec79fd1d3ca47d65,64d2fd46c836a06233681665,64dc78d195e0db63318b8b27,,,,,,,decisionTrl,resources/DG.BMP,resources/DP.BMP,Door3,0.346516967,-0.0078125,1,0,0,0.8754,optionRight,70,3015,2,10,0,10,0,1,,,,,,,,,,,,,,,,,,,,,,,,,,,,,,,,,,,,,,,
,,,,,,,,2023-08-16_08h21.11.026,HF_wild_card,2022.2.4,Win32,60.17209218,5ed2717aec79fd1d3ca47d65,64d2fd46c836a06233681665,64dc78d195e0db63318b8b27,,,,,,,decisionTrl,resources/DB.BMP,resources/DBN.BMP,Door2,-0.178222656,0.014322907,1,0,0,1.1753,optionLeft,40,3055,2,11,0,11,0,1,,,,,,,,,,,,,,,,,,,,,,,,,,,,,,,,,,,,,,,
,,,,,,,,2023-08-16_08h21.11.026,HF_wild_card,2022.2.4,Win32,60.17209218,5ed2717aec79fd1d3ca47d65,64d2fd46c836a06233681665,64dc78d195e0db63318b8b27,,,,,,,decisionTrl,resources/DBN.BMP,resources/DB.BMP,Door2,0.274902344,0.009114563,1,0,0,0.9645,optionRight,40,3095,2,12,0,12,0,1,,,,,,,,,,,,,,,,,,,,,,,,,,,,,,,,,,,,,,,
,,,,,,,,2023-08-16_08h21.11.026,HF_wild_card,2022.2.4,Win32,60.17209218,5ed2717aec79fd1d3ca47d65,64d2fd46c836a06233681665,64dc78d195e0db63318b8b27,,,,,,,ctch,resources/DBN.BMP,resources/DG.BMP,Door4,0.333496094,0.005208313,1,0,0,1.0032,optionRight,80,3175,2,13,0,13,0,1,,,,,,,,,,,,,,,,,,,,,,,,,,,,,,,,,,,,,,,
,,,,,,,,2023-08-16_08h21.11.026,HF_wild_card,2022.2.4,Win32,60.17209218,5ed2717aec79fd1d3ca47d65,64d2fd46c836a06233681665,64dc78d195e0db63318b8b27,,,,,,,decisionTrl,resources/DP.BMP,resources/DG.BMP,Door3,-0.13655597,0.01171875,1,0,0,1.1249,optionLeft,70,3245,2,14,0,14,0,1,,,,,,,,,,,,,,,,,,,,,,,,,,,,,,,,,,,,,,,
,,,,,,,,2023-08-16_08h21.11.026,HF_wild_card,2022.2.4,Win32,60.17209218,5ed2717aec79fd1d3ca47d65,64d2fd46c836a06233681665,64dc78d195e0db63318b8b27,,,,,,,decisionTrl,resources/DY.BMP,resources/DG.BMP,Door4,0.337402344,0.013020813,1,0,0,0.7407,optionRight,60,3305,2,15,0,15,0,1,,,,,,,,,,,,,,,,,,,,,,,,,,,,,,,,,,,,,,,
,,,,,,,,2023-08-16_08h21.11.026,HF_wild_card,2022.2.4,Win32,60.17209218,5ed2717aec79fd1d3ca47d65,64d2fd46c836a06233681665,64dc78d195e0db63318b8b27,,,,,,,decisionTrl,resources/DP.BMP,resources/DG.BMP,Door4,0.260579467,-0.022135437,1,0,0,1.1303,optionRight,80,3385,2,16,0,16,0,1,,,,,,,,,,,,,,,,,,,,,,,,,,,,,,,,,,,,,,,
,,,,,,,,2023-08-16_08h21.11.026,HF_wild_card,2022.2.4,Win32,60.17209218,5ed2717aec79fd1d3ca47d65,64d2fd46c836a06233681665,64dc78d195e0db63318b8b27,,,,,,,sngl,resources/Empty.png,resources/DB.BMP,Door2,0.33219409,-0.01171875,1,0,0,0.793,optionRight,40,3425,2,17,0,17,0,1,,,,,,,,,,,,,,,,,,,,,,,,,,,,,,,,,,,,,,,
,,,,,,,,2023-08-16_08h21.11.026,HF_wild_card,2022.2.4,Win32,60.17209218,5ed2717aec79fd1d3ca47d65,64d2fd46c836a06233681665,64dc78d195e0db63318b8b27,,,,,,,decisionTrl,resources/DP.BMP,resources/DG.BMP,Door4,0.345214844,-0.013020873,1,0,0,0.9292,optionRight,60,3485,2,18,0,18,0,1,,,,,,,,,,,,,,,,,,,,,,,,,,,,,,,,,,,,,,,
,,,,,,,,2023-08-16_08h21.11.026,HF_wild_card,2022.2.4,Win32,60.17209218,5ed2717aec79fd1d3ca47d65,64d2fd46c836a06233681665,64dc78d195e0db63318b8b27,,,,,,,decisionTrl,resources/DBN.BMP,resources/DB.BMP,Door2,0.228027344,-0.0078125,1,0,0,1.1409,optionRight,20,3505,2,19,0,19,0,1,,,,,,,,,,,,,,,,,,,,,,,,,,,,,,,,,,,,,,,
,,,,,,,,2023-08-16_08h21.11.026,HF_wild_card,2022.2.4,Win32,60.17209218,5ed2717aec79fd1d3ca47d65,64d2fd46c836a06233681665,64dc78d195e0db63318b8b27,,,,,,,decisionTrl,resources/DG.BMP,resources/DP.BMP,Door3,0.364746094,-0.01953125,1,0,0,1.333,optionRight,70,3575,2,20,0,20,0,1,,,,,,,,,,,,,,,,,,,,,,,,,,,,,,,,,,,,,,,
,,,,,,,,2023-08-16_08h21.11.026,HF_wild_card,2022.2.4,Win32,60.17209218,5ed2717aec79fd1d3ca47d65,64d2fd46c836a06233681665,64dc78d195e0db63318b8b27,,,,,,,decisionTrl,resources/DP.BMP,resources/DG.BMP,Door3,-0.21468097,0.0078125,1,0,0,1.6084,optionLeft,70,3645,2,21,0,21,0,1,,,,,,,,,,,,,,,,,,,,,,,,,,,,,,,,,,,,,,,
,,,,,,,,2023-08-16_08h21.11.026,HF_wild_card,2022.2.4,Win32,60.17209218,5ed2717aec79fd1d3ca47d65,64d2fd46c836a06233681665,64dc78d195e0db63318b8b27,,,,,,,sngl,resources/Empty.png,resources/DP.BMP,Door3,0.248860717,-0.045572937,1,0,0,0.778,optionRight,70,3715,2,22,0,22,0,1,,,,,,,,,,,,,,,,,,,,,,,,,,,,,,,,,,,,,,,
,,,,,,,,2023-08-16_08h21.11.026,HF_wild_card,2022.2.4,Win32,60.17209218,5ed2717aec79fd1d3ca47d65,64d2fd46c836a06233681665,64dc78d195e0db63318b8b27,,,,,,,decisionTrl,resources/DB.BMP,resources/DBN.BMP,Door2,-0.271972656,-0.029947937,1,0,0,1.0631,optionLeft,20,3735,2,23,0,23,0,1,,,,,,,,,,,,,,,,,,,,,,,,,,,,,,,,,,,,,,,
,,,,,,,,2023-08-16_08h21.11.026,HF_wild_card,2022.2.4,Win32,60.17209218,5ed2717aec79fd1d3ca47d65,64d2fd46c836a06233681665,64dc78d195e0db63318b8b27,,,,,,,sngl,resources/Empty.png,resources/DY.BMP,WildCard_NonEx,0.276204467,-0.0390625,1,0,0,0.8486,optionRight,55,3790,2,24,0,24,0,1,,,,,,,,,,,,,,,,,,,,,,,,,,,,,,,,,,,,,,,
,,,,,,,,2023-08-16_08h21.11.026,HF_wild_card,2022.2.4,Win32,60.17209218,5ed2717aec79fd1d3ca47d65,64d2fd46c836a06233681665,64dc78d195e0db63318b8b27,,,,,,,decisionTrl,resources/DB.BMP,resources/DBN.BMP,Door2,-0.271972656,-0.014322937,1,0,0,1.1254,optionLeft,40,3830,2,25,0,25,0,1,,,,,,,,,,,,,,,,,,,,,,,,,,,,,,,,,,,,,,,
,,,,,,,,2023-08-16_08h21.11.026,HF_wild_card,2022.2.4,Win32,60.17209218,5ed2717aec79fd1d3ca47d65,64d2fd46c836a06233681665,64dc78d195e0db63318b8b27,,,,,,,ctch,resources/DP.BMP,resources/DB.BMP,Door3,-0.344889283,-0.014322937,1,0,0,1.0302,optionLeft,70,3900,2,26,0,26,0,1,,,,,,,,,,,,,,,,,,,,,,,,,,,,,,,,,,,,,,,
,,,,,,,,2023-08-16_08h21.11.026,HF_wild_card,2022.2.4,Win32,60.17209218,5ed2717aec79fd1d3ca47d65,64d2fd46c836a06233681665,64dc78d195e0db63318b8b27,,,,,,,decisionTrl,resources/DBN.BMP,resources/DB.BMP,Door2,0.294433594,-0.036458373,1,0,0,0.9922,optionRight,20,3920,2,27,0,27,0,1,,,,,,,,,,,,,,,,,,,,,,,,,,,,,,,,,,,,,,,
,,,,,,,,2023-08-16_08h21.11.026,HF_wild_card,2022.2.4,Win32,60.17209218,5ed2717aec79fd1d3ca47d65,64d2fd46c836a06233681665,64dc78d195e0db63318b8b27,,,,,,,sngl,resources/DB.BMP,resources/Empty.png,Door2,-0.25374347,-0.014322937,1,0,0,0.7823,optionLeft,20,3940,2,28,0,28,0,1,,,,,,,,,,,,,,,,,,,,,,,,,,,,,,,,,,,,,,,
,,,,,,,,2023-08-16_08h21.11.026,HF_wild_card,2022.2.4,Win32,60.17209218,5ed2717aec79fd1d3ca47d65,64d2fd46c836a06233681665,64dc78d195e0db63318b8b27,,,,,,,ctch,resources/DG.BMP,resources/DBN.BMP,Door4,-0.42561847,0.010416657,1,0,0,1.1684,optionLeft,60,4000,2,29,0,29,0,1,,,,,,,,,,,,,,,,,,,,,,,,,,,,,,,,,,,,,,,
,,,,,,,,2023-08-16_08h21.11.026,HF_wild_card,2022.2.4,Win32,60.17209218,5ed2717aec79fd1d3ca47d65,64d2fd46c836a06233681665,64dc78d195e0db63318b8b27,,,,,,,ctch,resources/DG.BMP,resources/DBN.BMP,Door4,-0.25764972,-0.015625,1,0,0,0.7754,optionLeft,80,4080,2,30,0,30,0,1,,,,,,,,,,,,,,,,,,,,,,,,,,,,,,,,,,,,,,,
,,,,,,,,2023-08-16_08h21.11.026,HF_wild_card,2022.2.4,Win32,60.17209218,5ed2717aec79fd1d3ca47d65,64d2fd46c836a06233681665,64dc78d195e0db63318b8b27,,,,,,,ctch,resources/DP.BMP,resources/DB.BMP,Door3,-0.35139972,-0.013020873,1,0,0,1.1651,optionLeft,70,4150,2,31,0,31,0,1,,,,,,,,,,,,,,,,,,,,,,,,,,,,,,,,,,,,,,,
,,,,,,,,2023-08-16_08h21.11.026,HF_wild_card,2022.2.4,Win32,60.17209218,5ed2717aec79fd1d3ca47d65,64d2fd46c836a06233681665,64dc78d195e0db63318b8b27,,,,,,,ctch,resources/DB.BMP,resources/DP.BMP,Door3,0.274902344,-0.045572937,1,0,0,0.942,optionRight,70,4220,2,32,0,32,0,1,,,,,,,,,,,,,,,,,,,,,,,,,,,,,,,,,,,,,,,
,,,,,,,,2023-08-16_08h21.11.026,HF_wild_card,2022.2.4,Win32,60.17209218,5ed2717aec79fd1d3ca47d65,64d2fd46c836a06233681665,64dc78d195e0db63318b8b27,,,,,,,ctch,resources/DB.BMP,resources/DP.BMP,Door3,0.30485034,-0.055989623,1,0,0,0.7584,optionRight,70,4290,2,33,0,33,0,1,,,,,,,,,,,,,,,,,,,,,,,,,,,,,,,,,,,,,,,
,,,,,,,,2023-08-16_08h21.11.026,HF_wild_card,2022.2.4,Win32,60.17209218,5ed2717aec79fd1d3ca47d65,64d2fd46c836a06233681665,64dc78d195e0db63318b8b27,,,,,,,decisionTrl,resources/DB.BMP,resources/DBN.BMP,Door2,-0.248535156,-0.018229187,1,0,0,1.025,optionLeft,20,4310,2,34,0,34,0,1,,,,,,,,,,,,,,,,,,,,,,,,,,,,,,,,,,,,,,,
,,,,,,,,2023-08-16_08h21.11.026,HF_wild_card,2022.2.4,Win32,60.17209218,5ed2717aec79fd1d3ca47d65,64d2fd46c836a06233681665,64dc78d195e0db63318b8b27,,,,,,,sngl,resources/DP.BMP,resources/Empty.png,Door3,-0.31624347,-0.018229187,1,0,0,0.8146,optionLeft,70,4380,2,35,0,35,0,1,,,,,,,,,,,,,,,,,,,,,,,,,,,,,,,,,,,,,,,
,,,,,,,,2023-08-16_08h21.11.026,HF_wild_card,2022.2.4,Win32,60.17209218,5ed2717aec79fd1d3ca47d65,64d2fd46c836a06233681665,64dc78d195e0db63318b8b27,,,,,,,sngl,resources/DY.BMP,resources/Empty.png,WildCard_NonEx,-0.264160156,-0.0234375,1,0,0,0.8073,optionLeft,45,4425,2,36,0,36,0,1,,,,,,,,,,,,,,,,,,,,,,,,,,,,,,,,,,,,,,,
,,,,,,,,2023-08-16_08h21.11.026,HF_wild_card,2022.2.4,Win32,60.17209218,5ed2717aec79fd1d3ca47d65,64d2fd46c836a06233681665,64dc78d195e0db63318b8b27,,,,,,,decisionTrl,resources/DY.BMP,resources/DBN.BMP,Door1,0.315266967,-0.041666687,1,0,0,1.464,optionRight,30,4455,2,37,0,37,0,1,,,,,,,,,,,,,,,,,,,,,,,,,,,,,,,,,,,,,,,
,,,,,,,,2023-08-16_08h21.11.026,HF_wild_card,2022.2.4,Win32,60.17209218,5ed2717aec79fd1d3ca47d65,64d2fd46c836a06233681665,64dc78d195e0db63318b8b27,,,,,,,sngl,resources/DY.BMP,resources/Empty.png,WildCard_NonEx,-0.131347656,-0.018229187,1,0,0,0.7249,optionLeft,55,4510,2,38,0,38,0,1,,,,,,,,,,,,,,,,,,,,,,,,,,,,,,,,,,,,,,,
,,,,,,,,2023-08-16_08h21.11.026,HF_wild_card,2022.2.4,Win32,60.17209218,5ed2717aec79fd1d3ca47d65,64d2fd46c836a06233681665,64dc78d195e0db63318b8b27,,,,,,,decisionTrl,resources/DG.BMP,resources/DP.BMP,Door4,-0.268066406,-0.026041687,1,0,0,1.303,optionLeft,60,4570,2,39,0,39,0,1,,,,,,,,,,,,,,,,,,,,,,,,,,,,,,,,,,,,,,,
,,,,,,,,2023-08-16_08h21.11.026,HF_wild_card,2022.2.4,Win32,60.17209218,5ed2717aec79fd1d3ca47d65,64d2fd46c836a06233681665,64dc78d195e0db63318b8b27,,,,,,,sngl,resources/DBN.BMP,resources/Empty.png,Door1,-0.141764283,-0.014322937,1,0,0,0.8322,optionLeft,30,4600,2,40,0,40,0,1,,,,,,,,,,,,,,,,,,,,,,,,,,,,,,,,,,,,,,,
,,,,,,,,2023-08-16_08h21.11.026,HF_wild_card,2022.2.4,Win32,60.17209218,5ed2717aec79fd1d3ca47d65,64d2fd46c836a06233681665,64dc78d195e0db63318b8b27,,,,,,,decisionTrl,resources/DY.BMP,resources/DB.BMP,WildCard_NonEx,-0.28108722,-0.002604187,1,0,0,1.713,optionLeft,55,4655,2,41,0,41,0,1,,,,,,,,,,,,,,,,,,,,,,,,,,,,,,,,,,,,,,,
,,,,,,,,2023-08-16_08h21.11.026,HF_wild_card,2022.2.4,Win32,60.17209218,5ed2717aec79fd1d3ca47d65,64d2fd46c836a06233681665,64dc78d195e0db63318b8b27,,,,,,,ctch,resources/DBN.BMP,resources/DG.BMP,Door4,0.34781909,-0.036458373,1,0,0,1.0083,optionRight,60,4715,2,42,0,42,0,1,,,,,,,,,,,,,,,,,,,,,,,,,,,,,,,,,,,,,,,
,,,,,,,,2023-08-16_08h21.11.026,HF_wild_card,2022.2.4,Win32,60.17209218,5ed2717aec79fd1d3ca47d65,64d2fd46c836a06233681665,64dc78d195e0db63318b8b27,,,,,,,sngl,resources/Empty.png,resources/DY.BMP,WildCard_NonEx,0.303548217,-0.0546875,1,0,0,0.9589,optionRight,45,4760,2,43,0,43,0,1,,,,,,,,,,,,,,,,,,,,,,,,,,,,,,,,,,,,,,,
,,,,,,,,2023-08-16_08h21.11.026,HF_wild_card,2022.2.4,Win32,60.17209218,5ed2717aec79fd1d3ca47d65,64d2fd46c836a06233681665,64dc78d195e0db63318b8b27,,,,,,,,,,,,,,,,,,,,,,,,,,1,0,1,0,1,,,,,,,,,,,,,,,,,,,,,,,,,,,,,,,,,,
,,,,,,,,2023-08-16_08h21.11.026,HF_wild_card,2022.2.4,Win32,60.17209218,5ed2717aec79fd1d3ca47d65,64d2fd46c836a06233681665,64dc78d195e0db63318b8b27,,,,,,,sngl,resources/Empty.png,resources/DP.BMP,Door3,0.307454467,-0.102864623,1,0,0,0.8613,optionRight,70,4830,3,0,0,0,0,1,,,,,,,,,,,,,,,,,,,,,,,,,,,,,,,,,,,,,,,
,,,,,,,,2023-08-16_08h21.11.026,HF_wild_card,2022.2.4,Win32,60.17209218,5ed2717aec79fd1d3ca47d65,64d2fd46c836a06233681665,64dc78d195e0db63318b8b27,,,,,,,sngl,resources/Empty.png,resources/DY.BMP,WildCard_NonEx,0.21891284,-0.037760437,1,0,0,0.7744,optionRight,55,4885,3,1,0,1,0,1,,,,,,,,,,,,,,,,,,,,,,,,,,,,,,,,,,,,,,,
,,,,,,,,2023-08-16_08h21.11.026,HF_wild_card,2022.2.4,Win32,60.17209218,5ed2717aec79fd1d3ca47d65,64d2fd46c836a06233681665,64dc78d195e0db63318b8b27,,,,,,,sngl,resources/DBN.BMP,resources/Empty.png,Door1,-0.176920533,-0.028645873,1,0,0,0.7705,optionLeft,30,4915,3,2,0,2,0,1,,,,,,,,,,,,,,,,,,,,,,,,,,,,,,,,,,,,,,,
,,,,,,,,2023-08-16_08h21.11.026,HF_wild_card,2022.2.4,Win32,60.17209218,5ed2717aec79fd1d3ca47d65,64d2fd46c836a06233681665,64dc78d195e0db63318b8b27,,,,,,,decisionTrl,resources/DG.BMP,resources/DP.BMP,Door3,0.329589844,-0.05078125,1,0,0,1.2605,optionRight,70,4985,3,3,0,3,0,1,,,,,,,,,,,,,,,,,,,,,,,,,,,,,,,,,,,,,,,
,,,,,,,,2023-08-16_08h21.11.026,HF_wild_card,2022.2.4,Win32,60.17209218,5ed2717aec79fd1d3ca47d65,64d2fd46c836a06233681665,64dc78d195e0db63318b8b27,,,,,,,sngl,resources/Empty.png,resources/DG.BMP,Door4,0.295735717,-0.022135437,1,0,0,0.6082,optionRight,60,5045,3,4,0,4,0,1,,,,,,,,,,,,,,,,,,,,,,,,,,,,,,,,,,,,,,,
,,,,,,,,2023-08-16_08h21.11.026,HF_wild_card,2022.2.4,Win32,60.17209218,5ed2717aec79fd1d3ca47d65,64d2fd46c836a06233681665,64dc78d195e0db63318b8b27,,,,,,,decisionTrl,resources/DB.BMP,resources/DBN.BMP,Door2,-0.17171222,-0.0234375,1,0,0,1.4533,optionLeft,40,5085,3,5,0,5,0,1,,,,,,,,,,,,,,,,,,,,,,,,,,,,,,,,,,,,,,,
,,,,,,,,2023-08-16_08h21.11.026,HF_wild_card,2022.2.4,Win32,60.17209218,5ed2717aec79fd1d3ca47d65,64d2fd46c836a06233681665,64dc78d195e0db63318b8b27,,,,,,,decisionTrl,resources/DP.BMP,resources/DG.BMP,Door3,-0.22249347,-0.018229187,1,0,0,1.3316,optionLeft,70,5155,3,6,0,6,0,1,,,,,,,,,,,,,,,,,,,,,,,,,,,,,,,,,,,,,,,
,,,,,,,,2023-08-16_08h21.11.026,HF_wild_card,2022.2.4,Win32,60.17209218,5ed2717aec79fd1d3ca47d65,64d2fd46c836a06233681665,64dc78d195e0db63318b8b27,,,,,,,sngl,resources/Empty.png,resources/DB.BMP,Door2,0.291829467,-0.026041687,1,0,0,0.8262,optionRight,20,5175,3,7,0,7,0,1,,,,,,,,,,,,,,,,,,,,,,,,,,,,,,,,,,,,,,,
,,,,,,,,2023-08-16_08h21.11.026,HF_wild_card,2022.2.4,Win32,60.17209218,5ed2717aec79fd1d3ca47d65,64d2fd46c836a06233681665,64dc78d195e0db63318b8b27,,,,,,,ctch,resources/DP.BMP,resources/DB.BMP,Door3,-0.22249347,-0.016927123,1,0,0,0.7814,optionLeft,70,5245,3,8,0,8,0,1,,,,,,,,,,,,,,,,,,,,,,,,,,,,,,,,,,,,,,,
,,,,,,,,2023-08-16_08h21.11.026,HF_wild_card,2022.2.4,Win32,60.17209218,5ed2717aec79fd1d3ca47d65,64d2fd46c836a06233681665,64dc78d195e0db63318b8b27,,,,,,,decisionTrl,resources/DBN.BMP,resources/DB.BMP,Door2,0.315266967,-0.03515625,1,0,0,1.1134,optionRight,20,5265,3,9,0,9,0,1,,,,,,,,,,,,,,,,,,,,,,,,,,,,,,,,,,,,,,,
,,,,,,,,2023-08-16_08h21.11.026,HF_wild_card,2022.2.4,Win32,60.17209218,5ed2717aec79fd1d3ca47d65,64d2fd46c836a06233681665,64dc78d195e0db63318b8b27,,,,,,,decisionTrl,resources/DBN.BMP,resources/DB.BMP,Door2,0.255371094,-0.028645873,1,0,0,0.8867,optionRight,40,5305,3,10,0,10,0,1,,,,,,,,,,,,,,,,,,,,,,,,,,,,,,,,,,,,,,,
,,,,,,,,2023-08-16_08h21.11.026,HF_wild_card,2022.2.4,Win32,60.17209218,5ed2717aec79fd1d3ca47d65,64d2fd46c836a06233681665,64dc78d195e0db63318b8b27,,,,,,,decisionTrl,resources/DY.BMP,resources/DBN.BMP,WildCard_NonEx,-0.24593097,-0.026041687,1,0,0,1.0407,optionLeft,45,5350,3,11,0,11,0,1,,,,,,,,,,,,,,,,,,,,,,,,,,,,,,,,,,,,,,,
,,,,,,,,2023-08-16_08h21.11.026,HF_wild_card,2022.2.4,Win32,60.17209218,5ed2717aec79fd1d3ca47d65,64d2fd46c836a06233681665,64dc78d195e0db63318b8b27,,,,,,,decisionTrl,resources/DP.BMP,resources/DG.BMP,Door3,-0.184733033,-0.01171875,1,0,0,1.4819,optionLeft,70,5420,3,12,0,12,0,1,,,,,,,,,,,,,,,,,,,,,,,,,,,,,,,,,,,,,,,
,,,,,,,,2023-08-16_08h21.11.026,HF_wild_card,2022.2.4,Win32,60.17209218,5ed2717aec79fd1d3ca47d65,64d2fd46c836a06233681665,64dc78d195e0db63318b8b27,,,,,,,decisionTrl,resources/DY.BMP,resources/DG.BMP,Door4,0.306152344,-0.024739623,1,0,0,1.2303,optionRight,60,5480,3,13,0,13,0,1,,,,,,,,,,,,,,,,,,,,,,,,,,,,,,,,,,,,,,,
,,,,,,,,2023-08-16_08h21.11.026,HF_wild_card,2022.2.4,Win32,60.17209218,5ed2717aec79fd1d3ca47d65,64d2fd46c836a06233681665,64dc78d195e0db63318b8b27,,,,,,,sngl,resources/DY.BMP,resources/Empty.png,WildCard_NonEx,-0.161295533,-0.013020873,1,0,0,0.7316,optionLeft,45,5525,3,14,0,14,0,1,,,,,,,,,,,,,,,,,,,,,,,,,,,,,,,,,,,,,,,
,,,,,,,,2023-08-16_08h21.11.026,HF_wild_card,2022.2.4,Win32,60.17209218,5ed2717aec79fd1d3ca47d65,64d2fd46c836a06233681665,64dc78d195e0db63318b8b27,,,,,,,decisionTrl,resources/DBN.BMP,resources/DB.BMP,Door2,0.28922534,-0.02734375,1,0,0,1.0136,optionRight,40,5565,3,15,0,15,0,1,,,,,,,,,,,,,,,,,,,,,,,,,,,,,,,,,,,,,,,
,,,,,,,,2023-08-16_08h21.11.026,HF_wild_card,2022.2.4,Win32,60.17209218,5ed2717aec79fd1d3ca47d65,64d2fd46c836a06233681665,64dc78d195e0db63318b8b27,,,,,,,decisionTrl,resources/DB.BMP,resources/DBN.BMP,Door2,-0.204264283,-0.009114623,1,0,0,0.9476,optionLeft,20,5585,3,16,0,16,0,1,,,,,,,,,,,,,,,,,,,,,,,,,,,,,,,,,,,,,,,
,,,,,,,,2023-08-16_08h21.11.026,HF_wild_card,2022.2.4,Win32,60.17209218,5ed2717aec79fd1d3ca47d65,64d2fd46c836a06233681665,64dc78d195e0db63318b8b27,,,,,,,decisionTrl,resources/DY.BMP,resources/DP.BMP,Door3,0.255371094,-0.029947937,1,0,0,1.2077,optionRight,70,5655,3,17,0,17,0,1,,,,,,,,,,,,,,,,,,,,,,,,,,,,,,,,,,,,,,,
,,,,,,,,2023-08-16_08h21.11.026,HF_wild_card,2022.2.4,Win32,60.17209218,5ed2717aec79fd1d3ca47d65,64d2fd46c836a06233681665,64dc78d195e0db63318b8b27,,,,,,,decisionTrl,resources/DY.BMP,resources/DB.BMP,WildCard_NonEx,-0.208170533,-0.028645873,1,0,0,1.3154,optionLeft,55,5710,3,18,0,18,0,1,,,,,,,,,,,,,,,,,,,,,,,,,,,,,,,,,,,,,,,
,,,,,,,,2023-08-16_08h21.11.026,HF_wild_card,2022.2.4,Win32,60.17209218,5ed2717aec79fd1d3ca47d65,64d2fd46c836a06233681665,64dc78d195e0db63318b8b27,,,,,,,ctch,resources/DB.BMP,resources/DP.BMP,Door3,0.337402344,-0.0390625,1,0,0,0.8636,optionRight,70,5780,3,19,0,19,0,1,,,,,,,,,,,,,,,,,,,,,,,,,,,,,,,,,,,,,,,
,,,,,,,,2023-08-16_08h21.11.026,HF_wild_card,2022.2.4,Win32,60.17209218,5ed2717aec79fd1d3ca47d65,64d2fd46c836a06233681665,64dc78d195e0db63318b8b27,,,,,,,sngl,resources/DP.BMP,resources/Empty.png,Door3,-0.165201783,-0.024739623,1,0,0,0.7263,optionLeft,70,5850,3,20,0,20,0,1,,,,,,,,,,,,,,,,,,,,,,,,,,,,,,,,,,,,,,,
,,,,,,,,2023-08-16_08h21.11.026,HF_wild_card,2022.2.4,Win32,60.17209218,5ed2717aec79fd1d3ca47d65,64d2fd46c836a06233681665,64dc78d195e0db63318b8b27,,,,,,,decisionTrl,resources/DG.BMP,resources/DP.BMP,Door3,0.30485034,-0.041666687,1,0,0,1.2699,optionRight,70,5920,3,21,0,21,0,1,,,,,,,,,,,,,,,,,,,,,,,,,,,,,,,,,,,,,,,
,,,,,,,,2023-08-16_08h21.11.026,HF_wild_card,2022.2.4,Win32,60.17209218,5ed2717aec79fd1d3ca47d65,64d2fd46c836a06233681665,64dc78d195e0db63318b8b27,,,,,,,decisionTrl,resources/DG.BMP,resources/DP.BMP,Door4,-0.239420533,-0.022135437,1,0,0,1.0652,optionLeft,80,6000,3,22,0,22,0,1,,,,,,,,,,,,,,,,,,,,,,,,,,,,,,,,,,,,,,,
,,,,,,,,2023-08-16_08h21.11.026,HF_wild_card,2022.2.4,Win32,60.17209218,5ed2717aec79fd1d3ca47d65,64d2fd46c836a06233681665,64dc78d195e0db63318b8b27,,,,,,,decisionTrl,resources/DBN.BMP,resources/DB.BMP,Door2,0.364746094,-0.040364623,1,0,0,1.3149,optionRight,20,6020,3,23,0,23,0,1,,,,,,,,,,,,,,,,,,,,,,,,,,,,,,,,,,,,,,,
,,,,,,,,2023-08-16_08h21.11.026,HF_wild_card,2022.2.4,Win32,60.17209218,5ed2717aec79fd1d3ca47d65,64d2fd46c836a06233681665,64dc78d195e0db63318b8b27,,,,,,,decisionTrl,resources/DP.BMP,resources/DY.BMP,Door3,-0.236816406,-0.01953125,1,0,0,2.1988,optionLeft,70,6090,3,24,0,24,0,1,,,,,,,,,,,,,,,,,,,,,,,,,,,,,,,,,,,,,,,
,,,,,,,,2023-08-16_08h21.11.026,HF_wild_card,2022.2.4,Win32,60.17209218,5ed2717aec79fd1d3ca47d65,64d2fd46c836a06233681665,64dc78d195e0db63318b8b27,,,,,,,decisionTrl,resources/DBN.BMP,resources/DY.BMP,WildCard_NonEx,0.290527344,-0.026041687,1,0,0,0.8493,optionRight,55,6145,3,25,0,25,0,1,,,,,,,,,,,,,,,,,,,,,,,,,,,,,,,,,,,,,,,
,,,,,,,,2023-08-16_08h21.11.026,HF_wild_card,2022.2.4,Win32,60.17209218,5ed2717aec79fd1d3ca47d65,64d2fd46c836a06233681665,64dc78d195e0db63318b8b27,,,,,,,decisionTrl,resources/DG.BMP,resources/DY.BMP,Door4,-0.204264283,-0.014322937,1,0,0,0.8749,optionLeft,80,6225,3,26,0,26,0,1,,,,,,,,,,,,,,,,,,,,,,,,,,,,,,,,,,,,,,,
,,,,,,,,2023-08-16_08h21.11.026,HF_wild_card,2022.2.4,Win32,60.17209218,5ed2717aec79fd1d3ca47d65,64d2fd46c836a06233681665,64dc78d195e0db63318b8b27,,,,,,,sngl,resources/Empty.png,resources/DBN.BMP,Door1,0.244954467,-0.015625,1,0,0,0.8152,optionRight,30,6255,3,27,0,27,0,1,,,,,,,,,,,,,,,,,,,,,,,,,,,,,,,,,,,,,,,
,,,,,,,,2023-08-16_08h21.11.026,HF_wild_card,2022.2.4,Win32,60.17209218,5ed2717aec79fd1d3ca47d65,64d2fd46c836a06233681665,64dc78d195e0db63318b8b27,,,,,,,sngl,resources/DB.BMP,resources/Empty.png,Door2,-0.176920533,-0.013020873,1,0,0,0.8752,optionLeft,40,6295,3,28,0,28,0,1,,,,,,,,,,,,,,,,,,,,,,,,,,,,,,,,,,,,,,,
,,,,,,,,2023-08-16_08h21.11.026,HF_wild_card,2022.2.4,Win32,60.17209218,5ed2717aec79fd1d3ca47d65,64d2fd46c836a06233681665,64dc78d195e0db63318b8b27,,,,,,,ctch,resources/DP.BMP,resources/DB.BMP,Door3,-0.26155597,-0.009114623,1,0,0,1.1646,optionLeft,70,6365,3,29,0,29,0,1,,,,,,,,,,,,,,,,,,,,,,,,,,,,,,,,,,,,,,,
,,,,,,,,2023-08-16_08h21.11.026,HF_wild_card,2022.2.4,Win32,60.17209218,5ed2717aec79fd1d3ca47d65,64d2fd46c836a06233681665,64dc78d195e0db63318b8b27,,,,,,,decisionTrl,resources/DP.BMP,resources/DG.BMP,Door4,0.380371094,-0.0390625,1,0,0,0.6464,optionRight,60,6425,3,30,0,30,0,1,,,,,,,,,,,,,,,,,,,,,,,,,,,,,,,,,,,,,,,
,,,,,,,,2023-08-16_08h21.11.026,HF_wild_card,2022.2.4,Win32,60.17209218,5ed2717aec79fd1d3ca47d65,64d2fd46c836a06233681665,64dc78d195e0db63318b8b27,,,,,,,decisionTrl,resources/DB.BMP,resources/DY.BMP,WildCard_NonEx,0.31266284,-0.022135437,1,0,0,1.7485,optionRight,55,6480,3,31,0,31,0,1,,,,,,,,,,,,,,,,,,,,,,,,,,,,,,,,,,,,,,,
,,,,,,,,2023-08-16_08h21.11.026,HF_wild_card,2022.2.4,Win32,60.17209218,5ed2717aec79fd1d3ca47d65,64d2fd46c836a06233681665,64dc78d195e0db63318b8b27,,,,,,,sngl,resources/DY.BMP,resources/Empty.png,WildCard_NonEx,-0.111816406,-0.010416687,1,0,0,1.3029,optionLeft,55,6535,3,32,0,32,0,1,,,,,,,,,,,,,,,,,,,,,,,,,,,,,,,,,,,,,,,
,,,,,,,,2023-08-16_08h21.11.026,HF_wild_card,2022.2.4,Win32,60.17209218,5ed2717aec79fd1d3ca47d65,64d2fd46c836a06233681665,64dc78d195e0db63318b8b27,,,,,,,decisionTrl,resources/DG.BMP,resources/DP.BMP,Door4,-0.176920533,-0.001302123,1,0,0,1.575,optionLeft,80,6615,3,33,0,33,0,1,,,,,,,,,,,,,,,,,,,,,,,,,,,,,,,,,,,,,,,
,,,,,,,,2023-08-16_08h21.11.026,HF_wild_card,2022.2.4,Win32,60.17209218,5ed2717aec79fd1d3ca47d65,64d2fd46c836a06233681665,64dc78d195e0db63318b8b27,,,,,,,decisionTrl,resources/DB.BMP,resources/DBN.BMP,Door2,-0.205566406,0.0078125,1,0,0,1.9953,optionLeft,20,6635,3,34,0,34,0,1,,,,,,,,,,,,,,,,,,,,,,,,,,,,,,,,,,,,,,,
,,,,,,,,2023-08-16_08h21.11.026,HF_wild_card,2022.2.4,Win32,60.17209218,5ed2717aec79fd1d3ca47d65,64d2fd46c836a06233681665,64dc78d195e0db63318b8b27,,,,,,,sngl,resources/DG.BMP,resources/Empty.png,Door4,-0.213378906,0.0078125,1,0,0,0.8148,optionLeft,80,6715,3,35,0,35,0,1,,,,,,,,,,,,,,,,,,,,,,,,,,,,,,,,,,,,,,,
,,,,,,,,2023-08-16_08h21.11.026,HF_wild_card,2022.2.4,Win32,60.17209218,5ed2717aec79fd1d3ca47d65,64d2fd46c836a06233681665,64dc78d195e0db63318b8b27,,,,,,,ctch,resources/DG.BMP,resources/DBN.BMP,Door4,-0.217285156,0.01171875,1,0,0,0.9806,optionLeft,60,6775,3,36,0,36,0,1,,,,,,,,,,,,,,,,,,,,,,,,,,,,,,,,,,,,,,,
,,,,,,,,2023-08-16_08h21.11.026,HF_wild_card,2022.2.4,Win32,60.17209218,5ed2717aec79fd1d3ca47d65,64d2fd46c836a06233681665,64dc78d195e0db63318b8b27,,,,,,,ctch,resources/DBN.BMP,resources/DG.BMP,Door4,0.282714844,-0.00390625,1,0,0,0.8417,optionRight,80,6855,3,37,0,37,0,1,,,,,,,,,,,,,,,,,,,,,,,,,,,,,,,,,,,,,,,
,,,,,,,,2023-08-16_08h21.11.026,HF_wild_card,2022.2.4,Win32,60.17209218,5ed2717aec79fd1d3ca47d65,64d2fd46c836a06233681665,64dc78d195e0db63318b8b27,,,,,,,decisionTrl,resources/DP.BMP,resources/DG.BMP,Door3,-0.219889283,0.0078125,1,0,0,0.7979,optionLeft,70,6925,3,38,0,38,0,1,,,,,,,,,,,,,,,,,,,,,,,,,,,,,,,,,,,,,,,
,,,,,,,,2023-08-16_08h21.11.026,HF_wild_card,2022.2.4,Win32,60.17209218,5ed2717aec79fd1d3ca47d65,64d2fd46c836a06233681665,64dc78d195e0db63318b8b27,,,,,,,ctch,resources/DB.BMP,resources/DP.BMP,Door3,0.290527344,-0.005208373,1,0,0,0.9134,optionRight,70,6995,3,39,0,39,0,1,,,,,,,,,,,,,,,,,,,,,,,,,,,,,,,,,,,,,,,
,,,,,,,,2023-08-16_08h21.11.026,HF_wild_card,2022.2.4,Win32,60.17209218,5ed2717aec79fd1d3ca47d65,64d2fd46c836a06233681665,64dc78d195e0db63318b8b27,,,,,,,sngl,resources/Empty.png,resources/DY.BMP,WildCard_NonEx,0.233235717,-0.013020873,1,0,0,0.8087,optionRight,45,7040,3,40,0,40,0,1,,,,,,,,,,,,,,,,,,,,,,,,,,,,,,,,,,,,,,,
,,,,,,,,2023-08-16_08h21.11.026,HF_wild_card,2022.2.4,Win32,60.17209218,5ed2717aec79fd1d3ca47d65,64d2fd46c836a06233681665,64dc78d195e0db63318b8b27,,,,,,,decisionTrl,resources/DB.BMP,resources/DBN.BMP,Door2,-0.188639283,-0.006510437,1,0,0,1.3441,optionLeft,40,7080,3,41,0,41,0,1,,,,,,,,,,,,,,,,,,,,,,,,,,,,,,,,,,,,,,,
,,,,,,,,2023-08-16_08h21.11.026,HF_wild_card,2022.2.4,Win32,60.17209218,5ed2717aec79fd1d3ca47d65,64d2fd46c836a06233681665,64dc78d195e0db63318b8b27,,,,,,,ctch,resources/DG.BMP,resources/DBN.BMP,Door4,-0.275878906,-0.005208373,1,0,0,0.814,optionLeft,80,7160,3,42,0,42,0,1,,,,,,,,,,,,,,,,,,,,,,,,,,,,,,,,,,,,,,,
,,,,,,,,2023-08-16_08h21.11.026,HF_wild_card,2022.2.4,Win32,60.17209218,5ed2717aec79fd1d3ca47d65,64d2fd46c836a06233681665,64dc78d195e0db63318b8b27,,,,,,,ctch,resources/DBN.BMP,resources/DG.BMP,Door4,0.31266284,-0.0234375,1,0,0,0.8304,optionRight,60,7220,3,43,0,43,0,1,,,,,,,,,,,,,,,,,,,,,,,,,,,,,,,,,,,,,,,
,,,,,,,,2023-08-16_08h21.11.026,HF_wild_card,2022.2.4,Win32,60.17209218,5ed2717aec79fd1d3ca47d65,64d2fd46c836a06233681665,64dc78d195e0db63318b8b27,,,,,,,,,,,,,,,,,,,,,,,,,,2,0,2,0,1,,,,,,,,,,,,,,,,,,,,,,,,,,,,,,,,,,
,,,,,,,,2023-08-16_08h21.11.026,HF_wild_card,2022.2.4,Win32,60.17209218,5ed2717aec79fd1d3ca47d65,64d2fd46c836a06233681665,64dc78d195e0db63318b8b27,,,,,,,decisionTrl,resources/DBN.BMP,resources/DB.BMP,Door2,0.317871094,-0.052083373,1,0,0,1.7812,optionRight,40,7260,4,0,0,0,0,1,,,,,,,,,,,,,,,,,,,,,,,,,,,,,,,,,,,,,,,
,,,,,,,,2023-08-16_08h21.11.026,HF_wild_card,2022.2.4,Win32,60.17209218,5ed2717aec79fd1d3ca47d65,64d2fd46c836a06233681665,64dc78d195e0db63318b8b27,,,,,,,decisionTrl,resources/DBN.BMP,resources/DB.BMP,Door2,0.21500659,-0.049479187,1,0,0,0.8635,optionRight,40,7300,4,1,0,1,0,1,,,,,,,,,,,,,,,,,,,,,,,,,,,,,,,,,,,,,,,
,,,,,,,,2023-08-16_08h21.11.026,HF_wild_card,2022.2.4,Win32,60.17209218,5ed2717aec79fd1d3ca47d65,64d2fd46c836a06233681665,64dc78d195e0db63318b8b27,,,,,,,sngl,resources/DP.BMP,resources/Empty.png,Door3,-0.209472656,-0.018229187,1,0,0,0.7635,optionLeft,70,7370,4,2,0,2,0,1,,,,,,,,,,,,,,,,,,,,,,,,,,,,,,,,,,,,,,,
,,,,,,,,2023-08-16_08h21.11.026,HF_wild_card,2022.2.4,Win32,60.17209218,5ed2717aec79fd1d3ca47d65,64d2fd46c836a06233681665,64dc78d195e0db63318b8b27,,,,,,,decisionTrl,resources/DG.BMP,resources/DP.BMP,Door4,-0.28889972,-0.026041687,1,0,0,0.8148,optionLeft,60,7430,4,3,0,3,0,1,,,,,,,,,,,,,,,,,,,,,,,,,,,,,,,,,,,,,,,
,,,,,,,,2023-08-16_08h21.11.026,HF_wild_card,2022.2.4,Win32,60.17209218,5ed2717aec79fd1d3ca47d65,64d2fd46c836a06233681665,64dc78d195e0db63318b8b27,,,,,,,ctch,resources/DB.BMP,resources/DP.BMP,Door3,0.264485717,-0.03125,1,0,0,1.4154,optionRight,70,7500,4,4,0,4,0,1,,,,,,,,,,,,,,,,,,,,,,,,,,,,,,,,,,,,,,,
,,,,,,,,2023-08-16_08h21.11.026,HF_wild_card,2022.2.4,Win32,60.17209218,5ed2717aec79fd1d3ca47d65,64d2fd46c836a06233681665,64dc78d195e0db63318b8b27,,,,,,,sngl,resources/Empty.png,resources/DG.BMP,Door4,0.310058594,-0.029947937,1,0,0,0.6291,optionRight,80,7580,4,5,0,5,0,1,,,,,,,,,,,,,,,,,,,,,,,,,,,,,,,,,,,,,,,
,,,,,,,,2023-08-16_08h21.11.026,HF_wild_card,2022.2.4,Win32,60.17209218,5ed2717aec79fd1d3ca47d65,64d2fd46c836a06233681665,64dc78d195e0db63318b8b27,,,,,,,decisionTrl,resources/DG.BMP,resources/DP.BMP,Door3,0.26188159,-0.044270873,1,0,0,0.8739,optionRight,70,7650,4,6,0,6,0,1,,,,,,,,,,,,,,,,,,,,,,,,,,,,,,,,,,,,,,,
,,,,,,,,2023-08-16_08h21.11.026,HF_wild_card,2022.2.4,Win32,60.17209218,5ed2717aec79fd1d3ca47d65,64d2fd46c836a06233681665,64dc78d195e0db63318b8b27,,,,,,,sngl,resources/DG.BMP,resources/Empty.png,Door4,-0.251139283,-0.028645873,1,0,0,0.6818,optionLeft,60,7710,4,7,0,7,0,1,,,,,,,,,,,,,,,,,,,,,,,,,,,,,,,,,,,,,,,
,,,,,,,,2023-08-16_08h21.11.026,HF_wild_card,2022.2.4,Win32,60.17209218,5ed2717aec79fd1d3ca47d65,64d2fd46c836a06233681665,64dc78d195e0db63318b8b27,,,,,,,decisionTrl,resources/DR.BMP,resources/DBN.BMP,WildCard_Ex,-0.29671222,-0.03125,1,0,0,1.5525,optionLeft,45,7755,4,8,0,8,0,1,,,,,,,,,,,,,,,,,,,,,,,,,,,,,,,,,,,,,,,
,,,,,,,,2023-08-16_08h21.11.026,HF_wild_card,2022.2.4,Win32,60.17209218,5ed2717aec79fd1d3ca47d65,64d2fd46c836a06233681665,64dc78d195e0db63318b8b27,,,,,,,decisionTrl,resources/DR.BMP,resources/DB.BMP,WildCard_Ex,-0.30061847,-0.0234375,1,0,0,1.5884,optionLeft,55,7810,4,9,0,9,0,1,,,,,,,,,,,,,,,,,,,,,,,,,,,,,,,,,,,,,,,
,,,,,,,,2023-08-16_08h21.11.026,HF_wild_card,2022.2.4,Win32,60.17209218,5ed2717aec79fd1d3ca47d65,64d2fd46c836a06233681665,64dc78d195e0db63318b8b27,,,,,,,decisionTrl,resources/DR.BMP,resources/DP.BMP,Door3,0.209798217,-0.041666687,1,0,0,1.113,optionRight,70,7880,4,10,0,10,0,1,,,,,,,,,,,,,,,,,,,,,,,,,,,,,,,,,,,,,,,
,,,,,,,,2023-08-16_08h21.11.026,HF_wild_card,2022.2.4,Win32,60.17209218,5ed2717aec79fd1d3ca47d65,64d2fd46c836a06233681665,64dc78d195e0db63318b8b27,,,,,,,decisionTrl,resources/DP.BMP,resources/DG.BMP,Door4,0.276204467,-0.044270873,1,0,0,0.9965,optionRight,80,7960,4,11,0,11,0,1,,,,,,,,,,,,,,,,,,,,,,,,,,,,,,,,,,,,,,,
,,,,,,,,2023-08-16_08h21.11.026,HF_wild_card,2022.2.4,Win32,60.17209218,5ed2717aec79fd1d3ca47d65,64d2fd46c836a06233681665,64dc78d195e0db63318b8b27,,,,,,,decisionTrl,resources/DBN.BMP,resources/DR.BMP,WildCard_Ex,0.268391967,-0.045572937,1,0,0,1.0798,optionRight,45,8005,4,12,0,12,0,1,,,,,,,,,,,,,,,,,,,,,,,,,,,,,,,,,,,,,,,
,,,,,,,,2023-08-16_08h21.11.026,HF_wild_card,2022.2.4,Win32,60.17209218,5ed2717aec79fd1d3ca47d65,64d2fd46c836a06233681665,64dc78d195e0db63318b8b27,,,,,,,ctch,resources/DG.BMP,resources/DBN.BMP,Door4,-0.305826783,-0.02734375,1,0,0,1.0029,optionLeft,60,8065,4,13,0,13,0,1,,,,,,,,,,,,,,,,,,,,,,,,,,,,,,,,,,,,,,,
,,,,,,,,2023-08-16_08h21.11.026,HF_wild_card,2022.2.4,Win32,60.17209218,5ed2717aec79fd1d3ca47d65,64d2fd46c836a06233681665,64dc78d195e0db63318b8b27,,,,,,,decisionTrl,resources/DB.BMP,resources/DBN.BMP,Door2,-0.270670533,-0.013020873,1,0,0,1.22,optionLeft,40,8105,4,14,0,14,0,1,,,,,,,,,,,,,,,,,,,,,,,,,,,,,,,,,,,,,,,
,,,,,,,,2023-08-16_08h21.11.026,HF_wild_card,2022.2.4,Win32,60.17209218,5ed2717aec79fd1d3ca47d65,64d2fd46c836a06233681665,64dc78d195e0db63318b8b27,,,,,,,sngl,resources/Empty.png,resources/DB.BMP,Door2,0.24625659,-0.040364623,1,0,0,0.7253,optionRight,40,8145,4,15,0,15,0,1,,,,,,,,,,,,,,,,,,,,,,,,,,,,,,,,,,,,,,,
,,,,,,,,2023-08-16_08h21.11.026,HF_wild_card,2022.2.4,Win32,60.17209218,5ed2717aec79fd1d3ca47d65,64d2fd46c836a06233681665,64dc78d195e0db63318b8b27,,,,,,,ctch,resources/DP.BMP,resources/DB.BMP,Door3,-0.286295533,-0.018229187,1,0,0,0.7634,optionLeft,70,8215,4,16,0,16,0,1,,,,,,,,,,,,,,,,,,,,,,,,,,,,,,,,,,,,,,,
,,,,,,,,2023-08-16_08h21.11.026,HF_wild_card,2022.2.4,Win32,60.17209218,5ed2717aec79fd1d3ca47d65,64d2fd46c836a06233681665,64dc78d195e0db63318b8b27,,,,,,,decisionTrl,resources/DG.BMP,resources/DP.BMP,Door4,-0.225097656,-0.040364623,1,0,0,1.6365,optionLeft,60,8275,4,17,0,17,0,1,,,,,,,,,,,,,,,,,,,,,,,,,,,,,,,,,,,,,,,
,,,,,,,,2023-08-16_08h21.11.026,HF_wild_card,2022.2.4,Win32,60.17209218,5ed2717aec79fd1d3ca47d65,64d2fd46c836a06233681665,64dc78d195e0db63318b8b27,,,,,,,decisionTrl,resources/DP.BMP,resources/DG.BMP,Door4,0.21500659,-0.055989623,1,0,0,1.7183,optionRight,60,8335,4,18,0,18,0,1,,,,,,,,,,,,,,,,,,,,,,,,,,,,,,,,,,,,,,,
,,,,,,,,2023-08-16_08h21.11.026,HF_wild_card,2022.2.4,Win32,60.17209218,5ed2717aec79fd1d3ca47d65,64d2fd46c836a06233681665,64dc78d195e0db63318b8b27,,,,,,,ctch,resources/DB.BMP,resources/DP.BMP,Door3,0.286621094,-0.0546875,1,0,0,0.7917,optionRight,70,8405,4,19,0,19,0,1,,,,,,,,,,,,,,,,,,,,,,,,,,,,,,,,,,,,,,,
,,,,,,,,2023-08-16_08h21.11.026,HF_wild_card,2022.2.4,Win32,60.17209218,5ed2717aec79fd1d3ca47d65,64d2fd46c836a06233681665,64dc78d195e0db63318b8b27,,,,,,,decisionTrl,resources/DP.BMP,resources/DG.BMP,Door4,0.25797534,-0.057291687,1,0,0,0.7741,optionRight,60,8465,4,20,0,20,0,1,,,,,,,,,,,,,,,,,,,,,,,,,,,,,,,,,,,,,,,
,,,,,,,,2023-08-16_08h21.11.026,HF_wild_card,2022.2.4,Win32,60.17209218,5ed2717aec79fd1d3ca47d65,64d2fd46c836a06233681665,64dc78d195e0db63318b8b27,,,,,,,ctch,resources/DBN.BMP,resources/DG.BMP,Door4,0.278808594,-0.061197937,1,0,0,0.7478,optionRight,80,8545,4,21,0,21,0,1,,,,,,,,,,,,,,,,,,,,,,,,,,,,,,,,,,,,,,,
,,,,,,,,2023-08-16_08h21.11.026,HF_wild_card,2022.2.4,Win32,60.17209218,5ed2717aec79fd1d3ca47d65,64d2fd46c836a06233681665,64dc78d195e0db63318b8b27,,,,,,,decisionTrl,resources/DP.BMP,resources/DR.BMP,Door3,-0.287597656,-0.029947937,1,0,0,0.788,optionLeft,70,8615,4,22,0,22,0,1,,,,,,,,,,,,,,,,,,,,,,,,,,,,,,,,,,,,,,,
,,,,,,,,2023-08-16_08h21.11.026,HF_wild_card,2022.2.4,Win32,60.17209218,5ed2717aec79fd1d3ca47d65,64d2fd46c836a06233681665,64dc78d195e0db63318b8b27,,,,,,,decisionTrl,resources/DG.BMP,resources/DR.BMP,Door4,-0.215983033,-0.028645873,1,0,0,1.0918,optionLeft,60,8675,4,23,0,23,0,1,,,,,,,,,,,,,,,,,,,,,,,,,,,,,,,,,,,,,,,
,,,,,,,,2023-08-16_08h21.11.026,HF_wild_card,2022.2.4,Win32,60.17209218,5ed2717aec79fd1d3ca47d65,64d2fd46c836a06233681665,64dc78d195e0db63318b8b27,,,,,,,decisionTrl,resources/DR.BMP,resources/DG.BMP,Door4,0.278808594,-0.037760437,1,0,0,0.8256,optionRight,60,8735,4,24,0,24,0,1,,,,,,,,,,,,,,,,,,,,,,,,,,,,,,,,,,,,,,,
,,,,,,,,2023-08-16_08h21.11.026,HF_wild_card,2022.2.4,Win32,60.17209218,5ed2717aec79fd1d3ca47d65,64d2fd46c836a06233681665,64dc78d195e0db63318b8b27,,,,,,,ctch,resources/DP.BMP,resources/DB.BMP,Door3,-0.24983722,-0.0390625,1,0,0,0.9969,optionLeft,70,8805,4,25,0,25,0,1,,,,,,,,,,,,,,,,,,,,,,,,,,,,,,,,,,,,,,,
,,,,,,,,2023-08-16_08h21.11.026,HF_wild_card,2022.2.4,Win32,60.17209218,5ed2717aec79fd1d3ca47d65,64d2fd46c836a06233681665,64dc78d195e0db63318b8b27,,,,,,,decisionTrl,resources/DBN.BMP,resources/DB.BMP,Door2,0.280110717,-0.055989623,1,0,0,1.0789,optionRight,40,8845,4,26,0,26,0,1,,,,,,,,,,,,,,,,,,,,,,,,,,,,,,,,,,,,,,,
,,,,,,,,2023-08-16_08h21.11.026,HF_wild_card,2022.2.4,Win32,60.17209218,5ed2717aec79fd1d3ca47d65,64d2fd46c836a06233681665,64dc78d195e0db63318b8b27,,,,,,,decisionTrl,resources/DB.BMP,resources/DBN.BMP,Door2,-0.247233033,-0.0234375,1,0,0,1.0753,optionLeft,20,8865,4,27,0,27,0,1,,,,,,,,,,,,,,,,,,,,,,,,,,,,,,,,,,,,,,,
,,,,,,,,2023-08-16_08h21.11.026,HF_wild_card,2022.2.4,Win32,60.17209218,5ed2717aec79fd1d3ca47d65,64d2fd46c836a06233681665,64dc78d195e0db63318b8b27,,,,,,,decisionTrl,resources/DB.BMP,resources/DBN.BMP,Door2,-0.26155597,-0.024739623,1,0,0,2.068,optionLeft,20,8885,4,28,0,28,0,1,,,,,,,,,,,,,,,,,,,,,,,,,,,,,,,,,,,,,,,
,,,,,,,,2023-08-16_08h21.11.026,HF_wild_card,2022.2.4,Win32,60.17209218,5ed2717aec79fd1d3ca47d65,64d2fd46c836a06233681665,64dc78d195e0db63318b8b27,,,,,,,sngl,resources/Empty.png,resources/DP.BMP,Door3,0.33610034,-0.0390625,1,0,0,0.6748,optionRight,70,8955,4,29,0,29,0,1,,,,,,,,,,,,,,,,,,,,,,,,,,,,,,,,,,,,,,,
,,,,,,,,2023-08-16_08h21.11.026,HF_wild_card,2022.2.4,Win32,60.17209218,5ed2717aec79fd1d3ca47d65,64d2fd46c836a06233681665,64dc78d195e0db63318b8b27,,,,,,,decisionTrl,resources/DBN.BMP,resources/DB.BMP,Door2,0.35172534,-0.0703125,1,0,0,1.1808,optionRight,40,8995,4,30,0,30,0,1,,,,,,,,,,,,,,,,,,,,,,,,,,,,,,,,,,,,,,,
,,,,,,,,2023-08-16_08h21.11.026,HF_wild_card,2022.2.4,Win32,60.17209218,5ed2717aec79fd1d3ca47d65,64d2fd46c836a06233681665,64dc78d195e0db63318b8b27,,,,,,,sngl,resources/Empty.png,resources/DBN.BMP,Door1,0.147298217,-0.024739623,1,0,0,0.8401,optionRight,30,9025,4,31,0,31,0,1,,,,,,,,,,,,,,,,,,,,,,,,,,,,,,,,,,,,,,,
,,,,,,,,2023-08-16_08h21.11.026,HF_wild_card,2022.2.4,Win32,60.17209218,5ed2717aec79fd1d3ca47d65,64d2fd46c836a06233681665,64dc78d195e0db63318b8b27,,,,,,,sngl,resources/DR.BMP,resources/Empty.png,WildCard_Ex,-0.169108033,0,1,0,0,0.7362,optionLeft,45,9070,4,32,0,32,0,1,,,,,,,,,,,,,,,,,,,,,,,,,,,,,,,,,,,,,,,
,,,,,,,,2023-08-16_08h21.11.026,HF_wild_card,2022.2.4,Win32,60.17209218,5ed2717aec79fd1d3ca47d65,64d2fd46c836a06233681665,64dc78d195e0db63318b8b27,,,,,,,decisionTrl,resources/DB.BMP,resources/DBN.BMP,Door2,-0.21858722,-0.013020873,1,0,0,1.2531,optionLeft,20,9090,4,33,0,33,0,1,,,,,,,,,,,,,,,,,,,,,,,,,,,,,,,,,,,,,,,
,,,,,,,,2023-08-16_08h21.11.026,HF_wild_card,2022.2.4,Win32,60.17209218,5ed2717aec79fd1d3ca47d65,64d2fd46c836a06233681665,64dc78d195e0db63318b8b27,,,,,,,ctch,resources/DBN.BMP,resources/DG.BMP,Door4,0.38297534,-0.03125,1,0,0,0.7908,optionRight,60,9150,4,34,0,34,0,1,,,,,,,,,,,,,,,,,,,,,,,,,,,,,,,,,,,,,,,
,,,,,,,,2023-08-16_08h21.11.026,HF_wild_card,2022.2.4,Win32,60.17209218,5ed2717aec79fd1d3ca47d65,64d2fd46c836a06233681665,64dc78d195e0db63318b8b27,,,,,,,sngl,resources/DB.BMP,resources/Empty.png,Door2,-0.127441406,-0.016927123,1,0,0,0.8305,optionLeft,20,9170,4,35,0,35,0,1,,,,,,,,,,,,,,,,,,,,,,,,,,,,,,,,,,,,,,,
,,,,,,,,2023-08-16_08h21.11.026,HF_wild_card,2022.2.4,Win32,60.17209218,5ed2717aec79fd1d3ca47d65,64d2fd46c836a06233681665,64dc78d195e0db63318b8b27,,,,,,,decisionTrl,resources/DB.BMP,resources/DR.BMP,WildCard_Ex,0.231933594,-0.03125,1,0,0,1.591,optionRight,45,9215,4,36,0,36,0,1,,,,,,,,,,,,,,,,,,,,,,,,,,,,,,,,,,,,,,,
,,,,,,,,2023-08-16_08h21.11.026,HF_wild_card,2022.2.4,Win32,60.17209218,5ed2717aec79fd1d3ca47d65,64d2fd46c836a06233681665,64dc78d195e0db63318b8b27,,,,,,,decisionTrl,resources/DG.BMP,resources/DP.BMP,Door4,-0.193847656,-0.028645873,1,0,0,1.1408,optionLeft,60,9275,4,37,0,37,0,1,,,,,,,,,,,,,,,,,,,,,,,,,,,,,,,,,,,,,,,
,,,,,,,,2023-08-16_08h21.11.026,HF_wild_card,2022.2.4,Win32,60.17209218,5ed2717aec79fd1d3ca47d65,64d2fd46c836a06233681665,64dc78d195e0db63318b8b27,,,,,,,ctch,resources/DG.BMP,resources/DBN.BMP,Door4,-0.283691406,-0.018229187,1,0,0,0.6658,optionLeft,80,9355,4,38,0,38,0,1,,,,,,,,,,,,,,,,,,,,,,,,,,,,,,,,,,,,,,,
,,,,,,,,2023-08-16_08h21.11.026,HF_wild_card,2022.2.4,Win32,60.17209218,5ed2717aec79fd1d3ca47d65,64d2fd46c836a06233681665,64dc78d195e0db63318b8b27,,,,,,,sngl,resources/Empty.png,resources/DR.BMP,WildCard_Ex,0.24625659,-0.037760437,1,0,0,0.7648,optionRight,45,9400,4,39,0,39,0,1,,,,,,,,,,,,,,,,,,,,,,,,,,,,,,,,,,,,,,,
,,,,,,,,2023-08-16_08h21.11.026,HF_wild_card,2022.2.4,Win32,60.17209218,5ed2717aec79fd1d3ca47d65,64d2fd46c836a06233681665,64dc78d195e0db63318b8b27,,,,,,,sngl,resources/DR.BMP,resources/Empty.png,WildCard_Ex,-0.21858722,-0.02734375,1,0,0,0.7698,optionLeft,55,9455,4,40,0,40,0,1,,,,,,,,,,,,,,,,,,,,,,,,,,,,,,,,,,,,,,,
,,,,,,,,2023-08-16_08h21.11.026,HF_wild_card,2022.2.4,Win32,60.17209218,5ed2717aec79fd1d3ca47d65,64d2fd46c836a06233681665,64dc78d195e0db63318b8b27,,,,,,,sngl,resources/Empty.png,resources/DR.BMP,WildCard_Ex,0.235839844,-0.0390625,1,0,0,0.765,optionRight,55,9510,4,41,0,41,0,1,,,,,,,,,,,,,,,,,,,,,,,,,,,,,,,,,,,,,,,
,,,,,,,,2023-08-16_08h21.11.026,HF_wild_card,2022.2.4,Win32,60.17209218,5ed2717aec79fd1d3ca47d65,64d2fd46c836a06233681665,64dc78d195e0db63318b8b27,,,,,,,decisionTrl,resources/DP.BMP,resources/DG.BMP,Door4,0.23453784,-0.04296875,1,0,0,1.2649,optionRight,80,9590,4,42,0,42,0,1,,,,,,,,,,,,,,,,,,,,,,,,,,,,,,,,,,,,,,,
,,,,,,,,2023-08-16_08h21.11.026,HF_wild_card,2022.2.4,Win32,60.17209218,5ed2717aec79fd1d3ca47d65,64d2fd46c836a06233681665,64dc78d195e0db63318b8b27,,,,,,,sngl,resources/DBN.BMP,resources/Empty.png,Door1,-0.12093097,-0.028645873,1,0,0,1.0416,optionLeft,30,9620,4,43,0,43,0,1,,,,,,,,,,,,,,,,,,,,,,,,,,,,,,,,,,,,,,,
,,,,,,,,2023-08-16_08h21.11.026,HF_wild_card,2022.2.4,Win32,60.17209218,5ed2717aec79fd1d3ca47d65,64d2fd46c836a06233681665,64dc78d195e0db63318b8b27,,,,,,,,,,,,,,,,,,,,,,,,,,3,0,3,0,1,,,,,,,,,,,,,,,,,,,,,,,,,,,,,,,,,,
,,,,,,,,2023-08-16_08h21.11.026,HF_wild_card,2022.2.4,Win32,60.17209218,5ed2717aec79fd1d3ca47d65,64d2fd46c836a06233681665,64dc78d195e0db63318b8b27,,,,,,,ctch,resources/DB.BMP,resources/DP.BMP,Door3,0.260579467,-0.126302123,1,0,0,0.9902,optionRight,70,9690,5,0,0,0,0,1,,,,,,,,,,,,,,,,,,,,,,,,,,,,,,,,,,,,,,,
,,,,,,,,2023-08-16_08h21.11.026,HF_wild_card,2022.2.4,Win32,60.17209218,5ed2717aec79fd1d3ca47d65,64d2fd46c836a06233681665,64dc78d195e0db63318b8b27,,,,,,,ctch,resources/DB.BMP,resources/DP.BMP,Door2,-0.26936847,-0.053385437,1,0,0,2.4752,optionLeft,40,9730,5,1,0,1,0,1,,,,,,,,,,,,,,,,,,,,,,,,,,,,,,,,,,,,,,,
,,,,,,,,2023-08-16_08h21.11.026,HF_wild_card,2022.2.4,Win32,60.17209218,5ed2717aec79fd1d3ca47d65,64d2fd46c836a06233681665,64dc78d195e0db63318b8b27,,,,,,,ctch,resources/DG.BMP,resources/DBN.BMP,Door4,-0.26546222,-0.044270873,1,0,0,0.7804,optionLeft,80,9810,5,2,0,2,0,1,,,,,,,,,,,,,,,,,,,,,,,,,,,,,,,,,,,,,,,
,,,,,,,,2023-08-16_08h21.11.026,HF_wild_card,2022.2.4,Win32,60.17209218,5ed2717aec79fd1d3ca47d65,64d2fd46c836a06233681665,64dc78d195e0db63318b8b27,,,,,,,sngl,resources/DR.BMP,resources/Empty.png,WildCard_Ex,-0.231608033,-0.022135437,1,0,0,1.0633,optionLeft,45,9855,5,3,0,3,0,1,,,,,,,,,,,,,,,,,,,,,,,,,,,,,,,,,,,,,,,
,,,,,,,,2023-08-16_08h21.11.026,HF_wild_card,2022.2.4,Win32,60.17209218,5ed2717aec79fd1d3ca47d65,64d2fd46c836a06233681665,64dc78d195e0db63318b8b27,,,,,,,decisionTrl,resources/DR.BMP,resources/DG.BMP,Door4,0.26969409,-0.052083373,1,0,0,1.1828,optionRight,80,9935,5,4,0,4,0,1,,,,,,,,,,,,,,,,,,,,,,,,,,,,,,,,,,,,,,,
,,,,,,,,2023-08-16_08h21.11.026,HF_wild_card,2022.2.4,Win32,60.17209218,5ed2717aec79fd1d3ca47d65,64d2fd46c836a06233681665,64dc78d195e0db63318b8b27,,,,,,,ctch,resources/DG.BMP,resources/DBN.BMP,Door4,-0.24983722,-0.028645873,1,0,0,0.7634,optionLeft,60,9995,5,5,0,5,0,1,,,,,,,,,,,,,,,,,,,,,,,,,,,,,,,,,,,,,,,
,,,,,,,,2023-08-16_08h21.11.026,HF_wild_card,2022.2.4,Win32,60.17209218,5ed2717aec79fd1d3ca47d65,64d2fd46c836a06233681665,64dc78d195e0db63318b8b27,,,,,,,decisionTrl,resources/DP.BMP,resources/DR.BMP,Door3,-0.258951783,-0.040364623,1,0,0,0.6988,optionLeft,70,10065,5,6,0,6,0,1,,,,,,,,,,,,,,,,,,,,,,,,,,,,,,,,,,,,,,,
,,,,,,,,2023-08-16_08h21.11.026,HF_wild_card,2022.2.4,Win32,60.17209218,5ed2717aec79fd1d3ca47d65,64d2fd46c836a06233681665,64dc78d195e0db63318b8b27,,,,,,,decisionTrl,resources/DP.BMP,resources/DG.BMP,Door4,0.182454467,-0.069010437,1,0,0,1.766,optionRight,60,10125,5,7,0,7,0,1,,,,,,,,,,,,,,,,,,,,,,,,,,,,,,,,,,,,,,,
,,,,,,,,2023-08-16_08h21.11.026,HF_wild_card,2022.2.4,Win32,60.17209218,5ed2717aec79fd1d3ca47d65,64d2fd46c836a06233681665,64dc78d195e0db63318b8b27,,,,,,,decisionTrl,resources/DBN.BMP,resources/DB.BMP,Door2,0.15250659,0.006510407,1,0,0,0.852,optionRight,20,10145,5,8,0,8,0,1,,,,,,,,,,,,,,,,,,,,,,,,,,,,,,,,,,,,,,,
,,,,,,,,2023-08-16_08h21.11.026,HF_wild_card,2022.2.4,Win32,60.17209218,5ed2717aec79fd1d3ca47d65,64d2fd46c836a06233681665,64dc78d195e0db63318b8b27,,,,,,,decisionTrl,resources/DB.BMP,resources/DBN.BMP,Door2,-0.266764283,-0.0078125,1,0,0,0.8409,optionLeft,20,10165,5,9,0,9,0,1,,,,,,,,,,,,,,,,,,,,,,,,,,,,,,,,,,,,,,,
,,,,,,,,2023-08-16_08h21.11.026,HF_wild_card,2022.2.4,Win32,60.17209218,5ed2717aec79fd1d3ca47d65,64d2fd46c836a06233681665,64dc78d195e0db63318b8b27,,,,,,,sngl,resources/Empty.png,resources/DG.BMP,Door4,0.334798217,-0.055989623,1,0,0,0.703,optionRight,60,10225,5,10,0,10,0,1,,,,,,,,,,,,,,,,,,,,,,,,,,,,,,,,,,,,,,,
,,,,,,,,2023-08-16_08h21.11.026,HF_wild_card,2022.2.4,Win32,60.17209218,5ed2717aec79fd1d3ca47d65,64d2fd46c836a06233681665,64dc78d195e0db63318b8b27,,,,,,,sngl,resources/Empty.png,resources/DR.BMP,WildCard_Ex,0.290527344,-0.05078125,1,0,0,0.7493,optionRight,55,10280,5,11,0,11,0,1,,,,,,,,,,,,,,,,,,,,,,,,,,,,,,,,,,,,,,,
,,,,,,,,2023-08-16_08h21.11.026,HF_wild_card,2022.2.4,Win32,60.17209218,5ed2717aec79fd1d3ca47d65,64d2fd46c836a06233681665,64dc78d195e0db63318b8b27,,,,,,,decisionTrl,resources/DB.BMP,resources/DBN.BMP,Door2,-0.244628906,-0.01171875,1,0,0,1.508,optionLeft,20,10300,5,12,0,12,0,1,,,,,,,,,,,,,,,,,,,,,,,,,,,,,,,,,,,,,,,
,,,,,,,,2023-08-16_08h21.11.026,HF_wild_card,2022.2.4,Win32,60.17209218,5ed2717aec79fd1d3ca47d65,64d2fd46c836a06233681665,64dc78d195e0db63318b8b27,,,,,,,decisionTrl,resources/DB.BMP,resources/DBN.BMP,Door1,0.276204467,-0.040364623,1,0,0,0.6601,optionRight,30,10330,5,13,0,13,0,1,,,,,,,,,,,,,,,,,,,,,,,,,,,,,,,,,,,,,,,
,,,,,,,,2023-08-16_08h21.11.026,HF_wild_card,2022.2.4,Win32,60.17209218,5ed2717aec79fd1d3ca47d65,64d2fd46c836a06233681665,64dc78d195e0db63318b8b27,,,,,,,decisionTrl,resources/DP.BMP,resources/DG.BMP,Door4,0.27360034,-0.046875,1,0,0,1.1641,optionRight,60,10390,5,14,0,14,0,1,,,,,,,,,,,,,,,,,,,,,,,,,,,,,,,,,,,,,,,
,,,,,,,,2023-08-16_08h21.11.026,HF_wild_card,2022.2.4,Win32,60.17209218,5ed2717aec79fd1d3ca47d65,64d2fd46c836a06233681665,64dc78d195e0db63318b8b27,,,,,,,decisionTrl,resources/DP.BMP,resources/DG.BMP,Door4,0.346516967,-0.067708373,1,0,0,0.5916,optionRight,80,10470,5,15,0,15,0,1,,,,,,,,,,,,,,,,,,,,,,,,,,,,,,,,,,,,,,,
,,,,,,,,2023-08-16_08h21.11.026,HF_wild_card,2022.2.4,Win32,60.17209218,5ed2717aec79fd1d3ca47d65,64d2fd46c836a06233681665,64dc78d195e0db63318b8b27,,,,,,,decisionTrl,resources/DBN.BMP,resources/DB.BMP,Door2,0.274902344,-0.05859375,1,0,0,0.9198,optionRight,20,10490,5,16,0,16,0,1,,,,,,,,,,,,,,,,,,,,,,,,,,,,,,,,,,,,,,,
,,,,,,,,2023-08-16_08h21.11.026,HF_wild_card,2022.2.4,Win32,60.17209218,5ed2717aec79fd1d3ca47d65,64d2fd46c836a06233681665,64dc78d195e0db63318b8b27,,,,,,,sngl,resources/DG.BMP,resources/Empty.png,Door4,-0.189941406,-0.033854187,1,0,0,0.7315,optionLeft,80,10570,5,17,0,17,0,1,,,,,,,,,,,,,,,,,,,,,,,,,,,,,,,,,,,,,,,
,,,,,,,,2023-08-16_08h21.11.026,HF_wild_card,2022.2.4,Win32,60.17209218,5ed2717aec79fd1d3ca47d65,64d2fd46c836a06233681665,64dc78d195e0db63318b8b27,,,,,,,decisionTrl,resources/DR.BMP,resources/DBN.BMP,WildCard_Ex,-0.133951783,-0.0546875,1,0,0,1.4412,optionLeft,45,10615,5,18,0,18,0,1,,,,,,,,,,,,,,,,,,,,,,,,,,,,,,,,,,,,,,,
,,,,,,,,2023-08-16_08h21.11.026,HF_wild_card,2022.2.4,Win32,60.17209218,5ed2717aec79fd1d3ca47d65,64d2fd46c836a06233681665,64dc78d195e0db63318b8b27,,,,,,,decisionTrl,resources/DG.BMP,resources/DP.BMP,Door3,0.25797534,-0.072916687,1,0,0,0.9153,optionRight,70,10685,5,19,0,19,0,1,,,,,,,,,,,,,,,,,,,,,,,,,,,,,,,,,,,,,,,
,,,,,,,,2023-08-16_08h21.11.026,HF_wild_card,2022.2.4,Win32,60.17209218,5ed2717aec79fd1d3ca47d65,64d2fd46c836a06233681665,64dc78d195e0db63318b8b27,,,,,,,ctch,resources/DP.BMP,resources/DB.BMP,Door3,-0.290201783,-0.033854187,1,0,0,1.1303,optionLeft,70,10755,5,20,0,20,0,1,,,,,,,,,,,,,,,,,,,,,,,,,,,,,,,,,,,,,,,
,,,,,,,,2023-08-16_08h21.11.026,HF_wild_card,2022.2.4,Win32,60.17209218,5ed2717aec79fd1d3ca47d65,64d2fd46c836a06233681665,64dc78d195e0db63318b8b27,,,,,,,decisionTrl,resources/DBN.BMP,resources/DB.BMP,Door2,0.306152344,-0.067708373,1,0,0,1.1251,optionRight,40,10795,5,21,0,21,0,1,,,,,,,,,,,,,,,,,,,,,,,,,,,,,,,,,,,,,,,
,,,,,,,,2023-08-16_08h21.11.026,HF_wild_card,2022.2.4,Win32,60.17209218,5ed2717aec79fd1d3ca47d65,64d2fd46c836a06233681665,64dc78d195e0db63318b8b27,,,,,,,decisionTrl,resources/DR.BMP,resources/DB.BMP,Door2,0.170735717,-0.057291687,1,0,0,1.5583,optionRight,40,10835,5,22,0,22,0,1,,,,,,,,,,,,,,,,,,,,,,,,,,,,,,,,,,,,,,,
,,,,,,,,2023-08-16_08h21.11.026,HF_wild_card,2022.2.4,Win32,60.17209218,5ed2717aec79fd1d3ca47d65,64d2fd46c836a06233681665,64dc78d195e0db63318b8b27,,,,,,,sngl,resources/Empty.png,resources/DB.BMP,Door2,0.241048217,-0.0546875,1,0,0,0.7154,optionRight,20,10855,5,23,0,23,0,1,,,,,,,,,,,,,,,,,,,,,,,,,,,,,,,,,,,,,,,
,,,,,,,,2023-08-16_08h21.11.026,HF_wild_card,2022.2.4,Win32,60.17209218,5ed2717aec79fd1d3ca47d65,64d2fd46c836a06233681665,64dc78d195e0db63318b8b27,,,,,,,decisionTrl,resources/DBN.BMP,resources/DR.BMP,WildCard_Ex,0.21110034,-0.055989623,1,0,0,0.8373,optionRight,45,10900,5,24,0,24,0,1,,,,,,,,,,,,,,,,,,,,,,,,,,,,,,,,,,,,,,,
,,,,,,,,2023-08-16_08h21.11.026,HF_wild_card,2022.2.4,Win32,60.17209218,5ed2717aec79fd1d3ca47d65,64d2fd46c836a06233681665,64dc78d195e0db63318b8b27,,,,,,,sngl,resources/DP.BMP,resources/Empty.png,Door3,-0.244628906,-0.044270873,1,0,0,0.7139,optionLeft,70,10970,5,25,0,25,0,1,,,,,,,,,,,,,,,,,,,,,,,,,,,,,,,,,,,,,,,
,,,,,,,,2023-08-16_08h21.11.026,HF_wild_card,2022.2.4,Win32,60.17209218,5ed2717aec79fd1d3ca47d65,64d2fd46c836a06233681665,64dc78d195e0db63318b8b27,,,,,,,ctch,resources/DBN.BMP,resources/DG.BMP,Door4,0.373860717,-0.08984375,1,0,0,0.7156,optionRight,80,11050,5,26,0,26,0,1,,,,,,,,,,,,,,,,,,,,,,,,,,,,,,,,,,,,,,,
,,,,,,,,2023-08-16_08h21.11.026,HF_wild_card,2022.2.4,Win32,60.17209218,5ed2717aec79fd1d3ca47d65,64d2fd46c836a06233681665,64dc78d195e0db63318b8b27,,,,,,,decisionTrl,resources/DG.BMP,resources/DP.BMP,Door3,0.201985717,-0.072916687,1,0,0,1.8611,optionRight,70,11120,5,27,0,27,0,1,,,,,,,,,,,,,,,,,,,,,,,,,,,,,,,,,,,,,,,
,,,,,,,,2023-08-16_08h21.11.026,HF_wild_card,2022.2.4,Win32,60.17209218,5ed2717aec79fd1d3ca47d65,64d2fd46c836a06233681665,64dc78d195e0db63318b8b27,,,,,,,sngl,resources/DBN.BMP,resources/Empty.png,Door1,-0.154785156,-0.069010437,1,0,0,0.7966,optionLeft,30,11150,5,28,0,28,0,1,,,,,,,,,,,,,,,,,,,,,,,,,,,,,,,,,,,,,,,
,,,,,,,,2023-08-16_08h21.11.026,HF_wild_card,2022.2.4,Win32,60.17209218,5ed2717aec79fd1d3ca47d65,64d2fd46c836a06233681665,64dc78d195e0db63318b8b27,,,,,,,ctch,resources/DBN.BMP,resources/DG.BMP,Door4,0.310058594,-0.06640625,1,0,0,0.8086,optionRight,60,11210,5,29,0,29,0,1,,,,,,,,,,,,,,,,,,,,,,,,,,,,,,,,,,,,,,,
,,,,,,,,2023-08-16_08h21.11.026,HF_wild_card,2022.2.4,Win32,60.17209218,5ed2717aec79fd1d3ca47d65,64d2fd46c836a06233681665,64dc78d195e0db63318b8b27,,,,,,,decisionTrl,resources/DB.BMP,resources/DR.BMP,Door2,-0.188639283,-0.059895873,1,0,0,2.0486,optionLeft,40,11250,5,30,0,30,0,1,,,,,,,,,,,,,,,,,,,,,,,,,,,,,,,,,,,,,,,
,,,,,,,,2023-08-16_08h21.11.026,HF_wild_card,2022.2.4,Win32,60.17209218,5ed2717aec79fd1d3ca47d65,64d2fd46c836a06233681665,64dc78d195e0db63318b8b27,,,,,,,decisionTrl,resources/DR.BMP,resources/DP.BMP,Door3,0.342610717,-0.072916687,1,0,0,1.2159,optionRight,70,11320,5,31,0,31,0,1,,,,,,,,,,,,,,,,,,,,,,,,,,,,,,,,,,,,,,,
,,,,,,,,2023-08-16_08h21.11.026,HF_wild_card,2022.2.4,Win32,60.17209218,5ed2717aec79fd1d3ca47d65,64d2fd46c836a06233681665,64dc78d195e0db63318b8b27,,,,,,,sngl,resources/Empty.png,resources/DP.BMP,Door3,0.272298217,-0.072916687,1,0,0,0.6137,optionRight,70,11390,5,32,0,32,0,1,,,,,,,,,,,,,,,,,,,,,,,,,,,,,,,,,,,,,,,
,,,,,,,,2023-08-16_08h21.11.026,HF_wild_card,2022.2.4,Win32,60.17209218,5ed2717aec79fd1d3ca47d65,64d2fd46c836a06233681665,64dc78d195e0db63318b8b27,,,,,,,sngl,resources/Empty.png,resources/DR.BMP,WildCard_Ex,0.299641967,-0.063802123,1,0,0,0.8925,optionRight,45,11435,5,33,0,33,0,1,,,,,,,,,,,,,,,,,,,,,,,,,,,,,,,,,,,,,,,
,,,,,,,,2023-08-16_08h21.11.026,HF_wild_card,2022.2.4,Win32,60.17209218,5ed2717aec79fd1d3ca47d65,64d2fd46c836a06233681665,64dc78d195e0db63318b8b27,,,,,,,decisionTrl,resources/DG.BMP,resources/DP.BMP,Door4,-0.23811847,-0.0078125,1,0,0,1.0309,optionLeft,60,11495,5,34,0,34,0,1,,,,,,,,,,,,,,,,,,,,,,,,,,,,,,,,,,,,,,,
,,,,,,,,2023-08-16_08h21.11.026,HF_wild_card,2022.2.4,Win32,60.17209218,5ed2717aec79fd1d3ca47d65,64d2fd46c836a06233681665,64dc78d195e0db63318b8b27,,,,,,,decisionTrl,resources/DG.BMP,resources/DR.BMP,Door4,-0.26546222,-0.001302123,1,0,0,0.6744,optionLeft,60,11555,5,35,0,35,0,1,,,,,,,,,,,,,,,,,,,,,,,,,,,,,,,,,,,,,,,
,,,,,,,,2023-08-16_08h21.11.026,HF_wild_card,2022.2.4,Win32,60.17209218,5ed2717aec79fd1d3ca47d65,64d2fd46c836a06233681665,64dc78d195e0db63318b8b27,,,,,,,decisionTrl,resources/DP.BMP,resources/DG.BMP,Door3,-0.235514283,-0.016927123,1,0,0,0.9153,optionLeft,70,11625,5,36,0,36,0,1,,,,,,,,,,,,,,,,,,,,,,,,,,,,,,,,,,,,,,,
,,,,,,,,2023-08-16_08h21.11.026,HF_wild_card,2022.2.4,Win32,60.17209218,5ed2717aec79fd1d3ca47d65,64d2fd46c836a06233681665,64dc78d195e0db63318b8b27,,,,,,,sngl,resources/DR.BMP,resources/Empty.png,WildCard_Ex,-0.19514972,-0.02734375,1,0,0,0.7741,optionLeft,55,11680,5,37,0,37,0,1,,,,,,,,,,,,,,,,,,,,,,,,,,,,,,,,,,,,,,,
,,,,,,,,2023-08-16_08h21.11.026,HF_wild_card,2022.2.4,Win32,60.17209218,5ed2717aec79fd1d3ca47d65,64d2fd46c836a06233681665,64dc78d195e0db63318b8b27,,,,,,,decisionTrl,resources/DG.BMP,resources/DP.BMP,Door3,0.313964844,-0.069010437,1,0,0,1.6411,optionRight,70,11750,5,38,0,38,0,1,,,,,,,,,,,,,,,,,,,,,,,,,,,,,,,,,,,,,,,
,,,,,,,,2023-08-16_08h21.11.026,HF_wild_card,2022.2.4,Win32,60.17209218,5ed2717aec79fd1d3ca47d65,64d2fd46c836a06233681665,64dc78d195e0db63318b8b27,,,,,,,sngl,resources/Empty.png,resources/DBN.BMP,Door1,0.274902344,-0.048177123,1,0,0,0.945,optionRight,30,11780,5,39,0,39,0,1,,,,,,,,,,,,,,,,,,,,,,,,,,,,,,,,,,,,,,,
,,,,,,,,2023-08-16_08h21.11.026,HF_wild_card,2022.2.4,Win32,60.17209218,5ed2717aec79fd1d3ca47d65,64d2fd46c836a06233681665,64dc78d195e0db63318b8b27,,,,,,,decisionTrl,resources/DBN.BMP,resources/DB.BMP,Door2,0.196777344,-0.045572937,1,0,0,1.1742,optionRight,40,11820,5,40,0,40,0,1,,,,,,,,,,,,,,,,,,,,,,,,,,,,,,,,,,,,,,,
,,,,,,,,2023-08-16_08h21.11.026,HF_wild_card,2022.2.4,Win32,60.17209218,5ed2717aec79fd1d3ca47d65,64d2fd46c836a06233681665,64dc78d195e0db63318b8b27,,,,,,,sngl,resources/DB.BMP,resources/Empty.png,Door2,-0.192545533,-0.002604187,1,0,0,0.8591,optionLeft,40,11860,5,41,0,41,0,1,,,,,,,,,,,,,,,,,,,,,,,,,,,,,,,,,,,,,,,
,,,,,,,,2023-08-16_08h21.11.026,HF_wild_card,2022.2.4,Win32,60.17209218,5ed2717aec79fd1d3ca47d65,64d2fd46c836a06233681665,64dc78d195e0db63318b8b27,,,,,,,decisionTrl,resources/DB.BMP,resources/DBN.BMP,Door2,-0.161295533,-0.002604187,1,0,0,0.8584,optionLeft,20,11880,5,42,0,42,0,1,,,,,,,,,,,,,,,,,,,,,,,,,,,,,,,,,,,,,,,
,,,,,,,,2023-08-16_08h21.11.026,HF_wild_card,2022.2.4,Win32,60.17209218,5ed2717aec79fd1d3ca47d65,64d2fd46c836a06233681665,64dc78d195e0db63318b8b27,,,,,,,ctch,resources/DP.BMP,resources/DB.BMP,Door3,-0.197753906,-0.002604187,1,0,0,0.9252,optionLeft,70,11950,5,43,0,43,0,1,,,,,,,,,,,,,,,,,,,,,,,,,,,,,,,,,,,,,,,
,,,,,,,,2023-08-16_08h21.11.026,HF_wild_card,2022.2.4,Win32,60.17209218,5ed2717aec79fd1d3ca47d65,64d2fd46c836a06233681665,64dc78d195e0db63318b8b27,,,,,,,,,,,,,,,,,,,,,,,,,,4,0,4,0,1,,,,,,,,,,,,,,,,,,,,,,,,,,,,,,,,,,
,,,,,,,,2023-08-16_08h21.11.026,HF_wild_card,2022.2.4,Win32,60.17209218,5ed2717aec79fd1d3ca47d65,64d2fd46c836a06233681665,64dc78d195e0db63318b8b27,,,,,,,sngl,resources/Empty.png,resources/DG.BMP,Door4,0.325683594,-0.122395873,1,0,0,0.6811,optionRight,80,12030,6,0,0,0,0,1,,,,,,,,,,,,,,,,,,,,,,,,,,,,,,,,,,,,,,,
,,,,,,,,2023-08-16_08h21.11.026,HF_wild_card,2022.2.4,Win32,60.17209218,5ed2717aec79fd1d3ca47d65,64d2fd46c836a06233681665,64dc78d195e0db63318b8b27,,,,,,,decisionTrl,resources/DB.BMP,resources/DBN.BMP,Door2,-0.287597656,-0.022135437,1,0,0,1.0852,optionLeft,40,12070,6,1,0,1,0,1,,,,,,,,,,,,,,,,,,,,,,,,,,,,,,,,,,,,,,,
,,,,,,,,2023-08-16_08h21.11.026,HF_wild_card,2022.2.4,Win32,60.17209218,5ed2717aec79fd1d3ca47d65,64d2fd46c836a06233681665,64dc78d195e0db63318b8b27,,,,,,,decisionTrl,resources/DP.BMP,resources/DG.BMP,Door3,-0.266764283,-0.01953125,1,0,0,1.1358,optionLeft,70,12140,6,2,0,2,0,1,,,,,,,,,,,,,,,,,,,,,,,,,,,,,,,,,,,,,,,
,,,,,,,,2023-08-16_08h21.11.026,HF_wild_card,2022.2.4,Win32,60.17209218,5ed2717aec79fd1d3ca47d65,64d2fd46c836a06233681665,64dc78d195e0db63318b8b27,,,,,,,decisionTrl,resources/DB.BMP,resources/DR.BMP,Door2,-0.231608033,-0.024739623,1,0,0,1.8252,optionLeft,40,12180,6,3,0,3,0,1,,,,,,,,,,,,,,,,,,,,,,,,,,,,,,,,,,,,,,,
,,,,,,,,2023-08-16_08h21.11.026,HF_wild_card,2022.2.4,Win32,60.17209218,5ed2717aec79fd1d3ca47d65,64d2fd46c836a06233681665,64dc78d195e0db63318b8b27,,,,,,,ctch,resources/DP.BMP,resources/DB.BMP,Door3,-0.19124347,-0.024739623,1,0,0,0.8864,optionLeft,70,12250,6,4,0,4,0,1,,,,,,,,,,,,,,,,,,,,,,,,,,,,,,,,,,,,,,,
,,,,,,,,2023-08-16_08h21.11.026,HF_wild_card,2022.2.4,Win32,60.17209218,5ed2717aec79fd1d3ca47d65,64d2fd46c836a06233681665,64dc78d195e0db63318b8b27,,,,,,,sngl,resources/DG.BMP,resources/Empty.png,Door4,-0.247233033,-0.04296875,1,0,0,0.7084,optionLeft,60,12310,6,5,0,5,0,1,,,,,,,,,,,,,,,,,,,,,,,,,,,,,,,,,,,,,,,
,,,,,,,,2023-08-16_08h21.11.026,HF_wild_card,2022.2.4,Win32,60.17209218,5ed2717aec79fd1d3ca47d65,64d2fd46c836a06233681665,64dc78d195e0db63318b8b27,,,,,,,ctch,resources/DG.BMP,resources/DBN.BMP,Door4,-0.251139283,-0.04296875,1,0,0,0.6919,optionLeft,60,12370,6,6,0,6,0,1,,,,,,,,,,,,,,,,,,,,,,,,,,,,,,,,,,,,,,,
,,,,,,,,2023-08-16_08h21.11.026,HF_wild_card,2022.2.4,Win32,60.17209218,5ed2717aec79fd1d3ca47d65,64d2fd46c836a06233681665,64dc78d195e0db63318b8b27,,,,,,,sngl,resources/Empty.png,resources/DB.BMP,Door2,0.212402344,-0.05859375,1,0,0,0.7819,optionRight,40,12410,6,7,0,7,0,1,,,,,,,,,,,,,,,,,,,,,,,,,,,,,,,,,,,,,,,
,,,,,,,,2023-08-16_08h21.11.026,HF_wild_card,2022.2.4,Win32,60.17209218,5ed2717aec79fd1d3ca47d65,64d2fd46c836a06233681665,64dc78d195e0db63318b8b27,,,,,,,decisionTrl,resources/DP.BMP,resources/DG.BMP,Door4,0.310058594,-0.067708373,1,0,0,1.0654,optionRight,60,12470,6,8,0,8,0,1,,,,,,,,,,,,,,,,,,,,,,,,,,,,,,,,,,,,,,,
,,,,,,,,2023-08-16_08h21.11.026,HF_wild_card,2022.2.4,Win32,60.17209218,5ed2717aec79fd1d3ca47d65,64d2fd46c836a06233681665,64dc78d195e0db63318b8b27,,,,,,,ctch,resources/DBN.BMP,resources/DG.BMP,Door4,0.23063159,-0.052083373,1,0,0,0.692,optionRight,60,12530,6,9,0,9,0,1,,,,,,,,,,,,,,,,,,,,,,,,,,,,,,,,,,,,,,,
,,,,,,,,2023-08-16_08h21.11.026,HF_wild_card,2022.2.4,Win32,60.17209218,5ed2717aec79fd1d3ca47d65,64d2fd46c836a06233681665,64dc78d195e0db63318b8b27,,,,,,,decisionTrl,resources/DG.BMP,resources/DP.BMP,Door3,0.315266967,-0.09375,1,0,0,1.0465,optionRight,70,12600,6,10,0,10,0,1,,,,,,,,,,,,,,,,,,,,,,,,,,,,,,,,,,,,,,,
,,,,,,,,2023-08-16_08h21.11.026,HF_wild_card,2022.2.4,Win32,60.17209218,5ed2717aec79fd1d3ca47d65,64d2fd46c836a06233681665,64dc78d195e0db63318b8b27,,,,,,,decisionTrl,resources/DG.BMP,resources/DP.BMP,Door3,0.33219409,-0.0546875,1,0,0,0.9309,optionRight,70,12670,6,11,0,11,0,1,,,,,,,,,,,,,,,,,,,,,,,,,,,,,,,,,,,,,,,
,,,,,,,,2023-08-16_08h21.11.026,HF_wild_card,2022.2.4,Win32,60.17209218,5ed2717aec79fd1d3ca47d65,64d2fd46c836a06233681665,64dc78d195e0db63318b8b27,,,,,,,ctch,resources/DP.BMP,resources/DB.BMP,Door3,-0.243326783,-0.029947937,1,0,0,0.8965,optionLeft,70,12740,6,12,0,12,0,1,,,,,,,,,,,,,,,,,,,,,,,,,,,,,,,,,,,,,,,
,,,,,,,,2023-08-16_08h21.11.026,HF_wild_card,2022.2.4,Win32,60.17209218,5ed2717aec79fd1d3ca47d65,64d2fd46c836a06233681665,64dc78d195e0db63318b8b27,,,,,,,decisionTrl,resources/DBN.BMP,resources/DB.BMP,Door2,0.264485717,-0.063802123,1,0,0,0.9484,optionRight,20,12760,6,13,0,13,0,1,,,,,,,,,,,,,,,,,,,,,,,,,,,,,,,,,,,,,,,
,,,,,,,,2023-08-16_08h21.11.026,HF_wild_card,2022.2.4,Win32,60.17209218,5ed2717aec79fd1d3ca47d65,64d2fd46c836a06233681665,64dc78d195e0db63318b8b27,,,,,,,decisionTrl,resources/DR.BMP,resources/DP.BMP,Door3,0.229329467,-0.05078125,1,0,0,1.2797,optionRight,70,12830,6,14,0,14,0,1,,,,,,,,,,,,,,,,,,,,,,,,,,,,,,,,,,,,,,,
,,,,,,,,2023-08-16_08h21.11.026,HF_wild_card,2022.2.4,Win32,60.17209218,5ed2717aec79fd1d3ca47d65,64d2fd46c836a06233681665,64dc78d195e0db63318b8b27,,,,,,,ctch,resources/DG.BMP,resources/DBN.BMP,Door4,-0.239420533,-0.014322937,1,0,0,0.7638,optionLeft,80,12910,6,15,0,15,0,1,,,,,,,,,,,,,,,,,,,,,,,,,,,,,,,,,,,,,,,
,,,,,,,,2023-08-16_08h21.11.026,HF_wild_card,2022.2.4,Win32,60.17209218,5ed2717aec79fd1d3ca47d65,64d2fd46c836a06233681665,64dc78d195e0db63318b8b27,,,,,,,decisionTrl,resources/DB.BMP,resources/DBN.BMP,Door2,-0.15999347,-0.002604187,1,0,0,1.3927,optionLeft,20,12930,6,16,0,16,0,1,,,,,,,,,,,,,,,,,,,,,,,,,,,,,,,,,,,,,,,
,,,,,,,,2023-08-16_08h21.11.026,HF_wild_card,2022.2.4,Win32,60.17209218,5ed2717aec79fd1d3ca47d65,64d2fd46c836a06233681665,64dc78d195e0db63318b8b27,,,,,,,ctch,resources/DBN.BMP,resources/DG.BMP,Door4,0.35563159,-0.028645873,1,0,0,0.7414,optionRight,80,13010,6,17,0,17,0,1,,,,,,,,,,,,,,,,,,,,,,,,,,,,,,,,,,,,,,,
,,,,,,,,2023-08-16_08h21.11.026,HF_wild_card,2022.2.4,Win32,60.17209218,5ed2717aec79fd1d3ca47d65,64d2fd46c836a06233681665,64dc78d195e0db63318b8b27,,,,,,,sngl,resources/Empty.png,resources/DR.BMP,WildCard_Ex,0.21891284,-0.049479187,1,0,0,0.8292,optionRight,45,13055,6,18,0,18,0,1,,,,,,,,,,,,,,,,,,,,,,,,,,,,,,,,,,,,,,,
,,,,,,,,2023-08-16_08h21.11.026,HF_wild_card,2022.2.4,Win32,60.17209218,5ed2717aec79fd1d3ca47d65,64d2fd46c836a06233681665,64dc78d195e0db63318b8b27,,,,,,,sngl,resources/DB.BMP,resources/Empty.png,Door2,-0.14436847,-0.015625,1,0,0,0.8304,optionLeft,20,13075,6,19,0,19,0,1,,,,,,,,,,,,,,,,,,,,,,,,,,,,,,,,,,,,,,,
,,,,,,,,2023-08-16_08h21.11.026,HF_wild_card,2022.2.4,Win32,60.17209218,5ed2717aec79fd1d3ca47d65,64d2fd46c836a06233681665,64dc78d195e0db63318b8b27,,,,,,,decisionTrl,resources/DG.BMP,resources/DR.BMP,Door4,-0.176920533,-0.01171875,1,0,0,0.7903,optionLeft,80,13155,6,20,0,20,0,1,,,,,,,,,,,,,,,,,,,,,,,,,,,,,,,,,,,,,,,
,,,,,,,,2023-08-16_08h21.11.026,HF_wild_card,2022.2.4,Win32,60.17209218,5ed2717aec79fd1d3ca47d65,64d2fd46c836a06233681665,64dc78d195e0db63318b8b27,,,,,,,decisionTrl,resources/DBN.BMP,resources/DB.BMP,Door2,0.30094409,-0.037760437,1,0,0,0.7439,optionRight,20,13175,6,21,0,21,0,1,,,,,,,,,,,,,,,,,,,,,,,,,,,,,,,,,,,,,,,
,,,,,,,,2023-08-16_08h21.11.026,HF_wild_card,2022.2.4,Win32,60.17209218,5ed2717aec79fd1d3ca47d65,64d2fd46c836a06233681665,64dc78d195e0db63318b8b27,,,,,,,decisionTrl,resources/DR.BMP,resources/DBN.BMP,WildCard_Ex,-0.12874347,-0.045572937,1,0,0,1.1318,optionLeft,55,13230,6,22,0,22,0,1,,,,,,,,,,,,,,,,,,,,,,,,,,,,,,,,,,,,,,,
,,,,,,,,2023-08-16_08h21.11.026,HF_wild_card,2022.2.4,Win32,60.17209218,5ed2717aec79fd1d3ca47d65,64d2fd46c836a06233681665,64dc78d195e0db63318b8b27,,,,,,,ctch,resources/DB.BMP,resources/DP.BMP,Door3,0.29703784,-0.095052123,1,0,0,0.9155,optionRight,70,13300,6,23,0,23,0,1,,,,,,,,,,,,,,,,,,,,,,,,,,,,,,,,,,,,,,,
,,,,,,,,2023-08-16_08h21.11.026,HF_wild_card,2022.2.4,Win32,60.17209218,5ed2717aec79fd1d3ca47d65,64d2fd46c836a06233681665,64dc78d195e0db63318b8b27,,,,,,,decisionTrl,resources/DR.BMP,resources/DG.BMP,Door4,0.155110717,-0.09765625,1,0,0,0.8532,optionRight,80,13380,6,24,0,24,0,1,,,,,,,,,,,,,,,,,,,,,,,,,,,,,,,,,,,,,,,
,,,,,,,,2023-08-16_08h21.11.026,HF_wild_card,2022.2.4,Win32,60.17209218,5ed2717aec79fd1d3ca47d65,64d2fd46c836a06233681665,64dc78d195e0db63318b8b27,,,,,,,ctch,resources/DB.BMP,resources/DP.BMP,Door3,0.235839844,-0.126302123,1,0,0,0.9031,optionRight,70,13450,6,25,0,25,0,1,,,,,,,,,,,,,,,,,,,,,,,,,,,,,,,,,,,,,,,
,,,,,,,,2023-08-16_08h21.11.026,HF_wild_card,2022.2.4,Win32,60.17209218,5ed2717aec79fd1d3ca47d65,64d2fd46c836a06233681665,64dc78d195e0db63318b8b27,,,,,,,sngl,resources/DBN.BMP,resources/Empty.png,Door1,-0.15218097,-0.0546875,1,0,0,0.7759,optionLeft,30,13480,6,26,0,26,0,1,,,,,,,,,,,,,,,,,,,,,,,,,,,,,,,,,,,,,,,
,,,,,,,,2023-08-16_08h21.11.026,HF_wild_card,2022.2.4,Win32,60.17209218,5ed2717aec79fd1d3ca47d65,64d2fd46c836a06233681665,64dc78d195e0db63318b8b27,,,,,,,decisionTrl,resources/DB.BMP,resources/DBN.BMP,Door2,-0.298014283,-0.048177123,1,0,0,1.141,optionLeft,40,13520,6,27,0,27,0,1,,,,,,,,,,,,,,,,,,,,,,,,,,,,,,,,,,,,,,,
,,,,,,,,2023-08-16_08h21.11.026,HF_wild_card,2022.2.4,Win32,60.17209218,5ed2717aec79fd1d3ca47d65,64d2fd46c836a06233681665,64dc78d195e0db63318b8b27,,,,,,,sngl,resources/DR.BMP,resources/Empty.png,WildCard_Ex,-0.23811847,-0.01953125,1,0,0,1.0629,optionLeft,45,13565,6,28,0,28,0,1,,,,,,,,,,,,,,,,,,,,,,,,,,,,,,,,,,,,,,,
,,,,,,,,2023-08-16_08h21.11.026,HF_wild_card,2022.2.4,Win32,60.17209218,5ed2717aec79fd1d3ca47d65,64d2fd46c836a06233681665,64dc78d195e0db63318b8b27,,,,,,,decisionTrl,resources/DBN.BMP,resources/DB.BMP,Door2,0.185058594,-0.084635437,1,0,0,1.2354,optionRight,40,13605,6,29,0,29,0,1,,,,,,,,,,,,,,,,,,,,,,,,,,,,,,,,,,,,,,,
,,,,,,,,2023-08-16_08h21.11.026,HF_wild_card,2022.2.4,Win32,60.17209218,5ed2717aec79fd1d3ca47d65,64d2fd46c836a06233681665,64dc78d195e0db63318b8b27,,,,,,,sngl,resources/Empty.png,resources/DBN.BMP,Door1,0.173339844,-0.06640625,1,0,0,0.792,optionRight,30,13635,6,30,0,30,0,1,,,,,,,,,,,,,,,,,,,,,,,,,,,,,,,,,,,,,,,
,,,,,,,,2023-08-16_08h21.11.026,HF_wild_card,2022.2.4,Win32,60.17209218,5ed2717aec79fd1d3ca47d65,64d2fd46c836a06233681665,64dc78d195e0db63318b8b27,,,,,,,sngl,resources/DR.BMP,resources/Empty.png,WildCard_Ex,-0.251139283,-0.05859375,1,0,0,0.7134,optionLeft,55,13690,6,31,0,31,0,1,,,,,,,,,,,,,,,,,,,,,,,,,,,,,,,,,,,,,,,
,,,,,,,,2023-08-16_08h21.11.026,HF_wild_card,2022.2.4,Win32,60.17209218,5ed2717aec79fd1d3ca47d65,64d2fd46c836a06233681665,64dc78d195e0db63318b8b27,,,,,,,decisionTrl,resources/DP.BMP,resources/DR.BMP,Door3,-0.26155597,-0.061197937,1,0,0,1.165,optionLeft,70,13760,6,32,0,32,0,1,,,,,,,,,,,,,,,,,,,,,,,,,,,,,,,,,,,,,,,
,,,,,,,,2023-08-16_08h21.11.026,HF_wild_card,2022.2.4,Win32,60.17209218,5ed2717aec79fd1d3ca47d65,64d2fd46c836a06233681665,64dc78d195e0db63318b8b27,,,,,,,sngl,resources/Empty.png,resources/DP.BMP,Door3,0.29313159,-0.127604187,1,0,0,0.7252,optionRight,70,13830,6,33,0,33,0,1,,,,,,,,,,,,,,,,,,,,,,,,,,,,,,,,,,,,,,,
,,,,,,,,2023-08-16_08h21.11.026,HF_wild_card,2022.2.4,Win32,60.17209218,5ed2717aec79fd1d3ca47d65,64d2fd46c836a06233681665,64dc78d195e0db63318b8b27,,,,,,,decisionTrl,resources/DG.BMP,resources/DP.BMP,Door4,-0.28108722,-0.072916687,1,0,0,0.6816,optionLeft,80,13910,6,34,0,34,0,1,,,,,,,,,,,,,,,,,,,,,,,,,,,,,,,,,,,,,,,
,,,,,,,,2023-08-16_08h21.11.026,HF_wild_card,2022.2.4,Win32,60.17209218,5ed2717aec79fd1d3ca47d65,64d2fd46c836a06233681665,64dc78d195e0db63318b8b27,,,,,,,sngl,resources/Empty.png,resources/DR.BMP,WildCard_Ex,0.260579467,-0.0703125,1,0,0,0.7366,optionRight,55,13965,6,35,0,35,0,1,,,,,,,,,,,,,,,,,,,,,,,,,,,,,,,,,,,,,,,
,,,,,,,,2023-08-16_08h21.11.026,HF_wild_card,2022.2.4,Win32,60.17209218,5ed2717aec79fd1d3ca47d65,64d2fd46c836a06233681665,64dc78d195e0db63318b8b27,,,,,,,decisionTrl,resources/DP.BMP,resources/DG.BMP,Door4,0.264485717,-0.076822937,1,0,0,1.1827,optionRight,60,14025,6,36,0,36,0,1,,,,,,,,,,,,,,,,,,,,,,,,,,,,,,,,,,,,,,,
,,,,,,,,2023-08-16_08h21.11.026,HF_wild_card,2022.2.4,Win32,60.17209218,5ed2717aec79fd1d3ca47d65,64d2fd46c836a06233681665,64dc78d195e0db63318b8b27,,,,,,,decisionTrl,resources/DR.BMP,resources/DB.BMP,WildCard_Ex,-0.357910156,-0.040364623,1,0,0,1.763,optionLeft,55,14080,6,37,0,37,0,1,,,,,,,,,,,,,,,,,,,,,,,,,,,,,,,,,,,,,,,
,,,,,,,,2023-08-16_08h21.11.026,HF_wild_card,2022.2.4,Win32,60.17209218,5ed2717aec79fd1d3ca47d65,64d2fd46c836a06233681665,64dc78d195e0db63318b8b27,,,,,,,decisionTrl,resources/DB.BMP,resources/DBN.BMP,Door2,-0.290201783,-0.02734375,1,0,0,0.9453,optionLeft,20,14100,6,38,0,38,0,1,,,,,,,,,,,,,,,,,,,,,,,,,,,,,,,,,,,,,,,
,,,,,,,,2023-08-16_08h21.11.026,HF_wild_card,2022.2.4,Win32,60.17209218,5ed2717aec79fd1d3ca47d65,64d2fd46c836a06233681665,64dc78d195e0db63318b8b27,,,,,,,decisionTrl,resources/DBN.BMP,resources/DR.BMP,WildCard_Ex,0.24625659,-0.061197937,1,0,0,0.8744,optionRight,55,14155,6,39,0,39,0,1,,,,,,,,,,,,,,,,,,,,,,,,,,,,,,,,,,,,,,,
,,,,,,,,2023-08-16_08h21.11.026,HF_wild_card,2022.2.4,Win32,60.17209218,5ed2717aec79fd1d3ca47d65,64d2fd46c836a06233681665,64dc78d195e0db63318b8b27,,,,,,,decisionTrl,resources/DP.BMP,resources/DG.BMP,Door4,0.290527344,-0.0703125,1,0,0,0.9297,optionRight,80,14235,6,40,0,40,0,1,,,,,,,,,,,,,,,,,,,,,,,,,,,,,,,,,,,,,,,
,,,,,,,,2023-08-16_08h21.11.026,HF_wild_card,2022.2.4,Win32,60.17209218,5ed2717aec79fd1d3ca47d65,64d2fd46c836a06233681665,64dc78d195e0db63318b8b27,,,,,,,sngl,resources/DP.BMP,resources/Empty.png,Door3,-0.223795533,-0.049479187,1,0,0,0.7236,optionLeft,70,14305,6,41,0,41,0,1,,,,,,,,,,,,,,,,,,,,,,,,,,,,,,,,,,,,,,,
,,,,,,,,2023-08-16_08h21.11.026,HF_wild_card,2022.2.4,Win32,60.17209218,5ed2717aec79fd1d3ca47d65,64d2fd46c836a06233681665,64dc78d195e0db63318b8b27,,,,,,,decisionTrl,resources/DBN.BMP,resources/DB.BMP,Door2,0.313964844,-0.08203125,1,0,0,0.7649,optionRight,20,14325,6,42,0,42,0,1,,,,,,,,,,,,,,,,,,,,,,,,,,,,,,,,,,,,,,,
,,,,,,,,2023-08-16_08h21.11.026,HF_wild_card,2022.2.4,Win32,60.17209218,5ed2717aec79fd1d3ca47d65,64d2fd46c836a06233681665,64dc78d195e0db63318b8b27,,,,,,,decisionTrl,resources/DG.BMP,resources/DP.BMP,Door4,-0.25374347,-0.055989623,1,0,0,1.1253,optionLeft,60,14385,6,43,0,43,0,1,,,,,,,,,,,,,,,,,,,,,,,,,,,,,,,,,,,,,,,
,,,,,,,,2023-08-16_08h21.11.026,HF_wild_card,2022.2.4,Win32,60.17209218,5ed2717aec79fd1d3ca47d65,64d2fd46c836a06233681665,64dc78d195e0db63318b8b27,,,,,,,,,,,,,,,,,,,,,,,,,,5,0,5,0,1,,,,,,,,,,,,,,,,,,,,,,,,,,,,,,,,,,
,,,,,,,,2023-08-16_08h21.11.026,HF_wild_card,2022.2.4,Win32,60.17209218,5ed2717aec79fd1d3ca47d65,64d2fd46c836a06233681665,64dc78d195e0db63318b8b27,,,,,,,ctch,resources/DB.BMP,resources/DP.BMP,Door3,0.38297534,-0.118489623,1,0,0,1.3865,optionRight,70,14455,7,0,0,0,0,1,,,,,,,,,,,,,,,,,,,,,,,,,,,,,,,,,,,,,,,
,,,,,,,,2023-08-16_08h21.11.026,HF_wild_card,2022.2.4,Win32,60.17209218,5ed2717aec79fd1d3ca47d65,64d2fd46c836a06233681665,64dc78d195e0db63318b8b27,,,,,,,decisionTrl,resources/DBN.BMP,resources/DB.BMP,Door2,0.28141284,-0.0546875,1,0,0,1.0595,optionRight,40,14495,7,1,0,1,0,1,,,,,,,,,,,,,,,,,,,,,,,,,,,,,,,,,,,,,,,
,,,,,,,,2023-08-16_08h21.11.026,HF_wild_card,2022.2.4,Win32,60.17209218,5ed2717aec79fd1d3ca47d65,64d2fd46c836a06233681665,64dc78d195e0db63318b8b27,,,,,,,decisionTrl,resources/DBN.BMP,resources/DB.BMP,Door2,0.329589844,-0.067708373,1,0,0,0.7283,optionRight,40,14535,7,2,0,2,0,1,,,,,,,,,,,,,,,,,,,,,,,,,,,,,,,,,,,,,,,
,,,,,,,,2023-08-16_08h21.11.026,HF_wild_card,2022.2.4,Win32,60.17209218,5ed2717aec79fd1d3ca47d65,64d2fd46c836a06233681665,64dc78d195e0db63318b8b27,,,,,,,decisionTrl,resources/DP.BMP,resources/DG.BMP,Door4,0.373860717,-0.065104187,1,0,0,1.0261,optionRight,80,14615,7,3,0,3,0,1,,,,,,,,,,,,,,,,,,,,,,,,,,,,,,,,,,,,,,,
,,,,,,,,2023-08-16_08h21.11.026,HF_wild_card,2022.2.4,Win32,60.17209218,5ed2717aec79fd1d3ca47d65,64d2fd46c836a06233681665,64dc78d195e0db63318b8b27,,,,,,,decisionTrl,resources/DP.BMP,resources/DG.BMP,Door4,0.358235717,-0.08984375,1,0,0,0.6425,optionRight,60,14675,7,4,0,4,0,1,,,,,,,,,,,,,,,,,,,,,,,,,,,,,,,,,,,,,,,
,,,,,,,,2023-08-16_08h21.11.026,HF_wild_card,2022.2.4,Win32,60.17209218,5ed2717aec79fd1d3ca47d65,64d2fd46c836a06233681665,64dc78d195e0db63318b8b27,,,,,,,ctch,resources/DBN.BMP,resources/DG.BMP,Door4,0.338704467,-0.083333373,1,0,0,0.666,optionRight,60,14735,7,5,0,5,0,1,,,,,,,,,,,,,,,,,,,,,,,,,,,,,,,,,,,,,,,
,,,,,,,,2023-08-16_08h21.11.026,HF_wild_card,2022.2.4,Win32,60.17209218,5ed2717aec79fd1d3ca47d65,64d2fd46c836a06233681665,64dc78d195e0db63318b8b27,,,,,,,decisionTrl,resources/DB.BMP,resources/DBN.BMP,Door2,-0.217285156,-0.006510437,1,0,0,0.8805,optionLeft,40,14775,7,6,0,6,0,1,,,,,,,,,,,,,,,,,,,,,,,,,,,,,,,,,,,,,,,
,,,,,,,,2023-08-16_08h21.11.026,HF_wild_card,2022.2.4,Win32,60.17209218,5ed2717aec79fd1d3ca47d65,64d2fd46c836a06233681665,64dc78d195e0db63318b8b27,,,,,,,ctch,resources/DG.BMP,resources/DBN.BMP,Door4,-0.270670533,-0.015625,1,0,0,0.6934,optionLeft,80,14855,7,7,0,7,0,1,,,,,,,,,,,,,,,,,,,,,,,,,,,,,,,,,,,,,,,
,,,,,,,,2023-08-16_08h21.11.026,HF_wild_card,2022.2.4,Win32,60.17209218,5ed2717aec79fd1d3ca47d65,64d2fd46c836a06233681665,64dc78d195e0db63318b8b27,,,,,,,decisionTrl,resources/DG.BMP,resources/DP.BMP,Door3,0.272298217,-0.083333373,1,0,0,1.2665,optionRight,70,14925,7,8,0,8,0,1,,,,,,,,,,,,,,,,,,,,,,,,,,,,,,,,,,,,,,,
,,,,,,,,2023-08-16_08h21.11.026,HF_wild_card,2022.2.4,Win32,60.17209218,5ed2717aec79fd1d3ca47d65,64d2fd46c836a06233681665,64dc78d195e0db63318b8b27,,,,,,,ctch,resources/DG.BMP,resources/DBN.BMP,Door4,-0.223795533,-0.0078125,1,0,0,0.7195,optionLeft,60,14985,7,9,0,9,0,1,,,,,,,,,,,,,,,,,,,,,,,,,,,,,,,,,,,,,,,
,,,,,,,,2023-08-16_08h21.11.026,HF_wild_card,2022.2.4,Win32,60.17209218,5ed2717aec79fd1d3ca47d65,64d2fd46c836a06233681665,64dc78d195e0db63318b8b27,,,,,,,decisionTrl,resources/DBN.BMP,resources/DB.BMP,Door2,0.23063159,-0.080729187,1,0,0,0.7163,optionRight,20,15005,7,10,0,10,0,1,,,,,,,,,,,,,,,,,,,,,,,,,,,,,,,,,,,,,,,
,,,,,,,,2023-08-16_08h21.11.026,HF_wild_card,2022.2.4,Win32,60.17209218,5ed2717aec79fd1d3ca47d65,64d2fd46c836a06233681665,64dc78d195e0db63318b8b27,,,,,,,ctch,resources/DP.BMP,resources/DB.BMP,Door3,-0.264160156,-0.053385437,1,0,0,1.0087,optionLeft,70,15075,7,11,0,11,0,1,,,,,,,,,,,,,,,,,,,,,,,,,,,,,,,,,,,,,,,
,,,,,,,,2023-08-16_08h21.11.026,HF_wild_card,2022.2.4,Win32,60.17209218,5ed2717aec79fd1d3ca47d65,64d2fd46c836a06233681665,64dc78d195e0db63318b8b27,,,,,,,ctch,resources/DG.BMP,resources/DBN.BMP,Door4,-0.247233033,-0.059895873,1,0,0,0.716,optionLeft,80,15155,7,12,0,12,0,1,,,,,,,,,,,,,,,,,,,,,,,,,,,,,,,,,,,,,,,
,,,,,,,,2023-08-16_08h21.11.026,HF_wild_card,2022.2.4,Win32,60.17209218,5ed2717aec79fd1d3ca47d65,64d2fd46c836a06233681665,64dc78d195e0db63318b8b27,,,,,,,decisionTrl,resources/DBN.BMP,resources/DB.BMP,Door2,0.31656909,-0.151041687,1,0,0,0.7797,optionRight,20,15175,7,13,0,13,0,1,,,,,,,,,,,,,,,,,,,,,,,,,,,,,,,,,,,,,,,
,,,,,,,,2023-08-16_08h21.11.026,HF_wild_card,2022.2.4,Win32,60.17209218,5ed2717aec79fd1d3ca47d65,64d2fd46c836a06233681665,64dc78d195e0db63318b8b27,,,,,,,ctch,resources/DBN.BMP,resources/DG.BMP,Door4,0.30485034,-0.111979187,1,0,0,0.6597,optionRight,60,15235,7,14,0,14,0,1,,,,,,,,,,,,,,,,,,,,,,,,,,,,,,,,,,,,,,,
,,,,,,,,2023-08-16_08h21.11.026,HF_wild_card,2022.2.4,Win32,60.17209218,5ed2717aec79fd1d3ca47d65,64d2fd46c836a06233681665,64dc78d195e0db63318b8b27,,,,,,,decisionTrl,resources/DB.BMP,resources/DBN.BMP,Door2,-0.21468097,-0.061197937,1,0,0,0.8207,optionLeft,20,15255,7,15,0,15,0,1,,,,,,,,,,,,,,,,,,,,,,,,,,,,,,,,,,,,,,,
,,,,,,,,2023-08-16_08h21.11.026,HF_wild_card,2022.2.4,Win32,60.17209218,5ed2717aec79fd1d3ca47d65,64d2fd46c836a06233681665,64dc78d195e0db63318b8b27,,,,,,,decisionTrl,resources/DG.BMP,resources/DP.BMP,Door4,-0.225097656,-0.088541687,1,0,0,1.5363,optionLeft,80,15335,7,16,0,16,0,1,,,,,,,,,,,,,,,,,,,,,,,,,,,,,,,,,,,,,,,
,,,,,,,,2023-08-16_08h21.11.026,HF_wild_card,2022.2.4,Win32,60.17209218,5ed2717aec79fd1d3ca47d65,64d2fd46c836a06233681665,64dc78d195e0db63318b8b27,,,,,,,ctch,resources/DB.BMP,resources/DP.BMP,Door3,0.32047534,-0.0703125,1,0,0,0.8428,optionRight,70,15405,7,17,0,17,0,1,,,,,,,,,,,,,,,,,,,,,,,,,,,,,,,,,,,,,,,
,,,,,,,,2023-08-16_08h21.11.026,HF_wild_card,2022.2.4,Win32,60.17209218,5ed2717aec79fd1d3ca47d65,64d2fd46c836a06233681665,64dc78d195e0db63318b8b27,,,,,,,decisionTrl,resources/DG.BMP,resources/DP.BMP,Door3,0.323079467,-0.096354187,1,0,0,0.9591,optionRight,70,15475,7,18,0,18,0,1,,,,,,,,,,,,,,,,,,,,,,,,,,,,,,,,,,,,,,,
,,,,,,,,2023-08-16_08h21.11.026,HF_wild_card,2022.2.4,Win32,60.17209218,5ed2717aec79fd1d3ca47d65,64d2fd46c836a06233681665,64dc78d195e0db63318b8b27,,,,,,,decisionTrl,resources/DG.BMP,resources/DP.BMP,Door3,0.139485717,-0.061197937,1,0,0,1.3836,optionRight,70,15545,7,19,0,19,0,1,,,,,,,,,,,,,,,,,,,,,,,,,,,,,,,,,,,,,,,
,,,,,,,,2023-08-16_08h21.11.026,HF_wild_card,2022.2.4,Win32,60.17209218,5ed2717aec79fd1d3ca47d65,64d2fd46c836a06233681665,64dc78d195e0db63318b8b27,,,,,,,decisionTrl,resources/DG.BMP,resources/DP.BMP,Door3,0.310058594,-0.076822937,1,0,0,0.7483,optionRight,70,15615,7,20,0,20,0,1,,,,,,,,,,,,,,,,,,,,,,,,,,,,,,,,,,,,,,,
,,,,,,,,2023-08-16_08h21.11.026,HF_wild_card,2022.2.4,Win32,60.17209218,5ed2717aec79fd1d3ca47d65,64d2fd46c836a06233681665,64dc78d195e0db63318b8b27,,,,,,,decisionTrl,resources/DB.BMP,resources/DBN.BMP,Door2,-0.365722656,-0.03125,1,0,0,0.8916,optionLeft,40,15655,7,21,0,21,0,1,,,,,,,,,,,,,,,,,,,,,,,,,,,,,,,,,,,,,,,
,,,,,,,,2023-08-16_08h21.11.026,HF_wild_card,2022.2.4,Win32,60.17209218,5ed2717aec79fd1d3ca47d65,64d2fd46c836a06233681665,64dc78d195e0db63318b8b27,,,,,,,ctch,resources/DP.BMP,resources/DB.BMP,Door3,-0.321451783,-0.0546875,1,0,0,0.9632,optionLeft,70,15725,7,22,0,22,0,1,,,,,,,,,,,,,,,,,,,,,,,,,,,,,,,,,,,,,,,
,,,,,,,,2023-08-16_08h21.11.026,HF_wild_card,2022.2.4,Win32,60.17209218,5ed2717aec79fd1d3ca47d65,64d2fd46c836a06233681665,64dc78d195e0db63318b8b27,,,,,,,ctch,resources/DB.BMP,resources/DP.BMP,Door3,0.35563159,-0.110677123,1,0,0,1.0086,optionRight,70,15795,7,23,0,23,0,1,,,,,,,,,,,,,,,,,,,,,,,,,,,,,,,,,,,,,,,
,,,,,,,,2023-08-16_08h21.11.026,HF_wild_card,2022.2.4,Win32,60.17209218,5ed2717aec79fd1d3ca47d65,64d2fd46c836a06233681665,64dc78d195e0db63318b8b27,,,,,,,ctch,resources/DBN.BMP,resources/DG.BMP,Door4,0.37125659,-0.141927123,1,0,0,0.7611,optionRight,60,15855,7,24,0,24,0,1,,,,,,,,,,,,,,,,,,,,,,,,,,,,,,,,,,,,,,,
,,,,,,,,2023-08-16_08h21.11.026,HF_wild_card,2022.2.4,Win32,60.17209218,5ed2717aec79fd1d3ca47d65,64d2fd46c836a06233681665,64dc78d195e0db63318b8b27,,,,,,,decisionTrl,resources/DBN.BMP,resources/DB.BMP,Door2,0.338704467,-0.138020873,1,0,0,0.6586,optionRight,20,15875,7,25,0,25,0,1,,,,,,,,,,,,,,,,,,,,,,,,,,,,,,,,,,,,,,,
,,,,,,,,2023-08-16_08h21.11.026,HF_wild_card,2022.2.4,Win32,60.17209218,5ed2717aec79fd1d3ca47d65,64d2fd46c836a06233681665,64dc78d195e0db63318b8b27,,,,,,,decisionTrl,resources/DP.BMP,resources/DG.BMP,Door4,0.287923217,-0.123697937,1,0,0,0.721,optionRight,80,15955,7,26,0,26,0,1,,,,,,,,,,,,,,,,,,,,,,,,,,,,,,,,,,,,,,,
,,,,,,,,2023-08-16_08h21.11.026,HF_wild_card,2022.2.4,Win32,60.17209218,5ed2717aec79fd1d3ca47d65,64d2fd46c836a06233681665,64dc78d195e0db63318b8b27,,,,,,,decisionTrl,resources/DBN.BMP,resources/DB.BMP,Door2,0.33219409,-0.091145873,1,0,0,0.7665,optionRight,40,15995,7,27,0,27,0,1,,,,,,,,,,,,,,,,,,,,,,,,,,,,,,,,,,,,,,,
,,,,,,,,2023-08-16_08h21.11.026,HF_wild_card,2022.2.4,Win32,60.17209218,5ed2717aec79fd1d3ca47d65,64d2fd46c836a06233681665,64dc78d195e0db63318b8b27,,,,,,,decisionTrl,resources/DB.BMP,resources/DBN.BMP,Door2,-0.305826783,-0.059895873,1,0,0,0.7755,optionLeft,20,16015,7,28,0,28,0,1,,,,,,,,,,,,,,,,,,,,,,,,,,,,,,,,,,,,,,,
,,,,,,,,2023-08-16_08h21.11.026,HF_wild_card,2022.2.4,Win32,60.17209218,5ed2717aec79fd1d3ca47d65,64d2fd46c836a06233681665,64dc78d195e0db63318b8b27,,,,,,,ctch,resources/DP.BMP,resources/DB.BMP,Door3,-0.287597656,-0.087239623,1,0,0,0.8874,optionLeft,70,16085,7,29,0,29,0,1,,,,,,,,,,,,,,,,,,,,,,,,,,,,,,,,,,,,,,,
,,,,,,,,2023-08-16_08h21.11.026,HF_wild_card,2022.2.4,Win32,60.17209218,5ed2717aec79fd1d3ca47d65,64d2fd46c836a06233681665,64dc78d195e0db63318b8b27,,,,,,,decisionTrl,resources/DP.BMP,resources/DG.BMP,Door3,-0.264160156,-0.123697937,1,0,0,1.1828,optionLeft,70,16155,7,30,0,30,0,1,,,,,,,,,,,,,,,,,,,,,,,,,,,,,,,,,,,,,,,
,,,,,,,,2023-08-16_08h21.11.026,HF_wild_card,2022.2.4,Win32,60.17209218,5ed2717aec79fd1d3ca47d65,64d2fd46c836a06233681665,64dc78d195e0db63318b8b27,,,,,,,decisionTrl,resources/DP.BMP,resources/DG.BMP,Door3,-0.255045533,-0.123697937,1,0,0,0.8365,optionLeft,70,16225,7,31,0,31,0,1,,,,,,,,,,,,,,,,,,,,,,,,,,,,,,,,,,,,,,,
,,,,,,,,2023-08-16_08h21.11.026,HF_wild_card,2022.2.4,Win32,60.17209218,5ed2717aec79fd1d3ca47d65,64d2fd46c836a06233681665,64dc78d195e0db63318b8b27,,,,,,,decisionTrl,resources/DP.BMP,resources/DG.BMP,Door3,-0.19905597,-0.1328125,1,0,0,0.8988,optionLeft,70,16295,7,32,0,32,0,1,,,,,,,,,,,,,,,,,,,,,,,,,,,,,,,,,,,,,,,
,,,,,,,,2023-08-16_08h21.11.026,HF_wild_card,2022.2.4,Win32,60.17209218,5ed2717aec79fd1d3ca47d65,64d2fd46c836a06233681665,64dc78d195e0db63318b8b27,,,,,,,decisionTrl,resources/DB.BMP,resources/DBN.BMP,Door2,-0.314941406,-0.09375,1,0,0,1.1154,optionLeft,40,16335,7,33,0,33,0,1,,,,,,,,,,,,,,,,,,,,,,,,,,,,,,,,,,,,,,,
,,,,,,,,2023-08-16_08h21.11.026,HF_wild_card,2022.2.4,Win32,60.17209218,5ed2717aec79fd1d3ca47d65,64d2fd46c836a06233681665,64dc78d195e0db63318b8b27,,,,,,,decisionTrl,resources/DG.BMP,resources/DP.BMP,Door3,0.27360034,-0.180989623,1,0,0,1.3934,optionRight,70,16405,7,34,0,34,0,1,,,,,,,,,,,,,,,,,,,,,,,,,,,,,,,,,,,,,,,
,,,,,,,,2023-08-16_08h21.11.026,HF_wild_card,2022.2.4,Win32,60.17209218,5ed2717aec79fd1d3ca47d65,64d2fd46c836a06233681665,64dc78d195e0db63318b8b27,,,,,,,decisionTrl,resources/DB.BMP,resources/DBN.BMP,Door2,-0.266764283,-0.09765625,1,0,0,1.0824,optionLeft,40,16445,7,35,0,35,0,1,,,,,,,,,,,,,,,,,,,,,,,,,,,,,,,,,,,,,,,
,,,,,,,,2023-08-16_08h21.11.026,HF_wild_card,2022.2.4,Win32,60.17209218,5ed2717aec79fd1d3ca47d65,64d2fd46c836a06233681665,64dc78d195e0db63318b8b27,,,,,,,,,,,,,,,,,,,,,,,,,,6,0,6,0,1,,,,,,,,,,,,,,,,,,,,,,,,,,,,,,,,,,
,,,,,,,,2023-08-16_08h21.11.026,HF_wild_card,2022.2.4,Win32,60.17209218,5ed2717aec79fd1d3ca47d65,64d2fd46c836a06233681665,64dc78d195e0db63318b8b27,,,,,,,,,,,,,,,,,,,,,,,,,,,,,,,4,,,,,,,,,,,,,,,,,,,,,,,,,,,,,,,,,
,,,,,,,,2023-08-16_08h21.11.026,HF_wild_card,2022.2.4,Win32,60.17209218,5ed2717aec79fd1d3ca47d65,64d2fd46c836a06233681665,64dc78d195e0db63318b8b27,,,,,,,,,,,,,,,,,,,,,,,,,,,,,,,,,,,,,,,,,,,,,,,,,,,,,,,,,,,,,,,,
,,,,,,,,2023-08-16_08h21.11.026,HF_wild_card,2022.2.4,Win32,60.17209218,5ed2717aec79fd1d3ca47d65,64d2fd46c836a06233681665,64dc78d195e0db63318b8b27,,,,,,,,,,,,,,,,,,,,,,,,,,,,,,,,40,WC_extreme,resources/DR.BMP,0,0,0,0,1,,,,,,,,,,,,,,,,,,,,,,,,,
,,,,,,,,2023-08-16_08h21.11.026,HF_wild_card,2022.2.4,Win32,60.17209218,5ed2717aec79fd1d3ca47d65,64d2fd46c836a06233681665,64dc78d195e0db63318b8b27,,,,,,,,,,,,,,,,,,,,,,,,,,,,,,,,20,Door1,resources/DBN.BMP,1,0,1,0,1,,,,,,,,,,,,,,,,,,,,,,,,,
,,,,,,,,2023-08-16_08h21.11.026,HF_wild_card,2022.2.4,Win32,60.17209218,5ed2717aec79fd1d3ca47d65,64d2fd46c836a06233681665,64dc78d195e0db63318b8b27,,,,,,,,,,,,,,,,,,,,,,,,,,,,,,,,80,Door3,resources/DP.BMP,2,0,2,0,1,,,,,,,,,,,,,,,,,,,,,,,,,
,,,,,,,,2023-08-16_08h21.11.026,HF_wild_card,2022.2.4,Win32,60.17209218,5ed2717aec79fd1d3ca47d65,64d2fd46c836a06233681665,64dc78d195e0db63318b8b27,,,,,,,,,,,,,,,,,,,,,,,,,,,,,,,,70,Door4,resources/DG.BMP,3,0,3,0,1,,,,,,,,,,,,,,,,,,,,,,,,,
,,,,,,,,2023-08-16_08h21.11.026,HF_wild_card,2022.2.4,Win32,60.17209218,5ed2717aec79fd1d3ca47d65,64d2fd46c836a06233681665,64dc78d195e0db63318b8b27,,,,,,,,,,,,,,,,,,,,,,,,,,,,,,,,40,WC_nonExtreme,resources/DY.BMP,4,0,4,0,1,,,,,,,,,,,,,,,,,,,,,,,,,
,,,,,,,,2023-08-16_08h21.11.026,HF_wild_card,2022.2.4,Win32,60.17209218,5ed2717aec79fd1d3ca47d65,64d2fd46c836a06233681665,64dc78d195e0db63318b8b27,,,,,,,,,,,,,,,,,,,,,,,,,,,,,,,,40,Door2,resources/DB.BMP,5,0,5,0,1,,,,,,,,,,,,,,,,,,,,,,,,,
,,,,,,,,2023-08-16_08h21.11.026,HF_wild_card,2022.2.4,Win32,60.17209218,5ed2717aec79fd1d3ca47d65,64d2fd46c836a06233681665,64dc78d195e0db63318b8b27,,,,,,,,,,,,,,,,,,,,,,,,,,,,,,,,,,,,,,,,,,,,,,,,,,,,,,,,,,,,,,,,
,,,,,,,,2023-08-16_08h21.11.026,HF_wild_card,2022.2.4,Win32,60.17209218,5ed2717aec79fd1d3ca47d65,64d2fd46c836a06233681665,64dc78d195e0db63318b8b27,,,,,,,,,,,,,,,,,,,,,,,,,,,,,,,,,,,,,,,,0,0,0,0,1,,,,,,,,,,,,,,,,,,,,
