Condition,Low fixed image (Door1),Low risky image (Door2),High fixed image (Door3),High risky image (Door4),Extreme Wild Card,NonExtreme Wild Card,,date,expName,psychopyVersion,OS,frameRate,PROLIFIC_PID,STUDY_ID,SESSION_ID,mouse_2.x,mouse_2.y,mouse_2.leftButton,mouse_2.midButton,mouse_2.rightButton,mouse_2.clicked_name,Trial Type,Left Option Image,Right Option Image,Chosen Door,mouse.x,mouse.y,mouse.leftButton,mouse.midButton,mouse.rightButton,mouse.time,mouse.clicked_name,Feedback,Cumulative Reward,Block,trial.thisRepN,trial.thisTrialN,trial.thisN,trial.thisIndex,trial.ran,blocks.thisRepN,blocks.thisTrialN,blocks.thisN,blocks.thisIndex,blocks.ran,Money conversion,First Outcome Reported,Shown Door (First Outcome),Displayed Image (First Outcome),outcomes.thisRepN,outcomes.thisTrialN,outcomes.thisN,outcomes.thisIndex,outcomes.ran,judgments.thisRepN,judgments.thisTrialN,judgments.thisN,judgments.thisIndex,judgments.ran,freqMouse.x,freqMouse.y,freqMouse.leftButton,freqMouse.midButton,freqMouse.rightButton,freqMouse.clicked_name,FQJ for first outcome,FQJ for second outcome,Shown Door,Displayed Image,trials.thisRepN,trials.thisTrialN,trials.thisN,trials.thisIndex,trials.ran,judgBlock.thisRepN,judgBlock.thisTrialN,judgBlock.thisN,judgBlock.thisIndex,judgBlock.ran
1,resources/DB.BMP,resources/DP.BMP,resources/DR.BMP,resources/DBN.BMP,resources/DY.BMP,resources/DG.BMP,,2023-08-16_08h24.19.136,HF_wild_card,2022.2.4,Win32,60.0348202,63cfdefcf2ee0355b64d6f03,64d2fd46c836a06233681665,64dc79854101032082a1d435,,,,,,,,,,,,,,,,,,,,,,,,,,,,,,,,,,,,,,,,,,,,,,,,,,,,,,,,,,,,,,,,
,,,,,,,,2023-08-16_08h24.19.136,HF_wild_card,2022.2.4,Win32,60.0348202,63cfdefcf2ee0355b64d6f03,64d2fd46c836a06233681665,64dc79854101032082a1d435,0.003703704,-0.424074074,1,0,0,agree,,,,,,,,,,,,,,,,,,,,,,,,,,,,,,,,,,,,,,,,,,,,,,,,,,,,,,,,,,
,,,,,,,,2023-08-16_08h24.19.136,HF_wild_card,2022.2.4,Win32,60.0348202,63cfdefcf2ee0355b64d6f03,64d2fd46c836a06233681665,64dc79854101032082a1d435,,,,,,,,,,,,,,,,,,,,,,,,,,,,,,,,,,,,,,,,,,,,,,,,,,,,,,,,,,,,,,,,
,,,,,,,,2023-08-16_08h24.19.136,HF_wild_card,2022.2.4,Win32,60.0348202,63cfdefcf2ee0355b64d6f03,64d2fd46c836a06233681665,64dc79854101032082a1d435,,,,,,,decisionTrl,resources/DR.BMP,resources/DBN.BMP,Door3,-0.346296296,-0.106481481,1,0,0,3.788,optionLeft,70,70,1,0,0,0,0,1,,,,,,,,,,,,,,,,,,,,,,,,,,,,,,,,,,,,,,,
,,,,,,,,2023-08-16_08h24.19.136,HF_wild_card,2022.2.4,Win32,60.0348202,63cfdefcf2ee0355b64d6f03,64d2fd46c836a06233681665,64dc79854101032082a1d435,,,,,,,decisionTrl,resources/DBN.BMP,resources/DR.BMP,Door3,0.267592593,-0.024074074,1,0,0,3.3635,optionRight,70,140,1,1,0,1,0,1,,,,,,,,,,,,,,,,,,,,,,,,,,,,,,,,,,,,,,,
,,,,,,,,2023-08-16_08h24.19.136,HF_wild_card,2022.2.4,Win32,60.0348202,63cfdefcf2ee0355b64d6f03,64d2fd46c836a06233681665,64dc79854101032082a1d435,,,,,,,decisionTrl,resources/DP.BMP,resources/DB.BMP,Door1,0.428703704,-0.002777778,1,0,0,1.9847,optionRight,30,170,1,2,0,2,0,1,,,,,,,,,,,,,,,,,,,,,,,,,,,,,,,,,,,,,,,
,,,,,,,,2023-08-16_08h24.19.136,HF_wild_card,2022.2.4,Win32,60.0348202,63cfdefcf2ee0355b64d6f03,64d2fd46c836a06233681665,64dc79854101032082a1d435,,,,,,,decisionTrl,resources/DP.BMP,resources/DG.BMP,WildCard_NonEx,0.361111111,-0.053703704,1,0,0,2.3812,optionRight,55,225,1,3,0,3,0,1,,,,,,,,,,,,,,,,,,,,,,,,,,,,,,,,,,,,,,,
,,,,,,,,2023-08-16_08h24.19.136,HF_wild_card,2022.2.4,Win32,60.0348202,63cfdefcf2ee0355b64d6f03,64d2fd46c836a06233681665,64dc79854101032082a1d435,,,,,,,decisionTrl,resources/DBN.BMP,resources/DR.BMP,Door3,0.317592593,-0.050925926,1,0,0,3.647,optionRight,70,295,1,4,0,4,0,1,,,,,,,,,,,,,,,,,,,,,,,,,,,,,,,,,,,,,,,
,,,,,,,,2023-08-16_08h24.19.136,HF_wild_card,2022.2.4,Win32,60.0348202,63cfdefcf2ee0355b64d6f03,64d2fd46c836a06233681665,64dc79854101032082a1d435,,,,,,,sngl,resources/DG.BMP,resources/Empty.png,WildCard_NonEx,-0.326851852,-0.023148148,1,0,0,1.6635,optionLeft,55,350,1,5,0,5,0,1,,,,,,,,,,,,,,,,,,,,,,,,,,,,,,,,,,,,,,,
,,,,,,,,2023-08-16_08h24.19.136,HF_wild_card,2022.2.4,Win32,60.0348202,63cfdefcf2ee0355b64d6f03,64d2fd46c836a06233681665,64dc79854101032082a1d435,,,,,,,decisionTrl,resources/DG.BMP,resources/DR.BMP,WildCard_NonEx,-0.293518519,-0.02037037,1,0,0,3.0306,optionLeft,45,395,1,6,0,6,0,1,,,,,,,,,,,,,,,,,,,,,,,,,,,,,,,,,,,,,,,
,,,,,,,,2023-08-16_08h24.19.136,HF_wild_card,2022.2.4,Win32,60.0348202,63cfdefcf2ee0355b64d6f03,64d2fd46c836a06233681665,64dc79854101032082a1d435,,,,,,,sngl,resources/Empty.png,resources/DB.BMP,Door1,0.355555556,-0.025,1,0,0,1.2131,optionRight,30,425,1,7,0,7,0,1,,,,,,,,,,,,,,,,,,,,,,,,,,,,,,,,,,,,,,,
,,,,,,,,2023-08-16_08h24.19.136,HF_wild_card,2022.2.4,Win32,60.0348202,63cfdefcf2ee0355b64d6f03,64d2fd46c836a06233681665,64dc79854101032082a1d435,,,,,,,sngl,resources/Empty.png,resources/DP.BMP,Door2,0.323148148,-0.039814815,1,0,0,1.2474,optionRight,20,445,1,8,0,8,0,1,,,,,,,,,,,,,,,,,,,,,,,,,,,,,,,,,,,,,,,
,,,,,,,,2023-08-16_08h24.19.136,HF_wild_card,2022.2.4,Win32,60.0348202,63cfdefcf2ee0355b64d6f03,64d2fd46c836a06233681665,64dc79854101032082a1d435,,,,,,,sngl,resources/Empty.png,resources/DG.BMP,WildCard_NonEx,0.372222222,-0.037037037,1,0,0,1.1471,optionRight,55,500,1,9,0,9,0,1,,,,,,,,,,,,,,,,,,,,,,,,,,,,,,,,,,,,,,,
,,,,,,,,2023-08-16_08h24.19.136,HF_wild_card,2022.2.4,Win32,60.0348202,63cfdefcf2ee0355b64d6f03,64d2fd46c836a06233681665,64dc79854101032082a1d435,,,,,,,decisionTrl,resources/DB.BMP,resources/DP.BMP,Door1,-0.347222222,-0.00462963,1,0,0,2.8639,optionLeft,30,530,1,10,0,10,0,1,,,,,,,,,,,,,,,,,,,,,,,,,,,,,,,,,,,,,,,
,,,,,,,,2023-08-16_08h24.19.136,HF_wild_card,2022.2.4,Win32,60.0348202,63cfdefcf2ee0355b64d6f03,64d2fd46c836a06233681665,64dc79854101032082a1d435,,,,,,,decisionTrl,resources/DB.BMP,resources/DP.BMP,Door1,-0.30462963,0.011111111,1,0,0,2.1644,optionLeft,30,560,1,11,0,11,0,1,,,,,,,,,,,,,,,,,,,,,,,,,,,,,,,,,,,,,,,
,,,,,,,,2023-08-16_08h24.19.136,HF_wild_card,2022.2.4,Win32,60.0348202,63cfdefcf2ee0355b64d6f03,64d2fd46c836a06233681665,64dc79854101032082a1d435,,,,,,,ctch,resources/DP.BMP,resources/DR.BMP,Door3,0.357407407,-0.012962963,1,0,0,1.3639,optionRight,70,630,1,12,0,12,0,1,,,,,,,,,,,,,,,,,,,,,,,,,,,,,,,,,,,,,,,
,,,,,,,,2023-08-16_08h24.19.136,HF_wild_card,2022.2.4,Win32,60.0348202,63cfdefcf2ee0355b64d6f03,64d2fd46c836a06233681665,64dc79854101032082a1d435,,,,,,,sngl,resources/DG.BMP,resources/Empty.png,WildCard_NonEx,-0.300925926,-0.006481481,1,0,0,1.1131,optionLeft,45,675,1,13,0,13,0,1,,,,,,,,,,,,,,,,,,,,,,,,,,,,,,,,,,,,,,,
,,,,,,,,2023-08-16_08h24.19.136,HF_wild_card,2022.2.4,Win32,60.0348202,63cfdefcf2ee0355b64d6f03,64d2fd46c836a06233681665,64dc79854101032082a1d435,,,,,,,decisionTrl,resources/DG.BMP,resources/DP.BMP,WildCard_NonEx,-0.32037037,-0.005555556,1,0,0,1.2968,optionLeft,55,730,1,14,0,14,0,1,,,,,,,,,,,,,,,,,,,,,,,,,,,,,,,,,,,,,,,
,,,,,,,,2023-08-16_08h24.19.136,HF_wild_card,2022.2.4,Win32,60.0348202,63cfdefcf2ee0355b64d6f03,64d2fd46c836a06233681665,64dc79854101032082a1d435,,,,,,,decisionTrl,resources/DB.BMP,resources/DP.BMP,Door2,0.323148148,-0.034259259,1,0,0,1.3477,optionRight,40,770,1,15,0,15,0,1,,,,,,,,,,,,,,,,,,,,,,,,,,,,,,,,,,,,,,,
,,,,,,,,2023-08-16_08h24.19.136,HF_wild_card,2022.2.4,Win32,60.0348202,63cfdefcf2ee0355b64d6f03,64d2fd46c836a06233681665,64dc79854101032082a1d435,,,,,,,decisionTrl,resources/DBN.BMP,resources/DG.BMP,WildCard_NonEx,0.360185185,-0.041666667,1,0,0,1.7481,optionRight,45,815,1,16,0,16,0,1,,,,,,,,,,,,,,,,,,,,,,,,,,,,,,,,,,,,,,,
,,,,,,,,2023-08-16_08h24.19.136,HF_wild_card,2022.2.4,Win32,60.0348202,63cfdefcf2ee0355b64d6f03,64d2fd46c836a06233681665,64dc79854101032082a1d435,,,,,,,decisionTrl,resources/DR.BMP,resources/DBN.BMP,Door3,-0.365740741,-0.022222222,1,0,0,1.9304,optionLeft,70,885,1,17,0,17,0,1,,,,,,,,,,,,,,,,,,,,,,,,,,,,,,,,,,,,,,,
,,,,,,,,2023-08-16_08h24.19.136,HF_wild_card,2022.2.4,Win32,60.0348202,63cfdefcf2ee0355b64d6f03,64d2fd46c836a06233681665,64dc79854101032082a1d435,,,,,,,ctch,resources/DB.BMP,resources/DBN.BMP,Door4,0.419444444,-0.024074074,1,0,0,1.3809,optionRight,80,965,1,18,0,18,0,1,,,,,,,,,,,,,,,,,,,,,,,,,,,,,,,,,,,,,,,
,,,,,,,,2023-08-16_08h24.19.136,HF_wild_card,2022.2.4,Win32,60.0348202,63cfdefcf2ee0355b64d6f03,64d2fd46c836a06233681665,64dc79854101032082a1d435,,,,,,,decisionTrl,resources/DBN.BMP,resources/DR.BMP,Door4,-0.249074074,-0.012037037,1,0,0,1.0644,optionLeft,60,1025,1,19,0,19,0,1,,,,,,,,,,,,,,,,,,,,,,,,,,,,,,,,,,,,,,,
,,,,,,,,2023-08-16_08h24.19.136,HF_wild_card,2022.2.4,Win32,60.0348202,63cfdefcf2ee0355b64d6f03,64d2fd46c836a06233681665,64dc79854101032082a1d435,,,,,,,sngl,resources/Empty.png,resources/DBN.BMP,Door4,0.327777778,-0.005555556,1,0,0,0.9645,optionRight,60,1085,1,20,0,20,0,1,,,,,,,,,,,,,,,,,,,,,,,,,,,,,,,,,,,,,,,
,,,,,,,,2023-08-16_08h24.19.136,HF_wild_card,2022.2.4,Win32,60.0348202,63cfdefcf2ee0355b64d6f03,64d2fd46c836a06233681665,64dc79854101032082a1d435,,,,,,,sngl,resources/DP.BMP,resources/Empty.png,Door2,-0.296296296,-0.012037037,1,0,0,1.1309,optionLeft,40,1125,1,21,0,21,0,1,,,,,,,,,,,,,,,,,,,,,,,,,,,,,,,,,,,,,,,
,,,,,,,,2023-08-16_08h24.19.136,HF_wild_card,2022.2.4,Win32,60.0348202,63cfdefcf2ee0355b64d6f03,64d2fd46c836a06233681665,64dc79854101032082a1d435,,,,,,,decisionTrl,resources/DB.BMP,resources/DP.BMP,Door1,-0.222222222,0.022222222,1,0,0,1.6977,optionLeft,30,1155,1,22,0,22,0,1,,,,,,,,,,,,,,,,,,,,,,,,,,,,,,,,,,,,,,,
,,,,,,,,2023-08-16_08h24.19.136,HF_wild_card,2022.2.4,Win32,60.0348202,63cfdefcf2ee0355b64d6f03,64d2fd46c836a06233681665,64dc79854101032082a1d435,,,,,,,sngl,resources/DB.BMP,resources/Empty.png,Door1,-0.241666667,-0.001851852,1,0,0,1.1306,optionLeft,30,1185,1,23,0,23,0,1,,,,,,,,,,,,,,,,,,,,,,,,,,,,,,,,,,,,,,,
,,,,,,,,2023-08-16_08h24.19.136,HF_wild_card,2022.2.4,Win32,60.0348202,63cfdefcf2ee0355b64d6f03,64d2fd46c836a06233681665,64dc79854101032082a1d435,,,,,,,decisionTrl,resources/DBN.BMP,resources/DR.BMP,Door4,-0.3,-0.001851852,1,0,0,0.9476,optionLeft,60,1245,1,24,0,24,0,1,,,,,,,,,,,,,,,,,,,,,,,,,,,,,,,,,,,,,,,
,,,,,,,,2023-08-16_08h24.19.136,HF_wild_card,2022.2.4,Win32,60.0348202,63cfdefcf2ee0355b64d6f03,64d2fd46c836a06233681665,64dc79854101032082a1d435,,,,,,,sngl,resources/Empty.png,resources/DG.BMP,WildCard_NonEx,0.32037037,-0.006481481,1,0,0,1.1143,optionRight,45,1290,1,25,0,25,0,1,,,,,,,,,,,,,,,,,,,,,,,,,,,,,,,,,,,,,,,
,,,,,,,,2023-08-16_08h24.19.136,HF_wild_card,2022.2.4,Win32,60.0348202,63cfdefcf2ee0355b64d6f03,64d2fd46c836a06233681665,64dc79854101032082a1d435,,,,,,,decisionTrl,resources/DB.BMP,resources/DG.BMP,WildCard_NonEx,0.302777778,0.012037037,1,0,0,1.4308,optionRight,45,1335,1,26,0,26,0,1,,,,,,,,,,,,,,,,,,,,,,,,,,,,,,,,,,,,,,,
,,,,,,,,2023-08-16_08h24.19.136,HF_wild_card,2022.2.4,Win32,60.0348202,63cfdefcf2ee0355b64d6f03,64d2fd46c836a06233681665,64dc79854101032082a1d435,,,,,,,decisionTrl,resources/DP.BMP,resources/DB.BMP,Door2,-0.396296296,-0.00462963,1,0,0,1.5644,optionLeft,20,1355,1,27,0,27,0,1,,,,,,,,,,,,,,,,,,,,,,,,,,,,,,,,,,,,,,,
,,,,,,,,2023-08-16_08h24.19.136,HF_wild_card,2022.2.4,Win32,60.0348202,63cfdefcf2ee0355b64d6f03,64d2fd46c836a06233681665,64dc79854101032082a1d435,,,,,,,ctch,resources/DR.BMP,resources/DP.BMP,Door3,-0.299074074,-0.012962963,1,0,0,0.9975,optionLeft,70,1425,1,28,0,28,0,1,,,,,,,,,,,,,,,,,,,,,,,,,,,,,,,,,,,,,,,
,,,,,,,,2023-08-16_08h24.19.136,HF_wild_card,2022.2.4,Win32,60.0348202,63cfdefcf2ee0355b64d6f03,64d2fd46c836a06233681665,64dc79854101032082a1d435,,,,,,,ctch,resources/DB.BMP,resources/DBN.BMP,Door4,0.316666667,0.003703704,1,0,0,0.9644,optionRight,80,1505,1,29,0,29,0,1,,,,,,,,,,,,,,,,,,,,,,,,,,,,,,,,,,,,,,,
,,,,,,,,2023-08-16_08h24.19.136,HF_wild_card,2022.2.4,Win32,60.0348202,63cfdefcf2ee0355b64d6f03,64d2fd46c836a06233681665,64dc79854101032082a1d435,,,,,,,ctch,resources/DBN.BMP,resources/DB.BMP,Door4,-0.298148148,0.022222222,1,0,0,1.0638,optionLeft,80,1585,1,30,0,30,0,1,,,,,,,,,,,,,,,,,,,,,,,,,,,,,,,,,,,,,,,
,,,,,,,,2023-08-16_08h24.19.136,HF_wild_card,2022.2.4,Win32,60.0348202,63cfdefcf2ee0355b64d6f03,64d2fd46c836a06233681665,64dc79854101032082a1d435,,,,,,,decisionTrl,resources/DR.BMP,resources/DBN.BMP,Door4,0.360185185,0.012962963,1,0,0,1.0641,optionRight,80,1665,1,31,0,31,0,1,,,,,,,,,,,,,,,,,,,,,,,,,,,,,,,,,,,,,,,
,,,,,,,,2023-08-16_08h24.19.136,HF_wild_card,2022.2.4,Win32,60.0348202,63cfdefcf2ee0355b64d6f03,64d2fd46c836a06233681665,64dc79854101032082a1d435,,,,,,,decisionTrl,resources/DP.BMP,resources/DB.BMP,Door1,0.225,0.007407407,1,0,0,2.2643,optionRight,30,1695,1,32,0,32,0,1,,,,,,,,,,,,,,,,,,,,,,,,,,,,,,,,,,,,,,,
,,,,,,,,2023-08-16_08h24.19.136,HF_wild_card,2022.2.4,Win32,60.0348202,63cfdefcf2ee0355b64d6f03,64d2fd46c836a06233681665,64dc79854101032082a1d435,,,,,,,sngl,resources/Empty.png,resources/DR.BMP,Door3,0.248148148,0.007407407,1,0,0,0.9143,optionRight,70,1765,1,33,0,33,0,1,,,,,,,,,,,,,,,,,,,,,,,,,,,,,,,,,,,,,,,
,,,,,,,,2023-08-16_08h24.19.136,HF_wild_card,2022.2.4,Win32,60.0348202,63cfdefcf2ee0355b64d6f03,64d2fd46c836a06233681665,64dc79854101032082a1d435,,,,,,,ctch,resources/DP.BMP,resources/DR.BMP,Door3,0.275925926,-0.001851852,1,0,0,1.081,optionRight,70,1835,1,34,0,34,0,1,,,,,,,,,,,,,,,,,,,,,,,,,,,,,,,,,,,,,,,
,,,,,,,,2023-08-16_08h24.19.136,HF_wild_card,2022.2.4,Win32,60.0348202,63cfdefcf2ee0355b64d6f03,64d2fd46c836a06233681665,64dc79854101032082a1d435,,,,,,,decisionTrl,resources/DG.BMP,resources/DBN.BMP,Door4,0.303703704,0.006481481,1,0,0,0.9304,optionRight,80,1915,1,35,0,35,0,1,,,,,,,,,,,,,,,,,,,,,,,,,,,,,,,,,,,,,,,
,,,,,,,,2023-08-16_08h24.19.136,HF_wild_card,2022.2.4,Win32,60.0348202,63cfdefcf2ee0355b64d6f03,64d2fd46c836a06233681665,64dc79854101032082a1d435,,,,,,,ctch,resources/DBN.BMP,resources/DB.BMP,Door4,-0.286111111,0.009259259,1,0,0,0.9477,optionLeft,60,1975,1,36,0,36,0,1,,,,,,,,,,,,,,,,,,,,,,,,,,,,,,,,,,,,,,,
,,,,,,,,2023-08-16_08h24.19.136,HF_wild_card,2022.2.4,Win32,60.0348202,63cfdefcf2ee0355b64d6f03,64d2fd46c836a06233681665,64dc79854101032082a1d435,,,,,,,sngl,resources/DBN.BMP,resources/Empty.png,Door4,-0.263888889,0.014814815,1,0,0,0.8803,optionLeft,80,2055,1,37,0,37,0,1,,,,,,,,,,,,,,,,,,,,,,,,,,,,,,,,,,,,,,,
,,,,,,,,2023-08-16_08h24.19.136,HF_wild_card,2022.2.4,Win32,60.0348202,63cfdefcf2ee0355b64d6f03,64d2fd46c836a06233681665,64dc79854101032082a1d435,,,,,,,sngl,resources/DR.BMP,resources/Empty.png,Door3,-0.27037037,0.018518519,1,0,0,0.9645,optionLeft,70,2125,1,38,0,38,0,1,,,,,,,,,,,,,,,,,,,,,,,,,,,,,,,,,,,,,,,
,,,,,,,,2023-08-16_08h24.19.136,HF_wild_card,2022.2.4,Win32,60.0348202,63cfdefcf2ee0355b64d6f03,64d2fd46c836a06233681665,64dc79854101032082a1d435,,,,,,,ctch,resources/DR.BMP,resources/DP.BMP,Door3,-0.264814815,0.025,1,0,0,1.4643,optionLeft,70,2195,1,39,0,39,0,1,,,,,,,,,,,,,,,,,,,,,,,,,,,,,,,,,,,,,,,
,,,,,,,,2023-08-16_08h24.19.136,HF_wild_card,2022.2.4,Win32,60.0348202,63cfdefcf2ee0355b64d6f03,64d2fd46c836a06233681665,64dc79854101032082a1d435,,,,,,,decisionTrl,resources/DR.BMP,resources/DG.BMP,Door3,-0.317592593,0.043518519,1,0,0,0.9146,optionLeft,70,2265,1,40,0,40,0,1,,,,,,,,,,,,,,,,,,,,,,,,,,,,,,,,,,,,,,,
,,,,,,,,2023-08-16_08h24.19.136,HF_wild_card,2022.2.4,Win32,60.0348202,63cfdefcf2ee0355b64d6f03,64d2fd46c836a06233681665,64dc79854101032082a1d435,,,,,,,decisionTrl,resources/DG.BMP,resources/DB.BMP,WildCard_NonEx,-0.249074074,0.00462963,1,0,0,1.281,optionLeft,45,2310,1,41,0,41,0,1,,,,,,,,,,,,,,,,,,,,,,,,,,,,,,,,,,,,,,,
,,,,,,,,2023-08-16_08h24.19.136,HF_wild_card,2022.2.4,Win32,60.0348202,63cfdefcf2ee0355b64d6f03,64d2fd46c836a06233681665,64dc79854101032082a1d435,,,,,,,decisionTrl,resources/DP.BMP,resources/DB.BMP,Door1,0.239814815,-0.012037037,1,0,0,1.0979,optionRight,30,2340,1,42,0,42,0,1,,,,,,,,,,,,,,,,,,,,,,,,,,,,,,,,,,,,,,,
,,,,,,,,2023-08-16_08h24.19.136,HF_wild_card,2022.2.4,Win32,60.0348202,63cfdefcf2ee0355b64d6f03,64d2fd46c836a06233681665,64dc79854101032082a1d435,,,,,,,decisionTrl,resources/DR.BMP,resources/DBN.BMP,Door4,0.249074074,-0.030555556,1,0,0,0.931,optionRight,60,2400,1,43,0,43,0,1,,,,,,,,,,,,,,,,,,,,,,,,,,,,,,,,,,,,,,,
,,,,,,,,2023-08-16_08h24.19.136,HF_wild_card,2022.2.4,Win32,60.0348202,63cfdefcf2ee0355b64d6f03,64d2fd46c836a06233681665,64dc79854101032082a1d435,,,,,,,,,,,,,,,,,,,,,,,,,,0,0,0,0,1,,,,,,,,,,,,,,,,,,,,,,,,,,,,,,,,,,
,,,,,,,,2023-08-16_08h24.19.136,HF_wild_card,2022.2.4,Win32,60.0348202,63cfdefcf2ee0355b64d6f03,64d2fd46c836a06233681665,64dc79854101032082a1d435,,,,,,,decisionTrl,resources/DP.BMP,resources/DB.BMP,Door1,0.20462963,-0.072222222,1,0,0,1.9817,optionRight,30,2430,2,0,0,0,0,1,,,,,,,,,,,,,,,,,,,,,,,,,,,,,,,,,,,,,,,
,,,,,,,,2023-08-16_08h24.19.136,HF_wild_card,2022.2.4,Win32,60.0348202,63cfdefcf2ee0355b64d6f03,64d2fd46c836a06233681665,64dc79854101032082a1d435,,,,,,,decisionTrl,resources/DB.BMP,resources/DP.BMP,Door1,-0.321296296,-0.034259259,1,0,0,1.3693,optionLeft,30,2460,2,1,0,1,0,1,,,,,,,,,,,,,,,,,,,,,,,,,,,,,,,,,,,,,,,
,,,,,,,,2023-08-16_08h24.19.136,HF_wild_card,2022.2.4,Win32,60.0348202,63cfdefcf2ee0355b64d6f03,64d2fd46c836a06233681665,64dc79854101032082a1d435,,,,,,,ctch,resources/DP.BMP,resources/DR.BMP,Door3,0.322222222,-0.082407407,1,0,0,1.5698,optionRight,70,2530,2,2,0,2,0,1,,,,,,,,,,,,,,,,,,,,,,,,,,,,,,,,,,,,,,,
,,,,,,,,2023-08-16_08h24.19.136,HF_wild_card,2022.2.4,Win32,60.0348202,63cfdefcf2ee0355b64d6f03,64d2fd46c836a06233681665,64dc79854101032082a1d435,,,,,,,decisionTrl,resources/DB.BMP,resources/DG.BMP,WildCard_NonEx,0.393518519,-0.047222222,1,0,0,1.0353,optionRight,45,2575,2,3,0,3,0,1,,,,,,,,,,,,,,,,,,,,,,,,,,,,,,,,,,,,,,,
,,,,,,,,2023-08-16_08h24.19.136,HF_wild_card,2022.2.4,Win32,60.0348202,63cfdefcf2ee0355b64d6f03,64d2fd46c836a06233681665,64dc79854101032082a1d435,,,,,,,decisionTrl,resources/DG.BMP,resources/DP.BMP,WildCard_NonEx,-0.310185185,0.032407407,1,0,0,1.3975,optionLeft,45,2620,2,4,0,4,0,1,,,,,,,,,,,,,,,,,,,,,,,,,,,,,,,,,,,,,,,
,,,,,,,,2023-08-16_08h24.19.136,HF_wild_card,2022.2.4,Win32,60.0348202,63cfdefcf2ee0355b64d6f03,64d2fd46c836a06233681665,64dc79854101032082a1d435,,,,,,,sngl,resources/Empty.png,resources/DG.BMP,WildCard_NonEx,0.294444444,-0.014814815,1,0,0,0.7807,optionRight,45,2665,2,5,0,5,0,1,,,,,,,,,,,,,,,,,,,,,,,,,,,,,,,,,,,,,,,
,,,,,,,,2023-08-16_08h24.19.136,HF_wild_card,2022.2.4,Win32,60.0348202,63cfdefcf2ee0355b64d6f03,64d2fd46c836a06233681665,64dc79854101032082a1d435,,,,,,,sngl,resources/Empty.png,resources/DBN.BMP,Door4,0.262037037,0.001851852,1,0,0,0.7096,optionRight,80,2745,2,6,0,6,0,1,,,,,,,,,,,,,,,,,,,,,,,,,,,,,,,,,,,,,,,
,,,,,,,,2023-08-16_08h24.19.136,HF_wild_card,2022.2.4,Win32,60.0348202,63cfdefcf2ee0355b64d6f03,64d2fd46c836a06233681665,64dc79854101032082a1d435,,,,,,,sngl,resources/Empty.png,resources/DR.BMP,Door3,0.286111111,-0.000925926,1,0,0,0.6477,optionRight,70,2815,2,7,0,7,0,1,,,,,,,,,,,,,,,,,,,,,,,,,,,,,,,,,,,,,,,
,,,,,,,,2023-08-16_08h24.19.136,HF_wild_card,2022.2.4,Win32,60.0348202,63cfdefcf2ee0355b64d6f03,64d2fd46c836a06233681665,64dc79854101032082a1d435,,,,,,,decisionTrl,resources/DR.BMP,resources/DBN.BMP,Door4,0.364814815,-0.007407407,1,0,0,1.043,optionRight,60,2875,2,8,0,8,0,1,,,,,,,,,,,,,,,,,,,,,,,,,,,,,,,,,,,,,,,
,,,,,,,,2023-08-16_08h24.19.136,HF_wild_card,2022.2.4,Win32,60.0348202,63cfdefcf2ee0355b64d6f03,64d2fd46c836a06233681665,64dc79854101032082a1d435,,,,,,,decisionTrl,resources/DBN.BMP,resources/DG.BMP,Door4,-0.353703704,-0.001851852,1,0,0,1.4259,optionLeft,60,2935,2,9,0,9,0,1,,,,,,,,,,,,,,,,,,,,,,,,,,,,,,,,,,,,,,,
,,,,,,,,2023-08-16_08h24.19.136,HF_wild_card,2022.2.4,Win32,60.0348202,63cfdefcf2ee0355b64d6f03,64d2fd46c836a06233681665,64dc79854101032082a1d435,,,,,,,ctch,resources/DR.BMP,resources/DP.BMP,Door2,0.372222222,-0.048148148,1,0,0,1.7482,optionRight,20,2955,2,10,0,10,0,1,,,,,,,,,,,,,,,,,,,,,,,,,,,,,,,,,,,,,,,
,,,,,,,,2023-08-16_08h24.19.136,HF_wild_card,2022.2.4,Win32,60.0348202,63cfdefcf2ee0355b64d6f03,64d2fd46c836a06233681665,64dc79854101032082a1d435,,,,,,,decisionTrl,resources/DBN.BMP,resources/DR.BMP,Door4,-0.334259259,-0.002777778,1,0,0,0.7984,optionLeft,60,3015,2,11,0,11,0,1,,,,,,,,,,,,,,,,,,,,,,,,,,,,,,,,,,,,,,,
,,,,,,,,2023-08-16_08h24.19.136,HF_wild_card,2022.2.4,Win32,60.0348202,63cfdefcf2ee0355b64d6f03,64d2fd46c836a06233681665,64dc79854101032082a1d435,,,,,,,sngl,resources/DG.BMP,resources/Empty.png,WildCard_NonEx,-0.258333333,0.008333333,1,0,0,0.8977,optionLeft,45,3060,2,12,0,12,0,1,,,,,,,,,,,,,,,,,,,,,,,,,,,,,,,,,,,,,,,
,,,,,,,,2023-08-16_08h24.19.136,HF_wild_card,2022.2.4,Win32,60.0348202,63cfdefcf2ee0355b64d6f03,64d2fd46c836a06233681665,64dc79854101032082a1d435,,,,,,,decisionTrl,resources/DG.BMP,resources/DR.BMP,Door3,0.30462963,-0.000925926,1,0,0,2.1309,optionRight,70,3130,2,13,0,13,0,1,,,,,,,,,,,,,,,,,,,,,,,,,,,,,,,,,,,,,,,
,,,,,,,,2023-08-16_08h24.19.136,HF_wild_card,2022.2.4,Win32,60.0348202,63cfdefcf2ee0355b64d6f03,64d2fd46c836a06233681665,64dc79854101032082a1d435,,,,,,,sngl,resources/DG.BMP,resources/Empty.png,WildCard_NonEx,-0.343518519,0.012037037,1,0,0,0.9695,optionLeft,55,3185,2,14,0,14,0,1,,,,,,,,,,,,,,,,,,,,,,,,,,,,,,,,,,,,,,,
,,,,,,,,2023-08-16_08h24.19.136,HF_wild_card,2022.2.4,Win32,60.0348202,63cfdefcf2ee0355b64d6f03,64d2fd46c836a06233681665,64dc79854101032082a1d435,,,,,,,ctch,resources/DB.BMP,resources/DBN.BMP,Door4,0.342592593,0.025,1,0,0,0.7979,optionRight,60,3245,2,15,0,15,0,1,,,,,,,,,,,,,,,,,,,,,,,,,,,,,,,,,,,,,,,
,,,,,,,,2023-08-16_08h24.19.136,HF_wild_card,2022.2.4,Win32,60.0348202,63cfdefcf2ee0355b64d6f03,64d2fd46c836a06233681665,64dc79854101032082a1d435,,,,,,,ctch,resources/DBN.BMP,resources/DB.BMP,Door4,-0.342592593,0.028703704,1,0,0,1.0532,optionLeft,60,3305,2,16,0,16,0,1,,,,,,,,,,,,,,,,,,,,,,,,,,,,,,,,,,,,,,,
,,,,,,,,2023-08-16_08h24.19.136,HF_wild_card,2022.2.4,Win32,60.0348202,63cfdefcf2ee0355b64d6f03,64d2fd46c836a06233681665,64dc79854101032082a1d435,,,,,,,ctch,resources/DR.BMP,resources/DP.BMP,Door3,-0.306481481,0.012037037,1,0,0,1.2363,optionLeft,70,3375,2,17,0,17,0,1,,,,,,,,,,,,,,,,,,,,,,,,,,,,,,,,,,,,,,,
,,,,,,,,2023-08-16_08h24.19.136,HF_wild_card,2022.2.4,Win32,60.0348202,63cfdefcf2ee0355b64d6f03,64d2fd46c836a06233681665,64dc79854101032082a1d435,,,,,,,decisionTrl,resources/DR.BMP,resources/DBN.BMP,Door4,0.287037037,0.025925926,1,0,0,1.1763,optionRight,80,3455,2,18,0,18,0,1,,,,,,,,,,,,,,,,,,,,,,,,,,,,,,,,,,,,,,,
,,,,,,,,2023-08-16_08h24.19.136,HF_wild_card,2022.2.4,Win32,60.0348202,63cfdefcf2ee0355b64d6f03,64d2fd46c836a06233681665,64dc79854101032082a1d435,,,,,,,sngl,resources/Empty.png,resources/DG.BMP,WildCard_NonEx,0.219444444,0.026851852,1,0,0,0.9807,optionRight,55,3510,2,19,0,19,0,1,,,,,,,,,,,,,,,,,,,,,,,,,,,,,,,,,,,,,,,
,,,,,,,,2023-08-16_08h24.19.136,HF_wild_card,2022.2.4,Win32,60.0348202,63cfdefcf2ee0355b64d6f03,64d2fd46c836a06233681665,64dc79854101032082a1d435,,,,,,,decisionTrl,resources/DB.BMP,resources/DP.BMP,Door1,-0.309259259,0.030555556,1,0,0,1.1493,optionLeft,30,3540,2,20,0,20,0,1,,,,,,,,,,,,,,,,,,,,,,,,,,,,,,,,,,,,,,,
,,,,,,,,2023-08-16_08h24.19.136,HF_wild_card,2022.2.4,Win32,60.0348202,63cfdefcf2ee0355b64d6f03,64d2fd46c836a06233681665,64dc79854101032082a1d435,,,,,,,sngl,resources/DBN.BMP,resources/Empty.png,Door4,-0.25462963,0.037037037,1,0,0,0.7951,optionLeft,60,3600,2,21,0,21,0,1,,,,,,,,,,,,,,,,,,,,,,,,,,,,,,,,,,,,,,,
,,,,,,,,2023-08-16_08h24.19.136,HF_wild_card,2022.2.4,Win32,60.0348202,63cfdefcf2ee0355b64d6f03,64d2fd46c836a06233681665,64dc79854101032082a1d435,,,,,,,decisionTrl,resources/DBN.BMP,resources/DR.BMP,Door4,-0.305555556,0.064814815,1,0,0,0.8302,optionLeft,60,3660,2,22,0,22,0,1,,,,,,,,,,,,,,,,,,,,,,,,,,,,,,,,,,,,,,,
,,,,,,,,2023-08-16_08h24.19.136,HF_wild_card,2022.2.4,Win32,60.0348202,63cfdefcf2ee0355b64d6f03,64d2fd46c836a06233681665,64dc79854101032082a1d435,,,,,,,decisionTrl,resources/DP.BMP,resources/DG.BMP,WildCard_NonEx,0.205555556,0.00462963,1,0,0,1.5976,optionRight,45,3705,2,23,0,23,0,1,,,,,,,,,,,,,,,,,,,,,,,,,,,,,,,,,,,,,,,
,,,,,,,,2023-08-16_08h24.19.136,HF_wild_card,2022.2.4,Win32,60.0348202,63cfdefcf2ee0355b64d6f03,64d2fd46c836a06233681665,64dc79854101032082a1d435,,,,,,,decisionTrl,resources/DP.BMP,resources/DB.BMP,Door1,0.298148148,0.044444444,1,0,0,1.048,optionRight,30,3735,2,24,0,24,0,1,,,,,,,,,,,,,,,,,,,,,,,,,,,,,,,,,,,,,,,
,,,,,,,,2023-08-16_08h24.19.136,HF_wild_card,2022.2.4,Win32,60.0348202,63cfdefcf2ee0355b64d6f03,64d2fd46c836a06233681665,64dc79854101032082a1d435,,,,,,,sngl,resources/Empty.png,resources/DB.BMP,Door1,0.262962963,0.008333333,1,0,0,0.9086,optionRight,30,3765,2,25,0,25,0,1,,,,,,,,,,,,,,,,,,,,,,,,,,,,,,,,,,,,,,,
,,,,,,,,2023-08-16_08h24.19.136,HF_wild_card,2022.2.4,Win32,60.0348202,63cfdefcf2ee0355b64d6f03,64d2fd46c836a06233681665,64dc79854101032082a1d435,,,,,,,decisionTrl,resources/DP.BMP,resources/DB.BMP,Door1,0.272222222,0.006481481,1,0,0,3.031,optionRight,30,3795,2,26,0,26,0,1,,,,,,,,,,,,,,,,,,,,,,,,,,,,,,,,,,,,,,,
,,,,,,,,2023-08-16_08h24.19.136,HF_wild_card,2022.2.4,Win32,60.0348202,63cfdefcf2ee0355b64d6f03,64d2fd46c836a06233681665,64dc79854101032082a1d435,,,,,,,decisionTrl,resources/DR.BMP,resources/DG.BMP,WildCard_NonEx,0.336111111,0.039814815,1,0,0,0.981,optionRight,55,3850,2,27,0,27,0,1,,,,,,,,,,,,,,,,,,,,,,,,,,,,,,,,,,,,,,,
,,,,,,,,2023-08-16_08h24.19.136,HF_wild_card,2022.2.4,Win32,60.0348202,63cfdefcf2ee0355b64d6f03,64d2fd46c836a06233681665,64dc79854101032082a1d435,,,,,,,decisionTrl,resources/DB.BMP,resources/DP.BMP,Door1,-0.275925926,-0.025,1,0,0,1.2855,optionLeft,30,3880,2,28,0,28,0,1,,,,,,,,,,,,,,,,,,,,,,,,,,,,,,,,,,,,,,,
,,,,,,,,2023-08-16_08h24.19.136,HF_wild_card,2022.2.4,Win32,60.0348202,63cfdefcf2ee0355b64d6f03,64d2fd46c836a06233681665,64dc79854101032082a1d435,,,,,,,ctch,resources/DP.BMP,resources/DR.BMP,Door3,0.389814815,-0.006481481,1,0,0,1.4597,optionRight,70,3950,2,29,0,29,0,1,,,,,,,,,,,,,,,,,,,,,,,,,,,,,,,,,,,,,,,
,,,,,,,,2023-08-16_08h24.19.136,HF_wild_card,2022.2.4,Win32,60.0348202,63cfdefcf2ee0355b64d6f03,64d2fd46c836a06233681665,64dc79854101032082a1d435,,,,,,,sngl,resources/Empty.png,resources/DP.BMP,Door2,0.247222222,-0.005555556,1,0,0,1.0642,optionRight,40,3990,2,30,0,30,0,1,,,,,,,,,,,,,,,,,,,,,,,,,,,,,,,,,,,,,,,
,,,,,,,,2023-08-16_08h24.19.136,HF_wild_card,2022.2.4,Win32,60.0348202,63cfdefcf2ee0355b64d6f03,64d2fd46c836a06233681665,64dc79854101032082a1d435,,,,,,,ctch,resources/DB.BMP,resources/DBN.BMP,Door4,0.397222222,-0.011111111,1,0,0,0.844,optionRight,60,4050,2,31,0,31,0,1,,,,,,,,,,,,,,,,,,,,,,,,,,,,,,,,,,,,,,,
,,,,,,,,2023-08-16_08h24.19.136,HF_wild_card,2022.2.4,Win32,60.0348202,63cfdefcf2ee0355b64d6f03,64d2fd46c836a06233681665,64dc79854101032082a1d435,,,,,,,ctch,resources/DBN.BMP,resources/DB.BMP,Door4,-0.343518519,0.021296296,1,0,0,0.9596,optionLeft,60,4110,2,32,0,32,0,1,,,,,,,,,,,,,,,,,,,,,,,,,,,,,,,,,,,,,,,
,,,,,,,,2023-08-16_08h24.19.136,HF_wild_card,2022.2.4,Win32,60.0348202,63cfdefcf2ee0355b64d6f03,64d2fd46c836a06233681665,64dc79854101032082a1d435,,,,,,,sngl,resources/DR.BMP,resources/Empty.png,Door3,-0.282407407,0.042592593,1,0,0,0.9981,optionLeft,70,4180,2,33,0,33,0,1,,,,,,,,,,,,,,,,,,,,,,,,,,,,,,,,,,,,,,,
,,,,,,,,2023-08-16_08h24.19.136,HF_wild_card,2022.2.4,Win32,60.0348202,63cfdefcf2ee0355b64d6f03,64d2fd46c836a06233681665,64dc79854101032082a1d435,,,,,,,decisionTrl,resources/DR.BMP,resources/DBN.BMP,Door4,0.278703704,-0.006481481,1,0,0,1.4318,optionRight,60,4240,2,34,0,34,0,1,,,,,,,,,,,,,,,,,,,,,,,,,,,,,,,,,,,,,,,
,,,,,,,,2023-08-16_08h24.19.136,HF_wild_card,2022.2.4,Win32,60.0348202,63cfdefcf2ee0355b64d6f03,64d2fd46c836a06233681665,64dc79854101032082a1d435,,,,,,,decisionTrl,resources/DB.BMP,resources/DP.BMP,Door1,-0.226851852,0.012962963,1,0,0,0.9261,optionLeft,30,4270,2,35,0,35,0,1,,,,,,,,,,,,,,,,,,,,,,,,,,,,,,,,,,,,,,,
,,,,,,,,2023-08-16_08h24.19.136,HF_wild_card,2022.2.4,Win32,60.0348202,63cfdefcf2ee0355b64d6f03,64d2fd46c836a06233681665,64dc79854101032082a1d435,,,,,,,sngl,resources/DB.BMP,resources/Empty.png,Door1,-0.300925926,0.018518519,1,0,0,0.798,optionLeft,30,4300,2,36,0,36,0,1,,,,,,,,,,,,,,,,,,,,,,,,,,,,,,,,,,,,,,,
,,,,,,,,2023-08-16_08h24.19.136,HF_wild_card,2022.2.4,Win32,60.0348202,63cfdefcf2ee0355b64d6f03,64d2fd46c836a06233681665,64dc79854101032082a1d435,,,,,,,decisionTrl,resources/DBN.BMP,resources/DR.BMP,Door4,-0.194444444,0.040740741,1,0,0,3.7424,optionLeft,80,4380,2,37,0,37,0,1,,,,,,,,,,,,,,,,,,,,,,,,,,,,,,,,,,,,,,,
,,,,,,,,2023-08-16_08h24.19.136,HF_wild_card,2022.2.4,Win32,60.0348202,63cfdefcf2ee0355b64d6f03,64d2fd46c836a06233681665,64dc79854101032082a1d435,,,,,,,decisionTrl,resources/DR.BMP,resources/DBN.BMP,Door4,0.339814815,0.017592593,1,0,0,0.8972,optionRight,60,4440,2,38,0,38,0,1,,,,,,,,,,,,,,,,,,,,,,,,,,,,,,,,,,,,,,,
,,,,,,,,2023-08-16_08h24.19.136,HF_wild_card,2022.2.4,Win32,60.0348202,63cfdefcf2ee0355b64d6f03,64d2fd46c836a06233681665,64dc79854101032082a1d435,,,,,,,decisionTrl,resources/DP.BMP,resources/DB.BMP,Door1,0.267592593,0,1,0,0,0.9145,optionRight,30,4470,2,39,0,39,0,1,,,,,,,,,,,,,,,,,,,,,,,,,,,,,,,,,,,,,,,
,,,,,,,,2023-08-16_08h24.19.136,HF_wild_card,2022.2.4,Win32,60.0348202,63cfdefcf2ee0355b64d6f03,64d2fd46c836a06233681665,64dc79854101032082a1d435,,,,,,,sngl,resources/DP.BMP,resources/Empty.png,Door2,-0.262962963,0.012962963,1,0,0,0.7861,optionLeft,20,4490,2,40,0,40,0,1,,,,,,,,,,,,,,,,,,,,,,,,,,,,,,,,,,,,,,,
,,,,,,,,2023-08-16_08h24.19.136,HF_wild_card,2022.2.4,Win32,60.0348202,63cfdefcf2ee0355b64d6f03,64d2fd46c836a06233681665,64dc79854101032082a1d435,,,,,,,decisionTrl,resources/DBN.BMP,resources/DR.BMP,Door4,-0.305555556,0.022222222,1,0,0,1.0449,optionLeft,80,4570,2,41,0,41,0,1,,,,,,,,,,,,,,,,,,,,,,,,,,,,,,,,,,,,,,,
,,,,,,,,2023-08-16_08h24.19.136,HF_wild_card,2022.2.4,Win32,60.0348202,63cfdefcf2ee0355b64d6f03,64d2fd46c836a06233681665,64dc79854101032082a1d435,,,,,,,decisionTrl,resources/DG.BMP,resources/DB.BMP,WildCard_NonEx,-0.283333333,0.035185185,1,0,0,2.195,optionLeft,45,4615,2,42,0,42,0,1,,,,,,,,,,,,,,,,,,,,,,,,,,,,,,,,,,,,,,,
,,,,,,,,2023-08-16_08h24.19.136,HF_wild_card,2022.2.4,Win32,60.0348202,63cfdefcf2ee0355b64d6f03,64d2fd46c836a06233681665,64dc79854101032082a1d435,,,,,,,decisionTrl,resources/DG.BMP,resources/DBN.BMP,Door4,0.469444444,0.010185185,1,0,0,0.9145,optionRight,80,4695,2,43,0,43,0,1,,,,,,,,,,,,,,,,,,,,,,,,,,,,,,,,,,,,,,,
,,,,,,,,2023-08-16_08h24.19.136,HF_wild_card,2022.2.4,Win32,60.0348202,63cfdefcf2ee0355b64d6f03,64d2fd46c836a06233681665,64dc79854101032082a1d435,,,,,,,,,,,,,,,,,,,,,,,,,,1,0,1,0,1,,,,,,,,,,,,,,,,,,,,,,,,,,,,,,,,,,
,,,,,,,,2023-08-16_08h24.19.136,HF_wild_card,2022.2.4,Win32,60.0348202,63cfdefcf2ee0355b64d6f03,64d2fd46c836a06233681665,64dc79854101032082a1d435,,,,,,,sngl,resources/DP.BMP,resources/Empty.png,Door2,-0.239814815,-0.137962963,1,0,0,0.9224,optionLeft,40,4735,3,0,0,0,0,1,,,,,,,,,,,,,,,,,,,,,,,,,,,,,,,,,,,,,,,
,,,,,,,,2023-08-16_08h24.19.136,HF_wild_card,2022.2.4,Win32,60.0348202,63cfdefcf2ee0355b64d6f03,64d2fd46c836a06233681665,64dc79854101032082a1d435,,,,,,,decisionTrl,resources/DBN.BMP,resources/DR.BMP,Door4,-0.313888889,0,1,0,0,0.8107,optionLeft,80,4815,3,1,0,1,0,1,,,,,,,,,,,,,,,,,,,,,,,,,,,,,,,,,,,,,,,
,,,,,,,,2023-08-16_08h24.19.136,HF_wild_card,2022.2.4,Win32,60.0348202,63cfdefcf2ee0355b64d6f03,64d2fd46c836a06233681665,64dc79854101032082a1d435,,,,,,,ctch,resources/DP.BMP,resources/DR.BMP,Door3,0.314814815,0.090740741,1,0,0,5.5478,optionRight,70,4885,3,2,0,2,0,1,,,,,,,,,,,,,,,,,,,,,,,,,,,,,,,,,,,,,,,
,,,,,,,,2023-08-16_08h24.19.136,HF_wild_card,2022.2.4,Win32,60.0348202,63cfdefcf2ee0355b64d6f03,64d2fd46c836a06233681665,64dc79854101032082a1d435,,,,,,,ctch,resources/DR.BMP,resources/DP.BMP,Door3,-0.338888889,-0.018518519,1,0,0,0.8811,optionLeft,70,4955,3,3,0,3,0,1,,,,,,,,,,,,,,,,,,,,,,,,,,,,,,,,,,,,,,,
,,,,,,,,2023-08-16_08h24.19.136,HF_wild_card,2022.2.4,Win32,60.0348202,63cfdefcf2ee0355b64d6f03,64d2fd46c836a06233681665,64dc79854101032082a1d435,,,,,,,decisionTrl,resources/DP.BMP,resources/DG.BMP,WildCard_NonEx,0.503703704,-0.013888889,1,0,0,89.113,optionRight,55,5010,3,4,0,4,0,1,,,,,,,,,,,,,,,,,,,,,,,,,,,,,,,,,,,,,,,
,,,,,,,,2023-08-16_08h24.19.136,HF_wild_card,2022.2.4,Win32,60.0348202,63cfdefcf2ee0355b64d6f03,64d2fd46c836a06233681665,64dc79854101032082a1d435,,,,,,,decisionTrl,resources/DG.BMP,resources/DR.BMP,Door3,0.357407407,-0.07037037,1,0,0,123.3074,optionRight,70,5080,3,5,0,5,0,1,,,,,,,,,,,,,,,,,,,,,,,,,,,,,,,,,,,,,,,
,,,,,,,,2023-08-16_08h24.19.136,HF_wild_card,2022.2.4,Win32,60.0348202,63cfdefcf2ee0355b64d6f03,64d2fd46c836a06233681665,64dc79854101032082a1d435,,,,,,,decisionTrl,resources/DR.BMP,resources/DBN.BMP,Door4,0.275,-0.042592593,1,0,0,0.7307,optionRight,80,5160,3,6,0,6,0,1,,,,,,,,,,,,,,,,,,,,,,,,,,,,,,,,,,,,,,,
,,,,,,,,2023-08-16_08h24.19.136,HF_wild_card,2022.2.4,Win32,60.0348202,63cfdefcf2ee0355b64d6f03,64d2fd46c836a06233681665,64dc79854101032082a1d435,,,,,,,decisionTrl,resources/DB.BMP,resources/DP.BMP,Door1,-0.293518519,-0.027777778,1,0,0,1.0644,optionLeft,30,5190,3,7,0,7,0,1,,,,,,,,,,,,,,,,,,,,,,,,,,,,,,,,,,,,,,,
,,,,,,,,2023-08-16_08h24.19.136,HF_wild_card,2022.2.4,Win32,60.0348202,63cfdefcf2ee0355b64d6f03,64d2fd46c836a06233681665,64dc79854101032082a1d435,,,,,,,decisionTrl,resources/DG.BMP,resources/DBN.BMP,Door4,0.305555556,-0.00462963,1,0,0,0.6638,optionRight,60,5250,3,8,0,8,0,1,,,,,,,,,,,,,,,,,,,,,,,,,,,,,,,,,,,,,,,
,,,,,,,,2023-08-16_08h24.19.136,HF_wild_card,2022.2.4,Win32,60.0348202,63cfdefcf2ee0355b64d6f03,64d2fd46c836a06233681665,64dc79854101032082a1d435,,,,,,,sngl,resources/DG.BMP,resources/Empty.png,WildCard_NonEx,-0.288888889,0.019444444,1,0,0,0.663,optionLeft,45,5295,3,9,0,9,0,1,,,,,,,,,,,,,,,,,,,,,,,,,,,,,,,,,,,,,,,
,,,,,,,,2023-08-16_08h24.19.136,HF_wild_card,2022.2.4,Win32,60.0348202,63cfdefcf2ee0355b64d6f03,64d2fd46c836a06233681665,64dc79854101032082a1d435,,,,,,,ctch,resources/DBN.BMP,resources/DB.BMP,Door4,-0.291666667,0.027777778,1,0,0,0.6651,optionLeft,60,5355,3,10,0,10,0,1,,,,,,,,,,,,,,,,,,,,,,,,,,,,,,,,,,,,,,,
,,,,,,,,2023-08-16_08h24.19.136,HF_wild_card,2022.2.4,Win32,60.0348202,63cfdefcf2ee0355b64d6f03,64d2fd46c836a06233681665,64dc79854101032082a1d435,,,,,,,ctch,resources/DP.BMP,resources/DR.BMP,Door3,0.178703704,0.002777778,1,0,0,0.9477,optionRight,70,5425,3,11,0,11,0,1,,,,,,,,,,,,,,,,,,,,,,,,,,,,,,,,,,,,,,,
,,,,,,,,2023-08-16_08h24.19.136,HF_wild_card,2022.2.4,Win32,60.0348202,63cfdefcf2ee0355b64d6f03,64d2fd46c836a06233681665,64dc79854101032082a1d435,,,,,,,decisionTrl,resources/DB.BMP,resources/DG.BMP,WildCard_NonEx,0.365740741,0.005555556,1,0,0,0.7096,optionRight,45,5470,3,12,0,12,0,1,,,,,,,,,,,,,,,,,,,,,,,,,,,,,,,,,,,,,,,
,,,,,,,,2023-08-16_08h24.19.136,HF_wild_card,2022.2.4,Win32,60.0348202,63cfdefcf2ee0355b64d6f03,64d2fd46c836a06233681665,64dc79854101032082a1d435,,,,,,,decisionTrl,resources/DBN.BMP,resources/DR.BMP,Door4,-0.337962963,0.001851852,1,0,0,0.8975,optionLeft,60,5530,3,13,0,13,0,1,,,,,,,,,,,,,,,,,,,,,,,,,,,,,,,,,,,,,,,
,,,,,,,,2023-08-16_08h24.19.136,HF_wild_card,2022.2.4,Win32,60.0348202,63cfdefcf2ee0355b64d6f03,64d2fd46c836a06233681665,64dc79854101032082a1d435,,,,,,,decisionTrl,resources/DB.BMP,resources/DP.BMP,Door2,0.337037037,-0.016666667,1,0,0,0.7812,optionRight,20,5550,3,14,0,14,0,1,,,,,,,,,,,,,,,,,,,,,,,,,,,,,,,,,,,,,,,
,,,,,,,,2023-08-16_08h24.19.136,HF_wild_card,2022.2.4,Win32,60.0348202,63cfdefcf2ee0355b64d6f03,64d2fd46c836a06233681665,64dc79854101032082a1d435,,,,,,,decisionTrl,resources/DBN.BMP,resources/DR.BMP,Door4,-0.314814815,0.022222222,1,0,0,0.7179,optionLeft,60,5610,3,15,0,15,0,1,,,,,,,,,,,,,,,,,,,,,,,,,,,,,,,,,,,,,,,
,,,,,,,,2023-08-16_08h24.19.136,HF_wild_card,2022.2.4,Win32,60.0348202,63cfdefcf2ee0355b64d6f03,64d2fd46c836a06233681665,64dc79854101032082a1d435,,,,,,,decisionTrl,resources/DBN.BMP,resources/DG.BMP,Door4,-0.323148148,0.022222222,1,0,0,0.6819,optionLeft,80,5690,3,16,0,16,0,1,,,,,,,,,,,,,,,,,,,,,,,,,,,,,,,,,,,,,,,
,,,,,,,,2023-08-16_08h24.19.136,HF_wild_card,2022.2.4,Win32,60.0348202,63cfdefcf2ee0355b64d6f03,64d2fd46c836a06233681665,64dc79854101032082a1d435,,,,,,,sngl,resources/DR.BMP,resources/Empty.png,Door3,-0.276851852,0.032407407,1,0,0,0.7362,optionLeft,70,5760,3,17,0,17,0,1,,,,,,,,,,,,,,,,,,,,,,,,,,,,,,,,,,,,,,,
,,,,,,,,2023-08-16_08h24.19.136,HF_wild_card,2022.2.4,Win32,60.0348202,63cfdefcf2ee0355b64d6f03,64d2fd46c836a06233681665,64dc79854101032082a1d435,,,,,,,decisionTrl,resources/DG.BMP,resources/DP.BMP,WildCard_NonEx,-0.275925926,-0.005555556,1,0,0,1.0197,optionLeft,45,5805,3,18,0,18,0,1,,,,,,,,,,,,,,,,,,,,,,,,,,,,,,,,,,,,,,,
,,,,,,,,2023-08-16_08h24.19.136,HF_wild_card,2022.2.4,Win32,60.0348202,63cfdefcf2ee0355b64d6f03,64d2fd46c836a06233681665,64dc79854101032082a1d435,,,,,,,decisionTrl,resources/DR.BMP,resources/DG.BMP,Door3,-0.292592593,0.000925926,1,0,0,0.7758,optionLeft,70,5875,3,19,0,19,0,1,,,,,,,,,,,,,,,,,,,,,,,,,,,,,,,,,,,,,,,
,,,,,,,,2023-08-16_08h24.19.136,HF_wild_card,2022.2.4,Win32,60.0348202,63cfdefcf2ee0355b64d6f03,64d2fd46c836a06233681665,64dc79854101032082a1d435,,,,,,,decisionTrl,resources/DG.BMP,resources/DB.BMP,WildCard_NonEx,-0.299074074,0.012037037,1,0,0,0.719,optionLeft,45,5920,3,20,0,20,0,1,,,,,,,,,,,,,,,,,,,,,,,,,,,,,,,,,,,,,,,
,,,,,,,,2023-08-16_08h24.19.136,HF_wild_card,2022.2.4,Win32,60.0348202,63cfdefcf2ee0355b64d6f03,64d2fd46c836a06233681665,64dc79854101032082a1d435,,,,,,,decisionTrl,resources/DR.BMP,resources/DBN.BMP,Door4,0.387037037,0.041666667,1,0,0,0.7752,optionRight,60,5980,3,21,0,21,0,1,,,,,,,,,,,,,,,,,,,,,,,,,,,,,,,,,,,,,,,
,,,,,,,,2023-08-16_08h24.19.136,HF_wild_card,2022.2.4,Win32,60.0348202,63cfdefcf2ee0355b64d6f03,64d2fd46c836a06233681665,64dc79854101032082a1d435,,,,,,,decisionTrl,resources/DR.BMP,resources/DBN.BMP,Door3,-0.231481481,0.007407407,1,0,0,0.9032,optionLeft,70,6050,3,22,0,22,0,1,,,,,,,,,,,,,,,,,,,,,,,,,,,,,,,,,,,,,,,
,,,,,,,,2023-08-16_08h24.19.136,HF_wild_card,2022.2.4,Win32,60.0348202,63cfdefcf2ee0355b64d6f03,64d2fd46c836a06233681665,64dc79854101032082a1d435,,,,,,,decisionTrl,resources/DB.BMP,resources/DP.BMP,Door1,-0.218518519,0.007407407,1,0,0,1.3928,optionLeft,30,6080,3,23,0,23,0,1,,,,,,,,,,,,,,,,,,,,,,,,,,,,,,,,,,,,,,,
,,,,,,,,2023-08-16_08h24.19.136,HF_wild_card,2022.2.4,Win32,60.0348202,63cfdefcf2ee0355b64d6f03,64d2fd46c836a06233681665,64dc79854101032082a1d435,,,,,,,decisionTrl,resources/DR.BMP,resources/DBN.BMP,Door3,-0.291666667,0.022222222,1,0,0,1.1033,optionLeft,70,6150,3,24,0,24,0,1,,,,,,,,,,,,,,,,,,,,,,,,,,,,,,,,,,,,,,,
,,,,,,,,2023-08-16_08h24.19.136,HF_wild_card,2022.2.4,Win32,60.0348202,63cfdefcf2ee0355b64d6f03,64d2fd46c836a06233681665,64dc79854101032082a1d435,,,,,,,sngl,resources/DBN.BMP,resources/Empty.png,Door4,-0.280555556,0.026851852,1,0,0,0.6977,optionLeft,80,6230,3,25,0,25,0,1,,,,,,,,,,,,,,,,,,,,,,,,,,,,,,,,,,,,,,,
,,,,,,,,2023-08-16_08h24.19.136,HF_wild_card,2022.2.4,Win32,60.0348202,63cfdefcf2ee0355b64d6f03,64d2fd46c836a06233681665,64dc79854101032082a1d435,,,,,,,ctch,resources/DR.BMP,resources/DP.BMP,Door3,-0.287962963,0.042592593,1,0,0,0.7974,optionLeft,70,6300,3,26,0,26,0,1,,,,,,,,,,,,,,,,,,,,,,,,,,,,,,,,,,,,,,,
,,,,,,,,2023-08-16_08h24.19.136,HF_wild_card,2022.2.4,Win32,60.0348202,63cfdefcf2ee0355b64d6f03,64d2fd46c836a06233681665,64dc79854101032082a1d435,,,,,,,ctch,resources/DB.BMP,resources/DBN.BMP,Door4,0.288888889,0.039814815,1,0,0,0.6481,optionRight,80,6380,3,27,0,27,0,1,,,,,,,,,,,,,,,,,,,,,,,,,,,,,,,,,,,,,,,
,,,,,,,,2023-08-16_08h24.19.136,HF_wild_card,2022.2.4,Win32,60.0348202,63cfdefcf2ee0355b64d6f03,64d2fd46c836a06233681665,64dc79854101032082a1d435,,,,,,,sngl,resources/Empty.png,resources/DG.BMP,WildCard_NonEx,0.244444444,-0.00462963,1,0,0,0.8643,optionRight,55,6435,3,28,0,28,0,1,,,,,,,,,,,,,,,,,,,,,,,,,,,,,,,,,,,,,,,
,,,,,,,,2023-08-16_08h24.19.136,HF_wild_card,2022.2.4,Win32,60.0348202,63cfdefcf2ee0355b64d6f03,64d2fd46c836a06233681665,64dc79854101032082a1d435,,,,,,,decisionTrl,resources/DBN.BMP,resources/DR.BMP,Door4,-0.335185185,0.025,1,0,0,0.6985,optionLeft,80,6515,3,29,0,29,0,1,,,,,,,,,,,,,,,,,,,,,,,,,,,,,,,,,,,,,,,
,,,,,,,,2023-08-16_08h24.19.136,HF_wild_card,2022.2.4,Win32,60.0348202,63cfdefcf2ee0355b64d6f03,64d2fd46c836a06233681665,64dc79854101032082a1d435,,,,,,,sngl,resources/Empty.png,resources/DG.BMP,WildCard_NonEx,0.346296296,0.04537037,1,0,0,0.7025,optionRight,45,6560,3,30,0,30,0,1,,,,,,,,,,,,,,,,,,,,,,,,,,,,,,,,,,,,,,,
,,,,,,,,2023-08-16_08h24.19.136,HF_wild_card,2022.2.4,Win32,60.0348202,63cfdefcf2ee0355b64d6f03,64d2fd46c836a06233681665,64dc79854101032082a1d435,,,,,,,sngl,resources/DG.BMP,resources/Empty.png,WildCard_NonEx,-0.271296296,0.018518519,1,0,0,0.6864,optionLeft,55,6615,3,31,0,31,0,1,,,,,,,,,,,,,,,,,,,,,,,,,,,,,,,,,,,,,,,
,,,,,,,,2023-08-16_08h24.19.136,HF_wild_card,2022.2.4,Win32,60.0348202,63cfdefcf2ee0355b64d6f03,64d2fd46c836a06233681665,64dc79854101032082a1d435,,,,,,,ctch,resources/DBN.BMP,resources/DB.BMP,Door4,-0.338888889,0.052777778,1,0,0,0.8484,optionLeft,80,6695,3,32,0,32,0,1,,,,,,,,,,,,,,,,,,,,,,,,,,,,,,,,,,,,,,,
,,,,,,,,2023-08-16_08h24.19.136,HF_wild_card,2022.2.4,Win32,60.0348202,63cfdefcf2ee0355b64d6f03,64d2fd46c836a06233681665,64dc79854101032082a1d435,,,,,,,sngl,resources/DB.BMP,resources/Empty.png,Door1,-0.235185185,0.047222222,1,0,0,0.9698,optionLeft,30,6725,3,33,0,33,0,1,,,,,,,,,,,,,,,,,,,,,,,,,,,,,,,,,,,,,,,
,,,,,,,,2023-08-16_08h24.19.136,HF_wild_card,2022.2.4,Win32,60.0348202,63cfdefcf2ee0355b64d6f03,64d2fd46c836a06233681665,64dc79854101032082a1d435,,,,,,,decisionTrl,resources/DP.BMP,resources/DB.BMP,Door1,0.283333333,0.002777778,1,0,0,1.0646,optionRight,30,6755,3,34,0,34,0,1,,,,,,,,,,,,,,,,,,,,,,,,,,,,,,,,,,,,,,,
,,,,,,,,2023-08-16_08h24.19.136,HF_wild_card,2022.2.4,Win32,60.0348202,63cfdefcf2ee0355b64d6f03,64d2fd46c836a06233681665,64dc79854101032082a1d435,,,,,,,sngl,resources/Empty.png,resources/DBN.BMP,Door4,0.27037037,0.014814815,1,0,0,0.6695,optionRight,60,6815,3,35,0,35,0,1,,,,,,,,,,,,,,,,,,,,,,,,,,,,,,,,,,,,,,,
,,,,,,,,2023-08-16_08h24.19.136,HF_wild_card,2022.2.4,Win32,60.0348202,63cfdefcf2ee0355b64d6f03,64d2fd46c836a06233681665,64dc79854101032082a1d435,,,,,,,ctch,resources/DB.BMP,resources/DBN.BMP,Door4,0.241666667,-0.001851852,1,0,0,2.7313,optionRight,60,6875,3,36,0,36,0,1,,,,,,,,,,,,,,,,,,,,,,,,,,,,,,,,,,,,,,,
,,,,,,,,2023-08-16_08h24.19.136,HF_wild_card,2022.2.4,Win32,60.0348202,63cfdefcf2ee0355b64d6f03,64d2fd46c836a06233681665,64dc79854101032082a1d435,,,,,,,decisionTrl,resources/DP.BMP,resources/DB.BMP,Door1,0.194444444,0.007407407,1,0,0,1.2812,optionRight,30,6905,3,37,0,37,0,1,,,,,,,,,,,,,,,,,,,,,,,,,,,,,,,,,,,,,,,
,,,,,,,,2023-08-16_08h24.19.136,HF_wild_card,2022.2.4,Win32,60.0348202,63cfdefcf2ee0355b64d6f03,64d2fd46c836a06233681665,64dc79854101032082a1d435,,,,,,,sngl,resources/Empty.png,resources/DP.BMP,Door2,0.194444444,0.017592593,1,0,0,1.0148,optionRight,20,6925,3,38,0,38,0,1,,,,,,,,,,,,,,,,,,,,,,,,,,,,,,,,,,,,,,,
,,,,,,,,2023-08-16_08h24.19.136,HF_wild_card,2022.2.4,Win32,60.0348202,63cfdefcf2ee0355b64d6f03,64d2fd46c836a06233681665,64dc79854101032082a1d435,,,,,,,decisionTrl,resources/DP.BMP,resources/DB.BMP,Door1,0.227777778,-0.003703704,1,0,0,0.8146,optionRight,30,6955,3,39,0,39,0,1,,,,,,,,,,,,,,,,,,,,,,,,,,,,,,,,,,,,,,,
,,,,,,,,2023-08-16_08h24.19.136,HF_wild_card,2022.2.4,Win32,60.0348202,63cfdefcf2ee0355b64d6f03,64d2fd46c836a06233681665,64dc79854101032082a1d435,,,,,,,sngl,resources/Empty.png,resources/DB.BMP,Door1,0.252777778,-0.003703704,1,0,0,0.5644,optionRight,30,6985,3,40,0,40,0,1,,,,,,,,,,,,,,,,,,,,,,,,,,,,,,,,,,,,,,,
,,,,,,,,2023-08-16_08h24.19.136,HF_wild_card,2022.2.4,Win32,60.0348202,63cfdefcf2ee0355b64d6f03,64d2fd46c836a06233681665,64dc79854101032082a1d435,,,,,,,sngl,resources/Empty.png,resources/DR.BMP,Door3,0.256481481,0.001851852,1,0,0,0.6315,optionRight,70,7055,3,41,0,41,0,1,,,,,,,,,,,,,,,,,,,,,,,,,,,,,,,,,,,,,,,
,,,,,,,,2023-08-16_08h24.19.136,HF_wild_card,2022.2.4,Win32,60.0348202,63cfdefcf2ee0355b64d6f03,64d2fd46c836a06233681665,64dc79854101032082a1d435,,,,,,,decisionTrl,resources/DP.BMP,resources/DB.BMP,Door1,0.272222222,0.009259259,1,0,0,1.2803,optionRight,30,7085,3,42,0,42,0,1,,,,,,,,,,,,,,,,,,,,,,,,,,,,,,,,,,,,,,,
,,,,,,,,2023-08-16_08h24.19.136,HF_wild_card,2022.2.4,Win32,60.0348202,63cfdefcf2ee0355b64d6f03,64d2fd46c836a06233681665,64dc79854101032082a1d435,,,,,,,decisionTrl,resources/DB.BMP,resources/DP.BMP,Door1,-0.305555556,0.002777778,1,0,0,1.0146,optionLeft,30,7115,3,43,0,43,0,1,,,,,,,,,,,,,,,,,,,,,,,,,,,,,,,,,,,,,,,
,,,,,,,,2023-08-16_08h24.19.136,HF_wild_card,2022.2.4,Win32,60.0348202,63cfdefcf2ee0355b64d6f03,64d2fd46c836a06233681665,64dc79854101032082a1d435,,,,,,,,,,,,,,,,,,,,,,,,,,2,0,2,0,1,,,,,,,,,,,,,,,,,,,,,,,,,,,,,,,,,,
,,,,,,,,2023-08-16_08h24.19.136,HF_wild_card,2022.2.4,Win32,60.0348202,63cfdefcf2ee0355b64d6f03,64d2fd46c836a06233681665,64dc79854101032082a1d435,,,,,,,decisionTrl,resources/DP.BMP,resources/DB.BMP,Door1,0.242592593,-0.011111111,1,0,0,1.9163,optionRight,30,7145,4,0,0,0,0,1,,,,,,,,,,,,,,,,,,,,,,,,,,,,,,,,,,,,,,,
,,,,,,,,2023-08-16_08h24.19.136,HF_wild_card,2022.2.4,Win32,60.0348202,63cfdefcf2ee0355b64d6f03,64d2fd46c836a06233681665,64dc79854101032082a1d435,,,,,,,decisionTrl,resources/DR.BMP,resources/DBN.BMP,Door4,0.252777778,-0.017592593,1,0,0,0.7099,optionRight,80,7225,4,1,0,1,0,1,,,,,,,,,,,,,,,,,,,,,,,,,,,,,,,,,,,,,,,
,,,,,,,,2023-08-16_08h24.19.136,HF_wild_card,2022.2.4,Win32,60.0348202,63cfdefcf2ee0355b64d6f03,64d2fd46c836a06233681665,64dc79854101032082a1d435,,,,,,,ctch,resources/DB.BMP,resources/DBN.BMP,Door4,0.258333333,-0.011111111,1,0,0,0.62,optionRight,80,7305,4,2,0,2,0,1,,,,,,,,,,,,,,,,,,,,,,,,,,,,,,,,,,,,,,,
,,,,,,,,2023-08-16_08h24.19.136,HF_wild_card,2022.2.4,Win32,60.0348202,63cfdefcf2ee0355b64d6f03,64d2fd46c836a06233681665,64dc79854101032082a1d435,,,,,,,decisionTrl,resources/DB.BMP,resources/DP.BMP,Door1,-0.347222222,0.002777778,1,0,0,0.931,optionLeft,30,7335,4,3,0,3,0,1,,,,,,,,,,,,,,,,,,,,,,,,,,,,,,,,,,,,,,,
,,,,,,,,2023-08-16_08h24.19.136,HF_wild_card,2022.2.4,Win32,60.0348202,63cfdefcf2ee0355b64d6f03,64d2fd46c836a06233681665,64dc79854101032082a1d435,,,,,,,sngl,resources/Empty.png,resources/DR.BMP,Door3,0.287037037,-0.00462963,1,0,0,0.7642,optionRight,70,7405,4,4,0,4,0,1,,,,,,,,,,,,,,,,,,,,,,,,,,,,,,,,,,,,,,,
,,,,,,,,2023-08-16_08h24.19.136,HF_wild_card,2022.2.4,Win32,60.0348202,63cfdefcf2ee0355b64d6f03,64d2fd46c836a06233681665,64dc79854101032082a1d435,,,,,,,decisionTrl,resources/DB.BMP,resources/DP.BMP,Door1,-0.302777778,0.007407407,1,0,0,0.7096,optionLeft,30,7435,4,5,0,5,0,1,,,,,,,,,,,,,,,,,,,,,,,,,,,,,,,,,,,,,,,
,,,,,,,,2023-08-16_08h24.19.136,HF_wild_card,2022.2.4,Win32,60.0348202,63cfdefcf2ee0355b64d6f03,64d2fd46c836a06233681665,64dc79854101032082a1d435,,,,,,,ctch,resources/DP.BMP,resources/DR.BMP,Door3,0.380555556,-0.000925926,1,0,0,1.032,optionRight,70,7505,4,6,0,6,0,1,,,,,,,,,,,,,,,,,,,,,,,,,,,,,,,,,,,,,,,
,,,,,,,,2023-08-16_08h24.19.136,HF_wild_card,2022.2.4,Win32,60.0348202,63cfdefcf2ee0355b64d6f03,64d2fd46c836a06233681665,64dc79854101032082a1d435,,,,,,,decisionTrl,resources/DP.BMP,resources/DY.BMP,WildCard_Ex,0.324074074,-0.006481481,1,0,0,1.1309,optionRight,5,7510,4,7,0,7,0,1,,,,,,,,,,,,,,,,,,,,,,,,,,,,,,,,,,,,,,,
,,,,,,,,2023-08-16_08h24.19.136,HF_wild_card,2022.2.4,Win32,60.0348202,63cfdefcf2ee0355b64d6f03,64d2fd46c836a06233681665,64dc79854101032082a1d435,,,,,,,ctch,resources/DBN.BMP,resources/DB.BMP,Door4,-0.30462963,0.001851852,1,0,0,0.7807,optionLeft,80,7590,4,8,0,8,0,1,,,,,,,,,,,,,,,,,,,,,,,,,,,,,,,,,,,,,,,
,,,,,,,,2023-08-16_08h24.19.136,HF_wild_card,2022.2.4,Win32,60.0348202,63cfdefcf2ee0355b64d6f03,64d2fd46c836a06233681665,64dc79854101032082a1d435,,,,,,,decisionTrl,resources/DR.BMP,resources/DY.BMP,Door3,-0.307407407,0.023148148,1,0,0,1.3697,optionLeft,70,7660,4,9,0,9,0,1,,,,,,,,,,,,,,,,,,,,,,,,,,,,,,,,,,,,,,,
,,,,,,,,2023-08-16_08h24.19.136,HF_wild_card,2022.2.4,Win32,60.0348202,63cfdefcf2ee0355b64d6f03,64d2fd46c836a06233681665,64dc79854101032082a1d435,,,,,,,sngl,resources/Empty.png,resources/DY.BMP,WildCard_Ex,0.236111111,-0.085185185,1,0,0,72.6138,optionRight,5,7665,4,10,0,10,0,1,,,,,,,,,,,,,,,,,,,,,,,,,,,,,,,,,,,,,,,
,,,,,,,,2023-08-16_08h24.19.136,HF_wild_card,2022.2.4,Win32,60.0348202,63cfdefcf2ee0355b64d6f03,64d2fd46c836a06233681665,64dc79854101032082a1d435,,,,,,,decisionTrl,resources/DY.BMP,resources/DBN.BMP,Door4,0.227777778,-0.062962963,1,0,0,1.4645,optionRight,80,7745,4,11,0,11,0,1,,,,,,,,,,,,,,,,,,,,,,,,,,,,,,,,,,,,,,,
,,,,,,,,2023-08-16_08h24.19.136,HF_wild_card,2022.2.4,Win32,60.0348202,63cfdefcf2ee0355b64d6f03,64d2fd46c836a06233681665,64dc79854101032082a1d435,,,,,,,decisionTrl,resources/DB.BMP,resources/DP.BMP,Door1,-0.385185185,-0.059259259,1,0,0,47.2804,optionLeft,30,7775,4,12,0,12,0,1,,,,,,,,,,,,,,,,,,,,,,,,,,,,,,,,,,,,,,,
,,,,,,,,2023-08-16_08h24.19.136,HF_wild_card,2022.2.4,Win32,60.0348202,63cfdefcf2ee0355b64d6f03,64d2fd46c836a06233681665,64dc79854101032082a1d435,,,,,,,decisionTrl,resources/DBN.BMP,resources/DY.BMP,Door4,-0.301851852,-0.017592593,1,0,0,0.8262,optionLeft,80,7855,4,13,0,13,0,1,,,,,,,,,,,,,,,,,,,,,,,,,,,,,,,,,,,,,,,
,,,,,,,,2023-08-16_08h24.19.136,HF_wild_card,2022.2.4,Win32,60.0348202,63cfdefcf2ee0355b64d6f03,64d2fd46c836a06233681665,64dc79854101032082a1d435,,,,,,,decisionTrl,resources/DBN.BMP,resources/DR.BMP,Door4,-0.336111111,0.014814815,1,0,0,0.6431,optionLeft,60,7915,4,14,0,14,0,1,,,,,,,,,,,,,,,,,,,,,,,,,,,,,,,,,,,,,,,
,,,,,,,,2023-08-16_08h24.19.136,HF_wild_card,2022.2.4,Win32,60.0348202,63cfdefcf2ee0355b64d6f03,64d2fd46c836a06233681665,64dc79854101032082a1d435,,,,,,,decisionTrl,resources/DBN.BMP,resources/DR.BMP,Door4,-0.251851852,0.043518519,1,0,0,0.6103,optionLeft,80,7995,4,15,0,15,0,1,,,,,,,,,,,,,,,,,,,,,,,,,,,,,,,,,,,,,,,
,,,,,,,,2023-08-16_08h24.19.136,HF_wild_card,2022.2.4,Win32,60.0348202,63cfdefcf2ee0355b64d6f03,64d2fd46c836a06233681665,64dc79854101032082a1d435,,,,,,,decisionTrl,resources/DBN.BMP,resources/DR.BMP,Door4,-0.262037037,0.082407407,1,0,0,0.6642,optionLeft,60,8055,4,16,0,16,0,1,,,,,,,,,,,,,,,,,,,,,,,,,,,,,,,,,,,,,,,
,,,,,,,,2023-08-16_08h24.19.136,HF_wild_card,2022.2.4,Win32,60.0348202,63cfdefcf2ee0355b64d6f03,64d2fd46c836a06233681665,64dc79854101032082a1d435,,,,,,,sngl,resources/DP.BMP,resources/Empty.png,Door2,-0.243518519,0.055555556,1,0,0,0.7317,optionLeft,20,8075,4,17,0,17,0,1,,,,,,,,,,,,,,,,,,,,,,,,,,,,,,,,,,,,,,,
,,,,,,,,2023-08-16_08h24.19.136,HF_wild_card,2022.2.4,Win32,60.0348202,63cfdefcf2ee0355b64d6f03,64d2fd46c836a06233681665,64dc79854101032082a1d435,,,,,,,ctch,resources/DP.BMP,resources/DR.BMP,Door3,0.173148148,0.006481481,1,0,0,1.2098,optionRight,70,8145,4,18,0,18,0,1,,,,,,,,,,,,,,,,,,,,,,,,,,,,,,,,,,,,,,,
,,,,,,,,2023-08-16_08h24.19.136,HF_wild_card,2022.2.4,Win32,60.0348202,63cfdefcf2ee0355b64d6f03,64d2fd46c836a06233681665,64dc79854101032082a1d435,,,,,,,decisionTrl,resources/DP.BMP,resources/DB.BMP,Door1,0.326851852,0.010185185,1,0,0,1.0476,optionRight,30,8175,4,19,0,19,0,1,,,,,,,,,,,,,,,,,,,,,,,,,,,,,,,,,,,,,,,
,,,,,,,,2023-08-16_08h24.19.136,HF_wild_card,2022.2.4,Win32,60.0348202,63cfdefcf2ee0355b64d6f03,64d2fd46c836a06233681665,64dc79854101032082a1d435,,,,,,,decisionTrl,resources/DY.BMP,resources/DP.BMP,Door2,0.269444444,0.035185185,1,0,0,1.6476,optionRight,20,8195,4,20,0,20,0,1,,,,,,,,,,,,,,,,,,,,,,,,,,,,,,,,,,,,,,,
,,,,,,,,2023-08-16_08h24.19.136,HF_wild_card,2022.2.4,Win32,60.0348202,63cfdefcf2ee0355b64d6f03,64d2fd46c836a06233681665,64dc79854101032082a1d435,,,,,,,decisionTrl,resources/DP.BMP,resources/DB.BMP,Door1,0.287037037,-0.002777778,1,0,0,1.126,optionRight,30,8225,4,21,0,21,0,1,,,,,,,,,,,,,,,,,,,,,,,,,,,,,,,,,,,,,,,
,,,,,,,,2023-08-16_08h24.19.136,HF_wild_card,2022.2.4,Win32,60.0348202,63cfdefcf2ee0355b64d6f03,64d2fd46c836a06233681665,64dc79854101032082a1d435,,,,,,,ctch,resources/DB.BMP,resources/DBN.BMP,Door4,0.32037037,0.015740741,1,0,0,0.6478,optionRight,60,8285,4,22,0,22,0,1,,,,,,,,,,,,,,,,,,,,,,,,,,,,,,,,,,,,,,,
,,,,,,,,2023-08-16_08h24.19.136,HF_wild_card,2022.2.4,Win32,60.0348202,63cfdefcf2ee0355b64d6f03,64d2fd46c836a06233681665,64dc79854101032082a1d435,,,,,,,decisionTrl,resources/DP.BMP,resources/DB.BMP,Door2,-0.262962963,0.039814815,1,0,0,0.7976,optionLeft,20,8305,4,23,0,23,0,1,,,,,,,,,,,,,,,,,,,,,,,,,,,,,,,,,,,,,,,
,,,,,,,,2023-08-16_08h24.19.136,HF_wild_card,2022.2.4,Win32,60.0348202,63cfdefcf2ee0355b64d6f03,64d2fd46c836a06233681665,64dc79854101032082a1d435,,,,,,,sngl,resources/DBN.BMP,resources/Empty.png,Door4,-0.300925926,0.069444444,1,0,0,0.6363,optionLeft,60,8365,4,24,0,24,0,1,,,,,,,,,,,,,,,,,,,,,,,,,,,,,,,,,,,,,,,
,,,,,,,,2023-08-16_08h24.19.136,HF_wild_card,2022.2.4,Win32,60.0348202,63cfdefcf2ee0355b64d6f03,64d2fd46c836a06233681665,64dc79854101032082a1d435,,,,,,,decisionTrl,resources/DR.BMP,resources/DBN.BMP,Door4,0.319444444,0.003703704,1,0,0,0.6532,optionRight,60,8425,4,25,0,25,0,1,,,,,,,,,,,,,,,,,,,,,,,,,,,,,,,,,,,,,,,
,,,,,,,,2023-08-16_08h24.19.136,HF_wild_card,2022.2.4,Win32,60.0348202,63cfdefcf2ee0355b64d6f03,64d2fd46c836a06233681665,64dc79854101032082a1d435,,,,,,,decisionTrl,resources/DR.BMP,resources/DBN.BMP,Door4,0.302777778,0.013888889,1,0,0,0.7268,optionRight,60,8485,4,26,0,26,0,1,,,,,,,,,,,,,,,,,,,,,,,,,,,,,,,,,,,,,,,
,,,,,,,,2023-08-16_08h24.19.136,HF_wild_card,2022.2.4,Win32,60.0348202,63cfdefcf2ee0355b64d6f03,64d2fd46c836a06233681665,64dc79854101032082a1d435,,,,,,,sngl,resources/Empty.png,resources/DP.BMP,Door2,0.318518519,0.007407407,1,0,0,0.7142,optionRight,40,8525,4,27,0,27,0,1,,,,,,,,,,,,,,,,,,,,,,,,,,,,,,,,,,,,,,,
,,,,,,,,2023-08-16_08h24.19.136,HF_wild_card,2022.2.4,Win32,60.0348202,63cfdefcf2ee0355b64d6f03,64d2fd46c836a06233681665,64dc79854101032082a1d435,,,,,,,decisionTrl,resources/DY.BMP,resources/DB.BMP,Door1,0.334259259,0.007407407,1,0,0,0.7927,optionRight,30,8555,4,28,0,28,0,1,,,,,,,,,,,,,,,,,,,,,,,,,,,,,,,,,,,,,,,
,,,,,,,,2023-08-16_08h24.19.136,HF_wild_card,2022.2.4,Win32,60.0348202,63cfdefcf2ee0355b64d6f03,64d2fd46c836a06233681665,64dc79854101032082a1d435,,,,,,,sngl,resources/DY.BMP,resources/Empty.png,WildCard_Ex,-0.283333333,0.087037037,1,0,0,0.7977,optionLeft,5,8560,4,29,0,29,0,1,,,,,,,,,,,,,,,,,,,,,,,,,,,,,,,,,,,,,,,
,,,,,,,,2023-08-16_08h24.19.136,HF_wild_card,2022.2.4,Win32,60.0348202,63cfdefcf2ee0355b64d6f03,64d2fd46c836a06233681665,64dc79854101032082a1d435,,,,,,,ctch,resources/DR.BMP,resources/DP.BMP,Door3,-0.22037037,0.037037037,1,0,0,1.214,optionLeft,70,8630,4,30,0,30,0,1,,,,,,,,,,,,,,,,,,,,,,,,,,,,,,,,,,,,,,,
,,,,,,,,2023-08-16_08h24.19.136,HF_wild_card,2022.2.4,Win32,60.0348202,63cfdefcf2ee0355b64d6f03,64d2fd46c836a06233681665,64dc79854101032082a1d435,,,,,,,decisionTrl,resources/DB.BMP,resources/DP.BMP,Door1,-0.228703704,0.015740741,1,0,0,1.2762,optionLeft,30,8660,4,31,0,31,0,1,,,,,,,,,,,,,,,,,,,,,,,,,,,,,,,,,,,,,,,
,,,,,,,,2023-08-16_08h24.19.136,HF_wild_card,2022.2.4,Win32,60.0348202,63cfdefcf2ee0355b64d6f03,64d2fd46c836a06233681665,64dc79854101032082a1d435,,,,,,,decisionTrl,resources/DB.BMP,resources/DY.BMP,Door1,-0.236111111,0.021296296,1,0,0,1.1199,optionLeft,30,8690,4,32,0,32,0,1,,,,,,,,,,,,,,,,,,,,,,,,,,,,,,,,,,,,,,,
,,,,,,,,2023-08-16_08h24.19.136,HF_wild_card,2022.2.4,Win32,60.0348202,63cfdefcf2ee0355b64d6f03,64d2fd46c836a06233681665,64dc79854101032082a1d435,,,,,,,sngl,resources/Empty.png,resources/DB.BMP,Door1,0.223148148,0.009259259,1,0,0,0.7092,optionRight,30,8720,4,33,0,33,0,1,,,,,,,,,,,,,,,,,,,,,,,,,,,,,,,,,,,,,,,
,,,,,,,,2023-08-16_08h24.19.136,HF_wild_card,2022.2.4,Win32,60.0348202,63cfdefcf2ee0355b64d6f03,64d2fd46c836a06233681665,64dc79854101032082a1d435,,,,,,,ctch,resources/DBN.BMP,resources/DB.BMP,Door4,-0.257407407,0.011111111,1,0,0,0.7826,optionLeft,80,8800,4,34,0,34,0,1,,,,,,,,,,,,,,,,,,,,,,,,,,,,,,,,,,,,,,,
,,,,,,,,2023-08-16_08h24.19.136,HF_wild_card,2022.2.4,Win32,60.0348202,63cfdefcf2ee0355b64d6f03,64d2fd46c836a06233681665,64dc79854101032082a1d435,,,,,,,ctch,resources/DR.BMP,resources/DP.BMP,Door3,-0.301851852,0.032407407,1,0,0,1.1927,optionLeft,70,8870,4,35,0,35,0,1,,,,,,,,,,,,,,,,,,,,,,,,,,,,,,,,,,,,,,,
,,,,,,,,2023-08-16_08h24.19.136,HF_wild_card,2022.2.4,Win32,60.0348202,63cfdefcf2ee0355b64d6f03,64d2fd46c836a06233681665,64dc79854101032082a1d435,,,,,,,sngl,resources/Empty.png,resources/DY.BMP,WildCard_Ex,0.305555556,0.003703704,1,0,0,0.703,optionRight,95,8965,4,36,0,36,0,1,,,,,,,,,,,,,,,,,,,,,,,,,,,,,,,,,,,,,,,
,,,,,,,,2023-08-16_08h24.19.136,HF_wild_card,2022.2.4,Win32,60.0348202,63cfdefcf2ee0355b64d6f03,64d2fd46c836a06233681665,64dc79854101032082a1d435,,,,,,,sngl,resources/DR.BMP,resources/Empty.png,Door3,-0.238888889,0.002777778,1,0,0,1.0423,optionLeft,70,9035,4,37,0,37,0,1,,,,,,,,,,,,,,,,,,,,,,,,,,,,,,,,,,,,,,,
,,,,,,,,2023-08-16_08h24.19.136,HF_wild_card,2022.2.4,Win32,60.0348202,63cfdefcf2ee0355b64d6f03,64d2fd46c836a06233681665,64dc79854101032082a1d435,,,,,,,decisionTrl,resources/DY.BMP,resources/DR.BMP,WildCard_Ex,-0.265740741,0.016666667,1,0,0,0.9641,optionLeft,95,9130,4,38,0,38,0,1,,,,,,,,,,,,,,,,,,,,,,,,,,,,,,,,,,,,,,,
,,,,,,,,2023-08-16_08h24.19.136,HF_wild_card,2022.2.4,Win32,60.0348202,63cfdefcf2ee0355b64d6f03,64d2fd46c836a06233681665,64dc79854101032082a1d435,,,,,,,sngl,resources/DB.BMP,resources/Empty.png,Door1,-0.187962963,0.010185185,1,0,0,0.6316,optionLeft,30,9160,4,39,0,39,0,1,,,,,,,,,,,,,,,,,,,,,,,,,,,,,,,,,,,,,,,
,,,,,,,,2023-08-16_08h24.19.136,HF_wild_card,2022.2.4,Win32,60.0348202,63cfdefcf2ee0355b64d6f03,64d2fd46c836a06233681665,64dc79854101032082a1d435,,,,,,,sngl,resources/Empty.png,resources/DBN.BMP,Door4,0.272222222,-0.012962963,1,0,0,0.6931,optionRight,80,9240,4,40,0,40,0,1,,,,,,,,,,,,,,,,,,,,,,,,,,,,,,,,,,,,,,,
,,,,,,,,2023-08-16_08h24.19.136,HF_wild_card,2022.2.4,Win32,60.0348202,63cfdefcf2ee0355b64d6f03,64d2fd46c836a06233681665,64dc79854101032082a1d435,,,,,,,decisionTrl,resources/DR.BMP,resources/DBN.BMP,Door4,0.313888889,-0.019444444,1,0,0,0.9495,optionRight,80,9320,4,41,0,41,0,1,,,,,,,,,,,,,,,,,,,,,,,,,,,,,,,,,,,,,,,
,,,,,,,,2023-08-16_08h24.19.136,HF_wild_card,2022.2.4,Win32,60.0348202,63cfdefcf2ee0355b64d6f03,64d2fd46c836a06233681665,64dc79854101032082a1d435,,,,,,,decisionTrl,resources/DBN.BMP,resources/DR.BMP,Door4,-0.22037037,0.012037037,1,0,0,0.8315,optionLeft,80,9400,4,42,0,42,0,1,,,,,,,,,,,,,,,,,,,,,,,,,,,,,,,,,,,,,,,
,,,,,,,,2023-08-16_08h24.19.136,HF_wild_card,2022.2.4,Win32,60.0348202,63cfdefcf2ee0355b64d6f03,64d2fd46c836a06233681665,64dc79854101032082a1d435,,,,,,,sngl,resources/DY.BMP,resources/Empty.png,WildCard_Ex,-0.25462963,0.017592593,1,0,0,0.5919,optionLeft,95,9495,4,43,0,43,0,1,,,,,,,,,,,,,,,,,,,,,,,,,,,,,,,,,,,,,,,
,,,,,,,,2023-08-16_08h24.19.136,HF_wild_card,2022.2.4,Win32,60.0348202,63cfdefcf2ee0355b64d6f03,64d2fd46c836a06233681665,64dc79854101032082a1d435,,,,,,,,,,,,,,,,,,,,,,,,,,3,0,3,0,1,,,,,,,,,,,,,,,,,,,,,,,,,,,,,,,,,,
,,,,,,,,2023-08-16_08h24.19.136,HF_wild_card,2022.2.4,Win32,60.0348202,63cfdefcf2ee0355b64d6f03,64d2fd46c836a06233681665,64dc79854101032082a1d435,,,,,,,ctch,resources/DBN.BMP,resources/DB.BMP,Door4,-0.317592593,-0.009259259,1,0,0,1.0334,optionLeft,60,9555,5,0,0,0,0,1,,,,,,,,,,,,,,,,,,,,,,,,,,,,,,,,,,,,,,,
,,,,,,,,2023-08-16_08h24.19.136,HF_wild_card,2022.2.4,Win32,60.0348202,63cfdefcf2ee0355b64d6f03,64d2fd46c836a06233681665,64dc79854101032082a1d435,,,,,,,sngl,resources/DBN.BMP,resources/Empty.png,Door4,-0.211111111,-0.00462963,1,0,0,0.6647,optionLeft,80,9635,5,1,0,1,0,1,,,,,,,,,,,,,,,,,,,,,,,,,,,,,,,,,,,,,,,
,,,,,,,,2023-08-16_08h24.19.136,HF_wild_card,2022.2.4,Win32,60.0348202,63cfdefcf2ee0355b64d6f03,64d2fd46c836a06233681665,64dc79854101032082a1d435,,,,,,,decisionTrl,resources/DY.BMP,resources/DB.BMP,WildCard_Ex,-0.385185185,0.00462963,1,0,0,1.7312,optionLeft,5,9640,5,2,0,2,0,1,,,,,,,,,,,,,,,,,,,,,,,,,,,,,,,,,,,,,,,
,,,,,,,,2023-08-16_08h24.19.136,HF_wild_card,2022.2.4,Win32,60.0348202,63cfdefcf2ee0355b64d6f03,64d2fd46c836a06233681665,64dc79854101032082a1d435,,,,,,,decisionTrl,resources/DB.BMP,resources/DP.BMP,Door1,-0.367592593,-0.001851852,1,0,0,1.3646,optionLeft,30,9670,5,3,0,3,0,1,,,,,,,,,,,,,,,,,,,,,,,,,,,,,,,,,,,,,,,
,,,,,,,,2023-08-16_08h24.19.136,HF_wild_card,2022.2.4,Win32,60.0348202,63cfdefcf2ee0355b64d6f03,64d2fd46c836a06233681665,64dc79854101032082a1d435,,,,,,,sngl,resources/DR.BMP,resources/Empty.png,Door3,-0.221296296,0.021296296,1,0,0,0.6642,optionLeft,70,9740,5,4,0,4,0,1,,,,,,,,,,,,,,,,,,,,,,,,,,,,,,,,,,,,,,,
,,,,,,,,2023-08-16_08h24.19.136,HF_wild_card,2022.2.4,Win32,60.0348202,63cfdefcf2ee0355b64d6f03,64d2fd46c836a06233681665,64dc79854101032082a1d435,,,,,,,decisionTrl,resources/DBN.BMP,resources/DY.BMP,Door4,-0.198148148,0.017592593,1,0,0,0.8807,optionLeft,60,9800,5,5,0,5,0,1,,,,,,,,,,,,,,,,,,,,,,,,,,,,,,,,,,,,,,,
,,,,,,,,2023-08-16_08h24.19.136,HF_wild_card,2022.2.4,Win32,60.0348202,63cfdefcf2ee0355b64d6f03,64d2fd46c836a06233681665,64dc79854101032082a1d435,,,,,,,decisionTrl,resources/DBN.BMP,resources/DR.BMP,Door4,-0.200925926,0.034259259,1,0,0,0.6146,optionLeft,60,9860,5,6,0,6,0,1,,,,,,,,,,,,,,,,,,,,,,,,,,,,,,,,,,,,,,,
,,,,,,,,2023-08-16_08h24.19.136,HF_wild_card,2022.2.4,Win32,60.0348202,63cfdefcf2ee0355b64d6f03,64d2fd46c836a06233681665,64dc79854101032082a1d435,,,,,,,decisionTrl,resources/DB.BMP,resources/DP.BMP,Door1,-0.206481481,0.023148148,1,0,0,0.9644,optionLeft,30,9890,5,7,0,7,0,1,,,,,,,,,,,,,,,,,,,,,,,,,,,,,,,,,,,,,,,
,,,,,,,,2023-08-16_08h24.19.136,HF_wild_card,2022.2.4,Win32,60.0348202,63cfdefcf2ee0355b64d6f03,64d2fd46c836a06233681665,64dc79854101032082a1d435,,,,,,,sngl,resources/Empty.png,resources/DBN.BMP,Door4,0.274074074,0.027777778,1,0,0,0.6478,optionRight,60,9950,5,8,0,8,0,1,,,,,,,,,,,,,,,,,,,,,,,,,,,,,,,,,,,,,,,
,,,,,,,,2023-08-16_08h24.19.136,HF_wild_card,2022.2.4,Win32,60.0348202,63cfdefcf2ee0355b64d6f03,64d2fd46c836a06233681665,64dc79854101032082a1d435,,,,,,,ctch,resources/DB.BMP,resources/DBN.BMP,Door4,0.205555556,0.02037037,1,0,0,1.132,optionRight,80,10030,5,9,0,9,0,1,,,,,,,,,,,,,,,,,,,,,,,,,,,,,,,,,,,,,,,
,,,,,,,,2023-08-16_08h24.19.136,HF_wild_card,2022.2.4,Win32,60.0348202,63cfdefcf2ee0355b64d6f03,64d2fd46c836a06233681665,64dc79854101032082a1d435,,,,,,,sngl,resources/DY.BMP,resources/Empty.png,WildCard_Ex,-0.218518519,0.011111111,1,0,0,0.698,optionLeft,95,10125,5,10,0,10,0,1,,,,,,,,,,,,,,,,,,,,,,,,,,,,,,,,,,,,,,,
,,,,,,,,2023-08-16_08h24.19.136,HF_wild_card,2022.2.4,Win32,60.0348202,63cfdefcf2ee0355b64d6f03,64d2fd46c836a06233681665,64dc79854101032082a1d435,,,,,,,decisionTrl,resources/DB.BMP,resources/DP.BMP,Door1,-0.197222222,0.012962963,1,0,0,1.0598,optionLeft,30,10155,5,11,0,11,0,1,,,,,,,,,,,,,,,,,,,,,,,,,,,,,,,,,,,,,,,
,,,,,,,,2023-08-16_08h24.19.136,HF_wild_card,2022.2.4,Win32,60.0348202,63cfdefcf2ee0355b64d6f03,64d2fd46c836a06233681665,64dc79854101032082a1d435,,,,,,,sngl,resources/Empty.png,resources/DY.BMP,WildCard_Ex,0.244444444,0.010185185,1,0,0,0.6479,optionRight,95,10250,5,12,0,12,0,1,,,,,,,,,,,,,,,,,,,,,,,,,,,,,,,,,,,,,,,
,,,,,,,,2023-08-16_08h24.19.136,HF_wild_card,2022.2.4,Win32,60.0348202,63cfdefcf2ee0355b64d6f03,64d2fd46c836a06233681665,64dc79854101032082a1d435,,,,,,,decisionTrl,resources/DBN.BMP,resources/DR.BMP,Door4,-0.259259259,0.021296296,1,0,0,0.668,optionLeft,80,10330,5,13,0,13,0,1,,,,,,,,,,,,,,,,,,,,,,,,,,,,,,,,,,,,,,,
,,,,,,,,2023-08-16_08h24.19.136,HF_wild_card,2022.2.4,Win32,60.0348202,63cfdefcf2ee0355b64d6f03,64d2fd46c836a06233681665,64dc79854101032082a1d435,,,,,,,sngl,resources/Empty.png,resources/DB.BMP,Door1,0.286111111,-0.006481481,1,0,0,0.7372,optionRight,30,10360,5,14,0,14,0,1,,,,,,,,,,,,,,,,,,,,,,,,,,,,,,,,,,,,,,,
,,,,,,,,2023-08-16_08h24.19.136,HF_wild_card,2022.2.4,Win32,60.0348202,63cfdefcf2ee0355b64d6f03,64d2fd46c836a06233681665,64dc79854101032082a1d435,,,,,,,decisionTrl,resources/DB.BMP,resources/DY.BMP,Door1,-0.25,0.017592593,1,0,0,0.843,optionLeft,30,10390,5,15,0,15,0,1,,,,,,,,,,,,,,,,,,,,,,,,,,,,,,,,,,,,,,,
,,,,,,,,2023-08-16_08h24.19.136,HF_wild_card,2022.2.4,Win32,60.0348202,63cfdefcf2ee0355b64d6f03,64d2fd46c836a06233681665,64dc79854101032082a1d435,,,,,,,decisionTrl,resources/DY.BMP,resources/DP.BMP,WildCard_Ex,-0.199074074,0.021296296,1,0,0,0.7205,optionLeft,95,10485,5,16,0,16,0,1,,,,,,,,,,,,,,,,,,,,,,,,,,,,,,,,,,,,,,,
,,,,,,,,2023-08-16_08h24.19.136,HF_wild_card,2022.2.4,Win32,60.0348202,63cfdefcf2ee0355b64d6f03,64d2fd46c836a06233681665,64dc79854101032082a1d435,,,,,,,sngl,resources/DP.BMP,resources/Empty.png,Door2,-0.236111111,0.018518519,1,0,0,0.714,optionLeft,40,10525,5,17,0,17,0,1,,,,,,,,,,,,,,,,,,,,,,,,,,,,,,,,,,,,,,,
,,,,,,,,2023-08-16_08h24.19.136,HF_wild_card,2022.2.4,Win32,60.0348202,63cfdefcf2ee0355b64d6f03,64d2fd46c836a06233681665,64dc79854101032082a1d435,,,,,,,decisionTrl,resources/DP.BMP,resources/DB.BMP,Door1,0.311111111,-0.00462963,1,0,0,1.4928,optionRight,30,10555,5,18,0,18,0,1,,,,,,,,,,,,,,,,,,,,,,,,,,,,,,,,,,,,,,,
,,,,,,,,2023-08-16_08h24.19.136,HF_wild_card,2022.2.4,Win32,60.0348202,63cfdefcf2ee0355b64d6f03,64d2fd46c836a06233681665,64dc79854101032082a1d435,,,,,,,decisionTrl,resources/DP.BMP,resources/DY.BMP,WildCard_Ex,0.213888889,-0.023148148,1,0,0,1.2747,optionRight,95,10650,5,19,0,19,0,1,,,,,,,,,,,,,,,,,,,,,,,,,,,,,,,,,,,,,,,
,,,,,,,,2023-08-16_08h24.19.136,HF_wild_card,2022.2.4,Win32,60.0348202,63cfdefcf2ee0355b64d6f03,64d2fd46c836a06233681665,64dc79854101032082a1d435,,,,,,,decisionTrl,resources/DP.BMP,resources/DB.BMP,Door1,0.293518519,0.003703704,1,0,0,1.1819,optionRight,30,10680,5,20,0,20,0,1,,,,,,,,,,,,,,,,,,,,,,,,,,,,,,,,,,,,,,,
,,,,,,,,2023-08-16_08h24.19.136,HF_wild_card,2022.2.4,Win32,60.0348202,63cfdefcf2ee0355b64d6f03,64d2fd46c836a06233681665,64dc79854101032082a1d435,,,,,,,decisionTrl,resources/DR.BMP,resources/DBN.BMP,Door4,0.267592593,-0.024074074,1,0,0,0.8261,optionRight,60,10740,5,21,0,21,0,1,,,,,,,,,,,,,,,,,,,,,,,,,,,,,,,,,,,,,,,
,,,,,,,,2023-08-16_08h24.19.136,HF_wild_card,2022.2.4,Win32,60.0348202,63cfdefcf2ee0355b64d6f03,64d2fd46c836a06233681665,64dc79854101032082a1d435,,,,,,,sngl,resources/Empty.png,resources/DP.BMP,Door2,0.292592593,-0.041666667,1,0,0,0.781,optionRight,20,10760,5,22,0,22,0,1,,,,,,,,,,,,,,,,,,,,,,,,,,,,,,,,,,,,,,,
,,,,,,,,2023-08-16_08h24.19.136,HF_wild_card,2022.2.4,Win32,60.0348202,63cfdefcf2ee0355b64d6f03,64d2fd46c836a06233681665,64dc79854101032082a1d435,,,,,,,decisionTrl,resources/DY.BMP,resources/DR.BMP,WildCard_Ex,-0.24537037,-0.001851852,1,0,0,0.6811,optionLeft,5,10765,5,23,0,23,0,1,,,,,,,,,,,,,,,,,,,,,,,,,,,,,,,,,,,,,,,
,,,,,,,,2023-08-16_08h24.19.136,HF_wild_card,2022.2.4,Win32,60.0348202,63cfdefcf2ee0355b64d6f03,64d2fd46c836a06233681665,64dc79854101032082a1d435,,,,,,,decisionTrl,resources/DY.BMP,resources/DBN.BMP,Door4,0.310185185,-0.014814815,1,0,0,0.6201,optionRight,60,10825,5,24,0,24,0,1,,,,,,,,,,,,,,,,,,,,,,,,,,,,,,,,,,,,,,,
,,,,,,,,2023-08-16_08h24.19.136,HF_wild_card,2022.2.4,Win32,60.0348202,63cfdefcf2ee0355b64d6f03,64d2fd46c836a06233681665,64dc79854101032082a1d435,,,,,,,sngl,resources/Empty.png,resources/DR.BMP,Door3,0.276851852,-0.009259259,1,0,0,0.6318,optionRight,70,10895,5,25,0,25,0,1,,,,,,,,,,,,,,,,,,,,,,,,,,,,,,,,,,,,,,,
,,,,,,,,2023-08-16_08h24.19.136,HF_wild_card,2022.2.4,Win32,60.0348202,63cfdefcf2ee0355b64d6f03,64d2fd46c836a06233681665,64dc79854101032082a1d435,,,,,,,ctch,resources/DB.BMP,resources/DBN.BMP,Door4,0.222222222,0.005555556,1,0,0,0.7931,optionRight,60,10955,5,26,0,26,0,1,,,,,,,,,,,,,,,,,,,,,,,,,,,,,,,,,,,,,,,
,,,,,,,,2023-08-16_08h24.19.136,HF_wild_card,2022.2.4,Win32,60.0348202,63cfdefcf2ee0355b64d6f03,64d2fd46c836a06233681665,64dc79854101032082a1d435,,,,,,,decisionTrl,resources/DBN.BMP,resources/DR.BMP,Door4,-0.24537037,0.025925926,1,0,0,0.8986,optionLeft,80,11035,5,27,0,27,0,1,,,,,,,,,,,,,,,,,,,,,,,,,,,,,,,,,,,,,,,
,,,,,,,,2023-08-16_08h24.19.136,HF_wild_card,2022.2.4,Win32,60.0348202,63cfdefcf2ee0355b64d6f03,64d2fd46c836a06233681665,64dc79854101032082a1d435,,,,,,,decisionTrl,resources/DP.BMP,resources/DB.BMP,Door1,0.247222222,0.012962963,1,0,0,0.9617,optionRight,30,11065,5,28,0,28,0,1,,,,,,,,,,,,,,,,,,,,,,,,,,,,,,,,,,,,,,,
,,,,,,,,2023-08-16_08h24.19.136,HF_wild_card,2022.2.4,Win32,60.0348202,63cfdefcf2ee0355b64d6f03,64d2fd46c836a06233681665,64dc79854101032082a1d435,,,,,,,decisionTrl,resources/DB.BMP,resources/DP.BMP,Door1,-0.19537037,0.039814815,1,0,0,1.0484,optionLeft,30,11095,5,29,0,29,0,1,,,,,,,,,,,,,,,,,,,,,,,,,,,,,,,,,,,,,,,
,,,,,,,,2023-08-16_08h24.19.136,HF_wild_card,2022.2.4,Win32,60.0348202,63cfdefcf2ee0355b64d6f03,64d2fd46c836a06233681665,64dc79854101032082a1d435,,,,,,,ctch,resources/DP.BMP,resources/DR.BMP,Door3,0.239814815,0.035185185,1,0,0,0.9976,optionRight,70,11165,5,30,0,30,0,1,,,,,,,,,,,,,,,,,,,,,,,,,,,,,,,,,,,,,,,
,,,,,,,,2023-08-16_08h24.19.136,HF_wild_card,2022.2.4,Win32,60.0348202,63cfdefcf2ee0355b64d6f03,64d2fd46c836a06233681665,64dc79854101032082a1d435,,,,,,,ctch,resources/DP.BMP,resources/DR.BMP,Door3,0.233333333,-0.00462963,1,0,0,4.9146,optionRight,70,11235,5,31,0,31,0,1,,,,,,,,,,,,,,,,,,,,,,,,,,,,,,,,,,,,,,,
,,,,,,,,2023-08-16_08h24.19.136,HF_wild_card,2022.2.4,Win32,60.0348202,63cfdefcf2ee0355b64d6f03,64d2fd46c836a06233681665,64dc79854101032082a1d435,,,,,,,decisionTrl,resources/DR.BMP,resources/DY.BMP,WildCard_Ex,0.218518519,-0.007407407,1,0,0,1.5643,optionRight,5,11240,5,32,0,32,0,1,,,,,,,,,,,,,,,,,,,,,,,,,,,,,,,,,,,,,,,
,,,,,,,,2023-08-16_08h24.19.136,HF_wild_card,2022.2.4,Win32,60.0348202,63cfdefcf2ee0355b64d6f03,64d2fd46c836a06233681665,64dc79854101032082a1d435,,,,,,,ctch,resources/DR.BMP,resources/DP.BMP,Door3,-0.275925926,0.005555556,1,0,0,0.67,optionLeft,70,11310,5,33,0,33,0,1,,,,,,,,,,,,,,,,,,,,,,,,,,,,,,,,,,,,,,,
,,,,,,,,2023-08-16_08h24.19.136,HF_wild_card,2022.2.4,Win32,60.0348202,63cfdefcf2ee0355b64d6f03,64d2fd46c836a06233681665,64dc79854101032082a1d435,,,,,,,sngl,resources/Empty.png,resources/DY.BMP,WildCard_Ex,0.228703704,-0.007407407,1,0,0,0.5975,optionRight,5,11315,5,34,0,34,0,1,,,,,,,,,,,,,,,,,,,,,,,,,,,,,,,,,,,,,,,
,,,,,,,,2023-08-16_08h24.19.136,HF_wild_card,2022.2.4,Win32,60.0348202,63cfdefcf2ee0355b64d6f03,64d2fd46c836a06233681665,64dc79854101032082a1d435,,,,,,,sngl,resources/DB.BMP,resources/Empty.png,Door1,-0.213888889,0.016666667,1,0,0,0.5978,optionLeft,30,11345,5,35,0,35,0,1,,,,,,,,,,,,,,,,,,,,,,,,,,,,,,,,,,,,,,,
,,,,,,,,2023-08-16_08h24.19.136,HF_wild_card,2022.2.4,Win32,60.0348202,63cfdefcf2ee0355b64d6f03,64d2fd46c836a06233681665,64dc79854101032082a1d435,,,,,,,decisionTrl,resources/DBN.BMP,resources/DR.BMP,Door4,-0.283333333,0.015740741,1,0,0,0.6644,optionLeft,60,11405,5,36,0,36,0,1,,,,,,,,,,,,,,,,,,,,,,,,,,,,,,,,,,,,,,,
,,,,,,,,2023-08-16_08h24.19.136,HF_wild_card,2022.2.4,Win32,60.0348202,63cfdefcf2ee0355b64d6f03,64d2fd46c836a06233681665,64dc79854101032082a1d435,,,,,,,decisionTrl,resources/DR.BMP,resources/DBN.BMP,Door4,0.215740741,0.016666667,1,0,0,0.8763,optionRight,60,11465,5,37,0,37,0,1,,,,,,,,,,,,,,,,,,,,,,,,,,,,,,,,,,,,,,,
,,,,,,,,2023-08-16_08h24.19.136,HF_wild_card,2022.2.4,Win32,60.0348202,63cfdefcf2ee0355b64d6f03,64d2fd46c836a06233681665,64dc79854101032082a1d435,,,,,,,ctch,resources/DBN.BMP,resources/DB.BMP,Door4,-0.292592593,0.037037037,1,0,0,0.7308,optionLeft,60,11525,5,38,0,38,0,1,,,,,,,,,,,,,,,,,,,,,,,,,,,,,,,,,,,,,,,
,,,,,,,,2023-08-16_08h24.19.136,HF_wild_card,2022.2.4,Win32,60.0348202,63cfdefcf2ee0355b64d6f03,64d2fd46c836a06233681665,64dc79854101032082a1d435,,,,,,,ctch,resources/DR.BMP,resources/DP.BMP,Door3,-0.142592593,-0.022222222,1,0,0,5.5975,optionLeft,70,11595,5,39,0,39,0,1,,,,,,,,,,,,,,,,,,,,,,,,,,,,,,,,,,,,,,,
,,,,,,,,2023-08-16_08h24.19.136,HF_wild_card,2022.2.4,Win32,60.0348202,63cfdefcf2ee0355b64d6f03,64d2fd46c836a06233681665,64dc79854101032082a1d435,,,,,,,decisionTrl,resources/DP.BMP,resources/DB.BMP,Door1,0.306481481,0.002777778,1,0,0,0.9646,optionRight,30,11625,5,40,0,40,0,1,,,,,,,,,,,,,,,,,,,,,,,,,,,,,,,,,,,,,,,
,,,,,,,,2023-08-16_08h24.19.136,HF_wild_card,2022.2.4,Win32,60.0348202,63cfdefcf2ee0355b64d6f03,64d2fd46c836a06233681665,64dc79854101032082a1d435,,,,,,,sngl,resources/DY.BMP,resources/Empty.png,WildCard_Ex,-0.282407407,0.010185185,1,0,0,0.6259,optionLeft,5,11630,5,41,0,41,0,1,,,,,,,,,,,,,,,,,,,,,,,,,,,,,,,,,,,,,,,
,,,,,,,,2023-08-16_08h24.19.136,HF_wild_card,2022.2.4,Win32,60.0348202,63cfdefcf2ee0355b64d6f03,64d2fd46c836a06233681665,64dc79854101032082a1d435,,,,,,,decisionTrl,resources/DR.BMP,resources/DBN.BMP,Door4,0.263888889,0,1,0,0,0.748,optionRight,80,11710,5,42,0,42,0,1,,,,,,,,,,,,,,,,,,,,,,,,,,,,,,,,,,,,,,,
,,,,,,,,2023-08-16_08h24.19.136,HF_wild_card,2022.2.4,Win32,60.0348202,63cfdefcf2ee0355b64d6f03,64d2fd46c836a06233681665,64dc79854101032082a1d435,,,,,,,decisionTrl,resources/DR.BMP,resources/DBN.BMP,Door3,-0.256481481,0.017592593,1,0,0,0.5982,optionLeft,70,11780,5,43,0,43,0,1,,,,,,,,,,,,,,,,,,,,,,,,,,,,,,,,,,,,,,,
,,,,,,,,2023-08-16_08h24.19.136,HF_wild_card,2022.2.4,Win32,60.0348202,63cfdefcf2ee0355b64d6f03,64d2fd46c836a06233681665,64dc79854101032082a1d435,,,,,,,,,,,,,,,,,,,,,,,,,,4,0,4,0,1,,,,,,,,,,,,,,,,,,,,,,,,,,,,,,,,,,
,,,,,,,,2023-08-16_08h24.19.136,HF_wild_card,2022.2.4,Win32,60.0348202,63cfdefcf2ee0355b64d6f03,64d2fd46c836a06233681665,64dc79854101032082a1d435,,,,,,,decisionTrl,resources/DR.BMP,resources/DY.BMP,Door3,-0.40462963,-0.055555556,1,0,0,1.2651,optionLeft,70,11850,6,0,0,0,0,1,,,,,,,,,,,,,,,,,,,,,,,,,,,,,,,,,,,,,,,
,,,,,,,,2023-08-16_08h24.19.136,HF_wild_card,2022.2.4,Win32,60.0348202,63cfdefcf2ee0355b64d6f03,64d2fd46c836a06233681665,64dc79854101032082a1d435,,,,,,,sngl,resources/DY.BMP,resources/Empty.png,WildCard_Ex,-0.282407407,-0.005555556,1,0,0,0.5974,optionLeft,95,11945,6,1,0,1,0,1,,,,,,,,,,,,,,,,,,,,,,,,,,,,,,,,,,,,,,,
,,,,,,,,2023-08-16_08h24.19.136,HF_wild_card,2022.2.4,Win32,60.0348202,63cfdefcf2ee0355b64d6f03,64d2fd46c836a06233681665,64dc79854101032082a1d435,,,,,,,ctch,resources/DR.BMP,resources/DP.BMP,Door3,-0.242592593,0.012037037,1,0,0,0.9479,optionLeft,70,12015,6,2,0,2,0,1,,,,,,,,,,,,,,,,,,,,,,,,,,,,,,,,,,,,,,,
,,,,,,,,2023-08-16_08h24.19.136,HF_wild_card,2022.2.4,Win32,60.0348202,63cfdefcf2ee0355b64d6f03,64d2fd46c836a06233681665,64dc79854101032082a1d435,,,,,,,decisionTrl,resources/DP.BMP,resources/DB.BMP,Door1,0.184259259,0.017592593,1,0,0,1.0097,optionRight,30,12045,6,3,0,3,0,1,,,,,,,,,,,,,,,,,,,,,,,,,,,,,,,,,,,,,,,
,,,,,,,,2023-08-16_08h24.19.136,HF_wild_card,2022.2.4,Win32,60.0348202,63cfdefcf2ee0355b64d6f03,64d2fd46c836a06233681665,64dc79854101032082a1d435,,,,,,,sngl,resources/DY.BMP,resources/Empty.png,WildCard_Ex,-0.239814815,0.019444444,1,0,0,0.615,optionLeft,5,12050,6,4,0,4,0,1,,,,,,,,,,,,,,,,,,,,,,,,,,,,,,,,,,,,,,,
,,,,,,,,2023-08-16_08h24.19.136,HF_wild_card,2022.2.4,Win32,60.0348202,63cfdefcf2ee0355b64d6f03,64d2fd46c836a06233681665,64dc79854101032082a1d435,,,,,,,ctch,resources/DP.BMP,resources/DR.BMP,Door3,0.371296296,0.019444444,1,0,0,1.0426,optionRight,70,12120,6,5,0,5,0,1,,,,,,,,,,,,,,,,,,,,,,,,,,,,,,,,,,,,,,,
,,,,,,,,2023-08-16_08h24.19.136,HF_wild_card,2022.2.4,Win32,60.0348202,63cfdefcf2ee0355b64d6f03,64d2fd46c836a06233681665,64dc79854101032082a1d435,,,,,,,sngl,resources/DR.BMP,resources/Empty.png,Door3,-0.246296296,0.013888889,1,0,0,0.6149,optionLeft,70,12190,6,6,0,6,0,1,,,,,,,,,,,,,,,,,,,,,,,,,,,,,,,,,,,,,,,
,,,,,,,,2023-08-16_08h24.19.136,HF_wild_card,2022.2.4,Win32,60.0348202,63cfdefcf2ee0355b64d6f03,64d2fd46c836a06233681665,64dc79854101032082a1d435,,,,,,,decisionTrl,resources/DBN.BMP,resources/DR.BMP,Door3,0.260185185,0.015740741,1,0,0,0.8764,optionRight,70,12260,6,7,0,7,0,1,,,,,,,,,,,,,,,,,,,,,,,,,,,,,,,,,,,,,,,
,,,,,,,,2023-08-16_08h24.19.136,HF_wild_card,2022.2.4,Win32,60.0348202,63cfdefcf2ee0355b64d6f03,64d2fd46c836a06233681665,64dc79854101032082a1d435,,,,,,,sngl,resources/Empty.png,resources/DP.BMP,Door2,0.231481481,0.011111111,1,0,0,0.643,optionRight,40,12300,6,8,0,8,0,1,,,,,,,,,,,,,,,,,,,,,,,,,,,,,,,,,,,,,,,
,,,,,,,,2023-08-16_08h24.19.136,HF_wild_card,2022.2.4,Win32,60.0348202,63cfdefcf2ee0355b64d6f03,64d2fd46c836a06233681665,64dc79854101032082a1d435,,,,,,,decisionTrl,resources/DBN.BMP,resources/DR.BMP,Door4,-0.29537037,0.028703704,1,0,0,0.72,optionLeft,60,12360,6,9,0,9,0,1,,,,,,,,,,,,,,,,,,,,,,,,,,,,,,,,,,,,,,,
,,,,,,,,2023-08-16_08h24.19.136,HF_wild_card,2022.2.4,Win32,60.0348202,63cfdefcf2ee0355b64d6f03,64d2fd46c836a06233681665,64dc79854101032082a1d435,,,,,,,decisionTrl,resources/DY.BMP,resources/DR.BMP,Door3,0.290740741,0.028703704,1,0,0,0.7645,optionRight,70,12430,6,10,0,10,0,1,,,,,,,,,,,,,,,,,,,,,,,,,,,,,,,,,,,,,,,
,,,,,,,,2023-08-16_08h24.19.136,HF_wild_card,2022.2.4,Win32,60.0348202,63cfdefcf2ee0355b64d6f03,64d2fd46c836a06233681665,64dc79854101032082a1d435,,,,,,,sngl,resources/DP.BMP,resources/Empty.png,Door2,-0.230555556,0.016666667,1,0,0,0.7647,optionLeft,20,12450,6,11,0,11,0,1,,,,,,,,,,,,,,,,,,,,,,,,,,,,,,,,,,,,,,,
,,,,,,,,2023-08-16_08h24.19.136,HF_wild_card,2022.2.4,Win32,60.0348202,63cfdefcf2ee0355b64d6f03,64d2fd46c836a06233681665,64dc79854101032082a1d435,,,,,,,decisionTrl,resources/DBN.BMP,resources/DY.BMP,Door4,-0.287962963,0.046296296,1,0,0,1.9032,optionLeft,80,12530,6,12,0,12,0,1,,,,,,,,,,,,,,,,,,,,,,,,,,,,,,,,,,,,,,,
,,,,,,,,2023-08-16_08h24.19.136,HF_wild_card,2022.2.4,Win32,60.0348202,63cfdefcf2ee0355b64d6f03,64d2fd46c836a06233681665,64dc79854101032082a1d435,,,,,,,decisionTrl,resources/DR.BMP,resources/DBN.BMP,Door4,0.307407407,0.005555556,1,0,0,0.7476,optionRight,80,12610,6,13,0,13,0,1,,,,,,,,,,,,,,,,,,,,,,,,,,,,,,,,,,,,,,,
,,,,,,,,2023-08-16_08h24.19.136,HF_wild_card,2022.2.4,Win32,60.0348202,63cfdefcf2ee0355b64d6f03,64d2fd46c836a06233681665,64dc79854101032082a1d435,,,,,,,decisionTrl,resources/DB.BMP,resources/DP.BMP,Door1,-0.230555556,-0.000925926,1,0,0,1.2319,optionLeft,30,12640,6,14,0,14,0,1,,,,,,,,,,,,,,,,,,,,,,,,,,,,,,,,,,,,,,,
,,,,,,,,2023-08-16_08h24.19.136,HF_wild_card,2022.2.4,Win32,60.0348202,63cfdefcf2ee0355b64d6f03,64d2fd46c836a06233681665,64dc79854101032082a1d435,,,,,,,decisionTrl,resources/DBN.BMP,resources/DR.BMP,Door4,-0.194444444,0.017592593,1,0,0,0.6199,optionLeft,80,12720,6,15,0,15,0,1,,,,,,,,,,,,,,,,,,,,,,,,,,,,,,,,,,,,,,,
,,,,,,,,2023-08-16_08h24.19.136,HF_wild_card,2022.2.4,Win32,60.0348202,63cfdefcf2ee0355b64d6f03,64d2fd46c836a06233681665,64dc79854101032082a1d435,,,,,,,ctch,resources/DP.BMP,resources/DR.BMP,Door3,0.210185185,-0.024074074,1,0,0,4.7599,optionRight,70,12790,6,16,0,16,0,1,,,,,,,,,,,,,,,,,,,,,,,,,,,,,,,,,,,,,,,
,,,,,,,,2023-08-16_08h24.19.136,HF_wild_card,2022.2.4,Win32,60.0348202,63cfdefcf2ee0355b64d6f03,64d2fd46c836a06233681665,64dc79854101032082a1d435,,,,,,,ctch,resources/DB.BMP,resources/DBN.BMP,Door4,0.188888889,-0.003703704,1,0,0,0.647,optionRight,60,12850,6,17,0,17,0,1,,,,,,,,,,,,,,,,,,,,,,,,,,,,,,,,,,,,,,,
,,,,,,,,2023-08-16_08h24.19.136,HF_wild_card,2022.2.4,Win32,60.0348202,63cfdefcf2ee0355b64d6f03,64d2fd46c836a06233681665,64dc79854101032082a1d435,,,,,,,decisionTrl,resources/DY.BMP,resources/DP.BMP,WildCard_Ex,-0.290740741,0.032407407,1,0,0,1.4812,optionLeft,95,12945,6,18,0,18,0,1,,,,,,,,,,,,,,,,,,,,,,,,,,,,,,,,,,,,,,,
,,,,,,,,2023-08-16_08h24.19.136,HF_wild_card,2022.2.4,Win32,60.0348202,63cfdefcf2ee0355b64d6f03,64d2fd46c836a06233681665,64dc79854101032082a1d435,,,,,,,ctch,resources/DB.BMP,resources/DBN.BMP,Door4,0.291666667,0.002777778,1,0,0,0.7671,optionRight,80,13025,6,19,0,19,0,1,,,,,,,,,,,,,,,,,,,,,,,,,,,,,,,,,,,,,,,
,,,,,,,,2023-08-16_08h24.19.136,HF_wild_card,2022.2.4,Win32,60.0348202,63cfdefcf2ee0355b64d6f03,64d2fd46c836a06233681665,64dc79854101032082a1d435,,,,,,,decisionTrl,resources/DP.BMP,resources/DB.BMP,Door1,0.219444444,-0.005555556,1,0,0,1.2809,optionRight,30,13055,6,20,0,20,0,1,,,,,,,,,,,,,,,,,,,,,,,,,,,,,,,,,,,,,,,
,,,,,,,,2023-08-16_08h24.19.136,HF_wild_card,2022.2.4,Win32,60.0348202,63cfdefcf2ee0355b64d6f03,64d2fd46c836a06233681665,64dc79854101032082a1d435,,,,,,,ctch,resources/DBN.BMP,resources/DB.BMP,Door4,-0.278703704,0.030555556,1,0,0,0.7301,optionLeft,80,13135,6,21,0,21,0,1,,,,,,,,,,,,,,,,,,,,,,,,,,,,,,,,,,,,,,,
,,,,,,,,2023-08-16_08h24.19.136,HF_wild_card,2022.2.4,Win32,60.0348202,63cfdefcf2ee0355b64d6f03,64d2fd46c836a06233681665,64dc79854101032082a1d435,,,,,,,decisionTrl,resources/DB.BMP,resources/DP.BMP,Door2,0.297222222,-0.006481481,1,0,0,0.7419,optionRight,20,13155,6,22,0,22,0,1,,,,,,,,,,,,,,,,,,,,,,,,,,,,,,,,,,,,,,,
,,,,,,,,2023-08-16_08h24.19.136,HF_wild_card,2022.2.4,Win32,60.0348202,63cfdefcf2ee0355b64d6f03,64d2fd46c836a06233681665,64dc79854101032082a1d435,,,,,,,ctch,resources/DR.BMP,resources/DP.BMP,Door3,-0.243518519,0.019444444,1,0,0,0.8312,optionLeft,70,13225,6,23,0,23,0,1,,,,,,,,,,,,,,,,,,,,,,,,,,,,,,,,,,,,,,,
,,,,,,,,2023-08-16_08h24.19.136,HF_wild_card,2022.2.4,Win32,60.0348202,63cfdefcf2ee0355b64d6f03,64d2fd46c836a06233681665,64dc79854101032082a1d435,,,,,,,ctch,resources/DBN.BMP,resources/DB.BMP,Door4,-0.2,0.011111111,1,0,0,0.6762,optionLeft,60,13285,6,24,0,24,0,1,,,,,,,,,,,,,,,,,,,,,,,,,,,,,,,,,,,,,,,
,,,,,,,,2023-08-16_08h24.19.136,HF_wild_card,2022.2.4,Win32,60.0348202,63cfdefcf2ee0355b64d6f03,64d2fd46c836a06233681665,64dc79854101032082a1d435,,,,,,,decisionTrl,resources/DP.BMP,resources/DY.BMP,WildCard_Ex,0.221296296,0.019444444,1,0,0,1.2089,optionRight,5,13290,6,25,0,25,0,1,,,,,,,,,,,,,,,,,,,,,,,,,,,,,,,,,,,,,,,
,,,,,,,,2023-08-16_08h24.19.136,HF_wild_card,2022.2.4,Win32,60.0348202,63cfdefcf2ee0355b64d6f03,64d2fd46c836a06233681665,64dc79854101032082a1d435,,,,,,,sngl,resources/Empty.png,resources/DBN.BMP,Door4,0.287962963,0.02962963,1,0,0,0.6814,optionRight,80,13370,6,26,0,26,0,1,,,,,,,,,,,,,,,,,,,,,,,,,,,,,,,,,,,,,,,
,,,,,,,,2023-08-16_08h24.19.136,HF_wild_card,2022.2.4,Win32,60.0348202,63cfdefcf2ee0355b64d6f03,64d2fd46c836a06233681665,64dc79854101032082a1d435,,,,,,,decisionTrl,resources/DR.BMP,resources/DBN.BMP,Door4,0.264814815,0.009259259,1,0,0,0.7263,optionRight,60,13430,6,27,0,27,0,1,,,,,,,,,,,,,,,,,,,,,,,,,,,,,,,,,,,,,,,
,,,,,,,,2023-08-16_08h24.19.136,HF_wild_card,2022.2.4,Win32,60.0348202,63cfdefcf2ee0355b64d6f03,64d2fd46c836a06233681665,64dc79854101032082a1d435,,,,,,,decisionTrl,resources/DBN.BMP,resources/DR.BMP,Door4,-0.271296296,0.019444444,1,0,0,0.8141,optionLeft,80,13510,6,28,0,28,0,1,,,,,,,,,,,,,,,,,,,,,,,,,,,,,,,,,,,,,,,
,,,,,,,,2023-08-16_08h24.19.136,HF_wild_card,2022.2.4,Win32,60.0348202,63cfdefcf2ee0355b64d6f03,64d2fd46c836a06233681665,64dc79854101032082a1d435,,,,,,,sngl,resources/DB.BMP,resources/Empty.png,Door1,-0.206481481,0.012962963,1,0,0,0.6806,optionLeft,30,13540,6,29,0,29,0,1,,,,,,,,,,,,,,,,,,,,,,,,,,,,,,,,,,,,,,,
,,,,,,,,2023-08-16_08h24.19.136,HF_wild_card,2022.2.4,Win32,60.0348202,63cfdefcf2ee0355b64d6f03,64d2fd46c836a06233681665,64dc79854101032082a1d435,,,,,,,sngl,resources/DBN.BMP,resources/Empty.png,Door4,-0.251851852,0.012037037,1,0,0,0.7149,optionLeft,60,13600,6,30,0,30,0,1,,,,,,,,,,,,,,,,,,,,,,,,,,,,,,,,,,,,,,,
,,,,,,,,2023-08-16_08h24.19.136,HF_wild_card,2022.2.4,Win32,60.0348202,63cfdefcf2ee0355b64d6f03,64d2fd46c836a06233681665,64dc79854101032082a1d435,,,,,,,decisionTrl,resources/DY.BMP,resources/DB.BMP,WildCard_Ex,-0.252777778,-0.002777778,1,0,0,1.2651,optionLeft,5,13605,6,31,0,31,0,1,,,,,,,,,,,,,,,,,,,,,,,,,,,,,,,,,,,,,,,
,,,,,,,,2023-08-16_08h24.19.136,HF_wild_card,2022.2.4,Win32,60.0348202,63cfdefcf2ee0355b64d6f03,64d2fd46c836a06233681665,64dc79854101032082a1d435,,,,,,,sngl,resources/Empty.png,resources/DR.BMP,Door3,0.264814815,0.013888889,1,0,0,0.6284,optionRight,70,13675,6,32,0,32,0,1,,,,,,,,,,,,,,,,,,,,,,,,,,,,,,,,,,,,,,,
,,,,,,,,2023-08-16_08h24.19.136,HF_wild_card,2022.2.4,Win32,60.0348202,63cfdefcf2ee0355b64d6f03,64d2fd46c836a06233681665,64dc79854101032082a1d435,,,,,,,decisionTrl,resources/DB.BMP,resources/DY.BMP,Door1,-0.186111111,-0.006481481,1,0,0,1.5813,optionLeft,30,13705,6,33,0,33,0,1,,,,,,,,,,,,,,,,,,,,,,,,,,,,,,,,,,,,,,,
,,,,,,,,2023-08-16_08h24.19.136,HF_wild_card,2022.2.4,Win32,60.0348202,63cfdefcf2ee0355b64d6f03,64d2fd46c836a06233681665,64dc79854101032082a1d435,,,,,,,decisionTrl,resources/DP.BMP,resources/DB.BMP,Door1,0.291666667,-0.005555556,1,0,0,0.931,optionRight,30,13735,6,34,0,34,0,1,,,,,,,,,,,,,,,,,,,,,,,,,,,,,,,,,,,,,,,
,,,,,,,,2023-08-16_08h24.19.136,HF_wild_card,2022.2.4,Win32,60.0348202,63cfdefcf2ee0355b64d6f03,64d2fd46c836a06233681665,64dc79854101032082a1d435,,,,,,,decisionTrl,resources/DB.BMP,resources/DP.BMP,Door1,-0.247222222,0.000925926,1,0,0,0.9976,optionLeft,30,13765,6,35,0,35,0,1,,,,,,,,,,,,,,,,,,,,,,,,,,,,,,,,,,,,,,,
,,,,,,,,2023-08-16_08h24.19.136,HF_wild_card,2022.2.4,Win32,60.0348202,63cfdefcf2ee0355b64d6f03,64d2fd46c836a06233681665,64dc79854101032082a1d435,,,,,,,decisionTrl,resources/DP.BMP,resources/DB.BMP,Door1,0.258333333,-0.018518519,1,0,0,1.0863,optionRight,30,13795,6,36,0,36,0,1,,,,,,,,,,,,,,,,,,,,,,,,,,,,,,,,,,,,,,,
,,,,,,,,2023-08-16_08h24.19.136,HF_wild_card,2022.2.4,Win32,60.0348202,63cfdefcf2ee0355b64d6f03,64d2fd46c836a06233681665,64dc79854101032082a1d435,,,,,,,sngl,resources/Empty.png,resources/DY.BMP,WildCard_Ex,0.187962963,-0.000925926,1,0,0,0.6808,optionRight,5,13800,6,37,0,37,0,1,,,,,,,,,,,,,,,,,,,,,,,,,,,,,,,,,,,,,,,
,,,,,,,,2023-08-16_08h24.19.136,HF_wild_card,2022.2.4,Win32,60.0348202,63cfdefcf2ee0355b64d6f03,64d2fd46c836a06233681665,64dc79854101032082a1d435,,,,,,,sngl,resources/Empty.png,resources/DB.BMP,Door1,0.206481481,0.007407407,1,0,0,0.6477,optionRight,30,13830,6,38,0,38,0,1,,,,,,,,,,,,,,,,,,,,,,,,,,,,,,,,,,,,,,,
,,,,,,,,2023-08-16_08h24.19.136,HF_wild_card,2022.2.4,Win32,60.0348202,63cfdefcf2ee0355b64d6f03,64d2fd46c836a06233681665,64dc79854101032082a1d435,,,,,,,decisionTrl,resources/DR.BMP,resources/DBN.BMP,Door4,0.232407407,0.040740741,1,0,0,1.5031,optionRight,60,13890,6,39,0,39,0,1,,,,,,,,,,,,,,,,,,,,,,,,,,,,,,,,,,,,,,,
,,,,,,,,2023-08-16_08h24.19.136,HF_wild_card,2022.2.4,Win32,60.0348202,63cfdefcf2ee0355b64d6f03,64d2fd46c836a06233681665,64dc79854101032082a1d435,,,,,,,decisionTrl,resources/DY.BMP,resources/DBN.BMP,Door4,0.208333333,0.017592593,1,0,0,0.834,optionRight,60,13950,6,40,0,40,0,1,,,,,,,,,,,,,,,,,,,,,,,,,,,,,,,,,,,,,,,
,,,,,,,,2023-08-16_08h24.19.136,HF_wild_card,2022.2.4,Win32,60.0348202,63cfdefcf2ee0355b64d6f03,64d2fd46c836a06233681665,64dc79854101032082a1d435,,,,,,,sngl,resources/Empty.png,resources/DY.BMP,WildCard_Ex,0.214814815,0.017592593,1,0,0,0.6205,optionRight,95,14045,6,41,0,41,0,1,,,,,,,,,,,,,,,,,,,,,,,,,,,,,,,,,,,,,,,
,,,,,,,,2023-08-16_08h24.19.136,HF_wild_card,2022.2.4,Win32,60.0348202,63cfdefcf2ee0355b64d6f03,64d2fd46c836a06233681665,64dc79854101032082a1d435,,,,,,,decisionTrl,resources/DR.BMP,resources/DBN.BMP,Door3,-0.211111111,0.034259259,1,0,0,1.1988,optionLeft,70,14115,6,42,0,42,0,1,,,,,,,,,,,,,,,,,,,,,,,,,,,,,,,,,,,,,,,
,,,,,,,,2023-08-16_08h24.19.136,HF_wild_card,2022.2.4,Win32,60.0348202,63cfdefcf2ee0355b64d6f03,64d2fd46c836a06233681665,64dc79854101032082a1d435,,,,,,,decisionTrl,resources/DB.BMP,resources/DP.BMP,Door1,-0.269444444,0.031481481,1,0,0,1.326,optionLeft,30,14145,6,43,0,43,0,1,,,,,,,,,,,,,,,,,,,,,,,,,,,,,,,,,,,,,,,
,,,,,,,,2023-08-16_08h24.19.136,HF_wild_card,2022.2.4,Win32,60.0348202,63cfdefcf2ee0355b64d6f03,64d2fd46c836a06233681665,64dc79854101032082a1d435,,,,,,,,,,,,,,,,,,,,,,,,,,5,0,5,0,1,,,,,,,,,,,,,,,,,,,,,,,,,,,,,,,,,,
,,,,,,,,2023-08-16_08h24.19.136,HF_wild_card,2022.2.4,Win32,60.0348202,63cfdefcf2ee0355b64d6f03,64d2fd46c836a06233681665,64dc79854101032082a1d435,,,,,,,ctch,resources/DBN.BMP,resources/DB.BMP,Door4,-0.27037037,0.05,1,0,0,1.1833,optionLeft,60,14205,7,0,0,0,0,1,,,,,,,,,,,,,,,,,,,,,,,,,,,,,,,,,,,,,,,
,,,,,,,,2023-08-16_08h24.19.136,HF_wild_card,2022.2.4,Win32,60.0348202,63cfdefcf2ee0355b64d6f03,64d2fd46c836a06233681665,64dc79854101032082a1d435,,,,,,,ctch,resources/DBN.BMP,resources/DB.BMP,Door4,-0.339814815,-0.00462963,1,0,0,0.7379,optionLeft,80,14285,7,1,0,1,0,1,,,,,,,,,,,,,,,,,,,,,,,,,,,,,,,,,,,,,,,
,,,,,,,,2023-08-16_08h24.19.136,HF_wild_card,2022.2.4,Win32,60.0348202,63cfdefcf2ee0355b64d6f03,64d2fd46c836a06233681665,64dc79854101032082a1d435,,,,,,,ctch,resources/DB.BMP,resources/DBN.BMP,Door4,0.244444444,0.005555556,1,0,0,0.8321,optionRight,80,14365,7,2,0,2,0,1,,,,,,,,,,,,,,,,,,,,,,,,,,,,,,,,,,,,,,,
,,,,,,,,2023-08-16_08h24.19.136,HF_wild_card,2022.2.4,Win32,60.0348202,63cfdefcf2ee0355b64d6f03,64d2fd46c836a06233681665,64dc79854101032082a1d435,,,,,,,decisionTrl,resources/DP.BMP,resources/DB.BMP,Door1,0.284259259,0.025925926,1,0,0,1.2656,optionRight,30,14395,7,3,0,3,0,1,,,,,,,,,,,,,,,,,,,,,,,,,,,,,,,,,,,,,,,
,,,,,,,,2023-08-16_08h24.19.136,HF_wild_card,2022.2.4,Win32,60.0348202,63cfdefcf2ee0355b64d6f03,64d2fd46c836a06233681665,64dc79854101032082a1d435,,,,,,,decisionTrl,resources/DB.BMP,resources/DP.BMP,Door1,-0.265740741,0.023148148,1,0,0,1.4486,optionLeft,30,14425,7,4,0,4,0,1,,,,,,,,,,,,,,,,,,,,,,,,,,,,,,,,,,,,,,,
,,,,,,,,2023-08-16_08h24.19.136,HF_wild_card,2022.2.4,Win32,60.0348202,63cfdefcf2ee0355b64d6f03,64d2fd46c836a06233681665,64dc79854101032082a1d435,,,,,,,decisionTrl,resources/DB.BMP,resources/DP.BMP,Door1,-0.258333333,0.002777778,1,0,0,1.054,optionLeft,30,14455,7,5,0,5,0,1,,,,,,,,,,,,,,,,,,,,,,,,,,,,,,,,,,,,,,,
,,,,,,,,2023-08-16_08h24.19.136,HF_wild_card,2022.2.4,Win32,60.0348202,63cfdefcf2ee0355b64d6f03,64d2fd46c836a06233681665,64dc79854101032082a1d435,,,,,,,decisionTrl,resources/DP.BMP,resources/DB.BMP,Door1,0.246296296,-0.014814815,1,0,0,1.0655,optionRight,30,14485,7,6,0,6,0,1,,,,,,,,,,,,,,,,,,,,,,,,,,,,,,,,,,,,,,,
,,,,,,,,2023-08-16_08h24.19.136,HF_wild_card,2022.2.4,Win32,60.0348202,63cfdefcf2ee0355b64d6f03,64d2fd46c836a06233681665,64dc79854101032082a1d435,,,,,,,decisionTrl,resources/DBN.BMP,resources/DR.BMP,Door3,0.250925926,-0.006481481,1,0,0,1.3269,optionRight,70,14555,7,7,0,7,0,1,,,,,,,,,,,,,,,,,,,,,,,,,,,,,,,,,,,,,,,
,,,,,,,,2023-08-16_08h24.19.136,HF_wild_card,2022.2.4,Win32,60.0348202,63cfdefcf2ee0355b64d6f03,64d2fd46c836a06233681665,64dc79854101032082a1d435,,,,,,,ctch,resources/DP.BMP,resources/DR.BMP,Door3,0.251851852,0.005555556,1,0,0,0.9041,optionRight,70,14625,7,8,0,8,0,1,,,,,,,,,,,,,,,,,,,,,,,,,,,,,,,,,,,,,,,
,,,,,,,,2023-08-16_08h24.19.136,HF_wild_card,2022.2.4,Win32,60.0348202,63cfdefcf2ee0355b64d6f03,64d2fd46c836a06233681665,64dc79854101032082a1d435,,,,,,,decisionTrl,resources/DR.BMP,resources/DBN.BMP,Door3,-0.359259259,0.023148148,1,0,0,5.332,optionLeft,70,14695,7,9,0,9,0,1,,,,,,,,,,,,,,,,,,,,,,,,,,,,,,,,,,,,,,,
,,,,,,,,2023-08-16_08h24.19.136,HF_wild_card,2022.2.4,Win32,60.0348202,63cfdefcf2ee0355b64d6f03,64d2fd46c836a06233681665,64dc79854101032082a1d435,,,,,,,decisionTrl,resources/DB.BMP,resources/DP.BMP,Door1,-0.190740741,0.012962963,1,0,0,1.1162,optionLeft,30,14725,7,10,0,10,0,1,,,,,,,,,,,,,,,,,,,,,,,,,,,,,,,,,,,,,,,
,,,,,,,,2023-08-16_08h24.19.136,HF_wild_card,2022.2.4,Win32,60.0348202,63cfdefcf2ee0355b64d6f03,64d2fd46c836a06233681665,64dc79854101032082a1d435,,,,,,,ctch,resources/DP.BMP,resources/DR.BMP,Door3,0.30462963,0.018518519,1,0,0,0.9154,optionRight,70,14795,7,11,0,11,0,1,,,,,,,,,,,,,,,,,,,,,,,,,,,,,,,,,,,,,,,
,,,,,,,,2023-08-16_08h24.19.136,HF_wild_card,2022.2.4,Win32,60.0348202,63cfdefcf2ee0355b64d6f03,64d2fd46c836a06233681665,64dc79854101032082a1d435,,,,,,,decisionTrl,resources/DBN.BMP,resources/DR.BMP,Door4,-0.217592593,0.017592593,1,0,0,0.7932,optionLeft,60,14855,7,12,0,12,0,1,,,,,,,,,,,,,,,,,,,,,,,,,,,,,,,,,,,,,,,
,,,,,,,,2023-08-16_08h24.19.136,HF_wild_card,2022.2.4,Win32,60.0348202,63cfdefcf2ee0355b64d6f03,64d2fd46c836a06233681665,64dc79854101032082a1d435,,,,,,,decisionTrl,resources/DB.BMP,resources/DP.BMP,Door1,-0.327777778,-0.003703704,1,0,0,1.0607,optionLeft,30,14885,7,13,0,13,0,1,,,,,,,,,,,,,,,,,,,,,,,,,,,,,,,,,,,,,,,
,,,,,,,,2023-08-16_08h24.19.136,HF_wild_card,2022.2.4,Win32,60.0348202,63cfdefcf2ee0355b64d6f03,64d2fd46c836a06233681665,64dc79854101032082a1d435,,,,,,,decisionTrl,resources/DP.BMP,resources/DB.BMP,Door1,0.222222222,-0.024074074,1,0,0,1.099,optionRight,30,14915,7,14,0,14,0,1,,,,,,,,,,,,,,,,,,,,,,,,,,,,,,,,,,,,,,,
,,,,,,,,2023-08-16_08h24.19.136,HF_wild_card,2022.2.4,Win32,60.0348202,63cfdefcf2ee0355b64d6f03,64d2fd46c836a06233681665,64dc79854101032082a1d435,,,,,,,ctch,resources/DP.BMP,resources/DR.BMP,Door3,0.312962963,0.005555556,1,0,0,0.7995,optionRight,70,14985,7,15,0,15,0,1,,,,,,,,,,,,,,,,,,,,,,,,,,,,,,,,,,,,,,,
,,,,,,,,2023-08-16_08h24.19.136,HF_wild_card,2022.2.4,Win32,60.0348202,63cfdefcf2ee0355b64d6f03,64d2fd46c836a06233681665,64dc79854101032082a1d435,,,,,,,decisionTrl,resources/DR.BMP,resources/DBN.BMP,Door4,0.361111111,0.011111111,1,0,0,0.7654,optionRight,60,15045,7,16,0,16,0,1,,,,,,,,,,,,,,,,,,,,,,,,,,,,,,,,,,,,,,,
,,,,,,,,2023-08-16_08h24.19.136,HF_wild_card,2022.2.4,Win32,60.0348202,63cfdefcf2ee0355b64d6f03,64d2fd46c836a06233681665,64dc79854101032082a1d435,,,,,,,ctch,resources/DB.BMP,resources/DBN.BMP,Door4,0.253703704,0.003703704,1,0,0,0.7042,optionRight,60,15105,7,17,0,17,0,1,,,,,,,,,,,,,,,,,,,,,,,,,,,,,,,,,,,,,,,
,,,,,,,,2023-08-16_08h24.19.136,HF_wild_card,2022.2.4,Win32,60.0348202,63cfdefcf2ee0355b64d6f03,64d2fd46c836a06233681665,64dc79854101032082a1d435,,,,,,,ctch,resources/DR.BMP,resources/DP.BMP,Door3,-0.258333333,0.028703704,1,0,0,0.8939,optionLeft,70,15175,7,18,0,18,0,1,,,,,,,,,,,,,,,,,,,,,,,,,,,,,,,,,,,,,,,
,,,,,,,,2023-08-16_08h24.19.136,HF_wild_card,2022.2.4,Win32,60.0348202,63cfdefcf2ee0355b64d6f03,64d2fd46c836a06233681665,64dc79854101032082a1d435,,,,,,,ctch,resources/DBN.BMP,resources/DB.BMP,Door4,-0.27962963,-0.012037037,1,0,0,0.777,optionLeft,80,15255,7,19,0,19,0,1,,,,,,,,,,,,,,,,,,,,,,,,,,,,,,,,,,,,,,,
,,,,,,,,2023-08-16_08h24.19.136,HF_wild_card,2022.2.4,Win32,60.0348202,63cfdefcf2ee0355b64d6f03,64d2fd46c836a06233681665,64dc79854101032082a1d435,,,,,,,decisionTrl,resources/DP.BMP,resources/DB.BMP,Door1,0.19537037,-0.017592593,1,0,0,0.8654,optionRight,30,15285,7,20,0,20,0,1,,,,,,,,,,,,,,,,,,,,,,,,,,,,,,,,,,,,,,,
,,,,,,,,2023-08-16_08h24.19.136,HF_wild_card,2022.2.4,Win32,60.0348202,63cfdefcf2ee0355b64d6f03,64d2fd46c836a06233681665,64dc79854101032082a1d435,,,,,,,decisionTrl,resources/DBN.BMP,resources/DR.BMP,Door4,-0.317592593,0.001851852,1,0,0,0.7336,optionLeft,60,15345,7,21,0,21,0,1,,,,,,,,,,,,,,,,,,,,,,,,,,,,,,,,,,,,,,,
,,,,,,,,2023-08-16_08h24.19.136,HF_wild_card,2022.2.4,Win32,60.0348202,63cfdefcf2ee0355b64d6f03,64d2fd46c836a06233681665,64dc79854101032082a1d435,,,,,,,decisionTrl,resources/DB.BMP,resources/DP.BMP,Door1,-0.291666667,0.012962963,1,0,0,1.2102,optionLeft,30,15375,7,22,0,22,0,1,,,,,,,,,,,,,,,,,,,,,,,,,,,,,,,,,,,,,,,
,,,,,,,,2023-08-16_08h24.19.136,HF_wild_card,2022.2.4,Win32,60.0348202,63cfdefcf2ee0355b64d6f03,64d2fd46c836a06233681665,64dc79854101032082a1d435,,,,,,,decisionTrl,resources/DB.BMP,resources/DP.BMP,Door1,-0.383333333,-0.049074074,1,0,0,3.32,optionLeft,30,15405,7,23,0,23,0,1,,,,,,,,,,,,,,,,,,,,,,,,,,,,,,,,,,,,,,,
,,,,,,,,2023-08-16_08h24.19.136,HF_wild_card,2022.2.4,Win32,60.0348202,63cfdefcf2ee0355b64d6f03,64d2fd46c836a06233681665,64dc79854101032082a1d435,,,,,,,ctch,resources/DR.BMP,resources/DP.BMP,Door3,-0.312962963,-0.036111111,1,0,0,0.8603,optionLeft,70,15475,7,24,0,24,0,1,,,,,,,,,,,,,,,,,,,,,,,,,,,,,,,,,,,,,,,
,,,,,,,,2023-08-16_08h24.19.136,HF_wild_card,2022.2.4,Win32,60.0348202,63cfdefcf2ee0355b64d6f03,64d2fd46c836a06233681665,64dc79854101032082a1d435,,,,,,,decisionTrl,resources/DBN.BMP,resources/DR.BMP,Door4,-0.275,-0.002777778,1,0,0,5.5646,optionLeft,60,15535,7,25,0,25,0,1,,,,,,,,,,,,,,,,,,,,,,,,,,,,,,,,,,,,,,,
,,,,,,,,2023-08-16_08h24.19.136,HF_wild_card,2022.2.4,Win32,60.0348202,63cfdefcf2ee0355b64d6f03,64d2fd46c836a06233681665,64dc79854101032082a1d435,,,,,,,decisionTrl,resources/DBN.BMP,resources/DR.BMP,Door4,-0.321296296,0.014814815,1,0,0,0.9202,optionLeft,60,15595,7,26,0,26,0,1,,,,,,,,,,,,,,,,,,,,,,,,,,,,,,,,,,,,,,,
,,,,,,,,2023-08-16_08h24.19.136,HF_wild_card,2022.2.4,Win32,60.0348202,63cfdefcf2ee0355b64d6f03,64d2fd46c836a06233681665,64dc79854101032082a1d435,,,,,,,ctch,resources/DR.BMP,resources/DP.BMP,Door3,-0.319444444,-0.035185185,1,0,0,0.8376,optionLeft,70,15665,7,27,0,27,0,1,,,,,,,,,,,,,,,,,,,,,,,,,,,,,,,,,,,,,,,
,,,,,,,,2023-08-16_08h24.19.136,HF_wild_card,2022.2.4,Win32,60.0348202,63cfdefcf2ee0355b64d6f03,64d2fd46c836a06233681665,64dc79854101032082a1d435,,,,,,,decisionTrl,resources/DR.BMP,resources/DBN.BMP,Door4,0.166666667,-0.02962963,1,0,0,1.3322,optionRight,60,15725,7,28,0,28,0,1,,,,,,,,,,,,,,,,,,,,,,,,,,,,,,,,,,,,,,,
,,,,,,,,2023-08-16_08h24.19.136,HF_wild_card,2022.2.4,Win32,60.0348202,63cfdefcf2ee0355b64d6f03,64d2fd46c836a06233681665,64dc79854101032082a1d435,,,,,,,decisionTrl,resources/DBN.BMP,resources/DR.BMP,Door4,-0.384259259,-0.062037037,1,0,0,0.7155,optionLeft,60,15785,7,29,0,29,0,1,,,,,,,,,,,,,,,,,,,,,,,,,,,,,,,,,,,,,,,
,,,,,,,,2023-08-16_08h24.19.136,HF_wild_card,2022.2.4,Win32,60.0348202,63cfdefcf2ee0355b64d6f03,64d2fd46c836a06233681665,64dc79854101032082a1d435,,,,,,,decisionTrl,resources/DR.BMP,resources/DBN.BMP,Door4,0.271296296,-0.021296296,1,0,0,1.1301,optionRight,60,15845,7,30,0,30,0,1,,,,,,,,,,,,,,,,,,,,,,,,,,,,,,,,,,,,,,,
,,,,,,,,2023-08-16_08h24.19.136,HF_wild_card,2022.2.4,Win32,60.0348202,63cfdefcf2ee0355b64d6f03,64d2fd46c836a06233681665,64dc79854101032082a1d435,,,,,,,decisionTrl,resources/DP.BMP,resources/DB.BMP,Door1,0.232407407,-0.063888889,1,0,0,0.9787,optionRight,30,15875,7,31,0,31,0,1,,,,,,,,,,,,,,,,,,,,,,,,,,,,,,,,,,,,,,,
,,,,,,,,2023-08-16_08h24.19.136,HF_wild_card,2022.2.4,Win32,60.0348202,63cfdefcf2ee0355b64d6f03,64d2fd46c836a06233681665,64dc79854101032082a1d435,,,,,,,decisionTrl,resources/DR.BMP,resources/DBN.BMP,Door4,0.287962963,-0.024074074,1,0,0,0.6489,optionRight,80,15955,7,32,0,32,0,1,,,,,,,,,,,,,,,,,,,,,,,,,,,,,,,,,,,,,,,
,,,,,,,,2023-08-16_08h24.19.136,HF_wild_card,2022.2.4,Win32,60.0348202,63cfdefcf2ee0355b64d6f03,64d2fd46c836a06233681665,64dc79854101032082a1d435,,,,,,,decisionTrl,resources/DR.BMP,resources/DBN.BMP,Door4,0.293518519,-0.027777778,1,0,0,0.6278,optionRight,80,16035,7,33,0,33,0,1,,,,,,,,,,,,,,,,,,,,,,,,,,,,,,,,,,,,,,,
,,,,,,,,2023-08-16_08h24.19.136,HF_wild_card,2022.2.4,Win32,60.0348202,63cfdefcf2ee0355b64d6f03,64d2fd46c836a06233681665,64dc79854101032082a1d435,,,,,,,ctch,resources/DB.BMP,resources/DBN.BMP,Door4,0.231481481,-0.011111111,1,0,0,0.8329,optionRight,60,16095,7,34,0,34,0,1,,,,,,,,,,,,,,,,,,,,,,,,,,,,,,,,,,,,,,,
,,,,,,,,2023-08-16_08h24.19.136,HF_wild_card,2022.2.4,Win32,60.0348202,63cfdefcf2ee0355b64d6f03,64d2fd46c836a06233681665,64dc79854101032082a1d435,,,,,,,decisionTrl,resources/DP.BMP,resources/DB.BMP,Door1,0.312037037,-0.018518519,1,0,0,1.0043,optionRight,30,16125,7,35,0,35,0,1,,,,,,,,,,,,,,,,,,,,,,,,,,,,,,,,,,,,,,,
,,,,,,,,2023-08-16_08h24.19.136,HF_wild_card,2022.2.4,Win32,60.0348202,63cfdefcf2ee0355b64d6f03,64d2fd46c836a06233681665,64dc79854101032082a1d435,,,,,,,,,,,,,,,,,,,,,,,,,,6,0,6,0,1,,,,,,,,,,,,,,,,,,,,,,,,,,,,,,,,,,
,,,,,,,,2023-08-16_08h24.19.136,HF_wild_card,2022.2.4,Win32,60.0348202,63cfdefcf2ee0355b64d6f03,64d2fd46c836a06233681665,64dc79854101032082a1d435,,,,,,,,,,,,,,,,,,,,,,,,,,,,,,,4,,,,,,,,,,,,,,,,,,,,,,,,,,,,,,,,,
,,,,,,,,2023-08-16_08h24.19.136,HF_wild_card,2022.2.4,Win32,60.0348202,63cfdefcf2ee0355b64d6f03,64d2fd46c836a06233681665,64dc79854101032082a1d435,,,,,,,,,,,,,,,,,,,,,,,,,,,,,,,,,,,,,,,,,,,,,,,,,,,,,,,,,,,,,,,,
,,,,,,,,2023-08-16_08h24.19.136,HF_wild_card,2022.2.4,Win32,60.0348202,63cfdefcf2ee0355b64d6f03,64d2fd46c836a06233681665,64dc79854101032082a1d435,,,,,,,,,,,,,,,,,,,,,,,,,,,,,,,,20,Door2,resources/DP.BMP,0,0,0,0,1,,,,,,,,,,,,,,,,,,,,,,,,,
,,,,,,,,2023-08-16_08h24.19.136,HF_wild_card,2022.2.4,Win32,60.0348202,63cfdefcf2ee0355b64d6f03,64d2fd46c836a06233681665,64dc79854101032082a1d435,,,,,,,,,,,,,,,,,,,,,,,,,,,,,,,,70,Door3,resources/DR.BMP,1,0,1,0,1,,,,,,,,,,,,,,,,,,,,,,,,,
,,,,,,,,2023-08-16_08h24.19.136,HF_wild_card,2022.2.4,Win32,60.0348202,63cfdefcf2ee0355b64d6f03,64d2fd46c836a06233681665,64dc79854101032082a1d435,,,,,,,,,,,,,,,,,,,,,,,,,,,,,,,,5,WC_extreme,resources/DY.BMP,2,0,2,0,1,,,,,,,,,,,,,,,,,,,,,,,,,
,,,,,,,,2023-08-16_08h24.19.136,HF_wild_card,2022.2.4,Win32,60.0348202,63cfdefcf2ee0355b64d6f03,64d2fd46c836a06233681665,64dc79854101032082a1d435,,,,,,,,,,,,,,,,,,,,,,,,,,,,,,,,55,WC_nonExtreme,resources/DG.BMP,3,0,3,0,1,,,,,,,,,,,,,,,,,,,,,,,,,
,,,,,,,,2023-08-16_08h24.19.136,HF_wild_card,2022.2.4,Win32,60.0348202,63cfdefcf2ee0355b64d6f03,64d2fd46c836a06233681665,64dc79854101032082a1d435,,,,,,,,,,,,,,,,,,,,,,,,,,,,,,,,40,Door1,resources/DB.BMP,4,0,4,0,1,,,,,,,,,,,,,,,,,,,,,,,,,
,,,,,,,,2023-08-16_08h24.19.136,HF_wild_card,2022.2.4,Win32,60.0348202,63cfdefcf2ee0355b64d6f03,64d2fd46c836a06233681665,64dc79854101032082a1d435,,,,,,,,,,,,,,,,,,,,,,,,,,,,,,,,80,Door4,resources/DBN.BMP,5,0,5,0,1,,,,,,,,,,,,,,,,,,,,,,,,,
,,,,,,,,2023-08-16_08h24.19.136,HF_wild_card,2022.2.4,Win32,60.0348202,63cfdefcf2ee0355b64d6f03,64d2fd46c836a06233681665,64dc79854101032082a1d435,,,,,,,,,,,,,,,,,,,,,,,,,,,,,,,,,,,,,,,,,,,,,,,,,,,,,,,,,,,,,,,,
,,,,,,,,2023-08-16_08h24.19.136,HF_wild_card,2022.2.4,Win32,60.0348202,63cfdefcf2ee0355b64d6f03,64d2fd46c836a06233681665,64dc79854101032082a1d435,,,,,,,,,,,,,,,,,,,,,,,,,,,,,,,,,,,,,,,,0,0,0,0,1,,,,,,,,,,,,,,,,,,,,
,,,,,,,,2023-08-16_08h24.19.136,HF_wild_card,2022.2.4,Win32,60.0348202,63cfdefcf2ee0355b64d6f03,64d2fd46c836a06233681665,64dc79854101032082a1d435,,,,,,,,,,,,,,,,,,,,,,,,,,,,,,,,,,,,,,,,1,0,1,0,1,,,,,,,,,,,,,,,,,,,,
