Condition,Low fixed image (Door1),Low risky image (Door2),High fixed image (Door3),High risky image (Door4),NonExtreme Wild Card 1,NonExtreme Wild Card 2,,date,expName,psychopyVersion,OS,frameRate,PROLIFIC_PID,STUDY_ID,SESSION_ID,mouse_2.x,mouse_2.y,mouse_2.leftButton,mouse_2.midButton,mouse_2.rightButton,mouse_2.clicked_name,Trial Type,Left Option Image,Right Option Image,Chosen Door,mouse.x,mouse.y,mouse.leftButton,mouse.midButton,mouse.rightButton,mouse.time,mouse.clicked_name,Feedback,Cumulative Reward,Block,trial.thisRepN,trial.thisTrialN,trial.thisN,trial.thisIndex,trial.ran,blocks.thisRepN,blocks.thisTrialN,blocks.thisN,blocks.thisIndex,blocks.ran,Money conversion,First Outcome Reported,Shown Door (First Outcome),Displayed Image (First Outcome),outcomes.thisRepN,outcomes.thisTrialN,outcomes.thisN,outcomes.thisIndex,outcomes.ran,judgments.thisRepN,judgments.thisTrialN,judgments.thisN,judgments.thisIndex,judgments.ran,freqMouse.x,freqMouse.y,freqMouse.leftButton,freqMouse.midButton,freqMouse.rightButton,freqMouse.clicked_name,FQJ for first outcome,FQJ for second outcome,Shown Door,Displayed Image,trials.thisRepN,trials.thisTrialN,trials.thisN,trials.thisIndex,trials.ran,judgBlock.thisRepN,judgBlock.thisTrialN,judgBlock.thisN,judgBlock.thisIndex,judgBlock.ran
2,resources/DBN.BMP,resources/DY.BMP,resources/DR.BMP,resources/DG.BMP,resources/DP.BMP,resources/DB.BMP,,2023-08-16_08h47.59.566,HF_wild_card,2022.2.4,MacIntel,60.0024001,604c5ff80862dbf0bfe4caac,64d2fd46c836a06233681665,64dc7f26584a8f3af72ae997,,,,,,,,,,,,,,,,,,,,,,,,,,,,,,,,,,,,,,,,,,,,,,,,,,,,,,,,,,,,,,,,
,,,,,,,,2023-08-16_08h47.59.566,HF_wild_card,2022.2.4,MacIntel,60.0024001,604c5ff80862dbf0bfe4caac,64d2fd46c836a06233681665,64dc7f26584a8f3af72ae997,0.006375279,-0.417680752,1,0,0,agree,,,,,,,,,,,,,,,,,,,,,,,,,,,,,,,,,,,,,,,,,,,,,,,,,,,,,,,,,,
,,,,,,,,2023-08-16_08h47.59.566,HF_wild_card,2022.2.4,MacIntel,60.0024001,604c5ff80862dbf0bfe4caac,64d2fd46c836a06233681665,64dc7f26584a8f3af72ae997,,,,,,,,,,,,,,,,,,,,,,,,,,,,,,,,,,,,,,,,,,,,,,,,,,,,,,,,,,,,,,,,
,,,,,,,,2023-08-16_08h47.59.566,HF_wild_card,2022.2.4,MacIntel,60.0024001,604c5ff80862dbf0bfe4caac,64d2fd46c836a06233681665,64dc7f26584a8f3af72ae997,,,,,,,decisionTrl,resources/DR.BMP,resources/DG.BMP,Door4,0.403162124,-0.057084986,1,0,0,2.6274,optionRight,60,60,1,0,0,0,0,1,,,,,,,,,,,,,,,,,,,,,,,,,,,,,,,,,,,,,,,
,,,,,,,,2023-08-16_08h47.59.566,HF_wild_card,2022.2.4,MacIntel,60.0024001,604c5ff80862dbf0bfe4caac,64d2fd46c836a06233681665,64dc7f26584a8f3af72ae997,,,,,,,ctch,resources/DY.BMP,resources/DR.BMP,Door2,-0.358983557,0.001387889,1,0,0,1.9482,optionLeft,20,80,1,1,0,1,0,1,,,,,,,,,,,,,,,,,,,,,,,,,,,,,,,,,,,,,,,
,,,,,,,,2023-08-16_08h47.59.566,HF_wild_card,2022.2.4,MacIntel,60.0024001,604c5ff80862dbf0bfe4caac,64d2fd46c836a06233681665,64dc7f26584a8f3af72ae997,,,,,,,decisionTrl,resources/DB.BMP,resources/DBN.BMP,WildCard_NonEx,-0.342070715,0.001662988,1,0,0,2.472,optionLeft,45,125,1,2,0,2,0,1,,,,,,,,,,,,,,,,,,,,,,,,,,,,,,,,,,,,,,,
,,,,,,,,2023-08-16_08h47.59.566,HF_wild_card,2022.2.4,MacIntel,60.0024001,604c5ff80862dbf0bfe4caac,64d2fd46c836a06233681665,64dc7f26584a8f3af72ae997,,,,,,,ctch,resources/DBN.BMP,resources/DG.BMP,Door4,0.278804818,0.0015104,1,0,0,1.3146,optionRight,80,205,1,3,0,3,0,1,,,,,,,,,,,,,,,,,,,,,,,,,,,,,,,,,,,,,,,
,,,,,,,,2023-08-16_08h47.59.566,HF_wild_card,2022.2.4,MacIntel,60.0024001,604c5ff80862dbf0bfe4caac,64d2fd46c836a06233681665,64dc7f26584a8f3af72ae997,,,,,,,decisionTrl,resources/DBN.BMP,resources/DB.BMP,Door1,-0.32105436,0.000544283,1,0,0,1.2461,optionLeft,30,235,1,4,0,4,0,1,,,,,,,,,,,,,,,,,,,,,,,,,,,,,,,,,,,,,,,
,,,,,,,,2023-08-16_08h47.59.566,HF_wild_card,2022.2.4,MacIntel,60.0024001,604c5ff80862dbf0bfe4caac,64d2fd46c836a06233681665,64dc7f26584a8f3af72ae997,,,,,,,decisionTrl,resources/DG.BMP,resources/DR.BMP,Door4,-0.231574808,-0.01160788,1,0,0,1.7982,optionLeft,80,315,1,5,0,5,0,1,,,,,,,,,,,,,,,,,,,,,,,,,,,,,,,,,,,,,,,
,,,,,,,,2023-08-16_08h47.59.566,HF_wild_card,2022.2.4,MacIntel,60.0024001,604c5ff80862dbf0bfe4caac,64d2fd46c836a06233681665,64dc7f26584a8f3af72ae997,,,,,,,ctch,resources/DY.BMP,resources/DR.BMP,Door2,-0.354358225,-0.005114809,1,0,0,2.748,optionLeft,40,355,1,6,0,6,0,1,,,,,,,,,,,,,,,,,,,,,,,,,,,,,,,,,,,,,,,
,,,,,,,,2023-08-16_08h47.59.566,HF_wild_card,2022.2.4,MacIntel,60.0024001,604c5ff80862dbf0bfe4caac,64d2fd46c836a06233681665,64dc7f26584a8f3af72ae997,,,,,,,sngl,resources/DG.BMP,resources/Empty.png,Door4,-0.297156517,-0.004452106,1,0,0,0.6644,optionLeft,80,435,1,7,0,7,0,1,,,,,,,,,,,,,,,,,,,,,,,,,,,,,,,,,,,,,,,
,,,,,,,,2023-08-16_08h47.59.566,HF_wild_card,2022.2.4,MacIntel,60.0024001,604c5ff80862dbf0bfe4caac,64d2fd46c836a06233681665,64dc7f26584a8f3af72ae997,,,,,,,decisionTrl,resources/DBN.BMP,resources/DY.BMP,Door2,0.289497423,0.001942428,1,0,0,1.6152,optionRight,40,475,1,8,0,8,0,1,,,,,,,,,,,,,,,,,,,,,,,,,,,,,,,,,,,,,,,
,,,,,,,,2023-08-16_08h47.59.566,HF_wild_card,2022.2.4,MacIntel,60.0024001,604c5ff80862dbf0bfe4caac,64d2fd46c836a06233681665,64dc7f26584a8f3af72ae997,,,,,,,sngl,resources/DR.BMP,resources/Empty.png,Door3,-0.208385853,-0.003247448,1,0,0,0.7634,optionLeft,70,545,1,9,0,9,0,1,,,,,,,,,,,,,,,,,,,,,,,,,,,,,,,,,,,,,,,
,,,,,,,,2023-08-16_08h47.59.566,HF_wild_card,2022.2.4,MacIntel,60.0024001,604c5ff80862dbf0bfe4caac,64d2fd46c836a06233681665,64dc7f26584a8f3af72ae997,,,,,,,decisionTrl,resources/DY.BMP,resources/DBN.BMP,Door1,0.340734486,0.021974544,1,0,0,0.8502,optionRight,30,575,1,10,0,10,0,1,,,,,,,,,,,,,,,,,,,,,,,,,,,,,,,,,,,,,,,
,,,,,,,,2023-08-16_08h47.59.566,HF_wild_card,2022.2.4,MacIntel,60.0024001,604c5ff80862dbf0bfe4caac,64d2fd46c836a06233681665,64dc7f26584a8f3af72ae997,,,,,,,decisionTrl,resources/DR.BMP,resources/DG.BMP,Door4,0.346280757,0.018538202,1,0,0,0.8481,optionRight,80,655,1,11,0,11,0,1,,,,,,,,,,,,,,,,,,,,,,,,,,,,,,,,,,,,,,,
,,,,,,,,2023-08-16_08h47.59.566,HF_wild_card,2022.2.4,MacIntel,60.0024001,604c5ff80862dbf0bfe4caac,64d2fd46c836a06233681665,64dc7f26584a8f3af72ae997,,,,,,,decisionTrl,resources/DR.BMP,resources/DG.BMP,Door4,0.262277127,0.01195232,1,0,0,1.166,optionRight,80,735,1,12,0,12,0,1,,,,,,,,,,,,,,,,,,,,,,,,,,,,,,,,,,,,,,,
,,,,,,,,2023-08-16_08h47.59.566,HF_wild_card,2022.2.4,MacIntel,60.0024001,604c5ff80862dbf0bfe4caac,64d2fd46c836a06233681665,64dc7f26584a8f3af72ae997,,,,,,,decisionTrl,resources/DBN.BMP,resources/DY.BMP,Door2,0.306257551,0.015305352,1,0,0,1.1142,optionRight,40,775,1,13,0,13,0,1,,,,,,,,,,,,,,,,,,,,,,,,,,,,,,,,,,,,,,,
,,,,,,,,2023-08-16_08h47.59.566,HF_wild_card,2022.2.4,MacIntel,60.0024001,604c5ff80862dbf0bfe4caac,64d2fd46c836a06233681665,64dc7f26584a8f3af72ae997,,,,,,,decisionTrl,resources/DR.BMP,resources/DB.BMP,WildCard_NonEx,0.367143832,0.011787084,1,0,0,1.1003,optionRight,55,830,1,14,0,14,0,1,,,,,,,,,,,,,,,,,,,,,,,,,,,,,,,,,,,,,,,
,,,,,,,,2023-08-16_08h47.59.566,HF_wild_card,2022.2.4,MacIntel,60.0024001,604c5ff80862dbf0bfe4caac,64d2fd46c836a06233681665,64dc7f26584a8f3af72ae997,,,,,,,decisionTrl,resources/DY.BMP,resources/DBN.BMP,Door2,-0.174168349,-0.013313404,1,0,0,1.7632,optionLeft,40,870,1,15,0,15,0,1,,,,,,,,,,,,,,,,,,,,,,,,,,,,,,,,,,,,,,,
,,,,,,,,2023-08-16_08h47.59.566,HF_wild_card,2022.2.4,MacIntel,60.0024001,604c5ff80862dbf0bfe4caac,64d2fd46c836a06233681665,64dc7f26584a8f3af72ae997,,,,,,,decisionTrl,resources/DR.BMP,resources/DG.BMP,Door3,-0.201630457,-0.012426317,1,0,0,1.1817,optionLeft,70,940,1,16,0,16,0,1,,,,,,,,,,,,,,,,,,,,,,,,,,,,,,,,,,,,,,,
,,,,,,,,2023-08-16_08h47.59.566,HF_wild_card,2022.2.4,MacIntel,60.0024001,604c5ff80862dbf0bfe4caac,64d2fd46c836a06233681665,64dc7f26584a8f3af72ae997,,,,,,,sngl,resources/Empty.png,resources/DB.BMP,WildCard_NonEx,0.252705682,0.002395158,1,0,0,0.8651,optionRight,45,985,1,17,0,17,0,1,,,,,,,,,,,,,,,,,,,,,,,,,,,,,,,,,,,,,,,
,,,,,,,,2023-08-16_08h47.59.566,HF_wild_card,2022.2.4,MacIntel,60.0024001,604c5ff80862dbf0bfe4caac,64d2fd46c836a06233681665,64dc7f26584a8f3af72ae997,,,,,,,decisionTrl,resources/DBN.BMP,resources/DY.BMP,Door2,0.232709181,0.015083234,1,0,0,2.1951,optionRight,20,1005,1,18,0,18,0,1,,,,,,,,,,,,,,,,,,,,,,,,,,,,,,,,,,,,,,,
,,,,,,,,2023-08-16_08h47.59.566,HF_wild_card,2022.2.4,MacIntel,60.0024001,604c5ff80862dbf0bfe4caac,64d2fd46c836a06233681665,64dc7f26584a8f3af72ae997,,,,,,,sngl,resources/Empty.png,resources/DG.BMP,Door4,0.286784064,0.025869468,1,0,0,0.7306,optionRight,60,1065,1,19,0,19,0,1,,,,,,,,,,,,,,,,,,,,,,,,,,,,,,,,,,,,,,,
,,,,,,,,2023-08-16_08h47.59.566,HF_wild_card,2022.2.4,MacIntel,60.0024001,604c5ff80862dbf0bfe4caac,64d2fd46c836a06233681665,64dc7f26584a8f3af72ae997,,,,,,,decisionTrl,resources/DB.BMP,resources/DR.BMP,WildCard_NonEx,-0.218583192,-0.017574979,1,0,0,1.5837,optionLeft,55,1120,1,20,0,20,0,1,,,,,,,,,,,,,,,,,,,,,,,,,,,,,,,,,,,,,,,
,,,,,,,,2023-08-16_08h47.59.566,HF_wild_card,2022.2.4,MacIntel,60.0024001,604c5ff80862dbf0bfe4caac,64d2fd46c836a06233681665,64dc7f26584a8f3af72ae997,,,,,,,ctch,resources/DR.BMP,resources/DY.BMP,Door3,-0.251637693,0.009814642,1,0,0,6.313,optionLeft,70,1190,1,21,0,21,0,1,,,,,,,,,,,,,,,,,,,,,,,,,,,,,,,,,,,,,,,
,,,,,,,,2023-08-16_08h47.59.566,HF_wild_card,2022.2.4,MacIntel,60.0024001,604c5ff80862dbf0bfe4caac,64d2fd46c836a06233681665,64dc7f26584a8f3af72ae997,,,,,,,decisionTrl,resources/DG.BMP,resources/DB.BMP,Door4,-0.271225259,0.028353158,1,0,0,2.8295,optionLeft,80,1270,1,22,0,22,0,1,,,,,,,,,,,,,,,,,,,,,,,,,,,,,,,,,,,,,,,
,,,,,,,,2023-08-16_08h47.59.566,HF_wild_card,2022.2.4,MacIntel,60.0024001,604c5ff80862dbf0bfe4caac,64d2fd46c836a06233681665,64dc7f26584a8f3af72ae997,,,,,,,decisionTrl,resources/DY.BMP,resources/DBN.BMP,Door2,-0.250341419,0.008157821,1,0,0,1.1807,optionLeft,40,1310,1,23,0,23,0,1,,,,,,,,,,,,,,,,,,,,,,,,,,,,,,,,,,,,,,,
,,,,,,,,2023-08-16_08h47.59.566,HF_wild_card,2022.2.4,MacIntel,60.0024001,604c5ff80862dbf0bfe4caac,64d2fd46c836a06233681665,64dc7f26584a8f3af72ae997,,,,,,,decisionTrl,resources/DB.BMP,resources/DY.BMP,WildCard_NonEx,-0.197384046,0.013618013,1,0,0,1.78,optionLeft,55,1365,1,24,0,24,0,1,,,,,,,,,,,,,,,,,,,,,,,,,,,,,,,,,,,,,,,
,,,,,,,,2023-08-16_08h47.59.566,HF_wild_card,2022.2.4,MacIntel,60.0024001,604c5ff80862dbf0bfe4caac,64d2fd46c836a06233681665,64dc7f26584a8f3af72ae997,,,,,,,ctch,resources/DBN.BMP,resources/DG.BMP,Door4,0.236846609,0.021094883,1,0,0,0.8979,optionRight,60,1425,1,25,0,25,0,1,,,,,,,,,,,,,,,,,,,,,,,,,,,,,,,,,,,,,,,
,,,,,,,,2023-08-16_08h47.59.566,HF_wild_card,2022.2.4,MacIntel,60.0024001,604c5ff80862dbf0bfe4caac,64d2fd46c836a06233681665,64dc7f26584a8f3af72ae997,,,,,,,sngl,resources/DBN.BMP,resources/Empty.png,Door1,-0.197112156,0.014169721,1,0,0,0.7701,optionLeft,30,1455,1,26,0,26,0,1,,,,,,,,,,,,,,,,,,,,,,,,,,,,,,,,,,,,,,,
,,,,,,,,2023-08-16_08h47.59.566,HF_wild_card,2022.2.4,MacIntel,60.0024001,604c5ff80862dbf0bfe4caac,64d2fd46c836a06233681665,64dc7f26584a8f3af72ae997,,,,,,,decisionTrl,resources/DG.BMP,resources/DR.BMP,Door4,-0.213193473,0.010285179,1,0,0,1.0986,optionLeft,60,1515,1,27,0,27,0,1,,,,,,,,,,,,,,,,,,,,,,,,,,,,,,,,,,,,,,,
,,,,,,,,2023-08-16_08h47.59.566,HF_wild_card,2022.2.4,MacIntel,60.0024001,604c5ff80862dbf0bfe4caac,64d2fd46c836a06233681665,64dc7f26584a8f3af72ae997,,,,,,,decisionTrl,resources/DG.BMP,resources/DR.BMP,Door4,-0.27610568,0.011519788,1,0,0,0.5971,optionLeft,80,1595,1,28,0,28,0,1,,,,,,,,,,,,,,,,,,,,,,,,,,,,,,,,,,,,,,,
,,,,,,,,2023-08-16_08h47.59.566,HF_wild_card,2022.2.4,MacIntel,60.0024001,604c5ff80862dbf0bfe4caac,64d2fd46c836a06233681665,64dc7f26584a8f3af72ae997,,,,,,,sngl,resources/DB.BMP,resources/Empty.png,WildCard_NonEx,-0.243795619,0.010494523,1,0,0,1.8772,optionLeft,45,1640,1,29,0,29,0,1,,,,,,,,,,,,,,,,,,,,,,,,,,,,,,,,,,,,,,,
,,,,,,,,2023-08-16_08h47.59.566,HF_wild_card,2022.2.4,MacIntel,60.0024001,604c5ff80862dbf0bfe4caac,64d2fd46c836a06233681665,64dc7f26584a8f3af72ae997,,,,,,,ctch,resources/DG.BMP,resources/DBN.BMP,Door4,-0.204560773,0.013277978,1,0,0,1.0495,optionLeft,80,1720,1,30,0,30,0,1,,,,,,,,,,,,,,,,,,,,,,,,,,,,,,,,,,,,,,,
,,,,,,,,2023-08-16_08h47.59.566,HF_wild_card,2022.2.4,MacIntel,60.0024001,604c5ff80862dbf0bfe4caac,64d2fd46c836a06233681665,64dc7f26584a8f3af72ae997,,,,,,,sngl,resources/Empty.png,resources/DR.BMP,Door3,0.258191547,-0.009218951,1,0,0,0.8159,optionRight,70,1790,1,31,0,31,0,1,,,,,,,,,,,,,,,,,,,,,,,,,,,,,,,,,,,,,,,
,,,,,,,,2023-08-16_08h47.59.566,HF_wild_card,2022.2.4,MacIntel,60.0024001,604c5ff80862dbf0bfe4caac,64d2fd46c836a06233681665,64dc7f26584a8f3af72ae997,,,,,,,decisionTrl,resources/DBN.BMP,resources/DY.BMP,Door1,-0.299547836,0.020844513,1,0,0,2.0124,optionLeft,30,1820,1,32,0,32,0,1,,,,,,,,,,,,,,,,,,,,,,,,,,,,,,,,,,,,,,,
,,,,,,,,2023-08-16_08h47.59.566,HF_wild_card,2022.2.4,MacIntel,60.0024001,604c5ff80862dbf0bfe4caac,64d2fd46c836a06233681665,64dc7f26584a8f3af72ae997,,,,,,,decisionTrl,resources/DG.BMP,resources/DR.BMP,Door4,-0.244795274,0.008641446,1,0,0,0.8143,optionLeft,60,1880,1,33,0,33,0,1,,,,,,,,,,,,,,,,,,,,,,,,,,,,,,,,,,,,,,,
,,,,,,,,2023-08-16_08h47.59.566,HF_wild_card,2022.2.4,MacIntel,60.0024001,604c5ff80862dbf0bfe4caac,64d2fd46c836a06233681665,64dc7f26584a8f3af72ae997,,,,,,,sngl,resources/Empty.png,resources/DBN.BMP,Door1,0.289650199,0.002230615,1,0,0,0.6477,optionRight,30,1910,1,34,0,34,0,1,,,,,,,,,,,,,,,,,,,,,,,,,,,,,,,,,,,,,,,
,,,,,,,,2023-08-16_08h47.59.566,HF_wild_card,2022.2.4,MacIntel,60.0024001,604c5ff80862dbf0bfe4caac,64d2fd46c836a06233681665,64dc7f26584a8f3af72ae997,,,,,,,sngl,resources/Empty.png,resources/DB.BMP,WildCard_NonEx,0.238063915,0.006670639,1,0,0,0.5981,optionRight,55,1965,1,35,0,35,0,1,,,,,,,,,,,,,,,,,,,,,,,,,,,,,,,,,,,,,,,
,,,,,,,,2023-08-16_08h47.59.566,HF_wild_card,2022.2.4,MacIntel,60.0024001,604c5ff80862dbf0bfe4caac,64d2fd46c836a06233681665,64dc7f26584a8f3af72ae997,,,,,,,sngl,resources/Empty.png,resources/DY.BMP,Door2,0.246342673,0.002629671,1,0,0,0.6161,optionRight,20,1985,1,36,0,36,0,1,,,,,,,,,,,,,,,,,,,,,,,,,,,,,,,,,,,,,,,
,,,,,,,,2023-08-16_08h47.59.566,HF_wild_card,2022.2.4,MacIntel,60.0024001,604c5ff80862dbf0bfe4caac,64d2fd46c836a06233681665,64dc7f26584a8f3af72ae997,,,,,,,decisionTrl,resources/DB.BMP,resources/DG.BMP,Door4,0.206002965,0.016578155,1,0,0,1.6994,optionRight,60,2045,1,37,0,37,0,1,,,,,,,,,,,,,,,,,,,,,,,,,,,,,,,,,,,,,,,
,,,,,,,,2023-08-16_08h47.59.566,HF_wild_card,2022.2.4,MacIntel,60.0024001,604c5ff80862dbf0bfe4caac,64d2fd46c836a06233681665,64dc7f26584a8f3af72ae997,,,,,,,ctch,resources/DR.BMP,resources/DY.BMP,Door3,-0.27683181,0.014104784,1,0,0,1.6843,optionLeft,70,2115,1,38,0,38,0,1,,,,,,,,,,,,,,,,,,,,,,,,,,,,,,,,,,,,,,,
,,,,,,,,2023-08-16_08h47.59.566,HF_wild_card,2022.2.4,MacIntel,60.0024001,604c5ff80862dbf0bfe4caac,64d2fd46c836a06233681665,64dc7f26584a8f3af72ae997,,,,,,,sngl,resources/DB.BMP,resources/Empty.png,WildCard_NonEx,-0.222218055,0.010867781,1,0,0,0.6317,optionLeft,55,2170,1,39,0,39,0,1,,,,,,,,,,,,,,,,,,,,,,,,,,,,,,,,,,,,,,,
,,,,,,,,2023-08-16_08h47.59.566,HF_wild_card,2022.2.4,MacIntel,60.0024001,604c5ff80862dbf0bfe4caac,64d2fd46c836a06233681665,64dc7f26584a8f3af72ae997,,,,,,,decisionTrl,resources/DY.BMP,resources/DBN.BMP,Door1,0.356585253,0.071520713,1,0,0,4.3141,optionRight,30,2200,1,40,0,40,0,1,,,,,,,,,,,,,,,,,,,,,,,,,,,,,,,,,,,,,,,
,,,,,,,,2023-08-16_08h47.59.566,HF_wild_card,2022.2.4,MacIntel,60.0024001,604c5ff80862dbf0bfe4caac,64d2fd46c836a06233681665,64dc7f26584a8f3af72ae997,,,,,,,decisionTrl,resources/DY.BMP,resources/DB.BMP,WildCard_NonEx,0.227407931,0.01516151,1,0,0,1.4825,optionRight,45,2245,1,41,0,41,0,1,,,,,,,,,,,,,,,,,,,,,,,,,,,,,,,,,,,,,,,
,,,,,,,,2023-08-16_08h47.59.566,HF_wild_card,2022.2.4,MacIntel,60.0024001,604c5ff80862dbf0bfe4caac,64d2fd46c836a06233681665,64dc7f26584a8f3af72ae997,,,,,,,ctch,resources/DG.BMP,resources/DBN.BMP,Door4,-0.189539518,-0.001513357,1,0,0,0.9474,optionLeft,80,2325,1,42,0,42,0,1,,,,,,,,,,,,,,,,,,,,,,,,,,,,,,,,,,,,,,,
,,,,,,,,2023-08-16_08h47.59.566,HF_wild_card,2022.2.4,MacIntel,60.0024001,604c5ff80862dbf0bfe4caac,64d2fd46c836a06233681665,64dc7f26584a8f3af72ae997,,,,,,,sngl,resources/DY.BMP,resources/Empty.png,Door2,-0.189861117,-0.013201904,1,0,0,1.5832,optionLeft,40,2365,1,43,0,43,0,1,,,,,,,,,,,,,,,,,,,,,,,,,,,,,,,,,,,,,,,
,,,,,,,,2023-08-16_08h47.59.566,HF_wild_card,2022.2.4,MacIntel,60.0024001,604c5ff80862dbf0bfe4caac,64d2fd46c836a06233681665,64dc7f26584a8f3af72ae997,,,,,,,,,,,,,,,,,,,,,,,,,,0,0,0,0,1,,,,,,,,,,,,,,,,,,,,,,,,,,,,,,,,,,
,,,,,,,,2023-08-16_08h47.59.566,HF_wild_card,2022.2.4,MacIntel,60.0024001,604c5ff80862dbf0bfe4caac,64d2fd46c836a06233681665,64dc7f26584a8f3af72ae997,,,,,,,ctch,resources/DR.BMP,resources/DY.BMP,Door2,0.291900824,-0.071803142,1,0,0,5.605,optionRight,40,2405,2,0,0,0,0,1,,,,,,,,,,,,,,,,,,,,,,,,,,,,,,,,,,,,,,,
,,,,,,,,2023-08-16_08h47.59.566,HF_wild_card,2022.2.4,MacIntel,60.0024001,604c5ff80862dbf0bfe4caac,64d2fd46c836a06233681665,64dc7f26584a8f3af72ae997,,,,,,,decisionTrl,resources/DR.BMP,resources/DB.BMP,WildCard_NonEx,0.192615249,0.002445874,1,0,0,0.7144,optionRight,55,2460,2,1,0,1,0,1,,,,,,,,,,,,,,,,,,,,,,,,,,,,,,,,,,,,,,,
,,,,,,,,2023-08-16_08h47.59.566,HF_wild_card,2022.2.4,MacIntel,60.0024001,604c5ff80862dbf0bfe4caac,64d2fd46c836a06233681665,64dc7f26584a8f3af72ae997,,,,,,,sngl,resources/DB.BMP,resources/Empty.png,WildCard_NonEx,-0.228534502,0.004575623,1,0,0,0.5496,optionLeft,55,2515,2,2,0,2,0,1,,,,,,,,,,,,,,,,,,,,,,,,,,,,,,,,,,,,,,,
,,,,,,,,2023-08-16_08h47.59.566,HF_wild_card,2022.2.4,MacIntel,60.0024001,604c5ff80862dbf0bfe4caac,64d2fd46c836a06233681665,64dc7f26584a8f3af72ae997,,,,,,,decisionTrl,resources/DB.BMP,resources/DY.BMP,Door2,0.290994483,0.003707477,1,0,0,2.8659,optionRight,40,2555,2,3,0,3,0,1,,,,,,,,,,,,,,,,,,,,,,,,,,,,,,,,,,,,,,,
,,,,,,,,2023-08-16_08h47.59.566,HF_wild_card,2022.2.4,MacIntel,60.0024001,604c5ff80862dbf0bfe4caac,64d2fd46c836a06233681665,64dc7f26584a8f3af72ae997,,,,,,,sngl,resources/DG.BMP,resources/Empty.png,Door4,-0.220555634,0.011535896,1,0,0,1.1319,optionLeft,60,2615,2,4,0,4,0,1,,,,,,,,,,,,,,,,,,,,,,,,,,,,,,,,,,,,,,,
,,,,,,,,2023-08-16_08h47.59.566,HF_wild_card,2022.2.4,MacIntel,60.0024001,604c5ff80862dbf0bfe4caac,64d2fd46c836a06233681665,64dc7f26584a8f3af72ae997,,,,,,,ctch,resources/DBN.BMP,resources/DG.BMP,Door4,0.188963711,0.020192129,1,0,0,1.8064,optionRight,60,2675,2,5,0,5,0,1,,,,,,,,,,,,,,,,,,,,,,,,,,,,,,,,,,,,,,,
,,,,,,,,2023-08-16_08h47.59.566,HF_wild_card,2022.2.4,MacIntel,60.0024001,604c5ff80862dbf0bfe4caac,64d2fd46c836a06233681665,64dc7f26584a8f3af72ae997,,,,,,,decisionTrl,resources/DY.BMP,resources/DB.BMP,Door2,-0.250244644,0.020179796,1,0,0,2.4325,optionLeft,40,2715,2,6,0,6,0,1,,,,,,,,,,,,,,,,,,,,,,,,,,,,,,,,,,,,,,,
,,,,,,,,2023-08-16_08h47.59.566,HF_wild_card,2022.2.4,MacIntel,60.0024001,604c5ff80862dbf0bfe4caac,64d2fd46c836a06233681665,64dc7f26584a8f3af72ae997,,,,,,,sngl,resources/Empty.png,resources/DG.BMP,Door4,0.245709166,0.00159006,1,0,0,0.8313,optionRight,80,2795,2,7,0,7,0,1,,,,,,,,,,,,,,,,,,,,,,,,,,,,,,,,,,,,,,,
,,,,,,,,2023-08-16_08h47.59.566,HF_wild_card,2022.2.4,MacIntel,60.0024001,604c5ff80862dbf0bfe4caac,64d2fd46c836a06233681665,64dc7f26584a8f3af72ae997,,,,,,,decisionTrl,resources/DR.BMP,resources/DG.BMP,Door3,-0.217125206,0.008145425,1,0,0,2.5293,optionLeft,70,2865,2,8,0,8,0,1,,,,,,,,,,,,,,,,,,,,,,,,,,,,,,,,,,,,,,,
,,,,,,,,2023-08-16_08h47.59.566,HF_wild_card,2022.2.4,MacIntel,60.0024001,604c5ff80862dbf0bfe4caac,64d2fd46c836a06233681665,64dc7f26584a8f3af72ae997,,,,,,,decisionTrl,resources/DY.BMP,resources/DBN.BMP,Door2,-0.210708146,0.006034993,1,0,0,2.0292,optionLeft,40,2905,2,9,0,9,0,1,,,,,,,,,,,,,,,,,,,,,,,,,,,,,,,,,,,,,,,
,,,,,,,,2023-08-16_08h47.59.566,HF_wild_card,2022.2.4,MacIntel,60.0024001,604c5ff80862dbf0bfe4caac,64d2fd46c836a06233681665,64dc7f26584a8f3af72ae997,,,,,,,decisionTrl,resources/DR.BMP,resources/DG.BMP,Door3,-0.250106969,0.009176793,1,0,0,3.2477,optionLeft,70,2975,2,10,0,10,0,1,,,,,,,,,,,,,,,,,,,,,,,,,,,,,,,,,,,,,,,
,,,,,,,,2023-08-16_08h47.59.566,HF_wild_card,2022.2.4,MacIntel,60.0024001,604c5ff80862dbf0bfe4caac,64d2fd46c836a06233681665,64dc7f26584a8f3af72ae997,,,,,,,decisionTrl,resources/DBN.BMP,resources/DB.BMP,WildCard_NonEx,0.21057519,0.0114137,1,0,0,3.3982,optionRight,45,3020,2,11,0,11,0,1,,,,,,,,,,,,,,,,,,,,,,,,,,,,,,,,,,,,,,,
,,,,,,,,2023-08-16_08h47.59.566,HF_wild_card,2022.2.4,MacIntel,60.0024001,604c5ff80862dbf0bfe4caac,64d2fd46c836a06233681665,64dc7f26584a8f3af72ae997,,,,,,,sngl,resources/DB.BMP,resources/Empty.png,WildCard_NonEx,-0.135473255,0.001293568,1,0,0,0.6963,optionLeft,45,3065,2,12,0,12,0,1,,,,,,,,,,,,,,,,,,,,,,,,,,,,,,,,,,,,,,,
,,,,,,,,2023-08-16_08h47.59.566,HF_wild_card,2022.2.4,MacIntel,60.0024001,604c5ff80862dbf0bfe4caac,64d2fd46c836a06233681665,64dc7f26584a8f3af72ae997,,,,,,,decisionTrl,resources/DY.BMP,resources/DBN.BMP,Door2,-0.221038755,0.006979653,1,0,0,1.2322,optionLeft,20,3085,2,13,0,13,0,1,,,,,,,,,,,,,,,,,,,,,,,,,,,,,,,,,,,,,,,
,,,,,,,,2023-08-16_08h47.59.566,HF_wild_card,2022.2.4,MacIntel,60.0024001,604c5ff80862dbf0bfe4caac,64d2fd46c836a06233681665,64dc7f26584a8f3af72ae997,,,,,,,ctch,resources/DG.BMP,resources/DBN.BMP,Door4,-0.186162386,0.007370467,1,0,0,1.2828,optionLeft,60,3145,2,14,0,14,0,1,,,,,,,,,,,,,,,,,,,,,,,,,,,,,,,,,,,,,,,
,,,,,,,,2023-08-16_08h47.59.566,HF_wild_card,2022.2.4,MacIntel,60.0024001,604c5ff80862dbf0bfe4caac,64d2fd46c836a06233681665,64dc7f26584a8f3af72ae997,,,,,,,decisionTrl,resources/DG.BMP,resources/DR.BMP,Door3,0.294711839,-0.009145835,1,0,0,2.2119,optionRight,70,3215,2,15,0,15,0,1,,,,,,,,,,,,,,,,,,,,,,,,,,,,,,,,,,,,,,,
,,,,,,,,2023-08-16_08h47.59.566,HF_wild_card,2022.2.4,MacIntel,60.0024001,604c5ff80862dbf0bfe4caac,64d2fd46c836a06233681665,64dc7f26584a8f3af72ae997,,,,,,,sngl,resources/DBN.BMP,resources/Empty.png,Door1,-0.146870281,-0.01907594,1,0,0,1.3053,optionLeft,30,3245,2,16,0,16,0,1,,,,,,,,,,,,,,,,,,,,,,,,,,,,,,,,,,,,,,,
,,,,,,,,2023-08-16_08h47.59.566,HF_wild_card,2022.2.4,MacIntel,60.0024001,604c5ff80862dbf0bfe4caac,64d2fd46c836a06233681665,64dc7f26584a8f3af72ae997,,,,,,,decisionTrl,resources/DG.BMP,resources/DR.BMP,Door4,-0.167127975,-0.022069998,1,0,0,2.1816,optionLeft,80,3325,2,17,0,17,0,1,,,,,,,,,,,,,,,,,,,,,,,,,,,,,,,,,,,,,,,
,,,,,,,,2023-08-16_08h47.59.566,HF_wild_card,2022.2.4,MacIntel,60.0024001,604c5ff80862dbf0bfe4caac,64d2fd46c836a06233681665,64dc7f26584a8f3af72ae997,,,,,,,decisionTrl,resources/DG.BMP,resources/DB.BMP,Door4,-0.139123661,-0.012470993,1,0,0,1.1798,optionLeft,60,3385,2,18,0,18,0,1,,,,,,,,,,,,,,,,,,,,,,,,,,,,,,,,,,,,,,,
,,,,,,,,2023-08-16_08h47.59.566,HF_wild_card,2022.2.4,MacIntel,60.0024001,604c5ff80862dbf0bfe4caac,64d2fd46c836a06233681665,64dc7f26584a8f3af72ae997,,,,,,,sngl,resources/Empty.png,resources/DBN.BMP,Door1,0.216826826,-0.0077957,1,0,0,1.366,optionRight,30,3415,2,19,0,19,0,1,,,,,,,,,,,,,,,,,,,,,,,,,,,,,,,,,,,,,,,
,,,,,,,,2023-08-16_08h47.59.566,HF_wild_card,2022.2.4,MacIntel,60.0024001,604c5ff80862dbf0bfe4caac,64d2fd46c836a06233681665,64dc7f26584a8f3af72ae997,,,,,,,ctch,resources/DR.BMP,resources/DY.BMP,Door3,-0.156300779,0.004329909,1,0,0,6.0479,optionLeft,70,3485,2,20,0,20,0,1,,,,,,,,,,,,,,,,,,,,,,,,,,,,,,,,,,,,,,,
,,,,,,,,2023-08-16_08h47.59.566,HF_wild_card,2022.2.4,MacIntel,60.0024001,604c5ff80862dbf0bfe4caac,64d2fd46c836a06233681665,64dc7f26584a8f3af72ae997,,,,,,,decisionTrl,resources/DY.BMP,resources/DBN.BMP,Door2,-0.217858635,0.009851515,1,0,0,2.7821,optionLeft,20,3505,2,21,0,21,0,1,,,,,,,,,,,,,,,,,,,,,,,,,,,,,,,,,,,,,,,
,,,,,,,,2023-08-16_08h47.59.566,HF_wild_card,2022.2.4,MacIntel,60.0024001,604c5ff80862dbf0bfe4caac,64d2fd46c836a06233681665,64dc7f26584a8f3af72ae997,,,,,,,sngl,resources/Empty.png,resources/DB.BMP,WildCard_NonEx,0.213597374,0.016932788,1,0,0,0.5809,optionRight,45,3550,2,22,0,22,0,1,,,,,,,,,,,,,,,,,,,,,,,,,,,,,,,,,,,,,,,
,,,,,,,,2023-08-16_08h47.59.566,HF_wild_card,2022.2.4,MacIntel,60.0024001,604c5ff80862dbf0bfe4caac,64d2fd46c836a06233681665,64dc7f26584a8f3af72ae997,,,,,,,decisionTrl,resources/DBN.BMP,resources/DY.BMP,Door2,0.257479261,0.015108403,1,0,0,2.4151,optionRight,40,3590,2,23,0,23,0,1,,,,,,,,,,,,,,,,,,,,,,,,,,,,,,,,,,,,,,,
,,,,,,,,2023-08-16_08h47.59.566,HF_wild_card,2022.2.4,MacIntel,60.0024001,604c5ff80862dbf0bfe4caac,64d2fd46c836a06233681665,64dc7f26584a8f3af72ae997,,,,,,,decisionTrl,resources/DY.BMP,resources/DBN.BMP,Door2,-0.206317894,0.006301219,1,0,0,0.6995,optionLeft,40,3630,2,24,0,24,0,1,,,,,,,,,,,,,,,,,,,,,,,,,,,,,,,,,,,,,,,
,,,,,,,,2023-08-16_08h47.59.566,HF_wild_card,2022.2.4,MacIntel,60.0024001,604c5ff80862dbf0bfe4caac,64d2fd46c836a06233681665,64dc7f26584a8f3af72ae997,,,,,,,decisionTrl,resources/DR.BMP,resources/DG.BMP,Door3,-0.326920783,0.04371426,1,0,0,1.4789,optionLeft,70,3700,2,25,0,25,0,1,,,,,,,,,,,,,,,,,,,,,,,,,,,,,,,,,,,,,,,
,,,,,,,,2023-08-16_08h47.59.566,HF_wild_card,2022.2.4,MacIntel,60.0024001,604c5ff80862dbf0bfe4caac,64d2fd46c836a06233681665,64dc7f26584a8f3af72ae997,,,,,,,decisionTrl,resources/DG.BMP,resources/DR.BMP,Door3,0.277696873,0.034928973,1,0,0,2.4305,optionRight,70,3770,2,26,0,26,0,1,,,,,,,,,,,,,,,,,,,,,,,,,,,,,,,,,,,,,,,
,,,,,,,,2023-08-16_08h47.59.566,HF_wild_card,2022.2.4,MacIntel,60.0024001,604c5ff80862dbf0bfe4caac,64d2fd46c836a06233681665,64dc7f26584a8f3af72ae997,,,,,,,decisionTrl,resources/DBN.BMP,resources/DY.BMP,Door2,0.266134801,0.032763986,1,0,0,1.3161,optionRight,20,3790,2,27,0,27,0,1,,,,,,,,,,,,,,,,,,,,,,,,,,,,,,,,,,,,,,,
,,,,,,,,2023-08-16_08h47.59.566,HF_wild_card,2022.2.4,MacIntel,60.0024001,604c5ff80862dbf0bfe4caac,64d2fd46c836a06233681665,64dc7f26584a8f3af72ae997,,,,,,,decisionTrl,resources/DR.BMP,resources/DG.BMP,Door3,-0.131498671,0.005853838,1,0,0,1.3992,optionLeft,70,3860,2,28,0,28,0,1,,,,,,,,,,,,,,,,,,,,,,,,,,,,,,,,,,,,,,,
,,,,,,,,2023-08-16_08h47.59.566,HF_wild_card,2022.2.4,MacIntel,60.0024001,604c5ff80862dbf0bfe4caac,64d2fd46c836a06233681665,64dc7f26584a8f3af72ae997,,,,,,,sngl,resources/Empty.png,resources/DR.BMP,Door3,0.282107638,0.012296193,1,0,0,0.6304,optionRight,70,3930,2,29,0,29,0,1,,,,,,,,,,,,,,,,,,,,,,,,,,,,,,,,,,,,,,,
,,,,,,,,2023-08-16_08h47.59.566,HF_wild_card,2022.2.4,MacIntel,60.0024001,604c5ff80862dbf0bfe4caac,64d2fd46c836a06233681665,64dc7f26584a8f3af72ae997,,,,,,,ctch,resources/DY.BMP,resources/DR.BMP,Door3,0.250877899,0.01720084,1,0,0,0.6822,optionRight,70,4000,2,30,0,30,0,1,,,,,,,,,,,,,,,,,,,,,,,,,,,,,,,,,,,,,,,
,,,,,,,,2023-08-16_08h47.59.566,HF_wild_card,2022.2.4,MacIntel,60.0024001,604c5ff80862dbf0bfe4caac,64d2fd46c836a06233681665,64dc7f26584a8f3af72ae997,,,,,,,decisionTrl,resources/DB.BMP,resources/DR.BMP,Door3,0.321005155,0.024704263,1,0,0,0.6131,optionRight,70,4070,2,31,0,31,0,1,,,,,,,,,,,,,,,,,,,,,,,,,,,,,,,,,,,,,,,
,,,,,,,,2023-08-16_08h47.59.566,HF_wild_card,2022.2.4,MacIntel,60.0024001,604c5ff80862dbf0bfe4caac,64d2fd46c836a06233681665,64dc7f26584a8f3af72ae997,,,,,,,decisionTrl,resources/DB.BMP,resources/DG.BMP,Door4,0.269201157,0.020011729,1,0,0,1.3646,optionRight,60,4130,2,32,0,32,0,1,,,,,,,,,,,,,,,,,,,,,,,,,,,,,,,,,,,,,,,
,,,,,,,,2023-08-16_08h47.59.566,HF_wild_card,2022.2.4,MacIntel,60.0024001,604c5ff80862dbf0bfe4caac,64d2fd46c836a06233681665,64dc7f26584a8f3af72ae997,,,,,,,sngl,resources/DY.BMP,resources/Empty.png,Door2,-0.165236955,-0.007495746,1,0,0,1.0952,optionLeft,20,4150,2,33,0,33,0,1,,,,,,,,,,,,,,,,,,,,,,,,,,,,,,,,,,,,,,,
,,,,,,,,2023-08-16_08h47.59.566,HF_wild_card,2022.2.4,MacIntel,60.0024001,604c5ff80862dbf0bfe4caac,64d2fd46c836a06233681665,64dc7f26584a8f3af72ae997,,,,,,,decisionTrl,resources/DBN.BMP,resources/DY.BMP,Door1,-0.258422348,0.010862496,1,0,0,0.7758,optionLeft,30,4180,2,34,0,34,0,1,,,,,,,,,,,,,,,,,,,,,,,,,,,,,,,,,,,,,,,
,,,,,,,,2023-08-16_08h47.59.566,HF_wild_card,2022.2.4,MacIntel,60.0024001,604c5ff80862dbf0bfe4caac,64d2fd46c836a06233681665,64dc7f26584a8f3af72ae997,,,,,,,ctch,resources/DBN.BMP,resources/DG.BMP,Door1,-0.198530752,-0.005586164,1,0,0,0.797,optionLeft,30,4210,2,35,0,35,0,1,,,,,,,,,,,,,,,,,,,,,,,,,,,,,,,,,,,,,,,
,,,,,,,,2023-08-16_08h47.59.566,HF_wild_card,2022.2.4,MacIntel,60.0024001,604c5ff80862dbf0bfe4caac,64d2fd46c836a06233681665,64dc7f26584a8f3af72ae997,,,,,,,ctch,resources/DG.BMP,resources/DBN.BMP,Door4,-0.235194444,-0.001686018,1,0,0,0.7817,optionLeft,60,4270,2,36,0,36,0,1,,,,,,,,,,,,,,,,,,,,,,,,,,,,,,,,,,,,,,,
,,,,,,,,2023-08-16_08h47.59.566,HF_wild_card,2022.2.4,MacIntel,60.0024001,604c5ff80862dbf0bfe4caac,64d2fd46c836a06233681665,64dc7f26584a8f3af72ae997,,,,,,,decisionTrl,resources/DBN.BMP,resources/DY.BMP,Door2,0.292300006,0.024325719,1,0,0,0.8639,optionRight,20,4290,2,37,0,37,0,1,,,,,,,,,,,,,,,,,,,,,,,,,,,,,,,,,,,,,,,
,,,,,,,,2023-08-16_08h47.59.566,HF_wild_card,2022.2.4,MacIntel,60.0024001,604c5ff80862dbf0bfe4caac,64d2fd46c836a06233681665,64dc7f26584a8f3af72ae997,,,,,,,ctch,resources/DY.BMP,resources/DR.BMP,Door3,0.281664913,0.012879425,1,0,0,1.9136,optionRight,70,4360,2,38,0,38,0,1,,,,,,,,,,,,,,,,,,,,,,,,,,,,,,,,,,,,,,,
,,,,,,,,2023-08-16_08h47.59.566,HF_wild_card,2022.2.4,MacIntel,60.0024001,604c5ff80862dbf0bfe4caac,64d2fd46c836a06233681665,64dc7f26584a8f3af72ae997,,,,,,,sngl,resources/Empty.png,resources/DB.BMP,WildCard_NonEx,0.237859164,0.031030085,1,0,0,0.7649,optionRight,55,4415,2,39,0,39,0,1,,,,,,,,,,,,,,,,,,,,,,,,,,,,,,,,,,,,,,,
,,,,,,,,2023-08-16_08h47.59.566,HF_wild_card,2022.2.4,MacIntel,60.0024001,604c5ff80862dbf0bfe4caac,64d2fd46c836a06233681665,64dc7f26584a8f3af72ae997,,,,,,,decisionTrl,resources/DB.BMP,resources/DBN.BMP,WildCard_NonEx,-0.257331644,0.000724053,1,0,0,1.6148,optionLeft,55,4470,2,40,0,40,0,1,,,,,,,,,,,,,,,,,,,,,,,,,,,,,,,,,,,,,,,
,,,,,,,,2023-08-16_08h47.59.566,HF_wild_card,2022.2.4,MacIntel,60.0024001,604c5ff80862dbf0bfe4caac,64d2fd46c836a06233681665,64dc7f26584a8f3af72ae997,,,,,,,sngl,resources/Empty.png,resources/DY.BMP,Door2,0.278111031,0.001684193,1,0,0,0.7147,optionRight,40,4510,2,41,0,41,0,1,,,,,,,,,,,,,,,,,,,,,,,,,,,,,,,,,,,,,,,
,,,,,,,,2023-08-16_08h47.59.566,HF_wild_card,2022.2.4,MacIntel,60.0024001,604c5ff80862dbf0bfe4caac,64d2fd46c836a06233681665,64dc7f26584a8f3af72ae997,,,,,,,sngl,resources/DR.BMP,resources/Empty.png,Door3,-0.17908709,0.001649459,1,0,0,0.549,optionLeft,70,4580,2,42,0,42,0,1,,,,,,,,,,,,,,,,,,,,,,,,,,,,,,,,,,,,,,,
,,,,,,,,2023-08-16_08h47.59.566,HF_wild_card,2022.2.4,MacIntel,60.0024001,604c5ff80862dbf0bfe4caac,64d2fd46c836a06233681665,64dc7f26584a8f3af72ae997,,,,,,,decisionTrl,resources/DG.BMP,resources/DR.BMP,Door3,0.269234883,0.015695537,1,0,0,0.9653,optionRight,70,4650,2,43,0,43,0,1,,,,,,,,,,,,,,,,,,,,,,,,,,,,,,,,,,,,,,,
,,,,,,,,2023-08-16_08h47.59.566,HF_wild_card,2022.2.4,MacIntel,60.0024001,604c5ff80862dbf0bfe4caac,64d2fd46c836a06233681665,64dc7f26584a8f3af72ae997,,,,,,,,,,,,,,,,,,,,,,,,,,1,0,1,0,1,,,,,,,,,,,,,,,,,,,,,,,,,,,,,,,,,,
,,,,,,,,2023-08-16_08h47.59.566,HF_wild_card,2022.2.4,MacIntel,60.0024001,604c5ff80862dbf0bfe4caac,64d2fd46c836a06233681665,64dc7f26584a8f3af72ae997,,,,,,,decisionTrl,resources/DBN.BMP,resources/DY.BMP,Door2,0.254681459,-0.069079842,1,0,0,1.0379,optionRight,40,4690,3,0,0,0,0,1,,,,,,,,,,,,,,,,,,,,,,,,,,,,,,,,,,,,,,,
,,,,,,,,2023-08-16_08h47.59.566,HF_wild_card,2022.2.4,MacIntel,60.0024001,604c5ff80862dbf0bfe4caac,64d2fd46c836a06233681665,64dc7f26584a8f3af72ae997,,,,,,,decisionTrl,resources/DB.BMP,resources/DY.BMP,Door2,0.234829303,0.002779365,1,0,0,0.6933,optionRight,40,4730,3,1,0,1,0,1,,,,,,,,,,,,,,,,,,,,,,,,,,,,,,,,,,,,,,,
,,,,,,,,2023-08-16_08h47.59.566,HF_wild_card,2022.2.4,MacIntel,60.0024001,604c5ff80862dbf0bfe4caac,64d2fd46c836a06233681665,64dc7f26584a8f3af72ae997,,,,,,,decisionTrl,resources/DY.BMP,resources/DB.BMP,WildCard_NonEx,0.221797479,0.005557094,1,0,0,0.9652,optionRight,45,4775,3,2,0,2,0,1,,,,,,,,,,,,,,,,,,,,,,,,,,,,,,,,,,,,,,,
,,,,,,,,2023-08-16_08h47.59.566,HF_wild_card,2022.2.4,MacIntel,60.0024001,604c5ff80862dbf0bfe4caac,64d2fd46c836a06233681665,64dc7f26584a8f3af72ae997,,,,,,,sngl,resources/DY.BMP,resources/Empty.png,Door2,-0.18117292,-0.009270171,1,0,0,0.6374,optionLeft,40,4815,3,3,0,3,0,1,,,,,,,,,,,,,,,,,,,,,,,,,,,,,,,,,,,,,,,
,,,,,,,,2023-08-16_08h47.59.566,HF_wild_card,2022.2.4,MacIntel,60.0024001,604c5ff80862dbf0bfe4caac,64d2fd46c836a06233681665,64dc7f26584a8f3af72ae997,,,,,,,decisionTrl,resources/DG.BMP,resources/DR.BMP,Door3,0.362692041,0.033923214,1,0,0,1.563,optionRight,70,4885,3,4,0,4,0,1,,,,,,,,,,,,,,,,,,,,,,,,,,,,,,,,,,,,,,,
,,,,,,,,2023-08-16_08h47.59.566,HF_wild_card,2022.2.4,MacIntel,60.0024001,604c5ff80862dbf0bfe4caac,64d2fd46c836a06233681665,64dc7f26584a8f3af72ae997,,,,,,,decisionTrl,resources/DR.BMP,resources/DG.BMP,Door3,-0.211020306,0.013444157,1,0,0,0.7454,optionLeft,70,4955,3,5,0,5,0,1,,,,,,,,,,,,,,,,,,,,,,,,,,,,,,,,,,,,,,,
,,,,,,,,2023-08-16_08h47.59.566,HF_wild_card,2022.2.4,MacIntel,60.0024001,604c5ff80862dbf0bfe4caac,64d2fd46c836a06233681665,64dc7f26584a8f3af72ae997,,,,,,,decisionTrl,resources/DG.BMP,resources/DR.BMP,Door3,0.208753196,0.040680938,1,0,0,0.5476,optionRight,70,5025,3,6,0,6,0,1,,,,,,,,,,,,,,,,,,,,,,,,,,,,,,,,,,,,,,,
,,,,,,,,2023-08-16_08h47.59.566,HF_wild_card,2022.2.4,MacIntel,60.0024001,604c5ff80862dbf0bfe4caac,64d2fd46c836a06233681665,64dc7f26584a8f3af72ae997,,,,,,,sngl,resources/Empty.png,resources/DR.BMP,Door3,0.165385893,0.047444703,1,0,0,0.4976,optionRight,70,5095,3,7,0,7,0,1,,,,,,,,,,,,,,,,,,,,,,,,,,,,,,,,,,,,,,,
,,,,,,,,2023-08-16_08h47.59.566,HF_wild_card,2022.2.4,MacIntel,60.0024001,604c5ff80862dbf0bfe4caac,64d2fd46c836a06233681665,64dc7f26584a8f3af72ae997,,,,,,,ctch,resources/DR.BMP,resources/DY.BMP,Door2,0.2460565,0.033835374,1,0,0,0.6646,optionRight,20,5115,3,8,0,8,0,1,,,,,,,,,,,,,,,,,,,,,,,,,,,,,,,,,,,,,,,
,,,,,,,,2023-08-16_08h47.59.566,HF_wild_card,2022.2.4,MacIntel,60.0024001,604c5ff80862dbf0bfe4caac,64d2fd46c836a06233681665,64dc7f26584a8f3af72ae997,,,,,,,decisionTrl,resources/DG.BMP,resources/DB.BMP,WildCard_NonEx,0.219282831,0.001030173,1,0,0,1.0993,optionRight,55,5170,3,9,0,9,0,1,,,,,,,,,,,,,,,,,,,,,,,,,,,,,,,,,,,,,,,
,,,,,,,,2023-08-16_08h47.59.566,HF_wild_card,2022.2.4,MacIntel,60.0024001,604c5ff80862dbf0bfe4caac,64d2fd46c836a06233681665,64dc7f26584a8f3af72ae997,,,,,,,decisionTrl,resources/DBN.BMP,resources/DY.BMP,Door2,0.297477423,0.024352524,1,0,0,0.7977,optionRight,20,5190,3,10,0,10,0,1,,,,,,,,,,,,,,,,,,,,,,,,,,,,,,,,,,,,,,,
,,,,,,,,2023-08-16_08h47.59.566,HF_wild_card,2022.2.4,MacIntel,60.0024001,604c5ff80862dbf0bfe4caac,64d2fd46c836a06233681665,64dc7f26584a8f3af72ae997,,,,,,,sngl,resources/DB.BMP,resources/Empty.png,WildCard_NonEx,-0.216779131,0.00596993,1,0,0,0.5163,optionLeft,55,5245,3,11,0,11,0,1,,,,,,,,,,,,,,,,,,,,,,,,,,,,,,,,,,,,,,,
,,,,,,,,2023-08-16_08h47.59.566,HF_wild_card,2022.2.4,MacIntel,60.0024001,604c5ff80862dbf0bfe4caac,64d2fd46c836a06233681665,64dc7f26584a8f3af72ae997,,,,,,,decisionTrl,resources/DY.BMP,resources/DBN.BMP,Door1,0.176734531,-0.00211685,1,0,0,0.8643,optionRight,30,5275,3,12,0,12,0,1,,,,,,,,,,,,,,,,,,,,,,,,,,,,,,,,,,,,,,,
,,,,,,,,2023-08-16_08h47.59.566,HF_wild_card,2022.2.4,MacIntel,60.0024001,604c5ff80862dbf0bfe4caac,64d2fd46c836a06233681665,64dc7f26584a8f3af72ae997,,,,,,,decisionTrl,resources/DBN.BMP,resources/DY.BMP,Door1,-0.360418009,0.036059004,1,0,0,1.5968,optionLeft,30,5305,3,13,0,13,0,1,,,,,,,,,,,,,,,,,,,,,,,,,,,,,,,,,,,,,,,
,,,,,,,,2023-08-16_08h47.59.566,HF_wild_card,2022.2.4,MacIntel,60.0024001,604c5ff80862dbf0bfe4caac,64d2fd46c836a06233681665,64dc7f26584a8f3af72ae997,,,,,,,decisionTrl,resources/DR.BMP,resources/DB.BMP,Door3,-0.223957872,-0.000199969,1,0,0,1.0657,optionLeft,70,5375,3,14,0,14,0,1,,,,,,,,,,,,,,,,,,,,,,,,,,,,,,,,,,,,,,,
,,,,,,,,2023-08-16_08h47.59.566,HF_wild_card,2022.2.4,MacIntel,60.0024001,604c5ff80862dbf0bfe4caac,64d2fd46c836a06233681665,64dc7f26584a8f3af72ae997,,,,,,,decisionTrl,resources/DY.BMP,resources/DBN.BMP,Door2,-0.203924875,-0.005141174,1,0,0,0.9972,optionLeft,20,5395,3,15,0,15,0,1,,,,,,,,,,,,,,,,,,,,,,,,,,,,,,,,,,,,,,,
,,,,,,,,2023-08-16_08h47.59.566,HF_wild_card,2022.2.4,MacIntel,60.0024001,604c5ff80862dbf0bfe4caac,64d2fd46c836a06233681665,64dc7f26584a8f3af72ae997,,,,,,,ctch,resources/DBN.BMP,resources/DG.BMP,Door1,-0.242175545,0.022607044,1,0,0,0.5829,optionLeft,30,5425,3,16,0,16,0,1,,,,,,,,,,,,,,,,,,,,,,,,,,,,,,,,,,,,,,,
,,,,,,,,2023-08-16_08h47.59.566,HF_wild_card,2022.2.4,MacIntel,60.0024001,604c5ff80862dbf0bfe4caac,64d2fd46c836a06233681665,64dc7f26584a8f3af72ae997,,,,,,,decisionTrl,resources/DY.BMP,resources/DBN.BMP,Door1,0.21217406,0.016957328,1,0,0,0.897,optionRight,30,5455,3,17,0,17,0,1,,,,,,,,,,,,,,,,,,,,,,,,,,,,,,,,,,,,,,,
,,,,,,,,2023-08-16_08h47.59.566,HF_wild_card,2022.2.4,MacIntel,60.0024001,604c5ff80862dbf0bfe4caac,64d2fd46c836a06233681665,64dc7f26584a8f3af72ae997,,,,,,,sngl,resources/Empty.png,resources/DG.BMP,Door4,0.292991025,0.004469787,1,0,0,0.5643,optionRight,60,5515,3,18,0,18,0,1,,,,,,,,,,,,,,,,,,,,,,,,,,,,,,,,,,,,,,,
,,,,,,,,2023-08-16_08h47.59.566,HF_wild_card,2022.2.4,MacIntel,60.0024001,604c5ff80862dbf0bfe4caac,64d2fd46c836a06233681665,64dc7f26584a8f3af72ae997,,,,,,,sngl,resources/Empty.png,resources/DY.BMP,Door2,0.330191512,0.010242328,1,0,0,0.4816,optionRight,20,5535,3,19,0,19,0,1,,,,,,,,,,,,,,,,,,,,,,,,,,,,,,,,,,,,,,,
,,,,,,,,2023-08-16_08h47.59.566,HF_wild_card,2022.2.4,MacIntel,60.0024001,604c5ff80862dbf0bfe4caac,64d2fd46c836a06233681665,64dc7f26584a8f3af72ae997,,,,,,,sngl,resources/DG.BMP,resources/Empty.png,Door4,-0.231921135,0.022562055,1,0,0,0.5144,optionLeft,80,5615,3,20,0,20,0,1,,,,,,,,,,,,,,,,,,,,,,,,,,,,,,,,,,,,,,,
,,,,,,,,2023-08-16_08h47.59.566,HF_wild_card,2022.2.4,MacIntel,60.0024001,604c5ff80862dbf0bfe4caac,64d2fd46c836a06233681665,64dc7f26584a8f3af72ae997,,,,,,,ctch,resources/DY.BMP,resources/DR.BMP,Door3,0.258933911,-0.014020468,1,0,0,0.765,optionRight,70,5685,3,21,0,21,0,1,,,,,,,,,,,,,,,,,,,,,,,,,,,,,,,,,,,,,,,
,,,,,,,,2023-08-16_08h47.59.566,HF_wild_card,2022.2.4,MacIntel,60.0024001,604c5ff80862dbf0bfe4caac,64d2fd46c836a06233681665,64dc7f26584a8f3af72ae997,,,,,,,decisionTrl,resources/DBN.BMP,resources/DY.BMP,Door1,-0.228801609,0.006125853,1,0,0,1.1319,optionLeft,30,5715,3,22,0,22,0,1,,,,,,,,,,,,,,,,,,,,,,,,,,,,,,,,,,,,,,,
,,,,,,,,2023-08-16_08h47.59.566,HF_wild_card,2022.2.4,MacIntel,60.0024001,604c5ff80862dbf0bfe4caac,64d2fd46c836a06233681665,64dc7f26584a8f3af72ae997,,,,,,,decisionTrl,resources/DG.BMP,resources/DR.BMP,Door3,0.23183858,-0.004394972,1,0,0,1.0289,optionRight,70,5785,3,23,0,23,0,1,,,,,,,,,,,,,,,,,,,,,,,,,,,,,,,,,,,,,,,
,,,,,,,,2023-08-16_08h47.59.566,HF_wild_card,2022.2.4,MacIntel,60.0024001,604c5ff80862dbf0bfe4caac,64d2fd46c836a06233681665,64dc7f26584a8f3af72ae997,,,,,,,decisionTrl,resources/DR.BMP,resources/DG.BMP,Door3,-0.198782883,-0.000995062,1,0,0,0.6486,optionLeft,70,5855,3,24,0,24,0,1,,,,,,,,,,,,,,,,,,,,,,,,,,,,,,,,,,,,,,,
,,,,,,,,2023-08-16_08h47.59.566,HF_wild_card,2022.2.4,MacIntel,60.0024001,604c5ff80862dbf0bfe4caac,64d2fd46c836a06233681665,64dc7f26584a8f3af72ae997,,,,,,,decisionTrl,resources/DBN.BMP,resources/DB.BMP,WildCard_NonEx,0.333267684,-0.014830788,1,0,0,1.099,optionRight,45,5900,3,25,0,25,0,1,,,,,,,,,,,,,,,,,,,,,,,,,,,,,,,,,,,,,,,
,,,,,,,,2023-08-16_08h47.59.566,HF_wild_card,2022.2.4,MacIntel,60.0024001,604c5ff80862dbf0bfe4caac,64d2fd46c836a06233681665,64dc7f26584a8f3af72ae997,,,,,,,ctch,resources/DBN.BMP,resources/DG.BMP,Door4,0.294553021,-0.006903139,1,0,0,1.8125,optionRight,60,5960,3,26,0,26,0,1,,,,,,,,,,,,,,,,,,,,,,,,,,,,,,,,,,,,,,,
,,,,,,,,2023-08-16_08h47.59.566,HF_wild_card,2022.2.4,MacIntel,60.0024001,604c5ff80862dbf0bfe4caac,64d2fd46c836a06233681665,64dc7f26584a8f3af72ae997,,,,,,,sngl,resources/DR.BMP,resources/Empty.png,Door3,-0.171266284,-0.004642258,1,0,0,0.5644,optionLeft,70,6030,3,27,0,27,0,1,,,,,,,,,,,,,,,,,,,,,,,,,,,,,,,,,,,,,,,
,,,,,,,,2023-08-16_08h47.59.566,HF_wild_card,2022.2.4,MacIntel,60.0024001,604c5ff80862dbf0bfe4caac,64d2fd46c836a06233681665,64dc7f26584a8f3af72ae997,,,,,,,decisionTrl,resources/DB.BMP,resources/DG.BMP,Door4,0.215442398,-0.006355081,1,0,0,1.5644,optionRight,60,6090,3,28,0,28,0,1,,,,,,,,,,,,,,,,,,,,,,,,,,,,,,,,,,,,,,,
,,,,,,,,2023-08-16_08h47.59.566,HF_wild_card,2022.2.4,MacIntel,60.0024001,604c5ff80862dbf0bfe4caac,64d2fd46c836a06233681665,64dc7f26584a8f3af72ae997,,,,,,,sngl,resources/Empty.png,resources/DB.BMP,WildCard_NonEx,0.212014487,0.013414143,1,0,0,0.4966,optionRight,45,6135,3,29,0,29,0,1,,,,,,,,,,,,,,,,,,,,,,,,,,,,,,,,,,,,,,,
,,,,,,,,2023-08-16_08h47.59.566,HF_wild_card,2022.2.4,MacIntel,60.0024001,604c5ff80862dbf0bfe4caac,64d2fd46c836a06233681665,64dc7f26584a8f3af72ae997,,,,,,,sngl,resources/Empty.png,resources/DBN.BMP,Door1,0.319352423,-0.020867417,1,0,0,2.1967,optionRight,30,6165,3,30,0,30,0,1,,,,,,,,,,,,,,,,,,,,,,,,,,,,,,,,,,,,,,,
,,,,,,,,2023-08-16_08h47.59.566,HF_wild_card,2022.2.4,MacIntel,60.0024001,604c5ff80862dbf0bfe4caac,64d2fd46c836a06233681665,64dc7f26584a8f3af72ae997,,,,,,,decisionTrl,resources/DY.BMP,resources/DBN.BMP,Door2,-0.209849061,-0.015296669,1,0,0,1.1994,optionLeft,20,6185,3,31,0,31,0,1,,,,,,,,,,,,,,,,,,,,,,,,,,,,,,,,,,,,,,,
,,,,,,,,2023-08-16_08h47.59.566,HF_wild_card,2022.2.4,MacIntel,60.0024001,604c5ff80862dbf0bfe4caac,64d2fd46c836a06233681665,64dc7f26584a8f3af72ae997,,,,,,,sngl,resources/Empty.png,resources/DB.BMP,WildCard_NonEx,0.175558251,0.006894833,1,0,0,0.5275,optionRight,55,6240,3,32,0,32,0,1,,,,,,,,,,,,,,,,,,,,,,,,,,,,,,,,,,,,,,,
,,,,,,,,2023-08-16_08h47.59.566,HF_wild_card,2022.2.4,MacIntel,60.0024001,604c5ff80862dbf0bfe4caac,64d2fd46c836a06233681665,64dc7f26584a8f3af72ae997,,,,,,,decisionTrl,resources/DB.BMP,resources/DBN.BMP,Door1,0.229902822,0.014561415,1,0,0,0.7984,optionRight,30,6270,3,33,0,33,0,1,,,,,,,,,,,,,,,,,,,,,,,,,,,,,,,,,,,,,,,
,,,,,,,,2023-08-16_08h47.59.566,HF_wild_card,2022.2.4,MacIntel,60.0024001,604c5ff80862dbf0bfe4caac,64d2fd46c836a06233681665,64dc7f26584a8f3af72ae997,,,,,,,decisionTrl,resources/DG.BMP,resources/DR.BMP,Door3,0.182145266,0.033260762,1,0,0,1.0474,optionRight,70,6340,3,34,0,34,0,1,,,,,,,,,,,,,,,,,,,,,,,,,,,,,,,,,,,,,,,
,,,,,,,,2023-08-16_08h47.59.566,HF_wild_card,2022.2.4,MacIntel,60.0024001,604c5ff80862dbf0bfe4caac,64d2fd46c836a06233681665,64dc7f26584a8f3af72ae997,,,,,,,sngl,resources/DB.BMP,resources/Empty.png,WildCard_NonEx,-0.216146001,0.005293258,1,0,0,0.531,optionLeft,45,6385,3,35,0,35,0,1,,,,,,,,,,,,,,,,,,,,,,,,,,,,,,,,,,,,,,,
,,,,,,,,2023-08-16_08h47.59.566,HF_wild_card,2022.2.4,MacIntel,60.0024001,604c5ff80862dbf0bfe4caac,64d2fd46c836a06233681665,64dc7f26584a8f3af72ae997,,,,,,,decisionTrl,resources/DR.BMP,resources/DG.BMP,Door3,-0.25374995,-0.009745616,1,0,0,1.9981,optionLeft,70,6455,3,36,0,36,0,1,,,,,,,,,,,,,,,,,,,,,,,,,,,,,,,,,,,,,,,
,,,,,,,,2023-08-16_08h47.59.566,HF_wild_card,2022.2.4,MacIntel,60.0024001,604c5ff80862dbf0bfe4caac,64d2fd46c836a06233681665,64dc7f26584a8f3af72ae997,,,,,,,ctch,resources/DY.BMP,resources/DR.BMP,Door3,0.285752633,0.000670002,1,0,0,0.9962,optionRight,70,6525,3,37,0,37,0,1,,,,,,,,,,,,,,,,,,,,,,,,,,,,,,,,,,,,,,,
,,,,,,,,2023-08-16_08h47.59.566,HF_wild_card,2022.2.4,MacIntel,60.0024001,604c5ff80862dbf0bfe4caac,64d2fd46c836a06233681665,64dc7f26584a8f3af72ae997,,,,,,,ctch,resources/DG.BMP,resources/DBN.BMP,Door4,-0.238652684,-0.015240164,1,0,0,1.5116,optionLeft,80,6605,3,38,0,38,0,1,,,,,,,,,,,,,,,,,,,,,,,,,,,,,,,,,,,,,,,
,,,,,,,,2023-08-16_08h47.59.566,HF_wild_card,2022.2.4,MacIntel,60.0024001,604c5ff80862dbf0bfe4caac,64d2fd46c836a06233681665,64dc7f26584a8f3af72ae997,,,,,,,ctch,resources/DG.BMP,resources/DBN.BMP,Door4,-0.220501394,-0.012749426,1,0,0,0.516,optionLeft,60,6665,3,39,0,39,0,1,,,,,,,,,,,,,,,,,,,,,,,,,,,,,,,,,,,,,,,
,,,,,,,,2023-08-16_08h47.59.566,HF_wild_card,2022.2.4,MacIntel,60.0024001,604c5ff80862dbf0bfe4caac,64d2fd46c836a06233681665,64dc7f26584a8f3af72ae997,,,,,,,decisionTrl,resources/DB.BMP,resources/DR.BMP,Door3,0.240549493,0.000429385,1,0,0,0.9633,optionRight,70,6735,3,40,0,40,0,1,,,,,,,,,,,,,,,,,,,,,,,,,,,,,,,,,,,,,,,
,,,,,,,,2023-08-16_08h47.59.566,HF_wild_card,2022.2.4,MacIntel,60.0024001,604c5ff80862dbf0bfe4caac,64d2fd46c836a06233681665,64dc7f26584a8f3af72ae997,,,,,,,decisionTrl,resources/DR.BMP,resources/DG.BMP,Door4,0.188086441,0.00553268,1,0,0,0.8461,optionRight,80,6815,3,41,0,41,0,1,,,,,,,,,,,,,,,,,,,,,,,,,,,,,,,,,,,,,,,
,,,,,,,,2023-08-16_08h47.59.566,HF_wild_card,2022.2.4,MacIntel,60.0024001,604c5ff80862dbf0bfe4caac,64d2fd46c836a06233681665,64dc7f26584a8f3af72ae997,,,,,,,ctch,resources/DR.BMP,resources/DY.BMP,Door3,-0.1701786,-0.005622785,1,0,0,0.8638,optionLeft,70,6885,3,42,0,42,0,1,,,,,,,,,,,,,,,,,,,,,,,,,,,,,,,,,,,,,,,
,,,,,,,,2023-08-16_08h47.59.566,HF_wild_card,2022.2.4,MacIntel,60.0024001,604c5ff80862dbf0bfe4caac,64d2fd46c836a06233681665,64dc7f26584a8f3af72ae997,,,,,,,sngl,resources/DBN.BMP,resources/Empty.png,Door1,-0.188620656,-0.017285156,1,0,0,0.7484,optionLeft,30,6915,3,43,0,43,0,1,,,,,,,,,,,,,,,,,,,,,,,,,,,,,,,,,,,,,,,
,,,,,,,,2023-08-16_08h47.59.566,HF_wild_card,2022.2.4,MacIntel,60.0024001,604c5ff80862dbf0bfe4caac,64d2fd46c836a06233681665,64dc7f26584a8f3af72ae997,,,,,,,,,,,,,,,,,,,,,,,,,,2,0,2,0,1,,,,,,,,,,,,,,,,,,,,,,,,,,,,,,,,,,
,,,,,,,,2023-08-16_08h47.59.566,HF_wild_card,2022.2.4,MacIntel,60.0024001,604c5ff80862dbf0bfe4caac,64d2fd46c836a06233681665,64dc7f26584a8f3af72ae997,,,,,,,sngl,resources/Empty.png,resources/DR.BMP,Door3,0.356276302,-0.127414979,1,0,0,0.5734,optionRight,70,6985,4,0,0,0,0,1,,,,,,,,,,,,,,,,,,,,,,,,,,,,,,,,,,,,,,,
,,,,,,,,2023-08-16_08h47.59.566,HF_wild_card,2022.2.4,MacIntel,60.0024001,604c5ff80862dbf0bfe4caac,64d2fd46c836a06233681665,64dc7f26584a8f3af72ae997,,,,,,,sngl,resources/Empty.png,resources/DBN.BMP,Door1,0.237591867,0.01858445,1,0,0,0.4475,optionRight,30,7015,4,1,0,1,0,1,,,,,,,,,,,,,,,,,,,,,,,,,,,,,,,,,,,,,,,
,,,,,,,,2023-08-16_08h47.59.566,HF_wild_card,2022.2.4,MacIntel,60.0024001,604c5ff80862dbf0bfe4caac,64d2fd46c836a06233681665,64dc7f26584a8f3af72ae997,,,,,,,decisionTrl,resources/DY.BMP,resources/DBN.BMP,Door2,-0.199385747,0.001946329,1,0,0,1.1291,optionLeft,40,7055,4,2,0,2,0,1,,,,,,,,,,,,,,,,,,,,,,,,,,,,,,,,,,,,,,,
,,,,,,,,2023-08-16_08h47.59.566,HF_wild_card,2022.2.4,MacIntel,60.0024001,604c5ff80862dbf0bfe4caac,64d2fd46c836a06233681665,64dc7f26584a8f3af72ae997,,,,,,,decisionTrl,resources/DG.BMP,resources/DR.BMP,Door3,0.215355942,0.009975536,1,0,0,0.6801,optionRight,70,7125,4,3,0,3,0,1,,,,,,,,,,,,,,,,,,,,,,,,,,,,,,,,,,,,,,,
,,,,,,,,2023-08-16_08h47.59.566,HF_wild_card,2022.2.4,MacIntel,60.0024001,604c5ff80862dbf0bfe4caac,64d2fd46c836a06233681665,64dc7f26584a8f3af72ae997,,,,,,,sngl,resources/Empty.png,resources/DG.BMP,Door4,0.231761563,0.004618599,1,0,0,0.5152,optionRight,80,7205,4,4,0,4,0,1,,,,,,,,,,,,,,,,,,,,,,,,,,,,,,,,,,,,,,,
,,,,,,,,2023-08-16_08h47.59.566,HF_wild_card,2022.2.4,MacIntel,60.0024001,604c5ff80862dbf0bfe4caac,64d2fd46c836a06233681665,64dc7f26584a8f3af72ae997,,,,,,,sngl,resources/DG.BMP,resources/Empty.png,Door4,-0.256277812,0.011550117,1,0,0,0.4643,optionLeft,60,7265,4,5,0,5,0,1,,,,,,,,,,,,,,,,,,,,,,,,,,,,,,,,,,,,,,,
,,,,,,,,2023-08-16_08h47.59.566,HF_wild_card,2022.2.4,MacIntel,60.0024001,604c5ff80862dbf0bfe4caac,64d2fd46c836a06233681665,64dc7f26584a8f3af72ae997,,,,,,,decisionTrl,resources/DBN.BMP,resources/DY.BMP,Door2,0.255557597,-0.00281995,1,0,0,1.3814,optionRight,40,7305,4,6,0,6,0,1,,,,,,,,,,,,,,,,,,,,,,,,,,,,,,,,,,,,,,,
,,,,,,,,2023-08-16_08h47.59.566,HF_wild_card,2022.2.4,MacIntel,60.0024001,604c5ff80862dbf0bfe4caac,64d2fd46c836a06233681665,64dc7f26584a8f3af72ae997,,,,,,,ctch,resources/DR.BMP,resources/DY.BMP,Door2,0.233712171,0.009665578,1,0,0,0.7299,optionRight,20,7325,4,7,0,7,0,1,,,,,,,,,,,,,,,,,,,,,,,,,,,,,,,,,,,,,,,
,,,,,,,,2023-08-16_08h47.59.566,HF_wild_card,2022.2.4,MacIntel,60.0024001,604c5ff80862dbf0bfe4caac,64d2fd46c836a06233681665,64dc7f26584a8f3af72ae997,,,,,,,decisionTrl,resources/DP.BMP,resources/DG.BMP,WildCard_Ex,-0.177931701,0.007421246,1,0,0,0.944,optionLeft,45,7370,4,8,0,8,0,1,,,,,,,,,,,,,,,,,,,,,,,,,,,,,,,,,,,,,,,
,,,,,,,,2023-08-16_08h47.59.566,HF_wild_card,2022.2.4,MacIntel,60.0024001,604c5ff80862dbf0bfe4caac,64d2fd46c836a06233681665,64dc7f26584a8f3af72ae997,,,,,,,decisionTrl,resources/DY.BMP,resources/DBN.BMP,Door2,-0.212015557,-0.001034263,1,0,0,2.9989,optionLeft,20,7390,4,9,0,9,0,1,,,,,,,,,,,,,,,,,,,,,,,,,,,,,,,,,,,,,,,
,,,,,,,,2023-08-16_08h47.59.566,HF_wild_card,2022.2.4,MacIntel,60.0024001,604c5ff80862dbf0bfe4caac,64d2fd46c836a06233681665,64dc7f26584a8f3af72ae997,,,,,,,sngl,resources/DP.BMP,resources/Empty.png,WildCard_Ex,-0.24101487,-0.022977282,1,0,0,0.5636,optionLeft,55,7445,4,10,0,10,0,1,,,,,,,,,,,,,,,,,,,,,,,,,,,,,,,,,,,,,,,
,,,,,,,,2023-08-16_08h47.59.566,HF_wild_card,2022.2.4,MacIntel,60.0024001,604c5ff80862dbf0bfe4caac,64d2fd46c836a06233681665,64dc7f26584a8f3af72ae997,,,,,,,sngl,resources/Empty.png,resources/DP.BMP,WildCard_Ex,0.262147884,-0.003301561,1,0,0,0.4812,optionRight,55,7500,4,11,0,11,0,1,,,,,,,,,,,,,,,,,,,,,,,,,,,,,,,,,,,,,,,
,,,,,,,,2023-08-16_08h47.59.566,HF_wild_card,2022.2.4,MacIntel,60.0024001,604c5ff80862dbf0bfe4caac,64d2fd46c836a06233681665,64dc7f26584a8f3af72ae997,,,,,,,decisionTrl,resources/DG.BMP,resources/DR.BMP,Door4,-0.23752152,0.003257956,1,0,0,1.6146,optionLeft,80,7580,4,12,0,12,0,1,,,,,,,,,,,,,,,,,,,,,,,,,,,,,,,,,,,,,,,
,,,,,,,,2023-08-16_08h47.59.566,HF_wild_card,2022.2.4,MacIntel,60.0024001,604c5ff80862dbf0bfe4caac,64d2fd46c836a06233681665,64dc7f26584a8f3af72ae997,,,,,,,decisionTrl,resources/DG.BMP,resources/DR.BMP,Door4,-0.169614686,0.00453164,1,0,0,0.58,optionLeft,60,7640,4,13,0,13,0,1,,,,,,,,,,,,,,,,,,,,,,,,,,,,,,,,,,,,,,,
,,,,,,,,2023-08-16_08h47.59.566,HF_wild_card,2022.2.4,MacIntel,60.0024001,604c5ff80862dbf0bfe4caac,64d2fd46c836a06233681665,64dc7f26584a8f3af72ae997,,,,,,,decisionTrl,resources/DBN.BMP,resources/DP.BMP,WildCard_Ex,0.234728375,-0.005756811,1,0,0,0.8649,optionRight,45,7685,4,14,0,14,0,1,,,,,,,,,,,,,,,,,,,,,,,,,,,,,,,,,,,,,,,
,,,,,,,,2023-08-16_08h47.59.566,HF_wild_card,2022.2.4,MacIntel,60.0024001,604c5ff80862dbf0bfe4caac,64d2fd46c836a06233681665,64dc7f26584a8f3af72ae997,,,,,,,decisionTrl,resources/DBN.BMP,resources/DY.BMP,Door2,0.205384056,0.008633014,1,0,0,1.1308,optionRight,40,7725,4,15,0,15,0,1,,,,,,,,,,,,,,,,,,,,,,,,,,,,,,,,,,,,,,,
,,,,,,,,2023-08-16_08h47.59.566,HF_wild_card,2022.2.4,MacIntel,60.0024001,604c5ff80862dbf0bfe4caac,64d2fd46c836a06233681665,64dc7f26584a8f3af72ae997,,,,,,,sngl,resources/DP.BMP,resources/Empty.png,WildCard_Ex,-0.163741468,-0.002957499,1,0,0,0.5814,optionLeft,45,7770,4,16,0,16,0,1,,,,,,,,,,,,,,,,,,,,,,,,,,,,,,,,,,,,,,,
,,,,,,,,2023-08-16_08h47.59.566,HF_wild_card,2022.2.4,MacIntel,60.0024001,604c5ff80862dbf0bfe4caac,64d2fd46c836a06233681665,64dc7f26584a8f3af72ae997,,,,,,,decisionTrl,resources/DY.BMP,resources/DBN.BMP,Door2,-0.235402593,0.008597337,1,0,0,1.0651,optionLeft,40,7810,4,17,0,17,0,1,,,,,,,,,,,,,,,,,,,,,,,,,,,,,,,,,,,,,,,
,,,,,,,,2023-08-16_08h47.59.566,HF_wild_card,2022.2.4,MacIntel,60.0024001,604c5ff80862dbf0bfe4caac,64d2fd46c836a06233681665,64dc7f26584a8f3af72ae997,,,,,,,decisionTrl,resources/DG.BMP,resources/DR.BMP,Door4,-0.183071427,-0.006069034,1,0,0,1.0291,optionLeft,60,7870,4,18,0,18,0,1,,,,,,,,,,,,,,,,,,,,,,,,,,,,,,,,,,,,,,,
,,,,,,,,2023-08-16_08h47.59.566,HF_wild_card,2022.2.4,MacIntel,60.0024001,604c5ff80862dbf0bfe4caac,64d2fd46c836a06233681665,64dc7f26584a8f3af72ae997,,,,,,,decisionTrl,resources/DR.BMP,resources/DG.BMP,Door3,-0.208276619,0.002413343,1,0,0,1.5317,optionLeft,70,7940,4,19,0,19,0,1,,,,,,,,,,,,,,,,,,,,,,,,,,,,,,,,,,,,,,,
,,,,,,,,2023-08-16_08h47.59.566,HF_wild_card,2022.2.4,MacIntel,60.0024001,604c5ff80862dbf0bfe4caac,64d2fd46c836a06233681665,64dc7f26584a8f3af72ae997,,,,,,,decisionTrl,resources/DR.BMP,resources/DP.BMP,WildCard_Ex,0.179130507,0.008781071,1,0,0,1.0162,optionRight,55,7995,4,20,0,20,0,1,,,,,,,,,,,,,,,,,,,,,,,,,,,,,,,,,,,,,,,
,,,,,,,,2023-08-16_08h47.59.566,HF_wild_card,2022.2.4,MacIntel,60.0024001,604c5ff80862dbf0bfe4caac,64d2fd46c836a06233681665,64dc7f26584a8f3af72ae997,,,,,,,decisionTrl,resources/DBN.BMP,resources/DY.BMP,Door2,0.24467484,0.02140031,1,0,0,2.4467,optionRight,40,8035,4,21,0,21,0,1,,,,,,,,,,,,,,,,,,,,,,,,,,,,,,,,,,,,,,,
,,,,,,,,2023-08-16_08h47.59.566,HF_wild_card,2022.2.4,MacIntel,60.0024001,604c5ff80862dbf0bfe4caac,64d2fd46c836a06233681665,64dc7f26584a8f3af72ae997,,,,,,,decisionTrl,resources/DY.BMP,resources/DP.BMP,WildCard_Ex,0.3777418,-0.004673657,1,0,0,0.8488,optionRight,55,8090,4,22,0,22,0,1,,,,,,,,,,,,,,,,,,,,,,,,,,,,,,,,,,,,,,,
,,,,,,,,2023-08-16_08h47.59.566,HF_wild_card,2022.2.4,MacIntel,60.0024001,604c5ff80862dbf0bfe4caac,64d2fd46c836a06233681665,64dc7f26584a8f3af72ae997,,,,,,,decisionTrl,resources/DP.BMP,resources/DY.BMP,WildCard_Ex,-0.260598975,-0.024539531,1,0,0,0.8647,optionLeft,45,8135,4,23,0,23,0,1,,,,,,,,,,,,,,,,,,,,,,,,,,,,,,,,,,,,,,,
,,,,,,,,2023-08-16_08h47.59.566,HF_wild_card,2022.2.4,MacIntel,60.0024001,604c5ff80862dbf0bfe4caac,64d2fd46c836a06233681665,64dc7f26584a8f3af72ae997,,,,,,,ctch,resources/DY.BMP,resources/DR.BMP,Door3,0.195070876,-0.009956344,1,0,0,0.9328,optionRight,70,8205,4,24,0,24,0,1,,,,,,,,,,,,,,,,,,,,,,,,,,,,,,,,,,,,,,,
,,,,,,,,2023-08-16_08h47.59.566,HF_wild_card,2022.2.4,MacIntel,60.0024001,604c5ff80862dbf0bfe4caac,64d2fd46c836a06233681665,64dc7f26584a8f3af72ae997,,,,,,,decisionTrl,resources/DR.BMP,resources/DG.BMP,Door4,0.229773201,0.030727111,1,0,0,0.6829,optionRight,60,8265,4,25,0,25,0,1,,,,,,,,,,,,,,,,,,,,,,,,,,,,,,,,,,,,,,,
,,,,,,,,2023-08-16_08h47.59.566,HF_wild_card,2022.2.4,MacIntel,60.0024001,604c5ff80862dbf0bfe4caac,64d2fd46c836a06233681665,64dc7f26584a8f3af72ae997,,,,,,,decisionTrl,resources/DR.BMP,resources/DG.BMP,Door3,-0.152628161,0.02069721,1,0,0,0.53,optionLeft,70,8335,4,26,0,26,0,1,,,,,,,,,,,,,,,,,,,,,,,,,,,,,,,,,,,,,,,
,,,,,,,,2023-08-16_08h47.59.566,HF_wild_card,2022.2.4,MacIntel,60.0024001,604c5ff80862dbf0bfe4caac,64d2fd46c836a06233681665,64dc7f26584a8f3af72ae997,,,,,,,ctch,resources/DBN.BMP,resources/DG.BMP,Door4,0.212565943,0.00118037,1,0,0,1.0462,optionRight,60,8395,4,27,0,27,0,1,,,,,,,,,,,,,,,,,,,,,,,,,,,,,,,,,,,,,,,
,,,,,,,,2023-08-16_08h47.59.566,HF_wild_card,2022.2.4,MacIntel,60.0024001,604c5ff80862dbf0bfe4caac,64d2fd46c836a06233681665,64dc7f26584a8f3af72ae997,,,,,,,ctch,resources/DY.BMP,resources/DR.BMP,Door3,0.324806198,-0.00078943,1,0,0,2.6147,optionRight,70,8465,4,28,0,28,0,1,,,,,,,,,,,,,,,,,,,,,,,,,,,,,,,,,,,,,,,
,,,,,,,,2023-08-16_08h47.59.566,HF_wild_card,2022.2.4,MacIntel,60.0024001,604c5ff80862dbf0bfe4caac,64d2fd46c836a06233681665,64dc7f26584a8f3af72ae997,,,,,,,decisionTrl,resources/DP.BMP,resources/DBN.BMP,WildCard_Ex,-0.19294981,-0.017022705,1,0,0,1.1325,optionLeft,45,8510,4,29,0,29,0,1,,,,,,,,,,,,,,,,,,,,,,,,,,,,,,,,,,,,,,,
,,,,,,,,2023-08-16_08h47.59.566,HF_wild_card,2022.2.4,MacIntel,60.0024001,604c5ff80862dbf0bfe4caac,64d2fd46c836a06233681665,64dc7f26584a8f3af72ae997,,,,,,,decisionTrl,resources/DY.BMP,resources/DBN.BMP,Door2,-0.299092023,0.018854704,1,0,0,1.8456,optionLeft,40,8550,4,30,0,30,0,1,,,,,,,,,,,,,,,,,,,,,,,,,,,,,,,,,,,,,,,
,,,,,,,,2023-08-16_08h47.59.566,HF_wild_card,2022.2.4,MacIntel,60.0024001,604c5ff80862dbf0bfe4caac,64d2fd46c836a06233681665,64dc7f26584a8f3af72ae997,,,,,,,decisionTrl,resources/DR.BMP,resources/DG.BMP,Door4,0.229759358,0.006527741,1,0,0,1.4487,optionRight,60,8610,4,31,0,31,0,1,,,,,,,,,,,,,,,,,,,,,,,,,,,,,,,,,,,,,,,
,,,,,,,,2023-08-16_08h47.59.566,HF_wild_card,2022.2.4,MacIntel,60.0024001,604c5ff80862dbf0bfe4caac,64d2fd46c836a06233681665,64dc7f26584a8f3af72ae997,,,,,,,ctch,resources/DBN.BMP,resources/DG.BMP,Door4,0.193349307,0.023393957,1,0,0,0.9967,optionRight,80,8690,4,32,0,32,0,1,,,,,,,,,,,,,,,,,,,,,,,,,,,,,,,,,,,,,,,
,,,,,,,,2023-08-16_08h47.59.566,HF_wild_card,2022.2.4,MacIntel,60.0024001,604c5ff80862dbf0bfe4caac,64d2fd46c836a06233681665,64dc7f26584a8f3af72ae997,,,,,,,ctch,resources/DG.BMP,resources/DBN.BMP,Door4,-0.149693188,0.013895251,1,0,0,0.9942,optionLeft,60,8750,4,33,0,33,0,1,,,,,,,,,,,,,,,,,,,,,,,,,,,,,,,,,,,,,,,
,,,,,,,,2023-08-16_08h47.59.566,HF_wild_card,2022.2.4,MacIntel,60.0024001,604c5ff80862dbf0bfe4caac,64d2fd46c836a06233681665,64dc7f26584a8f3af72ae997,,,,,,,ctch,resources/DR.BMP,resources/DY.BMP,Door3,-0.169074682,0.016418457,1,0,0,1.2155,optionLeft,70,8820,4,34,0,34,0,1,,,,,,,,,,,,,,,,,,,,,,,,,,,,,,,,,,,,,,,
,,,,,,,,2023-08-16_08h47.59.566,HF_wild_card,2022.2.4,MacIntel,60.0024001,604c5ff80862dbf0bfe4caac,64d2fd46c836a06233681665,64dc7f26584a8f3af72ae997,,,,,,,sngl,resources/Empty.png,resources/DY.BMP,Door2,0.187407503,-0.005994785,1,0,0,0.5477,optionRight,40,8860,4,35,0,35,0,1,,,,,,,,,,,,,,,,,,,,,,,,,,,,,,,,,,,,,,,
,,,,,,,,2023-08-16_08h47.59.566,HF_wild_card,2022.2.4,MacIntel,60.0024001,604c5ff80862dbf0bfe4caac,64d2fd46c836a06233681665,64dc7f26584a8f3af72ae997,,,,,,,sngl,resources/DBN.BMP,resources/Empty.png,Door1,-0.199879817,0.005870072,1,0,0,0.5116,optionLeft,30,8890,4,36,0,36,0,1,,,,,,,,,,,,,,,,,,,,,,,,,,,,,,,,,,,,,,,
,,,,,,,,2023-08-16_08h47.59.566,HF_wild_card,2022.2.4,MacIntel,60.0024001,604c5ff80862dbf0bfe4caac,64d2fd46c836a06233681665,64dc7f26584a8f3af72ae997,,,,,,,sngl,resources/DY.BMP,resources/Empty.png,Door2,-0.202411833,0.001034514,1,0,0,0.4834,optionLeft,20,8910,4,37,0,37,0,1,,,,,,,,,,,,,,,,,,,,,,,,,,,,,,,,,,,,,,,
,,,,,,,,2023-08-16_08h47.59.566,HF_wild_card,2022.2.4,MacIntel,60.0024001,604c5ff80862dbf0bfe4caac,64d2fd46c836a06233681665,64dc7f26584a8f3af72ae997,,,,,,,ctch,resources/DG.BMP,resources/DBN.BMP,Door4,-0.163003823,0.004711851,1,0,0,0.9497,optionLeft,60,8970,4,38,0,38,0,1,,,,,,,,,,,,,,,,,,,,,,,,,,,,,,,,,,,,,,,
,,,,,,,,2023-08-16_08h47.59.566,HF_wild_card,2022.2.4,MacIntel,60.0024001,604c5ff80862dbf0bfe4caac,64d2fd46c836a06233681665,64dc7f26584a8f3af72ae997,,,,,,,sngl,resources/Empty.png,resources/DP.BMP,WildCard_Ex,0.242047434,0.000376656,1,0,0,0.567,optionRight,45,9015,4,39,0,39,0,1,,,,,,,,,,,,,,,,,,,,,,,,,,,,,,,,,,,,,,,
,,,,,,,,2023-08-16_08h47.59.566,HF_wild_card,2022.2.4,MacIntel,60.0024001,604c5ff80862dbf0bfe4caac,64d2fd46c836a06233681665,64dc7f26584a8f3af72ae997,,,,,,,decisionTrl,resources/DBN.BMP,resources/DY.BMP,Door2,0.25278874,0.027377162,1,0,0,0.9668,optionRight,40,9055,4,40,0,40,0,1,,,,,,,,,,,,,,,,,,,,,,,,,,,,,,,,,,,,,,,
,,,,,,,,2023-08-16_08h47.59.566,HF_wild_card,2022.2.4,MacIntel,60.0024001,604c5ff80862dbf0bfe4caac,64d2fd46c836a06233681665,64dc7f26584a8f3af72ae997,,,,,,,decisionTrl,resources/DG.BMP,resources/DP.BMP,Door4,-0.296120933,0.041110638,1,0,0,1.3639,optionLeft,60,9115,4,41,0,41,0,1,,,,,,,,,,,,,,,,,,,,,,,,,,,,,,,,,,,,,,,
,,,,,,,,2023-08-16_08h47.59.566,HF_wild_card,2022.2.4,MacIntel,60.0024001,604c5ff80862dbf0bfe4caac,64d2fd46c836a06233681665,64dc7f26584a8f3af72ae997,,,,,,,decisionTrl,resources/DP.BMP,resources/DR.BMP,Door3,0.289141028,-0.01819823,1,0,0,1.3792,optionRight,70,9185,4,42,0,42,0,1,,,,,,,,,,,,,,,,,,,,,,,,,,,,,,,,,,,,,,,
,,,,,,,,2023-08-16_08h47.59.566,HF_wild_card,2022.2.4,MacIntel,60.0024001,604c5ff80862dbf0bfe4caac,64d2fd46c836a06233681665,64dc7f26584a8f3af72ae997,,,,,,,sngl,resources/DR.BMP,resources/Empty.png,Door3,-0.201635742,0.011447301,1,0,0,0.5498,optionLeft,70,9255,4,43,0,43,0,1,,,,,,,,,,,,,,,,,,,,,,,,,,,,,,,,,,,,,,,
,,,,,,,,2023-08-16_08h47.59.566,HF_wild_card,2022.2.4,MacIntel,60.0024001,604c5ff80862dbf0bfe4caac,64d2fd46c836a06233681665,64dc7f26584a8f3af72ae997,,,,,,,,,,,,,,,,,,,,,,,,,,3,0,3,0,1,,,,,,,,,,,,,,,,,,,,,,,,,,,,,,,,,,
,,,,,,,,2023-08-16_08h47.59.566,HF_wild_card,2022.2.4,MacIntel,60.0024001,604c5ff80862dbf0bfe4caac,64d2fd46c836a06233681665,64dc7f26584a8f3af72ae997,,,,,,,decisionTrl,resources/DP.BMP,resources/DG.BMP,Door4,0.292450014,-0.055088948,1,0,0,10.7885,optionRight,80,9335,5,0,0,0,0,1,,,,,,,,,,,,,,,,,,,,,,,,,,,,,,,,,,,,,,,
,,,,,,,,2023-08-16_08h47.59.566,HF_wild_card,2022.2.4,MacIntel,60.0024001,604c5ff80862dbf0bfe4caac,64d2fd46c836a06233681665,64dc7f26584a8f3af72ae997,,,,,,,decisionTrl,resources/DP.BMP,resources/DR.BMP,WildCard_Ex,-0.162818138,-0.02782511,1,0,0,0.9154,optionLeft,45,9380,5,1,0,1,0,1,,,,,,,,,,,,,,,,,,,,,,,,,,,,,,,,,,,,,,,
,,,,,,,,2023-08-16_08h47.59.566,HF_wild_card,2022.2.4,MacIntel,60.0024001,604c5ff80862dbf0bfe4caac,64d2fd46c836a06233681665,64dc7f26584a8f3af72ae997,,,,,,,decisionTrl,resources/DBN.BMP,resources/DY.BMP,Door2,0.296624945,-0.012307456,1,0,0,1.7311,optionRight,20,9400,5,2,0,2,0,1,,,,,,,,,,,,,,,,,,,,,,,,,,,,,,,,,,,,,,,
,,,,,,,,2023-08-16_08h47.59.566,HF_wild_card,2022.2.4,MacIntel,60.0024001,604c5ff80862dbf0bfe4caac,64d2fd46c836a06233681665,64dc7f26584a8f3af72ae997,,,,,,,sngl,resources/DBN.BMP,resources/Empty.png,Door1,-0.143367933,-0.006117799,1,0,0,0.5335,optionLeft,30,9430,5,3,0,3,0,1,,,,,,,,,,,,,,,,,,,,,,,,,,,,,,,,,,,,,,,
,,,,,,,,2023-08-16_08h47.59.566,HF_wild_card,2022.2.4,MacIntel,60.0024001,604c5ff80862dbf0bfe4caac,64d2fd46c836a06233681665,64dc7f26584a8f3af72ae997,,,,,,,ctch,resources/DY.BMP,resources/DR.BMP,Door3,0.303563824,-0.015664516,1,0,0,0.9492,optionRight,70,9500,5,4,0,4,0,1,,,,,,,,,,,,,,,,,,,,,,,,,,,,,,,,,,,,,,,
,,,,,,,,2023-08-16_08h47.59.566,HF_wild_card,2022.2.4,MacIntel,60.0024001,604c5ff80862dbf0bfe4caac,64d2fd46c836a06233681665,64dc7f26584a8f3af72ae997,,,,,,,sngl,resources/Empty.png,resources/DBN.BMP,Door1,0.252312414,0.005045153,1,0,0,0.8641,optionRight,30,9530,5,5,0,5,0,1,,,,,,,,,,,,,,,,,,,,,,,,,,,,,,,,,,,,,,,
,,,,,,,,2023-08-16_08h47.59.566,HF_wild_card,2022.2.4,MacIntel,60.0024001,604c5ff80862dbf0bfe4caac,64d2fd46c836a06233681665,64dc7f26584a8f3af72ae997,,,,,,,decisionTrl,resources/DBN.BMP,resources/DY.BMP,Door2,0.273873555,0.006431344,1,0,0,1.2319,optionRight,40,9570,5,6,0,6,0,1,,,,,,,,,,,,,,,,,,,,,,,,,,,,,,,,,,,,,,,
,,,,,,,,2023-08-16_08h47.59.566,HF_wild_card,2022.2.4,MacIntel,60.0024001,604c5ff80862dbf0bfe4caac,64d2fd46c836a06233681665,64dc7f26584a8f3af72ae997,,,,,,,decisionTrl,resources/DY.BMP,resources/DP.BMP,WildCard_Ex,0.256279448,-0.012034937,1,0,0,1.4977,optionRight,55,9625,5,7,0,7,0,1,,,,,,,,,,,,,,,,,,,,,,,,,,,,,,,,,,,,,,,
,,,,,,,,2023-08-16_08h47.59.566,HF_wild_card,2022.2.4,MacIntel,60.0024001,604c5ff80862dbf0bfe4caac,64d2fd46c836a06233681665,64dc7f26584a8f3af72ae997,,,,,,,decisionTrl,resources/DBN.BMP,resources/DP.BMP,WildCard_Ex,0.272339245,0.001501402,1,0,0,1.2325,optionRight,55,9680,5,8,0,8,0,1,,,,,,,,,,,,,,,,,,,,,,,,,,,,,,,,,,,,,,,
,,,,,,,,2023-08-16_08h47.59.566,HF_wild_card,2022.2.4,MacIntel,60.0024001,604c5ff80862dbf0bfe4caac,64d2fd46c836a06233681665,64dc7f26584a8f3af72ae997,,,,,,,decisionTrl,resources/DG.BMP,resources/DR.BMP,Door3,0.311791237,-0.02130731,1,0,0,1.2316,optionRight,70,9750,5,9,0,9,0,1,,,,,,,,,,,,,,,,,,,,,,,,,,,,,,,,,,,,,,,
,,,,,,,,2023-08-16_08h47.59.566,HF_wild_card,2022.2.4,MacIntel,60.0024001,604c5ff80862dbf0bfe4caac,64d2fd46c836a06233681665,64dc7f26584a8f3af72ae997,,,,,,,decisionTrl,resources/DG.BMP,resources/DR.BMP,Door3,0.221260118,-0.018421039,1,0,0,0.782,optionRight,70,9820,5,10,0,10,0,1,,,,,,,,,,,,,,,,,,,,,,,,,,,,,,,,,,,,,,,
,,,,,,,,2023-08-16_08h47.59.566,HF_wild_card,2022.2.4,MacIntel,60.0024001,604c5ff80862dbf0bfe4caac,64d2fd46c836a06233681665,64dc7f26584a8f3af72ae997,,,,,,,ctch,resources/DR.BMP,resources/DY.BMP,Door3,-0.296982409,0.015584981,1,0,0,0.7806,optionLeft,70,9890,5,11,0,11,0,1,,,,,,,,,,,,,,,,,,,,,,,,,,,,,,,,,,,,,,,
,,,,,,,,2023-08-16_08h47.59.566,HF_wild_card,2022.2.4,MacIntel,60.0024001,604c5ff80862dbf0bfe4caac,64d2fd46c836a06233681665,64dc7f26584a8f3af72ae997,,,,,,,ctch,resources/DY.BMP,resources/DR.BMP,Door3,0.244307245,-0.004702476,1,0,0,0.6489,optionRight,70,9960,5,12,0,12,0,1,,,,,,,,,,,,,,,,,,,,,,,,,,,,,,,,,,,,,,,
,,,,,,,,2023-08-16_08h47.59.566,HF_wild_card,2022.2.4,MacIntel,60.0024001,604c5ff80862dbf0bfe4caac,64d2fd46c836a06233681665,64dc7f26584a8f3af72ae997,,,,,,,decisionTrl,resources/DG.BMP,resources/DP.BMP,Door4,-0.130708989,-0.013283138,1,0,0,1.4481,optionLeft,60,10020,5,13,0,13,0,1,,,,,,,,,,,,,,,,,,,,,,,,,,,,,,,,,,,,,,,
,,,,,,,,2023-08-16_08h47.59.566,HF_wild_card,2022.2.4,MacIntel,60.0024001,604c5ff80862dbf0bfe4caac,64d2fd46c836a06233681665,64dc7f26584a8f3af72ae997,,,,,,,decisionTrl,resources/DY.BMP,resources/DBN.BMP,Door1,0.204579524,-0.003001357,1,0,0,1.2813,optionRight,30,10050,5,14,0,14,0,1,,,,,,,,,,,,,,,,,,,,,,,,,,,,,,,,,,,,,,,
,,,,,,,,2023-08-16_08h47.59.566,HF_wild_card,2022.2.4,MacIntel,60.0024001,604c5ff80862dbf0bfe4caac,64d2fd46c836a06233681665,64dc7f26584a8f3af72ae997,,,,,,,sngl,resources/DR.BMP,resources/Empty.png,Door3,-0.185504339,-0.000555546,1,0,0,0.5515,optionLeft,70,10120,5,15,0,15,0,1,,,,,,,,,,,,,,,,,,,,,,,,,,,,,,,,,,,,,,,
,,,,,,,,2023-08-16_08h47.59.566,HF_wild_card,2022.2.4,MacIntel,60.0024001,604c5ff80862dbf0bfe4caac,64d2fd46c836a06233681665,64dc7f26584a8f3af72ae997,,,,,,,decisionTrl,resources/DP.BMP,resources/DBN.BMP,WildCard_Ex,-0.193786118,0.007899522,1,0,0,1.529,optionLeft,55,10175,5,16,0,16,0,1,,,,,,,,,,,,,,,,,,,,,,,,,,,,,,,,,,,,,,,
,,,,,,,,2023-08-16_08h47.59.566,HF_wild_card,2022.2.4,MacIntel,60.0024001,604c5ff80862dbf0bfe4caac,64d2fd46c836a06233681665,64dc7f26584a8f3af72ae997,,,,,,,sngl,resources/DP.BMP,resources/Empty.png,WildCard_Ex,-0.169302525,0.014775164,1,0,0,0.5407,optionLeft,55,10230,5,17,0,17,0,1,,,,,,,,,,,,,,,,,,,,,,,,,,,,,,,,,,,,,,,
,,,,,,,,2023-08-16_08h47.59.566,HF_wild_card,2022.2.4,MacIntel,60.0024001,604c5ff80862dbf0bfe4caac,64d2fd46c836a06233681665,64dc7f26584a8f3af72ae997,,,,,,,decisionTrl,resources/DR.BMP,resources/DP.BMP,Door3,-0.267586053,0.035483826,1,0,0,0.3633,optionLeft,70,10300,5,18,0,18,0,1,,,,,,,,,,,,,,,,,,,,,,,,,,,,,,,,,,,,,,,
,,,,,,,,2023-08-16_08h47.59.566,HF_wild_card,2022.2.4,MacIntel,60.0024001,604c5ff80862dbf0bfe4caac,64d2fd46c836a06233681665,64dc7f26584a8f3af72ae997,,,,,,,ctch,resources/DR.BMP,resources/DY.BMP,Door3,-0.229743124,0.018595965,1,0,0,0.5962,optionLeft,70,10370,5,19,0,19,0,1,,,,,,,,,,,,,,,,,,,,,,,,,,,,,,,,,,,,,,,
,,,,,,,,2023-08-16_08h47.59.566,HF_wild_card,2022.2.4,MacIntel,60.0024001,604c5ff80862dbf0bfe4caac,64d2fd46c836a06233681665,64dc7f26584a8f3af72ae997,,,,,,,decisionTrl,resources/DY.BMP,resources/DBN.BMP,Door2,-0.089692169,0.01612316,1,0,0,1.08,optionLeft,40,10410,5,20,0,20,0,1,,,,,,,,,,,,,,,,,,,,,,,,,,,,,,,,,,,,,,,
,,,,,,,,2023-08-16_08h47.59.566,HF_wild_card,2022.2.4,MacIntel,60.0024001,604c5ff80862dbf0bfe4caac,64d2fd46c836a06233681665,64dc7f26584a8f3af72ae997,,,,,,,sngl,resources/DG.BMP,resources/Empty.png,Door4,-0.214023236,-0.016292548,1,0,0,0.4975,optionLeft,80,10490,5,21,0,21,0,1,,,,,,,,,,,,,,,,,,,,,,,,,,,,,,,,,,,,,,,
,,,,,,,,2023-08-16_08h47.59.566,HF_wild_card,2022.2.4,MacIntel,60.0024001,604c5ff80862dbf0bfe4caac,64d2fd46c836a06233681665,64dc7f26584a8f3af72ae997,,,,,,,sngl,resources/DY.BMP,resources/Empty.png,Door2,-0.27206207,0.004563605,1,0,0,0.4487,optionLeft,40,10530,5,22,0,22,0,1,,,,,,,,,,,,,,,,,,,,,,,,,,,,,,,,,,,,,,,
,,,,,,,,2023-08-16_08h47.59.566,HF_wild_card,2022.2.4,MacIntel,60.0024001,604c5ff80862dbf0bfe4caac,64d2fd46c836a06233681665,64dc7f26584a8f3af72ae997,,,,,,,decisionTrl,resources/DP.BMP,resources/DY.BMP,WildCard_Ex,-0.252520941,0.016899502,1,0,0,0.9312,optionLeft,45,10575,5,23,0,23,0,1,,,,,,,,,,,,,,,,,,,,,,,,,,,,,,,,,,,,,,,
,,,,,,,,2023-08-16_08h47.59.566,HF_wild_card,2022.2.4,MacIntel,60.0024001,604c5ff80862dbf0bfe4caac,64d2fd46c836a06233681665,64dc7f26584a8f3af72ae997,,,,,,,decisionTrl,resources/DR.BMP,resources/DG.BMP,Door4,0.279577007,-0.005872022,1,0,0,0.6816,optionRight,80,10655,5,24,0,24,0,1,,,,,,,,,,,,,,,,,,,,,,,,,,,,,,,,,,,,,,,
,,,,,,,,2023-08-16_08h47.59.566,HF_wild_card,2022.2.4,MacIntel,60.0024001,604c5ff80862dbf0bfe4caac,64d2fd46c836a06233681665,64dc7f26584a8f3af72ae997,,,,,,,decisionTrl,resources/DR.BMP,resources/DG.BMP,Door4,0.219993733,-0.001851064,1,0,0,0.7999,optionRight,60,10715,5,25,0,25,0,1,,,,,,,,,,,,,,,,,,,,,,,,,,,,,,,,,,,,,,,
,,,,,,,,2023-08-16_08h47.59.566,HF_wild_card,2022.2.4,MacIntel,60.0024001,604c5ff80862dbf0bfe4caac,64d2fd46c836a06233681665,64dc7f26584a8f3af72ae997,,,,,,,decisionTrl,resources/DR.BMP,resources/DG.BMP,Door3,-0.270905737,0.001041058,1,0,0,0.5825,optionLeft,70,10785,5,26,0,26,0,1,,,,,,,,,,,,,,,,,,,,,,,,,,,,,,,,,,,,,,,
,,,,,,,,2023-08-16_08h47.59.566,HF_wild_card,2022.2.4,MacIntel,60.0024001,604c5ff80862dbf0bfe4caac,64d2fd46c836a06233681665,64dc7f26584a8f3af72ae997,,,,,,,decisionTrl,resources/DG.BMP,resources/DR.BMP,Door4,-0.286537029,0.012478355,1,0,0,0.5821,optionLeft,80,10865,5,27,0,27,0,1,,,,,,,,,,,,,,,,,,,,,,,,,,,,,,,,,,,,,,,
,,,,,,,,2023-08-16_08h47.59.566,HF_wild_card,2022.2.4,MacIntel,60.0024001,604c5ff80862dbf0bfe4caac,64d2fd46c836a06233681665,64dc7f26584a8f3af72ae997,,,,,,,ctch,resources/DG.BMP,resources/DBN.BMP,Door4,-0.282514749,0.025642065,1,0,0,0.6477,optionLeft,60,10925,5,28,0,28,0,1,,,,,,,,,,,,,,,,,,,,,,,,,,,,,,,,,,,,,,,
,,,,,,,,2023-08-16_08h47.59.566,HF_wild_card,2022.2.4,MacIntel,60.0024001,604c5ff80862dbf0bfe4caac,64d2fd46c836a06233681665,64dc7f26584a8f3af72ae997,,,,,,,ctch,resources/DBN.BMP,resources/DG.BMP,Door4,0.342403703,-0.011615619,1,0,0,0.7155,optionRight,60,10985,5,29,0,29,0,1,,,,,,,,,,,,,,,,,,,,,,,,,,,,,,,,,,,,,,,
,,,,,,,,2023-08-16_08h47.59.566,HF_wild_card,2022.2.4,MacIntel,60.0024001,604c5ff80862dbf0bfe4caac,64d2fd46c836a06233681665,64dc7f26584a8f3af72ae997,,,,,,,sngl,resources/Empty.png,resources/DP.BMP,WildCard_Ex,0.206135984,0.011384441,1,0,0,0.4642,optionRight,45,11030,5,30,0,30,0,1,,,,,,,,,,,,,,,,,,,,,,,,,,,,,,,,,,,,,,,
,,,,,,,,2023-08-16_08h47.59.566,HF_wild_card,2022.2.4,MacIntel,60.0024001,604c5ff80862dbf0bfe4caac,64d2fd46c836a06233681665,64dc7f26584a8f3af72ae997,,,,,,,decisionTrl,resources/DBN.BMP,resources/DY.BMP,Door2,0.276554446,-0.007231974,1,0,0,1.0478,optionRight,20,11050,5,31,0,31,0,1,,,,,,,,,,,,,,,,,,,,,,,,,,,,,,,,,,,,,,,
,,,,,,,,2023-08-16_08h47.59.566,HF_wild_card,2022.2.4,MacIntel,60.0024001,604c5ff80862dbf0bfe4caac,64d2fd46c836a06233681665,64dc7f26584a8f3af72ae997,,,,,,,sngl,resources/Empty.png,resources/DP.BMP,WildCard_Ex,0.229802271,0.004238294,1,0,0,0.512,optionRight,55,11105,5,32,0,32,0,1,,,,,,,,,,,,,,,,,,,,,,,,,,,,,,,,,,,,,,,
,,,,,,,,2023-08-16_08h47.59.566,HF_wild_card,2022.2.4,MacIntel,60.0024001,604c5ff80862dbf0bfe4caac,64d2fd46c836a06233681665,64dc7f26584a8f3af72ae997,,,,,,,sngl,resources/Empty.png,resources/DR.BMP,Door3,0.221493058,0.030384559,1,0,0,0.5795,optionRight,70,11175,5,33,0,33,0,1,,,,,,,,,,,,,,,,,,,,,,,,,,,,,,,,,,,,,,,
,,,,,,,,2023-08-16_08h47.59.566,HF_wild_card,2022.2.4,MacIntel,60.0024001,604c5ff80862dbf0bfe4caac,64d2fd46c836a06233681665,64dc7f26584a8f3af72ae997,,,,,,,decisionTrl,resources/DR.BMP,resources/DG.BMP,Door3,-0.23937875,0.028424513,1,0,0,0.498,optionLeft,70,11245,5,34,0,34,0,1,,,,,,,,,,,,,,,,,,,,,,,,,,,,,,,,,,,,,,,
,,,,,,,,2023-08-16_08h47.59.566,HF_wild_card,2022.2.4,MacIntel,60.0024001,604c5ff80862dbf0bfe4caac,64d2fd46c836a06233681665,64dc7f26584a8f3af72ae997,,,,,,,decisionTrl,resources/DBN.BMP,resources/DY.BMP,Door2,0.246338016,-0.009839622,1,0,0,1.1892,optionRight,20,11265,5,35,0,35,0,1,,,,,,,,,,,,,,,,,,,,,,,,,,,,,,,,,,,,,,,
,,,,,,,,2023-08-16_08h47.59.566,HF_wild_card,2022.2.4,MacIntel,60.0024001,604c5ff80862dbf0bfe4caac,64d2fd46c836a06233681665,64dc7f26584a8f3af72ae997,,,,,,,decisionTrl,resources/DG.BMP,resources/DR.BMP,Door3,0.241065586,-0.012517493,1,0,0,0.565,optionRight,70,11335,5,36,0,36,0,1,,,,,,,,,,,,,,,,,,,,,,,,,,,,,,,,,,,,,,,
,,,,,,,,2023-08-16_08h47.59.566,HF_wild_card,2022.2.4,MacIntel,60.0024001,604c5ff80862dbf0bfe4caac,64d2fd46c836a06233681665,64dc7f26584a8f3af72ae997,,,,,,,decisionTrl,resources/DY.BMP,resources/DBN.BMP,Door1,0.192671628,-0.001784932,1,0,0,1.7288,optionRight,30,11365,5,37,0,37,0,1,,,,,,,,,,,,,,,,,,,,,,,,,,,,,,,,,,,,,,,
,,,,,,,,2023-08-16_08h47.59.566,HF_wild_card,2022.2.4,MacIntel,60.0024001,604c5ff80862dbf0bfe4caac,64d2fd46c836a06233681665,64dc7f26584a8f3af72ae997,,,,,,,sngl,resources/DP.BMP,resources/Empty.png,WildCard_Ex,-0.293145815,0.02490398,1,0,0,0.5177,optionLeft,45,11410,5,38,0,38,0,1,,,,,,,,,,,,,,,,,,,,,,,,,,,,,,,,,,,,,,,
,,,,,,,,2023-08-16_08h47.59.566,HF_wild_card,2022.2.4,MacIntel,60.0024001,604c5ff80862dbf0bfe4caac,64d2fd46c836a06233681665,64dc7f26584a8f3af72ae997,,,,,,,sngl,resources/Empty.png,resources/DG.BMP,Door4,0.265756886,-0.008107482,1,0,0,0.5484,optionRight,60,11470,5,39,0,39,0,1,,,,,,,,,,,,,,,,,,,,,,,,,,,,,,,,,,,,,,,
,,,,,,,,2023-08-16_08h47.59.566,HF_wild_card,2022.2.4,MacIntel,60.0024001,604c5ff80862dbf0bfe4caac,64d2fd46c836a06233681665,64dc7f26584a8f3af72ae997,,,,,,,ctch,resources/DG.BMP,resources/DBN.BMP,Door4,-0.132034837,-0.003633542,1,0,0,0.7633,optionLeft,80,11550,5,40,0,40,0,1,,,,,,,,,,,,,,,,,,,,,,,,,,,,,,,,,,,,,,,
,,,,,,,,2023-08-16_08h47.59.566,HF_wild_card,2022.2.4,MacIntel,60.0024001,604c5ff80862dbf0bfe4caac,64d2fd46c836a06233681665,64dc7f26584a8f3af72ae997,,,,,,,sngl,resources/Empty.png,resources/DY.BMP,Door2,0.309543633,0.010145553,1,0,0,0.5672,optionRight,20,11570,5,41,0,41,0,1,,,,,,,,,,,,,,,,,,,,,,,,,,,,,,,,,,,,,,,
,,,,,,,,2023-08-16_08h47.59.566,HF_wild_card,2022.2.4,MacIntel,60.0024001,604c5ff80862dbf0bfe4caac,64d2fd46c836a06233681665,64dc7f26584a8f3af72ae997,,,,,,,ctch,resources/DBN.BMP,resources/DG.BMP,Door4,0.284503866,0.003959546,1,0,0,0.614,optionRight,80,11650,5,42,0,42,0,1,,,,,,,,,,,,,,,,,,,,,,,,,,,,,,,,,,,,,,,
,,,,,,,,2023-08-16_08h47.59.566,HF_wild_card,2022.2.4,MacIntel,60.0024001,604c5ff80862dbf0bfe4caac,64d2fd46c836a06233681665,64dc7f26584a8f3af72ae997,,,,,,,decisionTrl,resources/DY.BMP,resources/DBN.BMP,Door2,-0.153535823,-0.003331072,1,0,0,1.0481,optionLeft,40,11690,5,43,0,43,0,1,,,,,,,,,,,,,,,,,,,,,,,,,,,,,,,,,,,,,,,
,,,,,,,,2023-08-16_08h47.59.566,HF_wild_card,2022.2.4,MacIntel,60.0024001,604c5ff80862dbf0bfe4caac,64d2fd46c836a06233681665,64dc7f26584a8f3af72ae997,,,,,,,,,,,,,,,,,,,,,,,,,,4,0,4,0,1,,,,,,,,,,,,,,,,,,,,,,,,,,,,,,,,,,
,,,,,,,,2023-08-16_08h47.59.566,HF_wild_card,2022.2.4,MacIntel,60.0024001,604c5ff80862dbf0bfe4caac,64d2fd46c836a06233681665,64dc7f26584a8f3af72ae997,,,,,,,sngl,resources/Empty.png,resources/DBN.BMP,Door1,0.260942282,-0.126560046,1,0,0,1.1873,optionRight,30,11720,6,0,0,0,0,1,,,,,,,,,,,,,,,,,,,,,,,,,,,,,,,,,,,,,,,
,,,,,,,,2023-08-16_08h47.59.566,HF_wild_card,2022.2.4,MacIntel,60.0024001,604c5ff80862dbf0bfe4caac,64d2fd46c836a06233681665,64dc7f26584a8f3af72ae997,,,,,,,decisionTrl,resources/DBN.BMP,resources/DY.BMP,Door2,0.285029398,0.024069875,1,0,0,0.7481,optionRight,20,11740,6,1,0,1,0,1,,,,,,,,,,,,,,,,,,,,,,,,,,,,,,,,,,,,,,,
,,,,,,,,2023-08-16_08h47.59.566,HF_wild_card,2022.2.4,MacIntel,60.0024001,604c5ff80862dbf0bfe4caac,64d2fd46c836a06233681665,64dc7f26584a8f3af72ae997,,,,,,,ctch,resources/DG.BMP,resources/DBN.BMP,Door4,-0.223627149,0.033797998,1,0,0,0.8325,optionLeft,60,11800,6,2,0,2,0,1,,,,,,,,,,,,,,,,,,,,,,,,,,,,,,,,,,,,,,,
,,,,,,,,2023-08-16_08h47.59.566,HF_wild_card,2022.2.4,MacIntel,60.0024001,604c5ff80862dbf0bfe4caac,64d2fd46c836a06233681665,64dc7f26584a8f3af72ae997,,,,,,,decisionTrl,resources/DR.BMP,resources/DG.BMP,Door3,-0.228369518,0.004031215,1,0,0,0.744,optionLeft,70,11870,6,3,0,3,0,1,,,,,,,,,,,,,,,,,,,,,,,,,,,,,,,,,,,,,,,
,,,,,,,,2023-08-16_08h47.59.566,HF_wild_card,2022.2.4,MacIntel,60.0024001,604c5ff80862dbf0bfe4caac,64d2fd46c836a06233681665,64dc7f26584a8f3af72ae997,,,,,,,decisionTrl,resources/DG.BMP,resources/DP.BMP,Door4,-0.14672625,0.003720879,1,0,0,0.551,optionLeft,60,11930,6,4,0,4,0,1,,,,,,,,,,,,,,,,,,,,,,,,,,,,,,,,,,,,,,,
,,,,,,,,2023-08-16_08h47.59.566,HF_wild_card,2022.2.4,MacIntel,60.0024001,604c5ff80862dbf0bfe4caac,64d2fd46c836a06233681665,64dc7f26584a8f3af72ae997,,,,,,,decisionTrl,resources/DP.BMP,resources/DR.BMP,Door3,0.283535861,0.001236434,1,0,0,0.6966,optionRight,70,12000,6,5,0,5,0,1,,,,,,,,,,,,,,,,,,,,,,,,,,,,,,,,,,,,,,,
,,,,,,,,2023-08-16_08h47.59.566,HF_wild_card,2022.2.4,MacIntel,60.0024001,604c5ff80862dbf0bfe4caac,64d2fd46c836a06233681665,64dc7f26584a8f3af72ae997,,,,,,,decisionTrl,resources/DP.BMP,resources/DBN.BMP,WildCard_Ex,-0.17924509,0.006851165,1,0,0,0.714,optionLeft,55,12055,6,6,0,6,0,1,,,,,,,,,,,,,,,,,,,,,,,,,,,,,,,,,,,,,,,
,,,,,,,,2023-08-16_08h47.59.566,HF_wild_card,2022.2.4,MacIntel,60.0024001,604c5ff80862dbf0bfe4caac,64d2fd46c836a06233681665,64dc7f26584a8f3af72ae997,,,,,,,sngl,resources/Empty.png,resources/DY.BMP,Door2,0.219218398,0.018070559,1,0,0,0.5647,optionRight,40,12095,6,7,0,7,0,1,,,,,,,,,,,,,,,,,,,,,,,,,,,,,,,,,,,,,,,
,,,,,,,,2023-08-16_08h47.59.566,HF_wild_card,2022.2.4,MacIntel,60.0024001,604c5ff80862dbf0bfe4caac,64d2fd46c836a06233681665,64dc7f26584a8f3af72ae997,,,,,,,sngl,resources/DY.BMP,resources/Empty.png,Door2,-0.258011084,-0.002499044,1,0,0,0.4816,optionLeft,20,12115,6,8,0,8,0,1,,,,,,,,,,,,,,,,,,,,,,,,,,,,,,,,,,,,,,,
,,,,,,,,2023-08-16_08h47.59.566,HF_wild_card,2022.2.4,MacIntel,60.0024001,604c5ff80862dbf0bfe4caac,64d2fd46c836a06233681665,64dc7f26584a8f3af72ae997,,,,,,,decisionTrl,resources/DR.BMP,resources/DG.BMP,Door4,0.254790693,-0.024527324,1,0,0,1.5631,optionRight,60,12175,6,9,0,9,0,1,,,,,,,,,,,,,,,,,,,,,,,,,,,,,,,,,,,,,,,
,,,,,,,,2023-08-16_08h47.59.566,HF_wild_card,2022.2.4,MacIntel,60.0024001,604c5ff80862dbf0bfe4caac,64d2fd46c836a06233681665,64dc7f26584a8f3af72ae997,,,,,,,decisionTrl,resources/DY.BMP,resources/DBN.BMP,Door2,-0.164335837,-0.011778275,1,0,0,0.6975,optionLeft,40,12215,6,10,0,10,0,1,,,,,,,,,,,,,,,,,,,,,,,,,,,,,,,,,,,,,,,
,,,,,,,,2023-08-16_08h47.59.566,HF_wild_card,2022.2.4,MacIntel,60.0024001,604c5ff80862dbf0bfe4caac,64d2fd46c836a06233681665,64dc7f26584a8f3af72ae997,,,,,,,ctch,resources/DY.BMP,resources/DR.BMP,Door3,0.243499064,-0.019639729,1,0,0,0.5307,optionRight,70,12285,6,11,0,11,0,1,,,,,,,,,,,,,,,,,,,,,,,,,,,,,,,,,,,,,,,
,,,,,,,,2023-08-16_08h47.59.566,HF_wild_card,2022.2.4,MacIntel,60.0024001,604c5ff80862dbf0bfe4caac,64d2fd46c836a06233681665,64dc7f26584a8f3af72ae997,,,,,,,decisionTrl,resources/DY.BMP,resources/DP.BMP,WildCard_Ex,0.246391753,-0.004367726,1,0,0,0.6805,optionRight,55,12340,6,12,0,12,0,1,,,,,,,,,,,,,,,,,,,,,,,,,,,,,,,,,,,,,,,
,,,,,,,,2023-08-16_08h47.59.566,HF_wild_card,2022.2.4,MacIntel,60.0024001,604c5ff80862dbf0bfe4caac,64d2fd46c836a06233681665,64dc7f26584a8f3af72ae997,,,,,,,decisionTrl,resources/DP.BMP,resources/DG.BMP,WildCard_Ex,-0.163432517,-0.00022325,1,0,0,0.714,optionLeft,45,12385,6,13,0,13,0,1,,,,,,,,,,,,,,,,,,,,,,,,,,,,,,,,,,,,,,,
,,,,,,,,2023-08-16_08h47.59.566,HF_wild_card,2022.2.4,MacIntel,60.0024001,604c5ff80862dbf0bfe4caac,64d2fd46c836a06233681665,64dc7f26584a8f3af72ae997,,,,,,,decisionTrl,resources/DY.BMP,resources/DBN.BMP,Door2,-0.177479852,-0.003052513,1,0,0,1.0144,optionLeft,20,12405,6,14,0,14,0,1,,,,,,,,,,,,,,,,,,,,,,,,,,,,,,,,,,,,,,,
,,,,,,,,2023-08-16_08h47.59.566,HF_wild_card,2022.2.4,MacIntel,60.0024001,604c5ff80862dbf0bfe4caac,64d2fd46c836a06233681665,64dc7f26584a8f3af72ae997,,,,,,,decisionTrl,resources/DBN.BMP,resources/DY.BMP,Door1,-0.187939327,0.007223479,1,0,0,0.9319,optionLeft,30,12435,6,15,0,15,0,1,,,,,,,,,,,,,,,,,,,,,,,,,,,,,,,,,,,,,,,
,,,,,,,,2023-08-16_08h47.59.566,HF_wild_card,2022.2.4,MacIntel,60.0024001,604c5ff80862dbf0bfe4caac,64d2fd46c836a06233681665,64dc7f26584a8f3af72ae997,,,,,,,ctch,resources/DG.BMP,resources/DBN.BMP,Door4,-0.175462735,0.001996164,1,0,0,0.7652,optionLeft,80,12515,6,16,0,16,0,1,,,,,,,,,,,,,,,,,,,,,,,,,,,,,,,,,,,,,,,
,,,,,,,,2023-08-16_08h47.59.566,HF_wild_card,2022.2.4,MacIntel,60.0024001,604c5ff80862dbf0bfe4caac,64d2fd46c836a06233681665,64dc7f26584a8f3af72ae997,,,,,,,decisionTrl,resources/DG.BMP,resources/DR.BMP,Door4,-0.159114877,-0.003320501,1,0,0,1.3815,optionLeft,60,12575,6,17,0,17,0,1,,,,,,,,,,,,,,,,,,,,,,,,,,,,,,,,,,,,,,,
,,,,,,,,2023-08-16_08h47.59.566,HF_wild_card,2022.2.4,MacIntel,60.0024001,604c5ff80862dbf0bfe4caac,64d2fd46c836a06233681665,64dc7f26584a8f3af72ae997,,,,,,,sngl,resources/Empty.png,resources/DP.BMP,WildCard_Ex,0.163493174,-0.009190762,1,0,0,0.5347,optionRight,45,12620,6,18,0,18,0,1,,,,,,,,,,,,,,,,,,,,,,,,,,,,,,,,,,,,,,,
,,,,,,,,2023-08-16_08h47.59.566,HF_wild_card,2022.2.4,MacIntel,60.0024001,604c5ff80862dbf0bfe4caac,64d2fd46c836a06233681665,64dc7f26584a8f3af72ae997,,,,,,,decisionTrl,resources/DP.BMP,resources/DY.BMP,WildCard_Ex,-0.175459022,0.008155429,1,0,0,0.9961,optionLeft,45,12665,6,19,0,19,0,1,,,,,,,,,,,,,,,,,,,,,,,,,,,,,,,,,,,,,,,
,,,,,,,,2023-08-16_08h47.59.566,HF_wild_card,2022.2.4,MacIntel,60.0024001,604c5ff80862dbf0bfe4caac,64d2fd46c836a06233681665,64dc7f26584a8f3af72ae997,,,,,,,decisionTrl,resources/DG.BMP,resources/DR.BMP,Door4,-0.193090946,0.004238483,1,0,0,1.8458,optionLeft,60,12725,6,20,0,20,0,1,,,,,,,,,,,,,,,,,,,,,,,,,,,,,,,,,,,,,,,
,,,,,,,,2023-08-16_08h47.59.566,HF_wild_card,2022.2.4,MacIntel,60.0024001,604c5ff80862dbf0bfe4caac,64d2fd46c836a06233681665,64dc7f26584a8f3af72ae997,,,,,,,decisionTrl,resources/DG.BMP,resources/DR.BMP,Door3,0.284759459,-0.01724734,1,0,0,0.7336,optionRight,70,12795,6,21,0,21,0,1,,,,,,,,,,,,,,,,,,,,,,,,,,,,,,,,,,,,,,,
,,,,,,,,2023-08-16_08h47.59.566,HF_wild_card,2022.2.4,MacIntel,60.0024001,604c5ff80862dbf0bfe4caac,64d2fd46c836a06233681665,64dc7f26584a8f3af72ae997,,,,,,,decisionTrl,resources/DR.BMP,resources/DG.BMP,Door3,-0.184707044,-0.014358867,1,0,0,0.6822,optionLeft,70,12865,6,22,0,22,0,1,,,,,,,,,,,,,,,,,,,,,,,,,,,,,,,,,,,,,,,
,,,,,,,,2023-08-16_08h47.59.566,HF_wild_card,2022.2.4,MacIntel,60.0024001,604c5ff80862dbf0bfe4caac,64d2fd46c836a06233681665,64dc7f26584a8f3af72ae997,,,,,,,sngl,resources/Empty.png,resources/DP.BMP,WildCard_Ex,0.21779609,0.003578359,1,0,0,0.5319,optionRight,55,12920,6,23,0,23,0,1,,,,,,,,,,,,,,,,,,,,,,,,,,,,,,,,,,,,,,,
,,,,,,,,2023-08-16_08h47.59.566,HF_wild_card,2022.2.4,MacIntel,60.0024001,604c5ff80862dbf0bfe4caac,64d2fd46c836a06233681665,64dc7f26584a8f3af72ae997,,,,,,,sngl,resources/DP.BMP,resources/Empty.png,WildCard_Ex,-0.191344397,-0.013357387,1,0,0,0.4983,optionLeft,55,12975,6,24,0,24,0,1,,,,,,,,,,,,,,,,,,,,,,,,,,,,,,,,,,,,,,,
,,,,,,,,2023-08-16_08h47.59.566,HF_wild_card,2022.2.4,MacIntel,60.0024001,604c5ff80862dbf0bfe4caac,64d2fd46c836a06233681665,64dc7f26584a8f3af72ae997,,,,,,,decisionTrl,resources/DR.BMP,resources/DG.BMP,Door4,0.290925771,-0.025823849,1,0,0,1.5315,optionRight,60,13035,6,25,0,25,0,1,,,,,,,,,,,,,,,,,,,,,,,,,,,,,,,,,,,,,,,
,,,,,,,,2023-08-16_08h47.59.566,HF_wild_card,2022.2.4,MacIntel,60.0024001,604c5ff80862dbf0bfe4caac,64d2fd46c836a06233681665,64dc7f26584a8f3af72ae997,,,,,,,sngl,resources/Empty.png,resources/DG.BMP,Door4,0.173117223,-0.008394536,1,0,0,0.4994,optionRight,80,13115,6,26,0,26,0,1,,,,,,,,,,,,,,,,,,,,,,,,,,,,,,,,,,,,,,,
,,,,,,,,2023-08-16_08h47.59.566,HF_wild_card,2022.2.4,MacIntel,60.0024001,604c5ff80862dbf0bfe4caac,64d2fd46c836a06233681665,64dc7f26584a8f3af72ae997,,,,,,,sngl,resources/DG.BMP,resources/Empty.png,Door4,-0.171309953,-0.018161483,1,0,0,0.449,optionLeft,60,13175,6,27,0,27,0,1,,,,,,,,,,,,,,,,,,,,,,,,,,,,,,,,,,,,,,,
,,,,,,,,2023-08-16_08h47.59.566,HF_wild_card,2022.2.4,MacIntel,60.0024001,604c5ff80862dbf0bfe4caac,64d2fd46c836a06233681665,64dc7f26584a8f3af72ae997,,,,,,,decisionTrl,resources/DY.BMP,resources/DBN.BMP,Door2,-0.205958353,-0.019969193,1,0,0,1.0656,optionLeft,40,13215,6,28,0,28,0,1,,,,,,,,,,,,,,,,,,,,,,,,,,,,,,,,,,,,,,,
,,,,,,,,2023-08-16_08h47.59.566,HF_wild_card,2022.2.4,MacIntel,60.0024001,604c5ff80862dbf0bfe4caac,64d2fd46c836a06233681665,64dc7f26584a8f3af72ae997,,,,,,,ctch,resources/DY.BMP,resources/DR.BMP,Door3,0.21938464,0.012525547,1,0,0,0.8455,optionRight,70,13285,6,29,0,29,0,1,,,,,,,,,,,,,,,,,,,,,,,,,,,,,,,,,,,,,,,
,,,,,,,,2023-08-16_08h47.59.566,HF_wild_card,2022.2.4,MacIntel,60.0024001,604c5ff80862dbf0bfe4caac,64d2fd46c836a06233681665,64dc7f26584a8f3af72ae997,,,,,,,decisionTrl,resources/DBN.BMP,resources/DP.BMP,WildCard_Ex,0.290782055,0.024473965,1,0,0,1.4486,optionRight,45,13330,6,30,0,30,0,1,,,,,,,,,,,,,,,,,,,,,,,,,,,,,,,,,,,,,,,
,,,,,,,,2023-08-16_08h47.59.566,HF_wild_card,2022.2.4,MacIntel,60.0024001,604c5ff80862dbf0bfe4caac,64d2fd46c836a06233681665,64dc7f26584a8f3af72ae997,,,,,,,decisionTrl,resources/DR.BMP,resources/DP.BMP,Door3,-0.253822122,-0.000108101,1,0,0,0.4816,optionLeft,70,13400,6,31,0,31,0,1,,,,,,,,,,,,,,,,,,,,,,,,,,,,,,,,,,,,,,,
,,,,,,,,2023-08-16_08h47.59.566,HF_wild_card,2022.2.4,MacIntel,60.0024001,604c5ff80862dbf0bfe4caac,64d2fd46c836a06233681665,64dc7f26584a8f3af72ae997,,,,,,,decisionTrl,resources/DG.BMP,resources/DR.BMP,Door3,0.247817962,0.016585454,1,0,0,0.6632,optionRight,70,13470,6,32,0,32,0,1,,,,,,,,,,,,,,,,,,,,,,,,,,,,,,,,,,,,,,,
,,,,,,,,2023-08-16_08h47.59.566,HF_wild_card,2022.2.4,MacIntel,60.0024001,604c5ff80862dbf0bfe4caac,64d2fd46c836a06233681665,64dc7f26584a8f3af72ae997,,,,,,,decisionTrl,resources/DBN.BMP,resources/DY.BMP,Door2,0.189573056,0.014063003,1,0,0,1.1999,optionRight,40,13510,6,33,0,33,0,1,,,,,,,,,,,,,,,,,,,,,,,,,,,,,,,,,,,,,,,
,,,,,,,,2023-08-16_08h47.59.566,HF_wild_card,2022.2.4,MacIntel,60.0024001,604c5ff80862dbf0bfe4caac,64d2fd46c836a06233681665,64dc7f26584a8f3af72ae997,,,,,,,sngl,resources/DR.BMP,resources/Empty.png,Door3,-0.195868235,-0.018707905,1,0,0,0.44,optionLeft,70,13580,6,34,0,34,0,1,,,,,,,,,,,,,,,,,,,,,,,,,,,,,,,,,,,,,,,
,,,,,,,,2023-08-16_08h47.59.566,HF_wild_card,2022.2.4,MacIntel,60.0024001,604c5ff80862dbf0bfe4caac,64d2fd46c836a06233681665,64dc7f26584a8f3af72ae997,,,,,,,decisionTrl,resources/DBN.BMP,resources/DY.BMP,Door2,0.333353385,0.001004249,1,0,0,0.6479,optionRight,20,13600,6,35,0,35,0,1,,,,,,,,,,,,,,,,,,,,,,,,,,,,,,,,,,,,,,,
,,,,,,,,2023-08-16_08h47.59.566,HF_wild_card,2022.2.4,MacIntel,60.0024001,604c5ff80862dbf0bfe4caac,64d2fd46c836a06233681665,64dc7f26584a8f3af72ae997,,,,,,,sngl,resources/DBN.BMP,resources/Empty.png,Door1,-0.255615612,-0.012208164,1,0,0,0.4148,optionLeft,30,13630,6,36,0,36,0,1,,,,,,,,,,,,,,,,,,,,,,,,,,,,,,,,,,,,,,,
,,,,,,,,2023-08-16_08h47.59.566,HF_wild_card,2022.2.4,MacIntel,60.0024001,604c5ff80862dbf0bfe4caac,64d2fd46c836a06233681665,64dc7f26584a8f3af72ae997,,,,,,,sngl,resources/Empty.png,resources/DR.BMP,Door3,0.268495288,-0.006902762,1,0,0,0.4987,optionRight,70,13700,6,37,0,37,0,1,,,,,,,,,,,,,,,,,,,,,,,,,,,,,,,,,,,,,,,
,,,,,,,,2023-08-16_08h47.59.566,HF_wild_card,2022.2.4,MacIntel,60.0024001,604c5ff80862dbf0bfe4caac,64d2fd46c836a06233681665,64dc7f26584a8f3af72ae997,,,,,,,ctch,resources/DBN.BMP,resources/DG.BMP,Door4,0.348506338,0.019206379,1,0,0,0.6317,optionRight,60,13760,6,38,0,38,0,1,,,,,,,,,,,,,,,,,,,,,,,,,,,,,,,,,,,,,,,
,,,,,,,,2023-08-16_08h47.59.566,HF_wild_card,2022.2.4,MacIntel,60.0024001,604c5ff80862dbf0bfe4caac,64d2fd46c836a06233681665,64dc7f26584a8f3af72ae997,,,,,,,ctch,resources/DBN.BMP,resources/DG.BMP,Door4,0.219842089,0.047278335,1,0,0,0.9319,optionRight,80,13840,6,39,0,39,0,1,,,,,,,,,,,,,,,,,,,,,,,,,,,,,,,,,,,,,,,
,,,,,,,,2023-08-16_08h47.59.566,HF_wild_card,2022.2.4,MacIntel,60.0024001,604c5ff80862dbf0bfe4caac,64d2fd46c836a06233681665,64dc7f26584a8f3af72ae997,,,,,,,sngl,resources/DP.BMP,resources/Empty.png,WildCard_Ex,-0.255989688,0.004206392,1,0,0,0.4478,optionLeft,45,13885,6,40,0,40,0,1,,,,,,,,,,,,,,,,,,,,,,,,,,,,,,,,,,,,,,,
,,,,,,,,2023-08-16_08h47.59.566,HF_wild_card,2022.2.4,MacIntel,60.0024001,604c5ff80862dbf0bfe4caac,64d2fd46c836a06233681665,64dc7f26584a8f3af72ae997,,,,,,,ctch,resources/DR.BMP,resources/DY.BMP,Door3,-0.184592084,0.037332436,1,0,0,0.6426,optionLeft,70,13955,6,41,0,41,0,1,,,,,,,,,,,,,,,,,,,,,,,,,,,,,,,,,,,,,,,
,,,,,,,,2023-08-16_08h47.59.566,HF_wild_card,2022.2.4,MacIntel,60.0024001,604c5ff80862dbf0bfe4caac,64d2fd46c836a06233681665,64dc7f26584a8f3af72ae997,,,,,,,ctch,resources/DR.BMP,resources/DY.BMP,Door3,-0.203077682,0.017244131,1,0,0,0.5816,optionLeft,70,14025,6,42,0,42,0,1,,,,,,,,,,,,,,,,,,,,,,,,,,,,,,,,,,,,,,,
,,,,,,,,2023-08-16_08h47.59.566,HF_wild_card,2022.2.4,MacIntel,60.0024001,604c5ff80862dbf0bfe4caac,64d2fd46c836a06233681665,64dc7f26584a8f3af72ae997,,,,,,,decisionTrl,resources/DY.BMP,resources/DBN.BMP,Door2,-0.153284824,0.014848658,1,0,0,0.6926,optionLeft,20,14045,6,43,0,43,0,1,,,,,,,,,,,,,,,,,,,,,,,,,,,,,,,,,,,,,,,
,,,,,,,,2023-08-16_08h47.59.566,HF_wild_card,2022.2.4,MacIntel,60.0024001,604c5ff80862dbf0bfe4caac,64d2fd46c836a06233681665,64dc7f26584a8f3af72ae997,,,,,,,,,,,,,,,,,,,,,,,,,,5,0,5,0,1,,,,,,,,,,,,,,,,,,,,,,,,,,,,,,,,,,
,,,,,,,,2023-08-16_08h47.59.566,HF_wild_card,2022.2.4,MacIntel,60.0024001,604c5ff80862dbf0bfe4caac,64d2fd46c836a06233681665,64dc7f26584a8f3af72ae997,,,,,,,decisionTrl,resources/DY.BMP,resources/DBN.BMP,Door2,-0.210388058,0.004236217,1,0,0,5.3513,optionLeft,40,14085,7,0,0,0,0,1,,,,,,,,,,,,,,,,,,,,,,,,,,,,,,,,,,,,,,,
,,,,,,,,2023-08-16_08h47.59.566,HF_wild_card,2022.2.4,MacIntel,60.0024001,604c5ff80862dbf0bfe4caac,64d2fd46c836a06233681665,64dc7f26584a8f3af72ae997,,,,,,,ctch,resources/DBN.BMP,resources/DG.BMP,Door4,0.240350782,0.016841928,1,0,0,0.9007,optionRight,60,14145,7,1,0,1,0,1,,,,,,,,,,,,,,,,,,,,,,,,,,,,,,,,,,,,,,,
,,,,,,,,2023-08-16_08h47.59.566,HF_wild_card,2022.2.4,MacIntel,60.0024001,604c5ff80862dbf0bfe4caac,64d2fd46c836a06233681665,64dc7f26584a8f3af72ae997,,,,,,,decisionTrl,resources/DR.BMP,resources/DG.BMP,Door3,-0.259352222,0.01307889,1,0,0,4.5318,optionLeft,70,14215,7,2,0,2,0,1,,,,,,,,,,,,,,,,,,,,,,,,,,,,,,,,,,,,,,,
,,,,,,,,2023-08-16_08h47.59.566,HF_wild_card,2022.2.4,MacIntel,60.0024001,604c5ff80862dbf0bfe4caac,64d2fd46c836a06233681665,64dc7f26584a8f3af72ae997,,,,,,,decisionTrl,resources/DY.BMP,resources/DBN.BMP,Door2,-0.355435653,0.079208689,1,0,0,3.9835,optionLeft,40,14255,7,3,0,3,0,1,,,,,,,,,,,,,,,,,,,,,,,,,,,,,,,,,,,,,,,
,,,,,,,,2023-08-16_08h47.59.566,HF_wild_card,2022.2.4,MacIntel,60.0024001,604c5ff80862dbf0bfe4caac,64d2fd46c836a06233681665,64dc7f26584a8f3af72ae997,,,,,,,ctch,resources/DY.BMP,resources/DR.BMP,Door3,0.23939725,0.042824845,1,0,0,0.7583,optionRight,70,14325,7,4,0,4,0,1,,,,,,,,,,,,,,,,,,,,,,,,,,,,,,,,,,,,,,,
,,,,,,,,2023-08-16_08h47.59.566,HF_wild_card,2022.2.4,MacIntel,60.0024001,604c5ff80862dbf0bfe4caac,64d2fd46c836a06233681665,64dc7f26584a8f3af72ae997,,,,,,,ctch,resources/DG.BMP,resources/DBN.BMP,Door4,-0.193597035,0.002426305,1,0,0,0.9309,optionLeft,60,14385,7,5,0,5,0,1,,,,,,,,,,,,,,,,,,,,,,,,,,,,,,,,,,,,,,,
,,,,,,,,2023-08-16_08h47.59.566,HF_wild_card,2022.2.4,MacIntel,60.0024001,604c5ff80862dbf0bfe4caac,64d2fd46c836a06233681665,64dc7f26584a8f3af72ae997,,,,,,,decisionTrl,resources/DG.BMP,resources/DR.BMP,Door4,-0.218052815,0.016235163,1,0,0,1.5335,optionLeft,60,14445,7,6,0,6,0,1,,,,,,,,,,,,,,,,,,,,,,,,,,,,,,,,,,,,,,,
,,,,,,,,2023-08-16_08h47.59.566,HF_wild_card,2022.2.4,MacIntel,60.0024001,604c5ff80862dbf0bfe4caac,64d2fd46c836a06233681665,64dc7f26584a8f3af72ae997,,,,,,,decisionTrl,resources/DBN.BMP,resources/DY.BMP,Door1,-0.1727232,0.00937047,1,0,0,1.8649,optionLeft,30,14475,7,7,0,7,0,1,,,,,,,,,,,,,,,,,,,,,,,,,,,,,,,,,,,,,,,
,,,,,,,,2023-08-16_08h47.59.566,HF_wild_card,2022.2.4,MacIntel,60.0024001,604c5ff80862dbf0bfe4caac,64d2fd46c836a06233681665,64dc7f26584a8f3af72ae997,,,,,,,ctch,resources/DR.BMP,resources/DY.BMP,Door3,-0.213409613,0.030456983,1,0,0,0.8679,optionLeft,70,14545,7,8,0,8,0,1,,,,,,,,,,,,,,,,,,,,,,,,,,,,,,,,,,,,,,,
,,,,,,,,2023-08-16_08h47.59.566,HF_wild_card,2022.2.4,MacIntel,60.0024001,604c5ff80862dbf0bfe4caac,64d2fd46c836a06233681665,64dc7f26584a8f3af72ae997,,,,,,,decisionTrl,resources/DBN.BMP,resources/DY.BMP,Door2,0.260234904,0.038240036,1,0,0,2.4152,optionRight,40,14585,7,9,0,9,0,1,,,,,,,,,,,,,,,,,,,,,,,,,,,,,,,,,,,,,,,
,,,,,,,,2023-08-16_08h47.59.566,HF_wild_card,2022.2.4,MacIntel,60.0024001,604c5ff80862dbf0bfe4caac,64d2fd46c836a06233681665,64dc7f26584a8f3af72ae997,,,,,,,decisionTrl,resources/DY.BMP,resources/DBN.BMP,Door1,0.275216455,0.060344075,1,0,0,4.0499,optionRight,30,14615,7,10,0,10,0,1,,,,,,,,,,,,,,,,,,,,,,,,,,,,,,,,,,,,,,,
,,,,,,,,2023-08-16_08h47.59.566,HF_wild_card,2022.2.4,MacIntel,60.0024001,604c5ff80862dbf0bfe4caac,64d2fd46c836a06233681665,64dc7f26584a8f3af72ae997,,,,,,,ctch,resources/DBN.BMP,resources/DG.BMP,Door4,0.161220904,0.023780178,1,0,0,0.833,optionRight,60,14675,7,11,0,11,0,1,,,,,,,,,,,,,,,,,,,,,,,,,,,,,,,,,,,,,,,
,,,,,,,,2023-08-16_08h47.59.566,HF_wild_card,2022.2.4,MacIntel,60.0024001,604c5ff80862dbf0bfe4caac,64d2fd46c836a06233681665,64dc7f26584a8f3af72ae997,,,,,,,decisionTrl,resources/DBN.BMP,resources/DY.BMP,Door2,0.239366543,0.020786561,1,0,0,1.1165,optionRight,20,14695,7,12,0,12,0,1,,,,,,,,,,,,,,,,,,,,,,,,,,,,,,,,,,,,,,,
,,,,,,,,2023-08-16_08h47.59.566,HF_wild_card,2022.2.4,MacIntel,60.0024001,604c5ff80862dbf0bfe4caac,64d2fd46c836a06233681665,64dc7f26584a8f3af72ae997,,,,,,,ctch,resources/DY.BMP,resources/DR.BMP,Door3,0.246851467,0.068724642,1,0,0,1.4304,optionRight,70,14765,7,13,0,13,0,1,,,,,,,,,,,,,,,,,,,,,,,,,,,,,,,,,,,,,,,
,,,,,,,,2023-08-16_08h47.59.566,HF_wild_card,2022.2.4,MacIntel,60.0024001,604c5ff80862dbf0bfe4caac,64d2fd46c836a06233681665,64dc7f26584a8f3af72ae997,,,,,,,decisionTrl,resources/DR.BMP,resources/DG.BMP,Door3,-0.159079766,0.080981571,1,0,0,2.3977,optionLeft,70,14835,7,14,0,14,0,1,,,,,,,,,,,,,,,,,,,,,,,,,,,,,,,,,,,,,,,
,,,,,,,,2023-08-16_08h47.59.566,HF_wild_card,2022.2.4,MacIntel,60.0024001,604c5ff80862dbf0bfe4caac,64d2fd46c836a06233681665,64dc7f26584a8f3af72ae997,,,,,,,decisionTrl,resources/DR.BMP,resources/DG.BMP,Door4,0.211117711,0.04987384,1,0,0,0.8149,optionRight,60,14895,7,15,0,15,0,1,,,,,,,,,,,,,,,,,,,,,,,,,,,,,,,,,,,,,,,
,,,,,,,,2023-08-16_08h47.59.566,HF_wild_card,2022.2.4,MacIntel,60.0024001,604c5ff80862dbf0bfe4caac,64d2fd46c836a06233681665,64dc7f26584a8f3af72ae997,,,,,,,ctch,resources/DR.BMP,resources/DY.BMP,Door3,-0.211082411,0.020080063,1,0,0,0.6157,optionLeft,70,14965,7,16,0,16,0,1,,,,,,,,,,,,,,,,,,,,,,,,,,,,,,,,,,,,,,,
,,,,,,,,2023-08-16_08h47.59.566,HF_wild_card,2022.2.4,MacIntel,60.0024001,604c5ff80862dbf0bfe4caac,64d2fd46c836a06233681665,64dc7f26584a8f3af72ae997,,,,,,,decisionTrl,resources/DBN.BMP,resources/DY.BMP,Door2,0.195170294,0.012266997,1,0,0,0.834,optionRight,20,14985,7,17,0,17,0,1,,,,,,,,,,,,,,,,,,,,,,,,,,,,,,,,,,,,,,,
,,,,,,,,2023-08-16_08h47.59.566,HF_wild_card,2022.2.4,MacIntel,60.0024001,604c5ff80862dbf0bfe4caac,64d2fd46c836a06233681665,64dc7f26584a8f3af72ae997,,,,,,,ctch,resources/DG.BMP,resources/DBN.BMP,Door4,-0.169275154,-0.003315279,1,0,0,0.7155,optionLeft,60,15045,7,18,0,18,0,1,,,,,,,,,,,,,,,,,,,,,,,,,,,,,,,,,,,,,,,
,,,,,,,,2023-08-16_08h47.59.566,HF_wild_card,2022.2.4,MacIntel,60.0024001,604c5ff80862dbf0bfe4caac,64d2fd46c836a06233681665,64dc7f26584a8f3af72ae997,,,,,,,decisionTrl,resources/DR.BMP,resources/DG.BMP,Door3,-0.17306959,0.012946249,1,0,0,1.2659,optionLeft,70,15115,7,19,0,19,0,1,,,,,,,,,,,,,,,,,,,,,,,,,,,,,,,,,,,,,,,
,,,,,,,,2023-08-16_08h47.59.566,HF_wild_card,2022.2.4,MacIntel,60.0024001,604c5ff80862dbf0bfe4caac,64d2fd46c836a06233681665,64dc7f26584a8f3af72ae997,,,,,,,decisionTrl,resources/DY.BMP,resources/DBN.BMP,Door2,-0.204166058,-0.001228506,1,0,0,0.9827,optionLeft,20,15135,7,20,0,20,0,1,,,,,,,,,,,,,,,,,,,,,,,,,,,,,,,,,,,,,,,
,,,,,,,,2023-08-16_08h47.59.566,HF_wild_card,2022.2.4,MacIntel,60.0024001,604c5ff80862dbf0bfe4caac,64d2fd46c836a06233681665,64dc7f26584a8f3af72ae997,,,,,,,ctch,resources/DG.BMP,resources/DBN.BMP,Door4,-0.152542712,0.022796945,1,0,0,0.7997,optionLeft,80,15215,7,21,0,21,0,1,,,,,,,,,,,,,,,,,,,,,,,,,,,,,,,,,,,,,,,
,,,,,,,,2023-08-16_08h47.59.566,HF_wild_card,2022.2.4,MacIntel,60.0024001,604c5ff80862dbf0bfe4caac,64d2fd46c836a06233681665,64dc7f26584a8f3af72ae997,,,,,,,decisionTrl,resources/DY.BMP,resources/DBN.BMP,Door1,0.314907428,0.046104824,1,0,0,0.7482,optionRight,30,15245,7,22,0,22,0,1,,,,,,,,,,,,,,,,,,,,,,,,,,,,,,,,,,,,,,,
,,,,,,,,2023-08-16_08h47.59.566,HF_wild_card,2022.2.4,MacIntel,60.0024001,604c5ff80862dbf0bfe4caac,64d2fd46c836a06233681665,64dc7f26584a8f3af72ae997,,,,,,,ctch,resources/DBN.BMP,resources/DG.BMP,Door4,0.237231571,0.035334133,1,0,0,0.7683,optionRight,80,15325,7,23,0,23,0,1,,,,,,,,,,,,,,,,,,,,,,,,,,,,,,,,,,,,,,,
,,,,,,,,2023-08-16_08h47.59.566,HF_wild_card,2022.2.4,MacIntel,60.0024001,604c5ff80862dbf0bfe4caac,64d2fd46c836a06233681665,64dc7f26584a8f3af72ae997,,,,,,,decisionTrl,resources/DR.BMP,resources/DG.BMP,Door3,-0.169891232,0.010810018,1,0,0,0.8758,optionLeft,70,15395,7,24,0,24,0,1,,,,,,,,,,,,,,,,,,,,,,,,,,,,,,,,,,,,,,,
,,,,,,,,2023-08-16_08h47.59.566,HF_wild_card,2022.2.4,MacIntel,60.0024001,604c5ff80862dbf0bfe4caac,64d2fd46c836a06233681665,64dc7f26584a8f3af72ae997,,,,,,,ctch,resources/DY.BMP,resources/DR.BMP,Door3,0.31493524,0.052709332,1,0,0,1.8496,optionRight,70,15465,7,25,0,25,0,1,,,,,,,,,,,,,,,,,,,,,,,,,,,,,,,,,,,,,,,
,,,,,,,,2023-08-16_08h47.59.566,HF_wild_card,2022.2.4,MacIntel,60.0024001,604c5ff80862dbf0bfe4caac,64d2fd46c836a06233681665,64dc7f26584a8f3af72ae997,,,,,,,decisionTrl,resources/DG.BMP,resources/DR.BMP,Door4,-0.118614275,0.037882697,1,0,0,1.3822,optionLeft,60,15525,7,26,0,26,0,1,,,,,,,,,,,,,,,,,,,,,,,,,,,,,,,,,,,,,,,
,,,,,,,,2023-08-16_08h47.59.566,HF_wild_card,2022.2.4,MacIntel,60.0024001,604c5ff80862dbf0bfe4caac,64d2fd46c836a06233681665,64dc7f26584a8f3af72ae997,,,,,,,decisionTrl,resources/DBN.BMP,resources/DY.BMP,Door1,-0.150682965,0.045833501,1,0,0,6.7643,optionLeft,30,15555,7,27,0,27,0,1,,,,,,,,,,,,,,,,,,,,,,,,,,,,,,,,,,,,,,,
,,,,,,,,2023-08-16_08h47.59.566,HF_wild_card,2022.2.4,MacIntel,60.0024001,604c5ff80862dbf0bfe4caac,64d2fd46c836a06233681665,64dc7f26584a8f3af72ae997,,,,,,,decisionTrl,resources/DBN.BMP,resources/DY.BMP,Door2,0.231052045,0.057005326,1,0,0,0.7991,optionRight,40,15595,7,28,0,28,0,1,,,,,,,,,,,,,,,,,,,,,,,,,,,,,,,,,,,,,,,
,,,,,,,,2023-08-16_08h47.59.566,HF_wild_card,2022.2.4,MacIntel,60.0024001,604c5ff80862dbf0bfe4caac,64d2fd46c836a06233681665,64dc7f26584a8f3af72ae997,,,,,,,decisionTrl,resources/DG.BMP,resources/DR.BMP,Door3,0.259026659,0.063863853,1,0,0,1.5195,optionRight,70,15665,7,29,0,29,0,1,,,,,,,,,,,,,,,,,,,,,,,,,,,,,,,,,,,,,,,
,,,,,,,,2023-08-16_08h47.59.566,HF_wild_card,2022.2.4,MacIntel,60.0024001,604c5ff80862dbf0bfe4caac,64d2fd46c836a06233681665,64dc7f26584a8f3af72ae997,,,,,,,decisionTrl,resources/DG.BMP,resources/DR.BMP,Door3,0.203631277,0.093460681,1,0,0,0.8014,optionRight,70,15735,7,30,0,30,0,1,,,,,,,,,,,,,,,,,,,,,,,,,,,,,,,,,,,,,,,
,,,,,,,,2023-08-16_08h47.59.566,HF_wild_card,2022.2.4,MacIntel,60.0024001,604c5ff80862dbf0bfe4caac,64d2fd46c836a06233681665,64dc7f26584a8f3af72ae997,,,,,,,decisionTrl,resources/DY.BMP,resources/DBN.BMP,Door2,-0.178439488,0.059567921,1,0,0,1.4622,optionLeft,20,15755,7,31,0,31,0,1,,,,,,,,,,,,,,,,,,,,,,,,,,,,,,,,,,,,,,,
,,,,,,,,2023-08-16_08h47.59.566,HF_wild_card,2022.2.4,MacIntel,60.0024001,604c5ff80862dbf0bfe4caac,64d2fd46c836a06233681665,64dc7f26584a8f3af72ae997,,,,,,,decisionTrl,resources/DR.BMP,resources/DG.BMP,Door3,-0.154209286,0.064905603,1,0,0,2.1975,optionLeft,70,15825,7,32,0,32,0,1,,,,,,,,,,,,,,,,,,,,,,,,,,,,,,,,,,,,,,,
,,,,,,,,2023-08-16_08h47.59.566,HF_wild_card,2022.2.4,MacIntel,60.0024001,604c5ff80862dbf0bfe4caac,64d2fd46c836a06233681665,64dc7f26584a8f3af72ae997,,,,,,,decisionTrl,resources/DG.BMP,resources/DR.BMP,Door4,-0.207084986,0.092284716,1,0,0,1.0674,optionLeft,60,15885,7,33,0,33,0,1,,,,,,,,,,,,,,,,,,,,,,,,,,,,,,,,,,,,,,,
,,,,,,,,2023-08-16_08h47.59.566,HF_wild_card,2022.2.4,MacIntel,60.0024001,604c5ff80862dbf0bfe4caac,64d2fd46c836a06233681665,64dc7f26584a8f3af72ae997,,,,,,,decisionTrl,resources/DG.BMP,resources/DR.BMP,Door3,0.280328306,0.050321787,1,0,0,0.8972,optionRight,70,15955,7,34,0,34,0,1,,,,,,,,,,,,,,,,,,,,,,,,,,,,,,,,,,,,,,,
,,,,,,,,2023-08-16_08h47.59.566,HF_wild_card,2022.2.4,MacIntel,60.0024001,604c5ff80862dbf0bfe4caac,64d2fd46c836a06233681665,64dc7f26584a8f3af72ae997,,,,,,,ctch,resources/DR.BMP,resources/DY.BMP,Door3,-0.148996947,0.088453533,1,0,0,0.748,optionLeft,70,16025,7,35,0,35,0,1,,,,,,,,,,,,,,,,,,,,,,,,,,,,,,,,,,,,,,,
,,,,,,,,2023-08-16_08h47.59.566,HF_wild_card,2022.2.4,MacIntel,60.0024001,604c5ff80862dbf0bfe4caac,64d2fd46c836a06233681665,64dc7f26584a8f3af72ae997,,,,,,,,,,,,,,,,,,,,,,,,,,6,0,6,0,1,,,,,,,,,,,,,,,,,,,,,,,,,,,,,,,,,,
,,,,,,,,2023-08-16_08h47.59.566,HF_wild_card,2022.2.4,MacIntel,60.0024001,604c5ff80862dbf0bfe4caac,64d2fd46c836a06233681665,64dc7f26584a8f3af72ae997,,,,,,,,,,,,,,,,,,,,,,,,,,,,,,,4,,,,,,,,,,,,,,,,,,,,,,,,,,,,,,,,,
,,,,,,,,2023-08-16_08h47.59.566,HF_wild_card,2022.2.4,MacIntel,60.0024001,604c5ff80862dbf0bfe4caac,64d2fd46c836a06233681665,64dc7f26584a8f3af72ae997,,,,,,,,,,,,,,,,,,,,,,,,,,,,,,,,,,,,,,,,,,,,,,,,,,,,,,,,,,,,,,,,
,,,,,,,,2023-08-16_08h47.59.566,HF_wild_card,2022.2.4,MacIntel,60.0024001,604c5ff80862dbf0bfe4caac,64d2fd46c836a06233681665,64dc7f26584a8f3af72ae997,,,,,,,,,,,,,,,,,,,,,,,,,,,,,,,,60,Door4,resources/DG.BMP,0,0,0,0,1,,,,,,,,,,,,,,,,,,,,,,,,,
,,,,,,,,2023-08-16_08h47.59.566,HF_wild_card,2022.2.4,MacIntel,60.0024001,604c5ff80862dbf0bfe4caac,64d2fd46c836a06233681665,64dc7f26584a8f3af72ae997,,,,,,,,,,,,,,,,,,,,,,,,,,,,,,,,45,Door2,resources/DY.BMP,1,0,1,0,1,,,,,,,,,,,,,,,,,,,,,,,,,
,,,,,,,,2023-08-16_08h47.59.566,HF_wild_card,2022.2.4,MacIntel,60.0024001,604c5ff80862dbf0bfe4caac,64d2fd46c836a06233681665,64dc7f26584a8f3af72ae997,,,,,,,,,,,,,,,,,,,,,,,,,,,,,,,,70,Door3,resources/DR.BMP,2,0,2,0,1,,,,,,,,,,,,,,,,,,,,,,,,,
,,,,,,,,2023-08-16_08h47.59.566,HF_wild_card,2022.2.4,MacIntel,60.0024001,604c5ff80862dbf0bfe4caac,64d2fd46c836a06233681665,64dc7f26584a8f3af72ae997,,,,,,,,,,,,,,,,,,,,,,,,,,,,,,,,55,WC_nonExtreme,resources/DB.BMP,3,0,3,0,1,,,,,,,,,,,,,,,,,,,,,,,,,
