Condition,Low fixed image (Door1),Low risky image (Door2),High fixed image (Door3),High risky image (Door4),Extreme Wild Card,NonExtreme Wild Card,,date,expName,psychopyVersion,OS,frameRate,PROLIFIC_PID,STUDY_ID,SESSION_ID,mouse_2.x,mouse_2.y,mouse_2.leftButton,mouse_2.midButton,mouse_2.rightButton,mouse_2.clicked_name,Trial Type,Left Option Image,Right Option Image,Chosen Door,mouse.x,mouse.y,mouse.leftButton,mouse.midButton,mouse.rightButton,mouse.time,mouse.clicked_name,Feedback,Cumulative Reward,Block,trial.thisRepN,trial.thisTrialN,trial.thisN,trial.thisIndex,trial.ran,blocks.thisRepN,blocks.thisTrialN,blocks.thisN,blocks.thisIndex,blocks.ran,Money conversion,First Outcome Reported,Shown Door (First Outcome),Displayed Image (First Outcome),outcomes.thisRepN,outcomes.thisTrialN,outcomes.thisN,outcomes.thisIndex,outcomes.ran,judgments.thisRepN,judgments.thisTrialN,judgments.thisN,judgments.thisIndex,judgments.ran,freqMouse.x,freqMouse.y,freqMouse.leftButton,freqMouse.midButton,freqMouse.rightButton,freqMouse.clicked_name,FQJ for first outcome,FQJ for second outcome,Shown Door,Displayed Image,trials.thisRepN,trials.thisTrialN,trials.thisN,trials.thisIndex,trials.ran,judgBlock.thisRepN,judgBlock.thisTrialN,judgBlock.thisN,judgBlock.thisIndex,judgBlock.ran
0,resources/DBN.BMP,resources/DR.BMP,resources/DP.BMP,resources/DY.BMP,resources/DB.BMP,resources/DG.BMP,,2023-08-24_08h10.08.700,HF_wild_card,2022.2.4,Linux x86_64,60.03842459,5e54182318e10a414234535d,64e63663dbcaf322d2eec8da,64e7023ae3f4db086359aaf0,,,,,,,,,,,,,,,,,,,,,,,,,,,,,,,,,,,,,,,,,,,,,,,,,,,,,,,,,,,,,,,,
,,,,,,,,2023-08-24_08h10.08.700,HF_wild_card,2022.2.4,Linux x86_64,60.03842459,5e54182318e10a414234535d,64e63663dbcaf322d2eec8da,64e7023ae3f4db086359aaf0,-0.004077355,-0.427400351,1,0,0,agree,,,,,,,,,,,,,,,,,,,,,,,,,,,,,,,,,,,,,,,,,,,,,,,,,,,,,,,,,,
,,,,,,,,2023-08-24_08h10.08.700,HF_wild_card,2022.2.4,Linux x86_64,60.03842459,5e54182318e10a414234535d,64e63663dbcaf322d2eec8da,64e7023ae3f4db086359aaf0,,,,,,,,,,,,,,,,,,,,,,,,,,,,,,,,,,,,,,,,,,,,,,,,,,,,,,,,,,,,,,,,
,,,,,,,,2023-08-24_08h10.08.700,HF_wild_card,2022.2.4,Linux x86_64,60.03842459,5e54182318e10a414234535d,64e63663dbcaf322d2eec8da,64e7023ae3f4db086359aaf0,,,,,,,decisionTrl,resources/DP.BMP,resources/DY.BMP,Door4,0.414578994,-0.082466324,1,0,0,4.5653,optionRight,80,80,1,0,0,0,0,1,,,,,,,,,,,,,,,,,,,,,,,,,,,,,,,,,,,,,,,
,,,,,,,,2023-08-24_08h10.08.700,HF_wild_card,2022.2.4,Linux x86_64,60.03842459,5e54182318e10a414234535d,64e63663dbcaf322d2eec8da,64e7023ae3f4db086359aaf0,,,,,,,decisionTrl,resources/DBN.BMP,resources/DR.BMP,Door2,0.400129795,-0.053676844,1,0,0,5.6194,optionRight,40,120,1,1,0,1,0,1,,,,,,,,,,,,,,,,,,,,,,,,,,,,,,,,,,,,,,,
,,,,,,,,2023-08-24_08h10.08.700,HF_wild_card,2022.2.4,Linux x86_64,60.03842459,5e54182318e10a414234535d,64e63663dbcaf322d2eec8da,64e7023ae3f4db086359aaf0,,,,,,,sngl,resources/Empty.png,resources/DB.BMP,WildCard_Ex,0.342712005,-0.051366091,1,0,0,2.6903,optionRight,95,215,1,2,0,2,0,1,,,,,,,,,,,,,,,,,,,,,,,,,,,,,,,,,,,,,,,
,,,,,,,,2023-08-24_08h10.08.700,HF_wild_card,2022.2.4,Linux x86_64,60.03842459,5e54182318e10a414234535d,64e63663dbcaf322d2eec8da,64e7023ae3f4db086359aaf0,,,,,,,decisionTrl,resources/DY.BMP,resources/DP.BMP,Door4,-0.366703471,-0.071308176,1,0,0,2.6467,optionLeft,60,275,1,3,0,3,0,1,,,,,,,,,,,,,,,,,,,,,,,,,,,,,,,,,,,,,,,
,,,,,,,,2023-08-24_08h10.08.700,HF_wild_card,2022.2.4,Linux x86_64,60.03842459,5e54182318e10a414234535d,64e63663dbcaf322d2eec8da,64e7023ae3f4db086359aaf0,,,,,,,sngl,resources/DP.BMP,resources/Empty.png,Door3,-0.385635217,-0.045484662,1,0,0,2.0598,optionLeft,70,345,1,4,0,4,0,1,,,,,,,,,,,,,,,,,,,,,,,,,,,,,,,,,,,,,,,
,,,,,,,,2023-08-24_08h10.08.700,HF_wild_card,2022.2.4,Linux x86_64,60.03842459,5e54182318e10a414234535d,64e63663dbcaf322d2eec8da,64e7023ae3f4db086359aaf0,,,,,,,decisionTrl,resources/DB.BMP,resources/DBN.BMP,Door1,0.358914137,-0.064788659,1,0,0,2.3415,optionRight,30,375,1,5,0,5,0,1,,,,,,,,,,,,,,,,,,,,,,,,,,,,,,,,,,,,,,,
,,,,,,,,2023-08-24_08h10.08.700,HF_wild_card,2022.2.4,Linux x86_64,60.03842459,5e54182318e10a414234535d,64e63663dbcaf322d2eec8da,64e7023ae3f4db086359aaf0,,,,,,,sngl,resources/DY.BMP,resources/Empty.png,Door4,-0.387162526,-0.072136879,1,0,0,1.1767,optionLeft,80,455,1,6,0,6,0,1,,,,,,,,,,,,,,,,,,,,,,,,,,,,,,,,,,,,,,,
,,,,,,,,2023-08-24_08h10.08.700,HF_wild_card,2022.2.4,Linux x86_64,60.03842459,5e54182318e10a414234535d,64e63663dbcaf322d2eec8da,64e7023ae3f4db086359aaf0,,,,,,,sngl,resources/DBN.BMP,resources/Empty.png,Door1,-0.348845879,-0.073812962,1,0,0,1.4298,optionLeft,30,485,1,7,0,7,0,1,,,,,,,,,,,,,,,,,,,,,,,,,,,,,,,,,,,,,,,
,,,,,,,,2023-08-24_08h10.08.700,HF_wild_card,2022.2.4,Linux x86_64,60.03842459,5e54182318e10a414234535d,64e63663dbcaf322d2eec8da,64e7023ae3f4db086359aaf0,,,,,,,decisionTrl,resources/DB.BMP,resources/DY.BMP,WildCard_Ex,-0.360379219,-0.116669615,1,0,0,1.5408,optionLeft,5,490,1,8,0,8,0,1,,,,,,,,,,,,,,,,,,,,,,,,,,,,,,,,,,,,,,,
,,,,,,,,2023-08-24_08h10.08.700,HF_wild_card,2022.2.4,Linux x86_64,60.03842459,5e54182318e10a414234535d,64e63663dbcaf322d2eec8da,64e7023ae3f4db086359aaf0,,,,,,,sngl,resources/Empty.png,resources/DP.BMP,Door3,0.482157707,-0.052519401,1,0,0,1.3231,optionRight,70,560,1,9,0,9,0,1,,,,,,,,,,,,,,,,,,,,,,,,,,,,,,,,,,,,,,,
,,,,,,,,2023-08-24_08h10.08.700,HF_wild_card,2022.2.4,Linux x86_64,60.03842459,5e54182318e10a414234535d,64e63663dbcaf322d2eec8da,64e7023ae3f4db086359aaf0,,,,,,,decisionTrl,resources/DP.BMP,resources/DY.BMP,Door3,-0.306018551,-0.149344246,1,0,0,2.5925,optionLeft,70,630,1,10,0,10,0,1,,,,,,,,,,,,,,,,,,,,,,,,,,,,,,,,,,,,,,,
,,,,,,,,2023-08-24_08h10.08.700,HF_wild_card,2022.2.4,Linux x86_64,60.03842459,5e54182318e10a414234535d,64e63663dbcaf322d2eec8da,64e7023ae3f4db086359aaf0,,,,,,,decisionTrl,resources/DY.BMP,resources/DP.BMP,Door3,0.38782994,-0.098233342,1,0,0,2.0921,optionRight,70,700,1,11,0,11,0,1,,,,,,,,,,,,,,,,,,,,,,,,,,,,,,,,,,,,,,,
,,,,,,,,2023-08-24_08h10.08.700,HF_wild_card,2022.2.4,Linux x86_64,60.03842459,5e54182318e10a414234535d,64e63663dbcaf322d2eec8da,64e7023ae3f4db086359aaf0,,,,,,,decisionTrl,resources/DBN.BMP,resources/DB.BMP,Door1,-0.440428336,0.033118089,1,0,0,1.8838,optionLeft,30,730,1,12,0,12,0,1,,,,,,,,,,,,,,,,,,,,,,,,,,,,,,,,,,,,,,,
,,,,,,,,2023-08-24_08h10.08.700,HF_wild_card,2022.2.4,Linux x86_64,60.03842459,5e54182318e10a414234535d,64e63663dbcaf322d2eec8da,64e7023ae3f4db086359aaf0,,,,,,,decisionTrl,resources/DP.BMP,resources/DB.BMP,Door3,-0.356071075,-0.068849285,1,0,0,1.3204,optionLeft,70,800,1,13,0,13,0,1,,,,,,,,,,,,,,,,,,,,,,,,,,,,,,,,,,,,,,,
,,,,,,,,2023-08-24_08h10.08.700,HF_wild_card,2022.2.4,Linux x86_64,60.03842459,5e54182318e10a414234535d,64e63663dbcaf322d2eec8da,64e7023ae3f4db086359aaf0,,,,,,,decisionTrl,resources/DY.BMP,resources/DP.BMP,Door3,0.369850397,-0.062371492,1,0,0,1.8254,optionRight,70,870,1,14,0,14,0,1,,,,,,,,,,,,,,,,,,,,,,,,,,,,,,,,,,,,,,,
,,,,,,,,2023-08-24_08h10.08.700,HF_wild_card,2022.2.4,Linux x86_64,60.03842459,5e54182318e10a414234535d,64e63663dbcaf322d2eec8da,64e7023ae3f4db086359aaf0,,,,,,,decisionTrl,resources/DP.BMP,resources/DY.BMP,Door4,0.481692791,-0.106676857,1,0,0,1.0132,optionRight,80,950,1,15,0,15,0,1,,,,,,,,,,,,,,,,,,,,,,,,,,,,,,,,,,,,,,,
,,,,,,,,2023-08-24_08h10.08.700,HF_wild_card,2022.2.4,Linux x86_64,60.03842459,5e54182318e10a414234535d,64e63663dbcaf322d2eec8da,64e7023ae3f4db086359aaf0,,,,,,,sngl,resources/DR.BMP,resources/Empty.png,Door2,-0.397875309,-0.107091347,1,0,0,1.1597,optionLeft,40,990,1,16,0,16,0,1,,,,,,,,,,,,,,,,,,,,,,,,,,,,,,,,,,,,,,,
,,,,,,,,2023-08-24_08h10.08.700,HF_wild_card,2022.2.4,Linux x86_64,60.03842459,5e54182318e10a414234535d,64e63663dbcaf322d2eec8da,64e7023ae3f4db086359aaf0,,,,,,,decisionTrl,resources/DR.BMP,resources/DB.BMP,Door2,-0.283576727,-0.104492346,1,0,0,1.2636,optionLeft,40,1030,1,17,0,17,0,1,,,,,,,,,,,,,,,,,,,,,,,,,,,,,,,,,,,,,,,
,,,,,,,,2023-08-24_08h10.08.700,HF_wild_card,2022.2.4,Linux x86_64,60.03842459,5e54182318e10a414234535d,64e63663dbcaf322d2eec8da,64e7023ae3f4db086359aaf0,,,,,,,ctch,resources/DBN.BMP,resources/DY.BMP,Door4,0.45824496,-0.023112138,1,0,0,1.6838,optionRight,60,1090,1,18,0,18,0,1,,,,,,,,,,,,,,,,,,,,,,,,,,,,,,,,,,,,,,,
,,,,,,,,2023-08-24_08h10.08.700,HF_wild_card,2022.2.4,Linux x86_64,60.03842459,5e54182318e10a414234535d,64e63663dbcaf322d2eec8da,64e7023ae3f4db086359aaf0,,,,,,,decisionTrl,resources/DY.BMP,resources/DB.BMP,Door4,-0.39007628,-0.105177402,1,0,0,1.2561,optionLeft,60,1150,1,19,0,19,0,1,,,,,,,,,,,,,,,,,,,,,,,,,,,,,,,,,,,,,,,
,,,,,,,,2023-08-24_08h10.08.700,HF_wild_card,2022.2.4,Linux x86_64,60.03842459,5e54182318e10a414234535d,64e63663dbcaf322d2eec8da,64e7023ae3f4db086359aaf0,,,,,,,ctch,resources/DR.BMP,resources/DP.BMP,Door3,0.388212363,-0.084435185,1,0,0,2.8727,optionRight,70,1220,1,20,0,20,0,1,,,,,,,,,,,,,,,,,,,,,,,,,,,,,,,,,,,,,,,
,,,,,,,,2023-08-24_08h10.08.700,HF_wild_card,2022.2.4,Linux x86_64,60.03842459,5e54182318e10a414234535d,64e63663dbcaf322d2eec8da,64e7023ae3f4db086359aaf0,,,,,,,decisionTrl,resources/DY.BMP,resources/DP.BMP,Door3,0.403121074,-0.092615207,1,0,0,2.3259,optionRight,70,1290,1,21,0,21,0,1,,,,,,,,,,,,,,,,,,,,,,,,,,,,,,,,,,,,,,,
,,,,,,,,2023-08-24_08h10.08.700,HF_wild_card,2022.2.4,Linux x86_64,60.03842459,5e54182318e10a414234535d,64e63663dbcaf322d2eec8da,64e7023ae3f4db086359aaf0,,,,,,,decisionTrl,resources/DB.BMP,resources/DR.BMP,Door2,0.428521792,-0.066209475,1,0,0,1.2093,optionRight,40,1330,1,22,0,22,0,1,,,,,,,,,,,,,,,,,,,,,,,,,,,,,,,,,,,,,,,
,,,,,,,,2023-08-24_08h10.08.700,HF_wild_card,2022.2.4,Linux x86_64,60.03842459,5e54182318e10a414234535d,64e63663dbcaf322d2eec8da,64e7023ae3f4db086359aaf0,,,,,,,ctch,resources/DR.BMP,resources/DP.BMP,Door3,0.381949266,-0.08316044,1,0,0,1.6274,optionRight,70,1400,1,23,0,23,0,1,,,,,,,,,,,,,,,,,,,,,,,,,,,,,,,,,,,,,,,
,,,,,,,,2023-08-24_08h10.08.700,HF_wild_card,2022.2.4,Linux x86_64,60.03842459,5e54182318e10a414234535d,64e63663dbcaf322d2eec8da,64e7023ae3f4db086359aaf0,,,,,,,decisionTrl,resources/DR.BMP,resources/DBN.BMP,Door2,-0.376246452,-0.146588723,1,0,0,2.7581,optionLeft,40,1440,1,24,0,24,0,1,,,,,,,,,,,,,,,,,,,,,,,,,,,,,,,,,,,,,,,
,,,,,,,,2023-08-24_08h10.08.700,HF_wild_card,2022.2.4,Linux x86_64,60.03842459,5e54182318e10a414234535d,64e63663dbcaf322d2eec8da,64e7023ae3f4db086359aaf0,,,,,,,decisionTrl,resources/DR.BMP,resources/DBN.BMP,Door1,0.387464444,-0.01961561,1,0,0,2.087,optionRight,30,1470,1,25,0,25,0,1,,,,,,,,,,,,,,,,,,,,,,,,,,,,,,,,,,,,,,,
,,,,,,,,2023-08-24_08h10.08.700,HF_wild_card,2022.2.4,Linux x86_64,60.03842459,5e54182318e10a414234535d,64e63663dbcaf322d2eec8da,64e7023ae3f4db086359aaf0,,,,,,,sngl,resources/DB.BMP,resources/Empty.png,WildCard_Ex,-0.336852431,-0.036706765,1,0,0,1.3139,optionLeft,5,1475,1,26,0,26,0,1,,,,,,,,,,,,,,,,,,,,,,,,,,,,,,,,,,,,,,,
,,,,,,,,2023-08-24_08h10.08.700,HF_wild_card,2022.2.4,Linux x86_64,60.03842459,5e54182318e10a414234535d,64e63663dbcaf322d2eec8da,64e7023ae3f4db086359aaf0,,,,,,,ctch,resources/DY.BMP,resources/DBN.BMP,Door4,-0.324578881,-0.024346471,1,0,0,1.0932,optionLeft,60,1535,1,27,0,27,0,1,,,,,,,,,,,,,,,,,,,,,,,,,,,,,,,,,,,,,,,
,,,,,,,,2023-08-24_08h10.08.700,HF_wild_card,2022.2.4,Linux x86_64,60.03842459,5e54182318e10a414234535d,64e63663dbcaf322d2eec8da,64e7023ae3f4db086359aaf0,,,,,,,ctch,resources/DBN.BMP,resources/DY.BMP,Door4,0.423595428,-0.092746894,1,0,0,1.5722,optionRight,80,1615,1,28,0,28,0,1,,,,,,,,,,,,,,,,,,,,,,,,,,,,,,,,,,,,,,,
,,,,,,,,2023-08-24_08h10.08.700,HF_wild_card,2022.2.4,Linux x86_64,60.03842459,5e54182318e10a414234535d,64e63663dbcaf322d2eec8da,64e7023ae3f4db086359aaf0,,,,,,,decisionTrl,resources/DBN.BMP,resources/DR.BMP,Door2,0.347403049,-0.081388354,1,0,0,1.581,optionRight,40,1655,1,29,0,29,0,1,,,,,,,,,,,,,,,,,,,,,,,,,,,,,,,,,,,,,,,
,,,,,,,,2023-08-24_08h10.08.700,HF_wild_card,2022.2.4,Linux x86_64,60.03842459,5e54182318e10a414234535d,64e63663dbcaf322d2eec8da,64e7023ae3f4db086359aaf0,,,,,,,sngl,resources/Empty.png,resources/DR.BMP,Door2,0.321252743,-0.060827136,1,0,0,1.0566,optionRight,20,1675,1,30,0,30,0,1,,,,,,,,,,,,,,,,,,,,,,,,,,,,,,,,,,,,,,,
,,,,,,,,2023-08-24_08h10.08.700,HF_wild_card,2022.2.4,Linux x86_64,60.03842459,5e54182318e10a414234535d,64e63663dbcaf322d2eec8da,64e7023ae3f4db086359aaf0,,,,,,,ctch,resources/DY.BMP,resources/DBN.BMP,Door4,-0.264296492,-0.095524271,1,0,0,1.2088,optionLeft,60,1735,1,31,0,31,0,1,,,,,,,,,,,,,,,,,,,,,,,,,,,,,,,,,,,,,,,
,,,,,,,,2023-08-24_08h10.08.700,HF_wild_card,2022.2.4,Linux x86_64,60.03842459,5e54182318e10a414234535d,64e63663dbcaf322d2eec8da,64e7023ae3f4db086359aaf0,,,,,,,ctch,resources/DP.BMP,resources/DR.BMP,Door3,-0.578144709,-0.10549291,1,0,0,1.5706,optionLeft,70,1805,1,32,0,32,0,1,,,,,,,,,,,,,,,,,,,,,,,,,,,,,,,,,,,,,,,
,,,,,,,,2023-08-24_08h10.08.700,HF_wild_card,2022.2.4,Linux x86_64,60.03842459,5e54182318e10a414234535d,64e63663dbcaf322d2eec8da,64e7023ae3f4db086359aaf0,,,,,,,decisionTrl,resources/DBN.BMP,resources/DR.BMP,Door2,0.369594256,-0.032634616,1,0,0,1.7032,optionRight,40,1845,1,33,0,33,0,1,,,,,,,,,,,,,,,,,,,,,,,,,,,,,,,,,,,,,,,
,,,,,,,,2023-08-24_08h10.08.700,HF_wild_card,2022.2.4,Linux x86_64,60.03842459,5e54182318e10a414234535d,64e63663dbcaf322d2eec8da,64e7023ae3f4db086359aaf0,,,,,,,sngl,resources/Empty.png,resources/DBN.BMP,Door1,0.36485966,-0.124801755,1,0,0,1.0719,optionRight,30,1875,1,34,0,34,0,1,,,,,,,,,,,,,,,,,,,,,,,,,,,,,,,,,,,,,,,
,,,,,,,,2023-08-24_08h10.08.700,HF_wild_card,2022.2.4,Linux x86_64,60.03842459,5e54182318e10a414234535d,64e63663dbcaf322d2eec8da,64e7023ae3f4db086359aaf0,,,,,,,decisionTrl,resources/DBN.BMP,resources/DR.BMP,Door2,0.396948814,-0.09021008,1,0,0,1.004,optionRight,40,1915,1,35,0,35,0,1,,,,,,,,,,,,,,,,,,,,,,,,,,,,,,,,,,,,,,,
,,,,,,,,2023-08-24_08h10.08.700,HF_wild_card,2022.2.4,Linux x86_64,60.03842459,5e54182318e10a414234535d,64e63663dbcaf322d2eec8da,64e7023ae3f4db086359aaf0,,,,,,,sngl,resources/DB.BMP,resources/Empty.png,WildCard_Ex,-0.359348536,-0.178103367,1,0,0,1.1592,optionLeft,95,2010,1,36,0,36,0,1,,,,,,,,,,,,,,,,,,,,,,,,,,,,,,,,,,,,,,,
,,,,,,,,2023-08-24_08h10.08.700,HF_wild_card,2022.2.4,Linux x86_64,60.03842459,5e54182318e10a414234535d,64e63663dbcaf322d2eec8da,64e7023ae3f4db086359aaf0,,,,,,,decisionTrl,resources/DP.BMP,resources/DY.BMP,Door3,-0.310338179,-0.028289318,1,0,0,2.608,optionLeft,70,2080,1,37,0,37,0,1,,,,,,,,,,,,,,,,,,,,,,,,,,,,,,,,,,,,,,,
,,,,,,,,2023-08-24_08h10.08.700,HF_wild_card,2022.2.4,Linux x86_64,60.03842459,5e54182318e10a414234535d,64e63663dbcaf322d2eec8da,64e7023ae3f4db086359aaf0,,,,,,,decisionTrl,resources/DB.BMP,resources/DP.BMP,WildCard_Ex,-0.306698243,-0.085606058,1,0,0,1.4043,optionLeft,95,2175,1,38,0,38,0,1,,,,,,,,,,,,,,,,,,,,,,,,,,,,,,,,,,,,,,,
,,,,,,,,2023-08-24_08h10.08.700,HF_wild_card,2022.2.4,Linux x86_64,60.03842459,5e54182318e10a414234535d,64e63663dbcaf322d2eec8da,64e7023ae3f4db086359aaf0,,,,,,,ctch,resources/DP.BMP,resources/DR.BMP,Door3,-0.431020419,-0.160699805,1,0,0,1.4324,optionLeft,70,2245,1,39,0,39,0,1,,,,,,,,,,,,,,,,,,,,,,,,,,,,,,,,,,,,,,,
,,,,,,,,2023-08-24_08h10.08.700,HF_wild_card,2022.2.4,Linux x86_64,60.03842459,5e54182318e10a414234535d,64e63663dbcaf322d2eec8da,64e7023ae3f4db086359aaf0,,,,,,,decisionTrl,resources/DR.BMP,resources/DBN.BMP,Door1,0.463059266,-0.063969294,1,0,0,1.5245,optionRight,30,2275,1,40,0,40,0,1,,,,,,,,,,,,,,,,,,,,,,,,,,,,,,,,,,,,,,,
,,,,,,,,2023-08-24_08h10.08.700,HF_wild_card,2022.2.4,Linux x86_64,60.03842459,5e54182318e10a414234535d,64e63663dbcaf322d2eec8da,64e7023ae3f4db086359aaf0,,,,,,,sngl,resources/Empty.png,resources/DY.BMP,Door4,0.314398448,-0.154303074,1,0,0,0.8941,optionRight,60,2335,1,41,0,41,0,1,,,,,,,,,,,,,,,,,,,,,,,,,,,,,,,,,,,,,,,
,,,,,,,,2023-08-24_08h10.08.700,HF_wild_card,2022.2.4,Linux x86_64,60.03842459,5e54182318e10a414234535d,64e63663dbcaf322d2eec8da,64e7023ae3f4db086359aaf0,,,,,,,decisionTrl,resources/DR.BMP,resources/DBN.BMP,Door1,0.335529804,-0.063101212,1,0,0,1.7469,optionRight,30,2365,1,42,0,42,0,1,,,,,,,,,,,,,,,,,,,,,,,,,,,,,,,,,,,,,,,
,,,,,,,,2023-08-24_08h10.08.700,HF_wild_card,2022.2.4,Linux x86_64,60.03842459,5e54182318e10a414234535d,64e63663dbcaf322d2eec8da,64e7023ae3f4db086359aaf0,,,,,,,sngl,resources/Empty.png,resources/DB.BMP,WildCard_Ex,0.425815264,-0.095330715,1,0,0,0.8276,optionRight,5,2370,1,43,0,43,0,1,,,,,,,,,,,,,,,,,,,,,,,,,,,,,,,,,,,,,,,
,,,,,,,,2023-08-24_08h10.08.700,HF_wild_card,2022.2.4,Linux x86_64,60.03842459,5e54182318e10a414234535d,64e63663dbcaf322d2eec8da,64e7023ae3f4db086359aaf0,,,,,,,,,,,,,,,,,,,,,,,,,,0,0,0,0,1,,,,,,,,,,,,,,,,,,,,,,,,,,,,,,,,,,
,,,,,,,,2023-08-24_08h10.08.700,HF_wild_card,2022.2.4,Linux x86_64,60.03842459,5e54182318e10a414234535d,64e63663dbcaf322d2eec8da,64e7023ae3f4db086359aaf0,,,,,,,sngl,resources/Empty.png,resources/DY.BMP,Door4,0.418749332,-0.061626871,1,0,0,3.0556,optionRight,80,2450,2,0,0,0,0,1,,,,,,,,,,,,,,,,,,,,,,,,,,,,,,,,,,,,,,,
,,,,,,,,2023-08-24_08h10.08.700,HF_wild_card,2022.2.4,Linux x86_64,60.03842459,5e54182318e10a414234535d,64e63663dbcaf322d2eec8da,64e7023ae3f4db086359aaf0,,,,,,,ctch,resources/DY.BMP,resources/DBN.BMP,Door4,-0.354462186,-0.060168107,1,0,0,1.214,optionLeft,80,2530,2,1,0,1,0,1,,,,,,,,,,,,,,,,,,,,,,,,,,,,,,,,,,,,,,,
,,,,,,,,2023-08-24_08h10.08.700,HF_wild_card,2022.2.4,Linux x86_64,60.03842459,5e54182318e10a414234535d,64e63663dbcaf322d2eec8da,64e7023ae3f4db086359aaf0,,,,,,,decisionTrl,resources/DR.BMP,resources/DBN.BMP,Door2,-0.297623674,-0.098403613,1,0,0,1.1767,optionLeft,40,2570,2,2,0,2,0,1,,,,,,,,,,,,,,,,,,,,,,,,,,,,,,,,,,,,,,,
,,,,,,,,2023-08-24_08h10.08.700,HF_wild_card,2022.2.4,Linux x86_64,60.03842459,5e54182318e10a414234535d,64e63663dbcaf322d2eec8da,64e7023ae3f4db086359aaf0,,,,,,,decisionTrl,resources/DBN.BMP,resources/DR.BMP,Door2,0.427236478,-0.062482278,1,0,0,1.0762,optionRight,20,2590,2,3,0,3,0,1,,,,,,,,,,,,,,,,,,,,,,,,,,,,,,,,,,,,,,,
,,,,,,,,2023-08-24_08h10.08.700,HF_wild_card,2022.2.4,Linux x86_64,60.03842459,5e54182318e10a414234535d,64e63663dbcaf322d2eec8da,64e7023ae3f4db086359aaf0,,,,,,,decisionTrl,resources/DR.BMP,resources/DBN.BMP,Door1,0.292141676,-0.055816253,1,0,0,1.0396,optionRight,30,2620,2,4,0,4,0,1,,,,,,,,,,,,,,,,,,,,,,,,,,,,,,,,,,,,,,,
,,,,,,,,2023-08-24_08h10.08.700,HF_wild_card,2022.2.4,Linux x86_64,60.03842459,5e54182318e10a414234535d,64e63663dbcaf322d2eec8da,64e7023ae3f4db086359aaf0,,,,,,,sngl,resources/Empty.png,resources/DB.BMP,WildCard_Ex,0.290010611,-0.072036306,1,0,0,0.995,optionRight,5,2625,2,5,0,5,0,1,,,,,,,,,,,,,,,,,,,,,,,,,,,,,,,,,,,,,,,
,,,,,,,,2023-08-24_08h10.08.700,HF_wild_card,2022.2.4,Linux x86_64,60.03842459,5e54182318e10a414234535d,64e63663dbcaf322d2eec8da,64e7023ae3f4db086359aaf0,,,,,,,decisionTrl,resources/DBN.BMP,resources/DB.BMP,Door1,-0.337147077,-0.177475452,1,0,0,1.5472,optionLeft,30,2655,2,6,0,6,0,1,,,,,,,,,,,,,,,,,,,,,,,,,,,,,,,,,,,,,,,
,,,,,,,,2023-08-24_08h10.08.700,HF_wild_card,2022.2.4,Linux x86_64,60.03842459,5e54182318e10a414234535d,64e63663dbcaf322d2eec8da,64e7023ae3f4db086359aaf0,,,,,,,decisionTrl,resources/DY.BMP,resources/DP.BMP,Door4,-0.36582005,-0.070203384,1,0,0,1.1433,optionLeft,80,2735,2,7,0,7,0,1,,,,,,,,,,,,,,,,,,,,,,,,,,,,,,,,,,,,,,,
,,,,,,,,2023-08-24_08h10.08.700,HF_wild_card,2022.2.4,Linux x86_64,60.03842459,5e54182318e10a414234535d,64e63663dbcaf322d2eec8da,64e7023ae3f4db086359aaf0,,,,,,,decisionTrl,resources/DY.BMP,resources/DB.BMP,Door4,-0.381958604,-0.095939875,1,0,0,0.8786,optionLeft,60,2795,2,8,0,8,0,1,,,,,,,,,,,,,,,,,,,,,,,,,,,,,,,,,,,,,,,
,,,,,,,,2023-08-24_08h10.08.700,HF_wild_card,2022.2.4,Linux x86_64,60.03842459,5e54182318e10a414234535d,64e63663dbcaf322d2eec8da,64e7023ae3f4db086359aaf0,,,,,,,decisionTrl,resources/DP.BMP,resources/DY.BMP,Door4,0.474719048,-0.11210831,1,0,0,0.7761,optionRight,60,2855,2,9,0,9,0,1,,,,,,,,,,,,,,,,,,,,,,,,,,,,,,,,,,,,,,,
,,,,,,,,2023-08-24_08h10.08.700,HF_wild_card,2022.2.4,Linux x86_64,60.03842459,5e54182318e10a414234535d,64e63663dbcaf322d2eec8da,64e7023ae3f4db086359aaf0,,,,,,,decisionTrl,resources/DBN.BMP,resources/DR.BMP,Door2,0.424031814,-0.008824309,1,0,0,2.0932,optionRight,40,2895,2,10,0,10,0,1,,,,,,,,,,,,,,,,,,,,,,,,,,,,,,,,,,,,,,,
,,,,,,,,2023-08-24_08h10.08.700,HF_wild_card,2022.2.4,Linux x86_64,60.03842459,5e54182318e10a414234535d,64e63663dbcaf322d2eec8da,64e7023ae3f4db086359aaf0,,,,,,,sngl,resources/DB.BMP,resources/Empty.png,WildCard_Ex,-0.490659912,-0.155232668,1,0,0,0.8258,optionLeft,5,2900,2,11,0,11,0,1,,,,,,,,,,,,,,,,,,,,,,,,,,,,,,,,,,,,,,,
,,,,,,,,2023-08-24_08h10.08.700,HF_wild_card,2022.2.4,Linux x86_64,60.03842459,5e54182318e10a414234535d,64e63663dbcaf322d2eec8da,64e7023ae3f4db086359aaf0,,,,,,,decisionTrl,resources/DP.BMP,resources/DY.BMP,Door4,0.408346653,-0.068729877,1,0,0,1.1912,optionRight,60,2960,2,12,0,12,0,1,,,,,,,,,,,,,,,,,,,,,,,,,,,,,,,,,,,,,,,
,,,,,,,,2023-08-24_08h10.08.700,HF_wild_card,2022.2.4,Linux x86_64,60.03842459,5e54182318e10a414234535d,64e63663dbcaf322d2eec8da,64e7023ae3f4db086359aaf0,,,,,,,sngl,resources/DP.BMP,resources/Empty.png,Door3,-0.345258236,-0.117622733,1,0,0,1.0428,optionLeft,70,3030,2,13,0,13,0,1,,,,,,,,,,,,,,,,,,,,,,,,,,,,,,,,,,,,,,,
,,,,,,,,2023-08-24_08h10.08.700,HF_wild_card,2022.2.4,Linux x86_64,60.03842459,5e54182318e10a414234535d,64e63663dbcaf322d2eec8da,64e7023ae3f4db086359aaf0,,,,,,,sngl,resources/DBN.BMP,resources/Empty.png,Door1,-0.293634534,-0.082355221,1,0,0,0.8439,optionLeft,30,3060,2,14,0,14,0,1,,,,,,,,,,,,,,,,,,,,,,,,,,,,,,,,,,,,,,,
,,,,,,,,2023-08-24_08h10.08.700,HF_wild_card,2022.2.4,Linux x86_64,60.03842459,5e54182318e10a414234535d,64e63663dbcaf322d2eec8da,64e7023ae3f4db086359aaf0,,,,,,,decisionTrl,resources/DBN.BMP,resources/DR.BMP,Door1,-0.342888792,-0.136520545,1,0,0,1.1846,optionLeft,30,3090,2,15,0,15,0,1,,,,,,,,,,,,,,,,,,,,,,,,,,,,,,,,,,,,,,,
,,,,,,,,2023-08-24_08h10.08.700,HF_wild_card,2022.2.4,Linux x86_64,60.03842459,5e54182318e10a414234535d,64e63663dbcaf322d2eec8da,64e7023ae3f4db086359aaf0,,,,,,,decisionTrl,resources/DY.BMP,resources/DP.BMP,Door4,-0.324028333,-0.154946367,1,0,0,1.0912,optionLeft,60,3150,2,16,0,16,0,1,,,,,,,,,,,,,,,,,,,,,,,,,,,,,,,,,,,,,,,
,,,,,,,,2023-08-24_08h10.08.700,HF_wild_card,2022.2.4,Linux x86_64,60.03842459,5e54182318e10a414234535d,64e63663dbcaf322d2eec8da,64e7023ae3f4db086359aaf0,,,,,,,decisionTrl,resources/DR.BMP,resources/DB.BMP,Door2,-0.315351884,-0.020172993,1,0,0,2.7557,optionLeft,20,3170,2,17,0,17,0,1,,,,,,,,,,,,,,,,,,,,,,,,,,,,,,,,,,,,,,,
,,,,,,,,2023-08-24_08h10.08.700,HF_wild_card,2022.2.4,Linux x86_64,60.03842459,5e54182318e10a414234535d,64e63663dbcaf322d2eec8da,64e7023ae3f4db086359aaf0,,,,,,,sngl,resources/DB.BMP,resources/Empty.png,WildCard_Ex,-0.28426826,-0.040097674,1,0,0,1.0611,optionLeft,95,3265,2,18,0,18,0,1,,,,,,,,,,,,,,,,,,,,,,,,,,,,,,,,,,,,,,,
,,,,,,,,2023-08-24_08h10.08.700,HF_wild_card,2022.2.4,Linux x86_64,60.03842459,5e54182318e10a414234535d,64e63663dbcaf322d2eec8da,64e7023ae3f4db086359aaf0,,,,,,,sngl,resources/Empty.png,resources/DR.BMP,Door2,0.300305843,-0.042917331,1,0,0,0.9089,optionRight,40,3305,2,19,0,19,0,1,,,,,,,,,,,,,,,,,,,,,,,,,,,,,,,,,,,,,,,
,,,,,,,,2023-08-24_08h10.08.700,HF_wild_card,2022.2.4,Linux x86_64,60.03842459,5e54182318e10a414234535d,64e63663dbcaf322d2eec8da,64e7023ae3f4db086359aaf0,,,,,,,decisionTrl,resources/DR.BMP,resources/DBN.BMP,Door1,0.403467814,-0.083671212,1,0,0,1.6571,optionRight,30,3335,2,20,0,20,0,1,,,,,,,,,,,,,,,,,,,,,,,,,,,,,,,,,,,,,,,
,,,,,,,,2023-08-24_08h10.08.700,HF_wild_card,2022.2.4,Linux x86_64,60.03842459,5e54182318e10a414234535d,64e63663dbcaf322d2eec8da,64e7023ae3f4db086359aaf0,,,,,,,decisionTrl,resources/DP.BMP,resources/DB.BMP,WildCard_Ex,0.3542672,-0.047699491,1,0,0,1.0267,optionRight,95,3430,2,21,0,21,0,1,,,,,,,,,,,,,,,,,,,,,,,,,,,,,,,,,,,,,,,
,,,,,,,,2023-08-24_08h10.08.700,HF_wild_card,2022.2.4,Linux x86_64,60.03842459,5e54182318e10a414234535d,64e63663dbcaf322d2eec8da,64e7023ae3f4db086359aaf0,,,,,,,decisionTrl,resources/DR.BMP,resources/DBN.BMP,Door2,-0.313360651,-0.118395845,1,0,0,2.5409,optionLeft,40,3470,2,22,0,22,0,1,,,,,,,,,,,,,,,,,,,,,,,,,,,,,,,,,,,,,,,
,,,,,,,,2023-08-24_08h10.08.700,HF_wild_card,2022.2.4,Linux x86_64,60.03842459,5e54182318e10a414234535d,64e63663dbcaf322d2eec8da,64e7023ae3f4db086359aaf0,,,,,,,sngl,resources/Empty.png,resources/DB.BMP,WildCard_Ex,0.250503461,-0.074263016,1,0,0,0.7945,optionRight,95,3565,2,23,0,23,0,1,,,,,,,,,,,,,,,,,,,,,,,,,,,,,,,,,,,,,,,
,,,,,,,,2023-08-24_08h10.08.700,HF_wild_card,2022.2.4,Linux x86_64,60.03842459,5e54182318e10a414234535d,64e63663dbcaf322d2eec8da,64e7023ae3f4db086359aaf0,,,,,,,decisionTrl,resources/DB.BMP,resources/DY.BMP,Door4,0.260214488,-0.07023716,1,0,0,1.2586,optionRight,60,3625,2,24,0,24,0,1,,,,,,,,,,,,,,,,,,,,,,,,,,,,,,,,,,,,,,,
,,,,,,,,2023-08-24_08h10.08.700,HF_wild_card,2022.2.4,Linux x86_64,60.03842459,5e54182318e10a414234535d,64e63663dbcaf322d2eec8da,64e7023ae3f4db086359aaf0,,,,,,,sngl,resources/Empty.png,resources/DBN.BMP,Door1,0.359792074,-0.088674466,1,0,0,0.8597,optionRight,30,3655,2,25,0,25,0,1,,,,,,,,,,,,,,,,,,,,,,,,,,,,,,,,,,,,,,,
,,,,,,,,2023-08-24_08h10.08.700,HF_wild_card,2022.2.4,Linux x86_64,60.03842459,5e54182318e10a414234535d,64e63663dbcaf322d2eec8da,64e7023ae3f4db086359aaf0,,,,,,,ctch,resources/DR.BMP,resources/DP.BMP,Door3,0.456823031,-0.074124217,1,0,0,2.3572,optionRight,70,3725,2,26,0,26,0,1,,,,,,,,,,,,,,,,,,,,,,,,,,,,,,,,,,,,,,,
,,,,,,,,2023-08-24_08h10.08.700,HF_wild_card,2022.2.4,Linux x86_64,60.03842459,5e54182318e10a414234535d,64e63663dbcaf322d2eec8da,64e7023ae3f4db086359aaf0,,,,,,,ctch,resources/DBN.BMP,resources/DY.BMP,Door4,0.452853203,-0.105776191,1,0,0,0.927,optionRight,80,3805,2,27,0,27,0,1,,,,,,,,,,,,,,,,,,,,,,,,,,,,,,,,,,,,,,,
,,,,,,,,2023-08-24_08h10.08.700,HF_wild_card,2022.2.4,Linux x86_64,60.03842459,5e54182318e10a414234535d,64e63663dbcaf322d2eec8da,64e7023ae3f4db086359aaf0,,,,,,,decisionTrl,resources/DP.BMP,resources/DY.BMP,Door4,0.481911977,-0.119027774,1,0,0,0.7909,optionRight,60,3865,2,28,0,28,0,1,,,,,,,,,,,,,,,,,,,,,,,,,,,,,,,,,,,,,,,
,,,,,,,,2023-08-24_08h10.08.700,HF_wild_card,2022.2.4,Linux x86_64,60.03842459,5e54182318e10a414234535d,64e63663dbcaf322d2eec8da,64e7023ae3f4db086359aaf0,,,,,,,sngl,resources/DY.BMP,resources/Empty.png,Door4,-0.295231462,-0.078092376,1,0,0,0.9597,optionLeft,60,3925,2,29,0,29,0,1,,,,,,,,,,,,,,,,,,,,,,,,,,,,,,,,,,,,,,,
,,,,,,,,2023-08-24_08h10.08.700,HF_wild_card,2022.2.4,Linux x86_64,60.03842459,5e54182318e10a414234535d,64e63663dbcaf322d2eec8da,64e7023ae3f4db086359aaf0,,,,,,,ctch,resources/DY.BMP,resources/DBN.BMP,Door4,-0.330482006,-0.133146524,1,0,0,1.0257,optionLeft,60,3985,2,30,0,30,0,1,,,,,,,,,,,,,,,,,,,,,,,,,,,,,,,,,,,,,,,
,,,,,,,,2023-08-24_08h10.08.700,HF_wild_card,2022.2.4,Linux x86_64,60.03842459,5e54182318e10a414234535d,64e63663dbcaf322d2eec8da,64e7023ae3f4db086359aaf0,,,,,,,decisionTrl,resources/DP.BMP,resources/DY.BMP,Door4,0.360224406,-0.128795067,1,0,0,0.8217,optionRight,80,4065,2,31,0,31,0,1,,,,,,,,,,,,,,,,,,,,,,,,,,,,,,,,,,,,,,,
,,,,,,,,2023-08-24_08h10.08.700,HF_wild_card,2022.2.4,Linux x86_64,60.03842459,5e54182318e10a414234535d,64e63663dbcaf322d2eec8da,64e7023ae3f4db086359aaf0,,,,,,,decisionTrl,resources/DBN.BMP,resources/DR.BMP,Door1,-0.348404408,-0.083165566,1,0,0,1.7085,optionLeft,30,4095,2,32,0,32,0,1,,,,,,,,,,,,,,,,,,,,,,,,,,,,,,,,,,,,,,,
,,,,,,,,2023-08-24_08h10.08.700,HF_wild_card,2022.2.4,Linux x86_64,60.03842459,5e54182318e10a414234535d,64e63663dbcaf322d2eec8da,64e7023ae3f4db086359aaf0,,,,,,,ctch,resources/DP.BMP,resources/DR.BMP,Door3,-0.39345026,-0.106109858,1,0,0,1.6148,optionLeft,70,4165,2,33,0,33,0,1,,,,,,,,,,,,,,,,,,,,,,,,,,,,,,,,,,,,,,,
,,,,,,,,2023-08-24_08h10.08.700,HF_wild_card,2022.2.4,Linux x86_64,60.03842459,5e54182318e10a414234535d,64e63663dbcaf322d2eec8da,64e7023ae3f4db086359aaf0,,,,,,,decisionTrl,resources/DB.BMP,resources/DP.BMP,Door3,0.282641331,-0.072626313,1,0,0,0.8425,optionRight,70,4235,2,34,0,34,0,1,,,,,,,,,,,,,,,,,,,,,,,,,,,,,,,,,,,,,,,
,,,,,,,,2023-08-24_08h10.08.700,HF_wild_card,2022.2.4,Linux x86_64,60.03842459,5e54182318e10a414234535d,64e63663dbcaf322d2eec8da,64e7023ae3f4db086359aaf0,,,,,,,ctch,resources/DBN.BMP,resources/DY.BMP,Door4,0.27654012,-0.102199833,1,0,0,1.0014,optionRight,60,4295,2,35,0,35,0,1,,,,,,,,,,,,,,,,,,,,,,,,,,,,,,,,,,,,,,,
,,,,,,,,2023-08-24_08h10.08.700,HF_wild_card,2022.2.4,Linux x86_64,60.03842459,5e54182318e10a414234535d,64e63663dbcaf322d2eec8da,64e7023ae3f4db086359aaf0,,,,,,,decisionTrl,resources/DB.BMP,resources/DBN.BMP,Door1,0.286559582,-0.091358423,1,0,0,4.108,optionRight,30,4325,2,36,0,36,0,1,,,,,,,,,,,,,,,,,,,,,,,,,,,,,,,,,,,,,,,
,,,,,,,,2023-08-24_08h10.08.700,HF_wild_card,2022.2.4,Linux x86_64,60.03842459,5e54182318e10a414234535d,64e63663dbcaf322d2eec8da,64e7023ae3f4db086359aaf0,,,,,,,ctch,resources/DR.BMP,resources/DP.BMP,Door3,0.449934483,-0.074259917,1,0,0,1.1712,optionRight,70,4395,2,37,0,37,0,1,,,,,,,,,,,,,,,,,,,,,,,,,,,,,,,,,,,,,,,
,,,,,,,,2023-08-24_08h10.08.700,HF_wild_card,2022.2.4,Linux x86_64,60.03842459,5e54182318e10a414234535d,64e63663dbcaf322d2eec8da,64e7023ae3f4db086359aaf0,,,,,,,decisionTrl,resources/DY.BMP,resources/DP.BMP,Door4,-0.352000276,-0.058172941,1,0,0,1.1086,optionLeft,80,4475,2,38,0,38,0,1,,,,,,,,,,,,,,,,,,,,,,,,,,,,,,,,,,,,,,,
,,,,,,,,2023-08-24_08h10.08.700,HF_wild_card,2022.2.4,Linux x86_64,60.03842459,5e54182318e10a414234535d,64e63663dbcaf322d2eec8da,64e7023ae3f4db086359aaf0,,,,,,,sngl,resources/Empty.png,resources/DP.BMP,Door3,0.367420991,-0.059522112,1,0,0,0.8405,optionRight,70,4545,2,39,0,39,0,1,,,,,,,,,,,,,,,,,,,,,,,,,,,,,,,,,,,,,,,
,,,,,,,,2023-08-24_08h10.08.700,HF_wild_card,2022.2.4,Linux x86_64,60.03842459,5e54182318e10a414234535d,64e63663dbcaf322d2eec8da,64e7023ae3f4db086359aaf0,,,,,,,decisionTrl,resources/DB.BMP,resources/DR.BMP,WildCard_Ex,-0.314352075,-0.07666262,1,0,0,1.2927,optionLeft,5,4550,2,40,0,40,0,1,,,,,,,,,,,,,,,,,,,,,,,,,,,,,,,,,,,,,,,
,,,,,,,,2023-08-24_08h10.08.700,HF_wild_card,2022.2.4,Linux x86_64,60.03842459,5e54182318e10a414234535d,64e63663dbcaf322d2eec8da,64e7023ae3f4db086359aaf0,,,,,,,decisionTrl,resources/DY.BMP,resources/DP.BMP,Door4,-0.369245291,-0.116513014,1,0,0,1.1265,optionLeft,80,4630,2,41,0,41,0,1,,,,,,,,,,,,,,,,,,,,,,,,,,,,,,,,,,,,,,,
,,,,,,,,2023-08-24_08h10.08.700,HF_wild_card,2022.2.4,Linux x86_64,60.03842459,5e54182318e10a414234535d,64e63663dbcaf322d2eec8da,64e7023ae3f4db086359aaf0,,,,,,,ctch,resources/DP.BMP,resources/DR.BMP,Door3,-0.335440636,-0.037560701,1,0,0,1.1723,optionLeft,70,4700,2,42,0,42,0,1,,,,,,,,,,,,,,,,,,,,,,,,,,,,,,,,,,,,,,,
,,,,,,,,2023-08-24_08h10.08.700,HF_wild_card,2022.2.4,Linux x86_64,60.03842459,5e54182318e10a414234535d,64e63663dbcaf322d2eec8da,64e7023ae3f4db086359aaf0,,,,,,,sngl,resources/DR.BMP,resources/Empty.png,Door2,-0.31997625,-0.063328187,1,0,0,0.9779,optionLeft,20,4720,2,43,0,43,0,1,,,,,,,,,,,,,,,,,,,,,,,,,,,,,,,,,,,,,,,
,,,,,,,,2023-08-24_08h10.08.700,HF_wild_card,2022.2.4,Linux x86_64,60.03842459,5e54182318e10a414234535d,64e63663dbcaf322d2eec8da,64e7023ae3f4db086359aaf0,,,,,,,,,,,,,,,,,,,,,,,,,,1,0,1,0,1,,,,,,,,,,,,,,,,,,,,,,,,,,,,,,,,,,
,,,,,,,,2023-08-24_08h10.08.700,HF_wild_card,2022.2.4,Linux x86_64,60.03842459,5e54182318e10a414234535d,64e63663dbcaf322d2eec8da,64e7023ae3f4db086359aaf0,,,,,,,ctch,resources/DBN.BMP,resources/DY.BMP,Door4,0.359038432,-0.042213837,1,0,0,1.7598,optionRight,80,4800,3,0,0,0,0,1,,,,,,,,,,,,,,,,,,,,,,,,,,,,,,,,,,,,,,,
,,,,,,,,2023-08-24_08h10.08.700,HF_wild_card,2022.2.4,Linux x86_64,60.03842459,5e54182318e10a414234535d,64e63663dbcaf322d2eec8da,64e7023ae3f4db086359aaf0,,,,,,,decisionTrl,resources/DP.BMP,resources/DB.BMP,Door3,-0.231284936,-0.110756516,1,0,0,1.8428,optionLeft,70,4870,3,1,0,1,0,1,,,,,,,,,,,,,,,,,,,,,,,,,,,,,,,,,,,,,,,
,,,,,,,,2023-08-24_08h10.08.700,HF_wild_card,2022.2.4,Linux x86_64,60.03842459,5e54182318e10a414234535d,64e63663dbcaf322d2eec8da,64e7023ae3f4db086359aaf0,,,,,,,ctch,resources/DR.BMP,resources/DP.BMP,Door2,-0.412561735,-0.131477634,1,0,0,0.9711,optionLeft,40,4910,3,2,0,2,0,1,,,,,,,,,,,,,,,,,,,,,,,,,,,,,,,,,,,,,,,
,,,,,,,,2023-08-24_08h10.08.700,HF_wild_card,2022.2.4,Linux x86_64,60.03842459,5e54182318e10a414234535d,64e63663dbcaf322d2eec8da,64e7023ae3f4db086359aaf0,,,,,,,decisionTrl,resources/DBN.BMP,resources/DR.BMP,Door2,0.322228352,-0.132546782,1,0,0,1.3196,optionRight,40,4950,3,3,0,3,0,1,,,,,,,,,,,,,,,,,,,,,,,,,,,,,,,,,,,,,,,
,,,,,,,,2023-08-24_08h10.08.700,HF_wild_card,2022.2.4,Linux x86_64,60.03842459,5e54182318e10a414234535d,64e63663dbcaf322d2eec8da,64e7023ae3f4db086359aaf0,,,,,,,decisionTrl,resources/DP.BMP,resources/DY.BMP,Door4,0.493930499,-0.105984449,1,0,0,0.9406,optionRight,80,5030,3,4,0,4,0,1,,,,,,,,,,,,,,,,,,,,,,,,,,,,,,,,,,,,,,,
,,,,,,,,2023-08-24_08h10.08.700,HF_wild_card,2022.2.4,Linux x86_64,60.03842459,5e54182318e10a414234535d,64e63663dbcaf322d2eec8da,64e7023ae3f4db086359aaf0,,,,,,,sngl,resources/DR.BMP,resources/Empty.png,Door2,-0.261505047,-0.070121447,1,0,0,0.9576,optionLeft,40,5070,3,5,0,5,0,1,,,,,,,,,,,,,,,,,,,,,,,,,,,,,,,,,,,,,,,
,,,,,,,,2023-08-24_08h10.08.700,HF_wild_card,2022.2.4,Linux x86_64,60.03842459,5e54182318e10a414234535d,64e63663dbcaf322d2eec8da,64e7023ae3f4db086359aaf0,,,,,,,sngl,resources/Empty.png,resources/DBN.BMP,Door1,0.478574117,-0.08369871,1,0,0,0.8831,optionRight,30,5100,3,6,0,6,0,1,,,,,,,,,,,,,,,,,,,,,,,,,,,,,,,,,,,,,,,
,,,,,,,,2023-08-24_08h10.08.700,HF_wild_card,2022.2.4,Linux x86_64,60.03842459,5e54182318e10a414234535d,64e63663dbcaf322d2eec8da,64e7023ae3f4db086359aaf0,,,,,,,decisionTrl,resources/DY.BMP,resources/DP.BMP,Door4,-0.302978794,-0.165706158,1,0,0,0.9932,optionLeft,80,5180,3,7,0,7,0,1,,,,,,,,,,,,,,,,,,,,,,,,,,,,,,,,,,,,,,,
,,,,,,,,2023-08-24_08h10.08.700,HF_wild_card,2022.2.4,Linux x86_64,60.03842459,5e54182318e10a414234535d,64e63663dbcaf322d2eec8da,64e7023ae3f4db086359aaf0,,,,,,,decisionTrl,resources/DP.BMP,resources/DY.BMP,Door4,0.394156218,-0.120346189,1,0,0,0.8829,optionRight,60,5240,3,8,0,8,0,1,,,,,,,,,,,,,,,,,,,,,,,,,,,,,,,,,,,,,,,
,,,,,,,,2023-08-24_08h10.08.700,HF_wild_card,2022.2.4,Linux x86_64,60.03842459,5e54182318e10a414234535d,64e63663dbcaf322d2eec8da,64e7023ae3f4db086359aaf0,,,,,,,ctch,resources/DY.BMP,resources/DBN.BMP,Door4,-0.224134445,-0.108103236,1,0,0,0.9255,optionLeft,60,5300,3,9,0,9,0,1,,,,,,,,,,,,,,,,,,,,,,,,,,,,,,,,,,,,,,,
,,,,,,,,2023-08-24_08h10.08.700,HF_wild_card,2022.2.4,Linux x86_64,60.03842459,5e54182318e10a414234535d,64e63663dbcaf322d2eec8da,64e7023ae3f4db086359aaf0,,,,,,,decisionTrl,resources/DR.BMP,resources/DB.BMP,Door2,-0.254672885,-0.136845032,1,0,0,1.4413,optionLeft,40,5340,3,10,0,10,0,1,,,,,,,,,,,,,,,,,,,,,,,,,,,,,,,,,,,,,,,
,,,,,,,,2023-08-24_08h10.08.700,HF_wild_card,2022.2.4,Linux x86_64,60.03842459,5e54182318e10a414234535d,64e63663dbcaf322d2eec8da,64e7023ae3f4db086359aaf0,,,,,,,decisionTrl,resources/DR.BMP,resources/DBN.BMP,Door2,-0.222214619,-0.116113345,1,0,0,1.5749,optionLeft,40,5380,3,11,0,11,0,1,,,,,,,,,,,,,,,,,,,,,,,,,,,,,,,,,,,,,,,
,,,,,,,,2023-08-24_08h10.08.700,HF_wild_card,2022.2.4,Linux x86_64,60.03842459,5e54182318e10a414234535d,64e63663dbcaf322d2eec8da,64e7023ae3f4db086359aaf0,,,,,,,sngl,resources/DBN.BMP,resources/Empty.png,Door1,-0.381759644,-0.032103896,1,0,0,2.0118,optionLeft,30,5410,3,12,0,12,0,1,,,,,,,,,,,,,,,,,,,,,,,,,,,,,,,,,,,,,,,
,,,,,,,,2023-08-24_08h10.08.700,HF_wild_card,2022.2.4,Linux x86_64,60.03842459,5e54182318e10a414234535d,64e63663dbcaf322d2eec8da,64e7023ae3f4db086359aaf0,,,,,,,sngl,resources/DB.BMP,resources/Empty.png,WildCard_Ex,-0.282080372,-0.064852436,1,0,0,1.0564,optionLeft,95,5505,3,13,0,13,0,1,,,,,,,,,,,,,,,,,,,,,,,,,,,,,,,,,,,,,,,
,,,,,,,,2023-08-24_08h10.08.700,HF_wild_card,2022.2.4,Linux x86_64,60.03842459,5e54182318e10a414234535d,64e63663dbcaf322d2eec8da,64e7023ae3f4db086359aaf0,,,,,,,decisionTrl,resources/DY.BMP,resources/DP.BMP,Door4,-0.407032013,-0.125082254,1,0,0,1.1274,optionLeft,80,5585,3,14,0,14,0,1,,,,,,,,,,,,,,,,,,,,,,,,,,,,,,,,,,,,,,,
,,,,,,,,2023-08-24_08h10.08.700,HF_wild_card,2022.2.4,Linux x86_64,60.03842459,5e54182318e10a414234535d,64e63663dbcaf322d2eec8da,64e7023ae3f4db086359aaf0,,,,,,,sngl,resources/Empty.png,resources/DP.BMP,Door3,0.486494541,-0.08029445,1,0,0,0.777,optionRight,70,5655,3,15,0,15,0,1,,,,,,,,,,,,,,,,,,,,,,,,,,,,,,,,,,,,,,,
,,,,,,,,2023-08-24_08h10.08.700,HF_wild_card,2022.2.4,Linux x86_64,60.03842459,5e54182318e10a414234535d,64e63663dbcaf322d2eec8da,64e7023ae3f4db086359aaf0,,,,,,,decisionTrl,resources/DP.BMP,resources/DY.BMP,Door4,0.407291412,-0.042516828,1,0,0,0.9246,optionRight,60,5715,3,16,0,16,0,1,,,,,,,,,,,,,,,,,,,,,,,,,,,,,,,,,,,,,,,
,,,,,,,,2023-08-24_08h10.08.700,HF_wild_card,2022.2.4,Linux x86_64,60.03842459,5e54182318e10a414234535d,64e63663dbcaf322d2eec8da,64e7023ae3f4db086359aaf0,,,,,,,ctch,resources/DP.BMP,resources/DR.BMP,Door3,-0.282531857,-0.104470293,1,0,0,2.3006,optionLeft,70,5785,3,17,0,17,0,1,,,,,,,,,,,,,,,,,,,,,,,,,,,,,,,,,,,,,,,
,,,,,,,,2023-08-24_08h10.08.700,HF_wild_card,2022.2.4,Linux x86_64,60.03842459,5e54182318e10a414234535d,64e63663dbcaf322d2eec8da,64e7023ae3f4db086359aaf0,,,,,,,sngl,resources/DP.BMP,resources/Empty.png,Door3,-0.405998866,-0.082602779,1,0,0,1.1249,optionLeft,70,5855,3,18,0,18,0,1,,,,,,,,,,,,,,,,,,,,,,,,,,,,,,,,,,,,,,,
,,,,,,,,2023-08-24_08h10.08.700,HF_wild_card,2022.2.4,Linux x86_64,60.03842459,5e54182318e10a414234535d,64e63663dbcaf322d2eec8da,64e7023ae3f4db086359aaf0,,,,,,,decisionTrl,resources/DBN.BMP,resources/DR.BMP,Door1,-0.344355702,-0.008261323,1,0,0,2.4915,optionLeft,30,5885,3,19,0,19,0,1,,,,,,,,,,,,,,,,,,,,,,,,,,,,,,,,,,,,,,,
,,,,,,,,2023-08-24_08h10.08.700,HF_wild_card,2022.2.4,Linux x86_64,60.03842459,5e54182318e10a414234535d,64e63663dbcaf322d2eec8da,64e7023ae3f4db086359aaf0,,,,,,,sngl,resources/Empty.png,resources/DB.BMP,WildCard_Ex,0.421955506,-0.035517494,1,0,0,0.7897,optionRight,95,5980,3,20,0,20,0,1,,,,,,,,,,,,,,,,,,,,,,,,,,,,,,,,,,,,,,,
,,,,,,,,2023-08-24_08h10.08.700,HF_wild_card,2022.2.4,Linux x86_64,60.03842459,5e54182318e10a414234535d,64e63663dbcaf322d2eec8da,64e7023ae3f4db086359aaf0,,,,,,,ctch,resources/DBN.BMP,resources/DY.BMP,Door4,0.284049749,-0.058760603,1,0,0,0.8927,optionRight,60,6040,3,21,0,21,0,1,,,,,,,,,,,,,,,,,,,,,,,,,,,,,,,,,,,,,,,
,,,,,,,,2023-08-24_08h10.08.700,HF_wild_card,2022.2.4,Linux x86_64,60.03842459,5e54182318e10a414234535d,64e63663dbcaf322d2eec8da,64e7023ae3f4db086359aaf0,,,,,,,decisionTrl,resources/DR.BMP,resources/DBN.BMP,Door2,-0.46300602,-0.11856854,1,0,0,1.4925,optionLeft,20,6060,3,22,0,22,0,1,,,,,,,,,,,,,,,,,,,,,,,,,,,,,,,,,,,,,,,
,,,,,,,,2023-08-24_08h10.08.700,HF_wild_card,2022.2.4,Linux x86_64,60.03842459,5e54182318e10a414234535d,64e63663dbcaf322d2eec8da,64e7023ae3f4db086359aaf0,,,,,,,decisionTrl,resources/DY.BMP,resources/DP.BMP,Door4,-0.295696259,-0.05833741,1,0,0,1.2114,optionLeft,80,6140,3,23,0,23,0,1,,,,,,,,,,,,,,,,,,,,,,,,,,,,,,,,,,,,,,,
,,,,,,,,2023-08-24_08h10.08.700,HF_wild_card,2022.2.4,Linux x86_64,60.03842459,5e54182318e10a414234535d,64e63663dbcaf322d2eec8da,64e7023ae3f4db086359aaf0,,,,,,,decisionTrl,resources/DR.BMP,resources/DBN.BMP,Door1,0.37786142,-0.054554065,1,0,0,2.1756,optionRight,30,6170,3,24,0,24,0,1,,,,,,,,,,,,,,,,,,,,,,,,,,,,,,,,,,,,,,,
,,,,,,,,2023-08-24_08h10.08.700,HF_wild_card,2022.2.4,Linux x86_64,60.03842459,5e54182318e10a414234535d,64e63663dbcaf322d2eec8da,64e7023ae3f4db086359aaf0,,,,,,,sngl,resources/DY.BMP,resources/Empty.png,Door4,-0.269277374,-0.084005316,1,0,0,0.7311,optionLeft,80,6250,3,25,0,25,0,1,,,,,,,,,,,,,,,,,,,,,,,,,,,,,,,,,,,,,,,
,,,,,,,,2023-08-24_08h10.08.700,HF_wild_card,2022.2.4,Linux x86_64,60.03842459,5e54182318e10a414234535d,64e63663dbcaf322d2eec8da,64e7023ae3f4db086359aaf0,,,,,,,decisionTrl,resources/DB.BMP,resources/DR.BMP,WildCard_Ex,-0.552031398,-0.221283754,1,0,0,0.7559,optionLeft,5,6255,3,26,0,26,0,1,,,,,,,,,,,,,,,,,,,,,,,,,,,,,,,,,,,,,,,
,,,,,,,,2023-08-24_08h10.08.700,HF_wild_card,2022.2.4,Linux x86_64,60.03842459,5e54182318e10a414234535d,64e63663dbcaf322d2eec8da,64e7023ae3f4db086359aaf0,,,,,,,ctch,resources/DP.BMP,resources/DR.BMP,Door3,-0.40852646,-0.080448508,1,0,0,1.5317,optionLeft,70,6325,3,27,0,27,0,1,,,,,,,,,,,,,,,,,,,,,,,,,,,,,,,,,,,,,,,
,,,,,,,,2023-08-24_08h10.08.700,HF_wild_card,2022.2.4,Linux x86_64,60.03842459,5e54182318e10a414234535d,64e63663dbcaf322d2eec8da,64e7023ae3f4db086359aaf0,,,,,,,decisionTrl,resources/DR.BMP,resources/DBN.BMP,Door2,-0.33833909,-0.084306796,1,0,0,1.2214,optionLeft,20,6345,3,28,0,28,0,1,,,,,,,,,,,,,,,,,,,,,,,,,,,,,,,,,,,,,,,
,,,,,,,,2023-08-24_08h10.08.700,HF_wild_card,2022.2.4,Linux x86_64,60.03842459,5e54182318e10a414234535d,64e63663dbcaf322d2eec8da,64e7023ae3f4db086359aaf0,,,,,,,decisionTrl,resources/DB.BMP,resources/DY.BMP,Door4,0.334757646,-0.047552705,1,0,0,0.7255,optionRight,80,6425,3,29,0,29,0,1,,,,,,,,,,,,,,,,,,,,,,,,,,,,,,,,,,,,,,,
,,,,,,,,2023-08-24_08h10.08.700,HF_wild_card,2022.2.4,Linux x86_64,60.03842459,5e54182318e10a414234535d,64e63663dbcaf322d2eec8da,64e7023ae3f4db086359aaf0,,,,,,,decisionTrl,resources/DP.BMP,resources/DY.BMP,Door4,0.49032402,-0.046449423,1,0,0,0.6948,optionRight,60,6485,3,30,0,30,0,1,,,,,,,,,,,,,,,,,,,,,,,,,,,,,,,,,,,,,,,
,,,,,,,,2023-08-24_08h10.08.700,HF_wild_card,2022.2.4,Linux x86_64,60.03842459,5e54182318e10a414234535d,64e63663dbcaf322d2eec8da,64e7023ae3f4db086359aaf0,,,,,,,ctch,resources/DY.BMP,resources/DBN.BMP,Door4,-0.359240492,-0.063163479,1,0,0,0.7771,optionLeft,60,6545,3,31,0,31,0,1,,,,,,,,,,,,,,,,,,,,,,,,,,,,,,,,,,,,,,,
,,,,,,,,2023-08-24_08h10.08.700,HF_wild_card,2022.2.4,Linux x86_64,60.03842459,5e54182318e10a414234535d,64e63663dbcaf322d2eec8da,64e7023ae3f4db086359aaf0,,,,,,,ctch,resources/DR.BMP,resources/DP.BMP,Door3,0.347111861,-0.04766198,1,0,0,1.8118,optionRight,70,6615,3,32,0,32,0,1,,,,,,,,,,,,,,,,,,,,,,,,,,,,,,,,,,,,,,,
,,,,,,,,2023-08-24_08h10.08.700,HF_wild_card,2022.2.4,Linux x86_64,60.03842459,5e54182318e10a414234535d,64e63663dbcaf322d2eec8da,64e7023ae3f4db086359aaf0,,,,,,,sngl,resources/DB.BMP,resources/Empty.png,WildCard_Ex,-0.370986899,-0.104504665,1,0,0,0.9117,optionLeft,5,6620,3,33,0,33,0,1,,,,,,,,,,,,,,,,,,,,,,,,,,,,,,,,,,,,,,,
,,,,,,,,2023-08-24_08h10.08.700,HF_wild_card,2022.2.4,Linux x86_64,60.03842459,5e54182318e10a414234535d,64e63663dbcaf322d2eec8da,64e7023ae3f4db086359aaf0,,,,,,,sngl,resources/Empty.png,resources/DY.BMP,Door4,0.348092794,-0.091338952,1,0,0,0.8265,optionRight,60,6680,3,34,0,34,0,1,,,,,,,,,,,,,,,,,,,,,,,,,,,,,,,,,,,,,,,
,,,,,,,,2023-08-24_08h10.08.700,HF_wild_card,2022.2.4,Linux x86_64,60.03842459,5e54182318e10a414234535d,64e63663dbcaf322d2eec8da,64e7023ae3f4db086359aaf0,,,,,,,decisionTrl,resources/DBN.BMP,resources/DR.BMP,Door1,-0.374240081,-0.006424626,1,0,0,2.0335,optionLeft,30,6710,3,35,0,35,0,1,,,,,,,,,,,,,,,,,,,,,,,,,,,,,,,,,,,,,,,
,,,,,,,,2023-08-24_08h10.08.700,HF_wild_card,2022.2.4,Linux x86_64,60.03842459,5e54182318e10a414234535d,64e63663dbcaf322d2eec8da,64e7023ae3f4db086359aaf0,,,,,,,decisionTrl,resources/DB.BMP,resources/DP.BMP,Door3,0.403512955,-0.087609927,1,0,0,1.0216,optionRight,70,6780,3,36,0,36,0,1,,,,,,,,,,,,,,,,,,,,,,,,,,,,,,,,,,,,,,,
,,,,,,,,2023-08-24_08h10.08.700,HF_wild_card,2022.2.4,Linux x86_64,60.03842459,5e54182318e10a414234535d,64e63663dbcaf322d2eec8da,64e7023ae3f4db086359aaf0,,,,,,,sngl,resources/Empty.png,resources/DR.BMP,Door2,0.338745276,-0.12836504,1,0,0,0.7275,optionRight,20,6800,3,37,0,37,0,1,,,,,,,,,,,,,,,,,,,,,,,,,,,,,,,,,,,,,,,
,,,,,,,,2023-08-24_08h10.08.700,HF_wild_card,2022.2.4,Linux x86_64,60.03842459,5e54182318e10a414234535d,64e63663dbcaf322d2eec8da,64e7023ae3f4db086359aaf0,,,,,,,decisionTrl,resources/DBN.BMP,resources/DR.BMP,Door1,-0.416894754,0.01372091,1,0,0,1.5302,optionLeft,30,6830,3,38,0,38,0,1,,,,,,,,,,,,,,,,,,,,,,,,,,,,,,,,,,,,,,,
,,,,,,,,2023-08-24_08h10.08.700,HF_wild_card,2022.2.4,Linux x86_64,60.03842459,5e54182318e10a414234535d,64e63663dbcaf322d2eec8da,64e7023ae3f4db086359aaf0,,,,,,,decisionTrl,resources/DBN.BMP,resources/DB.BMP,Door1,-0.339009245,0.064603249,1,0,0,1.676,optionLeft,30,6860,3,39,0,39,0,1,,,,,,,,,,,,,,,,,,,,,,,,,,,,,,,,,,,,,,,
,,,,,,,,2023-08-24_08h10.08.700,HF_wild_card,2022.2.4,Linux x86_64,60.03842459,5e54182318e10a414234535d,64e63663dbcaf322d2eec8da,64e7023ae3f4db086359aaf0,,,,,,,decisionTrl,resources/DY.BMP,resources/DB.BMP,Door4,-0.395196478,-0.130260666,1,0,0,0.8058,optionLeft,80,6940,3,40,0,40,0,1,,,,,,,,,,,,,,,,,,,,,,,,,,,,,,,,,,,,,,,
,,,,,,,,2023-08-24_08h10.08.700,HF_wild_card,2022.2.4,Linux x86_64,60.03842459,5e54182318e10a414234535d,64e63663dbcaf322d2eec8da,64e7023ae3f4db086359aaf0,,,,,,,sngl,resources/Empty.png,resources/DB.BMP,WildCard_Ex,0.332597415,-0.099012812,1,0,0,0.7596,optionRight,5,6945,3,41,0,41,0,1,,,,,,,,,,,,,,,,,,,,,,,,,,,,,,,,,,,,,,,
,,,,,,,,2023-08-24_08h10.08.700,HF_wild_card,2022.2.4,Linux x86_64,60.03842459,5e54182318e10a414234535d,64e63663dbcaf322d2eec8da,64e7023ae3f4db086359aaf0,,,,,,,decisionTrl,resources/DY.BMP,resources/DP.BMP,Door4,-0.27335759,-0.027301947,1,0,0,1.3189,optionLeft,80,7025,3,42,0,42,0,1,,,,,,,,,,,,,,,,,,,,,,,,,,,,,,,,,,,,,,,
,,,,,,,,2023-08-24_08h10.08.700,HF_wild_card,2022.2.4,Linux x86_64,60.03842459,5e54182318e10a414234535d,64e63663dbcaf322d2eec8da,64e7023ae3f4db086359aaf0,,,,,,,decisionTrl,resources/DB.BMP,resources/DBN.BMP,Door1,0.567273458,-0.016988516,1,0,0,1.182,optionRight,30,7055,3,43,0,43,0,1,,,,,,,,,,,,,,,,,,,,,,,,,,,,,,,,,,,,,,,
,,,,,,,,2023-08-24_08h10.08.700,HF_wild_card,2022.2.4,Linux x86_64,60.03842459,5e54182318e10a414234535d,64e63663dbcaf322d2eec8da,64e7023ae3f4db086359aaf0,,,,,,,,,,,,,,,,,,,,,,,,,,2,0,2,0,1,,,,,,,,,,,,,,,,,,,,,,,,,,,,,,,,,,
,,,,,,,,2023-08-24_08h10.08.700,HF_wild_card,2022.2.4,Linux x86_64,60.03842459,5e54182318e10a414234535d,64e63663dbcaf322d2eec8da,64e7023ae3f4db086359aaf0,,,,,,,decisionTrl,resources/DR.BMP,resources/DBN.BMP,Door1,0.34114027,0.020706574,1,0,0,1.7354,optionRight,30,7085,4,0,0,0,0,1,,,,,,,,,,,,,,,,,,,,,,,,,,,,,,,,,,,,,,,
,,,,,,,,2023-08-24_08h10.08.700,HF_wild_card,2022.2.4,Linux x86_64,60.03842459,5e54182318e10a414234535d,64e63663dbcaf322d2eec8da,64e7023ae3f4db086359aaf0,,,,,,,decisionTrl,resources/DBN.BMP,resources/DR.BMP,Door1,-0.375462095,-0.063202182,1,0,0,1.3069,optionLeft,30,7115,4,1,0,1,0,1,,,,,,,,,,,,,,,,,,,,,,,,,,,,,,,,,,,,,,,
,,,,,,,,2023-08-24_08h10.08.700,HF_wild_card,2022.2.4,Linux x86_64,60.03842459,5e54182318e10a414234535d,64e63663dbcaf322d2eec8da,64e7023ae3f4db086359aaf0,,,,,,,decisionTrl,resources/DBN.BMP,resources/DG.BMP,WildCard_NonEx,0.474195162,-0.034754674,1,0,0,1.0688,optionRight,55,7170,4,2,0,2,0,1,,,,,,,,,,,,,,,,,,,,,,,,,,,,,,,,,,,,,,,
,,,,,,,,2023-08-24_08h10.08.700,HF_wild_card,2022.2.4,Linux x86_64,60.03842459,5e54182318e10a414234535d,64e63663dbcaf322d2eec8da,64e7023ae3f4db086359aaf0,,,,,,,decisionTrl,resources/DBN.BMP,resources/DR.BMP,Door1,-0.404887279,-0.002047062,1,0,0,1.6232,optionLeft,30,7200,4,3,0,3,0,1,,,,,,,,,,,,,,,,,,,,,,,,,,,,,,,,,,,,,,,
,,,,,,,,2023-08-24_08h10.08.700,HF_wild_card,2022.2.4,Linux x86_64,60.03842459,5e54182318e10a414234535d,64e63663dbcaf322d2eec8da,64e7023ae3f4db086359aaf0,,,,,,,ctch,resources/DY.BMP,resources/DBN.BMP,Door4,-0.296052853,0.009027719,1,0,0,1.1058,optionLeft,60,7260,4,4,0,4,0,1,,,,,,,,,,,,,,,,,,,,,,,,,,,,,,,,,,,,,,,
,,,,,,,,2023-08-24_08h10.08.700,HF_wild_card,2022.2.4,Linux x86_64,60.03842459,5e54182318e10a414234535d,64e63663dbcaf322d2eec8da,64e7023ae3f4db086359aaf0,,,,,,,decisionTrl,resources/DBN.BMP,resources/DR.BMP,Door2,0.374471347,-0.094821056,1,0,0,1.6692,optionRight,40,7300,4,5,0,5,0,1,,,,,,,,,,,,,,,,,,,,,,,,,,,,,,,,,,,,,,,
,,,,,,,,2023-08-24_08h10.08.700,HF_wild_card,2022.2.4,Linux x86_64,60.03842459,5e54182318e10a414234535d,64e63663dbcaf322d2eec8da,64e7023ae3f4db086359aaf0,,,,,,,decisionTrl,resources/DY.BMP,resources/DP.BMP,Door4,-0.37491862,-0.030979753,1,0,0,1.3487,optionLeft,80,7380,4,6,0,6,0,1,,,,,,,,,,,,,,,,,,,,,,,,,,,,,,,,,,,,,,,
,,,,,,,,2023-08-24_08h10.08.700,HF_wild_card,2022.2.4,Linux x86_64,60.03842459,5e54182318e10a414234535d,64e63663dbcaf322d2eec8da,64e7023ae3f4db086359aaf0,,,,,,,ctch,resources/DR.BMP,resources/DP.BMP,Door3,0.379595439,-0.065820575,1,0,0,2.1614,optionRight,70,7450,4,7,0,7,0,1,,,,,,,,,,,,,,,,,,,,,,,,,,,,,,,,,,,,,,,
,,,,,,,,2023-08-24_08h10.08.700,HF_wild_card,2022.2.4,Linux x86_64,60.03842459,5e54182318e10a414234535d,64e63663dbcaf322d2eec8da,64e7023ae3f4db086359aaf0,,,,,,,decisionTrl,resources/DP.BMP,resources/DY.BMP,Door4,0.309838931,-0.045675635,1,0,0,1.3267,optionRight,60,7510,4,8,0,8,0,1,,,,,,,,,,,,,,,,,,,,,,,,,,,,,,,,,,,,,,,
,,,,,,,,2023-08-24_08h10.08.700,HF_wild_card,2022.2.4,Linux x86_64,60.03842459,5e54182318e10a414234535d,64e63663dbcaf322d2eec8da,64e7023ae3f4db086359aaf0,,,,,,,sngl,resources/DY.BMP,resources/Empty.png,Door4,-0.443217198,-0.127018094,1,0,0,0.9298,optionLeft,60,7570,4,9,0,9,0,1,,,,,,,,,,,,,,,,,,,,,,,,,,,,,,,,,,,,,,,
,,,,,,,,2023-08-24_08h10.08.700,HF_wild_card,2022.2.4,Linux x86_64,60.03842459,5e54182318e10a414234535d,64e63663dbcaf322d2eec8da,64e7023ae3f4db086359aaf0,,,,,,,decisionTrl,resources/DP.BMP,resources/DY.BMP,Door4,0.323339621,-0.098042011,1,0,0,1.0011,optionRight,80,7650,4,10,0,10,0,1,,,,,,,,,,,,,,,,,,,,,,,,,,,,,,,,,,,,,,,
,,,,,,,,2023-08-24_08h10.08.700,HF_wild_card,2022.2.4,Linux x86_64,60.03842459,5e54182318e10a414234535d,64e63663dbcaf322d2eec8da,64e7023ae3f4db086359aaf0,,,,,,,sngl,resources/DP.BMP,resources/Empty.png,Door3,-0.230494936,-0.048793316,1,0,0,1.1262,optionLeft,70,7720,4,11,0,11,0,1,,,,,,,,,,,,,,,,,,,,,,,,,,,,,,,,,,,,,,,
,,,,,,,,2023-08-24_08h10.08.700,HF_wild_card,2022.2.4,Linux x86_64,60.03842459,5e54182318e10a414234535d,64e63663dbcaf322d2eec8da,64e7023ae3f4db086359aaf0,,,,,,,decisionTrl,resources/DY.BMP,resources/DG.BMP,WildCard_NonEx,0.394330263,-0.08912007,1,0,0,1.4511,optionRight,45,7765,4,12,0,12,0,1,,,,,,,,,,,,,,,,,,,,,,,,,,,,,,,,,,,,,,,
,,,,,,,,2023-08-24_08h10.08.700,HF_wild_card,2022.2.4,Linux x86_64,60.03842459,5e54182318e10a414234535d,64e63663dbcaf322d2eec8da,64e7023ae3f4db086359aaf0,,,,,,,decisionTrl,resources/DG.BMP,resources/DR.BMP,WildCard_NonEx,-0.204333226,-0.030163368,1,0,0,0.9976,optionLeft,55,7820,4,13,0,13,0,1,,,,,,,,,,,,,,,,,,,,,,,,,,,,,,,,,,,,,,,
,,,,,,,,2023-08-24_08h10.08.700,HF_wild_card,2022.2.4,Linux x86_64,60.03842459,5e54182318e10a414234535d,64e63663dbcaf322d2eec8da,64e7023ae3f4db086359aaf0,,,,,,,ctch,resources/DBN.BMP,resources/DY.BMP,Door4,0.311745644,-0.041561842,1,0,0,0.8059,optionRight,80,7900,4,14,0,14,0,1,,,,,,,,,,,,,,,,,,,,,,,,,,,,,,,,,,,,,,,
,,,,,,,,2023-08-24_08h10.08.700,HF_wild_card,2022.2.4,Linux x86_64,60.03842459,5e54182318e10a414234535d,64e63663dbcaf322d2eec8da,64e7023ae3f4db086359aaf0,,,,,,,decisionTrl,resources/DY.BMP,resources/DP.BMP,Door4,-0.236430724,-0.047543049,1,0,0,0.9451,optionLeft,60,7960,4,15,0,15,0,1,,,,,,,,,,,,,,,,,,,,,,,,,,,,,,,,,,,,,,,
,,,,,,,,2023-08-24_08h10.08.700,HF_wild_card,2022.2.4,Linux x86_64,60.03842459,5e54182318e10a414234535d,64e63663dbcaf322d2eec8da,64e7023ae3f4db086359aaf0,,,,,,,decisionTrl,resources/DR.BMP,resources/DBN.BMP,Door1,0.32488211,-0.025876681,1,0,0,1.2729,optionRight,30,7990,4,16,0,16,0,1,,,,,,,,,,,,,,,,,,,,,,,,,,,,,,,,,,,,,,,
,,,,,,,,2023-08-24_08h10.08.700,HF_wild_card,2022.2.4,Linux x86_64,60.03842459,5e54182318e10a414234535d,64e63663dbcaf322d2eec8da,64e7023ae3f4db086359aaf0,,,,,,,decisionTrl,resources/DP.BMP,resources/DY.BMP,Door4,0.328163783,-0.12826558,1,0,0,0.9121,optionRight,60,8050,4,17,0,17,0,1,,,,,,,,,,,,,,,,,,,,,,,,,,,,,,,,,,,,,,,
,,,,,,,,2023-08-24_08h10.08.700,HF_wild_card,2022.2.4,Linux x86_64,60.03842459,5e54182318e10a414234535d,64e63663dbcaf322d2eec8da,64e7023ae3f4db086359aaf0,,,,,,,decisionTrl,resources/DR.BMP,resources/DG.BMP,WildCard_NonEx,0.473963261,-0.130210082,1,0,0,1.942,optionRight,45,8095,4,18,0,18,0,1,,,,,,,,,,,,,,,,,,,,,,,,,,,,,,,,,,,,,,,
,,,,,,,,2023-08-24_08h10.08.700,HF_wild_card,2022.2.4,Linux x86_64,60.03842459,5e54182318e10a414234535d,64e63663dbcaf322d2eec8da,64e7023ae3f4db086359aaf0,,,,,,,ctch,resources/DBN.BMP,resources/DY.BMP,Door4,0.408905586,-0.107276201,1,0,0,0.8877,optionRight,80,8175,4,19,0,19,0,1,,,,,,,,,,,,,,,,,,,,,,,,,,,,,,,,,,,,,,,
,,,,,,,,2023-08-24_08h10.08.700,HF_wild_card,2022.2.4,Linux x86_64,60.03842459,5e54182318e10a414234535d,64e63663dbcaf322d2eec8da,64e7023ae3f4db086359aaf0,,,,,,,decisionTrl,resources/DG.BMP,resources/DBN.BMP,WildCard_NonEx,-0.248150269,-0.018157125,1,0,0,1.2228,optionLeft,45,8220,4,20,0,20,0,1,,,,,,,,,,,,,,,,,,,,,,,,,,,,,,,,,,,,,,,
,,,,,,,,2023-08-24_08h10.08.700,HF_wild_card,2022.2.4,Linux x86_64,60.03842459,5e54182318e10a414234535d,64e63663dbcaf322d2eec8da,64e7023ae3f4db086359aaf0,,,,,,,sngl,resources/DBN.BMP,resources/Empty.png,Door1,-0.274539351,-0.023847302,1,0,0,0.9724,optionLeft,30,8250,4,21,0,21,0,1,,,,,,,,,,,,,,,,,,,,,,,,,,,,,,,,,,,,,,,
,,,,,,,,2023-08-24_08h10.08.700,HF_wild_card,2022.2.4,Linux x86_64,60.03842459,5e54182318e10a414234535d,64e63663dbcaf322d2eec8da,64e7023ae3f4db086359aaf0,,,,,,,sngl,resources/DG.BMP,resources/Empty.png,WildCard_NonEx,-0.374600053,-0.045813322,1,0,0,0.8736,optionLeft,45,8295,4,22,0,22,0,1,,,,,,,,,,,,,,,,,,,,,,,,,,,,,,,,,,,,,,,
,,,,,,,,2023-08-24_08h10.08.700,HF_wild_card,2022.2.4,Linux x86_64,60.03842459,5e54182318e10a414234535d,64e63663dbcaf322d2eec8da,64e7023ae3f4db086359aaf0,,,,,,,sngl,resources/Empty.png,resources/DG.BMP,WildCard_NonEx,0.363608678,-0.042433381,1,0,0,0.7712,optionRight,55,8350,4,23,0,23,0,1,,,,,,,,,,,,,,,,,,,,,,,,,,,,,,,,,,,,,,,
,,,,,,,,2023-08-24_08h10.08.700,HF_wild_card,2022.2.4,Linux x86_64,60.03842459,5e54182318e10a414234535d,64e63663dbcaf322d2eec8da,64e7023ae3f4db086359aaf0,,,,,,,decisionTrl,resources/DY.BMP,resources/DP.BMP,Door4,-0.282466968,-0.067228953,1,0,0,1.1574,optionLeft,80,8430,4,24,0,24,0,1,,,,,,,,,,,,,,,,,,,,,,,,,,,,,,,,,,,,,,,
,,,,,,,,2023-08-24_08h10.08.700,HF_wild_card,2022.2.4,Linux x86_64,60.03842459,5e54182318e10a414234535d,64e63663dbcaf322d2eec8da,64e7023ae3f4db086359aaf0,,,,,,,sngl,resources/Empty.png,resources/DY.BMP,Door4,0.305900733,-0.084849993,1,0,0,0.8026,optionRight,80,8510,4,25,0,25,0,1,,,,,,,,,,,,,,,,,,,,,,,,,,,,,,,,,,,,,,,
,,,,,,,,2023-08-24_08h10.08.700,HF_wild_card,2022.2.4,Linux x86_64,60.03842459,5e54182318e10a414234535d,64e63663dbcaf322d2eec8da,64e7023ae3f4db086359aaf0,,,,,,,decisionTrl,resources/DY.BMP,resources/DP.BMP,Door4,-0.228717724,-0.05328234,1,0,0,0.8031,optionLeft,60,8570,4,26,0,26,0,1,,,,,,,,,,,,,,,,,,,,,,,,,,,,,,,,,,,,,,,
,,,,,,,,2023-08-24_08h10.08.700,HF_wild_card,2022.2.4,Linux x86_64,60.03842459,5e54182318e10a414234535d,64e63663dbcaf322d2eec8da,64e7023ae3f4db086359aaf0,,,,,,,sngl,resources/DR.BMP,resources/Empty.png,Door2,-0.337173144,-0.051706592,1,0,0,0.9122,optionLeft,20,8590,4,27,0,27,0,1,,,,,,,,,,,,,,,,,,,,,,,,,,,,,,,,,,,,,,,
,,,,,,,,2023-08-24_08h10.08.700,HF_wild_card,2022.2.4,Linux x86_64,60.03842459,5e54182318e10a414234535d,64e63663dbcaf322d2eec8da,64e7023ae3f4db086359aaf0,,,,,,,ctch,resources/DY.BMP,resources/DBN.BMP,Door4,-0.380861362,-0.073235989,1,0,0,0.9146,optionLeft,80,8670,4,28,0,28,0,1,,,,,,,,,,,,,,,,,,,,,,,,,,,,,,,,,,,,,,,
,,,,,,,,2023-08-24_08h10.08.700,HF_wild_card,2022.2.4,Linux x86_64,60.03842459,5e54182318e10a414234535d,64e63663dbcaf322d2eec8da,64e7023ae3f4db086359aaf0,,,,,,,decisionTrl,resources/DG.BMP,resources/DP.BMP,WildCard_NonEx,-0.312025825,-0.012494644,1,0,0,1.0334,optionLeft,55,8725,4,29,0,29,0,1,,,,,,,,,,,,,,,,,,,,,,,,,,,,,,,,,,,,,,,
,,,,,,,,2023-08-24_08h10.08.700,HF_wild_card,2022.2.4,Linux x86_64,60.03842459,5e54182318e10a414234535d,64e63663dbcaf322d2eec8da,64e7023ae3f4db086359aaf0,,,,,,,decisionTrl,resources/DR.BMP,resources/DBN.BMP,Door2,-0.332352122,-0.068467935,1,0,0,2.8104,optionLeft,40,8765,4,30,0,30,0,1,,,,,,,,,,,,,,,,,,,,,,,,,,,,,,,,,,,,,,,
,,,,,,,,2023-08-24_08h10.08.700,HF_wild_card,2022.2.4,Linux x86_64,60.03842459,5e54182318e10a414234535d,64e63663dbcaf322d2eec8da,64e7023ae3f4db086359aaf0,,,,,,,ctch,resources/DP.BMP,resources/DR.BMP,Door3,-0.343217969,-0.033680916,1,0,0,1.2387,optionLeft,70,8835,4,31,0,31,0,1,,,,,,,,,,,,,,,,,,,,,,,,,,,,,,,,,,,,,,,
,,,,,,,,2023-08-24_08h10.08.700,HF_wild_card,2022.2.4,Linux x86_64,60.03842459,5e54182318e10a414234535d,64e63663dbcaf322d2eec8da,64e7023ae3f4db086359aaf0,,,,,,,decisionTrl,resources/DG.BMP,resources/DY.BMP,Door4,0.341137568,-0.050100923,1,0,0,1.0799,optionRight,60,8895,4,32,0,32,0,1,,,,,,,,,,,,,,,,,,,,,,,,,,,,,,,,,,,,,,,
,,,,,,,,2023-08-24_08h10.08.700,HF_wild_card,2022.2.4,Linux x86_64,60.03842459,5e54182318e10a414234535d,64e63663dbcaf322d2eec8da,64e7023ae3f4db086359aaf0,,,,,,,sngl,resources/Empty.png,resources/DP.BMP,Door3,0.355041424,-0.054210424,1,0,0,0.8272,optionRight,70,8965,4,33,0,33,0,1,,,,,,,,,,,,,,,,,,,,,,,,,,,,,,,,,,,,,,,
,,,,,,,,2023-08-24_08h10.08.700,HF_wild_card,2022.2.4,Linux x86_64,60.03842459,5e54182318e10a414234535d,64e63663dbcaf322d2eec8da,64e7023ae3f4db086359aaf0,,,,,,,ctch,resources/DR.BMP,resources/DP.BMP,Door3,0.431517283,-0.12093242,1,0,0,0.8749,optionRight,70,9035,4,34,0,34,0,1,,,,,,,,,,,,,,,,,,,,,,,,,,,,,,,,,,,,,,,
,,,,,,,,2023-08-24_08h10.08.700,HF_wild_card,2022.2.4,Linux x86_64,60.03842459,5e54182318e10a414234535d,64e63663dbcaf322d2eec8da,64e7023ae3f4db086359aaf0,,,,,,,sngl,resources/Empty.png,resources/DBN.BMP,Door1,0.433646997,-0.004520893,1,0,0,0.8765,optionRight,30,9065,4,35,0,35,0,1,,,,,,,,,,,,,,,,,,,,,,,,,,,,,,,,,,,,,,,
,,,,,,,,2023-08-24_08h10.08.700,HF_wild_card,2022.2.4,Linux x86_64,60.03842459,5e54182318e10a414234535d,64e63663dbcaf322d2eec8da,64e7023ae3f4db086359aaf0,,,,,,,sngl,resources/Empty.png,resources/DR.BMP,Door2,0.366199414,-0.049713214,1,0,0,0.8189,optionRight,40,9105,4,36,0,36,0,1,,,,,,,,,,,,,,,,,,,,,,,,,,,,,,,,,,,,,,,
,,,,,,,,2023-08-24_08h10.08.700,HF_wild_card,2022.2.4,Linux x86_64,60.03842459,5e54182318e10a414234535d,64e63663dbcaf322d2eec8da,64e7023ae3f4db086359aaf0,,,,,,,decisionTrl,resources/DR.BMP,resources/DBN.BMP,Door2,-0.332256238,-0.077568889,1,0,0,1.1008,optionLeft,20,9125,4,37,0,37,0,1,,,,,,,,,,,,,,,,,,,,,,,,,,,,,,,,,,,,,,,
,,,,,,,,2023-08-24_08h10.08.700,HF_wild_card,2022.2.4,Linux x86_64,60.03842459,5e54182318e10a414234535d,64e63663dbcaf322d2eec8da,64e7023ae3f4db086359aaf0,,,,,,,ctch,resources/DP.BMP,resources/DR.BMP,Door3,-0.270760338,-0.044918974,1,0,0,1.0659,optionLeft,70,9195,4,38,0,38,0,1,,,,,,,,,,,,,,,,,,,,,,,,,,,,,,,,,,,,,,,
,,,,,,,,2023-08-24_08h10.08.700,HF_wild_card,2022.2.4,Linux x86_64,60.03842459,5e54182318e10a414234535d,64e63663dbcaf322d2eec8da,64e7023ae3f4db086359aaf0,,,,,,,decisionTrl,resources/DBN.BMP,resources/DR.BMP,Door2,0.221237342,-0.083855351,1,0,0,1.6797,optionRight,40,9235,4,39,0,39,0,1,,,,,,,,,,,,,,,,,,,,,,,,,,,,,,,,,,,,,,,
,,,,,,,,2023-08-24_08h10.08.700,HF_wild_card,2022.2.4,Linux x86_64,60.03842459,5e54182318e10a414234535d,64e63663dbcaf322d2eec8da,64e7023ae3f4db086359aaf0,,,,,,,sngl,resources/DG.BMP,resources/Empty.png,WildCard_NonEx,-0.432815433,-0.139605959,1,0,0,0.8424,optionLeft,55,9290,4,40,0,40,0,1,,,,,,,,,,,,,,,,,,,,,,,,,,,,,,,,,,,,,,,
,,,,,,,,2023-08-24_08h10.08.700,HF_wild_card,2022.2.4,Linux x86_64,60.03842459,5e54182318e10a414234535d,64e63663dbcaf322d2eec8da,64e7023ae3f4db086359aaf0,,,,,,,decisionTrl,resources/DP.BMP,resources/DG.BMP,Door3,-0.37488687,-0.108927925,1,0,0,1.2886,optionLeft,70,9360,4,41,0,41,0,1,,,,,,,,,,,,,,,,,,,,,,,,,,,,,,,,,,,,,,,
,,,,,,,,2023-08-24_08h10.08.700,HF_wild_card,2022.2.4,Linux x86_64,60.03842459,5e54182318e10a414234535d,64e63663dbcaf322d2eec8da,64e7023ae3f4db086359aaf0,,,,,,,decisionTrl,resources/DP.BMP,resources/DY.BMP,Door4,0.429086288,-0.098207116,1,0,0,0.9642,optionRight,60,9420,4,42,0,42,0,1,,,,,,,,,,,,,,,,,,,,,,,,,,,,,,,,,,,,,,,
,,,,,,,,2023-08-24_08h10.08.700,HF_wild_card,2022.2.4,Linux x86_64,60.03842459,5e54182318e10a414234535d,64e63663dbcaf322d2eec8da,64e7023ae3f4db086359aaf0,,,,,,,sngl,resources/Empty.png,resources/DG.BMP,WildCard_NonEx,0.333021084,-0.040303866,1,0,0,0.8558,optionRight,45,9465,4,43,0,43,0,1,,,,,,,,,,,,,,,,,,,,,,,,,,,,,,,,,,,,,,,
,,,,,,,,2023-08-24_08h10.08.700,HF_wild_card,2022.2.4,Linux x86_64,60.03842459,5e54182318e10a414234535d,64e63663dbcaf322d2eec8da,64e7023ae3f4db086359aaf0,,,,,,,,,,,,,,,,,,,,,,,,,,3,0,3,0,1,,,,,,,,,,,,,,,,,,,,,,,,,,,,,,,,,,
,,,,,,,,2023-08-24_08h10.08.700,HF_wild_card,2022.2.4,Linux x86_64,60.03842459,5e54182318e10a414234535d,64e63663dbcaf322d2eec8da,64e7023ae3f4db086359aaf0,,,,,,,decisionTrl,resources/DY.BMP,resources/DP.BMP,Door3,0.342829307,-0.03746295,1,0,0,1.3668,optionRight,70,9535,5,0,0,0,0,1,,,,,,,,,,,,,,,,,,,,,,,,,,,,,,,,,,,,,,,
,,,,,,,,2023-08-24_08h10.08.700,HF_wild_card,2022.2.4,Linux x86_64,60.03842459,5e54182318e10a414234535d,64e63663dbcaf322d2eec8da,64e7023ae3f4db086359aaf0,,,,,,,decisionTrl,resources/DR.BMP,resources/DG.BMP,WildCard_NonEx,0.321317911,-0.046188752,1,0,0,1.208,optionRight,45,9580,5,1,0,1,0,1,,,,,,,,,,,,,,,,,,,,,,,,,,,,,,,,,,,,,,,
,,,,,,,,2023-08-24_08h10.08.700,HF_wild_card,2022.2.4,Linux x86_64,60.03842459,5e54182318e10a414234535d,64e63663dbcaf322d2eec8da,64e7023ae3f4db086359aaf0,,,,,,,decisionTrl,resources/DG.BMP,resources/DR.BMP,WildCard_NonEx,-0.341278315,-0.010449012,1,0,0,1.1427,optionLeft,55,9635,5,2,0,2,0,1,,,,,,,,,,,,,,,,,,,,,,,,,,,,,,,,,,,,,,,
,,,,,,,,2023-08-24_08h10.08.700,HF_wild_card,2022.2.4,Linux x86_64,60.03842459,5e54182318e10a414234535d,64e63663dbcaf322d2eec8da,64e7023ae3f4db086359aaf0,,,,,,,ctch,resources/DBN.BMP,resources/DY.BMP,Door4,0.339212735,-0.058165312,1,0,0,0.946,optionRight,60,9695,5,3,0,3,0,1,,,,,,,,,,,,,,,,,,,,,,,,,,,,,,,,,,,,,,,
,,,,,,,,2023-08-24_08h10.08.700,HF_wild_card,2022.2.4,Linux x86_64,60.03842459,5e54182318e10a414234535d,64e63663dbcaf322d2eec8da,64e7023ae3f4db086359aaf0,,,,,,,decisionTrl,resources/DR.BMP,resources/DBN.BMP,Door2,-0.392863949,-0.093413115,1,0,0,1.509,optionLeft,40,9735,5,4,0,4,0,1,,,,,,,,,,,,,,,,,,,,,,,,,,,,,,,,,,,,,,,
,,,,,,,,2023-08-24_08h10.08.700,HF_wild_card,2022.2.4,Linux x86_64,60.03842459,5e54182318e10a414234535d,64e63663dbcaf322d2eec8da,64e7023ae3f4db086359aaf0,,,,,,,decisionTrl,resources/DY.BMP,resources/DP.BMP,Door3,0.494254271,-0.029580394,1,0,0,0.729,optionRight,70,9805,5,5,0,5,0,1,,,,,,,,,,,,,,,,,,,,,,,,,,,,,,,,,,,,,,,
,,,,,,,,2023-08-24_08h10.08.700,HF_wild_card,2022.2.4,Linux x86_64,60.03842459,5e54182318e10a414234535d,64e63663dbcaf322d2eec8da,64e7023ae3f4db086359aaf0,,,,,,,decisionTrl,resources/DR.BMP,resources/DBN.BMP,Door2,-0.429598848,-0.118935784,1,0,0,0.9913,optionLeft,40,9845,5,6,0,6,0,1,,,,,,,,,,,,,,,,,,,,,,,,,,,,,,,,,,,,,,,
,,,,,,,,2023-08-24_08h10.08.700,HF_wild_card,2022.2.4,Linux x86_64,60.03842459,5e54182318e10a414234535d,64e63663dbcaf322d2eec8da,64e7023ae3f4db086359aaf0,,,,,,,sngl,resources/DY.BMP,resources/Empty.png,Door4,-0.270601312,-0.065270384,1,0,0,0.8598,optionLeft,80,9925,5,7,0,7,0,1,,,,,,,,,,,,,,,,,,,,,,,,,,,,,,,,,,,,,,,
,,,,,,,,2023-08-24_08h10.08.700,HF_wild_card,2022.2.4,Linux x86_64,60.03842459,5e54182318e10a414234535d,64e63663dbcaf322d2eec8da,64e7023ae3f4db086359aaf0,,,,,,,decisionTrl,resources/DY.BMP,resources/DP.BMP,Door4,-0.31622386,-0.099715988,1,0,0,0.8761,optionLeft,60,9985,5,8,0,8,0,1,,,,,,,,,,,,,,,,,,,,,,,,,,,,,,,,,,,,,,,
,,,,,,,,2023-08-24_08h10.08.700,HF_wild_card,2022.2.4,Linux x86_64,60.03842459,5e54182318e10a414234535d,64e63663dbcaf322d2eec8da,64e7023ae3f4db086359aaf0,,,,,,,decisionTrl,resources/DR.BMP,resources/DBN.BMP,Door2,-0.309244911,-0.056117813,1,0,0,0.9914,optionLeft,20,10005,5,9,0,9,0,1,,,,,,,,,,,,,,,,,,,,,,,,,,,,,,,,,,,,,,,
,,,,,,,,2023-08-24_08h10.08.700,HF_wild_card,2022.2.4,Linux x86_64,60.03842459,5e54182318e10a414234535d,64e63663dbcaf322d2eec8da,64e7023ae3f4db086359aaf0,,,,,,,ctch,resources/DR.BMP,resources/DP.BMP,Door3,0.359150887,-0.062821428,1,0,0,0.8682,optionRight,70,10075,5,10,0,10,0,1,,,,,,,,,,,,,,,,,,,,,,,,,,,,,,,,,,,,,,,
,,,,,,,,2023-08-24_08h10.08.700,HF_wild_card,2022.2.4,Linux x86_64,60.03842459,5e54182318e10a414234535d,64e63663dbcaf322d2eec8da,64e7023ae3f4db086359aaf0,,,,,,,decisionTrl,resources/DR.BMP,resources/DBN.BMP,Door1,0.268454313,-0.017969608,1,0,0,1.2359,optionRight,30,10105,5,11,0,11,0,1,,,,,,,,,,,,,,,,,,,,,,,,,,,,,,,,,,,,,,,
,,,,,,,,2023-08-24_08h10.08.700,HF_wild_card,2022.2.4,Linux x86_64,60.03842459,5e54182318e10a414234535d,64e63663dbcaf322d2eec8da,64e7023ae3f4db086359aaf0,,,,,,,decisionTrl,resources/DBN.BMP,resources/DG.BMP,WildCard_NonEx,0.36624225,-0.027468403,1,0,0,0.8143,optionRight,55,10160,5,12,0,12,0,1,,,,,,,,,,,,,,,,,,,,,,,,,,,,,,,,,,,,,,,
,,,,,,,,2023-08-24_08h10.08.700,HF_wild_card,2022.2.4,Linux x86_64,60.03842459,5e54182318e10a414234535d,64e63663dbcaf322d2eec8da,64e7023ae3f4db086359aaf0,,,,,,,decisionTrl,resources/DBN.BMP,resources/DR.BMP,Door2,0.303119977,-0.019314806,1,0,0,1.1557,optionRight,40,10200,5,13,0,13,0,1,,,,,,,,,,,,,,,,,,,,,,,,,,,,,,,,,,,,,,,
,,,,,,,,2023-08-24_08h10.08.700,HF_wild_card,2022.2.4,Linux x86_64,60.03842459,5e54182318e10a414234535d,64e63663dbcaf322d2eec8da,64e7023ae3f4db086359aaf0,,,,,,,decisionTrl,resources/DP.BMP,resources/DY.BMP,Door3,-0.288842837,-0.0812428,1,0,0,1.6369,optionLeft,70,10270,5,14,0,14,0,1,,,,,,,,,,,,,,,,,,,,,,,,,,,,,,,,,,,,,,,
,,,,,,,,2023-08-24_08h10.08.700,HF_wild_card,2022.2.4,Linux x86_64,60.03842459,5e54182318e10a414234535d,64e63663dbcaf322d2eec8da,64e7023ae3f4db086359aaf0,,,,,,,decisionTrl,resources/DBN.BMP,resources/DR.BMP,Door2,0.340006431,-0.026597142,1,0,0,1.0703,optionRight,40,10310,5,15,0,15,0,1,,,,,,,,,,,,,,,,,,,,,,,,,,,,,,,,,,,,,,,
,,,,,,,,2023-08-24_08h10.08.700,HF_wild_card,2022.2.4,Linux x86_64,60.03842459,5e54182318e10a414234535d,64e63663dbcaf322d2eec8da,64e7023ae3f4db086359aaf0,,,,,,,decisionTrl,resources/DP.BMP,resources/DY.BMP,Door4,0.419943968,-0.073324641,1,0,0,0.8916,optionRight,80,10390,5,16,0,16,0,1,,,,,,,,,,,,,,,,,,,,,,,,,,,,,,,,,,,,,,,
,,,,,,,,2023-08-24_08h10.08.700,HF_wild_card,2022.2.4,Linux x86_64,60.03842459,5e54182318e10a414234535d,64e63663dbcaf322d2eec8da,64e7023ae3f4db086359aaf0,,,,,,,ctch,resources/DY.BMP,resources/DBN.BMP,Door4,-0.290449937,-0.101392905,1,0,0,1.0117,optionLeft,60,10450,5,17,0,17,0,1,,,,,,,,,,,,,,,,,,,,,,,,,,,,,,,,,,,,,,,
,,,,,,,,2023-08-24_08h10.08.700,HF_wild_card,2022.2.4,Linux x86_64,60.03842459,5e54182318e10a414234535d,64e63663dbcaf322d2eec8da,64e7023ae3f4db086359aaf0,,,,,,,sngl,resources/Empty.png,resources/DBN.BMP,Door1,0.297829072,-0.021271189,1,0,0,1.0241,optionRight,30,10480,5,18,0,18,0,1,,,,,,,,,,,,,,,,,,,,,,,,,,,,,,,,,,,,,,,
,,,,,,,,2023-08-24_08h10.08.700,HF_wild_card,2022.2.4,Linux x86_64,60.03842459,5e54182318e10a414234535d,64e63663dbcaf322d2eec8da,64e7023ae3f4db086359aaf0,,,,,,,decisionTrl,resources/DY.BMP,resources/DP.BMP,Door3,0.292791049,-0.068338195,1,0,0,1.2483,optionRight,70,10550,5,19,0,19,0,1,,,,,,,,,,,,,,,,,,,,,,,,,,,,,,,,,,,,,,,
,,,,,,,,2023-08-24_08h10.08.700,HF_wild_card,2022.2.4,Linux x86_64,60.03842459,5e54182318e10a414234535d,64e63663dbcaf322d2eec8da,64e7023ae3f4db086359aaf0,,,,,,,decisionTrl,resources/DG.BMP,resources/DY.BMP,Door4,0.275023778,-0.047549208,1,0,0,0.9588,optionRight,60,10610,5,20,0,20,0,1,,,,,,,,,,,,,,,,,,,,,,,,,,,,,,,,,,,,,,,
,,,,,,,,2023-08-24_08h10.08.700,HF_wild_card,2022.2.4,Linux x86_64,60.03842459,5e54182318e10a414234535d,64e63663dbcaf322d2eec8da,64e7023ae3f4db086359aaf0,,,,,,,sngl,resources/Empty.png,resources/DG.BMP,WildCard_NonEx,0.405756712,-0.033108632,1,0,0,0.8281,optionRight,45,10655,5,21,0,21,0,1,,,,,,,,,,,,,,,,,,,,,,,,,,,,,,,,,,,,,,,
,,,,,,,,2023-08-24_08h10.08.700,HF_wild_card,2022.2.4,Linux x86_64,60.03842459,5e54182318e10a414234535d,64e63663dbcaf322d2eec8da,64e7023ae3f4db086359aaf0,,,,,,,sngl,resources/Empty.png,resources/DG.BMP,WildCard_NonEx,0.255508105,-0.037838101,1,0,0,0.8692,optionRight,55,10710,5,22,0,22,0,1,,,,,,,,,,,,,,,,,,,,,,,,,,,,,,,,,,,,,,,
,,,,,,,,2023-08-24_08h10.08.700,HF_wild_card,2022.2.4,Linux x86_64,60.03842459,5e54182318e10a414234535d,64e63663dbcaf322d2eec8da,64e7023ae3f4db086359aaf0,,,,,,,ctch,resources/DY.BMP,resources/DBN.BMP,Door4,-0.376049757,-0.037469029,1,0,0,0.9862,optionLeft,80,10790,5,23,0,23,0,1,,,,,,,,,,,,,,,,,,,,,,,,,,,,,,,,,,,,,,,
,,,,,,,,2023-08-24_08h10.08.700,HF_wild_card,2022.2.4,Linux x86_64,60.03842459,5e54182318e10a414234535d,64e63663dbcaf322d2eec8da,64e7023ae3f4db086359aaf0,,,,,,,ctch,resources/DP.BMP,resources/DR.BMP,Door3,-0.282762011,-0.047309399,1,0,0,1.4086,optionLeft,70,10860,5,24,0,24,0,1,,,,,,,,,,,,,,,,,,,,,,,,,,,,,,,,,,,,,,,
,,,,,,,,2023-08-24_08h10.08.700,HF_wild_card,2022.2.4,Linux x86_64,60.03842459,5e54182318e10a414234535d,64e63663dbcaf322d2eec8da,64e7023ae3f4db086359aaf0,,,,,,,decisionTrl,resources/DG.BMP,resources/DP.BMP,Door3,0.485566457,-0.036574841,1,0,0,1.227,optionRight,70,10930,5,25,0,25,0,1,,,,,,,,,,,,,,,,,,,,,,,,,,,,,,,,,,,,,,,
,,,,,,,,2023-08-24_08h10.08.700,HF_wild_card,2022.2.4,Linux x86_64,60.03842459,5e54182318e10a414234535d,64e63663dbcaf322d2eec8da,64e7023ae3f4db086359aaf0,,,,,,,ctch,resources/DP.BMP,resources/DR.BMP,Door3,-0.42029647,-0.143450896,1,0,0,0.8768,optionLeft,70,11000,5,26,0,26,0,1,,,,,,,,,,,,,,,,,,,,,,,,,,,,,,,,,,,,,,,
,,,,,,,,2023-08-24_08h10.08.700,HF_wild_card,2022.2.4,Linux x86_64,60.03842459,5e54182318e10a414234535d,64e63663dbcaf322d2eec8da,64e7023ae3f4db086359aaf0,,,,,,,sngl,resources/DG.BMP,resources/Empty.png,WildCard_NonEx,-0.29693222,-0.050706148,1,0,0,0.9995,optionLeft,55,11055,5,27,0,27,0,1,,,,,,,,,,,,,,,,,,,,,,,,,,,,,,,,,,,,,,,
,,,,,,,,2023-08-24_08h10.08.700,HF_wild_card,2022.2.4,Linux x86_64,60.03842459,5e54182318e10a414234535d,64e63663dbcaf322d2eec8da,64e7023ae3f4db086359aaf0,,,,,,,sngl,resources/DBN.BMP,resources/Empty.png,Door1,-0.346598824,-0.035683632,1,0,0,0.8309,optionLeft,30,11085,5,28,0,28,0,1,,,,,,,,,,,,,,,,,,,,,,,,,,,,,,,,,,,,,,,
,,,,,,,,2023-08-24_08h10.08.700,HF_wild_card,2022.2.4,Linux x86_64,60.03842459,5e54182318e10a414234535d,64e63663dbcaf322d2eec8da,64e7023ae3f4db086359aaf0,,,,,,,decisionTrl,resources/DP.BMP,resources/DG.BMP,Door3,-0.469985207,-0.063981533,1,0,0,1.1653,optionLeft,70,11155,5,29,0,29,0,1,,,,,,,,,,,,,,,,,,,,,,,,,,,,,,,,,,,,,,,
,,,,,,,,2023-08-24_08h10.08.700,HF_wild_card,2022.2.4,Linux x86_64,60.03842459,5e54182318e10a414234535d,64e63663dbcaf322d2eec8da,64e7023ae3f4db086359aaf0,,,,,,,sngl,resources/Empty.png,resources/DY.BMP,Door4,0.280727704,-0.042140206,1,0,0,0.8165,optionRight,60,11215,5,30,0,30,0,1,,,,,,,,,,,,,,,,,,,,,,,,,,,,,,,,,,,,,,,
,,,,,,,,2023-08-24_08h10.08.700,HF_wild_card,2022.2.4,Linux x86_64,60.03842459,5e54182318e10a414234535d,64e63663dbcaf322d2eec8da,64e7023ae3f4db086359aaf0,,,,,,,decisionTrl,resources/DG.BMP,resources/DBN.BMP,WildCard_NonEx,-0.397285779,-0.046496669,1,0,0,0.8853,optionLeft,45,11260,5,31,0,31,0,1,,,,,,,,,,,,,,,,,,,,,,,,,,,,,,,,,,,,,,,
,,,,,,,,2023-08-24_08h10.08.700,HF_wild_card,2022.2.4,Linux x86_64,60.03842459,5e54182318e10a414234535d,64e63663dbcaf322d2eec8da,64e7023ae3f4db086359aaf0,,,,,,,decisionTrl,resources/DBN.BMP,resources/DR.BMP,Door2,0.435514688,-0.019185662,1,0,0,1.2749,optionRight,20,11280,5,32,0,32,0,1,,,,,,,,,,,,,,,,,,,,,,,,,,,,,,,,,,,,,,,
,,,,,,,,2023-08-24_08h10.08.700,HF_wild_card,2022.2.4,Linux x86_64,60.03842459,5e54182318e10a414234535d,64e63663dbcaf322d2eec8da,64e7023ae3f4db086359aaf0,,,,,,,ctch,resources/DBN.BMP,resources/DY.BMP,Door4,0.350052675,-0.046676517,1,0,0,0.9214,optionRight,80,11360,5,33,0,33,0,1,,,,,,,,,,,,,,,,,,,,,,,,,,,,,,,,,,,,,,,
,,,,,,,,2023-08-24_08h10.08.700,HF_wild_card,2022.2.4,Linux x86_64,60.03842459,5e54182318e10a414234535d,64e63663dbcaf322d2eec8da,64e7023ae3f4db086359aaf0,,,,,,,decisionTrl,resources/DP.BMP,resources/DY.BMP,Door4,0.307104905,-0.032886624,1,0,0,0.8527,optionRight,60,11420,5,34,0,34,0,1,,,,,,,,,,,,,,,,,,,,,,,,,,,,,,,,,,,,,,,
,,,,,,,,2023-08-24_08h10.08.700,HF_wild_card,2022.2.4,Linux x86_64,60.03842459,5e54182318e10a414234535d,64e63663dbcaf322d2eec8da,64e7023ae3f4db086359aaf0,,,,,,,decisionTrl,resources/DBN.BMP,resources/DR.BMP,Door2,0.2937421,-0.01357762,1,0,0,1.0459,optionRight,40,11460,5,35,0,35,0,1,,,,,,,,,,,,,,,,,,,,,,,,,,,,,,,,,,,,,,,
,,,,,,,,2023-08-24_08h10.08.700,HF_wild_card,2022.2.4,Linux x86_64,60.03842459,5e54182318e10a414234535d,64e63663dbcaf322d2eec8da,64e7023ae3f4db086359aaf0,,,,,,,sngl,resources/DR.BMP,resources/Empty.png,Door2,-0.30646352,-0.064369639,1,0,0,0.8067,optionLeft,40,11500,5,36,0,36,0,1,,,,,,,,,,,,,,,,,,,,,,,,,,,,,,,,,,,,,,,
,,,,,,,,2023-08-24_08h10.08.700,HF_wild_card,2022.2.4,Linux x86_64,60.03842459,5e54182318e10a414234535d,64e63663dbcaf322d2eec8da,64e7023ae3f4db086359aaf0,,,,,,,sngl,resources/Empty.png,resources/DR.BMP,Door2,0.386149724,-0.028664788,1,0,0,0.7401,optionRight,20,11520,5,37,0,37,0,1,,,,,,,,,,,,,,,,,,,,,,,,,,,,,,,,,,,,,,,
,,,,,,,,2023-08-24_08h10.08.700,HF_wild_card,2022.2.4,Linux x86_64,60.03842459,5e54182318e10a414234535d,64e63663dbcaf322d2eec8da,64e7023ae3f4db086359aaf0,,,,,,,decisionTrl,resources/DY.BMP,resources/DG.BMP,Door4,-0.3406895,0.02671814,1,0,0,2.1882,optionLeft,60,11580,5,38,0,38,0,1,,,,,,,,,,,,,,,,,,,,,,,,,,,,,,,,,,,,,,,
,,,,,,,,2023-08-24_08h10.08.700,HF_wild_card,2022.2.4,Linux x86_64,60.03842459,5e54182318e10a414234535d,64e63663dbcaf322d2eec8da,64e7023ae3f4db086359aaf0,,,,,,,ctch,resources/DR.BMP,resources/DP.BMP,Door3,0.390104532,-0.057250182,1,0,0,0.8418,optionRight,70,11650,5,39,0,39,0,1,,,,,,,,,,,,,,,,,,,,,,,,,,,,,,,,,,,,,,,
,,,,,,,,2023-08-24_08h10.08.700,HF_wild_card,2022.2.4,Linux x86_64,60.03842459,5e54182318e10a414234535d,64e63663dbcaf322d2eec8da,64e7023ae3f4db086359aaf0,,,,,,,decisionTrl,resources/DP.BMP,resources/DY.BMP,Door3,-0.28923893,-0.065026323,1,0,0,0.8685,optionLeft,70,11720,5,40,0,40,0,1,,,,,,,,,,,,,,,,,,,,,,,,,,,,,,,,,,,,,,,
,,,,,,,,2023-08-24_08h10.08.700,HF_wild_card,2022.2.4,Linux x86_64,60.03842459,5e54182318e10a414234535d,64e63663dbcaf322d2eec8da,64e7023ae3f4db086359aaf0,,,,,,,sngl,resources/Empty.png,resources/DP.BMP,Door3,0.324114243,-0.027809461,1,0,0,0.7687,optionRight,70,11790,5,41,0,41,0,1,,,,,,,,,,,,,,,,,,,,,,,,,,,,,,,,,,,,,,,
,,,,,,,,2023-08-24_08h10.08.700,HF_wild_card,2022.2.4,Linux x86_64,60.03842459,5e54182318e10a414234535d,64e63663dbcaf322d2eec8da,64e7023ae3f4db086359aaf0,,,,,,,sngl,resources/DG.BMP,resources/Empty.png,WildCard_NonEx,-0.324142655,-0.051804741,1,0,0,0.8212,optionLeft,45,11835,5,42,0,42,0,1,,,,,,,,,,,,,,,,,,,,,,,,,,,,,,,,,,,,,,,
,,,,,,,,2023-08-24_08h10.08.700,HF_wild_card,2022.2.4,Linux x86_64,60.03842459,5e54182318e10a414234535d,64e63663dbcaf322d2eec8da,64e7023ae3f4db086359aaf0,,,,,,,sngl,resources/DP.BMP,resources/Empty.png,Door3,-0.324431141,-0.072157343,1,0,0,0.8702,optionLeft,70,11905,5,43,0,43,0,1,,,,,,,,,,,,,,,,,,,,,,,,,,,,,,,,,,,,,,,
,,,,,,,,2023-08-24_08h10.08.700,HF_wild_card,2022.2.4,Linux x86_64,60.03842459,5e54182318e10a414234535d,64e63663dbcaf322d2eec8da,64e7023ae3f4db086359aaf0,,,,,,,,,,,,,,,,,,,,,,,,,,4,0,4,0,1,,,,,,,,,,,,,,,,,,,,,,,,,,,,,,,,,,
,,,,,,,,2023-08-24_08h10.08.700,HF_wild_card,2022.2.4,Linux x86_64,60.03842459,5e54182318e10a414234535d,64e63663dbcaf322d2eec8da,64e7023ae3f4db086359aaf0,,,,,,,decisionTrl,resources/DG.BMP,resources/DBN.BMP,WildCard_NonEx,-0.403625846,0.007263621,1,0,0,1.4053,optionLeft,55,11960,6,0,0,0,0,1,,,,,,,,,,,,,,,,,,,,,,,,,,,,,,,,,,,,,,,
,,,,,,,,2023-08-24_08h10.08.700,HF_wild_card,2022.2.4,Linux x86_64,60.03842459,5e54182318e10a414234535d,64e63663dbcaf322d2eec8da,64e7023ae3f4db086359aaf0,,,,,,,decisionTrl,resources/DG.BMP,resources/DP.BMP,Door3,0.249816418,-0.086138368,1,0,0,1.4404,optionRight,70,12030,6,1,0,1,0,1,,,,,,,,,,,,,,,,,,,,,,,,,,,,,,,,,,,,,,,
,,,,,,,,2023-08-24_08h10.08.700,HF_wild_card,2022.2.4,Linux x86_64,60.03842459,5e54182318e10a414234535d,64e63663dbcaf322d2eec8da,64e7023ae3f4db086359aaf0,,,,,,,decisionTrl,resources/DBN.BMP,resources/DR.BMP,Door2,0.396455924,-0.077480078,1,0,0,1.4046,optionRight,40,12070,6,2,0,2,0,1,,,,,,,,,,,,,,,,,,,,,,,,,,,,,,,,,,,,,,,
,,,,,,,,2023-08-24_08h10.08.700,HF_wild_card,2022.2.4,Linux x86_64,60.03842459,5e54182318e10a414234535d,64e63663dbcaf322d2eec8da,64e7023ae3f4db086359aaf0,,,,,,,decisionTrl,resources/DR.BMP,resources/DBN.BMP,Door2,-0.330071847,-0.072893381,1,0,0,1.1251,optionLeft,20,12090,6,3,0,3,0,1,,,,,,,,,,,,,,,,,,,,,,,,,,,,,,,,,,,,,,,
,,,,,,,,2023-08-24_08h10.08.700,HF_wild_card,2022.2.4,Linux x86_64,60.03842459,5e54182318e10a414234535d,64e63663dbcaf322d2eec8da,64e7023ae3f4db086359aaf0,,,,,,,decisionTrl,resources/DBN.BMP,resources/DG.BMP,WildCard_NonEx,0.349322637,-0.022505244,1,0,0,0.9384,optionRight,55,12145,6,4,0,4,0,1,,,,,,,,,,,,,,,,,,,,,,,,,,,,,,,,,,,,,,,
,,,,,,,,2023-08-24_08h10.08.700,HF_wild_card,2022.2.4,Linux x86_64,60.03842459,5e54182318e10a414234535d,64e63663dbcaf322d2eec8da,64e7023ae3f4db086359aaf0,,,,,,,ctch,resources/DY.BMP,resources/DBN.BMP,Door4,-0.308058659,-0.055899382,1,0,0,0.9329,optionLeft,60,12205,6,5,0,5,0,1,,,,,,,,,,,,,,,,,,,,,,,,,,,,,,,,,,,,,,,
,,,,,,,,2023-08-24_08h10.08.700,HF_wild_card,2022.2.4,Linux x86_64,60.03842459,5e54182318e10a414234535d,64e63663dbcaf322d2eec8da,64e7023ae3f4db086359aaf0,,,,,,,sngl,resources/DP.BMP,resources/Empty.png,Door3,-0.401369651,-0.103945692,1,0,0,0.8907,optionLeft,70,12275,6,6,0,6,0,1,,,,,,,,,,,,,,,,,,,,,,,,,,,,,,,,,,,,,,,
,,,,,,,,2023-08-24_08h10.08.700,HF_wild_card,2022.2.4,Linux x86_64,60.03842459,5e54182318e10a414234535d,64e63663dbcaf322d2eec8da,64e7023ae3f4db086359aaf0,,,,,,,decisionTrl,resources/DBN.BMP,resources/DR.BMP,Door2,0.415253798,-0.128107111,1,0,0,1.6692,optionRight,40,12315,6,7,0,7,0,1,,,,,,,,,,,,,,,,,,,,,,,,,,,,,,,,,,,,,,,
,,,,,,,,2023-08-24_08h10.08.700,HF_wild_card,2022.2.4,Linux x86_64,60.03842459,5e54182318e10a414234535d,64e63663dbcaf322d2eec8da,64e7023ae3f4db086359aaf0,,,,,,,ctch,resources/DR.BMP,resources/DP.BMP,Door3,0.439712445,-0.015591184,1,0,0,1.0447,optionRight,70,12385,6,8,0,8,0,1,,,,,,,,,,,,,,,,,,,,,,,,,,,,,,,,,,,,,,,
,,,,,,,,2023-08-24_08h10.08.700,HF_wild_card,2022.2.4,Linux x86_64,60.03842459,5e54182318e10a414234535d,64e63663dbcaf322d2eec8da,64e7023ae3f4db086359aaf0,,,,,,,ctch,resources/DP.BMP,resources/DR.BMP,Door3,-0.300308704,-0.059019883,1,0,0,0.9626,optionLeft,70,12455,6,9,0,9,0,1,,,,,,,,,,,,,,,,,,,,,,,,,,,,,,,,,,,,,,,
,,,,,,,,2023-08-24_08h10.08.700,HF_wild_card,2022.2.4,Linux x86_64,60.03842459,5e54182318e10a414234535d,64e63663dbcaf322d2eec8da,64e7023ae3f4db086359aaf0,,,,,,,ctch,resources/DR.BMP,resources/DP.BMP,Door3,0.418156624,-0.096018434,1,0,0,0.7868,optionRight,70,12525,6,10,0,10,0,1,,,,,,,,,,,,,,,,,,,,,,,,,,,,,,,,,,,,,,,
,,,,,,,,2023-08-24_08h10.08.700,HF_wild_card,2022.2.4,Linux x86_64,60.03842459,5e54182318e10a414234535d,64e63663dbcaf322d2eec8da,64e7023ae3f4db086359aaf0,,,,,,,decisionTrl,resources/DY.BMP,resources/DP.BMP,Door3,0.37313358,-0.052730878,1,0,0,1.0902,optionRight,70,12595,6,11,0,11,0,1,,,,,,,,,,,,,,,,,,,,,,,,,,,,,,,,,,,,,,,
,,,,,,,,2023-08-24_08h10.08.700,HF_wild_card,2022.2.4,Linux x86_64,60.03842459,5e54182318e10a414234535d,64e63663dbcaf322d2eec8da,64e7023ae3f4db086359aaf0,,,,,,,decisionTrl,resources/DBN.BMP,resources/DR.BMP,Door2,0.402739763,-0.071041107,1,0,0,0.9057,optionRight,20,12615,6,12,0,12,0,1,,,,,,,,,,,,,,,,,,,,,,,,,,,,,,,,,,,,,,,
,,,,,,,,2023-08-24_08h10.08.700,HF_wild_card,2022.2.4,Linux x86_64,60.03842459,5e54182318e10a414234535d,64e63663dbcaf322d2eec8da,64e7023ae3f4db086359aaf0,,,,,,,sngl,resources/Empty.png,resources/DY.BMP,Door4,0.314324061,-0.019532998,1,0,0,0.8571,optionRight,80,12695,6,13,0,13,0,1,,,,,,,,,,,,,,,,,,,,,,,,,,,,,,,,,,,,,,,
,,,,,,,,2023-08-24_08h10.08.700,HF_wild_card,2022.2.4,Linux x86_64,60.03842459,5e54182318e10a414234535d,64e63663dbcaf322d2eec8da,64e7023ae3f4db086359aaf0,,,,,,,decisionTrl,resources/DBN.BMP,resources/DR.BMP,Door1,-0.42517519,-0.05757618,1,0,0,0.834,optionLeft,30,12725,6,14,0,14,0,1,,,,,,,,,,,,,,,,,,,,,,,,,,,,,,,,,,,,,,,
,,,,,,,,2023-08-24_08h10.08.700,HF_wild_card,2022.2.4,Linux x86_64,60.03842459,5e54182318e10a414234535d,64e63663dbcaf322d2eec8da,64e7023ae3f4db086359aaf0,,,,,,,sngl,resources/Empty.png,resources/DG.BMP,WildCard_NonEx,0.346076647,-0.045047124,1,0,0,0.7878,optionRight,45,12770,6,15,0,15,0,1,,,,,,,,,,,,,,,,,,,,,,,,,,,,,,,,,,,,,,,
,,,,,,,,2023-08-24_08h10.08.700,HF_wild_card,2022.2.4,Linux x86_64,60.03842459,5e54182318e10a414234535d,64e63663dbcaf322d2eec8da,64e7023ae3f4db086359aaf0,,,,,,,decisionTrl,resources/DY.BMP,resources/DP.BMP,Door4,-0.358700474,-0.103419304,1,0,0,1.6629,optionLeft,60,12830,6,16,0,16,0,1,,,,,,,,,,,,,,,,,,,,,,,,,,,,,,,,,,,,,,,
,,,,,,,,2023-08-24_08h10.08.700,HF_wild_card,2022.2.4,Linux x86_64,60.03842459,5e54182318e10a414234535d,64e63663dbcaf322d2eec8da,64e7023ae3f4db086359aaf0,,,,,,,sngl,resources/DR.BMP,resources/Empty.png,Door2,-0.386784712,-0.05828921,1,0,0,0.9314,optionLeft,20,12850,6,17,0,17,0,1,,,,,,,,,,,,,,,,,,,,,,,,,,,,,,,,,,,,,,,
,,,,,,,,2023-08-24_08h10.08.700,HF_wild_card,2022.2.4,Linux x86_64,60.03842459,5e54182318e10a414234535d,64e63663dbcaf322d2eec8da,64e7023ae3f4db086359aaf0,,,,,,,sngl,resources/Empty.png,resources/DR.BMP,Door2,0.357756058,-0.042871753,1,0,0,0.758,optionRight,40,12890,6,18,0,18,0,1,,,,,,,,,,,,,,,,,,,,,,,,,,,,,,,,,,,,,,,
,,,,,,,,2023-08-24_08h10.08.700,HF_wild_card,2022.2.4,Linux x86_64,60.03842459,5e54182318e10a414234535d,64e63663dbcaf322d2eec8da,64e7023ae3f4db086359aaf0,,,,,,,decisionTrl,resources/DY.BMP,resources/DP.BMP,Door3,0.301013867,-0.036307017,1,0,0,1.1621,optionRight,70,12960,6,19,0,19,0,1,,,,,,,,,,,,,,,,,,,,,,,,,,,,,,,,,,,,,,,
,,,,,,,,2023-08-24_08h10.08.700,HF_wild_card,2022.2.4,Linux x86_64,60.03842459,5e54182318e10a414234535d,64e63663dbcaf322d2eec8da,64e7023ae3f4db086359aaf0,,,,,,,ctch,resources/DY.BMP,resources/DBN.BMP,Door4,-0.398082018,-0.062795997,1,0,0,1.01,optionLeft,80,13040,6,20,0,20,0,1,,,,,,,,,,,,,,,,,,,,,,,,,,,,,,,,,,,,,,,
,,,,,,,,2023-08-24_08h10.08.700,HF_wild_card,2022.2.4,Linux x86_64,60.03842459,5e54182318e10a414234535d,64e63663dbcaf322d2eec8da,64e7023ae3f4db086359aaf0,,,,,,,ctch,resources/DBN.BMP,resources/DY.BMP,Door4,0.34967494,-0.052519639,1,0,0,0.7174,optionRight,80,13120,6,21,0,21,0,1,,,,,,,,,,,,,,,,,,,,,,,,,,,,,,,,,,,,,,,
,,,,,,,,2023-08-24_08h10.08.700,HF_wild_card,2022.2.4,Linux x86_64,60.03842459,5e54182318e10a414234535d,64e63663dbcaf322d2eec8da,64e7023ae3f4db086359aaf0,,,,,,,decisionTrl,resources/DP.BMP,resources/DY.BMP,Door4,0.227792978,-0.044480602,1,0,0,0.7231,optionRight,80,13200,6,22,0,22,0,1,,,,,,,,,,,,,,,,,,,,,,,,,,,,,,,,,,,,,,,
,,,,,,,,2023-08-24_08h10.08.700,HF_wild_card,2022.2.4,Linux x86_64,60.03842459,5e54182318e10a414234535d,64e63663dbcaf322d2eec8da,64e7023ae3f4db086359aaf0,,,,,,,sngl,resources/DG.BMP,resources/Empty.png,WildCard_NonEx,-0.380486727,-0.048032443,1,0,0,0.7654,optionLeft,45,13245,6,23,0,23,0,1,,,,,,,,,,,,,,,,,,,,,,,,,,,,,,,,,,,,,,,
,,,,,,,,2023-08-24_08h10.08.700,HF_wild_card,2022.2.4,Linux x86_64,60.03842459,5e54182318e10a414234535d,64e63663dbcaf322d2eec8da,64e7023ae3f4db086359aaf0,,,,,,,decisionTrl,resources/DR.BMP,resources/DBN.BMP,Door1,0.313333511,-0.025726358,1,0,0,1.7549,optionRight,30,13275,6,24,0,24,0,1,,,,,,,,,,,,,,,,,,,,,,,,,,,,,,,,,,,,,,,
,,,,,,,,2023-08-24_08h10.08.700,HF_wild_card,2022.2.4,Linux x86_64,60.03842459,5e54182318e10a414234535d,64e63663dbcaf322d2eec8da,64e7023ae3f4db086359aaf0,,,,,,,decisionTrl,resources/DP.BMP,resources/DG.BMP,WildCard_NonEx,0.508604685,0.036624034,1,0,0,1.2381,optionRight,55,13330,6,25,0,25,0,1,,,,,,,,,,,,,,,,,,,,,,,,,,,,,,,,,,,,,,,
,,,,,,,,2023-08-24_08h10.08.700,HF_wild_card,2022.2.4,Linux x86_64,60.03842459,5e54182318e10a414234535d,64e63663dbcaf322d2eec8da,64e7023ae3f4db086359aaf0,,,,,,,sngl,resources/DBN.BMP,resources/Empty.png,Door1,-0.371867299,-0.034053365,1,0,0,0.8923,optionLeft,30,13360,6,26,0,26,0,1,,,,,,,,,,,,,,,,,,,,,,,,,,,,,,,,,,,,,,,
,,,,,,,,2023-08-24_08h10.08.700,HF_wild_card,2022.2.4,Linux x86_64,60.03842459,5e54182318e10a414234535d,64e63663dbcaf322d2eec8da,64e7023ae3f4db086359aaf0,,,,,,,decisionTrl,resources/DR.BMP,resources/DBN.BMP,Door2,-0.323006868,-0.088128845,1,0,0,1.3981,optionLeft,20,13380,6,27,0,27,0,1,,,,,,,,,,,,,,,,,,,,,,,,,,,,,,,,,,,,,,,
,,,,,,,,2023-08-24_08h10.08.700,HF_wild_card,2022.2.4,Linux x86_64,60.03842459,5e54182318e10a414234535d,64e63663dbcaf322d2eec8da,64e7023ae3f4db086359aaf0,,,,,,,decisionTrl,resources/DY.BMP,resources/DG.BMP,Door4,-0.365076582,-0.09013168,1,0,0,1.3241,optionLeft,60,13440,6,28,0,28,0,1,,,,,,,,,,,,,,,,,,,,,,,,,,,,,,,,,,,,,,,
,,,,,,,,2023-08-24_08h10.08.700,HF_wild_card,2022.2.4,Linux x86_64,60.03842459,5e54182318e10a414234535d,64e63663dbcaf322d2eec8da,64e7023ae3f4db086359aaf0,,,,,,,decisionTrl,resources/DP.BMP,resources/DY.BMP,Door3,-0.392730912,-0.06843706,1,0,0,0.9928,optionLeft,70,13510,6,29,0,29,0,1,,,,,,,,,,,,,,,,,,,,,,,,,,,,,,,,,,,,,,,
,,,,,,,,2023-08-24_08h10.08.700,HF_wild_card,2022.2.4,Linux x86_64,60.03842459,5e54182318e10a414234535d,64e63663dbcaf322d2eec8da,64e7023ae3f4db086359aaf0,,,,,,,decisionTrl,resources/DP.BMP,resources/DY.BMP,Door3,-0.35554266,-0.050020337,1,0,0,0.8495,optionLeft,70,13580,6,30,0,30,0,1,,,,,,,,,,,,,,,,,,,,,,,,,,,,,,,,,,,,,,,
,,,,,,,,2023-08-24_08h10.08.700,HF_wild_card,2022.2.4,Linux x86_64,60.03842459,5e54182318e10a414234535d,64e63663dbcaf322d2eec8da,64e7023ae3f4db086359aaf0,,,,,,,sngl,resources/Empty.png,resources/DP.BMP,Door3,0.277826309,-0.060335279,1,0,0,0.7685,optionRight,70,13650,6,31,0,31,0,1,,,,,,,,,,,,,,,,,,,,,,,,,,,,,,,,,,,,,,,
,,,,,,,,2023-08-24_08h10.08.700,HF_wild_card,2022.2.4,Linux x86_64,60.03842459,5e54182318e10a414234535d,64e63663dbcaf322d2eec8da,64e7023ae3f4db086359aaf0,,,,,,,ctch,resources/DP.BMP,resources/DR.BMP,Door3,-0.322069724,-0.089828968,1,0,0,0.7565,optionLeft,70,13720,6,32,0,32,0,1,,,,,,,,,,,,,,,,,,,,,,,,,,,,,,,,,,,,,,,
,,,,,,,,2023-08-24_08h10.08.700,HF_wild_card,2022.2.4,Linux x86_64,60.03842459,5e54182318e10a414234535d,64e63663dbcaf322d2eec8da,64e7023ae3f4db086359aaf0,,,,,,,decisionTrl,resources/DY.BMP,resources/DP.BMP,Door3,0.363953193,-0.070590496,1,0,0,0.6376,optionRight,70,13790,6,33,0,33,0,1,,,,,,,,,,,,,,,,,,,,,,,,,,,,,,,,,,,,,,,
,,,,,,,,2023-08-24_08h10.08.700,HF_wild_card,2022.2.4,Linux x86_64,60.03842459,5e54182318e10a414234535d,64e63663dbcaf322d2eec8da,64e7023ae3f4db086359aaf0,,,,,,,decisionTrl,resources/DP.BMP,resources/DY.BMP,Door3,-0.240646521,-0.054136713,1,0,0,0.742,optionLeft,70,13860,6,34,0,34,0,1,,,,,,,,,,,,,,,,,,,,,,,,,,,,,,,,,,,,,,,
,,,,,,,,2023-08-24_08h10.08.700,HF_wild_card,2022.2.4,Linux x86_64,60.03842459,5e54182318e10a414234535d,64e63663dbcaf322d2eec8da,64e7023ae3f4db086359aaf0,,,,,,,ctch,resources/DBN.BMP,resources/DY.BMP,Door4,0.437761863,0.075073163,1,0,0,0.9277,optionRight,80,13940,6,35,0,35,0,1,,,,,,,,,,,,,,,,,,,,,,,,,,,,,,,,,,,,,,,
,,,,,,,,2023-08-24_08h10.08.700,HF_wild_card,2022.2.4,Linux x86_64,60.03842459,5e54182318e10a414234535d,64e63663dbcaf322d2eec8da,64e7023ae3f4db086359aaf0,,,,,,,decisionTrl,resources/DR.BMP,resources/DG.BMP,WildCard_NonEx,0.465692361,0.009901722,1,0,0,0.9772,optionRight,45,13985,6,36,0,36,0,1,,,,,,,,,,,,,,,,,,,,,,,,,,,,,,,,,,,,,,,
,,,,,,,,2023-08-24_08h10.08.700,HF_wild_card,2022.2.4,Linux x86_64,60.03842459,5e54182318e10a414234535d,64e63663dbcaf322d2eec8da,64e7023ae3f4db086359aaf0,,,,,,,decisionTrl,resources/DR.BMP,resources/DBN.BMP,Door2,-0.426404754,-0.135451953,1,0,0,0.7951,optionLeft,20,14005,6,37,0,37,0,1,,,,,,,,,,,,,,,,,,,,,,,,,,,,,,,,,,,,,,,
,,,,,,,,2023-08-24_08h10.08.700,HF_wild_card,2022.2.4,Linux x86_64,60.03842459,5e54182318e10a414234535d,64e63663dbcaf322d2eec8da,64e7023ae3f4db086359aaf0,,,,,,,sngl,resources/DG.BMP,resources/Empty.png,WildCard_NonEx,-0.410481254,-0.083499948,1,0,0,0.8643,optionLeft,55,14060,6,38,0,38,0,1,,,,,,,,,,,,,,,,,,,,,,,,,,,,,,,,,,,,,,,
,,,,,,,,2023-08-24_08h10.08.700,HF_wild_card,2022.2.4,Linux x86_64,60.03842459,5e54182318e10a414234535d,64e63663dbcaf322d2eec8da,64e7023ae3f4db086359aaf0,,,,,,,sngl,resources/Empty.png,resources/DBN.BMP,Door1,0.40863657,-0.035455267,1,0,0,0.7989,optionRight,30,14090,6,39,0,39,0,1,,,,,,,,,,,,,,,,,,,,,,,,,,,,,,,,,,,,,,,
,,,,,,,,2023-08-24_08h10.08.700,HF_wild_card,2022.2.4,Linux x86_64,60.03842459,5e54182318e10a414234535d,64e63663dbcaf322d2eec8da,64e7023ae3f4db086359aaf0,,,,,,,sngl,resources/DY.BMP,resources/Empty.png,Door4,-0.311539888,-0.045086026,1,0,0,0.6986,optionLeft,60,14150,6,40,0,40,0,1,,,,,,,,,,,,,,,,,,,,,,,,,,,,,,,,,,,,,,,
,,,,,,,,2023-08-24_08h10.08.700,HF_wild_card,2022.2.4,Linux x86_64,60.03842459,5e54182318e10a414234535d,64e63663dbcaf322d2eec8da,64e7023ae3f4db086359aaf0,,,,,,,decisionTrl,resources/DG.BMP,resources/DY.BMP,Door4,0.424897035,-0.052085241,1,0,0,0.9643,optionRight,80,14230,6,41,0,41,0,1,,,,,,,,,,,,,,,,,,,,,,,,,,,,,,,,,,,,,,,
,,,,,,,,2023-08-24_08h10.08.700,HF_wild_card,2022.2.4,Linux x86_64,60.03842459,5e54182318e10a414234535d,64e63663dbcaf322d2eec8da,64e7023ae3f4db086359aaf0,,,,,,,sngl,resources/Empty.png,resources/DG.BMP,WildCard_NonEx,0.337883949,-0.034836849,1,0,0,0.8064,optionRight,55,14285,6,42,0,42,0,1,,,,,,,,,,,,,,,,,,,,,,,,,,,,,,,,,,,,,,,
,,,,,,,,2023-08-24_08h10.08.700,HF_wild_card,2022.2.4,Linux x86_64,60.03842459,5e54182318e10a414234535d,64e63663dbcaf322d2eec8da,64e7023ae3f4db086359aaf0,,,,,,,decisionTrl,resources/DG.BMP,resources/DR.BMP,WildCard_NonEx,-0.366577943,-0.097750068,1,0,0,1.3532,optionLeft,55,14340,6,43,0,43,0,1,,,,,,,,,,,,,,,,,,,,,,,,,,,,,,,,,,,,,,,
,,,,,,,,2023-08-24_08h10.08.700,HF_wild_card,2022.2.4,Linux x86_64,60.03842459,5e54182318e10a414234535d,64e63663dbcaf322d2eec8da,64e7023ae3f4db086359aaf0,,,,,,,,,,,,,,,,,,,,,,,,,,5,0,5,0,1,,,,,,,,,,,,,,,,,,,,,,,,,,,,,,,,,,
,,,,,,,,2023-08-24_08h10.08.700,HF_wild_card,2022.2.4,Linux x86_64,60.03842459,5e54182318e10a414234535d,64e63663dbcaf322d2eec8da,64e7023ae3f4db086359aaf0,,,,,,,decisionTrl,resources/DBN.BMP,resources/DR.BMP,Door2,0.337443749,-0.069325129,1,0,0,1.4621,optionRight,20,14360,7,0,0,0,0,1,,,,,,,,,,,,,,,,,,,,,,,,,,,,,,,,,,,,,,,
,,,,,,,,2023-08-24_08h10.08.700,HF_wild_card,2022.2.4,Linux x86_64,60.03842459,5e54182318e10a414234535d,64e63663dbcaf322d2eec8da,64e7023ae3f4db086359aaf0,,,,,,,ctch,resources/DR.BMP,resources/DP.BMP,Door3,0.240297318,-0.051813722,1,0,0,1.0662,optionRight,70,14430,7,1,0,1,0,1,,,,,,,,,,,,,,,,,,,,,,,,,,,,,,,,,,,,,,,
,,,,,,,,2023-08-24_08h10.08.700,HF_wild_card,2022.2.4,Linux x86_64,60.03842459,5e54182318e10a414234535d,64e63663dbcaf322d2eec8da,64e7023ae3f4db086359aaf0,,,,,,,decisionTrl,resources/DR.BMP,resources/DBN.BMP,Door2,-0.373787443,-0.086512446,1,0,0,0.9497,optionLeft,20,14450,7,2,0,2,0,1,,,,,,,,,,,,,,,,,,,,,,,,,,,,,,,,,,,,,,,
,,,,,,,,2023-08-24_08h10.08.700,HF_wild_card,2022.2.4,Linux x86_64,60.03842459,5e54182318e10a414234535d,64e63663dbcaf322d2eec8da,64e7023ae3f4db086359aaf0,,,,,,,decisionTrl,resources/DP.BMP,resources/DY.BMP,Door3,-0.319035411,-0.092925509,1,0,0,1.8865,optionLeft,70,14520,7,3,0,3,0,1,,,,,,,,,,,,,,,,,,,,,,,,,,,,,,,,,,,,,,,
,,,,,,,,2023-08-24_08h10.08.700,HF_wild_card,2022.2.4,Linux x86_64,60.03842459,5e54182318e10a414234535d,64e63663dbcaf322d2eec8da,64e7023ae3f4db086359aaf0,,,,,,,ctch,resources/DBN.BMP,resources/DY.BMP,Door4,0.353565216,-0.042059978,1,0,0,0.8647,optionRight,60,14580,7,4,0,4,0,1,,,,,,,,,,,,,,,,,,,,,,,,,,,,,,,,,,,,,,,
,,,,,,,,2023-08-24_08h10.08.700,HF_wild_card,2022.2.4,Linux x86_64,60.03842459,5e54182318e10a414234535d,64e63663dbcaf322d2eec8da,64e7023ae3f4db086359aaf0,,,,,,,decisionTrl,resources/DR.BMP,resources/DBN.BMP,Door2,-0.338079254,-0.07107234,1,0,0,1.0327,optionLeft,40,14620,7,5,0,5,0,1,,,,,,,,,,,,,,,,,,,,,,,,,,,,,,,,,,,,,,,
,,,,,,,,2023-08-24_08h10.08.700,HF_wild_card,2022.2.4,Linux x86_64,60.03842459,5e54182318e10a414234535d,64e63663dbcaf322d2eec8da,64e7023ae3f4db086359aaf0,,,,,,,decisionTrl,resources/DBN.BMP,resources/DR.BMP,Door2,0.332139174,-0.027436852,1,0,0,1.4454,optionRight,20,14640,7,6,0,6,0,1,,,,,,,,,,,,,,,,,,,,,,,,,,,,,,,,,,,,,,,
,,,,,,,,2023-08-24_08h10.08.700,HF_wild_card,2022.2.4,Linux x86_64,60.03842459,5e54182318e10a414234535d,64e63663dbcaf322d2eec8da,64e7023ae3f4db086359aaf0,,,,,,,ctch,resources/DY.BMP,resources/DBN.BMP,Door4,-0.396231731,-0.103357712,1,0,0,0.7697,optionLeft,80,14720,7,7,0,7,0,1,,,,,,,,,,,,,,,,,,,,,,,,,,,,,,,,,,,,,,,
,,,,,,,,2023-08-24_08h10.08.700,HF_wild_card,2022.2.4,Linux x86_64,60.03842459,5e54182318e10a414234535d,64e63663dbcaf322d2eec8da,64e7023ae3f4db086359aaf0,,,,,,,decisionTrl,resources/DR.BMP,resources/DBN.BMP,Door2,-0.335850954,-0.122361223,1,0,0,0.8965,optionLeft,40,14760,7,8,0,8,0,1,,,,,,,,,,,,,,,,,,,,,,,,,,,,,,,,,,,,,,,
,,,,,,,,2023-08-24_08h10.08.700,HF_wild_card,2022.2.4,Linux x86_64,60.03842459,5e54182318e10a414234535d,64e63663dbcaf322d2eec8da,64e7023ae3f4db086359aaf0,,,,,,,decisionTrl,resources/DBN.BMP,resources/DR.BMP,Door2,0.367053747,-0.088616411,1,0,0,1.0269,optionRight,20,14780,7,9,0,9,0,1,,,,,,,,,,,,,,,,,,,,,,,,,,,,,,,,,,,,,,,
,,,,,,,,2023-08-24_08h10.08.700,HF_wild_card,2022.2.4,Linux x86_64,60.03842459,5e54182318e10a414234535d,64e63663dbcaf322d2eec8da,64e7023ae3f4db086359aaf0,,,,,,,decisionTrl,resources/DR.BMP,resources/DBN.BMP,Door2,-0.352411668,-0.142620722,1,0,0,0.8676,optionLeft,40,14820,7,10,0,10,0,1,,,,,,,,,,,,,,,,,,,,,,,,,,,,,,,,,,,,,,,
,,,,,,,,2023-08-24_08h10.08.700,HF_wild_card,2022.2.4,Linux x86_64,60.03842459,5e54182318e10a414234535d,64e63663dbcaf322d2eec8da,64e7023ae3f4db086359aaf0,,,,,,,ctch,resources/DY.BMP,resources/DBN.BMP,Door4,-0.395098686,-0.114832958,1,0,0,0.8608,optionLeft,80,14900,7,11,0,11,0,1,,,,,,,,,,,,,,,,,,,,,,,,,,,,,,,,,,,,,,,
,,,,,,,,2023-08-24_08h10.08.700,HF_wild_card,2022.2.4,Linux x86_64,60.03842459,5e54182318e10a414234535d,64e63663dbcaf322d2eec8da,64e7023ae3f4db086359aaf0,,,,,,,decisionTrl,resources/DBN.BMP,resources/DR.BMP,Door2,0.436745485,-0.138845404,1,0,0,0.86,optionRight,40,14940,7,12,0,12,0,1,,,,,,,,,,,,,,,,,,,,,,,,,,,,,,,,,,,,,,,
,,,,,,,,2023-08-24_08h10.08.700,HF_wild_card,2022.2.4,Linux x86_64,60.03842459,5e54182318e10a414234535d,64e63663dbcaf322d2eec8da,64e7023ae3f4db086359aaf0,,,,,,,ctch,resources/DY.BMP,resources/DBN.BMP,Door4,-0.307907383,-0.112237811,1,0,0,0.956,optionLeft,80,15020,7,13,0,13,0,1,,,,,,,,,,,,,,,,,,,,,,,,,,,,,,,,,,,,,,,
,,,,,,,,2023-08-24_08h10.08.700,HF_wild_card,2022.2.4,Linux x86_64,60.03842459,5e54182318e10a414234535d,64e63663dbcaf322d2eec8da,64e7023ae3f4db086359aaf0,,,,,,,decisionTrl,resources/DP.BMP,resources/DY.BMP,Door3,-0.348221223,-0.057678103,1,0,0,0.9355,optionLeft,70,15090,7,14,0,14,0,1,,,,,,,,,,,,,,,,,,,,,,,,,,,,,,,,,,,,,,,
,,,,,,,,2023-08-24_08h10.08.700,HF_wild_card,2022.2.4,Linux x86_64,60.03842459,5e54182318e10a414234535d,64e63663dbcaf322d2eec8da,64e7023ae3f4db086359aaf0,,,,,,,ctch,resources/DBN.BMP,resources/DY.BMP,Door4,0.286873261,-0.047560453,1,0,0,0.815,optionRight,80,15170,7,15,0,15,0,1,,,,,,,,,,,,,,,,,,,,,,,,,,,,,,,,,,,,,,,
,,,,,,,,2023-08-24_08h10.08.700,HF_wild_card,2022.2.4,Linux x86_64,60.03842459,5e54182318e10a414234535d,64e63663dbcaf322d2eec8da,64e7023ae3f4db086359aaf0,,,,,,,decisionTrl,resources/DBN.BMP,resources/DR.BMP,Door2,0.310678482,-0.070068558,1,0,0,0.9,optionRight,40,15210,7,16,0,16,0,1,,,,,,,,,,,,,,,,,,,,,,,,,,,,,,,,,,,,,,,
,,,,,,,,2023-08-24_08h10.08.700,HF_wild_card,2022.2.4,Linux x86_64,60.03842459,5e54182318e10a414234535d,64e63663dbcaf322d2eec8da,64e7023ae3f4db086359aaf0,,,,,,,decisionTrl,resources/DR.BMP,resources/DBN.BMP,Door2,-0.263981899,-0.055980762,1,0,0,1.428,optionLeft,20,15230,7,17,0,17,0,1,,,,,,,,,,,,,,,,,,,,,,,,,,,,,,,,,,,,,,,
,,,,,,,,2023-08-24_08h10.08.700,HF_wild_card,2022.2.4,Linux x86_64,60.03842459,5e54182318e10a414234535d,64e63663dbcaf322d2eec8da,64e7023ae3f4db086359aaf0,,,,,,,ctch,resources/DP.BMP,resources/DR.BMP,Door3,-0.311623335,-0.10392646,1,0,0,1.0254,optionLeft,70,15300,7,18,0,18,0,1,,,,,,,,,,,,,,,,,,,,,,,,,,,,,,,,,,,,,,,
,,,,,,,,2023-08-24_08h10.08.700,HF_wild_card,2022.2.4,Linux x86_64,60.03842459,5e54182318e10a414234535d,64e63663dbcaf322d2eec8da,64e7023ae3f4db086359aaf0,,,,,,,decisionTrl,resources/DY.BMP,resources/DP.BMP,Door3,0.339109421,-0.156508764,1,0,0,1.2613,optionRight,70,15370,7,19,0,19,0,1,,,,,,,,,,,,,,,,,,,,,,,,,,,,,,,,,,,,,,,
,,,,,,,,2023-08-24_08h10.08.700,HF_wild_card,2022.2.4,Linux x86_64,60.03842459,5e54182318e10a414234535d,64e63663dbcaf322d2eec8da,64e7023ae3f4db086359aaf0,,,,,,,ctch,resources/DR.BMP,resources/DP.BMP,Door3,0.438590527,-0.022758126,1,0,0,1.0385,optionRight,70,15440,7,20,0,20,0,1,,,,,,,,,,,,,,,,,,,,,,,,,,,,,,,,,,,,,,,
,,,,,,,,2023-08-24_08h10.08.700,HF_wild_card,2022.2.4,Linux x86_64,60.03842459,5e54182318e10a414234535d,64e63663dbcaf322d2eec8da,64e7023ae3f4db086359aaf0,,,,,,,decisionTrl,resources/DY.BMP,resources/DP.BMP,Door3,0.239586035,-0.046603481,1,0,0,0.8895,optionRight,70,15510,7,21,0,21,0,1,,,,,,,,,,,,,,,,,,,,,,,,,,,,,,,,,,,,,,,
,,,,,,,,2023-08-24_08h10.08.700,HF_wild_card,2022.2.4,Linux x86_64,60.03842459,5e54182318e10a414234535d,64e63663dbcaf322d2eec8da,64e7023ae3f4db086359aaf0,,,,,,,ctch,resources/DR.BMP,resources/DP.BMP,Door3,0.264074723,-0.06566906,1,0,0,0.7347,optionRight,70,15580,7,22,0,22,0,1,,,,,,,,,,,,,,,,,,,,,,,,,,,,,,,,,,,,,,,
,,,,,,,,2023-08-24_08h10.08.700,HF_wild_card,2022.2.4,Linux x86_64,60.03842459,5e54182318e10a414234535d,64e63663dbcaf322d2eec8da,64e7023ae3f4db086359aaf0,,,,,,,ctch,resources/DP.BMP,resources/DR.BMP,Door3,-0.354411205,-0.075609048,1,0,0,0.9929,optionLeft,70,15650,7,23,0,23,0,1,,,,,,,,,,,,,,,,,,,,,,,,,,,,,,,,,,,,,,,
,,,,,,,,2023-08-24_08h10.08.700,HF_wild_card,2022.2.4,Linux x86_64,60.03842459,5e54182318e10a414234535d,64e63663dbcaf322d2eec8da,64e7023ae3f4db086359aaf0,,,,,,,decisionTrl,resources/DP.BMP,resources/DY.BMP,Door3,-0.229945381,-0.042033474,1,0,0,0.9573,optionLeft,70,15720,7,24,0,24,0,1,,,,,,,,,,,,,,,,,,,,,,,,,,,,,,,,,,,,,,,
,,,,,,,,2023-08-24_08h10.08.700,HF_wild_card,2022.2.4,Linux x86_64,60.03842459,5e54182318e10a414234535d,64e63663dbcaf322d2eec8da,64e7023ae3f4db086359aaf0,,,,,,,decisionTrl,resources/DP.BMP,resources/DY.BMP,Door3,-0.417912165,-0.093690912,1,0,0,0.8263,optionLeft,70,15790,7,25,0,25,0,1,,,,,,,,,,,,,,,,,,,,,,,,,,,,,,,,,,,,,,,
,,,,,,,,2023-08-24_08h10.08.700,HF_wild_card,2022.2.4,Linux x86_64,60.03842459,5e54182318e10a414234535d,64e63663dbcaf322d2eec8da,64e7023ae3f4db086359aaf0,,,,,,,decisionTrl,resources/DY.BMP,resources/DP.BMP,Door3,0.395909309,-0.068284631,1,0,0,0.8134,optionRight,70,15860,7,26,0,26,0,1,,,,,,,,,,,,,,,,,,,,,,,,,,,,,,,,,,,,,,,
,,,,,,,,2023-08-24_08h10.08.700,HF_wild_card,2022.2.4,Linux x86_64,60.03842459,5e54182318e10a414234535d,64e63663dbcaf322d2eec8da,64e7023ae3f4db086359aaf0,,,,,,,decisionTrl,resources/DY.BMP,resources/DP.BMP,Door3,0.469980717,-0.09024632,1,0,0,0.8822,optionRight,70,15930,7,27,0,27,0,1,,,,,,,,,,,,,,,,,,,,,,,,,,,,,,,,,,,,,,,
,,,,,,,,2023-08-24_08h10.08.700,HF_wild_card,2022.2.4,Linux x86_64,60.03842459,5e54182318e10a414234535d,64e63663dbcaf322d2eec8da,64e7023ae3f4db086359aaf0,,,,,,,decisionTrl,resources/DR.BMP,resources/DBN.BMP,Door1,0.315286318,-0.028880477,1,0,0,1.1567,optionRight,30,15960,7,28,0,28,0,1,,,,,,,,,,,,,,,,,,,,,,,,,,,,,,,,,,,,,,,
,,,,,,,,2023-08-24_08h10.08.700,HF_wild_card,2022.2.4,Linux x86_64,60.03842459,5e54182318e10a414234535d,64e63663dbcaf322d2eec8da,64e7023ae3f4db086359aaf0,,,,,,,decisionTrl,resources/DP.BMP,resources/DY.BMP,Door4,0.407288949,-0.101228992,1,0,0,1.2255,optionRight,60,16020,7,29,0,29,0,1,,,,,,,,,,,,,,,,,,,,,,,,,,,,,,,,,,,,,,,
,,,,,,,,2023-08-24_08h10.08.700,HF_wild_card,2022.2.4,Linux x86_64,60.03842459,5e54182318e10a414234535d,64e63663dbcaf322d2eec8da,64e7023ae3f4db086359aaf0,,,,,,,decisionTrl,resources/DBN.BMP,resources/DR.BMP,Door2,0.251780907,-0.035476049,1,0,0,1.1892,optionRight,20,16040,7,30,0,30,0,1,,,,,,,,,,,,,,,,,,,,,,,,,,,,,,,,,,,,,,,
,,,,,,,,2023-08-24_08h10.08.700,HF_wild_card,2022.2.4,Linux x86_64,60.03842459,5e54182318e10a414234535d,64e63663dbcaf322d2eec8da,64e7023ae3f4db086359aaf0,,,,,,,ctch,resources/DBN.BMP,resources/DY.BMP,Door4,0.273871342,-0.035553058,1,0,0,0.7951,optionRight,80,16120,7,31,0,31,0,1,,,,,,,,,,,,,,,,,,,,,,,,,,,,,,,,,,,,,,,
,,,,,,,,2023-08-24_08h10.08.700,HF_wild_card,2022.2.4,Linux x86_64,60.03842459,5e54182318e10a414234535d,64e63663dbcaf322d2eec8da,64e7023ae3f4db086359aaf0,,,,,,,decisionTrl,resources/DY.BMP,resources/DP.BMP,Door3,0.302501361,-0.100695411,1,0,0,0.8552,optionRight,70,16190,7,32,0,32,0,1,,,,,,,,,,,,,,,,,,,,,,,,,,,,,,,,,,,,,,,
,,,,,,,,2023-08-24_08h10.08.700,HF_wild_card,2022.2.4,Linux x86_64,60.03842459,5e54182318e10a414234535d,64e63663dbcaf322d2eec8da,64e7023ae3f4db086359aaf0,,,,,,,ctch,resources/DP.BMP,resources/DR.BMP,Door3,-0.296665986,-0.088930726,1,0,0,0.9098,optionLeft,70,16260,7,33,0,33,0,1,,,,,,,,,,,,,,,,,,,,,,,,,,,,,,,,,,,,,,,
,,,,,,,,2023-08-24_08h10.08.700,HF_wild_card,2022.2.4,Linux x86_64,60.03842459,5e54182318e10a414234535d,64e63663dbcaf322d2eec8da,64e7023ae3f4db086359aaf0,,,,,,,decisionTrl,resources/DP.BMP,resources/DY.BMP,Door3,-0.321505467,-0.095689535,1,0,0,0.8636,optionLeft,70,16330,7,34,0,34,0,1,,,,,,,,,,,,,,,,,,,,,,,,,,,,,,,,,,,,,,,
,,,,,,,,2023-08-24_08h10.08.700,HF_wild_card,2022.2.4,Linux x86_64,60.03842459,5e54182318e10a414234535d,64e63663dbcaf322d2eec8da,64e7023ae3f4db086359aaf0,,,,,,,decisionTrl,resources/DY.BMP,resources/DP.BMP,Door3,0.30340608,-0.084524949,1,0,0,0.8439,optionRight,70,16400,7,35,0,35,0,1,,,,,,,,,,,,,,,,,,,,,,,,,,,,,,,,,,,,,,,
