Condition,Low fixed image (Door1),Low risky image (Door2),High fixed image (Door3),High risky image (Door4),NonExtreme Wild Card 1,NonExtreme Wild Card 2,,date,expName,psychopyVersion,OS,frameRate,PROLIFIC_PID,STUDY_ID,SESSION_ID,mouse_2.x,mouse_2.y,mouse_2.leftButton,mouse_2.midButton,mouse_2.rightButton,mouse_2.clicked_name,Trial Type,Left Option Image,Right Option Image,Chosen Door,mouse.x,mouse.y,mouse.leftButton,mouse.midButton,mouse.rightButton,mouse.time,mouse.clicked_name,Feedback,Cumulative Reward,Block,trial.thisRepN,trial.thisTrialN,trial.thisN,trial.thisIndex,trial.ran,blocks.thisRepN,blocks.thisTrialN,blocks.thisN,blocks.thisIndex,blocks.ran,Money conversion,First Outcome Reported,Shown Door (First Outcome),Displayed Image (First Outcome),outcomes.thisRepN,outcomes.thisTrialN,outcomes.thisN,outcomes.thisIndex,outcomes.ran,judgments.thisRepN,judgments.thisTrialN,judgments.thisN,judgments.thisIndex,judgments.ran,freqMouse.x,freqMouse.y,freqMouse.leftButton,freqMouse.midButton,freqMouse.rightButton,freqMouse.clicked_name,FQJ for first outcome,FQJ for second outcome,Shown Door,Displayed Image,trials.thisRepN,trials.thisTrialN,trials.thisN,trials.thisIndex,trials.ran,judgBlock.thisRepN,judgBlock.thisTrialN,judgBlock.thisN,judgBlock.thisIndex,judgBlock.ran
2,resources/DR.BMP,resources/DG.BMP,resources/DBN.BMP,resources/DB.BMP,resources/DP.BMP,resources/DY.BMP,,2023-08-16_08h26.42.055,HF_wild_card,2022.2.4,MacIntel,60.0024001,60377564edd48263e3130a88,64d2fd46c836a06233681665,64dc7a263235279336e29631,,,,,,,,,,,,,,,,,,,,,,,,,,,,,,,,,,,,,,,,,,,,,,,,,,,,,,,,,,,,,,,,
,,,,,,,,2023-08-16_08h26.42.055,HF_wild_card,2022.2.4,MacIntel,60.0024001,60377564edd48263e3130a88,64d2fd46c836a06233681665,64dc7a263235279336e29631,0.012139757,-0.431197917,1,0,0,agree,,,,,,,,,,,,,,,,,,,,,,,,,,,,,,,,,,,,,,,,,,,,,,,,,,,,,,,,,,
,,,,,,,,2023-08-16_08h26.42.055,HF_wild_card,2022.2.4,MacIntel,60.0024001,60377564edd48263e3130a88,64d2fd46c836a06233681665,64dc7a263235279336e29631,,,,,,,,,,,,,,,,,,,,,,,,,,,,,,,,,,,,,,,,,,,,,,,,,,,,,,,,,,,,,,,,
,,,,,,,,2023-08-16_08h26.42.055,HF_wild_card,2022.2.4,MacIntel,60.0024001,60377564edd48263e3130a88,64d2fd46c836a06233681665,64dc7a263235279336e29631,,,,,,,decisionTrl,resources/DB.BMP,resources/DBN.BMP,Door4,-0.287265625,-0.253055556,1,0,0,1.7605,optionLeft,60,60,1,0,0,0,0,1,,,,,,,,,,,,,,,,,,,,,,,,,,,,,,,,,,,,,,,
,,,,,,,,2023-08-16_08h26.42.055,HF_wild_card,2022.2.4,MacIntel,60.0024001,60377564edd48263e3130a88,64d2fd46c836a06233681665,64dc7a263235279336e29631,,,,,,,decisionTrl,resources/DR.BMP,resources/DG.BMP,Door2,0.313224826,-0.074900174,1,0,0,1.1427,optionRight,40,100,1,1,0,1,0,1,,,,,,,,,,,,,,,,,,,,,,,,,,,,,,,,,,,,,,,
,,,,,,,,2023-08-16_08h26.42.055,HF_wild_card,2022.2.4,MacIntel,60.0024001,60377564edd48263e3130a88,64d2fd46c836a06233681665,64dc7a263235279336e29631,,,,,,,decisionTrl,resources/DR.BMP,resources/DG.BMP,Door2,0.311315104,0.010260417,1,0,0,0.9632,optionRight,20,120,1,2,0,2,0,1,,,,,,,,,,,,,,,,,,,,,,,,,,,,,,,,,,,,,,,
,,,,,,,,2023-08-16_08h26.42.055,HF_wild_card,2022.2.4,MacIntel,60.0024001,60377564edd48263e3130a88,64d2fd46c836a06233681665,64dc7a263235279336e29631,,,,,,,ctch,resources/DB.BMP,resources/DR.BMP,Door1,0.268111979,0.009296875,1,0,0,1.0143,optionRight,30,150,1,3,0,3,0,1,,,,,,,,,,,,,,,,,,,,,,,,,,,,,,,,,,,,,,,
,,,,,,,,2023-08-16_08h26.42.055,HF_wild_card,2022.2.4,MacIntel,60.0024001,60377564edd48263e3130a88,64d2fd46c836a06233681665,64dc7a263235279336e29631,,,,,,,decisionTrl,resources/DY.BMP,resources/DBN.BMP,WildCard_NonEx,-0.298736979,-0.040386285,1,0,0,0.6307,optionLeft,55,205,1,4,0,4,0,1,,,,,,,,,,,,,,,,,,,,,,,,,,,,,,,,,,,,,,,
,,,,,,,,2023-08-16_08h26.42.055,HF_wild_card,2022.2.4,MacIntel,60.0024001,60377564edd48263e3130a88,64d2fd46c836a06233681665,64dc7a263235279336e29631,,,,,,,sngl,resources/Empty.png,resources/DY.BMP,WildCard_NonEx,0.388789063,0.031866319,1,0,0,0.5827,optionRight,55,260,1,5,0,5,0,1,,,,,,,,,,,,,,,,,,,,,,,,,,,,,,,,,,,,,,,
,,,,,,,,2023-08-16_08h26.42.055,HF_wild_card,2022.2.4,MacIntel,60.0024001,60377564edd48263e3130a88,64d2fd46c836a06233681665,64dc7a263235279336e29631,,,,,,,decisionTrl,resources/DR.BMP,resources/DG.BMP,Door1,-0.323164063,-0.072061632,1,0,0,1.7186,optionLeft,30,290,1,6,0,6,0,1,,,,,,,,,,,,,,,,,,,,,,,,,,,,,,,,,,,,,,,
,,,,,,,,2023-08-16_08h26.42.055,HF_wild_card,2022.2.4,MacIntel,60.0024001,60377564edd48263e3130a88,64d2fd46c836a06233681665,64dc7a263235279336e29631,,,,,,,decisionTrl,resources/DG.BMP,resources/DR.BMP,Door2,-0.43391059,-0.042413194,1,0,0,0.6637,optionLeft,20,310,1,7,0,7,0,1,,,,,,,,,,,,,,,,,,,,,,,,,,,,,,,,,,,,,,,
,,,,,,,,2023-08-16_08h26.42.055,HF_wild_card,2022.2.4,MacIntel,60.0024001,60377564edd48263e3130a88,64d2fd46c836a06233681665,64dc7a263235279336e29631,,,,,,,decisionTrl,resources/DB.BMP,resources/DBN.BMP,Door3,0.274518229,0.00797309,1,0,0,0.7976,optionRight,70,380,1,8,0,8,0,1,,,,,,,,,,,,,,,,,,,,,,,,,,,,,,,,,,,,,,,
,,,,,,,,2023-08-16_08h26.42.055,HF_wild_card,2022.2.4,MacIntel,60.0024001,60377564edd48263e3130a88,64d2fd46c836a06233681665,64dc7a263235279336e29631,,,,,,,sngl,resources/Empty.png,resources/DR.BMP,Door1,0.277747396,0.043203125,1,0,0,0.5958,optionRight,30,410,1,9,0,9,0,1,,,,,,,,,,,,,,,,,,,,,,,,,,,,,,,,,,,,,,,
,,,,,,,,2023-08-16_08h26.42.055,HF_wild_card,2022.2.4,MacIntel,60.0024001,60377564edd48263e3130a88,64d2fd46c836a06233681665,64dc7a263235279336e29631,,,,,,,ctch,resources/DR.BMP,resources/DB.BMP,Door1,-0.335763889,-0.022929688,1,0,0,0.7137,optionLeft,30,440,1,10,0,10,0,1,,,,,,,,,,,,,,,,,,,,,,,,,,,,,,,,,,,,,,,
,,,,,,,,2023-08-16_08h26.42.055,HF_wild_card,2022.2.4,MacIntel,60.0024001,60377564edd48263e3130a88,64d2fd46c836a06233681665,64dc7a263235279336e29631,,,,,,,decisionTrl,resources/DG.BMP,resources/DY.BMP,WildCard_NonEx,0.256553819,-0.001215278,1,0,0,0.5976,optionRight,55,495,1,11,0,11,0,1,,,,,,,,,,,,,,,,,,,,,,,,,,,,,,,,,,,,,,,
,,,,,,,,2023-08-16_08h26.42.055,HF_wild_card,2022.2.4,MacIntel,60.0024001,60377564edd48263e3130a88,64d2fd46c836a06233681665,64dc7a263235279336e29631,,,,,,,decisionTrl,resources/DB.BMP,resources/DBN.BMP,Door3,0.317447917,0.069769965,1,0,0,0.6968,optionRight,70,565,1,12,0,12,0,1,,,,,,,,,,,,,,,,,,,,,,,,,,,,,,,,,,,,,,,
,,,,,,,,2023-08-16_08h26.42.055,HF_wild_card,2022.2.4,MacIntel,60.0024001,60377564edd48263e3130a88,64d2fd46c836a06233681665,64dc7a263235279336e29631,,,,,,,sngl,resources/DBN.BMP,resources/Empty.png,Door3,-0.400260417,-0.032769097,1,0,0,0.5808,optionLeft,70,635,1,13,0,13,0,1,,,,,,,,,,,,,,,,,,,,,,,,,,,,,,,,,,,,,,,
,,,,,,,,2023-08-16_08h26.42.055,HF_wild_card,2022.2.4,MacIntel,60.0024001,60377564edd48263e3130a88,64d2fd46c836a06233681665,64dc7a263235279336e29631,,,,,,,decisionTrl,resources/DBN.BMP,resources/DB.BMP,Door3,-0.303732639,-0.037868924,1,0,0,0.5992,optionLeft,70,705,1,14,0,14,0,1,,,,,,,,,,,,,,,,,,,,,,,,,,,,,,,,,,,,,,,
,,,,,,,,2023-08-16_08h26.42.055,HF_wild_card,2022.2.4,MacIntel,60.0024001,60377564edd48263e3130a88,64d2fd46c836a06233681665,64dc7a263235279336e29631,,,,,,,decisionTrl,resources/DB.BMP,resources/DBN.BMP,Door3,0.457799479,-0.031940104,1,0,0,0.646,optionRight,70,775,1,15,0,15,0,1,,,,,,,,,,,,,,,,,,,,,,,,,,,,,,,,,,,,,,,
,,,,,,,,2023-08-16_08h26.42.055,HF_wild_card,2022.2.4,MacIntel,60.0024001,60377564edd48263e3130a88,64d2fd46c836a06233681665,64dc7a263235279336e29631,,,,,,,decisionTrl,resources/DR.BMP,resources/DY.BMP,Door1,-0.38266059,0.009270833,1,0,0,0.6302,optionLeft,30,805,1,16,0,16,0,1,,,,,,,,,,,,,,,,,,,,,,,,,,,,,,,,,,,,,,,
,,,,,,,,2023-08-16_08h26.42.055,HF_wild_card,2022.2.4,MacIntel,60.0024001,60377564edd48263e3130a88,64d2fd46c836a06233681665,64dc7a263235279336e29631,,,,,,,decisionTrl,resources/DBN.BMP,resources/DY.BMP,WildCard_NonEx,0.289392361,0.008841146,1,0,0,0.5669,optionRight,45,850,1,17,0,17,0,1,,,,,,,,,,,,,,,,,,,,,,,,,,,,,,,,,,,,,,,
,,,,,,,,2023-08-16_08h26.42.055,HF_wild_card,2022.2.4,MacIntel,60.0024001,60377564edd48263e3130a88,64d2fd46c836a06233681665,64dc7a263235279336e29631,,,,,,,sngl,resources/DB.BMP,resources/Empty.png,Door4,-0.339001736,0.018320313,1,0,0,0.5466,optionLeft,80,930,1,18,0,18,0,1,,,,,,,,,,,,,,,,,,,,,,,,,,,,,,,,,,,,,,,
,,,,,,,,2023-08-16_08h26.42.055,HF_wild_card,2022.2.4,MacIntel,60.0024001,60377564edd48263e3130a88,64d2fd46c836a06233681665,64dc7a263235279336e29631,,,,,,,sngl,resources/Empty.png,resources/DY.BMP,WildCard_NonEx,0.347039931,0.026840278,1,0,0,0.5619,optionRight,45,975,1,19,0,19,0,1,,,,,,,,,,,,,,,,,,,,,,,,,,,,,,,,,,,,,,,
,,,,,,,,2023-08-16_08h26.42.055,HF_wild_card,2022.2.4,MacIntel,60.0024001,60377564edd48263e3130a88,64d2fd46c836a06233681665,64dc7a263235279336e29631,,,,,,,decisionTrl,resources/DG.BMP,resources/DR.BMP,Door2,-0.357213542,-0.056835938,1,0,0,0.5951,optionLeft,40,1015,1,20,0,20,0,1,,,,,,,,,,,,,,,,,,,,,,,,,,,,,,,,,,,,,,,
,,,,,,,,2023-08-16_08h26.42.055,HF_wild_card,2022.2.4,MacIntel,60.0024001,60377564edd48263e3130a88,64d2fd46c836a06233681665,64dc7a263235279336e29631,,,,,,,sngl,resources/DR.BMP,resources/Empty.png,Door1,-0.399743924,-0.026896701,1,0,0,0.6152,optionLeft,30,1045,1,21,0,21,0,1,,,,,,,,,,,,,,,,,,,,,,,,,,,,,,,,,,,,,,,
,,,,,,,,2023-08-16_08h26.42.055,HF_wild_card,2022.2.4,MacIntel,60.0024001,60377564edd48263e3130a88,64d2fd46c836a06233681665,64dc7a263235279336e29631,,,,,,,decisionTrl,resources/DR.BMP,resources/DG.BMP,Door2,0.414075521,0.005607639,1,0,0,0.6309,optionRight,20,1065,1,22,0,22,0,1,,,,,,,,,,,,,,,,,,,,,,,,,,,,,,,,,,,,,,,
,,,,,,,,2023-08-16_08h26.42.055,HF_wild_card,2022.2.4,MacIntel,60.0024001,60377564edd48263e3130a88,64d2fd46c836a06233681665,64dc7a263235279336e29631,,,,,,,decisionTrl,resources/DG.BMP,resources/DR.BMP,Door2,-0.324440104,0.018693576,1,0,0,0.6005,optionLeft,20,1085,1,23,0,23,0,1,,,,,,,,,,,,,,,,,,,,,,,,,,,,,,,,,,,,,,,
,,,,,,,,2023-08-16_08h26.42.055,HF_wild_card,2022.2.4,MacIntel,60.0024001,60377564edd48263e3130a88,64d2fd46c836a06233681665,64dc7a263235279336e29631,,,,,,,ctch,resources/DG.BMP,resources/DBN.BMP,Door3,0.315598958,0.029817708,1,0,0,0.5967,optionRight,70,1155,1,24,0,24,0,1,,,,,,,,,,,,,,,,,,,,,,,,,,,,,,,,,,,,,,,
,,,,,,,,2023-08-16_08h26.42.055,HF_wild_card,2022.2.4,MacIntel,60.0024001,60377564edd48263e3130a88,64d2fd46c836a06233681665,64dc7a263235279336e29631,,,,,,,ctch,resources/DBN.BMP,resources/DG.BMP,Door3,-0.390646701,-0.007769097,1,0,0,0.5978,optionLeft,70,1225,1,25,0,25,0,1,,,,,,,,,,,,,,,,,,,,,,,,,,,,,,,,,,,,,,,
,,,,,,,,2023-08-16_08h26.42.055,HF_wild_card,2022.2.4,MacIntel,60.0024001,60377564edd48263e3130a88,64d2fd46c836a06233681665,64dc7a263235279336e29631,,,,,,,decisionTrl,resources/DY.BMP,resources/DR.BMP,WildCard_NonEx,-0.365664062,-0.021992187,1,0,0,0.6454,optionLeft,55,1280,1,26,0,26,0,1,,,,,,,,,,,,,,,,,,,,,,,,,,,,,,,,,,,,,,,
,,,,,,,,2023-08-16_08h26.42.055,HF_wild_card,2022.2.4,MacIntel,60.0024001,60377564edd48263e3130a88,64d2fd46c836a06233681665,64dc7a263235279336e29631,,,,,,,sngl,resources/Empty.png,resources/DBN.BMP,Door3,0.425733507,0.003289931,1,0,0,0.5782,optionRight,70,1350,1,27,0,27,0,1,,,,,,,,,,,,,,,,,,,,,,,,,,,,,,,,,,,,,,,
,,,,,,,,2023-08-16_08h26.42.055,HF_wild_card,2022.2.4,MacIntel,60.0024001,60377564edd48263e3130a88,64d2fd46c836a06233681665,64dc7a263235279336e29631,,,,,,,decisionTrl,resources/DY.BMP,resources/DB.BMP,WildCard_NonEx,-0.3559375,0.017630208,1,0,0,0.6453,optionLeft,45,1395,1,28,0,28,0,1,,,,,,,,,,,,,,,,,,,,,,,,,,,,,,,,,,,,,,,
,,,,,,,,2023-08-16_08h26.42.055,HF_wild_card,2022.2.4,MacIntel,60.0024001,60377564edd48263e3130a88,64d2fd46c836a06233681665,64dc7a263235279336e29631,,,,,,,sngl,resources/DY.BMP,resources/Empty.png,WildCard_NonEx,-0.367460937,-0.018815104,1,0,0,0.5506,optionLeft,55,1450,1,29,0,29,0,1,,,,,,,,,,,,,,,,,,,,,,,,,,,,,,,,,,,,,,,
,,,,,,,,2023-08-16_08h26.42.055,HF_wild_card,2022.2.4,MacIntel,60.0024001,60377564edd48263e3130a88,64d2fd46c836a06233681665,64dc7a263235279336e29631,,,,,,,ctch,resources/DG.BMP,resources/DBN.BMP,Door3,0.370603299,0.047430556,1,0,0,1.0642,optionRight,70,1520,1,30,0,30,0,1,,,,,,,,,,,,,,,,,,,,,,,,,,,,,,,,,,,,,,,
,,,,,,,,2023-08-16_08h26.42.055,HF_wild_card,2022.2.4,MacIntel,60.0024001,60377564edd48263e3130a88,64d2fd46c836a06233681665,64dc7a263235279336e29631,,,,,,,decisionTrl,resources/DG.BMP,resources/DR.BMP,Door2,-0.369605035,0.023619792,1,0,0,0.6823,optionLeft,20,1540,1,31,0,31,0,1,,,,,,,,,,,,,,,,,,,,,,,,,,,,,,,,,,,,,,,
,,,,,,,,2023-08-16_08h26.42.055,HF_wild_card,2022.2.4,MacIntel,60.0024001,60377564edd48263e3130a88,64d2fd46c836a06233681665,64dc7a263235279336e29631,,,,,,,sngl,resources/Empty.png,resources/DB.BMP,Door4,0.416267361,-0.040264757,1,0,0,0.5634,optionRight,60,1600,1,32,0,32,0,1,,,,,,,,,,,,,,,,,,,,,,,,,,,,,,,,,,,,,,,
,,,,,,,,2023-08-16_08h26.42.055,HF_wild_card,2022.2.4,MacIntel,60.0024001,60377564edd48263e3130a88,64d2fd46c836a06233681665,64dc7a263235279336e29631,,,,,,,decisionTrl,resources/DY.BMP,resources/DG.BMP,WildCard_NonEx,-0.397586806,-0.012478299,1,0,0,0.6986,optionLeft,45,1645,1,33,0,33,0,1,,,,,,,,,,,,,,,,,,,,,,,,,,,,,,,,,,,,,,,
,,,,,,,,2023-08-16_08h26.42.055,HF_wild_card,2022.2.4,MacIntel,60.0024001,60377564edd48263e3130a88,64d2fd46c836a06233681665,64dc7a263235279336e29631,,,,,,,sngl,resources/DY.BMP,resources/Empty.png,WildCard_NonEx,-0.357573785,-0.013415799,1,0,0,0.5287,optionLeft,45,1690,1,34,0,34,0,1,,,,,,,,,,,,,,,,,,,,,,,,,,,,,,,,,,,,,,,
,,,,,,,,2023-08-16_08h26.42.055,HF_wild_card,2022.2.4,MacIntel,60.0024001,60377564edd48263e3130a88,64d2fd46c836a06233681665,64dc7a263235279336e29631,,,,,,,ctch,resources/DBN.BMP,resources/DG.BMP,Door3,-0.40265191,0.001584201,1,0,0,0.6143,optionLeft,70,1760,1,35,0,35,0,1,,,,,,,,,,,,,,,,,,,,,,,,,,,,,,,,,,,,,,,
,,,,,,,,2023-08-16_08h26.42.055,HF_wild_card,2022.2.4,MacIntel,60.0024001,60377564edd48263e3130a88,64d2fd46c836a06233681665,64dc7a263235279336e29631,,,,,,,sngl,resources/Empty.png,resources/DG.BMP,Door2,0.352239583,-0.005538194,1,0,0,0.6127,optionRight,20,1780,1,36,0,36,0,1,,,,,,,,,,,,,,,,,,,,,,,,,,,,,,,,,,,,,,,
,,,,,,,,2023-08-16_08h26.42.055,HF_wild_card,2022.2.4,MacIntel,60.0024001,60377564edd48263e3130a88,64d2fd46c836a06233681665,64dc7a263235279336e29631,,,,,,,decisionTrl,resources/DBN.BMP,resources/DB.BMP,Door3,-0.414123264,0.018151042,1,0,0,0.4959,optionLeft,70,1850,1,37,0,37,0,1,,,,,,,,,,,,,,,,,,,,,,,,,,,,,,,,,,,,,,,
,,,,,,,,2023-08-16_08h26.42.055,HF_wild_card,2022.2.4,MacIntel,60.0024001,60377564edd48263e3130a88,64d2fd46c836a06233681665,64dc7a263235279336e29631,,,,,,,ctch,resources/DB.BMP,resources/DR.BMP,Door4,-0.345815972,-0.007278646,1,0,0,0.6986,optionLeft,80,1930,1,38,0,38,0,1,,,,,,,,,,,,,,,,,,,,,,,,,,,,,,,,,,,,,,,
,,,,,,,,2023-08-16_08h26.42.055,HF_wild_card,2022.2.4,MacIntel,60.0024001,60377564edd48263e3130a88,64d2fd46c836a06233681665,64dc7a263235279336e29631,,,,,,,decisionTrl,resources/DBN.BMP,resources/DB.BMP,Door4,0.337738715,0.000138889,1,0,0,0.5646,optionRight,60,1990,1,39,0,39,0,1,,,,,,,,,,,,,,,,,,,,,,,,,,,,,,,,,,,,,,,
,,,,,,,,2023-08-16_08h26.42.055,HF_wild_card,2022.2.4,MacIntel,60.0024001,60377564edd48263e3130a88,64d2fd46c836a06233681665,64dc7a263235279336e29631,,,,,,,sngl,resources/DG.BMP,resources/Empty.png,Door2,-0.386671007,-0.00187066,1,0,0,0.5309,optionLeft,40,2030,1,40,0,40,0,1,,,,,,,,,,,,,,,,,,,,,,,,,,,,,,,,,,,,,,,
,,,,,,,,2023-08-16_08h26.42.055,HF_wild_card,2022.2.4,MacIntel,60.0024001,60377564edd48263e3130a88,64d2fd46c836a06233681665,64dc7a263235279336e29631,,,,,,,decisionTrl,resources/DBN.BMP,resources/DB.BMP,Door3,-0.328094618,-0.06109375,1,0,0,0.5306,optionLeft,70,2100,1,41,0,41,0,1,,,,,,,,,,,,,,,,,,,,,,,,,,,,,,,,,,,,,,,
,,,,,,,,2023-08-16_08h26.42.055,HF_wild_card,2022.2.4,MacIntel,60.0024001,60377564edd48263e3130a88,64d2fd46c836a06233681665,64dc7a263235279336e29631,,,,,,,ctch,resources/DR.BMP,resources/DB.BMP,Door4,0.277790799,-0.03046441,1,0,0,0.7151,optionRight,80,2180,1,42,0,42,0,1,,,,,,,,,,,,,,,,,,,,,,,,,,,,,,,,,,,,,,,
,,,,,,,,2023-08-16_08h26.42.055,HF_wild_card,2022.2.4,MacIntel,60.0024001,60377564edd48263e3130a88,64d2fd46c836a06233681665,64dc7a263235279336e29631,,,,,,,decisionTrl,resources/DB.BMP,resources/DY.BMP,Door4,-0.371059028,-0.013059896,1,0,0,0.5305,optionLeft,60,2240,1,43,0,43,0,1,,,,,,,,,,,,,,,,,,,,,,,,,,,,,,,,,,,,,,,
,,,,,,,,2023-08-16_08h26.42.055,HF_wild_card,2022.2.4,MacIntel,60.0024001,60377564edd48263e3130a88,64d2fd46c836a06233681665,64dc7a263235279336e29631,,,,,,,,,,,,,,,,,,,,,,,,,,0,0,0,0,1,,,,,,,,,,,,,,,,,,,,,,,,,,,,,,,,,,
,,,,,,,,2023-08-16_08h26.42.055,HF_wild_card,2022.2.4,MacIntel,60.0024001,60377564edd48263e3130a88,64d2fd46c836a06233681665,64dc7a263235279336e29631,,,,,,,sngl,resources/Empty.png,resources/DBN.BMP,Door3,0.340047743,-0.051779514,1,0,0,0.7584,optionRight,70,2310,2,0,0,0,0,1,,,,,,,,,,,,,,,,,,,,,,,,,,,,,,,,,,,,,,,
,,,,,,,,2023-08-16_08h26.42.055,HF_wild_card,2022.2.4,MacIntel,60.0024001,60377564edd48263e3130a88,64d2fd46c836a06233681665,64dc7a263235279336e29631,,,,,,,sngl,resources/Empty.png,resources/DR.BMP,Door1,0.333138021,0.008355035,1,0,0,0.5983,optionRight,30,2340,2,1,0,1,0,1,,,,,,,,,,,,,,,,,,,,,,,,,,,,,,,,,,,,,,,
,,,,,,,,2023-08-16_08h26.42.055,HF_wild_card,2022.2.4,MacIntel,60.0024001,60377564edd48263e3130a88,64d2fd46c836a06233681665,64dc7a263235279336e29631,,,,,,,sngl,resources/DY.BMP,resources/Empty.png,WildCard_NonEx,-0.335577257,-0.008945313,1,0,0,0.5505,optionLeft,55,2395,2,2,0,2,0,1,,,,,,,,,,,,,,,,,,,,,,,,,,,,,,,,,,,,,,,
,,,,,,,,2023-08-16_08h26.42.055,HF_wild_card,2022.2.4,MacIntel,60.0024001,60377564edd48263e3130a88,64d2fd46c836a06233681665,64dc7a263235279336e29631,,,,,,,ctch,resources/DG.BMP,resources/DBN.BMP,Door3,0.39453125,-0.007999132,1,0,0,0.6493,optionRight,70,2465,2,3,0,3,0,1,,,,,,,,,,,,,,,,,,,,,,,,,,,,,,,,,,,,,,,
,,,,,,,,2023-08-16_08h26.42.055,HF_wild_card,2022.2.4,MacIntel,60.0024001,60377564edd48263e3130a88,64d2fd46c836a06233681665,64dc7a263235279336e29631,,,,,,,decisionTrl,resources/DBN.BMP,resources/DB.BMP,Door3,-0.388563368,-0.007482639,1,0,0,0.5936,optionLeft,70,2535,2,4,0,4,0,1,,,,,,,,,,,,,,,,,,,,,,,,,,,,,,,,,,,,,,,
,,,,,,,,2023-08-16_08h26.42.055,HF_wild_card,2022.2.4,MacIntel,60.0024001,60377564edd48263e3130a88,64d2fd46c836a06233681665,64dc7a263235279336e29631,,,,,,,sngl,resources/Empty.png,resources/DY.BMP,WildCard_NonEx,0.346484375,-0.054952257,1,0,0,0.5439,optionRight,45,2580,2,5,0,5,0,1,,,,,,,,,,,,,,,,,,,,,,,,,,,,,,,,,,,,,,,
,,,,,,,,2023-08-16_08h26.42.055,HF_wild_card,2022.2.4,MacIntel,60.0024001,60377564edd48263e3130a88,64d2fd46c836a06233681665,64dc7a263235279336e29631,,,,,,,decisionTrl,resources/DR.BMP,resources/DG.BMP,Door1,-0.280651042,-0.026762153,1,0,0,0.7462,optionLeft,30,2610,2,6,0,6,0,1,,,,,,,,,,,,,,,,,,,,,,,,,,,,,,,,,,,,,,,
,,,,,,,,2023-08-16_08h26.42.055,HF_wild_card,2022.2.4,MacIntel,60.0024001,60377564edd48263e3130a88,64d2fd46c836a06233681665,64dc7a263235279336e29631,,,,,,,decisionTrl,resources/DR.BMP,resources/DG.BMP,Door2,0.353802083,-0.006527778,1,0,0,0.4836,optionRight,20,2630,2,7,0,7,0,1,,,,,,,,,,,,,,,,,,,,,,,,,,,,,,,,,,,,,,,
,,,,,,,,2023-08-16_08h26.42.055,HF_wild_card,2022.2.4,MacIntel,60.0024001,60377564edd48263e3130a88,64d2fd46c836a06233681665,64dc7a263235279336e29631,,,,,,,sngl,resources/DY.BMP,resources/Empty.png,WildCard_NonEx,-0.302265625,-0.015559896,1,0,0,0.5293,optionLeft,45,2675,2,8,0,8,0,1,,,,,,,,,,,,,,,,,,,,,,,,,,,,,,,,,,,,,,,
,,,,,,,,2023-08-16_08h26.42.055,HF_wild_card,2022.2.4,MacIntel,60.0024001,60377564edd48263e3130a88,64d2fd46c836a06233681665,64dc7a263235279336e29631,,,,,,,decisionTrl,resources/DB.BMP,resources/DBN.BMP,Door3,0.329249132,0.028862847,1,0,0,0.6971,optionRight,70,2745,2,9,0,9,0,1,,,,,,,,,,,,,,,,,,,,,,,,,,,,,,,,,,,,,,,
,,,,,,,,2023-08-16_08h26.42.055,HF_wild_card,2022.2.4,MacIntel,60.0024001,60377564edd48263e3130a88,64d2fd46c836a06233681665,64dc7a263235279336e29631,,,,,,,sngl,resources/Empty.png,resources/DY.BMP,WildCard_NonEx,0.331770833,0.016019965,1,0,0,0.5458,optionRight,55,2800,2,10,0,10,0,1,,,,,,,,,,,,,,,,,,,,,,,,,,,,,,,,,,,,,,,
,,,,,,,,2023-08-16_08h26.42.055,HF_wild_card,2022.2.4,MacIntel,60.0024001,60377564edd48263e3130a88,64d2fd46c836a06233681665,64dc7a263235279336e29631,,,,,,,sngl,resources/DG.BMP,resources/Empty.png,Door2,-0.33343316,-0.005455729,1,0,0,0.4644,optionLeft,20,2820,2,11,0,11,0,1,,,,,,,,,,,,,,,,,,,,,,,,,,,,,,,,,,,,,,,
,,,,,,,,2023-08-16_08h26.42.055,HF_wild_card,2022.2.4,MacIntel,60.0024001,60377564edd48263e3130a88,64d2fd46c836a06233681665,64dc7a263235279336e29631,,,,,,,decisionTrl,resources/DBN.BMP,resources/DB.BMP,Door3,-0.346119792,0.013055556,1,0,0,0.5295,optionLeft,70,2890,2,12,0,12,0,1,,,,,,,,,,,,,,,,,,,,,,,,,,,,,,,,,,,,,,,
,,,,,,,,2023-08-16_08h26.42.055,HF_wild_card,2022.2.4,MacIntel,60.0024001,60377564edd48263e3130a88,64d2fd46c836a06233681665,64dc7a263235279336e29631,,,,,,,ctch,resources/DG.BMP,resources/DBN.BMP,Door3,0.321354167,0.027738715,1,0,0,0.5494,optionRight,70,2960,2,13,0,13,0,1,,,,,,,,,,,,,,,,,,,,,,,,,,,,,,,,,,,,,,,
,,,,,,,,2023-08-16_08h26.42.055,HF_wild_card,2022.2.4,MacIntel,60.0024001,60377564edd48263e3130a88,64d2fd46c836a06233681665,64dc7a263235279336e29631,,,,,,,ctch,resources/DBN.BMP,resources/DG.BMP,Door3,-0.37452691,-0.008359375,1,0,0,0.4807,optionLeft,70,3030,2,14,0,14,0,1,,,,,,,,,,,,,,,,,,,,,,,,,,,,,,,,,,,,,,,
,,,,,,,,2023-08-16_08h26.42.055,HF_wild_card,2022.2.4,MacIntel,60.0024001,60377564edd48263e3130a88,64d2fd46c836a06233681665,64dc7a263235279336e29631,,,,,,,sngl,resources/DB.BMP,resources/Empty.png,Door4,-0.33015625,-0.006019965,1,0,0,0.5792,optionLeft,60,3090,2,15,0,15,0,1,,,,,,,,,,,,,,,,,,,,,,,,,,,,,,,,,,,,,,,
,,,,,,,,2023-08-16_08h26.42.055,HF_wild_card,2022.2.4,MacIntel,60.0024001,60377564edd48263e3130a88,64d2fd46c836a06233681665,64dc7a263235279336e29631,,,,,,,decisionTrl,resources/DY.BMP,resources/DB.BMP,WildCard_NonEx,-0.342942708,-0.011731771,1,0,0,0.6498,optionLeft,55,3145,2,16,0,16,0,1,,,,,,,,,,,,,,,,,,,,,,,,,,,,,,,,,,,,,,,
,,,,,,,,2023-08-16_08h26.42.055,HF_wild_card,2022.2.4,MacIntel,60.0024001,60377564edd48263e3130a88,64d2fd46c836a06233681665,64dc7a263235279336e29631,,,,,,,decisionTrl,resources/DY.BMP,resources/DBN.BMP,WildCard_NonEx,-0.407916667,0.009422743,1,0,0,0.5137,optionLeft,45,3190,2,17,0,17,0,1,,,,,,,,,,,,,,,,,,,,,,,,,,,,,,,,,,,,,,,
,,,,,,,,2023-08-16_08h26.42.055,HF_wild_card,2022.2.4,MacIntel,60.0024001,60377564edd48263e3130a88,64d2fd46c836a06233681665,64dc7a263235279336e29631,,,,,,,decisionTrl,resources/DG.BMP,resources/DR.BMP,Door2,-0.268667535,-0.026922743,1,0,0,0.5639,optionLeft,40,3230,2,18,0,18,0,1,,,,,,,,,,,,,,,,,,,,,,,,,,,,,,,,,,,,,,,
,,,,,,,,2023-08-16_08h26.42.055,HF_wild_card,2022.2.4,MacIntel,60.0024001,60377564edd48263e3130a88,64d2fd46c836a06233681665,64dc7a263235279336e29631,,,,,,,decisionTrl,resources/DG.BMP,resources/DY.BMP,WildCard_NonEx,0.308216146,-0.056818576,1,0,0,0.6273,optionRight,55,3285,2,19,0,19,0,1,,,,,,,,,,,,,,,,,,,,,,,,,,,,,,,,,,,,,,,
,,,,,,,,2023-08-16_08h26.42.055,HF_wild_card,2022.2.4,MacIntel,60.0024001,60377564edd48263e3130a88,64d2fd46c836a06233681665,64dc7a263235279336e29631,,,,,,,decisionTrl,resources/DB.BMP,resources/DY.BMP,Door4,-0.309496528,-0.019900174,1,0,0,0.5834,optionLeft,80,3365,2,20,0,20,0,1,,,,,,,,,,,,,,,,,,,,,,,,,,,,,,,,,,,,,,,
,,,,,,,,2023-08-16_08h26.42.055,HF_wild_card,2022.2.4,MacIntel,60.0024001,60377564edd48263e3130a88,64d2fd46c836a06233681665,64dc7a263235279336e29631,,,,,,,decisionTrl,resources/DB.BMP,resources/DBN.BMP,Door3,0.285568576,0.001072049,1,0,0,0.5483,optionRight,70,3435,2,21,0,21,0,1,,,,,,,,,,,,,,,,,,,,,,,,,,,,,,,,,,,,,,,
,,,,,,,,2023-08-16_08h26.42.055,HF_wild_card,2022.2.4,MacIntel,60.0024001,60377564edd48263e3130a88,64d2fd46c836a06233681665,64dc7a263235279336e29631,,,,,,,sngl,resources/Empty.png,resources/DB.BMP,Door4,0.264739583,0.012634549,1,0,0,0.5309,optionRight,80,3515,2,22,0,22,0,1,,,,,,,,,,,,,,,,,,,,,,,,,,,,,,,,,,,,,,,
,,,,,,,,2023-08-16_08h26.42.055,HF_wild_card,2022.2.4,MacIntel,60.0024001,60377564edd48263e3130a88,64d2fd46c836a06233681665,64dc7a263235279336e29631,,,,,,,decisionTrl,resources/DR.BMP,resources/DY.BMP,Door1,-0.311796875,-0.024396701,1,0,0,0.5158,optionLeft,30,3545,2,23,0,23,0,1,,,,,,,,,,,,,,,,,,,,,,,,,,,,,,,,,,,,,,,
,,,,,,,,2023-08-16_08h26.42.055,HF_wild_card,2022.2.4,MacIntel,60.0024001,60377564edd48263e3130a88,64d2fd46c836a06233681665,64dc7a263235279336e29631,,,,,,,decisionTrl,resources/DG.BMP,resources/DR.BMP,Door1,0.319344618,-0.003619792,1,0,0,0.4984,optionRight,30,3575,2,24,0,24,0,1,,,,,,,,,,,,,,,,,,,,,,,,,,,,,,,,,,,,,,,
,,,,,,,,2023-08-16_08h26.42.055,HF_wild_card,2022.2.4,MacIntel,60.0024001,60377564edd48263e3130a88,64d2fd46c836a06233681665,64dc7a263235279336e29631,,,,,,,decisionTrl,resources/DBN.BMP,resources/DY.BMP,Door3,-0.376041667,-0.038962674,1,0,0,0.4824,optionLeft,70,3645,2,25,0,25,0,1,,,,,,,,,,,,,,,,,,,,,,,,,,,,,,,,,,,,,,,
,,,,,,,,2023-08-16_08h26.42.055,HF_wild_card,2022.2.4,MacIntel,60.0024001,60377564edd48263e3130a88,64d2fd46c836a06233681665,64dc7a263235279336e29631,,,,,,,decisionTrl,resources/DY.BMP,resources/DG.BMP,WildCard_NonEx,-0.305989583,-0.027534722,1,0,0,0.5654,optionLeft,45,3690,2,26,0,26,0,1,,,,,,,,,,,,,,,,,,,,,,,,,,,,,,,,,,,,,,,
,,,,,,,,2023-08-16_08h26.42.055,HF_wild_card,2022.2.4,MacIntel,60.0024001,60377564edd48263e3130a88,64d2fd46c836a06233681665,64dc7a263235279336e29631,,,,,,,decisionTrl,resources/DBN.BMP,resources/DB.BMP,Door3,-0.387157118,-0.011124132,1,0,0,0.5318,optionLeft,70,3760,2,27,0,27,0,1,,,,,,,,,,,,,,,,,,,,,,,,,,,,,,,,,,,,,,,
,,,,,,,,2023-08-16_08h26.42.055,HF_wild_card,2022.2.4,MacIntel,60.0024001,60377564edd48263e3130a88,64d2fd46c836a06233681665,64dc7a263235279336e29631,,,,,,,ctch,resources/DB.BMP,resources/DR.BMP,Door4,-0.27421875,-0.057777778,1,0,0,0.5142,optionLeft,60,3820,2,28,0,28,0,1,,,,,,,,,,,,,,,,,,,,,,,,,,,,,,,,,,,,,,,
,,,,,,,,2023-08-16_08h26.42.055,HF_wild_card,2022.2.4,MacIntel,60.0024001,60377564edd48263e3130a88,64d2fd46c836a06233681665,64dc7a263235279336e29631,,,,,,,decisionTrl,resources/DG.BMP,resources/DR.BMP,Door2,-0.32453559,-0.020073785,1,0,0,0.5001,optionLeft,20,3840,2,29,0,29,0,1,,,,,,,,,,,,,,,,,,,,,,,,,,,,,,,,,,,,,,,
,,,,,,,,2023-08-16_08h26.42.055,HF_wild_card,2022.2.4,MacIntel,60.0024001,60377564edd48263e3130a88,64d2fd46c836a06233681665,64dc7a263235279336e29631,,,,,,,sngl,resources/DR.BMP,resources/Empty.png,Door1,-0.285633681,-0.014822049,1,0,0,0.4495,optionLeft,30,3870,2,30,0,30,0,1,,,,,,,,,,,,,,,,,,,,,,,,,,,,,,,,,,,,,,,
,,,,,,,,2023-08-16_08h26.42.055,HF_wild_card,2022.2.4,MacIntel,60.0024001,60377564edd48263e3130a88,64d2fd46c836a06233681665,64dc7a263235279336e29631,,,,,,,ctch,resources/DR.BMP,resources/DB.BMP,Door4,0.432465278,-0.085338542,1,0,0,0.4823,optionRight,80,3950,2,31,0,31,0,1,,,,,,,,,,,,,,,,,,,,,,,,,,,,,,,,,,,,,,,
,,,,,,,,2023-08-16_08h26.42.055,HF_wild_card,2022.2.4,MacIntel,60.0024001,60377564edd48263e3130a88,64d2fd46c836a06233681665,64dc7a263235279336e29631,,,,,,,sngl,resources/Empty.png,resources/DG.BMP,Door2,0.280529514,-0.010047743,1,0,0,0.4602,optionRight,40,3990,2,32,0,32,0,1,,,,,,,,,,,,,,,,,,,,,,,,,,,,,,,,,,,,,,,
,,,,,,,,2023-08-16_08h26.42.055,HF_wild_card,2022.2.4,MacIntel,60.0024001,60377564edd48263e3130a88,64d2fd46c836a06233681665,64dc7a263235279336e29631,,,,,,,decisionTrl,resources/DB.BMP,resources/DBN.BMP,Door3,0.162352431,0.042582465,1,0,0,0.4965,optionRight,70,4060,2,33,0,33,0,1,,,,,,,,,,,,,,,,,,,,,,,,,,,,,,,,,,,,,,,
,,,,,,,,2023-08-16_08h26.42.055,HF_wild_card,2022.2.4,MacIntel,60.0024001,60377564edd48263e3130a88,64d2fd46c836a06233681665,64dc7a263235279336e29631,,,,,,,decisionTrl,resources/DB.BMP,resources/DBN.BMP,Door3,0.207578125,0.021788194,1,0,0,0.5169,optionRight,70,4130,2,34,0,34,0,1,,,,,,,,,,,,,,,,,,,,,,,,,,,,,,,,,,,,,,,
,,,,,,,,2023-08-16_08h26.42.055,HF_wild_card,2022.2.4,MacIntel,60.0024001,60377564edd48263e3130a88,64d2fd46c836a06233681665,64dc7a263235279336e29631,,,,,,,ctch,resources/DR.BMP,resources/DB.BMP,Door1,-0.336050347,0.017730035,1,0,0,0.4802,optionLeft,30,4160,2,35,0,35,0,1,,,,,,,,,,,,,,,,,,,,,,,,,,,,,,,,,,,,,,,
,,,,,,,,2023-08-16_08h26.42.055,HF_wild_card,2022.2.4,MacIntel,60.0024001,60377564edd48263e3130a88,64d2fd46c836a06233681665,64dc7a263235279336e29631,,,,,,,ctch,resources/DB.BMP,resources/DR.BMP,Door4,-0.378702257,-0.012013889,1,0,0,0.4813,optionLeft,80,4240,2,36,0,36,0,1,,,,,,,,,,,,,,,,,,,,,,,,,,,,,,,,,,,,,,,
,,,,,,,,2023-08-16_08h26.42.055,HF_wild_card,2022.2.4,MacIntel,60.0024001,60377564edd48263e3130a88,64d2fd46c836a06233681665,64dc7a263235279336e29631,,,,,,,decisionTrl,resources/DR.BMP,resources/DG.BMP,Door2,0.312300347,0.059622396,1,0,0,0.9455,optionRight,40,4280,2,37,0,37,0,1,,,,,,,,,,,,,,,,,,,,,,,,,,,,,,,,,,,,,,,
,,,,,,,,2023-08-16_08h26.42.055,HF_wild_card,2022.2.4,MacIntel,60.0024001,60377564edd48263e3130a88,64d2fd46c836a06233681665,64dc7a263235279336e29631,,,,,,,decisionTrl,resources/DG.BMP,resources/DR.BMP,Door2,-0.235290799,0.011948785,1,0,0,0.7981,optionLeft,20,4300,2,38,0,38,0,1,,,,,,,,,,,,,,,,,,,,,,,,,,,,,,,,,,,,,,,
,,,,,,,,2023-08-16_08h26.42.055,HF_wild_card,2022.2.4,MacIntel,60.0024001,60377564edd48263e3130a88,64d2fd46c836a06233681665,64dc7a263235279336e29631,,,,,,,ctch,resources/DBN.BMP,resources/DG.BMP,Door3,-0.371037326,-0.060208333,1,0,0,0.5795,optionLeft,70,4370,2,39,0,39,0,1,,,,,,,,,,,,,,,,,,,,,,,,,,,,,,,,,,,,,,,
,,,,,,,,2023-08-16_08h26.42.055,HF_wild_card,2022.2.4,MacIntel,60.0024001,60377564edd48263e3130a88,64d2fd46c836a06233681665,64dc7a263235279336e29631,,,,,,,decisionTrl,resources/DY.BMP,resources/DR.BMP,WildCard_NonEx,-0.312756076,-0.00358941,1,0,0,0.5656,optionLeft,45,4415,2,40,0,40,0,1,,,,,,,,,,,,,,,,,,,,,,,,,,,,,,,,,,,,,,,
,,,,,,,,2023-08-16_08h26.42.055,HF_wild_card,2022.2.4,MacIntel,60.0024001,60377564edd48263e3130a88,64d2fd46c836a06233681665,64dc7a263235279336e29631,,,,,,,decisionTrl,resources/DBN.BMP,resources/DB.BMP,Door4,0.301176215,0.024769965,1,0,0,0.5314,optionRight,80,4495,2,41,0,41,0,1,,,,,,,,,,,,,,,,,,,,,,,,,,,,,,,,,,,,,,,
,,,,,,,,2023-08-16_08h26.42.055,HF_wild_card,2022.2.4,MacIntel,60.0024001,60377564edd48263e3130a88,64d2fd46c836a06233681665,64dc7a263235279336e29631,,,,,,,decisionTrl,resources/DR.BMP,resources/DG.BMP,Door1,-0.315043403,-0.022330729,1,0,0,0.5133,optionLeft,30,4525,2,42,0,42,0,1,,,,,,,,,,,,,,,,,,,,,,,,,,,,,,,,,,,,,,,
,,,,,,,,2023-08-16_08h26.42.055,HF_wild_card,2022.2.4,MacIntel,60.0024001,60377564edd48263e3130a88,64d2fd46c836a06233681665,64dc7a263235279336e29631,,,,,,,sngl,resources/DBN.BMP,resources/Empty.png,Door3,-0.320759549,-0.008702257,1,0,0,0.4829,optionLeft,70,4595,2,43,0,43,0,1,,,,,,,,,,,,,,,,,,,,,,,,,,,,,,,,,,,,,,,
,,,,,,,,2023-08-16_08h26.42.055,HF_wild_card,2022.2.4,MacIntel,60.0024001,60377564edd48263e3130a88,64d2fd46c836a06233681665,64dc7a263235279336e29631,,,,,,,,,,,,,,,,,,,,,,,,,,1,0,1,0,1,,,,,,,,,,,,,,,,,,,,,,,,,,,,,,,,,,
,,,,,,,,2023-08-16_08h26.42.055,HF_wild_card,2022.2.4,MacIntel,60.0024001,60377564edd48263e3130a88,64d2fd46c836a06233681665,64dc7a263235279336e29631,,,,,,,sngl,resources/DG.BMP,resources/Empty.png,Door2,-0.362061632,-0.011263021,1,0,0,0.629,optionLeft,40,4635,3,0,0,0,0,1,,,,,,,,,,,,,,,,,,,,,,,,,,,,,,,,,,,,,,,
,,,,,,,,2023-08-16_08h26.42.055,HF_wild_card,2022.2.4,MacIntel,60.0024001,60377564edd48263e3130a88,64d2fd46c836a06233681665,64dc7a263235279336e29631,,,,,,,decisionTrl,resources/DBN.BMP,resources/DY.BMP,Door3,-0.400711806,-0.002829861,1,0,0,0.5145,optionLeft,70,4705,3,1,0,1,0,1,,,,,,,,,,,,,,,,,,,,,,,,,,,,,,,,,,,,,,,
,,,,,,,,2023-08-16_08h26.42.055,HF_wild_card,2022.2.4,MacIntel,60.0024001,60377564edd48263e3130a88,64d2fd46c836a06233681665,64dc7a263235279336e29631,,,,,,,sngl,resources/Empty.png,resources/DY.BMP,WildCard_NonEx,0.207517361,0.018645833,1,0,0,0.4836,optionRight,55,4760,3,2,0,2,0,1,,,,,,,,,,,,,,,,,,,,,,,,,,,,,,,,,,,,,,,
,,,,,,,,2023-08-16_08h26.42.055,HF_wild_card,2022.2.4,MacIntel,60.0024001,60377564edd48263e3130a88,64d2fd46c836a06233681665,64dc7a263235279336e29631,,,,,,,decisionTrl,resources/DR.BMP,resources/DY.BMP,Door1,-0.297547743,-0.001111111,1,0,0,0.4619,optionLeft,30,4790,3,3,0,3,0,1,,,,,,,,,,,,,,,,,,,,,,,,,,,,,,,,,,,,,,,
,,,,,,,,2023-08-16_08h26.42.055,HF_wild_card,2022.2.4,MacIntel,60.0024001,60377564edd48263e3130a88,64d2fd46c836a06233681665,64dc7a263235279336e29631,,,,,,,sngl,resources/DB.BMP,resources/Empty.png,Door4,-0.291514757,0.001423611,1,0,0,0.4641,optionLeft,80,4870,3,4,0,4,0,1,,,,,,,,,,,,,,,,,,,,,,,,,,,,,,,,,,,,,,,
,,,,,,,,2023-08-16_08h26.42.055,HF_wild_card,2022.2.4,MacIntel,60.0024001,60377564edd48263e3130a88,64d2fd46c836a06233681665,64dc7a263235279336e29631,,,,,,,sngl,resources/Empty.png,resources/DR.BMP,Door1,0.226814236,0.045980903,1,0,0,0.5167,optionRight,30,4900,3,5,0,5,0,1,,,,,,,,,,,,,,,,,,,,,,,,,,,,,,,,,,,,,,,
,,,,,,,,2023-08-16_08h26.42.055,HF_wild_card,2022.2.4,MacIntel,60.0024001,60377564edd48263e3130a88,64d2fd46c836a06233681665,64dc7a263235279336e29631,,,,,,,ctch,resources/DG.BMP,resources/DBN.BMP,Door3,0.465238715,0.059092882,1,0,0,0.731,optionRight,70,4970,3,6,0,6,0,1,,,,,,,,,,,,,,,,,,,,,,,,,,,,,,,,,,,,,,,
,,,,,,,,2023-08-16_08h26.42.055,HF_wild_card,2022.2.4,MacIntel,60.0024001,60377564edd48263e3130a88,64d2fd46c836a06233681665,64dc7a263235279336e29631,,,,,,,sngl,resources/Empty.png,resources/DG.BMP,Door2,0.192925347,0.04203125,1,0,0,0.5138,optionRight,20,4990,3,7,0,7,0,1,,,,,,,,,,,,,,,,,,,,,,,,,,,,,,,,,,,,,,,
,,,,,,,,2023-08-16_08h26.42.055,HF_wild_card,2022.2.4,MacIntel,60.0024001,60377564edd48263e3130a88,64d2fd46c836a06233681665,64dc7a263235279336e29631,,,,,,,decisionTrl,resources/DB.BMP,resources/DBN.BMP,Door3,0.210052083,0.061519097,1,0,0,0.5313,optionRight,70,5060,3,8,0,8,0,1,,,,,,,,,,,,,,,,,,,,,,,,,,,,,,,,,,,,,,,
,,,,,,,,2023-08-16_08h26.42.055,HF_wild_card,2022.2.4,MacIntel,60.0024001,60377564edd48263e3130a88,64d2fd46c836a06233681665,64dc7a263235279336e29631,,,,,,,decisionTrl,resources/DG.BMP,resources/DR.BMP,Door2,-0.338663194,-0.005373264,1,0,0,0.4998,optionLeft,40,5100,3,9,0,9,0,1,,,,,,,,,,,,,,,,,,,,,,,,,,,,,,,,,,,,,,,
,,,,,,,,2023-08-16_08h26.42.055,HF_wild_card,2022.2.4,MacIntel,60.0024001,60377564edd48263e3130a88,64d2fd46c836a06233681665,64dc7a263235279336e29631,,,,,,,decisionTrl,resources/DY.BMP,resources/DG.BMP,Door2,0.369140625,0.007560764,1,0,0,0.4665,optionRight,40,5140,3,10,0,10,0,1,,,,,,,,,,,,,,,,,,,,,,,,,,,,,,,,,,,,,,,
,,,,,,,,2023-08-16_08h26.42.055,HF_wild_card,2022.2.4,MacIntel,60.0024001,60377564edd48263e3130a88,64d2fd46c836a06233681665,64dc7a263235279336e29631,,,,,,,sngl,resources/DY.BMP,resources/Empty.png,WildCard_NonEx,-0.355998264,0.008763021,1,0,0,0.4113,optionLeft,45,5185,3,11,0,11,0,1,,,,,,,,,,,,,,,,,,,,,,,,,,,,,,,,,,,,,,,
,,,,,,,,2023-08-16_08h26.42.055,HF_wild_card,2022.2.4,MacIntel,60.0024001,60377564edd48263e3130a88,64d2fd46c836a06233681665,64dc7a263235279336e29631,,,,,,,sngl,resources/Empty.png,resources/DB.BMP,Door4,0.23625,0.045507813,1,0,0,0.528,optionRight,60,5245,3,12,0,12,0,1,,,,,,,,,,,,,,,,,,,,,,,,,,,,,,,,,,,,,,,
,,,,,,,,2023-08-16_08h26.42.055,HF_wild_card,2022.2.4,MacIntel,60.0024001,60377564edd48263e3130a88,64d2fd46c836a06233681665,64dc7a263235279336e29631,,,,,,,decisionTrl,resources/DB.BMP,resources/DBN.BMP,Door4,-0.33125434,-0.019631076,1,0,0,0.4653,optionLeft,80,5325,3,13,0,13,0,1,,,,,,,,,,,,,,,,,,,,,,,,,,,,,,,,,,,,,,,
,,,,,,,,2023-08-16_08h26.42.055,HF_wild_card,2022.2.4,MacIntel,60.0024001,60377564edd48263e3130a88,64d2fd46c836a06233681665,64dc7a263235279336e29631,,,,,,,ctch,resources/DB.BMP,resources/DR.BMP,Door4,-0.310095486,-0.043415799,1,0,0,0.5321,optionLeft,80,5405,3,14,0,14,0,1,,,,,,,,,,,,,,,,,,,,,,,,,,,,,,,,,,,,,,,
,,,,,,,,2023-08-16_08h26.42.055,HF_wild_card,2022.2.4,MacIntel,60.0024001,60377564edd48263e3130a88,64d2fd46c836a06233681665,64dc7a263235279336e29631,,,,,,,decisionTrl,resources/DBN.BMP,resources/DB.BMP,Door4,0.223081597,0.036775174,1,0,0,0.5469,optionRight,60,5465,3,15,0,15,0,1,,,,,,,,,,,,,,,,,,,,,,,,,,,,,,,,,,,,,,,
,,,,,,,,2023-08-16_08h26.42.055,HF_wild_card,2022.2.4,MacIntel,60.0024001,60377564edd48263e3130a88,64d2fd46c836a06233681665,64dc7a263235279336e29631,,,,,,,sngl,resources/Empty.png,resources/DY.BMP,WildCard_NonEx,0.142899306,-0.002578125,1,0,0,0.7651,optionRight,45,5510,3,16,0,16,0,1,,,,,,,,,,,,,,,,,,,,,,,,,,,,,,,,,,,,,,,
,,,,,,,,2023-08-16_08h26.42.055,HF_wild_card,2022.2.4,MacIntel,60.0024001,60377564edd48263e3130a88,64d2fd46c836a06233681665,64dc7a263235279336e29631,,,,,,,decisionTrl,resources/DB.BMP,resources/DBN.BMP,Door4,-0.210529514,0.016835937,1,0,0,1.1151,optionLeft,60,5570,3,17,0,17,0,1,,,,,,,,,,,,,,,,,,,,,,,,,,,,,,,,,,,,,,,
,,,,,,,,2023-08-16_08h26.42.055,HF_wild_card,2022.2.4,MacIntel,60.0024001,60377564edd48263e3130a88,64d2fd46c836a06233681665,64dc7a263235279336e29631,,,,,,,sngl,resources/DBN.BMP,resources/Empty.png,Door3,-0.32000434,0.00405816,1,0,0,0.5641,optionLeft,70,5640,3,18,0,18,0,1,,,,,,,,,,,,,,,,,,,,,,,,,,,,,,,,,,,,,,,
,,,,,,,,2023-08-16_08h26.42.055,HF_wild_card,2022.2.4,MacIntel,60.0024001,60377564edd48263e3130a88,64d2fd46c836a06233681665,64dc7a263235279336e29631,,,,,,,ctch,resources/DR.BMP,resources/DB.BMP,Door4,0.382456597,-0.020959201,1,0,0,0.7627,optionRight,80,5720,3,19,0,19,0,1,,,,,,,,,,,,,,,,,,,,,,,,,,,,,,,,,,,,,,,
,,,,,,,,2023-08-16_08h26.42.055,HF_wild_card,2022.2.4,MacIntel,60.0024001,60377564edd48263e3130a88,64d2fd46c836a06233681665,64dc7a263235279336e29631,,,,,,,ctch,resources/DG.BMP,resources/DBN.BMP,Door3,0.261414931,0.006323785,1,0,0,0.5291,optionRight,70,5790,3,20,0,20,0,1,,,,,,,,,,,,,,,,,,,,,,,,,,,,,,,,,,,,,,,
,,,,,,,,2023-08-16_08h26.42.055,HF_wild_card,2022.2.4,MacIntel,60.0024001,60377564edd48263e3130a88,64d2fd46c836a06233681665,64dc7a263235279336e29631,,,,,,,decisionTrl,resources/DG.BMP,resources/DR.BMP,Door2,-0.311783854,-0.043958333,1,0,0,0.5824,optionLeft,20,5810,3,21,0,21,0,1,,,,,,,,,,,,,,,,,,,,,,,,,,,,,,,,,,,,,,,
,,,,,,,,2023-08-16_08h26.42.055,HF_wild_card,2022.2.4,MacIntel,60.0024001,60377564edd48263e3130a88,64d2fd46c836a06233681665,64dc7a263235279336e29631,,,,,,,decisionTrl,resources/DB.BMP,resources/DBN.BMP,Door3,0.289674479,0.014869792,1,0,0,0.5308,optionRight,70,5880,3,22,0,22,0,1,,,,,,,,,,,,,,,,,,,,,,,,,,,,,,,,,,,,,,,
,,,,,,,,2023-08-16_08h26.42.055,HF_wild_card,2022.2.4,MacIntel,60.0024001,60377564edd48263e3130a88,64d2fd46c836a06233681665,64dc7a263235279336e29631,,,,,,,decisionTrl,resources/DY.BMP,resources/DR.BMP,WildCard_NonEx,-0.233268229,-0.051145833,1,0,0,0.5629,optionLeft,45,5925,3,23,0,23,0,1,,,,,,,,,,,,,,,,,,,,,,,,,,,,,,,,,,,,,,,
,,,,,,,,2023-08-16_08h26.42.055,HF_wild_card,2022.2.4,MacIntel,60.0024001,60377564edd48263e3130a88,64d2fd46c836a06233681665,64dc7a263235279336e29631,,,,,,,ctch,resources/DB.BMP,resources/DR.BMP,Door4,-0.233029514,-0.04250434,1,0,0,0.7497,optionLeft,80,6005,3,24,0,24,0,1,,,,,,,,,,,,,,,,,,,,,,,,,,,,,,,,,,,,,,,
,,,,,,,,2023-08-16_08h26.42.055,HF_wild_card,2022.2.4,MacIntel,60.0024001,60377564edd48263e3130a88,64d2fd46c836a06233681665,64dc7a263235279336e29631,,,,,,,decisionTrl,resources/DG.BMP,resources/DR.BMP,Door2,-0.277730035,-0.047821181,1,0,0,0.6813,optionLeft,40,6045,3,25,0,25,0,1,,,,,,,,,,,,,,,,,,,,,,,,,,,,,,,,,,,,,,,
,,,,,,,,2023-08-16_08h26.42.055,HF_wild_card,2022.2.4,MacIntel,60.0024001,60377564edd48263e3130a88,64d2fd46c836a06233681665,64dc7a263235279336e29631,,,,,,,ctch,resources/DBN.BMP,resources/DG.BMP,Door3,-0.370221354,-0.052282986,1,0,0,0.4974,optionLeft,70,6115,3,26,0,26,0,1,,,,,,,,,,,,,,,,,,,,,,,,,,,,,,,,,,,,,,,
,,,,,,,,2023-08-16_08h26.42.055,HF_wild_card,2022.2.4,MacIntel,60.0024001,60377564edd48263e3130a88,64d2fd46c836a06233681665,64dc7a263235279336e29631,,,,,,,sngl,resources/DR.BMP,resources/Empty.png,Door1,-0.297747396,-0.026440972,1,0,0,0.4656,optionLeft,30,6145,3,27,0,27,0,1,,,,,,,,,,,,,,,,,,,,,,,,,,,,,,,,,,,,,,,
,,,,,,,,2023-08-16_08h26.42.055,HF_wild_card,2022.2.4,MacIntel,60.0024001,60377564edd48263e3130a88,64d2fd46c836a06233681665,64dc7a263235279336e29631,,,,,,,decisionTrl,resources/DBN.BMP,resources/DB.BMP,Door3,-0.318763021,-0.028450521,1,0,0,0.4141,optionLeft,70,6215,3,28,0,28,0,1,,,,,,,,,,,,,,,,,,,,,,,,,,,,,,,,,,,,,,,
,,,,,,,,2023-08-16_08h26.42.055,HF_wild_card,2022.2.4,MacIntel,60.0024001,60377564edd48263e3130a88,64d2fd46c836a06233681665,64dc7a263235279336e29631,,,,,,,sngl,resources/DY.BMP,resources/Empty.png,WildCard_NonEx,-0.261050347,-0.014097222,1,0,0,0.4613,optionLeft,55,6270,3,29,0,29,0,1,,,,,,,,,,,,,,,,,,,,,,,,,,,,,,,,,,,,,,,
,,,,,,,,2023-08-16_08h26.42.055,HF_wild_card,2022.2.4,MacIntel,60.0024001,60377564edd48263e3130a88,64d2fd46c836a06233681665,64dc7a263235279336e29631,,,,,,,decisionTrl,resources/DBN.BMP,resources/DB.BMP,Door3,-0.301219618,-0.028020833,1,0,0,0.6618,optionLeft,70,6340,3,30,0,30,0,1,,,,,,,,,,,,,,,,,,,,,,,,,,,,,,,,,,,,,,,
,,,,,,,,2023-08-16_08h26.42.055,HF_wild_card,2022.2.4,MacIntel,60.0024001,60377564edd48263e3130a88,64d2fd46c836a06233681665,64dc7a263235279336e29631,,,,,,,decisionTrl,resources/DB.BMP,resources/DY.BMP,WildCard_NonEx,0.319014757,-0.014544271,1,0,0,0.4632,optionRight,55,6395,3,31,0,31,0,1,,,,,,,,,,,,,,,,,,,,,,,,,,,,,,,,,,,,,,,
,,,,,,,,2023-08-16_08h26.42.055,HF_wild_card,2022.2.4,MacIntel,60.0024001,60377564edd48263e3130a88,64d2fd46c836a06233681665,64dc7a263235279336e29631,,,,,,,decisionTrl,resources/DY.BMP,resources/DBN.BMP,WildCard_NonEx,-0.283025174,-0.011657986,1,0,0,0.5484,optionLeft,45,6440,3,32,0,32,0,1,,,,,,,,,,,,,,,,,,,,,,,,,,,,,,,,,,,,,,,
,,,,,,,,2023-08-16_08h26.42.055,HF_wild_card,2022.2.4,MacIntel,60.0024001,60377564edd48263e3130a88,64d2fd46c836a06233681665,64dc7a263235279336e29631,,,,,,,ctch,resources/DBN.BMP,resources/DG.BMP,Door3,-0.350108507,-0.025195313,1,0,0,0.5131,optionLeft,70,6510,3,33,0,33,0,1,,,,,,,,,,,,,,,,,,,,,,,,,,,,,,,,,,,,,,,
,,,,,,,,2023-08-16_08h26.42.055,HF_wild_card,2022.2.4,MacIntel,60.0024001,60377564edd48263e3130a88,64d2fd46c836a06233681665,64dc7a263235279336e29631,,,,,,,decisionTrl,resources/DR.BMP,resources/DG.BMP,Door1,-0.26437066,-0.027039931,1,0,0,1.0131,optionLeft,30,6540,3,34,0,34,0,1,,,,,,,,,,,,,,,,,,,,,,,,,,,,,,,,,,,,,,,
,,,,,,,,2023-08-16_08h26.42.055,HF_wild_card,2022.2.4,MacIntel,60.0024001,60377564edd48263e3130a88,64d2fd46c836a06233681665,64dc7a263235279336e29631,,,,,,,decisionTrl,resources/DY.BMP,resources/DB.BMP,Door4,0.281393229,-0.010447049,1,0,0,0.4995,optionRight,60,6600,3,35,0,35,0,1,,,,,,,,,,,,,,,,,,,,,,,,,,,,,,,,,,,,,,,
,,,,,,,,2023-08-16_08h26.42.055,HF_wild_card,2022.2.4,MacIntel,60.0024001,60377564edd48263e3130a88,64d2fd46c836a06233681665,64dc7a263235279336e29631,,,,,,,sngl,resources/Empty.png,resources/DBN.BMP,Door3,0.272469618,0.006744792,1,0,0,0.5502,optionRight,70,6670,3,36,0,36,0,1,,,,,,,,,,,,,,,,,,,,,,,,,,,,,,,,,,,,,,,
,,,,,,,,2023-08-16_08h26.42.055,HF_wild_card,2022.2.4,MacIntel,60.0024001,60377564edd48263e3130a88,64d2fd46c836a06233681665,64dc7a263235279336e29631,,,,,,,decisionTrl,resources/DR.BMP,resources/DG.BMP,Door1,-0.302278646,-0.011623264,1,0,0,0.7149,optionLeft,30,6700,3,37,0,37,0,1,,,,,,,,,,,,,,,,,,,,,,,,,,,,,,,,,,,,,,,
,,,,,,,,2023-08-16_08h26.42.055,HF_wild_card,2022.2.4,MacIntel,60.0024001,60377564edd48263e3130a88,64d2fd46c836a06233681665,64dc7a263235279336e29631,,,,,,,decisionTrl,resources/DG.BMP,resources/DR.BMP,Door2,-0.284192708,-0.045655382,1,0,0,0.5975,optionLeft,40,6740,3,38,0,38,0,1,,,,,,,,,,,,,,,,,,,,,,,,,,,,,,,,,,,,,,,
,,,,,,,,2023-08-16_08h26.42.055,HF_wild_card,2022.2.4,MacIntel,60.0024001,60377564edd48263e3130a88,64d2fd46c836a06233681665,64dc7a263235279336e29631,,,,,,,decisionTrl,resources/DG.BMP,resources/DY.BMP,Door2,-0.274049479,-0.018012153,1,0,0,0.4485,optionLeft,40,6780,3,39,0,39,0,1,,,,,,,,,,,,,,,,,,,,,,,,,,,,,,,,,,,,,,,
,,,,,,,,2023-08-16_08h26.42.055,HF_wild_card,2022.2.4,MacIntel,60.0024001,60377564edd48263e3130a88,64d2fd46c836a06233681665,64dc7a263235279336e29631,,,,,,,decisionTrl,resources/DR.BMP,resources/DG.BMP,Door2,0.288546007,0.002604167,1,0,0,0.5322,optionRight,40,6820,3,40,0,40,0,1,,,,,,,,,,,,,,,,,,,,,,,,,,,,,,,,,,,,,,,
,,,,,,,,2023-08-16_08h26.42.055,HF_wild_card,2022.2.4,MacIntel,60.0024001,60377564edd48263e3130a88,64d2fd46c836a06233681665,64dc7a263235279336e29631,,,,,,,decisionTrl,resources/DBN.BMP,resources/DB.BMP,Door3,-0.331657986,-0.017144097,1,0,0,0.498,optionLeft,70,6890,3,41,0,41,0,1,,,,,,,,,,,,,,,,,,,,,,,,,,,,,,,,,,,,,,,
,,,,,,,,2023-08-16_08h26.42.055,HF_wild_card,2022.2.4,MacIntel,60.0024001,60377564edd48263e3130a88,64d2fd46c836a06233681665,64dc7a263235279336e29631,,,,,,,ctch,resources/DR.BMP,resources/DB.BMP,Door4,0.300772569,-0.046896701,1,0,0,0.4957,optionRight,60,6950,3,42,0,42,0,1,,,,,,,,,,,,,,,,,,,,,,,,,,,,,,,,,,,,,,,
,,,,,,,,2023-08-16_08h26.42.055,HF_wild_card,2022.2.4,MacIntel,60.0024001,60377564edd48263e3130a88,64d2fd46c836a06233681665,64dc7a263235279336e29631,,,,,,,decisionTrl,resources/DR.BMP,resources/DG.BMP,Door1,-0.250768229,-0.036875,1,0,0,0.5305,optionLeft,30,6980,3,43,0,43,0,1,,,,,,,,,,,,,,,,,,,,,,,,,,,,,,,,,,,,,,,
,,,,,,,,2023-08-16_08h26.42.055,HF_wild_card,2022.2.4,MacIntel,60.0024001,60377564edd48263e3130a88,64d2fd46c836a06233681665,64dc7a263235279336e29631,,,,,,,,,,,,,,,,,,,,,,,,,,2,0,2,0,1,,,,,,,,,,,,,,,,,,,,,,,,,,,,,,,,,,
,,,,,,,,2023-08-16_08h26.42.055,HF_wild_card,2022.2.4,MacIntel,60.0024001,60377564edd48263e3130a88,64d2fd46c836a06233681665,64dc7a263235279336e29631,,,,,,,ctch,resources/DB.BMP,resources/DR.BMP,Door4,-0.269140625,-0.055529514,1,0,0,0.6123,optionLeft,80,7060,4,0,0,0,0,1,,,,,,,,,,,,,,,,,,,,,,,,,,,,,,,,,,,,,,,
,,,,,,,,2023-08-16_08h26.42.055,HF_wild_card,2022.2.4,MacIntel,60.0024001,60377564edd48263e3130a88,64d2fd46c836a06233681665,64dc7a263235279336e29631,,,,,,,decisionTrl,resources/DP.BMP,resources/DB.BMP,WildCard_Ex,-0.276540799,-0.062708333,1,0,0,0.9952,optionLeft,45,7105,4,1,0,1,0,1,,,,,,,,,,,,,,,,,,,,,,,,,,,,,,,,,,,,,,,
,,,,,,,,2023-08-16_08h26.42.055,HF_wild_card,2022.2.4,MacIntel,60.0024001,60377564edd48263e3130a88,64d2fd46c836a06233681665,64dc7a263235279336e29631,,,,,,,ctch,resources/DBN.BMP,resources/DG.BMP,Door3,-0.339631076,-0.046449653,1,0,0,0.547,optionLeft,70,7175,4,2,0,2,0,1,,,,,,,,,,,,,,,,,,,,,,,,,,,,,,,,,,,,,,,
,,,,,,,,2023-08-16_08h26.42.055,HF_wild_card,2022.2.4,MacIntel,60.0024001,60377564edd48263e3130a88,64d2fd46c836a06233681665,64dc7a263235279336e29631,,,,,,,decisionTrl,resources/DB.BMP,resources/DP.BMP,Door4,-0.283528646,-0.080646701,1,0,0,0.6966,optionLeft,60,7235,4,3,0,3,0,1,,,,,,,,,,,,,,,,,,,,,,,,,,,,,,,,,,,,,,,
,,,,,,,,2023-08-16_08h26.42.055,HF_wild_card,2022.2.4,MacIntel,60.0024001,60377564edd48263e3130a88,64d2fd46c836a06233681665,64dc7a263235279336e29631,,,,,,,decisionTrl,resources/DBN.BMP,resources/DP.BMP,Door3,-0.273072917,-0.032981771,1,0,0,0.512,optionLeft,70,7305,4,4,0,4,0,1,,,,,,,,,,,,,,,,,,,,,,,,,,,,,,,,,,,,,,,
,,,,,,,,2023-08-16_08h26.42.055,HF_wild_card,2022.2.4,MacIntel,60.0024001,60377564edd48263e3130a88,64d2fd46c836a06233681665,64dc7a263235279336e29631,,,,,,,ctch,resources/DR.BMP,resources/DB.BMP,Door4,0.409748264,0.007078993,1,0,0,0.8121,optionRight,60,7365,4,5,0,5,0,1,,,,,,,,,,,,,,,,,,,,,,,,,,,,,,,,,,,,,,,
,,,,,,,,2023-08-16_08h26.42.055,HF_wild_card,2022.2.4,MacIntel,60.0024001,60377564edd48263e3130a88,64d2fd46c836a06233681665,64dc7a263235279336e29631,,,,,,,sngl,resources/DP.BMP,resources/Empty.png,WildCard_Ex,-0.361006944,-0.019279514,1,0,0,0.5783,optionLeft,45,7410,4,6,0,6,0,1,,,,,,,,,,,,,,,,,,,,,,,,,,,,,,,,,,,,,,,
,,,,,,,,2023-08-16_08h26.42.055,HF_wild_card,2022.2.4,MacIntel,60.0024001,60377564edd48263e3130a88,64d2fd46c836a06233681665,64dc7a263235279336e29631,,,,,,,ctch,resources/DB.BMP,resources/DR.BMP,Door4,-0.341701389,-0.026623264,1,0,0,0.5321,optionLeft,80,7490,4,7,0,7,0,1,,,,,,,,,,,,,,,,,,,,,,,,,,,,,,,,,,,,,,,
,,,,,,,,2023-08-16_08h26.42.055,HF_wild_card,2022.2.4,MacIntel,60.0024001,60377564edd48263e3130a88,64d2fd46c836a06233681665,64dc7a263235279336e29631,,,,,,,decisionTrl,resources/DG.BMP,resources/DP.BMP,Door2,-0.396189236,-0.020894097,1,0,0,0.8146,optionLeft,20,7510,4,8,0,8,0,1,,,,,,,,,,,,,,,,,,,,,,,,,,,,,,,,,,,,,,,
,,,,,,,,2023-08-16_08h26.42.055,HF_wild_card,2022.2.4,MacIntel,60.0024001,60377564edd48263e3130a88,64d2fd46c836a06233681665,64dc7a263235279336e29631,,,,,,,sngl,resources/Empty.png,resources/DG.BMP,Door2,0.294869792,0.045190972,1,0,0,0.4495,optionRight,40,7550,4,9,0,9,0,1,,,,,,,,,,,,,,,,,,,,,,,,,,,,,,,,,,,,,,,
,,,,,,,,2023-08-16_08h26.42.055,HF_wild_card,2022.2.4,MacIntel,60.0024001,60377564edd48263e3130a88,64d2fd46c836a06233681665,64dc7a263235279336e29631,,,,,,,decisionTrl,resources/DB.BMP,resources/DBN.BMP,Door3,0.354474826,0.027421875,1,0,0,0.7473,optionRight,70,7620,4,10,0,10,0,1,,,,,,,,,,,,,,,,,,,,,,,,,,,,,,,,,,,,,,,
,,,,,,,,2023-08-16_08h26.42.055,HF_wild_card,2022.2.4,MacIntel,60.0024001,60377564edd48263e3130a88,64d2fd46c836a06233681665,64dc7a263235279336e29631,,,,,,,decisionTrl,resources/DBN.BMP,resources/DB.BMP,Door3,-0.362916667,-0.045351562,1,0,0,0.5171,optionLeft,70,7690,4,11,0,11,0,1,,,,,,,,,,,,,,,,,,,,,,,,,,,,,,,,,,,,,,,
,,,,,,,,2023-08-16_08h26.42.055,HF_wild_card,2022.2.4,MacIntel,60.0024001,60377564edd48263e3130a88,64d2fd46c836a06233681665,64dc7a263235279336e29631,,,,,,,decisionTrl,resources/DP.BMP,resources/DBN.BMP,Door3,0.268793403,0.043294271,1,0,0,0.4955,optionRight,70,7760,4,12,0,12,0,1,,,,,,,,,,,,,,,,,,,,,,,,,,,,,,,,,,,,,,,
,,,,,,,,2023-08-16_08h26.42.055,HF_wild_card,2022.2.4,MacIntel,60.0024001,60377564edd48263e3130a88,64d2fd46c836a06233681665,64dc7a263235279336e29631,,,,,,,decisionTrl,resources/DBN.BMP,resources/DB.BMP,Door3,-0.282677951,-0.031480035,1,0,0,0.5306,optionLeft,70,7830,4,13,0,13,0,1,,,,,,,,,,,,,,,,,,,,,,,,,,,,,,,,,,,,,,,
,,,,,,,,2023-08-16_08h26.42.055,HF_wild_card,2022.2.4,MacIntel,60.0024001,60377564edd48263e3130a88,64d2fd46c836a06233681665,64dc7a263235279336e29631,,,,,,,decisionTrl,resources/DB.BMP,resources/DBN.BMP,Door3,0.411202257,0.000564236,1,0,0,0.6958,optionRight,70,7900,4,14,0,14,0,1,,,,,,,,,,,,,,,,,,,,,,,,,,,,,,,,,,,,,,,
,,,,,,,,2023-08-16_08h26.42.055,HF_wild_card,2022.2.4,MacIntel,60.0024001,60377564edd48263e3130a88,64d2fd46c836a06233681665,64dc7a263235279336e29631,,,,,,,decisionTrl,resources/DG.BMP,resources/DR.BMP,Door2,-0.185425347,-0.029353299,1,0,0,1.2811,optionLeft,40,7940,4,15,0,15,0,1,,,,,,,,,,,,,,,,,,,,,,,,,,,,,,,,,,,,,,,
,,,,,,,,2023-08-16_08h26.42.055,HF_wild_card,2022.2.4,MacIntel,60.0024001,60377564edd48263e3130a88,64d2fd46c836a06233681665,64dc7a263235279336e29631,,,,,,,decisionTrl,resources/DP.BMP,resources/DG.BMP,Door2,0.407005208,-0.129210069,1,0,0,1.1439,optionRight,20,7960,4,16,0,16,0,1,,,,,,,,,,,,,,,,,,,,,,,,,,,,,,,,,,,,,,,
,,,,,,,,2023-08-16_08h26.42.055,HF_wild_card,2022.2.4,MacIntel,60.0024001,60377564edd48263e3130a88,64d2fd46c836a06233681665,64dc7a263235279336e29631,,,,,,,decisionTrl,resources/DBN.BMP,resources/DB.BMP,Door3,-0.373689236,-0.009869792,1,0,0,0.6501,optionLeft,70,8030,4,17,0,17,0,1,,,,,,,,,,,,,,,,,,,,,,,,,,,,,,,,,,,,,,,
,,,,,,,,2023-08-16_08h26.42.055,HF_wild_card,2022.2.4,MacIntel,60.0024001,60377564edd48263e3130a88,64d2fd46c836a06233681665,64dc7a263235279336e29631,,,,,,,decisionTrl,resources/DB.BMP,resources/DBN.BMP,Door3,0.488333333,0.041423611,1,0,0,0.8823,optionRight,70,8100,4,18,0,18,0,1,,,,,,,,,,,,,,,,,,,,,,,,,,,,,,,,,,,,,,,
,,,,,,,,2023-08-16_08h26.42.055,HF_wild_card,2022.2.4,MacIntel,60.0024001,60377564edd48263e3130a88,64d2fd46c836a06233681665,64dc7a263235279336e29631,,,,,,,sngl,resources/Empty.png,resources/DB.BMP,Door4,0.327096354,-0.021705729,1,0,0,0.4989,optionRight,80,8180,4,19,0,19,0,1,,,,,,,,,,,,,,,,,,,,,,,,,,,,,,,,,,,,,,,
,,,,,,,,2023-08-16_08h26.42.055,HF_wild_card,2022.2.4,MacIntel,60.0024001,60377564edd48263e3130a88,64d2fd46c836a06233681665,64dc7a263235279336e29631,,,,,,,sngl,resources/DP.BMP,resources/Empty.png,WildCard_Ex,-0.300386285,-0.031692708,1,0,0,0.465,optionLeft,55,8235,4,20,0,20,0,1,,,,,,,,,,,,,,,,,,,,,,,,,,,,,,,,,,,,,,,
,,,,,,,,2023-08-16_08h26.42.055,HF_wild_card,2022.2.4,MacIntel,60.0024001,60377564edd48263e3130a88,64d2fd46c836a06233681665,64dc7a263235279336e29631,,,,,,,sngl,resources/Empty.png,resources/DP.BMP,WildCard_Ex,0.306232639,-0.005694444,1,0,0,0.4654,optionRight,45,8280,4,21,0,21,0,1,,,,,,,,,,,,,,,,,,,,,,,,,,,,,,,,,,,,,,,
,,,,,,,,2023-08-16_08h26.42.055,HF_wild_card,2022.2.4,MacIntel,60.0024001,60377564edd48263e3130a88,64d2fd46c836a06233681665,64dc7a263235279336e29631,,,,,,,decisionTrl,resources/DG.BMP,resources/DR.BMP,Door2,-0.315598958,-0.033315972,1,0,0,0.5475,optionLeft,20,8300,4,22,0,22,0,1,,,,,,,,,,,,,,,,,,,,,,,,,,,,,,,,,,,,,,,
,,,,,,,,2023-08-16_08h26.42.055,HF_wild_card,2022.2.4,MacIntel,60.0024001,60377564edd48263e3130a88,64d2fd46c836a06233681665,64dc7a263235279336e29631,,,,,,,decisionTrl,resources/DR.BMP,resources/DG.BMP,Door1,-0.260742188,-0.039414062,1,0,0,0.5327,optionLeft,30,8330,4,23,0,23,0,1,,,,,,,,,,,,,,,,,,,,,,,,,,,,,,,,,,,,,,,
,,,,,,,,2023-08-16_08h26.42.055,HF_wild_card,2022.2.4,MacIntel,60.0024001,60377564edd48263e3130a88,64d2fd46c836a06233681665,64dc7a263235279336e29631,,,,,,,decisionTrl,resources/DB.BMP,resources/DBN.BMP,Door3,0.243949653,-0.005824653,1,0,0,0.5466,optionRight,70,8400,4,24,0,24,0,1,,,,,,,,,,,,,,,,,,,,,,,,,,,,,,,,,,,,,,,
,,,,,,,,2023-08-16_08h26.42.055,HF_wild_card,2022.2.4,MacIntel,60.0024001,60377564edd48263e3130a88,64d2fd46c836a06233681665,64dc7a263235279336e29631,,,,,,,decisionTrl,resources/DG.BMP,resources/DR.BMP,Door2,-0.25546441,-0.013372396,1,0,0,0.8657,optionLeft,20,8420,4,25,0,25,0,1,,,,,,,,,,,,,,,,,,,,,,,,,,,,,,,,,,,,,,,
,,,,,,,,2023-08-16_08h26.42.055,HF_wild_card,2022.2.4,MacIntel,60.0024001,60377564edd48263e3130a88,64d2fd46c836a06233681665,64dc7a263235279336e29631,,,,,,,ctch,resources/DR.BMP,resources/DB.BMP,Door1,-0.257456597,-0.025828993,1,0,0,0.5136,optionLeft,30,8450,4,26,0,26,0,1,,,,,,,,,,,,,,,,,,,,,,,,,,,,,,,,,,,,,,,
,,,,,,,,2023-08-16_08h26.42.055,HF_wild_card,2022.2.4,MacIntel,60.0024001,60377564edd48263e3130a88,64d2fd46c836a06233681665,64dc7a263235279336e29631,,,,,,,ctch,resources/DG.BMP,resources/DBN.BMP,Door3,0.314448785,0.023224826,1,0,0,0.6792,optionRight,70,8520,4,27,0,27,0,1,,,,,,,,,,,,,,,,,,,,,,,,,,,,,,,,,,,,,,,
,,,,,,,,2023-08-16_08h26.42.055,HF_wild_card,2022.2.4,MacIntel,60.0024001,60377564edd48263e3130a88,64d2fd46c836a06233681665,64dc7a263235279336e29631,,,,,,,sngl,resources/Empty.png,resources/DBN.BMP,Door3,0.282534722,0.053658854,1,0,0,0.4973,optionRight,70,8590,4,28,0,28,0,1,,,,,,,,,,,,,,,,,,,,,,,,,,,,,,,,,,,,,,,
,,,,,,,,2023-08-16_08h26.42.055,HF_wild_card,2022.2.4,MacIntel,60.0024001,60377564edd48263e3130a88,64d2fd46c836a06233681665,64dc7a263235279336e29631,,,,,,,decisionTrl,resources/DP.BMP,resources/DR.BMP,WildCard_Ex,-0.325985243,-0.037530382,1,0,0,1.0115,optionLeft,55,8645,4,29,0,29,0,1,,,,,,,,,,,,,,,,,,,,,,,,,,,,,,,,,,,,,,,
,,,,,,,,2023-08-16_08h26.42.055,HF_wild_card,2022.2.4,MacIntel,60.0024001,60377564edd48263e3130a88,64d2fd46c836a06233681665,64dc7a263235279336e29631,,,,,,,sngl,resources/DG.BMP,resources/Empty.png,Door2,-0.350143229,-0.017886285,1,0,0,0.5802,optionLeft,20,8665,4,30,0,30,0,1,,,,,,,,,,,,,,,,,,,,,,,,,,,,,,,,,,,,,,,
,,,,,,,,2023-08-16_08h26.42.055,HF_wild_card,2022.2.4,MacIntel,60.0024001,60377564edd48263e3130a88,64d2fd46c836a06233681665,64dc7a263235279336e29631,,,,,,,decisionTrl,resources/DG.BMP,resources/DR.BMP,Door1,0.193125,0.004227431,1,0,0,1.2476,optionRight,30,8695,4,31,0,31,0,1,,,,,,,,,,,,,,,,,,,,,,,,,,,,,,,,,,,,,,,
,,,,,,,,2023-08-16_08h26.42.055,HF_wild_card,2022.2.4,MacIntel,60.0024001,60377564edd48263e3130a88,64d2fd46c836a06233681665,64dc7a263235279336e29631,,,,,,,ctch,resources/DBN.BMP,resources/DG.BMP,Door3,-0.331540799,-0.015820312,1,0,0,0.5484,optionLeft,70,8765,4,32,0,32,0,1,,,,,,,,,,,,,,,,,,,,,,,,,,,,,,,,,,,,,,,
,,,,,,,,2023-08-16_08h26.42.055,HF_wild_card,2022.2.4,MacIntel,60.0024001,60377564edd48263e3130a88,64d2fd46c836a06233681665,64dc7a263235279336e29631,,,,,,,sngl,resources/Empty.png,resources/DR.BMP,Door1,0.342829861,0.018311632,1,0,0,0.5792,optionRight,30,8795,4,33,0,33,0,1,,,,,,,,,,,,,,,,,,,,,,,,,,,,,,,,,,,,,,,
,,,,,,,,2023-08-16_08h26.42.055,HF_wild_card,2022.2.4,MacIntel,60.0024001,60377564edd48263e3130a88,64d2fd46c836a06233681665,64dc7a263235279336e29631,,,,,,,ctch,resources/DG.BMP,resources/DBN.BMP,Door3,0.426545139,0.00187934,1,0,0,0.6319,optionRight,70,8865,4,34,0,34,0,1,,,,,,,,,,,,,,,,,,,,,,,,,,,,,,,,,,,,,,,
,,,,,,,,2023-08-16_08h26.42.055,HF_wild_card,2022.2.4,MacIntel,60.0024001,60377564edd48263e3130a88,64d2fd46c836a06233681665,64dc7a263235279336e29631,,,,,,,sngl,resources/DBN.BMP,resources/Empty.png,Door3,-0.36906684,-0.017686632,1,0,0,0.5113,optionLeft,70,8935,4,35,0,35,0,1,,,,,,,,,,,,,,,,,,,,,,,,,,,,,,,,,,,,,,,
,,,,,,,,2023-08-16_08h26.42.055,HF_wild_card,2022.2.4,MacIntel,60.0024001,60377564edd48263e3130a88,64d2fd46c836a06233681665,64dc7a263235279336e29631,,,,,,,sngl,resources/DR.BMP,resources/Empty.png,Door1,-0.392921007,0.044305556,1,0,0,0.5636,optionLeft,30,8965,4,36,0,36,0,1,,,,,,,,,,,,,,,,,,,,,,,,,,,,,,,,,,,,,,,
,,,,,,,,2023-08-16_08h26.42.055,HF_wild_card,2022.2.4,MacIntel,60.0024001,60377564edd48263e3130a88,64d2fd46c836a06233681665,64dc7a263235279336e29631,,,,,,,decisionTrl,resources/DR.BMP,resources/DG.BMP,Door1,-0.332161458,-0.035095486,1,0,0,0.5469,optionLeft,30,8995,4,37,0,37,0,1,,,,,,,,,,,,,,,,,,,,,,,,,,,,,,,,,,,,,,,
,,,,,,,,2023-08-16_08h26.42.055,HF_wild_card,2022.2.4,MacIntel,60.0024001,60377564edd48263e3130a88,64d2fd46c836a06233681665,64dc7a263235279336e29631,,,,,,,sngl,resources/Empty.png,resources/DP.BMP,WildCard_Ex,0.377552083,-0.014023437,1,0,0,0.5798,optionRight,55,9050,4,38,0,38,0,1,,,,,,,,,,,,,,,,,,,,,,,,,,,,,,,,,,,,,,,
,,,,,,,,2023-08-16_08h26.42.055,HF_wild_card,2022.2.4,MacIntel,60.0024001,60377564edd48263e3130a88,64d2fd46c836a06233681665,64dc7a263235279336e29631,,,,,,,decisionTrl,resources/DR.BMP,resources/DG.BMP,Door1,-0.229813368,-0.070998264,1,0,0,0.6944,optionLeft,30,9080,4,39,0,39,0,1,,,,,,,,,,,,,,,,,,,,,,,,,,,,,,,,,,,,,,,
,,,,,,,,2023-08-16_08h26.42.055,HF_wild_card,2022.2.4,MacIntel,60.0024001,60377564edd48263e3130a88,64d2fd46c836a06233681665,64dc7a263235279336e29631,,,,,,,decisionTrl,resources/DR.BMP,resources/DG.BMP,Door1,-0.249548611,-0.045664062,1,0,0,0.4968,optionLeft,30,9110,4,40,0,40,0,1,,,,,,,,,,,,,,,,,,,,,,,,,,,,,,,,,,,,,,,
,,,,,,,,2023-08-16_08h26.42.055,HF_wild_card,2022.2.4,MacIntel,60.0024001,60377564edd48263e3130a88,64d2fd46c836a06233681665,64dc7a263235279336e29631,,,,,,,decisionTrl,resources/DR.BMP,resources/DP.BMP,Door1,-0.316293403,-0.064249132,1,0,0,0.4122,optionLeft,30,9140,4,41,0,41,0,1,,,,,,,,,,,,,,,,,,,,,,,,,,,,,,,,,,,,,,,
,,,,,,,,2023-08-16_08h26.42.055,HF_wild_card,2022.2.4,MacIntel,60.0024001,60377564edd48263e3130a88,64d2fd46c836a06233681665,64dc7a263235279336e29631,,,,,,,decisionTrl,resources/DBN.BMP,resources/DB.BMP,Door3,-0.302873264,-0.047769097,1,0,0,0.514,optionLeft,70,9210,4,42,0,42,0,1,,,,,,,,,,,,,,,,,,,,,,,,,,,,,,,,,,,,,,,
,,,,,,,,2023-08-16_08h26.42.055,HF_wild_card,2022.2.4,MacIntel,60.0024001,60377564edd48263e3130a88,64d2fd46c836a06233681665,64dc7a263235279336e29631,,,,,,,sngl,resources/DB.BMP,resources/Empty.png,Door4,-0.272217882,-0.042838542,1,0,0,0.5271,optionLeft,60,9270,4,43,0,43,0,1,,,,,,,,,,,,,,,,,,,,,,,,,,,,,,,,,,,,,,,
,,,,,,,,2023-08-16_08h26.42.055,HF_wild_card,2022.2.4,MacIntel,60.0024001,60377564edd48263e3130a88,64d2fd46c836a06233681665,64dc7a263235279336e29631,,,,,,,,,,,,,,,,,,,,,,,,,,3,0,3,0,1,,,,,,,,,,,,,,,,,,,,,,,,,,,,,,,,,,
,,,,,,,,2023-08-16_08h26.42.055,HF_wild_card,2022.2.4,MacIntel,60.0024001,60377564edd48263e3130a88,64d2fd46c836a06233681665,64dc7a263235279336e29631,,,,,,,sngl,resources/DBN.BMP,resources/Empty.png,Door3,-0.307330729,-0.110251736,1,0,0,0.665,optionLeft,70,9340,5,0,0,0,0,1,,,,,,,,,,,,,,,,,,,,,,,,,,,,,,,,,,,,,,,
,,,,,,,,2023-08-16_08h26.42.055,HF_wild_card,2022.2.4,MacIntel,60.0024001,60377564edd48263e3130a88,64d2fd46c836a06233681665,64dc7a263235279336e29631,,,,,,,ctch,resources/DR.BMP,resources/DB.BMP,Door4,0.396111111,-0.024917535,1,0,0,1.433,optionRight,80,9420,5,1,0,1,0,1,,,,,,,,,,,,,,,,,,,,,,,,,,,,,,,,,,,,,,,
,,,,,,,,2023-08-16_08h26.42.055,HF_wild_card,2022.2.4,MacIntel,60.0024001,60377564edd48263e3130a88,64d2fd46c836a06233681665,64dc7a263235279336e29631,,,,,,,ctch,resources/DB.BMP,resources/DR.BMP,Door4,-0.007326389,-0.001453993,1,0,0,0.1306,optionLeft,60,9480,5,2,0,2,0,1,,,,,,,,,,,,,,,,,,,,,,,,,,,,,,,,,,,,,,,
,,,,,,,,2023-08-16_08h26.42.055,HF_wild_card,2022.2.4,MacIntel,60.0024001,60377564edd48263e3130a88,64d2fd46c836a06233681665,64dc7a263235279336e29631,,,,,,,decisionTrl,resources/DG.BMP,resources/DR.BMP,Door2,-0.283233507,-0.009930556,1,0,0,1.333,optionLeft,40,9520,5,3,0,3,0,1,,,,,,,,,,,,,,,,,,,,,,,,,,,,,,,,,,,,,,,
,,,,,,,,2023-08-16_08h26.42.055,HF_wild_card,2022.2.4,MacIntel,60.0024001,60377564edd48263e3130a88,64d2fd46c836a06233681665,64dc7a263235279336e29631,,,,,,,sngl,resources/DB.BMP,resources/Empty.png,Door4,-0.330030382,-0.05515625,1,0,0,0.5821,optionLeft,80,9600,5,4,0,4,0,1,,,,,,,,,,,,,,,,,,,,,,,,,,,,,,,,,,,,,,,
,,,,,,,,2023-08-16_08h26.42.055,HF_wild_card,2022.2.4,MacIntel,60.0024001,60377564edd48263e3130a88,64d2fd46c836a06233681665,64dc7a263235279336e29631,,,,,,,decisionTrl,resources/DP.BMP,resources/DBN.BMP,Door3,0.25171441,-0.025872396,1,0,0,1.1628,optionRight,70,9670,5,5,0,5,0,1,,,,,,,,,,,,,,,,,,,,,,,,,,,,,,,,,,,,,,,
,,,,,,,,2023-08-16_08h26.42.055,HF_wild_card,2022.2.4,MacIntel,60.0024001,60377564edd48263e3130a88,64d2fd46c836a06233681665,64dc7a263235279336e29631,,,,,,,sngl,resources/Empty.png,resources/DB.BMP,Door4,0.267708333,-0.009518229,1,0,0,0.6624,optionRight,60,9730,5,6,0,6,0,1,,,,,,,,,,,,,,,,,,,,,,,,,,,,,,,,,,,,,,,
,,,,,,,,2023-08-16_08h26.42.055,HF_wild_card,2022.2.4,MacIntel,60.0024001,60377564edd48263e3130a88,64d2fd46c836a06233681665,64dc7a263235279336e29631,,,,,,,decisionTrl,resources/DBN.BMP,resources/DP.BMP,Door3,-0.347230903,-0.060681424,1,0,0,0.8114,optionLeft,70,9800,5,7,0,7,0,1,,,,,,,,,,,,,,,,,,,,,,,,,,,,,,,,,,,,,,,
,,,,,,,,2023-08-16_08h26.42.055,HF_wild_card,2022.2.4,MacIntel,60.0024001,60377564edd48263e3130a88,64d2fd46c836a06233681665,64dc7a263235279336e29631,,,,,,,decisionTrl,resources/DBN.BMP,resources/DB.BMP,Door3,-0.307955729,-0.018125,1,0,0,0.6634,optionLeft,70,9870,5,8,0,8,0,1,,,,,,,,,,,,,,,,,,,,,,,,,,,,,,,,,,,,,,,
,,,,,,,,2023-08-16_08h26.42.055,HF_wild_card,2022.2.4,MacIntel,60.0024001,60377564edd48263e3130a88,64d2fd46c836a06233681665,64dc7a263235279336e29631,,,,,,,decisionTrl,resources/DB.BMP,resources/DBN.BMP,Door3,0.263342014,0.04375,1,0,0,0.9603,optionRight,70,9940,5,9,0,9,0,1,,,,,,,,,,,,,,,,,,,,,,,,,,,,,,,,,,,,,,,
,,,,,,,,2023-08-16_08h26.42.055,HF_wild_card,2022.2.4,MacIntel,60.0024001,60377564edd48263e3130a88,64d2fd46c836a06233681665,64dc7a263235279336e29631,,,,,,,decisionTrl,resources/DBN.BMP,resources/DB.BMP,Door3,-0.263780382,-0.039605035,1,0,0,0.6662,optionLeft,70,10010,5,10,0,10,0,1,,,,,,,,,,,,,,,,,,,,,,,,,,,,,,,,,,,,,,,
,,,,,,,,2023-08-16_08h26.42.055,HF_wild_card,2022.2.4,MacIntel,60.0024001,60377564edd48263e3130a88,64d2fd46c836a06233681665,64dc7a263235279336e29631,,,,,,,decisionTrl,resources/DR.BMP,resources/DG.BMP,Door1,-0.305017361,-0.05641059,1,0,0,1.4652,optionLeft,30,10040,5,11,0,11,0,1,,,,,,,,,,,,,,,,,,,,,,,,,,,,,,,,,,,,,,,
,,,,,,,,2023-08-16_08h26.42.055,HF_wild_card,2022.2.4,MacIntel,60.0024001,60377564edd48263e3130a88,64d2fd46c836a06233681665,64dc7a263235279336e29631,,,,,,,decisionTrl,resources/DBN.BMP,resources/DB.BMP,Door3,-0.318042535,-0.055985243,1,0,0,0.5796,optionLeft,70,10110,5,12,0,12,0,1,,,,,,,,,,,,,,,,,,,,,,,,,,,,,,,,,,,,,,,
,,,,,,,,2023-08-16_08h26.42.055,HF_wild_card,2022.2.4,MacIntel,60.0024001,60377564edd48263e3130a88,64d2fd46c836a06233681665,64dc7a263235279336e29631,,,,,,,sngl,resources/Empty.png,resources/DR.BMP,Door1,0.336679687,0.014513889,1,0,0,1.0166,optionRight,30,10140,5,13,0,13,0,1,,,,,,,,,,,,,,,,,,,,,,,,,,,,,,,,,,,,,,,
,,,,,,,,2023-08-16_08h26.42.055,HF_wild_card,2022.2.4,MacIntel,60.0024001,60377564edd48263e3130a88,64d2fd46c836a06233681665,64dc7a263235279336e29631,,,,,,,decisionTrl,resources/DB.BMP,resources/DP.BMP,Door4,-0.367664931,-0.023033854,1,0,0,1.5627,optionLeft,60,10200,5,14,0,14,0,1,,,,,,,,,,,,,,,,,,,,,,,,,,,,,,,,,,,,,,,
,,,,,,,,2023-08-16_08h26.42.055,HF_wild_card,2022.2.4,MacIntel,60.0024001,60377564edd48263e3130a88,64d2fd46c836a06233681665,64dc7a263235279336e29631,,,,,,,decisionTrl,resources/DG.BMP,resources/DR.BMP,Door1,0.432135417,0.071019965,1,0,0,0.9646,optionRight,30,10230,5,15,0,15,0,1,,,,,,,,,,,,,,,,,,,,,,,,,,,,,,,,,,,,,,,
,,,,,,,,2023-08-16_08h26.42.055,HF_wild_card,2022.2.4,MacIntel,60.0024001,60377564edd48263e3130a88,64d2fd46c836a06233681665,64dc7a263235279336e29631,,,,,,,ctch,resources/DR.BMP,resources/DB.BMP,Door1,-0.283446181,-0.026128472,1,0,0,0.6626,optionLeft,30,10260,5,16,0,16,0,1,,,,,,,,,,,,,,,,,,,,,,,,,,,,,,,,,,,,,,,
,,,,,,,,2023-08-16_08h26.42.055,HF_wild_card,2022.2.4,MacIntel,60.0024001,60377564edd48263e3130a88,64d2fd46c836a06233681665,64dc7a263235279336e29631,,,,,,,ctch,resources/DG.BMP,resources/DBN.BMP,Door3,0.318146701,-0.013559028,1,0,0,0.8447,optionRight,70,10330,5,17,0,17,0,1,,,,,,,,,,,,,,,,,,,,,,,,,,,,,,,,,,,,,,,
,,,,,,,,2023-08-16_08h26.42.055,HF_wild_card,2022.2.4,MacIntel,60.0024001,60377564edd48263e3130a88,64d2fd46c836a06233681665,64dc7a263235279336e29631,,,,,,,sngl,resources/DP.BMP,resources/Empty.png,WildCard_Ex,-0.326137153,-0.045837674,1,0,0,0.5654,optionLeft,45,10375,5,18,0,18,0,1,,,,,,,,,,,,,,,,,,,,,,,,,,,,,,,,,,,,,,,
,,,,,,,,2023-08-16_08h26.42.055,HF_wild_card,2022.2.4,MacIntel,60.0024001,60377564edd48263e3130a88,64d2fd46c836a06233681665,64dc7a263235279336e29631,,,,,,,decisionTrl,resources/DR.BMP,resources/DG.BMP,Door1,-0.397070313,-0.054079861,1,0,0,0.7303,optionLeft,30,10405,5,19,0,19,0,1,,,,,,,,,,,,,,,,,,,,,,,,,,,,,,,,,,,,,,,
,,,,,,,,2023-08-16_08h26.42.055,HF_wild_card,2022.2.4,MacIntel,60.0024001,60377564edd48263e3130a88,64d2fd46c836a06233681665,64dc7a263235279336e29631,,,,,,,sngl,resources/DG.BMP,resources/Empty.png,Door2,-0.237326389,-0.027217882,1,0,0,0.5796,optionLeft,40,10445,5,20,0,20,0,1,,,,,,,,,,,,,,,,,,,,,,,,,,,,,,,,,,,,,,,
,,,,,,,,2023-08-16_08h26.42.055,HF_wild_card,2022.2.4,MacIntel,60.0024001,60377564edd48263e3130a88,64d2fd46c836a06233681665,64dc7a263235279336e29631,,,,,,,decisionTrl,resources/DB.BMP,resources/DBN.BMP,Door3,0.310377604,0.056671007,1,0,0,0.9626,optionRight,70,10515,5,21,0,21,0,1,,,,,,,,,,,,,,,,,,,,,,,,,,,,,,,,,,,,,,,
,,,,,,,,2023-08-16_08h26.42.055,HF_wild_card,2022.2.4,MacIntel,60.0024001,60377564edd48263e3130a88,64d2fd46c836a06233681665,64dc7a263235279336e29631,,,,,,,sngl,resources/DR.BMP,resources/Empty.png,Door1,-0.263893229,-0.022109375,1,0,0,0.5306,optionLeft,30,10545,5,22,0,22,0,1,,,,,,,,,,,,,,,,,,,,,,,,,,,,,,,,,,,,,,,
,,,,,,,,2023-08-16_08h26.42.055,HF_wild_card,2022.2.4,MacIntel,60.0024001,60377564edd48263e3130a88,64d2fd46c836a06233681665,64dc7a263235279336e29631,,,,,,,ctch,resources/DG.BMP,resources/DBN.BMP,Door3,0.325273437,0.014496528,1,0,0,0.8633,optionRight,70,10615,5,23,0,23,0,1,,,,,,,,,,,,,,,,,,,,,,,,,,,,,,,,,,,,,,,
,,,,,,,,2023-08-16_08h26.42.055,HF_wild_card,2022.2.4,MacIntel,60.0024001,60377564edd48263e3130a88,64d2fd46c836a06233681665,64dc7a263235279336e29631,,,,,,,sngl,resources/Empty.png,resources/DBN.BMP,Door3,0.333242188,-0.009891493,1,0,0,0.6821,optionRight,70,10685,5,24,0,24,0,1,,,,,,,,,,,,,,,,,,,,,,,,,,,,,,,,,,,,,,,
,,,,,,,,2023-08-16_08h26.42.055,HF_wild_card,2022.2.4,MacIntel,60.0024001,60377564edd48263e3130a88,64d2fd46c836a06233681665,64dc7a263235279336e29631,,,,,,,ctch,resources/DB.BMP,resources/DR.BMP,Door4,-0.283493924,-0.069461806,1,0,0,1.3311,optionLeft,80,10765,5,25,0,25,0,1,,,,,,,,,,,,,,,,,,,,,,,,,,,,,,,,,,,,,,,
,,,,,,,,2023-08-16_08h26.42.055,HF_wild_card,2022.2.4,MacIntel,60.0024001,60377564edd48263e3130a88,64d2fd46c836a06233681665,64dc7a263235279336e29631,,,,,,,ctch,resources/DBN.BMP,resources/DG.BMP,Door3,-0.281367188,-0.037912326,1,0,0,0.6958,optionLeft,70,10835,5,26,0,26,0,1,,,,,,,,,,,,,,,,,,,,,,,,,,,,,,,,,,,,,,,
,,,,,,,,2023-08-16_08h26.42.055,HF_wild_card,2022.2.4,MacIntel,60.0024001,60377564edd48263e3130a88,64d2fd46c836a06233681665,64dc7a263235279336e29631,,,,,,,sngl,resources/DP.BMP,resources/Empty.png,WildCard_Ex,-0.298884549,-0.042534722,1,0,0,0.5146,optionLeft,55,10890,5,27,0,27,0,1,,,,,,,,,,,,,,,,,,,,,,,,,,,,,,,,,,,,,,,
,,,,,,,,2023-08-16_08h26.42.055,HF_wild_card,2022.2.4,MacIntel,60.0024001,60377564edd48263e3130a88,64d2fd46c836a06233681665,64dc7a263235279336e29631,,,,,,,ctch,resources/DBN.BMP,resources/DG.BMP,Door3,-0.343046875,-0.053307292,1,0,0,0.5827,optionLeft,70,10960,5,28,0,28,0,1,,,,,,,,,,,,,,,,,,,,,,,,,,,,,,,,,,,,,,,
,,,,,,,,2023-08-16_08h26.42.055,HF_wild_card,2022.2.4,MacIntel,60.0024001,60377564edd48263e3130a88,64d2fd46c836a06233681665,64dc7a263235279336e29631,,,,,,,decisionTrl,resources/DG.BMP,resources/DP.BMP,WildCard_Ex,0.291202257,-0.029123264,1,0,0,0.8331,optionRight,45,11005,5,29,0,29,0,1,,,,,,,,,,,,,,,,,,,,,,,,,,,,,,,,,,,,,,,
,,,,,,,,2023-08-16_08h26.42.055,HF_wild_card,2022.2.4,MacIntel,60.0024001,60377564edd48263e3130a88,64d2fd46c836a06233681665,64dc7a263235279336e29631,,,,,,,decisionTrl,resources/DR.BMP,resources/DP.BMP,WildCard_Ex,0.418476562,-0.050234375,1,0,0,1.3329,optionRight,45,11050,5,30,0,30,0,1,,,,,,,,,,,,,,,,,,,,,,,,,,,,,,,,,,,,,,,
,,,,,,,,2023-08-16_08h26.42.055,HF_wild_card,2022.2.4,MacIntel,60.0024001,60377564edd48263e3130a88,64d2fd46c836a06233681665,64dc7a263235279336e29631,,,,,,,decisionTrl,resources/DB.BMP,resources/DBN.BMP,Door3,0.377235243,-0.057786458,1,0,0,0.8849,optionRight,70,11120,5,31,0,31,0,1,,,,,,,,,,,,,,,,,,,,,,,,,,,,,,,,,,,,,,,
,,,,,,,,2023-08-16_08h26.42.055,HF_wild_card,2022.2.4,MacIntel,60.0024001,60377564edd48263e3130a88,64d2fd46c836a06233681665,64dc7a263235279336e29631,,,,,,,decisionTrl,resources/DG.BMP,resources/DR.BMP,Door1,0.250720486,-0.012734375,1,0,0,1.2983,optionRight,30,11150,5,32,0,32,0,1,,,,,,,,,,,,,,,,,,,,,,,,,,,,,,,,,,,,,,,
,,,,,,,,2023-08-16_08h26.42.055,HF_wild_card,2022.2.4,MacIntel,60.0024001,60377564edd48263e3130a88,64d2fd46c836a06233681665,64dc7a263235279336e29631,,,,,,,decisionTrl,resources/DBN.BMP,resources/DB.BMP,Door3,-0.291284722,-0.005581597,1,0,0,0.7335,optionLeft,70,11220,5,33,0,33,0,1,,,,,,,,,,,,,,,,,,,,,,,,,,,,,,,,,,,,,,,
,,,,,,,,2023-08-16_08h26.42.055,HF_wild_card,2022.2.4,MacIntel,60.0024001,60377564edd48263e3130a88,64d2fd46c836a06233681665,64dc7a263235279336e29631,,,,,,,sngl,resources/Empty.png,resources/DG.BMP,Door2,0.365394965,0.00343316,1,0,0,0.6117,optionRight,20,11240,5,34,0,34,0,1,,,,,,,,,,,,,,,,,,,,,,,,,,,,,,,,,,,,,,,
,,,,,,,,2023-08-16_08h26.42.055,HF_wild_card,2022.2.4,MacIntel,60.0024001,60377564edd48263e3130a88,64d2fd46c836a06233681665,64dc7a263235279336e29631,,,,,,,decisionTrl,resources/DR.BMP,resources/DG.BMP,Door1,-0.372022569,-0.002565104,1,0,0,0.6107,optionLeft,30,11270,5,35,0,35,0,1,,,,,,,,,,,,,,,,,,,,,,,,,,,,,,,,,,,,,,,
,,,,,,,,2023-08-16_08h26.42.055,HF_wild_card,2022.2.4,MacIntel,60.0024001,60377564edd48263e3130a88,64d2fd46c836a06233681665,64dc7a263235279336e29631,,,,,,,decisionTrl,resources/DP.BMP,resources/DB.BMP,Door4,0.370368924,0.018628472,1,0,0,1.0157,optionRight,80,11350,5,36,0,36,0,1,,,,,,,,,,,,,,,,,,,,,,,,,,,,,,,,,,,,,,,
,,,,,,,,2023-08-16_08h26.42.055,HF_wild_card,2022.2.4,MacIntel,60.0024001,60377564edd48263e3130a88,64d2fd46c836a06233681665,64dc7a263235279336e29631,,,,,,,sngl,resources/Empty.png,resources/DP.BMP,WildCard_Ex,0.24375,0.008611111,1,0,0,0.597,optionRight,45,11395,5,37,0,37,0,1,,,,,,,,,,,,,,,,,,,,,,,,,,,,,,,,,,,,,,,
,,,,,,,,2023-08-16_08h26.42.055,HF_wild_card,2022.2.4,MacIntel,60.0024001,60377564edd48263e3130a88,64d2fd46c836a06233681665,64dc7a263235279336e29631,,,,,,,decisionTrl,resources/DB.BMP,resources/DBN.BMP,Door3,0.408810764,0.023064236,1,0,0,0.8646,optionRight,70,11465,5,38,0,38,0,1,,,,,,,,,,,,,,,,,,,,,,,,,,,,,,,,,,,,,,,
,,,,,,,,2023-08-16_08h26.42.055,HF_wild_card,2022.2.4,MacIntel,60.0024001,60377564edd48263e3130a88,64d2fd46c836a06233681665,64dc7a263235279336e29631,,,,,,,decisionTrl,resources/DP.BMP,resources/DR.BMP,WildCard_Ex,-0.380455729,-0.003628472,1,0,0,1.2142,optionLeft,55,11520,5,39,0,39,0,1,,,,,,,,,,,,,,,,,,,,,,,,,,,,,,,,,,,,,,,
,,,,,,,,2023-08-16_08h26.42.055,HF_wild_card,2022.2.4,MacIntel,60.0024001,60377564edd48263e3130a88,64d2fd46c836a06233681665,64dc7a263235279336e29631,,,,,,,decisionTrl,resources/DP.BMP,resources/DG.BMP,WildCard_Ex,-0.22016059,-0.047734375,1,0,0,0.5652,optionLeft,45,11565,5,40,0,40,0,1,,,,,,,,,,,,,,,,,,,,,,,,,,,,,,,,,,,,,,,
,,,,,,,,2023-08-16_08h26.42.055,HF_wild_card,2022.2.4,MacIntel,60.0024001,60377564edd48263e3130a88,64d2fd46c836a06233681665,64dc7a263235279336e29631,,,,,,,sngl,resources/Empty.png,resources/DP.BMP,WildCard_Ex,0.309266493,0.011766493,1,0,0,0.5305,optionRight,55,11620,5,41,0,41,0,1,,,,,,,,,,,,,,,,,,,,,,,,,,,,,,,,,,,,,,,
,,,,,,,,2023-08-16_08h26.42.055,HF_wild_card,2022.2.4,MacIntel,60.0024001,60377564edd48263e3130a88,64d2fd46c836a06233681665,64dc7a263235279336e29631,,,,,,,decisionTrl,resources/DR.BMP,resources/DG.BMP,Door1,-0.326818576,-0.027078993,1,0,0,0.9303,optionLeft,30,11650,5,42,0,42,0,1,,,,,,,,,,,,,,,,,,,,,,,,,,,,,,,,,,,,,,,
,,,,,,,,2023-08-16_08h26.42.055,HF_wild_card,2022.2.4,MacIntel,60.0024001,60377564edd48263e3130a88,64d2fd46c836a06233681665,64dc7a263235279336e29631,,,,,,,decisionTrl,resources/DG.BMP,resources/DR.BMP,Door1,0.362530382,0.009427083,1,0,0,0.8153,optionRight,30,11680,5,43,0,43,0,1,,,,,,,,,,,,,,,,,,,,,,,,,,,,,,,,,,,,,,,
,,,,,,,,2023-08-16_08h26.42.055,HF_wild_card,2022.2.4,MacIntel,60.0024001,60377564edd48263e3130a88,64d2fd46c836a06233681665,64dc7a263235279336e29631,,,,,,,,,,,,,,,,,,,,,,,,,,4,0,4,0,1,,,,,,,,,,,,,,,,,,,,,,,,,,,,,,,,,,
,,,,,,,,2023-08-16_08h26.42.055,HF_wild_card,2022.2.4,MacIntel,60.0024001,60377564edd48263e3130a88,64d2fd46c836a06233681665,64dc7a263235279336e29631,,,,,,,decisionTrl,resources/DB.BMP,resources/DBN.BMP,Door3,0.338980035,-0.054270833,1,0,0,1.0124,optionRight,70,11750,6,0,0,0,0,1,,,,,,,,,,,,,,,,,,,,,,,,,,,,,,,,,,,,,,,
,,,,,,,,2023-08-16_08h26.42.055,HF_wild_card,2022.2.4,MacIntel,60.0024001,60377564edd48263e3130a88,64d2fd46c836a06233681665,64dc7a263235279336e29631,,,,,,,decisionTrl,resources/DB.BMP,resources/DBN.BMP,Door3,0.351184896,0.054726562,1,0,0,0.4813,optionRight,70,11820,6,1,0,1,0,1,,,,,,,,,,,,,,,,,,,,,,,,,,,,,,,,,,,,,,,
,,,,,,,,2023-08-16_08h26.42.055,HF_wild_card,2022.2.4,MacIntel,60.0024001,60377564edd48263e3130a88,64d2fd46c836a06233681665,64dc7a263235279336e29631,,,,,,,ctch,resources/DG.BMP,resources/DBN.BMP,Door3,0.337139757,0.000125868,1,0,0,0.429,optionRight,70,11890,6,2,0,2,0,1,,,,,,,,,,,,,,,,,,,,,,,,,,,,,,,,,,,,,,,
,,,,,,,,2023-08-16_08h26.42.055,HF_wild_card,2022.2.4,MacIntel,60.0024001,60377564edd48263e3130a88,64d2fd46c836a06233681665,64dc7a263235279336e29631,,,,,,,sngl,resources/DP.BMP,resources/Empty.png,WildCard_Ex,-0.405455729,-0.039626736,1,0,0,0.7644,optionLeft,55,11945,6,3,0,3,0,1,,,,,,,,,,,,,,,,,,,,,,,,,,,,,,,,,,,,,,,
,,,,,,,,2023-08-16_08h26.42.055,HF_wild_card,2022.2.4,MacIntel,60.0024001,60377564edd48263e3130a88,64d2fd46c836a06233681665,64dc7a263235279336e29631,,,,,,,ctch,resources/DB.BMP,resources/DR.BMP,Door4,-0.320733507,-0.036710069,1,0,0,1.0113,optionLeft,80,12025,6,4,0,4,0,1,,,,,,,,,,,,,,,,,,,,,,,,,,,,,,,,,,,,,,,
,,,,,,,,2023-08-16_08h26.42.055,HF_wild_card,2022.2.4,MacIntel,60.0024001,60377564edd48263e3130a88,64d2fd46c836a06233681665,64dc7a263235279336e29631,,,,,,,decisionTrl,resources/DB.BMP,resources/DP.BMP,Door4,-0.247951389,-0.039913194,1,0,0,0.4796,optionLeft,80,12105,6,5,0,5,0,1,,,,,,,,,,,,,,,,,,,,,,,,,,,,,,,,,,,,,,,
,,,,,,,,2023-08-16_08h26.42.055,HF_wild_card,2022.2.4,MacIntel,60.0024001,60377564edd48263e3130a88,64d2fd46c836a06233681665,64dc7a263235279336e29631,,,,,,,decisionTrl,resources/DBN.BMP,resources/DP.BMP,Door3,-0.314765625,-0.046801215,1,0,0,0.6507,optionLeft,70,12175,6,6,0,6,0,1,,,,,,,,,,,,,,,,,,,,,,,,,,,,,,,,,,,,,,,
,,,,,,,,2023-08-16_08h26.42.055,HF_wild_card,2022.2.4,MacIntel,60.0024001,60377564edd48263e3130a88,64d2fd46c836a06233681665,64dc7a263235279336e29631,,,,,,,decisionTrl,resources/DBN.BMP,resources/DB.BMP,Door3,-0.252738715,-0.025737847,1,0,0,0.4809,optionLeft,70,12245,6,7,0,7,0,1,,,,,,,,,,,,,,,,,,,,,,,,,,,,,,,,,,,,,,,
,,,,,,,,2023-08-16_08h26.42.055,HF_wild_card,2022.2.4,MacIntel,60.0024001,60377564edd48263e3130a88,64d2fd46c836a06233681665,64dc7a263235279336e29631,,,,,,,decisionTrl,resources/DG.BMP,resources/DR.BMP,Door1,0.176796875,-0.028997396,1,0,0,1.0774,optionRight,30,12275,6,8,0,8,0,1,,,,,,,,,,,,,,,,,,,,,,,,,,,,,,,,,,,,,,,
,,,,,,,,2023-08-16_08h26.42.055,HF_wild_card,2022.2.4,MacIntel,60.0024001,60377564edd48263e3130a88,64d2fd46c836a06233681665,64dc7a263235279336e29631,,,,,,,ctch,resources/DG.BMP,resources/DBN.BMP,Door3,0.257256944,0.016970486,1,0,0,0.5451,optionRight,70,12345,6,9,0,9,0,1,,,,,,,,,,,,,,,,,,,,,,,,,,,,,,,,,,,,,,,
,,,,,,,,2023-08-16_08h26.42.055,HF_wild_card,2022.2.4,MacIntel,60.0024001,60377564edd48263e3130a88,64d2fd46c836a06233681665,64dc7a263235279336e29631,,,,,,,sngl,resources/Empty.png,resources/DR.BMP,Door1,0.26344184,-0.003641493,1,0,0,0.5634,optionRight,30,12375,6,10,0,10,0,1,,,,,,,,,,,,,,,,,,,,,,,,,,,,,,,,,,,,,,,
,,,,,,,,2023-08-16_08h26.42.055,HF_wild_card,2022.2.4,MacIntel,60.0024001,60377564edd48263e3130a88,64d2fd46c836a06233681665,64dc7a263235279336e29631,,,,,,,decisionTrl,resources/DG.BMP,resources/DP.BMP,WildCard_Ex,0.289748264,-0.00344184,1,0,0,1.3672,optionRight,45,12420,6,11,0,11,0,1,,,,,,,,,,,,,,,,,,,,,,,,,,,,,,,,,,,,,,,
,,,,,,,,2023-08-16_08h26.42.055,HF_wild_card,2022.2.4,MacIntel,60.0024001,60377564edd48263e3130a88,64d2fd46c836a06233681665,64dc7a263235279336e29631,,,,,,,sngl,resources/Empty.png,resources/DP.BMP,WildCard_Ex,0.281675347,0.007539062,1,0,0,0.5642,optionRight,55,12475,6,12,0,12,0,1,,,,,,,,,,,,,,,,,,,,,,,,,,,,,,,,,,,,,,,
,,,,,,,,2023-08-16_08h26.42.055,HF_wild_card,2022.2.4,MacIntel,60.0024001,60377564edd48263e3130a88,64d2fd46c836a06233681665,64dc7a263235279336e29631,,,,,,,decisionTrl,resources/DG.BMP,resources/DR.BMP,Door1,0.410525174,0.008845486,1,0,0,1.2986,optionRight,30,12505,6,13,0,13,0,1,,,,,,,,,,,,,,,,,,,,,,,,,,,,,,,,,,,,,,,
,,,,,,,,2023-08-16_08h26.42.055,HF_wild_card,2022.2.4,MacIntel,60.0024001,60377564edd48263e3130a88,64d2fd46c836a06233681665,64dc7a263235279336e29631,,,,,,,decisionTrl,resources/DBN.BMP,resources/DB.BMP,Door3,-0.268832465,-0.022018229,1,0,0,0.6658,optionLeft,70,12575,6,14,0,14,0,1,,,,,,,,,,,,,,,,,,,,,,,,,,,,,,,,,,,,,,,
,,,,,,,,2023-08-16_08h26.42.055,HF_wild_card,2022.2.4,MacIntel,60.0024001,60377564edd48263e3130a88,64d2fd46c836a06233681665,64dc7a263235279336e29631,,,,,,,decisionTrl,resources/DP.BMP,resources/DG.BMP,WildCard_Ex,-0.362170139,-0.053476562,1,0,0,1.1792,optionLeft,55,12630,6,15,0,15,0,1,,,,,,,,,,,,,,,,,,,,,,,,,,,,,,,,,,,,,,,
,,,,,,,,2023-08-16_08h26.42.055,HF_wild_card,2022.2.4,MacIntel,60.0024001,60377564edd48263e3130a88,64d2fd46c836a06233681665,64dc7a263235279336e29631,,,,,,,sngl,resources/DR.BMP,resources/Empty.png,Door1,-0.195503472,-0.033459201,1,0,0,0.5808,optionLeft,30,12660,6,16,0,16,0,1,,,,,,,,,,,,,,,,,,,,,,,,,,,,,,,,,,,,,,,
,,,,,,,,2023-08-16_08h26.42.055,HF_wild_card,2022.2.4,MacIntel,60.0024001,60377564edd48263e3130a88,64d2fd46c836a06233681665,64dc7a263235279336e29631,,,,,,,sngl,resources/DB.BMP,resources/Empty.png,Door4,-0.232526042,-0.057921007,1,0,0,0.5154,optionLeft,60,12720,6,17,0,17,0,1,,,,,,,,,,,,,,,,,,,,,,,,,,,,,,,,,,,,,,,
,,,,,,,,2023-08-16_08h26.42.055,HF_wild_card,2022.2.4,MacIntel,60.0024001,60377564edd48263e3130a88,64d2fd46c836a06233681665,64dc7a263235279336e29631,,,,,,,decisionTrl,resources/DBN.BMP,resources/DB.BMP,Door3,-0.233975694,-0.037842882,1,0,0,0.5817,optionLeft,70,12790,6,18,0,18,0,1,,,,,,,,,,,,,,,,,,,,,,,,,,,,,,,,,,,,,,,
,,,,,,,,2023-08-16_08h26.42.055,HF_wild_card,2022.2.4,MacIntel,60.0024001,60377564edd48263e3130a88,64d2fd46c836a06233681665,64dc7a263235279336e29631,,,,,,,decisionTrl,resources/DP.BMP,resources/DR.BMP,WildCard_Ex,-0.318854167,-0.070642361,1,0,0,0.88,optionLeft,45,12835,6,19,0,19,0,1,,,,,,,,,,,,,,,,,,,,,,,,,,,,,,,,,,,,,,,
,,,,,,,,2023-08-16_08h26.42.055,HF_wild_card,2022.2.4,MacIntel,60.0024001,60377564edd48263e3130a88,64d2fd46c836a06233681665,64dc7a263235279336e29631,,,,,,,sngl,resources/Empty.png,resources/DP.BMP,WildCard_Ex,0.260507812,0.012664931,1,0,0,0.5814,optionRight,45,12880,6,20,0,20,0,1,,,,,,,,,,,,,,,,,,,,,,,,,,,,,,,,,,,,,,,
,,,,,,,,2023-08-16_08h26.42.055,HF_wild_card,2022.2.4,MacIntel,60.0024001,60377564edd48263e3130a88,64d2fd46c836a06233681665,64dc7a263235279336e29631,,,,,,,sngl,resources/Empty.png,resources/DG.BMP,Door2,0.312052951,-0.01016059,1,0,0,0.6313,optionRight,40,12920,6,21,0,21,0,1,,,,,,,,,,,,,,,,,,,,,,,,,,,,,,,,,,,,,,,
,,,,,,,,2023-08-16_08h26.42.055,HF_wild_card,2022.2.4,MacIntel,60.0024001,60377564edd48263e3130a88,64d2fd46c836a06233681665,64dc7a263235279336e29631,,,,,,,sngl,resources/Empty.png,resources/DB.BMP,Door4,0.212556424,0.006727431,1,0,0,0.4156,optionRight,80,13000,6,22,0,22,0,1,,,,,,,,,,,,,,,,,,,,,,,,,,,,,,,,,,,,,,,
,,,,,,,,2023-08-16_08h26.42.055,HF_wild_card,2022.2.4,MacIntel,60.0024001,60377564edd48263e3130a88,64d2fd46c836a06233681665,64dc7a263235279336e29631,,,,,,,sngl,resources/Empty.png,resources/DBN.BMP,Door3,0.348793403,-0.006197917,1,0,0,0.4449,optionRight,70,13070,6,23,0,23,0,1,,,,,,,,,,,,,,,,,,,,,,,,,,,,,,,,,,,,,,,
,,,,,,,,2023-08-16_08h26.42.055,HF_wild_card,2022.2.4,MacIntel,60.0024001,60377564edd48263e3130a88,64d2fd46c836a06233681665,64dc7a263235279336e29631,,,,,,,decisionTrl,resources/DR.BMP,resources/DP.BMP,WildCard_Ex,0.332825521,0.014171007,1,0,0,1.2154,optionRight,45,13115,6,24,0,24,0,1,,,,,,,,,,,,,,,,,,,,,,,,,,,,,,,,,,,,,,,
,,,,,,,,2023-08-16_08h26.42.055,HF_wild_card,2022.2.4,MacIntel,60.0024001,60377564edd48263e3130a88,64d2fd46c836a06233681665,64dc7a263235279336e29631,,,,,,,decisionTrl,resources/DR.BMP,resources/DG.BMP,Door1,-0.299557292,0.004665799,1,0,0,1.164,optionLeft,30,13145,6,25,0,25,0,1,,,,,,,,,,,,,,,,,,,,,,,,,,,,,,,,,,,,,,,
,,,,,,,,2023-08-16_08h26.42.055,HF_wild_card,2022.2.4,MacIntel,60.0024001,60377564edd48263e3130a88,64d2fd46c836a06233681665,64dc7a263235279336e29631,,,,,,,decisionTrl,resources/DB.BMP,resources/DBN.BMP,Door3,0.336345486,0.031553819,1,0,0,0.5491,optionRight,70,13215,6,26,0,26,0,1,,,,,,,,,,,,,,,,,,,,,,,,,,,,,,,,,,,,,,,
,,,,,,,,2023-08-16_08h26.42.055,HF_wild_card,2022.2.4,MacIntel,60.0024001,60377564edd48263e3130a88,64d2fd46c836a06233681665,64dc7a263235279336e29631,,,,,,,sngl,resources/DBN.BMP,resources/Empty.png,Door3,-0.298098958,-0.023736979,1,0,0,0.4632,optionLeft,70,13285,6,27,0,27,0,1,,,,,,,,,,,,,,,,,,,,,,,,,,,,,,,,,,,,,,,
,,,,,,,,2023-08-16_08h26.42.055,HF_wild_card,2022.2.4,MacIntel,60.0024001,60377564edd48263e3130a88,64d2fd46c836a06233681665,64dc7a263235279336e29631,,,,,,,decisionTrl,resources/DR.BMP,resources/DG.BMP,Door1,-0.269969618,-0.04780816,1,0,0,0.833,optionLeft,30,13315,6,28,0,28,0,1,,,,,,,,,,,,,,,,,,,,,,,,,,,,,,,,,,,,,,,
,,,,,,,,2023-08-16_08h26.42.055,HF_wild_card,2022.2.4,MacIntel,60.0024001,60377564edd48263e3130a88,64d2fd46c836a06233681665,64dc7a263235279336e29631,,,,,,,ctch,resources/DB.BMP,resources/DR.BMP,Door4,-0.250668403,-0.049118924,1,0,0,0.5618,optionLeft,60,13375,6,29,0,29,0,1,,,,,,,,,,,,,,,,,,,,,,,,,,,,,,,,,,,,,,,
,,,,,,,,2023-08-16_08h26.42.055,HF_wild_card,2022.2.4,MacIntel,60.0024001,60377564edd48263e3130a88,64d2fd46c836a06233681665,64dc7a263235279336e29631,,,,,,,decisionTrl,resources/DR.BMP,resources/DG.BMP,Door2,0.226315104,0.007217882,1,0,0,0.8318,optionRight,20,13395,6,30,0,30,0,1,,,,,,,,,,,,,,,,,,,,,,,,,,,,,,,,,,,,,,,
,,,,,,,,2023-08-16_08h26.42.055,HF_wild_card,2022.2.4,MacIntel,60.0024001,60377564edd48263e3130a88,64d2fd46c836a06233681665,64dc7a263235279336e29631,,,,,,,decisionTrl,resources/DG.BMP,resources/DR.BMP,Door1,0.310091146,0.008272569,1,0,0,0.8306,optionRight,30,13425,6,31,0,31,0,1,,,,,,,,,,,,,,,,,,,,,,,,,,,,,,,,,,,,,,,
,,,,,,,,2023-08-16_08h26.42.055,HF_wild_card,2022.2.4,MacIntel,60.0024001,60377564edd48263e3130a88,64d2fd46c836a06233681665,64dc7a263235279336e29631,,,,,,,ctch,resources/DR.BMP,resources/DB.BMP,Door1,-0.316605903,-0.079431424,1,0,0,0.7624,optionLeft,30,13455,6,32,0,32,0,1,,,,,,,,,,,,,,,,,,,,,,,,,,,,,,,,,,,,,,,
,,,,,,,,2023-08-16_08h26.42.055,HF_wild_card,2022.2.4,MacIntel,60.0024001,60377564edd48263e3130a88,64d2fd46c836a06233681665,64dc7a263235279336e29631,,,,,,,ctch,resources/DR.BMP,resources/DB.BMP,Door4,0.247144097,0.007157118,1,0,0,0.5179,optionRight,60,13515,6,33,0,33,0,1,,,,,,,,,,,,,,,,,,,,,,,,,,,,,,,,,,,,,,,
,,,,,,,,2023-08-16_08h26.42.055,HF_wild_card,2022.2.4,MacIntel,60.0024001,60377564edd48263e3130a88,64d2fd46c836a06233681665,64dc7a263235279336e29631,,,,,,,decisionTrl,resources/DP.BMP,resources/DB.BMP,Door4,0.199105903,0.025850694,1,0,0,0.7957,optionRight,60,13575,6,34,0,34,0,1,,,,,,,,,,,,,,,,,,,,,,,,,,,,,,,,,,,,,,,
,,,,,,,,2023-08-16_08h26.42.055,HF_wild_card,2022.2.4,MacIntel,60.0024001,60377564edd48263e3130a88,64d2fd46c836a06233681665,64dc7a263235279336e29631,,,,,,,decisionTrl,resources/DB.BMP,resources/DBN.BMP,Door3,0.383250868,0.007465278,1,0,0,0.7315,optionRight,70,13645,6,35,0,35,0,1,,,,,,,,,,,,,,,,,,,,,,,,,,,,,,,,,,,,,,,
,,,,,,,,2023-08-16_08h26.42.055,HF_wild_card,2022.2.4,MacIntel,60.0024001,60377564edd48263e3130a88,64d2fd46c836a06233681665,64dc7a263235279336e29631,,,,,,,decisionTrl,resources/DG.BMP,resources/DR.BMP,Door1,0.338394097,-0.003420139,1,0,0,0.9318,optionRight,30,13675,6,36,0,36,0,1,,,,,,,,,,,,,,,,,,,,,,,,,,,,,,,,,,,,,,,
,,,,,,,,2023-08-16_08h26.42.055,HF_wild_card,2022.2.4,MacIntel,60.0024001,60377564edd48263e3130a88,64d2fd46c836a06233681665,64dc7a263235279336e29631,,,,,,,sngl,resources/DP.BMP,resources/Empty.png,WildCard_Ex,-0.264782986,-0.048841146,1,0,0,0.6119,optionLeft,45,13720,6,37,0,37,0,1,,,,,,,,,,,,,,,,,,,,,,,,,,,,,,,,,,,,,,,
,,,,,,,,2023-08-16_08h26.42.055,HF_wild_card,2022.2.4,MacIntel,60.0024001,60377564edd48263e3130a88,64d2fd46c836a06233681665,64dc7a263235279336e29631,,,,,,,ctch,resources/DBN.BMP,resources/DG.BMP,Door3,-0.308025174,-0.056375868,1,0,0,0.595,optionLeft,70,13790,6,38,0,38,0,1,,,,,,,,,,,,,,,,,,,,,,,,,,,,,,,,,,,,,,,
,,,,,,,,2023-08-16_08h26.42.055,HF_wild_card,2022.2.4,MacIntel,60.0024001,60377564edd48263e3130a88,64d2fd46c836a06233681665,64dc7a263235279336e29631,,,,,,,sngl,resources/DG.BMP,resources/Empty.png,Door2,-0.263927951,-0.059895833,1,0,0,0.511,optionLeft,20,13810,6,39,0,39,0,1,,,,,,,,,,,,,,,,,,,,,,,,,,,,,,,,,,,,,,,
,,,,,,,,2023-08-16_08h26.42.055,HF_wild_card,2022.2.4,MacIntel,60.0024001,60377564edd48263e3130a88,64d2fd46c836a06233681665,64dc7a263235279336e29631,,,,,,,decisionTrl,resources/DP.BMP,resources/DBN.BMP,Door3,0.297092014,0.024414063,1,0,0,0.5483,optionRight,70,13880,6,40,0,40,0,1,,,,,,,,,,,,,,,,,,,,,,,,,,,,,,,,,,,,,,,
,,,,,,,,2023-08-16_08h26.42.055,HF_wild_card,2022.2.4,MacIntel,60.0024001,60377564edd48263e3130a88,64d2fd46c836a06233681665,64dc7a263235279336e29631,,,,,,,decisionTrl,resources/DBN.BMP,resources/DB.BMP,Door3,-0.234431424,-0.059053819,1,0,0,0.5929,optionLeft,70,13950,6,41,0,41,0,1,,,,,,,,,,,,,,,,,,,,,,,,,,,,,,,,,,,,,,,
,,,,,,,,2023-08-16_08h26.42.055,HF_wild_card,2022.2.4,MacIntel,60.0024001,60377564edd48263e3130a88,64d2fd46c836a06233681665,64dc7a263235279336e29631,,,,,,,ctch,resources/DBN.BMP,resources/DG.BMP,Door3,-0.241649306,-0.076922743,1,0,0,0.5487,optionLeft,70,14020,6,42,0,42,0,1,,,,,,,,,,,,,,,,,,,,,,,,,,,,,,,,,,,,,,,
,,,,,,,,2023-08-16_08h26.42.055,HF_wild_card,2022.2.4,MacIntel,60.0024001,60377564edd48263e3130a88,64d2fd46c836a06233681665,64dc7a263235279336e29631,,,,,,,decisionTrl,resources/DR.BMP,resources/DG.BMP,Door1,-0.279917535,-0.071523437,1,0,0,1.0938,optionLeft,30,14050,6,43,0,43,0,1,,,,,,,,,,,,,,,,,,,,,,,,,,,,,,,,,,,,,,,
,,,,,,,,2023-08-16_08h26.42.055,HF_wild_card,2022.2.4,MacIntel,60.0024001,60377564edd48263e3130a88,64d2fd46c836a06233681665,64dc7a263235279336e29631,,,,,,,,,,,,,,,,,,,,,,,,,,5,0,5,0,1,,,,,,,,,,,,,,,,,,,,,,,,,,,,,,,,,,
,,,,,,,,2023-08-16_08h26.42.055,HF_wild_card,2022.2.4,MacIntel,60.0024001,60377564edd48263e3130a88,64d2fd46c836a06233681665,64dc7a263235279336e29631,,,,,,,ctch,resources/DBN.BMP,resources/DG.BMP,Door3,-0.334835069,-0.103706597,1,0,0,0.6208,optionLeft,70,14120,7,0,0,0,0,1,,,,,,,,,,,,,,,,,,,,,,,,,,,,,,,,,,,,,,,
,,,,,,,,2023-08-16_08h26.42.055,HF_wild_card,2022.2.4,MacIntel,60.0024001,60377564edd48263e3130a88,64d2fd46c836a06233681665,64dc7a263235279336e29631,,,,,,,ctch,resources/DB.BMP,resources/DR.BMP,Door4,-0.329835069,-0.052560764,1,0,0,1.3349,optionLeft,60,14180,7,1,0,1,0,1,,,,,,,,,,,,,,,,,,,,,,,,,,,,,,,,,,,,,,,
,,,,,,,,2023-08-16_08h26.42.055,HF_wild_card,2022.2.4,MacIntel,60.0024001,60377564edd48263e3130a88,64d2fd46c836a06233681665,64dc7a263235279336e29631,,,,,,,decisionTrl,resources/DR.BMP,resources/DG.BMP,Door1,-0.272595486,-0.064036458,1,0,0,0.7963,optionLeft,30,14210,7,2,0,2,0,1,,,,,,,,,,,,,,,,,,,,,,,,,,,,,,,,,,,,,,,
,,,,,,,,2023-08-16_08h26.42.055,HF_wild_card,2022.2.4,MacIntel,60.0024001,60377564edd48263e3130a88,64d2fd46c836a06233681665,64dc7a263235279336e29631,,,,,,,decisionTrl,resources/DG.BMP,resources/DR.BMP,Door1,0.362395833,0.026831597,1,0,0,0.8463,optionRight,30,14240,7,3,0,3,0,1,,,,,,,,,,,,,,,,,,,,,,,,,,,,,,,,,,,,,,,
,,,,,,,,2023-08-16_08h26.42.055,HF_wild_card,2022.2.4,MacIntel,60.0024001,60377564edd48263e3130a88,64d2fd46c836a06233681665,64dc7a263235279336e29631,,,,,,,ctch,resources/DB.BMP,resources/DR.BMP,Door4,-0.325282118,-0.026258681,1,0,0,0.6438,optionLeft,60,14300,7,4,0,4,0,1,,,,,,,,,,,,,,,,,,,,,,,,,,,,,,,,,,,,,,,
,,,,,,,,2023-08-16_08h26.42.055,HF_wild_card,2022.2.4,MacIntel,60.0024001,60377564edd48263e3130a88,64d2fd46c836a06233681665,64dc7a263235279336e29631,,,,,,,decisionTrl,resources/DB.BMP,resources/DBN.BMP,Door3,0.316931424,0.012604167,1,0,0,0.6644,optionRight,70,14370,7,5,0,5,0,1,,,,,,,,,,,,,,,,,,,,,,,,,,,,,,,,,,,,,,,
,,,,,,,,2023-08-16_08h26.42.055,HF_wild_card,2022.2.4,MacIntel,60.0024001,60377564edd48263e3130a88,64d2fd46c836a06233681665,64dc7a263235279336e29631,,,,,,,decisionTrl,resources/DG.BMP,resources/DR.BMP,Door1,0.247070313,-0.001966146,1,0,0,0.9287,optionRight,30,14400,7,6,0,6,0,1,,,,,,,,,,,,,,,,,,,,,,,,,,,,,,,,,,,,,,,
,,,,,,,,2023-08-16_08h26.42.055,HF_wild_card,2022.2.4,MacIntel,60.0024001,60377564edd48263e3130a88,64d2fd46c836a06233681665,64dc7a263235279336e29631,,,,,,,decisionTrl,resources/DG.BMP,resources/DR.BMP,Door1,0.247582465,-0.007052951,1,0,0,0.7332,optionRight,30,14430,7,7,0,7,0,1,,,,,,,,,,,,,,,,,,,,,,,,,,,,,,,,,,,,,,,
,,,,,,,,2023-08-16_08h26.42.055,HF_wild_card,2022.2.4,MacIntel,60.0024001,60377564edd48263e3130a88,64d2fd46c836a06233681665,64dc7a263235279336e29631,,,,,,,decisionTrl,resources/DBN.BMP,resources/DB.BMP,Door3,-0.302743056,-0.010976563,1,0,0,0.6322,optionLeft,70,14500,7,8,0,8,0,1,,,,,,,,,,,,,,,,,,,,,,,,,,,,,,,,,,,,,,,
,,,,,,,,2023-08-16_08h26.42.055,HF_wild_card,2022.2.4,MacIntel,60.0024001,60377564edd48263e3130a88,64d2fd46c836a06233681665,64dc7a263235279336e29631,,,,,,,decisionTrl,resources/DBN.BMP,resources/DB.BMP,Door3,-0.282513021,-0.029388021,1,0,0,0.647,optionLeft,70,14570,7,9,0,9,0,1,,,,,,,,,,,,,,,,,,,,,,,,,,,,,,,,,,,,,,,
,,,,,,,,2023-08-16_08h26.42.055,HF_wild_card,2022.2.4,MacIntel,60.0024001,60377564edd48263e3130a88,64d2fd46c836a06233681665,64dc7a263235279336e29631,,,,,,,ctch,resources/DR.BMP,resources/DB.BMP,Door4,0.283428819,0.001996528,1,0,0,1.215,optionRight,60,14630,7,10,0,10,0,1,,,,,,,,,,,,,,,,,,,,,,,,,,,,,,,,,,,,,,,
,,,,,,,,2023-08-16_08h26.42.055,HF_wild_card,2022.2.4,MacIntel,60.0024001,60377564edd48263e3130a88,64d2fd46c836a06233681665,64dc7a263235279336e29631,,,,,,,decisionTrl,resources/DB.BMP,resources/DBN.BMP,Door3,0.318146701,0.029401042,1,0,0,0.6998,optionRight,70,14700,7,11,0,11,0,1,,,,,,,,,,,,,,,,,,,,,,,,,,,,,,,,,,,,,,,
,,,,,,,,2023-08-16_08h26.42.055,HF_wild_card,2022.2.4,MacIntel,60.0024001,60377564edd48263e3130a88,64d2fd46c836a06233681665,64dc7a263235279336e29631,,,,,,,decisionTrl,resources/DB.BMP,resources/DBN.BMP,Door3,0.212400174,0.062921007,1,0,0,0.6175,optionRight,70,14770,7,12,0,12,0,1,,,,,,,,,,,,,,,,,,,,,,,,,,,,,,,,,,,,,,,
,,,,,,,,2023-08-16_08h26.42.055,HF_wild_card,2022.2.4,MacIntel,60.0024001,60377564edd48263e3130a88,64d2fd46c836a06233681665,64dc7a263235279336e29631,,,,,,,decisionTrl,resources/DB.BMP,resources/DBN.BMP,Door3,0.246223958,0.017673611,1,0,0,0.5491,optionRight,70,14840,7,13,0,13,0,1,,,,,,,,,,,,,,,,,,,,,,,,,,,,,,,,,,,,,,,
,,,,,,,,2023-08-16_08h26.42.055,HF_wild_card,2022.2.4,MacIntel,60.0024001,60377564edd48263e3130a88,64d2fd46c836a06233681665,64dc7a263235279336e29631,,,,,,,decisionTrl,resources/DG.BMP,resources/DR.BMP,Door1,0.333606771,0.003997396,1,0,0,0.9162,optionRight,30,14870,7,14,0,14,0,1,,,,,,,,,,,,,,,,,,,,,,,,,,,,,,,,,,,,,,,
,,,,,,,,2023-08-16_08h26.42.055,HF_wild_card,2022.2.4,MacIntel,60.0024001,60377564edd48263e3130a88,64d2fd46c836a06233681665,64dc7a263235279336e29631,,,,,,,decisionTrl,resources/DBN.BMP,resources/DB.BMP,Door3,-0.281822917,-0.035976563,1,0,0,0.6678,optionLeft,70,14940,7,15,0,15,0,1,,,,,,,,,,,,,,,,,,,,,,,,,,,,,,,,,,,,,,,
,,,,,,,,2023-08-16_08h26.42.055,HF_wild_card,2022.2.4,MacIntel,60.0024001,60377564edd48263e3130a88,64d2fd46c836a06233681665,64dc7a263235279336e29631,,,,,,,ctch,resources/DB.BMP,resources/DR.BMP,Door4,-0.169926215,-0.018619792,1,0,0,1.0157,optionLeft,60,15000,7,16,0,16,0,1,,,,,,,,,,,,,,,,,,,,,,,,,,,,,,,,,,,,,,,
,,,,,,,,2023-08-16_08h26.42.055,HF_wild_card,2022.2.4,MacIntel,60.0024001,60377564edd48263e3130a88,64d2fd46c836a06233681665,64dc7a263235279336e29631,,,,,,,ctch,resources/DR.BMP,resources/DB.BMP,Door4,0.273207465,-0.011263021,1,0,0,0.6461,optionRight,80,15080,7,17,0,17,0,1,,,,,,,,,,,,,,,,,,,,,,,,,,,,,,,,,,,,,,,
,,,,,,,,2023-08-16_08h26.42.055,HF_wild_card,2022.2.4,MacIntel,60.0024001,60377564edd48263e3130a88,64d2fd46c836a06233681665,64dc7a263235279336e29631,,,,,,,decisionTrl,resources/DG.BMP,resources/DR.BMP,Door1,0.25734809,-0.007313368,1,0,0,0.8651,optionRight,30,15110,7,18,0,18,0,1,,,,,,,,,,,,,,,,,,,,,,,,,,,,,,,,,,,,,,,
,,,,,,,,2023-08-16_08h26.42.055,HF_wild_card,2022.2.4,MacIntel,60.0024001,60377564edd48263e3130a88,64d2fd46c836a06233681665,64dc7a263235279336e29631,,,,,,,decisionTrl,resources/DR.BMP,resources/DG.BMP,Door1,-0.231341146,-0.057365451,1,0,0,0.6656,optionLeft,30,15140,7,19,0,19,0,1,,,,,,,,,,,,,,,,,,,,,,,,,,,,,,,,,,,,,,,
,,,,,,,,2023-08-16_08h26.42.055,HF_wild_card,2022.2.4,MacIntel,60.0024001,60377564edd48263e3130a88,64d2fd46c836a06233681665,64dc7a263235279336e29631,,,,,,,ctch,resources/DR.BMP,resources/DB.BMP,Door4,0.341966146,0.032100694,1,0,0,0.8983,optionRight,80,15220,7,20,0,20,0,1,,,,,,,,,,,,,,,,,,,,,,,,,,,,,,,,,,,,,,,
,,,,,,,,2023-08-16_08h26.42.055,HF_wild_card,2022.2.4,MacIntel,60.0024001,60377564edd48263e3130a88,64d2fd46c836a06233681665,64dc7a263235279336e29631,,,,,,,decisionTrl,resources/DB.BMP,resources/DBN.BMP,Door3,0.304661458,0.032916667,1,0,0,0.6472,optionRight,70,15290,7,21,0,21,0,1,,,,,,,,,,,,,,,,,,,,,,,,,,,,,,,,,,,,,,,
,,,,,,,,2023-08-16_08h26.42.055,HF_wild_card,2022.2.4,MacIntel,60.0024001,60377564edd48263e3130a88,64d2fd46c836a06233681665,64dc7a263235279336e29631,,,,,,,decisionTrl,resources/DG.BMP,resources/DR.BMP,Door1,0.30452691,-0.001019965,1,0,0,0.8841,optionRight,30,15320,7,22,0,22,0,1,,,,,,,,,,,,,,,,,,,,,,,,,,,,,,,,,,,,,,,
,,,,,,,,2023-08-16_08h26.42.055,HF_wild_card,2022.2.4,MacIntel,60.0024001,60377564edd48263e3130a88,64d2fd46c836a06233681665,64dc7a263235279336e29631,,,,,,,ctch,resources/DG.BMP,resources/DBN.BMP,Door3,0.27468316,0.003012153,1,0,0,0.649,optionRight,70,15390,7,23,0,23,0,1,,,,,,,,,,,,,,,,,,,,,,,,,,,,,,,,,,,,,,,
,,,,,,,,2023-08-16_08h26.42.055,HF_wild_card,2022.2.4,MacIntel,60.0024001,60377564edd48263e3130a88,64d2fd46c836a06233681665,64dc7a263235279336e29631,,,,,,,ctch,resources/DG.BMP,resources/DBN.BMP,Door3,0.227738715,0.034144965,1,0,0,0.5976,optionRight,70,15460,7,24,0,24,0,1,,,,,,,,,,,,,,,,,,,,,,,,,,,,,,,,,,,,,,,
,,,,,,,,2023-08-16_08h26.42.055,HF_wild_card,2022.2.4,MacIntel,60.0024001,60377564edd48263e3130a88,64d2fd46c836a06233681665,64dc7a263235279336e29631,,,,,,,decisionTrl,resources/DR.BMP,resources/DG.BMP,Door1,-0.264921875,-0.026132813,1,0,0,0.7845,optionLeft,30,15490,7,25,0,25,0,1,,,,,,,,,,,,,,,,,,,,,,,,,,,,,,,,,,,,,,,
,,,,,,,,2023-08-16_08h26.42.055,HF_wild_card,2022.2.4,MacIntel,60.0024001,60377564edd48263e3130a88,64d2fd46c836a06233681665,64dc7a263235279336e29631,,,,,,,decisionTrl,resources/DBN.BMP,resources/DB.BMP,Door3,-0.289505208,-0.057391493,1,0,0,0.5479,optionLeft,70,15560,7,26,0,26,0,1,,,,,,,,,,,,,,,,,,,,,,,,,,,,,,,,,,,,,,,
,,,,,,,,2023-08-16_08h26.42.055,HF_wild_card,2022.2.4,MacIntel,60.0024001,60377564edd48263e3130a88,64d2fd46c836a06233681665,64dc7a263235279336e29631,,,,,,,ctch,resources/DBN.BMP,resources/DG.BMP,Door3,-0.322439236,-0.01797309,1,0,0,0.5022,optionLeft,70,15630,7,27,0,27,0,1,,,,,,,,,,,,,,,,,,,,,,,,,,,,,,,,,,,,,,,
,,,,,,,,2023-08-16_08h26.42.055,HF_wild_card,2022.2.4,MacIntel,60.0024001,60377564edd48263e3130a88,64d2fd46c836a06233681665,64dc7a263235279336e29631,,,,,,,decisionTrl,resources/DR.BMP,resources/DG.BMP,Door1,-0.280290799,-0.034500868,1,0,0,0.9806,optionLeft,30,15660,7,28,0,28,0,1,,,,,,,,,,,,,,,,,,,,,,,,,,,,,,,,,,,,,,,
,,,,,,,,2023-08-16_08h26.42.055,HF_wild_card,2022.2.4,MacIntel,60.0024001,60377564edd48263e3130a88,64d2fd46c836a06233681665,64dc7a263235279336e29631,,,,,,,decisionTrl,resources/DBN.BMP,resources/DB.BMP,Door3,-0.279357639,-0.047443576,1,0,0,0.6504,optionLeft,70,15730,7,29,0,29,0,1,,,,,,,,,,,,,,,,,,,,,,,,,,,,,,,,,,,,,,,
,,,,,,,,2023-08-16_08h26.42.055,HF_wild_card,2022.2.4,MacIntel,60.0024001,60377564edd48263e3130a88,64d2fd46c836a06233681665,64dc7a263235279336e29631,,,,,,,ctch,resources/DBN.BMP,resources/DG.BMP,Door3,-0.289305556,-0.037803819,1,0,0,0.5486,optionLeft,70,15800,7,30,0,30,0,1,,,,,,,,,,,,,,,,,,,,,,,,,,,,,,,,,,,,,,,
,,,,,,,,2023-08-16_08h26.42.055,HF_wild_card,2022.2.4,MacIntel,60.0024001,60377564edd48263e3130a88,64d2fd46c836a06233681665,64dc7a263235279336e29631,,,,,,,ctch,resources/DG.BMP,resources/DBN.BMP,Door3,0.2890625,0.010885417,1,0,0,0.635,optionRight,70,15870,7,31,0,31,0,1,,,,,,,,,,,,,,,,,,,,,,,,,,,,,,,,,,,,,,,
,,,,,,,,2023-08-16_08h26.42.055,HF_wild_card,2022.2.4,MacIntel,60.0024001,60377564edd48263e3130a88,64d2fd46c836a06233681665,64dc7a263235279336e29631,,,,,,,decisionTrl,resources/DBN.BMP,resources/DB.BMP,Door3,-0.262226562,-0.034088542,1,0,0,0.548,optionLeft,70,15940,7,32,0,32,0,1,,,,,,,,,,,,,,,,,,,,,,,,,,,,,,,,,,,,,,,
,,,,,,,,2023-08-16_08h26.42.055,HF_wild_card,2022.2.4,MacIntel,60.0024001,60377564edd48263e3130a88,64d2fd46c836a06233681665,64dc7a263235279336e29631,,,,,,,decisionTrl,resources/DB.BMP,resources/DBN.BMP,Door3,0.26891059,0.000486111,1,0,0,0.6174,optionRight,70,16010,7,33,0,33,0,1,,,,,,,,,,,,,,,,,,,,,,,,,,,,,,,,,,,,,,,
,,,,,,,,2023-08-16_08h26.42.055,HF_wild_card,2022.2.4,MacIntel,60.0024001,60377564edd48263e3130a88,64d2fd46c836a06233681665,64dc7a263235279336e29631,,,,,,,decisionTrl,resources/DR.BMP,resources/DG.BMP,Door1,-0.261736111,-0.054865451,1,0,0,0.7296,optionLeft,30,16040,7,34,0,34,0,1,,,,,,,,,,,,,,,,,,,,,,,,,,,,,,,,,,,,,,,
,,,,,,,,2023-08-16_08h26.42.055,HF_wild_card,2022.2.4,MacIntel,60.0024001,60377564edd48263e3130a88,64d2fd46c836a06233681665,64dc7a263235279336e29631,,,,,,,decisionTrl,resources/DR.BMP,resources/DG.BMP,Door1,-0.222690972,-0.025638021,1,0,0,0.6319,optionLeft,30,16070,7,35,0,35,0,1,,,,,,,,,,,,,,,,,,,,,,,,,,,,,,,,,,,,,,,
,,,,,,,,2023-08-16_08h26.42.055,HF_wild_card,2022.2.4,MacIntel,60.0024001,60377564edd48263e3130a88,64d2fd46c836a06233681665,64dc7a263235279336e29631,,,,,,,,,,,,,,,,,,,,,,,,,,6,0,6,0,1,,,,,,,,,,,,,,,,,,,,,,,,,,,,,,,,,,
,,,,,,,,2023-08-16_08h26.42.055,HF_wild_card,2022.2.4,MacIntel,60.0024001,60377564edd48263e3130a88,64d2fd46c836a06233681665,64dc7a263235279336e29631,,,,,,,,,,,,,,,,,,,,,,,,,,,,,,,4,,,,,,,,,,,,,,,,,,,,,,,,,,,,,,,,,
,,,,,,,,2023-08-16_08h26.42.055,HF_wild_card,2022.2.4,MacIntel,60.0024001,60377564edd48263e3130a88,64d2fd46c836a06233681665,64dc7a263235279336e29631,,,,,,,,,,,,,,,,,,,,,,,,,,,,,,,,,,,,,,,,,,,,,,,,,,,,,,,,,,,,,,,,
,,,,,,,,2023-08-16_08h26.42.055,HF_wild_card,2022.2.4,MacIntel,60.0024001,60377564edd48263e3130a88,64d2fd46c836a06233681665,64dc7a263235279336e29631,,,,,,,,,,,,,,,,,,,,,,,,,,,,,,,,70,Door3,resources/DBN.BMP,0,0,0,0,1,,,,,,,,,,,,,,,,,,,,,,,,,
,,,,,,,,2023-08-16_08h26.42.055,HF_wild_card,2022.2.4,MacIntel,60.0024001,60377564edd48263e3130a88,64d2fd46c836a06233681665,64dc7a263235279336e29631,,,,,,,,,,,,,,,,,,,,,,,,,,,,,,,,45,WC_extreme,resources/DP.BMP,1,0,1,0,1,,,,,,,,,,,,,,,,,,,,,,,,,
,,,,,,,,2023-08-16_08h26.42.055,HF_wild_card,2022.2.4,MacIntel,60.0024001,60377564edd48263e3130a88,64d2fd46c836a06233681665,64dc7a263235279336e29631,,,,,,,,,,,,,,,,,,,,,,,,,,,,,,,,60,Door4,resources/DB.BMP,2,0,2,0,1,,,,,,,,,,,,,,,,,,,,,,,,,
,,,,,,,,2023-08-16_08h26.42.055,HF_wild_card,2022.2.4,MacIntel,60.0024001,60377564edd48263e3130a88,64d2fd46c836a06233681665,64dc7a263235279336e29631,,,,,,,,,,,,,,,,,,,,,,,,,,,,,,,,20,Door2,resources/DG.BMP,3,0,3,0,1,,,,,,,,,,,,,,,,,,,,,,,,,
