Condition,Low fixed image (Door1),Low risky image (Door2),High fixed image (Door3),High risky image (Door4),Extreme Wild Card,NonExtreme Wild Card,,date,expName,psychopyVersion,OS,frameRate,PROLIFIC_PID,STUDY_ID,SESSION_ID,mouse_2.x,mouse_2.y,mouse_2.leftButton,mouse_2.midButton,mouse_2.rightButton,mouse_2.clicked_name,Trial Type,Left Option Image,Right Option Image,Chosen Door,mouse.x,mouse.y,mouse.leftButton,mouse.midButton,mouse.rightButton,mouse.time,mouse.clicked_name,Feedback,Cumulative Reward,Block,trial.thisRepN,trial.thisTrialN,trial.thisN,trial.thisIndex,trial.ran,blocks.thisRepN,blocks.thisTrialN,blocks.thisN,blocks.thisIndex,blocks.ran,Money conversion,First Outcome Reported,Shown Door (First Outcome),Displayed Image (First Outcome),outcomes.thisRepN,outcomes.thisTrialN,outcomes.thisN,outcomes.thisIndex,outcomes.ran,judgments.thisRepN,judgments.thisTrialN,judgments.thisN,judgments.thisIndex,judgments.ran,freqMouse.x,freqMouse.y,freqMouse.leftButton,freqMouse.midButton,freqMouse.rightButton,freqMouse.clicked_name,FQJ for first outcome,FQJ for second outcome,Shown Door,Displayed Image,trials.thisRepN,trials.thisTrialN,trials.thisN,trials.thisIndex,trials.ran,judgBlock.thisRepN,judgBlock.thisTrialN,judgBlock.thisN,judgBlock.thisIndex,judgBlock.ran
1,resources/DG.BMP,resources/DR.BMP,resources/DBN.BMP,resources/DY.BMP,resources/DP.BMP,resources/DB.BMP,64401b8dc61551f15637634b,2023-08-16_08h59.32.207,HF_wild_card,2022.2.4,Win32,143.8848921,64401b8dc61551f15637634b,64d2fd46c836a06233681665,64dc81accb858c8c1dc54714,,,,,,,,,,,,,,,,,,,,,,,,,,,,,,,,,,,,,,,,,,,,,,,,,,,,,,,,,,,,,,,,
,,,,,,,64401b8dc61551f15637634b,2023-08-16_08h59.32.207,HF_wild_card,2022.2.4,Win32,143.8848921,64401b8dc61551f15637634b,64d2fd46c836a06233681665,64dc81accb858c8c1dc54714,0.002777778,-0.414814815,1,0,0,agree,,,,,,,,,,,,,,,,,,,,,,,,,,,,,,,,,,,,,,,,,,,,,,,,,,,,,,,,,,
,,,,,,,64401b8dc61551f15637634b,2023-08-16_08h59.32.207,HF_wild_card,2022.2.4,Win32,143.8848921,64401b8dc61551f15637634b,64d2fd46c836a06233681665,64dc81accb858c8c1dc54714,,,,,,,,,,,,,,,,,,,,,,,,,,,,,,,,,,,,,,,,,,,,,,,,,,,,,,,,,,,,,,,,
,,,,,,,64401b8dc61551f15637634b,2023-08-16_08h59.32.207,HF_wild_card,2022.2.4,Win32,143.8848921,64401b8dc61551f15637634b,64d2fd46c836a06233681665,64dc81accb858c8c1dc54714,,,,,,,ctch,resources/DG.BMP,resources/DY.BMP,Door4,0.262037037,-0.152777778,1,0,0,3.3786,optionRight,80,80,1,0,0,0,0,1,,,,,,,,,,,,,,,,,,,,,,,,,,,,,,,,,,,,,,,
,,,,,,,64401b8dc61551f15637634b,2023-08-16_08h59.32.207,HF_wild_card,2022.2.4,Win32,143.8848921,64401b8dc61551f15637634b,64d2fd46c836a06233681665,64dc81accb858c8c1dc54714,,,,,,,decisionTrl,resources/DBN.BMP,resources/DY.BMP,Door4,0.317592593,0.027777778,1,0,0,5.3237,optionRight,60,140,1,1,0,1,0,1,,,,,,,,,,,,,,,,,,,,,,,,,,,,,,,,,,,,,,,
,,,,,,,64401b8dc61551f15637634b,2023-08-16_08h59.32.207,HF_wild_card,2022.2.4,Win32,143.8848921,64401b8dc61551f15637634b,64d2fd46c836a06233681665,64dc81accb858c8c1dc54714,,,,,,,ctch,resources/DY.BMP,resources/DG.BMP,Door4,-0.290740741,-0.028703704,1,0,0,1.7443,optionLeft,60,200,1,2,0,2,0,1,,,,,,,,,,,,,,,,,,,,,,,,,,,,,,,,,,,,,,,
,,,,,,,64401b8dc61551f15637634b,2023-08-16_08h59.32.207,HF_wild_card,2022.2.4,Win32,143.8848921,64401b8dc61551f15637634b,64d2fd46c836a06233681665,64dc81accb858c8c1dc54714,,,,,,,ctch,resources/DG.BMP,resources/DY.BMP,Door4,0.32037037,-0.063888889,1,0,0,1.3704,optionRight,60,260,1,3,0,3,0,1,,,,,,,,,,,,,,,,,,,,,,,,,,,,,,,,,,,,,,,
,,,,,,,64401b8dc61551f15637634b,2023-08-16_08h59.32.207,HF_wild_card,2022.2.4,Win32,143.8848921,64401b8dc61551f15637634b,64d2fd46c836a06233681665,64dc81accb858c8c1dc54714,,,,,,,decisionTrl,resources/DB.BMP,resources/DG.BMP,WildCard_NonEx,-0.199074074,-0.00462963,1,0,0,2.963,optionLeft,55,315,1,4,0,4,0,1,,,,,,,,,,,,,,,,,,,,,,,,,,,,,,,,,,,,,,,
,,,,,,,64401b8dc61551f15637634b,2023-08-16_08h59.32.207,HF_wild_card,2022.2.4,Win32,143.8848921,64401b8dc61551f15637634b,64d2fd46c836a06233681665,64dc81accb858c8c1dc54714,,,,,,,sngl,resources/Empty.png,resources/DG.BMP,Door1,0.349074074,-0.031481481,1,0,0,2.5476,optionRight,30,345,1,5,0,5,0,1,,,,,,,,,,,,,,,,,,,,,,,,,,,,,,,,,,,,,,,
,,,,,,,64401b8dc61551f15637634b,2023-08-16_08h59.32.207,HF_wild_card,2022.2.4,Win32,143.8848921,64401b8dc61551f15637634b,64d2fd46c836a06233681665,64dc81accb858c8c1dc54714,,,,,,,decisionTrl,resources/DBN.BMP,resources/DY.BMP,Door4,0.316666667,-0.037037037,1,0,0,1.2637,optionRight,60,405,1,6,0,6,0,1,,,,,,,,,,,,,,,,,,,,,,,,,,,,,,,,,,,,,,,
,,,,,,,64401b8dc61551f15637634b,2023-08-16_08h59.32.207,HF_wild_card,2022.2.4,Win32,143.8848921,64401b8dc61551f15637634b,64d2fd46c836a06233681665,64dc81accb858c8c1dc54714,,,,,,,sngl,resources/Empty.png,resources/DY.BMP,Door4,0.307407407,-0.010185185,1,0,0,0.9554,optionRight,60,465,1,7,0,7,0,1,,,,,,,,,,,,,,,,,,,,,,,,,,,,,,,,,,,,,,,
,,,,,,,64401b8dc61551f15637634b,2023-08-16_08h59.32.207,HF_wild_card,2022.2.4,Win32,143.8848921,64401b8dc61551f15637634b,64d2fd46c836a06233681665,64dc81accb858c8c1dc54714,,,,,,,decisionTrl,resources/DG.BMP,resources/DR.BMP,Door2,0.364814815,-0.053703704,1,0,0,3.1804,optionRight,40,505,1,8,0,8,0,1,,,,,,,,,,,,,,,,,,,,,,,,,,,,,,,,,,,,,,,
,,,,,,,64401b8dc61551f15637634b,2023-08-16_08h59.32.207,HF_wild_card,2022.2.4,Win32,143.8848921,64401b8dc61551f15637634b,64d2fd46c836a06233681665,64dc81accb858c8c1dc54714,,,,,,,decisionTrl,resources/DBN.BMP,resources/DB.BMP,WildCard_NonEx,0.246296296,-0.034259259,1,0,0,2.3672,optionRight,45,550,1,9,0,9,0,1,,,,,,,,,,,,,,,,,,,,,,,,,,,,,,,,,,,,,,,
,,,,,,,64401b8dc61551f15637634b,2023-08-16_08h59.32.207,HF_wild_card,2022.2.4,Win32,143.8848921,64401b8dc61551f15637634b,64d2fd46c836a06233681665,64dc81accb858c8c1dc54714,,,,,,,decisionTrl,resources/DB.BMP,resources/DBN.BMP,WildCard_NonEx,-0.260185185,-0.040740741,1,0,0,1.2135,optionLeft,45,595,1,10,0,10,0,1,,,,,,,,,,,,,,,,,,,,,,,,,,,,,,,,,,,,,,,
,,,,,,,64401b8dc61551f15637634b,2023-08-16_08h59.32.207,HF_wild_card,2022.2.4,Win32,143.8848921,64401b8dc61551f15637634b,64d2fd46c836a06233681665,64dc81accb858c8c1dc54714,,,,,,,sngl,resources/DR.BMP,resources/Empty.png,Door2,-0.362037037,-0.037037037,1,0,0,1.397,optionLeft,40,635,1,11,0,11,0,1,,,,,,,,,,,,,,,,,,,,,,,,,,,,,,,,,,,,,,,
,,,,,,,64401b8dc61551f15637634b,2023-08-16_08h59.32.207,HF_wild_card,2022.2.4,Win32,143.8848921,64401b8dc61551f15637634b,64d2fd46c836a06233681665,64dc81accb858c8c1dc54714,,,,,,,decisionTrl,resources/DG.BMP,resources/DR.BMP,Door2,0.249074074,-0.022222222,1,0,0,1.2267,optionRight,40,675,1,12,0,12,0,1,,,,,,,,,,,,,,,,,,,,,,,,,,,,,,,,,,,,,,,
,,,,,,,64401b8dc61551f15637634b,2023-08-16_08h59.32.207,HF_wild_card,2022.2.4,Win32,143.8848921,64401b8dc61551f15637634b,64d2fd46c836a06233681665,64dc81accb858c8c1dc54714,,,,,,,decisionTrl,resources/DB.BMP,resources/DR.BMP,Door2,0.262037037,-0.034259259,1,0,0,3.4,optionRight,20,695,1,13,0,13,0,1,,,,,,,,,,,,,,,,,,,,,,,,,,,,,,,,,,,,,,,
,,,,,,,64401b8dc61551f15637634b,2023-08-16_08h59.32.207,HF_wild_card,2022.2.4,Win32,143.8848921,64401b8dc61551f15637634b,64d2fd46c836a06233681665,64dc81accb858c8c1dc54714,,,,,,,decisionTrl,resources/DY.BMP,resources/DBN.BMP,Door4,-0.349074074,-0.059259259,1,0,0,1.1947,optionLeft,60,755,1,14,0,14,0,1,,,,,,,,,,,,,,,,,,,,,,,,,,,,,,,,,,,,,,,
,,,,,,,64401b8dc61551f15637634b,2023-08-16_08h59.32.207,HF_wild_card,2022.2.4,Win32,143.8848921,64401b8dc61551f15637634b,64d2fd46c836a06233681665,64dc81accb858c8c1dc54714,,,,,,,decisionTrl,resources/DR.BMP,resources/DG.BMP,Door2,-0.24537037,-0.022222222,1,0,0,1.7774,optionLeft,40,795,1,15,0,15,0,1,,,,,,,,,,,,,,,,,,,,,,,,,,,,,,,,,,,,,,,
,,,,,,,64401b8dc61551f15637634b,2023-08-16_08h59.32.207,HF_wild_card,2022.2.4,Win32,143.8848921,64401b8dc61551f15637634b,64d2fd46c836a06233681665,64dc81accb858c8c1dc54714,,,,,,,decisionTrl,resources/DG.BMP,resources/DR.BMP,Door2,0.267592593,-0.02962963,1,0,0,1.199,optionRight,20,815,1,16,0,16,0,1,,,,,,,,,,,,,,,,,,,,,,,,,,,,,,,,,,,,,,,
,,,,,,,64401b8dc61551f15637634b,2023-08-16_08h59.32.207,HF_wild_card,2022.2.4,Win32,143.8848921,64401b8dc61551f15637634b,64d2fd46c836a06233681665,64dc81accb858c8c1dc54714,,,,,,,sngl,resources/Empty.png,resources/DB.BMP,WildCard_NonEx,0.208333333,-0.040740741,1,0,0,1.3556,optionRight,55,870,1,17,0,17,0,1,,,,,,,,,,,,,,,,,,,,,,,,,,,,,,,,,,,,,,,
,,,,,,,64401b8dc61551f15637634b,2023-08-16_08h59.32.207,HF_wild_card,2022.2.4,Win32,143.8848921,64401b8dc61551f15637634b,64d2fd46c836a06233681665,64dc81accb858c8c1dc54714,,,,,,,decisionTrl,resources/DY.BMP,resources/DB.BMP,Door4,-0.323148148,-0.055555556,1,0,0,1.8524,optionLeft,60,930,1,18,0,18,0,1,,,,,,,,,,,,,,,,,,,,,,,,,,,,,,,,,,,,,,,
,,,,,,,64401b8dc61551f15637634b,2023-08-16_08h59.32.207,HF_wild_card,2022.2.4,Win32,143.8848921,64401b8dc61551f15637634b,64d2fd46c836a06233681665,64dc81accb858c8c1dc54714,,,,,,,ctch,resources/DBN.BMP,resources/DR.BMP,Door2,0.244444444,-0.038888889,1,0,0,1.566,optionRight,40,970,1,19,0,19,0,1,,,,,,,,,,,,,,,,,,,,,,,,,,,,,,,,,,,,,,,
,,,,,,,64401b8dc61551f15637634b,2023-08-16_08h59.32.207,HF_wild_card,2022.2.4,Win32,143.8848921,64401b8dc61551f15637634b,64d2fd46c836a06233681665,64dc81accb858c8c1dc54714,,,,,,,decisionTrl,resources/DY.BMP,resources/DBN.BMP,Door4,-0.340740741,-0.056481481,1,0,0,0.9892,optionLeft,60,1030,1,20,0,20,0,1,,,,,,,,,,,,,,,,,,,,,,,,,,,,,,,,,,,,,,,
,,,,,,,64401b8dc61551f15637634b,2023-08-16_08h59.32.207,HF_wild_card,2022.2.4,Win32,143.8848921,64401b8dc61551f15637634b,64d2fd46c836a06233681665,64dc81accb858c8c1dc54714,,,,,,,decisionTrl,resources/DG.BMP,resources/DB.BMP,WildCard_NonEx,0.273148148,-0.001851852,1,0,0,3.5798,optionRight,45,1075,1,21,0,21,0,1,,,,,,,,,,,,,,,,,,,,,,,,,,,,,,,,,,,,,,,
,,,,,,,64401b8dc61551f15637634b,2023-08-16_08h59.32.207,HF_wild_card,2022.2.4,Win32,143.8848921,64401b8dc61551f15637634b,64d2fd46c836a06233681665,64dc81accb858c8c1dc54714,,,,,,,sngl,resources/DB.BMP,resources/Empty.png,WildCard_NonEx,-0.325,-0.049074074,1,0,0,1.0714,optionLeft,55,1130,1,22,0,22,0,1,,,,,,,,,,,,,,,,,,,,,,,,,,,,,,,,,,,,,,,
,,,,,,,64401b8dc61551f15637634b,2023-08-16_08h59.32.207,HF_wild_card,2022.2.4,Win32,143.8848921,64401b8dc61551f15637634b,64d2fd46c836a06233681665,64dc81accb858c8c1dc54714,,,,,,,decisionTrl,resources/DB.BMP,resources/DY.BMP,Door4,0.235185185,-0.028703704,1,0,0,1.4091,optionRight,60,1190,1,23,0,23,0,1,,,,,,,,,,,,,,,,,,,,,,,,,,,,,,,,,,,,,,,
,,,,,,,64401b8dc61551f15637634b,2023-08-16_08h59.32.207,HF_wild_card,2022.2.4,Win32,143.8848921,64401b8dc61551f15637634b,64d2fd46c836a06233681665,64dc81accb858c8c1dc54714,,,,,,,sngl,resources/Empty.png,resources/DR.BMP,Door2,0.32037037,-0.053703704,1,0,0,1.3853,optionRight,20,1210,1,24,0,24,0,1,,,,,,,,,,,,,,,,,,,,,,,,,,,,,,,,,,,,,,,
,,,,,,,64401b8dc61551f15637634b,2023-08-16_08h59.32.207,HF_wild_card,2022.2.4,Win32,143.8848921,64401b8dc61551f15637634b,64d2fd46c836a06233681665,64dc81accb858c8c1dc54714,,,,,,,ctch,resources/DBN.BMP,resources/DR.BMP,Door2,0.337037037,0.012962963,1,0,0,1.1839,optionRight,40,1250,1,25,0,25,0,1,,,,,,,,,,,,,,,,,,,,,,,,,,,,,,,,,,,,,,,
,,,,,,,64401b8dc61551f15637634b,2023-08-16_08h59.32.207,HF_wild_card,2022.2.4,Win32,143.8848921,64401b8dc61551f15637634b,64d2fd46c836a06233681665,64dc81accb858c8c1dc54714,,,,,,,decisionTrl,resources/DR.BMP,resources/DG.BMP,Door2,-0.310185185,-0.013888889,1,0,0,0.9704,optionLeft,20,1270,1,26,0,26,0,1,,,,,,,,,,,,,,,,,,,,,,,,,,,,,,,,,,,,,,,
,,,,,,,64401b8dc61551f15637634b,2023-08-16_08h59.32.207,HF_wild_card,2022.2.4,Win32,143.8848921,64401b8dc61551f15637634b,64d2fd46c836a06233681665,64dc81accb858c8c1dc54714,,,,,,,ctch,resources/DY.BMP,resources/DG.BMP,Door4,-0.222222222,-0.00462963,1,0,0,0.9624,optionLeft,80,1350,1,27,0,27,0,1,,,,,,,,,,,,,,,,,,,,,,,,,,,,,,,,,,,,,,,
,,,,,,,64401b8dc61551f15637634b,2023-08-16_08h59.32.207,HF_wild_card,2022.2.4,Win32,143.8848921,64401b8dc61551f15637634b,64d2fd46c836a06233681665,64dc81accb858c8c1dc54714,,,,,,,decisionTrl,resources/DY.BMP,resources/DBN.BMP,Door4,-0.248148148,-0.032407407,1,0,0,0.8515,optionLeft,60,1410,1,28,0,28,0,1,,,,,,,,,,,,,,,,,,,,,,,,,,,,,,,,,,,,,,,
,,,,,,,64401b8dc61551f15637634b,2023-08-16_08h59.32.207,HF_wild_card,2022.2.4,Win32,143.8848921,64401b8dc61551f15637634b,64d2fd46c836a06233681665,64dc81accb858c8c1dc54714,,,,,,,sngl,resources/Empty.png,resources/DB.BMP,WildCard_NonEx,0.289814815,-0.062037037,1,0,0,1.0651,optionRight,45,1455,1,29,0,29,0,1,,,,,,,,,,,,,,,,,,,,,,,,,,,,,,,,,,,,,,,
,,,,,,,64401b8dc61551f15637634b,2023-08-16_08h59.32.207,HF_wild_card,2022.2.4,Win32,143.8848921,64401b8dc61551f15637634b,64d2fd46c836a06233681665,64dc81accb858c8c1dc54714,,,,,,,sngl,resources/DBN.BMP,resources/Empty.png,Door3,-0.172222222,0.001851852,1,0,0,1.0273,optionLeft,70,1525,1,30,0,30,0,1,,,,,,,,,,,,,,,,,,,,,,,,,,,,,,,,,,,,,,,
,,,,,,,64401b8dc61551f15637634b,2023-08-16_08h59.32.207,HF_wild_card,2022.2.4,Win32,143.8848921,64401b8dc61551f15637634b,64d2fd46c836a06233681665,64dc81accb858c8c1dc54714,,,,,,,sngl,resources/DY.BMP,resources/Empty.png,Door4,-0.200925926,-0.00462963,1,0,0,0.9422,optionLeft,80,1605,1,31,0,31,0,1,,,,,,,,,,,,,,,,,,,,,,,,,,,,,,,,,,,,,,,
,,,,,,,64401b8dc61551f15637634b,2023-08-16_08h59.32.207,HF_wild_card,2022.2.4,Win32,143.8848921,64401b8dc61551f15637634b,64d2fd46c836a06233681665,64dc81accb858c8c1dc54714,,,,,,,decisionTrl,resources/DR.BMP,resources/DG.BMP,Door2,-0.230555556,-0.022222222,1,0,0,1.3445,optionLeft,20,1625,1,32,0,32,0,1,,,,,,,,,,,,,,,,,,,,,,,,,,,,,,,,,,,,,,,
,,,,,,,64401b8dc61551f15637634b,2023-08-16_08h59.32.207,HF_wild_card,2022.2.4,Win32,143.8848921,64401b8dc61551f15637634b,64d2fd46c836a06233681665,64dc81accb858c8c1dc54714,,,,,,,decisionTrl,resources/DR.BMP,resources/DG.BMP,Door2,-0.274074074,-0.042592593,1,0,0,0.9166,optionLeft,40,1665,1,33,0,33,0,1,,,,,,,,,,,,,,,,,,,,,,,,,,,,,,,,,,,,,,,
,,,,,,,64401b8dc61551f15637634b,2023-08-16_08h59.32.207,HF_wild_card,2022.2.4,Win32,143.8848921,64401b8dc61551f15637634b,64d2fd46c836a06233681665,64dc81accb858c8c1dc54714,,,,,,,decisionTrl,resources/DG.BMP,resources/DR.BMP,Door2,0.271296296,0.008333333,1,0,0,1.0542,optionRight,40,1705,1,34,0,34,0,1,,,,,,,,,,,,,,,,,,,,,,,,,,,,,,,,,,,,,,,
,,,,,,,64401b8dc61551f15637634b,2023-08-16_08h59.32.207,HF_wild_card,2022.2.4,Win32,143.8848921,64401b8dc61551f15637634b,64d2fd46c836a06233681665,64dc81accb858c8c1dc54714,,,,,,,decisionTrl,resources/DY.BMP,resources/DBN.BMP,Door4,-0.237037037,-0.003703704,1,0,0,0.8676,optionLeft,80,1785,1,35,0,35,0,1,,,,,,,,,,,,,,,,,,,,,,,,,,,,,,,,,,,,,,,
,,,,,,,64401b8dc61551f15637634b,2023-08-16_08h59.32.207,HF_wild_card,2022.2.4,Win32,143.8848921,64401b8dc61551f15637634b,64d2fd46c836a06233681665,64dc81accb858c8c1dc54714,,,,,,,decisionTrl,resources/DBN.BMP,resources/DY.BMP,Door4,0.348148148,-0.032407407,1,0,0,1.228,optionRight,80,1865,1,36,0,36,0,1,,,,,,,,,,,,,,,,,,,,,,,,,,,,,,,,,,,,,,,
,,,,,,,64401b8dc61551f15637634b,2023-08-16_08h59.32.207,HF_wild_card,2022.2.4,Win32,143.8848921,64401b8dc61551f15637634b,64d2fd46c836a06233681665,64dc81accb858c8c1dc54714,,,,,,,sngl,resources/Empty.png,resources/DBN.BMP,Door3,0.194444444,-0.009259259,1,0,0,1.2634,optionRight,70,1935,1,37,0,37,0,1,,,,,,,,,,,,,,,,,,,,,,,,,,,,,,,,,,,,,,,
,,,,,,,64401b8dc61551f15637634b,2023-08-16_08h59.32.207,HF_wild_card,2022.2.4,Win32,143.8848921,64401b8dc61551f15637634b,64d2fd46c836a06233681665,64dc81accb858c8c1dc54714,,,,,,,ctch,resources/DR.BMP,resources/DBN.BMP,Door2,-0.274074074,-0.040740741,1,0,0,1.8177,optionLeft,20,1955,1,38,0,38,0,1,,,,,,,,,,,,,,,,,,,,,,,,,,,,,,,,,,,,,,,
,,,,,,,64401b8dc61551f15637634b,2023-08-16_08h59.32.207,HF_wild_card,2022.2.4,Win32,143.8848921,64401b8dc61551f15637634b,64d2fd46c836a06233681665,64dc81accb858c8c1dc54714,,,,,,,sngl,resources/DG.BMP,resources/Empty.png,Door1,-0.187037037,-0.019444444,1,0,0,1.1086,optionLeft,30,1985,1,39,0,39,0,1,,,,,,,,,,,,,,,,,,,,,,,,,,,,,,,,,,,,,,,
,,,,,,,64401b8dc61551f15637634b,2023-08-16_08h59.32.207,HF_wild_card,2022.2.4,Win32,143.8848921,64401b8dc61551f15637634b,64d2fd46c836a06233681665,64dc81accb858c8c1dc54714,,,,,,,ctch,resources/DR.BMP,resources/DBN.BMP,Door2,-0.207407407,-0.006481481,1,0,0,1.1855,optionLeft,40,2025,1,40,0,40,0,1,,,,,,,,,,,,,,,,,,,,,,,,,,,,,,,,,,,,,,,
,,,,,,,64401b8dc61551f15637634b,2023-08-16_08h59.32.207,HF_wild_card,2022.2.4,Win32,143.8848921,64401b8dc61551f15637634b,64d2fd46c836a06233681665,64dc81accb858c8c1dc54714,,,,,,,decisionTrl,resources/DBN.BMP,resources/DY.BMP,Door4,0.175925926,-0.035185185,1,0,0,0.948,optionRight,60,2085,1,41,0,41,0,1,,,,,,,,,,,,,,,,,,,,,,,,,,,,,,,,,,,,,,,
,,,,,,,64401b8dc61551f15637634b,2023-08-16_08h59.32.207,HF_wild_card,2022.2.4,Win32,143.8848921,64401b8dc61551f15637634b,64d2fd46c836a06233681665,64dc81accb858c8c1dc54714,,,,,,,decisionTrl,resources/DR.BMP,resources/DB.BMP,Door2,-0.17037037,-0.012962963,1,0,0,1.0187,optionLeft,40,2125,1,42,0,42,0,1,,,,,,,,,,,,,,,,,,,,,,,,,,,,,,,,,,,,,,,
,,,,,,,64401b8dc61551f15637634b,2023-08-16_08h59.32.207,HF_wild_card,2022.2.4,Win32,143.8848921,64401b8dc61551f15637634b,64d2fd46c836a06233681665,64dc81accb858c8c1dc54714,,,,,,,sngl,resources/DB.BMP,resources/Empty.png,WildCard_NonEx,-0.166666667,-0.011111111,1,0,0,1.0202,optionLeft,45,2170,1,43,0,43,0,1,,,,,,,,,,,,,,,,,,,,,,,,,,,,,,,,,,,,,,,
,,,,,,,64401b8dc61551f15637634b,2023-08-16_08h59.32.207,HF_wild_card,2022.2.4,Win32,143.8848921,64401b8dc61551f15637634b,64d2fd46c836a06233681665,64dc81accb858c8c1dc54714,,,,,,,,,,,,,,,,,,,,,,,,,,0,0,0,0,1,,,,,,,,,,,,,,,,,,,,,,,,,,,,,,,,,,
,,,,,,,64401b8dc61551f15637634b,2023-08-16_08h59.32.207,HF_wild_card,2022.2.4,Win32,143.8848921,64401b8dc61551f15637634b,64d2fd46c836a06233681665,64dc81accb858c8c1dc54714,,,,,,,decisionTrl,resources/DR.BMP,resources/DB.BMP,Door2,-0.252777778,-0.036111111,1,0,0,1.5008,optionLeft,20,2190,2,0,0,0,0,1,,,,,,,,,,,,,,,,,,,,,,,,,,,,,,,,,,,,,,,
,,,,,,,64401b8dc61551f15637634b,2023-08-16_08h59.32.207,HF_wild_card,2022.2.4,Win32,143.8848921,64401b8dc61551f15637634b,64d2fd46c836a06233681665,64dc81accb858c8c1dc54714,,,,,,,sngl,resources/DR.BMP,resources/Empty.png,Door2,-0.249074074,-0.021296296,1,0,0,0.8871,optionLeft,20,2210,2,1,0,1,0,1,,,,,,,,,,,,,,,,,,,,,,,,,,,,,,,,,,,,,,,
,,,,,,,64401b8dc61551f15637634b,2023-08-16_08h59.32.207,HF_wild_card,2022.2.4,Win32,143.8848921,64401b8dc61551f15637634b,64d2fd46c836a06233681665,64dc81accb858c8c1dc54714,,,,,,,sngl,resources/Empty.png,resources/DB.BMP,WildCard_NonEx,0.168518519,-0.000925926,1,0,0,0.8803,optionRight,45,2255,2,2,0,2,0,1,,,,,,,,,,,,,,,,,,,,,,,,,,,,,,,,,,,,,,,
,,,,,,,64401b8dc61551f15637634b,2023-08-16_08h59.32.207,HF_wild_card,2022.2.4,Win32,143.8848921,64401b8dc61551f15637634b,64d2fd46c836a06233681665,64dc81accb858c8c1dc54714,,,,,,,decisionTrl,resources/DB.BMP,resources/DBN.BMP,WildCard_NonEx,-0.197222222,-0.030555556,1,0,0,0.8931,optionLeft,45,2300,2,3,0,3,0,1,,,,,,,,,,,,,,,,,,,,,,,,,,,,,,,,,,,,,,,
,,,,,,,64401b8dc61551f15637634b,2023-08-16_08h59.32.207,HF_wild_card,2022.2.4,Win32,143.8848921,64401b8dc61551f15637634b,64d2fd46c836a06233681665,64dc81accb858c8c1dc54714,,,,,,,sngl,resources/DB.BMP,resources/Empty.png,WildCard_NonEx,-0.175,-0.021296296,1,0,0,0.866,optionLeft,45,2345,2,4,0,4,0,1,,,,,,,,,,,,,,,,,,,,,,,,,,,,,,,,,,,,,,,
,,,,,,,64401b8dc61551f15637634b,2023-08-16_08h59.32.207,HF_wild_card,2022.2.4,Win32,143.8848921,64401b8dc61551f15637634b,64d2fd46c836a06233681665,64dc81accb858c8c1dc54714,,,,,,,decisionTrl,resources/DR.BMP,resources/DG.BMP,Door2,-0.192592593,-0.016666667,1,0,0,1.0565,optionLeft,20,2365,2,5,0,5,0,1,,,,,,,,,,,,,,,,,,,,,,,,,,,,,,,,,,,,,,,
,,,,,,,64401b8dc61551f15637634b,2023-08-16_08h59.32.207,HF_wild_card,2022.2.4,Win32,143.8848921,64401b8dc61551f15637634b,64d2fd46c836a06233681665,64dc81accb858c8c1dc54714,,,,,,,decisionTrl,resources/DR.BMP,resources/DG.BMP,Door2,-0.201851852,-0.007407407,1,0,0,0.8672,optionLeft,20,2385,2,6,0,6,0,1,,,,,,,,,,,,,,,,,,,,,,,,,,,,,,,,,,,,,,,
,,,,,,,64401b8dc61551f15637634b,2023-08-16_08h59.32.207,HF_wild_card,2022.2.4,Win32,143.8848921,64401b8dc61551f15637634b,64d2fd46c836a06233681665,64dc81accb858c8c1dc54714,,,,,,,decisionTrl,resources/DBN.BMP,resources/DB.BMP,WildCard_NonEx,0.166666667,-0.023148148,1,0,0,1.9988,optionRight,55,2440,2,7,0,7,0,1,,,,,,,,,,,,,,,,,,,,,,,,,,,,,,,,,,,,,,,
,,,,,,,64401b8dc61551f15637634b,2023-08-16_08h59.32.207,HF_wild_card,2022.2.4,Win32,143.8848921,64401b8dc61551f15637634b,64d2fd46c836a06233681665,64dc81accb858c8c1dc54714,,,,,,,ctch,resources/DBN.BMP,resources/DR.BMP,Door2,0.196296296,-0.013888889,1,0,0,1.2051,optionRight,20,2460,2,8,0,8,0,1,,,,,,,,,,,,,,,,,,,,,,,,,,,,,,,,,,,,,,,
,,,,,,,64401b8dc61551f15637634b,2023-08-16_08h59.32.207,HF_wild_card,2022.2.4,Win32,143.8848921,64401b8dc61551f15637634b,64d2fd46c836a06233681665,64dc81accb858c8c1dc54714,,,,,,,decisionTrl,resources/DY.BMP,resources/DB.BMP,Door4,-0.177777778,-0.027777778,1,0,0,1.6288,optionLeft,60,2520,2,9,0,9,0,1,,,,,,,,,,,,,,,,,,,,,,,,,,,,,,,,,,,,,,,
,,,,,,,64401b8dc61551f15637634b,2023-08-16_08h59.32.207,HF_wild_card,2022.2.4,Win32,143.8848921,64401b8dc61551f15637634b,64d2fd46c836a06233681665,64dc81accb858c8c1dc54714,,,,,,,decisionTrl,resources/DBN.BMP,resources/DY.BMP,Door4,0.209259259,-0.025,1,0,0,0.9208,optionRight,60,2580,2,10,0,10,0,1,,,,,,,,,,,,,,,,,,,,,,,,,,,,,,,,,,,,,,,
,,,,,,,64401b8dc61551f15637634b,2023-08-16_08h59.32.207,HF_wild_card,2022.2.4,Win32,143.8848921,64401b8dc61551f15637634b,64d2fd46c836a06233681665,64dc81accb858c8c1dc54714,,,,,,,sngl,resources/Empty.png,resources/DY.BMP,Door4,0.100925926,-0.030555556,1,0,0,0.9496,optionRight,80,2660,2,11,0,11,0,1,,,,,,,,,,,,,,,,,,,,,,,,,,,,,,,,,,,,,,,
,,,,,,,64401b8dc61551f15637634b,2023-08-16_08h59.32.207,HF_wild_card,2022.2.4,Win32,143.8848921,64401b8dc61551f15637634b,64d2fd46c836a06233681665,64dc81accb858c8c1dc54714,,,,,,,decisionTrl,resources/DR.BMP,resources/DG.BMP,Door2,-0.183333333,-0.037037037,1,0,0,0.9487,optionLeft,20,2680,2,12,0,12,0,1,,,,,,,,,,,,,,,,,,,,,,,,,,,,,,,,,,,,,,,
,,,,,,,64401b8dc61551f15637634b,2023-08-16_08h59.32.207,HF_wild_card,2022.2.4,Win32,143.8848921,64401b8dc61551f15637634b,64d2fd46c836a06233681665,64dc81accb858c8c1dc54714,,,,,,,decisionTrl,resources/DY.BMP,resources/DBN.BMP,Door4,-0.161111111,-0.02962963,1,0,0,0.9943,optionLeft,60,2740,2,13,0,13,0,1,,,,,,,,,,,,,,,,,,,,,,,,,,,,,,,,,,,,,,,
,,,,,,,64401b8dc61551f15637634b,2023-08-16_08h59.32.207,HF_wild_card,2022.2.4,Win32,143.8848921,64401b8dc61551f15637634b,64d2fd46c836a06233681665,64dc81accb858c8c1dc54714,,,,,,,decisionTrl,resources/DY.BMP,resources/DBN.BMP,Door4,-0.207407407,-0.025,1,0,0,0.9709,optionLeft,60,2800,2,14,0,14,0,1,,,,,,,,,,,,,,,,,,,,,,,,,,,,,,,,,,,,,,,
,,,,,,,64401b8dc61551f15637634b,2023-08-16_08h59.32.207,HF_wild_card,2022.2.4,Win32,143.8848921,64401b8dc61551f15637634b,64d2fd46c836a06233681665,64dc81accb858c8c1dc54714,,,,,,,decisionTrl,resources/DG.BMP,resources/DR.BMP,Door2,0.243518519,-0.084259259,1,0,0,2.1085,optionRight,40,2840,2,15,0,15,0,1,,,,,,,,,,,,,,,,,,,,,,,,,,,,,,,,,,,,,,,
,,,,,,,64401b8dc61551f15637634b,2023-08-16_08h59.32.207,HF_wild_card,2022.2.4,Win32,143.8848921,64401b8dc61551f15637634b,64d2fd46c836a06233681665,64dc81accb858c8c1dc54714,,,,,,,decisionTrl,resources/DB.BMP,resources/DY.BMP,Door4,0.2,-0.050925926,1,0,0,1.0811,optionRight,80,2920,2,16,0,16,0,1,,,,,,,,,,,,,,,,,,,,,,,,,,,,,,,,,,,,,,,
,,,,,,,64401b8dc61551f15637634b,2023-08-16_08h59.32.207,HF_wild_card,2022.2.4,Win32,143.8848921,64401b8dc61551f15637634b,64d2fd46c836a06233681665,64dc81accb858c8c1dc54714,,,,,,,sngl,resources/DB.BMP,resources/Empty.png,WildCard_NonEx,-0.259259259,-0.016666667,1,0,0,0.8035,optionLeft,55,2975,2,17,0,17,0,1,,,,,,,,,,,,,,,,,,,,,,,,,,,,,,,,,,,,,,,
,,,,,,,64401b8dc61551f15637634b,2023-08-16_08h59.32.207,HF_wild_card,2022.2.4,Win32,143.8848921,64401b8dc61551f15637634b,64d2fd46c836a06233681665,64dc81accb858c8c1dc54714,,,,,,,decisionTrl,resources/DG.BMP,resources/DB.BMP,Door1,-0.191666667,-0.021296296,1,0,0,3.7141,optionLeft,30,3005,2,18,0,18,0,1,,,,,,,,,,,,,,,,,,,,,,,,,,,,,,,,,,,,,,,
,,,,,,,64401b8dc61551f15637634b,2023-08-16_08h59.32.207,HF_wild_card,2022.2.4,Win32,143.8848921,64401b8dc61551f15637634b,64d2fd46c836a06233681665,64dc81accb858c8c1dc54714,,,,,,,ctch,resources/DR.BMP,resources/DBN.BMP,Door2,-0.187037037,-0.032407407,1,0,0,0.9204,optionLeft,20,3025,2,19,0,19,0,1,,,,,,,,,,,,,,,,,,,,,,,,,,,,,,,,,,,,,,,
,,,,,,,64401b8dc61551f15637634b,2023-08-16_08h59.32.207,HF_wild_card,2022.2.4,Win32,143.8848921,64401b8dc61551f15637634b,64d2fd46c836a06233681665,64dc81accb858c8c1dc54714,,,,,,,sngl,resources/Empty.png,resources/DB.BMP,WildCard_NonEx,0.181481481,-0.009259259,1,0,0,0.8272,optionRight,55,3080,2,20,0,20,0,1,,,,,,,,,,,,,,,,,,,,,,,,,,,,,,,,,,,,,,,
,,,,,,,64401b8dc61551f15637634b,2023-08-16_08h59.32.207,HF_wild_card,2022.2.4,Win32,143.8848921,64401b8dc61551f15637634b,64d2fd46c836a06233681665,64dc81accb858c8c1dc54714,,,,,,,ctch,resources/DY.BMP,resources/DG.BMP,Door4,-0.210185185,0.015740741,1,0,0,0.7936,optionLeft,60,3140,2,21,0,21,0,1,,,,,,,,,,,,,,,,,,,,,,,,,,,,,,,,,,,,,,,
,,,,,,,64401b8dc61551f15637634b,2023-08-16_08h59.32.207,HF_wild_card,2022.2.4,Win32,143.8848921,64401b8dc61551f15637634b,64d2fd46c836a06233681665,64dc81accb858c8c1dc54714,,,,,,,ctch,resources/DY.BMP,resources/DG.BMP,Door4,-0.212962963,-0.007407407,1,0,0,0.85,optionLeft,60,3200,2,22,0,22,0,1,,,,,,,,,,,,,,,,,,,,,,,,,,,,,,,,,,,,,,,
,,,,,,,64401b8dc61551f15637634b,2023-08-16_08h59.32.207,HF_wild_card,2022.2.4,Win32,143.8848921,64401b8dc61551f15637634b,64d2fd46c836a06233681665,64dc81accb858c8c1dc54714,,,,,,,sngl,resources/DG.BMP,resources/Empty.png,Door1,-0.22037037,-0.002777778,1,0,0,1.9686,optionLeft,30,3230,2,23,0,23,0,1,,,,,,,,,,,,,,,,,,,,,,,,,,,,,,,,,,,,,,,
,,,,,,,64401b8dc61551f15637634b,2023-08-16_08h59.32.207,HF_wild_card,2022.2.4,Win32,143.8848921,64401b8dc61551f15637634b,64d2fd46c836a06233681665,64dc81accb858c8c1dc54714,,,,,,,sngl,resources/DBN.BMP,resources/Empty.png,Door3,-0.253703704,-0.033333333,1,0,0,0.8106,optionLeft,70,3300,2,24,0,24,0,1,,,,,,,,,,,,,,,,,,,,,,,,,,,,,,,,,,,,,,,
,,,,,,,64401b8dc61551f15637634b,2023-08-16_08h59.32.207,HF_wild_card,2022.2.4,Win32,143.8848921,64401b8dc61551f15637634b,64d2fd46c836a06233681665,64dc81accb858c8c1dc54714,,,,,,,decisionTrl,resources/DY.BMP,resources/DBN.BMP,Door4,-0.201851852,0.012962963,1,0,0,1.1279,optionLeft,60,3360,2,25,0,25,0,1,,,,,,,,,,,,,,,,,,,,,,,,,,,,,,,,,,,,,,,
,,,,,,,64401b8dc61551f15637634b,2023-08-16_08h59.32.207,HF_wild_card,2022.2.4,Win32,143.8848921,64401b8dc61551f15637634b,64d2fd46c836a06233681665,64dc81accb858c8c1dc54714,,,,,,,sngl,resources/Empty.png,resources/DR.BMP,Door2,0.215740741,-0.049074074,1,0,0,0.9191,optionRight,40,3400,2,26,0,26,0,1,,,,,,,,,,,,,,,,,,,,,,,,,,,,,,,,,,,,,,,
,,,,,,,64401b8dc61551f15637634b,2023-08-16_08h59.32.207,HF_wild_card,2022.2.4,Win32,143.8848921,64401b8dc61551f15637634b,64d2fd46c836a06233681665,64dc81accb858c8c1dc54714,,,,,,,ctch,resources/DR.BMP,resources/DBN.BMP,Door2,-0.17037037,-0.015740741,1,0,0,0.7956,optionLeft,40,3440,2,27,0,27,0,1,,,,,,,,,,,,,,,,,,,,,,,,,,,,,,,,,,,,,,,
,,,,,,,64401b8dc61551f15637634b,2023-08-16_08h59.32.207,HF_wild_card,2022.2.4,Win32,143.8848921,64401b8dc61551f15637634b,64d2fd46c836a06233681665,64dc81accb858c8c1dc54714,,,,,,,decisionTrl,resources/DB.BMP,resources/DG.BMP,WildCard_NonEx,-0.17962963,-0.015740741,1,0,0,2.3103,optionLeft,55,3495,2,28,0,28,0,1,,,,,,,,,,,,,,,,,,,,,,,,,,,,,,,,,,,,,,,
,,,,,,,64401b8dc61551f15637634b,2023-08-16_08h59.32.207,HF_wild_card,2022.2.4,Win32,143.8848921,64401b8dc61551f15637634b,64d2fd46c836a06233681665,64dc81accb858c8c1dc54714,,,,,,,sngl,resources/DY.BMP,resources/Empty.png,Door4,-0.225,-0.005555556,1,0,0,0.8871,optionLeft,60,3555,2,29,0,29,0,1,,,,,,,,,,,,,,,,,,,,,,,,,,,,,,,,,,,,,,,
,,,,,,,64401b8dc61551f15637634b,2023-08-16_08h59.32.207,HF_wild_card,2022.2.4,Win32,143.8848921,64401b8dc61551f15637634b,64d2fd46c836a06233681665,64dc81accb858c8c1dc54714,,,,,,,decisionTrl,resources/DG.BMP,resources/DR.BMP,Door2,0.172222222,-0.044444444,1,0,0,1.1191,optionRight,40,3595,2,30,0,30,0,1,,,,,,,,,,,,,,,,,,,,,,,,,,,,,,,,,,,,,,,
,,,,,,,64401b8dc61551f15637634b,2023-08-16_08h59.32.207,HF_wild_card,2022.2.4,Win32,143.8848921,64401b8dc61551f15637634b,64d2fd46c836a06233681665,64dc81accb858c8c1dc54714,,,,,,,ctch,resources/DBN.BMP,resources/DR.BMP,Door2,0.138888889,-0.012962963,1,0,0,1.0272,optionRight,40,3635,2,31,0,31,0,1,,,,,,,,,,,,,,,,,,,,,,,,,,,,,,,,,,,,,,,
,,,,,,,64401b8dc61551f15637634b,2023-08-16_08h59.32.207,HF_wild_card,2022.2.4,Win32,143.8848921,64401b8dc61551f15637634b,64d2fd46c836a06233681665,64dc81accb858c8c1dc54714,,,,,,,decisionTrl,resources/DBN.BMP,resources/DY.BMP,Door4,0.144444444,-0.025,1,0,0,1.05,optionRight,60,3695,2,32,0,32,0,1,,,,,,,,,,,,,,,,,,,,,,,,,,,,,,,,,,,,,,,
,,,,,,,64401b8dc61551f15637634b,2023-08-16_08h59.32.207,HF_wild_card,2022.2.4,Win32,143.8848921,64401b8dc61551f15637634b,64d2fd46c836a06233681665,64dc81accb858c8c1dc54714,,,,,,,ctch,resources/DG.BMP,resources/DY.BMP,Door4,0.168518519,-0.023148148,1,0,0,1.3808,optionRight,60,3755,2,33,0,33,0,1,,,,,,,,,,,,,,,,,,,,,,,,,,,,,,,,,,,,,,,
,,,,,,,64401b8dc61551f15637634b,2023-08-16_08h59.32.207,HF_wild_card,2022.2.4,Win32,143.8848921,64401b8dc61551f15637634b,64d2fd46c836a06233681665,64dc81accb858c8c1dc54714,,,,,,,decisionTrl,resources/DY.BMP,resources/DBN.BMP,Door4,-0.219444444,-0.013888889,1,0,0,0.9095,optionLeft,60,3815,2,34,0,34,0,1,,,,,,,,,,,,,,,,,,,,,,,,,,,,,,,,,,,,,,,
,,,,,,,64401b8dc61551f15637634b,2023-08-16_08h59.32.207,HF_wild_card,2022.2.4,Win32,143.8848921,64401b8dc61551f15637634b,64d2fd46c836a06233681665,64dc81accb858c8c1dc54714,,,,,,,decisionTrl,resources/DB.BMP,resources/DR.BMP,WildCard_NonEx,-0.133333333,-0.033333333,1,0,0,1.2677,optionLeft,45,3860,2,35,0,35,0,1,,,,,,,,,,,,,,,,,,,,,,,,,,,,,,,,,,,,,,,
,,,,,,,64401b8dc61551f15637634b,2023-08-16_08h59.32.207,HF_wild_card,2022.2.4,Win32,143.8848921,64401b8dc61551f15637634b,64d2fd46c836a06233681665,64dc81accb858c8c1dc54714,,,,,,,decisionTrl,resources/DR.BMP,resources/DG.BMP,Door2,-0.183333333,-0.066666667,1,0,0,1.0544,optionLeft,40,3900,2,36,0,36,0,1,,,,,,,,,,,,,,,,,,,,,,,,,,,,,,,,,,,,,,,
,,,,,,,64401b8dc61551f15637634b,2023-08-16_08h59.32.207,HF_wild_card,2022.2.4,Win32,143.8848921,64401b8dc61551f15637634b,64d2fd46c836a06233681665,64dc81accb858c8c1dc54714,,,,,,,decisionTrl,resources/DBN.BMP,resources/DY.BMP,Door4,0.202777778,-0.022222222,1,0,0,0.9551,optionRight,60,3960,2,37,0,37,0,1,,,,,,,,,,,,,,,,,,,,,,,,,,,,,,,,,,,,,,,
,,,,,,,64401b8dc61551f15637634b,2023-08-16_08h59.32.207,HF_wild_card,2022.2.4,Win32,143.8848921,64401b8dc61551f15637634b,64d2fd46c836a06233681665,64dc81accb858c8c1dc54714,,,,,,,sngl,resources/Empty.png,resources/DG.BMP,Door1,0.162037037,-0.019444444,1,0,0,0.8804,optionRight,30,3990,2,38,0,38,0,1,,,,,,,,,,,,,,,,,,,,,,,,,,,,,,,,,,,,,,,
,,,,,,,64401b8dc61551f15637634b,2023-08-16_08h59.32.207,HF_wild_card,2022.2.4,Win32,143.8848921,64401b8dc61551f15637634b,64d2fd46c836a06233681665,64dc81accb858c8c1dc54714,,,,,,,sngl,resources/Empty.png,resources/DBN.BMP,Door3,0.092592593,0.002777778,1,0,0,0.8768,optionRight,70,4060,2,39,0,39,0,1,,,,,,,,,,,,,,,,,,,,,,,,,,,,,,,,,,,,,,,
,,,,,,,64401b8dc61551f15637634b,2023-08-16_08h59.32.207,HF_wild_card,2022.2.4,Win32,143.8848921,64401b8dc61551f15637634b,64d2fd46c836a06233681665,64dc81accb858c8c1dc54714,,,,,,,decisionTrl,resources/DG.BMP,resources/DR.BMP,Door2,0.193518519,-0.039814815,1,0,0,1.1652,optionRight,20,4080,2,40,0,40,0,1,,,,,,,,,,,,,,,,,,,,,,,,,,,,,,,,,,,,,,,
,,,,,,,64401b8dc61551f15637634b,2023-08-16_08h59.32.207,HF_wild_card,2022.2.4,Win32,143.8848921,64401b8dc61551f15637634b,64d2fd46c836a06233681665,64dc81accb858c8c1dc54714,,,,,,,decisionTrl,resources/DG.BMP,resources/DR.BMP,Door2,0.112962963,0.001851852,1,0,0,1.0038,optionRight,40,4120,2,41,0,41,0,1,,,,,,,,,,,,,,,,,,,,,,,,,,,,,,,,,,,,,,,
,,,,,,,64401b8dc61551f15637634b,2023-08-16_08h59.32.207,HF_wild_card,2022.2.4,Win32,143.8848921,64401b8dc61551f15637634b,64d2fd46c836a06233681665,64dc81accb858c8c1dc54714,,,,,,,decisionTrl,resources/DBN.BMP,resources/DY.BMP,Door4,0.176851852,-0.00462963,1,0,0,0.8374,optionRight,80,4200,2,42,0,42,0,1,,,,,,,,,,,,,,,,,,,,,,,,,,,,,,,,,,,,,,,
,,,,,,,64401b8dc61551f15637634b,2023-08-16_08h59.32.207,HF_wild_card,2022.2.4,Win32,143.8848921,64401b8dc61551f15637634b,64d2fd46c836a06233681665,64dc81accb858c8c1dc54714,,,,,,,ctch,resources/DG.BMP,resources/DY.BMP,Door4,0.278703704,-0.037037037,1,0,0,0.8866,optionRight,80,4280,2,43,0,43,0,1,,,,,,,,,,,,,,,,,,,,,,,,,,,,,,,,,,,,,,,
,,,,,,,64401b8dc61551f15637634b,2023-08-16_08h59.32.207,HF_wild_card,2022.2.4,Win32,143.8848921,64401b8dc61551f15637634b,64d2fd46c836a06233681665,64dc81accb858c8c1dc54714,,,,,,,,,,,,,,,,,,,,,,,,,,1,0,1,0,1,,,,,,,,,,,,,,,,,,,,,,,,,,,,,,,,,,
,,,,,,,64401b8dc61551f15637634b,2023-08-16_08h59.32.207,HF_wild_card,2022.2.4,Win32,143.8848921,64401b8dc61551f15637634b,64d2fd46c836a06233681665,64dc81accb858c8c1dc54714,,,,,,,decisionTrl,resources/DBN.BMP,resources/DY.BMP,Door4,0.264814815,-0.010185185,0,0,1,0.9567,optionRight,60,4340,3,0,0,0,0,1,,,,,,,,,,,,,,,,,,,,,,,,,,,,,,,,,,,,,,,
,,,,,,,64401b8dc61551f15637634b,2023-08-16_08h59.32.207,HF_wild_card,2022.2.4,Win32,143.8848921,64401b8dc61551f15637634b,64d2fd46c836a06233681665,64dc81accb858c8c1dc54714,,,,,,,decisionTrl,resources/DB.BMP,resources/DG.BMP,Door1,0.236111111,-0.001851852,1,0,0,2.5526,optionRight,30,4370,3,1,0,1,0,1,,,,,,,,,,,,,,,,,,,,,,,,,,,,,,,,,,,,,,,
,,,,,,,64401b8dc61551f15637634b,2023-08-16_08h59.32.207,HF_wild_card,2022.2.4,Win32,143.8848921,64401b8dc61551f15637634b,64d2fd46c836a06233681665,64dc81accb858c8c1dc54714,,,,,,,ctch,resources/DG.BMP,resources/DY.BMP,Door4,0.15462963,-0.034259259,1,0,0,1.1331,optionRight,80,4450,3,2,0,2,0,1,,,,,,,,,,,,,,,,,,,,,,,,,,,,,,,,,,,,,,,
,,,,,,,64401b8dc61551f15637634b,2023-08-16_08h59.32.207,HF_wild_card,2022.2.4,Win32,143.8848921,64401b8dc61551f15637634b,64d2fd46c836a06233681665,64dc81accb858c8c1dc54714,,,,,,,decisionTrl,resources/DR.BMP,resources/DB.BMP,Door2,-0.118518519,-0.036111111,1,0,0,1.0884,optionLeft,40,4490,3,3,0,3,0,1,,,,,,,,,,,,,,,,,,,,,,,,,,,,,,,,,,,,,,,
,,,,,,,64401b8dc61551f15637634b,2023-08-16_08h59.32.207,HF_wild_card,2022.2.4,Win32,143.8848921,64401b8dc61551f15637634b,64d2fd46c836a06233681665,64dc81accb858c8c1dc54714,,,,,,,decisionTrl,resources/DY.BMP,resources/DB.BMP,Door4,-0.25462963,-0.058333333,1,0,0,0.8398,optionLeft,80,4570,3,4,0,4,0,1,,,,,,,,,,,,,,,,,,,,,,,,,,,,,,,,,,,,,,,
,,,,,,,64401b8dc61551f15637634b,2023-08-16_08h59.32.207,HF_wild_card,2022.2.4,Win32,143.8848921,64401b8dc61551f15637634b,64d2fd46c836a06233681665,64dc81accb858c8c1dc54714,,,,,,,sngl,resources/Empty.png,resources/DBN.BMP,Door3,0.127777778,-0.013888889,1,0,0,0.9275,optionRight,70,4640,3,5,0,5,0,1,,,,,,,,,,,,,,,,,,,,,,,,,,,,,,,,,,,,,,,
,,,,,,,64401b8dc61551f15637634b,2023-08-16_08h59.32.207,HF_wild_card,2022.2.4,Win32,143.8848921,64401b8dc61551f15637634b,64d2fd46c836a06233681665,64dc81accb858c8c1dc54714,,,,,,,decisionTrl,resources/DR.BMP,resources/DG.BMP,Door2,-0.235185185,-0.032407407,1,0,0,0.9272,optionLeft,20,4660,3,6,0,6,0,1,,,,,,,,,,,,,,,,,,,,,,,,,,,,,,,,,,,,,,,
,,,,,,,64401b8dc61551f15637634b,2023-08-16_08h59.32.207,HF_wild_card,2022.2.4,Win32,143.8848921,64401b8dc61551f15637634b,64d2fd46c836a06233681665,64dc81accb858c8c1dc54714,,,,,,,decisionTrl,resources/DBN.BMP,resources/DY.BMP,Door4,0.196296296,-0.023148148,1,0,0,0.846,optionRight,60,4720,3,7,0,7,0,1,,,,,,,,,,,,,,,,,,,,,,,,,,,,,,,,,,,,,,,
,,,,,,,64401b8dc61551f15637634b,2023-08-16_08h59.32.207,HF_wild_card,2022.2.4,Win32,143.8848921,64401b8dc61551f15637634b,64d2fd46c836a06233681665,64dc81accb858c8c1dc54714,,,,,,,sngl,resources/DY.BMP,resources/Empty.png,Door4,-0.166666667,0,1,0,0,0.8124,optionLeft,80,4800,3,8,0,8,0,1,,,,,,,,,,,,,,,,,,,,,,,,,,,,,,,,,,,,,,,
,,,,,,,64401b8dc61551f15637634b,2023-08-16_08h59.32.207,HF_wild_card,2022.2.4,Win32,143.8848921,64401b8dc61551f15637634b,64d2fd46c836a06233681665,64dc81accb858c8c1dc54714,,,,,,,sngl,resources/DB.BMP,resources/Empty.png,WildCard_NonEx,-0.213888889,-0.024074074,1,0,0,0.8519,optionLeft,45,4845,3,9,0,9,0,1,,,,,,,,,,,,,,,,,,,,,,,,,,,,,,,,,,,,,,,
,,,,,,,64401b8dc61551f15637634b,2023-08-16_08h59.32.207,HF_wild_card,2022.2.4,Win32,143.8848921,64401b8dc61551f15637634b,64d2fd46c836a06233681665,64dc81accb858c8c1dc54714,,,,,,,decisionTrl,resources/DR.BMP,resources/DG.BMP,Door2,-0.225925926,-0.018518519,1,0,0,1.0146,optionLeft,40,4885,3,10,0,10,0,1,,,,,,,,,,,,,,,,,,,,,,,,,,,,,,,,,,,,,,,
,,,,,,,64401b8dc61551f15637634b,2023-08-16_08h59.32.207,HF_wild_card,2022.2.4,Win32,143.8848921,64401b8dc61551f15637634b,64d2fd46c836a06233681665,64dc81accb858c8c1dc54714,,,,,,,decisionTrl,resources/DBN.BMP,resources/DY.BMP,Door4,0.160185185,-0.027777778,1,0,0,0.9159,optionRight,60,4945,3,11,0,11,0,1,,,,,,,,,,,,,,,,,,,,,,,,,,,,,,,,,,,,,,,
,,,,,,,64401b8dc61551f15637634b,2023-08-16_08h59.32.207,HF_wild_card,2022.2.4,Win32,143.8848921,64401b8dc61551f15637634b,64d2fd46c836a06233681665,64dc81accb858c8c1dc54714,,,,,,,decisionTrl,resources/DBN.BMP,resources/DY.BMP,Door4,0.144444444,-0.04537037,1,0,0,1.4085,optionRight,80,5025,3,12,0,12,0,1,,,,,,,,,,,,,,,,,,,,,,,,,,,,,,,,,,,,,,,
,,,,,,,64401b8dc61551f15637634b,2023-08-16_08h59.32.207,HF_wild_card,2022.2.4,Win32,143.8848921,64401b8dc61551f15637634b,64d2fd46c836a06233681665,64dc81accb858c8c1dc54714,,,,,,,ctch,resources/DY.BMP,resources/DG.BMP,Door4,-0.193518519,-0.014814815,1,0,0,0.8732,optionLeft,60,5085,3,13,0,13,0,1,,,,,,,,,,,,,,,,,,,,,,,,,,,,,,,,,,,,,,,
,,,,,,,64401b8dc61551f15637634b,2023-08-16_08h59.32.207,HF_wild_card,2022.2.4,Win32,143.8848921,64401b8dc61551f15637634b,64d2fd46c836a06233681665,64dc81accb858c8c1dc54714,,,,,,,sngl,resources/Empty.png,resources/DB.BMP,WildCard_NonEx,0.199074074,-0.027777778,1,0,0,0.8179,optionRight,45,5130,3,14,0,14,0,1,,,,,,,,,,,,,,,,,,,,,,,,,,,,,,,,,,,,,,,
,,,,,,,64401b8dc61551f15637634b,2023-08-16_08h59.32.207,HF_wild_card,2022.2.4,Win32,143.8848921,64401b8dc61551f15637634b,64d2fd46c836a06233681665,64dc81accb858c8c1dc54714,,,,,,,ctch,resources/DR.BMP,resources/DBN.BMP,Door2,-0.213888889,-0.023148148,1,0,0,0.8249,optionLeft,40,5170,3,15,0,15,0,1,,,,,,,,,,,,,,,,,,,,,,,,,,,,,,,,,,,,,,,
,,,,,,,64401b8dc61551f15637634b,2023-08-16_08h59.32.207,HF_wild_card,2022.2.4,Win32,143.8848921,64401b8dc61551f15637634b,64d2fd46c836a06233681665,64dc81accb858c8c1dc54714,,,,,,,decisionTrl,resources/DB.BMP,resources/DR.BMP,Door2,0.226851852,-0.035185185,1,0,0,0.9296,optionRight,20,5190,3,16,0,16,0,1,,,,,,,,,,,,,,,,,,,,,,,,,,,,,,,,,,,,,,,
,,,,,,,64401b8dc61551f15637634b,2023-08-16_08h59.32.207,HF_wild_card,2022.2.4,Win32,143.8848921,64401b8dc61551f15637634b,64d2fd46c836a06233681665,64dc81accb858c8c1dc54714,,,,,,,decisionTrl,resources/DG.BMP,resources/DB.BMP,Door1,-0.14537037,-0.00462963,1,0,0,1.4072,optionLeft,30,5220,3,17,0,17,0,1,,,,,,,,,,,,,,,,,,,,,,,,,,,,,,,,,,,,,,,
,,,,,,,64401b8dc61551f15637634b,2023-08-16_08h59.32.207,HF_wild_card,2022.2.4,Win32,143.8848921,64401b8dc61551f15637634b,64d2fd46c836a06233681665,64dc81accb858c8c1dc54714,,,,,,,decisionTrl,resources/DY.BMP,resources/DBN.BMP,Door4,-0.236111111,-0.022222222,1,0,0,0.9215,optionLeft,80,5300,3,18,0,18,0,1,,,,,,,,,,,,,,,,,,,,,,,,,,,,,,,,,,,,,,,
,,,,,,,64401b8dc61551f15637634b,2023-08-16_08h59.32.207,HF_wild_card,2022.2.4,Win32,143.8848921,64401b8dc61551f15637634b,64d2fd46c836a06233681665,64dc81accb858c8c1dc54714,,,,,,,decisionTrl,resources/DBN.BMP,resources/DB.BMP,WildCard_NonEx,0.157407407,-0.053703704,1,0,0,2.5154,optionRight,55,5355,3,19,0,19,0,1,,,,,,,,,,,,,,,,,,,,,,,,,,,,,,,,,,,,,,,
,,,,,,,64401b8dc61551f15637634b,2023-08-16_08h59.32.207,HF_wild_card,2022.2.4,Win32,143.8848921,64401b8dc61551f15637634b,64d2fd46c836a06233681665,64dc81accb858c8c1dc54714,,,,,,,decisionTrl,resources/DR.BMP,resources/DG.BMP,Door2,-0.15462963,-0.022222222,1,0,0,0.8592,optionLeft,40,5395,3,20,0,20,0,1,,,,,,,,,,,,,,,,,,,,,,,,,,,,,,,,,,,,,,,
,,,,,,,64401b8dc61551f15637634b,2023-08-16_08h59.32.207,HF_wild_card,2022.2.4,Win32,143.8848921,64401b8dc61551f15637634b,64d2fd46c836a06233681665,64dc81accb858c8c1dc54714,,,,,,,decisionTrl,resources/DG.BMP,resources/DR.BMP,Door2,0.192592593,-0.022222222,1,0,0,1.0085,optionRight,20,5415,3,21,0,21,0,1,,,,,,,,,,,,,,,,,,,,,,,,,,,,,,,,,,,,,,,
,,,,,,,64401b8dc61551f15637634b,2023-08-16_08h59.32.207,HF_wild_card,2022.2.4,Win32,143.8848921,64401b8dc61551f15637634b,64d2fd46c836a06233681665,64dc81accb858c8c1dc54714,,,,,,,decisionTrl,resources/DY.BMP,resources/DBN.BMP,Door4,-0.163888889,0.003703704,1,0,0,0.8468,optionLeft,60,5475,3,22,0,22,0,1,,,,,,,,,,,,,,,,,,,,,,,,,,,,,,,,,,,,,,,
,,,,,,,64401b8dc61551f15637634b,2023-08-16_08h59.32.207,HF_wild_card,2022.2.4,Win32,143.8848921,64401b8dc61551f15637634b,64d2fd46c836a06233681665,64dc81accb858c8c1dc54714,,,,,,,sngl,resources/DBN.BMP,resources/Empty.png,Door3,-0.151851852,0.00462963,0,0,1,0.8631,optionLeft,70,5545,3,23,0,23,0,1,,,,,,,,,,,,,,,,,,,,,,,,,,,,,,,,,,,,,,,
,,,,,,,64401b8dc61551f15637634b,2023-08-16_08h59.32.207,HF_wild_card,2022.2.4,Win32,143.8848921,64401b8dc61551f15637634b,64d2fd46c836a06233681665,64dc81accb858c8c1dc54714,,,,,,,decisionTrl,resources/DB.BMP,resources/DY.BMP,Door4,0.152777778,0.002777778,1,0,0,1.0121,optionRight,60,5605,3,24,0,24,0,1,,,,,,,,,,,,,,,,,,,,,,,,,,,,,,,,,,,,,,,
,,,,,,,64401b8dc61551f15637634b,2023-08-16_08h59.32.207,HF_wild_card,2022.2.4,Win32,143.8848921,64401b8dc61551f15637634b,64d2fd46c836a06233681665,64dc81accb858c8c1dc54714,,,,,,,sngl,resources/Empty.png,resources/DR.BMP,Door2,0.122222222,-0.00462963,1,0,0,0.7752,optionRight,20,5625,3,25,0,25,0,1,,,,,,,,,,,,,,,,,,,,,,,,,,,,,,,,,,,,,,,
,,,,,,,64401b8dc61551f15637634b,2023-08-16_08h59.32.207,HF_wild_card,2022.2.4,Win32,143.8848921,64401b8dc61551f15637634b,64d2fd46c836a06233681665,64dc81accb858c8c1dc54714,,,,,,,decisionTrl,resources/DB.BMP,resources/DBN.BMP,WildCard_NonEx,-0.147222222,-0.002777778,1,0,0,1.6721,optionLeft,55,5680,3,26,0,26,0,1,,,,,,,,,,,,,,,,,,,,,,,,,,,,,,,,,,,,,,,
,,,,,,,64401b8dc61551f15637634b,2023-08-16_08h59.32.207,HF_wild_card,2022.2.4,Win32,143.8848921,64401b8dc61551f15637634b,64d2fd46c836a06233681665,64dc81accb858c8c1dc54714,,,,,,,ctch,resources/DR.BMP,resources/DBN.BMP,Door2,-0.146296296,-0.018518519,1,0,0,1.1688,optionLeft,40,5720,3,27,0,27,0,1,,,,,,,,,,,,,,,,,,,,,,,,,,,,,,,,,,,,,,,
,,,,,,,64401b8dc61551f15637634b,2023-08-16_08h59.32.207,HF_wild_card,2022.2.4,Win32,143.8848921,64401b8dc61551f15637634b,64d2fd46c836a06233681665,64dc81accb858c8c1dc54714,,,,,,,ctch,resources/DG.BMP,resources/DY.BMP,Door4,0.164814815,-0.015740741,1,0,0,0.9664,optionRight,80,5800,3,28,0,28,0,1,,,,,,,,,,,,,,,,,,,,,,,,,,,,,,,,,,,,,,,
,,,,,,,64401b8dc61551f15637634b,2023-08-16_08h59.32.207,HF_wild_card,2022.2.4,Win32,143.8848921,64401b8dc61551f15637634b,64d2fd46c836a06233681665,64dc81accb858c8c1dc54714,,,,,,,ctch,resources/DBN.BMP,resources/DR.BMP,Door3,-0.214814815,-0.025,1,0,0,0.9606,optionLeft,70,5870,3,29,0,29,0,1,,,,,,,,,,,,,,,,,,,,,,,,,,,,,,,,,,,,,,,
,,,,,,,64401b8dc61551f15637634b,2023-08-16_08h59.32.207,HF_wild_card,2022.2.4,Win32,143.8848921,64401b8dc61551f15637634b,64d2fd46c836a06233681665,64dc81accb858c8c1dc54714,,,,,,,decisionTrl,resources/DG.BMP,resources/DR.BMP,Door2,0.143518519,-0.025,1,0,0,1.0724,optionRight,20,5890,3,30,0,30,0,1,,,,,,,,,,,,,,,,,,,,,,,,,,,,,,,,,,,,,,,
,,,,,,,64401b8dc61551f15637634b,2023-08-16_08h59.32.207,HF_wild_card,2022.2.4,Win32,143.8848921,64401b8dc61551f15637634b,64d2fd46c836a06233681665,64dc81accb858c8c1dc54714,,,,,,,decisionTrl,resources/DG.BMP,resources/DR.BMP,Door2,0.161111111,-0.037037037,1,0,0,0.8586,optionRight,20,5910,3,31,0,31,0,1,,,,,,,,,,,,,,,,,,,,,,,,,,,,,,,,,,,,,,,
,,,,,,,64401b8dc61551f15637634b,2023-08-16_08h59.32.207,HF_wild_card,2022.2.4,Win32,143.8848921,64401b8dc61551f15637634b,64d2fd46c836a06233681665,64dc81accb858c8c1dc54714,,,,,,,decisionTrl,resources/DG.BMP,resources/DR.BMP,Door2,0.134259259,-0.028703704,1,0,0,1.9647,optionRight,40,5950,3,32,0,32,0,1,,,,,,,,,,,,,,,,,,,,,,,,,,,,,,,,,,,,,,,
,,,,,,,64401b8dc61551f15637634b,2023-08-16_08h59.32.207,HF_wild_card,2022.2.4,Win32,143.8848921,64401b8dc61551f15637634b,64d2fd46c836a06233681665,64dc81accb858c8c1dc54714,,,,,,,sngl,resources/Empty.png,resources/DB.BMP,WildCard_NonEx,0.117592593,-0.031481481,1,0,0,0.9356,optionRight,55,6005,3,33,0,33,0,1,,,,,,,,,,,,,,,,,,,,,,,,,,,,,,,,,,,,,,,
,,,,,,,64401b8dc61551f15637634b,2023-08-16_08h59.32.207,HF_wild_card,2022.2.4,Win32,143.8848921,64401b8dc61551f15637634b,64d2fd46c836a06233681665,64dc81accb858c8c1dc54714,,,,,,,decisionTrl,resources/DR.BMP,resources/DG.BMP,Door2,-0.207407407,0.000925926,1,0,0,1.0271,optionLeft,20,6025,3,34,0,34,0,1,,,,,,,,,,,,,,,,,,,,,,,,,,,,,,,,,,,,,,,
,,,,,,,64401b8dc61551f15637634b,2023-08-16_08h59.32.207,HF_wild_card,2022.2.4,Win32,143.8848921,64401b8dc61551f15637634b,64d2fd46c836a06233681665,64dc81accb858c8c1dc54714,,,,,,,sngl,resources/DR.BMP,resources/Empty.png,Door2,-0.260185185,-0.000925926,1,0,0,0.8864,optionLeft,40,6065,3,35,0,35,0,1,,,,,,,,,,,,,,,,,,,,,,,,,,,,,,,,,,,,,,,
,,,,,,,64401b8dc61551f15637634b,2023-08-16_08h59.32.207,HF_wild_card,2022.2.4,Win32,143.8848921,64401b8dc61551f15637634b,64d2fd46c836a06233681665,64dc81accb858c8c1dc54714,,,,,,,decisionTrl,resources/DY.BMP,resources/DBN.BMP,Door4,-0.215740741,0.032407407,1,0,0,1.1998,optionLeft,60,6125,3,36,0,36,0,1,,,,,,,,,,,,,,,,,,,,,,,,,,,,,,,,,,,,,,,
,,,,,,,64401b8dc61551f15637634b,2023-08-16_08h59.32.207,HF_wild_card,2022.2.4,Win32,143.8848921,64401b8dc61551f15637634b,64d2fd46c836a06233681665,64dc81accb858c8c1dc54714,,,,,,,ctch,resources/DY.BMP,resources/DG.BMP,Door4,-0.137962963,0.002777778,1,0,0,0.876,optionLeft,60,6185,3,37,0,37,0,1,,,,,,,,,,,,,,,,,,,,,,,,,,,,,,,,,,,,,,,
,,,,,,,64401b8dc61551f15637634b,2023-08-16_08h59.32.207,HF_wild_card,2022.2.4,Win32,143.8848921,64401b8dc61551f15637634b,64d2fd46c836a06233681665,64dc81accb858c8c1dc54714,,,,,,,ctch,resources/DBN.BMP,resources/DR.BMP,Door2,0.194444444,-0.002777778,1,0,0,1.1944,optionRight,40,6225,3,38,0,38,0,1,,,,,,,,,,,,,,,,,,,,,,,,,,,,,,,,,,,,,,,
,,,,,,,64401b8dc61551f15637634b,2023-08-16_08h59.32.207,HF_wild_card,2022.2.4,Win32,143.8848921,64401b8dc61551f15637634b,64d2fd46c836a06233681665,64dc81accb858c8c1dc54714,,,,,,,sngl,resources/DG.BMP,resources/Empty.png,Door1,-0.15,0.000925926,1,0,0,0.9907,optionLeft,30,6255,3,39,0,39,0,1,,,,,,,,,,,,,,,,,,,,,,,,,,,,,,,,,,,,,,,
,,,,,,,64401b8dc61551f15637634b,2023-08-16_08h59.32.207,HF_wild_card,2022.2.4,Win32,143.8848921,64401b8dc61551f15637634b,64d2fd46c836a06233681665,64dc81accb858c8c1dc54714,,,,,,,decisionTrl,resources/DY.BMP,resources/DBN.BMP,Door4,-0.166666667,0.001851852,1,0,0,0.9207,optionLeft,80,6335,3,40,0,40,0,1,,,,,,,,,,,,,,,,,,,,,,,,,,,,,,,,,,,,,,,
,,,,,,,64401b8dc61551f15637634b,2023-08-16_08h59.32.207,HF_wild_card,2022.2.4,Win32,143.8848921,64401b8dc61551f15637634b,64d2fd46c836a06233681665,64dc81accb858c8c1dc54714,,,,,,,sngl,resources/Empty.png,resources/DY.BMP,Door4,0.163888889,-0.047222222,1,0,0,0.8693,optionRight,60,6395,3,41,0,41,0,1,,,,,,,,,,,,,,,,,,,,,,,,,,,,,,,,,,,,,,,
,,,,,,,64401b8dc61551f15637634b,2023-08-16_08h59.32.207,HF_wild_card,2022.2.4,Win32,143.8848921,64401b8dc61551f15637634b,64d2fd46c836a06233681665,64dc81accb858c8c1dc54714,,,,,,,sngl,resources/Empty.png,resources/DG.BMP,Door1,0.15462963,-0.018518519,1,0,0,0.8801,optionRight,30,6425,3,42,0,42,0,1,,,,,,,,,,,,,,,,,,,,,,,,,,,,,,,,,,,,,,,
,,,,,,,64401b8dc61551f15637634b,2023-08-16_08h59.32.207,HF_wild_card,2022.2.4,Win32,143.8848921,64401b8dc61551f15637634b,64d2fd46c836a06233681665,64dc81accb858c8c1dc54714,,,,,,,sngl,resources/DB.BMP,resources/Empty.png,WildCard_NonEx,-0.206481481,-0.001851852,1,0,0,0.8644,optionLeft,55,6480,3,43,0,43,0,1,,,,,,,,,,,,,,,,,,,,,,,,,,,,,,,,,,,,,,,
,,,,,,,64401b8dc61551f15637634b,2023-08-16_08h59.32.207,HF_wild_card,2022.2.4,Win32,143.8848921,64401b8dc61551f15637634b,64d2fd46c836a06233681665,64dc81accb858c8c1dc54714,,,,,,,,,,,,,,,,,,,,,,,,,,2,0,2,0,1,,,,,,,,,,,,,,,,,,,,,,,,,,,,,,,,,,
,,,,,,,64401b8dc61551f15637634b,2023-08-16_08h59.32.207,HF_wild_card,2022.2.4,Win32,143.8848921,64401b8dc61551f15637634b,64d2fd46c836a06233681665,64dc81accb858c8c1dc54714,,,,,,,decisionTrl,resources/DY.BMP,resources/DBN.BMP,Door4,-0.165740741,-0.127777778,1,0,0,1.0025,optionLeft,80,6560,4,0,0,0,0,1,,,,,,,,,,,,,,,,,,,,,,,,,,,,,,,,,,,,,,,
,,,,,,,64401b8dc61551f15637634b,2023-08-16_08h59.32.207,HF_wild_card,2022.2.4,Win32,143.8848921,64401b8dc61551f15637634b,64d2fd46c836a06233681665,64dc81accb858c8c1dc54714,,,,,,,decisionTrl,resources/DP.BMP,resources/DR.BMP,WildCard_Ex,-0.139814815,0.007407407,1,0,0,1.2372,optionLeft,5,6565,4,1,0,1,0,1,,,,,,,,,,,,,,,,,,,,,,,,,,,,,,,,,,,,,,,
,,,,,,,64401b8dc61551f15637634b,2023-08-16_08h59.32.207,HF_wild_card,2022.2.4,Win32,143.8848921,64401b8dc61551f15637634b,64d2fd46c836a06233681665,64dc81accb858c8c1dc54714,,,,,,,decisionTrl,resources/DR.BMP,resources/DP.BMP,WildCard_Ex,0.165740741,-0.038888889,1,0,0,0.9938,optionRight,95,6660,4,2,0,2,0,1,,,,,,,,,,,,,,,,,,,,,,,,,,,,,,,,,,,,,,,
,,,,,,,64401b8dc61551f15637634b,2023-08-16_08h59.32.207,HF_wild_card,2022.2.4,Win32,143.8848921,64401b8dc61551f15637634b,64d2fd46c836a06233681665,64dc81accb858c8c1dc54714,,,,,,,decisionTrl,resources/DG.BMP,resources/DR.BMP,Door2,0.131481481,0.005555556,1,0,0,1.2751,optionRight,40,6700,4,3,0,3,0,1,,,,,,,,,,,,,,,,,,,,,,,,,,,,,,,,,,,,,,,
,,,,,,,64401b8dc61551f15637634b,2023-08-16_08h59.32.207,HF_wild_card,2022.2.4,Win32,143.8848921,64401b8dc61551f15637634b,64d2fd46c836a06233681665,64dc81accb858c8c1dc54714,,,,,,,sngl,resources/Empty.png,resources/DBN.BMP,Door3,0.133333333,-0.032407407,1,0,0,1.0741,optionRight,70,6770,4,4,0,4,0,1,,,,,,,,,,,,,,,,,,,,,,,,,,,,,,,,,,,,,,,
,,,,,,,64401b8dc61551f15637634b,2023-08-16_08h59.32.207,HF_wild_card,2022.2.4,Win32,143.8848921,64401b8dc61551f15637634b,64d2fd46c836a06233681665,64dc81accb858c8c1dc54714,,,,,,,decisionTrl,resources/DG.BMP,resources/DR.BMP,Door2,0.168518519,-0.016666667,1,0,0,0.9991,optionRight,40,6810,4,5,0,5,0,1,,,,,,,,,,,,,,,,,,,,,,,,,,,,,,,,,,,,,,,
,,,,,,,64401b8dc61551f15637634b,2023-08-16_08h59.32.207,HF_wild_card,2022.2.4,Win32,143.8848921,64401b8dc61551f15637634b,64d2fd46c836a06233681665,64dc81accb858c8c1dc54714,,,,,,,decisionTrl,resources/DY.BMP,resources/DP.BMP,WildCard_Ex,0.201851852,-0.028703704,1,0,0,0.9699,optionRight,5,6815,4,6,0,6,0,1,,,,,,,,,,,,,,,,,,,,,,,,,,,,,,,,,,,,,,,
,,,,,,,64401b8dc61551f15637634b,2023-08-16_08h59.32.207,HF_wild_card,2022.2.4,Win32,143.8848921,64401b8dc61551f15637634b,64d2fd46c836a06233681665,64dc81accb858c8c1dc54714,,,,,,,decisionTrl,resources/DG.BMP,resources/DP.BMP,WildCard_Ex,0.176851852,-0.028703704,1,0,0,0.9855,optionRight,95,6910,4,7,0,7,0,1,,,,,,,,,,,,,,,,,,,,,,,,,,,,,,,,,,,,,,,
,,,,,,,64401b8dc61551f15637634b,2023-08-16_08h59.32.207,HF_wild_card,2022.2.4,Win32,143.8848921,64401b8dc61551f15637634b,64d2fd46c836a06233681665,64dc81accb858c8c1dc54714,,,,,,,decisionTrl,resources/DBN.BMP,resources/DY.BMP,Door4,0.125,-0.052777778,1,0,0,1.0991,optionRight,60,6970,4,8,0,8,0,1,,,,,,,,,,,,,,,,,,,,,,,,,,,,,,,,,,,,,,,
,,,,,,,64401b8dc61551f15637634b,2023-08-16_08h59.32.207,HF_wild_card,2022.2.4,Win32,143.8848921,64401b8dc61551f15637634b,64d2fd46c836a06233681665,64dc81accb858c8c1dc54714,,,,,,,ctch,resources/DG.BMP,resources/DY.BMP,Door4,0.133333333,-0.026851852,1,0,0,0.9654,optionRight,60,7030,4,9,0,9,0,1,,,,,,,,,,,,,,,,,,,,,,,,,,,,,,,,,,,,,,,
,,,,,,,64401b8dc61551f15637634b,2023-08-16_08h59.32.207,HF_wild_card,2022.2.4,Win32,143.8848921,64401b8dc61551f15637634b,64d2fd46c836a06233681665,64dc81accb858c8c1dc54714,,,,,,,ctch,resources/DBN.BMP,resources/DR.BMP,Door2,0.157407407,-0.050925926,1,0,0,2.5827,optionRight,20,7050,4,10,0,10,0,1,,,,,,,,,,,,,,,,,,,,,,,,,,,,,,,,,,,,,,,
,,,,,,,64401b8dc61551f15637634b,2023-08-16_08h59.32.207,HF_wild_card,2022.2.4,Win32,143.8848921,64401b8dc61551f15637634b,64d2fd46c836a06233681665,64dc81accb858c8c1dc54714,,,,,,,decisionTrl,resources/DP.BMP,resources/DBN.BMP,Door3,0.188888889,-0.037037037,1,0,0,0.928,optionRight,70,7120,4,11,0,11,0,1,,,,,,,,,,,,,,,,,,,,,,,,,,,,,,,,,,,,,,,
,,,,,,,64401b8dc61551f15637634b,2023-08-16_08h59.32.207,HF_wild_card,2022.2.4,Win32,143.8848921,64401b8dc61551f15637634b,64d2fd46c836a06233681665,64dc81accb858c8c1dc54714,,,,,,,ctch,resources/DR.BMP,resources/DBN.BMP,Door2,-0.158333333,-0.025,1,0,0,1.0459,optionLeft,40,7160,4,12,0,12,0,1,,,,,,,,,,,,,,,,,,,,,,,,,,,,,,,,,,,,,,,
,,,,,,,64401b8dc61551f15637634b,2023-08-16_08h59.32.207,HF_wild_card,2022.2.4,Win32,143.8848921,64401b8dc61551f15637634b,64d2fd46c836a06233681665,64dc81accb858c8c1dc54714,,,,,,,decisionTrl,resources/DY.BMP,resources/DBN.BMP,Door4,-0.175925926,-0.016666667,1,0,0,0.9615,optionLeft,80,7240,4,13,0,13,0,1,,,,,,,,,,,,,,,,,,,,,,,,,,,,,,,,,,,,,,,
,,,,,,,64401b8dc61551f15637634b,2023-08-16_08h59.32.207,HF_wild_card,2022.2.4,Win32,143.8848921,64401b8dc61551f15637634b,64d2fd46c836a06233681665,64dc81accb858c8c1dc54714,,,,,,,sngl,resources/DG.BMP,resources/Empty.png,Door1,-0.165740741,-0.019444444,1,0,0,0.9228,optionLeft,30,7270,4,14,0,14,0,1,,,,,,,,,,,,,,,,,,,,,,,,,,,,,,,,,,,,,,,
,,,,,,,64401b8dc61551f15637634b,2023-08-16_08h59.32.207,HF_wild_card,2022.2.4,Win32,143.8848921,64401b8dc61551f15637634b,64d2fd46c836a06233681665,64dc81accb858c8c1dc54714,,,,,,,ctch,resources/DR.BMP,resources/DBN.BMP,Door2,-0.211111111,-0.032407407,1,0,0,0.9631,optionLeft,40,7310,4,15,0,15,0,1,,,,,,,,,,,,,,,,,,,,,,,,,,,,,,,,,,,,,,,
,,,,,,,64401b8dc61551f15637634b,2023-08-16_08h59.32.207,HF_wild_card,2022.2.4,Win32,143.8848921,64401b8dc61551f15637634b,64d2fd46c836a06233681665,64dc81accb858c8c1dc54714,,,,,,,sngl,resources/DBN.BMP,resources/Empty.png,Door3,-0.172222222,-0.000925926,1,0,0,0.8479,optionLeft,70,7380,4,16,0,16,0,1,,,,,,,,,,,,,,,,,,,,,,,,,,,,,,,,,,,,,,,
,,,,,,,64401b8dc61551f15637634b,2023-08-16_08h59.32.207,HF_wild_card,2022.2.4,Win32,143.8848921,64401b8dc61551f15637634b,64d2fd46c836a06233681665,64dc81accb858c8c1dc54714,,,,,,,sngl,resources/Empty.png,resources/DY.BMP,Door4,0.134259259,-0.053703704,1,0,0,0.9212,optionRight,80,7460,4,17,0,17,0,1,,,,,,,,,,,,,,,,,,,,,,,,,,,,,,,,,,,,,,,
,,,,,,,64401b8dc61551f15637634b,2023-08-16_08h59.32.207,HF_wild_card,2022.2.4,Win32,143.8848921,64401b8dc61551f15637634b,64d2fd46c836a06233681665,64dc81accb858c8c1dc54714,,,,,,,sngl,resources/DP.BMP,resources/Empty.png,WildCard_Ex,-0.177777778,0.010185185,1,0,0,0.851,optionLeft,5,7465,4,18,0,18,0,1,,,,,,,,,,,,,,,,,,,,,,,,,,,,,,,,,,,,,,,
,,,,,,,64401b8dc61551f15637634b,2023-08-16_08h59.32.207,HF_wild_card,2022.2.4,Win32,143.8848921,64401b8dc61551f15637634b,64d2fd46c836a06233681665,64dc81accb858c8c1dc54714,,,,,,,sngl,resources/DR.BMP,resources/Empty.png,Door2,-0.168518519,-0.010185185,1,0,0,0.8939,optionLeft,20,7485,4,19,0,19,0,1,,,,,,,,,,,,,,,,,,,,,,,,,,,,,,,,,,,,,,,
,,,,,,,64401b8dc61551f15637634b,2023-08-16_08h59.32.207,HF_wild_card,2022.2.4,Win32,143.8848921,64401b8dc61551f15637634b,64d2fd46c836a06233681665,64dc81accb858c8c1dc54714,,,,,,,decisionTrl,resources/DG.BMP,resources/DR.BMP,Door2,0.144444444,-0.027777778,1,0,0,1.1075,optionRight,40,7525,4,20,0,20,0,1,,,,,,,,,,,,,,,,,,,,,,,,,,,,,,,,,,,,,,,
,,,,,,,64401b8dc61551f15637634b,2023-08-16_08h59.32.207,HF_wild_card,2022.2.4,Win32,143.8848921,64401b8dc61551f15637634b,64d2fd46c836a06233681665,64dc81accb858c8c1dc54714,,,,,,,ctch,resources/DY.BMP,resources/DG.BMP,Door4,-0.203703704,-0.017592593,1,0,0,0.8935,optionLeft,80,7605,4,21,0,21,0,1,,,,,,,,,,,,,,,,,,,,,,,,,,,,,,,,,,,,,,,
,,,,,,,64401b8dc61551f15637634b,2023-08-16_08h59.32.207,HF_wild_card,2022.2.4,Win32,143.8848921,64401b8dc61551f15637634b,64d2fd46c836a06233681665,64dc81accb858c8c1dc54714,,,,,,,ctch,resources/DBN.BMP,resources/DR.BMP,Door2,0.149074074,-0.033333333,1,0,0,1.2123,optionRight,40,7645,4,22,0,22,0,1,,,,,,,,,,,,,,,,,,,,,,,,,,,,,,,,,,,,,,,
,,,,,,,64401b8dc61551f15637634b,2023-08-16_08h59.32.207,HF_wild_card,2022.2.4,Win32,143.8848921,64401b8dc61551f15637634b,64d2fd46c836a06233681665,64dc81accb858c8c1dc54714,,,,,,,decisionTrl,resources/DP.BMP,resources/DY.BMP,WildCard_Ex,-0.193518519,-0.02037037,0,0,1,0.8078,optionLeft,95,7740,4,23,0,23,0,1,,,,,,,,,,,,,,,,,,,,,,,,,,,,,,,,,,,,,,,
,,,,,,,64401b8dc61551f15637634b,2023-08-16_08h59.32.207,HF_wild_card,2022.2.4,Win32,143.8848921,64401b8dc61551f15637634b,64d2fd46c836a06233681665,64dc81accb858c8c1dc54714,,,,,,,sngl,resources/Empty.png,resources/DP.BMP,WildCard_Ex,0.125,-0.02962963,1,0,0,1.0465,optionRight,95,7835,4,24,0,24,0,1,,,,,,,,,,,,,,,,,,,,,,,,,,,,,,,,,,,,,,,
,,,,,,,64401b8dc61551f15637634b,2023-08-16_08h59.32.207,HF_wild_card,2022.2.4,Win32,143.8848921,64401b8dc61551f15637634b,64d2fd46c836a06233681665,64dc81accb858c8c1dc54714,,,,,,,decisionTrl,resources/DR.BMP,resources/DG.BMP,Door2,-0.201851852,-0.003703704,1,0,0,0.8459,optionLeft,20,7855,4,25,0,25,0,1,,,,,,,,,,,,,,,,,,,,,,,,,,,,,,,,,,,,,,,
,,,,,,,64401b8dc61551f15637634b,2023-08-16_08h59.32.207,HF_wild_card,2022.2.4,Win32,143.8848921,64401b8dc61551f15637634b,64d2fd46c836a06233681665,64dc81accb858c8c1dc54714,,,,,,,decisionTrl,resources/DBN.BMP,resources/DY.BMP,Door4,0.175925926,-0.025,1,0,0,0.879,optionRight,80,7935,4,26,0,26,0,1,,,,,,,,,,,,,,,,,,,,,,,,,,,,,,,,,,,,,,,
,,,,,,,64401b8dc61551f15637634b,2023-08-16_08h59.32.207,HF_wild_card,2022.2.4,Win32,143.8848921,64401b8dc61551f15637634b,64d2fd46c836a06233681665,64dc81accb858c8c1dc54714,,,,,,,sngl,resources/Empty.png,resources/DG.BMP,Door1,0.161111111,-0.002777778,1,0,0,0.8512,optionRight,30,7965,4,27,0,27,0,1,,,,,,,,,,,,,,,,,,,,,,,,,,,,,,,,,,,,,,,
,,,,,,,64401b8dc61551f15637634b,2023-08-16_08h59.32.207,HF_wild_card,2022.2.4,Win32,143.8848921,64401b8dc61551f15637634b,64d2fd46c836a06233681665,64dc81accb858c8c1dc54714,,,,,,,decisionTrl,resources/DR.BMP,resources/DG.BMP,Door2,-0.126851852,0.012037037,1,0,0,0.7928,optionLeft,20,7985,4,28,0,28,0,1,,,,,,,,,,,,,,,,,,,,,,,,,,,,,,,,,,,,,,,
,,,,,,,64401b8dc61551f15637634b,2023-08-16_08h59.32.207,HF_wild_card,2022.2.4,Win32,143.8848921,64401b8dc61551f15637634b,64d2fd46c836a06233681665,64dc81accb858c8c1dc54714,,,,,,,decisionTrl,resources/DR.BMP,resources/DG.BMP,Door2,-0.160185185,-0.006481481,1,0,0,1.0048,optionLeft,40,8025,4,29,0,29,0,1,,,,,,,,,,,,,,,,,,,,,,,,,,,,,,,,,,,,,,,
,,,,,,,64401b8dc61551f15637634b,2023-08-16_08h59.32.207,HF_wild_card,2022.2.4,Win32,143.8848921,64401b8dc61551f15637634b,64d2fd46c836a06233681665,64dc81accb858c8c1dc54714,,,,,,,decisionTrl,resources/DG.BMP,resources/DR.BMP,Door2,0.192592593,-0.031481481,1,0,0,1.1779,optionRight,40,8065,4,30,0,30,0,1,,,,,,,,,,,,,,,,,,,,,,,,,,,,,,,,,,,,,,,
,,,,,,,64401b8dc61551f15637634b,2023-08-16_08h59.32.207,HF_wild_card,2022.2.4,Win32,143.8848921,64401b8dc61551f15637634b,64d2fd46c836a06233681665,64dc81accb858c8c1dc54714,,,,,,,decisionTrl,resources/DY.BMP,resources/DBN.BMP,Door4,-0.142592593,0.005555556,0,0,1,0.9071,optionLeft,60,8125,4,31,0,31,0,1,,,,,,,,,,,,,,,,,,,,,,,,,,,,,,,,,,,,,,,
,,,,,,,64401b8dc61551f15637634b,2023-08-16_08h59.32.207,HF_wild_card,2022.2.4,Win32,143.8848921,64401b8dc61551f15637634b,64d2fd46c836a06233681665,64dc81accb858c8c1dc54714,,,,,,,decisionTrl,resources/DY.BMP,resources/DBN.BMP,Door4,-0.221296296,-0.05,1,0,0,1.1633,optionLeft,80,8205,4,32,0,32,0,1,,,,,,,,,,,,,,,,,,,,,,,,,,,,,,,,,,,,,,,
,,,,,,,64401b8dc61551f15637634b,2023-08-16_08h59.32.207,HF_wild_card,2022.2.4,Win32,143.8848921,64401b8dc61551f15637634b,64d2fd46c836a06233681665,64dc81accb858c8c1dc54714,,,,,,,sngl,resources/DY.BMP,resources/Empty.png,Door4,-0.20462963,-0.008333333,1,0,0,0.7828,optionLeft,60,8265,4,33,0,33,0,1,,,,,,,,,,,,,,,,,,,,,,,,,,,,,,,,,,,,,,,
,,,,,,,64401b8dc61551f15637634b,2023-08-16_08h59.32.207,HF_wild_card,2022.2.4,Win32,143.8848921,64401b8dc61551f15637634b,64d2fd46c836a06233681665,64dc81accb858c8c1dc54714,,,,,,,decisionTrl,resources/DBN.BMP,resources/DY.BMP,Door4,0.149074074,-0.039814815,1,0,0,0.8392,optionRight,60,8325,4,34,0,34,0,1,,,,,,,,,,,,,,,,,,,,,,,,,,,,,,,,,,,,,,,
,,,,,,,64401b8dc61551f15637634b,2023-08-16_08h59.32.207,HF_wild_card,2022.2.4,Win32,143.8848921,64401b8dc61551f15637634b,64d2fd46c836a06233681665,64dc81accb858c8c1dc54714,,,,,,,decisionTrl,resources/DP.BMP,resources/DG.BMP,WildCard_Ex,-0.159259259,-0.008333333,1,0,0,0.7842,optionLeft,5,8330,4,35,0,35,0,1,,,,,,,,,,,,,,,,,,,,,,,,,,,,,,,,,,,,,,,
,,,,,,,64401b8dc61551f15637634b,2023-08-16_08h59.32.207,HF_wild_card,2022.2.4,Win32,143.8848921,64401b8dc61551f15637634b,64d2fd46c836a06233681665,64dc81accb858c8c1dc54714,,,,,,,sngl,resources/Empty.png,resources/DR.BMP,Door2,0.175925926,-0.059259259,1,0,0,0.8431,optionRight,40,8370,4,36,0,36,0,1,,,,,,,,,,,,,,,,,,,,,,,,,,,,,,,,,,,,,,,
,,,,,,,64401b8dc61551f15637634b,2023-08-16_08h59.32.207,HF_wild_card,2022.2.4,Win32,143.8848921,64401b8dc61551f15637634b,64d2fd46c836a06233681665,64dc81accb858c8c1dc54714,,,,,,,decisionTrl,resources/DBN.BMP,resources/DP.BMP,WildCard_Ex,0.167592593,-0.024074074,1,0,0,0.8937,optionRight,95,8465,4,37,0,37,0,1,,,,,,,,,,,,,,,,,,,,,,,,,,,,,,,,,,,,,,,
,,,,,,,64401b8dc61551f15637634b,2023-08-16_08h59.32.207,HF_wild_card,2022.2.4,Win32,143.8848921,64401b8dc61551f15637634b,64d2fd46c836a06233681665,64dc81accb858c8c1dc54714,,,,,,,ctch,resources/DY.BMP,resources/DG.BMP,Door4,-0.172222222,-0.003703704,1,0,0,0.9565,optionLeft,80,8545,4,38,0,38,0,1,,,,,,,,,,,,,,,,,,,,,,,,,,,,,,,,,,,,,,,
,,,,,,,64401b8dc61551f15637634b,2023-08-16_08h59.32.207,HF_wild_card,2022.2.4,Win32,143.8848921,64401b8dc61551f15637634b,64d2fd46c836a06233681665,64dc81accb858c8c1dc54714,,,,,,,sngl,resources/DP.BMP,resources/Empty.png,WildCard_Ex,-0.146296296,-0.003703704,1,0,0,0.9996,optionLeft,95,8640,4,39,0,39,0,1,,,,,,,,,,,,,,,,,,,,,,,,,,,,,,,,,,,,,,,
,,,,,,,64401b8dc61551f15637634b,2023-08-16_08h59.32.207,HF_wild_card,2022.2.4,Win32,143.8848921,64401b8dc61551f15637634b,64d2fd46c836a06233681665,64dc81accb858c8c1dc54714,,,,,,,sngl,resources/Empty.png,resources/DP.BMP,WildCard_Ex,0.239814815,-0.078703704,1,0,0,0.9495,optionRight,5,8645,4,40,0,40,0,1,,,,,,,,,,,,,,,,,,,,,,,,,,,,,,,,,,,,,,,
,,,,,,,64401b8dc61551f15637634b,2023-08-16_08h59.32.207,HF_wild_card,2022.2.4,Win32,143.8848921,64401b8dc61551f15637634b,64d2fd46c836a06233681665,64dc81accb858c8c1dc54714,,,,,,,decisionTrl,resources/DR.BMP,resources/DG.BMP,Door2,-0.17962963,0.001851852,1,0,0,0.7825,optionLeft,20,8665,4,41,0,41,0,1,,,,,,,,,,,,,,,,,,,,,,,,,,,,,,,,,,,,,,,
,,,,,,,64401b8dc61551f15637634b,2023-08-16_08h59.32.207,HF_wild_card,2022.2.4,Win32,143.8848921,64401b8dc61551f15637634b,64d2fd46c836a06233681665,64dc81accb858c8c1dc54714,,,,,,,ctch,resources/DG.BMP,resources/DY.BMP,Door4,0.156481481,-0.017592593,1,0,0,1.5606,optionRight,60,8725,4,42,0,42,0,1,,,,,,,,,,,,,,,,,,,,,,,,,,,,,,,,,,,,,,,
,,,,,,,64401b8dc61551f15637634b,2023-08-16_08h59.32.207,HF_wild_card,2022.2.4,Win32,143.8848921,64401b8dc61551f15637634b,64d2fd46c836a06233681665,64dc81accb858c8c1dc54714,,,,,,,decisionTrl,resources/DBN.BMP,resources/DY.BMP,Door4,0.172222222,-0.025925926,1,0,0,3.2128,optionRight,60,8785,4,43,0,43,0,1,,,,,,,,,,,,,,,,,,,,,,,,,,,,,,,,,,,,,,,
,,,,,,,64401b8dc61551f15637634b,2023-08-16_08h59.32.207,HF_wild_card,2022.2.4,Win32,143.8848921,64401b8dc61551f15637634b,64d2fd46c836a06233681665,64dc81accb858c8c1dc54714,,,,,,,,,,,,,,,,,,,,,,,,,,3,0,3,0,1,,,,,,,,,,,,,,,,,,,,,,,,,,,,,,,,,,
,,,,,,,64401b8dc61551f15637634b,2023-08-16_08h59.32.207,HF_wild_card,2022.2.4,Win32,143.8848921,64401b8dc61551f15637634b,64d2fd46c836a06233681665,64dc81accb858c8c1dc54714,,,,,,,ctch,resources/DY.BMP,resources/DG.BMP,Door4,-0.17962963,-0.041666667,1,0,0,1.1006,optionLeft,80,8865,5,0,0,0,0,1,,,,,,,,,,,,,,,,,,,,,,,,,,,,,,,,,,,,,,,
,,,,,,,64401b8dc61551f15637634b,2023-08-16_08h59.32.207,HF_wild_card,2022.2.4,Win32,143.8848921,64401b8dc61551f15637634b,64d2fd46c836a06233681665,64dc81accb858c8c1dc54714,,,,,,,decisionTrl,resources/DBN.BMP,resources/DY.BMP,Door4,0.249074074,-0.048148148,1,0,0,0.8529,optionRight,80,8945,5,1,0,1,0,1,,,,,,,,,,,,,,,,,,,,,,,,,,,,,,,,,,,,,,,
,,,,,,,64401b8dc61551f15637634b,2023-08-16_08h59.32.207,HF_wild_card,2022.2.4,Win32,143.8848921,64401b8dc61551f15637634b,64d2fd46c836a06233681665,64dc81accb858c8c1dc54714,,,,,,,sngl,resources/DBN.BMP,resources/Empty.png,Door3,-0.162962963,0.015740741,1,0,0,0.8728,optionLeft,70,9015,5,2,0,2,0,1,,,,,,,,,,,,,,,,,,,,,,,,,,,,,,,,,,,,,,,
,,,,,,,64401b8dc61551f15637634b,2023-08-16_08h59.32.207,HF_wild_card,2022.2.4,Win32,143.8848921,64401b8dc61551f15637634b,64d2fd46c836a06233681665,64dc81accb858c8c1dc54714,,,,,,,decisionTrl,resources/DG.BMP,resources/DR.BMP,Door2,0.143518519,-0.030555556,1,0,0,0.8892,optionRight,20,9035,5,3,0,3,0,1,,,,,,,,,,,,,,,,,,,,,,,,,,,,,,,,,,,,,,,
,,,,,,,64401b8dc61551f15637634b,2023-08-16_08h59.32.207,HF_wild_card,2022.2.4,Win32,143.8848921,64401b8dc61551f15637634b,64d2fd46c836a06233681665,64dc81accb858c8c1dc54714,,,,,,,sngl,resources/DG.BMP,resources/Empty.png,Door1,-0.183333333,-0.010185185,1,0,0,0.8097,optionLeft,30,9065,5,4,0,4,0,1,,,,,,,,,,,,,,,,,,,,,,,,,,,,,,,,,,,,,,,
,,,,,,,64401b8dc61551f15637634b,2023-08-16_08h59.32.207,HF_wild_card,2022.2.4,Win32,143.8848921,64401b8dc61551f15637634b,64d2fd46c836a06233681665,64dc81accb858c8c1dc54714,,,,,,,sngl,resources/Empty.png,resources/DR.BMP,Door2,0.150925926,-0.058333333,1,0,0,0.8267,optionRight,20,9085,5,5,0,5,0,1,,,,,,,,,,,,,,,,,,,,,,,,,,,,,,,,,,,,,,,
,,,,,,,64401b8dc61551f15637634b,2023-08-16_08h59.32.207,HF_wild_card,2022.2.4,Win32,143.8848921,64401b8dc61551f15637634b,64d2fd46c836a06233681665,64dc81accb858c8c1dc54714,,,,,,,decisionTrl,resources/DBN.BMP,resources/DY.BMP,Door4,0.113888889,-0.014814815,1,0,0,0.7982,optionRight,60,9145,5,6,0,6,0,1,,,,,,,,,,,,,,,,,,,,,,,,,,,,,,,,,,,,,,,
,,,,,,,64401b8dc61551f15637634b,2023-08-16_08h59.32.207,HF_wild_card,2022.2.4,Win32,143.8848921,64401b8dc61551f15637634b,64d2fd46c836a06233681665,64dc81accb858c8c1dc54714,,,,,,,ctch,resources/DG.BMP,resources/DY.BMP,Door4,0.15,-0.037037037,1,0,0,0.8524,optionRight,80,9225,5,7,0,7,0,1,,,,,,,,,,,,,,,,,,,,,,,,,,,,,,,,,,,,,,,
,,,,,,,64401b8dc61551f15637634b,2023-08-16_08h59.32.207,HF_wild_card,2022.2.4,Win32,143.8848921,64401b8dc61551f15637634b,64d2fd46c836a06233681665,64dc81accb858c8c1dc54714,,,,,,,ctch,resources/DBN.BMP,resources/DR.BMP,Door2,0.185185185,-0.055555556,1,0,0,0.7499,optionRight,20,9245,5,8,0,8,0,1,,,,,,,,,,,,,,,,,,,,,,,,,,,,,,,,,,,,,,,
,,,,,,,64401b8dc61551f15637634b,2023-08-16_08h59.32.207,HF_wild_card,2022.2.4,Win32,143.8848921,64401b8dc61551f15637634b,64d2fd46c836a06233681665,64dc81accb858c8c1dc54714,,,,,,,sngl,resources/Empty.png,resources/DG.BMP,Door1,0.214814815,-0.046296296,1,0,0,0.7452,optionRight,30,9275,5,9,0,9,0,1,,,,,,,,,,,,,,,,,,,,,,,,,,,,,,,,,,,,,,,
,,,,,,,64401b8dc61551f15637634b,2023-08-16_08h59.32.207,HF_wild_card,2022.2.4,Win32,143.8848921,64401b8dc61551f15637634b,64d2fd46c836a06233681665,64dc81accb858c8c1dc54714,,,,,,,sngl,resources/Empty.png,resources/DBN.BMP,Door3,0.225,-0.046296296,1,0,0,0.793,optionRight,70,9345,5,10,0,10,0,1,,,,,,,,,,,,,,,,,,,,,,,,,,,,,,,,,,,,,,,
,,,,,,,64401b8dc61551f15637634b,2023-08-16_08h59.32.207,HF_wild_card,2022.2.4,Win32,143.8848921,64401b8dc61551f15637634b,64d2fd46c836a06233681665,64dc81accb858c8c1dc54714,,,,,,,decisionTrl,resources/DR.BMP,resources/DG.BMP,Door2,-0.191666667,-0.1,1,0,0,0.9586,optionLeft,20,9365,5,11,0,11,0,1,,,,,,,,,,,,,,,,,,,,,,,,,,,,,,,,,,,,,,,
,,,,,,,64401b8dc61551f15637634b,2023-08-16_08h59.32.207,HF_wild_card,2022.2.4,Win32,143.8848921,64401b8dc61551f15637634b,64d2fd46c836a06233681665,64dc81accb858c8c1dc54714,,,,,,,ctch,resources/DBN.BMP,resources/DR.BMP,Door2,0.128703704,-0.034259259,1,0,0,0.8699,optionRight,20,9385,5,12,0,12,0,1,,,,,,,,,,,,,,,,,,,,,,,,,,,,,,,,,,,,,,,
,,,,,,,64401b8dc61551f15637634b,2023-08-16_08h59.32.207,HF_wild_card,2022.2.4,Win32,143.8848921,64401b8dc61551f15637634b,64d2fd46c836a06233681665,64dc81accb858c8c1dc54714,,,,,,,ctch,resources/DG.BMP,resources/DY.BMP,Door4,0.121296296,-0.026851852,1,0,0,0.8934,optionRight,60,9445,5,13,0,13,0,1,,,,,,,,,,,,,,,,,,,,,,,,,,,,,,,,,,,,,,,
,,,,,,,64401b8dc61551f15637634b,2023-08-16_08h59.32.207,HF_wild_card,2022.2.4,Win32,143.8848921,64401b8dc61551f15637634b,64d2fd46c836a06233681665,64dc81accb858c8c1dc54714,,,,,,,decisionTrl,resources/DP.BMP,resources/DBN.BMP,WildCard_Ex,-0.280555556,-0.025,1,0,0,0.7894,optionLeft,95,9540,5,14,0,14,0,1,,,,,,,,,,,,,,,,,,,,,,,,,,,,,,,,,,,,,,,
,,,,,,,64401b8dc61551f15637634b,2023-08-16_08h59.32.207,HF_wild_card,2022.2.4,Win32,143.8848921,64401b8dc61551f15637634b,64d2fd46c836a06233681665,64dc81accb858c8c1dc54714,,,,,,,sngl,resources/DR.BMP,resources/Empty.png,Door2,-0.260185185,-0.02962963,1,0,0,0.926,optionLeft,40,9580,5,15,0,15,0,1,,,,,,,,,,,,,,,,,,,,,,,,,,,,,,,,,,,,,,,
,,,,,,,64401b8dc61551f15637634b,2023-08-16_08h59.32.207,HF_wild_card,2022.2.4,Win32,143.8848921,64401b8dc61551f15637634b,64d2fd46c836a06233681665,64dc81accb858c8c1dc54714,,,,,,,decisionTrl,resources/DY.BMP,resources/DBN.BMP,Door4,-0.25,-0.025925926,1,0,0,0.8518,optionLeft,80,9660,5,16,0,16,0,1,,,,,,,,,,,,,,,,,,,,,,,,,,,,,,,,,,,,,,,
,,,,,,,64401b8dc61551f15637634b,2023-08-16_08h59.32.207,HF_wild_card,2022.2.4,Win32,143.8848921,64401b8dc61551f15637634b,64d2fd46c836a06233681665,64dc81accb858c8c1dc54714,,,,,,,decisionTrl,resources/DBN.BMP,resources/DY.BMP,Door4,0.160185185,-0.024074074,1,0,0,0.7835,optionRight,80,9740,5,17,0,17,0,1,,,,,,,,,,,,,,,,,,,,,,,,,,,,,,,,,,,,,,,
,,,,,,,64401b8dc61551f15637634b,2023-08-16_08h59.32.207,HF_wild_card,2022.2.4,Win32,143.8848921,64401b8dc61551f15637634b,64d2fd46c836a06233681665,64dc81accb858c8c1dc54714,,,,,,,decisionTrl,resources/DY.BMP,resources/DBN.BMP,Door4,-0.247222222,-0.022222222,1,0,0,0.8343,optionLeft,60,9800,5,18,0,18,0,1,,,,,,,,,,,,,,,,,,,,,,,,,,,,,,,,,,,,,,,
,,,,,,,64401b8dc61551f15637634b,2023-08-16_08h59.32.207,HF_wild_card,2022.2.4,Win32,143.8848921,64401b8dc61551f15637634b,64d2fd46c836a06233681665,64dc81accb858c8c1dc54714,,,,,,,decisionTrl,resources/DR.BMP,resources/DG.BMP,Door2,-0.27037037,-0.09537037,1,0,0,0.8551,optionLeft,20,9820,5,19,0,19,0,1,,,,,,,,,,,,,,,,,,,,,,,,,,,,,,,,,,,,,,,
,,,,,,,64401b8dc61551f15637634b,2023-08-16_08h59.32.207,HF_wild_card,2022.2.4,Win32,143.8848921,64401b8dc61551f15637634b,64d2fd46c836a06233681665,64dc81accb858c8c1dc54714,,,,,,,decisionTrl,resources/DP.BMP,resources/DG.BMP,WildCard_Ex,-0.361111111,-0.089814815,1,0,0,0.9093,optionLeft,95,9915,5,20,0,20,0,1,,,,,,,,,,,,,,,,,,,,,,,,,,,,,,,,,,,,,,,
,,,,,,,64401b8dc61551f15637634b,2023-08-16_08h59.32.207,HF_wild_card,2022.2.4,Win32,143.8848921,64401b8dc61551f15637634b,64d2fd46c836a06233681665,64dc81accb858c8c1dc54714,,,,,,,decisionTrl,resources/DR.BMP,resources/DP.BMP,WildCard_Ex,0.161111111,-0.00462963,1,0,0,1.3416,optionRight,5,9920,5,21,0,21,0,1,,,,,,,,,,,,,,,,,,,,,,,,,,,,,,,,,,,,,,,
,,,,,,,64401b8dc61551f15637634b,2023-08-16_08h59.32.207,HF_wild_card,2022.2.4,Win32,143.8848921,64401b8dc61551f15637634b,64d2fd46c836a06233681665,64dc81accb858c8c1dc54714,,,,,,,ctch,resources/DY.BMP,resources/DG.BMP,Door4,-0.149074074,-0.002777778,1,0,0,0.9137,optionLeft,60,9980,5,22,0,22,0,1,,,,,,,,,,,,,,,,,,,,,,,,,,,,,,,,,,,,,,,
,,,,,,,64401b8dc61551f15637634b,2023-08-16_08h59.32.207,HF_wild_card,2022.2.4,Win32,143.8848921,64401b8dc61551f15637634b,64d2fd46c836a06233681665,64dc81accb858c8c1dc54714,,,,,,,decisionTrl,resources/DY.BMP,resources/DBN.BMP,Door4,-0.168518519,-0.001851852,1,0,0,1.1709,optionLeft,80,10060,5,23,0,23,0,1,,,,,,,,,,,,,,,,,,,,,,,,,,,,,,,,,,,,,,,
,,,,,,,64401b8dc61551f15637634b,2023-08-16_08h59.32.207,HF_wild_card,2022.2.4,Win32,143.8848921,64401b8dc61551f15637634b,64d2fd46c836a06233681665,64dc81accb858c8c1dc54714,,,,,,,sngl,resources/Empty.png,resources/DP.BMP,WildCard_Ex,0.132407407,-0.014814815,1,0,0,0.8283,optionRight,5,10065,5,24,0,24,0,1,,,,,,,,,,,,,,,,,,,,,,,,,,,,,,,,,,,,,,,
,,,,,,,64401b8dc61551f15637634b,2023-08-16_08h59.32.207,HF_wild_card,2022.2.4,Win32,143.8848921,64401b8dc61551f15637634b,64d2fd46c836a06233681665,64dc81accb858c8c1dc54714,,,,,,,decisionTrl,resources/DG.BMP,resources/DR.BMP,Door2,0.165740741,-0.003703704,1,0,0,1.3797,optionRight,40,10105,5,25,0,25,0,1,,,,,,,,,,,,,,,,,,,,,,,,,,,,,,,,,,,,,,,
,,,,,,,64401b8dc61551f15637634b,2023-08-16_08h59.32.207,HF_wild_card,2022.2.4,Win32,143.8848921,64401b8dc61551f15637634b,64d2fd46c836a06233681665,64dc81accb858c8c1dc54714,,,,,,,decisionTrl,resources/DP.BMP,resources/DY.BMP,WildCard_Ex,-0.218518519,-0.008333333,1,0,0,1.1702,optionLeft,95,10200,5,26,0,26,0,1,,,,,,,,,,,,,,,,,,,,,,,,,,,,,,,,,,,,,,,
,,,,,,,64401b8dc61551f15637634b,2023-08-16_08h59.32.207,HF_wild_card,2022.2.4,Win32,143.8848921,64401b8dc61551f15637634b,64d2fd46c836a06233681665,64dc81accb858c8c1dc54714,,,,,,,decisionTrl,resources/DY.BMP,resources/DP.BMP,WildCard_Ex,0.151851852,-0.017592593,1,0,0,0.7888,optionRight,5,10205,5,27,0,27,0,1,,,,,,,,,,,,,,,,,,,,,,,,,,,,,,,,,,,,,,,
,,,,,,,64401b8dc61551f15637634b,2023-08-16_08h59.32.207,HF_wild_card,2022.2.4,Win32,143.8848921,64401b8dc61551f15637634b,64d2fd46c836a06233681665,64dc81accb858c8c1dc54714,,,,,,,decisionTrl,resources/DR.BMP,resources/DG.BMP,Door2,-0.187037037,-0.028703704,1,0,0,0.8563,optionLeft,40,10245,5,28,0,28,0,1,,,,,,,,,,,,,,,,,,,,,,,,,,,,,,,,,,,,,,,
,,,,,,,64401b8dc61551f15637634b,2023-08-16_08h59.32.207,HF_wild_card,2022.2.4,Win32,143.8848921,64401b8dc61551f15637634b,64d2fd46c836a06233681665,64dc81accb858c8c1dc54714,,,,,,,decisionTrl,resources/DG.BMP,resources/DR.BMP,Door2,0.14537037,-0.011111111,1,0,0,0.8312,optionRight,20,10265,5,29,0,29,0,1,,,,,,,,,,,,,,,,,,,,,,,,,,,,,,,,,,,,,,,
,,,,,,,64401b8dc61551f15637634b,2023-08-16_08h59.32.207,HF_wild_card,2022.2.4,Win32,143.8848921,64401b8dc61551f15637634b,64d2fd46c836a06233681665,64dc81accb858c8c1dc54714,,,,,,,decisionTrl,resources/DP.BMP,resources/DR.BMP,WildCard_Ex,-0.199074074,-0.011111111,1,0,0,0.7923,optionLeft,95,10360,5,30,0,30,0,1,,,,,,,,,,,,,,,,,,,,,,,,,,,,,,,,,,,,,,,
,,,,,,,64401b8dc61551f15637634b,2023-08-16_08h59.32.207,HF_wild_card,2022.2.4,Win32,143.8848921,64401b8dc61551f15637634b,64d2fd46c836a06233681665,64dc81accb858c8c1dc54714,,,,,,,sngl,resources/DP.BMP,resources/Empty.png,WildCard_Ex,-0.17037037,-0.025925926,1,0,0,0.8749,optionLeft,95,10455,5,31,0,31,0,1,,,,,,,,,,,,,,,,,,,,,,,,,,,,,,,,,,,,,,,
,,,,,,,64401b8dc61551f15637634b,2023-08-16_08h59.32.207,HF_wild_card,2022.2.4,Win32,143.8848921,64401b8dc61551f15637634b,64d2fd46c836a06233681665,64dc81accb858c8c1dc54714,,,,,,,sngl,resources/Empty.png,resources/DY.BMP,Door4,0.110185185,-0.012037037,1,0,0,0.8257,optionRight,60,10515,5,32,0,32,0,1,,,,,,,,,,,,,,,,,,,,,,,,,,,,,,,,,,,,,,,
,,,,,,,64401b8dc61551f15637634b,2023-08-16_08h59.32.207,HF_wild_card,2022.2.4,Win32,143.8848921,64401b8dc61551f15637634b,64d2fd46c836a06233681665,64dc81accb858c8c1dc54714,,,,,,,sngl,resources/DY.BMP,resources/Empty.png,Door4,-0.163888889,0.027777778,1,0,0,0.7847,optionLeft,80,10595,5,33,0,33,0,1,,,,,,,,,,,,,,,,,,,,,,,,,,,,,,,,,,,,,,,
,,,,,,,64401b8dc61551f15637634b,2023-08-16_08h59.32.207,HF_wild_card,2022.2.4,Win32,143.8848921,64401b8dc61551f15637634b,64d2fd46c836a06233681665,64dc81accb858c8c1dc54714,,,,,,,sngl,resources/Empty.png,resources/DP.BMP,WildCard_Ex,0.201851852,-0.047222222,1,0,0,0.7067,optionRight,95,10690,5,34,0,34,0,1,,,,,,,,,,,,,,,,,,,,,,,,,,,,,,,,,,,,,,,
,,,,,,,64401b8dc61551f15637634b,2023-08-16_08h59.32.207,HF_wild_card,2022.2.4,Win32,143.8848921,64401b8dc61551f15637634b,64d2fd46c836a06233681665,64dc81accb858c8c1dc54714,,,,,,,decisionTrl,resources/DBN.BMP,resources/DP.BMP,WildCard_Ex,0.125,-0.02037037,1,0,0,0.7765,optionRight,95,10785,5,35,0,35,0,1,,,,,,,,,,,,,,,,,,,,,,,,,,,,,,,,,,,,,,,
,,,,,,,64401b8dc61551f15637634b,2023-08-16_08h59.32.207,HF_wild_card,2022.2.4,Win32,143.8848921,64401b8dc61551f15637634b,64d2fd46c836a06233681665,64dc81accb858c8c1dc54714,,,,,,,decisionTrl,resources/DY.BMP,resources/DBN.BMP,Door4,-0.202777778,-0.014814815,1,0,0,0.8385,optionLeft,80,10865,5,36,0,36,0,1,,,,,,,,,,,,,,,,,,,,,,,,,,,,,,,,,,,,,,,
,,,,,,,64401b8dc61551f15637634b,2023-08-16_08h59.32.207,HF_wild_card,2022.2.4,Win32,143.8848921,64401b8dc61551f15637634b,64d2fd46c836a06233681665,64dc81accb858c8c1dc54714,,,,,,,decisionTrl,resources/DR.BMP,resources/DG.BMP,Door2,-0.17962963,-0.023148148,1,0,0,0.828,optionLeft,40,10905,5,37,0,37,0,1,,,,,,,,,,,,,,,,,,,,,,,,,,,,,,,,,,,,,,,
,,,,,,,64401b8dc61551f15637634b,2023-08-16_08h59.32.207,HF_wild_card,2022.2.4,Win32,143.8848921,64401b8dc61551f15637634b,64d2fd46c836a06233681665,64dc81accb858c8c1dc54714,,,,,,,decisionTrl,resources/DG.BMP,resources/DR.BMP,Door2,0.186111111,-0.055555556,1,0,0,0.7833,optionRight,40,10945,5,38,0,38,0,1,,,,,,,,,,,,,,,,,,,,,,,,,,,,,,,,,,,,,,,
,,,,,,,64401b8dc61551f15637634b,2023-08-16_08h59.32.207,HF_wild_card,2022.2.4,Win32,143.8848921,64401b8dc61551f15637634b,64d2fd46c836a06233681665,64dc81accb858c8c1dc54714,,,,,,,ctch,resources/DR.BMP,resources/DBN.BMP,Door2,-0.223148148,0.011111111,1,0,0,0.7899,optionLeft,20,10965,5,39,0,39,0,1,,,,,,,,,,,,,,,,,,,,,,,,,,,,,,,,,,,,,,,
,,,,,,,64401b8dc61551f15637634b,2023-08-16_08h59.32.207,HF_wild_card,2022.2.4,Win32,143.8848921,64401b8dc61551f15637634b,64d2fd46c836a06233681665,64dc81accb858c8c1dc54714,,,,,,,decisionTrl,resources/DG.BMP,resources/DP.BMP,WildCard_Ex,0.162037037,-0.009259259,1,0,0,0.7481,optionRight,5,10970,5,40,0,40,0,1,,,,,,,,,,,,,,,,,,,,,,,,,,,,,,,,,,,,,,,
,,,,,,,64401b8dc61551f15637634b,2023-08-16_08h59.32.207,HF_wild_card,2022.2.4,Win32,143.8848921,64401b8dc61551f15637634b,64d2fd46c836a06233681665,64dc81accb858c8c1dc54714,,,,,,,decisionTrl,resources/DBN.BMP,resources/DY.BMP,Door4,0.155555556,-0.006481481,1,0,0,0.748,optionRight,60,11030,5,41,0,41,0,1,,,,,,,,,,,,,,,,,,,,,,,,,,,,,,,,,,,,,,,
,,,,,,,64401b8dc61551f15637634b,2023-08-16_08h59.32.207,HF_wild_card,2022.2.4,Win32,143.8848921,64401b8dc61551f15637634b,64d2fd46c836a06233681665,64dc81accb858c8c1dc54714,,,,,,,sngl,resources/DP.BMP,resources/Empty.png,WildCard_Ex,-0.17962963,0.012037037,1,0,0,0.7833,optionLeft,5,11035,5,42,0,42,0,1,,,,,,,,,,,,,,,,,,,,,,,,,,,,,,,,,,,,,,,
,,,,,,,64401b8dc61551f15637634b,2023-08-16_08h59.32.207,HF_wild_card,2022.2.4,Win32,143.8848921,64401b8dc61551f15637634b,64d2fd46c836a06233681665,64dc81accb858c8c1dc54714,,,,,,,ctch,resources/DR.BMP,resources/DBN.BMP,Door2,-0.17037037,-0.030555556,1,0,0,0.8819,optionLeft,40,11075,5,43,0,43,0,1,,,,,,,,,,,,,,,,,,,,,,,,,,,,,,,,,,,,,,,
,,,,,,,64401b8dc61551f15637634b,2023-08-16_08h59.32.207,HF_wild_card,2022.2.4,Win32,143.8848921,64401b8dc61551f15637634b,64d2fd46c836a06233681665,64dc81accb858c8c1dc54714,,,,,,,,,,,,,,,,,,,,,,,,,,4,0,4,0,1,,,,,,,,,,,,,,,,,,,,,,,,,,,,,,,,,,
,,,,,,,64401b8dc61551f15637634b,2023-08-16_08h59.32.207,HF_wild_card,2022.2.4,Win32,143.8848921,64401b8dc61551f15637634b,64d2fd46c836a06233681665,64dc81accb858c8c1dc54714,,,,,,,sngl,resources/Empty.png,resources/DP.BMP,WildCard_Ex,0.230555556,-0.171296296,1,0,0,0.9481,optionRight,5,11080,6,0,0,0,0,1,,,,,,,,,,,,,,,,,,,,,,,,,,,,,,,,,,,,,,,
,,,,,,,64401b8dc61551f15637634b,2023-08-16_08h59.32.207,HF_wild_card,2022.2.4,Win32,143.8848921,64401b8dc61551f15637634b,64d2fd46c836a06233681665,64dc81accb858c8c1dc54714,,,,,,,decisionTrl,resources/DR.BMP,resources/DG.BMP,Door2,-0.210185185,0.012037037,1,0,0,0.7153,optionLeft,40,11120,6,1,0,1,0,1,,,,,,,,,,,,,,,,,,,,,,,,,,,,,,,,,,,,,,,
,,,,,,,64401b8dc61551f15637634b,2023-08-16_08h59.32.207,HF_wild_card,2022.2.4,Win32,143.8848921,64401b8dc61551f15637634b,64d2fd46c836a06233681665,64dc81accb858c8c1dc54714,,,,,,,ctch,resources/DG.BMP,resources/DY.BMP,Door4,0.168518519,-0.050925926,1,0,0,0.8387,optionRight,80,11200,6,2,0,2,0,1,,,,,,,,,,,,,,,,,,,,,,,,,,,,,,,,,,,,,,,
,,,,,,,64401b8dc61551f15637634b,2023-08-16_08h59.32.207,HF_wild_card,2022.2.4,Win32,143.8848921,64401b8dc61551f15637634b,64d2fd46c836a06233681665,64dc81accb858c8c1dc54714,,,,,,,decisionTrl,resources/DG.BMP,resources/DR.BMP,Door2,0.110185185,-0.023148148,1,0,0,0.7689,optionRight,20,11220,6,3,0,3,0,1,,,,,,,,,,,,,,,,,,,,,,,,,,,,,,,,,,,,,,,
,,,,,,,64401b8dc61551f15637634b,2023-08-16_08h59.32.207,HF_wild_card,2022.2.4,Win32,143.8848921,64401b8dc61551f15637634b,64d2fd46c836a06233681665,64dc81accb858c8c1dc54714,,,,,,,decisionTrl,resources/DY.BMP,resources/DBN.BMP,Door4,-0.255555556,-0.062962963,1,0,0,0.8242,optionLeft,60,11280,6,4,0,4,0,1,,,,,,,,,,,,,,,,,,,,,,,,,,,,,,,,,,,,,,,
,,,,,,,64401b8dc61551f15637634b,2023-08-16_08h59.32.207,HF_wild_card,2022.2.4,Win32,143.8848921,64401b8dc61551f15637634b,64d2fd46c836a06233681665,64dc81accb858c8c1dc54714,,,,,,,ctch,resources/DY.BMP,resources/DG.BMP,Door4,-0.302777778,-0.05,1,0,0,0.8168,optionLeft,60,11340,6,5,0,5,0,1,,,,,,,,,,,,,,,,,,,,,,,,,,,,,,,,,,,,,,,
,,,,,,,64401b8dc61551f15637634b,2023-08-16_08h59.32.207,HF_wild_card,2022.2.4,Win32,143.8848921,64401b8dc61551f15637634b,64d2fd46c836a06233681665,64dc81accb858c8c1dc54714,,,,,,,sngl,resources/Empty.png,resources/DR.BMP,Door2,0.107407407,-0.022222222,1,0,0,0.8276,optionRight,40,11380,6,6,0,6,0,1,,,,,,,,,,,,,,,,,,,,,,,,,,,,,,,,,,,,,,,
,,,,,,,64401b8dc61551f15637634b,2023-08-16_08h59.32.207,HF_wild_card,2022.2.4,Win32,143.8848921,64401b8dc61551f15637634b,64d2fd46c836a06233681665,64dc81accb858c8c1dc54714,,,,,,,sngl,resources/Empty.png,resources/DBN.BMP,Door3,0.092592593,0.005555556,1,0,0,0.8803,optionRight,70,11450,6,7,0,7,0,1,,,,,,,,,,,,,,,,,,,,,,,,,,,,,,,,,,,,,,,
,,,,,,,64401b8dc61551f15637634b,2023-08-16_08h59.32.207,HF_wild_card,2022.2.4,Win32,143.8848921,64401b8dc61551f15637634b,64d2fd46c836a06233681665,64dc81accb858c8c1dc54714,,,,,,,decisionTrl,resources/DP.BMP,resources/DG.BMP,WildCard_Ex,-0.205555556,-0.00462963,1,0,0,0.8524,optionLeft,95,11545,6,8,0,8,0,1,,,,,,,,,,,,,,,,,,,,,,,,,,,,,,,,,,,,,,,
,,,,,,,64401b8dc61551f15637634b,2023-08-16_08h59.32.207,HF_wild_card,2022.2.4,Win32,143.8848921,64401b8dc61551f15637634b,64d2fd46c836a06233681665,64dc81accb858c8c1dc54714,,,,,,,decisionTrl,resources/DG.BMP,resources/DR.BMP,Door2,0.182407407,-0.034259259,1,0,0,0.802,optionRight,20,11565,6,9,0,9,0,1,,,,,,,,,,,,,,,,,,,,,,,,,,,,,,,,,,,,,,,
,,,,,,,64401b8dc61551f15637634b,2023-08-16_08h59.32.207,HF_wild_card,2022.2.4,Win32,143.8848921,64401b8dc61551f15637634b,64d2fd46c836a06233681665,64dc81accb858c8c1dc54714,,,,,,,decisionTrl,resources/DR.BMP,resources/DG.BMP,Door2,-0.2,0.010185185,1,0,0,0.7272,optionLeft,20,11585,6,10,0,10,0,1,,,,,,,,,,,,,,,,,,,,,,,,,,,,,,,,,,,,,,,
,,,,,,,64401b8dc61551f15637634b,2023-08-16_08h59.32.207,HF_wild_card,2022.2.4,Win32,143.8848921,64401b8dc61551f15637634b,64d2fd46c836a06233681665,64dc81accb858c8c1dc54714,,,,,,,sngl,resources/DP.BMP,resources/Empty.png,WildCard_Ex,-0.251851852,0.018518519,1,0,0,0.7478,optionLeft,95,11680,6,11,0,11,0,1,,,,,,,,,,,,,,,,,,,,,,,,,,,,,,,,,,,,,,,
,,,,,,,64401b8dc61551f15637634b,2023-08-16_08h59.32.207,HF_wild_card,2022.2.4,Win32,143.8848921,64401b8dc61551f15637634b,64d2fd46c836a06233681665,64dc81accb858c8c1dc54714,,,,,,,decisionTrl,resources/DR.BMP,resources/DG.BMP,Door2,-0.203703704,-0.010185185,1,0,0,0.9703,optionLeft,20,11700,6,12,0,12,0,1,,,,,,,,,,,,,,,,,,,,,,,,,,,,,,,,,,,,,,,
,,,,,,,64401b8dc61551f15637634b,2023-08-16_08h59.32.207,HF_wild_card,2022.2.4,Win32,143.8848921,64401b8dc61551f15637634b,64d2fd46c836a06233681665,64dc81accb858c8c1dc54714,,,,,,,decisionTrl,resources/DY.BMP,resources/DP.BMP,WildCard_Ex,0.180555556,-0.04537037,1,0,0,0.7339,optionRight,95,11795,6,13,0,13,0,1,,,,,,,,,,,,,,,,,,,,,,,,,,,,,,,,,,,,,,,
,,,,,,,64401b8dc61551f15637634b,2023-08-16_08h59.32.207,HF_wild_card,2022.2.4,Win32,143.8848921,64401b8dc61551f15637634b,64d2fd46c836a06233681665,64dc81accb858c8c1dc54714,,,,,,,sngl,resources/DP.BMP,resources/Empty.png,WildCard_Ex,-0.202777778,-0.001851852,1,0,0,0.6992,optionLeft,5,11800,6,14,0,14,0,1,,,,,,,,,,,,,,,,,,,,,,,,,,,,,,,,,,,,,,,
,,,,,,,64401b8dc61551f15637634b,2023-08-16_08h59.32.207,HF_wild_card,2022.2.4,Win32,143.8848921,64401b8dc61551f15637634b,64d2fd46c836a06233681665,64dc81accb858c8c1dc54714,,,,,,,decisionTrl,resources/DY.BMP,resources/DBN.BMP,Door4,-0.222222222,-0.014814815,1,0,0,0.8904,optionLeft,80,11880,6,15,0,15,0,1,,,,,,,,,,,,,,,,,,,,,,,,,,,,,,,,,,,,,,,
,,,,,,,64401b8dc61551f15637634b,2023-08-16_08h59.32.207,HF_wild_card,2022.2.4,Win32,143.8848921,64401b8dc61551f15637634b,64d2fd46c836a06233681665,64dc81accb858c8c1dc54714,,,,,,,decisionTrl,resources/DBN.BMP,resources/DY.BMP,Door4,0.219444444,-0.027777778,1,0,0,0.9774,optionRight,60,11940,6,16,0,16,0,1,,,,,,,,,,,,,,,,,,,,,,,,,,,,,,,,,,,,,,,
,,,,,,,64401b8dc61551f15637634b,2023-08-16_08h59.32.207,HF_wild_card,2022.2.4,Win32,143.8848921,64401b8dc61551f15637634b,64d2fd46c836a06233681665,64dc81accb858c8c1dc54714,,,,,,,decisionTrl,resources/DBN.BMP,resources/DY.BMP,Door4,0.144444444,-0.019444444,1,0,0,0.8664,optionRight,80,12020,6,17,0,17,0,1,,,,,,,,,,,,,,,,,,,,,,,,,,,,,,,,,,,,,,,
,,,,,,,64401b8dc61551f15637634b,2023-08-16_08h59.32.207,HF_wild_card,2022.2.4,Win32,143.8848921,64401b8dc61551f15637634b,64d2fd46c836a06233681665,64dc81accb858c8c1dc54714,,,,,,,decisionTrl,resources/DBN.BMP,resources/DY.BMP,Door4,0.252777778,-0.044444444,1,0,0,1.0192,optionRight,60,12080,6,18,0,18,0,1,,,,,,,,,,,,,,,,,,,,,,,,,,,,,,,,,,,,,,,
,,,,,,,64401b8dc61551f15637634b,2023-08-16_08h59.32.207,HF_wild_card,2022.2.4,Win32,143.8848921,64401b8dc61551f15637634b,64d2fd46c836a06233681665,64dc81accb858c8c1dc54714,,,,,,,decisionTrl,resources/DP.BMP,resources/DR.BMP,WildCard_Ex,-0.201851852,-0.088888889,1,0,0,0.97,optionLeft,5,12085,6,19,0,19,0,1,,,,,,,,,,,,,,,,,,,,,,,,,,,,,,,,,,,,,,,
,,,,,,,64401b8dc61551f15637634b,2023-08-16_08h59.32.207,HF_wild_card,2022.2.4,Win32,143.8848921,64401b8dc61551f15637634b,64d2fd46c836a06233681665,64dc81accb858c8c1dc54714,,,,,,,ctch,resources/DY.BMP,resources/DG.BMP,Door4,-0.248148148,-0.056481481,1,0,0,0.8738,optionLeft,60,12145,6,20,0,20,0,1,,,,,,,,,,,,,,,,,,,,,,,,,,,,,,,,,,,,,,,
,,,,,,,64401b8dc61551f15637634b,2023-08-16_08h59.32.207,HF_wild_card,2022.2.4,Win32,143.8848921,64401b8dc61551f15637634b,64d2fd46c836a06233681665,64dc81accb858c8c1dc54714,,,,,,,sngl,resources/Empty.png,resources/DG.BMP,Door1,0.171296296,-0.025925926,1,0,0,0.8113,optionRight,30,12175,6,21,0,21,0,1,,,,,,,,,,,,,,,,,,,,,,,,,,,,,,,,,,,,,,,
,,,,,,,64401b8dc61551f15637634b,2023-08-16_08h59.32.207,HF_wild_card,2022.2.4,Win32,143.8848921,64401b8dc61551f15637634b,64d2fd46c836a06233681665,64dc81accb858c8c1dc54714,,,,,,,decisionTrl,resources/DBN.BMP,resources/DY.BMP,Door4,0.155555556,0,1,0,0,0.8659,optionRight,60,12235,6,22,0,22,0,1,,,,,,,,,,,,,,,,,,,,,,,,,,,,,,,,,,,,,,,
,,,,,,,64401b8dc61551f15637634b,2023-08-16_08h59.32.207,HF_wild_card,2022.2.4,Win32,143.8848921,64401b8dc61551f15637634b,64d2fd46c836a06233681665,64dc81accb858c8c1dc54714,,,,,,,decisionTrl,resources/DP.BMP,resources/DBN.BMP,WildCard_Ex,-0.210185185,-0.013888889,1,0,0,0.8105,optionLeft,95,12330,6,23,0,23,0,1,,,,,,,,,,,,,,,,,,,,,,,,,,,,,,,,,,,,,,,
,,,,,,,64401b8dc61551f15637634b,2023-08-16_08h59.32.207,HF_wild_card,2022.2.4,Win32,143.8848921,64401b8dc61551f15637634b,64d2fd46c836a06233681665,64dc81accb858c8c1dc54714,,,,,,,sngl,resources/Empty.png,resources/DP.BMP,WildCard_Ex,0.139814815,-0.015740741,1,0,0,0.8456,optionRight,95,12425,6,24,0,24,0,1,,,,,,,,,,,,,,,,,,,,,,,,,,,,,,,,,,,,,,,
,,,,,,,64401b8dc61551f15637634b,2023-08-16_08h59.32.207,HF_wild_card,2022.2.4,Win32,143.8848921,64401b8dc61551f15637634b,64d2fd46c836a06233681665,64dc81accb858c8c1dc54714,,,,,,,ctch,resources/DR.BMP,resources/DBN.BMP,Door2,-0.200925926,-0.008333333,1,0,0,1.0944,optionLeft,40,12465,6,25,0,25,0,1,,,,,,,,,,,,,,,,,,,,,,,,,,,,,,,,,,,,,,,
,,,,,,,64401b8dc61551f15637634b,2023-08-16_08h59.32.207,HF_wild_card,2022.2.4,Win32,143.8848921,64401b8dc61551f15637634b,64d2fd46c836a06233681665,64dc81accb858c8c1dc54714,,,,,,,ctch,resources/DBN.BMP,resources/DR.BMP,Door2,0.235185185,0.00462963,1,0,0,0.7828,optionRight,40,12505,6,26,0,26,0,1,,,,,,,,,,,,,,,,,,,,,,,,,,,,,,,,,,,,,,,
,,,,,,,64401b8dc61551f15637634b,2023-08-16_08h59.32.207,HF_wild_card,2022.2.4,Win32,143.8848921,64401b8dc61551f15637634b,64d2fd46c836a06233681665,64dc81accb858c8c1dc54714,,,,,,,decisionTrl,resources/DP.BMP,resources/DY.BMP,WildCard_Ex,-0.213888889,0.017592593,1,0,0,0.8243,optionLeft,95,12600,6,27,0,27,0,1,,,,,,,,,,,,,,,,,,,,,,,,,,,,,,,,,,,,,,,
,,,,,,,64401b8dc61551f15637634b,2023-08-16_08h59.32.207,HF_wild_card,2022.2.4,Win32,143.8848921,64401b8dc61551f15637634b,64d2fd46c836a06233681665,64dc81accb858c8c1dc54714,,,,,,,decisionTrl,resources/DY.BMP,resources/DBN.BMP,Door4,-0.244444444,-0.000925926,1,0,0,0.8312,optionLeft,80,12680,6,28,0,28,0,1,,,,,,,,,,,,,,,,,,,,,,,,,,,,,,,,,,,,,,,
,,,,,,,64401b8dc61551f15637634b,2023-08-16_08h59.32.207,HF_wild_card,2022.2.4,Win32,143.8848921,64401b8dc61551f15637634b,64d2fd46c836a06233681665,64dc81accb858c8c1dc54714,,,,,,,sngl,resources/DY.BMP,resources/Empty.png,Door4,-0.211111111,0.001851852,1,0,0,0.8376,optionLeft,60,12740,6,29,0,29,0,1,,,,,,,,,,,,,,,,,,,,,,,,,,,,,,,,,,,,,,,
,,,,,,,64401b8dc61551f15637634b,2023-08-16_08h59.32.207,HF_wild_card,2022.2.4,Win32,143.8848921,64401b8dc61551f15637634b,64d2fd46c836a06233681665,64dc81accb858c8c1dc54714,,,,,,,decisionTrl,resources/DG.BMP,resources/DR.BMP,Door2,0.14537037,-0.003703704,1,0,0,0.8672,optionRight,20,12760,6,30,0,30,0,1,,,,,,,,,,,,,,,,,,,,,,,,,,,,,,,,,,,,,,,
,,,,,,,64401b8dc61551f15637634b,2023-08-16_08h59.32.207,HF_wild_card,2022.2.4,Win32,143.8848921,64401b8dc61551f15637634b,64d2fd46c836a06233681665,64dc81accb858c8c1dc54714,,,,,,,decisionTrl,resources/DBN.BMP,resources/DP.BMP,WildCard_Ex,0.142592593,-0.018518519,1,0,0,0.8535,optionRight,5,12765,6,31,0,31,0,1,,,,,,,,,,,,,,,,,,,,,,,,,,,,,,,,,,,,,,,
,,,,,,,64401b8dc61551f15637634b,2023-08-16_08h59.32.207,HF_wild_card,2022.2.4,Win32,143.8848921,64401b8dc61551f15637634b,64d2fd46c836a06233681665,64dc81accb858c8c1dc54714,,,,,,,decisionTrl,resources/DG.BMP,resources/DR.BMP,Door2,0.177777778,-0.034259259,1,0,0,1.3543,optionRight,40,12805,6,32,0,32,0,1,,,,,,,,,,,,,,,,,,,,,,,,,,,,,,,,,,,,,,,
,,,,,,,64401b8dc61551f15637634b,2023-08-16_08h59.32.207,HF_wild_card,2022.2.4,Win32,143.8848921,64401b8dc61551f15637634b,64d2fd46c836a06233681665,64dc81accb858c8c1dc54714,,,,,,,sngl,resources/Empty.png,resources/DY.BMP,Door4,0.163888889,-0.016666667,1,0,0,0.7898,optionRight,80,12885,6,33,0,33,0,1,,,,,,,,,,,,,,,,,,,,,,,,,,,,,,,,,,,,,,,
,,,,,,,64401b8dc61551f15637634b,2023-08-16_08h59.32.207,HF_wild_card,2022.2.4,Win32,143.8848921,64401b8dc61551f15637634b,64d2fd46c836a06233681665,64dc81accb858c8c1dc54714,,,,,,,decisionTrl,resources/DR.BMP,resources/DP.BMP,WildCard_Ex,0.150925926,0.005555556,1,0,0,0.7762,optionRight,5,12890,6,34,0,34,0,1,,,,,,,,,,,,,,,,,,,,,,,,,,,,,,,,,,,,,,,
,,,,,,,64401b8dc61551f15637634b,2023-08-16_08h59.32.207,HF_wild_card,2022.2.4,Win32,143.8848921,64401b8dc61551f15637634b,64d2fd46c836a06233681665,64dc81accb858c8c1dc54714,,,,,,,decisionTrl,resources/DR.BMP,resources/DG.BMP,Door2,-0.200925926,-0.022222222,1,0,0,0.8387,optionLeft,20,12910,6,35,0,35,0,1,,,,,,,,,,,,,,,,,,,,,,,,,,,,,,,,,,,,,,,
,,,,,,,64401b8dc61551f15637634b,2023-08-16_08h59.32.207,HF_wild_card,2022.2.4,Win32,143.8848921,64401b8dc61551f15637634b,64d2fd46c836a06233681665,64dc81accb858c8c1dc54714,,,,,,,ctch,resources/DG.BMP,resources/DY.BMP,Door4,0.14537037,-0.069444444,1,0,0,0.8038,optionRight,80,12990,6,36,0,36,0,1,,,,,,,,,,,,,,,,,,,,,,,,,,,,,,,,,,,,,,,
,,,,,,,64401b8dc61551f15637634b,2023-08-16_08h59.32.207,HF_wild_card,2022.2.4,Win32,143.8848921,64401b8dc61551f15637634b,64d2fd46c836a06233681665,64dc81accb858c8c1dc54714,,,,,,,sngl,resources/DR.BMP,resources/Empty.png,Door2,-0.189814815,-0.002777778,1,0,0,0.7761,optionLeft,20,13010,6,37,0,37,0,1,,,,,,,,,,,,,,,,,,,,,,,,,,,,,,,,,,,,,,,
,,,,,,,64401b8dc61551f15637634b,2023-08-16_08h59.32.207,HF_wild_card,2022.2.4,Win32,143.8848921,64401b8dc61551f15637634b,64d2fd46c836a06233681665,64dc81accb858c8c1dc54714,,,,,,,ctch,resources/DR.BMP,resources/DBN.BMP,Door2,-0.236111111,-0.00462963,1,0,0,0.8505,optionLeft,20,13030,6,38,0,38,0,1,,,,,,,,,,,,,,,,,,,,,,,,,,,,,,,,,,,,,,,
,,,,,,,64401b8dc61551f15637634b,2023-08-16_08h59.32.207,HF_wild_card,2022.2.4,Win32,143.8848921,64401b8dc61551f15637634b,64d2fd46c836a06233681665,64dc81accb858c8c1dc54714,,,,,,,sngl,resources/DG.BMP,resources/Empty.png,Door1,-0.173148148,0.017592593,1,0,0,0.8664,optionLeft,30,13060,6,39,0,39,0,1,,,,,,,,,,,,,,,,,,,,,,,,,,,,,,,,,,,,,,,
,,,,,,,64401b8dc61551f15637634b,2023-08-16_08h59.32.207,HF_wild_card,2022.2.4,Win32,143.8848921,64401b8dc61551f15637634b,64d2fd46c836a06233681665,64dc81accb858c8c1dc54714,,,,,,,decisionTrl,resources/DY.BMP,resources/DBN.BMP,Door4,-0.258333333,0.000925926,1,0,0,0.8728,optionLeft,60,13120,6,40,0,40,0,1,,,,,,,,,,,,,,,,,,,,,,,,,,,,,,,,,,,,,,,
,,,,,,,64401b8dc61551f15637634b,2023-08-16_08h59.32.207,HF_wild_card,2022.2.4,Win32,143.8848921,64401b8dc61551f15637634b,64d2fd46c836a06233681665,64dc81accb858c8c1dc54714,,,,,,,sngl,resources/DBN.BMP,resources/Empty.png,Door3,-0.210185185,0.015740741,1,0,0,0.8243,optionLeft,70,13190,6,41,0,41,0,1,,,,,,,,,,,,,,,,,,,,,,,,,,,,,,,,,,,,,,,
,,,,,,,64401b8dc61551f15637634b,2023-08-16_08h59.32.207,HF_wild_card,2022.2.4,Win32,143.8848921,64401b8dc61551f15637634b,64d2fd46c836a06233681665,64dc81accb858c8c1dc54714,,,,,,,decisionTrl,resources/DG.BMP,resources/DP.BMP,WildCard_Ex,0.143518519,-0.019444444,1,0,0,0.846,optionRight,5,13195,6,42,0,42,0,1,,,,,,,,,,,,,,,,,,,,,,,,,,,,,,,,,,,,,,,
,,,,,,,64401b8dc61551f15637634b,2023-08-16_08h59.32.207,HF_wild_card,2022.2.4,Win32,143.8848921,64401b8dc61551f15637634b,64d2fd46c836a06233681665,64dc81accb858c8c1dc54714,,,,,,,ctch,resources/DBN.BMP,resources/DR.BMP,Door2,0.123148148,-0.025925926,1,0,0,0.9117,optionRight,20,13215,6,43,0,43,0,1,,,,,,,,,,,,,,,,,,,,,,,,,,,,,,,,,,,,,,,
,,,,,,,64401b8dc61551f15637634b,2023-08-16_08h59.32.207,HF_wild_card,2022.2.4,Win32,143.8848921,64401b8dc61551f15637634b,64d2fd46c836a06233681665,64dc81accb858c8c1dc54714,,,,,,,,,,,,,,,,,,,,,,,,,,5,0,5,0,1,,,,,,,,,,,,,,,,,,,,,,,,,,,,,,,,,,
,,,,,,,64401b8dc61551f15637634b,2023-08-16_08h59.32.207,HF_wild_card,2022.2.4,Win32,143.8848921,64401b8dc61551f15637634b,64d2fd46c836a06233681665,64dc81accb858c8c1dc54714,,,,,,,decisionTrl,resources/DBN.BMP,resources/DY.BMP,Door4,0.186111111,-0.037962963,1,0,0,1.9337,optionRight,60,13275,7,0,0,0,0,1,,,,,,,,,,,,,,,,,,,,,,,,,,,,,,,,,,,,,,,
,,,,,,,64401b8dc61551f15637634b,2023-08-16_08h59.32.207,HF_wild_card,2022.2.4,Win32,143.8848921,64401b8dc61551f15637634b,64d2fd46c836a06233681665,64dc81accb858c8c1dc54714,,,,,,,ctch,resources/DG.BMP,resources/DY.BMP,Door4,0.123148148,-0.000925926,1,0,0,0.7907,optionRight,80,13355,7,1,0,1,0,1,,,,,,,,,,,,,,,,,,,,,,,,,,,,,,,,,,,,,,,
,,,,,,,64401b8dc61551f15637634b,2023-08-16_08h59.32.207,HF_wild_card,2022.2.4,Win32,143.8848921,64401b8dc61551f15637634b,64d2fd46c836a06233681665,64dc81accb858c8c1dc54714,,,,,,,decisionTrl,resources/DR.BMP,resources/DG.BMP,Door2,-0.212962963,-0.016666667,1,0,0,0.8256,optionLeft,20,13375,7,2,0,2,0,1,,,,,,,,,,,,,,,,,,,,,,,,,,,,,,,,,,,,,,,
,,,,,,,64401b8dc61551f15637634b,2023-08-16_08h59.32.207,HF_wild_card,2022.2.4,Win32,143.8848921,64401b8dc61551f15637634b,64d2fd46c836a06233681665,64dc81accb858c8c1dc54714,,,,,,,ctch,resources/DBN.BMP,resources/DR.BMP,Door2,0.24537037,0.008333333,1,0,0,0.7904,optionRight,20,13395,7,3,0,3,0,1,,,,,,,,,,,,,,,,,,,,,,,,,,,,,,,,,,,,,,,
,,,,,,,64401b8dc61551f15637634b,2023-08-16_08h59.32.207,HF_wild_card,2022.2.4,Win32,143.8848921,64401b8dc61551f15637634b,64d2fd46c836a06233681665,64dc81accb858c8c1dc54714,,,,,,,decisionTrl,resources/DY.BMP,resources/DBN.BMP,Door4,-0.201851852,-0.012037037,1,0,0,0.7974,optionLeft,80,13475,7,4,0,4,0,1,,,,,,,,,,,,,,,,,,,,,,,,,,,,,,,,,,,,,,,
,,,,,,,64401b8dc61551f15637634b,2023-08-16_08h59.32.207,HF_wild_card,2022.2.4,Win32,143.8848921,64401b8dc61551f15637634b,64d2fd46c836a06233681665,64dc81accb858c8c1dc54714,,,,,,,decisionTrl,resources/DY.BMP,resources/DBN.BMP,Door4,-0.184259259,0.002777778,1,0,0,0.8176,optionLeft,60,13535,7,5,0,5,0,1,,,,,,,,,,,,,,,,,,,,,,,,,,,,,,,,,,,,,,,
,,,,,,,64401b8dc61551f15637634b,2023-08-16_08h59.32.207,HF_wild_card,2022.2.4,Win32,143.8848921,64401b8dc61551f15637634b,64d2fd46c836a06233681665,64dc81accb858c8c1dc54714,,,,,,,decisionTrl,resources/DG.BMP,resources/DR.BMP,Door2,0.17962963,-0.022222222,1,0,0,0.8172,optionRight,40,13575,7,6,0,6,0,1,,,,,,,,,,,,,,,,,,,,,,,,,,,,,,,,,,,,,,,
,,,,,,,64401b8dc61551f15637634b,2023-08-16_08h59.32.207,HF_wild_card,2022.2.4,Win32,143.8848921,64401b8dc61551f15637634b,64d2fd46c836a06233681665,64dc81accb858c8c1dc54714,,,,,,,ctch,resources/DR.BMP,resources/DBN.BMP,Door2,-0.189814815,0.003703704,1,0,0,0.7978,optionLeft,40,13615,7,7,0,7,0,1,,,,,,,,,,,,,,,,,,,,,,,,,,,,,,,,,,,,,,,
,,,,,,,64401b8dc61551f15637634b,2023-08-16_08h59.32.207,HF_wild_card,2022.2.4,Win32,143.8848921,64401b8dc61551f15637634b,64d2fd46c836a06233681665,64dc81accb858c8c1dc54714,,,,,,,decisionTrl,resources/DG.BMP,resources/DR.BMP,Door2,0.148148148,-0.008333333,1,0,0,0.7774,optionRight,40,13655,7,8,0,8,0,1,,,,,,,,,,,,,,,,,,,,,,,,,,,,,,,,,,,,,,,
,,,,,,,64401b8dc61551f15637634b,2023-08-16_08h59.32.207,HF_wild_card,2022.2.4,Win32,143.8848921,64401b8dc61551f15637634b,64d2fd46c836a06233681665,64dc81accb858c8c1dc54714,,,,,,,ctch,resources/DR.BMP,resources/DBN.BMP,Door2,-0.247222222,0.016666667,1,0,0,0.7949,optionLeft,20,13675,7,9,0,9,0,1,,,,,,,,,,,,,,,,,,,,,,,,,,,,,,,,,,,,,,,
,,,,,,,64401b8dc61551f15637634b,2023-08-16_08h59.32.207,HF_wild_card,2022.2.4,Win32,143.8848921,64401b8dc61551f15637634b,64d2fd46c836a06233681665,64dc81accb858c8c1dc54714,,,,,,,ctch,resources/DBN.BMP,resources/DR.BMP,Door2,0.144444444,0.003703704,1,0,0,0.7999,optionRight,40,13715,7,10,0,10,0,1,,,,,,,,,,,,,,,,,,,,,,,,,,,,,,,,,,,,,,,
,,,,,,,64401b8dc61551f15637634b,2023-08-16_08h59.32.207,HF_wild_card,2022.2.4,Win32,143.8848921,64401b8dc61551f15637634b,64d2fd46c836a06233681665,64dc81accb858c8c1dc54714,,,,,,,decisionTrl,resources/DR.BMP,resources/DG.BMP,Door2,-0.205555556,0.009259259,1,0,0,0.8119,optionLeft,20,13735,7,11,0,11,0,1,,,,,,,,,,,,,,,,,,,,,,,,,,,,,,,,,,,,,,,
,,,,,,,64401b8dc61551f15637634b,2023-08-16_08h59.32.207,HF_wild_card,2022.2.4,Win32,143.8848921,64401b8dc61551f15637634b,64d2fd46c836a06233681665,64dc81accb858c8c1dc54714,,,,,,,decisionTrl,resources/DR.BMP,resources/DG.BMP,Door2,-0.249074074,0,1,0,0,0.8057,optionLeft,40,13775,7,12,0,12,0,1,,,,,,,,,,,,,,,,,,,,,,,,,,,,,,,,,,,,,,,
,,,,,,,64401b8dc61551f15637634b,2023-08-16_08h59.32.207,HF_wild_card,2022.2.4,Win32,143.8848921,64401b8dc61551f15637634b,64d2fd46c836a06233681665,64dc81accb858c8c1dc54714,,,,,,,ctch,resources/DR.BMP,resources/DBN.BMP,Door2,-0.291666667,-0.015740741,1,0,0,0.7841,optionLeft,40,13815,7,13,0,13,0,1,,,,,,,,,,,,,,,,,,,,,,,,,,,,,,,,,,,,,,,
,,,,,,,64401b8dc61551f15637634b,2023-08-16_08h59.32.207,HF_wild_card,2022.2.4,Win32,143.8848921,64401b8dc61551f15637634b,64d2fd46c836a06233681665,64dc81accb858c8c1dc54714,,,,,,,decisionTrl,resources/DG.BMP,resources/DR.BMP,Door2,0.098148148,-0.008333333,1,0,0,0.7779,optionRight,40,13855,7,14,0,14,0,1,,,,,,,,,,,,,,,,,,,,,,,,,,,,,,,,,,,,,,,
,,,,,,,64401b8dc61551f15637634b,2023-08-16_08h59.32.207,HF_wild_card,2022.2.4,Win32,143.8848921,64401b8dc61551f15637634b,64d2fd46c836a06233681665,64dc81accb858c8c1dc54714,,,,,,,decisionTrl,resources/DBN.BMP,resources/DY.BMP,Door4,0.128703704,-0.028703704,1,0,0,0.8225,optionRight,60,13915,7,15,0,15,0,1,,,,,,,,,,,,,,,,,,,,,,,,,,,,,,,,,,,,,,,
,,,,,,,64401b8dc61551f15637634b,2023-08-16_08h59.32.207,HF_wild_card,2022.2.4,Win32,143.8848921,64401b8dc61551f15637634b,64d2fd46c836a06233681665,64dc81accb858c8c1dc54714,,,,,,,decisionTrl,resources/DR.BMP,resources/DG.BMP,Door2,-0.25462963,-0.011111111,1,0,0,0.9076,optionLeft,40,13955,7,16,0,16,0,1,,,,,,,,,,,,,,,,,,,,,,,,,,,,,,,,,,,,,,,
,,,,,,,64401b8dc61551f15637634b,2023-08-16_08h59.32.207,HF_wild_card,2022.2.4,Win32,143.8848921,64401b8dc61551f15637634b,64d2fd46c836a06233681665,64dc81accb858c8c1dc54714,,,,,,,decisionTrl,resources/DY.BMP,resources/DBN.BMP,Door4,-0.187962963,-0.025925926,1,0,0,0.8398,optionLeft,80,14035,7,17,0,17,0,1,,,,,,,,,,,,,,,,,,,,,,,,,,,,,,,,,,,,,,,
,,,,,,,64401b8dc61551f15637634b,2023-08-16_08h59.32.207,HF_wild_card,2022.2.4,Win32,143.8848921,64401b8dc61551f15637634b,64d2fd46c836a06233681665,64dc81accb858c8c1dc54714,,,,,,,ctch,resources/DG.BMP,resources/DY.BMP,Door4,0.158333333,-0.043518519,1,0,0,0.8343,optionRight,80,14115,7,18,0,18,0,1,,,,,,,,,,,,,,,,,,,,,,,,,,,,,,,,,,,,,,,
,,,,,,,64401b8dc61551f15637634b,2023-08-16_08h59.32.207,HF_wild_card,2022.2.4,Win32,143.8848921,64401b8dc61551f15637634b,64d2fd46c836a06233681665,64dc81accb858c8c1dc54714,,,,,,,ctch,resources/DY.BMP,resources/DG.BMP,Door4,-0.162037037,-0.019444444,1,0,0,0.8663,optionLeft,80,14195,7,19,0,19,0,1,,,,,,,,,,,,,,,,,,,,,,,,,,,,,,,,,,,,,,,
,,,,,,,64401b8dc61551f15637634b,2023-08-16_08h59.32.207,HF_wild_card,2022.2.4,Win32,143.8848921,64401b8dc61551f15637634b,64d2fd46c836a06233681665,64dc81accb858c8c1dc54714,,,,,,,decisionTrl,resources/DG.BMP,resources/DR.BMP,Door2,0.182407407,-0.042592593,1,0,0,0.8396,optionRight,20,14215,7,20,0,20,0,1,,,,,,,,,,,,,,,,,,,,,,,,,,,,,,,,,,,,,,,
