Condition,Low fixed image (Door1),Low risky image (Door2),High fixed image (Door3),High risky image (Door4),Extreme Wild Card,NonExtreme Wild Card,,date,expName,psychopyVersion,OS,frameRate,PROLIFIC_PID,STUDY_ID,SESSION_ID,mouse_2.x,mouse_2.y,mouse_2.leftButton,mouse_2.midButton,mouse_2.rightButton,mouse_2.clicked_name,Trial Type,Left Option Image,Right Option Image,Chosen Door,mouse.x,mouse.y,mouse.leftButton,mouse.midButton,mouse.rightButton,mouse.time,mouse.clicked_name,Feedback,Cumulative Reward,Block,trial.thisRepN,trial.thisTrialN,trial.thisN,trial.thisIndex,trial.ran,blocks.thisRepN,blocks.thisTrialN,blocks.thisN,blocks.thisIndex,blocks.ran,Money conversion,First Outcome Reported,Shown Door (First Outcome),Displayed Image (First Outcome),outcomes.thisRepN,outcomes.thisTrialN,outcomes.thisN,outcomes.thisIndex,outcomes.ran,judgments.thisRepN,judgments.thisTrialN,judgments.thisN,judgments.thisIndex,judgments.ran,freqMouse.x,freqMouse.y,freqMouse.leftButton,freqMouse.midButton,freqMouse.rightButton,freqMouse.clicked_name,FQJ for first outcome,FQJ for second outcome,Shown Door,Displayed Image,trials.thisRepN,trials.thisTrialN,trials.thisN,trials.thisIndex,trials.ran,judgBlock.thisRepN,judgBlock.thisTrialN,judgBlock.thisN,judgBlock.thisIndex,judgBlock.ran
1,resources/DB.BMP,resources/DP.BMP,resources/DR.BMP,resources/DG.BMP,resources/DBN.BMP,resources/DY.BMP,,2023-08-16_08h48.13.712,HF_wild_card,2022.2.4,MacIntel,58.82352941,5b1e614fbd262e0001491796,64d2fd46c836a06233681665,64dc7c7caf8ed5d2580334a7,,,,,,,,,,,,,,,,,,,,,,,,,,,,,,,,,,,,,,,,,,,,,,,,,,,,,,,,,,,,,,,,
,,,,,,,,2023-08-16_08h48.13.712,HF_wild_card,2022.2.4,MacIntel,58.82352941,5b1e614fbd262e0001491796,64d2fd46c836a06233681665,64dc7c7caf8ed5d2580334a7,-0.004444444,-0.42,1,0,0,agree,,,,,,,,,,,,,,,,,,,,,,,,,,,,,,,,,,,,,,,,,,,,,,,,,,,,,,,,,,
,,,,,,,,2023-08-16_08h48.13.712,HF_wild_card,2022.2.4,MacIntel,58.82352941,5b1e614fbd262e0001491796,64d2fd46c836a06233681665,64dc7c7caf8ed5d2580334a7,,,,,,,,,,,,,,,,,,,,,,,,,,,,,,,,,,,,,,,,,,,,,,,,,,,,,,,,,,,,,,,,
,,,,,,,,2023-08-16_08h48.13.712,HF_wild_card,2022.2.4,MacIntel,58.82352941,5b1e614fbd262e0001491796,64d2fd46c836a06233681665,64dc7c7caf8ed5d2580334a7,,,,,,,decisionTrl,resources/DY.BMP,resources/DG.BMP,WildCard_NonEx,-0.335555556,0.014444444,1,0,0,2.572,optionLeft,55,55,1,0,0,0,0,1,,,,,,,,,,,,,,,,,,,,,,,,,,,,,,,,,,,,,,,
,,,,,,,,2023-08-16_08h48.13.712,HF_wild_card,2022.2.4,MacIntel,58.82352941,5b1e614fbd262e0001491796,64d2fd46c836a06233681665,64dc7c7caf8ed5d2580334a7,,,,,,,sngl,resources/DY.BMP,resources/Empty.png,WildCard_NonEx,-0.332222222,-0.046666667,1,0,0,7.845,optionLeft,55,110,1,1,0,1,0,1,,,,,,,,,,,,,,,,,,,,,,,,,,,,,,,,,,,,,,,
,,,,,,,,2023-08-16_08h48.13.712,HF_wild_card,2022.2.4,MacIntel,58.82352941,5b1e614fbd262e0001491796,64d2fd46c836a06233681665,64dc7c7caf8ed5d2580334a7,,,,,,,decisionTrl,resources/DP.BMP,resources/DB.BMP,Door2,-0.381111111,0.041111111,1,0,0,1.21,optionLeft,20,130,1,2,0,2,0,1,,,,,,,,,,,,,,,,,,,,,,,,,,,,,,,,,,,,,,,
,,,,,,,,2023-08-16_08h48.13.712,HF_wild_card,2022.2.4,MacIntel,58.82352941,5b1e614fbd262e0001491796,64d2fd46c836a06233681665,64dc7c7caf8ed5d2580334a7,,,,,,,decisionTrl,resources/DG.BMP,resources/DR.BMP,Door3,0.297777778,0,1,0,0,0.995,optionRight,70,200,1,3,0,3,0,1,,,,,,,,,,,,,,,,,,,,,,,,,,,,,,,,,,,,,,,
,,,,,,,,2023-08-16_08h48.13.712,HF_wild_card,2022.2.4,MacIntel,58.82352941,5b1e614fbd262e0001491796,64d2fd46c836a06233681665,64dc7c7caf8ed5d2580334a7,,,,,,,sngl,resources/DY.BMP,resources/Empty.png,WildCard_NonEx,-0.29,0.034444444,1,0,0,0.792,optionLeft,45,245,1,4,0,4,0,1,,,,,,,,,,,,,,,,,,,,,,,,,,,,,,,,,,,,,,,
,,,,,,,,2023-08-16_08h48.13.712,HF_wild_card,2022.2.4,MacIntel,58.82352941,5b1e614fbd262e0001491796,64d2fd46c836a06233681665,64dc7c7caf8ed5d2580334a7,,,,,,,ctch,resources/DP.BMP,resources/DR.BMP,Door2,-0.236666667,0.021111111,1,0,0,0.96,optionLeft,20,265,1,5,0,5,0,1,,,,,,,,,,,,,,,,,,,,,,,,,,,,,,,,,,,,,,,
,,,,,,,,2023-08-16_08h48.13.712,HF_wild_card,2022.2.4,MacIntel,58.82352941,5b1e614fbd262e0001491796,64d2fd46c836a06233681665,64dc7c7caf8ed5d2580334a7,,,,,,,sngl,resources/Empty.png,resources/DY.BMP,WildCard_NonEx,-0.44,-0.022222222,1,0,0,1.675,optionRight,55,320,1,6,0,6,0,1,,,,,,,,,,,,,,,,,,,,,,,,,,,,,,,,,,,,,,,
,,,,,,,,2023-08-16_08h48.13.712,HF_wild_card,2022.2.4,MacIntel,58.82352941,5b1e614fbd262e0001491796,64d2fd46c836a06233681665,64dc7c7caf8ed5d2580334a7,,,,,,,decisionTrl,resources/DY.BMP,resources/DP.BMP,WildCard_NonEx,-0.172222222,-0.073333333,1,0,0,1.228,optionLeft,55,375,1,7,0,7,0,1,,,,,,,,,,,,,,,,,,,,,,,,,,,,,,,,,,,,,,,
,,,,,,,,2023-08-16_08h48.13.712,HF_wild_card,2022.2.4,MacIntel,58.82352941,5b1e614fbd262e0001491796,64d2fd46c836a06233681665,64dc7c7caf8ed5d2580334a7,,,,,,,ctch,resources/DB.BMP,resources/DG.BMP,Door4,0.245555556,-0.094444444,1,0,0,1.877,optionRight,60,435,1,8,0,8,0,1,,,,,,,,,,,,,,,,,,,,,,,,,,,,,,,,,,,,,,,
,,,,,,,,2023-08-16_08h48.13.712,HF_wild_card,2022.2.4,MacIntel,58.82352941,5b1e614fbd262e0001491796,64d2fd46c836a06233681665,64dc7c7caf8ed5d2580334a7,,,,,,,decisionTrl,resources/DP.BMP,resources/DB.BMP,Door2,-0.323333333,0.006666667,1,0,0,0.994,optionLeft,20,455,1,9,0,9,0,1,,,,,,,,,,,,,,,,,,,,,,,,,,,,,,,,,,,,,,,
,,,,,,,,2023-08-16_08h48.13.712,HF_wild_card,2022.2.4,MacIntel,58.82352941,5b1e614fbd262e0001491796,64d2fd46c836a06233681665,64dc7c7caf8ed5d2580334a7,,,,,,,decisionTrl,resources/DB.BMP,resources/DP.BMP,Door1,-0.326666667,-0.002222222,1,0,0,0.976,optionLeft,30,485,1,10,0,10,0,1,,,,,,,,,,,,,,,,,,,,,,,,,,,,,,,,,,,,,,,
,,,,,,,,2023-08-16_08h48.13.712,HF_wild_card,2022.2.4,MacIntel,58.82352941,5b1e614fbd262e0001491796,64d2fd46c836a06233681665,64dc7c7caf8ed5d2580334a7,,,,,,,decisionTrl,resources/DB.BMP,resources/DP.BMP,Door1,-0.285555556,0.031111111,1,0,0,0.86,optionLeft,30,515,1,11,0,11,0,1,,,,,,,,,,,,,,,,,,,,,,,,,,,,,,,,,,,,,,,
,,,,,,,,2023-08-16_08h48.13.712,HF_wild_card,2022.2.4,MacIntel,58.82352941,5b1e614fbd262e0001491796,64d2fd46c836a06233681665,64dc7c7caf8ed5d2580334a7,,,,,,,decisionTrl,resources/DP.BMP,resources/DY.BMP,WildCard_NonEx,0.247777778,0.003333333,1,0,0,0.942,optionRight,45,560,1,12,0,12,0,1,,,,,,,,,,,,,,,,,,,,,,,,,,,,,,,,,,,,,,,
,,,,,,,,2023-08-16_08h48.13.712,HF_wild_card,2022.2.4,MacIntel,58.82352941,5b1e614fbd262e0001491796,64d2fd46c836a06233681665,64dc7c7caf8ed5d2580334a7,,,,,,,ctch,resources/DG.BMP,resources/DB.BMP,Door4,-0.237777778,-0.014444444,1,0,0,1.811,optionLeft,60,620,1,13,0,13,0,1,,,,,,,,,,,,,,,,,,,,,,,,,,,,,,,,,,,,,,,
,,,,,,,,2023-08-16_08h48.13.712,HF_wild_card,2022.2.4,MacIntel,58.82352941,5b1e614fbd262e0001491796,64d2fd46c836a06233681665,64dc7c7caf8ed5d2580334a7,,,,,,,sngl,resources/Empty.png,resources/DP.BMP,Door2,0.316666667,-0.011111111,1,0,0,1.177,optionRight,20,640,1,14,0,14,0,1,,,,,,,,,,,,,,,,,,,,,,,,,,,,,,,,,,,,,,,
,,,,,,,,2023-08-16_08h48.13.712,HF_wild_card,2022.2.4,MacIntel,58.82352941,5b1e614fbd262e0001491796,64d2fd46c836a06233681665,64dc7c7caf8ed5d2580334a7,,,,,,,sngl,resources/DG.BMP,resources/Empty.png,Door4,-0.262222222,-0.004444444,1,0,0,1.244,optionLeft,80,720,1,15,0,15,0,1,,,,,,,,,,,,,,,,,,,,,,,,,,,,,,,,,,,,,,,
,,,,,,,,2023-08-16_08h48.13.712,HF_wild_card,2022.2.4,MacIntel,58.82352941,5b1e614fbd262e0001491796,64d2fd46c836a06233681665,64dc7c7caf8ed5d2580334a7,,,,,,,ctch,resources/DR.BMP,resources/DP.BMP,Door3,-0.261111111,0.017777778,1,0,0,2.26,optionLeft,70,790,1,16,0,16,0,1,,,,,,,,,,,,,,,,,,,,,,,,,,,,,,,,,,,,,,,
,,,,,,,,2023-08-16_08h48.13.712,HF_wild_card,2022.2.4,MacIntel,58.82352941,5b1e614fbd262e0001491796,64d2fd46c836a06233681665,64dc7c7caf8ed5d2580334a7,,,,,,,decisionTrl,resources/DR.BMP,resources/DY.BMP,Door3,-0.307777778,0.025555556,1,0,0,0.78,optionLeft,70,860,1,17,0,17,0,1,,,,,,,,,,,,,,,,,,,,,,,,,,,,,,,,,,,,,,,
,,,,,,,,2023-08-16_08h48.13.712,HF_wild_card,2022.2.4,MacIntel,58.82352941,5b1e614fbd262e0001491796,64d2fd46c836a06233681665,64dc7c7caf8ed5d2580334a7,,,,,,,decisionTrl,resources/DG.BMP,resources/DR.BMP,Door3,0.327777778,-0.014444444,1,0,0,1.977,optionRight,70,930,1,18,0,18,0,1,,,,,,,,,,,,,,,,,,,,,,,,,,,,,,,,,,,,,,,
,,,,,,,,2023-08-16_08h48.13.712,HF_wild_card,2022.2.4,MacIntel,58.82352941,5b1e614fbd262e0001491796,64d2fd46c836a06233681665,64dc7c7caf8ed5d2580334a7,,,,,,,decisionTrl,resources/DR.BMP,resources/DG.BMP,Door3,-0.341111111,0.04,1,0,0,0.631,optionLeft,70,1000,1,19,0,19,0,1,,,,,,,,,,,,,,,,,,,,,,,,,,,,,,,,,,,,,,,
,,,,,,,,2023-08-16_08h48.13.712,HF_wild_card,2022.2.4,MacIntel,58.82352941,5b1e614fbd262e0001491796,64d2fd46c836a06233681665,64dc7c7caf8ed5d2580334a7,,,,,,,ctch,resources/DP.BMP,resources/DR.BMP,Door2,-0.24,0.048888889,1,0,0,0.745,optionLeft,40,1040,1,20,0,20,0,1,,,,,,,,,,,,,,,,,,,,,,,,,,,,,,,,,,,,,,,
,,,,,,,,2023-08-16_08h48.13.712,HF_wild_card,2022.2.4,MacIntel,58.82352941,5b1e614fbd262e0001491796,64d2fd46c836a06233681665,64dc7c7caf8ed5d2580334a7,,,,,,,sngl,resources/DB.BMP,resources/Empty.png,Door1,-0.171111111,0.06,1,0,0,1.446,optionLeft,30,1070,1,21,0,21,0,1,,,,,,,,,,,,,,,,,,,,,,,,,,,,,,,,,,,,,,,
,,,,,,,,2023-08-16_08h48.13.712,HF_wild_card,2022.2.4,MacIntel,58.82352941,5b1e614fbd262e0001491796,64d2fd46c836a06233681665,64dc7c7caf8ed5d2580334a7,,,,,,,decisionTrl,resources/DB.BMP,resources/DP.BMP,Door2,0.382222222,0.005555556,1,0,0,1.228,optionRight,40,1110,1,22,0,22,0,1,,,,,,,,,,,,,,,,,,,,,,,,,,,,,,,,,,,,,,,
,,,,,,,,2023-08-16_08h48.13.712,HF_wild_card,2022.2.4,MacIntel,58.82352941,5b1e614fbd262e0001491796,64d2fd46c836a06233681665,64dc7c7caf8ed5d2580334a7,,,,,,,decisionTrl,resources/DP.BMP,resources/DB.BMP,Door1,0.264444444,0.003333333,1,0,0,0.759,optionRight,30,1140,1,23,0,23,0,1,,,,,,,,,,,,,,,,,,,,,,,,,,,,,,,,,,,,,,,
,,,,,,,,2023-08-16_08h48.13.712,HF_wild_card,2022.2.4,MacIntel,58.82352941,5b1e614fbd262e0001491796,64d2fd46c836a06233681665,64dc7c7caf8ed5d2580334a7,,,,,,,sngl,resources/Empty.png,resources/DB.BMP,Door1,0.321111111,0.003333333,1,0,0,0.96,optionRight,30,1170,1,24,0,24,0,1,,,,,,,,,,,,,,,,,,,,,,,,,,,,,,,,,,,,,,,
,,,,,,,,2023-08-16_08h48.13.712,HF_wild_card,2022.2.4,MacIntel,58.82352941,5b1e614fbd262e0001491796,64d2fd46c836a06233681665,64dc7c7caf8ed5d2580334a7,,,,,,,decisionTrl,resources/DR.BMP,resources/DG.BMP,Door3,-0.27,0.045555556,1,0,0,0.609,optionLeft,70,1240,1,25,0,25,0,1,,,,,,,,,,,,,,,,,,,,,,,,,,,,,,,,,,,,,,,
,,,,,,,,2023-08-16_08h48.13.712,HF_wild_card,2022.2.4,MacIntel,58.82352941,5b1e614fbd262e0001491796,64d2fd46c836a06233681665,64dc7c7caf8ed5d2580334a7,,,,,,,decisionTrl,resources/DY.BMP,resources/DB.BMP,WildCard_NonEx,-0.186666667,-0.002222222,1,0,0,0.91,optionLeft,45,1285,1,26,0,26,0,1,,,,,,,,,,,,,,,,,,,,,,,,,,,,,,,,,,,,,,,
,,,,,,,,2023-08-16_08h48.13.712,HF_wild_card,2022.2.4,MacIntel,58.82352941,5b1e614fbd262e0001491796,64d2fd46c836a06233681665,64dc7c7caf8ed5d2580334a7,,,,,,,ctch,resources/DR.BMP,resources/DP.BMP,Door3,-0.201111111,-0.077777778,1,0,0,1.326,optionLeft,70,1355,1,27,0,27,0,1,,,,,,,,,,,,,,,,,,,,,,,,,,,,,,,,,,,,,,,
,,,,,,,,2023-08-16_08h48.13.712,HF_wild_card,2022.2.4,MacIntel,58.82352941,5b1e614fbd262e0001491796,64d2fd46c836a06233681665,64dc7c7caf8ed5d2580334a7,,,,,,,sngl,resources/Empty.png,resources/DR.BMP,Door3,-0.386666667,-0.056666667,1,0,0,1.444,optionRight,70,1425,1,28,0,28,0,1,,,,,,,,,,,,,,,,,,,,,,,,,,,,,,,,,,,,,,,
,,,,,,,,2023-08-16_08h48.13.712,HF_wild_card,2022.2.4,MacIntel,58.82352941,5b1e614fbd262e0001491796,64d2fd46c836a06233681665,64dc7c7caf8ed5d2580334a7,,,,,,,decisionTrl,resources/DP.BMP,resources/DB.BMP,Door2,-0.213333333,0.022222222,1,0,0,0.959,optionLeft,40,1465,1,29,0,29,0,1,,,,,,,,,,,,,,,,,,,,,,,,,,,,,,,,,,,,,,,
,,,,,,,,2023-08-16_08h48.13.712,HF_wild_card,2022.2.4,MacIntel,58.82352941,5b1e614fbd262e0001491796,64d2fd46c836a06233681665,64dc7c7caf8ed5d2580334a7,,,,,,,sngl,resources/DR.BMP,resources/Empty.png,Door3,-0.275555556,0.063333333,1,0,0,0.778,optionLeft,70,1535,1,30,0,30,0,1,,,,,,,,,,,,,,,,,,,,,,,,,,,,,,,,,,,,,,,
,,,,,,,,2023-08-16_08h48.13.712,HF_wild_card,2022.2.4,MacIntel,58.82352941,5b1e614fbd262e0001491796,64d2fd46c836a06233681665,64dc7c7caf8ed5d2580334a7,,,,,,,decisionTrl,resources/DR.BMP,resources/DG.BMP,Door3,-0.232222222,-0.047777778,1,0,0,1.893,optionLeft,70,1605,1,31,0,31,0,1,,,,,,,,,,,,,,,,,,,,,,,,,,,,,,,,,,,,,,,
,,,,,,,,2023-08-16_08h48.13.712,HF_wild_card,2022.2.4,MacIntel,58.82352941,5b1e614fbd262e0001491796,64d2fd46c836a06233681665,64dc7c7caf8ed5d2580334a7,,,,,,,decisionTrl,resources/DR.BMP,resources/DG.BMP,Door3,-0.385555556,0.048888889,1,0,0,0.928,optionLeft,70,1675,1,32,0,32,0,1,,,,,,,,,,,,,,,,,,,,,,,,,,,,,,,,,,,,,,,
,,,,,,,,2023-08-16_08h48.13.712,HF_wild_card,2022.2.4,MacIntel,58.82352941,5b1e614fbd262e0001491796,64d2fd46c836a06233681665,64dc7c7caf8ed5d2580334a7,,,,,,,decisionTrl,resources/DY.BMP,resources/DR.BMP,Door3,0.343333333,-0.003333333,1,0,0,1.727,optionRight,70,1745,1,33,0,33,0,1,,,,,,,,,,,,,,,,,,,,,,,,,,,,,,,,,,,,,,,
,,,,,,,,2023-08-16_08h48.13.712,HF_wild_card,2022.2.4,MacIntel,58.82352941,5b1e614fbd262e0001491796,64d2fd46c836a06233681665,64dc7c7caf8ed5d2580334a7,,,,,,,decisionTrl,resources/DG.BMP,resources/DR.BMP,Door3,0.12,0.013333333,1,0,0,0.96,optionRight,70,1815,1,34,0,34,0,1,,,,,,,,,,,,,,,,,,,,,,,,,,,,,,,,,,,,,,,
,,,,,,,,2023-08-16_08h48.13.712,HF_wild_card,2022.2.4,MacIntel,58.82352941,5b1e614fbd262e0001491796,64d2fd46c836a06233681665,64dc7c7caf8ed5d2580334a7,,,,,,,sngl,resources/DP.BMP,resources/Empty.png,Door2,-0.206666667,0.03,1,0,0,0.894,optionLeft,40,1855,1,35,0,35,0,1,,,,,,,,,,,,,,,,,,,,,,,,,,,,,,,,,,,,,,,
,,,,,,,,2023-08-16_08h48.13.712,HF_wild_card,2022.2.4,MacIntel,58.82352941,5b1e614fbd262e0001491796,64d2fd46c836a06233681665,64dc7c7caf8ed5d2580334a7,,,,,,,decisionTrl,resources/DG.BMP,resources/DR.BMP,Door3,0.271111111,-0.091111111,1,0,0,0.794,optionRight,70,1925,1,36,0,36,0,1,,,,,,,,,,,,,,,,,,,,,,,,,,,,,,,,,,,,,,,
,,,,,,,,2023-08-16_08h48.13.712,HF_wild_card,2022.2.4,MacIntel,58.82352941,5b1e614fbd262e0001491796,64d2fd46c836a06233681665,64dc7c7caf8ed5d2580334a7,,,,,,,ctch,resources/DG.BMP,resources/DB.BMP,Door1,0.321111111,-0.02,1,0,0,1.544,optionRight,30,1955,1,37,0,37,0,1,,,,,,,,,,,,,,,,,,,,,,,,,,,,,,,,,,,,,,,
,,,,,,,,2023-08-16_08h48.13.712,HF_wild_card,2022.2.4,MacIntel,58.82352941,5b1e614fbd262e0001491796,64d2fd46c836a06233681665,64dc7c7caf8ed5d2580334a7,,,,,,,sngl,resources/Empty.png,resources/DG.BMP,Door4,0.276666667,-0.016666667,1,0,0,0.761,optionRight,60,2015,1,38,0,38,0,1,,,,,,,,,,,,,,,,,,,,,,,,,,,,,,,,,,,,,,,
,,,,,,,,2023-08-16_08h48.13.712,HF_wild_card,2022.2.4,MacIntel,58.82352941,5b1e614fbd262e0001491796,64d2fd46c836a06233681665,64dc7c7caf8ed5d2580334a7,,,,,,,decisionTrl,resources/DB.BMP,resources/DY.BMP,WildCard_NonEx,0.313333333,-0.003333333,1,0,0,0.91,optionRight,45,2060,1,39,0,39,0,1,,,,,,,,,,,,,,,,,,,,,,,,,,,,,,,,,,,,,,,
,,,,,,,,2023-08-16_08h48.13.712,HF_wild_card,2022.2.4,MacIntel,58.82352941,5b1e614fbd262e0001491796,64d2fd46c836a06233681665,64dc7c7caf8ed5d2580334a7,,,,,,,sngl,resources/Empty.png,resources/DY.BMP,WildCard_NonEx,0.286666667,0.003333333,1,0,0,0.66,optionRight,45,2105,1,40,0,40,0,1,,,,,,,,,,,,,,,,,,,,,,,,,,,,,,,,,,,,,,,
,,,,,,,,2023-08-16_08h48.13.712,HF_wild_card,2022.2.4,MacIntel,58.82352941,5b1e614fbd262e0001491796,64d2fd46c836a06233681665,64dc7c7caf8ed5d2580334a7,,,,,,,ctch,resources/DB.BMP,resources/DG.BMP,Door4,0.331111111,0.021111111,1,0,0,1.429,optionRight,80,2185,1,41,0,41,0,1,,,,,,,,,,,,,,,,,,,,,,,,,,,,,,,,,,,,,,,
,,,,,,,,2023-08-16_08h48.13.712,HF_wild_card,2022.2.4,MacIntel,58.82352941,5b1e614fbd262e0001491796,64d2fd46c836a06233681665,64dc7c7caf8ed5d2580334a7,,,,,,,decisionTrl,resources/DB.BMP,resources/DP.BMP,Door2,0.363333333,-0.026666667,1,0,0,1.377,optionRight,40,2225,1,42,0,42,0,1,,,,,,,,,,,,,,,,,,,,,,,,,,,,,,,,,,,,,,,
,,,,,,,,2023-08-16_08h48.13.712,HF_wild_card,2022.2.4,MacIntel,58.82352941,5b1e614fbd262e0001491796,64d2fd46c836a06233681665,64dc7c7caf8ed5d2580334a7,,,,,,,decisionTrl,resources/DG.BMP,resources/DY.BMP,Door4,-0.165555556,0.042222222,1,0,0,1.829,optionLeft,60,2285,1,43,0,43,0,1,,,,,,,,,,,,,,,,,,,,,,,,,,,,,,,,,,,,,,,
,,,,,,,,2023-08-16_08h48.13.712,HF_wild_card,2022.2.4,MacIntel,58.82352941,5b1e614fbd262e0001491796,64d2fd46c836a06233681665,64dc7c7caf8ed5d2580334a7,,,,,,,,,,,,,,,,,,,,,,,,,,0,0,0,0,1,,,,,,,,,,,,,,,,,,,,,,,,,,,,,,,,,,
,,,,,,,,2023-08-16_08h48.13.712,HF_wild_card,2022.2.4,MacIntel,58.82352941,5b1e614fbd262e0001491796,64d2fd46c836a06233681665,64dc7c7caf8ed5d2580334a7,,,,,,,decisionTrl,resources/DB.BMP,resources/DP.BMP,Door2,0.351111111,-0.018888889,1,0,0,1.287,optionRight,20,2305,2,0,0,0,0,1,,,,,,,,,,,,,,,,,,,,,,,,,,,,,,,,,,,,,,,
,,,,,,,,2023-08-16_08h48.13.712,HF_wild_card,2022.2.4,MacIntel,58.82352941,5b1e614fbd262e0001491796,64d2fd46c836a06233681665,64dc7c7caf8ed5d2580334a7,,,,,,,sngl,resources/Empty.png,resources/DB.BMP,Door1,0.28,0.035555556,1,0,0,0.728,optionRight,30,2335,2,1,0,1,0,1,,,,,,,,,,,,,,,,,,,,,,,,,,,,,,,,,,,,,,,
,,,,,,,,2023-08-16_08h48.13.712,HF_wild_card,2022.2.4,MacIntel,58.82352941,5b1e614fbd262e0001491796,64d2fd46c836a06233681665,64dc7c7caf8ed5d2580334a7,,,,,,,decisionTrl,resources/DG.BMP,resources/DR.BMP,Door3,0.306666667,-0.026666667,1,0,0,1.712,optionRight,70,2405,2,2,0,2,0,1,,,,,,,,,,,,,,,,,,,,,,,,,,,,,,,,,,,,,,,
,,,,,,,,2023-08-16_08h48.13.712,HF_wild_card,2022.2.4,MacIntel,58.82352941,5b1e614fbd262e0001491796,64d2fd46c836a06233681665,64dc7c7caf8ed5d2580334a7,,,,,,,sngl,resources/Empty.png,resources/DY.BMP,WildCard_NonEx,0.432222222,-0.06,1,0,0,0.862,optionRight,55,2460,2,3,0,3,0,1,,,,,,,,,,,,,,,,,,,,,,,,,,,,,,,,,,,,,,,
,,,,,,,,2023-08-16_08h48.13.712,HF_wild_card,2022.2.4,MacIntel,58.82352941,5b1e614fbd262e0001491796,64d2fd46c836a06233681665,64dc7c7caf8ed5d2580334a7,,,,,,,decisionTrl,resources/DB.BMP,resources/DY.BMP,WildCard_NonEx,0.471111111,0.046666667,1,0,0,1.827,optionRight,55,2515,2,4,0,4,0,1,,,,,,,,,,,,,,,,,,,,,,,,,,,,,,,,,,,,,,,
,,,,,,,,2023-08-16_08h48.13.712,HF_wild_card,2022.2.4,MacIntel,58.82352941,5b1e614fbd262e0001491796,64d2fd46c836a06233681665,64dc7c7caf8ed5d2580334a7,,,,,,,decisionTrl,resources/DB.BMP,resources/DP.BMP,Door2,0.286666667,-0.047777778,1,0,0,1.361,optionRight,40,2555,2,5,0,5,0,1,,,,,,,,,,,,,,,,,,,,,,,,,,,,,,,,,,,,,,,
,,,,,,,,2023-08-16_08h48.13.712,HF_wild_card,2022.2.4,MacIntel,58.82352941,5b1e614fbd262e0001491796,64d2fd46c836a06233681665,64dc7c7caf8ed5d2580334a7,,,,,,,decisionTrl,resources/DB.BMP,resources/DP.BMP,Door2,0.397777778,-0.04,1,0,0,0.978,optionRight,40,2595,2,6,0,6,0,1,,,,,,,,,,,,,,,,,,,,,,,,,,,,,,,,,,,,,,,
,,,,,,,,2023-08-16_08h48.13.712,HF_wild_card,2022.2.4,MacIntel,58.82352941,5b1e614fbd262e0001491796,64d2fd46c836a06233681665,64dc7c7caf8ed5d2580334a7,,,,,,,sngl,resources/DP.BMP,resources/Empty.png,Door2,-0.328888889,0.022222222,1,0,0,0.595,optionLeft,20,2615,2,7,0,7,0,1,,,,,,,,,,,,,,,,,,,,,,,,,,,,,,,,,,,,,,,
,,,,,,,,2023-08-16_08h48.13.712,HF_wild_card,2022.2.4,MacIntel,58.82352941,5b1e614fbd262e0001491796,64d2fd46c836a06233681665,64dc7c7caf8ed5d2580334a7,,,,,,,decisionTrl,resources/DG.BMP,resources/DY.BMP,WildCard_NonEx,0.385555556,-0.026666667,1,0,0,0.76,optionRight,55,2670,2,8,0,8,0,1,,,,,,,,,,,,,,,,,,,,,,,,,,,,,,,,,,,,,,,
,,,,,,,,2023-08-16_08h48.13.712,HF_wild_card,2022.2.4,MacIntel,58.82352941,5b1e614fbd262e0001491796,64d2fd46c836a06233681665,64dc7c7caf8ed5d2580334a7,,,,,,,decisionTrl,resources/DY.BMP,resources/DR.BMP,Door3,0.321111111,0.005555556,1,0,0,1.03,optionRight,70,2740,2,9,0,9,0,1,,,,,,,,,,,,,,,,,,,,,,,,,,,,,,,,,,,,,,,
,,,,,,,,2023-08-16_08h48.13.712,HF_wild_card,2022.2.4,MacIntel,58.82352941,5b1e614fbd262e0001491796,64d2fd46c836a06233681665,64dc7c7caf8ed5d2580334a7,,,,,,,decisionTrl,resources/DY.BMP,resources/DG.BMP,Door4,0.363333333,-0.022222222,1,0,0,1.028,optionRight,60,2800,2,10,0,10,0,1,,,,,,,,,,,,,,,,,,,,,,,,,,,,,,,,,,,,,,,
,,,,,,,,2023-08-16_08h48.13.712,HF_wild_card,2022.2.4,MacIntel,58.82352941,5b1e614fbd262e0001491796,64d2fd46c836a06233681665,64dc7c7caf8ed5d2580334a7,,,,,,,decisionTrl,resources/DP.BMP,resources/DB.BMP,Door2,-0.241111111,0.048888889,1,0,0,0.876,optionLeft,40,2840,2,11,0,11,0,1,,,,,,,,,,,,,,,,,,,,,,,,,,,,,,,,,,,,,,,
,,,,,,,,2023-08-16_08h48.13.712,HF_wild_card,2022.2.4,MacIntel,58.82352941,5b1e614fbd262e0001491796,64d2fd46c836a06233681665,64dc7c7caf8ed5d2580334a7,,,,,,,ctch,resources/DB.BMP,resources/DG.BMP,Door1,-0.258888889,0.026666667,1,0,0,1.077,optionLeft,30,2870,2,12,0,12,0,1,,,,,,,,,,,,,,,,,,,,,,,,,,,,,,,,,,,,,,,
,,,,,,,,2023-08-16_08h48.13.712,HF_wild_card,2022.2.4,MacIntel,58.82352941,5b1e614fbd262e0001491796,64d2fd46c836a06233681665,64dc7c7caf8ed5d2580334a7,,,,,,,decisionTrl,resources/DP.BMP,resources/DY.BMP,Door2,-0.257777778,-0.094444444,1,0,0,1.144,optionLeft,20,2890,2,13,0,13,0,1,,,,,,,,,,,,,,,,,,,,,,,,,,,,,,,,,,,,,,,
,,,,,,,,2023-08-16_08h48.13.712,HF_wild_card,2022.2.4,MacIntel,58.82352941,5b1e614fbd262e0001491796,64d2fd46c836a06233681665,64dc7c7caf8ed5d2580334a7,,,,,,,decisionTrl,resources/DY.BMP,resources/DP.BMP,WildCard_NonEx,-0.227777778,-0.002222222,1,0,0,1.444,optionLeft,45,2935,2,14,0,14,0,1,,,,,,,,,,,,,,,,,,,,,,,,,,,,,,,,,,,,,,,
,,,,,,,,2023-08-16_08h48.13.712,HF_wild_card,2022.2.4,MacIntel,58.82352941,5b1e614fbd262e0001491796,64d2fd46c836a06233681665,64dc7c7caf8ed5d2580334a7,,,,,,,sngl,resources/DB.BMP,resources/Empty.png,Door1,-0.227777778,0.037777778,1,0,0,1.31,optionLeft,30,2965,2,15,0,15,0,1,,,,,,,,,,,,,,,,,,,,,,,,,,,,,,,,,,,,,,,
,,,,,,,,2023-08-16_08h48.13.712,HF_wild_card,2022.2.4,MacIntel,58.82352941,5b1e614fbd262e0001491796,64d2fd46c836a06233681665,64dc7c7caf8ed5d2580334a7,,,,,,,decisionTrl,resources/DR.BMP,resources/DG.BMP,Door3,-0.222222222,0.051111111,1,0,0,1.027,optionLeft,70,3035,2,16,0,16,0,1,,,,,,,,,,,,,,,,,,,,,,,,,,,,,,,,,,,,,,,
,,,,,,,,2023-08-16_08h48.13.712,HF_wild_card,2022.2.4,MacIntel,58.82352941,5b1e614fbd262e0001491796,64d2fd46c836a06233681665,64dc7c7caf8ed5d2580334a7,,,,,,,ctch,resources/DP.BMP,resources/DR.BMP,Door2,-0.214444444,0.052222222,1,0,0,1.413,optionLeft,20,3055,2,17,0,17,0,1,,,,,,,,,,,,,,,,,,,,,,,,,,,,,,,,,,,,,,,
,,,,,,,,2023-08-16_08h48.13.712,HF_wild_card,2022.2.4,MacIntel,58.82352941,5b1e614fbd262e0001491796,64d2fd46c836a06233681665,64dc7c7caf8ed5d2580334a7,,,,,,,sngl,resources/Empty.png,resources/DG.BMP,Door4,0.39,0,1,0,0,0.912,optionRight,80,3135,2,18,0,18,0,1,,,,,,,,,,,,,,,,,,,,,,,,,,,,,,,,,,,,,,,
,,,,,,,,2023-08-16_08h48.13.712,HF_wild_card,2022.2.4,MacIntel,58.82352941,5b1e614fbd262e0001491796,64d2fd46c836a06233681665,64dc7c7caf8ed5d2580334a7,,,,,,,decisionTrl,resources/DB.BMP,resources/DP.BMP,Door2,0.232222222,-0.008888889,1,0,0,1.078,optionRight,20,3155,2,19,0,19,0,1,,,,,,,,,,,,,,,,,,,,,,,,,,,,,,,,,,,,,,,
,,,,,,,,2023-08-16_08h48.13.712,HF_wild_card,2022.2.4,MacIntel,58.82352941,5b1e614fbd262e0001491796,64d2fd46c836a06233681665,64dc7c7caf8ed5d2580334a7,,,,,,,decisionTrl,resources/DP.BMP,resources/DB.BMP,Door2,-0.225555556,0.03,1,0,0,1.06,optionLeft,40,3195,2,20,0,20,0,1,,,,,,,,,,,,,,,,,,,,,,,,,,,,,,,,,,,,,,,
,,,,,,,,2023-08-16_08h48.13.712,HF_wild_card,2022.2.4,MacIntel,58.82352941,5b1e614fbd262e0001491796,64d2fd46c836a06233681665,64dc7c7caf8ed5d2580334a7,,,,,,,decisionTrl,resources/DR.BMP,resources/DG.BMP,Door3,-0.326666667,0.031111111,1,0,0,1.06,optionLeft,70,3265,2,21,0,21,0,1,,,,,,,,,,,,,,,,,,,,,,,,,,,,,,,,,,,,,,,
,,,,,,,,2023-08-16_08h48.13.712,HF_wild_card,2022.2.4,MacIntel,58.82352941,5b1e614fbd262e0001491796,64d2fd46c836a06233681665,64dc7c7caf8ed5d2580334a7,,,,,,,ctch,resources/DP.BMP,resources/DR.BMP,Door3,0.373333333,0.023333333,1,0,0,0.676,optionRight,70,3335,2,22,0,22,0,1,,,,,,,,,,,,,,,,,,,,,,,,,,,,,,,,,,,,,,,
,,,,,,,,2023-08-16_08h48.13.712,HF_wild_card,2022.2.4,MacIntel,58.82352941,5b1e614fbd262e0001491796,64d2fd46c836a06233681665,64dc7c7caf8ed5d2580334a7,,,,,,,decisionTrl,resources/DR.BMP,resources/DG.BMP,Door3,-0.32,0.041111111,1,0,0,0.609,optionLeft,70,3405,2,23,0,23,0,1,,,,,,,,,,,,,,,,,,,,,,,,,,,,,,,,,,,,,,,
,,,,,,,,2023-08-16_08h48.13.712,HF_wild_card,2022.2.4,MacIntel,58.82352941,5b1e614fbd262e0001491796,64d2fd46c836a06233681665,64dc7c7caf8ed5d2580334a7,,,,,,,decisionTrl,resources/DG.BMP,resources/DR.BMP,Door4,-0.364444444,0.081111111,1,0,0,0.86,optionLeft,80,3485,2,24,0,24,0,1,,,,,,,,,,,,,,,,,,,,,,,,,,,,,,,,,,,,,,,
,,,,,,,,2023-08-16_08h48.13.712,HF_wild_card,2022.2.4,MacIntel,58.82352941,5b1e614fbd262e0001491796,64d2fd46c836a06233681665,64dc7c7caf8ed5d2580334a7,,,,,,,decisionTrl,resources/DG.BMP,resources/DR.BMP,Door4,-0.301111111,0.036666667,1,0,0,0.677,optionLeft,60,3545,2,25,0,25,0,1,,,,,,,,,,,,,,,,,,,,,,,,,,,,,,,,,,,,,,,
,,,,,,,,2023-08-16_08h48.13.712,HF_wild_card,2022.2.4,MacIntel,58.82352941,5b1e614fbd262e0001491796,64d2fd46c836a06233681665,64dc7c7caf8ed5d2580334a7,,,,,,,sngl,resources/DY.BMP,resources/Empty.png,WildCard_NonEx,-0.292222222,0.063333333,1,0,0,0.694,optionLeft,45,3590,2,26,0,26,0,1,,,,,,,,,,,,,,,,,,,,,,,,,,,,,,,,,,,,,,,
,,,,,,,,2023-08-16_08h48.13.712,HF_wild_card,2022.2.4,MacIntel,58.82352941,5b1e614fbd262e0001491796,64d2fd46c836a06233681665,64dc7c7caf8ed5d2580334a7,,,,,,,sngl,resources/Empty.png,resources/DR.BMP,Door3,0.427777778,0.021111111,1,0,0,0.644,optionRight,70,3660,2,27,0,27,0,1,,,,,,,,,,,,,,,,,,,,,,,,,,,,,,,,,,,,,,,
,,,,,,,,2023-08-16_08h48.13.712,HF_wild_card,2022.2.4,MacIntel,58.82352941,5b1e614fbd262e0001491796,64d2fd46c836a06233681665,64dc7c7caf8ed5d2580334a7,,,,,,,decisionTrl,resources/DR.BMP,resources/DY.BMP,WildCard_NonEx,0.372222222,0.047777778,1,0,0,1.027,optionRight,55,3715,2,28,0,28,0,1,,,,,,,,,,,,,,,,,,,,,,,,,,,,,,,,,,,,,,,
,,,,,,,,2023-08-16_08h48.13.712,HF_wild_card,2022.2.4,MacIntel,58.82352941,5b1e614fbd262e0001491796,64d2fd46c836a06233681665,64dc7c7caf8ed5d2580334a7,,,,,,,ctch,resources/DB.BMP,resources/DG.BMP,Door4,0.26,0.024444444,1,0,0,1.111,optionRight,80,3795,2,29,0,29,0,1,,,,,,,,,,,,,,,,,,,,,,,,,,,,,,,,,,,,,,,
,,,,,,,,2023-08-16_08h48.13.712,HF_wild_card,2022.2.4,MacIntel,58.82352941,5b1e614fbd262e0001491796,64d2fd46c836a06233681665,64dc7c7caf8ed5d2580334a7,,,,,,,sngl,resources/Empty.png,resources/DY.BMP,WildCard_NonEx,0.238888889,0.007777778,1,0,0,0.56,optionRight,45,3840,2,30,0,30,0,1,,,,,,,,,,,,,,,,,,,,,,,,,,,,,,,,,,,,,,,
,,,,,,,,2023-08-16_08h48.13.712,HF_wild_card,2022.2.4,MacIntel,58.82352941,5b1e614fbd262e0001491796,64d2fd46c836a06233681665,64dc7c7caf8ed5d2580334a7,,,,,,,sngl,resources/Empty.png,resources/DP.BMP,Door2,0.295555556,0.007777778,1,0,0,0.527,optionRight,40,3880,2,31,0,31,0,1,,,,,,,,,,,,,,,,,,,,,,,,,,,,,,,,,,,,,,,
,,,,,,,,2023-08-16_08h48.13.712,HF_wild_card,2022.2.4,MacIntel,58.82352941,5b1e614fbd262e0001491796,64d2fd46c836a06233681665,64dc7c7caf8ed5d2580334a7,,,,,,,decisionTrl,resources/DR.BMP,resources/DG.BMP,Door3,-0.282222222,-0.006666667,1,0,0,0.528,optionLeft,70,3950,2,32,0,32,0,1,,,,,,,,,,,,,,,,,,,,,,,,,,,,,,,,,,,,,,,
,,,,,,,,2023-08-16_08h48.13.712,HF_wild_card,2022.2.4,MacIntel,58.82352941,5b1e614fbd262e0001491796,64d2fd46c836a06233681665,64dc7c7caf8ed5d2580334a7,,,,,,,decisionTrl,resources/DP.BMP,resources/DB.BMP,Door2,-0.295555556,0.01,1,0,0,0.611,optionLeft,20,3970,2,33,0,33,0,1,,,,,,,,,,,,,,,,,,,,,,,,,,,,,,,,,,,,,,,
,,,,,,,,2023-08-16_08h48.13.712,HF_wild_card,2022.2.4,MacIntel,58.82352941,5b1e614fbd262e0001491796,64d2fd46c836a06233681665,64dc7c7caf8ed5d2580334a7,,,,,,,decisionTrl,resources/DY.BMP,resources/DB.BMP,WildCard_NonEx,-0.326666667,-0.003333333,1,0,0,0.845,optionLeft,45,4015,2,34,0,34,0,1,,,,,,,,,,,,,,,,,,,,,,,,,,,,,,,,,,,,,,,
,,,,,,,,2023-08-16_08h48.13.712,HF_wild_card,2022.2.4,MacIntel,58.82352941,5b1e614fbd262e0001491796,64d2fd46c836a06233681665,64dc7c7caf8ed5d2580334a7,,,,,,,ctch,resources/DR.BMP,resources/DP.BMP,Door2,0.358888889,0.003333333,1,0,0,0.695,optionRight,20,4035,2,35,0,35,0,1,,,,,,,,,,,,,,,,,,,,,,,,,,,,,,,,,,,,,,,
,,,,,,,,2023-08-16_08h48.13.712,HF_wild_card,2022.2.4,MacIntel,58.82352941,5b1e614fbd262e0001491796,64d2fd46c836a06233681665,64dc7c7caf8ed5d2580334a7,,,,,,,sngl,resources/DY.BMP,resources/Empty.png,WildCard_NonEx,-0.267777778,0.022222222,1,0,0,0.51,optionLeft,55,4090,2,36,0,36,0,1,,,,,,,,,,,,,,,,,,,,,,,,,,,,,,,,,,,,,,,
,,,,,,,,2023-08-16_08h48.13.712,HF_wild_card,2022.2.4,MacIntel,58.82352941,5b1e614fbd262e0001491796,64d2fd46c836a06233681665,64dc7c7caf8ed5d2580334a7,,,,,,,ctch,resources/DG.BMP,resources/DB.BMP,Door4,-0.281111111,0.06,1,0,0,0.894,optionLeft,80,4170,2,37,0,37,0,1,,,,,,,,,,,,,,,,,,,,,,,,,,,,,,,,,,,,,,,
,,,,,,,,2023-08-16_08h48.13.712,HF_wild_card,2022.2.4,MacIntel,58.82352941,5b1e614fbd262e0001491796,64d2fd46c836a06233681665,64dc7c7caf8ed5d2580334a7,,,,,,,decisionTrl,resources/DG.BMP,resources/DR.BMP,Door4,-0.33,0.021111111,1,0,0,0.495,optionLeft,60,4230,2,38,0,38,0,1,,,,,,,,,,,,,,,,,,,,,,,,,,,,,,,,,,,,,,,
,,,,,,,,2023-08-16_08h48.13.712,HF_wild_card,2022.2.4,MacIntel,58.82352941,5b1e614fbd262e0001491796,64d2fd46c836a06233681665,64dc7c7caf8ed5d2580334a7,,,,,,,sngl,resources/DG.BMP,resources/Empty.png,Door4,-0.363333333,0.02,1,0,0,0.56,optionLeft,60,4290,2,39,0,39,0,1,,,,,,,,,,,,,,,,,,,,,,,,,,,,,,,,,,,,,,,
,,,,,,,,2023-08-16_08h48.13.712,HF_wild_card,2022.2.4,MacIntel,58.82352941,5b1e614fbd262e0001491796,64d2fd46c836a06233681665,64dc7c7caf8ed5d2580334a7,,,,,,,sngl,resources/DR.BMP,resources/Empty.png,Door3,-0.324444444,0.038888889,1,0,0,0.545,optionLeft,70,4360,2,40,0,40,0,1,,,,,,,,,,,,,,,,,,,,,,,,,,,,,,,,,,,,,,,
,,,,,,,,2023-08-16_08h48.13.712,HF_wild_card,2022.2.4,MacIntel,58.82352941,5b1e614fbd262e0001491796,64d2fd46c836a06233681665,64dc7c7caf8ed5d2580334a7,,,,,,,ctch,resources/DR.BMP,resources/DP.BMP,Door3,-0.314444444,0.041111111,1,0,0,0.56,optionLeft,70,4430,2,41,0,41,0,1,,,,,,,,,,,,,,,,,,,,,,,,,,,,,,,,,,,,,,,
,,,,,,,,2023-08-16_08h48.13.712,HF_wild_card,2022.2.4,MacIntel,58.82352941,5b1e614fbd262e0001491796,64d2fd46c836a06233681665,64dc7c7caf8ed5d2580334a7,,,,,,,ctch,resources/DG.BMP,resources/DB.BMP,Door4,-0.23,0.044444444,1,0,0,0.66,optionLeft,80,4510,2,42,0,42,0,1,,,,,,,,,,,,,,,,,,,,,,,,,,,,,,,,,,,,,,,
,,,,,,,,2023-08-16_08h48.13.712,HF_wild_card,2022.2.4,MacIntel,58.82352941,5b1e614fbd262e0001491796,64d2fd46c836a06233681665,64dc7c7caf8ed5d2580334a7,,,,,,,decisionTrl,resources/DP.BMP,resources/DB.BMP,Door2,-0.258888889,0.046666667,1,0,0,0.994,optionLeft,20,4530,2,43,0,43,0,1,,,,,,,,,,,,,,,,,,,,,,,,,,,,,,,,,,,,,,,
,,,,,,,,2023-08-16_08h48.13.712,HF_wild_card,2022.2.4,MacIntel,58.82352941,5b1e614fbd262e0001491796,64d2fd46c836a06233681665,64dc7c7caf8ed5d2580334a7,,,,,,,,,,,,,,,,,,,,,,,,,,1,0,1,0,1,,,,,,,,,,,,,,,,,,,,,,,,,,,,,,,,,,
,,,,,,,,2023-08-16_08h48.13.712,HF_wild_card,2022.2.4,MacIntel,58.82352941,5b1e614fbd262e0001491796,64d2fd46c836a06233681665,64dc7c7caf8ed5d2580334a7,,,,,,,decisionTrl,resources/DB.BMP,resources/DP.BMP,Door2,0.381111111,-0.062222222,1,0,0,1.108,optionRight,20,4550,3,0,0,0,0,1,,,,,,,,,,,,,,,,,,,,,,,,,,,,,,,,,,,,,,,
,,,,,,,,2023-08-16_08h48.13.712,HF_wild_card,2022.2.4,MacIntel,58.82352941,5b1e614fbd262e0001491796,64d2fd46c836a06233681665,64dc7c7caf8ed5d2580334a7,,,,,,,sngl,resources/DB.BMP,resources/Empty.png,Door1,-0.26,-0.007777778,1,0,0,0.862,optionLeft,30,4580,3,1,0,1,0,1,,,,,,,,,,,,,,,,,,,,,,,,,,,,,,,,,,,,,,,
,,,,,,,,2023-08-16_08h48.13.712,HF_wild_card,2022.2.4,MacIntel,58.82352941,5b1e614fbd262e0001491796,64d2fd46c836a06233681665,64dc7c7caf8ed5d2580334a7,,,,,,,decisionTrl,resources/DB.BMP,resources/DP.BMP,Door2,0.33,-0.025555556,1,0,0,0.66,optionRight,40,4620,3,2,0,2,0,1,,,,,,,,,,,,,,,,,,,,,,,,,,,,,,,,,,,,,,,
,,,,,,,,2023-08-16_08h48.13.712,HF_wild_card,2022.2.4,MacIntel,58.82352941,5b1e614fbd262e0001491796,64d2fd46c836a06233681665,64dc7c7caf8ed5d2580334a7,,,,,,,ctch,resources/DB.BMP,resources/DG.BMP,Door4,0.407777778,0.021111111,1,0,0,1.011,optionRight,60,4680,3,3,0,3,0,1,,,,,,,,,,,,,,,,,,,,,,,,,,,,,,,,,,,,,,,
,,,,,,,,2023-08-16_08h48.13.712,HF_wild_card,2022.2.4,MacIntel,58.82352941,5b1e614fbd262e0001491796,64d2fd46c836a06233681665,64dc7c7caf8ed5d2580334a7,,,,,,,decisionTrl,resources/DP.BMP,resources/DB.BMP,Door2,-0.336666667,0.005555556,1,0,0,0.893,optionLeft,20,4700,3,4,0,4,0,1,,,,,,,,,,,,,,,,,,,,,,,,,,,,,,,,,,,,,,,
,,,,,,,,2023-08-16_08h48.13.712,HF_wild_card,2022.2.4,MacIntel,58.82352941,5b1e614fbd262e0001491796,64d2fd46c836a06233681665,64dc7c7caf8ed5d2580334a7,,,,,,,sngl,resources/Empty.png,resources/DG.BMP,Door4,0.363333333,-0.006666667,1,0,0,0.509,optionRight,60,4760,3,5,0,5,0,1,,,,,,,,,,,,,,,,,,,,,,,,,,,,,,,,,,,,,,,
,,,,,,,,2023-08-16_08h48.13.712,HF_wild_card,2022.2.4,MacIntel,58.82352941,5b1e614fbd262e0001491796,64d2fd46c836a06233681665,64dc7c7caf8ed5d2580334a7,,,,,,,sngl,resources/Empty.png,resources/DP.BMP,Door2,0.314444444,-0.03,1,0,0,0.71,optionRight,20,4780,3,6,0,6,0,1,,,,,,,,,,,,,,,,,,,,,,,,,,,,,,,,,,,,,,,
,,,,,,,,2023-08-16_08h48.13.712,HF_wild_card,2022.2.4,MacIntel,58.82352941,5b1e614fbd262e0001491796,64d2fd46c836a06233681665,64dc7c7caf8ed5d2580334a7,,,,,,,sngl,resources/Empty.png,resources/DY.BMP,WildCard_NonEx,0.368888889,-0.005555556,1,0,0,0.627,optionRight,55,4835,3,7,0,7,0,1,,,,,,,,,,,,,,,,,,,,,,,,,,,,,,,,,,,,,,,
,,,,,,,,2023-08-16_08h48.13.712,HF_wild_card,2022.2.4,MacIntel,58.82352941,5b1e614fbd262e0001491796,64d2fd46c836a06233681665,64dc7c7caf8ed5d2580334a7,,,,,,,decisionTrl,resources/DY.BMP,resources/DR.BMP,WildCard_NonEx,-0.381111111,0.013333333,1,0,0,0.561,optionLeft,45,4880,3,8,0,8,0,1,,,,,,,,,,,,,,,,,,,,,,,,,,,,,,,,,,,,,,,
,,,,,,,,2023-08-16_08h48.13.712,HF_wild_card,2022.2.4,MacIntel,58.82352941,5b1e614fbd262e0001491796,64d2fd46c836a06233681665,64dc7c7caf8ed5d2580334a7,,,,,,,decisionTrl,resources/DR.BMP,resources/DG.BMP,Door3,-0.318888889,0.005555556,1,0,0,0.593,optionLeft,70,4950,3,9,0,9,0,1,,,,,,,,,,,,,,,,,,,,,,,,,,,,,,,,,,,,,,,
,,,,,,,,2023-08-16_08h48.13.712,HF_wild_card,2022.2.4,MacIntel,58.82352941,5b1e614fbd262e0001491796,64d2fd46c836a06233681665,64dc7c7caf8ed5d2580334a7,,,,,,,ctch,resources/DG.BMP,resources/DB.BMP,Door4,-0.281111111,-0.004444444,1,0,0,0.693,optionLeft,60,5010,3,10,0,10,0,1,,,,,,,,,,,,,,,,,,,,,,,,,,,,,,,,,,,,,,,
,,,,,,,,2023-08-16_08h48.13.712,HF_wild_card,2022.2.4,MacIntel,58.82352941,5b1e614fbd262e0001491796,64d2fd46c836a06233681665,64dc7c7caf8ed5d2580334a7,,,,,,,decisionTrl,resources/DG.BMP,resources/DY.BMP,Door4,-0.374444444,0.014444444,1,0,0,0.56,optionLeft,80,5090,3,11,0,11,0,1,,,,,,,,,,,,,,,,,,,,,,,,,,,,,,,,,,,,,,,
,,,,,,,,2023-08-16_08h48.13.712,HF_wild_card,2022.2.4,MacIntel,58.82352941,5b1e614fbd262e0001491796,64d2fd46c836a06233681665,64dc7c7caf8ed5d2580334a7,,,,,,,ctch,resources/DP.BMP,resources/DR.BMP,Door3,0.313333333,-0.011111111,1,0,0,0.777,optionRight,70,5160,3,12,0,12,0,1,,,,,,,,,,,,,,,,,,,,,,,,,,,,,,,,,,,,,,,
,,,,,,,,2023-08-16_08h48.13.712,HF_wild_card,2022.2.4,MacIntel,58.82352941,5b1e614fbd262e0001491796,64d2fd46c836a06233681665,64dc7c7caf8ed5d2580334a7,,,,,,,ctch,resources/DR.BMP,resources/DP.BMP,Door3,-0.27,0.001111111,1,0,0,0.527,optionLeft,70,5230,3,13,0,13,0,1,,,,,,,,,,,,,,,,,,,,,,,,,,,,,,,,,,,,,,,
,,,,,,,,2023-08-16_08h48.13.712,HF_wild_card,2022.2.4,MacIntel,58.82352941,5b1e614fbd262e0001491796,64d2fd46c836a06233681665,64dc7c7caf8ed5d2580334a7,,,,,,,sngl,resources/DR.BMP,resources/Empty.png,Door3,-0.246666667,-0.01,1,0,0,0.578,optionLeft,70,5300,3,14,0,14,0,1,,,,,,,,,,,,,,,,,,,,,,,,,,,,,,,,,,,,,,,
,,,,,,,,2023-08-16_08h48.13.712,HF_wild_card,2022.2.4,MacIntel,58.82352941,5b1e614fbd262e0001491796,64d2fd46c836a06233681665,64dc7c7caf8ed5d2580334a7,,,,,,,decisionTrl,resources/DR.BMP,resources/DY.BMP,Door3,-0.317777778,0.052222222,1,0,0,1.127,optionLeft,70,5370,3,15,0,15,0,1,,,,,,,,,,,,,,,,,,,,,,,,,,,,,,,,,,,,,,,
,,,,,,,,2023-08-16_08h48.13.712,HF_wild_card,2022.2.4,MacIntel,58.82352941,5b1e614fbd262e0001491796,64d2fd46c836a06233681665,64dc7c7caf8ed5d2580334a7,,,,,,,decisionTrl,resources/DG.BMP,resources/DR.BMP,Door4,-0.265555556,-0.022222222,1,0,0,0.877,optionLeft,60,5430,3,16,0,16,0,1,,,,,,,,,,,,,,,,,,,,,,,,,,,,,,,,,,,,,,,
,,,,,,,,2023-08-16_08h48.13.712,HF_wild_card,2022.2.4,MacIntel,58.82352941,5b1e614fbd262e0001491796,64d2fd46c836a06233681665,64dc7c7caf8ed5d2580334a7,,,,,,,decisionTrl,resources/DB.BMP,resources/DP.BMP,Door1,-0.332222222,-0.036666667,1,0,0,1.595,optionLeft,30,5460,3,17,0,17,0,1,,,,,,,,,,,,,,,,,,,,,,,,,,,,,,,,,,,,,,,
,,,,,,,,2023-08-16_08h48.13.712,HF_wild_card,2022.2.4,MacIntel,58.82352941,5b1e614fbd262e0001491796,64d2fd46c836a06233681665,64dc7c7caf8ed5d2580334a7,,,,,,,decisionTrl,resources/DY.BMP,resources/DB.BMP,WildCard_NonEx,-0.264444444,-0.102222222,1,0,0,0.761,optionLeft,55,5515,3,18,0,18,0,1,,,,,,,,,,,,,,,,,,,,,,,,,,,,,,,,,,,,,,,
,,,,,,,,2023-08-16_08h48.13.712,HF_wild_card,2022.2.4,MacIntel,58.82352941,5b1e614fbd262e0001491796,64d2fd46c836a06233681665,64dc7c7caf8ed5d2580334a7,,,,,,,ctch,resources/DP.BMP,resources/DR.BMP,Door3,0.345555556,0.001111111,1,0,0,0.678,optionRight,70,5585,3,19,0,19,0,1,,,,,,,,,,,,,,,,,,,,,,,,,,,,,,,,,,,,,,,
,,,,,,,,2023-08-16_08h48.13.712,HF_wild_card,2022.2.4,MacIntel,58.82352941,5b1e614fbd262e0001491796,64d2fd46c836a06233681665,64dc7c7caf8ed5d2580334a7,,,,,,,decisionTrl,resources/DP.BMP,resources/DY.BMP,WildCard_NonEx,0.285555556,-0.033333333,1,0,0,1.062,optionRight,55,5640,3,20,0,20,0,1,,,,,,,,,,,,,,,,,,,,,,,,,,,,,,,,,,,,,,,
,,,,,,,,2023-08-16_08h48.13.712,HF_wild_card,2022.2.4,MacIntel,58.82352941,5b1e614fbd262e0001491796,64d2fd46c836a06233681665,64dc7c7caf8ed5d2580334a7,,,,,,,decisionTrl,resources/DP.BMP,resources/DB.BMP,Door2,-0.231111111,0.007777778,1,0,0,2.61,optionLeft,20,5660,3,21,0,21,0,1,,,,,,,,,,,,,,,,,,,,,,,,,,,,,,,,,,,,,,,
,,,,,,,,2023-08-16_08h48.13.712,HF_wild_card,2022.2.4,MacIntel,58.82352941,5b1e614fbd262e0001491796,64d2fd46c836a06233681665,64dc7c7caf8ed5d2580334a7,,,,,,,decisionTrl,resources/DG.BMP,resources/DR.BMP,Door3,0.326666667,-0.003333333,1,0,0,0.793,optionRight,70,5730,3,22,0,22,0,1,,,,,,,,,,,,,,,,,,,,,,,,,,,,,,,,,,,,,,,
,,,,,,,,2023-08-16_08h48.13.712,HF_wild_card,2022.2.4,MacIntel,58.82352941,5b1e614fbd262e0001491796,64d2fd46c836a06233681665,64dc7c7caf8ed5d2580334a7,,,,,,,ctch,resources/DR.BMP,resources/DP.BMP,Door3,-0.268888889,0.012222222,1,0,0,0.608,optionLeft,70,5800,3,23,0,23,0,1,,,,,,,,,,,,,,,,,,,,,,,,,,,,,,,,,,,,,,,
,,,,,,,,2023-08-16_08h48.13.712,HF_wild_card,2022.2.4,MacIntel,58.82352941,5b1e614fbd262e0001491796,64d2fd46c836a06233681665,64dc7c7caf8ed5d2580334a7,,,,,,,sngl,resources/Empty.png,resources/DR.BMP,Door3,0.267777778,-0.007777778,1,0,0,0.528,optionRight,70,5870,3,24,0,24,0,1,,,,,,,,,,,,,,,,,,,,,,,,,,,,,,,,,,,,,,,
,,,,,,,,2023-08-16_08h48.13.712,HF_wild_card,2022.2.4,MacIntel,58.82352941,5b1e614fbd262e0001491796,64d2fd46c836a06233681665,64dc7c7caf8ed5d2580334a7,,,,,,,ctch,resources/DB.BMP,resources/DG.BMP,Door1,-0.235555556,0.037777778,1,0,0,1.877,optionLeft,30,5900,3,25,0,25,0,1,,,,,,,,,,,,,,,,,,,,,,,,,,,,,,,,,,,,,,,
,,,,,,,,2023-08-16_08h48.13.712,HF_wild_card,2022.2.4,MacIntel,58.82352941,5b1e614fbd262e0001491796,64d2fd46c836a06233681665,64dc7c7caf8ed5d2580334a7,,,,,,,decisionTrl,resources/DP.BMP,resources/DB.BMP,Door2,-0.196666667,-0.036666667,1,0,0,0.744,optionLeft,20,5920,3,26,0,26,0,1,,,,,,,,,,,,,,,,,,,,,,,,,,,,,,,,,,,,,,,
,,,,,,,,2023-08-16_08h48.13.712,HF_wild_card,2022.2.4,MacIntel,58.82352941,5b1e614fbd262e0001491796,64d2fd46c836a06233681665,64dc7c7caf8ed5d2580334a7,,,,,,,decisionTrl,resources/DR.BMP,resources/DG.BMP,Door3,-0.163333333,-0.068888889,1,0,0,0.891,optionLeft,70,5990,3,27,0,27,0,1,,,,,,,,,,,,,,,,,,,,,,,,,,,,,,,,,,,,,,,
,,,,,,,,2023-08-16_08h48.13.712,HF_wild_card,2022.2.4,MacIntel,58.82352941,5b1e614fbd262e0001491796,64d2fd46c836a06233681665,64dc7c7caf8ed5d2580334a7,,,,,,,decisionTrl,resources/DB.BMP,resources/DP.BMP,Door1,-0.21,-0.017777778,1,0,0,2.341,optionLeft,30,6020,3,28,0,28,0,1,,,,,,,,,,,,,,,,,,,,,,,,,,,,,,,,,,,,,,,
,,,,,,,,2023-08-16_08h48.13.712,HF_wild_card,2022.2.4,MacIntel,58.82352941,5b1e614fbd262e0001491796,64d2fd46c836a06233681665,64dc7c7caf8ed5d2580334a7,,,,,,,decisionTrl,resources/DP.BMP,resources/DB.BMP,Door2,-0.253333333,-0.045555556,1,0,0,1.21,optionLeft,40,6060,3,29,0,29,0,1,,,,,,,,,,,,,,,,,,,,,,,,,,,,,,,,,,,,,,,
,,,,,,,,2023-08-16_08h48.13.712,HF_wild_card,2022.2.4,MacIntel,58.82352941,5b1e614fbd262e0001491796,64d2fd46c836a06233681665,64dc7c7caf8ed5d2580334a7,,,,,,,decisionTrl,resources/DR.BMP,resources/DG.BMP,Door3,-0.282222222,-0.03,1,0,0,0.96,optionLeft,70,6130,3,30,0,30,0,1,,,,,,,,,,,,,,,,,,,,,,,,,,,,,,,,,,,,,,,
,,,,,,,,2023-08-16_08h48.13.712,HF_wild_card,2022.2.4,MacIntel,58.82352941,5b1e614fbd262e0001491796,64d2fd46c836a06233681665,64dc7c7caf8ed5d2580334a7,,,,,,,decisionTrl,resources/DR.BMP,resources/DG.BMP,Door3,-0.232222222,-0.053333333,1,0,0,0.728,optionLeft,70,6200,3,31,0,31,0,1,,,,,,,,,,,,,,,,,,,,,,,,,,,,,,,,,,,,,,,
,,,,,,,,2023-08-16_08h48.13.712,HF_wild_card,2022.2.4,MacIntel,58.82352941,5b1e614fbd262e0001491796,64d2fd46c836a06233681665,64dc7c7caf8ed5d2580334a7,,,,,,,decisionTrl,resources/DY.BMP,resources/DP.BMP,WildCard_NonEx,-0.23,0.023333333,1,0,0,2.026,optionLeft,45,6245,3,32,0,32,0,1,,,,,,,,,,,,,,,,,,,,,,,,,,,,,,,,,,,,,,,
,,,,,,,,2023-08-16_08h48.13.712,HF_wild_card,2022.2.4,MacIntel,58.82352941,5b1e614fbd262e0001491796,64d2fd46c836a06233681665,64dc7c7caf8ed5d2580334a7,,,,,,,sngl,resources/DG.BMP,resources/Empty.png,Door4,-0.276666667,0.02,1,0,0,0.727,optionLeft,80,6325,3,33,0,33,0,1,,,,,,,,,,,,,,,,,,,,,,,,,,,,,,,,,,,,,,,
,,,,,,,,2023-08-16_08h48.13.712,HF_wild_card,2022.2.4,MacIntel,58.82352941,5b1e614fbd262e0001491796,64d2fd46c836a06233681665,64dc7c7caf8ed5d2580334a7,,,,,,,decisionTrl,resources/DG.BMP,resources/DR.BMP,Door4,-0.27,-0.003333333,1,0,0,1.061,optionLeft,80,6405,3,34,0,34,0,1,,,,,,,,,,,,,,,,,,,,,,,,,,,,,,,,,,,,,,,
,,,,,,,,2023-08-16_08h48.13.712,HF_wild_card,2022.2.4,MacIntel,58.82352941,5b1e614fbd262e0001491796,64d2fd46c836a06233681665,64dc7c7caf8ed5d2580334a7,,,,,,,sngl,resources/DY.BMP,resources/Empty.png,WildCard_NonEx,-0.227777778,0.032222222,1,0,0,0.728,optionLeft,45,6450,3,35,0,35,0,1,,,,,,,,,,,,,,,,,,,,,,,,,,,,,,,,,,,,,,,
,,,,,,,,2023-08-16_08h48.13.712,HF_wild_card,2022.2.4,MacIntel,58.82352941,5b1e614fbd262e0001491796,64d2fd46c836a06233681665,64dc7c7caf8ed5d2580334a7,,,,,,,sngl,resources/DP.BMP,resources/Empty.png,Door2,-0.283333333,0.041111111,1,0,0,0.679,optionLeft,40,6490,3,36,0,36,0,1,,,,,,,,,,,,,,,,,,,,,,,,,,,,,,,,,,,,,,,
,,,,,,,,2023-08-16_08h48.13.712,HF_wild_card,2022.2.4,MacIntel,58.82352941,5b1e614fbd262e0001491796,64d2fd46c836a06233681665,64dc7c7caf8ed5d2580334a7,,,,,,,sngl,resources/Empty.png,resources/DY.BMP,WildCard_NonEx,0.323333333,-0.027777778,1,0,0,0.979,optionRight,45,6535,3,37,0,37,0,1,,,,,,,,,,,,,,,,,,,,,,,,,,,,,,,,,,,,,,,
,,,,,,,,2023-08-16_08h48.13.712,HF_wild_card,2022.2.4,MacIntel,58.82352941,5b1e614fbd262e0001491796,64d2fd46c836a06233681665,64dc7c7caf8ed5d2580334a7,,,,,,,sngl,resources/Empty.png,resources/DB.BMP,Door1,0.213333333,0.012222222,1,0,0,0.977,optionRight,30,6565,3,38,0,38,0,1,,,,,,,,,,,,,,,,,,,,,,,,,,,,,,,,,,,,,,,
,,,,,,,,2023-08-16_08h48.13.712,HF_wild_card,2022.2.4,MacIntel,58.82352941,5b1e614fbd262e0001491796,64d2fd46c836a06233681665,64dc7c7caf8ed5d2580334a7,,,,,,,decisionTrl,resources/DB.BMP,resources/DY.BMP,WildCard_NonEx,0.242222222,0.018888889,1,0,0,0.993,optionRight,55,6620,3,39,0,39,0,1,,,,,,,,,,,,,,,,,,,,,,,,,,,,,,,,,,,,,,,
,,,,,,,,2023-08-16_08h48.13.712,HF_wild_card,2022.2.4,MacIntel,58.82352941,5b1e614fbd262e0001491796,64d2fd46c836a06233681665,64dc7c7caf8ed5d2580334a7,,,,,,,decisionTrl,resources/DG.BMP,resources/DR.BMP,Door4,-0.222222222,0.016666667,1,0,0,1.393,optionLeft,80,6700,3,40,0,40,0,1,,,,,,,,,,,,,,,,,,,,,,,,,,,,,,,,,,,,,,,
,,,,,,,,2023-08-16_08h48.13.712,HF_wild_card,2022.2.4,MacIntel,58.82352941,5b1e614fbd262e0001491796,64d2fd46c836a06233681665,64dc7c7caf8ed5d2580334a7,,,,,,,sngl,resources/DY.BMP,resources/Empty.png,WildCard_NonEx,-0.232222222,0.032222222,1,0,0,0.795,optionLeft,55,6755,3,41,0,41,0,1,,,,,,,,,,,,,,,,,,,,,,,,,,,,,,,,,,,,,,,
,,,,,,,,2023-08-16_08h48.13.712,HF_wild_card,2022.2.4,MacIntel,58.82352941,5b1e614fbd262e0001491796,64d2fd46c836a06233681665,64dc7c7caf8ed5d2580334a7,,,,,,,decisionTrl,resources/DY.BMP,resources/DG.BMP,Door4,0.323333333,0.004444444,1,0,0,1.093,optionRight,80,6835,3,42,0,42,0,1,,,,,,,,,,,,,,,,,,,,,,,,,,,,,,,,,,,,,,,
,,,,,,,,2023-08-16_08h48.13.712,HF_wild_card,2022.2.4,MacIntel,58.82352941,5b1e614fbd262e0001491796,64d2fd46c836a06233681665,64dc7c7caf8ed5d2580334a7,,,,,,,ctch,resources/DG.BMP,resources/DB.BMP,Door4,-0.262222222,0,1,0,0,0.676,optionLeft,80,6915,3,43,0,43,0,1,,,,,,,,,,,,,,,,,,,,,,,,,,,,,,,,,,,,,,,
,,,,,,,,2023-08-16_08h48.13.712,HF_wild_card,2022.2.4,MacIntel,58.82352941,5b1e614fbd262e0001491796,64d2fd46c836a06233681665,64dc7c7caf8ed5d2580334a7,,,,,,,,,,,,,,,,,,,,,,,,,,2,0,2,0,1,,,,,,,,,,,,,,,,,,,,,,,,,,,,,,,,,,
,,,,,,,,2023-08-16_08h48.13.712,HF_wild_card,2022.2.4,MacIntel,58.82352941,5b1e614fbd262e0001491796,64d2fd46c836a06233681665,64dc7c7caf8ed5d2580334a7,,,,,,,ctch,resources/DP.BMP,resources/DR.BMP,Door3,0.298888889,-0.124444444,1,0,0,3.243,optionRight,70,6985,4,0,0,0,0,1,,,,,,,,,,,,,,,,,,,,,,,,,,,,,,,,,,,,,,,
,,,,,,,,2023-08-16_08h48.13.712,HF_wild_card,2022.2.4,MacIntel,58.82352941,5b1e614fbd262e0001491796,64d2fd46c836a06233681665,64dc7c7caf8ed5d2580334a7,,,,,,,decisionTrl,resources/DR.BMP,resources/DG.BMP,Door4,0.342222222,0.012222222,1,0,0,1.527,optionRight,60,7045,4,1,0,1,0,1,,,,,,,,,,,,,,,,,,,,,,,,,,,,,,,,,,,,,,,
,,,,,,,,2023-08-16_08h48.13.712,HF_wild_card,2022.2.4,MacIntel,58.82352941,5b1e614fbd262e0001491796,64d2fd46c836a06233681665,64dc7c7caf8ed5d2580334a7,,,,,,,decisionTrl,resources/DB.BMP,resources/DP.BMP,Door1,-0.223333333,0.032222222,1,0,0,2.046,optionLeft,30,7075,4,2,0,2,0,1,,,,,,,,,,,,,,,,,,,,,,,,,,,,,,,,,,,,,,,
,,,,,,,,2023-08-16_08h48.13.712,HF_wild_card,2022.2.4,MacIntel,58.82352941,5b1e614fbd262e0001491796,64d2fd46c836a06233681665,64dc7c7caf8ed5d2580334a7,,,,,,,decisionTrl,resources/DR.BMP,resources/DG.BMP,Door4,0.284444444,0.034444444,1,0,0,1.445,optionRight,60,7135,4,3,0,3,0,1,,,,,,,,,,,,,,,,,,,,,,,,,,,,,,,,,,,,,,,
,,,,,,,,2023-08-16_08h48.13.712,HF_wild_card,2022.2.4,MacIntel,58.82352941,5b1e614fbd262e0001491796,64d2fd46c836a06233681665,64dc7c7caf8ed5d2580334a7,,,,,,,decisionTrl,resources/DP.BMP,resources/DB.BMP,Door1,0.306666667,0.057777778,1,0,0,1.327,optionRight,30,7165,4,4,0,4,0,1,,,,,,,,,,,,,,,,,,,,,,,,,,,,,,,,,,,,,,,
,,,,,,,,2023-08-16_08h48.13.712,HF_wild_card,2022.2.4,MacIntel,58.82352941,5b1e614fbd262e0001491796,64d2fd46c836a06233681665,64dc7c7caf8ed5d2580334a7,,,,,,,decisionTrl,resources/DB.BMP,resources/DP.BMP,Door2,0.375555556,0.052222222,1,0,0,0.844,optionRight,40,7205,4,5,0,5,0,1,,,,,,,,,,,,,,,,,,,,,,,,,,,,,,,,,,,,,,,
,,,,,,,,2023-08-16_08h48.13.712,HF_wild_card,2022.2.4,MacIntel,58.82352941,5b1e614fbd262e0001491796,64d2fd46c836a06233681665,64dc7c7caf8ed5d2580334a7,,,,,,,decisionTrl,resources/DR.BMP,resources/DG.BMP,Door3,-0.207777778,0.017777778,1,0,0,1.061,optionLeft,70,7275,4,6,0,6,0,1,,,,,,,,,,,,,,,,,,,,,,,,,,,,,,,,,,,,,,,
,,,,,,,,2023-08-16_08h48.13.712,HF_wild_card,2022.2.4,MacIntel,58.82352941,5b1e614fbd262e0001491796,64d2fd46c836a06233681665,64dc7c7caf8ed5d2580334a7,,,,,,,decisionTrl,resources/DBN.BMP,resources/DB.BMP,WildCard_Ex,-0.242222222,0.012222222,1,0,0,1.279,optionLeft,95,7370,4,7,0,7,0,1,,,,,,,,,,,,,,,,,,,,,,,,,,,,,,,,,,,,,,,
,,,,,,,,2023-08-16_08h48.13.712,HF_wild_card,2022.2.4,MacIntel,58.82352941,5b1e614fbd262e0001491796,64d2fd46c836a06233681665,64dc7c7caf8ed5d2580334a7,,,,,,,decisionTrl,resources/DP.BMP,resources/DB.BMP,Door2,-0.24,0.055555556,1,0,0,2.479,optionLeft,20,7390,4,8,0,8,0,1,,,,,,,,,,,,,,,,,,,,,,,,,,,,,,,,,,,,,,,
,,,,,,,,2023-08-16_08h48.13.712,HF_wild_card,2022.2.4,MacIntel,58.82352941,5b1e614fbd262e0001491796,64d2fd46c836a06233681665,64dc7c7caf8ed5d2580334a7,,,,,,,ctch,resources/DR.BMP,resources/DP.BMP,Door3,-0.236666667,0.041111111,1,0,0,1.111,optionLeft,70,7460,4,9,0,9,0,1,,,,,,,,,,,,,,,,,,,,,,,,,,,,,,,,,,,,,,,
,,,,,,,,2023-08-16_08h48.13.712,HF_wild_card,2022.2.4,MacIntel,58.82352941,5b1e614fbd262e0001491796,64d2fd46c836a06233681665,64dc7c7caf8ed5d2580334a7,,,,,,,sngl,resources/Empty.png,resources/DP.BMP,Door2,0.286666667,0.004444444,1,0,0,1.693,optionRight,40,7500,4,10,0,10,0,1,,,,,,,,,,,,,,,,,,,,,,,,,,,,,,,,,,,,,,,
,,,,,,,,2023-08-16_08h48.13.712,HF_wild_card,2022.2.4,MacIntel,58.82352941,5b1e614fbd262e0001491796,64d2fd46c836a06233681665,64dc7c7caf8ed5d2580334a7,,,,,,,decisionTrl,resources/DB.BMP,resources/DBN.BMP,WildCard_Ex,0.267777778,0.011111111,1,0,0,1.097,optionRight,95,7595,4,11,0,11,0,1,,,,,,,,,,,,,,,,,,,,,,,,,,,,,,,,,,,,,,,
,,,,,,,,2023-08-16_08h48.13.712,HF_wild_card,2022.2.4,MacIntel,58.82352941,5b1e614fbd262e0001491796,64d2fd46c836a06233681665,64dc7c7caf8ed5d2580334a7,,,,,,,ctch,resources/DB.BMP,resources/DG.BMP,Door4,0.265555556,0.023333333,1,0,0,1.627,optionRight,80,7675,4,12,0,12,0,1,,,,,,,,,,,,,,,,,,,,,,,,,,,,,,,,,,,,,,,
,,,,,,,,2023-08-16_08h48.13.712,HF_wild_card,2022.2.4,MacIntel,58.82352941,5b1e614fbd262e0001491796,64d2fd46c836a06233681665,64dc7c7caf8ed5d2580334a7,,,,,,,decisionTrl,resources/DG.BMP,resources/DR.BMP,Door4,-0.257777778,0.021111111,1,0,0,0.661,optionLeft,60,7735,4,13,0,13,0,1,,,,,,,,,,,,,,,,,,,,,,,,,,,,,,,,,,,,,,,
,,,,,,,,2023-08-16_08h48.13.712,HF_wild_card,2022.2.4,MacIntel,58.82352941,5b1e614fbd262e0001491796,64d2fd46c836a06233681665,64dc7c7caf8ed5d2580334a7,,,,,,,decisionTrl,resources/DB.BMP,resources/DP.BMP,Door2,0.337777778,-0.028888889,1,0,0,1.094,optionRight,20,7755,4,14,0,14,0,1,,,,,,,,,,,,,,,,,,,,,,,,,,,,,,,,,,,,,,,
,,,,,,,,2023-08-16_08h48.13.712,HF_wild_card,2022.2.4,MacIntel,58.82352941,5b1e614fbd262e0001491796,64d2fd46c836a06233681665,64dc7c7caf8ed5d2580334a7,,,,,,,ctch,resources/DR.BMP,resources/DP.BMP,Door3,-0.231111111,-0.011111111,1,0,0,1.744,optionLeft,70,7825,4,15,0,15,0,1,,,,,,,,,,,,,,,,,,,,,,,,,,,,,,,,,,,,,,,
,,,,,,,,2023-08-16_08h48.13.712,HF_wild_card,2022.2.4,MacIntel,58.82352941,5b1e614fbd262e0001491796,64d2fd46c836a06233681665,64dc7c7caf8ed5d2580334a7,,,,,,,decisionTrl,resources/DR.BMP,resources/DG.BMP,Door4,0.243333333,0.014444444,1,0,0,1.06,optionRight,80,7905,4,16,0,16,0,1,,,,,,,,,,,,,,,,,,,,,,,,,,,,,,,,,,,,,,,
,,,,,,,,2023-08-16_08h48.13.712,HF_wild_card,2022.2.4,MacIntel,58.82352941,5b1e614fbd262e0001491796,64d2fd46c836a06233681665,64dc7c7caf8ed5d2580334a7,,,,,,,decisionTrl,resources/DP.BMP,resources/DB.BMP,Door1,0.554444444,0.05,1,0,0,1.943,optionRight,30,7935,4,17,0,17,0,1,,,,,,,,,,,,,,,,,,,,,,,,,,,,,,,,,,,,,,,
,,,,,,,,2023-08-16_08h48.13.712,HF_wild_card,2022.2.4,MacIntel,58.82352941,5b1e614fbd262e0001491796,64d2fd46c836a06233681665,64dc7c7caf8ed5d2580334a7,,,,,,,sngl,resources/Empty.png,resources/DBN.BMP,WildCard_Ex,0.276666667,-0.021111111,1,0,0,0.896,optionRight,95,8030,4,18,0,18,0,1,,,,,,,,,,,,,,,,,,,,,,,,,,,,,,,,,,,,,,,
,,,,,,,,2023-08-16_08h48.13.712,HF_wild_card,2022.2.4,MacIntel,58.82352941,5b1e614fbd262e0001491796,64d2fd46c836a06233681665,64dc7c7caf8ed5d2580334a7,,,,,,,ctch,resources/DG.BMP,resources/DB.BMP,Door4,-0.221111111,0.011111111,1,0,0,0.96,optionLeft,80,8110,4,19,0,19,0,1,,,,,,,,,,,,,,,,,,,,,,,,,,,,,,,,,,,,,,,
,,,,,,,,2023-08-16_08h48.13.712,HF_wild_card,2022.2.4,MacIntel,58.82352941,5b1e614fbd262e0001491796,64d2fd46c836a06233681665,64dc7c7caf8ed5d2580334a7,,,,,,,decisionTrl,resources/DBN.BMP,resources/DG.BMP,Door4,0.297777778,-0.023333333,1,0,0,0.726,optionRight,80,8190,4,20,0,20,0,1,,,,,,,,,,,,,,,,,,,,,,,,,,,,,,,,,,,,,,,
,,,,,,,,2023-08-16_08h48.13.712,HF_wild_card,2022.2.4,MacIntel,58.82352941,5b1e614fbd262e0001491796,64d2fd46c836a06233681665,64dc7c7caf8ed5d2580334a7,,,,,,,decisionTrl,resources/DG.BMP,resources/DBN.BMP,WildCard_Ex,0.328888889,0.001111111,1,0,0,0.892,optionRight,5,8195,4,21,0,21,0,1,,,,,,,,,,,,,,,,,,,,,,,,,,,,,,,,,,,,,,,
,,,,,,,,2023-08-16_08h48.13.712,HF_wild_card,2022.2.4,MacIntel,58.82352941,5b1e614fbd262e0001491796,64d2fd46c836a06233681665,64dc7c7caf8ed5d2580334a7,,,,,,,sngl,resources/Empty.png,resources/DR.BMP,Door3,0.275555556,-0.005555556,1,0,0,0.744,optionRight,70,8265,4,22,0,22,0,1,,,,,,,,,,,,,,,,,,,,,,,,,,,,,,,,,,,,,,,
,,,,,,,,2023-08-16_08h48.13.712,HF_wild_card,2022.2.4,MacIntel,58.82352941,5b1e614fbd262e0001491796,64d2fd46c836a06233681665,64dc7c7caf8ed5d2580334a7,,,,,,,sngl,resources/Empty.png,resources/DB.BMP,Door1,0.228888889,-0.003333333,1,0,0,0.811,optionRight,30,8295,4,23,0,23,0,1,,,,,,,,,,,,,,,,,,,,,,,,,,,,,,,,,,,,,,,
,,,,,,,,2023-08-16_08h48.13.712,HF_wild_card,2022.2.4,MacIntel,58.82352941,5b1e614fbd262e0001491796,64d2fd46c836a06233681665,64dc7c7caf8ed5d2580334a7,,,,,,,decisionTrl,resources/DP.BMP,resources/DBN.BMP,WildCard_Ex,0.217777778,0.03,1,0,0,3.777,optionRight,5,8300,4,24,0,24,0,1,,,,,,,,,,,,,,,,,,,,,,,,,,,,,,,,,,,,,,,
,,,,,,,,2023-08-16_08h48.13.712,HF_wild_card,2022.2.4,MacIntel,58.82352941,5b1e614fbd262e0001491796,64d2fd46c836a06233681665,64dc7c7caf8ed5d2580334a7,,,,,,,sngl,resources/DR.BMP,resources/Empty.png,Door3,-0.331111111,0.031111111,1,0,0,0.644,optionLeft,70,8370,4,25,0,25,0,1,,,,,,,,,,,,,,,,,,,,,,,,,,,,,,,,,,,,,,,
,,,,,,,,2023-08-16_08h48.13.712,HF_wild_card,2022.2.4,MacIntel,58.82352941,5b1e614fbd262e0001491796,64d2fd46c836a06233681665,64dc7c7caf8ed5d2580334a7,,,,,,,ctch,resources/DP.BMP,resources/DR.BMP,Door3,0.216666667,0.012222222,1,0,0,0.994,optionRight,70,8440,4,26,0,26,0,1,,,,,,,,,,,,,,,,,,,,,,,,,,,,,,,,,,,,,,,
,,,,,,,,2023-08-16_08h48.13.712,HF_wild_card,2022.2.4,MacIntel,58.82352941,5b1e614fbd262e0001491796,64d2fd46c836a06233681665,64dc7c7caf8ed5d2580334a7,,,,,,,decisionTrl,resources/DP.BMP,resources/DB.BMP,Door2,-0.215555556,0.008888889,1,0,0,0.978,optionLeft,20,8460,4,27,0,27,0,1,,,,,,,,,,,,,,,,,,,,,,,,,,,,,,,,,,,,,,,
,,,,,,,,2023-08-16_08h48.13.712,HF_wild_card,2022.2.4,MacIntel,58.82352941,5b1e614fbd262e0001491796,64d2fd46c836a06233681665,64dc7c7caf8ed5d2580334a7,,,,,,,sngl,resources/DG.BMP,resources/Empty.png,Door4,-0.216666667,0.017777778,1,0,0,0.694,optionLeft,60,8520,4,28,0,28,0,1,,,,,,,,,,,,,,,,,,,,,,,,,,,,,,,,,,,,,,,
,,,,,,,,2023-08-16_08h48.13.712,HF_wild_card,2022.2.4,MacIntel,58.82352941,5b1e614fbd262e0001491796,64d2fd46c836a06233681665,64dc7c7caf8ed5d2580334a7,,,,,,,decisionTrl,resources/DG.BMP,resources/DR.BMP,Door3,0.22,0.025555556,1,0,0,1.096,optionRight,70,8590,4,29,0,29,0,1,,,,,,,,,,,,,,,,,,,,,,,,,,,,,,,,,,,,,,,
,,,,,,,,2023-08-16_08h48.13.712,HF_wild_card,2022.2.4,MacIntel,58.82352941,5b1e614fbd262e0001491796,64d2fd46c836a06233681665,64dc7c7caf8ed5d2580334a7,,,,,,,decisionTrl,resources/DR.BMP,resources/DBN.BMP,Door3,-0.211111111,0.024444444,1,0,0,1.145,optionLeft,70,8660,4,30,0,30,0,1,,,,,,,,,,,,,,,,,,,,,,,,,,,,,,,,,,,,,,,
,,,,,,,,2023-08-16_08h48.13.712,HF_wild_card,2022.2.4,MacIntel,58.82352941,5b1e614fbd262e0001491796,64d2fd46c836a06233681665,64dc7c7caf8ed5d2580334a7,,,,,,,sngl,resources/DB.BMP,resources/Empty.png,Door1,-0.203333333,0.024444444,1,0,0,0.643,optionLeft,30,8690,4,31,0,31,0,1,,,,,,,,,,,,,,,,,,,,,,,,,,,,,,,,,,,,,,,
,,,,,,,,2023-08-16_08h48.13.712,HF_wild_card,2022.2.4,MacIntel,58.82352941,5b1e614fbd262e0001491796,64d2fd46c836a06233681665,64dc7c7caf8ed5d2580334a7,,,,,,,sngl,resources/Empty.png,resources/DG.BMP,Door4,0.238888889,0.028888889,1,0,0,1.196,optionRight,80,8770,4,32,0,32,0,1,,,,,,,,,,,,,,,,,,,,,,,,,,,,,,,,,,,,,,,
,,,,,,,,2023-08-16_08h48.13.712,HF_wild_card,2022.2.4,MacIntel,58.82352941,5b1e614fbd262e0001491796,64d2fd46c836a06233681665,64dc7c7caf8ed5d2580334a7,,,,,,,sngl,resources/DBN.BMP,resources/Empty.png,WildCard_Ex,-0.225555556,0.028888889,1,0,0,1.243,optionLeft,5,8775,4,33,0,33,0,1,,,,,,,,,,,,,,,,,,,,,,,,,,,,,,,,,,,,,,,
,,,,,,,,2023-08-16_08h48.13.712,HF_wild_card,2022.2.4,MacIntel,58.82352941,5b1e614fbd262e0001491796,64d2fd46c836a06233681665,64dc7c7caf8ed5d2580334a7,,,,,,,ctch,resources/DB.BMP,resources/DG.BMP,Door4,0.302222222,0.025555556,1,0,0,1.294,optionRight,60,8835,4,34,0,34,0,1,,,,,,,,,,,,,,,,,,,,,,,,,,,,,,,,,,,,,,,
,,,,,,,,2023-08-16_08h48.13.712,HF_wild_card,2022.2.4,MacIntel,58.82352941,5b1e614fbd262e0001491796,64d2fd46c836a06233681665,64dc7c7caf8ed5d2580334a7,,,,,,,decisionTrl,resources/DG.BMP,resources/DR.BMP,Door3,0.204444444,0.02,1,0,0,1.128,optionRight,70,8905,4,35,0,35,0,1,,,,,,,,,,,,,,,,,,,,,,,,,,,,,,,,,,,,,,,
,,,,,,,,2023-08-16_08h48.13.712,HF_wild_card,2022.2.4,MacIntel,58.82352941,5b1e614fbd262e0001491796,64d2fd46c836a06233681665,64dc7c7caf8ed5d2580334a7,,,,,,,decisionTrl,resources/DB.BMP,resources/DP.BMP,Door1,-0.21,0.014444444,1,0,0,1.458,optionLeft,30,8935,4,36,0,36,0,1,,,,,,,,,,,,,,,,,,,,,,,,,,,,,,,,,,,,,,,
,,,,,,,,2023-08-16_08h48.13.712,HF_wild_card,2022.2.4,MacIntel,58.82352941,5b1e614fbd262e0001491796,64d2fd46c836a06233681665,64dc7c7caf8ed5d2580334a7,,,,,,,decisionTrl,resources/DG.BMP,resources/DR.BMP,Door3,0.275555556,0.025555556,1,0,0,1.36,optionRight,70,9005,4,37,0,37,0,1,,,,,,,,,,,,,,,,,,,,,,,,,,,,,,,,,,,,,,,
,,,,,,,,2023-08-16_08h48.13.712,HF_wild_card,2022.2.4,MacIntel,58.82352941,5b1e614fbd262e0001491796,64d2fd46c836a06233681665,64dc7c7caf8ed5d2580334a7,,,,,,,decisionTrl,resources/DBN.BMP,resources/DR.BMP,Door3,0.226666667,0.032222222,1,0,0,1.261,optionRight,70,9075,4,38,0,38,0,1,,,,,,,,,,,,,,,,,,,,,,,,,,,,,,,,,,,,,,,
,,,,,,,,2023-08-16_08h48.13.712,HF_wild_card,2022.2.4,MacIntel,58.82352941,5b1e614fbd262e0001491796,64d2fd46c836a06233681665,64dc7c7caf8ed5d2580334a7,,,,,,,sngl,resources/DBN.BMP,resources/Empty.png,WildCard_Ex,-0.207777778,0.014444444,1,0,0,1.145,optionLeft,95,9170,4,39,0,39,0,1,,,,,,,,,,,,,,,,,,,,,,,,,,,,,,,,,,,,,,,
,,,,,,,,2023-08-16_08h48.13.712,HF_wild_card,2022.2.4,MacIntel,58.82352941,5b1e614fbd262e0001491796,64d2fd46c836a06233681665,64dc7c7caf8ed5d2580334a7,,,,,,,sngl,resources/Empty.png,resources/DBN.BMP,WildCard_Ex,0.29,-0.013333333,1,0,0,0.811,optionRight,5,9175,4,40,0,40,0,1,,,,,,,,,,,,,,,,,,,,,,,,,,,,,,,,,,,,,,,
,,,,,,,,2023-08-16_08h48.13.712,HF_wild_card,2022.2.4,MacIntel,58.82352941,5b1e614fbd262e0001491796,64d2fd46c836a06233681665,64dc7c7caf8ed5d2580334a7,,,,,,,sngl,resources/DP.BMP,resources/Empty.png,Door2,-0.21,0.014444444,1,0,0,1.444,optionLeft,20,9195,4,41,0,41,0,1,,,,,,,,,,,,,,,,,,,,,,,,,,,,,,,,,,,,,,,
,,,,,,,,2023-08-16_08h48.13.712,HF_wild_card,2022.2.4,MacIntel,58.82352941,5b1e614fbd262e0001491796,64d2fd46c836a06233681665,64dc7c7caf8ed5d2580334a7,,,,,,,decisionTrl,resources/DBN.BMP,resources/DP.BMP,WildCard_Ex,-0.193333333,-0.016666667,1,0,0,1.462,optionLeft,5,9200,4,42,0,42,0,1,,,,,,,,,,,,,,,,,,,,,,,,,,,,,,,,,,,,,,,
,,,,,,,,2023-08-16_08h48.13.712,HF_wild_card,2022.2.4,MacIntel,58.82352941,5b1e614fbd262e0001491796,64d2fd46c836a06233681665,64dc7c7caf8ed5d2580334a7,,,,,,,ctch,resources/DG.BMP,resources/DB.BMP,Door4,-0.223333333,-0.032222222,1,0,0,1.044,optionLeft,60,9260,4,43,0,43,0,1,,,,,,,,,,,,,,,,,,,,,,,,,,,,,,,,,,,,,,,
,,,,,,,,2023-08-16_08h48.13.712,HF_wild_card,2022.2.4,MacIntel,58.82352941,5b1e614fbd262e0001491796,64d2fd46c836a06233681665,64dc7c7caf8ed5d2580334a7,,,,,,,,,,,,,,,,,,,,,,,,,,3,0,3,0,1,,,,,,,,,,,,,,,,,,,,,,,,,,,,,,,,,,
,,,,,,,,2023-08-16_08h48.13.712,HF_wild_card,2022.2.4,MacIntel,58.82352941,5b1e614fbd262e0001491796,64d2fd46c836a06233681665,64dc7c7caf8ed5d2580334a7,,,,,,,ctch,resources/DB.BMP,resources/DG.BMP,Door4,0.258888889,-0.084444444,1,0,0,0.81,optionRight,60,9320,5,0,0,0,0,1,,,,,,,,,,,,,,,,,,,,,,,,,,,,,,,,,,,,,,,
,,,,,,,,2023-08-16_08h48.13.712,HF_wild_card,2022.2.4,MacIntel,58.82352941,5b1e614fbd262e0001491796,64d2fd46c836a06233681665,64dc7c7caf8ed5d2580334a7,,,,,,,sngl,resources/Empty.png,resources/DB.BMP,Door1,0.281111111,-0.038888889,1,0,0,0.827,optionRight,30,9350,5,1,0,1,0,1,,,,,,,,,,,,,,,,,,,,,,,,,,,,,,,,,,,,,,,
,,,,,,,,2023-08-16_08h48.13.712,HF_wild_card,2022.2.4,MacIntel,58.82352941,5b1e614fbd262e0001491796,64d2fd46c836a06233681665,64dc7c7caf8ed5d2580334a7,,,,,,,sngl,resources/DR.BMP,resources/Empty.png,Door3,-0.222222222,0.017777778,1,0,0,0.693,optionLeft,70,9420,5,2,0,2,0,1,,,,,,,,,,,,,,,,,,,,,,,,,,,,,,,,,,,,,,,
,,,,,,,,2023-08-16_08h48.13.712,HF_wild_card,2022.2.4,MacIntel,58.82352941,5b1e614fbd262e0001491796,64d2fd46c836a06233681665,64dc7c7caf8ed5d2580334a7,,,,,,,ctch,resources/DB.BMP,resources/DG.BMP,Door4,0.394444444,0.044444444,1,0,0,1.028,optionRight,60,9480,5,3,0,3,0,1,,,,,,,,,,,,,,,,,,,,,,,,,,,,,,,,,,,,,,,
,,,,,,,,2023-08-16_08h48.13.712,HF_wild_card,2022.2.4,MacIntel,58.82352941,5b1e614fbd262e0001491796,64d2fd46c836a06233681665,64dc7c7caf8ed5d2580334a7,,,,,,,decisionTrl,resources/DR.BMP,resources/DG.BMP,Door3,-0.207777778,-0.027777778,1,0,0,1.077,optionLeft,70,9550,5,4,0,4,0,1,,,,,,,,,,,,,,,,,,,,,,,,,,,,,,,,,,,,,,,
,,,,,,,,2023-08-16_08h48.13.712,HF_wild_card,2022.2.4,MacIntel,58.82352941,5b1e614fbd262e0001491796,64d2fd46c836a06233681665,64dc7c7caf8ed5d2580334a7,,,,,,,decisionTrl,resources/DG.BMP,resources/DR.BMP,Door3,0.323333333,-0.011111111,1,0,0,1.162,optionRight,70,9620,5,5,0,5,0,1,,,,,,,,,,,,,,,,,,,,,,,,,,,,,,,,,,,,,,,
,,,,,,,,2023-08-16_08h48.13.712,HF_wild_card,2022.2.4,MacIntel,58.82352941,5b1e614fbd262e0001491796,64d2fd46c836a06233681665,64dc7c7caf8ed5d2580334a7,,,,,,,sngl,resources/Empty.png,resources/DBN.BMP,WildCard_Ex,0.302222222,-0.042222222,1,0,0,1.246,optionRight,5,9625,5,6,0,6,0,1,,,,,,,,,,,,,,,,,,,,,,,,,,,,,,,,,,,,,,,
,,,,,,,,2023-08-16_08h48.13.712,HF_wild_card,2022.2.4,MacIntel,58.82352941,5b1e614fbd262e0001491796,64d2fd46c836a06233681665,64dc7c7caf8ed5d2580334a7,,,,,,,decisionTrl,resources/DG.BMP,resources/DR.BMP,Door3,0.212222222,-0.016666667,1,0,0,1.711,optionRight,70,9695,5,7,0,7,0,1,,,,,,,,,,,,,,,,,,,,,,,,,,,,,,,,,,,,,,,
,,,,,,,,2023-08-16_08h48.13.712,HF_wild_card,2022.2.4,MacIntel,58.82352941,5b1e614fbd262e0001491796,64d2fd46c836a06233681665,64dc7c7caf8ed5d2580334a7,,,,,,,decisionTrl,resources/DB.BMP,resources/DP.BMP,Door2,0.26,-0.013333333,1,0,0,1.145,optionRight,20,9715,5,8,0,8,0,1,,,,,,,,,,,,,,,,,,,,,,,,,,,,,,,,,,,,,,,
,,,,,,,,2023-08-16_08h48.13.712,HF_wild_card,2022.2.4,MacIntel,58.82352941,5b1e614fbd262e0001491796,64d2fd46c836a06233681665,64dc7c7caf8ed5d2580334a7,,,,,,,decisionTrl,resources/DBN.BMP,resources/DB.BMP,WildCard_Ex,-0.36,0.073333333,1,0,0,1.744,optionLeft,5,9720,5,9,0,9,0,1,,,,,,,,,,,,,,,,,,,,,,,,,,,,,,,,,,,,,,,
,,,,,,,,2023-08-16_08h48.13.712,HF_wild_card,2022.2.4,MacIntel,58.82352941,5b1e614fbd262e0001491796,64d2fd46c836a06233681665,64dc7c7caf8ed5d2580334a7,,,,,,,decisionTrl,resources/DBN.BMP,resources/DG.BMP,Door4,0.27,0.005555556,1,0,0,0.879,optionRight,60,9780,5,10,0,10,0,1,,,,,,,,,,,,,,,,,,,,,,,,,,,,,,,,,,,,,,,
,,,,,,,,2023-08-16_08h48.13.712,HF_wild_card,2022.2.4,MacIntel,58.82352941,5b1e614fbd262e0001491796,64d2fd46c836a06233681665,64dc7c7caf8ed5d2580334a7,,,,,,,decisionTrl,resources/DP.BMP,resources/DBN.BMP,Door2,-0.265555556,-0.042222222,1,0,0,0.744,optionLeft,40,9820,5,11,0,11,0,1,,,,,,,,,,,,,,,,,,,,,,,,,,,,,,,,,,,,,,,
,,,,,,,,2023-08-16_08h48.13.712,HF_wild_card,2022.2.4,MacIntel,58.82352941,5b1e614fbd262e0001491796,64d2fd46c836a06233681665,64dc7c7caf8ed5d2580334a7,,,,,,,decisionTrl,resources/DR.BMP,resources/DG.BMP,Door3,-0.218888889,-0.121111111,1,0,0,0.894,optionLeft,70,9890,5,12,0,12,0,1,,,,,,,,,,,,,,,,,,,,,,,,,,,,,,,,,,,,,,,
,,,,,,,,2023-08-16_08h48.13.712,HF_wild_card,2022.2.4,MacIntel,58.82352941,5b1e614fbd262e0001491796,64d2fd46c836a06233681665,64dc7c7caf8ed5d2580334a7,,,,,,,decisionTrl,resources/DR.BMP,resources/DG.BMP,Door3,-0.273333333,-0.051111111,1,0,0,0.811,optionLeft,70,9960,5,13,0,13,0,1,,,,,,,,,,,,,,,,,,,,,,,,,,,,,,,,,,,,,,,
,,,,,,,,2023-08-16_08h48.13.712,HF_wild_card,2022.2.4,MacIntel,58.82352941,5b1e614fbd262e0001491796,64d2fd46c836a06233681665,64dc7c7caf8ed5d2580334a7,,,,,,,decisionTrl,resources/DR.BMP,resources/DG.BMP,Door3,-0.375555556,0.064444444,1,0,0,0.96,optionLeft,70,10030,5,14,0,14,0,1,,,,,,,,,,,,,,,,,,,,,,,,,,,,,,,,,,,,,,,
,,,,,,,,2023-08-16_08h48.13.712,HF_wild_card,2022.2.4,MacIntel,58.82352941,5b1e614fbd262e0001491796,64d2fd46c836a06233681665,64dc7c7caf8ed5d2580334a7,,,,,,,decisionTrl,resources/DP.BMP,resources/DB.BMP,Door1,0.325555556,0.053333333,1,0,0,1.459,optionRight,30,10060,5,15,0,15,0,1,,,,,,,,,,,,,,,,,,,,,,,,,,,,,,,,,,,,,,,
,,,,,,,,2023-08-16_08h48.13.712,HF_wild_card,2022.2.4,MacIntel,58.82352941,5b1e614fbd262e0001491796,64d2fd46c836a06233681665,64dc7c7caf8ed5d2580334a7,,,,,,,decisionTrl,resources/DB.BMP,resources/DBN.BMP,Door1,-0.288888889,0.028888889,1,0,0,1.276,optionLeft,30,10090,5,16,0,16,0,1,,,,,,,,,,,,,,,,,,,,,,,,,,,,,,,,,,,,,,,
,,,,,,,,2023-08-16_08h48.13.712,HF_wild_card,2022.2.4,MacIntel,58.82352941,5b1e614fbd262e0001491796,64d2fd46c836a06233681665,64dc7c7caf8ed5d2580334a7,,,,,,,decisionTrl,resources/DB.BMP,resources/DP.BMP,Door2,0.362222222,-0.037777778,1,0,0,0.844,optionRight,40,10130,5,17,0,17,0,1,,,,,,,,,,,,,,,,,,,,,,,,,,,,,,,,,,,,,,,
,,,,,,,,2023-08-16_08h48.13.712,HF_wild_card,2022.2.4,MacIntel,58.82352941,5b1e614fbd262e0001491796,64d2fd46c836a06233681665,64dc7c7caf8ed5d2580334a7,,,,,,,ctch,resources/DG.BMP,resources/DB.BMP,Door4,-0.201111111,0.026666667,1,0,0,0.811,optionLeft,80,10210,5,18,0,18,0,1,,,,,,,,,,,,,,,,,,,,,,,,,,,,,,,,,,,,,,,
,,,,,,,,2023-08-16_08h48.13.712,HF_wild_card,2022.2.4,MacIntel,58.82352941,5b1e614fbd262e0001491796,64d2fd46c836a06233681665,64dc7c7caf8ed5d2580334a7,,,,,,,sngl,resources/DB.BMP,resources/Empty.png,Door1,-0.252222222,0.03,1,0,0,0.726,optionLeft,30,10240,5,19,0,19,0,1,,,,,,,,,,,,,,,,,,,,,,,,,,,,,,,,,,,,,,,
,,,,,,,,2023-08-16_08h48.13.712,HF_wild_card,2022.2.4,MacIntel,58.82352941,5b1e614fbd262e0001491796,64d2fd46c836a06233681665,64dc7c7caf8ed5d2580334a7,,,,,,,decisionTrl,resources/DBN.BMP,resources/DR.BMP,Door3,0.341111111,-0.003333333,1,0,0,1.478,optionRight,70,10310,5,20,0,20,0,1,,,,,,,,,,,,,,,,,,,,,,,,,,,,,,,,,,,,,,,
,,,,,,,,2023-08-16_08h48.13.712,HF_wild_card,2022.2.4,MacIntel,58.82352941,5b1e614fbd262e0001491796,64d2fd46c836a06233681665,64dc7c7caf8ed5d2580334a7,,,,,,,decisionTrl,resources/DG.BMP,resources/DR.BMP,Door4,-0.178888889,-0.023333333,1,0,0,1.127,optionLeft,60,10370,5,21,0,21,0,1,,,,,,,,,,,,,,,,,,,,,,,,,,,,,,,,,,,,,,,
,,,,,,,,2023-08-16_08h48.13.712,HF_wild_card,2022.2.4,MacIntel,58.82352941,5b1e614fbd262e0001491796,64d2fd46c836a06233681665,64dc7c7caf8ed5d2580334a7,,,,,,,sngl,resources/Empty.png,resources/DBN.BMP,WildCard_Ex,0.267777778,-0.048888889,1,0,0,0.811,optionRight,95,10465,5,22,0,22,0,1,,,,,,,,,,,,,,,,,,,,,,,,,,,,,,,,,,,,,,,
,,,,,,,,2023-08-16_08h48.13.712,HF_wild_card,2022.2.4,MacIntel,58.82352941,5b1e614fbd262e0001491796,64d2fd46c836a06233681665,64dc7c7caf8ed5d2580334a7,,,,,,,sngl,resources/DBN.BMP,resources/Empty.png,WildCard_Ex,-0.19,0.017777778,1,0,0,0.994,optionLeft,5,10470,5,23,0,23,0,1,,,,,,,,,,,,,,,,,,,,,,,,,,,,,,,,,,,,,,,
,,,,,,,,2023-08-16_08h48.13.712,HF_wild_card,2022.2.4,MacIntel,58.82352941,5b1e614fbd262e0001491796,64d2fd46c836a06233681665,64dc7c7caf8ed5d2580334a7,,,,,,,decisionTrl,resources/DP.BMP,resources/DB.BMP,Door2,-0.268888889,0.006666667,1,0,0,0.828,optionLeft,40,10510,5,24,0,24,0,1,,,,,,,,,,,,,,,,,,,,,,,,,,,,,,,,,,,,,,,
,,,,,,,,2023-08-16_08h48.13.712,HF_wild_card,2022.2.4,MacIntel,58.82352941,5b1e614fbd262e0001491796,64d2fd46c836a06233681665,64dc7c7caf8ed5d2580334a7,,,,,,,decisionTrl,resources/DG.BMP,resources/DBN.BMP,Door4,-0.263333333,-0.001111111,1,0,0,0.844,optionLeft,80,10590,5,25,0,25,0,1,,,,,,,,,,,,,,,,,,,,,,,,,,,,,,,,,,,,,,,
,,,,,,,,2023-08-16_08h48.13.712,HF_wild_card,2022.2.4,MacIntel,58.82352941,5b1e614fbd262e0001491796,64d2fd46c836a06233681665,64dc7c7caf8ed5d2580334a7,,,,,,,decisionTrl,resources/DB.BMP,resources/DP.BMP,Door2,0.305555556,-0.011111111,1,0,0,1.194,optionRight,40,10630,5,26,0,26,0,1,,,,,,,,,,,,,,,,,,,,,,,,,,,,,,,,,,,,,,,
,,,,,,,,2023-08-16_08h48.13.712,HF_wild_card,2022.2.4,MacIntel,58.82352941,5b1e614fbd262e0001491796,64d2fd46c836a06233681665,64dc7c7caf8ed5d2580334a7,,,,,,,decisionTrl,resources/DG.BMP,resources/DR.BMP,Door4,-0.176666667,0.025555556,1,0,0,1.764,optionLeft,60,10690,5,27,0,27,0,1,,,,,,,,,,,,,,,,,,,,,,,,,,,,,,,,,,,,,,,
,,,,,,,,2023-08-16_08h48.13.712,HF_wild_card,2022.2.4,MacIntel,58.82352941,5b1e614fbd262e0001491796,64d2fd46c836a06233681665,64dc7c7caf8ed5d2580334a7,,,,,,,ctch,resources/DR.BMP,resources/DP.BMP,Door3,-0.224444444,0.023333333,1,0,0,0.631,optionLeft,70,10760,5,28,0,28,0,1,,,,,,,,,,,,,,,,,,,,,,,,,,,,,,,,,,,,,,,
,,,,,,,,2023-08-16_08h48.13.712,HF_wild_card,2022.2.4,MacIntel,58.82352941,5b1e614fbd262e0001491796,64d2fd46c836a06233681665,64dc7c7caf8ed5d2580334a7,,,,,,,ctch,resources/DR.BMP,resources/DP.BMP,Door3,-0.233333333,0.018888889,1,0,0,0.564,optionLeft,70,10830,5,29,0,29,0,1,,,,,,,,,,,,,,,,,,,,,,,,,,,,,,,,,,,,,,,
,,,,,,,,2023-08-16_08h48.13.712,HF_wild_card,2022.2.4,MacIntel,58.82352941,5b1e614fbd262e0001491796,64d2fd46c836a06233681665,64dc7c7caf8ed5d2580334a7,,,,,,,ctch,resources/DP.BMP,resources/DR.BMP,Door3,0.342222222,0.003333333,1,0,0,0.612,optionRight,70,10900,5,30,0,30,0,1,,,,,,,,,,,,,,,,,,,,,,,,,,,,,,,,,,,,,,,
,,,,,,,,2023-08-16_08h48.13.712,HF_wild_card,2022.2.4,MacIntel,58.82352941,5b1e614fbd262e0001491796,64d2fd46c836a06233681665,64dc7c7caf8ed5d2580334a7,,,,,,,sngl,resources/DBN.BMP,resources/Empty.png,WildCard_Ex,-0.197777778,0.014444444,1,0,0,0.844,optionLeft,95,10995,5,31,0,31,0,1,,,,,,,,,,,,,,,,,,,,,,,,,,,,,,,,,,,,,,,
,,,,,,,,2023-08-16_08h48.13.712,HF_wild_card,2022.2.4,MacIntel,58.82352941,5b1e614fbd262e0001491796,64d2fd46c836a06233681665,64dc7c7caf8ed5d2580334a7,,,,,,,ctch,resources/DG.BMP,resources/DB.BMP,Door4,-0.218888889,0.01,1,0,0,1.46,optionLeft,80,11075,5,32,0,32,0,1,,,,,,,,,,,,,,,,,,,,,,,,,,,,,,,,,,,,,,,
,,,,,,,,2023-08-16_08h48.13.712,HF_wild_card,2022.2.4,MacIntel,58.82352941,5b1e614fbd262e0001491796,64d2fd46c836a06233681665,64dc7c7caf8ed5d2580334a7,,,,,,,sngl,resources/Empty.png,resources/DG.BMP,Door4,0.291111111,-0.005555556,1,0,0,0.678,optionRight,60,11135,5,33,0,33,0,1,,,,,,,,,,,,,,,,,,,,,,,,,,,,,,,,,,,,,,,
,,,,,,,,2023-08-16_08h48.13.712,HF_wild_card,2022.2.4,MacIntel,58.82352941,5b1e614fbd262e0001491796,64d2fd46c836a06233681665,64dc7c7caf8ed5d2580334a7,,,,,,,decisionTrl,resources/DB.BMP,resources/DP.BMP,Door2,0.266666667,0.011111111,1,0,0,0.862,optionRight,40,11175,5,34,0,34,0,1,,,,,,,,,,,,,,,,,,,,,,,,,,,,,,,,,,,,,,,
,,,,,,,,2023-08-16_08h48.13.712,HF_wild_card,2022.2.4,MacIntel,58.82352941,5b1e614fbd262e0001491796,64d2fd46c836a06233681665,64dc7c7caf8ed5d2580334a7,,,,,,,sngl,resources/Empty.png,resources/DP.BMP,Door2,0.316666667,0.006666667,1,0,0,0.627,optionRight,20,11195,5,35,0,35,0,1,,,,,,,,,,,,,,,,,,,,,,,,,,,,,,,,,,,,,,,
,,,,,,,,2023-08-16_08h48.13.712,HF_wild_card,2022.2.4,MacIntel,58.82352941,5b1e614fbd262e0001491796,64d2fd46c836a06233681665,64dc7c7caf8ed5d2580334a7,,,,,,,ctch,resources/DP.BMP,resources/DR.BMP,Door3,0.381111111,-0.007777778,1,0,0,0.741,optionRight,70,11265,5,36,0,36,0,1,,,,,,,,,,,,,,,,,,,,,,,,,,,,,,,,,,,,,,,
,,,,,,,,2023-08-16_08h48.13.712,HF_wild_card,2022.2.4,MacIntel,58.82352941,5b1e614fbd262e0001491796,64d2fd46c836a06233681665,64dc7c7caf8ed5d2580334a7,,,,,,,sngl,resources/Empty.png,resources/DR.BMP,Door3,0.247777778,0.004444444,1,0,0,0.644,optionRight,70,11335,5,37,0,37,0,1,,,,,,,,,,,,,,,,,,,,,,,,,,,,,,,,,,,,,,,
,,,,,,,,2023-08-16_08h48.13.712,HF_wild_card,2022.2.4,MacIntel,58.82352941,5b1e614fbd262e0001491796,64d2fd46c836a06233681665,64dc7c7caf8ed5d2580334a7,,,,,,,decisionTrl,resources/DP.BMP,resources/DB.BMP,Door2,-0.233333333,-0.017777778,1,0,0,0.711,optionLeft,20,11355,5,38,0,38,0,1,,,,,,,,,,,,,,,,,,,,,,,,,,,,,,,,,,,,,,,
,,,,,,,,2023-08-16_08h48.13.712,HF_wild_card,2022.2.4,MacIntel,58.82352941,5b1e614fbd262e0001491796,64d2fd46c836a06233681665,64dc7c7caf8ed5d2580334a7,,,,,,,sngl,resources/DP.BMP,resources/Empty.png,Door2,-0.234444444,0.006666667,1,0,0,0.692,optionLeft,40,11395,5,39,0,39,0,1,,,,,,,,,,,,,,,,,,,,,,,,,,,,,,,,,,,,,,,
,,,,,,,,2023-08-16_08h48.13.712,HF_wild_card,2022.2.4,MacIntel,58.82352941,5b1e614fbd262e0001491796,64d2fd46c836a06233681665,64dc7c7caf8ed5d2580334a7,,,,,,,sngl,resources/DG.BMP,resources/Empty.png,Door4,-0.285555556,-0.002222222,1,0,0,0.577,optionLeft,80,11475,5,40,0,40,0,1,,,,,,,,,,,,,,,,,,,,,,,,,,,,,,,,,,,,,,,
,,,,,,,,2023-08-16_08h48.13.712,HF_wild_card,2022.2.4,MacIntel,58.82352941,5b1e614fbd262e0001491796,64d2fd46c836a06233681665,64dc7c7caf8ed5d2580334a7,,,,,,,decisionTrl,resources/DP.BMP,resources/DB.BMP,Door2,-0.191111111,0.005555556,1,0,0,0.761,optionLeft,20,11495,5,41,0,41,0,1,,,,,,,,,,,,,,,,,,,,,,,,,,,,,,,,,,,,,,,
,,,,,,,,2023-08-16_08h48.13.712,HF_wild_card,2022.2.4,MacIntel,58.82352941,5b1e614fbd262e0001491796,64d2fd46c836a06233681665,64dc7c7caf8ed5d2580334a7,,,,,,,decisionTrl,resources/DBN.BMP,resources/DP.BMP,WildCard_Ex,-0.264444444,0.017777778,1,0,0,1.927,optionLeft,95,11590,5,42,0,42,0,1,,,,,,,,,,,,,,,,,,,,,,,,,,,,,,,,,,,,,,,
,,,,,,,,2023-08-16_08h48.13.712,HF_wild_card,2022.2.4,MacIntel,58.82352941,5b1e614fbd262e0001491796,64d2fd46c836a06233681665,64dc7c7caf8ed5d2580334a7,,,,,,,decisionTrl,resources/DR.BMP,resources/DBN.BMP,Door3,-0.198888889,-0.047777778,1,0,0,1.044,optionLeft,70,11660,5,43,0,43,0,1,,,,,,,,,,,,,,,,,,,,,,,,,,,,,,,,,,,,,,,
,,,,,,,,2023-08-16_08h48.13.712,HF_wild_card,2022.2.4,MacIntel,58.82352941,5b1e614fbd262e0001491796,64d2fd46c836a06233681665,64dc7c7caf8ed5d2580334a7,,,,,,,,,,,,,,,,,,,,,,,,,,4,0,4,0,1,,,,,,,,,,,,,,,,,,,,,,,,,,,,,,,,,,
,,,,,,,,2023-08-16_08h48.13.712,HF_wild_card,2022.2.4,MacIntel,58.82352941,5b1e614fbd262e0001491796,64d2fd46c836a06233681665,64dc7c7caf8ed5d2580334a7,,,,,,,decisionTrl,resources/DP.BMP,resources/DB.BMP,Door1,0.335555556,-0.148888889,1,0,0,1.445,optionRight,30,11690,6,0,0,0,0,1,,,,,,,,,,,,,,,,,,,,,,,,,,,,,,,,,,,,,,,
,,,,,,,,2023-08-16_08h48.13.712,HF_wild_card,2022.2.4,MacIntel,58.82352941,5b1e614fbd262e0001491796,64d2fd46c836a06233681665,64dc7c7caf8ed5d2580334a7,,,,,,,decisionTrl,resources/DR.BMP,resources/DG.BMP,Door3,-0.212222222,0.014444444,1,0,0,0.759,optionLeft,70,11760,6,1,0,1,0,1,,,,,,,,,,,,,,,,,,,,,,,,,,,,,,,,,,,,,,,
,,,,,,,,2023-08-16_08h48.13.712,HF_wild_card,2022.2.4,MacIntel,58.82352941,5b1e614fbd262e0001491796,64d2fd46c836a06233681665,64dc7c7caf8ed5d2580334a7,,,,,,,decisionTrl,resources/DG.BMP,resources/DR.BMP,Door3,0.341111111,0.003333333,1,0,0,0.664,optionRight,70,11830,6,2,0,2,0,1,,,,,,,,,,,,,,,,,,,,,,,,,,,,,,,,,,,,,,,
,,,,,,,,2023-08-16_08h48.13.712,HF_wild_card,2022.2.4,MacIntel,58.82352941,5b1e614fbd262e0001491796,64d2fd46c836a06233681665,64dc7c7caf8ed5d2580334a7,,,,,,,sngl,resources/Empty.png,resources/DBN.BMP,WildCard_Ex,0.165555556,-0.022222222,1,0,0,0.81,optionRight,5,11835,6,3,0,3,0,1,,,,,,,,,,,,,,,,,,,,,,,,,,,,,,,,,,,,,,,
,,,,,,,,2023-08-16_08h48.13.712,HF_wild_card,2022.2.4,MacIntel,58.82352941,5b1e614fbd262e0001491796,64d2fd46c836a06233681665,64dc7c7caf8ed5d2580334a7,,,,,,,decisionTrl,resources/DBN.BMP,resources/DP.BMP,WildCard_Ex,-0.216666667,0.011111111,1,0,0,0.697,optionLeft,95,11930,6,4,0,4,0,1,,,,,,,,,,,,,,,,,,,,,,,,,,,,,,,,,,,,,,,
,,,,,,,,2023-08-16_08h48.13.712,HF_wild_card,2022.2.4,MacIntel,58.82352941,5b1e614fbd262e0001491796,64d2fd46c836a06233681665,64dc7c7caf8ed5d2580334a7,,,,,,,decisionTrl,resources/DB.BMP,resources/DP.BMP,Door1,-0.293333333,-0.028888889,1,0,0,1.86,optionLeft,30,11960,6,5,0,5,0,1,,,,,,,,,,,,,,,,,,,,,,,,,,,,,,,,,,,,,,,
,,,,,,,,2023-08-16_08h48.13.712,HF_wild_card,2022.2.4,MacIntel,58.82352941,5b1e614fbd262e0001491796,64d2fd46c836a06233681665,64dc7c7caf8ed5d2580334a7,,,,,,,ctch,resources/DB.BMP,resources/DG.BMP,Door4,0.231111111,-0.002222222,1,0,0,1.043,optionRight,80,12040,6,6,0,6,0,1,,,,,,,,,,,,,,,,,,,,,,,,,,,,,,,,,,,,,,,
,,,,,,,,2023-08-16_08h48.13.712,HF_wild_card,2022.2.4,MacIntel,58.82352941,5b1e614fbd262e0001491796,64d2fd46c836a06233681665,64dc7c7caf8ed5d2580334a7,,,,,,,ctch,resources/DB.BMP,resources/DG.BMP,Door4,0.237777778,-0.001111111,1,0,0,0.776,optionRight,80,12120,6,7,0,7,0,1,,,,,,,,,,,,,,,,,,,,,,,,,,,,,,,,,,,,,,,
,,,,,,,,2023-08-16_08h48.13.712,HF_wild_card,2022.2.4,MacIntel,58.82352941,5b1e614fbd262e0001491796,64d2fd46c836a06233681665,64dc7c7caf8ed5d2580334a7,,,,,,,decisionTrl,resources/DG.BMP,resources/DR.BMP,Door4,-0.221111111,0.011111111,1,0,0,0.661,optionLeft,60,12180,6,8,0,8,0,1,,,,,,,,,,,,,,,,,,,,,,,,,,,,,,,,,,,,,,,
,,,,,,,,2023-08-16_08h48.13.712,HF_wild_card,2022.2.4,MacIntel,58.82352941,5b1e614fbd262e0001491796,64d2fd46c836a06233681665,64dc7c7caf8ed5d2580334a7,,,,,,,decisionTrl,resources/DB.BMP,resources/DP.BMP,Door1,-0.192222222,-0.032222222,1,0,0,1.559,optionLeft,30,12210,6,9,0,9,0,1,,,,,,,,,,,,,,,,,,,,,,,,,,,,,,,,,,,,,,,
,,,,,,,,2023-08-16_08h48.13.712,HF_wild_card,2022.2.4,MacIntel,58.82352941,5b1e614fbd262e0001491796,64d2fd46c836a06233681665,64dc7c7caf8ed5d2580334a7,,,,,,,decisionTrl,resources/DR.BMP,resources/DBN.BMP,Door3,-0.288888889,-0.055555556,1,0,0,1.36,optionLeft,70,12280,6,10,0,10,0,1,,,,,,,,,,,,,,,,,,,,,,,,,,,,,,,,,,,,,,,
,,,,,,,,2023-08-16_08h48.13.712,HF_wild_card,2022.2.4,MacIntel,58.82352941,5b1e614fbd262e0001491796,64d2fd46c836a06233681665,64dc7c7caf8ed5d2580334a7,,,,,,,decisionTrl,resources/DG.BMP,resources/DR.BMP,Door3,0.28,-0.01,1,0,0,0.828,optionRight,70,12350,6,11,0,11,0,1,,,,,,,,,,,,,,,,,,,,,,,,,,,,,,,,,,,,,,,
,,,,,,,,2023-08-16_08h48.13.712,HF_wild_card,2022.2.4,MacIntel,58.82352941,5b1e614fbd262e0001491796,64d2fd46c836a06233681665,64dc7c7caf8ed5d2580334a7,,,,,,,sngl,resources/DG.BMP,resources/Empty.png,Door4,-0.207777778,0.02,1,0,0,0.744,optionLeft,60,12410,6,12,0,12,0,1,,,,,,,,,,,,,,,,,,,,,,,,,,,,,,,,,,,,,,,
,,,,,,,,2023-08-16_08h48.13.712,HF_wild_card,2022.2.4,MacIntel,58.82352941,5b1e614fbd262e0001491796,64d2fd46c836a06233681665,64dc7c7caf8ed5d2580334a7,,,,,,,decisionTrl,resources/DP.BMP,resources/DB.BMP,Door2,-0.224444444,0.044444444,1,0,0,1.659,optionLeft,40,12450,6,13,0,13,0,1,,,,,,,,,,,,,,,,,,,,,,,,,,,,,,,,,,,,,,,
,,,,,,,,2023-08-16_08h48.13.712,HF_wild_card,2022.2.4,MacIntel,58.82352941,5b1e614fbd262e0001491796,64d2fd46c836a06233681665,64dc7c7caf8ed5d2580334a7,,,,,,,ctch,resources/DG.BMP,resources/DB.BMP,Door4,-0.177777778,0.041111111,1,0,0,1.192,optionLeft,60,12510,6,14,0,14,0,1,,,,,,,,,,,,,,,,,,,,,,,,,,,,,,,,,,,,,,,
,,,,,,,,2023-08-16_08h48.13.712,HF_wild_card,2022.2.4,MacIntel,58.82352941,5b1e614fbd262e0001491796,64d2fd46c836a06233681665,64dc7c7caf8ed5d2580334a7,,,,,,,decisionTrl,resources/DR.BMP,resources/DG.BMP,Door3,-0.282222222,0.044444444,1,0,0,1.058,optionLeft,70,12580,6,15,0,15,0,1,,,,,,,,,,,,,,,,,,,,,,,,,,,,,,,,,,,,,,,
,,,,,,,,2023-08-16_08h48.13.712,HF_wild_card,2022.2.4,MacIntel,58.82352941,5b1e614fbd262e0001491796,64d2fd46c836a06233681665,64dc7c7caf8ed5d2580334a7,,,,,,,decisionTrl,resources/DR.BMP,resources/DG.BMP,Door3,-0.291111111,0.03,1,0,0,1.027,optionLeft,70,12650,6,16,0,16,0,1,,,,,,,,,,,,,,,,,,,,,,,,,,,,,,,,,,,,,,,
,,,,,,,,2023-08-16_08h48.13.712,HF_wild_card,2022.2.4,MacIntel,58.82352941,5b1e614fbd262e0001491796,64d2fd46c836a06233681665,64dc7c7caf8ed5d2580334a7,,,,,,,decisionTrl,resources/DR.BMP,resources/DG.BMP,Door4,0.302222222,0.003333333,1,0,0,3.459,optionRight,80,12730,6,17,0,17,0,1,,,,,,,,,,,,,,,,,,,,,,,,,,,,,,,,,,,,,,,
,,,,,,,,2023-08-16_08h48.13.712,HF_wild_card,2022.2.4,MacIntel,58.82352941,5b1e614fbd262e0001491796,64d2fd46c836a06233681665,64dc7c7caf8ed5d2580334a7,,,,,,,decisionTrl,resources/DB.BMP,resources/DP.BMP,Door2,0.443333333,0.097777778,1,0,0,1.814,optionRight,40,12770,6,18,0,18,0,1,,,,,,,,,,,,,,,,,,,,,,,,,,,,,,,,,,,,,,,
,,,,,,,,2023-08-16_08h48.13.712,HF_wild_card,2022.2.4,MacIntel,58.82352941,5b1e614fbd262e0001491796,64d2fd46c836a06233681665,64dc7c7caf8ed5d2580334a7,,,,,,,ctch,resources/DP.BMP,resources/DR.BMP,Door3,0.298888889,0.016666667,1,0,0,0.879,optionRight,70,12840,6,19,0,19,0,1,,,,,,,,,,,,,,,,,,,,,,,,,,,,,,,,,,,,,,,
,,,,,,,,2023-08-16_08h48.13.712,HF_wild_card,2022.2.4,MacIntel,58.82352941,5b1e614fbd262e0001491796,64d2fd46c836a06233681665,64dc7c7caf8ed5d2580334a7,,,,,,,decisionTrl,resources/DB.BMP,resources/DP.BMP,Door2,0.343333333,0.015555556,1,0,0,1.178,optionRight,40,12880,6,20,0,20,0,1,,,,,,,,,,,,,,,,,,,,,,,,,,,,,,,,,,,,,,,
,,,,,,,,2023-08-16_08h48.13.712,HF_wild_card,2022.2.4,MacIntel,58.82352941,5b1e614fbd262e0001491796,64d2fd46c836a06233681665,64dc7c7caf8ed5d2580334a7,,,,,,,decisionTrl,resources/DB.BMP,resources/DBN.BMP,WildCard_Ex,0.354444444,-0.024444444,1,0,0,1.558,optionRight,95,12975,6,21,0,21,0,1,,,,,,,,,,,,,,,,,,,,,,,,,,,,,,,,,,,,,,,
,,,,,,,,2023-08-16_08h48.13.712,HF_wild_card,2022.2.4,MacIntel,58.82352941,5b1e614fbd262e0001491796,64d2fd46c836a06233681665,64dc7c7caf8ed5d2580334a7,,,,,,,sngl,resources/DBN.BMP,resources/Empty.png,WildCard_Ex,-0.215555556,0.016666667,1,0,0,0.695,optionLeft,5,12980,6,22,0,22,0,1,,,,,,,,,,,,,,,,,,,,,,,,,,,,,,,,,,,,,,,
,,,,,,,,2023-08-16_08h48.13.712,HF_wild_card,2022.2.4,MacIntel,58.82352941,5b1e614fbd262e0001491796,64d2fd46c836a06233681665,64dc7c7caf8ed5d2580334a7,,,,,,,ctch,resources/DR.BMP,resources/DP.BMP,Door3,-0.218888889,0.013333333,1,0,0,1.093,optionLeft,70,13050,6,23,0,23,0,1,,,,,,,,,,,,,,,,,,,,,,,,,,,,,,,,,,,,,,,
,,,,,,,,2023-08-16_08h48.13.712,HF_wild_card,2022.2.4,MacIntel,58.82352941,5b1e614fbd262e0001491796,64d2fd46c836a06233681665,64dc7c7caf8ed5d2580334a7,,,,,,,decisionTrl,resources/DG.BMP,resources/DR.BMP,Door4,-0.236666667,0.017777778,1,0,0,0.661,optionLeft,80,13130,6,24,0,24,0,1,,,,,,,,,,,,,,,,,,,,,,,,,,,,,,,,,,,,,,,
,,,,,,,,2023-08-16_08h48.13.712,HF_wild_card,2022.2.4,MacIntel,58.82352941,5b1e614fbd262e0001491796,64d2fd46c836a06233681665,64dc7c7caf8ed5d2580334a7,,,,,,,decisionTrl,resources/DBN.BMP,resources/DB.BMP,WildCard_Ex,-0.242222222,0.036666667,1,0,0,0.843,optionLeft,95,13225,6,25,0,25,0,1,,,,,,,,,,,,,,,,,,,,,,,,,,,,,,,,,,,,,,,
,,,,,,,,2023-08-16_08h48.13.712,HF_wild_card,2022.2.4,MacIntel,58.82352941,5b1e614fbd262e0001491796,64d2fd46c836a06233681665,64dc7c7caf8ed5d2580334a7,,,,,,,decisionTrl,resources/DBN.BMP,resources/DG.BMP,Door4,0.301111111,0.036666667,1,0,0,0.711,optionRight,60,13285,6,26,0,26,0,1,,,,,,,,,,,,,,,,,,,,,,,,,,,,,,,,,,,,,,,
,,,,,,,,2023-08-16_08h48.13.712,HF_wild_card,2022.2.4,MacIntel,58.82352941,5b1e614fbd262e0001491796,64d2fd46c836a06233681665,64dc7c7caf8ed5d2580334a7,,,,,,,sngl,resources/DR.BMP,resources/Empty.png,Door3,-0.214444444,0.034444444,1,0,0,0.66,optionLeft,70,13355,6,27,0,27,0,1,,,,,,,,,,,,,,,,,,,,,,,,,,,,,,,,,,,,,,,
,,,,,,,,2023-08-16_08h48.13.712,HF_wild_card,2022.2.4,MacIntel,58.82352941,5b1e614fbd262e0001491796,64d2fd46c836a06233681665,64dc7c7caf8ed5d2580334a7,,,,,,,sngl,resources/Empty.png,resources/DG.BMP,Door4,0.228888889,-0.001111111,1,0,0,0.696,optionRight,80,13435,6,28,0,28,0,1,,,,,,,,,,,,,,,,,,,,,,,,,,,,,,,,,,,,,,,
,,,,,,,,2023-08-16_08h48.13.712,HF_wild_card,2022.2.4,MacIntel,58.82352941,5b1e614fbd262e0001491796,64d2fd46c836a06233681665,64dc7c7caf8ed5d2580334a7,,,,,,,sngl,resources/Empty.png,resources/DP.BMP,Door2,0.263333333,-0.015555556,1,0,0,0.827,optionRight,40,13475,6,29,0,29,0,1,,,,,,,,,,,,,,,,,,,,,,,,,,,,,,,,,,,,,,,
,,,,,,,,2023-08-16_08h48.13.712,HF_wild_card,2022.2.4,MacIntel,58.82352941,5b1e614fbd262e0001491796,64d2fd46c836a06233681665,64dc7c7caf8ed5d2580334a7,,,,,,,sngl,resources/Empty.png,resources/DBN.BMP,WildCard_Ex,0.244444444,0.011111111,1,0,0,0.712,optionRight,95,13570,6,30,0,30,0,1,,,,,,,,,,,,,,,,,,,,,,,,,,,,,,,,,,,,,,,
,,,,,,,,2023-08-16_08h48.13.712,HF_wild_card,2022.2.4,MacIntel,58.82352941,5b1e614fbd262e0001491796,64d2fd46c836a06233681665,64dc7c7caf8ed5d2580334a7,,,,,,,sngl,resources/Empty.png,resources/DR.BMP,Door3,0.26,0.023333333,1,0,0,0.679,optionRight,70,13640,6,31,0,31,0,1,,,,,,,,,,,,,,,,,,,,,,,,,,,,,,,,,,,,,,,
,,,,,,,,2023-08-16_08h48.13.712,HF_wild_card,2022.2.4,MacIntel,58.82352941,5b1e614fbd262e0001491796,64d2fd46c836a06233681665,64dc7c7caf8ed5d2580334a7,,,,,,,decisionTrl,resources/DP.BMP,resources/DBN.BMP,WildCard_Ex,0.26,0.03,1,0,0,1.36,optionRight,5,13645,6,32,0,32,0,1,,,,,,,,,,,,,,,,,,,,,,,,,,,,,,,,,,,,,,,
,,,,,,,,2023-08-16_08h48.13.712,HF_wild_card,2022.2.4,MacIntel,58.82352941,5b1e614fbd262e0001491796,64d2fd46c836a06233681665,64dc7c7caf8ed5d2580334a7,,,,,,,sngl,resources/DP.BMP,resources/Empty.png,Door2,-0.338888889,0.006666667,1,0,0,0.594,optionLeft,20,13665,6,33,0,33,0,1,,,,,,,,,,,,,,,,,,,,,,,,,,,,,,,,,,,,,,,
,,,,,,,,2023-08-16_08h48.13.712,HF_wild_card,2022.2.4,MacIntel,58.82352941,5b1e614fbd262e0001491796,64d2fd46c836a06233681665,64dc7c7caf8ed5d2580334a7,,,,,,,sngl,resources/DBN.BMP,resources/Empty.png,WildCard_Ex,-0.211111111,0.025555556,1,0,0,0.612,optionLeft,95,13760,6,34,0,34,0,1,,,,,,,,,,,,,,,,,,,,,,,,,,,,,,,,,,,,,,,
,,,,,,,,2023-08-16_08h48.13.712,HF_wild_card,2022.2.4,MacIntel,58.82352941,5b1e614fbd262e0001491796,64d2fd46c836a06233681665,64dc7c7caf8ed5d2580334a7,,,,,,,sngl,resources/Empty.png,resources/DB.BMP,Door1,0.262222222,-0.031111111,1,0,0,0.744,optionRight,30,13790,6,35,0,35,0,1,,,,,,,,,,,,,,,,,,,,,,,,,,,,,,,,,,,,,,,
,,,,,,,,2023-08-16_08h48.13.712,HF_wild_card,2022.2.4,MacIntel,58.82352941,5b1e614fbd262e0001491796,64d2fd46c836a06233681665,64dc7c7caf8ed5d2580334a7,,,,,,,sngl,resources/DB.BMP,resources/Empty.png,Door1,-0.22,0,1,0,0,0.728,optionLeft,30,13820,6,36,0,36,0,1,,,,,,,,,,,,,,,,,,,,,,,,,,,,,,,,,,,,,,,
,,,,,,,,2023-08-16_08h48.13.712,HF_wild_card,2022.2.4,MacIntel,58.82352941,5b1e614fbd262e0001491796,64d2fd46c836a06233681665,64dc7c7caf8ed5d2580334a7,,,,,,,decisionTrl,resources/DP.BMP,resources/DB.BMP,Door2,-0.26,-0.062222222,1,0,0,0.841,optionLeft,20,13840,6,37,0,37,0,1,,,,,,,,,,,,,,,,,,,,,,,,,,,,,,,,,,,,,,,
,,,,,,,,2023-08-16_08h48.13.712,HF_wild_card,2022.2.4,MacIntel,58.82352941,5b1e614fbd262e0001491796,64d2fd46c836a06233681665,64dc7c7caf8ed5d2580334a7,,,,,,,decisionTrl,resources/DG.BMP,resources/DBN.BMP,Door4,-0.148888889,-0.037777778,1,0,0,1.111,optionLeft,60,13900,6,38,0,38,0,1,,,,,,,,,,,,,,,,,,,,,,,,,,,,,,,,,,,,,,,
,,,,,,,,2023-08-16_08h48.13.712,HF_wild_card,2022.2.4,MacIntel,58.82352941,5b1e614fbd262e0001491796,64d2fd46c836a06233681665,64dc7c7caf8ed5d2580334a7,,,,,,,ctch,resources/DP.BMP,resources/DR.BMP,Door3,0.202222222,-0.032222222,1,0,0,1.144,optionRight,70,13970,6,39,0,39,0,1,,,,,,,,,,,,,,,,,,,,,,,,,,,,,,,,,,,,,,,
,,,,,,,,2023-08-16_08h48.13.712,HF_wild_card,2022.2.4,MacIntel,58.82352941,5b1e614fbd262e0001491796,64d2fd46c836a06233681665,64dc7c7caf8ed5d2580334a7,,,,,,,ctch,resources/DG.BMP,resources/DB.BMP,Door4,-0.248888889,0.054444444,1,0,0,1.129,optionLeft,60,14030,6,40,0,40,0,1,,,,,,,,,,,,,,,,,,,,,,,,,,,,,,,,,,,,,,,
,,,,,,,,2023-08-16_08h48.13.712,HF_wild_card,2022.2.4,MacIntel,58.82352941,5b1e614fbd262e0001491796,64d2fd46c836a06233681665,64dc7c7caf8ed5d2580334a7,,,,,,,decisionTrl,resources/DBN.BMP,resources/DR.BMP,Door3,0.254444444,0.02,1,0,0,1.311,optionRight,70,14100,6,41,0,41,0,1,,,,,,,,,,,,,,,,,,,,,,,,,,,,,,,,,,,,,,,
,,,,,,,,2023-08-16_08h48.13.712,HF_wild_card,2022.2.4,MacIntel,58.82352941,5b1e614fbd262e0001491796,64d2fd46c836a06233681665,64dc7c7caf8ed5d2580334a7,,,,,,,ctch,resources/DR.BMP,resources/DP.BMP,Door3,-0.178888889,-0.071111111,1,0,0,0.91,optionLeft,70,14170,6,42,0,42,0,1,,,,,,,,,,,,,,,,,,,,,,,,,,,,,,,,,,,,,,,
,,,,,,,,2023-08-16_08h48.13.712,HF_wild_card,2022.2.4,MacIntel,58.82352941,5b1e614fbd262e0001491796,64d2fd46c836a06233681665,64dc7c7caf8ed5d2580334a7,,,,,,,decisionTrl,resources/DP.BMP,resources/DB.BMP,Door2,-0.35,0.016666667,1,0,0,0.76,optionLeft,20,14190,6,43,0,43,0,1,,,,,,,,,,,,,,,,,,,,,,,,,,,,,,,,,,,,,,,
,,,,,,,,2023-08-16_08h48.13.712,HF_wild_card,2022.2.4,MacIntel,58.82352941,5b1e614fbd262e0001491796,64d2fd46c836a06233681665,64dc7c7caf8ed5d2580334a7,,,,,,,,,,,,,,,,,,,,,,,,,,5,0,5,0,1,,,,,,,,,,,,,,,,,,,,,,,,,,,,,,,,,,
,,,,,,,,2023-08-16_08h48.13.712,HF_wild_card,2022.2.4,MacIntel,58.82352941,5b1e614fbd262e0001491796,64d2fd46c836a06233681665,64dc7c7caf8ed5d2580334a7,,,,,,,ctch,resources/DB.BMP,resources/DG.BMP,Door4,0.301111111,-0.018888889,1,0,0,1.358,optionRight,60,14250,7,0,0,0,0,1,,,,,,,,,,,,,,,,,,,,,,,,,,,,,,,,,,,,,,,
,,,,,,,,2023-08-16_08h48.13.712,HF_wild_card,2022.2.4,MacIntel,58.82352941,5b1e614fbd262e0001491796,64d2fd46c836a06233681665,64dc7c7caf8ed5d2580334a7,,,,,,,decisionTrl,resources/DR.BMP,resources/DG.BMP,Door3,-0.261111111,0.024444444,1,0,0,0.815,optionLeft,70,14320,7,1,0,1,0,1,,,,,,,,,,,,,,,,,,,,,,,,,,,,,,,,,,,,,,,
,,,,,,,,2023-08-16_08h48.13.712,HF_wild_card,2022.2.4,MacIntel,58.82352941,5b1e614fbd262e0001491796,64d2fd46c836a06233681665,64dc7c7caf8ed5d2580334a7,,,,,,,decisionTrl,resources/DB.BMP,resources/DP.BMP,Door2,0.286666667,0.024444444,1,0,0,1.298,optionRight,40,14360,7,2,0,2,0,1,,,,,,,,,,,,,,,,,,,,,,,,,,,,,,,,,,,,,,,
,,,,,,,,2023-08-16_08h48.13.712,HF_wild_card,2022.2.4,MacIntel,58.82352941,5b1e614fbd262e0001491796,64d2fd46c836a06233681665,64dc7c7caf8ed5d2580334a7,,,,,,,decisionTrl,resources/DG.BMP,resources/DR.BMP,Door4,-0.232222222,-0.008888889,1,0,0,2.115,optionLeft,80,14440,7,3,0,3,0,1,,,,,,,,,,,,,,,,,,,,,,,,,,,,,,,,,,,,,,,
,,,,,,,,2023-08-16_08h48.13.712,HF_wild_card,2022.2.4,MacIntel,58.82352941,5b1e614fbd262e0001491796,64d2fd46c836a06233681665,64dc7c7caf8ed5d2580334a7,,,,,,,decisionTrl,resources/DG.BMP,resources/DR.BMP,Door4,-0.236666667,-0.028888889,1,0,0,0.999,optionLeft,60,14500,7,4,0,4,0,1,,,,,,,,,,,,,,,,,,,,,,,,,,,,,,,,,,,,,,,
,,,,,,,,2023-08-16_08h48.13.712,HF_wild_card,2022.2.4,MacIntel,58.82352941,5b1e614fbd262e0001491796,64d2fd46c836a06233681665,64dc7c7caf8ed5d2580334a7,,,,,,,ctch,resources/DB.BMP,resources/DG.BMP,Door4,0.337777778,0.016666667,1,0,0,0.981,optionRight,80,14580,7,5,0,5,0,1,,,,,,,,,,,,,,,,,,,,,,,,,,,,,,,,,,,,,,,
,,,,,,,,2023-08-16_08h48.13.712,HF_wild_card,2022.2.4,MacIntel,58.82352941,5b1e614fbd262e0001491796,64d2fd46c836a06233681665,64dc7c7caf8ed5d2580334a7,,,,,,,decisionTrl,resources/DB.BMP,resources/DP.BMP,Door2,0.274444444,0.021111111,1,0,0,1.232,optionRight,40,14620,7,6,0,6,0,1,,,,,,,,,,,,,,,,,,,,,,,,,,,,,,,,,,,,,,,
,,,,,,,,2023-08-16_08h48.13.712,HF_wild_card,2022.2.4,MacIntel,58.82352941,5b1e614fbd262e0001491796,64d2fd46c836a06233681665,64dc7c7caf8ed5d2580334a7,,,,,,,decisionTrl,resources/DP.BMP,resources/DB.BMP,Door2,-0.291111111,0.015555556,1,0,0,0.781,optionLeft,20,14640,7,7,0,7,0,1,,,,,,,,,,,,,,,,,,,,,,,,,,,,,,,,,,,,,,,
,,,,,,,,2023-08-16_08h48.13.712,HF_wild_card,2022.2.4,MacIntel,58.82352941,5b1e614fbd262e0001491796,64d2fd46c836a06233681665,64dc7c7caf8ed5d2580334a7,,,,,,,decisionTrl,resources/DR.BMP,resources/DG.BMP,Door3,-0.224444444,0.038888889,1,0,0,1.132,optionLeft,70,14710,7,8,0,8,0,1,,,,,,,,,,,,,,,,,,,,,,,,,,,,,,,,,,,,,,,
,,,,,,,,2023-08-16_08h48.13.712,HF_wild_card,2022.2.4,MacIntel,58.82352941,5b1e614fbd262e0001491796,64d2fd46c836a06233681665,64dc7c7caf8ed5d2580334a7,,,,,,,ctch,resources/DG.BMP,resources/DB.BMP,Door4,-0.216666667,0.054444444,1,0,0,0.698,optionLeft,60,14770,7,9,0,9,0,1,,,,,,,,,,,,,,,,,,,,,,,,,,,,,,,,,,,,,,,
,,,,,,,,2023-08-16_08h48.13.712,HF_wild_card,2022.2.4,MacIntel,58.82352941,5b1e614fbd262e0001491796,64d2fd46c836a06233681665,64dc7c7caf8ed5d2580334a7,,,,,,,decisionTrl,resources/DP.BMP,resources/DB.BMP,Door2,-0.177777778,0.032222222,1,0,0,0.931,optionLeft,20,14790,7,10,0,10,0,1,,,,,,,,,,,,,,,,,,,,,,,,,,,,,,,,,,,,,,,
,,,,,,,,2023-08-16_08h48.13.712,HF_wild_card,2022.2.4,MacIntel,58.82352941,5b1e614fbd262e0001491796,64d2fd46c836a06233681665,64dc7c7caf8ed5d2580334a7,,,,,,,decisionTrl,resources/DR.BMP,resources/DG.BMP,Door3,-0.203333333,0.045555556,1,0,0,0.915,optionLeft,70,14860,7,11,0,11,0,1,,,,,,,,,,,,,,,,,,,,,,,,,,,,,,,,,,,,,,,
,,,,,,,,2023-08-16_08h48.13.712,HF_wild_card,2022.2.4,MacIntel,58.82352941,5b1e614fbd262e0001491796,64d2fd46c836a06233681665,64dc7c7caf8ed5d2580334a7,,,,,,,ctch,resources/DG.BMP,resources/DB.BMP,Door4,-0.216666667,0.038888889,1,0,0,0.699,optionLeft,80,14940,7,12,0,12,0,1,,,,,,,,,,,,,,,,,,,,,,,,,,,,,,,,,,,,,,,
,,,,,,,,2023-08-16_08h48.13.712,HF_wild_card,2022.2.4,MacIntel,58.82352941,5b1e614fbd262e0001491796,64d2fd46c836a06233681665,64dc7c7caf8ed5d2580334a7,,,,,,,decisionTrl,resources/DB.BMP,resources/DP.BMP,Door2,0.365555556,0.001111111,1,0,0,1.548,optionRight,40,14980,7,13,0,13,0,1,,,,,,,,,,,,,,,,,,,,,,,,,,,,,,,,,,,,,,,
,,,,,,,,2023-08-16_08h48.13.712,HF_wild_card,2022.2.4,MacIntel,58.82352941,5b1e614fbd262e0001491796,64d2fd46c836a06233681665,64dc7c7caf8ed5d2580334a7,,,,,,,decisionTrl,resources/DG.BMP,resources/DR.BMP,Door4,-0.214444444,0.093333333,1,0,0,0.798,optionLeft,60,15040,7,14,0,14,0,1,,,,,,,,,,,,,,,,,,,,,,,,,,,,,,,,,,,,,,,
,,,,,,,,2023-08-16_08h48.13.712,HF_wild_card,2022.2.4,MacIntel,58.82352941,5b1e614fbd262e0001491796,64d2fd46c836a06233681665,64dc7c7caf8ed5d2580334a7,,,,,,,decisionTrl,resources/DP.BMP,resources/DB.BMP,Door2,-0.232222222,-0.031111111,1,0,0,1.449,optionLeft,20,15060,7,15,0,15,0,1,,,,,,,,,,,,,,,,,,,,,,,,,,,,,,,,,,,,,,,
,,,,,,,,2023-08-16_08h48.13.712,HF_wild_card,2022.2.4,MacIntel,58.82352941,5b1e614fbd262e0001491796,64d2fd46c836a06233681665,64dc7c7caf8ed5d2580334a7,,,,,,,ctch,resources/DR.BMP,resources/DP.BMP,Door3,-0.311111111,0.072222222,1,0,0,1.116,optionLeft,70,15130,7,16,0,16,0,1,,,,,,,,,,,,,,,,,,,,,,,,,,,,,,,,,,,,,,,
,,,,,,,,2023-08-16_08h48.13.712,HF_wild_card,2022.2.4,MacIntel,58.82352941,5b1e614fbd262e0001491796,64d2fd46c836a06233681665,64dc7c7caf8ed5d2580334a7,,,,,,,decisionTrl,resources/DR.BMP,resources/DG.BMP,Door3,-0.194444444,-0.002222222,1,0,0,1.815,optionLeft,70,15200,7,17,0,17,0,1,,,,,,,,,,,,,,,,,,,,,,,,,,,,,,,,,,,,,,,
,,,,,,,,2023-08-16_08h48.13.712,HF_wild_card,2022.2.4,MacIntel,58.82352941,5b1e614fbd262e0001491796,64d2fd46c836a06233681665,64dc7c7caf8ed5d2580334a7,,,,,,,ctch,resources/DP.BMP,resources/DR.BMP,Door3,0.281111111,0.002222222,1,0,0,1.331,optionRight,70,15270,7,18,0,18,0,1,,,,,,,,,,,,,,,,,,,,,,,,,,,,,,,,,,,,,,,
,,,,,,,,2023-08-16_08h48.13.712,HF_wild_card,2022.2.4,MacIntel,58.82352941,5b1e614fbd262e0001491796,64d2fd46c836a06233681665,64dc7c7caf8ed5d2580334a7,,,,,,,decisionTrl,resources/DP.BMP,resources/DB.BMP,Door2,-0.318888889,0.043333333,1,0,0,3.665,optionLeft,40,15310,7,19,0,19,0,1,,,,,,,,,,,,,,,,,,,,,,,,,,,,,,,,,,,,,,,
,,,,,,,,2023-08-16_08h48.13.712,HF_wild_card,2022.2.4,MacIntel,58.82352941,5b1e614fbd262e0001491796,64d2fd46c836a06233681665,64dc7c7caf8ed5d2580334a7,,,,,,,decisionTrl,resources/DG.BMP,resources/DR.BMP,Door3,0.451111111,0.078888889,1,0,0,1.681,optionRight,70,15380,7,20,0,20,0,1,,,,,,,,,,,,,,,,,,,,,,,,,,,,,,,,,,,,,,,
,,,,,,,,2023-08-16_08h48.13.712,HF_wild_card,2022.2.4,MacIntel,58.82352941,5b1e614fbd262e0001491796,64d2fd46c836a06233681665,64dc7c7caf8ed5d2580334a7,,,,,,,decisionTrl,resources/DR.BMP,resources/DG.BMP,Door3,-0.312222222,0.014444444,1,0,0,0.665,optionLeft,70,15450,7,21,0,21,0,1,,,,,,,,,,,,,,,,,,,,,,,,,,,,,,,,,,,,,,,
,,,,,,,,2023-08-16_08h48.13.712,HF_wild_card,2022.2.4,MacIntel,58.82352941,5b1e614fbd262e0001491796,64d2fd46c836a06233681665,64dc7c7caf8ed5d2580334a7,,,,,,,ctch,resources/DR.BMP,resources/DP.BMP,Door3,-0.241111111,0.021111111,1,0,0,0.565,optionLeft,70,15520,7,22,0,22,0,1,,,,,,,,,,,,,,,,,,,,,,,,,,,,,,,,,,,,,,,
,,,,,,,,2023-08-16_08h48.13.712,HF_wild_card,2022.2.4,MacIntel,58.82352941,5b1e614fbd262e0001491796,64d2fd46c836a06233681665,64dc7c7caf8ed5d2580334a7,,,,,,,ctch,resources/DG.BMP,resources/DB.BMP,Door4,-0.218888889,0.015555556,1,0,0,0.682,optionLeft,80,15600,7,23,0,23,0,1,,,,,,,,,,,,,,,,,,,,,,,,,,,,,,,,,,,,,,,
,,,,,,,,2023-08-16_08h48.13.712,HF_wild_card,2022.2.4,MacIntel,58.82352941,5b1e614fbd262e0001491796,64d2fd46c836a06233681665,64dc7c7caf8ed5d2580334a7,,,,,,,decisionTrl,resources/DP.BMP,resources/DB.BMP,Door2,-0.192222222,0,1,0,0,0.782,optionLeft,40,15640,7,24,0,24,0,1,,,,,,,,,,,,,,,,,,,,,,,,,,,,,,,,,,,,,,,
,,,,,,,,2023-08-16_08h48.13.712,HF_wild_card,2022.2.4,MacIntel,58.82352941,5b1e614fbd262e0001491796,64d2fd46c836a06233681665,64dc7c7caf8ed5d2580334a7,,,,,,,decisionTrl,resources/DR.BMP,resources/DG.BMP,Door3,-0.22,-0.033333333,1,0,0,0.698,optionLeft,70,15710,7,25,0,25,0,1,,,,,,,,,,,,,,,,,,,,,,,,,,,,,,,,,,,,,,,
,,,,,,,,2023-08-16_08h48.13.712,HF_wild_card,2022.2.4,MacIntel,58.82352941,5b1e614fbd262e0001491796,64d2fd46c836a06233681665,64dc7c7caf8ed5d2580334a7,,,,,,,decisionTrl,resources/DB.BMP,resources/DP.BMP,Door2,0.396666667,-0.017777778,1,0,0,0.699,optionRight,40,15750,7,26,0,26,0,1,,,,,,,,,,,,,,,,,,,,,,,,,,,,,,,,,,,,,,,
,,,,,,,,2023-08-16_08h48.13.712,HF_wild_card,2022.2.4,MacIntel,58.82352941,5b1e614fbd262e0001491796,64d2fd46c836a06233681665,64dc7c7caf8ed5d2580334a7,,,,,,,decisionTrl,resources/DP.BMP,resources/DB.BMP,Door2,-0.28,0.032222222,1,0,0,0.698,optionLeft,40,15790,7,27,0,27,0,1,,,,,,,,,,,,,,,,,,,,,,,,,,,,,,,,,,,,,,,
,,,,,,,,2023-08-16_08h48.13.712,HF_wild_card,2022.2.4,MacIntel,58.82352941,5b1e614fbd262e0001491796,64d2fd46c836a06233681665,64dc7c7caf8ed5d2580334a7,,,,,,,ctch,resources/DP.BMP,resources/DR.BMP,Door3,0.37,0.054444444,1,0,0,0.783,optionRight,70,15860,7,28,0,28,0,1,,,,,,,,,,,,,,,,,,,,,,,,,,,,,,,,,,,,,,,
,,,,,,,,2023-08-16_08h48.13.712,HF_wild_card,2022.2.4,MacIntel,58.82352941,5b1e614fbd262e0001491796,64d2fd46c836a06233681665,64dc7c7caf8ed5d2580334a7,,,,,,,decisionTrl,resources/DB.BMP,resources/DP.BMP,Door2,0.335555556,-0.026666667,1,0,0,0.983,optionRight,20,15880,7,29,0,29,0,1,,,,,,,,,,,,,,,,,,,,,,,,,,,,,,,,,,,,,,,
,,,,,,,,2023-08-16_08h48.13.712,HF_wild_card,2022.2.4,MacIntel,58.82352941,5b1e614fbd262e0001491796,64d2fd46c836a06233681665,64dc7c7caf8ed5d2580334a7,,,,,,,ctch,resources/DP.BMP,resources/DR.BMP,Door3,0.338888889,0.018888889,1,0,0,0.749,optionRight,70,15950,7,30,0,30,0,1,,,,,,,,,,,,,,,,,,,,,,,,,,,,,,,,,,,,,,,
,,,,,,,,2023-08-16_08h48.13.712,HF_wild_card,2022.2.4,MacIntel,58.82352941,5b1e614fbd262e0001491796,64d2fd46c836a06233681665,64dc7c7caf8ed5d2580334a7,,,,,,,decisionTrl,resources/DG.BMP,resources/DR.BMP,Door3,0.284444444,0.041111111,1,0,0,1.363,optionRight,70,16020,7,31,0,31,0,1,,,,,,,,,,,,,,,,,,,,,,,,,,,,,,,,,,,,,,,
,,,,,,,,2023-08-16_08h48.13.712,HF_wild_card,2022.2.4,MacIntel,58.82352941,5b1e614fbd262e0001491796,64d2fd46c836a06233681665,64dc7c7caf8ed5d2580334a7,,,,,,,ctch,resources/DB.BMP,resources/DG.BMP,Door4,0.348888889,0.033333333,1,0,0,0.88,optionRight,80,16100,7,32,0,32,0,1,,,,,,,,,,,,,,,,,,,,,,,,,,,,,,,,,,,,,,,
,,,,,,,,2023-08-16_08h48.13.712,HF_wild_card,2022.2.4,MacIntel,58.82352941,5b1e614fbd262e0001491796,64d2fd46c836a06233681665,64dc7c7caf8ed5d2580334a7,,,,,,,ctch,resources/DR.BMP,resources/DP.BMP,Door3,-0.347777778,0.044444444,1,0,0,0.715,optionLeft,70,16170,7,33,0,33,0,1,,,,,,,,,,,,,,,,,,,,,,,,,,,,,,,,,,,,,,,
,,,,,,,,2023-08-16_08h48.13.712,HF_wild_card,2022.2.4,MacIntel,58.82352941,5b1e614fbd262e0001491796,64d2fd46c836a06233681665,64dc7c7caf8ed5d2580334a7,,,,,,,decisionTrl,resources/DG.BMP,resources/DR.BMP,Door3,0.338888889,-0.016666667,1,0,0,1.348,optionRight,70,16240,7,34,0,34,0,1,,,,,,,,,,,,,,,,,,,,,,,,,,,,,,,,,,,,,,,
,,,,,,,,2023-08-16_08h48.13.712,HF_wild_card,2022.2.4,MacIntel,58.82352941,5b1e614fbd262e0001491796,64d2fd46c836a06233681665,64dc7c7caf8ed5d2580334a7,,,,,,,decisionTrl,resources/DB.BMP,resources/DP.BMP,Door2,0.194444444,0.022222222,1,0,0,1.365,optionRight,40,16280,7,35,0,35,0,1,,,,,,,,,,,,,,,,,,,,,,,,,,,,,,,,,,,,,,,
,,,,,,,,2023-08-16_08h48.13.712,HF_wild_card,2022.2.4,MacIntel,58.82352941,5b1e614fbd262e0001491796,64d2fd46c836a06233681665,64dc7c7caf8ed5d2580334a7,,,,,,,,,,,,,,,,,,,,,,,,,,6,0,6,0,1,,,,,,,,,,,,,,,,,,,,,,,,,,,,,,,,,,
,,,,,,,,2023-08-16_08h48.13.712,HF_wild_card,2022.2.4,MacIntel,58.82352941,5b1e614fbd262e0001491796,64d2fd46c836a06233681665,64dc7c7caf8ed5d2580334a7,,,,,,,,,,,,,,,,,,,,,,,,,,,,,,,4,,,,,,,,,,,,,,,,,,,,,,,,,,,,,,,,,
,,,,,,,,2023-08-16_08h48.13.712,HF_wild_card,2022.2.4,MacIntel,58.82352941,5b1e614fbd262e0001491796,64d2fd46c836a06233681665,64dc7c7caf8ed5d2580334a7,,,,,,,,,,,,,,,,,,,,,,,,,,,,,,,,,,,,,,,,,,,,,,,,,,,,,,,,,,,,,,,,
,,,,,,,,2023-08-16_08h48.13.712,HF_wild_card,2022.2.4,MacIntel,58.82352941,5b1e614fbd262e0001491796,64d2fd46c836a06233681665,64dc7c7caf8ed5d2580334a7,,,,,,,,,,,,,,,,,,,,,,,,,,,,,,,,60,Door4,resources/DG.BMP,0,0,0,0,1,,,,,,,,,,,,,,,,,,,,,,,,,
,,,,,,,,2023-08-16_08h48.13.712,HF_wild_card,2022.2.4,MacIntel,58.82352941,5b1e614fbd262e0001491796,64d2fd46c836a06233681665,64dc7c7caf8ed5d2580334a7,,,,,,,,,,,,,,,,,,,,,,,,,,,,,,,,40,Door2,resources/DP.BMP,1,0,1,0,1,,,,,,,,,,,,,,,,,,,,,,,,,
,,,,,,,,2023-08-16_08h48.13.712,HF_wild_card,2022.2.4,MacIntel,58.82352941,5b1e614fbd262e0001491796,64d2fd46c836a06233681665,64dc7c7caf8ed5d2580334a7,,,,,,,,,,,,,,,,,,,,,,,,,,,,,,,,30,Door1,resources/DB.BMP,2,0,2,0,1,,,,,,,,,,,,,,,,,,,,,,,,,
,,,,,,,,2023-08-16_08h48.13.712,HF_wild_card,2022.2.4,MacIntel,58.82352941,5b1e614fbd262e0001491796,64d2fd46c836a06233681665,64dc7c7caf8ed5d2580334a7,,,,,,,,,,,,,,,,,,,,,,,,,,,,,,,,95,WC_extreme,resources/DBN.BMP,3,0,3,0,1,,,,,,,,,,,,,,,,,,,,,,,,,
,,,,,,,,2023-08-16_08h48.13.712,HF_wild_card,2022.2.4,MacIntel,58.82352941,5b1e614fbd262e0001491796,64d2fd46c836a06233681665,64dc7c7caf8ed5d2580334a7,,,,,,,,,,,,,,,,,,,,,,,,,,,,,,,,70,Door3,resources/DR.BMP,4,0,4,0,1,,,,,,,,,,,,,,,,,,,,,,,,,
,,,,,,,,2023-08-16_08h48.13.712,HF_wild_card,2022.2.4,MacIntel,58.82352941,5b1e614fbd262e0001491796,64d2fd46c836a06233681665,64dc7c7caf8ed5d2580334a7,,,,,,,,,,,,,,,,,,,,,,,,,,,,,,,,40,WC_nonExtreme,resources/DY.BMP,5,0,5,0,1,,,,,,,,,,,,,,,,,,,,,,,,,
