Condition,Low fixed image (Door1),Low risky image (Door2),High fixed image (Door3),High risky image (Door4),Extreme Wild Card,NonExtreme Wild Card,,date,expName,psychopyVersion,OS,frameRate,PROLIFIC_PID,STUDY_ID,SESSION_ID,mouse_2.x,mouse_2.y,mouse_2.leftButton,mouse_2.midButton,mouse_2.rightButton,mouse_2.clicked_name,Trial Type,Left Option Image,Right Option Image,Chosen Door,mouse.x,mouse.y,mouse.leftButton,mouse.midButton,mouse.rightButton,mouse.time,mouse.clicked_name,Feedback,Cumulative Reward,Block,trial.thisRepN,trial.thisTrialN,trial.thisN,trial.thisIndex,trial.ran,blocks.thisRepN,blocks.thisTrialN,blocks.thisN,blocks.thisIndex,blocks.ran,Money conversion,First Outcome Reported,Shown Door (First Outcome),Displayed Image (First Outcome),outcomes.thisRepN,outcomes.thisTrialN,outcomes.thisN,outcomes.thisIndex,outcomes.ran,judgments.thisRepN,judgments.thisTrialN,judgments.thisN,judgments.thisIndex,judgments.ran,freqMouse.x,freqMouse.y,freqMouse.leftButton,freqMouse.midButton,freqMouse.rightButton,freqMouse.clicked_name,FQJ for first outcome,FQJ for second outcome,Shown Door,Displayed Image,trials.thisRepN,trials.thisTrialN,trials.thisN,trials.thisIndex,trials.ran,judgBlock.thisRepN,judgBlock.thisTrialN,judgBlock.thisN,judgBlock.thisIndex,judgBlock.ran
1,resources/DG.BMP,resources/DB.BMP,resources/DP.BMP,resources/DY.BMP,resources/DBN.BMP,resources/DR.BMP,,2023-08-16_08h40.25.639,HF_wild_card,2022.2.4,Win32,59.99520038,5daf3ba02b35810016d8d97d,64d2fd46c836a06233681665,64dc7d5a7a5e5ac3952eb0f1,,,,,,,,,,,,,,,,,,,,,,,,,,,,,,,,,,,,,,,,,,,,,,,,,,,,,,,,,,,,,,,,
,,,,,,,,2023-08-16_08h40.25.639,HF_wild_card,2022.2.4,Win32,59.99520038,5daf3ba02b35810016d8d97d,64d2fd46c836a06233681665,64dc7d5a7a5e5ac3952eb0f1,-0.020370342,-0.419444473,1,0,0,agree,,,,,,,,,,,,,,,,,,,,,,,,,,,,,,,,,,,,,,,,,,,,,,,,,,,,,,,,,,
,,,,,,,,2023-08-16_08h40.25.639,HF_wild_card,2022.2.4,Win32,59.99520038,5daf3ba02b35810016d8d97d,64d2fd46c836a06233681665,64dc7d5a7a5e5ac3952eb0f1,,,,,,,,,,,,,,,,,,,,,,,,,,,,,,,,,,,,,,,,,,,,,,,,,,,,,,,,,,,,,,,,
,,,,,,,,2023-08-16_08h40.25.639,HF_wild_card,2022.2.4,Win32,59.99520038,5daf3ba02b35810016d8d97d,64d2fd46c836a06233681665,64dc7d5a7a5e5ac3952eb0f1,,,,,,,decisionTrl,resources/DY.BMP,resources/DP.BMP,Door3,0.45648151,-0.107407393,1,0,0,3.3012,optionRight,70,70,1,0,0,0,0,1,,,,,,,,,,,,,,,,,,,,,,,,,,,,,,,,,,,,,,,
,,,,,,,,2023-08-16_08h40.25.639,HF_wild_card,2022.2.4,Win32,59.99520038,5daf3ba02b35810016d8d97d,64d2fd46c836a06233681665,64dc7d5a7a5e5ac3952eb0f1,,,,,,,decisionTrl,resources/DY.BMP,resources/DR.BMP,WildCard_NonEx,0.431481538,-0.08425928,1,0,0,1.247,optionRight,45,115,1,1,0,1,0,1,,,,,,,,,,,,,,,,,,,,,,,,,,,,,,,,,,,,,,,
,,,,,,,,2023-08-16_08h40.25.639,HF_wild_card,2022.2.4,Win32,59.99520038,5daf3ba02b35810016d8d97d,64d2fd46c836a06233681665,64dc7d5a7a5e5ac3952eb0f1,,,,,,,decisionTrl,resources/DY.BMP,resources/DP.BMP,Door3,0.419444473,-0.091666681,1,0,0,1.4797,optionRight,70,185,1,2,0,2,0,1,,,,,,,,,,,,,,,,,,,,,,,,,,,,,,,,,,,,,,,
,,,,,,,,2023-08-16_08h40.25.639,HF_wild_card,2022.2.4,Win32,59.99520038,5daf3ba02b35810016d8d97d,64d2fd46c836a06233681665,64dc7d5a7a5e5ac3952eb0f1,,,,,,,decisionTrl,resources/DR.BMP,resources/DB.BMP,WildCard_NonEx,-0.487037023,-0.121296282,1,0,0,2.1111,optionLeft,55,240,1,3,0,3,0,1,,,,,,,,,,,,,,,,,,,,,,,,,,,,,,,,,,,,,,,
,,,,,,,,2023-08-16_08h40.25.639,HF_wild_card,2022.2.4,Win32,59.99520038,5daf3ba02b35810016d8d97d,64d2fd46c836a06233681665,64dc7d5a7a5e5ac3952eb0f1,,,,,,,decisionTrl,resources/DG.BMP,resources/DB.BMP,Door2,0.384259259,0.00462963,1,0,0,1.4605,optionRight,40,280,1,4,0,4,0,1,,,,,,,,,,,,,,,,,,,,,,,,,,,,,,,,,,,,,,,
,,,,,,,,2023-08-16_08h40.25.639,HF_wild_card,2022.2.4,Win32,59.99520038,5daf3ba02b35810016d8d97d,64d2fd46c836a06233681665,64dc7d5a7a5e5ac3952eb0f1,,,,,,,decisionTrl,resources/DP.BMP,resources/DY.BMP,Door4,0.312962991,-0.025000007,1,0,0,2.015,optionRight,60,340,1,5,0,5,0,1,,,,,,,,,,,,,,,,,,,,,,,,,,,,,,,,,,,,,,,
,,,,,,,,2023-08-16_08h40.25.639,HF_wild_card,2022.2.4,Win32,59.99520038,5daf3ba02b35810016d8d97d,64d2fd46c836a06233681665,64dc7d5a7a5e5ac3952eb0f1,,,,,,,decisionTrl,resources/DP.BMP,resources/DY.BMP,Door3,-0.317592586,-0.058333326,1,0,0,1.6147,optionLeft,70,410,1,6,0,6,0,1,,,,,,,,,,,,,,,,,,,,,,,,,,,,,,,,,,,,,,,
,,,,,,,,2023-08-16_08h40.25.639,HF_wild_card,2022.2.4,Win32,59.99520038,5daf3ba02b35810016d8d97d,64d2fd46c836a06233681665,64dc7d5a7a5e5ac3952eb0f1,,,,,,,decisionTrl,resources/DR.BMP,resources/DP.BMP,Door3,0.325925898,-0.075925933,1,0,0,2.7073,optionRight,70,480,1,7,0,7,0,1,,,,,,,,,,,,,,,,,,,,,,,,,,,,,,,,,,,,,,,
,,,,,,,,2023-08-16_08h40.25.639,HF_wild_card,2022.2.4,Win32,59.99520038,5daf3ba02b35810016d8d97d,64d2fd46c836a06233681665,64dc7d5a7a5e5ac3952eb0f1,,,,,,,sngl,resources/Empty.png,resources/DG.BMP,Door1,0.25,-0.037037037,1,0,0,0.9805,optionRight,30,510,1,8,0,8,0,1,,,,,,,,,,,,,,,,,,,,,,,,,,,,,,,,,,,,,,,
,,,,,,,,2023-08-16_08h40.25.639,HF_wild_card,2022.2.4,Win32,59.99520038,5daf3ba02b35810016d8d97d,64d2fd46c836a06233681665,64dc7d5a7a5e5ac3952eb0f1,,,,,,,decisionTrl,resources/DY.BMP,resources/DP.BMP,Door4,-0.333333333,-0.048148155,1,0,0,2.4074,optionLeft,80,590,1,9,0,9,0,1,,,,,,,,,,,,,,,,,,,,,,,,,,,,,,,,,,,,,,,
,,,,,,,,2023-08-16_08h40.25.639,HF_wild_card,2022.2.4,Win32,59.99520038,5daf3ba02b35810016d8d97d,64d2fd46c836a06233681665,64dc7d5a7a5e5ac3952eb0f1,,,,,,,ctch,resources/DY.BMP,resources/DG.BMP,Door1,0.334259316,-0.052777785,1,0,0,1.687,optionRight,30,620,1,10,0,10,0,1,,,,,,,,,,,,,,,,,,,,,,,,,,,,,,,,,,,,,,,
,,,,,,,,2023-08-16_08h40.25.639,HF_wild_card,2022.2.4,Win32,59.99520038,5daf3ba02b35810016d8d97d,64d2fd46c836a06233681665,64dc7d5a7a5e5ac3952eb0f1,,,,,,,sngl,resources/Empty.png,resources/DP.BMP,Door3,0.457407492,-0.049074067,1,0,0,0.964,optionRight,70,690,1,11,0,11,0,1,,,,,,,,,,,,,,,,,,,,,,,,,,,,,,,,,,,,,,,
,,,,,,,,2023-08-16_08h40.25.639,HF_wild_card,2022.2.4,Win32,59.99520038,5daf3ba02b35810016d8d97d,64d2fd46c836a06233681665,64dc7d5a7a5e5ac3952eb0f1,,,,,,,decisionTrl,resources/DG.BMP,resources/DR.BMP,WildCard_NonEx,0.374074159,-0.091666681,1,0,0,2.0804,optionRight,55,745,1,12,0,12,0,1,,,,,,,,,,,,,,,,,,,,,,,,,,,,,,,,,,,,,,,
,,,,,,,,2023-08-16_08h40.25.639,HF_wild_card,2022.2.4,Win32,59.99520038,5daf3ba02b35810016d8d97d,64d2fd46c836a06233681665,64dc7d5a7a5e5ac3952eb0f1,,,,,,,ctch,resources/DB.BMP,resources/DP.BMP,Door2,-0.321296303,-0.019444466,1,0,0,1.8745,optionLeft,20,765,1,13,0,13,0,1,,,,,,,,,,,,,,,,,,,,,,,,,,,,,,,,,,,,,,,
,,,,,,,,2023-08-16_08h40.25.639,HF_wild_card,2022.2.4,Win32,59.99520038,5daf3ba02b35810016d8d97d,64d2fd46c836a06233681665,64dc7d5a7a5e5ac3952eb0f1,,,,,,,sngl,resources/DG.BMP,resources/Empty.png,Door1,-0.347222222,-0.030555548,1,0,0,0.8805,optionLeft,30,795,1,14,0,14,0,1,,,,,,,,,,,,,,,,,,,,,,,,,,,,,,,,,,,,,,,
,,,,,,,,2023-08-16_08h40.25.639,HF_wild_card,2022.2.4,Win32,59.99520038,5daf3ba02b35810016d8d97d,64d2fd46c836a06233681665,64dc7d5a7a5e5ac3952eb0f1,,,,,,,ctch,resources/DP.BMP,resources/DB.BMP,Door2,0.314814815,-0.029629637,1,0,0,0.8469,optionRight,40,835,1,15,0,15,0,1,,,,,,,,,,,,,,,,,,,,,,,,,,,,,,,,,,,,,,,
,,,,,,,,2023-08-16_08h40.25.639,HF_wild_card,2022.2.4,Win32,59.99520038,5daf3ba02b35810016d8d97d,64d2fd46c836a06233681665,64dc7d5a7a5e5ac3952eb0f1,,,,,,,decisionTrl,resources/DR.BMP,resources/DY.BMP,WildCard_NonEx,-0.349999993,-0.069444444,1,0,0,1.7541,optionLeft,55,890,1,16,0,16,0,1,,,,,,,,,,,,,,,,,,,,,,,,,,,,,,,,,,,,,,,
,,,,,,,,2023-08-16_08h40.25.639,HF_wild_card,2022.2.4,Win32,59.99520038,5daf3ba02b35810016d8d97d,64d2fd46c836a06233681665,64dc7d5a7a5e5ac3952eb0f1,,,,,,,decisionTrl,resources/DB.BMP,resources/DG.BMP,Door2,-0.464814822,-0.118518547,1,0,0,2.8811,optionLeft,40,930,1,17,0,17,0,1,,,,,,,,,,,,,,,,,,,,,,,,,,,,,,,,,,,,,,,
,,,,,,,,2023-08-16_08h40.25.639,HF_wild_card,2022.2.4,Win32,59.99520038,5daf3ba02b35810016d8d97d,64d2fd46c836a06233681665,64dc7d5a7a5e5ac3952eb0f1,,,,,,,sngl,resources/DB.BMP,resources/Empty.png,Door2,-0.194444444,-0.067592586,1,0,0,1.0138,optionLeft,40,970,1,18,0,18,0,1,,,,,,,,,,,,,,,,,,,,,,,,,,,,,,,,,,,,,,,
,,,,,,,,2023-08-16_08h40.25.639,HF_wild_card,2022.2.4,Win32,59.99520038,5daf3ba02b35810016d8d97d,64d2fd46c836a06233681665,64dc7d5a7a5e5ac3952eb0f1,,,,,,,decisionTrl,resources/DB.BMP,resources/DR.BMP,WildCard_NonEx,0.410185213,-0.018518519,1,0,0,1.5024,optionRight,55,1025,1,19,0,19,0,1,,,,,,,,,,,,,,,,,,,,,,,,,,,,,,,,,,,,,,,
,,,,,,,,2023-08-16_08h40.25.639,HF_wild_card,2022.2.4,Win32,59.99520038,5daf3ba02b35810016d8d97d,64d2fd46c836a06233681665,64dc7d5a7a5e5ac3952eb0f1,,,,,,,decisionTrl,resources/DG.BMP,resources/DB.BMP,Door2,0.334259316,-0.069444444,1,0,0,1.5509,optionRight,40,1065,1,20,0,20,0,1,,,,,,,,,,,,,,,,,,,,,,,,,,,,,,,,,,,,,,,
,,,,,,,,2023-08-16_08h40.25.639,HF_wild_card,2022.2.4,Win32,59.99520038,5daf3ba02b35810016d8d97d,64d2fd46c836a06233681665,64dc7d5a7a5e5ac3952eb0f1,,,,,,,sngl,resources/DP.BMP,resources/Empty.png,Door3,-0.35833334,-0.10092594,1,0,0,0.7735,optionLeft,70,1135,1,21,0,21,0,1,,,,,,,,,,,,,,,,,,,,,,,,,,,,,,,,,,,,,,,
,,,,,,,,2023-08-16_08h40.25.639,HF_wild_card,2022.2.4,Win32,59.99520038,5daf3ba02b35810016d8d97d,64d2fd46c836a06233681665,64dc7d5a7a5e5ac3952eb0f1,,,,,,,decisionTrl,resources/DG.BMP,resources/DB.BMP,Door2,0.407407407,-0.067592586,1,0,0,1.6974,optionRight,40,1175,1,22,0,22,0,1,,,,,,,,,,,,,,,,,,,,,,,,,,,,,,,,,,,,,,,
,,,,,,,,2023-08-16_08h40.25.639,HF_wild_card,2022.2.4,Win32,59.99520038,5daf3ba02b35810016d8d97d,64d2fd46c836a06233681665,64dc7d5a7a5e5ac3952eb0f1,,,,,,,sngl,resources/Empty.png,resources/DR.BMP,WildCard_NonEx,0.316666638,-0.017592607,1,0,0,0.7645,optionRight,45,1220,1,23,0,23,0,1,,,,,,,,,,,,,,,,,,,,,,,,,,,,,,,,,,,,,,,
,,,,,,,,2023-08-16_08h40.25.639,HF_wild_card,2022.2.4,Win32,59.99520038,5daf3ba02b35810016d8d97d,64d2fd46c836a06233681665,64dc7d5a7a5e5ac3952eb0f1,,,,,,,sngl,resources/DY.BMP,resources/Empty.png,Door4,-0.296296296,-0.069444444,1,0,0,0.896,optionLeft,80,1300,1,24,0,24,0,1,,,,,,,,,,,,,,,,,,,,,,,,,,,,,,,,,,,,,,,
,,,,,,,,2023-08-16_08h40.25.639,HF_wild_card,2022.2.4,Win32,59.99520038,5daf3ba02b35810016d8d97d,64d2fd46c836a06233681665,64dc7d5a7a5e5ac3952eb0f1,,,,,,,sngl,resources/DR.BMP,resources/Empty.png,WildCard_NonEx,-0.312037044,-0.059259273,1,0,0,1.0315,optionLeft,55,1355,1,25,0,25,0,1,,,,,,,,,,,,,,,,,,,,,,,,,,,,,,,,,,,,,,,
,,,,,,,,2023-08-16_08h40.25.639,HF_wild_card,2022.2.4,Win32,59.99520038,5daf3ba02b35810016d8d97d,64d2fd46c836a06233681665,64dc7d5a7a5e5ac3952eb0f1,,,,,,,sngl,resources/DR.BMP,resources/Empty.png,WildCard_NonEx,-0.341666645,-0.042592614,1,0,0,1.0977,optionLeft,45,1400,1,26,0,26,0,1,,,,,,,,,,,,,,,,,,,,,,,,,,,,,,,,,,,,,,,
,,,,,,,,2023-08-16_08h40.25.639,HF_wild_card,2022.2.4,Win32,59.99520038,5daf3ba02b35810016d8d97d,64d2fd46c836a06233681665,64dc7d5a7a5e5ac3952eb0f1,,,,,,,ctch,resources/DY.BMP,resources/DG.BMP,Door4,-0.380555541,-0.083333333,1,0,0,1.173,optionLeft,80,1480,1,27,0,27,0,1,,,,,,,,,,,,,,,,,,,,,,,,,,,,,,,,,,,,,,,
,,,,,,,,2023-08-16_08h40.25.639,HF_wild_card,2022.2.4,Win32,59.99520038,5daf3ba02b35810016d8d97d,64d2fd46c836a06233681665,64dc7d5a7a5e5ac3952eb0f1,,,,,,,ctch,resources/DG.BMP,resources/DY.BMP,Door4,0,0.006481489,1,0,0,0.5407,optionRight,60,1540,1,28,0,28,0,1,,,,,,,,,,,,,,,,,,,,,,,,,,,,,,,,,,,,,,,
,,,,,,,,2023-08-16_08h40.25.639,HF_wild_card,2022.2.4,Win32,59.99520038,5daf3ba02b35810016d8d97d,64d2fd46c836a06233681665,64dc7d5a7a5e5ac3952eb0f1,,,,,,,sngl,resources/Empty.png,resources/DY.BMP,Door4,0.428703732,-0.019444466,1,0,0,0.7241,optionRight,60,1600,1,29,0,29,0,1,,,,,,,,,,,,,,,,,,,,,,,,,,,,,,,,,,,,,,,
,,,,,,,,2023-08-16_08h40.25.639,HF_wild_card,2022.2.4,Win32,59.99520038,5daf3ba02b35810016d8d97d,64d2fd46c836a06233681665,64dc7d5a7a5e5ac3952eb0f1,,,,,,,decisionTrl,resources/DR.BMP,resources/DG.BMP,WildCard_NonEx,-0.407407407,-0.112037023,1,0,0,1.5325,optionLeft,45,1645,1,30,0,30,0,1,,,,,,,,,,,,,,,,,,,,,,,,,,,,,,,,,,,,,,,
,,,,,,,,2023-08-16_08h40.25.639,HF_wild_card,2022.2.4,Win32,59.99520038,5daf3ba02b35810016d8d97d,64d2fd46c836a06233681665,64dc7d5a7a5e5ac3952eb0f1,,,,,,,decisionTrl,resources/DB.BMP,resources/DG.BMP,Door1,0.332407492,-0.025000007,1,0,0,1.9478,optionRight,30,1675,1,31,0,31,0,1,,,,,,,,,,,,,,,,,,,,,,,,,,,,,,,,,,,,,,,
,,,,,,,,2023-08-16_08h40.25.639,HF_wild_card,2022.2.4,Win32,59.99520038,5daf3ba02b35810016d8d97d,64d2fd46c836a06233681665,64dc7d5a7a5e5ac3952eb0f1,,,,,,,ctch,resources/DG.BMP,resources/DY.BMP,Door4,0.333333333,-0.048148155,1,0,0,1.4658,optionRight,80,1755,1,32,0,32,0,1,,,,,,,,,,,,,,,,,,,,,,,,,,,,,,,,,,,,,,,
,,,,,,,,2023-08-16_08h40.25.639,HF_wild_card,2022.2.4,Win32,59.99520038,5daf3ba02b35810016d8d97d,64d2fd46c836a06233681665,64dc7d5a7a5e5ac3952eb0f1,,,,,,,ctch,resources/DP.BMP,resources/DB.BMP,Door3,-0.402777778,-0.139814801,1,0,0,2.1482,optionLeft,70,1825,1,33,0,33,0,1,,,,,,,,,,,,,,,,,,,,,,,,,,,,,,,,,,,,,,,
,,,,,,,,2023-08-16_08h40.25.639,HF_wild_card,2022.2.4,Win32,59.99520038,5daf3ba02b35810016d8d97d,64d2fd46c836a06233681665,64dc7d5a7a5e5ac3952eb0f1,,,,,,,decisionTrl,resources/DP.BMP,resources/DR.BMP,Door3,-0.248148106,-0.137037065,1,0,0,1.3141,optionLeft,70,1895,1,34,0,34,0,1,,,,,,,,,,,,,,,,,,,,,,,,,,,,,,,,,,,,,,,
,,,,,,,,2023-08-16_08h40.25.639,HF_wild_card,2022.2.4,Win32,59.99520038,5daf3ba02b35810016d8d97d,64d2fd46c836a06233681665,64dc7d5a7a5e5ac3952eb0f1,,,,,,,ctch,resources/DB.BMP,resources/DP.BMP,Door3,0.404629601,-0.024074095,1,0,0,1.0405,optionRight,70,1965,1,35,0,35,0,1,,,,,,,,,,,,,,,,,,,,,,,,,,,,,,,,,,,,,,,
,,,,,,,,2023-08-16_08h40.25.639,HF_wild_card,2022.2.4,Win32,59.99520038,5daf3ba02b35810016d8d97d,64d2fd46c836a06233681665,64dc7d5a7a5e5ac3952eb0f1,,,,,,,decisionTrl,resources/DY.BMP,resources/DP.BMP,Door3,0.318518603,-0.050925926,1,0,0,2.4793,optionRight,70,2035,1,36,0,36,0,1,,,,,,,,,,,,,,,,,,,,,,,,,,,,,,,,,,,,,,,
,,,,,,,,2023-08-16_08h40.25.639,HF_wild_card,2022.2.4,Win32,59.99520038,5daf3ba02b35810016d8d97d,64d2fd46c836a06233681665,64dc7d5a7a5e5ac3952eb0f1,,,,,,,decisionTrl,resources/DP.BMP,resources/DY.BMP,Door3,-0.324999986,-0.099074116,1,0,0,0.9149,optionLeft,70,2105,1,37,0,37,0,1,,,,,,,,,,,,,,,,,,,,,,,,,,,,,,,,,,,,,,,
,,,,,,,,2023-08-16_08h40.25.639,HF_wild_card,2022.2.4,Win32,59.99520038,5daf3ba02b35810016d8d97d,64d2fd46c836a06233681665,64dc7d5a7a5e5ac3952eb0f1,,,,,,,decisionTrl,resources/DB.BMP,resources/DG.BMP,Door1,0.343518575,-0.077777792,1,0,0,2.0313,optionRight,30,2135,1,38,0,38,0,1,,,,,,,,,,,,,,,,,,,,,,,,,,,,,,,,,,,,,,,
,,,,,,,,2023-08-16_08h40.25.639,HF_wild_card,2022.2.4,Win32,59.99520038,5daf3ba02b35810016d8d97d,64d2fd46c836a06233681665,64dc7d5a7a5e5ac3952eb0f1,,,,,,,decisionTrl,resources/DP.BMP,resources/DY.BMP,Door3,-0.327777757,-0.101851852,1,0,0,0.6981,optionLeft,70,2205,1,39,0,39,0,1,,,,,,,,,,,,,,,,,,,,,,,,,,,,,,,,,,,,,,,
,,,,,,,,2023-08-16_08h40.25.639,HF_wild_card,2022.2.4,Win32,59.99520038,5daf3ba02b35810016d8d97d,64d2fd46c836a06233681665,64dc7d5a7a5e5ac3952eb0f1,,,,,,,decisionTrl,resources/DG.BMP,resources/DB.BMP,Door2,0.304629714,-0.050925926,1,0,0,1.1895,optionRight,20,2225,1,40,0,40,0,1,,,,,,,,,,,,,,,,,,,,,,,,,,,,,,,,,,,,,,,
,,,,,,,,2023-08-16_08h40.25.639,HF_wild_card,2022.2.4,Win32,59.99520038,5daf3ba02b35810016d8d97d,64d2fd46c836a06233681665,64dc7d5a7a5e5ac3952eb0f1,,,,,,,decisionTrl,resources/DB.BMP,resources/DG.BMP,Door1,0.299074102,-0.073148162,1,0,0,1.0199,optionRight,30,2255,1,41,0,41,0,1,,,,,,,,,,,,,,,,,,,,,,,,,,,,,,,,,,,,,,,
,,,,,,,,2023-08-16_08h40.25.639,HF_wild_card,2022.2.4,Win32,59.99520038,5daf3ba02b35810016d8d97d,64d2fd46c836a06233681665,64dc7d5a7a5e5ac3952eb0f1,,,,,,,sngl,resources/Empty.png,resources/DR.BMP,WildCard_NonEx,0.225000028,-0.050925926,1,0,0,0.7645,optionRight,55,2310,1,42,0,42,0,1,,,,,,,,,,,,,,,,,,,,,,,,,,,,,,,,,,,,,,,
,,,,,,,,2023-08-16_08h40.25.639,HF_wild_card,2022.2.4,Win32,59.99520038,5daf3ba02b35810016d8d97d,64d2fd46c836a06233681665,64dc7d5a7a5e5ac3952eb0f1,,,,,,,sngl,resources/Empty.png,resources/DB.BMP,Door2,0.249074088,0.001851859,1,0,0,0.8475,optionRight,20,2330,1,43,0,43,0,1,,,,,,,,,,,,,,,,,,,,,,,,,,,,,,,,,,,,,,,
,,,,,,,,2023-08-16_08h40.25.639,HF_wild_card,2022.2.4,Win32,59.99520038,5daf3ba02b35810016d8d97d,64d2fd46c836a06233681665,64dc7d5a7a5e5ac3952eb0f1,,,,,,,,,,,,,,,,,,,,,,,,,,0,0,0,0,1,,,,,,,,,,,,,,,,,,,,,,,,,,,,,,,,,,
,,,,,,,,2023-08-16_08h40.25.639,HF_wild_card,2022.2.4,Win32,59.99520038,5daf3ba02b35810016d8d97d,64d2fd46c836a06233681665,64dc7d5a7a5e5ac3952eb0f1,,,,,,,sngl,resources/Empty.png,resources/DG.BMP,Door1,0.398148148,0.033333319,1,0,0,1.9467,optionRight,30,2360,2,0,0,0,0,1,,,,,,,,,,,,,,,,,,,,,,,,,,,,,,,,,,,,,,,
,,,,,,,,2023-08-16_08h40.25.639,HF_wild_card,2022.2.4,Win32,59.99520038,5daf3ba02b35810016d8d97d,64d2fd46c836a06233681665,64dc7d5a7a5e5ac3952eb0f1,,,,,,,decisionTrl,resources/DP.BMP,resources/DY.BMP,Door3,-0.36296297,-0.143518519,1,0,0,0.8479,optionLeft,70,2430,2,1,0,1,0,1,,,,,,,,,,,,,,,,,,,,,,,,,,,,,,,,,,,,,,,
,,,,,,,,2023-08-16_08h40.25.639,HF_wild_card,2022.2.4,Win32,59.99520038,5daf3ba02b35810016d8d97d,64d2fd46c836a06233681665,64dc7d5a7a5e5ac3952eb0f1,,,,,,,decisionTrl,resources/DP.BMP,resources/DY.BMP,Door3,-0.312037044,-0.124074088,1,0,0,0.715,optionLeft,70,2500,2,2,0,2,0,1,,,,,,,,,,,,,,,,,,,,,,,,,,,,,,,,,,,,,,,
,,,,,,,,2023-08-16_08h40.25.639,HF_wild_card,2022.2.4,Win32,59.99520038,5daf3ba02b35810016d8d97d,64d2fd46c836a06233681665,64dc7d5a7a5e5ac3952eb0f1,,,,,,,decisionTrl,resources/DY.BMP,resources/DP.BMP,Door3,0.229629658,-0.10092594,1,0,0,1.1147,optionRight,70,2570,2,3,0,3,0,1,,,,,,,,,,,,,,,,,,,,,,,,,,,,,,,,,,,,,,,
,,,,,,,,2023-08-16_08h40.25.639,HF_wild_card,2022.2.4,Win32,59.99520038,5daf3ba02b35810016d8d97d,64d2fd46c836a06233681665,64dc7d5a7a5e5ac3952eb0f1,,,,,,,ctch,resources/DY.BMP,resources/DG.BMP,Door4,-0.264814801,-0.103703746,1,0,0,1.472,optionLeft,80,2650,2,4,0,4,0,1,,,,,,,,,,,,,,,,,,,,,,,,,,,,,,,,,,,,,,,
,,,,,,,,2023-08-16_08h40.25.639,HF_wild_card,2022.2.4,Win32,59.99520038,5daf3ba02b35810016d8d97d,64d2fd46c836a06233681665,64dc7d5a7a5e5ac3952eb0f1,,,,,,,sngl,resources/DR.BMP,resources/Empty.png,WildCard_NonEx,-0.207407422,-0.077777792,1,0,0,1.0725,optionLeft,45,2695,2,5,0,5,0,1,,,,,,,,,,,,,,,,,,,,,,,,,,,,,,,,,,,,,,,
,,,,,,,,2023-08-16_08h40.25.639,HF_wild_card,2022.2.4,Win32,59.99520038,5daf3ba02b35810016d8d97d,64d2fd46c836a06233681665,64dc7d5a7a5e5ac3952eb0f1,,,,,,,ctch,resources/DG.BMP,resources/DY.BMP,Door4,0.281481496,-0.117592635,1,0,0,1.231,optionRight,60,2755,2,6,0,6,0,1,,,,,,,,,,,,,,,,,,,,,,,,,,,,,,,,,,,,,,,
,,,,,,,,2023-08-16_08h40.25.639,HF_wild_card,2022.2.4,Win32,59.99520038,5daf3ba02b35810016d8d97d,64d2fd46c836a06233681665,64dc7d5a7a5e5ac3952eb0f1,,,,,,,ctch,resources/DB.BMP,resources/DP.BMP,Door3,0.369444529,-0.017592607,1,0,0,0.9483,optionRight,70,2825,2,7,0,7,0,1,,,,,,,,,,,,,,,,,,,,,,,,,,,,,,,,,,,,,,,
,,,,,,,,2023-08-16_08h40.25.639,HF_wild_card,2022.2.4,Win32,59.99520038,5daf3ba02b35810016d8d97d,64d2fd46c836a06233681665,64dc7d5a7a5e5ac3952eb0f1,,,,,,,decisionTrl,resources/DB.BMP,resources/DG.BMP,Door2,-0.212037051,-0.011111118,1,0,0,1.8817,optionLeft,20,2845,2,8,0,8,0,1,,,,,,,,,,,,,,,,,,,,,,,,,,,,,,,,,,,,,,,
,,,,,,,,2023-08-16_08h40.25.639,HF_wild_card,2022.2.4,Win32,59.99520038,5daf3ba02b35810016d8d97d,64d2fd46c836a06233681665,64dc7d5a7a5e5ac3952eb0f1,,,,,,,decisionTrl,resources/DY.BMP,resources/DP.BMP,Door3,0.3648149,-0.036111125,1,0,0,0.6822,optionRight,70,2915,2,9,0,9,0,1,,,,,,,,,,,,,,,,,,,,,,,,,,,,,,,,,,,,,,,
,,,,,,,,2023-08-16_08h40.25.639,HF_wild_card,2022.2.4,Win32,59.99520038,5daf3ba02b35810016d8d97d,64d2fd46c836a06233681665,64dc7d5a7a5e5ac3952eb0f1,,,,,,,sngl,resources/DG.BMP,resources/Empty.png,Door1,-0.231481481,-0.093518504,1,0,0,0.8302,optionLeft,30,2945,2,10,0,10,0,1,,,,,,,,,,,,,,,,,,,,,,,,,,,,,,,,,,,,,,,
,,,,,,,,2023-08-16_08h40.25.639,HF_wild_card,2022.2.4,Win32,59.99520038,5daf3ba02b35810016d8d97d,64d2fd46c836a06233681665,64dc7d5a7a5e5ac3952eb0f1,,,,,,,decisionTrl,resources/DP.BMP,resources/DR.BMP,Door3,-0.241666653,-0.069444444,1,0,0,1.2975,optionLeft,70,3015,2,11,0,11,0,1,,,,,,,,,,,,,,,,,,,,,,,,,,,,,,,,,,,,,,,
,,,,,,,,2023-08-16_08h40.25.639,HF_wild_card,2022.2.4,Win32,59.99520038,5daf3ba02b35810016d8d97d,64d2fd46c836a06233681665,64dc7d5a7a5e5ac3952eb0f1,,,,,,,ctch,resources/DP.BMP,resources/DB.BMP,Door3,-0.3675926,-0.112963005,1,0,0,0.982,optionLeft,70,3085,2,12,0,12,0,1,,,,,,,,,,,,,,,,,,,,,,,,,,,,,,,,,,,,,,,
,,,,,,,,2023-08-16_08h40.25.639,HF_wild_card,2022.2.4,Win32,59.99520038,5daf3ba02b35810016d8d97d,64d2fd46c836a06233681665,64dc7d5a7a5e5ac3952eb0f1,,,,,,,decisionTrl,resources/DP.BMP,resources/DY.BMP,Door3,-0.353703711,-0.134259259,1,0,0,1.1309,optionLeft,70,3155,2,13,0,13,0,1,,,,,,,,,,,,,,,,,,,,,,,,,,,,,,,,,,,,,,,
,,,,,,,,2023-08-16_08h40.25.639,HF_wild_card,2022.2.4,Win32,59.99520038,5daf3ba02b35810016d8d97d,64d2fd46c836a06233681665,64dc7d5a7a5e5ac3952eb0f1,,,,,,,decisionTrl,resources/DR.BMP,resources/DB.BMP,WildCard_NonEx,-0.355555534,-0.139814801,1,0,0,1.9483,optionLeft,55,3210,2,14,0,14,0,1,,,,,,,,,,,,,,,,,,,,,,,,,,,,,,,,,,,,,,,
,,,,,,,,2023-08-16_08h40.25.639,HF_wild_card,2022.2.4,Win32,59.99520038,5daf3ba02b35810016d8d97d,64d2fd46c836a06233681665,64dc7d5a7a5e5ac3952eb0f1,,,,,,,decisionTrl,resources/DY.BMP,resources/DR.BMP,Door4,-0.304629608,-0.062962956,1,0,0,1.4249,optionLeft,80,3290,2,15,0,15,0,1,,,,,,,,,,,,,,,,,,,,,,,,,,,,,,,,,,,,,,,
,,,,,,,,2023-08-16_08h40.25.639,HF_wild_card,2022.2.4,Win32,59.99520038,5daf3ba02b35810016d8d97d,64d2fd46c836a06233681665,64dc7d5a7a5e5ac3952eb0f1,,,,,,,sngl,resources/Empty.png,resources/DB.BMP,Door2,0.315740797,-0.059259273,1,0,0,0.8978,optionRight,40,3330,2,16,0,16,0,1,,,,,,,,,,,,,,,,,,,,,,,,,,,,,,,,,,,,,,,
,,,,,,,,2023-08-16_08h40.25.639,HF_wild_card,2022.2.4,Win32,59.99520038,5daf3ba02b35810016d8d97d,64d2fd46c836a06233681665,64dc7d5a7a5e5ac3952eb0f1,,,,,,,decisionTrl,resources/DG.BMP,resources/DB.BMP,Door2,0.251851894,-0.089814822,1,0,0,1.7238,optionRight,20,3350,2,17,0,17,0,1,,,,,,,,,,,,,,,,,,,,,,,,,,,,,,,,,,,,,,,
,,,,,,,,2023-08-16_08h40.25.639,HF_wild_card,2022.2.4,Win32,59.99520038,5daf3ba02b35810016d8d97d,64d2fd46c836a06233681665,64dc7d5a7a5e5ac3952eb0f1,,,,,,,ctch,resources/DY.BMP,resources/DG.BMP,Door4,-0.336111104,-0.10092594,1,0,0,1.124,optionLeft,80,3430,2,18,0,18,0,1,,,,,,,,,,,,,,,,,,,,,,,,,,,,,,,,,,,,,,,
,,,,,,,,2023-08-16_08h40.25.639,HF_wild_card,2022.2.4,Win32,59.99520038,5daf3ba02b35810016d8d97d,64d2fd46c836a06233681665,64dc7d5a7a5e5ac3952eb0f1,,,,,,,ctch,resources/DP.BMP,resources/DB.BMP,Door3,-0.248148106,-0.113888917,1,0,0,0.8876,optionLeft,70,3500,2,19,0,19,0,1,,,,,,,,,,,,,,,,,,,,,,,,,,,,,,,,,,,,,,,
,,,,,,,,2023-08-16_08h40.25.639,HF_wild_card,2022.2.4,Win32,59.99520038,5daf3ba02b35810016d8d97d,64d2fd46c836a06233681665,64dc7d5a7a5e5ac3952eb0f1,,,,,,,decisionTrl,resources/DG.BMP,resources/DB.BMP,Door1,-0.340740734,-0.185185185,1,0,0,1.6152,optionLeft,30,3530,2,20,0,20,0,1,,,,,,,,,,,,,,,,,,,,,,,,,,,,,,,,,,,,,,,
,,,,,,,,2023-08-16_08h40.25.639,HF_wild_card,2022.2.4,Win32,59.99520038,5daf3ba02b35810016d8d97d,64d2fd46c836a06233681665,64dc7d5a7a5e5ac3952eb0f1,,,,,,,sngl,resources/Empty.png,resources/DR.BMP,WildCard_NonEx,0.401851937,-0.100000028,1,0,0,0.7718,optionRight,55,3585,2,21,0,21,0,1,,,,,,,,,,,,,,,,,,,,,,,,,,,,,,,,,,,,,,,
,,,,,,,,2023-08-16_08h40.25.639,HF_wild_card,2022.2.4,Win32,59.99520038,5daf3ba02b35810016d8d97d,64d2fd46c836a06233681665,64dc7d5a7a5e5ac3952eb0f1,,,,,,,decisionTrl,resources/DB.BMP,resources/DR.BMP,WildCard_NonEx,0.361111111,-0.070370392,1,0,0,1.9391,optionRight,45,3630,2,22,0,22,0,1,,,,,,,,,,,,,,,,,,,,,,,,,,,,,,,,,,,,,,,
,,,,,,,,2023-08-16_08h40.25.639,HF_wild_card,2022.2.4,Win32,59.99520038,5daf3ba02b35810016d8d97d,64d2fd46c836a06233681665,64dc7d5a7a5e5ac3952eb0f1,,,,,,,sngl,resources/Empty.png,resources/DY.BMP,Door4,0.315740797,-0.081481474,1,0,0,0.7642,optionRight,80,3710,2,23,0,23,0,1,,,,,,,,,,,,,,,,,,,,,,,,,,,,,,,,,,,,,,,
,,,,,,,,2023-08-16_08h40.25.639,HF_wild_card,2022.2.4,Win32,59.99520038,5daf3ba02b35810016d8d97d,64d2fd46c836a06233681665,64dc7d5a7a5e5ac3952eb0f1,,,,,,,decisionTrl,resources/DG.BMP,resources/DB.BMP,Door1,-0.298148155,-0.154629672,1,0,0,1.0481,optionLeft,30,3740,2,24,0,24,0,1,,,,,,,,,,,,,,,,,,,,,,,,,,,,,,,,,,,,,,,
,,,,,,,,2023-08-16_08h40.25.639,HF_wild_card,2022.2.4,Win32,59.99520038,5daf3ba02b35810016d8d97d,64d2fd46c836a06233681665,64dc7d5a7a5e5ac3952eb0f1,,,,,,,decisionTrl,resources/DB.BMP,resources/DG.BMP,Door2,-0.273148148,-0.083333333,1,0,0,1.2143,optionLeft,40,3780,2,25,0,25,0,1,,,,,,,,,,,,,,,,,,,,,,,,,,,,,,,,,,,,,,,
,,,,,,,,2023-08-16_08h40.25.639,HF_wild_card,2022.2.4,Win32,59.99520038,5daf3ba02b35810016d8d97d,64d2fd46c836a06233681665,64dc7d5a7a5e5ac3952eb0f1,,,,,,,sngl,resources/Empty.png,resources/DR.BMP,WildCard_NonEx,0.287962949,-0.139814801,1,0,0,0.7572,optionRight,45,3825,2,26,0,26,0,1,,,,,,,,,,,,,,,,,,,,,,,,,,,,,,,,,,,,,,,
,,,,,,,,2023-08-16_08h40.25.639,HF_wild_card,2022.2.4,Win32,59.99520038,5daf3ba02b35810016d8d97d,64d2fd46c836a06233681665,64dc7d5a7a5e5ac3952eb0f1,,,,,,,sngl,resources/DB.BMP,resources/Empty.png,Door2,-0.311111097,-0.20648151,1,0,0,0.915,optionLeft,20,3845,2,27,0,27,0,1,,,,,,,,,,,,,,,,,,,,,,,,,,,,,,,,,,,,,,,
,,,,,,,,2023-08-16_08h40.25.639,HF_wild_card,2022.2.4,Win32,59.99520038,5daf3ba02b35810016d8d97d,64d2fd46c836a06233681665,64dc7d5a7a5e5ac3952eb0f1,,,,,,,sngl,resources/DR.BMP,resources/Empty.png,WildCard_NonEx,-0.329629616,-0.141666695,1,0,0,0.5809,optionLeft,55,3900,2,28,0,28,0,1,,,,,,,,,,,,,,,,,,,,,,,,,,,,,,,,,,,,,,,
,,,,,,,,2023-08-16_08h40.25.639,HF_wild_card,2022.2.4,Win32,59.99520038,5daf3ba02b35810016d8d97d,64d2fd46c836a06233681665,64dc7d5a7a5e5ac3952eb0f1,,,,,,,decisionTrl,resources/DR.BMP,resources/DY.BMP,Door4,0.170370384,-0.076851845,1,0,0,0.9484,optionRight,80,3980,2,29,0,29,0,1,,,,,,,,,,,,,,,,,,,,,,,,,,,,,,,,,,,,,,,
,,,,,,,,2023-08-16_08h40.25.639,HF_wild_card,2022.2.4,Win32,59.99520038,5daf3ba02b35810016d8d97d,64d2fd46c836a06233681665,64dc7d5a7a5e5ac3952eb0f1,,,,,,,decisionTrl,resources/DY.BMP,resources/DP.BMP,Door4,-0.357407393,-0.078703704,1,0,0,1.2645,optionLeft,60,4040,2,30,0,30,0,1,,,,,,,,,,,,,,,,,,,,,,,,,,,,,,,,,,,,,,,
,,,,,,,,2023-08-16_08h40.25.639,HF_wild_card,2022.2.4,Win32,59.99520038,5daf3ba02b35810016d8d97d,64d2fd46c836a06233681665,64dc7d5a7a5e5ac3952eb0f1,,,,,,,decisionTrl,resources/DR.BMP,resources/DP.BMP,Door3,0.425925926,-0.053703697,1,0,0,0.898,optionRight,70,4110,2,31,0,31,0,1,,,,,,,,,,,,,,,,,,,,,,,,,,,,,,,,,,,,,,,
,,,,,,,,2023-08-16_08h40.25.639,HF_wild_card,2022.2.4,Win32,59.99520038,5daf3ba02b35810016d8d97d,64d2fd46c836a06233681665,64dc7d5a7a5e5ac3952eb0f1,,,,,,,decisionTrl,resources/DG.BMP,resources/DB.BMP,Door1,-0.307407414,-0.104629658,1,0,0,0.765,optionLeft,30,4140,2,32,0,32,0,1,,,,,,,,,,,,,,,,,,,,,,,,,,,,,,,,,,,,,,,
,,,,,,,,2023-08-16_08h40.25.639,HF_wild_card,2022.2.4,Win32,59.99520038,5daf3ba02b35810016d8d97d,64d2fd46c836a06233681665,64dc7d5a7a5e5ac3952eb0f1,,,,,,,decisionTrl,resources/DP.BMP,resources/DY.BMP,Door4,0.288888931,-0.087962963,1,0,0,1.4653,optionRight,60,4200,2,33,0,33,0,1,,,,,,,,,,,,,,,,,,,,,,,,,,,,,,,,,,,,,,,
,,,,,,,,2023-08-16_08h40.25.639,HF_wild_card,2022.2.4,Win32,59.99520038,5daf3ba02b35810016d8d97d,64d2fd46c836a06233681665,64dc7d5a7a5e5ac3952eb0f1,,,,,,,sngl,resources/DP.BMP,resources/Empty.png,Door3,-0.344444452,-0.089814822,1,0,0,0.6002,optionLeft,70,4270,2,34,0,34,0,1,,,,,,,,,,,,,,,,,,,,,,,,,,,,,,,,,,,,,,,
,,,,,,,,2023-08-16_08h40.25.639,HF_wild_card,2022.2.4,Win32,59.99520038,5daf3ba02b35810016d8d97d,64d2fd46c836a06233681665,64dc7d5a7a5e5ac3952eb0f1,,,,,,,sngl,resources/DY.BMP,resources/Empty.png,Door4,-0.310185185,0.006481489,1,0,0,0.7042,optionLeft,60,4330,2,35,0,35,0,1,,,,,,,,,,,,,,,,,,,,,,,,,,,,,,,,,,,,,,,
,,,,,,,,2023-08-16_08h40.25.639,HF_wild_card,2022.2.4,Win32,59.99520038,5daf3ba02b35810016d8d97d,64d2fd46c836a06233681665,64dc7d5a7a5e5ac3952eb0f1,,,,,,,ctch,resources/DG.BMP,resources/DY.BMP,Door4,0.311111168,-0.025000007,1,0,0,0.9721,optionRight,80,4410,2,36,0,36,0,1,,,,,,,,,,,,,,,,,,,,,,,,,,,,,,,,,,,,,,,
,,,,,,,,2023-08-16_08h40.25.639,HF_wild_card,2022.2.4,Win32,59.99520038,5daf3ba02b35810016d8d97d,64d2fd46c836a06233681665,64dc7d5a7a5e5ac3952eb0f1,,,,,,,decisionTrl,resources/DG.BMP,resources/DR.BMP,WildCard_NonEx,0.300000085,-0.077777792,1,0,0,1.5817,optionRight,45,4455,2,37,0,37,0,1,,,,,,,,,,,,,,,,,,,,,,,,,,,,,,,,,,,,,,,
,,,,,,,,2023-08-16_08h40.25.639,HF_wild_card,2022.2.4,Win32,59.99520038,5daf3ba02b35810016d8d97d,64d2fd46c836a06233681665,64dc7d5a7a5e5ac3952eb0f1,,,,,,,decisionTrl,resources/DB.BMP,resources/DG.BMP,Door1,0.304629714,-0.034259266,1,0,0,0.8985,optionRight,30,4485,2,38,0,38,0,1,,,,,,,,,,,,,,,,,,,,,,,,,,,,,,,,,,,,,,,
,,,,,,,,2023-08-16_08h40.25.639,HF_wild_card,2022.2.4,Win32,59.99520038,5daf3ba02b35810016d8d97d,64d2fd46c836a06233681665,64dc7d5a7a5e5ac3952eb0f1,,,,,,,decisionTrl,resources/DR.BMP,resources/DG.BMP,WildCard_NonEx,-0.291666667,-0.095370399,1,0,0,0.8982,optionLeft,45,4530,2,39,0,39,0,1,,,,,,,,,,,,,,,,,,,,,,,,,,,,,,,,,,,,,,,
,,,,,,,,2023-08-16_08h40.25.639,HF_wild_card,2022.2.4,Win32,59.99520038,5daf3ba02b35810016d8d97d,64d2fd46c836a06233681665,64dc7d5a7a5e5ac3952eb0f1,,,,,,,sngl,resources/Empty.png,resources/DP.BMP,Door3,0.253703718,-0.034259266,1,0,0,0.7235,optionRight,70,4600,2,40,0,40,0,1,,,,,,,,,,,,,,,,,,,,,,,,,,,,,,,,,,,,,,,
,,,,,,,,2023-08-16_08h40.25.639,HF_wild_card,2022.2.4,Win32,59.99520038,5daf3ba02b35810016d8d97d,64d2fd46c836a06233681665,64dc7d5a7a5e5ac3952eb0f1,,,,,,,decisionTrl,resources/DY.BMP,resources/DP.BMP,Door3,0.342592593,-0.068518533,1,0,0,1.2242,optionRight,70,4670,2,41,0,41,0,1,,,,,,,,,,,,,,,,,,,,,,,,,,,,,,,,,,,,,,,
,,,,,,,,2023-08-16_08h40.25.639,HF_wild_card,2022.2.4,Win32,59.99520038,5daf3ba02b35810016d8d97d,64d2fd46c836a06233681665,64dc7d5a7a5e5ac3952eb0f1,,,,,,,decisionTrl,resources/DB.BMP,resources/DG.BMP,Door1,0.346296381,-0.160185213,1,0,0,1.0151,optionRight,30,4700,2,42,0,42,0,1,,,,,,,,,,,,,,,,,,,,,,,,,,,,,,,,,,,,,,,
,,,,,,,,2023-08-16_08h40.25.639,HF_wild_card,2022.2.4,Win32,59.99520038,5daf3ba02b35810016d8d97d,64d2fd46c836a06233681665,64dc7d5a7a5e5ac3952eb0f1,,,,,,,ctch,resources/DB.BMP,resources/DP.BMP,Door3,0.352777834,-0.100000028,1,0,0,0.724,optionRight,70,4770,2,43,0,43,0,1,,,,,,,,,,,,,,,,,,,,,,,,,,,,,,,,,,,,,,,
,,,,,,,,2023-08-16_08h40.25.639,HF_wild_card,2022.2.4,Win32,59.99520038,5daf3ba02b35810016d8d97d,64d2fd46c836a06233681665,64dc7d5a7a5e5ac3952eb0f1,,,,,,,,,,,,,,,,,,,,,,,,,,1,0,1,0,1,,,,,,,,,,,,,,,,,,,,,,,,,,,,,,,,,,
,,,,,,,,2023-08-16_08h40.25.639,HF_wild_card,2022.2.4,Win32,59.99520038,5daf3ba02b35810016d8d97d,64d2fd46c836a06233681665,64dc7d5a7a5e5ac3952eb0f1,,,,,,,sngl,resources/DR.BMP,resources/Empty.png,WildCard_NonEx,-0.396296289,-0.094444487,1,0,0,1.7372,optionLeft,45,4815,3,0,0,0,0,1,,,,,,,,,,,,,,,,,,,,,,,,,,,,,,,,,,,,,,,
,,,,,,,,2023-08-16_08h40.25.639,HF_wild_card,2022.2.4,Win32,59.99520038,5daf3ba02b35810016d8d97d,64d2fd46c836a06233681665,64dc7d5a7a5e5ac3952eb0f1,,,,,,,decisionTrl,resources/DP.BMP,resources/DY.BMP,Door3,-0.360185164,-0.083333333,1,0,0,0.8137,optionLeft,70,4885,3,1,0,1,0,1,,,,,,,,,,,,,,,,,,,,,,,,,,,,,,,,,,,,,,,
,,,,,,,,2023-08-16_08h40.25.639,HF_wild_card,2022.2.4,Win32,59.99520038,5daf3ba02b35810016d8d97d,64d2fd46c836a06233681665,64dc7d5a7a5e5ac3952eb0f1,,,,,,,ctch,resources/DY.BMP,resources/DG.BMP,Door4,-0.267592607,-0.064814815,1,0,0,1.0066,optionLeft,60,4945,3,2,0,2,0,1,,,,,,,,,,,,,,,,,,,,,,,,,,,,,,,,,,,,,,,
,,,,,,,,2023-08-16_08h40.25.639,HF_wild_card,2022.2.4,Win32,59.99520038,5daf3ba02b35810016d8d97d,64d2fd46c836a06233681665,64dc7d5a7a5e5ac3952eb0f1,,,,,,,ctch,resources/DP.BMP,resources/DB.BMP,Door3,-0.250925912,-0.092592593,1,0,0,0.6817,optionLeft,70,5015,3,3,0,3,0,1,,,,,,,,,,,,,,,,,,,,,,,,,,,,,,,,,,,,,,,
,,,,,,,,2023-08-16_08h40.25.639,HF_wild_card,2022.2.4,Win32,59.99520038,5daf3ba02b35810016d8d97d,64d2fd46c836a06233681665,64dc7d5a7a5e5ac3952eb0f1,,,,,,,ctch,resources/DB.BMP,resources/DP.BMP,Door3,0.328703704,-0.09629631,1,0,0,0.9547,optionRight,70,5085,3,4,0,4,0,1,,,,,,,,,,,,,,,,,,,,,,,,,,,,,,,,,,,,,,,
,,,,,,,,2023-08-16_08h40.25.639,HF_wild_card,2022.2.4,Win32,59.99520038,5daf3ba02b35810016d8d97d,64d2fd46c836a06233681665,64dc7d5a7a5e5ac3952eb0f1,,,,,,,decisionTrl,resources/DG.BMP,resources/DB.BMP,Door1,-0.272222236,-0.10092594,1,0,0,1.8403,optionLeft,30,5115,3,5,0,5,0,1,,,,,,,,,,,,,,,,,,,,,,,,,,,,,,,,,,,,,,,
,,,,,,,,2023-08-16_08h40.25.639,HF_wild_card,2022.2.4,Win32,59.99520038,5daf3ba02b35810016d8d97d,64d2fd46c836a06233681665,64dc7d5a7a5e5ac3952eb0f1,,,,,,,decisionTrl,resources/DP.BMP,resources/DY.BMP,Door3,-0.25462963,-0.093518504,1,0,0,1.082,optionLeft,70,5185,3,6,0,6,0,1,,,,,,,,,,,,,,,,,,,,,,,,,,,,,,,,,,,,,,,
,,,,,,,,2023-08-16_08h40.25.639,HF_wild_card,2022.2.4,Win32,59.99520038,5daf3ba02b35810016d8d97d,64d2fd46c836a06233681665,64dc7d5a7a5e5ac3952eb0f1,,,,,,,decisionTrl,resources/DB.BMP,resources/DG.BMP,Door1,0.365740741,-0.069444444,1,0,0,1.6155,optionRight,30,5215,3,7,0,7,0,1,,,,,,,,,,,,,,,,,,,,,,,,,,,,,,,,,,,,,,,
,,,,,,,,2023-08-16_08h40.25.639,HF_wild_card,2022.2.4,Win32,59.99520038,5daf3ba02b35810016d8d97d,64d2fd46c836a06233681665,64dc7d5a7a5e5ac3952eb0f1,,,,,,,ctch,resources/DP.BMP,resources/DB.BMP,Door3,-0.364814794,-0.178703732,1,0,0,1.2314,optionLeft,70,5285,3,8,0,8,0,1,,,,,,,,,,,,,,,,,,,,,,,,,,,,,,,,,,,,,,,
,,,,,,,,2023-08-16_08h40.25.639,HF_wild_card,2022.2.4,Win32,59.99520038,5daf3ba02b35810016d8d97d,64d2fd46c836a06233681665,64dc7d5a7a5e5ac3952eb0f1,,,,,,,decisionTrl,resources/DP.BMP,resources/DR.BMP,Door3,-0.420370349,-0.18240745,1,0,0,0.7322,optionLeft,70,5355,3,9,0,9,0,1,,,,,,,,,,,,,,,,,,,,,,,,,,,,,,,,,,,,,,,
,,,,,,,,2023-08-16_08h40.25.639,HF_wild_card,2022.2.4,Win32,59.99520038,5daf3ba02b35810016d8d97d,64d2fd46c836a06233681665,64dc7d5a7a5e5ac3952eb0f1,,,,,,,decisionTrl,resources/DG.BMP,resources/DB.BMP,Door1,-0.305555556,-0.075925933,1,0,0,0.7797,optionLeft,30,5385,3,10,0,10,0,1,,,,,,,,,,,,,,,,,,,,,,,,,,,,,,,,,,,,,,,
,,,,,,,,2023-08-16_08h40.25.639,HF_wild_card,2022.2.4,Win32,59.99520038,5daf3ba02b35810016d8d97d,64d2fd46c836a06233681665,64dc7d5a7a5e5ac3952eb0f1,,,,,,,decisionTrl,resources/DY.BMP,resources/DP.BMP,Door3,0.357407464,-0.068518533,1,0,0,0.7886,optionRight,70,5455,3,11,0,11,0,1,,,,,,,,,,,,,,,,,,,,,,,,,,,,,,,,,,,,,,,
,,,,,,,,2023-08-16_08h40.25.639,HF_wild_card,2022.2.4,Win32,59.99520038,5daf3ba02b35810016d8d97d,64d2fd46c836a06233681665,64dc7d5a7a5e5ac3952eb0f1,,,,,,,sngl,resources/Empty.png,resources/DP.BMP,Door3,0.328703704,-0.097222222,1,0,0,0.7456,optionRight,70,5525,3,12,0,12,0,1,,,,,,,,,,,,,,,,,,,,,,,,,,,,,,,,,,,,,,,
,,,,,,,,2023-08-16_08h40.25.639,HF_wild_card,2022.2.4,Win32,59.99520038,5daf3ba02b35810016d8d97d,64d2fd46c836a06233681665,64dc7d5a7a5e5ac3952eb0f1,,,,,,,sngl,resources/DB.BMP,resources/Empty.png,Door2,-0.280555513,-0.117592635,1,0,0,0.6988,optionLeft,40,5565,3,13,0,13,0,1,,,,,,,,,,,,,,,,,,,,,,,,,,,,,,,,,,,,,,,
,,,,,,,,2023-08-16_08h40.25.639,HF_wild_card,2022.2.4,Win32,59.99520038,5daf3ba02b35810016d8d97d,64d2fd46c836a06233681665,64dc7d5a7a5e5ac3952eb0f1,,,,,,,sngl,resources/Empty.png,resources/DY.BMP,Door4,0.187962991,-0.039814808,1,0,0,0.6291,optionRight,60,5625,3,14,0,14,0,1,,,,,,,,,,,,,,,,,,,,,,,,,,,,,,,,,,,,,,,
,,,,,,,,2023-08-16_08h40.25.639,HF_wild_card,2022.2.4,Win32,59.99520038,5daf3ba02b35810016d8d97d,64d2fd46c836a06233681665,64dc7d5a7a5e5ac3952eb0f1,,,,,,,decisionTrl,resources/DR.BMP,resources/DP.BMP,Door3,0.265740783,-0.044444437,1,0,0,0.9136,optionRight,70,5695,3,15,0,15,0,1,,,,,,,,,,,,,,,,,,,,,,,,,,,,,,,,,,,,,,,
,,,,,,,,2023-08-16_08h40.25.639,HF_wild_card,2022.2.4,Win32,59.99520038,5daf3ba02b35810016d8d97d,64d2fd46c836a06233681665,64dc7d5a7a5e5ac3952eb0f1,,,,,,,decisionTrl,resources/DY.BMP,resources/DR.BMP,Door4,-0.368518511,-0.053703697,1,0,0,1.2548,optionLeft,60,5755,3,16,0,16,0,1,,,,,,,,,,,,,,,,,,,,,,,,,,,,,,,,,,,,,,,
,,,,,,,,2023-08-16_08h40.25.639,HF_wild_card,2022.2.4,Win32,59.99520038,5daf3ba02b35810016d8d97d,64d2fd46c836a06233681665,64dc7d5a7a5e5ac3952eb0f1,,,,,,,sngl,resources/DG.BMP,resources/Empty.png,Door1,-0.294444402,-0.097222222,1,0,0,0.6513,optionLeft,30,5785,3,17,0,17,0,1,,,,,,,,,,,,,,,,,,,,,,,,,,,,,,,,,,,,,,,
,,,,,,,,2023-08-16_08h40.25.639,HF_wild_card,2022.2.4,Win32,59.99520038,5daf3ba02b35810016d8d97d,64d2fd46c836a06233681665,64dc7d5a7a5e5ac3952eb0f1,,,,,,,decisionTrl,resources/DR.BMP,resources/DY.BMP,Door4,0.312962991,-0.064814815,1,0,0,1.6651,optionRight,60,5845,3,18,0,18,0,1,,,,,,,,,,,,,,,,,,,,,,,,,,,,,,,,,,,,,,,
,,,,,,,,2023-08-16_08h40.25.639,HF_wild_card,2022.2.4,Win32,59.99520038,5daf3ba02b35810016d8d97d,64d2fd46c836a06233681665,64dc7d5a7a5e5ac3952eb0f1,,,,,,,decisionTrl,resources/DB.BMP,resources/DG.BMP,Door1,0.385185242,-0.065740762,1,0,0,1.2645,optionRight,30,5875,3,19,0,19,0,1,,,,,,,,,,,,,,,,,,,,,,,,,,,,,,,,,,,,,,,
,,,,,,,,2023-08-16_08h40.25.639,HF_wild_card,2022.2.4,Win32,59.99520038,5daf3ba02b35810016d8d97d,64d2fd46c836a06233681665,64dc7d5a7a5e5ac3952eb0f1,,,,,,,ctch,resources/DG.BMP,resources/DY.BMP,Door4,0.309259344,-0.075000021,1,0,0,0.7409,optionRight,80,5955,3,20,0,20,0,1,,,,,,,,,,,,,,,,,,,,,,,,,,,,,,,,,,,,,,,
,,,,,,,,2023-08-16_08h40.25.639,HF_wild_card,2022.2.4,Win32,59.99520038,5daf3ba02b35810016d8d97d,64d2fd46c836a06233681665,64dc7d5a7a5e5ac3952eb0f1,,,,,,,decisionTrl,resources/DY.BMP,resources/DP.BMP,Door3,0.305555556,-0.056481503,1,0,0,1.0077,optionRight,70,6025,3,21,0,21,0,1,,,,,,,,,,,,,,,,,,,,,,,,,,,,,,,,,,,,,,,
,,,,,,,,2023-08-16_08h40.25.639,HF_wild_card,2022.2.4,Win32,59.99520038,5daf3ba02b35810016d8d97d,64d2fd46c836a06233681665,64dc7d5a7a5e5ac3952eb0f1,,,,,,,decisionTrl,resources/DB.BMP,resources/DG.BMP,Door1,0.381481453,-0.061111132,1,0,0,1.0151,optionRight,30,6055,3,22,0,22,0,1,,,,,,,,,,,,,,,,,,,,,,,,,,,,,,,,,,,,,,,
,,,,,,,,2023-08-16_08h40.25.639,HF_wild_card,2022.2.4,Win32,59.99520038,5daf3ba02b35810016d8d97d,64d2fd46c836a06233681665,64dc7d5a7a5e5ac3952eb0f1,,,,,,,sngl,resources/Empty.png,resources/DG.BMP,Door1,0.332407492,-0.031481496,1,0,0,0.6481,optionRight,30,6085,3,23,0,23,0,1,,,,,,,,,,,,,,,,,,,,,,,,,,,,,,,,,,,,,,,
,,,,,,,,2023-08-16_08h40.25.639,HF_wild_card,2022.2.4,Win32,59.99520038,5daf3ba02b35810016d8d97d,64d2fd46c836a06233681665,64dc7d5a7a5e5ac3952eb0f1,,,,,,,decisionTrl,resources/DB.BMP,resources/DG.BMP,Door2,-0.282407407,-0.137037065,1,0,0,0.6487,optionLeft,40,6125,3,24,0,24,0,1,,,,,,,,,,,,,,,,,,,,,,,,,,,,,,,,,,,,,,,
,,,,,,,,2023-08-16_08h40.25.639,HF_wild_card,2022.2.4,Win32,59.99520038,5daf3ba02b35810016d8d97d,64d2fd46c836a06233681665,64dc7d5a7a5e5ac3952eb0f1,,,,,,,decisionTrl,resources/DG.BMP,resources/DB.BMP,Door1,-0.312962956,-0.123148176,1,0,0,0.8244,optionLeft,30,6155,3,25,0,25,0,1,,,,,,,,,,,,,,,,,,,,,,,,,,,,,,,,,,,,,,,
,,,,,,,,2023-08-16_08h40.25.639,HF_wild_card,2022.2.4,Win32,59.99520038,5daf3ba02b35810016d8d97d,64d2fd46c836a06233681665,64dc7d5a7a5e5ac3952eb0f1,,,,,,,decisionTrl,resources/DP.BMP,resources/DY.BMP,Door4,0.233333376,-0.071296303,1,0,0,1.3649,optionRight,60,6215,3,26,0,26,0,1,,,,,,,,,,,,,,,,,,,,,,,,,,,,,,,,,,,,,,,
,,,,,,,,2023-08-16_08h40.25.639,HF_wild_card,2022.2.4,Win32,59.99520038,5daf3ba02b35810016d8d97d,64d2fd46c836a06233681665,64dc7d5a7a5e5ac3952eb0f1,,,,,,,decisionTrl,resources/DG.BMP,resources/DR.BMP,WildCard_NonEx,0.257407436,-0.12962963,1,0,0,0.8153,optionRight,55,6270,3,27,0,27,0,1,,,,,,,,,,,,,,,,,,,,,,,,,,,,,,,,,,,,,,,
,,,,,,,,2023-08-16_08h40.25.639,HF_wild_card,2022.2.4,Win32,59.99520038,5daf3ba02b35810016d8d97d,64d2fd46c836a06233681665,64dc7d5a7a5e5ac3952eb0f1,,,,,,,decisionTrl,resources/DB.BMP,resources/DR.BMP,Door2,-0.305555556,-0.055555556,1,0,0,1.2316,optionLeft,40,6310,3,28,0,28,0,1,,,,,,,,,,,,,,,,,,,,,,,,,,,,,,,,,,,,,,,
,,,,,,,,2023-08-16_08h40.25.639,HF_wild_card,2022.2.4,Win32,59.99520038,5daf3ba02b35810016d8d97d,64d2fd46c836a06233681665,64dc7d5a7a5e5ac3952eb0f1,,,,,,,decisionTrl,resources/DR.BMP,resources/DG.BMP,WildCard_NonEx,-0.3824074,-0.099074116,1,0,0,1.4983,optionLeft,55,6365,3,29,0,29,0,1,,,,,,,,,,,,,,,,,,,,,,,,,,,,,,,,,,,,,,,
,,,,,,,,2023-08-16_08h40.25.639,HF_wild_card,2022.2.4,Win32,59.99520038,5daf3ba02b35810016d8d97d,64d2fd46c836a06233681665,64dc7d5a7a5e5ac3952eb0f1,,,,,,,ctch,resources/DB.BMP,resources/DP.BMP,Door3,0.310185185,-0.053703697,1,0,0,1.7806,optionRight,70,6435,3,30,0,30,0,1,,,,,,,,,,,,,,,,,,,,,,,,,,,,,,,,,,,,,,,
,,,,,,,,2023-08-16_08h40.25.639,HF_wild_card,2022.2.4,Win32,59.99520038,5daf3ba02b35810016d8d97d,64d2fd46c836a06233681665,64dc7d5a7a5e5ac3952eb0f1,,,,,,,sngl,resources/Empty.png,resources/DR.BMP,WildCard_NonEx,0.319444444,-0.048148155,1,0,0,0.7323,optionRight,55,6490,3,31,0,31,0,1,,,,,,,,,,,,,,,,,,,,,,,,,,,,,,,,,,,,,,,
,,,,,,,,2023-08-16_08h40.25.639,HF_wild_card,2022.2.4,Win32,59.99520038,5daf3ba02b35810016d8d97d,64d2fd46c836a06233681665,64dc7d5a7a5e5ac3952eb0f1,,,,,,,decisionTrl,resources/DP.BMP,resources/DY.BMP,Door3,-0.265740712,-0.071296303,1,0,0,0.8318,optionLeft,70,6560,3,32,0,32,0,1,,,,,,,,,,,,,,,,,,,,,,,,,,,,,,,,,,,,,,,
,,,,,,,,2023-08-16_08h40.25.639,HF_wild_card,2022.2.4,Win32,59.99520038,5daf3ba02b35810016d8d97d,64d2fd46c836a06233681665,64dc7d5a7a5e5ac3952eb0f1,,,,,,,sngl,resources/DR.BMP,resources/Empty.png,WildCard_NonEx,-0.350925905,-0.151851866,1,0,0,0.6371,optionLeft,55,6615,3,33,0,33,0,1,,,,,,,,,,,,,,,,,,,,,,,,,,,,,,,,,,,,,,,
,,,,,,,,2023-08-16_08h40.25.639,HF_wild_card,2022.2.4,Win32,59.99520038,5daf3ba02b35810016d8d97d,64d2fd46c836a06233681665,64dc7d5a7a5e5ac3952eb0f1,,,,,,,sngl,resources/DY.BMP,resources/Empty.png,Door4,-0.217592593,-0.085185192,1,0,0,0.7208,optionLeft,80,6695,3,34,0,34,0,1,,,,,,,,,,,,,,,,,,,,,,,,,,,,,,,,,,,,,,,
,,,,,,,,2023-08-16_08h40.25.639,HF_wild_card,2022.2.4,Win32,59.99520038,5daf3ba02b35810016d8d97d,64d2fd46c836a06233681665,64dc7d5a7a5e5ac3952eb0f1,,,,,,,decisionTrl,resources/DG.BMP,resources/DB.BMP,Door2,0.339814787,-0.057407414,1,0,0,2.0549,optionRight,40,6735,3,35,0,35,0,1,,,,,,,,,,,,,,,,,,,,,,,,,,,,,,,,,,,,,,,
,,,,,,,,2023-08-16_08h40.25.639,HF_wild_card,2022.2.4,Win32,59.99520038,5daf3ba02b35810016d8d97d,64d2fd46c836a06233681665,64dc7d5a7a5e5ac3952eb0f1,,,,,,,sngl,resources/DP.BMP,resources/Empty.png,Door3,-0.291666667,-0.173148191,1,0,0,0.6307,optionLeft,70,6805,3,36,0,36,0,1,,,,,,,,,,,,,,,,,,,,,,,,,,,,,,,,,,,,,,,
,,,,,,,,2023-08-16_08h40.25.639,HF_wild_card,2022.2.4,Win32,59.99520038,5daf3ba02b35810016d8d97d,64d2fd46c836a06233681665,64dc7d5a7a5e5ac3952eb0f1,,,,,,,ctch,resources/DG.BMP,resources/DY.BMP,Door4,0.211111139,-0.079629651,1,0,0,0.7984,optionRight,80,6885,3,37,0,37,0,1,,,,,,,,,,,,,,,,,,,,,,,,,,,,,,,,,,,,,,,
,,,,,,,,2023-08-16_08h40.25.639,HF_wild_card,2022.2.4,Win32,59.99520038,5daf3ba02b35810016d8d97d,64d2fd46c836a06233681665,64dc7d5a7a5e5ac3952eb0f1,,,,,,,ctch,resources/DY.BMP,resources/DG.BMP,Door4,-0.127777735,-0.064814815,1,0,0,0.6976,optionLeft,60,6945,3,38,0,38,0,1,,,,,,,,,,,,,,,,,,,,,,,,,,,,,,,,,,,,,,,
,,,,,,,,2023-08-16_08h40.25.639,HF_wild_card,2022.2.4,Win32,59.99520038,5daf3ba02b35810016d8d97d,64d2fd46c836a06233681665,64dc7d5a7a5e5ac3952eb0f1,,,,,,,sngl,resources/Empty.png,resources/DR.BMP,WildCard_NonEx,0.295370384,-0.047222243,1,0,0,0.7147,optionRight,45,6990,3,39,0,39,0,1,,,,,,,,,,,,,,,,,,,,,,,,,,,,,,,,,,,,,,,
,,,,,,,,2023-08-16_08h40.25.639,HF_wild_card,2022.2.4,Win32,59.99520038,5daf3ba02b35810016d8d97d,64d2fd46c836a06233681665,64dc7d5a7a5e5ac3952eb0f1,,,,,,,sngl,resources/Empty.png,resources/DB.BMP,Door2,0.227777764,-0.008333347,1,0,0,0.6173,optionRight,20,7010,3,40,0,40,0,1,,,,,,,,,,,,,,,,,,,,,,,,,,,,,,,,,,,,,,,
,,,,,,,,2023-08-16_08h40.25.639,HF_wild_card,2022.2.4,Win32,59.99520038,5daf3ba02b35810016d8d97d,64d2fd46c836a06233681665,64dc7d5a7a5e5ac3952eb0f1,,,,,,,decisionTrl,resources/DR.BMP,resources/DB.BMP,WildCard_NonEx,-0.261111083,-0.049074067,1,0,0,1.1658,optionLeft,55,7065,3,41,0,41,0,1,,,,,,,,,,,,,,,,,,,,,,,,,,,,,,,,,,,,,,,
,,,,,,,,2023-08-16_08h40.25.639,HF_wild_card,2022.2.4,Win32,59.99520038,5daf3ba02b35810016d8d97d,64d2fd46c836a06233681665,64dc7d5a7a5e5ac3952eb0f1,,,,,,,decisionTrl,resources/DY.BMP,resources/DP.BMP,Door4,-0.202777792,-0.027777778,1,0,0,1.649,optionLeft,80,7145,3,42,0,42,0,1,,,,,,,,,,,,,,,,,,,,,,,,,,,,,,,,,,,,,,,
,,,,,,,,2023-08-16_08h40.25.639,HF_wild_card,2022.2.4,Win32,59.99520038,5daf3ba02b35810016d8d97d,64d2fd46c836a06233681665,64dc7d5a7a5e5ac3952eb0f1,,,,,,,decisionTrl,resources/DY.BMP,resources/DP.BMP,Door4,-0.299999979,-0.059259273,1,0,0,0.5981,optionLeft,60,7205,3,43,0,43,0,1,,,,,,,,,,,,,,,,,,,,,,,,,,,,,,,,,,,,,,,
,,,,,,,,2023-08-16_08h40.25.639,HF_wild_card,2022.2.4,Win32,59.99520038,5daf3ba02b35810016d8d97d,64d2fd46c836a06233681665,64dc7d5a7a5e5ac3952eb0f1,,,,,,,,,,,,,,,,,,,,,,,,,,2,0,2,0,1,,,,,,,,,,,,,,,,,,,,,,,,,,,,,,,,,,
,,,,,,,,2023-08-16_08h40.25.639,HF_wild_card,2022.2.4,Win32,59.99520038,5daf3ba02b35810016d8d97d,64d2fd46c836a06233681665,64dc7d5a7a5e5ac3952eb0f1,,,,,,,decisionTrl,resources/DY.BMP,resources/DP.BMP,Door4,-0.208333333,-0.091666681,1,0,0,1.6198,optionLeft,80,7285,4,0,0,0,0,1,,,,,,,,,,,,,,,,,,,,,,,,,,,,,,,,,,,,,,,
,,,,,,,,2023-08-16_08h40.25.639,HF_wild_card,2022.2.4,Win32,59.99520038,5daf3ba02b35810016d8d97d,64d2fd46c836a06233681665,64dc7d5a7a5e5ac3952eb0f1,,,,,,,decisionTrl,resources/DP.BMP,resources/DBN.BMP,Door3,-0.299999979,-0.062037044,1,0,0,0.9981,optionLeft,70,7355,4,1,0,1,0,1,,,,,,,,,,,,,,,,,,,,,,,,,,,,,,,,,,,,,,,
,,,,,,,,2023-08-16_08h40.25.639,HF_wild_card,2022.2.4,Win32,59.99520038,5daf3ba02b35810016d8d97d,64d2fd46c836a06233681665,64dc7d5a7a5e5ac3952eb0f1,,,,,,,decisionTrl,resources/DP.BMP,resources/DY.BMP,Door3,-0.258333347,-0.085185192,1,0,0,1.7565,optionLeft,70,7425,4,2,0,2,0,1,,,,,,,,,,,,,,,,,,,,,,,,,,,,,,,,,,,,,,,
,,,,,,,,2023-08-16_08h40.25.639,HF_wild_card,2022.2.4,Win32,59.99520038,5daf3ba02b35810016d8d97d,64d2fd46c836a06233681665,64dc7d5a7a5e5ac3952eb0f1,,,,,,,sngl,resources/Empty.png,resources/DB.BMP,Door2,0.366666723,-0.006481489,1,0,0,0.666,optionRight,40,7465,4,3,0,3,0,1,,,,,,,,,,,,,,,,,,,,,,,,,,,,,,,,,,,,,,,
,,,,,,,,2023-08-16_08h40.25.639,HF_wild_card,2022.2.4,Win32,59.99520038,5daf3ba02b35810016d8d97d,64d2fd46c836a06233681665,64dc7d5a7a5e5ac3952eb0f1,,,,,,,decisionTrl,resources/DG.BMP,resources/DB.BMP,Door2,0.27870369,-0.070370392,1,0,0,1.0404,optionRight,40,7505,4,4,0,4,0,1,,,,,,,,,,,,,,,,,,,,,,,,,,,,,,,,,,,,,,,
,,,,,,,,2023-08-16_08h40.25.639,HF_wild_card,2022.2.4,Win32,59.99520038,5daf3ba02b35810016d8d97d,64d2fd46c836a06233681665,64dc7d5a7a5e5ac3952eb0f1,,,,,,,decisionTrl,resources/DBN.BMP,resources/DB.BMP,WildCard_Ex,-0.186111097,-0.122222265,1,0,0,1.2988,optionLeft,5,7510,4,5,0,5,0,1,,,,,,,,,,,,,,,,,,,,,,,,,,,,,,,,,,,,,,,
,,,,,,,,2023-08-16_08h40.25.639,HF_wild_card,2022.2.4,Win32,59.99520038,5daf3ba02b35810016d8d97d,64d2fd46c836a06233681665,64dc7d5a7a5e5ac3952eb0f1,,,,,,,decisionTrl,resources/DG.BMP,resources/DB.BMP,Door2,0.256481524,-0.062962956,1,0,0,0.6156,optionRight,20,7530,4,6,0,6,0,1,,,,,,,,,,,,,,,,,,,,,,,,,,,,,,,,,,,,,,,
,,,,,,,,2023-08-16_08h40.25.639,HF_wild_card,2022.2.4,Win32,59.99520038,5daf3ba02b35810016d8d97d,64d2fd46c836a06233681665,64dc7d5a7a5e5ac3952eb0f1,,,,,,,sngl,resources/Empty.png,resources/DP.BMP,Door3,0.362037094,-0.098148134,1,0,0,0.6479,optionRight,70,7600,4,7,0,7,0,1,,,,,,,,,,,,,,,,,,,,,,,,,,,,,,,,,,,,,,,
,,,,,,,,2023-08-16_08h40.25.639,HF_wild_card,2022.2.4,Win32,59.99520038,5daf3ba02b35810016d8d97d,64d2fd46c836a06233681665,64dc7d5a7a5e5ac3952eb0f1,,,,,,,sngl,resources/DBN.BMP,resources/Empty.png,WildCard_Ex,-0.248148106,-0.066666674,1,0,0,1.441,optionLeft,5,7605,4,8,0,8,0,1,,,,,,,,,,,,,,,,,,,,,,,,,,,,,,,,,,,,,,,
,,,,,,,,2023-08-16_08h40.25.639,HF_wild_card,2022.2.4,Win32,59.99520038,5daf3ba02b35810016d8d97d,64d2fd46c836a06233681665,64dc7d5a7a5e5ac3952eb0f1,,,,,,,decisionTrl,resources/DG.BMP,resources/DB.BMP,Door2,0.368518547,-0.020370377,1,0,0,1.8147,optionRight,40,7645,4,9,0,9,0,1,,,,,,,,,,,,,,,,,,,,,,,,,,,,,,,,,,,,,,,
,,,,,,,,2023-08-16_08h40.25.639,HF_wild_card,2022.2.4,Win32,59.99520038,5daf3ba02b35810016d8d97d,64d2fd46c836a06233681665,64dc7d5a7a5e5ac3952eb0f1,,,,,,,decisionTrl,resources/DB.BMP,resources/DG.BMP,Door2,-0.276851866,-0.077777792,1,0,0,1.2484,optionLeft,40,7685,4,10,0,10,0,1,,,,,,,,,,,,,,,,,,,,,,,,,,,,,,,,,,,,,,,
,,,,,,,,2023-08-16_08h40.25.639,HF_wild_card,2022.2.4,Win32,59.99520038,5daf3ba02b35810016d8d97d,64d2fd46c836a06233681665,64dc7d5a7a5e5ac3952eb0f1,,,,,,,decisionTrl,resources/DY.BMP,resources/DBN.BMP,Door4,-0.316666674,-0.062962956,1,0,0,0.8574,optionLeft,80,7765,4,11,0,11,0,1,,,,,,,,,,,,,,,,,,,,,,,,,,,,,,,,,,,,,,,
,,,,,,,,2023-08-16_08h40.25.639,HF_wild_card,2022.2.4,Win32,59.99520038,5daf3ba02b35810016d8d97d,64d2fd46c836a06233681665,64dc7d5a7a5e5ac3952eb0f1,,,,,,,sngl,resources/Empty.png,resources/DG.BMP,Door1,0.086111139,0.006481489,1,0,0,0.7923,optionRight,30,7795,4,12,0,12,0,1,,,,,,,,,,,,,,,,,,,,,,,,,,,,,,,,,,,,,,,
,,,,,,,,2023-08-16_08h40.25.639,HF_wild_card,2022.2.4,Win32,59.99520038,5daf3ba02b35810016d8d97d,64d2fd46c836a06233681665,64dc7d5a7a5e5ac3952eb0f1,,,,,,,decisionTrl,resources/DBN.BMP,resources/DG.BMP,Door1,0.295370384,-0.037962984,1,0,0,0.6317,optionRight,30,7825,4,13,0,13,0,1,,,,,,,,,,,,,,,,,,,,,,,,,,,,,,,,,,,,,,,
,,,,,,,,2023-08-16_08h40.25.639,HF_wild_card,2022.2.4,Win32,59.99520038,5daf3ba02b35810016d8d97d,64d2fd46c836a06233681665,64dc7d5a7a5e5ac3952eb0f1,,,,,,,decisionTrl,resources/DP.BMP,resources/DY.BMP,Door3,-0.317592586,-0.062037044,1,0,0,1.4066,optionLeft,70,7895,4,14,0,14,0,1,,,,,,,,,,,,,,,,,,,,,,,,,,,,,,,,,,,,,,,
,,,,,,,,2023-08-16_08h40.25.639,HF_wild_card,2022.2.4,Win32,59.99520038,5daf3ba02b35810016d8d97d,64d2fd46c836a06233681665,64dc7d5a7a5e5ac3952eb0f1,,,,,,,ctch,resources/DY.BMP,resources/DG.BMP,Door4,-0.277777778,-0.078703704,1,0,0,1.165,optionLeft,80,7975,4,15,0,15,0,1,,,,,,,,,,,,,,,,,,,,,,,,,,,,,,,,,,,,,,,
,,,,,,,,2023-08-16_08h40.25.639,HF_wild_card,2022.2.4,Win32,59.99520038,5daf3ba02b35810016d8d97d,64d2fd46c836a06233681665,64dc7d5a7a5e5ac3952eb0f1,,,,,,,decisionTrl,resources/DG.BMP,resources/DB.BMP,Door2,0.351851852,-0.034259266,1,0,0,0.882,optionRight,40,8015,4,16,0,16,0,1,,,,,,,,,,,,,,,,,,,,,,,,,,,,,,,,,,,,,,,
,,,,,,,,2023-08-16_08h40.25.639,HF_wild_card,2022.2.4,Win32,59.99520038,5daf3ba02b35810016d8d97d,64d2fd46c836a06233681665,64dc7d5a7a5e5ac3952eb0f1,,,,,,,ctch,resources/DG.BMP,resources/DY.BMP,Door4,0.334259316,-0.101851852,1,0,0,0.7405,optionRight,80,8095,4,17,0,17,0,1,,,,,,,,,,,,,,,,,,,,,,,,,,,,,,,,,,,,,,,
,,,,,,,,2023-08-16_08h40.25.639,HF_wild_card,2022.2.4,Win32,59.99520038,5daf3ba02b35810016d8d97d,64d2fd46c836a06233681665,64dc7d5a7a5e5ac3952eb0f1,,,,,,,ctch,resources/DB.BMP,resources/DP.BMP,Door3,0.310185185,-0.068518533,1,0,0,0.698,optionRight,70,8165,4,18,0,18,0,1,,,,,,,,,,,,,,,,,,,,,,,,,,,,,,,,,,,,,,,
,,,,,,,,2023-08-16_08h40.25.639,HF_wild_card,2022.2.4,Win32,59.99520038,5daf3ba02b35810016d8d97d,64d2fd46c836a06233681665,64dc7d5a7a5e5ac3952eb0f1,,,,,,,decisionTrl,resources/DB.BMP,resources/DG.BMP,Door1,0.337962963,-0.021296289,1,0,0,0.6473,optionRight,30,8195,4,19,0,19,0,1,,,,,,,,,,,,,,,,,,,,,,,,,,,,,,,,,,,,,,,
,,,,,,,,2023-08-16_08h40.25.639,HF_wild_card,2022.2.4,Win32,59.99520038,5daf3ba02b35810016d8d97d,64d2fd46c836a06233681665,64dc7d5a7a5e5ac3952eb0f1,,,,,,,decisionTrl,resources/DBN.BMP,resources/DP.BMP,Door3,0.260185171,-0.023148148,1,0,0,0.7224,optionRight,70,8265,4,20,0,20,0,1,,,,,,,,,,,,,,,,,,,,,,,,,,,,,,,,,,,,,,,
,,,,,,,,2023-08-16_08h40.25.639,HF_wild_card,2022.2.4,Win32,59.99520038,5daf3ba02b35810016d8d97d,64d2fd46c836a06233681665,64dc7d5a7a5e5ac3952eb0f1,,,,,,,sngl,resources/DB.BMP,resources/Empty.png,Door2,-0.27407406,-0.122222265,1,0,0,0.7484,optionLeft,20,8285,4,21,0,21,0,1,,,,,,,,,,,,,,,,,,,,,,,,,,,,,,,,,,,,,,,
,,,,,,,,2023-08-16_08h40.25.639,HF_wild_card,2022.2.4,Win32,59.99520038,5daf3ba02b35810016d8d97d,64d2fd46c836a06233681665,64dc7d5a7a5e5ac3952eb0f1,,,,,,,decisionTrl,resources/DY.BMP,resources/DP.BMP,Door3,0.347222222,-0.072222215,1,0,0,0.6976,optionRight,70,8355,4,22,0,22,0,1,,,,,,,,,,,,,,,,,,,,,,,,,,,,,,,,,,,,,,,
,,,,,,,,2023-08-16_08h40.25.639,HF_wild_card,2022.2.4,Win32,59.99520038,5daf3ba02b35810016d8d97d,64d2fd46c836a06233681665,64dc7d5a7a5e5ac3952eb0f1,,,,,,,decisionTrl,resources/DB.BMP,resources/DBN.BMP,Door2,-0.159259231,-0.078703704,1,0,0,0.7987,optionLeft,40,8395,4,23,0,23,0,1,,,,,,,,,,,,,,,,,,,,,,,,,,,,,,,,,,,,,,,
,,,,,,,,2023-08-16_08h40.25.639,HF_wild_card,2022.2.4,Win32,59.99520038,5daf3ba02b35810016d8d97d,64d2fd46c836a06233681665,64dc7d5a7a5e5ac3952eb0f1,,,,,,,decisionTrl,resources/DP.BMP,resources/DY.BMP,Door3,-0.315740727,-0.148148148,1,0,0,0.9211,optionLeft,70,8465,4,24,0,24,0,1,,,,,,,,,,,,,,,,,,,,,,,,,,,,,,,,,,,,,,,
,,,,,,,,2023-08-16_08h40.25.639,HF_wild_card,2022.2.4,Win32,59.99520038,5daf3ba02b35810016d8d97d,64d2fd46c836a06233681665,64dc7d5a7a5e5ac3952eb0f1,,,,,,,decisionTrl,resources/DY.BMP,resources/DP.BMP,Door3,0.413888861,-0.056481503,1,0,0,0.7374,optionRight,70,8535,4,25,0,25,0,1,,,,,,,,,,,,,,,,,,,,,,,,,,,,,,,,,,,,,,,
,,,,,,,,2023-08-16_08h40.25.639,HF_wild_card,2022.2.4,Win32,59.99520038,5daf3ba02b35810016d8d97d,64d2fd46c836a06233681665,64dc7d5a7a5e5ac3952eb0f1,,,,,,,sngl,resources/Empty.png,resources/DY.BMP,Door4,0.368518547,0.01944443,1,0,0,0.6541,optionRight,80,8615,4,26,0,26,0,1,,,,,,,,,,,,,,,,,,,,,,,,,,,,,,,,,,,,,,,
,,,,,,,,2023-08-16_08h40.25.639,HF_wild_card,2022.2.4,Win32,59.99520038,5daf3ba02b35810016d8d97d,64d2fd46c836a06233681665,64dc7d5a7a5e5ac3952eb0f1,,,,,,,sngl,resources/DY.BMP,resources/Empty.png,Door4,-0.220370328,-0.037962984,1,0,0,0.8576,optionLeft,60,8675,4,27,0,27,0,1,,,,,,,,,,,,,,,,,,,,,,,,,,,,,,,,,,,,,,,
,,,,,,,,2023-08-16_08h40.25.639,HF_wild_card,2022.2.4,Win32,59.99520038,5daf3ba02b35810016d8d97d,64d2fd46c836a06233681665,64dc7d5a7a5e5ac3952eb0f1,,,,,,,sngl,resources/Empty.png,resources/DBN.BMP,WildCard_Ex,0.375,-0.094444487,1,0,0,1.2489,optionRight,5,8680,4,28,0,28,0,1,,,,,,,,,,,,,,,,,,,,,,,,,,,,,,,,,,,,,,,
,,,,,,,,2023-08-16_08h40.25.639,HF_wild_card,2022.2.4,Win32,59.99520038,5daf3ba02b35810016d8d97d,64d2fd46c836a06233681665,64dc7d5a7a5e5ac3952eb0f1,,,,,,,ctch,resources/DP.BMP,resources/DB.BMP,Door3,-0.150925884,-0.137962977,1,0,0,1.3399,optionLeft,70,8750,4,29,0,29,0,1,,,,,,,,,,,,,,,,,,,,,,,,,,,,,,,,,,,,,,,
,,,,,,,,2023-08-16_08h40.25.639,HF_wild_card,2022.2.4,Win32,59.99520038,5daf3ba02b35810016d8d97d,64d2fd46c836a06233681665,64dc7d5a7a5e5ac3952eb0f1,,,,,,,decisionTrl,resources/DY.BMP,resources/DP.BMP,Door3,0.362962935,-0.102777764,1,0,0,1.1478,optionRight,70,8820,4,30,0,30,0,1,,,,,,,,,,,,,,,,,,,,,,,,,,,,,,,,,,,,,,,
,,,,,,,,2023-08-16_08h40.25.639,HF_wild_card,2022.2.4,Win32,59.99520038,5daf3ba02b35810016d8d97d,64d2fd46c836a06233681665,64dc7d5a7a5e5ac3952eb0f1,,,,,,,sngl,resources/Empty.png,resources/DBN.BMP,WildCard_Ex,0.236111111,-0.049074067,1,0,0,1.1817,optionRight,95,8915,4,31,0,31,0,1,,,,,,,,,,,,,,,,,,,,,,,,,,,,,,,,,,,,,,,
,,,,,,,,2023-08-16_08h40.25.639,HF_wild_card,2022.2.4,Win32,59.99520038,5daf3ba02b35810016d8d97d,64d2fd46c836a06233681665,64dc7d5a7a5e5ac3952eb0f1,,,,,,,ctch,resources/DY.BMP,resources/DG.BMP,Door4,-0.215740698,-0.143518519,1,0,0,1.0149,optionLeft,60,8975,4,32,0,32,0,1,,,,,,,,,,,,,,,,,,,,,,,,,,,,,,,,,,,,,,,
,,,,,,,,2023-08-16_08h40.25.639,HF_wild_card,2022.2.4,Win32,59.99520038,5daf3ba02b35810016d8d97d,64d2fd46c836a06233681665,64dc7d5a7a5e5ac3952eb0f1,,,,,,,sngl,resources/DP.BMP,resources/Empty.png,Door3,-0.275925884,-0.115740741,1,0,0,0.6975,optionLeft,70,9045,4,33,0,33,0,1,,,,,,,,,,,,,,,,,,,,,,,,,,,,,,,,,,,,,,,
,,,,,,,,2023-08-16_08h40.25.639,HF_wild_card,2022.2.4,Win32,59.99520038,5daf3ba02b35810016d8d97d,64d2fd46c836a06233681665,64dc7d5a7a5e5ac3952eb0f1,,,,,,,sngl,resources/DBN.BMP,resources/Empty.png,WildCard_Ex,-0.266666624,-0.055555556,1,0,0,0.7159,optionLeft,95,9140,4,34,0,34,0,1,,,,,,,,,,,,,,,,,,,,,,,,,,,,,,,,,,,,,,,
,,,,,,,,2023-08-16_08h40.25.639,HF_wild_card,2022.2.4,Win32,59.99520038,5daf3ba02b35810016d8d97d,64d2fd46c836a06233681665,64dc7d5a7a5e5ac3952eb0f1,,,,,,,ctch,resources/DB.BMP,resources/DP.BMP,Door3,0.397222307,-0.080555563,1,0,0,1.0376,optionRight,70,9210,4,35,0,35,0,1,,,,,,,,,,,,,,,,,,,,,,,,,,,,,,,,,,,,,,,
,,,,,,,,2023-08-16_08h40.25.639,HF_wild_card,2022.2.4,Win32,59.99520038,5daf3ba02b35810016d8d97d,64d2fd46c836a06233681665,64dc7d5a7a5e5ac3952eb0f1,,,,,,,decisionTrl,resources/DBN.BMP,resources/DY.BMP,WildCard_Ex,-0.201851809,-0.055555556,1,0,0,1.4982,optionLeft,5,9215,4,36,0,36,0,1,,,,,,,,,,,,,,,,,,,,,,,,,,,,,,,,,,,,,,,
,,,,,,,,2023-08-16_08h40.25.639,HF_wild_card,2022.2.4,Win32,59.99520038,5daf3ba02b35810016d8d97d,64d2fd46c836a06233681665,64dc7d5a7a5e5ac3952eb0f1,,,,,,,decisionTrl,resources/DP.BMP,resources/DY.BMP,Door4,0.308333362,-0.056481503,1,0,0,0.5816,optionRight,60,9275,4,37,0,37,0,1,,,,,,,,,,,,,,,,,,,,,,,,,,,,,,,,,,,,,,,
,,,,,,,,2023-08-16_08h40.25.639,HF_wild_card,2022.2.4,Win32,59.99520038,5daf3ba02b35810016d8d97d,64d2fd46c836a06233681665,64dc7d5a7a5e5ac3952eb0f1,,,,,,,ctch,resources/DG.BMP,resources/DY.BMP,Door1,-0.117592564,-0.098148134,1,0,0,0.4481,optionLeft,30,9305,4,38,0,38,0,1,,,,,,,,,,,,,,,,,,,,,,,,,,,,,,,,,,,,,,,
,,,,,,,,2023-08-16_08h40.25.639,HF_wild_card,2022.2.4,Win32,59.99520038,5daf3ba02b35810016d8d97d,64d2fd46c836a06233681665,64dc7d5a7a5e5ac3952eb0f1,,,,,,,sngl,resources/DG.BMP,resources/Empty.png,Door1,-0.338888875,-0.104629658,1,0,0,0.8404,optionLeft,30,9335,4,39,0,39,0,1,,,,,,,,,,,,,,,,,,,,,,,,,,,,,,,,,,,,,,,
,,,,,,,,2023-08-16_08h40.25.639,HF_wild_card,2022.2.4,Win32,59.99520038,5daf3ba02b35810016d8d97d,64d2fd46c836a06233681665,64dc7d5a7a5e5ac3952eb0f1,,,,,,,decisionTrl,resources/DG.BMP,resources/DBN.BMP,Door1,-0.181481467,-0.038888896,1,0,0,1.3248,optionLeft,30,9365,4,40,0,40,0,1,,,,,,,,,,,,,,,,,,,,,,,,,,,,,,,,,,,,,,,
,,,,,,,,2023-08-16_08h40.25.639,HF_wild_card,2022.2.4,Win32,59.99520038,5daf3ba02b35810016d8d97d,64d2fd46c836a06233681665,64dc7d5a7a5e5ac3952eb0f1,,,,,,,ctch,resources/DP.BMP,resources/DB.BMP,Door3,-0.248148106,-0.103703746,1,0,0,0.9819,optionLeft,70,9435,4,41,0,41,0,1,,,,,,,,,,,,,,,,,,,,,,,,,,,,,,,,,,,,,,,
,,,,,,,,2023-08-16_08h40.25.639,HF_wild_card,2022.2.4,Win32,59.99520038,5daf3ba02b35810016d8d97d,64d2fd46c836a06233681665,64dc7d5a7a5e5ac3952eb0f1,,,,,,,decisionTrl,resources/DB.BMP,resources/DG.BMP,Door2,-0.009259259,0.00462963,1,0,0,0.5481,optionLeft,20,9455,4,42,0,42,0,1,,,,,,,,,,,,,,,,,,,,,,,,,,,,,,,,,,,,,,,
,,,,,,,,2023-08-16_08h40.25.639,HF_wild_card,2022.2.4,Win32,59.99520038,5daf3ba02b35810016d8d97d,64d2fd46c836a06233681665,64dc7d5a7a5e5ac3952eb0f1,,,,,,,decisionTrl,resources/DB.BMP,resources/DG.BMP,Door1,0.377777806,-0.025000007,1,0,0,0.9483,optionRight,30,9485,4,43,0,43,0,1,,,,,,,,,,,,,,,,,,,,,,,,,,,,,,,,,,,,,,,
,,,,,,,,2023-08-16_08h40.25.639,HF_wild_card,2022.2.4,Win32,59.99520038,5daf3ba02b35810016d8d97d,64d2fd46c836a06233681665,64dc7d5a7a5e5ac3952eb0f1,,,,,,,,,,,,,,,,,,,,,,,,,,3,0,3,0,1,,,,,,,,,,,,,,,,,,,,,,,,,,,,,,,,,,
,,,,,,,,2023-08-16_08h40.25.639,HF_wild_card,2022.2.4,Win32,59.99520038,5daf3ba02b35810016d8d97d,64d2fd46c836a06233681665,64dc7d5a7a5e5ac3952eb0f1,,,,,,,decisionTrl,resources/DP.BMP,resources/DY.BMP,Door3,-0.277777778,-0.026851866,1,0,0,0.8796,optionLeft,70,9555,5,0,0,0,0,1,,,,,,,,,,,,,,,,,,,,,,,,,,,,,,,,,,,,,,,
,,,,,,,,2023-08-16_08h40.25.639,HF_wild_card,2022.2.4,Win32,59.99520038,5daf3ba02b35810016d8d97d,64d2fd46c836a06233681665,64dc7d5a7a5e5ac3952eb0f1,,,,,,,decisionTrl,resources/DY.BMP,resources/DP.BMP,Door4,-0.212037051,-0.100000028,1,0,0,1.0226,optionLeft,80,9635,5,1,0,1,0,1,,,,,,,,,,,,,,,,,,,,,,,,,,,,,,,,,,,,,,,
,,,,,,,,2023-08-16_08h40.25.639,HF_wild_card,2022.2.4,Win32,59.99520038,5daf3ba02b35810016d8d97d,64d2fd46c836a06233681665,64dc7d5a7a5e5ac3952eb0f1,,,,,,,sngl,resources/DG.BMP,resources/Empty.png,Door1,-0.213888875,-0.046296296,1,0,0,0.6309,optionLeft,30,9665,5,2,0,2,0,1,,,,,,,,,,,,,,,,,,,,,,,,,,,,,,,,,,,,,,,
,,,,,,,,2023-08-16_08h40.25.639,HF_wild_card,2022.2.4,Win32,59.99520038,5daf3ba02b35810016d8d97d,64d2fd46c836a06233681665,64dc7d5a7a5e5ac3952eb0f1,,,,,,,sngl,resources/Empty.png,resources/DB.BMP,Door2,0.19722225,-0.029629637,1,0,0,0.6912,optionRight,20,9685,5,3,0,3,0,1,,,,,,,,,,,,,,,,,,,,,,,,,,,,,,,,,,,,,,,
,,,,,,,,2023-08-16_08h40.25.639,HF_wild_card,2022.2.4,Win32,59.99520038,5daf3ba02b35810016d8d97d,64d2fd46c836a06233681665,64dc7d5a7a5e5ac3952eb0f1,,,,,,,decisionTrl,resources/DBN.BMP,resources/DB.BMP,Door2,0.249074088,-0.01666666,1,0,0,0.9247,optionRight,20,9705,5,4,0,4,0,1,,,,,,,,,,,,,,,,,,,,,,,,,,,,,,,,,,,,,,,
,,,,,,,,2023-08-16_08h40.25.639,HF_wild_card,2022.2.4,Win32,59.99520038,5daf3ba02b35810016d8d97d,64d2fd46c836a06233681665,64dc7d5a7a5e5ac3952eb0f1,,,,,,,sngl,resources/Empty.png,resources/DBN.BMP,WildCard_Ex,0.32685188,-0.013888889,1,0,0,0.7347,optionRight,5,9710,5,5,0,5,0,1,,,,,,,,,,,,,,,,,,,,,,,,,,,,,,,,,,,,,,,
,,,,,,,,2023-08-16_08h40.25.639,HF_wild_card,2022.2.4,Win32,59.99520038,5daf3ba02b35810016d8d97d,64d2fd46c836a06233681665,64dc7d5a7a5e5ac3952eb0f1,,,,,,,decisionTrl,resources/DB.BMP,resources/DBN.BMP,Door2,-0.219444416,-0.037962984,1,0,0,0.9879,optionLeft,40,9750,5,6,0,6,0,1,,,,,,,,,,,,,,,,,,,,,,,,,,,,,,,,,,,,,,,
,,,,,,,,2023-08-16_08h40.25.639,HF_wild_card,2022.2.4,Win32,59.99520038,5daf3ba02b35810016d8d97d,64d2fd46c836a06233681665,64dc7d5a7a5e5ac3952eb0f1,,,,,,,decisionTrl,resources/DG.BMP,resources/DB.BMP,Door2,0.300000085,-0.025000007,1,0,0,1.1646,optionRight,40,9790,5,7,0,7,0,1,,,,,,,,,,,,,,,,,,,,,,,,,,,,,,,,,,,,,,,
,,,,,,,,2023-08-16_08h40.25.639,HF_wild_card,2022.2.4,Win32,59.99520038,5daf3ba02b35810016d8d97d,64d2fd46c836a06233681665,64dc7d5a7a5e5ac3952eb0f1,,,,,,,ctch,resources/DP.BMP,resources/DB.BMP,Door3,-0.22592594,-0.111111111,1,0,0,1.1808,optionLeft,70,9860,5,8,0,8,0,1,,,,,,,,,,,,,,,,,,,,,,,,,,,,,,,,,,,,,,,
,,,,,,,,2023-08-16_08h40.25.639,HF_wild_card,2022.2.4,Win32,59.99520038,5daf3ba02b35810016d8d97d,64d2fd46c836a06233681665,64dc7d5a7a5e5ac3952eb0f1,,,,,,,ctch,resources/DY.BMP,resources/DG.BMP,Door4,-0.142592607,-0.062037044,1,0,0,1.0711,optionLeft,80,9940,5,9,0,9,0,1,,,,,,,,,,,,,,,,,,,,,,,,,,,,,,,,,,,,,,,
,,,,,,,,2023-08-16_08h40.25.639,HF_wild_card,2022.2.4,Win32,59.99520038,5daf3ba02b35810016d8d97d,64d2fd46c836a06233681665,64dc7d5a7a5e5ac3952eb0f1,,,,,,,sngl,resources/Empty.png,resources/DBN.BMP,WildCard_Ex,0.187037079,-0.089814822,1,0,0,0.7484,optionRight,95,10035,5,10,0,10,0,1,,,,,,,,,,,,,,,,,,,,,,,,,,,,,,,,,,,,,,,
,,,,,,,,2023-08-16_08h40.25.639,HF_wild_card,2022.2.4,Win32,59.99520038,5daf3ba02b35810016d8d97d,64d2fd46c836a06233681665,64dc7d5a7a5e5ac3952eb0f1,,,,,,,decisionTrl,resources/DG.BMP,resources/DB.BMP,Door2,0.296296296,-0.061111132,1,0,0,0.9743,optionRight,40,10075,5,11,0,11,0,1,,,,,,,,,,,,,,,,,,,,,,,,,,,,,,,,,,,,,,,
,,,,,,,,2023-08-16_08h40.25.639,HF_wild_card,2022.2.4,Win32,59.99520038,5daf3ba02b35810016d8d97d,64d2fd46c836a06233681665,64dc7d5a7a5e5ac3952eb0f1,,,,,,,sngl,resources/DBN.BMP,resources/Empty.png,WildCard_Ex,-0.27407406,-0.033333355,1,0,0,0.7149,optionLeft,95,10170,5,12,0,12,0,1,,,,,,,,,,,,,,,,,,,,,,,,,,,,,,,,,,,,,,,
,,,,,,,,2023-08-16_08h40.25.639,HF_wild_card,2022.2.4,Win32,59.99520038,5daf3ba02b35810016d8d97d,64d2fd46c836a06233681665,64dc7d5a7a5e5ac3952eb0f1,,,,,,,decisionTrl,resources/DB.BMP,resources/DG.BMP,Door1,0.242592635,-0.048148155,1,0,0,1.0976,optionRight,30,10200,5,13,0,13,0,1,,,,,,,,,,,,,,,,,,,,,,,,,,,,,,,,,,,,,,,
,,,,,,,,2023-08-16_08h40.25.639,HF_wild_card,2022.2.4,Win32,59.99520038,5daf3ba02b35810016d8d97d,64d2fd46c836a06233681665,64dc7d5a7a5e5ac3952eb0f1,,,,,,,decisionTrl,resources/DY.BMP,resources/DP.BMP,Door3,0.281481496,-0.078703704,1,0,0,0.8913,optionRight,70,10270,5,14,0,14,0,1,,,,,,,,,,,,,,,,,,,,,,,,,,,,,,,,,,,,,,,
,,,,,,,,2023-08-16_08h40.25.639,HF_wild_card,2022.2.4,Win32,59.99520038,5daf3ba02b35810016d8d97d,64d2fd46c836a06233681665,64dc7d5a7a5e5ac3952eb0f1,,,,,,,decisionTrl,resources/DBN.BMP,resources/DY.BMP,Door4,0.317592621,-0.019444466,1,0,0,0.9377,optionRight,80,10350,5,15,0,15,0,1,,,,,,,,,,,,,,,,,,,,,,,,,,,,,,,,,,,,,,,
,,,,,,,,2023-08-16_08h40.25.639,HF_wild_card,2022.2.4,Win32,59.99520038,5daf3ba02b35810016d8d97d,64d2fd46c836a06233681665,64dc7d5a7a5e5ac3952eb0f1,,,,,,,decisionTrl,resources/DB.BMP,resources/DG.BMP,Door2,-0.264814801,-0.075925933,1,0,0,1.6811,optionLeft,40,10390,5,16,0,16,0,1,,,,,,,,,,,,,,,,,,,,,,,,,,,,,,,,,,,,,,,
,,,,,,,,2023-08-16_08h40.25.639,HF_wild_card,2022.2.4,Win32,59.99520038,5daf3ba02b35810016d8d97d,64d2fd46c836a06233681665,64dc7d5a7a5e5ac3952eb0f1,,,,,,,ctch,resources/DB.BMP,resources/DP.BMP,Door3,0.434259344,-0.103703746,1,0,0,0.6646,optionRight,70,10460,5,17,0,17,0,1,,,,,,,,,,,,,,,,,,,,,,,,,,,,,,,,,,,,,,,
,,,,,,,,2023-08-16_08h40.25.639,HF_wild_card,2022.2.4,Win32,59.99520038,5daf3ba02b35810016d8d97d,64d2fd46c836a06233681665,64dc7d5a7a5e5ac3952eb0f1,,,,,,,sngl,resources/Empty.png,resources/DP.BMP,Door3,0.309259344,-0.052777785,1,0,0,0.6648,optionRight,70,10530,5,18,0,18,0,1,,,,,,,,,,,,,,,,,,,,,,,,,,,,,,,,,,,,,,,
,,,,,,,,2023-08-16_08h40.25.639,HF_wild_card,2022.2.4,Win32,59.99520038,5daf3ba02b35810016d8d97d,64d2fd46c836a06233681665,64dc7d5a7a5e5ac3952eb0f1,,,,,,,sngl,resources/Empty.png,resources/DG.BMP,Door1,0.263888889,-0.055555556,1,0,0,0.6654,optionRight,30,10560,5,19,0,19,0,1,,,,,,,,,,,,,,,,,,,,,,,,,,,,,,,,,,,,,,,
,,,,,,,,2023-08-16_08h40.25.639,HF_wild_card,2022.2.4,Win32,59.99520038,5daf3ba02b35810016d8d97d,64d2fd46c836a06233681665,64dc7d5a7a5e5ac3952eb0f1,,,,,,,sngl,resources/DBN.BMP,resources/Empty.png,WildCard_Ex,-0.189814815,-0.035185178,1,0,0,0.6479,optionLeft,5,10565,5,20,0,20,0,1,,,,,,,,,,,,,,,,,,,,,,,,,,,,,,,,,,,,,,,
,,,,,,,,2023-08-16_08h40.25.639,HF_wild_card,2022.2.4,Win32,59.99520038,5daf3ba02b35810016d8d97d,64d2fd46c836a06233681665,64dc7d5a7a5e5ac3952eb0f1,,,,,,,decisionTrl,resources/DY.BMP,resources/DP.BMP,Door3,0.251851894,-0.046296296,1,0,0,1.1811,optionRight,70,10635,5,21,0,21,0,1,,,,,,,,,,,,,,,,,,,,,,,,,,,,,,,,,,,,,,,
,,,,,,,,2023-08-16_08h40.25.639,HF_wild_card,2022.2.4,Win32,59.99520038,5daf3ba02b35810016d8d97d,64d2fd46c836a06233681665,64dc7d5a7a5e5ac3952eb0f1,,,,,,,decisionTrl,resources/DG.BMP,resources/DB.BMP,Door1,-0.258333347,-0.089814822,1,0,0,1.0124,optionLeft,30,10665,5,22,0,22,0,1,,,,,,,,,,,,,,,,,,,,,,,,,,,,,,,,,,,,,,,
,,,,,,,,2023-08-16_08h40.25.639,HF_wild_card,2022.2.4,Win32,59.99520038,5daf3ba02b35810016d8d97d,64d2fd46c836a06233681665,64dc7d5a7a5e5ac3952eb0f1,,,,,,,decisionTrl,resources/DY.BMP,resources/DBN.BMP,Door4,-0.257407365,-0.071296303,1,0,0,1.1223,optionLeft,80,10745,5,23,0,23,0,1,,,,,,,,,,,,,,,,,,,,,,,,,,,,,,,,,,,,,,,
,,,,,,,,2023-08-16_08h40.25.639,HF_wild_card,2022.2.4,Win32,59.99520038,5daf3ba02b35810016d8d97d,64d2fd46c836a06233681665,64dc7d5a7a5e5ac3952eb0f1,,,,,,,sngl,resources/Empty.png,resources/DY.BMP,Door4,0.288888931,-0.057407414,1,0,0,0.632,optionRight,60,10805,5,24,0,24,0,1,,,,,,,,,,,,,,,,,,,,,,,,,,,,,,,,,,,,,,,
,,,,,,,,2023-08-16_08h40.25.639,HF_wild_card,2022.2.4,Win32,59.99520038,5daf3ba02b35810016d8d97d,64d2fd46c836a06233681665,64dc7d5a7a5e5ac3952eb0f1,,,,,,,sngl,resources/DB.BMP,resources/Empty.png,Door2,-0.264814801,-0.058333326,1,0,0,0.5639,optionLeft,40,10845,5,25,0,25,0,1,,,,,,,,,,,,,,,,,,,,,,,,,,,,,,,,,,,,,,,
,,,,,,,,2023-08-16_08h40.25.639,HF_wild_card,2022.2.4,Win32,59.99520038,5daf3ba02b35810016d8d97d,64d2fd46c836a06233681665,64dc7d5a7a5e5ac3952eb0f1,,,,,,,decisionTrl,resources/DP.BMP,resources/DY.BMP,Door3,-0.198148162,-0.095370399,1,0,0,1.0745,optionLeft,70,10915,5,26,0,26,0,1,,,,,,,,,,,,,,,,,,,,,,,,,,,,,,,,,,,,,,,
,,,,,,,,2023-08-16_08h40.25.639,HF_wild_card,2022.2.4,Win32,59.99520038,5daf3ba02b35810016d8d97d,64d2fd46c836a06233681665,64dc7d5a7a5e5ac3952eb0f1,,,,,,,decisionTrl,resources/DG.BMP,resources/DBN.BMP,Door1,-0.312037044,-0.141666695,1,0,0,0.8301,optionLeft,30,10945,5,27,0,27,0,1,,,,,,,,,,,,,,,,,,,,,,,,,,,,,,,,,,,,,,,
,,,,,,,,2023-08-16_08h40.25.639,HF_wild_card,2022.2.4,Win32,59.99520038,5daf3ba02b35810016d8d97d,64d2fd46c836a06233681665,64dc7d5a7a5e5ac3952eb0f1,,,,,,,ctch,resources/DG.BMP,resources/DY.BMP,Door4,0.275000042,-0.068518533,1,0,0,1.0812,optionRight,60,11005,5,28,0,28,0,1,,,,,,,,,,,,,,,,,,,,,,,,,,,,,,,,,,,,,,,
,,,,,,,,2023-08-16_08h40.25.639,HF_wild_card,2022.2.4,Win32,59.99520038,5daf3ba02b35810016d8d97d,64d2fd46c836a06233681665,64dc7d5a7a5e5ac3952eb0f1,,,,,,,ctch,resources/DY.BMP,resources/DG.BMP,Door4,-0.262036995,-0.041666667,1,0,0,0.5482,optionLeft,60,11065,5,29,0,29,0,1,,,,,,,,,,,,,,,,,,,,,,,,,,,,,,,,,,,,,,,
,,,,,,,,2023-08-16_08h40.25.639,HF_wild_card,2022.2.4,Win32,59.99520038,5daf3ba02b35810016d8d97d,64d2fd46c836a06233681665,64dc7d5a7a5e5ac3952eb0f1,,,,,,,decisionTrl,resources/DB.BMP,resources/DG.BMP,Door1,0.279629672,-0.087037051,1,0,0,1.0317,optionRight,30,11095,5,30,0,30,0,1,,,,,,,,,,,,,,,,,,,,,,,,,,,,,,,,,,,,,,,
,,,,,,,,2023-08-16_08h40.25.639,HF_wild_card,2022.2.4,Win32,59.99520038,5daf3ba02b35810016d8d97d,64d2fd46c836a06233681665,64dc7d5a7a5e5ac3952eb0f1,,,,,,,decisionTrl,resources/DP.BMP,resources/DY.BMP,Door3,-0.246296282,-0.055555556,1,0,0,0.8085,optionLeft,70,11165,5,31,0,31,0,1,,,,,,,,,,,,,,,,,,,,,,,,,,,,,,,,,,,,,,,
,,,,,,,,2023-08-16_08h40.25.639,HF_wild_card,2022.2.4,Win32,59.99520038,5daf3ba02b35810016d8d97d,64d2fd46c836a06233681665,64dc7d5a7a5e5ac3952eb0f1,,,,,,,decisionTrl,resources/DY.BMP,resources/DP.BMP,Door3,0.40833339,-0.077777792,1,0,0,0.9216,optionRight,70,11235,5,32,0,32,0,1,,,,,,,,,,,,,,,,,,,,,,,,,,,,,,,,,,,,,,,
,,,,,,,,2023-08-16_08h40.25.639,HF_wild_card,2022.2.4,Win32,59.99520038,5daf3ba02b35810016d8d97d,64d2fd46c836a06233681665,64dc7d5a7a5e5ac3952eb0f1,,,,,,,ctch,resources/DB.BMP,resources/DP.BMP,Door3,0.312962991,-0.041666667,1,0,0,0.8808,optionRight,70,11305,5,33,0,33,0,1,,,,,,,,,,,,,,,,,,,,,,,,,,,,,,,,,,,,,,,
,,,,,,,,2023-08-16_08h40.25.639,HF_wild_card,2022.2.4,Win32,59.99520038,5daf3ba02b35810016d8d97d,64d2fd46c836a06233681665,64dc7d5a7a5e5ac3952eb0f1,,,,,,,ctch,resources/DG.BMP,resources/DY.BMP,Door4,0.171296296,-0.002777771,1,0,0,0.8578,optionRight,80,11385,5,34,0,34,0,1,,,,,,,,,,,,,,,,,,,,,,,,,,,,,,,,,,,,,,,
,,,,,,,,2023-08-16_08h40.25.639,HF_wild_card,2022.2.4,Win32,59.99520038,5daf3ba02b35810016d8d97d,64d2fd46c836a06233681665,64dc7d5a7a5e5ac3952eb0f1,,,,,,,sngl,resources/DP.BMP,resources/Empty.png,Door3,-0.211111069,-0.066666674,1,0,0,0.5983,optionLeft,70,11455,5,35,0,35,0,1,,,,,,,,,,,,,,,,,,,,,,,,,,,,,,,,,,,,,,,
,,,,,,,,2023-08-16_08h40.25.639,HF_wild_card,2022.2.4,Win32,59.99520038,5daf3ba02b35810016d8d97d,64d2fd46c836a06233681665,64dc7d5a7a5e5ac3952eb0f1,,,,,,,decisionTrl,resources/DBN.BMP,resources/DP.BMP,Door3,0.296296296,-0.09629631,1,0,0,0.9905,optionRight,70,11525,5,36,0,36,0,1,,,,,,,,,,,,,,,,,,,,,,,,,,,,,,,,,,,,,,,
,,,,,,,,2023-08-16_08h40.25.639,HF_wild_card,2022.2.4,Win32,59.99520038,5daf3ba02b35810016d8d97d,64d2fd46c836a06233681665,64dc7d5a7a5e5ac3952eb0f1,,,,,,,sngl,resources/DY.BMP,resources/Empty.png,Door4,-0.23055557,-0.102777764,1,0,0,0.5312,optionLeft,80,11605,5,37,0,37,0,1,,,,,,,,,,,,,,,,,,,,,,,,,,,,,,,,,,,,,,,
,,,,,,,,2023-08-16_08h40.25.639,HF_wild_card,2022.2.4,Win32,59.99520038,5daf3ba02b35810016d8d97d,64d2fd46c836a06233681665,64dc7d5a7a5e5ac3952eb0f1,,,,,,,ctch,resources/DP.BMP,resources/DB.BMP,Door3,-0.401851831,-0.115740741,1,0,0,1.5319,optionLeft,70,11675,5,38,0,38,0,1,,,,,,,,,,,,,,,,,,,,,,,,,,,,,,,,,,,,,,,
,,,,,,,,2023-08-16_08h40.25.639,HF_wild_card,2022.2.4,Win32,59.99520038,5daf3ba02b35810016d8d97d,64d2fd46c836a06233681665,64dc7d5a7a5e5ac3952eb0f1,,,,,,,decisionTrl,resources/DBN.BMP,resources/DG.BMP,Door1,0.250925912,-0.048148155,1,0,0,0.8218,optionRight,30,11705,5,39,0,39,0,1,,,,,,,,,,,,,,,,,,,,,,,,,,,,,,,,,,,,,,,
,,,,,,,,2023-08-16_08h40.25.639,HF_wild_card,2022.2.4,Win32,59.99520038,5daf3ba02b35810016d8d97d,64d2fd46c836a06233681665,64dc7d5a7a5e5ac3952eb0f1,,,,,,,decisionTrl,resources/DB.BMP,resources/DG.BMP,Door1,0.297222279,-0.064814815,1,0,0,1.1979,optionRight,30,11735,5,40,0,40,0,1,,,,,,,,,,,,,,,,,,,,,,,,,,,,,,,,,,,,,,,
,,,,,,,,2023-08-16_08h40.25.639,HF_wild_card,2022.2.4,Win32,59.99520038,5daf3ba02b35810016d8d97d,64d2fd46c836a06233681665,64dc7d5a7a5e5ac3952eb0f1,,,,,,,decisionTrl,resources/DG.BMP,resources/DB.BMP,Door2,0.323148233,-0.087962963,1,0,0,0.5811,optionRight,40,11775,5,41,0,41,0,1,,,,,,,,,,,,,,,,,,,,,,,,,,,,,,,,,,,,,,,
,,,,,,,,2023-08-16_08h40.25.639,HF_wild_card,2022.2.4,Win32,59.99520038,5daf3ba02b35810016d8d97d,64d2fd46c836a06233681665,64dc7d5a7a5e5ac3952eb0f1,,,,,,,decisionTrl,resources/DP.BMP,resources/DBN.BMP,Door3,-0.287962949,-0.162037037,1,0,0,0.7161,optionLeft,70,11845,5,42,0,42,0,1,,,,,,,,,,,,,,,,,,,,,,,,,,,,,,,,,,,,,,,
,,,,,,,,2023-08-16_08h40.25.639,HF_wild_card,2022.2.4,Win32,59.99520038,5daf3ba02b35810016d8d97d,64d2fd46c836a06233681665,64dc7d5a7a5e5ac3952eb0f1,,,,,,,decisionTrl,resources/DP.BMP,resources/DY.BMP,Door3,-0.17777775,-0.154629672,1,0,0,0.7819,optionLeft,70,11915,5,43,0,43,0,1,,,,,,,,,,,,,,,,,,,,,,,,,,,,,,,,,,,,,,,
,,,,,,,,2023-08-16_08h40.25.639,HF_wild_card,2022.2.4,Win32,59.99520038,5daf3ba02b35810016d8d97d,64d2fd46c836a06233681665,64dc7d5a7a5e5ac3952eb0f1,,,,,,,,,,,,,,,,,,,,,,,,,,4,0,4,0,1,,,,,,,,,,,,,,,,,,,,,,,,,,,,,,,,,,
,,,,,,,,2023-08-16_08h40.25.639,HF_wild_card,2022.2.4,Win32,59.99520038,5daf3ba02b35810016d8d97d,64d2fd46c836a06233681665,64dc7d5a7a5e5ac3952eb0f1,,,,,,,decisionTrl,resources/DBN.BMP,resources/DP.BMP,Door3,0.426851908,0.043518526,1,0,0,0.8616,optionRight,70,11985,6,0,0,0,0,1,,,,,,,,,,,,,,,,,,,,,,,,,,,,,,,,,,,,,,,
,,,,,,,,2023-08-16_08h40.25.639,HF_wild_card,2022.2.4,Win32,59.99520038,5daf3ba02b35810016d8d97d,64d2fd46c836a06233681665,64dc7d5a7a5e5ac3952eb0f1,,,,,,,sngl,resources/Empty.png,resources/DBN.BMP,WildCard_Ex,0.353703675,-0.014814836,1,0,0,0.765,optionRight,5,11990,6,1,0,1,0,1,,,,,,,,,,,,,,,,,,,,,,,,,,,,,,,,,,,,,,,
,,,,,,,,2023-08-16_08h40.25.639,HF_wild_card,2022.2.4,Win32,59.99520038,5daf3ba02b35810016d8d97d,64d2fd46c836a06233681665,64dc7d5a7a5e5ac3952eb0f1,,,,,,,sngl,resources/Empty.png,resources/DBN.BMP,WildCard_Ex,0.336111139,0.020370377,1,0,0,0.5552,optionRight,95,12085,6,2,0,2,0,1,,,,,,,,,,,,,,,,,,,,,,,,,,,,,,,,,,,,,,,
,,,,,,,,2023-08-16_08h40.25.639,HF_wild_card,2022.2.4,Win32,59.99520038,5daf3ba02b35810016d8d97d,64d2fd46c836a06233681665,64dc7d5a7a5e5ac3952eb0f1,,,,,,,sngl,resources/Empty.png,resources/DY.BMP,Door4,0.256481524,0.010185171,1,0,0,0.5573,optionRight,80,12165,6,3,0,3,0,1,,,,,,,,,,,,,,,,,,,,,,,,,,,,,,,,,,,,,,,
,,,,,,,,2023-08-16_08h40.25.639,HF_wild_card,2022.2.4,Win32,59.99520038,5daf3ba02b35810016d8d97d,64d2fd46c836a06233681665,64dc7d5a7a5e5ac3952eb0f1,,,,,,,sngl,resources/DY.BMP,resources/Empty.png,Door4,-0.17314812,-0.10555557,1,0,0,1.2743,optionLeft,60,12225,6,4,0,4,0,1,,,,,,,,,,,,,,,,,,,,,,,,,,,,,,,,,,,,,,,
,,,,,,,,2023-08-16_08h40.25.639,HF_wild_card,2022.2.4,Win32,59.99520038,5daf3ba02b35810016d8d97d,64d2fd46c836a06233681665,64dc7d5a7a5e5ac3952eb0f1,,,,,,,decisionTrl,resources/DP.BMP,resources/DY.BMP,Door4,0.325925898,-0.054629644,1,0,0,0.8782,optionRight,60,12285,6,5,0,5,0,1,,,,,,,,,,,,,,,,,,,,,,,,,,,,,,,,,,,,,,,
,,,,,,,,2023-08-16_08h40.25.639,HF_wild_card,2022.2.4,Win32,59.99520038,5daf3ba02b35810016d8d97d,64d2fd46c836a06233681665,64dc7d5a7a5e5ac3952eb0f1,,,,,,,decisionTrl,resources/DG.BMP,resources/DB.BMP,Door2,0.212037051,-0.058333326,1,0,0,1.2482,optionRight,20,12305,6,6,0,6,0,1,,,,,,,,,,,,,,,,,,,,,,,,,,,,,,,,,,,,,,,
,,,,,,,,2023-08-16_08h40.25.639,HF_wild_card,2022.2.4,Win32,59.99520038,5daf3ba02b35810016d8d97d,64d2fd46c836a06233681665,64dc7d5a7a5e5ac3952eb0f1,,,,,,,sngl,resources/Empty.png,resources/DP.BMP,Door3,0.263888889,-0.01203703,1,0,0,0.6316,optionRight,70,12375,6,7,0,7,0,1,,,,,,,,,,,,,,,,,,,,,,,,,,,,,,,,,,,,,,,
,,,,,,,,2023-08-16_08h40.25.639,HF_wild_card,2022.2.4,Win32,59.99520038,5daf3ba02b35810016d8d97d,64d2fd46c836a06233681665,64dc7d5a7a5e5ac3952eb0f1,,,,,,,decisionTrl,resources/DG.BMP,resources/DB.BMP,Door1,-0.183333291,-0.079629651,1,0,0,0.9816,optionLeft,30,12405,6,8,0,8,0,1,,,,,,,,,,,,,,,,,,,,,,,,,,,,,,,,,,,,,,,
,,,,,,,,2023-08-16_08h40.25.639,HF_wild_card,2022.2.4,Win32,59.99520038,5daf3ba02b35810016d8d97d,64d2fd46c836a06233681665,64dc7d5a7a5e5ac3952eb0f1,,,,,,,sngl,resources/DG.BMP,resources/Empty.png,Door1,-0.157407407,-0.059259273,1,0,0,0.6414,optionLeft,30,12435,6,9,0,9,0,1,,,,,,,,,,,,,,,,,,,,,,,,,,,,,,,,,,,,,,,
,,,,,,,,2023-08-16_08h40.25.639,HF_wild_card,2022.2.4,Win32,59.99520038,5daf3ba02b35810016d8d97d,64d2fd46c836a06233681665,64dc7d5a7a5e5ac3952eb0f1,,,,,,,decisionTrl,resources/DBN.BMP,resources/DY.BMP,Door4,0.321296268,-0.050925926,1,0,0,0.7716,optionRight,80,12515,6,10,0,10,0,1,,,,,,,,,,,,,,,,,,,,,,,,,,,,,,,,,,,,,,,
,,,,,,,,2023-08-16_08h40.25.639,HF_wild_card,2022.2.4,Win32,59.99520038,5daf3ba02b35810016d8d97d,64d2fd46c836a06233681665,64dc7d5a7a5e5ac3952eb0f1,,,,,,,sngl,resources/Empty.png,resources/DG.BMP,Door1,0.286111125,-0.094444487,1,0,0,0.5316,optionRight,30,12545,6,11,0,11,0,1,,,,,,,,,,,,,,,,,,,,,,,,,,,,,,,,,,,,,,,
,,,,,,,,2023-08-16_08h40.25.639,HF_wild_card,2022.2.4,Win32,59.99520038,5daf3ba02b35810016d8d97d,64d2fd46c836a06233681665,64dc7d5a7a5e5ac3952eb0f1,,,,,,,decisionTrl,resources/DB.BMP,resources/DG.BMP,Door1,0.251851894,-0.066666674,1,0,0,0.8132,optionRight,30,12575,6,12,0,12,0,1,,,,,,,,,,,,,,,,,,,,,,,,,,,,,,,,,,,,,,,
,,,,,,,,2023-08-16_08h40.25.639,HF_wild_card,2022.2.4,Win32,59.99520038,5daf3ba02b35810016d8d97d,64d2fd46c836a06233681665,64dc7d5a7a5e5ac3952eb0f1,,,,,,,ctch,resources/DY.BMP,resources/DG.BMP,Door4,-0.19259255,-0.121296282,1,0,0,0.5647,optionLeft,60,12635,6,13,0,13,0,1,,,,,,,,,,,,,,,,,,,,,,,,,,,,,,,,,,,,,,,
,,,,,,,,2023-08-16_08h40.25.639,HF_wild_card,2022.2.4,Win32,59.99520038,5daf3ba02b35810016d8d97d,64d2fd46c836a06233681665,64dc7d5a7a5e5ac3952eb0f1,,,,,,,ctch,resources/DG.BMP,resources/DY.BMP,Door4,0.238888917,-0.002777771,1,0,0,0.5659,optionRight,60,12695,6,14,0,14,0,1,,,,,,,,,,,,,,,,,,,,,,,,,,,,,,,,,,,,,,,
,,,,,,,,2023-08-16_08h40.25.639,HF_wild_card,2022.2.4,Win32,59.99520038,5daf3ba02b35810016d8d97d,64d2fd46c836a06233681665,64dc7d5a7a5e5ac3952eb0f1,,,,,,,decisionTrl,resources/DY.BMP,resources/DP.BMP,Door3,0.300000085,-0.12962963,1,0,0,1.7577,optionRight,70,12765,6,15,0,15,0,1,,,,,,,,,,,,,,,,,,,,,,,,,,,,,,,,,,,,,,,
,,,,,,,,2023-08-16_08h40.25.639,HF_wild_card,2022.2.4,Win32,59.99520038,5daf3ba02b35810016d8d97d,64d2fd46c836a06233681665,64dc7d5a7a5e5ac3952eb0f1,,,,,,,decisionTrl,resources/DBN.BMP,resources/DG.BMP,Door1,0.330555527,-0.028703725,1,0,0,0.698,optionRight,30,12795,6,16,0,16,0,1,,,,,,,,,,,,,,,,,,,,,,,,,,,,,,,,,,,,,,,
,,,,,,,,2023-08-16_08h40.25.639,HF_wild_card,2022.2.4,Win32,59.99520038,5daf3ba02b35810016d8d97d,64d2fd46c836a06233681665,64dc7d5a7a5e5ac3952eb0f1,,,,,,,decisionTrl,resources/DY.BMP,resources/DBN.BMP,Door4,-0.25462963,-0.053703697,1,0,0,1.015,optionLeft,80,12875,6,17,0,17,0,1,,,,,,,,,,,,,,,,,,,,,,,,,,,,,,,,,,,,,,,
,,,,,,,,2023-08-16_08h40.25.639,HF_wild_card,2022.2.4,Win32,59.99520038,5daf3ba02b35810016d8d97d,64d2fd46c836a06233681665,64dc7d5a7a5e5ac3952eb0f1,,,,,,,ctch,resources/DP.BMP,resources/DB.BMP,Door3,-0.288888861,-0.113888917,1,0,0,0.7991,optionLeft,70,12945,6,18,0,18,0,1,,,,,,,,,,,,,,,,,,,,,,,,,,,,,,,,,,,,,,,
,,,,,,,,2023-08-16_08h40.25.639,HF_wild_card,2022.2.4,Win32,59.99520038,5daf3ba02b35810016d8d97d,64d2fd46c836a06233681665,64dc7d5a7a5e5ac3952eb0f1,,,,,,,ctch,resources/DB.BMP,resources/DP.BMP,Door3,0.354629658,-0.074074074,1,0,0,0.7914,optionRight,70,13015,6,19,0,19,0,1,,,,,,,,,,,,,,,,,,,,,,,,,,,,,,,,,,,,,,,
,,,,,,,,2023-08-16_08h40.25.639,HF_wild_card,2022.2.4,Win32,59.99520038,5daf3ba02b35810016d8d97d,64d2fd46c836a06233681665,64dc7d5a7a5e5ac3952eb0f1,,,,,,,decisionTrl,resources/DG.BMP,resources/DBN.BMP,Door1,-0.309259238,-0.154629672,1,0,0,0.7314,optionLeft,30,13045,6,20,0,20,0,1,,,,,,,,,,,,,,,,,,,,,,,,,,,,,,,,,,,,,,,
,,,,,,,,2023-08-16_08h40.25.639,HF_wild_card,2022.2.4,Win32,59.99520038,5daf3ba02b35810016d8d97d,64d2fd46c836a06233681665,64dc7d5a7a5e5ac3952eb0f1,,,,,,,decisionTrl,resources/DP.BMP,resources/DY.BMP,Door3,-0.191666638,-0.125925912,1,0,0,0.6146,optionLeft,70,13115,6,21,0,21,0,1,,,,,,,,,,,,,,,,,,,,,,,,,,,,,,,,,,,,,,,
,,,,,,,,2023-08-16_08h40.25.639,HF_wild_card,2022.2.4,Win32,59.99520038,5daf3ba02b35810016d8d97d,64d2fd46c836a06233681665,64dc7d5a7a5e5ac3952eb0f1,,,,,,,decisionTrl,resources/DP.BMP,resources/DBN.BMP,Door3,-0.287037037,-0.137037065,1,0,0,0.8058,optionLeft,70,13185,6,22,0,22,0,1,,,,,,,,,,,,,,,,,,,,,,,,,,,,,,,,,,,,,,,
,,,,,,,,2023-08-16_08h40.25.639,HF_wild_card,2022.2.4,Win32,59.99520038,5daf3ba02b35810016d8d97d,64d2fd46c836a06233681665,64dc7d5a7a5e5ac3952eb0f1,,,,,,,decisionTrl,resources/DY.BMP,resources/DP.BMP,Door4,-0.260185171,-0.127777806,1,0,0,0.5402,optionLeft,80,13265,6,23,0,23,0,1,,,,,,,,,,,,,,,,,,,,,,,,,,,,,,,,,,,,,,,
,,,,,,,,2023-08-16_08h40.25.639,HF_wild_card,2022.2.4,Win32,59.99520038,5daf3ba02b35810016d8d97d,64d2fd46c836a06233681665,64dc7d5a7a5e5ac3952eb0f1,,,,,,,sngl,resources/DBN.BMP,resources/Empty.png,WildCard_Ex,-0.242592564,-0.057407414,1,0,0,0.9143,optionLeft,5,13270,6,24,0,24,0,1,,,,,,,,,,,,,,,,,,,,,,,,,,,,,,,,,,,,,,,
,,,,,,,,2023-08-16_08h40.25.639,HF_wild_card,2022.2.4,Win32,59.99520038,5daf3ba02b35810016d8d97d,64d2fd46c836a06233681665,64dc7d5a7a5e5ac3952eb0f1,,,,,,,sngl,resources/DB.BMP,resources/Empty.png,Door2,-0.347222222,-0.106481481,1,0,0,0.5247,optionLeft,20,13290,6,25,0,25,0,1,,,,,,,,,,,,,,,,,,,,,,,,,,,,,,,,,,,,,,,
,,,,,,,,2023-08-16_08h40.25.639,HF_wild_card,2022.2.4,Win32,59.99520038,5daf3ba02b35810016d8d97d,64d2fd46c836a06233681665,64dc7d5a7a5e5ac3952eb0f1,,,,,,,sngl,resources/Empty.png,resources/DB.BMP,Door2,0.214814857,-0.050925926,1,0,0,0.7816,optionRight,40,13330,6,26,0,26,0,1,,,,,,,,,,,,,,,,,,,,,,,,,,,,,,,,,,,,,,,
,,,,,,,,2023-08-16_08h40.25.639,HF_wild_card,2022.2.4,Win32,59.99520038,5daf3ba02b35810016d8d97d,64d2fd46c836a06233681665,64dc7d5a7a5e5ac3952eb0f1,,,,,,,decisionTrl,resources/DG.BMP,resources/DB.BMP,Door2,0.347222222,-0.037037037,1,0,0,1.4244,optionRight,20,13350,6,27,0,27,0,1,,,,,,,,,,,,,,,,,,,,,,,,,,,,,,,,,,,,,,,
,,,,,,,,2023-08-16_08h40.25.639,HF_wild_card,2022.2.4,Win32,59.99520038,5daf3ba02b35810016d8d97d,64d2fd46c836a06233681665,64dc7d5a7a5e5ac3952eb0f1,,,,,,,decisionTrl,resources/DG.BMP,resources/DB.BMP,Door2,0.214814857,-0.125925912,1,0,0,0.8413,optionRight,20,13370,6,28,0,28,0,1,,,,,,,,,,,,,,,,,,,,,,,,,,,,,,,,,,,,,,,
,,,,,,,,2023-08-16_08h40.25.639,HF_wild_card,2022.2.4,Win32,59.99520038,5daf3ba02b35810016d8d97d,64d2fd46c836a06233681665,64dc7d5a7a5e5ac3952eb0f1,,,,,,,sngl,resources/DP.BMP,resources/Empty.png,Door3,-0.25462963,-0.058333326,1,0,0,0.7744,optionLeft,70,13440,6,29,0,29,0,1,,,,,,,,,,,,,,,,,,,,,,,,,,,,,,,,,,,,,,,
,,,,,,,,2023-08-16_08h40.25.639,HF_wild_card,2022.2.4,Win32,59.99520038,5daf3ba02b35810016d8d97d,64d2fd46c836a06233681665,64dc7d5a7a5e5ac3952eb0f1,,,,,,,sngl,resources/DBN.BMP,resources/Empty.png,WildCard_Ex,-0.190740727,-0.049074067,1,0,0,0.6156,optionLeft,95,13535,6,30,0,30,0,1,,,,,,,,,,,,,,,,,,,,,,,,,,,,,,,,,,,,,,,
,,,,,,,,2023-08-16_08h40.25.639,HF_wild_card,2022.2.4,Win32,59.99520038,5daf3ba02b35810016d8d97d,64d2fd46c836a06233681665,64dc7d5a7a5e5ac3952eb0f1,,,,,,,ctch,resources/DY.BMP,resources/DG.BMP,Door4,-0.287962949,-0.112963005,1,0,0,1.045,optionLeft,60,13595,6,31,0,31,0,1,,,,,,,,,,,,,,,,,,,,,,,,,,,,,,,,,,,,,,,
,,,,,,,,2023-08-16_08h40.25.639,HF_wild_card,2022.2.4,Win32,59.99520038,5daf3ba02b35810016d8d97d,64d2fd46c836a06233681665,64dc7d5a7a5e5ac3952eb0f1,,,,,,,decisionTrl,resources/DB.BMP,resources/DG.BMP,Door1,0.363888917,0.008333312,1,0,0,1.3651,optionRight,30,13625,6,32,0,32,0,1,,,,,,,,,,,,,,,,,,,,,,,,,,,,,,,,,,,,,,,
,,,,,,,,2023-08-16_08h40.25.639,HF_wild_card,2022.2.4,Win32,59.99520038,5daf3ba02b35810016d8d97d,64d2fd46c836a06233681665,64dc7d5a7a5e5ac3952eb0f1,,,,,,,decisionTrl,resources/DP.BMP,resources/DY.BMP,Door3,-0.206481439,-0.074074074,1,0,0,1.165,optionLeft,70,13695,6,33,0,33,0,1,,,,,,,,,,,,,,,,,,,,,,,,,,,,,,,,,,,,,,,
,,,,,,,,2023-08-16_08h40.25.639,HF_wild_card,2022.2.4,Win32,59.99520038,5daf3ba02b35810016d8d97d,64d2fd46c836a06233681665,64dc7d5a7a5e5ac3952eb0f1,,,,,,,decisionTrl,resources/DY.BMP,resources/DP.BMP,Door3,0.301851908,-0.050925926,1,0,0,0.868,optionRight,70,13765,6,34,0,34,0,1,,,,,,,,,,,,,,,,,,,,,,,,,,,,,,,,,,,,,,,
,,,,,,,,2023-08-16_08h40.25.639,HF_wild_card,2022.2.4,Win32,59.99520038,5daf3ba02b35810016d8d97d,64d2fd46c836a06233681665,64dc7d5a7a5e5ac3952eb0f1,,,,,,,ctch,resources/DG.BMP,resources/DY.BMP,Door4,0.266666695,-0.113888917,1,0,0,0.781,optionRight,60,13825,6,35,0,35,0,1,,,,,,,,,,,,,,,,,,,,,,,,,,,,,,,,,,,,,,,
,,,,,,,,2023-08-16_08h40.25.639,HF_wild_card,2022.2.4,Win32,59.99520038,5daf3ba02b35810016d8d97d,64d2fd46c836a06233681665,64dc7d5a7a5e5ac3952eb0f1,,,,,,,decisionTrl,resources/DY.BMP,resources/DP.BMP,Door3,0.345370399,-0.075925933,1,0,0,0.6972,optionRight,70,13895,6,36,0,36,0,1,,,,,,,,,,,,,,,,,,,,,,,,,,,,,,,,,,,,,,,
,,,,,,,,2023-08-16_08h40.25.639,HF_wild_card,2022.2.4,Win32,59.99520038,5daf3ba02b35810016d8d97d,64d2fd46c836a06233681665,64dc7d5a7a5e5ac3952eb0f1,,,,,,,decisionTrl,resources/DBN.BMP,resources/DB.BMP,Door2,0.211111139,-0.053703697,1,0,0,0.7478,optionRight,20,13915,6,37,0,37,0,1,,,,,,,,,,,,,,,,,,,,,,,,,,,,,,,,,,,,,,,
,,,,,,,,2023-08-16_08h40.25.639,HF_wild_card,2022.2.4,Win32,59.99520038,5daf3ba02b35810016d8d97d,64d2fd46c836a06233681665,64dc7d5a7a5e5ac3952eb0f1,,,,,,,decisionTrl,resources/DB.BMP,resources/DG.BMP,Door1,0.255555541,-0.077777792,1,0,0,0.7855,optionRight,30,13945,6,38,0,38,0,1,,,,,,,,,,,,,,,,,,,,,,,,,,,,,,,,,,,,,,,
,,,,,,,,2023-08-16_08h40.25.639,HF_wild_card,2022.2.4,Win32,59.99520038,5daf3ba02b35810016d8d97d,64d2fd46c836a06233681665,64dc7d5a7a5e5ac3952eb0f1,,,,,,,decisionTrl,resources/DP.BMP,resources/DY.BMP,Door4,0.218518504,-0.017592607,1,0,0,0.7315,optionRight,80,14025,6,39,0,39,0,1,,,,,,,,,,,,,,,,,,,,,,,,,,,,,,,,,,,,,,,
,,,,,,,,2023-08-16_08h40.25.639,HF_wild_card,2022.2.4,Win32,59.99520038,5daf3ba02b35810016d8d97d,64d2fd46c836a06233681665,64dc7d5a7a5e5ac3952eb0f1,,,,,,,decisionTrl,resources/DB.BMP,resources/DG.BMP,Door2,-0.337962963,-0.125,1,0,0,1.2569,optionLeft,40,14065,6,40,0,40,0,1,,,,,,,,,,,,,,,,,,,,,,,,,,,,,,,,,,,,,,,
,,,,,,,,2023-08-16_08h40.25.639,HF_wild_card,2022.2.4,Win32,59.99520038,5daf3ba02b35810016d8d97d,64d2fd46c836a06233681665,64dc7d5a7a5e5ac3952eb0f1,,,,,,,ctch,resources/DP.BMP,resources/DB.BMP,Door3,-0.281481496,-0.100000028,1,0,0,0.813,optionLeft,70,14135,6,41,0,41,0,1,,,,,,,,,,,,,,,,,,,,,,,,,,,,,,,,,,,,,,,
,,,,,,,,2023-08-16_08h40.25.639,HF_wild_card,2022.2.4,Win32,59.99520038,5daf3ba02b35810016d8d97d,64d2fd46c836a06233681665,64dc7d5a7a5e5ac3952eb0f1,,,,,,,decisionTrl,resources/DB.BMP,resources/DBN.BMP,Door2,-0.25462963,-0.070370392,1,0,0,0.9648,optionLeft,40,14175,6,42,0,42,0,1,,,,,,,,,,,,,,,,,,,,,,,,,,,,,,,,,,,,,,,
,,,,,,,,2023-08-16_08h40.25.639,HF_wild_card,2022.2.4,Win32,59.99520038,5daf3ba02b35810016d8d97d,64d2fd46c836a06233681665,64dc7d5a7a5e5ac3952eb0f1,,,,,,,ctch,resources/DB.BMP,resources/DP.BMP,Door2,-0.12037037,-0.08888891,1,0,0,0.7481,optionLeft,20,14195,6,43,0,43,0,1,,,,,,,,,,,,,,,,,,,,,,,,,,,,,,,,,,,,,,,
,,,,,,,,2023-08-16_08h40.25.639,HF_wild_card,2022.2.4,Win32,59.99520038,5daf3ba02b35810016d8d97d,64d2fd46c836a06233681665,64dc7d5a7a5e5ac3952eb0f1,,,,,,,,,,,,,,,,,,,,,,,,,,5,0,5,0,1,,,,,,,,,,,,,,,,,,,,,,,,,,,,,,,,,,
,,,,,,,,2023-08-16_08h40.25.639,HF_wild_card,2022.2.4,Win32,59.99520038,5daf3ba02b35810016d8d97d,64d2fd46c836a06233681665,64dc7d5a7a5e5ac3952eb0f1,,,,,,,ctch,resources/DG.BMP,resources/DY.BMP,Door4,0.303703732,0.002777771,1,0,0,1.2527,optionRight,80,14275,7,0,0,0,0,1,,,,,,,,,,,,,,,,,,,,,,,,,,,,,,,,,,,,,,,
,,,,,,,,2023-08-16_08h40.25.639,HF_wild_card,2022.2.4,Win32,59.99520038,5daf3ba02b35810016d8d97d,64d2fd46c836a06233681665,64dc7d5a7a5e5ac3952eb0f1,,,,,,,ctch,resources/DG.BMP,resources/DY.BMP,Door4,0.219444487,-0.075000021,1,0,0,0.9328,optionRight,60,14335,7,1,0,1,0,1,,,,,,,,,,,,,,,,,,,,,,,,,,,,,,,,,,,,,,,
,,,,,,,,2023-08-16_08h40.25.639,HF_wild_card,2022.2.4,Win32,59.99520038,5daf3ba02b35810016d8d97d,64d2fd46c836a06233681665,64dc7d5a7a5e5ac3952eb0f1,,,,,,,decisionTrl,resources/DB.BMP,resources/DG.BMP,Door2,-0.281481496,-0.078703704,1,0,0,0.7986,optionLeft,40,14375,7,2,0,2,0,1,,,,,,,,,,,,,,,,,,,,,,,,,,,,,,,,,,,,,,,
,,,,,,,,2023-08-16_08h40.25.639,HF_wild_card,2022.2.4,Win32,59.99520038,5daf3ba02b35810016d8d97d,64d2fd46c836a06233681665,64dc7d5a7a5e5ac3952eb0f1,,,,,,,decisionTrl,resources/DB.BMP,resources/DG.BMP,Door1,0.262962977,-0.039814808,1,0,0,1.1991,optionRight,30,14405,7,3,0,3,0,1,,,,,,,,,,,,,,,,,,,,,,,,,,,,,,,,,,,,,,,
,,,,,,,,2023-08-16_08h40.25.639,HF_wild_card,2022.2.4,Win32,59.99520038,5daf3ba02b35810016d8d97d,64d2fd46c836a06233681665,64dc7d5a7a5e5ac3952eb0f1,,,,,,,decisionTrl,resources/DB.BMP,resources/DG.BMP,Door2,-0.312037044,-0.136111153,1,0,0,0.7663,optionLeft,20,14425,7,4,0,4,0,1,,,,,,,,,,,,,,,,,,,,,,,,,,,,,,,,,,,,,,,
,,,,,,,,2023-08-16_08h40.25.639,HF_wild_card,2022.2.4,Win32,59.99520038,5daf3ba02b35810016d8d97d,64d2fd46c836a06233681665,64dc7d5a7a5e5ac3952eb0f1,,,,,,,decisionTrl,resources/DP.BMP,resources/DY.BMP,Door3,-0.342592593,-0.154629672,1,0,0,0.8158,optionLeft,70,14495,7,5,0,5,0,1,,,,,,,,,,,,,,,,,,,,,,,,,,,,,,,,,,,,,,,
,,,,,,,,2023-08-16_08h40.25.639,HF_wild_card,2022.2.4,Win32,59.99520038,5daf3ba02b35810016d8d97d,64d2fd46c836a06233681665,64dc7d5a7a5e5ac3952eb0f1,,,,,,,decisionTrl,resources/DP.BMP,resources/DY.BMP,Door3,-0.237962935,-0.100000028,1,0,0,0.5163,optionLeft,70,14565,7,6,0,6,0,1,,,,,,,,,,,,,,,,,,,,,,,,,,,,,,,,,,,,,,,
,,,,,,,,2023-08-16_08h40.25.639,HF_wild_card,2022.2.4,Win32,59.99520038,5daf3ba02b35810016d8d97d,64d2fd46c836a06233681665,64dc7d5a7a5e5ac3952eb0f1,,,,,,,decisionTrl,resources/DB.BMP,resources/DG.BMP,Door2,-0.25,-0.062962956,1,0,0,0.7518,optionLeft,40,14605,7,7,0,7,0,1,,,,,,,,,,,,,,,,,,,,,,,,,,,,,,,,,,,,,,,
,,,,,,,,2023-08-16_08h40.25.639,HF_wild_card,2022.2.4,Win32,59.99520038,5daf3ba02b35810016d8d97d,64d2fd46c836a06233681665,64dc7d5a7a5e5ac3952eb0f1,,,,,,,ctch,resources/DP.BMP,resources/DB.BMP,Door3,-0.27870369,-0.074074074,1,0,0,0.7017,optionLeft,70,14675,7,8,0,8,0,1,,,,,,,,,,,,,,,,,,,,,,,,,,,,,,,,,,,,,,,
,,,,,,,,2023-08-16_08h40.25.639,HF_wild_card,2022.2.4,Win32,59.99520038,5daf3ba02b35810016d8d97d,64d2fd46c836a06233681665,64dc7d5a7a5e5ac3952eb0f1,,,,,,,ctch,resources/DB.BMP,resources/DP.BMP,Door3,0.453703704,0.032407407,1,0,0,0.9491,optionRight,70,14745,7,9,0,9,0,1,,,,,,,,,,,,,,,,,,,,,,,,,,,,,,,,,,,,,,,
,,,,,,,,2023-08-16_08h40.25.639,HF_wild_card,2022.2.4,Win32,59.99520038,5daf3ba02b35810016d8d97d,64d2fd46c836a06233681665,64dc7d5a7a5e5ac3952eb0f1,,,,,,,ctch,resources/DY.BMP,resources/DG.BMP,Door4,-0.291666667,-0.131481524,1,0,0,0.7999,optionLeft,80,14825,7,10,0,10,0,1,,,,,,,,,,,,,,,,,,,,,,,,,,,,,,,,,,,,,,,
,,,,,,,,2023-08-16_08h40.25.639,HF_wild_card,2022.2.4,Win32,59.99520038,5daf3ba02b35810016d8d97d,64d2fd46c836a06233681665,64dc7d5a7a5e5ac3952eb0f1,,,,,,,decisionTrl,resources/DG.BMP,resources/DB.BMP,Door2,0.196296339,-0.054629644,1,0,0,0.6481,optionRight,40,14865,7,11,0,11,0,1,,,,,,,,,,,,,,,,,,,,,,,,,,,,,,,,,,,,,,,
,,,,,,,,2023-08-16_08h40.25.639,HF_wild_card,2022.2.4,Win32,59.99520038,5daf3ba02b35810016d8d97d,64d2fd46c836a06233681665,64dc7d5a7a5e5ac3952eb0f1,,,,,,,ctch,resources/DY.BMP,resources/DG.BMP,Door4,-0.279629601,-0.127777806,1,0,0,0.6322,optionLeft,80,14945,7,12,0,12,0,1,,,,,,,,,,,,,,,,,,,,,,,,,,,,,,,,,,,,,,,
,,,,,,,,2023-08-16_08h40.25.639,HF_wild_card,2022.2.4,Win32,59.99520038,5daf3ba02b35810016d8d97d,64d2fd46c836a06233681665,64dc7d5a7a5e5ac3952eb0f1,,,,,,,decisionTrl,resources/DP.BMP,resources/DY.BMP,Door3,-0.317592586,-0.087962963,1,0,0,0.9729,optionLeft,70,15015,7,13,0,13,0,1,,,,,,,,,,,,,,,,,,,,,,,,,,,,,,,,,,,,,,,
,,,,,,,,2023-08-16_08h40.25.639,HF_wild_card,2022.2.4,Win32,59.99520038,5daf3ba02b35810016d8d97d,64d2fd46c836a06233681665,64dc7d5a7a5e5ac3952eb0f1,,,,,,,ctch,resources/DG.BMP,resources/DY.BMP,Door4,0.297222279,-0.104629658,1,0,0,0.966,optionRight,80,15095,7,14,0,14,0,1,,,,,,,,,,,,,,,,,,,,,,,,,,,,,,,,,,,,,,,
,,,,,,,,2023-08-16_08h40.25.639,HF_wild_card,2022.2.4,Win32,59.99520038,5daf3ba02b35810016d8d97d,64d2fd46c836a06233681665,64dc7d5a7a5e5ac3952eb0f1,,,,,,,decisionTrl,resources/DY.BMP,resources/DP.BMP,Door3,0.294444473,-0.055555556,1,0,0,0.7819,optionRight,70,15165,7,15,0,15,0,1,,,,,,,,,,,,,,,,,,,,,,,,,,,,,,,,,,,,,,,
,,,,,,,,2023-08-16_08h40.25.639,HF_wild_card,2022.2.4,Win32,59.99520038,5daf3ba02b35810016d8d97d,64d2fd46c836a06233681665,64dc7d5a7a5e5ac3952eb0f1,,,,,,,ctch,resources/DY.BMP,resources/DG.BMP,Door4,-0.251851824,-0.150925954,1,0,0,0.6161,optionLeft,80,15245,7,16,0,16,0,1,,,,,,,,,,,,,,,,,,,,,,,,,,,,,,,,,,,,,,,
,,,,,,,,2023-08-16_08h40.25.639,HF_wild_card,2022.2.4,Win32,59.99520038,5daf3ba02b35810016d8d97d,64d2fd46c836a06233681665,64dc7d5a7a5e5ac3952eb0f1,,,,,,,decisionTrl,resources/DG.BMP,resources/DB.BMP,Door2,0.212037051,-0.114814829,1,0,0,0.8825,optionRight,40,15285,7,17,0,17,0,1,,,,,,,,,,,,,,,,,,,,,,,,,,,,,,,,,,,,,,,
,,,,,,,,2023-08-16_08h40.25.639,HF_wild_card,2022.2.4,Win32,59.99520038,5daf3ba02b35810016d8d97d,64d2fd46c836a06233681665,64dc7d5a7a5e5ac3952eb0f1,,,,,,,ctch,resources/DP.BMP,resources/DB.BMP,Door3,-0.319444444,-0.100000028,1,0,0,0.672,optionLeft,70,15355,7,18,0,18,0,1,,,,,,,,,,,,,,,,,,,,,,,,,,,,,,,,,,,,,,,
,,,,,,,,2023-08-16_08h40.25.639,HF_wild_card,2022.2.4,Win32,59.99520038,5daf3ba02b35810016d8d97d,64d2fd46c836a06233681665,64dc7d5a7a5e5ac3952eb0f1,,,,,,,ctch,resources/DB.BMP,resources/DP.BMP,Door3,0.310185185,-0.024074095,1,0,0,0.8561,optionRight,70,15425,7,19,0,19,0,1,,,,,,,,,,,,,,,,,,,,,,,,,,,,,,,,,,,,,,,
,,,,,,,,2023-08-16_08h40.25.639,HF_wild_card,2022.2.4,Win32,59.99520038,5daf3ba02b35810016d8d97d,64d2fd46c836a06233681665,64dc7d5a7a5e5ac3952eb0f1,,,,,,,decisionTrl,resources/DP.BMP,resources/DY.BMP,Door3,-0.235185199,-0.127777806,1,0,0,1.274,optionLeft,70,15495,7,20,0,20,0,1,,,,,,,,,,,,,,,,,,,,,,,,,,,,,,,,,,,,,,,
,,,,,,,,2023-08-16_08h40.25.639,HF_wild_card,2022.2.4,Win32,59.99520038,5daf3ba02b35810016d8d97d,64d2fd46c836a06233681665,64dc7d5a7a5e5ac3952eb0f1,,,,,,,ctch,resources/DP.BMP,resources/DB.BMP,Door3,-0.294444402,-0.14444443,1,0,0,0.6495,optionLeft,70,15565,7,21,0,21,0,1,,,,,,,,,,,,,,,,,,,,,,,,,,,,,,,,,,,,,,,
,,,,,,,,2023-08-16_08h40.25.639,HF_wild_card,2022.2.4,Win32,59.99520038,5daf3ba02b35810016d8d97d,64d2fd46c836a06233681665,64dc7d5a7a5e5ac3952eb0f1,,,,,,,decisionTrl,resources/DP.BMP,resources/DY.BMP,Door3,-0.201851809,-0.098148134,1,0,0,0.6329,optionLeft,70,15635,7,22,0,22,0,1,,,,,,,,,,,,,,,,,,,,,,,,,,,,,,,,,,,,,,,
,,,,,,,,2023-08-16_08h40.25.639,HF_wild_card,2022.2.4,Win32,59.99520038,5daf3ba02b35810016d8d97d,64d2fd46c836a06233681665,64dc7d5a7a5e5ac3952eb0f1,,,,,,,decisionTrl,resources/DP.BMP,resources/DY.BMP,Door3,-0.249074088,-0.128703718,1,0,0,0.533,optionLeft,70,15705,7,23,0,23,0,1,,,,,,,,,,,,,,,,,,,,,,,,,,,,,,,,,,,,,,,
,,,,,,,,2023-08-16_08h40.25.639,HF_wild_card,2022.2.4,Win32,59.99520038,5daf3ba02b35810016d8d97d,64d2fd46c836a06233681665,64dc7d5a7a5e5ac3952eb0f1,,,,,,,decisionTrl,resources/DB.BMP,resources/DG.BMP,Door1,0.309259344,-0.065740762,1,0,0,1.0653,optionRight,30,15735,7,24,0,24,0,1,,,,,,,,,,,,,,,,,,,,,,,,,,,,,,,,,,,,,,,
,,,,,,,,2023-08-16_08h40.25.639,HF_wild_card,2022.2.4,Win32,59.99520038,5daf3ba02b35810016d8d97d,64d2fd46c836a06233681665,64dc7d5a7a5e5ac3952eb0f1,,,,,,,decisionTrl,resources/DB.BMP,resources/DG.BMP,Door1,0.292592578,-0.059259273,1,0,0,0.7419,optionRight,30,15765,7,25,0,25,0,1,,,,,,,,,,,,,,,,,,,,,,,,,,,,,,,,,,,,,,,
,,,,,,,,2023-08-16_08h40.25.639,HF_wild_card,2022.2.4,Win32,59.99520038,5daf3ba02b35810016d8d97d,64d2fd46c836a06233681665,64dc7d5a7a5e5ac3952eb0f1,,,,,,,decisionTrl,resources/DG.BMP,resources/DB.BMP,Door1,-0.236111111,-0.097222222,1,0,0,0.8419,optionLeft,30,15795,7,26,0,26,0,1,,,,,,,,,,,,,,,,,,,,,,,,,,,,,,,,,,,,,,,
,,,,,,,,2023-08-16_08h40.25.639,HF_wild_card,2022.2.4,Win32,59.99520038,5daf3ba02b35810016d8d97d,64d2fd46c836a06233681665,64dc7d5a7a5e5ac3952eb0f1,,,,,,,decisionTrl,resources/DY.BMP,resources/DP.BMP,Door3,0.257407436,-0.137037065,1,0,0,0.8655,optionRight,70,15865,7,27,0,27,0,1,,,,,,,,,,,,,,,,,,,,,,,,,,,,,,,,,,,,,,,
,,,,,,,,2023-08-16_08h40.25.639,HF_wild_card,2022.2.4,Win32,59.99520038,5daf3ba02b35810016d8d97d,64d2fd46c836a06233681665,64dc7d5a7a5e5ac3952eb0f1,,,,,,,decisionTrl,resources/DG.BMP,resources/DB.BMP,Door1,-0.244444459,-0.10092594,1,0,0,0.7488,optionLeft,30,15895,7,28,0,28,0,1,,,,,,,,,,,,,,,,,,,,,,,,,,,,,,,,,,,,,,,
,,,,,,,,2023-08-16_08h40.25.639,HF_wild_card,2022.2.4,Win32,59.99520038,5daf3ba02b35810016d8d97d,64d2fd46c836a06233681665,64dc7d5a7a5e5ac3952eb0f1,,,,,,,decisionTrl,resources/DY.BMP,resources/DP.BMP,Door3,0.237037023,-0.106481481,1,0,0,0.9055,optionRight,70,15965,7,29,0,29,0,1,,,,,,,,,,,,,,,,,,,,,,,,,,,,,,,,,,,,,,,
,,,,,,,,2023-08-16_08h40.25.639,HF_wild_card,2022.2.4,Win32,59.99520038,5daf3ba02b35810016d8d97d,64d2fd46c836a06233681665,64dc7d5a7a5e5ac3952eb0f1,,,,,,,decisionTrl,resources/DY.BMP,resources/DP.BMP,Door3,0.251851894,-0.093518504,1,0,0,0.7493,optionRight,70,16035,7,30,0,30,0,1,,,,,,,,,,,,,,,,,,,,,,,,,,,,,,,,,,,,,,,
,,,,,,,,2023-08-16_08h40.25.639,HF_wild_card,2022.2.4,Win32,59.99520038,5daf3ba02b35810016d8d97d,64d2fd46c836a06233681665,64dc7d5a7a5e5ac3952eb0f1,,,,,,,decisionTrl,resources/DG.BMP,resources/DB.BMP,Door1,-0.25462963,-0.097222222,1,0,0,0.9324,optionLeft,30,16065,7,31,0,31,0,1,,,,,,,,,,,,,,,,,,,,,,,,,,,,,,,,,,,,,,,
,,,,,,,,2023-08-16_08h40.25.639,HF_wild_card,2022.2.4,Win32,59.99520038,5daf3ba02b35810016d8d97d,64d2fd46c836a06233681665,64dc7d5a7a5e5ac3952eb0f1,,,,,,,ctch,resources/DB.BMP,resources/DP.BMP,Door3,0.243518547,-0.110185199,1,0,0,0.6744,optionRight,70,16135,7,32,0,32,0,1,,,,,,,,,,,,,,,,,,,,,,,,,,,,,,,,,,,,,,,
,,,,,,,,2023-08-16_08h40.25.639,HF_wild_card,2022.2.4,Win32,59.99520038,5daf3ba02b35810016d8d97d,64d2fd46c836a06233681665,64dc7d5a7a5e5ac3952eb0f1,,,,,,,decisionTrl,resources/DY.BMP,resources/DP.BMP,Door3,0.15370369,-0.122222265,1,0,0,0.999,optionRight,70,16205,7,33,0,33,0,1,,,,,,,,,,,,,,,,,,,,,,,,,,,,,,,,,,,,,,,
,,,,,,,,2023-08-16_08h40.25.639,HF_wild_card,2022.2.4,Win32,59.99520038,5daf3ba02b35810016d8d97d,64d2fd46c836a06233681665,64dc7d5a7a5e5ac3952eb0f1,,,,,,,decisionTrl,resources/DY.BMP,resources/DP.BMP,Door3,0.218518504,-0.115740741,1,0,0,0.573,optionRight,70,16275,7,34,0,34,0,1,,,,,,,,,,,,,,,,,,,,,,,,,,,,,,,,,,,,,,,
,,,,,,,,2023-08-16_08h40.25.639,HF_wild_card,2022.2.4,Win32,59.99520038,5daf3ba02b35810016d8d97d,64d2fd46c836a06233681665,64dc7d5a7a5e5ac3952eb0f1,,,,,,,decisionTrl,resources/DG.BMP,resources/DB.BMP,Door1,-0.371296282,-0.181481467,1,0,0,1.3056,optionLeft,30,16305,7,35,0,35,0,1,,,,,,,,,,,,,,,,,,,,,,,,,,,,,,,,,,,,,,,
,,,,,,,,2023-08-16_08h40.25.639,HF_wild_card,2022.2.4,Win32,59.99520038,5daf3ba02b35810016d8d97d,64d2fd46c836a06233681665,64dc7d5a7a5e5ac3952eb0f1,,,,,,,,,,,,,,,,,,,,,,,,,,6,0,6,0,1,,,,,,,,,,,,,,,,,,,,,,,,,,,,,,,,,,
,,,,,,,,2023-08-16_08h40.25.639,HF_wild_card,2022.2.4,Win32,59.99520038,5daf3ba02b35810016d8d97d,64d2fd46c836a06233681665,64dc7d5a7a5e5ac3952eb0f1,,,,,,,,,,,,,,,,,,,,,,,,,,,,,,,4,,,,,,,,,,,,,,,,,,,,,,,,,,,,,,,,,
,,,,,,,,2023-08-16_08h40.25.639,HF_wild_card,2022.2.4,Win32,59.99520038,5daf3ba02b35810016d8d97d,64d2fd46c836a06233681665,64dc7d5a7a5e5ac3952eb0f1,,,,,,,,,,,,,,,,,,,,,,,,,,,,,,,,,,,,,,,,,,,,,,,,,,,,,,,,,,,,,,,,
,,,,,,,,2023-08-16_08h40.25.639,HF_wild_card,2022.2.4,Win32,59.99520038,5daf3ba02b35810016d8d97d,64d2fd46c836a06233681665,64dc7d5a7a5e5ac3952eb0f1,,,,,,,,,,,,,,,,,,,,,,,,,,,,,,,,55,WC_nonExtreme,resources/DR.BMP,0,0,0,0,1,,,,,,,,,,,,,,,,,,,,,,,,,
,,,,,,,,2023-08-16_08h40.25.639,HF_wild_card,2022.2.4,Win32,59.99520038,5daf3ba02b35810016d8d97d,64d2fd46c836a06233681665,64dc7d5a7a5e5ac3952eb0f1,,,,,,,,,,,,,,,,,,,,,,,,,,,,,,,,30,Door1,resources/DG.BMP,1,0,1,0,1,,,,,,,,,,,,,,,,,,,,,,,,,
,,,,,,,,2023-08-16_08h40.25.639,HF_wild_card,2022.2.4,Win32,59.99520038,5daf3ba02b35810016d8d97d,64d2fd46c836a06233681665,64dc7d5a7a5e5ac3952eb0f1,,,,,,,,,,,,,,,,,,,,,,,,,,,,,,,,95,WC_extreme,resources/DBN.BMP,2,0,2,0,1,,,,,,,,,,,,,,,,,,,,,,,,,
,,,,,,,,2023-08-16_08h40.25.639,HF_wild_card,2022.2.4,Win32,59.99520038,5daf3ba02b35810016d8d97d,64d2fd46c836a06233681665,64dc7d5a7a5e5ac3952eb0f1,,,,,,,,,,,,,,,,,,,,,,,,,,,,,,,,80,Door4,resources/DY.BMP,3,0,3,0,1,,,,,,,,,,,,,,,,,,,,,,,,,
,,,,,,,,2023-08-16_08h40.25.639,HF_wild_card,2022.2.4,Win32,59.99520038,5daf3ba02b35810016d8d97d,64d2fd46c836a06233681665,64dc7d5a7a5e5ac3952eb0f1,,,,,,,,,,,,,,,,,,,,,,,,,,,,,,,,30,Door2,resources/DB.BMP,4,0,4,0,1,,,,,,,,,,,,,,,,,,,,,,,,,
,,,,,,,,2023-08-16_08h40.25.639,HF_wild_card,2022.2.4,Win32,59.99520038,5daf3ba02b35810016d8d97d,64d2fd46c836a06233681665,64dc7d5a7a5e5ac3952eb0f1,,,,,,,,,,,,,,,,,,,,,,,,,,,,,,,,70,Door3,resources/DP.BMP,5,0,5,0,1,,,,,,,,,,,,,,,,,,,,,,,,,
,,,,,,,,2023-08-16_08h40.25.639,HF_wild_card,2022.2.4,Win32,59.99520038,5daf3ba02b35810016d8d97d,64d2fd46c836a06233681665,64dc7d5a7a5e5ac3952eb0f1,,,,,,,,,,,,,,,,,,,,,,,,,,,,,,,,,,,,,,,,,,,,,,,,,,,,,,,,,,,,,,,,
