Condition,Low fixed image (Door1),Low risky image (Door2),High fixed image (Door3),High risky image (Door4),NonExtreme Wild Card 1,NonExtreme Wild Card 2,,date,expName,psychopyVersion,OS,frameRate,PROLIFIC_PID,STUDY_ID,SESSION_ID,mouse_2.x,mouse_2.y,mouse_2.leftButton,mouse_2.midButton,mouse_2.rightButton,mouse_2.clicked_name,Trial Type,Left Option Image,Right Option Image,Chosen Door,mouse.x,mouse.y,mouse.leftButton,mouse.midButton,mouse.rightButton,mouse.time,mouse.clicked_name,Feedback,Cumulative Reward,Block,trial.thisRepN,trial.thisTrialN,trial.thisN,trial.thisIndex,trial.ran,blocks.thisRepN,blocks.thisTrialN,blocks.thisN,blocks.thisIndex,blocks.ran,Money conversion,First Outcome Reported,Shown Door (First Outcome),Displayed Image (First Outcome),outcomes.thisRepN,outcomes.thisTrialN,outcomes.thisN,outcomes.thisIndex,outcomes.ran,judgments.thisRepN,judgments.thisTrialN,judgments.thisN,judgments.thisIndex,judgments.ran,freqMouse.x,freqMouse.y,freqMouse.leftButton,freqMouse.midButton,freqMouse.rightButton,freqMouse.clicked_name,FQJ for first outcome,FQJ for second outcome,Shown Door,Displayed Image,trials.thisRepN,trials.thisTrialN,trials.thisN,trials.thisIndex,trials.ran,judgBlock.thisRepN,judgBlock.thisTrialN,judgBlock.thisN,judgBlock.thisIndex,judgBlock.ran
2,resources/DY.BMP,resources/DB.BMP,resources/DR.BMP,resources/DG.BMP,resources/DBN.BMP,resources/DP.BMP,,2023-08-16_08h43.42.603,HF_wild_card,2022.2.4,Win32,59.43889681,64087b8444f656e9e2b74446,64d2fd46c836a06233681665,64dc7dd51e71c1d50c779db3,,,,,,,,,,,,,,,,,,,,,,,,,,,,,,,,,,,,,,,,,,,,,,,,,,,,,,,,,,,,,,,,
,,,,,,,,2023-08-16_08h43.42.603,HF_wild_card,2022.2.4,Win32,59.43889681,64087b8444f656e9e2b74446,64d2fd46c836a06233681665,64dc7dd51e71c1d50c779db3,0.025925926,-0.425925926,1,0,0,agree,,,,,,,,,,,,,,,,,,,,,,,,,,,,,,,,,,,,,,,,,,,,,,,,,,,,,,,,,,
,,,,,,,,2023-08-16_08h43.42.603,HF_wild_card,2022.2.4,Win32,59.43889681,64087b8444f656e9e2b74446,64d2fd46c836a06233681665,64dc7dd51e71c1d50c779db3,,,,,,,,,,,,,,,,,,,,,,,,,,,,,,,,,,,,,,,,,,,,,,,,,,,,,,,,,,,,,,,,
,,,,,,,,2023-08-16_08h43.42.603,HF_wild_card,2022.2.4,Win32,59.43889681,64087b8444f656e9e2b74446,64d2fd46c836a06233681665,64dc7dd51e71c1d50c779db3,,,,,,,decisionTrl,resources/DR.BMP,resources/DG.BMP,Door4,0.397222222,0.005555556,1,0,0,2.3349,optionRight,80,80,1,0,0,0,0,1,,,,,,,,,,,,,,,,,,,,,,,,,,,,,,,,,,,,,,,
,,,,,,,,2023-08-16_08h43.42.603,HF_wild_card,2022.2.4,Win32,59.43889681,64087b8444f656e9e2b74446,64d2fd46c836a06233681665,64dc7dd51e71c1d50c779db3,,,,,,,sngl,resources/Empty.png,resources/DB.BMP,Door2,0.276851852,-0.008333333,1,0,0,1.3474,optionRight,20,100,1,1,0,1,0,1,,,,,,,,,,,,,,,,,,,,,,,,,,,,,,,,,,,,,,,
,,,,,,,,2023-08-16_08h43.42.603,HF_wild_card,2022.2.4,Win32,59.43889681,64087b8444f656e9e2b74446,64d2fd46c836a06233681665,64dc7dd51e71c1d50c779db3,,,,,,,sngl,resources/DY.BMP,resources/Empty.png,Door1,-0.306481481,0.011111111,1,0,0,0.8778,optionLeft,30,130,1,2,0,2,0,1,,,,,,,,,,,,,,,,,,,,,,,,,,,,,,,,,,,,,,,
,,,,,,,,2023-08-16_08h43.42.603,HF_wild_card,2022.2.4,Win32,59.43889681,64087b8444f656e9e2b74446,64d2fd46c836a06233681665,64dc7dd51e71c1d50c779db3,,,,,,,sngl,resources/DP.BMP,resources/Empty.png,WildCard_NonEx,-0.287962963,0.012962963,1,0,0,0.8641,optionLeft,45,175,1,3,0,3,0,1,,,,,,,,,,,,,,,,,,,,,,,,,,,,,,,,,,,,,,,
,,,,,,,,2023-08-16_08h43.42.603,HF_wild_card,2022.2.4,Win32,59.43889681,64087b8444f656e9e2b74446,64d2fd46c836a06233681665,64dc7dd51e71c1d50c779db3,,,,,,,decisionTrl,resources/DR.BMP,resources/DP.BMP,Door3,-0.293518519,0.016666667,1,0,0,1.3304,optionLeft,70,245,1,4,0,4,0,1,,,,,,,,,,,,,,,,,,,,,,,,,,,,,,,,,,,,,,,
,,,,,,,,2023-08-16_08h43.42.603,HF_wild_card,2022.2.4,Win32,59.43889681,64087b8444f656e9e2b74446,64d2fd46c836a06233681665,64dc7dd51e71c1d50c779db3,,,,,,,ctch,resources/DY.BMP,resources/DG.BMP,Door4,0.234259259,-0.012962963,1,0,0,0.9623,optionRight,60,305,1,5,0,5,0,1,,,,,,,,,,,,,,,,,,,,,,,,,,,,,,,,,,,,,,,
,,,,,,,,2023-08-16_08h43.42.603,HF_wild_card,2022.2.4,Win32,59.43889681,64087b8444f656e9e2b74446,64d2fd46c836a06233681665,64dc7dd51e71c1d50c779db3,,,,,,,ctch,resources/DR.BMP,resources/DB.BMP,Door2,0.306481481,-0.037962963,1,0,0,1.0463,optionRight,20,325,1,6,0,6,0,1,,,,,,,,,,,,,,,,,,,,,,,,,,,,,,,,,,,,,,,
,,,,,,,,2023-08-16_08h43.42.603,HF_wild_card,2022.2.4,Win32,59.43889681,64087b8444f656e9e2b74446,64d2fd46c836a06233681665,64dc7dd51e71c1d50c779db3,,,,,,,ctch,resources/DG.BMP,resources/DY.BMP,Door4,-0.264814815,0.031481481,1,0,0,1.28,optionLeft,80,405,1,7,0,7,0,1,,,,,,,,,,,,,,,,,,,,,,,,,,,,,,,,,,,,,,,
,,,,,,,,2023-08-16_08h43.42.603,HF_wild_card,2022.2.4,Win32,59.43889681,64087b8444f656e9e2b74446,64d2fd46c836a06233681665,64dc7dd51e71c1d50c779db3,,,,,,,decisionTrl,resources/DP.BMP,resources/DY.BMP,WildCard_NonEx,-0.202777778,0.000925926,1,0,0,1.0467,optionLeft,45,450,1,8,0,8,0,1,,,,,,,,,,,,,,,,,,,,,,,,,,,,,,,,,,,,,,,
,,,,,,,,2023-08-16_08h43.42.603,HF_wild_card,2022.2.4,Win32,59.43889681,64087b8444f656e9e2b74446,64d2fd46c836a06233681665,64dc7dd51e71c1d50c779db3,,,,,,,sngl,resources/Empty.png,resources/DR.BMP,Door3,0.273148148,0.008333333,1,0,0,0.7309,optionRight,70,520,1,9,0,9,0,1,,,,,,,,,,,,,,,,,,,,,,,,,,,,,,,,,,,,,,,
,,,,,,,,2023-08-16_08h43.42.603,HF_wild_card,2022.2.4,Win32,59.43889681,64087b8444f656e9e2b74446,64d2fd46c836a06233681665,64dc7dd51e71c1d50c779db3,,,,,,,decisionTrl,resources/DG.BMP,resources/DR.BMP,Door3,0.185185185,0.003703704,1,0,0,1.1307,optionRight,70,590,1,10,0,10,0,1,,,,,,,,,,,,,,,,,,,,,,,,,,,,,,,,,,,,,,,
,,,,,,,,2023-08-16_08h43.42.603,HF_wild_card,2022.2.4,Win32,59.43889681,64087b8444f656e9e2b74446,64d2fd46c836a06233681665,64dc7dd51e71c1d50c779db3,,,,,,,ctch,resources/DR.BMP,resources/DB.BMP,Door3,-0.261111111,0.012037037,1,0,0,0.9638,optionLeft,70,660,1,11,0,11,0,1,,,,,,,,,,,,,,,,,,,,,,,,,,,,,,,,,,,,,,,
,,,,,,,,2023-08-16_08h43.42.603,HF_wild_card,2022.2.4,Win32,59.43889681,64087b8444f656e9e2b74446,64d2fd46c836a06233681665,64dc7dd51e71c1d50c779db3,,,,,,,decisionTrl,resources/DR.BMP,resources/DG.BMP,Door3,-0.186111111,0.005555556,1,0,0,0.9639,optionLeft,70,730,1,12,0,12,0,1,,,,,,,,,,,,,,,,,,,,,,,,,,,,,,,,,,,,,,,
,,,,,,,,2023-08-16_08h43.42.603,HF_wild_card,2022.2.4,Win32,59.43889681,64087b8444f656e9e2b74446,64d2fd46c836a06233681665,64dc7dd51e71c1d50c779db3,,,,,,,decisionTrl,resources/DY.BMP,resources/DB.BMP,Door2,0.274074074,0.025,1,0,0,1.1473,optionRight,20,750,1,13,0,13,0,1,,,,,,,,,,,,,,,,,,,,,,,,,,,,,,,,,,,,,,,
,,,,,,,,2023-08-16_08h43.42.603,HF_wild_card,2022.2.4,Win32,59.43889681,64087b8444f656e9e2b74446,64d2fd46c836a06233681665,64dc7dd51e71c1d50c779db3,,,,,,,decisionTrl,resources/DP.BMP,resources/DR.BMP,Door3,0.177777778,-0.031481481,1,0,0,0.9806,optionRight,70,820,1,14,0,14,0,1,,,,,,,,,,,,,,,,,,,,,,,,,,,,,,,,,,,,,,,
,,,,,,,,2023-08-16_08h43.42.603,HF_wild_card,2022.2.4,Win32,59.43889681,64087b8444f656e9e2b74446,64d2fd46c836a06233681665,64dc7dd51e71c1d50c779db3,,,,,,,decisionTrl,resources/DP.BMP,resources/DG.BMP,WildCard_NonEx,-0.177777778,-0.005555556,1,0,0,1.7484,optionLeft,45,865,1,15,0,15,0,1,,,,,,,,,,,,,,,,,,,,,,,,,,,,,,,,,,,,,,,
,,,,,,,,2023-08-16_08h43.42.603,HF_wild_card,2022.2.4,Win32,59.43889681,64087b8444f656e9e2b74446,64d2fd46c836a06233681665,64dc7dd51e71c1d50c779db3,,,,,,,sngl,resources/DB.BMP,resources/Empty.png,Door2,-0.161111111,-0.008333333,1,0,0,0.8133,optionLeft,40,905,1,16,0,16,0,1,,,,,,,,,,,,,,,,,,,,,,,,,,,,,,,,,,,,,,,
,,,,,,,,2023-08-16_08h43.42.603,HF_wild_card,2022.2.4,Win32,59.43889681,64087b8444f656e9e2b74446,64d2fd46c836a06233681665,64dc7dd51e71c1d50c779db3,,,,,,,decisionTrl,resources/DY.BMP,resources/DB.BMP,Door2,0.308333333,-0.056481481,1,0,0,1.1147,optionRight,40,945,1,17,0,17,0,1,,,,,,,,,,,,,,,,,,,,,,,,,,,,,,,,,,,,,,,
,,,,,,,,2023-08-16_08h43.42.603,HF_wild_card,2022.2.4,Win32,59.43889681,64087b8444f656e9e2b74446,64d2fd46c836a06233681665,64dc7dd51e71c1d50c779db3,,,,,,,sngl,resources/DR.BMP,resources/Empty.png,Door3,-0.180555556,0.003703704,1,0,0,0.6637,optionLeft,70,1015,1,18,0,18,0,1,,,,,,,,,,,,,,,,,,,,,,,,,,,,,,,,,,,,,,,
,,,,,,,,2023-08-16_08h43.42.603,HF_wild_card,2022.2.4,Win32,59.43889681,64087b8444f656e9e2b74446,64d2fd46c836a06233681665,64dc7dd51e71c1d50c779db3,,,,,,,sngl,resources/Empty.png,resources/DY.BMP,Door1,0.230555556,-0.016666667,1,0,0,0.7142,optionRight,30,1045,1,19,0,19,0,1,,,,,,,,,,,,,,,,,,,,,,,,,,,,,,,,,,,,,,,
,,,,,,,,2023-08-16_08h43.42.603,HF_wild_card,2022.2.4,Win32,59.43889681,64087b8444f656e9e2b74446,64d2fd46c836a06233681665,64dc7dd51e71c1d50c779db3,,,,,,,decisionTrl,resources/DP.BMP,resources/DB.BMP,Door2,0.178703704,-0.012037037,1,0,0,0.8973,optionRight,20,1065,1,20,0,20,0,1,,,,,,,,,,,,,,,,,,,,,,,,,,,,,,,,,,,,,,,
,,,,,,,,2023-08-16_08h43.42.603,HF_wild_card,2022.2.4,Win32,59.43889681,64087b8444f656e9e2b74446,64d2fd46c836a06233681665,64dc7dd51e71c1d50c779db3,,,,,,,decisionTrl,resources/DG.BMP,resources/DR.BMP,Door3,0.180555556,-0.012962963,1,0,0,0.9807,optionRight,70,1135,1,21,0,21,0,1,,,,,,,,,,,,,,,,,,,,,,,,,,,,,,,,,,,,,,,
,,,,,,,,2023-08-16_08h43.42.603,HF_wild_card,2022.2.4,Win32,59.43889681,64087b8444f656e9e2b74446,64d2fd46c836a06233681665,64dc7dd51e71c1d50c779db3,,,,,,,ctch,resources/DB.BMP,resources/DR.BMP,Door3,0.249074074,-0.051851852,1,0,0,0.7813,optionRight,70,1205,1,22,0,22,0,1,,,,,,,,,,,,,,,,,,,,,,,,,,,,,,,,,,,,,,,
,,,,,,,,2023-08-16_08h43.42.603,HF_wild_card,2022.2.4,Win32,59.43889681,64087b8444f656e9e2b74446,64d2fd46c836a06233681665,64dc7dd51e71c1d50c779db3,,,,,,,decisionTrl,resources/DY.BMP,resources/DB.BMP,Door2,0.191666667,-0.008333333,1,0,0,0.8466,optionRight,20,1225,1,23,0,23,0,1,,,,,,,,,,,,,,,,,,,,,,,,,,,,,,,,,,,,,,,
,,,,,,,,2023-08-16_08h43.42.603,HF_wild_card,2022.2.4,Win32,59.43889681,64087b8444f656e9e2b74446,64d2fd46c836a06233681665,64dc7dd51e71c1d50c779db3,,,,,,,decisionTrl,resources/DR.BMP,resources/DG.BMP,Door3,-0.22037037,0.014814815,1,0,0,0.7809,optionLeft,70,1295,1,24,0,24,0,1,,,,,,,,,,,,,,,,,,,,,,,,,,,,,,,,,,,,,,,
,,,,,,,,2023-08-16_08h43.42.603,HF_wild_card,2022.2.4,Win32,59.43889681,64087b8444f656e9e2b74446,64d2fd46c836a06233681665,64dc7dd51e71c1d50c779db3,,,,,,,sngl,resources/DP.BMP,resources/Empty.png,WildCard_NonEx,-0.208333333,0.017592593,1,0,0,0.7481,optionLeft,55,1350,1,25,0,25,0,1,,,,,,,,,,,,,,,,,,,,,,,,,,,,,,,,,,,,,,,
,,,,,,,,2023-08-16_08h43.42.603,HF_wild_card,2022.2.4,Win32,59.43889681,64087b8444f656e9e2b74446,64d2fd46c836a06233681665,64dc7dd51e71c1d50c779db3,,,,,,,sngl,resources/Empty.png,resources/DP.BMP,WildCard_NonEx,0.24537037,-0.008333333,1,0,0,0.7472,optionRight,45,1395,1,26,0,26,0,1,,,,,,,,,,,,,,,,,,,,,,,,,,,,,,,,,,,,,,,
,,,,,,,,2023-08-16_08h43.42.603,HF_wild_card,2022.2.4,Win32,59.43889681,64087b8444f656e9e2b74446,64d2fd46c836a06233681665,64dc7dd51e71c1d50c779db3,,,,,,,decisionTrl,resources/DG.BMP,resources/DR.BMP,Door3,0.17962963,-0.003703704,1,0,0,0.7808,optionRight,70,1465,1,27,0,27,0,1,,,,,,,,,,,,,,,,,,,,,,,,,,,,,,,,,,,,,,,
,,,,,,,,2023-08-16_08h43.42.603,HF_wild_card,2022.2.4,Win32,59.43889681,64087b8444f656e9e2b74446,64d2fd46c836a06233681665,64dc7dd51e71c1d50c779db3,,,,,,,ctch,resources/DY.BMP,resources/DG.BMP,Door4,0.199074074,-0.005555556,1,0,0,0.8311,optionRight,80,1545,1,28,0,28,0,1,,,,,,,,,,,,,,,,,,,,,,,,,,,,,,,,,,,,,,,
,,,,,,,,2023-08-16_08h43.42.603,HF_wild_card,2022.2.4,Win32,59.43889681,64087b8444f656e9e2b74446,64d2fd46c836a06233681665,64dc7dd51e71c1d50c779db3,,,,,,,sngl,resources/Empty.png,resources/DG.BMP,Door4,0.307407407,-0.001851852,1,0,0,0.713,optionRight,60,1605,1,29,0,29,0,1,,,,,,,,,,,,,,,,,,,,,,,,,,,,,,,,,,,,,,,
,,,,,,,,2023-08-16_08h43.42.603,HF_wild_card,2022.2.4,Win32,59.43889681,64087b8444f656e9e2b74446,64d2fd46c836a06233681665,64dc7dd51e71c1d50c779db3,,,,,,,decisionTrl,resources/DY.BMP,resources/DB.BMP,Door2,0.202777778,-0.012962963,1,0,0,0.7807,optionRight,20,1625,1,30,0,30,0,1,,,,,,,,,,,,,,,,,,,,,,,,,,,,,,,,,,,,,,,
,,,,,,,,2023-08-16_08h43.42.603,HF_wild_card,2022.2.4,Win32,59.43889681,64087b8444f656e9e2b74446,64d2fd46c836a06233681665,64dc7dd51e71c1d50c779db3,,,,,,,decisionTrl,resources/DR.BMP,resources/DG.BMP,Door3,-0.17037037,-0.001851852,1,0,0,0.8803,optionLeft,70,1695,1,31,0,31,0,1,,,,,,,,,,,,,,,,,,,,,,,,,,,,,,,,,,,,,,,
,,,,,,,,2023-08-16_08h43.42.603,HF_wild_card,2022.2.4,Win32,59.43889681,64087b8444f656e9e2b74446,64d2fd46c836a06233681665,64dc7dd51e71c1d50c779db3,,,,,,,decisionTrl,resources/DG.BMP,resources/DP.BMP,WildCard_NonEx,0.172222222,-0.002777778,1,0,0,0.8476,optionRight,45,1740,1,32,0,32,0,1,,,,,,,,,,,,,,,,,,,,,,,,,,,,,,,,,,,,,,,
,,,,,,,,2023-08-16_08h43.42.603,HF_wild_card,2022.2.4,Win32,59.43889681,64087b8444f656e9e2b74446,64d2fd46c836a06233681665,64dc7dd51e71c1d50c779db3,,,,,,,decisionTrl,resources/DB.BMP,resources/DY.BMP,Door2,-0.181481481,0.012037037,1,0,0,1.0472,optionLeft,20,1760,1,33,0,33,0,1,,,,,,,,,,,,,,,,,,,,,,,,,,,,,,,,,,,,,,,
,,,,,,,,2023-08-16_08h43.42.603,HF_wild_card,2022.2.4,Win32,59.43889681,64087b8444f656e9e2b74446,64d2fd46c836a06233681665,64dc7dd51e71c1d50c779db3,,,,,,,decisionTrl,resources/DY.BMP,resources/DP.BMP,WildCard_NonEx,0.210185185,0.002777778,1,0,0,0.8311,optionRight,45,1805,1,34,0,34,0,1,,,,,,,,,,,,,,,,,,,,,,,,,,,,,,,,,,,,,,,
,,,,,,,,2023-08-16_08h43.42.603,HF_wild_card,2022.2.4,Win32,59.43889681,64087b8444f656e9e2b74446,64d2fd46c836a06233681665,64dc7dd51e71c1d50c779db3,,,,,,,decisionTrl,resources/DG.BMP,resources/DR.BMP,Door4,-0.244444444,0.009259259,1,0,0,0.7975,optionLeft,80,1885,1,35,0,35,0,1,,,,,,,,,,,,,,,,,,,,,,,,,,,,,,,,,,,,,,,
,,,,,,,,2023-08-16_08h43.42.603,HF_wild_card,2022.2.4,Win32,59.43889681,64087b8444f656e9e2b74446,64d2fd46c836a06233681665,64dc7dd51e71c1d50c779db3,,,,,,,sngl,resources/DG.BMP,resources/Empty.png,Door4,-0.19537037,0.009259259,1,0,0,0.7648,optionLeft,80,1965,1,36,0,36,0,1,,,,,,,,,,,,,,,,,,,,,,,,,,,,,,,,,,,,,,,
,,,,,,,,2023-08-16_08h43.42.603,HF_wild_card,2022.2.4,Win32,59.43889681,64087b8444f656e9e2b74446,64d2fd46c836a06233681665,64dc7dd51e71c1d50c779db3,,,,,,,decisionTrl,resources/DB.BMP,resources/DY.BMP,Door2,-0.202777778,0.016666667,1,0,0,1.0143,optionLeft,40,2005,1,37,0,37,0,1,,,,,,,,,,,,,,,,,,,,,,,,,,,,,,,,,,,,,,,
,,,,,,,,2023-08-16_08h43.42.603,HF_wild_card,2022.2.4,Win32,59.43889681,64087b8444f656e9e2b74446,64d2fd46c836a06233681665,64dc7dd51e71c1d50c779db3,,,,,,,ctch,resources/DB.BMP,resources/DR.BMP,Door3,0.206481481,-0.019444444,1,0,0,0.8136,optionRight,70,2075,1,38,0,38,0,1,,,,,,,,,,,,,,,,,,,,,,,,,,,,,,,,,,,,,,,
,,,,,,,,2023-08-16_08h43.42.603,HF_wild_card,2022.2.4,Win32,59.43889681,64087b8444f656e9e2b74446,64d2fd46c836a06233681665,64dc7dd51e71c1d50c779db3,,,,,,,sngl,resources/Empty.png,resources/DP.BMP,WildCard_NonEx,0.282407407,-0.032407407,1,0,0,0.7479,optionRight,55,2130,1,39,0,39,0,1,,,,,,,,,,,,,,,,,,,,,,,,,,,,,,,,,,,,,,,
,,,,,,,,2023-08-16_08h43.42.603,HF_wild_card,2022.2.4,Win32,59.43889681,64087b8444f656e9e2b74446,64d2fd46c836a06233681665,64dc7dd51e71c1d50c779db3,,,,,,,decisionTrl,resources/DB.BMP,resources/DY.BMP,Door2,-0.268518519,0.037037037,1,0,0,0.7641,optionLeft,20,2150,1,40,0,40,0,1,,,,,,,,,,,,,,,,,,,,,,,,,,,,,,,,,,,,,,,
,,,,,,,,2023-08-16_08h43.42.603,HF_wild_card,2022.2.4,Win32,59.43889681,64087b8444f656e9e2b74446,64d2fd46c836a06233681665,64dc7dd51e71c1d50c779db3,,,,,,,ctch,resources/DG.BMP,resources/DY.BMP,Door4,-0.180555556,0.052777778,1,0,0,0.8139,optionLeft,60,2210,1,41,0,41,0,1,,,,,,,,,,,,,,,,,,,,,,,,,,,,,,,,,,,,,,,
,,,,,,,,2023-08-16_08h43.42.603,HF_wild_card,2022.2.4,Win32,59.43889681,64087b8444f656e9e2b74446,64d2fd46c836a06233681665,64dc7dd51e71c1d50c779db3,,,,,,,decisionTrl,resources/DB.BMP,resources/DY.BMP,Door2,-0.25462963,-0.007407407,1,0,0,0.797,optionLeft,20,2230,1,42,0,42,0,1,,,,,,,,,,,,,,,,,,,,,,,,,,,,,,,,,,,,,,,
,,,,,,,,2023-08-16_08h43.42.603,HF_wild_card,2022.2.4,Win32,59.43889681,64087b8444f656e9e2b74446,64d2fd46c836a06233681665,64dc7dd51e71c1d50c779db3,,,,,,,decisionTrl,resources/DB.BMP,resources/DP.BMP,WildCard_NonEx,0.187037037,-0.003703704,1,0,0,0.814,optionRight,55,2285,1,43,0,43,0,1,,,,,,,,,,,,,,,,,,,,,,,,,,,,,,,,,,,,,,,
,,,,,,,,2023-08-16_08h43.42.603,HF_wild_card,2022.2.4,Win32,59.43889681,64087b8444f656e9e2b74446,64d2fd46c836a06233681665,64dc7dd51e71c1d50c779db3,,,,,,,,,,,,,,,,,,,,,,,,,,0,0,0,0,1,,,,,,,,,,,,,,,,,,,,,,,,,,,,,,,,,,
,,,,,,,,2023-08-16_08h43.42.603,HF_wild_card,2022.2.4,Win32,59.43889681,64087b8444f656e9e2b74446,64d2fd46c836a06233681665,64dc7dd51e71c1d50c779db3,,,,,,,ctch,resources/DR.BMP,resources/DB.BMP,Door3,-0.24537037,-0.151851852,1,0,0,1.0578,optionLeft,70,2355,2,0,0,0,0,1,,,,,,,,,,,,,,,,,,,,,,,,,,,,,,,,,,,,,,,
,,,,,,,,2023-08-16_08h43.42.603,HF_wild_card,2022.2.4,Win32,59.43889681,64087b8444f656e9e2b74446,64d2fd46c836a06233681665,64dc7dd51e71c1d50c779db3,,,,,,,decisionTrl,resources/DP.BMP,resources/DG.BMP,Door4,0.172222222,-0.016666667,1,0,0,0.8643,optionRight,60,2415,2,1,0,1,0,1,,,,,,,,,,,,,,,,,,,,,,,,,,,,,,,,,,,,,,,
,,,,,,,,2023-08-16_08h43.42.603,HF_wild_card,2022.2.4,Win32,59.43889681,64087b8444f656e9e2b74446,64d2fd46c836a06233681665,64dc7dd51e71c1d50c779db3,,,,,,,sngl,resources/DR.BMP,resources/Empty.png,Door3,-0.183333333,0.016666667,1,0,0,0.7468,optionLeft,70,2485,2,2,0,2,0,1,,,,,,,,,,,,,,,,,,,,,,,,,,,,,,,,,,,,,,,
,,,,,,,,2023-08-16_08h43.42.603,HF_wild_card,2022.2.4,Win32,59.43889681,64087b8444f656e9e2b74446,64d2fd46c836a06233681665,64dc7dd51e71c1d50c779db3,,,,,,,sngl,resources/Empty.png,resources/DP.BMP,WildCard_NonEx,0.264814815,-0.015740741,1,0,0,0.5304,optionRight,55,2540,2,3,0,3,0,1,,,,,,,,,,,,,,,,,,,,,,,,,,,,,,,,,,,,,,,
,,,,,,,,2023-08-16_08h43.42.603,HF_wild_card,2022.2.4,Win32,59.43889681,64087b8444f656e9e2b74446,64d2fd46c836a06233681665,64dc7dd51e71c1d50c779db3,,,,,,,decisionTrl,resources/DY.BMP,resources/DB.BMP,Door2,0.244444444,-0.008333333,1,0,0,0.9134,optionRight,20,2560,2,4,0,4,0,1,,,,,,,,,,,,,,,,,,,,,,,,,,,,,,,,,,,,,,,
,,,,,,,,2023-08-16_08h43.42.603,HF_wild_card,2022.2.4,Win32,59.43889681,64087b8444f656e9e2b74446,64d2fd46c836a06233681665,64dc7dd51e71c1d50c779db3,,,,,,,decisionTrl,resources/DG.BMP,resources/DR.BMP,Door3,0.250925926,0.017592593,1,0,0,0.548,optionRight,70,2630,2,5,0,5,0,1,,,,,,,,,,,,,,,,,,,,,,,,,,,,,,,,,,,,,,,
,,,,,,,,2023-08-16_08h43.42.603,HF_wild_card,2022.2.4,Win32,59.43889681,64087b8444f656e9e2b74446,64d2fd46c836a06233681665,64dc7dd51e71c1d50c779db3,,,,,,,sngl,resources/Empty.png,resources/DB.BMP,Door2,0.177777778,0.025925926,1,0,0,0.5805,optionRight,40,2670,2,6,0,6,0,1,,,,,,,,,,,,,,,,,,,,,,,,,,,,,,,,,,,,,,,
,,,,,,,,2023-08-16_08h43.42.603,HF_wild_card,2022.2.4,Win32,59.43889681,64087b8444f656e9e2b74446,64d2fd46c836a06233681665,64dc7dd51e71c1d50c779db3,,,,,,,decisionTrl,resources/DB.BMP,resources/DY.BMP,Door2,-0.196296296,-0.083333333,1,0,0,0.6807,optionLeft,40,2710,2,7,0,7,0,1,,,,,,,,,,,,,,,,,,,,,,,,,,,,,,,,,,,,,,,
,,,,,,,,2023-08-16_08h43.42.603,HF_wild_card,2022.2.4,Win32,59.43889681,64087b8444f656e9e2b74446,64d2fd46c836a06233681665,64dc7dd51e71c1d50c779db3,,,,,,,sngl,resources/DY.BMP,resources/Empty.png,Door1,-0.166666667,-0.05,1,0,0,0.5136,optionLeft,30,2740,2,8,0,8,0,1,,,,,,,,,,,,,,,,,,,,,,,,,,,,,,,,,,,,,,,
,,,,,,,,2023-08-16_08h43.42.603,HF_wild_card,2022.2.4,Win32,59.43889681,64087b8444f656e9e2b74446,64d2fd46c836a06233681665,64dc7dd51e71c1d50c779db3,,,,,,,decisionTrl,resources/DR.BMP,resources/DG.BMP,Door4,0.262037037,0.051851852,1,0,0,0.7134,optionRight,80,2820,2,9,0,9,0,1,,,,,,,,,,,,,,,,,,,,,,,,,,,,,,,,,,,,,,,
,,,,,,,,2023-08-16_08h43.42.603,HF_wild_card,2022.2.4,Win32,59.43889681,64087b8444f656e9e2b74446,64d2fd46c836a06233681665,64dc7dd51e71c1d50c779db3,,,,,,,ctch,resources/DR.BMP,resources/DB.BMP,Door3,-0.196296296,-0.050925926,1,0,0,0.6803,optionLeft,70,2890,2,10,0,10,0,1,,,,,,,,,,,,,,,,,,,,,,,,,,,,,,,,,,,,,,,
,,,,,,,,2023-08-16_08h43.42.603,HF_wild_card,2022.2.4,Win32,59.43889681,64087b8444f656e9e2b74446,64d2fd46c836a06233681665,64dc7dd51e71c1d50c779db3,,,,,,,ctch,resources/DY.BMP,resources/DG.BMP,Door4,0.278703704,0.061111111,1,0,0,0.5804,optionRight,60,2950,2,11,0,11,0,1,,,,,,,,,,,,,,,,,,,,,,,,,,,,,,,,,,,,,,,
,,,,,,,,2023-08-16_08h43.42.603,HF_wild_card,2022.2.4,Win32,59.43889681,64087b8444f656e9e2b74446,64d2fd46c836a06233681665,64dc7dd51e71c1d50c779db3,,,,,,,decisionTrl,resources/DP.BMP,resources/DR.BMP,Door3,0.203703704,0.009259259,1,0,0,0.6473,optionRight,70,3020,2,12,0,12,0,1,,,,,,,,,,,,,,,,,,,,,,,,,,,,,,,,,,,,,,,
,,,,,,,,2023-08-16_08h43.42.603,HF_wild_card,2022.2.4,Win32,59.43889681,64087b8444f656e9e2b74446,64d2fd46c836a06233681665,64dc7dd51e71c1d50c779db3,,,,,,,sngl,resources/Empty.png,resources/DG.BMP,Door4,0.232407407,0.063888889,1,0,0,0.5473,optionRight,80,3100,2,13,0,13,0,1,,,,,,,,,,,,,,,,,,,,,,,,,,,,,,,,,,,,,,,
,,,,,,,,2023-08-16_08h43.42.603,HF_wild_card,2022.2.4,Win32,59.43889681,64087b8444f656e9e2b74446,64d2fd46c836a06233681665,64dc7dd51e71c1d50c779db3,,,,,,,decisionTrl,resources/DG.BMP,resources/DR.BMP,Door4,-0.2,-0.036111111,1,0,0,0.7467,optionLeft,80,3180,2,14,0,14,0,1,,,,,,,,,,,,,,,,,,,,,,,,,,,,,,,,,,,,,,,
,,,,,,,,2023-08-16_08h43.42.603,HF_wild_card,2022.2.4,Win32,59.43889681,64087b8444f656e9e2b74446,64d2fd46c836a06233681665,64dc7dd51e71c1d50c779db3,,,,,,,decisionTrl,resources/DY.BMP,resources/DP.BMP,WildCard_NonEx,0.232407407,0.02962963,1,0,0,0.6972,optionRight,45,3225,2,15,0,15,0,1,,,,,,,,,,,,,,,,,,,,,,,,,,,,,,,,,,,,,,,
,,,,,,,,2023-08-16_08h43.42.603,HF_wild_card,2022.2.4,Win32,59.43889681,64087b8444f656e9e2b74446,64d2fd46c836a06233681665,64dc7dd51e71c1d50c779db3,,,,,,,decisionTrl,resources/DR.BMP,resources/DG.BMP,Door4,0.207407407,0.032407407,1,0,0,0.8481,optionRight,60,3285,2,16,0,16,0,1,,,,,,,,,,,,,,,,,,,,,,,,,,,,,,,,,,,,,,,
,,,,,,,,2023-08-16_08h43.42.603,HF_wild_card,2022.2.4,Win32,59.43889681,64087b8444f656e9e2b74446,64d2fd46c836a06233681665,64dc7dd51e71c1d50c779db3,,,,,,,ctch,resources/DY.BMP,resources/DG.BMP,Door4,0.215740741,0.026851852,1,0,0,0.6809,optionRight,80,3365,2,17,0,17,0,1,,,,,,,,,,,,,,,,,,,,,,,,,,,,,,,,,,,,,,,
,,,,,,,,2023-08-16_08h43.42.603,HF_wild_card,2022.2.4,Win32,59.43889681,64087b8444f656e9e2b74446,64d2fd46c836a06233681665,64dc7dd51e71c1d50c779db3,,,,,,,ctch,resources/DB.BMP,resources/DR.BMP,Door3,0.193518519,-0.00462963,1,0,0,0.8474,optionRight,70,3435,2,18,0,18,0,1,,,,,,,,,,,,,,,,,,,,,,,,,,,,,,,,,,,,,,,
,,,,,,,,2023-08-16_08h43.42.603,HF_wild_card,2022.2.4,Win32,59.43889681,64087b8444f656e9e2b74446,64d2fd46c836a06233681665,64dc7dd51e71c1d50c779db3,,,,,,,sngl,resources/DP.BMP,resources/Empty.png,WildCard_NonEx,-0.153703704,-0.035185185,1,0,0,0.5629,optionLeft,45,3480,2,19,0,19,0,1,,,,,,,,,,,,,,,,,,,,,,,,,,,,,,,,,,,,,,,
,,,,,,,,2023-08-16_08h43.42.603,HF_wild_card,2022.2.4,Win32,59.43889681,64087b8444f656e9e2b74446,64d2fd46c836a06233681665,64dc7dd51e71c1d50c779db3,,,,,,,sngl,resources/DG.BMP,resources/Empty.png,Door4,-0.148148148,-0.02962963,1,0,0,0.564,optionLeft,60,3540,2,20,0,20,0,1,,,,,,,,,,,,,,,,,,,,,,,,,,,,,,,,,,,,,,,
,,,,,,,,2023-08-16_08h43.42.603,HF_wild_card,2022.2.4,Win32,59.43889681,64087b8444f656e9e2b74446,64d2fd46c836a06233681665,64dc7dd51e71c1d50c779db3,,,,,,,decisionTrl,resources/DG.BMP,resources/DP.BMP,Door4,-0.196296296,-0.041666667,1,0,0,0.7142,optionLeft,80,3620,2,21,0,21,0,1,,,,,,,,,,,,,,,,,,,,,,,,,,,,,,,,,,,,,,,
,,,,,,,,2023-08-16_08h43.42.603,HF_wild_card,2022.2.4,Win32,59.43889681,64087b8444f656e9e2b74446,64d2fd46c836a06233681665,64dc7dd51e71c1d50c779db3,,,,,,,decisionTrl,resources/DB.BMP,resources/DY.BMP,Door2,-0.17037037,-0.047222222,1,0,0,0.8133,optionLeft,40,3660,2,22,0,22,0,1,,,,,,,,,,,,,,,,,,,,,,,,,,,,,,,,,,,,,,,
,,,,,,,,2023-08-16_08h43.42.603,HF_wild_card,2022.2.4,Win32,59.43889681,64087b8444f656e9e2b74446,64d2fd46c836a06233681665,64dc7dd51e71c1d50c779db3,,,,,,,decisionTrl,resources/DR.BMP,resources/DG.BMP,Door4,0.243518519,0.038888889,1,0,0,0.5634,optionRight,60,3720,2,23,0,23,0,1,,,,,,,,,,,,,,,,,,,,,,,,,,,,,,,,,,,,,,,
,,,,,,,,2023-08-16_08h43.42.603,HF_wild_card,2022.2.4,Win32,59.43889681,64087b8444f656e9e2b74446,64d2fd46c836a06233681665,64dc7dd51e71c1d50c779db3,,,,,,,decisionTrl,resources/DB.BMP,resources/DP.BMP,WildCard_NonEx,0.186111111,0.011111111,1,0,0,1.2639,optionRight,55,3775,2,24,0,24,0,1,,,,,,,,,,,,,,,,,,,,,,,,,,,,,,,,,,,,,,,
,,,,,,,,2023-08-16_08h43.42.603,HF_wild_card,2022.2.4,Win32,59.43889681,64087b8444f656e9e2b74446,64d2fd46c836a06233681665,64dc7dd51e71c1d50c779db3,,,,,,,decisionTrl,resources/DP.BMP,resources/DB.BMP,WildCard_NonEx,-0.130555556,-0.034259259,1,0,0,1.5306,optionLeft,55,3830,2,25,0,25,0,1,,,,,,,,,,,,,,,,,,,,,,,,,,,,,,,,,,,,,,,
,,,,,,,,2023-08-16_08h43.42.603,HF_wild_card,2022.2.4,Win32,59.43889681,64087b8444f656e9e2b74446,64d2fd46c836a06233681665,64dc7dd51e71c1d50c779db3,,,,,,,sngl,resources/Empty.png,resources/DP.BMP,WildCard_NonEx,0.231481481,0.02037037,1,0,0,0.5149,optionRight,45,3875,2,26,0,26,0,1,,,,,,,,,,,,,,,,,,,,,,,,,,,,,,,,,,,,,,,
,,,,,,,,2023-08-16_08h43.42.603,HF_wild_card,2022.2.4,Win32,59.43889681,64087b8444f656e9e2b74446,64d2fd46c836a06233681665,64dc7dd51e71c1d50c779db3,,,,,,,decisionTrl,resources/DY.BMP,resources/DB.BMP,Door1,-0.19537037,-0.065740741,1,0,0,1.5968,optionLeft,30,3905,2,27,0,27,0,1,,,,,,,,,,,,,,,,,,,,,,,,,,,,,,,,,,,,,,,
,,,,,,,,2023-08-16_08h43.42.603,HF_wild_card,2022.2.4,Win32,59.43889681,64087b8444f656e9e2b74446,64d2fd46c836a06233681665,64dc7dd51e71c1d50c779db3,,,,,,,ctch,resources/DG.BMP,resources/DY.BMP,Door4,-0.205555556,-0.053703704,1,0,0,0.7476,optionLeft,60,3965,2,28,0,28,0,1,,,,,,,,,,,,,,,,,,,,,,,,,,,,,,,,,,,,,,,
,,,,,,,,2023-08-16_08h43.42.603,HF_wild_card,2022.2.4,Win32,59.43889681,64087b8444f656e9e2b74446,64d2fd46c836a06233681665,64dc7dd51e71c1d50c779db3,,,,,,,decisionTrl,resources/DY.BMP,resources/DB.BMP,Door2,0.2,-0.003703704,1,0,0,0.9301,optionRight,40,4005,2,29,0,29,0,1,,,,,,,,,,,,,,,,,,,,,,,,,,,,,,,,,,,,,,,
,,,,,,,,2023-08-16_08h43.42.603,HF_wild_card,2022.2.4,Win32,59.43889681,64087b8444f656e9e2b74446,64d2fd46c836a06233681665,64dc7dd51e71c1d50c779db3,,,,,,,sngl,resources/DP.BMP,resources/Empty.png,WildCard_NonEx,-0.169444444,-0.031481481,1,0,0,0.5973,optionLeft,55,4060,2,30,0,30,0,1,,,,,,,,,,,,,,,,,,,,,,,,,,,,,,,,,,,,,,,
,,,,,,,,2023-08-16_08h43.42.603,HF_wild_card,2022.2.4,Win32,59.43889681,64087b8444f656e9e2b74446,64d2fd46c836a06233681665,64dc7dd51e71c1d50c779db3,,,,,,,ctch,resources/DB.BMP,resources/DR.BMP,Door3,0.231481481,0.018518519,1,0,0,1.1472,optionRight,70,4130,2,31,0,31,0,1,,,,,,,,,,,,,,,,,,,,,,,,,,,,,,,,,,,,,,,
,,,,,,,,2023-08-16_08h43.42.603,HF_wild_card,2022.2.4,Win32,59.43889681,64087b8444f656e9e2b74446,64d2fd46c836a06233681665,64dc7dd51e71c1d50c779db3,,,,,,,decisionTrl,resources/DR.BMP,resources/DP.BMP,Door3,-0.187962963,-0.02962963,1,0,0,1.2972,optionLeft,70,4200,2,32,0,32,0,1,,,,,,,,,,,,,,,,,,,,,,,,,,,,,,,,,,,,,,,
,,,,,,,,2023-08-16_08h43.42.603,HF_wild_card,2022.2.4,Win32,59.43889681,64087b8444f656e9e2b74446,64d2fd46c836a06233681665,64dc7dd51e71c1d50c779db3,,,,,,,decisionTrl,resources/DG.BMP,resources/DR.BMP,Door4,-0.206481481,-0.044444444,1,0,0,0.6304,optionLeft,60,4260,2,33,0,33,0,1,,,,,,,,,,,,,,,,,,,,,,,,,,,,,,,,,,,,,,,
,,,,,,,,2023-08-16_08h43.42.603,HF_wild_card,2022.2.4,Win32,59.43889681,64087b8444f656e9e2b74446,64d2fd46c836a06233681665,64dc7dd51e71c1d50c779db3,,,,,,,decisionTrl,resources/DB.BMP,resources/DY.BMP,Door2,-0.163888889,-0.025925926,1,0,0,1.3805,optionLeft,40,4300,2,34,0,34,0,1,,,,,,,,,,,,,,,,,,,,,,,,,,,,,,,,,,,,,,,
,,,,,,,,2023-08-16_08h43.42.603,HF_wild_card,2022.2.4,Win32,59.43889681,64087b8444f656e9e2b74446,64d2fd46c836a06233681665,64dc7dd51e71c1d50c779db3,,,,,,,decisionTrl,resources/DB.BMP,resources/DY.BMP,Door2,-0.166666667,-0.064814815,1,0,0,0.7309,optionLeft,40,4340,2,35,0,35,0,1,,,,,,,,,,,,,,,,,,,,,,,,,,,,,,,,,,,,,,,
,,,,,,,,2023-08-16_08h43.42.603,HF_wild_card,2022.2.4,Win32,59.43889681,64087b8444f656e9e2b74446,64d2fd46c836a06233681665,64dc7dd51e71c1d50c779db3,,,,,,,ctch,resources/DG.BMP,resources/DY.BMP,Door4,-0.174074074,-0.04537037,1,0,0,0.6801,optionLeft,80,4420,2,36,0,36,0,1,,,,,,,,,,,,,,,,,,,,,,,,,,,,,,,,,,,,,,,
,,,,,,,,2023-08-16_08h43.42.603,HF_wild_card,2022.2.4,Win32,59.43889681,64087b8444f656e9e2b74446,64d2fd46c836a06233681665,64dc7dd51e71c1d50c779db3,,,,,,,sngl,resources/DB.BMP,resources/Empty.png,Door2,-0.166666667,-0.038888889,1,0,0,0.6803,optionLeft,20,4440,2,37,0,37,0,1,,,,,,,,,,,,,,,,,,,,,,,,,,,,,,,,,,,,,,,
,,,,,,,,2023-08-16_08h43.42.603,HF_wild_card,2022.2.4,Win32,59.43889681,64087b8444f656e9e2b74446,64d2fd46c836a06233681665,64dc7dd51e71c1d50c779db3,,,,,,,sngl,resources/Empty.png,resources/DY.BMP,Door1,0.206481481,0.017592593,1,0,0,0.5639,optionRight,30,4470,2,38,0,38,0,1,,,,,,,,,,,,,,,,,,,,,,,,,,,,,,,,,,,,,,,
,,,,,,,,2023-08-16_08h43.42.603,HF_wild_card,2022.2.4,Win32,59.43889681,64087b8444f656e9e2b74446,64d2fd46c836a06233681665,64dc7dd51e71c1d50c779db3,,,,,,,decisionTrl,resources/DG.BMP,resources/DR.BMP,Door4,-0.166666667,-0.040740741,1,0,0,0.7473,optionLeft,60,4530,2,39,0,39,0,1,,,,,,,,,,,,,,,,,,,,,,,,,,,,,,,,,,,,,,,
,,,,,,,,2023-08-16_08h43.42.603,HF_wild_card,2022.2.4,Win32,59.43889681,64087b8444f656e9e2b74446,64d2fd46c836a06233681665,64dc7dd51e71c1d50c779db3,,,,,,,sngl,resources/Empty.png,resources/DR.BMP,Door3,0.187962963,0.012037037,1,0,0,0.5643,optionRight,70,4600,2,40,0,40,0,1,,,,,,,,,,,,,,,,,,,,,,,,,,,,,,,,,,,,,,,
,,,,,,,,2023-08-16_08h43.42.603,HF_wild_card,2022.2.4,Win32,59.43889681,64087b8444f656e9e2b74446,64d2fd46c836a06233681665,64dc7dd51e71c1d50c779db3,,,,,,,decisionTrl,resources/DR.BMP,resources/DG.BMP,Door3,-0.167592593,-0.046296296,1,0,0,1.0974,optionLeft,70,4670,2,41,0,41,0,1,,,,,,,,,,,,,,,,,,,,,,,,,,,,,,,,,,,,,,,
,,,,,,,,2023-08-16_08h43.42.603,HF_wild_card,2022.2.4,Win32,59.43889681,64087b8444f656e9e2b74446,64d2fd46c836a06233681665,64dc7dd51e71c1d50c779db3,,,,,,,decisionTrl,resources/DY.BMP,resources/DB.BMP,Door2,0.191666667,-0.012962963,1,0,0,1.5137,optionRight,20,4690,2,42,0,42,0,1,,,,,,,,,,,,,,,,,,,,,,,,,,,,,,,,,,,,,,,
,,,,,,,,2023-08-16_08h43.42.603,HF_wild_card,2022.2.4,Win32,59.43889681,64087b8444f656e9e2b74446,64d2fd46c836a06233681665,64dc7dd51e71c1d50c779db3,,,,,,,decisionTrl,resources/DP.BMP,resources/DY.BMP,WildCard_NonEx,-0.193518519,-0.05,1,0,0,0.8472,optionLeft,55,4745,2,43,0,43,0,1,,,,,,,,,,,,,,,,,,,,,,,,,,,,,,,,,,,,,,,
,,,,,,,,2023-08-16_08h43.42.603,HF_wild_card,2022.2.4,Win32,59.43889681,64087b8444f656e9e2b74446,64d2fd46c836a06233681665,64dc7dd51e71c1d50c779db3,,,,,,,,,,,,,,,,,,,,,,,,,,1,0,1,0,1,,,,,,,,,,,,,,,,,,,,,,,,,,,,,,,,,,
,,,,,,,,2023-08-16_08h43.42.603,HF_wild_card,2022.2.4,Win32,59.43889681,64087b8444f656e9e2b74446,64d2fd46c836a06233681665,64dc7dd51e71c1d50c779db3,,,,,,,ctch,resources/DB.BMP,resources/DR.BMP,Door3,0.333333333,-0.036111111,1,0,0,2.3069,optionRight,70,4815,3,0,0,0,0,1,,,,,,,,,,,,,,,,,,,,,,,,,,,,,,,,,,,,,,,
,,,,,,,,2023-08-16_08h43.42.603,HF_wild_card,2022.2.4,Win32,59.43889681,64087b8444f656e9e2b74446,64d2fd46c836a06233681665,64dc7dd51e71c1d50c779db3,,,,,,,ctch,resources/DG.BMP,resources/DY.BMP,Door4,-0.19537037,-0.063888889,1,0,0,1.081,optionLeft,60,4875,3,1,0,1,0,1,,,,,,,,,,,,,,,,,,,,,,,,,,,,,,,,,,,,,,,
,,,,,,,,2023-08-16_08h43.42.603,HF_wild_card,2022.2.4,Win32,59.43889681,64087b8444f656e9e2b74446,64d2fd46c836a06233681665,64dc7dd51e71c1d50c779db3,,,,,,,decisionTrl,resources/DP.BMP,resources/DB.BMP,WildCard_NonEx,-0.184259259,-0.101851852,1,0,0,0.8471,optionLeft,55,4930,3,2,0,2,0,1,,,,,,,,,,,,,,,,,,,,,,,,,,,,,,,,,,,,,,,
,,,,,,,,2023-08-16_08h43.42.603,HF_wild_card,2022.2.4,Win32,59.43889681,64087b8444f656e9e2b74446,64d2fd46c836a06233681665,64dc7dd51e71c1d50c779db3,,,,,,,decisionTrl,resources/DB.BMP,resources/DY.BMP,Door2,-0.203703704,-0.021296296,1,0,0,1.2142,optionLeft,20,4950,3,3,0,3,0,1,,,,,,,,,,,,,,,,,,,,,,,,,,,,,,,,,,,,,,,
,,,,,,,,2023-08-16_08h43.42.603,HF_wild_card,2022.2.4,Win32,59.43889681,64087b8444f656e9e2b74446,64d2fd46c836a06233681665,64dc7dd51e71c1d50c779db3,,,,,,,decisionTrl,resources/DR.BMP,resources/DG.BMP,Door3,-0.202777778,-0.040740741,1,0,0,1.1804,optionLeft,70,5020,3,4,0,4,0,1,,,,,,,,,,,,,,,,,,,,,,,,,,,,,,,,,,,,,,,
,,,,,,,,2023-08-16_08h43.42.603,HF_wild_card,2022.2.4,Win32,59.43889681,64087b8444f656e9e2b74446,64d2fd46c836a06233681665,64dc7dd51e71c1d50c779db3,,,,,,,ctch,resources/DG.BMP,resources/DY.BMP,Door4,-0.173148148,-0.060185185,1,0,0,0.7309,optionLeft,80,5100,3,5,0,5,0,1,,,,,,,,,,,,,,,,,,,,,,,,,,,,,,,,,,,,,,,
,,,,,,,,2023-08-16_08h43.42.603,HF_wild_card,2022.2.4,Win32,59.43889681,64087b8444f656e9e2b74446,64d2fd46c836a06233681665,64dc7dd51e71c1d50c779db3,,,,,,,decisionTrl,resources/DG.BMP,resources/DR.BMP,Door3,0.234259259,0.018518519,1,0,0,1.1471,optionRight,70,5170,3,6,0,6,0,1,,,,,,,,,,,,,,,,,,,,,,,,,,,,,,,,,,,,,,,
,,,,,,,,2023-08-16_08h43.42.603,HF_wild_card,2022.2.4,Win32,59.43889681,64087b8444f656e9e2b74446,64d2fd46c836a06233681665,64dc7dd51e71c1d50c779db3,,,,,,,decisionTrl,resources/DG.BMP,resources/DR.BMP,Door3,0.262037037,0.006481481,1,0,0,0.9809,optionRight,70,5240,3,7,0,7,0,1,,,,,,,,,,,,,,,,,,,,,,,,,,,,,,,,,,,,,,,
,,,,,,,,2023-08-16_08h43.42.603,HF_wild_card,2022.2.4,Win32,59.43889681,64087b8444f656e9e2b74446,64d2fd46c836a06233681665,64dc7dd51e71c1d50c779db3,,,,,,,sngl,resources/Empty.png,resources/DP.BMP,WildCard_NonEx,0.248148148,0,1,0,0,0.6641,optionRight,45,5285,3,8,0,8,0,1,,,,,,,,,,,,,,,,,,,,,,,,,,,,,,,,,,,,,,,
,,,,,,,,2023-08-16_08h43.42.603,HF_wild_card,2022.2.4,Win32,59.43889681,64087b8444f656e9e2b74446,64d2fd46c836a06233681665,64dc7dd51e71c1d50c779db3,,,,,,,decisionTrl,resources/DG.BMP,resources/DP.BMP,Door4,-0.193518519,-0.072222222,1,0,0,0.9475,optionLeft,80,5365,3,9,0,9,0,1,,,,,,,,,,,,,,,,,,,,,,,,,,,,,,,,,,,,,,,
,,,,,,,,2023-08-16_08h43.42.603,HF_wild_card,2022.2.4,Win32,59.43889681,64087b8444f656e9e2b74446,64d2fd46c836a06233681665,64dc7dd51e71c1d50c779db3,,,,,,,decisionTrl,resources/DP.BMP,resources/DY.BMP,WildCard_NonEx,-0.168518519,-0.025925926,1,0,0,1.2143,optionLeft,55,5420,3,10,0,10,0,1,,,,,,,,,,,,,,,,,,,,,,,,,,,,,,,,,,,,,,,
,,,,,,,,2023-08-16_08h43.42.603,HF_wild_card,2022.2.4,Win32,59.43889681,64087b8444f656e9e2b74446,64d2fd46c836a06233681665,64dc7dd51e71c1d50c779db3,,,,,,,sngl,resources/DB.BMP,resources/Empty.png,Door2,-0.164814815,-0.031481481,1,0,0,0.6803,optionLeft,40,5460,3,11,0,11,0,1,,,,,,,,,,,,,,,,,,,,,,,,,,,,,,,,,,,,,,,
,,,,,,,,2023-08-16_08h43.42.603,HF_wild_card,2022.2.4,Win32,59.43889681,64087b8444f656e9e2b74446,64d2fd46c836a06233681665,64dc7dd51e71c1d50c779db3,,,,,,,decisionTrl,resources/DP.BMP,resources/DG.BMP,Door4,0.209259259,0.027777778,1,0,0,0.6637,optionRight,80,5540,3,12,0,12,0,1,,,,,,,,,,,,,,,,,,,,,,,,,,,,,,,,,,,,,,,
,,,,,,,,2023-08-16_08h43.42.603,HF_wild_card,2022.2.4,Win32,59.43889681,64087b8444f656e9e2b74446,64d2fd46c836a06233681665,64dc7dd51e71c1d50c779db3,,,,,,,decisionTrl,resources/DB.BMP,resources/DY.BMP,Door2,-0.166666667,-0.051851852,1,0,0,1.0472,optionLeft,40,5580,3,13,0,13,0,1,,,,,,,,,,,,,,,,,,,,,,,,,,,,,,,,,,,,,,,
,,,,,,,,2023-08-16_08h43.42.603,HF_wild_card,2022.2.4,Win32,59.43889681,64087b8444f656e9e2b74446,64d2fd46c836a06233681665,64dc7dd51e71c1d50c779db3,,,,,,,ctch,resources/DY.BMP,resources/DG.BMP,Door4,0.24537037,0.018518519,1,0,0,0.7469,optionRight,80,5660,3,14,0,14,0,1,,,,,,,,,,,,,,,,,,,,,,,,,,,,,,,,,,,,,,,
,,,,,,,,2023-08-16_08h43.42.603,HF_wild_card,2022.2.4,Win32,59.43889681,64087b8444f656e9e2b74446,64d2fd46c836a06233681665,64dc7dd51e71c1d50c779db3,,,,,,,sngl,resources/Empty.png,resources/DY.BMP,Door1,0.209259259,0.031481481,1,0,0,0.5806,optionRight,30,5690,3,15,0,15,0,1,,,,,,,,,,,,,,,,,,,,,,,,,,,,,,,,,,,,,,,
,,,,,,,,2023-08-16_08h43.42.603,HF_wild_card,2022.2.4,Win32,59.43889681,64087b8444f656e9e2b74446,64d2fd46c836a06233681665,64dc7dd51e71c1d50c779db3,,,,,,,decisionTrl,resources/DP.BMP,resources/DR.BMP,Door3,0.211111111,0.021296296,1,0,0,0.9134,optionRight,70,5760,3,16,0,16,0,1,,,,,,,,,,,,,,,,,,,,,,,,,,,,,,,,,,,,,,,
,,,,,,,,2023-08-16_08h43.42.603,HF_wild_card,2022.2.4,Win32,59.43889681,64087b8444f656e9e2b74446,64d2fd46c836a06233681665,64dc7dd51e71c1d50c779db3,,,,,,,decisionTrl,resources/DY.BMP,resources/DB.BMP,Door2,0.208333333,-0.006481481,1,0,0,0.9977,optionRight,40,5800,3,17,0,17,0,1,,,,,,,,,,,,,,,,,,,,,,,,,,,,,,,,,,,,,,,
,,,,,,,,2023-08-16_08h43.42.603,HF_wild_card,2022.2.4,Win32,59.43889681,64087b8444f656e9e2b74446,64d2fd46c836a06233681665,64dc7dd51e71c1d50c779db3,,,,,,,ctch,resources/DY.BMP,resources/DG.BMP,Door4,0.237037037,0.039814815,1,0,0,0.6307,optionRight,80,5880,3,18,0,18,0,1,,,,,,,,,,,,,,,,,,,,,,,,,,,,,,,,,,,,,,,
,,,,,,,,2023-08-16_08h43.42.603,HF_wild_card,2022.2.4,Win32,59.43889681,64087b8444f656e9e2b74446,64d2fd46c836a06233681665,64dc7dd51e71c1d50c779db3,,,,,,,sngl,resources/DY.BMP,resources/Empty.png,Door1,-0.136111111,-0.025925926,1,0,0,0.5961,optionLeft,30,5910,3,19,0,19,0,1,,,,,,,,,,,,,,,,,,,,,,,,,,,,,,,,,,,,,,,
,,,,,,,,2023-08-16_08h43.42.603,HF_wild_card,2022.2.4,Win32,59.43889681,64087b8444f656e9e2b74446,64d2fd46c836a06233681665,64dc7dd51e71c1d50c779db3,,,,,,,decisionTrl,resources/DY.BMP,resources/DB.BMP,Door2,0.200925926,-0.009259259,1,0,0,0.9628,optionRight,20,5930,3,20,0,20,0,1,,,,,,,,,,,,,,,,,,,,,,,,,,,,,,,,,,,,,,,
,,,,,,,,2023-08-16_08h43.42.603,HF_wild_card,2022.2.4,Win32,59.43889681,64087b8444f656e9e2b74446,64d2fd46c836a06233681665,64dc7dd51e71c1d50c779db3,,,,,,,sngl,resources/Empty.png,resources/DR.BMP,Door3,0.188888889,0.028703704,1,0,0,0.5804,optionRight,70,6000,3,21,0,21,0,1,,,,,,,,,,,,,,,,,,,,,,,,,,,,,,,,,,,,,,,
,,,,,,,,2023-08-16_08h43.42.603,HF_wild_card,2022.2.4,Win32,59.43889681,64087b8444f656e9e2b74446,64d2fd46c836a06233681665,64dc7dd51e71c1d50c779db3,,,,,,,sngl,resources/DG.BMP,resources/Empty.png,Door4,-0.152777778,-0.030555556,1,0,0,0.5978,optionLeft,80,6080,3,22,0,22,0,1,,,,,,,,,,,,,,,,,,,,,,,,,,,,,,,,,,,,,,,
,,,,,,,,2023-08-16_08h43.42.603,HF_wild_card,2022.2.4,Win32,59.43889681,64087b8444f656e9e2b74446,64d2fd46c836a06233681665,64dc7dd51e71c1d50c779db3,,,,,,,ctch,resources/DR.BMP,resources/DB.BMP,Door3,-0.146296296,-0.060185185,1,0,0,1.1472,optionLeft,70,6150,3,23,0,23,0,1,,,,,,,,,,,,,,,,,,,,,,,,,,,,,,,,,,,,,,,
,,,,,,,,2023-08-16_08h43.42.603,HF_wild_card,2022.2.4,Win32,59.43889681,64087b8444f656e9e2b74446,64d2fd46c836a06233681665,64dc7dd51e71c1d50c779db3,,,,,,,sngl,resources/DP.BMP,resources/Empty.png,WildCard_NonEx,-0.152777778,-0.049074074,1,0,0,0.7138,optionLeft,55,6205,3,24,0,24,0,1,,,,,,,,,,,,,,,,,,,,,,,,,,,,,,,,,,,,,,,
,,,,,,,,2023-08-16_08h43.42.603,HF_wild_card,2022.2.4,Win32,59.43889681,64087b8444f656e9e2b74446,64d2fd46c836a06233681665,64dc7dd51e71c1d50c779db3,,,,,,,decisionTrl,resources/DR.BMP,resources/DG.BMP,Door3,-0.139814815,-0.017592593,1,0,0,1.2305,optionLeft,70,6275,3,25,0,25,0,1,,,,,,,,,,,,,,,,,,,,,,,,,,,,,,,,,,,,,,,
,,,,,,,,2023-08-16_08h43.42.603,HF_wild_card,2022.2.4,Win32,59.43889681,64087b8444f656e9e2b74446,64d2fd46c836a06233681665,64dc7dd51e71c1d50c779db3,,,,,,,sngl,resources/DP.BMP,resources/Empty.png,WildCard_NonEx,-0.169444444,-0.056481481,1,0,0,0.6811,optionLeft,45,6320,3,26,0,26,0,1,,,,,,,,,,,,,,,,,,,,,,,,,,,,,,,,,,,,,,,
,,,,,,,,2023-08-16_08h43.42.603,HF_wild_card,2022.2.4,Win32,59.43889681,64087b8444f656e9e2b74446,64d2fd46c836a06233681665,64dc7dd51e71c1d50c779db3,,,,,,,decisionTrl,resources/DY.BMP,resources/DP.BMP,Door1,-0.166666667,-0.061111111,1,0,0,1.5476,optionLeft,30,6350,3,27,0,27,0,1,,,,,,,,,,,,,,,,,,,,,,,,,,,,,,,,,,,,,,,
,,,,,,,,2023-08-16_08h43.42.603,HF_wild_card,2022.2.4,Win32,59.43889681,64087b8444f656e9e2b74446,64d2fd46c836a06233681665,64dc7dd51e71c1d50c779db3,,,,,,,sngl,resources/Empty.png,resources/DG.BMP,Door4,0.19537037,0.022222222,1,0,0,0.6305,optionRight,60,6410,3,28,0,28,0,1,,,,,,,,,,,,,,,,,,,,,,,,,,,,,,,,,,,,,,,
,,,,,,,,2023-08-16_08h43.42.603,HF_wild_card,2022.2.4,Win32,59.43889681,64087b8444f656e9e2b74446,64d2fd46c836a06233681665,64dc7dd51e71c1d50c779db3,,,,,,,decisionTrl,resources/DB.BMP,resources/DP.BMP,WildCard_NonEx,0.191666667,-0.007407407,1,0,0,0.6488,optionRight,45,6455,3,29,0,29,0,1,,,,,,,,,,,,,,,,,,,,,,,,,,,,,,,,,,,,,,,
,,,,,,,,2023-08-16_08h43.42.603,HF_wild_card,2022.2.4,Win32,59.43889681,64087b8444f656e9e2b74446,64d2fd46c836a06233681665,64dc7dd51e71c1d50c779db3,,,,,,,sngl,resources/DR.BMP,resources/Empty.png,Door3,-0.167592593,-0.037962963,1,0,0,0.6309,optionLeft,70,6525,3,30,0,30,0,1,,,,,,,,,,,,,,,,,,,,,,,,,,,,,,,,,,,,,,,
,,,,,,,,2023-08-16_08h43.42.603,HF_wild_card,2022.2.4,Win32,59.43889681,64087b8444f656e9e2b74446,64d2fd46c836a06233681665,64dc7dd51e71c1d50c779db3,,,,,,,decisionTrl,resources/DG.BMP,resources/DR.BMP,Door3,0.171296296,0.000925926,1,0,0,1.7474,optionRight,70,6595,3,31,0,31,0,1,,,,,,,,,,,,,,,,,,,,,,,,,,,,,,,,,,,,,,,
,,,,,,,,2023-08-16_08h43.42.603,HF_wild_card,2022.2.4,Win32,59.43889681,64087b8444f656e9e2b74446,64d2fd46c836a06233681665,64dc7dd51e71c1d50c779db3,,,,,,,sngl,resources/Empty.png,resources/DP.BMP,WildCard_NonEx,0.196296296,-0.018518519,1,0,0,0.7641,optionRight,55,6650,3,32,0,32,0,1,,,,,,,,,,,,,,,,,,,,,,,,,,,,,,,,,,,,,,,
,,,,,,,,2023-08-16_08h43.42.603,HF_wild_card,2022.2.4,Win32,59.43889681,64087b8444f656e9e2b74446,64d2fd46c836a06233681665,64dc7dd51e71c1d50c779db3,,,,,,,decisionTrl,resources/DB.BMP,resources/DY.BMP,Door1,0.190740741,0.02962963,1,0,0,1.8305,optionRight,30,6680,3,33,0,33,0,1,,,,,,,,,,,,,,,,,,,,,,,,,,,,,,,,,,,,,,,
,,,,,,,,2023-08-16_08h43.42.603,HF_wild_card,2022.2.4,Win32,59.43889681,64087b8444f656e9e2b74446,64d2fd46c836a06233681665,64dc7dd51e71c1d50c779db3,,,,,,,decisionTrl,resources/DG.BMP,resources/DR.BMP,Door3,0.190740741,-0.02962963,1,0,0,1.3807,optionRight,70,6750,3,34,0,34,0,1,,,,,,,,,,,,,,,,,,,,,,,,,,,,,,,,,,,,,,,
,,,,,,,,2023-08-16_08h43.42.603,HF_wild_card,2022.2.4,Win32,59.43889681,64087b8444f656e9e2b74446,64d2fd46c836a06233681665,64dc7dd51e71c1d50c779db3,,,,,,,decisionTrl,resources/DB.BMP,resources/DY.BMP,Door1,0.240740741,-0.001851852,1,0,0,1.2305,optionRight,30,6780,3,35,0,35,0,1,,,,,,,,,,,,,,,,,,,,,,,,,,,,,,,,,,,,,,,
,,,,,,,,2023-08-16_08h43.42.603,HF_wild_card,2022.2.4,Win32,59.43889681,64087b8444f656e9e2b74446,64d2fd46c836a06233681665,64dc7dd51e71c1d50c779db3,,,,,,,decisionTrl,resources/DR.BMP,resources/DG.BMP,Door3,-0.148148148,-0.02962963,1,0,0,1.1804,optionLeft,70,6850,3,36,0,36,0,1,,,,,,,,,,,,,,,,,,,,,,,,,,,,,,,,,,,,,,,
,,,,,,,,2023-08-16_08h43.42.603,HF_wild_card,2022.2.4,Win32,59.43889681,64087b8444f656e9e2b74446,64d2fd46c836a06233681665,64dc7dd51e71c1d50c779db3,,,,,,,ctch,resources/DB.BMP,resources/DR.BMP,Door3,0.218518519,-0.037037037,1,0,0,1.1471,optionRight,70,6920,3,37,0,37,0,1,,,,,,,,,,,,,,,,,,,,,,,,,,,,,,,,,,,,,,,
,,,,,,,,2023-08-16_08h43.42.603,HF_wild_card,2022.2.4,Win32,59.43889681,64087b8444f656e9e2b74446,64d2fd46c836a06233681665,64dc7dd51e71c1d50c779db3,,,,,,,decisionTrl,resources/DR.BMP,resources/DG.BMP,Door3,-0.185185185,-0.036111111,1,0,0,1.1809,optionLeft,70,6990,3,38,0,38,0,1,,,,,,,,,,,,,,,,,,,,,,,,,,,,,,,,,,,,,,,
,,,,,,,,2023-08-16_08h43.42.603,HF_wild_card,2022.2.4,Win32,59.43889681,64087b8444f656e9e2b74446,64d2fd46c836a06233681665,64dc7dd51e71c1d50c779db3,,,,,,,decisionTrl,resources/DY.BMP,resources/DB.BMP,Door1,-0.175,-0.053703704,1,0,0,1.397,optionLeft,30,7020,3,39,0,39,0,1,,,,,,,,,,,,,,,,,,,,,,,,,,,,,,,,,,,,,,,
,,,,,,,,2023-08-16_08h43.42.603,HF_wild_card,2022.2.4,Win32,59.43889681,64087b8444f656e9e2b74446,64d2fd46c836a06233681665,64dc7dd51e71c1d50c779db3,,,,,,,ctch,resources/DR.BMP,resources/DB.BMP,Door3,-0.17037037,-0.076851852,1,0,0,0.9969,optionLeft,70,7090,3,40,0,40,0,1,,,,,,,,,,,,,,,,,,,,,,,,,,,,,,,,,,,,,,,
,,,,,,,,2023-08-16_08h43.42.603,HF_wild_card,2022.2.4,Win32,59.43889681,64087b8444f656e9e2b74446,64d2fd46c836a06233681665,64dc7dd51e71c1d50c779db3,,,,,,,decisionTrl,resources/DR.BMP,resources/DP.BMP,Door3,-0.177777778,-0.037962963,1,0,0,2.3305,optionLeft,70,7160,3,41,0,41,0,1,,,,,,,,,,,,,,,,,,,,,,,,,,,,,,,,,,,,,,,
,,,,,,,,2023-08-16_08h43.42.603,HF_wild_card,2022.2.4,Win32,59.43889681,64087b8444f656e9e2b74446,64d2fd46c836a06233681665,64dc7dd51e71c1d50c779db3,,,,,,,sngl,resources/Empty.png,resources/DB.BMP,Door2,0.198148148,0.018518519,1,0,0,0.5965,optionRight,20,7180,3,42,0,42,0,1,,,,,,,,,,,,,,,,,,,,,,,,,,,,,,,,,,,,,,,
,,,,,,,,2023-08-16_08h43.42.603,HF_wild_card,2022.2.4,Win32,59.43889681,64087b8444f656e9e2b74446,64d2fd46c836a06233681665,64dc7dd51e71c1d50c779db3,,,,,,,decisionTrl,resources/DY.BMP,resources/DB.BMP,Door1,-0.194444444,-0.057407407,1,0,0,1.4141,optionLeft,30,7210,3,43,0,43,0,1,,,,,,,,,,,,,,,,,,,,,,,,,,,,,,,,,,,,,,,
,,,,,,,,2023-08-16_08h43.42.603,HF_wild_card,2022.2.4,Win32,59.43889681,64087b8444f656e9e2b74446,64d2fd46c836a06233681665,64dc7dd51e71c1d50c779db3,,,,,,,,,,,,,,,,,,,,,,,,,,2,0,2,0,1,,,,,,,,,,,,,,,,,,,,,,,,,,,,,,,,,,
,,,,,,,,2023-08-16_08h43.42.603,HF_wild_card,2022.2.4,Win32,59.43889681,64087b8444f656e9e2b74446,64d2fd46c836a06233681665,64dc7dd51e71c1d50c779db3,,,,,,,ctch,resources/DB.BMP,resources/DR.BMP,Door3,0.260185185,-0.041666667,1,0,0,2.2736,optionRight,70,7280,4,0,0,0,0,1,,,,,,,,,,,,,,,,,,,,,,,,,,,,,,,,,,,,,,,
,,,,,,,,2023-08-16_08h43.42.603,HF_wild_card,2022.2.4,Win32,59.43889681,64087b8444f656e9e2b74446,64d2fd46c836a06233681665,64dc7dd51e71c1d50c779db3,,,,,,,ctch,resources/DY.BMP,resources/DG.BMP,Door4,0.223148148,-0.05462963,1,0,0,1.43,optionRight,60,7340,4,1,0,1,0,1,,,,,,,,,,,,,,,,,,,,,,,,,,,,,,,,,,,,,,,
,,,,,,,,2023-08-16_08h43.42.603,HF_wild_card,2022.2.4,Win32,59.43889681,64087b8444f656e9e2b74446,64d2fd46c836a06233681665,64dc7dd51e71c1d50c779db3,,,,,,,sngl,resources/Empty.png,resources/DBN.BMP,WildCard_Ex,0.367592593,0.035185185,1,0,0,3.1605,optionRight,55,7395,4,2,0,2,0,1,,,,,,,,,,,,,,,,,,,,,,,,,,,,,,,,,,,,,,,
,,,,,,,,2023-08-16_08h43.42.603,HF_wild_card,2022.2.4,Win32,59.43889681,64087b8444f656e9e2b74446,64d2fd46c836a06233681665,64dc7dd51e71c1d50c779db3,,,,,,,sngl,resources/DY.BMP,resources/Empty.png,Door1,-0.166666667,-0.10462963,1,0,0,0.9465,optionLeft,30,7425,4,3,0,3,0,1,,,,,,,,,,,,,,,,,,,,,,,,,,,,,,,,,,,,,,,
,,,,,,,,2023-08-16_08h43.42.603,HF_wild_card,2022.2.4,Win32,59.43889681,64087b8444f656e9e2b74446,64d2fd46c836a06233681665,64dc7dd51e71c1d50c779db3,,,,,,,sngl,resources/Empty.png,resources/DG.BMP,Door4,0.351851852,-0.033333333,1,0,0,1.1643,optionRight,80,7505,4,4,0,4,0,1,,,,,,,,,,,,,,,,,,,,,,,,,,,,,,,,,,,,,,,
,,,,,,,,2023-08-16_08h43.42.603,HF_wild_card,2022.2.4,Win32,59.43889681,64087b8444f656e9e2b74446,64d2fd46c836a06233681665,64dc7dd51e71c1d50c779db3,,,,,,,decisionTrl,resources/DY.BMP,resources/DB.BMP,Door1,-0.165740741,-0.097222222,1,0,0,1.6301,optionLeft,30,7535,4,5,0,5,0,1,,,,,,,,,,,,,,,,,,,,,,,,,,,,,,,,,,,,,,,
,,,,,,,,2023-08-16_08h43.42.603,HF_wild_card,2022.2.4,Win32,59.43889681,64087b8444f656e9e2b74446,64d2fd46c836a06233681665,64dc7dd51e71c1d50c779db3,,,,,,,sngl,resources/Empty.png,resources/DBN.BMP,WildCard_Ex,0.344444444,0.013888889,1,0,0,1.3141,optionRight,45,7580,4,6,0,6,0,1,,,,,,,,,,,,,,,,,,,,,,,,,,,,,,,,,,,,,,,
,,,,,,,,2023-08-16_08h43.42.603,HF_wild_card,2022.2.4,Win32,59.43889681,64087b8444f656e9e2b74446,64d2fd46c836a06233681665,64dc7dd51e71c1d50c779db3,,,,,,,ctch,resources/DG.BMP,resources/DY.BMP,Door4,-0.174074074,-0.101851852,1,0,0,1.8645,optionLeft,60,7640,4,7,0,7,0,1,,,,,,,,,,,,,,,,,,,,,,,,,,,,,,,,,,,,,,,
,,,,,,,,2023-08-16_08h43.42.603,HF_wild_card,2022.2.4,Win32,59.43889681,64087b8444f656e9e2b74446,64d2fd46c836a06233681665,64dc7dd51e71c1d50c779db3,,,,,,,sngl,resources/Empty.png,resources/DY.BMP,Door1,0.236111111,-0.012962963,1,0,0,0.5964,optionRight,30,7670,4,8,0,8,0,1,,,,,,,,,,,,,,,,,,,,,,,,,,,,,,,,,,,,,,,
,,,,,,,,2023-08-16_08h43.42.603,HF_wild_card,2022.2.4,Win32,59.43889681,64087b8444f656e9e2b74446,64d2fd46c836a06233681665,64dc7dd51e71c1d50c779db3,,,,,,,decisionTrl,resources/DG.BMP,resources/DR.BMP,Door3,0.22037037,0.007407407,1,0,0,1.2131,optionRight,70,7740,4,9,0,9,0,1,,,,,,,,,,,,,,,,,,,,,,,,,,,,,,,,,,,,,,,
,,,,,,,,2023-08-16_08h43.42.603,HF_wild_card,2022.2.4,Win32,59.43889681,64087b8444f656e9e2b74446,64d2fd46c836a06233681665,64dc7dd51e71c1d50c779db3,,,,,,,sngl,resources/DG.BMP,resources/Empty.png,Door4,-0.164814815,-0.067592593,1,0,0,0.7635,optionLeft,60,7800,4,10,0,10,0,1,,,,,,,,,,,,,,,,,,,,,,,,,,,,,,,,,,,,,,,
,,,,,,,,2023-08-16_08h43.42.603,HF_wild_card,2022.2.4,Win32,59.43889681,64087b8444f656e9e2b74446,64d2fd46c836a06233681665,64dc7dd51e71c1d50c779db3,,,,,,,ctch,resources/DG.BMP,resources/DY.BMP,Door4,-0.173148148,-0.088888889,1,0,0,1.0808,optionLeft,80,7880,4,11,0,11,0,1,,,,,,,,,,,,,,,,,,,,,,,,,,,,,,,,,,,,,,,
,,,,,,,,2023-08-16_08h43.42.603,HF_wild_card,2022.2.4,Win32,59.43889681,64087b8444f656e9e2b74446,64d2fd46c836a06233681665,64dc7dd51e71c1d50c779db3,,,,,,,decisionTrl,resources/DB.BMP,resources/DY.BMP,Door1,0.191666667,0.010185185,1,0,0,1.5632,optionRight,30,7910,4,12,0,12,0,1,,,,,,,,,,,,,,,,,,,,,,,,,,,,,,,,,,,,,,,
,,,,,,,,2023-08-16_08h43.42.603,HF_wild_card,2022.2.4,Win32,59.43889681,64087b8444f656e9e2b74446,64d2fd46c836a06233681665,64dc7dd51e71c1d50c779db3,,,,,,,decisionTrl,resources/DR.BMP,resources/DG.BMP,Door3,-0.191666667,-0.082407407,1,0,0,1.2471,optionLeft,70,7980,4,13,0,13,0,1,,,,,,,,,,,,,,,,,,,,,,,,,,,,,,,,,,,,,,,
,,,,,,,,2023-08-16_08h43.42.603,HF_wild_card,2022.2.4,Win32,59.43889681,64087b8444f656e9e2b74446,64d2fd46c836a06233681665,64dc7dd51e71c1d50c779db3,,,,,,,decisionTrl,resources/DR.BMP,resources/DG.BMP,Door3,-0.166666667,-0.048148148,1,0,0,3.9973,optionLeft,70,8050,4,14,0,14,0,1,,,,,,,,,,,,,,,,,,,,,,,,,,,,,,,,,,,,,,,
,,,,,,,,2023-08-16_08h43.42.603,HF_wild_card,2022.2.4,Win32,59.43889681,64087b8444f656e9e2b74446,64d2fd46c836a06233681665,64dc7dd51e71c1d50c779db3,,,,,,,decisionTrl,resources/DY.BMP,resources/DB.BMP,Door1,-0.19537037,-0.1,1,0,0,1.3806,optionLeft,30,8080,4,15,0,15,0,1,,,,,,,,,,,,,,,,,,,,,,,,,,,,,,,,,,,,,,,
,,,,,,,,2023-08-16_08h43.42.603,HF_wild_card,2022.2.4,Win32,59.43889681,64087b8444f656e9e2b74446,64d2fd46c836a06233681665,64dc7dd51e71c1d50c779db3,,,,,,,decisionTrl,resources/DY.BMP,resources/DB.BMP,Door1,-0.19537037,-0.080555556,1,0,0,0.7974,optionLeft,30,8110,4,16,0,16,0,1,,,,,,,,,,,,,,,,,,,,,,,,,,,,,,,,,,,,,,,
,,,,,,,,2023-08-16_08h43.42.603,HF_wild_card,2022.2.4,Win32,59.43889681,64087b8444f656e9e2b74446,64d2fd46c836a06233681665,64dc7dd51e71c1d50c779db3,,,,,,,ctch,resources/DY.BMP,resources/DG.BMP,Door4,0.251851852,0.018518519,1,0,0,1.0309,optionRight,60,8170,4,17,0,17,0,1,,,,,,,,,,,,,,,,,,,,,,,,,,,,,,,,,,,,,,,
,,,,,,,,2023-08-16_08h43.42.603,HF_wild_card,2022.2.4,Win32,59.43889681,64087b8444f656e9e2b74446,64d2fd46c836a06233681665,64dc7dd51e71c1d50c779db3,,,,,,,sngl,resources/DBN.BMP,resources/Empty.png,WildCard_Ex,-0.2,-0.02037037,1,0,0,1.5318,optionLeft,45,8215,4,18,0,18,0,1,,,,,,,,,,,,,,,,,,,,,,,,,,,,,,,,,,,,,,,
,,,,,,,,2023-08-16_08h43.42.603,HF_wild_card,2022.2.4,Win32,59.43889681,64087b8444f656e9e2b74446,64d2fd46c836a06233681665,64dc7dd51e71c1d50c779db3,,,,,,,decisionTrl,resources/DY.BMP,resources/DBN.BMP,WildCard_Ex,0.328703704,0.02962963,1,0,0,2.6803,optionRight,45,8260,4,19,0,19,0,1,,,,,,,,,,,,,,,,,,,,,,,,,,,,,,,,,,,,,,,
,,,,,,,,2023-08-16_08h43.42.603,HF_wild_card,2022.2.4,Win32,59.43889681,64087b8444f656e9e2b74446,64d2fd46c836a06233681665,64dc7dd51e71c1d50c779db3,,,,,,,decisionTrl,resources/DB.BMP,resources/DY.BMP,Door1,0.25,-0.026851852,1,0,0,3.3683,optionRight,30,8290,4,20,0,20,0,1,,,,,,,,,,,,,,,,,,,,,,,,,,,,,,,,,,,,,,,
,,,,,,,,2023-08-16_08h43.42.603,HF_wild_card,2022.2.4,Win32,59.43889681,64087b8444f656e9e2b74446,64d2fd46c836a06233681665,64dc7dd51e71c1d50c779db3,,,,,,,sngl,resources/DB.BMP,resources/Empty.png,Door2,-0.171296296,-0.043518519,1,0,0,1.8655,optionLeft,20,8310,4,21,0,21,0,1,,,,,,,,,,,,,,,,,,,,,,,,,,,,,,,,,,,,,,,
,,,,,,,,2023-08-16_08h43.42.603,HF_wild_card,2022.2.4,Win32,59.43889681,64087b8444f656e9e2b74446,64d2fd46c836a06233681665,64dc7dd51e71c1d50c779db3,,,,,,,decisionTrl,resources/DG.BMP,resources/DR.BMP,Door3,0.216666667,-0.009259259,1,0,0,1.236,optionRight,70,8380,4,22,0,22,0,1,,,,,,,,,,,,,,,,,,,,,,,,,,,,,,,,,,,,,,,
,,,,,,,,2023-08-16_08h43.42.603,HF_wild_card,2022.2.4,Win32,59.43889681,64087b8444f656e9e2b74446,64d2fd46c836a06233681665,64dc7dd51e71c1d50c779db3,,,,,,,decisionTrl,resources/DG.BMP,resources/DBN.BMP,WildCard_Ex,0.248148148,0.028703704,1,0,0,1.8285,optionRight,55,8435,4,23,0,23,0,1,,,,,,,,,,,,,,,,,,,,,,,,,,,,,,,,,,,,,,,
,,,,,,,,2023-08-16_08h43.42.603,HF_wild_card,2022.2.4,Win32,59.43889681,64087b8444f656e9e2b74446,64d2fd46c836a06233681665,64dc7dd51e71c1d50c779db3,,,,,,,decisionTrl,resources/DR.BMP,resources/DBN.BMP,Door3,-0.203703704,-0.113888889,1,0,0,2.4636,optionLeft,70,8505,4,24,0,24,0,1,,,,,,,,,,,,,,,,,,,,,,,,,,,,,,,,,,,,,,,
,,,,,,,,2023-08-16_08h43.42.603,HF_wild_card,2022.2.4,Win32,59.43889681,64087b8444f656e9e2b74446,64d2fd46c836a06233681665,64dc7dd51e71c1d50c779db3,,,,,,,decisionTrl,resources/DG.BMP,resources/DR.BMP,Door3,0.258333333,0.010185185,1,0,0,1.8802,optionRight,70,8575,4,25,0,25,0,1,,,,,,,,,,,,,,,,,,,,,,,,,,,,,,,,,,,,,,,
,,,,,,,,2023-08-16_08h43.42.603,HF_wild_card,2022.2.4,Win32,59.43889681,64087b8444f656e9e2b74446,64d2fd46c836a06233681665,64dc7dd51e71c1d50c779db3,,,,,,,ctch,resources/DB.BMP,resources/DR.BMP,Door3,0.239814815,-0.017592593,1,0,0,1.0108,optionRight,70,8645,4,26,0,26,0,1,,,,,,,,,,,,,,,,,,,,,,,,,,,,,,,,,,,,,,,
,,,,,,,,2023-08-16_08h43.42.603,HF_wild_card,2022.2.4,Win32,59.43889681,64087b8444f656e9e2b74446,64d2fd46c836a06233681665,64dc7dd51e71c1d50c779db3,,,,,,,decisionTrl,resources/DY.BMP,resources/DB.BMP,Door1,-0.169444444,-0.067592593,1,0,0,1.564,optionLeft,30,8675,4,27,0,27,0,1,,,,,,,,,,,,,,,,,,,,,,,,,,,,,,,,,,,,,,,
,,,,,,,,2023-08-16_08h43.42.603,HF_wild_card,2022.2.4,Win32,59.43889681,64087b8444f656e9e2b74446,64d2fd46c836a06233681665,64dc7dd51e71c1d50c779db3,,,,,,,sngl,resources/DR.BMP,resources/Empty.png,Door3,-0.147222222,-0.077777778,1,0,0,0.7472,optionLeft,70,8745,4,28,0,28,0,1,,,,,,,,,,,,,,,,,,,,,,,,,,,,,,,,,,,,,,,
,,,,,,,,2023-08-16_08h43.42.603,HF_wild_card,2022.2.4,Win32,59.43889681,64087b8444f656e9e2b74446,64d2fd46c836a06233681665,64dc7dd51e71c1d50c779db3,,,,,,,sngl,resources/DBN.BMP,resources/Empty.png,WildCard_Ex,-0.194444444,-0.086111111,1,0,0,1.2643,optionLeft,55,8800,4,29,0,29,0,1,,,,,,,,,,,,,,,,,,,,,,,,,,,,,,,,,,,,,,,
,,,,,,,,2023-08-16_08h43.42.603,HF_wild_card,2022.2.4,Win32,59.43889681,64087b8444f656e9e2b74446,64d2fd46c836a06233681665,64dc7dd51e71c1d50c779db3,,,,,,,sngl,resources/Empty.png,resources/DB.BMP,Door2,0.200925926,-0.00462963,1,0,0,0.847,optionRight,40,8840,4,30,0,30,0,1,,,,,,,,,,,,,,,,,,,,,,,,,,,,,,,,,,,,,,,
,,,,,,,,2023-08-16_08h43.42.603,HF_wild_card,2022.2.4,Win32,59.43889681,64087b8444f656e9e2b74446,64d2fd46c836a06233681665,64dc7dd51e71c1d50c779db3,,,,,,,decisionTrl,resources/DBN.BMP,resources/DY.BMP,WildCard_Ex,-0.186111111,-0.092592593,1,0,0,1.831,optionLeft,45,8885,4,31,0,31,0,1,,,,,,,,,,,,,,,,,,,,,,,,,,,,,,,,,,,,,,,
,,,,,,,,2023-08-16_08h43.42.603,HF_wild_card,2022.2.4,Win32,59.43889681,64087b8444f656e9e2b74446,64d2fd46c836a06233681665,64dc7dd51e71c1d50c779db3,,,,,,,ctch,resources/DR.BMP,resources/DB.BMP,Door3,-0.181481481,-0.094444444,1,0,0,1.1303,optionLeft,70,8955,4,32,0,32,0,1,,,,,,,,,,,,,,,,,,,,,,,,,,,,,,,,,,,,,,,
,,,,,,,,2023-08-16_08h43.42.603,HF_wild_card,2022.2.4,Win32,59.43889681,64087b8444f656e9e2b74446,64d2fd46c836a06233681665,64dc7dd51e71c1d50c779db3,,,,,,,decisionTrl,resources/DR.BMP,resources/DG.BMP,Door3,-0.15,-0.101851852,1,0,0,1.7966,optionLeft,70,9025,4,33,0,33,0,1,,,,,,,,,,,,,,,,,,,,,,,,,,,,,,,,,,,,,,,
,,,,,,,,2023-08-16_08h43.42.603,HF_wild_card,2022.2.4,Win32,59.43889681,64087b8444f656e9e2b74446,64d2fd46c836a06233681665,64dc7dd51e71c1d50c779db3,,,,,,,decisionTrl,resources/DB.BMP,resources/DY.BMP,Door1,0.187037037,0.017592593,1,0,0,1.4305,optionRight,30,9055,4,34,0,34,0,1,,,,,,,,,,,,,,,,,,,,,,,,,,,,,,,,,,,,,,,
,,,,,,,,2023-08-16_08h43.42.603,HF_wild_card,2022.2.4,Win32,59.43889681,64087b8444f656e9e2b74446,64d2fd46c836a06233681665,64dc7dd51e71c1d50c779db3,,,,,,,decisionTrl,resources/DB.BMP,resources/DY.BMP,Door1,0.171296296,0.012037037,1,0,0,1.7972,optionRight,30,9085,4,35,0,35,0,1,,,,,,,,,,,,,,,,,,,,,,,,,,,,,,,,,,,,,,,
,,,,,,,,2023-08-16_08h43.42.603,HF_wild_card,2022.2.4,Win32,59.43889681,64087b8444f656e9e2b74446,64d2fd46c836a06233681665,64dc7dd51e71c1d50c779db3,,,,,,,decisionTrl,resources/DR.BMP,resources/DG.BMP,Door3,-0.185185185,-0.103703704,1,0,0,1.1136,optionLeft,70,9155,4,36,0,36,0,1,,,,,,,,,,,,,,,,,,,,,,,,,,,,,,,,,,,,,,,
,,,,,,,,2023-08-16_08h43.42.603,HF_wild_card,2022.2.4,Win32,59.43889681,64087b8444f656e9e2b74446,64d2fd46c836a06233681665,64dc7dd51e71c1d50c779db3,,,,,,,decisionTrl,resources/DBN.BMP,resources/DG.BMP,Door4,0.237962963,0.026851852,1,0,0,1.9182,optionRight,60,9215,4,37,0,37,0,1,,,,,,,,,,,,,,,,,,,,,,,,,,,,,,,,,,,,,,,
,,,,,,,,2023-08-16_08h43.42.603,HF_wild_card,2022.2.4,Win32,59.43889681,64087b8444f656e9e2b74446,64d2fd46c836a06233681665,64dc7dd51e71c1d50c779db3,,,,,,,decisionTrl,resources/DBN.BMP,resources/DR.BMP,Door3,0.255555556,0.013888889,1,0,0,1.4308,optionRight,70,9285,4,38,0,38,0,1,,,,,,,,,,,,,,,,,,,,,,,,,,,,,,,,,,,,,,,
,,,,,,,,2023-08-16_08h43.42.603,HF_wild_card,2022.2.4,Win32,59.43889681,64087b8444f656e9e2b74446,64d2fd46c836a06233681665,64dc7dd51e71c1d50c779db3,,,,,,,decisionTrl,resources/DBN.BMP,resources/DB.BMP,WildCard_Ex,-0.253703704,-0.090740741,1,0,0,1.3966,optionLeft,55,9340,4,39,0,39,0,1,,,,,,,,,,,,,,,,,,,,,,,,,,,,,,,,,,,,,,,
,,,,,,,,2023-08-16_08h43.42.603,HF_wild_card,2022.2.4,Win32,59.43889681,64087b8444f656e9e2b74446,64d2fd46c836a06233681665,64dc7dd51e71c1d50c779db3,,,,,,,decisionTrl,resources/DG.BMP,resources/DR.BMP,Door3,0.218518519,-0.001851852,1,0,0,1.1356,optionRight,70,9410,4,40,0,40,0,1,,,,,,,,,,,,,,,,,,,,,,,,,,,,,,,,,,,,,,,
,,,,,,,,2023-08-16_08h43.42.603,HF_wild_card,2022.2.4,Win32,59.43889681,64087b8444f656e9e2b74446,64d2fd46c836a06233681665,64dc7dd51e71c1d50c779db3,,,,,,,ctch,resources/DR.BMP,resources/DB.BMP,Door3,-0.186111111,-0.101851852,1,0,0,1.1525,optionLeft,70,9480,4,41,0,41,0,1,,,,,,,,,,,,,,,,,,,,,,,,,,,,,,,,,,,,,,,
,,,,,,,,2023-08-16_08h43.42.603,HF_wild_card,2022.2.4,Win32,59.43889681,64087b8444f656e9e2b74446,64d2fd46c836a06233681665,64dc7dd51e71c1d50c779db3,,,,,,,decisionTrl,resources/DB.BMP,resources/DBN.BMP,WildCard_Ex,0.215740741,-0.003703704,1,0,0,2.0186,optionRight,55,9535,4,42,0,42,0,1,,,,,,,,,,,,,,,,,,,,,,,,,,,,,,,,,,,,,,,
,,,,,,,,2023-08-16_08h43.42.603,HF_wild_card,2022.2.4,Win32,59.43889681,64087b8444f656e9e2b74446,64d2fd46c836a06233681665,64dc7dd51e71c1d50c779db3,,,,,,,sngl,resources/Empty.png,resources/DR.BMP,Door3,0.218518519,0.00462963,1,0,0,0.7479,optionRight,70,9605,4,43,0,43,0,1,,,,,,,,,,,,,,,,,,,,,,,,,,,,,,,,,,,,,,,
,,,,,,,,2023-08-16_08h43.42.603,HF_wild_card,2022.2.4,Win32,59.43889681,64087b8444f656e9e2b74446,64d2fd46c836a06233681665,64dc7dd51e71c1d50c779db3,,,,,,,,,,,,,,,,,,,,,,,,,,3,0,3,0,1,,,,,,,,,,,,,,,,,,,,,,,,,,,,,,,,,,
,,,,,,,,2023-08-16_08h43.42.603,HF_wild_card,2022.2.4,Win32,59.43889681,64087b8444f656e9e2b74446,64d2fd46c836a06233681665,64dc7dd51e71c1d50c779db3,,,,,,,sngl,resources/Empty.png,resources/DBN.BMP,WildCard_Ex,0.419444444,0.05462963,1,0,0,1.4082,optionRight,55,9660,5,0,0,0,0,1,,,,,,,,,,,,,,,,,,,,,,,,,,,,,,,,,,,,,,,
,,,,,,,,2023-08-16_08h43.42.603,HF_wild_card,2022.2.4,Win32,59.43889681,64087b8444f656e9e2b74446,64d2fd46c836a06233681665,64dc7dd51e71c1d50c779db3,,,,,,,decisionTrl,resources/DG.BMP,resources/DR.BMP,Door3,0.198148148,0.083333333,1,0,0,1.3305,optionRight,70,9730,5,1,0,1,0,1,,,,,,,,,,,,,,,,,,,,,,,,,,,,,,,,,,,,,,,
,,,,,,,,2023-08-16_08h43.42.603,HF_wild_card,2022.2.4,Win32,59.43889681,64087b8444f656e9e2b74446,64d2fd46c836a06233681665,64dc7dd51e71c1d50c779db3,,,,,,,decisionTrl,resources/DG.BMP,resources/DR.BMP,Door3,0.24537037,-0.008333333,1,0,0,1.4474,optionRight,70,9800,5,2,0,2,0,1,,,,,,,,,,,,,,,,,,,,,,,,,,,,,,,,,,,,,,,
,,,,,,,,2023-08-16_08h43.42.603,HF_wild_card,2022.2.4,Win32,59.43889681,64087b8444f656e9e2b74446,64d2fd46c836a06233681665,64dc7dd51e71c1d50c779db3,,,,,,,decisionTrl,resources/DB.BMP,resources/DY.BMP,Door1,0.273148148,-0.012962963,1,0,0,1.2971,optionRight,30,9830,5,3,0,3,0,1,,,,,,,,,,,,,,,,,,,,,,,,,,,,,,,,,,,,,,,
,,,,,,,,2023-08-16_08h43.42.603,HF_wild_card,2022.2.4,Win32,59.43889681,64087b8444f656e9e2b74446,64d2fd46c836a06233681665,64dc7dd51e71c1d50c779db3,,,,,,,decisionTrl,resources/DY.BMP,resources/DB.BMP,Door1,-0.19537037,-0.1,1,0,0,1.2808,optionLeft,30,9860,5,4,0,4,0,1,,,,,,,,,,,,,,,,,,,,,,,,,,,,,,,,,,,,,,,
,,,,,,,,2023-08-16_08h43.42.603,HF_wild_card,2022.2.4,Win32,59.43889681,64087b8444f656e9e2b74446,64d2fd46c836a06233681665,64dc7dd51e71c1d50c779db3,,,,,,,decisionTrl,resources/DB.BMP,resources/DY.BMP,Door1,0.308333333,-0.012962963,1,0,0,1.4967,optionRight,30,9890,5,5,0,5,0,1,,,,,,,,,,,,,,,,,,,,,,,,,,,,,,,,,,,,,,,
,,,,,,,,2023-08-16_08h43.42.603,HF_wild_card,2022.2.4,Win32,59.43889681,64087b8444f656e9e2b74446,64d2fd46c836a06233681665,64dc7dd51e71c1d50c779db3,,,,,,,ctch,resources/DG.BMP,resources/DY.BMP,Door4,-0.19537037,-0.056481481,1,0,0,1.2641,optionLeft,80,9970,5,6,0,6,0,1,,,,,,,,,,,,,,,,,,,,,,,,,,,,,,,,,,,,,,,
,,,,,,,,2023-08-16_08h43.42.603,HF_wild_card,2022.2.4,Win32,59.43889681,64087b8444f656e9e2b74446,64d2fd46c836a06233681665,64dc7dd51e71c1d50c779db3,,,,,,,decisionTrl,resources/DBN.BMP,resources/DR.BMP,Door3,0.218518519,-0.012037037,1,0,0,1.2809,optionRight,70,10040,5,7,0,7,0,1,,,,,,,,,,,,,,,,,,,,,,,,,,,,,,,,,,,,,,,
,,,,,,,,2023-08-16_08h43.42.603,HF_wild_card,2022.2.4,Win32,59.43889681,64087b8444f656e9e2b74446,64d2fd46c836a06233681665,64dc7dd51e71c1d50c779db3,,,,,,,decisionTrl,resources/DR.BMP,resources/DG.BMP,Door3,-0.166666667,-0.071296296,1,0,0,1.2641,optionLeft,70,10110,5,8,0,8,0,1,,,,,,,,,,,,,,,,,,,,,,,,,,,,,,,,,,,,,,,
,,,,,,,,2023-08-16_08h43.42.603,HF_wild_card,2022.2.4,Win32,59.43889681,64087b8444f656e9e2b74446,64d2fd46c836a06233681665,64dc7dd51e71c1d50c779db3,,,,,,,decisionTrl,resources/DY.BMP,resources/DBN.BMP,WildCard_Ex,0.257407407,-0.018518519,1,0,0,1.9974,optionRight,55,10165,5,9,0,9,0,1,,,,,,,,,,,,,,,,,,,,,,,,,,,,,,,,,,,,,,,
,,,,,,,,2023-08-16_08h43.42.603,HF_wild_card,2022.2.4,Win32,59.43889681,64087b8444f656e9e2b74446,64d2fd46c836a06233681665,64dc7dd51e71c1d50c779db3,,,,,,,decisionTrl,resources/DR.BMP,resources/DG.BMP,Door3,-0.176851852,-0.072222222,1,0,0,1.1805,optionLeft,70,10235,5,10,0,10,0,1,,,,,,,,,,,,,,,,,,,,,,,,,,,,,,,,,,,,,,,
,,,,,,,,2023-08-16_08h43.42.603,HF_wild_card,2022.2.4,Win32,59.43889681,64087b8444f656e9e2b74446,64d2fd46c836a06233681665,64dc7dd51e71c1d50c779db3,,,,,,,decisionTrl,resources/DB.BMP,resources/DBN.BMP,WildCard_Ex,0.217592593,0.003703704,1,0,0,2.3443,optionRight,45,10280,5,11,0,11,0,1,,,,,,,,,,,,,,,,,,,,,,,,,,,,,,,,,,,,,,,
,,,,,,,,2023-08-16_08h43.42.603,HF_wild_card,2022.2.4,Win32,59.43889681,64087b8444f656e9e2b74446,64d2fd46c836a06233681665,64dc7dd51e71c1d50c779db3,,,,,,,sngl,resources/DB.BMP,resources/Empty.png,Door2,-0.210185185,-0.076851852,1,0,0,0.6444,optionLeft,40,10320,5,12,0,12,0,1,,,,,,,,,,,,,,,,,,,,,,,,,,,,,,,,,,,,,,,
,,,,,,,,2023-08-16_08h43.42.603,HF_wild_card,2022.2.4,Win32,59.43889681,64087b8444f656e9e2b74446,64d2fd46c836a06233681665,64dc7dd51e71c1d50c779db3,,,,,,,decisionTrl,resources/DBN.BMP,resources/DB.BMP,WildCard_Ex,-0.219444444,-0.066666667,1,0,0,0.9019,optionLeft,45,10365,5,13,0,13,0,1,,,,,,,,,,,,,,,,,,,,,,,,,,,,,,,,,,,,,,,
,,,,,,,,2023-08-16_08h43.42.603,HF_wild_card,2022.2.4,Win32,59.43889681,64087b8444f656e9e2b74446,64d2fd46c836a06233681665,64dc7dd51e71c1d50c779db3,,,,,,,sngl,resources/DY.BMP,resources/Empty.png,Door1,-0.164814815,-0.058333333,1,0,0,0.749,optionLeft,30,10395,5,14,0,14,0,1,,,,,,,,,,,,,,,,,,,,,,,,,,,,,,,,,,,,,,,
,,,,,,,,2023-08-16_08h43.42.603,HF_wild_card,2022.2.4,Win32,59.43889681,64087b8444f656e9e2b74446,64d2fd46c836a06233681665,64dc7dd51e71c1d50c779db3,,,,,,,sngl,resources/Empty.png,resources/DR.BMP,Door3,0.219444444,-0.012037037,1,0,0,0.6656,optionRight,70,10465,5,15,0,15,0,1,,,,,,,,,,,,,,,,,,,,,,,,,,,,,,,,,,,,,,,
,,,,,,,,2023-08-16_08h43.42.603,HF_wild_card,2022.2.4,Win32,59.43889681,64087b8444f656e9e2b74446,64d2fd46c836a06233681665,64dc7dd51e71c1d50c779db3,,,,,,,decisionTrl,resources/DR.BMP,resources/DG.BMP,Door3,-0.151851852,-0.048148148,1,0,0,0.8951,optionLeft,70,10535,5,16,0,16,0,1,,,,,,,,,,,,,,,,,,,,,,,,,,,,,,,,,,,,,,,
,,,,,,,,2023-08-16_08h43.42.603,HF_wild_card,2022.2.4,Win32,59.43889681,64087b8444f656e9e2b74446,64d2fd46c836a06233681665,64dc7dd51e71c1d50c779db3,,,,,,,decisionTrl,resources/DBN.BMP,resources/DG.BMP,Door4,0.210185185,0.026851852,1,0,0,1.5803,optionRight,80,10615,5,17,0,17,0,1,,,,,,,,,,,,,,,,,,,,,,,,,,,,,,,,,,,,,,,
,,,,,,,,2023-08-16_08h43.42.603,HF_wild_card,2022.2.4,Win32,59.43889681,64087b8444f656e9e2b74446,64d2fd46c836a06233681665,64dc7dd51e71c1d50c779db3,,,,,,,decisionTrl,resources/DY.BMP,resources/DB.BMP,Door1,-0.147222222,-0.034259259,1,0,0,1.2689,optionLeft,30,10645,5,18,0,18,0,1,,,,,,,,,,,,,,,,,,,,,,,,,,,,,,,,,,,,,,,
,,,,,,,,2023-08-16_08h43.42.603,HF_wild_card,2022.2.4,Win32,59.43889681,64087b8444f656e9e2b74446,64d2fd46c836a06233681665,64dc7dd51e71c1d50c779db3,,,,,,,sngl,resources/DG.BMP,resources/Empty.png,Door4,-0.164814815,-0.047222222,1,0,0,0.7099,optionLeft,80,10725,5,19,0,19,0,1,,,,,,,,,,,,,,,,,,,,,,,,,,,,,,,,,,,,,,,
,,,,,,,,2023-08-16_08h43.42.603,HF_wild_card,2022.2.4,Win32,59.43889681,64087b8444f656e9e2b74446,64d2fd46c836a06233681665,64dc7dd51e71c1d50c779db3,,,,,,,ctch,resources/DB.BMP,resources/DR.BMP,Door3,0.215740741,-0.024074074,1,0,0,0.8443,optionRight,70,10795,5,20,0,20,0,1,,,,,,,,,,,,,,,,,,,,,,,,,,,,,,,,,,,,,,,
,,,,,,,,2023-08-16_08h43.42.603,HF_wild_card,2022.2.4,Win32,59.43889681,64087b8444f656e9e2b74446,64d2fd46c836a06233681665,64dc7dd51e71c1d50c779db3,,,,,,,decisionTrl,resources/DB.BMP,resources/DY.BMP,Door1,0.244444444,-0.021296296,1,0,0,1.1192,optionRight,30,10825,5,21,0,21,0,1,,,,,,,,,,,,,,,,,,,,,,,,,,,,,,,,,,,,,,,
,,,,,,,,2023-08-16_08h43.42.603,HF_wild_card,2022.2.4,Win32,59.43889681,64087b8444f656e9e2b74446,64d2fd46c836a06233681665,64dc7dd51e71c1d50c779db3,,,,,,,sngl,resources/Empty.png,resources/DG.BMP,Door4,0.193518519,-0.001851852,1,0,0,0.5653,optionRight,60,10885,5,22,0,22,0,1,,,,,,,,,,,,,,,,,,,,,,,,,,,,,,,,,,,,,,,
,,,,,,,,2023-08-16_08h43.42.603,HF_wild_card,2022.2.4,Win32,59.43889681,64087b8444f656e9e2b74446,64d2fd46c836a06233681665,64dc7dd51e71c1d50c779db3,,,,,,,decisionTrl,resources/DG.BMP,resources/DR.BMP,Door3,0.226851852,0.006481481,1,0,0,0.9654,optionRight,70,10955,5,23,0,23,0,1,,,,,,,,,,,,,,,,,,,,,,,,,,,,,,,,,,,,,,,
,,,,,,,,2023-08-16_08h43.42.603,HF_wild_card,2022.2.4,Win32,59.43889681,64087b8444f656e9e2b74446,64d2fd46c836a06233681665,64dc7dd51e71c1d50c779db3,,,,,,,decisionTrl,resources/DR.BMP,resources/DG.BMP,Door3,-0.160185185,-0.050925926,1,0,0,1.7299,optionLeft,70,11025,5,24,0,24,0,1,,,,,,,,,,,,,,,,,,,,,,,,,,,,,,,,,,,,,,,
,,,,,,,,2023-08-16_08h43.42.603,HF_wild_card,2022.2.4,Win32,59.43889681,64087b8444f656e9e2b74446,64d2fd46c836a06233681665,64dc7dd51e71c1d50c779db3,,,,,,,sngl,resources/DR.BMP,resources/Empty.png,Door3,-0.147222222,-0.049074074,1,0,0,0.644,optionLeft,70,11095,5,25,0,25,0,1,,,,,,,,,,,,,,,,,,,,,,,,,,,,,,,,,,,,,,,
,,,,,,,,2023-08-16_08h43.42.603,HF_wild_card,2022.2.4,Win32,59.43889681,64087b8444f656e9e2b74446,64d2fd46c836a06233681665,64dc7dd51e71c1d50c779db3,,,,,,,decisionTrl,resources/DR.BMP,resources/DBN.BMP,Door3,-0.143518519,-0.059259259,1,0,0,0.598,optionLeft,70,11165,5,26,0,26,0,1,,,,,,,,,,,,,,,,,,,,,,,,,,,,,,,,,,,,,,,
,,,,,,,,2023-08-16_08h43.42.603,HF_wild_card,2022.2.4,Win32,59.43889681,64087b8444f656e9e2b74446,64d2fd46c836a06233681665,64dc7dd51e71c1d50c779db3,,,,,,,decisionTrl,resources/DBN.BMP,resources/DY.BMP,WildCard_Ex,-0.174074074,-0.078703704,1,0,0,1.2473,optionLeft,55,11220,5,27,0,27,0,1,,,,,,,,,,,,,,,,,,,,,,,,,,,,,,,,,,,,,,,
,,,,,,,,2023-08-16_08h43.42.603,HF_wild_card,2022.2.4,Win32,59.43889681,64087b8444f656e9e2b74446,64d2fd46c836a06233681665,64dc7dd51e71c1d50c779db3,,,,,,,sngl,resources/DBN.BMP,resources/Empty.png,WildCard_Ex,-0.147222222,-0.053703704,1,0,0,0.5806,optionLeft,45,11265,5,28,0,28,0,1,,,,,,,,,,,,,,,,,,,,,,,,,,,,,,,,,,,,,,,
,,,,,,,,2023-08-16_08h43.42.603,HF_wild_card,2022.2.4,Win32,59.43889681,64087b8444f656e9e2b74446,64d2fd46c836a06233681665,64dc7dd51e71c1d50c779db3,,,,,,,ctch,resources/DY.BMP,resources/DG.BMP,Door4,0.217592593,0.009259259,1,0,0,1.1644,optionRight,60,11325,5,29,0,29,0,1,,,,,,,,,,,,,,,,,,,,,,,,,,,,,,,,,,,,,,,
,,,,,,,,2023-08-16_08h43.42.603,HF_wild_card,2022.2.4,Win32,59.43889681,64087b8444f656e9e2b74446,64d2fd46c836a06233681665,64dc7dd51e71c1d50c779db3,,,,,,,decisionTrl,resources/DY.BMP,resources/DB.BMP,Door1,-0.138888889,-0.062037037,1,0,0,1.3647,optionLeft,30,11355,5,30,0,30,0,1,,,,,,,,,,,,,,,,,,,,,,,,,,,,,,,,,,,,,,,
,,,,,,,,2023-08-16_08h43.42.603,HF_wild_card,2022.2.4,Win32,59.43889681,64087b8444f656e9e2b74446,64d2fd46c836a06233681665,64dc7dd51e71c1d50c779db3,,,,,,,sngl,resources/Empty.png,resources/DY.BMP,Door1,0.187962963,-0.00462963,1,0,0,0.5808,optionRight,30,11385,5,31,0,31,0,1,,,,,,,,,,,,,,,,,,,,,,,,,,,,,,,,,,,,,,,
,,,,,,,,2023-08-16_08h43.42.603,HF_wild_card,2022.2.4,Win32,59.43889681,64087b8444f656e9e2b74446,64d2fd46c836a06233681665,64dc7dd51e71c1d50c779db3,,,,,,,ctch,resources/DG.BMP,resources/DY.BMP,Door4,-0.165740741,-0.09537037,1,0,0,0.8803,optionLeft,60,11445,5,32,0,32,0,1,,,,,,,,,,,,,,,,,,,,,,,,,,,,,,,,,,,,,,,
,,,,,,,,2023-08-16_08h43.42.603,HF_wild_card,2022.2.4,Win32,59.43889681,64087b8444f656e9e2b74446,64d2fd46c836a06233681665,64dc7dd51e71c1d50c779db3,,,,,,,decisionTrl,resources/DG.BMP,resources/DBN.BMP,Door4,-0.144444444,-0.074074074,1,0,0,1.3306,optionLeft,60,11505,5,33,0,33,0,1,,,,,,,,,,,,,,,,,,,,,,,,,,,,,,,,,,,,,,,
,,,,,,,,2023-08-16_08h43.42.603,HF_wild_card,2022.2.4,Win32,59.43889681,64087b8444f656e9e2b74446,64d2fd46c836a06233681665,64dc7dd51e71c1d50c779db3,,,,,,,ctch,resources/DB.BMP,resources/DR.BMP,Door3,0.240740741,0.000925926,1,0,0,0.8815,optionRight,70,11575,5,34,0,34,0,1,,,,,,,,,,,,,,,,,,,,,,,,,,,,,,,,,,,,,,,
,,,,,,,,2023-08-16_08h43.42.603,HF_wild_card,2022.2.4,Win32,59.43889681,64087b8444f656e9e2b74446,64d2fd46c836a06233681665,64dc7dd51e71c1d50c779db3,,,,,,,sngl,resources/Empty.png,resources/DBN.BMP,WildCard_Ex,0.188888889,0.019444444,1,0,0,0.5472,optionRight,45,11620,5,35,0,35,0,1,,,,,,,,,,,,,,,,,,,,,,,,,,,,,,,,,,,,,,,
,,,,,,,,2023-08-16_08h43.42.603,HF_wild_card,2022.2.4,Win32,59.43889681,64087b8444f656e9e2b74446,64d2fd46c836a06233681665,64dc7dd51e71c1d50c779db3,,,,,,,ctch,resources/DY.BMP,resources/DG.BMP,Door4,0.189814815,-0.018518519,1,0,0,1.0475,optionRight,60,11680,5,36,0,36,0,1,,,,,,,,,,,,,,,,,,,,,,,,,,,,,,,,,,,,,,,
,,,,,,,,2023-08-16_08h43.42.603,HF_wild_card,2022.2.4,Win32,59.43889681,64087b8444f656e9e2b74446,64d2fd46c836a06233681665,64dc7dd51e71c1d50c779db3,,,,,,,sngl,resources/Empty.png,resources/DB.BMP,Door2,0.169444444,-0.019444444,1,0,0,0.5805,optionRight,20,11700,5,37,0,37,0,1,,,,,,,,,,,,,,,,,,,,,,,,,,,,,,,,,,,,,,,
,,,,,,,,2023-08-16_08h43.42.603,HF_wild_card,2022.2.4,Win32,59.43889681,64087b8444f656e9e2b74446,64d2fd46c836a06233681665,64dc7dd51e71c1d50c779db3,,,,,,,decisionTrl,resources/DY.BMP,resources/DB.BMP,Door1,-0.164814815,-0.061111111,1,0,0,1.0647,optionLeft,30,11730,5,38,0,38,0,1,,,,,,,,,,,,,,,,,,,,,,,,,,,,,,,,,,,,,,,
,,,,,,,,2023-08-16_08h43.42.603,HF_wild_card,2022.2.4,Win32,59.43889681,64087b8444f656e9e2b74446,64d2fd46c836a06233681665,64dc7dd51e71c1d50c779db3,,,,,,,decisionTrl,resources/DG.BMP,resources/DR.BMP,Door3,0.20462963,0.021296296,1,0,0,1.7297,optionRight,70,11800,5,39,0,39,0,1,,,,,,,,,,,,,,,,,,,,,,,,,,,,,,,,,,,,,,,
,,,,,,,,2023-08-16_08h43.42.603,HF_wild_card,2022.2.4,Win32,59.43889681,64087b8444f656e9e2b74446,64d2fd46c836a06233681665,64dc7dd51e71c1d50c779db3,,,,,,,ctch,resources/DR.BMP,resources/DB.BMP,Door3,-0.167592593,-0.125,1,0,0,1.1141,optionLeft,70,11870,5,40,0,40,0,1,,,,,,,,,,,,,,,,,,,,,,,,,,,,,,,,,,,,,,,
,,,,,,,,2023-08-16_08h43.42.603,HF_wild_card,2022.2.4,Win32,59.43889681,64087b8444f656e9e2b74446,64d2fd46c836a06233681665,64dc7dd51e71c1d50c779db3,,,,,,,ctch,resources/DR.BMP,resources/DB.BMP,Door3,-0.175,-0.100925926,1,0,0,1.0139,optionLeft,70,11940,5,41,0,41,0,1,,,,,,,,,,,,,,,,,,,,,,,,,,,,,,,,,,,,,,,
,,,,,,,,2023-08-16_08h43.42.603,HF_wild_card,2022.2.4,Win32,59.43889681,64087b8444f656e9e2b74446,64d2fd46c836a06233681665,64dc7dd51e71c1d50c779db3,,,,,,,decisionTrl,resources/DB.BMP,resources/DY.BMP,Door1,0.284259259,-0.073148148,1,0,0,1.4473,optionRight,30,11970,5,42,0,42,0,1,,,,,,,,,,,,,,,,,,,,,,,,,,,,,,,,,,,,,,,
,,,,,,,,2023-08-16_08h43.42.603,HF_wild_card,2022.2.4,Win32,59.43889681,64087b8444f656e9e2b74446,64d2fd46c836a06233681665,64dc7dd51e71c1d50c779db3,,,,,,,sngl,resources/DBN.BMP,resources/Empty.png,WildCard_Ex,-0.167592593,-0.105555556,1,0,0,0.7469,optionLeft,55,12025,5,43,0,43,0,1,,,,,,,,,,,,,,,,,,,,,,,,,,,,,,,,,,,,,,,
,,,,,,,,2023-08-16_08h43.42.603,HF_wild_card,2022.2.4,Win32,59.43889681,64087b8444f656e9e2b74446,64d2fd46c836a06233681665,64dc7dd51e71c1d50c779db3,,,,,,,,,,,,,,,,,,,,,,,,,,4,0,4,0,1,,,,,,,,,,,,,,,,,,,,,,,,,,,,,,,,,,
,,,,,,,,2023-08-16_08h43.42.603,HF_wild_card,2022.2.4,Win32,59.43889681,64087b8444f656e9e2b74446,64d2fd46c836a06233681665,64dc7dd51e71c1d50c779db3,,,,,,,decisionTrl,resources/DBN.BMP,resources/DB.BMP,WildCard_Ex,-0.19537037,-0.134259259,1,0,0,1.8063,optionLeft,45,12070,6,0,0,0,0,1,,,,,,,,,,,,,,,,,,,,,,,,,,,,,,,,,,,,,,,
,,,,,,,,2023-08-16_08h43.42.603,HF_wild_card,2022.2.4,Win32,59.43889681,64087b8444f656e9e2b74446,64d2fd46c836a06233681665,64dc7dd51e71c1d50c779db3,,,,,,,sngl,resources/DB.BMP,resources/Empty.png,Door2,-0.162962963,-0.087962963,1,0,0,0.6136,optionLeft,20,12090,6,1,0,1,0,1,,,,,,,,,,,,,,,,,,,,,,,,,,,,,,,,,,,,,,,
,,,,,,,,2023-08-16_08h43.42.603,HF_wild_card,2022.2.4,Win32,59.43889681,64087b8444f656e9e2b74446,64d2fd46c836a06233681665,64dc7dd51e71c1d50c779db3,,,,,,,decisionTrl,resources/DB.BMP,resources/DBN.BMP,WildCard_Ex,0.259259259,-0.012037037,1,0,0,0.816,optionRight,45,12135,6,2,0,2,0,1,,,,,,,,,,,,,,,,,,,,,,,,,,,,,,,,,,,,,,,
,,,,,,,,2023-08-16_08h43.42.603,HF_wild_card,2022.2.4,Win32,59.43889681,64087b8444f656e9e2b74446,64d2fd46c836a06233681665,64dc7dd51e71c1d50c779db3,,,,,,,sngl,resources/Empty.png,resources/DBN.BMP,WildCard_Ex,0.25,-0.027777778,1,0,0,0.5986,optionRight,45,12180,6,3,0,3,0,1,,,,,,,,,,,,,,,,,,,,,,,,,,,,,,,,,,,,,,,
,,,,,,,,2023-08-16_08h43.42.603,HF_wild_card,2022.2.4,Win32,59.43889681,64087b8444f656e9e2b74446,64d2fd46c836a06233681665,64dc7dd51e71c1d50c779db3,,,,,,,decisionTrl,resources/DR.BMP,resources/DG.BMP,Door3,-0.17037037,-0.146296296,1,0,0,1.1983,optionLeft,70,12250,6,4,0,4,0,1,,,,,,,,,,,,,,,,,,,,,,,,,,,,,,,,,,,,,,,
,,,,,,,,2023-08-16_08h43.42.603,HF_wild_card,2022.2.4,Win32,59.43889681,64087b8444f656e9e2b74446,64d2fd46c836a06233681665,64dc7dd51e71c1d50c779db3,,,,,,,decisionTrl,resources/DY.BMP,resources/DB.BMP,Door1,-0.148148148,-0.075925926,1,0,0,1.0648,optionLeft,30,12280,6,5,0,5,0,1,,,,,,,,,,,,,,,,,,,,,,,,,,,,,,,,,,,,,,,
,,,,,,,,2023-08-16_08h43.42.603,HF_wild_card,2022.2.4,Win32,59.43889681,64087b8444f656e9e2b74446,64d2fd46c836a06233681665,64dc7dd51e71c1d50c779db3,,,,,,,ctch,resources/DB.BMP,resources/DR.BMP,Door3,0.247222222,-0.015740741,1,0,0,0.7831,optionRight,70,12350,6,6,0,6,0,1,,,,,,,,,,,,,,,,,,,,,,,,,,,,,,,,,,,,,,,
,,,,,,,,2023-08-16_08h43.42.603,HF_wild_card,2022.2.4,Win32,59.43889681,64087b8444f656e9e2b74446,64d2fd46c836a06233681665,64dc7dd51e71c1d50c779db3,,,,,,,sngl,resources/Empty.png,resources/DG.BMP,Door4,0.22037037,-0.018518519,1,0,0,0.5984,optionRight,80,12430,6,7,0,7,0,1,,,,,,,,,,,,,,,,,,,,,,,,,,,,,,,,,,,,,,,
,,,,,,,,2023-08-16_08h43.42.603,HF_wild_card,2022.2.4,Win32,59.43889681,64087b8444f656e9e2b74446,64d2fd46c836a06233681665,64dc7dd51e71c1d50c779db3,,,,,,,ctch,resources/DR.BMP,resources/DB.BMP,Door3,-0.190740741,-0.105555556,1,0,0,0.7496,optionLeft,70,12500,6,8,0,8,0,1,,,,,,,,,,,,,,,,,,,,,,,,,,,,,,,,,,,,,,,
,,,,,,,,2023-08-16_08h43.42.603,HF_wild_card,2022.2.4,Win32,59.43889681,64087b8444f656e9e2b74446,64d2fd46c836a06233681665,64dc7dd51e71c1d50c779db3,,,,,,,decisionTrl,resources/DB.BMP,resources/DY.BMP,Door1,0.339814815,0.052777778,1,0,0,1.5154,optionRight,30,12530,6,9,0,9,0,1,,,,,,,,,,,,,,,,,,,,,,,,,,,,,,,,,,,,,,,
,,,,,,,,2023-08-16_08h43.42.603,HF_wild_card,2022.2.4,Win32,59.43889681,64087b8444f656e9e2b74446,64d2fd46c836a06233681665,64dc7dd51e71c1d50c779db3,,,,,,,sngl,resources/DY.BMP,resources/Empty.png,Door1,-0.164814815,-0.069444444,1,0,0,0.6327,optionLeft,30,12560,6,10,0,10,0,1,,,,,,,,,,,,,,,,,,,,,,,,,,,,,,,,,,,,,,,
,,,,,,,,2023-08-16_08h43.42.603,HF_wild_card,2022.2.4,Win32,59.43889681,64087b8444f656e9e2b74446,64d2fd46c836a06233681665,64dc7dd51e71c1d50c779db3,,,,,,,decisionTrl,resources/DBN.BMP,resources/DG.BMP,Door4,0.293518519,-0.001851852,1,0,0,1.8441,optionRight,80,12640,6,11,0,11,0,1,,,,,,,,,,,,,,,,,,,,,,,,,,,,,,,,,,,,,,,
,,,,,,,,2023-08-16_08h43.42.603,HF_wild_card,2022.2.4,Win32,59.43889681,64087b8444f656e9e2b74446,64d2fd46c836a06233681665,64dc7dd51e71c1d50c779db3,,,,,,,decisionTrl,resources/DY.BMP,resources/DB.BMP,Door1,-0.167592593,-0.047222222,1,0,0,0.9659,optionLeft,30,12670,6,12,0,12,0,1,,,,,,,,,,,,,,,,,,,,,,,,,,,,,,,,,,,,,,,
,,,,,,,,2023-08-16_08h43.42.603,HF_wild_card,2022.2.4,Win32,59.43889681,64087b8444f656e9e2b74446,64d2fd46c836a06233681665,64dc7dd51e71c1d50c779db3,,,,,,,decisionTrl,resources/DG.BMP,resources/DR.BMP,Door3,0.277777778,-0.001851852,1,0,0,1.2327,optionRight,70,12740,6,13,0,13,0,1,,,,,,,,,,,,,,,,,,,,,,,,,,,,,,,,,,,,,,,
,,,,,,,,2023-08-16_08h43.42.603,HF_wild_card,2022.2.4,Win32,59.43889681,64087b8444f656e9e2b74446,64d2fd46c836a06233681665,64dc7dd51e71c1d50c779db3,,,,,,,decisionTrl,resources/DB.BMP,resources/DY.BMP,Door1,0.283333333,0,1,0,0,0.9771,optionRight,30,12770,6,14,0,14,0,1,,,,,,,,,,,,,,,,,,,,,,,,,,,,,,,,,,,,,,,
,,,,,,,,2023-08-16_08h43.42.603,HF_wild_card,2022.2.4,Win32,59.43889681,64087b8444f656e9e2b74446,64d2fd46c836a06233681665,64dc7dd51e71c1d50c779db3,,,,,,,sngl,resources/Empty.png,resources/DY.BMP,Door1,0.300925926,-0.017592593,1,0,0,0.5338,optionRight,30,12800,6,15,0,15,0,1,,,,,,,,,,,,,,,,,,,,,,,,,,,,,,,,,,,,,,,
,,,,,,,,2023-08-16_08h43.42.603,HF_wild_card,2022.2.4,Win32,59.43889681,64087b8444f656e9e2b74446,64d2fd46c836a06233681665,64dc7dd51e71c1d50c779db3,,,,,,,decisionTrl,resources/DY.BMP,resources/DBN.BMP,WildCard_Ex,0.27037037,-0.019444444,1,0,0,1.7656,optionRight,55,12855,6,16,0,16,0,1,,,,,,,,,,,,,,,,,,,,,,,,,,,,,,,,,,,,,,,
,,,,,,,,2023-08-16_08h43.42.603,HF_wild_card,2022.2.4,Win32,59.43889681,64087b8444f656e9e2b74446,64d2fd46c836a06233681665,64dc7dd51e71c1d50c779db3,,,,,,,decisionTrl,resources/DG.BMP,resources/DR.BMP,Door3,0.298148148,-0.017592593,1,0,0,0.9431,optionRight,70,12925,6,17,0,17,0,1,,,,,,,,,,,,,,,,,,,,,,,,,,,,,,,,,,,,,,,
,,,,,,,,2023-08-16_08h43.42.603,HF_wild_card,2022.2.4,Win32,59.43889681,64087b8444f656e9e2b74446,64d2fd46c836a06233681665,64dc7dd51e71c1d50c779db3,,,,,,,decisionTrl,resources/DG.BMP,resources/DR.BMP,Door3,0.248148148,-0.051851852,1,0,0,1.1311,optionRight,70,12995,6,18,0,18,0,1,,,,,,,,,,,,,,,,,,,,,,,,,,,,,,,,,,,,,,,
,,,,,,,,2023-08-16_08h43.42.603,HF_wild_card,2022.2.4,Win32,59.43889681,64087b8444f656e9e2b74446,64d2fd46c836a06233681665,64dc7dd51e71c1d50c779db3,,,,,,,ctch,resources/DY.BMP,resources/DG.BMP,Door4,0.248148148,-0.063888889,1,0,0,0.847,optionRight,60,13055,6,19,0,19,0,1,,,,,,,,,,,,,,,,,,,,,,,,,,,,,,,,,,,,,,,
,,,,,,,,2023-08-16_08h43.42.603,HF_wild_card,2022.2.4,Win32,59.43889681,64087b8444f656e9e2b74446,64d2fd46c836a06233681665,64dc7dd51e71c1d50c779db3,,,,,,,decisionTrl,resources/DG.BMP,resources/DBN.BMP,Door4,-0.173148148,-0.092592593,1,0,0,1.0807,optionLeft,60,13115,6,20,0,20,0,1,,,,,,,,,,,,,,,,,,,,,,,,,,,,,,,,,,,,,,,
,,,,,,,,2023-08-16_08h43.42.603,HF_wild_card,2022.2.4,Win32,59.43889681,64087b8444f656e9e2b74446,64d2fd46c836a06233681665,64dc7dd51e71c1d50c779db3,,,,,,,sngl,resources/DR.BMP,resources/Empty.png,Door3,-0.169444444,-0.067592593,1,0,0,0.6973,optionLeft,70,13185,6,21,0,21,0,1,,,,,,,,,,,,,,,,,,,,,,,,,,,,,,,,,,,,,,,
,,,,,,,,2023-08-16_08h43.42.603,HF_wild_card,2022.2.4,Win32,59.43889681,64087b8444f656e9e2b74446,64d2fd46c836a06233681665,64dc7dd51e71c1d50c779db3,,,,,,,decisionTrl,resources/DR.BMP,resources/DG.BMP,Door3,-0.175,-0.056481481,1,0,0,1.0638,optionLeft,70,13255,6,22,0,22,0,1,,,,,,,,,,,,,,,,,,,,,,,,,,,,,,,,,,,,,,,
,,,,,,,,2023-08-16_08h43.42.603,HF_wild_card,2022.2.4,Win32,59.43889681,64087b8444f656e9e2b74446,64d2fd46c836a06233681665,64dc7dd51e71c1d50c779db3,,,,,,,decisionTrl,resources/DBN.BMP,resources/DY.BMP,WildCard_Ex,-0.187037037,-0.084259259,1,0,0,1.1141,optionLeft,45,13300,6,23,0,23,0,1,,,,,,,,,,,,,,,,,,,,,,,,,,,,,,,,,,,,,,,
,,,,,,,,2023-08-16_08h43.42.603,HF_wild_card,2022.2.4,Win32,59.43889681,64087b8444f656e9e2b74446,64d2fd46c836a06233681665,64dc7dd51e71c1d50c779db3,,,,,,,decisionTrl,resources/DY.BMP,resources/DB.BMP,Door1,-0.166666667,-0.100925926,1,0,0,1.4639,optionLeft,30,13330,6,24,0,24,0,1,,,,,,,,,,,,,,,,,,,,,,,,,,,,,,,,,,,,,,,
,,,,,,,,2023-08-16_08h43.42.603,HF_wild_card,2022.2.4,Win32,59.43889681,64087b8444f656e9e2b74446,64d2fd46c836a06233681665,64dc7dd51e71c1d50c779db3,,,,,,,decisionTrl,resources/DY.BMP,resources/DB.BMP,Door1,-0.156481481,-0.096296296,1,0,0,0.7139,optionLeft,30,13360,6,25,0,25,0,1,,,,,,,,,,,,,,,,,,,,,,,,,,,,,,,,,,,,,,,
,,,,,,,,2023-08-16_08h43.42.603,HF_wild_card,2022.2.4,Win32,59.43889681,64087b8444f656e9e2b74446,64d2fd46c836a06233681665,64dc7dd51e71c1d50c779db3,,,,,,,ctch,resources/DG.BMP,resources/DY.BMP,Door4,-0.188888889,-0.080555556,1,0,0,1.0477,optionLeft,80,13440,6,26,0,26,0,1,,,,,,,,,,,,,,,,,,,,,,,,,,,,,,,,,,,,,,,
,,,,,,,,2023-08-16_08h43.42.603,HF_wild_card,2022.2.4,Win32,59.43889681,64087b8444f656e9e2b74446,64d2fd46c836a06233681665,64dc7dd51e71c1d50c779db3,,,,,,,sngl,resources/Empty.png,resources/DB.BMP,Door2,0.309259259,-0.057407407,1,0,0,0.6288,optionRight,40,13480,6,27,0,27,0,1,,,,,,,,,,,,,,,,,,,,,,,,,,,,,,,,,,,,,,,
,,,,,,,,2023-08-16_08h43.42.603,HF_wild_card,2022.2.4,Win32,59.43889681,64087b8444f656e9e2b74446,64d2fd46c836a06233681665,64dc7dd51e71c1d50c779db3,,,,,,,decisionTrl,resources/DR.BMP,resources/DBN.BMP,Door3,-0.219444444,-0.074074074,1,0,0,1.4473,optionLeft,70,13550,6,28,0,28,0,1,,,,,,,,,,,,,,,,,,,,,,,,,,,,,,,,,,,,,,,
,,,,,,,,2023-08-16_08h43.42.603,HF_wild_card,2022.2.4,Win32,59.43889681,64087b8444f656e9e2b74446,64d2fd46c836a06233681665,64dc7dd51e71c1d50c779db3,,,,,,,decisionTrl,resources/DR.BMP,resources/DG.BMP,Door3,-0.184259259,-0.088888889,1,0,0,0.9811,optionLeft,70,13620,6,29,0,29,0,1,,,,,,,,,,,,,,,,,,,,,,,,,,,,,,,,,,,,,,,
,,,,,,,,2023-08-16_08h43.42.603,HF_wild_card,2022.2.4,Win32,59.43889681,64087b8444f656e9e2b74446,64d2fd46c836a06233681665,64dc7dd51e71c1d50c779db3,,,,,,,decisionTrl,resources/DBN.BMP,resources/DR.BMP,Door3,0.251851852,-0.05462963,1,0,0,1.8962,optionRight,70,13690,6,30,0,30,0,1,,,,,,,,,,,,,,,,,,,,,,,,,,,,,,,,,,,,,,,
,,,,,,,,2023-08-16_08h43.42.603,HF_wild_card,2022.2.4,Win32,59.43889681,64087b8444f656e9e2b74446,64d2fd46c836a06233681665,64dc7dd51e71c1d50c779db3,,,,,,,ctch,resources/DR.BMP,resources/DB.BMP,Door3,-0.163888889,-0.073148148,1,0,0,0.697,optionLeft,70,13760,6,31,0,31,0,1,,,,,,,,,,,,,,,,,,,,,,,,,,,,,,,,,,,,,,,
,,,,,,,,2023-08-16_08h43.42.603,HF_wild_card,2022.2.4,Win32,59.43889681,64087b8444f656e9e2b74446,64d2fd46c836a06233681665,64dc7dd51e71c1d50c779db3,,,,,,,sngl,resources/DBN.BMP,resources/Empty.png,WildCard_Ex,-0.184259259,-0.083333333,1,0,0,0.6301,optionLeft,55,13815,6,32,0,32,0,1,,,,,,,,,,,,,,,,,,,,,,,,,,,,,,,,,,,,,,,
,,,,,,,,2023-08-16_08h43.42.603,HF_wild_card,2022.2.4,Win32,59.43889681,64087b8444f656e9e2b74446,64d2fd46c836a06233681665,64dc7dd51e71c1d50c779db3,,,,,,,decisionTrl,resources/DG.BMP,resources/DR.BMP,Door3,0.276851852,-0.049074074,1,0,0,1.0308,optionRight,70,13885,6,33,0,33,0,1,,,,,,,,,,,,,,,,,,,,,,,,,,,,,,,,,,,,,,,
,,,,,,,,2023-08-16_08h43.42.603,HF_wild_card,2022.2.4,Win32,59.43889681,64087b8444f656e9e2b74446,64d2fd46c836a06233681665,64dc7dd51e71c1d50c779db3,,,,,,,decisionTrl,resources/DB.BMP,resources/DY.BMP,Door1,0.267592593,-0.050925926,1,0,0,0.8635,optionRight,30,13915,6,34,0,34,0,1,,,,,,,,,,,,,,,,,,,,,,,,,,,,,,,,,,,,,,,
,,,,,,,,2023-08-16_08h43.42.603,HF_wild_card,2022.2.4,Win32,59.43889681,64087b8444f656e9e2b74446,64d2fd46c836a06233681665,64dc7dd51e71c1d50c779db3,,,,,,,sngl,resources/DBN.BMP,resources/Empty.png,WildCard_Ex,-0.167592593,-0.062037037,1,0,0,0.6638,optionLeft,45,13960,6,35,0,35,0,1,,,,,,,,,,,,,,,,,,,,,,,,,,,,,,,,,,,,,,,
,,,,,,,,2023-08-16_08h43.42.603,HF_wild_card,2022.2.4,Win32,59.43889681,64087b8444f656e9e2b74446,64d2fd46c836a06233681665,64dc7dd51e71c1d50c779db3,,,,,,,decisionTrl,resources/DR.BMP,resources/DG.BMP,Door3,-0.165740741,-0.051851852,1,0,0,1.2307,optionLeft,70,14030,6,36,0,36,0,1,,,,,,,,,,,,,,,,,,,,,,,,,,,,,,,,,,,,,,,
,,,,,,,,2023-08-16_08h43.42.603,HF_wild_card,2022.2.4,Win32,59.43889681,64087b8444f656e9e2b74446,64d2fd46c836a06233681665,64dc7dd51e71c1d50c779db3,,,,,,,sngl,resources/Empty.png,resources/DR.BMP,Door3,0.265740741,-0.062962963,1,0,0,0.6142,optionRight,70,14100,6,37,0,37,0,1,,,,,,,,,,,,,,,,,,,,,,,,,,,,,,,,,,,,,,,
,,,,,,,,2023-08-16_08h43.42.603,HF_wild_card,2022.2.4,Win32,59.43889681,64087b8444f656e9e2b74446,64d2fd46c836a06233681665,64dc7dd51e71c1d50c779db3,,,,,,,sngl,resources/Empty.png,resources/DBN.BMP,WildCard_Ex,0.219444444,0.072222222,1,0,0,0.731,optionRight,55,14155,6,38,0,38,0,1,,,,,,,,,,,,,,,,,,,,,,,,,,,,,,,,,,,,,,,
,,,,,,,,2023-08-16_08h43.42.603,HF_wild_card,2022.2.4,Win32,59.43889681,64087b8444f656e9e2b74446,64d2fd46c836a06233681665,64dc7dd51e71c1d50c779db3,,,,,,,ctch,resources/DB.BMP,resources/DR.BMP,Door3,0.262962963,0.002777778,1,0,0,0.9977,optionRight,70,14225,6,39,0,39,0,1,,,,,,,,,,,,,,,,,,,,,,,,,,,,,,,,,,,,,,,
,,,,,,,,2023-08-16_08h43.42.603,HF_wild_card,2022.2.4,Win32,59.43889681,64087b8444f656e9e2b74446,64d2fd46c836a06233681665,64dc7dd51e71c1d50c779db3,,,,,,,decisionTrl,resources/DB.BMP,resources/DY.BMP,Door1,0.261111111,0.006481481,1,0,0,1.0305,optionRight,30,14255,6,40,0,40,0,1,,,,,,,,,,,,,,,,,,,,,,,,,,,,,,,,,,,,,,,
,,,,,,,,2023-08-16_08h43.42.603,HF_wild_card,2022.2.4,Win32,59.43889681,64087b8444f656e9e2b74446,64d2fd46c836a06233681665,64dc7dd51e71c1d50c779db3,,,,,,,ctch,resources/DG.BMP,resources/DY.BMP,Door4,-0.194444444,-0.019444444,1,0,0,1.314,optionLeft,60,14315,6,41,0,41,0,1,,,,,,,,,,,,,,,,,,,,,,,,,,,,,,,,,,,,,,,
,,,,,,,,2023-08-16_08h43.42.603,HF_wild_card,2022.2.4,Win32,59.43889681,64087b8444f656e9e2b74446,64d2fd46c836a06233681665,64dc7dd51e71c1d50c779db3,,,,,,,ctch,resources/DY.BMP,resources/DG.BMP,Door4,0.285185185,-0.00462963,1,0,0,0.8464,optionRight,60,14375,6,42,0,42,0,1,,,,,,,,,,,,,,,,,,,,,,,,,,,,,,,,,,,,,,,
,,,,,,,,2023-08-16_08h43.42.603,HF_wild_card,2022.2.4,Win32,59.43889681,64087b8444f656e9e2b74446,64d2fd46c836a06233681665,64dc7dd51e71c1d50c779db3,,,,,,,sngl,resources/DG.BMP,resources/Empty.png,Door4,-0.196296296,-0.047222222,1,0,0,0.8142,optionLeft,60,14435,6,43,0,43,0,1,,,,,,,,,,,,,,,,,,,,,,,,,,,,,,,,,,,,,,,
,,,,,,,,2023-08-16_08h43.42.603,HF_wild_card,2022.2.4,Win32,59.43889681,64087b8444f656e9e2b74446,64d2fd46c836a06233681665,64dc7dd51e71c1d50c779db3,,,,,,,,,,,,,,,,,,,,,,,,,,5,0,5,0,1,,,,,,,,,,,,,,,,,,,,,,,,,,,,,,,,,,
,,,,,,,,2023-08-16_08h43.42.603,HF_wild_card,2022.2.4,Win32,59.43889681,64087b8444f656e9e2b74446,64d2fd46c836a06233681665,64dc7dd51e71c1d50c779db3,,,,,,,decisionTrl,resources/DB.BMP,resources/DY.BMP,Door1,0.428703704,-0.107407407,1,0,0,1.9579,optionRight,30,14465,7,0,0,0,0,1,,,,,,,,,,,,,,,,,,,,,,,,,,,,,,,,,,,,,,,
,,,,,,,,2023-08-16_08h43.42.603,HF_wild_card,2022.2.4,Win32,59.43889681,64087b8444f656e9e2b74446,64d2fd46c836a06233681665,64dc7dd51e71c1d50c779db3,,,,,,,decisionTrl,resources/DB.BMP,resources/DY.BMP,Door1,0.236111111,0.019444444,1,0,0,0.8933,optionRight,30,14495,7,1,0,1,0,1,,,,,,,,,,,,,,,,,,,,,,,,,,,,,,,,,,,,,,,
,,,,,,,,2023-08-16_08h43.42.603,HF_wild_card,2022.2.4,Win32,59.43889681,64087b8444f656e9e2b74446,64d2fd46c836a06233681665,64dc7dd51e71c1d50c779db3,,,,,,,decisionTrl,resources/DG.BMP,resources/DR.BMP,Door3,0.37037037,0.009259259,1,0,0,1.3151,optionRight,70,14565,7,2,0,2,0,1,,,,,,,,,,,,,,,,,,,,,,,,,,,,,,,,,,,,,,,
,,,,,,,,2023-08-16_08h43.42.603,HF_wild_card,2022.2.4,Win32,59.43889681,64087b8444f656e9e2b74446,64d2fd46c836a06233681665,64dc7dd51e71c1d50c779db3,,,,,,,ctch,resources/DY.BMP,resources/DG.BMP,Door4,0.315740741,0.008333333,1,0,0,1.999,optionRight,60,14625,7,3,0,3,0,1,,,,,,,,,,,,,,,,,,,,,,,,,,,,,,,,,,,,,,,
,,,,,,,,2023-08-16_08h43.42.603,HF_wild_card,2022.2.4,Win32,59.43889681,64087b8444f656e9e2b74446,64d2fd46c836a06233681665,64dc7dd51e71c1d50c779db3,,,,,,,ctch,resources/DY.BMP,resources/DG.BMP,Door4,0.278703704,0.013888889,1,0,0,0.8486,optionRight,60,14685,7,4,0,4,0,1,,,,,,,,,,,,,,,,,,,,,,,,,,,,,,,,,,,,,,,
,,,,,,,,2023-08-16_08h43.42.603,HF_wild_card,2022.2.4,Win32,59.43889681,64087b8444f656e9e2b74446,64d2fd46c836a06233681665,64dc7dd51e71c1d50c779db3,,,,,,,ctch,resources/DG.BMP,resources/DY.BMP,Door4,-0.228703704,-0.053703704,1,0,0,0.8645,optionLeft,60,14745,7,5,0,5,0,1,,,,,,,,,,,,,,,,,,,,,,,,,,,,,,,,,,,,,,,
,,,,,,,,2023-08-16_08h43.42.603,HF_wild_card,2022.2.4,Win32,59.43889681,64087b8444f656e9e2b74446,64d2fd46c836a06233681665,64dc7dd51e71c1d50c779db3,,,,,,,decisionTrl,resources/DR.BMP,resources/DG.BMP,Door3,-0.20462963,-0.066666667,1,0,0,1.1321,optionLeft,70,14815,7,6,0,6,0,1,,,,,,,,,,,,,,,,,,,,,,,,,,,,,,,,,,,,,,,
,,,,,,,,2023-08-16_08h43.42.603,HF_wild_card,2022.2.4,Win32,59.43889681,64087b8444f656e9e2b74446,64d2fd46c836a06233681665,64dc7dd51e71c1d50c779db3,,,,,,,ctch,resources/DG.BMP,resources/DY.BMP,Door4,-0.218518519,-0.067592593,1,0,0,0.9323,optionLeft,80,14895,7,7,0,7,0,1,,,,,,,,,,,,,,,,,,,,,,,,,,,,,,,,,,,,,,,
,,,,,,,,2023-08-16_08h43.42.603,HF_wild_card,2022.2.4,Win32,59.43889681,64087b8444f656e9e2b74446,64d2fd46c836a06233681665,64dc7dd51e71c1d50c779db3,,,,,,,decisionTrl,resources/DG.BMP,resources/DR.BMP,Door3,0.280555556,0.032407407,1,0,0,1.1983,optionRight,70,14965,7,8,0,8,0,1,,,,,,,,,,,,,,,,,,,,,,,,,,,,,,,,,,,,,,,
,,,,,,,,2023-08-16_08h43.42.603,HF_wild_card,2022.2.4,Win32,59.43889681,64087b8444f656e9e2b74446,64d2fd46c836a06233681665,64dc7dd51e71c1d50c779db3,,,,,,,decisionTrl,resources/DB.BMP,resources/DY.BMP,Door1,0.275925926,0.018518519,1,0,0,1.6636,optionRight,30,14995,7,9,0,9,0,1,,,,,,,,,,,,,,,,,,,,,,,,,,,,,,,,,,,,,,,
,,,,,,,,2023-08-16_08h43.42.603,HF_wild_card,2022.2.4,Win32,59.43889681,64087b8444f656e9e2b74446,64d2fd46c836a06233681665,64dc7dd51e71c1d50c779db3,,,,,,,decisionTrl,resources/DR.BMP,resources/DG.BMP,Door3,-0.175925926,-0.055555556,1,0,0,1.148,optionLeft,70,15065,7,10,0,10,0,1,,,,,,,,,,,,,,,,,,,,,,,,,,,,,,,,,,,,,,,
,,,,,,,,2023-08-16_08h43.42.603,HF_wild_card,2022.2.4,Win32,59.43889681,64087b8444f656e9e2b74446,64d2fd46c836a06233681665,64dc7dd51e71c1d50c779db3,,,,,,,ctch,resources/DY.BMP,resources/DG.BMP,Door4,0.298148148,0.023148148,1,0,0,1.0321,optionRight,60,15125,7,11,0,11,0,1,,,,,,,,,,,,,,,,,,,,,,,,,,,,,,,,,,,,,,,
,,,,,,,,2023-08-16_08h43.42.603,HF_wild_card,2022.2.4,Win32,59.43889681,64087b8444f656e9e2b74446,64d2fd46c836a06233681665,64dc7dd51e71c1d50c779db3,,,,,,,ctch,resources/DB.BMP,resources/DR.BMP,Door3,0.311111111,0.035185185,1,0,0,0.8323,optionRight,70,15195,7,12,0,12,0,1,,,,,,,,,,,,,,,,,,,,,,,,,,,,,,,,,,,,,,,
,,,,,,,,2023-08-16_08h43.42.603,HF_wild_card,2022.2.4,Win32,59.43889681,64087b8444f656e9e2b74446,64d2fd46c836a06233681665,64dc7dd51e71c1d50c779db3,,,,,,,decisionTrl,resources/DY.BMP,resources/DB.BMP,Door1,-0.176851852,-0.083333333,1,0,0,1.0318,optionLeft,30,15225,7,13,0,13,0,1,,,,,,,,,,,,,,,,,,,,,,,,,,,,,,,,,,,,,,,
,,,,,,,,2023-08-16_08h43.42.603,HF_wild_card,2022.2.4,Win32,59.43889681,64087b8444f656e9e2b74446,64d2fd46c836a06233681665,64dc7dd51e71c1d50c779db3,,,,,,,ctch,resources/DR.BMP,resources/DB.BMP,Door3,-0.189814815,-0.083333333,1,0,0,1.1324,optionLeft,70,15295,7,14,0,14,0,1,,,,,,,,,,,,,,,,,,,,,,,,,,,,,,,,,,,,,,,
,,,,,,,,2023-08-16_08h43.42.603,HF_wild_card,2022.2.4,Win32,59.43889681,64087b8444f656e9e2b74446,64d2fd46c836a06233681665,64dc7dd51e71c1d50c779db3,,,,,,,decisionTrl,resources/DB.BMP,resources/DY.BMP,Door1,0.305555556,0.033333333,1,0,0,1.1649,optionRight,30,15325,7,15,0,15,0,1,,,,,,,,,,,,,,,,,,,,,,,,,,,,,,,,,,,,,,,
,,,,,,,,2023-08-16_08h43.42.603,HF_wild_card,2022.2.4,Win32,59.43889681,64087b8444f656e9e2b74446,64d2fd46c836a06233681665,64dc7dd51e71c1d50c779db3,,,,,,,decisionTrl,resources/DY.BMP,resources/DB.BMP,Door1,-0.166666667,-0.082407407,1,0,0,0.9988,optionLeft,30,15355,7,16,0,16,0,1,,,,,,,,,,,,,,,,,,,,,,,,,,,,,,,,,,,,,,,
,,,,,,,,2023-08-16_08h43.42.603,HF_wild_card,2022.2.4,Win32,59.43889681,64087b8444f656e9e2b74446,64d2fd46c836a06233681665,64dc7dd51e71c1d50c779db3,,,,,,,decisionTrl,resources/DY.BMP,resources/DB.BMP,Door1,-0.200925926,-0.067592593,1,0,0,0.8494,optionLeft,30,15385,7,17,0,17,0,1,,,,,,,,,,,,,,,,,,,,,,,,,,,,,,,,,,,,,,,
,,,,,,,,2023-08-16_08h43.42.603,HF_wild_card,2022.2.4,Win32,59.43889681,64087b8444f656e9e2b74446,64d2fd46c836a06233681665,64dc7dd51e71c1d50c779db3,,,,,,,ctch,resources/DR.BMP,resources/DB.BMP,Door3,-0.205555556,-0.019444444,1,0,0,1.3649,optionLeft,70,15455,7,18,0,18,0,1,,,,,,,,,,,,,,,,,,,,,,,,,,,,,,,,,,,,,,,
,,,,,,,,2023-08-16_08h43.42.603,HF_wild_card,2022.2.4,Win32,59.43889681,64087b8444f656e9e2b74446,64d2fd46c836a06233681665,64dc7dd51e71c1d50c779db3,,,,,,,decisionTrl,resources/DB.BMP,resources/DY.BMP,Door1,0.311111111,0.041666667,1,0,0,0.9826,optionRight,30,15485,7,19,0,19,0,1,,,,,,,,,,,,,,,,,,,,,,,,,,,,,,,,,,,,,,,
,,,,,,,,2023-08-16_08h43.42.603,HF_wild_card,2022.2.4,Win32,59.43889681,64087b8444f656e9e2b74446,64d2fd46c836a06233681665,64dc7dd51e71c1d50c779db3,,,,,,,decisionTrl,resources/DR.BMP,resources/DG.BMP,Door3,-0.163888889,-0.037962963,1,0,0,1.0487,optionLeft,70,15555,7,20,0,20,0,1,,,,,,,,,,,,,,,,,,,,,,,,,,,,,,,,,,,,,,,
,,,,,,,,2023-08-16_08h43.42.603,HF_wild_card,2022.2.4,Win32,59.43889681,64087b8444f656e9e2b74446,64d2fd46c836a06233681665,64dc7dd51e71c1d50c779db3,,,,,,,ctch,resources/DB.BMP,resources/DR.BMP,Door3,0.310185185,0.043518519,1,0,0,1.0825,optionRight,70,15625,7,21,0,21,0,1,,,,,,,,,,,,,,,,,,,,,,,,,,,,,,,,,,,,,,,
,,,,,,,,2023-08-16_08h43.42.603,HF_wild_card,2022.2.4,Win32,59.43889681,64087b8444f656e9e2b74446,64d2fd46c836a06233681665,64dc7dd51e71c1d50c779db3,,,,,,,decisionTrl,resources/DY.BMP,resources/DB.BMP,Door1,-0.225925926,-0.013888889,1,0,0,1.3323,optionLeft,30,15655,7,22,0,22,0,1,,,,,,,,,,,,,,,,,,,,,,,,,,,,,,,,,,,,,,,
,,,,,,,,2023-08-16_08h43.42.603,HF_wild_card,2022.2.4,Win32,59.43889681,64087b8444f656e9e2b74446,64d2fd46c836a06233681665,64dc7dd51e71c1d50c779db3,,,,,,,decisionTrl,resources/DG.BMP,resources/DR.BMP,Door3,0.305555556,0.023148148,1,0,0,1.0828,optionRight,70,15725,7,23,0,23,0,1,,,,,,,,,,,,,,,,,,,,,,,,,,,,,,,,,,,,,,,
,,,,,,,,2023-08-16_08h43.42.603,HF_wild_card,2022.2.4,Win32,59.43889681,64087b8444f656e9e2b74446,64d2fd46c836a06233681665,64dc7dd51e71c1d50c779db3,,,,,,,decisionTrl,resources/DR.BMP,resources/DG.BMP,Door3,-0.19537037,-0.022222222,1,0,0,0.9828,optionLeft,70,15795,7,24,0,24,0,1,,,,,,,,,,,,,,,,,,,,,,,,,,,,,,,,,,,,,,,
,,,,,,,,2023-08-16_08h43.42.603,HF_wild_card,2022.2.4,Win32,59.43889681,64087b8444f656e9e2b74446,64d2fd46c836a06233681665,64dc7dd51e71c1d50c779db3,,,,,,,ctch,resources/DB.BMP,resources/DR.BMP,Door3,0.27962963,0.028703704,1,0,0,1.7643,optionRight,70,15865,7,25,0,25,0,1,,,,,,,,,,,,,,,,,,,,,,,,,,,,,,,,,,,,,,,
,,,,,,,,2023-08-16_08h43.42.603,HF_wild_card,2022.2.4,Win32,59.43889681,64087b8444f656e9e2b74446,64d2fd46c836a06233681665,64dc7dd51e71c1d50c779db3,,,,,,,decisionTrl,resources/DG.BMP,resources/DR.BMP,Door3,0.281481481,0.02037037,1,0,0,0.9154,optionRight,70,15935,7,26,0,26,0,1,,,,,,,,,,,,,,,,,,,,,,,,,,,,,,,,,,,,,,,
,,,,,,,,2023-08-16_08h43.42.603,HF_wild_card,2022.2.4,Win32,59.43889681,64087b8444f656e9e2b74446,64d2fd46c836a06233681665,64dc7dd51e71c1d50c779db3,,,,,,,decisionTrl,resources/DR.BMP,resources/DG.BMP,Door3,-0.19537037,-0.052777778,1,0,0,0.7315,optionLeft,70,16005,7,27,0,27,0,1,,,,,,,,,,,,,,,,,,,,,,,,,,,,,,,,,,,,,,,
,,,,,,,,2023-08-16_08h43.42.603,HF_wild_card,2022.2.4,Win32,59.43889681,64087b8444f656e9e2b74446,64d2fd46c836a06233681665,64dc7dd51e71c1d50c779db3,,,,,,,ctch,resources/DG.BMP,resources/DY.BMP,Door4,-0.185185185,-0.032407407,1,0,0,1.4157,optionLeft,80,16085,7,28,0,28,0,1,,,,,,,,,,,,,,,,,,,,,,,,,,,,,,,,,,,,,,,
,,,,,,,,2023-08-16_08h43.42.603,HF_wild_card,2022.2.4,Win32,59.43889681,64087b8444f656e9e2b74446,64d2fd46c836a06233681665,64dc7dd51e71c1d50c779db3,,,,,,,decisionTrl,resources/DY.BMP,resources/DB.BMP,Door1,-0.169444444,-0.033333333,1,0,0,0.9653,optionLeft,30,16115,7,29,0,29,0,1,,,,,,,,,,,,,,,,,,,,,,,,,,,,,,,,,,,,,,,
,,,,,,,,2023-08-16_08h43.42.603,HF_wild_card,2022.2.4,Win32,59.43889681,64087b8444f656e9e2b74446,64d2fd46c836a06233681665,64dc7dd51e71c1d50c779db3,,,,,,,decisionTrl,resources/DR.BMP,resources/DG.BMP,Door3,-0.187962963,-0.032407407,1,0,0,0.9157,optionLeft,70,16185,7,30,0,30,0,1,,,,,,,,,,,,,,,,,,,,,,,,,,,,,,,,,,,,,,,
,,,,,,,,2023-08-16_08h43.42.603,HF_wild_card,2022.2.4,Win32,59.43889681,64087b8444f656e9e2b74446,64d2fd46c836a06233681665,64dc7dd51e71c1d50c779db3,,,,,,,decisionTrl,resources/DB.BMP,resources/DY.BMP,Door1,0.274074074,-0.000925926,1,0,0,0.982,optionRight,30,16215,7,31,0,31,0,1,,,,,,,,,,,,,,,,,,,,,,,,,,,,,,,,,,,,,,,
,,,,,,,,2023-08-16_08h43.42.603,HF_wild_card,2022.2.4,Win32,59.43889681,64087b8444f656e9e2b74446,64d2fd46c836a06233681665,64dc7dd51e71c1d50c779db3,,,,,,,decisionTrl,resources/DG.BMP,resources/DR.BMP,Door3,0.244444444,0.028703704,1,0,0,1.082,optionRight,70,16285,7,32,0,32,0,1,,,,,,,,,,,,,,,,,,,,,,,,,,,,,,,,,,,,,,,
,,,,,,,,2023-08-16_08h43.42.603,HF_wild_card,2022.2.4,Win32,59.43889681,64087b8444f656e9e2b74446,64d2fd46c836a06233681665,64dc7dd51e71c1d50c779db3,,,,,,,decisionTrl,resources/DG.BMP,resources/DR.BMP,Door3,0.308333333,0.025,1,0,0,1.9152,optionRight,70,16355,7,33,0,33,0,1,,,,,,,,,,,,,,,,,,,,,,,,,,,,,,,,,,,,,,,
,,,,,,,,2023-08-16_08h43.42.603,HF_wild_card,2022.2.4,Win32,59.43889681,64087b8444f656e9e2b74446,64d2fd46c836a06233681665,64dc7dd51e71c1d50c779db3,,,,,,,ctch,resources/DR.BMP,resources/DB.BMP,Door3,-0.200925926,-0.009259259,1,0,0,1.148,optionLeft,70,16425,7,34,0,34,0,1,,,,,,,,,,,,,,,,,,,,,,,,,,,,,,,,,,,,,,,
,,,,,,,,2023-08-16_08h43.42.603,HF_wild_card,2022.2.4,Win32,59.43889681,64087b8444f656e9e2b74446,64d2fd46c836a06233681665,64dc7dd51e71c1d50c779db3,,,,,,,decisionTrl,resources/DY.BMP,resources/DB.BMP,Door1,-0.196296296,-0.033333333,1,0,0,1.4149,optionLeft,30,16455,7,35,0,35,0,1,,,,,,,,,,,,,,,,,,,,,,,,,,,,,,,,,,,,,,,
,,,,,,,,2023-08-16_08h43.42.603,HF_wild_card,2022.2.4,Win32,59.43889681,64087b8444f656e9e2b74446,64d2fd46c836a06233681665,64dc7dd51e71c1d50c779db3,,,,,,,,,,,,,,,,,,,,,,,,,,6,0,6,0,1,,,,,,,,,,,,,,,,,,,,,,,,,,,,,,,,,,
,,,,,,,,2023-08-16_08h43.42.603,HF_wild_card,2022.2.4,Win32,59.43889681,64087b8444f656e9e2b74446,64d2fd46c836a06233681665,64dc7dd51e71c1d50c779db3,,,,,,,,,,,,,,,,,,,,,,,,,,,,,,,4,,,,,,,,,,,,,,,,,,,,,,,,,,,,,,,,,
,,,,,,,,2023-08-16_08h43.42.603,HF_wild_card,2022.2.4,Win32,59.43889681,64087b8444f656e9e2b74446,64d2fd46c836a06233681665,64dc7dd51e71c1d50c779db3,,,,,,,,,,,,,,,,,,,,,,,,,,,,,,,,,,,,,,,,,,,,,,,,,,,,,,,,,,,,,,,,
,,,,,,,,2023-08-16_08h43.42.603,HF_wild_card,2022.2.4,Win32,59.43889681,64087b8444f656e9e2b74446,64d2fd46c836a06233681665,64dc7dd51e71c1d50c779db3,,,,,,,,,,,,,,,,,,,,,,,,,,,,,,,,55,WC_extreme,resources/DBN.BMP,0,0,0,0,1,,,,,,,,,,,,,,,,,,,,,,,,,
,,,,,,,,2023-08-16_08h43.42.603,HF_wild_card,2022.2.4,Win32,59.43889681,64087b8444f656e9e2b74446,64d2fd46c836a06233681665,64dc7dd51e71c1d50c779db3,,,,,,,,,,,,,,,,,,,,,,,,,,,,,,,,30,Door1,resources/DY.BMP,1,0,1,0,1,,,,,,,,,,,,,,,,,,,,,,,,,
,,,,,,,,2023-08-16_08h43.42.603,HF_wild_card,2022.2.4,Win32,59.43889681,64087b8444f656e9e2b74446,64d2fd46c836a06233681665,64dc7dd51e71c1d50c779db3,,,,,,,,,,,,,,,,,,,,,,,,,,,,,,,,20,Door2,resources/DB.BMP,2,0,2,0,1,,,,,,,,,,,,,,,,,,,,,,,,,
,,,,,,,,2023-08-16_08h43.42.603,HF_wild_card,2022.2.4,Win32,59.43889681,64087b8444f656e9e2b74446,64d2fd46c836a06233681665,64dc7dd51e71c1d50c779db3,,,,,,,,,,,,,,,,,,,,,,,,,,,,,,,,45,WC_nonExtreme,resources/DP.BMP,3,0,3,0,1,,,,,,,,,,,,,,,,,,,,,,,,,
,,,,,,,,2023-08-16_08h43.42.603,HF_wild_card,2022.2.4,Win32,59.43889681,64087b8444f656e9e2b74446,64d2fd46c836a06233681665,64dc7dd51e71c1d50c779db3,,,,,,,,,,,,,,,,,,,,,,,,,,,,,,,,70,Door3,resources/DR.BMP,4,0,4,0,1,,,,,,,,,,,,,,,,,,,,,,,,,
,,,,,,,,2023-08-16_08h43.42.603,HF_wild_card,2022.2.4,Win32,59.43889681,64087b8444f656e9e2b74446,64d2fd46c836a06233681665,64dc7dd51e71c1d50c779db3,,,,,,,,,,,,,,,,,,,,,,,,,,,,,,,,80,Door4,resources/DG.BMP,5,0,5,0,1,,,,,,,,,,,,,,,,,,,,,,,,,
,,,,,,,,2023-08-16_08h43.42.603,HF_wild_card,2022.2.4,Win32,59.43889681,64087b8444f656e9e2b74446,64d2fd46c836a06233681665,64dc7dd51e71c1d50c779db3,,,,,,,,,,,,,,,,,,,,,,,,,,,,,,,,,,,,,,,,,,,,,,,,,,,,,,,,,,,,,,,,
