Condition,Low fixed image (Door1),Low risky image (Door2),High fixed image (Door3),High risky image (Door4),Extreme Wild Card,NonExtreme Wild Card,,date,expName,psychopyVersion,OS,frameRate,PROLIFIC_PID,STUDY_ID,SESSION_ID,mouse_2.x,mouse_2.y,mouse_2.leftButton,mouse_2.midButton,mouse_2.rightButton,mouse_2.clicked_name,Trial Type,Left Option Image,Right Option Image,Chosen Door,mouse.x,mouse.y,mouse.leftButton,mouse.midButton,mouse.rightButton,mouse.time,mouse.clicked_name,Feedback,Cumulative Reward,Block,trial.thisRepN,trial.thisTrialN,trial.thisN,trial.thisIndex,trial.ran,blocks.thisRepN,blocks.thisTrialN,blocks.thisN,blocks.thisIndex,blocks.ran,Money conversion,First Outcome Reported,Shown Door (First Outcome),Displayed Image (First Outcome),outcomes.thisRepN,outcomes.thisTrialN,outcomes.thisN,outcomes.thisIndex,outcomes.ran,judgments.thisRepN,judgments.thisTrialN,judgments.thisN,judgments.thisIndex,judgments.ran,freqMouse.x,freqMouse.y,freqMouse.leftButton,freqMouse.midButton,freqMouse.rightButton,freqMouse.clicked_name,trials.thisRepN,trials.thisTrialN,trials.thisN,trials.thisIndex,trials.ran,FQJ for first outcome,FQJ for second outcome,Shown Door,Displayed Image,judgBlock.thisRepN,judgBlock.thisTrialN,judgBlock.thisN,judgBlock.thisIndex,judgBlock.ran
0,resources/DG.BMP,resources/DR.BMP,resources/DP.BMP,resources/DB.BMP,resources/DY.BMP,resources/DBN.BMP,5e4db49d96e3c32079f64790,2023-08-16_08h37.31.164,HF_wild_card,2022.2.4,MacIntel,59.80861244,5e4db49d96e3c32079f64790,64d2fd46c836a06233681665,64dc7cad63a4fd7ffd42da22,,,,,,,,,,,,,,,,,,,,,,,,,,,,,,,,,,,,,,,,,,,,,,,,,,,,,,,,,,,,,,,,
,,,,,,,5e4db49d96e3c32079f64790,2023-08-16_08h37.31.164,HF_wild_card,2022.2.4,MacIntel,59.80861244,5e4db49d96e3c32079f64790,64d2fd46c836a06233681665,64dc7cad63a4fd7ffd42da22,0.00390625,-0.427836914,1,0,0,agree,,,,,,,,,,,,,,,,,,,,,,,,,,,,,,,,,,,,,,,,,,,,,,,,,,,,,,,,,,
,,,,,,,5e4db49d96e3c32079f64790,2023-08-16_08h37.31.164,HF_wild_card,2022.2.4,MacIntel,59.80861244,5e4db49d96e3c32079f64790,64d2fd46c836a06233681665,64dc7cad63a4fd7ffd42da22,,,,,,,,,,,,,,,,,,,,,,,,,,,,,,,,,,,,,,,,,,,,,,,,,,,,,,,,,,,,,,,,
,,,,,,,5e4db49d96e3c32079f64790,2023-08-16_08h37.31.164,HF_wild_card,2022.2.4,MacIntel,59.80861244,5e4db49d96e3c32079f64790,64d2fd46c836a06233681665,64dc7cad63a4fd7ffd42da22,,,,,,,sngl,resources/Empty.png,resources/DY.BMP,WildCard_Ex,0.420219727,-0.068574219,1,0,0,13.2876,optionRight,5,5,1,0,0,0,0,1,,,,,,,,,,,,,,,,,,,,,,,,,,,,,,,,,,,,,,,
,,,,,,,5e4db49d96e3c32079f64790,2023-08-16_08h37.31.164,HF_wild_card,2022.2.4,MacIntel,59.80861244,5e4db49d96e3c32079f64790,64d2fd46c836a06233681665,64dc7cad63a4fd7ffd42da22,,,,,,,decisionTrl,resources/DP.BMP,resources/DB.BMP,Door3,-0.377524414,-0.064804687,1,0,0,2.8871,optionLeft,70,75,1,1,0,1,0,1,,,,,,,,,,,,,,,,,,,,,,,,,,,,,,,,,,,,,,,
,,,,,,,5e4db49d96e3c32079f64790,2023-08-16_08h37.31.164,HF_wild_card,2022.2.4,MacIntel,59.80861244,5e4db49d96e3c32079f64790,64d2fd46c836a06233681665,64dc7cad63a4fd7ffd42da22,,,,,,,sngl,resources/DB.BMP,resources/Empty.png,Door4,-0.365234375,-0.034306641,1,0,0,0.8796,optionLeft,80,155,1,2,0,2,0,1,,,,,,,,,,,,,,,,,,,,,,,,,,,,,,,,,,,,,,,
,,,,,,,5e4db49d96e3c32079f64790,2023-08-16_08h37.31.164,HF_wild_card,2022.2.4,MacIntel,59.80861244,5e4db49d96e3c32079f64790,64d2fd46c836a06233681665,64dc7cad63a4fd7ffd42da22,,,,,,,sngl,resources/DY.BMP,resources/Empty.png,WildCard_Ex,-0.408618164,-0.02862793,1,0,0,0.7893,optionLeft,95,250,1,3,0,3,0,1,,,,,,,,,,,,,,,,,,,,,,,,,,,,,,,,,,,,,,,
,,,,,,,5e4db49d96e3c32079f64790,2023-08-16_08h37.31.164,HF_wild_card,2022.2.4,MacIntel,59.80861244,5e4db49d96e3c32079f64790,64d2fd46c836a06233681665,64dc7cad63a4fd7ffd42da22,,,,,,,decisionTrl,resources/DP.BMP,resources/DB.BMP,Door4,0.38265625,-0.034111328,1,0,0,1.4006,optionRight,60,310,1,4,0,4,0,1,,,,,,,,,,,,,,,,,,,,,,,,,,,,,,,,,,,,,,,
,,,,,,,5e4db49d96e3c32079f64790,2023-08-16_08h37.31.164,HF_wild_card,2022.2.4,MacIntel,59.80861244,5e4db49d96e3c32079f64790,64d2fd46c836a06233681665,64dc7cad63a4fd7ffd42da22,,,,,,,decisionTrl,resources/DB.BMP,resources/DP.BMP,Door4,-0.296660156,-0.061494141,1,0,0,0.9767,optionLeft,60,370,1,5,0,5,0,1,,,,,,,,,,,,,,,,,,,,,,,,,,,,,,,,,,,,,,,
,,,,,,,5e4db49d96e3c32079f64790,2023-08-16_08h37.31.164,HF_wild_card,2022.2.4,MacIntel,59.80861244,5e4db49d96e3c32079f64790,64d2fd46c836a06233681665,64dc7cad63a4fd7ffd42da22,,,,,,,decisionTrl,resources/DR.BMP,resources/DG.BMP,Door1,0.390566406,-0.025639648,1,0,0,1.7364,optionRight,30,400,1,6,0,6,0,1,,,,,,,,,,,,,,,,,,,,,,,,,,,,,,,,,,,,,,,
,,,,,,,5e4db49d96e3c32079f64790,2023-08-16_08h37.31.164,HF_wild_card,2022.2.4,MacIntel,59.80861244,5e4db49d96e3c32079f64790,64d2fd46c836a06233681665,64dc7cad63a4fd7ffd42da22,,,,,,,sngl,resources/Empty.png,resources/DY.BMP,WildCard_Ex,0.389921875,-0.033466797,1,0,0,1.1462,optionRight,95,495,1,7,0,7,0,1,,,,,,,,,,,,,,,,,,,,,,,,,,,,,,,,,,,,,,,
,,,,,,,5e4db49d96e3c32079f64790,2023-08-16_08h37.31.164,HF_wild_card,2022.2.4,MacIntel,59.80861244,5e4db49d96e3c32079f64790,64d2fd46c836a06233681665,64dc7cad63a4fd7ffd42da22,,,,,,,sngl,resources/DR.BMP,resources/Empty.png,Door2,-0.425043945,-0.032368164,1,0,0,0.8867,optionLeft,40,535,1,8,0,8,0,1,,,,,,,,,,,,,,,,,,,,,,,,,,,,,,,,,,,,,,,
,,,,,,,5e4db49d96e3c32079f64790,2023-08-16_08h37.31.164,HF_wild_card,2022.2.4,MacIntel,59.80861244,5e4db49d96e3c32079f64790,64d2fd46c836a06233681665,64dc7cad63a4fd7ffd42da22,,,,,,,decisionTrl,resources/DR.BMP,resources/DG.BMP,Door2,-0.349228516,-0.06472168,1,0,0,1.4114,optionLeft,20,555,1,9,0,9,0,1,,,,,,,,,,,,,,,,,,,,,,,,,,,,,,,,,,,,,,,
,,,,,,,5e4db49d96e3c32079f64790,2023-08-16_08h37.31.164,HF_wild_card,2022.2.4,MacIntel,59.80861244,5e4db49d96e3c32079f64790,64d2fd46c836a06233681665,64dc7cad63a4fd7ffd42da22,,,,,,,decisionTrl,resources/DG.BMP,resources/DY.BMP,Door1,-0.348974609,-0.037797852,1,0,0,0.8016,optionLeft,30,585,1,10,0,10,0,1,,,,,,,,,,,,,,,,,,,,,,,,,,,,,,,,,,,,,,,
,,,,,,,5e4db49d96e3c32079f64790,2023-08-16_08h37.31.164,HF_wild_card,2022.2.4,MacIntel,59.80861244,5e4db49d96e3c32079f64790,64d2fd46c836a06233681665,64dc7cad63a4fd7ffd42da22,,,,,,,decisionTrl,resources/DG.BMP,resources/DR.BMP,Door1,-0.31190918,-0.051401367,1,0,0,1.413,optionLeft,30,615,1,11,0,11,0,1,,,,,,,,,,,,,,,,,,,,,,,,,,,,,,,,,,,,,,,
,,,,,,,5e4db49d96e3c32079f64790,2023-08-16_08h37.31.164,HF_wild_card,2022.2.4,MacIntel,59.80861244,5e4db49d96e3c32079f64790,64d2fd46c836a06233681665,64dc7cad63a4fd7ffd42da22,,,,,,,decisionTrl,resources/DY.BMP,resources/DP.BMP,WildCard_Ex,-0.373891602,-0.067958984,1,0,0,1.5201,optionLeft,95,710,1,12,0,12,0,1,,,,,,,,,,,,,,,,,,,,,,,,,,,,,,,,,,,,,,,
,,,,,,,5e4db49d96e3c32079f64790,2023-08-16_08h37.31.164,HF_wild_card,2022.2.4,MacIntel,59.80861244,5e4db49d96e3c32079f64790,64d2fd46c836a06233681665,64dc7cad63a4fd7ffd42da22,,,,,,,decisionTrl,resources/DY.BMP,resources/DG.BMP,WildCard_Ex,-0.33472168,-0.035454102,1,0,0,0.6495,optionLeft,5,715,1,13,0,13,0,1,,,,,,,,,,,,,,,,,,,,,,,,,,,,,,,,,,,,,,,
,,,,,,,5e4db49d96e3c32079f64790,2023-08-16_08h37.31.164,HF_wild_card,2022.2.4,MacIntel,59.80861244,5e4db49d96e3c32079f64790,64d2fd46c836a06233681665,64dc7cad63a4fd7ffd42da22,,,,,,,decisionTrl,resources/DP.BMP,resources/DY.BMP,WildCard_Ex,0.404311523,-0.066479492,1,0,0,1.0433,optionRight,5,720,1,14,0,14,0,1,,,,,,,,,,,,,,,,,,,,,,,,,,,,,,,,,,,,,,,
,,,,,,,5e4db49d96e3c32079f64790,2023-08-16_08h37.31.164,HF_wild_card,2022.2.4,MacIntel,59.80861244,5e4db49d96e3c32079f64790,64d2fd46c836a06233681665,64dc7cad63a4fd7ffd42da22,,,,,,,decisionTrl,resources/DR.BMP,resources/DG.BMP,Door1,0.380161133,-0.037958984,1,0,0,1.1782,optionRight,30,750,1,15,0,15,0,1,,,,,,,,,,,,,,,,,,,,,,,,,,,,,,,,,,,,,,,
,,,,,,,5e4db49d96e3c32079f64790,2023-08-16_08h37.31.164,HF_wild_card,2022.2.4,MacIntel,59.80861244,5e4db49d96e3c32079f64790,64d2fd46c836a06233681665,64dc7cad63a4fd7ffd42da22,,,,,,,decisionTrl,resources/DR.BMP,resources/DG.BMP,Door1,0.46125,-0.056723633,1,0,0,1.0419,optionRight,30,780,1,16,0,16,0,1,,,,,,,,,,,,,,,,,,,,,,,,,,,,,,,,,,,,,,,
,,,,,,,5e4db49d96e3c32079f64790,2023-08-16_08h37.31.164,HF_wild_card,2022.2.4,MacIntel,59.80861244,5e4db49d96e3c32079f64790,64d2fd46c836a06233681665,64dc7cad63a4fd7ffd42da22,,,,,,,ctch,resources/DG.BMP,resources/DB.BMP,Door4,0.373100586,-0.04152832,1,0,0,1.1128,optionRight,80,860,1,17,0,17,0,1,,,,,,,,,,,,,,,,,,,,,,,,,,,,,,,,,,,,,,,
,,,,,,,5e4db49d96e3c32079f64790,2023-08-16_08h37.31.164,HF_wild_card,2022.2.4,MacIntel,59.80861244,5e4db49d96e3c32079f64790,64d2fd46c836a06233681665,64dc7cad63a4fd7ffd42da22,,,,,,,ctch,resources/DP.BMP,resources/DR.BMP,Door3,-0.350712891,-0.062963867,1,0,0,0.9912,optionLeft,70,930,1,18,0,18,0,1,,,,,,,,,,,,,,,,,,,,,,,,,,,,,,,,,,,,,,,
,,,,,,,5e4db49d96e3c32079f64790,2023-08-16_08h37.31.164,HF_wild_card,2022.2.4,MacIntel,59.80861244,5e4db49d96e3c32079f64790,64d2fd46c836a06233681665,64dc7cad63a4fd7ffd42da22,,,,,,,decisionTrl,resources/DG.BMP,resources/DR.BMP,Door1,-0.322084961,-0.030131836,1,0,0,1.2989,optionLeft,30,960,1,19,0,19,0,1,,,,,,,,,,,,,,,,,,,,,,,,,,,,,,,,,,,,,,,
,,,,,,,5e4db49d96e3c32079f64790,2023-08-16_08h37.31.164,HF_wild_card,2022.2.4,MacIntel,59.80861244,5e4db49d96e3c32079f64790,64d2fd46c836a06233681665,64dc7cad63a4fd7ffd42da22,,,,,,,decisionTrl,resources/DB.BMP,resources/DP.BMP,Door3,0.371777344,-0.0515625,1,0,0,0.77,optionRight,70,1030,1,20,0,20,0,1,,,,,,,,,,,,,,,,,,,,,,,,,,,,,,,,,,,,,,,
,,,,,,,5e4db49d96e3c32079f64790,2023-08-16_08h37.31.164,HF_wild_card,2022.2.4,MacIntel,59.80861244,5e4db49d96e3c32079f64790,64d2fd46c836a06233681665,64dc7cad63a4fd7ffd42da22,,,,,,,sngl,resources/Empty.png,resources/DB.BMP,Door4,0.359560547,-0.039008789,1,0,0,0.6978,optionRight,60,1090,1,21,0,21,0,1,,,,,,,,,,,,,,,,,,,,,,,,,,,,,,,,,,,,,,,
,,,,,,,5e4db49d96e3c32079f64790,2023-08-16_08h37.31.164,HF_wild_card,2022.2.4,MacIntel,59.80861244,5e4db49d96e3c32079f64790,64d2fd46c836a06233681665,64dc7cad63a4fd7ffd42da22,,,,,,,decisionTrl,resources/DR.BMP,resources/DY.BMP,WildCard_Ex,0.34640625,-0.033637695,1,0,0,1.1524,optionRight,95,1185,1,22,0,22,0,1,,,,,,,,,,,,,,,,,,,,,,,,,,,,,,,,,,,,,,,
,,,,,,,5e4db49d96e3c32079f64790,2023-08-16_08h37.31.164,HF_wild_card,2022.2.4,MacIntel,59.80861244,5e4db49d96e3c32079f64790,64d2fd46c836a06233681665,64dc7cad63a4fd7ffd42da22,,,,,,,ctch,resources/DB.BMP,resources/DG.BMP,Door1,0.35184082,-0.027060547,1,0,0,1.6687,optionRight,30,1215,1,23,0,23,0,1,,,,,,,,,,,,,,,,,,,,,,,,,,,,,,,,,,,,,,,
,,,,,,,5e4db49d96e3c32079f64790,2023-08-16_08h37.31.164,HF_wild_card,2022.2.4,MacIntel,59.80861244,5e4db49d96e3c32079f64790,64d2fd46c836a06233681665,64dc7cad63a4fd7ffd42da22,,,,,,,sngl,resources/Empty.png,resources/DG.BMP,Door1,0.246904297,-0.073676758,1,0,0,0.572,optionRight,30,1245,1,24,0,24,0,1,,,,,,,,,,,,,,,,,,,,,,,,,,,,,,,,,,,,,,,
,,,,,,,5e4db49d96e3c32079f64790,2023-08-16_08h37.31.164,HF_wild_card,2022.2.4,MacIntel,59.80861244,5e4db49d96e3c32079f64790,64d2fd46c836a06233681665,64dc7cad63a4fd7ffd42da22,,,,,,,decisionTrl,resources/DP.BMP,resources/DB.BMP,Door4,0.231308594,-0.016328125,1,0,0,0.5031,optionRight,60,1305,1,25,0,25,0,1,,,,,,,,,,,,,,,,,,,,,,,,,,,,,,,,,,,,,,,
,,,,,,,5e4db49d96e3c32079f64790,2023-08-16_08h37.31.164,HF_wild_card,2022.2.4,MacIntel,59.80861244,5e4db49d96e3c32079f64790,64d2fd46c836a06233681665,64dc7cad63a4fd7ffd42da22,,,,,,,decisionTrl,resources/DB.BMP,resources/DP.BMP,Door4,-0.323105469,0.010996094,1,0,0,0.6724,optionLeft,60,1365,1,26,0,26,0,1,,,,,,,,,,,,,,,,,,,,,,,,,,,,,,,,,,,,,,,
,,,,,,,5e4db49d96e3c32079f64790,2023-08-16_08h37.31.164,HF_wild_card,2022.2.4,MacIntel,59.80861244,5e4db49d96e3c32079f64790,64d2fd46c836a06233681665,64dc7cad63a4fd7ffd42da22,,,,,,,sngl,resources/DY.BMP,resources/Empty.png,WildCard_Ex,-0.242719727,0.01496582,1,0,0,0.5642,optionLeft,5,1370,1,27,0,27,0,1,,,,,,,,,,,,,,,,,,,,,,,,,,,,,,,,,,,,,,,
,,,,,,,5e4db49d96e3c32079f64790,2023-08-16_08h37.31.164,HF_wild_card,2022.2.4,MacIntel,59.80861244,5e4db49d96e3c32079f64790,64d2fd46c836a06233681665,64dc7cad63a4fd7ffd42da22,,,,,,,ctch,resources/DP.BMP,resources/DR.BMP,Door2,0.269658203,-0.088994141,1,0,0,0.6495,optionRight,40,1410,1,28,0,28,0,1,,,,,,,,,,,,,,,,,,,,,,,,,,,,,,,,,,,,,,,
,,,,,,,5e4db49d96e3c32079f64790,2023-08-16_08h37.31.164,HF_wild_card,2022.2.4,MacIntel,59.80861244,5e4db49d96e3c32079f64790,64d2fd46c836a06233681665,64dc7cad63a4fd7ffd42da22,,,,,,,decisionTrl,resources/DG.BMP,resources/DR.BMP,Door1,-0.263349609,0.025986328,1,0,0,0.6196,optionLeft,30,1440,1,29,0,29,0,1,,,,,,,,,,,,,,,,,,,,,,,,,,,,,,,,,,,,,,,
,,,,,,,5e4db49d96e3c32079f64790,2023-08-16_08h37.31.164,HF_wild_card,2022.2.4,MacIntel,59.80861244,5e4db49d96e3c32079f64790,64d2fd46c836a06233681665,64dc7cad63a4fd7ffd42da22,,,,,,,ctch,resources/DR.BMP,resources/DP.BMP,Door2,-0.306708984,0.024272461,1,0,0,0.7872,optionLeft,40,1480,1,30,0,30,0,1,,,,,,,,,,,,,,,,,,,,,,,,,,,,,,,,,,,,,,,
,,,,,,,5e4db49d96e3c32079f64790,2023-08-16_08h37.31.164,HF_wild_card,2022.2.4,MacIntel,59.80861244,5e4db49d96e3c32079f64790,64d2fd46c836a06233681665,64dc7cad63a4fd7ffd42da22,,,,,,,ctch,resources/DB.BMP,resources/DG.BMP,Door1,0.327944336,-0.092636719,1,0,0,0.5689,optionRight,30,1510,1,31,0,31,0,1,,,,,,,,,,,,,,,,,,,,,,,,,,,,,,,,,,,,,,,
,,,,,,,5e4db49d96e3c32079f64790,2023-08-16_08h37.31.164,HF_wild_card,2022.2.4,MacIntel,59.80861244,5e4db49d96e3c32079f64790,64d2fd46c836a06233681665,64dc7cad63a4fd7ffd42da22,,,,,,,sngl,resources/Empty.png,resources/DP.BMP,Door3,0.310703125,-0.077314453,1,0,0,0.5039,optionRight,70,1580,1,32,0,32,0,1,,,,,,,,,,,,,,,,,,,,,,,,,,,,,,,,,,,,,,,
,,,,,,,5e4db49d96e3c32079f64790,2023-08-16_08h37.31.164,HF_wild_card,2022.2.4,MacIntel,59.80861244,5e4db49d96e3c32079f64790,64d2fd46c836a06233681665,64dc7cad63a4fd7ffd42da22,,,,,,,decisionTrl,resources/DG.BMP,resources/DR.BMP,Door2,0.353291016,-0.082416992,1,0,0,0.7721,optionRight,20,1600,1,33,0,33,0,1,,,,,,,,,,,,,,,,,,,,,,,,,,,,,,,,,,,,,,,
,,,,,,,5e4db49d96e3c32079f64790,2023-08-16_08h37.31.164,HF_wild_card,2022.2.4,MacIntel,59.80861244,5e4db49d96e3c32079f64790,64d2fd46c836a06233681665,64dc7cad63a4fd7ffd42da22,,,,,,,decisionTrl,resources/DY.BMP,resources/DB.BMP,WildCard_Ex,-0.310966797,-0.01715332,1,0,0,1.1986,optionLeft,95,1695,1,34,0,34,0,1,,,,,,,,,,,,,,,,,,,,,,,,,,,,,,,,,,,,,,,
,,,,,,,5e4db49d96e3c32079f64790,2023-08-16_08h37.31.164,HF_wild_card,2022.2.4,MacIntel,59.80861244,5e4db49d96e3c32079f64790,64d2fd46c836a06233681665,64dc7cad63a4fd7ffd42da22,,,,,,,ctch,resources/DR.BMP,resources/DP.BMP,Door3,0.267036133,-0.094443359,1,0,0,0.7594,optionRight,70,1765,1,35,0,35,0,1,,,,,,,,,,,,,,,,,,,,,,,,,,,,,,,,,,,,,,,
,,,,,,,5e4db49d96e3c32079f64790,2023-08-16_08h37.31.164,HF_wild_card,2022.2.4,MacIntel,59.80861244,5e4db49d96e3c32079f64790,64d2fd46c836a06233681665,64dc7cad63a4fd7ffd42da22,,,,,,,sngl,resources/DP.BMP,resources/Empty.png,Door3,-0.326044922,0.011186523,1,0,0,0.5765,optionLeft,70,1835,1,36,0,36,0,1,,,,,,,,,,,,,,,,,,,,,,,,,,,,,,,,,,,,,,,
,,,,,,,5e4db49d96e3c32079f64790,2023-08-16_08h37.31.164,HF_wild_card,2022.2.4,MacIntel,59.80861244,5e4db49d96e3c32079f64790,64d2fd46c836a06233681665,64dc7cad63a4fd7ffd42da22,,,,,,,sngl,resources/DG.BMP,resources/Empty.png,Door1,-0.280493164,0.016240234,1,0,0,0.5606,optionLeft,30,1865,1,37,0,37,0,1,,,,,,,,,,,,,,,,,,,,,,,,,,,,,,,,,,,,,,,
,,,,,,,5e4db49d96e3c32079f64790,2023-08-16_08h37.31.164,HF_wild_card,2022.2.4,MacIntel,59.80861244,5e4db49d96e3c32079f64790,64d2fd46c836a06233681665,64dc7cad63a4fd7ffd42da22,,,,,,,decisionTrl,resources/DB.BMP,resources/DY.BMP,WildCard_Ex,0.330498047,-0.086381836,1,0,0,0.6183,optionRight,95,1960,1,38,0,38,0,1,,,,,,,,,,,,,,,,,,,,,,,,,,,,,,,,,,,,,,,
,,,,,,,5e4db49d96e3c32079f64790,2023-08-16_08h37.31.164,HF_wild_card,2022.2.4,MacIntel,59.80861244,5e4db49d96e3c32079f64790,64d2fd46c836a06233681665,64dc7cad63a4fd7ffd42da22,,,,,,,sngl,resources/Empty.png,resources/DR.BMP,Door2,0.304609375,-0.090317383,1,0,0,0.5725,optionRight,20,1980,1,39,0,39,0,1,,,,,,,,,,,,,,,,,,,,,,,,,,,,,,,,,,,,,,,
,,,,,,,5e4db49d96e3c32079f64790,2023-08-16_08h37.31.164,HF_wild_card,2022.2.4,MacIntel,59.80861244,5e4db49d96e3c32079f64790,64d2fd46c836a06233681665,64dc7cad63a4fd7ffd42da22,,,,,,,decisionTrl,resources/DP.BMP,resources/DB.BMP,Door3,-0.31855957,-0.007075195,1,0,0,1.3807,optionLeft,70,2050,1,40,0,40,0,1,,,,,,,,,,,,,,,,,,,,,,,,,,,,,,,,,,,,,,,
,,,,,,,5e4db49d96e3c32079f64790,2023-08-16_08h37.31.164,HF_wild_card,2022.2.4,MacIntel,59.80861244,5e4db49d96e3c32079f64790,64d2fd46c836a06233681665,64dc7cad63a4fd7ffd42da22,,,,,,,decisionTrl,resources/DB.BMP,resources/DP.BMP,Door3,0.359614258,-0.08940918,1,0,0,0.577,optionRight,70,2120,1,41,0,41,0,1,,,,,,,,,,,,,,,,,,,,,,,,,,,,,,,,,,,,,,,
,,,,,,,5e4db49d96e3c32079f64790,2023-08-16_08h37.31.164,HF_wild_card,2022.2.4,MacIntel,59.80861244,5e4db49d96e3c32079f64790,64d2fd46c836a06233681665,64dc7cad63a4fd7ffd42da22,,,,,,,ctch,resources/DG.BMP,resources/DB.BMP,Door1,-0.257631836,0.001728516,1,0,0,1.035,optionLeft,30,2150,1,42,0,42,0,1,,,,,,,,,,,,,,,,,,,,,,,,,,,,,,,,,,,,,,,
,,,,,,,5e4db49d96e3c32079f64790,2023-08-16_08h37.31.164,HF_wild_card,2022.2.4,MacIntel,59.80861244,5e4db49d96e3c32079f64790,64d2fd46c836a06233681665,64dc7cad63a4fd7ffd42da22,,,,,,,decisionTrl,resources/DY.BMP,resources/DR.BMP,WildCard_Ex,-0.277241211,0.021748047,1,0,0,0.9233,optionLeft,5,2155,1,43,0,43,0,1,,,,,,,,,,,,,,,,,,,,,,,,,,,,,,,,,,,,,,,
,,,,,,,5e4db49d96e3c32079f64790,2023-08-16_08h37.31.164,HF_wild_card,2022.2.4,MacIntel,59.80861244,5e4db49d96e3c32079f64790,64d2fd46c836a06233681665,64dc7cad63a4fd7ffd42da22,,,,,,,,,,,,,,,,,,,,,,,,,,0,0,0,0,1,,,,,,,,,,,,,,,,,,,,,,,,,,,,,,,,,,
,,,,,,,5e4db49d96e3c32079f64790,2023-08-16_08h37.31.164,HF_wild_card,2022.2.4,MacIntel,59.80861244,5e4db49d96e3c32079f64790,64d2fd46c836a06233681665,64dc7cad63a4fd7ffd42da22,,,,,,,decisionTrl,resources/DP.BMP,resources/DB.BMP,Door3,-0.321894531,-0.05581543,1,0,0,1.1421,optionLeft,70,2225,2,0,0,0,0,1,,,,,,,,,,,,,,,,,,,,,,,,,,,,,,,,,,,,,,,
,,,,,,,5e4db49d96e3c32079f64790,2023-08-16_08h37.31.164,HF_wild_card,2022.2.4,MacIntel,59.80861244,5e4db49d96e3c32079f64790,64d2fd46c836a06233681665,64dc7cad63a4fd7ffd42da22,,,,,,,sngl,resources/Empty.png,resources/DP.BMP,Door3,0.332475586,-0.070078125,1,0,0,0.5505,optionRight,70,2295,2,1,0,1,0,1,,,,,,,,,,,,,,,,,,,,,,,,,,,,,,,,,,,,,,,
,,,,,,,5e4db49d96e3c32079f64790,2023-08-16_08h37.31.164,HF_wild_card,2022.2.4,MacIntel,59.80861244,5e4db49d96e3c32079f64790,64d2fd46c836a06233681665,64dc7cad63a4fd7ffd42da22,,,,,,,sngl,resources/Empty.png,resources/DY.BMP,WildCard_Ex,0.311845703,-0.061269531,1,0,0,0.5192,optionRight,95,2390,2,2,0,2,0,1,,,,,,,,,,,,,,,,,,,,,,,,,,,,,,,,,,,,,,,
,,,,,,,5e4db49d96e3c32079f64790,2023-08-16_08h37.31.164,HF_wild_card,2022.2.4,MacIntel,59.80861244,5e4db49d96e3c32079f64790,64d2fd46c836a06233681665,64dc7cad63a4fd7ffd42da22,,,,,,,sngl,resources/Empty.png,resources/DG.BMP,Door1,0.317705078,-0.072895508,1,0,0,0.5165,optionRight,30,2420,2,3,0,3,0,1,,,,,,,,,,,,,,,,,,,,,,,,,,,,,,,,,,,,,,,
,,,,,,,5e4db49d96e3c32079f64790,2023-08-16_08h37.31.164,HF_wild_card,2022.2.4,MacIntel,59.80861244,5e4db49d96e3c32079f64790,64d2fd46c836a06233681665,64dc7cad63a4fd7ffd42da22,,,,,,,ctch,resources/DR.BMP,resources/DP.BMP,Door2,-0.337412109,0.032563477,1,0,0,0.7407,optionLeft,20,2440,2,4,0,4,0,1,,,,,,,,,,,,,,,,,,,,,,,,,,,,,,,,,,,,,,,
,,,,,,,5e4db49d96e3c32079f64790,2023-08-16_08h37.31.164,HF_wild_card,2022.2.4,MacIntel,59.80861244,5e4db49d96e3c32079f64790,64d2fd46c836a06233681665,64dc7cad63a4fd7ffd42da22,,,,,,,decisionTrl,resources/DY.BMP,resources/DR.BMP,WildCard_Ex,-0.307583008,-0.003696289,1,0,0,0.911,optionLeft,95,2535,2,5,0,5,0,1,,,,,,,,,,,,,,,,,,,,,,,,,,,,,,,,,,,,,,,
,,,,,,,5e4db49d96e3c32079f64790,2023-08-16_08h37.31.164,HF_wild_card,2022.2.4,MacIntel,59.80861244,5e4db49d96e3c32079f64790,64d2fd46c836a06233681665,64dc7cad63a4fd7ffd42da22,,,,,,,decisionTrl,resources/DG.BMP,resources/DR.BMP,Door1,-0.268696289,-0.000673828,1,0,0,1.4044,optionLeft,30,2565,2,6,0,6,0,1,,,,,,,,,,,,,,,,,,,,,,,,,,,,,,,,,,,,,,,
,,,,,,,5e4db49d96e3c32079f64790,2023-08-16_08h37.31.164,HF_wild_card,2022.2.4,MacIntel,59.80861244,5e4db49d96e3c32079f64790,64d2fd46c836a06233681665,64dc7cad63a4fd7ffd42da22,,,,,,,decisionTrl,resources/DP.BMP,resources/DB.BMP,Door3,-0.303110352,-0.035214844,1,0,0,0.9241,optionLeft,70,2635,2,7,0,7,0,1,,,,,,,,,,,,,,,,,,,,,,,,,,,,,,,,,,,,,,,
,,,,,,,5e4db49d96e3c32079f64790,2023-08-16_08h37.31.164,HF_wild_card,2022.2.4,MacIntel,59.80861244,5e4db49d96e3c32079f64790,64d2fd46c836a06233681665,64dc7cad63a4fd7ffd42da22,,,,,,,decisionTrl,resources/DB.BMP,resources/DP.BMP,Door3,0.344985352,-0.080131836,1,0,0,0.9104,optionRight,70,2705,2,8,0,8,0,1,,,,,,,,,,,,,,,,,,,,,,,,,,,,,,,,,,,,,,,
,,,,,,,5e4db49d96e3c32079f64790,2023-08-16_08h37.31.164,HF_wild_card,2022.2.4,MacIntel,59.80861244,5e4db49d96e3c32079f64790,64d2fd46c836a06233681665,64dc7cad63a4fd7ffd42da22,,,,,,,sngl,resources/DB.BMP,resources/Empty.png,Door4,-0.365258789,-0.000986328,1,0,0,0.613,optionLeft,60,2765,2,9,0,9,0,1,,,,,,,,,,,,,,,,,,,,,,,,,,,,,,,,,,,,,,,
,,,,,,,5e4db49d96e3c32079f64790,2023-08-16_08h37.31.164,HF_wild_card,2022.2.4,MacIntel,59.80861244,5e4db49d96e3c32079f64790,64d2fd46c836a06233681665,64dc7cad63a4fd7ffd42da22,,,,,,,sngl,resources/Empty.png,resources/DY.BMP,WildCard_Ex,0.385537109,-0.097265625,1,0,0,0.5029,optionRight,5,2770,2,10,0,10,0,1,,,,,,,,,,,,,,,,,,,,,,,,,,,,,,,,,,,,,,,
,,,,,,,5e4db49d96e3c32079f64790,2023-08-16_08h37.31.164,HF_wild_card,2022.2.4,MacIntel,59.80861244,5e4db49d96e3c32079f64790,64d2fd46c836a06233681665,64dc7cad63a4fd7ffd42da22,,,,,,,decisionTrl,resources/DY.BMP,resources/DG.BMP,WildCard_Ex,-0.338203125,0.006079102,1,0,0,0.495,optionLeft,5,2775,2,11,0,11,0,1,,,,,,,,,,,,,,,,,,,,,,,,,,,,,,,,,,,,,,,
,,,,,,,5e4db49d96e3c32079f64790,2023-08-16_08h37.31.164,HF_wild_card,2022.2.4,MacIntel,59.80861244,5e4db49d96e3c32079f64790,64d2fd46c836a06233681665,64dc7cad63a4fd7ffd42da22,,,,,,,decisionTrl,resources/DG.BMP,resources/DR.BMP,Door1,-0.241411133,-0.047387695,1,0,0,1.1705,optionLeft,30,2805,2,12,0,12,0,1,,,,,,,,,,,,,,,,,,,,,,,,,,,,,,,,,,,,,,,
,,,,,,,5e4db49d96e3c32079f64790,2023-08-16_08h37.31.164,HF_wild_card,2022.2.4,MacIntel,59.80861244,5e4db49d96e3c32079f64790,64d2fd46c836a06233681665,64dc7cad63a4fd7ffd42da22,,,,,,,decisionTrl,resources/DG.BMP,resources/DR.BMP,Door1,-0.29875,-0.037836914,1,0,0,0.9816,optionLeft,30,2835,2,13,0,13,0,1,,,,,,,,,,,,,,,,,,,,,,,,,,,,,,,,,,,,,,,
,,,,,,,5e4db49d96e3c32079f64790,2023-08-16_08h37.31.164,HF_wild_card,2022.2.4,MacIntel,59.80861244,5e4db49d96e3c32079f64790,64d2fd46c836a06233681665,64dc7cad63a4fd7ffd42da22,,,,,,,sngl,resources/DY.BMP,resources/Empty.png,WildCard_Ex,-0.29984375,0.007368164,1,0,0,0.5822,optionLeft,95,2930,2,14,0,14,0,1,,,,,,,,,,,,,,,,,,,,,,,,,,,,,,,,,,,,,,,
,,,,,,,5e4db49d96e3c32079f64790,2023-08-16_08h37.31.164,HF_wild_card,2022.2.4,MacIntel,59.80861244,5e4db49d96e3c32079f64790,64d2fd46c836a06233681665,64dc7cad63a4fd7ffd42da22,,,,,,,sngl,resources/Empty.png,resources/DR.BMP,Door2,0.211523437,-0.071386719,1,0,0,0.6153,optionRight,40,2970,2,15,0,15,0,1,,,,,,,,,,,,,,,,,,,,,,,,,,,,,,,,,,,,,,,
,,,,,,,5e4db49d96e3c32079f64790,2023-08-16_08h37.31.164,HF_wild_card,2022.2.4,MacIntel,59.80861244,5e4db49d96e3c32079f64790,64d2fd46c836a06233681665,64dc7cad63a4fd7ffd42da22,,,,,,,sngl,resources/DY.BMP,resources/Empty.png,WildCard_Ex,-0.304814453,-0.019399414,1,0,0,0.5841,optionLeft,5,2975,2,16,0,16,0,1,,,,,,,,,,,,,,,,,,,,,,,,,,,,,,,,,,,,,,,
,,,,,,,5e4db49d96e3c32079f64790,2023-08-16_08h37.31.164,HF_wild_card,2022.2.4,MacIntel,59.80861244,5e4db49d96e3c32079f64790,64d2fd46c836a06233681665,64dc7cad63a4fd7ffd42da22,,,,,,,decisionTrl,resources/DY.BMP,resources/DP.BMP,WildCard_Ex,-0.261401367,-0.03809082,1,0,0,1.1264,optionLeft,95,3070,2,17,0,17,0,1,,,,,,,,,,,,,,,,,,,,,,,,,,,,,,,,,,,,,,,
,,,,,,,5e4db49d96e3c32079f64790,2023-08-16_08h37.31.164,HF_wild_card,2022.2.4,MacIntel,59.80861244,5e4db49d96e3c32079f64790,64d2fd46c836a06233681665,64dc7cad63a4fd7ffd42da22,,,,,,,decisionTrl,resources/DY.BMP,resources/DB.BMP,WildCard_Ex,-0.298022461,0.023808594,1,0,0,0.5039,optionLeft,95,3165,2,18,0,18,0,1,,,,,,,,,,,,,,,,,,,,,,,,,,,,,,,,,,,,,,,
,,,,,,,5e4db49d96e3c32079f64790,2023-08-16_08h37.31.164,HF_wild_card,2022.2.4,MacIntel,59.80861244,5e4db49d96e3c32079f64790,64d2fd46c836a06233681665,64dc7cad63a4fd7ffd42da22,,,,,,,decisionTrl,resources/DB.BMP,resources/DY.BMP,WildCard_Ex,0.313867187,-0.084487305,1,0,0,0.5028,optionRight,95,3260,2,19,0,19,0,1,,,,,,,,,,,,,,,,,,,,,,,,,,,,,,,,,,,,,,,
,,,,,,,5e4db49d96e3c32079f64790,2023-08-16_08h37.31.164,HF_wild_card,2022.2.4,MacIntel,59.80861244,5e4db49d96e3c32079f64790,64d2fd46c836a06233681665,64dc7cad63a4fd7ffd42da22,,,,,,,decisionTrl,resources/DR.BMP,resources/DG.BMP,Door2,-0.353081055,-0.050512695,1,0,0,1.2392,optionLeft,40,3300,2,20,0,20,0,1,,,,,,,,,,,,,,,,,,,,,,,,,,,,,,,,,,,,,,,
,,,,,,,5e4db49d96e3c32079f64790,2023-08-16_08h37.31.164,HF_wild_card,2022.2.4,MacIntel,59.80861244,5e4db49d96e3c32079f64790,64d2fd46c836a06233681665,64dc7cad63a4fd7ffd42da22,,,,,,,decisionTrl,resources/DG.BMP,resources/DY.BMP,WildCard_Ex,0.315678711,-0.076791992,1,0,0,0.6571,optionRight,5,3305,2,21,0,21,0,1,,,,,,,,,,,,,,,,,,,,,,,,,,,,,,,,,,,,,,,
,,,,,,,5e4db49d96e3c32079f64790,2023-08-16_08h37.31.164,HF_wild_card,2022.2.4,MacIntel,59.80861244,5e4db49d96e3c32079f64790,64d2fd46c836a06233681665,64dc7cad63a4fd7ffd42da22,,,,,,,ctch,resources/DG.BMP,resources/DB.BMP,Door4,0.339785156,-0.089130859,1,0,0,1.7079,optionRight,60,3365,2,22,0,22,0,1,,,,,,,,,,,,,,,,,,,,,,,,,,,,,,,,,,,,,,,
,,,,,,,5e4db49d96e3c32079f64790,2023-08-16_08h37.31.164,HF_wild_card,2022.2.4,MacIntel,59.80861244,5e4db49d96e3c32079f64790,64d2fd46c836a06233681665,64dc7cad63a4fd7ffd42da22,,,,,,,ctch,resources/DG.BMP,resources/DB.BMP,Door4,0.314560547,-0.087026367,1,0,0,0.5257,optionRight,80,3445,2,23,0,23,0,1,,,,,,,,,,,,,,,,,,,,,,,,,,,,,,,,,,,,,,,
,,,,,,,5e4db49d96e3c32079f64790,2023-08-16_08h37.31.164,HF_wild_card,2022.2.4,MacIntel,59.80861244,5e4db49d96e3c32079f64790,64d2fd46c836a06233681665,64dc7cad63a4fd7ffd42da22,,,,,,,decisionTrl,resources/DB.BMP,resources/DP.BMP,Door4,-0.302905273,-0.029658203,1,0,0,0.811,optionLeft,80,3525,2,24,0,24,0,1,,,,,,,,,,,,,,,,,,,,,,,,,,,,,,,,,,,,,,,
,,,,,,,5e4db49d96e3c32079f64790,2023-08-16_08h37.31.164,HF_wild_card,2022.2.4,MacIntel,59.80861244,5e4db49d96e3c32079f64790,64d2fd46c836a06233681665,64dc7cad63a4fd7ffd42da22,,,,,,,decisionTrl,resources/DR.BMP,resources/DG.BMP,Door2,-0.366777344,-0.055458984,1,0,0,1.6166,optionLeft,40,3565,2,25,0,25,0,1,,,,,,,,,,,,,,,,,,,,,,,,,,,,,,,,,,,,,,,
,,,,,,,5e4db49d96e3c32079f64790,2023-08-16_08h37.31.164,HF_wild_card,2022.2.4,MacIntel,59.80861244,5e4db49d96e3c32079f64790,64d2fd46c836a06233681665,64dc7cad63a4fd7ffd42da22,,,,,,,sngl,resources/DR.BMP,resources/Empty.png,Door2,-0.311240234,-0.00706543,1,0,0,0.5586,optionLeft,20,3585,2,26,0,26,0,1,,,,,,,,,,,,,,,,,,,,,,,,,,,,,,,,,,,,,,,
,,,,,,,5e4db49d96e3c32079f64790,2023-08-16_08h37.31.164,HF_wild_card,2022.2.4,MacIntel,59.80861244,5e4db49d96e3c32079f64790,64d2fd46c836a06233681665,64dc7cad63a4fd7ffd42da22,,,,,,,decisionTrl,resources/DG.BMP,resources/DR.BMP,Door2,0.290371094,-0.101518555,1,0,0,1.383,optionRight,20,3605,2,27,0,27,0,1,,,,,,,,,,,,,,,,,,,,,,,,,,,,,,,,,,,,,,,
,,,,,,,5e4db49d96e3c32079f64790,2023-08-16_08h37.31.164,HF_wild_card,2022.2.4,MacIntel,59.80861244,5e4db49d96e3c32079f64790,64d2fd46c836a06233681665,64dc7cad63a4fd7ffd42da22,,,,,,,ctch,resources/DB.BMP,resources/DG.BMP,Door4,-0.310771484,-0.001083984,1,0,0,0.6687,optionLeft,80,3685,2,28,0,28,0,1,,,,,,,,,,,,,,,,,,,,,,,,,,,,,,,,,,,,,,,
,,,,,,,5e4db49d96e3c32079f64790,2023-08-16_08h37.31.164,HF_wild_card,2022.2.4,MacIntel,59.80861244,5e4db49d96e3c32079f64790,64d2fd46c836a06233681665,64dc7cad63a4fd7ffd42da22,,,,,,,sngl,resources/Empty.png,resources/DB.BMP,Door4,0.27074707,-0.096582031,1,0,0,0.5674,optionRight,80,3765,2,29,0,29,0,1,,,,,,,,,,,,,,,,,,,,,,,,,,,,,,,,,,,,,,,
,,,,,,,5e4db49d96e3c32079f64790,2023-08-16_08h37.31.164,HF_wild_card,2022.2.4,MacIntel,59.80861244,5e4db49d96e3c32079f64790,64d2fd46c836a06233681665,64dc7cad63a4fd7ffd42da22,,,,,,,decisionTrl,resources/DR.BMP,resources/DG.BMP,Door1,0.318808594,-0.089736328,1,0,0,1.6856,optionRight,30,3795,2,30,0,30,0,1,,,,,,,,,,,,,,,,,,,,,,,,,,,,,,,,,,,,,,,
,,,,,,,5e4db49d96e3c32079f64790,2023-08-16_08h37.31.164,HF_wild_card,2022.2.4,MacIntel,59.80861244,5e4db49d96e3c32079f64790,64d2fd46c836a06233681665,64dc7cad63a4fd7ffd42da22,,,,,,,decisionTrl,resources/DP.BMP,resources/DB.BMP,Door3,-0.331967773,-0.015180664,1,0,0,0.7052,optionLeft,70,3865,2,31,0,31,0,1,,,,,,,,,,,,,,,,,,,,,,,,,,,,,,,,,,,,,,,
,,,,,,,5e4db49d96e3c32079f64790,2023-08-16_08h37.31.164,HF_wild_card,2022.2.4,MacIntel,59.80861244,5e4db49d96e3c32079f64790,64d2fd46c836a06233681665,64dc7cad63a4fd7ffd42da22,,,,,,,ctch,resources/DP.BMP,resources/DR.BMP,Door3,-0.278203125,0.005336914,1,0,0,0.5743,optionLeft,70,3935,2,32,0,32,0,1,,,,,,,,,,,,,,,,,,,,,,,,,,,,,,,,,,,,,,,
,,,,,,,5e4db49d96e3c32079f64790,2023-08-16_08h37.31.164,HF_wild_card,2022.2.4,MacIntel,59.80861244,5e4db49d96e3c32079f64790,64d2fd46c836a06233681665,64dc7cad63a4fd7ffd42da22,,,,,,,decisionTrl,resources/DB.BMP,resources/DP.BMP,Door3,0.363706055,-0.106323242,1,0,0,0.6569,optionRight,70,4005,2,33,0,33,0,1,,,,,,,,,,,,,,,,,,,,,,,,,,,,,,,,,,,,,,,
,,,,,,,5e4db49d96e3c32079f64790,2023-08-16_08h37.31.164,HF_wild_card,2022.2.4,MacIntel,59.80861244,5e4db49d96e3c32079f64790,64d2fd46c836a06233681665,64dc7cad63a4fd7ffd42da22,,,,,,,decisionTrl,resources/DR.BMP,resources/DG.BMP,Door1,0.371225586,-0.126220703,1,0,0,2.2931,optionRight,30,4035,2,34,0,34,0,1,,,,,,,,,,,,,,,,,,,,,,,,,,,,,,,,,,,,,,,
,,,,,,,5e4db49d96e3c32079f64790,2023-08-16_08h37.31.164,HF_wild_card,2022.2.4,MacIntel,59.80861244,5e4db49d96e3c32079f64790,64d2fd46c836a06233681665,64dc7cad63a4fd7ffd42da22,,,,,,,decisionTrl,resources/DP.BMP,resources/DB.BMP,Door4,0.314438477,-0.081635742,1,0,0,0.985,optionRight,80,4115,2,35,0,35,0,1,,,,,,,,,,,,,,,,,,,,,,,,,,,,,,,,,,,,,,,
,,,,,,,5e4db49d96e3c32079f64790,2023-08-16_08h37.31.164,HF_wild_card,2022.2.4,MacIntel,59.80861244,5e4db49d96e3c32079f64790,64d2fd46c836a06233681665,64dc7cad63a4fd7ffd42da22,,,,,,,sngl,resources/DP.BMP,resources/Empty.png,Door3,-0.312158203,0.019345703,1,0,0,0.5717,optionLeft,70,4185,2,36,0,36,0,1,,,,,,,,,,,,,,,,,,,,,,,,,,,,,,,,,,,,,,,
,,,,,,,5e4db49d96e3c32079f64790,2023-08-16_08h37.31.164,HF_wild_card,2022.2.4,MacIntel,59.80861244,5e4db49d96e3c32079f64790,64d2fd46c836a06233681665,64dc7cad63a4fd7ffd42da22,,,,,,,decisionTrl,resources/DR.BMP,resources/DY.BMP,WildCard_Ex,0.325410156,-0.08703125,1,0,0,0.5988,optionRight,5,4190,2,37,0,37,0,1,,,,,,,,,,,,,,,,,,,,,,,,,,,,,,,,,,,,,,,
,,,,,,,5e4db49d96e3c32079f64790,2023-08-16_08h37.31.164,HF_wild_card,2022.2.4,MacIntel,59.80861244,5e4db49d96e3c32079f64790,64d2fd46c836a06233681665,64dc7cad63a4fd7ffd42da22,,,,,,,ctch,resources/DR.BMP,resources/DP.BMP,Door3,0.381479492,-0.106035156,1,0,0,0.9278,optionRight,70,4260,2,38,0,38,0,1,,,,,,,,,,,,,,,,,,,,,,,,,,,,,,,,,,,,,,,
,,,,,,,5e4db49d96e3c32079f64790,2023-08-16_08h37.31.164,HF_wild_card,2022.2.4,MacIntel,59.80861244,5e4db49d96e3c32079f64790,64d2fd46c836a06233681665,64dc7cad63a4fd7ffd42da22,,,,,,,decisionTrl,resources/DP.BMP,resources/DY.BMP,WildCard_Ex,0.355283203,-0.088110352,1,0,0,1.1284,optionRight,95,4355,2,39,0,39,0,1,,,,,,,,,,,,,,,,,,,,,,,,,,,,,,,,,,,,,,,
,,,,,,,5e4db49d96e3c32079f64790,2023-08-16_08h37.31.164,HF_wild_card,2022.2.4,MacIntel,59.80861244,5e4db49d96e3c32079f64790,64d2fd46c836a06233681665,64dc7cad63a4fd7ffd42da22,,,,,,,sngl,resources/DG.BMP,resources/Empty.png,Door1,-0.256083984,0.007822266,1,0,0,0.833,optionLeft,30,4385,2,40,0,40,0,1,,,,,,,,,,,,,,,,,,,,,,,,,,,,,,,,,,,,,,,
,,,,,,,5e4db49d96e3c32079f64790,2023-08-16_08h37.31.164,HF_wild_card,2022.2.4,MacIntel,59.80861244,5e4db49d96e3c32079f64790,64d2fd46c836a06233681665,64dc7cad63a4fd7ffd42da22,,,,,,,ctch,resources/DB.BMP,resources/DG.BMP,Door4,-0.298710937,-0.025483398,1,0,0,1.118,optionLeft,80,4465,2,41,0,41,0,1,,,,,,,,,,,,,,,,,,,,,,,,,,,,,,,,,,,,,,,
,,,,,,,5e4db49d96e3c32079f64790,2023-08-16_08h37.31.164,HF_wild_card,2022.2.4,MacIntel,59.80861244,5e4db49d96e3c32079f64790,64d2fd46c836a06233681665,64dc7cad63a4fd7ffd42da22,,,,,,,decisionTrl,resources/DB.BMP,resources/DP.BMP,Door3,0.353808594,-0.09512207,1,0,0,0.6786,optionRight,70,4535,2,42,0,42,0,1,,,,,,,,,,,,,,,,,,,,,,,,,,,,,,,,,,,,,,,
,,,,,,,5e4db49d96e3c32079f64790,2023-08-16_08h37.31.164,HF_wild_card,2022.2.4,MacIntel,59.80861244,5e4db49d96e3c32079f64790,64d2fd46c836a06233681665,64dc7cad63a4fd7ffd42da22,,,,,,,ctch,resources/DP.BMP,resources/DR.BMP,Door3,-0.281362305,-0.037348633,1,0,0,0.8653,optionLeft,70,4605,2,43,0,43,0,1,,,,,,,,,,,,,,,,,,,,,,,,,,,,,,,,,,,,,,,
,,,,,,,5e4db49d96e3c32079f64790,2023-08-16_08h37.31.164,HF_wild_card,2022.2.4,MacIntel,59.80861244,5e4db49d96e3c32079f64790,64d2fd46c836a06233681665,64dc7cad63a4fd7ffd42da22,,,,,,,,,,,,,,,,,,,,,,,,,,1,0,1,0,1,,,,,,,,,,,,,,,,,,,,,,,,,,,,,,,,,,
,,,,,,,5e4db49d96e3c32079f64790,2023-08-16_08h37.31.164,HF_wild_card,2022.2.4,MacIntel,59.80861244,5e4db49d96e3c32079f64790,64d2fd46c836a06233681665,64dc7cad63a4fd7ffd42da22,,,,,,,decisionTrl,resources/DP.BMP,resources/DB.BMP,Door3,-0.32081543,-0.100400391,1,0,0,2.7333,optionLeft,70,4675,3,0,0,0,0,1,,,,,,,,,,,,,,,,,,,,,,,,,,,,,,,,,,,,,,,
,,,,,,,5e4db49d96e3c32079f64790,2023-08-16_08h37.31.164,HF_wild_card,2022.2.4,MacIntel,59.80861244,5e4db49d96e3c32079f64790,64d2fd46c836a06233681665,64dc7cad63a4fd7ffd42da22,,,,,,,decisionTrl,resources/DG.BMP,resources/DY.BMP,WildCard_Ex,0.322822266,-0.094345703,1,0,0,0.6496,optionRight,5,4680,3,1,0,1,0,1,,,,,,,,,,,,,,,,,,,,,,,,,,,,,,,,,,,,,,,
,,,,,,,5e4db49d96e3c32079f64790,2023-08-16_08h37.31.164,HF_wild_card,2022.2.4,MacIntel,59.80861244,5e4db49d96e3c32079f64790,64d2fd46c836a06233681665,64dc7cad63a4fd7ffd42da22,,,,,,,decisionTrl,resources/DP.BMP,resources/DY.BMP,WildCard_Ex,0.317460937,-0.104370117,1,0,0,0.5463,optionRight,95,4775,3,2,0,2,0,1,,,,,,,,,,,,,,,,,,,,,,,,,,,,,,,,,,,,,,,
,,,,,,,5e4db49d96e3c32079f64790,2023-08-16_08h37.31.164,HF_wild_card,2022.2.4,MacIntel,59.80861244,5e4db49d96e3c32079f64790,64d2fd46c836a06233681665,64dc7cad63a4fd7ffd42da22,,,,,,,sngl,resources/DB.BMP,resources/Empty.png,Door4,-0.307875977,0.009091797,1,0,0,0.535,optionLeft,80,4855,3,3,0,3,0,1,,,,,,,,,,,,,,,,,,,,,,,,,,,,,,,,,,,,,,,
,,,,,,,5e4db49d96e3c32079f64790,2023-08-16_08h37.31.164,HF_wild_card,2022.2.4,MacIntel,59.80861244,5e4db49d96e3c32079f64790,64d2fd46c836a06233681665,64dc7cad63a4fd7ffd42da22,,,,,,,decisionTrl,resources/DP.BMP,resources/DB.BMP,Door4,0.301635742,-0.075727539,1,0,0,0.9708,optionRight,60,4915,3,4,0,4,0,1,,,,,,,,,,,,,,,,,,,,,,,,,,,,,,,,,,,,,,,
,,,,,,,5e4db49d96e3c32079f64790,2023-08-16_08h37.31.164,HF_wild_card,2022.2.4,MacIntel,59.80861244,5e4db49d96e3c32079f64790,64d2fd46c836a06233681665,64dc7cad63a4fd7ffd42da22,,,,,,,ctch,resources/DR.BMP,resources/DP.BMP,Door3,0.332548828,-0.110673828,1,0,0,0.7039,optionRight,70,4985,3,5,0,5,0,1,,,,,,,,,,,,,,,,,,,,,,,,,,,,,,,,,,,,,,,
,,,,,,,5e4db49d96e3c32079f64790,2023-08-16_08h37.31.164,HF_wild_card,2022.2.4,MacIntel,59.80861244,5e4db49d96e3c32079f64790,64d2fd46c836a06233681665,64dc7cad63a4fd7ffd42da22,,,,,,,decisionTrl,resources/DY.BMP,resources/DG.BMP,WildCard_Ex,-0.27734375,-0.034868164,1,0,0,1.0197,optionLeft,5,4990,3,6,0,6,0,1,,,,,,,,,,,,,,,,,,,,,,,,,,,,,,,,,,,,,,,
,,,,,,,5e4db49d96e3c32079f64790,2023-08-16_08h37.31.164,HF_wild_card,2022.2.4,MacIntel,59.80861244,5e4db49d96e3c32079f64790,64d2fd46c836a06233681665,64dc7cad63a4fd7ffd42da22,,,,,,,decisionTrl,resources/DY.BMP,resources/DB.BMP,Door4,0.320771484,-0.111948242,1,0,0,1.0281,optionRight,60,5050,3,7,0,7,0,1,,,,,,,,,,,,,,,,,,,,,,,,,,,,,,,,,,,,,,,
,,,,,,,5e4db49d96e3c32079f64790,2023-08-16_08h37.31.164,HF_wild_card,2022.2.4,MacIntel,59.80861244,5e4db49d96e3c32079f64790,64d2fd46c836a06233681665,64dc7cad63a4fd7ffd42da22,,,,,,,sngl,resources/DY.BMP,resources/Empty.png,WildCard_Ex,-0.260644531,0.004194336,1,0,0,0.5377,optionLeft,95,5145,3,8,0,8,0,1,,,,,,,,,,,,,,,,,,,,,,,,,,,,,,,,,,,,,,,
,,,,,,,5e4db49d96e3c32079f64790,2023-08-16_08h37.31.164,HF_wild_card,2022.2.4,MacIntel,59.80861244,5e4db49d96e3c32079f64790,64d2fd46c836a06233681665,64dc7cad63a4fd7ffd42da22,,,,,,,ctch,resources/DG.BMP,resources/DB.BMP,Door4,0.286181641,-0.095078125,1,0,0,0.8124,optionRight,80,5225,3,9,0,9,0,1,,,,,,,,,,,,,,,,,,,,,,,,,,,,,,,,,,,,,,,
,,,,,,,5e4db49d96e3c32079f64790,2023-08-16_08h37.31.164,HF_wild_card,2022.2.4,MacIntel,59.80861244,5e4db49d96e3c32079f64790,64d2fd46c836a06233681665,64dc7cad63a4fd7ffd42da22,,,,,,,decisionTrl,resources/DB.BMP,resources/DP.BMP,Door3,0.299052734,-0.110014648,1,0,0,1.0933,optionRight,70,5295,3,10,0,10,0,1,,,,,,,,,,,,,,,,,,,,,,,,,,,,,,,,,,,,,,,
,,,,,,,5e4db49d96e3c32079f64790,2023-08-16_08h37.31.164,HF_wild_card,2022.2.4,MacIntel,59.80861244,5e4db49d96e3c32079f64790,64d2fd46c836a06233681665,64dc7cad63a4fd7ffd42da22,,,,,,,ctch,resources/DB.BMP,resources/DG.BMP,Door4,-0.31237793,-0.027451172,1,0,0,0.8524,optionLeft,80,5375,3,11,0,11,0,1,,,,,,,,,,,,,,,,,,,,,,,,,,,,,,,,,,,,,,,
,,,,,,,5e4db49d96e3c32079f64790,2023-08-16_08h37.31.164,HF_wild_card,2022.2.4,MacIntel,59.80861244,5e4db49d96e3c32079f64790,64d2fd46c836a06233681665,64dc7cad63a4fd7ffd42da22,,,,,,,decisionTrl,resources/DB.BMP,resources/DP.BMP,Door3,0.312485352,-0.109414063,1,0,0,0.8619,optionRight,70,5445,3,12,0,12,0,1,,,,,,,,,,,,,,,,,,,,,,,,,,,,,,,,,,,,,,,
,,,,,,,5e4db49d96e3c32079f64790,2023-08-16_08h37.31.164,HF_wild_card,2022.2.4,MacIntel,59.80861244,5e4db49d96e3c32079f64790,64d2fd46c836a06233681665,64dc7cad63a4fd7ffd42da22,,,,,,,ctch,resources/DG.BMP,resources/DB.BMP,Door4,0.325595703,-0.109814453,1,0,0,0.7627,optionRight,60,5505,3,13,0,13,0,1,,,,,,,,,,,,,,,,,,,,,,,,,,,,,,,,,,,,,,,
,,,,,,,5e4db49d96e3c32079f64790,2023-08-16_08h37.31.164,HF_wild_card,2022.2.4,MacIntel,59.80861244,5e4db49d96e3c32079f64790,64d2fd46c836a06233681665,64dc7cad63a4fd7ffd42da22,,,,,,,decisionTrl,resources/DP.BMP,resources/DB.BMP,Door4,0.293759766,-0.093676758,1,0,0,1.0811,optionRight,80,5585,3,14,0,14,0,1,,,,,,,,,,,,,,,,,,,,,,,,,,,,,,,,,,,,,,,
,,,,,,,5e4db49d96e3c32079f64790,2023-08-16_08h37.31.164,HF_wild_card,2022.2.4,MacIntel,59.80861244,5e4db49d96e3c32079f64790,64d2fd46c836a06233681665,64dc7cad63a4fd7ffd42da22,,,,,,,sngl,resources/Empty.png,resources/DP.BMP,Door3,0.305136719,-0.088481445,1,0,0,0.51,optionRight,70,5655,3,15,0,15,0,1,,,,,,,,,,,,,,,,,,,,,,,,,,,,,,,,,,,,,,,
,,,,,,,5e4db49d96e3c32079f64790,2023-08-16_08h37.31.164,HF_wild_card,2022.2.4,MacIntel,59.80861244,5e4db49d96e3c32079f64790,64d2fd46c836a06233681665,64dc7cad63a4fd7ffd42da22,,,,,,,decisionTrl,resources/DY.BMP,resources/DP.BMP,Door3,0.292973633,-0.099086914,1,0,0,0.7627,optionRight,70,5725,3,16,0,16,0,1,,,,,,,,,,,,,,,,,,,,,,,,,,,,,,,,,,,,,,,
,,,,,,,5e4db49d96e3c32079f64790,2023-08-16_08h37.31.164,HF_wild_card,2022.2.4,MacIntel,59.80861244,5e4db49d96e3c32079f64790,64d2fd46c836a06233681665,64dc7cad63a4fd7ffd42da22,,,,,,,sngl,resources/DY.BMP,resources/Empty.png,WildCard_Ex,-0.244335937,0.009833984,1,0,0,0.4823,optionLeft,5,5730,3,17,0,17,0,1,,,,,,,,,,,,,,,,,,,,,,,,,,,,,,,,,,,,,,,
,,,,,,,5e4db49d96e3c32079f64790,2023-08-16_08h37.31.164,HF_wild_card,2022.2.4,MacIntel,59.80861244,5e4db49d96e3c32079f64790,64d2fd46c836a06233681665,64dc7cad63a4fd7ffd42da22,,,,,,,sngl,resources/DR.BMP,resources/Empty.png,Door2,-0.239516602,-0.05496582,1,0,0,0.8661,optionLeft,40,5770,3,18,0,18,0,1,,,,,,,,,,,,,,,,,,,,,,,,,,,,,,,,,,,,,,,
,,,,,,,5e4db49d96e3c32079f64790,2023-08-16_08h37.31.164,HF_wild_card,2022.2.4,MacIntel,59.80861244,5e4db49d96e3c32079f64790,64d2fd46c836a06233681665,64dc7cad63a4fd7ffd42da22,,,,,,,sngl,resources/Empty.png,resources/DY.BMP,WildCard_Ex,0.371171875,-0.083505859,1,0,0,0.5299,optionRight,5,5775,3,19,0,19,0,1,,,,,,,,,,,,,,,,,,,,,,,,,,,,,,,,,,,,,,,
,,,,,,,5e4db49d96e3c32079f64790,2023-08-16_08h37.31.164,HF_wild_card,2022.2.4,MacIntel,59.80861244,5e4db49d96e3c32079f64790,64d2fd46c836a06233681665,64dc7cad63a4fd7ffd42da22,,,,,,,decisionTrl,resources/DR.BMP,resources/DG.BMP,Door2,-0.17246582,-0.042275391,1,0,0,1.737,optionLeft,40,5815,3,20,0,20,0,1,,,,,,,,,,,,,,,,,,,,,,,,,,,,,,,,,,,,,,,
,,,,,,,5e4db49d96e3c32079f64790,2023-08-16_08h37.31.164,HF_wild_card,2022.2.4,MacIntel,59.80861244,5e4db49d96e3c32079f64790,64d2fd46c836a06233681665,64dc7cad63a4fd7ffd42da22,,,,,,,decisionTrl,resources/DG.BMP,resources/DR.BMP,Door1,-0.324189453,0.002426758,1,0,0,0.8464,optionLeft,30,5845,3,21,0,21,0,1,,,,,,,,,,,,,,,,,,,,,,,,,,,,,,,,,,,,,,,
,,,,,,,5e4db49d96e3c32079f64790,2023-08-16_08h37.31.164,HF_wild_card,2022.2.4,MacIntel,59.80861244,5e4db49d96e3c32079f64790,64d2fd46c836a06233681665,64dc7cad63a4fd7ffd42da22,,,,,,,decisionTrl,resources/DG.BMP,resources/DR.BMP,Door1,-0.233623047,-0.029594727,1,0,0,1.1762,optionLeft,30,5875,3,22,0,22,0,1,,,,,,,,,,,,,,,,,,,,,,,,,,,,,,,,,,,,,,,
,,,,,,,5e4db49d96e3c32079f64790,2023-08-16_08h37.31.164,HF_wild_card,2022.2.4,MacIntel,59.80861244,5e4db49d96e3c32079f64790,64d2fd46c836a06233681665,64dc7cad63a4fd7ffd42da22,,,,,,,sngl,resources/Empty.png,resources/DY.BMP,WildCard_Ex,0.331689453,-0.093251953,1,0,0,0.5611,optionRight,95,5970,3,23,0,23,0,1,,,,,,,,,,,,,,,,,,,,,,,,,,,,,,,,,,,,,,,
,,,,,,,5e4db49d96e3c32079f64790,2023-08-16_08h37.31.164,HF_wild_card,2022.2.4,MacIntel,59.80861244,5e4db49d96e3c32079f64790,64d2fd46c836a06233681665,64dc7cad63a4fd7ffd42da22,,,,,,,decisionTrl,resources/DG.BMP,resources/DR.BMP,Door1,-0.289995117,-0.011953125,1,0,0,1.3877,optionLeft,30,6000,3,24,0,24,0,1,,,,,,,,,,,,,,,,,,,,,,,,,,,,,,,,,,,,,,,
,,,,,,,5e4db49d96e3c32079f64790,2023-08-16_08h37.31.164,HF_wild_card,2022.2.4,MacIntel,59.80861244,5e4db49d96e3c32079f64790,64d2fd46c836a06233681665,64dc7cad63a4fd7ffd42da22,,,,,,,ctch,resources/DB.BMP,resources/DG.BMP,Door4,-0.256000977,-0.02175293,1,0,0,0.9054,optionLeft,80,6080,3,25,0,25,0,1,,,,,,,,,,,,,,,,,,,,,,,,,,,,,,,,,,,,,,,
,,,,,,,5e4db49d96e3c32079f64790,2023-08-16_08h37.31.164,HF_wild_card,2022.2.4,MacIntel,59.80861244,5e4db49d96e3c32079f64790,64d2fd46c836a06233681665,64dc7cad63a4fd7ffd42da22,,,,,,,decisionTrl,resources/DG.BMP,resources/DR.BMP,Door2,0.323222656,-0.108793945,1,0,0,1.1549,optionRight,40,6120,3,26,0,26,0,1,,,,,,,,,,,,,,,,,,,,,,,,,,,,,,,,,,,,,,,
,,,,,,,5e4db49d96e3c32079f64790,2023-08-16_08h37.31.164,HF_wild_card,2022.2.4,MacIntel,59.80861244,5e4db49d96e3c32079f64790,64d2fd46c836a06233681665,64dc7cad63a4fd7ffd42da22,,,,,,,ctch,resources/DR.BMP,resources/DP.BMP,Door2,-0.26546875,0.000795898,1,0,0,0.5386,optionLeft,40,6160,3,27,0,27,0,1,,,,,,,,,,,,,,,,,,,,,,,,,,,,,,,,,,,,,,,
,,,,,,,5e4db49d96e3c32079f64790,2023-08-16_08h37.31.164,HF_wild_card,2022.2.4,MacIntel,59.80861244,5e4db49d96e3c32079f64790,64d2fd46c836a06233681665,64dc7cad63a4fd7ffd42da22,,,,,,,sngl,resources/Empty.png,resources/DB.BMP,Door4,0.305166016,-0.084135742,1,0,0,0.5573,optionRight,60,6220,3,28,0,28,0,1,,,,,,,,,,,,,,,,,,,,,,,,,,,,,,,,,,,,,,,
,,,,,,,5e4db49d96e3c32079f64790,2023-08-16_08h37.31.164,HF_wild_card,2022.2.4,MacIntel,59.80861244,5e4db49d96e3c32079f64790,64d2fd46c836a06233681665,64dc7cad63a4fd7ffd42da22,,,,,,,ctch,resources/DP.BMP,resources/DR.BMP,Door3,-0.298334961,-0.005644531,1,0,0,0.6496,optionLeft,70,6290,3,29,0,29,0,1,,,,,,,,,,,,,,,,,,,,,,,,,,,,,,,,,,,,,,,
,,,,,,,5e4db49d96e3c32079f64790,2023-08-16_08h37.31.164,HF_wild_card,2022.2.4,MacIntel,59.80861244,5e4db49d96e3c32079f64790,64d2fd46c836a06233681665,64dc7cad63a4fd7ffd42da22,,,,,,,decisionTrl,resources/DR.BMP,resources/DG.BMP,Door2,-0.316376953,-0.05175293,1,0,0,1.4384,optionLeft,20,6310,3,30,0,30,0,1,,,,,,,,,,,,,,,,,,,,,,,,,,,,,,,,,,,,,,,
,,,,,,,5e4db49d96e3c32079f64790,2023-08-16_08h37.31.164,HF_wild_card,2022.2.4,MacIntel,59.80861244,5e4db49d96e3c32079f64790,64d2fd46c836a06233681665,64dc7cad63a4fd7ffd42da22,,,,,,,decisionTrl,resources/DR.BMP,resources/DG.BMP,Door2,-0.22081543,-0.038588867,1,0,0,1.1885,optionLeft,20,6330,3,31,0,31,0,1,,,,,,,,,,,,,,,,,,,,,,,,,,,,,,,,,,,,,,,
,,,,,,,5e4db49d96e3c32079f64790,2023-08-16_08h37.31.164,HF_wild_card,2022.2.4,MacIntel,59.80861244,5e4db49d96e3c32079f64790,64d2fd46c836a06233681665,64dc7cad63a4fd7ffd42da22,,,,,,,decisionTrl,resources/DB.BMP,resources/DY.BMP,WildCard_Ex,0.336660156,-0.110551758,1,0,0,1.2041,optionRight,95,6425,3,32,0,32,0,1,,,,,,,,,,,,,,,,,,,,,,,,,,,,,,,,,,,,,,,
,,,,,,,5e4db49d96e3c32079f64790,2023-08-16_08h37.31.164,HF_wild_card,2022.2.4,MacIntel,59.80861244,5e4db49d96e3c32079f64790,64d2fd46c836a06233681665,64dc7cad63a4fd7ffd42da22,,,,,,,decisionTrl,resources/DP.BMP,resources/DB.BMP,Door4,0.3371875,-0.09402832,1,0,0,1.0659,optionRight,80,6505,3,33,0,33,0,1,,,,,,,,,,,,,,,,,,,,,,,,,,,,,,,,,,,,,,,
,,,,,,,5e4db49d96e3c32079f64790,2023-08-16_08h37.31.164,HF_wild_card,2022.2.4,MacIntel,59.80861244,5e4db49d96e3c32079f64790,64d2fd46c836a06233681665,64dc7cad63a4fd7ffd42da22,,,,,,,sngl,resources/Empty.png,resources/DR.BMP,Door2,0.316455078,-0.086308594,1,0,0,1.0102,optionRight,20,6525,3,34,0,34,0,1,,,,,,,,,,,,,,,,,,,,,,,,,,,,,,,,,,,,,,,
,,,,,,,5e4db49d96e3c32079f64790,2023-08-16_08h37.31.164,HF_wild_card,2022.2.4,MacIntel,59.80861244,5e4db49d96e3c32079f64790,64d2fd46c836a06233681665,64dc7cad63a4fd7ffd42da22,,,,,,,ctch,resources/DP.BMP,resources/DR.BMP,Door3,-0.315151367,-0.023847656,1,0,0,1.1899,optionLeft,70,6595,3,35,0,35,0,1,,,,,,,,,,,,,,,,,,,,,,,,,,,,,,,,,,,,,,,
,,,,,,,5e4db49d96e3c32079f64790,2023-08-16_08h37.31.164,HF_wild_card,2022.2.4,MacIntel,59.80861244,5e4db49d96e3c32079f64790,64d2fd46c836a06233681665,64dc7cad63a4fd7ffd42da22,,,,,,,decisionTrl,resources/DB.BMP,resources/DP.BMP,Door4,-0.281455078,-0.044980469,1,0,0,1.5139,optionLeft,80,6675,3,36,0,36,0,1,,,,,,,,,,,,,,,,,,,,,,,,,,,,,,,,,,,,,,,
,,,,,,,5e4db49d96e3c32079f64790,2023-08-16_08h37.31.164,HF_wild_card,2022.2.4,MacIntel,59.80861244,5e4db49d96e3c32079f64790,64d2fd46c836a06233681665,64dc7cad63a4fd7ffd42da22,,,,,,,sngl,resources/Empty.png,resources/DG.BMP,Door1,0.306103516,-0.081123047,1,0,0,0.7138,optionRight,30,6705,3,37,0,37,0,1,,,,,,,,,,,,,,,,,,,,,,,,,,,,,,,,,,,,,,,
,,,,,,,5e4db49d96e3c32079f64790,2023-08-16_08h37.31.164,HF_wild_card,2022.2.4,MacIntel,59.80861244,5e4db49d96e3c32079f64790,64d2fd46c836a06233681665,64dc7cad63a4fd7ffd42da22,,,,,,,decisionTrl,resources/DR.BMP,resources/DY.BMP,WildCard_Ex,0.408930664,-0.133637695,1,0,0,1.0325,optionRight,95,6800,3,38,0,38,0,1,,,,,,,,,,,,,,,,,,,,,,,,,,,,,,,,,,,,,,,
,,,,,,,5e4db49d96e3c32079f64790,2023-08-16_08h37.31.164,HF_wild_card,2022.2.4,MacIntel,59.80861244,5e4db49d96e3c32079f64790,64d2fd46c836a06233681665,64dc7cad63a4fd7ffd42da22,,,,,,,decisionTrl,resources/DB.BMP,resources/DP.BMP,Door3,0.314272461,-0.109819336,1,0,0,1.7465,optionRight,70,6870,3,39,0,39,0,1,,,,,,,,,,,,,,,,,,,,,,,,,,,,,,,,,,,,,,,
,,,,,,,5e4db49d96e3c32079f64790,2023-08-16_08h37.31.164,HF_wild_card,2022.2.4,MacIntel,59.80861244,5e4db49d96e3c32079f64790,64d2fd46c836a06233681665,64dc7cad63a4fd7ffd42da22,,,,,,,decisionTrl,resources/DY.BMP,resources/DR.BMP,WildCard_Ex,-0.282314453,-0.013847656,1,0,0,0.7408,optionLeft,5,6875,3,40,0,40,0,1,,,,,,,,,,,,,,,,,,,,,,,,,,,,,,,,,,,,,,,
,,,,,,,5e4db49d96e3c32079f64790,2023-08-16_08h37.31.164,HF_wild_card,2022.2.4,MacIntel,59.80861244,5e4db49d96e3c32079f64790,64d2fd46c836a06233681665,64dc7cad63a4fd7ffd42da22,,,,,,,sngl,resources/DG.BMP,resources/Empty.png,Door1,-0.275063477,-0.028569336,1,0,0,0.6127,optionLeft,30,6905,3,41,0,41,0,1,,,,,,,,,,,,,,,,,,,,,,,,,,,,,,,,,,,,,,,
,,,,,,,5e4db49d96e3c32079f64790,2023-08-16_08h37.31.164,HF_wild_card,2022.2.4,MacIntel,59.80861244,5e4db49d96e3c32079f64790,64d2fd46c836a06233681665,64dc7cad63a4fd7ffd42da22,,,,,,,decisionTrl,resources/DR.BMP,resources/DG.BMP,Door2,-0.29871582,-0.048398438,1,0,0,1.9825,optionLeft,40,6945,3,42,0,42,0,1,,,,,,,,,,,,,,,,,,,,,,,,,,,,,,,,,,,,,,,
,,,,,,,5e4db49d96e3c32079f64790,2023-08-16_08h37.31.164,HF_wild_card,2022.2.4,MacIntel,59.80861244,5e4db49d96e3c32079f64790,64d2fd46c836a06233681665,64dc7cad63a4fd7ffd42da22,,,,,,,sngl,resources/DP.BMP,resources/Empty.png,Door3,-0.247075195,-0.027832031,1,0,0,0.6326,optionLeft,70,7015,3,43,0,43,0,1,,,,,,,,,,,,,,,,,,,,,,,,,,,,,,,,,,,,,,,
,,,,,,,5e4db49d96e3c32079f64790,2023-08-16_08h37.31.164,HF_wild_card,2022.2.4,MacIntel,59.80861244,5e4db49d96e3c32079f64790,64d2fd46c836a06233681665,64dc7cad63a4fd7ffd42da22,,,,,,,,,,,,,,,,,,,,,,,,,,2,0,2,0,1,,,,,,,,,,,,,,,,,,,,,,,,,,,,,,,,,,
,,,,,,,5e4db49d96e3c32079f64790,2023-08-16_08h37.31.164,HF_wild_card,2022.2.4,MacIntel,59.80861244,5e4db49d96e3c32079f64790,64d2fd46c836a06233681665,64dc7cad63a4fd7ffd42da22,,,,,,,decisionTrl,resources/DG.BMP,resources/DR.BMP,Door1,-0.293110352,-0.08453125,1,0,0,1.0301,optionLeft,30,7045,4,0,0,0,0,1,,,,,,,,,,,,,,,,,,,,,,,,,,,,,,,,,,,,,,,
,,,,,,,5e4db49d96e3c32079f64790,2023-08-16_08h37.31.164,HF_wild_card,2022.2.4,MacIntel,59.80861244,5e4db49d96e3c32079f64790,64d2fd46c836a06233681665,64dc7cad63a4fd7ffd42da22,,,,,,,sngl,resources/Empty.png,resources/DP.BMP,Door3,0.304204102,-0.104580078,1,0,0,0.5358,optionRight,70,7115,4,1,0,1,0,1,,,,,,,,,,,,,,,,,,,,,,,,,,,,,,,,,,,,,,,
,,,,,,,5e4db49d96e3c32079f64790,2023-08-16_08h37.31.164,HF_wild_card,2022.2.4,MacIntel,59.80861244,5e4db49d96e3c32079f64790,64d2fd46c836a06233681665,64dc7cad63a4fd7ffd42da22,,,,,,,sngl,resources/Empty.png,resources/DBN.BMP,WildCard_NonEx,0.349169922,-0.063056641,1,0,0,2.4397,optionRight,45,7160,4,2,0,2,0,1,,,,,,,,,,,,,,,,,,,,,,,,,,,,,,,,,,,,,,,
,,,,,,,5e4db49d96e3c32079f64790,2023-08-16_08h37.31.164,HF_wild_card,2022.2.4,MacIntel,59.80861244,5e4db49d96e3c32079f64790,64d2fd46c836a06233681665,64dc7cad63a4fd7ffd42da22,,,,,,,sngl,resources/DP.BMP,resources/Empty.png,Door3,-0.347041016,-0.04440918,1,0,0,0.6464,optionLeft,70,7230,4,3,0,3,0,1,,,,,,,,,,,,,,,,,,,,,,,,,,,,,,,,,,,,,,,
,,,,,,,5e4db49d96e3c32079f64790,2023-08-16_08h37.31.164,HF_wild_card,2022.2.4,MacIntel,59.80861244,5e4db49d96e3c32079f64790,64d2fd46c836a06233681665,64dc7cad63a4fd7ffd42da22,,,,,,,decisionTrl,resources/DBN.BMP,resources/DG.BMP,WildCard_NonEx,-0.300166016,-0.0446875,1,0,0,1.5158,optionLeft,45,7275,4,4,0,4,0,1,,,,,,,,,,,,,,,,,,,,,,,,,,,,,,,,,,,,,,,
,,,,,,,5e4db49d96e3c32079f64790,2023-08-16_08h37.31.164,HF_wild_card,2022.2.4,MacIntel,59.80861244,5e4db49d96e3c32079f64790,64d2fd46c836a06233681665,64dc7cad63a4fd7ffd42da22,,,,,,,ctch,resources/DG.BMP,resources/DB.BMP,Door4,0.32347168,-0.102080078,1,0,0,0.6887,optionRight,80,7355,4,5,0,5,0,1,,,,,,,,,,,,,,,,,,,,,,,,,,,,,,,,,,,,,,,
,,,,,,,5e4db49d96e3c32079f64790,2023-08-16_08h37.31.164,HF_wild_card,2022.2.4,MacIntel,59.80861244,5e4db49d96e3c32079f64790,64d2fd46c836a06233681665,64dc7cad63a4fd7ffd42da22,,,,,,,decisionTrl,resources/DP.BMP,resources/DB.BMP,Door4,0.309526367,-0.098237305,1,0,0,0.7934,optionRight,80,7435,4,6,0,6,0,1,,,,,,,,,,,,,,,,,,,,,,,,,,,,,,,,,,,,,,,
,,,,,,,5e4db49d96e3c32079f64790,2023-08-16_08h37.31.164,HF_wild_card,2022.2.4,MacIntel,59.80861244,5e4db49d96e3c32079f64790,64d2fd46c836a06233681665,64dc7cad63a4fd7ffd42da22,,,,,,,decisionTrl,resources/DG.BMP,resources/DR.BMP,Door1,-0.324667969,-0.008642578,1,0,0,0.8135,optionLeft,30,7465,4,7,0,7,0,1,,,,,,,,,,,,,,,,,,,,,,,,,,,,,,,,,,,,,,,
,,,,,,,5e4db49d96e3c32079f64790,2023-08-16_08h37.31.164,HF_wild_card,2022.2.4,MacIntel,59.80861244,5e4db49d96e3c32079f64790,64d2fd46c836a06233681665,64dc7cad63a4fd7ffd42da22,,,,,,,decisionTrl,resources/DBN.BMP,resources/DR.BMP,Door2,0.318579102,-0.107329102,1,0,0,1.0616,optionRight,20,7485,4,8,0,8,0,1,,,,,,,,,,,,,,,,,,,,,,,,,,,,,,,,,,,,,,,
,,,,,,,5e4db49d96e3c32079f64790,2023-08-16_08h37.31.164,HF_wild_card,2022.2.4,MacIntel,59.80861244,5e4db49d96e3c32079f64790,64d2fd46c836a06233681665,64dc7cad63a4fd7ffd42da22,,,,,,,decisionTrl,resources/DB.BMP,resources/DP.BMP,Door3,0.382436523,-0.113535156,1,0,0,1.2453,optionRight,70,7555,4,9,0,9,0,1,,,,,,,,,,,,,,,,,,,,,,,,,,,,,,,,,,,,,,,
,,,,,,,5e4db49d96e3c32079f64790,2023-08-16_08h37.31.164,HF_wild_card,2022.2.4,MacIntel,59.80861244,5e4db49d96e3c32079f64790,64d2fd46c836a06233681665,64dc7cad63a4fd7ffd42da22,,,,,,,decisionTrl,resources/DG.BMP,resources/DR.BMP,Door2,0.32918457,-0.095170898,1,0,0,1.3896,optionRight,40,7595,4,10,0,10,0,1,,,,,,,,,,,,,,,,,,,,,,,,,,,,,,,,,,,,,,,
,,,,,,,5e4db49d96e3c32079f64790,2023-08-16_08h37.31.164,HF_wild_card,2022.2.4,MacIntel,59.80861244,5e4db49d96e3c32079f64790,64d2fd46c836a06233681665,64dc7cad63a4fd7ffd42da22,,,,,,,decisionTrl,resources/DP.BMP,resources/DB.BMP,Door4,0.325883789,-0.090224609,1,0,0,0.8179,optionRight,60,7655,4,11,0,11,0,1,,,,,,,,,,,,,,,,,,,,,,,,,,,,,,,,,,,,,,,
,,,,,,,5e4db49d96e3c32079f64790,2023-08-16_08h37.31.164,HF_wild_card,2022.2.4,MacIntel,59.80861244,5e4db49d96e3c32079f64790,64d2fd46c836a06233681665,64dc7cad63a4fd7ffd42da22,,,,,,,decisionTrl,resources/DB.BMP,resources/DBN.BMP,Door4,-0.295112305,-0.021425781,1,0,0,0.9686,optionLeft,60,7715,4,12,0,12,0,1,,,,,,,,,,,,,,,,,,,,,,,,,,,,,,,,,,,,,,,
,,,,,,,5e4db49d96e3c32079f64790,2023-08-16_08h37.31.164,HF_wild_card,2022.2.4,MacIntel,59.80861244,5e4db49d96e3c32079f64790,64d2fd46c836a06233681665,64dc7cad63a4fd7ffd42da22,,,,,,,decisionTrl,resources/DG.BMP,resources/DBN.BMP,Door1,-0.272426758,-0.036391602,1,0,0,0.9378,optionLeft,30,7745,4,13,0,13,0,1,,,,,,,,,,,,,,,,,,,,,,,,,,,,,,,,,,,,,,,
,,,,,,,5e4db49d96e3c32079f64790,2023-08-16_08h37.31.164,HF_wild_card,2022.2.4,MacIntel,59.80861244,5e4db49d96e3c32079f64790,64d2fd46c836a06233681665,64dc7cad63a4fd7ffd42da22,,,,,,,decisionTrl,resources/DR.BMP,resources/DG.BMP,Door2,-0.293803711,-0.07144043,1,0,0,2.1666,optionLeft,40,7785,4,14,0,14,0,1,,,,,,,,,,,,,,,,,,,,,,,,,,,,,,,,,,,,,,,
,,,,,,,5e4db49d96e3c32079f64790,2023-08-16_08h37.31.164,HF_wild_card,2022.2.4,MacIntel,59.80861244,5e4db49d96e3c32079f64790,64d2fd46c836a06233681665,64dc7cad63a4fd7ffd42da22,,,,,,,ctch,resources/DB.BMP,resources/DG.BMP,Door4,-0.248334961,-0.013061523,1,0,0,0.8494,optionLeft,60,7845,4,15,0,15,0,1,,,,,,,,,,,,,,,,,,,,,,,,,,,,,,,,,,,,,,,
,,,,,,,5e4db49d96e3c32079f64790,2023-08-16_08h37.31.164,HF_wild_card,2022.2.4,MacIntel,59.80861244,5e4db49d96e3c32079f64790,64d2fd46c836a06233681665,64dc7cad63a4fd7ffd42da22,,,,,,,sngl,resources/DB.BMP,resources/Empty.png,Door4,-0.228554687,0.003120117,1,0,0,0.5477,optionLeft,60,7905,4,16,0,16,0,1,,,,,,,,,,,,,,,,,,,,,,,,,,,,,,,,,,,,,,,
,,,,,,,5e4db49d96e3c32079f64790,2023-08-16_08h37.31.164,HF_wild_card,2022.2.4,MacIntel,59.80861244,5e4db49d96e3c32079f64790,64d2fd46c836a06233681665,64dc7cad63a4fd7ffd42da22,,,,,,,ctch,resources/DR.BMP,resources/DP.BMP,Door3,0.333652344,-0.107763672,1,0,0,0.653,optionRight,70,7975,4,17,0,17,0,1,,,,,,,,,,,,,,,,,,,,,,,,,,,,,,,,,,,,,,,
,,,,,,,5e4db49d96e3c32079f64790,2023-08-16_08h37.31.164,HF_wild_card,2022.2.4,MacIntel,59.80861244,5e4db49d96e3c32079f64790,64d2fd46c836a06233681665,64dc7cad63a4fd7ffd42da22,,,,,,,sngl,resources/DBN.BMP,resources/Empty.png,WildCard_NonEx,-0.299975586,-0.002402344,1,0,0,0.8225,optionLeft,45,8020,4,18,0,18,0,1,,,,,,,,,,,,,,,,,,,,,,,,,,,,,,,,,,,,,,,
,,,,,,,5e4db49d96e3c32079f64790,2023-08-16_08h37.31.164,HF_wild_card,2022.2.4,MacIntel,59.80861244,5e4db49d96e3c32079f64790,64d2fd46c836a06233681665,64dc7cad63a4fd7ffd42da22,,,,,,,decisionTrl,resources/DG.BMP,resources/DR.BMP,Door2,0.303012695,-0.100102539,1,0,0,1.7959,optionRight,20,8040,4,19,0,19,0,1,,,,,,,,,,,,,,,,,,,,,,,,,,,,,,,,,,,,,,,
,,,,,,,5e4db49d96e3c32079f64790,2023-08-16_08h37.31.164,HF_wild_card,2022.2.4,MacIntel,59.80861244,5e4db49d96e3c32079f64790,64d2fd46c836a06233681665,64dc7cad63a4fd7ffd42da22,,,,,,,ctch,resources/DB.BMP,resources/DG.BMP,Door4,-0.296245117,-0.035893555,1,0,0,0.7794,optionLeft,60,8100,4,20,0,20,0,1,,,,,,,,,,,,,,,,,,,,,,,,,,,,,,,,,,,,,,,
,,,,,,,5e4db49d96e3c32079f64790,2023-08-16_08h37.31.164,HF_wild_card,2022.2.4,MacIntel,59.80861244,5e4db49d96e3c32079f64790,64d2fd46c836a06233681665,64dc7cad63a4fd7ffd42da22,,,,,,,sngl,resources/Empty.png,resources/DBN.BMP,WildCard_NonEx,0.365395508,-0.091220703,1,0,0,0.5981,optionRight,55,8155,4,21,0,21,0,1,,,,,,,,,,,,,,,,,,,,,,,,,,,,,,,,,,,,,,,
,,,,,,,5e4db49d96e3c32079f64790,2023-08-16_08h37.31.164,HF_wild_card,2022.2.4,MacIntel,59.80861244,5e4db49d96e3c32079f64790,64d2fd46c836a06233681665,64dc7cad63a4fd7ffd42da22,,,,,,,sngl,resources/Empty.png,resources/DG.BMP,Door1,0.317412109,-0.082392578,1,0,0,0.6964,optionRight,30,8185,4,22,0,22,0,1,,,,,,,,,,,,,,,,,,,,,,,,,,,,,,,,,,,,,,,
,,,,,,,5e4db49d96e3c32079f64790,2023-08-16_08h37.31.164,HF_wild_card,2022.2.4,MacIntel,59.80861244,5e4db49d96e3c32079f64790,64d2fd46c836a06233681665,64dc7cad63a4fd7ffd42da22,,,,,,,decisionTrl,resources/DB.BMP,resources/DP.BMP,Door3,0.338662109,-0.112641602,1,0,0,1.1057,optionRight,70,8255,4,23,0,23,0,1,,,,,,,,,,,,,,,,,,,,,,,,,,,,,,,,,,,,,,,
,,,,,,,5e4db49d96e3c32079f64790,2023-08-16_08h37.31.164,HF_wild_card,2022.2.4,MacIntel,59.80861244,5e4db49d96e3c32079f64790,64d2fd46c836a06233681665,64dc7cad63a4fd7ffd42da22,,,,,,,sngl,resources/DG.BMP,resources/Empty.png,Door1,-0.250703125,-0.020039062,1,0,0,0.556,optionLeft,30,8285,4,24,0,24,0,1,,,,,,,,,,,,,,,,,,,,,,,,,,,,,,,,,,,,,,,
,,,,,,,5e4db49d96e3c32079f64790,2023-08-16_08h37.31.164,HF_wild_card,2022.2.4,MacIntel,59.80861244,5e4db49d96e3c32079f64790,64d2fd46c836a06233681665,64dc7cad63a4fd7ffd42da22,,,,,,,decisionTrl,resources/DB.BMP,resources/DP.BMP,Door4,-0.349633789,-0.024575195,1,0,0,1.2118,optionLeft,60,8345,4,25,0,25,0,1,,,,,,,,,,,,,,,,,,,,,,,,,,,,,,,,,,,,,,,
,,,,,,,5e4db49d96e3c32079f64790,2023-08-16_08h37.31.164,HF_wild_card,2022.2.4,MacIntel,59.80861244,5e4db49d96e3c32079f64790,64d2fd46c836a06233681665,64dc7cad63a4fd7ffd42da22,,,,,,,decisionTrl,resources/DR.BMP,resources/DG.BMP,Door1,0.339472656,-0.102626953,1,0,0,0.592,optionRight,30,8375,4,26,0,26,0,1,,,,,,,,,,,,,,,,,,,,,,,,,,,,,,,,,,,,,,,
,,,,,,,5e4db49d96e3c32079f64790,2023-08-16_08h37.31.164,HF_wild_card,2022.2.4,MacIntel,59.80861244,5e4db49d96e3c32079f64790,64d2fd46c836a06233681665,64dc7cad63a4fd7ffd42da22,,,,,,,ctch,resources/DP.BMP,resources/DR.BMP,Door3,-0.292631836,-0.047973633,1,0,0,0.8816,optionLeft,70,8445,4,27,0,27,0,1,,,,,,,,,,,,,,,,,,,,,,,,,,,,,,,,,,,,,,,
,,,,,,,5e4db49d96e3c32079f64790,2023-08-16_08h37.31.164,HF_wild_card,2022.2.4,MacIntel,59.80861244,5e4db49d96e3c32079f64790,64d2fd46c836a06233681665,64dc7cad63a4fd7ffd42da22,,,,,,,sngl,resources/DR.BMP,resources/Empty.png,Door2,-0.292456055,-0.000825195,1,0,0,0.6068,optionLeft,20,8465,4,28,0,28,0,1,,,,,,,,,,,,,,,,,,,,,,,,,,,,,,,,,,,,,,,
,,,,,,,5e4db49d96e3c32079f64790,2023-08-16_08h37.31.164,HF_wild_card,2022.2.4,MacIntel,59.80861244,5e4db49d96e3c32079f64790,64d2fd46c836a06233681665,64dc7cad63a4fd7ffd42da22,,,,,,,ctch,resources/DP.BMP,resources/DR.BMP,Door3,-0.279804687,-0.040839844,1,0,0,0.8308,optionLeft,70,8535,4,29,0,29,0,1,,,,,,,,,,,,,,,,,,,,,,,,,,,,,,,,,,,,,,,
,,,,,,,5e4db49d96e3c32079f64790,2023-08-16_08h37.31.164,HF_wild_card,2022.2.4,MacIntel,59.80861244,5e4db49d96e3c32079f64790,64d2fd46c836a06233681665,64dc7cad63a4fd7ffd42da22,,,,,,,decisionTrl,resources/DP.BMP,resources/DBN.BMP,Door3,-0.318271484,-0.072792969,1,0,0,1.2997,optionLeft,70,8605,4,30,0,30,0,1,,,,,,,,,,,,,,,,,,,,,,,,,,,,,,,,,,,,,,,
,,,,,,,5e4db49d96e3c32079f64790,2023-08-16_08h37.31.164,HF_wild_card,2022.2.4,MacIntel,59.80861244,5e4db49d96e3c32079f64790,64d2fd46c836a06233681665,64dc7cad63a4fd7ffd42da22,,,,,,,sngl,resources/Empty.png,resources/DB.BMP,Door4,0.276791992,-0.059614258,1,0,0,0.5577,optionRight,80,8685,4,31,0,31,0,1,,,,,,,,,,,,,,,,,,,,,,,,,,,,,,,,,,,,,,,
,,,,,,,5e4db49d96e3c32079f64790,2023-08-16_08h37.31.164,HF_wild_card,2022.2.4,MacIntel,59.80861244,5e4db49d96e3c32079f64790,64d2fd46c836a06233681665,64dc7cad63a4fd7ffd42da22,,,,,,,decisionTrl,resources/DR.BMP,resources/DBN.BMP,WildCard_NonEx,0.372446289,-0.109726562,1,0,0,3.1988,optionRight,55,8740,4,32,0,32,0,1,,,,,,,,,,,,,,,,,,,,,,,,,,,,,,,,,,,,,,,
,,,,,,,5e4db49d96e3c32079f64790,2023-08-16_08h37.31.164,HF_wild_card,2022.2.4,MacIntel,59.80861244,5e4db49d96e3c32079f64790,64d2fd46c836a06233681665,64dc7cad63a4fd7ffd42da22,,,,,,,decisionTrl,resources/DR.BMP,resources/DG.BMP,Door2,-0.310791016,-0.09,1,0,0,1.6098,optionLeft,40,8780,4,33,0,33,0,1,,,,,,,,,,,,,,,,,,,,,,,,,,,,,,,,,,,,,,,
,,,,,,,5e4db49d96e3c32079f64790,2023-08-16_08h37.31.164,HF_wild_card,2022.2.4,MacIntel,59.80861244,5e4db49d96e3c32079f64790,64d2fd46c836a06233681665,64dc7cad63a4fd7ffd42da22,,,,,,,decisionTrl,resources/DB.BMP,resources/DP.BMP,Door3,0.313115234,-0.125053711,1,0,0,1.0524,optionRight,70,8850,4,34,0,34,0,1,,,,,,,,,,,,,,,,,,,,,,,,,,,,,,,,,,,,,,,
,,,,,,,5e4db49d96e3c32079f64790,2023-08-16_08h37.31.164,HF_wild_card,2022.2.4,MacIntel,59.80861244,5e4db49d96e3c32079f64790,64d2fd46c836a06233681665,64dc7cad63a4fd7ffd42da22,,,,,,,sngl,resources/Empty.png,resources/DR.BMP,Door2,0.295170898,-0.073261719,1,0,0,0.5448,optionRight,40,8890,4,35,0,35,0,1,,,,,,,,,,,,,,,,,,,,,,,,,,,,,,,,,,,,,,,
,,,,,,,5e4db49d96e3c32079f64790,2023-08-16_08h37.31.164,HF_wild_card,2022.2.4,MacIntel,59.80861244,5e4db49d96e3c32079f64790,64d2fd46c836a06233681665,64dc7cad63a4fd7ffd42da22,,,,,,,decisionTrl,resources/DBN.BMP,resources/DB.BMP,Door4,0.348745117,-0.087416992,1,0,0,1.4354,optionRight,60,8950,4,36,0,36,0,1,,,,,,,,,,,,,,,,,,,,,,,,,,,,,,,,,,,,,,,
,,,,,,,5e4db49d96e3c32079f64790,2023-08-16_08h37.31.164,HF_wild_card,2022.2.4,MacIntel,59.80861244,5e4db49d96e3c32079f64790,64d2fd46c836a06233681665,64dc7cad63a4fd7ffd42da22,,,,,,,ctch,resources/DR.BMP,resources/DP.BMP,Door3,0.319980469,-0.074833984,1,0,0,1.4732,optionRight,70,9020,4,37,0,37,0,1,,,,,,,,,,,,,,,,,,,,,,,,,,,,,,,,,,,,,,,
,,,,,,,5e4db49d96e3c32079f64790,2023-08-16_08h37.31.164,HF_wild_card,2022.2.4,MacIntel,59.80861244,5e4db49d96e3c32079f64790,64d2fd46c836a06233681665,64dc7cad63a4fd7ffd42da22,,,,,,,decisionTrl,resources/DP.BMP,resources/DB.BMP,Door4,0.303774414,-0.065976563,1,0,0,1.7091,optionRight,60,9080,4,38,0,38,0,1,,,,,,,,,,,,,,,,,,,,,,,,,,,,,,,,,,,,,,,
,,,,,,,5e4db49d96e3c32079f64790,2023-08-16_08h37.31.164,HF_wild_card,2022.2.4,MacIntel,59.80861244,5e4db49d96e3c32079f64790,64d2fd46c836a06233681665,64dc7cad63a4fd7ffd42da22,,,,,,,decisionTrl,resources/DR.BMP,resources/DG.BMP,Door2,-0.266762695,-0.07831543,1,0,0,1.6109,optionLeft,40,9120,4,39,0,39,0,1,,,,,,,,,,,,,,,,,,,,,,,,,,,,,,,,,,,,,,,
,,,,,,,5e4db49d96e3c32079f64790,2023-08-16_08h37.31.164,HF_wild_card,2022.2.4,MacIntel,59.80861244,5e4db49d96e3c32079f64790,64d2fd46c836a06233681665,64dc7cad63a4fd7ffd42da22,,,,,,,decisionTrl,resources/DP.BMP,resources/DB.BMP,Door4,0.303051758,-0.085581055,1,0,0,1.2704,optionRight,80,9200,4,40,0,40,0,1,,,,,,,,,,,,,,,,,,,,,,,,,,,,,,,,,,,,,,,
,,,,,,,5e4db49d96e3c32079f64790,2023-08-16_08h37.31.164,HF_wild_card,2022.2.4,MacIntel,59.80861244,5e4db49d96e3c32079f64790,64d2fd46c836a06233681665,64dc7cad63a4fd7ffd42da22,,,,,,,ctch,resources/DG.BMP,resources/DB.BMP,Door4,0.308881836,-0.092358398,1,0,0,1.4356,optionRight,80,9280,4,41,0,41,0,1,,,,,,,,,,,,,,,,,,,,,,,,,,,,,,,,,,,,,,,
,,,,,,,5e4db49d96e3c32079f64790,2023-08-16_08h37.31.164,HF_wild_card,2022.2.4,MacIntel,59.80861244,5e4db49d96e3c32079f64790,64d2fd46c836a06233681665,64dc7cad63a4fd7ffd42da22,,,,,,,decisionTrl,resources/DBN.BMP,resources/DP.BMP,Door3,0.312368164,-0.08894043,1,0,0,1.4495,optionRight,70,9350,4,42,0,42,0,1,,,,,,,,,,,,,,,,,,,,,,,,,,,,,,,,,,,,,,,
,,,,,,,5e4db49d96e3c32079f64790,2023-08-16_08h37.31.164,HF_wild_card,2022.2.4,MacIntel,59.80861244,5e4db49d96e3c32079f64790,64d2fd46c836a06233681665,64dc7cad63a4fd7ffd42da22,,,,,,,sngl,resources/DBN.BMP,resources/Empty.png,WildCard_NonEx,-0.225087891,0.012167969,1,0,0,0.7508,optionLeft,55,9405,4,43,0,43,0,1,,,,,,,,,,,,,,,,,,,,,,,,,,,,,,,,,,,,,,,
,,,,,,,5e4db49d96e3c32079f64790,2023-08-16_08h37.31.164,HF_wild_card,2022.2.4,MacIntel,59.80861244,5e4db49d96e3c32079f64790,64d2fd46c836a06233681665,64dc7cad63a4fd7ffd42da22,,,,,,,,,,,,,,,,,,,,,,,,,,3,0,3,0,1,,,,,,,,,,,,,,,,,,,,,,,,,,,,,,,,,,
,,,,,,,5e4db49d96e3c32079f64790,2023-08-16_08h37.31.164,HF_wild_card,2022.2.4,MacIntel,59.80861244,5e4db49d96e3c32079f64790,64d2fd46c836a06233681665,64dc7cad63a4fd7ffd42da22,,,,,,,decisionTrl,resources/DG.BMP,resources/DR.BMP,Door2,0.38152832,-0.143676758,1,0,0,2.064,optionRight,20,9425,5,0,0,0,0,1,,,,,,,,,,,,,,,,,,,,,,,,,,,,,,,,,,,,,,,
,,,,,,,5e4db49d96e3c32079f64790,2023-08-16_08h37.31.164,HF_wild_card,2022.2.4,MacIntel,59.80861244,5e4db49d96e3c32079f64790,64d2fd46c836a06233681665,64dc7cad63a4fd7ffd42da22,,,,,,,sngl,resources/DG.BMP,resources/Empty.png,Door1,-0.241577148,-0.026494141,1,0,0,0.5264,optionLeft,30,9455,5,1,0,1,0,1,,,,,,,,,,,,,,,,,,,,,,,,,,,,,,,,,,,,,,,
,,,,,,,5e4db49d96e3c32079f64790,2023-08-16_08h37.31.164,HF_wild_card,2022.2.4,MacIntel,59.80861244,5e4db49d96e3c32079f64790,64d2fd46c836a06233681665,64dc7cad63a4fd7ffd42da22,,,,,,,decisionTrl,resources/DB.BMP,resources/DP.BMP,Door3,0.319560547,-0.122724609,1,0,0,0.8695,optionRight,70,9525,5,2,0,2,0,1,,,,,,,,,,,,,,,,,,,,,,,,,,,,,,,,,,,,,,,
,,,,,,,5e4db49d96e3c32079f64790,2023-08-16_08h37.31.164,HF_wild_card,2022.2.4,MacIntel,59.80861244,5e4db49d96e3c32079f64790,64d2fd46c836a06233681665,64dc7cad63a4fd7ffd42da22,,,,,,,sngl,resources/DR.BMP,resources/Empty.png,Door2,-0.260546875,0.004838867,1,0,0,0.5223,optionLeft,40,9565,5,3,0,3,0,1,,,,,,,,,,,,,,,,,,,,,,,,,,,,,,,,,,,,,,,
,,,,,,,5e4db49d96e3c32079f64790,2023-08-16_08h37.31.164,HF_wild_card,2022.2.4,MacIntel,59.80861244,5e4db49d96e3c32079f64790,64d2fd46c836a06233681665,64dc7cad63a4fd7ffd42da22,,,,,,,decisionTrl,resources/DB.BMP,resources/DP.BMP,Door3,0.301435547,-0.084648438,1,0,0,1.1173,optionRight,70,9635,5,4,0,4,0,1,,,,,,,,,,,,,,,,,,,,,,,,,,,,,,,,,,,,,,,
,,,,,,,5e4db49d96e3c32079f64790,2023-08-16_08h37.31.164,HF_wild_card,2022.2.4,MacIntel,59.80861244,5e4db49d96e3c32079f64790,64d2fd46c836a06233681665,64dc7cad63a4fd7ffd42da22,,,,,,,ctch,resources/DR.BMP,resources/DP.BMP,Door3,0.321318359,-0.100620117,1,0,0,0.6623,optionRight,70,9705,5,5,0,5,0,1,,,,,,,,,,,,,,,,,,,,,,,,,,,,,,,,,,,,,,,
,,,,,,,5e4db49d96e3c32079f64790,2023-08-16_08h37.31.164,HF_wild_card,2022.2.4,MacIntel,59.80861244,5e4db49d96e3c32079f64790,64d2fd46c836a06233681665,64dc7cad63a4fd7ffd42da22,,,,,,,sngl,resources/Empty.png,resources/DG.BMP,Door1,0.353374023,-0.098134766,1,0,0,0.5427,optionRight,30,9735,5,6,0,6,0,1,,,,,,,,,,,,,,,,,,,,,,,,,,,,,,,,,,,,,,,
,,,,,,,5e4db49d96e3c32079f64790,2023-08-16_08h37.31.164,HF_wild_card,2022.2.4,MacIntel,59.80861244,5e4db49d96e3c32079f64790,64d2fd46c836a06233681665,64dc7cad63a4fd7ffd42da22,,,,,,,ctch,resources/DP.BMP,resources/DR.BMP,Door3,-0.24418457,-0.042851563,1,0,0,0.9295,optionLeft,70,9805,5,7,0,7,0,1,,,,,,,,,,,,,,,,,,,,,,,,,,,,,,,,,,,,,,,
,,,,,,,5e4db49d96e3c32079f64790,2023-08-16_08h37.31.164,HF_wild_card,2022.2.4,MacIntel,59.80861244,5e4db49d96e3c32079f64790,64d2fd46c836a06233681665,64dc7cad63a4fd7ffd42da22,,,,,,,sngl,resources/Empty.png,resources/DBN.BMP,WildCard_NonEx,0.29581543,-0.052260742,1,0,0,0.4794,optionRight,45,9850,5,8,0,8,0,1,,,,,,,,,,,,,,,,,,,,,,,,,,,,,,,,,,,,,,,
,,,,,,,5e4db49d96e3c32079f64790,2023-08-16_08h37.31.164,HF_wild_card,2022.2.4,MacIntel,59.80861244,5e4db49d96e3c32079f64790,64d2fd46c836a06233681665,64dc7cad63a4fd7ffd42da22,,,,,,,decisionTrl,resources/DBN.BMP,resources/DB.BMP,Door4,0.316625977,-0.097905273,1,0,0,1.1313,optionRight,80,9930,5,9,0,9,0,1,,,,,,,,,,,,,,,,,,,,,,,,,,,,,,,,,,,,,,,
,,,,,,,5e4db49d96e3c32079f64790,2023-08-16_08h37.31.164,HF_wild_card,2022.2.4,MacIntel,59.80861244,5e4db49d96e3c32079f64790,64d2fd46c836a06233681665,64dc7cad63a4fd7ffd42da22,,,,,,,decisionTrl,resources/DP.BMP,resources/DB.BMP,Door4,0.274921875,-0.088564453,1,0,0,0.5675,optionRight,80,10010,5,10,0,10,0,1,,,,,,,,,,,,,,,,,,,,,,,,,,,,,,,,,,,,,,,
,,,,,,,5e4db49d96e3c32079f64790,2023-08-16_08h37.31.164,HF_wild_card,2022.2.4,MacIntel,59.80861244,5e4db49d96e3c32079f64790,64d2fd46c836a06233681665,64dc7cad63a4fd7ffd42da22,,,,,,,sngl,resources/DBN.BMP,resources/Empty.png,WildCard_NonEx,-0.213613281,0.007832031,1,0,0,0.9323,optionLeft,55,10065,5,11,0,11,0,1,,,,,,,,,,,,,,,,,,,,,,,,,,,,,,,,,,,,,,,
,,,,,,,5e4db49d96e3c32079f64790,2023-08-16_08h37.31.164,HF_wild_card,2022.2.4,MacIntel,59.80861244,5e4db49d96e3c32079f64790,64d2fd46c836a06233681665,64dc7cad63a4fd7ffd42da22,,,,,,,decisionTrl,resources/DG.BMP,resources/DR.BMP,Door1,-0.252426758,0.005732422,1,0,0,1.9507,optionLeft,30,10095,5,12,0,12,0,1,,,,,,,,,,,,,,,,,,,,,,,,,,,,,,,,,,,,,,,
,,,,,,,5e4db49d96e3c32079f64790,2023-08-16_08h37.31.164,HF_wild_card,2022.2.4,MacIntel,59.80861244,5e4db49d96e3c32079f64790,64d2fd46c836a06233681665,64dc7cad63a4fd7ffd42da22,,,,,,,ctch,resources/DR.BMP,resources/DP.BMP,Door3,0.274736328,-0.050175781,1,0,0,0.6229,optionRight,70,10165,5,13,0,13,0,1,,,,,,,,,,,,,,,,,,,,,,,,,,,,,,,,,,,,,,,
,,,,,,,5e4db49d96e3c32079f64790,2023-08-16_08h37.31.164,HF_wild_card,2022.2.4,MacIntel,59.80861244,5e4db49d96e3c32079f64790,64d2fd46c836a06233681665,64dc7cad63a4fd7ffd42da22,,,,,,,sngl,resources/Empty.png,resources/DR.BMP,Door2,0.259575195,-0.053706055,1,0,0,0.5049,optionRight,20,10185,5,14,0,14,0,1,,,,,,,,,,,,,,,,,,,,,,,,,,,,,,,,,,,,,,,
,,,,,,,5e4db49d96e3c32079f64790,2023-08-16_08h37.31.164,HF_wild_card,2022.2.4,MacIntel,59.80861244,5e4db49d96e3c32079f64790,64d2fd46c836a06233681665,64dc7cad63a4fd7ffd42da22,,,,,,,sngl,resources/Empty.png,resources/DP.BMP,Door3,0.266567383,-0.066000977,1,0,0,0.8064,optionRight,70,10255,5,15,0,15,0,1,,,,,,,,,,,,,,,,,,,,,,,,,,,,,,,,,,,,,,,
,,,,,,,5e4db49d96e3c32079f64790,2023-08-16_08h37.31.164,HF_wild_card,2022.2.4,MacIntel,59.80861244,5e4db49d96e3c32079f64790,64d2fd46c836a06233681665,64dc7cad63a4fd7ffd42da22,,,,,,,sngl,resources/DB.BMP,resources/Empty.png,Door4,-0.203330078,0.027602539,1,0,0,0.599,optionLeft,80,10335,5,16,0,16,0,1,,,,,,,,,,,,,,,,,,,,,,,,,,,,,,,,,,,,,,,
,,,,,,,5e4db49d96e3c32079f64790,2023-08-16_08h37.31.164,HF_wild_card,2022.2.4,MacIntel,59.80861244,5e4db49d96e3c32079f64790,64d2fd46c836a06233681665,64dc7cad63a4fd7ffd42da22,,,,,,,decisionTrl,resources/DB.BMP,resources/DP.BMP,Door4,-0.25793457,-0.009868164,1,0,0,1.7042,optionLeft,60,10395,5,17,0,17,0,1,,,,,,,,,,,,,,,,,,,,,,,,,,,,,,,,,,,,,,,
,,,,,,,5e4db49d96e3c32079f64790,2023-08-16_08h37.31.164,HF_wild_card,2022.2.4,MacIntel,59.80861244,5e4db49d96e3c32079f64790,64d2fd46c836a06233681665,64dc7cad63a4fd7ffd42da22,,,,,,,ctch,resources/DB.BMP,resources/DG.BMP,Door4,-0.323193359,-0.002587891,1,0,0,1.0774,optionLeft,80,10475,5,18,0,18,0,1,,,,,,,,,,,,,,,,,,,,,,,,,,,,,,,,,,,,,,,
,,,,,,,5e4db49d96e3c32079f64790,2023-08-16_08h37.31.164,HF_wild_card,2022.2.4,MacIntel,59.80861244,5e4db49d96e3c32079f64790,64d2fd46c836a06233681665,64dc7cad63a4fd7ffd42da22,,,,,,,sngl,resources/Empty.png,resources/DBN.BMP,WildCard_NonEx,0.331044922,-0.068803711,1,0,0,0.5993,optionRight,55,10530,5,19,0,19,0,1,,,,,,,,,,,,,,,,,,,,,,,,,,,,,,,,,,,,,,,
,,,,,,,5e4db49d96e3c32079f64790,2023-08-16_08h37.31.164,HF_wild_card,2022.2.4,MacIntel,59.80861244,5e4db49d96e3c32079f64790,64d2fd46c836a06233681665,64dc7cad63a4fd7ffd42da22,,,,,,,decisionTrl,resources/DG.BMP,resources/DR.BMP,Door2,0.286186523,-0.079770508,1,0,0,2.0225,optionRight,40,10570,5,20,0,20,0,1,,,,,,,,,,,,,,,,,,,,,,,,,,,,,,,,,,,,,,,
,,,,,,,5e4db49d96e3c32079f64790,2023-08-16_08h37.31.164,HF_wild_card,2022.2.4,MacIntel,59.80861244,5e4db49d96e3c32079f64790,64d2fd46c836a06233681665,64dc7cad63a4fd7ffd42da22,,,,,,,decisionTrl,resources/DB.BMP,resources/DP.BMP,Door3,0.296113281,-0.089980469,1,0,0,0.7952,optionRight,70,10640,5,21,0,21,0,1,,,,,,,,,,,,,,,,,,,,,,,,,,,,,,,,,,,,,,,
,,,,,,,5e4db49d96e3c32079f64790,2023-08-16_08h37.31.164,HF_wild_card,2022.2.4,MacIntel,59.80861244,5e4db49d96e3c32079f64790,64d2fd46c836a06233681665,64dc7cad63a4fd7ffd42da22,,,,,,,sngl,resources/DP.BMP,resources/Empty.png,Door3,-0.254921875,-0.006064453,1,0,0,0.5663,optionLeft,70,10710,5,22,0,22,0,1,,,,,,,,,,,,,,,,,,,,,,,,,,,,,,,,,,,,,,,
,,,,,,,5e4db49d96e3c32079f64790,2023-08-16_08h37.31.164,HF_wild_card,2022.2.4,MacIntel,59.80861244,5e4db49d96e3c32079f64790,64d2fd46c836a06233681665,64dc7cad63a4fd7ffd42da22,,,,,,,ctch,resources/DP.BMP,resources/DR.BMP,Door3,-0.273227539,-0.042607422,1,0,0,0.706,optionLeft,70,10780,5,23,0,23,0,1,,,,,,,,,,,,,,,,,,,,,,,,,,,,,,,,,,,,,,,
,,,,,,,5e4db49d96e3c32079f64790,2023-08-16_08h37.31.164,HF_wild_card,2022.2.4,MacIntel,59.80861244,5e4db49d96e3c32079f64790,64d2fd46c836a06233681665,64dc7cad63a4fd7ffd42da22,,,,,,,ctch,resources/DG.BMP,resources/DB.BMP,Door4,0.323979492,-0.106269531,1,0,0,0.7383,optionRight,80,10860,5,24,0,24,0,1,,,,,,,,,,,,,,,,,,,,,,,,,,,,,,,,,,,,,,,
,,,,,,,5e4db49d96e3c32079f64790,2023-08-16_08h37.31.164,HF_wild_card,2022.2.4,MacIntel,59.80861244,5e4db49d96e3c32079f64790,64d2fd46c836a06233681665,64dc7cad63a4fd7ffd42da22,,,,,,,decisionTrl,resources/DP.BMP,resources/DB.BMP,Door4,0.307329102,-0.068754883,1,0,0,0.9979,optionRight,80,10940,5,25,0,25,0,1,,,,,,,,,,,,,,,,,,,,,,,,,,,,,,,,,,,,,,,
,,,,,,,5e4db49d96e3c32079f64790,2023-08-16_08h37.31.164,HF_wild_card,2022.2.4,MacIntel,59.80861244,5e4db49d96e3c32079f64790,64d2fd46c836a06233681665,64dc7cad63a4fd7ffd42da22,,,,,,,decisionTrl,resources/DR.BMP,resources/DG.BMP,Door1,0.266870117,-0.094179687,1,0,0,1.2475,optionRight,30,10970,5,26,0,26,0,1,,,,,,,,,,,,,,,,,,,,,,,,,,,,,,,,,,,,,,,
,,,,,,,5e4db49d96e3c32079f64790,2023-08-16_08h37.31.164,HF_wild_card,2022.2.4,MacIntel,59.80861244,5e4db49d96e3c32079f64790,64d2fd46c836a06233681665,64dc7cad63a4fd7ffd42da22,,,,,,,decisionTrl,resources/DR.BMP,resources/DG.BMP,Door2,-0.296870117,-0.000581055,1,0,0,0.686,optionLeft,40,11010,5,27,0,27,0,1,,,,,,,,,,,,,,,,,,,,,,,,,,,,,,,,,,,,,,,
,,,,,,,5e4db49d96e3c32079f64790,2023-08-16_08h37.31.164,HF_wild_card,2022.2.4,MacIntel,59.80861244,5e4db49d96e3c32079f64790,64d2fd46c836a06233681665,64dc7cad63a4fd7ffd42da22,,,,,,,ctch,resources/DG.BMP,resources/DB.BMP,Door4,0.281264648,-0.078901367,1,0,0,1.0146,optionRight,60,11070,5,28,0,28,0,1,,,,,,,,,,,,,,,,,,,,,,,,,,,,,,,,,,,,,,,
,,,,,,,5e4db49d96e3c32079f64790,2023-08-16_08h37.31.164,HF_wild_card,2022.2.4,MacIntel,59.80861244,5e4db49d96e3c32079f64790,64d2fd46c836a06233681665,64dc7cad63a4fd7ffd42da22,,,,,,,decisionTrl,resources/DR.BMP,resources/DG.BMP,Door2,-0.313847656,-4.39453E-05,1,0,0,0.7735,optionLeft,40,11110,5,29,0,29,0,1,,,,,,,,,,,,,,,,,,,,,,,,,,,,,,,,,,,,,,,
,,,,,,,5e4db49d96e3c32079f64790,2023-08-16_08h37.31.164,HF_wild_card,2022.2.4,MacIntel,59.80861244,5e4db49d96e3c32079f64790,64d2fd46c836a06233681665,64dc7cad63a4fd7ffd42da22,,,,,,,decisionTrl,resources/DG.BMP,resources/DR.BMP,Door2,0.347841797,-0.11246582,1,0,0,1.0277,optionRight,20,11130,5,30,0,30,0,1,,,,,,,,,,,,,,,,,,,,,,,,,,,,,,,,,,,,,,,
,,,,,,,5e4db49d96e3c32079f64790,2023-08-16_08h37.31.164,HF_wild_card,2022.2.4,MacIntel,59.80861244,5e4db49d96e3c32079f64790,64d2fd46c836a06233681665,64dc7cad63a4fd7ffd42da22,,,,,,,sngl,resources/DBN.BMP,resources/Empty.png,WildCard_NonEx,-0.226762695,-0.010200195,1,0,0,0.6492,optionLeft,45,11175,5,31,0,31,0,1,,,,,,,,,,,,,,,,,,,,,,,,,,,,,,,,,,,,,,,
,,,,,,,5e4db49d96e3c32079f64790,2023-08-16_08h37.31.164,HF_wild_card,2022.2.4,MacIntel,59.80861244,5e4db49d96e3c32079f64790,64d2fd46c836a06233681665,64dc7cad63a4fd7ffd42da22,,,,,,,decisionTrl,resources/DP.BMP,resources/DB.BMP,Door4,0.348339844,-0.107314453,1,0,0,0.8898,optionRight,60,11235,5,32,0,32,0,1,,,,,,,,,,,,,,,,,,,,,,,,,,,,,,,,,,,,,,,
,,,,,,,5e4db49d96e3c32079f64790,2023-08-16_08h37.31.164,HF_wild_card,2022.2.4,MacIntel,59.80861244,5e4db49d96e3c32079f64790,64d2fd46c836a06233681665,64dc7cad63a4fd7ffd42da22,,,,,,,decisionTrl,resources/DBN.BMP,resources/DG.BMP,WildCard_NonEx,-0.271118164,0.026098633,1,0,0,1.7994,optionLeft,45,11280,5,33,0,33,0,1,,,,,,,,,,,,,,,,,,,,,,,,,,,,,,,,,,,,,,,
,,,,,,,5e4db49d96e3c32079f64790,2023-08-16_08h37.31.164,HF_wild_card,2022.2.4,MacIntel,59.80861244,5e4db49d96e3c32079f64790,64d2fd46c836a06233681665,64dc7cad63a4fd7ffd42da22,,,,,,,decisionTrl,resources/DR.BMP,resources/DBN.BMP,WildCard_NonEx,0.311386719,-0.094765625,1,0,0,1.727,optionRight,55,11335,5,34,0,34,0,1,,,,,,,,,,,,,,,,,,,,,,,,,,,,,,,,,,,,,,,
,,,,,,,5e4db49d96e3c32079f64790,2023-08-16_08h37.31.164,HF_wild_card,2022.2.4,MacIntel,59.80861244,5e4db49d96e3c32079f64790,64d2fd46c836a06233681665,64dc7cad63a4fd7ffd42da22,,,,,,,decisionTrl,resources/DR.BMP,resources/DG.BMP,Door2,-0.158876953,-0.069077148,1,0,0,2.1624,optionLeft,40,11375,5,35,0,35,0,1,,,,,,,,,,,,,,,,,,,,,,,,,,,,,,,,,,,,,,,
,,,,,,,5e4db49d96e3c32079f64790,2023-08-16_08h37.31.164,HF_wild_card,2022.2.4,MacIntel,59.80861244,5e4db49d96e3c32079f64790,64d2fd46c836a06233681665,64dc7cad63a4fd7ffd42da22,,,,,,,ctch,resources/DB.BMP,resources/DG.BMP,Door4,-0.299804688,-0.015073242,1,0,0,0.808,optionLeft,60,11435,5,36,0,36,0,1,,,,,,,,,,,,,,,,,,,,,,,,,,,,,,,,,,,,,,,
,,,,,,,5e4db49d96e3c32079f64790,2023-08-16_08h37.31.164,HF_wild_card,2022.2.4,MacIntel,59.80861244,5e4db49d96e3c32079f64790,64d2fd46c836a06233681665,64dc7cad63a4fd7ffd42da22,,,,,,,decisionTrl,resources/DBN.BMP,resources/DR.BMP,WildCard_NonEx,-0.242695313,-0.06859375,1,0,0,1.4209,optionLeft,55,11490,5,37,0,37,0,1,,,,,,,,,,,,,,,,,,,,,,,,,,,,,,,,,,,,,,,
,,,,,,,5e4db49d96e3c32079f64790,2023-08-16_08h37.31.164,HF_wild_card,2022.2.4,MacIntel,59.80861244,5e4db49d96e3c32079f64790,64d2fd46c836a06233681665,64dc7cad63a4fd7ffd42da22,,,,,,,decisionTrl,resources/DP.BMP,resources/DB.BMP,Door3,-0.290805664,-0.074765625,1,0,0,1.3086,optionLeft,70,11560,5,38,0,38,0,1,,,,,,,,,,,,,,,,,,,,,,,,,,,,,,,,,,,,,,,
,,,,,,,5e4db49d96e3c32079f64790,2023-08-16_08h37.31.164,HF_wild_card,2022.2.4,MacIntel,59.80861244,5e4db49d96e3c32079f64790,64d2fd46c836a06233681665,64dc7cad63a4fd7ffd42da22,,,,,,,sngl,resources/Empty.png,resources/DB.BMP,Door4,0.261494141,-0.078286133,1,0,0,0.5881,optionRight,60,11620,5,39,0,39,0,1,,,,,,,,,,,,,,,,,,,,,,,,,,,,,,,,,,,,,,,
,,,,,,,5e4db49d96e3c32079f64790,2023-08-16_08h37.31.164,HF_wild_card,2022.2.4,MacIntel,59.80861244,5e4db49d96e3c32079f64790,64d2fd46c836a06233681665,64dc7cad63a4fd7ffd42da22,,,,,,,decisionTrl,resources/DB.BMP,resources/DBN.BMP,Door4,-0.264633789,-0.049750977,1,0,0,0.897,optionLeft,80,11700,5,40,0,40,0,1,,,,,,,,,,,,,,,,,,,,,,,,,,,,,,,,,,,,,,,
,,,,,,,5e4db49d96e3c32079f64790,2023-08-16_08h37.31.164,HF_wild_card,2022.2.4,MacIntel,59.80861244,5e4db49d96e3c32079f64790,64d2fd46c836a06233681665,64dc7cad63a4fd7ffd42da22,,,,,,,decisionTrl,resources/DBN.BMP,resources/DP.BMP,Door3,0.358291016,-0.114052734,1,0,0,0.6743,optionRight,70,11770,5,41,0,41,0,1,,,,,,,,,,,,,,,,,,,,,,,,,,,,,,,,,,,,,,,
,,,,,,,5e4db49d96e3c32079f64790,2023-08-16_08h37.31.164,HF_wild_card,2022.2.4,MacIntel,59.80861244,5e4db49d96e3c32079f64790,64d2fd46c836a06233681665,64dc7cad63a4fd7ffd42da22,,,,,,,decisionTrl,resources/DG.BMP,resources/DBN.BMP,WildCard_NonEx,0.287695313,-0.098344727,1,0,0,2.0121,optionRight,55,11825,5,42,0,42,0,1,,,,,,,,,,,,,,,,,,,,,,,,,,,,,,,,,,,,,,,
,,,,,,,5e4db49d96e3c32079f64790,2023-08-16_08h37.31.164,HF_wild_card,2022.2.4,MacIntel,59.80861244,5e4db49d96e3c32079f64790,64d2fd46c836a06233681665,64dc7cad63a4fd7ffd42da22,,,,,,,decisionTrl,resources/DP.BMP,resources/DBN.BMP,Door3,-0.32371582,-0.058447266,1,0,0,1.786,optionLeft,70,11895,5,43,0,43,0,1,,,,,,,,,,,,,,,,,,,,,,,,,,,,,,,,,,,,,,,
,,,,,,,5e4db49d96e3c32079f64790,2023-08-16_08h37.31.164,HF_wild_card,2022.2.4,MacIntel,59.80861244,5e4db49d96e3c32079f64790,64d2fd46c836a06233681665,64dc7cad63a4fd7ffd42da22,,,,,,,,,,,,,,,,,,,,,,,,,,4,0,4,0,1,,,,,,,,,,,,,,,,,,,,,,,,,,,,,,,,,,
,,,,,,,5e4db49d96e3c32079f64790,2023-08-16_08h37.31.164,HF_wild_card,2022.2.4,MacIntel,59.80861244,5e4db49d96e3c32079f64790,64d2fd46c836a06233681665,64dc7cad63a4fd7ffd42da22,,,,,,,decisionTrl,resources/DB.BMP,resources/DP.BMP,Door3,0.322211914,-0.194853516,1,0,0,1.5642,optionRight,70,11965,6,0,0,0,0,1,,,,,,,,,,,,,,,,,,,,,,,,,,,,,,,,,,,,,,,
,,,,,,,5e4db49d96e3c32079f64790,2023-08-16_08h37.31.164,HF_wild_card,2022.2.4,MacIntel,59.80861244,5e4db49d96e3c32079f64790,64d2fd46c836a06233681665,64dc7cad63a4fd7ffd42da22,,,,,,,decisionTrl,resources/DBN.BMP,resources/DB.BMP,Door4,0.311381836,-0.129975586,1,0,0,0.6495,optionRight,60,12025,6,1,0,1,0,1,,,,,,,,,,,,,,,,,,,,,,,,,,,,,,,,,,,,,,,
,,,,,,,5e4db49d96e3c32079f64790,2023-08-16_08h37.31.164,HF_wild_card,2022.2.4,MacIntel,59.80861244,5e4db49d96e3c32079f64790,64d2fd46c836a06233681665,64dc7cad63a4fd7ffd42da22,,,,,,,ctch,resources/DR.BMP,resources/DP.BMP,Door3,0.362563477,-0.156323242,1,0,0,0.934,optionRight,70,12095,6,2,0,2,0,1,,,,,,,,,,,,,,,,,,,,,,,,,,,,,,,,,,,,,,,
,,,,,,,5e4db49d96e3c32079f64790,2023-08-16_08h37.31.164,HF_wild_card,2022.2.4,MacIntel,59.80861244,5e4db49d96e3c32079f64790,64d2fd46c836a06233681665,64dc7cad63a4fd7ffd42da22,,,,,,,decisionTrl,resources/DBN.BMP,resources/DG.BMP,WildCard_NonEx,-0.376362305,-0.045380859,1,0,0,1.9592,optionLeft,45,12140,6,3,0,3,0,1,,,,,,,,,,,,,,,,,,,,,,,,,,,,,,,,,,,,,,,
,,,,,,,5e4db49d96e3c32079f64790,2023-08-16_08h37.31.164,HF_wild_card,2022.2.4,MacIntel,59.80861244,5e4db49d96e3c32079f64790,64d2fd46c836a06233681665,64dc7cad63a4fd7ffd42da22,,,,,,,decisionTrl,resources/DBN.BMP,resources/DP.BMP,Door3,0.334321289,-0.096977539,1,0,0,0.9764,optionRight,70,12210,6,4,0,4,0,1,,,,,,,,,,,,,,,,,,,,,,,,,,,,,,,,,,,,,,,
,,,,,,,5e4db49d96e3c32079f64790,2023-08-16_08h37.31.164,HF_wild_card,2022.2.4,MacIntel,59.80861244,5e4db49d96e3c32079f64790,64d2fd46c836a06233681665,64dc7cad63a4fd7ffd42da22,,,,,,,ctch,resources/DG.BMP,resources/DB.BMP,Door4,0.295527344,-0.094404297,1,0,0,0.6192,optionRight,80,12290,6,5,0,5,0,1,,,,,,,,,,,,,,,,,,,,,,,,,,,,,,,,,,,,,,,
,,,,,,,5e4db49d96e3c32079f64790,2023-08-16_08h37.31.164,HF_wild_card,2022.2.4,MacIntel,59.80861244,5e4db49d96e3c32079f64790,64d2fd46c836a06233681665,64dc7cad63a4fd7ffd42da22,,,,,,,decisionTrl,resources/DR.BMP,resources/DG.BMP,Door1,0.388579102,-0.112832031,1,0,0,1.2681,optionRight,30,12320,6,6,0,6,0,1,,,,,,,,,,,,,,,,,,,,,,,,,,,,,,,,,,,,,,,
,,,,,,,5e4db49d96e3c32079f64790,2023-08-16_08h37.31.164,HF_wild_card,2022.2.4,MacIntel,59.80861244,5e4db49d96e3c32079f64790,64d2fd46c836a06233681665,64dc7cad63a4fd7ffd42da22,,,,,,,decisionTrl,resources/DBN.BMP,resources/DR.BMP,WildCard_NonEx,-0.240585938,0.024047852,1,0,0,1.5442,optionLeft,55,12375,6,7,0,7,0,1,,,,,,,,,,,,,,,,,,,,,,,,,,,,,,,,,,,,,,,
,,,,,,,5e4db49d96e3c32079f64790,2023-08-16_08h37.31.164,HF_wild_card,2022.2.4,MacIntel,59.80861244,5e4db49d96e3c32079f64790,64d2fd46c836a06233681665,64dc7cad63a4fd7ffd42da22,,,,,,,sngl,resources/DBN.BMP,resources/Empty.png,WildCard_NonEx,-0.2028125,-0.006552734,1,0,0,0.6013,optionLeft,55,12430,6,8,0,8,0,1,,,,,,,,,,,,,,,,,,,,,,,,,,,,,,,,,,,,,,,
,,,,,,,5e4db49d96e3c32079f64790,2023-08-16_08h37.31.164,HF_wild_card,2022.2.4,MacIntel,59.80861244,5e4db49d96e3c32079f64790,64d2fd46c836a06233681665,64dc7cad63a4fd7ffd42da22,,,,,,,decisionTrl,resources/DG.BMP,resources/DBN.BMP,WildCard_NonEx,0.314643555,-0.072075195,1,0,0,1.4188,optionRight,55,12485,6,9,0,9,0,1,,,,,,,,,,,,,,,,,,,,,,,,,,,,,,,,,,,,,,,
,,,,,,,5e4db49d96e3c32079f64790,2023-08-16_08h37.31.164,HF_wild_card,2022.2.4,MacIntel,59.80861244,5e4db49d96e3c32079f64790,64d2fd46c836a06233681665,64dc7cad63a4fd7ffd42da22,,,,,,,ctch,resources/DB.BMP,resources/DG.BMP,Door4,-0.295961914,-0.005703125,1,0,0,0.8988,optionLeft,60,12545,6,10,0,10,0,1,,,,,,,,,,,,,,,,,,,,,,,,,,,,,,,,,,,,,,,
,,,,,,,5e4db49d96e3c32079f64790,2023-08-16_08h37.31.164,HF_wild_card,2022.2.4,MacIntel,59.80861244,5e4db49d96e3c32079f64790,64d2fd46c836a06233681665,64dc7cad63a4fd7ffd42da22,,,,,,,sngl,resources/Empty.png,resources/DBN.BMP,WildCard_NonEx,0.304199219,-0.080610352,1,0,0,0.605,optionRight,55,12600,6,11,0,11,0,1,,,,,,,,,,,,,,,,,,,,,,,,,,,,,,,,,,,,,,,
,,,,,,,5e4db49d96e3c32079f64790,2023-08-16_08h37.31.164,HF_wild_card,2022.2.4,MacIntel,59.80861244,5e4db49d96e3c32079f64790,64d2fd46c836a06233681665,64dc7cad63a4fd7ffd42da22,,,,,,,sngl,resources/Empty.png,resources/DBN.BMP,WildCard_NonEx,0.349174805,-0.085986328,1,0,0,0.4943,optionRight,45,12645,6,12,0,12,0,1,,,,,,,,,,,,,,,,,,,,,,,,,,,,,,,,,,,,,,,
,,,,,,,5e4db49d96e3c32079f64790,2023-08-16_08h37.31.164,HF_wild_card,2022.2.4,MacIntel,59.80861244,5e4db49d96e3c32079f64790,64d2fd46c836a06233681665,64dc7cad63a4fd7ffd42da22,,,,,,,decisionTrl,resources/DP.BMP,resources/DB.BMP,Door3,-0.285014648,-0.0240625,1,0,0,1.1506,optionLeft,70,12715,6,13,0,13,0,1,,,,,,,,,,,,,,,,,,,,,,,,,,,,,,,,,,,,,,,
,,,,,,,5e4db49d96e3c32079f64790,2023-08-16_08h37.31.164,HF_wild_card,2022.2.4,MacIntel,59.80861244,5e4db49d96e3c32079f64790,64d2fd46c836a06233681665,64dc7cad63a4fd7ffd42da22,,,,,,,decisionTrl,resources/DG.BMP,resources/DR.BMP,Door2,0.310849609,-0.104423828,1,0,0,1.9667,optionRight,20,12735,6,14,0,14,0,1,,,,,,,,,,,,,,,,,,,,,,,,,,,,,,,,,,,,,,,
,,,,,,,5e4db49d96e3c32079f64790,2023-08-16_08h37.31.164,HF_wild_card,2022.2.4,MacIntel,59.80861244,5e4db49d96e3c32079f64790,64d2fd46c836a06233681665,64dc7cad63a4fd7ffd42da22,,,,,,,decisionTrl,resources/DG.BMP,resources/DR.BMP,Door1,-0.210800781,0.029863281,1,0,0,0.6625,optionLeft,30,12765,6,15,0,15,0,1,,,,,,,,,,,,,,,,,,,,,,,,,,,,,,,,,,,,,,,
,,,,,,,5e4db49d96e3c32079f64790,2023-08-16_08h37.31.164,HF_wild_card,2022.2.4,MacIntel,59.80861244,5e4db49d96e3c32079f64790,64d2fd46c836a06233681665,64dc7cad63a4fd7ffd42da22,,,,,,,sngl,resources/Empty.png,resources/DB.BMP,Door4,0.339174805,-0.079311523,1,0,0,0.6103,optionRight,80,12845,6,16,0,16,0,1,,,,,,,,,,,,,,,,,,,,,,,,,,,,,,,,,,,,,,,
,,,,,,,5e4db49d96e3c32079f64790,2023-08-16_08h37.31.164,HF_wild_card,2022.2.4,MacIntel,59.80861244,5e4db49d96e3c32079f64790,64d2fd46c836a06233681665,64dc7cad63a4fd7ffd42da22,,,,,,,sngl,resources/DB.BMP,resources/Empty.png,Door4,-0.228540039,0.009960937,1,0,0,0.5348,optionLeft,60,12905,6,17,0,17,0,1,,,,,,,,,,,,,,,,,,,,,,,,,,,,,,,,,,,,,,,
,,,,,,,5e4db49d96e3c32079f64790,2023-08-16_08h37.31.164,HF_wild_card,2022.2.4,MacIntel,59.80861244,5e4db49d96e3c32079f64790,64d2fd46c836a06233681665,64dc7cad63a4fd7ffd42da22,,,,,,,ctch,resources/DR.BMP,resources/DP.BMP,Door3,0.333066406,-0.083520508,1,0,0,0.8747,optionRight,70,12975,6,18,0,18,0,1,,,,,,,,,,,,,,,,,,,,,,,,,,,,,,,,,,,,,,,
,,,,,,,5e4db49d96e3c32079f64790,2023-08-16_08h37.31.164,HF_wild_card,2022.2.4,MacIntel,59.80861244,5e4db49d96e3c32079f64790,64d2fd46c836a06233681665,64dc7cad63a4fd7ffd42da22,,,,,,,ctch,resources/DG.BMP,resources/DB.BMP,Door4,0.396035156,-0.115566406,1,0,0,0.8866,optionRight,60,13035,6,19,0,19,0,1,,,,,,,,,,,,,,,,,,,,,,,,,,,,,,,,,,,,,,,
,,,,,,,5e4db49d96e3c32079f64790,2023-08-16_08h37.31.164,HF_wild_card,2022.2.4,MacIntel,59.80861244,5e4db49d96e3c32079f64790,64d2fd46c836a06233681665,64dc7cad63a4fd7ffd42da22,,,,,,,decisionTrl,resources/DP.BMP,resources/DB.BMP,Door4,0.300419922,-0.092832031,1,0,0,0.4735,optionRight,80,13115,6,20,0,20,0,1,,,,,,,,,,,,,,,,,,,,,,,,,,,,,,,,,,,,,,,
,,,,,,,5e4db49d96e3c32079f64790,2023-08-16_08h37.31.164,HF_wild_card,2022.2.4,MacIntel,59.80861244,5e4db49d96e3c32079f64790,64d2fd46c836a06233681665,64dc7cad63a4fd7ffd42da22,,,,,,,sngl,resources/DP.BMP,resources/Empty.png,Door3,-0.214536133,-0.022041016,1,0,0,0.5406,optionLeft,70,13185,6,21,0,21,0,1,,,,,,,,,,,,,,,,,,,,,,,,,,,,,,,,,,,,,,,
,,,,,,,5e4db49d96e3c32079f64790,2023-08-16_08h37.31.164,HF_wild_card,2022.2.4,MacIntel,59.80861244,5e4db49d96e3c32079f64790,64d2fd46c836a06233681665,64dc7cad63a4fd7ffd42da22,,,,,,,decisionTrl,resources/DR.BMP,resources/DG.BMP,Door1,0.362861328,-0.090043945,1,0,0,1.4565,optionRight,30,13215,6,22,0,22,0,1,,,,,,,,,,,,,,,,,,,,,,,,,,,,,,,,,,,,,,,
,,,,,,,5e4db49d96e3c32079f64790,2023-08-16_08h37.31.164,HF_wild_card,2022.2.4,MacIntel,59.80861244,5e4db49d96e3c32079f64790,64d2fd46c836a06233681665,64dc7cad63a4fd7ffd42da22,,,,,,,ctch,resources/DP.BMP,resources/DR.BMP,Door3,-0.249238281,-0.019169922,1,0,0,0.9646,optionLeft,70,13285,6,23,0,23,0,1,,,,,,,,,,,,,,,,,,,,,,,,,,,,,,,,,,,,,,,
,,,,,,,5e4db49d96e3c32079f64790,2023-08-16_08h37.31.164,HF_wild_card,2022.2.4,MacIntel,59.80861244,5e4db49d96e3c32079f64790,64d2fd46c836a06233681665,64dc7cad63a4fd7ffd42da22,,,,,,,ctch,resources/DP.BMP,resources/DR.BMP,Door3,-0.29387207,-0.021679687,1,0,0,0.7989,optionLeft,70,13355,6,24,0,24,0,1,,,,,,,,,,,,,,,,,,,,,,,,,,,,,,,,,,,,,,,
,,,,,,,5e4db49d96e3c32079f64790,2023-08-16_08h37.31.164,HF_wild_card,2022.2.4,MacIntel,59.80861244,5e4db49d96e3c32079f64790,64d2fd46c836a06233681665,64dc7cad63a4fd7ffd42da22,,,,,,,decisionTrl,resources/DB.BMP,resources/DBN.BMP,Door4,-0.229399414,-0.024648437,1,0,0,0.795,optionLeft,80,13435,6,25,0,25,0,1,,,,,,,,,,,,,,,,,,,,,,,,,,,,,,,,,,,,,,,
,,,,,,,5e4db49d96e3c32079f64790,2023-08-16_08h37.31.164,HF_wild_card,2022.2.4,MacIntel,59.80861244,5e4db49d96e3c32079f64790,64d2fd46c836a06233681665,64dc7cad63a4fd7ffd42da22,,,,,,,decisionTrl,resources/DB.BMP,resources/DP.BMP,Door3,0.337729492,-0.104555664,1,0,0,1.4326,optionRight,70,13505,6,26,0,26,0,1,,,,,,,,,,,,,,,,,,,,,,,,,,,,,,,,,,,,,,,
,,,,,,,5e4db49d96e3c32079f64790,2023-08-16_08h37.31.164,HF_wild_card,2022.2.4,MacIntel,59.80861244,5e4db49d96e3c32079f64790,64d2fd46c836a06233681665,64dc7cad63a4fd7ffd42da22,,,,,,,sngl,resources/Empty.png,resources/DP.BMP,Door3,0.274404297,-0.097797852,1,0,0,0.5313,optionRight,70,13575,6,27,0,27,0,1,,,,,,,,,,,,,,,,,,,,,,,,,,,,,,,,,,,,,,,
,,,,,,,5e4db49d96e3c32079f64790,2023-08-16_08h37.31.164,HF_wild_card,2022.2.4,MacIntel,59.80861244,5e4db49d96e3c32079f64790,64d2fd46c836a06233681665,64dc7cad63a4fd7ffd42da22,,,,,,,ctch,resources/DB.BMP,resources/DG.BMP,Door4,-0.266943359,-0.029624023,1,0,0,0.7288,optionLeft,60,13635,6,28,0,28,0,1,,,,,,,,,,,,,,,,,,,,,,,,,,,,,,,,,,,,,,,
,,,,,,,5e4db49d96e3c32079f64790,2023-08-16_08h37.31.164,HF_wild_card,2022.2.4,MacIntel,59.80861244,5e4db49d96e3c32079f64790,64d2fd46c836a06233681665,64dc7cad63a4fd7ffd42da22,,,,,,,decisionTrl,resources/DP.BMP,resources/DB.BMP,Door4,0.291918945,-0.115180664,1,0,0,1.2744,optionRight,60,13695,6,29,0,29,0,1,,,,,,,,,,,,,,,,,,,,,,,,,,,,,,,,,,,,,,,
,,,,,,,5e4db49d96e3c32079f64790,2023-08-16_08h37.31.164,HF_wild_card,2022.2.4,MacIntel,59.80861244,5e4db49d96e3c32079f64790,64d2fd46c836a06233681665,64dc7cad63a4fd7ffd42da22,,,,,,,decisionTrl,resources/DP.BMP,resources/DB.BMP,Door3,-0.272734375,-0.049228516,1,0,0,1.1108,optionLeft,70,13765,6,30,0,30,0,1,,,,,,,,,,,,,,,,,,,,,,,,,,,,,,,,,,,,,,,
,,,,,,,5e4db49d96e3c32079f64790,2023-08-16_08h37.31.164,HF_wild_card,2022.2.4,MacIntel,59.80861244,5e4db49d96e3c32079f64790,64d2fd46c836a06233681665,64dc7cad63a4fd7ffd42da22,,,,,,,sngl,resources/DG.BMP,resources/Empty.png,Door1,-0.23875,-0.055688477,1,0,0,0.7421,optionLeft,30,13795,6,31,0,31,0,1,,,,,,,,,,,,,,,,,,,,,,,,,,,,,,,,,,,,,,,
,,,,,,,5e4db49d96e3c32079f64790,2023-08-16_08h37.31.164,HF_wild_card,2022.2.4,MacIntel,59.80861244,5e4db49d96e3c32079f64790,64d2fd46c836a06233681665,64dc7cad63a4fd7ffd42da22,,,,,,,sngl,resources/Empty.png,resources/DR.BMP,Door2,0.308115234,-0.099316406,1,0,0,0.4984,optionRight,40,13835,6,32,0,32,0,1,,,,,,,,,,,,,,,,,,,,,,,,,,,,,,,,,,,,,,,
,,,,,,,5e4db49d96e3c32079f64790,2023-08-16_08h37.31.164,HF_wild_card,2022.2.4,MacIntel,59.80861244,5e4db49d96e3c32079f64790,64d2fd46c836a06233681665,64dc7cad63a4fd7ffd42da22,,,,,,,sngl,resources/Empty.png,resources/DG.BMP,Door1,0.282490234,-0.098232422,1,0,0,0.5114,optionRight,30,13865,6,33,0,33,0,1,,,,,,,,,,,,,,,,,,,,,,,,,,,,,,,,,,,,,,,
,,,,,,,5e4db49d96e3c32079f64790,2023-08-16_08h37.31.164,HF_wild_card,2022.2.4,MacIntel,59.80861244,5e4db49d96e3c32079f64790,64d2fd46c836a06233681665,64dc7cad63a4fd7ffd42da22,,,,,,,sngl,resources/DR.BMP,resources/Empty.png,Door2,-0.221938477,-0.033525391,1,0,0,0.5062,optionLeft,20,13885,6,34,0,34,0,1,,,,,,,,,,,,,,,,,,,,,,,,,,,,,,,,,,,,,,,
,,,,,,,5e4db49d96e3c32079f64790,2023-08-16_08h37.31.164,HF_wild_card,2022.2.4,MacIntel,59.80861244,5e4db49d96e3c32079f64790,64d2fd46c836a06233681665,64dc7cad63a4fd7ffd42da22,,,,,,,decisionTrl,resources/DG.BMP,resources/DR.BMP,Door2,0.313764648,-0.122573242,1,0,0,1.2076,optionRight,20,13905,6,35,0,35,0,1,,,,,,,,,,,,,,,,,,,,,,,,,,,,,,,,,,,,,,,
,,,,,,,5e4db49d96e3c32079f64790,2023-08-16_08h37.31.164,HF_wild_card,2022.2.4,MacIntel,59.80861244,5e4db49d96e3c32079f64790,64d2fd46c836a06233681665,64dc7cad63a4fd7ffd42da22,,,,,,,decisionTrl,resources/DB.BMP,resources/DP.BMP,Door3,0.292421875,-0.109467773,1,0,0,2.1687,optionRight,70,13975,6,36,0,36,0,1,,,,,,,,,,,,,,,,,,,,,,,,,,,,,,,,,,,,,,,
,,,,,,,5e4db49d96e3c32079f64790,2023-08-16_08h37.31.164,HF_wild_card,2022.2.4,MacIntel,59.80861244,5e4db49d96e3c32079f64790,64d2fd46c836a06233681665,64dc7cad63a4fd7ffd42da22,,,,,,,decisionTrl,resources/DB.BMP,resources/DP.BMP,Door3,0.275976563,-0.106948242,1,0,0,1.6126,optionRight,70,14045,6,37,0,37,0,1,,,,,,,,,,,,,,,,,,,,,,,,,,,,,,,,,,,,,,,
,,,,,,,5e4db49d96e3c32079f64790,2023-08-16_08h37.31.164,HF_wild_card,2022.2.4,MacIntel,59.80861244,5e4db49d96e3c32079f64790,64d2fd46c836a06233681665,64dc7cad63a4fd7ffd42da22,,,,,,,decisionTrl,resources/DP.BMP,resources/DBN.BMP,Door3,-0.239716797,-0.061328125,1,0,0,0.6738,optionLeft,70,14115,6,38,0,38,0,1,,,,,,,,,,,,,,,,,,,,,,,,,,,,,,,,,,,,,,,
,,,,,,,5e4db49d96e3c32079f64790,2023-08-16_08h37.31.164,HF_wild_card,2022.2.4,MacIntel,59.80861244,5e4db49d96e3c32079f64790,64d2fd46c836a06233681665,64dc7cad63a4fd7ffd42da22,,,,,,,decisionTrl,resources/DR.BMP,resources/DG.BMP,Door2,-0.236040039,-0.085629883,1,0,0,1.5294,optionLeft,40,14155,6,39,0,39,0,1,,,,,,,,,,,,,,,,,,,,,,,,,,,,,,,,,,,,,,,
,,,,,,,5e4db49d96e3c32079f64790,2023-08-16_08h37.31.164,HF_wild_card,2022.2.4,MacIntel,59.80861244,5e4db49d96e3c32079f64790,64d2fd46c836a06233681665,64dc7cad63a4fd7ffd42da22,,,,,,,decisionTrl,resources/DR.BMP,resources/DBN.BMP,WildCard_NonEx,0.305302734,-0.087260742,1,0,0,1.1783,optionRight,45,14200,6,40,0,40,0,1,,,,,,,,,,,,,,,,,,,,,,,,,,,,,,,,,,,,,,,
,,,,,,,5e4db49d96e3c32079f64790,2023-08-16_08h37.31.164,HF_wild_card,2022.2.4,MacIntel,59.80861244,5e4db49d96e3c32079f64790,64d2fd46c836a06233681665,64dc7cad63a4fd7ffd42da22,,,,,,,decisionTrl,resources/DR.BMP,resources/DG.BMP,Door2,-0.256586914,-0.061928711,1,0,0,1.4723,optionLeft,40,14240,6,41,0,41,0,1,,,,,,,,,,,,,,,,,,,,,,,,,,,,,,,,,,,,,,,
,,,,,,,5e4db49d96e3c32079f64790,2023-08-16_08h37.31.164,HF_wild_card,2022.2.4,MacIntel,59.80861244,5e4db49d96e3c32079f64790,64d2fd46c836a06233681665,64dc7cad63a4fd7ffd42da22,,,,,,,sngl,resources/DBN.BMP,resources/Empty.png,WildCard_NonEx,-0.268461914,-0.026459961,1,0,0,0.6265,optionLeft,45,14285,6,42,0,42,0,1,,,,,,,,,,,,,,,,,,,,,,,,,,,,,,,,,,,,,,,
,,,,,,,5e4db49d96e3c32079f64790,2023-08-16_08h37.31.164,HF_wild_card,2022.2.4,MacIntel,59.80861244,5e4db49d96e3c32079f64790,64d2fd46c836a06233681665,64dc7cad63a4fd7ffd42da22,,,,,,,decisionTrl,resources/DG.BMP,resources/DR.BMP,Door1,-0.234331055,-0.024462891,1,0,0,1.3378,optionLeft,30,14315,6,43,0,43,0,1,,,,,,,,,,,,,,,,,,,,,,,,,,,,,,,,,,,,,,,
,,,,,,,5e4db49d96e3c32079f64790,2023-08-16_08h37.31.164,HF_wild_card,2022.2.4,MacIntel,59.80861244,5e4db49d96e3c32079f64790,64d2fd46c836a06233681665,64dc7cad63a4fd7ffd42da22,,,,,,,,,,,,,,,,,,,,,,,,,,5,0,5,0,1,,,,,,,,,,,,,,,,,,,,,,,,,,,,,,,,,,
,,,,,,,5e4db49d96e3c32079f64790,2023-08-16_08h37.31.164,HF_wild_card,2022.2.4,MacIntel,59.80861244,5e4db49d96e3c32079f64790,64d2fd46c836a06233681665,64dc7cad63a4fd7ffd42da22,,,,,,,decisionTrl,resources/DG.BMP,resources/DR.BMP,Door2,0.211591797,-0.190541992,1,0,0,2.9069,optionRight,40,14355,7,0,0,0,0,1,,,,,,,,,,,,,,,,,,,,,,,,,,,,,,,,,,,,,,,
,,,,,,,5e4db49d96e3c32079f64790,2023-08-16_08h37.31.164,HF_wild_card,2022.2.4,MacIntel,59.80861244,5e4db49d96e3c32079f64790,64d2fd46c836a06233681665,64dc7cad63a4fd7ffd42da22,,,,,,,decisionTrl,resources/DR.BMP,resources/DG.BMP,Door2,-0.279389648,-0.06409668,1,0,0,1.4125,optionLeft,40,14395,7,1,0,1,0,1,,,,,,,,,,,,,,,,,,,,,,,,,,,,,,,,,,,,,,,
,,,,,,,5e4db49d96e3c32079f64790,2023-08-16_08h37.31.164,HF_wild_card,2022.2.4,MacIntel,59.80861244,5e4db49d96e3c32079f64790,64d2fd46c836a06233681665,64dc7cad63a4fd7ffd42da22,,,,,,,decisionTrl,resources/DR.BMP,resources/DG.BMP,Door2,-0.235195313,-0.014013672,1,0,0,0.6375,optionLeft,40,14435,7,2,0,2,0,1,,,,,,,,,,,,,,,,,,,,,,,,,,,,,,,,,,,,,,,
,,,,,,,5e4db49d96e3c32079f64790,2023-08-16_08h37.31.164,HF_wild_card,2022.2.4,MacIntel,59.80861244,5e4db49d96e3c32079f64790,64d2fd46c836a06233681665,64dc7cad63a4fd7ffd42da22,,,,,,,decisionTrl,resources/DG.BMP,resources/DR.BMP,Door2,0.299770508,-0.116044922,1,0,0,1.7188,optionRight,20,14455,7,3,0,3,0,1,,,,,,,,,,,,,,,,,,,,,,,,,,,,,,,,,,,,,,,
,,,,,,,5e4db49d96e3c32079f64790,2023-08-16_08h37.31.164,HF_wild_card,2022.2.4,MacIntel,59.80861244,5e4db49d96e3c32079f64790,64d2fd46c836a06233681665,64dc7cad63a4fd7ffd42da22,,,,,,,ctch,resources/DB.BMP,resources/DG.BMP,Door4,-0.307783203,-0.038754883,1,0,0,0.9293,optionLeft,80,14535,7,4,0,4,0,1,,,,,,,,,,,,,,,,,,,,,,,,,,,,,,,,,,,,,,,
,,,,,,,5e4db49d96e3c32079f64790,2023-08-16_08h37.31.164,HF_wild_card,2022.2.4,MacIntel,59.80861244,5e4db49d96e3c32079f64790,64d2fd46c836a06233681665,64dc7cad63a4fd7ffd42da22,,,,,,,ctch,resources/DB.BMP,resources/DG.BMP,Door4,-0.254848633,-0.025620117,1,0,0,0.5699,optionLeft,80,14615,7,5,0,5,0,1,,,,,,,,,,,,,,,,,,,,,,,,,,,,,,,,,,,,,,,
,,,,,,,5e4db49d96e3c32079f64790,2023-08-16_08h37.31.164,HF_wild_card,2022.2.4,MacIntel,59.80861244,5e4db49d96e3c32079f64790,64d2fd46c836a06233681665,64dc7cad63a4fd7ffd42da22,,,,,,,decisionTrl,resources/DR.BMP,resources/DG.BMP,Door2,-0.273291016,-0.063686523,1,0,0,1.4574,optionLeft,20,14635,7,6,0,6,0,1,,,,,,,,,,,,,,,,,,,,,,,,,,,,,,,,,,,,,,,
,,,,,,,5e4db49d96e3c32079f64790,2023-08-16_08h37.31.164,HF_wild_card,2022.2.4,MacIntel,59.80861244,5e4db49d96e3c32079f64790,64d2fd46c836a06233681665,64dc7cad63a4fd7ffd42da22,,,,,,,decisionTrl,resources/DR.BMP,resources/DG.BMP,Door2,-0.255097656,-0.025483398,1,0,0,0.6686,optionLeft,20,14655,7,7,0,7,0,1,,,,,,,,,,,,,,,,,,,,,,,,,,,,,,,,,,,,,,,
,,,,,,,5e4db49d96e3c32079f64790,2023-08-16_08h37.31.164,HF_wild_card,2022.2.4,MacIntel,59.80861244,5e4db49d96e3c32079f64790,64d2fd46c836a06233681665,64dc7cad63a4fd7ffd42da22,,,,,,,ctch,resources/DG.BMP,resources/DB.BMP,Door4,0.271411133,-0.141181641,1,0,0,0.6638,optionRight,60,14715,7,8,0,8,0,1,,,,,,,,,,,,,,,,,,,,,,,,,,,,,,,,,,,,,,,
,,,,,,,5e4db49d96e3c32079f64790,2023-08-16_08h37.31.164,HF_wild_card,2022.2.4,MacIntel,59.80861244,5e4db49d96e3c32079f64790,64d2fd46c836a06233681665,64dc7cad63a4fd7ffd42da22,,,,,,,decisionTrl,resources/DP.BMP,resources/DB.BMP,Door3,-0.321118164,-0.055493164,1,0,0,1.1249,optionLeft,70,14785,7,9,0,9,0,1,,,,,,,,,,,,,,,,,,,,,,,,,,,,,,,,,,,,,,,
,,,,,,,5e4db49d96e3c32079f64790,2023-08-16_08h37.31.164,HF_wild_card,2022.2.4,MacIntel,59.80861244,5e4db49d96e3c32079f64790,64d2fd46c836a06233681665,64dc7cad63a4fd7ffd42da22,,,,,,,decisionTrl,resources/DB.BMP,resources/DP.BMP,Door3,0.313022461,-0.130947266,1,0,0,0.9607,optionRight,70,14855,7,10,0,10,0,1,,,,,,,,,,,,,,,,,,,,,,,,,,,,,,,,,,,,,,,
,,,,,,,5e4db49d96e3c32079f64790,2023-08-16_08h37.31.164,HF_wild_card,2022.2.4,MacIntel,59.80861244,5e4db49d96e3c32079f64790,64d2fd46c836a06233681665,64dc7cad63a4fd7ffd42da22,,,,,,,ctch,resources/DP.BMP,resources/DR.BMP,Door3,-0.267885742,-0.045961914,1,0,0,0.6578,optionLeft,70,14925,7,11,0,11,0,1,,,,,,,,,,,,,,,,,,,,,,,,,,,,,,,,,,,,,,,
,,,,,,,5e4db49d96e3c32079f64790,2023-08-16_08h37.31.164,HF_wild_card,2022.2.4,MacIntel,59.80861244,5e4db49d96e3c32079f64790,64d2fd46c836a06233681665,64dc7cad63a4fd7ffd42da22,,,,,,,decisionTrl,resources/DP.BMP,resources/DB.BMP,Door3,-0.312695312,-0.06199707,1,0,0,1.1928,optionLeft,70,14995,7,12,0,12,0,1,,,,,,,,,,,,,,,,,,,,,,,,,,,,,,,,,,,,,,,
,,,,,,,5e4db49d96e3c32079f64790,2023-08-16_08h37.31.164,HF_wild_card,2022.2.4,MacIntel,59.80861244,5e4db49d96e3c32079f64790,64d2fd46c836a06233681665,64dc7cad63a4fd7ffd42da22,,,,,,,decisionTrl,resources/DP.BMP,resources/DB.BMP,Door3,-0.333974609,-0.065742187,1,0,0,0.5648,optionLeft,70,15065,7,13,0,13,0,1,,,,,,,,,,,,,,,,,,,,,,,,,,,,,,,,,,,,,,,
,,,,,,,5e4db49d96e3c32079f64790,2023-08-16_08h37.31.164,HF_wild_card,2022.2.4,MacIntel,59.80861244,5e4db49d96e3c32079f64790,64d2fd46c836a06233681665,64dc7cad63a4fd7ffd42da22,,,,,,,decisionTrl,resources/DP.BMP,resources/DB.BMP,Door3,-0.26605957,-0.033916016,1,0,0,0.5845,optionLeft,70,15135,7,14,0,14,0,1,,,,,,,,,,,,,,,,,,,,,,,,,,,,,,,,,,,,,,,
,,,,,,,5e4db49d96e3c32079f64790,2023-08-16_08h37.31.164,HF_wild_card,2022.2.4,MacIntel,59.80861244,5e4db49d96e3c32079f64790,64d2fd46c836a06233681665,64dc7cad63a4fd7ffd42da22,,,,,,,ctch,resources/DR.BMP,resources/DP.BMP,Door3,0.325947266,-0.130415039,1,0,0,0.7306,optionRight,70,15205,7,15,0,15,0,1,,,,,,,,,,,,,,,,,,,,,,,,,,,,,,,,,,,,,,,
,,,,,,,5e4db49d96e3c32079f64790,2023-08-16_08h37.31.164,HF_wild_card,2022.2.4,MacIntel,59.80861244,5e4db49d96e3c32079f64790,64d2fd46c836a06233681665,64dc7cad63a4fd7ffd42da22,,,,,,,ctch,resources/DR.BMP,resources/DP.BMP,Door3,0.273969727,-0.10394043,1,0,0,0.5246,optionRight,70,15275,7,16,0,16,0,1,,,,,,,,,,,,,,,,,,,,,,,,,,,,,,,,,,,,,,,
,,,,,,,5e4db49d96e3c32079f64790,2023-08-16_08h37.31.164,HF_wild_card,2022.2.4,MacIntel,59.80861244,5e4db49d96e3c32079f64790,64d2fd46c836a06233681665,64dc7cad63a4fd7ffd42da22,,,,,,,decisionTrl,resources/DB.BMP,resources/DP.BMP,Door3,0.297373047,-0.10840332,1,0,0,0.5085,optionRight,70,15345,7,17,0,17,0,1,,,,,,,,,,,,,,,,,,,,,,,,,,,,,,,,,,,,,,,
