Condition,Low fixed image (Door1),Low risky image (Door2),High fixed image (Door3),High risky image (Door4),Extreme Wild Card,NonExtreme Wild Card,,date,expName,psychopyVersion,OS,frameRate,PROLIFIC_PID,STUDY_ID,SESSION_ID,mouse_2.x,mouse_2.y,mouse_2.leftButton,mouse_2.midButton,mouse_2.rightButton,mouse_2.clicked_name,Trial Type,Left Option Image,Right Option Image,Chosen Door,mouse.x,mouse.y,mouse.leftButton,mouse.midButton,mouse.rightButton,mouse.time,mouse.clicked_name,Feedback,Cumulative Reward,Block,trial.thisRepN,trial.thisTrialN,trial.thisN,trial.thisIndex,trial.ran,blocks.thisRepN,blocks.thisTrialN,blocks.thisN,blocks.thisIndex,blocks.ran,Money conversion,First Outcome Reported,Shown Door (First Outcome),Displayed Image (First Outcome),outcomes.thisRepN,outcomes.thisTrialN,outcomes.thisN,outcomes.thisIndex,outcomes.ran,judgments.thisRepN,judgments.thisTrialN,judgments.thisN,judgments.thisIndex,judgments.ran,freqMouse.x,freqMouse.y,freqMouse.leftButton,freqMouse.midButton,freqMouse.rightButton,freqMouse.clicked_name,FQJ for first outcome,FQJ for second outcome,Shown Door,Displayed Image,trials.thisRepN,trials.thisTrialN,trials.thisN,trials.thisIndex,trials.ran,judgBlock.thisRepN,judgBlock.thisTrialN,judgBlock.thisN,judgBlock.thisIndex,judgBlock.ran
0,resources/DR.BMP,resources/DBN.BMP,resources/DB.BMP,resources/DP.BMP,resources/DG.BMP,resources/DY.BMP,,2023-08-06_08h26.51.929,HF_wild_card,2022.2.4,Win32,59.75857536,5ebd791a7cba9305f147ed96,64ce5acb97489d65b14ecc7a,64cf4b26b39c03fcda8334c6,,,,,,,,,,,,,,,,,,,,,,,,,,,,,,,,,,,,,,,,,,,,,,,,,,,,,,,,,,,,,,,,
,,,,,,,,2023-08-06_08h26.51.929,HF_wild_card,2022.2.4,Win32,59.75857536,5ebd791a7cba9305f147ed96,64ce5acb97489d65b14ecc7a,64cf4b26b39c03fcda8334c6,0.005555556,-0.417592621,1,0,0,agree,,,,,,,,,,,,,,,,,,,,,,,,,,,,,,,,,,,,,,,,,,,,,,,,,,,,,,,,,,
,,,,,,,,2023-08-06_08h26.51.929,HF_wild_card,2022.2.4,Win32,59.75857536,5ebd791a7cba9305f147ed96,64ce5acb97489d65b14ecc7a,64cf4b26b39c03fcda8334c6,,,,,,,,,,,,,,,,,,,,,,,,,,,,,,,,,,,,,,,,,,,,,,,,,,,,,,,,,,,,,,,,
,,,,,,,,2023-08-06_08h26.51.929,HF_wild_card,2022.2.4,Win32,59.75857536,5ebd791a7cba9305f147ed96,64ce5acb97489d65b14ecc7a,64cf4b26b39c03fcda8334c6,,,,,,,sngl,resources/DB.BMP,resources/Empty.png,Door3,-0.175925869,-0.250925954,1,0,0,2.4316,optionLeft,70,70,1,0,0,0,0,1,,,,,,,,,,,,,,,,,,,,,,,,,,,,,,,,,,,,,,,
,,,,,,,,2023-08-06_08h26.51.929,HF_wild_card,2022.2.4,Win32,59.75857536,5ebd791a7cba9305f147ed96,64ce5acb97489d65b14ecc7a,64cf4b26b39c03fcda8334c6,,,,,,,sngl,resources/Empty.png,resources/DR.BMP,Door1,0.327777778,-0.157407422,1,0,0,1.719,optionRight,30,100,1,1,0,1,0,1,,,,,,,,,,,,,,,,,,,,,,,,,,,,,,,,,,,,,,,
,,,,,,,,2023-08-06_08h26.51.929,HF_wild_card,2022.2.4,Win32,59.75857536,5ebd791a7cba9305f147ed96,64ce5acb97489d65b14ecc7a,64cf4b26b39c03fcda8334c6,,,,,,,ctch,resources/DR.BMP,resources/DP.BMP,Door1,-0.26851849,-0.110185199,1,0,0,1.5524,optionLeft,30,130,1,2,0,2,0,1,,,,,,,,,,,,,,,,,,,,,,,,,,,,,,,,,,,,,,,
,,,,,,,,2023-08-06_08h26.51.929,HF_wild_card,2022.2.4,Win32,59.75857536,5ebd791a7cba9305f147ed96,64ce5acb97489d65b14ecc7a,64cf4b26b39c03fcda8334c6,,,,,,,ctch,resources/DBN.BMP,resources/DB.BMP,Door3,0.455555556,0.006481467,1,0,0,1.5927,optionRight,70,200,1,3,0,3,0,1,,,,,,,,,,,,,,,,,,,,,,,,,,,,,,,,,,,,,,,
,,,,,,,,2023-08-06_08h26.51.929,HF_wild_card,2022.2.4,Win32,59.75857536,5ebd791a7cba9305f147ed96,64ce5acb97489d65b14ecc7a,64cf4b26b39c03fcda8334c6,,,,,,,decisionTrl,resources/DR.BMP,resources/DBN.BMP,Door1,-0.392592578,-0.105555556,1,0,0,0.7881,optionLeft,30,230,1,4,0,4,0,1,,,,,,,,,,,,,,,,,,,,,,,,,,,,,,,,,,,,,,,
,,,,,,,,2023-08-06_08h26.51.929,HF_wild_card,2022.2.4,Win32,59.75857536,5ebd791a7cba9305f147ed96,64ce5acb97489d65b14ecc7a,64cf4b26b39c03fcda8334c6,,,,,,,decisionTrl,resources/DG.BMP,resources/DB.BMP,WildCard_Ex,-0.252777778,-0.067592621,1,0,0,1.0328,optionLeft,5,235,1,5,0,5,0,1,,,,,,,,,,,,,,,,,,,,,,,,,,,,,,,,,,,,,,,
,,,,,,,,2023-08-06_08h26.51.929,HF_wild_card,2022.2.4,Win32,59.75857536,5ebd791a7cba9305f147ed96,64ce5acb97489d65b14ecc7a,64cf4b26b39c03fcda8334c6,,,,,,,decisionTrl,resources/DG.BMP,resources/DP.BMP,Door4,0.196296353,-0.057407422,1,0,0,0.8044,optionRight,80,315,1,6,0,6,0,1,,,,,,,,,,,,,,,,,,,,,,,,,,,,,,,,,,,,,,,
,,,,,,,,2023-08-06_08h26.51.929,HF_wild_card,2022.2.4,Win32,59.75857536,5ebd791a7cba9305f147ed96,64ce5acb97489d65b14ecc7a,64cf4b26b39c03fcda8334c6,,,,,,,sngl,resources/Empty.png,resources/DBN.BMP,Door2,0.164814843,-0.015740755,1,0,0,1.7292,optionRight,20,335,1,7,0,7,0,1,,,,,,,,,,,,,,,,,,,,,,,,,,,,,,,,,,,,,,,
,,,,,,,,2023-08-06_08h26.51.929,HF_wild_card,2022.2.4,Win32,59.75857536,5ebd791a7cba9305f147ed96,64ce5acb97489d65b14ecc7a,64cf4b26b39c03fcda8334c6,,,,,,,decisionTrl,resources/DB.BMP,resources/DG.BMP,Door3,-0.271296268,-0.011111111,1,0,0,0.8515,optionLeft,70,405,1,8,0,8,0,1,,,,,,,,,,,,,,,,,,,,,,,,,,,,,,,,,,,,,,,
,,,,,,,,2023-08-06_08h26.51.929,HF_wild_card,2022.2.4,Win32,59.75857536,5ebd791a7cba9305f147ed96,64ce5acb97489d65b14ecc7a,64cf4b26b39c03fcda8334c6,,,,,,,sngl,resources/DG.BMP,resources/Empty.png,WildCard_Ex,-0.29351849,-0.130555556,1,0,0,0.8284,optionLeft,95,500,1,9,0,9,0,1,,,,,,,,,,,,,,,,,,,,,,,,,,,,,,,,,,,,,,,
,,,,,,,,2023-08-06_08h26.51.929,HF_wild_card,2022.2.4,Win32,59.75857536,5ebd791a7cba9305f147ed96,64ce5acb97489d65b14ecc7a,64cf4b26b39c03fcda8334c6,,,,,,,decisionTrl,resources/DG.BMP,resources/DR.BMP,Door1,0.236111111,-0.020370399,1,0,0,0.7474,optionRight,30,530,1,10,0,10,0,1,,,,,,,,,,,,,,,,,,,,,,,,,,,,,,,,,,,,,,,
,,,,,,,,2023-08-06_08h26.51.929,HF_wild_card,2022.2.4,Win32,59.75857536,5ebd791a7cba9305f147ed96,64ce5acb97489d65b14ecc7a,64cf4b26b39c03fcda8334c6,,,,,,,sngl,resources/DBN.BMP,resources/Empty.png,Door2,-0.363888889,0.138888889,1,0,0,1.8832,optionLeft,40,570,1,11,0,11,0,1,,,,,,,,,,,,,,,,,,,,,,,,,,,,,,,,,,,,,,,
,,,,,,,,2023-08-06_08h26.51.929,HF_wild_card,2022.2.4,Win32,59.75857536,5ebd791a7cba9305f147ed96,64ce5acb97489d65b14ecc7a,64cf4b26b39c03fcda8334c6,,,,,,,decisionTrl,resources/DBN.BMP,resources/DR.BMP,Door1,0.30648151,-0.067592621,1,0,0,0.979,optionRight,30,600,1,12,0,12,0,1,,,,,,,,,,,,,,,,,,,,,,,,,,,,,,,,,,,,,,,
,,,,,,,,2023-08-06_08h26.51.929,HF_wild_card,2022.2.4,Win32,59.75857536,5ebd791a7cba9305f147ed96,64ce5acb97489d65b14ecc7a,64cf4b26b39c03fcda8334c6,,,,,,,decisionTrl,resources/DR.BMP,resources/DBN.BMP,Door1,-0.274074046,0.008333333,1,0,0,1.1378,optionLeft,30,630,1,13,0,13,0,1,,,,,,,,,,,,,,,,,,,,,,,,,,,,,,,,,,,,,,,
,,,,,,,,2023-08-06_08h26.51.929,HF_wild_card,2022.2.4,Win32,59.75857536,5ebd791a7cba9305f147ed96,64ce5acb97489d65b14ecc7a,64cf4b26b39c03fcda8334c6,,,,,,,sngl,resources/DG.BMP,resources/Empty.png,WildCard_Ex,-0.533333333,-0.123148176,1,0,0,0.7775,optionLeft,5,635,1,14,0,14,0,1,,,,,,,,,,,,,,,,,,,,,,,,,,,,,,,,,,,,,,,
,,,,,,,,2023-08-06_08h26.51.929,HF_wild_card,2022.2.4,Win32,59.75857536,5ebd791a7cba9305f147ed96,64ce5acb97489d65b14ecc7a,64cf4b26b39c03fcda8334c6,,,,,,,decisionTrl,resources/DB.BMP,resources/DP.BMP,Door3,-0.288888889,-0.140740755,1,0,0,1.1499,optionLeft,70,705,1,15,0,15,0,1,,,,,,,,,,,,,,,,,,,,,,,,,,,,,,,,,,,,,,,
,,,,,,,,2023-08-06_08h26.51.929,HF_wild_card,2022.2.4,Win32,59.75857536,5ebd791a7cba9305f147ed96,64ce5acb97489d65b14ecc7a,64cf4b26b39c03fcda8334c6,,,,,,,ctch,resources/DP.BMP,resources/DR.BMP,Door4,-0.284259245,-0.012962977,1,0,0,0.9408,optionLeft,60,765,1,16,0,16,0,1,,,,,,,,,,,,,,,,,,,,,,,,,,,,,,,,,,,,,,,
,,,,,,,,2023-08-06_08h26.51.929,HF_wild_card,2022.2.4,Win32,59.75857536,5ebd791a7cba9305f147ed96,64ce5acb97489d65b14ecc7a,64cf4b26b39c03fcda8334c6,,,,,,,decisionTrl,resources/DP.BMP,resources/DB.BMP,Door3,0.295370399,-0.102777778,1,0,0,1.6126,optionRight,70,835,1,17,0,17,0,1,,,,,,,,,,,,,,,,,,,,,,,,,,,,,,,,,,,,,,,
,,,,,,,,2023-08-06_08h26.51.929,HF_wild_card,2022.2.4,Win32,59.75857536,5ebd791a7cba9305f147ed96,64ce5acb97489d65b14ecc7a,64cf4b26b39c03fcda8334c6,,,,,,,sngl,resources/Empty.png,resources/DG.BMP,WildCard_Ex,0.334259288,0,1,0,0,0.7929,optionRight,95,930,1,18,0,18,0,1,,,,,,,,,,,,,,,,,,,,,,,,,,,,,,,,,,,,,,,
,,,,,,,,2023-08-06_08h26.51.929,HF_wild_card,2022.2.4,Win32,59.75857536,5ebd791a7cba9305f147ed96,64ce5acb97489d65b14ecc7a,64cf4b26b39c03fcda8334c6,,,,,,,decisionTrl,resources/DR.BMP,resources/DBN.BMP,Door2,-0.002777778,0.002777778,1,0,0,0.3182,optionRight,20,950,1,19,0,19,0,1,,,,,,,,,,,,,,,,,,,,,,,,,,,,,,,,,,,,,,,
,,,,,,,,2023-08-06_08h26.51.929,HF_wild_card,2022.2.4,Win32,59.75857536,5ebd791a7cba9305f147ed96,64ce5acb97489d65b14ecc7a,64cf4b26b39c03fcda8334c6,,,,,,,decisionTrl,resources/DBN.BMP,resources/DR.BMP,Door1,0.263888889,-0.065740755,1,0,0,0.9347,optionRight,30,980,1,20,0,20,0,1,,,,,,,,,,,,,,,,,,,,,,,,,,,,,,,,,,,,,,,
,,,,,,,,2023-08-06_08h26.51.929,HF_wild_card,2022.2.4,Win32,59.75857536,5ebd791a7cba9305f147ed96,64ce5acb97489d65b14ecc7a,64cf4b26b39c03fcda8334c6,,,,,,,decisionTrl,resources/DB.BMP,resources/DP.BMP,Door3,-0.499074046,-0.111111111,1,0,0,2.1901,optionLeft,70,1050,1,21,0,21,0,1,,,,,,,,,,,,,,,,,,,,,,,,,,,,,,,,,,,,,,,
,,,,,,,,2023-08-06_08h26.51.929,HF_wild_card,2022.2.4,Win32,59.75857536,5ebd791a7cba9305f147ed96,64ce5acb97489d65b14ecc7a,64cf4b26b39c03fcda8334c6,,,,,,,ctch,resources/DBN.BMP,resources/DB.BMP,Door3,0.420370399,-0.008333333,1,0,0,0.9129,optionRight,70,1120,1,22,0,22,0,1,,,,,,,,,,,,,,,,,,,,,,,,,,,,,,,,,,,,,,,
,,,,,,,,2023-08-06_08h26.51.929,HF_wild_card,2022.2.4,Win32,59.75857536,5ebd791a7cba9305f147ed96,64ce5acb97489d65b14ecc7a,64cf4b26b39c03fcda8334c6,,,,,,,sngl,resources/DR.BMP,resources/Empty.png,Door1,-0.314814801,-0.001851866,1,0,0,0.9771,optionLeft,30,1150,1,23,0,23,0,1,,,,,,,,,,,,,,,,,,,,,,,,,,,,,,,,,,,,,,,
,,,,,,,,2023-08-06_08h26.51.929,HF_wild_card,2022.2.4,Win32,59.75857536,5ebd791a7cba9305f147ed96,64ce5acb97489d65b14ecc7a,64cf4b26b39c03fcda8334c6,,,,,,,sngl,resources/DP.BMP,resources/Empty.png,Door4,-0.273148134,-0.032407422,1,0,0,0.796,optionLeft,80,1230,1,24,0,24,0,1,,,,,,,,,,,,,,,,,,,,,,,,,,,,,,,,,,,,,,,
,,,,,,,,2023-08-06_08h26.51.929,HF_wild_card,2022.2.4,Win32,59.75857536,5ebd791a7cba9305f147ed96,64ce5acb97489d65b14ecc7a,64cf4b26b39c03fcda8334c6,,,,,,,decisionTrl,resources/DR.BMP,resources/DG.BMP,Door1,-0.291666667,-0.065740755,1,0,0,1.1157,optionLeft,30,1260,1,25,0,25,0,1,,,,,,,,,,,,,,,,,,,,,,,,,,,,,,,,,,,,,,,
,,,,,,,,2023-08-06_08h26.51.929,HF_wild_card,2022.2.4,Win32,59.75857536,5ebd791a7cba9305f147ed96,64ce5acb97489d65b14ecc7a,64cf4b26b39c03fcda8334c6,,,,,,,ctch,resources/DR.BMP,resources/DP.BMP,Door4,0.412963019,-0.066666667,1,0,0,1.1451,optionRight,80,1340,1,26,0,26,0,1,,,,,,,,,,,,,,,,,,,,,,,,,,,,,,,,,,,,,,,
,,,,,,,,2023-08-06_08h26.51.929,HF_wild_card,2022.2.4,Win32,59.75857536,5ebd791a7cba9305f147ed96,64ce5acb97489d65b14ecc7a,64cf4b26b39c03fcda8334c6,,,,,,,sngl,resources/Empty.png,resources/DB.BMP,Door3,0.221296353,0.017592578,1,0,0,0.771,optionRight,70,1410,1,27,0,27,0,1,,,,,,,,,,,,,,,,,,,,,,,,,,,,,,,,,,,,,,,
,,,,,,,,2023-08-06_08h26.51.929,HF_wild_card,2022.2.4,Win32,59.75857536,5ebd791a7cba9305f147ed96,64ce5acb97489d65b14ecc7a,64cf4b26b39c03fcda8334c6,,,,,,,ctch,resources/DB.BMP,resources/DBN.BMP,Door2,0.358333333,-0.03148151,1,0,0,1.4685,optionRight,40,1450,1,28,0,28,0,1,,,,,,,,,,,,,,,,,,,,,,,,,,,,,,,,,,,,,,,
,,,,,,,,2023-08-06_08h26.51.929,HF_wild_card,2022.2.4,Win32,59.75857536,5ebd791a7cba9305f147ed96,64ce5acb97489d65b14ecc7a,64cf4b26b39c03fcda8334c6,,,,,,,ctch,resources/DP.BMP,resources/DR.BMP,Door4,-0.494444444,-0.039814843,1,0,0,1.3991,optionLeft,80,1530,1,29,0,29,0,1,,,,,,,,,,,,,,,,,,,,,,,,,,,,,,,,,,,,,,,
,,,,,,,,2023-08-06_08h26.51.929,HF_wild_card,2022.2.4,Win32,59.75857536,5ebd791a7cba9305f147ed96,64ce5acb97489d65b14ecc7a,64cf4b26b39c03fcda8334c6,,,,,,,decisionTrl,resources/DR.BMP,resources/DBN.BMP,Door1,-0.173148092,-0.049074088,1,0,0,1.6766,optionLeft,30,1560,1,30,0,30,0,1,,,,,,,,,,,,,,,,,,,,,,,,,,,,,,,,,,,,,,,
,,,,,,,,2023-08-06_08h26.51.929,HF_wild_card,2022.2.4,Win32,59.75857536,5ebd791a7cba9305f147ed96,64ce5acb97489d65b14ecc7a,64cf4b26b39c03fcda8334c6,,,,,,,decisionTrl,resources/DB.BMP,resources/DP.BMP,Door3,-0.332407379,-0.087962977,1,0,0,1.5328,optionLeft,70,1630,1,31,0,31,0,1,,,,,,,,,,,,,,,,,,,,,,,,,,,,,,,,,,,,,,,
,,,,,,,,2023-08-06_08h26.51.929,HF_wild_card,2022.2.4,Win32,59.75857536,5ebd791a7cba9305f147ed96,64ce5acb97489d65b14ecc7a,64cf4b26b39c03fcda8334c6,,,,,,,decisionTrl,resources/DBN.BMP,resources/DR.BMP,Door1,0.23148151,-0.043518533,1,0,0,1.0644,optionRight,30,1660,1,32,0,32,0,1,,,,,,,,,,,,,,,,,,,,,,,,,,,,,,,,,,,,,,,
,,,,,,,,2023-08-06_08h26.51.929,HF_wild_card,2022.2.4,Win32,59.75857536,5ebd791a7cba9305f147ed96,64ce5acb97489d65b14ecc7a,64cf4b26b39c03fcda8334c6,,,,,,,decisionTrl,resources/DP.BMP,resources/DG.BMP,WildCard_Ex,0.223148176,0.002777778,1,0,0,1.4711,optionRight,5,1665,1,33,0,33,0,1,,,,,,,,,,,,,,,,,,,,,,,,,,,,,,,,,,,,,,,
,,,,,,,,2023-08-06_08h26.51.929,HF_wild_card,2022.2.4,Win32,59.75857536,5ebd791a7cba9305f147ed96,64ce5acb97489d65b14ecc7a,64cf4b26b39c03fcda8334c6,,,,,,,decisionTrl,resources/DP.BMP,resources/DB.BMP,Door3,0.179629686,0.017592578,1,0,0,1.8953,optionRight,70,1735,1,34,0,34,0,1,,,,,,,,,,,,,,,,,,,,,,,,,,,,,,,,,,,,,,,
,,,,,,,,2023-08-06_08h26.51.929,HF_wild_card,2022.2.4,Win32,59.75857536,5ebd791a7cba9305f147ed96,64ce5acb97489d65b14ecc7a,64cf4b26b39c03fcda8334c6,,,,,,,decisionTrl,resources/DBN.BMP,resources/DR.BMP,Door1,0.287963019,-0.066666667,1,0,0,0.9118,optionRight,30,1765,1,35,0,35,0,1,,,,,,,,,,,,,,,,,,,,,,,,,,,,,,,,,,,,,,,
,,,,,,,,2023-08-06_08h26.51.929,HF_wild_card,2022.2.4,Win32,59.75857536,5ebd791a7cba9305f147ed96,64ce5acb97489d65b14ecc7a,64cf4b26b39c03fcda8334c6,,,,,,,decisionTrl,resources/DB.BMP,resources/DP.BMP,Door4,0.238888889,-0.04629631,1,0,0,1.0443,optionRight,60,1825,1,36,0,36,0,1,,,,,,,,,,,,,,,,,,,,,,,,,,,,,,,,,,,,,,,
,,,,,,,,2023-08-06_08h26.51.929,HF_wild_card,2022.2.4,Win32,59.75857536,5ebd791a7cba9305f147ed96,64ce5acb97489d65b14ecc7a,64cf4b26b39c03fcda8334c6,,,,,,,decisionTrl,resources/DG.BMP,resources/DBN.BMP,WildCard_Ex,-0.173148092,-0.045370399,1,0,0,2.7195,optionLeft,5,1830,1,37,0,37,0,1,,,,,,,,,,,,,,,,,,,,,,,,,,,,,,,,,,,,,,,
,,,,,,,,2023-08-06_08h26.51.929,HF_wild_card,2022.2.4,Win32,59.75857536,5ebd791a7cba9305f147ed96,64ce5acb97489d65b14ecc7a,64cf4b26b39c03fcda8334c6,,,,,,,decisionTrl,resources/DP.BMP,resources/DB.BMP,Door4,-0.45370369,-0.059259288,1,0,0,1.4394,optionLeft,60,1890,1,38,0,38,0,1,,,,,,,,,,,,,,,,,,,,,,,,,,,,,,,,,,,,,,,
,,,,,,,,2023-08-06_08h26.51.929,HF_wild_card,2022.2.4,Win32,59.75857536,5ebd791a7cba9305f147ed96,64ce5acb97489d65b14ecc7a,64cf4b26b39c03fcda8334c6,,,,,,,decisionTrl,resources/DBN.BMP,resources/DG.BMP,Door2,-0.357407379,-0.073148176,1,0,0,0.9987,optionLeft,20,1910,1,39,0,39,0,1,,,,,,,,,,,,,,,,,,,,,,,,,,,,,,,,,,,,,,,
,,,,,,,,2023-08-06_08h26.51.929,HF_wild_card,2022.2.4,Win32,59.75857536,5ebd791a7cba9305f147ed96,64ce5acb97489d65b14ecc7a,64cf4b26b39c03fcda8334c6,,,,,,,sngl,resources/Empty.png,resources/DG.BMP,WildCard_Ex,-0.888888889,-0.105555556,1,0,0,1.3191,optionRight,5,1915,1,40,0,40,0,1,,,,,,,,,,,,,,,,,,,,,,,,,,,,,,,,,,,,,,,
,,,,,,,,2023-08-06_08h26.51.929,HF_wild_card,2022.2.4,Win32,59.75857536,5ebd791a7cba9305f147ed96,64ce5acb97489d65b14ecc7a,64cf4b26b39c03fcda8334c6,,,,,,,sngl,resources/Empty.png,resources/DP.BMP,Door4,0.296296353,-0.126851866,1,0,0,0.9516,optionRight,60,1975,1,41,0,41,0,1,,,,,,,,,,,,,,,,,,,,,,,,,,,,,,,,,,,,,,,
,,,,,,,,2023-08-06_08h26.51.929,HF_wild_card,2022.2.4,Win32,59.75857536,5ebd791a7cba9305f147ed96,64ce5acb97489d65b14ecc7a,64cf4b26b39c03fcda8334c6,,,,,,,ctch,resources/DB.BMP,resources/DBN.BMP,Door3,-0.370370356,-0.042592621,1,0,0,1.1702,optionLeft,70,2045,1,42,0,42,0,1,,,,,,,,,,,,,,,,,,,,,,,,,,,,,,,,,,,,,,,
,,,,,,,,2023-08-06_08h26.51.929,HF_wild_card,2022.2.4,Win32,59.75857536,5ebd791a7cba9305f147ed96,64ce5acb97489d65b14ecc7a,64cf4b26b39c03fcda8334c6,,,,,,,decisionTrl,resources/DP.BMP,resources/DB.BMP,Door3,0.239814843,-0.025925954,1,0,0,0.5383,optionRight,70,2115,1,43,0,43,0,1,,,,,,,,,,,,,,,,,,,,,,,,,,,,,,,,,,,,,,,
,,,,,,,,2023-08-06_08h26.51.929,HF_wild_card,2022.2.4,Win32,59.75857536,5ebd791a7cba9305f147ed96,64ce5acb97489d65b14ecc7a,64cf4b26b39c03fcda8334c6,,,,,,,,,,,,,,,,,,,,,,,,,,0,0,0,0,1,,,,,,,,,,,,,,,,,,,,,,,,,,,,,,,,,,
,,,,,,,,2023-08-06_08h26.51.929,HF_wild_card,2022.2.4,Win32,59.75857536,5ebd791a7cba9305f147ed96,64ce5acb97489d65b14ecc7a,64cf4b26b39c03fcda8334c6,,,,,,,sngl,resources/DP.BMP,resources/Empty.png,Door4,-0.279629601,-0.105555556,1,0,0,0.6401,optionLeft,60,2175,2,0,0,0,0,1,,,,,,,,,,,,,,,,,,,,,,,,,,,,,,,,,,,,,,,
,,,,,,,,2023-08-06_08h26.51.929,HF_wild_card,2022.2.4,Win32,59.75857536,5ebd791a7cba9305f147ed96,64ce5acb97489d65b14ecc7a,64cf4b26b39c03fcda8334c6,,,,,,,ctch,resources/DP.BMP,resources/DR.BMP,Door1,0.255555556,-0.030555556,1,0,0,0.5011,optionRight,30,2205,2,1,0,1,0,1,,,,,,,,,,,,,,,,,,,,,,,,,,,,,,,,,,,,,,,
,,,,,,,,2023-08-06_08h26.51.929,HF_wild_card,2022.2.4,Win32,59.75857536,5ebd791a7cba9305f147ed96,64ce5acb97489d65b14ecc7a,64cf4b26b39c03fcda8334c6,,,,,,,decisionTrl,resources/DP.BMP,resources/DB.BMP,Door3,0.324074131,-0.020370399,1,0,0,1.3608,optionRight,70,2275,2,2,0,2,0,1,,,,,,,,,,,,,,,,,,,,,,,,,,,,,,,,,,,,,,,
,,,,,,,,2023-08-06_08h26.51.929,HF_wild_card,2022.2.4,Win32,59.75857536,5ebd791a7cba9305f147ed96,64ce5acb97489d65b14ecc7a,64cf4b26b39c03fcda8334c6,,,,,,,decisionTrl,resources/DB.BMP,resources/DP.BMP,Door3,-0.281481467,-0.043518533,1,0,0,0.6566,optionLeft,70,2345,2,3,0,3,0,1,,,,,,,,,,,,,,,,,,,,,,,,,,,,,,,,,,,,,,,
,,,,,,,,2023-08-06_08h26.51.929,HF_wild_card,2022.2.4,Win32,59.75857536,5ebd791a7cba9305f147ed96,64ce5acb97489d65b14ecc7a,64cf4b26b39c03fcda8334c6,,,,,,,sngl,resources/Empty.png,resources/DR.BMP,Door1,0.25648151,-0.017592621,1,0,0,0.6612,optionRight,30,2375,2,4,0,4,0,1,,,,,,,,,,,,,,,,,,,,,,,,,,,,,,,,,,,,,,,
,,,,,,,,2023-08-06_08h26.51.929,HF_wild_card,2022.2.4,Win32,59.75857536,5ebd791a7cba9305f147ed96,64ce5acb97489d65b14ecc7a,64cf4b26b39c03fcda8334c6,,,,,,,decisionTrl,resources/DG.BMP,resources/DB.BMP,WildCard_Ex,-0.304629601,-0.037037065,1,0,0,1.2602,optionLeft,5,2380,2,5,0,5,0,1,,,,,,,,,,,,,,,,,,,,,,,,,,,,,,,,,,,,,,,
,,,,,,,,2023-08-06_08h26.51.929,HF_wild_card,2022.2.4,Win32,59.75857536,5ebd791a7cba9305f147ed96,64ce5acb97489d65b14ecc7a,64cf4b26b39c03fcda8334c6,,,,,,,decisionTrl,resources/DBN.BMP,resources/DR.BMP,Door1,0.225925954,-0.094444444,1,0,0,1.2469,optionRight,30,2410,2,6,0,6,0,1,,,,,,,,,,,,,,,,,,,,,,,,,,,,,,,,,,,,,,,
,,,,,,,,2023-08-06_08h26.51.929,HF_wild_card,2022.2.4,Win32,59.75857536,5ebd791a7cba9305f147ed96,64ce5acb97489d65b14ecc7a,64cf4b26b39c03fcda8334c6,,,,,,,ctch,resources/DB.BMP,resources/DBN.BMP,Door3,-0.201851824,-0.032407422,1,0,0,0.9268,optionLeft,70,2480,2,7,0,7,0,1,,,,,,,,,,,,,,,,,,,,,,,,,,,,,,,,,,,,,,,
,,,,,,,,2023-08-06_08h26.51.929,HF_wild_card,2022.2.4,Win32,59.75857536,5ebd791a7cba9305f147ed96,64ce5acb97489d65b14ecc7a,64cf4b26b39c03fcda8334c6,,,,,,,decisionTrl,resources/DR.BMP,resources/DBN.BMP,Door1,-0.267592578,-0.02129631,1,0,0,0.6556,optionLeft,30,2510,2,8,0,8,0,1,,,,,,,,,,,,,,,,,,,,,,,,,,,,,,,,,,,,,,,
,,,,,,,,2023-08-06_08h26.51.929,HF_wild_card,2022.2.4,Win32,59.75857536,5ebd791a7cba9305f147ed96,64ce5acb97489d65b14ecc7a,64cf4b26b39c03fcda8334c6,,,,,,,decisionTrl,resources/DP.BMP,resources/DB.BMP,Door3,0.244444444,-0.054629644,1,0,0,0.7356,optionRight,70,2580,2,9,0,9,0,1,,,,,,,,,,,,,,,,,,,,,,,,,,,,,,,,,,,,,,,
,,,,,,,,2023-08-06_08h26.51.929,HF_wild_card,2022.2.4,Win32,59.75857536,5ebd791a7cba9305f147ed96,64ce5acb97489d65b14ecc7a,64cf4b26b39c03fcda8334c6,,,,,,,ctch,resources/DBN.BMP,resources/DB.BMP,Door3,0.466666667,-0.09629631,1,0,0,0.7264,optionRight,70,2650,2,10,0,10,0,1,,,,,,,,,,,,,,,,,,,,,,,,,,,,,,,,,,,,,,,
,,,,,,,,2023-08-06_08h26.51.929,HF_wild_card,2022.2.4,Win32,59.75857536,5ebd791a7cba9305f147ed96,64ce5acb97489d65b14ecc7a,64cf4b26b39c03fcda8334c6,,,,,,,sngl,resources/Empty.png,resources/DB.BMP,Door3,0.301851908,-0.062962977,1,0,0,0.6103,optionRight,70,2720,2,11,0,11,0,1,,,,,,,,,,,,,,,,,,,,,,,,,,,,,,,,,,,,,,,
,,,,,,,,2023-08-06_08h26.51.929,HF_wild_card,2022.2.4,Win32,59.75857536,5ebd791a7cba9305f147ed96,64ce5acb97489d65b14ecc7a,64cf4b26b39c03fcda8334c6,,,,,,,decisionTrl,resources/DR.BMP,resources/DBN.BMP,Door1,-0.337037023,-0.063888889,1,0,0,0.6562,optionLeft,30,2750,2,12,0,12,0,1,,,,,,,,,,,,,,,,,,,,,,,,,,,,,,,,,,,,,,,
,,,,,,,,2023-08-06_08h26.51.929,HF_wild_card,2022.2.4,Win32,59.75857536,5ebd791a7cba9305f147ed96,64ce5acb97489d65b14ecc7a,64cf4b26b39c03fcda8334c6,,,,,,,decisionTrl,resources/DBN.BMP,resources/DR.BMP,Door1,0.264814843,-0.074074088,1,0,0,0.6308,optionRight,30,2780,2,13,0,13,0,1,,,,,,,,,,,,,,,,,,,,,,,,,,,,,,,,,,,,,,,
,,,,,,,,2023-08-06_08h26.51.929,HF_wild_card,2022.2.4,Win32,59.75857536,5ebd791a7cba9305f147ed96,64ce5acb97489d65b14ecc7a,64cf4b26b39c03fcda8334c6,,,,,,,decisionTrl,resources/DP.BMP,resources/DB.BMP,Door3,0.237963019,-0.014814843,1,0,0,0.7602,optionRight,70,2850,2,14,0,14,0,1,,,,,,,,,,,,,,,,,,,,,,,,,,,,,,,,,,,,,,,
,,,,,,,,2023-08-06_08h26.51.929,HF_wild_card,2022.2.4,Win32,59.75857536,5ebd791a7cba9305f147ed96,64ce5acb97489d65b14ecc7a,64cf4b26b39c03fcda8334c6,,,,,,,sngl,resources/DG.BMP,resources/Empty.png,WildCard_Ex,0.119444444,-0.059259288,1,0,0,1.17,optionLeft,95,2945,2,15,0,15,0,1,,,,,,,,,,,,,,,,,,,,,,,,,,,,,,,,,,,,,,,
,,,,,,,,2023-08-06_08h26.51.929,HF_wild_card,2022.2.4,Win32,59.75857536,5ebd791a7cba9305f147ed96,64ce5acb97489d65b14ecc7a,64cf4b26b39c03fcda8334c6,,,,,,,sngl,resources/Empty.png,resources/DP.BMP,Door4,0.359259288,-0.065740755,1,0,0,0.5623,optionRight,80,3025,2,16,0,16,0,1,,,,,,,,,,,,,,,,,,,,,,,,,,,,,,,,,,,,,,,
,,,,,,,,2023-08-06_08h26.51.929,HF_wild_card,2022.2.4,Win32,59.75857536,5ebd791a7cba9305f147ed96,64ce5acb97489d65b14ecc7a,64cf4b26b39c03fcda8334c6,,,,,,,ctch,resources/DB.BMP,resources/DBN.BMP,Door2,0.138888889,-0.04629631,1,0,0,0.7676,optionRight,20,3045,2,17,0,17,0,1,,,,,,,,,,,,,,,,,,,,,,,,,,,,,,,,,,,,,,,
,,,,,,,,2023-08-06_08h26.51.929,HF_wild_card,2022.2.4,Win32,59.75857536,5ebd791a7cba9305f147ed96,64ce5acb97489d65b14ecc7a,64cf4b26b39c03fcda8334c6,,,,,,,sngl,resources/Empty.png,resources/DBN.BMP,Door2,0.222222222,-0.024074088,1,0,0,0.5882,optionRight,40,3085,2,18,0,18,0,1,,,,,,,,,,,,,,,,,,,,,,,,,,,,,,,,,,,,,,,
,,,,,,,,2023-08-06_08h26.51.929,HF_wild_card,2022.2.4,Win32,59.75857536,5ebd791a7cba9305f147ed96,64ce5acb97489d65b14ecc7a,64cf4b26b39c03fcda8334c6,,,,,,,decisionTrl,resources/DB.BMP,resources/DP.BMP,Door3,-0.360185157,-0.063888889,1,0,0,0.8535,optionLeft,70,3155,2,19,0,19,0,1,,,,,,,,,,,,,,,,,,,,,,,,,,,,,,,,,,,,,,,
,,,,,,,,2023-08-06_08h26.51.929,HF_wild_card,2022.2.4,Win32,59.75857536,5ebd791a7cba9305f147ed96,64ce5acb97489d65b14ecc7a,64cf4b26b39c03fcda8334c6,,,,,,,ctch,resources/DBN.BMP,resources/DB.BMP,Door2,-0.549074067,-0.051851866,1,0,0,0.8977,optionLeft,20,3175,2,20,0,20,0,1,,,,,,,,,,,,,,,,,,,,,,,,,,,,,,,,,,,,,,,
,,,,,,,,2023-08-06_08h26.51.929,HF_wild_card,2022.2.4,Win32,59.75857536,5ebd791a7cba9305f147ed96,64ce5acb97489d65b14ecc7a,64cf4b26b39c03fcda8334c6,,,,,,,decisionTrl,resources/DBN.BMP,resources/DR.BMP,Door2,-0.25370369,-0.052777778,1,0,0,0.5464,optionLeft,40,3215,2,21,0,21,0,1,,,,,,,,,,,,,,,,,,,,,,,,,,,,,,,,,,,,,,,
,,,,,,,,2023-08-06_08h26.51.929,HF_wild_card,2022.2.4,Win32,59.75857536,5ebd791a7cba9305f147ed96,64ce5acb97489d65b14ecc7a,64cf4b26b39c03fcda8334c6,,,,,,,ctch,resources/DP.BMP,resources/DR.BMP,Door4,-0.491666667,-0.053703732,1,0,0,1.6284,optionLeft,60,3275,2,22,0,22,0,1,,,,,,,,,,,,,,,,,,,,,,,,,,,,,,,,,,,,,,,
,,,,,,,,2023-08-06_08h26.51.929,HF_wild_card,2022.2.4,Win32,59.75857536,5ebd791a7cba9305f147ed96,64ce5acb97489d65b14ecc7a,64cf4b26b39c03fcda8334c6,,,,,,,ctch,resources/DR.BMP,resources/DP.BMP,Door4,0.343518575,-0.042592621,1,0,0,0.6332,optionRight,60,3335,2,23,0,23,0,1,,,,,,,,,,,,,,,,,,,,,,,,,,,,,,,,,,,,,,,
,,,,,,,,2023-08-06_08h26.51.929,HF_wild_card,2022.2.4,Win32,59.75857536,5ebd791a7cba9305f147ed96,64ce5acb97489d65b14ecc7a,64cf4b26b39c03fcda8334c6,,,,,,,decisionTrl,resources/DBN.BMP,resources/DG.BMP,Door2,-0.309259245,-0.034259288,1,0,0,0.806,optionLeft,40,3375,2,24,0,24,0,1,,,,,,,,,,,,,,,,,,,,,,,,,,,,,,,,,,,,,,,
,,,,,,,,2023-08-06_08h26.51.929,HF_wild_card,2022.2.4,Win32,59.75857536,5ebd791a7cba9305f147ed96,64ce5acb97489d65b14ecc7a,64cf4b26b39c03fcda8334c6,,,,,,,sngl,resources/DBN.BMP,resources/Empty.png,Door2,-0.206481467,-0.04629631,1,0,0,0.6499,optionLeft,20,3395,2,25,0,25,0,1,,,,,,,,,,,,,,,,,,,,,,,,,,,,,,,,,,,,,,,
,,,,,,,,2023-08-06_08h26.51.929,HF_wild_card,2022.2.4,Win32,59.75857536,5ebd791a7cba9305f147ed96,64ce5acb97489d65b14ecc7a,64cf4b26b39c03fcda8334c6,,,,,,,decisionTrl,resources/DB.BMP,resources/DG.BMP,Door3,-0.240740712,-0.073148176,1,0,0,0.9556,optionLeft,70,3465,2,26,0,26,0,1,,,,,,,,,,,,,,,,,,,,,,,,,,,,,,,,,,,,,,,
,,,,,,,,2023-08-06_08h26.51.929,HF_wild_card,2022.2.4,Win32,59.75857536,5ebd791a7cba9305f147ed96,64ce5acb97489d65b14ecc7a,64cf4b26b39c03fcda8334c6,,,,,,,decisionTrl,resources/DG.BMP,resources/DR.BMP,Door1,0.367592621,-0.029629644,1,0,0,0.6047,optionRight,30,3495,2,27,0,27,0,1,,,,,,,,,,,,,,,,,,,,,,,,,,,,,,,,,,,,,,,
,,,,,,,,2023-08-06_08h26.51.929,HF_wild_card,2022.2.4,Win32,59.75857536,5ebd791a7cba9305f147ed96,64ce5acb97489d65b14ecc7a,64cf4b26b39c03fcda8334c6,,,,,,,decisionTrl,resources/DR.BMP,resources/DBN.BMP,Door1,-0.235185157,-0.075925954,1,0,0,0.6343,optionLeft,30,3525,2,28,0,28,0,1,,,,,,,,,,,,,,,,,,,,,,,,,,,,,,,,,,,,,,,
,,,,,,,,2023-08-06_08h26.51.929,HF_wild_card,2022.2.4,Win32,59.75857536,5ebd791a7cba9305f147ed96,64ce5acb97489d65b14ecc7a,64cf4b26b39c03fcda8334c6,,,,,,,decisionTrl,resources/DG.BMP,resources/DBN.BMP,Door2,0.246296353,-0.024074088,1,0,0,0.7211,optionRight,20,3545,2,29,0,29,0,1,,,,,,,,,,,,,,,,,,,,,,,,,,,,,,,,,,,,,,,
,,,,,,,,2023-08-06_08h26.51.929,HF_wild_card,2022.2.4,Win32,59.75857536,5ebd791a7cba9305f147ed96,64ce5acb97489d65b14ecc7a,64cf4b26b39c03fcda8334c6,,,,,,,decisionTrl,resources/DP.BMP,resources/DB.BMP,Door4,-0.257407379,-0.09629631,1,0,0,0.9755,optionLeft,80,3625,2,30,0,30,0,1,,,,,,,,,,,,,,,,,,,,,,,,,,,,,,,,,,,,,,,
,,,,,,,,2023-08-06_08h26.51.929,HF_wild_card,2022.2.4,Win32,59.75857536,5ebd791a7cba9305f147ed96,64ce5acb97489d65b14ecc7a,64cf4b26b39c03fcda8334c6,,,,,,,ctch,resources/DR.BMP,resources/DP.BMP,Door4,0.395370399,-0.037962977,1,0,0,1.7538,optionRight,60,3685,2,31,0,31,0,1,,,,,,,,,,,,,,,,,,,,,,,,,,,,,,,,,,,,,,,
,,,,,,,,2023-08-06_08h26.51.929,HF_wild_card,2022.2.4,Win32,59.75857536,5ebd791a7cba9305f147ed96,64ce5acb97489d65b14ecc7a,64cf4b26b39c03fcda8334c6,,,,,,,sngl,resources/DR.BMP,resources/Empty.png,Door1,-0.398148134,-0.059259288,1,0,0,0.5255,optionLeft,30,3715,2,32,0,32,0,1,,,,,,,,,,,,,,,,,,,,,,,,,,,,,,,,,,,,,,,
,,,,,,,,2023-08-06_08h26.51.929,HF_wild_card,2022.2.4,Win32,59.75857536,5ebd791a7cba9305f147ed96,64ce5acb97489d65b14ecc7a,64cf4b26b39c03fcda8334c6,,,,,,,decisionTrl,resources/DB.BMP,resources/DP.BMP,Door4,0.282407464,-0.079629644,1,0,0,0.8477,optionRight,80,3795,2,33,0,33,0,1,,,,,,,,,,,,,,,,,,,,,,,,,,,,,,,,,,,,,,,
,,,,,,,,2023-08-06_08h26.51.929,HF_wild_card,2022.2.4,Win32,59.75857536,5ebd791a7cba9305f147ed96,64ce5acb97489d65b14ecc7a,64cf4b26b39c03fcda8334c6,,,,,,,decisionTrl,resources/DBN.BMP,resources/DR.BMP,Door1,0.229629686,-0.039814843,1,0,0,1.0635,optionRight,30,3825,2,34,0,34,0,1,,,,,,,,,,,,,,,,,,,,,,,,,,,,,,,,,,,,,,,
,,,,,,,,2023-08-06_08h26.51.929,HF_wild_card,2022.2.4,Win32,59.75857536,5ebd791a7cba9305f147ed96,64ce5acb97489d65b14ecc7a,64cf4b26b39c03fcda8334c6,,,,,,,sngl,resources/Empty.png,resources/DG.BMP,WildCard_Ex,0.286111111,-0.041666667,1,0,0,0.5575,optionRight,5,3830,2,35,0,35,0,1,,,,,,,,,,,,,,,,,,,,,,,,,,,,,,,,,,,,,,,
,,,,,,,,2023-08-06_08h26.51.929,HF_wild_card,2022.2.4,Win32,59.75857536,5ebd791a7cba9305f147ed96,64ce5acb97489d65b14ecc7a,64cf4b26b39c03fcda8334c6,,,,,,,sngl,resources/Empty.png,resources/DG.BMP,WildCard_Ex,0.528703732,-0.078703732,1,0,0,0.5217,optionRight,95,3925,2,36,0,36,0,1,,,,,,,,,,,,,,,,,,,,,,,,,,,,,,,,,,,,,,,
,,,,,,,,2023-08-06_08h26.51.929,HF_wild_card,2022.2.4,Win32,59.75857536,5ebd791a7cba9305f147ed96,64ce5acb97489d65b14ecc7a,64cf4b26b39c03fcda8334c6,,,,,,,decisionTrl,resources/DR.BMP,resources/DBN.BMP,Door1,-0.262037023,-0.024074088,1,0,0,0.6239,optionLeft,30,3955,2,37,0,37,0,1,,,,,,,,,,,,,,,,,,,,,,,,,,,,,,,,,,,,,,,
,,,,,,,,2023-08-06_08h26.51.929,HF_wild_card,2022.2.4,Win32,59.75857536,5ebd791a7cba9305f147ed96,64ce5acb97489d65b14ecc7a,64cf4b26b39c03fcda8334c6,,,,,,,decisionTrl,resources/DP.BMP,resources/DG.BMP,Door4,-0.430555556,-0.099074088,1,0,0,1.2719,optionLeft,60,4015,2,38,0,38,0,1,,,,,,,,,,,,,,,,,,,,,,,,,,,,,,,,,,,,,,,
,,,,,,,,2023-08-06_08h26.51.929,HF_wild_card,2022.2.4,Win32,59.75857536,5ebd791a7cba9305f147ed96,64ce5acb97489d65b14ecc7a,64cf4b26b39c03fcda8334c6,,,,,,,decisionTrl,resources/DB.BMP,resources/DP.BMP,Door4,0.432407464,-0.103703732,1,0,0,0.7236,optionRight,80,4095,2,39,0,39,0,1,,,,,,,,,,,,,,,,,,,,,,,,,,,,,,,,,,,,,,,
,,,,,,,,2023-08-06_08h26.51.929,HF_wild_card,2022.2.4,Win32,59.75857536,5ebd791a7cba9305f147ed96,64ce5acb97489d65b14ecc7a,64cf4b26b39c03fcda8334c6,,,,,,,sngl,resources/DB.BMP,resources/Empty.png,Door3,-0.406481467,-0.088888889,1,0,0,0.5499,optionLeft,70,4165,2,40,0,40,0,1,,,,,,,,,,,,,,,,,,,,,,,,,,,,,,,,,,,,,,,
,,,,,,,,2023-08-06_08h26.51.929,HF_wild_card,2022.2.4,Win32,59.75857536,5ebd791a7cba9305f147ed96,64ce5acb97489d65b14ecc7a,64cf4b26b39c03fcda8334c6,,,,,,,decisionTrl,resources/DR.BMP,resources/DG.BMP,WildCard_Ex,0.33148151,-0.027777778,1,0,0,0.5653,optionRight,95,4260,2,41,0,41,0,1,,,,,,,,,,,,,,,,,,,,,,,,,,,,,,,,,,,,,,,
,,,,,,,,2023-08-06_08h26.51.929,HF_wild_card,2022.2.4,Win32,59.75857536,5ebd791a7cba9305f147ed96,64ce5acb97489d65b14ecc7a,64cf4b26b39c03fcda8334c6,,,,,,,decisionTrl,resources/DG.BMP,resources/DP.BMP,WildCard_Ex,-0.187037023,-0.026851866,1,0,0,0.5913,optionLeft,95,4355,2,42,0,42,0,1,,,,,,,,,,,,,,,,,,,,,,,,,,,,,,,,,,,,,,,
,,,,,,,,2023-08-06_08h26.51.929,HF_wild_card,2022.2.4,Win32,59.75857536,5ebd791a7cba9305f147ed96,64ce5acb97489d65b14ecc7a,64cf4b26b39c03fcda8334c6,,,,,,,sngl,resources/DG.BMP,resources/Empty.png,WildCard_Ex,-0.256481467,-0.037037065,1,0,0,0.5714,optionLeft,5,4360,2,43,0,43,0,1,,,,,,,,,,,,,,,,,,,,,,,,,,,,,,,,,,,,,,,
,,,,,,,,2023-08-06_08h26.51.929,HF_wild_card,2022.2.4,Win32,59.75857536,5ebd791a7cba9305f147ed96,64ce5acb97489d65b14ecc7a,64cf4b26b39c03fcda8334c6,,,,,,,,,,,,,,,,,,,,,,,,,,1,0,1,0,1,,,,,,,,,,,,,,,,,,,,,,,,,,,,,,,,,,
,,,,,,,,2023-08-06_08h26.51.929,HF_wild_card,2022.2.4,Win32,59.75857536,5ebd791a7cba9305f147ed96,64ce5acb97489d65b14ecc7a,64cf4b26b39c03fcda8334c6,,,,,,,decisionTrl,resources/DP.BMP,resources/DG.BMP,Door4,-0.305555556,-0.204629644,1,0,0,1.4132,optionLeft,80,4440,3,0,0,0,0,1,,,,,,,,,,,,,,,,,,,,,,,,,,,,,,,,,,,,,,,
,,,,,,,,2023-08-06_08h26.51.929,HF_wild_card,2022.2.4,Win32,59.75857536,5ebd791a7cba9305f147ed96,64ce5acb97489d65b14ecc7a,64cf4b26b39c03fcda8334c6,,,,,,,decisionTrl,resources/DB.BMP,resources/DP.BMP,Door4,0.191666667,-0.029629644,1,0,0,0.8503,optionRight,80,4520,3,1,0,1,0,1,,,,,,,,,,,,,,,,,,,,,,,,,,,,,,,,,,,,,,,
,,,,,,,,2023-08-06_08h26.51.929,HF_wild_card,2022.2.4,Win32,59.75857536,5ebd791a7cba9305f147ed96,64ce5acb97489d65b14ecc7a,64cf4b26b39c03fcda8334c6,,,,,,,decisionTrl,resources/DBN.BMP,resources/DR.BMP,Door1,0.275,-0.022222222,1,0,0,1.0019,optionRight,30,4550,3,2,0,2,0,1,,,,,,,,,,,,,,,,,,,,,,,,,,,,,,,,,,,,,,,
,,,,,,,,2023-08-06_08h26.51.929,HF_wild_card,2022.2.4,Win32,59.75857536,5ebd791a7cba9305f147ed96,64ce5acb97489d65b14ecc7a,64cf4b26b39c03fcda8334c6,,,,,,,decisionTrl,resources/DP.BMP,resources/DB.BMP,Door4,-0.236111111,-0.058333333,1,0,0,0.8452,optionLeft,80,4630,3,3,0,3,0,1,,,,,,,,,,,,,,,,,,,,,,,,,,,,,,,,,,,,,,,
,,,,,,,,2023-08-06_08h26.51.929,HF_wild_card,2022.2.4,Win32,59.75857536,5ebd791a7cba9305f147ed96,64ce5acb97489d65b14ecc7a,64cf4b26b39c03fcda8334c6,,,,,,,sngl,resources/DG.BMP,resources/Empty.png,WildCard_Ex,-0.21851849,-0.059259288,1,0,0,0.7692,optionLeft,95,4725,3,4,0,4,0,1,,,,,,,,,,,,,,,,,,,,,,,,,,,,,,,,,,,,,,,
,,,,,,,,2023-08-06_08h26.51.929,HF_wild_card,2022.2.4,Win32,59.75857536,5ebd791a7cba9305f147ed96,64ce5acb97489d65b14ecc7a,64cf4b26b39c03fcda8334c6,,,,,,,ctch,resources/DB.BMP,resources/DBN.BMP,Door2,0.268518575,-0.043518533,1,0,0,0.9088,optionRight,40,4765,3,5,0,5,0,1,,,,,,,,,,,,,,,,,,,,,,,,,,,,,,,,,,,,,,,
,,,,,,,,2023-08-06_08h26.51.929,HF_wild_card,2022.2.4,Win32,59.75857536,5ebd791a7cba9305f147ed96,64ce5acb97489d65b14ecc7a,64cf4b26b39c03fcda8334c6,,,,,,,decisionTrl,resources/DG.BMP,resources/DB.BMP,WildCard_Ex,-0.230555556,-0.083333333,1,0,0,1.0995,optionLeft,95,4860,3,6,0,6,0,1,,,,,,,,,,,,,,,,,,,,,,,,,,,,,,,,,,,,,,,
,,,,,,,,2023-08-06_08h26.51.929,HF_wild_card,2022.2.4,Win32,59.75857536,5ebd791a7cba9305f147ed96,64ce5acb97489d65b14ecc7a,64cf4b26b39c03fcda8334c6,,,,,,,ctch,resources/DR.BMP,resources/DP.BMP,Door4,0.275,-0.101851866,1,0,0,0.9088,optionRight,60,4920,3,7,0,7,0,1,,,,,,,,,,,,,,,,,,,,,,,,,,,,,,,,,,,,,,,
,,,,,,,,2023-08-06_08h26.51.929,HF_wild_card,2022.2.4,Win32,59.75857536,5ebd791a7cba9305f147ed96,64ce5acb97489d65b14ecc7a,64cf4b26b39c03fcda8334c6,,,,,,,decisionTrl,resources/DR.BMP,resources/DBN.BMP,Door2,0.440740797,-0.072222222,1,0,0,1.5141,optionRight,20,4940,3,8,0,8,0,1,,,,,,,,,,,,,,,,,,,,,,,,,,,,,,,,,,,,,,,
,,,,,,,,2023-08-06_08h26.51.929,HF_wild_card,2022.2.4,Win32,59.75857536,5ebd791a7cba9305f147ed96,64ce5acb97489d65b14ecc7a,64cf4b26b39c03fcda8334c6,,,,,,,decisionTrl,resources/DP.BMP,resources/DB.BMP,Door4,-0.305555556,-0.078703732,1,0,0,1.6827,optionLeft,80,5020,3,9,0,9,0,1,,,,,,,,,,,,,,,,,,,,,,,,,,,,,,,,,,,,,,,
,,,,,,,,2023-08-06_08h26.51.929,HF_wild_card,2022.2.4,Win32,59.75857536,5ebd791a7cba9305f147ed96,64ce5acb97489d65b14ecc7a,64cf4b26b39c03fcda8334c6,,,,,,,sngl,resources/DBN.BMP,resources/Empty.png,Door2,-0.306481467,-0.089814843,1,0,0,0.6548,optionLeft,40,5060,3,10,0,10,0,1,,,,,,,,,,,,,,,,,,,,,,,,,,,,,,,,,,,,,,,
,,,,,,,,2023-08-06_08h26.51.929,HF_wild_card,2022.2.4,Win32,59.75857536,5ebd791a7cba9305f147ed96,64ce5acb97489d65b14ecc7a,64cf4b26b39c03fcda8334c6,,,,,,,decisionTrl,resources/DP.BMP,resources/DB.BMP,Door4,-0.446296268,-0.168518533,1,0,0,1.1182,optionLeft,80,5140,3,11,0,11,0,1,,,,,,,,,,,,,,,,,,,,,,,,,,,,,,,,,,,,,,,
,,,,,,,,2023-08-06_08h26.51.929,HF_wild_card,2022.2.4,Win32,59.75857536,5ebd791a7cba9305f147ed96,64ce5acb97489d65b14ecc7a,64cf4b26b39c03fcda8334c6,,,,,,,ctch,resources/DR.BMP,resources/DP.BMP,Door1,-0.355555556,-0.088888889,1,0,0,0.6957,optionLeft,30,5170,3,12,0,12,0,1,,,,,,,,,,,,,,,,,,,,,,,,,,,,,,,,,,,,,,,
,,,,,,,,2023-08-06_08h26.51.929,HF_wild_card,2022.2.4,Win32,59.75857536,5ebd791a7cba9305f147ed96,64ce5acb97489d65b14ecc7a,64cf4b26b39c03fcda8334c6,,,,,,,sngl,resources/Empty.png,resources/DG.BMP,WildCard_Ex,0.341666667,-0.1,1,0,0,0.6041,optionRight,5,5175,3,13,0,13,0,1,,,,,,,,,,,,,,,,,,,,,,,,,,,,,,,,,,,,,,,
,,,,,,,,2023-08-06_08h26.51.929,HF_wild_card,2022.2.4,Win32,59.75857536,5ebd791a7cba9305f147ed96,64ce5acb97489d65b14ecc7a,64cf4b26b39c03fcda8334c6,,,,,,,ctch,resources/DBN.BMP,resources/DB.BMP,Door2,-0.386111111,-0.054629644,1,0,0,1.1695,optionLeft,40,5215,3,14,0,14,0,1,,,,,,,,,,,,,,,,,,,,,,,,,,,,,,,,,,,,,,,
,,,,,,,,2023-08-06_08h26.51.929,HF_wild_card,2022.2.4,Win32,59.75857536,5ebd791a7cba9305f147ed96,64ce5acb97489d65b14ecc7a,64cf4b26b39c03fcda8334c6,,,,,,,decisionTrl,resources/DB.BMP,resources/DP.BMP,Door3,-0.385185157,-0.194444444,1,0,0,0.6128,optionLeft,70,5285,3,15,0,15,0,1,,,,,,,,,,,,,,,,,,,,,,,,,,,,,,,,,,,,,,,
,,,,,,,,2023-08-06_08h26.51.929,HF_wild_card,2022.2.4,Win32,59.75857536,5ebd791a7cba9305f147ed96,64ce5acb97489d65b14ecc7a,64cf4b26b39c03fcda8334c6,,,,,,,decisionTrl,resources/DB.BMP,resources/DG.BMP,Door3,-0.363888889,-0.117592621,1,0,0,0.615,optionLeft,70,5355,3,16,0,16,0,1,,,,,,,,,,,,,,,,,,,,,,,,,,,,,,,,,,,,,,,
,,,,,,,,2023-08-06_08h26.51.929,HF_wild_card,2022.2.4,Win32,59.75857536,5ebd791a7cba9305f147ed96,64ce5acb97489d65b14ecc7a,64cf4b26b39c03fcda8334c6,,,,,,,sngl,resources/DR.BMP,resources/Empty.png,Door1,-0.206481467,-0.05648151,1,0,0,0.6098,optionLeft,30,5385,3,17,0,17,0,1,,,,,,,,,,,,,,,,,,,,,,,,,,,,,,,,,,,,,,,
,,,,,,,,2023-08-06_08h26.51.929,HF_wild_card,2022.2.4,Win32,59.75857536,5ebd791a7cba9305f147ed96,64ce5acb97489d65b14ecc7a,64cf4b26b39c03fcda8334c6,,,,,,,decisionTrl,resources/DB.BMP,resources/DP.BMP,Door4,0.364814843,-0.029629644,1,0,0,0.7117,optionRight,80,5465,3,18,0,18,0,1,,,,,,,,,,,,,,,,,,,,,,,,,,,,,,,,,,,,,,,
,,,,,,,,2023-08-06_08h26.51.929,HF_wild_card,2022.2.4,Win32,59.75857536,5ebd791a7cba9305f147ed96,64ce5acb97489d65b14ecc7a,64cf4b26b39c03fcda8334c6,,,,,,,sngl,resources/DG.BMP,resources/Empty.png,WildCard_Ex,-0.31851849,-0.118518533,1,0,0,0.5988,optionLeft,5,5470,3,19,0,19,0,1,,,,,,,,,,,,,,,,,,,,,,,,,,,,,,,,,,,,,,,
,,,,,,,,2023-08-06_08h26.51.929,HF_wild_card,2022.2.4,Win32,59.75857536,5ebd791a7cba9305f147ed96,64ce5acb97489d65b14ecc7a,64cf4b26b39c03fcda8334c6,,,,,,,decisionTrl,resources/DBN.BMP,resources/DR.BMP,Door1,0.452777778,-0.089814843,1,0,0,0.5898,optionRight,30,5500,3,20,0,20,0,1,,,,,,,,,,,,,,,,,,,,,,,,,,,,,,,,,,,,,,,
,,,,,,,,2023-08-06_08h26.51.929,HF_wild_card,2022.2.4,Win32,59.75857536,5ebd791a7cba9305f147ed96,64ce5acb97489d65b14ecc7a,64cf4b26b39c03fcda8334c6,,,,,,,decisionTrl,resources/DG.BMP,resources/DP.BMP,Door4,0.283333333,-0.066666667,1,0,0,1.2988,optionRight,80,5580,3,21,0,21,0,1,,,,,,,,,,,,,,,,,,,,,,,,,,,,,,,,,,,,,,,
,,,,,,,,2023-08-06_08h26.51.929,HF_wild_card,2022.2.4,Win32,59.75857536,5ebd791a7cba9305f147ed96,64ce5acb97489d65b14ecc7a,64cf4b26b39c03fcda8334c6,,,,,,,ctch,resources/DBN.BMP,resources/DB.BMP,Door2,-0.433333333,-0.059259288,1,0,0,0.8164,optionLeft,20,5600,3,22,0,22,0,1,,,,,,,,,,,,,,,,,,,,,,,,,,,,,,,,,,,,,,,
,,,,,,,,2023-08-06_08h26.51.929,HF_wild_card,2022.2.4,Win32,59.75857536,5ebd791a7cba9305f147ed96,64ce5acb97489d65b14ecc7a,64cf4b26b39c03fcda8334c6,,,,,,,sngl,resources/Empty.png,resources/DBN.BMP,Door2,0.418518575,-0.035185199,1,0,0,0.5202,optionRight,20,5620,3,23,0,23,0,1,,,,,,,,,,,,,,,,,,,,,,,,,,,,,,,,,,,,,,,
,,,,,,,,2023-08-06_08h26.51.929,HF_wild_card,2022.2.4,Win32,59.75857536,5ebd791a7cba9305f147ed96,64ce5acb97489d65b14ecc7a,64cf4b26b39c03fcda8334c6,,,,,,,decisionTrl,resources/DR.BMP,resources/DBN.BMP,Door1,-0.370370356,-0.166666667,1,0,0,0.7988,optionLeft,30,5650,3,24,0,24,0,1,,,,,,,,,,,,,,,,,,,,,,,,,,,,,,,,,,,,,,,
,,,,,,,,2023-08-06_08h26.51.929,HF_wild_card,2022.2.4,Win32,59.75857536,5ebd791a7cba9305f147ed96,64ce5acb97489d65b14ecc7a,64cf4b26b39c03fcda8334c6,,,,,,,decisionTrl,resources/DP.BMP,resources/DB.BMP,Door4,-0.326851824,-0.052777778,1,0,0,0.8612,optionLeft,80,5730,3,25,0,25,0,1,,,,,,,,,,,,,,,,,,,,,,,,,,,,,,,,,,,,,,,
,,,,,,,,2023-08-06_08h26.51.929,HF_wild_card,2022.2.4,Win32,59.75857536,5ebd791a7cba9305f147ed96,64ce5acb97489d65b14ecc7a,64cf4b26b39c03fcda8334c6,,,,,,,sngl,resources/Empty.png,resources/DG.BMP,WildCard_Ex,0.254629686,-0.016666667,1,0,0,0.761,optionRight,95,5825,3,26,0,26,0,1,,,,,,,,,,,,,,,,,,,,,,,,,,,,,,,,,,,,,,,
,,,,,,,,2023-08-06_08h26.51.929,HF_wild_card,2022.2.4,Win32,59.75857536,5ebd791a7cba9305f147ed96,64ce5acb97489d65b14ecc7a,64cf4b26b39c03fcda8334c6,,,,,,,sngl,resources/Empty.png,resources/DP.BMP,Door4,0.201851908,-0.041666667,1,0,0,0.5546,optionRight,60,5885,3,27,0,27,0,1,,,,,,,,,,,,,,,,,,,,,,,,,,,,,,,,,,,,,,,
,,,,,,,,2023-08-06_08h26.51.929,HF_wild_card,2022.2.4,Win32,59.75857536,5ebd791a7cba9305f147ed96,64ce5acb97489d65b14ecc7a,64cf4b26b39c03fcda8334c6,,,,,,,decisionTrl,resources/DBN.BMP,resources/DR.BMP,Door2,-0.354629601,-0.045370399,1,0,0,2.6437,optionLeft,20,5905,3,28,0,28,0,1,,,,,,,,,,,,,,,,,,,,,,,,,,,,,,,,,,,,,,,
,,,,,,,,2023-08-06_08h26.51.929,HF_wild_card,2022.2.4,Win32,59.75857536,5ebd791a7cba9305f147ed96,64ce5acb97489d65b14ecc7a,64cf4b26b39c03fcda8334c6,,,,,,,ctch,resources/DB.BMP,resources/DBN.BMP,Door2,0.509259288,-0.108333333,1,0,0,0.7681,optionRight,20,5925,3,29,0,29,0,1,,,,,,,,,,,,,,,,,,,,,,,,,,,,,,,,,,,,,,,
,,,,,,,,2023-08-06_08h26.51.929,HF_wild_card,2022.2.4,Win32,59.75857536,5ebd791a7cba9305f147ed96,64ce5acb97489d65b14ecc7a,64cf4b26b39c03fcda8334c6,,,,,,,decisionTrl,resources/DG.BMP,resources/DBN.BMP,WildCard_Ex,-0.350925912,0.012037023,1,0,0,0.7619,optionLeft,95,6020,3,30,0,30,0,1,,,,,,,,,,,,,,,,,,,,,,,,,,,,,,,,,,,,,,,
,,,,,,,,2023-08-06_08h26.51.929,HF_wild_card,2022.2.4,Win32,59.75857536,5ebd791a7cba9305f147ed96,64ce5acb97489d65b14ecc7a,64cf4b26b39c03fcda8334c6,,,,,,,decisionTrl,resources/DR.BMP,resources/DG.BMP,WildCard_Ex,0.261111111,-0.062962977,1,0,0,0.7062,optionRight,5,6025,3,31,0,31,0,1,,,,,,,,,,,,,,,,,,,,,,,,,,,,,,,,,,,,,,,
,,,,,,,,2023-08-06_08h26.51.929,HF_wild_card,2022.2.4,Win32,59.75857536,5ebd791a7cba9305f147ed96,64ce5acb97489d65b14ecc7a,64cf4b26b39c03fcda8334c6,,,,,,,decisionTrl,resources/DG.BMP,resources/DR.BMP,WildCard_Ex,-0.275,-0.012037065,1,0,0,0.54,optionLeft,5,6030,3,32,0,32,0,1,,,,,,,,,,,,,,,,,,,,,,,,,,,,,,,,,,,,,,,
,,,,,,,,2023-08-06_08h26.51.929,HF_wild_card,2022.2.4,Win32,59.75857536,5ebd791a7cba9305f147ed96,64ce5acb97489d65b14ecc7a,64cf4b26b39c03fcda8334c6,,,,,,,sngl,resources/DB.BMP,resources/Empty.png,Door3,-0.327777778,-0.152777778,1,0,0,0.5065,optionLeft,70,6100,3,33,0,33,0,1,,,,,,,,,,,,,,,,,,,,,,,,,,,,,,,,,,,,,,,
,,,,,,,,2023-08-06_08h26.51.929,HF_wild_card,2022.2.4,Win32,59.75857536,5ebd791a7cba9305f147ed96,64ce5acb97489d65b14ecc7a,64cf4b26b39c03fcda8334c6,,,,,,,decisionTrl,resources/DBN.BMP,resources/DG.BMP,WildCard_Ex,0.53148151,-0.064814843,1,0,0,0.5965,optionRight,5,6105,3,34,0,34,0,1,,,,,,,,,,,,,,,,,,,,,,,,,,,,,,,,,,,,,,,
,,,,,,,,2023-08-06_08h26.51.929,HF_wild_card,2022.2.4,Win32,59.75857536,5ebd791a7cba9305f147ed96,64ce5acb97489d65b14ecc7a,64cf4b26b39c03fcda8334c6,,,,,,,ctch,resources/DP.BMP,resources/DR.BMP,Door4,-0.429629601,-0.104629644,1,0,0,0.8178,optionLeft,60,6165,3,35,0,35,0,1,,,,,,,,,,,,,,,,,,,,,,,,,,,,,,,,,,,,,,,
,,,,,,,,2023-08-06_08h26.51.929,HF_wild_card,2022.2.4,Win32,59.75857536,5ebd791a7cba9305f147ed96,64ce5acb97489d65b14ecc7a,64cf4b26b39c03fcda8334c6,,,,,,,decisionTrl,resources/DR.BMP,resources/DBN.BMP,Door1,-0.22870369,-0.062037065,1,0,0,0.581,optionLeft,30,6195,3,36,0,36,0,1,,,,,,,,,,,,,,,,,,,,,,,,,,,,,,,,,,,,,,,
,,,,,,,,2023-08-06_08h26.51.929,HF_wild_card,2022.2.4,Win32,59.75857536,5ebd791a7cba9305f147ed96,64ce5acb97489d65b14ecc7a,64cf4b26b39c03fcda8334c6,,,,,,,sngl,resources/DP.BMP,resources/Empty.png,Door4,-0.322222222,-0.052777778,1,0,0,0.5677,optionLeft,80,6275,3,37,0,37,0,1,,,,,,,,,,,,,,,,,,,,,,,,,,,,,,,,,,,,,,,
,,,,,,,,2023-08-06_08h26.51.929,HF_wild_card,2022.2.4,Win32,59.75857536,5ebd791a7cba9305f147ed96,64ce5acb97489d65b14ecc7a,64cf4b26b39c03fcda8334c6,,,,,,,decisionTrl,resources/DR.BMP,resources/DBN.BMP,Door1,-0.296296268,-0.088888889,1,0,0,0.7683,optionLeft,30,6305,3,38,0,38,0,1,,,,,,,,,,,,,,,,,,,,,,,,,,,,,,,,,,,,,,,
,,,,,,,,2023-08-06_08h26.51.929,HF_wild_card,2022.2.4,Win32,59.75857536,5ebd791a7cba9305f147ed96,64ce5acb97489d65b14ecc7a,64cf4b26b39c03fcda8334c6,,,,,,,decisionTrl,resources/DBN.BMP,resources/DR.BMP,Door1,0.466666667,-0.101851866,1,0,0,0.5634,optionRight,30,6335,3,39,0,39,0,1,,,,,,,,,,,,,,,,,,,,,,,,,,,,,,,,,,,,,,,
,,,,,,,,2023-08-06_08h26.51.929,HF_wild_card,2022.2.4,Win32,59.75857536,5ebd791a7cba9305f147ed96,64ce5acb97489d65b14ecc7a,64cf4b26b39c03fcda8334c6,,,,,,,ctch,resources/DP.BMP,resources/DR.BMP,Door1,0.353703732,-0.085185199,1,0,0,0.5631,optionRight,30,6365,3,40,0,40,0,1,,,,,,,,,,,,,,,,,,,,,,,,,,,,,,,,,,,,,,,
,,,,,,,,2023-08-06_08h26.51.929,HF_wild_card,2022.2.4,Win32,59.75857536,5ebd791a7cba9305f147ed96,64ce5acb97489d65b14ecc7a,64cf4b26b39c03fcda8334c6,,,,,,,decisionTrl,resources/DB.BMP,resources/DP.BMP,Door3,-0.207407379,-0.045370399,1,0,0,0.4978,optionLeft,70,6435,3,41,0,41,0,1,,,,,,,,,,,,,,,,,,,,,,,,,,,,,,,,,,,,,,,
,,,,,,,,2023-08-06_08h26.51.929,HF_wild_card,2022.2.4,Win32,59.75857536,5ebd791a7cba9305f147ed96,64ce5acb97489d65b14ecc7a,64cf4b26b39c03fcda8334c6,,,,,,,sngl,resources/Empty.png,resources/DB.BMP,Door3,0.480555556,-0.022222222,1,0,0,0.4984,optionRight,70,6505,3,42,0,42,0,1,,,,,,,,,,,,,,,,,,,,,,,,,,,,,,,,,,,,,,,
,,,,,,,,2023-08-06_08h26.51.929,HF_wild_card,2022.2.4,Win32,59.75857536,5ebd791a7cba9305f147ed96,64ce5acb97489d65b14ecc7a,64cf4b26b39c03fcda8334c6,,,,,,,sngl,resources/Empty.png,resources/DR.BMP,Door1,0.305555556,-0.054629644,1,0,0,0.456,optionRight,30,6535,3,43,0,43,0,1,,,,,,,,,,,,,,,,,,,,,,,,,,,,,,,,,,,,,,,
,,,,,,,,2023-08-06_08h26.51.929,HF_wild_card,2022.2.4,Win32,59.75857536,5ebd791a7cba9305f147ed96,64ce5acb97489d65b14ecc7a,64cf4b26b39c03fcda8334c6,,,,,,,,,,,,,,,,,,,,,,,,,,2,0,2,0,1,,,,,,,,,,,,,,,,,,,,,,,,,,,,,,,,,,
,,,,,,,,2023-08-06_08h26.51.929,HF_wild_card,2022.2.4,Win32,59.75857536,5ebd791a7cba9305f147ed96,64ce5acb97489d65b14ecc7a,64cf4b26b39c03fcda8334c6,,,,,,,ctch,resources/DBN.BMP,resources/DB.BMP,Door2,-0.386111111,-0.091666667,1,0,0,11.1415,optionLeft,40,6575,4,0,0,0,0,1,,,,,,,,,,,,,,,,,,,,,,,,,,,,,,,,,,,,,,,
,,,,,,,,2023-08-06_08h26.51.929,HF_wild_card,2022.2.4,Win32,59.75857536,5ebd791a7cba9305f147ed96,64ce5acb97489d65b14ecc7a,64cf4b26b39c03fcda8334c6,,,,,,,decisionTrl,resources/DY.BMP,resources/DB.BMP,WildCard_NonEx,-0.170370314,-0.062962977,1,0,0,0.6167,optionLeft,45,6620,4,1,0,1,0,1,,,,,,,,,,,,,,,,,,,,,,,,,,,,,,,,,,,,,,,
,,,,,,,,2023-08-06_08h26.51.929,HF_wild_card,2022.2.4,Win32,59.75857536,5ebd791a7cba9305f147ed96,64ce5acb97489d65b14ecc7a,64cf4b26b39c03fcda8334c6,,,,,,,sngl,resources/DR.BMP,resources/Empty.png,Door1,-0.266666667,-0.109259288,1,0,0,0.6806,optionLeft,30,6650,4,2,0,2,0,1,,,,,,,,,,,,,,,,,,,,,,,,,,,,,,,,,,,,,,,
,,,,,,,,2023-08-06_08h26.51.929,HF_wild_card,2022.2.4,Win32,59.75857536,5ebd791a7cba9305f147ed96,64ce5acb97489d65b14ecc7a,64cf4b26b39c03fcda8334c6,,,,,,,decisionTrl,resources/DB.BMP,resources/DY.BMP,WildCard_NonEx,0.409259288,-0.094444444,1,0,0,0.5255,optionRight,45,6695,4,3,0,3,0,1,,,,,,,,,,,,,,,,,,,,,,,,,,,,,,,,,,,,,,,
,,,,,,,,2023-08-06_08h26.51.929,HF_wild_card,2022.2.4,Win32,59.75857536,5ebd791a7cba9305f147ed96,64ce5acb97489d65b14ecc7a,64cf4b26b39c03fcda8334c6,,,,,,,sngl,resources/DBN.BMP,resources/Empty.png,Door2,-0.257407379,-0.041666667,1,0,0,0.5805,optionLeft,20,6715,4,4,0,4,0,1,,,,,,,,,,,,,,,,,,,,,,,,,,,,,,,,,,,,,,,
,,,,,,,,2023-08-06_08h26.51.929,HF_wild_card,2022.2.4,Win32,59.75857536,5ebd791a7cba9305f147ed96,64ce5acb97489d65b14ecc7a,64cf4b26b39c03fcda8334c6,,,,,,,decisionTrl,resources/DB.BMP,resources/DP.BMP,Door3,-0.263888889,-0.093518533,1,0,0,0.7131,optionLeft,70,6785,4,5,0,5,0,1,,,,,,,,,,,,,,,,,,,,,,,,,,,,,,,,,,,,,,,
,,,,,,,,2023-08-06_08h26.51.929,HF_wild_card,2022.2.4,Win32,59.75857536,5ebd791a7cba9305f147ed96,64ce5acb97489d65b14ecc7a,64cf4b26b39c03fcda8334c6,,,,,,,decisionTrl,resources/DY.BMP,resources/DP.BMP,Door4,0.410185242,-0.022222222,1,0,0,0.6649,optionRight,80,6865,4,6,0,6,0,1,,,,,,,,,,,,,,,,,,,,,,,,,,,,,,,,,,,,,,,
,,,,,,,,2023-08-06_08h26.51.929,HF_wild_card,2022.2.4,Win32,59.75857536,5ebd791a7cba9305f147ed96,64ce5acb97489d65b14ecc7a,64cf4b26b39c03fcda8334c6,,,,,,,decisionTrl,resources/DBN.BMP,resources/DR.BMP,Door1,0.247222222,-0.078703732,1,0,0,0.7843,optionRight,30,6895,4,7,0,7,0,1,,,,,,,,,,,,,,,,,,,,,,,,,,,,,,,,,,,,,,,
,,,,,,,,2023-08-06_08h26.51.929,HF_wild_card,2022.2.4,Win32,59.75857536,5ebd791a7cba9305f147ed96,64ce5acb97489d65b14ecc7a,64cf4b26b39c03fcda8334c6,,,,,,,decisionTrl,resources/DP.BMP,resources/DY.BMP,Door4,-0.255555556,-0.012962977,1,0,0,0.5041,optionLeft,60,6955,4,8,0,8,0,1,,,,,,,,,,,,,,,,,,,,,,,,,,,,,,,,,,,,,,,
,,,,,,,,2023-08-06_08h26.51.929,HF_wild_card,2022.2.4,Win32,59.75857536,5ebd791a7cba9305f147ed96,64ce5acb97489d65b14ecc7a,64cf4b26b39c03fcda8334c6,,,,,,,ctch,resources/DB.BMP,resources/DBN.BMP,Door2,0.212963019,-0.063888889,1,0,0,0.697,optionRight,20,6975,4,9,0,9,0,1,,,,,,,,,,,,,,,,,,,,,,,,,,,,,,,,,,,,,,,
,,,,,,,,2023-08-06_08h26.51.929,HF_wild_card,2022.2.4,Win32,59.75857536,5ebd791a7cba9305f147ed96,64ce5acb97489d65b14ecc7a,64cf4b26b39c03fcda8334c6,,,,,,,decisionTrl,resources/DR.BMP,resources/DBN.BMP,Door1,-0.362037023,-0.084259288,1,0,0,0.6028,optionLeft,30,7005,4,10,0,10,0,1,,,,,,,,,,,,,,,,,,,,,,,,,,,,,,,,,,,,,,,
,,,,,,,,2023-08-06_08h26.51.929,HF_wild_card,2022.2.4,Win32,59.75857536,5ebd791a7cba9305f147ed96,64ce5acb97489d65b14ecc7a,64cf4b26b39c03fcda8334c6,,,,,,,sngl,resources/DY.BMP,resources/Empty.png,WildCard_NonEx,-0.175925869,-0.045370399,1,0,0,0.768,optionLeft,55,7060,4,11,0,11,0,1,,,,,,,,,,,,,,,,,,,,,,,,,,,,,,,,,,,,,,,
,,,,,,,,2023-08-06_08h26.51.929,HF_wild_card,2022.2.4,Win32,59.75857536,5ebd791a7cba9305f147ed96,64ce5acb97489d65b14ecc7a,64cf4b26b39c03fcda8334c6,,,,,,,sngl,resources/Empty.png,resources/DB.BMP,Door3,0.316666667,-0.076851866,1,0,0,0.5466,optionRight,70,7130,4,12,0,12,0,1,,,,,,,,,,,,,,,,,,,,,,,,,,,,,,,,,,,,,,,
,,,,,,,,2023-08-06_08h26.51.929,HF_wild_card,2022.2.4,Win32,59.75857536,5ebd791a7cba9305f147ed96,64ce5acb97489d65b14ecc7a,64cf4b26b39c03fcda8334c6,,,,,,,sngl,resources/Empty.png,resources/DY.BMP,WildCard_NonEx,0.377777778,-0.1,1,0,0,0.5822,optionRight,45,7175,4,13,0,13,0,1,,,,,,,,,,,,,,,,,,,,,,,,,,,,,,,,,,,,,,,
,,,,,,,,2023-08-06_08h26.51.929,HF_wild_card,2022.2.4,Win32,59.75857536,5ebd791a7cba9305f147ed96,64ce5acb97489d65b14ecc7a,64cf4b26b39c03fcda8334c6,,,,,,,decisionTrl,resources/DB.BMP,resources/DP.BMP,Door3,-0.348148134,-0.05648151,1,0,0,0.5519,optionLeft,70,7245,4,14,0,14,0,1,,,,,,,,,,,,,,,,,,,,,,,,,,,,,,,,,,,,,,,
,,,,,,,,2023-08-06_08h26.51.929,HF_wild_card,2022.2.4,Win32,59.75857536,5ebd791a7cba9305f147ed96,64ce5acb97489d65b14ecc7a,64cf4b26b39c03fcda8334c6,,,,,,,ctch,resources/DBN.BMP,resources/DB.BMP,Door3,0.317592621,-0.025,1,0,0,0.6253,optionRight,70,7315,4,15,0,15,0,1,,,,,,,,,,,,,,,,,,,,,,,,,,,,,,,,,,,,,,,
,,,,,,,,2023-08-06_08h26.51.929,HF_wild_card,2022.2.4,Win32,59.75857536,5ebd791a7cba9305f147ed96,64ce5acb97489d65b14ecc7a,64cf4b26b39c03fcda8334c6,,,,,,,decisionTrl,resources/DP.BMP,resources/DB.BMP,Door4,-0.179629601,-0.049074088,1,0,0,0.5448,optionLeft,80,7395,4,16,0,16,0,1,,,,,,,,,,,,,,,,,,,,,,,,,,,,,,,,,,,,,,,
,,,,,,,,2023-08-06_08h26.51.929,HF_wild_card,2022.2.4,Win32,59.75857536,5ebd791a7cba9305f147ed96,64ce5acb97489d65b14ecc7a,64cf4b26b39c03fcda8334c6,,,,,,,decisionTrl,resources/DY.BMP,resources/DBN.BMP,WildCard_NonEx,-0.338888889,-0.090740755,1,0,0,0.9695,optionLeft,45,7440,4,17,0,17,0,1,,,,,,,,,,,,,,,,,,,,,,,,,,,,,,,,,,,,,,,
,,,,,,,,2023-08-06_08h26.51.929,HF_wild_card,2022.2.4,Win32,59.75857536,5ebd791a7cba9305f147ed96,64ce5acb97489d65b14ecc7a,64cf4b26b39c03fcda8334c6,,,,,,,decisionTrl,resources/DBN.BMP,resources/DR.BMP,Door2,-0.408333333,-0.113888889,1,0,0,0.8507,optionLeft,40,7480,4,18,0,18,0,1,,,,,,,,,,,,,,,,,,,,,,,,,,,,,,,,,,,,,,,
,,,,,,,,2023-08-06_08h26.51.929,HF_wild_card,2022.2.4,Win32,59.75857536,5ebd791a7cba9305f147ed96,64ce5acb97489d65b14ecc7a,64cf4b26b39c03fcda8334c6,,,,,,,ctch,resources/DR.BMP,resources/DP.BMP,Door4,0.610185242,-0.015740755,1,0,0,1.1177,optionRight,80,7560,4,19,0,19,0,1,,,,,,,,,,,,,,,,,,,,,,,,,,,,,,,,,,,,,,,
,,,,,,,,2023-08-06_08h26.51.929,HF_wild_card,2022.2.4,Win32,59.75857536,5ebd791a7cba9305f147ed96,64ce5acb97489d65b14ecc7a,64cf4b26b39c03fcda8334c6,,,,,,,decisionTrl,resources/DP.BMP,resources/DB.BMP,Door4,-0.412037023,-0.108333333,1,0,0,0.5736,optionLeft,80,7640,4,20,0,20,0,1,,,,,,,,,,,,,,,,,,,,,,,,,,,,,,,,,,,,,,,
,,,,,,,,2023-08-06_08h26.51.929,HF_wild_card,2022.2.4,Win32,59.75857536,5ebd791a7cba9305f147ed96,64ce5acb97489d65b14ecc7a,64cf4b26b39c03fcda8334c6,,,,,,,decisionTrl,resources/DBN.BMP,resources/DR.BMP,Door1,0.409259288,-0.064814843,1,0,0,0.7105,optionRight,30,7670,4,21,0,21,0,1,,,,,,,,,,,,,,,,,,,,,,,,,,,,,,,,,,,,,,,
,,,,,,,,2023-08-06_08h26.51.929,HF_wild_card,2022.2.4,Win32,59.75857536,5ebd791a7cba9305f147ed96,64ce5acb97489d65b14ecc7a,64cf4b26b39c03fcda8334c6,,,,,,,decisionTrl,resources/DBN.BMP,resources/DY.BMP,WildCard_NonEx,0.307407464,-0.016666667,1,0,0,0.7947,optionRight,55,7725,4,22,0,22,0,1,,,,,,,,,,,,,,,,,,,,,,,,,,,,,,,,,,,,,,,
,,,,,,,,2023-08-06_08h26.51.929,HF_wild_card,2022.2.4,Win32,59.75857536,5ebd791a7cba9305f147ed96,64ce5acb97489d65b14ecc7a,64cf4b26b39c03fcda8334c6,,,,,,,ctch,resources/DB.BMP,resources/DBN.BMP,Door3,-0.459259245,-0.100925954,1,0,0,0.5554,optionLeft,70,7795,4,23,0,23,0,1,,,,,,,,,,,,,,,,,,,,,,,,,,,,,,,,,,,,,,,
,,,,,,,,2023-08-06_08h26.51.929,HF_wild_card,2022.2.4,Win32,59.75857536,5ebd791a7cba9305f147ed96,64ce5acb97489d65b14ecc7a,64cf4b26b39c03fcda8334c6,,,,,,,sngl,resources/DB.BMP,resources/Empty.png,Door3,-0.252777778,-0.118518533,1,0,0,0.528,optionLeft,70,7865,4,24,0,24,0,1,,,,,,,,,,,,,,,,,,,,,,,,,,,,,,,,,,,,,,,
,,,,,,,,2023-08-06_08h26.51.929,HF_wild_card,2022.2.4,Win32,59.75857536,5ebd791a7cba9305f147ed96,64ce5acb97489d65b14ecc7a,64cf4b26b39c03fcda8334c6,,,,,,,ctch,resources/DR.BMP,resources/DP.BMP,Door4,0.343518575,-0.014814843,1,0,0,1.6964,optionRight,80,7945,4,25,0,25,0,1,,,,,,,,,,,,,,,,,,,,,,,,,,,,,,,,,,,,,,,
,,,,,,,,2023-08-06_08h26.51.929,HF_wild_card,2022.2.4,Win32,59.75857536,5ebd791a7cba9305f147ed96,64ce5acb97489d65b14ecc7a,64cf4b26b39c03fcda8334c6,,,,,,,decisionTrl,resources/DP.BMP,resources/DB.BMP,Door4,-0.344444444,-0.138888889,1,0,0,0.5646,optionLeft,80,8025,4,26,0,26,0,1,,,,,,,,,,,,,,,,,,,,,,,,,,,,,,,,,,,,,,,
,,,,,,,,2023-08-06_08h26.51.929,HF_wild_card,2022.2.4,Win32,59.75857536,5ebd791a7cba9305f147ed96,64ce5acb97489d65b14ecc7a,64cf4b26b39c03fcda8334c6,,,,,,,sngl,resources/DP.BMP,resources/Empty.png,Door4,-0.223148134,-0.065740755,1,0,0,0.5531,optionLeft,60,8085,4,27,0,27,0,1,,,,,,,,,,,,,,,,,,,,,,,,,,,,,,,,,,,,,,,
,,,,,,,,2023-08-06_08h26.51.929,HF_wild_card,2022.2.4,Win32,59.75857536,5ebd791a7cba9305f147ed96,64ce5acb97489d65b14ecc7a,64cf4b26b39c03fcda8334c6,,,,,,,sngl,resources/DY.BMP,resources/Empty.png,WildCard_NonEx,-0.215740712,-0.098148176,1,0,0,0.6339,optionLeft,45,8130,4,28,0,28,0,1,,,,,,,,,,,,,,,,,,,,,,,,,,,,,,,,,,,,,,,
,,,,,,,,2023-08-06_08h26.51.929,HF_wild_card,2022.2.4,Win32,59.75857536,5ebd791a7cba9305f147ed96,64ce5acb97489d65b14ecc7a,64cf4b26b39c03fcda8334c6,,,,,,,decisionTrl,resources/DP.BMP,resources/DB.BMP,Door4,-0.30370369,-0.147222222,1,0,0,0.6016,optionLeft,80,8210,4,29,0,29,0,1,,,,,,,,,,,,,,,,,,,,,,,,,,,,,,,,,,,,,,,
,,,,,,,,2023-08-06_08h26.51.929,HF_wild_card,2022.2.4,Win32,59.75857536,5ebd791a7cba9305f147ed96,64ce5acb97489d65b14ecc7a,64cf4b26b39c03fcda8334c6,,,,,,,decisionTrl,resources/DB.BMP,resources/DP.BMP,Door4,0.337037065,-0.089814843,1,0,0,0.6312,optionRight,80,8290,4,30,0,30,0,1,,,,,,,,,,,,,,,,,,,,,,,,,,,,,,,,,,,,,,,
,,,,,,,,2023-08-06_08h26.51.929,HF_wild_card,2022.2.4,Win32,59.75857536,5ebd791a7cba9305f147ed96,64ce5acb97489d65b14ecc7a,64cf4b26b39c03fcda8334c6,,,,,,,sngl,resources/Empty.png,resources/DR.BMP,Door1,0.366666667,-0.002777778,1,0,0,0.5443,optionRight,30,8320,4,31,0,31,0,1,,,,,,,,,,,,,,,,,,,,,,,,,,,,,,,,,,,,,,,
,,,,,,,,2023-08-06_08h26.51.929,HF_wild_card,2022.2.4,Win32,59.75857536,5ebd791a7cba9305f147ed96,64ce5acb97489d65b14ecc7a,64cf4b26b39c03fcda8334c6,,,,,,,sngl,resources/Empty.png,resources/DY.BMP,WildCard_NonEx,0.385185242,-0.086111111,1,0,0,0.5902,optionRight,55,8375,4,32,0,32,0,1,,,,,,,,,,,,,,,,,,,,,,,,,,,,,,,,,,,,,,,
,,,,,,,,2023-08-06_08h26.51.929,HF_wild_card,2022.2.4,Win32,59.75857536,5ebd791a7cba9305f147ed96,64ce5acb97489d65b14ecc7a,64cf4b26b39c03fcda8334c6,,,,,,,sngl,resources/Empty.png,resources/DBN.BMP,Door2,0.462963019,-0.05,1,0,0,0.537,optionRight,40,8415,4,33,0,33,0,1,,,,,,,,,,,,,,,,,,,,,,,,,,,,,,,,,,,,,,,
,,,,,,,,2023-08-06_08h26.51.929,HF_wild_card,2022.2.4,Win32,59.75857536,5ebd791a7cba9305f147ed96,64ce5acb97489d65b14ecc7a,64cf4b26b39c03fcda8334c6,,,,,,,ctch,resources/DP.BMP,resources/DR.BMP,Door4,-0.221296268,-0.062962977,1,0,0,0.624,optionLeft,80,8495,4,34,0,34,0,1,,,,,,,,,,,,,,,,,,,,,,,,,,,,,,,,,,,,,,,
,,,,,,,,2023-08-06_08h26.51.929,HF_wild_card,2022.2.4,Win32,59.75857536,5ebd791a7cba9305f147ed96,64ce5acb97489d65b14ecc7a,64cf4b26b39c03fcda8334c6,,,,,,,sngl,resources/Empty.png,resources/DP.BMP,Door4,0.274074131,-0.039814843,1,0,0,0.5401,optionRight,80,8575,4,35,0,35,0,1,,,,,,,,,,,,,,,,,,,,,,,,,,,,,,,,,,,,,,,
,,,,,,,,2023-08-06_08h26.51.929,HF_wild_card,2022.2.4,Win32,59.75857536,5ebd791a7cba9305f147ed96,64ce5acb97489d65b14ecc7a,64cf4b26b39c03fcda8334c6,,,,,,,decisionTrl,resources/DY.BMP,resources/DR.BMP,WildCard_NonEx,-0.355555556,-0.149074088,1,0,0,0.578,optionLeft,45,8620,4,36,0,36,0,1,,,,,,,,,,,,,,,,,,,,,,,,,,,,,,,,,,,,,,,
,,,,,,,,2023-08-06_08h26.51.929,HF_wild_card,2022.2.4,Win32,59.75857536,5ebd791a7cba9305f147ed96,64ce5acb97489d65b14ecc7a,64cf4b26b39c03fcda8334c6,,,,,,,decisionTrl,resources/DBN.BMP,resources/DR.BMP,Door1,0.245370399,-0.073148176,1,0,0,0.7108,optionRight,30,8650,4,37,0,37,0,1,,,,,,,,,,,,,,,,,,,,,,,,,,,,,,,,,,,,,,,
,,,,,,,,2023-08-06_08h26.51.929,HF_wild_card,2022.2.4,Win32,59.75857536,5ebd791a7cba9305f147ed96,64ce5acb97489d65b14ecc7a,64cf4b26b39c03fcda8334c6,,,,,,,decisionTrl,resources/DB.BMP,resources/DP.BMP,Door4,0.318518575,-0.012962977,1,0,0,0.6969,optionRight,80,8730,4,38,0,38,0,1,,,,,,,,,,,,,,,,,,,,,,,,,,,,,,,,,,,,,,,
,,,,,,,,2023-08-06_08h26.51.929,HF_wild_card,2022.2.4,Win32,59.75857536,5ebd791a7cba9305f147ed96,64ce5acb97489d65b14ecc7a,64cf4b26b39c03fcda8334c6,,,,,,,decisionTrl,resources/DR.BMP,resources/DY.BMP,Door1,-0.29351849,-0.077777778,1,0,0,1.1066,optionLeft,30,8760,4,39,0,39,0,1,,,,,,,,,,,,,,,,,,,,,,,,,,,,,,,,,,,,,,,
,,,,,,,,2023-08-06_08h26.51.929,HF_wild_card,2022.2.4,Win32,59.75857536,5ebd791a7cba9305f147ed96,64ce5acb97489d65b14ecc7a,64cf4b26b39c03fcda8334c6,,,,,,,decisionTrl,resources/DR.BMP,resources/DBN.BMP,Door1,-0.287037023,-0.108333333,1,0,0,0.6166,optionLeft,30,8790,4,40,0,40,0,1,,,,,,,,,,,,,,,,,,,,,,,,,,,,,,,,,,,,,,,
,,,,,,,,2023-08-06_08h26.51.929,HF_wild_card,2022.2.4,Win32,59.75857536,5ebd791a7cba9305f147ed96,64ce5acb97489d65b14ecc7a,64cf4b26b39c03fcda8334c6,,,,,,,decisionTrl,resources/DR.BMP,resources/DBN.BMP,Door1,-0.411111111,-0.164814843,1,0,0,0.7701,optionLeft,30,8820,4,41,0,41,0,1,,,,,,,,,,,,,,,,,,,,,,,,,,,,,,,,,,,,,,,
,,,,,,,,2023-08-06_08h26.51.929,HF_wild_card,2022.2.4,Win32,59.75857536,5ebd791a7cba9305f147ed96,64ce5acb97489d65b14ecc7a,64cf4b26b39c03fcda8334c6,,,,,,,ctch,resources/DP.BMP,resources/DR.BMP,Door4,-0.348148134,-0.143518533,1,0,0,0.873,optionLeft,60,8880,4,42,0,42,0,1,,,,,,,,,,,,,,,,,,,,,,,,,,,,,,,,,,,,,,,
,,,,,,,,2023-08-06_08h26.51.929,HF_wild_card,2022.2.4,Win32,59.75857536,5ebd791a7cba9305f147ed96,64ce5acb97489d65b14ecc7a,64cf4b26b39c03fcda8334c6,,,,,,,decisionTrl,resources/DR.BMP,resources/DBN.BMP,Door1,-0.300925912,-0.108333333,1,0,0,0.7474,optionLeft,30,8910,4,43,0,43,0,1,,,,,,,,,,,,,,,,,,,,,,,,,,,,,,,,,,,,,,,
,,,,,,,,2023-08-06_08h26.51.929,HF_wild_card,2022.2.4,Win32,59.75857536,5ebd791a7cba9305f147ed96,64ce5acb97489d65b14ecc7a,64cf4b26b39c03fcda8334c6,,,,,,,,,,,,,,,,,,,,,,,,,,3,0,3,0,1,,,,,,,,,,,,,,,,,,,,,,,,,,,,,,,,,,
,,,,,,,,2023-08-06_08h26.51.929,HF_wild_card,2022.2.4,Win32,59.75857536,5ebd791a7cba9305f147ed96,64ce5acb97489d65b14ecc7a,64cf4b26b39c03fcda8334c6,,,,,,,decisionTrl,resources/DP.BMP,resources/DB.BMP,Door4,-0.146296268,-0.111111111,1,0,0,1.2262,optionLeft,60,8970,5,0,0,0,0,1,,,,,,,,,,,,,,,,,,,,,,,,,,,,,,,,,,,,,,,
,,,,,,,,2023-08-06_08h26.51.929,HF_wild_card,2022.2.4,Win32,59.75857536,5ebd791a7cba9305f147ed96,64ce5acb97489d65b14ecc7a,64cf4b26b39c03fcda8334c6,,,,,,,decisionTrl,resources/DBN.BMP,resources/DR.BMP,Door2,-0.375925912,-0.058333333,1,0,0,1.0458,optionLeft,40,9010,5,1,0,1,0,1,,,,,,,,,,,,,,,,,,,,,,,,,,,,,,,,,,,,,,,
,,,,,,,,2023-08-06_08h26.51.929,HF_wild_card,2022.2.4,Win32,59.75857536,5ebd791a7cba9305f147ed96,64ce5acb97489d65b14ecc7a,64cf4b26b39c03fcda8334c6,,,,,,,sngl,resources/Empty.png,resources/DY.BMP,WildCard_NonEx,0.294444444,-0.055555556,1,0,0,0.4881,optionRight,45,9055,5,2,0,2,0,1,,,,,,,,,,,,,,,,,,,,,,,,,,,,,,,,,,,,,,,
,,,,,,,,2023-08-06_08h26.51.929,HF_wild_card,2022.2.4,Win32,59.75857536,5ebd791a7cba9305f147ed96,64ce5acb97489d65b14ecc7a,64cf4b26b39c03fcda8334c6,,,,,,,decisionTrl,resources/DY.BMP,resources/DB.BMP,WildCard_NonEx,-0.175,-0.024074088,1,0,0,0.5384,optionLeft,55,9110,5,3,0,3,0,1,,,,,,,,,,,,,,,,,,,,,,,,,,,,,,,,,,,,,,,
,,,,,,,,2023-08-06_08h26.51.929,HF_wild_card,2022.2.4,Win32,59.75857536,5ebd791a7cba9305f147ed96,64ce5acb97489d65b14ecc7a,64cf4b26b39c03fcda8334c6,,,,,,,sngl,resources/Empty.png,resources/DBN.BMP,Door2,0.00648151,0.005555556,1,0,0,0.6411,optionRight,20,9130,5,4,0,4,0,1,,,,,,,,,,,,,,,,,,,,,,,,,,,,,,,,,,,,,,,
,,,,,,,,2023-08-06_08h26.51.929,HF_wild_card,2022.2.4,Win32,59.75857536,5ebd791a7cba9305f147ed96,64ce5acb97489d65b14ecc7a,64cf4b26b39c03fcda8334c6,,,,,,,decisionTrl,resources/DY.BMP,resources/DP.BMP,Door4,0.390740797,-0.154629644,1,0,0,1.2578,optionRight,80,9210,5,5,0,5,0,1,,,,,,,,,,,,,,,,,,,,,,,,,,,,,,,,,,,,,,,
,,,,,,,,2023-08-06_08h26.51.929,HF_wild_card,2022.2.4,Win32,59.75857536,5ebd791a7cba9305f147ed96,64ce5acb97489d65b14ecc7a,64cf4b26b39c03fcda8334c6,,,,,,,decisionTrl,resources/DR.BMP,resources/DY.BMP,Door1,-0.282407379,-0.073148176,1,0,0,0.7229,optionLeft,30,9240,5,6,0,6,0,1,,,,,,,,,,,,,,,,,,,,,,,,,,,,,,,,,,,,,,,
,,,,,,,,2023-08-06_08h26.51.929,HF_wild_card,2022.2.4,Win32,59.75857536,5ebd791a7cba9305f147ed96,64ce5acb97489d65b14ecc7a,64cf4b26b39c03fcda8334c6,,,,,,,sngl,resources/DR.BMP,resources/Empty.png,Door1,-0.370370356,-0.129629644,1,0,0,0.5679,optionLeft,30,9270,5,7,0,7,0,1,,,,,,,,,,,,,,,,,,,,,,,,,,,,,,,,,,,,,,,
,,,,,,,,2023-08-06_08h26.51.929,HF_wild_card,2022.2.4,Win32,59.75857536,5ebd791a7cba9305f147ed96,64ce5acb97489d65b14ecc7a,64cf4b26b39c03fcda8334c6,,,,,,,decisionTrl,resources/DR.BMP,resources/DBN.BMP,Door1,-0.258333333,-0.118518533,1,0,0,0.8885,optionLeft,30,9300,5,8,0,8,0,1,,,,,,,,,,,,,,,,,,,,,,,,,,,,,,,,,,,,,,,
,,,,,,,,2023-08-06_08h26.51.929,HF_wild_card,2022.2.4,Win32,59.75857536,5ebd791a7cba9305f147ed96,64ce5acb97489d65b14ecc7a,64cf4b26b39c03fcda8334c6,,,,,,,ctch,resources/DBN.BMP,resources/DB.BMP,Door2,-0.198148134,-0.094444444,1,0,0,0.6364,optionLeft,20,9320,5,9,0,9,0,1,,,,,,,,,,,,,,,,,,,,,,,,,,,,,,,,,,,,,,,
,,,,,,,,2023-08-06_08h26.51.929,HF_wild_card,2022.2.4,Win32,59.75857536,5ebd791a7cba9305f147ed96,64ce5acb97489d65b14ecc7a,64cf4b26b39c03fcda8334c6,,,,,,,decisionTrl,resources/DB.BMP,resources/DP.BMP,Door4,0.177777778,-0.142592621,1,0,0,1.4645,optionRight,80,9400,5,10,0,10,0,1,,,,,,,,,,,,,,,,,,,,,,,,,,,,,,,,,,,,,,,
,,,,,,,,2023-08-06_08h26.51.929,HF_wild_card,2022.2.4,Win32,59.75857536,5ebd791a7cba9305f147ed96,64ce5acb97489d65b14ecc7a,64cf4b26b39c03fcda8334c6,,,,,,,sngl,resources/DBN.BMP,resources/Empty.png,Door2,-0.209259245,-0.039814843,1,0,0,0.5673,optionLeft,40,9440,5,11,0,11,0,1,,,,,,,,,,,,,,,,,,,,,,,,,,,,,,,,,,,,,,,
,,,,,,,,2023-08-06_08h26.51.929,HF_wild_card,2022.2.4,Win32,59.75857536,5ebd791a7cba9305f147ed96,64ce5acb97489d65b14ecc7a,64cf4b26b39c03fcda8334c6,,,,,,,decisionTrl,resources/DR.BMP,resources/DBN.BMP,Door1,-0.411111111,-0.104629644,1,0,0,0.7631,optionLeft,30,9470,5,12,0,12,0,1,,,,,,,,,,,,,,,,,,,,,,,,,,,,,,,,,,,,,,,
,,,,,,,,2023-08-06_08h26.51.929,HF_wild_card,2022.2.4,Win32,59.75857536,5ebd791a7cba9305f147ed96,64ce5acb97489d65b14ecc7a,64cf4b26b39c03fcda8334c6,,,,,,,sngl,resources/Empty.png,resources/DP.BMP,Door4,0.379629686,-0.043518533,1,0,0,0.6285,optionRight,60,9530,5,13,0,13,0,1,,,,,,,,,,,,,,,,,,,,,,,,,,,,,,,,,,,,,,,
,,,,,,,,2023-08-06_08h26.51.929,HF_wild_card,2022.2.4,Win32,59.75857536,5ebd791a7cba9305f147ed96,64ce5acb97489d65b14ecc7a,64cf4b26b39c03fcda8334c6,,,,,,,ctch,resources/DB.BMP,resources/DBN.BMP,Door3,-0.361111111,-0.108333333,1,0,0,0.6371,optionLeft,70,9600,5,14,0,14,0,1,,,,,,,,,,,,,,,,,,,,,,,,,,,,,,,,,,,,,,,
,,,,,,,,2023-08-06_08h26.51.929,HF_wild_card,2022.2.4,Win32,59.75857536,5ebd791a7cba9305f147ed96,64ce5acb97489d65b14ecc7a,64cf4b26b39c03fcda8334c6,,,,,,,decisionTrl,resources/DY.BMP,resources/DBN.BMP,Door2,0.230555556,-0.162037065,1,0,0,1.5583,optionRight,20,9620,5,15,0,15,0,1,,,,,,,,,,,,,,,,,,,,,,,,,,,,,,,,,,,,,,,
,,,,,,,,2023-08-06_08h26.51.929,HF_wild_card,2022.2.4,Win32,59.75857536,5ebd791a7cba9305f147ed96,64ce5acb97489d65b14ecc7a,64cf4b26b39c03fcda8334c6,,,,,,,sngl,resources/Empty.png,resources/DR.BMP,Door1,0.218518575,-0.027777778,1,0,0,0.6239,optionRight,30,9650,5,16,0,16,0,1,,,,,,,,,,,,,,,,,,,,,,,,,,,,,,,,,,,,,,,
,,,,,,,,2023-08-06_08h26.51.929,HF_wild_card,2022.2.4,Win32,59.75857536,5ebd791a7cba9305f147ed96,64ce5acb97489d65b14ecc7a,64cf4b26b39c03fcda8334c6,,,,,,,decisionTrl,resources/DB.BMP,resources/DP.BMP,Door4,0.413888889,-0.043518533,1,0,0,1.1853,optionRight,80,9730,5,17,0,17,0,1,,,,,,,,,,,,,,,,,,,,,,,,,,,,,,,,,,,,,,,
,,,,,,,,2023-08-06_08h26.51.929,HF_wild_card,2022.2.4,Win32,59.75857536,5ebd791a7cba9305f147ed96,64ce5acb97489d65b14ecc7a,64cf4b26b39c03fcda8334c6,,,,,,,ctch,resources/DB.BMP,resources/DBN.BMP,Door3,-0.237037023,-0.051851866,1,0,0,0.6533,optionLeft,70,9800,5,18,0,18,0,1,,,,,,,,,,,,,,,,,,,,,,,,,,,,,,,,,,,,,,,
,,,,,,,,2023-08-06_08h26.51.929,HF_wild_card,2022.2.4,Win32,59.75857536,5ebd791a7cba9305f147ed96,64ce5acb97489d65b14ecc7a,64cf4b26b39c03fcda8334c6,,,,,,,ctch,resources/DR.BMP,resources/DP.BMP,Door4,0.334259288,-0.062037065,1,0,0,0.6153,optionRight,60,9860,5,19,0,19,0,1,,,,,,,,,,,,,,,,,,,,,,,,,,,,,,,,,,,,,,,
,,,,,,,,2023-08-06_08h26.51.929,HF_wild_card,2022.2.4,Win32,59.75857536,5ebd791a7cba9305f147ed96,64ce5acb97489d65b14ecc7a,64cf4b26b39c03fcda8334c6,,,,,,,sngl,resources/DY.BMP,resources/Empty.png,WildCard_NonEx,-0.365740712,-0.105555556,1,0,0,0.6467,optionLeft,55,9915,5,20,0,20,0,1,,,,,,,,,,,,,,,,,,,,,,,,,,,,,,,,,,,,,,,
,,,,,,,,2023-08-06_08h26.51.929,HF_wild_card,2022.2.4,Win32,59.75857536,5ebd791a7cba9305f147ed96,64ce5acb97489d65b14ecc7a,64cf4b26b39c03fcda8334c6,,,,,,,sngl,resources/DY.BMP,resources/Empty.png,WildCard_NonEx,-0.183333333,-0.05648151,1,0,0,0.5079,optionLeft,45,9960,5,21,0,21,0,1,,,,,,,,,,,,,,,,,,,,,,,,,,,,,,,,,,,,,,,
,,,,,,,,2023-08-06_08h26.51.929,HF_wild_card,2022.2.4,Win32,59.75857536,5ebd791a7cba9305f147ed96,64ce5acb97489d65b14ecc7a,64cf4b26b39c03fcda8334c6,,,,,,,decisionTrl,resources/DB.BMP,resources/DP.BMP,Door4,0.480555556,-0.051851866,1,0,0,0.5523,optionRight,80,10040,5,22,0,22,0,1,,,,,,,,,,,,,,,,,,,,,,,,,,,,,,,,,,,,,,,
,,,,,,,,2023-08-06_08h26.51.929,HF_wild_card,2022.2.4,Win32,59.75857536,5ebd791a7cba9305f147ed96,64ce5acb97489d65b14ecc7a,64cf4b26b39c03fcda8334c6,,,,,,,decisionTrl,resources/DY.BMP,resources/DR.BMP,Door1,0.344444444,-0.065740755,1,0,0,1.0465,optionRight,30,10070,5,23,0,23,0,1,,,,,,,,,,,,,,,,,,,,,,,,,,,,,,,,,,,,,,,
,,,,,,,,2023-08-06_08h26.51.929,HF_wild_card,2022.2.4,Win32,59.75857536,5ebd791a7cba9305f147ed96,64ce5acb97489d65b14ecc7a,64cf4b26b39c03fcda8334c6,,,,,,,sngl,resources/Empty.png,resources/DY.BMP,WildCard_NonEx,0.334259288,-0.052777778,1,0,0,0.6877,optionRight,55,10125,5,24,0,24,0,1,,,,,,,,,,,,,,,,,,,,,,,,,,,,,,,,,,,,,,,
,,,,,,,,2023-08-06_08h26.51.929,HF_wild_card,2022.2.4,Win32,59.75857536,5ebd791a7cba9305f147ed96,64ce5acb97489d65b14ecc7a,64cf4b26b39c03fcda8334c6,,,,,,,ctch,resources/DR.BMP,resources/DP.BMP,Door4,0.072222222,-0.012037065,1,0,0,0.7758,optionRight,60,10185,5,25,0,25,0,1,,,,,,,,,,,,,,,,,,,,,,,,,,,,,,,,,,,,,,,
,,,,,,,,2023-08-06_08h26.51.929,HF_wild_card,2022.2.4,Win32,59.75857536,5ebd791a7cba9305f147ed96,64ce5acb97489d65b14ecc7a,64cf4b26b39c03fcda8334c6,,,,,,,decisionTrl,resources/DP.BMP,resources/DB.BMP,Door4,-0.373148134,-0.10648151,1,0,0,0.5903,optionLeft,80,10265,5,26,0,26,0,1,,,,,,,,,,,,,,,,,,,,,,,,,,,,,,,,,,,,,,,
,,,,,,,,2023-08-06_08h26.51.929,HF_wild_card,2022.2.4,Win32,59.75857536,5ebd791a7cba9305f147ed96,64ce5acb97489d65b14ecc7a,64cf4b26b39c03fcda8334c6,,,,,,,decisionTrl,resources/DP.BMP,resources/DY.BMP,Door4,-0.244444444,-0.118518533,1,0,0,0.5655,optionLeft,60,10325,5,27,0,27,0,1,,,,,,,,,,,,,,,,,,,,,,,,,,,,,,,,,,,,,,,
,,,,,,,,2023-08-06_08h26.51.929,HF_wild_card,2022.2.4,Win32,59.75857536,5ebd791a7cba9305f147ed96,64ce5acb97489d65b14ecc7a,64cf4b26b39c03fcda8334c6,,,,,,,decisionTrl,resources/DP.BMP,resources/DB.BMP,Door4,-0.36851849,-0.157407422,1,0,0,0.7952,optionLeft,60,10385,5,28,0,28,0,1,,,,,,,,,,,,,,,,,,,,,,,,,,,,,,,,,,,,,,,
,,,,,,,,2023-08-06_08h26.51.929,HF_wild_card,2022.2.4,Win32,59.75857536,5ebd791a7cba9305f147ed96,64ce5acb97489d65b14ecc7a,64cf4b26b39c03fcda8334c6,,,,,,,ctch,resources/DP.BMP,resources/DR.BMP,Door4,-0.286111111,-0.127777778,1,0,0,0.5664,optionLeft,60,10445,5,29,0,29,0,1,,,,,,,,,,,,,,,,,,,,,,,,,,,,,,,,,,,,,,,
,,,,,,,,2023-08-06_08h26.51.929,HF_wild_card,2022.2.4,Win32,59.75857536,5ebd791a7cba9305f147ed96,64ce5acb97489d65b14ecc7a,64cf4b26b39c03fcda8334c6,,,,,,,decisionTrl,resources/DR.BMP,resources/DBN.BMP,Door2,0.263888889,-0.054629644,1,0,0,1.4993,optionRight,40,10485,5,30,0,30,0,1,,,,,,,,,,,,,,,,,,,,,,,,,,,,,,,,,,,,,,,
,,,,,,,,2023-08-06_08h26.51.929,HF_wild_card,2022.2.4,Win32,59.75857536,5ebd791a7cba9305f147ed96,64ce5acb97489d65b14ecc7a,64cf4b26b39c03fcda8334c6,,,,,,,decisionTrl,resources/DP.BMP,resources/DB.BMP,Door4,-0.29351849,-0.100925954,1,0,0,0.6214,optionLeft,80,10565,5,31,0,31,0,1,,,,,,,,,,,,,,,,,,,,,,,,,,,,,,,,,,,,,,,
,,,,,,,,2023-08-06_08h26.51.929,HF_wild_card,2022.2.4,Win32,59.75857536,5ebd791a7cba9305f147ed96,64ce5acb97489d65b14ecc7a,64cf4b26b39c03fcda8334c6,,,,,,,decisionTrl,resources/DBN.BMP,resources/DY.BMP,WildCard_NonEx,0.542592706,-0.132407422,1,0,0,1.7023,optionRight,55,10620,5,32,0,32,0,1,,,,,,,,,,,,,,,,,,,,,,,,,,,,,,,,,,,,,,,
,,,,,,,,2023-08-06_08h26.51.929,HF_wild_card,2022.2.4,Win32,59.75857536,5ebd791a7cba9305f147ed96,64ce5acb97489d65b14ecc7a,64cf4b26b39c03fcda8334c6,,,,,,,decisionTrl,resources/DR.BMP,resources/DBN.BMP,Door2,0.382407464,-0.089814843,1,0,0,1.3726,optionRight,40,10660,5,33,0,33,0,1,,,,,,,,,,,,,,,,,,,,,,,,,,,,,,,,,,,,,,,
,,,,,,,,2023-08-06_08h26.51.929,HF_wild_card,2022.2.4,Win32,59.75857536,5ebd791a7cba9305f147ed96,64ce5acb97489d65b14ecc7a,64cf4b26b39c03fcda8334c6,,,,,,,decisionTrl,resources/DBN.BMP,resources/DR.BMP,Door2,-0.161111111,-0.069444444,1,0,0,0.711,optionLeft,20,10680,5,34,0,34,0,1,,,,,,,,,,,,,,,,,,,,,,,,,,,,,,,,,,,,,,,
,,,,,,,,2023-08-06_08h26.51.929,HF_wild_card,2022.2.4,Win32,59.75857536,5ebd791a7cba9305f147ed96,64ce5acb97489d65b14ecc7a,64cf4b26b39c03fcda8334c6,,,,,,,sngl,resources/DB.BMP,resources/Empty.png,Door3,-0.222222222,-0.109259288,1,0,0,0.5231,optionLeft,70,10750,5,35,0,35,0,1,,,,,,,,,,,,,,,,,,,,,,,,,,,,,,,,,,,,,,,
,,,,,,,,2023-08-06_08h26.51.929,HF_wild_card,2022.2.4,Win32,59.75857536,5ebd791a7cba9305f147ed96,64ce5acb97489d65b14ecc7a,64cf4b26b39c03fcda8334c6,,,,,,,sngl,resources/DP.BMP,resources/Empty.png,Door4,-0.30370369,-0.152777778,1,0,0,0.5377,optionLeft,80,10830,5,36,0,36,0,1,,,,,,,,,,,,,,,,,,,,,,,,,,,,,,,,,,,,,,,
,,,,,,,,2023-08-06_08h26.51.929,HF_wild_card,2022.2.4,Win32,59.75857536,5ebd791a7cba9305f147ed96,64ce5acb97489d65b14ecc7a,64cf4b26b39c03fcda8334c6,,,,,,,decisionTrl,resources/DBN.BMP,resources/DR.BMP,Door2,-0.212037023,-0.175,1,0,0,1.3554,optionLeft,40,10870,5,37,0,37,0,1,,,,,,,,,,,,,,,,,,,,,,,,,,,,,,,,,,,,,,,
,,,,,,,,2023-08-06_08h26.51.929,HF_wild_card,2022.2.4,Win32,59.75857536,5ebd791a7cba9305f147ed96,64ce5acb97489d65b14ecc7a,64cf4b26b39c03fcda8334c6,,,,,,,decisionTrl,resources/DB.BMP,resources/DP.BMP,Door4,0.494444444,-0.086111111,1,0,0,0.8996,optionRight,60,10930,5,38,0,38,0,1,,,,,,,,,,,,,,,,,,,,,,,,,,,,,,,,,,,,,,,
,,,,,,,,2023-08-06_08h26.51.929,HF_wild_card,2022.2.4,Win32,59.75857536,5ebd791a7cba9305f147ed96,64ce5acb97489d65b14ecc7a,64cf4b26b39c03fcda8334c6,,,,,,,ctch,resources/DBN.BMP,resources/DB.BMP,Door3,0.208333333,-0.074074088,1,0,0,0.7561,optionRight,70,11000,5,39,0,39,0,1,,,,,,,,,,,,,,,,,,,,,,,,,,,,,,,,,,,,,,,
,,,,,,,,2023-08-06_08h26.51.929,HF_wild_card,2022.2.4,Win32,59.75857536,5ebd791a7cba9305f147ed96,64ce5acb97489d65b14ecc7a,64cf4b26b39c03fcda8334c6,,,,,,,sngl,resources/Empty.png,resources/DB.BMP,Door3,0.362037065,-0.107407422,1,0,0,0.4868,optionRight,70,11070,5,40,0,40,0,1,,,,,,,,,,,,,,,,,,,,,,,,,,,,,,,,,,,,,,,
,,,,,,,,2023-08-06_08h26.51.929,HF_wild_card,2022.2.4,Win32,59.75857536,5ebd791a7cba9305f147ed96,64ce5acb97489d65b14ecc7a,64cf4b26b39c03fcda8334c6,,,,,,,ctch,resources/DP.BMP,resources/DR.BMP,Door4,-0.171296268,-0.043518533,1,0,0,0.5408,optionLeft,80,11150,5,41,0,41,0,1,,,,,,,,,,,,,,,,,,,,,,,,,,,,,,,,,,,,,,,
,,,,,,,,2023-08-06_08h26.51.929,HF_wild_card,2022.2.4,Win32,59.75857536,5ebd791a7cba9305f147ed96,64ce5acb97489d65b14ecc7a,64cf4b26b39c03fcda8334c6,,,,,,,decisionTrl,resources/DBN.BMP,resources/DR.BMP,Door2,-0.381481467,-0.160185199,1,0,0,1.5208,optionLeft,20,11170,5,42,0,42,0,1,,,,,,,,,,,,,,,,,,,,,,,,,,,,,,,,,,,,,,,
,,,,,,,,2023-08-06_08h26.51.929,HF_wild_card,2022.2.4,Win32,59.75857536,5ebd791a7cba9305f147ed96,64ce5acb97489d65b14ecc7a,64cf4b26b39c03fcda8334c6,,,,,,,decisionTrl,resources/DB.BMP,resources/DY.BMP,Door3,-0.224074046,-0.137037065,1,0,0,0.5433,optionLeft,70,11240,5,43,0,43,0,1,,,,,,,,,,,,,,,,,,,,,,,,,,,,,,,,,,,,,,,
,,,,,,,,2023-08-06_08h26.51.929,HF_wild_card,2022.2.4,Win32,59.75857536,5ebd791a7cba9305f147ed96,64ce5acb97489d65b14ecc7a,64cf4b26b39c03fcda8334c6,,,,,,,,,,,,,,,,,,,,,,,,,,4,0,4,0,1,,,,,,,,,,,,,,,,,,,,,,,,,,,,,,,,,,
,,,,,,,,2023-08-06_08h26.51.929,HF_wild_card,2022.2.4,Win32,59.75857536,5ebd791a7cba9305f147ed96,64ce5acb97489d65b14ecc7a,64cf4b26b39c03fcda8334c6,,,,,,,decisionTrl,resources/DY.BMP,resources/DP.BMP,Door4,0.412037065,-0.050925954,1,0,0,0.7033,optionRight,60,11300,6,0,0,0,0,1,,,,,,,,,,,,,,,,,,,,,,,,,,,,,,,,,,,,,,,
,,,,,,,,2023-08-06_08h26.51.929,HF_wild_card,2022.2.4,Win32,59.75857536,5ebd791a7cba9305f147ed96,64ce5acb97489d65b14ecc7a,64cf4b26b39c03fcda8334c6,,,,,,,decisionTrl,resources/DR.BMP,resources/DBN.BMP,Door1,-0.275925912,-0.132407422,1,0,0,0.567,optionLeft,30,11330,6,1,0,1,0,1,,,,,,,,,,,,,,,,,,,,,,,,,,,,,,,,,,,,,,,
,,,,,,,,2023-08-06_08h26.51.929,HF_wild_card,2022.2.4,Win32,59.75857536,5ebd791a7cba9305f147ed96,64ce5acb97489d65b14ecc7a,64cf4b26b39c03fcda8334c6,,,,,,,decisionTrl,resources/DR.BMP,resources/DBN.BMP,Door1,-0.001851824,-0.000925954,1,0,0,0.664,optionLeft,30,11360,6,2,0,2,0,1,,,,,,,,,,,,,,,,,,,,,,,,,,,,,,,,,,,,,,,
,,,,,,,,2023-08-06_08h26.51.929,HF_wild_card,2022.2.4,Win32,59.75857536,5ebd791a7cba9305f147ed96,64ce5acb97489d65b14ecc7a,64cf4b26b39c03fcda8334c6,,,,,,,sngl,resources/Empty.png,resources/DP.BMP,Door4,0.393518575,0,1,0,0,0.5218,optionRight,80,11440,6,3,0,3,0,1,,,,,,,,,,,,,,,,,,,,,,,,,,,,,,,,,,,,,,,
,,,,,,,,2023-08-06_08h26.51.929,HF_wild_card,2022.2.4,Win32,59.75857536,5ebd791a7cba9305f147ed96,64ce5acb97489d65b14ecc7a,64cf4b26b39c03fcda8334c6,,,,,,,sngl,resources/Empty.png,resources/DR.BMP,Door1,0.347222222,-0.022222222,1,0,0,0.5171,optionRight,30,11470,6,4,0,4,0,1,,,,,,,,,,,,,,,,,,,,,,,,,,,,,,,,,,,,,,,
,,,,,,,,2023-08-06_08h26.51.929,HF_wild_card,2022.2.4,Win32,59.75857536,5ebd791a7cba9305f147ed96,64ce5acb97489d65b14ecc7a,64cf4b26b39c03fcda8334c6,,,,,,,decisionTrl,resources/DBN.BMP,resources/DR.BMP,Door2,-0.371296268,-0.114814843,1,0,0,1.3485,optionLeft,40,11510,6,5,0,5,0,1,,,,,,,,,,,,,,,,,,,,,,,,,,,,,,,,,,,,,,,
,,,,,,,,2023-08-06_08h26.51.929,HF_wild_card,2022.2.4,Win32,59.75857536,5ebd791a7cba9305f147ed96,64ce5acb97489d65b14ecc7a,64cf4b26b39c03fcda8334c6,,,,,,,decisionTrl,resources/DP.BMP,resources/DB.BMP,Door4,-0.201851824,-0.037962977,1,0,0,0.6987,optionLeft,80,11590,6,6,0,6,0,1,,,,,,,,,,,,,,,,,,,,,,,,,,,,,,,,,,,,,,,
,,,,,,,,2023-08-06_08h26.51.929,HF_wild_card,2022.2.4,Win32,59.75857536,5ebd791a7cba9305f147ed96,64ce5acb97489d65b14ecc7a,64cf4b26b39c03fcda8334c6,,,,,,,decisionTrl,resources/DB.BMP,resources/DP.BMP,Door4,0.373148176,-0.05,1,0,0,0.6687,optionRight,80,11670,6,7,0,7,0,1,,,,,,,,,,,,,,,,,,,,,,,,,,,,,,,,,,,,,,,
,,,,,,,,2023-08-06_08h26.51.929,HF_wild_card,2022.2.4,Win32,59.75857536,5ebd791a7cba9305f147ed96,64ce5acb97489d65b14ecc7a,64cf4b26b39c03fcda8334c6,,,,,,,decisionTrl,resources/DP.BMP,resources/DB.BMP,Door4,-0.179629601,-0.016666667,1,0,0,0.5459,optionLeft,80,11750,6,8,0,8,0,1,,,,,,,,,,,,,,,,,,,,,,,,,,,,,,,,,,,,,,,
,,,,,,,,2023-08-06_08h26.51.929,HF_wild_card,2022.2.4,Win32,59.75857536,5ebd791a7cba9305f147ed96,64ce5acb97489d65b14ecc7a,64cf4b26b39c03fcda8334c6,,,,,,,sngl,resources/DP.BMP,resources/Empty.png,Door4,-0.363888889,-0.09629631,1,0,0,1.0104,optionLeft,60,11810,6,9,0,9,0,1,,,,,,,,,,,,,,,,,,,,,,,,,,,,,,,,,,,,,,,
,,,,,,,,2023-08-06_08h26.51.929,HF_wild_card,2022.2.4,Win32,59.75857536,5ebd791a7cba9305f147ed96,64ce5acb97489d65b14ecc7a,64cf4b26b39c03fcda8334c6,,,,,,,ctch,resources/DP.BMP,resources/DR.BMP,Door4,-0.358333333,-0.236111111,1,0,0,0.5885,optionLeft,80,11890,6,10,0,10,0,1,,,,,,,,,,,,,,,,,,,,,,,,,,,,,,,,,,,,,,,
,,,,,,,,2023-08-06_08h26.51.929,HF_wild_card,2022.2.4,Win32,59.75857536,5ebd791a7cba9305f147ed96,64ce5acb97489d65b14ecc7a,64cf4b26b39c03fcda8334c6,,,,,,,decisionTrl,resources/DR.BMP,resources/DBN.BMP,Door2,0.328703732,-0.000925954,1,0,0,1.1609,optionRight,20,11910,6,11,0,11,0,1,,,,,,,,,,,,,,,,,,,,,,,,,,,,,,,,,,,,,,,
,,,,,,,,2023-08-06_08h26.51.929,HF_wild_card,2022.2.4,Win32,59.75857536,5ebd791a7cba9305f147ed96,64ce5acb97489d65b14ecc7a,64cf4b26b39c03fcda8334c6,,,,,,,sngl,resources/DBN.BMP,resources/Empty.png,Door2,-0.271296268,-0.08148151,1,0,0,0.6118,optionLeft,20,11930,6,12,0,12,0,1,,,,,,,,,,,,,,,,,,,,,,,,,,,,,,,,,,,,,,,
,,,,,,,,2023-08-06_08h26.51.929,HF_wild_card,2022.2.4,Win32,59.75857536,5ebd791a7cba9305f147ed96,64ce5acb97489d65b14ecc7a,64cf4b26b39c03fcda8334c6,,,,,,,decisionTrl,resources/DBN.BMP,resources/DR.BMP,Door1,0.403703732,-0.030555556,1,0,0,0.9561,optionRight,30,11960,6,13,0,13,0,1,,,,,,,,,,,,,,,,,,,,,,,,,,,,,,,,,,,,,,,
,,,,,,,,2023-08-06_08h26.51.929,HF_wild_card,2022.2.4,Win32,59.75857536,5ebd791a7cba9305f147ed96,64ce5acb97489d65b14ecc7a,64cf4b26b39c03fcda8334c6,,,,,,,sngl,resources/DB.BMP,resources/Empty.png,Door3,-0.175925869,-0.012037065,1,0,0,0.5396,optionLeft,70,12030,6,14,0,14,0,1,,,,,,,,,,,,,,,,,,,,,,,,,,,,,,,,,,,,,,,
,,,,,,,,2023-08-06_08h26.51.929,HF_wild_card,2022.2.4,Win32,59.75857536,5ebd791a7cba9305f147ed96,64ce5acb97489d65b14ecc7a,64cf4b26b39c03fcda8334c6,,,,,,,decisionTrl,resources/DP.BMP,resources/DY.BMP,Door4,-0.207407379,-0.084259288,1,0,0,1.0946,optionLeft,60,12090,6,15,0,15,0,1,,,,,,,,,,,,,,,,,,,,,,,,,,,,,,,,,,,,,,,
,,,,,,,,2023-08-06_08h26.51.929,HF_wild_card,2022.2.4,Win32,59.75857536,5ebd791a7cba9305f147ed96,64ce5acb97489d65b14ecc7a,64cf4b26b39c03fcda8334c6,,,,,,,decisionTrl,resources/DB.BMP,resources/DP.BMP,Door4,0.263888889,-0.083333333,1,0,0,0.8603,optionRight,80,12170,6,16,0,16,0,1,,,,,,,,,,,,,,,,,,,,,,,,,,,,,,,,,,,,,,,
,,,,,,,,2023-08-06_08h26.51.929,HF_wild_card,2022.2.4,Win32,59.75857536,5ebd791a7cba9305f147ed96,64ce5acb97489d65b14ecc7a,64cf4b26b39c03fcda8334c6,,,,,,,decisionTrl,resources/DY.BMP,resources/DR.BMP,WildCard_NonEx,-0.4,-0.101851866,1,0,0,1.3802,optionLeft,45,12215,6,17,0,17,0,1,,,,,,,,,,,,,,,,,,,,,,,,,,,,,,,,,,,,,,,
,,,,,,,,2023-08-06_08h26.51.929,HF_wild_card,2022.2.4,Win32,59.75857536,5ebd791a7cba9305f147ed96,64ce5acb97489d65b14ecc7a,64cf4b26b39c03fcda8334c6,,,,,,,decisionTrl,resources/DB.BMP,resources/DY.BMP,Door3,-0.408333333,-0.085185199,1,0,0,1.2208,optionLeft,70,12285,6,18,0,18,0,1,,,,,,,,,,,,,,,,,,,,,,,,,,,,,,,,,,,,,,,
,,,,,,,,2023-08-06_08h26.51.929,HF_wild_card,2022.2.4,Win32,59.75857536,5ebd791a7cba9305f147ed96,64ce5acb97489d65b14ecc7a,64cf4b26b39c03fcda8334c6,,,,,,,decisionTrl,resources/DP.BMP,resources/DB.BMP,Door4,-0.352777778,-0.105555556,1,0,0,0.9177,optionLeft,80,12365,6,19,0,19,0,1,,,,,,,,,,,,,,,,,,,,,,,,,,,,,,,,,,,,,,,
,,,,,,,,2023-08-06_08h26.51.929,HF_wild_card,2022.2.4,Win32,59.75857536,5ebd791a7cba9305f147ed96,64ce5acb97489d65b14ecc7a,64cf4b26b39c03fcda8334c6,,,,,,,decisionTrl,resources/DP.BMP,resources/DB.BMP,Door4,-0.313888889,-0.172222222,1,0,0,0.5966,optionLeft,80,12445,6,20,0,20,0,1,,,,,,,,,,,,,,,,,,,,,,,,,,,,,,,,,,,,,,,
,,,,,,,,2023-08-06_08h26.51.929,HF_wild_card,2022.2.4,Win32,59.75857536,5ebd791a7cba9305f147ed96,64ce5acb97489d65b14ecc7a,64cf4b26b39c03fcda8334c6,,,,,,,decisionTrl,resources/DY.BMP,resources/DBN.BMP,WildCard_NonEx,-0.209259245,-0.132407422,1,0,0,1.1214,optionLeft,55,12500,6,21,0,21,0,1,,,,,,,,,,,,,,,,,,,,,,,,,,,,,,,,,,,,,,,
,,,,,,,,2023-08-06_08h26.51.929,HF_wild_card,2022.2.4,Win32,59.75857536,5ebd791a7cba9305f147ed96,64ce5acb97489d65b14ecc7a,64cf4b26b39c03fcda8334c6,,,,,,,decisionTrl,resources/DB.BMP,resources/DP.BMP,Door4,0.387963019,-0.024074088,1,0,0,0.7174,optionRight,80,12580,6,22,0,22,0,1,,,,,,,,,,,,,,,,,,,,,,,,,,,,,,,,,,,,,,,
,,,,,,,,2023-08-06_08h26.51.929,HF_wild_card,2022.2.4,Win32,59.75857536,5ebd791a7cba9305f147ed96,64ce5acb97489d65b14ecc7a,64cf4b26b39c03fcda8334c6,,,,,,,decisionTrl,resources/DBN.BMP,resources/DR.BMP,Door2,-0.169444444,-0.109259288,1,0,0,1.1104,optionLeft,40,12620,6,23,0,23,0,1,,,,,,,,,,,,,,,,,,,,,,,,,,,,,,,,,,,,,,,
,,,,,,,,2023-08-06_08h26.51.929,HF_wild_card,2022.2.4,Win32,59.75857536,5ebd791a7cba9305f147ed96,64ce5acb97489d65b14ecc7a,64cf4b26b39c03fcda8334c6,,,,,,,ctch,resources/DP.BMP,resources/DR.BMP,Door4,-0.199074046,-0.102777778,1,0,0,0.6497,optionLeft,60,12680,6,24,0,24,0,1,,,,,,,,,,,,,,,,,,,,,,,,,,,,,,,,,,,,,,,
,,,,,,,,2023-08-06_08h26.51.929,HF_wild_card,2022.2.4,Win32,59.75857536,5ebd791a7cba9305f147ed96,64ce5acb97489d65b14ecc7a,64cf4b26b39c03fcda8334c6,,,,,,,ctch,resources/DBN.BMP,resources/DB.BMP,Door3,0.427777778,-0.063888889,1,0,0,0.6196,optionRight,70,12750,6,25,0,25,0,1,,,,,,,,,,,,,,,,,,,,,,,,,,,,,,,,,,,,,,,
,,,,,,,,2023-08-06_08h26.51.929,HF_wild_card,2022.2.4,Win32,59.75857536,5ebd791a7cba9305f147ed96,64ce5acb97489d65b14ecc7a,64cf4b26b39c03fcda8334c6,,,,,,,sngl,resources/DY.BMP,resources/Empty.png,WildCard_NonEx,-0.195370356,-0.039814843,1,0,0,0.5887,optionLeft,45,12795,6,26,0,26,0,1,,,,,,,,,,,,,,,,,,,,,,,,,,,,,,,,,,,,,,,
,,,,,,,,2023-08-06_08h26.51.929,HF_wild_card,2022.2.4,Win32,59.75857536,5ebd791a7cba9305f147ed96,64ce5acb97489d65b14ecc7a,64cf4b26b39c03fcda8334c6,,,,,,,ctch,resources/DB.BMP,resources/DBN.BMP,Door3,-0.196296268,-0.089814843,1,0,0,1.0866,optionLeft,70,12865,6,27,0,27,0,1,,,,,,,,,,,,,,,,,,,,,,,,,,,,,,,,,,,,,,,
,,,,,,,,2023-08-06_08h26.51.929,HF_wild_card,2022.2.4,Win32,59.75857536,5ebd791a7cba9305f147ed96,64ce5acb97489d65b14ecc7a,64cf4b26b39c03fcda8334c6,,,,,,,decisionTrl,resources/DBN.BMP,resources/DY.BMP,WildCard_NonEx,0.042592621,0.002777778,1,0,0,0.7024,optionRight,45,12910,6,28,0,28,0,1,,,,,,,,,,,,,,,,,,,,,,,,,,,,,,,,,,,,,,,
,,,,,,,,2023-08-06_08h26.51.929,HF_wild_card,2022.2.4,Win32,59.75857536,5ebd791a7cba9305f147ed96,64ce5acb97489d65b14ecc7a,64cf4b26b39c03fcda8334c6,,,,,,,sngl,resources/Empty.png,resources/DB.BMP,Door3,0.342592621,-0.084259288,1,0,0,0.6354,optionRight,70,12980,6,29,0,29,0,1,,,,,,,,,,,,,,,,,,,,,,,,,,,,,,,,,,,,,,,
,,,,,,,,2023-08-06_08h26.51.929,HF_wild_card,2022.2.4,Win32,59.75857536,5ebd791a7cba9305f147ed96,64ce5acb97489d65b14ecc7a,64cf4b26b39c03fcda8334c6,,,,,,,sngl,resources/DR.BMP,resources/Empty.png,Door1,-0.235185157,-0.029629644,1,0,0,0.5461,optionLeft,30,13010,6,30,0,30,0,1,,,,,,,,,,,,,,,,,,,,,,,,,,,,,,,,,,,,,,,
,,,,,,,,2023-08-06_08h26.51.929,HF_wild_card,2022.2.4,Win32,59.75857536,5ebd791a7cba9305f147ed96,64ce5acb97489d65b14ecc7a,64cf4b26b39c03fcda8334c6,,,,,,,sngl,resources/Empty.png,resources/DBN.BMP,Door2,0.247222222,-0.05,1,0,0,0.4557,optionRight,40,13050,6,31,0,31,0,1,,,,,,,,,,,,,,,,,,,,,,,,,,,,,,,,,,,,,,,
,,,,,,,,2023-08-06_08h26.51.929,HF_wild_card,2022.2.4,Win32,59.75857536,5ebd791a7cba9305f147ed96,64ce5acb97489d65b14ecc7a,64cf4b26b39c03fcda8334c6,,,,,,,ctch,resources/DR.BMP,resources/DP.BMP,Door4,0.397222222,-0.144444444,1,0,0,0.9495,optionRight,60,13110,6,32,0,32,0,1,,,,,,,,,,,,,,,,,,,,,,,,,,,,,,,,,,,,,,,
,,,,,,,,2023-08-06_08h26.51.929,HF_wild_card,2022.2.4,Win32,59.75857536,5ebd791a7cba9305f147ed96,64ce5acb97489d65b14ecc7a,64cf4b26b39c03fcda8334c6,,,,,,,decisionTrl,resources/DB.BMP,resources/DP.BMP,Door4,0.218518575,-0.08148151,1,0,0,0.5915,optionRight,80,13190,6,33,0,33,0,1,,,,,,,,,,,,,,,,,,,,,,,,,,,,,,,,,,,,,,,
,,,,,,,,2023-08-06_08h26.51.929,HF_wild_card,2022.2.4,Win32,59.75857536,5ebd791a7cba9305f147ed96,64ce5acb97489d65b14ecc7a,64cf4b26b39c03fcda8334c6,,,,,,,sngl,resources/Empty.png,resources/DY.BMP,WildCard_NonEx,0.172222222,-0.043518533,1,0,0,0.4981,optionRight,45,13235,6,34,0,34,0,1,,,,,,,,,,,,,,,,,,,,,,,,,,,,,,,,,,,,,,,
,,,,,,,,2023-08-06_08h26.51.929,HF_wild_card,2022.2.4,Win32,59.75857536,5ebd791a7cba9305f147ed96,64ce5acb97489d65b14ecc7a,64cf4b26b39c03fcda8334c6,,,,,,,ctch,resources/DR.BMP,resources/DP.BMP,Door4,0.260185242,-0.082407422,1,0,0,0.502,optionRight,80,13315,6,35,0,35,0,1,,,,,,,,,,,,,,,,,,,,,,,,,,,,,,,,,,,,,,,
,,,,,,,,2023-08-06_08h26.51.929,HF_wild_card,2022.2.4,Win32,59.75857536,5ebd791a7cba9305f147ed96,64ce5acb97489d65b14ecc7a,64cf4b26b39c03fcda8334c6,,,,,,,ctch,resources/DB.BMP,resources/DBN.BMP,Door3,-0.257407379,-0.039814843,1,0,0,0.5592,optionLeft,70,13385,6,36,0,36,0,1,,,,,,,,,,,,,,,,,,,,,,,,,,,,,,,,,,,,,,,
,,,,,,,,2023-08-06_08h26.51.929,HF_wild_card,2022.2.4,Win32,59.75857536,5ebd791a7cba9305f147ed96,64ce5acb97489d65b14ecc7a,64cf4b26b39c03fcda8334c6,,,,,,,ctch,resources/DBN.BMP,resources/DB.BMP,Door3,0.40648151,-0.032407422,1,0,0,0.5079,optionRight,70,13455,6,37,0,37,0,1,,,,,,,,,,,,,,,,,,,,,,,,,,,,,,,,,,,,,,,
,,,,,,,,2023-08-06_08h26.51.929,HF_wild_card,2022.2.4,Win32,59.75857536,5ebd791a7cba9305f147ed96,64ce5acb97489d65b14ecc7a,64cf4b26b39c03fcda8334c6,,,,,,,sngl,resources/DY.BMP,resources/Empty.png,WildCard_NonEx,-0.306481467,-0.029629644,1,0,0,0.4953,optionLeft,55,13510,6,38,0,38,0,1,,,,,,,,,,,,,,,,,,,,,,,,,,,,,,,,,,,,,,,
,,,,,,,,2023-08-06_08h26.51.929,HF_wild_card,2022.2.4,Win32,59.75857536,5ebd791a7cba9305f147ed96,64ce5acb97489d65b14ecc7a,64cf4b26b39c03fcda8334c6,,,,,,,sngl,resources/Empty.png,resources/DY.BMP,WildCard_NonEx,0.369444444,-0.108333333,1,0,0,0.5326,optionRight,55,13565,6,39,0,39,0,1,,,,,,,,,,,,,,,,,,,,,,,,,,,,,,,,,,,,,,,
,,,,,,,,2023-08-06_08h26.51.929,HF_wild_card,2022.2.4,Win32,59.75857536,5ebd791a7cba9305f147ed96,64ce5acb97489d65b14ecc7a,64cf4b26b39c03fcda8334c6,,,,,,,decisionTrl,resources/DR.BMP,resources/DBN.BMP,Door1,-0.375925912,-0.098148176,1,0,0,0.5139,optionLeft,30,13595,6,40,0,40,0,1,,,,,,,,,,,,,,,,,,,,,,,,,,,,,,,,,,,,,,,
,,,,,,,,2023-08-06_08h26.51.929,HF_wild_card,2022.2.4,Win32,59.75857536,5ebd791a7cba9305f147ed96,64ce5acb97489d65b14ecc7a,64cf4b26b39c03fcda8334c6,,,,,,,decisionTrl,resources/DY.BMP,resources/DB.BMP,Door3,0.275925954,-0.094444444,1,0,0,1.2727,optionRight,70,13665,6,41,0,41,0,1,,,,,,,,,,,,,,,,,,,,,,,,,,,,,,,,,,,,,,,
,,,,,,,,2023-08-06_08h26.51.929,HF_wild_card,2022.2.4,Win32,59.75857536,5ebd791a7cba9305f147ed96,64ce5acb97489d65b14ecc7a,64cf4b26b39c03fcda8334c6,,,,,,,decisionTrl,resources/DR.BMP,resources/DY.BMP,WildCard_NonEx,0.191666667,-0.011111111,1,0,0,1.0593,optionRight,45,13710,6,42,0,42,0,1,,,,,,,,,,,,,,,,,,,,,,,,,,,,,,,,,,,,,,,
,,,,,,,,2023-08-06_08h26.51.929,HF_wild_card,2022.2.4,Win32,59.75857536,5ebd791a7cba9305f147ed96,64ce5acb97489d65b14ecc7a,64cf4b26b39c03fcda8334c6,,,,,,,decisionTrl,resources/DBN.BMP,resources/DR.BMP,Door1,0.462037065,-0.010185199,1,0,0,1.0275,optionRight,30,13740,6,43,0,43,0,1,,,,,,,,,,,,,,,,,,,,,,,,,,,,,,,,,,,,,,,
,,,,,,,,2023-08-06_08h26.51.929,HF_wild_card,2022.2.4,Win32,59.75857536,5ebd791a7cba9305f147ed96,64ce5acb97489d65b14ecc7a,64cf4b26b39c03fcda8334c6,,,,,,,,,,,,,,,,,,,,,,,,,,5,0,5,0,1,,,,,,,,,,,,,,,,,,,,,,,,,,,,,,,,,,
,,,,,,,,2023-08-06_08h26.51.929,HF_wild_card,2022.2.4,Win32,59.75857536,5ebd791a7cba9305f147ed96,64ce5acb97489d65b14ecc7a,64cf4b26b39c03fcda8334c6,,,,,,,ctch,resources/DR.BMP,resources/DP.BMP,Door4,0.437037065,-0.190740755,1,0,0,1.1871,optionRight,80,13820,7,0,0,0,0,1,,,,,,,,,,,,,,,,,,,,,,,,,,,,,,,,,,,,,,,
,,,,,,,,2023-08-06_08h26.51.929,HF_wild_card,2022.2.4,Win32,59.75857536,5ebd791a7cba9305f147ed96,64ce5acb97489d65b14ecc7a,64cf4b26b39c03fcda8334c6,,,,,,,decisionTrl,resources/DB.BMP,resources/DP.BMP,Door4,0.296296353,-0.083333333,1,0,0,1.1605,optionRight,60,13880,7,1,0,1,0,1,,,,,,,,,,,,,,,,,,,,,,,,,,,,,,,,,,,,,,,
,,,,,,,,2023-08-06_08h26.51.929,HF_wild_card,2022.2.4,Win32,59.75857536,5ebd791a7cba9305f147ed96,64ce5acb97489d65b14ecc7a,64cf4b26b39c03fcda8334c6,,,,,,,ctch,resources/DP.BMP,resources/DR.BMP,Door4,-0.339814801,-0.101851866,1,0,0,0.8568,optionLeft,60,13940,7,2,0,2,0,1,,,,,,,,,,,,,,,,,,,,,,,,,,,,,,,,,,,,,,,
,,,,,,,,2023-08-06_08h26.51.929,HF_wild_card,2022.2.4,Win32,59.75857536,5ebd791a7cba9305f147ed96,64ce5acb97489d65b14ecc7a,64cf4b26b39c03fcda8334c6,,,,,,,decisionTrl,resources/DP.BMP,resources/DB.BMP,Door4,-0.310185157,-0.175,1,0,0,0.5428,optionLeft,80,14020,7,3,0,3,0,1,,,,,,,,,,,,,,,,,,,,,,,,,,,,,,,,,,,,,,,
,,,,,,,,2023-08-06_08h26.51.929,HF_wild_card,2022.2.4,Win32,59.75857536,5ebd791a7cba9305f147ed96,64ce5acb97489d65b14ecc7a,64cf4b26b39c03fcda8334c6,,,,,,,decisionTrl,resources/DBN.BMP,resources/DR.BMP,Door1,0.176851908,-0.012037065,1,0,0,0.974,optionRight,30,14050,7,4,0,4,0,1,,,,,,,,,,,,,,,,,,,,,,,,,,,,,,,,,,,,,,,
,,,,,,,,2023-08-06_08h26.51.929,HF_wild_card,2022.2.4,Win32,59.75857536,5ebd791a7cba9305f147ed96,64ce5acb97489d65b14ecc7a,64cf4b26b39c03fcda8334c6,,,,,,,ctch,resources/DBN.BMP,resources/DB.BMP,Door2,-0.285185157,-0.143518533,1,0,0,0.5812,optionLeft,40,14090,7,5,0,5,0,1,,,,,,,,,,,,,,,,,,,,,,,,,,,,,,,,,,,,,,,
,,,,,,,,2023-08-06_08h26.51.929,HF_wild_card,2022.2.4,Win32,59.75857536,5ebd791a7cba9305f147ed96,64ce5acb97489d65b14ecc7a,64cf4b26b39c03fcda8334c6,,,,,,,decisionTrl,resources/DBN.BMP,resources/DR.BMP,Door2,-0.201851824,-0.117592621,1,0,0,0.9268,optionLeft,40,14130,7,6,0,6,0,1,,,,,,,,,,,,,,,,,,,,,,,,,,,,,,,,,,,,,,,
,,,,,,,,2023-08-06_08h26.51.929,HF_wild_card,2022.2.4,Win32,59.75857536,5ebd791a7cba9305f147ed96,64ce5acb97489d65b14ecc7a,64cf4b26b39c03fcda8334c6,,,,,,,ctch,resources/DP.BMP,resources/DR.BMP,Door4,-0.244444444,-0.168518533,1,0,0,0.6905,optionLeft,80,14210,7,7,0,7,0,1,,,,,,,,,,,,,,,,,,,,,,,,,,,,,,,,,,,,,,,
,,,,,,,,2023-08-06_08h26.51.929,HF_wild_card,2022.2.4,Win32,59.75857536,5ebd791a7cba9305f147ed96,64ce5acb97489d65b14ecc7a,64cf4b26b39c03fcda8334c6,,,,,,,decisionTrl,resources/DP.BMP,resources/DB.BMP,Door4,-0.312037023,-0.238888889,1,0,0,0.741,optionLeft,60,14270,7,8,0,8,0,1,,,,,,,,,,,,,,,,,,,,,,,,,,,,,,,,,,,,,,,
,,,,,,,,2023-08-06_08h26.51.929,HF_wild_card,2022.2.4,Win32,59.75857536,5ebd791a7cba9305f147ed96,64ce5acb97489d65b14ecc7a,64cf4b26b39c03fcda8334c6,,,,,,,decisionTrl,resources/DB.BMP,resources/DP.BMP,Door4,0.268518575,-0.072222222,1,0,0,0.6434,optionRight,60,14330,7,9,0,9,0,1,,,,,,,,,,,,,,,,,,,,,,,,,,,,,,,,,,,,,,,
,,,,,,,,2023-08-06_08h26.51.929,HF_wild_card,2022.2.4,Win32,59.75857536,5ebd791a7cba9305f147ed96,64ce5acb97489d65b14ecc7a,64cf4b26b39c03fcda8334c6,,,,,,,ctch,resources/DP.BMP,resources/DR.BMP,Door4,-0.238888889,-0.172222222,1,0,0,0.8428,optionLeft,80,14410,7,10,0,10,0,1,,,,,,,,,,,,,,,,,,,,,,,,,,,,,,,,,,,,,,,
,,,,,,,,2023-08-06_08h26.51.929,HF_wild_card,2022.2.4,Win32,59.75857536,5ebd791a7cba9305f147ed96,64ce5acb97489d65b14ecc7a,64cf4b26b39c03fcda8334c6,,,,,,,decisionTrl,resources/DR.BMP,resources/DBN.BMP,Door2,0.283333333,-0.116666667,1,0,0,1.1414,optionRight,40,14450,7,11,0,11,0,1,,,,,,,,,,,,,,,,,,,,,,,,,,,,,,,,,,,,,,,
,,,,,,,,2023-08-06_08h26.51.929,HF_wild_card,2022.2.4,Win32,59.75857536,5ebd791a7cba9305f147ed96,64ce5acb97489d65b14ecc7a,64cf4b26b39c03fcda8334c6,,,,,,,ctch,resources/DBN.BMP,resources/DB.BMP,Door2,-0.142592536,-0.055555556,1,0,0,0.8639,optionLeft,20,14470,7,12,0,12,0,1,,,,,,,,,,,,,,,,,,,,,,,,,,,,,,,,,,,,,,,
,,,,,,,,2023-08-06_08h26.51.929,HF_wild_card,2022.2.4,Win32,59.75857536,5ebd791a7cba9305f147ed96,64ce5acb97489d65b14ecc7a,64cf4b26b39c03fcda8334c6,,,,,,,decisionTrl,resources/DP.BMP,resources/DB.BMP,Door4,-0.162036981,-0.127777778,1,0,0,1.2256,optionLeft,60,14530,7,13,0,13,0,1,,,,,,,,,,,,,,,,,,,,,,,,,,,,,,,,,,,,,,,
,,,,,,,,2023-08-06_08h26.51.929,HF_wild_card,2022.2.4,Win32,59.75857536,5ebd791a7cba9305f147ed96,64ce5acb97489d65b14ecc7a,64cf4b26b39c03fcda8334c6,,,,,,,decisionTrl,resources/DBN.BMP,resources/DR.BMP,Door2,-0.070370314,-0.033333333,1,0,0,0.9898,optionLeft,40,14570,7,14,0,14,0,1,,,,,,,,,,,,,,,,,,,,,,,,,,,,,,,,,,,,,,,
,,,,,,,,2023-08-06_08h26.51.929,HF_wild_card,2022.2.4,Win32,59.75857536,5ebd791a7cba9305f147ed96,64ce5acb97489d65b14ecc7a,64cf4b26b39c03fcda8334c6,,,,,,,decisionTrl,resources/DBN.BMP,resources/DR.BMP,Door2,-0.235185157,-0.084259288,1,0,0,0.6101,optionLeft,20,14590,7,15,0,15,0,1,,,,,,,,,,,,,,,,,,,,,,,,,,,,,,,,,,,,,,,
,,,,,,,,2023-08-06_08h26.51.929,HF_wild_card,2022.2.4,Win32,59.75857536,5ebd791a7cba9305f147ed96,64ce5acb97489d65b14ecc7a,64cf4b26b39c03fcda8334c6,,,,,,,decisionTrl,resources/DP.BMP,resources/DB.BMP,Door4,-0.238888889,-0.15,1,0,0,0.6924,optionLeft,80,14670,7,16,0,16,0,1,,,,,,,,,,,,,,,,,,,,,,,,,,,,,,,,,,,,,,,
,,,,,,,,2023-08-06_08h26.51.929,HF_wild_card,2022.2.4,Win32,59.75857536,5ebd791a7cba9305f147ed96,64ce5acb97489d65b14ecc7a,64cf4b26b39c03fcda8334c6,,,,,,,decisionTrl,resources/DP.BMP,resources/DB.BMP,Door4,-0.162962935,-0.052777778,1,0,0,0.8769,optionLeft,60,14730,7,17,0,17,0,1,,,,,,,,,,,,,,,,,,,,,,,,,,,,,,,,,,,,,,,
,,,,,,,,2023-08-06_08h26.51.929,HF_wild_card,2022.2.4,Win32,59.75857536,5ebd791a7cba9305f147ed96,64ce5acb97489d65b14ecc7a,64cf4b26b39c03fcda8334c6,,,,,,,decisionTrl,resources/DR.BMP,resources/DBN.BMP,Door2,0.245370399,-0.122222222,1,0,0,1.0415,optionRight,20,14750,7,18,0,18,0,1,,,,,,,,,,,,,,,,,,,,,,,,,,,,,,,,,,,,,,,
,,,,,,,,2023-08-06_08h26.51.929,HF_wild_card,2022.2.4,Win32,59.75857536,5ebd791a7cba9305f147ed96,64ce5acb97489d65b14ecc7a,64cf4b26b39c03fcda8334c6,,,,,,,ctch,resources/DBN.BMP,resources/DB.BMP,Door3,0.341666667,-0.105555556,1,0,0,1.2417,optionRight,70,14820,7,19,0,19,0,1,,,,,,,,,,,,,,,,,,,,,,,,,,,,,,,,,,,,,,,
,,,,,,,,2023-08-06_08h26.51.929,HF_wild_card,2022.2.4,Win32,59.75857536,5ebd791a7cba9305f147ed96,64ce5acb97489d65b14ecc7a,64cf4b26b39c03fcda8334c6,,,,,,,decisionTrl,resources/DR.BMP,resources/DBN.BMP,Door2,0.439814843,-0.000925954,1,0,0,0.9426,optionRight,20,14840,7,20,0,20,0,1,,,,,,,,,,,,,,,,,,,,,,,,,,,,,,,,,,,,,,,
,,,,,,,,2023-08-06_08h26.51.929,HF_wild_card,2022.2.4,Win32,59.75857536,5ebd791a7cba9305f147ed96,64ce5acb97489d65b14ecc7a,64cf4b26b39c03fcda8334c6,,,,,,,decisionTrl,resources/DR.BMP,resources/DBN.BMP,Door2,0.464814843,-0.048148176,1,0,0,0.657,optionRight,40,14880,7,21,0,21,0,1,,,,,,,,,,,,,,,,,,,,,,,,,,,,,,,,,,,,,,,
,,,,,,,,2023-08-06_08h26.51.929,HF_wild_card,2022.2.4,Win32,59.75857536,5ebd791a7cba9305f147ed96,64ce5acb97489d65b14ecc7a,64cf4b26b39c03fcda8334c6,,,,,,,decisionTrl,resources/DBN.BMP,resources/DR.BMP,Door2,-0.153703647,-0.114814843,1,0,0,0.9612,optionLeft,40,14920,7,22,0,22,0,1,,,,,,,,,,,,,,,,,,,,,,,,,,,,,,,,,,,,,,,
,,,,,,,,2023-08-06_08h26.51.929,HF_wild_card,2022.2.4,Win32,59.75857536,5ebd791a7cba9305f147ed96,64ce5acb97489d65b14ecc7a,64cf4b26b39c03fcda8334c6,,,,,,,ctch,resources/DB.BMP,resources/DBN.BMP,Door3,-0.176851824,-0.12129631,1,0,0,0.8936,optionLeft,70,14990,7,23,0,23,0,1,,,,,,,,,,,,,,,,,,,,,,,,,,,,,,,,,,,,,,,
,,,,,,,,2023-08-06_08h26.51.929,HF_wild_card,2022.2.4,Win32,59.75857536,5ebd791a7cba9305f147ed96,64ce5acb97489d65b14ecc7a,64cf4b26b39c03fcda8334c6,,,,,,,ctch,resources/DB.BMP,resources/DBN.BMP,Door3,-0.222222222,-0.125,1,0,0,0.5248,optionLeft,70,15060,7,24,0,24,0,1,,,,,,,,,,,,,,,,,,,,,,,,,,,,,,,,,,,,,,,
,,,,,,,,2023-08-06_08h26.51.929,HF_wild_card,2022.2.4,Win32,59.75857536,5ebd791a7cba9305f147ed96,64ce5acb97489d65b14ecc7a,64cf4b26b39c03fcda8334c6,,,,,,,decisionTrl,resources/DP.BMP,resources/DB.BMP,Door4,-0.262962935,-0.139814843,1,0,0,0.6599,optionLeft,80,15140,7,25,0,25,0,1,,,,,,,,,,,,,,,,,,,,,,,,,,,,,,,,,,,,,,,
,,,,,,,,2023-08-06_08h26.51.929,HF_wild_card,2022.2.4,Win32,59.75857536,5ebd791a7cba9305f147ed96,64ce5acb97489d65b14ecc7a,64cf4b26b39c03fcda8334c6,,,,,,,ctch,resources/DB.BMP,resources/DBN.BMP,Door3,-0.29351849,-0.167592621,1,0,0,1.3252,optionLeft,70,15210,7,26,0,26,0,1,,,,,,,,,,,,,,,,,,,,,,,,,,,,,,,,,,,,,,,
,,,,,,,,2023-08-06_08h26.51.929,HF_wild_card,2022.2.4,Win32,59.75857536,5ebd791a7cba9305f147ed96,64ce5acb97489d65b14ecc7a,64cf4b26b39c03fcda8334c6,,,,,,,decisionTrl,resources/DBN.BMP,resources/DR.BMP,Door2,-0.332407379,-0.132407422,1,0,0,0.8155,optionLeft,40,15250,7,27,0,27,0,1,,,,,,,,,,,,,,,,,,,,,,,,,,,,,,,,,,,,,,,
,,,,,,,,2023-08-06_08h26.51.929,HF_wild_card,2022.2.4,Win32,59.75857536,5ebd791a7cba9305f147ed96,64ce5acb97489d65b14ecc7a,64cf4b26b39c03fcda8334c6,,,,,,,ctch,resources/DR.BMP,resources/DP.BMP,Door4,0.337963019,-0.036111111,1,0,0,0.7158,optionRight,80,15330,7,28,0,28,0,1,,,,,,,,,,,,,,,,,,,,,,,,,,,,,,,,,,,,,,,
,,,,,,,,2023-08-06_08h26.51.929,HF_wild_card,2022.2.4,Win32,59.75857536,5ebd791a7cba9305f147ed96,64ce5acb97489d65b14ecc7a,64cf4b26b39c03fcda8334c6,,,,,,,decisionTrl,resources/DR.BMP,resources/DBN.BMP,Door2,0.332407464,-0.000925954,1,0,0,1.5246,optionRight,40,15370,7,29,0,29,0,1,,,,,,,,,,,,,,,,,,,,,,,,,,,,,,,,,,,,,,,
,,,,,,,,2023-08-06_08h26.51.929,HF_wild_card,2022.2.4,Win32,59.75857536,5ebd791a7cba9305f147ed96,64ce5acb97489d65b14ecc7a,64cf4b26b39c03fcda8334c6,,,,,,,decisionTrl,resources/DB.BMP,resources/DP.BMP,Door4,0.308333333,-0.060185199,1,0,0,0.7094,optionRight,60,15430,7,30,0,30,0,1,,,,,,,,,,,,,,,,,,,,,,,,,,,,,,,,,,,,,,,
,,,,,,,,2023-08-06_08h26.51.929,HF_wild_card,2022.2.4,Win32,59.75857536,5ebd791a7cba9305f147ed96,64ce5acb97489d65b14ecc7a,64cf4b26b39c03fcda8334c6,,,,,,,decisionTrl,resources/DB.BMP,resources/DP.BMP,Door4,0.310185242,-0.070370399,1,0,0,0.5622,optionRight,60,15490,7,31,0,31,0,1,,,,,,,,,,,,,,,,,,,,,,,,,,,,,,,,,,,,,,,
,,,,,,,,2023-08-06_08h26.51.929,HF_wild_card,2022.2.4,Win32,59.75857536,5ebd791a7cba9305f147ed96,64ce5acb97489d65b14ecc7a,64cf4b26b39c03fcda8334c6,,,,,,,decisionTrl,resources/DR.BMP,resources/DBN.BMP,Door2,0.222222222,-0.051851866,1,0,0,0.9869,optionRight,40,15530,7,32,0,32,0,1,,,,,,,,,,,,,,,,,,,,,,,,,,,,,,,,,,,,,,,
,,,,,,,,2023-08-06_08h26.51.929,HF_wild_card,2022.2.4,Win32,59.75857536,5ebd791a7cba9305f147ed96,64ce5acb97489d65b14ecc7a,64cf4b26b39c03fcda8334c6,,,,,,,decisionTrl,resources/DB.BMP,resources/DP.BMP,Door4,0.330555556,-0.076851866,1,0,0,0.7604,optionRight,60,15590,7,33,0,33,0,1,,,,,,,,,,,,,,,,,,,,,,,,,,,,,,,,,,,,,,,
,,,,,,,,2023-08-06_08h26.51.929,HF_wild_card,2022.2.4,Win32,59.75857536,5ebd791a7cba9305f147ed96,64ce5acb97489d65b14ecc7a,64cf4b26b39c03fcda8334c6,,,,,,,ctch,resources/DR.BMP,resources/DP.BMP,Door4,0.388888889,-0.100925954,1,0,0,0.5433,optionRight,80,15670,7,34,0,34,0,1,,,,,,,,,,,,,,,,,,,,,,,,,,,,,,,,,,,,,,,
,,,,,,,,2023-08-06_08h26.51.929,HF_wild_card,2022.2.4,Win32,59.75857536,5ebd791a7cba9305f147ed96,64ce5acb97489d65b14ecc7a,64cf4b26b39c03fcda8334c6,,,,,,,decisionTrl,resources/DB.BMP,resources/DP.BMP,Door4,0.259259288,-0.037037065,1,0,0,0.5485,optionRight,60,15730,7,35,0,35,0,1,,,,,,,,,,,,,,,,,,,,,,,,,,,,,,,,,,,,,,,
,,,,,,,,2023-08-06_08h26.51.929,HF_wild_card,2022.2.4,Win32,59.75857536,5ebd791a7cba9305f147ed96,64ce5acb97489d65b14ecc7a,64cf4b26b39c03fcda8334c6,,,,,,,,,,,,,,,,,,,,,,,,,,6,0,6,0,1,,,,,,,,,,,,,,,,,,,,,,,,,,,,,,,,,,
,,,,,,,,2023-08-06_08h26.51.929,HF_wild_card,2022.2.4,Win32,59.75857536,5ebd791a7cba9305f147ed96,64ce5acb97489d65b14ecc7a,64cf4b26b39c03fcda8334c6,,,,,,,,,,,,,,,,,,,,,,,,,,,,,,,3,,,,,,,,,,,,,,,,,,,,,,,,,,,,,,,,,
,,,,,,,,2023-08-06_08h26.51.929,HF_wild_card,2022.2.4,Win32,59.75857536,5ebd791a7cba9305f147ed96,64ce5acb97489d65b14ecc7a,64cf4b26b39c03fcda8334c6,,,,,,,,,,,,,,,,,,,,,,,,,,,,,,,,,,,,,,,,,,,,,,,,,,,,,,,,,,,,,,,,
,,,,,,,,2023-08-06_08h26.51.929,HF_wild_card,2022.2.4,Win32,59.75857536,5ebd791a7cba9305f147ed96,64ce5acb97489d65b14ecc7a,64cf4b26b39c03fcda8334c6,,,,,,,,,,,,,,,,,,,,,,,,,,,,,,,,5,WC_extreme,resources/DG.BMP,0,0,0,0,1,,,,,,,,,,,,,,,,,,,,,,,,,
,,,,,,,,2023-08-06_08h26.51.929,HF_wild_card,2022.2.4,Win32,59.75857536,5ebd791a7cba9305f147ed96,64ce5acb97489d65b14ecc7a,64cf4b26b39c03fcda8334c6,,,,,,,,,,,,,,,,,,,,,,,,,,,,,,,,30,Door1,resources/DR.BMP,1,0,1,0,1,,,,,,,,,,,,,,,,,,,,,,,,,
,,,,,,,,2023-08-06_08h26.51.929,HF_wild_card,2022.2.4,Win32,59.75857536,5ebd791a7cba9305f147ed96,64ce5acb97489d65b14ecc7a,64cf4b26b39c03fcda8334c6,,,,,,,,,,,,,,,,,,,,,,,,,,,,,,,,80,Door4,resources/DP.BMP,2,0,2,0,1,,,,,,,,,,,,,,,,,,,,,,,,,
,,,,,,,,2023-08-06_08h26.51.929,HF_wild_card,2022.2.4,Win32,59.75857536,5ebd791a7cba9305f147ed96,64ce5acb97489d65b14ecc7a,64cf4b26b39c03fcda8334c6,,,,,,,,,,,,,,,,,,,,,,,,,,,,,,,,70,Door3,resources/DB.BMP,3,0,3,0,1,,,,,,,,,,,,,,,,,,,,,,,,,
,,,,,,,,2023-08-06_08h26.51.929,HF_wild_card,2022.2.4,Win32,59.75857536,5ebd791a7cba9305f147ed96,64ce5acb97489d65b14ecc7a,64cf4b26b39c03fcda8334c6,,,,,,,,,,,,,,,,,,,,,,,,,,,,,,,,45,WC_nonExtreme,resources/DY.BMP,4,0,4,0,1,,,,,,,,,,,,,,,,,,,,,,,,,
,,,,,,,,2023-08-06_08h26.51.929,HF_wild_card,2022.2.4,Win32,59.75857536,5ebd791a7cba9305f147ed96,64ce5acb97489d65b14ecc7a,64cf4b26b39c03fcda8334c6,,,,,,,,,,,,,,,,,,,,,,,,,,,,,,,,40,Door2,resources/DBN.BMP,5,0,5,0,1,,,,,,,,,,,,,,,,,,,,,,,,,
,,,,,,,,2023-08-06_08h26.51.929,HF_wild_card,2022.2.4,Win32,59.75857536,5ebd791a7cba9305f147ed96,64ce5acb97489d65b14ecc7a,64cf4b26b39c03fcda8334c6,,,,,,,,,,,,,,,,,,,,,,,,,,,,,,,,,,,,,,,,,,,,,,,,,,,,,,,,,,,,,,,,
