Condition,Low fixed image (Door1),Low risky image (Door2),High fixed image (Door3),High risky image (Door4),Extreme Wild Card,NonExtreme Wild Card,,date,expName,psychopyVersion,OS,frameRate,PROLIFIC_PID,STUDY_ID,SESSION_ID,mouse_2.x,mouse_2.y,mouse_2.leftButton,mouse_2.midButton,mouse_2.rightButton,mouse_2.clicked_name,Trial Type,Left Option Image,Right Option Image,Chosen Door,mouse.x,mouse.y,mouse.leftButton,mouse.midButton,mouse.rightButton,mouse.time,mouse.clicked_name,Feedback,Cumulative Reward,Block,trial.thisRepN,trial.thisTrialN,trial.thisN,trial.thisIndex,trial.ran,blocks.thisRepN,blocks.thisTrialN,blocks.thisN,blocks.thisIndex,blocks.ran,Money conversion,First Outcome Reported,Shown Door (First Outcome),Displayed Image (First Outcome),outcomes.thisRepN,outcomes.thisTrialN,outcomes.thisN,outcomes.thisIndex,outcomes.ran,judgments.thisRepN,judgments.thisTrialN,judgments.thisN,judgments.thisIndex,judgments.ran,freqMouse.x,freqMouse.y,freqMouse.leftButton,freqMouse.midButton,freqMouse.rightButton,freqMouse.clicked_name,FQJ for first outcome,FQJ for second outcome,Shown Door,Displayed Image,trials.thisRepN,trials.thisTrialN,trials.thisN,trials.thisIndex,trials.ran,judgBlock.thisRepN,judgBlock.thisTrialN,judgBlock.thisN,judgBlock.thisIndex,judgBlock.ran
1,resources/DP.BMP,resources/DY.BMP,resources/DG.BMP,resources/DR.BMP,resources/DB.BMP,resources/DBN.BMP,,2023-08-16_09h09.10.805,HF_wild_card,2022.2.4,Win32,59.65163445,5f2ac7deaac0ef39060b0aae,64d2fd46c836a06233681665,64dc84121fbcb3a36286474a,,,,,,,,,,,,,,,,,,,,,,,,,,,,,,,,,,,,,,,,,,,,,,,,,,,,,,,,,,,,,,,,
,,,,,,,,2023-08-16_09h09.10.805,HF_wild_card,2022.2.4,Win32,59.65163445,5f2ac7deaac0ef39060b0aae,64d2fd46c836a06233681665,64dc84121fbcb3a36286474a,0,-0.421296296,1,0,0,agree,,,,,,,,,,,,,,,,,,,,,,,,,,,,,,,,,,,,,,,,,,,,,,,,,,,,,,,,,,
,,,,,,,,2023-08-16_09h09.10.805,HF_wild_card,2022.2.4,Win32,59.65163445,5f2ac7deaac0ef39060b0aae,64d2fd46c836a06233681665,64dc84121fbcb3a36286474a,,,,,,,,,,,,,,,,,,,,,,,,,,,,,,,,,,,,,,,,,,,,,,,,,,,,,,,,,,,,,,,,
,,,,,,,,2023-08-16_09h09.10.805,HF_wild_card,2022.2.4,Win32,59.65163445,5f2ac7deaac0ef39060b0aae,64d2fd46c836a06233681665,64dc84121fbcb3a36286474a,,,,,,,decisionTrl,resources/DP.BMP,resources/DBN.BMP,Door1,-0.37962963,-0.066666667,1,0,0,2.1289,optionLeft,30,30,1,0,0,0,0,1,,,,,,,,,,,,,,,,,,,,,,,,,,,,,,,,,,,,,,,
,,,,,,,,2023-08-16_09h09.10.805,HF_wild_card,2022.2.4,Win32,59.65163445,5f2ac7deaac0ef39060b0aae,64d2fd46c836a06233681665,64dc84121fbcb3a36286474a,,,,,,,ctch,resources/DR.BMP,resources/DP.BMP,Door1,0.291666667,-0.037962963,1,0,0,1.5829,optionRight,30,60,1,1,0,1,0,1,,,,,,,,,,,,,,,,,,,,,,,,,,,,,,,,,,,,,,,
,,,,,,,,2023-08-16_09h09.10.805,HF_wild_card,2022.2.4,Win32,59.65163445,5f2ac7deaac0ef39060b0aae,64d2fd46c836a06233681665,64dc84121fbcb3a36286474a,,,,,,,decisionTrl,resources/DG.BMP,resources/DR.BMP,Door4,0.367592593,-0.036111111,1,0,0,1.6327,optionRight,60,120,1,2,0,2,0,1,,,,,,,,,,,,,,,,,,,,,,,,,,,,,,,,,,,,,,,
,,,,,,,,2023-08-16_09h09.10.805,HF_wild_card,2022.2.4,Win32,59.65163445,5f2ac7deaac0ef39060b0aae,64d2fd46c836a06233681665,64dc84121fbcb3a36286474a,,,,,,,decisionTrl,resources/DR.BMP,resources/DBN.BMP,WildCard_NonEx,0.374074074,-0.046296296,1,0,0,1.0657,optionRight,45,165,1,3,0,3,0,1,,,,,,,,,,,,,,,,,,,,,,,,,,,,,,,,,,,,,,,
,,,,,,,,2023-08-16_09h09.10.805,HF_wild_card,2022.2.4,Win32,59.65163445,5f2ac7deaac0ef39060b0aae,64d2fd46c836a06233681665,64dc84121fbcb3a36286474a,,,,,,,ctch,resources/DY.BMP,resources/DG.BMP,Door2,-0.387962963,-0.041666667,1,0,0,1.1828,optionLeft,20,185,1,4,0,4,0,1,,,,,,,,,,,,,,,,,,,,,,,,,,,,,,,,,,,,,,,
,,,,,,,,2023-08-16_09h09.10.805,HF_wild_card,2022.2.4,Win32,59.65163445,5f2ac7deaac0ef39060b0aae,64d2fd46c836a06233681665,64dc84121fbcb3a36286474a,,,,,,,sngl,resources/Empty.png,resources/DBN.BMP,WildCard_NonEx,0.388888889,-0.010185185,1,0,0,1.316,optionRight,55,240,1,5,0,5,0,1,,,,,,,,,,,,,,,,,,,,,,,,,,,,,,,,,,,,,,,
,,,,,,,,2023-08-16_09h09.10.805,HF_wild_card,2022.2.4,Win32,59.65163445,5f2ac7deaac0ef39060b0aae,64d2fd46c836a06233681665,64dc84121fbcb3a36286474a,,,,,,,decisionTrl,resources/DP.BMP,resources/DY.BMP,Door2,0.380555556,-0.012962963,1,0,0,1.1169,optionRight,40,280,1,6,0,6,0,1,,,,,,,,,,,,,,,,,,,,,,,,,,,,,,,,,,,,,,,
,,,,,,,,2023-08-16_09h09.10.805,HF_wild_card,2022.2.4,Win32,59.65163445,5f2ac7deaac0ef39060b0aae,64d2fd46c836a06233681665,64dc84121fbcb3a36286474a,,,,,,,decisionTrl,resources/DBN.BMP,resources/DY.BMP,WildCard_NonEx,-0.371296296,-0.007407407,1,0,0,1.3491,optionLeft,55,335,1,7,0,7,0,1,,,,,,,,,,,,,,,,,,,,,,,,,,,,,,,,,,,,,,,
,,,,,,,,2023-08-16_09h09.10.805,HF_wild_card,2022.2.4,Win32,59.65163445,5f2ac7deaac0ef39060b0aae,64d2fd46c836a06233681665,64dc84121fbcb3a36286474a,,,,,,,decisionTrl,resources/DY.BMP,resources/DP.BMP,Door2,-0.385185185,-0.037962963,1,0,0,0.8994,optionLeft,20,355,1,8,0,8,0,1,,,,,,,,,,,,,,,,,,,,,,,,,,,,,,,,,,,,,,,
,,,,,,,,2023-08-16_09h09.10.805,HF_wild_card,2022.2.4,Win32,59.65163445,5f2ac7deaac0ef39060b0aae,64d2fd46c836a06233681665,64dc84121fbcb3a36286474a,,,,,,,sngl,resources/Empty.png,resources/DY.BMP,Door2,-0.340740741,-0.027777778,1,0,0,1.6509,optionRight,20,375,1,9,0,9,0,1,,,,,,,,,,,,,,,,,,,,,,,,,,,,,,,,,,,,,,,
,,,,,,,,2023-08-16_09h09.10.805,HF_wild_card,2022.2.4,Win32,59.65163445,5f2ac7deaac0ef39060b0aae,64d2fd46c836a06233681665,64dc84121fbcb3a36286474a,,,,,,,decisionTrl,resources/DG.BMP,resources/DR.BMP,Door3,-0.398148148,-0.055555556,1,0,0,2.7873,optionLeft,70,445,1,10,0,10,0,1,,,,,,,,,,,,,,,,,,,,,,,,,,,,,,,,,,,,,,,
,,,,,,,,2023-08-16_09h09.10.805,HF_wild_card,2022.2.4,Win32,59.65163445,5f2ac7deaac0ef39060b0aae,64d2fd46c836a06233681665,64dc84121fbcb3a36286474a,,,,,,,decisionTrl,resources/DG.BMP,resources/DR.BMP,Door4,0.285185185,0.017592593,1,0,0,0.9149,optionRight,60,505,1,11,0,11,0,1,,,,,,,,,,,,,,,,,,,,,,,,,,,,,,,,,,,,,,,
,,,,,,,,2023-08-16_09h09.10.805,HF_wild_card,2022.2.4,Win32,59.65163445,5f2ac7deaac0ef39060b0aae,64d2fd46c836a06233681665,64dc84121fbcb3a36286474a,,,,,,,ctch,resources/DG.BMP,resources/DY.BMP,Door3,-0.372222222,-0.047222222,1,0,0,1.0658,optionLeft,70,575,1,12,0,12,0,1,,,,,,,,,,,,,,,,,,,,,,,,,,,,,,,,,,,,,,,
,,,,,,,,2023-08-16_09h09.10.805,HF_wild_card,2022.2.4,Win32,59.65163445,5f2ac7deaac0ef39060b0aae,64d2fd46c836a06233681665,64dc84121fbcb3a36286474a,,,,,,,decisionTrl,resources/DR.BMP,resources/DG.BMP,Door3,0.405555556,-0.019444444,1,0,0,1.2183,optionRight,70,645,1,13,0,13,0,1,,,,,,,,,,,,,,,,,,,,,,,,,,,,,,,,,,,,,,,
,,,,,,,,2023-08-16_09h09.10.805,HF_wild_card,2022.2.4,Win32,59.65163445,5f2ac7deaac0ef39060b0aae,64d2fd46c836a06233681665,64dc84121fbcb3a36286474a,,,,,,,decisionTrl,resources/DBN.BMP,resources/DR.BMP,WildCard_NonEx,-0.393518519,-0.025925926,1,0,0,0.9987,optionLeft,45,690,1,14,0,14,0,1,,,,,,,,,,,,,,,,,,,,,,,,,,,,,,,,,,,,,,,
,,,,,,,,2023-08-16_09h09.10.805,HF_wild_card,2022.2.4,Win32,59.65163445,5f2ac7deaac0ef39060b0aae,64d2fd46c836a06233681665,64dc84121fbcb3a36286474a,,,,,,,decisionTrl,resources/DY.BMP,resources/DP.BMP,Door1,0.344444444,0.024074074,1,0,0,1.8846,optionRight,30,720,1,15,0,15,0,1,,,,,,,,,,,,,,,,,,,,,,,,,,,,,,,,,,,,,,,
,,,,,,,,2023-08-16_09h09.10.805,HF_wild_card,2022.2.4,Win32,59.65163445,5f2ac7deaac0ef39060b0aae,64d2fd46c836a06233681665,64dc84121fbcb3a36286474a,,,,,,,sngl,resources/DY.BMP,resources/Empty.png,Door2,-0.350925926,-0.011111111,1,0,0,0.5666,optionLeft,40,760,1,16,0,16,0,1,,,,,,,,,,,,,,,,,,,,,,,,,,,,,,,,,,,,,,,
,,,,,,,,2023-08-16_09h09.10.805,HF_wild_card,2022.2.4,Win32,59.65163445,5f2ac7deaac0ef39060b0aae,64d2fd46c836a06233681665,64dc84121fbcb3a36286474a,,,,,,,decisionTrl,resources/DG.BMP,resources/DR.BMP,Door3,-0.398148148,-0.050925926,1,0,0,1.0994,optionLeft,70,830,1,17,0,17,0,1,,,,,,,,,,,,,,,,,,,,,,,,,,,,,,,,,,,,,,,
,,,,,,,,2023-08-16_09h09.10.805,HF_wild_card,2022.2.4,Win32,59.65163445,5f2ac7deaac0ef39060b0aae,64d2fd46c836a06233681665,64dc84121fbcb3a36286474a,,,,,,,decisionTrl,resources/DY.BMP,resources/DP.BMP,Door2,-0.430555556,-0.05462963,1,0,0,0.9997,optionLeft,20,850,1,18,0,18,0,1,,,,,,,,,,,,,,,,,,,,,,,,,,,,,,,,,,,,,,,
,,,,,,,,2023-08-16_09h09.10.805,HF_wild_card,2022.2.4,Win32,59.65163445,5f2ac7deaac0ef39060b0aae,64d2fd46c836a06233681665,64dc84121fbcb3a36286474a,,,,,,,ctch,resources/DY.BMP,resources/DG.BMP,Door3,0.338888889,-0.026851852,1,0,0,1.1504,optionRight,70,920,1,19,0,19,0,1,,,,,,,,,,,,,,,,,,,,,,,,,,,,,,,,,,,,,,,
,,,,,,,,2023-08-16_09h09.10.805,HF_wild_card,2022.2.4,Win32,59.65163445,5f2ac7deaac0ef39060b0aae,64d2fd46c836a06233681665,64dc84121fbcb3a36286474a,,,,,,,ctch,resources/DP.BMP,resources/DR.BMP,Door4,0.380555556,-0.042592593,1,0,0,2.6211,optionRight,60,980,1,20,0,20,0,1,,,,,,,,,,,,,,,,,,,,,,,,,,,,,,,,,,,,,,,
,,,,,,,,2023-08-16_09h09.10.805,HF_wild_card,2022.2.4,Win32,59.65163445,5f2ac7deaac0ef39060b0aae,64d2fd46c836a06233681665,64dc84121fbcb3a36286474a,,,,,,,sngl,resources/DG.BMP,resources/Empty.png,Door3,-0.421296296,-0.027777778,1,0,0,0.6978,optionLeft,70,1050,1,21,0,21,0,1,,,,,,,,,,,,,,,,,,,,,,,,,,,,,,,,,,,,,,,
,,,,,,,,2023-08-16_09h09.10.805,HF_wild_card,2022.2.4,Win32,59.65163445,5f2ac7deaac0ef39060b0aae,64d2fd46c836a06233681665,64dc84121fbcb3a36286474a,,,,,,,sngl,resources/Empty.png,resources/DP.BMP,Door1,0.4,-0.025,1,0,0,0.7982,optionRight,30,1080,1,22,0,22,0,1,,,,,,,,,,,,,,,,,,,,,,,,,,,,,,,,,,,,,,,
,,,,,,,,2023-08-16_09h09.10.805,HF_wild_card,2022.2.4,Win32,59.65163445,5f2ac7deaac0ef39060b0aae,64d2fd46c836a06233681665,64dc84121fbcb3a36286474a,,,,,,,decisionTrl,resources/DR.BMP,resources/DG.BMP,Door3,0.390740741,-0.005555556,1,0,0,1.2843,optionRight,70,1150,1,23,0,23,0,1,,,,,,,,,,,,,,,,,,,,,,,,,,,,,,,,,,,,,,,
,,,,,,,,2023-08-16_09h09.10.805,HF_wild_card,2022.2.4,Win32,59.65163445,5f2ac7deaac0ef39060b0aae,64d2fd46c836a06233681665,64dc84121fbcb3a36286474a,,,,,,,decisionTrl,resources/DP.BMP,resources/DY.BMP,Door1,-0.393518519,-0.049074074,1,0,0,1.4171,optionLeft,30,1180,1,24,0,24,0,1,,,,,,,,,,,,,,,,,,,,,,,,,,,,,,,,,,,,,,,
,,,,,,,,2023-08-16_09h09.10.805,HF_wild_card,2022.2.4,Win32,59.65163445,5f2ac7deaac0ef39060b0aae,64d2fd46c836a06233681665,64dc84121fbcb3a36286474a,,,,,,,decisionTrl,resources/DR.BMP,resources/DG.BMP,Door4,-0.366666667,-0.04537037,1,0,0,1.0164,optionLeft,60,1240,1,25,0,25,0,1,,,,,,,,,,,,,,,,,,,,,,,,,,,,,,,,,,,,,,,
,,,,,,,,2023-08-16_09h09.10.805,HF_wild_card,2022.2.4,Win32,59.65163445,5f2ac7deaac0ef39060b0aae,64d2fd46c836a06233681665,64dc84121fbcb3a36286474a,,,,,,,sngl,resources/DP.BMP,resources/Empty.png,Door1,-0.325925926,-0.058333333,1,0,0,0.9488,optionLeft,30,1270,1,26,0,26,0,1,,,,,,,,,,,,,,,,,,,,,,,,,,,,,,,,,,,,,,,
,,,,,,,,2023-08-16_09h09.10.805,HF_wild_card,2022.2.4,Win32,59.65163445,5f2ac7deaac0ef39060b0aae,64d2fd46c836a06233681665,64dc84121fbcb3a36286474a,,,,,,,sngl,resources/Empty.png,resources/DG.BMP,Door3,0.396296296,0.001851852,1,0,0,0.6814,optionRight,70,1340,1,27,0,27,0,1,,,,,,,,,,,,,,,,,,,,,,,,,,,,,,,,,,,,,,,
,,,,,,,,2023-08-16_09h09.10.805,HF_wild_card,2022.2.4,Win32,59.65163445,5f2ac7deaac0ef39060b0aae,64d2fd46c836a06233681665,64dc84121fbcb3a36286474a,,,,,,,sngl,resources/Empty.png,resources/DBN.BMP,WildCard_NonEx,0.277777778,0.001851852,1,0,0,0.6327,optionRight,45,1385,1,28,0,28,0,1,,,,,,,,,,,,,,,,,,,,,,,,,,,,,,,,,,,,,,,
,,,,,,,,2023-08-16_09h09.10.805,HF_wild_card,2022.2.4,Win32,59.65163445,5f2ac7deaac0ef39060b0aae,64d2fd46c836a06233681665,64dc84121fbcb3a36286474a,,,,,,,sngl,resources/DBN.BMP,resources/Empty.png,WildCard_NonEx,-0.433333333,-0.033333333,1,0,0,0.5316,optionLeft,55,1440,1,29,0,29,0,1,,,,,,,,,,,,,,,,,,,,,,,,,,,,,,,,,,,,,,,
,,,,,,,,2023-08-16_09h09.10.805,HF_wild_card,2022.2.4,Win32,59.65163445,5f2ac7deaac0ef39060b0aae,64d2fd46c836a06233681665,64dc84121fbcb3a36286474a,,,,,,,ctch,resources/DR.BMP,resources/DP.BMP,Door4,-0.358333333,-0.071296296,1,0,0,1.1843,optionLeft,60,1500,1,30,0,30,0,1,,,,,,,,,,,,,,,,,,,,,,,,,,,,,,,,,,,,,,,
,,,,,,,,2023-08-16_09h09.10.805,HF_wild_card,2022.2.4,Win32,59.65163445,5f2ac7deaac0ef39060b0aae,64d2fd46c836a06233681665,64dc84121fbcb3a36286474a,,,,,,,decisionTrl,resources/DR.BMP,resources/DG.BMP,Door3,0.401851852,-0.035185185,1,0,0,1.3184,optionRight,70,1570,1,31,0,31,0,1,,,,,,,,,,,,,,,,,,,,,,,,,,,,,,,,,,,,,,,
,,,,,,,,2023-08-16_09h09.10.805,HF_wild_card,2022.2.4,Win32,59.65163445,5f2ac7deaac0ef39060b0aae,64d2fd46c836a06233681665,64dc84121fbcb3a36286474a,,,,,,,decisionTrl,resources/DP.BMP,resources/DY.BMP,Door1,-0.388888889,-0.063888889,1,0,0,1.5667,optionLeft,30,1600,1,32,0,32,0,1,,,,,,,,,,,,,,,,,,,,,,,,,,,,,,,,,,,,,,,
,,,,,,,,2023-08-16_09h09.10.805,HF_wild_card,2022.2.4,Win32,59.65163445,5f2ac7deaac0ef39060b0aae,64d2fd46c836a06233681665,64dc84121fbcb3a36286474a,,,,,,,decisionTrl,resources/DG.BMP,resources/DBN.BMP,WildCard_NonEx,0.42962963,-0.000925926,1,0,0,0.7982,optionRight,55,1655,1,33,0,33,0,1,,,,,,,,,,,,,,,,,,,,,,,,,,,,,,,,,,,,,,,
,,,,,,,,2023-08-16_09h09.10.805,HF_wild_card,2022.2.4,Win32,59.65163445,5f2ac7deaac0ef39060b0aae,64d2fd46c836a06233681665,64dc84121fbcb3a36286474a,,,,,,,decisionTrl,resources/DBN.BMP,resources/DG.BMP,WildCard_NonEx,-0.433333333,-0.055555556,1,0,0,0.7126,optionLeft,45,1700,1,34,0,34,0,1,,,,,,,,,,,,,,,,,,,,,,,,,,,,,,,,,,,,,,,
,,,,,,,,2023-08-16_09h09.10.805,HF_wild_card,2022.2.4,Win32,59.65163445,5f2ac7deaac0ef39060b0aae,64d2fd46c836a06233681665,64dc84121fbcb3a36286474a,,,,,,,sngl,resources/DR.BMP,resources/Empty.png,Door4,-0.411111111,-0.05462963,1,0,0,0.7475,optionLeft,80,1780,1,35,0,35,0,1,,,,,,,,,,,,,,,,,,,,,,,,,,,,,,,,,,,,,,,
,,,,,,,,2023-08-16_09h09.10.805,HF_wild_card,2022.2.4,Win32,59.65163445,5f2ac7deaac0ef39060b0aae,64d2fd46c836a06233681665,64dc84121fbcb3a36286474a,,,,,,,sngl,resources/DBN.BMP,resources/Empty.png,WildCard_NonEx,-0.35,-0.036111111,1,0,0,0.6814,optionLeft,45,1825,1,36,0,36,0,1,,,,,,,,,,,,,,,,,,,,,,,,,,,,,,,,,,,,,,,
,,,,,,,,2023-08-16_09h09.10.805,HF_wild_card,2022.2.4,Win32,59.65163445,5f2ac7deaac0ef39060b0aae,64d2fd46c836a06233681665,64dc84121fbcb3a36286474a,,,,,,,sngl,resources/Empty.png,resources/DR.BMP,Door4,0.373148148,-0.027777778,1,0,0,0.5977,optionRight,60,1885,1,37,0,37,0,1,,,,,,,,,,,,,,,,,,,,,,,,,,,,,,,,,,,,,,,
,,,,,,,,2023-08-16_09h09.10.805,HF_wild_card,2022.2.4,Win32,59.65163445,5f2ac7deaac0ef39060b0aae,64d2fd46c836a06233681665,64dc84121fbcb3a36286474a,,,,,,,ctch,resources/DG.BMP,resources/DY.BMP,Door3,-0.356481481,-0.041666667,1,0,0,1.0671,optionLeft,70,1955,1,38,0,38,0,1,,,,,,,,,,,,,,,,,,,,,,,,,,,,,,,,,,,,,,,
,,,,,,,,2023-08-16_09h09.10.805,HF_wild_card,2022.2.4,Win32,59.65163445,5f2ac7deaac0ef39060b0aae,64d2fd46c836a06233681665,64dc84121fbcb3a36286474a,,,,,,,decisionTrl,resources/DY.BMP,resources/DBN.BMP,WildCard_NonEx,0.362037037,0.002777778,1,0,0,0.7502,optionRight,55,2010,1,39,0,39,0,1,,,,,,,,,,,,,,,,,,,,,,,,,,,,,,,,,,,,,,,
,,,,,,,,2023-08-16_09h09.10.805,HF_wild_card,2022.2.4,Win32,59.65163445,5f2ac7deaac0ef39060b0aae,64d2fd46c836a06233681665,64dc84121fbcb3a36286474a,,,,,,,decisionTrl,resources/DBN.BMP,resources/DP.BMP,WildCard_NonEx,-0.286111111,-0.036111111,1,0,0,0.7642,optionLeft,55,2065,1,40,0,40,0,1,,,,,,,,,,,,,,,,,,,,,,,,,,,,,,,,,,,,,,,
,,,,,,,,2023-08-16_09h09.10.805,HF_wild_card,2022.2.4,Win32,59.65163445,5f2ac7deaac0ef39060b0aae,64d2fd46c836a06233681665,64dc84121fbcb3a36286474a,,,,,,,ctch,resources/DP.BMP,resources/DR.BMP,Door4,0.342592593,-0.006481481,1,0,0,1.084,optionRight,80,2145,1,41,0,41,0,1,,,,,,,,,,,,,,,,,,,,,,,,,,,,,,,,,,,,,,,
,,,,,,,,2023-08-16_09h09.10.805,HF_wild_card,2022.2.4,Win32,59.65163445,5f2ac7deaac0ef39060b0aae,64d2fd46c836a06233681665,64dc84121fbcb3a36286474a,,,,,,,decisionTrl,resources/DP.BMP,resources/DY.BMP,Door1,-0.330555556,-0.042592593,1,0,0,1.7027,optionLeft,30,2175,1,42,0,42,0,1,,,,,,,,,,,,,,,,,,,,,,,,,,,,,,,,,,,,,,,
,,,,,,,,2023-08-16_09h09.10.805,HF_wild_card,2022.2.4,Win32,59.65163445,5f2ac7deaac0ef39060b0aae,64d2fd46c836a06233681665,64dc84121fbcb3a36286474a,,,,,,,decisionTrl,resources/DY.BMP,resources/DP.BMP,Door2,-0.369444444,-0.075,1,0,0,0.6649,optionLeft,20,2195,1,43,0,43,0,1,,,,,,,,,,,,,,,,,,,,,,,,,,,,,,,,,,,,,,,
,,,,,,,,2023-08-16_09h09.10.805,HF_wild_card,2022.2.4,Win32,59.65163445,5f2ac7deaac0ef39060b0aae,64d2fd46c836a06233681665,64dc84121fbcb3a36286474a,,,,,,,,,,,,,,,,,,,,,,,,,,0,0,0,0,1,,,,,,,,,,,,,,,,,,,,,,,,,,,,,,,,,,
,,,,,,,,2023-08-16_09h09.10.805,HF_wild_card,2022.2.4,Win32,59.65163445,5f2ac7deaac0ef39060b0aae,64d2fd46c836a06233681665,64dc84121fbcb3a36286474a,,,,,,,sngl,resources/Empty.png,resources/DP.BMP,Door1,0.396296296,-0.116666667,1,0,0,1.0416,optionRight,30,2225,2,0,0,0,0,1,,,,,,,,,,,,,,,,,,,,,,,,,,,,,,,,,,,,,,,
,,,,,,,,2023-08-16_09h09.10.805,HF_wild_card,2022.2.4,Win32,59.65163445,5f2ac7deaac0ef39060b0aae,64d2fd46c836a06233681665,64dc84121fbcb3a36286474a,,,,,,,decisionTrl,resources/DG.BMP,resources/DBN.BMP,Door3,-0.327777778,0.002777778,1,0,0,1.0979,optionLeft,70,2295,2,1,0,1,0,1,,,,,,,,,,,,,,,,,,,,,,,,,,,,,,,,,,,,,,,
,,,,,,,,2023-08-16_09h09.10.805,HF_wild_card,2022.2.4,Win32,59.65163445,5f2ac7deaac0ef39060b0aae,64d2fd46c836a06233681665,64dc84121fbcb3a36286474a,,,,,,,sngl,resources/DR.BMP,resources/Empty.png,Door4,-0.355555556,-0.025,1,0,0,0.6813,optionLeft,60,2355,2,2,0,2,0,1,,,,,,,,,,,,,,,,,,,,,,,,,,,,,,,,,,,,,,,
,,,,,,,,2023-08-16_09h09.10.805,HF_wild_card,2022.2.4,Win32,59.65163445,5f2ac7deaac0ef39060b0aae,64d2fd46c836a06233681665,64dc84121fbcb3a36286474a,,,,,,,decisionTrl,resources/DG.BMP,resources/DR.BMP,Door3,-0.42037037,-0.082407407,1,0,0,0.9652,optionLeft,70,2425,2,3,0,3,0,1,,,,,,,,,,,,,,,,,,,,,,,,,,,,,,,,,,,,,,,
,,,,,,,,2023-08-16_09h09.10.805,HF_wild_card,2022.2.4,Win32,59.65163445,5f2ac7deaac0ef39060b0aae,64d2fd46c836a06233681665,64dc84121fbcb3a36286474a,,,,,,,sngl,resources/Empty.png,resources/DG.BMP,Door3,0.306481481,-0.033333333,1,0,0,0.566,optionRight,70,2495,2,4,0,4,0,1,,,,,,,,,,,,,,,,,,,,,,,,,,,,,,,,,,,,,,,
,,,,,,,,2023-08-16_09h09.10.805,HF_wild_card,2022.2.4,Win32,59.65163445,5f2ac7deaac0ef39060b0aae,64d2fd46c836a06233681665,64dc84121fbcb3a36286474a,,,,,,,decisionTrl,resources/DY.BMP,resources/DP.BMP,Door1,0.356481481,-0.032407407,1,0,0,1.4843,optionRight,30,2525,2,5,0,5,0,1,,,,,,,,,,,,,,,,,,,,,,,,,,,,,,,,,,,,,,,
,,,,,,,,2023-08-16_09h09.10.805,HF_wild_card,2022.2.4,Win32,59.65163445,5f2ac7deaac0ef39060b0aae,64d2fd46c836a06233681665,64dc84121fbcb3a36286474a,,,,,,,decisionTrl,resources/DG.BMP,resources/DR.BMP,Door3,-0.342592593,-0.082407407,1,0,0,1.633,optionLeft,70,2595,2,6,0,6,0,1,,,,,,,,,,,,,,,,,,,,,,,,,,,,,,,,,,,,,,,
,,,,,,,,2023-08-16_09h09.10.805,HF_wild_card,2022.2.4,Win32,59.65163445,5f2ac7deaac0ef39060b0aae,64d2fd46c836a06233681665,64dc84121fbcb3a36286474a,,,,,,,decisionTrl,resources/DY.BMP,resources/DP.BMP,Door1,0.238888889,-0.055555556,1,0,0,1.1988,optionRight,30,2625,2,7,0,7,0,1,,,,,,,,,,,,,,,,,,,,,,,,,,,,,,,,,,,,,,,
,,,,,,,,2023-08-16_09h09.10.805,HF_wild_card,2022.2.4,Win32,59.65163445,5f2ac7deaac0ef39060b0aae,64d2fd46c836a06233681665,64dc84121fbcb3a36286474a,,,,,,,decisionTrl,resources/DR.BMP,resources/DG.BMP,Door3,0.344444444,-0.008333333,1,0,0,1.3329,optionRight,70,2695,2,8,0,8,0,1,,,,,,,,,,,,,,,,,,,,,,,,,,,,,,,,,,,,,,,
,,,,,,,,2023-08-16_09h09.10.805,HF_wild_card,2022.2.4,Win32,59.65163445,5f2ac7deaac0ef39060b0aae,64d2fd46c836a06233681665,64dc84121fbcb3a36286474a,,,,,,,decisionTrl,resources/DBN.BMP,resources/DR.BMP,WildCard_NonEx,-0.425925926,-0.013888889,1,0,0,1.0651,optionLeft,55,2750,2,9,0,9,0,1,,,,,,,,,,,,,,,,,,,,,,,,,,,,,,,,,,,,,,,
,,,,,,,,2023-08-16_09h09.10.805,HF_wild_card,2022.2.4,Win32,59.65163445,5f2ac7deaac0ef39060b0aae,64d2fd46c836a06233681665,64dc84121fbcb3a36286474a,,,,,,,sngl,resources/DP.BMP,resources/Empty.png,Door1,-0.357407407,-0.057407407,1,0,0,0.798,optionLeft,30,2780,2,10,0,10,0,1,,,,,,,,,,,,,,,,,,,,,,,,,,,,,,,,,,,,,,,
,,,,,,,,2023-08-16_09h09.10.805,HF_wild_card,2022.2.4,Win32,59.65163445,5f2ac7deaac0ef39060b0aae,64d2fd46c836a06233681665,64dc84121fbcb3a36286474a,,,,,,,decisionTrl,resources/DBN.BMP,resources/DP.BMP,WildCard_NonEx,-0.298148148,-0.000925926,1,0,0,0.6142,optionLeft,45,2825,2,11,0,11,0,1,,,,,,,,,,,,,,,,,,,,,,,,,,,,,,,,,,,,,,,
,,,,,,,,2023-08-16_09h09.10.805,HF_wild_card,2022.2.4,Win32,59.65163445,5f2ac7deaac0ef39060b0aae,64d2fd46c836a06233681665,64dc84121fbcb3a36286474a,,,,,,,decisionTrl,resources/DBN.BMP,resources/DG.BMP,WildCard_NonEx,-0.347222222,0.014814815,1,0,0,0.6823,optionLeft,45,2870,2,12,0,12,0,1,,,,,,,,,,,,,,,,,,,,,,,,,,,,,,,,,,,,,,,
,,,,,,,,2023-08-16_09h09.10.805,HF_wild_card,2022.2.4,Win32,59.65163445,5f2ac7deaac0ef39060b0aae,64d2fd46c836a06233681665,64dc84121fbcb3a36286474a,,,,,,,ctch,resources/DR.BMP,resources/DP.BMP,Door1,0.294444444,0,1,0,0,0.9489,optionRight,30,2900,2,13,0,13,0,1,,,,,,,,,,,,,,,,,,,,,,,,,,,,,,,,,,,,,,,
,,,,,,,,2023-08-16_09h09.10.805,HF_wild_card,2022.2.4,Win32,59.65163445,5f2ac7deaac0ef39060b0aae,64d2fd46c836a06233681665,64dc84121fbcb3a36286474a,,,,,,,decisionTrl,resources/DR.BMP,resources/DBN.BMP,WildCard_NonEx,0.432407407,0.00462963,1,0,0,1.0317,optionRight,55,2955,2,14,0,14,0,1,,,,,,,,,,,,,,,,,,,,,,,,,,,,,,,,,,,,,,,
,,,,,,,,2023-08-16_09h09.10.805,HF_wild_card,2022.2.4,Win32,59.65163445,5f2ac7deaac0ef39060b0aae,64d2fd46c836a06233681665,64dc84121fbcb3a36286474a,,,,,,,decisionTrl,resources/DR.BMP,resources/DG.BMP,Door4,-0.387962963,-0.030555556,1,0,0,0.5983,optionLeft,80,3035,2,15,0,15,0,1,,,,,,,,,,,,,,,,,,,,,,,,,,,,,,,,,,,,,,,
,,,,,,,,2023-08-16_09h09.10.805,HF_wild_card,2022.2.4,Win32,59.65163445,5f2ac7deaac0ef39060b0aae,64d2fd46c836a06233681665,64dc84121fbcb3a36286474a,,,,,,,decisionTrl,resources/DP.BMP,resources/DY.BMP,Door1,-0.381481481,-0.012037037,1,0,0,1.1496,optionLeft,30,3065,2,16,0,16,0,1,,,,,,,,,,,,,,,,,,,,,,,,,,,,,,,,,,,,,,,
,,,,,,,,2023-08-16_09h09.10.805,HF_wild_card,2022.2.4,Win32,59.65163445,5f2ac7deaac0ef39060b0aae,64d2fd46c836a06233681665,64dc84121fbcb3a36286474a,,,,,,,decisionTrl,resources/DY.BMP,resources/DP.BMP,Door1,0.581481481,-0.02037037,1,0,0,0.698,optionRight,30,3095,2,17,0,17,0,1,,,,,,,,,,,,,,,,,,,,,,,,,,,,,,,,,,,,,,,
,,,,,,,,2023-08-16_09h09.10.805,HF_wild_card,2022.2.4,Win32,59.65163445,5f2ac7deaac0ef39060b0aae,64d2fd46c836a06233681665,64dc84121fbcb3a36286474a,,,,,,,decisionTrl,resources/DBN.BMP,resources/DY.BMP,WildCard_NonEx,-0.278703704,-0.00462963,1,0,0,1.0951,optionLeft,55,3150,2,18,0,18,0,1,,,,,,,,,,,,,,,,,,,,,,,,,,,,,,,,,,,,,,,
,,,,,,,,2023-08-16_09h09.10.805,HF_wild_card,2022.2.4,Win32,59.65163445,5f2ac7deaac0ef39060b0aae,64d2fd46c836a06233681665,64dc84121fbcb3a36286474a,,,,,,,decisionTrl,resources/DP.BMP,resources/DY.BMP,Door1,-0.47962963,-0.024074074,1,0,0,0.8485,optionLeft,30,3180,2,19,0,19,0,1,,,,,,,,,,,,,,,,,,,,,,,,,,,,,,,,,,,,,,,
,,,,,,,,2023-08-16_09h09.10.805,HF_wild_card,2022.2.4,Win32,59.65163445,5f2ac7deaac0ef39060b0aae,64d2fd46c836a06233681665,64dc84121fbcb3a36286474a,,,,,,,ctch,resources/DG.BMP,resources/DY.BMP,Door3,-0.409259259,-0.003703704,1,0,0,0.8996,optionLeft,70,3250,2,20,0,20,0,1,,,,,,,,,,,,,,,,,,,,,,,,,,,,,,,,,,,,,,,
,,,,,,,,2023-08-16_09h09.10.805,HF_wild_card,2022.2.4,Win32,59.65163445,5f2ac7deaac0ef39060b0aae,64d2fd46c836a06233681665,64dc84121fbcb3a36286474a,,,,,,,sngl,resources/Empty.png,resources/DR.BMP,Door4,0.312962963,-0.018518519,1,0,0,0.682,optionRight,80,3330,2,21,0,21,0,1,,,,,,,,,,,,,,,,,,,,,,,,,,,,,,,,,,,,,,,
,,,,,,,,2023-08-16_09h09.10.805,HF_wild_card,2022.2.4,Win32,59.65163445,5f2ac7deaac0ef39060b0aae,64d2fd46c836a06233681665,64dc84121fbcb3a36286474a,,,,,,,sngl,resources/DBN.BMP,resources/Empty.png,WildCard_NonEx,-0.351851852,-0.014814815,1,0,0,0.548,optionLeft,55,3385,2,22,0,22,0,1,,,,,,,,,,,,,,,,,,,,,,,,,,,,,,,,,,,,,,,
,,,,,,,,2023-08-16_09h09.10.805,HF_wild_card,2022.2.4,Win32,59.65163445,5f2ac7deaac0ef39060b0aae,64d2fd46c836a06233681665,64dc84121fbcb3a36286474a,,,,,,,decisionTrl,resources/DR.BMP,resources/DG.BMP,Door4,-0.443518519,-0.002777778,1,0,0,0.6823,optionLeft,60,3445,2,23,0,23,0,1,,,,,,,,,,,,,,,,,,,,,,,,,,,,,,,,,,,,,,,
,,,,,,,,2023-08-16_09h09.10.805,HF_wild_card,2022.2.4,Win32,59.65163445,5f2ac7deaac0ef39060b0aae,64d2fd46c836a06233681665,64dc84121fbcb3a36286474a,,,,,,,sngl,resources/Empty.png,resources/DY.BMP,Door2,0.398148148,-0.017592593,1,0,0,0.5308,optionRight,40,3485,2,24,0,24,0,1,,,,,,,,,,,,,,,,,,,,,,,,,,,,,,,,,,,,,,,
,,,,,,,,2023-08-16_09h09.10.805,HF_wild_card,2022.2.4,Win32,59.65163445,5f2ac7deaac0ef39060b0aae,64d2fd46c836a06233681665,64dc84121fbcb3a36286474a,,,,,,,sngl,resources/DY.BMP,resources/Empty.png,Door2,-0.315740741,-0.007407407,1,0,0,0.5312,optionLeft,20,3505,2,25,0,25,0,1,,,,,,,,,,,,,,,,,,,,,,,,,,,,,,,,,,,,,,,
,,,,,,,,2023-08-16_09h09.10.805,HF_wild_card,2022.2.4,Win32,59.65163445,5f2ac7deaac0ef39060b0aae,64d2fd46c836a06233681665,64dc84121fbcb3a36286474a,,,,,,,sngl,resources/Empty.png,resources/DBN.BMP,WildCard_NonEx,0.334259259,-0.001851852,1,0,0,0.5142,optionRight,45,3550,2,26,0,26,0,1,,,,,,,,,,,,,,,,,,,,,,,,,,,,,,,,,,,,,,,
,,,,,,,,2023-08-16_09h09.10.805,HF_wild_card,2022.2.4,Win32,59.65163445,5f2ac7deaac0ef39060b0aae,64d2fd46c836a06233681665,64dc84121fbcb3a36286474a,,,,,,,ctch,resources/DY.BMP,resources/DG.BMP,Door3,0.382407407,-0.024074074,1,0,0,0.947,optionRight,70,3620,2,27,0,27,0,1,,,,,,,,,,,,,,,,,,,,,,,,,,,,,,,,,,,,,,,
,,,,,,,,2023-08-16_09h09.10.805,HF_wild_card,2022.2.4,Win32,59.65163445,5f2ac7deaac0ef39060b0aae,64d2fd46c836a06233681665,64dc84121fbcb3a36286474a,,,,,,,ctch,resources/DP.BMP,resources/DR.BMP,Door4,0.401851852,-0.02037037,1,0,0,1.8507,optionRight,60,3680,2,28,0,28,0,1,,,,,,,,,,,,,,,,,,,,,,,,,,,,,,,,,,,,,,,
,,,,,,,,2023-08-16_09h09.10.805,HF_wild_card,2022.2.4,Win32,59.65163445,5f2ac7deaac0ef39060b0aae,64d2fd46c836a06233681665,64dc84121fbcb3a36286474a,,,,,,,sngl,resources/DG.BMP,resources/Empty.png,Door3,-0.375,-0.017592593,1,0,0,0.5821,optionLeft,70,3750,2,29,0,29,0,1,,,,,,,,,,,,,,,,,,,,,,,,,,,,,,,,,,,,,,,
,,,,,,,,2023-08-16_09h09.10.805,HF_wild_card,2022.2.4,Win32,59.65163445,5f2ac7deaac0ef39060b0aae,64d2fd46c836a06233681665,64dc84121fbcb3a36286474a,,,,,,,decisionTrl,resources/DY.BMP,resources/DP.BMP,Door1,0.348148148,-0.00462963,1,0,0,0.9156,optionRight,30,3780,2,30,0,30,0,1,,,,,,,,,,,,,,,,,,,,,,,,,,,,,,,,,,,,,,,
,,,,,,,,2023-08-16_09h09.10.805,HF_wild_card,2022.2.4,Win32,59.65163445,5f2ac7deaac0ef39060b0aae,64d2fd46c836a06233681665,64dc84121fbcb3a36286474a,,,,,,,ctch,resources/DY.BMP,resources/DG.BMP,Door3,0.326851852,-0.019444444,1,0,0,1.0153,optionRight,70,3850,2,31,0,31,0,1,,,,,,,,,,,,,,,,,,,,,,,,,,,,,,,,,,,,,,,
,,,,,,,,2023-08-16_09h09.10.805,HF_wild_card,2022.2.4,Win32,59.65163445,5f2ac7deaac0ef39060b0aae,64d2fd46c836a06233681665,64dc84121fbcb3a36286474a,,,,,,,decisionTrl,resources/DR.BMP,resources/DG.BMP,Door4,-0.256481481,-0.025,1,0,0,1.7506,optionLeft,60,3910,2,32,0,32,0,1,,,,,,,,,,,,,,,,,,,,,,,,,,,,,,,,,,,,,,,
,,,,,,,,2023-08-16_09h09.10.805,HF_wild_card,2022.2.4,Win32,59.65163445,5f2ac7deaac0ef39060b0aae,64d2fd46c836a06233681665,64dc84121fbcb3a36286474a,,,,,,,sngl,resources/DBN.BMP,resources/Empty.png,WildCard_NonEx,-0.312962963,0.001851852,1,0,0,0.5815,optionLeft,45,3955,2,33,0,33,0,1,,,,,,,,,,,,,,,,,,,,,,,,,,,,,,,,,,,,,,,
,,,,,,,,2023-08-16_09h09.10.805,HF_wild_card,2022.2.4,Win32,59.65163445,5f2ac7deaac0ef39060b0aae,64d2fd46c836a06233681665,64dc84121fbcb3a36286474a,,,,,,,decisionTrl,resources/DY.BMP,resources/DBN.BMP,WildCard_NonEx,0.330555556,0.007407407,1,0,0,0.8485,optionRight,55,4010,2,34,0,34,0,1,,,,,,,,,,,,,,,,,,,,,,,,,,,,,,,,,,,,,,,
,,,,,,,,2023-08-16_09h09.10.805,HF_wild_card,2022.2.4,Win32,59.65163445,5f2ac7deaac0ef39060b0aae,64d2fd46c836a06233681665,64dc84121fbcb3a36286474a,,,,,,,decisionTrl,resources/DP.BMP,resources/DY.BMP,Door1,-0.309259259,-0.014814815,1,0,0,1.1003,optionLeft,30,4040,2,35,0,35,0,1,,,,,,,,,,,,,,,,,,,,,,,,,,,,,,,,,,,,,,,
,,,,,,,,2023-08-16_09h09.10.805,HF_wild_card,2022.2.4,Win32,59.65163445,5f2ac7deaac0ef39060b0aae,64d2fd46c836a06233681665,64dc84121fbcb3a36286474a,,,,,,,ctch,resources/DR.BMP,resources/DP.BMP,Door4,-0.414814815,-0.011111111,1,0,0,1.2833,optionLeft,60,4100,2,36,0,36,0,1,,,,,,,,,,,,,,,,,,,,,,,,,,,,,,,,,,,,,,,
,,,,,,,,2023-08-16_09h09.10.805,HF_wild_card,2022.2.4,Win32,59.65163445,5f2ac7deaac0ef39060b0aae,64d2fd46c836a06233681665,64dc84121fbcb3a36286474a,,,,,,,sngl,resources/Empty.png,resources/DBN.BMP,WildCard_NonEx,0.346296296,-0.025925926,1,0,0,0.5816,optionRight,55,4155,2,37,0,37,0,1,,,,,,,,,,,,,,,,,,,,,,,,,,,,,,,,,,,,,,,
,,,,,,,,2023-08-16_09h09.10.805,HF_wild_card,2022.2.4,Win32,59.65163445,5f2ac7deaac0ef39060b0aae,64d2fd46c836a06233681665,64dc84121fbcb3a36286474a,,,,,,,decisionTrl,resources/DG.BMP,resources/DR.BMP,Door3,-0.355555556,-0.002777778,1,0,0,1.3501,optionLeft,70,4225,2,38,0,38,0,1,,,,,,,,,,,,,,,,,,,,,,,,,,,,,,,,,,,,,,,
,,,,,,,,2023-08-16_09h09.10.805,HF_wild_card,2022.2.4,Win32,59.65163445,5f2ac7deaac0ef39060b0aae,64d2fd46c836a06233681665,64dc84121fbcb3a36286474a,,,,,,,decisionTrl,resources/DP.BMP,resources/DBN.BMP,WildCard_NonEx,0.546296296,-0.017592593,1,0,0,1.217,optionRight,45,4270,2,39,0,39,0,1,,,,,,,,,,,,,,,,,,,,,,,,,,,,,,,,,,,,,,,
,,,,,,,,2023-08-16_09h09.10.805,HF_wild_card,2022.2.4,Win32,59.65163445,5f2ac7deaac0ef39060b0aae,64d2fd46c836a06233681665,64dc84121fbcb3a36286474a,,,,,,,decisionTrl,resources/DG.BMP,resources/DR.BMP,Door4,0.297222222,-0.015740741,1,0,0,1.0157,optionRight,60,4330,2,40,0,40,0,1,,,,,,,,,,,,,,,,,,,,,,,,,,,,,,,,,,,,,,,
,,,,,,,,2023-08-16_09h09.10.805,HF_wild_card,2022.2.4,Win32,59.65163445,5f2ac7deaac0ef39060b0aae,64d2fd46c836a06233681665,64dc84121fbcb3a36286474a,,,,,,,decisionTrl,resources/DP.BMP,resources/DY.BMP,Door1,-0.259259259,-0.02037037,1,0,0,0.8487,optionLeft,30,4360,2,41,0,41,0,1,,,,,,,,,,,,,,,,,,,,,,,,,,,,,,,,,,,,,,,
,,,,,,,,2023-08-16_09h09.10.805,HF_wild_card,2022.2.4,Win32,59.65163445,5f2ac7deaac0ef39060b0aae,64d2fd46c836a06233681665,64dc84121fbcb3a36286474a,,,,,,,ctch,resources/DP.BMP,resources/DR.BMP,Door1,-0.32037037,-0.002777778,1,0,0,0.7652,optionLeft,30,4390,2,42,0,42,0,1,,,,,,,,,,,,,,,,,,,,,,,,,,,,,,,,,,,,,,,
,,,,,,,,2023-08-16_09h09.10.805,HF_wild_card,2022.2.4,Win32,59.65163445,5f2ac7deaac0ef39060b0aae,64d2fd46c836a06233681665,64dc84121fbcb3a36286474a,,,,,,,ctch,resources/DG.BMP,resources/DY.BMP,Door3,-0.498148148,0.012037037,1,0,0,1.3326,optionLeft,70,4460,2,43,0,43,0,1,,,,,,,,,,,,,,,,,,,,,,,,,,,,,,,,,,,,,,,
,,,,,,,,2023-08-16_09h09.10.805,HF_wild_card,2022.2.4,Win32,59.65163445,5f2ac7deaac0ef39060b0aae,64d2fd46c836a06233681665,64dc84121fbcb3a36286474a,,,,,,,,,,,,,,,,,,,,,,,,,,1,0,1,0,1,,,,,,,,,,,,,,,,,,,,,,,,,,,,,,,,,,
,,,,,,,,2023-08-16_09h09.10.805,HF_wild_card,2022.2.4,Win32,59.65163445,5f2ac7deaac0ef39060b0aae,64d2fd46c836a06233681665,64dc84121fbcb3a36286474a,,,,,,,ctch,resources/DY.BMP,resources/DG.BMP,Door3,0.249074074,-0.038888889,1,0,0,1.1657,optionRight,70,4530,3,0,0,0,0,1,,,,,,,,,,,,,,,,,,,,,,,,,,,,,,,,,,,,,,,
,,,,,,,,2023-08-16_09h09.10.805,HF_wild_card,2022.2.4,Win32,59.65163445,5f2ac7deaac0ef39060b0aae,64d2fd46c836a06233681665,64dc84121fbcb3a36286474a,,,,,,,decisionTrl,resources/DBN.BMP,resources/DP.BMP,WildCard_NonEx,-0.456481481,0.023148148,1,0,0,1.1823,optionLeft,55,4585,3,1,0,1,0,1,,,,,,,,,,,,,,,,,,,,,,,,,,,,,,,,,,,,,,,
,,,,,,,,2023-08-16_09h09.10.805,HF_wild_card,2022.2.4,Win32,59.65163445,5f2ac7deaac0ef39060b0aae,64d2fd46c836a06233681665,64dc84121fbcb3a36286474a,,,,,,,ctch,resources/DR.BMP,resources/DP.BMP,Door4,-0.348148148,-0.012037037,1,0,0,1.0321,optionLeft,80,4665,3,2,0,2,0,1,,,,,,,,,,,,,,,,,,,,,,,,,,,,,,,,,,,,,,,
,,,,,,,,2023-08-16_09h09.10.805,HF_wild_card,2022.2.4,Win32,59.65163445,5f2ac7deaac0ef39060b0aae,64d2fd46c836a06233681665,64dc84121fbcb3a36286474a,,,,,,,decisionTrl,resources/DR.BMP,resources/DG.BMP,Door3,0.346296296,-0.023148148,1,0,0,1.1818,optionRight,70,4735,3,3,0,3,0,1,,,,,,,,,,,,,,,,,,,,,,,,,,,,,,,,,,,,,,,
,,,,,,,,2023-08-16_09h09.10.805,HF_wild_card,2022.2.4,Win32,59.65163445,5f2ac7deaac0ef39060b0aae,64d2fd46c836a06233681665,64dc84121fbcb3a36286474a,,,,,,,sngl,resources/DR.BMP,resources/Empty.png,Door4,-0.334259259,-0.009259259,1,0,0,0.4974,optionLeft,80,4815,3,4,0,4,0,1,,,,,,,,,,,,,,,,,,,,,,,,,,,,,,,,,,,,,,,
,,,,,,,,2023-08-16_09h09.10.805,HF_wild_card,2022.2.4,Win32,59.65163445,5f2ac7deaac0ef39060b0aae,64d2fd46c836a06233681665,64dc84121fbcb3a36286474a,,,,,,,decisionTrl,resources/DP.BMP,resources/DY.BMP,Door1,-0.435185185,0.013888889,1,0,0,0.881,optionLeft,30,4845,3,5,0,5,0,1,,,,,,,,,,,,,,,,,,,,,,,,,,,,,,,,,,,,,,,
,,,,,,,,2023-08-16_09h09.10.805,HF_wild_card,2022.2.4,Win32,59.65163445,5f2ac7deaac0ef39060b0aae,64d2fd46c836a06233681665,64dc84121fbcb3a36286474a,,,,,,,sngl,resources/Empty.png,resources/DR.BMP,Door4,0.27037037,0.005555556,1,0,0,2.4345,optionRight,60,4905,3,6,0,6,0,1,,,,,,,,,,,,,,,,,,,,,,,,,,,,,,,,,,,,,,,
,,,,,,,,2023-08-16_09h09.10.805,HF_wild_card,2022.2.4,Win32,59.65163445,5f2ac7deaac0ef39060b0aae,64d2fd46c836a06233681665,64dc84121fbcb3a36286474a,,,,,,,decisionTrl,resources/DR.BMP,resources/DG.BMP,Door4,-0.402777778,0.000925926,1,0,0,1.6836,optionLeft,60,4965,3,7,0,7,0,1,,,,,,,,,,,,,,,,,,,,,,,,,,,,,,,,,,,,,,,
,,,,,,,,2023-08-16_09h09.10.805,HF_wild_card,2022.2.4,Win32,59.65163445,5f2ac7deaac0ef39060b0aae,64d2fd46c836a06233681665,64dc84121fbcb3a36286474a,,,,,,,decisionTrl,resources/DY.BMP,resources/DBN.BMP,WildCard_NonEx,0.338888889,-0.008333333,1,0,0,1.0328,optionRight,45,5010,3,8,0,8,0,1,,,,,,,,,,,,,,,,,,,,,,,,,,,,,,,,,,,,,,,
,,,,,,,,2023-08-16_09h09.10.805,HF_wild_card,2022.2.4,Win32,59.65163445,5f2ac7deaac0ef39060b0aae,64d2fd46c836a06233681665,64dc84121fbcb3a36286474a,,,,,,,decisionTrl,resources/DBN.BMP,resources/DR.BMP,Door4,0.311111111,-0.019444444,1,0,0,1.0663,optionRight,60,5070,3,9,0,9,0,1,,,,,,,,,,,,,,,,,,,,,,,,,,,,,,,,,,,,,,,
,,,,,,,,2023-08-16_09h09.10.805,HF_wild_card,2022.2.4,Win32,59.65163445,5f2ac7deaac0ef39060b0aae,64d2fd46c836a06233681665,64dc84121fbcb3a36286474a,,,,,,,decisionTrl,resources/DP.BMP,resources/DBN.BMP,WildCard_NonEx,0.297222222,-0.023148148,1,0,0,0.5989,optionRight,55,5125,3,10,0,10,0,1,,,,,,,,,,,,,,,,,,,,,,,,,,,,,,,,,,,,,,,
,,,,,,,,2023-08-16_09h09.10.805,HF_wild_card,2022.2.4,Win32,59.65163445,5f2ac7deaac0ef39060b0aae,64d2fd46c836a06233681665,64dc84121fbcb3a36286474a,,,,,,,decisionTrl,resources/DG.BMP,resources/DR.BMP,Door4,0.414814815,-0.051851852,1,0,0,1.2652,optionRight,80,5205,3,11,0,11,0,1,,,,,,,,,,,,,,,,,,,,,,,,,,,,,,,,,,,,,,,
,,,,,,,,2023-08-16_09h09.10.805,HF_wild_card,2022.2.4,Win32,59.65163445,5f2ac7deaac0ef39060b0aae,64d2fd46c836a06233681665,64dc84121fbcb3a36286474a,,,,,,,decisionTrl,resources/DBN.BMP,resources/DY.BMP,WildCard_NonEx,-0.321296296,0.014814815,1,0,0,0.6809,optionLeft,55,5260,3,12,0,12,0,1,,,,,,,,,,,,,,,,,,,,,,,,,,,,,,,,,,,,,,,
,,,,,,,,2023-08-16_09h09.10.805,HF_wild_card,2022.2.4,Win32,59.65163445,5f2ac7deaac0ef39060b0aae,64d2fd46c836a06233681665,64dc84121fbcb3a36286474a,,,,,,,sngl,resources/DG.BMP,resources/Empty.png,Door3,-0.364814815,0.017592593,1,0,0,0.5314,optionLeft,70,5330,3,13,0,13,0,1,,,,,,,,,,,,,,,,,,,,,,,,,,,,,,,,,,,,,,,
,,,,,,,,2023-08-16_09h09.10.805,HF_wild_card,2022.2.4,Win32,59.65163445,5f2ac7deaac0ef39060b0aae,64d2fd46c836a06233681665,64dc84121fbcb3a36286474a,,,,,,,decisionTrl,resources/DBN.BMP,resources/DG.BMP,WildCard_NonEx,-0.384259259,0.025925926,1,0,0,1.0161,optionLeft,55,5385,3,14,0,14,0,1,,,,,,,,,,,,,,,,,,,,,,,,,,,,,,,,,,,,,,,
,,,,,,,,2023-08-16_09h09.10.805,HF_wild_card,2022.2.4,Win32,59.65163445,5f2ac7deaac0ef39060b0aae,64d2fd46c836a06233681665,64dc84121fbcb3a36286474a,,,,,,,sngl,resources/DP.BMP,resources/Empty.png,Door1,-0.319444444,0.00462963,1,0,0,0.5651,optionLeft,30,5415,3,15,0,15,0,1,,,,,,,,,,,,,,,,,,,,,,,,,,,,,,,,,,,,,,,
,,,,,,,,2023-08-16_09h09.10.805,HF_wild_card,2022.2.4,Win32,59.65163445,5f2ac7deaac0ef39060b0aae,64d2fd46c836a06233681665,64dc84121fbcb3a36286474a,,,,,,,sngl,resources/DY.BMP,resources/Empty.png,Door2,-0.412962963,0,1,0,0,0.4812,optionLeft,40,5455,3,16,0,16,0,1,,,,,,,,,,,,,,,,,,,,,,,,,,,,,,,,,,,,,,,
,,,,,,,,2023-08-16_09h09.10.805,HF_wild_card,2022.2.4,Win32,59.65163445,5f2ac7deaac0ef39060b0aae,64d2fd46c836a06233681665,64dc84121fbcb3a36286474a,,,,,,,sngl,resources/DBN.BMP,resources/Empty.png,WildCard_NonEx,-0.233333333,0.012037037,1,0,0,0.4806,optionLeft,45,5500,3,17,0,17,0,1,,,,,,,,,,,,,,,,,,,,,,,,,,,,,,,,,,,,,,,
,,,,,,,,2023-08-16_09h09.10.805,HF_wild_card,2022.2.4,Win32,59.65163445,5f2ac7deaac0ef39060b0aae,64d2fd46c836a06233681665,64dc84121fbcb3a36286474a,,,,,,,decisionTrl,resources/DG.BMP,resources/DR.BMP,Door4,0.269444444,0.005555556,1,0,0,3.0366,optionRight,80,5580,3,18,0,18,0,1,,,,,,,,,,,,,,,,,,,,,,,,,,,,,,,,,,,,,,,
,,,,,,,,2023-08-16_09h09.10.805,HF_wild_card,2022.2.4,Win32,59.65163445,5f2ac7deaac0ef39060b0aae,64d2fd46c836a06233681665,64dc84121fbcb3a36286474a,,,,,,,sngl,resources/Empty.png,resources/DY.BMP,Door2,0.324074074,-0.010185185,1,0,0,1.1985,optionRight,20,5600,3,19,0,19,0,1,,,,,,,,,,,,,,,,,,,,,,,,,,,,,,,,,,,,,,,
,,,,,,,,2023-08-16_09h09.10.805,HF_wild_card,2022.2.4,Win32,59.65163445,5f2ac7deaac0ef39060b0aae,64d2fd46c836a06233681665,64dc84121fbcb3a36286474a,,,,,,,decisionTrl,resources/DR.BMP,resources/DBN.BMP,Door4,-0.313888889,-0.009259259,1,0,0,2.0687,optionLeft,60,5660,3,20,0,20,0,1,,,,,,,,,,,,,,,,,,,,,,,,,,,,,,,,,,,,,,,
,,,,,,,,2023-08-16_09h09.10.805,HF_wild_card,2022.2.4,Win32,59.65163445,5f2ac7deaac0ef39060b0aae,64d2fd46c836a06233681665,64dc84121fbcb3a36286474a,,,,,,,ctch,resources/DY.BMP,resources/DG.BMP,Door3,0.319444444,-0.008333333,1,0,0,1.2999,optionRight,70,5730,3,21,0,21,0,1,,,,,,,,,,,,,,,,,,,,,,,,,,,,,,,,,,,,,,,
,,,,,,,,2023-08-16_09h09.10.805,HF_wild_card,2022.2.4,Win32,59.65163445,5f2ac7deaac0ef39060b0aae,64d2fd46c836a06233681665,64dc84121fbcb3a36286474a,,,,,,,decisionTrl,resources/DP.BMP,resources/DY.BMP,Door1,-0.253703704,-0.02962963,1,0,0,1.0996,optionLeft,30,5760,3,22,0,22,0,1,,,,,,,,,,,,,,,,,,,,,,,,,,,,,,,,,,,,,,,
,,,,,,,,2023-08-16_09h09.10.805,HF_wild_card,2022.2.4,Win32,59.65163445,5f2ac7deaac0ef39060b0aae,64d2fd46c836a06233681665,64dc84121fbcb3a36286474a,,,,,,,decisionTrl,resources/DY.BMP,resources/DP.BMP,Door1,0.213888889,-0.037037037,1,0,0,1.3175,optionRight,30,5790,3,23,0,23,0,1,,,,,,,,,,,,,,,,,,,,,,,,,,,,,,,,,,,,,,,
,,,,,,,,2023-08-16_09h09.10.805,HF_wild_card,2022.2.4,Win32,59.65163445,5f2ac7deaac0ef39060b0aae,64d2fd46c836a06233681665,64dc84121fbcb3a36286474a,,,,,,,sngl,resources/Empty.png,resources/DG.BMP,Door3,0.321296296,-0.031481481,1,0,0,0.7151,optionRight,70,5860,3,24,0,24,0,1,,,,,,,,,,,,,,,,,,,,,,,,,,,,,,,,,,,,,,,
,,,,,,,,2023-08-16_09h09.10.805,HF_wild_card,2022.2.4,Win32,59.65163445,5f2ac7deaac0ef39060b0aae,64d2fd46c836a06233681665,64dc84121fbcb3a36286474a,,,,,,,decisionTrl,resources/DY.BMP,resources/DP.BMP,Door1,0.292592593,-0.014814815,1,0,0,0.8153,optionRight,30,5890,3,25,0,25,0,1,,,,,,,,,,,,,,,,,,,,,,,,,,,,,,,,,,,,,,,
,,,,,,,,2023-08-16_09h09.10.805,HF_wild_card,2022.2.4,Win32,59.65163445,5f2ac7deaac0ef39060b0aae,64d2fd46c836a06233681665,64dc84121fbcb3a36286474a,,,,,,,ctch,resources/DP.BMP,resources/DR.BMP,Door4,0.361111111,-0.010185185,1,0,0,0.8651,optionRight,60,5950,3,26,0,26,0,1,,,,,,,,,,,,,,,,,,,,,,,,,,,,,,,,,,,,,,,
,,,,,,,,2023-08-16_09h09.10.805,HF_wild_card,2022.2.4,Win32,59.65163445,5f2ac7deaac0ef39060b0aae,64d2fd46c836a06233681665,64dc84121fbcb3a36286474a,,,,,,,decisionTrl,resources/DG.BMP,resources/DR.BMP,Door3,-0.358333333,-0.018518519,1,0,0,0.9327,optionLeft,70,6020,3,27,0,27,0,1,,,,,,,,,,,,,,,,,,,,,,,,,,,,,,,,,,,,,,,
,,,,,,,,2023-08-16_09h09.10.805,HF_wild_card,2022.2.4,Win32,59.65163445,5f2ac7deaac0ef39060b0aae,64d2fd46c836a06233681665,64dc84121fbcb3a36286474a,,,,,,,decisionTrl,resources/DG.BMP,resources/DBN.BMP,Door3,-0.373148148,-0.009259259,1,0,0,0.9994,optionLeft,70,6090,3,28,0,28,0,1,,,,,,,,,,,,,,,,,,,,,,,,,,,,,,,,,,,,,,,
,,,,,,,,2023-08-16_09h09.10.805,HF_wild_card,2022.2.4,Win32,59.65163445,5f2ac7deaac0ef39060b0aae,64d2fd46c836a06233681665,64dc84121fbcb3a36286474a,,,,,,,sngl,resources/Empty.png,resources/DP.BMP,Door1,0.300925926,-0.001851852,1,0,0,0.6145,optionRight,30,6120,3,29,0,29,0,1,,,,,,,,,,,,,,,,,,,,,,,,,,,,,,,,,,,,,,,
,,,,,,,,2023-08-16_09h09.10.805,HF_wild_card,2022.2.4,Win32,59.65163445,5f2ac7deaac0ef39060b0aae,64d2fd46c836a06233681665,64dc84121fbcb3a36286474a,,,,,,,decisionTrl,resources/DP.BMP,resources/DY.BMP,Door1,-0.261111111,-0.017592593,1,0,0,0.8148,optionLeft,30,6150,3,30,0,30,0,1,,,,,,,,,,,,,,,,,,,,,,,,,,,,,,,,,,,,,,,
,,,,,,,,2023-08-16_09h09.10.805,HF_wild_card,2022.2.4,Win32,59.65163445,5f2ac7deaac0ef39060b0aae,64d2fd46c836a06233681665,64dc84121fbcb3a36286474a,,,,,,,sngl,resources/DBN.BMP,resources/Empty.png,WildCard_NonEx,-0.217592593,-0.008333333,1,0,0,0.5473,optionLeft,55,6205,3,31,0,31,0,1,,,,,,,,,,,,,,,,,,,,,,,,,,,,,,,,,,,,,,,
,,,,,,,,2023-08-16_09h09.10.805,HF_wild_card,2022.2.4,Win32,59.65163445,5f2ac7deaac0ef39060b0aae,64d2fd46c836a06233681665,64dc84121fbcb3a36286474a,,,,,,,sngl,resources/Empty.png,resources/DBN.BMP,WildCard_NonEx,0.301851852,-0.005555556,1,0,0,0.4972,optionRight,45,6250,3,32,0,32,0,1,,,,,,,,,,,,,,,,,,,,,,,,,,,,,,,,,,,,,,,
,,,,,,,,2023-08-16_09h09.10.805,HF_wild_card,2022.2.4,Win32,59.65163445,5f2ac7deaac0ef39060b0aae,64d2fd46c836a06233681665,64dc84121fbcb3a36286474a,,,,,,,ctch,resources/DR.BMP,resources/DP.BMP,Door4,-0.280555556,-0.008333333,1,0,0,0.8319,optionLeft,80,6330,3,33,0,33,0,1,,,,,,,,,,,,,,,,,,,,,,,,,,,,,,,,,,,,,,,
,,,,,,,,2023-08-16_09h09.10.805,HF_wild_card,2022.2.4,Win32,59.65163445,5f2ac7deaac0ef39060b0aae,64d2fd46c836a06233681665,64dc84121fbcb3a36286474a,,,,,,,decisionTrl,resources/DR.BMP,resources/DG.BMP,Door3,0.233333333,-0.012962963,1,0,0,0.9824,optionRight,70,6400,3,34,0,34,0,1,,,,,,,,,,,,,,,,,,,,,,,,,,,,,,,,,,,,,,,
,,,,,,,,2023-08-16_09h09.10.805,HF_wild_card,2022.2.4,Win32,59.65163445,5f2ac7deaac0ef39060b0aae,64d2fd46c836a06233681665,64dc84121fbcb3a36286474a,,,,,,,decisionTrl,resources/DG.BMP,resources/DR.BMP,Door4,0.347222222,-0.013888889,1,0,0,0.7315,optionRight,60,6460,3,35,0,35,0,1,,,,,,,,,,,,,,,,,,,,,,,,,,,,,,,,,,,,,,,
,,,,,,,,2023-08-16_09h09.10.805,HF_wild_card,2022.2.4,Win32,59.65163445,5f2ac7deaac0ef39060b0aae,64d2fd46c836a06233681665,64dc84121fbcb3a36286474a,,,,,,,decisionTrl,resources/DP.BMP,resources/DY.BMP,Door1,-0.260185185,-0.015740741,1,0,0,0.9148,optionLeft,30,6490,3,36,0,36,0,1,,,,,,,,,,,,,,,,,,,,,,,,,,,,,,,,,,,,,,,
,,,,,,,,2023-08-16_09h09.10.805,HF_wild_card,2022.2.4,Win32,59.65163445,5f2ac7deaac0ef39060b0aae,64d2fd46c836a06233681665,64dc84121fbcb3a36286474a,,,,,,,sngl,resources/Empty.png,resources/DBN.BMP,WildCard_NonEx,0.274074074,-0.008333333,1,0,0,0.5309,optionRight,55,6545,3,37,0,37,0,1,,,,,,,,,,,,,,,,,,,,,,,,,,,,,,,,,,,,,,,
,,,,,,,,2023-08-16_09h09.10.805,HF_wild_card,2022.2.4,Win32,59.65163445,5f2ac7deaac0ef39060b0aae,64d2fd46c836a06233681665,64dc84121fbcb3a36286474a,,,,,,,ctch,resources/DG.BMP,resources/DY.BMP,Door2,0.336111111,-0.006481481,1,0,0,0.4809,optionRight,20,6565,3,38,0,38,0,1,,,,,,,,,,,,,,,,,,,,,,,,,,,,,,,,,,,,,,,
,,,,,,,,2023-08-16_09h09.10.805,HF_wild_card,2022.2.4,Win32,59.65163445,5f2ac7deaac0ef39060b0aae,64d2fd46c836a06233681665,64dc84121fbcb3a36286474a,,,,,,,ctch,resources/DP.BMP,resources/DR.BMP,Door4,0.330555556,-0.010185185,1,0,0,1.0658,optionRight,60,6625,3,39,0,39,0,1,,,,,,,,,,,,,,,,,,,,,,,,,,,,,,,,,,,,,,,
,,,,,,,,2023-08-16_09h09.10.805,HF_wild_card,2022.2.4,Win32,59.65163445,5f2ac7deaac0ef39060b0aae,64d2fd46c836a06233681665,64dc84121fbcb3a36286474a,,,,,,,ctch,resources/DG.BMP,resources/DY.BMP,Door3,-0.343518519,0.005555556,1,0,0,1.0495,optionLeft,70,6695,3,40,0,40,0,1,,,,,,,,,,,,,,,,,,,,,,,,,,,,,,,,,,,,,,,
,,,,,,,,2023-08-16_09h09.10.805,HF_wild_card,2022.2.4,Win32,59.65163445,5f2ac7deaac0ef39060b0aae,64d2fd46c836a06233681665,64dc84121fbcb3a36286474a,,,,,,,decisionTrl,resources/DR.BMP,resources/DG.BMP,Door4,-0.203703704,0.017592593,1,0,0,1.5168,optionLeft,60,6755,3,41,0,41,0,1,,,,,,,,,,,,,,,,,,,,,,,,,,,,,,,,,,,,,,,
,,,,,,,,2023-08-16_09h09.10.805,HF_wild_card,2022.2.4,Win32,59.65163445,5f2ac7deaac0ef39060b0aae,64d2fd46c836a06233681665,64dc84121fbcb3a36286474a,,,,,,,decisionTrl,resources/DY.BMP,resources/DP.BMP,Door1,0.388888889,0.009259259,1,0,0,1.616,optionRight,30,6785,3,42,0,42,0,1,,,,,,,,,,,,,,,,,,,,,,,,,,,,,,,,,,,,,,,
,,,,,,,,2023-08-16_09h09.10.805,HF_wild_card,2022.2.4,Win32,59.65163445,5f2ac7deaac0ef39060b0aae,64d2fd46c836a06233681665,64dc84121fbcb3a36286474a,,,,,,,decisionTrl,resources/DY.BMP,resources/DP.BMP,Door1,0.321296296,0,1,0,0,0.6812,optionRight,30,6815,3,43,0,43,0,1,,,,,,,,,,,,,,,,,,,,,,,,,,,,,,,,,,,,,,,
,,,,,,,,2023-08-16_09h09.10.805,HF_wild_card,2022.2.4,Win32,59.65163445,5f2ac7deaac0ef39060b0aae,64d2fd46c836a06233681665,64dc84121fbcb3a36286474a,,,,,,,,,,,,,,,,,,,,,,,,,,2,0,2,0,1,,,,,,,,,,,,,,,,,,,,,,,,,,,,,,,,,,
,,,,,,,,2023-08-16_09h09.10.805,HF_wild_card,2022.2.4,Win32,59.65163445,5f2ac7deaac0ef39060b0aae,64d2fd46c836a06233681665,64dc84121fbcb3a36286474a,,,,,,,decisionTrl,resources/DR.BMP,resources/DG.BMP,Door3,0.259259259,-0.060185185,1,0,0,1.0648,optionRight,70,6885,4,0,0,0,0,1,,,,,,,,,,,,,,,,,,,,,,,,,,,,,,,,,,,,,,,
,,,,,,,,2023-08-16_09h09.10.805,HF_wild_card,2022.2.4,Win32,59.65163445,5f2ac7deaac0ef39060b0aae,64d2fd46c836a06233681665,64dc84121fbcb3a36286474a,,,,,,,decisionTrl,resources/DY.BMP,resources/DP.BMP,Door1,0.257407407,-0.027777778,1,0,0,0.8823,optionRight,30,6915,4,1,0,1,0,1,,,,,,,,,,,,,,,,,,,,,,,,,,,,,,,,,,,,,,,
,,,,,,,,2023-08-16_09h09.10.805,HF_wild_card,2022.2.4,Win32,59.65163445,5f2ac7deaac0ef39060b0aae,64d2fd46c836a06233681665,64dc84121fbcb3a36286474a,,,,,,,sngl,resources/DP.BMP,resources/Empty.png,Door1,-0.362037037,-0.026851852,1,0,0,0.5479,optionLeft,30,6945,4,2,0,2,0,1,,,,,,,,,,,,,,,,,,,,,,,,,,,,,,,,,,,,,,,
,,,,,,,,2023-08-16_09h09.10.805,HF_wild_card,2022.2.4,Win32,59.65163445,5f2ac7deaac0ef39060b0aae,64d2fd46c836a06233681665,64dc84121fbcb3a36286474a,,,,,,,decisionTrl,resources/DY.BMP,resources/DP.BMP,Door1,0.328703704,-0.032407407,1,0,0,1.0157,optionRight,30,6975,4,3,0,3,0,1,,,,,,,,,,,,,,,,,,,,,,,,,,,,,,,,,,,,,,,
,,,,,,,,2023-08-16_09h09.10.805,HF_wild_card,2022.2.4,Win32,59.65163445,5f2ac7deaac0ef39060b0aae,64d2fd46c836a06233681665,64dc84121fbcb3a36286474a,,,,,,,decisionTrl,resources/DG.BMP,resources/DB.BMP,WildCard_Ex,0.440740741,-0.021296296,1,0,0,1.0155,optionRight,5,6980,4,4,0,4,0,1,,,,,,,,,,,,,,,,,,,,,,,,,,,,,,,,,,,,,,,
,,,,,,,,2023-08-16_09h09.10.805,HF_wild_card,2022.2.4,Win32,59.65163445,5f2ac7deaac0ef39060b0aae,64d2fd46c836a06233681665,64dc84121fbcb3a36286474a,,,,,,,sngl,resources/DY.BMP,resources/Empty.png,Door2,-0.424074074,0.003703704,1,0,0,0.4981,optionLeft,20,7000,4,5,0,5,0,1,,,,,,,,,,,,,,,,,,,,,,,,,,,,,,,,,,,,,,,
,,,,,,,,2023-08-16_09h09.10.805,HF_wild_card,2022.2.4,Win32,59.65163445,5f2ac7deaac0ef39060b0aae,64d2fd46c836a06233681665,64dc84121fbcb3a36286474a,,,,,,,decisionTrl,resources/DY.BMP,resources/DB.BMP,WildCard_Ex,0.305555556,-0.002777778,1,0,0,1.1157,optionRight,95,7095,4,6,0,6,0,1,,,,,,,,,,,,,,,,,,,,,,,,,,,,,,,,,,,,,,,
,,,,,,,,2023-08-16_09h09.10.805,HF_wild_card,2022.2.4,Win32,59.65163445,5f2ac7deaac0ef39060b0aae,64d2fd46c836a06233681665,64dc84121fbcb3a36286474a,,,,,,,decisionTrl,resources/DG.BMP,resources/DR.BMP,Door3,-0.347222222,-0.008333333,1,0,0,0.7483,optionLeft,70,7165,4,7,0,7,0,1,,,,,,,,,,,,,,,,,,,,,,,,,,,,,,,,,,,,,,,
,,,,,,,,2023-08-16_09h09.10.805,HF_wild_card,2022.2.4,Win32,59.65163445,5f2ac7deaac0ef39060b0aae,64d2fd46c836a06233681665,64dc84121fbcb3a36286474a,,,,,,,ctch,resources/DG.BMP,resources/DY.BMP,Door3,-0.283333333,-0.005555556,1,0,0,1.1158,optionLeft,70,7235,4,8,0,8,0,1,,,,,,,,,,,,,,,,,,,,,,,,,,,,,,,,,,,,,,,
,,,,,,,,2023-08-16_09h09.10.805,HF_wild_card,2022.2.4,Win32,59.65163445,5f2ac7deaac0ef39060b0aae,64d2fd46c836a06233681665,64dc84121fbcb3a36286474a,,,,,,,decisionTrl,resources/DP.BMP,resources/DY.BMP,Door1,-0.350925926,-0.00462963,1,0,0,1.7009,optionLeft,30,7265,4,9,0,9,0,1,,,,,,,,,,,,,,,,,,,,,,,,,,,,,,,,,,,,,,,
,,,,,,,,2023-08-16_09h09.10.805,HF_wild_card,2022.2.4,Win32,59.65163445,5f2ac7deaac0ef39060b0aae,64d2fd46c836a06233681665,64dc84121fbcb3a36286474a,,,,,,,sngl,resources/Empty.png,resources/DG.BMP,Door3,0.460185185,-0.022222222,1,0,0,0.6311,optionRight,70,7335,4,10,0,10,0,1,,,,,,,,,,,,,,,,,,,,,,,,,,,,,,,,,,,,,,,
,,,,,,,,2023-08-16_09h09.10.805,HF_wild_card,2022.2.4,Win32,59.65163445,5f2ac7deaac0ef39060b0aae,64d2fd46c836a06233681665,64dc84121fbcb3a36286474a,,,,,,,decisionTrl,resources/DG.BMP,resources/DR.BMP,Door4,0.359259259,-0.025925926,1,0,0,1.3491,optionRight,60,7395,4,11,0,11,0,1,,,,,,,,,,,,,,,,,,,,,,,,,,,,,,,,,,,,,,,
,,,,,,,,2023-08-16_09h09.10.805,HF_wild_card,2022.2.4,Win32,59.65163445,5f2ac7deaac0ef39060b0aae,64d2fd46c836a06233681665,64dc84121fbcb3a36286474a,,,,,,,decisionTrl,resources/DG.BMP,resources/DR.BMP,Door4,0.346296296,-0.02037037,1,0,0,0.7649,optionRight,80,7475,4,12,0,12,0,1,,,,,,,,,,,,,,,,,,,,,,,,,,,,,,,,,,,,,,,
,,,,,,,,2023-08-16_09h09.10.805,HF_wild_card,2022.2.4,Win32,59.65163445,5f2ac7deaac0ef39060b0aae,64d2fd46c836a06233681665,64dc84121fbcb3a36286474a,,,,,,,sngl,resources/Empty.png,resources/DY.BMP,Door2,0.308333333,-0.010185185,1,0,0,0.5475,optionRight,40,7515,4,13,0,13,0,1,,,,,,,,,,,,,,,,,,,,,,,,,,,,,,,,,,,,,,,
,,,,,,,,2023-08-16_09h09.10.805,HF_wild_card,2022.2.4,Win32,59.65163445,5f2ac7deaac0ef39060b0aae,64d2fd46c836a06233681665,64dc84121fbcb3a36286474a,,,,,,,ctch,resources/DY.BMP,resources/DG.BMP,Door2,-0.315740741,-0.006481481,1,0,0,0.7659,optionLeft,20,7535,4,14,0,14,0,1,,,,,,,,,,,,,,,,,,,,,,,,,,,,,,,,,,,,,,,
,,,,,,,,2023-08-16_09h09.10.805,HF_wild_card,2022.2.4,Win32,59.65163445,5f2ac7deaac0ef39060b0aae,64d2fd46c836a06233681665,64dc84121fbcb3a36286474a,,,,,,,ctch,resources/DR.BMP,resources/DP.BMP,Door4,-0.403703704,-0.00462963,1,0,0,1.1996,optionLeft,80,7615,4,15,0,15,0,1,,,,,,,,,,,,,,,,,,,,,,,,,,,,,,,,,,,,,,,
,,,,,,,,2023-08-16_09h09.10.805,HF_wild_card,2022.2.4,Win32,59.65163445,5f2ac7deaac0ef39060b0aae,64d2fd46c836a06233681665,64dc84121fbcb3a36286474a,,,,,,,decisionTrl,resources/DB.BMP,resources/DR.BMP,WildCard_Ex,-0.424074074,0,1,0,0,0.5984,optionLeft,5,7620,4,16,0,16,0,1,,,,,,,,,,,,,,,,,,,,,,,,,,,,,,,,,,,,,,,
,,,,,,,,2023-08-16_09h09.10.805,HF_wild_card,2022.2.4,Win32,59.65163445,5f2ac7deaac0ef39060b0aae,64d2fd46c836a06233681665,64dc84121fbcb3a36286474a,,,,,,,ctch,resources/DY.BMP,resources/DG.BMP,Door3,0.362037037,-0.000925926,1,0,0,2.2846,optionRight,70,7690,4,17,0,17,0,1,,,,,,,,,,,,,,,,,,,,,,,,,,,,,,,,,,,,,,,
,,,,,,,,2023-08-16_09h09.10.805,HF_wild_card,2022.2.4,Win32,59.65163445,5f2ac7deaac0ef39060b0aae,64d2fd46c836a06233681665,64dc84121fbcb3a36286474a,,,,,,,ctch,resources/DG.BMP,resources/DY.BMP,Door3,-0.415740741,0.015740741,1,0,0,0.999,optionLeft,70,7760,4,18,0,18,0,1,,,,,,,,,,,,,,,,,,,,,,,,,,,,,,,,,,,,,,,
,,,,,,,,2023-08-16_09h09.10.805,HF_wild_card,2022.2.4,Win32,59.65163445,5f2ac7deaac0ef39060b0aae,64d2fd46c836a06233681665,64dc84121fbcb3a36286474a,,,,,,,decisionTrl,resources/DP.BMP,resources/DY.BMP,Door1,-0.27962963,-0.003703704,1,0,0,1.1996,optionLeft,30,7790,4,19,0,19,0,1,,,,,,,,,,,,,,,,,,,,,,,,,,,,,,,,,,,,,,,
,,,,,,,,2023-08-16_09h09.10.805,HF_wild_card,2022.2.4,Win32,59.65163445,5f2ac7deaac0ef39060b0aae,64d2fd46c836a06233681665,64dc84121fbcb3a36286474a,,,,,,,decisionTrl,resources/DR.BMP,resources/DB.BMP,WildCard_Ex,0.397222222,-0.021296296,1,0,0,0.6652,optionRight,95,7885,4,20,0,20,0,1,,,,,,,,,,,,,,,,,,,,,,,,,,,,,,,,,,,,,,,
,,,,,,,,2023-08-16_09h09.10.805,HF_wild_card,2022.2.4,Win32,59.65163445,5f2ac7deaac0ef39060b0aae,64d2fd46c836a06233681665,64dc84121fbcb3a36286474a,,,,,,,decisionTrl,resources/DP.BMP,resources/DY.BMP,Door1,-0.302777778,-0.000925926,1,0,0,2.3513,optionLeft,30,7915,4,21,0,21,0,1,,,,,,,,,,,,,,,,,,,,,,,,,,,,,,,,,,,,,,,
,,,,,,,,2023-08-16_09h09.10.805,HF_wild_card,2022.2.4,Win32,59.65163445,5f2ac7deaac0ef39060b0aae,64d2fd46c836a06233681665,64dc84121fbcb3a36286474a,,,,,,,decisionTrl,resources/DY.BMP,resources/DP.BMP,Door2,-0.332407407,-0.008333333,1,0,0,0.8059,optionLeft,40,7955,4,22,0,22,0,1,,,,,,,,,,,,,,,,,,,,,,,,,,,,,,,,,,,,,,,
,,,,,,,,2023-08-16_09h09.10.805,HF_wild_card,2022.2.4,Win32,59.65163445,5f2ac7deaac0ef39060b0aae,64d2fd46c836a06233681665,64dc84121fbcb3a36286474a,,,,,,,sngl,resources/DR.BMP,resources/Empty.png,Door4,-0.3,-0.005555556,1,0,0,0.5832,optionLeft,60,8015,4,23,0,23,0,1,,,,,,,,,,,,,,,,,,,,,,,,,,,,,,,,,,,,,,,
,,,,,,,,2023-08-16_09h09.10.805,HF_wild_card,2022.2.4,Win32,59.65163445,5f2ac7deaac0ef39060b0aae,64d2fd46c836a06233681665,64dc84121fbcb3a36286474a,,,,,,,sngl,resources/DG.BMP,resources/Empty.png,Door3,-0.298148148,-0.007407407,1,0,0,0.51,optionLeft,70,8085,4,24,0,24,0,1,,,,,,,,,,,,,,,,,,,,,,,,,,,,,,,,,,,,,,,
,,,,,,,,2023-08-16_09h09.10.805,HF_wild_card,2022.2.4,Win32,59.65163445,5f2ac7deaac0ef39060b0aae,64d2fd46c836a06233681665,64dc84121fbcb3a36286474a,,,,,,,decisionTrl,resources/DR.BMP,resources/DG.BMP,Door4,-0.340740741,0.006481481,1,0,0,1.0722,optionLeft,60,8145,4,25,0,25,0,1,,,,,,,,,,,,,,,,,,,,,,,,,,,,,,,,,,,,,,,
,,,,,,,,2023-08-16_09h09.10.805,HF_wild_card,2022.2.4,Win32,59.65163445,5f2ac7deaac0ef39060b0aae,64d2fd46c836a06233681665,64dc84121fbcb3a36286474a,,,,,,,ctch,resources/DP.BMP,resources/DR.BMP,Door4,0.312962963,-0.026851852,1,0,0,0.8833,optionRight,80,8225,4,26,0,26,0,1,,,,,,,,,,,,,,,,,,,,,,,,,,,,,,,,,,,,,,,
,,,,,,,,2023-08-16_09h09.10.805,HF_wild_card,2022.2.4,Win32,59.65163445,5f2ac7deaac0ef39060b0aae,64d2fd46c836a06233681665,64dc84121fbcb3a36286474a,,,,,,,sngl,resources/DB.BMP,resources/Empty.png,WildCard_Ex,-0.381481481,-0.001851852,1,0,0,0.5601,optionLeft,5,8230,4,27,0,27,0,1,,,,,,,,,,,,,,,,,,,,,,,,,,,,,,,,,,,,,,,
,,,,,,,,2023-08-16_09h09.10.805,HF_wild_card,2022.2.4,Win32,59.65163445,5f2ac7deaac0ef39060b0aae,64d2fd46c836a06233681665,64dc84121fbcb3a36286474a,,,,,,,sngl,resources/Empty.png,resources/DP.BMP,Door1,0.412962963,-0.021296296,1,0,0,0.6046,optionRight,30,8260,4,28,0,28,0,1,,,,,,,,,,,,,,,,,,,,,,,,,,,,,,,,,,,,,,,
,,,,,,,,2023-08-16_09h09.10.805,HF_wild_card,2022.2.4,Win32,59.65163445,5f2ac7deaac0ef39060b0aae,64d2fd46c836a06233681665,64dc84121fbcb3a36286474a,,,,,,,decisionTrl,resources/DB.BMP,resources/DY.BMP,WildCard_Ex,-0.375925926,-0.00462963,1,0,0,1.0348,optionLeft,95,8355,4,29,0,29,0,1,,,,,,,,,,,,,,,,,,,,,,,,,,,,,,,,,,,,,,,
,,,,,,,,2023-08-16_09h09.10.805,HF_wild_card,2022.2.4,Win32,59.65163445,5f2ac7deaac0ef39060b0aae,64d2fd46c836a06233681665,64dc84121fbcb3a36286474a,,,,,,,decisionTrl,resources/DY.BMP,resources/DP.BMP,Door1,0.360185185,-0.036111111,1,0,0,1.0896,optionRight,30,8385,4,30,0,30,0,1,,,,,,,,,,,,,,,,,,,,,,,,,,,,,,,,,,,,,,,
,,,,,,,,2023-08-16_09h09.10.805,HF_wild_card,2022.2.4,Win32,59.65163445,5f2ac7deaac0ef39060b0aae,64d2fd46c836a06233681665,64dc84121fbcb3a36286474a,,,,,,,sngl,resources/DB.BMP,resources/Empty.png,WildCard_Ex,-0.391666667,-0.011111111,1,0,0,0.4767,optionLeft,95,8480,4,31,0,31,0,1,,,,,,,,,,,,,,,,,,,,,,,,,,,,,,,,,,,,,,,
,,,,,,,,2023-08-16_09h09.10.805,HF_wild_card,2022.2.4,Win32,59.65163445,5f2ac7deaac0ef39060b0aae,64d2fd46c836a06233681665,64dc84121fbcb3a36286474a,,,,,,,decisionTrl,resources/DG.BMP,resources/DR.BMP,Door4,0.324074074,-0.017592593,1,0,0,1.5524,optionRight,60,8540,4,32,0,32,0,1,,,,,,,,,,,,,,,,,,,,,,,,,,,,,,,,,,,,,,,
,,,,,,,,2023-08-16_09h09.10.805,HF_wild_card,2022.2.4,Win32,59.65163445,5f2ac7deaac0ef39060b0aae,64d2fd46c836a06233681665,64dc84121fbcb3a36286474a,,,,,,,decisionTrl,resources/DR.BMP,resources/DG.BMP,Door3,0.359259259,-0.025925926,1,0,0,0.5881,optionRight,70,8610,4,33,0,33,0,1,,,,,,,,,,,,,,,,,,,,,,,,,,,,,,,,,,,,,,,
,,,,,,,,2023-08-16_09h09.10.805,HF_wild_card,2022.2.4,Win32,59.65163445,5f2ac7deaac0ef39060b0aae,64d2fd46c836a06233681665,64dc84121fbcb3a36286474a,,,,,,,sngl,resources/Empty.png,resources/DR.BMP,Door4,0.3,-0.012962963,1,0,0,0.5159,optionRight,80,8690,4,34,0,34,0,1,,,,,,,,,,,,,,,,,,,,,,,,,,,,,,,,,,,,,,,
,,,,,,,,2023-08-16_09h09.10.805,HF_wild_card,2022.2.4,Win32,59.65163445,5f2ac7deaac0ef39060b0aae,64d2fd46c836a06233681665,64dc84121fbcb3a36286474a,,,,,,,ctch,resources/DR.BMP,resources/DP.BMP,Door4,-0.486111111,-0.009259259,1,0,0,0.6269,optionLeft,80,8770,4,35,0,35,0,1,,,,,,,,,,,,,,,,,,,,,,,,,,,,,,,,,,,,,,,
,,,,,,,,2023-08-16_09h09.10.805,HF_wild_card,2022.2.4,Win32,59.65163445,5f2ac7deaac0ef39060b0aae,64d2fd46c836a06233681665,64dc84121fbcb3a36286474a,,,,,,,sngl,resources/Empty.png,resources/DB.BMP,WildCard_Ex,0.248148148,-0.014814815,1,0,0,0.5526,optionRight,95,8865,4,36,0,36,0,1,,,,,,,,,,,,,,,,,,,,,,,,,,,,,,,,,,,,,,,
,,,,,,,,2023-08-16_09h09.10.805,HF_wild_card,2022.2.4,Win32,59.65163445,5f2ac7deaac0ef39060b0aae,64d2fd46c836a06233681665,64dc84121fbcb3a36286474a,,,,,,,decisionTrl,resources/DR.BMP,resources/DG.BMP,Door3,0.37962963,-0.025,1,0,0,1.0314,optionRight,70,8935,4,37,0,37,0,1,,,,,,,,,,,,,,,,,,,,,,,,,,,,,,,,,,,,,,,
,,,,,,,,2023-08-16_09h09.10.805,HF_wild_card,2022.2.4,Win32,59.65163445,5f2ac7deaac0ef39060b0aae,64d2fd46c836a06233681665,64dc84121fbcb3a36286474a,,,,,,,decisionTrl,resources/DB.BMP,resources/DG.BMP,Door3,0.299074074,-0.02037037,1,0,0,1.4358,optionRight,70,9005,4,38,0,38,0,1,,,,,,,,,,,,,,,,,,,,,,,,,,,,,,,,,,,,,,,
,,,,,,,,2023-08-16_09h09.10.805,HF_wild_card,2022.2.4,Win32,59.65163445,5f2ac7deaac0ef39060b0aae,64d2fd46c836a06233681665,64dc84121fbcb3a36286474a,,,,,,,sngl,resources/Empty.png,resources/DB.BMP,WildCard_Ex,0.333333333,-0.031481481,1,0,0,0.6497,optionRight,5,9010,4,39,0,39,0,1,,,,,,,,,,,,,,,,,,,,,,,,,,,,,,,,,,,,,,,
,,,,,,,,2023-08-16_09h09.10.805,HF_wild_card,2022.2.4,Win32,59.65163445,5f2ac7deaac0ef39060b0aae,64d2fd46c836a06233681665,64dc84121fbcb3a36286474a,,,,,,,decisionTrl,resources/DP.BMP,resources/DB.BMP,WildCard_Ex,0.316666667,-0.008333333,1,0,0,0.8993,optionRight,95,9105,4,40,0,40,0,1,,,,,,,,,,,,,,,,,,,,,,,,,,,,,,,,,,,,,,,
,,,,,,,,2023-08-16_09h09.10.805,HF_wild_card,2022.2.4,Win32,59.65163445,5f2ac7deaac0ef39060b0aae,64d2fd46c836a06233681665,64dc84121fbcb3a36286474a,,,,,,,ctch,resources/DP.BMP,resources/DR.BMP,Door4,0.322222222,-0.008333333,1,0,0,0.7486,optionRight,80,9185,4,41,0,41,0,1,,,,,,,,,,,,,,,,,,,,,,,,,,,,,,,,,,,,,,,
,,,,,,,,2023-08-16_09h09.10.805,HF_wild_card,2022.2.4,Win32,59.65163445,5f2ac7deaac0ef39060b0aae,64d2fd46c836a06233681665,64dc84121fbcb3a36286474a,,,,,,,decisionTrl,resources/DB.BMP,resources/DP.BMP,WildCard_Ex,-0.391666667,-0.006481481,1,0,0,0.9496,optionLeft,5,9190,4,42,0,42,0,1,,,,,,,,,,,,,,,,,,,,,,,,,,,,,,,,,,,,,,,
,,,,,,,,2023-08-16_09h09.10.805,HF_wild_card,2022.2.4,Win32,59.65163445,5f2ac7deaac0ef39060b0aae,64d2fd46c836a06233681665,64dc84121fbcb3a36286474a,,,,,,,decisionTrl,resources/DP.BMP,resources/DY.BMP,Door1,-0.388888889,-0.012037037,1,0,0,0.915,optionLeft,30,9220,4,43,0,43,0,1,,,,,,,,,,,,,,,,,,,,,,,,,,,,,,,,,,,,,,,
,,,,,,,,2023-08-16_09h09.10.805,HF_wild_card,2022.2.4,Win32,59.65163445,5f2ac7deaac0ef39060b0aae,64d2fd46c836a06233681665,64dc84121fbcb3a36286474a,,,,,,,,,,,,,,,,,,,,,,,,,,3,0,3,0,1,,,,,,,,,,,,,,,,,,,,,,,,,,,,,,,,,,
,,,,,,,,2023-08-16_09h09.10.805,HF_wild_card,2022.2.4,Win32,59.65163445,5f2ac7deaac0ef39060b0aae,64d2fd46c836a06233681665,64dc84121fbcb3a36286474a,,,,,,,decisionTrl,resources/DY.BMP,resources/DP.BMP,Door1,0.310185185,-0.1,1,0,0,0.8143,optionRight,30,9250,5,0,0,0,0,1,,,,,,,,,,,,,,,,,,,,,,,,,,,,,,,,,,,,,,,
,,,,,,,,2023-08-16_09h09.10.805,HF_wild_card,2022.2.4,Win32,59.65163445,5f2ac7deaac0ef39060b0aae,64d2fd46c836a06233681665,64dc84121fbcb3a36286474a,,,,,,,decisionTrl,resources/DG.BMP,resources/DR.BMP,Door3,-0.337962963,-0.025,1,0,0,0.8154,optionLeft,70,9320,5,1,0,1,0,1,,,,,,,,,,,,,,,,,,,,,,,,,,,,,,,,,,,,,,,
,,,,,,,,2023-08-16_09h09.10.805,HF_wild_card,2022.2.4,Win32,59.65163445,5f2ac7deaac0ef39060b0aae,64d2fd46c836a06233681665,64dc84121fbcb3a36286474a,,,,,,,decisionTrl,resources/DG.BMP,resources/DR.BMP,Door3,-0.344444444,-0.011111111,1,0,0,0.5994,optionLeft,70,9390,5,2,0,2,0,1,,,,,,,,,,,,,,,,,,,,,,,,,,,,,,,,,,,,,,,
,,,,,,,,2023-08-16_09h09.10.805,HF_wild_card,2022.2.4,Win32,59.65163445,5f2ac7deaac0ef39060b0aae,64d2fd46c836a06233681665,64dc84121fbcb3a36286474a,,,,,,,decisionTrl,resources/DY.BMP,resources/DP.BMP,Door2,-0.289814815,-0.017592593,1,0,0,1.4686,optionLeft,40,9430,5,3,0,3,0,1,,,,,,,,,,,,,,,,,,,,,,,,,,,,,,,,,,,,,,,
,,,,,,,,2023-08-16_09h09.10.805,HF_wild_card,2022.2.4,Win32,59.65163445,5f2ac7deaac0ef39060b0aae,64d2fd46c836a06233681665,64dc84121fbcb3a36286474a,,,,,,,ctch,resources/DY.BMP,resources/DG.BMP,Door2,-0.291666667,-0.026851852,1,0,0,0.7155,optionLeft,20,9450,5,4,0,4,0,1,,,,,,,,,,,,,,,,,,,,,,,,,,,,,,,,,,,,,,,
,,,,,,,,2023-08-16_09h09.10.805,HF_wild_card,2022.2.4,Win32,59.65163445,5f2ac7deaac0ef39060b0aae,64d2fd46c836a06233681665,64dc84121fbcb3a36286474a,,,,,,,decisionTrl,resources/DY.BMP,resources/DB.BMP,WildCard_Ex,0.367592593,-0.036111111,1,0,0,0.7651,optionRight,5,9455,5,5,0,5,0,1,,,,,,,,,,,,,,,,,,,,,,,,,,,,,,,,,,,,,,,
,,,,,,,,2023-08-16_09h09.10.805,HF_wild_card,2022.2.4,Win32,59.65163445,5f2ac7deaac0ef39060b0aae,64d2fd46c836a06233681665,64dc84121fbcb3a36286474a,,,,,,,sngl,resources/Empty.png,resources/DB.BMP,WildCard_Ex,0.284259259,-0.012962963,1,0,0,0.5993,optionRight,5,9460,5,6,0,6,0,1,,,,,,,,,,,,,,,,,,,,,,,,,,,,,,,,,,,,,,,
,,,,,,,,2023-08-16_09h09.10.805,HF_wild_card,2022.2.4,Win32,59.65163445,5f2ac7deaac0ef39060b0aae,64d2fd46c836a06233681665,64dc84121fbcb3a36286474a,,,,,,,decisionTrl,resources/DP.BMP,resources/DY.BMP,Door2,0.323148148,-0.018518519,1,0,0,0.7842,optionRight,20,9480,5,7,0,7,0,1,,,,,,,,,,,,,,,,,,,,,,,,,,,,,,,,,,,,,,,
,,,,,,,,2023-08-16_09h09.10.805,HF_wild_card,2022.2.4,Win32,59.65163445,5f2ac7deaac0ef39060b0aae,64d2fd46c836a06233681665,64dc84121fbcb3a36286474a,,,,,,,ctch,resources/DP.BMP,resources/DR.BMP,Door4,0.337962963,-0.031481481,1,0,0,2.3515,optionRight,60,9540,5,8,0,8,0,1,,,,,,,,,,,,,,,,,,,,,,,,,,,,,,,,,,,,,,,
,,,,,,,,2023-08-16_09h09.10.805,HF_wild_card,2022.2.4,Win32,59.65163445,5f2ac7deaac0ef39060b0aae,64d2fd46c836a06233681665,64dc84121fbcb3a36286474a,,,,,,,decisionTrl,resources/DR.BMP,resources/DG.BMP,Door3,0.309259259,-0.007407407,1,0,0,0.8827,optionRight,70,9610,5,9,0,9,0,1,,,,,,,,,,,,,,,,,,,,,,,,,,,,,,,,,,,,,,,
,,,,,,,,2023-08-16_09h09.10.805,HF_wild_card,2022.2.4,Win32,59.65163445,5f2ac7deaac0ef39060b0aae,64d2fd46c836a06233681665,64dc84121fbcb3a36286474a,,,,,,,decisionTrl,resources/DR.BMP,resources/DG.BMP,Door3,0.247222222,-0.011111111,1,0,0,0.6664,optionRight,70,9680,5,10,0,10,0,1,,,,,,,,,,,,,,,,,,,,,,,,,,,,,,,,,,,,,,,
,,,,,,,,2023-08-16_09h09.10.805,HF_wild_card,2022.2.4,Win32,59.65163445,5f2ac7deaac0ef39060b0aae,64d2fd46c836a06233681665,64dc84121fbcb3a36286474a,,,,,,,sngl,resources/Empty.png,resources/DB.BMP,WildCard_Ex,0.282407407,-0.008333333,1,0,0,0.6821,optionRight,95,9775,5,11,0,11,0,1,,,,,,,,,,,,,,,,,,,,,,,,,,,,,,,,,,,,,,,
,,,,,,,,2023-08-16_09h09.10.805,HF_wild_card,2022.2.4,Win32,59.65163445,5f2ac7deaac0ef39060b0aae,64d2fd46c836a06233681665,64dc84121fbcb3a36286474a,,,,,,,decisionTrl,resources/DY.BMP,resources/DP.BMP,Door2,-0.303703704,-0.008333333,1,0,0,0.7821,optionLeft,20,9795,5,12,0,12,0,1,,,,,,,,,,,,,,,,,,,,,,,,,,,,,,,,,,,,,,,
,,,,,,,,2023-08-16_09h09.10.805,HF_wild_card,2022.2.4,Win32,59.65163445,5f2ac7deaac0ef39060b0aae,64d2fd46c836a06233681665,64dc84121fbcb3a36286474a,,,,,,,sngl,resources/Empty.png,resources/DR.BMP,Door4,0.355555556,-0.026851852,1,0,0,0.5142,optionRight,60,9855,5,13,0,13,0,1,,,,,,,,,,,,,,,,,,,,,,,,,,,,,,,,,,,,,,,
,,,,,,,,2023-08-16_09h09.10.805,HF_wild_card,2022.2.4,Win32,59.65163445,5f2ac7deaac0ef39060b0aae,64d2fd46c836a06233681665,64dc84121fbcb3a36286474a,,,,,,,decisionTrl,resources/DP.BMP,resources/DB.BMP,WildCard_Ex,0.339814815,-0.008333333,1,0,0,1.083,optionRight,5,9860,5,14,0,14,0,1,,,,,,,,,,,,,,,,,,,,,,,,,,,,,,,,,,,,,,,
,,,,,,,,2023-08-16_09h09.10.805,HF_wild_card,2022.2.4,Win32,59.65163445,5f2ac7deaac0ef39060b0aae,64d2fd46c836a06233681665,64dc84121fbcb3a36286474a,,,,,,,sngl,resources/DY.BMP,resources/Empty.png,Door2,-0.365740741,-0.011111111,1,0,0,0.5158,optionLeft,40,9900,5,15,0,15,0,1,,,,,,,,,,,,,,,,,,,,,,,,,,,,,,,,,,,,,,,
,,,,,,,,2023-08-16_09h09.10.805,HF_wild_card,2022.2.4,Win32,59.65163445,5f2ac7deaac0ef39060b0aae,64d2fd46c836a06233681665,64dc84121fbcb3a36286474a,,,,,,,ctch,resources/DG.BMP,resources/DY.BMP,Door3,-0.390740741,0.003703704,1,0,0,0.7671,optionLeft,70,9970,5,16,0,16,0,1,,,,,,,,,,,,,,,,,,,,,,,,,,,,,,,,,,,,,,,
,,,,,,,,2023-08-16_09h09.10.805,HF_wild_card,2022.2.4,Win32,59.65163445,5f2ac7deaac0ef39060b0aae,64d2fd46c836a06233681665,64dc84121fbcb3a36286474a,,,,,,,decisionTrl,resources/DP.BMP,resources/DY.BMP,Door2,0.364814815,-0.015740741,1,0,0,0.8159,optionRight,40,10010,5,17,0,17,0,1,,,,,,,,,,,,,,,,,,,,,,,,,,,,,,,,,,,,,,,
,,,,,,,,2023-08-16_09h09.10.805,HF_wild_card,2022.2.4,Win32,59.65163445,5f2ac7deaac0ef39060b0aae,64d2fd46c836a06233681665,64dc84121fbcb3a36286474a,,,,,,,sngl,resources/Empty.png,resources/DP.BMP,Door1,0.337037037,-0.013888889,1,0,0,0.5978,optionRight,30,10040,5,18,0,18,0,1,,,,,,,,,,,,,,,,,,,,,,,,,,,,,,,,,,,,,,,
,,,,,,,,2023-08-16_09h09.10.805,HF_wild_card,2022.2.4,Win32,59.65163445,5f2ac7deaac0ef39060b0aae,64d2fd46c836a06233681665,64dc84121fbcb3a36286474a,,,,,,,sngl,resources/DG.BMP,resources/Empty.png,Door3,-0.309259259,0.000925926,1,0,0,0.5829,optionLeft,70,10110,5,19,0,19,0,1,,,,,,,,,,,,,,,,,,,,,,,,,,,,,,,,,,,,,,,
,,,,,,,,2023-08-16_09h09.10.805,HF_wild_card,2022.2.4,Win32,59.65163445,5f2ac7deaac0ef39060b0aae,64d2fd46c836a06233681665,64dc84121fbcb3a36286474a,,,,,,,decisionTrl,resources/DP.BMP,resources/DY.BMP,Door1,-0.298148148,-0.002777778,1,0,0,0.6004,optionLeft,30,10140,5,20,0,20,0,1,,,,,,,,,,,,,,,,,,,,,,,,,,,,,,,,,,,,,,,
,,,,,,,,2023-08-16_09h09.10.805,HF_wild_card,2022.2.4,Win32,59.65163445,5f2ac7deaac0ef39060b0aae,64d2fd46c836a06233681665,64dc84121fbcb3a36286474a,,,,,,,decisionTrl,resources/DB.BMP,resources/DY.BMP,WildCard_Ex,-0.359259259,0.000925926,1,0,0,0.9664,optionLeft,95,10235,5,21,0,21,0,1,,,,,,,,,,,,,,,,,,,,,,,,,,,,,,,,,,,,,,,
,,,,,,,,2023-08-16_09h09.10.805,HF_wild_card,2022.2.4,Win32,59.65163445,5f2ac7deaac0ef39060b0aae,64d2fd46c836a06233681665,64dc84121fbcb3a36286474a,,,,,,,decisionTrl,resources/DG.BMP,resources/DR.BMP,Door3,-0.321296296,0.006481481,1,0,0,1.3182,optionLeft,70,10305,5,22,0,22,0,1,,,,,,,,,,,,,,,,,,,,,,,,,,,,,,,,,,,,,,,
,,,,,,,,2023-08-16_09h09.10.805,HF_wild_card,2022.2.4,Win32,59.65163445,5f2ac7deaac0ef39060b0aae,64d2fd46c836a06233681665,64dc84121fbcb3a36286474a,,,,,,,sngl,resources/DP.BMP,resources/Empty.png,Door1,-0.403703704,0.001851852,1,0,0,0.5496,optionLeft,30,10335,5,23,0,23,0,1,,,,,,,,,,,,,,,,,,,,,,,,,,,,,,,,,,,,,,,
,,,,,,,,2023-08-16_09h09.10.805,HF_wild_card,2022.2.4,Win32,59.65163445,5f2ac7deaac0ef39060b0aae,64d2fd46c836a06233681665,64dc84121fbcb3a36286474a,,,,,,,decisionTrl,resources/DG.BMP,resources/DR.BMP,Door3,-0.325,0.008333333,1,0,0,0.9343,optionLeft,70,10405,5,24,0,24,0,1,,,,,,,,,,,,,,,,,,,,,,,,,,,,,,,,,,,,,,,
,,,,,,,,2023-08-16_09h09.10.805,HF_wild_card,2022.2.4,Win32,59.65163445,5f2ac7deaac0ef39060b0aae,64d2fd46c836a06233681665,64dc84121fbcb3a36286474a,,,,,,,ctch,resources/DP.BMP,resources/DR.BMP,Door4,0.285185185,-0.022222222,1,0,0,0.982,optionRight,60,10465,5,25,0,25,0,1,,,,,,,,,,,,,,,,,,,,,,,,,,,,,,,,,,,,,,,
,,,,,,,,2023-08-16_09h09.10.805,HF_wild_card,2022.2.4,Win32,59.65163445,5f2ac7deaac0ef39060b0aae,64d2fd46c836a06233681665,64dc84121fbcb3a36286474a,,,,,,,ctch,resources/DR.BMP,resources/DP.BMP,Door4,-0.344444444,-0.002777778,1,0,0,1.1149,optionLeft,60,10525,5,26,0,26,0,1,,,,,,,,,,,,,,,,,,,,,,,,,,,,,,,,,,,,,,,
,,,,,,,,2023-08-16_09h09.10.805,HF_wild_card,2022.2.4,Win32,59.65163445,5f2ac7deaac0ef39060b0aae,64d2fd46c836a06233681665,64dc84121fbcb3a36286474a,,,,,,,ctch,resources/DR.BMP,resources/DP.BMP,Door4,-0.327777778,-0.009259259,1,0,0,0.5161,optionLeft,60,10585,5,27,0,27,0,1,,,,,,,,,,,,,,,,,,,,,,,,,,,,,,,,,,,,,,,
,,,,,,,,2023-08-16_09h09.10.805,HF_wild_card,2022.2.4,Win32,59.65163445,5f2ac7deaac0ef39060b0aae,64d2fd46c836a06233681665,64dc84121fbcb3a36286474a,,,,,,,decisionTrl,resources/DB.BMP,resources/DG.BMP,WildCard_Ex,-0.5,-0.009259259,1,0,0,1.1178,optionLeft,5,10590,5,28,0,28,0,1,,,,,,,,,,,,,,,,,,,,,,,,,,,,,,,,,,,,,,,
,,,,,,,,2023-08-16_09h09.10.805,HF_wild_card,2022.2.4,Win32,59.65163445,5f2ac7deaac0ef39060b0aae,64d2fd46c836a06233681665,64dc84121fbcb3a36286474a,,,,,,,sngl,resources/DB.BMP,resources/Empty.png,WildCard_Ex,-0.382407407,-0.00462963,1,0,0,0.5144,optionLeft,5,10595,5,29,0,29,0,1,,,,,,,,,,,,,,,,,,,,,,,,,,,,,,,,,,,,,,,
,,,,,,,,2023-08-16_09h09.10.805,HF_wild_card,2022.2.4,Win32,59.65163445,5f2ac7deaac0ef39060b0aae,64d2fd46c836a06233681665,64dc84121fbcb3a36286474a,,,,,,,ctch,resources/DY.BMP,resources/DG.BMP,Door3,0.376851852,-0.008333333,1,0,0,0.5978,optionRight,70,10665,5,30,0,30,0,1,,,,,,,,,,,,,,,,,,,,,,,,,,,,,,,,,,,,,,,
,,,,,,,,2023-08-16_09h09.10.805,HF_wild_card,2022.2.4,Win32,59.65163445,5f2ac7deaac0ef39060b0aae,64d2fd46c836a06233681665,64dc84121fbcb3a36286474a,,,,,,,decisionTrl,resources/DB.BMP,resources/DR.BMP,WildCard_Ex,-0.272222222,-0.001851852,1,0,0,1.5666,optionLeft,95,10760,5,31,0,31,0,1,,,,,,,,,,,,,,,,,,,,,,,,,,,,,,,,,,,,,,,
,,,,,,,,2023-08-16_09h09.10.805,HF_wild_card,2022.2.4,Win32,59.65163445,5f2ac7deaac0ef39060b0aae,64d2fd46c836a06233681665,64dc84121fbcb3a36286474a,,,,,,,ctch,resources/DG.BMP,resources/DY.BMP,Door3,-0.348148148,-0.018518519,1,0,0,0.6489,optionLeft,70,10830,5,32,0,32,0,1,,,,,,,,,,,,,,,,,,,,,,,,,,,,,,,,,,,,,,,
,,,,,,,,2023-08-16_09h09.10.805,HF_wild_card,2022.2.4,Win32,59.65163445,5f2ac7deaac0ef39060b0aae,64d2fd46c836a06233681665,64dc84121fbcb3a36286474a,,,,,,,sngl,resources/Empty.png,resources/DY.BMP,Door2,0.297222222,-0.015740741,1,0,0,0.5331,optionRight,20,10850,5,33,0,33,0,1,,,,,,,,,,,,,,,,,,,,,,,,,,,,,,,,,,,,,,,
,,,,,,,,2023-08-16_09h09.10.805,HF_wild_card,2022.2.4,Win32,59.65163445,5f2ac7deaac0ef39060b0aae,64d2fd46c836a06233681665,64dc84121fbcb3a36286474a,,,,,,,sngl,resources/Empty.png,resources/DG.BMP,Door3,0.278703704,-0.007407407,1,0,0,0.5157,optionRight,70,10920,5,34,0,34,0,1,,,,,,,,,,,,,,,,,,,,,,,,,,,,,,,,,,,,,,,
,,,,,,,,2023-08-16_09h09.10.805,HF_wild_card,2022.2.4,Win32,59.65163445,5f2ac7deaac0ef39060b0aae,64d2fd46c836a06233681665,64dc84121fbcb3a36286474a,,,,,,,sngl,resources/DB.BMP,resources/Empty.png,WildCard_Ex,-0.344444444,-0.011111111,1,0,0,0.4818,optionLeft,95,11015,5,35,0,35,0,1,,,,,,,,,,,,,,,,,,,,,,,,,,,,,,,,,,,,,,,
,,,,,,,,2023-08-16_09h09.10.805,HF_wild_card,2022.2.4,Win32,59.65163445,5f2ac7deaac0ef39060b0aae,64d2fd46c836a06233681665,64dc84121fbcb3a36286474a,,,,,,,decisionTrl,resources/DY.BMP,resources/DP.BMP,Door1,0.340740741,-0.002777778,1,0,0,1.1179,optionRight,30,11045,5,36,0,36,0,1,,,,,,,,,,,,,,,,,,,,,,,,,,,,,,,,,,,,,,,
,,,,,,,,2023-08-16_09h09.10.805,HF_wild_card,2022.2.4,Win32,59.65163445,5f2ac7deaac0ef39060b0aae,64d2fd46c836a06233681665,64dc84121fbcb3a36286474a,,,,,,,decisionTrl,resources/DR.BMP,resources/DG.BMP,Door3,0.358333333,-0.011111111,1,0,0,0.7477,optionRight,70,11115,5,37,0,37,0,1,,,,,,,,,,,,,,,,,,,,,,,,,,,,,,,,,,,,,,,
,,,,,,,,2023-08-16_09h09.10.805,HF_wild_card,2022.2.4,Win32,59.65163445,5f2ac7deaac0ef39060b0aae,64d2fd46c836a06233681665,64dc84121fbcb3a36286474a,,,,,,,decisionTrl,resources/DR.BMP,resources/DG.BMP,Door4,-0.308333333,-0.011111111,1,0,0,0.8161,optionLeft,60,11175,5,38,0,38,0,1,,,,,,,,,,,,,,,,,,,,,,,,,,,,,,,,,,,,,,,
,,,,,,,,2023-08-16_09h09.10.805,HF_wild_card,2022.2.4,Win32,59.65163445,5f2ac7deaac0ef39060b0aae,64d2fd46c836a06233681665,64dc84121fbcb3a36286474a,,,,,,,decisionTrl,resources/DR.BMP,resources/DB.BMP,WildCard_Ex,0.426851852,-0.012037037,1,0,0,1.2672,optionRight,95,11270,5,39,0,39,0,1,,,,,,,,,,,,,,,,,,,,,,,,,,,,,,,,,,,,,,,
,,,,,,,,2023-08-16_09h09.10.805,HF_wild_card,2022.2.4,Win32,59.65163445,5f2ac7deaac0ef39060b0aae,64d2fd46c836a06233681665,64dc84121fbcb3a36286474a,,,,,,,decisionTrl,resources/DB.BMP,resources/DP.BMP,WildCard_Ex,-0.308333333,-0.022222222,1,0,0,1.1831,optionLeft,95,11365,5,40,0,40,0,1,,,,,,,,,,,,,,,,,,,,,,,,,,,,,,,,,,,,,,,
,,,,,,,,2023-08-16_09h09.10.805,HF_wild_card,2022.2.4,Win32,59.65163445,5f2ac7deaac0ef39060b0aae,64d2fd46c836a06233681665,64dc84121fbcb3a36286474a,,,,,,,decisionTrl,resources/DP.BMP,resources/DY.BMP,Door2,0.396296296,-0.002777778,1,0,0,1.2343,optionRight,40,11405,5,41,0,41,0,1,,,,,,,,,,,,,,,,,,,,,,,,,,,,,,,,,,,,,,,
,,,,,,,,2023-08-16_09h09.10.805,HF_wild_card,2022.2.4,Win32,59.65163445,5f2ac7deaac0ef39060b0aae,64d2fd46c836a06233681665,64dc84121fbcb3a36286474a,,,,,,,decisionTrl,resources/DG.BMP,resources/DB.BMP,Door3,-0.390740741,-0.009259259,1,0,0,0.9657,optionLeft,70,11475,5,42,0,42,0,1,,,,,,,,,,,,,,,,,,,,,,,,,,,,,,,,,,,,,,,
,,,,,,,,2023-08-16_09h09.10.805,HF_wild_card,2022.2.4,Win32,59.65163445,5f2ac7deaac0ef39060b0aae,64d2fd46c836a06233681665,64dc84121fbcb3a36286474a,,,,,,,sngl,resources/DR.BMP,resources/Empty.png,Door4,-0.335185185,-0.016666667,1,0,0,0.6144,optionLeft,80,11555,5,43,0,43,0,1,,,,,,,,,,,,,,,,,,,,,,,,,,,,,,,,,,,,,,,
,,,,,,,,2023-08-16_09h09.10.805,HF_wild_card,2022.2.4,Win32,59.65163445,5f2ac7deaac0ef39060b0aae,64d2fd46c836a06233681665,64dc84121fbcb3a36286474a,,,,,,,,,,,,,,,,,,,,,,,,,,4,0,4,0,1,,,,,,,,,,,,,,,,,,,,,,,,,,,,,,,,,,
,,,,,,,,2023-08-16_09h09.10.805,HF_wild_card,2022.2.4,Win32,59.65163445,5f2ac7deaac0ef39060b0aae,64d2fd46c836a06233681665,64dc84121fbcb3a36286474a,,,,,,,decisionTrl,resources/DR.BMP,resources/DG.BMP,Door3,0.342592593,-0.036111111,1,0,0,1.1009,optionRight,70,11625,6,0,0,0,0,1,,,,,,,,,,,,,,,,,,,,,,,,,,,,,,,,,,,,,,,
,,,,,,,,2023-08-16_09h09.10.805,HF_wild_card,2022.2.4,Win32,59.65163445,5f2ac7deaac0ef39060b0aae,64d2fd46c836a06233681665,64dc84121fbcb3a36286474a,,,,,,,decisionTrl,resources/DG.BMP,resources/DR.BMP,Door3,-0.431481481,-0.013888889,1,0,0,0.6991,optionLeft,70,11695,6,1,0,1,0,1,,,,,,,,,,,,,,,,,,,,,,,,,,,,,,,,,,,,,,,
,,,,,,,,2023-08-16_09h09.10.805,HF_wild_card,2022.2.4,Win32,59.65163445,5f2ac7deaac0ef39060b0aae,64d2fd46c836a06233681665,64dc84121fbcb3a36286474a,,,,,,,decisionTrl,resources/DP.BMP,resources/DY.BMP,Door1,-0.333333333,-0.017592593,1,0,0,0.8992,optionLeft,30,11725,6,2,0,2,0,1,,,,,,,,,,,,,,,,,,,,,,,,,,,,,,,,,,,,,,,
,,,,,,,,2023-08-16_09h09.10.805,HF_wild_card,2022.2.4,Win32,59.65163445,5f2ac7deaac0ef39060b0aae,64d2fd46c836a06233681665,64dc84121fbcb3a36286474a,,,,,,,decisionTrl,resources/DR.BMP,resources/DG.BMP,Door3,0.276851852,0.000925926,1,0,0,0.9657,optionRight,70,11795,6,3,0,3,0,1,,,,,,,,,,,,,,,,,,,,,,,,,,,,,,,,,,,,,,,
,,,,,,,,2023-08-16_09h09.10.805,HF_wild_card,2022.2.4,Win32,59.65163445,5f2ac7deaac0ef39060b0aae,64d2fd46c836a06233681665,64dc84121fbcb3a36286474a,,,,,,,sngl,resources/Empty.png,resources/DY.BMP,Door2,0.303703704,-0.002777778,1,0,0,0.5505,optionRight,40,11835,6,4,0,4,0,1,,,,,,,,,,,,,,,,,,,,,,,,,,,,,,,,,,,,,,,
,,,,,,,,2023-08-16_09h09.10.805,HF_wild_card,2022.2.4,Win32,59.65163445,5f2ac7deaac0ef39060b0aae,64d2fd46c836a06233681665,64dc84121fbcb3a36286474a,,,,,,,sngl,resources/DR.BMP,resources/Empty.png,Door4,-0.426851852,-0.010185185,1,0,0,0.4662,optionLeft,60,11895,6,5,0,5,0,1,,,,,,,,,,,,,,,,,,,,,,,,,,,,,,,,,,,,,,,
,,,,,,,,2023-08-16_09h09.10.805,HF_wild_card,2022.2.4,Win32,59.65163445,5f2ac7deaac0ef39060b0aae,64d2fd46c836a06233681665,64dc84121fbcb3a36286474a,,,,,,,decisionTrl,resources/DY.BMP,resources/DP.BMP,Door2,-0.315740741,-0.037962963,1,0,0,0.8502,optionLeft,20,11915,6,6,0,6,0,1,,,,,,,,,,,,,,,,,,,,,,,,,,,,,,,,,,,,,,,
,,,,,,,,2023-08-16_09h09.10.805,HF_wild_card,2022.2.4,Win32,59.65163445,5f2ac7deaac0ef39060b0aae,64d2fd46c836a06233681665,64dc84121fbcb3a36286474a,,,,,,,decisionTrl,resources/DP.BMP,resources/DY.BMP,Door1,-0.406481481,-0.023148148,1,0,0,0.6144,optionLeft,30,11945,6,7,0,7,0,1,,,,,,,,,,,,,,,,,,,,,,,,,,,,,,,,,,,,,,,
,,,,,,,,2023-08-16_09h09.10.805,HF_wild_card,2022.2.4,Win32,59.65163445,5f2ac7deaac0ef39060b0aae,64d2fd46c836a06233681665,64dc84121fbcb3a36286474a,,,,,,,decisionTrl,resources/DP.BMP,resources/DY.BMP,Door2,0.359259259,-0.008333333,1,0,0,0.6486,optionRight,20,11965,6,8,0,8,0,1,,,,,,,,,,,,,,,,,,,,,,,,,,,,,,,,,,,,,,,
,,,,,,,,2023-08-16_09h09.10.805,HF_wild_card,2022.2.4,Win32,59.65163445,5f2ac7deaac0ef39060b0aae,64d2fd46c836a06233681665,64dc84121fbcb3a36286474a,,,,,,,ctch,resources/DP.BMP,resources/DR.BMP,Door4,0.425925926,-0.006481481,1,0,0,0.8504,optionRight,60,12025,6,9,0,9,0,1,,,,,,,,,,,,,,,,,,,,,,,,,,,,,,,,,,,,,,,
,,,,,,,,2023-08-16_09h09.10.805,HF_wild_card,2022.2.4,Win32,59.65163445,5f2ac7deaac0ef39060b0aae,64d2fd46c836a06233681665,64dc84121fbcb3a36286474a,,,,,,,sngl,resources/Empty.png,resources/DB.BMP,WildCard_Ex,0.260185185,-0.00462963,1,0,0,0.6325,optionRight,95,12120,6,10,0,10,0,1,,,,,,,,,,,,,,,,,,,,,,,,,,,,,,,,,,,,,,,
,,,,,,,,2023-08-16_09h09.10.805,HF_wild_card,2022.2.4,Win32,59.65163445,5f2ac7deaac0ef39060b0aae,64d2fd46c836a06233681665,64dc84121fbcb3a36286474a,,,,,,,sngl,resources/Empty.png,resources/DG.BMP,Door3,0.303703704,-0.002777778,1,0,0,0.5324,optionRight,70,12190,6,11,0,11,0,1,,,,,,,,,,,,,,,,,,,,,,,,,,,,,,,,,,,,,,,
,,,,,,,,2023-08-16_09h09.10.805,HF_wild_card,2022.2.4,Win32,59.65163445,5f2ac7deaac0ef39060b0aae,64d2fd46c836a06233681665,64dc84121fbcb3a36286474a,,,,,,,decisionTrl,resources/DB.BMP,resources/DY.BMP,WildCard_Ex,-0.532407407,0.019444444,1,0,0,1.1824,optionLeft,95,12285,6,12,0,12,0,1,,,,,,,,,,,,,,,,,,,,,,,,,,,,,,,,,,,,,,,
,,,,,,,,2023-08-16_09h09.10.805,HF_wild_card,2022.2.4,Win32,59.65163445,5f2ac7deaac0ef39060b0aae,64d2fd46c836a06233681665,64dc84121fbcb3a36286474a,,,,,,,sngl,resources/DB.BMP,resources/Empty.png,WildCard_Ex,-0.313888889,0.003703704,1,0,0,0.5159,optionLeft,95,12380,6,13,0,13,0,1,,,,,,,,,,,,,,,,,,,,,,,,,,,,,,,,,,,,,,,
,,,,,,,,2023-08-16_09h09.10.805,HF_wild_card,2022.2.4,Win32,59.65163445,5f2ac7deaac0ef39060b0aae,64d2fd46c836a06233681665,64dc84121fbcb3a36286474a,,,,,,,sngl,resources/Empty.png,resources/DB.BMP,WildCard_Ex,0.335185185,-0.012037037,1,0,0,0.4999,optionRight,5,12385,6,14,0,14,0,1,,,,,,,,,,,,,,,,,,,,,,,,,,,,,,,,,,,,,,,
,,,,,,,,2023-08-16_09h09.10.805,HF_wild_card,2022.2.4,Win32,59.65163445,5f2ac7deaac0ef39060b0aae,64d2fd46c836a06233681665,64dc84121fbcb3a36286474a,,,,,,,decisionTrl,resources/DP.BMP,resources/DY.BMP,Door2,0.309259259,-0.00462963,1,0,0,1.0177,optionRight,40,12425,6,15,0,15,0,1,,,,,,,,,,,,,,,,,,,,,,,,,,,,,,,,,,,,,,,
,,,,,,,,2023-08-16_09h09.10.805,HF_wild_card,2022.2.4,Win32,59.65163445,5f2ac7deaac0ef39060b0aae,64d2fd46c836a06233681665,64dc84121fbcb3a36286474a,,,,,,,sngl,resources/DB.BMP,resources/Empty.png,WildCard_Ex,-0.392592593,-0.001851852,1,0,0,0.4486,optionLeft,5,12430,6,16,0,16,0,1,,,,,,,,,,,,,,,,,,,,,,,,,,,,,,,,,,,,,,,
,,,,,,,,2023-08-16_09h09.10.805,HF_wild_card,2022.2.4,Win32,59.65163445,5f2ac7deaac0ef39060b0aae,64d2fd46c836a06233681665,64dc84121fbcb3a36286474a,,,,,,,decisionTrl,resources/DG.BMP,resources/DR.BMP,Door3,-0.415740741,-0.009259259,1,0,0,1.6853,optionLeft,70,12500,6,17,0,17,0,1,,,,,,,,,,,,,,,,,,,,,,,,,,,,,,,,,,,,,,,
,,,,,,,,2023-08-16_09h09.10.805,HF_wild_card,2022.2.4,Win32,59.65163445,5f2ac7deaac0ef39060b0aae,64d2fd46c836a06233681665,64dc84121fbcb3a36286474a,,,,,,,decisionTrl,resources/DP.BMP,resources/DB.BMP,WildCard_Ex,0.362962963,-0.016666667,1,0,0,1.1344,optionRight,5,12505,6,18,0,18,0,1,,,,,,,,,,,,,,,,,,,,,,,,,,,,,,,,,,,,,,,
,,,,,,,,2023-08-16_09h09.10.805,HF_wild_card,2022.2.4,Win32,59.65163445,5f2ac7deaac0ef39060b0aae,64d2fd46c836a06233681665,64dc84121fbcb3a36286474a,,,,,,,ctch,resources/DR.BMP,resources/DP.BMP,Door4,-0.226851852,-0.016666667,1,0,0,1.0838,optionLeft,80,12585,6,19,0,19,0,1,,,,,,,,,,,,,,,,,,,,,,,,,,,,,,,,,,,,,,,
,,,,,,,,2023-08-16_09h09.10.805,HF_wild_card,2022.2.4,Win32,59.65163445,5f2ac7deaac0ef39060b0aae,64d2fd46c836a06233681665,64dc84121fbcb3a36286474a,,,,,,,sngl,resources/DY.BMP,resources/Empty.png,Door2,-0.359259259,0.002777778,1,0,0,0.5647,optionLeft,20,12605,6,20,0,20,0,1,,,,,,,,,,,,,,,,,,,,,,,,,,,,,,,,,,,,,,,
,,,,,,,,2023-08-16_09h09.10.805,HF_wild_card,2022.2.4,Win32,59.65163445,5f2ac7deaac0ef39060b0aae,64d2fd46c836a06233681665,64dc84121fbcb3a36286474a,,,,,,,decisionTrl,resources/DR.BMP,resources/DG.BMP,Door3,0.309259259,-0.012037037,1,0,0,0.9836,optionRight,70,12675,6,21,0,21,0,1,,,,,,,,,,,,,,,,,,,,,,,,,,,,,,,,,,,,,,,
,,,,,,,,2023-08-16_09h09.10.805,HF_wild_card,2022.2.4,Win32,59.65163445,5f2ac7deaac0ef39060b0aae,64d2fd46c836a06233681665,64dc84121fbcb3a36286474a,,,,,,,ctch,resources/DY.BMP,resources/DG.BMP,Door3,0.350925926,-0.006481481,1,0,0,0.9665,optionRight,70,12745,6,22,0,22,0,1,,,,,,,,,,,,,,,,,,,,,,,,,,,,,,,,,,,,,,,
,,,,,,,,2023-08-16_09h09.10.805,HF_wild_card,2022.2.4,Win32,59.65163445,5f2ac7deaac0ef39060b0aae,64d2fd46c836a06233681665,64dc84121fbcb3a36286474a,,,,,,,ctch,resources/DP.BMP,resources/DR.BMP,Door4,0.435185185,-0.011111111,1,0,0,0.8667,optionRight,60,12805,6,23,0,23,0,1,,,,,,,,,,,,,,,,,,,,,,,,,,,,,,,,,,,,,,,
,,,,,,,,2023-08-16_09h09.10.805,HF_wild_card,2022.2.4,Win32,59.65163445,5f2ac7deaac0ef39060b0aae,64d2fd46c836a06233681665,64dc84121fbcb3a36286474a,,,,,,,ctch,resources/DG.BMP,resources/DY.BMP,Door3,-0.358333333,0.008333333,1,0,0,0.7476,optionLeft,70,12875,6,24,0,24,0,1,,,,,,,,,,,,,,,,,,,,,,,,,,,,,,,,,,,,,,,
,,,,,,,,2023-08-16_09h09.10.805,HF_wild_card,2022.2.4,Win32,59.65163445,5f2ac7deaac0ef39060b0aae,64d2fd46c836a06233681665,64dc84121fbcb3a36286474a,,,,,,,decisionTrl,resources/DY.BMP,resources/DP.BMP,Door2,-0.281481481,0.014814815,1,0,0,1.3846,optionLeft,40,12915,6,25,0,25,0,1,,,,,,,,,,,,,,,,,,,,,,,,,,,,,,,,,,,,,,,
,,,,,,,,2023-08-16_09h09.10.805,HF_wild_card,2022.2.4,Win32,59.65163445,5f2ac7deaac0ef39060b0aae,64d2fd46c836a06233681665,64dc84121fbcb3a36286474a,,,,,,,decisionTrl,resources/DY.BMP,resources/DB.BMP,WildCard_Ex,0.347222222,-0.022222222,1,0,0,0.7334,optionRight,95,13010,6,26,0,26,0,1,,,,,,,,,,,,,,,,,,,,,,,,,,,,,,,,,,,,,,,
,,,,,,,,2023-08-16_09h09.10.805,HF_wild_card,2022.2.4,Win32,59.65163445,5f2ac7deaac0ef39060b0aae,64d2fd46c836a06233681665,64dc84121fbcb3a36286474a,,,,,,,decisionTrl,resources/DG.BMP,resources/DB.BMP,Door3,-0.317592593,-0.013888889,1,0,0,0.783,optionLeft,70,13080,6,27,0,27,0,1,,,,,,,,,,,,,,,,,,,,,,,,,,,,,,,,,,,,,,,
,,,,,,,,2023-08-16_09h09.10.805,HF_wild_card,2022.2.4,Win32,59.65163445,5f2ac7deaac0ef39060b0aae,64d2fd46c836a06233681665,64dc84121fbcb3a36286474a,,,,,,,decisionTrl,resources/DB.BMP,resources/DG.BMP,Door3,0.339814815,-0.017592593,1,0,0,1.2157,optionRight,70,13150,6,28,0,28,0,1,,,,,,,,,,,,,,,,,,,,,,,,,,,,,,,,,,,,,,,
,,,,,,,,2023-08-16_09h09.10.805,HF_wild_card,2022.2.4,Win32,59.65163445,5f2ac7deaac0ef39060b0aae,64d2fd46c836a06233681665,64dc84121fbcb3a36286474a,,,,,,,sngl,resources/Empty.png,resources/DR.BMP,Door4,0.388888889,-0.014814815,1,0,0,0.5825,optionRight,80,13230,6,29,0,29,0,1,,,,,,,,,,,,,,,,,,,,,,,,,,,,,,,,,,,,,,,
,,,,,,,,2023-08-16_09h09.10.805,HF_wild_card,2022.2.4,Win32,59.65163445,5f2ac7deaac0ef39060b0aae,64d2fd46c836a06233681665,64dc84121fbcb3a36286474a,,,,,,,ctch,resources/DG.BMP,resources/DY.BMP,Door3,-0.312962963,0.00462963,1,0,0,0.8982,optionLeft,70,13300,6,30,0,30,0,1,,,,,,,,,,,,,,,,,,,,,,,,,,,,,,,,,,,,,,,
,,,,,,,,2023-08-16_09h09.10.805,HF_wild_card,2022.2.4,Win32,59.65163445,5f2ac7deaac0ef39060b0aae,64d2fd46c836a06233681665,64dc84121fbcb3a36286474a,,,,,,,decisionTrl,resources/DY.BMP,resources/DP.BMP,Door2,-0.334259259,-0.015740741,1,0,0,0.7109,optionLeft,40,13340,6,31,0,31,0,1,,,,,,,,,,,,,,,,,,,,,,,,,,,,,,,,,,,,,,,
,,,,,,,,2023-08-16_09h09.10.805,HF_wild_card,2022.2.4,Win32,59.65163445,5f2ac7deaac0ef39060b0aae,64d2fd46c836a06233681665,64dc84121fbcb3a36286474a,,,,,,,decisionTrl,resources/DG.BMP,resources/DR.BMP,Door3,-0.356481481,0.005555556,1,0,0,0.9663,optionLeft,70,13410,6,32,0,32,0,1,,,,,,,,,,,,,,,,,,,,,,,,,,,,,,,,,,,,,,,
,,,,,,,,2023-08-16_09h09.10.805,HF_wild_card,2022.2.4,Win32,59.65163445,5f2ac7deaac0ef39060b0aae,64d2fd46c836a06233681665,64dc84121fbcb3a36286474a,,,,,,,sngl,resources/Empty.png,resources/DP.BMP,Door1,0.237037037,-0.012962963,1,0,0,0.5667,optionRight,30,13440,6,33,0,33,0,1,,,,,,,,,,,,,,,,,,,,,,,,,,,,,,,,,,,,,,,
,,,,,,,,2023-08-16_09h09.10.805,HF_wild_card,2022.2.4,Win32,59.65163445,5f2ac7deaac0ef39060b0aae,64d2fd46c836a06233681665,64dc84121fbcb3a36286474a,,,,,,,decisionTrl,resources/DG.BMP,resources/DR.BMP,Door3,-0.309259259,0.009259259,1,0,0,0.8308,optionLeft,70,13510,6,34,0,34,0,1,,,,,,,,,,,,,,,,,,,,,,,,,,,,,,,,,,,,,,,
,,,,,,,,2023-08-16_09h09.10.805,HF_wild_card,2022.2.4,Win32,59.65163445,5f2ac7deaac0ef39060b0aae,64d2fd46c836a06233681665,64dc84121fbcb3a36286474a,,,,,,,decisionTrl,resources/DB.BMP,resources/DP.BMP,WildCard_Ex,-0.240740741,0.002777778,1,0,0,1.3457,optionLeft,5,13515,6,35,0,35,0,1,,,,,,,,,,,,,,,,,,,,,,,,,,,,,,,,,,,,,,,
,,,,,,,,2023-08-16_09h09.10.805,HF_wild_card,2022.2.4,Win32,59.65163445,5f2ac7deaac0ef39060b0aae,64d2fd46c836a06233681665,64dc84121fbcb3a36286474a,,,,,,,decisionTrl,resources/DR.BMP,resources/DB.BMP,Door4,-0.263888889,0.010185185,1,0,0,0.8832,optionLeft,80,13595,6,36,0,36,0,1,,,,,,,,,,,,,,,,,,,,,,,,,,,,,,,,,,,,,,,
,,,,,,,,2023-08-16_09h09.10.805,HF_wild_card,2022.2.4,Win32,59.65163445,5f2ac7deaac0ef39060b0aae,64d2fd46c836a06233681665,64dc84121fbcb3a36286474a,,,,,,,ctch,resources/DY.BMP,resources/DG.BMP,Door3,0.348148148,-0.007407407,1,0,0,0.8669,optionRight,70,13665,6,37,0,37,0,1,,,,,,,,,,,,,,,,,,,,,,,,,,,,,,,,,,,,,,,
,,,,,,,,2023-08-16_09h09.10.805,HF_wild_card,2022.2.4,Win32,59.65163445,5f2ac7deaac0ef39060b0aae,64d2fd46c836a06233681665,64dc84121fbcb3a36286474a,,,,,,,ctch,resources/DR.BMP,resources/DP.BMP,Door4,-0.331481481,0.000925926,1,0,0,1.1158,optionLeft,80,13745,6,38,0,38,0,1,,,,,,,,,,,,,,,,,,,,,,,,,,,,,,,,,,,,,,,
,,,,,,,,2023-08-16_09h09.10.805,HF_wild_card,2022.2.4,Win32,59.65163445,5f2ac7deaac0ef39060b0aae,64d2fd46c836a06233681665,64dc84121fbcb3a36286474a,,,,,,,sngl,resources/DG.BMP,resources/Empty.png,Door3,-0.351851852,-0.007407407,1,0,0,0.565,optionLeft,70,13815,6,39,0,39,0,1,,,,,,,,,,,,,,,,,,,,,,,,,,,,,,,,,,,,,,,
,,,,,,,,2023-08-16_09h09.10.805,HF_wild_card,2022.2.4,Win32,59.65163445,5f2ac7deaac0ef39060b0aae,64d2fd46c836a06233681665,64dc84121fbcb3a36286474a,,,,,,,decisionTrl,resources/DB.BMP,resources/DR.BMP,Door4,0.341666667,-0.023148148,1,0,0,0.8841,optionRight,60,13875,6,40,0,40,0,1,,,,,,,,,,,,,,,,,,,,,,,,,,,,,,,,,,,,,,,
,,,,,,,,2023-08-16_09h09.10.805,HF_wild_card,2022.2.4,Win32,59.65163445,5f2ac7deaac0ef39060b0aae,64d2fd46c836a06233681665,64dc84121fbcb3a36286474a,,,,,,,decisionTrl,resources/DY.BMP,resources/DP.BMP,Door1,0.306481481,-0.019444444,1,0,0,1.2169,optionRight,30,13905,6,41,0,41,0,1,,,,,,,,,,,,,,,,,,,,,,,,,,,,,,,,,,,,,,,
,,,,,,,,2023-08-16_09h09.10.805,HF_wild_card,2022.2.4,Win32,59.65163445,5f2ac7deaac0ef39060b0aae,64d2fd46c836a06233681665,64dc84121fbcb3a36286474a,,,,,,,decisionTrl,resources/DR.BMP,resources/DG.BMP,Door3,0.25462963,-0.011111111,1,0,0,0.9817,optionRight,70,13975,6,42,0,42,0,1,,,,,,,,,,,,,,,,,,,,,,,,,,,,,,,,,,,,,,,
,,,,,,,,2023-08-16_09h09.10.805,HF_wild_card,2022.2.4,Win32,59.65163445,5f2ac7deaac0ef39060b0aae,64d2fd46c836a06233681665,64dc84121fbcb3a36286474a,,,,,,,sngl,resources/DP.BMP,resources/Empty.png,Door1,-0.296296296,0.000925926,1,0,0,0.4997,optionLeft,30,14005,6,43,0,43,0,1,,,,,,,,,,,,,,,,,,,,,,,,,,,,,,,,,,,,,,,
,,,,,,,,2023-08-16_09h09.10.805,HF_wild_card,2022.2.4,Win32,59.65163445,5f2ac7deaac0ef39060b0aae,64d2fd46c836a06233681665,64dc84121fbcb3a36286474a,,,,,,,,,,,,,,,,,,,,,,,,,,5,0,5,0,1,,,,,,,,,,,,,,,,,,,,,,,,,,,,,,,,,,
,,,,,,,,2023-08-16_09h09.10.805,HF_wild_card,2022.2.4,Win32,59.65163445,5f2ac7deaac0ef39060b0aae,64d2fd46c836a06233681665,64dc84121fbcb3a36286474a,,,,,,,decisionTrl,resources/DP.BMP,resources/DY.BMP,Door1,-0.362037037,-0.055555556,1,0,0,2.1284,optionLeft,30,14035,7,0,0,0,0,1,,,,,,,,,,,,,,,,,,,,,,,,,,,,,,,,,,,,,,,
,,,,,,,,2023-08-16_09h09.10.805,HF_wild_card,2022.2.4,Win32,59.65163445,5f2ac7deaac0ef39060b0aae,64d2fd46c836a06233681665,64dc84121fbcb3a36286474a,,,,,,,decisionTrl,resources/DG.BMP,resources/DR.BMP,Door3,-0.299074074,-0.041666667,1,0,0,0.9844,optionLeft,70,14105,7,1,0,1,0,1,,,,,,,,,,,,,,,,,,,,,,,,,,,,,,,,,,,,,,,
,,,,,,,,2023-08-16_09h09.10.805,HF_wild_card,2022.2.4,Win32,59.65163445,5f2ac7deaac0ef39060b0aae,64d2fd46c836a06233681665,64dc84121fbcb3a36286474a,,,,,,,ctch,resources/DR.BMP,resources/DP.BMP,Door4,-0.308333333,0.012962963,1,0,0,1.1347,optionLeft,60,14165,7,2,0,2,0,1,,,,,,,,,,,,,,,,,,,,,,,,,,,,,,,,,,,,,,,
,,,,,,,,2023-08-16_09h09.10.805,HF_wild_card,2022.2.4,Win32,59.65163445,5f2ac7deaac0ef39060b0aae,64d2fd46c836a06233681665,64dc84121fbcb3a36286474a,,,,,,,decisionTrl,resources/DY.BMP,resources/DP.BMP,Door2,-0.275,-0.009259259,1,0,0,1.7699,optionLeft,40,14205,7,3,0,3,0,1,,,,,,,,,,,,,,,,,,,,,,,,,,,,,,,,,,,,,,,
,,,,,,,,2023-08-16_09h09.10.805,HF_wild_card,2022.2.4,Win32,59.65163445,5f2ac7deaac0ef39060b0aae,64d2fd46c836a06233681665,64dc84121fbcb3a36286474a,,,,,,,decisionTrl,resources/DP.BMP,resources/DY.BMP,Door1,-0.358333333,0.014814815,1,0,0,0.8679,optionLeft,30,14235,7,4,0,4,0,1,,,,,,,,,,,,,,,,,,,,,,,,,,,,,,,,,,,,,,,
,,,,,,,,2023-08-16_09h09.10.805,HF_wild_card,2022.2.4,Win32,59.65163445,5f2ac7deaac0ef39060b0aae,64d2fd46c836a06233681665,64dc84121fbcb3a36286474a,,,,,,,decisionTrl,resources/DY.BMP,resources/DP.BMP,Door1,0.381481481,-0.019444444,1,0,0,0.6004,optionRight,30,14265,7,5,0,5,0,1,,,,,,,,,,,,,,,,,,,,,,,,,,,,,,,,,,,,,,,
,,,,,,,,2023-08-16_09h09.10.805,HF_wild_card,2022.2.4,Win32,59.65163445,5f2ac7deaac0ef39060b0aae,64d2fd46c836a06233681665,64dc84121fbcb3a36286474a,,,,,,,decisionTrl,resources/DY.BMP,resources/DP.BMP,Door1,0.362037037,-0.043518519,1,0,0,0.6342,optionRight,30,14295,7,6,0,6,0,1,,,,,,,,,,,,,,,,,,,,,,,,,,,,,,,,,,,,,,,
,,,,,,,,2023-08-16_09h09.10.805,HF_wild_card,2022.2.4,Win32,59.65163445,5f2ac7deaac0ef39060b0aae,64d2fd46c836a06233681665,64dc84121fbcb3a36286474a,,,,,,,decisionTrl,resources/DG.BMP,resources/DR.BMP,Door3,-0.262037037,-0.035185185,1,0,0,0.8179,optionLeft,70,14365,7,7,0,7,0,1,,,,,,,,,,,,,,,,,,,,,,,,,,,,,,,,,,,,,,,
,,,,,,,,2023-08-16_09h09.10.805,HF_wild_card,2022.2.4,Win32,59.65163445,5f2ac7deaac0ef39060b0aae,64d2fd46c836a06233681665,64dc84121fbcb3a36286474a,,,,,,,decisionTrl,resources/DG.BMP,resources/DR.BMP,Door3,-0.348148148,-0.030555556,1,0,0,0.6012,optionLeft,70,14435,7,8,0,8,0,1,,,,,,,,,,,,,,,,,,,,,,,,,,,,,,,,,,,,,,,
,,,,,,,,2023-08-16_09h09.10.805,HF_wild_card,2022.2.4,Win32,59.65163445,5f2ac7deaac0ef39060b0aae,64d2fd46c836a06233681665,64dc84121fbcb3a36286474a,,,,,,,ctch,resources/DY.BMP,resources/DG.BMP,Door3,0.305555556,-0.013888889,1,0,0,0.6674,optionRight,70,14505,7,9,0,9,0,1,,,,,,,,,,,,,,,,,,,,,,,,,,,,,,,,,,,,,,,
,,,,,,,,2023-08-16_09h09.10.805,HF_wild_card,2022.2.4,Win32,59.65163445,5f2ac7deaac0ef39060b0aae,64d2fd46c836a06233681665,64dc84121fbcb3a36286474a,,,,,,,ctch,resources/DG.BMP,resources/DY.BMP,Door3,-0.264814815,-0.017592593,1,0,0,0.551,optionLeft,70,14575,7,10,0,10,0,1,,,,,,,,,,,,,,,,,,,,,,,,,,,,,,,,,,,,,,,
,,,,,,,,2023-08-16_09h09.10.805,HF_wild_card,2022.2.4,Win32,59.65163445,5f2ac7deaac0ef39060b0aae,64d2fd46c836a06233681665,64dc84121fbcb3a36286474a,,,,,,,decisionTrl,resources/DG.BMP,resources/DR.BMP,Door3,-0.286111111,-0.02037037,1,0,0,0.534,optionLeft,70,14645,7,11,0,11,0,1,,,,,,,,,,,,,,,,,,,,,,,,,,,,,,,,,,,,,,,
,,,,,,,,2023-08-16_09h09.10.805,HF_wild_card,2022.2.4,Win32,59.65163445,5f2ac7deaac0ef39060b0aae,64d2fd46c836a06233681665,64dc84121fbcb3a36286474a,,,,,,,decisionTrl,resources/DR.BMP,resources/DG.BMP,Door3,0.264814815,-0.04537037,1,0,0,0.5167,optionRight,70,14715,7,12,0,12,0,1,,,,,,,,,,,,,,,,,,,,,,,,,,,,,,,,,,,,,,,
,,,,,,,,2023-08-16_09h09.10.805,HF_wild_card,2022.2.4,Win32,59.65163445,5f2ac7deaac0ef39060b0aae,64d2fd46c836a06233681665,64dc84121fbcb3a36286474a,,,,,,,decisionTrl,resources/DR.BMP,resources/DG.BMP,Door3,0.327777778,-0.025925926,1,0,0,0.45,optionRight,70,14785,7,13,0,13,0,1,,,,,,,,,,,,,,,,,,,,,,,,,,,,,,,,,,,,,,,
,,,,,,,,2023-08-16_09h09.10.805,HF_wild_card,2022.2.4,Win32,59.65163445,5f2ac7deaac0ef39060b0aae,64d2fd46c836a06233681665,64dc84121fbcb3a36286474a,,,,,,,ctch,resources/DR.BMP,resources/DP.BMP,Door4,-0.27962963,-0.013888889,1,0,0,0.7342,optionLeft,60,14845,7,14,0,14,0,1,,,,,,,,,,,,,,,,,,,,,,,,,,,,,,,,,,,,,,,
,,,,,,,,2023-08-16_09h09.10.805,HF_wild_card,2022.2.4,Win32,59.65163445,5f2ac7deaac0ef39060b0aae,64d2fd46c836a06233681665,64dc84121fbcb3a36286474a,,,,,,,decisionTrl,resources/DP.BMP,resources/DY.BMP,Door2,0.298148148,-0.012037037,1,0,0,1.0018,optionRight,40,14885,7,15,0,15,0,1,,,,,,,,,,,,,,,,,,,,,,,,,,,,,,,,,,,,,,,
,,,,,,,,2023-08-16_09h09.10.805,HF_wild_card,2022.2.4,Win32,59.65163445,5f2ac7deaac0ef39060b0aae,64d2fd46c836a06233681665,64dc84121fbcb3a36286474a,,,,,,,decisionTrl,resources/DG.BMP,resources/DR.BMP,Door4,0.309259259,-0.011111111,1,0,0,0.7344,optionRight,60,14945,7,16,0,16,0,1,,,,,,,,,,,,,,,,,,,,,,,,,,,,,,,,,,,,,,,
,,,,,,,,2023-08-16_09h09.10.805,HF_wild_card,2022.2.4,Win32,59.65163445,5f2ac7deaac0ef39060b0aae,64d2fd46c836a06233681665,64dc84121fbcb3a36286474a,,,,,,,ctch,resources/DY.BMP,resources/DG.BMP,Door3,0.347222222,-0.016666667,1,0,0,0.584,optionRight,70,15015,7,17,0,17,0,1,,,,,,,,,,,,,,,,,,,,,,,,,,,,,,,,,,,,,,,
,,,,,,,,2023-08-16_09h09.10.805,HF_wild_card,2022.2.4,Win32,59.65163445,5f2ac7deaac0ef39060b0aae,64d2fd46c836a06233681665,64dc84121fbcb3a36286474a,,,,,,,ctch,resources/DG.BMP,resources/DY.BMP,Door3,-0.239814815,-0.014814815,1,0,0,0.6002,optionLeft,70,15085,7,18,0,18,0,1,,,,,,,,,,,,,,,,,,,,,,,,,,,,,,,,,,,,,,,
,,,,,,,,2023-08-16_09h09.10.805,HF_wild_card,2022.2.4,Win32,59.65163445,5f2ac7deaac0ef39060b0aae,64d2fd46c836a06233681665,64dc84121fbcb3a36286474a,,,,,,,decisionTrl,resources/DR.BMP,resources/DG.BMP,Door3,0.27962963,-0.015740741,1,0,0,0.6504,optionRight,70,15155,7,19,0,19,0,1,,,,,,,,,,,,,,,,,,,,,,,,,,,,,,,,,,,,,,,
,,,,,,,,2023-08-16_09h09.10.805,HF_wild_card,2022.2.4,Win32,59.65163445,5f2ac7deaac0ef39060b0aae,64d2fd46c836a06233681665,64dc84121fbcb3a36286474a,,,,,,,decisionTrl,resources/DR.BMP,resources/DG.BMP,Door4,-0.35,-0.005555556,1,0,0,0.7843,optionLeft,80,15235,7,20,0,20,0,1,,,,,,,,,,,,,,,,,,,,,,,,,,,,,,,,,,,,,,,
,,,,,,,,2023-08-16_09h09.10.805,HF_wild_card,2022.2.4,Win32,59.65163445,5f2ac7deaac0ef39060b0aae,64d2fd46c836a06233681665,64dc84121fbcb3a36286474a,,,,,,,ctch,resources/DP.BMP,resources/DR.BMP,Door4,0.277777778,-0.001851852,1,0,0,1.1181,optionRight,80,15315,7,21,0,21,0,1,,,,,,,,,,,,,,,,,,,,,,,,,,,,,,,,,,,,,,,
,,,,,,,,2023-08-16_09h09.10.805,HF_wild_card,2022.2.4,Win32,59.65163445,5f2ac7deaac0ef39060b0aae,64d2fd46c836a06233681665,64dc84121fbcb3a36286474a,,,,,,,decisionTrl,resources/DP.BMP,resources/DY.BMP,Door2,0.325925926,-0.008333333,1,0,0,1.4191,optionRight,40,15355,7,22,0,22,0,1,,,,,,,,,,,,,,,,,,,,,,,,,,,,,,,,,,,,,,,
,,,,,,,,2023-08-16_09h09.10.805,HF_wild_card,2022.2.4,Win32,59.65163445,5f2ac7deaac0ef39060b0aae,64d2fd46c836a06233681665,64dc84121fbcb3a36286474a,,,,,,,decisionTrl,resources/DP.BMP,resources/DY.BMP,Door1,-0.310185185,-0.017592593,1,0,0,0.8346,optionLeft,30,15385,7,23,0,23,0,1,,,,,,,,,,,,,,,,,,,,,,,,,,,,,,,,,,,,,,,
,,,,,,,,2023-08-16_09h09.10.805,HF_wild_card,2022.2.4,Win32,59.65163445,5f2ac7deaac0ef39060b0aae,64d2fd46c836a06233681665,64dc84121fbcb3a36286474a,,,,,,,ctch,resources/DY.BMP,resources/DG.BMP,Door3,0.389814815,-0.007407407,1,0,0,0.7333,optionRight,70,15455,7,24,0,24,0,1,,,,,,,,,,,,,,,,,,,,,,,,,,,,,,,,,,,,,,,
,,,,,,,,2023-08-16_09h09.10.805,HF_wild_card,2022.2.4,Win32,59.65163445,5f2ac7deaac0ef39060b0aae,64d2fd46c836a06233681665,64dc84121fbcb3a36286474a,,,,,,,ctch,resources/DR.BMP,resources/DP.BMP,Door4,-0.359259259,-0.006481481,1,0,0,0.9012,optionLeft,80,15535,7,25,0,25,0,1,,,,,,,,,,,,,,,,,,,,,,,,,,,,,,,,,,,,,,,
,,,,,,,,2023-08-16_09h09.10.805,HF_wild_card,2022.2.4,Win32,59.65163445,5f2ac7deaac0ef39060b0aae,64d2fd46c836a06233681665,64dc84121fbcb3a36286474a,,,,,,,decisionTrl,resources/DP.BMP,resources/DY.BMP,Door1,-0.278703704,-0.023148148,1,0,0,1.1023,optionLeft,30,15565,7,26,0,26,0,1,,,,,,,,,,,,,,,,,,,,,,,,,,,,,,,,,,,,,,,
,,,,,,,,2023-08-16_09h09.10.805,HF_wild_card,2022.2.4,Win32,59.65163445,5f2ac7deaac0ef39060b0aae,64d2fd46c836a06233681665,64dc84121fbcb3a36286474a,,,,,,,ctch,resources/DP.BMP,resources/DR.BMP,Door1,-0.315740741,-0.026851852,1,0,0,0.5176,optionLeft,30,15595,7,27,0,27,0,1,,,,,,,,,,,,,,,,,,,,,,,,,,,,,,,,,,,,,,,
,,,,,,,,2023-08-16_09h09.10.805,HF_wild_card,2022.2.4,Win32,59.65163445,5f2ac7deaac0ef39060b0aae,64d2fd46c836a06233681665,64dc84121fbcb3a36286474a,,,,,,,decisionTrl,resources/DR.BMP,resources/DG.BMP,Door3,0.325,-0.04537037,1,0,0,0.6342,optionRight,70,15665,7,28,0,28,0,1,,,,,,,,,,,,,,,,,,,,,,,,,,,,,,,,,,,,,,,
,,,,,,,,2023-08-16_09h09.10.805,HF_wild_card,2022.2.4,Win32,59.65163445,5f2ac7deaac0ef39060b0aae,64d2fd46c836a06233681665,64dc84121fbcb3a36286474a,,,,,,,decisionTrl,resources/DG.BMP,resources/DR.BMP,Door3,-0.302777778,-0.021296296,1,0,0,0.5337,optionLeft,70,15735,7,29,0,29,0,1,,,,,,,,,,,,,,,,,,,,,,,,,,,,,,,,,,,,,,,
,,,,,,,,2023-08-16_09h09.10.805,HF_wild_card,2022.2.4,Win32,59.65163445,5f2ac7deaac0ef39060b0aae,64d2fd46c836a06233681665,64dc84121fbcb3a36286474a,,,,,,,ctch,resources/DP.BMP,resources/DR.BMP,Door4,0.337962963,-0.003703704,1,0,0,1.3188,optionRight,60,15795,7,30,0,30,0,1,,,,,,,,,,,,,,,,,,,,,,,,,,,,,,,,,,,,,,,
,,,,,,,,2023-08-16_09h09.10.805,HF_wild_card,2022.2.4,Win32,59.65163445,5f2ac7deaac0ef39060b0aae,64d2fd46c836a06233681665,64dc84121fbcb3a36286474a,,,,,,,ctch,resources/DG.BMP,resources/DY.BMP,Door3,-0.366666667,-0.021296296,1,0,0,0.8007,optionLeft,70,15865,7,31,0,31,0,1,,,,,,,,,,,,,,,,,,,,,,,,,,,,,,,,,,,,,,,
,,,,,,,,2023-08-16_09h09.10.805,HF_wild_card,2022.2.4,Win32,59.65163445,5f2ac7deaac0ef39060b0aae,64d2fd46c836a06233681665,64dc84121fbcb3a36286474a,,,,,,,decisionTrl,resources/DY.BMP,resources/DP.BMP,Door1,0.264814815,-0.001851852,1,0,0,2.5884,optionRight,30,15895,7,32,0,32,0,1,,,,,,,,,,,,,,,,,,,,,,,,,,,,,,,,,,,,,,,
,,,,,,,,2023-08-16_09h09.10.805,HF_wild_card,2022.2.4,Win32,59.65163445,5f2ac7deaac0ef39060b0aae,64d2fd46c836a06233681665,64dc84121fbcb3a36286474a,,,,,,,decisionTrl,resources/DY.BMP,resources/DP.BMP,Door1,0.294444444,-0.013888889,1,0,0,0.567,optionRight,30,15925,7,33,0,33,0,1,,,,,,,,,,,,,,,,,,,,,,,,,,,,,,,,,,,,,,,
,,,,,,,,2023-08-16_09h09.10.805,HF_wild_card,2022.2.4,Win32,59.65163445,5f2ac7deaac0ef39060b0aae,64d2fd46c836a06233681665,64dc84121fbcb3a36286474a,,,,,,,decisionTrl,resources/DR.BMP,resources/DG.BMP,Door3,0.330555556,-0.036111111,1,0,0,1.4362,optionRight,70,15995,7,34,0,34,0,1,,,,,,,,,,,,,,,,,,,,,,,,,,,,,,,,,,,,,,,
,,,,,,,,2023-08-16_09h09.10.805,HF_wild_card,2022.2.4,Win32,59.65163445,5f2ac7deaac0ef39060b0aae,64d2fd46c836a06233681665,64dc84121fbcb3a36286474a,,,,,,,decisionTrl,resources/DY.BMP,resources/DP.BMP,Door2,-0.312037037,-0.007407407,1,0,0,1.0679,optionLeft,20,16015,7,35,0,35,0,1,,,,,,,,,,,,,,,,,,,,,,,,,,,,,,,,,,,,,,,
,,,,,,,,2023-08-16_09h09.10.805,HF_wild_card,2022.2.4,Win32,59.65163445,5f2ac7deaac0ef39060b0aae,64d2fd46c836a06233681665,64dc84121fbcb3a36286474a,,,,,,,,,,,,,,,,,,,,,,,,,,6,0,6,0,1,,,,,,,,,,,,,,,,,,,,,,,,,,,,,,,,,,
,,,,,,,,2023-08-16_09h09.10.805,HF_wild_card,2022.2.4,Win32,59.65163445,5f2ac7deaac0ef39060b0aae,64d2fd46c836a06233681665,64dc84121fbcb3a36286474a,,,,,,,,,,,,,,,,,,,,,,,,,,,,,,,4,,,,,,,,,,,,,,,,,,,,,,,,,,,,,,,,,
,,,,,,,,2023-08-16_09h09.10.805,HF_wild_card,2022.2.4,Win32,59.65163445,5f2ac7deaac0ef39060b0aae,64d2fd46c836a06233681665,64dc84121fbcb3a36286474a,,,,,,,,,,,,,,,,,,,,,,,,,,,,,,,,,,,,,,,,,,,,,,,,,,,,,,,,,,,,,,,,
,,,,,,,,2023-08-16_09h09.10.805,HF_wild_card,2022.2.4,Win32,59.65163445,5f2ac7deaac0ef39060b0aae,64d2fd46c836a06233681665,64dc84121fbcb3a36286474a,,,,,,,,,,,,,,,,,,,,,,,,,,,,,,,,45,WC_nonExtreme,resources/DBN.BMP,0,0,0,0,1,,,,,,,,,,,,,,,,,,,,,,,,,
,,,,,,,,2023-08-16_09h09.10.805,HF_wild_card,2022.2.4,Win32,59.65163445,5f2ac7deaac0ef39060b0aae,64d2fd46c836a06233681665,64dc84121fbcb3a36286474a,,,,,,,,,,,,,,,,,,,,,,,,,,,,,,,,20,Door2,resources/DY.BMP,1,0,1,0,1,,,,,,,,,,,,,,,,,,,,,,,,,
,,,,,,,,2023-08-16_09h09.10.805,HF_wild_card,2022.2.4,Win32,59.65163445,5f2ac7deaac0ef39060b0aae,64d2fd46c836a06233681665,64dc84121fbcb3a36286474a,,,,,,,,,,,,,,,,,,,,,,,,,,,,,,,,60,Door4,resources/DR.BMP,2,0,2,0,1,,,,,,,,,,,,,,,,,,,,,,,,,
,,,,,,,,2023-08-16_09h09.10.805,HF_wild_card,2022.2.4,Win32,59.65163445,5f2ac7deaac0ef39060b0aae,64d2fd46c836a06233681665,64dc84121fbcb3a36286474a,,,,,,,,,,,,,,,,,,,,,,,,,,,,,,,,95,WC_extreme,resources/DB.BMP,3,0,3,0,1,,,,,,,,,,,,,,,,,,,,,,,,,
,,,,,,,,2023-08-16_09h09.10.805,HF_wild_card,2022.2.4,Win32,59.65163445,5f2ac7deaac0ef39060b0aae,64d2fd46c836a06233681665,64dc84121fbcb3a36286474a,,,,,,,,,,,,,,,,,,,,,,,,,,,,,,,,70,Door3,resources/DG.BMP,4,0,4,0,1,,,,,,,,,,,,,,,,,,,,,,,,,
,,,,,,,,2023-08-16_09h09.10.805,HF_wild_card,2022.2.4,Win32,59.65163445,5f2ac7deaac0ef39060b0aae,64d2fd46c836a06233681665,64dc84121fbcb3a36286474a,,,,,,,,,,,,,,,,,,,,,,,,,,,,,,,,30,Door1,resources/DP.BMP,5,0,5,0,1,,,,,,,,,,,,,,,,,,,,,,,,,
,,,,,,,,2023-08-16_09h09.10.805,HF_wild_card,2022.2.4,Win32,59.65163445,5f2ac7deaac0ef39060b0aae,64d2fd46c836a06233681665,64dc84121fbcb3a36286474a,,,,,,,,,,,,,,,,,,,,,,,,,,,,,,,,,,,,,,,,,,,,,,,,,,,,,,,,,,,,,,,,
