Condition,Low fixed image (Door1),Low risky image (Door2),High fixed image (Door3),High risky image (Door4),Extreme Wild Card,NonExtreme Wild Card,,date,expName,psychopyVersion,OS,frameRate,PROLIFIC_PID,STUDY_ID,SESSION_ID,mouse_2.x,mouse_2.y,mouse_2.leftButton,mouse_2.midButton,mouse_2.rightButton,mouse_2.clicked_name,Trial Type,Left Option Image,Right Option Image,Chosen Door,mouse.x,mouse.y,mouse.leftButton,mouse.midButton,mouse.rightButton,mouse.time,mouse.clicked_name,Feedback,Cumulative Reward,Block,trial.thisRepN,trial.thisTrialN,trial.thisN,trial.thisIndex,trial.ran,blocks.thisRepN,blocks.thisTrialN,blocks.thisN,blocks.thisIndex,blocks.ran,Money conversion,First Outcome Reported,Shown Door (First Outcome),Displayed Image (First Outcome),outcomes.thisRepN,outcomes.thisTrialN,outcomes.thisN,outcomes.thisIndex,outcomes.ran,judgments.thisRepN,judgments.thisTrialN,judgments.thisN,judgments.thisIndex,judgments.ran,freqMouse.x,freqMouse.y,freqMouse.leftButton,freqMouse.midButton,freqMouse.rightButton,freqMouse.clicked_name,trials.thisRepN,trials.thisTrialN,trials.thisN,trials.thisIndex,trials.ran,FQJ for first outcome,FQJ for second outcome,Shown Door,Displayed Image,judgBlock.thisRepN,judgBlock.thisTrialN,judgBlock.thisN,judgBlock.thisIndex,judgBlock.ran
1,resources/DBN.BMP,resources/DR.BMP,resources/DY.BMP,resources/DB.BMP,resources/DG.BMP,resources/DP.BMP,,2023-08-16_08h43.13.268,HF_wild_card,2022.2.4,MacIntel,60.0024001,5fbc110869611208d6fd29da,64d2fd46c836a06233681665,64dc7defc2a18053d6b5d4cb,,,,,,,,,,,,,,,,,,,,,,,,,,,,,,,,,,,,,,,,,,,,,,,,,,,,,,,,,,,,,,,,
,,,,,,,,2023-08-16_08h43.13.268,HF_wild_card,2022.2.4,MacIntel,60.0024001,5fbc110869611208d6fd29da,64d2fd46c836a06233681665,64dc7defc2a18053d6b5d4cb,-0.006517266,-0.423257311,1,0,0,agree,,,,,,,,,,,,,,,,,,,,,,,,,,,,,,,,,,,,,,,,,,,,,,,,,,,,,,,,,,
,,,,,,,,2023-08-16_08h43.13.268,HF_wild_card,2022.2.4,MacIntel,60.0024001,5fbc110869611208d6fd29da,64d2fd46c836a06233681665,64dc7defc2a18053d6b5d4cb,,,,,,,,,,,,,,,,,,,,,,,,,,,,,,,,,,,,,,,,,,,,,,,,,,,,,,,,,,,,,,,,
,,,,,,,,2023-08-16_08h43.13.268,HF_wild_card,2022.2.4,MacIntel,60.0024001,5fbc110869611208d6fd29da,64d2fd46c836a06233681665,64dc7defc2a18053d6b5d4cb,,,,,,,sngl,resources/DP.BMP,resources/Empty.png,WildCard_NonEx,-0.399039341,-0.085037028,1,0,0,5.3547,optionLeft,55,55,1,0,0,0,0,1,,,,,,,,,,,,,,,,,,,,,,,,,,,,,,,,,,,,,,,
,,,,,,,,2023-08-16_08h43.13.268,HF_wild_card,2022.2.4,MacIntel,60.0024001,5fbc110869611208d6fd29da,64d2fd46c836a06233681665,64dc7defc2a18053d6b5d4cb,,,,,,,decisionTrl,resources/DB.BMP,resources/DY.BMP,Door3,0.406345757,-0.051992018,1,0,0,2.6319,optionRight,70,125,1,1,0,1,0,1,,,,,,,,,,,,,,,,,,,,,,,,,,,,,,,,,,,,,,,
,,,,,,,,2023-08-16_08h43.13.268,HF_wild_card,2022.2.4,MacIntel,60.0024001,5fbc110869611208d6fd29da,64d2fd46c836a06233681665,64dc7defc2a18053d6b5d4cb,,,,,,,sngl,resources/Empty.png,resources/DB.BMP,Door4,0.389249132,-0.040335456,1,0,0,2.2258,optionRight,60,185,1,2,0,2,0,1,,,,,,,,,,,,,,,,,,,,,,,,,,,,,,,,,,,,,,,
,,,,,,,,2023-08-16_08h43.13.268,HF_wild_card,2022.2.4,MacIntel,60.0024001,5fbc110869611208d6fd29da,64d2fd46c836a06233681665,64dc7defc2a18053d6b5d4cb,,,,,,,ctch,resources/DB.BMP,resources/DBN.BMP,Door4,-0.444419793,-0.074944051,1,0,0,2.2974,optionLeft,80,265,1,3,0,3,0,1,,,,,,,,,,,,,,,,,,,,,,,,,,,,,,,,,,,,,,,
,,,,,,,,2023-08-16_08h43.13.268,HF_wild_card,2022.2.4,MacIntel,60.0024001,5fbc110869611208d6fd29da,64d2fd46c836a06233681665,64dc7defc2a18053d6b5d4cb,,,,,,,decisionTrl,resources/DP.BMP,resources/DB.BMP,WildCard_NonEx,-0.391666802,-0.085431722,1,0,0,2.1131,optionLeft,55,320,1,4,0,4,0,1,,,,,,,,,,,,,,,,,,,,,,,,,,,,,,,,,,,,,,,
,,,,,,,,2023-08-16_08h43.13.268,HF_wild_card,2022.2.4,MacIntel,60.0024001,5fbc110869611208d6fd29da,64d2fd46c836a06233681665,64dc7defc2a18053d6b5d4cb,,,,,,,decisionTrl,resources/DR.BMP,resources/DP.BMP,WildCard_NonEx,0.449145643,-0.04640096,1,0,0,2.5542,optionRight,55,375,1,5,0,5,0,1,,,,,,,,,,,,,,,,,,,,,,,,,,,,,,,,,,,,,,,
,,,,,,,,2023-08-16_08h43.13.268,HF_wild_card,2022.2.4,MacIntel,60.0024001,5fbc110869611208d6fd29da,64d2fd46c836a06233681665,64dc7defc2a18053d6b5d4cb,,,,,,,decisionTrl,resources/DBN.BMP,resources/DR.BMP,Door2,0.36265191,-0.030545112,1,0,0,2.8261,optionRight,40,415,1,6,0,6,0,1,,,,,,,,,,,,,,,,,,,,,,,,,,,,,,,,,,,,,,,
,,,,,,,,2023-08-16_08h43.13.268,HF_wild_card,2022.2.4,MacIntel,60.0024001,5fbc110869611208d6fd29da,64d2fd46c836a06233681665,64dc7defc2a18053d6b5d4cb,,,,,,,sngl,resources/Empty.png,resources/DY.BMP,Door3,0.391244575,-0.058270637,1,0,0,1.9677,optionRight,70,485,1,7,0,7,0,1,,,,,,,,,,,,,,,,,,,,,,,,,,,,,,,,,,,,,,,
,,,,,,,,2023-08-16_08h43.13.268,HF_wild_card,2022.2.4,MacIntel,60.0024001,5fbc110869611208d6fd29da,64d2fd46c836a06233681665,64dc7defc2a18053d6b5d4cb,,,,,,,decisionTrl,resources/DY.BMP,resources/DB.BMP,Door3,-0.398396403,-0.026825629,1,0,0,2.8091,optionLeft,70,555,1,8,0,8,0,1,,,,,,,,,,,,,,,,,,,,,,,,,,,,,,,,,,,,,,,
,,,,,,,,2023-08-16_08h43.13.268,HF_wild_card,2022.2.4,MacIntel,60.0024001,5fbc110869611208d6fd29da,64d2fd46c836a06233681665,64dc7defc2a18053d6b5d4cb,,,,,,,decisionTrl,resources/DR.BMP,resources/DBN.BMP,Door2,-0.372338053,-0.026100667,1,0,0,1.3475,optionLeft,20,575,1,9,0,9,0,1,,,,,,,,,,,,,,,,,,,,,,,,,,,,,,,,,,,,,,,
,,,,,,,,2023-08-16_08h43.13.268,HF_wild_card,2022.2.4,MacIntel,60.0024001,5fbc110869611208d6fd29da,64d2fd46c836a06233681665,64dc7defc2a18053d6b5d4cb,,,,,,,ctch,resources/DY.BMP,resources/DR.BMP,Door3,-0.39741628,-0.078877224,1,0,0,1.6831,optionLeft,70,645,1,10,0,10,0,1,,,,,,,,,,,,,,,,,,,,,,,,,,,,,,,,,,,,,,,
,,,,,,,,2023-08-16_08h43.13.268,HF_wild_card,2022.2.4,MacIntel,60.0024001,5fbc110869611208d6fd29da,64d2fd46c836a06233681665,64dc7defc2a18053d6b5d4cb,,,,,,,sngl,resources/Empty.png,resources/DBN.BMP,Door1,0.392897135,-0.014855075,1,0,0,3.5133,optionRight,30,675,1,11,0,11,0,1,,,,,,,,,,,,,,,,,,,,,,,,,,,,,,,,,,,,,,,
,,,,,,,,2023-08-16_08h43.13.268,HF_wild_card,2022.2.4,MacIntel,60.0024001,5fbc110869611208d6fd29da,64d2fd46c836a06233681665,64dc7defc2a18053d6b5d4cb,,,,,,,decisionTrl,resources/DB.BMP,resources/DY.BMP,Door3,0.418683268,0.001076728,1,0,0,1.6948,optionRight,70,745,1,12,0,12,0,1,,,,,,,,,,,,,,,,,,,,,,,,,,,,,,,,,,,,,,,
,,,,,,,,2023-08-16_08h43.13.268,HF_wild_card,2022.2.4,MacIntel,60.0024001,5fbc110869611208d6fd29da,64d2fd46c836a06233681665,64dc7defc2a18053d6b5d4cb,,,,,,,decisionTrl,resources/DR.BMP,resources/DBN.BMP,Door2,-0.38921502,-0.057957628,1,0,0,1.5795,optionLeft,40,785,1,13,0,13,0,1,,,,,,,,,,,,,,,,,,,,,,,,,,,,,,,,,,,,,,,
,,,,,,,,2023-08-16_08h43.13.268,HF_wild_card,2022.2.4,MacIntel,60.0024001,5fbc110869611208d6fd29da,64d2fd46c836a06233681665,64dc7defc2a18053d6b5d4cb,,,,,,,sngl,resources/DP.BMP,resources/Empty.png,WildCard_NonEx,-0.396048279,-0.025115017,1,0,0,1.2827,optionLeft,45,830,1,14,0,14,0,1,,,,,,,,,,,,,,,,,,,,,,,,,,,,,,,,,,,,,,,
,,,,,,,,2023-08-16_08h43.13.268,HF_wild_card,2022.2.4,MacIntel,60.0024001,5fbc110869611208d6fd29da,64d2fd46c836a06233681665,64dc7defc2a18053d6b5d4cb,,,,,,,sngl,resources/DB.BMP,resources/Empty.png,Door4,-0.329881049,-0.021170078,1,0,0,1.2203,optionLeft,80,910,1,15,0,15,0,1,,,,,,,,,,,,,,,,,,,,,,,,,,,,,,,,,,,,,,,
,,,,,,,,2023-08-16_08h43.13.268,HF_wild_card,2022.2.4,MacIntel,60.0024001,5fbc110869611208d6fd29da,64d2fd46c836a06233681665,64dc7defc2a18053d6b5d4cb,,,,,,,sngl,resources/DY.BMP,resources/Empty.png,Door3,-0.381993205,-0.036816474,1,0,0,1.4177,optionLeft,70,980,1,16,0,16,0,1,,,,,,,,,,,,,,,,,,,,,,,,,,,,,,,,,,,,,,,
,,,,,,,,2023-08-16_08h43.13.268,HF_wild_card,2022.2.4,MacIntel,60.0024001,5fbc110869611208d6fd29da,64d2fd46c836a06233681665,64dc7defc2a18053d6b5d4cb,,,,,,,sngl,resources/DR.BMP,resources/Empty.png,Door2,-0.393144362,-0.049321391,1,0,0,1.4164,optionLeft,40,1020,1,17,0,17,0,1,,,,,,,,,,,,,,,,,,,,,,,,,,,,,,,,,,,,,,,
,,,,,,,,2023-08-16_08h43.13.268,HF_wild_card,2022.2.4,MacIntel,60.0024001,5fbc110869611208d6fd29da,64d2fd46c836a06233681665,64dc7defc2a18053d6b5d4cb,,,,,,,decisionTrl,resources/DR.BMP,resources/DBN.BMP,Door2,-0.384033339,-0.082398003,1,0,0,1.0827,optionLeft,40,1060,1,18,0,18,0,1,,,,,,,,,,,,,,,,,,,,,,,,,,,,,,,,,,,,,,,
,,,,,,,,2023-08-16_08h43.13.268,HF_wild_card,2022.2.4,MacIntel,60.0024001,5fbc110869611208d6fd29da,64d2fd46c836a06233681665,64dc7defc2a18053d6b5d4cb,,,,,,,ctch,resources/DR.BMP,resources/DY.BMP,Door3,0.387919515,-0.064668952,1,0,0,1.5018,optionRight,70,1130,1,19,0,19,0,1,,,,,,,,,,,,,,,,,,,,,,,,,,,,,,,,,,,,,,,
,,,,,,,,2023-08-16_08h43.13.268,HF_wild_card,2022.2.4,MacIntel,60.0024001,5fbc110869611208d6fd29da,64d2fd46c836a06233681665,64dc7defc2a18053d6b5d4cb,,,,,,,ctch,resources/DBN.BMP,resources/DB.BMP,Door4,0.407551134,-0.047523939,1,0,0,1.5116,optionRight,60,1190,1,20,0,20,0,1,,,,,,,,,,,,,,,,,,,,,,,,,,,,,,,,,,,,,,,
,,,,,,,,2023-08-16_08h43.13.268,HF_wild_card,2022.2.4,MacIntel,60.0024001,5fbc110869611208d6fd29da,64d2fd46c836a06233681665,64dc7defc2a18053d6b5d4cb,,,,,,,sngl,resources/Empty.png,resources/DP.BMP,WildCard_NonEx,0.37805759,-0.06966607,1,0,0,1.393,optionRight,45,1235,1,21,0,21,0,1,,,,,,,,,,,,,,,,,,,,,,,,,,,,,,,,,,,,,,,
,,,,,,,,2023-08-16_08h43.13.268,HF_wild_card,2022.2.4,MacIntel,60.0024001,5fbc110869611208d6fd29da,64d2fd46c836a06233681665,64dc7defc2a18053d6b5d4cb,,,,,,,decisionTrl,resources/DBN.BMP,resources/DP.BMP,WildCard_NonEx,0.395505778,-0.073425632,1,0,0,1.2422,optionRight,55,1290,1,22,0,22,0,1,,,,,,,,,,,,,,,,,,,,,,,,,,,,,,,,,,,,,,,
,,,,,,,,2023-08-16_08h43.13.268,HF_wild_card,2022.2.4,MacIntel,60.0024001,5fbc110869611208d6fd29da,64d2fd46c836a06233681665,64dc7defc2a18053d6b5d4cb,,,,,,,decisionTrl,resources/DB.BMP,resources/DY.BMP,Door3,0.363208008,-0.062024909,1,0,0,1.7706,optionRight,70,1360,1,23,0,23,0,1,,,,,,,,,,,,,,,,,,,,,,,,,,,,,,,,,,,,,,,
,,,,,,,,2023-08-16_08h43.13.268,HF_wild_card,2022.2.4,MacIntel,60.0024001,5fbc110869611208d6fd29da,64d2fd46c836a06233681665,64dc7defc2a18053d6b5d4cb,,,,,,,decisionTrl,resources/DY.BMP,resources/DB.BMP,Door3,-0.380866835,-0.050563287,1,0,0,0.8816,optionLeft,70,1430,1,24,0,24,0,1,,,,,,,,,,,,,,,,,,,,,,,,,,,,,,,,,,,,,,,
,,,,,,,,2023-08-16_08h43.13.268,HF_wild_card,2022.2.4,MacIntel,60.0024001,5fbc110869611208d6fd29da,64d2fd46c836a06233681665,64dc7defc2a18053d6b5d4cb,,,,,,,ctch,resources/DB.BMP,resources/DBN.BMP,Door4,-0.327255656,-0.076409098,1,0,0,1.8537,optionLeft,80,1510,1,25,0,25,0,1,,,,,,,,,,,,,,,,,,,,,,,,,,,,,,,,,,,,,,,
,,,,,,,,2023-08-16_08h43.13.268,HF_wild_card,2022.2.4,MacIntel,60.0024001,5fbc110869611208d6fd29da,64d2fd46c836a06233681665,64dc7defc2a18053d6b5d4cb,,,,,,,ctch,resources/DR.BMP,resources/DY.BMP,Door3,0.430402425,-0.035401035,1,0,0,1.2261,optionRight,70,1580,1,26,0,26,0,1,,,,,,,,,,,,,,,,,,,,,,,,,,,,,,,,,,,,,,,
,,,,,,,,2023-08-16_08h43.13.268,HF_wild_card,2022.2.4,MacIntel,60.0024001,5fbc110869611208d6fd29da,64d2fd46c836a06233681665,64dc7defc2a18053d6b5d4cb,,,,,,,decisionTrl,resources/DY.BMP,resources/DB.BMP,Door3,-0.404852363,-0.075090061,1,0,0,1.0727,optionLeft,70,1650,1,27,0,27,0,1,,,,,,,,,,,,,,,,,,,,,,,,,,,,,,,,,,,,,,,
,,,,,,,,2023-08-16_08h43.13.268,HF_wild_card,2022.2.4,MacIntel,60.0024001,5fbc110869611208d6fd29da,64d2fd46c836a06233681665,64dc7defc2a18053d6b5d4cb,,,,,,,decisionTrl,resources/DP.BMP,resources/DR.BMP,WildCard_NonEx,-0.397938029,-0.081018609,1,0,0,1.5933,optionLeft,45,1695,1,28,0,28,0,1,,,,,,,,,,,,,,,,,,,,,,,,,,,,,,,,,,,,,,,
,,,,,,,,2023-08-16_08h43.13.268,HF_wild_card,2022.2.4,MacIntel,60.0024001,5fbc110869611208d6fd29da,64d2fd46c836a06233681665,64dc7defc2a18053d6b5d4cb,,,,,,,decisionTrl,resources/DBN.BMP,resources/DR.BMP,Door2,0.394017198,-0.044650811,1,0,0,1.254,optionRight,40,1735,1,29,0,29,0,1,,,,,,,,,,,,,,,,,,,,,,,,,,,,,,,,,,,,,,,
,,,,,,,,2023-08-16_08h43.13.268,HF_wild_card,2022.2.4,MacIntel,60.0024001,5fbc110869611208d6fd29da,64d2fd46c836a06233681665,64dc7defc2a18053d6b5d4cb,,,,,,,decisionTrl,resources/DR.BMP,resources/DBN.BMP,Door2,-0.457839898,-0.090570136,1,0,0,1,optionLeft,20,1755,1,30,0,30,0,1,,,,,,,,,,,,,,,,,,,,,,,,,,,,,,,,,,,,,,,
,,,,,,,,2023-08-16_08h43.13.268,HF_wild_card,2022.2.4,MacIntel,60.0024001,5fbc110869611208d6fd29da,64d2fd46c836a06233681665,64dc7defc2a18053d6b5d4cb,,,,,,,ctch,resources/DY.BMP,resources/DR.BMP,Door3,-0.287147827,-0.056616279,1,0,0,3.8638,optionLeft,70,1825,1,31,0,31,0,1,,,,,,,,,,,,,,,,,,,,,,,,,,,,,,,,,,,,,,,
,,,,,,,,2023-08-16_08h43.13.268,HF_wild_card,2022.2.4,MacIntel,60.0024001,5fbc110869611208d6fd29da,64d2fd46c836a06233681665,64dc7defc2a18053d6b5d4cb,,,,,,,decisionTrl,resources/DBN.BMP,resources/DR.BMP,Door2,0.41067749,-0.016000298,1,0,0,1.173,optionRight,20,1845,1,32,0,32,0,1,,,,,,,,,,,,,,,,,,,,,,,,,,,,,,,,,,,,,,,
,,,,,,,,2023-08-16_08h43.13.268,HF_wild_card,2022.2.4,MacIntel,60.0024001,5fbc110869611208d6fd29da,64d2fd46c836a06233681665,64dc7defc2a18053d6b5d4cb,,,,,,,sngl,resources/Empty.png,resources/DR.BMP,Door2,0.345976427,-0.009774543,1,0,0,1.0682,optionRight,20,1865,1,33,0,33,0,1,,,,,,,,,,,,,,,,,,,,,,,,,,,,,,,,,,,,,,,
,,,,,,,,2023-08-16_08h43.13.268,HF_wild_card,2022.2.4,MacIntel,60.0024001,5fbc110869611208d6fd29da,64d2fd46c836a06233681665,64dc7defc2a18053d6b5d4cb,,,,,,,ctch,resources/DBN.BMP,resources/DB.BMP,Door4,0.400055474,-0.050447591,1,0,0,1.0232,optionRight,60,1925,1,34,0,34,0,1,,,,,,,,,,,,,,,,,,,,,,,,,,,,,,,,,,,,,,,
,,,,,,,,2023-08-16_08h43.13.268,HF_wild_card,2022.2.4,MacIntel,60.0024001,5fbc110869611208d6fd29da,64d2fd46c836a06233681665,64dc7defc2a18053d6b5d4cb,,,,,,,decisionTrl,resources/DB.BMP,resources/DY.BMP,Door4,-0.371950684,-0.077031657,1,0,0,0.8359,optionLeft,60,1985,1,35,0,35,0,1,,,,,,,,,,,,,,,,,,,,,,,,,,,,,,,,,,,,,,,
,,,,,,,,2023-08-16_08h43.13.268,HF_wild_card,2022.2.4,MacIntel,60.0024001,5fbc110869611208d6fd29da,64d2fd46c836a06233681665,64dc7defc2a18053d6b5d4cb,,,,,,,decisionTrl,resources/DP.BMP,resources/DY.BMP,WildCard_NonEx,-0.353129951,-0.052338494,1,0,0,1.8311,optionLeft,55,2040,1,36,0,36,0,1,,,,,,,,,,,,,,,,,,,,,,,,,,,,,,,,,,,,,,,
,,,,,,,,2023-08-16_08h43.13.268,HF_wild_card,2022.2.4,MacIntel,60.0024001,5fbc110869611208d6fd29da,64d2fd46c836a06233681665,64dc7defc2a18053d6b5d4cb,,,,,,,decisionTrl,resources/DBN.BMP,resources/DR.BMP,Door2,0.395916612,-0.02274821,1,0,0,1.057,optionRight,40,2080,1,37,0,37,0,1,,,,,,,,,,,,,,,,,,,,,,,,,,,,,,,,,,,,,,,
,,,,,,,,2023-08-16_08h43.13.268,HF_wild_card,2022.2.4,MacIntel,60.0024001,5fbc110869611208d6fd29da,64d2fd46c836a06233681665,64dc7defc2a18053d6b5d4cb,,,,,,,sngl,resources/Empty.png,resources/DP.BMP,WildCard_NonEx,0.422726644,-0.010371128,1,0,0,1.0903,optionRight,55,2135,1,38,0,38,0,1,,,,,,,,,,,,,,,,,,,,,,,,,,,,,,,,,,,,,,,
,,,,,,,,2023-08-16_08h43.13.268,HF_wild_card,2022.2.4,MacIntel,60.0024001,5fbc110869611208d6fd29da,64d2fd46c836a06233681665,64dc7defc2a18053d6b5d4cb,,,,,,,decisionTrl,resources/DP.BMP,resources/DBN.BMP,WildCard_NonEx,-0.396243557,-0.040657688,1,0,0,1.1327,optionLeft,55,2190,1,39,0,39,0,1,,,,,,,,,,,,,,,,,,,,,,,,,,,,,,,,,,,,,,,
,,,,,,,,2023-08-16_08h43.13.268,HF_wild_card,2022.2.4,MacIntel,60.0024001,5fbc110869611208d6fd29da,64d2fd46c836a06233681665,64dc7defc2a18053d6b5d4cb,,,,,,,decisionTrl,resources/DB.BMP,resources/DP.BMP,WildCard_NonEx,0.417869059,-0.074411079,1,0,0,1.189,optionRight,45,2235,1,40,0,40,0,1,,,,,,,,,,,,,,,,,,,,,,,,,,,,,,,,,,,,,,,
,,,,,,,,2023-08-16_08h43.13.268,HF_wild_card,2022.2.4,MacIntel,60.0024001,5fbc110869611208d6fd29da,64d2fd46c836a06233681665,64dc7defc2a18053d6b5d4cb,,,,,,,decisionTrl,resources/DY.BMP,resources/DP.BMP,Door3,-0.395225355,-0.101977064,1,0,0,2.1204,optionLeft,70,2305,1,41,0,41,0,1,,,,,,,,,,,,,,,,,,,,,,,,,,,,,,,,,,,,,,,
,,,,,,,,2023-08-16_08h43.13.268,HF_wild_card,2022.2.4,MacIntel,60.0024001,5fbc110869611208d6fd29da,64d2fd46c836a06233681665,64dc7defc2a18053d6b5d4cb,,,,,,,decisionTrl,resources/DY.BMP,resources/DB.BMP,Door3,-0.30741723,-0.048268907,1,0,0,0.9943,optionLeft,70,2375,1,42,0,42,0,1,,,,,,,,,,,,,,,,,,,,,,,,,,,,,,,,,,,,,,,
,,,,,,,,2023-08-16_08h43.13.268,HF_wild_card,2022.2.4,MacIntel,60.0024001,5fbc110869611208d6fd29da,64d2fd46c836a06233681665,64dc7defc2a18053d6b5d4cb,,,,,,,sngl,resources/DBN.BMP,resources/Empty.png,Door1,-0.287496067,0.036666633,1,0,0,3.0948,optionLeft,30,2405,1,43,0,43,0,1,,,,,,,,,,,,,,,,,,,,,,,,,,,,,,,,,,,,,,,
,,,,,,,,2023-08-16_08h43.13.268,HF_wild_card,2022.2.4,MacIntel,60.0024001,5fbc110869611208d6fd29da,64d2fd46c836a06233681665,64dc7defc2a18053d6b5d4cb,,,,,,,,,,,,,,,,,,,,,,,,,,0,0,0,0,1,,,,,,,,,,,,,,,,,,,,,,,,,,,,,,,,,,
,,,,,,,,2023-08-16_08h43.13.268,HF_wild_card,2022.2.4,MacIntel,60.0024001,5fbc110869611208d6fd29da,64d2fd46c836a06233681665,64dc7defc2a18053d6b5d4cb,,,,,,,ctch,resources/DR.BMP,resources/DY.BMP,Door3,0.414570584,0.029309252,1,0,0,1.6403,optionRight,70,2475,2,0,0,0,0,1,,,,,,,,,,,,,,,,,,,,,,,,,,,,,,,,,,,,,,,
,,,,,,,,2023-08-16_08h43.13.268,HF_wild_card,2022.2.4,MacIntel,60.0024001,5fbc110869611208d6fd29da,64d2fd46c836a06233681665,64dc7defc2a18053d6b5d4cb,,,,,,,sngl,resources/Empty.png,resources/DB.BMP,Door4,0.377191569,0.021855231,1,0,0,1.0595,optionRight,80,2555,2,1,0,1,0,1,,,,,,,,,,,,,,,,,,,,,,,,,,,,,,,,,,,,,,,
,,,,,,,,2023-08-16_08h43.13.268,HF_wild_card,2022.2.4,MacIntel,60.0024001,5fbc110869611208d6fd29da,64d2fd46c836a06233681665,64dc7defc2a18053d6b5d4cb,,,,,,,decisionTrl,resources/DBN.BMP,resources/DP.BMP,WildCard_NonEx,0.361088189,-0.028806831,1,0,0,1.1734,optionRight,45,2600,2,2,0,2,0,1,,,,,,,,,,,,,,,,,,,,,,,,,,,,,,,,,,,,,,,
,,,,,,,,2023-08-16_08h43.13.268,HF_wild_card,2022.2.4,MacIntel,60.0024001,5fbc110869611208d6fd29da,64d2fd46c836a06233681665,64dc7defc2a18053d6b5d4cb,,,,,,,decisionTrl,resources/DB.BMP,resources/DY.BMP,Door3,0.387204725,0.027138095,1,0,0,1.736,optionRight,70,2670,2,3,0,3,0,1,,,,,,,,,,,,,,,,,,,,,,,,,,,,,,,,,,,,,,,
,,,,,,,,2023-08-16_08h43.13.268,HF_wild_card,2022.2.4,MacIntel,60.0024001,5fbc110869611208d6fd29da,64d2fd46c836a06233681665,64dc7defc2a18053d6b5d4cb,,,,,,,ctch,resources/DB.BMP,resources/DBN.BMP,Door4,-0.398528002,-0.110571967,1,0,0,0.9909,optionLeft,60,2730,2,4,0,4,0,1,,,,,,,,,,,,,,,,,,,,,,,,,,,,,,,,,,,,,,,
,,,,,,,,2023-08-16_08h43.13.268,HF_wild_card,2022.2.4,MacIntel,60.0024001,5fbc110869611208d6fd29da,64d2fd46c836a06233681665,64dc7defc2a18053d6b5d4cb,,,,,,,decisionTrl,resources/DR.BMP,resources/DBN.BMP,Door2,-0.385725708,-0.103803982,1,0,0,0.9481,optionLeft,40,2770,2,5,0,5,0,1,,,,,,,,,,,,,,,,,,,,,,,,,,,,,,,,,,,,,,,
,,,,,,,,2023-08-16_08h43.13.268,HF_wild_card,2022.2.4,MacIntel,60.0024001,5fbc110869611208d6fd29da,64d2fd46c836a06233681665,64dc7defc2a18053d6b5d4cb,,,,,,,decisionTrl,resources/DR.BMP,resources/DBN.BMP,Door2,-0.393676554,-0.09401374,1,0,0,0.895,optionLeft,20,2790,2,6,0,6,0,1,,,,,,,,,,,,,,,,,,,,,,,,,,,,,,,,,,,,,,,
,,,,,,,,2023-08-16_08h43.13.268,HF_wild_card,2022.2.4,MacIntel,60.0024001,5fbc110869611208d6fd29da,64d2fd46c836a06233681665,64dc7defc2a18053d6b5d4cb,,,,,,,decisionTrl,resources/DB.BMP,resources/DP.BMP,WildCard_NonEx,0.407106391,-0.069075589,1,0,0,1.6464,optionRight,55,2845,2,7,0,7,0,1,,,,,,,,,,,,,,,,,,,,,,,,,,,,,,,,,,,,,,,
,,,,,,,,2023-08-16_08h43.13.268,HF_wild_card,2022.2.4,MacIntel,60.0024001,5fbc110869611208d6fd29da,64d2fd46c836a06233681665,64dc7defc2a18053d6b5d4cb,,,,,,,sngl,resources/DP.BMP,resources/Empty.png,WildCard_NonEx,-0.428173116,-0.091679281,1,0,0,1.1451,optionLeft,45,2890,2,8,0,8,0,1,,,,,,,,,,,,,,,,,,,,,,,,,,,,,,,,,,,,,,,
,,,,,,,,2023-08-16_08h43.13.268,HF_wild_card,2022.2.4,MacIntel,60.0024001,5fbc110869611208d6fd29da,64d2fd46c836a06233681665,64dc7defc2a18053d6b5d4cb,,,,,,,ctch,resources/DR.BMP,resources/DY.BMP,Door3,0.360705295,-0.023696221,1,0,0,1.2439,optionRight,70,2960,2,9,0,9,0,1,,,,,,,,,,,,,,,,,,,,,,,,,,,,,,,,,,,,,,,
,,,,,,,,2023-08-16_08h43.13.268,HF_wild_card,2022.2.4,MacIntel,60.0024001,5fbc110869611208d6fd29da,64d2fd46c836a06233681665,64dc7defc2a18053d6b5d4cb,,,,,,,decisionTrl,resources/DY.BMP,resources/DB.BMP,Door3,-0.322287835,-0.056196459,1,0,0,1.3652,optionLeft,70,3030,2,10,0,10,0,1,,,,,,,,,,,,,,,,,,,,,,,,,,,,,,,,,,,,,,,
,,,,,,,,2023-08-16_08h43.13.268,HF_wild_card,2022.2.4,MacIntel,60.0024001,5fbc110869611208d6fd29da,64d2fd46c836a06233681665,64dc7defc2a18053d6b5d4cb,,,,,,,decisionTrl,resources/DR.BMP,resources/DBN.BMP,Door2,-0.336623366,-0.032357686,1,0,0,1.5148,optionLeft,20,3050,2,11,0,11,0,1,,,,,,,,,,,,,,,,,,,,,,,,,,,,,,,,,,,,,,,
,,,,,,,,2023-08-16_08h43.13.268,HF_wild_card,2022.2.4,MacIntel,60.0024001,5fbc110869611208d6fd29da,64d2fd46c836a06233681665,64dc7defc2a18053d6b5d4cb,,,,,,,sngl,resources/DP.BMP,resources/Empty.png,WildCard_NonEx,-0.373724501,-0.096975708,1,0,0,1.1992,optionLeft,55,3105,2,12,0,12,0,1,,,,,,,,,,,,,,,,,,,,,,,,,,,,,,,,,,,,,,,
,,,,,,,,2023-08-16_08h43.13.268,HF_wild_card,2022.2.4,MacIntel,60.0024001,5fbc110869611208d6fd29da,64d2fd46c836a06233681665,64dc7defc2a18053d6b5d4cb,,,,,,,sngl,resources/Empty.png,resources/DR.BMP,Door2,0.380994737,-0.058565199,1,0,0,10.1718,optionRight,40,3145,2,13,0,13,0,1,,,,,,,,,,,,,,,,,,,,,,,,,,,,,,,,,,,,,,,
,,,,,,,,2023-08-16_08h43.13.268,HF_wild_card,2022.2.4,MacIntel,60.0024001,5fbc110869611208d6fd29da,64d2fd46c836a06233681665,64dc7defc2a18053d6b5d4cb,,,,,,,decisionTrl,resources/DY.BMP,resources/DB.BMP,Door3,-0.323479648,-0.013200989,1,0,0,1.2972,optionLeft,70,3215,2,14,0,14,0,1,,,,,,,,,,,,,,,,,,,,,,,,,,,,,,,,,,,,,,,
,,,,,,,,2023-08-16_08h43.13.268,HF_wild_card,2022.2.4,MacIntel,60.0024001,5fbc110869611208d6fd29da,64d2fd46c836a06233681665,64dc7defc2a18053d6b5d4cb,,,,,,,decisionTrl,resources/DR.BMP,resources/DP.BMP,Door2,-0.351817796,-0.039935744,1,0,0,1.3186,optionLeft,20,3235,2,15,0,15,0,1,,,,,,,,,,,,,,,,,,,,,,,,,,,,,,,,,,,,,,,
,,,,,,,,2023-08-16_08h43.13.268,HF_wild_card,2022.2.4,MacIntel,60.0024001,5fbc110869611208d6fd29da,64d2fd46c836a06233681665,64dc7defc2a18053d6b5d4cb,,,,,,,decisionTrl,resources/DP.BMP,resources/DBN.BMP,WildCard_NonEx,-0.341678704,-0.068416002,1,0,0,1.1754,optionLeft,55,3290,2,16,0,16,0,1,,,,,,,,,,,,,,,,,,,,,,,,,,,,,,,,,,,,,,,
,,,,,,,,2023-08-16_08h43.13.268,HF_wild_card,2022.2.4,MacIntel,60.0024001,5fbc110869611208d6fd29da,64d2fd46c836a06233681665,64dc7defc2a18053d6b5d4cb,,,,,,,ctch,resources/DB.BMP,resources/DBN.BMP,Door4,-0.324088847,-0.047343987,1,0,0,6.8954,optionLeft,60,3350,2,17,0,17,0,1,,,,,,,,,,,,,,,,,,,,,,,,,,,,,,,,,,,,,,,
,,,,,,,,2023-08-16_08h43.13.268,HF_wild_card,2022.2.4,MacIntel,60.0024001,5fbc110869611208d6fd29da,64d2fd46c836a06233681665,64dc7defc2a18053d6b5d4cb,,,,,,,decisionTrl,resources/DBN.BMP,resources/DR.BMP,Door2,0.386299099,-0.077031793,1,0,0,1.0876,optionRight,20,3370,2,18,0,18,0,1,,,,,,,,,,,,,,,,,,,,,,,,,,,,,,,,,,,,,,,
,,,,,,,,2023-08-16_08h43.13.268,HF_wild_card,2022.2.4,MacIntel,60.0024001,5fbc110869611208d6fd29da,64d2fd46c836a06233681665,64dc7defc2a18053d6b5d4cb,,,,,,,sngl,resources/Empty.png,resources/DP.BMP,WildCard_NonEx,0.328005303,-0.032560798,1,0,0,1.1189,optionRight,55,3425,2,19,0,19,0,1,,,,,,,,,,,,,,,,,,,,,,,,,,,,,,,,,,,,,,,
,,,,,,,,2023-08-16_08h43.13.268,HF_wild_card,2022.2.4,MacIntel,60.0024001,5fbc110869611208d6fd29da,64d2fd46c836a06233681665,64dc7defc2a18053d6b5d4cb,,,,,,,decisionTrl,resources/DB.BMP,resources/DY.BMP,Door3,0.435199924,-0.013400336,1,0,0,1.042,optionRight,70,3495,2,20,0,20,0,1,,,,,,,,,,,,,,,,,,,,,,,,,,,,,,,,,,,,,,,
,,,,,,,,2023-08-16_08h43.13.268,HF_wild_card,2022.2.4,MacIntel,60.0024001,5fbc110869611208d6fd29da,64d2fd46c836a06233681665,64dc7defc2a18053d6b5d4cb,,,,,,,decisionTrl,resources/DP.BMP,resources/DB.BMP,WildCard_NonEx,-0.332098796,-0.05672977,1,0,0,0.9499,optionLeft,55,3550,2,21,0,21,0,1,,,,,,,,,,,,,,,,,,,,,,,,,,,,,,,,,,,,,,,
,,,,,,,,2023-08-16_08h43.13.268,HF_wild_card,2022.2.4,MacIntel,60.0024001,5fbc110869611208d6fd29da,64d2fd46c836a06233681665,64dc7defc2a18053d6b5d4cb,,,,,,,decisionTrl,resources/DBN.BMP,resources/DR.BMP,Door2,0.302899441,-0.061618585,1,0,0,0.8973,optionRight,40,3590,2,22,0,22,0,1,,,,,,,,,,,,,,,,,,,,,,,,,,,,,,,,,,,,,,,
,,,,,,,,2023-08-16_08h43.13.268,HF_wild_card,2022.2.4,MacIntel,60.0024001,5fbc110869611208d6fd29da,64d2fd46c836a06233681665,64dc7defc2a18053d6b5d4cb,,,,,,,ctch,resources/DBN.BMP,resources/DB.BMP,Door4,0.387449273,-0.024832798,1,0,0,1.0093,optionRight,60,3650,2,23,0,23,0,1,,,,,,,,,,,,,,,,,,,,,,,,,,,,,,,,,,,,,,,
,,,,,,,,2023-08-16_08h43.13.268,HF_wild_card,2022.2.4,MacIntel,60.0024001,5fbc110869611208d6fd29da,64d2fd46c836a06233681665,64dc7defc2a18053d6b5d4cb,,,,,,,sngl,resources/DR.BMP,resources/Empty.png,Door2,-0.384657491,-0.107981974,1,0,0,0.7725,optionLeft,20,3670,2,24,0,24,0,1,,,,,,,,,,,,,,,,,,,,,,,,,,,,,,,,,,,,,,,
,,,,,,,,2023-08-16_08h43.13.268,HF_wild_card,2022.2.4,MacIntel,60.0024001,5fbc110869611208d6fd29da,64d2fd46c836a06233681665,64dc7defc2a18053d6b5d4cb,,,,,,,sngl,resources/DY.BMP,resources/Empty.png,Door3,-0.276881782,-0.122541504,1,0,0,0.7887,optionLeft,70,3740,2,25,0,25,0,1,,,,,,,,,,,,,,,,,,,,,,,,,,,,,,,,,,,,,,,
,,,,,,,,2023-08-16_08h43.13.268,HF_wild_card,2022.2.4,MacIntel,60.0024001,5fbc110869611208d6fd29da,64d2fd46c836a06233681665,64dc7defc2a18053d6b5d4cb,,,,,,,decisionTrl,resources/DB.BMP,resources/DY.BMP,Door3,0.37022149,-0.03173445,1,0,0,0.7551,optionRight,70,3810,2,26,0,26,0,1,,,,,,,,,,,,,,,,,,,,,,,,,,,,,,,,,,,,,,,
,,,,,,,,2023-08-16_08h43.13.268,HF_wild_card,2022.2.4,MacIntel,60.0024001,5fbc110869611208d6fd29da,64d2fd46c836a06233681665,64dc7defc2a18053d6b5d4cb,,,,,,,sngl,resources/DBN.BMP,resources/Empty.png,Door1,-0.325025397,-0.052783576,1,0,0,2.1731,optionLeft,30,3840,2,27,0,27,0,1,,,,,,,,,,,,,,,,,,,,,,,,,,,,,,,,,,,,,,,
,,,,,,,,2023-08-16_08h43.13.268,HF_wild_card,2022.2.4,MacIntel,60.0024001,5fbc110869611208d6fd29da,64d2fd46c836a06233681665,64dc7defc2a18053d6b5d4cb,,,,,,,sngl,resources/Empty.png,resources/DP.BMP,WildCard_NonEx,0.314188843,-0.054768202,1,0,0,0.8524,optionRight,45,3885,2,28,0,28,0,1,,,,,,,,,,,,,,,,,,,,,,,,,,,,,,,,,,,,,,,
,,,,,,,,2023-08-16_08h43.13.268,HF_wild_card,2022.2.4,MacIntel,60.0024001,5fbc110869611208d6fd29da,64d2fd46c836a06233681665,64dc7defc2a18053d6b5d4cb,,,,,,,decisionTrl,resources/DB.BMP,resources/DY.BMP,Door3,0.353228217,-0.016519674,1,0,0,1.1817,optionRight,70,3955,2,29,0,29,0,1,,,,,,,,,,,,,,,,,,,,,,,,,,,,,,,,,,,,,,,
,,,,,,,,2023-08-16_08h43.13.268,HF_wild_card,2022.2.4,MacIntel,60.0024001,5fbc110869611208d6fd29da,64d2fd46c836a06233681665,64dc7defc2a18053d6b5d4cb,,,,,,,decisionTrl,resources/DR.BMP,resources/DBN.BMP,Door2,-0.353594191,-0.038902215,1,0,0,1.839,optionLeft,40,3995,2,30,0,30,0,1,,,,,,,,,,,,,,,,,,,,,,,,,,,,,,,,,,,,,,,
,,,,,,,,2023-08-16_08h43.13.268,HF_wild_card,2022.2.4,MacIntel,60.0024001,5fbc110869611208d6fd29da,64d2fd46c836a06233681665,64dc7defc2a18053d6b5d4cb,,,,,,,sngl,resources/DB.BMP,resources/Empty.png,Door4,-0.369047004,-0.0995067,1,0,0,0.7806,optionLeft,60,4055,2,31,0,31,0,1,,,,,,,,,,,,,,,,,,,,,,,,,,,,,,,,,,,,,,,
,,,,,,,,2023-08-16_08h43.13.268,HF_wild_card,2022.2.4,MacIntel,60.0024001,5fbc110869611208d6fd29da,64d2fd46c836a06233681665,64dc7defc2a18053d6b5d4cb,,,,,,,ctch,resources/DY.BMP,resources/DR.BMP,Door3,-0.392133959,-0.044765727,1,0,0,1.3454,optionLeft,70,4125,2,32,0,32,0,1,,,,,,,,,,,,,,,,,,,,,,,,,,,,,,,,,,,,,,,
,,,,,,,,2023-08-16_08h43.13.268,HF_wild_card,2022.2.4,MacIntel,60.0024001,5fbc110869611208d6fd29da,64d2fd46c836a06233681665,64dc7defc2a18053d6b5d4cb,,,,,,,decisionTrl,resources/DY.BMP,resources/DB.BMP,Door3,-0.403158027,-0.091512248,1,0,0,0.9369,optionLeft,70,4195,2,33,0,33,0,1,,,,,,,,,,,,,,,,,,,,,,,,,,,,,,,,,,,,,,,
,,,,,,,,2023-08-16_08h43.13.268,HF_wild_card,2022.2.4,MacIntel,60.0024001,5fbc110869611208d6fd29da,64d2fd46c836a06233681665,64dc7defc2a18053d6b5d4cb,,,,,,,decisionTrl,resources/DP.BMP,resources/DR.BMP,WildCard_NonEx,-0.358211263,-0.069819336,1,0,0,1.2688,optionLeft,45,4240,2,34,0,34,0,1,,,,,,,,,,,,,,,,,,,,,,,,,,,,,,,,,,,,,,,
,,,,,,,,2023-08-16_08h43.13.268,HF_wild_card,2022.2.4,MacIntel,60.0024001,5fbc110869611208d6fd29da,64d2fd46c836a06233681665,64dc7defc2a18053d6b5d4cb,,,,,,,decisionTrl,resources/DBN.BMP,resources/DR.BMP,Door2,0.356106228,0.062693617,1,0,0,3.5619,optionRight,20,4260,2,35,0,35,0,1,,,,,,,,,,,,,,,,,,,,,,,,,,,,,,,,,,,,,,,
,,,,,,,,2023-08-16_08h43.13.268,HF_wild_card,2022.2.4,MacIntel,60.0024001,5fbc110869611208d6fd29da,64d2fd46c836a06233681665,64dc7defc2a18053d6b5d4cb,,,,,,,decisionTrl,resources/DP.BMP,resources/DY.BMP,WildCard_NonEx,-0.39711202,-0.129502292,1,0,0,1.0091,optionLeft,45,4305,2,36,0,36,0,1,,,,,,,,,,,,,,,,,,,,,,,,,,,,,,,,,,,,,,,
,,,,,,,,2023-08-16_08h43.13.268,HF_wild_card,2022.2.4,MacIntel,60.0024001,5fbc110869611208d6fd29da,64d2fd46c836a06233681665,64dc7defc2a18053d6b5d4cb,,,,,,,ctch,resources/DY.BMP,resources/DR.BMP,Door3,-0.302686327,-0.122662421,1,0,0,1.0322,optionLeft,70,4375,2,37,0,37,0,1,,,,,,,,,,,,,,,,,,,,,,,,,,,,,,,,,,,,,,,
,,,,,,,,2023-08-16_08h43.13.268,HF_wild_card,2022.2.4,MacIntel,60.0024001,5fbc110869611208d6fd29da,64d2fd46c836a06233681665,64dc7defc2a18053d6b5d4cb,,,,,,,sngl,resources/Empty.png,resources/DBN.BMP,Door1,0.432670356,0.005862054,1,0,0,0.9484,optionRight,30,4405,2,38,0,38,0,1,,,,,,,,,,,,,,,,,,,,,,,,,,,,,,,,,,,,,,,
,,,,,,,,2023-08-16_08h43.13.268,HF_wild_card,2022.2.4,MacIntel,60.0024001,5fbc110869611208d6fd29da,64d2fd46c836a06233681665,64dc7defc2a18053d6b5d4cb,,,,,,,decisionTrl,resources/DY.BMP,resources/DP.BMP,Door3,-0.338394301,-0.110829603,1,0,0,0.7867,optionLeft,70,4475,2,39,0,39,0,1,,,,,,,,,,,,,,,,,,,,,,,,,,,,,,,,,,,,,,,
,,,,,,,,2023-08-16_08h43.13.268,HF_wild_card,2022.2.4,MacIntel,60.0024001,5fbc110869611208d6fd29da,64d2fd46c836a06233681665,64dc7defc2a18053d6b5d4cb,,,,,,,decisionTrl,resources/DBN.BMP,resources/DR.BMP,Door2,0.446395535,-0.01652632,1,0,0,0.7594,optionRight,20,4495,2,40,0,40,0,1,,,,,,,,,,,,,,,,,,,,,,,,,,,,,,,,,,,,,,,
,,,,,,,,2023-08-16_08h43.13.268,HF_wild_card,2022.2.4,MacIntel,60.0024001,5fbc110869611208d6fd29da,64d2fd46c836a06233681665,64dc7defc2a18053d6b5d4cb,,,,,,,ctch,resources/DBN.BMP,resources/DB.BMP,Door4,0.393810086,-0.048636339,1,0,0,0.7873,optionRight,80,4575,2,41,0,41,0,1,,,,,,,,,,,,,,,,,,,,,,,,,,,,,,,,,,,,,,,
,,,,,,,,2023-08-16_08h43.13.268,HF_wild_card,2022.2.4,MacIntel,60.0024001,5fbc110869611208d6fd29da,64d2fd46c836a06233681665,64dc7defc2a18053d6b5d4cb,,,,,,,sngl,resources/Empty.png,resources/DY.BMP,Door3,0.359363878,-0.058605482,1,0,0,0.7864,optionRight,70,4645,2,42,0,42,0,1,,,,,,,,,,,,,,,,,,,,,,,,,,,,,,,,,,,,,,,
,,,,,,,,2023-08-16_08h43.13.268,HF_wild_card,2022.2.4,MacIntel,60.0024001,5fbc110869611208d6fd29da,64d2fd46c836a06233681665,64dc7defc2a18053d6b5d4cb,,,,,,,decisionTrl,resources/DY.BMP,resources/DB.BMP,Door3,-0.44751709,-0.135954183,1,0,0,0.77,optionLeft,70,4715,2,43,0,43,0,1,,,,,,,,,,,,,,,,,,,,,,,,,,,,,,,,,,,,,,,
,,,,,,,,2023-08-16_08h43.13.268,HF_wild_card,2022.2.4,MacIntel,60.0024001,5fbc110869611208d6fd29da,64d2fd46c836a06233681665,64dc7defc2a18053d6b5d4cb,,,,,,,,,,,,,,,,,,,,,,,,,,1,0,1,0,1,,,,,,,,,,,,,,,,,,,,,,,,,,,,,,,,,,
,,,,,,,,2023-08-16_08h43.13.268,HF_wild_card,2022.2.4,MacIntel,60.0024001,5fbc110869611208d6fd29da,64d2fd46c836a06233681665,64dc7defc2a18053d6b5d4cb,,,,,,,decisionTrl,resources/DY.BMP,resources/DP.BMP,WildCard_NonEx,0.42101888,-0.082121582,1,0,0,1.3781,optionRight,45,4760,3,0,0,0,0,1,,,,,,,,,,,,,,,,,,,,,,,,,,,,,,,,,,,,,,,
,,,,,,,,2023-08-16_08h43.13.268,HF_wild_card,2022.2.4,MacIntel,60.0024001,5fbc110869611208d6fd29da,64d2fd46c836a06233681665,64dc7defc2a18053d6b5d4cb,,,,,,,decisionTrl,resources/DBN.BMP,resources/DP.BMP,WildCard_NonEx,0.365352241,-0.078733792,1,0,0,1.4967,optionRight,55,4815,3,1,0,1,0,1,,,,,,,,,,,,,,,,,,,,,,,,,,,,,,,,,,,,,,,
,,,,,,,,2023-08-16_08h43.13.268,HF_wild_card,2022.2.4,MacIntel,60.0024001,5fbc110869611208d6fd29da,64d2fd46c836a06233681665,64dc7defc2a18053d6b5d4cb,,,,,,,ctch,resources/DBN.BMP,resources/DB.BMP,Door4,0.39849528,-0.081306356,1,0,0,1.2986,optionRight,60,4875,3,2,0,2,0,1,,,,,,,,,,,,,,,,,,,,,,,,,,,,,,,,,,,,,,,
,,,,,,,,2023-08-16_08h43.13.268,HF_wild_card,2022.2.4,MacIntel,60.0024001,5fbc110869611208d6fd29da,64d2fd46c836a06233681665,64dc7defc2a18053d6b5d4cb,,,,,,,ctch,resources/DR.BMP,resources/DY.BMP,Door3,0.375922038,-0.031891954,1,0,0,1.062,optionRight,70,4945,3,3,0,3,0,1,,,,,,,,,,,,,,,,,,,,,,,,,,,,,,,,,,,,,,,
,,,,,,,,2023-08-16_08h43.13.268,HF_wild_card,2022.2.4,MacIntel,60.0024001,5fbc110869611208d6fd29da,64d2fd46c836a06233681665,64dc7defc2a18053d6b5d4cb,,,,,,,decisionTrl,resources/DP.BMP,resources/DBN.BMP,WildCard_NonEx,-0.469341261,-0.148840603,1,0,0,0.8886,optionLeft,55,5000,3,4,0,4,0,1,,,,,,,,,,,,,,,,,,,,,,,,,,,,,,,,,,,,,,,
,,,,,,,,2023-08-16_08h43.13.268,HF_wild_card,2022.2.4,MacIntel,60.0024001,5fbc110869611208d6fd29da,64d2fd46c836a06233681665,64dc7defc2a18053d6b5d4cb,,,,,,,decisionTrl,resources/DBN.BMP,resources/DR.BMP,Door2,0.464381646,-0.025441284,1,0,0,0.8085,optionRight,20,5020,3,5,0,5,0,1,,,,,,,,,,,,,,,,,,,,,,,,,,,,,,,,,,,,,,,
,,,,,,,,2023-08-16_08h43.13.268,HF_wild_card,2022.2.4,MacIntel,60.0024001,5fbc110869611208d6fd29da,64d2fd46c836a06233681665,64dc7defc2a18053d6b5d4cb,,,,,,,sngl,resources/Empty.png,resources/DB.BMP,Door4,0.416558838,-0.031749132,1,0,0,0.7944,optionRight,60,5080,3,6,0,6,0,1,,,,,,,,,,,,,,,,,,,,,,,,,,,,,,,,,,,,,,,
,,,,,,,,2023-08-16_08h43.13.268,HF_wild_card,2022.2.4,MacIntel,60.0024001,5fbc110869611208d6fd29da,64d2fd46c836a06233681665,64dc7defc2a18053d6b5d4cb,,,,,,,decisionTrl,resources/DBN.BMP,resources/DR.BMP,Door2,0.327806532,-0.043924527,1,0,0,1.1084,optionRight,40,5120,3,7,0,7,0,1,,,,,,,,,,,,,,,,,,,,,,,,,,,,,,,,,,,,,,,
,,,,,,,,2023-08-16_08h43.13.268,HF_wild_card,2022.2.4,MacIntel,60.0024001,5fbc110869611208d6fd29da,64d2fd46c836a06233681665,64dc7defc2a18053d6b5d4cb,,,,,,,sngl,resources/DR.BMP,resources/Empty.png,Door2,-0.317946811,-0.101531982,1,0,0,0.9384,optionLeft,40,5160,3,8,0,8,0,1,,,,,,,,,,,,,,,,,,,,,,,,,,,,,,,,,,,,,,,
,,,,,,,,2023-08-16_08h43.13.268,HF_wild_card,2022.2.4,MacIntel,60.0024001,5fbc110869611208d6fd29da,64d2fd46c836a06233681665,64dc7defc2a18053d6b5d4cb,,,,,,,decisionTrl,resources/DB.BMP,resources/DY.BMP,Door3,0.414852973,-0.003740811,1,0,0,0.9917,optionRight,70,5230,3,9,0,9,0,1,,,,,,,,,,,,,,,,,,,,,,,,,,,,,,,,,,,,,,,
,,,,,,,,2023-08-16_08h43.13.268,HF_wild_card,2022.2.4,MacIntel,60.0024001,5fbc110869611208d6fd29da,64d2fd46c836a06233681665,64dc7defc2a18053d6b5d4cb,,,,,,,decisionTrl,resources/DP.BMP,resources/DR.BMP,WildCard_NonEx,-0.336726685,-0.060452847,1,0,0,1.1512,optionLeft,55,5285,3,10,0,10,0,1,,,,,,,,,,,,,,,,,,,,,,,,,,,,,,,,,,,,,,,
,,,,,,,,2023-08-16_08h43.13.268,HF_wild_card,2022.2.4,MacIntel,60.0024001,5fbc110869611208d6fd29da,64d2fd46c836a06233681665,64dc7defc2a18053d6b5d4cb,,,,,,,decisionTrl,resources/DBN.BMP,resources/DR.BMP,Door2,0.432859701,-0.00940701,1,0,0,1.119,optionRight,40,5325,3,11,0,11,0,1,,,,,,,,,,,,,,,,,,,,,,,,,,,,,,,,,,,,,,,
,,,,,,,,2023-08-16_08h43.13.268,HF_wild_card,2022.2.4,MacIntel,60.0024001,5fbc110869611208d6fd29da,64d2fd46c836a06233681665,64dc7defc2a18053d6b5d4cb,,,,,,,sngl,resources/DB.BMP,resources/Empty.png,Door4,-0.319288873,-0.119474826,1,0,0,0.998,optionLeft,80,5405,3,12,0,12,0,1,,,,,,,,,,,,,,,,,,,,,,,,,,,,,,,,,,,,,,,
,,,,,,,,2023-08-16_08h43.13.268,HF_wild_card,2022.2.4,MacIntel,60.0024001,5fbc110869611208d6fd29da,64d2fd46c836a06233681665,64dc7defc2a18053d6b5d4cb,,,,,,,decisionTrl,resources/DB.BMP,resources/DY.BMP,Door3,0.37710083,-0.001484918,1,0,0,0.8734,optionRight,70,5475,3,13,0,13,0,1,,,,,,,,,,,,,,,,,,,,,,,,,,,,,,,,,,,,,,,
,,,,,,,,2023-08-16_08h43.13.268,HF_wild_card,2022.2.4,MacIntel,60.0024001,5fbc110869611208d6fd29da,64d2fd46c836a06233681665,64dc7defc2a18053d6b5d4cb,,,,,,,sngl,resources/DP.BMP,resources/Empty.png,WildCard_NonEx,-0.344199897,-0.124937541,1,0,0,1.1068,optionLeft,55,5530,3,14,0,14,0,1,,,,,,,,,,,,,,,,,,,,,,,,,,,,,,,,,,,,,,,
,,,,,,,,2023-08-16_08h43.13.268,HF_wild_card,2022.2.4,MacIntel,60.0024001,5fbc110869611208d6fd29da,64d2fd46c836a06233681665,64dc7defc2a18053d6b5d4cb,,,,,,,decisionTrl,resources/DP.BMP,resources/DY.BMP,WildCard_NonEx,-0.318074375,-0.10776652,1,0,0,1.2764,optionLeft,55,5585,3,15,0,15,0,1,,,,,,,,,,,,,,,,,,,,,,,,,,,,,,,,,,,,,,,
,,,,,,,,2023-08-16_08h43.13.268,HF_wild_card,2022.2.4,MacIntel,60.0024001,5fbc110869611208d6fd29da,64d2fd46c836a06233681665,64dc7defc2a18053d6b5d4cb,,,,,,,sngl,resources/DY.BMP,resources/Empty.png,Door3,-0.357038337,-0.099230075,1,0,0,1.1252,optionLeft,70,5655,3,16,0,16,0,1,,,,,,,,,,,,,,,,,,,,,,,,,,,,,,,,,,,,,,,
,,,,,,,,2023-08-16_08h43.13.268,HF_wild_card,2022.2.4,MacIntel,60.0024001,5fbc110869611208d6fd29da,64d2fd46c836a06233681665,64dc7defc2a18053d6b5d4cb,,,,,,,decisionTrl,resources/DY.BMP,resources/DB.BMP,Door3,-0.310195889,-0.127995402,1,0,0,0.8518,optionLeft,70,5725,3,17,0,17,0,1,,,,,,,,,,,,,,,,,,,,,,,,,,,,,,,,,,,,,,,
,,,,,,,,2023-08-16_08h43.13.268,HF_wild_card,2022.2.4,MacIntel,60.0024001,5fbc110869611208d6fd29da,64d2fd46c836a06233681665,64dc7defc2a18053d6b5d4cb,,,,,,,decisionTrl,resources/DR.BMP,resources/DBN.BMP,Door2,-0.318616028,-0.041765272,1,0,0,0.7497,optionLeft,40,5765,3,18,0,18,0,1,,,,,,,,,,,,,,,,,,,,,,,,,,,,,,,,,,,,,,,
,,,,,,,,2023-08-16_08h43.13.268,HF_wild_card,2022.2.4,MacIntel,60.0024001,5fbc110869611208d6fd29da,64d2fd46c836a06233681665,64dc7defc2a18053d6b5d4cb,,,,,,,sngl,resources/DP.BMP,resources/Empty.png,WildCard_NonEx,-0.406808268,-0.129961616,1,0,0,0.8174,optionLeft,45,5810,3,19,0,19,0,1,,,,,,,,,,,,,,,,,,,,,,,,,,,,,,,,,,,,,,,
,,,,,,,,2023-08-16_08h43.13.268,HF_wild_card,2022.2.4,MacIntel,60.0024001,5fbc110869611208d6fd29da,64d2fd46c836a06233681665,64dc7defc2a18053d6b5d4cb,,,,,,,ctch,resources/DY.BMP,resources/DR.BMP,Door3,-0.353919101,-0.093116455,1,0,0,0.9494,optionLeft,70,5880,3,20,0,20,0,1,,,,,,,,,,,,,,,,,,,,,,,,,,,,,,,,,,,,,,,
,,,,,,,,2023-08-16_08h43.13.268,HF_wild_card,2022.2.4,MacIntel,60.0024001,5fbc110869611208d6fd29da,64d2fd46c836a06233681665,64dc7defc2a18053d6b5d4cb,,,,,,,sngl,resources/Empty.png,resources/DP.BMP,WildCard_NonEx,0.36156562,-0.018014798,1,0,0,0.7606,optionRight,55,5935,3,21,0,21,0,1,,,,,,,,,,,,,,,,,,,,,,,,,,,,,,,,,,,,,,,
,,,,,,,,2023-08-16_08h43.13.268,HF_wild_card,2022.2.4,MacIntel,60.0024001,5fbc110869611208d6fd29da,64d2fd46c836a06233681665,64dc7defc2a18053d6b5d4cb,,,,,,,sngl,resources/Empty.png,resources/DBN.BMP,Door1,0.419374457,0.079797465,1,0,0,1.642,optionRight,30,5965,3,22,0,22,0,1,,,,,,,,,,,,,,,,,,,,,,,,,,,,,,,,,,,,,,,
,,,,,,,,2023-08-16_08h43.13.268,HF_wild_card,2022.2.4,MacIntel,60.0024001,5fbc110869611208d6fd29da,64d2fd46c836a06233681665,64dc7defc2a18053d6b5d4cb,,,,,,,ctch,resources/DBN.BMP,resources/DB.BMP,Door4,0.301320665,-0.028113471,1,0,0,1.1211,optionRight,80,6045,3,23,0,23,0,1,,,,,,,,,,,,,,,,,,,,,,,,,,,,,,,,,,,,,,,
,,,,,,,,2023-08-16_08h43.13.268,HF_wild_card,2022.2.4,MacIntel,60.0024001,5fbc110869611208d6fd29da,64d2fd46c836a06233681665,64dc7defc2a18053d6b5d4cb,,,,,,,ctch,resources/DB.BMP,resources/DBN.BMP,Door4,-0.440679389,-0.106200833,1,0,0,0.762,optionLeft,80,6125,3,24,0,24,0,1,,,,,,,,,,,,,,,,,,,,,,,,,,,,,,,,,,,,,,,
,,,,,,,,2023-08-16_08h43.13.268,HF_wild_card,2022.2.4,MacIntel,60.0024001,5fbc110869611208d6fd29da,64d2fd46c836a06233681665,64dc7defc2a18053d6b5d4cb,,,,,,,ctch,resources/DR.BMP,resources/DY.BMP,Door3,0.430295139,-0.079745348,1,0,0,1.085,optionRight,70,6195,3,25,0,25,0,1,,,,,,,,,,,,,,,,,,,,,,,,,,,,,,,,,,,,,,,
,,,,,,,,2023-08-16_08h43.13.268,HF_wild_card,2022.2.4,MacIntel,60.0024001,5fbc110869611208d6fd29da,64d2fd46c836a06233681665,64dc7defc2a18053d6b5d4cb,,,,,,,decisionTrl,resources/DR.BMP,resources/DBN.BMP,Door2,-0.376837701,-0.138230387,1,0,0,0.8011,optionLeft,40,6235,3,26,0,26,0,1,,,,,,,,,,,,,,,,,,,,,,,,,,,,,,,,,,,,,,,
,,,,,,,,2023-08-16_08h43.13.268,HF_wild_card,2022.2.4,MacIntel,60.0024001,5fbc110869611208d6fd29da,64d2fd46c836a06233681665,64dc7defc2a18053d6b5d4cb,,,,,,,decisionTrl,resources/DP.BMP,resources/DB.BMP,WildCard_NonEx,-0.390918715,-0.06339152,1,0,0,1.3026,optionLeft,45,6280,3,27,0,27,0,1,,,,,,,,,,,,,,,,,,,,,,,,,,,,,,,,,,,,,,,
,,,,,,,,2023-08-16_08h43.13.268,HF_wild_card,2022.2.4,MacIntel,60.0024001,5fbc110869611208d6fd29da,64d2fd46c836a06233681665,64dc7defc2a18053d6b5d4cb,,,,,,,decisionTrl,resources/DY.BMP,resources/DB.BMP,Door3,-0.313964979,-0.086045193,1,0,0,1.2296,optionLeft,70,6350,3,28,0,28,0,1,,,,,,,,,,,,,,,,,,,,,,,,,,,,,,,,,,,,,,,
,,,,,,,,2023-08-16_08h43.13.268,HF_wild_card,2022.2.4,MacIntel,60.0024001,5fbc110869611208d6fd29da,64d2fd46c836a06233681665,64dc7defc2a18053d6b5d4cb,,,,,,,sngl,resources/Empty.png,resources/DP.BMP,WildCard_NonEx,0.427471653,-0.023038873,1,0,0,0.7904,optionRight,45,6395,3,29,0,29,0,1,,,,,,,,,,,,,,,,,,,,,,,,,,,,,,,,,,,,,,,
,,,,,,,,2023-08-16_08h43.13.268,HF_wild_card,2022.2.4,MacIntel,60.0024001,5fbc110869611208d6fd29da,64d2fd46c836a06233681665,64dc7defc2a18053d6b5d4cb,,,,,,,decisionTrl,resources/DBN.BMP,resources/DR.BMP,Door2,0.400632867,-0.008828871,1,0,0,0.8373,optionRight,40,6435,3,30,0,30,0,1,,,,,,,,,,,,,,,,,,,,,,,,,,,,,,,,,,,,,,,
,,,,,,,,2023-08-16_08h43.13.268,HF_wild_card,2022.2.4,MacIntel,60.0024001,5fbc110869611208d6fd29da,64d2fd46c836a06233681665,64dc7defc2a18053d6b5d4cb,,,,,,,ctch,resources/DB.BMP,resources/DBN.BMP,Door4,-0.491938036,-0.138889635,1,0,0,0.9163,optionLeft,60,6495,3,31,0,31,0,1,,,,,,,,,,,,,,,,,,,,,,,,,,,,,,,,,,,,,,,
,,,,,,,,2023-08-16_08h43.13.268,HF_wild_card,2022.2.4,MacIntel,60.0024001,5fbc110869611208d6fd29da,64d2fd46c836a06233681665,64dc7defc2a18053d6b5d4cb,,,,,,,sngl,resources/Empty.png,resources/DY.BMP,Door3,0.479648844,0.047470974,1,0,0,0.7123,optionRight,70,6565,3,32,0,32,0,1,,,,,,,,,,,,,,,,,,,,,,,,,,,,,,,,,,,,,,,
,,,,,,,,2023-08-16_08h43.13.268,HF_wild_card,2022.2.4,MacIntel,60.0024001,5fbc110869611208d6fd29da,64d2fd46c836a06233681665,64dc7defc2a18053d6b5d4cb,,,,,,,ctch,resources/DY.BMP,resources/DR.BMP,Door3,-0.395964695,-0.100746799,1,0,0,0.7466,optionLeft,70,6635,3,33,0,33,0,1,,,,,,,,,,,,,,,,,,,,,,,,,,,,,,,,,,,,,,,
,,,,,,,,2023-08-16_08h43.13.268,HF_wild_card,2022.2.4,MacIntel,60.0024001,5fbc110869611208d6fd29da,64d2fd46c836a06233681665,64dc7defc2a18053d6b5d4cb,,,,,,,sngl,resources/DBN.BMP,resources/Empty.png,Door1,-0.254320814,-0.062083401,1,0,0,0.828,optionLeft,30,6665,3,34,0,34,0,1,,,,,,,,,,,,,,,,,,,,,,,,,,,,,,,,,,,,,,,
,,,,,,,,2023-08-16_08h43.13.268,HF_wild_card,2022.2.4,MacIntel,60.0024001,5fbc110869611208d6fd29da,64d2fd46c836a06233681665,64dc7defc2a18053d6b5d4cb,,,,,,,decisionTrl,resources/DR.BMP,resources/DBN.BMP,Door2,-0.295924038,-0.079753079,1,0,0,0.7217,optionLeft,40,6705,3,35,0,35,0,1,,,,,,,,,,,,,,,,,,,,,,,,,,,,,,,,,,,,,,,
,,,,,,,,2023-08-16_08h43.13.268,HF_wild_card,2022.2.4,MacIntel,60.0024001,5fbc110869611208d6fd29da,64d2fd46c836a06233681665,64dc7defc2a18053d6b5d4cb,,,,,,,decisionTrl,resources/DR.BMP,resources/DP.BMP,WildCard_NonEx,0.375253635,0.020911153,1,0,0,1.092,optionRight,45,6750,3,36,0,36,0,1,,,,,,,,,,,,,,,,,,,,,,,,,,,,,,,,,,,,,,,
,,,,,,,,2023-08-16_08h43.13.268,HF_wild_card,2022.2.4,MacIntel,60.0024001,5fbc110869611208d6fd29da,64d2fd46c836a06233681665,64dc7defc2a18053d6b5d4cb,,,,,,,sngl,resources/Empty.png,resources/DR.BMP,Door2,0.358591851,-0.04773468,1,0,0,1.0067,optionRight,20,6770,3,37,0,37,0,1,,,,,,,,,,,,,,,,,,,,,,,,,,,,,,,,,,,,,,,
,,,,,,,,2023-08-16_08h43.13.268,HF_wild_card,2022.2.4,MacIntel,60.0024001,5fbc110869611208d6fd29da,64d2fd46c836a06233681665,64dc7defc2a18053d6b5d4cb,,,,,,,decisionTrl,resources/DY.BMP,resources/DB.BMP,Door3,-0.453326484,-0.113211399,1,0,0,0.8269,optionLeft,70,6840,3,38,0,38,0,1,,,,,,,,,,,,,,,,,,,,,,,,,,,,,,,,,,,,,,,
,,,,,,,,2023-08-16_08h43.13.268,HF_wild_card,2022.2.4,MacIntel,60.0024001,5fbc110869611208d6fd29da,64d2fd46c836a06233681665,64dc7defc2a18053d6b5d4cb,,,,,,,decisionTrl,resources/DB.BMP,resources/DP.BMP,WildCard_NonEx,0.351572266,0.019486321,1,0,0,0.7542,optionRight,45,6885,3,39,0,39,0,1,,,,,,,,,,,,,,,,,,,,,,,,,,,,,,,,,,,,,,,
,,,,,,,,2023-08-16_08h43.13.268,HF_wild_card,2022.2.4,MacIntel,60.0024001,5fbc110869611208d6fd29da,64d2fd46c836a06233681665,64dc7defc2a18053d6b5d4cb,,,,,,,decisionTrl,resources/DB.BMP,resources/DY.BMP,Door3,0.353368191,0.006088155,1,0,0,1.113,optionRight,70,6955,3,40,0,40,0,1,,,,,,,,,,,,,,,,,,,,,,,,,,,,,,,,,,,,,,,
,,,,,,,,2023-08-16_08h43.13.268,HF_wild_card,2022.2.4,MacIntel,60.0024001,5fbc110869611208d6fd29da,64d2fd46c836a06233681665,64dc7defc2a18053d6b5d4cb,,,,,,,decisionTrl,resources/DB.BMP,resources/DY.BMP,Door3,0.446946615,-0.029107768,1,0,0,1.1429,optionRight,70,7025,3,41,0,41,0,1,,,,,,,,,,,,,,,,,,,,,,,,,,,,,,,,,,,,,,,
,,,,,,,,2023-08-16_08h43.13.268,HF_wild_card,2022.2.4,MacIntel,60.0024001,5fbc110869611208d6fd29da,64d2fd46c836a06233681665,64dc7defc2a18053d6b5d4cb,,,,,,,decisionTrl,resources/DY.BMP,resources/DB.BMP,Door3,-0.436901686,-0.083561334,1,0,0,0.8373,optionLeft,70,7095,3,42,0,42,0,1,,,,,,,,,,,,,,,,,,,,,,,,,,,,,,,,,,,,,,,
,,,,,,,,2023-08-16_08h43.13.268,HF_wild_card,2022.2.4,MacIntel,60.0024001,5fbc110869611208d6fd29da,64d2fd46c836a06233681665,64dc7defc2a18053d6b5d4cb,,,,,,,decisionTrl,resources/DR.BMP,resources/DBN.BMP,Door2,-0.341562127,-0.111076525,1,0,0,0.9887,optionLeft,40,7135,3,43,0,43,0,1,,,,,,,,,,,,,,,,,,,,,,,,,,,,,,,,,,,,,,,
,,,,,,,,2023-08-16_08h43.13.268,HF_wild_card,2022.2.4,MacIntel,60.0024001,5fbc110869611208d6fd29da,64d2fd46c836a06233681665,64dc7defc2a18053d6b5d4cb,,,,,,,,,,,,,,,,,,,,,,,,,,2,0,2,0,1,,,,,,,,,,,,,,,,,,,,,,,,,,,,,,,,,,
,,,,,,,,2023-08-16_08h43.13.268,HF_wild_card,2022.2.4,MacIntel,60.0024001,5fbc110869611208d6fd29da,64d2fd46c836a06233681665,64dc7defc2a18053d6b5d4cb,,,,,,,decisionTrl,resources/DG.BMP,resources/DBN.BMP,WildCard_Ex,-0.518006439,-0.030176053,1,0,0,3.6264,optionLeft,95,7230,4,0,0,0,0,1,,,,,,,,,,,,,,,,,,,,,,,,,,,,,,,,,,,,,,,
,,,,,,,,2023-08-16_08h43.13.268,HF_wild_card,2022.2.4,MacIntel,60.0024001,5fbc110869611208d6fd29da,64d2fd46c836a06233681665,64dc7defc2a18053d6b5d4cb,,,,,,,sngl,resources/DG.BMP,resources/Empty.png,WildCard_Ex,-0.431010166,0.077802599,1,0,0,0.8044,optionLeft,95,7325,4,1,0,1,0,1,,,,,,,,,,,,,,,,,,,,,,,,,,,,,,,,,,,,,,,
,,,,,,,,2023-08-16_08h43.13.268,HF_wild_card,2022.2.4,MacIntel,60.0024001,5fbc110869611208d6fd29da,64d2fd46c836a06233681665,64dc7defc2a18053d6b5d4cb,,,,,,,ctch,resources/DY.BMP,resources/DR.BMP,Door3,-0.346984083,0.013563504,1,0,0,1.341,optionLeft,70,7395,4,2,0,2,0,1,,,,,,,,,,,,,,,,,,,,,,,,,,,,,,,,,,,,,,,
,,,,,,,,2023-08-16_08h43.13.268,HF_wild_card,2022.2.4,MacIntel,60.0024001,5fbc110869611208d6fd29da,64d2fd46c836a06233681665,64dc7defc2a18053d6b5d4cb,,,,,,,decisionTrl,resources/DG.BMP,resources/DY.BMP,Door3,0.413761529,-0.006032681,1,0,0,1.0603,optionRight,70,7465,4,3,0,3,0,1,,,,,,,,,,,,,,,,,,,,,,,,,,,,,,,,,,,,,,,
,,,,,,,,2023-08-16_08h43.13.268,HF_wild_card,2022.2.4,MacIntel,60.0024001,5fbc110869611208d6fd29da,64d2fd46c836a06233681665,64dc7defc2a18053d6b5d4cb,,,,,,,decisionTrl,resources/DR.BMP,resources/DBN.BMP,Door2,-0.318582018,-0.006137627,1,0,0,1.8415,optionLeft,40,7505,4,4,0,4,0,1,,,,,,,,,,,,,,,,,,,,,,,,,,,,,,,,,,,,,,,
,,,,,,,,2023-08-16_08h43.13.268,HF_wild_card,2022.2.4,MacIntel,60.0024001,5fbc110869611208d6fd29da,64d2fd46c836a06233681665,64dc7defc2a18053d6b5d4cb,,,,,,,ctch,resources/DBN.BMP,resources/DB.BMP,Door4,0.375313856,-0.015099284,1,0,0,0.8861,optionRight,80,7585,4,5,0,5,0,1,,,,,,,,,,,,,,,,,,,,,,,,,,,,,,,,,,,,,,,
,,,,,,,,2023-08-16_08h43.13.268,HF_wild_card,2022.2.4,MacIntel,60.0024001,5fbc110869611208d6fd29da,64d2fd46c836a06233681665,64dc7defc2a18053d6b5d4cb,,,,,,,decisionTrl,resources/DG.BMP,resources/DB.BMP,WildCard_Ex,-0.332386509,-0.036497871,1,0,0,1.4313,optionLeft,5,7590,4,6,0,6,0,1,,,,,,,,,,,,,,,,,,,,,,,,,,,,,,,,,,,,,,,
,,,,,,,,2023-08-16_08h43.13.268,HF_wild_card,2022.2.4,MacIntel,60.0024001,5fbc110869611208d6fd29da,64d2fd46c836a06233681665,64dc7defc2a18053d6b5d4cb,,,,,,,sngl,resources/Empty.png,resources/DR.BMP,Door2,0.398399387,0.000129462,1,0,0,1.2206,optionRight,40,7630,4,7,0,7,0,1,,,,,,,,,,,,,,,,,,,,,,,,,,,,,,,,,,,,,,,
,,,,,,,,2023-08-16_08h43.13.268,HF_wild_card,2022.2.4,MacIntel,60.0024001,5fbc110869611208d6fd29da,64d2fd46c836a06233681665,64dc7defc2a18053d6b5d4cb,,,,,,,decisionTrl,resources/DB.BMP,resources/DY.BMP,Door3,0.425298665,-0.002717828,1,0,0,1.0883,optionRight,70,7700,4,8,0,8,0,1,,,,,,,,,,,,,,,,,,,,,,,,,,,,,,,,,,,,,,,
,,,,,,,,2023-08-16_08h43.13.268,HF_wild_card,2022.2.4,MacIntel,60.0024001,5fbc110869611208d6fd29da,64d2fd46c836a06233681665,64dc7defc2a18053d6b5d4cb,,,,,,,decisionTrl,resources/DY.BMP,resources/DG.BMP,Door3,-0.376306559,-0.158128526,1,0,0,0.6642,optionLeft,70,7770,4,9,0,9,0,1,,,,,,,,,,,,,,,,,,,,,,,,,,,,,,,,,,,,,,,
,,,,,,,,2023-08-16_08h43.13.268,HF_wild_card,2022.2.4,MacIntel,60.0024001,5fbc110869611208d6fd29da,64d2fd46c836a06233681665,64dc7defc2a18053d6b5d4cb,,,,,,,sngl,resources/Empty.png,resources/DG.BMP,WildCard_Ex,0.399095323,0.019808892,1,0,0,0.9204,optionRight,95,7865,4,10,0,10,0,1,,,,,,,,,,,,,,,,,,,,,,,,,,,,,,,,,,,,,,,
,,,,,,,,2023-08-16_08h43.13.268,HF_wild_card,2022.2.4,MacIntel,60.0024001,5fbc110869611208d6fd29da,64d2fd46c836a06233681665,64dc7defc2a18053d6b5d4cb,,,,,,,decisionTrl,resources/DBN.BMP,resources/DR.BMP,Door2,0.33980211,-0.015587836,1,0,0,0.9154,optionRight,40,7905,4,11,0,11,0,1,,,,,,,,,,,,,,,,,,,,,,,,,,,,,,,,,,,,,,,
,,,,,,,,2023-08-16_08h43.13.268,HF_wild_card,2022.2.4,MacIntel,60.0024001,5fbc110869611208d6fd29da,64d2fd46c836a06233681665,64dc7defc2a18053d6b5d4cb,,,,,,,sngl,resources/DBN.BMP,resources/Empty.png,Door1,-0.295746087,-0.071571587,1,0,0,0.8272,optionLeft,30,7935,4,12,0,12,0,1,,,,,,,,,,,,,,,,,,,,,,,,,,,,,,,,,,,,,,,
,,,,,,,,2023-08-16_08h43.13.268,HF_wild_card,2022.2.4,MacIntel,60.0024001,5fbc110869611208d6fd29da,64d2fd46c836a06233681665,64dc7defc2a18053d6b5d4cb,,,,,,,decisionTrl,resources/DR.BMP,resources/DBN.BMP,Door2,-0.323712124,-0.09213284,1,0,0,0.7361,optionLeft,40,7975,4,13,0,13,0,1,,,,,,,,,,,,,,,,,,,,,,,,,,,,,,,,,,,,,,,
,,,,,,,,2023-08-16_08h43.13.268,HF_wild_card,2022.2.4,MacIntel,60.0024001,5fbc110869611208d6fd29da,64d2fd46c836a06233681665,64dc7defc2a18053d6b5d4cb,,,,,,,ctch,resources/DR.BMP,resources/DY.BMP,Door3,0.348864204,0.021750963,1,0,0,0.822,optionRight,70,8045,4,14,0,14,0,1,,,,,,,,,,,,,,,,,,,,,,,,,,,,,,,,,,,,,,,
,,,,,,,,2023-08-16_08h43.13.268,HF_wild_card,2022.2.4,MacIntel,60.0024001,5fbc110869611208d6fd29da,64d2fd46c836a06233681665,64dc7defc2a18053d6b5d4cb,,,,,,,decisionTrl,resources/DR.BMP,resources/DBN.BMP,Door2,-0.520132785,-0.138890516,1,0,0,0.7596,optionLeft,20,8065,4,15,0,15,0,1,,,,,,,,,,,,,,,,,,,,,,,,,,,,,,,,,,,,,,,
,,,,,,,,2023-08-16_08h43.13.268,HF_wild_card,2022.2.4,MacIntel,60.0024001,5fbc110869611208d6fd29da,64d2fd46c836a06233681665,64dc7defc2a18053d6b5d4cb,,,,,,,decisionTrl,resources/DY.BMP,resources/DB.BMP,Door3,-0.35879303,-0.077971734,1,0,0,0.9933,optionLeft,70,8135,4,16,0,16,0,1,,,,,,,,,,,,,,,,,,,,,,,,,,,,,,,,,,,,,,,
,,,,,,,,2023-08-16_08h43.13.268,HF_wild_card,2022.2.4,MacIntel,60.0024001,5fbc110869611208d6fd29da,64d2fd46c836a06233681665,64dc7defc2a18053d6b5d4cb,,,,,,,sngl,resources/DY.BMP,resources/Empty.png,Door3,-0.327257182,-0.155350003,1,0,0,0.6805,optionLeft,70,8205,4,17,0,17,0,1,,,,,,,,,,,,,,,,,,,,,,,,,,,,,,,,,,,,,,,
,,,,,,,,2023-08-16_08h43.13.268,HF_wild_card,2022.2.4,MacIntel,60.0024001,5fbc110869611208d6fd29da,64d2fd46c836a06233681665,64dc7defc2a18053d6b5d4cb,,,,,,,sngl,resources/DB.BMP,resources/Empty.png,Door4,-0.330392965,-0.097213474,1,0,0,0.9607,optionLeft,60,8265,4,18,0,18,0,1,,,,,,,,,,,,,,,,,,,,,,,,,,,,,,,,,,,,,,,
,,,,,,,,2023-08-16_08h43.13.268,HF_wild_card,2022.2.4,MacIntel,60.0024001,5fbc110869611208d6fd29da,64d2fd46c836a06233681665,64dc7defc2a18053d6b5d4cb,,,,,,,decisionTrl,resources/DBN.BMP,resources/DR.BMP,Door2,0.429049886,-0.005543009,1,0,0,0.8376,optionRight,40,8305,4,19,0,19,0,1,,,,,,,,,,,,,,,,,,,,,,,,,,,,,,,,,,,,,,,
,,,,,,,,2023-08-16_08h43.13.268,HF_wild_card,2022.2.4,MacIntel,60.0024001,5fbc110869611208d6fd29da,64d2fd46c836a06233681665,64dc7defc2a18053d6b5d4cb,,,,,,,sngl,resources/Empty.png,resources/DG.BMP,WildCard_Ex,0.430987956,0.015586514,1,0,0,1.157,optionRight,5,8310,4,20,0,20,0,1,,,,,,,,,,,,,,,,,,,,,,,,,,,,,,,,,,,,,,,
,,,,,,,,2023-08-16_08h43.13.268,HF_wild_card,2022.2.4,MacIntel,60.0024001,5fbc110869611208d6fd29da,64d2fd46c836a06233681665,64dc7defc2a18053d6b5d4cb,,,,,,,decisionTrl,resources/DY.BMP,resources/DB.BMP,Door3,-0.374282227,-0.078342014,1,0,0,0.8766,optionLeft,70,8380,4,21,0,21,0,1,,,,,,,,,,,,,,,,,,,,,,,,,,,,,,,,,,,,,,,
,,,,,,,,2023-08-16_08h43.13.268,HF_wild_card,2022.2.4,MacIntel,60.0024001,5fbc110869611208d6fd29da,64d2fd46c836a06233681665,64dc7defc2a18053d6b5d4cb,,,,,,,decisionTrl,resources/DBN.BMP,resources/DR.BMP,Door2,0.466862386,0.027943217,1,0,0,0.8059,optionRight,40,8420,4,22,0,22,0,1,,,,,,,,,,,,,,,,,,,,,,,,,,,,,,,,,,,,,,,
,,,,,,,,2023-08-16_08h43.13.268,HF_wild_card,2022.2.4,MacIntel,60.0024001,5fbc110869611208d6fd29da,64d2fd46c836a06233681665,64dc7defc2a18053d6b5d4cb,,,,,,,ctch,resources/DBN.BMP,resources/DB.BMP,Door4,0.288089735,-0.009244622,1,0,0,0.7604,optionRight,80,8500,4,23,0,23,0,1,,,,,,,,,,,,,,,,,,,,,,,,,,,,,,,,,,,,,,,
,,,,,,,,2023-08-16_08h43.13.268,HF_wild_card,2022.2.4,MacIntel,60.0024001,5fbc110869611208d6fd29da,64d2fd46c836a06233681665,64dc7defc2a18053d6b5d4cb,,,,,,,decisionTrl,resources/DBN.BMP,resources/DR.BMP,Door2,0.357965495,-0.016396925,1,0,0,0.7556,optionRight,20,8520,4,24,0,24,0,1,,,,,,,,,,,,,,,,,,,,,,,,,,,,,,,,,,,,,,,
,,,,,,,,2023-08-16_08h43.13.268,HF_wild_card,2022.2.4,MacIntel,60.0024001,5fbc110869611208d6fd29da,64d2fd46c836a06233681665,64dc7defc2a18053d6b5d4cb,,,,,,,decisionTrl,resources/DG.BMP,resources/DR.BMP,Door2,0.353032769,-0.036574809,1,0,0,1.244,optionRight,40,8560,4,25,0,25,0,1,,,,,,,,,,,,,,,,,,,,,,,,,,,,,,,,,,,,,,,
,,,,,,,,2023-08-16_08h43.13.268,HF_wild_card,2022.2.4,MacIntel,60.0024001,5fbc110869611208d6fd29da,64d2fd46c836a06233681665,64dc7defc2a18053d6b5d4cb,,,,,,,decisionTrl,resources/DR.BMP,resources/DG.BMP,Door2,-0.443279215,-0.075814141,1,0,0,0.7823,optionLeft,20,8580,4,26,0,26,0,1,,,,,,,,,,,,,,,,,,,,,,,,,,,,,,,,,,,,,,,
,,,,,,,,2023-08-16_08h43.13.268,HF_wild_card,2022.2.4,MacIntel,60.0024001,5fbc110869611208d6fd29da,64d2fd46c836a06233681665,64dc7defc2a18053d6b5d4cb,,,,,,,decisionTrl,resources/DY.BMP,resources/DB.BMP,Door3,-0.339950426,-0.101182726,1,0,0,0.9056,optionLeft,70,8650,4,27,0,27,0,1,,,,,,,,,,,,,,,,,,,,,,,,,,,,,,,,,,,,,,,
,,,,,,,,2023-08-16_08h43.13.268,HF_wild_card,2022.2.4,MacIntel,60.0024001,5fbc110869611208d6fd29da,64d2fd46c836a06233681665,64dc7defc2a18053d6b5d4cb,,,,,,,sngl,resources/DG.BMP,resources/Empty.png,WildCard_Ex,-0.330892775,-0.067889065,1,0,0,0.7457,optionLeft,5,8655,4,28,0,28,0,1,,,,,,,,,,,,,,,,,,,,,,,,,,,,,,,,,,,,,,,
,,,,,,,,2023-08-16_08h43.13.268,HF_wild_card,2022.2.4,MacIntel,60.0024001,5fbc110869611208d6fd29da,64d2fd46c836a06233681665,64dc7defc2a18053d6b5d4cb,,,,,,,sngl,resources/Empty.png,resources/DBN.BMP,Door1,0.38830363,-0.027715352,1,0,0,0.9276,optionRight,30,8685,4,29,0,29,0,1,,,,,,,,,,,,,,,,,,,,,,,,,,,,,,,,,,,,,,,
,,,,,,,,2023-08-16_08h43.13.268,HF_wild_card,2022.2.4,MacIntel,60.0024001,5fbc110869611208d6fd29da,64d2fd46c836a06233681665,64dc7defc2a18053d6b5d4cb,,,,,,,decisionTrl,resources/DY.BMP,resources/DB.BMP,Door3,-0.365687663,-0.085658027,1,0,0,0.7154,optionLeft,70,8755,4,30,0,30,0,1,,,,,,,,,,,,,,,,,,,,,,,,,,,,,,,,,,,,,,,
,,,,,,,,2023-08-16_08h43.13.268,HF_wild_card,2022.2.4,MacIntel,60.0024001,5fbc110869611208d6fd29da,64d2fd46c836a06233681665,64dc7defc2a18053d6b5d4cb,,,,,,,decisionTrl,resources/DB.BMP,resources/DY.BMP,Door3,0.409286838,-0.046118639,1,0,0,0.7977,optionRight,70,8825,4,31,0,31,0,1,,,,,,,,,,,,,,,,,,,,,,,,,,,,,,,,,,,,,,,
,,,,,,,,2023-08-16_08h43.13.268,HF_wild_card,2022.2.4,MacIntel,60.0024001,5fbc110869611208d6fd29da,64d2fd46c836a06233681665,64dc7defc2a18053d6b5d4cb,,,,,,,sngl,resources/DR.BMP,resources/Empty.png,Door2,-0.386525472,-0.096144274,1,0,0,0.7325,optionLeft,20,8845,4,32,0,32,0,1,,,,,,,,,,,,,,,,,,,,,,,,,,,,,,,,,,,,,,,
,,,,,,,,2023-08-16_08h43.13.268,HF_wild_card,2022.2.4,MacIntel,60.0024001,5fbc110869611208d6fd29da,64d2fd46c836a06233681665,64dc7defc2a18053d6b5d4cb,,,,,,,ctch,resources/DB.BMP,resources/DBN.BMP,Door4,-0.336321615,-0.077309231,1,0,0,0.9453,optionLeft,60,8905,4,33,0,33,0,1,,,,,,,,,,,,,,,,,,,,,,,,,,,,,,,,,,,,,,,
,,,,,,,,2023-08-16_08h43.13.268,HF_wild_card,2022.2.4,MacIntel,60.0024001,5fbc110869611208d6fd29da,64d2fd46c836a06233681665,64dc7defc2a18053d6b5d4cb,,,,,,,decisionTrl,resources/DB.BMP,resources/DY.BMP,Door3,0.446006131,-0.011519674,1,0,0,1.7843,optionRight,70,8975,4,34,0,34,0,1,,,,,,,,,,,,,,,,,,,,,,,,,,,,,,,,,,,,,,,
,,,,,,,,2023-08-16_08h43.13.268,HF_wild_card,2022.2.4,MacIntel,60.0024001,5fbc110869611208d6fd29da,64d2fd46c836a06233681665,64dc7defc2a18053d6b5d4cb,,,,,,,decisionTrl,resources/DR.BMP,resources/DBN.BMP,Door2,-0.28794281,-0.061688911,1,0,0,0.7391,optionLeft,20,8995,4,35,0,35,0,1,,,,,,,,,,,,,,,,,,,,,,,,,,,,,,,,,,,,,,,
,,,,,,,,2023-08-16_08h43.13.268,HF_wild_card,2022.2.4,MacIntel,60.0024001,5fbc110869611208d6fd29da,64d2fd46c836a06233681665,64dc7defc2a18053d6b5d4cb,,,,,,,decisionTrl,resources/DB.BMP,resources/DG.BMP,Door4,-0.33046051,-0.092210761,1,0,0,2.0215,optionLeft,80,9075,4,36,0,36,0,1,,,,,,,,,,,,,,,,,,,,,,,,,,,,,,,,,,,,,,,
,,,,,,,,2023-08-16_08h43.13.268,HF_wild_card,2022.2.4,MacIntel,60.0024001,5fbc110869611208d6fd29da,64d2fd46c836a06233681665,64dc7defc2a18053d6b5d4cb,,,,,,,ctch,resources/DB.BMP,resources/DBN.BMP,Door4,-0.340629645,-0.09250651,1,0,0,0.7669,optionLeft,60,9135,4,37,0,37,0,1,,,,,,,,,,,,,,,,,,,,,,,,,,,,,,,,,,,,,,,
,,,,,,,,2023-08-16_08h43.13.268,HF_wild_card,2022.2.4,MacIntel,60.0024001,5fbc110869611208d6fd29da,64d2fd46c836a06233681665,64dc7defc2a18053d6b5d4cb,,,,,,,ctch,resources/DR.BMP,resources/DY.BMP,Door3,0.420733778,-0.010409105,1,0,0,0.9814,optionRight,70,9205,4,38,0,38,0,1,,,,,,,,,,,,,,,,,,,,,,,,,,,,,,,,,,,,,,,
,,,,,,,,2023-08-16_08h43.13.268,HF_wild_card,2022.2.4,MacIntel,60.0024001,5fbc110869611208d6fd29da,64d2fd46c836a06233681665,64dc7defc2a18053d6b5d4cb,,,,,,,decisionTrl,resources/DB.BMP,resources/DY.BMP,Door3,0.276913045,0.007655199,1,0,0,0.7251,optionRight,70,9275,4,39,0,39,0,1,,,,,,,,,,,,,,,,,,,,,,,,,,,,,,,,,,,,,,,
,,,,,,,,2023-08-16_08h43.13.268,HF_wild_card,2022.2.4,MacIntel,60.0024001,5fbc110869611208d6fd29da,64d2fd46c836a06233681665,64dc7defc2a18053d6b5d4cb,,,,,,,ctch,resources/DY.BMP,resources/DR.BMP,Door3,-0.360703159,-0.07055325,1,0,0,0.703,optionLeft,70,9345,4,40,0,40,0,1,,,,,,,,,,,,,,,,,,,,,,,,,,,,,,,,,,,,,,,
,,,,,,,,2023-08-16_08h43.13.268,HF_wild_card,2022.2.4,MacIntel,60.0024001,5fbc110869611208d6fd29da,64d2fd46c836a06233681665,64dc7defc2a18053d6b5d4cb,,,,,,,sngl,resources/Empty.png,resources/DY.BMP,Door3,0.348377957,-0.017610033,1,0,0,0.6885,optionRight,70,9415,4,41,0,41,0,1,,,,,,,,,,,,,,,,,,,,,,,,,,,,,,,,,,,,,,,
,,,,,,,,2023-08-16_08h43.13.268,HF_wild_card,2022.2.4,MacIntel,60.0024001,5fbc110869611208d6fd29da,64d2fd46c836a06233681665,64dc7defc2a18053d6b5d4cb,,,,,,,sngl,resources/Empty.png,resources/DB.BMP,Door4,0.367683512,-0.016428697,1,0,0,0.7558,optionRight,80,9495,4,42,0,42,0,1,,,,,,,,,,,,,,,,,,,,,,,,,,,,,,,,,,,,,,,
,,,,,,,,2023-08-16_08h43.13.268,HF_wild_card,2022.2.4,MacIntel,60.0024001,5fbc110869611208d6fd29da,64d2fd46c836a06233681665,64dc7defc2a18053d6b5d4cb,,,,,,,decisionTrl,resources/DBN.BMP,resources/DG.BMP,WildCard_Ex,0.33786716,0.021417609,1,0,0,1.4194,optionRight,5,9500,4,43,0,43,0,1,,,,,,,,,,,,,,,,,,,,,,,,,,,,,,,,,,,,,,,
,,,,,,,,2023-08-16_08h43.13.268,HF_wild_card,2022.2.4,MacIntel,60.0024001,5fbc110869611208d6fd29da,64d2fd46c836a06233681665,64dc7defc2a18053d6b5d4cb,,,,,,,,,,,,,,,,,,,,,,,,,,3,0,3,0,1,,,,,,,,,,,,,,,,,,,,,,,,,,,,,,,,,,
,,,,,,,,2023-08-16_08h43.13.268,HF_wild_card,2022.2.4,MacIntel,60.0024001,5fbc110869611208d6fd29da,64d2fd46c836a06233681665,64dc7defc2a18053d6b5d4cb,,,,,,,decisionTrl,resources/DY.BMP,resources/DB.BMP,Door3,-0.261468302,-0.146401706,1,0,0,0.9041,optionLeft,70,9570,5,0,0,0,0,1,,,,,,,,,,,,,,,,,,,,,,,,,,,,,,,,,,,,,,,
,,,,,,,,2023-08-16_08h43.13.268,HF_wild_card,2022.2.4,MacIntel,60.0024001,5fbc110869611208d6fd29da,64d2fd46c836a06233681665,64dc7defc2a18053d6b5d4cb,,,,,,,sngl,resources/DG.BMP,resources/Empty.png,WildCard_Ex,-0.33049747,-0.093649495,1,0,0,0.9989,optionLeft,95,9665,5,1,0,1,0,1,,,,,,,,,,,,,,,,,,,,,,,,,,,,,,,,,,,,,,,
,,,,,,,,2023-08-16_08h43.13.268,HF_wild_card,2022.2.4,MacIntel,60.0024001,5fbc110869611208d6fd29da,64d2fd46c836a06233681665,64dc7defc2a18053d6b5d4cb,,,,,,,decisionTrl,resources/DBN.BMP,resources/DR.BMP,Door2,0.344342448,-0.001244202,1,0,0,0.7854,optionRight,40,9705,5,2,0,2,0,1,,,,,,,,,,,,,,,,,,,,,,,,,,,,,,,,,,,,,,,
,,,,,,,,2023-08-16_08h43.13.268,HF_wild_card,2022.2.4,MacIntel,60.0024001,5fbc110869611208d6fd29da,64d2fd46c836a06233681665,64dc7defc2a18053d6b5d4cb,,,,,,,decisionTrl,resources/DG.BMP,resources/DR.BMP,Door2,0.333345066,-0.002363044,1,0,0,1.3296,optionRight,40,9745,5,3,0,3,0,1,,,,,,,,,,,,,,,,,,,,,,,,,,,,,,,,,,,,,,,
,,,,,,,,2023-08-16_08h43.13.268,HF_wild_card,2022.2.4,MacIntel,60.0024001,5fbc110869611208d6fd29da,64d2fd46c836a06233681665,64dc7defc2a18053d6b5d4cb,,,,,,,decisionTrl,resources/DY.BMP,resources/DB.BMP,Door3,-0.409697198,-0.106289605,1,0,0,0.7387,optionLeft,70,9815,5,4,0,4,0,1,,,,,,,,,,,,,,,,,,,,,,,,,,,,,,,,,,,,,,,
,,,,,,,,2023-08-16_08h43.13.268,HF_wild_card,2022.2.4,MacIntel,60.0024001,5fbc110869611208d6fd29da,64d2fd46c836a06233681665,64dc7defc2a18053d6b5d4cb,,,,,,,sngl,resources/Empty.png,resources/DBN.BMP,Door1,0.394224582,0.011896837,1,0,0,1.8782,optionRight,30,9845,5,5,0,5,0,1,,,,,,,,,,,,,,,,,,,,,,,,,,,,,,,,,,,,,,,
,,,,,,,,2023-08-16_08h43.13.268,HF_wild_card,2022.2.4,MacIntel,60.0024001,5fbc110869611208d6fd29da,64d2fd46c836a06233681665,64dc7defc2a18053d6b5d4cb,,,,,,,decisionTrl,resources/DR.BMP,resources/DBN.BMP,Door2,-0.378443705,-0.073570421,1,0,0,0.714,optionLeft,20,9865,5,6,0,6,0,1,,,,,,,,,,,,,,,,,,,,,,,,,,,,,,,,,,,,,,,
,,,,,,,,2023-08-16_08h43.13.268,HF_wild_card,2022.2.4,MacIntel,60.0024001,5fbc110869611208d6fd29da,64d2fd46c836a06233681665,64dc7defc2a18053d6b5d4cb,,,,,,,ctch,resources/DBN.BMP,resources/DB.BMP,Door4,0.341029867,-0.001092326,1,0,0,0.7583,optionRight,80,9945,5,7,0,7,0,1,,,,,,,,,,,,,,,,,,,,,,,,,,,,,,,,,,,,,,,
,,,,,,,,2023-08-16_08h43.13.268,HF_wild_card,2022.2.4,MacIntel,60.0024001,5fbc110869611208d6fd29da,64d2fd46c836a06233681665,64dc7defc2a18053d6b5d4cb,,,,,,,sngl,resources/DR.BMP,resources/Empty.png,Door2,-0.381976759,-0.091434597,1,0,0,0.6984,optionLeft,40,9985,5,8,0,8,0,1,,,,,,,,,,,,,,,,,,,,,,,,,,,,,,,,,,,,,,,
,,,,,,,,2023-08-16_08h43.13.268,HF_wild_card,2022.2.4,MacIntel,60.0024001,5fbc110869611208d6fd29da,64d2fd46c836a06233681665,64dc7defc2a18053d6b5d4cb,,,,,,,decisionTrl,resources/DR.BMP,resources/DBN.BMP,Door2,-0.313902215,-0.09655721,1,0,0,0.7433,optionLeft,40,10025,5,9,0,9,0,1,,,,,,,,,,,,,,,,,,,,,,,,,,,,,,,,,,,,,,,
,,,,,,,,2023-08-16_08h43.13.268,HF_wild_card,2022.2.4,MacIntel,60.0024001,5fbc110869611208d6fd29da,64d2fd46c836a06233681665,64dc7defc2a18053d6b5d4cb,,,,,,,decisionTrl,resources/DB.BMP,resources/DG.BMP,Door4,-0.395572611,-0.08988288,1,0,0,1.318,optionLeft,60,10085,5,10,0,10,0,1,,,,,,,,,,,,,,,,,,,,,,,,,,,,,,,,,,,,,,,
,,,,,,,,2023-08-16_08h43.13.268,HF_wild_card,2022.2.4,MacIntel,60.0024001,5fbc110869611208d6fd29da,64d2fd46c836a06233681665,64dc7defc2a18053d6b5d4cb,,,,,,,decisionTrl,resources/DY.BMP,resources/DB.BMP,Door3,-0.21923489,-0.0288758,1,0,0,2.1935,optionLeft,70,10155,5,11,0,11,0,1,,,,,,,,,,,,,,,,,,,,,,,,,,,,,,,,,,,,,,,
,,,,,,,,2023-08-16_08h43.13.268,HF_wild_card,2022.2.4,MacIntel,60.0024001,5fbc110869611208d6fd29da,64d2fd46c836a06233681665,64dc7defc2a18053d6b5d4cb,,,,,,,sngl,resources/DG.BMP,resources/Empty.png,WildCard_Ex,-0.327693075,-0.073606635,1,0,0,0.8417,optionLeft,5,10160,5,12,0,12,0,1,,,,,,,,,,,,,,,,,,,,,,,,,,,,,,,,,,,,,,,
,,,,,,,,2023-08-16_08h43.13.268,HF_wild_card,2022.2.4,MacIntel,60.0024001,5fbc110869611208d6fd29da,64d2fd46c836a06233681665,64dc7defc2a18053d6b5d4cb,,,,,,,ctch,resources/DY.BMP,resources/DR.BMP,Door3,-0.373518507,-0.104460449,1,0,0,1.2067,optionLeft,70,10230,5,13,0,13,0,1,,,,,,,,,,,,,,,,,,,,,,,,,,,,,,,,,,,,,,,
,,,,,,,,2023-08-16_08h43.13.268,HF_wild_card,2022.2.4,MacIntel,60.0024001,5fbc110869611208d6fd29da,64d2fd46c836a06233681665,64dc7defc2a18053d6b5d4cb,,,,,,,decisionTrl,resources/DY.BMP,resources/DG.BMP,Door3,-0.359646267,-0.059044257,1,0,0,0.762,optionLeft,70,10300,5,14,0,14,0,1,,,,,,,,,,,,,,,,,,,,,,,,,,,,,,,,,,,,,,,
,,,,,,,,2023-08-16_08h43.13.268,HF_wild_card,2022.2.4,MacIntel,60.0024001,5fbc110869611208d6fd29da,64d2fd46c836a06233681665,64dc7defc2a18053d6b5d4cb,,,,,,,decisionTrl,resources/DBN.BMP,resources/DR.BMP,Door2,0.35362793,0.015462748,1,0,0,1.0094,optionRight,40,10340,5,15,0,15,0,1,,,,,,,,,,,,,,,,,,,,,,,,,,,,,,,,,,,,,,,
,,,,,,,,2023-08-16_08h43.13.268,HF_wild_card,2022.2.4,MacIntel,60.0024001,5fbc110869611208d6fd29da,64d2fd46c836a06233681665,64dc7defc2a18053d6b5d4cb,,,,,,,decisionTrl,resources/DG.BMP,resources/DBN.BMP,WildCard_Ex,-0.355993754,-0.036087104,1,0,0,0.9225,optionLeft,5,10345,5,16,0,16,0,1,,,,,,,,,,,,,,,,,,,,,,,,,,,,,,,,,,,,,,,
,,,,,,,,2023-08-16_08h43.13.268,HF_wild_card,2022.2.4,MacIntel,60.0024001,5fbc110869611208d6fd29da,64d2fd46c836a06233681665,64dc7defc2a18053d6b5d4cb,,,,,,,decisionTrl,resources/DB.BMP,resources/DY.BMP,Door3,0.441627604,0.010115967,1,0,0,1.0849,optionRight,70,10415,5,17,0,17,0,1,,,,,,,,,,,,,,,,,,,,,,,,,,,,,,,,,,,,,,,
,,,,,,,,2023-08-16_08h43.13.268,HF_wild_card,2022.2.4,MacIntel,60.0024001,5fbc110869611208d6fd29da,64d2fd46c836a06233681665,64dc7defc2a18053d6b5d4cb,,,,,,,decisionTrl,resources/DBN.BMP,resources/DR.BMP,Door2,0.369651286,-0.010687663,1,0,0,1.0343,optionRight,20,10435,5,18,0,18,0,1,,,,,,,,,,,,,,,,,,,,,,,,,,,,,,,,,,,,,,,
,,,,,,,,2023-08-16_08h43.13.268,HF_wild_card,2022.2.4,MacIntel,60.0024001,5fbc110869611208d6fd29da,64d2fd46c836a06233681665,64dc7defc2a18053d6b5d4cb,,,,,,,decisionTrl,resources/DR.BMP,resources/DBN.BMP,Door2,-0.332235277,-0.071075914,1,0,0,0.8915,optionLeft,20,10455,5,19,0,19,0,1,,,,,,,,,,,,,,,,,,,,,,,,,,,,,,,,,,,,,,,
,,,,,,,,2023-08-16_08h43.13.268,HF_wild_card,2022.2.4,MacIntel,60.0024001,5fbc110869611208d6fd29da,64d2fd46c836a06233681665,64dc7defc2a18053d6b5d4cb,,,,,,,decisionTrl,resources/DBN.BMP,resources/DR.BMP,Door2,0.406029324,0.010354411,1,0,0,0.8524,optionRight,20,10475,5,20,0,20,0,1,,,,,,,,,,,,,,,,,,,,,,,,,,,,,,,,,,,,,,,
,,,,,,,,2023-08-16_08h43.13.268,HF_wild_card,2022.2.4,MacIntel,60.0024001,5fbc110869611208d6fd29da,64d2fd46c836a06233681665,64dc7defc2a18053d6b5d4cb,,,,,,,sngl,resources/DB.BMP,resources/Empty.png,Door4,-0.291390042,-0.072105916,1,0,0,0.7996,optionLeft,80,10555,5,21,0,21,0,1,,,,,,,,,,,,,,,,,,,,,,,,,,,,,,,,,,,,,,,
,,,,,,,,2023-08-16_08h43.13.268,HF_wild_card,2022.2.4,MacIntel,60.0024001,5fbc110869611208d6fd29da,64d2fd46c836a06233681665,64dc7defc2a18053d6b5d4cb,,,,,,,ctch,resources/DR.BMP,resources/DY.BMP,Door3,0.388500027,-0.002738478,1,0,0,0.8769,optionRight,70,10625,5,22,0,22,0,1,,,,,,,,,,,,,,,,,,,,,,,,,,,,,,,,,,,,,,,
,,,,,,,,2023-08-16_08h43.13.268,HF_wild_card,2022.2.4,MacIntel,60.0024001,5fbc110869611208d6fd29da,64d2fd46c836a06233681665,64dc7defc2a18053d6b5d4cb,,,,,,,ctch,resources/DBN.BMP,resources/DB.BMP,Door4,0.330484212,-0.030668267,1,0,0,0.9725,optionRight,60,10685,5,23,0,23,0,1,,,,,,,,,,,,,,,,,,,,,,,,,,,,,,,,,,,,,,,
,,,,,,,,2023-08-16_08h43.13.268,HF_wild_card,2022.2.4,MacIntel,60.0024001,5fbc110869611208d6fd29da,64d2fd46c836a06233681665,64dc7defc2a18053d6b5d4cb,,,,,,,ctch,resources/DR.BMP,resources/DY.BMP,Door3,0.434775662,0.005502998,1,0,0,0.9401,optionRight,70,10755,5,24,0,24,0,1,,,,,,,,,,,,,,,,,,,,,,,,,,,,,,,,,,,,,,,
,,,,,,,,2023-08-16_08h43.13.268,HF_wild_card,2022.2.4,MacIntel,60.0024001,5fbc110869611208d6fd29da,64d2fd46c836a06233681665,64dc7defc2a18053d6b5d4cb,,,,,,,decisionTrl,resources/DR.BMP,resources/DBN.BMP,Door2,-0.463367343,-0.138073459,1,0,0,0.9806,optionLeft,40,10795,5,25,0,25,0,1,,,,,,,,,,,,,,,,,,,,,,,,,,,,,,,,,,,,,,,
,,,,,,,,2023-08-16_08h43.13.268,HF_wild_card,2022.2.4,MacIntel,60.0024001,5fbc110869611208d6fd29da,64d2fd46c836a06233681665,64dc7defc2a18053d6b5d4cb,,,,,,,sngl,resources/DBN.BMP,resources/Empty.png,Door1,-0.274160021,-0.068695102,1,0,0,1.4881,optionLeft,30,10825,5,26,0,26,0,1,,,,,,,,,,,,,,,,,,,,,,,,,,,,,,,,,,,,,,,
,,,,,,,,2023-08-16_08h43.13.268,HF_wild_card,2022.2.4,MacIntel,60.0024001,5fbc110869611208d6fd29da,64d2fd46c836a06233681665,64dc7defc2a18053d6b5d4cb,,,,,,,decisionTrl,resources/DB.BMP,resources/DY.BMP,Door3,0.410805257,0.008737454,1,0,0,0.9206,optionRight,70,10895,5,27,0,27,0,1,,,,,,,,,,,,,,,,,,,,,,,,,,,,,,,,,,,,,,,
,,,,,,,,2023-08-16_08h43.13.268,HF_wild_card,2022.2.4,MacIntel,60.0024001,5fbc110869611208d6fd29da,64d2fd46c836a06233681665,64dc7defc2a18053d6b5d4cb,,,,,,,sngl,resources/Empty.png,resources/DR.BMP,Door2,0.348117676,-0.025673625,1,0,0,1.021,optionRight,20,10915,5,28,0,28,0,1,,,,,,,,,,,,,,,,,,,,,,,,,,,,,,,,,,,,,,,
,,,,,,,,2023-08-16_08h43.13.268,HF_wild_card,2022.2.4,MacIntel,60.0024001,5fbc110869611208d6fd29da,64d2fd46c836a06233681665,64dc7defc2a18053d6b5d4cb,,,,,,,decisionTrl,resources/DY.BMP,resources/DB.BMP,Door3,-0.374596388,-0.1000295,1,0,0,0.7188,optionLeft,70,10985,5,29,0,29,0,1,,,,,,,,,,,,,,,,,,,,,,,,,,,,,,,,,,,,,,,
,,,,,,,,2023-08-16_08h43.13.268,HF_wild_card,2022.2.4,MacIntel,60.0024001,5fbc110869611208d6fd29da,64d2fd46c836a06233681665,64dc7defc2a18053d6b5d4cb,,,,,,,sngl,resources/Empty.png,resources/DB.BMP,Door4,0.335037503,-0.01527476,1,0,0,0.7656,optionRight,60,11045,5,30,0,30,0,1,,,,,,,,,,,,,,,,,,,,,,,,,,,,,,,,,,,,,,,
,,,,,,,,2023-08-16_08h43.13.268,HF_wild_card,2022.2.4,MacIntel,60.0024001,5fbc110869611208d6fd29da,64d2fd46c836a06233681665,64dc7defc2a18053d6b5d4cb,,,,,,,sngl,resources/Empty.png,resources/DG.BMP,WildCard_Ex,0.408256836,0.025488451,1,0,0,0.8016,optionRight,95,11140,5,31,0,31,0,1,,,,,,,,,,,,,,,,,,,,,,,,,,,,,,,,,,,,,,,
,,,,,,,,2023-08-16_08h43.13.268,HF_wild_card,2022.2.4,MacIntel,60.0024001,5fbc110869611208d6fd29da,64d2fd46c836a06233681665,64dc7defc2a18053d6b5d4cb,,,,,,,decisionTrl,resources/DB.BMP,resources/DY.BMP,Door3,0.366702881,0.021580302,1,0,0,0.8851,optionRight,70,11210,5,32,0,32,0,1,,,,,,,,,,,,,,,,,,,,,,,,,,,,,,,,,,,,,,,
,,,,,,,,2023-08-16_08h43.13.268,HF_wild_card,2022.2.4,MacIntel,60.0024001,5fbc110869611208d6fd29da,64d2fd46c836a06233681665,64dc7defc2a18053d6b5d4cb,,,,,,,decisionTrl,resources/DR.BMP,resources/DG.BMP,Door2,-0.377371623,-0.044328885,1,0,0,1.3941,optionLeft,20,11230,5,33,0,33,0,1,,,,,,,,,,,,,,,,,,,,,,,,,,,,,,,,,,,,,,,
,,,,,,,,2023-08-16_08h43.13.268,HF_wild_card,2022.2.4,MacIntel,60.0024001,5fbc110869611208d6fd29da,64d2fd46c836a06233681665,64dc7defc2a18053d6b5d4cb,,,,,,,decisionTrl,resources/DBN.BMP,resources/DG.BMP,WildCard_Ex,0.459742703,0.055362311,1,0,0,0.9355,optionRight,95,11325,5,34,0,34,0,1,,,,,,,,,,,,,,,,,,,,,,,,,,,,,,,,,,,,,,,
,,,,,,,,2023-08-16_08h43.13.268,HF_wild_card,2022.2.4,MacIntel,60.0024001,5fbc110869611208d6fd29da,64d2fd46c836a06233681665,64dc7defc2a18053d6b5d4cb,,,,,,,ctch,resources/DB.BMP,resources/DBN.BMP,Door4,-0.496928677,-0.151140137,1,0,0,1.1181,optionLeft,60,11385,5,35,0,35,0,1,,,,,,,,,,,,,,,,,,,,,,,,,,,,,,,,,,,,,,,
,,,,,,,,2023-08-16_08h43.13.268,HF_wild_card,2022.2.4,MacIntel,60.0024001,5fbc110869611208d6fd29da,64d2fd46c836a06233681665,64dc7defc2a18053d6b5d4cb,,,,,,,decisionTrl,resources/DG.BMP,resources/DB.BMP,Door4,0.470329997,0.067203742,1,0,0,1.5439,optionRight,60,11445,5,36,0,36,0,1,,,,,,,,,,,,,,,,,,,,,,,,,,,,,,,,,,,,,,,
,,,,,,,,2023-08-16_08h43.13.268,HF_wild_card,2022.2.4,MacIntel,60.0024001,5fbc110869611208d6fd29da,64d2fd46c836a06233681665,64dc7defc2a18053d6b5d4cb,,,,,,,sngl,resources/Empty.png,resources/DG.BMP,WildCard_Ex,0.371842041,0.051219279,1,0,0,0.7641,optionRight,5,11450,5,37,0,37,0,1,,,,,,,,,,,,,,,,,,,,,,,,,,,,,,,,,,,,,,,
,,,,,,,,2023-08-16_08h43.13.268,HF_wild_card,2022.2.4,MacIntel,60.0024001,5fbc110869611208d6fd29da,64d2fd46c836a06233681665,64dc7defc2a18053d6b5d4cb,,,,,,,sngl,resources/DY.BMP,resources/Empty.png,Door3,-0.364533895,-0.167993571,1,0,0,0.7433,optionLeft,70,11520,5,38,0,38,0,1,,,,,,,,,,,,,,,,,,,,,,,,,,,,,,,,,,,,,,,
,,,,,,,,2023-08-16_08h43.13.268,HF_wild_card,2022.2.4,MacIntel,60.0024001,5fbc110869611208d6fd29da,64d2fd46c836a06233681665,64dc7defc2a18053d6b5d4cb,,,,,,,sngl,resources/Empty.png,resources/DY.BMP,Door3,0.36748386,-0.006190253,1,0,0,0.7373,optionRight,70,11590,5,39,0,39,0,1,,,,,,,,,,,,,,,,,,,,,,,,,,,,,,,,,,,,,,,
,,,,,,,,2023-08-16_08h43.13.268,HF_wild_card,2022.2.4,MacIntel,60.0024001,5fbc110869611208d6fd29da,64d2fd46c836a06233681665,64dc7defc2a18053d6b5d4cb,,,,,,,decisionTrl,resources/DG.BMP,resources/DY.BMP,Door3,0.37686849,-0.023298001,1,0,0,0.916,optionRight,70,11660,5,40,0,40,0,1,,,,,,,,,,,,,,,,,,,,,,,,,,,,,,,,,,,,,,,
,,,,,,,,2023-08-16_08h43.13.268,HF_wild_card,2022.2.4,MacIntel,60.0024001,5fbc110869611208d6fd29da,64d2fd46c836a06233681665,64dc7defc2a18053d6b5d4cb,,,,,,,ctch,resources/DY.BMP,resources/DR.BMP,Door3,-0.332926398,-0.040887383,1,0,0,1.4321,optionLeft,70,11730,5,41,0,41,0,1,,,,,,,,,,,,,,,,,,,,,,,,,,,,,,,,,,,,,,,
,,,,,,,,2023-08-16_08h43.13.268,HF_wild_card,2022.2.4,MacIntel,60.0024001,5fbc110869611208d6fd29da,64d2fd46c836a06233681665,64dc7defc2a18053d6b5d4cb,,,,,,,decisionTrl,resources/DB.BMP,resources/DY.BMP,Door3,0.384341092,0.007833455,1,0,0,1.3734,optionRight,70,11800,5,42,0,42,0,1,,,,,,,,,,,,,,,,,,,,,,,,,,,,,,,,,,,,,,,
,,,,,,,,2023-08-16_08h43.13.268,HF_wild_card,2022.2.4,MacIntel,60.0024001,5fbc110869611208d6fd29da,64d2fd46c836a06233681665,64dc7defc2a18053d6b5d4cb,,,,,,,ctch,resources/DB.BMP,resources/DBN.BMP,Door4,-0.351657274,-0.101004978,1,0,0,1.3054,optionLeft,80,11880,5,43,0,43,0,1,,,,,,,,,,,,,,,,,,,,,,,,,,,,,,,,,,,,,,,
,,,,,,,,2023-08-16_08h43.13.268,HF_wild_card,2022.2.4,MacIntel,60.0024001,5fbc110869611208d6fd29da,64d2fd46c836a06233681665,64dc7defc2a18053d6b5d4cb,,,,,,,,,,,,,,,,,,,,,,,,,,4,0,4,0,1,,,,,,,,,,,,,,,,,,,,,,,,,,,,,,,,,,
,,,,,,,,2023-08-16_08h43.13.268,HF_wild_card,2022.2.4,MacIntel,60.0024001,5fbc110869611208d6fd29da,64d2fd46c836a06233681665,64dc7defc2a18053d6b5d4cb,,,,,,,sngl,resources/DY.BMP,resources/Empty.png,Door3,-0.377510037,-0.012627394,1,0,0,3.0918,optionLeft,70,11950,6,0,0,0,0,1,,,,,,,,,,,,,,,,,,,,,,,,,,,,,,,,,,,,,,,
,,,,,,,,2023-08-16_08h43.13.268,HF_wild_card,2022.2.4,MacIntel,60.0024001,5fbc110869611208d6fd29da,64d2fd46c836a06233681665,64dc7defc2a18053d6b5d4cb,,,,,,,sngl,resources/DG.BMP,resources/Empty.png,WildCard_Ex,-0.335993449,-0.118140462,1,0,0,0.7416,optionLeft,95,12045,6,1,0,1,0,1,,,,,,,,,,,,,,,,,,,,,,,,,,,,,,,,,,,,,,,
,,,,,,,,2023-08-16_08h43.13.268,HF_wild_card,2022.2.4,MacIntel,60.0024001,5fbc110869611208d6fd29da,64d2fd46c836a06233681665,64dc7defc2a18053d6b5d4cb,,,,,,,decisionTrl,resources/DB.BMP,resources/DY.BMP,Door3,0.394243842,0.023435059,1,0,0,0.7701,optionRight,70,12115,6,2,0,2,0,1,,,,,,,,,,,,,,,,,,,,,,,,,,,,,,,,,,,,,,,
,,,,,,,,2023-08-16_08h43.13.268,HF_wild_card,2022.2.4,MacIntel,60.0024001,5fbc110869611208d6fd29da,64d2fd46c836a06233681665,64dc7defc2a18053d6b5d4cb,,,,,,,decisionTrl,resources/DBN.BMP,resources/DG.BMP,WildCard_Ex,0.368216281,-0.012478095,1,0,0,0.9568,optionRight,95,12210,6,3,0,3,0,1,,,,,,,,,,,,,,,,,,,,,,,,,,,,,,,,,,,,,,,
,,,,,,,,2023-08-16_08h43.13.268,HF_wild_card,2022.2.4,MacIntel,60.0024001,5fbc110869611208d6fd29da,64d2fd46c836a06233681665,64dc7defc2a18053d6b5d4cb,,,,,,,sngl,resources/Empty.png,resources/DG.BMP,WildCard_Ex,0.316513943,0.034937812,1,0,0,0.8419,optionRight,5,12215,6,4,0,4,0,1,,,,,,,,,,,,,,,,,,,,,,,,,,,,,,,,,,,,,,,
,,,,,,,,2023-08-16_08h43.13.268,HF_wild_card,2022.2.4,MacIntel,60.0024001,5fbc110869611208d6fd29da,64d2fd46c836a06233681665,64dc7defc2a18053d6b5d4cb,,,,,,,decisionTrl,resources/DG.BMP,resources/DY.BMP,Door3,0.38027832,0.022070618,1,0,0,1.0563,optionRight,70,12285,6,5,0,5,0,1,,,,,,,,,,,,,,,,,,,,,,,,,,,,,,,,,,,,,,,
,,,,,,,,2023-08-16_08h43.13.268,HF_wild_card,2022.2.4,MacIntel,60.0024001,5fbc110869611208d6fd29da,64d2fd46c836a06233681665,64dc7defc2a18053d6b5d4cb,,,,,,,decisionTrl,resources/DR.BMP,resources/DBN.BMP,Door2,-0.45379798,-0.08480211,1,0,0,0.8701,optionLeft,40,12325,6,6,0,6,0,1,,,,,,,,,,,,,,,,,,,,,,,,,,,,,,,,,,,,,,,
,,,,,,,,2023-08-16_08h43.13.268,HF_wild_card,2022.2.4,MacIntel,60.0024001,5fbc110869611208d6fd29da,64d2fd46c836a06233681665,64dc7defc2a18053d6b5d4cb,,,,,,,ctch,resources/DR.BMP,resources/DY.BMP,Door3,0.368094482,0.003498433,1,0,0,0.7603,optionRight,70,12395,6,7,0,7,0,1,,,,,,,,,,,,,,,,,,,,,,,,,,,,,,,,,,,,,,,
,,,,,,,,2023-08-16_08h43.13.268,HF_wild_card,2022.2.4,MacIntel,60.0024001,5fbc110869611208d6fd29da,64d2fd46c836a06233681665,64dc7defc2a18053d6b5d4cb,,,,,,,ctch,resources/DB.BMP,resources/DBN.BMP,Door4,-0.285671488,-0.090715129,1,0,0,0.816,optionLeft,80,12475,6,8,0,8,0,1,,,,,,,,,,,,,,,,,,,,,,,,,,,,,,,,,,,,,,,
,,,,,,,,2023-08-16_08h43.13.268,HF_wild_card,2022.2.4,MacIntel,60.0024001,5fbc110869611208d6fd29da,64d2fd46c836a06233681665,64dc7defc2a18053d6b5d4cb,,,,,,,ctch,resources/DBN.BMP,resources/DB.BMP,Door4,0.431590712,0.032368096,1,0,0,0.7049,optionRight,60,12535,6,9,0,9,0,1,,,,,,,,,,,,,,,,,,,,,,,,,,,,,,,,,,,,,,,
,,,,,,,,2023-08-16_08h43.13.268,HF_wild_card,2022.2.4,MacIntel,60.0024001,5fbc110869611208d6fd29da,64d2fd46c836a06233681665,64dc7defc2a18053d6b5d4cb,,,,,,,decisionTrl,resources/DBN.BMP,resources/DR.BMP,Door2,0.340321316,0.015687595,1,0,0,1.0993,optionRight,20,12555,6,10,0,10,0,1,,,,,,,,,,,,,,,,,,,,,,,,,,,,,,,,,,,,,,,
,,,,,,,,2023-08-16_08h43.13.268,HF_wild_card,2022.2.4,MacIntel,60.0024001,5fbc110869611208d6fd29da,64d2fd46c836a06233681665,64dc7defc2a18053d6b5d4cb,,,,,,,decisionTrl,resources/DY.BMP,resources/DB.BMP,Door3,-0.39817966,-0.11824958,1,0,0,0.8023,optionLeft,70,12625,6,11,0,11,0,1,,,,,,,,,,,,,,,,,,,,,,,,,,,,,,,,,,,,,,,
,,,,,,,,2023-08-16_08h43.13.268,HF_wild_card,2022.2.4,MacIntel,60.0024001,5fbc110869611208d6fd29da,64d2fd46c836a06233681665,64dc7defc2a18053d6b5d4cb,,,,,,,decisionTrl,resources/DB.BMP,resources/DY.BMP,Door3,0.418737793,-0.000187208,1,0,0,0.6748,optionRight,70,12695,6,12,0,12,0,1,,,,,,,,,,,,,,,,,,,,,,,,,,,,,,,,,,,,,,,
,,,,,,,,2023-08-16_08h43.13.268,HF_wild_card,2022.2.4,MacIntel,60.0024001,5fbc110869611208d6fd29da,64d2fd46c836a06233681665,64dc7defc2a18053d6b5d4cb,,,,,,,decisionTrl,resources/DBN.BMP,resources/DR.BMP,Door2,0.298969387,0.012225037,1,0,0,1.1713,optionRight,20,12715,6,13,0,13,0,1,,,,,,,,,,,,,,,,,,,,,,,,,,,,,,,,,,,,,,,
,,,,,,,,2023-08-16_08h43.13.268,HF_wild_card,2022.2.4,MacIntel,60.0024001,5fbc110869611208d6fd29da,64d2fd46c836a06233681665,64dc7defc2a18053d6b5d4cb,,,,,,,ctch,resources/DR.BMP,resources/DY.BMP,Door3,0.474188911,0.04081916,1,0,0,0.7227,optionRight,70,12785,6,14,0,14,0,1,,,,,,,,,,,,,,,,,,,,,,,,,,,,,,,,,,,,,,,
,,,,,,,,2023-08-16_08h43.13.268,HF_wild_card,2022.2.4,MacIntel,60.0024001,5fbc110869611208d6fd29da,64d2fd46c836a06233681665,64dc7defc2a18053d6b5d4cb,,,,,,,sngl,resources/Empty.png,resources/DY.BMP,Door3,0.378691135,0.029699266,1,0,0,0.7041,optionRight,70,12855,6,15,0,15,0,1,,,,,,,,,,,,,,,,,,,,,,,,,,,,,,,,,,,,,,,
,,,,,,,,2023-08-16_08h43.13.268,HF_wild_card,2022.2.4,MacIntel,60.0024001,5fbc110869611208d6fd29da,64d2fd46c836a06233681665,64dc7defc2a18053d6b5d4cb,,,,,,,sngl,resources/Empty.png,resources/DB.BMP,Door4,0.387869331,-0.001255629,1,0,0,0.7581,optionRight,80,12935,6,16,0,16,0,1,,,,,,,,,,,,,,,,,,,,,,,,,,,,,,,,,,,,,,,
,,,,,,,,2023-08-16_08h43.13.268,HF_wild_card,2022.2.4,MacIntel,60.0024001,5fbc110869611208d6fd29da,64d2fd46c836a06233681665,64dc7defc2a18053d6b5d4cb,,,,,,,decisionTrl,resources/DR.BMP,resources/DBN.BMP,Door2,-0.384238959,-0.135680881,1,0,0,0.7558,optionLeft,20,12955,6,17,0,17,0,1,,,,,,,,,,,,,,,,,,,,,,,,,,,,,,,,,,,,,,,
,,,,,,,,2023-08-16_08h43.13.268,HF_wild_card,2022.2.4,MacIntel,60.0024001,5fbc110869611208d6fd29da,64d2fd46c836a06233681665,64dc7defc2a18053d6b5d4cb,,,,,,,sngl,resources/Empty.png,resources/DG.BMP,WildCard_Ex,0.371198459,0.031839396,1,0,0,0.7131,optionRight,95,13050,6,18,0,18,0,1,,,,,,,,,,,,,,,,,,,,,,,,,,,,,,,,,,,,,,,
,,,,,,,,2023-08-16_08h43.13.268,HF_wild_card,2022.2.4,MacIntel,60.0024001,5fbc110869611208d6fd29da,64d2fd46c836a06233681665,64dc7defc2a18053d6b5d4cb,,,,,,,ctch,resources/DY.BMP,resources/DR.BMP,Door3,-0.31654992,-0.085169406,1,0,0,0.7769,optionLeft,70,13120,6,19,0,19,0,1,,,,,,,,,,,,,,,,,,,,,,,,,,,,,,,,,,,,,,,
,,,,,,,,2023-08-16_08h43.13.268,HF_wild_card,2022.2.4,MacIntel,60.0024001,5fbc110869611208d6fd29da,64d2fd46c836a06233681665,64dc7defc2a18053d6b5d4cb,,,,,,,decisionTrl,resources/DY.BMP,resources/DB.BMP,Door3,-0.359897902,-0.11141805,1,0,0,0.9254,optionLeft,70,13190,6,20,0,20,0,1,,,,,,,,,,,,,,,,,,,,,,,,,,,,,,,,,,,,,,,
,,,,,,,,2023-08-16_08h43.13.268,HF_wild_card,2022.2.4,MacIntel,60.0024001,5fbc110869611208d6fd29da,64d2fd46c836a06233681665,64dc7defc2a18053d6b5d4cb,,,,,,,decisionTrl,resources/DR.BMP,resources/DBN.BMP,Door2,-0.367539571,-0.10884413,1,0,0,0.9718,optionLeft,40,13230,6,21,0,21,0,1,,,,,,,,,,,,,,,,,,,,,,,,,,,,,,,,,,,,,,,
,,,,,,,,2023-08-16_08h43.13.268,HF_wild_card,2022.2.4,MacIntel,60.0024001,5fbc110869611208d6fd29da,64d2fd46c836a06233681665,64dc7defc2a18053d6b5d4cb,,,,,,,sngl,resources/DBN.BMP,resources/Empty.png,Door1,-0.301895752,-0.02316196,1,0,0,1.7448,optionLeft,30,13260,6,22,0,22,0,1,,,,,,,,,,,,,,,,,,,,,,,,,,,,,,,,,,,,,,,
,,,,,,,,2023-08-16_08h43.13.268,HF_wild_card,2022.2.4,MacIntel,60.0024001,5fbc110869611208d6fd29da,64d2fd46c836a06233681665,64dc7defc2a18053d6b5d4cb,,,,,,,sngl,resources/Empty.png,resources/DR.BMP,Door2,0.441001926,0.049469299,1,0,0,0.7793,optionRight,40,13300,6,23,0,23,0,1,,,,,,,,,,,,,,,,,,,,,,,,,,,,,,,,,,,,,,,
,,,,,,,,2023-08-16_08h43.13.268,HF_wild_card,2022.2.4,MacIntel,60.0024001,5fbc110869611208d6fd29da,64d2fd46c836a06233681665,64dc7defc2a18053d6b5d4cb,,,,,,,ctch,resources/DY.BMP,resources/DR.BMP,Door3,-0.340104201,-0.113900214,1,0,0,0.7826,optionLeft,70,13370,6,24,0,24,0,1,,,,,,,,,,,,,,,,,,,,,,,,,,,,,,,,,,,,,,,
,,,,,,,,2023-08-16_08h43.13.268,HF_wild_card,2022.2.4,MacIntel,60.0024001,5fbc110869611208d6fd29da,64d2fd46c836a06233681665,64dc7defc2a18053d6b5d4cb,,,,,,,decisionTrl,resources/DG.BMP,resources/DBN.BMP,WildCard_Ex,-0.366785753,-0.093719076,1,0,0,0.8961,optionLeft,5,13375,6,25,0,25,0,1,,,,,,,,,,,,,,,,,,,,,,,,,,,,,,,,,,,,,,,
,,,,,,,,2023-08-16_08h43.13.268,HF_wild_card,2022.2.4,MacIntel,60.0024001,5fbc110869611208d6fd29da,64d2fd46c836a06233681665,64dc7defc2a18053d6b5d4cb,,,,,,,decisionTrl,resources/DB.BMP,resources/DY.BMP,Door3,0.471138509,0.037820909,1,0,0,0.8018,optionRight,70,13445,6,26,0,26,0,1,,,,,,,,,,,,,,,,,,,,,,,,,,,,,,,,,,,,,,,
,,,,,,,,2023-08-16_08h43.13.268,HF_wild_card,2022.2.4,MacIntel,60.0024001,5fbc110869611208d6fd29da,64d2fd46c836a06233681665,64dc7defc2a18053d6b5d4cb,,,,,,,decisionTrl,resources/DY.BMP,resources/DB.BMP,Door3,-0.392715997,-0.112561849,1,0,0,0.7087,optionLeft,70,13515,6,27,0,27,0,1,,,,,,,,,,,,,,,,,,,,,,,,,,,,,,,,,,,,,,,
,,,,,,,,2023-08-16_08h43.13.268,HF_wild_card,2022.2.4,MacIntel,60.0024001,5fbc110869611208d6fd29da,64d2fd46c836a06233681665,64dc7defc2a18053d6b5d4cb,,,,,,,ctch,resources/DBN.BMP,resources/DB.BMP,Door4,0.371960042,0.025536329,1,0,0,0.7068,optionRight,60,13575,6,28,0,28,0,1,,,,,,,,,,,,,,,,,,,,,,,,,,,,,,,,,,,,,,,
,,,,,,,,2023-08-16_08h43.13.268,HF_wild_card,2022.2.4,MacIntel,60.0024001,5fbc110869611208d6fd29da,64d2fd46c836a06233681665,64dc7defc2a18053d6b5d4cb,,,,,,,decisionTrl,resources/DG.BMP,resources/DR.BMP,Door2,0.396350505,0.034547662,1,0,0,2.0778,optionRight,20,13595,6,29,0,29,0,1,,,,,,,,,,,,,,,,,,,,,,,,,,,,,,,,,,,,,,,
,,,,,,,,2023-08-16_08h43.13.268,HF_wild_card,2022.2.4,MacIntel,60.0024001,5fbc110869611208d6fd29da,64d2fd46c836a06233681665,64dc7defc2a18053d6b5d4cb,,,,,,,decisionTrl,resources/DG.BMP,resources/DB.BMP,Door4,0.314005263,0.002050408,1,0,0,1.1616,optionRight,60,13655,6,30,0,30,0,1,,,,,,,,,,,,,,,,,,,,,,,,,,,,,,,,,,,,,,,
,,,,,,,,2023-08-16_08h43.13.268,HF_wild_card,2022.2.4,MacIntel,60.0024001,5fbc110869611208d6fd29da,64d2fd46c836a06233681665,64dc7defc2a18053d6b5d4cb,,,,,,,decisionTrl,resources/DBN.BMP,resources/DR.BMP,Door2,0.272391018,-0.01150489,1,0,0,0.8787,optionRight,40,13695,6,31,0,31,0,1,,,,,,,,,,,,,,,,,,,,,,,,,,,,,,,,,,,,,,,
,,,,,,,,2023-08-16_08h43.13.268,HF_wild_card,2022.2.4,MacIntel,60.0024001,5fbc110869611208d6fd29da,64d2fd46c836a06233681665,64dc7defc2a18053d6b5d4cb,,,,,,,decisionTrl,resources/DBN.BMP,resources/DR.BMP,Door2,0.322879164,0.013925747,1,0,0,0.7069,optionRight,40,13735,6,32,0,32,0,1,,,,,,,,,,,,,,,,,,,,,,,,,,,,,,,,,,,,,,,
,,,,,,,,2023-08-16_08h43.13.268,HF_wild_card,2022.2.4,MacIntel,60.0024001,5fbc110869611208d6fd29da,64d2fd46c836a06233681665,64dc7defc2a18053d6b5d4cb,,,,,,,decisionTrl,resources/DB.BMP,resources/DY.BMP,Door3,0.334242961,-0.016013997,1,0,0,0.9466,optionRight,70,13805,6,33,0,33,0,1,,,,,,,,,,,,,,,,,,,,,,,,,,,,,,,,,,,,,,,
,,,,,,,,2023-08-16_08h43.13.268,HF_wild_card,2022.2.4,MacIntel,60.0024001,5fbc110869611208d6fd29da,64d2fd46c836a06233681665,64dc7defc2a18053d6b5d4cb,,,,,,,sngl,resources/DG.BMP,resources/Empty.png,WildCard_Ex,-0.275884094,-0.084354384,1,0,0,1.0985,optionLeft,5,13810,6,34,0,34,0,1,,,,,,,,,,,,,,,,,,,,,,,,,,,,,,,,,,,,,,,
,,,,,,,,2023-08-16_08h43.13.268,HF_wild_card,2022.2.4,MacIntel,60.0024001,5fbc110869611208d6fd29da,64d2fd46c836a06233681665,64dc7defc2a18053d6b5d4cb,,,,,,,sngl,resources/DR.BMP,resources/Empty.png,Door2,-0.334800618,-0.094330173,1,0,0,1.1515,optionLeft,20,13830,6,35,0,35,0,1,,,,,,,,,,,,,,,,,,,,,,,,,,,,,,,,,,,,,,,
,,,,,,,,2023-08-16_08h43.13.268,HF_wild_card,2022.2.4,MacIntel,60.0024001,5fbc110869611208d6fd29da,64d2fd46c836a06233681665,64dc7defc2a18053d6b5d4cb,,,,,,,decisionTrl,resources/DY.BMP,resources/DG.BMP,Door3,-0.326660156,-0.067942403,1,0,0,0.9646,optionLeft,70,13900,6,36,0,36,0,1,,,,,,,,,,,,,,,,,,,,,,,,,,,,,,,,,,,,,,,
,,,,,,,,2023-08-16_08h43.13.268,HF_wild_card,2022.2.4,MacIntel,60.0024001,5fbc110869611208d6fd29da,64d2fd46c836a06233681665,64dc7defc2a18053d6b5d4cb,,,,,,,decisionTrl,resources/DY.BMP,resources/DB.BMP,Door3,-0.32438524,-0.089873386,1,0,0,1.0678,optionLeft,70,13970,6,37,0,37,0,1,,,,,,,,,,,,,,,,,,,,,,,,,,,,,,,,,,,,,,,
,,,,,,,,2023-08-16_08h43.13.268,HF_wild_card,2022.2.4,MacIntel,60.0024001,5fbc110869611208d6fd29da,64d2fd46c836a06233681665,64dc7defc2a18053d6b5d4cb,,,,,,,sngl,resources/Empty.png,resources/DBN.BMP,Door1,0.368225098,0.003623081,1,0,0,1.2863,optionRight,30,14000,6,38,0,38,0,1,,,,,,,,,,,,,,,,,,,,,,,,,,,,,,,,,,,,,,,
,,,,,,,,2023-08-16_08h43.13.268,HF_wild_card,2022.2.4,MacIntel,60.0024001,5fbc110869611208d6fd29da,64d2fd46c836a06233681665,64dc7defc2a18053d6b5d4cb,,,,,,,decisionTrl,resources/DB.BMP,resources/DG.BMP,Door4,-0.342858446,-0.105421617,1,0,0,1.5764,optionLeft,80,14080,6,39,0,39,0,1,,,,,,,,,,,,,,,,,,,,,,,,,,,,,,,,,,,,,,,
,,,,,,,,2023-08-16_08h43.13.268,HF_wild_card,2022.2.4,MacIntel,60.0024001,5fbc110869611208d6fd29da,64d2fd46c836a06233681665,64dc7defc2a18053d6b5d4cb,,,,,,,sngl,resources/DB.BMP,resources/Empty.png,Door4,-0.284006856,-0.097225884,1,0,0,0.7012,optionLeft,60,14140,6,40,0,40,0,1,,,,,,,,,,,,,,,,,,,,,,,,,,,,,,,,,,,,,,,
,,,,,,,,2023-08-16_08h43.13.268,HF_wild_card,2022.2.4,MacIntel,60.0024001,5fbc110869611208d6fd29da,64d2fd46c836a06233681665,64dc7defc2a18053d6b5d4cb,,,,,,,decisionTrl,resources/DR.BMP,resources/DBN.BMP,Door2,-0.352644789,-0.122077501,1,0,0,0.8159,optionLeft,20,14160,6,41,0,41,0,1,,,,,,,,,,,,,,,,,,,,,,,,,,,,,,,,,,,,,,,
,,,,,,,,2023-08-16_08h43.13.268,HF_wild_card,2022.2.4,MacIntel,60.0024001,5fbc110869611208d6fd29da,64d2fd46c836a06233681665,64dc7defc2a18053d6b5d4cb,,,,,,,decisionTrl,resources/DR.BMP,resources/DG.BMP,Door2,-0.384418674,-0.033912014,1,0,0,0.8811,optionLeft,40,14200,6,42,0,42,0,1,,,,,,,,,,,,,,,,,,,,,,,,,,,,,,,,,,,,,,,
,,,,,,,,2023-08-16_08h43.13.268,HF_wild_card,2022.2.4,MacIntel,60.0024001,5fbc110869611208d6fd29da,64d2fd46c836a06233681665,64dc7defc2a18053d6b5d4cb,,,,,,,ctch,resources/DB.BMP,resources/DBN.BMP,Door4,-0.316055467,-0.012315267,1,0,0,0.7716,optionLeft,60,14260,6,43,0,43,0,1,,,,,,,,,,,,,,,,,,,,,,,,,,,,,,,,,,,,,,,
,,,,,,,,2023-08-16_08h43.13.268,HF_wild_card,2022.2.4,MacIntel,60.0024001,5fbc110869611208d6fd29da,64d2fd46c836a06233681665,64dc7defc2a18053d6b5d4cb,,,,,,,,,,,,,,,,,,,,,,,,,,5,0,5,0,1,,,,,,,,,,,,,,,,,,,,,,,,,,,,,,,,,,
,,,,,,,,2023-08-16_08h43.13.268,HF_wild_card,2022.2.4,MacIntel,60.0024001,5fbc110869611208d6fd29da,64d2fd46c836a06233681665,64dc7defc2a18053d6b5d4cb,,,,,,,ctch,resources/DB.BMP,resources/DBN.BMP,Door4,-0.342399631,-0.072985501,1,0,0,1.7116,optionLeft,80,14340,7,0,0,0,0,1,,,,,,,,,,,,,,,,,,,,,,,,,,,,,,,,,,,,,,,
,,,,,,,,2023-08-16_08h43.13.268,HF_wild_card,2022.2.4,MacIntel,60.0024001,5fbc110869611208d6fd29da,64d2fd46c836a06233681665,64dc7defc2a18053d6b5d4cb,,,,,,,decisionTrl,resources/DY.BMP,resources/DB.BMP,Door3,-0.281071201,-0.03642334,1,0,0,1.6485,optionLeft,70,14410,7,1,0,1,0,1,,,,,,,,,,,,,,,,,,,,,,,,,,,,,,,,,,,,,,,
,,,,,,,,2023-08-16_08h43.13.268,HF_wild_card,2022.2.4,MacIntel,60.0024001,5fbc110869611208d6fd29da,64d2fd46c836a06233681665,64dc7defc2a18053d6b5d4cb,,,,,,,decisionTrl,resources/DBN.BMP,resources/DR.BMP,Door2,0.381523709,-0.012085639,1,0,0,1.5286,optionRight,40,14450,7,2,0,2,0,1,,,,,,,,,,,,,,,,,,,,,,,,,,,,,,,,,,,,,,,
,,,,,,,,2023-08-16_08h43.13.268,HF_wild_card,2022.2.4,MacIntel,60.0024001,5fbc110869611208d6fd29da,64d2fd46c836a06233681665,64dc7defc2a18053d6b5d4cb,,,,,,,decisionTrl,resources/DB.BMP,resources/DY.BMP,Door3,0.343943956,-0.044063483,1,0,0,1.9085,optionRight,70,14520,7,3,0,3,0,1,,,,,,,,,,,,,,,,,,,,,,,,,,,,,,,,,,,,,,,
,,,,,,,,2023-08-16_08h43.13.268,HF_wild_card,2022.2.4,MacIntel,60.0024001,5fbc110869611208d6fd29da,64d2fd46c836a06233681665,64dc7defc2a18053d6b5d4cb,,,,,,,ctch,resources/DR.BMP,resources/DY.BMP,Door3,0.324922146,-0.022120429,1,0,0,1.241,optionRight,70,14590,7,4,0,4,0,1,,,,,,,,,,,,,,,,,,,,,,,,,,,,,,,,,,,,,,,
,,,,,,,,2023-08-16_08h43.13.268,HF_wild_card,2022.2.4,MacIntel,60.0024001,5fbc110869611208d6fd29da,64d2fd46c836a06233681665,64dc7defc2a18053d6b5d4cb,,,,,,,ctch,resources/DY.BMP,resources/DR.BMP,Door3,-0.509773797,-0.129963447,1,0,0,0.8445,optionLeft,70,14660,7,5,0,5,0,1,,,,,,,,,,,,,,,,,,,,,,,,,,,,,,,,,,,,,,,
,,,,,,,,2023-08-16_08h43.13.268,HF_wild_card,2022.2.4,MacIntel,60.0024001,5fbc110869611208d6fd29da,64d2fd46c836a06233681665,64dc7defc2a18053d6b5d4cb,,,,,,,ctch,resources/DB.BMP,resources/DBN.BMP,Door4,-0.331514418,-0.079991116,1,0,0,1.3985,optionLeft,60,14720,7,6,0,6,0,1,,,,,,,,,,,,,,,,,,,,,,,,,,,,,,,,,,,,,,,
,,,,,,,,2023-08-16_08h43.13.268,HF_wild_card,2022.2.4,MacIntel,60.0024001,5fbc110869611208d6fd29da,64d2fd46c836a06233681665,64dc7defc2a18053d6b5d4cb,,,,,,,decisionTrl,resources/DY.BMP,resources/DB.BMP,Door3,-0.401327311,-0.093185086,1,0,0,0.9325,optionLeft,70,14790,7,7,0,7,0,1,,,,,,,,,,,,,,,,,,,,,,,,,,,,,,,,,,,,,,,
,,,,,,,,2023-08-16_08h43.13.268,HF_wild_card,2022.2.4,MacIntel,60.0024001,5fbc110869611208d6fd29da,64d2fd46c836a06233681665,64dc7defc2a18053d6b5d4cb,,,,,,,decisionTrl,resources/DB.BMP,resources/DY.BMP,Door3,0.387518717,-0.026626621,1,0,0,0.8946,optionRight,70,14860,7,8,0,8,0,1,,,,,,,,,,,,,,,,,,,,,,,,,,,,,,,,,,,,,,,
,,,,,,,,2023-08-16_08h43.13.268,HF_wild_card,2022.2.4,MacIntel,60.0024001,5fbc110869611208d6fd29da,64d2fd46c836a06233681665,64dc7defc2a18053d6b5d4cb,,,,,,,decisionTrl,resources/DY.BMP,resources/DB.BMP,Door3,-0.378612637,-0.089943102,1,0,0,0.7281,optionLeft,70,14930,7,9,0,9,0,1,,,,,,,,,,,,,,,,,,,,,,,,,,,,,,,,,,,,,,,
,,,,,,,,2023-08-16_08h43.13.268,HF_wild_card,2022.2.4,MacIntel,60.0024001,5fbc110869611208d6fd29da,64d2fd46c836a06233681665,64dc7defc2a18053d6b5d4cb,,,,,,,decisionTrl,resources/DY.BMP,resources/DB.BMP,Door3,-0.289216275,-0.091753743,1,0,0,0.985,optionLeft,70,15000,7,10,0,10,0,1,,,,,,,,,,,,,,,,,,,,,,,,,,,,,,,,,,,,,,,
,,,,,,,,2023-08-16_08h43.13.268,HF_wild_card,2022.2.4,MacIntel,60.0024001,5fbc110869611208d6fd29da,64d2fd46c836a06233681665,64dc7defc2a18053d6b5d4cb,,,,,,,ctch,resources/DR.BMP,resources/DY.BMP,Door3,0.326928575,0.002991503,1,0,0,1.0173,optionRight,70,15070,7,11,0,11,0,1,,,,,,,,,,,,,,,,,,,,,,,,,,,,,,,,,,,,,,,
,,,,,,,,2023-08-16_08h43.13.268,HF_wild_card,2022.2.4,MacIntel,60.0024001,5fbc110869611208d6fd29da,64d2fd46c836a06233681665,64dc7defc2a18053d6b5d4cb,,,,,,,decisionTrl,resources/DB.BMP,resources/DY.BMP,Door3,0.348795709,-0.018392334,1,0,0,0.8795,optionRight,70,15140,7,12,0,12,0,1,,,,,,,,,,,,,,,,,,,,,,,,,,,,,,,,,,,,,,,
,,,,,,,,2023-08-16_08h43.13.268,HF_wild_card,2022.2.4,MacIntel,60.0024001,5fbc110869611208d6fd29da,64d2fd46c836a06233681665,64dc7defc2a18053d6b5d4cb,,,,,,,ctch,resources/DY.BMP,resources/DR.BMP,Door3,-0.387883809,-0.088949788,1,0,0,0.8721,optionLeft,70,15210,7,13,0,13,0,1,,,,,,,,,,,,,,,,,,,,,,,,,,,,,,,,,,,,,,,
,,,,,,,,2023-08-16_08h43.13.268,HF_wild_card,2022.2.4,MacIntel,60.0024001,5fbc110869611208d6fd29da,64d2fd46c836a06233681665,64dc7defc2a18053d6b5d4cb,,,,,,,decisionTrl,resources/DR.BMP,resources/DBN.BMP,Door2,-0.319582994,-0.053055115,1,0,0,1.2739,optionLeft,20,15230,7,14,0,14,0,1,,,,,,,,,,,,,,,,,,,,,,,,,,,,,,,,,,,,,,,
,,,,,,,,2023-08-16_08h43.13.268,HF_wild_card,2022.2.4,MacIntel,60.0024001,5fbc110869611208d6fd29da,64d2fd46c836a06233681665,64dc7defc2a18053d6b5d4cb,,,,,,,decisionTrl,resources/DBN.BMP,resources/DR.BMP,Door2,0.400793321,0.03507687,1,0,0,1.1647,optionRight,20,15250,7,15,0,15,0,1,,,,,,,,,,,,,,,,,,,,,,,,,,,,,,,,,,,,,,,
,,,,,,,,2023-08-16_08h43.13.268,HF_wild_card,2022.2.4,MacIntel,60.0024001,5fbc110869611208d6fd29da,64d2fd46c836a06233681665,64dc7defc2a18053d6b5d4cb,,,,,,,decisionTrl,resources/DR.BMP,resources/DBN.BMP,Door2,-0.369232992,-0.076785075,1,0,0,0.8556,optionLeft,40,15290,7,16,0,16,0,1,,,,,,,,,,,,,,,,,,,,,,,,,,,,,,,,,,,,,,,
,,,,,,,,2023-08-16_08h43.13.268,HF_wild_card,2022.2.4,MacIntel,60.0024001,5fbc110869611208d6fd29da,64d2fd46c836a06233681665,64dc7defc2a18053d6b5d4cb,,,,,,,decisionTrl,resources/DBN.BMP,resources/DR.BMP,Door2,0.424352349,-0.032530212,1,0,0,1.1324,optionRight,40,15330,7,17,0,17,0,1,,,,,,,,,,,,,,,,,,,,,,,,,,,,,,,,,,,,,,,
,,,,,,,,2023-08-16_08h43.13.268,HF_wild_card,2022.2.4,MacIntel,60.0024001,5fbc110869611208d6fd29da,64d2fd46c836a06233681665,64dc7defc2a18053d6b5d4cb,,,,,,,decisionTrl,resources/DR.BMP,resources/DBN.BMP,Door2,-0.36363288,-0.136562568,1,0,0,0.7754,optionLeft,40,15370,7,18,0,18,0,1,,,,,,,,,,,,,,,,,,,,,,,,,,,,,,,,,,,,,,,
,,,,,,,,2023-08-16_08h43.13.268,HF_wild_card,2022.2.4,MacIntel,60.0024001,5fbc110869611208d6fd29da,64d2fd46c836a06233681665,64dc7defc2a18053d6b5d4cb,,,,,,,decisionTrl,resources/DBN.BMP,resources/DR.BMP,Door2,0.417685954,0.002944539,1,0,0,0.8467,optionRight,20,15390,7,19,0,19,0,1,,,,,,,,,,,,,,,,,,,,,,,,,,,,,,,,,,,,,,,
,,,,,,,,2023-08-16_08h43.13.268,HF_wild_card,2022.2.4,MacIntel,60.0024001,5fbc110869611208d6fd29da,64d2fd46c836a06233681665,64dc7defc2a18053d6b5d4cb,,,,,,,decisionTrl,resources/DY.BMP,resources/DB.BMP,Door3,-0.406689758,-0.071993747,1,0,0,0.8858,optionLeft,70,15460,7,20,0,20,0,1,,,,,,,,,,,,,,,,,,,,,,,,,,,,,,,,,,,,,,,
,,,,,,,,2023-08-16_08h43.13.268,HF_wild_card,2022.2.4,MacIntel,60.0024001,5fbc110869611208d6fd29da,64d2fd46c836a06233681665,64dc7defc2a18053d6b5d4cb,,,,,,,decisionTrl,resources/DR.BMP,resources/DBN.BMP,Door2,-0.330168423,-0.015487603,1,0,0,1.8576,optionLeft,40,15500,7,21,0,21,0,1,,,,,,,,,,,,,,,,,,,,,,,,,,,,,,,,,,,,,,,
,,,,,,,,2023-08-16_08h43.13.268,HF_wild_card,2022.2.4,MacIntel,60.0024001,5fbc110869611208d6fd29da,64d2fd46c836a06233681665,64dc7defc2a18053d6b5d4cb,,,,,,,decisionTrl,resources/DB.BMP,resources/DY.BMP,Door3,0.390965034,0.018661669,1,0,0,0.7522,optionRight,70,15570,7,22,0,22,0,1,,,,,,,,,,,,,,,,,,,,,,,,,,,,,,,,,,,,,,,
,,,,,,,,2023-08-16_08h43.13.268,HF_wild_card,2022.2.4,MacIntel,60.0024001,5fbc110869611208d6fd29da,64d2fd46c836a06233681665,64dc7defc2a18053d6b5d4cb,,,,,,,ctch,resources/DBN.BMP,resources/DB.BMP,Door4,0.378102756,0.004045478,1,0,0,1.0143,optionRight,60,15630,7,23,0,23,0,1,,,,,,,,,,,,,,,,,,,,,,,,,,,,,,,,,,,,,,,
,,,,,,,,2023-08-16_08h43.13.268,HF_wild_card,2022.2.4,MacIntel,60.0024001,5fbc110869611208d6fd29da,64d2fd46c836a06233681665,64dc7defc2a18053d6b5d4cb,,,,,,,ctch,resources/DB.BMP,resources/DBN.BMP,Door4,-0.370388963,-0.120590685,1,0,0,0.9656,optionLeft,80,15710,7,24,0,24,0,1,,,,,,,,,,,,,,,,,,,,,,,,,,,,,,,,,,,,,,,
,,,,,,,,2023-08-16_08h43.13.268,HF_wild_card,2022.2.4,MacIntel,60.0024001,5fbc110869611208d6fd29da,64d2fd46c836a06233681665,64dc7defc2a18053d6b5d4cb,,,,,,,decisionTrl,resources/DB.BMP,resources/DY.BMP,Door3,0.461489393,0.04689704,1,0,0,0.8028,optionRight,70,15780,7,25,0,25,0,1,,,,,,,,,,,,,,,,,,,,,,,,,,,,,,,,,,,,,,,
,,,,,,,,2023-08-16_08h43.13.268,HF_wild_card,2022.2.4,MacIntel,60.0024001,5fbc110869611208d6fd29da,64d2fd46c836a06233681665,64dc7defc2a18053d6b5d4cb,,,,,,,decisionTrl,resources/DY.BMP,resources/DB.BMP,Door3,-0.309462552,-0.105228407,1,0,0,0.7938,optionLeft,70,15850,7,26,0,26,0,1,,,,,,,,,,,,,,,,,,,,,,,,,,,,,,,,,,,,,,,
,,,,,,,,2023-08-16_08h43.13.268,HF_wild_card,2022.2.4,MacIntel,60.0024001,5fbc110869611208d6fd29da,64d2fd46c836a06233681665,64dc7defc2a18053d6b5d4cb,,,,,,,decisionTrl,resources/DR.BMP,resources/DBN.BMP,Door2,-0.363376736,-0.072220798,1,0,0,1.2484,optionLeft,20,15870,7,27,0,27,0,1,,,,,,,,,,,,,,,,,,,,,,,,,,,,,,,,,,,,,,,
,,,,,,,,2023-08-16_08h43.13.268,HF_wild_card,2022.2.4,MacIntel,60.0024001,5fbc110869611208d6fd29da,64d2fd46c836a06233681665,64dc7defc2a18053d6b5d4cb,,,,,,,ctch,resources/DR.BMP,resources/DY.BMP,Door3,0.363117947,0.015899726,1,0,0,0.9095,optionRight,70,15940,7,28,0,28,0,1,,,,,,,,,,,,,,,,,,,,,,,,,,,,,,,,,,,,,,,
,,,,,,,,2023-08-16_08h43.13.268,HF_wild_card,2022.2.4,MacIntel,60.0024001,5fbc110869611208d6fd29da,64d2fd46c836a06233681665,64dc7defc2a18053d6b5d4cb,,,,,,,decisionTrl,resources/DR.BMP,resources/DBN.BMP,Door2,-0.471916707,-0.058699476,1,0,0,1.0621,optionLeft,40,15980,7,29,0,29,0,1,,,,,,,,,,,,,,,,,,,,,,,,,,,,,,,,,,,,,,,
,,,,,,,,2023-08-16_08h43.13.268,HF_wild_card,2022.2.4,MacIntel,60.0024001,5fbc110869611208d6fd29da,64d2fd46c836a06233681665,64dc7defc2a18053d6b5d4cb,,,,,,,decisionTrl,resources/DB.BMP,resources/DY.BMP,Door3,0.378532037,-0.009480048,1,0,0,0.844,optionRight,70,16050,7,30,0,30,0,1,,,,,,,,,,,,,,,,,,,,,,,,,,,,,,,,,,,,,,,
,,,,,,,,2023-08-16_08h43.13.268,HF_wild_card,2022.2.4,MacIntel,60.0024001,5fbc110869611208d6fd29da,64d2fd46c836a06233681665,64dc7defc2a18053d6b5d4cb,,,,,,,decisionTrl,resources/DBN.BMP,resources/DR.BMP,Door2,0.372574327,-0.002261251,1,0,0,1.6491,optionRight,20,16070,7,31,0,31,0,1,,,,,,,,,,,,,,,,,,,,,,,,,,,,,,,,,,,,,,,
,,,,,,,,2023-08-16_08h43.13.268,HF_wild_card,2022.2.4,MacIntel,60.0024001,5fbc110869611208d6fd29da,64d2fd46c836a06233681665,64dc7defc2a18053d6b5d4cb,,,,,,,ctch,resources/DBN.BMP,resources/DB.BMP,Door4,0.366926812,-0.008088175,1,0,0,1.8965,optionRight,60,16130,7,32,0,32,0,1,,,,,,,,,,,,,,,,,,,,,,,,,,,,,,,,,,,,,,,
,,,,,,,,2023-08-16_08h43.13.268,HF_wild_card,2022.2.4,MacIntel,60.0024001,5fbc110869611208d6fd29da,64d2fd46c836a06233681665,64dc7defc2a18053d6b5d4cb,,,,,,,decisionTrl,resources/DBN.BMP,resources/DR.BMP,Door2,0.356935628,-0.014790649,1,0,0,1.0766,optionRight,20,16150,7,33,0,33,0,1,,,,,,,,,,,,,,,,,,,,,,,,,,,,,,,,,,,,,,,
,,,,,,,,2023-08-16_08h43.13.268,HF_wild_card,2022.2.4,MacIntel,60.0024001,5fbc110869611208d6fd29da,64d2fd46c836a06233681665,64dc7defc2a18053d6b5d4cb,,,,,,,ctch,resources/DY.BMP,resources/DR.BMP,Door3,-0.364835409,-0.073899672,1,0,0,0.7615,optionLeft,70,16220,7,34,0,34,0,1,,,,,,,,,,,,,,,,,,,,,,,,,,,,,,,,,,,,,,,
,,,,,,,,2023-08-16_08h43.13.268,HF_wild_card,2022.2.4,MacIntel,60.0024001,5fbc110869611208d6fd29da,64d2fd46c836a06233681665,64dc7defc2a18053d6b5d4cb,,,,,,,ctch,resources/DBN.BMP,resources/DB.BMP,Door4,0.410938992,-0.006725939,1,0,0,0.9956,optionRight,60,16280,7,35,0,35,0,1,,,,,,,,,,,,,,,,,,,,,,,,,,,,,,,,,,,,,,,
,,,,,,,,2023-08-16_08h43.13.268,HF_wild_card,2022.2.4,MacIntel,60.0024001,5fbc110869611208d6fd29da,64d2fd46c836a06233681665,64dc7defc2a18053d6b5d4cb,,,,,,,,,,,,,,,,,,,,,,,,,,6,0,6,0,1,,,,,,,,,,,,,,,,,,,,,,,,,,,,,,,,,,
,,,,,,,,2023-08-16_08h43.13.268,HF_wild_card,2022.2.4,MacIntel,60.0024001,5fbc110869611208d6fd29da,64d2fd46c836a06233681665,64dc7defc2a18053d6b5d4cb,,,,,,,,,,,,,,,,,,,,,,,,,,,,,,,4,,,,,,,,,,,,,,,,,,,,,,,,,,,,,,,,,
,,,,,,,,2023-08-16_08h43.13.268,HF_wild_card,2022.2.4,MacIntel,60.0024001,5fbc110869611208d6fd29da,64d2fd46c836a06233681665,64dc7defc2a18053d6b5d4cb,,,,,,,,,,,,,,,,,,,,,,,,,,,,,,,,,,,,,,,,,,,,,,,,,,,,,,,,,,,,,,,,
,,,,,,,,2023-08-16_08h43.13.268,HF_wild_card,2022.2.4,MacIntel,60.0024001,5fbc110869611208d6fd29da,64d2fd46c836a06233681665,64dc7defc2a18053d6b5d4cb,,,,,,,,,,,,,,,,,,,,,,,,,,,,,,,,40,WC_extreme,resources/DG.BMP,0,0,0,0,1,,,,,,,,,,,,,,,,,,,,,,,,,
,,,,,,,,2023-08-16_08h43.13.268,HF_wild_card,2022.2.4,MacIntel,60.0024001,5fbc110869611208d6fd29da,64d2fd46c836a06233681665,64dc7defc2a18053d6b5d4cb,,,,,,,,,,,,,,,,,,,,,,,,,,,,,,,,70,Door3,resources/DY.BMP,1,0,1,0,1,,,,,,,,,,,,,,,,,,,,,,,,,
,,,,,,,,2023-08-16_08h43.13.268,HF_wild_card,2022.2.4,MacIntel,60.0024001,5fbc110869611208d6fd29da,64d2fd46c836a06233681665,64dc7defc2a18053d6b5d4cb,,,,,,,,,,,,,,,,,,,,,,,,,,,,,,,,55,WC_nonExtreme,resources/DP.BMP,2,0,2,0,1,,,,,,,,,,,,,,,,,,,,,,,,,
,,,,,,,,2023-08-16_08h43.13.268,HF_wild_card,2022.2.4,MacIntel,60.0024001,5fbc110869611208d6fd29da,64d2fd46c836a06233681665,64dc7defc2a18053d6b5d4cb,,,,,,,,,,,,,,,,,,,,,,,,,,,,,,,,40,Door2,resources/DR.BMP,3,0,3,0,1,,,,,,,,,,,,,,,,,,,,,,,,,
