Condition,Low fixed image (Door1),Low risky image (Door2),High fixed image (Door3),High risky image (Door4),NonExtreme Wild Card 1,NonExtreme Wild Card 2,,date,expName,psychopyVersion,OS,frameRate,PROLIFIC_PID,STUDY_ID,SESSION_ID,mouse_2.x,mouse_2.y,mouse_2.leftButton,mouse_2.midButton,mouse_2.rightButton,mouse_2.clicked_name,Trial Type,Left Option Image,Right Option Image,Chosen Door,mouse.x,mouse.y,mouse.leftButton,mouse.midButton,mouse.rightButton,mouse.time,mouse.clicked_name,Feedback,Cumulative Reward,Block,trial.thisRepN,trial.thisTrialN,trial.thisN,trial.thisIndex,trial.ran,blocks.thisRepN,blocks.thisTrialN,blocks.thisN,blocks.thisIndex,blocks.ran,Money conversion,First Outcome Reported,Shown Door (First Outcome),Displayed Image (First Outcome),outcomes.thisRepN,outcomes.thisTrialN,outcomes.thisN,outcomes.thisIndex,outcomes.ran,judgments.thisRepN,judgments.thisTrialN,judgments.thisN,judgments.thisIndex,judgments.ran,freqMouse.x,freqMouse.y,freqMouse.leftButton,freqMouse.midButton,freqMouse.rightButton,freqMouse.clicked_name,FQJ for first outcome,FQJ for second outcome,Shown Door,Displayed Image,trials.thisRepN,trials.thisTrialN,trials.thisN,trials.thisIndex,trials.ran,judgBlock.thisRepN,judgBlock.thisTrialN,judgBlock.thisN,judgBlock.thisIndex,judgBlock.ran
2,resources/DB.BMP,resources/DY.BMP,resources/DR.BMP,resources/DP.BMP,resources/DBN.BMP,resources/DG.BMP,5755c957eb80c4000741a9ce,2023-08-16_08h40.11.475,HF_wild_card,2022.2.4,Win32,59.97001499,5755c957eb80c4000741a9ce,64d2fd46c836a06233681665,64dc7be9cf99e74298b5d48a,,,,,,,,,,,,,,,,,,,,,,,,,,,,,,,,,,,,,,,,,,,,,,,,,,,,,,,,,,,,,,,,
,,,,,,,5755c957eb80c4000741a9ce,2023-08-16_08h40.11.475,HF_wild_card,2022.2.4,Win32,59.97001499,5755c957eb80c4000741a9ce,64d2fd46c836a06233681665,64dc7be9cf99e74298b5d48a,0.012037037,-0.413888889,1,0,0,agree,,,,,,,,,,,,,,,,,,,,,,,,,,,,,,,,,,,,,,,,,,,,,,,,,,,,,,,,,,
,,,,,,,5755c957eb80c4000741a9ce,2023-08-16_08h40.11.475,HF_wild_card,2022.2.4,Win32,59.97001499,5755c957eb80c4000741a9ce,64d2fd46c836a06233681665,64dc7be9cf99e74298b5d48a,,,,,,,,,,,,,,,,,,,,,,,,,,,,,,,,,,,,,,,,,,,,,,,,,,,,,,,,,,,,,,,,
,,,,,,,5755c957eb80c4000741a9ce,2023-08-16_08h40.11.475,HF_wild_card,2022.2.4,Win32,59.97001499,5755c957eb80c4000741a9ce,64d2fd46c836a06233681665,64dc7be9cf99e74298b5d48a,,,,,,,decisionTrl,resources/DR.BMP,resources/DP.BMP,Door3,-0.297222222,-0.051851852,1,0,0,1.882,optionLeft,70,70,1,0,0,0,0,1,,,,,,,,,,,,,,,,,,,,,,,,,,,,,,,,,,,,,,,
,,,,,,,5755c957eb80c4000741a9ce,2023-08-16_08h40.11.475,HF_wild_card,2022.2.4,Win32,59.97001499,5755c957eb80c4000741a9ce,64d2fd46c836a06233681665,64dc7be9cf99e74298b5d48a,,,,,,,decisionTrl,resources/DR.BMP,resources/DP.BMP,Door4,0.324074074,-0.022222222,1,0,0,1.1816,optionRight,80,150,1,1,0,1,0,1,,,,,,,,,,,,,,,,,,,,,,,,,,,,,,,,,,,,,,,
,,,,,,,5755c957eb80c4000741a9ce,2023-08-16_08h40.11.475,HF_wild_card,2022.2.4,Win32,59.97001499,5755c957eb80c4000741a9ce,64d2fd46c836a06233681665,64dc7be9cf99e74298b5d48a,,,,,,,sngl,resources/Empty.png,resources/DG.BMP,WildCard_NonEx,0.363888889,-0.019444444,1,0,0,1.7145,optionRight,55,205,1,2,0,2,0,1,,,,,,,,,,,,,,,,,,,,,,,,,,,,,,,,,,,,,,,
,,,,,,,5755c957eb80c4000741a9ce,2023-08-16_08h40.11.475,HF_wild_card,2022.2.4,Win32,59.97001499,5755c957eb80c4000741a9ce,64d2fd46c836a06233681665,64dc7be9cf99e74298b5d48a,,,,,,,sngl,resources/DR.BMP,resources/Empty.png,Door3,-0.388888889,-0.02037037,1,0,0,0.5979,optionLeft,70,275,1,3,0,3,0,1,,,,,,,,,,,,,,,,,,,,,,,,,,,,,,,,,,,,,,,
,,,,,,,5755c957eb80c4000741a9ce,2023-08-16_08h40.11.475,HF_wild_card,2022.2.4,Win32,59.97001499,5755c957eb80c4000741a9ce,64d2fd46c836a06233681665,64dc7be9cf99e74298b5d48a,,,,,,,sngl,resources/DG.BMP,resources/Empty.png,WildCard_NonEx,-0.373148148,-0.025,1,0,0,0.6321,optionLeft,45,320,1,4,0,4,0,1,,,,,,,,,,,,,,,,,,,,,,,,,,,,,,,,,,,,,,,
,,,,,,,5755c957eb80c4000741a9ce,2023-08-16_08h40.11.475,HF_wild_card,2022.2.4,Win32,59.97001499,5755c957eb80c4000741a9ce,64d2fd46c836a06233681665,64dc7be9cf99e74298b5d48a,,,,,,,decisionTrl,resources/DB.BMP,resources/DY.BMP,Door2,0.335185185,-0.016666667,1,0,0,0.9486,optionRight,40,360,1,5,0,5,0,1,,,,,,,,,,,,,,,,,,,,,,,,,,,,,,,,,,,,,,,
,,,,,,,5755c957eb80c4000741a9ce,2023-08-16_08h40.11.475,HF_wild_card,2022.2.4,Win32,59.97001499,5755c957eb80c4000741a9ce,64d2fd46c836a06233681665,64dc7be9cf99e74298b5d48a,,,,,,,decisionTrl,resources/DR.BMP,resources/DP.BMP,Door4,0.397222222,-0.026851852,1,0,0,0.6821,optionRight,80,440,1,6,0,6,0,1,,,,,,,,,,,,,,,,,,,,,,,,,,,,,,,,,,,,,,,
,,,,,,,5755c957eb80c4000741a9ce,2023-08-16_08h40.11.475,HF_wild_card,2022.2.4,Win32,59.97001499,5755c957eb80c4000741a9ce,64d2fd46c836a06233681665,64dc7be9cf99e74298b5d48a,,,,,,,sngl,resources/DB.BMP,resources/Empty.png,Door1,-0.341666667,-0.013888889,1,0,0,0.5822,optionLeft,30,470,1,7,0,7,0,1,,,,,,,,,,,,,,,,,,,,,,,,,,,,,,,,,,,,,,,
,,,,,,,5755c957eb80c4000741a9ce,2023-08-16_08h40.11.475,HF_wild_card,2022.2.4,Win32,59.97001499,5755c957eb80c4000741a9ce,64d2fd46c836a06233681665,64dc7be9cf99e74298b5d48a,,,,,,,decisionTrl,resources/DB.BMP,resources/DY.BMP,Door2,0.374074074,-0.012037037,1,0,0,0.7322,optionRight,40,510,1,8,0,8,0,1,,,,,,,,,,,,,,,,,,,,,,,,,,,,,,,,,,,,,,,
,,,,,,,5755c957eb80c4000741a9ce,2023-08-16_08h40.11.475,HF_wild_card,2022.2.4,Win32,59.97001499,5755c957eb80c4000741a9ce,64d2fd46c836a06233681665,64dc7be9cf99e74298b5d48a,,,,,,,decisionTrl,resources/DP.BMP,resources/DR.BMP,Door3,0.301851852,-0.022222222,1,0,0,0.7156,optionRight,70,580,1,9,0,9,0,1,,,,,,,,,,,,,,,,,,,,,,,,,,,,,,,,,,,,,,,
,,,,,,,5755c957eb80c4000741a9ce,2023-08-16_08h40.11.475,HF_wild_card,2022.2.4,Win32,59.97001499,5755c957eb80c4000741a9ce,64d2fd46c836a06233681665,64dc7be9cf99e74298b5d48a,,,,,,,ctch,resources/DY.BMP,resources/DR.BMP,Door3,0.349074074,-0.015740741,1,0,0,0.5986,optionRight,70,650,1,10,0,10,0,1,,,,,,,,,,,,,,,,,,,,,,,,,,,,,,,,,,,,,,,
,,,,,,,5755c957eb80c4000741a9ce,2023-08-16_08h40.11.475,HF_wild_card,2022.2.4,Win32,59.97001499,5755c957eb80c4000741a9ce,64d2fd46c836a06233681665,64dc7be9cf99e74298b5d48a,,,,,,,decisionTrl,resources/DG.BMP,resources/DY.BMP,WildCard_NonEx,-0.340740741,-0.05,1,0,0,1.2618,optionLeft,45,695,1,11,0,11,0,1,,,,,,,,,,,,,,,,,,,,,,,,,,,,,,,,,,,,,,,
,,,,,,,5755c957eb80c4000741a9ce,2023-08-16_08h40.11.475,HF_wild_card,2022.2.4,Win32,59.97001499,5755c957eb80c4000741a9ce,64d2fd46c836a06233681665,64dc7be9cf99e74298b5d48a,,,,,,,sngl,resources/DG.BMP,resources/Empty.png,WildCard_NonEx,-0.414814815,-0.027777778,1,0,0,0.515,optionLeft,55,750,1,12,0,12,0,1,,,,,,,,,,,,,,,,,,,,,,,,,,,,,,,,,,,,,,,
,,,,,,,5755c957eb80c4000741a9ce,2023-08-16_08h40.11.475,HF_wild_card,2022.2.4,Win32,59.97001499,5755c957eb80c4000741a9ce,64d2fd46c836a06233681665,64dc7be9cf99e74298b5d48a,,,,,,,ctch,resources/DB.BMP,resources/DP.BMP,Door4,0.339814815,-0.040740741,1,0,0,0.6486,optionRight,80,830,1,13,0,13,0,1,,,,,,,,,,,,,,,,,,,,,,,,,,,,,,,,,,,,,,,
,,,,,,,5755c957eb80c4000741a9ce,2023-08-16_08h40.11.475,HF_wild_card,2022.2.4,Win32,59.97001499,5755c957eb80c4000741a9ce,64d2fd46c836a06233681665,64dc7be9cf99e74298b5d48a,,,,,,,sngl,resources/Empty.png,resources/DY.BMP,Door2,0.372222222,-0.022222222,1,0,0,0.5821,optionRight,20,850,1,14,0,14,0,1,,,,,,,,,,,,,,,,,,,,,,,,,,,,,,,,,,,,,,,
,,,,,,,5755c957eb80c4000741a9ce,2023-08-16_08h40.11.475,HF_wild_card,2022.2.4,Win32,59.97001499,5755c957eb80c4000741a9ce,64d2fd46c836a06233681665,64dc7be9cf99e74298b5d48a,,,,,,,decisionTrl,resources/DY.BMP,resources/DG.BMP,WildCard_NonEx,0.415740741,-0.003703704,1,0,0,0.8147,optionRight,45,895,1,15,0,15,0,1,,,,,,,,,,,,,,,,,,,,,,,,,,,,,,,,,,,,,,,
,,,,,,,5755c957eb80c4000741a9ce,2023-08-16_08h40.11.475,HF_wild_card,2022.2.4,Win32,59.97001499,5755c957eb80c4000741a9ce,64d2fd46c836a06233681665,64dc7be9cf99e74298b5d48a,,,,,,,decisionTrl,resources/DG.BMP,resources/DR.BMP,Door3,0.307407407,-0.02037037,1,0,0,0.9655,optionRight,70,965,1,16,0,16,0,1,,,,,,,,,,,,,,,,,,,,,,,,,,,,,,,,,,,,,,,
,,,,,,,5755c957eb80c4000741a9ce,2023-08-16_08h40.11.475,HF_wild_card,2022.2.4,Win32,59.97001499,5755c957eb80c4000741a9ce,64d2fd46c836a06233681665,64dc7be9cf99e74298b5d48a,,,,,,,decisionTrl,resources/DY.BMP,resources/DB.BMP,Door2,-0.417592593,-0.05462963,1,0,0,1.1648,optionLeft,40,1005,1,17,0,17,0,1,,,,,,,,,,,,,,,,,,,,,,,,,,,,,,,,,,,,,,,
,,,,,,,5755c957eb80c4000741a9ce,2023-08-16_08h40.11.475,HF_wild_card,2022.2.4,Win32,59.97001499,5755c957eb80c4000741a9ce,64d2fd46c836a06233681665,64dc7be9cf99e74298b5d48a,,,,,,,ctch,resources/DR.BMP,resources/DY.BMP,Door3,-0.332407407,-0.056481481,1,0,0,0.8321,optionLeft,70,1075,1,18,0,18,0,1,,,,,,,,,,,,,,,,,,,,,,,,,,,,,,,,,,,,,,,
,,,,,,,5755c957eb80c4000741a9ce,2023-08-16_08h40.11.475,HF_wild_card,2022.2.4,Win32,59.97001499,5755c957eb80c4000741a9ce,64d2fd46c836a06233681665,64dc7be9cf99e74298b5d48a,,,,,,,decisionTrl,resources/DP.BMP,resources/DR.BMP,Door4,-0.387037037,-0.047222222,1,0,0,0.8869,optionLeft,60,1135,1,19,0,19,0,1,,,,,,,,,,,,,,,,,,,,,,,,,,,,,,,,,,,,,,,
,,,,,,,5755c957eb80c4000741a9ce,2023-08-16_08h40.11.475,HF_wild_card,2022.2.4,Win32,59.97001499,5755c957eb80c4000741a9ce,64d2fd46c836a06233681665,64dc7be9cf99e74298b5d48a,,,,,,,decisionTrl,resources/DB.BMP,resources/DY.BMP,Door2,0.360185185,-0.028703704,1,0,0,0.8306,optionRight,20,1155,1,20,0,20,0,1,,,,,,,,,,,,,,,,,,,,,,,,,,,,,,,,,,,,,,,
,,,,,,,5755c957eb80c4000741a9ce,2023-08-16_08h40.11.475,HF_wild_card,2022.2.4,Win32,59.97001499,5755c957eb80c4000741a9ce,64d2fd46c836a06233681665,64dc7be9cf99e74298b5d48a,,,,,,,decisionTrl,resources/DG.BMP,resources/DP.BMP,Door4,0.287962963,-0.022222222,1,0,0,0.6984,optionRight,60,1215,1,21,0,21,0,1,,,,,,,,,,,,,,,,,,,,,,,,,,,,,,,,,,,,,,,
,,,,,,,5755c957eb80c4000741a9ce,2023-08-16_08h40.11.475,HF_wild_card,2022.2.4,Win32,59.97001499,5755c957eb80c4000741a9ce,64d2fd46c836a06233681665,64dc7be9cf99e74298b5d48a,,,,,,,decisionTrl,resources/DG.BMP,resources/DB.BMP,WildCard_NonEx,-0.278703704,-0.049074074,1,0,0,1.0148,optionLeft,45,1260,1,22,0,22,0,1,,,,,,,,,,,,,,,,,,,,,,,,,,,,,,,,,,,,,,,
,,,,,,,5755c957eb80c4000741a9ce,2023-08-16_08h40.11.475,HF_wild_card,2022.2.4,Win32,59.97001499,5755c957eb80c4000741a9ce,64d2fd46c836a06233681665,64dc7be9cf99e74298b5d48a,,,,,,,ctch,resources/DY.BMP,resources/DR.BMP,Door3,0.302777778,0.003703704,1,0,0,0.8818,optionRight,70,1330,1,23,0,23,0,1,,,,,,,,,,,,,,,,,,,,,,,,,,,,,,,,,,,,,,,
,,,,,,,5755c957eb80c4000741a9ce,2023-08-16_08h40.11.475,HF_wild_card,2022.2.4,Win32,59.97001499,5755c957eb80c4000741a9ce,64d2fd46c836a06233681665,64dc7be9cf99e74298b5d48a,,,,,,,decisionTrl,resources/DR.BMP,resources/DP.BMP,Door3,-0.286111111,-0.035185185,1,0,0,0.582,optionLeft,70,1400,1,24,0,24,0,1,,,,,,,,,,,,,,,,,,,,,,,,,,,,,,,,,,,,,,,
,,,,,,,5755c957eb80c4000741a9ce,2023-08-16_08h40.11.475,HF_wild_card,2022.2.4,Win32,59.97001499,5755c957eb80c4000741a9ce,64d2fd46c836a06233681665,64dc7be9cf99e74298b5d48a,,,,,,,sngl,resources/DP.BMP,resources/Empty.png,Door4,-0.401851852,-0.074074074,1,0,0,0.5824,optionLeft,80,1480,1,25,0,25,0,1,,,,,,,,,,,,,,,,,,,,,,,,,,,,,,,,,,,,,,,
,,,,,,,5755c957eb80c4000741a9ce,2023-08-16_08h40.11.475,HF_wild_card,2022.2.4,Win32,59.97001499,5755c957eb80c4000741a9ce,64d2fd46c836a06233681665,64dc7be9cf99e74298b5d48a,,,,,,,decisionTrl,resources/DP.BMP,resources/DR.BMP,Door4,-0.22037037,-0.033333333,1,0,0,0.5318,optionLeft,80,1560,1,26,0,26,0,1,,,,,,,,,,,,,,,,,,,,,,,,,,,,,,,,,,,,,,,
,,,,,,,5755c957eb80c4000741a9ce,2023-08-16_08h40.11.475,HF_wild_card,2022.2.4,Win32,59.97001499,5755c957eb80c4000741a9ce,64d2fd46c836a06233681665,64dc7be9cf99e74298b5d48a,,,,,,,ctch,resources/DB.BMP,resources/DP.BMP,Door4,0.305555556,-0.025,1,0,0,0.7813,optionRight,80,1640,1,27,0,27,0,1,,,,,,,,,,,,,,,,,,,,,,,,,,,,,,,,,,,,,,,
,,,,,,,5755c957eb80c4000741a9ce,2023-08-16_08h40.11.475,HF_wild_card,2022.2.4,Win32,59.97001499,5755c957eb80c4000741a9ce,64d2fd46c836a06233681665,64dc7be9cf99e74298b5d48a,,,,,,,sngl,resources/Empty.png,resources/DG.BMP,WildCard_NonEx,0.24537037,-0.003703704,1,0,0,0.8151,optionRight,45,1685,1,28,0,28,0,1,,,,,,,,,,,,,,,,,,,,,,,,,,,,,,,,,,,,,,,
,,,,,,,5755c957eb80c4000741a9ce,2023-08-16_08h40.11.475,HF_wild_card,2022.2.4,Win32,59.97001499,5755c957eb80c4000741a9ce,64d2fd46c836a06233681665,64dc7be9cf99e74298b5d48a,,,,,,,ctch,resources/DR.BMP,resources/DY.BMP,Door3,-0.324074074,-0.024074074,1,0,0,0.6487,optionLeft,70,1755,1,29,0,29,0,1,,,,,,,,,,,,,,,,,,,,,,,,,,,,,,,,,,,,,,,
,,,,,,,5755c957eb80c4000741a9ce,2023-08-16_08h40.11.475,HF_wild_card,2022.2.4,Win32,59.97001499,5755c957eb80c4000741a9ce,64d2fd46c836a06233681665,64dc7be9cf99e74298b5d48a,,,,,,,decisionTrl,resources/DB.BMP,resources/DG.BMP,Door1,-0.365740741,-0.016666667,1,0,0,0.7818,optionLeft,30,1785,1,30,0,30,0,1,,,,,,,,,,,,,,,,,,,,,,,,,,,,,,,,,,,,,,,
,,,,,,,5755c957eb80c4000741a9ce,2023-08-16_08h40.11.475,HF_wild_card,2022.2.4,Win32,59.97001499,5755c957eb80c4000741a9ce,64d2fd46c836a06233681665,64dc7be9cf99e74298b5d48a,,,,,,,sngl,resources/Empty.png,resources/DR.BMP,Door3,0.300925926,-0.027777778,1,0,0,0.4487,optionRight,70,1855,1,31,0,31,0,1,,,,,,,,,,,,,,,,,,,,,,,,,,,,,,,,,,,,,,,
,,,,,,,5755c957eb80c4000741a9ce,2023-08-16_08h40.11.475,HF_wild_card,2022.2.4,Win32,59.97001499,5755c957eb80c4000741a9ce,64d2fd46c836a06233681665,64dc7be9cf99e74298b5d48a,,,,,,,sngl,resources/DY.BMP,resources/Empty.png,Door2,-0.312037037,-0.039814815,1,0,0,0.4151,optionLeft,40,1895,1,32,0,32,0,1,,,,,,,,,,,,,,,,,,,,,,,,,,,,,,,,,,,,,,,
,,,,,,,5755c957eb80c4000741a9ce,2023-08-16_08h40.11.475,HF_wild_card,2022.2.4,Win32,59.97001499,5755c957eb80c4000741a9ce,64d2fd46c836a06233681665,64dc7be9cf99e74298b5d48a,,,,,,,ctch,resources/DP.BMP,resources/DB.BMP,Door4,-0.372222222,-0.056481481,1,0,0,0.6311,optionLeft,60,1955,1,33,0,33,0,1,,,,,,,,,,,,,,,,,,,,,,,,,,,,,,,,,,,,,,,
,,,,,,,5755c957eb80c4000741a9ce,2023-08-16_08h40.11.475,HF_wild_card,2022.2.4,Win32,59.97001499,5755c957eb80c4000741a9ce,64d2fd46c836a06233681665,64dc7be9cf99e74298b5d48a,,,,,,,sngl,resources/Empty.png,resources/DB.BMP,Door1,0.397222222,-0.025925926,1,0,0,0.4818,optionRight,30,1985,1,34,0,34,0,1,,,,,,,,,,,,,,,,,,,,,,,,,,,,,,,,,,,,,,,
,,,,,,,5755c957eb80c4000741a9ce,2023-08-16_08h40.11.475,HF_wild_card,2022.2.4,Win32,59.97001499,5755c957eb80c4000741a9ce,64d2fd46c836a06233681665,64dc7be9cf99e74298b5d48a,,,,,,,decisionTrl,resources/DY.BMP,resources/DB.BMP,Door2,-0.308333333,-0.013888889,1,0,0,0.5486,optionLeft,40,2025,1,35,0,35,0,1,,,,,,,,,,,,,,,,,,,,,,,,,,,,,,,,,,,,,,,
,,,,,,,5755c957eb80c4000741a9ce,2023-08-16_08h40.11.475,HF_wild_card,2022.2.4,Win32,59.97001499,5755c957eb80c4000741a9ce,64d2fd46c836a06233681665,64dc7be9cf99e74298b5d48a,,,,,,,decisionTrl,resources/DB.BMP,resources/DY.BMP,Door2,0.407407407,-0.012962963,1,0,0,0.6321,optionRight,20,2045,1,36,0,36,0,1,,,,,,,,,,,,,,,,,,,,,,,,,,,,,,,,,,,,,,,
,,,,,,,5755c957eb80c4000741a9ce,2023-08-16_08h40.11.475,HF_wild_card,2022.2.4,Win32,59.97001499,5755c957eb80c4000741a9ce,64d2fd46c836a06233681665,64dc7be9cf99e74298b5d48a,,,,,,,decisionTrl,resources/DR.BMP,resources/DG.BMP,Door3,-0.337037037,-0.032407407,1,0,0,0.9652,optionLeft,70,2115,1,37,0,37,0,1,,,,,,,,,,,,,,,,,,,,,,,,,,,,,,,,,,,,,,,
,,,,,,,5755c957eb80c4000741a9ce,2023-08-16_08h40.11.475,HF_wild_card,2022.2.4,Win32,59.97001499,5755c957eb80c4000741a9ce,64d2fd46c836a06233681665,64dc7be9cf99e74298b5d48a,,,,,,,decisionTrl,resources/DY.BMP,resources/DB.BMP,Door1,0.328703704,0.003703704,1,0,0,0.7312,optionRight,30,2145,1,38,0,38,0,1,,,,,,,,,,,,,,,,,,,,,,,,,,,,,,,,,,,,,,,
,,,,,,,5755c957eb80c4000741a9ce,2023-08-16_08h40.11.475,HF_wild_card,2022.2.4,Win32,59.97001499,5755c957eb80c4000741a9ce,64d2fd46c836a06233681665,64dc7be9cf99e74298b5d48a,,,,,,,sngl,resources/Empty.png,resources/DP.BMP,Door4,0.362962963,-0.010185185,1,0,0,0.5488,optionRight,60,2205,1,39,0,39,0,1,,,,,,,,,,,,,,,,,,,,,,,,,,,,,,,,,,,,,,,
,,,,,,,5755c957eb80c4000741a9ce,2023-08-16_08h40.11.475,HF_wild_card,2022.2.4,Win32,59.97001499,5755c957eb80c4000741a9ce,64d2fd46c836a06233681665,64dc7be9cf99e74298b5d48a,,,,,,,ctch,resources/DP.BMP,resources/DB.BMP,Door4,-0.343518519,-0.038888889,1,0,0,1.0652,optionLeft,80,2285,1,40,0,40,0,1,,,,,,,,,,,,,,,,,,,,,,,,,,,,,,,,,,,,,,,
,,,,,,,5755c957eb80c4000741a9ce,2023-08-16_08h40.11.475,HF_wild_card,2022.2.4,Win32,59.97001499,5755c957eb80c4000741a9ce,64d2fd46c836a06233681665,64dc7be9cf99e74298b5d48a,,,,,,,decisionTrl,resources/DP.BMP,resources/DR.BMP,Door4,-0.348148148,-0.025,1,0,0,0.5317,optionLeft,60,2345,1,41,0,41,0,1,,,,,,,,,,,,,,,,,,,,,,,,,,,,,,,,,,,,,,,
,,,,,,,5755c957eb80c4000741a9ce,2023-08-16_08h40.11.475,HF_wild_card,2022.2.4,Win32,59.97001499,5755c957eb80c4000741a9ce,64d2fd46c836a06233681665,64dc7be9cf99e74298b5d48a,,,,,,,decisionTrl,resources/DY.BMP,resources/DB.BMP,Door1,0.318518519,-0.021296296,1,0,0,0.865,optionRight,30,2375,1,42,0,42,0,1,,,,,,,,,,,,,,,,,,,,,,,,,,,,,,,,,,,,,,,
,,,,,,,5755c957eb80c4000741a9ce,2023-08-16_08h40.11.475,HF_wild_card,2022.2.4,Win32,59.97001499,5755c957eb80c4000741a9ce,64d2fd46c836a06233681665,64dc7be9cf99e74298b5d48a,,,,,,,decisionTrl,resources/DP.BMP,resources/DG.BMP,Door4,-0.212962963,-0.037962963,1,0,0,0.5823,optionLeft,60,2435,1,43,0,43,0,1,,,,,,,,,,,,,,,,,,,,,,,,,,,,,,,,,,,,,,,
,,,,,,,5755c957eb80c4000741a9ce,2023-08-16_08h40.11.475,HF_wild_card,2022.2.4,Win32,59.97001499,5755c957eb80c4000741a9ce,64d2fd46c836a06233681665,64dc7be9cf99e74298b5d48a,,,,,,,,,,,,,,,,,,,,,,,,,,0,0,0,0,1,,,,,,,,,,,,,,,,,,,,,,,,,,,,,,,,,,
,,,,,,,5755c957eb80c4000741a9ce,2023-08-16_08h40.11.475,HF_wild_card,2022.2.4,Win32,59.97001499,5755c957eb80c4000741a9ce,64d2fd46c836a06233681665,64dc7be9cf99e74298b5d48a,,,,,,,decisionTrl,resources/DP.BMP,resources/DR.BMP,Door4,-0.384259259,-0.037037037,1,0,0,0.7565,optionLeft,80,2515,2,0,0,0,0,1,,,,,,,,,,,,,,,,,,,,,,,,,,,,,,,,,,,,,,,
,,,,,,,5755c957eb80c4000741a9ce,2023-08-16_08h40.11.475,HF_wild_card,2022.2.4,Win32,59.97001499,5755c957eb80c4000741a9ce,64d2fd46c836a06233681665,64dc7be9cf99e74298b5d48a,,,,,,,decisionTrl,resources/DY.BMP,resources/DB.BMP,Door1,0.405555556,-0.02037037,1,0,0,0.7652,optionRight,30,2545,2,1,0,1,0,1,,,,,,,,,,,,,,,,,,,,,,,,,,,,,,,,,,,,,,,
,,,,,,,5755c957eb80c4000741a9ce,2023-08-16_08h40.11.475,HF_wild_card,2022.2.4,Win32,59.97001499,5755c957eb80c4000741a9ce,64d2fd46c836a06233681665,64dc7be9cf99e74298b5d48a,,,,,,,decisionTrl,resources/DP.BMP,resources/DR.BMP,Door4,-0.264814815,-0.048148148,1,0,0,0.6156,optionLeft,60,2605,2,2,0,2,0,1,,,,,,,,,,,,,,,,,,,,,,,,,,,,,,,,,,,,,,,
,,,,,,,5755c957eb80c4000741a9ce,2023-08-16_08h40.11.475,HF_wild_card,2022.2.4,Win32,59.97001499,5755c957eb80c4000741a9ce,64d2fd46c836a06233681665,64dc7be9cf99e74298b5d48a,,,,,,,sngl,resources/DR.BMP,resources/Empty.png,Door3,-0.444444444,-0.038888889,1,0,0,0.5486,optionLeft,70,2675,2,3,0,3,0,1,,,,,,,,,,,,,,,,,,,,,,,,,,,,,,,,,,,,,,,
,,,,,,,5755c957eb80c4000741a9ce,2023-08-16_08h40.11.475,HF_wild_card,2022.2.4,Win32,59.97001499,5755c957eb80c4000741a9ce,64d2fd46c836a06233681665,64dc7be9cf99e74298b5d48a,,,,,,,ctch,resources/DB.BMP,resources/DP.BMP,Door4,0.280555556,0.003703704,1,0,0,0.5487,optionRight,80,2755,2,4,0,4,0,1,,,,,,,,,,,,,,,,,,,,,,,,,,,,,,,,,,,,,,,
,,,,,,,5755c957eb80c4000741a9ce,2023-08-16_08h40.11.475,HF_wild_card,2022.2.4,Win32,59.97001499,5755c957eb80c4000741a9ce,64d2fd46c836a06233681665,64dc7be9cf99e74298b5d48a,,,,,,,decisionTrl,resources/DR.BMP,resources/DP.BMP,Door4,0.272222222,-0.010185185,1,0,0,0.5318,optionRight,80,2835,2,5,0,5,0,1,,,,,,,,,,,,,,,,,,,,,,,,,,,,,,,,,,,,,,,
,,,,,,,5755c957eb80c4000741a9ce,2023-08-16_08h40.11.475,HF_wild_card,2022.2.4,Win32,59.97001499,5755c957eb80c4000741a9ce,64d2fd46c836a06233681665,64dc7be9cf99e74298b5d48a,,,,,,,sngl,resources/DP.BMP,resources/Empty.png,Door4,-0.384259259,-0.061111111,1,0,0,0.4649,optionLeft,60,2895,2,6,0,6,0,1,,,,,,,,,,,,,,,,,,,,,,,,,,,,,,,,,,,,,,,
,,,,,,,5755c957eb80c4000741a9ce,2023-08-16_08h40.11.475,HF_wild_card,2022.2.4,Win32,59.97001499,5755c957eb80c4000741a9ce,64d2fd46c836a06233681665,64dc7be9cf99e74298b5d48a,,,,,,,ctch,resources/DP.BMP,resources/DB.BMP,Door4,-0.343518519,-0.058333333,1,0,0,0.5482,optionLeft,80,2975,2,7,0,7,0,1,,,,,,,,,,,,,,,,,,,,,,,,,,,,,,,,,,,,,,,
,,,,,,,5755c957eb80c4000741a9ce,2023-08-16_08h40.11.475,HF_wild_card,2022.2.4,Win32,59.97001499,5755c957eb80c4000741a9ce,64d2fd46c836a06233681665,64dc7be9cf99e74298b5d48a,,,,,,,ctch,resources/DP.BMP,resources/DB.BMP,Door4,-0.317592593,-0.046296296,1,0,0,0.4993,optionLeft,80,3055,2,8,0,8,0,1,,,,,,,,,,,,,,,,,,,,,,,,,,,,,,,,,,,,,,,
,,,,,,,5755c957eb80c4000741a9ce,2023-08-16_08h40.11.475,HF_wild_card,2022.2.4,Win32,59.97001499,5755c957eb80c4000741a9ce,64d2fd46c836a06233681665,64dc7be9cf99e74298b5d48a,,,,,,,sngl,resources/Empty.png,resources/DG.BMP,WildCard_NonEx,0.413888889,-0.002777778,1,0,0,0.5488,optionRight,55,3110,2,9,0,9,0,1,,,,,,,,,,,,,,,,,,,,,,,,,,,,,,,,,,,,,,,
,,,,,,,5755c957eb80c4000741a9ce,2023-08-16_08h40.11.475,HF_wild_card,2022.2.4,Win32,59.97001499,5755c957eb80c4000741a9ce,64d2fd46c836a06233681665,64dc7be9cf99e74298b5d48a,,,,,,,decisionTrl,resources/DY.BMP,resources/DG.BMP,WildCard_NonEx,0.387037037,-0.016666667,1,0,0,0.4822,optionRight,55,3165,2,10,0,10,0,1,,,,,,,,,,,,,,,,,,,,,,,,,,,,,,,,,,,,,,,
,,,,,,,5755c957eb80c4000741a9ce,2023-08-16_08h40.11.475,HF_wild_card,2022.2.4,Win32,59.97001499,5755c957eb80c4000741a9ce,64d2fd46c836a06233681665,64dc7be9cf99e74298b5d48a,,,,,,,sngl,resources/DG.BMP,resources/Empty.png,WildCard_NonEx,-0.346296296,-0.033333333,1,0,0,0.5483,optionLeft,55,3220,2,11,0,11,0,1,,,,,,,,,,,,,,,,,,,,,,,,,,,,,,,,,,,,,,,
,,,,,,,5755c957eb80c4000741a9ce,2023-08-16_08h40.11.475,HF_wild_card,2022.2.4,Win32,59.97001499,5755c957eb80c4000741a9ce,64d2fd46c836a06233681665,64dc7be9cf99e74298b5d48a,,,,,,,decisionTrl,resources/DR.BMP,resources/DP.BMP,Door4,0.399074074,-0.041666667,1,0,0,0.7322,optionRight,60,3280,2,12,0,12,0,1,,,,,,,,,,,,,,,,,,,,,,,,,,,,,,,,,,,,,,,
,,,,,,,5755c957eb80c4000741a9ce,2023-08-16_08h40.11.475,HF_wild_card,2022.2.4,Win32,59.97001499,5755c957eb80c4000741a9ce,64d2fd46c836a06233681665,64dc7be9cf99e74298b5d48a,,,,,,,sngl,resources/DB.BMP,resources/Empty.png,Door1,-0.362037037,-0.053703704,1,0,0,0.6648,optionLeft,30,3310,2,13,0,13,0,1,,,,,,,,,,,,,,,,,,,,,,,,,,,,,,,,,,,,,,,
,,,,,,,5755c957eb80c4000741a9ce,2023-08-16_08h40.11.475,HF_wild_card,2022.2.4,Win32,59.97001499,5755c957eb80c4000741a9ce,64d2fd46c836a06233681665,64dc7be9cf99e74298b5d48a,,,,,,,decisionTrl,resources/DR.BMP,resources/DG.BMP,Door3,-0.327777778,-0.048148148,1,0,0,0.6978,optionLeft,70,3380,2,14,0,14,0,1,,,,,,,,,,,,,,,,,,,,,,,,,,,,,,,,,,,,,,,
,,,,,,,5755c957eb80c4000741a9ce,2023-08-16_08h40.11.475,HF_wild_card,2022.2.4,Win32,59.97001499,5755c957eb80c4000741a9ce,64d2fd46c836a06233681665,64dc7be9cf99e74298b5d48a,,,,,,,decisionTrl,resources/DB.BMP,resources/DG.BMP,WildCard_NonEx,0.526851852,0.002777778,1,0,0,0.7144,optionRight,45,3425,2,15,0,15,0,1,,,,,,,,,,,,,,,,,,,,,,,,,,,,,,,,,,,,,,,
,,,,,,,5755c957eb80c4000741a9ce,2023-08-16_08h40.11.475,HF_wild_card,2022.2.4,Win32,59.97001499,5755c957eb80c4000741a9ce,64d2fd46c836a06233681665,64dc7be9cf99e74298b5d48a,,,,,,,sngl,resources/Empty.png,resources/DY.BMP,Door2,0.240740741,-0.008333333,1,0,0,0.4987,optionRight,40,3465,2,16,0,16,0,1,,,,,,,,,,,,,,,,,,,,,,,,,,,,,,,,,,,,,,,
,,,,,,,5755c957eb80c4000741a9ce,2023-08-16_08h40.11.475,HF_wild_card,2022.2.4,Win32,59.97001499,5755c957eb80c4000741a9ce,64d2fd46c836a06233681665,64dc7be9cf99e74298b5d48a,,,,,,,decisionTrl,resources/DG.BMP,resources/DP.BMP,Door4,0.286111111,-0.015740741,1,0,0,0.4317,optionRight,60,3525,2,17,0,17,0,1,,,,,,,,,,,,,,,,,,,,,,,,,,,,,,,,,,,,,,,
,,,,,,,5755c957eb80c4000741a9ce,2023-08-16_08h40.11.475,HF_wild_card,2022.2.4,Win32,59.97001499,5755c957eb80c4000741a9ce,64d2fd46c836a06233681665,64dc7be9cf99e74298b5d48a,,,,,,,decisionTrl,resources/DR.BMP,resources/DP.BMP,Door3,-0.239814815,-0.035185185,1,0,0,0.4484,optionLeft,70,3595,2,18,0,18,0,1,,,,,,,,,,,,,,,,,,,,,,,,,,,,,,,,,,,,,,,
,,,,,,,5755c957eb80c4000741a9ce,2023-08-16_08h40.11.475,HF_wild_card,2022.2.4,Win32,59.97001499,5755c957eb80c4000741a9ce,64d2fd46c836a06233681665,64dc7be9cf99e74298b5d48a,,,,,,,ctch,resources/DR.BMP,resources/DY.BMP,Door3,-0.317592593,-0.028703704,1,0,0,0.532,optionLeft,70,3665,2,19,0,19,0,1,,,,,,,,,,,,,,,,,,,,,,,,,,,,,,,,,,,,,,,
,,,,,,,5755c957eb80c4000741a9ce,2023-08-16_08h40.11.475,HF_wild_card,2022.2.4,Win32,59.97001499,5755c957eb80c4000741a9ce,64d2fd46c836a06233681665,64dc7be9cf99e74298b5d48a,,,,,,,decisionTrl,resources/DP.BMP,resources/DR.BMP,Door3,0.305555556,0.006481481,1,0,0,0.4155,optionRight,70,3735,2,20,0,20,0,1,,,,,,,,,,,,,,,,,,,,,,,,,,,,,,,,,,,,,,,
,,,,,,,5755c957eb80c4000741a9ce,2023-08-16_08h40.11.475,HF_wild_card,2022.2.4,Win32,59.97001499,5755c957eb80c4000741a9ce,64d2fd46c836a06233681665,64dc7be9cf99e74298b5d48a,,,,,,,ctch,resources/DR.BMP,resources/DY.BMP,Door3,-0.366666667,-0.053703704,1,0,0,0.4326,optionLeft,70,3805,2,21,0,21,0,1,,,,,,,,,,,,,,,,,,,,,,,,,,,,,,,,,,,,,,,
,,,,,,,5755c957eb80c4000741a9ce,2023-08-16_08h40.11.475,HF_wild_card,2022.2.4,Win32,59.97001499,5755c957eb80c4000741a9ce,64d2fd46c836a06233681665,64dc7be9cf99e74298b5d48a,,,,,,,decisionTrl,resources/DR.BMP,resources/DP.BMP,Door3,-0.221296296,-0.05,1,0,0,1.2816,optionLeft,70,3875,2,22,0,22,0,1,,,,,,,,,,,,,,,,,,,,,,,,,,,,,,,,,,,,,,,
,,,,,,,5755c957eb80c4000741a9ce,2023-08-16_08h40.11.475,HF_wild_card,2022.2.4,Win32,59.97001499,5755c957eb80c4000741a9ce,64d2fd46c836a06233681665,64dc7be9cf99e74298b5d48a,,,,,,,decisionTrl,resources/DB.BMP,resources/DY.BMP,Door1,-0.287037037,-0.061111111,1,0,0,1.165,optionLeft,30,3905,2,23,0,23,0,1,,,,,,,,,,,,,,,,,,,,,,,,,,,,,,,,,,,,,,,
,,,,,,,5755c957eb80c4000741a9ce,2023-08-16_08h40.11.475,HF_wild_card,2022.2.4,Win32,59.97001499,5755c957eb80c4000741a9ce,64d2fd46c836a06233681665,64dc7be9cf99e74298b5d48a,,,,,,,decisionTrl,resources/DY.BMP,resources/DB.BMP,Door2,-0.382407407,-0.065740741,1,0,0,1.0654,optionLeft,20,3925,2,24,0,24,0,1,,,,,,,,,,,,,,,,,,,,,,,,,,,,,,,,,,,,,,,
,,,,,,,5755c957eb80c4000741a9ce,2023-08-16_08h40.11.475,HF_wild_card,2022.2.4,Win32,59.97001499,5755c957eb80c4000741a9ce,64d2fd46c836a06233681665,64dc7be9cf99e74298b5d48a,,,,,,,ctch,resources/DB.BMP,resources/DP.BMP,Door4,0.353703704,-0.014814815,1,0,0,0.8321,optionRight,60,3985,2,25,0,25,0,1,,,,,,,,,,,,,,,,,,,,,,,,,,,,,,,,,,,,,,,
,,,,,,,5755c957eb80c4000741a9ce,2023-08-16_08h40.11.475,HF_wild_card,2022.2.4,Win32,59.97001499,5755c957eb80c4000741a9ce,64d2fd46c836a06233681665,64dc7be9cf99e74298b5d48a,,,,,,,sngl,resources/DG.BMP,resources/Empty.png,WildCard_NonEx,-0.374074074,-0.039814815,1,0,0,0.4984,optionLeft,45,4030,2,26,0,26,0,1,,,,,,,,,,,,,,,,,,,,,,,,,,,,,,,,,,,,,,,
,,,,,,,5755c957eb80c4000741a9ce,2023-08-16_08h40.11.475,HF_wild_card,2022.2.4,Win32,59.97001499,5755c957eb80c4000741a9ce,64d2fd46c836a06233681665,64dc7be9cf99e74298b5d48a,,,,,,,sngl,resources/Empty.png,resources/DG.BMP,WildCard_NonEx,0.414814815,0.011111111,1,0,0,0.4987,optionRight,45,4075,2,27,0,27,0,1,,,,,,,,,,,,,,,,,,,,,,,,,,,,,,,,,,,,,,,
,,,,,,,5755c957eb80c4000741a9ce,2023-08-16_08h40.11.475,HF_wild_card,2022.2.4,Win32,59.97001499,5755c957eb80c4000741a9ce,64d2fd46c836a06233681665,64dc7be9cf99e74298b5d48a,,,,,,,decisionTrl,resources/DP.BMP,resources/DG.BMP,Door4,-0.35,-0.028703704,1,0,0,0.5951,optionLeft,80,4155,2,28,0,28,0,1,,,,,,,,,,,,,,,,,,,,,,,,,,,,,,,,,,,,,,,
,,,,,,,5755c957eb80c4000741a9ce,2023-08-16_08h40.11.475,HF_wild_card,2022.2.4,Win32,59.97001499,5755c957eb80c4000741a9ce,64d2fd46c836a06233681665,64dc7be9cf99e74298b5d48a,,,,,,,decisionTrl,resources/DB.BMP,resources/DY.BMP,Door2,0.277777778,0.011111111,1,0,0,0.7819,optionRight,40,4195,2,29,0,29,0,1,,,,,,,,,,,,,,,,,,,,,,,,,,,,,,,,,,,,,,,
,,,,,,,5755c957eb80c4000741a9ce,2023-08-16_08h40.11.475,HF_wild_card,2022.2.4,Win32,59.97001499,5755c957eb80c4000741a9ce,64d2fd46c836a06233681665,64dc7be9cf99e74298b5d48a,,,,,,,decisionTrl,resources/DG.BMP,resources/DY.BMP,Door2,0.284259259,0.005555556,1,0,0,0.4616,optionRight,20,4215,2,30,0,30,0,1,,,,,,,,,,,,,,,,,,,,,,,,,,,,,,,,,,,,,,,
,,,,,,,5755c957eb80c4000741a9ce,2023-08-16_08h40.11.475,HF_wild_card,2022.2.4,Win32,59.97001499,5755c957eb80c4000741a9ce,64d2fd46c836a06233681665,64dc7be9cf99e74298b5d48a,,,,,,,sngl,resources/Empty.png,resources/DP.BMP,Door4,0.319444444,-0.007407407,1,0,0,0.5324,optionRight,80,4295,2,31,0,31,0,1,,,,,,,,,,,,,,,,,,,,,,,,,,,,,,,,,,,,,,,
,,,,,,,5755c957eb80c4000741a9ce,2023-08-16_08h40.11.475,HF_wild_card,2022.2.4,Win32,59.97001499,5755c957eb80c4000741a9ce,64d2fd46c836a06233681665,64dc7be9cf99e74298b5d48a,,,,,,,decisionTrl,resources/DY.BMP,resources/DB.BMP,Door2,-0.284259259,-0.041666667,1,0,0,0.4819,optionLeft,40,4335,2,32,0,32,0,1,,,,,,,,,,,,,,,,,,,,,,,,,,,,,,,,,,,,,,,
,,,,,,,5755c957eb80c4000741a9ce,2023-08-16_08h40.11.475,HF_wild_card,2022.2.4,Win32,59.97001499,5755c957eb80c4000741a9ce,64d2fd46c836a06233681665,64dc7be9cf99e74298b5d48a,,,,,,,sngl,resources/Empty.png,resources/DB.BMP,Door1,0.3,0.000925926,1,0,0,0.8484,optionRight,30,4365,2,33,0,33,0,1,,,,,,,,,,,,,,,,,,,,,,,,,,,,,,,,,,,,,,,
,,,,,,,5755c957eb80c4000741a9ce,2023-08-16_08h40.11.475,HF_wild_card,2022.2.4,Win32,59.97001499,5755c957eb80c4000741a9ce,64d2fd46c836a06233681665,64dc7be9cf99e74298b5d48a,,,,,,,decisionTrl,resources/DG.BMP,resources/DR.BMP,WildCard_NonEx,-0.312037037,-0.040740741,1,0,0,1.665,optionLeft,45,4410,2,34,0,34,0,1,,,,,,,,,,,,,,,,,,,,,,,,,,,,,,,,,,,,,,,
,,,,,,,5755c957eb80c4000741a9ce,2023-08-16_08h40.11.475,HF_wild_card,2022.2.4,Win32,59.97001499,5755c957eb80c4000741a9ce,64d2fd46c836a06233681665,64dc7be9cf99e74298b5d48a,,,,,,,decisionTrl,resources/DB.BMP,resources/DY.BMP,Door1,-0.346296296,-0.062962963,1,0,0,0.7646,optionLeft,30,4440,2,35,0,35,0,1,,,,,,,,,,,,,,,,,,,,,,,,,,,,,,,,,,,,,,,
,,,,,,,5755c957eb80c4000741a9ce,2023-08-16_08h40.11.475,HF_wild_card,2022.2.4,Win32,59.97001499,5755c957eb80c4000741a9ce,64d2fd46c836a06233681665,64dc7be9cf99e74298b5d48a,,,,,,,decisionTrl,resources/DB.BMP,resources/DY.BMP,Door2,0.300925926,-0.008333333,1,0,0,0.782,optionRight,20,4460,2,36,0,36,0,1,,,,,,,,,,,,,,,,,,,,,,,,,,,,,,,,,,,,,,,
,,,,,,,5755c957eb80c4000741a9ce,2023-08-16_08h40.11.475,HF_wild_card,2022.2.4,Win32,59.97001499,5755c957eb80c4000741a9ce,64d2fd46c836a06233681665,64dc7be9cf99e74298b5d48a,,,,,,,decisionTrl,resources/DY.BMP,resources/DB.BMP,Door2,-0.390740741,-0.051851852,1,0,0,1.1646,optionLeft,20,4480,2,37,0,37,0,1,,,,,,,,,,,,,,,,,,,,,,,,,,,,,,,,,,,,,,,
,,,,,,,5755c957eb80c4000741a9ce,2023-08-16_08h40.11.475,HF_wild_card,2022.2.4,Win32,59.97001499,5755c957eb80c4000741a9ce,64d2fd46c836a06233681665,64dc7be9cf99e74298b5d48a,,,,,,,decisionTrl,resources/DP.BMP,resources/DR.BMP,Door4,-0.425925926,-0.05462963,1,0,0,0.8655,optionLeft,60,4540,2,38,0,38,0,1,,,,,,,,,,,,,,,,,,,,,,,,,,,,,,,,,,,,,,,
,,,,,,,5755c957eb80c4000741a9ce,2023-08-16_08h40.11.475,HF_wild_card,2022.2.4,Win32,59.97001499,5755c957eb80c4000741a9ce,64d2fd46c836a06233681665,64dc7be9cf99e74298b5d48a,,,,,,,sngl,resources/DY.BMP,resources/Empty.png,Door2,-0.378703704,-0.056481481,1,0,0,0.6148,optionLeft,20,4560,2,39,0,39,0,1,,,,,,,,,,,,,,,,,,,,,,,,,,,,,,,,,,,,,,,
,,,,,,,5755c957eb80c4000741a9ce,2023-08-16_08h40.11.475,HF_wild_card,2022.2.4,Win32,59.97001499,5755c957eb80c4000741a9ce,64d2fd46c836a06233681665,64dc7be9cf99e74298b5d48a,,,,,,,ctch,resources/DY.BMP,resources/DR.BMP,Door3,0.29537037,-0.012962963,1,0,0,0.6323,optionRight,70,4630,2,40,0,40,0,1,,,,,,,,,,,,,,,,,,,,,,,,,,,,,,,,,,,,,,,
,,,,,,,5755c957eb80c4000741a9ce,2023-08-16_08h40.11.475,HF_wild_card,2022.2.4,Win32,59.97001499,5755c957eb80c4000741a9ce,64d2fd46c836a06233681665,64dc7be9cf99e74298b5d48a,,,,,,,ctch,resources/DY.BMP,resources/DR.BMP,Door3,0.25462963,0,1,0,0,0.4981,optionRight,70,4700,2,41,0,41,0,1,,,,,,,,,,,,,,,,,,,,,,,,,,,,,,,,,,,,,,,
,,,,,,,5755c957eb80c4000741a9ce,2023-08-16_08h40.11.475,HF_wild_card,2022.2.4,Win32,59.97001499,5755c957eb80c4000741a9ce,64d2fd46c836a06233681665,64dc7be9cf99e74298b5d48a,,,,,,,decisionTrl,resources/DG.BMP,resources/DB.BMP,WildCard_NonEx,-0.381481481,-0.037037037,1,0,0,1.1317,optionLeft,55,4755,2,42,0,42,0,1,,,,,,,,,,,,,,,,,,,,,,,,,,,,,,,,,,,,,,,
,,,,,,,5755c957eb80c4000741a9ce,2023-08-16_08h40.11.475,HF_wild_card,2022.2.4,Win32,59.97001499,5755c957eb80c4000741a9ce,64d2fd46c836a06233681665,64dc7be9cf99e74298b5d48a,,,,,,,sngl,resources/Empty.png,resources/DR.BMP,Door3,0.298148148,-0.006481481,1,0,0,0.5486,optionRight,70,4825,2,43,0,43,0,1,,,,,,,,,,,,,,,,,,,,,,,,,,,,,,,,,,,,,,,
,,,,,,,5755c957eb80c4000741a9ce,2023-08-16_08h40.11.475,HF_wild_card,2022.2.4,Win32,59.97001499,5755c957eb80c4000741a9ce,64d2fd46c836a06233681665,64dc7be9cf99e74298b5d48a,,,,,,,,,,,,,,,,,,,,,,,,,,1,0,1,0,1,,,,,,,,,,,,,,,,,,,,,,,,,,,,,,,,,,
,,,,,,,5755c957eb80c4000741a9ce,2023-08-16_08h40.11.475,HF_wild_card,2022.2.4,Win32,59.97001499,5755c957eb80c4000741a9ce,64d2fd46c836a06233681665,64dc7be9cf99e74298b5d48a,,,,,,,ctch,resources/DP.BMP,resources/DB.BMP,Door4,-0.324074074,-0.05462963,1,0,0,0.6147,optionLeft,80,4905,3,0,0,0,0,1,,,,,,,,,,,,,,,,,,,,,,,,,,,,,,,,,,,,,,,
,,,,,,,5755c957eb80c4000741a9ce,2023-08-16_08h40.11.475,HF_wild_card,2022.2.4,Win32,59.97001499,5755c957eb80c4000741a9ce,64d2fd46c836a06233681665,64dc7be9cf99e74298b5d48a,,,,,,,decisionTrl,resources/DP.BMP,resources/DG.BMP,Door4,-0.32962963,-0.057407407,1,0,0,0.4322,optionLeft,80,4985,3,1,0,1,0,1,,,,,,,,,,,,,,,,,,,,,,,,,,,,,,,,,,,,,,,
,,,,,,,5755c957eb80c4000741a9ce,2023-08-16_08h40.11.475,HF_wild_card,2022.2.4,Win32,59.97001499,5755c957eb80c4000741a9ce,64d2fd46c836a06233681665,64dc7be9cf99e74298b5d48a,,,,,,,decisionTrl,resources/DB.BMP,resources/DY.BMP,Door1,-0.291666667,-0.017592593,1,0,0,1.3013,optionLeft,30,5015,3,2,0,2,0,1,,,,,,,,,,,,,,,,,,,,,,,,,,,,,,,,,,,,,,,
,,,,,,,5755c957eb80c4000741a9ce,2023-08-16_08h40.11.475,HF_wild_card,2022.2.4,Win32,59.97001499,5755c957eb80c4000741a9ce,64d2fd46c836a06233681665,64dc7be9cf99e74298b5d48a,,,,,,,decisionTrl,resources/DG.BMP,resources/DP.BMP,Door4,0.331481481,-0.041666667,1,0,0,0.6655,optionRight,80,5095,3,3,0,3,0,1,,,,,,,,,,,,,,,,,,,,,,,,,,,,,,,,,,,,,,,
,,,,,,,5755c957eb80c4000741a9ce,2023-08-16_08h40.11.475,HF_wild_card,2022.2.4,Win32,59.97001499,5755c957eb80c4000741a9ce,64d2fd46c836a06233681665,64dc7be9cf99e74298b5d48a,,,,,,,sngl,resources/DG.BMP,resources/Empty.png,WildCard_NonEx,-0.468518519,-0.026851852,1,0,0,0.5118,optionLeft,55,5150,3,4,0,4,0,1,,,,,,,,,,,,,,,,,,,,,,,,,,,,,,,,,,,,,,,
,,,,,,,5755c957eb80c4000741a9ce,2023-08-16_08h40.11.475,HF_wild_card,2022.2.4,Win32,59.97001499,5755c957eb80c4000741a9ce,64d2fd46c836a06233681665,64dc7be9cf99e74298b5d48a,,,,,,,decisionTrl,resources/DP.BMP,resources/DR.BMP,Door4,-0.421296296,-0.034259259,1,0,0,0.582,optionLeft,60,5210,3,5,0,5,0,1,,,,,,,,,,,,,,,,,,,,,,,,,,,,,,,,,,,,,,,
,,,,,,,5755c957eb80c4000741a9ce,2023-08-16_08h40.11.475,HF_wild_card,2022.2.4,Win32,59.97001499,5755c957eb80c4000741a9ce,64d2fd46c836a06233681665,64dc7be9cf99e74298b5d48a,,,,,,,decisionTrl,resources/DY.BMP,resources/DB.BMP,Door1,0.24537037,-0.018518519,1,0,0,1.3485,optionRight,30,5240,3,6,0,6,0,1,,,,,,,,,,,,,,,,,,,,,,,,,,,,,,,,,,,,,,,
,,,,,,,5755c957eb80c4000741a9ce,2023-08-16_08h40.11.475,HF_wild_card,2022.2.4,Win32,59.97001499,5755c957eb80c4000741a9ce,64d2fd46c836a06233681665,64dc7be9cf99e74298b5d48a,,,,,,,sngl,resources/DR.BMP,resources/Empty.png,Door3,-0.382407407,-0.025,1,0,0,0.5148,optionLeft,70,5310,3,7,0,7,0,1,,,,,,,,,,,,,,,,,,,,,,,,,,,,,,,,,,,,,,,
,,,,,,,5755c957eb80c4000741a9ce,2023-08-16_08h40.11.475,HF_wild_card,2022.2.4,Win32,59.97001499,5755c957eb80c4000741a9ce,64d2fd46c836a06233681665,64dc7be9cf99e74298b5d48a,,,,,,,sngl,resources/Empty.png,resources/DY.BMP,Door2,0.269444444,-0.023148148,1,0,0,0.5988,optionRight,20,5330,3,8,0,8,0,1,,,,,,,,,,,,,,,,,,,,,,,,,,,,,,,,,,,,,,,
,,,,,,,5755c957eb80c4000741a9ce,2023-08-16_08h40.11.475,HF_wild_card,2022.2.4,Win32,59.97001499,5755c957eb80c4000741a9ce,64d2fd46c836a06233681665,64dc7be9cf99e74298b5d48a,,,,,,,ctch,resources/DB.BMP,resources/DP.BMP,Door4,0.300925926,-0.027777778,1,0,0,0.5646,optionRight,80,5410,3,9,0,9,0,1,,,,,,,,,,,,,,,,,,,,,,,,,,,,,,,,,,,,,,,
,,,,,,,5755c957eb80c4000741a9ce,2023-08-16_08h40.11.475,HF_wild_card,2022.2.4,Win32,59.97001499,5755c957eb80c4000741a9ce,64d2fd46c836a06233681665,64dc7be9cf99e74298b5d48a,,,,,,,ctch,resources/DY.BMP,resources/DR.BMP,Door3,0.348148148,-0.019444444,1,0,0,0.9491,optionRight,70,5480,3,10,0,10,0,1,,,,,,,,,,,,,,,,,,,,,,,,,,,,,,,,,,,,,,,
,,,,,,,5755c957eb80c4000741a9ce,2023-08-16_08h40.11.475,HF_wild_card,2022.2.4,Win32,59.97001499,5755c957eb80c4000741a9ce,64d2fd46c836a06233681665,64dc7be9cf99e74298b5d48a,,,,,,,decisionTrl,resources/DR.BMP,resources/DP.BMP,Door3,-0.313888889,-0.059259259,1,0,0,0.5153,optionLeft,70,5550,3,11,0,11,0,1,,,,,,,,,,,,,,,,,,,,,,,,,,,,,,,,,,,,,,,
,,,,,,,5755c957eb80c4000741a9ce,2023-08-16_08h40.11.475,HF_wild_card,2022.2.4,Win32,59.97001499,5755c957eb80c4000741a9ce,64d2fd46c836a06233681665,64dc7be9cf99e74298b5d48a,,,,,,,ctch,resources/DR.BMP,resources/DY.BMP,Door3,-0.340740741,-0.018518519,1,0,0,1.5314,optionLeft,70,5620,3,12,0,12,0,1,,,,,,,,,,,,,,,,,,,,,,,,,,,,,,,,,,,,,,,
,,,,,,,5755c957eb80c4000741a9ce,2023-08-16_08h40.11.475,HF_wild_card,2022.2.4,Win32,59.97001499,5755c957eb80c4000741a9ce,64d2fd46c836a06233681665,64dc7be9cf99e74298b5d48a,,,,,,,decisionTrl,resources/DP.BMP,resources/DR.BMP,Door3,0.34537037,-0.030555556,1,0,0,0.5648,optionRight,70,5690,3,13,0,13,0,1,,,,,,,,,,,,,,,,,,,,,,,,,,,,,,,,,,,,,,,
,,,,,,,5755c957eb80c4000741a9ce,2023-08-16_08h40.11.475,HF_wild_card,2022.2.4,Win32,59.97001499,5755c957eb80c4000741a9ce,64d2fd46c836a06233681665,64dc7be9cf99e74298b5d48a,,,,,,,decisionTrl,resources/DP.BMP,resources/DR.BMP,Door3,0.341666667,-0.014814815,1,0,0,0.5991,optionRight,70,5760,3,14,0,14,0,1,,,,,,,,,,,,,,,,,,,,,,,,,,,,,,,,,,,,,,,
,,,,,,,5755c957eb80c4000741a9ce,2023-08-16_08h40.11.475,HF_wild_card,2022.2.4,Win32,59.97001499,5755c957eb80c4000741a9ce,64d2fd46c836a06233681665,64dc7be9cf99e74298b5d48a,,,,,,,sngl,resources/Empty.png,resources/DG.BMP,WildCard_NonEx,0.232407407,-0.002777778,1,0,0,0.6983,optionRight,45,5805,3,15,0,15,0,1,,,,,,,,,,,,,,,,,,,,,,,,,,,,,,,,,,,,,,,
,,,,,,,5755c957eb80c4000741a9ce,2023-08-16_08h40.11.475,HF_wild_card,2022.2.4,Win32,59.97001499,5755c957eb80c4000741a9ce,64d2fd46c836a06233681665,64dc7be9cf99e74298b5d48a,,,,,,,decisionTrl,resources/DG.BMP,resources/DY.BMP,WildCard_NonEx,-0.34537037,-0.036111111,1,0,0,1.0985,optionLeft,55,5860,3,16,0,16,0,1,,,,,,,,,,,,,,,,,,,,,,,,,,,,,,,,,,,,,,,
,,,,,,,5755c957eb80c4000741a9ce,2023-08-16_08h40.11.475,HF_wild_card,2022.2.4,Win32,59.97001499,5755c957eb80c4000741a9ce,64d2fd46c836a06233681665,64dc7be9cf99e74298b5d48a,,,,,,,decisionTrl,resources/DG.BMP,resources/DR.BMP,Door3,0.258333333,-0.013888889,1,0,0,0.5648,optionRight,70,5930,3,17,0,17,0,1,,,,,,,,,,,,,,,,,,,,,,,,,,,,,,,,,,,,,,,
,,,,,,,5755c957eb80c4000741a9ce,2023-08-16_08h40.11.475,HF_wild_card,2022.2.4,Win32,59.97001499,5755c957eb80c4000741a9ce,64d2fd46c836a06233681665,64dc7be9cf99e74298b5d48a,,,,,,,decisionTrl,resources/DY.BMP,resources/DB.BMP,Door1,0.244444444,-0.013888889,1,0,0,0.8818,optionRight,30,5960,3,18,0,18,0,1,,,,,,,,,,,,,,,,,,,,,,,,,,,,,,,,,,,,,,,
,,,,,,,5755c957eb80c4000741a9ce,2023-08-16_08h40.11.475,HF_wild_card,2022.2.4,Win32,59.97001499,5755c957eb80c4000741a9ce,64d2fd46c836a06233681665,64dc7be9cf99e74298b5d48a,,,,,,,decisionTrl,resources/DR.BMP,resources/DP.BMP,Door4,0.34537037,-0.016666667,1,0,0,0.6985,optionRight,80,6040,3,19,0,19,0,1,,,,,,,,,,,,,,,,,,,,,,,,,,,,,,,,,,,,,,,
,,,,,,,5755c957eb80c4000741a9ce,2023-08-16_08h40.11.475,HF_wild_card,2022.2.4,Win32,59.97001499,5755c957eb80c4000741a9ce,64d2fd46c836a06233681665,64dc7be9cf99e74298b5d48a,,,,,,,decisionTrl,resources/DY.BMP,resources/DG.BMP,WildCard_NonEx,0.25462963,-0.012962963,1,0,0,1.7316,optionRight,45,6085,3,20,0,20,0,1,,,,,,,,,,,,,,,,,,,,,,,,,,,,,,,,,,,,,,,
,,,,,,,5755c957eb80c4000741a9ce,2023-08-16_08h40.11.475,HF_wild_card,2022.2.4,Win32,59.97001499,5755c957eb80c4000741a9ce,64d2fd46c836a06233681665,64dc7be9cf99e74298b5d48a,,,,,,,sngl,resources/DG.BMP,resources/Empty.png,WildCard_NonEx,-0.306481481,-0.037037037,1,0,0,0.4981,optionLeft,45,6130,3,21,0,21,0,1,,,,,,,,,,,,,,,,,,,,,,,,,,,,,,,,,,,,,,,
,,,,,,,5755c957eb80c4000741a9ce,2023-08-16_08h40.11.475,HF_wild_card,2022.2.4,Win32,59.97001499,5755c957eb80c4000741a9ce,64d2fd46c836a06233681665,64dc7be9cf99e74298b5d48a,,,,,,,decisionTrl,resources/DY.BMP,resources/DB.BMP,Door1,0.259259259,-0.017592593,1,0,0,0.9653,optionRight,30,6160,3,22,0,22,0,1,,,,,,,,,,,,,,,,,,,,,,,,,,,,,,,,,,,,,,,
,,,,,,,5755c957eb80c4000741a9ce,2023-08-16_08h40.11.475,HF_wild_card,2022.2.4,Win32,59.97001499,5755c957eb80c4000741a9ce,64d2fd46c836a06233681665,64dc7be9cf99e74298b5d48a,,,,,,,sngl,resources/Empty.png,resources/DB.BMP,Door1,0.249074074,-0.011111111,1,0,0,0.4811,optionRight,30,6190,3,23,0,23,0,1,,,,,,,,,,,,,,,,,,,,,,,,,,,,,,,,,,,,,,,
,,,,,,,5755c957eb80c4000741a9ce,2023-08-16_08h40.11.475,HF_wild_card,2022.2.4,Win32,59.97001499,5755c957eb80c4000741a9ce,64d2fd46c836a06233681665,64dc7be9cf99e74298b5d48a,,,,,,,decisionTrl,resources/DB.BMP,resources/DY.BMP,Door2,0.327777778,-0.013888889,1,0,0,1.0485,optionRight,40,6230,3,24,0,24,0,1,,,,,,,,,,,,,,,,,,,,,,,,,,,,,,,,,,,,,,,
,,,,,,,5755c957eb80c4000741a9ce,2023-08-16_08h40.11.475,HF_wild_card,2022.2.4,Win32,59.97001499,5755c957eb80c4000741a9ce,64d2fd46c836a06233681665,64dc7be9cf99e74298b5d48a,,,,,,,sngl,resources/Empty.png,resources/DG.BMP,WildCard_NonEx,0.341666667,-0.019444444,1,0,0,0.5474,optionRight,55,6285,3,25,0,25,0,1,,,,,,,,,,,,,,,,,,,,,,,,,,,,,,,,,,,,,,,
,,,,,,,5755c957eb80c4000741a9ce,2023-08-16_08h40.11.475,HF_wild_card,2022.2.4,Win32,59.97001499,5755c957eb80c4000741a9ce,64d2fd46c836a06233681665,64dc7be9cf99e74298b5d48a,,,,,,,sngl,resources/DB.BMP,resources/Empty.png,Door1,-0.34537037,-0.009259259,1,0,0,0.4816,optionLeft,30,6315,3,26,0,26,0,1,,,,,,,,,,,,,,,,,,,,,,,,,,,,,,,,,,,,,,,
,,,,,,,5755c957eb80c4000741a9ce,2023-08-16_08h40.11.475,HF_wild_card,2022.2.4,Win32,59.97001499,5755c957eb80c4000741a9ce,64d2fd46c836a06233681665,64dc7be9cf99e74298b5d48a,,,,,,,ctch,resources/DY.BMP,resources/DR.BMP,Door3,0.261111111,-0.012037037,1,0,0,0.4975,optionRight,70,6385,3,27,0,27,0,1,,,,,,,,,,,,,,,,,,,,,,,,,,,,,,,,,,,,,,,
,,,,,,,5755c957eb80c4000741a9ce,2023-08-16_08h40.11.475,HF_wild_card,2022.2.4,Win32,59.97001499,5755c957eb80c4000741a9ce,64d2fd46c836a06233681665,64dc7be9cf99e74298b5d48a,,,,,,,sngl,resources/Empty.png,resources/DP.BMP,Door4,0.230555556,-0.012962963,1,0,0,0.4484,optionRight,60,6445,3,28,0,28,0,1,,,,,,,,,,,,,,,,,,,,,,,,,,,,,,,,,,,,,,,
,,,,,,,5755c957eb80c4000741a9ce,2023-08-16_08h40.11.475,HF_wild_card,2022.2.4,Win32,59.97001499,5755c957eb80c4000741a9ce,64d2fd46c836a06233681665,64dc7be9cf99e74298b5d48a,,,,,,,sngl,resources/Empty.png,resources/DR.BMP,Door3,0.236111111,0.003703704,1,0,0,0.432,optionRight,70,6515,3,29,0,29,0,1,,,,,,,,,,,,,,,,,,,,,,,,,,,,,,,,,,,,,,,
,,,,,,,5755c957eb80c4000741a9ce,2023-08-16_08h40.11.475,HF_wild_card,2022.2.4,Win32,59.97001499,5755c957eb80c4000741a9ce,64d2fd46c836a06233681665,64dc7be9cf99e74298b5d48a,,,,,,,decisionTrl,resources/DB.BMP,resources/DG.BMP,WildCard_NonEx,0.316666667,0.006481481,1,0,0,0.9648,optionRight,45,6560,3,30,0,30,0,1,,,,,,,,,,,,,,,,,,,,,,,,,,,,,,,,,,,,,,,
,,,,,,,5755c957eb80c4000741a9ce,2023-08-16_08h40.11.475,HF_wild_card,2022.2.4,Win32,59.97001499,5755c957eb80c4000741a9ce,64d2fd46c836a06233681665,64dc7be9cf99e74298b5d48a,,,,,,,decisionTrl,resources/DR.BMP,resources/DP.BMP,Door3,-0.480555556,-0.060185185,1,0,0,0.681,optionLeft,70,6630,3,31,0,31,0,1,,,,,,,,,,,,,,,,,,,,,,,,,,,,,,,,,,,,,,,
,,,,,,,5755c957eb80c4000741a9ce,2023-08-16_08h40.11.475,HF_wild_card,2022.2.4,Win32,59.97001499,5755c957eb80c4000741a9ce,64d2fd46c836a06233681665,64dc7be9cf99e74298b5d48a,,,,,,,decisionTrl,resources/DR.BMP,resources/DG.BMP,Door3,-0.292592593,-0.049074074,1,0,0,0.4317,optionLeft,70,6700,3,32,0,32,0,1,,,,,,,,,,,,,,,,,,,,,,,,,,,,,,,,,,,,,,,
,,,,,,,5755c957eb80c4000741a9ce,2023-08-16_08h40.11.475,HF_wild_card,2022.2.4,Win32,59.97001499,5755c957eb80c4000741a9ce,64d2fd46c836a06233681665,64dc7be9cf99e74298b5d48a,,,,,,,decisionTrl,resources/DR.BMP,resources/DP.BMP,Door3,-0.362962963,-0.028703704,1,0,0,0.4654,optionLeft,70,6770,3,33,0,33,0,1,,,,,,,,,,,,,,,,,,,,,,,,,,,,,,,,,,,,,,,
,,,,,,,5755c957eb80c4000741a9ce,2023-08-16_08h40.11.475,HF_wild_card,2022.2.4,Win32,59.97001499,5755c957eb80c4000741a9ce,64d2fd46c836a06233681665,64dc7be9cf99e74298b5d48a,,,,,,,ctch,resources/DP.BMP,resources/DB.BMP,Door4,-0.256481481,-0.027777778,1,0,0,0.4819,optionLeft,60,6830,3,34,0,34,0,1,,,,,,,,,,,,,,,,,,,,,,,,,,,,,,,,,,,,,,,
,,,,,,,5755c957eb80c4000741a9ce,2023-08-16_08h40.11.475,HF_wild_card,2022.2.4,Win32,59.97001499,5755c957eb80c4000741a9ce,64d2fd46c836a06233681665,64dc7be9cf99e74298b5d48a,,,,,,,decisionTrl,resources/DG.BMP,resources/DB.BMP,Door1,0.241666667,-0.012037037,1,0,0,0.6484,optionRight,30,6860,3,35,0,35,0,1,,,,,,,,,,,,,,,,,,,,,,,,,,,,,,,,,,,,,,,
,,,,,,,5755c957eb80c4000741a9ce,2023-08-16_08h40.11.475,HF_wild_card,2022.2.4,Win32,59.97001499,5755c957eb80c4000741a9ce,64d2fd46c836a06233681665,64dc7be9cf99e74298b5d48a,,,,,,,ctch,resources/DB.BMP,resources/DP.BMP,Door4,0.305555556,-0.017592593,1,0,0,0.7146,optionRight,80,6940,3,36,0,36,0,1,,,,,,,,,,,,,,,,,,,,,,,,,,,,,,,,,,,,,,,
,,,,,,,5755c957eb80c4000741a9ce,2023-08-16_08h40.11.475,HF_wild_card,2022.2.4,Win32,59.97001499,5755c957eb80c4000741a9ce,64d2fd46c836a06233681665,64dc7be9cf99e74298b5d48a,,,,,,,decisionTrl,resources/DB.BMP,resources/DY.BMP,Door1,-0.337962963,-0.053703704,1,0,0,1.2317,optionLeft,30,6970,3,37,0,37,0,1,,,,,,,,,,,,,,,,,,,,,,,,,,,,,,,,,,,,,,,
,,,,,,,5755c957eb80c4000741a9ce,2023-08-16_08h40.11.475,HF_wild_card,2022.2.4,Win32,59.97001499,5755c957eb80c4000741a9ce,64d2fd46c836a06233681665,64dc7be9cf99e74298b5d48a,,,,,,,sngl,resources/DP.BMP,resources/Empty.png,Door4,-0.259259259,-0.027777778,1,0,0,0.448,optionLeft,80,7050,3,38,0,38,0,1,,,,,,,,,,,,,,,,,,,,,,,,,,,,,,,,,,,,,,,
,,,,,,,5755c957eb80c4000741a9ce,2023-08-16_08h40.11.475,HF_wild_card,2022.2.4,Win32,59.97001499,5755c957eb80c4000741a9ce,64d2fd46c836a06233681665,64dc7be9cf99e74298b5d48a,,,,,,,decisionTrl,resources/DP.BMP,resources/DR.BMP,Door4,-0.32037037,-0.059259259,1,0,0,0.6151,optionLeft,80,7130,3,39,0,39,0,1,,,,,,,,,,,,,,,,,,,,,,,,,,,,,,,,,,,,,,,
,,,,,,,5755c957eb80c4000741a9ce,2023-08-16_08h40.11.475,HF_wild_card,2022.2.4,Win32,59.97001499,5755c957eb80c4000741a9ce,64d2fd46c836a06233681665,64dc7be9cf99e74298b5d48a,,,,,,,ctch,resources/DR.BMP,resources/DY.BMP,Door3,-0.382407407,-0.041666667,1,0,0,0.5147,optionLeft,70,7200,3,40,0,40,0,1,,,,,,,,,,,,,,,,,,,,,,,,,,,,,,,,,,,,,,,
,,,,,,,5755c957eb80c4000741a9ce,2023-08-16_08h40.11.475,HF_wild_card,2022.2.4,Win32,59.97001499,5755c957eb80c4000741a9ce,64d2fd46c836a06233681665,64dc7be9cf99e74298b5d48a,,,,,,,sngl,resources/DY.BMP,resources/Empty.png,Door2,-0.306481481,-0.050925926,1,0,0,0.5151,optionLeft,40,7240,3,41,0,41,0,1,,,,,,,,,,,,,,,,,,,,,,,,,,,,,,,,,,,,,,,
,,,,,,,5755c957eb80c4000741a9ce,2023-08-16_08h40.11.475,HF_wild_card,2022.2.4,Win32,59.97001499,5755c957eb80c4000741a9ce,64d2fd46c836a06233681665,64dc7be9cf99e74298b5d48a,,,,,,,decisionTrl,resources/DB.BMP,resources/DY.BMP,Door2,0.281481481,-0.013888889,1,0,0,0.5653,optionRight,40,7280,3,42,0,42,0,1,,,,,,,,,,,,,,,,,,,,,,,,,,,,,,,,,,,,,,,
,,,,,,,5755c957eb80c4000741a9ce,2023-08-16_08h40.11.475,HF_wild_card,2022.2.4,Win32,59.97001499,5755c957eb80c4000741a9ce,64d2fd46c836a06233681665,64dc7be9cf99e74298b5d48a,,,,,,,decisionTrl,resources/DY.BMP,resources/DB.BMP,Door2,-0.234259259,-0.046296296,1,0,0,1.0978,optionLeft,20,7300,3,43,0,43,0,1,,,,,,,,,,,,,,,,,,,,,,,,,,,,,,,,,,,,,,,
,,,,,,,5755c957eb80c4000741a9ce,2023-08-16_08h40.11.475,HF_wild_card,2022.2.4,Win32,59.97001499,5755c957eb80c4000741a9ce,64d2fd46c836a06233681665,64dc7be9cf99e74298b5d48a,,,,,,,,,,,,,,,,,,,,,,,,,,2,0,2,0,1,,,,,,,,,,,,,,,,,,,,,,,,,,,,,,,,,,
,,,,,,,5755c957eb80c4000741a9ce,2023-08-16_08h40.11.475,HF_wild_card,2022.2.4,Win32,59.97001499,5755c957eb80c4000741a9ce,64d2fd46c836a06233681665,64dc7be9cf99e74298b5d48a,,,,,,,decisionTrl,resources/DP.BMP,resources/DR.BMP,Door4,-0.371296296,-0.087962963,1,0,0,0.814,optionLeft,60,7360,4,0,0,0,0,1,,,,,,,,,,,,,,,,,,,,,,,,,,,,,,,,,,,,,,,
,,,,,,,5755c957eb80c4000741a9ce,2023-08-16_08h40.11.475,HF_wild_card,2022.2.4,Win32,59.97001499,5755c957eb80c4000741a9ce,64d2fd46c836a06233681665,64dc7be9cf99e74298b5d48a,,,,,,,decisionTrl,resources/DR.BMP,resources/DP.BMP,Door3,-0.309259259,-0.026851852,1,0,0,0.4985,optionLeft,70,7430,4,1,0,1,0,1,,,,,,,,,,,,,,,,,,,,,,,,,,,,,,,,,,,,,,,
,,,,,,,5755c957eb80c4000741a9ce,2023-08-16_08h40.11.475,HF_wild_card,2022.2.4,Win32,59.97001499,5755c957eb80c4000741a9ce,64d2fd46c836a06233681665,64dc7be9cf99e74298b5d48a,,,,,,,decisionTrl,resources/DY.BMP,resources/DB.BMP,Door2,-0.317592593,-0.030555556,1,0,0,0.5982,optionLeft,40,7470,4,2,0,2,0,1,,,,,,,,,,,,,,,,,,,,,,,,,,,,,,,,,,,,,,,
,,,,,,,5755c957eb80c4000741a9ce,2023-08-16_08h40.11.475,HF_wild_card,2022.2.4,Win32,59.97001499,5755c957eb80c4000741a9ce,64d2fd46c836a06233681665,64dc7be9cf99e74298b5d48a,,,,,,,decisionTrl,resources/DY.BMP,resources/DBN.BMP,WildCard_Ex,0.298148148,-0.033333333,1,0,0,1.0979,optionRight,45,7515,4,3,0,3,0,1,,,,,,,,,,,,,,,,,,,,,,,,,,,,,,,,,,,,,,,
,,,,,,,5755c957eb80c4000741a9ce,2023-08-16_08h40.11.475,HF_wild_card,2022.2.4,Win32,59.97001499,5755c957eb80c4000741a9ce,64d2fd46c836a06233681665,64dc7be9cf99e74298b5d48a,,,,,,,ctch,resources/DP.BMP,resources/DB.BMP,Door4,-0.287962963,-0.043518519,1,0,0,0.6663,optionLeft,80,7595,4,4,0,4,0,1,,,,,,,,,,,,,,,,,,,,,,,,,,,,,,,,,,,,,,,
,,,,,,,5755c957eb80c4000741a9ce,2023-08-16_08h40.11.475,HF_wild_card,2022.2.4,Win32,59.97001499,5755c957eb80c4000741a9ce,64d2fd46c836a06233681665,64dc7be9cf99e74298b5d48a,,,,,,,decisionTrl,resources/DP.BMP,resources/DR.BMP,Door4,-0.310185185,-0.035185185,1,0,0,0.4983,optionLeft,60,7655,4,5,0,5,0,1,,,,,,,,,,,,,,,,,,,,,,,,,,,,,,,,,,,,,,,
,,,,,,,5755c957eb80c4000741a9ce,2023-08-16_08h40.11.475,HF_wild_card,2022.2.4,Win32,59.97001499,5755c957eb80c4000741a9ce,64d2fd46c836a06233681665,64dc7be9cf99e74298b5d48a,,,,,,,ctch,resources/DR.BMP,resources/DY.BMP,Door3,-0.303703704,-0.012037037,1,0,0,0.5489,optionLeft,70,7725,4,6,0,6,0,1,,,,,,,,,,,,,,,,,,,,,,,,,,,,,,,,,,,,,,,
,,,,,,,5755c957eb80c4000741a9ce,2023-08-16_08h40.11.475,HF_wild_card,2022.2.4,Win32,59.97001499,5755c957eb80c4000741a9ce,64d2fd46c836a06233681665,64dc7be9cf99e74298b5d48a,,,,,,,sngl,resources/DB.BMP,resources/Empty.png,Door1,-0.32037037,-0.036111111,1,0,0,0.6312,optionLeft,30,7755,4,7,0,7,0,1,,,,,,,,,,,,,,,,,,,,,,,,,,,,,,,,,,,,,,,
,,,,,,,5755c957eb80c4000741a9ce,2023-08-16_08h40.11.475,HF_wild_card,2022.2.4,Win32,59.97001499,5755c957eb80c4000741a9ce,64d2fd46c836a06233681665,64dc7be9cf99e74298b5d48a,,,,,,,sngl,resources/DP.BMP,resources/Empty.png,Door4,-0.366666667,-0.021296296,1,0,0,0.4987,optionLeft,60,7815,4,8,0,8,0,1,,,,,,,,,,,,,,,,,,,,,,,,,,,,,,,,,,,,,,,
,,,,,,,5755c957eb80c4000741a9ce,2023-08-16_08h40.11.475,HF_wild_card,2022.2.4,Win32,59.97001499,5755c957eb80c4000741a9ce,64d2fd46c836a06233681665,64dc7be9cf99e74298b5d48a,,,,,,,sngl,resources/DR.BMP,resources/Empty.png,Door3,-0.30462963,-0.027777778,1,0,0,0.4816,optionLeft,70,7885,4,9,0,9,0,1,,,,,,,,,,,,,,,,,,,,,,,,,,,,,,,,,,,,,,,
,,,,,,,5755c957eb80c4000741a9ce,2023-08-16_08h40.11.475,HF_wild_card,2022.2.4,Win32,59.97001499,5755c957eb80c4000741a9ce,64d2fd46c836a06233681665,64dc7be9cf99e74298b5d48a,,,,,,,decisionTrl,resources/DY.BMP,resources/DB.BMP,Door1,0.336111111,-0.037037037,1,0,0,1.4815,optionRight,30,7915,4,10,0,10,0,1,,,,,,,,,,,,,,,,,,,,,,,,,,,,,,,,,,,,,,,
,,,,,,,5755c957eb80c4000741a9ce,2023-08-16_08h40.11.475,HF_wild_card,2022.2.4,Win32,59.97001499,5755c957eb80c4000741a9ce,64d2fd46c836a06233681665,64dc7be9cf99e74298b5d48a,,,,,,,ctch,resources/DY.BMP,resources/DR.BMP,Door3,0.258333333,-0.024074074,1,0,0,0.9824,optionRight,70,7985,4,11,0,11,0,1,,,,,,,,,,,,,,,,,,,,,,,,,,,,,,,,,,,,,,,
,,,,,,,5755c957eb80c4000741a9ce,2023-08-16_08h40.11.475,HF_wild_card,2022.2.4,Win32,59.97001499,5755c957eb80c4000741a9ce,64d2fd46c836a06233681665,64dc7be9cf99e74298b5d48a,,,,,,,sngl,resources/Empty.png,resources/DBN.BMP,WildCard_Ex,0.342592593,-0.028703704,1,0,0,0.7148,optionRight,55,8040,4,12,0,12,0,1,,,,,,,,,,,,,,,,,,,,,,,,,,,,,,,,,,,,,,,
,,,,,,,5755c957eb80c4000741a9ce,2023-08-16_08h40.11.475,HF_wild_card,2022.2.4,Win32,59.97001499,5755c957eb80c4000741a9ce,64d2fd46c836a06233681665,64dc7be9cf99e74298b5d48a,,,,,,,decisionTrl,resources/DR.BMP,resources/DP.BMP,Door3,-0.293518519,-0.02962963,1,0,0,1.0811,optionLeft,70,8110,4,13,0,13,0,1,,,,,,,,,,,,,,,,,,,,,,,,,,,,,,,,,,,,,,,
,,,,,,,5755c957eb80c4000741a9ce,2023-08-16_08h40.11.475,HF_wild_card,2022.2.4,Win32,59.97001499,5755c957eb80c4000741a9ce,64d2fd46c836a06233681665,64dc7be9cf99e74298b5d48a,,,,,,,sngl,resources/Empty.png,resources/DBN.BMP,WildCard_Ex,0.262962963,-0.008333333,1,0,0,0.532,optionRight,45,8155,4,14,0,14,0,1,,,,,,,,,,,,,,,,,,,,,,,,,,,,,,,,,,,,,,,
,,,,,,,5755c957eb80c4000741a9ce,2023-08-16_08h40.11.475,HF_wild_card,2022.2.4,Win32,59.97001499,5755c957eb80c4000741a9ce,64d2fd46c836a06233681665,64dc7be9cf99e74298b5d48a,,,,,,,decisionTrl,resources/DP.BMP,resources/DR.BMP,Door4,-0.262962963,-0.017592593,1,0,0,0.5981,optionLeft,60,8215,4,15,0,15,0,1,,,,,,,,,,,,,,,,,,,,,,,,,,,,,,,,,,,,,,,
,,,,,,,5755c957eb80c4000741a9ce,2023-08-16_08h40.11.475,HF_wild_card,2022.2.4,Win32,59.97001499,5755c957eb80c4000741a9ce,64d2fd46c836a06233681665,64dc7be9cf99e74298b5d48a,,,,,,,decisionTrl,resources/DB.BMP,resources/DY.BMP,Door1,-0.315740741,-0.002777778,1,0,0,0.9989,optionLeft,30,8245,4,16,0,16,0,1,,,,,,,,,,,,,,,,,,,,,,,,,,,,,,,,,,,,,,,
,,,,,,,5755c957eb80c4000741a9ce,2023-08-16_08h40.11.475,HF_wild_card,2022.2.4,Win32,59.97001499,5755c957eb80c4000741a9ce,64d2fd46c836a06233681665,64dc7be9cf99e74298b5d48a,,,,,,,decisionTrl,resources/DBN.BMP,resources/DB.BMP,WildCard_Ex,-0.349074074,-0.012037037,1,0,0,0.8984,optionLeft,55,8300,4,17,0,17,0,1,,,,,,,,,,,,,,,,,,,,,,,,,,,,,,,,,,,,,,,
,,,,,,,5755c957eb80c4000741a9ce,2023-08-16_08h40.11.475,HF_wild_card,2022.2.4,Win32,59.97001499,5755c957eb80c4000741a9ce,64d2fd46c836a06233681665,64dc7be9cf99e74298b5d48a,,,,,,,decisionTrl,resources/DB.BMP,resources/DY.BMP,Door1,-0.407407407,-0.008333333,1,0,0,0.782,optionLeft,30,8330,4,18,0,18,0,1,,,,,,,,,,,,,,,,,,,,,,,,,,,,,,,,,,,,,,,
,,,,,,,5755c957eb80c4000741a9ce,2023-08-16_08h40.11.475,HF_wild_card,2022.2.4,Win32,59.97001499,5755c957eb80c4000741a9ce,64d2fd46c836a06233681665,64dc7be9cf99e74298b5d48a,,,,,,,decisionTrl,resources/DY.BMP,resources/DB.BMP,Door2,-0.240740741,-0.02037037,1,0,0,0.4652,optionLeft,20,8350,4,19,0,19,0,1,,,,,,,,,,,,,,,,,,,,,,,,,,,,,,,,,,,,,,,
,,,,,,,5755c957eb80c4000741a9ce,2023-08-16_08h40.11.475,HF_wild_card,2022.2.4,Win32,59.97001499,5755c957eb80c4000741a9ce,64d2fd46c836a06233681665,64dc7be9cf99e74298b5d48a,,,,,,,ctch,resources/DB.BMP,resources/DP.BMP,Door4,0.312037037,-0.056481481,1,0,0,0.6152,optionRight,60,8410,4,20,0,20,0,1,,,,,,,,,,,,,,,,,,,,,,,,,,,,,,,,,,,,,,,
,,,,,,,5755c957eb80c4000741a9ce,2023-08-16_08h40.11.475,HF_wild_card,2022.2.4,Win32,59.97001499,5755c957eb80c4000741a9ce,64d2fd46c836a06233681665,64dc7be9cf99e74298b5d48a,,,,,,,decisionTrl,resources/DR.BMP,resources/DBN.BMP,Door3,-0.327777778,-0.026851852,1,0,0,0.4315,optionLeft,70,8480,4,21,0,21,0,1,,,,,,,,,,,,,,,,,,,,,,,,,,,,,,,,,,,,,,,
,,,,,,,5755c957eb80c4000741a9ce,2023-08-16_08h40.11.475,HF_wild_card,2022.2.4,Win32,59.97001499,5755c957eb80c4000741a9ce,64d2fd46c836a06233681665,64dc7be9cf99e74298b5d48a,,,,,,,decisionTrl,resources/DB.BMP,resources/DBN.BMP,WildCard_Ex,0.237962963,-0.026851852,1,0,0,0.8818,optionRight,45,8525,4,22,0,22,0,1,,,,,,,,,,,,,,,,,,,,,,,,,,,,,,,,,,,,,,,
,,,,,,,5755c957eb80c4000741a9ce,2023-08-16_08h40.11.475,HF_wild_card,2022.2.4,Win32,59.97001499,5755c957eb80c4000741a9ce,64d2fd46c836a06233681665,64dc7be9cf99e74298b5d48a,,,,,,,sngl,resources/DBN.BMP,resources/Empty.png,WildCard_Ex,-0.258333333,-0.001851852,1,0,0,0.4649,optionLeft,55,8580,4,23,0,23,0,1,,,,,,,,,,,,,,,,,,,,,,,,,,,,,,,,,,,,,,,
,,,,,,,5755c957eb80c4000741a9ce,2023-08-16_08h40.11.475,HF_wild_card,2022.2.4,Win32,59.97001499,5755c957eb80c4000741a9ce,64d2fd46c836a06233681665,64dc7be9cf99e74298b5d48a,,,,,,,ctch,resources/DB.BMP,resources/DP.BMP,Door4,0.228703704,-0.036111111,1,0,0,0.4991,optionRight,60,8640,4,24,0,24,0,1,,,,,,,,,,,,,,,,,,,,,,,,,,,,,,,,,,,,,,,
,,,,,,,5755c957eb80c4000741a9ce,2023-08-16_08h40.11.475,HF_wild_card,2022.2.4,Win32,59.97001499,5755c957eb80c4000741a9ce,64d2fd46c836a06233681665,64dc7be9cf99e74298b5d48a,,,,,,,sngl,resources/Empty.png,resources/DP.BMP,Door4,0.173148148,-0.023148148,1,0,0,0.4319,optionRight,80,8720,4,25,0,25,0,1,,,,,,,,,,,,,,,,,,,,,,,,,,,,,,,,,,,,,,,
,,,,,,,5755c957eb80c4000741a9ce,2023-08-16_08h40.11.475,HF_wild_card,2022.2.4,Win32,59.97001499,5755c957eb80c4000741a9ce,64d2fd46c836a06233681665,64dc7be9cf99e74298b5d48a,,,,,,,decisionTrl,resources/DY.BMP,resources/DB.BMP,Door1,0.258333333,-0.032407407,1,0,0,0.8147,optionRight,30,8750,4,26,0,26,0,1,,,,,,,,,,,,,,,,,,,,,,,,,,,,,,,,,,,,,,,
,,,,,,,5755c957eb80c4000741a9ce,2023-08-16_08h40.11.475,HF_wild_card,2022.2.4,Win32,59.97001499,5755c957eb80c4000741a9ce,64d2fd46c836a06233681665,64dc7be9cf99e74298b5d48a,,,,,,,ctch,resources/DR.BMP,resources/DY.BMP,Door3,-0.318518519,0.003703704,1,0,0,0.765,optionLeft,70,8820,4,27,0,27,0,1,,,,,,,,,,,,,,,,,,,,,,,,,,,,,,,,,,,,,,,
,,,,,,,5755c957eb80c4000741a9ce,2023-08-16_08h40.11.475,HF_wild_card,2022.2.4,Win32,59.97001499,5755c957eb80c4000741a9ce,64d2fd46c836a06233681665,64dc7be9cf99e74298b5d48a,,,,,,,sngl,resources/Empty.png,resources/DR.BMP,Door3,0.200925926,-0.012037037,1,0,0,0.4315,optionRight,70,8890,4,28,0,28,0,1,,,,,,,,,,,,,,,,,,,,,,,,,,,,,,,,,,,,,,,
,,,,,,,5755c957eb80c4000741a9ce,2023-08-16_08h40.11.475,HF_wild_card,2022.2.4,Win32,59.97001499,5755c957eb80c4000741a9ce,64d2fd46c836a06233681665,64dc7be9cf99e74298b5d48a,,,,,,,sngl,resources/DY.BMP,resources/Empty.png,Door2,-0.282407407,0.002777778,1,0,0,0.515,optionLeft,20,8910,4,29,0,29,0,1,,,,,,,,,,,,,,,,,,,,,,,,,,,,,,,,,,,,,,,
,,,,,,,5755c957eb80c4000741a9ce,2023-08-16_08h40.11.475,HF_wild_card,2022.2.4,Win32,59.97001499,5755c957eb80c4000741a9ce,64d2fd46c836a06233681665,64dc7be9cf99e74298b5d48a,,,,,,,decisionTrl,resources/DB.BMP,resources/DY.BMP,Door1,-0.168518519,-0.025,1,0,0,0.8978,optionLeft,30,8940,4,30,0,30,0,1,,,,,,,,,,,,,,,,,,,,,,,,,,,,,,,,,,,,,,,
,,,,,,,5755c957eb80c4000741a9ce,2023-08-16_08h40.11.475,HF_wild_card,2022.2.4,Win32,59.97001499,5755c957eb80c4000741a9ce,64d2fd46c836a06233681665,64dc7be9cf99e74298b5d48a,,,,,,,ctch,resources/DP.BMP,resources/DB.BMP,Door4,-0.224074074,-0.052777778,1,0,0,0.5653,optionLeft,60,9000,4,31,0,31,0,1,,,,,,,,,,,,,,,,,,,,,,,,,,,,,,,,,,,,,,,
,,,,,,,5755c957eb80c4000741a9ce,2023-08-16_08h40.11.475,HF_wild_card,2022.2.4,Win32,59.97001499,5755c957eb80c4000741a9ce,64d2fd46c836a06233681665,64dc7be9cf99e74298b5d48a,,,,,,,sngl,resources/Empty.png,resources/DB.BMP,Door1,0.274074074,-0.02962963,1,0,0,0.4649,optionRight,30,9030,4,32,0,32,0,1,,,,,,,,,,,,,,,,,,,,,,,,,,,,,,,,,,,,,,,
,,,,,,,5755c957eb80c4000741a9ce,2023-08-16_08h40.11.475,HF_wild_card,2022.2.4,Win32,59.97001499,5755c957eb80c4000741a9ce,64d2fd46c836a06233681665,64dc7be9cf99e74298b5d48a,,,,,,,decisionTrl,resources/DP.BMP,resources/DR.BMP,Door3,0.275,-0.042592593,1,0,0,0.5482,optionRight,70,9100,4,33,0,33,0,1,,,,,,,,,,,,,,,,,,,,,,,,,,,,,,,,,,,,,,,
,,,,,,,5755c957eb80c4000741a9ce,2023-08-16_08h40.11.475,HF_wild_card,2022.2.4,Win32,59.97001499,5755c957eb80c4000741a9ce,64d2fd46c836a06233681665,64dc7be9cf99e74298b5d48a,,,,,,,decisionTrl,resources/DBN.BMP,resources/DR.BMP,Door3,0.184259259,-0.032407407,1,0,0,0.6485,optionRight,70,9170,4,34,0,34,0,1,,,,,,,,,,,,,,,,,,,,,,,,,,,,,,,,,,,,,,,
,,,,,,,5755c957eb80c4000741a9ce,2023-08-16_08h40.11.475,HF_wild_card,2022.2.4,Win32,59.97001499,5755c957eb80c4000741a9ce,64d2fd46c836a06233681665,64dc7be9cf99e74298b5d48a,,,,,,,decisionTrl,resources/DR.BMP,resources/DP.BMP,Door3,-0.25462963,0.00462963,1,0,0,0.4983,optionLeft,70,9240,4,35,0,35,0,1,,,,,,,,,,,,,,,,,,,,,,,,,,,,,,,,,,,,,,,
,,,,,,,5755c957eb80c4000741a9ce,2023-08-16_08h40.11.475,HF_wild_card,2022.2.4,Win32,59.97001499,5755c957eb80c4000741a9ce,64d2fd46c836a06233681665,64dc7be9cf99e74298b5d48a,,,,,,,decisionTrl,resources/DBN.BMP,resources/DP.BMP,Door4,0.239814815,-0.033333333,1,0,0,0.5981,optionRight,60,9300,4,36,0,36,0,1,,,,,,,,,,,,,,,,,,,,,,,,,,,,,,,,,,,,,,,
,,,,,,,5755c957eb80c4000741a9ce,2023-08-16_08h40.11.475,HF_wild_card,2022.2.4,Win32,59.97001499,5755c957eb80c4000741a9ce,64d2fd46c836a06233681665,64dc7be9cf99e74298b5d48a,,,,,,,sngl,resources/Empty.png,resources/DY.BMP,Door2,0.224074074,-0.012962963,1,0,0,0.4814,optionRight,40,9340,4,37,0,37,0,1,,,,,,,,,,,,,,,,,,,,,,,,,,,,,,,,,,,,,,,
,,,,,,,5755c957eb80c4000741a9ce,2023-08-16_08h40.11.475,HF_wild_card,2022.2.4,Win32,59.97001499,5755c957eb80c4000741a9ce,64d2fd46c836a06233681665,64dc7be9cf99e74298b5d48a,,,,,,,ctch,resources/DY.BMP,resources/DR.BMP,Door3,0.284259259,-0.02037037,1,0,0,0.9987,optionRight,70,9410,4,38,0,38,0,1,,,,,,,,,,,,,,,,,,,,,,,,,,,,,,,,,,,,,,,
,,,,,,,5755c957eb80c4000741a9ce,2023-08-16_08h40.11.475,HF_wild_card,2022.2.4,Win32,59.97001499,5755c957eb80c4000741a9ce,64d2fd46c836a06233681665,64dc7be9cf99e74298b5d48a,,,,,,,decisionTrl,resources/DB.BMP,resources/DY.BMP,Door1,-0.213888889,-0.016666667,1,0,0,1.0311,optionLeft,30,9440,4,39,0,39,0,1,,,,,,,,,,,,,,,,,,,,,,,,,,,,,,,,,,,,,,,
,,,,,,,5755c957eb80c4000741a9ce,2023-08-16_08h40.11.475,HF_wild_card,2022.2.4,Win32,59.97001499,5755c957eb80c4000741a9ce,64d2fd46c836a06233681665,64dc7be9cf99e74298b5d48a,,,,,,,decisionTrl,resources/DR.BMP,resources/DP.BMP,Door3,-0.284259259,-0.018518519,1,0,0,0.5481,optionLeft,70,9510,4,40,0,40,0,1,,,,,,,,,,,,,,,,,,,,,,,,,,,,,,,,,,,,,,,
,,,,,,,5755c957eb80c4000741a9ce,2023-08-16_08h40.11.475,HF_wild_card,2022.2.4,Win32,59.97001499,5755c957eb80c4000741a9ce,64d2fd46c836a06233681665,64dc7be9cf99e74298b5d48a,,,,,,,decisionTrl,resources/DBN.BMP,resources/DY.BMP,WildCard_Ex,-0.160185185,-0.022222222,1,0,0,0.7318,optionLeft,45,9555,4,41,0,41,0,1,,,,,,,,,,,,,,,,,,,,,,,,,,,,,,,,,,,,,,,
,,,,,,,5755c957eb80c4000741a9ce,2023-08-16_08h40.11.475,HF_wild_card,2022.2.4,Win32,59.97001499,5755c957eb80c4000741a9ce,64d2fd46c836a06233681665,64dc7be9cf99e74298b5d48a,,,,,,,decisionTrl,resources/DP.BMP,resources/DBN.BMP,Door4,-0.200925926,-0.038888889,1,0,0,1.0813,optionLeft,60,9615,4,42,0,42,0,1,,,,,,,,,,,,,,,,,,,,,,,,,,,,,,,,,,,,,,,
,,,,,,,5755c957eb80c4000741a9ce,2023-08-16_08h40.11.475,HF_wild_card,2022.2.4,Win32,59.97001499,5755c957eb80c4000741a9ce,64d2fd46c836a06233681665,64dc7be9cf99e74298b5d48a,,,,,,,sngl,resources/DBN.BMP,resources/Empty.png,WildCard_Ex,-0.259259259,-0.023148148,1,0,0,1.2482,optionLeft,45,9660,4,43,0,43,0,1,,,,,,,,,,,,,,,,,,,,,,,,,,,,,,,,,,,,,,,
,,,,,,,5755c957eb80c4000741a9ce,2023-08-16_08h40.11.475,HF_wild_card,2022.2.4,Win32,59.97001499,5755c957eb80c4000741a9ce,64d2fd46c836a06233681665,64dc7be9cf99e74298b5d48a,,,,,,,,,,,,,,,,,,,,,,,,,,3,0,3,0,1,,,,,,,,,,,,,,,,,,,,,,,,,,,,,,,,,,
,,,,,,,5755c957eb80c4000741a9ce,2023-08-16_08h40.11.475,HF_wild_card,2022.2.4,Win32,59.97001499,5755c957eb80c4000741a9ce,64d2fd46c836a06233681665,64dc7be9cf99e74298b5d48a,,,,,,,ctch,resources/DR.BMP,resources/DY.BMP,Door3,-0.401851852,-0.032407407,1,0,0,0.674,optionLeft,70,9730,5,0,0,0,0,1,,,,,,,,,,,,,,,,,,,,,,,,,,,,,,,,,,,,,,,
,,,,,,,5755c957eb80c4000741a9ce,2023-08-16_08h40.11.475,HF_wild_card,2022.2.4,Win32,59.97001499,5755c957eb80c4000741a9ce,64d2fd46c836a06233681665,64dc7be9cf99e74298b5d48a,,,,,,,decisionTrl,resources/DB.BMP,resources/DY.BMP,Door2,0.401851852,-0.057407407,1,0,0,0.6817,optionRight,20,9750,5,1,0,1,0,1,,,,,,,,,,,,,,,,,,,,,,,,,,,,,,,,,,,,,,,
,,,,,,,5755c957eb80c4000741a9ce,2023-08-16_08h40.11.475,HF_wild_card,2022.2.4,Win32,59.97001499,5755c957eb80c4000741a9ce,64d2fd46c836a06233681665,64dc7be9cf99e74298b5d48a,,,,,,,decisionTrl,resources/DR.BMP,resources/DP.BMP,Door3,-0.236111111,-0.040740741,1,0,0,0.6988,optionLeft,70,9820,5,2,0,2,0,1,,,,,,,,,,,,,,,,,,,,,,,,,,,,,,,,,,,,,,,
,,,,,,,5755c957eb80c4000741a9ce,2023-08-16_08h40.11.475,HF_wild_card,2022.2.4,Win32,59.97001499,5755c957eb80c4000741a9ce,64d2fd46c836a06233681665,64dc7be9cf99e74298b5d48a,,,,,,,decisionTrl,resources/DY.BMP,resources/DB.BMP,Door1,0.177777778,-0.015740741,1,0,0,0.698,optionRight,30,9850,5,3,0,3,0,1,,,,,,,,,,,,,,,,,,,,,,,,,,,,,,,,,,,,,,,
,,,,,,,5755c957eb80c4000741a9ce,2023-08-16_08h40.11.475,HF_wild_card,2022.2.4,Win32,59.97001499,5755c957eb80c4000741a9ce,64d2fd46c836a06233681665,64dc7be9cf99e74298b5d48a,,,,,,,decisionTrl,resources/DBN.BMP,resources/DY.BMP,WildCard_Ex,-0.210185185,-0.018518519,1,0,0,0.8651,optionLeft,55,9905,5,4,0,4,0,1,,,,,,,,,,,,,,,,,,,,,,,,,,,,,,,,,,,,,,,
,,,,,,,5755c957eb80c4000741a9ce,2023-08-16_08h40.11.475,HF_wild_card,2022.2.4,Win32,59.97001499,5755c957eb80c4000741a9ce,64d2fd46c836a06233681665,64dc7be9cf99e74298b5d48a,,,,,,,decisionTrl,resources/DY.BMP,resources/DB.BMP,Door1,0.202777778,-0.041666667,1,0,0,0.7147,optionRight,30,9935,5,5,0,5,0,1,,,,,,,,,,,,,,,,,,,,,,,,,,,,,,,,,,,,,,,
,,,,,,,5755c957eb80c4000741a9ce,2023-08-16_08h40.11.475,HF_wild_card,2022.2.4,Win32,59.97001499,5755c957eb80c4000741a9ce,64d2fd46c836a06233681665,64dc7be9cf99e74298b5d48a,,,,,,,decisionTrl,resources/DB.BMP,resources/DY.BMP,Door1,-0.22962963,0.001851852,1,0,0,1.0982,optionLeft,30,9965,5,6,0,6,0,1,,,,,,,,,,,,,,,,,,,,,,,,,,,,,,,,,,,,,,,
,,,,,,,5755c957eb80c4000741a9ce,2023-08-16_08h40.11.475,HF_wild_card,2022.2.4,Win32,59.97001499,5755c957eb80c4000741a9ce,64d2fd46c836a06233681665,64dc7be9cf99e74298b5d48a,,,,,,,sngl,resources/DB.BMP,resources/Empty.png,Door1,-0.238888889,-0.006481481,1,0,0,0.4984,optionLeft,30,9995,5,7,0,7,0,1,,,,,,,,,,,,,,,,,,,,,,,,,,,,,,,,,,,,,,,
,,,,,,,5755c957eb80c4000741a9ce,2023-08-16_08h40.11.475,HF_wild_card,2022.2.4,Win32,59.97001499,5755c957eb80c4000741a9ce,64d2fd46c836a06233681665,64dc7be9cf99e74298b5d48a,,,,,,,decisionTrl,resources/DP.BMP,resources/DR.BMP,Door4,-0.256481481,-0.017592593,1,0,0,0.7483,optionLeft,60,10055,5,8,0,8,0,1,,,,,,,,,,,,,,,,,,,,,,,,,,,,,,,,,,,,,,,
,,,,,,,5755c957eb80c4000741a9ce,2023-08-16_08h40.11.475,HF_wild_card,2022.2.4,Win32,59.97001499,5755c957eb80c4000741a9ce,64d2fd46c836a06233681665,64dc7be9cf99e74298b5d48a,,,,,,,sngl,resources/Empty.png,resources/DB.BMP,Door1,0.157407407,-0.040740741,1,0,0,0.4482,optionRight,30,10085,5,9,0,9,0,1,,,,,,,,,,,,,,,,,,,,,,,,,,,,,,,,,,,,,,,
,,,,,,,5755c957eb80c4000741a9ce,2023-08-16_08h40.11.475,HF_wild_card,2022.2.4,Win32,59.97001499,5755c957eb80c4000741a9ce,64d2fd46c836a06233681665,64dc7be9cf99e74298b5d48a,,,,,,,decisionTrl,resources/DB.BMP,resources/DY.BMP,Door1,-0.257407407,-0.011111111,1,0,0,1.0482,optionLeft,30,10115,5,10,0,10,0,1,,,,,,,,,,,,,,,,,,,,,,,,,,,,,,,,,,,,,,,
,,,,,,,5755c957eb80c4000741a9ce,2023-08-16_08h40.11.475,HF_wild_card,2022.2.4,Win32,59.97001499,5755c957eb80c4000741a9ce,64d2fd46c836a06233681665,64dc7be9cf99e74298b5d48a,,,,,,,decisionTrl,resources/DB.BMP,resources/DBN.BMP,WildCard_Ex,0.282407407,-0.015740741,1,0,0,0.8148,optionRight,45,10160,5,11,0,11,0,1,,,,,,,,,,,,,,,,,,,,,,,,,,,,,,,,,,,,,,,
,,,,,,,5755c957eb80c4000741a9ce,2023-08-16_08h40.11.475,HF_wild_card,2022.2.4,Win32,59.97001499,5755c957eb80c4000741a9ce,64d2fd46c836a06233681665,64dc7be9cf99e74298b5d48a,,,,,,,sngl,resources/DP.BMP,resources/Empty.png,Door4,-0.257407407,-0.011111111,1,0,0,0.4817,optionLeft,80,10240,5,12,0,12,0,1,,,,,,,,,,,,,,,,,,,,,,,,,,,,,,,,,,,,,,,
,,,,,,,5755c957eb80c4000741a9ce,2023-08-16_08h40.11.475,HF_wild_card,2022.2.4,Win32,59.97001499,5755c957eb80c4000741a9ce,64d2fd46c836a06233681665,64dc7be9cf99e74298b5d48a,,,,,,,ctch,resources/DB.BMP,resources/DP.BMP,Door4,0.237962963,-0.05,1,0,0,0.715,optionRight,60,10300,5,13,0,13,0,1,,,,,,,,,,,,,,,,,,,,,,,,,,,,,,,,,,,,,,,
,,,,,,,5755c957eb80c4000741a9ce,2023-08-16_08h40.11.475,HF_wild_card,2022.2.4,Win32,59.97001499,5755c957eb80c4000741a9ce,64d2fd46c836a06233681665,64dc7be9cf99e74298b5d48a,,,,,,,decisionTrl,resources/DR.BMP,resources/DP.BMP,Door3,-0.168518519,-0.016666667,1,0,0,0.6985,optionLeft,70,10370,5,14,0,14,0,1,,,,,,,,,,,,,,,,,,,,,,,,,,,,,,,,,,,,,,,
,,,,,,,5755c957eb80c4000741a9ce,2023-08-16_08h40.11.475,HF_wild_card,2022.2.4,Win32,59.97001499,5755c957eb80c4000741a9ce,64d2fd46c836a06233681665,64dc7be9cf99e74298b5d48a,,,,,,,ctch,resources/DR.BMP,resources/DY.BMP,Door3,-0.289814815,-0.02037037,1,0,0,0.8984,optionLeft,70,10440,5,15,0,15,0,1,,,,,,,,,,,,,,,,,,,,,,,,,,,,,,,,,,,,,,,
,,,,,,,5755c957eb80c4000741a9ce,2023-08-16_08h40.11.475,HF_wild_card,2022.2.4,Win32,59.97001499,5755c957eb80c4000741a9ce,64d2fd46c836a06233681665,64dc7be9cf99e74298b5d48a,,,,,,,decisionTrl,resources/DY.BMP,resources/DBN.BMP,WildCard_Ex,0.15,-0.047222222,1,0,0,0.7819,optionRight,45,10485,5,16,0,16,0,1,,,,,,,,,,,,,,,,,,,,,,,,,,,,,,,,,,,,,,,
,,,,,,,5755c957eb80c4000741a9ce,2023-08-16_08h40.11.475,HF_wild_card,2022.2.4,Win32,59.97001499,5755c957eb80c4000741a9ce,64d2fd46c836a06233681665,64dc7be9cf99e74298b5d48a,,,,,,,ctch,resources/DP.BMP,resources/DB.BMP,Door4,-0.217592593,-0.008333333,1,0,0,0.5319,optionLeft,80,10565,5,17,0,17,0,1,,,,,,,,,,,,,,,,,,,,,,,,,,,,,,,,,,,,,,,
,,,,,,,5755c957eb80c4000741a9ce,2023-08-16_08h40.11.475,HF_wild_card,2022.2.4,Win32,59.97001499,5755c957eb80c4000741a9ce,64d2fd46c836a06233681665,64dc7be9cf99e74298b5d48a,,,,,,,sngl,resources/DY.BMP,resources/Empty.png,Door2,-0.185185185,-0.02037037,1,0,0,0.5485,optionLeft,40,10605,5,18,0,18,0,1,,,,,,,,,,,,,,,,,,,,,,,,,,,,,,,,,,,,,,,
,,,,,,,5755c957eb80c4000741a9ce,2023-08-16_08h40.11.475,HF_wild_card,2022.2.4,Win32,59.97001499,5755c957eb80c4000741a9ce,64d2fd46c836a06233681665,64dc7be9cf99e74298b5d48a,,,,,,,sngl,resources/Empty.png,resources/DP.BMP,Door4,0.153703704,-0.016666667,1,0,0,0.4651,optionRight,60,10665,5,19,0,19,0,1,,,,,,,,,,,,,,,,,,,,,,,,,,,,,,,,,,,,,,,
,,,,,,,5755c957eb80c4000741a9ce,2023-08-16_08h40.11.475,HF_wild_card,2022.2.4,Win32,59.97001499,5755c957eb80c4000741a9ce,64d2fd46c836a06233681665,64dc7be9cf99e74298b5d48a,,,,,,,ctch,resources/DB.BMP,resources/DP.BMP,Door4,0.280555556,-0.049074074,1,0,0,0.5982,optionRight,80,10745,5,20,0,20,0,1,,,,,,,,,,,,,,,,,,,,,,,,,,,,,,,,,,,,,,,
,,,,,,,5755c957eb80c4000741a9ce,2023-08-16_08h40.11.475,HF_wild_card,2022.2.4,Win32,59.97001499,5755c957eb80c4000741a9ce,64d2fd46c836a06233681665,64dc7be9cf99e74298b5d48a,,,,,,,sngl,resources/Empty.png,resources/DBN.BMP,WildCard_Ex,0.287962963,-0.036111111,1,0,0,0.5315,optionRight,55,10800,5,21,0,21,0,1,,,,,,,,,,,,,,,,,,,,,,,,,,,,,,,,,,,,,,,
,,,,,,,5755c957eb80c4000741a9ce,2023-08-16_08h40.11.475,HF_wild_card,2022.2.4,Win32,59.97001499,5755c957eb80c4000741a9ce,64d2fd46c836a06233681665,64dc7be9cf99e74298b5d48a,,,,,,,decisionTrl,resources/DR.BMP,resources/DP.BMP,Door4,0.205555556,-0.036111111,1,0,0,0.6648,optionRight,80,10880,5,22,0,22,0,1,,,,,,,,,,,,,,,,,,,,,,,,,,,,,,,,,,,,,,,
,,,,,,,5755c957eb80c4000741a9ce,2023-08-16_08h40.11.475,HF_wild_card,2022.2.4,Win32,59.97001499,5755c957eb80c4000741a9ce,64d2fd46c836a06233681665,64dc7be9cf99e74298b5d48a,,,,,,,sngl,resources/Empty.png,resources/DR.BMP,Door3,0.225,-0.037037037,1,0,0,0.5324,optionRight,70,10950,5,23,0,23,0,1,,,,,,,,,,,,,,,,,,,,,,,,,,,,,,,,,,,,,,,
,,,,,,,5755c957eb80c4000741a9ce,2023-08-16_08h40.11.475,HF_wild_card,2022.2.4,Win32,59.97001499,5755c957eb80c4000741a9ce,64d2fd46c836a06233681665,64dc7be9cf99e74298b5d48a,,,,,,,decisionTrl,resources/DP.BMP,resources/DR.BMP,Door4,-0.250925926,0.000925926,1,0,0,0.4474,optionLeft,80,11030,5,24,0,24,0,1,,,,,,,,,,,,,,,,,,,,,,,,,,,,,,,,,,,,,,,
,,,,,,,5755c957eb80c4000741a9ce,2023-08-16_08h40.11.475,HF_wild_card,2022.2.4,Win32,59.97001499,5755c957eb80c4000741a9ce,64d2fd46c836a06233681665,64dc7be9cf99e74298b5d48a,,,,,,,sngl,resources/DBN.BMP,resources/Empty.png,WildCard_Ex,-0.131481481,-0.011111111,1,0,0,0.5487,optionLeft,55,11085,5,25,0,25,0,1,,,,,,,,,,,,,,,,,,,,,,,,,,,,,,,,,,,,,,,
,,,,,,,5755c957eb80c4000741a9ce,2023-08-16_08h40.11.475,HF_wild_card,2022.2.4,Win32,59.97001499,5755c957eb80c4000741a9ce,64d2fd46c836a06233681665,64dc7be9cf99e74298b5d48a,,,,,,,sngl,resources/DR.BMP,resources/Empty.png,Door3,-0.278703704,-0.012962963,1,0,0,0.4153,optionLeft,70,11155,5,26,0,26,0,1,,,,,,,,,,,,,,,,,,,,,,,,,,,,,,,,,,,,,,,
,,,,,,,5755c957eb80c4000741a9ce,2023-08-16_08h40.11.475,HF_wild_card,2022.2.4,Win32,59.97001499,5755c957eb80c4000741a9ce,64d2fd46c836a06233681665,64dc7be9cf99e74298b5d48a,,,,,,,decisionTrl,resources/DBN.BMP,resources/DB.BMP,WildCard_Ex,-0.347222222,0.006481481,1,0,0,0.6983,optionLeft,55,11210,5,27,0,27,0,1,,,,,,,,,,,,,,,,,,,,,,,,,,,,,,,,,,,,,,,
,,,,,,,5755c957eb80c4000741a9ce,2023-08-16_08h40.11.475,HF_wild_card,2022.2.4,Win32,59.97001499,5755c957eb80c4000741a9ce,64d2fd46c836a06233681665,64dc7be9cf99e74298b5d48a,,,,,,,decisionTrl,resources/DY.BMP,resources/DB.BMP,Door2,-0.266666667,-0.001851852,1,0,0,0.7485,optionLeft,40,11250,5,28,0,28,0,1,,,,,,,,,,,,,,,,,,,,,,,,,,,,,,,,,,,,,,,
,,,,,,,5755c957eb80c4000741a9ce,2023-08-16_08h40.11.475,HF_wild_card,2022.2.4,Win32,59.97001499,5755c957eb80c4000741a9ce,64d2fd46c836a06233681665,64dc7be9cf99e74298b5d48a,,,,,,,decisionTrl,resources/DB.BMP,resources/DY.BMP,Door1,-0.212037037,-0.024074074,1,0,0,1.5651,optionLeft,30,11280,5,29,0,29,0,1,,,,,,,,,,,,,,,,,,,,,,,,,,,,,,,,,,,,,,,
,,,,,,,5755c957eb80c4000741a9ce,2023-08-16_08h40.11.475,HF_wild_card,2022.2.4,Win32,59.97001499,5755c957eb80c4000741a9ce,64d2fd46c836a06233681665,64dc7be9cf99e74298b5d48a,,,,,,,decisionTrl,resources/DY.BMP,resources/DB.BMP,Door2,-0.239814815,-0.02962963,1,0,0,0.6487,optionLeft,20,11300,5,30,0,30,0,1,,,,,,,,,,,,,,,,,,,,,,,,,,,,,,,,,,,,,,,
,,,,,,,5755c957eb80c4000741a9ce,2023-08-16_08h40.11.475,HF_wild_card,2022.2.4,Win32,59.97001499,5755c957eb80c4000741a9ce,64d2fd46c836a06233681665,64dc7be9cf99e74298b5d48a,,,,,,,ctch,resources/DY.BMP,resources/DR.BMP,Door3,0.203703704,-0.006481481,1,0,0,0.5985,optionRight,70,11370,5,31,0,31,0,1,,,,,,,,,,,,,,,,,,,,,,,,,,,,,,,,,,,,,,,
,,,,,,,5755c957eb80c4000741a9ce,2023-08-16_08h40.11.475,HF_wild_card,2022.2.4,Win32,59.97001499,5755c957eb80c4000741a9ce,64d2fd46c836a06233681665,64dc7be9cf99e74298b5d48a,,,,,,,ctch,resources/DY.BMP,resources/DR.BMP,Door3,0.192592593,-0.051851852,1,0,0,0.4483,optionRight,70,11440,5,32,0,32,0,1,,,,,,,,,,,,,,,,,,,,,,,,,,,,,,,,,,,,,,,
,,,,,,,5755c957eb80c4000741a9ce,2023-08-16_08h40.11.475,HF_wild_card,2022.2.4,Win32,59.97001499,5755c957eb80c4000741a9ce,64d2fd46c836a06233681665,64dc7be9cf99e74298b5d48a,,,,,,,ctch,resources/DP.BMP,resources/DB.BMP,Door4,-0.164814815,-0.02037037,1,0,0,0.565,optionLeft,60,11500,5,33,0,33,0,1,,,,,,,,,,,,,,,,,,,,,,,,,,,,,,,,,,,,,,,
,,,,,,,5755c957eb80c4000741a9ce,2023-08-16_08h40.11.475,HF_wild_card,2022.2.4,Win32,59.97001499,5755c957eb80c4000741a9ce,64d2fd46c836a06233681665,64dc7be9cf99e74298b5d48a,,,,,,,decisionTrl,resources/DBN.BMP,resources/DP.BMP,Door4,0.199074074,-0.026851852,1,0,0,0.4489,optionRight,80,11580,5,34,0,34,0,1,,,,,,,,,,,,,,,,,,,,,,,,,,,,,,,,,,,,,,,
,,,,,,,5755c957eb80c4000741a9ce,2023-08-16_08h40.11.475,HF_wild_card,2022.2.4,Win32,59.97001499,5755c957eb80c4000741a9ce,64d2fd46c836a06233681665,64dc7be9cf99e74298b5d48a,,,,,,,sngl,resources/Empty.png,resources/DY.BMP,Door2,0.188888889,-0.015740741,1,0,0,0.5821,optionRight,20,11600,5,35,0,35,0,1,,,,,,,,,,,,,,,,,,,,,,,,,,,,,,,,,,,,,,,
,,,,,,,5755c957eb80c4000741a9ce,2023-08-16_08h40.11.475,HF_wild_card,2022.2.4,Win32,59.97001499,5755c957eb80c4000741a9ce,64d2fd46c836a06233681665,64dc7be9cf99e74298b5d48a,,,,,,,decisionTrl,resources/DP.BMP,resources/DR.BMP,Door4,-0.186111111,-0.008333333,1,0,0,0.4985,optionLeft,60,11660,5,36,0,36,0,1,,,,,,,,,,,,,,,,,,,,,,,,,,,,,,,,,,,,,,,
,,,,,,,5755c957eb80c4000741a9ce,2023-08-16_08h40.11.475,HF_wild_card,2022.2.4,Win32,59.97001499,5755c957eb80c4000741a9ce,64d2fd46c836a06233681665,64dc7be9cf99e74298b5d48a,,,,,,,decisionTrl,resources/DP.BMP,resources/DBN.BMP,Door4,-0.248148148,0.006481481,1,0,0,0.7484,optionLeft,80,11740,5,37,0,37,0,1,,,,,,,,,,,,,,,,,,,,,,,,,,,,,,,,,,,,,,,
,,,,,,,5755c957eb80c4000741a9ce,2023-08-16_08h40.11.475,HF_wild_card,2022.2.4,Win32,59.97001499,5755c957eb80c4000741a9ce,64d2fd46c836a06233681665,64dc7be9cf99e74298b5d48a,,,,,,,decisionTrl,resources/DBN.BMP,resources/DR.BMP,Door3,0.176851852,-0.025925926,1,0,0,1.1985,optionRight,70,11810,5,38,0,38,0,1,,,,,,,,,,,,,,,,,,,,,,,,,,,,,,,,,,,,,,,
,,,,,,,5755c957eb80c4000741a9ce,2023-08-16_08h40.11.475,HF_wild_card,2022.2.4,Win32,59.97001499,5755c957eb80c4000741a9ce,64d2fd46c836a06233681665,64dc7be9cf99e74298b5d48a,,,,,,,decisionTrl,resources/DR.BMP,resources/DP.BMP,Door3,-0.197222222,-0.030555556,1,0,0,0.5818,optionLeft,70,11880,5,39,0,39,0,1,,,,,,,,,,,,,,,,,,,,,,,,,,,,,,,,,,,,,,,
,,,,,,,5755c957eb80c4000741a9ce,2023-08-16_08h40.11.475,HF_wild_card,2022.2.4,Win32,59.97001499,5755c957eb80c4000741a9ce,64d2fd46c836a06233681665,64dc7be9cf99e74298b5d48a,,,,,,,decisionTrl,resources/DP.BMP,resources/DR.BMP,Door4,-0.257407407,-0.010185185,1,0,0,0.4816,optionLeft,80,11960,5,40,0,40,0,1,,,,,,,,,,,,,,,,,,,,,,,,,,,,,,,,,,,,,,,
,,,,,,,5755c957eb80c4000741a9ce,2023-08-16_08h40.11.475,HF_wild_card,2022.2.4,Win32,59.97001499,5755c957eb80c4000741a9ce,64d2fd46c836a06233681665,64dc7be9cf99e74298b5d48a,,,,,,,sngl,resources/Empty.png,resources/DBN.BMP,WildCard_Ex,0.166666667,-0.025925926,1,0,0,0.482,optionRight,45,12005,5,41,0,41,0,1,,,,,,,,,,,,,,,,,,,,,,,,,,,,,,,,,,,,,,,
,,,,,,,5755c957eb80c4000741a9ce,2023-08-16_08h40.11.475,HF_wild_card,2022.2.4,Win32,59.97001499,5755c957eb80c4000741a9ce,64d2fd46c836a06233681665,64dc7be9cf99e74298b5d48a,,,,,,,decisionTrl,resources/DR.BMP,resources/DBN.BMP,Door3,-0.248148148,-0.012962963,1,0,0,0.6641,optionLeft,70,12075,5,42,0,42,0,1,,,,,,,,,,,,,,,,,,,,,,,,,,,,,,,,,,,,,,,
,,,,,,,5755c957eb80c4000741a9ce,2023-08-16_08h40.11.475,HF_wild_card,2022.2.4,Win32,59.97001499,5755c957eb80c4000741a9ce,64d2fd46c836a06233681665,64dc7be9cf99e74298b5d48a,,,,,,,sngl,resources/DBN.BMP,resources/Empty.png,WildCard_Ex,-0.217592593,0.00462963,1,0,0,0.4319,optionLeft,45,12120,5,43,0,43,0,1,,,,,,,,,,,,,,,,,,,,,,,,,,,,,,,,,,,,,,,
,,,,,,,5755c957eb80c4000741a9ce,2023-08-16_08h40.11.475,HF_wild_card,2022.2.4,Win32,59.97001499,5755c957eb80c4000741a9ce,64d2fd46c836a06233681665,64dc7be9cf99e74298b5d48a,,,,,,,,,,,,,,,,,,,,,,,,,,4,0,4,0,1,,,,,,,,,,,,,,,,,,,,,,,,,,,,,,,,,,
,,,,,,,5755c957eb80c4000741a9ce,2023-08-16_08h40.11.475,HF_wild_card,2022.2.4,Win32,59.97001499,5755c957eb80c4000741a9ce,64d2fd46c836a06233681665,64dc7be9cf99e74298b5d48a,,,,,,,ctch,resources/DR.BMP,resources/DY.BMP,Door3,-0.343518519,-0.078703704,1,0,0,2.0906,optionLeft,70,12190,6,0,0,0,0,1,,,,,,,,,,,,,,,,,,,,,,,,,,,,,,,,,,,,,,,
,,,,,,,5755c957eb80c4000741a9ce,2023-08-16_08h40.11.475,HF_wild_card,2022.2.4,Win32,59.97001499,5755c957eb80c4000741a9ce,64d2fd46c836a06233681665,64dc7be9cf99e74298b5d48a,,,,,,,decisionTrl,resources/DB.BMP,resources/DY.BMP,Door2,0.309259259,-0.037037037,1,0,0,0.7155,optionRight,40,12230,6,1,0,1,0,1,,,,,,,,,,,,,,,,,,,,,,,,,,,,,,,,,,,,,,,
,,,,,,,5755c957eb80c4000741a9ce,2023-08-16_08h40.11.475,HF_wild_card,2022.2.4,Win32,59.97001499,5755c957eb80c4000741a9ce,64d2fd46c836a06233681665,64dc7be9cf99e74298b5d48a,,,,,,,sngl,resources/Empty.png,resources/DB.BMP,Door1,0.240740741,-0.018518519,1,0,0,0.4989,optionRight,30,12260,6,2,0,2,0,1,,,,,,,,,,,,,,,,,,,,,,,,,,,,,,,,,,,,,,,
,,,,,,,5755c957eb80c4000741a9ce,2023-08-16_08h40.11.475,HF_wild_card,2022.2.4,Win32,59.97001499,5755c957eb80c4000741a9ce,64d2fd46c836a06233681665,64dc7be9cf99e74298b5d48a,,,,,,,sngl,resources/Empty.png,resources/DBN.BMP,WildCard_Ex,0.24537037,-0.010185185,1,0,0,0.4162,optionRight,45,12305,6,3,0,3,0,1,,,,,,,,,,,,,,,,,,,,,,,,,,,,,,,,,,,,,,,
,,,,,,,5755c957eb80c4000741a9ce,2023-08-16_08h40.11.475,HF_wild_card,2022.2.4,Win32,59.97001499,5755c957eb80c4000741a9ce,64d2fd46c836a06233681665,64dc7be9cf99e74298b5d48a,,,,,,,sngl,resources/Empty.png,resources/DY.BMP,Door2,0.199074074,-0.006481481,1,0,0,0.4154,optionRight,40,12345,6,4,0,4,0,1,,,,,,,,,,,,,,,,,,,,,,,,,,,,,,,,,,,,,,,
,,,,,,,5755c957eb80c4000741a9ce,2023-08-16_08h40.11.475,HF_wild_card,2022.2.4,Win32,59.97001499,5755c957eb80c4000741a9ce,64d2fd46c836a06233681665,64dc7be9cf99e74298b5d48a,,,,,,,decisionTrl,resources/DY.BMP,resources/DB.BMP,Door2,-0.324074074,0.000925926,1,0,0,0.7983,optionLeft,20,12365,6,5,0,5,0,1,,,,,,,,,,,,,,,,,,,,,,,,,,,,,,,,,,,,,,,
,,,,,,,5755c957eb80c4000741a9ce,2023-08-16_08h40.11.475,HF_wild_card,2022.2.4,Win32,59.97001499,5755c957eb80c4000741a9ce,64d2fd46c836a06233681665,64dc7be9cf99e74298b5d48a,,,,,,,decisionTrl,resources/DY.BMP,resources/DBN.BMP,WildCard_Ex,0.237962963,-0.033333333,1,0,0,0.4991,optionRight,55,12420,6,6,0,6,0,1,,,,,,,,,,,,,,,,,,,,,,,,,,,,,,,,,,,,,,,
,,,,,,,5755c957eb80c4000741a9ce,2023-08-16_08h40.11.475,HF_wild_card,2022.2.4,Win32,59.97001499,5755c957eb80c4000741a9ce,64d2fd46c836a06233681665,64dc7be9cf99e74298b5d48a,,,,,,,decisionTrl,resources/DP.BMP,resources/DR.BMP,Door4,-0.251851852,-0.000925926,1,0,0,0.8647,optionLeft,80,12500,6,7,0,7,0,1,,,,,,,,,,,,,,,,,,,,,,,,,,,,,,,,,,,,,,,
,,,,,,,5755c957eb80c4000741a9ce,2023-08-16_08h40.11.475,HF_wild_card,2022.2.4,Win32,59.97001499,5755c957eb80c4000741a9ce,64d2fd46c836a06233681665,64dc7be9cf99e74298b5d48a,,,,,,,sngl,resources/Empty.png,resources/DP.BMP,Door4,0.282407407,-0.012962963,1,0,0,0.432,optionRight,80,12580,6,8,0,8,0,1,,,,,,,,,,,,,,,,,,,,,,,,,,,,,,,,,,,,,,,
,,,,,,,5755c957eb80c4000741a9ce,2023-08-16_08h40.11.475,HF_wild_card,2022.2.4,Win32,59.97001499,5755c957eb80c4000741a9ce,64d2fd46c836a06233681665,64dc7be9cf99e74298b5d48a,,,,,,,decisionTrl,resources/DB.BMP,resources/DY.BMP,Door2,0.235185185,-0.031481481,1,0,0,1.9483,optionRight,40,12620,6,9,0,9,0,1,,,,,,,,,,,,,,,,,,,,,,,,,,,,,,,,,,,,,,,
,,,,,,,5755c957eb80c4000741a9ce,2023-08-16_08h40.11.475,HF_wild_card,2022.2.4,Win32,59.97001499,5755c957eb80c4000741a9ce,64d2fd46c836a06233681665,64dc7be9cf99e74298b5d48a,,,,,,,sngl,resources/DP.BMP,resources/Empty.png,Door4,-0.225,0.012037037,1,0,0,0.4483,optionLeft,60,12680,6,10,0,10,0,1,,,,,,,,,,,,,,,,,,,,,,,,,,,,,,,,,,,,,,,
,,,,,,,5755c957eb80c4000741a9ce,2023-08-16_08h40.11.475,HF_wild_card,2022.2.4,Win32,59.97001499,5755c957eb80c4000741a9ce,64d2fd46c836a06233681665,64dc7be9cf99e74298b5d48a,,,,,,,sngl,resources/Empty.png,resources/DBN.BMP,WildCard_Ex,0.209259259,-0.016666667,1,0,0,0.4655,optionRight,55,12735,6,11,0,11,0,1,,,,,,,,,,,,,,,,,,,,,,,,,,,,,,,,,,,,,,,
,,,,,,,5755c957eb80c4000741a9ce,2023-08-16_08h40.11.475,HF_wild_card,2022.2.4,Win32,59.97001499,5755c957eb80c4000741a9ce,64d2fd46c836a06233681665,64dc7be9cf99e74298b5d48a,,,,,,,decisionTrl,resources/DBN.BMP,resources/DR.BMP,Door3,0.237962963,-0.025925926,1,0,0,0.6815,optionRight,70,12805,6,12,0,12,0,1,,,,,,,,,,,,,,,,,,,,,,,,,,,,,,,,,,,,,,,
,,,,,,,5755c957eb80c4000741a9ce,2023-08-16_08h40.11.475,HF_wild_card,2022.2.4,Win32,59.97001499,5755c957eb80c4000741a9ce,64d2fd46c836a06233681665,64dc7be9cf99e74298b5d48a,,,,,,,ctch,resources/DY.BMP,resources/DR.BMP,Door3,0.187037037,-0.025,1,0,0,0.4822,optionRight,70,12875,6,13,0,13,0,1,,,,,,,,,,,,,,,,,,,,,,,,,,,,,,,,,,,,,,,
,,,,,,,5755c957eb80c4000741a9ce,2023-08-16_08h40.11.475,HF_wild_card,2022.2.4,Win32,59.97001499,5755c957eb80c4000741a9ce,64d2fd46c836a06233681665,64dc7be9cf99e74298b5d48a,,,,,,,sngl,resources/DBN.BMP,resources/Empty.png,WildCard_Ex,-0.230555556,0.003703704,1,0,0,0.4141,optionLeft,55,12930,6,14,0,14,0,1,,,,,,,,,,,,,,,,,,,,,,,,,,,,,,,,,,,,,,,
,,,,,,,5755c957eb80c4000741a9ce,2023-08-16_08h40.11.475,HF_wild_card,2022.2.4,Win32,59.97001499,5755c957eb80c4000741a9ce,64d2fd46c836a06233681665,64dc7be9cf99e74298b5d48a,,,,,,,decisionTrl,resources/DP.BMP,resources/DR.BMP,Door3,0.200925926,-0.001851852,1,0,0,0.5482,optionRight,70,13000,6,15,0,15,0,1,,,,,,,,,,,,,,,,,,,,,,,,,,,,,,,,,,,,,,,
,,,,,,,5755c957eb80c4000741a9ce,2023-08-16_08h40.11.475,HF_wild_card,2022.2.4,Win32,59.97001499,5755c957eb80c4000741a9ce,64d2fd46c836a06233681665,64dc7be9cf99e74298b5d48a,,,,,,,sngl,resources/DB.BMP,resources/Empty.png,Door1,-0.174074074,0.012962963,1,0,0,0.4654,optionLeft,30,13030,6,16,0,16,0,1,,,,,,,,,,,,,,,,,,,,,,,,,,,,,,,,,,,,,,,
,,,,,,,5755c957eb80c4000741a9ce,2023-08-16_08h40.11.475,HF_wild_card,2022.2.4,Win32,59.97001499,5755c957eb80c4000741a9ce,64d2fd46c836a06233681665,64dc7be9cf99e74298b5d48a,,,,,,,ctch,resources/DR.BMP,resources/DY.BMP,Door3,-0.20462963,-0.006481481,1,0,0,0.5483,optionLeft,70,13100,6,17,0,17,0,1,,,,,,,,,,,,,,,,,,,,,,,,,,,,,,,,,,,,,,,
,,,,,,,5755c957eb80c4000741a9ce,2023-08-16_08h40.11.475,HF_wild_card,2022.2.4,Win32,59.97001499,5755c957eb80c4000741a9ce,64d2fd46c836a06233681665,64dc7be9cf99e74298b5d48a,,,,,,,ctch,resources/DY.BMP,resources/DR.BMP,Door3,0.185185185,-0.006481481,1,0,0,0.4651,optionRight,70,13170,6,18,0,18,0,1,,,,,,,,,,,,,,,,,,,,,,,,,,,,,,,,,,,,,,,
,,,,,,,5755c957eb80c4000741a9ce,2023-08-16_08h40.11.475,HF_wild_card,2022.2.4,Win32,59.97001499,5755c957eb80c4000741a9ce,64d2fd46c836a06233681665,64dc7be9cf99e74298b5d48a,,,,,,,decisionTrl,resources/DR.BMP,resources/DBN.BMP,Door3,-0.187962963,-0.000925926,1,0,0,0.6147,optionLeft,70,13240,6,19,0,19,0,1,,,,,,,,,,,,,,,,,,,,,,,,,,,,,,,,,,,,,,,
,,,,,,,5755c957eb80c4000741a9ce,2023-08-16_08h40.11.475,HF_wild_card,2022.2.4,Win32,59.97001499,5755c957eb80c4000741a9ce,64d2fd46c836a06233681665,64dc7be9cf99e74298b5d48a,,,,,,,ctch,resources/DP.BMP,resources/DB.BMP,Door4,-0.231481481,0.006481481,1,0,0,0.565,optionLeft,60,13300,6,20,0,20,0,1,,,,,,,,,,,,,,,,,,,,,,,,,,,,,,,,,,,,,,,
,,,,,,,5755c957eb80c4000741a9ce,2023-08-16_08h40.11.475,HF_wild_card,2022.2.4,Win32,59.97001499,5755c957eb80c4000741a9ce,64d2fd46c836a06233681665,64dc7be9cf99e74298b5d48a,,,,,,,sngl,resources/DY.BMP,resources/Empty.png,Door2,-0.239814815,-0.015740741,1,0,0,0.8815,optionLeft,20,13320,6,21,0,21,0,1,,,,,,,,,,,,,,,,,,,,,,,,,,,,,,,,,,,,,,,
,,,,,,,5755c957eb80c4000741a9ce,2023-08-16_08h40.11.475,HF_wild_card,2022.2.4,Win32,59.97001499,5755c957eb80c4000741a9ce,64d2fd46c836a06233681665,64dc7be9cf99e74298b5d48a,,,,,,,sngl,resources/Empty.png,resources/DR.BMP,Door3,0.231481481,-0.022222222,1,0,0,0.4978,optionRight,70,13390,6,22,0,22,0,1,,,,,,,,,,,,,,,,,,,,,,,,,,,,,,,,,,,,,,,
,,,,,,,5755c957eb80c4000741a9ce,2023-08-16_08h40.11.475,HF_wild_card,2022.2.4,Win32,59.97001499,5755c957eb80c4000741a9ce,64d2fd46c836a06233681665,64dc7be9cf99e74298b5d48a,,,,,,,ctch,resources/DB.BMP,resources/DP.BMP,Door4,0.173148148,-0.028703704,1,0,0,0.5982,optionRight,80,13470,6,23,0,23,0,1,,,,,,,,,,,,,,,,,,,,,,,,,,,,,,,,,,,,,,,
,,,,,,,5755c957eb80c4000741a9ce,2023-08-16_08h40.11.475,HF_wild_card,2022.2.4,Win32,59.97001499,5755c957eb80c4000741a9ce,64d2fd46c836a06233681665,64dc7be9cf99e74298b5d48a,,,,,,,decisionTrl,resources/DR.BMP,resources/DP.BMP,Door3,-0.173148148,0.000925926,1,0,0,0.5649,optionLeft,70,13540,6,24,0,24,0,1,,,,,,,,,,,,,,,,,,,,,,,,,,,,,,,,,,,,,,,
,,,,,,,5755c957eb80c4000741a9ce,2023-08-16_08h40.11.475,HF_wild_card,2022.2.4,Win32,59.97001499,5755c957eb80c4000741a9ce,64d2fd46c836a06233681665,64dc7be9cf99e74298b5d48a,,,,,,,decisionTrl,resources/DR.BMP,resources/DP.BMP,Door3,-0.158333333,-0.022222222,1,0,0,0.5487,optionLeft,70,13610,6,25,0,25,0,1,,,,,,,,,,,,,,,,,,,,,,,,,,,,,,,,,,,,,,,
,,,,,,,5755c957eb80c4000741a9ce,2023-08-16_08h40.11.475,HF_wild_card,2022.2.4,Win32,59.97001499,5755c957eb80c4000741a9ce,64d2fd46c836a06233681665,64dc7be9cf99e74298b5d48a,,,,,,,decisionTrl,resources/DB.BMP,resources/DY.BMP,Door1,-0.323148148,0.006481481,1,0,0,0.6815,optionLeft,30,13640,6,26,0,26,0,1,,,,,,,,,,,,,,,,,,,,,,,,,,,,,,,,,,,,,,,
,,,,,,,5755c957eb80c4000741a9ce,2023-08-16_08h40.11.475,HF_wild_card,2022.2.4,Win32,59.97001499,5755c957eb80c4000741a9ce,64d2fd46c836a06233681665,64dc7be9cf99e74298b5d48a,,,,,,,ctch,resources/DB.BMP,resources/DP.BMP,Door4,0.268518519,-0.041666667,1,0,0,0.8649,optionRight,80,13720,6,27,0,27,0,1,,,,,,,,,,,,,,,,,,,,,,,,,,,,,,,,,,,,,,,
,,,,,,,5755c957eb80c4000741a9ce,2023-08-16_08h40.11.475,HF_wild_card,2022.2.4,Win32,59.97001499,5755c957eb80c4000741a9ce,64d2fd46c836a06233681665,64dc7be9cf99e74298b5d48a,,,,,,,decisionTrl,resources/DP.BMP,resources/DR.BMP,Door3,0.150925926,-0.032407407,1,0,0,0.6821,optionRight,70,13790,6,28,0,28,0,1,,,,,,,,,,,,,,,,,,,,,,,,,,,,,,,,,,,,,,,
,,,,,,,5755c957eb80c4000741a9ce,2023-08-16_08h40.11.475,HF_wild_card,2022.2.4,Win32,59.97001499,5755c957eb80c4000741a9ce,64d2fd46c836a06233681665,64dc7be9cf99e74298b5d48a,,,,,,,decisionTrl,resources/DP.BMP,resources/DR.BMP,Door3,0.168518519,-0.016666667,1,0,0,0.4654,optionRight,70,13860,6,29,0,29,0,1,,,,,,,,,,,,,,,,,,,,,,,,,,,,,,,,,,,,,,,
,,,,,,,5755c957eb80c4000741a9ce,2023-08-16_08h40.11.475,HF_wild_card,2022.2.4,Win32,59.97001499,5755c957eb80c4000741a9ce,64d2fd46c836a06233681665,64dc7be9cf99e74298b5d48a,,,,,,,decisionTrl,resources/DB.BMP,resources/DBN.BMP,Door1,-0.136111111,0.014814815,1,0,0,0.6652,optionLeft,30,13890,6,30,0,30,0,1,,,,,,,,,,,,,,,,,,,,,,,,,,,,,,,,,,,,,,,
,,,,,,,5755c957eb80c4000741a9ce,2023-08-16_08h40.11.475,HF_wild_card,2022.2.4,Win32,59.97001499,5755c957eb80c4000741a9ce,64d2fd46c836a06233681665,64dc7be9cf99e74298b5d48a,,,,,,,sngl,resources/DBN.BMP,resources/Empty.png,WildCard_Ex,-0.172222222,0.001851852,1,0,0,0.4812,optionLeft,45,13935,6,31,0,31,0,1,,,,,,,,,,,,,,,,,,,,,,,,,,,,,,,,,,,,,,,
,,,,,,,5755c957eb80c4000741a9ce,2023-08-16_08h40.11.475,HF_wild_card,2022.2.4,Win32,59.97001499,5755c957eb80c4000741a9ce,64d2fd46c836a06233681665,64dc7be9cf99e74298b5d48a,,,,,,,decisionTrl,resources/DBN.BMP,resources/DP.BMP,Door4,0.175,-0.023148148,1,0,0,0.765,optionRight,80,14015,6,32,0,32,0,1,,,,,,,,,,,,,,,,,,,,,,,,,,,,,,,,,,,,,,,
,,,,,,,5755c957eb80c4000741a9ce,2023-08-16_08h40.11.475,HF_wild_card,2022.2.4,Win32,59.97001499,5755c957eb80c4000741a9ce,64d2fd46c836a06233681665,64dc7be9cf99e74298b5d48a,,,,,,,decisionTrl,resources/DBN.BMP,resources/DY.BMP,WildCard_Ex,-0.203703704,-0.00462963,1,0,0,0.5819,optionLeft,45,14060,6,33,0,33,0,1,,,,,,,,,,,,,,,,,,,,,,,,,,,,,,,,,,,,,,,
,,,,,,,5755c957eb80c4000741a9ce,2023-08-16_08h40.11.475,HF_wild_card,2022.2.4,Win32,59.97001499,5755c957eb80c4000741a9ce,64d2fd46c836a06233681665,64dc7be9cf99e74298b5d48a,,,,,,,decisionTrl,resources/DR.BMP,resources/DP.BMP,Door3,-0.212962963,0.009259259,1,0,0,0.6316,optionLeft,70,14130,6,34,0,34,0,1,,,,,,,,,,,,,,,,,,,,,,,,,,,,,,,,,,,,,,,
,,,,,,,5755c957eb80c4000741a9ce,2023-08-16_08h40.11.475,HF_wild_card,2022.2.4,Win32,59.97001499,5755c957eb80c4000741a9ce,64d2fd46c836a06233681665,64dc7be9cf99e74298b5d48a,,,,,,,ctch,resources/DP.BMP,resources/DB.BMP,Door4,-0.208333333,0,1,0,0,0.4816,optionLeft,60,14190,6,35,0,35,0,1,,,,,,,,,,,,,,,,,,,,,,,,,,,,,,,,,,,,,,,
,,,,,,,5755c957eb80c4000741a9ce,2023-08-16_08h40.11.475,HF_wild_card,2022.2.4,Win32,59.97001499,5755c957eb80c4000741a9ce,64d2fd46c836a06233681665,64dc7be9cf99e74298b5d48a,,,,,,,decisionTrl,resources/DR.BMP,resources/DP.BMP,Door4,0.122222222,-0.030555556,1,0,0,0.5486,optionRight,60,14250,6,36,0,36,0,1,,,,,,,,,,,,,,,,,,,,,,,,,,,,,,,,,,,,,,,
,,,,,,,5755c957eb80c4000741a9ce,2023-08-16_08h40.11.475,HF_wild_card,2022.2.4,Win32,59.97001499,5755c957eb80c4000741a9ce,64d2fd46c836a06233681665,64dc7be9cf99e74298b5d48a,,,,,,,decisionTrl,resources/DB.BMP,resources/DY.BMP,Door1,-0.259259259,0.014814815,1,0,0,1.1153,optionLeft,30,14280,6,37,0,37,0,1,,,,,,,,,,,,,,,,,,,,,,,,,,,,,,,,,,,,,,,
,,,,,,,5755c957eb80c4000741a9ce,2023-08-16_08h40.11.475,HF_wild_card,2022.2.4,Win32,59.97001499,5755c957eb80c4000741a9ce,64d2fd46c836a06233681665,64dc7be9cf99e74298b5d48a,,,,,,,decisionTrl,resources/DY.BMP,resources/DB.BMP,Door1,0.152777778,-0.040740741,1,0,0,0.6321,optionRight,30,14310,6,38,0,38,0,1,,,,,,,,,,,,,,,,,,,,,,,,,,,,,,,,,,,,,,,
,,,,,,,5755c957eb80c4000741a9ce,2023-08-16_08h40.11.475,HF_wild_card,2022.2.4,Win32,59.97001499,5755c957eb80c4000741a9ce,64d2fd46c836a06233681665,64dc7be9cf99e74298b5d48a,,,,,,,sngl,resources/DR.BMP,resources/Empty.png,Door3,-0.205555556,0.001851852,1,0,0,0.482,optionLeft,70,14380,6,39,0,39,0,1,,,,,,,,,,,,,,,,,,,,,,,,,,,,,,,,,,,,,,,
,,,,,,,5755c957eb80c4000741a9ce,2023-08-16_08h40.11.475,HF_wild_card,2022.2.4,Win32,59.97001499,5755c957eb80c4000741a9ce,64d2fd46c836a06233681665,64dc7be9cf99e74298b5d48a,,,,,,,decisionTrl,resources/DY.BMP,resources/DB.BMP,Door1,0.172222222,-0.034259259,1,0,0,0.848,optionRight,30,14410,6,40,0,40,0,1,,,,,,,,,,,,,,,,,,,,,,,,,,,,,,,,,,,,,,,
,,,,,,,5755c957eb80c4000741a9ce,2023-08-16_08h40.11.475,HF_wild_card,2022.2.4,Win32,59.97001499,5755c957eb80c4000741a9ce,64d2fd46c836a06233681665,64dc7be9cf99e74298b5d48a,,,,,,,decisionTrl,resources/DBN.BMP,resources/DB.BMP,WildCard_Ex,-0.248148148,0.007407407,1,0,0,0.6484,optionLeft,55,14465,6,41,0,41,0,1,,,,,,,,,,,,,,,,,,,,,,,,,,,,,,,,,,,,,,,
,,,,,,,5755c957eb80c4000741a9ce,2023-08-16_08h40.11.475,HF_wild_card,2022.2.4,Win32,59.97001499,5755c957eb80c4000741a9ce,64d2fd46c836a06233681665,64dc7be9cf99e74298b5d48a,,,,,,,decisionTrl,resources/DP.BMP,resources/DBN.BMP,Door4,-0.207407407,-0.016666667,1,0,0,0.8649,optionLeft,60,14525,6,42,0,42,0,1,,,,,,,,,,,,,,,,,,,,,,,,,,,,,,,,,,,,,,,
,,,,,,,5755c957eb80c4000741a9ce,2023-08-16_08h40.11.475,HF_wild_card,2022.2.4,Win32,59.97001499,5755c957eb80c4000741a9ce,64d2fd46c836a06233681665,64dc7be9cf99e74298b5d48a,,,,,,,decisionTrl,resources/DY.BMP,resources/DB.BMP,Door1,0.257407407,-0.048148148,1,0,0,1.1323,optionRight,30,14555,6,43,0,43,0,1,,,,,,,,,,,,,,,,,,,,,,,,,,,,,,,,,,,,,,,
,,,,,,,5755c957eb80c4000741a9ce,2023-08-16_08h40.11.475,HF_wild_card,2022.2.4,Win32,59.97001499,5755c957eb80c4000741a9ce,64d2fd46c836a06233681665,64dc7be9cf99e74298b5d48a,,,,,,,,,,,,,,,,,,,,,,,,,,5,0,5,0,1,,,,,,,,,,,,,,,,,,,,,,,,,,,,,,,,,,
,,,,,,,5755c957eb80c4000741a9ce,2023-08-16_08h40.11.475,HF_wild_card,2022.2.4,Win32,59.97001499,5755c957eb80c4000741a9ce,64d2fd46c836a06233681665,64dc7be9cf99e74298b5d48a,,,,,,,decisionTrl,resources/DY.BMP,resources/DB.BMP,Door1,0.201851852,-0.049074074,1,0,0,1.0399,optionRight,30,14585,7,0,0,0,0,1,,,,,,,,,,,,,,,,,,,,,,,,,,,,,,,,,,,,,,,
,,,,,,,5755c957eb80c4000741a9ce,2023-08-16_08h40.11.475,HF_wild_card,2022.2.4,Win32,59.97001499,5755c957eb80c4000741a9ce,64d2fd46c836a06233681665,64dc7be9cf99e74298b5d48a,,,,,,,ctch,resources/DP.BMP,resources/DB.BMP,Door4,-0.190740741,-0.018518519,1,0,0,0.5317,optionLeft,60,14645,7,1,0,1,0,1,,,,,,,,,,,,,,,,,,,,,,,,,,,,,,,,,,,,,,,
,,,,,,,5755c957eb80c4000741a9ce,2023-08-16_08h40.11.475,HF_wild_card,2022.2.4,Win32,59.97001499,5755c957eb80c4000741a9ce,64d2fd46c836a06233681665,64dc7be9cf99e74298b5d48a,,,,,,,decisionTrl,resources/DR.BMP,resources/DP.BMP,Door3,-0.183333333,-0.016666667,1,0,0,0.5656,optionLeft,70,14715,7,2,0,2,0,1,,,,,,,,,,,,,,,,,,,,,,,,,,,,,,,,,,,,,,,
,,,,,,,5755c957eb80c4000741a9ce,2023-08-16_08h40.11.475,HF_wild_card,2022.2.4,Win32,59.97001499,5755c957eb80c4000741a9ce,64d2fd46c836a06233681665,64dc7be9cf99e74298b5d48a,,,,,,,decisionTrl,resources/DB.BMP,resources/DY.BMP,Door1,-0.22962963,-0.016666667,1,0,0,0.9822,optionLeft,30,14745,7,3,0,3,0,1,,,,,,,,,,,,,,,,,,,,,,,,,,,,,,,,,,,,,,,
,,,,,,,5755c957eb80c4000741a9ce,2023-08-16_08h40.11.475,HF_wild_card,2022.2.4,Win32,59.97001499,5755c957eb80c4000741a9ce,64d2fd46c836a06233681665,64dc7be9cf99e74298b5d48a,,,,,,,ctch,resources/DY.BMP,resources/DR.BMP,Door3,0.308333333,-0.075,1,0,0,0.5827,optionRight,70,14815,7,4,0,4,0,1,,,,,,,,,,,,,,,,,,,,,,,,,,,,,,,,,,,,,,,
,,,,,,,5755c957eb80c4000741a9ce,2023-08-16_08h40.11.475,HF_wild_card,2022.2.4,Win32,59.97001499,5755c957eb80c4000741a9ce,64d2fd46c836a06233681665,64dc7be9cf99e74298b5d48a,,,,,,,ctch,resources/DR.BMP,resources/DY.BMP,Door3,-0.22037037,-0.038888889,1,0,0,1.2658,optionLeft,70,14885,7,5,0,5,0,1,,,,,,,,,,,,,,,,,,,,,,,,,,,,,,,,,,,,,,,
,,,,,,,5755c957eb80c4000741a9ce,2023-08-16_08h40.11.475,HF_wild_card,2022.2.4,Win32,59.97001499,5755c957eb80c4000741a9ce,64d2fd46c836a06233681665,64dc7be9cf99e74298b5d48a,,,,,,,decisionTrl,resources/DB.BMP,resources/DY.BMP,Door2,0.237962963,-0.02962963,1,0,0,0.633,optionRight,20,14905,7,6,0,6,0,1,,,,,,,,,,,,,,,,,,,,,,,,,,,,,,,,,,,,,,,
,,,,,,,5755c957eb80c4000741a9ce,2023-08-16_08h40.11.475,HF_wild_card,2022.2.4,Win32,59.97001499,5755c957eb80c4000741a9ce,64d2fd46c836a06233681665,64dc7be9cf99e74298b5d48a,,,,,,,decisionTrl,resources/DP.BMP,resources/DR.BMP,Door4,-0.225,-0.017592593,1,0,0,0.9324,optionLeft,60,14965,7,7,0,7,0,1,,,,,,,,,,,,,,,,,,,,,,,,,,,,,,,,,,,,,,,
,,,,,,,5755c957eb80c4000741a9ce,2023-08-16_08h40.11.475,HF_wild_card,2022.2.4,Win32,59.97001499,5755c957eb80c4000741a9ce,64d2fd46c836a06233681665,64dc7be9cf99e74298b5d48a,,,,,,,decisionTrl,resources/DY.BMP,resources/DB.BMP,Door1,0.201851852,-0.011111111,1,0,0,0.8156,optionRight,30,14995,7,8,0,8,0,1,,,,,,,,,,,,,,,,,,,,,,,,,,,,,,,,,,,,,,,
,,,,,,,5755c957eb80c4000741a9ce,2023-08-16_08h40.11.475,HF_wild_card,2022.2.4,Win32,59.97001499,5755c957eb80c4000741a9ce,64d2fd46c836a06233681665,64dc7be9cf99e74298b5d48a,,,,,,,decisionTrl,resources/DR.BMP,resources/DP.BMP,Door4,0.226851852,-0.000925926,1,0,0,0.7657,optionRight,60,15055,7,9,0,9,0,1,,,,,,,,,,,,,,,,,,,,,,,,,,,,,,,,,,,,,,,
,,,,,,,5755c957eb80c4000741a9ce,2023-08-16_08h40.11.475,HF_wild_card,2022.2.4,Win32,59.97001499,5755c957eb80c4000741a9ce,64d2fd46c836a06233681665,64dc7be9cf99e74298b5d48a,,,,,,,decisionTrl,resources/DR.BMP,resources/DP.BMP,Door3,-0.174074074,-0.000925926,1,0,0,0.7991,optionLeft,70,15125,7,10,0,10,0,1,,,,,,,,,,,,,,,,,,,,,,,,,,,,,,,,,,,,,,,
,,,,,,,5755c957eb80c4000741a9ce,2023-08-16_08h40.11.475,HF_wild_card,2022.2.4,Win32,59.97001499,5755c957eb80c4000741a9ce,64d2fd46c836a06233681665,64dc7be9cf99e74298b5d48a,,,,,,,decisionTrl,resources/DB.BMP,resources/DY.BMP,Door1,-0.225,0.016666667,1,0,0,1.1162,optionLeft,30,15155,7,11,0,11,0,1,,,,,,,,,,,,,,,,,,,,,,,,,,,,,,,,,,,,,,,
,,,,,,,5755c957eb80c4000741a9ce,2023-08-16_08h40.11.475,HF_wild_card,2022.2.4,Win32,59.97001499,5755c957eb80c4000741a9ce,64d2fd46c836a06233681665,64dc7be9cf99e74298b5d48a,,,,,,,decisionTrl,resources/DY.BMP,resources/DB.BMP,Door1,0.184259259,-0.025925926,1,0,0,0.7488,optionRight,30,15185,7,12,0,12,0,1,,,,,,,,,,,,,,,,,,,,,,,,,,,,,,,,,,,,,,,
,,,,,,,5755c957eb80c4000741a9ce,2023-08-16_08h40.11.475,HF_wild_card,2022.2.4,Win32,59.97001499,5755c957eb80c4000741a9ce,64d2fd46c836a06233681665,64dc7be9cf99e74298b5d48a,,,,,,,ctch,resources/DP.BMP,resources/DB.BMP,Door4,-0.189814815,-0.014814815,1,0,0,0.699,optionLeft,80,15265,7,13,0,13,0,1,,,,,,,,,,,,,,,,,,,,,,,,,,,,,,,,,,,,,,,
,,,,,,,5755c957eb80c4000741a9ce,2023-08-16_08h40.11.475,HF_wild_card,2022.2.4,Win32,59.97001499,5755c957eb80c4000741a9ce,64d2fd46c836a06233681665,64dc7be9cf99e74298b5d48a,,,,,,,decisionTrl,resources/DP.BMP,resources/DR.BMP,Door4,-0.194444444,-0.000925926,1,0,0,0.5653,optionLeft,60,15325,7,14,0,14,0,1,,,,,,,,,,,,,,,,,,,,,,,,,,,,,,,,,,,,,,,
,,,,,,,5755c957eb80c4000741a9ce,2023-08-16_08h40.11.475,HF_wild_card,2022.2.4,Win32,59.97001499,5755c957eb80c4000741a9ce,64d2fd46c836a06233681665,64dc7be9cf99e74298b5d48a,,,,,,,decisionTrl,resources/DB.BMP,resources/DY.BMP,Door1,-0.186111111,-0.009259259,1,0,0,0.9159,optionLeft,30,15355,7,15,0,15,0,1,,,,,,,,,,,,,,,,,,,,,,,,,,,,,,,,,,,,,,,
,,,,,,,5755c957eb80c4000741a9ce,2023-08-16_08h40.11.475,HF_wild_card,2022.2.4,Win32,59.97001499,5755c957eb80c4000741a9ce,64d2fd46c836a06233681665,64dc7be9cf99e74298b5d48a,,,,,,,ctch,resources/DP.BMP,resources/DB.BMP,Door4,-0.187962963,-0.002777778,1,0,0,0.5823,optionLeft,80,15435,7,16,0,16,0,1,,,,,,,,,,,,,,,,,,,,,,,,,,,,,,,,,,,,,,,
,,,,,,,5755c957eb80c4000741a9ce,2023-08-16_08h40.11.475,HF_wild_card,2022.2.4,Win32,59.97001499,5755c957eb80c4000741a9ce,64d2fd46c836a06233681665,64dc7be9cf99e74298b5d48a,,,,,,,decisionTrl,resources/DR.BMP,resources/DP.BMP,Door4,0.163888889,-0.026851852,1,0,0,0.6989,optionRight,60,15495,7,17,0,17,0,1,,,,,,,,,,,,,,,,,,,,,,,,,,,,,,,,,,,,,,,
,,,,,,,5755c957eb80c4000741a9ce,2023-08-16_08h40.11.475,HF_wild_card,2022.2.4,Win32,59.97001499,5755c957eb80c4000741a9ce,64d2fd46c836a06233681665,64dc7be9cf99e74298b5d48a,,,,,,,decisionTrl,resources/DB.BMP,resources/DY.BMP,Door1,-0.181481481,-0.009259259,1,0,0,2.2821,optionLeft,30,15525,7,18,0,18,0,1,,,,,,,,,,,,,,,,,,,,,,,,,,,,,,,,,,,,,,,
,,,,,,,5755c957eb80c4000741a9ce,2023-08-16_08h40.11.475,HF_wild_card,2022.2.4,Win32,59.97001499,5755c957eb80c4000741a9ce,64d2fd46c836a06233681665,64dc7be9cf99e74298b5d48a,,,,,,,ctch,resources/DB.BMP,resources/DP.BMP,Door4,0.142592593,-0.022222222,1,0,0,0.7157,optionRight,80,15605,7,19,0,19,0,1,,,,,,,,,,,,,,,,,,,,,,,,,,,,,,,,,,,,,,,
,,,,,,,5755c957eb80c4000741a9ce,2023-08-16_08h40.11.475,HF_wild_card,2022.2.4,Win32,59.97001499,5755c957eb80c4000741a9ce,64d2fd46c836a06233681665,64dc7be9cf99e74298b5d48a,,,,,,,decisionTrl,resources/DY.BMP,resources/DB.BMP,Door1,0.148148148,-0.025925926,1,0,0,0.7491,optionRight,30,15635,7,20,0,20,0,1,,,,,,,,,,,,,,,,,,,,,,,,,,,,,,,,,,,,,,,
