Condition,Low fixed image (Door1),Low risky image (Door2),High fixed image (Door3),High risky image (Door4),NonExtreme Wild Card 1,NonExtreme Wild Card 2,,date,expName,psychopyVersion,OS,frameRate,PROLIFIC_PID,STUDY_ID,SESSION_ID,mouse_2.x,mouse_2.y,mouse_2.leftButton,mouse_2.midButton,mouse_2.rightButton,mouse_2.clicked_name,Trial Type,Left Option Image,Right Option Image,Chosen Door,mouse.x,mouse.y,mouse.leftButton,mouse.midButton,mouse.rightButton,mouse.time,mouse.clicked_name,Feedback,Cumulative Reward,Block,trial.thisRepN,trial.thisTrialN,trial.thisN,trial.thisIndex,trial.ran,blocks.thisRepN,blocks.thisTrialN,blocks.thisN,blocks.thisIndex,blocks.ran,Money conversion,First Outcome Reported,Shown Door (First Outcome),Displayed Image (First Outcome),outcomes.thisRepN,outcomes.thisTrialN,outcomes.thisN,outcomes.thisIndex,outcomes.ran,judgments.thisRepN,judgments.thisTrialN,judgments.thisN,judgments.thisIndex,judgments.ran,freqMouse.x,freqMouse.y,freqMouse.leftButton,freqMouse.midButton,freqMouse.rightButton,freqMouse.clicked_name,FQJ for first outcome,FQJ for second outcome,Shown Door,Displayed Image,trials.thisRepN,trials.thisTrialN,trials.thisN,trials.thisIndex,trials.ran,judgBlock.thisRepN,judgBlock.thisTrialN,judgBlock.thisN,judgBlock.thisIndex,judgBlock.ran
2,resources/DR.BMP,resources/DG.BMP,resources/DB.BMP,resources/DP.BMP,resources/DBN.BMP,resources/DY.BMP,,2023-08-16_08h43.57.739,HF_wild_card,2022.2.4,Win32,60.12867537,63f79034370a105d5d57d9bd,64d2fd46c836a06233681665,64dc7e2e4ccf48d25f8bce26,,,,,,,,,,,,,,,,,,,,,,,,,,,,,,,,,,,,,,,,,,,,,,,,,,,,,,,,,,,,,,,,
,,,,,,,,2023-08-16_08h43.57.739,HF_wild_card,2022.2.4,Win32,60.12867537,63f79034370a105d5d57d9bd,64d2fd46c836a06233681665,64dc7e2e4ccf48d25f8bce26,0.008333333,-0.428703704,1,0,0,agree,,,,,,,,,,,,,,,,,,,,,,,,,,,,,,,,,,,,,,,,,,,,,,,,,,,,,,,,,,
,,,,,,,,2023-08-16_08h43.57.739,HF_wild_card,2022.2.4,Win32,60.12867537,63f79034370a105d5d57d9bd,64d2fd46c836a06233681665,64dc7e2e4ccf48d25f8bce26,,,,,,,,,,,,,,,,,,,,,,,,,,,,,,,,,,,,,,,,,,,,,,,,,,,,,,,,,,,,,,,,
,,,,,,,,2023-08-16_08h43.57.739,HF_wild_card,2022.2.4,Win32,60.12867537,63f79034370a105d5d57d9bd,64d2fd46c836a06233681665,64dc7e2e4ccf48d25f8bce26,,,,,,,decisionTrl,resources/DP.BMP,resources/DB.BMP,Door4,-0.427777778,-0.078703704,1,0,0,3.1304,optionLeft,80,80,1,0,0,0,0,1,,,,,,,,,,,,,,,,,,,,,,,,,,,,,,,,,,,,,,,
,,,,,,,,2023-08-16_08h43.57.739,HF_wild_card,2022.2.4,Win32,60.12867537,63f79034370a105d5d57d9bd,64d2fd46c836a06233681665,64dc7e2e4ccf48d25f8bce26,,,,,,,decisionTrl,resources/DP.BMP,resources/DB.BMP,Door3,0.358333333,-0.076851852,1,0,0,3.1433,optionRight,70,150,1,1,0,1,0,1,,,,,,,,,,,,,,,,,,,,,,,,,,,,,,,,,,,,,,,
,,,,,,,,2023-08-16_08h43.57.739,HF_wild_card,2022.2.4,Win32,60.12867537,63f79034370a105d5d57d9bd,64d2fd46c836a06233681665,64dc7e2e4ccf48d25f8bce26,,,,,,,decisionTrl,resources/DR.BMP,resources/DG.BMP,Door2,0.260185185,-0.068518519,1,0,0,3.2988,optionRight,20,170,1,2,0,2,0,1,,,,,,,,,,,,,,,,,,,,,,,,,,,,,,,,,,,,,,,
,,,,,,,,2023-08-16_08h43.57.739,HF_wild_card,2022.2.4,Win32,60.12867537,63f79034370a105d5d57d9bd,64d2fd46c836a06233681665,64dc7e2e4ccf48d25f8bce26,,,,,,,sngl,resources/DR.BMP,resources/Empty.png,Door1,-0.30462963,-0.024074074,1,0,0,1.4491,optionLeft,30,200,1,3,0,3,0,1,,,,,,,,,,,,,,,,,,,,,,,,,,,,,,,,,,,,,,,
,,,,,,,,2023-08-16_08h43.57.739,HF_wild_card,2022.2.4,Win32,60.12867537,63f79034370a105d5d57d9bd,64d2fd46c836a06233681665,64dc7e2e4ccf48d25f8bce26,,,,,,,decisionTrl,resources/DY.BMP,resources/DP.BMP,Door4,0.311111111,-0.063888889,1,0,0,1.6985,optionRight,60,260,1,4,0,4,0,1,,,,,,,,,,,,,,,,,,,,,,,,,,,,,,,,,,,,,,,
,,,,,,,,2023-08-16_08h43.57.739,HF_wild_card,2022.2.4,Win32,60.12867537,63f79034370a105d5d57d9bd,64d2fd46c836a06233681665,64dc7e2e4ccf48d25f8bce26,,,,,,,decisionTrl,resources/DB.BMP,resources/DP.BMP,Door4,0.32037037,-0.059259259,1,0,0,1.4603,optionRight,60,320,1,5,0,5,0,1,,,,,,,,,,,,,,,,,,,,,,,,,,,,,,,,,,,,,,,
,,,,,,,,2023-08-16_08h43.57.739,HF_wild_card,2022.2.4,Win32,60.12867537,63f79034370a105d5d57d9bd,64d2fd46c836a06233681665,64dc7e2e4ccf48d25f8bce26,,,,,,,decisionTrl,resources/DB.BMP,resources/DP.BMP,Door4,0.336111111,-0.092592593,1,0,0,0.9991,optionRight,80,400,1,6,0,6,0,1,,,,,,,,,,,,,,,,,,,,,,,,,,,,,,,,,,,,,,,
,,,,,,,,2023-08-16_08h43.57.739,HF_wild_card,2022.2.4,Win32,60.12867537,63f79034370a105d5d57d9bd,64d2fd46c836a06233681665,64dc7e2e4ccf48d25f8bce26,,,,,,,sngl,resources/Empty.png,resources/DY.BMP,WildCard_NonEx,0.352777778,-0.075925926,1,0,0,1.1823,optionRight,45,445,1,7,0,7,0,1,,,,,,,,,,,,,,,,,,,,,,,,,,,,,,,,,,,,,,,
,,,,,,,,2023-08-16_08h43.57.739,HF_wild_card,2022.2.4,Win32,60.12867537,63f79034370a105d5d57d9bd,64d2fd46c836a06233681665,64dc7e2e4ccf48d25f8bce26,,,,,,,decisionTrl,resources/DG.BMP,resources/DR.BMP,Door1,0.359259259,-0.04537037,1,0,0,1.2325,optionRight,30,475,1,8,0,8,0,1,,,,,,,,,,,,,,,,,,,,,,,,,,,,,,,,,,,,,,,
,,,,,,,,2023-08-16_08h43.57.739,HF_wild_card,2022.2.4,Win32,60.12867537,63f79034370a105d5d57d9bd,64d2fd46c836a06233681665,64dc7e2e4ccf48d25f8bce26,,,,,,,ctch,resources/DG.BMP,resources/DB.BMP,Door2,-0.358333333,-0.038888889,1,0,0,1.6271,optionLeft,20,495,1,9,0,9,0,1,,,,,,,,,,,,,,,,,,,,,,,,,,,,,,,,,,,,,,,
,,,,,,,,2023-08-16_08h43.57.739,HF_wild_card,2022.2.4,Win32,60.12867537,63f79034370a105d5d57d9bd,64d2fd46c836a06233681665,64dc7e2e4ccf48d25f8bce26,,,,,,,ctch,resources/DB.BMP,resources/DG.BMP,Door3,-0.315740741,-0.037962963,1,0,0,1.0656,optionLeft,70,565,1,10,0,10,0,1,,,,,,,,,,,,,,,,,,,,,,,,,,,,,,,,,,,,,,,
,,,,,,,,2023-08-16_08h43.57.739,HF_wild_card,2022.2.4,Win32,60.12867537,63f79034370a105d5d57d9bd,64d2fd46c836a06233681665,64dc7e2e4ccf48d25f8bce26,,,,,,,sngl,resources/Empty.png,resources/DB.BMP,Door3,0.325925926,-0.075925926,1,0,0,0.8274,optionRight,70,635,1,11,0,11,0,1,,,,,,,,,,,,,,,,,,,,,,,,,,,,,,,,,,,,,,,
,,,,,,,,2023-08-16_08h43.57.739,HF_wild_card,2022.2.4,Win32,60.12867537,63f79034370a105d5d57d9bd,64d2fd46c836a06233681665,64dc7e2e4ccf48d25f8bce26,,,,,,,decisionTrl,resources/DB.BMP,resources/DP.BMP,Door3,-0.312962963,-0.038888889,1,0,0,1.3824,optionLeft,70,705,1,12,0,12,0,1,,,,,,,,,,,,,,,,,,,,,,,,,,,,,,,,,,,,,,,
,,,,,,,,2023-08-16_08h43.57.739,HF_wild_card,2022.2.4,Win32,60.12867537,63f79034370a105d5d57d9bd,64d2fd46c836a06233681665,64dc7e2e4ccf48d25f8bce26,,,,,,,decisionTrl,resources/DR.BMP,resources/DG.BMP,Door1,-0.300925926,-0.035185185,1,0,0,2.0324,optionLeft,30,735,1,13,0,13,0,1,,,,,,,,,,,,,,,,,,,,,,,,,,,,,,,,,,,,,,,
,,,,,,,,2023-08-16_08h43.57.739,HF_wild_card,2022.2.4,Win32,60.12867537,63f79034370a105d5d57d9bd,64d2fd46c836a06233681665,64dc7e2e4ccf48d25f8bce26,,,,,,,decisionTrl,resources/DY.BMP,resources/DB.BMP,Door3,0.331481481,-0.05,1,0,0,0.9494,optionRight,70,805,1,14,0,14,0,1,,,,,,,,,,,,,,,,,,,,,,,,,,,,,,,,,,,,,,,
,,,,,,,,2023-08-16_08h43.57.739,HF_wild_card,2022.2.4,Win32,60.12867537,63f79034370a105d5d57d9bd,64d2fd46c836a06233681665,64dc7e2e4ccf48d25f8bce26,,,,,,,sngl,resources/DY.BMP,resources/Empty.png,WildCard_NonEx,-0.32037037,-0.034259259,1,0,0,0.7993,optionLeft,45,850,1,15,0,15,0,1,,,,,,,,,,,,,,,,,,,,,,,,,,,,,,,,,,,,,,,
,,,,,,,,2023-08-16_08h43.57.739,HF_wild_card,2022.2.4,Win32,60.12867537,63f79034370a105d5d57d9bd,64d2fd46c836a06233681665,64dc7e2e4ccf48d25f8bce26,,,,,,,sngl,resources/DB.BMP,resources/Empty.png,Door3,-0.287037037,-0.018518519,1,0,0,0.7323,optionLeft,70,920,1,16,0,16,0,1,,,,,,,,,,,,,,,,,,,,,,,,,,,,,,,,,,,,,,,
,,,,,,,,2023-08-16_08h43.57.739,HF_wild_card,2022.2.4,Win32,60.12867537,63f79034370a105d5d57d9bd,64d2fd46c836a06233681665,64dc7e2e4ccf48d25f8bce26,,,,,,,decisionTrl,resources/DP.BMP,resources/DY.BMP,Door4,-0.342592593,-0.033333333,1,0,0,1.4661,optionLeft,80,1000,1,17,0,17,0,1,,,,,,,,,,,,,,,,,,,,,,,,,,,,,,,,,,,,,,,
,,,,,,,,2023-08-16_08h43.57.739,HF_wild_card,2022.2.4,Win32,60.12867537,63f79034370a105d5d57d9bd,64d2fd46c836a06233681665,64dc7e2e4ccf48d25f8bce26,,,,,,,decisionTrl,resources/DY.BMP,resources/DG.BMP,WildCard_NonEx,-0.376851852,-0.030555556,1,0,0,2.1161,optionLeft,45,1045,1,18,0,18,0,1,,,,,,,,,,,,,,,,,,,,,,,,,,,,,,,,,,,,,,,
,,,,,,,,2023-08-16_08h43.57.739,HF_wild_card,2022.2.4,Win32,60.12867537,63f79034370a105d5d57d9bd,64d2fd46c836a06233681665,64dc7e2e4ccf48d25f8bce26,,,,,,,decisionTrl,resources/DR.BMP,resources/DG.BMP,Door1,-0.418518519,-0.051851852,1,0,0,2.5655,optionLeft,30,1075,1,19,0,19,0,1,,,,,,,,,,,,,,,,,,,,,,,,,,,,,,,,,,,,,,,
,,,,,,,,2023-08-16_08h43.57.739,HF_wild_card,2022.2.4,Win32,60.12867537,63f79034370a105d5d57d9bd,64d2fd46c836a06233681665,64dc7e2e4ccf48d25f8bce26,,,,,,,sngl,resources/Empty.png,resources/DR.BMP,Door1,0.278703704,-0.048148148,1,0,0,0.9369,optionRight,30,1105,1,20,0,20,0,1,,,,,,,,,,,,,,,,,,,,,,,,,,,,,,,,,,,,,,,
,,,,,,,,2023-08-16_08h43.57.739,HF_wild_card,2022.2.4,Win32,60.12867537,63f79034370a105d5d57d9bd,64d2fd46c836a06233681665,64dc7e2e4ccf48d25f8bce26,,,,,,,ctch,resources/DB.BMP,resources/DG.BMP,Door3,-0.277777778,-0.030555556,1,0,0,0.8656,optionLeft,70,1175,1,21,0,21,0,1,,,,,,,,,,,,,,,,,,,,,,,,,,,,,,,,,,,,,,,
,,,,,,,,2023-08-16_08h43.57.739,HF_wild_card,2022.2.4,Win32,60.12867537,63f79034370a105d5d57d9bd,64d2fd46c836a06233681665,64dc7e2e4ccf48d25f8bce26,,,,,,,decisionTrl,resources/DB.BMP,resources/DY.BMP,Door3,-0.337037037,-0.030555556,1,0,0,2.3323,optionLeft,70,1245,1,22,0,22,0,1,,,,,,,,,,,,,,,,,,,,,,,,,,,,,,,,,,,,,,,
,,,,,,,,2023-08-16_08h43.57.739,HF_wild_card,2022.2.4,Win32,60.12867537,63f79034370a105d5d57d9bd,64d2fd46c836a06233681665,64dc7e2e4ccf48d25f8bce26,,,,,,,ctch,resources/DP.BMP,resources/DR.BMP,Door4,-0.29537037,-0.042592593,1,0,0,1.0017,optionLeft,60,1305,1,23,0,23,0,1,,,,,,,,,,,,,,,,,,,,,,,,,,,,,,,,,,,,,,,
,,,,,,,,2023-08-16_08h43.57.739,HF_wild_card,2022.2.4,Win32,60.12867537,63f79034370a105d5d57d9bd,64d2fd46c836a06233681665,64dc7e2e4ccf48d25f8bce26,,,,,,,sngl,resources/DY.BMP,resources/Empty.png,WildCard_NonEx,-0.301851852,-0.025,1,0,0,1.4653,optionLeft,55,1360,1,24,0,24,0,1,,,,,,,,,,,,,,,,,,,,,,,,,,,,,,,,,,,,,,,
,,,,,,,,2023-08-16_08h43.57.739,HF_wild_card,2022.2.4,Win32,60.12867537,63f79034370a105d5d57d9bd,64d2fd46c836a06233681665,64dc7e2e4ccf48d25f8bce26,,,,,,,decisionTrl,resources/DB.BMP,resources/DP.BMP,Door3,-0.362037037,-0.023148148,1,0,0,2.4157,optionLeft,70,1430,1,25,0,25,0,1,,,,,,,,,,,,,,,,,,,,,,,,,,,,,,,,,,,,,,,
,,,,,,,,2023-08-16_08h43.57.739,HF_wild_card,2022.2.4,Win32,60.12867537,63f79034370a105d5d57d9bd,64d2fd46c836a06233681665,64dc7e2e4ccf48d25f8bce26,,,,,,,decisionTrl,resources/DG.BMP,resources/DY.BMP,WildCard_NonEx,0.285185185,-0.037962963,1,0,0,2.1539,optionRight,45,1475,1,26,0,26,0,1,,,,,,,,,,,,,,,,,,,,,,,,,,,,,,,,,,,,,,,
,,,,,,,,2023-08-16_08h43.57.739,HF_wild_card,2022.2.4,Win32,60.12867537,63f79034370a105d5d57d9bd,64d2fd46c836a06233681665,64dc7e2e4ccf48d25f8bce26,,,,,,,decisionTrl,resources/DY.BMP,resources/DR.BMP,Door1,0.25,-0.036111111,1,0,0,2.8488,optionRight,30,1505,1,27,0,27,0,1,,,,,,,,,,,,,,,,,,,,,,,,,,,,,,,,,,,,,,,
,,,,,,,,2023-08-16_08h43.57.739,HF_wild_card,2022.2.4,Win32,60.12867537,63f79034370a105d5d57d9bd,64d2fd46c836a06233681665,64dc7e2e4ccf48d25f8bce26,,,,,,,sngl,resources/Empty.png,resources/DY.BMP,WildCard_NonEx,0.293518519,-0.028703704,1,0,0,0.6991,optionRight,55,1560,1,28,0,28,0,1,,,,,,,,,,,,,,,,,,,,,,,,,,,,,,,,,,,,,,,
,,,,,,,,2023-08-16_08h43.57.739,HF_wild_card,2022.2.4,Win32,60.12867537,63f79034370a105d5d57d9bd,64d2fd46c836a06233681665,64dc7e2e4ccf48d25f8bce26,,,,,,,decisionTrl,resources/DG.BMP,resources/DR.BMP,Door1,0.374074074,-0.075,1,0,0,3.4824,optionRight,30,1590,1,29,0,29,0,1,,,,,,,,,,,,,,,,,,,,,,,,,,,,,,,,,,,,,,,
,,,,,,,,2023-08-16_08h43.57.739,HF_wild_card,2022.2.4,Win32,60.12867537,63f79034370a105d5d57d9bd,64d2fd46c836a06233681665,64dc7e2e4ccf48d25f8bce26,,,,,,,sngl,resources/DG.BMP,resources/Empty.png,Door2,-0.301851852,-0.028703704,1,0,0,0.6488,optionLeft,40,1630,1,30,0,30,0,1,,,,,,,,,,,,,,,,,,,,,,,,,,,,,,,,,,,,,,,
,,,,,,,,2023-08-16_08h43.57.739,HF_wild_card,2022.2.4,Win32,60.12867537,63f79034370a105d5d57d9bd,64d2fd46c836a06233681665,64dc7e2e4ccf48d25f8bce26,,,,,,,decisionTrl,resources/DG.BMP,resources/DR.BMP,Door2,-0.287962963,-0.022222222,1,0,0,0.6439,optionLeft,40,1670,1,31,0,31,0,1,,,,,,,,,,,,,,,,,,,,,,,,,,,,,,,,,,,,,,,
,,,,,,,,2023-08-16_08h43.57.739,HF_wild_card,2022.2.4,Win32,60.12867537,63f79034370a105d5d57d9bd,64d2fd46c836a06233681665,64dc7e2e4ccf48d25f8bce26,,,,,,,sngl,resources/Empty.png,resources/DP.BMP,Door4,0.363888889,-0.042592593,1,0,0,0.6822,optionRight,60,1730,1,32,0,32,0,1,,,,,,,,,,,,,,,,,,,,,,,,,,,,,,,,,,,,,,,
,,,,,,,,2023-08-16_08h43.57.739,HF_wild_card,2022.2.4,Win32,60.12867537,63f79034370a105d5d57d9bd,64d2fd46c836a06233681665,64dc7e2e4ccf48d25f8bce26,,,,,,,ctch,resources/DR.BMP,resources/DP.BMP,Door4,0.340740741,-0.037037037,1,0,0,1.2707,optionRight,60,1790,1,33,0,33,0,1,,,,,,,,,,,,,,,,,,,,,,,,,,,,,,,,,,,,,,,
,,,,,,,,2023-08-16_08h43.57.739,HF_wild_card,2022.2.4,Win32,60.12867537,63f79034370a105d5d57d9bd,64d2fd46c836a06233681665,64dc7e2e4ccf48d25f8bce26,,,,,,,decisionTrl,resources/DP.BMP,resources/DB.BMP,Door3,0.283333333,-0.052777778,1,0,0,1.4317,optionRight,70,1860,1,34,0,34,0,1,,,,,,,,,,,,,,,,,,,,,,,,,,,,,,,,,,,,,,,
,,,,,,,,2023-08-16_08h43.57.739,HF_wild_card,2022.2.4,Win32,60.12867537,63f79034370a105d5d57d9bd,64d2fd46c836a06233681665,64dc7e2e4ccf48d25f8bce26,,,,,,,decisionTrl,resources/DG.BMP,resources/DR.BMP,Door2,-0.251851852,-0.025,1,0,0,2.9017,optionLeft,40,1900,1,35,0,35,0,1,,,,,,,,,,,,,,,,,,,,,,,,,,,,,,,,,,,,,,,
,,,,,,,,2023-08-16_08h43.57.739,HF_wild_card,2022.2.4,Win32,60.12867537,63f79034370a105d5d57d9bd,64d2fd46c836a06233681665,64dc7e2e4ccf48d25f8bce26,,,,,,,ctch,resources/DR.BMP,resources/DP.BMP,Door4,0.278703704,-0.046296296,1,0,0,2.3108,optionRight,80,1980,1,36,0,36,0,1,,,,,,,,,,,,,,,,,,,,,,,,,,,,,,,,,,,,,,,
,,,,,,,,2023-08-16_08h43.57.739,HF_wild_card,2022.2.4,Win32,60.12867537,63f79034370a105d5d57d9bd,64d2fd46c836a06233681665,64dc7e2e4ccf48d25f8bce26,,,,,,,decisionTrl,resources/DP.BMP,resources/DB.BMP,Door4,-0.300925926,-0.033333333,1,0,0,2.1822,optionLeft,60,2040,1,37,0,37,0,1,,,,,,,,,,,,,,,,,,,,,,,,,,,,,,,,,,,,,,,
,,,,,,,,2023-08-16_08h43.57.739,HF_wild_card,2022.2.4,Win32,60.12867537,63f79034370a105d5d57d9bd,64d2fd46c836a06233681665,64dc7e2e4ccf48d25f8bce26,,,,,,,sngl,resources/DP.BMP,resources/Empty.png,Door4,-0.244444444,-0.022222222,1,0,0,0.8322,optionLeft,80,2120,1,38,0,38,0,1,,,,,,,,,,,,,,,,,,,,,,,,,,,,,,,,,,,,,,,
,,,,,,,,2023-08-16_08h43.57.739,HF_wild_card,2022.2.4,Win32,60.12867537,63f79034370a105d5d57d9bd,64d2fd46c836a06233681665,64dc7e2e4ccf48d25f8bce26,,,,,,,decisionTrl,resources/DR.BMP,resources/DY.BMP,Door1,-0.373148148,-0.027777778,1,0,0,4.2653,optionLeft,30,2150,1,39,0,39,0,1,,,,,,,,,,,,,,,,,,,,,,,,,,,,,,,,,,,,,,,
,,,,,,,,2023-08-16_08h43.57.739,HF_wild_card,2022.2.4,Win32,60.12867537,63f79034370a105d5d57d9bd,64d2fd46c836a06233681665,64dc7e2e4ccf48d25f8bce26,,,,,,,sngl,resources/Empty.png,resources/DG.BMP,Door2,0.274074074,-0.025925926,1,0,0,0.7491,optionRight,20,2170,1,40,0,40,0,1,,,,,,,,,,,,,,,,,,,,,,,,,,,,,,,,,,,,,,,
,,,,,,,,2023-08-16_08h43.57.739,HF_wild_card,2022.2.4,Win32,60.12867537,63f79034370a105d5d57d9bd,64d2fd46c836a06233681665,64dc7e2e4ccf48d25f8bce26,,,,,,,decisionTrl,resources/DR.BMP,resources/DG.BMP,Door1,-0.306481481,-0.009259259,1,0,0,1.2706,optionLeft,30,2200,1,41,0,41,0,1,,,,,,,,,,,,,,,,,,,,,,,,,,,,,,,,,,,,,,,
,,,,,,,,2023-08-16_08h43.57.739,HF_wild_card,2022.2.4,Win32,60.12867537,63f79034370a105d5d57d9bd,64d2fd46c836a06233681665,64dc7e2e4ccf48d25f8bce26,,,,,,,ctch,resources/DP.BMP,resources/DR.BMP,Door4,-0.296296296,-0.027777778,1,0,0,1.4491,optionLeft,60,2260,1,42,0,42,0,1,,,,,,,,,,,,,,,,,,,,,,,,,,,,,,,,,,,,,,,
,,,,,,,,2023-08-16_08h43.57.739,HF_wild_card,2022.2.4,Win32,60.12867537,63f79034370a105d5d57d9bd,64d2fd46c836a06233681665,64dc7e2e4ccf48d25f8bce26,,,,,,,ctch,resources/DG.BMP,resources/DB.BMP,Door3,0.244444444,-0.038888889,1,0,0,1.4998,optionRight,70,2330,1,43,0,43,0,1,,,,,,,,,,,,,,,,,,,,,,,,,,,,,,,,,,,,,,,
,,,,,,,,2023-08-16_08h43.57.739,HF_wild_card,2022.2.4,Win32,60.12867537,63f79034370a105d5d57d9bd,64d2fd46c836a06233681665,64dc7e2e4ccf48d25f8bce26,,,,,,,,,,,,,,,,,,,,,,,,,,0,0,0,0,1,,,,,,,,,,,,,,,,,,,,,,,,,,,,,,,,,,
,,,,,,,,2023-08-16_08h43.57.739,HF_wild_card,2022.2.4,Win32,60.12867537,63f79034370a105d5d57d9bd,64d2fd46c836a06233681665,64dc7e2e4ccf48d25f8bce26,,,,,,,decisionTrl,resources/DG.BMP,resources/DR.BMP,Door2,-0.283333333,-0.026851852,1,0,0,2.0432,optionLeft,20,2350,2,0,0,0,0,1,,,,,,,,,,,,,,,,,,,,,,,,,,,,,,,,,,,,,,,
,,,,,,,,2023-08-16_08h43.57.739,HF_wild_card,2022.2.4,Win32,60.12867537,63f79034370a105d5d57d9bd,64d2fd46c836a06233681665,64dc7e2e4ccf48d25f8bce26,,,,,,,decisionTrl,resources/DG.BMP,resources/DY.BMP,WildCard_NonEx,0.272222222,-0.039814815,1,0,0,1.2355,optionRight,55,2405,2,1,0,1,0,1,,,,,,,,,,,,,,,,,,,,,,,,,,,,,,,,,,,,,,,
,,,,,,,,2023-08-16_08h43.57.739,HF_wild_card,2022.2.4,Win32,60.12867537,63f79034370a105d5d57d9bd,64d2fd46c836a06233681665,64dc7e2e4ccf48d25f8bce26,,,,,,,ctch,resources/DB.BMP,resources/DG.BMP,Door3,-0.337962963,-0.02962963,1,0,0,1.0794,optionLeft,70,2475,2,2,0,2,0,1,,,,,,,,,,,,,,,,,,,,,,,,,,,,,,,,,,,,,,,
,,,,,,,,2023-08-16_08h43.57.739,HF_wild_card,2022.2.4,Win32,60.12867537,63f79034370a105d5d57d9bd,64d2fd46c836a06233681665,64dc7e2e4ccf48d25f8bce26,,,,,,,sngl,resources/DY.BMP,resources/Empty.png,WildCard_NonEx,-0.260185185,-0.016666667,1,0,0,0.8327,optionLeft,55,2530,2,3,0,3,0,1,,,,,,,,,,,,,,,,,,,,,,,,,,,,,,,,,,,,,,,
,,,,,,,,2023-08-16_08h43.57.739,HF_wild_card,2022.2.4,Win32,60.12867537,63f79034370a105d5d57d9bd,64d2fd46c836a06233681665,64dc7e2e4ccf48d25f8bce26,,,,,,,decisionTrl,resources/DP.BMP,resources/DB.BMP,Door3,0.281481481,-0.039814815,1,0,0,3.452,optionRight,70,2600,2,4,0,4,0,1,,,,,,,,,,,,,,,,,,,,,,,,,,,,,,,,,,,,,,,
,,,,,,,,2023-08-16_08h43.57.739,HF_wild_card,2022.2.4,Win32,60.12867537,63f79034370a105d5d57d9bd,64d2fd46c836a06233681665,64dc7e2e4ccf48d25f8bce26,,,,,,,decisionTrl,resources/DR.BMP,resources/DG.BMP,Door1,-0.257407407,-0.021296296,1,0,0,3.4441,optionLeft,30,2630,2,5,0,5,0,1,,,,,,,,,,,,,,,,,,,,,,,,,,,,,,,,,,,,,,,
,,,,,,,,2023-08-16_08h43.57.739,HF_wild_card,2022.2.4,Win32,60.12867537,63f79034370a105d5d57d9bd,64d2fd46c836a06233681665,64dc7e2e4ccf48d25f8bce26,,,,,,,decisionTrl,resources/DR.BMP,resources/DY.BMP,WildCard_NonEx,0.290740741,-0.044444444,1,0,0,1.3606,optionRight,55,2685,2,6,0,6,0,1,,,,,,,,,,,,,,,,,,,,,,,,,,,,,,,,,,,,,,,
,,,,,,,,2023-08-16_08h43.57.739,HF_wild_card,2022.2.4,Win32,60.12867537,63f79034370a105d5d57d9bd,64d2fd46c836a06233681665,64dc7e2e4ccf48d25f8bce26,,,,,,,decisionTrl,resources/DG.BMP,resources/DR.BMP,Door1,0.308333333,-0.051851852,1,0,0,2.1493,optionRight,30,2715,2,7,0,7,0,1,,,,,,,,,,,,,,,,,,,,,,,,,,,,,,,,,,,,,,,
,,,,,,,,2023-08-16_08h43.57.739,HF_wild_card,2022.2.4,Win32,60.12867537,63f79034370a105d5d57d9bd,64d2fd46c836a06233681665,64dc7e2e4ccf48d25f8bce26,,,,,,,sngl,resources/DR.BMP,resources/Empty.png,Door1,-0.366666667,-0.025925926,1,0,0,0.733,optionLeft,30,2745,2,8,0,8,0,1,,,,,,,,,,,,,,,,,,,,,,,,,,,,,,,,,,,,,,,
,,,,,,,,2023-08-16_08h43.57.739,HF_wild_card,2022.2.4,Win32,60.12867537,63f79034370a105d5d57d9bd,64d2fd46c836a06233681665,64dc7e2e4ccf48d25f8bce26,,,,,,,decisionTrl,resources/DP.BMP,resources/DB.BMP,Door4,-0.340740741,-0.022222222,1,0,0,2.8444,optionLeft,60,2805,2,9,0,9,0,1,,,,,,,,,,,,,,,,,,,,,,,,,,,,,,,,,,,,,,,
,,,,,,,,2023-08-16_08h43.57.739,HF_wild_card,2022.2.4,Win32,60.12867537,63f79034370a105d5d57d9bd,64d2fd46c836a06233681665,64dc7e2e4ccf48d25f8bce26,,,,,,,sngl,resources/Empty.png,resources/DR.BMP,Door1,0.316666667,-0.023148148,1,0,0,1.1324,optionRight,30,2835,2,10,0,10,0,1,,,,,,,,,,,,,,,,,,,,,,,,,,,,,,,,,,,,,,,
,,,,,,,,2023-08-16_08h43.57.739,HF_wild_card,2022.2.4,Win32,60.12867537,63f79034370a105d5d57d9bd,64d2fd46c836a06233681665,64dc7e2e4ccf48d25f8bce26,,,,,,,sngl,resources/DG.BMP,resources/Empty.png,Door2,-0.283333333,-0.02037037,1,0,0,0.8369,optionLeft,20,2855,2,11,0,11,0,1,,,,,,,,,,,,,,,,,,,,,,,,,,,,,,,,,,,,,,,
,,,,,,,,2023-08-16_08h43.57.739,HF_wild_card,2022.2.4,Win32,60.12867537,63f79034370a105d5d57d9bd,64d2fd46c836a06233681665,64dc7e2e4ccf48d25f8bce26,,,,,,,decisionTrl,resources/DB.BMP,resources/DP.BMP,Door3,-0.275925926,-0.043518519,1,0,0,1.4818,optionLeft,70,2925,2,12,0,12,0,1,,,,,,,,,,,,,,,,,,,,,,,,,,,,,,,,,,,,,,,
,,,,,,,,2023-08-16_08h43.57.739,HF_wild_card,2022.2.4,Win32,60.12867537,63f79034370a105d5d57d9bd,64d2fd46c836a06233681665,64dc7e2e4ccf48d25f8bce26,,,,,,,ctch,resources/DP.BMP,resources/DR.BMP,Door4,-0.32037037,-0.039814815,1,0,0,0.8106,optionLeft,80,3005,2,13,0,13,0,1,,,,,,,,,,,,,,,,,,,,,,,,,,,,,,,,,,,,,,,
,,,,,,,,2023-08-16_08h43.57.739,HF_wild_card,2022.2.4,Win32,60.12867537,63f79034370a105d5d57d9bd,64d2fd46c836a06233681665,64dc7e2e4ccf48d25f8bce26,,,,,,,decisionTrl,resources/DB.BMP,resources/DP.BMP,Door3,-0.289814815,-0.021296296,1,0,0,2.5492,optionLeft,70,3075,2,14,0,14,0,1,,,,,,,,,,,,,,,,,,,,,,,,,,,,,,,,,,,,,,,
,,,,,,,,2023-08-16_08h43.57.739,HF_wild_card,2022.2.4,Win32,60.12867537,63f79034370a105d5d57d9bd,64d2fd46c836a06233681665,64dc7e2e4ccf48d25f8bce26,,,,,,,decisionTrl,resources/DY.BMP,resources/DB.BMP,Door3,0.32037037,-0.003703704,1,0,0,6.3328,optionRight,70,3145,2,15,0,15,0,1,,,,,,,,,,,,,,,,,,,,,,,,,,,,,,,,,,,,,,,
,,,,,,,,2023-08-16_08h43.57.739,HF_wild_card,2022.2.4,Win32,60.12867537,63f79034370a105d5d57d9bd,64d2fd46c836a06233681665,64dc7e2e4ccf48d25f8bce26,,,,,,,decisionTrl,resources/DB.BMP,resources/DY.BMP,Door3,-0.318518519,-0.019444444,1,0,0,1.5443,optionLeft,70,3215,2,16,0,16,0,1,,,,,,,,,,,,,,,,,,,,,,,,,,,,,,,,,,,,,,,
,,,,,,,,2023-08-16_08h43.57.739,HF_wild_card,2022.2.4,Win32,60.12867537,63f79034370a105d5d57d9bd,64d2fd46c836a06233681665,64dc7e2e4ccf48d25f8bce26,,,,,,,sngl,resources/DB.BMP,resources/Empty.png,Door3,-0.293518519,-0.013888889,1,0,0,0.8658,optionLeft,70,3285,2,17,0,17,0,1,,,,,,,,,,,,,,,,,,,,,,,,,,,,,,,,,,,,,,,
,,,,,,,,2023-08-16_08h43.57.739,HF_wild_card,2022.2.4,Win32,60.12867537,63f79034370a105d5d57d9bd,64d2fd46c836a06233681665,64dc7e2e4ccf48d25f8bce26,,,,,,,decisionTrl,resources/DR.BMP,resources/DG.BMP,Door1,-0.319444444,-0.023148148,1,0,0,1.7156,optionLeft,30,3315,2,18,0,18,0,1,,,,,,,,,,,,,,,,,,,,,,,,,,,,,,,,,,,,,,,
,,,,,,,,2023-08-16_08h43.57.739,HF_wild_card,2022.2.4,Win32,60.12867537,63f79034370a105d5d57d9bd,64d2fd46c836a06233681665,64dc7e2e4ccf48d25f8bce26,,,,,,,decisionTrl,resources/DB.BMP,resources/DP.BMP,Door3,-0.362962963,-0.027777778,1,0,0,3.0771,optionLeft,70,3385,2,19,0,19,0,1,,,,,,,,,,,,,,,,,,,,,,,,,,,,,,,,,,,,,,,
,,,,,,,,2023-08-16_08h43.57.739,HF_wild_card,2022.2.4,Win32,60.12867537,63f79034370a105d5d57d9bd,64d2fd46c836a06233681665,64dc7e2e4ccf48d25f8bce26,,,,,,,ctch,resources/DP.BMP,resources/DR.BMP,Door4,-0.262962963,-0.026851852,1,0,0,1.1149,optionLeft,80,3465,2,20,0,20,0,1,,,,,,,,,,,,,,,,,,,,,,,,,,,,,,,,,,,,,,,
,,,,,,,,2023-08-16_08h43.57.739,HF_wild_card,2022.2.4,Win32,60.12867537,63f79034370a105d5d57d9bd,64d2fd46c836a06233681665,64dc7e2e4ccf48d25f8bce26,,,,,,,sngl,resources/Empty.png,resources/DY.BMP,WildCard_NonEx,0.418518519,-0.037037037,1,0,0,2.9886,optionRight,55,3520,2,21,0,21,0,1,,,,,,,,,,,,,,,,,,,,,,,,,,,,,,,,,,,,,,,
,,,,,,,,2023-08-16_08h43.57.739,HF_wild_card,2022.2.4,Win32,60.12867537,63f79034370a105d5d57d9bd,64d2fd46c836a06233681665,64dc7e2e4ccf48d25f8bce26,,,,,,,sngl,resources/Empty.png,resources/DY.BMP,WildCard_NonEx,0.338888889,-0.051851852,1,0,0,0.7987,optionRight,45,3565,2,22,0,22,0,1,,,,,,,,,,,,,,,,,,,,,,,,,,,,,,,,,,,,,,,
,,,,,,,,2023-08-16_08h43.57.739,HF_wild_card,2022.2.4,Win32,60.12867537,63f79034370a105d5d57d9bd,64d2fd46c836a06233681665,64dc7e2e4ccf48d25f8bce26,,,,,,,decisionTrl,resources/DP.BMP,resources/DB.BMP,Door3,0.302777778,-0.033333333,1,0,0,5.3154,optionRight,70,3635,2,23,0,23,0,1,,,,,,,,,,,,,,,,,,,,,,,,,,,,,,,,,,,,,,,
,,,,,,,,2023-08-16_08h43.57.739,HF_wild_card,2022.2.4,Win32,60.12867537,63f79034370a105d5d57d9bd,64d2fd46c836a06233681665,64dc7e2e4ccf48d25f8bce26,,,,,,,ctch,resources/DR.BMP,resources/DP.BMP,Door4,0.322222222,-0.031481481,1,0,0,2.4108,optionRight,60,3695,2,24,0,24,0,1,,,,,,,,,,,,,,,,,,,,,,,,,,,,,,,,,,,,,,,
,,,,,,,,2023-08-16_08h43.57.739,HF_wild_card,2022.2.4,Win32,60.12867537,63f79034370a105d5d57d9bd,64d2fd46c836a06233681665,64dc7e2e4ccf48d25f8bce26,,,,,,,decisionTrl,resources/DR.BMP,resources/DG.BMP,Door1,-0.40462963,-0.018518519,1,0,0,0.9695,optionLeft,30,3725,2,25,0,25,0,1,,,,,,,,,,,,,,,,,,,,,,,,,,,,,,,,,,,,,,,
,,,,,,,,2023-08-16_08h43.57.739,HF_wild_card,2022.2.4,Win32,60.12867537,63f79034370a105d5d57d9bd,64d2fd46c836a06233681665,64dc7e2e4ccf48d25f8bce26,,,,,,,ctch,resources/DG.BMP,resources/DB.BMP,Door2,-0.276851852,-0.024074074,1,0,0,1.5608,optionLeft,40,3765,2,26,0,26,0,1,,,,,,,,,,,,,,,,,,,,,,,,,,,,,,,,,,,,,,,
,,,,,,,,2023-08-16_08h43.57.739,HF_wild_card,2022.2.4,Win32,60.12867537,63f79034370a105d5d57d9bd,64d2fd46c836a06233681665,64dc7e2e4ccf48d25f8bce26,,,,,,,decisionTrl,resources/DG.BMP,resources/DR.BMP,Door2,-0.339814815,-0.019444444,1,0,0,1.166,optionLeft,20,3785,2,27,0,27,0,1,,,,,,,,,,,,,,,,,,,,,,,,,,,,,,,,,,,,,,,
,,,,,,,,2023-08-16_08h43.57.739,HF_wild_card,2022.2.4,Win32,60.12867537,63f79034370a105d5d57d9bd,64d2fd46c836a06233681665,64dc7e2e4ccf48d25f8bce26,,,,,,,decisionTrl,resources/DY.BMP,resources/DP.BMP,WildCard_NonEx,-0.290740741,-0.022222222,1,0,0,1.3986,optionLeft,45,3830,2,28,0,28,0,1,,,,,,,,,,,,,,,,,,,,,,,,,,,,,,,,,,,,,,,
,,,,,,,,2023-08-16_08h43.57.739,HF_wild_card,2022.2.4,Win32,60.12867537,63f79034370a105d5d57d9bd,64d2fd46c836a06233681665,64dc7e2e4ccf48d25f8bce26,,,,,,,decisionTrl,resources/DR.BMP,resources/DG.BMP,Door2,0.317592593,-0.031481481,1,0,0,1.3826,optionRight,40,3870,2,29,0,29,0,1,,,,,,,,,,,,,,,,,,,,,,,,,,,,,,,,,,,,,,,
,,,,,,,,2023-08-16_08h43.57.739,HF_wild_card,2022.2.4,Win32,60.12867537,63f79034370a105d5d57d9bd,64d2fd46c836a06233681665,64dc7e2e4ccf48d25f8bce26,,,,,,,decisionTrl,resources/DY.BMP,resources/DR.BMP,WildCard_NonEx,-0.334259259,-0.022222222,1,0,0,2.1483,optionLeft,55,3925,2,30,0,30,0,1,,,,,,,,,,,,,,,,,,,,,,,,,,,,,,,,,,,,,,,
,,,,,,,,2023-08-16_08h43.57.739,HF_wild_card,2022.2.4,Win32,60.12867537,63f79034370a105d5d57d9bd,64d2fd46c836a06233681665,64dc7e2e4ccf48d25f8bce26,,,,,,,ctch,resources/DB.BMP,resources/DG.BMP,Door2,0.340740741,-0.031481481,1,0,0,1.4494,optionRight,20,3945,2,31,0,31,0,1,,,,,,,,,,,,,,,,,,,,,,,,,,,,,,,,,,,,,,,
,,,,,,,,2023-08-16_08h43.57.739,HF_wild_card,2022.2.4,Win32,60.12867537,63f79034370a105d5d57d9bd,64d2fd46c836a06233681665,64dc7e2e4ccf48d25f8bce26,,,,,,,sngl,resources/Empty.png,resources/DB.BMP,Door3,0.330555556,-0.037962963,1,0,0,0.8658,optionRight,70,4015,2,32,0,32,0,1,,,,,,,,,,,,,,,,,,,,,,,,,,,,,,,,,,,,,,,
,,,,,,,,2023-08-16_08h43.57.739,HF_wild_card,2022.2.4,Win32,60.12867537,63f79034370a105d5d57d9bd,64d2fd46c836a06233681665,64dc7e2e4ccf48d25f8bce26,,,,,,,decisionTrl,resources/DB.BMP,resources/DP.BMP,Door3,-0.293518519,-0.037037037,1,0,0,3.0323,optionLeft,70,4085,2,33,0,33,0,1,,,,,,,,,,,,,,,,,,,,,,,,,,,,,,,,,,,,,,,
,,,,,,,,2023-08-16_08h43.57.739,HF_wild_card,2022.2.4,Win32,60.12867537,63f79034370a105d5d57d9bd,64d2fd46c836a06233681665,64dc7e2e4ccf48d25f8bce26,,,,,,,decisionTrl,resources/DY.BMP,resources/DG.BMP,Door2,0.322222222,-0.046296296,1,0,0,3.2657,optionRight,20,4105,2,34,0,34,0,1,,,,,,,,,,,,,,,,,,,,,,,,,,,,,,,,,,,,,,,
,,,,,,,,2023-08-16_08h43.57.739,HF_wild_card,2022.2.4,Win32,60.12867537,63f79034370a105d5d57d9bd,64d2fd46c836a06233681665,64dc7e2e4ccf48d25f8bce26,,,,,,,decisionTrl,resources/DG.BMP,resources/DR.BMP,Door2,-0.387037037,-0.028703704,1,0,0,1.2657,optionLeft,40,4145,2,35,0,35,0,1,,,,,,,,,,,,,,,,,,,,,,,,,,,,,,,,,,,,,,,
,,,,,,,,2023-08-16_08h43.57.739,HF_wild_card,2022.2.4,Win32,60.12867537,63f79034370a105d5d57d9bd,64d2fd46c836a06233681665,64dc7e2e4ccf48d25f8bce26,,,,,,,sngl,resources/DP.BMP,resources/Empty.png,Door4,-0.344444444,-0.023148148,1,0,0,1.1326,optionLeft,60,4205,2,36,0,36,0,1,,,,,,,,,,,,,,,,,,,,,,,,,,,,,,,,,,,,,,,
,,,,,,,,2023-08-16_08h43.57.739,HF_wild_card,2022.2.4,Win32,60.12867537,63f79034370a105d5d57d9bd,64d2fd46c836a06233681665,64dc7e2e4ccf48d25f8bce26,,,,,,,ctch,resources/DR.BMP,resources/DP.BMP,Door4,0.347222222,-0.076851852,1,0,0,1.916,optionRight,60,4265,2,37,0,37,0,1,,,,,,,,,,,,,,,,,,,,,,,,,,,,,,,,,,,,,,,
,,,,,,,,2023-08-16_08h43.57.739,HF_wild_card,2022.2.4,Win32,60.12867537,63f79034370a105d5d57d9bd,64d2fd46c836a06233681665,64dc7e2e4ccf48d25f8bce26,,,,,,,decisionTrl,resources/DP.BMP,resources/DY.BMP,WildCard_NonEx,0.323148148,-0.063888889,1,0,0,3.0952,optionRight,45,4310,2,38,0,38,0,1,,,,,,,,,,,,,,,,,,,,,,,,,,,,,,,,,,,,,,,
,,,,,,,,2023-08-16_08h43.57.739,HF_wild_card,2022.2.4,Win32,60.12867537,63f79034370a105d5d57d9bd,64d2fd46c836a06233681665,64dc7e2e4ccf48d25f8bce26,,,,,,,sngl,resources/Empty.png,resources/DG.BMP,Door2,0.339814815,-0.033333333,1,0,0,4.3511,optionRight,40,4350,2,39,0,39,0,1,,,,,,,,,,,,,,,,,,,,,,,,,,,,,,,,,,,,,,,
,,,,,,,,2023-08-16_08h43.57.739,HF_wild_card,2022.2.4,Win32,60.12867537,63f79034370a105d5d57d9bd,64d2fd46c836a06233681665,64dc7e2e4ccf48d25f8bce26,,,,,,,sngl,resources/DY.BMP,resources/Empty.png,WildCard_NonEx,-0.333333333,-0.025925926,1,0,0,1.7825,optionLeft,45,4395,2,40,0,40,0,1,,,,,,,,,,,,,,,,,,,,,,,,,,,,,,,,,,,,,,,
,,,,,,,,2023-08-16_08h43.57.739,HF_wild_card,2022.2.4,Win32,60.12867537,63f79034370a105d5d57d9bd,64d2fd46c836a06233681665,64dc7e2e4ccf48d25f8bce26,,,,,,,ctch,resources/DG.BMP,resources/DB.BMP,Door3,0.316666667,-0.015740741,1,0,0,2.4993,optionRight,70,4465,2,41,0,41,0,1,,,,,,,,,,,,,,,,,,,,,,,,,,,,,,,,,,,,,,,
,,,,,,,,2023-08-16_08h43.57.739,HF_wild_card,2022.2.4,Win32,60.12867537,63f79034370a105d5d57d9bd,64d2fd46c836a06233681665,64dc7e2e4ccf48d25f8bce26,,,,,,,decisionTrl,resources/DP.BMP,resources/DB.BMP,Door3,0.260185185,-0.02037037,1,0,0,2.0825,optionRight,70,4535,2,42,0,42,0,1,,,,,,,,,,,,,,,,,,,,,,,,,,,,,,,,,,,,,,,
,,,,,,,,2023-08-16_08h43.57.739,HF_wild_card,2022.2.4,Win32,60.12867537,63f79034370a105d5d57d9bd,64d2fd46c836a06233681665,64dc7e2e4ccf48d25f8bce26,,,,,,,sngl,resources/Empty.png,resources/DP.BMP,Door4,0.338888889,-0.047222222,1,0,0,1.2153,optionRight,80,4615,2,43,0,43,0,1,,,,,,,,,,,,,,,,,,,,,,,,,,,,,,,,,,,,,,,
,,,,,,,,2023-08-16_08h43.57.739,HF_wild_card,2022.2.4,Win32,60.12867537,63f79034370a105d5d57d9bd,64d2fd46c836a06233681665,64dc7e2e4ccf48d25f8bce26,,,,,,,,,,,,,,,,,,,,,,,,,,1,0,1,0,1,,,,,,,,,,,,,,,,,,,,,,,,,,,,,,,,,,
,,,,,,,,2023-08-16_08h43.57.739,HF_wild_card,2022.2.4,Win32,60.12867537,63f79034370a105d5d57d9bd,64d2fd46c836a06233681665,64dc7e2e4ccf48d25f8bce26,,,,,,,decisionTrl,resources/DY.BMP,resources/DG.BMP,Door2,0.416666667,-0.055555556,1,0,0,4.9434,optionRight,40,4655,3,0,0,0,0,1,,,,,,,,,,,,,,,,,,,,,,,,,,,,,,,,,,,,,,,
,,,,,,,,2023-08-16_08h43.57.739,HF_wild_card,2022.2.4,Win32,60.12867537,63f79034370a105d5d57d9bd,64d2fd46c836a06233681665,64dc7e2e4ccf48d25f8bce26,,,,,,,decisionTrl,resources/DG.BMP,resources/DR.BMP,Door2,-0.305555556,-0.017592593,1,0,0,2.1824,optionLeft,40,4695,3,1,0,1,0,1,,,,,,,,,,,,,,,,,,,,,,,,,,,,,,,,,,,,,,,
,,,,,,,,2023-08-16_08h43.57.739,HF_wild_card,2022.2.4,Win32,60.12867537,63f79034370a105d5d57d9bd,64d2fd46c836a06233681665,64dc7e2e4ccf48d25f8bce26,,,,,,,decisionTrl,resources/DR.BMP,resources/DG.BMP,Door2,0.405555556,-0.014814815,1,0,0,1.0108,optionRight,40,4735,3,2,0,2,0,1,,,,,,,,,,,,,,,,,,,,,,,,,,,,,,,,,,,,,,,
,,,,,,,,2023-08-16_08h43.57.739,HF_wild_card,2022.2.4,Win32,60.12867537,63f79034370a105d5d57d9bd,64d2fd46c836a06233681665,64dc7e2e4ccf48d25f8bce26,,,,,,,decisionTrl,resources/DP.BMP,resources/DB.BMP,Door3,0.226851852,-0.022222222,1,0,0,1.6656,optionRight,70,4805,3,3,0,3,0,1,,,,,,,,,,,,,,,,,,,,,,,,,,,,,,,,,,,,,,,
,,,,,,,,2023-08-16_08h43.57.739,HF_wild_card,2022.2.4,Win32,60.12867537,63f79034370a105d5d57d9bd,64d2fd46c836a06233681665,64dc7e2e4ccf48d25f8bce26,,,,,,,decisionTrl,resources/DP.BMP,resources/DB.BMP,Door3,0.277777778,-0.025925926,1,0,0,1.1823,optionRight,70,4875,3,4,0,4,0,1,,,,,,,,,,,,,,,,,,,,,,,,,,,,,,,,,,,,,,,
,,,,,,,,2023-08-16_08h43.57.739,HF_wild_card,2022.2.4,Win32,60.12867537,63f79034370a105d5d57d9bd,64d2fd46c836a06233681665,64dc7e2e4ccf48d25f8bce26,,,,,,,decisionTrl,resources/DY.BMP,resources/DP.BMP,Door4,0.311111111,-0.024074074,1,0,0,1.6111,optionRight,80,4955,3,5,0,5,0,1,,,,,,,,,,,,,,,,,,,,,,,,,,,,,,,,,,,,,,,
,,,,,,,,2023-08-16_08h43.57.739,HF_wild_card,2022.2.4,Win32,60.12867537,63f79034370a105d5d57d9bd,64d2fd46c836a06233681665,64dc7e2e4ccf48d25f8bce26,,,,,,,decisionTrl,resources/DR.BMP,resources/DG.BMP,Door2,0.368518519,-0.023148148,1,0,0,2.1656,optionRight,20,4975,3,6,0,6,0,1,,,,,,,,,,,,,,,,,,,,,,,,,,,,,,,,,,,,,,,
,,,,,,,,2023-08-16_08h43.57.739,HF_wild_card,2022.2.4,Win32,60.12867537,63f79034370a105d5d57d9bd,64d2fd46c836a06233681665,64dc7e2e4ccf48d25f8bce26,,,,,,,decisionTrl,resources/DB.BMP,resources/DP.BMP,Door3,-0.343518519,-0.022222222,1,0,0,2.7489,optionLeft,70,5045,3,7,0,7,0,1,,,,,,,,,,,,,,,,,,,,,,,,,,,,,,,,,,,,,,,
,,,,,,,,2023-08-16_08h43.57.739,HF_wild_card,2022.2.4,Win32,60.12867537,63f79034370a105d5d57d9bd,64d2fd46c836a06233681665,64dc7e2e4ccf48d25f8bce26,,,,,,,decisionTrl,resources/DG.BMP,resources/DR.BMP,Door2,-0.307407407,-0.000925926,1,0,0,1.9658,optionLeft,40,5085,3,8,0,8,0,1,,,,,,,,,,,,,,,,,,,,,,,,,,,,,,,,,,,,,,,
,,,,,,,,2023-08-16_08h43.57.739,HF_wild_card,2022.2.4,Win32,60.12867537,63f79034370a105d5d57d9bd,64d2fd46c836a06233681665,64dc7e2e4ccf48d25f8bce26,,,,,,,ctch,resources/DR.BMP,resources/DP.BMP,Door4,0.376851852,-0.037037037,1,0,0,2.4658,optionRight,60,5145,3,9,0,9,0,1,,,,,,,,,,,,,,,,,,,,,,,,,,,,,,,,,,,,,,,
,,,,,,,,2023-08-16_08h43.57.739,HF_wild_card,2022.2.4,Win32,60.12867537,63f79034370a105d5d57d9bd,64d2fd46c836a06233681665,64dc7e2e4ccf48d25f8bce26,,,,,,,decisionTrl,resources/DR.BMP,resources/DG.BMP,Door2,0.425925926,-0.04537037,1,0,0,1.918,optionRight,20,5165,3,10,0,10,0,1,,,,,,,,,,,,,,,,,,,,,,,,,,,,,,,,,,,,,,,
,,,,,,,,2023-08-16_08h43.57.739,HF_wild_card,2022.2.4,Win32,60.12867537,63f79034370a105d5d57d9bd,64d2fd46c836a06233681665,64dc7e2e4ccf48d25f8bce26,,,,,,,sngl,resources/Empty.png,resources/DY.BMP,WildCard_NonEx,0.311111111,-0.02037037,1,0,0,1.1539,optionRight,55,5220,3,11,0,11,0,1,,,,,,,,,,,,,,,,,,,,,,,,,,,,,,,,,,,,,,,
,,,,,,,,2023-08-16_08h43.57.739,HF_wild_card,2022.2.4,Win32,60.12867537,63f79034370a105d5d57d9bd,64d2fd46c836a06233681665,64dc7e2e4ccf48d25f8bce26,,,,,,,decisionTrl,resources/DR.BMP,resources/DY.BMP,Door1,-0.413888889,-0.035185185,1,0,0,2.5771,optionLeft,30,5250,3,12,0,12,0,1,,,,,,,,,,,,,,,,,,,,,,,,,,,,,,,,,,,,,,,
,,,,,,,,2023-08-16_08h43.57.739,HF_wild_card,2022.2.4,Win32,60.12867537,63f79034370a105d5d57d9bd,64d2fd46c836a06233681665,64dc7e2e4ccf48d25f8bce26,,,,,,,decisionTrl,resources/DY.BMP,resources/DB.BMP,WildCard_NonEx,-0.468518519,-0.027777778,1,0,0,2.8607,optionLeft,45,5295,3,13,0,13,0,1,,,,,,,,,,,,,,,,,,,,,,,,,,,,,,,,,,,,,,,
,,,,,,,,2023-08-16_08h43.57.739,HF_wild_card,2022.2.4,Win32,60.12867537,63f79034370a105d5d57d9bd,64d2fd46c836a06233681665,64dc7e2e4ccf48d25f8bce26,,,,,,,decisionTrl,resources/DP.BMP,resources/DB.BMP,Door3,0.391666667,-0.049074074,1,0,0,1.6441,optionRight,70,5365,3,14,0,14,0,1,,,,,,,,,,,,,,,,,,,,,,,,,,,,,,,,,,,,,,,
,,,,,,,,2023-08-16_08h43.57.739,HF_wild_card,2022.2.4,Win32,60.12867537,63f79034370a105d5d57d9bd,64d2fd46c836a06233681665,64dc7e2e4ccf48d25f8bce26,,,,,,,decisionTrl,resources/DR.BMP,resources/DG.BMP,Door1,-0.406481481,0.007407407,1,0,0,3.0155,optionLeft,30,5395,3,15,0,15,0,1,,,,,,,,,,,,,,,,,,,,,,,,,,,,,,,,,,,,,,,
,,,,,,,,2023-08-16_08h43.57.739,HF_wild_card,2022.2.4,Win32,60.12867537,63f79034370a105d5d57d9bd,64d2fd46c836a06233681665,64dc7e2e4ccf48d25f8bce26,,,,,,,decisionTrl,resources/DB.BMP,resources/DP.BMP,Door3,-0.35,-0.00462963,1,0,0,1.8655,optionLeft,70,5465,3,16,0,16,0,1,,,,,,,,,,,,,,,,,,,,,,,,,,,,,,,,,,,,,,,
,,,,,,,,2023-08-16_08h43.57.739,HF_wild_card,2022.2.4,Win32,60.12867537,63f79034370a105d5d57d9bd,64d2fd46c836a06233681665,64dc7e2e4ccf48d25f8bce26,,,,,,,decisionTrl,resources/DB.BMP,resources/DP.BMP,Door3,-0.305555556,-0.013888889,1,0,0,0.9659,optionLeft,70,5535,3,17,0,17,0,1,,,,,,,,,,,,,,,,,,,,,,,,,,,,,,,,,,,,,,,
,,,,,,,,2023-08-16_08h43.57.739,HF_wild_card,2022.2.4,Win32,60.12867537,63f79034370a105d5d57d9bd,64d2fd46c836a06233681665,64dc7e2e4ccf48d25f8bce26,,,,,,,ctch,resources/DG.BMP,resources/DB.BMP,Door3,0.342592593,-0.038888889,1,0,0,2.0996,optionRight,70,5605,3,18,0,18,0,1,,,,,,,,,,,,,,,,,,,,,,,,,,,,,,,,,,,,,,,
,,,,,,,,2023-08-16_08h43.57.739,HF_wild_card,2022.2.4,Win32,60.12867537,63f79034370a105d5d57d9bd,64d2fd46c836a06233681665,64dc7e2e4ccf48d25f8bce26,,,,,,,decisionTrl,resources/DG.BMP,resources/DY.BMP,WildCard_NonEx,0.328703704,-0.022222222,1,0,0,2.4494,optionRight,55,5660,3,19,0,19,0,1,,,,,,,,,,,,,,,,,,,,,,,,,,,,,,,,,,,,,,,
,,,,,,,,2023-08-16_08h43.57.739,HF_wild_card,2022.2.4,Win32,60.12867537,63f79034370a105d5d57d9bd,64d2fd46c836a06233681665,64dc7e2e4ccf48d25f8bce26,,,,,,,ctch,resources/DR.BMP,resources/DP.BMP,Door4,0.296296296,-0.044444444,1,0,0,2.3659,optionRight,80,5740,3,20,0,20,0,1,,,,,,,,,,,,,,,,,,,,,,,,,,,,,,,,,,,,,,,
,,,,,,,,2023-08-16_08h43.57.739,HF_wild_card,2022.2.4,Win32,60.12867537,63f79034370a105d5d57d9bd,64d2fd46c836a06233681665,64dc7e2e4ccf48d25f8bce26,,,,,,,decisionTrl,resources/DG.BMP,resources/DR.BMP,Door2,-0.359259259,-0.010185185,1,0,0,5.4995,optionLeft,20,5760,3,21,0,21,0,1,,,,,,,,,,,,,,,,,,,,,,,,,,,,,,,,,,,,,,,
,,,,,,,,2023-08-16_08h43.57.739,HF_wild_card,2022.2.4,Win32,60.12867537,63f79034370a105d5d57d9bd,64d2fd46c836a06233681665,64dc7e2e4ccf48d25f8bce26,,,,,,,sngl,resources/Empty.png,resources/DY.BMP,WildCard_NonEx,0.388888889,-0.048148148,1,0,0,0.6985,optionRight,45,5805,3,22,0,22,0,1,,,,,,,,,,,,,,,,,,,,,,,,,,,,,,,,,,,,,,,
,,,,,,,,2023-08-16_08h43.57.739,HF_wild_card,2022.2.4,Win32,60.12867537,63f79034370a105d5d57d9bd,64d2fd46c836a06233681665,64dc7e2e4ccf48d25f8bce26,,,,,,,sngl,resources/DY.BMP,resources/Empty.png,WildCard_NonEx,-0.359259259,-0.011111111,1,0,0,0.633,optionLeft,55,5860,3,23,0,23,0,1,,,,,,,,,,,,,,,,,,,,,,,,,,,,,,,,,,,,,,,
,,,,,,,,2023-08-16_08h43.57.739,HF_wild_card,2022.2.4,Win32,60.12867537,63f79034370a105d5d57d9bd,64d2fd46c836a06233681665,64dc7e2e4ccf48d25f8bce26,,,,,,,decisionTrl,resources/DB.BMP,resources/DP.BMP,Door3,-0.375,-0.013888889,1,0,0,1.6674,optionLeft,70,5930,3,24,0,24,0,1,,,,,,,,,,,,,,,,,,,,,,,,,,,,,,,,,,,,,,,
,,,,,,,,2023-08-16_08h43.57.739,HF_wild_card,2022.2.4,Win32,60.12867537,63f79034370a105d5d57d9bd,64d2fd46c836a06233681665,64dc7e2e4ccf48d25f8bce26,,,,,,,sngl,resources/Empty.png,resources/DP.BMP,Door4,0.353703704,-0.024074074,1,0,0,0.6819,optionRight,60,5990,3,25,0,25,0,1,,,,,,,,,,,,,,,,,,,,,,,,,,,,,,,,,,,,,,,
,,,,,,,,2023-08-16_08h43.57.739,HF_wild_card,2022.2.4,Win32,60.12867537,63f79034370a105d5d57d9bd,64d2fd46c836a06233681665,64dc7e2e4ccf48d25f8bce26,,,,,,,decisionTrl,resources/DP.BMP,resources/DB.BMP,Door3,0.375,-0.037037037,1,0,0,1.6114,optionRight,70,6060,3,26,0,26,0,1,,,,,,,,,,,,,,,,,,,,,,,,,,,,,,,,,,,,,,,
,,,,,,,,2023-08-16_08h43.57.739,HF_wild_card,2022.2.4,Win32,60.12867537,63f79034370a105d5d57d9bd,64d2fd46c836a06233681665,64dc7e2e4ccf48d25f8bce26,,,,,,,sngl,resources/Empty.png,resources/DG.BMP,Door2,0.353703704,-0.006481481,1,0,0,1.4192,optionRight,20,6080,3,27,0,27,0,1,,,,,,,,,,,,,,,,,,,,,,,,,,,,,,,,,,,,,,,
,,,,,,,,2023-08-16_08h43.57.739,HF_wild_card,2022.2.4,Win32,60.12867537,63f79034370a105d5d57d9bd,64d2fd46c836a06233681665,64dc7e2e4ccf48d25f8bce26,,,,,,,ctch,resources/DP.BMP,resources/DR.BMP,Door4,-0.291666667,-0.015740741,1,0,0,3.4996,optionLeft,60,6140,3,28,0,28,0,1,,,,,,,,,,,,,,,,,,,,,,,,,,,,,,,,,,,,,,,
,,,,,,,,2023-08-16_08h43.57.739,HF_wild_card,2022.2.4,Win32,60.12867537,63f79034370a105d5d57d9bd,64d2fd46c836a06233681665,64dc7e2e4ccf48d25f8bce26,,,,,,,sngl,resources/Empty.png,resources/DB.BMP,Door3,0.360185185,-0.049074074,1,0,0,0.7326,optionRight,70,6210,3,29,0,29,0,1,,,,,,,,,,,,,,,,,,,,,,,,,,,,,,,,,,,,,,,
,,,,,,,,2023-08-16_08h43.57.739,HF_wild_card,2022.2.4,Win32,60.12867537,63f79034370a105d5d57d9bd,64d2fd46c836a06233681665,64dc7e2e4ccf48d25f8bce26,,,,,,,sngl,resources/Empty.png,resources/DR.BMP,Door1,0.338888889,-0.037037037,1,0,0,1.067,optionRight,30,6240,3,30,0,30,0,1,,,,,,,,,,,,,,,,,,,,,,,,,,,,,,,,,,,,,,,
,,,,,,,,2023-08-16_08h43.57.739,HF_wild_card,2022.2.4,Win32,60.12867537,63f79034370a105d5d57d9bd,64d2fd46c836a06233681665,64dc7e2e4ccf48d25f8bce26,,,,,,,ctch,resources/DB.BMP,resources/DG.BMP,Door3,-0.325925926,-0.014814815,1,0,0,1.5686,optionLeft,70,6310,3,31,0,31,0,1,,,,,,,,,,,,,,,,,,,,,,,,,,,,,,,,,,,,,,,
,,,,,,,,2023-08-16_08h43.57.739,HF_wild_card,2022.2.4,Win32,60.12867537,63f79034370a105d5d57d9bd,64d2fd46c836a06233681665,64dc7e2e4ccf48d25f8bce26,,,,,,,ctch,resources/DP.BMP,resources/DR.BMP,Door4,-0.319444444,-0.021296296,1,0,0,2.082,optionLeft,60,6370,3,32,0,32,0,1,,,,,,,,,,,,,,,,,,,,,,,,,,,,,,,,,,,,,,,
,,,,,,,,2023-08-16_08h43.57.739,HF_wild_card,2022.2.4,Win32,60.12867537,63f79034370a105d5d57d9bd,64d2fd46c836a06233681665,64dc7e2e4ccf48d25f8bce26,,,,,,,ctch,resources/DG.BMP,resources/DB.BMP,Door3,0.289814815,-0.006481481,1,0,0,1.532,optionRight,70,6440,3,33,0,33,0,1,,,,,,,,,,,,,,,,,,,,,,,,,,,,,,,,,,,,,,,
,,,,,,,,2023-08-16_08h43.57.739,HF_wild_card,2022.2.4,Win32,60.12867537,63f79034370a105d5d57d9bd,64d2fd46c836a06233681665,64dc7e2e4ccf48d25f8bce26,,,,,,,sngl,resources/DB.BMP,resources/Empty.png,Door3,-0.363888889,0,1,0,0,0.6109,optionLeft,70,6510,3,34,0,34,0,1,,,,,,,,,,,,,,,,,,,,,,,,,,,,,,,,,,,,,,,
,,,,,,,,2023-08-16_08h43.57.739,HF_wild_card,2022.2.4,Win32,60.12867537,63f79034370a105d5d57d9bd,64d2fd46c836a06233681665,64dc7e2e4ccf48d25f8bce26,,,,,,,decisionTrl,resources/DP.BMP,resources/DY.BMP,Door4,-0.303703704,-0.018518519,1,0,0,1.8324,optionLeft,60,6570,3,35,0,35,0,1,,,,,,,,,,,,,,,,,,,,,,,,,,,,,,,,,,,,,,,
,,,,,,,,2023-08-16_08h43.57.739,HF_wild_card,2022.2.4,Win32,60.12867537,63f79034370a105d5d57d9bd,64d2fd46c836a06233681665,64dc7e2e4ccf48d25f8bce26,,,,,,,decisionTrl,resources/DY.BMP,resources/DR.BMP,WildCard_NonEx,-0.306481481,-0.015740741,1,0,0,1.7309,optionLeft,55,6625,3,36,0,36,0,1,,,,,,,,,,,,,,,,,,,,,,,,,,,,,,,,,,,,,,,
,,,,,,,,2023-08-16_08h43.57.739,HF_wild_card,2022.2.4,Win32,60.12867537,63f79034370a105d5d57d9bd,64d2fd46c836a06233681665,64dc7e2e4ccf48d25f8bce26,,,,,,,sngl,resources/DR.BMP,resources/Empty.png,Door1,-0.411111111,-0.023148148,1,0,0,0.8619,optionLeft,30,6655,3,37,0,37,0,1,,,,,,,,,,,,,,,,,,,,,,,,,,,,,,,,,,,,,,,
,,,,,,,,2023-08-16_08h43.57.739,HF_wild_card,2022.2.4,Win32,60.12867537,63f79034370a105d5d57d9bd,64d2fd46c836a06233681665,64dc7e2e4ccf48d25f8bce26,,,,,,,decisionTrl,resources/DB.BMP,resources/DY.BMP,Door3,-0.34537037,-0.023148148,1,0,0,1.5193,optionLeft,70,6725,3,38,0,38,0,1,,,,,,,,,,,,,,,,,,,,,,,,,,,,,,,,,,,,,,,
,,,,,,,,2023-08-16_08h43.57.739,HF_wild_card,2022.2.4,Win32,60.12867537,63f79034370a105d5d57d9bd,64d2fd46c836a06233681665,64dc7e2e4ccf48d25f8bce26,,,,,,,ctch,resources/DB.BMP,resources/DG.BMP,Door3,-0.30462963,-0.015740741,1,0,0,1.4864,optionLeft,70,6795,3,39,0,39,0,1,,,,,,,,,,,,,,,,,,,,,,,,,,,,,,,,,,,,,,,
,,,,,,,,2023-08-16_08h43.57.739,HF_wild_card,2022.2.4,Win32,60.12867537,63f79034370a105d5d57d9bd,64d2fd46c836a06233681665,64dc7e2e4ccf48d25f8bce26,,,,,,,sngl,resources/DP.BMP,resources/Empty.png,Door4,-0.311111111,-0.012037037,1,0,0,2.5324,optionLeft,80,6875,3,40,0,40,0,1,,,,,,,,,,,,,,,,,,,,,,,,,,,,,,,,,,,,,,,
,,,,,,,,2023-08-16_08h43.57.739,HF_wild_card,2022.2.4,Win32,60.12867537,63f79034370a105d5d57d9bd,64d2fd46c836a06233681665,64dc7e2e4ccf48d25f8bce26,,,,,,,sngl,resources/DY.BMP,resources/Empty.png,WildCard_NonEx,-0.375,-0.002777778,1,0,0,1.7035,optionLeft,45,6920,3,41,0,41,0,1,,,,,,,,,,,,,,,,,,,,,,,,,,,,,,,,,,,,,,,
,,,,,,,,2023-08-16_08h43.57.739,HF_wild_card,2022.2.4,Win32,60.12867537,63f79034370a105d5d57d9bd,64d2fd46c836a06233681665,64dc7e2e4ccf48d25f8bce26,,,,,,,decisionTrl,resources/DG.BMP,resources/DR.BMP,Door1,0.290740741,-0.02037037,1,0,0,2.2988,optionRight,30,6950,3,42,0,42,0,1,,,,,,,,,,,,,,,,,,,,,,,,,,,,,,,,,,,,,,,
,,,,,,,,2023-08-16_08h43.57.739,HF_wild_card,2022.2.4,Win32,60.12867537,63f79034370a105d5d57d9bd,64d2fd46c836a06233681665,64dc7e2e4ccf48d25f8bce26,,,,,,,sngl,resources/DG.BMP,resources/Empty.png,Door2,-0.331481481,-0.006481481,1,0,0,0.6607,optionLeft,40,6990,3,43,0,43,0,1,,,,,,,,,,,,,,,,,,,,,,,,,,,,,,,,,,,,,,,
,,,,,,,,2023-08-16_08h43.57.739,HF_wild_card,2022.2.4,Win32,60.12867537,63f79034370a105d5d57d9bd,64d2fd46c836a06233681665,64dc7e2e4ccf48d25f8bce26,,,,,,,,,,,,,,,,,,,,,,,,,,2,0,2,0,1,,,,,,,,,,,,,,,,,,,,,,,,,,,,,,,,,,
,,,,,,,,2023-08-16_08h43.57.739,HF_wild_card,2022.2.4,Win32,60.12867537,63f79034370a105d5d57d9bd,64d2fd46c836a06233681665,64dc7e2e4ccf48d25f8bce26,,,,,,,ctch,resources/DP.BMP,resources/DR.BMP,Door4,-0.319444444,-0.098148148,1,0,0,1.199,optionLeft,60,7050,4,0,0,0,0,1,,,,,,,,,,,,,,,,,,,,,,,,,,,,,,,,,,,,,,,
,,,,,,,,2023-08-16_08h43.57.739,HF_wild_card,2022.2.4,Win32,60.12867537,63f79034370a105d5d57d9bd,64d2fd46c836a06233681665,64dc7e2e4ccf48d25f8bce26,,,,,,,decisionTrl,resources/DR.BMP,resources/DG.BMP,Door2,0.440740741,-0.012962963,1,0,0,3.4373,optionRight,40,7090,4,1,0,1,0,1,,,,,,,,,,,,,,,,,,,,,,,,,,,,,,,,,,,,,,,
,,,,,,,,2023-08-16_08h43.57.739,HF_wild_card,2022.2.4,Win32,60.12867537,63f79034370a105d5d57d9bd,64d2fd46c836a06233681665,64dc7e2e4ccf48d25f8bce26,,,,,,,sngl,resources/Empty.png,resources/DBN.BMP,WildCard_Ex,0.365740741,-0.009259259,1,0,0,1.7491,optionRight,45,7135,4,2,0,2,0,1,,,,,,,,,,,,,,,,,,,,,,,,,,,,,,,,,,,,,,,
,,,,,,,,2023-08-16_08h43.57.739,HF_wild_card,2022.2.4,Win32,60.12867537,63f79034370a105d5d57d9bd,64d2fd46c836a06233681665,64dc7e2e4ccf48d25f8bce26,,,,,,,sngl,resources/DG.BMP,resources/Empty.png,Door2,-0.337962963,-0.025,1,0,0,1.0328,optionLeft,20,7155,4,3,0,3,0,1,,,,,,,,,,,,,,,,,,,,,,,,,,,,,,,,,,,,,,,
,,,,,,,,2023-08-16_08h43.57.739,HF_wild_card,2022.2.4,Win32,60.12867537,63f79034370a105d5d57d9bd,64d2fd46c836a06233681665,64dc7e2e4ccf48d25f8bce26,,,,,,,decisionTrl,resources/DB.BMP,resources/DP.BMP,Door3,-0.368518519,-0.016666667,1,0,0,2.4484,optionLeft,70,7225,4,4,0,4,0,1,,,,,,,,,,,,,,,,,,,,,,,,,,,,,,,,,,,,,,,
,,,,,,,,2023-08-16_08h43.57.739,HF_wild_card,2022.2.4,Win32,60.12867537,63f79034370a105d5d57d9bd,64d2fd46c836a06233681665,64dc7e2e4ccf48d25f8bce26,,,,,,,sngl,resources/Empty.png,resources/DB.BMP,Door3,0.435185185,-0.031481481,1,0,0,0.7985,optionRight,70,7295,4,5,0,5,0,1,,,,,,,,,,,,,,,,,,,,,,,,,,,,,,,,,,,,,,,
,,,,,,,,2023-08-16_08h43.57.739,HF_wild_card,2022.2.4,Win32,60.12867537,63f79034370a105d5d57d9bd,64d2fd46c836a06233681665,64dc7e2e4ccf48d25f8bce26,,,,,,,decisionTrl,resources/DR.BMP,resources/DG.BMP,Door2,0.415740741,-0.033333333,1,0,0,2.1832,optionRight,40,7335,4,6,0,6,0,1,,,,,,,,,,,,,,,,,,,,,,,,,,,,,,,,,,,,,,,
,,,,,,,,2023-08-16_08h43.57.739,HF_wild_card,2022.2.4,Win32,60.12867537,63f79034370a105d5d57d9bd,64d2fd46c836a06233681665,64dc7e2e4ccf48d25f8bce26,,,,,,,ctch,resources/DG.BMP,resources/DB.BMP,Door3,0.358333333,-0.021296296,1,0,0,1.3994,optionRight,70,7405,4,7,0,7,0,1,,,,,,,,,,,,,,,,,,,,,,,,,,,,,,,,,,,,,,,
,,,,,,,,2023-08-16_08h43.57.739,HF_wild_card,2022.2.4,Win32,60.12867537,63f79034370a105d5d57d9bd,64d2fd46c836a06233681665,64dc7e2e4ccf48d25f8bce26,,,,,,,decisionTrl,resources/DB.BMP,resources/DBN.BMP,Door3,-0.338888889,-0.012037037,1,0,0,2.2653,optionLeft,70,7475,4,8,0,8,0,1,,,,,,,,,,,,,,,,,,,,,,,,,,,,,,,,,,,,,,,
,,,,,,,,2023-08-16_08h43.57.739,HF_wild_card,2022.2.4,Win32,60.12867537,63f79034370a105d5d57d9bd,64d2fd46c836a06233681665,64dc7e2e4ccf48d25f8bce26,,,,,,,decisionTrl,resources/DG.BMP,resources/DBN.BMP,WildCard_Ex,0.308333333,-0.000925926,1,0,0,2.9659,optionRight,55,7530,4,9,0,9,0,1,,,,,,,,,,,,,,,,,,,,,,,,,,,,,,,,,,,,,,,
,,,,,,,,2023-08-16_08h43.57.739,HF_wild_card,2022.2.4,Win32,60.12867537,63f79034370a105d5d57d9bd,64d2fd46c836a06233681665,64dc7e2e4ccf48d25f8bce26,,,,,,,decisionTrl,resources/DB.BMP,resources/DP.BMP,Door3,-0.310185185,-0.031481481,1,0,0,2.0028,optionLeft,70,7600,4,10,0,10,0,1,,,,,,,,,,,,,,,,,,,,,,,,,,,,,,,,,,,,,,,
,,,,,,,,2023-08-16_08h43.57.739,HF_wild_card,2022.2.4,Win32,60.12867537,63f79034370a105d5d57d9bd,64d2fd46c836a06233681665,64dc7e2e4ccf48d25f8bce26,,,,,,,decisionTrl,resources/DBN.BMP,resources/DR.BMP,WildCard_Ex,-0.306481481,-0.003703704,1,0,0,2.5267,optionLeft,45,7645,4,11,0,11,0,1,,,,,,,,,,,,,,,,,,,,,,,,,,,,,,,,,,,,,,,
,,,,,,,,2023-08-16_08h43.57.739,HF_wild_card,2022.2.4,Win32,60.12867537,63f79034370a105d5d57d9bd,64d2fd46c836a06233681665,64dc7e2e4ccf48d25f8bce26,,,,,,,ctch,resources/DR.BMP,resources/DP.BMP,Door4,0.289814815,-0.075925926,1,0,0,1.8775,optionRight,80,7725,4,12,0,12,0,1,,,,,,,,,,,,,,,,,,,,,,,,,,,,,,,,,,,,,,,
,,,,,,,,2023-08-16_08h43.57.739,HF_wild_card,2022.2.4,Win32,60.12867537,63f79034370a105d5d57d9bd,64d2fd46c836a06233681665,64dc7e2e4ccf48d25f8bce26,,,,,,,decisionTrl,resources/DG.BMP,resources/DR.BMP,Door1,0.334259259,-0.032407407,1,0,0,2.3328,optionRight,30,7755,4,13,0,13,0,1,,,,,,,,,,,,,,,,,,,,,,,,,,,,,,,,,,,,,,,
,,,,,,,,2023-08-16_08h43.57.739,HF_wild_card,2022.2.4,Win32,60.12867537,63f79034370a105d5d57d9bd,64d2fd46c836a06233681665,64dc7e2e4ccf48d25f8bce26,,,,,,,decisionTrl,resources/DP.BMP,resources/DB.BMP,Door3,0.263888889,-0.010185185,1,0,0,1.566,optionRight,70,7825,4,14,0,14,0,1,,,,,,,,,,,,,,,,,,,,,,,,,,,,,,,,,,,,,,,
,,,,,,,,2023-08-16_08h43.57.739,HF_wild_card,2022.2.4,Win32,60.12867537,63f79034370a105d5d57d9bd,64d2fd46c836a06233681665,64dc7e2e4ccf48d25f8bce26,,,,,,,decisionTrl,resources/DG.BMP,resources/DR.BMP,Door2,-0.347222222,-0.015740741,1,0,0,4.716,optionLeft,40,7865,4,15,0,15,0,1,,,,,,,,,,,,,,,,,,,,,,,,,,,,,,,,,,,,,,,
,,,,,,,,2023-08-16_08h43.57.739,HF_wild_card,2022.2.4,Win32,60.12867537,63f79034370a105d5d57d9bd,64d2fd46c836a06233681665,64dc7e2e4ccf48d25f8bce26,,,,,,,sngl,resources/Empty.png,resources/DR.BMP,Door1,0.381481481,-0.031481481,1,0,0,0.8656,optionRight,30,7895,4,16,0,16,0,1,,,,,,,,,,,,,,,,,,,,,,,,,,,,,,,,,,,,,,,
,,,,,,,,2023-08-16_08h43.57.739,HF_wild_card,2022.2.4,Win32,60.12867537,63f79034370a105d5d57d9bd,64d2fd46c836a06233681665,64dc7e2e4ccf48d25f8bce26,,,,,,,ctch,resources/DB.BMP,resources/DG.BMP,Door3,-0.253703704,-0.024074074,1,0,0,1.5826,optionLeft,70,7965,4,17,0,17,0,1,,,,,,,,,,,,,,,,,,,,,,,,,,,,,,,,,,,,,,,
,,,,,,,,2023-08-16_08h43.57.739,HF_wild_card,2022.2.4,Win32,60.12867537,63f79034370a105d5d57d9bd,64d2fd46c836a06233681665,64dc7e2e4ccf48d25f8bce26,,,,,,,sngl,resources/Empty.png,resources/DP.BMP,Door4,0.289814815,-0.026851852,1,0,0,0.8298,optionRight,80,8045,4,18,0,18,0,1,,,,,,,,,,,,,,,,,,,,,,,,,,,,,,,,,,,,,,,
,,,,,,,,2023-08-16_08h43.57.739,HF_wild_card,2022.2.4,Win32,60.12867537,63f79034370a105d5d57d9bd,64d2fd46c836a06233681665,64dc7e2e4ccf48d25f8bce26,,,,,,,decisionTrl,resources/DG.BMP,resources/DR.BMP,Door2,-0.399074074,-0.021296296,1,0,0,3.383,optionLeft,20,8065,4,19,0,19,0,1,,,,,,,,,,,,,,,,,,,,,,,,,,,,,,,,,,,,,,,
,,,,,,,,2023-08-16_08h43.57.739,HF_wild_card,2022.2.4,Win32,60.12867537,63f79034370a105d5d57d9bd,64d2fd46c836a06233681665,64dc7e2e4ccf48d25f8bce26,,,,,,,ctch,resources/DG.BMP,resources/DB.BMP,Door3,0.292592593,-0.032407407,1,0,0,1.2772,optionRight,70,8135,4,20,0,20,0,1,,,,,,,,,,,,,,,,,,,,,,,,,,,,,,,,,,,,,,,
,,,,,,,,2023-08-16_08h43.57.739,HF_wild_card,2022.2.4,Win32,60.12867537,63f79034370a105d5d57d9bd,64d2fd46c836a06233681665,64dc7e2e4ccf48d25f8bce26,,,,,,,sngl,resources/Empty.png,resources/DBN.BMP,WildCard_Ex,0.37962963,-0.013888889,1,0,0,0.8272,optionRight,55,8190,4,21,0,21,0,1,,,,,,,,,,,,,,,,,,,,,,,,,,,,,,,,,,,,,,,
,,,,,,,,2023-08-16_08h43.57.739,HF_wild_card,2022.2.4,Win32,60.12867537,63f79034370a105d5d57d9bd,64d2fd46c836a06233681665,64dc7e2e4ccf48d25f8bce26,,,,,,,ctch,resources/DB.BMP,resources/DG.BMP,Door3,-0.307407407,-0.023148148,1,0,0,1.9151,optionLeft,70,8260,4,22,0,22,0,1,,,,,,,,,,,,,,,,,,,,,,,,,,,,,,,,,,,,,,,
,,,,,,,,2023-08-16_08h43.57.739,HF_wild_card,2022.2.4,Win32,60.12867537,63f79034370a105d5d57d9bd,64d2fd46c836a06233681665,64dc7e2e4ccf48d25f8bce26,,,,,,,decisionTrl,resources/DBN.BMP,resources/DB.BMP,Door3,0.296296296,-0.021296296,1,0,0,1.9107,optionRight,70,8330,4,23,0,23,0,1,,,,,,,,,,,,,,,,,,,,,,,,,,,,,,,,,,,,,,,
,,,,,,,,2023-08-16_08h43.57.739,HF_wild_card,2022.2.4,Win32,60.12867537,63f79034370a105d5d57d9bd,64d2fd46c836a06233681665,64dc7e2e4ccf48d25f8bce26,,,,,,,decisionTrl,resources/DP.BMP,resources/DB.BMP,Door3,0.314814815,-0.031481481,1,0,0,6.0659,optionRight,70,8400,4,24,0,24,0,1,,,,,,,,,,,,,,,,,,,,,,,,,,,,,,,,,,,,,,,
,,,,,,,,2023-08-16_08h43.57.739,HF_wild_card,2022.2.4,Win32,60.12867537,63f79034370a105d5d57d9bd,64d2fd46c836a06233681665,64dc7e2e4ccf48d25f8bce26,,,,,,,decisionTrl,resources/DBN.BMP,resources/DG.BMP,WildCard_Ex,-0.352777778,-0.017592593,1,0,0,1.1991,optionLeft,55,8455,4,25,0,25,0,1,,,,,,,,,,,,,,,,,,,,,,,,,,,,,,,,,,,,,,,
,,,,,,,,2023-08-16_08h43.57.739,HF_wild_card,2022.2.4,Win32,60.12867537,63f79034370a105d5d57d9bd,64d2fd46c836a06233681665,64dc7e2e4ccf48d25f8bce26,,,,,,,decisionTrl,resources/DR.BMP,resources/DG.BMP,Door2,0.40462963,-0.05,1,0,0,4.9296,optionRight,20,8475,4,26,0,26,0,1,,,,,,,,,,,,,,,,,,,,,,,,,,,,,,,,,,,,,,,
,,,,,,,,2023-08-16_08h43.57.739,HF_wild_card,2022.2.4,Win32,60.12867537,63f79034370a105d5d57d9bd,64d2fd46c836a06233681665,64dc7e2e4ccf48d25f8bce26,,,,,,,sngl,resources/DBN.BMP,resources/Empty.png,WildCard_Ex,-0.383333333,-0.041666667,1,0,0,0.8993,optionLeft,55,8530,4,27,0,27,0,1,,,,,,,,,,,,,,,,,,,,,,,,,,,,,,,,,,,,,,,
,,,,,,,,2023-08-16_08h43.57.739,HF_wild_card,2022.2.4,Win32,60.12867537,63f79034370a105d5d57d9bd,64d2fd46c836a06233681665,64dc7e2e4ccf48d25f8bce26,,,,,,,decisionTrl,resources/DP.BMP,resources/DBN.BMP,Door4,-0.424074074,-0.044444444,1,0,0,3.2159,optionLeft,80,8610,4,28,0,28,0,1,,,,,,,,,,,,,,,,,,,,,,,,,,,,,,,,,,,,,,,
,,,,,,,,2023-08-16_08h43.57.739,HF_wild_card,2022.2.4,Win32,60.12867537,63f79034370a105d5d57d9bd,64d2fd46c836a06233681665,64dc7e2e4ccf48d25f8bce26,,,,,,,decisionTrl,resources/DP.BMP,resources/DB.BMP,Door3,0.337962963,-0.048148148,1,0,0,2.1208,optionRight,70,8680,4,29,0,29,0,1,,,,,,,,,,,,,,,,,,,,,,,,,,,,,,,,,,,,,,,
,,,,,,,,2023-08-16_08h43.57.739,HF_wild_card,2022.2.4,Win32,60.12867537,63f79034370a105d5d57d9bd,64d2fd46c836a06233681665,64dc7e2e4ccf48d25f8bce26,,,,,,,decisionTrl,resources/DB.BMP,resources/DP.BMP,Door3,-0.461111111,-0.036111111,1,0,0,1.5938,optionLeft,70,8750,4,30,0,30,0,1,,,,,,,,,,,,,,,,,,,,,,,,,,,,,,,,,,,,,,,
,,,,,,,,2023-08-16_08h43.57.739,HF_wild_card,2022.2.4,Win32,60.12867537,63f79034370a105d5d57d9bd,64d2fd46c836a06233681665,64dc7e2e4ccf48d25f8bce26,,,,,,,decisionTrl,resources/DR.BMP,resources/DG.BMP,Door2,0.325,-0.026851852,1,0,0,4.8991,optionRight,40,8790,4,31,0,31,0,1,,,,,,,,,,,,,,,,,,,,,,,,,,,,,,,,,,,,,,,
,,,,,,,,2023-08-16_08h43.57.739,HF_wild_card,2022.2.4,Win32,60.12867537,63f79034370a105d5d57d9bd,64d2fd46c836a06233681665,64dc7e2e4ccf48d25f8bce26,,,,,,,ctch,resources/DP.BMP,resources/DR.BMP,Door4,-0.318518519,-0.036111111,1,0,0,1.6657,optionLeft,60,8850,4,32,0,32,0,1,,,,,,,,,,,,,,,,,,,,,,,,,,,,,,,,,,,,,,,
,,,,,,,,2023-08-16_08h43.57.739,HF_wild_card,2022.2.4,Win32,60.12867537,63f79034370a105d5d57d9bd,64d2fd46c836a06233681665,64dc7e2e4ccf48d25f8bce26,,,,,,,sngl,resources/DP.BMP,resources/Empty.png,Door4,-0.418518519,-0.038888889,1,0,0,1.5822,optionLeft,60,8910,4,33,0,33,0,1,,,,,,,,,,,,,,,,,,,,,,,,,,,,,,,,,,,,,,,
,,,,,,,,2023-08-16_08h43.57.739,HF_wild_card,2022.2.4,Win32,60.12867537,63f79034370a105d5d57d9bd,64d2fd46c836a06233681665,64dc7e2e4ccf48d25f8bce26,,,,,,,ctch,resources/DR.BMP,resources/DP.BMP,Door4,0.383333333,-0.041666667,1,0,0,2.7487,optionRight,80,8990,4,34,0,34,0,1,,,,,,,,,,,,,,,,,,,,,,,,,,,,,,,,,,,,,,,
,,,,,,,,2023-08-16_08h43.57.739,HF_wild_card,2022.2.4,Win32,60.12867537,63f79034370a105d5d57d9bd,64d2fd46c836a06233681665,64dc7e2e4ccf48d25f8bce26,,,,,,,decisionTrl,resources/DG.BMP,resources/DR.BMP,Door2,-0.285185185,-0.008333333,1,0,0,11.5492,optionLeft,20,9010,4,35,0,35,0,1,,,,,,,,,,,,,,,,,,,,,,,,,,,,,,,,,,,,,,,
,,,,,,,,2023-08-16_08h43.57.739,HF_wild_card,2022.2.4,Win32,60.12867537,63f79034370a105d5d57d9bd,64d2fd46c836a06233681665,64dc7e2e4ccf48d25f8bce26,,,,,,,sngl,resources/Empty.png,resources/DG.BMP,Door2,0.4,-0.039814815,1,0,0,0.7824,optionRight,40,9050,4,36,0,36,0,1,,,,,,,,,,,,,,,,,,,,,,,,,,,,,,,,,,,,,,,
,,,,,,,,2023-08-16_08h43.57.739,HF_wild_card,2022.2.4,Win32,60.12867537,63f79034370a105d5d57d9bd,64d2fd46c836a06233681665,64dc7e2e4ccf48d25f8bce26,,,,,,,sngl,resources/DR.BMP,resources/Empty.png,Door1,-0.431481481,-0.027777778,1,0,0,0.9991,optionLeft,30,9080,4,37,0,37,0,1,,,,,,,,,,,,,,,,,,,,,,,,,,,,,,,,,,,,,,,
,,,,,,,,2023-08-16_08h43.57.739,HF_wild_card,2022.2.4,Win32,60.12867537,63f79034370a105d5d57d9bd,64d2fd46c836a06233681665,64dc7e2e4ccf48d25f8bce26,,,,,,,decisionTrl,resources/DR.BMP,resources/DBN.BMP,WildCard_Ex,0.30462963,-0.024074074,1,0,0,1.2653,optionRight,45,9125,4,38,0,38,0,1,,,,,,,,,,,,,,,,,,,,,,,,,,,,,,,,,,,,,,,
,,,,,,,,2023-08-16_08h43.57.739,HF_wild_card,2022.2.4,Win32,60.12867537,63f79034370a105d5d57d9bd,64d2fd46c836a06233681665,64dc7e2e4ccf48d25f8bce26,,,,,,,sngl,resources/DBN.BMP,resources/Empty.png,WildCard_Ex,-0.362037037,-0.011111111,1,0,0,0.7489,optionLeft,45,9170,4,39,0,39,0,1,,,,,,,,,,,,,,,,,,,,,,,,,,,,,,,,,,,,,,,
,,,,,,,,2023-08-16_08h43.57.739,HF_wild_card,2022.2.4,Win32,60.12867537,63f79034370a105d5d57d9bd,64d2fd46c836a06233681665,64dc7e2e4ccf48d25f8bce26,,,,,,,decisionTrl,resources/DP.BMP,resources/DB.BMP,Door3,0.45,-0.028703704,1,0,0,4.6826,optionRight,70,9240,4,40,0,40,0,1,,,,,,,,,,,,,,,,,,,,,,,,,,,,,,,,,,,,,,,
,,,,,,,,2023-08-16_08h43.57.739,HF_wild_card,2022.2.4,Win32,60.12867537,63f79034370a105d5d57d9bd,64d2fd46c836a06233681665,64dc7e2e4ccf48d25f8bce26,,,,,,,decisionTrl,resources/DBN.BMP,resources/DP.BMP,Door4,0.384259259,-0.032407407,1,0,0,1.9438,optionRight,60,9300,4,41,0,41,0,1,,,,,,,,,,,,,,,,,,,,,,,,,,,,,,,,,,,,,,,
,,,,,,,,2023-08-16_08h43.57.739,HF_wild_card,2022.2.4,Win32,60.12867537,63f79034370a105d5d57d9bd,64d2fd46c836a06233681665,64dc7e2e4ccf48d25f8bce26,,,,,,,sngl,resources/DB.BMP,resources/Empty.png,Door3,-0.411111111,-0.024074074,1,0,0,0.7155,optionLeft,70,9370,4,42,0,42,0,1,,,,,,,,,,,,,,,,,,,,,,,,,,,,,,,,,,,,,,,
,,,,,,,,2023-08-16_08h43.57.739,HF_wild_card,2022.2.4,Win32,60.12867537,63f79034370a105d5d57d9bd,64d2fd46c836a06233681665,64dc7e2e4ccf48d25f8bce26,,,,,,,decisionTrl,resources/DB.BMP,resources/DP.BMP,Door3,-0.398148148,-0.016666667,1,0,0,1.6494,optionLeft,70,9440,4,43,0,43,0,1,,,,,,,,,,,,,,,,,,,,,,,,,,,,,,,,,,,,,,,
,,,,,,,,2023-08-16_08h43.57.739,HF_wild_card,2022.2.4,Win32,60.12867537,63f79034370a105d5d57d9bd,64d2fd46c836a06233681665,64dc7e2e4ccf48d25f8bce26,,,,,,,,,,,,,,,,,,,,,,,,,,3,0,3,0,1,,,,,,,,,,,,,,,,,,,,,,,,,,,,,,,,,,
,,,,,,,,2023-08-16_08h43.57.739,HF_wild_card,2022.2.4,Win32,60.12867537,63f79034370a105d5d57d9bd,64d2fd46c836a06233681665,64dc7e2e4ccf48d25f8bce26,,,,,,,decisionTrl,resources/DB.BMP,resources/DP.BMP,Door3,-0.431481481,-0.069444444,1,0,0,1.6157,optionLeft,70,9510,5,0,0,0,0,1,,,,,,,,,,,,,,,,,,,,,,,,,,,,,,,,,,,,,,,
,,,,,,,,2023-08-16_08h43.57.739,HF_wild_card,2022.2.4,Win32,60.12867537,63f79034370a105d5d57d9bd,64d2fd46c836a06233681665,64dc7e2e4ccf48d25f8bce26,,,,,,,decisionTrl,resources/DG.BMP,resources/DR.BMP,Door2,-0.4,-0.032407407,1,0,0,2.3491,optionLeft,20,9530,5,1,0,1,0,1,,,,,,,,,,,,,,,,,,,,,,,,,,,,,,,,,,,,,,,
,,,,,,,,2023-08-16_08h43.57.739,HF_wild_card,2022.2.4,Win32,60.12867537,63f79034370a105d5d57d9bd,64d2fd46c836a06233681665,64dc7e2e4ccf48d25f8bce26,,,,,,,ctch,resources/DR.BMP,resources/DP.BMP,Door4,0.357407407,-0.073148148,1,0,0,1.1323,optionRight,60,9590,5,2,0,2,0,1,,,,,,,,,,,,,,,,,,,,,,,,,,,,,,,,,,,,,,,
,,,,,,,,2023-08-16_08h43.57.739,HF_wild_card,2022.2.4,Win32,60.12867537,63f79034370a105d5d57d9bd,64d2fd46c836a06233681665,64dc7e2e4ccf48d25f8bce26,,,,,,,decisionTrl,resources/DG.BMP,resources/DR.BMP,Door1,0.319444444,-0.030555556,1,0,0,1.6156,optionRight,30,9620,5,3,0,3,0,1,,,,,,,,,,,,,,,,,,,,,,,,,,,,,,,,,,,,,,,
,,,,,,,,2023-08-16_08h43.57.739,HF_wild_card,2022.2.4,Win32,60.12867537,63f79034370a105d5d57d9bd,64d2fd46c836a06233681665,64dc7e2e4ccf48d25f8bce26,,,,,,,ctch,resources/DB.BMP,resources/DG.BMP,Door2,0.406481481,-0.013888889,1,0,0,2.3325,optionRight,20,9640,5,4,0,4,0,1,,,,,,,,,,,,,,,,,,,,,,,,,,,,,,,,,,,,,,,
,,,,,,,,2023-08-16_08h43.57.739,HF_wild_card,2022.2.4,Win32,60.12867537,63f79034370a105d5d57d9bd,64d2fd46c836a06233681665,64dc7e2e4ccf48d25f8bce26,,,,,,,sngl,resources/Empty.png,resources/DBN.BMP,WildCard_Ex,0.333333333,-0.016666667,1,0,0,0.7155,optionRight,45,9685,5,5,0,5,0,1,,,,,,,,,,,,,,,,,,,,,,,,,,,,,,,,,,,,,,,
,,,,,,,,2023-08-16_08h43.57.739,HF_wild_card,2022.2.4,Win32,60.12867537,63f79034370a105d5d57d9bd,64d2fd46c836a06233681665,64dc7e2e4ccf48d25f8bce26,,,,,,,sngl,resources/DBN.BMP,resources/Empty.png,WildCard_Ex,-0.337037037,-0.034259259,1,0,0,0.6655,optionLeft,45,9730,5,6,0,6,0,1,,,,,,,,,,,,,,,,,,,,,,,,,,,,,,,,,,,,,,,
,,,,,,,,2023-08-16_08h43.57.739,HF_wild_card,2022.2.4,Win32,60.12867537,63f79034370a105d5d57d9bd,64d2fd46c836a06233681665,64dc7e2e4ccf48d25f8bce26,,,,,,,sngl,resources/Empty.png,resources/DP.BMP,Door4,0.365740741,-0.07962963,1,0,0,0.6991,optionRight,60,9790,5,7,0,7,0,1,,,,,,,,,,,,,,,,,,,,,,,,,,,,,,,,,,,,,,,
,,,,,,,,2023-08-16_08h43.57.739,HF_wild_card,2022.2.4,Win32,60.12867537,63f79034370a105d5d57d9bd,64d2fd46c836a06233681665,64dc7e2e4ccf48d25f8bce26,,,,,,,sngl,resources/DB.BMP,resources/Empty.png,Door3,-0.348148148,-0.028703704,1,0,0,0.5438,optionLeft,70,9860,5,8,0,8,0,1,,,,,,,,,,,,,,,,,,,,,,,,,,,,,,,,,,,,,,,
,,,,,,,,2023-08-16_08h43.57.739,HF_wild_card,2022.2.4,Win32,60.12867537,63f79034370a105d5d57d9bd,64d2fd46c836a06233681665,64dc7e2e4ccf48d25f8bce26,,,,,,,ctch,resources/DB.BMP,resources/DG.BMP,Door2,0.285185185,-0.047222222,1,0,0,1.149,optionRight,20,9880,5,9,0,9,0,1,,,,,,,,,,,,,,,,,,,,,,,,,,,,,,,,,,,,,,,
,,,,,,,,2023-08-16_08h43.57.739,HF_wild_card,2022.2.4,Win32,60.12867537,63f79034370a105d5d57d9bd,64d2fd46c836a06233681665,64dc7e2e4ccf48d25f8bce26,,,,,,,decisionTrl,resources/DG.BMP,resources/DR.BMP,Door2,-0.297222222,-0.037037037,1,0,0,1.2491,optionLeft,40,9920,5,10,0,10,0,1,,,,,,,,,,,,,,,,,,,,,,,,,,,,,,,,,,,,,,,
,,,,,,,,2023-08-16_08h43.57.739,HF_wild_card,2022.2.4,Win32,60.12867537,63f79034370a105d5d57d9bd,64d2fd46c836a06233681665,64dc7e2e4ccf48d25f8bce26,,,,,,,decisionTrl,resources/DP.BMP,resources/DB.BMP,Door4,-0.349074074,-0.072222222,1,0,0,1.4661,optionLeft,60,9980,5,11,0,11,0,1,,,,,,,,,,,,,,,,,,,,,,,,,,,,,,,,,,,,,,,
,,,,,,,,2023-08-16_08h43.57.739,HF_wild_card,2022.2.4,Win32,60.12867537,63f79034370a105d5d57d9bd,64d2fd46c836a06233681665,64dc7e2e4ccf48d25f8bce26,,,,,,,ctch,resources/DP.BMP,resources/DR.BMP,Door1,0.300925926,-0.026851852,1,0,0,1.7325,optionRight,30,10010,5,12,0,12,0,1,,,,,,,,,,,,,,,,,,,,,,,,,,,,,,,,,,,,,,,
,,,,,,,,2023-08-16_08h43.57.739,HF_wild_card,2022.2.4,Win32,60.12867537,63f79034370a105d5d57d9bd,64d2fd46c836a06233681665,64dc7e2e4ccf48d25f8bce26,,,,,,,sngl,resources/DP.BMP,resources/Empty.png,Door4,-0.325,-0.053703704,1,0,0,0.6824,optionLeft,80,10090,5,13,0,13,0,1,,,,,,,,,,,,,,,,,,,,,,,,,,,,,,,,,,,,,,,
,,,,,,,,2023-08-16_08h43.57.739,HF_wild_card,2022.2.4,Win32,60.12867537,63f79034370a105d5d57d9bd,64d2fd46c836a06233681665,64dc7e2e4ccf48d25f8bce26,,,,,,,decisionTrl,resources/DBN.BMP,resources/DR.BMP,WildCard_Ex,-0.357407407,-0.078703704,1,0,0,0.9988,optionLeft,55,10145,5,14,0,14,0,1,,,,,,,,,,,,,,,,,,,,,,,,,,,,,,,,,,,,,,,
,,,,,,,,2023-08-16_08h43.57.739,HF_wild_card,2022.2.4,Win32,60.12867537,63f79034370a105d5d57d9bd,64d2fd46c836a06233681665,64dc7e2e4ccf48d25f8bce26,,,,,,,sngl,resources/Empty.png,resources/DBN.BMP,WildCard_Ex,0.319444444,-0.062037037,1,0,0,0.6155,optionRight,55,10200,5,15,0,15,0,1,,,,,,,,,,,,,,,,,,,,,,,,,,,,,,,,,,,,,,,
,,,,,,,,2023-08-16_08h43.57.739,HF_wild_card,2022.2.4,Win32,60.12867537,63f79034370a105d5d57d9bd,64d2fd46c836a06233681665,64dc7e2e4ccf48d25f8bce26,,,,,,,decisionTrl,resources/DP.BMP,resources/DB.BMP,Door3,0.430555556,-0.031481481,1,0,0,2.2323,optionRight,70,10270,5,16,0,16,0,1,,,,,,,,,,,,,,,,,,,,,,,,,,,,,,,,,,,,,,,
,,,,,,,,2023-08-16_08h43.57.739,HF_wild_card,2022.2.4,Win32,60.12867537,63f79034370a105d5d57d9bd,64d2fd46c836a06233681665,64dc7e2e4ccf48d25f8bce26,,,,,,,decisionTrl,resources/DB.BMP,resources/DP.BMP,Door3,-0.364814815,-0.040740741,1,0,0,0.9158,optionLeft,70,10340,5,17,0,17,0,1,,,,,,,,,,,,,,,,,,,,,,,,,,,,,,,,,,,,,,,
,,,,,,,,2023-08-16_08h43.57.739,HF_wild_card,2022.2.4,Win32,60.12867537,63f79034370a105d5d57d9bd,64d2fd46c836a06233681665,64dc7e2e4ccf48d25f8bce26,,,,,,,decisionTrl,resources/DR.BMP,resources/DBN.BMP,WildCard_Ex,0.275925926,-0.00462963,1,0,0,1.6156,optionRight,55,10395,5,18,0,18,0,1,,,,,,,,,,,,,,,,,,,,,,,,,,,,,,,,,,,,,,,
,,,,,,,,2023-08-16_08h43.57.739,HF_wild_card,2022.2.4,Win32,60.12867537,63f79034370a105d5d57d9bd,64d2fd46c836a06233681665,64dc7e2e4ccf48d25f8bce26,,,,,,,decisionTrl,resources/DG.BMP,resources/DR.BMP,Door2,-0.410185185,0.053703704,1,0,0,3.3821,optionLeft,40,10435,5,19,0,19,0,1,,,,,,,,,,,,,,,,,,,,,,,,,,,,,,,,,,,,,,,
,,,,,,,,2023-08-16_08h43.57.739,HF_wild_card,2022.2.4,Win32,60.12867537,63f79034370a105d5d57d9bd,64d2fd46c836a06233681665,64dc7e2e4ccf48d25f8bce26,,,,,,,sngl,resources/DR.BMP,resources/Empty.png,Door1,-0.334259259,-0.028703704,1,0,0,0.8145,optionLeft,30,10465,5,20,0,20,0,1,,,,,,,,,,,,,,,,,,,,,,,,,,,,,,,,,,,,,,,
,,,,,,,,2023-08-16_08h43.57.739,HF_wild_card,2022.2.4,Win32,60.12867537,63f79034370a105d5d57d9bd,64d2fd46c836a06233681665,64dc7e2e4ccf48d25f8bce26,,,,,,,decisionTrl,resources/DBN.BMP,resources/DP.BMP,Door4,0.318518519,-0.056481481,1,0,0,3.8829,optionRight,80,10545,5,21,0,21,0,1,,,,,,,,,,,,,,,,,,,,,,,,,,,,,,,,,,,,,,,
,,,,,,,,2023-08-16_08h43.57.739,HF_wild_card,2022.2.4,Win32,60.12867537,63f79034370a105d5d57d9bd,64d2fd46c836a06233681665,64dc7e2e4ccf48d25f8bce26,,,,,,,sngl,resources/Empty.png,resources/DG.BMP,Door2,0.327777778,-0.063888889,1,0,0,0.9991,optionRight,20,10565,5,22,0,22,0,1,,,,,,,,,,,,,,,,,,,,,,,,,,,,,,,,,,,,,,,
,,,,,,,,2023-08-16_08h43.57.739,HF_wild_card,2022.2.4,Win32,60.12867537,63f79034370a105d5d57d9bd,64d2fd46c836a06233681665,64dc7e2e4ccf48d25f8bce26,,,,,,,decisionTrl,resources/DB.BMP,resources/DP.BMP,Door3,-0.414814815,-0.044444444,1,0,0,1.1489,optionLeft,70,10635,5,23,0,23,0,1,,,,,,,,,,,,,,,,,,,,,,,,,,,,,,,,,,,,,,,
,,,,,,,,2023-08-16_08h43.57.739,HF_wild_card,2022.2.4,Win32,60.12867537,63f79034370a105d5d57d9bd,64d2fd46c836a06233681665,64dc7e2e4ccf48d25f8bce26,,,,,,,decisionTrl,resources/DP.BMP,resources/DB.BMP,Door3,0.358333333,-0.041666667,1,0,0,0.7991,optionRight,70,10705,5,24,0,24,0,1,,,,,,,,,,,,,,,,,,,,,,,,,,,,,,,,,,,,,,,
,,,,,,,,2023-08-16_08h43.57.739,HF_wild_card,2022.2.4,Win32,60.12867537,63f79034370a105d5d57d9bd,64d2fd46c836a06233681665,64dc7e2e4ccf48d25f8bce26,,,,,,,decisionTrl,resources/DR.BMP,resources/DG.BMP,Door2,0.398148148,-0.035185185,1,0,0,4.1607,optionRight,20,10725,5,25,0,25,0,1,,,,,,,,,,,,,,,,,,,,,,,,,,,,,,,,,,,,,,,
,,,,,,,,2023-08-16_08h43.57.739,HF_wild_card,2022.2.4,Win32,60.12867537,63f79034370a105d5d57d9bd,64d2fd46c836a06233681665,64dc7e2e4ccf48d25f8bce26,,,,,,,decisionTrl,resources/DB.BMP,resources/DBN.BMP,Door3,-0.401851852,-0.02962963,1,0,0,1.6992,optionLeft,70,10795,5,26,0,26,0,1,,,,,,,,,,,,,,,,,,,,,,,,,,,,,,,,,,,,,,,
,,,,,,,,2023-08-16_08h43.57.739,HF_wild_card,2022.2.4,Win32,60.12867537,63f79034370a105d5d57d9bd,64d2fd46c836a06233681665,64dc7e2e4ccf48d25f8bce26,,,,,,,sngl,resources/DBN.BMP,resources/Empty.png,WildCard_Ex,-0.325925926,-0.02037037,1,0,0,0.5992,optionLeft,55,10850,5,27,0,27,0,1,,,,,,,,,,,,,,,,,,,,,,,,,,,,,,,,,,,,,,,
,,,,,,,,2023-08-16_08h43.57.739,HF_wild_card,2022.2.4,Win32,60.12867537,63f79034370a105d5d57d9bd,64d2fd46c836a06233681665,64dc7e2e4ccf48d25f8bce26,,,,,,,sngl,resources/DG.BMP,resources/Empty.png,Door2,-0.298148148,-0.019444444,1,0,0,1.2988,optionLeft,40,10890,5,28,0,28,0,1,,,,,,,,,,,,,,,,,,,,,,,,,,,,,,,,,,,,,,,
,,,,,,,,2023-08-16_08h43.57.739,HF_wild_card,2022.2.4,Win32,60.12867537,63f79034370a105d5d57d9bd,64d2fd46c836a06233681665,64dc7e2e4ccf48d25f8bce26,,,,,,,decisionTrl,resources/DG.BMP,resources/DBN.BMP,Door2,-0.310185185,-0.014814815,1,0,0,2.6828,optionLeft,40,10930,5,29,0,29,0,1,,,,,,,,,,,,,,,,,,,,,,,,,,,,,,,,,,,,,,,
,,,,,,,,2023-08-16_08h43.57.739,HF_wild_card,2022.2.4,Win32,60.12867537,63f79034370a105d5d57d9bd,64d2fd46c836a06233681665,64dc7e2e4ccf48d25f8bce26,,,,,,,decisionTrl,resources/DR.BMP,resources/DG.BMP,Door2,0.452777778,-0.046296296,1,0,0,2.3658,optionRight,20,10950,5,30,0,30,0,1,,,,,,,,,,,,,,,,,,,,,,,,,,,,,,,,,,,,,,,
,,,,,,,,2023-08-16_08h43.57.739,HF_wild_card,2022.2.4,Win32,60.12867537,63f79034370a105d5d57d9bd,64d2fd46c836a06233681665,64dc7e2e4ccf48d25f8bce26,,,,,,,sngl,resources/Empty.png,resources/DR.BMP,Door1,0.323148148,-0.048148148,1,0,0,0.7157,optionRight,30,10980,5,31,0,31,0,1,,,,,,,,,,,,,,,,,,,,,,,,,,,,,,,,,,,,,,,
,,,,,,,,2023-08-16_08h43.57.739,HF_wild_card,2022.2.4,Win32,60.12867537,63f79034370a105d5d57d9bd,64d2fd46c836a06233681665,64dc7e2e4ccf48d25f8bce26,,,,,,,ctch,resources/DP.BMP,resources/DR.BMP,Door4,-0.332407407,-0.012962963,1,0,0,1.0156,optionLeft,80,11060,5,32,0,32,0,1,,,,,,,,,,,,,,,,,,,,,,,,,,,,,,,,,,,,,,,
,,,,,,,,2023-08-16_08h43.57.739,HF_wild_card,2022.2.4,Win32,60.12867537,63f79034370a105d5d57d9bd,64d2fd46c836a06233681665,64dc7e2e4ccf48d25f8bce26,,,,,,,ctch,resources/DG.BMP,resources/DB.BMP,Door3,0.462037037,-0.047222222,1,0,0,1.4657,optionRight,70,11130,5,33,0,33,0,1,,,,,,,,,,,,,,,,,,,,,,,,,,,,,,,,,,,,,,,
,,,,,,,,2023-08-16_08h43.57.739,HF_wild_card,2022.2.4,Win32,60.12867537,63f79034370a105d5d57d9bd,64d2fd46c836a06233681665,64dc7e2e4ccf48d25f8bce26,,,,,,,sngl,resources/Empty.png,resources/DB.BMP,Door3,0.422222222,-0.055555556,1,0,0,0.6323,optionRight,70,11200,5,34,0,34,0,1,,,,,,,,,,,,,,,,,,,,,,,,,,,,,,,,,,,,,,,
,,,,,,,,2023-08-16_08h43.57.739,HF_wild_card,2022.2.4,Win32,60.12867537,63f79034370a105d5d57d9bd,64d2fd46c836a06233681665,64dc7e2e4ccf48d25f8bce26,,,,,,,decisionTrl,resources/DB.BMP,resources/DP.BMP,Door3,-0.305555556,-0.043518519,1,0,0,1.3825,optionLeft,70,11270,5,35,0,35,0,1,,,,,,,,,,,,,,,,,,,,,,,,,,,,,,,,,,,,,,,
,,,,,,,,2023-08-16_08h43.57.739,HF_wild_card,2022.2.4,Win32,60.12867537,63f79034370a105d5d57d9bd,64d2fd46c836a06233681665,64dc7e2e4ccf48d25f8bce26,,,,,,,decisionTrl,resources/DBN.BMP,resources/DG.BMP,WildCard_Ex,-0.30462963,-0.025,1,0,0,1.2465,optionLeft,55,11325,5,36,0,36,0,1,,,,,,,,,,,,,,,,,,,,,,,,,,,,,,,,,,,,,,,
,,,,,,,,2023-08-16_08h43.57.739,HF_wild_card,2022.2.4,Win32,60.12867537,63f79034370a105d5d57d9bd,64d2fd46c836a06233681665,64dc7e2e4ccf48d25f8bce26,,,,,,,decisionTrl,resources/DR.BMP,resources/DG.BMP,Door2,0.385185185,-0.046296296,1,0,0,3.8944,optionRight,20,11345,5,37,0,37,0,1,,,,,,,,,,,,,,,,,,,,,,,,,,,,,,,,,,,,,,,
,,,,,,,,2023-08-16_08h43.57.739,HF_wild_card,2022.2.4,Win32,60.12867537,63f79034370a105d5d57d9bd,64d2fd46c836a06233681665,64dc7e2e4ccf48d25f8bce26,,,,,,,decisionTrl,resources/DP.BMP,resources/DB.BMP,Door3,0.328703704,-0.085185185,1,0,0,3.4606,optionRight,70,11415,5,38,0,38,0,1,,,,,,,,,,,,,,,,,,,,,,,,,,,,,,,,,,,,,,,
,,,,,,,,2023-08-16_08h43.57.739,HF_wild_card,2022.2.4,Win32,60.12867537,63f79034370a105d5d57d9bd,64d2fd46c836a06233681665,64dc7e2e4ccf48d25f8bce26,,,,,,,ctch,resources/DG.BMP,resources/DB.BMP,Door3,0.355555556,-0.064814815,1,0,0,1.4374,optionRight,70,11485,5,39,0,39,0,1,,,,,,,,,,,,,,,,,,,,,,,,,,,,,,,,,,,,,,,
,,,,,,,,2023-08-16_08h43.57.739,HF_wild_card,2022.2.4,Win32,60.12867537,63f79034370a105d5d57d9bd,64d2fd46c836a06233681665,64dc7e2e4ccf48d25f8bce26,,,,,,,decisionTrl,resources/DR.BMP,resources/DG.BMP,Door1,-0.244444444,-0.040740741,1,0,0,1.7105,optionLeft,30,11515,5,40,0,40,0,1,,,,,,,,,,,,,,,,,,,,,,,,,,,,,,,,,,,,,,,
,,,,,,,,2023-08-16_08h43.57.739,HF_wild_card,2022.2.4,Win32,60.12867537,63f79034370a105d5d57d9bd,64d2fd46c836a06233681665,64dc7e2e4ccf48d25f8bce26,,,,,,,decisionTrl,resources/DBN.BMP,resources/DB.BMP,Door3,0.259259259,-0.053703704,1,0,0,2.8158,optionRight,70,11585,5,41,0,41,0,1,,,,,,,,,,,,,,,,,,,,,,,,,,,,,,,,,,,,,,,
,,,,,,,,2023-08-16_08h43.57.739,HF_wild_card,2022.2.4,Win32,60.12867537,63f79034370a105d5d57d9bd,64d2fd46c836a06233681665,64dc7e2e4ccf48d25f8bce26,,,,,,,ctch,resources/DR.BMP,resources/DP.BMP,Door4,0.312037037,-0.05462963,1,0,0,5.3534,optionRight,80,11665,5,42,0,42,0,1,,,,,,,,,,,,,,,,,,,,,,,,,,,,,,,,,,,,,,,
,,,,,,,,2023-08-16_08h43.57.739,HF_wild_card,2022.2.4,Win32,60.12867537,63f79034370a105d5d57d9bd,64d2fd46c836a06233681665,64dc7e2e4ccf48d25f8bce26,,,,,,,decisionTrl,resources/DP.BMP,resources/DBN.BMP,WildCard_Ex,0.275,-0.035185185,1,0,0,1.8876,optionRight,45,11710,5,43,0,43,0,1,,,,,,,,,,,,,,,,,,,,,,,,,,,,,,,,,,,,,,,
,,,,,,,,2023-08-16_08h43.57.739,HF_wild_card,2022.2.4,Win32,60.12867537,63f79034370a105d5d57d9bd,64d2fd46c836a06233681665,64dc7e2e4ccf48d25f8bce26,,,,,,,,,,,,,,,,,,,,,,,,,,4,0,4,0,1,,,,,,,,,,,,,,,,,,,,,,,,,,,,,,,,,,
,,,,,,,,2023-08-16_08h43.57.739,HF_wild_card,2022.2.4,Win32,60.12867537,63f79034370a105d5d57d9bd,64d2fd46c836a06233681665,64dc7e2e4ccf48d25f8bce26,,,,,,,decisionTrl,resources/DBN.BMP,resources/DB.BMP,Door3,0.383333333,-0.075,1,0,0,1.981,optionRight,70,11780,6,0,0,0,0,1,,,,,,,,,,,,,,,,,,,,,,,,,,,,,,,,,,,,,,,
,,,,,,,,2023-08-16_08h43.57.739,HF_wild_card,2022.2.4,Win32,60.12867537,63f79034370a105d5d57d9bd,64d2fd46c836a06233681665,64dc7e2e4ccf48d25f8bce26,,,,,,,sngl,resources/DG.BMP,resources/Empty.png,Door2,-0.348148148,-0.051851852,1,0,0,0.7489,optionLeft,20,11800,6,1,0,1,0,1,,,,,,,,,,,,,,,,,,,,,,,,,,,,,,,,,,,,,,,
,,,,,,,,2023-08-16_08h43.57.739,HF_wild_card,2022.2.4,Win32,60.12867537,63f79034370a105d5d57d9bd,64d2fd46c836a06233681665,64dc7e2e4ccf48d25f8bce26,,,,,,,sngl,resources/DP.BMP,resources/Empty.png,Door4,-0.35462963,-0.036111111,1,0,0,0.7322,optionLeft,60,11860,6,2,0,2,0,1,,,,,,,,,,,,,,,,,,,,,,,,,,,,,,,,,,,,,,,
,,,,,,,,2023-08-16_08h43.57.739,HF_wild_card,2022.2.4,Win32,60.12867537,63f79034370a105d5d57d9bd,64d2fd46c836a06233681665,64dc7e2e4ccf48d25f8bce26,,,,,,,decisionTrl,resources/DB.BMP,resources/DP.BMP,Door3,-0.338888889,-0.025,1,0,0,1.3659,optionLeft,70,11930,6,3,0,3,0,1,,,,,,,,,,,,,,,,,,,,,,,,,,,,,,,,,,,,,,,
,,,,,,,,2023-08-16_08h43.57.739,HF_wild_card,2022.2.4,Win32,60.12867537,63f79034370a105d5d57d9bd,64d2fd46c836a06233681665,64dc7e2e4ccf48d25f8bce26,,,,,,,ctch,resources/DP.BMP,resources/DR.BMP,Door4,-0.3,-0.025925926,1,0,0,1.2491,optionLeft,80,12010,6,4,0,4,0,1,,,,,,,,,,,,,,,,,,,,,,,,,,,,,,,,,,,,,,,
,,,,,,,,2023-08-16_08h43.57.739,HF_wild_card,2022.2.4,Win32,60.12867537,63f79034370a105d5d57d9bd,64d2fd46c836a06233681665,64dc7e2e4ccf48d25f8bce26,,,,,,,decisionTrl,resources/DG.BMP,resources/DR.BMP,Door2,-0.35,-0.025925926,1,0,0,4.621,optionLeft,20,12030,6,5,0,5,0,1,,,,,,,,,,,,,,,,,,,,,,,,,,,,,,,,,,,,,,,
,,,,,,,,2023-08-16_08h43.57.739,HF_wild_card,2022.2.4,Win32,60.12867537,63f79034370a105d5d57d9bd,64d2fd46c836a06233681665,64dc7e2e4ccf48d25f8bce26,,,,,,,decisionTrl,resources/DG.BMP,resources/DR.BMP,Door1,0.3,-0.027777778,1,0,0,0.9986,optionRight,30,12060,6,6,0,6,0,1,,,,,,,,,,,,,,,,,,,,,,,,,,,,,,,,,,,,,,,
,,,,,,,,2023-08-16_08h43.57.739,HF_wild_card,2022.2.4,Win32,60.12867537,63f79034370a105d5d57d9bd,64d2fd46c836a06233681665,64dc7e2e4ccf48d25f8bce26,,,,,,,decisionTrl,resources/DP.BMP,resources/DB.BMP,Door3,0.486111111,-0.043518519,1,0,0,1.5629,optionRight,70,12130,6,7,0,7,0,1,,,,,,,,,,,,,,,,,,,,,,,,,,,,,,,,,,,,,,,
,,,,,,,,2023-08-16_08h43.57.739,HF_wild_card,2022.2.4,Win32,60.12867537,63f79034370a105d5d57d9bd,64d2fd46c836a06233681665,64dc7e2e4ccf48d25f8bce26,,,,,,,decisionTrl,resources/DP.BMP,resources/DB.BMP,Door3,0.406481481,-0.033333333,1,0,0,0.7157,optionRight,70,12200,6,8,0,8,0,1,,,,,,,,,,,,,,,,,,,,,,,,,,,,,,,,,,,,,,,
,,,,,,,,2023-08-16_08h43.57.739,HF_wild_card,2022.2.4,Win32,60.12867537,63f79034370a105d5d57d9bd,64d2fd46c836a06233681665,64dc7e2e4ccf48d25f8bce26,,,,,,,ctch,resources/DB.BMP,resources/DG.BMP,Door3,-0.313888889,-0.037037037,1,0,0,1.1532,optionLeft,70,12270,6,9,0,9,0,1,,,,,,,,,,,,,,,,,,,,,,,,,,,,,,,,,,,,,,,
,,,,,,,,2023-08-16_08h43.57.739,HF_wild_card,2022.2.4,Win32,60.12867537,63f79034370a105d5d57d9bd,64d2fd46c836a06233681665,64dc7e2e4ccf48d25f8bce26,,,,,,,ctch,resources/DG.BMP,resources/DB.BMP,Door3,0.285185185,-0.022222222,1,0,0,0.9159,optionRight,70,12340,6,10,0,10,0,1,,,,,,,,,,,,,,,,,,,,,,,,,,,,,,,,,,,,,,,
,,,,,,,,2023-08-16_08h43.57.739,HF_wild_card,2022.2.4,Win32,60.12867537,63f79034370a105d5d57d9bd,64d2fd46c836a06233681665,64dc7e2e4ccf48d25f8bce26,,,,,,,sngl,resources/Empty.png,resources/DP.BMP,Door4,0.392592593,-0.021296296,1,0,0,0.6774,optionRight,80,12420,6,11,0,11,0,1,,,,,,,,,,,,,,,,,,,,,,,,,,,,,,,,,,,,,,,
,,,,,,,,2023-08-16_08h43.57.739,HF_wild_card,2022.2.4,Win32,60.12867537,63f79034370a105d5d57d9bd,64d2fd46c836a06233681665,64dc7e2e4ccf48d25f8bce26,,,,,,,sngl,resources/DBN.BMP,resources/Empty.png,WildCard_Ex,-0.376851852,-0.035185185,1,0,0,0.7375,optionLeft,45,12465,6,12,0,12,0,1,,,,,,,,,,,,,,,,,,,,,,,,,,,,,,,,,,,,,,,
,,,,,,,,2023-08-16_08h43.57.739,HF_wild_card,2022.2.4,Win32,60.12867537,63f79034370a105d5d57d9bd,64d2fd46c836a06233681665,64dc7e2e4ccf48d25f8bce26,,,,,,,ctch,resources/DP.BMP,resources/DR.BMP,Door4,-0.32037037,-0.102777778,1,0,0,6.6824,optionLeft,60,12525,6,13,0,13,0,1,,,,,,,,,,,,,,,,,,,,,,,,,,,,,,,,,,,,,,,
,,,,,,,,2023-08-16_08h43.57.739,HF_wild_card,2022.2.4,Win32,60.12867537,63f79034370a105d5d57d9bd,64d2fd46c836a06233681665,64dc7e2e4ccf48d25f8bce26,,,,,,,ctch,resources/DR.BMP,resources/DP.BMP,Door4,0.315740741,-0.056481481,1,0,0,1.0819,optionRight,80,12605,6,14,0,14,0,1,,,,,,,,,,,,,,,,,,,,,,,,,,,,,,,,,,,,,,,
,,,,,,,,2023-08-16_08h43.57.739,HF_wild_card,2022.2.4,Win32,60.12867537,63f79034370a105d5d57d9bd,64d2fd46c836a06233681665,64dc7e2e4ccf48d25f8bce26,,,,,,,ctch,resources/DG.BMP,resources/DB.BMP,Door3,0.266666667,-0.078703704,1,0,0,3.4033,optionRight,70,12675,6,15,0,15,0,1,,,,,,,,,,,,,,,,,,,,,,,,,,,,,,,,,,,,,,,
,,,,,,,,2023-08-16_08h43.57.739,HF_wild_card,2022.2.4,Win32,60.12867537,63f79034370a105d5d57d9bd,64d2fd46c836a06233681665,64dc7e2e4ccf48d25f8bce26,,,,,,,sngl,resources/Empty.png,resources/DR.BMP,Door1,0.431481481,-0.064814815,1,0,0,3.9325,optionRight,30,12705,6,16,0,16,0,1,,,,,,,,,,,,,,,,,,,,,,,,,,,,,,,,,,,,,,,
,,,,,,,,2023-08-16_08h43.57.739,HF_wild_card,2022.2.4,Win32,60.12867537,63f79034370a105d5d57d9bd,64d2fd46c836a06233681665,64dc7e2e4ccf48d25f8bce26,,,,,,,decisionTrl,resources/DG.BMP,resources/DR.BMP,Door1,0.450925926,-0.073148148,1,0,0,1.6823,optionRight,30,12735,6,17,0,17,0,1,,,,,,,,,,,,,,,,,,,,,,,,,,,,,,,,,,,,,,,
,,,,,,,,2023-08-16_08h43.57.739,HF_wild_card,2022.2.4,Win32,60.12867537,63f79034370a105d5d57d9bd,64d2fd46c836a06233681665,64dc7e2e4ccf48d25f8bce26,,,,,,,decisionTrl,resources/DR.BMP,resources/DG.BMP,Door2,0.32962963,-0.044444444,1,0,0,1.1608,optionRight,20,12755,6,18,0,18,0,1,,,,,,,,,,,,,,,,,,,,,,,,,,,,,,,,,,,,,,,
,,,,,,,,2023-08-16_08h43.57.739,HF_wild_card,2022.2.4,Win32,60.12867537,63f79034370a105d5d57d9bd,64d2fd46c836a06233681665,64dc7e2e4ccf48d25f8bce26,,,,,,,decisionTrl,resources/DR.BMP,resources/DG.BMP,Door2,0.352777778,-0.012962963,1,0,0,0.9853,optionRight,40,12795,6,19,0,19,0,1,,,,,,,,,,,,,,,,,,,,,,,,,,,,,,,,,,,,,,,
,,,,,,,,2023-08-16_08h43.57.739,HF_wild_card,2022.2.4,Win32,60.12867537,63f79034370a105d5d57d9bd,64d2fd46c836a06233681665,64dc7e2e4ccf48d25f8bce26,,,,,,,sngl,resources/Empty.png,resources/DBN.BMP,WildCard_Ex,0.408333333,-0.012037037,1,0,0,0.8652,optionRight,45,12840,6,20,0,20,0,1,,,,,,,,,,,,,,,,,,,,,,,,,,,,,,,,,,,,,,,
,,,,,,,,2023-08-16_08h43.57.739,HF_wild_card,2022.2.4,Win32,60.12867537,63f79034370a105d5d57d9bd,64d2fd46c836a06233681665,64dc7e2e4ccf48d25f8bce26,,,,,,,decisionTrl,resources/DBN.BMP,resources/DG.BMP,WildCard_Ex,-0.490740741,-0.049074074,1,0,0,1.699,optionLeft,45,12885,6,21,0,21,0,1,,,,,,,,,,,,,,,,,,,,,,,,,,,,,,,,,,,,,,,
,,,,,,,,2023-08-16_08h43.57.739,HF_wild_card,2022.2.4,Win32,60.12867537,63f79034370a105d5d57d9bd,64d2fd46c836a06233681665,64dc7e2e4ccf48d25f8bce26,,,,,,,decisionTrl,resources/DP.BMP,resources/DB.BMP,Door3,0.39537037,-0.039814815,1,0,0,1.4444,optionRight,70,12955,6,22,0,22,0,1,,,,,,,,,,,,,,,,,,,,,,,,,,,,,,,,,,,,,,,
,,,,,,,,2023-08-16_08h43.57.739,HF_wild_card,2022.2.4,Win32,60.12867537,63f79034370a105d5d57d9bd,64d2fd46c836a06233681665,64dc7e2e4ccf48d25f8bce26,,,,,,,decisionTrl,resources/DP.BMP,resources/DB.BMP,Door3,0.311111111,-0.04537037,1,0,0,0.7982,optionRight,70,13025,6,23,0,23,0,1,,,,,,,,,,,,,,,,,,,,,,,,,,,,,,,,,,,,,,,
,,,,,,,,2023-08-16_08h43.57.739,HF_wild_card,2022.2.4,Win32,60.12867537,63f79034370a105d5d57d9bd,64d2fd46c836a06233681665,64dc7e2e4ccf48d25f8bce26,,,,,,,sngl,resources/Empty.png,resources/DB.BMP,Door3,0.334259259,-0.042592593,1,0,0,0.8155,optionRight,70,13095,6,24,0,24,0,1,,,,,,,,,,,,,,,,,,,,,,,,,,,,,,,,,,,,,,,
,,,,,,,,2023-08-16_08h43.57.739,HF_wild_card,2022.2.4,Win32,60.12867537,63f79034370a105d5d57d9bd,64d2fd46c836a06233681665,64dc7e2e4ccf48d25f8bce26,,,,,,,decisionTrl,resources/DR.BMP,resources/DBN.BMP,WildCard_Ex,0.243518519,-0.023148148,1,0,0,1.663,optionRight,55,13150,6,25,0,25,0,1,,,,,,,,,,,,,,,,,,,,,,,,,,,,,,,,,,,,,,,
,,,,,,,,2023-08-16_08h43.57.739,HF_wild_card,2022.2.4,Win32,60.12867537,63f79034370a105d5d57d9bd,64d2fd46c836a06233681665,64dc7e2e4ccf48d25f8bce26,,,,,,,sngl,resources/DBN.BMP,resources/Empty.png,WildCard_Ex,-0.280555556,-0.012962963,1,0,0,0.6704,optionLeft,55,13205,6,26,0,26,0,1,,,,,,,,,,,,,,,,,,,,,,,,,,,,,,,,,,,,,,,
,,,,,,,,2023-08-16_08h43.57.739,HF_wild_card,2022.2.4,Win32,60.12867537,63f79034370a105d5d57d9bd,64d2fd46c836a06233681665,64dc7e2e4ccf48d25f8bce26,,,,,,,decisionTrl,resources/DR.BMP,resources/DG.BMP,Door2,0.360185185,-0.028703704,1,0,0,5.3442,optionRight,20,13225,6,27,0,27,0,1,,,,,,,,,,,,,,,,,,,,,,,,,,,,,,,,,,,,,,,
,,,,,,,,2023-08-16_08h43.57.739,HF_wild_card,2022.2.4,Win32,60.12867537,63f79034370a105d5d57d9bd,64d2fd46c836a06233681665,64dc7e2e4ccf48d25f8bce26,,,,,,,decisionTrl,resources/DR.BMP,resources/DG.BMP,Door1,-0.315740741,-0.025,1,0,0,0.7366,optionLeft,30,13255,6,28,0,28,0,1,,,,,,,,,,,,,,,,,,,,,,,,,,,,,,,,,,,,,,,
,,,,,,,,2023-08-16_08h43.57.739,HF_wild_card,2022.2.4,Win32,60.12867537,63f79034370a105d5d57d9bd,64d2fd46c836a06233681665,64dc7e2e4ccf48d25f8bce26,,,,,,,decisionTrl,resources/DB.BMP,resources/DBN.BMP,Door3,-0.332407407,-0.030555556,1,0,0,1.5276,optionLeft,70,13325,6,29,0,29,0,1,,,,,,,,,,,,,,,,,,,,,,,,,,,,,,,,,,,,,,,
,,,,,,,,2023-08-16_08h43.57.739,HF_wild_card,2022.2.4,Win32,60.12867537,63f79034370a105d5d57d9bd,64d2fd46c836a06233681665,64dc7e2e4ccf48d25f8bce26,,,,,,,decisionTrl,resources/DBN.BMP,resources/DP.BMP,Door4,0.262962963,-0.017592593,1,0,0,1.9821,optionRight,80,13405,6,30,0,30,0,1,,,,,,,,,,,,,,,,,,,,,,,,,,,,,,,,,,,,,,,
,,,,,,,,2023-08-16_08h43.57.739,HF_wild_card,2022.2.4,Win32,60.12867537,63f79034370a105d5d57d9bd,64d2fd46c836a06233681665,64dc7e2e4ccf48d25f8bce26,,,,,,,ctch,resources/DB.BMP,resources/DG.BMP,Door3,-0.358333333,-0.034259259,1,0,0,2.6827,optionLeft,70,13475,6,31,0,31,0,1,,,,,,,,,,,,,,,,,,,,,,,,,,,,,,,,,,,,,,,
,,,,,,,,2023-08-16_08h43.57.739,HF_wild_card,2022.2.4,Win32,60.12867537,63f79034370a105d5d57d9bd,64d2fd46c836a06233681665,64dc7e2e4ccf48d25f8bce26,,,,,,,sngl,resources/DR.BMP,resources/Empty.png,Door1,-0.412037037,-0.015740741,1,0,0,1.1294,optionLeft,30,13505,6,32,0,32,0,1,,,,,,,,,,,,,,,,,,,,,,,,,,,,,,,,,,,,,,,
,,,,,,,,2023-08-16_08h43.57.739,HF_wild_card,2022.2.4,Win32,60.12867537,63f79034370a105d5d57d9bd,64d2fd46c836a06233681665,64dc7e2e4ccf48d25f8bce26,,,,,,,decisionTrl,resources/DB.BMP,resources/DP.BMP,Door3,-0.371296296,-0.040740741,1,0,0,1.7324,optionLeft,70,13575,6,33,0,33,0,1,,,,,,,,,,,,,,,,,,,,,,,,,,,,,,,,,,,,,,,
,,,,,,,,2023-08-16_08h43.57.739,HF_wild_card,2022.2.4,Win32,60.12867537,63f79034370a105d5d57d9bd,64d2fd46c836a06233681665,64dc7e2e4ccf48d25f8bce26,,,,,,,decisionTrl,resources/DB.BMP,resources/DP.BMP,Door3,-0.339814815,-0.030555556,1,0,0,0.7939,optionLeft,70,13645,6,34,0,34,0,1,,,,,,,,,,,,,,,,,,,,,,,,,,,,,,,,,,,,,,,
,,,,,,,,2023-08-16_08h43.57.739,HF_wild_card,2022.2.4,Win32,60.12867537,63f79034370a105d5d57d9bd,64d2fd46c836a06233681665,64dc7e2e4ccf48d25f8bce26,,,,,,,decisionTrl,resources/DBN.BMP,resources/DR.BMP,WildCard_Ex,-0.330555556,-0.040740741,1,0,0,1.6658,optionLeft,55,13700,6,35,0,35,0,1,,,,,,,,,,,,,,,,,,,,,,,,,,,,,,,,,,,,,,,
,,,,,,,,2023-08-16_08h43.57.739,HF_wild_card,2022.2.4,Win32,60.12867537,63f79034370a105d5d57d9bd,64d2fd46c836a06233681665,64dc7e2e4ccf48d25f8bce26,,,,,,,decisionTrl,resources/DG.BMP,resources/DBN.BMP,WildCard_Ex,0.383333333,-0.02962963,1,0,0,1.2659,optionRight,45,13745,6,36,0,36,0,1,,,,,,,,,,,,,,,,,,,,,,,,,,,,,,,,,,,,,,,
,,,,,,,,2023-08-16_08h43.57.739,HF_wild_card,2022.2.4,Win32,60.12867537,63f79034370a105d5d57d9bd,64d2fd46c836a06233681665,64dc7e2e4ccf48d25f8bce26,,,,,,,sngl,resources/DB.BMP,resources/Empty.png,Door3,-0.338888889,-0.040740741,1,0,0,0.9488,optionLeft,70,13815,6,37,0,37,0,1,,,,,,,,,,,,,,,,,,,,,,,,,,,,,,,,,,,,,,,
,,,,,,,,2023-08-16_08h43.57.739,HF_wild_card,2022.2.4,Win32,60.12867537,63f79034370a105d5d57d9bd,64d2fd46c836a06233681665,64dc7e2e4ccf48d25f8bce26,,,,,,,decisionTrl,resources/DP.BMP,resources/DBN.BMP,Door4,-0.326851852,-0.085185185,1,0,0,2.4043,optionLeft,80,13895,6,38,0,38,0,1,,,,,,,,,,,,,,,,,,,,,,,,,,,,,,,,,,,,,,,
,,,,,,,,2023-08-16_08h43.57.739,HF_wild_card,2022.2.4,Win32,60.12867537,63f79034370a105d5d57d9bd,64d2fd46c836a06233681665,64dc7e2e4ccf48d25f8bce26,,,,,,,ctch,resources/DR.BMP,resources/DP.BMP,Door4,0.323148148,-0.050925926,1,0,0,1.116,optionRight,60,13955,6,39,0,39,0,1,,,,,,,,,,,,,,,,,,,,,,,,,,,,,,,,,,,,,,,
,,,,,,,,2023-08-16_08h43.57.739,HF_wild_card,2022.2.4,Win32,60.12867537,63f79034370a105d5d57d9bd,64d2fd46c836a06233681665,64dc7e2e4ccf48d25f8bce26,,,,,,,decisionTrl,resources/DG.BMP,resources/DR.BMP,Door2,-0.258333333,-0.028703704,1,0,0,2.3332,optionLeft,40,13995,6,40,0,40,0,1,,,,,,,,,,,,,,,,,,,,,,,,,,,,,,,,,,,,,,,
,,,,,,,,2023-08-16_08h43.57.739,HF_wild_card,2022.2.4,Win32,60.12867537,63f79034370a105d5d57d9bd,64d2fd46c836a06233681665,64dc7e2e4ccf48d25f8bce26,,,,,,,sngl,resources/Empty.png,resources/DBN.BMP,WildCard_Ex,0.302777778,-0.034259259,1,0,0,1.8818,optionRight,55,14050,6,41,0,41,0,1,,,,,,,,,,,,,,,,,,,,,,,,,,,,,,,,,,,,,,,
,,,,,,,,2023-08-16_08h43.57.739,HF_wild_card,2022.2.4,Win32,60.12867537,63f79034370a105d5d57d9bd,64d2fd46c836a06233681665,64dc7e2e4ccf48d25f8bce26,,,,,,,sngl,resources/Empty.png,resources/DG.BMP,Door2,0.368518519,-0.036111111,1,0,0,0.7652,optionRight,40,14090,6,42,0,42,0,1,,,,,,,,,,,,,,,,,,,,,,,,,,,,,,,,,,,,,,,
,,,,,,,,2023-08-16_08h43.57.739,HF_wild_card,2022.2.4,Win32,60.12867537,63f79034370a105d5d57d9bd,64d2fd46c836a06233681665,64dc7e2e4ccf48d25f8bce26,,,,,,,decisionTrl,resources/DB.BMP,resources/DP.BMP,Door3,-0.302777778,-0.055555556,1,0,0,3.7993,optionLeft,70,14160,6,43,0,43,0,1,,,,,,,,,,,,,,,,,,,,,,,,,,,,,,,,,,,,,,,
,,,,,,,,2023-08-16_08h43.57.739,HF_wild_card,2022.2.4,Win32,60.12867537,63f79034370a105d5d57d9bd,64d2fd46c836a06233681665,64dc7e2e4ccf48d25f8bce26,,,,,,,,,,,,,,,,,,,,,,,,,,5,0,5,0,1,,,,,,,,,,,,,,,,,,,,,,,,,,,,,,,,,,
,,,,,,,,2023-08-16_08h43.57.739,HF_wild_card,2022.2.4,Win32,60.12867537,63f79034370a105d5d57d9bd,64d2fd46c836a06233681665,64dc7e2e4ccf48d25f8bce26,,,,,,,decisionTrl,resources/DP.BMP,resources/DB.BMP,Door3,0.29537037,-0.041666667,1,0,0,1.1597,optionRight,70,14230,7,0,0,0,0,1,,,,,,,,,,,,,,,,,,,,,,,,,,,,,,,,,,,,,,,
,,,,,,,,2023-08-16_08h43.57.739,HF_wild_card,2022.2.4,Win32,60.12867537,63f79034370a105d5d57d9bd,64d2fd46c836a06233681665,64dc7e2e4ccf48d25f8bce26,,,,,,,ctch,resources/DR.BMP,resources/DP.BMP,Door4,0.357407407,-0.025,1,0,0,1.4829,optionRight,60,14290,7,1,0,1,0,1,,,,,,,,,,,,,,,,,,,,,,,,,,,,,,,,,,,,,,,
,,,,,,,,2023-08-16_08h43.57.739,HF_wild_card,2022.2.4,Win32,60.12867537,63f79034370a105d5d57d9bd,64d2fd46c836a06233681665,64dc7e2e4ccf48d25f8bce26,,,,,,,decisionTrl,resources/DG.BMP,resources/DR.BMP,Door2,-0.410185185,-0.025,1,0,0,2.8329,optionLeft,40,14330,7,2,0,2,0,1,,,,,,,,,,,,,,,,,,,,,,,,,,,,,,,,,,,,,,,
,,,,,,,,2023-08-16_08h43.57.739,HF_wild_card,2022.2.4,Win32,60.12867537,63f79034370a105d5d57d9bd,64d2fd46c836a06233681665,64dc7e2e4ccf48d25f8bce26,,,,,,,decisionTrl,resources/DG.BMP,resources/DR.BMP,Door2,-0.298148148,-0.027777778,1,0,0,1.5328,optionLeft,20,14350,7,3,0,3,0,1,,,,,,,,,,,,,,,,,,,,,,,,,,,,,,,,,,,,,,,
,,,,,,,,2023-08-16_08h43.57.739,HF_wild_card,2022.2.4,Win32,60.12867537,63f79034370a105d5d57d9bd,64d2fd46c836a06233681665,64dc7e2e4ccf48d25f8bce26,,,,,,,ctch,resources/DP.BMP,resources/DR.BMP,Door4,-0.351851852,-0.034259259,1,0,0,1.2164,optionLeft,80,14430,7,4,0,4,0,1,,,,,,,,,,,,,,,,,,,,,,,,,,,,,,,,,,,,,,,
,,,,,,,,2023-08-16_08h43.57.739,HF_wild_card,2022.2.4,Win32,60.12867537,63f79034370a105d5d57d9bd,64d2fd46c836a06233681665,64dc7e2e4ccf48d25f8bce26,,,,,,,ctch,resources/DP.BMP,resources/DR.BMP,Door4,-0.336111111,-0.040740741,1,0,0,0.883,optionLeft,80,14510,7,5,0,5,0,1,,,,,,,,,,,,,,,,,,,,,,,,,,,,,,,,,,,,,,,
,,,,,,,,2023-08-16_08h43.57.739,HF_wild_card,2022.2.4,Win32,60.12867537,63f79034370a105d5d57d9bd,64d2fd46c836a06233681665,64dc7e2e4ccf48d25f8bce26,,,,,,,decisionTrl,resources/DP.BMP,resources/DB.BMP,Door3,0.331481481,-0.038888889,1,0,0,0.9378,optionRight,70,14580,7,6,0,6,0,1,,,,,,,,,,,,,,,,,,,,,,,,,,,,,,,,,,,,,,,
,,,,,,,,2023-08-16_08h43.57.739,HF_wild_card,2022.2.4,Win32,60.12867537,63f79034370a105d5d57d9bd,64d2fd46c836a06233681665,64dc7e2e4ccf48d25f8bce26,,,,,,,ctch,resources/DR.BMP,resources/DP.BMP,Door4,0.42962963,-0.030555556,1,0,0,1.388,optionRight,80,14660,7,7,0,7,0,1,,,,,,,,,,,,,,,,,,,,,,,,,,,,,,,,,,,,,,,
,,,,,,,,2023-08-16_08h43.57.739,HF_wild_card,2022.2.4,Win32,60.12867537,63f79034370a105d5d57d9bd,64d2fd46c836a06233681665,64dc7e2e4ccf48d25f8bce26,,,,,,,ctch,resources/DP.BMP,resources/DR.BMP,Door4,-0.275925926,-0.042592593,1,0,0,0.8496,optionLeft,80,14740,7,8,0,8,0,1,,,,,,,,,,,,,,,,,,,,,,,,,,,,,,,,,,,,,,,
,,,,,,,,2023-08-16_08h43.57.739,HF_wild_card,2022.2.4,Win32,60.12867537,63f79034370a105d5d57d9bd,64d2fd46c836a06233681665,64dc7e2e4ccf48d25f8bce26,,,,,,,decisionTrl,resources/DP.BMP,resources/DB.BMP,Door3,0.355555556,-0.030555556,1,0,0,0.9662,optionRight,70,14810,7,9,0,9,0,1,,,,,,,,,,,,,,,,,,,,,,,,,,,,,,,,,,,,,,,
,,,,,,,,2023-08-16_08h43.57.739,HF_wild_card,2022.2.4,Win32,60.12867537,63f79034370a105d5d57d9bd,64d2fd46c836a06233681665,64dc7e2e4ccf48d25f8bce26,,,,,,,decisionTrl,resources/DP.BMP,resources/DB.BMP,Door3,0.349074074,-0.064814815,1,0,0,0.7329,optionRight,70,14880,7,10,0,10,0,1,,,,,,,,,,,,,,,,,,,,,,,,,,,,,,,,,,,,,,,
,,,,,,,,2023-08-16_08h43.57.739,HF_wild_card,2022.2.4,Win32,60.12867537,63f79034370a105d5d57d9bd,64d2fd46c836a06233681665,64dc7e2e4ccf48d25f8bce26,,,,,,,ctch,resources/DR.BMP,resources/DP.BMP,Door4,0.333333333,-0.04537037,1,0,0,1.0661,optionRight,80,14960,7,11,0,11,0,1,,,,,,,,,,,,,,,,,,,,,,,,,,,,,,,,,,,,,,,
,,,,,,,,2023-08-16_08h43.57.739,HF_wild_card,2022.2.4,Win32,60.12867537,63f79034370a105d5d57d9bd,64d2fd46c836a06233681665,64dc7e2e4ccf48d25f8bce26,,,,,,,decisionTrl,resources/DR.BMP,resources/DG.BMP,Door1,-0.314814815,-0.041666667,1,0,0,2.283,optionLeft,30,14990,7,12,0,12,0,1,,,,,,,,,,,,,,,,,,,,,,,,,,,,,,,,,,,,,,,
,,,,,,,,2023-08-16_08h43.57.739,HF_wild_card,2022.2.4,Win32,60.12867537,63f79034370a105d5d57d9bd,64d2fd46c836a06233681665,64dc7e2e4ccf48d25f8bce26,,,,,,,decisionTrl,resources/DG.BMP,resources/DR.BMP,Door1,0.312962963,-0.059259259,1,0,0,1.2996,optionRight,30,15020,7,13,0,13,0,1,,,,,,,,,,,,,,,,,,,,,,,,,,,,,,,,,,,,,,,
,,,,,,,,2023-08-16_08h43.57.739,HF_wild_card,2022.2.4,Win32,60.12867537,63f79034370a105d5d57d9bd,64d2fd46c836a06233681665,64dc7e2e4ccf48d25f8bce26,,,,,,,decisionTrl,resources/DR.BMP,resources/DG.BMP,Door1,-0.302777778,-0.062037037,1,0,0,0.9495,optionLeft,30,15050,7,14,0,14,0,1,,,,,,,,,,,,,,,,,,,,,,,,,,,,,,,,,,,,,,,
,,,,,,,,2023-08-16_08h43.57.739,HF_wild_card,2022.2.4,Win32,60.12867537,63f79034370a105d5d57d9bd,64d2fd46c836a06233681665,64dc7e2e4ccf48d25f8bce26,,,,,,,ctch,resources/DB.BMP,resources/DG.BMP,Door3,-0.27962963,-0.063888889,1,0,0,0.9064,optionLeft,70,15120,7,15,0,15,0,1,,,,,,,,,,,,,,,,,,,,,,,,,,,,,,,,,,,,,,,
,,,,,,,,2023-08-16_08h43.57.739,HF_wild_card,2022.2.4,Win32,60.12867537,63f79034370a105d5d57d9bd,64d2fd46c836a06233681665,64dc7e2e4ccf48d25f8bce26,,,,,,,ctch,resources/DB.BMP,resources/DG.BMP,Door3,-0.313888889,-0.057407407,1,0,0,0.9833,optionLeft,70,15190,7,16,0,16,0,1,,,,,,,,,,,,,,,,,,,,,,,,,,,,,,,,,,,,,,,
,,,,,,,,2023-08-16_08h43.57.739,HF_wild_card,2022.2.4,Win32,60.12867537,63f79034370a105d5d57d9bd,64d2fd46c836a06233681665,64dc7e2e4ccf48d25f8bce26,,,,,,,decisionTrl,resources/DG.BMP,resources/DR.BMP,Door1,0.272222222,-0.052777778,1,0,0,1.3162,optionRight,30,15220,7,17,0,17,0,1,,,,,,,,,,,,,,,,,,,,,,,,,,,,,,,,,,,,,,,
,,,,,,,,2023-08-16_08h43.57.739,HF_wild_card,2022.2.4,Win32,60.12867537,63f79034370a105d5d57d9bd,64d2fd46c836a06233681665,64dc7e2e4ccf48d25f8bce26,,,,,,,decisionTrl,resources/DB.BMP,resources/DP.BMP,Door3,-0.436111111,-0.069444444,1,0,0,2.1328,optionLeft,70,15290,7,18,0,18,0,1,,,,,,,,,,,,,,,,,,,,,,,,,,,,,,,,,,,,,,,
,,,,,,,,2023-08-16_08h43.57.739,HF_wild_card,2022.2.4,Win32,60.12867537,63f79034370a105d5d57d9bd,64d2fd46c836a06233681665,64dc7e2e4ccf48d25f8bce26,,,,,,,decisionTrl,resources/DB.BMP,resources/DP.BMP,Door3,-0.293518519,-0.059259259,1,0,0,0.7167,optionLeft,70,15360,7,19,0,19,0,1,,,,,,,,,,,,,,,,,,,,,,,,,,,,,,,,,,,,,,,
,,,,,,,,2023-08-16_08h43.57.739,HF_wild_card,2022.2.4,Win32,60.12867537,63f79034370a105d5d57d9bd,64d2fd46c836a06233681665,64dc7e2e4ccf48d25f8bce26,,,,,,,ctch,resources/DG.BMP,resources/DB.BMP,Door3,0.356481481,-0.068518519,1,0,0,1.9211,optionRight,70,15430,7,20,0,20,0,1,,,,,,,,,,,,,,,,,,,,,,,,,,,,,,,,,,,,,,,
,,,,,,,,2023-08-16_08h43.57.739,HF_wild_card,2022.2.4,Win32,60.12867537,63f79034370a105d5d57d9bd,64d2fd46c836a06233681665,64dc7e2e4ccf48d25f8bce26,,,,,,,decisionTrl,resources/DR.BMP,resources/DG.BMP,Door1,-0.340740741,-0.039814815,1,0,0,1.1329,optionLeft,30,15460,7,21,0,21,0,1,,,,,,,,,,,,,,,,,,,,,,,,,,,,,,,,,,,,,,,
,,,,,,,,2023-08-16_08h43.57.739,HF_wild_card,2022.2.4,Win32,60.12867537,63f79034370a105d5d57d9bd,64d2fd46c836a06233681665,64dc7e2e4ccf48d25f8bce26,,,,,,,decisionTrl,resources/DB.BMP,resources/DP.BMP,Door3,-0.305555556,-0.053703704,1,0,0,1.5318,optionLeft,70,15530,7,22,0,22,0,1,,,,,,,,,,,,,,,,,,,,,,,,,,,,,,,,,,,,,,,
,,,,,,,,2023-08-16_08h43.57.739,HF_wild_card,2022.2.4,Win32,60.12867537,63f79034370a105d5d57d9bd,64d2fd46c836a06233681665,64dc7e2e4ccf48d25f8bce26,,,,,,,ctch,resources/DG.BMP,resources/DB.BMP,Door3,0.247222222,-0.065740741,1,0,0,1.1661,optionRight,70,15600,7,23,0,23,0,1,,,,,,,,,,,,,,,,,,,,,,,,,,,,,,,,,,,,,,,
,,,,,,,,2023-08-16_08h43.57.739,HF_wild_card,2022.2.4,Win32,60.12867537,63f79034370a105d5d57d9bd,64d2fd46c836a06233681665,64dc7e2e4ccf48d25f8bce26,,,,,,,decisionTrl,resources/DB.BMP,resources/DP.BMP,Door3,-0.316666667,-0.042592593,1,0,0,1.016,optionLeft,70,15670,7,24,0,24,0,1,,,,,,,,,,,,,,,,,,,,,,,,,,,,,,,,,,,,,,,
,,,,,,,,2023-08-16_08h43.57.739,HF_wild_card,2022.2.4,Win32,60.12867537,63f79034370a105d5d57d9bd,64d2fd46c836a06233681665,64dc7e2e4ccf48d25f8bce26,,,,,,,ctch,resources/DG.BMP,resources/DB.BMP,Door3,0.27962963,-0.040740741,1,0,0,0.7546,optionRight,70,15740,7,25,0,25,0,1,,,,,,,,,,,,,,,,,,,,,,,,,,,,,,,,,,,,,,,
,,,,,,,,2023-08-16_08h43.57.739,HF_wild_card,2022.2.4,Win32,60.12867537,63f79034370a105d5d57d9bd,64d2fd46c836a06233681665,64dc7e2e4ccf48d25f8bce26,,,,,,,decisionTrl,resources/DP.BMP,resources/DB.BMP,Door3,0.426851852,-0.067592593,1,0,0,1.2163,optionRight,70,15810,7,26,0,26,0,1,,,,,,,,,,,,,,,,,,,,,,,,,,,,,,,,,,,,,,,
,,,,,,,,2023-08-16_08h43.57.739,HF_wild_card,2022.2.4,Win32,60.12867537,63f79034370a105d5d57d9bd,64d2fd46c836a06233681665,64dc7e2e4ccf48d25f8bce26,,,,,,,decisionTrl,resources/DG.BMP,resources/DR.BMP,Door1,0.401851852,-0.069444444,1,0,0,2.8858,optionRight,30,15840,7,27,0,27,0,1,,,,,,,,,,,,,,,,,,,,,,,,,,,,,,,,,,,,,,,
,,,,,,,,2023-08-16_08h43.57.739,HF_wild_card,2022.2.4,Win32,60.12867537,63f79034370a105d5d57d9bd,64d2fd46c836a06233681665,64dc7e2e4ccf48d25f8bce26,,,,,,,decisionTrl,resources/DB.BMP,resources/DP.BMP,Door3,-0.290740741,-0.087962963,1,0,0,1.3999,optionLeft,70,15910,7,28,0,28,0,1,,,,,,,,,,,,,,,,,,,,,,,,,,,,,,,,,,,,,,,
,,,,,,,,2023-08-16_08h43.57.739,HF_wild_card,2022.2.4,Win32,60.12867537,63f79034370a105d5d57d9bd,64d2fd46c836a06233681665,64dc7e2e4ccf48d25f8bce26,,,,,,,decisionTrl,resources/DR.BMP,resources/DG.BMP,Door1,-0.321296296,-0.066666667,1,0,0,2.1162,optionLeft,30,15940,7,29,0,29,0,1,,,,,,,,,,,,,,,,,,,,,,,,,,,,,,,,,,,,,,,
,,,,,,,,2023-08-16_08h43.57.739,HF_wild_card,2022.2.4,Win32,60.12867537,63f79034370a105d5d57d9bd,64d2fd46c836a06233681665,64dc7e2e4ccf48d25f8bce26,,,,,,,decisionTrl,resources/DB.BMP,resources/DP.BMP,Door3,-0.348148148,-0.074074074,1,0,0,1.1662,optionLeft,70,16010,7,30,0,30,0,1,,,,,,,,,,,,,,,,,,,,,,,,,,,,,,,,,,,,,,,
,,,,,,,,2023-08-16_08h43.57.739,HF_wild_card,2022.2.4,Win32,60.12867537,63f79034370a105d5d57d9bd,64d2fd46c836a06233681665,64dc7e2e4ccf48d25f8bce26,,,,,,,ctch,resources/DB.BMP,resources/DG.BMP,Door3,-0.358333333,-0.050925926,1,0,0,1.4662,optionLeft,70,16080,7,31,0,31,0,1,,,,,,,,,,,,,,,,,,,,,,,,,,,,,,,,,,,,,,,
,,,,,,,,2023-08-16_08h43.57.739,HF_wild_card,2022.2.4,Win32,60.12867537,63f79034370a105d5d57d9bd,64d2fd46c836a06233681665,64dc7e2e4ccf48d25f8bce26,,,,,,,decisionTrl,resources/DR.BMP,resources/DG.BMP,Door1,-0.363888889,-0.062037037,1,0,0,1.1164,optionLeft,30,16110,7,32,0,32,0,1,,,,,,,,,,,,,,,,,,,,,,,,,,,,,,,,,,,,,,,
,,,,,,,,2023-08-16_08h43.57.739,HF_wild_card,2022.2.4,Win32,60.12867537,63f79034370a105d5d57d9bd,64d2fd46c836a06233681665,64dc7e2e4ccf48d25f8bce26,,,,,,,decisionTrl,resources/DG.BMP,resources/DR.BMP,Door1,0.291666667,-0.036111111,1,0,0,1.1662,optionRight,30,16140,7,33,0,33,0,1,,,,,,,,,,,,,,,,,,,,,,,,,,,,,,,,,,,,,,,
,,,,,,,,2023-08-16_08h43.57.739,HF_wild_card,2022.2.4,Win32,60.12867537,63f79034370a105d5d57d9bd,64d2fd46c836a06233681665,64dc7e2e4ccf48d25f8bce26,,,,,,,decisionTrl,resources/DR.BMP,resources/DG.BMP,Door1,-0.344444444,-0.033333333,1,0,0,0.7663,optionLeft,30,16170,7,34,0,34,0,1,,,,,,,,,,,,,,,,,,,,,,,,,,,,,,,,,,,,,,,
,,,,,,,,2023-08-16_08h43.57.739,HF_wild_card,2022.2.4,Win32,60.12867537,63f79034370a105d5d57d9bd,64d2fd46c836a06233681665,64dc7e2e4ccf48d25f8bce26,,,,,,,decisionTrl,resources/DP.BMP,resources/DB.BMP,Door3,0.263888889,-0.05462963,1,0,0,1.0779,optionRight,70,16240,7,35,0,35,0,1,,,,,,,,,,,,,,,,,,,,,,,,,,,,,,,,,,,,,,,
,,,,,,,,2023-08-16_08h43.57.739,HF_wild_card,2022.2.4,Win32,60.12867537,63f79034370a105d5d57d9bd,64d2fd46c836a06233681665,64dc7e2e4ccf48d25f8bce26,,,,,,,,,,,,,,,,,,,,,,,,,,6,0,6,0,1,,,,,,,,,,,,,,,,,,,,,,,,,,,,,,,,,,
,,,,,,,,2023-08-16_08h43.57.739,HF_wild_card,2022.2.4,Win32,60.12867537,63f79034370a105d5d57d9bd,64d2fd46c836a06233681665,64dc7e2e4ccf48d25f8bce26,,,,,,,,,,,,,,,,,,,,,,,,,,,,,,,4,,,,,,,,,,,,,,,,,,,,,,,,,,,,,,,,,
,,,,,,,,2023-08-16_08h43.57.739,HF_wild_card,2022.2.4,Win32,60.12867537,63f79034370a105d5d57d9bd,64d2fd46c836a06233681665,64dc7e2e4ccf48d25f8bce26,,,,,,,,,,,,,,,,,,,,,,,,,,,,,,,,,,,,,,,,,,,,,,,,,,,,,,,,,,,,,,,,
,,,,,,,,2023-08-16_08h43.57.739,HF_wild_card,2022.2.4,Win32,60.12867537,63f79034370a105d5d57d9bd,64d2fd46c836a06233681665,64dc7e2e4ccf48d25f8bce26,,,,,,,,,,,,,,,,,,,,,,,,,,,,,,,,55,WC_extreme,resources/DBN.BMP,0,0,0,0,1,,,,,,,,,,,,,,,,,,,,,,,,,
,,,,,,,,2023-08-16_08h43.57.739,HF_wild_card,2022.2.4,Win32,60.12867537,63f79034370a105d5d57d9bd,64d2fd46c836a06233681665,64dc7e2e4ccf48d25f8bce26,,,,,,,,,,,,,,,,,,,,,,,,,,,,,,,,20,Door2,resources/DG.BMP,1,0,1,0,1,,,,,,,,,,,,,,,,,,,,,,,,,
,,,,,,,,2023-08-16_08h43.57.739,HF_wild_card,2022.2.4,Win32,60.12867537,63f79034370a105d5d57d9bd,64d2fd46c836a06233681665,64dc7e2e4ccf48d25f8bce26,,,,,,,,,,,,,,,,,,,,,,,,,,,,,,,,60,Door4,resources/DP.BMP,2,0,2,0,1,,,,,,,,,,,,,,,,,,,,,,,,,
,,,,,,,,2023-08-16_08h43.57.739,HF_wild_card,2022.2.4,Win32,60.12867537,63f79034370a105d5d57d9bd,64d2fd46c836a06233681665,64dc7e2e4ccf48d25f8bce26,,,,,,,,,,,,,,,,,,,,,,,,,,,,,,,,30,Door1,resources/DR.BMP,3,0,3,0,1,,,,,,,,,,,,,,,,,,,,,,,,,
,,,,,,,,2023-08-16_08h43.57.739,HF_wild_card,2022.2.4,Win32,60.12867537,63f79034370a105d5d57d9bd,64d2fd46c836a06233681665,64dc7e2e4ccf48d25f8bce26,,,,,,,,,,,,,,,,,,,,,,,,,,,,,,,,70,Door3,resources/DB.BMP,4,0,4,0,1,,,,,,,,,,,,,,,,,,,,,,,,,
,,,,,,,,2023-08-16_08h43.57.739,HF_wild_card,2022.2.4,Win32,60.12867537,63f79034370a105d5d57d9bd,64d2fd46c836a06233681665,64dc7e2e4ccf48d25f8bce26,,,,,,,,,,,,,,,,,,,,,,,,,,,,,,,,45,WC_nonExtreme,resources/DY.BMP,5,0,5,0,1,,,,,,,,,,,,,,,,,,,,,,,,,
,,,,,,,,2023-08-16_08h43.57.739,HF_wild_card,2022.2.4,Win32,60.12867537,63f79034370a105d5d57d9bd,64d2fd46c836a06233681665,64dc7e2e4ccf48d25f8bce26,,,,,,,,,,,,,,,,,,,,,,,,,,,,,,,,,,,,,,,,,,,,,,,,,,,,,,,,,,,,,,,,
