Condition,Low fixed image (Door1),Low risky image (Door2),High fixed image (Door3),High risky image (Door4),NonExtreme Wild Card 1,NonExtreme Wild Card 2,,date,expName,psychopyVersion,OS,frameRate,PROLIFIC_PID,STUDY_ID,SESSION_ID,mouse_2.x,mouse_2.y,mouse_2.leftButton,mouse_2.midButton,mouse_2.rightButton,mouse_2.clicked_name,Trial Type,Left Option Image,Right Option Image,Chosen Door,mouse.x,mouse.y,mouse.leftButton,mouse.midButton,mouse.rightButton,mouse.time,mouse.clicked_name,Feedback,Cumulative Reward,Block,trial.thisRepN,trial.thisTrialN,trial.thisN,trial.thisIndex,trial.ran,blocks.thisRepN,blocks.thisTrialN,blocks.thisN,blocks.thisIndex,blocks.ran,Money conversion,First Outcome Reported,Shown Door (First Outcome),Displayed Image (First Outcome),outcomes.thisRepN,outcomes.thisTrialN,outcomes.thisN,outcomes.thisIndex,outcomes.ran,judgments.thisRepN,judgments.thisTrialN,judgments.thisN,judgments.thisIndex,judgments.ran,freqMouse.x,freqMouse.y,freqMouse.leftButton,freqMouse.midButton,freqMouse.rightButton,freqMouse.clicked_name,FQJ for first outcome,FQJ for second outcome,Shown Door,Displayed Image,trials.thisRepN,trials.thisTrialN,trials.thisN,trials.thisIndex,trials.ran,judgBlock.thisRepN,judgBlock.thisTrialN,judgBlock.thisN,judgBlock.thisIndex,judgBlock.ran
2,resources/DG.BMP,resources/DB.BMP,resources/DBN.BMP,resources/DP.BMP,resources/DY.BMP,resources/DR.BMP,,2023-08-16_08h37.48.802,HF_wild_card,2022.2.4,Win32,60.08171113,62ebcfeb8e3a52c0591fd10c,64d2fd46c836a06233681665,64dc7cb1d51aec2c7bc5471b,,,,,,,,,,,,,,,,,,,,,,,,,,,,,,,,,,,,,,,,,,,,,,,,,,,,,,,,,,,,,,,,
,,,,,,,,2023-08-16_08h37.48.802,HF_wild_card,2022.2.4,Win32,60.08171113,62ebcfeb8e3a52c0591fd10c,64d2fd46c836a06233681665,64dc7cb1d51aec2c7bc5471b,-0.006481481,-0.418518519,1,0,0,agree,,,,,,,,,,,,,,,,,,,,,,,,,,,,,,,,,,,,,,,,,,,,,,,,,,,,,,,,,,
,,,,,,,,2023-08-16_08h37.48.802,HF_wild_card,2022.2.4,Win32,60.08171113,62ebcfeb8e3a52c0591fd10c,64d2fd46c836a06233681665,64dc7cb1d51aec2c7bc5471b,,,,,,,,,,,,,,,,,,,,,,,,,,,,,,,,,,,,,,,,,,,,,,,,,,,,,,,,,,,,,,,,
,,,,,,,,2023-08-16_08h37.48.802,HF_wild_card,2022.2.4,Win32,60.08171113,62ebcfeb8e3a52c0591fd10c,64d2fd46c836a06233681665,64dc7cb1d51aec2c7bc5471b,,,,,,,decisionTrl,resources/DR.BMP,resources/DBN.BMP,WildCard_NonEx,-0.375,-0.071296296,1,0,0,1.8097,optionLeft,55,55,1,0,0,0,0,1,,,,,,,,,,,,,,,,,,,,,,,,,,,,,,,,,,,,,,,
,,,,,,,,2023-08-16_08h37.48.802,HF_wild_card,2022.2.4,Win32,60.08171113,62ebcfeb8e3a52c0591fd10c,64d2fd46c836a06233681665,64dc7cb1d51aec2c7bc5471b,,,,,,,decisionTrl,resources/DP.BMP,resources/DBN.BMP,Door3,0.312962963,-0.02962963,1,0,0,1.4634,optionRight,70,125,1,1,0,1,0,1,,,,,,,,,,,,,,,,,,,,,,,,,,,,,,,,,,,,,,,
,,,,,,,,2023-08-16_08h37.48.802,HF_wild_card,2022.2.4,Win32,60.08171113,62ebcfeb8e3a52c0591fd10c,64d2fd46c836a06233681665,64dc7cb1d51aec2c7bc5471b,,,,,,,decisionTrl,resources/DBN.BMP,resources/DP.BMP,Door3,-0.338888889,0.009259259,1,0,0,0.6639,optionLeft,70,195,1,2,0,2,0,1,,,,,,,,,,,,,,,,,,,,,,,,,,,,,,,,,,,,,,,
,,,,,,,,2023-08-16_08h37.48.802,HF_wild_card,2022.2.4,Win32,60.08171113,62ebcfeb8e3a52c0591fd10c,64d2fd46c836a06233681665,64dc7cb1d51aec2c7bc5471b,,,,,,,sngl,resources/Empty.png,resources/DB.BMP,Door2,0.347222222,0.013888889,1,0,0,3.5132,optionRight,20,215,1,3,0,3,0,1,,,,,,,,,,,,,,,,,,,,,,,,,,,,,,,,,,,,,,,
,,,,,,,,2023-08-16_08h37.48.802,HF_wild_card,2022.2.4,Win32,60.08171113,62ebcfeb8e3a52c0591fd10c,64d2fd46c836a06233681665,64dc7cb1d51aec2c7bc5471b,,,,,,,ctch,resources/DG.BMP,resources/DP.BMP,Door4,0.312962963,0.02037037,1,0,0,2.364,optionRight,80,295,1,4,0,4,0,1,,,,,,,,,,,,,,,,,,,,,,,,,,,,,,,,,,,,,,,
,,,,,,,,2023-08-16_08h37.48.802,HF_wild_card,2022.2.4,Win32,60.08171113,62ebcfeb8e3a52c0591fd10c,64d2fd46c836a06233681665,64dc7cb1d51aec2c7bc5471b,,,,,,,sngl,resources/DG.BMP,resources/Empty.png,Door1,-0.398148148,0.018518519,1,0,0,0.5818,optionLeft,30,325,1,5,0,5,0,1,,,,,,,,,,,,,,,,,,,,,,,,,,,,,,,,,,,,,,,
,,,,,,,,2023-08-16_08h37.48.802,HF_wild_card,2022.2.4,Win32,60.08171113,62ebcfeb8e3a52c0591fd10c,64d2fd46c836a06233681665,64dc7cb1d51aec2c7bc5471b,,,,,,,decisionTrl,resources/DBN.BMP,resources/DP.BMP,Door4,0.387037037,0.047222222,1,0,0,2.2321,optionRight,60,385,1,6,0,6,0,1,,,,,,,,,,,,,,,,,,,,,,,,,,,,,,,,,,,,,,,
,,,,,,,,2023-08-16_08h37.48.802,HF_wild_card,2022.2.4,Win32,60.08171113,62ebcfeb8e3a52c0591fd10c,64d2fd46c836a06233681665,64dc7cb1d51aec2c7bc5471b,,,,,,,sngl,resources/DR.BMP,resources/Empty.png,WildCard_NonEx,0.403703704,0.037962963,1,0,0,1.6656,optionLeft,45,430,1,7,0,7,0,1,,,,,,,,,,,,,,,,,,,,,,,,,,,,,,,,,,,,,,,
,,,,,,,,2023-08-16_08h37.48.802,HF_wild_card,2022.2.4,Win32,60.08171113,62ebcfeb8e3a52c0591fd10c,64d2fd46c836a06233681665,64dc7cb1d51aec2c7bc5471b,,,,,,,decisionTrl,resources/DG.BMP,resources/DR.BMP,Door1,-0.258333333,0.027777778,1,0,0,0.7664,optionLeft,30,460,1,8,0,8,0,1,,,,,,,,,,,,,,,,,,,,,,,,,,,,,,,,,,,,,,,
,,,,,,,,2023-08-16_08h37.48.802,HF_wild_card,2022.2.4,Win32,60.08171113,62ebcfeb8e3a52c0591fd10c,64d2fd46c836a06233681665,64dc7cb1d51aec2c7bc5471b,,,,,,,sngl,resources/Empty.png,resources/DR.BMP,WildCard_NonEx,0.338888889,0.044444444,1,0,0,0.5982,optionRight,55,515,1,9,0,9,0,1,,,,,,,,,,,,,,,,,,,,,,,,,,,,,,,,,,,,,,,
,,,,,,,,2023-08-16_08h37.48.802,HF_wild_card,2022.2.4,Win32,60.08171113,62ebcfeb8e3a52c0591fd10c,64d2fd46c836a06233681665,64dc7cb1d51aec2c7bc5471b,,,,,,,ctch,resources/DBN.BMP,resources/DB.BMP,Door3,-0.324074074,0.111111111,1,0,0,1.0488,optionLeft,70,585,1,10,0,10,0,1,,,,,,,,,,,,,,,,,,,,,,,,,,,,,,,,,,,,,,,
,,,,,,,,2023-08-16_08h37.48.802,HF_wild_card,2022.2.4,Win32,60.08171113,62ebcfeb8e3a52c0591fd10c,64d2fd46c836a06233681665,64dc7cb1d51aec2c7bc5471b,,,,,,,ctch,resources/DB.BMP,resources/DBN.BMP,Door3,0.303703704,0.089814815,1,0,0,0.8823,optionRight,70,655,1,11,0,11,0,1,,,,,,,,,,,,,,,,,,,,,,,,,,,,,,,,,,,,,,,
,,,,,,,,2023-08-16_08h37.48.802,HF_wild_card,2022.2.4,Win32,60.08171113,62ebcfeb8e3a52c0591fd10c,64d2fd46c836a06233681665,64dc7cb1d51aec2c7bc5471b,,,,,,,sngl,resources/DR.BMP,resources/Empty.png,WildCard_NonEx,-0.186111111,0.048148148,1,0,0,0.7482,optionLeft,55,710,1,12,0,12,0,1,,,,,,,,,,,,,,,,,,,,,,,,,,,,,,,,,,,,,,,
,,,,,,,,2023-08-16_08h37.48.802,HF_wild_card,2022.2.4,Win32,60.08171113,62ebcfeb8e3a52c0591fd10c,64d2fd46c836a06233681665,64dc7cb1d51aec2c7bc5471b,,,,,,,decisionTrl,resources/DBN.BMP,resources/DR.BMP,Door3,-0.34537037,0.110185185,1,0,0,4.0648,optionLeft,70,780,1,13,0,13,0,1,,,,,,,,,,,,,,,,,,,,,,,,,,,,,,,,,,,,,,,
,,,,,,,,2023-08-16_08h37.48.802,HF_wild_card,2022.2.4,Win32,60.08171113,62ebcfeb8e3a52c0591fd10c,64d2fd46c836a06233681665,64dc7cb1d51aec2c7bc5471b,,,,,,,decisionTrl,resources/DB.BMP,resources/DR.BMP,Door2,-0.344444444,-0.037962963,1,0,0,4.0142,optionLeft,40,820,1,14,0,14,0,1,,,,,,,,,,,,,,,,,,,,,,,,,,,,,,,,,,,,,,,
,,,,,,,,2023-08-16_08h37.48.802,HF_wild_card,2022.2.4,Win32,60.08171113,62ebcfeb8e3a52c0591fd10c,64d2fd46c836a06233681665,64dc7cb1d51aec2c7bc5471b,,,,,,,sngl,resources/Empty.png,resources/DG.BMP,Door1,-0.507407407,0.021296296,1,0,0,1.1317,optionRight,30,850,1,15,0,15,0,1,,,,,,,,,,,,,,,,,,,,,,,,,,,,,,,,,,,,,,,
,,,,,,,,2023-08-16_08h37.48.802,HF_wild_card,2022.2.4,Win32,60.08171113,62ebcfeb8e3a52c0591fd10c,64d2fd46c836a06233681665,64dc7cb1d51aec2c7bc5471b,,,,,,,decisionTrl,resources/DG.BMP,resources/DB.BMP,Door2,0.47962963,-0.025925926,1,0,0,2.4649,optionRight,40,890,1,16,0,16,0,1,,,,,,,,,,,,,,,,,,,,,,,,,,,,,,,,,,,,,,,
,,,,,,,,2023-08-16_08h37.48.802,HF_wild_card,2022.2.4,Win32,60.08171113,62ebcfeb8e3a52c0591fd10c,64d2fd46c836a06233681665,64dc7cb1d51aec2c7bc5471b,,,,,,,ctch,resources/DB.BMP,resources/DBN.BMP,Door3,0.327777778,0.041666667,1,0,0,1.5667,optionRight,70,960,1,17,0,17,0,1,,,,,,,,,,,,,,,,,,,,,,,,,,,,,,,,,,,,,,,
,,,,,,,,2023-08-16_08h37.48.802,HF_wild_card,2022.2.4,Win32,60.08171113,62ebcfeb8e3a52c0591fd10c,64d2fd46c836a06233681665,64dc7cb1d51aec2c7bc5471b,,,,,,,decisionTrl,resources/DP.BMP,resources/DBN.BMP,Door3,0.437037037,0.018518519,1,0,0,6.1822,optionRight,70,1030,1,18,0,18,0,1,,,,,,,,,,,,,,,,,,,,,,,,,,,,,,,,,,,,,,,
,,,,,,,,2023-08-16_08h37.48.802,HF_wild_card,2022.2.4,Win32,60.08171113,62ebcfeb8e3a52c0591fd10c,64d2fd46c836a06233681665,64dc7cb1d51aec2c7bc5471b,,,,,,,sngl,resources/DBN.BMP,resources/Empty.png,Door3,-0.200925926,0.005555556,1,0,0,0.5593,optionLeft,70,1100,1,19,0,19,0,1,,,,,,,,,,,,,,,,,,,,,,,,,,,,,,,,,,,,,,,
,,,,,,,,2023-08-16_08h37.48.802,HF_wild_card,2022.2.4,Win32,60.08171113,62ebcfeb8e3a52c0591fd10c,64d2fd46c836a06233681665,64dc7cb1d51aec2c7bc5471b,,,,,,,decisionTrl,resources/DP.BMP,resources/DBN.BMP,Door4,-0.258333333,0.009259259,1,0,0,0.7642,optionLeft,60,1160,1,20,0,20,0,1,,,,,,,,,,,,,,,,,,,,,,,,,,,,,,,,,,,,,,,
,,,,,,,,2023-08-16_08h37.48.802,HF_wild_card,2022.2.4,Win32,60.08171113,62ebcfeb8e3a52c0591fd10c,64d2fd46c836a06233681665,64dc7cb1d51aec2c7bc5471b,,,,,,,decisionTrl,resources/DP.BMP,resources/DR.BMP,Door4,-0.257407407,0.024074074,1,0,0,1.3478,optionLeft,80,1240,1,21,0,21,0,1,,,,,,,,,,,,,,,,,,,,,,,,,,,,,,,,,,,,,,,
,,,,,,,,2023-08-16_08h37.48.802,HF_wild_card,2022.2.4,Win32,60.08171113,62ebcfeb8e3a52c0591fd10c,64d2fd46c836a06233681665,64dc7cb1d51aec2c7bc5471b,,,,,,,decisionTrl,resources/DP.BMP,resources/DBN.BMP,Door4,-0.177777778,0.075,1,0,0,1.4319,optionLeft,80,1320,1,22,0,22,0,1,,,,,,,,,,,,,,,,,,,,,,,,,,,,,,,,,,,,,,,
,,,,,,,,2023-08-16_08h37.48.802,HF_wild_card,2022.2.4,Win32,60.08171113,62ebcfeb8e3a52c0591fd10c,64d2fd46c836a06233681665,64dc7cb1d51aec2c7bc5471b,,,,,,,sngl,resources/Empty.png,resources/DP.BMP,Door4,0.180555556,0.003703704,1,0,0,0.8649,optionRight,60,1380,1,23,0,23,0,1,,,,,,,,,,,,,,,,,,,,,,,,,,,,,,,,,,,,,,,
,,,,,,,,2023-08-16_08h37.48.802,HF_wild_card,2022.2.4,Win32,60.08171113,62ebcfeb8e3a52c0591fd10c,64d2fd46c836a06233681665,64dc7cb1d51aec2c7bc5471b,,,,,,,decisionTrl,resources/DBN.BMP,resources/DP.BMP,Door3,-0.207407407,0.149074074,1,0,0,1.0656,optionLeft,70,1450,1,24,0,24,0,1,,,,,,,,,,,,,,,,,,,,,,,,,,,,,,,,,,,,,,,
,,,,,,,,2023-08-16_08h37.48.802,HF_wild_card,2022.2.4,Win32,60.08171113,62ebcfeb8e3a52c0591fd10c,64d2fd46c836a06233681665,64dc7cb1d51aec2c7bc5471b,,,,,,,decisionTrl,resources/DB.BMP,resources/DG.BMP,Door1,0.410185185,0.1,1,0,0,2.5148,optionRight,30,1480,1,25,0,25,0,1,,,,,,,,,,,,,,,,,,,,,,,,,,,,,,,,,,,,,,,
,,,,,,,,2023-08-16_08h37.48.802,HF_wild_card,2022.2.4,Win32,60.08171113,62ebcfeb8e3a52c0591fd10c,64d2fd46c836a06233681665,64dc7cb1d51aec2c7bc5471b,,,,,,,ctch,resources/DBN.BMP,resources/DB.BMP,Door2,0.341666667,0.030555556,1,0,0,0.5322,optionRight,40,1520,1,26,0,26,0,1,,,,,,,,,,,,,,,,,,,,,,,,,,,,,,,,,,,,,,,
,,,,,,,,2023-08-16_08h37.48.802,HF_wild_card,2022.2.4,Win32,60.08171113,62ebcfeb8e3a52c0591fd10c,64d2fd46c836a06233681665,64dc7cb1d51aec2c7bc5471b,,,,,,,decisionTrl,resources/DB.BMP,resources/DG.BMP,Door2,-0.27037037,0.046296296,1,0,0,1.1993,optionLeft,20,1540,1,27,0,27,0,1,,,,,,,,,,,,,,,,,,,,,,,,,,,,,,,,,,,,,,,
,,,,,,,,2023-08-16_08h37.48.802,HF_wild_card,2022.2.4,Win32,60.08171113,62ebcfeb8e3a52c0591fd10c,64d2fd46c836a06233681665,64dc7cb1d51aec2c7bc5471b,,,,,,,decisionTrl,resources/DG.BMP,resources/DB.BMP,Door2,0.250925926,0.053703704,1,0,0,0.7331,optionRight,20,1560,1,28,0,28,0,1,,,,,,,,,,,,,,,,,,,,,,,,,,,,,,,,,,,,,,,
,,,,,,,,2023-08-16_08h37.48.802,HF_wild_card,2022.2.4,Win32,60.08171113,62ebcfeb8e3a52c0591fd10c,64d2fd46c836a06233681665,64dc7cb1d51aec2c7bc5471b,,,,,,,decisionTrl,resources/DR.BMP,resources/DB.BMP,WildCard_NonEx,-0.226851852,0.034259259,1,0,0,0.665,optionLeft,55,1615,1,29,0,29,0,1,,,,,,,,,,,,,,,,,,,,,,,,,,,,,,,,,,,,,,,
,,,,,,,,2023-08-16_08h37.48.802,HF_wild_card,2022.2.4,Win32,60.08171113,62ebcfeb8e3a52c0591fd10c,64d2fd46c836a06233681665,64dc7cb1d51aec2c7bc5471b,,,,,,,decisionTrl,resources/DR.BMP,resources/DG.BMP,WildCard_NonEx,-0.262037037,0.05,1,0,0,0.5823,optionLeft,55,1670,1,30,0,30,0,1,,,,,,,,,,,,,,,,,,,,,,,,,,,,,,,,,,,,,,,
,,,,,,,,2023-08-16_08h37.48.802,HF_wild_card,2022.2.4,Win32,60.08171113,62ebcfeb8e3a52c0591fd10c,64d2fd46c836a06233681665,64dc7cb1d51aec2c7bc5471b,,,,,,,decisionTrl,resources/DG.BMP,resources/DB.BMP,Door1,-0.150925926,0.038888889,1,0,0,1.5994,optionLeft,30,1700,1,31,0,31,0,1,,,,,,,,,,,,,,,,,,,,,,,,,,,,,,,,,,,,,,,
,,,,,,,,2023-08-16_08h37.48.802,HF_wild_card,2022.2.4,Win32,60.08171113,62ebcfeb8e3a52c0591fd10c,64d2fd46c836a06233681665,64dc7cb1d51aec2c7bc5471b,,,,,,,decisionTrl,resources/DB.BMP,resources/DG.BMP,Door2,-0.287037037,0.042592593,1,0,0,0.9986,optionLeft,20,1720,1,32,0,32,0,1,,,,,,,,,,,,,,,,,,,,,,,,,,,,,,,,,,,,,,,
,,,,,,,,2023-08-16_08h37.48.802,HF_wild_card,2022.2.4,Win32,60.08171113,62ebcfeb8e3a52c0591fd10c,64d2fd46c836a06233681665,64dc7cb1d51aec2c7bc5471b,,,,,,,decisionTrl,resources/DB.BMP,resources/DG.BMP,Door1,0.349074074,0.021296296,1,0,0,0.5494,optionRight,30,1750,1,33,0,33,0,1,,,,,,,,,,,,,,,,,,,,,,,,,,,,,,,,,,,,,,,
,,,,,,,,2023-08-16_08h37.48.802,HF_wild_card,2022.2.4,Win32,60.08171113,62ebcfeb8e3a52c0591fd10c,64d2fd46c836a06233681665,64dc7cb1d51aec2c7bc5471b,,,,,,,ctch,resources/DP.BMP,resources/DG.BMP,Door4,-0.316666667,0.062037037,1,0,0,3.2651,optionLeft,80,1830,1,34,0,34,0,1,,,,,,,,,,,,,,,,,,,,,,,,,,,,,,,,,,,,,,,
,,,,,,,,2023-08-16_08h37.48.802,HF_wild_card,2022.2.4,Win32,60.08171113,62ebcfeb8e3a52c0591fd10c,64d2fd46c836a06233681665,64dc7cb1d51aec2c7bc5471b,,,,,,,sngl,resources/Empty.png,resources/DBN.BMP,Door3,0.381481481,0.077777778,1,0,0,0.7662,optionRight,70,1900,1,35,0,35,0,1,,,,,,,,,,,,,,,,,,,,,,,,,,,,,,,,,,,,,,,
,,,,,,,,2023-08-16_08h37.48.802,HF_wild_card,2022.2.4,Win32,60.08171113,62ebcfeb8e3a52c0591fd10c,64d2fd46c836a06233681665,64dc7cb1d51aec2c7bc5471b,,,,,,,sngl,resources/DB.BMP,resources/Empty.png,Door2,-0.433333333,0.094444444,1,0,0,0.7981,optionLeft,40,1940,1,36,0,36,0,1,,,,,,,,,,,,,,,,,,,,,,,,,,,,,,,,,,,,,,,
,,,,,,,,2023-08-16_08h37.48.802,HF_wild_card,2022.2.4,Win32,60.08171113,62ebcfeb8e3a52c0591fd10c,64d2fd46c836a06233681665,64dc7cb1d51aec2c7bc5471b,,,,,,,ctch,resources/DP.BMP,resources/DG.BMP,Door4,-0.231481481,0.078703704,1,0,0,1.5478,optionLeft,80,2020,1,37,0,37,0,1,,,,,,,,,,,,,,,,,,,,,,,,,,,,,,,,,,,,,,,
,,,,,,,,2023-08-16_08h37.48.802,HF_wild_card,2022.2.4,Win32,60.08171113,62ebcfeb8e3a52c0591fd10c,64d2fd46c836a06233681665,64dc7cb1d51aec2c7bc5471b,,,,,,,decisionTrl,resources/DR.BMP,resources/DP.BMP,WildCard_NonEx,-0.340740741,0.076851852,1,0,0,2.3829,optionLeft,55,2075,1,38,0,38,0,1,,,,,,,,,,,,,,,,,,,,,,,,,,,,,,,,,,,,,,,
,,,,,,,,2023-08-16_08h37.48.802,HF_wild_card,2022.2.4,Win32,60.08171113,62ebcfeb8e3a52c0591fd10c,64d2fd46c836a06233681665,64dc7cb1d51aec2c7bc5471b,,,,,,,decisionTrl,resources/DBN.BMP,resources/DP.BMP,Door3,-0.331481481,0.021296296,1,0,0,5.7558,optionLeft,70,2145,1,39,0,39,0,1,,,,,,,,,,,,,,,,,,,,,,,,,,,,,,,,,,,,,,,
,,,,,,,,2023-08-16_08h37.48.802,HF_wild_card,2022.2.4,Win32,60.08171113,62ebcfeb8e3a52c0591fd10c,64d2fd46c836a06233681665,64dc7cb1d51aec2c7bc5471b,,,,,,,sngl,resources/Empty.png,resources/DR.BMP,WildCard_NonEx,0.294444444,-0.036111111,1,0,0,0.5902,optionRight,45,2190,1,40,0,40,0,1,,,,,,,,,,,,,,,,,,,,,,,,,,,,,,,,,,,,,,,
,,,,,,,,2023-08-16_08h37.48.802,HF_wild_card,2022.2.4,Win32,60.08171113,62ebcfeb8e3a52c0591fd10c,64d2fd46c836a06233681665,64dc7cb1d51aec2c7bc5471b,,,,,,,decisionTrl,resources/DG.BMP,resources/DB.BMP,Door1,-0.223148148,0.058333333,1,0,0,2.3292,optionLeft,30,2220,1,41,0,41,0,1,,,,,,,,,,,,,,,,,,,,,,,,,,,,,,,,,,,,,,,
,,,,,,,,2023-08-16_08h37.48.802,HF_wild_card,2022.2.4,Win32,60.08171113,62ebcfeb8e3a52c0591fd10c,64d2fd46c836a06233681665,64dc7cb1d51aec2c7bc5471b,,,,,,,sngl,resources/DP.BMP,resources/Empty.png,Door4,-0.4,0.083333333,1,0,0,0.7314,optionLeft,80,2300,1,42,0,42,0,1,,,,,,,,,,,,,,,,,,,,,,,,,,,,,,,,,,,,,,,
,,,,,,,,2023-08-16_08h37.48.802,HF_wild_card,2022.2.4,Win32,60.08171113,62ebcfeb8e3a52c0591fd10c,64d2fd46c836a06233681665,64dc7cb1d51aec2c7bc5471b,,,,,,,ctch,resources/DG.BMP,resources/DP.BMP,Door1,-0.499074074,0.094444444,1,0,0,0.9144,optionLeft,30,2330,1,43,0,43,0,1,,,,,,,,,,,,,,,,,,,,,,,,,,,,,,,,,,,,,,,
,,,,,,,,2023-08-16_08h37.48.802,HF_wild_card,2022.2.4,Win32,60.08171113,62ebcfeb8e3a52c0591fd10c,64d2fd46c836a06233681665,64dc7cb1d51aec2c7bc5471b,,,,,,,,,,,,,,,,,,,,,,,,,,0,0,0,0,1,,,,,,,,,,,,,,,,,,,,,,,,,,,,,,,,,,
,,,,,,,,2023-08-16_08h37.48.802,HF_wild_card,2022.2.4,Win32,60.08171113,62ebcfeb8e3a52c0591fd10c,64d2fd46c836a06233681665,64dc7cb1d51aec2c7bc5471b,,,,,,,decisionTrl,resources/DR.BMP,resources/DBN.BMP,Door3,0.291666667,-0.007407407,1,0,0,1.1578,optionRight,70,2400,2,0,0,0,0,1,,,,,,,,,,,,,,,,,,,,,,,,,,,,,,,,,,,,,,,
,,,,,,,,2023-08-16_08h37.48.802,HF_wild_card,2022.2.4,Win32,60.08171113,62ebcfeb8e3a52c0591fd10c,64d2fd46c836a06233681665,64dc7cb1d51aec2c7bc5471b,,,,,,,decisionTrl,resources/DP.BMP,resources/DBN.BMP,Door3,0.199074074,-0.012037037,1,0,0,0.3982,optionRight,70,2470,2,1,0,1,0,1,,,,,,,,,,,,,,,,,,,,,,,,,,,,,,,,,,,,,,,
,,,,,,,,2023-08-16_08h37.48.802,HF_wild_card,2022.2.4,Win32,60.08171113,62ebcfeb8e3a52c0591fd10c,64d2fd46c836a06233681665,64dc7cb1d51aec2c7bc5471b,,,,,,,decisionTrl,resources/DP.BMP,resources/DBN.BMP,Door4,-0.381481481,-0.014814815,1,0,0,0.3986,optionLeft,60,2530,2,2,0,2,0,1,,,,,,,,,,,,,,,,,,,,,,,,,,,,,,,,,,,,,,,
,,,,,,,,2023-08-16_08h37.48.802,HF_wild_card,2022.2.4,Win32,60.08171113,62ebcfeb8e3a52c0591fd10c,64d2fd46c836a06233681665,64dc7cb1d51aec2c7bc5471b,,,,,,,decisionTrl,resources/DBN.BMP,resources/DP.BMP,Door3,-0.469444444,0.017592593,1,0,0,0.5981,optionLeft,70,2600,2,3,0,3,0,1,,,,,,,,,,,,,,,,,,,,,,,,,,,,,,,,,,,,,,,
,,,,,,,,2023-08-16_08h37.48.802,HF_wild_card,2022.2.4,Win32,60.08171113,62ebcfeb8e3a52c0591fd10c,64d2fd46c836a06233681665,64dc7cb1d51aec2c7bc5471b,,,,,,,decisionTrl,resources/DB.BMP,resources/DG.BMP,Door2,-0.265740741,0.008333333,1,0,0,0.9479,optionLeft,40,2640,2,4,0,4,0,1,,,,,,,,,,,,,,,,,,,,,,,,,,,,,,,,,,,,,,,
,,,,,,,,2023-08-16_08h37.48.802,HF_wild_card,2022.2.4,Win32,60.08171113,62ebcfeb8e3a52c0591fd10c,64d2fd46c836a06233681665,64dc7cb1d51aec2c7bc5471b,,,,,,,sngl,resources/DBN.BMP,resources/Empty.png,Door3,-0.347222222,0.008333333,1,0,0,0.4984,optionLeft,70,2710,2,5,0,5,0,1,,,,,,,,,,,,,,,,,,,,,,,,,,,,,,,,,,,,,,,
,,,,,,,,2023-08-16_08h37.48.802,HF_wild_card,2022.2.4,Win32,60.08171113,62ebcfeb8e3a52c0591fd10c,64d2fd46c836a06233681665,64dc7cb1d51aec2c7bc5471b,,,,,,,sngl,resources/DG.BMP,resources/Empty.png,Door1,-0.353703704,0,1,0,0,0.5818,optionLeft,30,2740,2,6,0,6,0,1,,,,,,,,,,,,,,,,,,,,,,,,,,,,,,,,,,,,,,,
,,,,,,,,2023-08-16_08h37.48.802,HF_wild_card,2022.2.4,Win32,60.08171113,62ebcfeb8e3a52c0591fd10c,64d2fd46c836a06233681665,64dc7cb1d51aec2c7bc5471b,,,,,,,sngl,resources/DR.BMP,resources/Empty.png,WildCard_NonEx,-0.414814815,0.015740741,1,0,0,0.5819,optionLeft,55,2795,2,7,0,7,0,1,,,,,,,,,,,,,,,,,,,,,,,,,,,,,,,,,,,,,,,
,,,,,,,,2023-08-16_08h37.48.802,HF_wild_card,2022.2.4,Win32,60.08171113,62ebcfeb8e3a52c0591fd10c,64d2fd46c836a06233681665,64dc7cb1d51aec2c7bc5471b,,,,,,,decisionTrl,resources/DR.BMP,resources/DB.BMP,WildCard_NonEx,-0.340740741,0.024074074,1,0,0,0.5414,optionLeft,55,2850,2,8,0,8,0,1,,,,,,,,,,,,,,,,,,,,,,,,,,,,,,,,,,,,,,,
,,,,,,,,2023-08-16_08h37.48.802,HF_wild_card,2022.2.4,Win32,60.08171113,62ebcfeb8e3a52c0591fd10c,64d2fd46c836a06233681665,64dc7cb1d51aec2c7bc5471b,,,,,,,decisionTrl,resources/DP.BMP,resources/DBN.BMP,Door4,-0.298148148,0.018518519,1,0,0,1.0811,optionLeft,60,2910,2,9,0,9,0,1,,,,,,,,,,,,,,,,,,,,,,,,,,,,,,,,,,,,,,,
,,,,,,,,2023-08-16_08h37.48.802,HF_wild_card,2022.2.4,Win32,60.08171113,62ebcfeb8e3a52c0591fd10c,64d2fd46c836a06233681665,64dc7cb1d51aec2c7bc5471b,,,,,,,ctch,resources/DG.BMP,resources/DP.BMP,Door4,0.296296296,0.110185185,1,0,0,1.7003,optionRight,80,2990,2,10,0,10,0,1,,,,,,,,,,,,,,,,,,,,,,,,,,,,,,,,,,,,,,,
,,,,,,,,2023-08-16_08h37.48.802,HF_wild_card,2022.2.4,Win32,60.08171113,62ebcfeb8e3a52c0591fd10c,64d2fd46c836a06233681665,64dc7cb1d51aec2c7bc5471b,,,,,,,decisionTrl,resources/DR.BMP,resources/DG.BMP,WildCard_NonEx,-0.337962963,0.076851852,1,0,0,0.8816,optionLeft,45,3035,2,11,0,11,0,1,,,,,,,,,,,,,,,,,,,,,,,,,,,,,,,,,,,,,,,
,,,,,,,,2023-08-16_08h37.48.802,HF_wild_card,2022.2.4,Win32,60.08171113,62ebcfeb8e3a52c0591fd10c,64d2fd46c836a06233681665,64dc7cb1d51aec2c7bc5471b,,,,,,,decisionTrl,resources/DG.BMP,resources/DB.BMP,Door1,-0.290740741,0.103703704,1,0,0,0.8152,optionLeft,30,3065,2,12,0,12,0,1,,,,,,,,,,,,,,,,,,,,,,,,,,,,,,,,,,,,,,,
,,,,,,,,2023-08-16_08h37.48.802,HF_wild_card,2022.2.4,Win32,60.08171113,62ebcfeb8e3a52c0591fd10c,64d2fd46c836a06233681665,64dc7cb1d51aec2c7bc5471b,,,,,,,decisionTrl,resources/DB.BMP,resources/DG.BMP,Door2,-0.310185185,0.062962963,1,0,0,1.1817,optionLeft,20,3085,2,13,0,13,0,1,,,,,,,,,,,,,,,,,,,,,,,,,,,,,,,,,,,,,,,
,,,,,,,,2023-08-16_08h37.48.802,HF_wild_card,2022.2.4,Win32,60.08171113,62ebcfeb8e3a52c0591fd10c,64d2fd46c836a06233681665,64dc7cb1d51aec2c7bc5471b,,,,,,,sngl,resources/DP.BMP,resources/Empty.png,Door4,-0.327777778,0.093518519,1,0,0,0.4703,optionLeft,60,3145,2,14,0,14,0,1,,,,,,,,,,,,,,,,,,,,,,,,,,,,,,,,,,,,,,,
,,,,,,,,2023-08-16_08h37.48.802,HF_wild_card,2022.2.4,Win32,60.08171113,62ebcfeb8e3a52c0591fd10c,64d2fd46c836a06233681665,64dc7cb1d51aec2c7bc5471b,,,,,,,sngl,resources/Empty.png,resources/DR.BMP,WildCard_NonEx,0.276851852,0.076851852,1,0,0,0.5814,optionRight,55,3200,2,15,0,15,0,1,,,,,,,,,,,,,,,,,,,,,,,,,,,,,,,,,,,,,,,
,,,,,,,,2023-08-16_08h37.48.802,HF_wild_card,2022.2.4,Win32,60.08171113,62ebcfeb8e3a52c0591fd10c,64d2fd46c836a06233681665,64dc7cb1d51aec2c7bc5471b,,,,,,,decisionTrl,resources/DG.BMP,resources/DR.BMP,WildCard_NonEx,0.249074074,0.063888889,1,0,0,0.6241,optionRight,55,3255,2,16,0,16,0,1,,,,,,,,,,,,,,,,,,,,,,,,,,,,,,,,,,,,,,,
,,,,,,,,2023-08-16_08h37.48.802,HF_wild_card,2022.2.4,Win32,60.08171113,62ebcfeb8e3a52c0591fd10c,64d2fd46c836a06233681665,64dc7cb1d51aec2c7bc5471b,,,,,,,decisionTrl,resources/DB.BMP,resources/DR.BMP,WildCard_NonEx,0.174074074,0.066666667,1,0,0,0.5808,optionRight,55,3310,2,17,0,17,0,1,,,,,,,,,,,,,,,,,,,,,,,,,,,,,,,,,,,,,,,
,,,,,,,,2023-08-16_08h37.48.802,HF_wild_card,2022.2.4,Win32,60.08171113,62ebcfeb8e3a52c0591fd10c,64d2fd46c836a06233681665,64dc7cb1d51aec2c7bc5471b,,,,,,,ctch,resources/DB.BMP,resources/DBN.BMP,Door3,0.421296296,0.183333333,1,0,0,0.9991,optionRight,70,3380,2,18,0,18,0,1,,,,,,,,,,,,,,,,,,,,,,,,,,,,,,,,,,,,,,,
,,,,,,,,2023-08-16_08h37.48.802,HF_wild_card,2022.2.4,Win32,60.08171113,62ebcfeb8e3a52c0591fd10c,64d2fd46c836a06233681665,64dc7cb1d51aec2c7bc5471b,,,,,,,ctch,resources/DP.BMP,resources/DG.BMP,Door4,-0.344444444,0.063888889,1,0,0,0.7096,optionLeft,60,3440,2,19,0,19,0,1,,,,,,,,,,,,,,,,,,,,,,,,,,,,,,,,,,,,,,,
,,,,,,,,2023-08-16_08h37.48.802,HF_wild_card,2022.2.4,Win32,60.08171113,62ebcfeb8e3a52c0591fd10c,64d2fd46c836a06233681665,64dc7cb1d51aec2c7bc5471b,,,,,,,ctch,resources/DB.BMP,resources/DBN.BMP,Door3,0.236111111,0.07962963,1,0,0,0.5513,optionRight,70,3510,2,20,0,20,0,1,,,,,,,,,,,,,,,,,,,,,,,,,,,,,,,,,,,,,,,
,,,,,,,,2023-08-16_08h37.48.802,HF_wild_card,2022.2.4,Win32,60.08171113,62ebcfeb8e3a52c0591fd10c,64d2fd46c836a06233681665,64dc7cb1d51aec2c7bc5471b,,,,,,,decisionTrl,resources/DB.BMP,resources/DG.BMP,Door2,-0.19537037,0.030555556,1,0,0,0.9484,optionLeft,40,3550,2,21,0,21,0,1,,,,,,,,,,,,,,,,,,,,,,,,,,,,,,,,,,,,,,,
,,,,,,,,2023-08-16_08h37.48.802,HF_wild_card,2022.2.4,Win32,60.08171113,62ebcfeb8e3a52c0591fd10c,64d2fd46c836a06233681665,64dc7cb1d51aec2c7bc5471b,,,,,,,ctch,resources/DBN.BMP,resources/DB.BMP,Door3,-0.259259259,0.090740741,1,0,0,0.6811,optionLeft,70,3620,2,22,0,22,0,1,,,,,,,,,,,,,,,,,,,,,,,,,,,,,,,,,,,,,,,
,,,,,,,,2023-08-16_08h37.48.802,HF_wild_card,2022.2.4,Win32,60.08171113,62ebcfeb8e3a52c0591fd10c,64d2fd46c836a06233681665,64dc7cb1d51aec2c7bc5471b,,,,,,,ctch,resources/DG.BMP,resources/DP.BMP,Door4,0.288888889,0.07962963,1,0,0,0.7148,optionRight,60,3680,2,23,0,23,0,1,,,,,,,,,,,,,,,,,,,,,,,,,,,,,,,,,,,,,,,
,,,,,,,,2023-08-16_08h37.48.802,HF_wild_card,2022.2.4,Win32,60.08171113,62ebcfeb8e3a52c0591fd10c,64d2fd46c836a06233681665,64dc7cb1d51aec2c7bc5471b,,,,,,,sngl,resources/DB.BMP,resources/Empty.png,Door2,-0.157407407,0.083333333,1,0,0,0.6493,optionLeft,20,3700,2,24,0,24,0,1,,,,,,,,,,,,,,,,,,,,,,,,,,,,,,,,,,,,,,,
,,,,,,,,2023-08-16_08h37.48.802,HF_wild_card,2022.2.4,Win32,60.08171113,62ebcfeb8e3a52c0591fd10c,64d2fd46c836a06233681665,64dc7cb1d51aec2c7bc5471b,,,,,,,decisionTrl,resources/DP.BMP,resources/DBN.BMP,Door3,0.277777778,0.126851852,1,0,0,0.5628,optionRight,70,3770,2,25,0,25,0,1,,,,,,,,,,,,,,,,,,,,,,,,,,,,,,,,,,,,,,,
,,,,,,,,2023-08-16_08h37.48.802,HF_wild_card,2022.2.4,Win32,60.08171113,62ebcfeb8e3a52c0591fd10c,64d2fd46c836a06233681665,64dc7cb1d51aec2c7bc5471b,,,,,,,sngl,resources/Empty.png,resources/DG.BMP,Door1,0.332407407,0.099074074,1,0,0,0.5779,optionRight,30,3800,2,26,0,26,0,1,,,,,,,,,,,,,,,,,,,,,,,,,,,,,,,,,,,,,,,
,,,,,,,,2023-08-16_08h37.48.802,HF_wild_card,2022.2.4,Win32,60.08171113,62ebcfeb8e3a52c0591fd10c,64d2fd46c836a06233681665,64dc7cb1d51aec2c7bc5471b,,,,,,,ctch,resources/DP.BMP,resources/DG.BMP,Door4,-0.261111111,0.113888889,1,0,0,0.5823,optionLeft,60,3860,2,27,0,27,0,1,,,,,,,,,,,,,,,,,,,,,,,,,,,,,,,,,,,,,,,
,,,,,,,,2023-08-16_08h37.48.802,HF_wild_card,2022.2.4,Win32,60.08171113,62ebcfeb8e3a52c0591fd10c,64d2fd46c836a06233681665,64dc7cb1d51aec2c7bc5471b,,,,,,,decisionTrl,resources/DP.BMP,resources/DR.BMP,Door4,-0.264814815,0.107407407,1,0,0,0.5499,optionLeft,80,3940,2,28,0,28,0,1,,,,,,,,,,,,,,,,,,,,,,,,,,,,,,,,,,,,,,,
,,,,,,,,2023-08-16_08h37.48.802,HF_wild_card,2022.2.4,Win32,60.08171113,62ebcfeb8e3a52c0591fd10c,64d2fd46c836a06233681665,64dc7cb1d51aec2c7bc5471b,,,,,,,decisionTrl,resources/DBN.BMP,resources/DP.BMP,Door4,0.306481481,0.108333333,1,0,0,0.6322,optionRight,60,4000,2,29,0,29,0,1,,,,,,,,,,,,,,,,,,,,,,,,,,,,,,,,,,,,,,,
,,,,,,,,2023-08-16_08h37.48.802,HF_wild_card,2022.2.4,Win32,60.08171113,62ebcfeb8e3a52c0591fd10c,64d2fd46c836a06233681665,64dc7cb1d51aec2c7bc5471b,,,,,,,decisionTrl,resources/DBN.BMP,resources/DP.BMP,Door3,-0.165740741,0.085185185,1,0,0,0.4828,optionLeft,70,4070,2,30,0,30,0,1,,,,,,,,,,,,,,,,,,,,,,,,,,,,,,,,,,,,,,,
,,,,,,,,2023-08-16_08h37.48.802,HF_wild_card,2022.2.4,Win32,60.08171113,62ebcfeb8e3a52c0591fd10c,64d2fd46c836a06233681665,64dc7cb1d51aec2c7bc5471b,,,,,,,sngl,resources/Empty.png,resources/DR.BMP,WildCard_NonEx,0.178703704,0.066666667,1,0,0,0.5577,optionRight,45,4115,2,31,0,31,0,1,,,,,,,,,,,,,,,,,,,,,,,,,,,,,,,,,,,,,,,
,,,,,,,,2023-08-16_08h37.48.802,HF_wild_card,2022.2.4,Win32,60.08171113,62ebcfeb8e3a52c0591fd10c,64d2fd46c836a06233681665,64dc7cb1d51aec2c7bc5471b,,,,,,,ctch,resources/DBN.BMP,resources/DB.BMP,Door3,-0.290740741,0.089814815,1,0,0,0.8747,optionLeft,70,4185,2,32,0,32,0,1,,,,,,,,,,,,,,,,,,,,,,,,,,,,,,,,,,,,,,,
,,,,,,,,2023-08-16_08h37.48.802,HF_wild_card,2022.2.4,Win32,60.08171113,62ebcfeb8e3a52c0591fd10c,64d2fd46c836a06233681665,64dc7cb1d51aec2c7bc5471b,,,,,,,decisionTrl,resources/DG.BMP,resources/DB.BMP,Door1,-0.294444444,0.149074074,1,0,0,0.8967,optionLeft,30,4215,2,33,0,33,0,1,,,,,,,,,,,,,,,,,,,,,,,,,,,,,,,,,,,,,,,
,,,,,,,,2023-08-16_08h37.48.802,HF_wild_card,2022.2.4,Win32,60.08171113,62ebcfeb8e3a52c0591fd10c,64d2fd46c836a06233681665,64dc7cb1d51aec2c7bc5471b,,,,,,,decisionTrl,resources/DBN.BMP,resources/DR.BMP,Door3,-0.299074074,0.137962963,1,0,0,0.4812,optionLeft,70,4285,2,34,0,34,0,1,,,,,,,,,,,,,,,,,,,,,,,,,,,,,,,,,,,,,,,
,,,,,,,,2023-08-16_08h37.48.802,HF_wild_card,2022.2.4,Win32,60.08171113,62ebcfeb8e3a52c0591fd10c,64d2fd46c836a06233681665,64dc7cb1d51aec2c7bc5471b,,,,,,,sngl,resources/Empty.png,resources/DP.BMP,Door4,0.293518519,0.078703704,1,0,0,0.5317,optionRight,80,4365,2,35,0,35,0,1,,,,,,,,,,,,,,,,,,,,,,,,,,,,,,,,,,,,,,,
,,,,,,,,2023-08-16_08h37.48.802,HF_wild_card,2022.2.4,Win32,60.08171113,62ebcfeb8e3a52c0591fd10c,64d2fd46c836a06233681665,64dc7cb1d51aec2c7bc5471b,,,,,,,sngl,resources/Empty.png,resources/DBN.BMP,Door3,0.312037037,0.069444444,1,0,0,0.6151,optionRight,70,4435,2,36,0,36,0,1,,,,,,,,,,,,,,,,,,,,,,,,,,,,,,,,,,,,,,,
,,,,,,,,2023-08-16_08h37.48.802,HF_wild_card,2022.2.4,Win32,60.08171113,62ebcfeb8e3a52c0591fd10c,64d2fd46c836a06233681665,64dc7cb1d51aec2c7bc5471b,,,,,,,decisionTrl,resources/DG.BMP,resources/DB.BMP,Door1,-0.388888889,0.099074074,1,0,0,3.4313,optionLeft,30,4465,2,37,0,37,0,1,,,,,,,,,,,,,,,,,,,,,,,,,,,,,,,,,,,,,,,
,,,,,,,,2023-08-16_08h37.48.802,HF_wild_card,2022.2.4,Win32,60.08171113,62ebcfeb8e3a52c0591fd10c,64d2fd46c836a06233681665,64dc7cb1d51aec2c7bc5471b,,,,,,,decisionTrl,resources/DBN.BMP,resources/DP.BMP,Door3,-0.392592593,0.123148148,1,0,0,1.0162,optionLeft,70,4535,2,38,0,38,0,1,,,,,,,,,,,,,,,,,,,,,,,,,,,,,,,,,,,,,,,
,,,,,,,,2023-08-16_08h37.48.802,HF_wild_card,2022.2.4,Win32,60.08171113,62ebcfeb8e3a52c0591fd10c,64d2fd46c836a06233681665,64dc7cb1d51aec2c7bc5471b,,,,,,,decisionTrl,resources/DB.BMP,resources/DG.BMP,Door2,-0.310185185,0.146296296,1,0,0,0.9492,optionLeft,20,4555,2,39,0,39,0,1,,,,,,,,,,,,,,,,,,,,,,,,,,,,,,,,,,,,,,,
,,,,,,,,2023-08-16_08h37.48.802,HF_wild_card,2022.2.4,Win32,60.08171113,62ebcfeb8e3a52c0591fd10c,64d2fd46c836a06233681665,64dc7cb1d51aec2c7bc5471b,,,,,,,decisionTrl,resources/DR.BMP,resources/DP.BMP,Door4,0.347222222,0.068518519,1,0,0,0.766,optionRight,80,4635,2,40,0,40,0,1,,,,,,,,,,,,,,,,,,,,,,,,,,,,,,,,,,,,,,,
,,,,,,,,2023-08-16_08h37.48.802,HF_wild_card,2022.2.4,Win32,60.08171113,62ebcfeb8e3a52c0591fd10c,64d2fd46c836a06233681665,64dc7cb1d51aec2c7bc5471b,,,,,,,decisionTrl,resources/DG.BMP,resources/DB.BMP,Door1,-0.213888889,0.10462963,1,0,0,0.7153,optionLeft,30,4665,2,41,0,41,0,1,,,,,,,,,,,,,,,,,,,,,,,,,,,,,,,,,,,,,,,
,,,,,,,,2023-08-16_08h37.48.802,HF_wild_card,2022.2.4,Win32,60.08171113,62ebcfeb8e3a52c0591fd10c,64d2fd46c836a06233681665,64dc7cb1d51aec2c7bc5471b,,,,,,,sngl,resources/Empty.png,resources/DB.BMP,Door2,0.228703704,0.086111111,1,0,0,0.5319,optionRight,40,4705,2,42,0,42,0,1,,,,,,,,,,,,,,,,,,,,,,,,,,,,,,,,,,,,,,,
,,,,,,,,2023-08-16_08h37.48.802,HF_wild_card,2022.2.4,Win32,60.08171113,62ebcfeb8e3a52c0591fd10c,64d2fd46c836a06233681665,64dc7cb1d51aec2c7bc5471b,,,,,,,sngl,resources/DR.BMP,resources/Empty.png,WildCard_NonEx,-0.27037037,0.126851852,1,0,0,0.4488,optionLeft,45,4750,2,43,0,43,0,1,,,,,,,,,,,,,,,,,,,,,,,,,,,,,,,,,,,,,,,
,,,,,,,,2023-08-16_08h37.48.802,HF_wild_card,2022.2.4,Win32,60.08171113,62ebcfeb8e3a52c0591fd10c,64d2fd46c836a06233681665,64dc7cb1d51aec2c7bc5471b,,,,,,,,,,,,,,,,,,,,,,,,,,1,0,1,0,1,,,,,,,,,,,,,,,,,,,,,,,,,,,,,,,,,,
,,,,,,,,2023-08-16_08h37.48.802,HF_wild_card,2022.2.4,Win32,60.08171113,62ebcfeb8e3a52c0591fd10c,64d2fd46c836a06233681665,64dc7cb1d51aec2c7bc5471b,,,,,,,ctch,resources/DP.BMP,resources/DG.BMP,Door4,-0.336111111,0.017592593,1,0,0,0.8084,optionLeft,60,4810,3,0,0,0,0,1,,,,,,,,,,,,,,,,,,,,,,,,,,,,,,,,,,,,,,,
,,,,,,,,2023-08-16_08h37.48.802,HF_wild_card,2022.2.4,Win32,60.08171113,62ebcfeb8e3a52c0591fd10c,64d2fd46c836a06233681665,64dc7cb1d51aec2c7bc5471b,,,,,,,ctch,resources/DBN.BMP,resources/DB.BMP,Door3,-0.431481481,0.111111111,1,0,0,0.5764,optionLeft,70,4880,3,1,0,1,0,1,,,,,,,,,,,,,,,,,,,,,,,,,,,,,,,,,,,,,,,
,,,,,,,,2023-08-16_08h37.48.802,HF_wild_card,2022.2.4,Win32,60.08171113,62ebcfeb8e3a52c0591fd10c,64d2fd46c836a06233681665,64dc7cb1d51aec2c7bc5471b,,,,,,,sngl,resources/Empty.png,resources/DP.BMP,Door4,0.232407407,0.038888889,1,0,0,0.5177,optionRight,60,4940,3,2,0,2,0,1,,,,,,,,,,,,,,,,,,,,,,,,,,,,,,,,,,,,,,,
,,,,,,,,2023-08-16_08h37.48.802,HF_wild_card,2022.2.4,Win32,60.08171113,62ebcfeb8e3a52c0591fd10c,64d2fd46c836a06233681665,64dc7cb1d51aec2c7bc5471b,,,,,,,sngl,resources/DP.BMP,resources/Empty.png,Door4,-0.421296296,0.076851852,1,0,0,0.4151,optionLeft,80,5020,3,3,0,3,0,1,,,,,,,,,,,,,,,,,,,,,,,,,,,,,,,,,,,,,,,
,,,,,,,,2023-08-16_08h37.48.802,HF_wild_card,2022.2.4,Win32,60.08171113,62ebcfeb8e3a52c0591fd10c,64d2fd46c836a06233681665,64dc7cb1d51aec2c7bc5471b,,,,,,,decisionTrl,resources/DB.BMP,resources/DG.BMP,Door1,0.328703704,0.021296296,1,0,0,0.7824,optionRight,30,5050,3,4,0,4,0,1,,,,,,,,,,,,,,,,,,,,,,,,,,,,,,,,,,,,,,,
,,,,,,,,2023-08-16_08h37.48.802,HF_wild_card,2022.2.4,Win32,60.08171113,62ebcfeb8e3a52c0591fd10c,64d2fd46c836a06233681665,64dc7cb1d51aec2c7bc5471b,,,,,,,ctch,resources/DB.BMP,resources/DBN.BMP,Door3,0.371296296,0.094444444,1,0,0,0.5326,optionRight,70,5120,3,5,0,5,0,1,,,,,,,,,,,,,,,,,,,,,,,,,,,,,,,,,,,,,,,
,,,,,,,,2023-08-16_08h37.48.802,HF_wild_card,2022.2.4,Win32,60.08171113,62ebcfeb8e3a52c0591fd10c,64d2fd46c836a06233681665,64dc7cb1d51aec2c7bc5471b,,,,,,,sngl,resources/Empty.png,resources/DG.BMP,Door1,0.201851852,0.062962963,1,0,0,0.5657,optionRight,30,5150,3,6,0,6,0,1,,,,,,,,,,,,,,,,,,,,,,,,,,,,,,,,,,,,,,,
,,,,,,,,2023-08-16_08h37.48.802,HF_wild_card,2022.2.4,Win32,60.08171113,62ebcfeb8e3a52c0591fd10c,64d2fd46c836a06233681665,64dc7cb1d51aec2c7bc5471b,,,,,,,ctch,resources/DP.BMP,resources/DG.BMP,Door4,-0.366666667,0.078703704,1,0,0,0.6742,optionLeft,80,5230,3,7,0,7,0,1,,,,,,,,,,,,,,,,,,,,,,,,,,,,,,,,,,,,,,,
,,,,,,,,2023-08-16_08h37.48.802,HF_wild_card,2022.2.4,Win32,60.08171113,62ebcfeb8e3a52c0591fd10c,64d2fd46c836a06233681665,64dc7cb1d51aec2c7bc5471b,,,,,,,decisionTrl,resources/DB.BMP,resources/DR.BMP,WildCard_NonEx,0.219444444,0.049074074,1,0,0,4.1075,optionRight,55,5285,3,8,0,8,0,1,,,,,,,,,,,,,,,,,,,,,,,,,,,,,,,,,,,,,,,
,,,,,,,,2023-08-16_08h37.48.802,HF_wild_card,2022.2.4,Win32,60.08171113,62ebcfeb8e3a52c0591fd10c,64d2fd46c836a06233681665,64dc7cb1d51aec2c7bc5471b,,,,,,,ctch,resources/DB.BMP,resources/DBN.BMP,Door3,0.392592593,0.156481481,1,0,0,0.5486,optionRight,70,5355,3,9,0,9,0,1,,,,,,,,,,,,,,,,,,,,,,,,,,,,,,,,,,,,,,,
,,,,,,,,2023-08-16_08h37.48.802,HF_wild_card,2022.2.4,Win32,60.08171113,62ebcfeb8e3a52c0591fd10c,64d2fd46c836a06233681665,64dc7cb1d51aec2c7bc5471b,,,,,,,sngl,resources/Empty.png,resources/DB.BMP,Door2,0.193518519,0.05,1,0,0,0.5598,optionRight,20,5375,3,10,0,10,0,1,,,,,,,,,,,,,,,,,,,,,,,,,,,,,,,,,,,,,,,
,,,,,,,,2023-08-16_08h37.48.802,HF_wild_card,2022.2.4,Win32,60.08171113,62ebcfeb8e3a52c0591fd10c,64d2fd46c836a06233681665,64dc7cb1d51aec2c7bc5471b,,,,,,,decisionTrl,resources/DBN.BMP,resources/DR.BMP,Door3,-0.312037037,0.096296296,1,0,0,0.481,optionLeft,70,5445,3,11,0,11,0,1,,,,,,,,,,,,,,,,,,,,,,,,,,,,,,,,,,,,,,,
,,,,,,,,2023-08-16_08h37.48.802,HF_wild_card,2022.2.4,Win32,60.08171113,62ebcfeb8e3a52c0591fd10c,64d2fd46c836a06233681665,64dc7cb1d51aec2c7bc5471b,,,,,,,decisionTrl,resources/DP.BMP,resources/DBN.BMP,Door4,-0.246296296,0.143518519,1,0,0,5.4161,optionLeft,80,5525,3,12,0,12,0,1,,,,,,,,,,,,,,,,,,,,,,,,,,,,,,,,,,,,,,,
,,,,,,,,2023-08-16_08h37.48.802,HF_wild_card,2022.2.4,Win32,60.08171113,62ebcfeb8e3a52c0591fd10c,64d2fd46c836a06233681665,64dc7cb1d51aec2c7bc5471b,,,,,,,decisionTrl,resources/DP.BMP,resources/DR.BMP,Door4,-0.27037037,0.02962963,1,0,0,0.5487,optionLeft,60,5585,3,13,0,13,0,1,,,,,,,,,,,,,,,,,,,,,,,,,,,,,,,,,,,,,,,
,,,,,,,,2023-08-16_08h37.48.802,HF_wild_card,2022.2.4,Win32,60.08171113,62ebcfeb8e3a52c0591fd10c,64d2fd46c836a06233681665,64dc7cb1d51aec2c7bc5471b,,,,,,,decisionTrl,resources/DB.BMP,resources/DG.BMP,Door1,0.319444444,-0.141666667,1,0,0,4.6158,optionRight,30,5615,3,14,0,14,0,1,,,,,,,,,,,,,,,,,,,,,,,,,,,,,,,,,,,,,,,
,,,,,,,,2023-08-16_08h37.48.802,HF_wild_card,2022.2.4,Win32,60.08171113,62ebcfeb8e3a52c0591fd10c,64d2fd46c836a06233681665,64dc7cb1d51aec2c7bc5471b,,,,,,,decisionTrl,resources/DG.BMP,resources/DB.BMP,Door1,-0.217592593,0.080555556,1,0,0,0.543,optionLeft,30,5645,3,15,0,15,0,1,,,,,,,,,,,,,,,,,,,,,,,,,,,,,,,,,,,,,,,
,,,,,,,,2023-08-16_08h37.48.802,HF_wild_card,2022.2.4,Win32,60.08171113,62ebcfeb8e3a52c0591fd10c,64d2fd46c836a06233681665,64dc7cb1d51aec2c7bc5471b,,,,,,,decisionTrl,resources/DBN.BMP,resources/DP.BMP,Door3,-0.276851852,0.127777778,1,0,0,0.5981,optionLeft,70,5715,3,16,0,16,0,1,,,,,,,,,,,,,,,,,,,,,,,,,,,,,,,,,,,,,,,
,,,,,,,,2023-08-16_08h37.48.802,HF_wild_card,2022.2.4,Win32,60.08171113,62ebcfeb8e3a52c0591fd10c,64d2fd46c836a06233681665,64dc7cb1d51aec2c7bc5471b,,,,,,,decisionTrl,resources/DR.BMP,resources/DBN.BMP,Door3,0.362037037,0.069444444,1,0,0,0.4939,optionRight,70,5785,3,17,0,17,0,1,,,,,,,,,,,,,,,,,,,,,,,,,,,,,,,,,,,,,,,
,,,,,,,,2023-08-16_08h37.48.802,HF_wild_card,2022.2.4,Win32,60.08171113,62ebcfeb8e3a52c0591fd10c,64d2fd46c836a06233681665,64dc7cb1d51aec2c7bc5471b,,,,,,,sngl,resources/DBN.BMP,resources/Empty.png,Door3,-0.263888889,0.088888889,1,0,0,0.5603,optionLeft,70,5855,3,18,0,18,0,1,,,,,,,,,,,,,,,,,,,,,,,,,,,,,,,,,,,,,,,
,,,,,,,,2023-08-16_08h37.48.802,HF_wild_card,2022.2.4,Win32,60.08171113,62ebcfeb8e3a52c0591fd10c,64d2fd46c836a06233681665,64dc7cb1d51aec2c7bc5471b,,,,,,,decisionTrl,resources/DG.BMP,resources/DB.BMP,Door1,-0.234259259,0.036111111,1,0,0,0.6487,optionLeft,30,5885,3,19,0,19,0,1,,,,,,,,,,,,,,,,,,,,,,,,,,,,,,,,,,,,,,,
,,,,,,,,2023-08-16_08h37.48.802,HF_wild_card,2022.2.4,Win32,60.08171113,62ebcfeb8e3a52c0591fd10c,64d2fd46c836a06233681665,64dc7cb1d51aec2c7bc5471b,,,,,,,decisionTrl,resources/DBN.BMP,resources/DP.BMP,Door4,0.376851852,0.049074074,1,0,0,0.8015,optionRight,60,5945,3,20,0,20,0,1,,,,,,,,,,,,,,,,,,,,,,,,,,,,,,,,,,,,,,,
,,,,,,,,2023-08-16_08h37.48.802,HF_wild_card,2022.2.4,Win32,60.08171113,62ebcfeb8e3a52c0591fd10c,64d2fd46c836a06233681665,64dc7cb1d51aec2c7bc5471b,,,,,,,decisionTrl,resources/DP.BMP,resources/DBN.BMP,Door4,-0.312037037,0.072222222,1,0,0,1.3506,optionLeft,60,6005,3,21,0,21,0,1,,,,,,,,,,,,,,,,,,,,,,,,,,,,,,,,,,,,,,,
,,,,,,,,2023-08-16_08h37.48.802,HF_wild_card,2022.2.4,Win32,60.08171113,62ebcfeb8e3a52c0591fd10c,64d2fd46c836a06233681665,64dc7cb1d51aec2c7bc5471b,,,,,,,decisionTrl,resources/DBN.BMP,resources/DP.BMP,Door3,-0.313888889,0.071296296,1,0,0,0.4149,optionLeft,70,6075,3,22,0,22,0,1,,,,,,,,,,,,,,,,,,,,,,,,,,,,,,,,,,,,,,,
,,,,,,,,2023-08-16_08h37.48.802,HF_wild_card,2022.2.4,Win32,60.08171113,62ebcfeb8e3a52c0591fd10c,64d2fd46c836a06233681665,64dc7cb1d51aec2c7bc5471b,,,,,,,decisionTrl,resources/DR.BMP,resources/DB.BMP,WildCard_NonEx,-0.346296296,0.135185185,1,0,0,1.0155,optionLeft,55,6130,3,23,0,23,0,1,,,,,,,,,,,,,,,,,,,,,,,,,,,,,,,,,,,,,,,
,,,,,,,,2023-08-16_08h37.48.802,HF_wild_card,2022.2.4,Win32,60.08171113,62ebcfeb8e3a52c0591fd10c,64d2fd46c836a06233681665,64dc7cb1d51aec2c7bc5471b,,,,,,,sngl,resources/DG.BMP,resources/Empty.png,Door1,-0.258333333,0.103703704,1,0,0,0.5486,optionLeft,30,6160,3,24,0,24,0,1,,,,,,,,,,,,,,,,,,,,,,,,,,,,,,,,,,,,,,,
,,,,,,,,2023-08-16_08h37.48.802,HF_wild_card,2022.2.4,Win32,60.08171113,62ebcfeb8e3a52c0591fd10c,64d2fd46c836a06233681665,64dc7cb1d51aec2c7bc5471b,,,,,,,decisionTrl,resources/DG.BMP,resources/DR.BMP,Door1,-0.262962963,0.093518519,1,0,0,0.5828,optionLeft,30,6190,3,25,0,25,0,1,,,,,,,,,,,,,,,,,,,,,,,,,,,,,,,,,,,,,,,
,,,,,,,,2023-08-16_08h37.48.802,HF_wild_card,2022.2.4,Win32,60.08171113,62ebcfeb8e3a52c0591fd10c,64d2fd46c836a06233681665,64dc7cb1d51aec2c7bc5471b,,,,,,,decisionTrl,resources/DR.BMP,resources/DP.BMP,Door4,0.205555556,0.030555556,1,0,0,0.6981,optionRight,80,6270,3,26,0,26,0,1,,,,,,,,,,,,,,,,,,,,,,,,,,,,,,,,,,,,,,,
,,,,,,,,2023-08-16_08h37.48.802,HF_wild_card,2022.2.4,Win32,60.08171113,62ebcfeb8e3a52c0591fd10c,64d2fd46c836a06233681665,64dc7cb1d51aec2c7bc5471b,,,,,,,sngl,resources/DR.BMP,resources/Empty.png,WildCard_NonEx,-0.387962963,0.033333333,1,0,0,22.8338,optionLeft,45,6315,3,27,0,27,0,1,,,,,,,,,,,,,,,,,,,,,,,,,,,,,,,,,,,,,,,
,,,,,,,,2023-08-16_08h37.48.802,HF_wild_card,2022.2.4,Win32,60.08171113,62ebcfeb8e3a52c0591fd10c,64d2fd46c836a06233681665,64dc7cb1d51aec2c7bc5471b,,,,,,,sngl,resources/Empty.png,resources/DR.BMP,WildCard_NonEx,0.389814815,0.053703704,1,0,0,0.4649,optionRight,45,6360,3,28,0,28,0,1,,,,,,,,,,,,,,,,,,,,,,,,,,,,,,,,,,,,,,,
,,,,,,,,2023-08-16_08h37.48.802,HF_wild_card,2022.2.4,Win32,60.08171113,62ebcfeb8e3a52c0591fd10c,64d2fd46c836a06233681665,64dc7cb1d51aec2c7bc5471b,,,,,,,decisionTrl,resources/DB.BMP,resources/DG.BMP,Door1,0.305555556,0.108333333,1,0,0,0.6312,optionRight,30,6390,3,29,0,29,0,1,,,,,,,,,,,,,,,,,,,,,,,,,,,,,,,,,,,,,,,
,,,,,,,,2023-08-16_08h37.48.802,HF_wild_card,2022.2.4,Win32,60.08171113,62ebcfeb8e3a52c0591fd10c,64d2fd46c836a06233681665,64dc7cb1d51aec2c7bc5471b,,,,,,,decisionTrl,resources/DP.BMP,resources/DBN.BMP,Door3,0.29537037,0.086111111,1,0,0,0.9161,optionRight,70,6460,3,30,0,30,0,1,,,,,,,,,,,,,,,,,,,,,,,,,,,,,,,,,,,,,,,
,,,,,,,,2023-08-16_08h37.48.802,HF_wild_card,2022.2.4,Win32,60.08171113,62ebcfeb8e3a52c0591fd10c,64d2fd46c836a06233681665,64dc7cb1d51aec2c7bc5471b,,,,,,,ctch,resources/DBN.BMP,resources/DB.BMP,Door3,-0.244444444,0.065740741,1,0,0,0.467,optionLeft,70,6530,3,31,0,31,0,1,,,,,,,,,,,,,,,,,,,,,,,,,,,,,,,,,,,,,,,
,,,,,,,,2023-08-16_08h37.48.802,HF_wild_card,2022.2.4,Win32,60.08171113,62ebcfeb8e3a52c0591fd10c,64d2fd46c836a06233681665,64dc7cb1d51aec2c7bc5471b,,,,,,,sngl,resources/DB.BMP,resources/Empty.png,Door2,-0.30462963,0.034259259,1,0,0,0.6984,optionLeft,40,6570,3,32,0,32,0,1,,,,,,,,,,,,,,,,,,,,,,,,,,,,,,,,,,,,,,,
,,,,,,,,2023-08-16_08h37.48.802,HF_wild_card,2022.2.4,Win32,60.08171113,62ebcfeb8e3a52c0591fd10c,64d2fd46c836a06233681665,64dc7cb1d51aec2c7bc5471b,,,,,,,decisionTrl,resources/DP.BMP,resources/DBN.BMP,Door4,-0.243518519,0.089814815,1,0,0,1.3012,optionLeft,60,6630,3,33,0,33,0,1,,,,,,,,,,,,,,,,,,,,,,,,,,,,,,,,,,,,,,,
,,,,,,,,2023-08-16_08h37.48.802,HF_wild_card,2022.2.4,Win32,60.08171113,62ebcfeb8e3a52c0591fd10c,64d2fd46c836a06233681665,64dc7cb1d51aec2c7bc5471b,,,,,,,ctch,resources/DG.BMP,resources/DP.BMP,Door4,0.25462963,0.041666667,1,0,0,0.6649,optionRight,60,6690,3,34,0,34,0,1,,,,,,,,,,,,,,,,,,,,,,,,,,,,,,,,,,,,,,,
,,,,,,,,2023-08-16_08h37.48.802,HF_wild_card,2022.2.4,Win32,60.08171113,62ebcfeb8e3a52c0591fd10c,64d2fd46c836a06233681665,64dc7cb1d51aec2c7bc5471b,,,,,,,decisionTrl,resources/DBN.BMP,resources/DP.BMP,Door3,-0.212037037,0.064814815,1,0,0,0.5653,optionLeft,70,6760,3,35,0,35,0,1,,,,,,,,,,,,,,,,,,,,,,,,,,,,,,,,,,,,,,,
,,,,,,,,2023-08-16_08h37.48.802,HF_wild_card,2022.2.4,Win32,60.08171113,62ebcfeb8e3a52c0591fd10c,64d2fd46c836a06233681665,64dc7cb1d51aec2c7bc5471b,,,,,,,ctch,resources/DG.BMP,resources/DP.BMP,Door4,0.343518519,0.101851852,1,0,0,0.633,optionRight,80,6840,3,36,0,36,0,1,,,,,,,,,,,,,,,,,,,,,,,,,,,,,,,,,,,,,,,
,,,,,,,,2023-08-16_08h37.48.802,HF_wild_card,2022.2.4,Win32,60.08171113,62ebcfeb8e3a52c0591fd10c,64d2fd46c836a06233681665,64dc7cb1d51aec2c7bc5471b,,,,,,,decisionTrl,resources/DR.BMP,resources/DG.BMP,WildCard_NonEx,-0.244444444,0.033333333,1,0,0,0.6826,optionLeft,45,6885,3,37,0,37,0,1,,,,,,,,,,,,,,,,,,,,,,,,,,,,,,,,,,,,,,,
,,,,,,,,2023-08-16_08h37.48.802,HF_wild_card,2022.2.4,Win32,60.08171113,62ebcfeb8e3a52c0591fd10c,64d2fd46c836a06233681665,64dc7cb1d51aec2c7bc5471b,,,,,,,decisionTrl,resources/DG.BMP,resources/DB.BMP,Door1,-0.476851852,0.098148148,1,0,0,0.7143,optionLeft,30,6915,3,38,0,38,0,1,,,,,,,,,,,,,,,,,,,,,,,,,,,,,,,,,,,,,,,
,,,,,,,,2023-08-16_08h37.48.802,HF_wild_card,2022.2.4,Win32,60.08171113,62ebcfeb8e3a52c0591fd10c,64d2fd46c836a06233681665,64dc7cb1d51aec2c7bc5471b,,,,,,,sngl,resources/Empty.png,resources/DR.BMP,WildCard_NonEx,0.293518519,0.072222222,1,0,0,0.6989,optionRight,55,6970,3,39,0,39,0,1,,,,,,,,,,,,,,,,,,,,,,,,,,,,,,,,,,,,,,,
,,,,,,,,2023-08-16_08h37.48.802,HF_wild_card,2022.2.4,Win32,60.08171113,62ebcfeb8e3a52c0591fd10c,64d2fd46c836a06233681665,64dc7cb1d51aec2c7bc5471b,,,,,,,decisionTrl,resources/DB.BMP,resources/DG.BMP,Door2,-0.218518519,0.048148148,1,0,0,79.2192,optionLeft,40,7010,3,40,0,40,0,1,,,,,,,,,,,,,,,,,,,,,,,,,,,,,,,,,,,,,,,
,,,,,,,,2023-08-16_08h37.48.802,HF_wild_card,2022.2.4,Win32,60.08171113,62ebcfeb8e3a52c0591fd10c,64d2fd46c836a06233681665,64dc7cb1d51aec2c7bc5471b,,,,,,,decisionTrl,resources/DG.BMP,resources/DB.BMP,Door1,-0.35,0.036111111,1,0,0,0.8156,optionLeft,30,7040,3,41,0,41,0,1,,,,,,,,,,,,,,,,,,,,,,,,,,,,,,,,,,,,,,,
,,,,,,,,2023-08-16_08h37.48.802,HF_wild_card,2022.2.4,Win32,60.08171113,62ebcfeb8e3a52c0591fd10c,64d2fd46c836a06233681665,64dc7cb1d51aec2c7bc5471b,,,,,,,sngl,resources/DR.BMP,resources/Empty.png,WildCard_NonEx,-0.305555556,0.071296296,1,0,0,0.597,optionLeft,55,7095,3,42,0,42,0,1,,,,,,,,,,,,,,,,,,,,,,,,,,,,,,,,,,,,,,,
,,,,,,,,2023-08-16_08h37.48.802,HF_wild_card,2022.2.4,Win32,60.08171113,62ebcfeb8e3a52c0591fd10c,64d2fd46c836a06233681665,64dc7cb1d51aec2c7bc5471b,,,,,,,sngl,resources/Empty.png,resources/DBN.BMP,Door3,0.264814815,-0.00462963,1,0,0,0.6815,optionRight,70,7165,3,43,0,43,0,1,,,,,,,,,,,,,,,,,,,,,,,,,,,,,,,,,,,,,,,
,,,,,,,,2023-08-16_08h37.48.802,HF_wild_card,2022.2.4,Win32,60.08171113,62ebcfeb8e3a52c0591fd10c,64d2fd46c836a06233681665,64dc7cb1d51aec2c7bc5471b,,,,,,,,,,,,,,,,,,,,,,,,,,2,0,2,0,1,,,,,,,,,,,,,,,,,,,,,,,,,,,,,,,,,,
,,,,,,,,2023-08-16_08h37.48.802,HF_wild_card,2022.2.4,Win32,60.08171113,62ebcfeb8e3a52c0591fd10c,64d2fd46c836a06233681665,64dc7cb1d51aec2c7bc5471b,,,,,,,decisionTrl,resources/DB.BMP,resources/DY.BMP,WildCard_Ex,0.422222222,-0.084259259,1,0,0,1.0782,optionRight,55,7220,4,0,0,0,0,1,,,,,,,,,,,,,,,,,,,,,,,,,,,,,,,,,,,,,,,
,,,,,,,,2023-08-16_08h37.48.802,HF_wild_card,2022.2.4,Win32,60.08171113,62ebcfeb8e3a52c0591fd10c,64d2fd46c836a06233681665,64dc7cb1d51aec2c7bc5471b,,,,,,,ctch,resources/DB.BMP,resources/DBN.BMP,Door3,0.316666667,0.007407407,1,0,0,0.6122,optionRight,70,7290,4,1,0,1,0,1,,,,,,,,,,,,,,,,,,,,,,,,,,,,,,,,,,,,,,,
,,,,,,,,2023-08-16_08h37.48.802,HF_wild_card,2022.2.4,Win32,60.08171113,62ebcfeb8e3a52c0591fd10c,64d2fd46c836a06233681665,64dc7cb1d51aec2c7bc5471b,,,,,,,sngl,resources/DY.BMP,resources/Empty.png,WildCard_Ex,-0.387962963,0.059259259,1,0,0,0.515,optionLeft,45,7335,4,2,0,2,0,1,,,,,,,,,,,,,,,,,,,,,,,,,,,,,,,,,,,,,,,
,,,,,,,,2023-08-16_08h37.48.802,HF_wild_card,2022.2.4,Win32,60.08171113,62ebcfeb8e3a52c0591fd10c,64d2fd46c836a06233681665,64dc7cb1d51aec2c7bc5471b,,,,,,,ctch,resources/DP.BMP,resources/DG.BMP,Door4,-0.275925926,0.05,1,0,0,0.6137,optionLeft,80,7415,4,3,0,3,0,1,,,,,,,,,,,,,,,,,,,,,,,,,,,,,,,,,,,,,,,
,,,,,,,,2023-08-16_08h37.48.802,HF_wild_card,2022.2.4,Win32,60.08171113,62ebcfeb8e3a52c0591fd10c,64d2fd46c836a06233681665,64dc7cb1d51aec2c7bc5471b,,,,,,,sngl,resources/Empty.png,resources/DBN.BMP,Door3,0.299074074,0.026851852,1,0,0,0.4306,optionRight,70,7485,4,4,0,4,0,1,,,,,,,,,,,,,,,,,,,,,,,,,,,,,,,,,,,,,,,
,,,,,,,,2023-08-16_08h37.48.802,HF_wild_card,2022.2.4,Win32,60.08171113,62ebcfeb8e3a52c0591fd10c,64d2fd46c836a06233681665,64dc7cb1d51aec2c7bc5471b,,,,,,,sngl,resources/DG.BMP,resources/Empty.png,Door1,-0.206481481,0.014814815,1,0,0,0.5814,optionLeft,30,7515,4,5,0,5,0,1,,,,,,,,,,,,,,,,,,,,,,,,,,,,,,,,,,,,,,,
,,,,,,,,2023-08-16_08h37.48.802,HF_wild_card,2022.2.4,Win32,60.08171113,62ebcfeb8e3a52c0591fd10c,64d2fd46c836a06233681665,64dc7cb1d51aec2c7bc5471b,,,,,,,decisionTrl,resources/DY.BMP,resources/DP.BMP,Door4,0.291666667,0.025925926,1,0,0,1.564,optionRight,60,7575,4,6,0,6,0,1,,,,,,,,,,,,,,,,,,,,,,,,,,,,,,,,,,,,,,,
,,,,,,,,2023-08-16_08h37.48.802,HF_wild_card,2022.2.4,Win32,60.08171113,62ebcfeb8e3a52c0591fd10c,64d2fd46c836a06233681665,64dc7cb1d51aec2c7bc5471b,,,,,,,decisionTrl,resources/DY.BMP,resources/DBN.BMP,Door3,0.226851852,0.027777778,1,0,0,0.5314,optionRight,70,7645,4,7,0,7,0,1,,,,,,,,,,,,,,,,,,,,,,,,,,,,,,,,,,,,,,,
,,,,,,,,2023-08-16_08h37.48.802,HF_wild_card,2022.2.4,Win32,60.08171113,62ebcfeb8e3a52c0591fd10c,64d2fd46c836a06233681665,64dc7cb1d51aec2c7bc5471b,,,,,,,decisionTrl,resources/DY.BMP,resources/DB.BMP,WildCard_Ex,-0.293518519,0.068518519,1,0,0,0.5298,optionLeft,55,7700,4,8,0,8,0,1,,,,,,,,,,,,,,,,,,,,,,,,,,,,,,,,,,,,,,,
,,,,,,,,2023-08-16_08h37.48.802,HF_wild_card,2022.2.4,Win32,60.08171113,62ebcfeb8e3a52c0591fd10c,64d2fd46c836a06233681665,64dc7cb1d51aec2c7bc5471b,,,,,,,decisionTrl,resources/DB.BMP,resources/DG.BMP,Door1,0.357407407,-0.052777778,1,0,0,2.6961,optionRight,30,7730,4,9,0,9,0,1,,,,,,,,,,,,,,,,,,,,,,,,,,,,,,,,,,,,,,,
,,,,,,,,2023-08-16_08h37.48.802,HF_wild_card,2022.2.4,Win32,60.08171113,62ebcfeb8e3a52c0591fd10c,64d2fd46c836a06233681665,64dc7cb1d51aec2c7bc5471b,,,,,,,sngl,resources/Empty.png,resources/DB.BMP,Door2,0.443518519,0.018518519,1,0,0,0.465,optionRight,40,7770,4,10,0,10,0,1,,,,,,,,,,,,,,,,,,,,,,,,,,,,,,,,,,,,,,,
,,,,,,,,2023-08-16_08h37.48.802,HF_wild_card,2022.2.4,Win32,60.08171113,62ebcfeb8e3a52c0591fd10c,64d2fd46c836a06233681665,64dc7cb1d51aec2c7bc5471b,,,,,,,ctch,resources/DBN.BMP,resources/DB.BMP,Door3,-0.425,0.038888889,1,0,0,0.515,optionLeft,70,7840,4,11,0,11,0,1,,,,,,,,,,,,,,,,,,,,,,,,,,,,,,,,,,,,,,,
,,,,,,,,2023-08-16_08h37.48.802,HF_wild_card,2022.2.4,Win32,60.08171113,62ebcfeb8e3a52c0591fd10c,64d2fd46c836a06233681665,64dc7cb1d51aec2c7bc5471b,,,,,,,decisionTrl,resources/DP.BMP,resources/DBN.BMP,Door3,0.418518519,0.039814815,1,0,0,0.4481,optionRight,70,7910,4,12,0,12,0,1,,,,,,,,,,,,,,,,,,,,,,,,,,,,,,,,,,,,,,,
,,,,,,,,2023-08-16_08h37.48.802,HF_wild_card,2022.2.4,Win32,60.08171113,62ebcfeb8e3a52c0591fd10c,64d2fd46c836a06233681665,64dc7cb1d51aec2c7bc5471b,,,,,,,decisionTrl,resources/DBN.BMP,resources/DY.BMP,Door3,-0.390740741,0.062037037,1,0,0,0.6463,optionLeft,70,7980,4,13,0,13,0,1,,,,,,,,,,,,,,,,,,,,,,,,,,,,,,,,,,,,,,,
,,,,,,,,2023-08-16_08h37.48.802,HF_wild_card,2022.2.4,Win32,60.08171113,62ebcfeb8e3a52c0591fd10c,64d2fd46c836a06233681665,64dc7cb1d51aec2c7bc5471b,,,,,,,sngl,resources/Empty.png,resources/DG.BMP,Door1,0.309259259,-0.003703704,1,0,0,0.4321,optionRight,30,8010,4,14,0,14,0,1,,,,,,,,,,,,,,,,,,,,,,,,,,,,,,,,,,,,,,,
,,,,,,,,2023-08-16_08h37.48.802,HF_wild_card,2022.2.4,Win32,60.08171113,62ebcfeb8e3a52c0591fd10c,64d2fd46c836a06233681665,64dc7cb1d51aec2c7bc5471b,,,,,,,ctch,resources/DP.BMP,resources/DG.BMP,Door4,-0.342592593,0.039814815,1,0,0,0.4703,optionLeft,60,8070,4,15,0,15,0,1,,,,,,,,,,,,,,,,,,,,,,,,,,,,,,,,,,,,,,,
,,,,,,,,2023-08-16_08h37.48.802,HF_wild_card,2022.2.4,Win32,60.08171113,62ebcfeb8e3a52c0591fd10c,64d2fd46c836a06233681665,64dc7cb1d51aec2c7bc5471b,,,,,,,ctch,resources/DBN.BMP,resources/DB.BMP,Door3,-0.307407407,0.076851852,1,0,0,0.5532,optionLeft,70,8140,4,16,0,16,0,1,,,,,,,,,,,,,,,,,,,,,,,,,,,,,,,,,,,,,,,
,,,,,,,,2023-08-16_08h37.48.802,HF_wild_card,2022.2.4,Win32,60.08171113,62ebcfeb8e3a52c0591fd10c,64d2fd46c836a06233681665,64dc7cb1d51aec2c7bc5471b,,,,,,,ctch,resources/DB.BMP,resources/DBN.BMP,Door3,0.328703704,0.026851852,1,0,0,0.4595,optionRight,70,8210,4,17,0,17,0,1,,,,,,,,,,,,,,,,,,,,,,,,,,,,,,,,,,,,,,,
,,,,,,,,2023-08-16_08h37.48.802,HF_wild_card,2022.2.4,Win32,60.08171113,62ebcfeb8e3a52c0591fd10c,64d2fd46c836a06233681665,64dc7cb1d51aec2c7bc5471b,,,,,,,decisionTrl,resources/DP.BMP,resources/DBN.BMP,Door3,0.377777778,0.017592593,1,0,0,0.5,optionRight,70,8280,4,18,0,18,0,1,,,,,,,,,,,,,,,,,,,,,,,,,,,,,,,,,,,,,,,
,,,,,,,,2023-08-16_08h37.48.802,HF_wild_card,2022.2.4,Win32,60.08171113,62ebcfeb8e3a52c0591fd10c,64d2fd46c836a06233681665,64dc7cb1d51aec2c7bc5471b,,,,,,,decisionTrl,resources/DBN.BMP,resources/DP.BMP,Door3,-0.265740741,0.058333333,1,0,0,0.483,optionLeft,70,8350,4,19,0,19,0,1,,,,,,,,,,,,,,,,,,,,,,,,,,,,,,,,,,,,,,,
,,,,,,,,2023-08-16_08h37.48.802,HF_wild_card,2022.2.4,Win32,60.08171113,62ebcfeb8e3a52c0591fd10c,64d2fd46c836a06233681665,64dc7cb1d51aec2c7bc5471b,,,,,,,decisionTrl,resources/DG.BMP,resources/DY.BMP,WildCard_Ex,0.214814815,0.034259259,1,0,0,0.5984,optionRight,45,8395,4,20,0,20,0,1,,,,,,,,,,,,,,,,,,,,,,,,,,,,,,,,,,,,,,,
,,,,,,,,2023-08-16_08h37.48.802,HF_wild_card,2022.2.4,Win32,60.08171113,62ebcfeb8e3a52c0591fd10c,64d2fd46c836a06233681665,64dc7cb1d51aec2c7bc5471b,,,,,,,sngl,resources/DY.BMP,resources/Empty.png,WildCard_Ex,-0.363888889,0.044444444,1,0,0,0.399,optionLeft,55,8450,4,21,0,21,0,1,,,,,,,,,,,,,,,,,,,,,,,,,,,,,,,,,,,,,,,
,,,,,,,,2023-08-16_08h37.48.802,HF_wild_card,2022.2.4,Win32,60.08171113,62ebcfeb8e3a52c0591fd10c,64d2fd46c836a06233681665,64dc7cb1d51aec2c7bc5471b,,,,,,,ctch,resources/DG.BMP,resources/DP.BMP,Door4,0.360185185,0.000925926,1,0,0,0.5378,optionRight,80,8530,4,22,0,22,0,1,,,,,,,,,,,,,,,,,,,,,,,,,,,,,,,,,,,,,,,
,,,,,,,,2023-08-16_08h37.48.802,HF_wild_card,2022.2.4,Win32,60.08171113,62ebcfeb8e3a52c0591fd10c,64d2fd46c836a06233681665,64dc7cb1d51aec2c7bc5471b,,,,,,,sngl,resources/DP.BMP,resources/Empty.png,Door4,-0.184259259,0.012962963,1,0,0,0.4662,optionLeft,60,8590,4,23,0,23,0,1,,,,,,,,,,,,,,,,,,,,,,,,,,,,,,,,,,,,,,,
,,,,,,,,2023-08-16_08h37.48.802,HF_wild_card,2022.2.4,Win32,60.08171113,62ebcfeb8e3a52c0591fd10c,64d2fd46c836a06233681665,64dc7cb1d51aec2c7bc5471b,,,,,,,decisionTrl,resources/DP.BMP,resources/DBN.BMP,Door3,0.239814815,-0.010185185,1,0,0,0.4351,optionRight,70,8660,4,24,0,24,0,1,,,,,,,,,,,,,,,,,,,,,,,,,,,,,,,,,,,,,,,
,,,,,,,,2023-08-16_08h37.48.802,HF_wild_card,2022.2.4,Win32,60.08171113,62ebcfeb8e3a52c0591fd10c,64d2fd46c836a06233681665,64dc7cb1d51aec2c7bc5471b,,,,,,,decisionTrl,resources/DB.BMP,resources/DG.BMP,Door1,0.385185185,0.012962963,1,0,0,0.7318,optionRight,30,8690,4,25,0,25,0,1,,,,,,,,,,,,,,,,,,,,,,,,,,,,,,,,,,,,,,,
,,,,,,,,2023-08-16_08h37.48.802,HF_wild_card,2022.2.4,Win32,60.08171113,62ebcfeb8e3a52c0591fd10c,64d2fd46c836a06233681665,64dc7cb1d51aec2c7bc5471b,,,,,,,decisionTrl,resources/DBN.BMP,resources/DP.BMP,Door3,-0.219444444,0.022222222,1,0,0,0.9491,optionLeft,70,8760,4,26,0,26,0,1,,,,,,,,,,,,,,,,,,,,,,,,,,,,,,,,,,,,,,,
,,,,,,,,2023-08-16_08h37.48.802,HF_wild_card,2022.2.4,Win32,60.08171113,62ebcfeb8e3a52c0591fd10c,64d2fd46c836a06233681665,64dc7cb1d51aec2c7bc5471b,,,,,,,sngl,resources/Empty.png,resources/DY.BMP,WildCard_Ex,0.241666667,-0.007407407,1,0,0,0.5154,optionRight,45,8805,4,27,0,27,0,1,,,,,,,,,,,,,,,,,,,,,,,,,,,,,,,,,,,,,,,
,,,,,,,,2023-08-16_08h37.48.802,HF_wild_card,2022.2.4,Win32,60.08171113,62ebcfeb8e3a52c0591fd10c,64d2fd46c836a06233681665,64dc7cb1d51aec2c7bc5471b,,,,,,,sngl,resources/DBN.BMP,resources/Empty.png,Door3,-0.244444444,0.00462963,1,0,0,0.8442,optionLeft,70,8875,4,28,0,28,0,1,,,,,,,,,,,,,,,,,,,,,,,,,,,,,,,,,,,,,,,
,,,,,,,,2023-08-16_08h37.48.802,HF_wild_card,2022.2.4,Win32,60.08171113,62ebcfeb8e3a52c0591fd10c,64d2fd46c836a06233681665,64dc7cb1d51aec2c7bc5471b,,,,,,,sngl,resources/Empty.png,resources/DY.BMP,WildCard_Ex,0.363888889,0.001851852,1,0,0,0.5803,optionRight,55,8930,4,29,0,29,0,1,,,,,,,,,,,,,,,,,,,,,,,,,,,,,,,,,,,,,,,
,,,,,,,,2023-08-16_08h37.48.802,HF_wild_card,2022.2.4,Win32,60.08171113,62ebcfeb8e3a52c0591fd10c,64d2fd46c836a06233681665,64dc7cb1d51aec2c7bc5471b,,,,,,,ctch,resources/DG.BMP,resources/DP.BMP,Door4,0.315740741,-0.055555556,1,0,0,0.7321,optionRight,80,9010,4,30,0,30,0,1,,,,,,,,,,,,,,,,,,,,,,,,,,,,,,,,,,,,,,,
,,,,,,,,2023-08-16_08h37.48.802,HF_wild_card,2022.2.4,Win32,60.08171113,62ebcfeb8e3a52c0591fd10c,64d2fd46c836a06233681665,64dc7cb1d51aec2c7bc5471b,,,,,,,sngl,resources/DB.BMP,resources/Empty.png,Door2,-0.271296296,0.019444444,1,0,0,0.4819,optionLeft,20,9030,4,31,0,31,0,1,,,,,,,,,,,,,,,,,,,,,,,,,,,,,,,,,,,,,,,
,,,,,,,,2023-08-16_08h37.48.802,HF_wild_card,2022.2.4,Win32,60.08171113,62ebcfeb8e3a52c0591fd10c,64d2fd46c836a06233681665,64dc7cb1d51aec2c7bc5471b,,,,,,,decisionTrl,resources/DB.BMP,resources/DG.BMP,Door1,0.244444444,0.001851852,1,0,0,0.7493,optionRight,30,9060,4,32,0,32,0,1,,,,,,,,,,,,,,,,,,,,,,,,,,,,,,,,,,,,,,,
,,,,,,,,2023-08-16_08h37.48.802,HF_wild_card,2022.2.4,Win32,60.08171113,62ebcfeb8e3a52c0591fd10c,64d2fd46c836a06233681665,64dc7cb1d51aec2c7bc5471b,,,,,,,decisionTrl,resources/DB.BMP,resources/DG.BMP,Door2,-0.325925926,0.028703704,1,0,0,0.5649,optionLeft,20,9080,4,33,0,33,0,1,,,,,,,,,,,,,,,,,,,,,,,,,,,,,,,,,,,,,,,
,,,,,,,,2023-08-16_08h37.48.802,HF_wild_card,2022.2.4,Win32,60.08171113,62ebcfeb8e3a52c0591fd10c,64d2fd46c836a06233681665,64dc7cb1d51aec2c7bc5471b,,,,,,,decisionTrl,resources/DG.BMP,resources/DB.BMP,Door1,-0.288888889,0.023148148,1,0,0,0.6662,optionLeft,30,9110,4,34,0,34,0,1,,,,,,,,,,,,,,,,,,,,,,,,,,,,,,,,,,,,,,,
,,,,,,,,2023-08-16_08h37.48.802,HF_wild_card,2022.2.4,Win32,60.08171113,62ebcfeb8e3a52c0591fd10c,64d2fd46c836a06233681665,64dc7cb1d51aec2c7bc5471b,,,,,,,decisionTrl,resources/DG.BMP,resources/DB.BMP,Door1,-0.375925926,0.016666667,1,0,0,0.5487,optionLeft,30,9140,4,35,0,35,0,1,,,,,,,,,,,,,,,,,,,,,,,,,,,,,,,,,,,,,,,
,,,,,,,,2023-08-16_08h37.48.802,HF_wild_card,2022.2.4,Win32,60.08171113,62ebcfeb8e3a52c0591fd10c,64d2fd46c836a06233681665,64dc7cb1d51aec2c7bc5471b,,,,,,,decisionTrl,resources/DP.BMP,resources/DBN.BMP,Door3,0.301851852,0.000925926,1,0,0,1.2165,optionRight,70,9210,4,36,0,36,0,1,,,,,,,,,,,,,,,,,,,,,,,,,,,,,,,,,,,,,,,
,,,,,,,,2023-08-16_08h37.48.802,HF_wild_card,2022.2.4,Win32,60.08171113,62ebcfeb8e3a52c0591fd10c,64d2fd46c836a06233681665,64dc7cb1d51aec2c7bc5471b,,,,,,,decisionTrl,resources/DG.BMP,resources/DB.BMP,Door1,-0.346296296,0.02962963,1,0,0,0.6318,optionLeft,30,9240,4,37,0,37,0,1,,,,,,,,,,,,,,,,,,,,,,,,,,,,,,,,,,,,,,,
,,,,,,,,2023-08-16_08h37.48.802,HF_wild_card,2022.2.4,Win32,60.08171113,62ebcfeb8e3a52c0591fd10c,64d2fd46c836a06233681665,64dc7cb1d51aec2c7bc5471b,,,,,,,decisionTrl,resources/DP.BMP,resources/DY.BMP,Door4,-0.325,0.035185185,1,0,0,0.599,optionLeft,60,9300,4,38,0,38,0,1,,,,,,,,,,,,,,,,,,,,,,,,,,,,,,,,,,,,,,,
,,,,,,,,2023-08-16_08h37.48.802,HF_wild_card,2022.2.4,Win32,60.08171113,62ebcfeb8e3a52c0591fd10c,64d2fd46c836a06233681665,64dc7cb1d51aec2c7bc5471b,,,,,,,sngl,resources/Empty.png,resources/DP.BMP,Door4,0.394444444,-0.039814815,1,0,0,0.4833,optionRight,80,9380,4,39,0,39,0,1,,,,,,,,,,,,,,,,,,,,,,,,,,,,,,,,,,,,,,,
,,,,,,,,2023-08-16_08h37.48.802,HF_wild_card,2022.2.4,Win32,60.08171113,62ebcfeb8e3a52c0591fd10c,64d2fd46c836a06233681665,64dc7cb1d51aec2c7bc5471b,,,,,,,decisionTrl,resources/DBN.BMP,resources/DP.BMP,Door3,-0.246296296,0.036111111,1,0,0,0.7815,optionLeft,70,9450,4,40,0,40,0,1,,,,,,,,,,,,,,,,,,,,,,,,,,,,,,,,,,,,,,,
,,,,,,,,2023-08-16_08h37.48.802,HF_wild_card,2022.2.4,Win32,60.08171113,62ebcfeb8e3a52c0591fd10c,64d2fd46c836a06233681665,64dc7cb1d51aec2c7bc5471b,,,,,,,decisionTrl,resources/DY.BMP,resources/DG.BMP,WildCard_Ex,-0.269444444,0.05,1,0,0,1.0648,optionLeft,45,9495,4,41,0,41,0,1,,,,,,,,,,,,,,,,,,,,,,,,,,,,,,,,,,,,,,,
,,,,,,,,2023-08-16_08h37.48.802,HF_wild_card,2022.2.4,Win32,60.08171113,62ebcfeb8e3a52c0591fd10c,64d2fd46c836a06233681665,64dc7cb1d51aec2c7bc5471b,,,,,,,decisionTrl,resources/DBN.BMP,resources/DP.BMP,Door3,-0.263888889,0.027777778,1,0,0,0.5139,optionLeft,70,9565,4,42,0,42,0,1,,,,,,,,,,,,,,,,,,,,,,,,,,,,,,,,,,,,,,,
,,,,,,,,2023-08-16_08h37.48.802,HF_wild_card,2022.2.4,Win32,60.08171113,62ebcfeb8e3a52c0591fd10c,64d2fd46c836a06233681665,64dc7cb1d51aec2c7bc5471b,,,,,,,decisionTrl,resources/DG.BMP,resources/DB.BMP,Door1,-0.284259259,0.007407407,1,0,0,0.7993,optionLeft,30,9595,4,43,0,43,0,1,,,,,,,,,,,,,,,,,,,,,,,,,,,,,,,,,,,,,,,
,,,,,,,,2023-08-16_08h37.48.802,HF_wild_card,2022.2.4,Win32,60.08171113,62ebcfeb8e3a52c0591fd10c,64d2fd46c836a06233681665,64dc7cb1d51aec2c7bc5471b,,,,,,,,,,,,,,,,,,,,,,,,,,3,0,3,0,1,,,,,,,,,,,,,,,,,,,,,,,,,,,,,,,,,,
,,,,,,,,2023-08-16_08h37.48.802,HF_wild_card,2022.2.4,Win32,60.08171113,62ebcfeb8e3a52c0591fd10c,64d2fd46c836a06233681665,64dc7cb1d51aec2c7bc5471b,,,,,,,decisionTrl,resources/DG.BMP,resources/DY.BMP,Door1,-0.491666667,0.149074074,1,0,0,1.454,optionLeft,30,9625,5,0,0,0,0,1,,,,,,,,,,,,,,,,,,,,,,,,,,,,,,,,,,,,,,,
,,,,,,,,2023-08-16_08h37.48.802,HF_wild_card,2022.2.4,Win32,60.08171113,62ebcfeb8e3a52c0591fd10c,64d2fd46c836a06233681665,64dc7cb1d51aec2c7bc5471b,,,,,,,decisionTrl,resources/DP.BMP,resources/DY.BMP,Door4,-0.357407407,0.090740741,1,0,0,0.5655,optionLeft,80,9705,5,1,0,1,0,1,,,,,,,,,,,,,,,,,,,,,,,,,,,,,,,,,,,,,,,
,,,,,,,,2023-08-16_08h37.48.802,HF_wild_card,2022.2.4,Win32,60.08171113,62ebcfeb8e3a52c0591fd10c,64d2fd46c836a06233681665,64dc7cb1d51aec2c7bc5471b,,,,,,,sngl,resources/DBN.BMP,resources/Empty.png,Door3,-0.282407407,0.080555556,1,0,0,0.4649,optionLeft,70,9775,5,2,0,2,0,1,,,,,,,,,,,,,,,,,,,,,,,,,,,,,,,,,,,,,,,
,,,,,,,,2023-08-16_08h37.48.802,HF_wild_card,2022.2.4,Win32,60.08171113,62ebcfeb8e3a52c0591fd10c,64d2fd46c836a06233681665,64dc7cb1d51aec2c7bc5471b,,,,,,,decisionTrl,resources/DBN.BMP,resources/DY.BMP,Door3,-0.39537037,0.082407407,1,0,0,0.4823,optionLeft,70,9845,5,3,0,3,0,1,,,,,,,,,,,,,,,,,,,,,,,,,,,,,,,,,,,,,,,
,,,,,,,,2023-08-16_08h37.48.802,HF_wild_card,2022.2.4,Win32,60.08171113,62ebcfeb8e3a52c0591fd10c,64d2fd46c836a06233681665,64dc7cb1d51aec2c7bc5471b,,,,,,,decisionTrl,resources/DP.BMP,resources/DBN.BMP,Door4,-0.37037037,0.05462963,1,0,0,0.432,optionLeft,80,9925,5,4,0,4,0,1,,,,,,,,,,,,,,,,,,,,,,,,,,,,,,,,,,,,,,,
,,,,,,,,2023-08-16_08h37.48.802,HF_wild_card,2022.2.4,Win32,60.08171113,62ebcfeb8e3a52c0591fd10c,64d2fd46c836a06233681665,64dc7cb1d51aec2c7bc5471b,,,,,,,sngl,resources/Empty.png,resources/DY.BMP,WildCard_Ex,0.273148148,0.069444444,1,0,0,0.5155,optionRight,55,9980,5,5,0,5,0,1,,,,,,,,,,,,,,,,,,,,,,,,,,,,,,,,,,,,,,,
,,,,,,,,2023-08-16_08h37.48.802,HF_wild_card,2022.2.4,Win32,60.08171113,62ebcfeb8e3a52c0591fd10c,64d2fd46c836a06233681665,64dc7cb1d51aec2c7bc5471b,,,,,,,sngl,resources/Empty.png,resources/DBN.BMP,Door3,0.414814815,0.122222222,1,0,0,0.4159,optionRight,70,10050,5,6,0,6,0,1,,,,,,,,,,,,,,,,,,,,,,,,,,,,,,,,,,,,,,,
,,,,,,,,2023-08-16_08h37.48.802,HF_wild_card,2022.2.4,Win32,60.08171113,62ebcfeb8e3a52c0591fd10c,64d2fd46c836a06233681665,64dc7cb1d51aec2c7bc5471b,,,,,,,sngl,resources/DP.BMP,resources/Empty.png,Door4,-0.443518519,0.030555556,1,0,0,0.3987,optionLeft,80,10130,5,7,0,7,0,1,,,,,,,,,,,,,,,,,,,,,,,,,,,,,,,,,,,,,,,
,,,,,,,,2023-08-16_08h37.48.802,HF_wild_card,2022.2.4,Win32,60.08171113,62ebcfeb8e3a52c0591fd10c,64d2fd46c836a06233681665,64dc7cb1d51aec2c7bc5471b,,,,,,,sngl,resources/Empty.png,resources/DB.BMP,Door2,0.255555556,0.04537037,1,0,0,0.4497,optionRight,20,10150,5,8,0,8,0,1,,,,,,,,,,,,,,,,,,,,,,,,,,,,,,,,,,,,,,,
,,,,,,,,2023-08-16_08h37.48.802,HF_wild_card,2022.2.4,Win32,60.08171113,62ebcfeb8e3a52c0591fd10c,64d2fd46c836a06233681665,64dc7cb1d51aec2c7bc5471b,,,,,,,decisionTrl,resources/DP.BMP,resources/DBN.BMP,Door3,0.326851852,0.065740741,1,0,0,0.5655,optionRight,70,10220,5,9,0,9,0,1,,,,,,,,,,,,,,,,,,,,,,,,,,,,,,,,,,,,,,,
,,,,,,,,2023-08-16_08h37.48.802,HF_wild_card,2022.2.4,Win32,60.08171113,62ebcfeb8e3a52c0591fd10c,64d2fd46c836a06233681665,64dc7cb1d51aec2c7bc5471b,,,,,,,decisionTrl,resources/DBN.BMP,resources/DP.BMP,Door3,-0.212037037,0.017592593,1,0,0,0.6159,optionLeft,70,10290,5,10,0,10,0,1,,,,,,,,,,,,,,,,,,,,,,,,,,,,,,,,,,,,,,,
,,,,,,,,2023-08-16_08h37.48.802,HF_wild_card,2022.2.4,Win32,60.08171113,62ebcfeb8e3a52c0591fd10c,64d2fd46c836a06233681665,64dc7cb1d51aec2c7bc5471b,,,,,,,sngl,resources/DY.BMP,resources/Empty.png,WildCard_Ex,-0.216666667,0.086111111,1,0,0,0.5988,optionLeft,55,10345,5,11,0,11,0,1,,,,,,,,,,,,,,,,,,,,,,,,,,,,,,,,,,,,,,,
,,,,,,,,2023-08-16_08h37.48.802,HF_wild_card,2022.2.4,Win32,60.08171113,62ebcfeb8e3a52c0591fd10c,64d2fd46c836a06233681665,64dc7cb1d51aec2c7bc5471b,,,,,,,sngl,resources/DG.BMP,resources/Empty.png,Door1,-0.212037037,0.075925926,1,0,0,0.466,optionLeft,30,10375,5,12,0,12,0,1,,,,,,,,,,,,,,,,,,,,,,,,,,,,,,,,,,,,,,,
,,,,,,,,2023-08-16_08h37.48.802,HF_wild_card,2022.2.4,Win32,60.08171113,62ebcfeb8e3a52c0591fd10c,64d2fd46c836a06233681665,64dc7cb1d51aec2c7bc5471b,,,,,,,ctch,resources/DP.BMP,resources/DG.BMP,Door4,-0.403703704,0.07037037,1,0,0,0.4997,optionLeft,60,10435,5,13,0,13,0,1,,,,,,,,,,,,,,,,,,,,,,,,,,,,,,,,,,,,,,,
,,,,,,,,2023-08-16_08h37.48.802,HF_wild_card,2022.2.4,Win32,60.08171113,62ebcfeb8e3a52c0591fd10c,64d2fd46c836a06233681665,64dc7cb1d51aec2c7bc5471b,,,,,,,decisionTrl,resources/DP.BMP,resources/DBN.BMP,Door3,0.343518519,0.057407407,1,0,0,0.7451,optionRight,70,10505,5,14,0,14,0,1,,,,,,,,,,,,,,,,,,,,,,,,,,,,,,,,,,,,,,,
,,,,,,,,2023-08-16_08h37.48.802,HF_wild_card,2022.2.4,Win32,60.08171113,62ebcfeb8e3a52c0591fd10c,64d2fd46c836a06233681665,64dc7cb1d51aec2c7bc5471b,,,,,,,decisionTrl,resources/DP.BMP,resources/DBN.BMP,Door4,-0.385185185,0.008333333,1,0,0,0.863,optionLeft,80,10585,5,15,0,15,0,1,,,,,,,,,,,,,,,,,,,,,,,,,,,,,,,,,,,,,,,
,,,,,,,,2023-08-16_08h37.48.802,HF_wild_card,2022.2.4,Win32,60.08171113,62ebcfeb8e3a52c0591fd10c,64d2fd46c836a06233681665,64dc7cb1d51aec2c7bc5471b,,,,,,,ctch,resources/DG.BMP,resources/DP.BMP,Door4,0.482407407,0.071296296,1,0,0,0.4537,optionRight,80,10665,5,16,0,16,0,1,,,,,,,,,,,,,,,,,,,,,,,,,,,,,,,,,,,,,,,
,,,,,,,,2023-08-16_08h37.48.802,HF_wild_card,2022.2.4,Win32,60.08171113,62ebcfeb8e3a52c0591fd10c,64d2fd46c836a06233681665,64dc7cb1d51aec2c7bc5471b,,,,,,,decisionTrl,resources/DY.BMP,resources/DG.BMP,WildCard_Ex,-0.176851852,0.043518519,1,0,0,0.4816,optionLeft,45,10710,5,17,0,17,0,1,,,,,,,,,,,,,,,,,,,,,,,,,,,,,,,,,,,,,,,
,,,,,,,,2023-08-16_08h37.48.802,HF_wild_card,2022.2.4,Win32,60.08171113,62ebcfeb8e3a52c0591fd10c,64d2fd46c836a06233681665,64dc7cb1d51aec2c7bc5471b,,,,,,,decisionTrl,resources/DB.BMP,resources/DY.BMP,WildCard_Ex,0.324074074,0.038888889,1,0,0,0.8374,optionRight,45,10755,5,18,0,18,0,1,,,,,,,,,,,,,,,,,,,,,,,,,,,,,,,,,,,,,,,
,,,,,,,,2023-08-16_08h37.48.802,HF_wild_card,2022.2.4,Win32,60.08171113,62ebcfeb8e3a52c0591fd10c,64d2fd46c836a06233681665,64dc7cb1d51aec2c7bc5471b,,,,,,,ctch,resources/DBN.BMP,resources/DB.BMP,Door3,-0.260185185,0.046296296,1,0,0,0.4308,optionLeft,70,10825,5,19,0,19,0,1,,,,,,,,,,,,,,,,,,,,,,,,,,,,,,,,,,,,,,,
,,,,,,,,2023-08-16_08h37.48.802,HF_wild_card,2022.2.4,Win32,60.08171113,62ebcfeb8e3a52c0591fd10c,64d2fd46c836a06233681665,64dc7cb1d51aec2c7bc5471b,,,,,,,decisionTrl,resources/DB.BMP,resources/DG.BMP,Door2,-0.196296296,0.041666667,1,0,0,0.5484,optionLeft,40,10865,5,20,0,20,0,1,,,,,,,,,,,,,,,,,,,,,,,,,,,,,,,,,,,,,,,
,,,,,,,,2023-08-16_08h37.48.802,HF_wild_card,2022.2.4,Win32,60.08171113,62ebcfeb8e3a52c0591fd10c,64d2fd46c836a06233681665,64dc7cb1d51aec2c7bc5471b,,,,,,,decisionTrl,resources/DY.BMP,resources/DP.BMP,Door4,0.261111111,0.057407407,1,0,0,0.5133,optionRight,80,10945,5,21,0,21,0,1,,,,,,,,,,,,,,,,,,,,,,,,,,,,,,,,,,,,,,,
,,,,,,,,2023-08-16_08h37.48.802,HF_wild_card,2022.2.4,Win32,60.08171113,62ebcfeb8e3a52c0591fd10c,64d2fd46c836a06233681665,64dc7cb1d51aec2c7bc5471b,,,,,,,ctch,resources/DP.BMP,resources/DG.BMP,Door4,-0.381481481,0.025925926,1,0,0,0.4482,optionLeft,80,11025,5,22,0,22,0,1,,,,,,,,,,,,,,,,,,,,,,,,,,,,,,,,,,,,,,,
,,,,,,,,2023-08-16_08h37.48.802,HF_wild_card,2022.2.4,Win32,60.08171113,62ebcfeb8e3a52c0591fd10c,64d2fd46c836a06233681665,64dc7cb1d51aec2c7bc5471b,,,,,,,decisionTrl,resources/DY.BMP,resources/DBN.BMP,Door3,0.234259259,0.081481481,1,0,0,0.4981,optionRight,70,11095,5,23,0,23,0,1,,,,,,,,,,,,,,,,,,,,,,,,,,,,,,,,,,,,,,,
,,,,,,,,2023-08-16_08h37.48.802,HF_wild_card,2022.2.4,Win32,60.08171113,62ebcfeb8e3a52c0591fd10c,64d2fd46c836a06233681665,64dc7cb1d51aec2c7bc5471b,,,,,,,decisionTrl,resources/DB.BMP,resources/DG.BMP,Door2,-0.232407407,0.075925926,1,0,0,0.5819,optionLeft,20,11115,5,24,0,24,0,1,,,,,,,,,,,,,,,,,,,,,,,,,,,,,,,,,,,,,,,
,,,,,,,,2023-08-16_08h37.48.802,HF_wild_card,2022.2.4,Win32,60.08171113,62ebcfeb8e3a52c0591fd10c,64d2fd46c836a06233681665,64dc7cb1d51aec2c7bc5471b,,,,,,,ctch,resources/DBN.BMP,resources/DB.BMP,Door3,-0.259259259,0.106481481,1,0,0,0.4812,optionLeft,70,11185,5,25,0,25,0,1,,,,,,,,,,,,,,,,,,,,,,,,,,,,,,,,,,,,,,,
,,,,,,,,2023-08-16_08h37.48.802,HF_wild_card,2022.2.4,Win32,60.08171113,62ebcfeb8e3a52c0591fd10c,64d2fd46c836a06233681665,64dc7cb1d51aec2c7bc5471b,,,,,,,decisionTrl,resources/DB.BMP,resources/DG.BMP,Door1,0.425925926,0.108333333,1,0,0,0.665,optionRight,30,11215,5,26,0,26,0,1,,,,,,,,,,,,,,,,,,,,,,,,,,,,,,,,,,,,,,,
,,,,,,,,2023-08-16_08h37.48.802,HF_wild_card,2022.2.4,Win32,60.08171113,62ebcfeb8e3a52c0591fd10c,64d2fd46c836a06233681665,64dc7cb1d51aec2c7bc5471b,,,,,,,decisionTrl,resources/DY.BMP,resources/DB.BMP,WildCard_Ex,-0.312037037,0.04537037,1,0,0,0.5478,optionLeft,45,11260,5,27,0,27,0,1,,,,,,,,,,,,,,,,,,,,,,,,,,,,,,,,,,,,,,,
,,,,,,,,2023-08-16_08h37.48.802,HF_wild_card,2022.2.4,Win32,60.08171113,62ebcfeb8e3a52c0591fd10c,64d2fd46c836a06233681665,64dc7cb1d51aec2c7bc5471b,,,,,,,decisionTrl,resources/DBN.BMP,resources/DP.BMP,Door3,-0.296296296,0.116666667,1,0,0,0.4987,optionLeft,70,11330,5,28,0,28,0,1,,,,,,,,,,,,,,,,,,,,,,,,,,,,,,,,,,,,,,,
,,,,,,,,2023-08-16_08h37.48.802,HF_wild_card,2022.2.4,Win32,60.08171113,62ebcfeb8e3a52c0591fd10c,64d2fd46c836a06233681665,64dc7cb1d51aec2c7bc5471b,,,,,,,sngl,resources/DB.BMP,resources/Empty.png,Door2,-0.266666667,0.090740741,1,0,0,0.399,optionLeft,40,11370,5,29,0,29,0,1,,,,,,,,,,,,,,,,,,,,,,,,,,,,,,,,,,,,,,,
,,,,,,,,2023-08-16_08h37.48.802,HF_wild_card,2022.2.4,Win32,60.08171113,62ebcfeb8e3a52c0591fd10c,64d2fd46c836a06233681665,64dc7cb1d51aec2c7bc5471b,,,,,,,decisionTrl,resources/DG.BMP,resources/DB.BMP,Door1,-0.19537037,0.075,1,0,0,0.6983,optionLeft,30,11400,5,30,0,30,0,1,,,,,,,,,,,,,,,,,,,,,,,,,,,,,,,,,,,,,,,
,,,,,,,,2023-08-16_08h37.48.802,HF_wild_card,2022.2.4,Win32,60.08171113,62ebcfeb8e3a52c0591fd10c,64d2fd46c836a06233681665,64dc7cb1d51aec2c7bc5471b,,,,,,,sngl,resources/Empty.png,resources/DP.BMP,Door4,0.343518519,0.067592593,1,0,0,0.465,optionRight,60,11460,5,31,0,31,0,1,,,,,,,,,,,,,,,,,,,,,,,,,,,,,,,,,,,,,,,
,,,,,,,,2023-08-16_08h37.48.802,HF_wild_card,2022.2.4,Win32,60.08171113,62ebcfeb8e3a52c0591fd10c,64d2fd46c836a06233681665,64dc7cb1d51aec2c7bc5471b,,,,,,,ctch,resources/DB.BMP,resources/DBN.BMP,Door3,0.300925926,0.122222222,1,0,0,0.649,optionRight,70,11530,5,32,0,32,0,1,,,,,,,,,,,,,,,,,,,,,,,,,,,,,,,,,,,,,,,
,,,,,,,,2023-08-16_08h37.48.802,HF_wild_card,2022.2.4,Win32,60.08171113,62ebcfeb8e3a52c0591fd10c,64d2fd46c836a06233681665,64dc7cb1d51aec2c7bc5471b,,,,,,,sngl,resources/Empty.png,resources/DG.BMP,Door1,0.339814815,0.121296296,1,0,0,0.5116,optionRight,30,11560,5,33,0,33,0,1,,,,,,,,,,,,,,,,,,,,,,,,,,,,,,,,,,,,,,,
,,,,,,,,2023-08-16_08h37.48.802,HF_wild_card,2022.2.4,Win32,60.08171113,62ebcfeb8e3a52c0591fd10c,64d2fd46c836a06233681665,64dc7cb1d51aec2c7bc5471b,,,,,,,decisionTrl,resources/DB.BMP,resources/DG.BMP,Door1,0.331481481,0.107407407,1,0,0,0.6762,optionRight,30,11590,5,34,0,34,0,1,,,,,,,,,,,,,,,,,,,,,,,,,,,,,,,,,,,,,,,
,,,,,,,,2023-08-16_08h37.48.802,HF_wild_card,2022.2.4,Win32,60.08171113,62ebcfeb8e3a52c0591fd10c,64d2fd46c836a06233681665,64dc7cb1d51aec2c7bc5471b,,,,,,,sngl,resources/DY.BMP,resources/Empty.png,WildCard_Ex,-0.408333333,0.064814815,1,0,0,0.4546,optionLeft,45,11635,5,35,0,35,0,1,,,,,,,,,,,,,,,,,,,,,,,,,,,,,,,,,,,,,,,
,,,,,,,,2023-08-16_08h37.48.802,HF_wild_card,2022.2.4,Win32,60.08171113,62ebcfeb8e3a52c0591fd10c,64d2fd46c836a06233681665,64dc7cb1d51aec2c7bc5471b,,,,,,,decisionTrl,resources/DBN.BMP,resources/DP.BMP,Door4,0.263888889,0.07962963,1,0,0,0.9822,optionRight,80,11715,5,36,0,36,0,1,,,,,,,,,,,,,,,,,,,,,,,,,,,,,,,,,,,,,,,
,,,,,,,,2023-08-16_08h37.48.802,HF_wild_card,2022.2.4,Win32,60.08171113,62ebcfeb8e3a52c0591fd10c,64d2fd46c836a06233681665,64dc7cb1d51aec2c7bc5471b,,,,,,,decisionTrl,resources/DG.BMP,resources/DB.BMP,Door2,0.341666667,0.005555556,1,0,0,0.5422,optionRight,20,11735,5,37,0,37,0,1,,,,,,,,,,,,,,,,,,,,,,,,,,,,,,,,,,,,,,,
,,,,,,,,2023-08-16_08h37.48.802,HF_wild_card,2022.2.4,Win32,60.08171113,62ebcfeb8e3a52c0591fd10c,64d2fd46c836a06233681665,64dc7cb1d51aec2c7bc5471b,,,,,,,ctch,resources/DG.BMP,resources/DP.BMP,Door4,0.446296296,0.102777778,1,0,0,0.4486,optionRight,60,11795,5,38,0,38,0,1,,,,,,,,,,,,,,,,,,,,,,,,,,,,,,,,,,,,,,,
,,,,,,,,2023-08-16_08h37.48.802,HF_wild_card,2022.2.4,Win32,60.08171113,62ebcfeb8e3a52c0591fd10c,64d2fd46c836a06233681665,64dc7cb1d51aec2c7bc5471b,,,,,,,ctch,resources/DB.BMP,resources/DBN.BMP,Door3,0.397222222,0.113888889,1,0,0,0.6995,optionRight,70,11865,5,39,0,39,0,1,,,,,,,,,,,,,,,,,,,,,,,,,,,,,,,,,,,,,,,
,,,,,,,,2023-08-16_08h37.48.802,HF_wild_card,2022.2.4,Win32,60.08171113,62ebcfeb8e3a52c0591fd10c,64d2fd46c836a06233681665,64dc7cb1d51aec2c7bc5471b,,,,,,,decisionTrl,resources/DBN.BMP,resources/DP.BMP,Door3,-0.219444444,0.098148148,1,0,0,0.4487,optionLeft,70,11935,5,40,0,40,0,1,,,,,,,,,,,,,,,,,,,,,,,,,,,,,,,,,,,,,,,
,,,,,,,,2023-08-16_08h37.48.802,HF_wild_card,2022.2.4,Win32,60.08171113,62ebcfeb8e3a52c0591fd10c,64d2fd46c836a06233681665,64dc7cb1d51aec2c7bc5471b,,,,,,,decisionTrl,resources/DG.BMP,resources/DB.BMP,Door2,0.292592593,0.076851852,1,0,0,1.1324,optionRight,40,11975,5,41,0,41,0,1,,,,,,,,,,,,,,,,,,,,,,,,,,,,,,,,,,,,,,,
,,,,,,,,2023-08-16_08h37.48.802,HF_wild_card,2022.2.4,Win32,60.08171113,62ebcfeb8e3a52c0591fd10c,64d2fd46c836a06233681665,64dc7cb1d51aec2c7bc5471b,,,,,,,decisionTrl,resources/DG.BMP,resources/DB.BMP,Door2,0.335185185,0.113888889,1,0,0,0.616,optionRight,20,11995,5,42,0,42,0,1,,,,,,,,,,,,,,,,,,,,,,,,,,,,,,,,,,,,,,,
,,,,,,,,2023-08-16_08h37.48.802,HF_wild_card,2022.2.4,Win32,60.08171113,62ebcfeb8e3a52c0591fd10c,64d2fd46c836a06233681665,64dc7cb1d51aec2c7bc5471b,,,,,,,sngl,resources/Empty.png,resources/DY.BMP,WildCard_Ex,0.288888889,0.162037037,1,0,0,0.4663,optionRight,45,12040,5,43,0,43,0,1,,,,,,,,,,,,,,,,,,,,,,,,,,,,,,,,,,,,,,,
,,,,,,,,2023-08-16_08h37.48.802,HF_wild_card,2022.2.4,Win32,60.08171113,62ebcfeb8e3a52c0591fd10c,64d2fd46c836a06233681665,64dc7cb1d51aec2c7bc5471b,,,,,,,,,,,,,,,,,,,,,,,,,,4,0,4,0,1,,,,,,,,,,,,,,,,,,,,,,,,,,,,,,,,,,
,,,,,,,,2023-08-16_08h37.48.802,HF_wild_card,2022.2.4,Win32,60.08171113,62ebcfeb8e3a52c0591fd10c,64d2fd46c836a06233681665,64dc7cb1d51aec2c7bc5471b,,,,,,,sngl,resources/DY.BMP,resources/Empty.png,WildCard_Ex,-0.378703704,-0.05,1,0,0,0.6945,optionLeft,55,12095,6,0,0,0,0,1,,,,,,,,,,,,,,,,,,,,,,,,,,,,,,,,,,,,,,,
,,,,,,,,2023-08-16_08h37.48.802,HF_wild_card,2022.2.4,Win32,60.08171113,62ebcfeb8e3a52c0591fd10c,64d2fd46c836a06233681665,64dc7cb1d51aec2c7bc5471b,,,,,,,sngl,resources/DBN.BMP,resources/Empty.png,Door3,-0.37962963,0.155555556,1,0,0,0.9813,optionLeft,70,12165,6,1,0,1,0,1,,,,,,,,,,,,,,,,,,,,,,,,,,,,,,,,,,,,,,,
,,,,,,,,2023-08-16_08h37.48.802,HF_wild_card,2022.2.4,Win32,60.08171113,62ebcfeb8e3a52c0591fd10c,64d2fd46c836a06233681665,64dc7cb1d51aec2c7bc5471b,,,,,,,decisionTrl,resources/DG.BMP,resources/DB.BMP,Door2,0.25462963,0.072222222,1,0,0,1.0647,optionRight,40,12205,6,2,0,2,0,1,,,,,,,,,,,,,,,,,,,,,,,,,,,,,,,,,,,,,,,
,,,,,,,,2023-08-16_08h37.48.802,HF_wild_card,2022.2.4,Win32,60.08171113,62ebcfeb8e3a52c0591fd10c,64d2fd46c836a06233681665,64dc7cb1d51aec2c7bc5471b,,,,,,,decisionTrl,resources/DBN.BMP,resources/DP.BMP,Door4,0.309259259,0.062962963,1,0,0,0.8484,optionRight,60,12265,6,3,0,3,0,1,,,,,,,,,,,,,,,,,,,,,,,,,,,,,,,,,,,,,,,
,,,,,,,,2023-08-16_08h37.48.802,HF_wild_card,2022.2.4,Win32,60.08171113,62ebcfeb8e3a52c0591fd10c,64d2fd46c836a06233681665,64dc7cb1d51aec2c7bc5471b,,,,,,,ctch,resources/DG.BMP,resources/DP.BMP,Door4,0.349074074,0.051851852,1,0,0,0.4993,optionRight,60,12325,6,4,0,4,0,1,,,,,,,,,,,,,,,,,,,,,,,,,,,,,,,,,,,,,,,
,,,,,,,,2023-08-16_08h37.48.802,HF_wild_card,2022.2.4,Win32,60.08171113,62ebcfeb8e3a52c0591fd10c,64d2fd46c836a06233681665,64dc7cb1d51aec2c7bc5471b,,,,,,,decisionTrl,resources/DG.BMP,resources/DB.BMP,Door2,0.25462963,0.114814815,1,0,0,1.0165,optionRight,20,12345,6,5,0,5,0,1,,,,,,,,,,,,,,,,,,,,,,,,,,,,,,,,,,,,,,,
,,,,,,,,2023-08-16_08h37.48.802,HF_wild_card,2022.2.4,Win32,60.08171113,62ebcfeb8e3a52c0591fd10c,64d2fd46c836a06233681665,64dc7cb1d51aec2c7bc5471b,,,,,,,ctch,resources/DP.BMP,resources/DG.BMP,Door4,-0.281481481,0.099074074,1,0,0,0.5669,optionLeft,60,12405,6,6,0,6,0,1,,,,,,,,,,,,,,,,,,,,,,,,,,,,,,,,,,,,,,,
,,,,,,,,2023-08-16_08h37.48.802,HF_wild_card,2022.2.4,Win32,60.08171113,62ebcfeb8e3a52c0591fd10c,64d2fd46c836a06233681665,64dc7cb1d51aec2c7bc5471b,,,,,,,decisionTrl,resources/DB.BMP,resources/DG.BMP,Door1,0.297222222,0.126851852,1,0,0,0.8154,optionRight,30,12435,6,7,0,7,0,1,,,,,,,,,,,,,,,,,,,,,,,,,,,,,,,,,,,,,,,
,,,,,,,,2023-08-16_08h37.48.802,HF_wild_card,2022.2.4,Win32,60.08171113,62ebcfeb8e3a52c0591fd10c,64d2fd46c836a06233681665,64dc7cb1d51aec2c7bc5471b,,,,,,,decisionTrl,resources/DY.BMP,resources/DG.BMP,WildCard_Ex,-0.126851852,0.14537037,1,0,0,0.9004,optionLeft,45,12480,6,8,0,8,0,1,,,,,,,,,,,,,,,,,,,,,,,,,,,,,,,,,,,,,,,
,,,,,,,,2023-08-16_08h37.48.802,HF_wild_card,2022.2.4,Win32,60.08171113,62ebcfeb8e3a52c0591fd10c,64d2fd46c836a06233681665,64dc7cb1d51aec2c7bc5471b,,,,,,,sngl,resources/DP.BMP,resources/Empty.png,Door4,-0.262037037,0.107407407,1,0,0,0.5334,optionLeft,60,12540,6,9,0,9,0,1,,,,,,,,,,,,,,,,,,,,,,,,,,,,,,,,,,,,,,,
,,,,,,,,2023-08-16_08h37.48.802,HF_wild_card,2022.2.4,Win32,60.08171113,62ebcfeb8e3a52c0591fd10c,64d2fd46c836a06233681665,64dc7cb1d51aec2c7bc5471b,,,,,,,ctch,resources/DB.BMP,resources/DBN.BMP,Door3,0.236111111,0.102777778,1,0,0,0.5658,optionRight,70,12610,6,10,0,10,0,1,,,,,,,,,,,,,,,,,,,,,,,,,,,,,,,,,,,,,,,
,,,,,,,,2023-08-16_08h37.48.802,HF_wild_card,2022.2.4,Win32,60.08171113,62ebcfeb8e3a52c0591fd10c,64d2fd46c836a06233681665,64dc7cb1d51aec2c7bc5471b,,,,,,,decisionTrl,resources/DP.BMP,resources/DY.BMP,Door4,-0.252777778,0.141666667,1,0,0,0.5158,optionLeft,60,12670,6,11,0,11,0,1,,,,,,,,,,,,,,,,,,,,,,,,,,,,,,,,,,,,,,,
,,,,,,,,2023-08-16_08h37.48.802,HF_wild_card,2022.2.4,Win32,60.08171113,62ebcfeb8e3a52c0591fd10c,64d2fd46c836a06233681665,64dc7cb1d51aec2c7bc5471b,,,,,,,sngl,resources/Empty.png,resources/DBN.BMP,Door3,0.378703704,0.193518519,1,0,0,0.5156,optionRight,70,12740,6,12,0,12,0,1,,,,,,,,,,,,,,,,,,,,,,,,,,,,,,,,,,,,,,,
,,,,,,,,2023-08-16_08h37.48.802,HF_wild_card,2022.2.4,Win32,60.08171113,62ebcfeb8e3a52c0591fd10c,64d2fd46c836a06233681665,64dc7cb1d51aec2c7bc5471b,,,,,,,decisionTrl,resources/DB.BMP,resources/DY.BMP,Door2,-0.17037037,0.102777778,1,0,0,0.943,optionLeft,40,12780,6,13,0,13,0,1,,,,,,,,,,,,,,,,,,,,,,,,,,,,,,,,,,,,,,,
,,,,,,,,2023-08-16_08h37.48.802,HF_wild_card,2022.2.4,Win32,60.08171113,62ebcfeb8e3a52c0591fd10c,64d2fd46c836a06233681665,64dc7cb1d51aec2c7bc5471b,,,,,,,decisionTrl,resources/DG.BMP,resources/DB.BMP,Door1,-0.27037037,0.073148148,1,0,0,14.6759,optionLeft,30,12810,6,14,0,14,0,1,,,,,,,,,,,,,,,,,,,,,,,,,,,,,,,,,,,,,,,
,,,,,,,,2023-08-16_08h37.48.802,HF_wild_card,2022.2.4,Win32,60.08171113,62ebcfeb8e3a52c0591fd10c,64d2fd46c836a06233681665,64dc7cb1d51aec2c7bc5471b,,,,,,,decisionTrl,resources/DP.BMP,resources/DBN.BMP,Door4,-0.368518519,0.094444444,1,0,0,0.7169,optionLeft,80,12890,6,15,0,15,0,1,,,,,,,,,,,,,,,,,,,,,,,,,,,,,,,,,,,,,,,
,,,,,,,,2023-08-16_08h37.48.802,HF_wild_card,2022.2.4,Win32,60.08171113,62ebcfeb8e3a52c0591fd10c,64d2fd46c836a06233681665,64dc7cb1d51aec2c7bc5471b,,,,,,,sngl,resources/Empty.png,resources/DY.BMP,WildCard_Ex,0.206481481,0.04537037,1,0,0,0.6481,optionRight,45,12935,6,16,0,16,0,1,,,,,,,,,,,,,,,,,,,,,,,,,,,,,,,,,,,,,,,
,,,,,,,,2023-08-16_08h37.48.802,HF_wild_card,2022.2.4,Win32,60.08171113,62ebcfeb8e3a52c0591fd10c,64d2fd46c836a06233681665,64dc7cb1d51aec2c7bc5471b,,,,,,,ctch,resources/DG.BMP,resources/DP.BMP,Door4,0.231481481,0.051851852,1,0,0,0.5996,optionRight,60,12995,6,17,0,17,0,1,,,,,,,,,,,,,,,,,,,,,,,,,,,,,,,,,,,,,,,
,,,,,,,,2023-08-16_08h37.48.802,HF_wild_card,2022.2.4,Win32,60.08171113,62ebcfeb8e3a52c0591fd10c,64d2fd46c836a06233681665,64dc7cb1d51aec2c7bc5471b,,,,,,,decisionTrl,resources/DB.BMP,resources/DG.BMP,Door1,0.416666667,0.082407407,1,0,0,0.866,optionRight,30,13025,6,18,0,18,0,1,,,,,,,,,,,,,,,,,,,,,,,,,,,,,,,,,,,,,,,
,,,,,,,,2023-08-16_08h37.48.802,HF_wild_card,2022.2.4,Win32,60.08171113,62ebcfeb8e3a52c0591fd10c,64d2fd46c836a06233681665,64dc7cb1d51aec2c7bc5471b,,,,,,,ctch,resources/DBN.BMP,resources/DB.BMP,Door3,-0.247222222,0.106481481,1,0,0,0.7481,optionLeft,70,13095,6,19,0,19,0,1,,,,,,,,,,,,,,,,,,,,,,,,,,,,,,,,,,,,,,,
,,,,,,,,2023-08-16_08h37.48.802,HF_wild_card,2022.2.4,Win32,60.08171113,62ebcfeb8e3a52c0591fd10c,64d2fd46c836a06233681665,64dc7cb1d51aec2c7bc5471b,,,,,,,ctch,resources/DP.BMP,resources/DG.BMP,Door4,-0.288888889,0.09537037,1,0,0,0.4979,optionLeft,60,13155,6,20,0,20,0,1,,,,,,,,,,,,,,,,,,,,,,,,,,,,,,,,,,,,,,,
,,,,,,,,2023-08-16_08h37.48.802,HF_wild_card,2022.2.4,Win32,60.08171113,62ebcfeb8e3a52c0591fd10c,64d2fd46c836a06233681665,64dc7cb1d51aec2c7bc5471b,,,,,,,decisionTrl,resources/DBN.BMP,resources/DP.BMP,Door3,-0.325,0.133333333,1,0,0,0.7982,optionLeft,70,13225,6,21,0,21,0,1,,,,,,,,,,,,,,,,,,,,,,,,,,,,,,,,,,,,,,,
,,,,,,,,2023-08-16_08h37.48.802,HF_wild_card,2022.2.4,Win32,60.08171113,62ebcfeb8e3a52c0591fd10c,64d2fd46c836a06233681665,64dc7cb1d51aec2c7bc5471b,,,,,,,sngl,resources/Empty.png,resources/DG.BMP,Door1,0.300925926,0.092592593,1,0,0,0.5649,optionRight,30,13255,6,22,0,22,0,1,,,,,,,,,,,,,,,,,,,,,,,,,,,,,,,,,,,,,,,
,,,,,,,,2023-08-16_08h37.48.802,HF_wild_card,2022.2.4,Win32,60.08171113,62ebcfeb8e3a52c0591fd10c,64d2fd46c836a06233681665,64dc7cb1d51aec2c7bc5471b,,,,,,,ctch,resources/DBN.BMP,resources/DB.BMP,Door3,-0.219444444,0.106481481,1,0,0,0.4489,optionLeft,70,13325,6,23,0,23,0,1,,,,,,,,,,,,,,,,,,,,,,,,,,,,,,,,,,,,,,,
,,,,,,,,2023-08-16_08h37.48.802,HF_wild_card,2022.2.4,Win32,60.08171113,62ebcfeb8e3a52c0591fd10c,64d2fd46c836a06233681665,64dc7cb1d51aec2c7bc5471b,,,,,,,decisionTrl,resources/DY.BMP,resources/DP.BMP,Door4,0.562962963,0.07962963,1,0,0,0.5483,optionRight,60,13385,6,24,0,24,0,1,,,,,,,,,,,,,,,,,,,,,,,,,,,,,,,,,,,,,,,
,,,,,,,,2023-08-16_08h37.48.802,HF_wild_card,2022.2.4,Win32,60.08171113,62ebcfeb8e3a52c0591fd10c,64d2fd46c836a06233681665,64dc7cb1d51aec2c7bc5471b,,,,,,,sngl,resources/Empty.png,resources/DB.BMP,Door2,0.297222222,0.082407407,1,0,0,0.6486,optionRight,40,13425,6,25,0,25,0,1,,,,,,,,,,,,,,,,,,,,,,,,,,,,,,,,,,,,,,,
,,,,,,,,2023-08-16_08h37.48.802,HF_wild_card,2022.2.4,Win32,60.08171113,62ebcfeb8e3a52c0591fd10c,64d2fd46c836a06233681665,64dc7cb1d51aec2c7bc5471b,,,,,,,decisionTrl,resources/DP.BMP,resources/DBN.BMP,Door3,0.366666667,0.078703704,1,0,0,0.8983,optionRight,70,13495,6,26,0,26,0,1,,,,,,,,,,,,,,,,,,,,,,,,,,,,,,,,,,,,,,,
,,,,,,,,2023-08-16_08h37.48.802,HF_wild_card,2022.2.4,Win32,60.08171113,62ebcfeb8e3a52c0591fd10c,64d2fd46c836a06233681665,64dc7cb1d51aec2c7bc5471b,,,,,,,decisionTrl,resources/DY.BMP,resources/DB.BMP,WildCard_Ex,-0.149074074,0.117592593,1,0,0,1.2558,optionLeft,45,13540,6,27,0,27,0,1,,,,,,,,,,,,,,,,,,,,,,,,,,,,,,,,,,,,,,,
,,,,,,,,2023-08-16_08h37.48.802,HF_wild_card,2022.2.4,Win32,60.08171113,62ebcfeb8e3a52c0591fd10c,64d2fd46c836a06233681665,64dc7cb1d51aec2c7bc5471b,,,,,,,decisionTrl,resources/DP.BMP,resources/DBN.BMP,Door4,-0.253703704,0.131481481,1,0,0,1.3317,optionLeft,60,13600,6,28,0,28,0,1,,,,,,,,,,,,,,,,,,,,,,,,,,,,,,,,,,,,,,,
,,,,,,,,2023-08-16_08h37.48.802,HF_wild_card,2022.2.4,Win32,60.08171113,62ebcfeb8e3a52c0591fd10c,64d2fd46c836a06233681665,64dc7cb1d51aec2c7bc5471b,,,,,,,decisionTrl,resources/DP.BMP,resources/DBN.BMP,Door3,0.262037037,0.121296296,1,0,0,0.4484,optionRight,70,13670,6,29,0,29,0,1,,,,,,,,,,,,,,,,,,,,,,,,,,,,,,,,,,,,,,,
,,,,,,,,2023-08-16_08h37.48.802,HF_wild_card,2022.2.4,Win32,60.08171113,62ebcfeb8e3a52c0591fd10c,64d2fd46c836a06233681665,64dc7cb1d51aec2c7bc5471b,,,,,,,sngl,resources/Empty.png,resources/DP.BMP,Door4,0.442592593,0.147222222,1,0,0,0.4659,optionRight,80,13750,6,30,0,30,0,1,,,,,,,,,,,,,,,,,,,,,,,,,,,,,,,,,,,,,,,
,,,,,,,,2023-08-16_08h37.48.802,HF_wild_card,2022.2.4,Win32,60.08171113,62ebcfeb8e3a52c0591fd10c,64d2fd46c836a06233681665,64dc7cb1d51aec2c7bc5471b,,,,,,,decisionTrl,resources/DB.BMP,resources/DG.BMP,Door2,-0.193518519,0.124074074,1,0,0,0.4977,optionLeft,20,13770,6,31,0,31,0,1,,,,,,,,,,,,,,,,,,,,,,,,,,,,,,,,,,,,,,,
,,,,,,,,2023-08-16_08h37.48.802,HF_wild_card,2022.2.4,Win32,60.08171113,62ebcfeb8e3a52c0591fd10c,64d2fd46c836a06233681665,64dc7cb1d51aec2c7bc5471b,,,,,,,sngl,resources/DY.BMP,resources/Empty.png,WildCard_Ex,-0.246296296,0.17037037,1,0,0,0.4825,optionLeft,45,13815,6,32,0,32,0,1,,,,,,,,,,,,,,,,,,,,,,,,,,,,,,,,,,,,,,,
,,,,,,,,2023-08-16_08h37.48.802,HF_wild_card,2022.2.4,Win32,60.08171113,62ebcfeb8e3a52c0591fd10c,64d2fd46c836a06233681665,64dc7cb1d51aec2c7bc5471b,,,,,,,decisionTrl,resources/DG.BMP,resources/DB.BMP,Door1,-0.282407407,0.14537037,1,0,0,0.5986,optionLeft,30,13845,6,33,0,33,0,1,,,,,,,,,,,,,,,,,,,,,,,,,,,,,,,,,,,,,,,
,,,,,,,,2023-08-16_08h37.48.802,HF_wild_card,2022.2.4,Win32,60.08171113,62ebcfeb8e3a52c0591fd10c,64d2fd46c836a06233681665,64dc7cb1d51aec2c7bc5471b,,,,,,,sngl,resources/Empty.png,resources/DY.BMP,WildCard_Ex,0.337037037,0.140740741,1,0,0,0.4475,optionRight,55,13900,6,34,0,34,0,1,,,,,,,,,,,,,,,,,,,,,,,,,,,,,,,,,,,,,,,
,,,,,,,,2023-08-16_08h37.48.802,HF_wild_card,2022.2.4,Win32,60.08171113,62ebcfeb8e3a52c0591fd10c,64d2fd46c836a06233681665,64dc7cb1d51aec2c7bc5471b,,,,,,,decisionTrl,resources/DBN.BMP,resources/DP.BMP,Door4,0.260185185,0.15,1,0,0,1.2632,optionRight,80,13980,6,35,0,35,0,1,,,,,,,,,,,,,,,,,,,,,,,,,,,,,,,,,,,,,,,
,,,,,,,,2023-08-16_08h37.48.802,HF_wild_card,2022.2.4,Win32,60.08171113,62ebcfeb8e3a52c0591fd10c,64d2fd46c836a06233681665,64dc7cb1d51aec2c7bc5471b,,,,,,,sngl,resources/DB.BMP,resources/Empty.png,Door2,-0.387962963,0.126851852,1,0,0,0.4817,optionLeft,20,14000,6,36,0,36,0,1,,,,,,,,,,,,,,,,,,,,,,,,,,,,,,,,,,,,,,,
,,,,,,,,2023-08-16_08h37.48.802,HF_wild_card,2022.2.4,Win32,60.08171113,62ebcfeb8e3a52c0591fd10c,64d2fd46c836a06233681665,64dc7cb1d51aec2c7bc5471b,,,,,,,decisionTrl,resources/DG.BMP,resources/DY.BMP,WildCard_Ex,0.296296296,0.148148148,1,0,0,0.6148,optionRight,45,14045,6,37,0,37,0,1,,,,,,,,,,,,,,,,,,,,,,,,,,,,,,,,,,,,,,,
,,,,,,,,2023-08-16_08h37.48.802,HF_wild_card,2022.2.4,Win32,60.08171113,62ebcfeb8e3a52c0591fd10c,64d2fd46c836a06233681665,64dc7cb1d51aec2c7bc5471b,,,,,,,decisionTrl,resources/DY.BMP,resources/DBN.BMP,Door3,0.30462963,0.217592593,1,0,0,0.5146,optionRight,70,14115,6,38,0,38,0,1,,,,,,,,,,,,,,,,,,,,,,,,,,,,,,,,,,,,,,,
,,,,,,,,2023-08-16_08h37.48.802,HF_wild_card,2022.2.4,Win32,60.08171113,62ebcfeb8e3a52c0591fd10c,64d2fd46c836a06233681665,64dc7cb1d51aec2c7bc5471b,,,,,,,sngl,resources/DG.BMP,resources/Empty.png,Door1,-0.212037037,0.121296296,1,0,0,0.4646,optionLeft,30,14145,6,39,0,39,0,1,,,,,,,,,,,,,,,,,,,,,,,,,,,,,,,,,,,,,,,
,,,,,,,,2023-08-16_08h37.48.802,HF_wild_card,2022.2.4,Win32,60.08171113,62ebcfeb8e3a52c0591fd10c,64d2fd46c836a06233681665,64dc7cb1d51aec2c7bc5471b,,,,,,,decisionTrl,resources/DB.BMP,resources/DG.BMP,Door1,0.282407407,0.17037037,1,0,0,0.6654,optionRight,30,14175,6,40,0,40,0,1,,,,,,,,,,,,,,,,,,,,,,,,,,,,,,,,,,,,,,,
,,,,,,,,2023-08-16_08h37.48.802,HF_wild_card,2022.2.4,Win32,60.08171113,62ebcfeb8e3a52c0591fd10c,64d2fd46c836a06233681665,64dc7cb1d51aec2c7bc5471b,,,,,,,ctch,resources/DB.BMP,resources/DBN.BMP,Door3,0.250925926,0.135185185,1,0,0,0.4832,optionRight,70,14245,6,41,0,41,0,1,,,,,,,,,,,,,,,,,,,,,,,,,,,,,,,,,,,,,,,
,,,,,,,,2023-08-16_08h37.48.802,HF_wild_card,2022.2.4,Win32,60.08171113,62ebcfeb8e3a52c0591fd10c,64d2fd46c836a06233681665,64dc7cb1d51aec2c7bc5471b,,,,,,,decisionTrl,resources/DBN.BMP,resources/DP.BMP,Door3,-0.431481481,0.127777778,1,0,0,0.467,optionLeft,70,14315,6,42,0,42,0,1,,,,,,,,,,,,,,,,,,,,,,,,,,,,,,,,,,,,,,,
,,,,,,,,2023-08-16_08h37.48.802,HF_wild_card,2022.2.4,Win32,60.08171113,62ebcfeb8e3a52c0591fd10c,64d2fd46c836a06233681665,64dc7cb1d51aec2c7bc5471b,,,,,,,decisionTrl,resources/DBN.BMP,resources/DY.BMP,Door3,-0.298148148,0.118518519,1,0,0,0.4824,optionLeft,70,14385,6,43,0,43,0,1,,,,,,,,,,,,,,,,,,,,,,,,,,,,,,,,,,,,,,,
,,,,,,,,2023-08-16_08h37.48.802,HF_wild_card,2022.2.4,Win32,60.08171113,62ebcfeb8e3a52c0591fd10c,64d2fd46c836a06233681665,64dc7cb1d51aec2c7bc5471b,,,,,,,,,,,,,,,,,,,,,,,,,,5,0,5,0,1,,,,,,,,,,,,,,,,,,,,,,,,,,,,,,,,,,
,,,,,,,,2023-08-16_08h37.48.802,HF_wild_card,2022.2.4,Win32,60.08171113,62ebcfeb8e3a52c0591fd10c,64d2fd46c836a06233681665,64dc7cb1d51aec2c7bc5471b,,,,,,,decisionTrl,resources/DG.BMP,resources/DB.BMP,Door2,0.312962963,0.012962963,1,0,0,1.2729,optionRight,20,14405,7,0,0,0,0,1,,,,,,,,,,,,,,,,,,,,,,,,,,,,,,,,,,,,,,,
,,,,,,,,2023-08-16_08h37.48.802,HF_wild_card,2022.2.4,Win32,60.08171113,62ebcfeb8e3a52c0591fd10c,64d2fd46c836a06233681665,64dc7cb1d51aec2c7bc5471b,,,,,,,decisionTrl,resources/DB.BMP,resources/DG.BMP,Door1,0.24537037,0.12962963,1,0,0,0.9829,optionRight,30,14435,7,1,0,1,0,1,,,,,,,,,,,,,,,,,,,,,,,,,,,,,,,,,,,,,,,
,,,,,,,,2023-08-16_08h37.48.802,HF_wild_card,2022.2.4,Win32,60.08171113,62ebcfeb8e3a52c0591fd10c,64d2fd46c836a06233681665,64dc7cb1d51aec2c7bc5471b,,,,,,,ctch,resources/DBN.BMP,resources/DB.BMP,Door3,-0.334259259,0.084259259,1,0,0,0.5662,optionLeft,70,14505,7,2,0,2,0,1,,,,,,,,,,,,,,,,,,,,,,,,,,,,,,,,,,,,,,,
,,,,,,,,2023-08-16_08h37.48.802,HF_wild_card,2022.2.4,Win32,60.08171113,62ebcfeb8e3a52c0591fd10c,64d2fd46c836a06233681665,64dc7cb1d51aec2c7bc5471b,,,,,,,ctch,resources/DG.BMP,resources/DP.BMP,Door4,0.281481481,0.127777778,1,0,0,0.5193,optionRight,60,14565,7,3,0,3,0,1,,,,,,,,,,,,,,,,,,,,,,,,,,,,,,,,,,,,,,,
,,,,,,,,2023-08-16_08h37.48.802,HF_wild_card,2022.2.4,Win32,60.08171113,62ebcfeb8e3a52c0591fd10c,64d2fd46c836a06233681665,64dc7cb1d51aec2c7bc5471b,,,,,,,decisionTrl,resources/DP.BMP,resources/DBN.BMP,Door3,0.389814815,0.130555556,1,0,0,0.932,optionRight,70,14635,7,4,0,4,0,1,,,,,,,,,,,,,,,,,,,,,,,,,,,,,,,,,,,,,,,
,,,,,,,,2023-08-16_08h37.48.802,HF_wild_card,2022.2.4,Win32,60.08171113,62ebcfeb8e3a52c0591fd10c,64d2fd46c836a06233681665,64dc7cb1d51aec2c7bc5471b,,,,,,,ctch,resources/DB.BMP,resources/DBN.BMP,Door3,0.205555556,0.127777778,1,0,0,0.4978,optionRight,70,14705,7,5,0,5,0,1,,,,,,,,,,,,,,,,,,,,,,,,,,,,,,,,,,,,,,,
,,,,,,,,2023-08-16_08h37.48.802,HF_wild_card,2022.2.4,Win32,60.08171113,62ebcfeb8e3a52c0591fd10c,64d2fd46c836a06233681665,64dc7cb1d51aec2c7bc5471b,,,,,,,decisionTrl,resources/DB.BMP,resources/DG.BMP,Door2,-0.201851852,0.109259259,1,0,0,0.9504,optionLeft,20,14725,7,6,0,6,0,1,,,,,,,,,,,,,,,,,,,,,,,,,,,,,,,,,,,,,,,
,,,,,,,,2023-08-16_08h37.48.802,HF_wild_card,2022.2.4,Win32,60.08171113,62ebcfeb8e3a52c0591fd10c,64d2fd46c836a06233681665,64dc7cb1d51aec2c7bc5471b,,,,,,,decisionTrl,resources/DBN.BMP,resources/DP.BMP,Door4,0.27962963,0.164814815,1,0,0,0.4658,optionRight,80,14805,7,7,0,7,0,1,,,,,,,,,,,,,,,,,,,,,,,,,,,,,,,,,,,,,,,
,,,,,,,,2023-08-16_08h37.48.802,HF_wild_card,2022.2.4,Win32,60.08171113,62ebcfeb8e3a52c0591fd10c,64d2fd46c836a06233681665,64dc7cb1d51aec2c7bc5471b,,,,,,,decisionTrl,resources/DBN.BMP,resources/DP.BMP,Door3,-0.20462963,0.109259259,1,0,0,0.5492,optionLeft,70,14875,7,8,0,8,0,1,,,,,,,,,,,,,,,,,,,,,,,,,,,,,,,,,,,,,,,
,,,,,,,,2023-08-16_08h37.48.802,HF_wild_card,2022.2.4,Win32,60.08171113,62ebcfeb8e3a52c0591fd10c,64d2fd46c836a06233681665,64dc7cb1d51aec2c7bc5471b,,,,,,,decisionTrl,resources/DB.BMP,resources/DG.BMP,Door2,-0.186111111,0.152777778,1,0,0,0.8668,optionLeft,20,14895,7,9,0,9,0,1,,,,,,,,,,,,,,,,,,,,,,,,,,,,,,,,,,,,,,,
,,,,,,,,2023-08-16_08h37.48.802,HF_wild_card,2022.2.4,Win32,60.08171113,62ebcfeb8e3a52c0591fd10c,64d2fd46c836a06233681665,64dc7cb1d51aec2c7bc5471b,,,,,,,decisionTrl,resources/DB.BMP,resources/DG.BMP,Door2,-0.252777778,0.178703704,1,0,0,0.6662,optionLeft,40,14935,7,10,0,10,0,1,,,,,,,,,,,,,,,,,,,,,,,,,,,,,,,,,,,,,,,
,,,,,,,,2023-08-16_08h37.48.802,HF_wild_card,2022.2.4,Win32,60.08171113,62ebcfeb8e3a52c0591fd10c,64d2fd46c836a06233681665,64dc7cb1d51aec2c7bc5471b,,,,,,,decisionTrl,resources/DG.BMP,resources/DB.BMP,Door1,-0.241666667,0.187962963,1,0,0,0.7771,optionLeft,30,14965,7,11,0,11,0,1,,,,,,,,,,,,,,,,,,,,,,,,,,,,,,,,,,,,,,,
,,,,,,,,2023-08-16_08h37.48.802,HF_wild_card,2022.2.4,Win32,60.08171113,62ebcfeb8e3a52c0591fd10c,64d2fd46c836a06233681665,64dc7cb1d51aec2c7bc5471b,,,,,,,ctch,resources/DB.BMP,resources/DBN.BMP,Door3,0.278703704,0.125925926,1,0,0,1.0831,optionRight,70,15035,7,12,0,12,0,1,,,,,,,,,,,,,,,,,,,,,,,,,,,,,,,,,,,,,,,
,,,,,,,,2023-08-16_08h37.48.802,HF_wild_card,2022.2.4,Win32,60.08171113,62ebcfeb8e3a52c0591fd10c,64d2fd46c836a06233681665,64dc7cb1d51aec2c7bc5471b,,,,,,,ctch,resources/DG.BMP,resources/DP.BMP,Door4,0.422222222,0.22037037,1,0,0,0.7152,optionRight,80,15115,7,13,0,13,0,1,,,,,,,,,,,,,,,,,,,,,,,,,,,,,,,,,,,,,,,
,,,,,,,,2023-08-16_08h37.48.802,HF_wild_card,2022.2.4,Win32,60.08171113,62ebcfeb8e3a52c0591fd10c,64d2fd46c836a06233681665,64dc7cb1d51aec2c7bc5471b,,,,,,,ctch,resources/DBN.BMP,resources/DB.BMP,Door3,-0.140740741,0.115740741,1,0,0,0.6481,optionLeft,70,15185,7,14,0,14,0,1,,,,,,,,,,,,,,,,,,,,,,,,,,,,,,,,,,,,,,,
,,,,,,,,2023-08-16_08h37.48.802,HF_wild_card,2022.2.4,Win32,60.08171113,62ebcfeb8e3a52c0591fd10c,64d2fd46c836a06233681665,64dc7cb1d51aec2c7bc5471b,,,,,,,ctch,resources/DP.BMP,resources/DG.BMP,Door4,-0.336111111,0.174074074,1,0,0,0.6002,optionLeft,80,15265,7,15,0,15,0,1,,,,,,,,,,,,,,,,,,,,,,,,,,,,,,,,,,,,,,,
,,,,,,,,2023-08-16_08h37.48.802,HF_wild_card,2022.2.4,Win32,60.08171113,62ebcfeb8e3a52c0591fd10c,64d2fd46c836a06233681665,64dc7cb1d51aec2c7bc5471b,,,,,,,decisionTrl,resources/DP.BMP,resources/DBN.BMP,Door3,0.177777778,0.215740741,1,0,0,2.4499,optionRight,70,15335,7,16,0,16,0,1,,,,,,,,,,,,,,,,,,,,,,,,,,,,,,,,,,,,,,,
,,,,,,,,2023-08-16_08h37.48.802,HF_wild_card,2022.2.4,Win32,60.08171113,62ebcfeb8e3a52c0591fd10c,64d2fd46c836a06233681665,64dc7cb1d51aec2c7bc5471b,,,,,,,decisionTrl,resources/DP.BMP,resources/DBN.BMP,Door4,-0.196296296,0.171296296,1,0,0,0.8002,optionLeft,80,15415,7,17,0,17,0,1,,,,,,,,,,,,,,,,,,,,,,,,,,,,,,,,,,,,,,,
,,,,,,,,2023-08-16_08h37.48.802,HF_wild_card,2022.2.4,Win32,60.08171113,62ebcfeb8e3a52c0591fd10c,64d2fd46c836a06233681665,64dc7cb1d51aec2c7bc5471b,,,,,,,decisionTrl,resources/DP.BMP,resources/DBN.BMP,Door3,0.413888889,0.247222222,1,0,0,0.9666,optionRight,70,15485,7,18,0,18,0,1,,,,,,,,,,,,,,,,,,,,,,,,,,,,,,,,,,,,,,,
,,,,,,,,2023-08-16_08h37.48.802,HF_wild_card,2022.2.4,Win32,60.08171113,62ebcfeb8e3a52c0591fd10c,64d2fd46c836a06233681665,64dc7cb1d51aec2c7bc5471b,,,,,,,decisionTrl,resources/DBN.BMP,resources/DP.BMP,Door3,-0.153703704,0.193518519,1,0,0,0.7345,optionLeft,70,15555,7,19,0,19,0,1,,,,,,,,,,,,,,,,,,,,,,,,,,,,,,,,,,,,,,,
,,,,,,,,2023-08-16_08h37.48.802,HF_wild_card,2022.2.4,Win32,60.08171113,62ebcfeb8e3a52c0591fd10c,64d2fd46c836a06233681665,64dc7cb1d51aec2c7bc5471b,,,,,,,decisionTrl,resources/DG.BMP,resources/DB.BMP,Door2,0.262037037,0.217592593,1,0,0,0.8507,optionRight,20,15575,7,20,0,20,0,1,,,,,,,,,,,,,,,,,,,,,,,,,,,,,,,,,,,,,,,
,,,,,,,,2023-08-16_08h37.48.802,HF_wild_card,2022.2.4,Win32,60.08171113,62ebcfeb8e3a52c0591fd10c,64d2fd46c836a06233681665,64dc7cb1d51aec2c7bc5471b,,,,,,,decisionTrl,resources/DG.BMP,resources/DB.BMP,Door2,0.303703704,0.188888889,1,0,0,0.8933,optionRight,20,15595,7,21,0,21,0,1,,,,,,,,,,,,,,,,,,,,,,,,,,,,,,,,,,,,,,,
,,,,,,,,2023-08-16_08h37.48.802,HF_wild_card,2022.2.4,Win32,60.08171113,62ebcfeb8e3a52c0591fd10c,64d2fd46c836a06233681665,64dc7cb1d51aec2c7bc5471b,,,,,,,decisionTrl,resources/DP.BMP,resources/DBN.BMP,Door3,0.385185185,0.172222222,1,0,0,1.0506,optionRight,70,15665,7,22,0,22,0,1,,,,,,,,,,,,,,,,,,,,,,,,,,,,,,,,,,,,,,,
,,,,,,,,2023-08-16_08h37.48.802,HF_wild_card,2022.2.4,Win32,60.08171113,62ebcfeb8e3a52c0591fd10c,64d2fd46c836a06233681665,64dc7cb1d51aec2c7bc5471b,,,,,,,decisionTrl,resources/DB.BMP,resources/DG.BMP,Door1,0.193518519,0.231481481,1,0,0,1.4493,optionRight,30,15695,7,23,0,23,0,1,,,,,,,,,,,,,,,,,,,,,,,,,,,,,,,,,,,,,,,
,,,,,,,,2023-08-16_08h37.48.802,HF_wild_card,2022.2.4,Win32,60.08171113,62ebcfeb8e3a52c0591fd10c,64d2fd46c836a06233681665,64dc7cb1d51aec2c7bc5471b,,,,,,,decisionTrl,resources/DBN.BMP,resources/DP.BMP,Door3,-0.156481481,0.208333333,1,0,0,0.7499,optionLeft,70,15765,7,24,0,24,0,1,,,,,,,,,,,,,,,,,,,,,,,,,,,,,,,,,,,,,,,
,,,,,,,,2023-08-16_08h37.48.802,HF_wild_card,2022.2.4,Win32,60.08171113,62ebcfeb8e3a52c0591fd10c,64d2fd46c836a06233681665,64dc7cb1d51aec2c7bc5471b,,,,,,,ctch,resources/DBN.BMP,resources/DB.BMP,Door3,-0.273148148,0.224074074,1,0,0,0.6163,optionLeft,70,15835,7,25,0,25,0,1,,,,,,,,,,,,,,,,,,,,,,,,,,,,,,,,,,,,,,,
,,,,,,,,2023-08-16_08h37.48.802,HF_wild_card,2022.2.4,Win32,60.08171113,62ebcfeb8e3a52c0591fd10c,64d2fd46c836a06233681665,64dc7cb1d51aec2c7bc5471b,,,,,,,decisionTrl,resources/DG.BMP,resources/DB.BMP,Door2,0.313888889,0.218518519,1,0,0,0.783,optionRight,40,15875,7,26,0,26,0,1,,,,,,,,,,,,,,,,,,,,,,,,,,,,,,,,,,,,,,,
,,,,,,,,2023-08-16_08h37.48.802,HF_wild_card,2022.2.4,Win32,60.08171113,62ebcfeb8e3a52c0591fd10c,64d2fd46c836a06233681665,64dc7cb1d51aec2c7bc5471b,,,,,,,ctch,resources/DB.BMP,resources/DBN.BMP,Door3,0.331481481,0.228703704,1,0,0,0.5835,optionRight,70,15945,7,27,0,27,0,1,,,,,,,,,,,,,,,,,,,,,,,,,,,,,,,,,,,,,,,
,,,,,,,,2023-08-16_08h37.48.802,HF_wild_card,2022.2.4,Win32,60.08171113,62ebcfeb8e3a52c0591fd10c,64d2fd46c836a06233681665,64dc7cb1d51aec2c7bc5471b,,,,,,,decisionTrl,resources/DG.BMP,resources/DB.BMP,Door2,0.224074074,0.236111111,1,0,0,0.8661,optionRight,20,15965,7,28,0,28,0,1,,,,,,,,,,,,,,,,,,,,,,,,,,,,,,,,,,,,,,,
,,,,,,,,2023-08-16_08h37.48.802,HF_wild_card,2022.2.4,Win32,60.08171113,62ebcfeb8e3a52c0591fd10c,64d2fd46c836a06233681665,64dc7cb1d51aec2c7bc5471b,,,,,,,decisionTrl,resources/DB.BMP,resources/DG.BMP,Door2,-0.214814815,0.214814815,1,0,0,0.8155,optionLeft,20,15985,7,29,0,29,0,1,,,,,,,,,,,,,,,,,,,,,,,,,,,,,,,,,,,,,,,
,,,,,,,,2023-08-16_08h37.48.802,HF_wild_card,2022.2.4,Win32,60.08171113,62ebcfeb8e3a52c0591fd10c,64d2fd46c836a06233681665,64dc7cb1d51aec2c7bc5471b,,,,,,,ctch,resources/DP.BMP,resources/DG.BMP,Door4,-0.205555556,0.235185185,1,0,0,0.499,optionLeft,80,16065,7,30,0,30,0,1,,,,,,,,,,,,,,,,,,,,,,,,,,,,,,,,,,,,,,,
,,,,,,,,2023-08-16_08h37.48.802,HF_wild_card,2022.2.4,Win32,60.08171113,62ebcfeb8e3a52c0591fd10c,64d2fd46c836a06233681665,64dc7cb1d51aec2c7bc5471b,,,,,,,decisionTrl,resources/DBN.BMP,resources/DP.BMP,Door3,-0.226851852,0.209259259,1,0,0,0.7833,optionLeft,70,16135,7,31,0,31,0,1,,,,,,,,,,,,,,,,,,,,,,,,,,,,,,,,,,,,,,,
,,,,,,,,2023-08-16_08h37.48.802,HF_wild_card,2022.2.4,Win32,60.08171113,62ebcfeb8e3a52c0591fd10c,64d2fd46c836a06233681665,64dc7cb1d51aec2c7bc5471b,,,,,,,ctch,resources/DG.BMP,resources/DP.BMP,Door4,0.263888889,0.22037037,1,0,0,0.6281,optionRight,80,16215,7,32,0,32,0,1,,,,,,,,,,,,,,,,,,,,,,,,,,,,,,,,,,,,,,,
,,,,,,,,2023-08-16_08h37.48.802,HF_wild_card,2022.2.4,Win32,60.08171113,62ebcfeb8e3a52c0591fd10c,64d2fd46c836a06233681665,64dc7cb1d51aec2c7bc5471b,,,,,,,ctch,resources/DP.BMP,resources/DG.BMP,Door4,-0.34537037,0.267592593,1,0,0,0.5704,optionLeft,60,16275,7,33,0,33,0,1,,,,,,,,,,,,,,,,,,,,,,,,,,,,,,,,,,,,,,,
,,,,,,,,2023-08-16_08h37.48.802,HF_wild_card,2022.2.4,Win32,60.08171113,62ebcfeb8e3a52c0591fd10c,64d2fd46c836a06233681665,64dc7cb1d51aec2c7bc5471b,,,,,,,decisionTrl,resources/DBN.BMP,resources/DP.BMP,Door3,-0.201851852,0.219444444,1,0,0,0.7652,optionLeft,70,16345,7,34,0,34,0,1,,,,,,,,,,,,,,,,,,,,,,,,,,,,,,,,,,,,,,,
,,,,,,,,2023-08-16_08h37.48.802,HF_wild_card,2022.2.4,Win32,60.08171113,62ebcfeb8e3a52c0591fd10c,64d2fd46c836a06233681665,64dc7cb1d51aec2c7bc5471b,,,,,,,decisionTrl,resources/DP.BMP,resources/DBN.BMP,Door3,0.272222222,0.239814815,1,0,0,0.9169,optionRight,70,16415,7,35,0,35,0,1,,,,,,,,,,,,,,,,,,,,,,,,,,,,,,,,,,,,,,,
,,,,,,,,2023-08-16_08h37.48.802,HF_wild_card,2022.2.4,Win32,60.08171113,62ebcfeb8e3a52c0591fd10c,64d2fd46c836a06233681665,64dc7cb1d51aec2c7bc5471b,,,,,,,,,,,,,,,,,,,,,,,,,,6,0,6,0,1,,,,,,,,,,,,,,,,,,,,,,,,,,,,,,,,,,
,,,,,,,,2023-08-16_08h37.48.802,HF_wild_card,2022.2.4,Win32,60.08171113,62ebcfeb8e3a52c0591fd10c,64d2fd46c836a06233681665,64dc7cb1d51aec2c7bc5471b,,,,,,,,,,,,,,,,,,,,,,,,,,,,,,,4,,,,,,,,,,,,,,,,,,,,,,,,,,,,,,,,,
,,,,,,,,2023-08-16_08h37.48.802,HF_wild_card,2022.2.4,Win32,60.08171113,62ebcfeb8e3a52c0591fd10c,64d2fd46c836a06233681665,64dc7cb1d51aec2c7bc5471b,,,,,,,,,,,,,,,,,,,,,,,,,,,,,,,,,,,,,,,,,,,,,,,,,,,,,,,,,,,,,,,,
,,,,,,,,2023-08-16_08h37.48.802,HF_wild_card,2022.2.4,Win32,60.08171113,62ebcfeb8e3a52c0591fd10c,64d2fd46c836a06233681665,64dc7cb1d51aec2c7bc5471b,,,,,,,,,,,,,,,,,,,,,,,,,,,,,,,,30,WC_nonExtreme,resources/DR.BMP,0,0,0,0,1,,,,,,,,,,,,,,,,,,,,,,,,,
,,,,,,,,2023-08-16_08h37.48.802,HF_wild_card,2022.2.4,Win32,60.08171113,62ebcfeb8e3a52c0591fd10c,64d2fd46c836a06233681665,64dc7cb1d51aec2c7bc5471b,,,,,,,,,,,,,,,,,,,,,,,,,,,,,,,,35,Door2,resources/DB.BMP,1,0,1,0,1,,,,,,,,,,,,,,,,,,,,,,,,,
,,,,,,,,2023-08-16_08h37.48.802,HF_wild_card,2022.2.4,Win32,60.08171113,62ebcfeb8e3a52c0591fd10c,64d2fd46c836a06233681665,64dc7cb1d51aec2c7bc5471b,,,,,,,,,,,,,,,,,,,,,,,,,,,,,,,,60,Door4,resources/DP.BMP,2,0,2,0,1,,,,,,,,,,,,,,,,,,,,,,,,,
,,,,,,,,2023-08-16_08h37.48.802,HF_wild_card,2022.2.4,Win32,60.08171113,62ebcfeb8e3a52c0591fd10c,64d2fd46c836a06233681665,64dc7cb1d51aec2c7bc5471b,,,,,,,,,,,,,,,,,,,,,,,,,,,,,,,,70,Door3,resources/DBN.BMP,3,0,3,0,1,,,,,,,,,,,,,,,,,,,,,,,,,
,,,,,,,,2023-08-16_08h37.48.802,HF_wild_card,2022.2.4,Win32,60.08171113,62ebcfeb8e3a52c0591fd10c,64d2fd46c836a06233681665,64dc7cb1d51aec2c7bc5471b,,,,,,,,,,,,,,,,,,,,,,,,,,,,,,,,40,WC_extreme,resources/DY.BMP,4,0,4,0,1,,,,,,,,,,,,,,,,,,,,,,,,,
,,,,,,,,2023-08-16_08h37.48.802,HF_wild_card,2022.2.4,Win32,60.08171113,62ebcfeb8e3a52c0591fd10c,64d2fd46c836a06233681665,64dc7cb1d51aec2c7bc5471b,,,,,,,,,,,,,,,,,,,,,,,,,,,,,,,,30,Door1,resources/DG.BMP,5,0,5,0,1,,,,,,,,,,,,,,,,,,,,,,,,,
,,,,,,,,2023-08-16_08h37.48.802,HF_wild_card,2022.2.4,Win32,60.08171113,62ebcfeb8e3a52c0591fd10c,64d2fd46c836a06233681665,64dc7cb1d51aec2c7bc5471b,,,,,,,,,,,,,,,,,,,,,,,,,,,,,,,,,,,,,,,,,,,,,,,,,,,,,,,,,,,,,,,,
,,,,,,,,2023-08-16_08h37.48.802,HF_wild_card,2022.2.4,Win32,60.08171113,62ebcfeb8e3a52c0591fd10c,64d2fd46c836a06233681665,64dc7cb1d51aec2c7bc5471b,,,,,,,,,,,,,,,,,,,,,,,,,,,,,,,,,,,,,,,,0,0,0,0,1,,,,,,,,,,,,,,,,,,,,
