Condition,Low fixed image (Door1),Low risky image (Door2),High fixed image (Door3),High risky image (Door4),NonExtreme Wild Card 1,NonExtreme Wild Card 2,,date,expName,psychopyVersion,OS,frameRate,PROLIFIC_PID,STUDY_ID,SESSION_ID,mouse_2.x,mouse_2.y,mouse_2.leftButton,mouse_2.midButton,mouse_2.rightButton,mouse_2.clicked_name,Trial Type,Left Option Image,Right Option Image,Chosen Door,mouse.x,mouse.y,mouse.leftButton,mouse.midButton,mouse.rightButton,mouse.time,mouse.clicked_name,Feedback,Cumulative Reward,Block,trial.thisRepN,trial.thisTrialN,trial.thisN,trial.thisIndex,trial.ran,blocks.thisRepN,blocks.thisTrialN,blocks.thisN,blocks.thisIndex,blocks.ran,Money conversion,First Outcome Reported,Shown Door (First Outcome),Displayed Image (First Outcome),outcomes.thisRepN,outcomes.thisTrialN,outcomes.thisN,outcomes.thisIndex,outcomes.ran,judgments.thisRepN,judgments.thisTrialN,judgments.thisN,judgments.thisIndex,judgments.ran,freqMouse.x,freqMouse.y,freqMouse.leftButton,freqMouse.midButton,freqMouse.rightButton,freqMouse.clicked_name,trials.thisRepN,trials.thisTrialN,trials.thisN,trials.thisIndex,trials.ran,FQJ for first outcome,FQJ for second outcome,Shown Door,Displayed Image,judgBlock.thisRepN,judgBlock.thisTrialN,judgBlock.thisN,judgBlock.thisIndex,judgBlock.ran
2,resources/DG.BMP,resources/DB.BMP,resources/DY.BMP,resources/DP.BMP,resources/DBN.BMP,resources/DR.BMP,,2023-08-16_08h39.16.964,HF_wild_card,2022.2.4,MacIntel,60.0024001,5b126ec7c85dc400016220a4,64d2fd46c836a06233681665,64dc7d055038957636d3cdd8,,,,,,,,,,,,,,,,,,,,,,,,,,,,,,,,,,,,,,,,,,,,,,,,,,,,,,,,,,,,,,,,
,,,,,,,,2023-08-16_08h39.16.964,HF_wild_card,2022.2.4,MacIntel,60.0024001,5b126ec7c85dc400016220a4,64d2fd46c836a06233681665,64dc7d055038957636d3cdd8,0.012113211,-0.419216832,1,0,0,agree,,,,,,,,,,,,,,,,,,,,,,,,,,,,,,,,,,,,,,,,,,,,,,,,,,,,,,,,,,
,,,,,,,,2023-08-16_08h39.16.964,HF_wild_card,2022.2.4,MacIntel,60.0024001,5b126ec7c85dc400016220a4,64d2fd46c836a06233681665,64dc7d055038957636d3cdd8,,,,,,,,,,,,,,,,,,,,,,,,,,,,,,,,,,,,,,,,,,,,,,,,,,,,,,,,,,,,,,,,
,,,,,,,,2023-08-16_08h39.16.964,HF_wild_card,2022.2.4,MacIntel,60.0024001,5b126ec7c85dc400016220a4,64d2fd46c836a06233681665,64dc7d055038957636d3cdd8,,,,,,,decisionTrl,resources/DB.BMP,resources/DG.BMP,Door1,0.330690337,-0.109697963,1,0,0,2.7831,optionRight,30,30,1,0,0,0,0,1,,,,,,,,,,,,,,,,,,,,,,,,,,,,,,,,,,,,,,,
,,,,,,,,2023-08-16_08h39.16.964,HF_wild_card,2022.2.4,MacIntel,60.0024001,5b126ec7c85dc400016220a4,64d2fd46c836a06233681665,64dc7d055038957636d3cdd8,,,,,,,sngl,resources/DY.BMP,resources/Empty.png,Door3,-0.306956555,0.022848017,1,0,0,1.2402,optionLeft,70,100,1,1,0,1,0,1,,,,,,,,,,,,,,,,,,,,,,,,,,,,,,,,,,,,,,,
,,,,,,,,2023-08-16_08h39.16.964,HF_wild_card,2022.2.4,MacIntel,60.0024001,5b126ec7c85dc400016220a4,64d2fd46c836a06233681665,64dc7d055038957636d3cdd8,,,,,,,sngl,resources/Empty.png,resources/DG.BMP,Door1,0.328148949,-0.035241176,1,0,0,1.3561,optionRight,30,130,1,2,0,2,0,1,,,,,,,,,,,,,,,,,,,,,,,,,,,,,,,,,,,,,,,
,,,,,,,,2023-08-16_08h39.16.964,HF_wild_card,2022.2.4,MacIntel,60.0024001,5b126ec7c85dc400016220a4,64d2fd46c836a06233681665,64dc7d055038957636d3cdd8,,,,,,,decisionTrl,resources/DY.BMP,resources/DP.BMP,Door4,0.330023949,-0.042544062,1,0,0,1.4136,optionRight,60,190,1,3,0,3,0,1,,,,,,,,,,,,,,,,,,,,,,,,,,,,,,,,,,,,,,,
,,,,,,,,2023-08-16_08h39.16.964,HF_wild_card,2022.2.4,MacIntel,60.0024001,5b126ec7c85dc400016220a4,64d2fd46c836a06233681665,64dc7d055038957636d3cdd8,,,,,,,decisionTrl,resources/DG.BMP,resources/DB.BMP,Door1,-0.387921462,-0.040796247,1,0,0,1.0282,optionLeft,30,220,1,4,0,4,0,1,,,,,,,,,,,,,,,,,,,,,,,,,,,,,,,,,,,,,,,
,,,,,,,,2023-08-16_08h39.16.964,HF_wild_card,2022.2.4,MacIntel,60.0024001,5b126ec7c85dc400016220a4,64d2fd46c836a06233681665,64dc7d055038957636d3cdd8,,,,,,,decisionTrl,resources/DB.BMP,resources/DG.BMP,Door2,-0.251319173,-0.03419358,1,0,0,0.9813,optionLeft,20,240,1,5,0,5,0,1,,,,,,,,,,,,,,,,,,,,,,,,,,,,,,,,,,,,,,,
,,,,,,,,2023-08-16_08h39.16.964,HF_wild_card,2022.2.4,MacIntel,60.0024001,5b126ec7c85dc400016220a4,64d2fd46c836a06233681665,64dc7d055038957636d3cdd8,,,,,,,ctch,resources/DB.BMP,resources/DY.BMP,Door3,0.386044689,-0.041375907,1,0,0,0.8975,optionRight,70,310,1,6,0,6,0,1,,,,,,,,,,,,,,,,,,,,,,,,,,,,,,,,,,,,,,,
,,,,,,,,2023-08-16_08h39.16.964,HF_wild_card,2022.2.4,MacIntel,60.0024001,5b126ec7c85dc400016220a4,64d2fd46c836a06233681665,64dc7d055038957636d3cdd8,,,,,,,sngl,resources/Empty.png,resources/DB.BMP,Door2,0.334180618,-0.02434239,1,0,0,0.7309,optionRight,20,330,1,7,0,7,0,1,,,,,,,,,,,,,,,,,,,,,,,,,,,,,,,,,,,,,,,
,,,,,,,,2023-08-16_08h39.16.964,HF_wild_card,2022.2.4,MacIntel,60.0024001,5b126ec7c85dc400016220a4,64d2fd46c836a06233681665,64dc7d055038957636d3cdd8,,,,,,,decisionTrl,resources/DG.BMP,resources/DB.BMP,Door1,-0.32467198,-0.103484817,1,0,0,0.8812,optionLeft,30,360,1,8,0,8,0,1,,,,,,,,,,,,,,,,,,,,,,,,,,,,,,,,,,,,,,,
,,,,,,,,2023-08-16_08h39.16.964,HF_wild_card,2022.2.4,MacIntel,60.0024001,5b126ec7c85dc400016220a4,64d2fd46c836a06233681665,64dc7d055038957636d3cdd8,,,,,,,decisionTrl,resources/DB.BMP,resources/DG.BMP,Door2,-0.314905105,-0.044509277,1,0,0,0.7314,optionLeft,20,380,1,9,0,9,0,1,,,,,,,,,,,,,,,,,,,,,,,,,,,,,,,,,,,,,,,
,,,,,,,,2023-08-16_08h39.16.964,HF_wild_card,2022.2.4,MacIntel,60.0024001,5b126ec7c85dc400016220a4,64d2fd46c836a06233681665,64dc7d055038957636d3cdd8,,,,,,,decisionTrl,resources/DP.BMP,resources/DY.BMP,Door3,0.344929548,-0.01060047,1,0,0,1.6812,optionRight,70,450,1,10,0,10,0,1,,,,,,,,,,,,,,,,,,,,,,,,,,,,,,,,,,,,,,,
,,,,,,,,2023-08-16_08h39.16.964,HF_wild_card,2022.2.4,MacIntel,60.0024001,5b126ec7c85dc400016220a4,64d2fd46c836a06233681665,64dc7d055038957636d3cdd8,,,,,,,decisionTrl,resources/DR.BMP,resources/DY.BMP,WildCard_NonEx,-0.322895624,-0.073783598,1,0,0,1.0313,optionLeft,55,505,1,11,0,11,0,1,,,,,,,,,,,,,,,,,,,,,,,,,,,,,,,,,,,,,,,
,,,,,,,,2023-08-16_08h39.16.964,HF_wild_card,2022.2.4,MacIntel,60.0024001,5b126ec7c85dc400016220a4,64d2fd46c836a06233681665,64dc7d055038957636d3cdd8,,,,,,,sngl,resources/Empty.png,resources/DY.BMP,Door3,0.389940127,-0.022189128,1,0,0,0.8311,optionRight,70,575,1,12,0,12,0,1,,,,,,,,,,,,,,,,,,,,,,,,,,,,,,,,,,,,,,,
,,,,,,,,2023-08-16_08h39.16.964,HF_wild_card,2022.2.4,MacIntel,60.0024001,5b126ec7c85dc400016220a4,64d2fd46c836a06233681665,64dc7d055038957636d3cdd8,,,,,,,decisionTrl,resources/DP.BMP,resources/DR.BMP,Door4,-0.353439447,-0.084139521,1,0,0,2.3317,optionLeft,60,635,1,13,0,13,0,1,,,,,,,,,,,,,,,,,,,,,,,,,,,,,,,,,,,,,,,
,,,,,,,,2023-08-16_08h39.16.964,HF_wild_card,2022.2.4,MacIntel,60.0024001,5b126ec7c85dc400016220a4,64d2fd46c836a06233681665,64dc7d055038957636d3cdd8,,,,,,,sngl,resources/DR.BMP,resources/Empty.png,WildCard_NonEx,-0.320057199,-0.07376895,1,0,0,0.9314,optionLeft,55,690,1,14,0,14,0,1,,,,,,,,,,,,,,,,,,,,,,,,,,,,,,,,,,,,,,,
,,,,,,,,2023-08-16_08h39.16.964,HF_wild_card,2022.2.4,MacIntel,60.0024001,5b126ec7c85dc400016220a4,64d2fd46c836a06233681665,64dc7d055038957636d3cdd8,,,,,,,decisionTrl,resources/DY.BMP,resources/DP.BMP,Door4,0.396500186,-0.037639335,1,0,0,1.4962,optionRight,80,770,1,15,0,15,0,1,,,,,,,,,,,,,,,,,,,,,,,,,,,,,,,,,,,,,,,
,,,,,,,,2023-08-16_08h39.16.964,HF_wild_card,2022.2.4,MacIntel,60.0024001,5b126ec7c85dc400016220a4,64d2fd46c836a06233681665,64dc7d055038957636d3cdd8,,,,,,,sngl,resources/Empty.png,resources/DR.BMP,WildCard_NonEx,0.400009533,-0.048500977,1,0,0,0.7802,optionRight,55,825,1,16,0,16,0,1,,,,,,,,,,,,,,,,,,,,,,,,,,,,,,,,,,,,,,,
,,,,,,,,2023-08-16_08h39.16.964,HF_wild_card,2022.2.4,MacIntel,60.0024001,5b126ec7c85dc400016220a4,64d2fd46c836a06233681665,64dc7d055038957636d3cdd8,,,,,,,decisionTrl,resources/DG.BMP,resources/DR.BMP,Door1,-0.38300665,0.024511341,1,0,0,0.6983,optionLeft,30,855,1,17,0,17,0,1,,,,,,,,,,,,,,,,,,,,,,,,,,,,,,,,,,,,,,,
,,,,,,,,2023-08-16_08h39.16.964,HF_wild_card,2022.2.4,MacIntel,60.0024001,5b126ec7c85dc400016220a4,64d2fd46c836a06233681665,64dc7d055038957636d3cdd8,,,,,,,ctch,resources/DY.BMP,resources/DB.BMP,Door3,-0.32650908,-0.033039493,1,0,0,0.8813,optionLeft,70,925,1,18,0,18,0,1,,,,,,,,,,,,,,,,,,,,,,,,,,,,,,,,,,,,,,,
,,,,,,,,2023-08-16_08h39.16.964,HF_wild_card,2022.2.4,MacIntel,60.0024001,5b126ec7c85dc400016220a4,64d2fd46c836a06233681665,64dc7d055038957636d3cdd8,,,,,,,sngl,resources/DP.BMP,resources/Empty.png,Door4,-0.346239101,-0.009666341,1,0,0,0.7146,optionLeft,80,1005,1,19,0,19,0,1,,,,,,,,,,,,,,,,,,,,,,,,,,,,,,,,,,,,,,,
,,,,,,,,2023-08-16_08h39.16.964,HF_wild_card,2022.2.4,MacIntel,60.0024001,5b126ec7c85dc400016220a4,64d2fd46c836a06233681665,64dc7d055038957636d3cdd8,,,,,,,sngl,resources/DG.BMP,resources/Empty.png,Door1,-0.264874209,0.008400472,1,0,0,0.7313,optionLeft,30,1035,1,20,0,20,0,1,,,,,,,,,,,,,,,,,,,,,,,,,,,,,,,,,,,,,,,
,,,,,,,,2023-08-16_08h39.16.964,HF_wild_card,2022.2.4,MacIntel,60.0024001,5b126ec7c85dc400016220a4,64d2fd46c836a06233681665,64dc7d055038957636d3cdd8,,,,,,,sngl,resources/DB.BMP,resources/Empty.png,Door2,-0.295356213,0.002197382,1,0,0,0.7637,optionLeft,40,1075,1,21,0,21,0,1,,,,,,,,,,,,,,,,,,,,,,,,,,,,,,,,,,,,,,,
,,,,,,,,2023-08-16_08h39.16.964,HF_wild_card,2022.2.4,MacIntel,60.0024001,5b126ec7c85dc400016220a4,64d2fd46c836a06233681665,64dc7d055038957636d3cdd8,,,,,,,decisionTrl,resources/DR.BMP,resources/DB.BMP,WildCard_NonEx,-0.276013184,-0.036587263,1,0,0,0.7298,optionLeft,45,1120,1,22,0,22,0,1,,,,,,,,,,,,,,,,,,,,,,,,,,,,,,,,,,,,,,,
,,,,,,,,2023-08-16_08h39.16.964,HF_wild_card,2022.2.4,MacIntel,60.0024001,5b126ec7c85dc400016220a4,64d2fd46c836a06233681665,64dc7d055038957636d3cdd8,,,,,,,ctch,resources/DG.BMP,resources/DP.BMP,Door1,-0.279457892,-0.076538667,1,0,0,0.8817,optionLeft,30,1150,1,23,0,23,0,1,,,,,,,,,,,,,,,,,,,,,,,,,,,,,,,,,,,,,,,
,,,,,,,,2023-08-16_08h39.16.964,HF_wild_card,2022.2.4,MacIntel,60.0024001,5b126ec7c85dc400016220a4,64d2fd46c836a06233681665,64dc7d055038957636d3cdd8,,,,,,,sngl,resources/Empty.png,resources/DP.BMP,Door4,0.345363072,-0.06488601,1,0,0,0.5807,optionRight,60,1210,1,24,0,24,0,1,,,,,,,,,,,,,,,,,,,,,,,,,,,,,,,,,,,,,,,
,,,,,,,,2023-08-16_08h39.16.964,HF_wild_card,2022.2.4,MacIntel,60.0024001,5b126ec7c85dc400016220a4,64d2fd46c836a06233681665,64dc7d055038957636d3cdd8,,,,,,,ctch,resources/DB.BMP,resources/DY.BMP,Door3,0.384212821,-0.031447173,1,0,0,0.8135,optionRight,70,1280,1,25,0,25,0,1,,,,,,,,,,,,,,,,,,,,,,,,,,,,,,,,,,,,,,,
,,,,,,,,2023-08-16_08h39.16.964,HF_wild_card,2022.2.4,MacIntel,60.0024001,5b126ec7c85dc400016220a4,64d2fd46c836a06233681665,64dc7d055038957636d3cdd8,,,,,,,decisionTrl,resources/DB.BMP,resources/DG.BMP,Door1,0.447237258,-0.012348052,1,0,0,0.7986,optionRight,30,1310,1,26,0,26,0,1,,,,,,,,,,,,,,,,,,,,,,,,,,,,,,,,,,,,,,,
,,,,,,,,2023-08-16_08h39.16.964,HF_wild_card,2022.2.4,MacIntel,60.0024001,5b126ec7c85dc400016220a4,64d2fd46c836a06233681665,64dc7d055038957636d3cdd8,,,,,,,sngl,resources/Empty.png,resources/DR.BMP,WildCard_NonEx,0.401367536,0.005460031,1,0,0,0.6802,optionRight,45,1355,1,27,0,27,0,1,,,,,,,,,,,,,,,,,,,,,,,,,,,,,,,,,,,,,,,
,,,,,,,,2023-08-16_08h39.16.964,HF_wild_card,2022.2.4,MacIntel,60.0024001,5b126ec7c85dc400016220a4,64d2fd46c836a06233681665,64dc7d055038957636d3cdd8,,,,,,,sngl,resources/DR.BMP,resources/Empty.png,WildCard_NonEx,-0.346199457,0.045223505,1,0,0,1.231,optionLeft,45,1400,1,28,0,28,0,1,,,,,,,,,,,,,,,,,,,,,,,,,,,,,,,,,,,,,,,
,,,,,,,,2023-08-16_08h39.16.964,HF_wild_card,2022.2.4,MacIntel,60.0024001,5b126ec7c85dc400016220a4,64d2fd46c836a06233681665,64dc7d055038957636d3cdd8,,,,,,,decisionTrl,resources/DP.BMP,resources/DY.BMP,Door3,0.371288249,-0.001334519,1,0,0,1.0811,optionRight,70,1470,1,29,0,29,0,1,,,,,,,,,,,,,,,,,,,,,,,,,,,,,,,,,,,,,,,
,,,,,,,,2023-08-16_08h39.16.964,HF_wild_card,2022.2.4,MacIntel,60.0024001,5b126ec7c85dc400016220a4,64d2fd46c836a06233681665,64dc7d055038957636d3cdd8,,,,,,,ctch,resources/DG.BMP,resources/DP.BMP,Door4,0.440474098,-0.025177002,1,0,0,1.3481,optionRight,80,1550,1,30,0,30,0,1,,,,,,,,,,,,,,,,,,,,,,,,,,,,,,,,,,,,,,,
,,,,,,,,2023-08-16_08h39.16.964,HF_wild_card,2022.2.4,MacIntel,60.0024001,5b126ec7c85dc400016220a4,64d2fd46c836a06233681665,64dc7d055038957636d3cdd8,,,,,,,ctch,resources/DP.BMP,resources/DG.BMP,Door4,-0.320300235,-0.02102045,1,0,0,0.7146,optionLeft,60,1610,1,31,0,31,0,1,,,,,,,,,,,,,,,,,,,,,,,,,,,,,,,,,,,,,,,
,,,,,,,,2023-08-16_08h39.16.964,HF_wild_card,2022.2.4,MacIntel,60.0024001,5b126ec7c85dc400016220a4,64d2fd46c836a06233681665,64dc7d055038957636d3cdd8,,,,,,,decisionTrl,resources/DG.BMP,resources/DB.BMP,Door1,-0.332472767,-0.028326067,1,0,0,0.9649,optionLeft,30,1640,1,32,0,32,0,1,,,,,,,,,,,,,,,,,,,,,,,,,,,,,,,,,,,,,,,
,,,,,,,,2023-08-16_08h39.16.964,HF_wild_card,2022.2.4,MacIntel,60.0024001,5b126ec7c85dc400016220a4,64d2fd46c836a06233681665,64dc7d055038957636d3cdd8,,,,,,,decisionTrl,resources/DP.BMP,resources/DY.BMP,Door4,-0.357260655,-0.024655994,1,0,0,0.7337,optionLeft,60,1700,1,33,0,33,0,1,,,,,,,,,,,,,,,,,,,,,,,,,,,,,,,,,,,,,,,
,,,,,,,,2023-08-16_08h39.16.964,HF_wild_card,2022.2.4,MacIntel,60.0024001,5b126ec7c85dc400016220a4,64d2fd46c836a06233681665,64dc7d055038957636d3cdd8,,,,,,,ctch,resources/DY.BMP,resources/DB.BMP,Door3,-0.323924154,-0.003945894,1,0,0,0.6312,optionLeft,70,1770,1,34,0,34,0,1,,,,,,,,,,,,,,,,,,,,,,,,,,,,,,,,,,,,,,,
,,,,,,,,2023-08-16_08h39.16.964,HF_wild_card,2022.2.4,MacIntel,60.0024001,5b126ec7c85dc400016220a4,64d2fd46c836a06233681665,64dc7d055038957636d3cdd8,,,,,,,decisionTrl,resources/DY.BMP,resources/DP.BMP,Door3,-0.322534819,-0.014042736,1,0,0,0.5648,optionLeft,70,1840,1,35,0,35,0,1,,,,,,,,,,,,,,,,,,,,,,,,,,,,,,,,,,,,,,,
,,,,,,,,2023-08-16_08h39.16.964,HF_wild_card,2022.2.4,MacIntel,60.0024001,5b126ec7c85dc400016220a4,64d2fd46c836a06233681665,64dc7d055038957636d3cdd8,,,,,,,decisionTrl,resources/DY.BMP,resources/DR.BMP,Door3,-0.305004302,0.003232654,1,0,0,0.6817,optionLeft,70,1910,1,36,0,36,0,1,,,,,,,,,,,,,,,,,,,,,,,,,,,,,,,,,,,,,,,
,,,,,,,,2023-08-16_08h39.16.964,HF_wild_card,2022.2.4,MacIntel,60.0024001,5b126ec7c85dc400016220a4,64d2fd46c836a06233681665,64dc7d055038957636d3cdd8,,,,,,,ctch,resources/DP.BMP,resources/DG.BMP,Door1,0.284022391,-0.031295747,1,0,0,1.9142,optionRight,30,1940,1,37,0,37,0,1,,,,,,,,,,,,,,,,,,,,,,,,,,,,,,,,,,,,,,,
,,,,,,,,2023-08-16_08h39.16.964,HF_wild_card,2022.2.4,MacIntel,60.0024001,5b126ec7c85dc400016220a4,64d2fd46c836a06233681665,64dc7d055038957636d3cdd8,,,,,,,decisionTrl,resources/DY.BMP,resources/DP.BMP,Door3,-0.36734654,-0.000109747,1,0,0,0.5984,optionLeft,70,2010,1,38,0,38,0,1,,,,,,,,,,,,,,,,,,,,,,,,,,,,,,,,,,,,,,,
,,,,,,,,2023-08-16_08h39.16.964,HF_wild_card,2022.2.4,MacIntel,60.0024001,5b126ec7c85dc400016220a4,64d2fd46c836a06233681665,64dc7d055038957636d3cdd8,,,,,,,decisionTrl,resources/DB.BMP,resources/DR.BMP,WildCard_NonEx,0.285291109,-0.023941941,1,0,0,1.1315,optionRight,55,2065,1,39,0,39,0,1,,,,,,,,,,,,,,,,,,,,,,,,,,,,,,,,,,,,,,,
,,,,,,,,2023-08-16_08h39.16.964,HF_wild_card,2022.2.4,MacIntel,60.0024001,5b126ec7c85dc400016220a4,64d2fd46c836a06233681665,64dc7d055038957636d3cdd8,,,,,,,decisionTrl,resources/DG.BMP,resources/DB.BMP,Door1,-0.418924677,-0.030331915,1,0,0,1.0811,optionLeft,30,2095,1,40,0,40,0,1,,,,,,,,,,,,,,,,,,,,,,,,,,,,,,,,,,,,,,,
,,,,,,,,2023-08-16_08h39.16.964,HF_wild_card,2022.2.4,MacIntel,60.0024001,5b126ec7c85dc400016220a4,64d2fd46c836a06233681665,64dc7d055038957636d3cdd8,,,,,,,decisionTrl,resources/DP.BMP,resources/DY.BMP,Door4,-0.284132952,0.004716913,1,0,0,0.8146,optionLeft,60,2155,1,41,0,41,0,1,,,,,,,,,,,,,,,,,,,,,,,,,,,,,,,,,,,,,,,
,,,,,,,,2023-08-16_08h39.16.964,HF_wild_card,2022.2.4,MacIntel,60.0024001,5b126ec7c85dc400016220a4,64d2fd46c836a06233681665,64dc7d055038957636d3cdd8,,,,,,,decisionTrl,resources/DR.BMP,resources/DG.BMP,WildCard_NonEx,-0.29926659,-0.022825986,1,0,0,15.0153,optionLeft,45,2200,1,42,0,42,0,1,,,,,,,,,,,,,,,,,,,,,,,,,,,,,,,,,,,,,,,
,,,,,,,,2023-08-16_08h39.16.964,HF_wild_card,2022.2.4,MacIntel,60.0024001,5b126ec7c85dc400016220a4,64d2fd46c836a06233681665,64dc7d055038957636d3cdd8,,,,,,,decisionTrl,resources/DR.BMP,resources/DP.BMP,Door4,0.382800525,-0.051931443,1,0,0,0.615,optionRight,80,2280,1,43,0,43,0,1,,,,,,,,,,,,,,,,,,,,,,,,,,,,,,,,,,,,,,,
,,,,,,,,2023-08-16_08h39.16.964,HF_wild_card,2022.2.4,MacIntel,60.0024001,5b126ec7c85dc400016220a4,64d2fd46c836a06233681665,64dc7d055038957636d3cdd8,,,,,,,,,,,,,,,,,,,,,,,,,,0,0,0,0,1,,,,,,,,,,,,,,,,,,,,,,,,,,,,,,,,,,
,,,,,,,,2023-08-16_08h39.16.964,HF_wild_card,2022.2.4,MacIntel,60.0024001,5b126ec7c85dc400016220a4,64d2fd46c836a06233681665,64dc7d055038957636d3cdd8,,,,,,,decisionTrl,resources/DY.BMP,resources/DP.BMP,Door3,-0.292425479,-0.042906552,1,0,0,2.5204,optionLeft,70,2350,2,0,0,0,0,1,,,,,,,,,,,,,,,,,,,,,,,,,,,,,,,,,,,,,,,
,,,,,,,,2023-08-16_08h39.16.964,HF_wild_card,2022.2.4,MacIntel,60.0024001,5b126ec7c85dc400016220a4,64d2fd46c836a06233681665,64dc7d055038957636d3cdd8,,,,,,,sngl,resources/DP.BMP,resources/Empty.png,Door4,-0.269605887,-0.020091902,1,0,0,0.9646,optionLeft,60,2410,2,1,0,1,0,1,,,,,,,,,,,,,,,,,,,,,,,,,,,,,,,,,,,,,,,
,,,,,,,,2023-08-16_08h39.16.964,HF_wild_card,2022.2.4,MacIntel,60.0024001,5b126ec7c85dc400016220a4,64d2fd46c836a06233681665,64dc7d055038957636d3cdd8,,,,,,,sngl,resources/Empty.png,resources/DR.BMP,WildCard_NonEx,0.328016881,-0.012899402,1,0,0,0.8825,optionRight,55,2465,2,2,0,2,0,1,,,,,,,,,,,,,,,,,,,,,,,,,,,,,,,,,,,,,,,
,,,,,,,,2023-08-16_08h39.16.964,HF_wild_card,2022.2.4,MacIntel,60.0024001,5b126ec7c85dc400016220a4,64d2fd46c836a06233681665,64dc7d055038957636d3cdd8,,,,,,,sngl,resources/Empty.png,resources/DG.BMP,Door1,0.325469215,-0.024548805,1,0,0,0.8472,optionRight,30,2495,2,3,0,3,0,1,,,,,,,,,,,,,,,,,,,,,,,,,,,,,,,,,,,,,,,
,,,,,,,,2023-08-16_08h39.16.964,HF_wild_card,2022.2.4,MacIntel,60.0024001,5b126ec7c85dc400016220a4,64d2fd46c836a06233681665,64dc7d055038957636d3cdd8,,,,,,,ctch,resources/DY.BMP,resources/DB.BMP,Door3,-0.32070513,-0.002926665,1,0,0,1.4311,optionLeft,70,2565,2,4,0,4,0,1,,,,,,,,,,,,,,,,,,,,,,,,,,,,,,,,,,,,,,,
,,,,,,,,2023-08-16_08h39.16.964,HF_wild_card,2022.2.4,MacIntel,60.0024001,5b126ec7c85dc400016220a4,64d2fd46c836a06233681665,64dc7d055038957636d3cdd8,,,,,,,sngl,resources/Empty.png,resources/DB.BMP,Door2,0.330766369,-0.032200172,1,0,0,0.8651,optionRight,40,2605,2,5,0,5,0,1,,,,,,,,,,,,,,,,,,,,,,,,,,,,,,,,,,,,,,,
,,,,,,,,2023-08-16_08h39.16.964,HF_wild_card,2022.2.4,MacIntel,60.0024001,5b126ec7c85dc400016220a4,64d2fd46c836a06233681665,64dc7d055038957636d3cdd8,,,,,,,ctch,resources/DB.BMP,resources/DY.BMP,Door3,0.426233956,0.008589855,1,0,0,0.6656,optionRight,70,2675,2,6,0,6,0,1,,,,,,,,,,,,,,,,,,,,,,,,,,,,,,,,,,,,,,,
,,,,,,,,2023-08-16_08h39.16.964,HF_wild_card,2022.2.4,MacIntel,60.0024001,5b126ec7c85dc400016220a4,64d2fd46c836a06233681665,64dc7d055038957636d3cdd8,,,,,,,decisionTrl,resources/DP.BMP,resources/DY.BMP,Door3,0.420929129,-0.013679781,1,0,0,0.6149,optionRight,70,2745,2,7,0,7,0,1,,,,,,,,,,,,,,,,,,,,,,,,,,,,,,,,,,,,,,,
,,,,,,,,2023-08-16_08h39.16.964,HF_wild_card,2022.2.4,MacIntel,60.0024001,5b126ec7c85dc400016220a4,64d2fd46c836a06233681665,64dc7d055038957636d3cdd8,,,,,,,decisionTrl,resources/DB.BMP,resources/DG.BMP,Door1,0.443284156,-0.005813105,1,0,0,0.8642,optionRight,30,2775,2,8,0,8,0,1,,,,,,,,,,,,,,,,,,,,,,,,,,,,,,,,,,,,,,,
,,,,,,,,2023-08-16_08h39.16.964,HF_wild_card,2022.2.4,MacIntel,60.0024001,5b126ec7c85dc400016220a4,64d2fd46c836a06233681665,64dc7d055038957636d3cdd8,,,,,,,decisionTrl,resources/DP.BMP,resources/DR.BMP,Door4,-0.320010405,-0.035490897,1,0,0,0.8146,optionLeft,80,2855,2,9,0,9,0,1,,,,,,,,,,,,,,,,,,,,,,,,,,,,,,,,,,,,,,,
,,,,,,,,2023-08-16_08h39.16.964,HF_wild_card,2022.2.4,MacIntel,60.0024001,5b126ec7c85dc400016220a4,64d2fd46c836a06233681665,64dc7d055038957636d3cdd8,,,,,,,sngl,resources/DR.BMP,resources/Empty.png,WildCard_NonEx,-0.318685245,-0.052028983,1,0,0,0.7632,optionLeft,45,2900,2,10,0,10,0,1,,,,,,,,,,,,,,,,,,,,,,,,,,,,,,,,,,,,,,,
,,,,,,,,2023-08-16_08h39.16.964,HF_wild_card,2022.2.4,MacIntel,60.0024001,5b126ec7c85dc400016220a4,64d2fd46c836a06233681665,64dc7d055038957636d3cdd8,,,,,,,sngl,resources/Empty.png,resources/DP.BMP,Door4,0.307135882,-0.026287667,1,0,0,0.6324,optionRight,80,2980,2,11,0,11,0,1,,,,,,,,,,,,,,,,,,,,,,,,,,,,,,,,,,,,,,,
,,,,,,,,2023-08-16_08h39.16.964,HF_wild_card,2022.2.4,MacIntel,60.0024001,5b126ec7c85dc400016220a4,64d2fd46c836a06233681665,64dc7d055038957636d3cdd8,,,,,,,ctch,resources/DG.BMP,resources/DP.BMP,Door4,0.39429455,-0.023155285,1,0,0,0.7974,optionRight,80,3060,2,12,0,12,0,1,,,,,,,,,,,,,,,,,,,,,,,,,,,,,,,,,,,,,,,
,,,,,,,,2023-08-16_08h39.16.964,HF_wild_card,2022.2.4,MacIntel,60.0024001,5b126ec7c85dc400016220a4,64d2fd46c836a06233681665,64dc7d055038957636d3cdd8,,,,,,,sngl,resources/DY.BMP,resources/Empty.png,Door3,-0.298333566,-0.003036877,1,0,0,0.7649,optionLeft,70,3130,2,13,0,13,0,1,,,,,,,,,,,,,,,,,,,,,,,,,,,,,,,,,,,,,,,
,,,,,,,,2023-08-16_08h39.16.964,HF_wild_card,2022.2.4,MacIntel,60.0024001,5b126ec7c85dc400016220a4,64d2fd46c836a06233681665,64dc7d055038957636d3cdd8,,,,,,,sngl,resources/DR.BMP,resources/Empty.png,WildCard_NonEx,-0.347826218,-0.034464983,1,0,0,0.6813,optionLeft,55,3185,2,14,0,14,0,1,,,,,,,,,,,,,,,,,,,,,,,,,,,,,,,,,,,,,,,
,,,,,,,,2023-08-16_08h39.16.964,HF_wild_card,2022.2.4,MacIntel,60.0024001,5b126ec7c85dc400016220a4,64d2fd46c836a06233681665,64dc7d055038957636d3cdd8,,,,,,,decisionTrl,resources/DG.BMP,resources/DR.BMP,WildCard_NonEx,0.43403704,0.020265997,1,0,0,2.1148,optionRight,45,3230,2,15,0,15,0,1,,,,,,,,,,,,,,,,,,,,,,,,,,,,,,,,,,,,,,,
,,,,,,,,2023-08-16_08h39.16.964,HF_wild_card,2022.2.4,MacIntel,60.0024001,5b126ec7c85dc400016220a4,64d2fd46c836a06233681665,64dc7d055038957636d3cdd8,,,,,,,decisionTrl,resources/DR.BMP,resources/DY.BMP,Door3,0.435188221,0.063026937,1,0,0,1.2311,optionRight,70,3300,2,16,0,16,0,1,,,,,,,,,,,,,,,,,,,,,,,,,,,,,,,,,,,,,,,
,,,,,,,,2023-08-16_08h39.16.964,HF_wild_card,2022.2.4,MacIntel,60.0024001,5b126ec7c85dc400016220a4,64d2fd46c836a06233681665,64dc7d055038957636d3cdd8,,,,,,,ctch,resources/DP.BMP,resources/DG.BMP,Door4,-0.304076916,-0.015263091,1,0,0,0.8178,optionLeft,80,3380,2,17,0,17,0,1,,,,,,,,,,,,,,,,,,,,,,,,,,,,,,,,,,,,,,,
,,,,,,,,2023-08-16_08h39.16.964,HF_wild_card,2022.2.4,MacIntel,60.0024001,5b126ec7c85dc400016220a4,64d2fd46c836a06233681665,64dc7d055038957636d3cdd8,,,,,,,decisionTrl,resources/DP.BMP,resources/DY.BMP,Door4,-0.325303374,-0.037269171,1,0,0,1.2305,optionLeft,80,3460,2,18,0,18,0,1,,,,,,,,,,,,,,,,,,,,,,,,,,,,,,,,,,,,,,,
,,,,,,,,2023-08-16_08h39.16.964,HF_wild_card,2022.2.4,MacIntel,60.0024001,5b126ec7c85dc400016220a4,64d2fd46c836a06233681665,64dc7d055038957636d3cdd8,,,,,,,decisionTrl,resources/DG.BMP,resources/DB.BMP,Door2,0.364693894,-0.032575102,1,0,0,1.2978,optionRight,20,3480,2,19,0,19,0,1,,,,,,,,,,,,,,,,,,,,,,,,,,,,,,,,,,,,,,,
,,,,,,,,2023-08-16_08h39.16.964,HF_wild_card,2022.2.4,MacIntel,60.0024001,5b126ec7c85dc400016220a4,64d2fd46c836a06233681665,64dc7d055038957636d3cdd8,,,,,,,decisionTrl,resources/DR.BMP,resources/DB.BMP,WildCard_NonEx,-0.35451695,-0.026405669,1,0,0,0.6315,optionLeft,45,3525,2,20,0,20,0,1,,,,,,,,,,,,,,,,,,,,,,,,,,,,,,,,,,,,,,,
,,,,,,,,2023-08-16_08h39.16.964,HF_wild_card,2022.2.4,MacIntel,60.0024001,5b126ec7c85dc400016220a4,64d2fd46c836a06233681665,64dc7d055038957636d3cdd8,,,,,,,decisionTrl,resources/DY.BMP,resources/DP.BMP,Door4,0.286893834,0.004226539,1,0,0,1.1151,optionRight,60,3585,2,21,0,21,0,1,,,,,,,,,,,,,,,,,,,,,,,,,,,,,,,,,,,,,,,
,,,,,,,,2023-08-16_08h39.16.964,HF_wild_card,2022.2.4,MacIntel,60.0024001,5b126ec7c85dc400016220a4,64d2fd46c836a06233681665,64dc7d055038957636d3cdd8,,,,,,,ctch,resources/DY.BMP,resources/DB.BMP,Door3,-0.295040574,-0.00924142,1,0,0,0.9483,optionLeft,70,3655,2,22,0,22,0,1,,,,,,,,,,,,,,,,,,,,,,,,,,,,,,,,,,,,,,,
,,,,,,,,2023-08-16_08h39.16.964,HF_wild_card,2022.2.4,MacIntel,60.0024001,5b126ec7c85dc400016220a4,64d2fd46c836a06233681665,64dc7d055038957636d3cdd8,,,,,,,sngl,resources/DG.BMP,resources/Empty.png,Door1,-0.385799096,-0.036464844,1,0,0,0.6481,optionLeft,30,3685,2,23,0,23,0,1,,,,,,,,,,,,,,,,,,,,,,,,,,,,,,,,,,,,,,,
,,,,,,,,2023-08-16_08h39.16.964,HF_wild_card,2022.2.4,MacIntel,60.0024001,5b126ec7c85dc400016220a4,64d2fd46c836a06233681665,64dc7d055038957636d3cdd8,,,,,,,decisionTrl,resources/DG.BMP,resources/DB.BMP,Door2,0.413702451,-0.004424003,1,0,0,0.7329,optionRight,20,3705,2,24,0,24,0,1,,,,,,,,,,,,,,,,,,,,,,,,,,,,,,,,,,,,,,,
,,,,,,,,2023-08-16_08h39.16.964,HF_wild_card,2022.2.4,MacIntel,60.0024001,5b126ec7c85dc400016220a4,64d2fd46c836a06233681665,64dc7d055038957636d3cdd8,,,,,,,ctch,resources/DB.BMP,resources/DY.BMP,Door3,0.373011998,0.028022287,1,0,0,0.8146,optionRight,70,3775,2,25,0,25,0,1,,,,,,,,,,,,,,,,,,,,,,,,,,,,,,,,,,,,,,,
,,,,,,,,2023-08-16_08h39.16.964,HF_wild_card,2022.2.4,MacIntel,60.0024001,5b126ec7c85dc400016220a4,64d2fd46c836a06233681665,64dc7d055038957636d3cdd8,,,,,,,decisionTrl,resources/DB.BMP,resources/DG.BMP,Door1,0.363418085,-0.0050758,1,0,0,0.7309,optionRight,30,3805,2,26,0,26,0,1,,,,,,,,,,,,,,,,,,,,,,,,,,,,,,,,,,,,,,,
,,,,,,,,2023-08-16_08h39.16.964,HF_wild_card,2022.2.4,MacIntel,60.0024001,5b126ec7c85dc400016220a4,64d2fd46c836a06233681665,64dc7d055038957636d3cdd8,,,,,,,decisionTrl,resources/DP.BMP,resources/DY.BMP,Door4,-0.384083543,-0.061255755,1,0,0,0.7478,optionLeft,60,3865,2,27,0,27,0,1,,,,,,,,,,,,,,,,,,,,,,,,,,,,,,,,,,,,,,,
,,,,,,,,2023-08-16_08h39.16.964,HF_wild_card,2022.2.4,MacIntel,60.0024001,5b126ec7c85dc400016220a4,64d2fd46c836a06233681665,64dc7d055038957636d3cdd8,,,,,,,sngl,resources/Empty.png,resources/DY.BMP,Door3,0.35476051,-0.043954613,1,0,0,0.6809,optionRight,70,3935,2,28,0,28,0,1,,,,,,,,,,,,,,,,,,,,,,,,,,,,,,,,,,,,,,,
,,,,,,,,2023-08-16_08h39.16.964,HF_wild_card,2022.2.4,MacIntel,60.0024001,5b126ec7c85dc400016220a4,64d2fd46c836a06233681665,64dc7d055038957636d3cdd8,,,,,,,ctch,resources/DP.BMP,resources/DG.BMP,Door4,-0.314237002,-0.043969436,1,0,0,0.731,optionLeft,60,3995,2,29,0,29,0,1,,,,,,,,,,,,,,,,,,,,,,,,,,,,,,,,,,,,,,,
,,,,,,,,2023-08-16_08h39.16.964,HF_wild_card,2022.2.4,MacIntel,60.0024001,5b126ec7c85dc400016220a4,64d2fd46c836a06233681665,64dc7d055038957636d3cdd8,,,,,,,ctch,resources/DG.BMP,resources/DP.BMP,Door4,0.34982573,-0.029978376,1,0,0,1.066,optionRight,60,4055,2,30,0,30,0,1,,,,,,,,,,,,,,,,,,,,,,,,,,,,,,,,,,,,,,,
,,,,,,,,2023-08-16_08h39.16.964,HF_wild_card,2022.2.4,MacIntel,60.0024001,5b126ec7c85dc400016220a4,64d2fd46c836a06233681665,64dc7d055038957636d3cdd8,,,,,,,decisionTrl,resources/DP.BMP,resources/DY.BMP,Door3,0.349792015,0.009364769,1,0,0,1.3807,optionRight,70,4125,2,31,0,31,0,1,,,,,,,,,,,,,,,,,,,,,,,,,,,,,,,,,,,,,,,
,,,,,,,,2023-08-16_08h39.16.964,HF_wild_card,2022.2.4,MacIntel,60.0024001,5b126ec7c85dc400016220a4,64d2fd46c836a06233681665,64dc7d055038957636d3cdd8,,,,,,,sngl,resources/Empty.png,resources/DR.BMP,WildCard_NonEx,0.260712426,-9.3006E-06,1,0,0,0.8982,optionRight,45,4170,2,32,0,32,0,1,,,,,,,,,,,,,,,,,,,,,,,,,,,,,,,,,,,,,,,
,,,,,,,,2023-08-16_08h39.16.964,HF_wild_card,2022.2.4,MacIntel,60.0024001,5b126ec7c85dc400016220a4,64d2fd46c836a06233681665,64dc7d055038957636d3cdd8,,,,,,,decisionTrl,resources/DG.BMP,resources/DB.BMP,Door1,-0.368831903,0.010267508,1,0,0,1.4142,optionLeft,30,4200,2,33,0,33,0,1,,,,,,,,,,,,,,,,,,,,,,,,,,,,,,,,,,,,,,,
,,,,,,,,2023-08-16_08h39.16.964,HF_wild_card,2022.2.4,MacIntel,60.0024001,5b126ec7c85dc400016220a4,64d2fd46c836a06233681665,64dc7d055038957636d3cdd8,,,,,,,decisionTrl,resources/DG.BMP,resources/DB.BMP,Door1,-0.274788063,0.000714751,1,0,0,1.2993,optionLeft,30,4230,2,34,0,34,0,1,,,,,,,,,,,,,,,,,,,,,,,,,,,,,,,,,,,,,,,
,,,,,,,,2023-08-16_08h39.16.964,HF_wild_card,2022.2.4,MacIntel,60.0024001,5b126ec7c85dc400016220a4,64d2fd46c836a06233681665,64dc7d055038957636d3cdd8,,,,,,,sngl,resources/DB.BMP,resources/Empty.png,Door2,-0.298035017,0.015300584,1,0,0,0.6969,optionLeft,20,4250,2,35,0,35,0,1,,,,,,,,,,,,,,,,,,,,,,,,,,,,,,,,,,,,,,,
,,,,,,,,2023-08-16_08h39.16.964,HF_wild_card,2022.2.4,MacIntel,60.0024001,5b126ec7c85dc400016220a4,64d2fd46c836a06233681665,64dc7d055038957636d3cdd8,,,,,,,decisionTrl,resources/DB.BMP,resources/DG.BMP,Door1,0.355495722,-0.020087774,1,0,0,0.948,optionRight,30,4280,2,36,0,36,0,1,,,,,,,,,,,,,,,,,,,,,,,,,,,,,,,,,,,,,,,
,,,,,,,,2023-08-16_08h39.16.964,HF_wild_card,2022.2.4,MacIntel,60.0024001,5b126ec7c85dc400016220a4,64d2fd46c836a06233681665,64dc7d055038957636d3cdd8,,,,,,,decisionTrl,resources/DB.BMP,resources/DG.BMP,Door1,0.446421131,-0.02833531,1,0,0,0.6314,optionRight,30,4310,2,37,0,37,0,1,,,,,,,,,,,,,,,,,,,,,,,,,,,,,,,,,,,,,,,
,,,,,,,,2023-08-16_08h39.16.964,HF_wild_card,2022.2.4,MacIntel,60.0024001,5b126ec7c85dc400016220a4,64d2fd46c836a06233681665,64dc7d055038957636d3cdd8,,,,,,,decisionTrl,resources/DY.BMP,resources/DP.BMP,Door3,-0.318048735,-0.044496838,1,0,0,1.3951,optionLeft,70,4380,2,38,0,38,0,1,,,,,,,,,,,,,,,,,,,,,,,,,,,,,,,,,,,,,,,
,,,,,,,,2023-08-16_08h39.16.964,HF_wild_card,2022.2.4,MacIntel,60.0024001,5b126ec7c85dc400016220a4,64d2fd46c836a06233681665,64dc7d055038957636d3cdd8,,,,,,,decisionTrl,resources/DB.BMP,resources/DR.BMP,WildCard_NonEx,0.245015462,-0.008408726,1,0,0,0.8648,optionRight,45,4425,2,39,0,39,0,1,,,,,,,,,,,,,,,,,,,,,,,,,,,,,,,,,,,,,,,
,,,,,,,,2023-08-16_08h39.16.964,HF_wild_card,2022.2.4,MacIntel,60.0024001,5b126ec7c85dc400016220a4,64d2fd46c836a06233681665,64dc7d055038957636d3cdd8,,,,,,,decisionTrl,resources/DR.BMP,resources/DP.BMP,Door4,0.353611537,-0.046349981,1,0,0,1.0642,optionRight,60,4485,2,40,0,40,0,1,,,,,,,,,,,,,,,,,,,,,,,,,,,,,,,,,,,,,,,
,,,,,,,,2023-08-16_08h39.16.964,HF_wild_card,2022.2.4,MacIntel,60.0024001,5b126ec7c85dc400016220a4,64d2fd46c836a06233681665,64dc7d055038957636d3cdd8,,,,,,,decisionTrl,resources/DR.BMP,resources/DG.BMP,WildCard_NonEx,-0.308088902,-0.004166144,1,0,0,1.3471,optionLeft,45,4530,2,41,0,41,0,1,,,,,,,,,,,,,,,,,,,,,,,,,,,,,,,,,,,,,,,
,,,,,,,,2023-08-16_08h39.16.964,HF_wild_card,2022.2.4,MacIntel,60.0024001,5b126ec7c85dc400016220a4,64d2fd46c836a06233681665,64dc7d055038957636d3cdd8,,,,,,,decisionTrl,resources/DY.BMP,resources/DR.BMP,Door3,-0.291421712,0.008705822,1,0,0,1.1808,optionLeft,70,4600,2,42,0,42,0,1,,,,,,,,,,,,,,,,,,,,,,,,,,,,,,,,,,,,,,,
,,,,,,,,2023-08-16_08h39.16.964,HF_wild_card,2022.2.4,MacIntel,60.0024001,5b126ec7c85dc400016220a4,64d2fd46c836a06233681665,64dc7d055038957636d3cdd8,,,,,,,decisionTrl,resources/DY.BMP,resources/DP.BMP,Door4,0.316615397,0.049578828,1,0,0,1.6987,optionRight,80,4680,2,43,0,43,0,1,,,,,,,,,,,,,,,,,,,,,,,,,,,,,,,,,,,,,,,
,,,,,,,,2023-08-16_08h39.16.964,HF_wild_card,2022.2.4,MacIntel,60.0024001,5b126ec7c85dc400016220a4,64d2fd46c836a06233681665,64dc7d055038957636d3cdd8,,,,,,,,,,,,,,,,,,,,,,,,,,1,0,1,0,1,,,,,,,,,,,,,,,,,,,,,,,,,,,,,,,,,,
,,,,,,,,2023-08-16_08h39.16.964,HF_wild_card,2022.2.4,MacIntel,60.0024001,5b126ec7c85dc400016220a4,64d2fd46c836a06233681665,64dc7d055038957636d3cdd8,,,,,,,ctch,resources/DY.BMP,resources/DB.BMP,Door3,-0.360958775,-0.088104306,1,0,0,2.0213,optionLeft,70,4750,3,0,0,0,0,1,,,,,,,,,,,,,,,,,,,,,,,,,,,,,,,,,,,,,,,
,,,,,,,,2023-08-16_08h39.16.964,HF_wild_card,2022.2.4,MacIntel,60.0024001,5b126ec7c85dc400016220a4,64d2fd46c836a06233681665,64dc7d055038957636d3cdd8,,,,,,,decisionTrl,resources/DB.BMP,resources/DR.BMP,WildCard_NonEx,0.409416853,-0.046014462,1,0,0,1.7935,optionRight,45,4795,3,1,0,1,0,1,,,,,,,,,,,,,,,,,,,,,,,,,,,,,,,,,,,,,,,
,,,,,,,,2023-08-16_08h39.16.964,HF_wild_card,2022.2.4,MacIntel,60.0024001,5b126ec7c85dc400016220a4,64d2fd46c836a06233681665,64dc7d055038957636d3cdd8,,,,,,,ctch,resources/DG.BMP,resources/DP.BMP,Door4,0.387038225,-0.010344936,1,0,0,0.9808,optionRight,80,4875,3,2,0,2,0,1,,,,,,,,,,,,,,,,,,,,,,,,,,,,,,,,,,,,,,,
,,,,,,,,2023-08-16_08h39.16.964,HF_wild_card,2022.2.4,MacIntel,60.0024001,5b126ec7c85dc400016220a4,64d2fd46c836a06233681665,64dc7d055038957636d3cdd8,,,,,,,decisionTrl,resources/DP.BMP,resources/DY.BMP,Door4,-0.276259417,-0.022252488,1,0,0,0.7817,optionLeft,80,4955,3,3,0,3,0,1,,,,,,,,,,,,,,,,,,,,,,,,,,,,,,,,,,,,,,,
,,,,,,,,2023-08-16_08h39.16.964,HF_wild_card,2022.2.4,MacIntel,60.0024001,5b126ec7c85dc400016220a4,64d2fd46c836a06233681665,64dc7d055038957636d3cdd8,,,,,,,decisionTrl,resources/DG.BMP,resources/DB.BMP,Door1,-0.28447905,0.011440081,1,0,0,1.1479,optionLeft,30,4985,3,4,0,4,0,1,,,,,,,,,,,,,,,,,,,,,,,,,,,,,,,,,,,,,,,
,,,,,,,,2023-08-16_08h39.16.964,HF_wild_card,2022.2.4,MacIntel,60.0024001,5b126ec7c85dc400016220a4,64d2fd46c836a06233681665,64dc7d055038957636d3cdd8,,,,,,,ctch,resources/DP.BMP,resources/DG.BMP,Door4,-0.336128278,-0.02139974,1,0,0,0.9307,optionLeft,80,5065,3,5,0,5,0,1,,,,,,,,,,,,,,,,,,,,,,,,,,,,,,,,,,,,,,,
,,,,,,,,2023-08-16_08h39.16.964,HF_wild_card,2022.2.4,MacIntel,60.0024001,5b126ec7c85dc400016220a4,64d2fd46c836a06233681665,64dc7d055038957636d3cdd8,,,,,,,sngl,resources/DR.BMP,resources/Empty.png,WildCard_NonEx,-0.307759254,-0.014054653,1,0,0,0.7478,optionLeft,55,5120,3,6,0,6,0,1,,,,,,,,,,,,,,,,,,,,,,,,,,,,,,,,,,,,,,,
,,,,,,,,2023-08-16_08h39.16.964,HF_wild_card,2022.2.4,MacIntel,60.0024001,5b126ec7c85dc400016220a4,64d2fd46c836a06233681665,64dc7d055038957636d3cdd8,,,,,,,ctch,resources/DG.BMP,resources/DP.BMP,Door4,0.388627,0.003891311,1,0,0,1.165,optionRight,80,5200,3,7,0,7,0,1,,,,,,,,,,,,,,,,,,,,,,,,,,,,,,,,,,,,,,,
,,,,,,,,2023-08-16_08h39.16.964,HF_wild_card,2022.2.4,MacIntel,60.0024001,5b126ec7c85dc400016220a4,64d2fd46c836a06233681665,64dc7d055038957636d3cdd8,,,,,,,decisionTrl,resources/DB.BMP,resources/DG.BMP,Door1,0.339202241,-0.029019368,1,0,0,0.8133,optionRight,30,5230,3,8,0,8,0,1,,,,,,,,,,,,,,,,,,,,,,,,,,,,,,,,,,,,,,,
,,,,,,,,2023-08-16_08h39.16.964,HF_wild_card,2022.2.4,MacIntel,60.0024001,5b126ec7c85dc400016220a4,64d2fd46c836a06233681665,64dc7d055038957636d3cdd8,,,,,,,sngl,resources/DR.BMP,resources/Empty.png,WildCard_NonEx,-0.288491211,-0.02423584,1,0,0,1.4642,optionLeft,45,5275,3,9,0,9,0,1,,,,,,,,,,,,,,,,,,,,,,,,,,,,,,,,,,,,,,,
,,,,,,,,2023-08-16_08h39.16.964,HF_wild_card,2022.2.4,MacIntel,60.0024001,5b126ec7c85dc400016220a4,64d2fd46c836a06233681665,64dc7d055038957636d3cdd8,,,,,,,sngl,resources/Empty.png,resources/DP.BMP,Door4,0.352556036,-0.003542132,1,0,0,0.7138,optionRight,60,5335,3,10,0,10,0,1,,,,,,,,,,,,,,,,,,,,,,,,,,,,,,,,,,,,,,,
,,,,,,,,2023-08-16_08h39.16.964,HF_wild_card,2022.2.4,MacIntel,60.0024001,5b126ec7c85dc400016220a4,64d2fd46c836a06233681665,64dc7d055038957636d3cdd8,,,,,,,decisionTrl,resources/DP.BMP,resources/DR.BMP,Door4,-0.329006638,-0.014570196,1,0,0,0.8134,optionLeft,60,5395,3,11,0,11,0,1,,,,,,,,,,,,,,,,,,,,,,,,,,,,,,,,,,,,,,,
,,,,,,,,2023-08-16_08h39.16.964,HF_wild_card,2022.2.4,MacIntel,60.0024001,5b126ec7c85dc400016220a4,64d2fd46c836a06233681665,64dc7d055038957636d3cdd8,,,,,,,decisionTrl,resources/DR.BMP,resources/DY.BMP,Door3,0.448144996,-0.000609073,1,0,0,1.1985,optionRight,70,5465,3,12,0,12,0,1,,,,,,,,,,,,,,,,,,,,,,,,,,,,,,,,,,,,,,,
,,,,,,,,2023-08-16_08h39.16.964,HF_wild_card,2022.2.4,MacIntel,60.0024001,5b126ec7c85dc400016220a4,64d2fd46c836a06233681665,64dc7d055038957636d3cdd8,,,,,,,sngl,resources/DG.BMP,resources/Empty.png,Door1,-0.41169079,0.054808698,1,0,0,0.6144,optionLeft,30,5495,3,13,0,13,0,1,,,,,,,,,,,,,,,,,,,,,,,,,,,,,,,,,,,,,,,
,,,,,,,,2023-08-16_08h39.16.964,HF_wild_card,2022.2.4,MacIntel,60.0024001,5b126ec7c85dc400016220a4,64d2fd46c836a06233681665,64dc7d055038957636d3cdd8,,,,,,,decisionTrl,resources/DP.BMP,resources/DY.BMP,Door3,0.305839146,0.021507103,1,0,0,3.6228,optionRight,70,5565,3,14,0,14,0,1,,,,,,,,,,,,,,,,,,,,,,,,,,,,,,,,,,,,,,,
,,,,,,,,2023-08-16_08h39.16.964,HF_wild_card,2022.2.4,MacIntel,60.0024001,5b126ec7c85dc400016220a4,64d2fd46c836a06233681665,64dc7d055038957636d3cdd8,,,,,,,sngl,resources/Empty.png,resources/DB.BMP,Door2,0.305888091,-0.068951242,1,0,0,0.7135,optionRight,20,5585,3,15,0,15,0,1,,,,,,,,,,,,,,,,,,,,,,,,,,,,,,,,,,,,,,,
,,,,,,,,2023-08-16_08h39.16.964,HF_wild_card,2022.2.4,MacIntel,60.0024001,5b126ec7c85dc400016220a4,64d2fd46c836a06233681665,64dc7d055038957636d3cdd8,,,,,,,decisionTrl,resources/DB.BMP,resources/DG.BMP,Door1,0.435324242,-0.013002465,1,0,0,0.8719,optionRight,30,5615,3,16,0,16,0,1,,,,,,,,,,,,,,,,,,,,,,,,,,,,,,,,,,,,,,,
,,,,,,,,2023-08-16_08h39.16.964,HF_wild_card,2022.2.4,MacIntel,60.0024001,5b126ec7c85dc400016220a4,64d2fd46c836a06233681665,64dc7d055038957636d3cdd8,,,,,,,decisionTrl,resources/DY.BMP,resources/DP.BMP,Door3,-0.284617397,0.012622158,1,0,0,1.7642,optionLeft,70,5685,3,17,0,17,0,1,,,,,,,,,,,,,,,,,,,,,,,,,,,,,,,,,,,,,,,
,,,,,,,,2023-08-16_08h39.16.964,HF_wild_card,2022.2.4,MacIntel,60.0024001,5b126ec7c85dc400016220a4,64d2fd46c836a06233681665,64dc7d055038957636d3cdd8,,,,,,,sngl,resources/DB.BMP,resources/Empty.png,Door2,-0.308252302,0.013581805,1,0,0,0.6639,optionLeft,40,5725,3,18,0,18,0,1,,,,,,,,,,,,,,,,,,,,,,,,,,,,,,,,,,,,,,,
,,,,,,,,2023-08-16_08h39.16.964,HF_wild_card,2022.2.4,MacIntel,60.0024001,5b126ec7c85dc400016220a4,64d2fd46c836a06233681665,64dc7d055038957636d3cdd8,,,,,,,decisionTrl,resources/DB.BMP,resources/DG.BMP,Door2,-0.268100121,-0.010903437,1,0,0,1.3646,optionLeft,20,5745,3,19,0,19,0,1,,,,,,,,,,,,,,,,,,,,,,,,,,,,,,,,,,,,,,,
,,,,,,,,2023-08-16_08h39.16.964,HF_wild_card,2022.2.4,MacIntel,60.0024001,5b126ec7c85dc400016220a4,64d2fd46c836a06233681665,64dc7d055038957636d3cdd8,,,,,,,sngl,resources/DP.BMP,resources/Empty.png,Door4,-0.351112991,-0.009951172,1,0,0,0.6968,optionLeft,80,5825,3,20,0,20,0,1,,,,,,,,,,,,,,,,,,,,,,,,,,,,,,,,,,,,,,,
,,,,,,,,2023-08-16_08h39.16.964,HF_wild_card,2022.2.4,MacIntel,60.0024001,5b126ec7c85dc400016220a4,64d2fd46c836a06233681665,64dc7d055038957636d3cdd8,,,,,,,decisionTrl,resources/DB.BMP,resources/DG.BMP,Door1,0.407737281,-0.010825718,1,0,0,0.797,optionRight,30,5855,3,21,0,21,0,1,,,,,,,,,,,,,,,,,,,,,,,,,,,,,,,,,,,,,,,
,,,,,,,,2023-08-16_08h39.16.964,HF_wild_card,2022.2.4,MacIntel,60.0024001,5b126ec7c85dc400016220a4,64d2fd46c836a06233681665,64dc7d055038957636d3cdd8,,,,,,,decisionTrl,resources/DY.BMP,resources/DP.BMP,Door4,0.406966146,-0.049368606,1,0,0,0.7474,optionRight,80,5935,3,22,0,22,0,1,,,,,,,,,,,,,,,,,,,,,,,,,,,,,,,,,,,,,,,
,,,,,,,,2023-08-16_08h39.16.964,HF_wild_card,2022.2.4,MacIntel,60.0024001,5b126ec7c85dc400016220a4,64d2fd46c836a06233681665,64dc7d055038957636d3cdd8,,,,,,,decisionTrl,resources/DG.BMP,resources/DB.BMP,Door1,-0.308550618,0.014975935,1,0,0,0.9476,optionLeft,30,5965,3,23,0,23,0,1,,,,,,,,,,,,,,,,,,,,,,,,,,,,,,,,,,,,,,,
,,,,,,,,2023-08-16_08h39.16.964,HF_wild_card,2022.2.4,MacIntel,60.0024001,5b126ec7c85dc400016220a4,64d2fd46c836a06233681665,64dc7d055038957636d3cdd8,,,,,,,decisionTrl,resources/DY.BMP,resources/DP.BMP,Door4,0.4269365,-0.022119373,1,0,0,1.4304,optionRight,60,6025,3,24,0,24,0,1,,,,,,,,,,,,,,,,,,,,,,,,,,,,,,,,,,,,,,,
,,,,,,,,2023-08-16_08h39.16.964,HF_wild_card,2022.2.4,MacIntel,60.0024001,5b126ec7c85dc400016220a4,64d2fd46c836a06233681665,64dc7d055038957636d3cdd8,,,,,,,decisionTrl,resources/DR.BMP,resources/DP.BMP,Door4,0.319464751,-0.042367234,1,0,0,1.198,optionRight,60,6085,3,25,0,25,0,1,,,,,,,,,,,,,,,,,,,,,,,,,,,,,,,,,,,,,,,
,,,,,,,,2023-08-16_08h39.16.964,HF_wild_card,2022.2.4,MacIntel,60.0024001,5b126ec7c85dc400016220a4,64d2fd46c836a06233681665,64dc7d055038957636d3cdd8,,,,,,,sngl,resources/Empty.png,resources/DG.BMP,Door1,0.310722424,-0.034879034,1,0,0,1.1478,optionRight,30,6115,3,26,0,26,0,1,,,,,,,,,,,,,,,,,,,,,,,,,,,,,,,,,,,,,,,
,,,,,,,,2023-08-16_08h39.16.964,HF_wild_card,2022.2.4,MacIntel,60.0024001,5b126ec7c85dc400016220a4,64d2fd46c836a06233681665,64dc7d055038957636d3cdd8,,,,,,,sngl,resources/DY.BMP,resources/Empty.png,Door3,-0.345582915,-0.007705601,1,0,0,0.6307,optionLeft,70,6185,3,27,0,27,0,1,,,,,,,,,,,,,,,,,,,,,,,,,,,,,,,,,,,,,,,
,,,,,,,,2023-08-16_08h39.16.964,HF_wild_card,2022.2.4,MacIntel,60.0024001,5b126ec7c85dc400016220a4,64d2fd46c836a06233681665,64dc7d055038957636d3cdd8,,,,,,,sngl,resources/Empty.png,resources/DY.BMP,Door3,0.317377348,0.002118559,1,0,0,0.548,optionRight,70,6255,3,28,0,28,0,1,,,,,,,,,,,,,,,,,,,,,,,,,,,,,,,,,,,,,,,
,,,,,,,,2023-08-16_08h39.16.964,HF_wild_card,2022.2.4,MacIntel,60.0024001,5b126ec7c85dc400016220a4,64d2fd46c836a06233681665,64dc7d055038957636d3cdd8,,,,,,,decisionTrl,resources/DG.BMP,resources/DR.BMP,WildCard_NonEx,0.311905459,-0.030061907,1,0,0,1.1301,optionRight,45,6300,3,29,0,29,0,1,,,,,,,,,,,,,,,,,,,,,,,,,,,,,,,,,,,,,,,
,,,,,,,,2023-08-16_08h39.16.964,HF_wild_card,2022.2.4,MacIntel,60.0024001,5b126ec7c85dc400016220a4,64d2fd46c836a06233681665,64dc7d055038957636d3cdd8,,,,,,,sngl,resources/Empty.png,resources/DR.BMP,WildCard_NonEx,0.401138625,0.034165446,1,0,0,0.6325,optionRight,55,6355,3,30,0,30,0,1,,,,,,,,,,,,,,,,,,,,,,,,,,,,,,,,,,,,,,,
,,,,,,,,2023-08-16_08h39.16.964,HF_wild_card,2022.2.4,MacIntel,60.0024001,5b126ec7c85dc400016220a4,64d2fd46c836a06233681665,64dc7d055038957636d3cdd8,,,,,,,ctch,resources/DB.BMP,resources/DY.BMP,Door3,0.205959938,-0.021252848,1,0,0,1.2479,optionRight,70,6425,3,31,0,31,0,1,,,,,,,,,,,,,,,,,,,,,,,,,,,,,,,,,,,,,,,
,,,,,,,,2023-08-16_08h39.16.964,HF_wild_card,2022.2.4,MacIntel,60.0024001,5b126ec7c85dc400016220a4,64d2fd46c836a06233681665,64dc7d055038957636d3cdd8,,,,,,,ctch,resources/DY.BMP,resources/DB.BMP,Door3,-0.242127279,-0.023218878,1,0,0,0.9311,optionLeft,70,6495,3,32,0,32,0,1,,,,,,,,,,,,,,,,,,,,,,,,,,,,,,,,,,,,,,,
,,,,,,,,2023-08-16_08h39.16.964,HF_wild_card,2022.2.4,MacIntel,60.0024001,5b126ec7c85dc400016220a4,64d2fd46c836a06233681665,64dc7d055038957636d3cdd8,,,,,,,decisionTrl,resources/DP.BMP,resources/DY.BMP,Door3,0.389322219,-0.006588077,1,0,0,2.5804,optionRight,70,6565,3,33,0,33,0,1,,,,,,,,,,,,,,,,,,,,,,,,,,,,,,,,,,,,,,,
,,,,,,,,2023-08-16_08h39.16.964,HF_wild_card,2022.2.4,MacIntel,60.0024001,5b126ec7c85dc400016220a4,64d2fd46c836a06233681665,64dc7d055038957636d3cdd8,,,,,,,ctch,resources/DB.BMP,resources/DY.BMP,Door3,0.348267532,-0.02224621,1,0,0,0.9312,optionRight,70,6635,3,34,0,34,0,1,,,,,,,,,,,,,,,,,,,,,,,,,,,,,,,,,,,,,,,
,,,,,,,,2023-08-16_08h39.16.964,HF_wild_card,2022.2.4,MacIntel,60.0024001,5b126ec7c85dc400016220a4,64d2fd46c836a06233681665,64dc7d055038957636d3cdd8,,,,,,,ctch,resources/DP.BMP,resources/DG.BMP,Door4,-0.425009533,0.003410703,1,0,0,1.5978,optionLeft,60,6695,3,35,0,35,0,1,,,,,,,,,,,,,,,,,,,,,,,,,,,,,,,,,,,,,,,
,,,,,,,,2023-08-16_08h39.16.964,HF_wild_card,2022.2.4,MacIntel,60.0024001,5b126ec7c85dc400016220a4,64d2fd46c836a06233681665,64dc7d055038957636d3cdd8,,,,,,,decisionTrl,resources/DY.BMP,resources/DR.BMP,Door3,-0.26804641,-0.000407192,1,0,0,1.3813,optionLeft,70,6765,3,36,0,36,0,1,,,,,,,,,,,,,,,,,,,,,,,,,,,,,,,,,,,,,,,
,,,,,,,,2023-08-16_08h39.16.964,HF_wild_card,2022.2.4,MacIntel,60.0024001,5b126ec7c85dc400016220a4,64d2fd46c836a06233681665,64dc7d055038957636d3cdd8,,,,,,,decisionTrl,resources/DG.BMP,resources/DB.BMP,Door1,-0.380934826,0.052903094,1,0,0,11.9312,optionLeft,30,6795,3,37,0,37,0,1,,,,,,,,,,,,,,,,,,,,,,,,,,,,,,,,,,,,,,,
,,,,,,,,2023-08-16_08h39.16.964,HF_wild_card,2022.2.4,MacIntel,60.0024001,5b126ec7c85dc400016220a4,64d2fd46c836a06233681665,64dc7d055038957636d3cdd8,,,,,,,decisionTrl,resources/DR.BMP,resources/DB.BMP,WildCard_NonEx,-0.30771868,-0.038336879,1,0,0,0.7654,optionLeft,45,6840,3,38,0,38,0,1,,,,,,,,,,,,,,,,,,,,,,,,,,,,,,,,,,,,,,,
,,,,,,,,2023-08-16_08h39.16.964,HF_wild_card,2022.2.4,MacIntel,60.0024001,5b126ec7c85dc400016220a4,64d2fd46c836a06233681665,64dc7d055038957636d3cdd8,,,,,,,decisionTrl,resources/DG.BMP,resources/DB.BMP,Door1,-0.320334298,0.01294544,1,0,0,1.0982,optionLeft,30,6870,3,39,0,39,0,1,,,,,,,,,,,,,,,,,,,,,,,,,,,,,,,,,,,,,,,
,,,,,,,,2023-08-16_08h39.16.964,HF_wild_card,2022.2.4,MacIntel,60.0024001,5b126ec7c85dc400016220a4,64d2fd46c836a06233681665,64dc7d055038957636d3cdd8,,,,,,,decisionTrl,resources/DR.BMP,resources/DG.BMP,WildCard_NonEx,-0.302809768,-0.052100598,1,0,0,1.6979,optionLeft,55,6925,3,40,0,40,0,1,,,,,,,,,,,,,,,,,,,,,,,,,,,,,,,,,,,,,,,
,,,,,,,,2023-08-16_08h39.16.964,HF_wild_card,2022.2.4,MacIntel,60.0024001,5b126ec7c85dc400016220a4,64d2fd46c836a06233681665,64dc7d055038957636d3cdd8,,,,,,,decisionTrl,resources/DP.BMP,resources/DY.BMP,Door3,0.362481166,-0.001829078,1,0,0,1.3153,optionRight,70,6995,3,41,0,41,0,1,,,,,,,,,,,,,,,,,,,,,,,,,,,,,,,,,,,,,,,
,,,,,,,,2023-08-16_08h39.16.964,HF_wild_card,2022.2.4,MacIntel,60.0024001,5b126ec7c85dc400016220a4,64d2fd46c836a06233681665,64dc7d055038957636d3cdd8,,,,,,,sngl,resources/Empty.png,resources/DR.BMP,WildCard_NonEx,0.38687686,-0.00300415,1,0,0,0.7153,optionRight,45,7040,3,42,0,42,0,1,,,,,,,,,,,,,,,,,,,,,,,,,,,,,,,,,,,,,,,
,,,,,,,,2023-08-16_08h39.16.964,HF_wild_card,2022.2.4,MacIntel,60.0024001,5b126ec7c85dc400016220a4,64d2fd46c836a06233681665,64dc7d055038957636d3cdd8,,,,,,,decisionTrl,resources/DY.BMP,resources/DP.BMP,Door4,0.361010161,-0.003425932,1,0,0,0.7981,optionRight,80,7120,3,43,0,43,0,1,,,,,,,,,,,,,,,,,,,,,,,,,,,,,,,,,,,,,,,
,,,,,,,,2023-08-16_08h39.16.964,HF_wild_card,2022.2.4,MacIntel,60.0024001,5b126ec7c85dc400016220a4,64d2fd46c836a06233681665,64dc7d055038957636d3cdd8,,,,,,,,,,,,,,,,,,,,,,,,,,2,0,2,0,1,,,,,,,,,,,,,,,,,,,,,,,,,,,,,,,,,,
,,,,,,,,2023-08-16_08h39.16.964,HF_wild_card,2022.2.4,MacIntel,60.0024001,5b126ec7c85dc400016220a4,64d2fd46c836a06233681665,64dc7d055038957636d3cdd8,,,,,,,decisionTrl,resources/DP.BMP,resources/DBN.BMP,WildCard_Ex,0.354815267,-0.026320859,1,0,0,3.1367,optionRight,45,7165,4,0,0,0,0,1,,,,,,,,,,,,,,,,,,,,,,,,,,,,,,,,,,,,,,,
,,,,,,,,2023-08-16_08h39.16.964,HF_wild_card,2022.2.4,MacIntel,60.0024001,5b126ec7c85dc400016220a4,64d2fd46c836a06233681665,64dc7d055038957636d3cdd8,,,,,,,decisionTrl,resources/DB.BMP,resources/DG.BMP,Door1,0.281251395,0.05439116,1,0,0,0.9815,optionRight,30,7195,4,1,0,1,0,1,,,,,,,,,,,,,,,,,,,,,,,,,,,,,,,,,,,,,,,
,,,,,,,,2023-08-16_08h39.16.964,HF_wild_card,2022.2.4,MacIntel,60.0024001,5b126ec7c85dc400016220a4,64d2fd46c836a06233681665,64dc7d055038957636d3cdd8,,,,,,,sngl,resources/DBN.BMP,resources/Empty.png,WildCard_Ex,-0.320650635,-0.012230399,1,0,0,0.6845,optionLeft,55,7250,4,2,0,2,0,1,,,,,,,,,,,,,,,,,,,,,,,,,,,,,,,,,,,,,,,
,,,,,,,,2023-08-16_08h39.16.964,HF_wild_card,2022.2.4,MacIntel,60.0024001,5b126ec7c85dc400016220a4,64d2fd46c836a06233681665,64dc7d055038957636d3cdd8,,,,,,,decisionTrl,resources/DY.BMP,resources/DP.BMP,Door4,0.283283924,-0.003378441,1,0,0,1.047,optionRight,80,7330,4,3,0,3,0,1,,,,,,,,,,,,,,,,,,,,,,,,,,,,,,,,,,,,,,,
,,,,,,,,2023-08-16_08h39.16.964,HF_wild_card,2022.2.4,MacIntel,60.0024001,5b126ec7c85dc400016220a4,64d2fd46c836a06233681665,64dc7d055038957636d3cdd8,,,,,,,ctch,resources/DG.BMP,resources/DP.BMP,Door4,0.410667783,-0.000582217,1,0,0,0.8316,optionRight,80,7410,4,4,0,4,0,1,,,,,,,,,,,,,,,,,,,,,,,,,,,,,,,,,,,,,,,
,,,,,,,,2023-08-16_08h39.16.964,HF_wild_card,2022.2.4,MacIntel,60.0024001,5b126ec7c85dc400016220a4,64d2fd46c836a06233681665,64dc7d055038957636d3cdd8,,,,,,,decisionTrl,resources/DY.BMP,resources/DP.BMP,Door4,0.421269066,-0.070161307,1,0,0,0.7143,optionRight,80,7490,4,5,0,5,0,1,,,,,,,,,,,,,,,,,,,,,,,,,,,,,,,,,,,,,,,
,,,,,,,,2023-08-16_08h39.16.964,HF_wild_card,2022.2.4,MacIntel,60.0024001,5b126ec7c85dc400016220a4,64d2fd46c836a06233681665,64dc7d055038957636d3cdd8,,,,,,,decisionTrl,resources/DB.BMP,resources/DG.BMP,Door1,0.366675153,-0.013336356,1,0,0,0.7982,optionRight,30,7520,4,6,0,6,0,1,,,,,,,,,,,,,,,,,,,,,,,,,,,,,,,,,,,,,,,
,,,,,,,,2023-08-16_08h39.16.964,HF_wild_card,2022.2.4,MacIntel,60.0024001,5b126ec7c85dc400016220a4,64d2fd46c836a06233681665,64dc7d055038957636d3cdd8,,,,,,,sngl,resources/Empty.png,resources/DP.BMP,Door4,0.371672131,-0.023143369,1,0,0,0.6818,optionRight,80,7600,4,7,0,7,0,1,,,,,,,,,,,,,,,,,,,,,,,,,,,,,,,,,,,,,,,
,,,,,,,,2023-08-16_08h39.16.964,HF_wild_card,2022.2.4,MacIntel,60.0024001,5b126ec7c85dc400016220a4,64d2fd46c836a06233681665,64dc7d055038957636d3cdd8,,,,,,,ctch,resources/DP.BMP,resources/DG.BMP,Door4,-0.333018741,-0.028210565,1,0,0,0.7812,optionLeft,80,7680,4,8,0,8,0,1,,,,,,,,,,,,,,,,,,,,,,,,,,,,,,,,,,,,,,,
,,,,,,,,2023-08-16_08h39.16.964,HF_wild_card,2022.2.4,MacIntel,60.0024001,5b126ec7c85dc400016220a4,64d2fd46c836a06233681665,64dc7d055038957636d3cdd8,,,,,,,decisionTrl,resources/DG.BMP,resources/DB.BMP,Door1,-0.392144892,-0.046447521,1,0,0,1.0489,optionLeft,30,7710,4,9,0,9,0,1,,,,,,,,,,,,,,,,,,,,,,,,,,,,,,,,,,,,,,,
,,,,,,,,2023-08-16_08h39.16.964,HF_wild_card,2022.2.4,MacIntel,60.0024001,5b126ec7c85dc400016220a4,64d2fd46c836a06233681665,64dc7d055038957636d3cdd8,,,,,,,decisionTrl,resources/DG.BMP,resources/DB.BMP,Door1,-0.365363595,-0.050205427,1,0,0,0.6807,optionLeft,30,7740,4,10,0,10,0,1,,,,,,,,,,,,,,,,,,,,,,,,,,,,,,,,,,,,,,,
,,,,,,,,2023-08-16_08h39.16.964,HF_wild_card,2022.2.4,MacIntel,60.0024001,5b126ec7c85dc400016220a4,64d2fd46c836a06233681665,64dc7d055038957636d3cdd8,,,,,,,decisionTrl,resources/DG.BMP,resources/DBN.BMP,Door1,-0.341868984,0.013488711,1,0,0,1.3304,optionLeft,30,7770,4,11,0,11,0,1,,,,,,,,,,,,,,,,,,,,,,,,,,,,,,,,,,,,,,,
,,,,,,,,2023-08-16_08h39.16.964,HF_wild_card,2022.2.4,MacIntel,60.0024001,5b126ec7c85dc400016220a4,64d2fd46c836a06233681665,64dc7d055038957636d3cdd8,,,,,,,sngl,resources/DBN.BMP,resources/Empty.png,WildCard_Ex,-0.271578195,0.024852876,1,0,0,0.6474,optionLeft,45,7815,4,12,0,12,0,1,,,,,,,,,,,,,,,,,,,,,,,,,,,,,,,,,,,,,,,
,,,,,,,,2023-08-16_08h39.16.964,HF_wild_card,2022.2.4,MacIntel,60.0024001,5b126ec7c85dc400016220a4,64d2fd46c836a06233681665,64dc7d055038957636d3cdd8,,,,,,,ctch,resources/DY.BMP,resources/DB.BMP,Door3,-0.35007144,0.042262835,1,0,0,1.2641,optionLeft,70,7885,4,13,0,13,0,1,,,,,,,,,,,,,,,,,,,,,,,,,,,,,,,,,,,,,,,
,,,,,,,,2023-08-16_08h39.16.964,HF_wild_card,2022.2.4,MacIntel,60.0024001,5b126ec7c85dc400016220a4,64d2fd46c836a06233681665,64dc7d055038957636d3cdd8,,,,,,,sngl,resources/DB.BMP,resources/Empty.png,Door2,-0.27945359,-0.000265183,1,0,0,0.7973,optionLeft,20,7905,4,14,0,14,0,1,,,,,,,,,,,,,,,,,,,,,,,,,,,,,,,,,,,,,,,
,,,,,,,,2023-08-16_08h39.16.964,HF_wild_card,2022.2.4,MacIntel,60.0024001,5b126ec7c85dc400016220a4,64d2fd46c836a06233681665,64dc7d055038957636d3cdd8,,,,,,,decisionTrl,resources/DB.BMP,resources/DG.BMP,Door1,0.356344517,0.006098226,1,0,0,0.8643,optionRight,30,7935,4,15,0,15,0,1,,,,,,,,,,,,,,,,,,,,,,,,,,,,,,,,,,,,,,,
,,,,,,,,2023-08-16_08h39.16.964,HF_wild_card,2022.2.4,MacIntel,60.0024001,5b126ec7c85dc400016220a4,64d2fd46c836a06233681665,64dc7d055038957636d3cdd8,,,,,,,sngl,resources/DY.BMP,resources/Empty.png,Door3,-0.311636498,-0.003920201,1,0,0,0.5816,optionLeft,70,8005,4,16,0,16,0,1,,,,,,,,,,,,,,,,,,,,,,,,,,,,,,,,,,,,,,,
,,,,,,,,2023-08-16_08h39.16.964,HF_wild_card,2022.2.4,MacIntel,60.0024001,5b126ec7c85dc400016220a4,64d2fd46c836a06233681665,64dc7d055038957636d3cdd8,,,,,,,decisionTrl,resources/DY.BMP,resources/DP.BMP,Door4,0.370048131,-0.016151007,1,0,0,1.1143,optionRight,80,8085,4,17,0,17,0,1,,,,,,,,,,,,,,,,,,,,,,,,,,,,,,,,,,,,,,,
,,,,,,,,2023-08-16_08h39.16.964,HF_wild_card,2022.2.4,MacIntel,60.0024001,5b126ec7c85dc400016220a4,64d2fd46c836a06233681665,64dc7d055038957636d3cdd8,,,,,,,sngl,resources/Empty.png,resources/DBN.BMP,WildCard_Ex,0.398497838,0.024272548,1,0,0,1.0989,optionRight,45,8130,4,18,0,18,0,1,,,,,,,,,,,,,,,,,,,,,,,,,,,,,,,,,,,,,,,
,,,,,,,,2023-08-16_08h39.16.964,HF_wild_card,2022.2.4,MacIntel,60.0024001,5b126ec7c85dc400016220a4,64d2fd46c836a06233681665,64dc7d055038957636d3cdd8,,,,,,,decisionTrl,resources/DBN.BMP,resources/DY.BMP,Door3,0.371740955,-0.003542539,1,0,0,1.4823,optionRight,70,8200,4,19,0,19,0,1,,,,,,,,,,,,,,,,,,,,,,,,,,,,,,,,,,,,,,,
,,,,,,,,2023-08-16_08h39.16.964,HF_wild_card,2022.2.4,MacIntel,60.0024001,5b126ec7c85dc400016220a4,64d2fd46c836a06233681665,64dc7d055038957636d3cdd8,,,,,,,ctch,resources/DB.BMP,resources/DY.BMP,Door3,0.386736189,-0.030028367,1,0,0,0.8481,optionRight,70,8270,4,20,0,20,0,1,,,,,,,,,,,,,,,,,,,,,,,,,,,,,,,,,,,,,,,
,,,,,,,,2023-08-16_08h39.16.964,HF_wild_card,2022.2.4,MacIntel,60.0024001,5b126ec7c85dc400016220a4,64d2fd46c836a06233681665,64dc7d055038957636d3cdd8,,,,,,,decisionTrl,resources/DBN.BMP,resources/DG.BMP,WildCard_Ex,-0.280360979,0.044757661,1,0,0,2.0991,optionLeft,55,8325,4,21,0,21,0,1,,,,,,,,,,,,,,,,,,,,,,,,,,,,,,,,,,,,,,,
,,,,,,,,2023-08-16_08h39.16.964,HF_wild_card,2022.2.4,MacIntel,60.0024001,5b126ec7c85dc400016220a4,64d2fd46c836a06233681665,64dc7d055038957636d3cdd8,,,,,,,ctch,resources/DG.BMP,resources/DP.BMP,Door4,0.375546759,-0.019810442,1,0,0,0.9983,optionRight,60,8385,4,22,0,22,0,1,,,,,,,,,,,,,,,,,,,,,,,,,,,,,,,,,,,,,,,
,,,,,,,,2023-08-16_08h39.16.964,HF_wild_card,2022.2.4,MacIntel,60.0024001,5b126ec7c85dc400016220a4,64d2fd46c836a06233681665,64dc7d055038957636d3cdd8,,,,,,,decisionTrl,resources/DBN.BMP,resources/DB.BMP,WildCard_Ex,-0.294186779,-0.030207636,1,0,0,1.382,optionLeft,55,8440,4,23,0,23,0,1,,,,,,,,,,,,,,,,,,,,,,,,,,,,,,,,,,,,,,,
,,,,,,,,2023-08-16_08h39.16.964,HF_wild_card,2022.2.4,MacIntel,60.0024001,5b126ec7c85dc400016220a4,64d2fd46c836a06233681665,64dc7d055038957636d3cdd8,,,,,,,sngl,resources/DP.BMP,resources/Empty.png,Door4,-0.3127662,0.008260672,1,0,0,0.632,optionLeft,60,8500,4,24,0,24,0,1,,,,,,,,,,,,,,,,,,,,,,,,,,,,,,,,,,,,,,,
,,,,,,,,2023-08-16_08h39.16.964,HF_wild_card,2022.2.4,MacIntel,60.0024001,5b126ec7c85dc400016220a4,64d2fd46c836a06233681665,64dc7d055038957636d3cdd8,,,,,,,ctch,resources/DB.BMP,resources/DY.BMP,Door3,0.382943871,0.002870164,1,0,0,0.7814,optionRight,70,8570,4,25,0,25,0,1,,,,,,,,,,,,,,,,,,,,,,,,,,,,,,,,,,,,,,,
,,,,,,,,2023-08-16_08h39.16.964,HF_wild_card,2022.2.4,MacIntel,60.0024001,5b126ec7c85dc400016220a4,64d2fd46c836a06233681665,64dc7d055038957636d3cdd8,,,,,,,ctch,resources/DP.BMP,resources/DG.BMP,Door4,-0.246907785,-0.012343343,1,0,0,0.7972,optionLeft,60,8630,4,26,0,26,0,1,,,,,,,,,,,,,,,,,,,,,,,,,,,,,,,,,,,,,,,
,,,,,,,,2023-08-16_08h39.16.964,HF_wild_card,2022.2.4,MacIntel,60.0024001,5b126ec7c85dc400016220a4,64d2fd46c836a06233681665,64dc7d055038957636d3cdd8,,,,,,,decisionTrl,resources/DBN.BMP,resources/DP.BMP,Door4,0.365341681,-0.027166516,1,0,0,0.7974,optionRight,60,8690,4,27,0,27,0,1,,,,,,,,,,,,,,,,,,,,,,,,,,,,,,,,,,,,,,,
,,,,,,,,2023-08-16_08h39.16.964,HF_wild_card,2022.2.4,MacIntel,60.0024001,5b126ec7c85dc400016220a4,64d2fd46c836a06233681665,64dc7d055038957636d3cdd8,,,,,,,decisionTrl,resources/DP.BMP,resources/DY.BMP,Door3,0.327802037,-0.027793143,1,0,0,0.8152,optionRight,70,8760,4,28,0,28,0,1,,,,,,,,,,,,,,,,,,,,,,,,,,,,,,,,,,,,,,,
,,,,,,,,2023-08-16_08h39.16.964,HF_wild_card,2022.2.4,MacIntel,60.0024001,5b126ec7c85dc400016220a4,64d2fd46c836a06233681665,64dc7d055038957636d3cdd8,,,,,,,decisionTrl,resources/DY.BMP,resources/DP.BMP,Door4,0.277361421,-0.015597563,1,0,0,0.8311,optionRight,60,8820,4,29,0,29,0,1,,,,,,,,,,,,,,,,,,,,,,,,,,,,,,,,,,,,,,,
,,,,,,,,2023-08-16_08h39.16.964,HF_wild_card,2022.2.4,MacIntel,60.0024001,5b126ec7c85dc400016220a4,64d2fd46c836a06233681665,64dc7d055038957636d3cdd8,,,,,,,sngl,resources/Empty.png,resources/DB.BMP,Door2,0.246862909,0.0345881,1,0,0,0.916,optionRight,40,8860,4,30,0,30,0,1,,,,,,,,,,,,,,,,,,,,,,,,,,,,,,,,,,,,,,,
,,,,,,,,2023-08-16_08h39.16.964,HF_wild_card,2022.2.4,MacIntel,60.0024001,5b126ec7c85dc400016220a4,64d2fd46c836a06233681665,64dc7d055038957636d3cdd8,,,,,,,sngl,resources/Empty.png,resources/DBN.BMP,WildCard_Ex,0.329527879,0.083833415,1,0,0,0.798,optionRight,55,8915,4,31,0,31,0,1,,,,,,,,,,,,,,,,,,,,,,,,,,,,,,,,,,,,,,,
,,,,,,,,2023-08-16_08h39.16.964,HF_wild_card,2022.2.4,MacIntel,60.0024001,5b126ec7c85dc400016220a4,64d2fd46c836a06233681665,64dc7d055038957636d3cdd8,,,,,,,decisionTrl,resources/DP.BMP,resources/DY.BMP,Door4,-0.261679629,0.015702486,1,0,0,1.2977,optionLeft,80,8995,4,32,0,32,0,1,,,,,,,,,,,,,,,,,,,,,,,,,,,,,,,,,,,,,,,
,,,,,,,,2023-08-16_08h39.16.964,HF_wild_card,2022.2.4,MacIntel,60.0024001,5b126ec7c85dc400016220a4,64d2fd46c836a06233681665,64dc7d055038957636d3cdd8,,,,,,,sngl,resources/Empty.png,resources/DG.BMP,Door1,0.366778971,0.023739014,1,0,0,0.732,optionRight,30,9025,4,33,0,33,0,1,,,,,,,,,,,,,,,,,,,,,,,,,,,,,,,,,,,,,,,
,,,,,,,,2023-08-16_08h39.16.964,HF_wild_card,2022.2.4,MacIntel,60.0024001,5b126ec7c85dc400016220a4,64d2fd46c836a06233681665,64dc7d055038957636d3cdd8,,,,,,,decisionTrl,resources/DG.BMP,resources/DB.BMP,Door1,-0.297001372,0.018035424,1,0,0,1.0983,optionLeft,30,9055,4,34,0,34,0,1,,,,,,,,,,,,,,,,,,,,,,,,,,,,,,,,,,,,,,,
,,,,,,,,2023-08-16_08h39.16.964,HF_wild_card,2022.2.4,MacIntel,60.0024001,5b126ec7c85dc400016220a4,64d2fd46c836a06233681665,64dc7d055038957636d3cdd8,,,,,,,ctch,resources/DY.BMP,resources/DB.BMP,Door3,-0.362747686,0.008390648,1,0,0,1.0655,optionLeft,70,9125,4,35,0,35,0,1,,,,,,,,,,,,,,,,,,,,,,,,,,,,,,,,,,,,,,,
,,,,,,,,2023-08-16_08h39.16.964,HF_wild_card,2022.2.4,MacIntel,60.0024001,5b126ec7c85dc400016220a4,64d2fd46c836a06233681665,64dc7d055038957636d3cdd8,,,,,,,decisionTrl,resources/DP.BMP,resources/DY.BMP,Door4,-0.301341378,0.014910627,1,0,0,0.5973,optionLeft,80,9205,4,36,0,36,0,1,,,,,,,,,,,,,,,,,,,,,,,,,,,,,,,,,,,,,,,
,,,,,,,,2023-08-16_08h39.16.964,HF_wild_card,2022.2.4,MacIntel,60.0024001,5b126ec7c85dc400016220a4,64d2fd46c836a06233681665,64dc7d055038957636d3cdd8,,,,,,,decisionTrl,resources/DP.BMP,resources/DY.BMP,Door4,-0.303488537,-0.003574974,1,0,0,0.6812,optionLeft,60,9265,4,37,0,37,0,1,,,,,,,,,,,,,,,,,,,,,,,,,,,,,,,,,,,,,,,
,,,,,,,,2023-08-16_08h39.16.964,HF_wild_card,2022.2.4,MacIntel,60.0024001,5b126ec7c85dc400016220a4,64d2fd46c836a06233681665,64dc7d055038957636d3cdd8,,,,,,,decisionTrl,resources/DB.BMP,resources/DBN.BMP,WildCard_Ex,0.323405413,-0.001790074,1,0,0,1.115,optionRight,45,9310,4,38,0,38,0,1,,,,,,,,,,,,,,,,,,,,,,,,,,,,,,,,,,,,,,,
,,,,,,,,2023-08-16_08h39.16.964,HF_wild_card,2022.2.4,MacIntel,60.0024001,5b126ec7c85dc400016220a4,64d2fd46c836a06233681665,64dc7d055038957636d3cdd8,,,,,,,sngl,resources/Empty.png,resources/DY.BMP,Door3,0.319073544,0.006858724,1,0,0,1.3156,optionRight,70,9380,4,39,0,39,0,1,,,,,,,,,,,,,,,,,,,,,,,,,,,,,,,,,,,,,,,
,,,,,,,,2023-08-16_08h39.16.964,HF_wild_card,2022.2.4,MacIntel,60.0024001,5b126ec7c85dc400016220a4,64d2fd46c836a06233681665,64dc7d055038957636d3cdd8,,,,,,,decisionTrl,resources/DY.BMP,resources/DBN.BMP,Door3,-0.279596587,-0.047858596,1,0,0,0.7819,optionLeft,70,9450,4,40,0,40,0,1,,,,,,,,,,,,,,,,,,,,,,,,,,,,,,,,,,,,,,,
,,,,,,,,2023-08-16_08h39.16.964,HF_wild_card,2022.2.4,MacIntel,60.0024001,5b126ec7c85dc400016220a4,64d2fd46c836a06233681665,64dc7d055038957636d3cdd8,,,,,,,decisionTrl,resources/DB.BMP,resources/DG.BMP,Door1,0.419015997,0.038287499,1,0,0,8.8648,optionRight,30,9480,4,41,0,41,0,1,,,,,,,,,,,,,,,,,,,,,,,,,,,,,,,,,,,,,,,
,,,,,,,,2023-08-16_08h39.16.964,HF_wild_card,2022.2.4,MacIntel,60.0024001,5b126ec7c85dc400016220a4,64d2fd46c836a06233681665,64dc7d055038957636d3cdd8,,,,,,,decisionTrl,resources/DG.BMP,resources/DB.BMP,Door1,-0.321542475,0.003359201,1,0,0,0.7649,optionLeft,30,9510,4,42,0,42,0,1,,,,,,,,,,,,,,,,,,,,,,,,,,,,,,,,,,,,,,,
,,,,,,,,2023-08-16_08h39.16.964,HF_wild_card,2022.2.4,MacIntel,60.0024001,5b126ec7c85dc400016220a4,64d2fd46c836a06233681665,64dc7d055038957636d3cdd8,,,,,,,sngl,resources/DG.BMP,resources/Empty.png,Door1,-0.2648981,-0.029125221,1,0,0,0.5972,optionLeft,30,9540,4,43,0,43,0,1,,,,,,,,,,,,,,,,,,,,,,,,,,,,,,,,,,,,,,,
,,,,,,,,2023-08-16_08h39.16.964,HF_wild_card,2022.2.4,MacIntel,60.0024001,5b126ec7c85dc400016220a4,64d2fd46c836a06233681665,64dc7d055038957636d3cdd8,,,,,,,,,,,,,,,,,,,,,,,,,,3,0,3,0,1,,,,,,,,,,,,,,,,,,,,,,,,,,,,,,,,,,
,,,,,,,,2023-08-16_08h39.16.964,HF_wild_card,2022.2.4,MacIntel,60.0024001,5b126ec7c85dc400016220a4,64d2fd46c836a06233681665,64dc7d055038957636d3cdd8,,,,,,,sngl,resources/DBN.BMP,resources/Empty.png,WildCard_Ex,-0.251160889,-0.096661319,1,0,0,0.7804,optionLeft,45,9585,5,0,0,0,0,1,,,,,,,,,,,,,,,,,,,,,,,,,,,,,,,,,,,,,,,
,,,,,,,,2023-08-16_08h39.16.964,HF_wild_card,2022.2.4,MacIntel,60.0024001,5b126ec7c85dc400016220a4,64d2fd46c836a06233681665,64dc7d055038957636d3cdd8,,,,,,,decisionTrl,resources/DP.BMP,resources/DY.BMP,Door4,-0.147643055,-0.05181379,1,0,0,1.2135,optionLeft,80,9665,5,1,0,1,0,1,,,,,,,,,,,,,,,,,,,,,,,,,,,,,,,,,,,,,,,
,,,,,,,,2023-08-16_08h39.16.964,HF_wild_card,2022.2.4,MacIntel,60.0024001,5b126ec7c85dc400016220a4,64d2fd46c836a06233681665,64dc7d055038957636d3cdd8,,,,,,,decisionTrl,resources/DY.BMP,resources/DBN.BMP,Door3,-0.34726795,-0.013095703,1,0,0,0.9144,optionLeft,70,9735,5,2,0,2,0,1,,,,,,,,,,,,,,,,,,,,,,,,,,,,,,,,,,,,,,,
,,,,,,,,2023-08-16_08h39.16.964,HF_wild_card,2022.2.4,MacIntel,60.0024001,5b126ec7c85dc400016220a4,64d2fd46c836a06233681665,64dc7d055038957636d3cdd8,,,,,,,decisionTrl,resources/DG.BMP,resources/DBN.BMP,Door1,-0.269709763,-0.011607375,1,0,0,1.3137,optionLeft,30,9765,5,3,0,3,0,1,,,,,,,,,,,,,,,,,,,,,,,,,,,,,,,,,,,,,,,
,,,,,,,,2023-08-16_08h39.16.964,HF_wild_card,2022.2.4,MacIntel,60.0024001,5b126ec7c85dc400016220a4,64d2fd46c836a06233681665,64dc7d055038957636d3cdd8,,,,,,,sngl,resources/Empty.png,resources/DB.BMP,Door2,0.393271019,-0.009957217,1,0,0,0.6311,optionRight,20,9785,5,4,0,4,0,1,,,,,,,,,,,,,,,,,,,,,,,,,,,,,,,,,,,,,,,
,,,,,,,,2023-08-16_08h39.16.964,HF_wild_card,2022.2.4,MacIntel,60.0024001,5b126ec7c85dc400016220a4,64d2fd46c836a06233681665,64dc7d055038957636d3cdd8,,,,,,,decisionTrl,resources/DBN.BMP,resources/DG.BMP,WildCard_Ex,-0.218489932,-0.018156971,1,0,0,0.8985,optionLeft,45,9830,5,5,0,5,0,1,,,,,,,,,,,,,,,,,,,,,,,,,,,,,,,,,,,,,,,
,,,,,,,,2023-08-16_08h39.16.964,HF_wild_card,2022.2.4,MacIntel,60.0024001,5b126ec7c85dc400016220a4,64d2fd46c836a06233681665,64dc7d055038957636d3cdd8,,,,,,,sngl,resources/Empty.png,resources/DBN.BMP,WildCard_Ex,0.340708357,-0.034222121,1,0,0,0.648,optionRight,45,9875,5,6,0,6,0,1,,,,,,,,,,,,,,,,,,,,,,,,,,,,,,,,,,,,,,,
,,,,,,,,2023-08-16_08h39.16.964,HF_wild_card,2022.2.4,MacIntel,60.0024001,5b126ec7c85dc400016220a4,64d2fd46c836a06233681665,64dc7d055038957636d3cdd8,,,,,,,ctch,resources/DP.BMP,resources/DG.BMP,Door4,-0.291723633,-0.006484782,1,0,0,0.9,optionLeft,80,9955,5,7,0,7,0,1,,,,,,,,,,,,,,,,,,,,,,,,,,,,,,,,,,,,,,,
,,,,,,,,2023-08-16_08h39.16.964,HF_wild_card,2022.2.4,MacIntel,60.0024001,5b126ec7c85dc400016220a4,64d2fd46c836a06233681665,64dc7d055038957636d3cdd8,,,,,,,ctch,resources/DB.BMP,resources/DY.BMP,Door3,0.297456868,0.002093331,1,0,0,1.3636,optionRight,70,10025,5,8,0,8,0,1,,,,,,,,,,,,,,,,,,,,,,,,,,,,,,,,,,,,,,,
,,,,,,,,2023-08-16_08h39.16.964,HF_wild_card,2022.2.4,MacIntel,60.0024001,5b126ec7c85dc400016220a4,64d2fd46c836a06233681665,64dc7d055038957636d3cdd8,,,,,,,decisionTrl,resources/DB.BMP,resources/DG.BMP,Door1,0.342008231,-0.023957229,1,0,0,1.3982,optionRight,30,10055,5,9,0,9,0,1,,,,,,,,,,,,,,,,,,,,,,,,,,,,,,,,,,,,,,,
,,,,,,,,2023-08-16_08h39.16.964,HF_wild_card,2022.2.4,MacIntel,60.0024001,5b126ec7c85dc400016220a4,64d2fd46c836a06233681665,64dc7d055038957636d3cdd8,,,,,,,decisionTrl,resources/DB.BMP,resources/DG.BMP,Door1,0.314878627,0.01982945,1,0,0,0.7815,optionRight,30,10085,5,10,0,10,0,1,,,,,,,,,,,,,,,,,,,,,,,,,,,,,,,,,,,,,,,
,,,,,,,,2023-08-16_08h39.16.964,HF_wild_card,2022.2.4,MacIntel,60.0024001,5b126ec7c85dc400016220a4,64d2fd46c836a06233681665,64dc7d055038957636d3cdd8,,,,,,,sngl,resources/DBN.BMP,resources/Empty.png,WildCard_Ex,-0.282958054,0.01791812,1,0,0,0.5945,optionLeft,55,10140,5,11,0,11,0,1,,,,,,,,,,,,,,,,,,,,,,,,,,,,,,,,,,,,,,,
,,,,,,,,2023-08-16_08h39.16.964,HF_wild_card,2022.2.4,MacIntel,60.0024001,5b126ec7c85dc400016220a4,64d2fd46c836a06233681665,64dc7d055038957636d3cdd8,,,,,,,decisionTrl,resources/DP.BMP,resources/DY.BMP,Door4,-0.298770345,-0.049936523,1,0,0,2.6806,optionLeft,80,10220,5,12,0,12,0,1,,,,,,,,,,,,,,,,,,,,,,,,,,,,,,,,,,,,,,,
,,,,,,,,2023-08-16_08h39.16.964,HF_wild_card,2022.2.4,MacIntel,60.0024001,5b126ec7c85dc400016220a4,64d2fd46c836a06233681665,64dc7d055038957636d3cdd8,,,,,,,decisionTrl,resources/DG.BMP,resources/DB.BMP,Door1,-0.272261905,0.007842146,1,0,0,1.5985,optionLeft,30,10250,5,13,0,13,0,1,,,,,,,,,,,,,,,,,,,,,,,,,,,,,,,,,,,,,,,
,,,,,,,,2023-08-16_08h39.16.964,HF_wild_card,2022.2.4,MacIntel,60.0024001,5b126ec7c85dc400016220a4,64d2fd46c836a06233681665,64dc7d055038957636d3cdd8,,,,,,,sngl,resources/DG.BMP,resources/Empty.png,Door1,-0.238941418,0.010405738,1,0,0,0.598,optionLeft,30,10280,5,14,0,14,0,1,,,,,,,,,,,,,,,,,,,,,,,,,,,,,,,,,,,,,,,
,,,,,,,,2023-08-16_08h39.16.964,HF_wild_card,2022.2.4,MacIntel,60.0024001,5b126ec7c85dc400016220a4,64d2fd46c836a06233681665,64dc7d055038957636d3cdd8,,,,,,,sngl,resources/Empty.png,resources/DP.BMP,Door4,0.421098633,-0.041213902,1,0,0,0.6489,optionRight,60,10340,5,15,0,15,0,1,,,,,,,,,,,,,,,,,,,,,,,,,,,,,,,,,,,,,,,
,,,,,,,,2023-08-16_08h39.16.964,HF_wild_card,2022.2.4,MacIntel,60.0024001,5b126ec7c85dc400016220a4,64d2fd46c836a06233681665,64dc7d055038957636d3cdd8,,,,,,,decisionTrl,resources/DY.BMP,resources/DP.BMP,Door3,-0.256003476,-0.013717622,1,0,0,0.7332,optionLeft,70,10410,5,16,0,16,0,1,,,,,,,,,,,,,,,,,,,,,,,,,,,,,,,,,,,,,,,
,,,,,,,,2023-08-16_08h39.16.964,HF_wild_card,2022.2.4,MacIntel,60.0024001,5b126ec7c85dc400016220a4,64d2fd46c836a06233681665,64dc7d055038957636d3cdd8,,,,,,,decisionTrl,resources/DBN.BMP,resources/DP.BMP,Door4,0.361921735,0.016783767,1,0,0,0.8313,optionRight,80,10490,5,17,0,17,0,1,,,,,,,,,,,,,,,,,,,,,,,,,,,,,,,,,,,,,,,
,,,,,,,,2023-08-16_08h39.16.964,HF_wild_card,2022.2.4,MacIntel,60.0024001,5b126ec7c85dc400016220a4,64d2fd46c836a06233681665,64dc7d055038957636d3cdd8,,,,,,,ctch,resources/DB.BMP,resources/DY.BMP,Door3,0.361443452,0.017711879,1,0,0,0.9813,optionRight,70,10560,5,18,0,18,0,1,,,,,,,,,,,,,,,,,,,,,,,,,,,,,,,,,,,,,,,
,,,,,,,,2023-08-16_08h39.16.964,HF_wild_card,2022.2.4,MacIntel,60.0024001,5b126ec7c85dc400016220a4,64d2fd46c836a06233681665,64dc7d055038957636d3cdd8,,,,,,,ctch,resources/DG.BMP,resources/DP.BMP,Door4,0.33728132,-0.03656064,1,0,0,0.9971,optionRight,60,10620,5,19,0,19,0,1,,,,,,,,,,,,,,,,,,,,,,,,,,,,,,,,,,,,,,,
,,,,,,,,2023-08-16_08h39.16.964,HF_wild_card,2022.2.4,MacIntel,60.0024001,5b126ec7c85dc400016220a4,64d2fd46c836a06233681665,64dc7d055038957636d3cdd8,,,,,,,decisionTrl,resources/DP.BMP,resources/DY.BMP,Door4,-0.271836868,0.000546584,1,0,0,1.3822,optionLeft,60,10680,5,20,0,20,0,1,,,,,,,,,,,,,,,,,,,,,,,,,,,,,,,,,,,,,,,
,,,,,,,,2023-08-16_08h39.16.964,HF_wild_card,2022.2.4,MacIntel,60.0024001,5b126ec7c85dc400016220a4,64d2fd46c836a06233681665,64dc7d055038957636d3cdd8,,,,,,,sngl,resources/DY.BMP,resources/Empty.png,Door3,-0.26471482,-0.018797666,1,0,0,0.6335,optionLeft,70,10750,5,21,0,21,0,1,,,,,,,,,,,,,,,,,,,,,,,,,,,,,,,,,,,,,,,
,,,,,,,,2023-08-16_08h39.16.964,HF_wild_card,2022.2.4,MacIntel,60.0024001,5b126ec7c85dc400016220a4,64d2fd46c836a06233681665,64dc7d055038957636d3cdd8,,,,,,,decisionTrl,resources/DY.BMP,resources/DP.BMP,Door3,-0.233829404,-0.021485886,1,0,0,0.6984,optionLeft,70,10820,5,22,0,22,0,1,,,,,,,,,,,,,,,,,,,,,,,,,,,,,,,,,,,,,,,
,,,,,,,,2023-08-16_08h39.16.964,HF_wild_card,2022.2.4,MacIntel,60.0024001,5b126ec7c85dc400016220a4,64d2fd46c836a06233681665,64dc7d055038957636d3cdd8,,,,,,,decisionTrl,resources/DY.BMP,resources/DP.BMP,Door3,-0.24069708,0.007804943,1,0,0,0.6639,optionLeft,70,10890,5,23,0,23,0,1,,,,,,,,,,,,,,,,,,,,,,,,,,,,,,,,,,,,,,,
,,,,,,,,2023-08-16_08h39.16.964,HF_wild_card,2022.2.4,MacIntel,60.0024001,5b126ec7c85dc400016220a4,64d2fd46c836a06233681665,64dc7d055038957636d3cdd8,,,,,,,sngl,resources/Empty.png,resources/DBN.BMP,WildCard_Ex,0.381118745,-0.029756092,1,0,0,0.7651,optionRight,55,10945,5,24,0,24,0,1,,,,,,,,,,,,,,,,,,,,,,,,,,,,,,,,,,,,,,,
,,,,,,,,2023-08-16_08h39.16.964,HF_wild_card,2022.2.4,MacIntel,60.0024001,5b126ec7c85dc400016220a4,64d2fd46c836a06233681665,64dc7d055038957636d3cdd8,,,,,,,ctch,resources/DP.BMP,resources/DG.BMP,Door4,-0.25177653,0.024376686,1,0,0,3.2499,optionLeft,80,11025,5,25,0,25,0,1,,,,,,,,,,,,,,,,,,,,,,,,,,,,,,,,,,,,,,,
,,,,,,,,2023-08-16_08h39.16.964,HF_wild_card,2022.2.4,MacIntel,60.0024001,5b126ec7c85dc400016220a4,64d2fd46c836a06233681665,64dc7d055038957636d3cdd8,,,,,,,decisionTrl,resources/DG.BMP,resources/DB.BMP,Door1,-0.231599702,-0.02549142,1,0,0,0.8475,optionLeft,30,11055,5,26,0,26,0,1,,,,,,,,,,,,,,,,,,,,,,,,,,,,,,,,,,,,,,,
,,,,,,,,2023-08-16_08h39.16.964,HF_wild_card,2022.2.4,MacIntel,60.0024001,5b126ec7c85dc400016220a4,64d2fd46c836a06233681665,64dc7d055038957636d3cdd8,,,,,,,sngl,resources/DB.BMP,resources/Empty.png,Door2,-0.171281506,0.014310186,1,0,0,0.7142,optionLeft,40,11095,5,27,0,27,0,1,,,,,,,,,,,,,,,,,,,,,,,,,,,,,,,,,,,,,,,
,,,,,,,,2023-08-16_08h39.16.964,HF_wild_card,2022.2.4,MacIntel,60.0024001,5b126ec7c85dc400016220a4,64d2fd46c836a06233681665,64dc7d055038957636d3cdd8,,,,,,,decisionTrl,resources/DB.BMP,resources/DG.BMP,Door1,0.374962798,-0.02943807,1,0,0,0.6977,optionRight,30,11125,5,28,0,28,0,1,,,,,,,,,,,,,,,,,,,,,,,,,,,,,,,,,,,,,,,
,,,,,,,,2023-08-16_08h39.16.964,HF_wild_card,2022.2.4,MacIntel,60.0024001,5b126ec7c85dc400016220a4,64d2fd46c836a06233681665,64dc7d055038957636d3cdd8,,,,,,,decisionTrl,resources/DP.BMP,resources/DY.BMP,Door4,-0.275066732,0.01373166,1,0,0,1.5479,optionLeft,80,11205,5,29,0,29,0,1,,,,,,,,,,,,,,,,,,,,,,,,,,,,,,,,,,,,,,,
,,,,,,,,2023-08-16_08h39.16.964,HF_wild_card,2022.2.4,MacIntel,60.0024001,5b126ec7c85dc400016220a4,64d2fd46c836a06233681665,64dc7d055038957636d3cdd8,,,,,,,sngl,resources/Empty.png,resources/DY.BMP,Door3,0.347838425,0.006626907,1,0,0,0.6152,optionRight,70,11275,5,30,0,30,0,1,,,,,,,,,,,,,,,,,,,,,,,,,,,,,,,,,,,,,,,
,,,,,,,,2023-08-16_08h39.16.964,HF_wild_card,2022.2.4,MacIntel,60.0024001,5b126ec7c85dc400016220a4,64d2fd46c836a06233681665,64dc7d055038957636d3cdd8,,,,,,,ctch,resources/DY.BMP,resources/DB.BMP,Door3,-0.196035505,-0.015655401,1,0,0,0.8147,optionLeft,70,11345,5,31,0,31,0,1,,,,,,,,,,,,,,,,,,,,,,,,,,,,,,,,,,,,,,,
,,,,,,,,2023-08-16_08h39.16.964,HF_wild_card,2022.2.4,MacIntel,60.0024001,5b126ec7c85dc400016220a4,64d2fd46c836a06233681665,64dc7d055038957636d3cdd8,,,,,,,decisionTrl,resources/DG.BMP,resources/DB.BMP,Door1,-0.192967006,0.002090309,1,0,0,0.9318,optionLeft,30,11375,5,32,0,32,0,1,,,,,,,,,,,,,,,,,,,,,,,,,,,,,,,,,,,,,,,
,,,,,,,,2023-08-16_08h39.16.964,HF_wild_card,2022.2.4,MacIntel,60.0024001,5b126ec7c85dc400016220a4,64d2fd46c836a06233681665,64dc7d055038957636d3cdd8,,,,,,,decisionTrl,resources/DG.BMP,resources/DB.BMP,Door1,-0.20465239,0.008082915,1,0,0,0.7809,optionLeft,30,11405,5,33,0,33,0,1,,,,,,,,,,,,,,,,,,,,,,,,,,,,,,,,,,,,,,,
,,,,,,,,2023-08-16_08h39.16.964,HF_wild_card,2022.2.4,MacIntel,60.0024001,5b126ec7c85dc400016220a4,64d2fd46c836a06233681665,64dc7d055038957636d3cdd8,,,,,,,decisionTrl,resources/DB.BMP,resources/DBN.BMP,WildCard_Ex,0.297098796,0.020301659,1,0,0,1.0146,optionRight,55,11460,5,34,0,34,0,1,,,,,,,,,,,,,,,,,,,,,,,,,,,,,,,,,,,,,,,
,,,,,,,,2023-08-16_08h39.16.964,HF_wild_card,2022.2.4,MacIntel,60.0024001,5b126ec7c85dc400016220a4,64d2fd46c836a06233681665,64dc7d055038957636d3cdd8,,,,,,,decisionTrl,resources/DP.BMP,resources/DBN.BMP,Door4,-0.320012788,0.041299468,1,0,0,1.1154,optionLeft,80,11540,5,35,0,35,0,1,,,,,,,,,,,,,,,,,,,,,,,,,,,,,,,,,,,,,,,
,,,,,,,,2023-08-16_08h39.16.964,HF_wild_card,2022.2.4,MacIntel,60.0024001,5b126ec7c85dc400016220a4,64d2fd46c836a06233681665,64dc7d055038957636d3cdd8,,,,,,,sngl,resources/Empty.png,resources/DG.BMP,Door1,0.260777995,0.000594192,1,0,0,0.6982,optionRight,30,11570,5,36,0,36,0,1,,,,,,,,,,,,,,,,,,,,,,,,,,,,,,,,,,,,,,,
,,,,,,,,2023-08-16_08h39.16.964,HF_wild_card,2022.2.4,MacIntel,60.0024001,5b126ec7c85dc400016220a4,64d2fd46c836a06233681665,64dc7d055038957636d3cdd8,,,,,,,ctch,resources/DG.BMP,resources/DP.BMP,Door4,0.319547061,-0.008038679,1,0,0,0.9649,optionRight,60,11630,5,37,0,37,0,1,,,,,,,,,,,,,,,,,,,,,,,,,,,,,,,,,,,,,,,
,,,,,,,,2023-08-16_08h39.16.964,HF_wild_card,2022.2.4,MacIntel,60.0024001,5b126ec7c85dc400016220a4,64d2fd46c836a06233681665,64dc7d055038957636d3cdd8,,,,,,,decisionTrl,resources/DY.BMP,resources/DP.BMP,Door4,0.383733956,0.031316499,1,0,0,1.2977,optionRight,60,11690,5,38,0,38,0,1,,,,,,,,,,,,,,,,,,,,,,,,,,,,,,,,,,,,,,,
,,,,,,,,2023-08-16_08h39.16.964,HF_wild_card,2022.2.4,MacIntel,60.0024001,5b126ec7c85dc400016220a4,64d2fd46c836a06233681665,64dc7d055038957636d3cdd8,,,,,,,decisionTrl,resources/DBN.BMP,resources/DB.BMP,Door2,0.300022321,-0.01450765,1,0,0,0.981,optionRight,20,11710,5,39,0,39,0,1,,,,,,,,,,,,,,,,,,,,,,,,,,,,,,,,,,,,,,,
,,,,,,,,2023-08-16_08h39.16.964,HF_wild_card,2022.2.4,MacIntel,60.0024001,5b126ec7c85dc400016220a4,64d2fd46c836a06233681665,64dc7d055038957636d3cdd8,,,,,,,decisionTrl,resources/DBN.BMP,resources/DY.BMP,Door3,0.300471889,0.010018834,1,0,0,1.4136,optionRight,70,11780,5,40,0,40,0,1,,,,,,,,,,,,,,,,,,,,,,,,,,,,,,,,,,,,,,,
,,,,,,,,2023-08-16_08h39.16.964,HF_wild_card,2022.2.4,MacIntel,60.0024001,5b126ec7c85dc400016220a4,64d2fd46c836a06233681665,64dc7d055038957636d3cdd8,,,,,,,sngl,resources/DP.BMP,resources/Empty.png,Door4,-0.190049235,-0.007853132,1,0,0,0.6648,optionLeft,80,11860,5,41,0,41,0,1,,,,,,,,,,,,,,,,,,,,,,,,,,,,,,,,,,,,,,,
,,,,,,,,2023-08-16_08h39.16.964,HF_wild_card,2022.2.4,MacIntel,60.0024001,5b126ec7c85dc400016220a4,64d2fd46c836a06233681665,64dc7d055038957636d3cdd8,,,,,,,decisionTrl,resources/DB.BMP,resources/DG.BMP,Door1,0.195357143,-0.009460624,1,0,0,0.8642,optionRight,30,11890,5,42,0,42,0,1,,,,,,,,,,,,,,,,,,,,,,,,,,,,,,,,,,,,,,,
,,,,,,,,2023-08-16_08h39.16.964,HF_wild_card,2022.2.4,MacIntel,60.0024001,5b126ec7c85dc400016220a4,64d2fd46c836a06233681665,64dc7d055038957636d3cdd8,,,,,,,ctch,resources/DY.BMP,resources/DB.BMP,Door3,-0.28544143,0.012218018,1,0,0,1.1642,optionLeft,70,11960,5,43,0,43,0,1,,,,,,,,,,,,,,,,,,,,,,,,,,,,,,,,,,,,,,,
,,,,,,,,2023-08-16_08h39.16.964,HF_wild_card,2022.2.4,MacIntel,60.0024001,5b126ec7c85dc400016220a4,64d2fd46c836a06233681665,64dc7d055038957636d3cdd8,,,,,,,,,,,,,,,,,,,,,,,,,,4,0,4,0,1,,,,,,,,,,,,,,,,,,,,,,,,,,,,,,,,,,
,,,,,,,,2023-08-16_08h39.16.964,HF_wild_card,2022.2.4,MacIntel,60.0024001,5b126ec7c85dc400016220a4,64d2fd46c836a06233681665,64dc7d055038957636d3cdd8,,,,,,,decisionTrl,resources/DG.BMP,resources/DBN.BMP,WildCard_Ex,0.288690825,-0.055256522,1,0,0,1.7706,optionRight,55,12015,6,0,0,0,0,1,,,,,,,,,,,,,,,,,,,,,,,,,,,,,,,,,,,,,,,
,,,,,,,,2023-08-16_08h39.16.964,HF_wild_card,2022.2.4,MacIntel,60.0024001,5b126ec7c85dc400016220a4,64d2fd46c836a06233681665,64dc7d055038957636d3cdd8,,,,,,,ctch,resources/DY.BMP,resources/DB.BMP,Door3,-0.28810605,0.026903251,1,0,0,1.0806,optionLeft,70,12085,6,1,0,1,0,1,,,,,,,,,,,,,,,,,,,,,,,,,,,,,,,,,,,,,,,
,,,,,,,,2023-08-16_08h39.16.964,HF_wild_card,2022.2.4,MacIntel,60.0024001,5b126ec7c85dc400016220a4,64d2fd46c836a06233681665,64dc7d055038957636d3cdd8,,,,,,,sngl,resources/Empty.png,resources/DY.BMP,Door3,0.201092239,8.5333E-05,1,0,0,0.6647,optionRight,70,12155,6,2,0,2,0,1,,,,,,,,,,,,,,,,,,,,,,,,,,,,,,,,,,,,,,,
,,,,,,,,2023-08-16_08h39.16.964,HF_wild_card,2022.2.4,MacIntel,60.0024001,5b126ec7c85dc400016220a4,64d2fd46c836a06233681665,64dc7d055038957636d3cdd8,,,,,,,decisionTrl,resources/DB.BMP,resources/DG.BMP,Door1,0.277454427,-0.016463332,1,0,0,0.9809,optionRight,30,12185,6,3,0,3,0,1,,,,,,,,,,,,,,,,,,,,,,,,,,,,,,,,,,,,,,,
,,,,,,,,2023-08-16_08h39.16.964,HF_wild_card,2022.2.4,MacIntel,60.0024001,5b126ec7c85dc400016220a4,64d2fd46c836a06233681665,64dc7d055038957636d3cdd8,,,,,,,decisionTrl,resources/DP.BMP,resources/DBN.BMP,Door4,-0.278949265,-0.014489107,1,0,0,1.5138,optionLeft,60,12245,6,4,0,4,0,1,,,,,,,,,,,,,,,,,,,,,,,,,,,,,,,,,,,,,,,
,,,,,,,,2023-08-16_08h39.16.964,HF_wild_card,2022.2.4,MacIntel,60.0024001,5b126ec7c85dc400016220a4,64d2fd46c836a06233681665,64dc7d055038957636d3cdd8,,,,,,,sngl,resources/Empty.png,resources/DG.BMP,Door1,0.32781901,0.028348737,1,0,0,0.6487,optionRight,30,12275,6,5,0,5,0,1,,,,,,,,,,,,,,,,,,,,,,,,,,,,,,,,,,,,,,,
,,,,,,,,2023-08-16_08h39.16.964,HF_wild_card,2022.2.4,MacIntel,60.0024001,5b126ec7c85dc400016220a4,64d2fd46c836a06233681665,64dc7d055038957636d3cdd8,,,,,,,decisionTrl,resources/DB.BMP,resources/DG.BMP,Door1,0.315677083,-0.033895671,1,0,0,0.9493,optionRight,30,12305,6,6,0,6,0,1,,,,,,,,,,,,,,,,,,,,,,,,,,,,,,,,,,,,,,,
,,,,,,,,2023-08-16_08h39.16.964,HF_wild_card,2022.2.4,MacIntel,60.0024001,5b126ec7c85dc400016220a4,64d2fd46c836a06233681665,64dc7d055038957636d3cdd8,,,,,,,decisionTrl,resources/DB.BMP,resources/DBN.BMP,WildCard_Ex,0.257624047,0.043008859,1,0,0,0.7317,optionRight,55,12360,6,7,0,7,0,1,,,,,,,,,,,,,,,,,,,,,,,,,,,,,,,,,,,,,,,
,,,,,,,,2023-08-16_08h39.16.964,HF_wild_card,2022.2.4,MacIntel,60.0024001,5b126ec7c85dc400016220a4,64d2fd46c836a06233681665,64dc7d055038957636d3cdd8,,,,,,,ctch,resources/DB.BMP,resources/DY.BMP,Door3,0.247117629,0.044657738,1,0,0,0.7149,optionRight,70,12430,6,8,0,8,0,1,,,,,,,,,,,,,,,,,,,,,,,,,,,,,,,,,,,,,,,
,,,,,,,,2023-08-16_08h39.16.964,HF_wild_card,2022.2.4,MacIntel,60.0024001,5b126ec7c85dc400016220a4,64d2fd46c836a06233681665,64dc7d055038957636d3cdd8,,,,,,,decisionTrl,resources/DBN.BMP,resources/DP.BMP,Door4,0.250243327,-0.010594715,1,0,0,0.7662,optionRight,80,12510,6,9,0,9,0,1,,,,,,,,,,,,,,,,,,,,,,,,,,,,,,,,,,,,,,,
,,,,,,,,2023-08-16_08h39.16.964,HF_wild_card,2022.2.4,MacIntel,60.0024001,5b126ec7c85dc400016220a4,64d2fd46c836a06233681665,64dc7d055038957636d3cdd8,,,,,,,ctch,resources/DG.BMP,resources/DP.BMP,Door4,0.262299921,-0.025577567,1,0,0,0.8149,optionRight,80,12590,6,10,0,10,0,1,,,,,,,,,,,,,,,,,,,,,,,,,,,,,,,,,,,,,,,
,,,,,,,,2023-08-16_08h39.16.964,HF_wild_card,2022.2.4,MacIntel,60.0024001,5b126ec7c85dc400016220a4,64d2fd46c836a06233681665,64dc7d055038957636d3cdd8,,,,,,,sngl,resources/Empty.png,resources/DBN.BMP,WildCard_Ex,0.225372489,0.017598848,1,0,0,0.7629,optionRight,45,12635,6,11,0,11,0,1,,,,,,,,,,,,,,,,,,,,,,,,,,,,,,,,,,,,,,,
,,,,,,,,2023-08-16_08h39.16.964,HF_wild_card,2022.2.4,MacIntel,60.0024001,5b126ec7c85dc400016220a4,64d2fd46c836a06233681665,64dc7d055038957636d3cdd8,,,,,,,sngl,resources/Empty.png,resources/DP.BMP,Door4,0.265439337,-0.008741164,1,0,0,0.6313,optionRight,80,12715,6,12,0,12,0,1,,,,,,,,,,,,,,,,,,,,,,,,,,,,,,,,,,,,,,,
,,,,,,,,2023-08-16_08h39.16.964,HF_wild_card,2022.2.4,MacIntel,60.0024001,5b126ec7c85dc400016220a4,64d2fd46c836a06233681665,64dc7d055038957636d3cdd8,,,,,,,decisionTrl,resources/DBN.BMP,resources/DY.BMP,Door3,0.234506836,-0.022301025,1,0,0,0.831,optionRight,70,12785,6,13,0,13,0,1,,,,,,,,,,,,,,,,,,,,,,,,,,,,,,,,,,,,,,,
,,,,,,,,2023-08-16_08h39.16.964,HF_wild_card,2022.2.4,MacIntel,60.0024001,5b126ec7c85dc400016220a4,64d2fd46c836a06233681665,64dc7d055038957636d3cdd8,,,,,,,ctch,resources/DG.BMP,resources/DP.BMP,Door4,0.275319243,-0.017503953,1,0,0,0.7152,optionRight,80,12865,6,14,0,14,0,1,,,,,,,,,,,,,,,,,,,,,,,,,,,,,,,,,,,,,,,
,,,,,,,,2023-08-16_08h39.16.964,HF_wild_card,2022.2.4,MacIntel,60.0024001,5b126ec7c85dc400016220a4,64d2fd46c836a06233681665,64dc7d055038957636d3cdd8,,,,,,,decisionTrl,resources/DY.BMP,resources/DP.BMP,Door4,0.319640532,-0.025953078,1,0,0,1.2809,optionRight,60,12925,6,15,0,15,0,1,,,,,,,,,,,,,,,,,,,,,,,,,,,,,,,,,,,,,,,
,,,,,,,,2023-08-16_08h39.16.964,HF_wild_card,2022.2.4,MacIntel,60.0024001,5b126ec7c85dc400016220a4,64d2fd46c836a06233681665,64dc7d055038957636d3cdd8,,,,,,,decisionTrl,resources/DG.BMP,resources/DB.BMP,Door1,-0.256270868,0.006534598,1,0,0,0.9654,optionLeft,30,12955,6,16,0,16,0,1,,,,,,,,,,,,,,,,,,,,,,,,,,,,,,,,,,,,,,,
,,,,,,,,2023-08-16_08h39.16.964,HF_wild_card,2022.2.4,MacIntel,60.0024001,5b126ec7c85dc400016220a4,64d2fd46c836a06233681665,64dc7d055038957636d3cdd8,,,,,,,sngl,resources/DB.BMP,resources/Empty.png,Door2,-0.276199835,-0.006106073,1,0,0,0.6315,optionLeft,20,12975,6,17,0,17,0,1,,,,,,,,,,,,,,,,,,,,,,,,,,,,,,,,,,,,,,,
,,,,,,,,2023-08-16_08h39.16.964,HF_wild_card,2022.2.4,MacIntel,60.0024001,5b126ec7c85dc400016220a4,64d2fd46c836a06233681665,64dc7d055038957636d3cdd8,,,,,,,decisionTrl,resources/DY.BMP,resources/DP.BMP,Door3,-0.270902507,-0.006921561,1,0,0,1.4494,optionLeft,70,13045,6,18,0,18,0,1,,,,,,,,,,,,,,,,,,,,,,,,,,,,,,,,,,,,,,,
,,,,,,,,2023-08-16_08h39.16.964,HF_wild_card,2022.2.4,MacIntel,60.0024001,5b126ec7c85dc400016220a4,64d2fd46c836a06233681665,64dc7d055038957636d3cdd8,,,,,,,decisionTrl,resources/DBN.BMP,resources/DB.BMP,WildCard_Ex,-0.224156843,0.010136312,1,0,0,1.1146,optionLeft,55,13100,6,19,0,19,0,1,,,,,,,,,,,,,,,,,,,,,,,,,,,,,,,,,,,,,,,
,,,,,,,,2023-08-16_08h39.16.964,HF_wild_card,2022.2.4,MacIntel,60.0024001,5b126ec7c85dc400016220a4,64d2fd46c836a06233681665,64dc7d055038957636d3cdd8,,,,,,,decisionTrl,resources/DP.BMP,resources/DY.BMP,Door3,0.156306617,-0.038361468,1,0,0,1.598,optionRight,70,13170,6,20,0,20,0,1,,,,,,,,,,,,,,,,,,,,,,,,,,,,,,,,,,,,,,,
,,,,,,,,2023-08-16_08h39.16.964,HF_wild_card,2022.2.4,MacIntel,60.0024001,5b126ec7c85dc400016220a4,64d2fd46c836a06233681665,64dc7d055038957636d3cdd8,,,,,,,decisionTrl,resources/DY.BMP,resources/DP.BMP,Door4,0.192168666,-0.014690988,1,0,0,1.4973,optionRight,80,13250,6,21,0,21,0,1,,,,,,,,,,,,,,,,,,,,,,,,,,,,,,,,,,,,,,,
,,,,,,,,2023-08-16_08h39.16.964,HF_wild_card,2022.2.4,MacIntel,60.0024001,5b126ec7c85dc400016220a4,64d2fd46c836a06233681665,64dc7d055038957636d3cdd8,,,,,,,ctch,resources/DP.BMP,resources/DG.BMP,Door4,-0.219400228,-0.009292573,1,0,0,0.7147,optionLeft,80,13330,6,22,0,22,0,1,,,,,,,,,,,,,,,,,,,,,,,,,,,,,,,,,,,,,,,
,,,,,,,,2023-08-16_08h39.16.964,HF_wild_card,2022.2.4,MacIntel,60.0024001,5b126ec7c85dc400016220a4,64d2fd46c836a06233681665,64dc7d055038957636d3cdd8,,,,,,,sngl,resources/DP.BMP,resources/Empty.png,Door4,-0.290364293,-0.028601539,1,0,0,0.5646,optionLeft,60,13390,6,23,0,23,0,1,,,,,,,,,,,,,,,,,,,,,,,,,,,,,,,,,,,,,,,
,,,,,,,,2023-08-16_08h39.16.964,HF_wild_card,2022.2.4,MacIntel,60.0024001,5b126ec7c85dc400016220a4,64d2fd46c836a06233681665,64dc7d055038957636d3cdd8,,,,,,,ctch,resources/DP.BMP,resources/DG.BMP,Door4,-0.232312942,-0.022006022,1,0,0,0.8311,optionLeft,80,13470,6,24,0,24,0,1,,,,,,,,,,,,,,,,,,,,,,,,,,,,,,,,,,,,,,,
,,,,,,,,2023-08-16_08h39.16.964,HF_wild_card,2022.2.4,MacIntel,60.0024001,5b126ec7c85dc400016220a4,64d2fd46c836a06233681665,64dc7d055038957636d3cdd8,,,,,,,decisionTrl,resources/DB.BMP,resources/DG.BMP,Door1,0.237626488,-0.038506441,1,0,0,0.7304,optionRight,30,13500,6,25,0,25,0,1,,,,,,,,,,,,,,,,,,,,,,,,,,,,,,,,,,,,,,,
,,,,,,,,2023-08-16_08h39.16.964,HF_wild_card,2022.2.4,MacIntel,60.0024001,5b126ec7c85dc400016220a4,64d2fd46c836a06233681665,64dc7d055038957636d3cdd8,,,,,,,ctch,resources/DB.BMP,resources/DY.BMP,Door3,0.193192778,0.010515253,1,0,0,0.6821,optionRight,70,13570,6,26,0,26,0,1,,,,,,,,,,,,,,,,,,,,,,,,,,,,,,,,,,,,,,,
,,,,,,,,2023-08-16_08h39.16.964,HF_wild_card,2022.2.4,MacIntel,60.0024001,5b126ec7c85dc400016220a4,64d2fd46c836a06233681665,64dc7d055038957636d3cdd8,,,,,,,decisionTrl,resources/DG.BMP,resources/DB.BMP,Door1,-0.228500977,-0.003245268,1,0,0,0.6307,optionLeft,30,13600,6,27,0,27,0,1,,,,,,,,,,,,,,,,,,,,,,,,,,,,,,,,,,,,,,,
,,,,,,,,2023-08-16_08h39.16.964,HF_wild_card,2022.2.4,MacIntel,60.0024001,5b126ec7c85dc400016220a4,64d2fd46c836a06233681665,64dc7d055038957636d3cdd8,,,,,,,decisionTrl,resources/DY.BMP,resources/DBN.BMP,Door3,-0.18782895,-0.011732759,1,0,0,1.3659,optionLeft,70,13670,6,28,0,28,0,1,,,,,,,,,,,,,,,,,,,,,,,,,,,,,,,,,,,,,,,
,,,,,,,,2023-08-16_08h39.16.964,HF_wild_card,2022.2.4,MacIntel,60.0024001,5b126ec7c85dc400016220a4,64d2fd46c836a06233681665,64dc7d055038957636d3cdd8,,,,,,,sngl,resources/DBN.BMP,resources/Empty.png,WildCard_Ex,-0.253690127,0.009114641,1,0,0,0.6302,optionLeft,45,13715,6,29,0,29,0,1,,,,,,,,,,,,,,,,,,,,,,,,,,,,,,,,,,,,,,,
,,,,,,,,2023-08-16_08h39.16.964,HF_wild_card,2022.2.4,MacIntel,60.0024001,5b126ec7c85dc400016220a4,64d2fd46c836a06233681665,64dc7d055038957636d3cdd8,,,,,,,decisionTrl,resources/DY.BMP,resources/DP.BMP,Door4,0.221542969,-0.004758591,1,0,0,1.2651,optionRight,60,13775,6,30,0,30,0,1,,,,,,,,,,,,,,,,,,,,,,,,,,,,,,,,,,,,,,,
,,,,,,,,2023-08-16_08h39.16.964,HF_wild_card,2022.2.4,MacIntel,60.0024001,5b126ec7c85dc400016220a4,64d2fd46c836a06233681665,64dc7d055038957636d3cdd8,,,,,,,sngl,resources/DG.BMP,resources/Empty.png,Door1,-0.184260951,-0.008503069,1,0,0,0.5971,optionLeft,30,13805,6,31,0,31,0,1,,,,,,,,,,,,,,,,,,,,,,,,,,,,,,,,,,,,,,,
,,,,,,,,2023-08-16_08h39.16.964,HF_wild_card,2022.2.4,MacIntel,60.0024001,5b126ec7c85dc400016220a4,64d2fd46c836a06233681665,64dc7d055038957636d3cdd8,,,,,,,decisionTrl,resources/DG.BMP,resources/DB.BMP,Door1,-0.186859305,-0.02218407,1,0,0,0.8302,optionLeft,30,13835,6,32,0,32,0,1,,,,,,,,,,,,,,,,,,,,,,,,,,,,,,,,,,,,,,,
,,,,,,,,2023-08-16_08h39.16.964,HF_wild_card,2022.2.4,MacIntel,60.0024001,5b126ec7c85dc400016220a4,64d2fd46c836a06233681665,64dc7d055038957636d3cdd8,,,,,,,decisionTrl,resources/DP.BMP,resources/DY.BMP,Door3,0.28664295,-0.035853213,1,0,0,1.0649,optionRight,70,13905,6,33,0,33,0,1,,,,,,,,,,,,,,,,,,,,,,,,,,,,,,,,,,,,,,,
,,,,,,,,2023-08-16_08h39.16.964,HF_wild_card,2022.2.4,MacIntel,60.0024001,5b126ec7c85dc400016220a4,64d2fd46c836a06233681665,64dc7d055038957636d3cdd8,,,,,,,sngl,resources/Empty.png,resources/DBN.BMP,WildCard_Ex,0.236425084,0.034463704,1,0,0,0.6817,optionRight,55,13960,6,34,0,34,0,1,,,,,,,,,,,,,,,,,,,,,,,,,,,,,,,,,,,,,,,
,,,,,,,,2023-08-16_08h39.16.964,HF_wild_card,2022.2.4,MacIntel,60.0024001,5b126ec7c85dc400016220a4,64d2fd46c836a06233681665,64dc7d055038957636d3cdd8,,,,,,,decisionTrl,resources/DB.BMP,resources/DG.BMP,Door1,0.255403878,0.016193877,1,0,0,0.6985,optionRight,30,13990,6,35,0,35,0,1,,,,,,,,,,,,,,,,,,,,,,,,,,,,,,,,,,,,,,,
,,,,,,,,2023-08-16_08h39.16.964,HF_wild_card,2022.2.4,MacIntel,60.0024001,5b126ec7c85dc400016220a4,64d2fd46c836a06233681665,64dc7d055038957636d3cdd8,,,,,,,decisionTrl,resources/DBN.BMP,resources/DG.BMP,WildCard_Ex,-0.208848412,0.008036761,1,0,0,1.381,optionLeft,45,14035,6,36,0,36,0,1,,,,,,,,,,,,,,,,,,,,,,,,,,,,,,,,,,,,,,,
,,,,,,,,2023-08-16_08h39.16.964,HF_wild_card,2022.2.4,MacIntel,60.0024001,5b126ec7c85dc400016220a4,64d2fd46c836a06233681665,64dc7d055038957636d3cdd8,,,,,,,sngl,resources/Empty.png,resources/DB.BMP,Door2,0.250277041,0.019655355,1,0,0,4.2476,optionRight,40,14075,6,37,0,37,0,1,,,,,,,,,,,,,,,,,,,,,,,,,,,,,,,,,,,,,,,
,,,,,,,,2023-08-16_08h39.16.964,HF_wild_card,2022.2.4,MacIntel,60.0024001,5b126ec7c85dc400016220a4,64d2fd46c836a06233681665,64dc7d055038957636d3cdd8,,,,,,,sngl,resources/DBN.BMP,resources/Empty.png,WildCard_Ex,-0.217496512,-0.021564535,1,0,0,0.6143,optionLeft,55,14130,6,38,0,38,0,1,,,,,,,,,,,,,,,,,,,,,,,,,,,,,,,,,,,,,,,
,,,,,,,,2023-08-16_08h39.16.964,HF_wild_card,2022.2.4,MacIntel,60.0024001,5b126ec7c85dc400016220a4,64d2fd46c836a06233681665,64dc7d055038957636d3cdd8,,,,,,,decisionTrl,resources/DP.BMP,resources/DY.BMP,Door4,-0.222493257,-0.001290748,1,0,0,2.2805,optionLeft,60,14190,6,39,0,39,0,1,,,,,,,,,,,,,,,,,,,,,,,,,,,,,,,,,,,,,,,
,,,,,,,,2023-08-16_08h39.16.964,HF_wild_card,2022.2.4,MacIntel,60.0024001,5b126ec7c85dc400016220a4,64d2fd46c836a06233681665,64dc7d055038957636d3cdd8,,,,,,,sngl,resources/DY.BMP,resources/Empty.png,Door3,-0.227652414,-0.027084554,1,0,0,0.5304,optionLeft,70,14260,6,40,0,40,0,1,,,,,,,,,,,,,,,,,,,,,,,,,,,,,,,,,,,,,,,
,,,,,,,,2023-08-16_08h39.16.964,HF_wild_card,2022.2.4,MacIntel,60.0024001,5b126ec7c85dc400016220a4,64d2fd46c836a06233681665,64dc7d055038957636d3cdd8,,,,,,,ctch,resources/DY.BMP,resources/DB.BMP,Door3,-0.209549154,-0.02347075,1,0,0,0.6482,optionLeft,70,14330,6,41,0,41,0,1,,,,,,,,,,,,,,,,,,,,,,,,,,,,,,,,,,,,,,,
,,,,,,,,2023-08-16_08h39.16.964,HF_wild_card,2022.2.4,MacIntel,60.0024001,5b126ec7c85dc400016220a4,64d2fd46c836a06233681665,64dc7d055038957636d3cdd8,,,,,,,decisionTrl,resources/DG.BMP,resources/DB.BMP,Door1,-0.257431757,0.002173782,1,0,0,0.9646,optionLeft,30,14360,6,42,0,42,0,1,,,,,,,,,,,,,,,,,,,,,,,,,,,,,,,,,,,,,,,
,,,,,,,,2023-08-16_08h39.16.964,HF_wild_card,2022.2.4,MacIntel,60.0024001,5b126ec7c85dc400016220a4,64d2fd46c836a06233681665,64dc7d055038957636d3cdd8,,,,,,,decisionTrl,resources/DP.BMP,resources/DY.BMP,Door3,0.219177014,0.000671096,1,0,0,1.5481,optionRight,70,14430,6,43,0,43,0,1,,,,,,,,,,,,,,,,,,,,,,,,,,,,,,,,,,,,,,,
,,,,,,,,2023-08-16_08h39.16.964,HF_wild_card,2022.2.4,MacIntel,60.0024001,5b126ec7c85dc400016220a4,64d2fd46c836a06233681665,64dc7d055038957636d3cdd8,,,,,,,,,,,,,,,,,,,,,,,,,,5,0,5,0,1,,,,,,,,,,,,,,,,,,,,,,,,,,,,,,,,,,
,,,,,,,,2023-08-16_08h39.16.964,HF_wild_card,2022.2.4,MacIntel,60.0024001,5b126ec7c85dc400016220a4,64d2fd46c836a06233681665,64dc7d055038957636d3cdd8,,,,,,,decisionTrl,resources/DY.BMP,resources/DP.BMP,Door4,0.217976539,-0.148909738,1,0,0,1.8352,optionRight,60,14490,7,0,0,0,0,1,,,,,,,,,,,,,,,,,,,,,,,,,,,,,,,,,,,,,,,
,,,,,,,,2023-08-16_08h39.16.964,HF_wild_card,2022.2.4,MacIntel,60.0024001,5b126ec7c85dc400016220a4,64d2fd46c836a06233681665,64dc7d055038957636d3cdd8,,,,,,,decisionTrl,resources/DG.BMP,resources/DB.BMP,Door1,-0.138561256,-0.029486375,1,0,0,0.765,optionLeft,30,14520,7,1,0,1,0,1,,,,,,,,,,,,,,,,,,,,,,,,,,,,,,,,,,,,,,,
,,,,,,,,2023-08-16_08h39.16.964,HF_wild_card,2022.2.4,MacIntel,60.0024001,5b126ec7c85dc400016220a4,64d2fd46c836a06233681665,64dc7d055038957636d3cdd8,,,,,,,ctch,resources/DG.BMP,resources/DP.BMP,Door4,0.30048956,-0.015919189,1,0,0,1.499,optionRight,60,14580,7,2,0,2,0,1,,,,,,,,,,,,,,,,,,,,,,,,,,,,,,,,,,,,,,,
,,,,,,,,2023-08-16_08h39.16.964,HF_wild_card,2022.2.4,MacIntel,60.0024001,5b126ec7c85dc400016220a4,64d2fd46c836a06233681665,64dc7d055038957636d3cdd8,,,,,,,decisionTrl,resources/DB.BMP,resources/DG.BMP,Door1,0.311153855,-0.002580101,1,0,0,0.8656,optionRight,30,14610,7,3,0,3,0,1,,,,,,,,,,,,,,,,,,,,,,,,,,,,,,,,,,,,,,,
,,,,,,,,2023-08-16_08h39.16.964,HF_wild_card,2022.2.4,MacIntel,60.0024001,5b126ec7c85dc400016220a4,64d2fd46c836a06233681665,64dc7d055038957636d3cdd8,,,,,,,decisionTrl,resources/DG.BMP,resources/DB.BMP,Door1,-0.230495373,0.009753244,1,0,0,0.7831,optionLeft,30,14640,7,4,0,4,0,1,,,,,,,,,,,,,,,,,,,,,,,,,,,,,,,,,,,,,,,
,,,,,,,,2023-08-16_08h39.16.964,HF_wild_card,2022.2.4,MacIntel,60.0024001,5b126ec7c85dc400016220a4,64d2fd46c836a06233681665,64dc7d055038957636d3cdd8,,,,,,,ctch,resources/DP.BMP,resources/DG.BMP,Door4,-0.252419085,-0.008453195,1,0,0,0.8479,optionLeft,80,14720,7,5,0,5,0,1,,,,,,,,,,,,,,,,,,,,,,,,,,,,,,,,,,,,,,,
,,,,,,,,2023-08-16_08h39.16.964,HF_wild_card,2022.2.4,MacIntel,60.0024001,5b126ec7c85dc400016220a4,64d2fd46c836a06233681665,64dc7d055038957636d3cdd8,,,,,,,decisionTrl,resources/DY.BMP,resources/DP.BMP,Door4,0.228560384,-0.021721482,1,0,0,2.0493,optionRight,80,14800,7,6,0,6,0,1,,,,,,,,,,,,,,,,,,,,,,,,,,,,,,,,,,,,,,,
,,,,,,,,2023-08-16_08h39.16.964,HF_wild_card,2022.2.4,MacIntel,60.0024001,5b126ec7c85dc400016220a4,64d2fd46c836a06233681665,64dc7d055038957636d3cdd8,,,,,,,ctch,resources/DG.BMP,resources/DP.BMP,Door4,0.30513451,-0.002480236,1,0,0,0.6988,optionRight,60,14860,7,7,0,7,0,1,,,,,,,,,,,,,,,,,,,,,,,,,,,,,,,,,,,,,,,
,,,,,,,,2023-08-16_08h39.16.964,HF_wild_card,2022.2.4,MacIntel,60.0024001,5b126ec7c85dc400016220a4,64d2fd46c836a06233681665,64dc7d055038957636d3cdd8,,,,,,,decisionTrl,resources/DB.BMP,resources/DG.BMP,Door1,0.284877581,-0.00537121,1,0,0,0.8823,optionRight,30,14890,7,8,0,8,0,1,,,,,,,,,,,,,,,,,,,,,,,,,,,,,,,,,,,,,,,
,,,,,,,,2023-08-16_08h39.16.964,HF_wild_card,2022.2.4,MacIntel,60.0024001,5b126ec7c85dc400016220a4,64d2fd46c836a06233681665,64dc7d055038957636d3cdd8,,,,,,,decisionTrl,resources/DP.BMP,resources/DY.BMP,Door4,-0.18595552,-0.006384219,1,0,0,2.1152,optionLeft,80,14970,7,9,0,9,0,1,,,,,,,,,,,,,,,,,,,,,,,,,,,,,,,,,,,,,,,
,,,,,,,,2023-08-16_08h39.16.964,HF_wild_card,2022.2.4,MacIntel,60.0024001,5b126ec7c85dc400016220a4,64d2fd46c836a06233681665,64dc7d055038957636d3cdd8,,,,,,,ctch,resources/DB.BMP,resources/DY.BMP,Door3,0.344726214,0.012944627,1,0,0,0.7494,optionRight,70,15040,7,10,0,10,0,1,,,,,,,,,,,,,,,,,,,,,,,,,,,,,,,,,,,,,,,
,,,,,,,,2023-08-16_08h39.16.964,HF_wild_card,2022.2.4,MacIntel,60.0024001,5b126ec7c85dc400016220a4,64d2fd46c836a06233681665,64dc7d055038957636d3cdd8,,,,,,,ctch,resources/DY.BMP,resources/DB.BMP,Door3,-0.265141602,0.001087937,1,0,0,0.7,optionLeft,70,15110,7,11,0,11,0,1,,,,,,,,,,,,,,,,,,,,,,,,,,,,,,,,,,,,,,,
,,,,,,,,2023-08-16_08h39.16.964,HF_wild_card,2022.2.4,MacIntel,60.0024001,5b126ec7c85dc400016220a4,64d2fd46c836a06233681665,64dc7d055038957636d3cdd8,,,,,,,ctch,resources/DY.BMP,resources/DB.BMP,Door3,-0.248334322,-0.000575067,1,0,0,0.6156,optionLeft,70,15180,7,12,0,12,0,1,,,,,,,,,,,,,,,,,,,,,,,,,,,,,,,,,,,,,,,
,,,,,,,,2023-08-16_08h39.16.964,HF_wild_card,2022.2.4,MacIntel,60.0024001,5b126ec7c85dc400016220a4,64d2fd46c836a06233681665,64dc7d055038957636d3cdd8,,,,,,,decisionTrl,resources/DP.BMP,resources/DY.BMP,Door3,0.278674781,-0.046879418,1,0,0,1.5486,optionRight,70,15250,7,13,0,13,0,1,,,,,,,,,,,,,,,,,,,,,,,,,,,,,,,,,,,,,,,
,,,,,,,,2023-08-16_08h39.16.964,HF_wild_card,2022.2.4,MacIntel,60.0024001,5b126ec7c85dc400016220a4,64d2fd46c836a06233681665,64dc7d055038957636d3cdd8,,,,,,,ctch,resources/DP.BMP,resources/DG.BMP,Door4,-0.281413807,-0.023202776,1,0,0,0.7993,optionLeft,80,15330,7,14,0,14,0,1,,,,,,,,,,,,,,,,,,,,,,,,,,,,,,,,,,,,,,,
,,,,,,,,2023-08-16_08h39.16.964,HF_wild_card,2022.2.4,MacIntel,60.0024001,5b126ec7c85dc400016220a4,64d2fd46c836a06233681665,64dc7d055038957636d3cdd8,,,,,,,decisionTrl,resources/DY.BMP,resources/DP.BMP,Door3,-0.269596238,-0.003751395,1,0,0,1.849,optionLeft,70,15400,7,15,0,15,0,1,,,,,,,,,,,,,,,,,,,,,,,,,,,,,,,,,,,,,,,
,,,,,,,,2023-08-16_08h39.16.964,HF_wild_card,2022.2.4,MacIntel,60.0024001,5b126ec7c85dc400016220a4,64d2fd46c836a06233681665,64dc7d055038957636d3cdd8,,,,,,,ctch,resources/DP.BMP,resources/DG.BMP,Door4,-0.291126128,-0.029596819,1,0,0,0.8986,optionLeft,80,15480,7,16,0,16,0,1,,,,,,,,,,,,,,,,,,,,,,,,,,,,,,,,,,,,,,,
,,,,,,,,2023-08-16_08h39.16.964,HF_wild_card,2022.2.4,MacIntel,60.0024001,5b126ec7c85dc400016220a4,64d2fd46c836a06233681665,64dc7d055038957636d3cdd8,,,,,,,decisionTrl,resources/DB.BMP,resources/DG.BMP,Door1,0.325526879,-0.0117638,1,0,0,0.6988,optionRight,30,15510,7,17,0,17,0,1,,,,,,,,,,,,,,,,,,,,,,,,,,,,,,,,,,,,,,,
,,,,,,,,2023-08-16_08h39.16.964,HF_wild_card,2022.2.4,MacIntel,60.0024001,5b126ec7c85dc400016220a4,64d2fd46c836a06233681665,64dc7d055038957636d3cdd8,,,,,,,decisionTrl,resources/DB.BMP,resources/DG.BMP,Door1,0.300249837,0.000202637,1,0,0,1.3157,optionRight,30,15540,7,18,0,18,0,1,,,,,,,,,,,,,,,,,,,,,,,,,,,,,,,,,,,,,,,
,,,,,,,,2023-08-16_08h39.16.964,HF_wild_card,2022.2.4,MacIntel,60.0024001,5b126ec7c85dc400016220a4,64d2fd46c836a06233681665,64dc7d055038957636d3cdd8,,,,,,,ctch,resources/DB.BMP,resources/DY.BMP,Door3,0.29014381,-0.017883301,1,0,0,1.3329,optionRight,70,15610,7,19,0,19,0,1,,,,,,,,,,,,,,,,,,,,,,,,,,,,,,,,,,,,,,,
,,,,,,,,2023-08-16_08h39.16.964,HF_wild_card,2022.2.4,MacIntel,60.0024001,5b126ec7c85dc400016220a4,64d2fd46c836a06233681665,64dc7d055038957636d3cdd8,,,,,,,decisionTrl,resources/DY.BMP,resources/DP.BMP,Door4,0.265337612,-0.035580648,1,0,0,2.7327,optionRight,60,15670,7,20,0,20,0,1,,,,,,,,,,,,,,,,,,,,,,,,,,,,,,,,,,,,,,,
,,,,,,,,2023-08-16_08h39.16.964,HF_wild_card,2022.2.4,MacIntel,60.0024001,5b126ec7c85dc400016220a4,64d2fd46c836a06233681665,64dc7d055038957636d3cdd8,,,,,,,decisionTrl,resources/DP.BMP,resources/DY.BMP,Door4,-0.286535645,-0.028525042,1,0,0,0.8154,optionLeft,80,15750,7,21,0,21,0,1,,,,,,,,,,,,,,,,,,,,,,,,,,,,,,,,,,,,,,,
,,,,,,,,2023-08-16_08h39.16.964,HF_wild_card,2022.2.4,MacIntel,60.0024001,5b126ec7c85dc400016220a4,64d2fd46c836a06233681665,64dc7d055038957636d3cdd8,,,,,,,decisionTrl,resources/DP.BMP,resources/DY.BMP,Door3,0.316551688,-0.050048886,1,0,0,2.0322,optionRight,70,15820,7,22,0,22,0,1,,,,,,,,,,,,,,,,,,,,,,,,,,,,,,,,,,,,,,,
,,,,,,,,2023-08-16_08h39.16.964,HF_wild_card,2022.2.4,MacIntel,60.0024001,5b126ec7c85dc400016220a4,64d2fd46c836a06233681665,64dc7d055038957636d3cdd8,,,,,,,decisionTrl,resources/DG.BMP,resources/DB.BMP,Door1,-0.283310082,0.006067301,1,0,0,0.7992,optionLeft,30,15850,7,23,0,23,0,1,,,,,,,,,,,,,,,,,,,,,,,,,,,,,,,,,,,,,,,
,,,,,,,,2023-08-16_08h39.16.964,HF_wild_card,2022.2.4,MacIntel,60.0024001,5b126ec7c85dc400016220a4,64d2fd46c836a06233681665,64dc7d055038957636d3cdd8,,,,,,,decisionTrl,resources/DP.BMP,resources/DY.BMP,Door4,-0.270634533,0.018523589,1,0,0,2.6488,optionLeft,80,15930,7,24,0,24,0,1,,,,,,,,,,,,,,,,,,,,,,,,,,,,,,,,,,,,,,,
,,,,,,,,2023-08-16_08h39.16.964,HF_wild_card,2022.2.4,MacIntel,60.0024001,5b126ec7c85dc400016220a4,64d2fd46c836a06233681665,64dc7d055038957636d3cdd8,,,,,,,decisionTrl,resources/DG.BMP,resources/DB.BMP,Door2,0.318044666,-0.012312128,1,0,0,0.6679,optionRight,20,15950,7,25,0,25,0,1,,,,,,,,,,,,,,,,,,,,,,,,,,,,,,,,,,,,,,,
,,,,,,,,2023-08-16_08h39.16.964,HF_wild_card,2022.2.4,MacIntel,60.0024001,5b126ec7c85dc400016220a4,64d2fd46c836a06233681665,64dc7d055038957636d3cdd8,,,,,,,decisionTrl,resources/DY.BMP,resources/DP.BMP,Door3,-0.284621059,-0.015189848,1,0,0,4.1813,optionLeft,70,16020,7,26,0,26,0,1,,,,,,,,,,,,,,,,,,,,,,,,,,,,,,,,,,,,,,,
,,,,,,,,2023-08-16_08h39.16.964,HF_wild_card,2022.2.4,MacIntel,60.0024001,5b126ec7c85dc400016220a4,64d2fd46c836a06233681665,64dc7d055038957636d3cdd8,,,,,,,decisionTrl,resources/DB.BMP,resources/DG.BMP,Door1,0.328250209,-0.000653018,1,0,0,0.7822,optionRight,30,16050,7,27,0,27,0,1,,,,,,,,,,,,,,,,,,,,,,,,,,,,,,,,,,,,,,,
,,,,,,,,2023-08-16_08h39.16.964,HF_wild_card,2022.2.4,MacIntel,60.0024001,5b126ec7c85dc400016220a4,64d2fd46c836a06233681665,64dc7d055038957636d3cdd8,,,,,,,decisionTrl,resources/DY.BMP,resources/DP.BMP,Door3,-0.296738572,0.002470645,1,0,0,1.7658,optionLeft,70,16120,7,28,0,28,0,1,,,,,,,,,,,,,,,,,,,,,,,,,,,,,,,,,,,,,,,
,,,,,,,,2023-08-16_08h39.16.964,HF_wild_card,2022.2.4,MacIntel,60.0024001,5b126ec7c85dc400016220a4,64d2fd46c836a06233681665,64dc7d055038957636d3cdd8,,,,,,,ctch,resources/DG.BMP,resources/DP.BMP,Door4,0.342470354,0.006836286,1,0,0,0.7319,optionRight,60,16180,7,29,0,29,0,1,,,,,,,,,,,,,,,,,,,,,,,,,,,,,,,,,,,,,,,
,,,,,,,,2023-08-16_08h39.16.964,HF_wild_card,2022.2.4,MacIntel,60.0024001,5b126ec7c85dc400016220a4,64d2fd46c836a06233681665,64dc7d055038957636d3cdd8,,,,,,,decisionTrl,resources/DP.BMP,resources/DY.BMP,Door3,0.226733863,-0.023287295,1,0,0,1.6146,optionRight,70,16250,7,30,0,30,0,1,,,,,,,,,,,,,,,,,,,,,,,,,,,,,,,,,,,,,,,
,,,,,,,,2023-08-16_08h39.16.964,HF_wild_card,2022.2.4,MacIntel,60.0024001,5b126ec7c85dc400016220a4,64d2fd46c836a06233681665,64dc7d055038957636d3cdd8,,,,,,,decisionTrl,resources/DG.BMP,resources/DB.BMP,Door1,-0.28894165,-0.000648251,1,0,0,0.9993,optionLeft,30,16280,7,31,0,31,0,1,,,,,,,,,,,,,,,,,,,,,,,,,,,,,,,,,,,,,,,
,,,,,,,,2023-08-16_08h39.16.964,HF_wild_card,2022.2.4,MacIntel,60.0024001,5b126ec7c85dc400016220a4,64d2fd46c836a06233681665,64dc7d055038957636d3cdd8,,,,,,,ctch,resources/DB.BMP,resources/DY.BMP,Door3,0.333110352,-0.011755487,1,0,0,0.8325,optionRight,70,16350,7,32,0,32,0,1,,,,,,,,,,,,,,,,,,,,,,,,,,,,,,,,,,,,,,,
,,,,,,,,2023-08-16_08h39.16.964,HF_wild_card,2022.2.4,MacIntel,60.0024001,5b126ec7c85dc400016220a4,64d2fd46c836a06233681665,64dc7d055038957636d3cdd8,,,,,,,decisionTrl,resources/DB.BMP,resources/DG.BMP,Door1,0.290581171,0.009082031,1,0,0,0.9648,optionRight,30,16380,7,33,0,33,0,1,,,,,,,,,,,,,,,,,,,,,,,,,,,,,,,,,,,,,,,
,,,,,,,,2023-08-16_08h39.16.964,HF_wild_card,2022.2.4,MacIntel,60.0024001,5b126ec7c85dc400016220a4,64d2fd46c836a06233681665,64dc7d055038957636d3cdd8,,,,,,,ctch,resources/DY.BMP,resources/DB.BMP,Door3,-0.332482416,-0.000750674,1,0,0,0.9314,optionLeft,70,16450,7,34,0,34,0,1,,,,,,,,,,,,,,,,,,,,,,,,,,,,,,,,,,,,,,,
,,,,,,,,2023-08-16_08h39.16.964,HF_wild_card,2022.2.4,MacIntel,60.0024001,5b126ec7c85dc400016220a4,64d2fd46c836a06233681665,64dc7d055038957636d3cdd8,,,,,,,decisionTrl,resources/DG.BMP,resources/DB.BMP,Door1,-0.308196498,-0.004093018,1,0,0,1.1151,optionLeft,30,16480,7,35,0,35,0,1,,,,,,,,,,,,,,,,,,,,,,,,,,,,,,,,,,,,,,,
,,,,,,,,2023-08-16_08h39.16.964,HF_wild_card,2022.2.4,MacIntel,60.0024001,5b126ec7c85dc400016220a4,64d2fd46c836a06233681665,64dc7d055038957636d3cdd8,,,,,,,,,,,,,,,,,,,,,,,,,,6,0,6,0,1,,,,,,,,,,,,,,,,,,,,,,,,,,,,,,,,,,
,,,,,,,,2023-08-16_08h39.16.964,HF_wild_card,2022.2.4,MacIntel,60.0024001,5b126ec7c85dc400016220a4,64d2fd46c836a06233681665,64dc7d055038957636d3cdd8,,,,,,,,,,,,,,,,,,,,,,,,,,,,,,,4,,,,,,,,,,,,,,,,,,,,,,,,,,,,,,,,,
,,,,,,,,2023-08-16_08h39.16.964,HF_wild_card,2022.2.4,MacIntel,60.0024001,5b126ec7c85dc400016220a4,64d2fd46c836a06233681665,64dc7d055038957636d3cdd8,,,,,,,,,,,,,,,,,,,,,,,,,,,,,,,,,,,,,,,,,,,,,,,,,,,,,,,,,,,,,,,,
,,,,,,,,2023-08-16_08h39.16.964,HF_wild_card,2022.2.4,MacIntel,60.0024001,5b126ec7c85dc400016220a4,64d2fd46c836a06233681665,64dc7d055038957636d3cdd8,,,,,,,,,,,,,,,,,,,,,,,,,,,,,,,,55,WC_nonExtreme,resources/DR.BMP,0,0,0,0,1,,,,,,,,,,,,,,,,,,,,,,,,,
,,,,,,,,2023-08-16_08h39.16.964,HF_wild_card,2022.2.4,MacIntel,60.0024001,5b126ec7c85dc400016220a4,64d2fd46c836a06233681665,64dc7d055038957636d3cdd8,,,,,,,,,,,,,,,,,,,,,,,,,,,,,,,,45,WC_extreme,resources/DBN.BMP,1,0,1,0,1,,,,,,,,,,,,,,,,,,,,,,,,,
,,,,,,,,2023-08-16_08h39.16.964,HF_wild_card,2022.2.4,MacIntel,60.0024001,5b126ec7c85dc400016220a4,64d2fd46c836a06233681665,64dc7d055038957636d3cdd8,,,,,,,,,,,,,,,,,,,,,,,,,,,,,,,,20,Door2,resources/DB.BMP,2,0,2,0,1,,,,,,,,,,,,,,,,,,,,,,,,,
,,,,,,,,2023-08-16_08h39.16.964,HF_wild_card,2022.2.4,MacIntel,60.0024001,5b126ec7c85dc400016220a4,64d2fd46c836a06233681665,64dc7d055038957636d3cdd8,,,,,,,,,,,,,,,,,,,,,,,,,,,,,,,,30,Door1,resources/DG.BMP,3,0,3,0,1,,,,,,,,,,,,,,,,,,,,,,,,,
