Condition,Low fixed image (Door1),Low risky image (Door2),High fixed image (Door3),High risky image (Door4),Extreme Wild Card,NonExtreme Wild Card,,date,expName,psychopyVersion,OS,frameRate,PROLIFIC_PID,STUDY_ID,SESSION_ID,mouse_2.x,mouse_2.y,mouse_2.leftButton,mouse_2.midButton,mouse_2.rightButton,mouse_2.clicked_name,Trial Type,Left Option Image,Right Option Image,Chosen Door,mouse.x,mouse.y,mouse.leftButton,mouse.midButton,mouse.rightButton,mouse.time,mouse.clicked_name,Feedback,Cumulative Reward,Block,trial.thisRepN,trial.thisTrialN,trial.thisN,trial.thisIndex,trial.ran,blocks.thisRepN,blocks.thisTrialN,blocks.thisN,blocks.thisIndex,blocks.ran,Money conversion,First Outcome Reported,Shown Door (First Outcome),Displayed Image (First Outcome),outcomes.thisRepN,outcomes.thisTrialN,outcomes.thisN,outcomes.thisIndex,outcomes.ran,judgments.thisRepN,judgments.thisTrialN,judgments.thisN,judgments.thisIndex,judgments.ran,freqMouse.x,freqMouse.y,freqMouse.leftButton,freqMouse.midButton,freqMouse.rightButton,freqMouse.clicked_name,FQJ for first outcome,FQJ for second outcome,Shown Door,Displayed Image,trials.thisRepN,trials.thisTrialN,trials.thisN,trials.thisIndex,trials.ran,judgBlock.thisRepN,judgBlock.thisTrialN,judgBlock.thisN,judgBlock.thisIndex,judgBlock.ran
0,resources/DP.BMP,resources/DG.BMP,resources/DR.BMP,resources/DBN.BMP,resources/DY.BMP,resources/DB.BMP,,2023-08-16_09h31.03.216,HF_wild_card,2022.2.4,Win32,58.82352941,5f5d51785a31085a80509958,64d2fd46c836a06233681665,64dc7af46affa6e52df02f8d,,,,,,,,,,,,,,,,,,,,,,,,,,,,,,,,,,,,,,,,,,,,,,,,,,,,,,,,,,,,,,,,
,,,,,,,,2023-08-16_09h31.03.216,HF_wild_card,2022.2.4,Win32,58.82352941,5f5d51785a31085a80509958,64d2fd46c836a06233681665,64dc7af46affa6e52df02f8d,-0.002222222,-0.416666667,1,0,0,agree,,,,,,,,,,,,,,,,,,,,,,,,,,,,,,,,,,,,,,,,,,,,,,,,,,,,,,,,,,
,,,,,,,,2023-08-16_09h31.03.216,HF_wild_card,2022.2.4,Win32,58.82352941,5f5d51785a31085a80509958,64d2fd46c836a06233681665,64dc7af46affa6e52df02f8d,,,,,,,,,,,,,,,,,,,,,,,,,,,,,,,,,,,,,,,,,,,,,,,,,,,,,,,,,,,,,,,,
,,,,,,,,2023-08-16_09h31.03.216,HF_wild_card,2022.2.4,Win32,58.82352941,5f5d51785a31085a80509958,64d2fd46c836a06233681665,64dc7af46affa6e52df02f8d,,,,,,,ctch,resources/DBN.BMP,resources/DP.BMP,Door1,0.042222222,-0.308888889,1,0,0,0.099,optionRight,30,30,1,0,0,0,0,1,,,,,,,,,,,,,,,,,,,,,,,,,,,,,,,,,,,,,,,
,,,,,,,,2023-08-16_09h31.03.216,HF_wild_card,2022.2.4,Win32,58.82352941,5f5d51785a31085a80509958,64d2fd46c836a06233681665,64dc7af46affa6e52df02f8d,,,,,,,ctch,resources/DG.BMP,resources/DR.BMP,Door3,0.005555556,0.007777778,1,0,0,0.11,optionRight,70,100,1,1,0,1,0,1,,,,,,,,,,,,,,,,,,,,,,,,,,,,,,,,,,,,,,,
,,,,,,,,2023-08-16_09h31.03.216,HF_wild_card,2022.2.4,Win32,58.82352941,5f5d51785a31085a80509958,64d2fd46c836a06233681665,64dc7af46affa6e52df02f8d,,,,,,,sngl,resources/DY.BMP,resources/Empty.png,WildCard_Ex,-0.003333333,-0.008888889,1,0,0,0.063,optionLeft,95,195,1,2,0,2,0,1,,,,,,,,,,,,,,,,,,,,,,,,,,,,,,,,,,,,,,,
,,,,,,,,2023-08-16_09h31.03.216,HF_wild_card,2022.2.4,Win32,58.82352941,5f5d51785a31085a80509958,64d2fd46c836a06233681665,64dc7af46affa6e52df02f8d,,,,,,,decisionTrl,resources/DY.BMP,resources/DBN.BMP,WildCard_Ex,-0.356666667,-0.033333333,1,0,0,1.129,optionLeft,5,200,1,3,0,3,0,1,,,,,,,,,,,,,,,,,,,,,,,,,,,,,,,,,,,,,,,
,,,,,,,,2023-08-16_09h31.03.216,HF_wild_card,2022.2.4,Win32,58.82352941,5f5d51785a31085a80509958,64d2fd46c836a06233681665,64dc7af46affa6e52df02f8d,,,,,,,decisionTrl,resources/DG.BMP,resources/DY.BMP,WildCard_Ex,0.008888889,0.003333333,1,0,0,0.097,optionRight,5,205,1,4,0,4,0,1,,,,,,,,,,,,,,,,,,,,,,,,,,,,,,,,,,,,,,,
,,,,,,,,2023-08-16_09h31.03.216,HF_wild_card,2022.2.4,Win32,58.82352941,5f5d51785a31085a80509958,64d2fd46c836a06233681665,64dc7af46affa6e52df02f8d,,,,,,,ctch,resources/DBN.BMP,resources/DP.BMP,Door4,-0.001111111,0.004444444,1,0,0,0.079,optionLeft,80,285,1,5,0,5,0,1,,,,,,,,,,,,,,,,,,,,,,,,,,,,,,,,,,,,,,,
,,,,,,,,2023-08-16_09h31.03.216,HF_wild_card,2022.2.4,Win32,58.82352941,5f5d51785a31085a80509958,64d2fd46c836a06233681665,64dc7af46affa6e52df02f8d,,,,,,,decisionTrl,resources/DG.BMP,resources/DP.BMP,Door1,0,0.011111111,1,0,0,0.049,optionRight,30,315,1,6,0,6,0,1,,,,,,,,,,,,,,,,,,,,,,,,,,,,,,,,,,,,,,,
,,,,,,,,2023-08-16_09h31.03.216,HF_wild_card,2022.2.4,Win32,58.82352941,5f5d51785a31085a80509958,64d2fd46c836a06233681665,64dc7af46affa6e52df02f8d,,,,,,,decisionTrl,resources/DBN.BMP,resources/DR.BMP,Door4,-0.297777778,-0.026666667,1,0,0,0.685,optionLeft,80,395,1,7,0,7,0,1,,,,,,,,,,,,,,,,,,,,,,,,,,,,,,,,,,,,,,,
,,,,,,,,2023-08-16_09h31.03.216,HF_wild_card,2022.2.4,Win32,58.82352941,5f5d51785a31085a80509958,64d2fd46c836a06233681665,64dc7af46affa6e52df02f8d,,,,,,,decisionTrl,resources/DG.BMP,resources/DP.BMP,Door1,0.277777778,-0.007777778,1,0,0,0.646,optionRight,30,425,1,8,0,8,0,1,,,,,,,,,,,,,,,,,,,,,,,,,,,,,,,,,,,,,,,
,,,,,,,,2023-08-16_09h31.03.216,HF_wild_card,2022.2.4,Win32,58.82352941,5f5d51785a31085a80509958,64d2fd46c836a06233681665,64dc7af46affa6e52df02f8d,,,,,,,decisionTrl,resources/DBN.BMP,resources/DR.BMP,Door3,0.343333333,-0.011111111,1,0,0,0.643,optionRight,70,495,1,9,0,9,0,1,,,,,,,,,,,,,,,,,,,,,,,,,,,,,,,,,,,,,,,
,,,,,,,,2023-08-16_09h31.03.216,HF_wild_card,2022.2.4,Win32,58.82352941,5f5d51785a31085a80509958,64d2fd46c836a06233681665,64dc7af46affa6e52df02f8d,,,,,,,ctch,resources/DP.BMP,resources/DBN.BMP,Door1,-0.276666667,-0.01,1,0,0,0.73,optionLeft,30,525,1,10,0,10,0,1,,,,,,,,,,,,,,,,,,,,,,,,,,,,,,,,,,,,,,,
,,,,,,,,2023-08-16_09h31.03.216,HF_wild_card,2022.2.4,Win32,58.82352941,5f5d51785a31085a80509958,64d2fd46c836a06233681665,64dc7af46affa6e52df02f8d,,,,,,,sngl,resources/Empty.png,resources/DY.BMP,WildCard_Ex,0.311111111,-0.001111111,1,0,0,0.712,optionRight,95,620,1,11,0,11,0,1,,,,,,,,,,,,,,,,,,,,,,,,,,,,,,,,,,,,,,,
,,,,,,,,2023-08-16_09h31.03.216,HF_wild_card,2022.2.4,Win32,58.82352941,5f5d51785a31085a80509958,64d2fd46c836a06233681665,64dc7af46affa6e52df02f8d,,,,,,,sngl,resources/Empty.png,resources/DR.BMP,Door3,0.345555556,-0.007777778,1,0,0,0.583,optionRight,70,690,1,12,0,12,0,1,,,,,,,,,,,,,,,,,,,,,,,,,,,,,,,,,,,,,,,
,,,,,,,,2023-08-16_09h31.03.216,HF_wild_card,2022.2.4,Win32,58.82352941,5f5d51785a31085a80509958,64d2fd46c836a06233681665,64dc7af46affa6e52df02f8d,,,,,,,decisionTrl,resources/DP.BMP,resources/DG.BMP,Door1,-0.49,-0.022222222,1,0,0,1.142,optionLeft,30,720,1,13,0,13,0,1,,,,,,,,,,,,,,,,,,,,,,,,,,,,,,,,,,,,,,,
,,,,,,,,2023-08-16_09h31.03.216,HF_wild_card,2022.2.4,Win32,58.82352941,5f5d51785a31085a80509958,64d2fd46c836a06233681665,64dc7af46affa6e52df02f8d,,,,,,,decisionTrl,resources/DP.BMP,resources/DY.BMP,WildCard_Ex,0.302222222,-0.004444444,1,0,0,0.612,optionRight,95,815,1,14,0,14,0,1,,,,,,,,,,,,,,,,,,,,,,,,,,,,,,,,,,,,,,,
,,,,,,,,2023-08-16_09h31.03.216,HF_wild_card,2022.2.4,Win32,58.82352941,5f5d51785a31085a80509958,64d2fd46c836a06233681665,64dc7af46affa6e52df02f8d,,,,,,,decisionTrl,resources/DG.BMP,resources/DP.BMP,Door2,-0.234444444,-0.01,1,0,0,0.649,optionLeft,20,835,1,15,0,15,0,1,,,,,,,,,,,,,,,,,,,,,,,,,,,,,,,,,,,,,,,
,,,,,,,,2023-08-16_09h31.03.216,HF_wild_card,2022.2.4,Win32,58.82352941,5f5d51785a31085a80509958,64d2fd46c836a06233681665,64dc7af46affa6e52df02f8d,,,,,,,decisionTrl,resources/DP.BMP,resources/DG.BMP,Door2,0.342222222,0.015555556,1,0,0,0.529,optionRight,40,875,1,16,0,16,0,1,,,,,,,,,,,,,,,,,,,,,,,,,,,,,,,,,,,,,,,
,,,,,,,,2023-08-16_09h31.03.216,HF_wild_card,2022.2.4,Win32,58.82352941,5f5d51785a31085a80509958,64d2fd46c836a06233681665,64dc7af46affa6e52df02f8d,,,,,,,decisionTrl,resources/DR.BMP,resources/DBN.BMP,Door3,-0.263333333,-0.008888889,1,0,0,0.691,optionLeft,70,945,1,17,0,17,0,1,,,,,,,,,,,,,,,,,,,,,,,,,,,,,,,,,,,,,,,
,,,,,,,,2023-08-16_09h31.03.216,HF_wild_card,2022.2.4,Win32,58.82352941,5f5d51785a31085a80509958,64d2fd46c836a06233681665,64dc7af46affa6e52df02f8d,,,,,,,sngl,resources/DY.BMP,resources/Empty.png,WildCard_Ex,-0.001111111,0.003333333,1,0,0,0.082,optionLeft,5,950,1,18,0,18,0,1,,,,,,,,,,,,,,,,,,,,,,,,,,,,,,,,,,,,,,,
,,,,,,,,2023-08-16_09h31.03.216,HF_wild_card,2022.2.4,Win32,58.82352941,5f5d51785a31085a80509958,64d2fd46c836a06233681665,64dc7af46affa6e52df02f8d,,,,,,,sngl,resources/Empty.png,resources/DY.BMP,WildCard_Ex,0.356666667,-0.004444444,1,0,0,0.601,optionRight,5,955,1,19,0,19,0,1,,,,,,,,,,,,,,,,,,,,,,,,,,,,,,,,,,,,,,,
,,,,,,,,2023-08-16_09h31.03.216,HF_wild_card,2022.2.4,Win32,58.82352941,5f5d51785a31085a80509958,64d2fd46c836a06233681665,64dc7af46affa6e52df02f8d,,,,,,,decisionTrl,resources/DY.BMP,resources/DP.BMP,WildCard_Ex,-0.448888889,0.003333333,1,0,0,1.084,optionLeft,95,1050,1,20,0,20,0,1,,,,,,,,,,,,,,,,,,,,,,,,,,,,,,,,,,,,,,,
,,,,,,,,2023-08-16_09h31.03.216,HF_wild_card,2022.2.4,Win32,58.82352941,5f5d51785a31085a80509958,64d2fd46c836a06233681665,64dc7af46affa6e52df02f8d,,,,,,,decisionTrl,resources/DBN.BMP,resources/DY.BMP,WildCard_Ex,0.295555556,-0.003333333,1,0,0,0.609,optionRight,95,1145,1,21,0,21,0,1,,,,,,,,,,,,,,,,,,,,,,,,,,,,,,,,,,,,,,,
,,,,,,,,2023-08-16_09h31.03.216,HF_wild_card,2022.2.4,Win32,58.82352941,5f5d51785a31085a80509958,64d2fd46c836a06233681665,64dc7af46affa6e52df02f8d,,,,,,,decisionTrl,resources/DBN.BMP,resources/DR.BMP,Door4,0.001111111,0.003333333,1,0,0,0.057,optionLeft,60,1205,1,22,0,22,0,1,,,,,,,,,,,,,,,,,,,,,,,,,,,,,,,,,,,,,,,
,,,,,,,,2023-08-16_09h31.03.216,HF_wild_card,2022.2.4,Win32,58.82352941,5f5d51785a31085a80509958,64d2fd46c836a06233681665,64dc7af46affa6e52df02f8d,,,,,,,decisionTrl,resources/DR.BMP,resources/DBN.BMP,Door4,0.321111111,-0.001111111,1,0,0,0.496,optionRight,80,1285,1,23,0,23,0,1,,,,,,,,,,,,,,,,,,,,,,,,,,,,,,,,,,,,,,,
,,,,,,,,2023-08-16_09h31.03.216,HF_wild_card,2022.2.4,Win32,58.82352941,5f5d51785a31085a80509958,64d2fd46c836a06233681665,64dc7af46affa6e52df02f8d,,,,,,,ctch,resources/DR.BMP,resources/DG.BMP,Door3,0.007777778,0.012222222,1,0,0,0.048,optionLeft,70,1355,1,24,0,24,0,1,,,,,,,,,,,,,,,,,,,,,,,,,,,,,,,,,,,,,,,
,,,,,,,,2023-08-16_09h31.03.216,HF_wild_card,2022.2.4,Win32,58.82352941,5f5d51785a31085a80509958,64d2fd46c836a06233681665,64dc7af46affa6e52df02f8d,,,,,,,sngl,resources/DBN.BMP,resources/Empty.png,Door4,-0.003333333,-0.002222222,1,0,0,0.045,optionLeft,80,1435,1,25,0,25,0,1,,,,,,,,,,,,,,,,,,,,,,,,,,,,,,,,,,,,,,,
,,,,,,,,2023-08-16_09h31.03.216,HF_wild_card,2022.2.4,Win32,58.82352941,5f5d51785a31085a80509958,64d2fd46c836a06233681665,64dc7af46affa6e52df02f8d,,,,,,,sngl,resources/DR.BMP,resources/Empty.png,Door3,-0.227777778,-0.022222222,1,0,0,0.624,optionLeft,70,1505,1,26,0,26,0,1,,,,,,,,,,,,,,,,,,,,,,,,,,,,,,,,,,,,,,,
,,,,,,,,2023-08-16_09h31.03.216,HF_wild_card,2022.2.4,Win32,58.82352941,5f5d51785a31085a80509958,64d2fd46c836a06233681665,64dc7af46affa6e52df02f8d,,,,,,,decisionTrl,resources/DBN.BMP,resources/DR.BMP,Door4,-0.244444444,-0.014444444,1,0,0,0.66,optionLeft,60,1565,1,27,0,27,0,1,,,,,,,,,,,,,,,,,,,,,,,,,,,,,,,,,,,,,,,
,,,,,,,,2023-08-16_09h31.03.216,HF_wild_card,2022.2.4,Win32,58.82352941,5f5d51785a31085a80509958,64d2fd46c836a06233681665,64dc7af46affa6e52df02f8d,,,,,,,decisionTrl,resources/DP.BMP,resources/DG.BMP,Door2,0.338888889,-0.001111111,1,0,0,0.565,optionRight,20,1585,1,28,0,28,0,1,,,,,,,,,,,,,,,,,,,,,,,,,,,,,,,,,,,,,,,
,,,,,,,,2023-08-16_09h31.03.216,HF_wild_card,2022.2.4,Win32,58.82352941,5f5d51785a31085a80509958,64d2fd46c836a06233681665,64dc7af46affa6e52df02f8d,,,,,,,ctch,resources/DP.BMP,resources/DBN.BMP,Door1,-0.238888889,0.002222222,1,0,0,0.534,optionLeft,30,1615,1,29,0,29,0,1,,,,,,,,,,,,,,,,,,,,,,,,,,,,,,,,,,,,,,,
,,,,,,,,2023-08-16_09h31.03.216,HF_wild_card,2022.2.4,Win32,58.82352941,5f5d51785a31085a80509958,64d2fd46c836a06233681665,64dc7af46affa6e52df02f8d,,,,,,,ctch,resources/DR.BMP,resources/DG.BMP,Door2,0.011111111,0.004444444,1,0,0,0.06,optionRight,40,1655,1,30,0,30,0,1,,,,,,,,,,,,,,,,,,,,,,,,,,,,,,,,,,,,,,,
,,,,,,,,2023-08-16_09h31.03.216,HF_wild_card,2022.2.4,Win32,58.82352941,5f5d51785a31085a80509958,64d2fd46c836a06233681665,64dc7af46affa6e52df02f8d,,,,,,,decisionTrl,resources/DG.BMP,resources/DP.BMP,Door2,-0.007777778,0.006666667,1,0,0,0.079,optionLeft,40,1695,1,31,0,31,0,1,,,,,,,,,,,,,,,,,,,,,,,,,,,,,,,,,,,,,,,
,,,,,,,,2023-08-16_09h31.03.216,HF_wild_card,2022.2.4,Win32,58.82352941,5f5d51785a31085a80509958,64d2fd46c836a06233681665,64dc7af46affa6e52df02f8d,,,,,,,decisionTrl,resources/DR.BMP,resources/DBN.BMP,Door4,0.305555556,0.033333333,1,0,0,0.726,optionRight,60,1755,1,32,0,32,0,1,,,,,,,,,,,,,,,,,,,,,,,,,,,,,,,,,,,,,,,
,,,,,,,,2023-08-16_09h31.03.216,HF_wild_card,2022.2.4,Win32,58.82352941,5f5d51785a31085a80509958,64d2fd46c836a06233681665,64dc7af46affa6e52df02f8d,,,,,,,decisionTrl,resources/DP.BMP,resources/DG.BMP,Door1,-0.225555556,-0.064444444,1,0,0,0.712,optionLeft,30,1785,1,33,0,33,0,1,,,,,,,,,,,,,,,,,,,,,,,,,,,,,,,,,,,,,,,
,,,,,,,,2023-08-16_09h31.03.216,HF_wild_card,2022.2.4,Win32,58.82352941,5f5d51785a31085a80509958,64d2fd46c836a06233681665,64dc7af46affa6e52df02f8d,,,,,,,decisionTrl,resources/DY.BMP,resources/DR.BMP,Door3,0.533333333,-0.016666667,1,0,0,0.596,optionRight,70,1855,1,34,0,34,0,1,,,,,,,,,,,,,,,,,,,,,,,,,,,,,,,,,,,,,,,
,,,,,,,,2023-08-16_09h31.03.216,HF_wild_card,2022.2.4,Win32,58.82352941,5f5d51785a31085a80509958,64d2fd46c836a06233681665,64dc7af46affa6e52df02f8d,,,,,,,decisionTrl,resources/DY.BMP,resources/DG.BMP,WildCard_Ex,-0.415555556,-0.072222222,1,0,0,0.996,optionLeft,95,1950,1,35,0,35,0,1,,,,,,,,,,,,,,,,,,,,,,,,,,,,,,,,,,,,,,,
,,,,,,,,2023-08-16_09h31.03.216,HF_wild_card,2022.2.4,Win32,58.82352941,5f5d51785a31085a80509958,64d2fd46c836a06233681665,64dc7af46affa6e52df02f8d,,,,,,,decisionTrl,resources/DR.BMP,resources/DY.BMP,Door3,0.007777778,0.003333333,1,0,0,0.046,optionLeft,70,2020,1,36,0,36,0,1,,,,,,,,,,,,,,,,,,,,,,,,,,,,,,,,,,,,,,,
,,,,,,,,2023-08-16_09h31.03.216,HF_wild_card,2022.2.4,Win32,58.82352941,5f5d51785a31085a80509958,64d2fd46c836a06233681665,64dc7af46affa6e52df02f8d,,,,,,,decisionTrl,resources/DR.BMP,resources/DBN.BMP,Door3,-0.3,-0.068888889,1,0,0,0.862,optionLeft,70,2090,1,37,0,37,0,1,,,,,,,,,,,,,,,,,,,,,,,,,,,,,,,,,,,,,,,
,,,,,,,,2023-08-16_09h31.03.216,HF_wild_card,2022.2.4,Win32,58.82352941,5f5d51785a31085a80509958,64d2fd46c836a06233681665,64dc7af46affa6e52df02f8d,,,,,,,ctch,resources/DG.BMP,resources/DR.BMP,Door3,0.481111111,0.002222222,1,0,0,1.112,optionRight,70,2160,1,38,0,38,0,1,,,,,,,,,,,,,,,,,,,,,,,,,,,,,,,,,,,,,,,
,,,,,,,,2023-08-16_09h31.03.216,HF_wild_card,2022.2.4,Win32,58.82352941,5f5d51785a31085a80509958,64d2fd46c836a06233681665,64dc7af46affa6e52df02f8d,,,,,,,sngl,resources/Empty.png,resources/DG.BMP,Door2,-0.012222222,-0.003333333,1,0,0,0.095,optionRight,20,2180,1,39,0,39,0,1,,,,,,,,,,,,,,,,,,,,,,,,,,,,,,,,,,,,,,,
,,,,,,,,2023-08-16_09h31.03.216,HF_wild_card,2022.2.4,Win32,58.82352941,5f5d51785a31085a80509958,64d2fd46c836a06233681665,64dc7af46affa6e52df02f8d,,,,,,,sngl,resources/DG.BMP,resources/Empty.png,Door2,0.018888889,0.003333333,1,0,0,0.06,optionLeft,40,2220,1,40,0,40,0,1,,,,,,,,,,,,,,,,,,,,,,,,,,,,,,,,,,,,,,,
,,,,,,,,2023-08-16_09h31.03.216,HF_wild_card,2022.2.4,Win32,58.82352941,5f5d51785a31085a80509958,64d2fd46c836a06233681665,64dc7af46affa6e52df02f8d,,,,,,,sngl,resources/DP.BMP,resources/Empty.png,Door1,-0.168888889,-0.032222222,1,0,0,0.662,optionLeft,30,2250,1,41,0,41,0,1,,,,,,,,,,,,,,,,,,,,,,,,,,,,,,,,,,,,,,,
,,,,,,,,2023-08-16_09h31.03.216,HF_wild_card,2022.2.4,Win32,58.82352941,5f5d51785a31085a80509958,64d2fd46c836a06233681665,64dc7af46affa6e52df02f8d,,,,,,,sngl,resources/Empty.png,resources/DBN.BMP,Door4,0.012222222,0.002222222,1,0,0,0.061,optionRight,60,2310,1,42,0,42,0,1,,,,,,,,,,,,,,,,,,,,,,,,,,,,,,,,,,,,,,,
,,,,,,,,2023-08-16_09h31.03.216,HF_wild_card,2022.2.4,Win32,58.82352941,5f5d51785a31085a80509958,64d2fd46c836a06233681665,64dc7af46affa6e52df02f8d,,,,,,,sngl,resources/Empty.png,resources/DP.BMP,Door1,-0.013333333,-0.007777778,1,0,0,0.047,optionRight,30,2340,1,43,0,43,0,1,,,,,,,,,,,,,,,,,,,,,,,,,,,,,,,,,,,,,,,
,,,,,,,,2023-08-16_09h31.03.216,HF_wild_card,2022.2.4,Win32,58.82352941,5f5d51785a31085a80509958,64d2fd46c836a06233681665,64dc7af46affa6e52df02f8d,,,,,,,,,,,,,,,,,,,,,,,,,,0,0,0,0,1,,,,,,,,,,,,,,,,,,,,,,,,,,,,,,,,,,
,,,,,,,,2023-08-16_09h31.03.216,HF_wild_card,2022.2.4,Win32,58.82352941,5f5d51785a31085a80509958,64d2fd46c836a06233681665,64dc7af46affa6e52df02f8d,,,,,,,decisionTrl,resources/DR.BMP,resources/DY.BMP,Door3,-0.266666667,-0.044444444,1,0,0,1.574,optionLeft,70,2410,2,0,0,0,0,1,,,,,,,,,,,,,,,,,,,,,,,,,,,,,,,,,,,,,,,
,,,,,,,,2023-08-16_09h31.03.216,HF_wild_card,2022.2.4,Win32,58.82352941,5f5d51785a31085a80509958,64d2fd46c836a06233681665,64dc7af46affa6e52df02f8d,,,,,,,ctch,resources/DG.BMP,resources/DR.BMP,Door3,0.013333333,-0.004444444,1,0,0,0.062,optionRight,70,2480,2,1,0,1,0,1,,,,,,,,,,,,,,,,,,,,,,,,,,,,,,,,,,,,,,,
,,,,,,,,2023-08-16_09h31.03.216,HF_wild_card,2022.2.4,Win32,58.82352941,5f5d51785a31085a80509958,64d2fd46c836a06233681665,64dc7af46affa6e52df02f8d,,,,,,,decisionTrl,resources/DR.BMP,resources/DBN.BMP,Door3,-0.003333333,-0.001111111,1,0,0,0.062,optionLeft,70,2550,2,2,0,2,0,1,,,,,,,,,,,,,,,,,,,,,,,,,,,,,,,,,,,,,,,
,,,,,,,,2023-08-16_09h31.03.216,HF_wild_card,2022.2.4,Win32,58.82352941,5f5d51785a31085a80509958,64d2fd46c836a06233681665,64dc7af46affa6e52df02f8d,,,,,,,sngl,resources/Empty.png,resources/DY.BMP,WildCard_Ex,-0.017777778,0.001111111,1,0,0,0.061,optionRight,95,2645,2,3,0,3,0,1,,,,,,,,,,,,,,,,,,,,,,,,,,,,,,,,,,,,,,,
,,,,,,,,2023-08-16_09h31.03.216,HF_wild_card,2022.2.4,Win32,58.82352941,5f5d51785a31085a80509958,64d2fd46c836a06233681665,64dc7af46affa6e52df02f8d,,,,,,,decisionTrl,resources/DG.BMP,resources/DP.BMP,Door1,0.467777778,-0.006666667,1,0,0,0.596,optionRight,30,2675,2,4,0,4,0,1,,,,,,,,,,,,,,,,,,,,,,,,,,,,,,,,,,,,,,,
,,,,,,,,2023-08-16_09h31.03.216,HF_wild_card,2022.2.4,Win32,58.82352941,5f5d51785a31085a80509958,64d2fd46c836a06233681665,64dc7af46affa6e52df02f8d,,,,,,,decisionTrl,resources/DBN.BMP,resources/DR.BMP,Door3,0.361111111,0,1,0,0,0.513,optionRight,70,2745,2,5,0,5,0,1,,,,,,,,,,,,,,,,,,,,,,,,,,,,,,,,,,,,,,,
,,,,,,,,2023-08-16_09h31.03.216,HF_wild_card,2022.2.4,Win32,58.82352941,5f5d51785a31085a80509958,64d2fd46c836a06233681665,64dc7af46affa6e52df02f8d,,,,,,,decisionTrl,resources/DP.BMP,resources/DG.BMP,Door2,0.351111111,-0.007777778,1,0,0,0.527,optionRight,20,2765,2,6,0,6,0,1,,,,,,,,,,,,,,,,,,,,,,,,,,,,,,,,,,,,,,,
,,,,,,,,2023-08-16_09h31.03.216,HF_wild_card,2022.2.4,Win32,58.82352941,5f5d51785a31085a80509958,64d2fd46c836a06233681665,64dc7af46affa6e52df02f8d,,,,,,,sngl,resources/DG.BMP,resources/Empty.png,Door2,-0.217777778,-0.013333333,1,0,0,0.511,optionLeft,20,2785,2,7,0,7,0,1,,,,,,,,,,,,,,,,,,,,,,,,,,,,,,,,,,,,,,,
,,,,,,,,2023-08-16_09h31.03.216,HF_wild_card,2022.2.4,Win32,58.82352941,5f5d51785a31085a80509958,64d2fd46c836a06233681665,64dc7af46affa6e52df02f8d,,,,,,,sngl,resources/Empty.png,resources/DY.BMP,WildCard_Ex,0.021111111,0,1,0,0,0.059,optionRight,5,2790,2,8,0,8,0,1,,,,,,,,,,,,,,,,,,,,,,,,,,,,,,,,,,,,,,,
,,,,,,,,2023-08-16_09h31.03.216,HF_wild_card,2022.2.4,Win32,58.82352941,5f5d51785a31085a80509958,64d2fd46c836a06233681665,64dc7af46affa6e52df02f8d,,,,,,,ctch,resources/DR.BMP,resources/DG.BMP,Door3,-0.013333333,0.001111111,1,0,0,0.045,optionLeft,70,2860,2,9,0,9,0,1,,,,,,,,,,,,,,,,,,,,,,,,,,,,,,,,,,,,,,,
,,,,,,,,2023-08-16_09h31.03.216,HF_wild_card,2022.2.4,Win32,58.82352941,5f5d51785a31085a80509958,64d2fd46c836a06233681665,64dc7af46affa6e52df02f8d,,,,,,,ctch,resources/DP.BMP,resources/DBN.BMP,Door4,0.007777778,0,1,0,0,0.077,optionRight,60,2920,2,10,0,10,0,1,,,,,,,,,,,,,,,,,,,,,,,,,,,,,,,,,,,,,,,
,,,,,,,,2023-08-16_09h31.03.216,HF_wild_card,2022.2.4,Win32,58.82352941,5f5d51785a31085a80509958,64d2fd46c836a06233681665,64dc7af46affa6e52df02f8d,,,,,,,decisionTrl,resources/DP.BMP,resources/DY.BMP,Door1,-0.256666667,-0.007777778,1,0,0,0.533,optionLeft,30,2950,2,11,0,11,0,1,,,,,,,,,,,,,,,,,,,,,,,,,,,,,,,,,,,,,,,
,,,,,,,,2023-08-16_09h31.03.216,HF_wild_card,2022.2.4,Win32,58.82352941,5f5d51785a31085a80509958,64d2fd46c836a06233681665,64dc7af46affa6e52df02f8d,,,,,,,sngl,resources/DR.BMP,resources/Empty.png,Door3,-0.3,-0.02,1,0,0,0.677,optionLeft,70,3020,2,12,0,12,0,1,,,,,,,,,,,,,,,,,,,,,,,,,,,,,,,,,,,,,,,
,,,,,,,,2023-08-16_09h31.03.216,HF_wild_card,2022.2.4,Win32,58.82352941,5f5d51785a31085a80509958,64d2fd46c836a06233681665,64dc7af46affa6e52df02f8d,,,,,,,decisionTrl,resources/DY.BMP,resources/DR.BMP,Door3,0.437777778,-0.01,1,0,0,0.629,optionRight,70,3090,2,13,0,13,0,1,,,,,,,,,,,,,,,,,,,,,,,,,,,,,,,,,,,,,,,
,,,,,,,,2023-08-16_09h31.03.216,HF_wild_card,2022.2.4,Win32,58.82352941,5f5d51785a31085a80509958,64d2fd46c836a06233681665,64dc7af46affa6e52df02f8d,,,,,,,sngl,resources/DP.BMP,resources/Empty.png,Door1,0.006666667,-0.017777778,1,0,0,0.079,optionLeft,30,3120,2,14,0,14,0,1,,,,,,,,,,,,,,,,,,,,,,,,,,,,,,,,,,,,,,,
,,,,,,,,2023-08-16_09h31.03.216,HF_wild_card,2022.2.4,Win32,58.82352941,5f5d51785a31085a80509958,64d2fd46c836a06233681665,64dc7af46affa6e52df02f8d,,,,,,,decisionTrl,resources/DG.BMP,resources/DP.BMP,Door1,0.317777778,-0.021111111,1,0,0,0.513,optionRight,30,3150,2,15,0,15,0,1,,,,,,,,,,,,,,,,,,,,,,,,,,,,,,,,,,,,,,,
,,,,,,,,2023-08-16_09h31.03.216,HF_wild_card,2022.2.4,Win32,58.82352941,5f5d51785a31085a80509958,64d2fd46c836a06233681665,64dc7af46affa6e52df02f8d,,,,,,,decisionTrl,resources/DBN.BMP,resources/DR.BMP,Door3,-0.004444444,0.003333333,1,0,0,0.079,optionRight,70,3220,2,16,0,16,0,1,,,,,,,,,,,,,,,,,,,,,,,,,,,,,,,,,,,,,,,
,,,,,,,,2023-08-16_09h31.03.216,HF_wild_card,2022.2.4,Win32,58.82352941,5f5d51785a31085a80509958,64d2fd46c836a06233681665,64dc7af46affa6e52df02f8d,,,,,,,decisionTrl,resources/DP.BMP,resources/DG.BMP,Door2,0.326666667,0.001111111,1,0,0,0.547,optionRight,20,3240,2,17,0,17,0,1,,,,,,,,,,,,,,,,,,,,,,,,,,,,,,,,,,,,,,,
,,,,,,,,2023-08-16_09h31.03.216,HF_wild_card,2022.2.4,Win32,58.82352941,5f5d51785a31085a80509958,64d2fd46c836a06233681665,64dc7af46affa6e52df02f8d,,,,,,,decisionTrl,resources/DG.BMP,resources/DP.BMP,Door1,-0.011111111,0.003333333,1,0,0,0.046,optionRight,30,3270,2,18,0,18,0,1,,,,,,,,,,,,,,,,,,,,,,,,,,,,,,,,,,,,,,,
,,,,,,,,2023-08-16_09h31.03.216,HF_wild_card,2022.2.4,Win32,58.82352941,5f5d51785a31085a80509958,64d2fd46c836a06233681665,64dc7af46affa6e52df02f8d,,,,,,,decisionTrl,resources/DG.BMP,resources/DP.BMP,Door2,-0.02,0.001111111,1,0,0,0.046,optionLeft,20,3290,2,19,0,19,0,1,,,,,,,,,,,,,,,,,,,,,,,,,,,,,,,,,,,,,,,
,,,,,,,,2023-08-16_09h31.03.216,HF_wild_card,2022.2.4,Win32,58.82352941,5f5d51785a31085a80509958,64d2fd46c836a06233681665,64dc7af46affa6e52df02f8d,,,,,,,ctch,resources/DR.BMP,resources/DG.BMP,Door2,0.417777778,-0.011111111,1,0,0,0.478,optionRight,20,3310,2,20,0,20,0,1,,,,,,,,,,,,,,,,,,,,,,,,,,,,,,,,,,,,,,,
,,,,,,,,2023-08-16_09h31.03.216,HF_wild_card,2022.2.4,Win32,58.82352941,5f5d51785a31085a80509958,64d2fd46c836a06233681665,64dc7af46affa6e52df02f8d,,,,,,,decisionTrl,resources/DBN.BMP,resources/DR.BMP,Door4,-0.242222222,-0.017777778,1,0,0,0.547,optionLeft,60,3370,2,21,0,21,0,1,,,,,,,,,,,,,,,,,,,,,,,,,,,,,,,,,,,,,,,
,,,,,,,,2023-08-16_09h31.03.216,HF_wild_card,2022.2.4,Win32,58.82352941,5f5d51785a31085a80509958,64d2fd46c836a06233681665,64dc7af46affa6e52df02f8d,,,,,,,ctch,resources/DBN.BMP,resources/DP.BMP,Door4,-0.31,-0.006666667,1,0,0,0.496,optionLeft,80,3450,2,22,0,22,0,1,,,,,,,,,,,,,,,,,,,,,,,,,,,,,,,,,,,,,,,
,,,,,,,,2023-08-16_09h31.03.216,HF_wild_card,2022.2.4,Win32,58.82352941,5f5d51785a31085a80509958,64d2fd46c836a06233681665,64dc7af46affa6e52df02f8d,,,,,,,ctch,resources/DP.BMP,resources/DBN.BMP,Door4,0.408888889,-0.02,1,0,0,1.16,optionRight,80,3530,2,23,0,23,0,1,,,,,,,,,,,,,,,,,,,,,,,,,,,,,,,,,,,,,,,
,,,,,,,,2023-08-16_09h31.03.216,HF_wild_card,2022.2.4,Win32,58.82352941,5f5d51785a31085a80509958,64d2fd46c836a06233681665,64dc7af46affa6e52df02f8d,,,,,,,decisionTrl,resources/DBN.BMP,resources/DR.BMP,Door4,-0.28,-0.021111111,1,0,0,0.526,optionLeft,80,3610,2,24,0,24,0,1,,,,,,,,,,,,,,,,,,,,,,,,,,,,,,,,,,,,,,,
,,,,,,,,2023-08-16_09h31.03.216,HF_wild_card,2022.2.4,Win32,58.82352941,5f5d51785a31085a80509958,64d2fd46c836a06233681665,64dc7af46affa6e52df02f8d,,,,,,,decisionTrl,resources/DR.BMP,resources/DBN.BMP,Door4,0.376666667,0.003333333,1,0,0,0.496,optionRight,80,3690,2,25,0,25,0,1,,,,,,,,,,,,,,,,,,,,,,,,,,,,,,,,,,,,,,,
,,,,,,,,2023-08-16_09h31.03.216,HF_wild_card,2022.2.4,Win32,58.82352941,5f5d51785a31085a80509958,64d2fd46c836a06233681665,64dc7af46affa6e52df02f8d,,,,,,,sngl,resources/Empty.png,resources/DG.BMP,Door2,0.345555556,0.01,1,0,0,1.097,optionRight,40,3730,2,26,0,26,0,1,,,,,,,,,,,,,,,,,,,,,,,,,,,,,,,,,,,,,,,
,,,,,,,,2023-08-16_09h31.03.216,HF_wild_card,2022.2.4,Win32,58.82352941,5f5d51785a31085a80509958,64d2fd46c836a06233681665,64dc7af46affa6e52df02f8d,,,,,,,decisionTrl,resources/DBN.BMP,resources/DY.BMP,Door4,-0.443333333,-0.02,1,0,0,0.83,optionLeft,60,3790,2,27,0,27,0,1,,,,,,,,,,,,,,,,,,,,,,,,,,,,,,,,,,,,,,,
,,,,,,,,2023-08-16_09h31.03.216,HF_wild_card,2022.2.4,Win32,58.82352941,5f5d51785a31085a80509958,64d2fd46c836a06233681665,64dc7af46affa6e52df02f8d,,,,,,,sngl,resources/DBN.BMP,resources/Empty.png,Door4,-0.233333333,0.001111111,1,0,0,0.811,optionLeft,60,3850,2,28,0,28,0,1,,,,,,,,,,,,,,,,,,,,,,,,,,,,,,,,,,,,,,,
,,,,,,,,2023-08-16_09h31.03.216,HF_wild_card,2022.2.4,Win32,58.82352941,5f5d51785a31085a80509958,64d2fd46c836a06233681665,64dc7af46affa6e52df02f8d,,,,,,,decisionTrl,resources/DP.BMP,resources/DG.BMP,Door1,-0.252222222,-0.002222222,1,0,0,0.696,optionLeft,30,3880,2,29,0,29,0,1,,,,,,,,,,,,,,,,,,,,,,,,,,,,,,,,,,,,,,,
,,,,,,,,2023-08-16_09h31.03.216,HF_wild_card,2022.2.4,Win32,58.82352941,5f5d51785a31085a80509958,64d2fd46c836a06233681665,64dc7af46affa6e52df02f8d,,,,,,,sngl,resources/Empty.png,resources/DP.BMP,Door1,0.001111111,0.007777778,1,0,0,0.063,optionRight,30,3910,2,30,0,30,0,1,,,,,,,,,,,,,,,,,,,,,,,,,,,,,,,,,,,,,,,
,,,,,,,,2023-08-16_09h31.03.216,HF_wild_card,2022.2.4,Win32,58.82352941,5f5d51785a31085a80509958,64d2fd46c836a06233681665,64dc7af46affa6e52df02f8d,,,,,,,sngl,resources/DY.BMP,resources/Empty.png,WildCard_Ex,-0.272222222,0.003333333,1,0,0,0.513,optionLeft,95,4005,2,31,0,31,0,1,,,,,,,,,,,,,,,,,,,,,,,,,,,,,,,,,,,,,,,
,,,,,,,,2023-08-16_09h31.03.216,HF_wild_card,2022.2.4,Win32,58.82352941,5f5d51785a31085a80509958,64d2fd46c836a06233681665,64dc7af46affa6e52df02f8d,,,,,,,decisionTrl,resources/DY.BMP,resources/DG.BMP,WildCard_Ex,-0.286666667,0,1,0,0,0.68,optionLeft,95,4100,2,32,0,32,0,1,,,,,,,,,,,,,,,,,,,,,,,,,,,,,,,,,,,,,,,
,,,,,,,,2023-08-16_09h31.03.216,HF_wild_card,2022.2.4,Win32,58.82352941,5f5d51785a31085a80509958,64d2fd46c836a06233681665,64dc7af46affa6e52df02f8d,,,,,,,sngl,resources/Empty.png,resources/DBN.BMP,Door4,0.005555556,0.008888889,1,0,0,0.063,optionRight,80,4180,2,33,0,33,0,1,,,,,,,,,,,,,,,,,,,,,,,,,,,,,,,,,,,,,,,
,,,,,,,,2023-08-16_09h31.03.216,HF_wild_card,2022.2.4,Win32,58.82352941,5f5d51785a31085a80509958,64d2fd46c836a06233681665,64dc7af46affa6e52df02f8d,,,,,,,decisionTrl,resources/DY.BMP,resources/DBN.BMP,Door4,0.478888889,0.001111111,1,0,0,0.73,optionRight,60,4240,2,34,0,34,0,1,,,,,,,,,,,,,,,,,,,,,,,,,,,,,,,,,,,,,,,
,,,,,,,,2023-08-16_09h31.03.216,HF_wild_card,2022.2.4,Win32,58.82352941,5f5d51785a31085a80509958,64d2fd46c836a06233681665,64dc7af46affa6e52df02f8d,,,,,,,decisionTrl,resources/DG.BMP,resources/DY.BMP,Door2,-0.01,0.005555556,1,0,0,0.046,optionLeft,40,4280,2,35,0,35,0,1,,,,,,,,,,,,,,,,,,,,,,,,,,,,,,,,,,,,,,,
,,,,,,,,2023-08-16_09h31.03.216,HF_wild_card,2022.2.4,Win32,58.82352941,5f5d51785a31085a80509958,64d2fd46c836a06233681665,64dc7af46affa6e52df02f8d,,,,,,,decisionTrl,resources/DY.BMP,resources/DP.BMP,WildCard_Ex,-0.165555556,-0.021111111,1,0,0,0.847,optionLeft,5,4285,2,36,0,36,0,1,,,,,,,,,,,,,,,,,,,,,,,,,,,,,,,,,,,,,,,
,,,,,,,,2023-08-16_09h31.03.216,HF_wild_card,2022.2.4,Win32,58.82352941,5f5d51785a31085a80509958,64d2fd46c836a06233681665,64dc7af46affa6e52df02f8d,,,,,,,decisionTrl,resources/DP.BMP,resources/DG.BMP,Door1,0,0.01,1,0,0,0.046,optionLeft,30,4315,2,37,0,37,0,1,,,,,,,,,,,,,,,,,,,,,,,,,,,,,,,,,,,,,,,
,,,,,,,,2023-08-16_09h31.03.216,HF_wild_card,2022.2.4,Win32,58.82352941,5f5d51785a31085a80509958,64d2fd46c836a06233681665,64dc7af46affa6e52df02f8d,,,,,,,sngl,resources/Empty.png,resources/DR.BMP,Door3,0.343333333,-0.028888889,1,0,0,0.679,optionRight,70,4385,2,38,0,38,0,1,,,,,,,,,,,,,,,,,,,,,,,,,,,,,,,,,,,,,,,
,,,,,,,,2023-08-16_09h31.03.216,HF_wild_card,2022.2.4,Win32,58.82352941,5f5d51785a31085a80509958,64d2fd46c836a06233681665,64dc7af46affa6e52df02f8d,,,,,,,sngl,resources/DY.BMP,resources/Empty.png,WildCard_Ex,-0.011111111,-0.002222222,1,0,0,0.059,optionLeft,5,4390,2,39,0,39,0,1,,,,,,,,,,,,,,,,,,,,,,,,,,,,,,,,,,,,,,,
,,,,,,,,2023-08-16_09h31.03.216,HF_wild_card,2022.2.4,Win32,58.82352941,5f5d51785a31085a80509958,64d2fd46c836a06233681665,64dc7af46affa6e52df02f8d,,,,,,,decisionTrl,resources/DR.BMP,resources/DBN.BMP,Door4,-0.015555556,0.008888889,1,0,0,0.111,optionRight,60,4450,2,40,0,40,0,1,,,,,,,,,,,,,,,,,,,,,,,,,,,,,,,,,,,,,,,
,,,,,,,,2023-08-16_09h31.03.216,HF_wild_card,2022.2.4,Win32,58.82352941,5f5d51785a31085a80509958,64d2fd46c836a06233681665,64dc7af46affa6e52df02f8d,,,,,,,decisionTrl,resources/DR.BMP,resources/DBN.BMP,Door4,0.413333333,-0.001111111,1,0,0,0.58,optionRight,60,4510,2,41,0,41,0,1,,,,,,,,,,,,,,,,,,,,,,,,,,,,,,,,,,,,,,,
,,,,,,,,2023-08-16_09h31.03.216,HF_wild_card,2022.2.4,Win32,58.82352941,5f5d51785a31085a80509958,64d2fd46c836a06233681665,64dc7af46affa6e52df02f8d,,,,,,,ctch,resources/DG.BMP,resources/DR.BMP,Door3,0.341111111,-0.01,1,0,0,0.562,optionRight,70,4580,2,42,0,42,0,1,,,,,,,,,,,,,,,,,,,,,,,,,,,,,,,,,,,,,,,
,,,,,,,,2023-08-16_09h31.03.216,HF_wild_card,2022.2.4,Win32,58.82352941,5f5d51785a31085a80509958,64d2fd46c836a06233681665,64dc7af46affa6e52df02f8d,,,,,,,ctch,resources/DBN.BMP,resources/DP.BMP,Door1,0.483333333,-0.011111111,1,0,0,0.596,optionRight,30,4610,2,43,0,43,0,1,,,,,,,,,,,,,,,,,,,,,,,,,,,,,,,,,,,,,,,
,,,,,,,,2023-08-16_09h31.03.216,HF_wild_card,2022.2.4,Win32,58.82352941,5f5d51785a31085a80509958,64d2fd46c836a06233681665,64dc7af46affa6e52df02f8d,,,,,,,,,,,,,,,,,,,,,,,,,,1,0,1,0,1,,,,,,,,,,,,,,,,,,,,,,,,,,,,,,,,,,
,,,,,,,,2023-08-16_09h31.03.216,HF_wild_card,2022.2.4,Win32,58.82352941,5f5d51785a31085a80509958,64d2fd46c836a06233681665,64dc7af46affa6e52df02f8d,,,,,,,ctch,resources/DR.BMP,resources/DG.BMP,Door2,0.391111111,-0.22,1,0,0,3.187,optionRight,20,4630,3,0,0,0,0,1,,,,,,,,,,,,,,,,,,,,,,,,,,,,,,,,,,,,,,,
,,,,,,,,2023-08-16_09h31.03.216,HF_wild_card,2022.2.4,Win32,58.82352941,5f5d51785a31085a80509958,64d2fd46c836a06233681665,64dc7af46affa6e52df02f8d,,,,,,,decisionTrl,resources/DG.BMP,resources/DP.BMP,Door1,0.328888889,-0.084444444,1,0,0,0.947,optionRight,30,4660,3,1,0,1,0,1,,,,,,,,,,,,,,,,,,,,,,,,,,,,,,,,,,,,,,,
,,,,,,,,2023-08-16_09h31.03.216,HF_wild_card,2022.2.4,Win32,58.82352941,5f5d51785a31085a80509958,64d2fd46c836a06233681665,64dc7af46affa6e52df02f8d,,,,,,,decisionTrl,resources/DP.BMP,resources/DG.BMP,Door2,0.475555556,-0.011111111,1,0,0,0.629,optionRight,20,4680,3,2,0,2,0,1,,,,,,,,,,,,,,,,,,,,,,,,,,,,,,,,,,,,,,,
,,,,,,,,2023-08-16_09h31.03.216,HF_wild_card,2022.2.4,Win32,58.82352941,5f5d51785a31085a80509958,64d2fd46c836a06233681665,64dc7af46affa6e52df02f8d,,,,,,,decisionTrl,resources/DR.BMP,resources/DBN.BMP,Door3,0.012222222,0.006666667,1,0,0,0.03,optionLeft,70,4750,3,3,0,3,0,1,,,,,,,,,,,,,,,,,,,,,,,,,,,,,,,,,,,,,,,
,,,,,,,,2023-08-16_09h31.03.216,HF_wild_card,2022.2.4,Win32,58.82352941,5f5d51785a31085a80509958,64d2fd46c836a06233681665,64dc7af46affa6e52df02f8d,,,,,,,decisionTrl,resources/DG.BMP,resources/DY.BMP,WildCard_Ex,0.392222222,-0.03,1,0,0,0.53,optionRight,5,4755,3,4,0,4,0,1,,,,,,,,,,,,,,,,,,,,,,,,,,,,,,,,,,,,,,,
,,,,,,,,2023-08-16_09h31.03.216,HF_wild_card,2022.2.4,Win32,58.82352941,5f5d51785a31085a80509958,64d2fd46c836a06233681665,64dc7af46affa6e52df02f8d,,,,,,,decisionTrl,resources/DR.BMP,resources/DBN.BMP,Door4,0.343333333,-0.02,1,0,0,1.028,optionRight,60,4815,3,5,0,5,0,1,,,,,,,,,,,,,,,,,,,,,,,,,,,,,,,,,,,,,,,
,,,,,,,,2023-08-16_09h31.03.216,HF_wild_card,2022.2.4,Win32,58.82352941,5f5d51785a31085a80509958,64d2fd46c836a06233681665,64dc7af46affa6e52df02f8d,,,,,,,decisionTrl,resources/DBN.BMP,resources/DR.BMP,Door3,0.006666667,0.002222222,1,0,0,0.046,optionRight,70,4885,3,6,0,6,0,1,,,,,,,,,,,,,,,,,,,,,,,,,,,,,,,,,,,,,,,
,,,,,,,,2023-08-16_09h31.03.216,HF_wild_card,2022.2.4,Win32,58.82352941,5f5d51785a31085a80509958,64d2fd46c836a06233681665,64dc7af46affa6e52df02f8d,,,,,,,decisionTrl,resources/DR.BMP,resources/DBN.BMP,Door4,-0.01,0.001111111,1,0,0,0.028,optionRight,60,4945,3,7,0,7,0,1,,,,,,,,,,,,,,,,,,,,,,,,,,,,,,,,,,,,,,,
,,,,,,,,2023-08-16_09h31.03.216,HF_wild_card,2022.2.4,Win32,58.82352941,5f5d51785a31085a80509958,64d2fd46c836a06233681665,64dc7af46affa6e52df02f8d,,,,,,,decisionTrl,resources/DR.BMP,resources/DBN.BMP,Door3,-0.295555556,-0.017777778,1,0,0,0.645,optionLeft,70,5015,3,8,0,8,0,1,,,,,,,,,,,,,,,,,,,,,,,,,,,,,,,,,,,,,,,
,,,,,,,,2023-08-16_09h31.03.216,HF_wild_card,2022.2.4,Win32,58.82352941,5f5d51785a31085a80509958,64d2fd46c836a06233681665,64dc7af46affa6e52df02f8d,,,,,,,sngl,resources/Empty.png,resources/DR.BMP,Door3,-0.002222222,0.002222222,1,0,0,0.062,optionRight,70,5085,3,9,0,9,0,1,,,,,,,,,,,,,,,,,,,,,,,,,,,,,,,,,,,,,,,
,,,,,,,,2023-08-16_09h31.03.216,HF_wild_card,2022.2.4,Win32,58.82352941,5f5d51785a31085a80509958,64d2fd46c836a06233681665,64dc7af46affa6e52df02f8d,,,,,,,decisionTrl,resources/DG.BMP,resources/DP.BMP,Door1,0.333333333,-0.007777778,1,0,0,0.612,optionRight,30,5115,3,10,0,10,0,1,,,,,,,,,,,,,,,,,,,,,,,,,,,,,,,,,,,,,,,
,,,,,,,,2023-08-16_09h31.03.216,HF_wild_card,2022.2.4,Win32,58.82352941,5f5d51785a31085a80509958,64d2fd46c836a06233681665,64dc7af46affa6e52df02f8d,,,,,,,sngl,resources/Empty.png,resources/DBN.BMP,Door4,0.264444444,0.002222222,1,0,0,0.58,optionRight,60,5175,3,11,0,11,0,1,,,,,,,,,,,,,,,,,,,,,,,,,,,,,,,,,,,,,,,
,,,,,,,,2023-08-16_09h31.03.216,HF_wild_card,2022.2.4,Win32,58.82352941,5f5d51785a31085a80509958,64d2fd46c836a06233681665,64dc7af46affa6e52df02f8d,,,,,,,decisionTrl,resources/DP.BMP,resources/DY.BMP,WildCard_Ex,0.284444444,-0.018888889,1,0,0,0.712,optionRight,95,5270,3,12,0,12,0,1,,,,,,,,,,,,,,,,,,,,,,,,,,,,,,,,,,,,,,,
,,,,,,,,2023-08-16_09h31.03.216,HF_wild_card,2022.2.4,Win32,58.82352941,5f5d51785a31085a80509958,64d2fd46c836a06233681665,64dc7af46affa6e52df02f8d,,,,,,,decisionTrl,resources/DY.BMP,resources/DR.BMP,Door3,0.368888889,-0.045555556,1,0,0,0.762,optionRight,70,5340,3,13,0,13,0,1,,,,,,,,,,,,,,,,,,,,,,,,,,,,,,,,,,,,,,,
,,,,,,,,2023-08-16_09h31.03.216,HF_wild_card,2022.2.4,Win32,58.82352941,5f5d51785a31085a80509958,64d2fd46c836a06233681665,64dc7af46affa6e52df02f8d,,,,,,,ctch,resources/DG.BMP,resources/DR.BMP,Door2,-0.256666667,-0.037777778,1,0,0,1.378,optionLeft,40,5380,3,14,0,14,0,1,,,,,,,,,,,,,,,,,,,,,,,,,,,,,,,,,,,,,,,
,,,,,,,,2023-08-16_09h31.03.216,HF_wild_card,2022.2.4,Win32,58.82352941,5f5d51785a31085a80509958,64d2fd46c836a06233681665,64dc7af46affa6e52df02f8d,,,,,,,sngl,resources/Empty.png,resources/DP.BMP,Door1,0.013333333,0.005555556,1,0,0,0.096,optionRight,30,5410,3,15,0,15,0,1,,,,,,,,,,,,,,,,,,,,,,,,,,,,,,,,,,,,,,,
,,,,,,,,2023-08-16_09h31.03.216,HF_wild_card,2022.2.4,Win32,58.82352941,5f5d51785a31085a80509958,64d2fd46c836a06233681665,64dc7af46affa6e52df02f8d,,,,,,,decisionTrl,resources/DG.BMP,resources/DP.BMP,Door1,0.012222222,-0.005555556,1,0,0,0.063,optionRight,30,5440,3,16,0,16,0,1,,,,,,,,,,,,,,,,,,,,,,,,,,,,,,,,,,,,,,,
,,,,,,,,2023-08-16_09h31.03.216,HF_wild_card,2022.2.4,Win32,58.82352941,5f5d51785a31085a80509958,64d2fd46c836a06233681665,64dc7af46affa6e52df02f8d,,,,,,,sngl,resources/DBN.BMP,resources/Empty.png,Door4,0.005555556,-0.001111111,1,0,0,0.062,optionLeft,80,5520,3,17,0,17,0,1,,,,,,,,,,,,,,,,,,,,,,,,,,,,,,,,,,,,,,,
,,,,,,,,2023-08-16_09h31.03.216,HF_wild_card,2022.2.4,Win32,58.82352941,5f5d51785a31085a80509958,64d2fd46c836a06233681665,64dc7af46affa6e52df02f8d,,,,,,,ctch,resources/DR.BMP,resources/DG.BMP,Door2,0.385555556,-0.012222222,1,0,0,0.964,optionRight,20,5540,3,18,0,18,0,1,,,,,,,,,,,,,,,,,,,,,,,,,,,,,,,,,,,,,,,
,,,,,,,,2023-08-16_09h31.03.216,HF_wild_card,2022.2.4,Win32,58.82352941,5f5d51785a31085a80509958,64d2fd46c836a06233681665,64dc7af46affa6e52df02f8d,,,,,,,decisionTrl,resources/DP.BMP,resources/DG.BMP,Door2,0.471111111,-0.023333333,1,0,0,0.93,optionRight,20,5560,3,19,0,19,0,1,,,,,,,,,,,,,,,,,,,,,,,,,,,,,,,,,,,,,,,
,,,,,,,,2023-08-16_09h31.03.216,HF_wild_card,2022.2.4,Win32,58.82352941,5f5d51785a31085a80509958,64d2fd46c836a06233681665,64dc7af46affa6e52df02f8d,,,,,,,decisionTrl,resources/DP.BMP,resources/DG.BMP,Door2,0.317777778,-0.006666667,1,0,0,0.697,optionRight,20,5580,3,20,0,20,0,1,,,,,,,,,,,,,,,,,,,,,,,,,,,,,,,,,,,,,,,
,,,,,,,,2023-08-16_09h31.03.216,HF_wild_card,2022.2.4,Win32,58.82352941,5f5d51785a31085a80509958,64d2fd46c836a06233681665,64dc7af46affa6e52df02f8d,,,,,,,decisionTrl,resources/DBN.BMP,resources/DR.BMP,Door3,-0.004444444,-0.002222222,1,0,0,0.08,optionRight,70,5650,3,21,0,21,0,1,,,,,,,,,,,,,,,,,,,,,,,,,,,,,,,,,,,,,,,
,,,,,,,,2023-08-16_09h31.03.216,HF_wild_card,2022.2.4,Win32,58.82352941,5f5d51785a31085a80509958,64d2fd46c836a06233681665,64dc7af46affa6e52df02f8d,,,,,,,decisionTrl,resources/DY.BMP,resources/DG.BMP,Door2,0.421111111,-0.021111111,1,0,0,0.713,optionRight,40,5690,3,22,0,22,0,1,,,,,,,,,,,,,,,,,,,,,,,,,,,,,,,,,,,,,,,
,,,,,,,,2023-08-16_09h31.03.216,HF_wild_card,2022.2.4,Win32,58.82352941,5f5d51785a31085a80509958,64d2fd46c836a06233681665,64dc7af46affa6e52df02f8d,,,,,,,decisionTrl,resources/DBN.BMP,resources/DR.BMP,Door3,0.013333333,-0.003333333,1,0,0,0.045,optionRight,70,5760,3,23,0,23,0,1,,,,,,,,,,,,,,,,,,,,,,,,,,,,,,,,,,,,,,,
,,,,,,,,2023-08-16_09h31.03.216,HF_wild_card,2022.2.4,Win32,58.82352941,5f5d51785a31085a80509958,64d2fd46c836a06233681665,64dc7af46affa6e52df02f8d,,,,,,,sngl,resources/Empty.png,resources/DG.BMP,Door2,0.441111111,-0.031111111,1,0,0,0.828,optionRight,20,5780,3,24,0,24,0,1,,,,,,,,,,,,,,,,,,,,,,,,,,,,,,,,,,,,,,,
,,,,,,,,2023-08-16_09h31.03.216,HF_wild_card,2022.2.4,Win32,58.82352941,5f5d51785a31085a80509958,64d2fd46c836a06233681665,64dc7af46affa6e52df02f8d,,,,,,,decisionTrl,resources/DBN.BMP,resources/DY.BMP,Door4,-0.293333333,-0.051111111,1,0,0,0.596,optionLeft,80,5860,3,25,0,25,0,1,,,,,,,,,,,,,,,,,,,,,,,,,,,,,,,,,,,,,,,
,,,,,,,,2023-08-16_09h31.03.216,HF_wild_card,2022.2.4,Win32,58.82352941,5f5d51785a31085a80509958,64d2fd46c836a06233681665,64dc7af46affa6e52df02f8d,,,,,,,ctch,resources/DP.BMP,resources/DBN.BMP,Door4,0.331111111,-0.061111111,1,0,0,0.662,optionRight,60,5920,3,26,0,26,0,1,,,,,,,,,,,,,,,,,,,,,,,,,,,,,,,,,,,,,,,
,,,,,,,,2023-08-16_09h31.03.216,HF_wild_card,2022.2.4,Win32,58.82352941,5f5d51785a31085a80509958,64d2fd46c836a06233681665,64dc7af46affa6e52df02f8d,,,,,,,ctch,resources/DP.BMP,resources/DBN.BMP,Door4,0.421111111,-0.044444444,1,0,0,0.529,optionRight,60,5980,3,27,0,27,0,1,,,,,,,,,,,,,,,,,,,,,,,,,,,,,,,,,,,,,,,
,,,,,,,,2023-08-16_09h31.03.216,HF_wild_card,2022.2.4,Win32,58.82352941,5f5d51785a31085a80509958,64d2fd46c836a06233681665,64dc7af46affa6e52df02f8d,,,,,,,sngl,resources/DY.BMP,resources/Empty.png,WildCard_Ex,0.016666667,0.007777778,1,0,0,0.079,optionLeft,95,6075,3,28,0,28,0,1,,,,,,,,,,,,,,,,,,,,,,,,,,,,,,,,,,,,,,,
,,,,,,,,2023-08-16_09h31.03.216,HF_wild_card,2022.2.4,Win32,58.82352941,5f5d51785a31085a80509958,64d2fd46c836a06233681665,64dc7af46affa6e52df02f8d,,,,,,,decisionTrl,resources/DG.BMP,resources/DP.BMP,Door1,-0.001111111,-0.006666667,1,0,0,0.045,optionRight,30,6105,3,29,0,29,0,1,,,,,,,,,,,,,,,,,,,,,,,,,,,,,,,,,,,,,,,
,,,,,,,,2023-08-16_09h31.03.216,HF_wild_card,2022.2.4,Win32,58.82352941,5f5d51785a31085a80509958,64d2fd46c836a06233681665,64dc7af46affa6e52df02f8d,,,,,,,sngl,resources/DG.BMP,resources/Empty.png,Door2,-0.007777778,0.007777778,1,0,0,0.08,optionLeft,40,6145,3,30,0,30,0,1,,,,,,,,,,,,,,,,,,,,,,,,,,,,,,,,,,,,,,,
,,,,,,,,2023-08-16_09h31.03.216,HF_wild_card,2022.2.4,Win32,58.82352941,5f5d51785a31085a80509958,64d2fd46c836a06233681665,64dc7af46affa6e52df02f8d,,,,,,,decisionTrl,resources/DP.BMP,resources/DG.BMP,Door2,-0.007777778,0.015555556,1,0,0,0.063,optionRight,40,6185,3,31,0,31,0,1,,,,,,,,,,,,,,,,,,,,,,,,,,,,,,,,,,,,,,,
,,,,,,,,2023-08-16_09h31.03.216,HF_wild_card,2022.2.4,Win32,58.82352941,5f5d51785a31085a80509958,64d2fd46c836a06233681665,64dc7af46affa6e52df02f8d,,,,,,,sngl,resources/DP.BMP,resources/Empty.png,Door1,-0.273333333,0.01,1,0,0,0.513,optionLeft,30,6215,3,32,0,32,0,1,,,,,,,,,,,,,,,,,,,,,,,,,,,,,,,,,,,,,,,
,,,,,,,,2023-08-16_09h31.03.216,HF_wild_card,2022.2.4,Win32,58.82352941,5f5d51785a31085a80509958,64d2fd46c836a06233681665,64dc7af46affa6e52df02f8d,,,,,,,decisionTrl,resources/DY.BMP,resources/DP.BMP,Door1,-0.011111111,0.006666667,1,0,0,0.063,optionRight,30,6245,3,33,0,33,0,1,,,,,,,,,,,,,,,,,,,,,,,,,,,,,,,,,,,,,,,
,,,,,,,,2023-08-16_09h31.03.216,HF_wild_card,2022.2.4,Win32,58.82352941,5f5d51785a31085a80509958,64d2fd46c836a06233681665,64dc7af46affa6e52df02f8d,,,,,,,sngl,resources/DR.BMP,resources/Empty.png,Door3,-0.221111111,-0.011111111,1,0,0,0.629,optionLeft,70,6315,3,34,0,34,0,1,,,,,,,,,,,,,,,,,,,,,,,,,,,,,,,,,,,,,,,
,,,,,,,,2023-08-16_09h31.03.216,HF_wild_card,2022.2.4,Win32,58.82352941,5f5d51785a31085a80509958,64d2fd46c836a06233681665,64dc7af46affa6e52df02f8d,,,,,,,sngl,resources/DY.BMP,resources/Empty.png,WildCard_Ex,-0.004444444,0,1,0,0,0.047,optionLeft,5,6320,3,35,0,35,0,1,,,,,,,,,,,,,,,,,,,,,,,,,,,,,,,,,,,,,,,
,,,,,,,,2023-08-16_09h31.03.216,HF_wild_card,2022.2.4,Win32,58.82352941,5f5d51785a31085a80509958,64d2fd46c836a06233681665,64dc7af46affa6e52df02f8d,,,,,,,sngl,resources/Empty.png,resources/DY.BMP,WildCard_Ex,-0.011111111,0.002222222,1,0,0,0.047,optionRight,5,6325,3,36,0,36,0,1,,,,,,,,,,,,,,,,,,,,,,,,,,,,,,,,,,,,,,,
,,,,,,,,2023-08-16_09h31.03.216,HF_wild_card,2022.2.4,Win32,58.82352941,5f5d51785a31085a80509958,64d2fd46c836a06233681665,64dc7af46affa6e52df02f8d,,,,,,,decisionTrl,resources/DBN.BMP,resources/DR.BMP,Door4,-0.011111111,-0.011111111,1,0,0,0.059,optionLeft,80,6405,3,37,0,37,0,1,,,,,,,,,,,,,,,,,,,,,,,,,,,,,,,,,,,,,,,
,,,,,,,,2023-08-16_09h31.03.216,HF_wild_card,2022.2.4,Win32,58.82352941,5f5d51785a31085a80509958,64d2fd46c836a06233681665,64dc7af46affa6e52df02f8d,,,,,,,ctch,resources/DBN.BMP,resources/DP.BMP,Door4,-0.374444444,-0.046666667,1,0,0,0.96,optionLeft,80,6485,3,38,0,38,0,1,,,,,,,,,,,,,,,,,,,,,,,,,,,,,,,,,,,,,,,
,,,,,,,,2023-08-16_09h31.03.216,HF_wild_card,2022.2.4,Win32,58.82352941,5f5d51785a31085a80509958,64d2fd46c836a06233681665,64dc7af46affa6e52df02f8d,,,,,,,decisionTrl,resources/DY.BMP,resources/DBN.BMP,Door4,0.266666667,-0.038888889,1,0,0,0.73,optionRight,60,6545,3,39,0,39,0,1,,,,,,,,,,,,,,,,,,,,,,,,,,,,,,,,,,,,,,,
,,,,,,,,2023-08-16_09h31.03.216,HF_wild_card,2022.2.4,Win32,58.82352941,5f5d51785a31085a80509958,64d2fd46c836a06233681665,64dc7af46affa6e52df02f8d,,,,,,,ctch,resources/DG.BMP,resources/DR.BMP,Door3,0.303333333,-0.012222222,1,0,0,0.696,optionRight,70,6615,3,40,0,40,0,1,,,,,,,,,,,,,,,,,,,,,,,,,,,,,,,,,,,,,,,
,,,,,,,,2023-08-16_09h31.03.216,HF_wild_card,2022.2.4,Win32,58.82352941,5f5d51785a31085a80509958,64d2fd46c836a06233681665,64dc7af46affa6e52df02f8d,,,,,,,decisionTrl,resources/DR.BMP,resources/DY.BMP,Door3,-0.293333333,-0.047777778,1,0,0,1.312,optionLeft,70,6685,3,41,0,41,0,1,,,,,,,,,,,,,,,,,,,,,,,,,,,,,,,,,,,,,,,
,,,,,,,,2023-08-16_09h31.03.216,HF_wild_card,2022.2.4,Win32,58.82352941,5f5d51785a31085a80509958,64d2fd46c836a06233681665,64dc7af46affa6e52df02f8d,,,,,,,ctch,resources/DBN.BMP,resources/DP.BMP,Door1,-0.004444444,0.002222222,1,0,0,0.045,optionRight,30,6715,3,42,0,42,0,1,,,,,,,,,,,,,,,,,,,,,,,,,,,,,,,,,,,,,,,
,,,,,,,,2023-08-16_09h31.03.216,HF_wild_card,2022.2.4,Win32,58.82352941,5f5d51785a31085a80509958,64d2fd46c836a06233681665,64dc7af46affa6e52df02f8d,,,,,,,sngl,resources/Empty.png,resources/DY.BMP,WildCard_Ex,0.321111111,-0.011111111,1,0,0,0.563,optionRight,95,6810,3,43,0,43,0,1,,,,,,,,,,,,,,,,,,,,,,,,,,,,,,,,,,,,,,,
,,,,,,,,2023-08-16_09h31.03.216,HF_wild_card,2022.2.4,Win32,58.82352941,5f5d51785a31085a80509958,64d2fd46c836a06233681665,64dc7af46affa6e52df02f8d,,,,,,,,,,,,,,,,,,,,,,,,,,2,0,2,0,1,,,,,,,,,,,,,,,,,,,,,,,,,,,,,,,,,,
,,,,,,,,2023-08-16_09h31.03.216,HF_wild_card,2022.2.4,Win32,58.82352941,5f5d51785a31085a80509958,64d2fd46c836a06233681665,64dc7af46affa6e52df02f8d,,,,,,,sngl,resources/Empty.png,resources/DB.BMP,WildCard_NonEx,0.352222222,-0.058888889,1,0,0,0.795,optionRight,45,6855,4,0,0,0,0,1,,,,,,,,,,,,,,,,,,,,,,,,,,,,,,,,,,,,,,,
,,,,,,,,2023-08-16_09h31.03.216,HF_wild_card,2022.2.4,Win32,58.82352941,5f5d51785a31085a80509958,64d2fd46c836a06233681665,64dc7af46affa6e52df02f8d,,,,,,,decisionTrl,resources/DP.BMP,resources/DB.BMP,WildCard_NonEx,0.01,0.011111111,1,0,0,0.028,optionRight,55,6910,4,1,0,1,0,1,,,,,,,,,,,,,,,,,,,,,,,,,,,,,,,,,,,,,,,
,,,,,,,,2023-08-16_09h31.03.216,HF_wild_card,2022.2.4,Win32,58.82352941,5f5d51785a31085a80509958,64d2fd46c836a06233681665,64dc7af46affa6e52df02f8d,,,,,,,decisionTrl,resources/DBN.BMP,resources/DR.BMP,Door4,0.001111111,0,1,0,0,0.079,optionLeft,80,6990,4,2,0,2,0,1,,,,,,,,,,,,,,,,,,,,,,,,,,,,,,,,,,,,,,,
,,,,,,,,2023-08-16_09h31.03.216,HF_wild_card,2022.2.4,Win32,58.82352941,5f5d51785a31085a80509958,64d2fd46c836a06233681665,64dc7af46affa6e52df02f8d,,,,,,,decisionTrl,resources/DB.BMP,resources/DP.BMP,WildCard_NonEx,-0.286666667,-0.036666667,1,0,0,0.563,optionLeft,45,7035,4,3,0,3,0,1,,,,,,,,,,,,,,,,,,,,,,,,,,,,,,,,,,,,,,,
,,,,,,,,2023-08-16_09h31.03.216,HF_wild_card,2022.2.4,Win32,58.82352941,5f5d51785a31085a80509958,64d2fd46c836a06233681665,64dc7af46affa6e52df02f8d,,,,,,,decisionTrl,resources/DR.BMP,resources/DB.BMP,Door3,0.01,-0.003333333,1,0,0,0.061,optionLeft,70,7105,4,4,0,4,0,1,,,,,,,,,,,,,,,,,,,,,,,,,,,,,,,,,,,,,,,
,,,,,,,,2023-08-16_09h31.03.216,HF_wild_card,2022.2.4,Win32,58.82352941,5f5d51785a31085a80509958,64d2fd46c836a06233681665,64dc7af46affa6e52df02f8d,,,,,,,sngl,resources/DG.BMP,resources/Empty.png,Door2,-0.293333333,-0.032222222,1,0,0,0.562,optionLeft,20,7125,4,5,0,5,0,1,,,,,,,,,,,,,,,,,,,,,,,,,,,,,,,,,,,,,,,
,,,,,,,,2023-08-16_09h31.03.216,HF_wild_card,2022.2.4,Win32,58.82352941,5f5d51785a31085a80509958,64d2fd46c836a06233681665,64dc7af46affa6e52df02f8d,,,,,,,decisionTrl,resources/DG.BMP,resources/DP.BMP,Door1,-0.011111111,0.01,1,0,0,0.096,optionRight,30,7155,4,6,0,6,0,1,,,,,,,,,,,,,,,,,,,,,,,,,,,,,,,,,,,,,,,
,,,,,,,,2023-08-16_09h31.03.216,HF_wild_card,2022.2.4,Win32,58.82352941,5f5d51785a31085a80509958,64d2fd46c836a06233681665,64dc7af46affa6e52df02f8d,,,,,,,decisionTrl,resources/DBN.BMP,resources/DR.BMP,Door3,0.005555556,-0.002222222,1,0,0,0.097,optionRight,70,7225,4,7,0,7,0,1,,,,,,,,,,,,,,,,,,,,,,,,,,,,,,,,,,,,,,,
,,,,,,,,2023-08-16_09h31.03.216,HF_wild_card,2022.2.4,Win32,58.82352941,5f5d51785a31085a80509958,64d2fd46c836a06233681665,64dc7af46affa6e52df02f8d,,,,,,,ctch,resources/DP.BMP,resources/DBN.BMP,Door4,-0.017777778,-0.007777778,1,0,0,0.095,optionRight,80,7305,4,8,0,8,0,1,,,,,,,,,,,,,,,,,,,,,,,,,,,,,,,,,,,,,,,
,,,,,,,,2023-08-16_09h31.03.216,HF_wild_card,2022.2.4,Win32,58.82352941,5f5d51785a31085a80509958,64d2fd46c836a06233681665,64dc7af46affa6e52df02f8d,,,,,,,sngl,resources/Empty.png,resources/DR.BMP,Door3,-0.004444444,0.001111111,1,0,0,0.079,optionRight,70,7375,4,9,0,9,0,1,,,,,,,,,,,,,,,,,,,,,,,,,,,,,,,,,,,,,,,
,,,,,,,,2023-08-16_09h31.03.216,HF_wild_card,2022.2.4,Win32,58.82352941,5f5d51785a31085a80509958,64d2fd46c836a06233681665,64dc7af46affa6e52df02f8d,,,,,,,decisionTrl,resources/DG.BMP,resources/DP.BMP,Door1,0.002222222,-0.008888889,1,0,0,0.063,optionRight,30,7405,4,10,0,10,0,1,,,,,,,,,,,,,,,,,,,,,,,,,,,,,,,,,,,,,,,
,,,,,,,,2023-08-16_09h31.03.216,HF_wild_card,2022.2.4,Win32,58.82352941,5f5d51785a31085a80509958,64d2fd46c836a06233681665,64dc7af46affa6e52df02f8d,,,,,,,sngl,resources/Empty.png,resources/DP.BMP,Door1,0.522222222,-0.031111111,1,0,0,0.697,optionRight,30,7435,4,11,0,11,0,1,,,,,,,,,,,,,,,,,,,,,,,,,,,,,,,,,,,,,,,
,,,,,,,,2023-08-16_09h31.03.216,HF_wild_card,2022.2.4,Win32,58.82352941,5f5d51785a31085a80509958,64d2fd46c836a06233681665,64dc7af46affa6e52df02f8d,,,,,,,decisionTrl,resources/DP.BMP,resources/DG.BMP,Door1,0.005555556,-0.006666667,1,0,0,0.079,optionLeft,30,7465,4,12,0,12,0,1,,,,,,,,,,,,,,,,,,,,,,,,,,,,,,,,,,,,,,,
,,,,,,,,2023-08-16_09h31.03.216,HF_wild_card,2022.2.4,Win32,58.82352941,5f5d51785a31085a80509958,64d2fd46c836a06233681665,64dc7af46affa6e52df02f8d,,,,,,,ctch,resources/DP.BMP,resources/DBN.BMP,Door4,0,-0.004444444,1,0,0,0.08,optionRight,60,7525,4,13,0,13,0,1,,,,,,,,,,,,,,,,,,,,,,,,,,,,,,,,,,,,,,,
,,,,,,,,2023-08-16_09h31.03.216,HF_wild_card,2022.2.4,Win32,58.82352941,5f5d51785a31085a80509958,64d2fd46c836a06233681665,64dc7af46affa6e52df02f8d,,,,,,,decisionTrl,resources/DG.BMP,resources/DB.BMP,WildCard_NonEx,-0.011111111,-0.005555556,1,0,0,0.097,optionRight,55,7580,4,14,0,14,0,1,,,,,,,,,,,,,,,,,,,,,,,,,,,,,,,,,,,,,,,
,,,,,,,,2023-08-16_09h31.03.216,HF_wild_card,2022.2.4,Win32,58.82352941,5f5d51785a31085a80509958,64d2fd46c836a06233681665,64dc7af46affa6e52df02f8d,,,,,,,ctch,resources/DG.BMP,resources/DR.BMP,Door3,0.005555556,0.001111111,1,0,0,0.096,optionRight,70,7650,4,15,0,15,0,1,,,,,,,,,,,,,,,,,,,,,,,,,,,,,,,,,,,,,,,
,,,,,,,,2023-08-16_09h31.03.216,HF_wild_card,2022.2.4,Win32,58.82352941,5f5d51785a31085a80509958,64d2fd46c836a06233681665,64dc7af46affa6e52df02f8d,,,,,,,sngl,resources/Empty.png,resources/DG.BMP,Door2,0.006666667,-0.001111111,1,0,0,0.046,optionRight,40,7690,4,16,0,16,0,1,,,,,,,,,,,,,,,,,,,,,,,,,,,,,,,,,,,,,,,
,,,,,,,,2023-08-16_09h31.03.216,HF_wild_card,2022.2.4,Win32,58.82352941,5f5d51785a31085a80509958,64d2fd46c836a06233681665,64dc7af46affa6e52df02f8d,,,,,,,sngl,resources/DR.BMP,resources/Empty.png,Door3,-0.287777778,-0.013333333,1,0,0,0.512,optionLeft,70,7760,4,17,0,17,0,1,,,,,,,,,,,,,,,,,,,,,,,,,,,,,,,,,,,,,,,
,,,,,,,,2023-08-16_09h31.03.216,HF_wild_card,2022.2.4,Win32,58.82352941,5f5d51785a31085a80509958,64d2fd46c836a06233681665,64dc7af46affa6e52df02f8d,,,,,,,sngl,resources/DB.BMP,resources/Empty.png,WildCard_NonEx,-0.227777778,-0.021111111,1,0,0,0.579,optionLeft,55,7815,4,18,0,18,0,1,,,,,,,,,,,,,,,,,,,,,,,,,,,,,,,,,,,,,,,
,,,,,,,,2023-08-16_09h31.03.216,HF_wild_card,2022.2.4,Win32,58.82352941,5f5d51785a31085a80509958,64d2fd46c836a06233681665,64dc7af46affa6e52df02f8d,,,,,,,decisionTrl,resources/DG.BMP,resources/DP.BMP,Door1,0.005555556,0.01,1,0,0,0.061,optionRight,30,7845,4,19,0,19,0,1,,,,,,,,,,,,,,,,,,,,,,,,,,,,,,,,,,,,,,,
,,,,,,,,2023-08-16_09h31.03.216,HF_wild_card,2022.2.4,Win32,58.82352941,5f5d51785a31085a80509958,64d2fd46c836a06233681665,64dc7af46affa6e52df02f8d,,,,,,,decisionTrl,resources/DBN.BMP,resources/DR.BMP,Door4,-0.307777778,-0.044444444,1,0,0,0.872,optionLeft,60,7905,4,20,0,20,0,1,,,,,,,,,,,,,,,,,,,,,,,,,,,,,,,,,,,,,,,
,,,,,,,,2023-08-16_09h31.03.216,HF_wild_card,2022.2.4,Win32,58.82352941,5f5d51785a31085a80509958,64d2fd46c836a06233681665,64dc7af46affa6e52df02f8d,,,,,,,decisionTrl,resources/DP.BMP,resources/DG.BMP,Door1,-0.404444444,-0.048888889,1,0,0,1.763,optionLeft,30,7935,4,21,0,21,0,1,,,,,,,,,,,,,,,,,,,,,,,,,,,,,,,,,,,,,,,
,,,,,,,,2023-08-16_09h31.03.216,HF_wild_card,2022.2.4,Win32,58.82352941,5f5d51785a31085a80509958,64d2fd46c836a06233681665,64dc7af46affa6e52df02f8d,,,,,,,sngl,resources/Empty.png,resources/DB.BMP,WildCard_NonEx,0.428888889,-0.015555556,1,0,0,0.562,optionRight,55,7990,4,22,0,22,0,1,,,,,,,,,,,,,,,,,,,,,,,,,,,,,,,,,,,,,,,
,,,,,,,,2023-08-16_09h31.03.216,HF_wild_card,2022.2.4,Win32,58.82352941,5f5d51785a31085a80509958,64d2fd46c836a06233681665,64dc7af46affa6e52df02f8d,,,,,,,decisionTrl,resources/DB.BMP,resources/DR.BMP,Door3,0.266666667,-0.008888889,1,0,0,1.03,optionRight,70,8060,4,23,0,23,0,1,,,,,,,,,,,,,,,,,,,,,,,,,,,,,,,,,,,,,,,
,,,,,,,,2023-08-16_09h31.03.216,HF_wild_card,2022.2.4,Win32,58.82352941,5f5d51785a31085a80509958,64d2fd46c836a06233681665,64dc7af46affa6e52df02f8d,,,,,,,sngl,resources/DP.BMP,resources/Empty.png,Door1,-0.297777778,-0.018888889,1,0,0,0.647,optionLeft,30,8090,4,24,0,24,0,1,,,,,,,,,,,,,,,,,,,,,,,,,,,,,,,,,,,,,,,
,,,,,,,,2023-08-16_09h31.03.216,HF_wild_card,2022.2.4,Win32,58.82352941,5f5d51785a31085a80509958,64d2fd46c836a06233681665,64dc7af46affa6e52df02f8d,,,,,,,ctch,resources/DG.BMP,resources/DR.BMP,Door3,0.298888889,-0.011111111,1,0,0,2.096,optionRight,70,8160,4,25,0,25,0,1,,,,,,,,,,,,,,,,,,,,,,,,,,,,,,,,,,,,,,,
,,,,,,,,2023-08-16_09h31.03.216,HF_wild_card,2022.2.4,Win32,58.82352941,5f5d51785a31085a80509958,64d2fd46c836a06233681665,64dc7af46affa6e52df02f8d,,,,,,,decisionTrl,resources/DBN.BMP,resources/DR.BMP,Door3,0.312222222,-0.018888889,1,0,0,0.547,optionRight,70,8230,4,26,0,26,0,1,,,,,,,,,,,,,,,,,,,,,,,,,,,,,,,,,,,,,,,
,,,,,,,,2023-08-16_09h31.03.216,HF_wild_card,2022.2.4,Win32,58.82352941,5f5d51785a31085a80509958,64d2fd46c836a06233681665,64dc7af46affa6e52df02f8d,,,,,,,sngl,resources/Empty.png,resources/DBN.BMP,Door4,0.012222222,-0.001111111,1,0,0,0.046,optionRight,80,8310,4,27,0,27,0,1,,,,,,,,,,,,,,,,,,,,,,,,,,,,,,,,,,,,,,,
,,,,,,,,2023-08-16_09h31.03.216,HF_wild_card,2022.2.4,Win32,58.82352941,5f5d51785a31085a80509958,64d2fd46c836a06233681665,64dc7af46affa6e52df02f8d,,,,,,,decisionTrl,resources/DR.BMP,resources/DBN.BMP,Door4,0.356666667,0.004444444,1,0,0,0.595,optionRight,80,8390,4,28,0,28,0,1,,,,,,,,,,,,,,,,,,,,,,,,,,,,,,,,,,,,,,,
,,,,,,,,2023-08-16_09h31.03.216,HF_wild_card,2022.2.4,Win32,58.82352941,5f5d51785a31085a80509958,64d2fd46c836a06233681665,64dc7af46affa6e52df02f8d,,,,,,,decisionTrl,resources/DR.BMP,resources/DBN.BMP,Door3,-0.338888889,-0.028888889,1,0,0,0.597,optionLeft,70,8460,4,29,0,29,0,1,,,,,,,,,,,,,,,,,,,,,,,,,,,,,,,,,,,,,,,
,,,,,,,,2023-08-16_09h31.03.216,HF_wild_card,2022.2.4,Win32,58.82352941,5f5d51785a31085a80509958,64d2fd46c836a06233681665,64dc7af46affa6e52df02f8d,,,,,,,decisionTrl,resources/DB.BMP,resources/DG.BMP,Door2,0.016666667,0.003333333,1,0,0,0.045,optionRight,40,8500,4,30,0,30,0,1,,,,,,,,,,,,,,,,,,,,,,,,,,,,,,,,,,,,,,,
,,,,,,,,2023-08-16_09h31.03.216,HF_wild_card,2022.2.4,Win32,58.82352941,5f5d51785a31085a80509958,64d2fd46c836a06233681665,64dc7af46affa6e52df02f8d,,,,,,,decisionTrl,resources/DP.BMP,resources/DG.BMP,Door1,-0.206666667,-0.035555556,1,0,0,0.629,optionLeft,30,8530,4,31,0,31,0,1,,,,,,,,,,,,,,,,,,,,,,,,,,,,,,,,,,,,,,,
,,,,,,,,2023-08-16_09h31.03.216,HF_wild_card,2022.2.4,Win32,58.82352941,5f5d51785a31085a80509958,64d2fd46c836a06233681665,64dc7af46affa6e52df02f8d,,,,,,,decisionTrl,resources/DB.BMP,resources/DBN.BMP,Door4,0.006666667,-0.007777778,1,0,0,0.046,optionRight,80,8610,4,32,0,32,0,1,,,,,,,,,,,,,,,,,,,,,,,,,,,,,,,,,,,,,,,
,,,,,,,,2023-08-16_09h31.03.216,HF_wild_card,2022.2.4,Win32,58.82352941,5f5d51785a31085a80509958,64d2fd46c836a06233681665,64dc7af46affa6e52df02f8d,,,,,,,decisionTrl,resources/DP.BMP,resources/DG.BMP,Door2,0.002222222,-0.002222222,1,0,0,0.111,optionRight,40,8650,4,33,0,33,0,1,,,,,,,,,,,,,,,,,,,,,,,,,,,,,,,,,,,,,,,
,,,,,,,,2023-08-16_09h31.03.216,HF_wild_card,2022.2.4,Win32,58.82352941,5f5d51785a31085a80509958,64d2fd46c836a06233681665,64dc7af46affa6e52df02f8d,,,,,,,decisionTrl,resources/DR.BMP,resources/DBN.BMP,Door4,0.011111111,-0.001111111,1,0,0,0.063,optionRight,80,8730,4,34,0,34,0,1,,,,,,,,,,,,,,,,,,,,,,,,,,,,,,,,,,,,,,,
,,,,,,,,2023-08-16_09h31.03.216,HF_wild_card,2022.2.4,Win32,58.82352941,5f5d51785a31085a80509958,64d2fd46c836a06233681665,64dc7af46affa6e52df02f8d,,,,,,,ctch,resources/DR.BMP,resources/DG.BMP,Door3,-0.336666667,-0.046666667,1,0,0,0.73,optionLeft,70,8800,4,35,0,35,0,1,,,,,,,,,,,,,,,,,,,,,,,,,,,,,,,,,,,,,,,
,,,,,,,,2023-08-16_09h31.03.216,HF_wild_card,2022.2.4,Win32,58.82352941,5f5d51785a31085a80509958,64d2fd46c836a06233681665,64dc7af46affa6e52df02f8d,,,,,,,decisionTrl,resources/DR.BMP,resources/DBN.BMP,Door4,-0.002222222,-0.001111111,1,0,0,0.036,optionRight,60,8860,4,36,0,36,0,1,,,,,,,,,,,,,,,,,,,,,,,,,,,,,,,,,,,,,,,
,,,,,,,,2023-08-16_09h31.03.216,HF_wild_card,2022.2.4,Win32,58.82352941,5f5d51785a31085a80509958,64d2fd46c836a06233681665,64dc7af46affa6e52df02f8d,,,,,,,ctch,resources/DBN.BMP,resources/DP.BMP,Door1,0.3,-0.004444444,1,0,0,0.629,optionRight,30,8890,4,37,0,37,0,1,,,,,,,,,,,,,,,,,,,,,,,,,,,,,,,,,,,,,,,
,,,,,,,,2023-08-16_09h31.03.216,HF_wild_card,2022.2.4,Win32,58.82352941,5f5d51785a31085a80509958,64d2fd46c836a06233681665,64dc7af46affa6e52df02f8d,,,,,,,ctch,resources/DR.BMP,resources/DG.BMP,Door3,-0.002222222,0.002222222,1,0,0,0.077,optionLeft,70,8960,4,38,0,38,0,1,,,,,,,,,,,,,,,,,,,,,,,,,,,,,,,,,,,,,,,
,,,,,,,,2023-08-16_09h31.03.216,HF_wild_card,2022.2.4,Win32,58.82352941,5f5d51785a31085a80509958,64d2fd46c836a06233681665,64dc7af46affa6e52df02f8d,,,,,,,decisionTrl,resources/DG.BMP,resources/DP.BMP,Door1,0.008888889,-0.002222222,1,0,0,0.063,optionRight,30,8990,4,39,0,39,0,1,,,,,,,,,,,,,,,,,,,,,,,,,,,,,,,,,,,,,,,
,,,,,,,,2023-08-16_09h31.03.216,HF_wild_card,2022.2.4,Win32,58.82352941,5f5d51785a31085a80509958,64d2fd46c836a06233681665,64dc7af46affa6e52df02f8d,,,,,,,sngl,resources/DBN.BMP,resources/Empty.png,Door4,0.004444444,0.008888889,1,0,0,0.062,optionLeft,60,9050,4,40,0,40,0,1,,,,,,,,,,,,,,,,,,,,,,,,,,,,,,,,,,,,,,,
,,,,,,,,2023-08-16_09h31.03.216,HF_wild_card,2022.2.4,Win32,58.82352941,5f5d51785a31085a80509958,64d2fd46c836a06233681665,64dc7af46affa6e52df02f8d,,,,,,,sngl,resources/DB.BMP,resources/Empty.png,WildCard_NonEx,0.001111111,-0.013333333,1,0,0,0.078,optionLeft,45,9095,4,41,0,41,0,1,,,,,,,,,,,,,,,,,,,,,,,,,,,,,,,,,,,,,,,
,,,,,,,,2023-08-16_09h31.03.216,HF_wild_card,2022.2.4,Win32,58.82352941,5f5d51785a31085a80509958,64d2fd46c836a06233681665,64dc7af46affa6e52df02f8d,,,,,,,ctch,resources/DBN.BMP,resources/DP.BMP,Door1,0.36,-0.006666667,1,0,0,0.58,optionRight,30,9125,4,42,0,42,0,1,,,,,,,,,,,,,,,,,,,,,,,,,,,,,,,,,,,,,,,
,,,,,,,,2023-08-16_09h31.03.216,HF_wild_card,2022.2.4,Win32,58.82352941,5f5d51785a31085a80509958,64d2fd46c836a06233681665,64dc7af46affa6e52df02f8d,,,,,,,decisionTrl,resources/DBN.BMP,resources/DB.BMP,Door4,-0.001111111,0.004444444,1,0,0,0.046,optionLeft,80,9205,4,43,0,43,0,1,,,,,,,,,,,,,,,,,,,,,,,,,,,,,,,,,,,,,,,
,,,,,,,,2023-08-16_09h31.03.216,HF_wild_card,2022.2.4,Win32,58.82352941,5f5d51785a31085a80509958,64d2fd46c836a06233681665,64dc7af46affa6e52df02f8d,,,,,,,,,,,,,,,,,,,,,,,,,,3,0,3,0,1,,,,,,,,,,,,,,,,,,,,,,,,,,,,,,,,,,
,,,,,,,,2023-08-16_09h31.03.216,HF_wild_card,2022.2.4,Win32,58.82352941,5f5d51785a31085a80509958,64d2fd46c836a06233681665,64dc7af46affa6e52df02f8d,,,,,,,decisionTrl,resources/DBN.BMP,resources/DR.BMP,Door4,-0.52,0.005555556,1,0,0,2.275,optionLeft,80,9285,5,0,0,0,0,1,,,,,,,,,,,,,,,,,,,,,,,,,,,,,,,,,,,,,,,
,,,,,,,,2023-08-16_09h31.03.216,HF_wild_card,2022.2.4,Win32,58.82352941,5f5d51785a31085a80509958,64d2fd46c836a06233681665,64dc7af46affa6e52df02f8d,,,,,,,sngl,resources/DG.BMP,resources/Empty.png,Door2,-0.413333333,0.034444444,1,0,0,1.046,optionLeft,40,9325,5,1,0,1,0,1,,,,,,,,,,,,,,,,,,,,,,,,,,,,,,,,,,,,,,,
,,,,,,,,2023-08-16_09h31.03.216,HF_wild_card,2022.2.4,Win32,58.82352941,5f5d51785a31085a80509958,64d2fd46c836a06233681665,64dc7af46affa6e52df02f8d,,,,,,,decisionTrl,resources/DP.BMP,resources/DG.BMP,Door2,0.353333333,-0.016666667,1,0,0,0.561,optionRight,40,9365,5,2,0,2,0,1,,,,,,,,,,,,,,,,,,,,,,,,,,,,,,,,,,,,,,,
,,,,,,,,2023-08-16_09h31.03.216,HF_wild_card,2022.2.4,Win32,58.82352941,5f5d51785a31085a80509958,64d2fd46c836a06233681665,64dc7af46affa6e52df02f8d,,,,,,,decisionTrl,resources/DR.BMP,resources/DBN.BMP,Door3,0.005555556,-0.001111111,1,0,0,0.062,optionLeft,70,9435,5,3,0,3,0,1,,,,,,,,,,,,,,,,,,,,,,,,,,,,,,,,,,,,,,,
,,,,,,,,2023-08-16_09h31.03.216,HF_wild_card,2022.2.4,Win32,58.82352941,5f5d51785a31085a80509958,64d2fd46c836a06233681665,64dc7af46affa6e52df02f8d,,,,,,,decisionTrl,resources/DBN.BMP,resources/DB.BMP,Door4,-0.442222222,0.037777778,1,0,0,0.564,optionLeft,80,9515,5,4,0,4,0,1,,,,,,,,,,,,,,,,,,,,,,,,,,,,,,,,,,,,,,,
,,,,,,,,2023-08-16_09h31.03.216,HF_wild_card,2022.2.4,Win32,58.82352941,5f5d51785a31085a80509958,64d2fd46c836a06233681665,64dc7af46affa6e52df02f8d,,,,,,,decisionTrl,resources/DP.BMP,resources/DG.BMP,Door1,-0.304444444,0.011111111,1,0,0,0.545,optionLeft,30,9545,5,5,0,5,0,1,,,,,,,,,,,,,,,,,,,,,,,,,,,,,,,,,,,,,,,
,,,,,,,,2023-08-16_09h31.03.216,HF_wild_card,2022.2.4,Win32,58.82352941,5f5d51785a31085a80509958,64d2fd46c836a06233681665,64dc7af46affa6e52df02f8d,,,,,,,sngl,resources/Empty.png,resources/DP.BMP,Door1,0.403333333,-0.066666667,1,0,0,0.512,optionRight,30,9575,5,6,0,6,0,1,,,,,,,,,,,,,,,,,,,,,,,,,,,,,,,,,,,,,,,
,,,,,,,,2023-08-16_09h31.03.216,HF_wild_card,2022.2.4,Win32,58.82352941,5f5d51785a31085a80509958,64d2fd46c836a06233681665,64dc7af46affa6e52df02f8d,,,,,,,decisionTrl,resources/DB.BMP,resources/DP.BMP,Door1,0.454444444,-0.086666667,1,0,0,0.631,optionRight,30,9605,5,7,0,7,0,1,,,,,,,,,,,,,,,,,,,,,,,,,,,,,,,,,,,,,,,
,,,,,,,,2023-08-16_09h31.03.216,HF_wild_card,2022.2.4,Win32,58.82352941,5f5d51785a31085a80509958,64d2fd46c836a06233681665,64dc7af46affa6e52df02f8d,,,,,,,sngl,resources/Empty.png,resources/DR.BMP,Door3,0.493333333,-0.123333333,1,0,0,1.096,optionRight,70,9675,5,8,0,8,0,1,,,,,,,,,,,,,,,,,,,,,,,,,,,,,,,,,,,,,,,
,,,,,,,,2023-08-16_09h31.03.216,HF_wild_card,2022.2.4,Win32,58.82352941,5f5d51785a31085a80509958,64d2fd46c836a06233681665,64dc7af46affa6e52df02f8d,,,,,,,decisionTrl,resources/DBN.BMP,resources/DR.BMP,Door4,-0.341111111,0.017777778,1,0,0,0.779,optionLeft,60,9735,5,9,0,9,0,1,,,,,,,,,,,,,,,,,,,,,,,,,,,,,,,,,,,,,,,
,,,,,,,,2023-08-16_09h31.03.216,HF_wild_card,2022.2.4,Win32,58.82352941,5f5d51785a31085a80509958,64d2fd46c836a06233681665,64dc7af46affa6e52df02f8d,,,,,,,decisionTrl,resources/DR.BMP,resources/DBN.BMP,Door4,0.371111111,-0.083333333,1,0,0,0.713,optionRight,60,9795,5,10,0,10,0,1,,,,,,,,,,,,,,,,,,,,,,,,,,,,,,,,,,,,,,,
,,,,,,,,2023-08-16_09h31.03.216,HF_wild_card,2022.2.4,Win32,58.82352941,5f5d51785a31085a80509958,64d2fd46c836a06233681665,64dc7af46affa6e52df02f8d,,,,,,,ctch,resources/DR.BMP,resources/DG.BMP,Door3,-0.274444444,-0.006666667,1,0,0,0.595,optionLeft,70,9865,5,11,0,11,0,1,,,,,,,,,,,,,,,,,,,,,,,,,,,,,,,,,,,,,,,
,,,,,,,,2023-08-16_09h31.03.216,HF_wild_card,2022.2.4,Win32,58.82352941,5f5d51785a31085a80509958,64d2fd46c836a06233681665,64dc7af46affa6e52df02f8d,,,,,,,decisionTrl,resources/DG.BMP,resources/DP.BMP,Door1,0.004444444,0,1,0,0,0.094,optionRight,30,9895,5,12,0,12,0,1,,,,,,,,,,,,,,,,,,,,,,,,,,,,,,,,,,,,,,,
,,,,,,,,2023-08-16_09h31.03.216,HF_wild_card,2022.2.4,Win32,58.82352941,5f5d51785a31085a80509958,64d2fd46c836a06233681665,64dc7af46affa6e52df02f8d,,,,,,,decisionTrl,resources/DR.BMP,resources/DBN.BMP,Door3,-0.305555556,0.011111111,1,0,0,0.58,optionLeft,70,9965,5,13,0,13,0,1,,,,,,,,,,,,,,,,,,,,,,,,,,,,,,,,,,,,,,,
,,,,,,,,2023-08-16_09h31.03.216,HF_wild_card,2022.2.4,Win32,58.82352941,5f5d51785a31085a80509958,64d2fd46c836a06233681665,64dc7af46affa6e52df02f8d,,,,,,,sngl,resources/DP.BMP,resources/Empty.png,Door1,-0.332222222,0.047777778,1,0,0,0.679,optionLeft,30,9995,5,14,0,14,0,1,,,,,,,,,,,,,,,,,,,,,,,,,,,,,,,,,,,,,,,
,,,,,,,,2023-08-16_09h31.03.216,HF_wild_card,2022.2.4,Win32,58.82352941,5f5d51785a31085a80509958,64d2fd46c836a06233681665,64dc7af46affa6e52df02f8d,,,,,,,decisionTrl,resources/DP.BMP,resources/DG.BMP,Door2,0.314444444,-0.052222222,1,0,0,0.627,optionRight,40,10035,5,15,0,15,0,1,,,,,,,,,,,,,,,,,,,,,,,,,,,,,,,,,,,,,,,
,,,,,,,,2023-08-16_09h31.03.216,HF_wild_card,2022.2.4,Win32,58.82352941,5f5d51785a31085a80509958,64d2fd46c836a06233681665,64dc7af46affa6e52df02f8d,,,,,,,ctch,resources/DBN.BMP,resources/DP.BMP,Door1,0.384444444,-0.098888889,1,0,0,0.613,optionRight,30,10065,5,16,0,16,0,1,,,,,,,,,,,,,,,,,,,,,,,,,,,,,,,,,,,,,,,
,,,,,,,,2023-08-16_09h31.03.216,HF_wild_card,2022.2.4,Win32,58.82352941,5f5d51785a31085a80509958,64d2fd46c836a06233681665,64dc7af46affa6e52df02f8d,,,,,,,decisionTrl,resources/DG.BMP,resources/DB.BMP,Door2,-0.25,0,1,0,0,0.561,optionLeft,20,10085,5,17,0,17,0,1,,,,,,,,,,,,,,,,,,,,,,,,,,,,,,,,,,,,,,,
,,,,,,,,2023-08-16_09h31.03.216,HF_wild_card,2022.2.4,Win32,58.82352941,5f5d51785a31085a80509958,64d2fd46c836a06233681665,64dc7af46affa6e52df02f8d,,,,,,,decisionTrl,resources/DG.BMP,resources/DP.BMP,Door1,0.255555556,-0.05,1,0,0,0.763,optionRight,30,10115,5,18,0,18,0,1,,,,,,,,,,,,,,,,,,,,,,,,,,,,,,,,,,,,,,,
,,,,,,,,2023-08-16_09h31.03.216,HF_wild_card,2022.2.4,Win32,58.82352941,5f5d51785a31085a80509958,64d2fd46c836a06233681665,64dc7af46affa6e52df02f8d,,,,,,,decisionTrl,resources/DP.BMP,resources/DG.BMP,Door2,0.307777778,-0.038888889,1,0,0,0.545,optionRight,40,10155,5,19,0,19,0,1,,,,,,,,,,,,,,,,,,,,,,,,,,,,,,,,,,,,,,,
,,,,,,,,2023-08-16_09h31.03.216,HF_wild_card,2022.2.4,Win32,58.82352941,5f5d51785a31085a80509958,64d2fd46c836a06233681665,64dc7af46affa6e52df02f8d,,,,,,,decisionTrl,resources/DR.BMP,resources/DBN.BMP,Door4,0.422222222,-0.072222222,1,0,0,0.614,optionRight,80,10235,5,20,0,20,0,1,,,,,,,,,,,,,,,,,,,,,,,,,,,,,,,,,,,,,,,
,,,,,,,,2023-08-16_09h31.03.216,HF_wild_card,2022.2.4,Win32,58.82352941,5f5d51785a31085a80509958,64d2fd46c836a06233681665,64dc7af46affa6e52df02f8d,,,,,,,sngl,resources/Empty.png,resources/DBN.BMP,Door4,0.346666667,-0.048888889,1,0,0,0.532,optionRight,60,10295,5,21,0,21,0,1,,,,,,,,,,,,,,,,,,,,,,,,,,,,,,,,,,,,,,,
,,,,,,,,2023-08-16_09h31.03.216,HF_wild_card,2022.2.4,Win32,58.82352941,5f5d51785a31085a80509958,64d2fd46c836a06233681665,64dc7af46affa6e52df02f8d,,,,,,,ctch,resources/DG.BMP,resources/DR.BMP,Door3,0.397777778,-0.05,1,0,0,0.527,optionRight,70,10365,5,22,0,22,0,1,,,,,,,,,,,,,,,,,,,,,,,,,,,,,,,,,,,,,,,
,,,,,,,,2023-08-16_09h31.03.216,HF_wild_card,2022.2.4,Win32,58.82352941,5f5d51785a31085a80509958,64d2fd46c836a06233681665,64dc7af46affa6e52df02f8d,,,,,,,sngl,resources/DB.BMP,resources/Empty.png,WildCard_NonEx,-0.143333333,0.003333333,1,0,0,0.748,optionLeft,45,10410,5,23,0,23,0,1,,,,,,,,,,,,,,,,,,,,,,,,,,,,,,,,,,,,,,,
,,,,,,,,2023-08-16_09h31.03.216,HF_wild_card,2022.2.4,Win32,58.82352941,5f5d51785a31085a80509958,64d2fd46c836a06233681665,64dc7af46affa6e52df02f8d,,,,,,,decisionTrl,resources/DB.BMP,resources/DG.BMP,WildCard_NonEx,-0.205555556,0,1,0,0,0.658,optionLeft,45,10455,5,24,0,24,0,1,,,,,,,,,,,,,,,,,,,,,,,,,,,,,,,,,,,,,,,
,,,,,,,,2023-08-16_09h31.03.216,HF_wild_card,2022.2.4,Win32,58.82352941,5f5d51785a31085a80509958,64d2fd46c836a06233681665,64dc7af46affa6e52df02f8d,,,,,,,sngl,resources/DB.BMP,resources/Empty.png,WildCard_NonEx,-0.206666667,0.008888889,1,0,0,0.615,optionLeft,55,10510,5,25,0,25,0,1,,,,,,,,,,,,,,,,,,,,,,,,,,,,,,,,,,,,,,,
,,,,,,,,2023-08-16_09h31.03.216,HF_wild_card,2022.2.4,Win32,58.82352941,5f5d51785a31085a80509958,64d2fd46c836a06233681665,64dc7af46affa6e52df02f8d,,,,,,,ctch,resources/DP.BMP,resources/DBN.BMP,Door4,0.264444444,-0.027777778,1,0,0,0.675,optionRight,60,10570,5,26,0,26,0,1,,,,,,,,,,,,,,,,,,,,,,,,,,,,,,,,,,,,,,,
,,,,,,,,2023-08-16_09h31.03.216,HF_wild_card,2022.2.4,Win32,58.82352941,5f5d51785a31085a80509958,64d2fd46c836a06233681665,64dc7af46affa6e52df02f8d,,,,,,,decisionTrl,resources/DBN.BMP,resources/DR.BMP,Door4,-0.285555556,0,1,0,0,0.926,optionLeft,60,10630,5,27,0,27,0,1,,,,,,,,,,,,,,,,,,,,,,,,,,,,,,,,,,,,,,,
,,,,,,,,2023-08-16_09h31.03.216,HF_wild_card,2022.2.4,Win32,58.82352941,5f5d51785a31085a80509958,64d2fd46c836a06233681665,64dc7af46affa6e52df02f8d,,,,,,,decisionTrl,resources/DB.BMP,resources/DR.BMP,Door3,0.283333333,-0.038888889,1,0,0,0.624,optionRight,70,10700,5,28,0,28,0,1,,,,,,,,,,,,,,,,,,,,,,,,,,,,,,,,,,,,,,,
,,,,,,,,2023-08-16_09h31.03.216,HF_wild_card,2022.2.4,Win32,58.82352941,5f5d51785a31085a80509958,64d2fd46c836a06233681665,64dc7af46affa6e52df02f8d,,,,,,,ctch,resources/DG.BMP,resources/DR.BMP,Door2,-0.212222222,0.001111111,1,0,0,0.629,optionLeft,20,10720,5,29,0,29,0,1,,,,,,,,,,,,,,,,,,,,,,,,,,,,,,,,,,,,,,,
,,,,,,,,2023-08-16_09h31.03.216,HF_wild_card,2022.2.4,Win32,58.82352941,5f5d51785a31085a80509958,64d2fd46c836a06233681665,64dc7af46affa6e52df02f8d,,,,,,,sngl,resources/DBN.BMP,resources/Empty.png,Door4,-0.168888889,-0.004444444,1,0,0,0.596,optionLeft,80,10800,5,30,0,30,0,1,,,,,,,,,,,,,,,,,,,,,,,,,,,,,,,,,,,,,,,
,,,,,,,,2023-08-16_09h31.03.216,HF_wild_card,2022.2.4,Win32,58.82352941,5f5d51785a31085a80509958,64d2fd46c836a06233681665,64dc7af46affa6e52df02f8d,,,,,,,ctch,resources/DR.BMP,resources/DG.BMP,Door2,0.321111111,-0.078888889,1,0,0,0.613,optionRight,40,10840,5,31,0,31,0,1,,,,,,,,,,,,,,,,,,,,,,,,,,,,,,,,,,,,,,,
,,,,,,,,2023-08-16_09h31.03.216,HF_wild_card,2022.2.4,Win32,58.82352941,5f5d51785a31085a80509958,64d2fd46c836a06233681665,64dc7af46affa6e52df02f8d,,,,,,,decisionTrl,resources/DG.BMP,resources/DP.BMP,Door1,0.345555556,-0.104444444,1,0,0,0.578,optionRight,30,10870,5,32,0,32,0,1,,,,,,,,,,,,,,,,,,,,,,,,,,,,,,,,,,,,,,,
,,,,,,,,2023-08-16_09h31.03.216,HF_wild_card,2022.2.4,Win32,58.82352941,5f5d51785a31085a80509958,64d2fd46c836a06233681665,64dc7af46affa6e52df02f8d,,,,,,,sngl,resources/DR.BMP,resources/Empty.png,Door3,-0.333333333,0.02,1,0,0,0.813,optionLeft,70,10940,5,33,0,33,0,1,,,,,,,,,,,,,,,,,,,,,,,,,,,,,,,,,,,,,,,
,,,,,,,,2023-08-16_09h31.03.216,HF_wild_card,2022.2.4,Win32,58.82352941,5f5d51785a31085a80509958,64d2fd46c836a06233681665,64dc7af46affa6e52df02f8d,,,,,,,sngl,resources/Empty.png,resources/DG.BMP,Door2,0.291111111,-0.044444444,1,0,0,0.596,optionRight,20,10960,5,34,0,34,0,1,,,,,,,,,,,,,,,,,,,,,,,,,,,,,,,,,,,,,,,
,,,,,,,,2023-08-16_09h31.03.216,HF_wild_card,2022.2.4,Win32,58.82352941,5f5d51785a31085a80509958,64d2fd46c836a06233681665,64dc7af46affa6e52df02f8d,,,,,,,ctch,resources/DBN.BMP,resources/DP.BMP,Door1,0.284444444,-0.063333333,1,0,0,0.546,optionRight,30,10990,5,35,0,35,0,1,,,,,,,,,,,,,,,,,,,,,,,,,,,,,,,,,,,,,,,
,,,,,,,,2023-08-16_09h31.03.216,HF_wild_card,2022.2.4,Win32,58.82352941,5f5d51785a31085a80509958,64d2fd46c836a06233681665,64dc7af46affa6e52df02f8d,,,,,,,sngl,resources/Empty.png,resources/DB.BMP,WildCard_NonEx,0.235555556,-0.036666667,1,0,0,0.513,optionRight,45,11035,5,36,0,36,0,1,,,,,,,,,,,,,,,,,,,,,,,,,,,,,,,,,,,,,,,
,,,,,,,,2023-08-16_09h31.03.216,HF_wild_card,2022.2.4,Win32,58.82352941,5f5d51785a31085a80509958,64d2fd46c836a06233681665,64dc7af46affa6e52df02f8d,,,,,,,sngl,resources/Empty.png,resources/DB.BMP,WildCard_NonEx,0.314444444,-0.003333333,1,0,0,0.529,optionRight,55,11090,5,37,0,37,0,1,,,,,,,,,,,,,,,,,,,,,,,,,,,,,,,,,,,,,,,
,,,,,,,,2023-08-16_09h31.03.216,HF_wild_card,2022.2.4,Win32,58.82352941,5f5d51785a31085a80509958,64d2fd46c836a06233681665,64dc7af46affa6e52df02f8d,,,,,,,decisionTrl,resources/DBN.BMP,resources/DR.BMP,Door3,0.313333333,-0.007777778,1,0,0,0.513,optionRight,70,11160,5,38,0,38,0,1,,,,,,,,,,,,,,,,,,,,,,,,,,,,,,,,,,,,,,,
,,,,,,,,2023-08-16_09h31.03.216,HF_wild_card,2022.2.4,Win32,58.82352941,5f5d51785a31085a80509958,64d2fd46c836a06233681665,64dc7af46affa6e52df02f8d,,,,,,,decisionTrl,resources/DR.BMP,resources/DB.BMP,WildCard_NonEx,0.355555556,-0.017777778,1,0,0,0.53,optionRight,55,11215,5,39,0,39,0,1,,,,,,,,,,,,,,,,,,,,,,,,,,,,,,,,,,,,,,,
,,,,,,,,2023-08-16_09h31.03.216,HF_wild_card,2022.2.4,Win32,58.82352941,5f5d51785a31085a80509958,64d2fd46c836a06233681665,64dc7af46affa6e52df02f8d,,,,,,,decisionTrl,resources/DG.BMP,resources/DP.BMP,Door1,0.371111111,-0.055555556,1,0,0,0.547,optionRight,30,11245,5,40,0,40,0,1,,,,,,,,,,,,,,,,,,,,,,,,,,,,,,,,,,,,,,,
,,,,,,,,2023-08-16_09h31.03.216,HF_wild_card,2022.2.4,Win32,58.82352941,5f5d51785a31085a80509958,64d2fd46c836a06233681665,64dc7af46affa6e52df02f8d,,,,,,,decisionTrl,resources/DP.BMP,resources/DB.BMP,WildCard_NonEx,0.344444444,-0.032222222,1,0,0,0.947,optionRight,45,11290,5,41,0,41,0,1,,,,,,,,,,,,,,,,,,,,,,,,,,,,,,,,,,,,,,,
,,,,,,,,2023-08-16_09h31.03.216,HF_wild_card,2022.2.4,Win32,58.82352941,5f5d51785a31085a80509958,64d2fd46c836a06233681665,64dc7af46affa6e52df02f8d,,,,,,,decisionTrl,resources/DB.BMP,resources/DBN.BMP,WildCard_NonEx,-0.218888889,-0.056666667,1,0,0,0.663,optionLeft,55,11345,5,42,0,42,0,1,,,,,,,,,,,,,,,,,,,,,,,,,,,,,,,,,,,,,,,
,,,,,,,,2023-08-16_09h31.03.216,HF_wild_card,2022.2.4,Win32,58.82352941,5f5d51785a31085a80509958,64d2fd46c836a06233681665,64dc7af46affa6e52df02f8d,,,,,,,ctch,resources/DP.BMP,resources/DBN.BMP,Door4,0.48,-0.052222222,1,0,0,1.147,optionRight,80,11425,5,43,0,43,0,1,,,,,,,,,,,,,,,,,,,,,,,,,,,,,,,,,,,,,,,
,,,,,,,,2023-08-16_09h31.03.216,HF_wild_card,2022.2.4,Win32,58.82352941,5f5d51785a31085a80509958,64d2fd46c836a06233681665,64dc7af46affa6e52df02f8d,,,,,,,,,,,,,,,,,,,,,,,,,,4,0,4,0,1,,,,,,,,,,,,,,,,,,,,,,,,,,,,,,,,,,
,,,,,,,,2023-08-16_09h31.03.216,HF_wild_card,2022.2.4,Win32,58.82352941,5f5d51785a31085a80509958,64d2fd46c836a06233681665,64dc7af46affa6e52df02f8d,,,,,,,sngl,resources/Empty.png,resources/DR.BMP,Door3,0.035555556,-0.333333333,1,0,0,0.068,optionRight,70,11495,6,0,0,0,0,1,,,,,,,,,,,,,,,,,,,,,,,,,,,,,,,,,,,,,,,
,,,,,,,,2023-08-16_09h31.03.216,HF_wild_card,2022.2.4,Win32,58.82352941,5f5d51785a31085a80509958,64d2fd46c836a06233681665,64dc7af46affa6e52df02f8d,,,,,,,sngl,resources/DBN.BMP,resources/Empty.png,Door4,-0.24,-0.026666667,1,0,0,0.674,optionLeft,60,11555,6,1,0,1,0,1,,,,,,,,,,,,,,,,,,,,,,,,,,,,,,,,,,,,,,,
,,,,,,,,2023-08-16_09h31.03.216,HF_wild_card,2022.2.4,Win32,58.82352941,5f5d51785a31085a80509958,64d2fd46c836a06233681665,64dc7af46affa6e52df02f8d,,,,,,,decisionTrl,resources/DG.BMP,resources/DP.BMP,Door1,0.354444444,0.02,1,0,0,0.628,optionRight,30,11585,6,2,0,2,0,1,,,,,,,,,,,,,,,,,,,,,,,,,,,,,,,,,,,,,,,
,,,,,,,,2023-08-16_09h31.03.216,HF_wild_card,2022.2.4,Win32,58.82352941,5f5d51785a31085a80509958,64d2fd46c836a06233681665,64dc7af46affa6e52df02f8d,,,,,,,decisionTrl,resources/DR.BMP,resources/DBN.BMP,Door4,0.39,-0.003333333,1,0,0,0.513,optionRight,80,11665,6,3,0,3,0,1,,,,,,,,,,,,,,,,,,,,,,,,,,,,,,,,,,,,,,,
,,,,,,,,2023-08-16_09h31.03.216,HF_wild_card,2022.2.4,Win32,58.82352941,5f5d51785a31085a80509958,64d2fd46c836a06233681665,64dc7af46affa6e52df02f8d,,,,,,,decisionTrl,resources/DR.BMP,resources/DBN.BMP,Door4,0.011111111,0.005555556,1,0,0,0.062,optionRight,60,11725,6,4,0,4,0,1,,,,,,,,,,,,,,,,,,,,,,,,,,,,,,,,,,,,,,,
,,,,,,,,2023-08-16_09h31.03.216,HF_wild_card,2022.2.4,Win32,58.82352941,5f5d51785a31085a80509958,64d2fd46c836a06233681665,64dc7af46affa6e52df02f8d,,,,,,,decisionTrl,resources/DP.BMP,resources/DG.BMP,Door2,0.453333333,-0.003333333,1,0,0,0.597,optionRight,20,11745,6,5,0,5,0,1,,,,,,,,,,,,,,,,,,,,,,,,,,,,,,,,,,,,,,,
,,,,,,,,2023-08-16_09h31.03.216,HF_wild_card,2022.2.4,Win32,58.82352941,5f5d51785a31085a80509958,64d2fd46c836a06233681665,64dc7af46affa6e52df02f8d,,,,,,,decisionTrl,resources/DB.BMP,resources/DR.BMP,Door3,0.268888889,0,1,0,0,0.464,optionRight,70,11815,6,6,0,6,0,1,,,,,,,,,,,,,,,,,,,,,,,,,,,,,,,,,,,,,,,
,,,,,,,,2023-08-16_09h31.03.216,HF_wild_card,2022.2.4,Win32,58.82352941,5f5d51785a31085a80509958,64d2fd46c836a06233681665,64dc7af46affa6e52df02f8d,,,,,,,ctch,resources/DG.BMP,resources/DR.BMP,Door3,0.37,-0.04,1,0,0,0.529,optionRight,70,11885,6,7,0,7,0,1,,,,,,,,,,,,,,,,,,,,,,,,,,,,,,,,,,,,,,,
,,,,,,,,2023-08-16_09h31.03.216,HF_wild_card,2022.2.4,Win32,58.82352941,5f5d51785a31085a80509958,64d2fd46c836a06233681665,64dc7af46affa6e52df02f8d,,,,,,,decisionTrl,resources/DG.BMP,resources/DP.BMP,Door1,0.272222222,-0.035555556,1,0,0,0.53,optionRight,30,11915,6,8,0,8,0,1,,,,,,,,,,,,,,,,,,,,,,,,,,,,,,,,,,,,,,,
,,,,,,,,2023-08-16_09h31.03.216,HF_wild_card,2022.2.4,Win32,58.82352941,5f5d51785a31085a80509958,64d2fd46c836a06233681665,64dc7af46affa6e52df02f8d,,,,,,,decisionTrl,resources/DG.BMP,resources/DP.BMP,Door1,0.39,-0.075555556,1,0,0,0.58,optionRight,30,11945,6,9,0,9,0,1,,,,,,,,,,,,,,,,,,,,,,,,,,,,,,,,,,,,,,,
,,,,,,,,2023-08-16_09h31.03.216,HF_wild_card,2022.2.4,Win32,58.82352941,5f5d51785a31085a80509958,64d2fd46c836a06233681665,64dc7af46affa6e52df02f8d,,,,,,,sngl,resources/DP.BMP,resources/Empty.png,Door1,-0.37,-0.02,1,0,0,0.545,optionLeft,30,11975,6,10,0,10,0,1,,,,,,,,,,,,,,,,,,,,,,,,,,,,,,,,,,,,,,,
,,,,,,,,2023-08-16_09h31.03.216,HF_wild_card,2022.2.4,Win32,58.82352941,5f5d51785a31085a80509958,64d2fd46c836a06233681665,64dc7af46affa6e52df02f8d,,,,,,,decisionTrl,resources/DG.BMP,resources/DP.BMP,Door1,0.36,-0.054444444,1,0,0,1.463,optionRight,30,12005,6,11,0,11,0,1,,,,,,,,,,,,,,,,,,,,,,,,,,,,,,,,,,,,,,,
,,,,,,,,2023-08-16_09h31.03.216,HF_wild_card,2022.2.4,Win32,58.82352941,5f5d51785a31085a80509958,64d2fd46c836a06233681665,64dc7af46affa6e52df02f8d,,,,,,,sngl,resources/Empty.png,resources/DG.BMP,Door2,0.47,-0.023333333,1,0,0,0.878,optionRight,40,12045,6,12,0,12,0,1,,,,,,,,,,,,,,,,,,,,,,,,,,,,,,,,,,,,,,,
,,,,,,,,2023-08-16_09h31.03.216,HF_wild_card,2022.2.4,Win32,58.82352941,5f5d51785a31085a80509958,64d2fd46c836a06233681665,64dc7af46affa6e52df02f8d,,,,,,,decisionTrl,resources/DBN.BMP,resources/DR.BMP,Door4,-0.387777778,-0.011111111,1,0,0,0.628,optionLeft,80,12125,6,13,0,13,0,1,,,,,,,,,,,,,,,,,,,,,,,,,,,,,,,,,,,,,,,
,,,,,,,,2023-08-16_09h31.03.216,HF_wild_card,2022.2.4,Win32,58.82352941,5f5d51785a31085a80509958,64d2fd46c836a06233681665,64dc7af46affa6e52df02f8d,,,,,,,sngl,resources/Empty.png,resources/DB.BMP,WildCard_NonEx,0.522222222,-0.067777778,1,0,0,1.313,optionRight,45,12170,6,14,0,14,0,1,,,,,,,,,,,,,,,,,,,,,,,,,,,,,,,,,,,,,,,
,,,,,,,,2023-08-16_09h31.03.216,HF_wild_card,2022.2.4,Win32,58.82352941,5f5d51785a31085a80509958,64d2fd46c836a06233681665,64dc7af46affa6e52df02f8d,,,,,,,decisionTrl,resources/DB.BMP,resources/DBN.BMP,Door4,0.397777778,-0.021111111,1,0,0,0.596,optionRight,80,12250,6,15,0,15,0,1,,,,,,,,,,,,,,,,,,,,,,,,,,,,,,,,,,,,,,,
,,,,,,,,2023-08-16_09h31.03.216,HF_wild_card,2022.2.4,Win32,58.82352941,5f5d51785a31085a80509958,64d2fd46c836a06233681665,64dc7af46affa6e52df02f8d,,,,,,,decisionTrl,resources/DB.BMP,resources/DP.BMP,Door1,0.331111111,-0.017777778,1,0,0,0.496,optionRight,30,12280,6,16,0,16,0,1,,,,,,,,,,,,,,,,,,,,,,,,,,,,,,,,,,,,,,,
,,,,,,,,2023-08-16_09h31.03.216,HF_wild_card,2022.2.4,Win32,58.82352941,5f5d51785a31085a80509958,64d2fd46c836a06233681665,64dc7af46affa6e52df02f8d,,,,,,,sngl,resources/Empty.png,resources/DBN.BMP,Door4,0.34,-0.014444444,1,0,0,0.496,optionRight,80,12360,6,17,0,17,0,1,,,,,,,,,,,,,,,,,,,,,,,,,,,,,,,,,,,,,,,
,,,,,,,,2023-08-16_09h31.03.216,HF_wild_card,2022.2.4,Win32,58.82352941,5f5d51785a31085a80509958,64d2fd46c836a06233681665,64dc7af46affa6e52df02f8d,,,,,,,sngl,resources/DG.BMP,resources/Empty.png,Door2,-0.26,-0.012222222,1,0,0,0.73,optionLeft,20,12380,6,18,0,18,0,1,,,,,,,,,,,,,,,,,,,,,,,,,,,,,,,,,,,,,,,
,,,,,,,,2023-08-16_09h31.03.216,HF_wild_card,2022.2.4,Win32,58.82352941,5f5d51785a31085a80509958,64d2fd46c836a06233681665,64dc7af46affa6e52df02f8d,,,,,,,ctch,resources/DP.BMP,resources/DBN.BMP,Door4,0.271111111,-0.013333333,1,0,0,0.496,optionRight,80,12460,6,19,0,19,0,1,,,,,,,,,,,,,,,,,,,,,,,,,,,,,,,,,,,,,,,
,,,,,,,,2023-08-16_09h31.03.216,HF_wild_card,2022.2.4,Win32,58.82352941,5f5d51785a31085a80509958,64d2fd46c836a06233681665,64dc7af46affa6e52df02f8d,,,,,,,sngl,resources/Empty.png,resources/DB.BMP,WildCard_NonEx,0.243333333,-0.004444444,1,0,0,0.498,optionRight,55,12515,6,20,0,20,0,1,,,,,,,,,,,,,,,,,,,,,,,,,,,,,,,,,,,,,,,
,,,,,,,,2023-08-16_09h31.03.216,HF_wild_card,2022.2.4,Win32,58.82352941,5f5d51785a31085a80509958,64d2fd46c836a06233681665,64dc7af46affa6e52df02f8d,,,,,,,decisionTrl,resources/DBN.BMP,resources/DR.BMP,Door3,0.253333333,-0.005555556,1,0,0,0.595,optionRight,70,12585,6,21,0,21,0,1,,,,,,,,,,,,,,,,,,,,,,,,,,,,,,,,,,,,,,,
,,,,,,,,2023-08-16_09h31.03.216,HF_wild_card,2022.2.4,Win32,58.82352941,5f5d51785a31085a80509958,64d2fd46c836a06233681665,64dc7af46affa6e52df02f8d,,,,,,,ctch,resources/DBN.BMP,resources/DP.BMP,Door4,-0.407777778,-0.007777778,1,0,0,1.096,optionLeft,60,12645,6,22,0,22,0,1,,,,,,,,,,,,,,,,,,,,,,,,,,,,,,,,,,,,,,,
,,,,,,,,2023-08-16_09h31.03.216,HF_wild_card,2022.2.4,Win32,58.82352941,5f5d51785a31085a80509958,64d2fd46c836a06233681665,64dc7af46affa6e52df02f8d,,,,,,,decisionTrl,resources/DP.BMP,resources/DG.BMP,Door1,-0.3,-0.003333333,1,0,0,0.579,optionLeft,30,12675,6,23,0,23,0,1,,,,,,,,,,,,,,,,,,,,,,,,,,,,,,,,,,,,,,,
,,,,,,,,2023-08-16_09h31.03.216,HF_wild_card,2022.2.4,Win32,58.82352941,5f5d51785a31085a80509958,64d2fd46c836a06233681665,64dc7af46affa6e52df02f8d,,,,,,,decisionTrl,resources/DG.BMP,resources/DB.BMP,Door2,-0.286666667,0.014444444,1,0,0,0.546,optionLeft,20,12695,6,24,0,24,0,1,,,,,,,,,,,,,,,,,,,,,,,,,,,,,,,,,,,,,,,
,,,,,,,,2023-08-16_09h31.03.216,HF_wild_card,2022.2.4,Win32,58.82352941,5f5d51785a31085a80509958,64d2fd46c836a06233681665,64dc7af46affa6e52df02f8d,,,,,,,decisionTrl,resources/DBN.BMP,resources/DR.BMP,Door4,-0.306666667,-0.002222222,1,0,0,0.514,optionLeft,60,12755,6,25,0,25,0,1,,,,,,,,,,,,,,,,,,,,,,,,,,,,,,,,,,,,,,,
,,,,,,,,2023-08-16_09h31.03.216,HF_wild_card,2022.2.4,Win32,58.82352941,5f5d51785a31085a80509958,64d2fd46c836a06233681665,64dc7af46affa6e52df02f8d,,,,,,,sngl,resources/DB.BMP,resources/Empty.png,WildCard_NonEx,-0.464444444,0.002222222,1,0,0,0.563,optionLeft,55,12810,6,26,0,26,0,1,,,,,,,,,,,,,,,,,,,,,,,,,,,,,,,,,,,,,,,
,,,,,,,,2023-08-16_09h31.03.216,HF_wild_card,2022.2.4,Win32,58.82352941,5f5d51785a31085a80509958,64d2fd46c836a06233681665,64dc7af46affa6e52df02f8d,,,,,,,sngl,resources/Empty.png,resources/DP.BMP,Door1,0.25,-0.073333333,1,0,0,0.68,optionRight,30,12840,6,27,0,27,0,1,,,,,,,,,,,,,,,,,,,,,,,,,,,,,,,,,,,,,,,
,,,,,,,,2023-08-16_09h31.03.216,HF_wild_card,2022.2.4,Win32,58.82352941,5f5d51785a31085a80509958,64d2fd46c836a06233681665,64dc7af46affa6e52df02f8d,,,,,,,decisionTrl,resources/DBN.BMP,resources/DB.BMP,WildCard_NonEx,0.323333333,-0.074444444,1,0,0,0.563,optionRight,45,12885,6,28,0,28,0,1,,,,,,,,,,,,,,,,,,,,,,,,,,,,,,,,,,,,,,,
,,,,,,,,2023-08-16_09h31.03.216,HF_wild_card,2022.2.4,Win32,58.82352941,5f5d51785a31085a80509958,64d2fd46c836a06233681665,64dc7af46affa6e52df02f8d,,,,,,,decisionTrl,resources/DP.BMP,resources/DB.BMP,Door1,-0.298888889,-0.032222222,1,0,0,0.631,optionLeft,30,12915,6,29,0,29,0,1,,,,,,,,,,,,,,,,,,,,,,,,,,,,,,,,,,,,,,,
,,,,,,,,2023-08-16_09h31.03.216,HF_wild_card,2022.2.4,Win32,58.82352941,5f5d51785a31085a80509958,64d2fd46c836a06233681665,64dc7af46affa6e52df02f8d,,,,,,,decisionTrl,resources/DR.BMP,resources/DBN.BMP,Door4,0.296666667,-0.001111111,1,0,0,0.829,optionRight,80,12995,6,30,0,30,0,1,,,,,,,,,,,,,,,,,,,,,,,,,,,,,,,,,,,,,,,
,,,,,,,,2023-08-16_09h31.03.216,HF_wild_card,2022.2.4,Win32,58.82352941,5f5d51785a31085a80509958,64d2fd46c836a06233681665,64dc7af46affa6e52df02f8d,,,,,,,sngl,resources/DB.BMP,resources/Empty.png,WildCard_NonEx,-0.292222222,0.004444444,1,0,0,0.745,optionLeft,45,13040,6,31,0,31,0,1,,,,,,,,,,,,,,,,,,,,,,,,,,,,,,,,,,,,,,,
,,,,,,,,2023-08-16_09h31.03.216,HF_wild_card,2022.2.4,Win32,58.82352941,5f5d51785a31085a80509958,64d2fd46c836a06233681665,64dc7af46affa6e52df02f8d,,,,,,,decisionTrl,resources/DR.BMP,resources/DBN.BMP,Door4,0.205555556,-0.002222222,1,0,0,0.629,optionRight,60,13100,6,32,0,32,0,1,,,,,,,,,,,,,,,,,,,,,,,,,,,,,,,,,,,,,,,
,,,,,,,,2023-08-16_09h31.03.216,HF_wild_card,2022.2.4,Win32,58.82352941,5f5d51785a31085a80509958,64d2fd46c836a06233681665,64dc7af46affa6e52df02f8d,,,,,,,decisionTrl,resources/DBN.BMP,resources/DR.BMP,Door3,0.402222222,-0.075555556,1,0,0,0.513,optionRight,70,13170,6,33,0,33,0,1,,,,,,,,,,,,,,,,,,,,,,,,,,,,,,,,,,,,,,,
,,,,,,,,2023-08-16_09h31.03.216,HF_wild_card,2022.2.4,Win32,58.82352941,5f5d51785a31085a80509958,64d2fd46c836a06233681665,64dc7af46affa6e52df02f8d,,,,,,,ctch,resources/DBN.BMP,resources/DP.BMP,Door1,0.376666667,-0.046666667,1,0,0,0.512,optionRight,30,13200,6,34,0,34,0,1,,,,,,,,,,,,,,,,,,,,,,,,,,,,,,,,,,,,,,,
,,,,,,,,2023-08-16_09h31.03.216,HF_wild_card,2022.2.4,Win32,58.82352941,5f5d51785a31085a80509958,64d2fd46c836a06233681665,64dc7af46affa6e52df02f8d,,,,,,,ctch,resources/DR.BMP,resources/DG.BMP,Door3,-0.273333333,-0.035555556,1,0,0,0.78,optionLeft,70,13270,6,35,0,35,0,1,,,,,,,,,,,,,,,,,,,,,,,,,,,,,,,,,,,,,,,
,,,,,,,,2023-08-16_09h31.03.216,HF_wild_card,2022.2.4,Win32,58.82352941,5f5d51785a31085a80509958,64d2fd46c836a06233681665,64dc7af46affa6e52df02f8d,,,,,,,decisionTrl,resources/DB.BMP,resources/DG.BMP,WildCard_NonEx,-0.218888889,-0.025555556,1,0,0,0.629,optionLeft,45,13315,6,36,0,36,0,1,,,,,,,,,,,,,,,,,,,,,,,,,,,,,,,,,,,,,,,
,,,,,,,,2023-08-16_09h31.03.216,HF_wild_card,2022.2.4,Win32,58.82352941,5f5d51785a31085a80509958,64d2fd46c836a06233681665,64dc7af46affa6e52df02f8d,,,,,,,decisionTrl,resources/DR.BMP,resources/DB.BMP,WildCard_NonEx,0.246666667,0,1,0,0,0.613,optionRight,55,13370,6,37,0,37,0,1,,,,,,,,,,,,,,,,,,,,,,,,,,,,,,,,,,,,,,,
,,,,,,,,2023-08-16_09h31.03.216,HF_wild_card,2022.2.4,Win32,58.82352941,5f5d51785a31085a80509958,64d2fd46c836a06233681665,64dc7af46affa6e52df02f8d,,,,,,,ctch,resources/DP.BMP,resources/DBN.BMP,Door1,-0.275555556,-0.002222222,1,0,0,0.78,optionLeft,30,13400,6,38,0,38,0,1,,,,,,,,,,,,,,,,,,,,,,,,,,,,,,,,,,,,,,,
,,,,,,,,2023-08-16_09h31.03.216,HF_wild_card,2022.2.4,Win32,58.82352941,5f5d51785a31085a80509958,64d2fd46c836a06233681665,64dc7af46affa6e52df02f8d,,,,,,,sngl,resources/DR.BMP,resources/Empty.png,Door3,-0.197777778,0.001111111,1,0,0,0.634,optionLeft,70,13470,6,39,0,39,0,1,,,,,,,,,,,,,,,,,,,,,,,,,,,,,,,,,,,,,,,
,,,,,,,,2023-08-16_09h31.03.216,HF_wild_card,2022.2.4,Win32,58.82352941,5f5d51785a31085a80509958,64d2fd46c836a06233681665,64dc7af46affa6e52df02f8d,,,,,,,ctch,resources/DR.BMP,resources/DG.BMP,Door2,0.407777778,-0.035555556,1,0,0,0.966,optionRight,20,13490,6,40,0,40,0,1,,,,,,,,,,,,,,,,,,,,,,,,,,,,,,,,,,,,,,,
,,,,,,,,2023-08-16_09h31.03.216,HF_wild_card,2022.2.4,Win32,58.82352941,5f5d51785a31085a80509958,64d2fd46c836a06233681665,64dc7af46affa6e52df02f8d,,,,,,,ctch,resources/DG.BMP,resources/DR.BMP,Door3,0.371111111,-0.011111111,1,0,0,0.814,optionRight,70,13560,6,41,0,41,0,1,,,,,,,,,,,,,,,,,,,,,,,,,,,,,,,,,,,,,,,
,,,,,,,,2023-08-16_09h31.03.216,HF_wild_card,2022.2.4,Win32,58.82352941,5f5d51785a31085a80509958,64d2fd46c836a06233681665,64dc7af46affa6e52df02f8d,,,,,,,decisionTrl,resources/DP.BMP,resources/DG.BMP,Door1,-0.288888889,-0.032222222,1,0,0,0.88,optionLeft,30,13590,6,42,0,42,0,1,,,,,,,,,,,,,,,,,,,,,,,,,,,,,,,,,,,,,,,
,,,,,,,,2023-08-16_09h31.03.216,HF_wild_card,2022.2.4,Win32,58.82352941,5f5d51785a31085a80509958,64d2fd46c836a06233681665,64dc7af46affa6e52df02f8d,,,,,,,decisionTrl,resources/DP.BMP,resources/DG.BMP,Door1,-0.257777778,-0.005555556,1,0,0,0.598,optionLeft,30,13620,6,43,0,43,0,1,,,,,,,,,,,,,,,,,,,,,,,,,,,,,,,,,,,,,,,
,,,,,,,,2023-08-16_09h31.03.216,HF_wild_card,2022.2.4,Win32,58.82352941,5f5d51785a31085a80509958,64d2fd46c836a06233681665,64dc7af46affa6e52df02f8d,,,,,,,,,,,,,,,,,,,,,,,,,,5,0,5,0,1,,,,,,,,,,,,,,,,,,,,,,,,,,,,,,,,,,
,,,,,,,,2023-08-16_09h31.03.216,HF_wild_card,2022.2.4,Win32,58.82352941,5f5d51785a31085a80509958,64d2fd46c836a06233681665,64dc7af46affa6e52df02f8d,,,,,,,ctch,resources/DG.BMP,resources/DR.BMP,Door3,0.406666667,0.048888889,1,0,0,2.812,optionRight,70,13690,7,0,0,0,0,1,,,,,,,,,,,,,,,,,,,,,,,,,,,,,,,,,,,,,,,
,,,,,,,,2023-08-16_09h31.03.216,HF_wild_card,2022.2.4,Win32,58.82352941,5f5d51785a31085a80509958,64d2fd46c836a06233681665,64dc7af46affa6e52df02f8d,,,,,,,decisionTrl,resources/DBN.BMP,resources/DR.BMP,Door3,0.426666667,-0.006666667,1,0,0,0.577,optionRight,70,13760,7,1,0,1,0,1,,,,,,,,,,,,,,,,,,,,,,,,,,,,,,,,,,,,,,,
,,,,,,,,2023-08-16_09h31.03.216,HF_wild_card,2022.2.4,Win32,58.82352941,5f5d51785a31085a80509958,64d2fd46c836a06233681665,64dc7af46affa6e52df02f8d,,,,,,,ctch,resources/DP.BMP,resources/DBN.BMP,Door4,0.326666667,-0.007777778,1,0,0,1.052,optionRight,60,13820,7,2,0,2,0,1,,,,,,,,,,,,,,,,,,,,,,,,,,,,,,,,,,,,,,,
,,,,,,,,2023-08-16_09h31.03.216,HF_wild_card,2022.2.4,Win32,58.82352941,5f5d51785a31085a80509958,64d2fd46c836a06233681665,64dc7af46affa6e52df02f8d,,,,,,,decisionTrl,resources/DG.BMP,resources/DP.BMP,Door1,0.422222222,0.011111111,1,0,0,0.814,optionRight,30,13850,7,3,0,3,0,1,,,,,,,,,,,,,,,,,,,,,,,,,,,,,,,,,,,,,,,
,,,,,,,,2023-08-16_09h31.03.216,HF_wild_card,2022.2.4,Win32,58.82352941,5f5d51785a31085a80509958,64d2fd46c836a06233681665,64dc7af46affa6e52df02f8d,,,,,,,ctch,resources/DBN.BMP,resources/DP.BMP,Door4,0.005555556,0.013333333,1,0,0,0.091,optionLeft,60,13910,7,4,0,4,0,1,,,,,,,,,,,,,,,,,,,,,,,,,,,,,,,,,,,,,,,
,,,,,,,,2023-08-16_09h31.03.216,HF_wild_card,2022.2.4,Win32,58.82352941,5f5d51785a31085a80509958,64d2fd46c836a06233681665,64dc7af46affa6e52df02f8d,,,,,,,decisionTrl,resources/DR.BMP,resources/DBN.BMP,Door4,0.458888889,0.023333333,1,0,0,0.867,optionRight,80,13990,7,5,0,5,0,1,,,,,,,,,,,,,,,,,,,,,,,,,,,,,,,,,,,,,,,
,,,,,,,,2023-08-16_09h31.03.216,HF_wild_card,2022.2.4,Win32,58.82352941,5f5d51785a31085a80509958,64d2fd46c836a06233681665,64dc7af46affa6e52df02f8d,,,,,,,ctch,resources/DBN.BMP,resources/DP.BMP,Door4,-0.274444444,-0.035555556,1,0,0,1.11,optionLeft,80,14070,7,6,0,6,0,1,,,,,,,,,,,,,,,,,,,,,,,,,,,,,,,,,,,,,,,
,,,,,,,,2023-08-16_09h31.03.216,HF_wild_card,2022.2.4,Win32,58.82352941,5f5d51785a31085a80509958,64d2fd46c836a06233681665,64dc7af46affa6e52df02f8d,,,,,,,decisionTrl,resources/DP.BMP,resources/DG.BMP,Door2,0.296666667,0,1,0,0,0.56,optionRight,20,14090,7,7,0,7,0,1,,,,,,,,,,,,,,,,,,,,,,,,,,,,,,,,,,,,,,,
,,,,,,,,2023-08-16_09h31.03.216,HF_wild_card,2022.2.4,Win32,58.82352941,5f5d51785a31085a80509958,64d2fd46c836a06233681665,64dc7af46affa6e52df02f8d,,,,,,,ctch,resources/DG.BMP,resources/DR.BMP,Door2,-0.277777778,-0.004444444,1,0,0,0.567,optionLeft,40,14130,7,8,0,8,0,1,,,,,,,,,,,,,,,,,,,,,,,,,,,,,,,,,,,,,,,
,,,,,,,,2023-08-16_09h31.03.216,HF_wild_card,2022.2.4,Win32,58.82352941,5f5d51785a31085a80509958,64d2fd46c836a06233681665,64dc7af46affa6e52df02f8d,,,,,,,decisionTrl,resources/DBN.BMP,resources/DR.BMP,Door3,0.022222222,0.008888889,1,0,0,0.098,optionRight,70,14200,7,9,0,9,0,1,,,,,,,,,,,,,,,,,,,,,,,,,,,,,,,,,,,,,,,
,,,,,,,,2023-08-16_09h31.03.216,HF_wild_card,2022.2.4,Win32,58.82352941,5f5d51785a31085a80509958,64d2fd46c836a06233681665,64dc7af46affa6e52df02f8d,,,,,,,ctch,resources/DG.BMP,resources/DR.BMP,Door3,0.43,0.003333333,1,0,0,1.077,optionRight,70,14270,7,10,0,10,0,1,,,,,,,,,,,,,,,,,,,,,,,,,,,,,,,,,,,,,,,
,,,,,,,,2023-08-16_09h31.03.216,HF_wild_card,2022.2.4,Win32,58.82352941,5f5d51785a31085a80509958,64d2fd46c836a06233681665,64dc7af46affa6e52df02f8d,,,,,,,ctch,resources/DR.BMP,resources/DG.BMP,Door3,-0.233333333,0.001111111,1,0,0,0.581,optionLeft,70,14340,7,11,0,11,0,1,,,,,,,,,,,,,,,,,,,,,,,,,,,,,,,,,,,,,,,
,,,,,,,,2023-08-16_09h31.03.216,HF_wild_card,2022.2.4,Win32,58.82352941,5f5d51785a31085a80509958,64d2fd46c836a06233681665,64dc7af46affa6e52df02f8d,,,,,,,ctch,resources/DBN.BMP,resources/DP.BMP,Door4,-0.194444444,-0.016666667,1,0,0,1.114,optionLeft,80,14420,7,12,0,12,0,1,,,,,,,,,,,,,,,,,,,,,,,,,,,,,,,,,,,,,,,
,,,,,,,,2023-08-16_09h31.03.216,HF_wild_card,2022.2.4,Win32,58.82352941,5f5d51785a31085a80509958,64d2fd46c836a06233681665,64dc7af46affa6e52df02f8d,,,,,,,decisionTrl,resources/DBN.BMP,resources/DR.BMP,Door3,0.206666667,-0.004444444,1,0,0,0.569,optionRight,70,14490,7,13,0,13,0,1,,,,,,,,,,,,,,,,,,,,,,,,,,,,,,,,,,,,,,,
,,,,,,,,2023-08-16_09h31.03.216,HF_wild_card,2022.2.4,Win32,58.82352941,5f5d51785a31085a80509958,64d2fd46c836a06233681665,64dc7af46affa6e52df02f8d,,,,,,,decisionTrl,resources/DG.BMP,resources/DP.BMP,Door2,-0.231111111,-0.008888889,1,0,0,0.596,optionLeft,40,14530,7,14,0,14,0,1,,,,,,,,,,,,,,,,,,,,,,,,,,,,,,,,,,,,,,,
,,,,,,,,2023-08-16_09h31.03.216,HF_wild_card,2022.2.4,Win32,58.82352941,5f5d51785a31085a80509958,64d2fd46c836a06233681665,64dc7af46affa6e52df02f8d,,,,,,,decisionTrl,resources/DP.BMP,resources/DG.BMP,Door2,0.008888889,0.005555556,1,0,0,0.083,optionRight,20,14550,7,15,0,15,0,1,,,,,,,,,,,,,,,,,,,,,,,,,,,,,,,,,,,,,,,
,,,,,,,,2023-08-16_09h31.03.216,HF_wild_card,2022.2.4,Win32,58.82352941,5f5d51785a31085a80509958,64d2fd46c836a06233681665,64dc7af46affa6e52df02f8d,,,,,,,decisionTrl,resources/DR.BMP,resources/DBN.BMP,Door3,-0.298888889,-0.002222222,1,0,0,0.497,optionLeft,70,14620,7,16,0,16,0,1,,,,,,,,,,,,,,,,,,,,,,,,,,,,,,,,,,,,,,,
,,,,,,,,2023-08-16_09h31.03.216,HF_wild_card,2022.2.4,Win32,58.82352941,5f5d51785a31085a80509958,64d2fd46c836a06233681665,64dc7af46affa6e52df02f8d,,,,,,,ctch,resources/DP.BMP,resources/DBN.BMP,Door4,0.351111111,-0.01,1,0,0,0.544,optionRight,80,14700,7,17,0,17,0,1,,,,,,,,,,,,,,,,,,,,,,,,,,,,,,,,,,,,,,,
,,,,,,,,2023-08-16_09h31.03.216,HF_wild_card,2022.2.4,Win32,58.82352941,5f5d51785a31085a80509958,64d2fd46c836a06233681665,64dc7af46affa6e52df02f8d,,,,,,,decisionTrl,resources/DR.BMP,resources/DBN.BMP,Door3,-0.394444444,-0.023333333,1,0,0,0.547,optionLeft,70,14770,7,18,0,18,0,1,,,,,,,,,,,,,,,,,,,,,,,,,,,,,,,,,,,,,,,
,,,,,,,,2023-08-16_09h31.03.216,HF_wild_card,2022.2.4,Win32,58.82352941,5f5d51785a31085a80509958,64d2fd46c836a06233681665,64dc7af46affa6e52df02f8d,,,,,,,decisionTrl,resources/DR.BMP,resources/DBN.BMP,Door4,0.261111111,-0.003333333,1,0,0,0.485,optionRight,80,14850,7,19,0,19,0,1,,,,,,,,,,,,,,,,,,,,,,,,,,,,,,,,,,,,,,,
,,,,,,,,2023-08-16_09h31.03.216,HF_wild_card,2022.2.4,Win32,58.82352941,5f5d51785a31085a80509958,64d2fd46c836a06233681665,64dc7af46affa6e52df02f8d,,,,,,,decisionTrl,resources/DBN.BMP,resources/DR.BMP,Door4,-0.281111111,0.002222222,1,0,0,0.497,optionLeft,80,14930,7,20,0,20,0,1,,,,,,,,,,,,,,,,,,,,,,,,,,,,,,,,,,,,,,,
,,,,,,,,2023-08-16_09h31.03.216,HF_wild_card,2022.2.4,Win32,58.82352941,5f5d51785a31085a80509958,64d2fd46c836a06233681665,64dc7af46affa6e52df02f8d,,,,,,,decisionTrl,resources/DP.BMP,resources/DG.BMP,Door2,0.343333333,0.002222222,1,0,0,0.476,optionRight,40,14970,7,21,0,21,0,1,,,,,,,,,,,,,,,,,,,,,,,,,,,,,,,,,,,,,,,
,,,,,,,,2023-08-16_09h31.03.216,HF_wild_card,2022.2.4,Win32,58.82352941,5f5d51785a31085a80509958,64d2fd46c836a06233681665,64dc7af46affa6e52df02f8d,,,,,,,decisionTrl,resources/DG.BMP,resources/DP.BMP,Door2,-0.261111111,0.004444444,1,0,0,0.492,optionLeft,20,14990,7,22,0,22,0,1,,,,,,,,,,,,,,,,,,,,,,,,,,,,,,,,,,,,,,,
,,,,,,,,2023-08-16_09h31.03.216,HF_wild_card,2022.2.4,Win32,58.82352941,5f5d51785a31085a80509958,64d2fd46c836a06233681665,64dc7af46affa6e52df02f8d,,,,,,,decisionTrl,resources/DBN.BMP,resources/DR.BMP,Door3,0.307777778,0.004444444,1,0,0,1.034,optionRight,70,15060,7,23,0,23,0,1,,,,,,,,,,,,,,,,,,,,,,,,,,,,,,,,,,,,,,,
,,,,,,,,2023-08-16_09h31.03.216,HF_wild_card,2022.2.4,Win32,58.82352941,5f5d51785a31085a80509958,64d2fd46c836a06233681665,64dc7af46affa6e52df02f8d,,,,,,,ctch,resources/DP.BMP,resources/DBN.BMP,Door4,0.376666667,0.021111111,1,0,0,0.631,optionRight,80,15140,7,24,0,24,0,1,,,,,,,,,,,,,,,,,,,,,,,,,,,,,,,,,,,,,,,
,,,,,,,,2023-08-16_09h31.03.216,HF_wild_card,2022.2.4,Win32,58.82352941,5f5d51785a31085a80509958,64d2fd46c836a06233681665,64dc7af46affa6e52df02f8d,,,,,,,decisionTrl,resources/DP.BMP,resources/DG.BMP,Door1,-0.198888889,-0.02,1,0,0,1.515,optionLeft,30,15170,7,25,0,25,0,1,,,,,,,,,,,,,,,,,,,,,,,,,,,,,,,,,,,,,,,
,,,,,,,,2023-08-16_09h31.03.216,HF_wild_card,2022.2.4,Win32,58.82352941,5f5d51785a31085a80509958,64d2fd46c836a06233681665,64dc7af46affa6e52df02f8d,,,,,,,decisionTrl,resources/DR.BMP,resources/DBN.BMP,Door4,0.455555556,0.018888889,1,0,0,0.769,optionRight,60,15230,7,26,0,26,0,1,,,,,,,,,,,,,,,,,,,,,,,,,,,,,,,,,,,,,,,
,,,,,,,,2023-08-16_09h31.03.216,HF_wild_card,2022.2.4,Win32,58.82352941,5f5d51785a31085a80509958,64d2fd46c836a06233681665,64dc7af46affa6e52df02f8d,,,,,,,decisionTrl,resources/DG.BMP,resources/DP.BMP,Door2,-0.214444444,-0.017777778,1,0,0,0.714,optionLeft,20,15250,7,27,0,27,0,1,,,,,,,,,,,,,,,,,,,,,,,,,,,,,,,,,,,,,,,
,,,,,,,,2023-08-16_09h31.03.216,HF_wild_card,2022.2.4,Win32,58.82352941,5f5d51785a31085a80509958,64d2fd46c836a06233681665,64dc7af46affa6e52df02f8d,,,,,,,decisionTrl,resources/DG.BMP,resources/DP.BMP,Door1,0.257777778,-0.005555556,1,0,0,0.548,optionRight,30,15280,7,28,0,28,0,1,,,,,,,,,,,,,,,,,,,,,,,,,,,,,,,,,,,,,,,
,,,,,,,,2023-08-16_09h31.03.216,HF_wild_card,2022.2.4,Win32,58.82352941,5f5d51785a31085a80509958,64d2fd46c836a06233681665,64dc7af46affa6e52df02f8d,,,,,,,decisionTrl,resources/DBN.BMP,resources/DR.BMP,Door3,0.297777778,-0.006666667,1,0,0,0.563,optionRight,70,15350,7,29,0,29,0,1,,,,,,,,,,,,,,,,,,,,,,,,,,,,,,,,,,,,,,,
,,,,,,,,2023-08-16_09h31.03.216,HF_wild_card,2022.2.4,Win32,58.82352941,5f5d51785a31085a80509958,64d2fd46c836a06233681665,64dc7af46affa6e52df02f8d,,,,,,,decisionTrl,resources/DG.BMP,resources/DP.BMP,Door1,0.242222222,-0.011111111,1,0,0,0.534,optionRight,30,15380,7,30,0,30,0,1,,,,,,,,,,,,,,,,,,,,,,,,,,,,,,,,,,,,,,,
,,,,,,,,2023-08-16_09h31.03.216,HF_wild_card,2022.2.4,Win32,58.82352941,5f5d51785a31085a80509958,64d2fd46c836a06233681665,64dc7af46affa6e52df02f8d,,,,,,,decisionTrl,resources/DP.BMP,resources/DG.BMP,Door2,0.307777778,-0.011111111,1,0,0,0.57,optionRight,20,15400,7,31,0,31,0,1,,,,,,,,,,,,,,,,,,,,,,,,,,,,,,,,,,,,,,,
,,,,,,,,2023-08-16_09h31.03.216,HF_wild_card,2022.2.4,Win32,58.82352941,5f5d51785a31085a80509958,64d2fd46c836a06233681665,64dc7af46affa6e52df02f8d,,,,,,,ctch,resources/DR.BMP,resources/DG.BMP,Door2,0.268888889,0.001111111,1,0,0,0.531,optionRight,20,15420,7,32,0,32,0,1,,,,,,,,,,,,,,,,,,,,,,,,,,,,,,,,,,,,,,,
,,,,,,,,2023-08-16_09h31.03.216,HF_wild_card,2022.2.4,Win32,58.82352941,5f5d51785a31085a80509958,64d2fd46c836a06233681665,64dc7af46affa6e52df02f8d,,,,,,,ctch,resources/DR.BMP,resources/DG.BMP,Door3,-0.286666667,-0.01,1,0,0,0.58,optionLeft,70,15490,7,33,0,33,0,1,,,,,,,,,,,,,,,,,,,,,,,,,,,,,,,,,,,,,,,
,,,,,,,,2023-08-16_09h31.03.216,HF_wild_card,2022.2.4,Win32,58.82352941,5f5d51785a31085a80509958,64d2fd46c836a06233681665,64dc7af46affa6e52df02f8d,,,,,,,decisionTrl,resources/DR.BMP,resources/DBN.BMP,Door3,-0.322222222,-0.024444444,1,0,0,0.643,optionLeft,70,15560,7,34,0,34,0,1,,,,,,,,,,,,,,,,,,,,,,,,,,,,,,,,,,,,,,,
,,,,,,,,2023-08-16_09h31.03.216,HF_wild_card,2022.2.4,Win32,58.82352941,5f5d51785a31085a80509958,64d2fd46c836a06233681665,64dc7af46affa6e52df02f8d,,,,,,,decisionTrl,resources/DP.BMP,resources/DG.BMP,Door2,0.318888889,-0.012222222,1,0,0,0.632,optionRight,20,15580,7,35,0,35,0,1,,,,,,,,,,,,,,,,,,,,,,,,,,,,,,,,,,,,,,,
,,,,,,,,2023-08-16_09h31.03.216,HF_wild_card,2022.2.4,Win32,58.82352941,5f5d51785a31085a80509958,64d2fd46c836a06233681665,64dc7af46affa6e52df02f8d,,,,,,,,,,,,,,,,,,,,,,,,,,6,0,6,0,1,,,,,,,,,,,,,,,,,,,,,,,,,,,,,,,,,,
,,,,,,,,2023-08-16_09h31.03.216,HF_wild_card,2022.2.4,Win32,58.82352941,5f5d51785a31085a80509958,64d2fd46c836a06233681665,64dc7af46affa6e52df02f8d,,,,,,,,,,,,,,,,,,,,,,,,,,,,,,,3,,,,,,,,,,,,,,,,,,,,,,,,,,,,,,,,,
,,,,,,,,2023-08-16_09h31.03.216,HF_wild_card,2022.2.4,Win32,58.82352941,5f5d51785a31085a80509958,64d2fd46c836a06233681665,64dc7af46affa6e52df02f8d,,,,,,,,,,,,,,,,,,,,,,,,,,,,,,,,,,,,,,,,,,,,,,,,,,,,,,,,,,,,,,,,
,,,,,,,,2023-08-16_09h31.03.216,HF_wild_card,2022.2.4,Win32,58.82352941,5f5d51785a31085a80509958,64d2fd46c836a06233681665,64dc7af46affa6e52df02f8d,,,,,,,,,,,,,,,,,,,,,,,,,,,,,,,,60,WC_extreme,resources/DY.BMP,0,0,0,0,1,,,,,,,,,,,,,,,,,,,,,,,,,
,,,,,,,,2023-08-16_09h31.03.216,HF_wild_card,2022.2.4,Win32,58.82352941,5f5d51785a31085a80509958,64d2fd46c836a06233681665,64dc7af46affa6e52df02f8d,,,,,,,,,,,,,,,,,,,,,,,,,,,,,,,,80,Door3,resources/DR.BMP,1,0,1,0,1,,,,,,,,,,,,,,,,,,,,,,,,,
,,,,,,,,2023-08-16_09h31.03.216,HF_wild_card,2022.2.4,Win32,58.82352941,5f5d51785a31085a80509958,64d2fd46c836a06233681665,64dc7af46affa6e52df02f8d,,,,,,,,,,,,,,,,,,,,,,,,,,,,,,,,50,Door2,resources/DG.BMP,2,0,2,0,1,,,,,,,,,,,,,,,,,,,,,,,,,
,,,,,,,,2023-08-16_09h31.03.216,HF_wild_card,2022.2.4,Win32,58.82352941,5f5d51785a31085a80509958,64d2fd46c836a06233681665,64dc7af46affa6e52df02f8d,,,,,,,,,,,,,,,,,,,,,,,,,,,,,,,,55,WC_nonExtreme,resources/DB.BMP,3,0,3,0,1,,,,,,,,,,,,,,,,,,,,,,,,,
,,,,,,,,2023-08-16_09h31.03.216,HF_wild_card,2022.2.4,Win32,58.82352941,5f5d51785a31085a80509958,64d2fd46c836a06233681665,64dc7af46affa6e52df02f8d,,,,,,,,,,,,,,,,,,,,,,,,,,,,,,,,40,Door1,resources/DP.BMP,4,0,4,0,1,,,,,,,,,,,,,,,,,,,,,,,,,
,,,,,,,,2023-08-16_09h31.03.216,HF_wild_card,2022.2.4,Win32,58.82352941,5f5d51785a31085a80509958,64d2fd46c836a06233681665,64dc7af46affa6e52df02f8d,,,,,,,,,,,,,,,,,,,,,,,,,,,,,,,,80,Door4,resources/DBN.BMP,5,0,5,0,1,,,,,,,,,,,,,,,,,,,,,,,,,
,,,,,,,,2023-08-16_09h31.03.216,HF_wild_card,2022.2.4,Win32,58.82352941,5f5d51785a31085a80509958,64d2fd46c836a06233681665,64dc7af46affa6e52df02f8d,,,,,,,,,,,,,,,,,,,,,,,,,,,,,,,,,,,,,,,,,,,,,,,,,,,,,,,,,,,,,,,,
,,,,,,,,2023-08-16_09h31.03.216,HF_wild_card,2022.2.4,Win32,58.82352941,5f5d51785a31085a80509958,64d2fd46c836a06233681665,64dc7af46affa6e52df02f8d,,,,,,,,,,,,,,,,,,,,,,,,,,,,,,,,,,,,,,,,0,0,0,0,1,,,,,,,,,,,,,,,,,,,,
,,,,,,,,2023-08-16_09h31.03.216,HF_wild_card,2022.2.4,Win32,58.82352941,5f5d51785a31085a80509958,64d2fd46c836a06233681665,64dc7af46affa6e52df02f8d,,,,,,,,,,,,,,,,,,,,,,,,,,,,,,,,,,,,,,,,1,0,1,0,1,,,,,,,,,,,,,,,,,,,,
,,,,,,,,2023-08-16_09h31.03.216,HF_wild_card,2022.2.4,Win32,58.82352941,5f5d51785a31085a80509958,64d2fd46c836a06233681665,64dc7af46affa6e52df02f8d,,,,,,,,,,,,,,,,,,,,,,,,,,,,,,,,,,,,,,,,,,,,,-0.286666667,-0.388888889,1,0,0,yes,30%,0%,WC_extreme,resources/DY.BMP,0,0,0,0,1,,,,,
