Condition,Low fixed image (Door1),Low risky image (Door2),High fixed image (Door3),High risky image (Door4),Extreme Wild Card,NonExtreme Wild Card,,date,expName,psychopyVersion,OS,frameRate,PROLIFIC_PID,STUDY_ID,SESSION_ID,mouse_2.x,mouse_2.y,mouse_2.leftButton,mouse_2.midButton,mouse_2.rightButton,mouse_2.clicked_name,Trial Type,Left Option Image,Right Option Image,Chosen Door,mouse.x,mouse.y,mouse.leftButton,mouse.midButton,mouse.rightButton,mouse.time,mouse.clicked_name,Feedback,Cumulative Reward,Block,trial.thisRepN,trial.thisTrialN,trial.thisN,trial.thisIndex,trial.ran,blocks.thisRepN,blocks.thisTrialN,blocks.thisN,blocks.thisIndex,blocks.ran,Money conversion,First Outcome Reported,Shown Door (First Outcome),Displayed Image (First Outcome),outcomes.thisRepN,outcomes.thisTrialN,outcomes.thisN,outcomes.thisIndex,outcomes.ran,judgments.thisRepN,judgments.thisTrialN,judgments.thisN,judgments.thisIndex,judgments.ran,freqMouse.x,freqMouse.y,freqMouse.leftButton,freqMouse.midButton,freqMouse.rightButton,freqMouse.clicked_name,FQJ for first outcome,FQJ for second outcome,Shown Door,Displayed Image,trials.thisRepN,trials.thisTrialN,trials.thisN,trials.thisIndex,trials.ran,judgBlock.thisRepN,judgBlock.thisTrialN,judgBlock.thisN,judgBlock.thisIndex,judgBlock.ran
0,resources/DY.BMP,resources/DBN.BMP,resources/DR.BMP,resources/DP.BMP,resources/DB.BMP,resources/DG.BMP,,2023-08-06_08h27.03.329,HF_wild_card,2022.2.4,Win32,29.9940012,6159b2c05695adb2097e50a2,64ce5acb97489d65b14ecc7a,64cf4b30ad7a3c1f18514c4c,,,,,,,,,,,,,,,,,,,,,,,,,,,,,,,,,,,,,,,,,,,,,,,,,,,,,,,,,,,,,,,,
,,,,,,,,2023-08-06_08h27.03.329,HF_wild_card,2022.2.4,Win32,29.9940012,6159b2c05695adb2097e50a2,64ce5acb97489d65b14ecc7a,64cf4b30ad7a3c1f18514c4c,-0.010869565,-0.411594203,1,0,0,agree,,,,,,,,,,,,,,,,,,,,,,,,,,,,,,,,,,,,,,,,,,,,,,,,,,,,,,,,,,
,,,,,,,,2023-08-06_08h27.03.329,HF_wild_card,2022.2.4,Win32,29.9940012,6159b2c05695adb2097e50a2,64ce5acb97489d65b14ecc7a,64cf4b30ad7a3c1f18514c4c,,,,,,,,,,,,,,,,,,,,,,,,,,,,,,,,,,,,,,,,,,,,,,,,,,,,,,,,,,,,,,,,
,,,,,,,,2023-08-06_08h27.03.329,HF_wild_card,2022.2.4,Win32,29.9940012,6159b2c05695adb2097e50a2,64ce5acb97489d65b14ecc7a,64cf4b30ad7a3c1f18514c4c,,,,,,,decisionTrl,resources/DR.BMP,resources/DP.BMP,Door4,0.365942029,-0.060869565,1,0,0,6.361,optionRight,60,60,1,0,0,0,0,1,,,,,,,,,,,,,,,,,,,,,,,,,,,,,,,,,,,,,,,
,,,,,,,,2023-08-06_08h27.03.329,HF_wild_card,2022.2.4,Win32,29.9940012,6159b2c05695adb2097e50a2,64ce5acb97489d65b14ecc7a,64cf4b30ad7a3c1f18514c4c,,,,,,,ctch,resources/DY.BMP,resources/DP.BMP,Door4,0.399275362,0.004347826,1,0,0,2.585,optionRight,80,140,1,1,0,1,0,1,,,,,,,,,,,,,,,,,,,,,,,,,,,,,,,,,,,,,,,
,,,,,,,,2023-08-06_08h27.03.329,HF_wild_card,2022.2.4,Win32,29.9940012,6159b2c05695adb2097e50a2,64ce5acb97489d65b14ecc7a,64cf4b30ad7a3c1f18514c4c,,,,,,,sngl,resources/DP.BMP,resources/Empty.png,Door4,-0.257246377,-0.037681159,1,0,0,0.94,optionLeft,80,220,1,2,0,2,0,1,,,,,,,,,,,,,,,,,,,,,,,,,,,,,,,,,,,,,,,
,,,,,,,,2023-08-06_08h27.03.329,HF_wild_card,2022.2.4,Win32,29.9940012,6159b2c05695adb2097e50a2,64ce5acb97489d65b14ecc7a,64cf4b30ad7a3c1f18514c4c,,,,,,,sngl,resources/Empty.png,resources/DB.BMP,WildCard_Ex,0.361594203,0.004347826,1,0,0,1.708,optionRight,95,315,1,3,0,3,0,1,,,,,,,,,,,,,,,,,,,,,,,,,,,,,,,,,,,,,,,
,,,,,,,,2023-08-06_08h27.03.329,HF_wild_card,2022.2.4,Win32,29.9940012,6159b2c05695adb2097e50a2,64ce5acb97489d65b14ecc7a,64cf4b30ad7a3c1f18514c4c,,,,,,,sngl,resources/DB.BMP,resources/Empty.png,WildCard_Ex,-0.258695652,-0.063768116,1,0,0,1.417,optionLeft,95,410,1,4,0,4,0,1,,,,,,,,,,,,,,,,,,,,,,,,,,,,,,,,,,,,,,,
,,,,,,,,2023-08-06_08h27.03.329,HF_wild_card,2022.2.4,Win32,29.9940012,6159b2c05695adb2097e50a2,64ce5acb97489d65b14ecc7a,64cf4b30ad7a3c1f18514c4c,,,,,,,decisionTrl,resources/DR.BMP,resources/DP.BMP,Door3,-0.392028986,-0.117391304,1,0,0,1.081,optionLeft,70,480,1,5,0,5,0,1,,,,,,,,,,,,,,,,,,,,,,,,,,,,,,,,,,,,,,,
,,,,,,,,2023-08-06_08h27.03.329,HF_wild_card,2022.2.4,Win32,29.9940012,6159b2c05695adb2097e50a2,64ce5acb97489d65b14ecc7a,64cf4b30ad7a3c1f18514c4c,,,,,,,sngl,resources/Empty.png,resources/DP.BMP,Door4,0.457246377,0.037681159,1,0,0,0.761,optionRight,60,540,1,6,0,6,0,1,,,,,,,,,,,,,,,,,,,,,,,,,,,,,,,,,,,,,,,
,,,,,,,,2023-08-06_08h27.03.329,HF_wild_card,2022.2.4,Win32,29.9940012,6159b2c05695adb2097e50a2,64ce5acb97489d65b14ecc7a,64cf4b30ad7a3c1f18514c4c,,,,,,,ctch,resources/DBN.BMP,resources/DR.BMP,Door2,-0.344202899,-0.107246377,1,0,0,1.661,optionLeft,40,580,1,7,0,7,0,1,,,,,,,,,,,,,,,,,,,,,,,,,,,,,,,,,,,,,,,
,,,,,,,,2023-08-06_08h27.03.329,HF_wild_card,2022.2.4,Win32,29.9940012,6159b2c05695adb2097e50a2,64ce5acb97489d65b14ecc7a,64cf4b30ad7a3c1f18514c4c,,,,,,,decisionTrl,resources/DY.BMP,resources/DBN.BMP,Door2,0.319565217,0.046376812,1,0,0,1.273,optionRight,40,620,1,8,0,8,0,1,,,,,,,,,,,,,,,,,,,,,,,,,,,,,,,,,,,,,,,
,,,,,,,,2023-08-06_08h27.03.329,HF_wild_card,2022.2.4,Win32,29.9940012,6159b2c05695adb2097e50a2,64ce5acb97489d65b14ecc7a,64cf4b30ad7a3c1f18514c4c,,,,,,,decisionTrl,resources/DY.BMP,resources/DBN.BMP,Door1,-0.19057971,-0.026086957,1,0,0,0.794,optionLeft,30,650,1,9,0,9,0,1,,,,,,,,,,,,,,,,,,,,,,,,,,,,,,,,,,,,,,,
,,,,,,,,2023-08-06_08h27.03.329,HF_wild_card,2022.2.4,Win32,29.9940012,6159b2c05695adb2097e50a2,64ce5acb97489d65b14ecc7a,64cf4b30ad7a3c1f18514c4c,,,,,,,decisionTrl,resources/DBN.BMP,resources/DY.BMP,Door2,-0.277536232,-0.050724638,1,0,0,1.129,optionLeft,40,690,1,10,0,10,0,1,,,,,,,,,,,,,,,,,,,,,,,,,,,,,,,,,,,,,,,
,,,,,,,,2023-08-06_08h27.03.329,HF_wild_card,2022.2.4,Win32,29.9940012,6159b2c05695adb2097e50a2,64ce5acb97489d65b14ecc7a,64cf4b30ad7a3c1f18514c4c,,,,,,,decisionTrl,resources/DP.BMP,resources/DR.BMP,Door4,-0.252898551,-0.071014493,1,0,0,1.437,optionLeft,60,750,1,11,0,11,0,1,,,,,,,,,,,,,,,,,,,,,,,,,,,,,,,,,,,,,,,
,,,,,,,,2023-08-06_08h27.03.329,HF_wild_card,2022.2.4,Win32,29.9940012,6159b2c05695adb2097e50a2,64ce5acb97489d65b14ecc7a,64cf4b30ad7a3c1f18514c4c,,,,,,,ctch,resources/DBN.BMP,resources/DR.BMP,Door2,-0.416666667,-0.082608696,1,0,0,4.105,optionLeft,20,770,1,12,0,12,0,1,,,,,,,,,,,,,,,,,,,,,,,,,,,,,,,,,,,,,,,
,,,,,,,,2023-08-06_08h27.03.329,HF_wild_card,2022.2.4,Win32,29.9940012,6159b2c05695adb2097e50a2,64ce5acb97489d65b14ecc7a,64cf4b30ad7a3c1f18514c4c,,,,,,,sngl,resources/Empty.png,resources/DB.BMP,WildCard_Ex,0.377536232,0.014492754,1,0,0,2.705,optionRight,5,775,1,13,0,13,0,1,,,,,,,,,,,,,,,,,,,,,,,,,,,,,,,,,,,,,,,
,,,,,,,,2023-08-06_08h27.03.329,HF_wild_card,2022.2.4,Win32,29.9940012,6159b2c05695adb2097e50a2,64ce5acb97489d65b14ecc7a,64cf4b30ad7a3c1f18514c4c,,,,,,,decisionTrl,resources/DR.BMP,resources/DP.BMP,Door4,0.29057971,-0.002898551,1,0,0,1.208,optionRight,80,855,1,14,0,14,0,1,,,,,,,,,,,,,,,,,,,,,,,,,,,,,,,,,,,,,,,
,,,,,,,,2023-08-06_08h27.03.329,HF_wild_card,2022.2.4,Win32,29.9940012,6159b2c05695adb2097e50a2,64ce5acb97489d65b14ecc7a,64cf4b30ad7a3c1f18514c4c,,,,,,,sngl,resources/DB.BMP,resources/Empty.png,WildCard_Ex,-0.32826087,-0.049275362,1,0,0,0.719,optionLeft,5,860,1,15,0,15,0,1,,,,,,,,,,,,,,,,,,,,,,,,,,,,,,,,,,,,,,,
,,,,,,,,2023-08-06_08h27.03.329,HF_wild_card,2022.2.4,Win32,29.9940012,6159b2c05695adb2097e50a2,64ce5acb97489d65b14ecc7a,64cf4b30ad7a3c1f18514c4c,,,,,,,sngl,resources/DBN.BMP,resources/Empty.png,Door2,-0.23115942,-0.02173913,1,0,0,0.821,optionLeft,40,900,1,16,0,16,0,1,,,,,,,,,,,,,,,,,,,,,,,,,,,,,,,,,,,,,,,
,,,,,,,,2023-08-06_08h27.03.329,HF_wild_card,2022.2.4,Win32,29.9940012,6159b2c05695adb2097e50a2,64ce5acb97489d65b14ecc7a,64cf4b30ad7a3c1f18514c4c,,,,,,,ctch,resources/DR.BMP,resources/DBN.BMP,Door3,-0.539855072,-0.14057971,1,0,0,0.923,optionLeft,70,970,1,17,0,17,0,1,,,,,,,,,,,,,,,,,,,,,,,,,,,,,,,,,,,,,,,
,,,,,,,,2023-08-06_08h27.03.329,HF_wild_card,2022.2.4,Win32,29.9940012,6159b2c05695adb2097e50a2,64ce5acb97489d65b14ecc7a,64cf4b30ad7a3c1f18514c4c,,,,,,,ctch,resources/DY.BMP,resources/DP.BMP,Door4,0.403623188,0.057971014,1,0,0,1.292,optionRight,80,1050,1,18,0,18,0,1,,,,,,,,,,,,,,,,,,,,,,,,,,,,,,,,,,,,,,,
,,,,,,,,2023-08-06_08h27.03.329,HF_wild_card,2022.2.4,Win32,29.9940012,6159b2c05695adb2097e50a2,64ce5acb97489d65b14ecc7a,64cf4b30ad7a3c1f18514c4c,,,,,,,decisionTrl,resources/DR.BMP,resources/DP.BMP,Door4,0.373188406,0.02173913,1,0,0,0.893,optionRight,80,1130,1,19,0,19,0,1,,,,,,,,,,,,,,,,,,,,,,,,,,,,,,,,,,,,,,,
,,,,,,,,2023-08-06_08h27.03.329,HF_wild_card,2022.2.4,Win32,29.9940012,6159b2c05695adb2097e50a2,64ce5acb97489d65b14ecc7a,64cf4b30ad7a3c1f18514c4c,,,,,,,decisionTrl,resources/DB.BMP,resources/DP.BMP,Door4,0.203623188,-0.033333333,1,0,0,0.789,optionRight,60,1190,1,20,0,20,0,1,,,,,,,,,,,,,,,,,,,,,,,,,,,,,,,,,,,,,,,
,,,,,,,,2023-08-06_08h27.03.329,HF_wild_card,2022.2.4,Win32,29.9940012,6159b2c05695adb2097e50a2,64ce5acb97489d65b14ecc7a,64cf4b30ad7a3c1f18514c4c,,,,,,,sngl,resources/Empty.png,resources/DR.BMP,Door3,0.284782609,-0.014492754,1,0,0,0.896,optionRight,70,1260,1,21,0,21,0,1,,,,,,,,,,,,,,,,,,,,,,,,,,,,,,,,,,,,,,,
,,,,,,,,2023-08-06_08h27.03.329,HF_wild_card,2022.2.4,Win32,29.9940012,6159b2c05695adb2097e50a2,64ce5acb97489d65b14ecc7a,64cf4b30ad7a3c1f18514c4c,,,,,,,decisionTrl,resources/DP.BMP,resources/DB.BMP,Door4,-0.215217391,-0.033333333,1,0,0,0.884,optionLeft,60,1320,1,22,0,22,0,1,,,,,,,,,,,,,,,,,,,,,,,,,,,,,,,,,,,,,,,
,,,,,,,,2023-08-06_08h27.03.329,HF_wild_card,2022.2.4,Win32,29.9940012,6159b2c05695adb2097e50a2,64ce5acb97489d65b14ecc7a,64cf4b30ad7a3c1f18514c4c,,,,,,,ctch,resources/DP.BMP,resources/DY.BMP,Door4,-0.296376812,-0.072463768,1,0,0,0.987,optionLeft,80,1400,1,23,0,23,0,1,,,,,,,,,,,,,,,,,,,,,,,,,,,,,,,,,,,,,,,
,,,,,,,,2023-08-06_08h27.03.329,HF_wild_card,2022.2.4,Win32,29.9940012,6159b2c05695adb2097e50a2,64ce5acb97489d65b14ecc7a,64cf4b30ad7a3c1f18514c4c,,,,,,,decisionTrl,resources/DBN.BMP,resources/DB.BMP,WildCard_Ex,0.355797101,0.065217391,1,0,0,0.891,optionRight,95,1495,1,24,0,24,0,1,,,,,,,,,,,,,,,,,,,,,,,,,,,,,,,,,,,,,,,
,,,,,,,,2023-08-06_08h27.03.329,HF_wild_card,2022.2.4,Win32,29.9940012,6159b2c05695adb2097e50a2,64ce5acb97489d65b14ecc7a,64cf4b30ad7a3c1f18514c4c,,,,,,,sngl,resources/DR.BMP,resources/Empty.png,Door3,-0.300724638,-0.052173913,1,0,0,0.793,optionLeft,70,1565,1,25,0,25,0,1,,,,,,,,,,,,,,,,,,,,,,,,,,,,,,,,,,,,,,,
,,,,,,,,2023-08-06_08h27.03.329,HF_wild_card,2022.2.4,Win32,29.9940012,6159b2c05695adb2097e50a2,64ce5acb97489d65b14ecc7a,64cf4b30ad7a3c1f18514c4c,,,,,,,sngl,resources/Empty.png,resources/DY.BMP,Door1,0.341304348,0.069565217,1,0,0,0.721,optionRight,30,1595,1,26,0,26,0,1,,,,,,,,,,,,,,,,,,,,,,,,,,,,,,,,,,,,,,,
,,,,,,,,2023-08-06_08h27.03.329,HF_wild_card,2022.2.4,Win32,29.9940012,6159b2c05695adb2097e50a2,64ce5acb97489d65b14ecc7a,64cf4b30ad7a3c1f18514c4c,,,,,,,decisionTrl,resources/DR.BMP,resources/DB.BMP,Door3,-0.367391304,-0.108695652,1,0,0,1.417,optionLeft,70,1665,1,27,0,27,0,1,,,,,,,,,,,,,,,,,,,,,,,,,,,,,,,,,,,,,,,
,,,,,,,,2023-08-06_08h27.03.329,HF_wild_card,2022.2.4,Win32,29.9940012,6159b2c05695adb2097e50a2,64ce5acb97489d65b14ecc7a,64cf4b30ad7a3c1f18514c4c,,,,,,,ctch,resources/DR.BMP,resources/DBN.BMP,Door2,0.255797101,0.039130435,1,0,0,1.484,optionRight,40,1705,1,28,0,28,0,1,,,,,,,,,,,,,,,,,,,,,,,,,,,,,,,,,,,,,,,
,,,,,,,,2023-08-06_08h27.03.329,HF_wild_card,2022.2.4,Win32,29.9940012,6159b2c05695adb2097e50a2,64ce5acb97489d65b14ecc7a,64cf4b30ad7a3c1f18514c4c,,,,,,,decisionTrl,resources/DY.BMP,resources/DBN.BMP,Door1,-0.338405797,-0.028985507,1,0,0,0.763,optionLeft,30,1735,1,29,0,29,0,1,,,,,,,,,,,,,,,,,,,,,,,,,,,,,,,,,,,,,,,
,,,,,,,,2023-08-06_08h27.03.329,HF_wild_card,2022.2.4,Win32,29.9940012,6159b2c05695adb2097e50a2,64ce5acb97489d65b14ecc7a,64cf4b30ad7a3c1f18514c4c,,,,,,,decisionTrl,resources/DBN.BMP,resources/DY.BMP,Door1,0.393478261,0.128985507,1,0,0,1.645,optionRight,30,1765,1,30,0,30,0,1,,,,,,,,,,,,,,,,,,,,,,,,,,,,,,,,,,,,,,,
,,,,,,,,2023-08-06_08h27.03.329,HF_wild_card,2022.2.4,Win32,29.9940012,6159b2c05695adb2097e50a2,64ce5acb97489d65b14ecc7a,64cf4b30ad7a3c1f18514c4c,,,,,,,decisionTrl,resources/DP.BMP,resources/DR.BMP,Door3,0.286231884,-0.010144928,1,0,0,1.489,optionRight,70,1835,1,31,0,31,0,1,,,,,,,,,,,,,,,,,,,,,,,,,,,,,,,,,,,,,,,
,,,,,,,,2023-08-06_08h27.03.329,HF_wild_card,2022.2.4,Win32,29.9940012,6159b2c05695adb2097e50a2,64ce5acb97489d65b14ecc7a,64cf4b30ad7a3c1f18514c4c,,,,,,,ctch,resources/DP.BMP,resources/DY.BMP,Door4,-0.236956522,-0.088405797,1,0,0,0.649,optionLeft,80,1915,1,32,0,32,0,1,,,,,,,,,,,,,,,,,,,,,,,,,,,,,,,,,,,,,,,
,,,,,,,,2023-08-06_08h27.03.329,HF_wild_card,2022.2.4,Win32,29.9940012,6159b2c05695adb2097e50a2,64ce5acb97489d65b14ecc7a,64cf4b30ad7a3c1f18514c4c,,,,,,,decisionTrl,resources/DB.BMP,resources/DBN.BMP,WildCard_Ex,-0.174637681,-0.033333333,1,0,0,0.94,optionLeft,95,2010,1,33,0,33,0,1,,,,,,,,,,,,,,,,,,,,,,,,,,,,,,,,,,,,,,,
,,,,,,,,2023-08-06_08h27.03.329,HF_wild_card,2022.2.4,Win32,29.9940012,6159b2c05695adb2097e50a2,64ce5acb97489d65b14ecc7a,64cf4b30ad7a3c1f18514c4c,,,,,,,decisionTrl,resources/DB.BMP,resources/DR.BMP,WildCard_Ex,-0.218115942,-0.063768116,1,0,0,0.853,optionLeft,5,2015,1,34,0,34,0,1,,,,,,,,,,,,,,,,,,,,,,,,,,,,,,,,,,,,,,,
,,,,,,,,2023-08-06_08h27.03.329,HF_wild_card,2022.2.4,Win32,29.9940012,6159b2c05695adb2097e50a2,64ce5acb97489d65b14ecc7a,64cf4b30ad7a3c1f18514c4c,,,,,,,decisionTrl,resources/DP.BMP,resources/DR.BMP,Door3,0.344202899,0.042028986,1,0,0,0.919,optionRight,70,2085,1,35,0,35,0,1,,,,,,,,,,,,,,,,,,,,,,,,,,,,,,,,,,,,,,,
,,,,,,,,2023-08-06_08h27.03.329,HF_wild_card,2022.2.4,Win32,29.9940012,6159b2c05695adb2097e50a2,64ce5acb97489d65b14ecc7a,64cf4b30ad7a3c1f18514c4c,,,,,,,decisionTrl,resources/DP.BMP,resources/DR.BMP,Door4,-0.300724638,-0.053623188,1,0,0,0.762,optionLeft,60,2145,1,36,0,36,0,1,,,,,,,,,,,,,,,,,,,,,,,,,,,,,,,,,,,,,,,
,,,,,,,,2023-08-06_08h27.03.329,HF_wild_card,2022.2.4,Win32,29.9940012,6159b2c05695adb2097e50a2,64ce5acb97489d65b14ecc7a,64cf4b30ad7a3c1f18514c4c,,,,,,,decisionTrl,resources/DY.BMP,resources/DB.BMP,Door1,-0.252898551,-0.037681159,1,0,0,0.855,optionLeft,30,2175,1,37,0,37,0,1,,,,,,,,,,,,,,,,,,,,,,,,,,,,,,,,,,,,,,,
,,,,,,,,2023-08-06_08h27.03.329,HF_wild_card,2022.2.4,Win32,29.9940012,6159b2c05695adb2097e50a2,64ce5acb97489d65b14ecc7a,64cf4b30ad7a3c1f18514c4c,,,,,,,decisionTrl,resources/DBN.BMP,resources/DY.BMP,Door1,0.260144928,0.008695652,1,0,0,0.882,optionRight,30,2205,1,38,0,38,0,1,,,,,,,,,,,,,,,,,,,,,,,,,,,,,,,,,,,,,,,
,,,,,,,,2023-08-06_08h27.03.329,HF_wild_card,2022.2.4,Win32,29.9940012,6159b2c05695adb2097e50a2,64ce5acb97489d65b14ecc7a,64cf4b30ad7a3c1f18514c4c,,,,,,,decisionTrl,resources/DBN.BMP,resources/DY.BMP,Door2,-0.192028986,-0.015942029,1,0,0,0.797,optionLeft,40,2245,1,39,0,39,0,1,,,,,,,,,,,,,,,,,,,,,,,,,,,,,,,,,,,,,,,
,,,,,,,,2023-08-06_08h27.03.329,HF_wild_card,2022.2.4,Win32,29.9940012,6159b2c05695adb2097e50a2,64ce5acb97489d65b14ecc7a,64cf4b30ad7a3c1f18514c4c,,,,,,,sngl,resources/DY.BMP,resources/Empty.png,Door1,-0.142753623,-0.007246377,1,0,0,0.797,optionLeft,30,2275,1,40,0,40,0,1,,,,,,,,,,,,,,,,,,,,,,,,,,,,,,,,,,,,,,,
,,,,,,,,2023-08-06_08h27.03.329,HF_wild_card,2022.2.4,Win32,29.9940012,6159b2c05695adb2097e50a2,64ce5acb97489d65b14ecc7a,64cf4b30ad7a3c1f18514c4c,,,,,,,decisionTrl,resources/DY.BMP,resources/DBN.BMP,Door1,-0.352898551,-0.179710145,1,0,0,6.298,optionLeft,30,2305,1,41,0,41,0,1,,,,,,,,,,,,,,,,,,,,,,,,,,,,,,,,,,,,,,,
,,,,,,,,2023-08-06_08h27.03.329,HF_wild_card,2022.2.4,Win32,29.9940012,6159b2c05695adb2097e50a2,64ce5acb97489d65b14ecc7a,64cf4b30ad7a3c1f18514c4c,,,,,,,sngl,resources/Empty.png,resources/DBN.BMP,Door2,0.387681159,0.036231884,1,0,0,0.899,optionRight,20,2325,1,42,0,42,0,1,,,,,,,,,,,,,,,,,,,,,,,,,,,,,,,,,,,,,,,
,,,,,,,,2023-08-06_08h27.03.329,HF_wild_card,2022.2.4,Win32,29.9940012,6159b2c05695adb2097e50a2,64ce5acb97489d65b14ecc7a,64cf4b30ad7a3c1f18514c4c,,,,,,,decisionTrl,resources/DB.BMP,resources/DY.BMP,WildCard_Ex,-0.202173913,-0.095652174,1,0,0,1.195,optionLeft,5,2330,1,43,0,43,0,1,,,,,,,,,,,,,,,,,,,,,,,,,,,,,,,,,,,,,,,
,,,,,,,,2023-08-06_08h27.03.329,HF_wild_card,2022.2.4,Win32,29.9940012,6159b2c05695adb2097e50a2,64ce5acb97489d65b14ecc7a,64cf4b30ad7a3c1f18514c4c,,,,,,,,,,,,,,,,,,,,,,,,,,0,0,0,0,1,,,,,,,,,,,,,,,,,,,,,,,,,,,,,,,,,,
,,,,,,,,2023-08-06_08h27.03.329,HF_wild_card,2022.2.4,Win32,29.9940012,6159b2c05695adb2097e50a2,64ce5acb97489d65b14ecc7a,64cf4b30ad7a3c1f18514c4c,,,,,,,ctch,resources/DR.BMP,resources/DBN.BMP,Door3,-0.406521739,-0.082608696,1,0,0,1.293,optionLeft,70,2400,2,0,0,0,0,1,,,,,,,,,,,,,,,,,,,,,,,,,,,,,,,,,,,,,,,
,,,,,,,,2023-08-06_08h27.03.329,HF_wild_card,2022.2.4,Win32,29.9940012,6159b2c05695adb2097e50a2,64ce5acb97489d65b14ecc7a,64cf4b30ad7a3c1f18514c4c,,,,,,,decisionTrl,resources/DR.BMP,resources/DP.BMP,Door4,0.241304348,-0.036231884,1,0,0,1.013,optionRight,60,2460,2,1,0,1,0,1,,,,,,,,,,,,,,,,,,,,,,,,,,,,,,,,,,,,,,,
,,,,,,,,2023-08-06_08h27.03.329,HF_wild_card,2022.2.4,Win32,29.9940012,6159b2c05695adb2097e50a2,64ce5acb97489d65b14ecc7a,64cf4b30ad7a3c1f18514c4c,,,,,,,decisionTrl,resources/DB.BMP,resources/DY.BMP,Door1,0.378985507,-0.044927536,1,0,0,0.932,optionRight,30,2490,2,2,0,2,0,1,,,,,,,,,,,,,,,,,,,,,,,,,,,,,,,,,,,,,,,
,,,,,,,,2023-08-06_08h27.03.329,HF_wild_card,2022.2.4,Win32,29.9940012,6159b2c05695adb2097e50a2,64ce5acb97489d65b14ecc7a,64cf4b30ad7a3c1f18514c4c,,,,,,,sngl,resources/DBN.BMP,resources/Empty.png,Door2,-0.248550725,-0.034782609,1,0,0,0.726,optionLeft,20,2510,2,3,0,3,0,1,,,,,,,,,,,,,,,,,,,,,,,,,,,,,,,,,,,,,,,
,,,,,,,,2023-08-06_08h27.03.329,HF_wild_card,2022.2.4,Win32,29.9940012,6159b2c05695adb2097e50a2,64ce5acb97489d65b14ecc7a,64cf4b30ad7a3c1f18514c4c,,,,,,,decisionTrl,resources/DP.BMP,resources/DR.BMP,Door4,-0.254347826,-0.047826087,1,0,0,0.774,optionLeft,80,2590,2,4,0,4,0,1,,,,,,,,,,,,,,,,,,,,,,,,,,,,,,,,,,,,,,,
,,,,,,,,2023-08-06_08h27.03.329,HF_wild_card,2022.2.4,Win32,29.9940012,6159b2c05695adb2097e50a2,64ce5acb97489d65b14ecc7a,64cf4b30ad7a3c1f18514c4c,,,,,,,decisionTrl,resources/DB.BMP,resources/DP.BMP,WildCard_Ex,-0.25,-0.027536232,1,0,0,0.876,optionLeft,95,2685,2,5,0,5,0,1,,,,,,,,,,,,,,,,,,,,,,,,,,,,,,,,,,,,,,,
,,,,,,,,2023-08-06_08h27.03.329,HF_wild_card,2022.2.4,Win32,29.9940012,6159b2c05695adb2097e50a2,64ce5acb97489d65b14ecc7a,64cf4b30ad7a3c1f18514c4c,,,,,,,decisionTrl,resources/DBN.BMP,resources/DY.BMP,Door1,0.300724638,0.007246377,1,0,0,0.807,optionRight,30,2715,2,6,0,6,0,1,,,,,,,,,,,,,,,,,,,,,,,,,,,,,,,,,,,,,,,
,,,,,,,,2023-08-06_08h27.03.329,HF_wild_card,2022.2.4,Win32,29.9940012,6159b2c05695adb2097e50a2,64ce5acb97489d65b14ecc7a,64cf4b30ad7a3c1f18514c4c,,,,,,,ctch,resources/DP.BMP,resources/DY.BMP,Door4,-0.394927536,-0.084057971,1,0,0,1.139,optionLeft,80,2795,2,7,0,7,0,1,,,,,,,,,,,,,,,,,,,,,,,,,,,,,,,,,,,,,,,
,,,,,,,,2023-08-06_08h27.03.329,HF_wild_card,2022.2.4,Win32,29.9940012,6159b2c05695adb2097e50a2,64ce5acb97489d65b14ecc7a,64cf4b30ad7a3c1f18514c4c,,,,,,,sngl,resources/Empty.png,resources/DR.BMP,Door3,0.180434783,-0.011594203,1,0,0,0.774,optionRight,70,2865,2,8,0,8,0,1,,,,,,,,,,,,,,,,,,,,,,,,,,,,,,,,,,,,,,,
,,,,,,,,2023-08-06_08h27.03.329,HF_wild_card,2022.2.4,Win32,29.9940012,6159b2c05695adb2097e50a2,64ce5acb97489d65b14ecc7a,64cf4b30ad7a3c1f18514c4c,,,,,,,ctch,resources/DP.BMP,resources/DY.BMP,Door4,-0.23115942,-0.05942029,1,0,0,0.692,optionLeft,60,2925,2,9,0,9,0,1,,,,,,,,,,,,,,,,,,,,,,,,,,,,,,,,,,,,,,,
,,,,,,,,2023-08-06_08h27.03.329,HF_wild_card,2022.2.4,Win32,29.9940012,6159b2c05695adb2097e50a2,64ce5acb97489d65b14ecc7a,64cf4b30ad7a3c1f18514c4c,,,,,,,sngl,resources/Empty.png,resources/DB.BMP,WildCard_Ex,0.360144928,0.057971014,1,0,0,0.788,optionRight,5,2930,2,10,0,10,0,1,,,,,,,,,,,,,,,,,,,,,,,,,,,,,,,,,,,,,,,
,,,,,,,,2023-08-06_08h27.03.329,HF_wild_card,2022.2.4,Win32,29.9940012,6159b2c05695adb2097e50a2,64ce5acb97489d65b14ecc7a,64cf4b30ad7a3c1f18514c4c,,,,,,,decisionTrl,resources/DY.BMP,resources/DBN.BMP,Door2,0.254347826,0.044927536,1,0,0,0.949,optionRight,40,2970,2,11,0,11,0,1,,,,,,,,,,,,,,,,,,,,,,,,,,,,,,,,,,,,,,,
,,,,,,,,2023-08-06_08h27.03.329,HF_wild_card,2022.2.4,Win32,29.9940012,6159b2c05695adb2097e50a2,64ce5acb97489d65b14ecc7a,64cf4b30ad7a3c1f18514c4c,,,,,,,decisionTrl,resources/DR.BMP,resources/DB.BMP,WildCard_Ex,0.370289855,0.042028986,1,0,0,0.979,optionRight,5,2975,2,12,0,12,0,1,,,,,,,,,,,,,,,,,,,,,,,,,,,,,,,,,,,,,,,
,,,,,,,,2023-08-06_08h27.03.329,HF_wild_card,2022.2.4,Win32,29.9940012,6159b2c05695adb2097e50a2,64ce5acb97489d65b14ecc7a,64cf4b30ad7a3c1f18514c4c,,,,,,,decisionTrl,resources/DR.BMP,resources/DP.BMP,Door3,-0.248550725,-0.028985507,1,0,0,1.03,optionLeft,70,3045,2,13,0,13,0,1,,,,,,,,,,,,,,,,,,,,,,,,,,,,,,,,,,,,,,,
,,,,,,,,2023-08-06_08h27.03.329,HF_wild_card,2022.2.4,Win32,29.9940012,6159b2c05695adb2097e50a2,64ce5acb97489d65b14ecc7a,64cf4b30ad7a3c1f18514c4c,,,,,,,decisionTrl,resources/DBN.BMP,resources/DY.BMP,Door1,0.281884058,0.011594203,1,0,0,1.046,optionRight,30,3075,2,14,0,14,0,1,,,,,,,,,,,,,,,,,,,,,,,,,,,,,,,,,,,,,,,
,,,,,,,,2023-08-06_08h27.03.329,HF_wild_card,2022.2.4,Win32,29.9940012,6159b2c05695adb2097e50a2,64ce5acb97489d65b14ecc7a,64cf4b30ad7a3c1f18514c4c,,,,,,,decisionTrl,resources/DP.BMP,resources/DR.BMP,Door4,-0.300724638,-0.110144928,1,0,0,0.885,optionLeft,60,3135,2,15,0,15,0,1,,,,,,,,,,,,,,,,,,,,,,,,,,,,,,,,,,,,,,,
,,,,,,,,2023-08-06_08h27.03.329,HF_wild_card,2022.2.4,Win32,29.9940012,6159b2c05695adb2097e50a2,64ce5acb97489d65b14ecc7a,64cf4b30ad7a3c1f18514c4c,,,,,,,decisionTrl,resources/DBN.BMP,resources/DY.BMP,Door1,0.244202899,-0.020289855,1,0,0,0.874,optionRight,30,3165,2,16,0,16,0,1,,,,,,,,,,,,,,,,,,,,,,,,,,,,,,,,,,,,,,,
,,,,,,,,2023-08-06_08h27.03.329,HF_wild_card,2022.2.4,Win32,29.9940012,6159b2c05695adb2097e50a2,64ce5acb97489d65b14ecc7a,64cf4b30ad7a3c1f18514c4c,,,,,,,ctch,resources/DY.BMP,resources/DP.BMP,Door4,0.357246377,-0.052173913,1,0,0,0.863,optionRight,60,3225,2,17,0,17,0,1,,,,,,,,,,,,,,,,,,,,,,,,,,,,,,,,,,,,,,,
,,,,,,,,2023-08-06_08h27.03.329,HF_wild_card,2022.2.4,Win32,29.9940012,6159b2c05695adb2097e50a2,64ce5acb97489d65b14ecc7a,64cf4b30ad7a3c1f18514c4c,,,,,,,sngl,resources/DB.BMP,resources/Empty.png,WildCard_Ex,-0.144202899,-0.042028986,1,0,0,0.765,optionLeft,5,3230,2,18,0,18,0,1,,,,,,,,,,,,,,,,,,,,,,,,,,,,,,,,,,,,,,,
,,,,,,,,2023-08-06_08h27.03.329,HF_wild_card,2022.2.4,Win32,29.9940012,6159b2c05695adb2097e50a2,64ce5acb97489d65b14ecc7a,64cf4b30ad7a3c1f18514c4c,,,,,,,decisionTrl,resources/DBN.BMP,resources/DB.BMP,WildCard_Ex,0.286231884,-0.044927536,1,0,0,0.855,optionRight,95,3325,2,19,0,19,0,1,,,,,,,,,,,,,,,,,,,,,,,,,,,,,,,,,,,,,,,
,,,,,,,,2023-08-06_08h27.03.329,HF_wild_card,2022.2.4,Win32,29.9940012,6159b2c05695adb2097e50a2,64ce5acb97489d65b14ecc7a,64cf4b30ad7a3c1f18514c4c,,,,,,,decisionTrl,resources/DBN.BMP,resources/DY.BMP,Door2,-0.252898551,-0.071014493,1,0,0,1.205,optionLeft,40,3365,2,20,0,20,0,1,,,,,,,,,,,,,,,,,,,,,,,,,,,,,,,,,,,,,,,
,,,,,,,,2023-08-06_08h27.03.329,HF_wild_card,2022.2.4,Win32,29.9940012,6159b2c05695adb2097e50a2,64ce5acb97489d65b14ecc7a,64cf4b30ad7a3c1f18514c4c,,,,,,,sngl,resources/DB.BMP,resources/Empty.png,WildCard_Ex,-0.22826087,-0.088405797,1,0,0,0.806,optionLeft,95,3460,2,21,0,21,0,1,,,,,,,,,,,,,,,,,,,,,,,,,,,,,,,,,,,,,,,
,,,,,,,,2023-08-06_08h27.03.329,HF_wild_card,2022.2.4,Win32,29.9940012,6159b2c05695adb2097e50a2,64ce5acb97489d65b14ecc7a,64cf4b30ad7a3c1f18514c4c,,,,,,,sngl,resources/Empty.png,resources/DP.BMP,Door4,0.419565217,0.030434783,1,0,0,0.658,optionRight,80,3540,2,22,0,22,0,1,,,,,,,,,,,,,,,,,,,,,,,,,,,,,,,,,,,,,,,
,,,,,,,,2023-08-06_08h27.03.329,HF_wild_card,2022.2.4,Win32,29.9940012,6159b2c05695adb2097e50a2,64ce5acb97489d65b14ecc7a,64cf4b30ad7a3c1f18514c4c,,,,,,,decisionTrl,resources/DB.BMP,resources/DR.BMP,Door3,0.381884058,0.031884058,1,0,0,0.944,optionRight,70,3610,2,23,0,23,0,1,,,,,,,,,,,,,,,,,,,,,,,,,,,,,,,,,,,,,,,
,,,,,,,,2023-08-06_08h27.03.329,HF_wild_card,2022.2.4,Win32,29.9940012,6159b2c05695adb2097e50a2,64ce5acb97489d65b14ecc7a,64cf4b30ad7a3c1f18514c4c,,,,,,,ctch,resources/DR.BMP,resources/DBN.BMP,Door3,-0.17173913,-0.063768116,1,0,0,0.714,optionLeft,70,3680,2,24,0,24,0,1,,,,,,,,,,,,,,,,,,,,,,,,,,,,,,,,,,,,,,,
,,,,,,,,2023-08-06_08h27.03.329,HF_wild_card,2022.2.4,Win32,29.9940012,6159b2c05695adb2097e50a2,64ce5acb97489d65b14ecc7a,64cf4b30ad7a3c1f18514c4c,,,,,,,sngl,resources/DY.BMP,resources/Empty.png,Door1,-0.160144928,-0.075362319,1,0,0,0.676,optionLeft,30,3710,2,25,0,25,0,1,,,,,,,,,,,,,,,,,,,,,,,,,,,,,,,,,,,,,,,
,,,,,,,,2023-08-06_08h27.03.329,HF_wild_card,2022.2.4,Win32,29.9940012,6159b2c05695adb2097e50a2,64ce5acb97489d65b14ecc7a,64cf4b30ad7a3c1f18514c4c,,,,,,,sngl,resources/Empty.png,resources/DBN.BMP,Door2,0.251449275,0.011594203,1,0,0,7.899,optionRight,40,3750,2,26,0,26,0,1,,,,,,,,,,,,,,,,,,,,,,,,,,,,,,,,,,,,,,,
,,,,,,,,2023-08-06_08h27.03.329,HF_wild_card,2022.2.4,Win32,29.9940012,6159b2c05695adb2097e50a2,64ce5acb97489d65b14ecc7a,64cf4b30ad7a3c1f18514c4c,,,,,,,decisionTrl,resources/DP.BMP,resources/DR.BMP,Door4,-0.319565217,-0.128985507,1,0,0,0.743,optionLeft,60,3810,2,27,0,27,0,1,,,,,,,,,,,,,,,,,,,,,,,,,,,,,,,,,,,,,,,
,,,,,,,,2023-08-06_08h27.03.329,HF_wild_card,2022.2.4,Win32,29.9940012,6159b2c05695adb2097e50a2,64ce5acb97489d65b14ecc7a,64cf4b30ad7a3c1f18514c4c,,,,,,,decisionTrl,resources/DP.BMP,resources/DB.BMP,Door4,-0.215217391,-0.053623188,1,0,0,0.713,optionLeft,80,3890,2,28,0,28,0,1,,,,,,,,,,,,,,,,,,,,,,,,,,,,,,,,,,,,,,,
,,,,,,,,2023-08-06_08h27.03.329,HF_wild_card,2022.2.4,Win32,29.9940012,6159b2c05695adb2097e50a2,64ce5acb97489d65b14ecc7a,64cf4b30ad7a3c1f18514c4c,,,,,,,sngl,resources/Empty.png,resources/DB.BMP,WildCard_Ex,0.289130435,-0.028985507,1,0,0,0.648,optionRight,95,3985,2,29,0,29,0,1,,,,,,,,,,,,,,,,,,,,,,,,,,,,,,,,,,,,,,,
,,,,,,,,2023-08-06_08h27.03.329,HF_wild_card,2022.2.4,Win32,29.9940012,6159b2c05695adb2097e50a2,64ce5acb97489d65b14ecc7a,64cf4b30ad7a3c1f18514c4c,,,,,,,sngl,resources/DP.BMP,resources/Empty.png,Door4,-0.363043478,-0.139130435,1,0,0,0.7,optionLeft,60,4045,2,30,0,30,0,1,,,,,,,,,,,,,,,,,,,,,,,,,,,,,,,,,,,,,,,
,,,,,,,,2023-08-06_08h27.03.329,HF_wild_card,2022.2.4,Win32,29.9940012,6159b2c05695adb2097e50a2,64ce5acb97489d65b14ecc7a,64cf4b30ad7a3c1f18514c4c,,,,,,,decisionTrl,resources/DR.BMP,resources/DP.BMP,Door4,0.245652174,-0.057971014,1,0,0,0.743,optionRight,80,4125,2,31,0,31,0,1,,,,,,,,,,,,,,,,,,,,,,,,,,,,,,,,,,,,,,,
,,,,,,,,2023-08-06_08h27.03.329,HF_wild_card,2022.2.4,Win32,29.9940012,6159b2c05695adb2097e50a2,64ce5acb97489d65b14ecc7a,64cf4b30ad7a3c1f18514c4c,,,,,,,decisionTrl,resources/DY.BMP,resources/DBN.BMP,Door1,-0.254347826,-0.07826087,1,0,0,0.873,optionLeft,30,4155,2,32,0,32,0,1,,,,,,,,,,,,,,,,,,,,,,,,,,,,,,,,,,,,,,,
,,,,,,,,2023-08-06_08h27.03.329,HF_wild_card,2022.2.4,Win32,29.9940012,6159b2c05695adb2097e50a2,64ce5acb97489d65b14ecc7a,64cf4b30ad7a3c1f18514c4c,,,,,,,ctch,resources/DY.BMP,resources/DP.BMP,Door4,0.341304348,-0.028985507,1,0,0,1,optionRight,80,4235,2,33,0,33,0,1,,,,,,,,,,,,,,,,,,,,,,,,,,,,,,,,,,,,,,,
,,,,,,,,2023-08-06_08h27.03.329,HF_wild_card,2022.2.4,Win32,29.9940012,6159b2c05695adb2097e50a2,64ce5acb97489d65b14ecc7a,64cf4b30ad7a3c1f18514c4c,,,,,,,decisionTrl,resources/DP.BMP,resources/DR.BMP,Door4,-0.297826087,-0.094202899,1,0,0,1.52,optionLeft,80,4315,2,34,0,34,0,1,,,,,,,,,,,,,,,,,,,,,,,,,,,,,,,,,,,,,,,
,,,,,,,,2023-08-06_08h27.03.329,HF_wild_card,2022.2.4,Win32,29.9940012,6159b2c05695adb2097e50a2,64ce5acb97489d65b14ecc7a,64cf4b30ad7a3c1f18514c4c,,,,,,,decisionTrl,resources/DR.BMP,resources/DP.BMP,Door4,0.355797101,-0.031884058,1,0,0,1.594,optionRight,80,4395,2,35,0,35,0,1,,,,,,,,,,,,,,,,,,,,,,,,,,,,,,,,,,,,,,,
,,,,,,,,2023-08-06_08h27.03.329,HF_wild_card,2022.2.4,Win32,29.9940012,6159b2c05695adb2097e50a2,64ce5acb97489d65b14ecc7a,64cf4b30ad7a3c1f18514c4c,,,,,,,decisionTrl,resources/DY.BMP,resources/DB.BMP,WildCard_Ex,0.323913043,-0.028985507,1,0,0,1.665,optionRight,5,4400,2,36,0,36,0,1,,,,,,,,,,,,,,,,,,,,,,,,,,,,,,,,,,,,,,,
,,,,,,,,2023-08-06_08h27.03.329,HF_wild_card,2022.2.4,Win32,29.9940012,6159b2c05695adb2097e50a2,64ce5acb97489d65b14ecc7a,64cf4b30ad7a3c1f18514c4c,,,,,,,decisionTrl,resources/DY.BMP,resources/DBN.BMP,Door1,-0.218115942,-0.05942029,1,0,0,2.541,optionLeft,30,4430,2,37,0,37,0,1,,,,,,,,,,,,,,,,,,,,,,,,,,,,,,,,,,,,,,,
,,,,,,,,2023-08-06_08h27.03.329,HF_wild_card,2022.2.4,Win32,29.9940012,6159b2c05695adb2097e50a2,64ce5acb97489d65b14ecc7a,64cf4b30ad7a3c1f18514c4c,,,,,,,ctch,resources/DBN.BMP,resources/DR.BMP,Door3,0.380434783,-0.042028986,1,0,0,1.477,optionRight,70,4500,2,38,0,38,0,1,,,,,,,,,,,,,,,,,,,,,,,,,,,,,,,,,,,,,,,
,,,,,,,,2023-08-06_08h27.03.329,HF_wild_card,2022.2.4,Win32,29.9940012,6159b2c05695adb2097e50a2,64ce5acb97489d65b14ecc7a,64cf4b30ad7a3c1f18514c4c,,,,,,,ctch,resources/DBN.BMP,resources/DR.BMP,Door3,0.244202899,-0.024637681,1,0,0,1.142,optionRight,70,4570,2,39,0,39,0,1,,,,,,,,,,,,,,,,,,,,,,,,,,,,,,,,,,,,,,,
,,,,,,,,2023-08-06_08h27.03.329,HF_wild_card,2022.2.4,Win32,29.9940012,6159b2c05695adb2097e50a2,64ce5acb97489d65b14ecc7a,64cf4b30ad7a3c1f18514c4c,,,,,,,sngl,resources/Empty.png,resources/DY.BMP,Door1,0.229710145,-0.028985507,1,0,0,0.841,optionRight,30,4600,2,40,0,40,0,1,,,,,,,,,,,,,,,,,,,,,,,,,,,,,,,,,,,,,,,
,,,,,,,,2023-08-06_08h27.03.329,HF_wild_card,2022.2.4,Win32,29.9940012,6159b2c05695adb2097e50a2,64ce5acb97489d65b14ecc7a,64cf4b30ad7a3c1f18514c4c,,,,,,,decisionTrl,resources/DB.BMP,resources/DBN.BMP,Door2,0.380434783,-0.007246377,1,0,0,2.573,optionRight,40,4640,2,41,0,41,0,1,,,,,,,,,,,,,,,,,,,,,,,,,,,,,,,,,,,,,,,
,,,,,,,,2023-08-06_08h27.03.329,HF_wild_card,2022.2.4,Win32,29.9940012,6159b2c05695adb2097e50a2,64ce5acb97489d65b14ecc7a,64cf4b30ad7a3c1f18514c4c,,,,,,,decisionTrl,resources/DY.BMP,resources/DBN.BMP,Door2,0.289130435,-0.010144928,1,0,0,0.937,optionRight,20,4660,2,42,0,42,0,1,,,,,,,,,,,,,,,,,,,,,,,,,,,,,,,,,,,,,,,
,,,,,,,,2023-08-06_08h27.03.329,HF_wild_card,2022.2.4,Win32,29.9940012,6159b2c05695adb2097e50a2,64ce5acb97489d65b14ecc7a,64cf4b30ad7a3c1f18514c4c,,,,,,,sngl,resources/DR.BMP,resources/Empty.png,Door3,-0.199275362,-0.030434783,1,0,0,0.898,optionLeft,70,4730,2,43,0,43,0,1,,,,,,,,,,,,,,,,,,,,,,,,,,,,,,,,,,,,,,,
,,,,,,,,2023-08-06_08h27.03.329,HF_wild_card,2022.2.4,Win32,29.9940012,6159b2c05695adb2097e50a2,64ce5acb97489d65b14ecc7a,64cf4b30ad7a3c1f18514c4c,,,,,,,,,,,,,,,,,,,,,,,,,,1,0,1,0,1,,,,,,,,,,,,,,,,,,,,,,,,,,,,,,,,,,
,,,,,,,,2023-08-06_08h27.03.329,HF_wild_card,2022.2.4,Win32,29.9940012,6159b2c05695adb2097e50a2,64ce5acb97489d65b14ecc7a,64cf4b30ad7a3c1f18514c4c,,,,,,,ctch,resources/DR.BMP,resources/DBN.BMP,Door3,-0.251449275,-0.134782609,1,0,0,1.371,optionLeft,70,4800,3,0,0,0,0,1,,,,,,,,,,,,,,,,,,,,,,,,,,,,,,,,,,,,,,,
,,,,,,,,2023-08-06_08h27.03.329,HF_wild_card,2022.2.4,Win32,29.9940012,6159b2c05695adb2097e50a2,64ce5acb97489d65b14ecc7a,64cf4b30ad7a3c1f18514c4c,,,,,,,sngl,resources/Empty.png,resources/DB.BMP,WildCard_Ex,0.287681159,-0.056521739,1,0,0,0.748,optionRight,5,4805,3,1,0,1,0,1,,,,,,,,,,,,,,,,,,,,,,,,,,,,,,,,,,,,,,,
,,,,,,,,2023-08-06_08h27.03.329,HF_wild_card,2022.2.4,Win32,29.9940012,6159b2c05695adb2097e50a2,64ce5acb97489d65b14ecc7a,64cf4b30ad7a3c1f18514c4c,,,,,,,sngl,resources/Empty.png,resources/DB.BMP,WildCard_Ex,0.37173913,-0.014492754,1,0,0,0.727,optionRight,95,4900,3,2,0,2,0,1,,,,,,,,,,,,,,,,,,,,,,,,,,,,,,,,,,,,,,,
,,,,,,,,2023-08-06_08h27.03.329,HF_wild_card,2022.2.4,Win32,29.9940012,6159b2c05695adb2097e50a2,64ce5acb97489d65b14ecc7a,64cf4b30ad7a3c1f18514c4c,,,,,,,decisionTrl,resources/DR.BMP,resources/DP.BMP,Door3,-0.184782609,-0.049275362,1,0,0,0.955,optionLeft,70,4970,3,3,0,3,0,1,,,,,,,,,,,,,,,,,,,,,,,,,,,,,,,,,,,,,,,
,,,,,,,,2023-08-06_08h27.03.329,HF_wild_card,2022.2.4,Win32,29.9940012,6159b2c05695adb2097e50a2,64ce5acb97489d65b14ecc7a,64cf4b30ad7a3c1f18514c4c,,,,,,,sngl,resources/DBN.BMP,resources/Empty.png,Door2,-0.281884058,-0.044927536,1,0,0,0.852,optionLeft,40,5010,3,4,0,4,0,1,,,,,,,,,,,,,,,,,,,,,,,,,,,,,,,,,,,,,,,
,,,,,,,,2023-08-06_08h27.03.329,HF_wild_card,2022.2.4,Win32,29.9940012,6159b2c05695adb2097e50a2,64ce5acb97489d65b14ecc7a,64cf4b30ad7a3c1f18514c4c,,,,,,,sngl,resources/Empty.png,resources/DBN.BMP,Door2,0.222463768,-0.020289855,1,0,0,0.679,optionRight,20,5030,3,5,0,5,0,1,,,,,,,,,,,,,,,,,,,,,,,,,,,,,,,,,,,,,,,
,,,,,,,,2023-08-06_08h27.03.329,HF_wild_card,2022.2.4,Win32,29.9940012,6159b2c05695adb2097e50a2,64ce5acb97489d65b14ecc7a,64cf4b30ad7a3c1f18514c4c,,,,,,,ctch,resources/DY.BMP,resources/DP.BMP,Door4,0.194927536,-0.02173913,1,0,0,0.736,optionRight,80,5110,3,6,0,6,0,1,,,,,,,,,,,,,,,,,,,,,,,,,,,,,,,,,,,,,,,
,,,,,,,,2023-08-06_08h27.03.329,HF_wild_card,2022.2.4,Win32,29.9940012,6159b2c05695adb2097e50a2,64ce5acb97489d65b14ecc7a,64cf4b30ad7a3c1f18514c4c,,,,,,,decisionTrl,resources/DBN.BMP,resources/DY.BMP,Door1,0.16884058,0.011594203,1,0,0,1.131,optionRight,30,5140,3,7,0,7,0,1,,,,,,,,,,,,,,,,,,,,,,,,,,,,,,,,,,,,,,,
,,,,,,,,2023-08-06_08h27.03.329,HF_wild_card,2022.2.4,Win32,29.9940012,6159b2c05695adb2097e50a2,64ce5acb97489d65b14ecc7a,64cf4b30ad7a3c1f18514c4c,,,,,,,decisionTrl,resources/DR.BMP,resources/DP.BMP,Door4,0.223913043,-0.05942029,1,0,0,1.074,optionRight,80,5220,3,8,0,8,0,1,,,,,,,,,,,,,,,,,,,,,,,,,,,,,,,,,,,,,,,
,,,,,,,,2023-08-06_08h27.03.329,HF_wild_card,2022.2.4,Win32,29.9940012,6159b2c05695adb2097e50a2,64ce5acb97489d65b14ecc7a,64cf4b30ad7a3c1f18514c4c,,,,,,,decisionTrl,resources/DB.BMP,resources/DP.BMP,WildCard_Ex,-0.186231884,-0.044927536,1,0,0,0.748,optionLeft,5,5225,3,9,0,9,0,1,,,,,,,,,,,,,,,,,,,,,,,,,,,,,,,,,,,,,,,
,,,,,,,,2023-08-06_08h27.03.329,HF_wild_card,2022.2.4,Win32,29.9940012,6159b2c05695adb2097e50a2,64ce5acb97489d65b14ecc7a,64cf4b30ad7a3c1f18514c4c,,,,,,,decisionTrl,resources/DBN.BMP,resources/DB.BMP,Door2,-0.22826087,-0.015942029,1,0,0,1.316,optionLeft,40,5265,3,10,0,10,0,1,,,,,,,,,,,,,,,,,,,,,,,,,,,,,,,,,,,,,,,
,,,,,,,,2023-08-06_08h27.03.329,HF_wild_card,2022.2.4,Win32,29.9940012,6159b2c05695adb2097e50a2,64ce5acb97489d65b14ecc7a,64cf4b30ad7a3c1f18514c4c,,,,,,,decisionTrl,resources/DY.BMP,resources/DBN.BMP,Door2,0.454347826,0.010144928,1,0,0,1.152,optionRight,40,5305,3,11,0,11,0,1,,,,,,,,,,,,,,,,,,,,,,,,,,,,,,,,,,,,,,,
,,,,,,,,2023-08-06_08h27.03.329,HF_wild_card,2022.2.4,Win32,29.9940012,6159b2c05695adb2097e50a2,64ce5acb97489d65b14ecc7a,64cf4b30ad7a3c1f18514c4c,,,,,,,decisionTrl,resources/DP.BMP,resources/DR.BMP,Door4,-0.326811594,0.005797101,1,0,0,1.282,optionLeft,60,5365,3,12,0,12,0,1,,,,,,,,,,,,,,,,,,,,,,,,,,,,,,,,,,,,,,,
,,,,,,,,2023-08-06_08h27.03.329,HF_wild_card,2022.2.4,Win32,29.9940012,6159b2c05695adb2097e50a2,64ce5acb97489d65b14ecc7a,64cf4b30ad7a3c1f18514c4c,,,,,,,sngl,resources/Empty.png,resources/DY.BMP,Door1,0.345652174,-0.094202899,1,0,0,0.626,optionRight,30,5395,3,13,0,13,0,1,,,,,,,,,,,,,,,,,,,,,,,,,,,,,,,,,,,,,,,
,,,,,,,,2023-08-06_08h27.03.329,HF_wild_card,2022.2.4,Win32,29.9940012,6159b2c05695adb2097e50a2,64ce5acb97489d65b14ecc7a,64cf4b30ad7a3c1f18514c4c,,,,,,,decisionTrl,resources/DP.BMP,resources/DR.BMP,Door4,-0.178985507,-0.031884058,1,0,0,0.779,optionLeft,60,5455,3,14,0,14,0,1,,,,,,,,,,,,,,,,,,,,,,,,,,,,,,,,,,,,,,,
,,,,,,,,2023-08-06_08h27.03.329,HF_wild_card,2022.2.4,Win32,29.9940012,6159b2c05695adb2097e50a2,64ce5acb97489d65b14ecc7a,64cf4b30ad7a3c1f18514c4c,,,,,,,sngl,resources/DP.BMP,resources/Empty.png,Door4,-0.165942029,-0.034782609,1,0,0,0.762,optionLeft,80,5535,3,15,0,15,0,1,,,,,,,,,,,,,,,,,,,,,,,,,,,,,,,,,,,,,,,
,,,,,,,,2023-08-06_08h27.03.329,HF_wild_card,2022.2.4,Win32,29.9940012,6159b2c05695adb2097e50a2,64ce5acb97489d65b14ecc7a,64cf4b30ad7a3c1f18514c4c,,,,,,,decisionTrl,resources/DB.BMP,resources/DY.BMP,WildCard_Ex,-0.170289855,-0.037681159,1,0,0,0.798,optionLeft,95,5630,3,16,0,16,0,1,,,,,,,,,,,,,,,,,,,,,,,,,,,,,,,,,,,,,,,
,,,,,,,,2023-08-06_08h27.03.329,HF_wild_card,2022.2.4,Win32,29.9940012,6159b2c05695adb2097e50a2,64ce5acb97489d65b14ecc7a,64cf4b30ad7a3c1f18514c4c,,,,,,,sngl,resources/DR.BMP,resources/Empty.png,Door3,-0.129710145,-0.011594203,1,0,0,0.708,optionLeft,70,5700,3,17,0,17,0,1,,,,,,,,,,,,,,,,,,,,,,,,,,,,,,,,,,,,,,,
,,,,,,,,2023-08-06_08h27.03.329,HF_wild_card,2022.2.4,Win32,29.9940012,6159b2c05695adb2097e50a2,64ce5acb97489d65b14ecc7a,64cf4b30ad7a3c1f18514c4c,,,,,,,sngl,resources/Empty.png,resources/DP.BMP,Door4,0.418115942,-0.071014493,1,0,0,0.628,optionRight,60,5760,3,18,0,18,0,1,,,,,,,,,,,,,,,,,,,,,,,,,,,,,,,,,,,,,,,
,,,,,,,,2023-08-06_08h27.03.329,HF_wild_card,2022.2.4,Win32,29.9940012,6159b2c05695adb2097e50a2,64ce5acb97489d65b14ecc7a,64cf4b30ad7a3c1f18514c4c,,,,,,,decisionTrl,resources/DBN.BMP,resources/DY.BMP,Door1,0.281884058,-0.026086957,1,0,0,1.184,optionRight,30,5790,3,19,0,19,0,1,,,,,,,,,,,,,,,,,,,,,,,,,,,,,,,,,,,,,,,
,,,,,,,,2023-08-06_08h27.03.329,HF_wild_card,2022.2.4,Win32,29.9940012,6159b2c05695adb2097e50a2,64ce5acb97489d65b14ecc7a,64cf4b30ad7a3c1f18514c4c,,,,,,,decisionTrl,resources/DB.BMP,resources/DBN.BMP,WildCard_Ex,-0.184782609,-0.043478261,1,0,0,1.097,optionLeft,5,5795,3,20,0,20,0,1,,,,,,,,,,,,,,,,,,,,,,,,,,,,,,,,,,,,,,,
,,,,,,,,2023-08-06_08h27.03.329,HF_wild_card,2022.2.4,Win32,29.9940012,6159b2c05695adb2097e50a2,64ce5acb97489d65b14ecc7a,64cf4b30ad7a3c1f18514c4c,,,,,,,sngl,resources/DB.BMP,resources/Empty.png,WildCard_Ex,-0.160144928,-0.028985507,1,0,0,0.763,optionLeft,5,5800,3,21,0,21,0,1,,,,,,,,,,,,,,,,,,,,,,,,,,,,,,,,,,,,,,,
,,,,,,,,2023-08-06_08h27.03.329,HF_wild_card,2022.2.4,Win32,29.9940012,6159b2c05695adb2097e50a2,64ce5acb97489d65b14ecc7a,64cf4b30ad7a3c1f18514c4c,,,,,,,decisionTrl,resources/DY.BMP,resources/DB.BMP,WildCard_Ex,0.384782609,-0.063768116,1,0,0,0.794,optionRight,5,5805,3,22,0,22,0,1,,,,,,,,,,,,,,,,,,,,,,,,,,,,,,,,,,,,,,,
,,,,,,,,2023-08-06_08h27.03.329,HF_wild_card,2022.2.4,Win32,29.9940012,6159b2c05695adb2097e50a2,64ce5acb97489d65b14ecc7a,64cf4b30ad7a3c1f18514c4c,,,,,,,decisionTrl,resources/DP.BMP,resources/DB.BMP,Door4,-0.12826087,-0.011594203,1,0,0,0.762,optionLeft,60,5865,3,23,0,23,0,1,,,,,,,,,,,,,,,,,,,,,,,,,,,,,,,,,,,,,,,
,,,,,,,,2023-08-06_08h27.03.329,HF_wild_card,2022.2.4,Win32,29.9940012,6159b2c05695adb2097e50a2,64ce5acb97489d65b14ecc7a,64cf4b30ad7a3c1f18514c4c,,,,,,,sngl,resources/DB.BMP,resources/Empty.png,WildCard_Ex,-0.192028986,-0.055072464,1,0,0,0.758,optionLeft,95,5960,3,24,0,24,0,1,,,,,,,,,,,,,,,,,,,,,,,,,,,,,,,,,,,,,,,
,,,,,,,,2023-08-06_08h27.03.329,HF_wild_card,2022.2.4,Win32,29.9940012,6159b2c05695adb2097e50a2,64ce5acb97489d65b14ecc7a,64cf4b30ad7a3c1f18514c4c,,,,,,,decisionTrl,resources/DBN.BMP,resources/DY.BMP,Door1,0.258695652,-0.084057971,1,0,0,0.777,optionRight,30,5990,3,25,0,25,0,1,,,,,,,,,,,,,,,,,,,,,,,,,,,,,,,,,,,,,,,
,,,,,,,,2023-08-06_08h27.03.329,HF_wild_card,2022.2.4,Win32,29.9940012,6159b2c05695adb2097e50a2,64ce5acb97489d65b14ecc7a,64cf4b30ad7a3c1f18514c4c,,,,,,,decisionTrl,resources/DP.BMP,resources/DR.BMP,Door4,-0.151449275,-0.014492754,1,0,0,0.878,optionLeft,80,6070,3,26,0,26,0,1,,,,,,,,,,,,,,,,,,,,,,,,,,,,,,,,,,,,,,,
,,,,,,,,2023-08-06_08h27.03.329,HF_wild_card,2022.2.4,Win32,29.9940012,6159b2c05695adb2097e50a2,64ce5acb97489d65b14ecc7a,64cf4b30ad7a3c1f18514c4c,,,,,,,ctch,resources/DP.BMP,resources/DY.BMP,Door4,-0.200724638,-0.046376812,1,0,0,0.898,optionLeft,60,6130,3,27,0,27,0,1,,,,,,,,,,,,,,,,,,,,,,,,,,,,,,,,,,,,,,,
,,,,,,,,2023-08-06_08h27.03.329,HF_wild_card,2022.2.4,Win32,29.9940012,6159b2c05695adb2097e50a2,64ce5acb97489d65b14ecc7a,64cf4b30ad7a3c1f18514c4c,,,,,,,sngl,resources/Empty.png,resources/DR.BMP,Door3,0.20942029,-0.069565217,1,0,0,0.719,optionRight,70,6200,3,28,0,28,0,1,,,,,,,,,,,,,,,,,,,,,,,,,,,,,,,,,,,,,,,
,,,,,,,,2023-08-06_08h27.03.329,HF_wild_card,2022.2.4,Win32,29.9940012,6159b2c05695adb2097e50a2,64ce5acb97489d65b14ecc7a,64cf4b30ad7a3c1f18514c4c,,,,,,,decisionTrl,resources/DBN.BMP,resources/DY.BMP,Door2,-0.229710145,-0.002898551,1,0,0,1.746,optionLeft,20,6220,3,29,0,29,0,1,,,,,,,,,,,,,,,,,,,,,,,,,,,,,,,,,,,,,,,
,,,,,,,,2023-08-06_08h27.03.329,HF_wild_card,2022.2.4,Win32,29.9940012,6159b2c05695adb2097e50a2,64ce5acb97489d65b14ecc7a,64cf4b30ad7a3c1f18514c4c,,,,,,,decisionTrl,resources/DR.BMP,resources/DB.BMP,Door3,-0.186231884,-0.04057971,1,0,0,0.865,optionLeft,70,6290,3,30,0,30,0,1,,,,,,,,,,,,,,,,,,,,,,,,,,,,,,,,,,,,,,,
,,,,,,,,2023-08-06_08h27.03.329,HF_wild_card,2022.2.4,Win32,29.9940012,6159b2c05695adb2097e50a2,64ce5acb97489d65b14ecc7a,64cf4b30ad7a3c1f18514c4c,,,,,,,decisionTrl,resources/DB.BMP,resources/DR.BMP,WildCard_Ex,-0.205072464,-0.039130435,1,0,0,0.762,optionLeft,95,6385,3,31,0,31,0,1,,,,,,,,,,,,,,,,,,,,,,,,,,,,,,,,,,,,,,,
,,,,,,,,2023-08-06_08h27.03.329,HF_wild_card,2022.2.4,Win32,29.9940012,6159b2c05695adb2097e50a2,64ce5acb97489d65b14ecc7a,64cf4b30ad7a3c1f18514c4c,,,,,,,ctch,resources/DP.BMP,resources/DY.BMP,Door4,-0.193478261,-0.026086957,1,0,0,0.844,optionLeft,80,6465,3,32,0,32,0,1,,,,,,,,,,,,,,,,,,,,,,,,,,,,,,,,,,,,,,,
,,,,,,,,2023-08-06_08h27.03.329,HF_wild_card,2022.2.4,Win32,29.9940012,6159b2c05695adb2097e50a2,64ce5acb97489d65b14ecc7a,64cf4b30ad7a3c1f18514c4c,,,,,,,ctch,resources/DBN.BMP,resources/DR.BMP,Door3,0.413768116,-0.091304348,1,0,0,1.995,optionRight,70,6535,3,33,0,33,0,1,,,,,,,,,,,,,,,,,,,,,,,,,,,,,,,,,,,,,,,
,,,,,,,,2023-08-06_08h27.03.329,HF_wild_card,2022.2.4,Win32,29.9940012,6159b2c05695adb2097e50a2,64ce5acb97489d65b14ecc7a,64cf4b30ad7a3c1f18514c4c,,,,,,,ctch,resources/DY.BMP,resources/DP.BMP,Door4,0.26884058,-0.097101449,1,0,0,0.845,optionRight,80,6615,3,34,0,34,0,1,,,,,,,,,,,,,,,,,,,,,,,,,,,,,,,,,,,,,,,
,,,,,,,,2023-08-06_08h27.03.329,HF_wild_card,2022.2.4,Win32,29.9940012,6159b2c05695adb2097e50a2,64ce5acb97489d65b14ecc7a,64cf4b30ad7a3c1f18514c4c,,,,,,,decisionTrl,resources/DR.BMP,resources/DP.BMP,Door3,-0.199275362,-0.015942029,1,0,0,1.411,optionLeft,70,6685,3,35,0,35,0,1,,,,,,,,,,,,,,,,,,,,,,,,,,,,,,,,,,,,,,,
,,,,,,,,2023-08-06_08h27.03.329,HF_wild_card,2022.2.4,Win32,29.9940012,6159b2c05695adb2097e50a2,64ce5acb97489d65b14ecc7a,64cf4b30ad7a3c1f18514c4c,,,,,,,decisionTrl,resources/DR.BMP,resources/DP.BMP,Door3,-0.225362319,-0.017391304,1,0,0,0.895,optionLeft,70,6755,3,36,0,36,0,1,,,,,,,,,,,,,,,,,,,,,,,,,,,,,,,,,,,,,,,
,,,,,,,,2023-08-06_08h27.03.329,HF_wild_card,2022.2.4,Win32,29.9940012,6159b2c05695adb2097e50a2,64ce5acb97489d65b14ecc7a,64cf4b30ad7a3c1f18514c4c,,,,,,,ctch,resources/DR.BMP,resources/DBN.BMP,Door3,-0.16884058,-0.002898551,1,0,0,1.423,optionLeft,70,6825,3,37,0,37,0,1,,,,,,,,,,,,,,,,,,,,,,,,,,,,,,,,,,,,,,,
,,,,,,,,2023-08-06_08h27.03.329,HF_wild_card,2022.2.4,Win32,29.9940012,6159b2c05695adb2097e50a2,64ce5acb97489d65b14ecc7a,64cf4b30ad7a3c1f18514c4c,,,,,,,ctch,resources/DBN.BMP,resources/DR.BMP,Door3,0.258695652,-0.071014493,1,0,0,0.808,optionRight,70,6895,3,38,0,38,0,1,,,,,,,,,,,,,,,,,,,,,,,,,,,,,,,,,,,,,,,
,,,,,,,,2023-08-06_08h27.03.329,HF_wild_card,2022.2.4,Win32,29.9940012,6159b2c05695adb2097e50a2,64ce5acb97489d65b14ecc7a,64cf4b30ad7a3c1f18514c4c,,,,,,,decisionTrl,resources/DY.BMP,resources/DBN.BMP,Door1,-0.173188406,-0.014492754,1,0,0,0.848,optionLeft,30,6925,3,39,0,39,0,1,,,,,,,,,,,,,,,,,,,,,,,,,,,,,,,,,,,,,,,
,,,,,,,,2023-08-06_08h27.03.329,HF_wild_card,2022.2.4,Win32,29.9940012,6159b2c05695adb2097e50a2,64ce5acb97489d65b14ecc7a,64cf4b30ad7a3c1f18514c4c,,,,,,,decisionTrl,resources/DY.BMP,resources/DBN.BMP,Door1,-0.244202899,-0.034782609,1,0,0,1.693,optionLeft,30,6955,3,40,0,40,0,1,,,,,,,,,,,,,,,,,,,,,,,,,,,,,,,,,,,,,,,
,,,,,,,,2023-08-06_08h27.03.329,HF_wild_card,2022.2.4,Win32,29.9940012,6159b2c05695adb2097e50a2,64ce5acb97489d65b14ecc7a,64cf4b30ad7a3c1f18514c4c,,,,,,,decisionTrl,resources/DP.BMP,resources/DR.BMP,Door3,0.222463768,-0.075362319,1,0,0,0.98,optionRight,70,7025,3,41,0,41,0,1,,,,,,,,,,,,,,,,,,,,,,,,,,,,,,,,,,,,,,,
,,,,,,,,2023-08-06_08h27.03.329,HF_wild_card,2022.2.4,Win32,29.9940012,6159b2c05695adb2097e50a2,64ce5acb97489d65b14ecc7a,64cf4b30ad7a3c1f18514c4c,,,,,,,sngl,resources/DY.BMP,resources/Empty.png,Door1,-0.177536232,0.001449275,1,0,0,0.736,optionLeft,30,7055,3,42,0,42,0,1,,,,,,,,,,,,,,,,,,,,,,,,,,,,,,,,,,,,,,,
,,,,,,,,2023-08-06_08h27.03.329,HF_wild_card,2022.2.4,Win32,29.9940012,6159b2c05695adb2097e50a2,64ce5acb97489d65b14ecc7a,64cf4b30ad7a3c1f18514c4c,,,,,,,decisionTrl,resources/DY.BMP,resources/DBN.BMP,Door2,0.300724638,-0.02173913,1,0,0,0.739,optionRight,40,7095,3,43,0,43,0,1,,,,,,,,,,,,,,,,,,,,,,,,,,,,,,,,,,,,,,,
,,,,,,,,2023-08-06_08h27.03.329,HF_wild_card,2022.2.4,Win32,29.9940012,6159b2c05695adb2097e50a2,64ce5acb97489d65b14ecc7a,64cf4b30ad7a3c1f18514c4c,,,,,,,,,,,,,,,,,,,,,,,,,,2,0,2,0,1,,,,,,,,,,,,,,,,,,,,,,,,,,,,,,,,,,
,,,,,,,,2023-08-06_08h27.03.329,HF_wild_card,2022.2.4,Win32,29.9940012,6159b2c05695adb2097e50a2,64ce5acb97489d65b14ecc7a,64cf4b30ad7a3c1f18514c4c,,,,,,,sngl,resources/Empty.png,resources/DG.BMP,WildCard_NonEx,0.357246377,-0.071014493,1,0,0,1.687,optionRight,55,7150,4,0,0,0,0,1,,,,,,,,,,,,,,,,,,,,,,,,,,,,,,,,,,,,,,,
,,,,,,,,2023-08-06_08h27.03.329,HF_wild_card,2022.2.4,Win32,29.9940012,6159b2c05695adb2097e50a2,64ce5acb97489d65b14ecc7a,64cf4b30ad7a3c1f18514c4c,,,,,,,decisionTrl,resources/DR.BMP,resources/DP.BMP,Door4,0.142753623,-0.085507246,1,0,0,0.697,optionRight,80,7230,4,1,0,1,0,1,,,,,,,,,,,,,,,,,,,,,,,,,,,,,,,,,,,,,,,
,,,,,,,,2023-08-06_08h27.03.329,HF_wild_card,2022.2.4,Win32,29.9940012,6159b2c05695adb2097e50a2,64ce5acb97489d65b14ecc7a,64cf4b30ad7a3c1f18514c4c,,,,,,,sngl,resources/DBN.BMP,resources/Empty.png,Door2,-0.40942029,-0.043478261,1,0,0,0.619,optionLeft,20,7250,4,2,0,2,0,1,,,,,,,,,,,,,,,,,,,,,,,,,,,,,,,,,,,,,,,
,,,,,,,,2023-08-06_08h27.03.329,HF_wild_card,2022.2.4,Win32,29.9940012,6159b2c05695adb2097e50a2,64ce5acb97489d65b14ecc7a,64cf4b30ad7a3c1f18514c4c,,,,,,,ctch,resources/DY.BMP,resources/DP.BMP,Door4,0.229710145,-0.068115942,1,0,0,0.896,optionRight,60,7310,4,3,0,3,0,1,,,,,,,,,,,,,,,,,,,,,,,,,,,,,,,,,,,,,,,
,,,,,,,,2023-08-06_08h27.03.329,HF_wild_card,2022.2.4,Win32,29.9940012,6159b2c05695adb2097e50a2,64ce5acb97489d65b14ecc7a,64cf4b30ad7a3c1f18514c4c,,,,,,,sngl,resources/Empty.png,resources/DBN.BMP,Door2,0.238405797,-0.013043478,1,0,0,0.753,optionRight,40,7350,4,4,0,4,0,1,,,,,,,,,,,,,,,,,,,,,,,,,,,,,,,,,,,,,,,
,,,,,,,,2023-08-06_08h27.03.329,HF_wild_card,2022.2.4,Win32,29.9940012,6159b2c05695adb2097e50a2,64ce5acb97489d65b14ecc7a,64cf4b30ad7a3c1f18514c4c,,,,,,,decisionTrl,resources/DBN.BMP,resources/DG.BMP,WildCard_NonEx,0.25,-0.065217391,1,0,0,0.699,optionRight,55,7405,4,5,0,5,0,1,,,,,,,,,,,,,,,,,,,,,,,,,,,,,,,,,,,,,,,
,,,,,,,,2023-08-06_08h27.03.329,HF_wild_card,2022.2.4,Win32,29.9940012,6159b2c05695adb2097e50a2,64ce5acb97489d65b14ecc7a,64cf4b30ad7a3c1f18514c4c,,,,,,,sngl,resources/DR.BMP,resources/Empty.png,Door3,-0.187681159,-0.030434783,1,0,0,0.764,optionLeft,70,7475,4,6,0,6,0,1,,,,,,,,,,,,,,,,,,,,,,,,,,,,,,,,,,,,,,,
,,,,,,,,2023-08-06_08h27.03.329,HF_wild_card,2022.2.4,Win32,29.9940012,6159b2c05695adb2097e50a2,64ce5acb97489d65b14ecc7a,64cf4b30ad7a3c1f18514c4c,,,,,,,decisionTrl,resources/DP.BMP,resources/DR.BMP,Door4,-0.17173913,-0.027536232,1,0,0,0.849,optionLeft,60,7535,4,7,0,7,0,1,,,,,,,,,,,,,,,,,,,,,,,,,,,,,,,,,,,,,,,
,,,,,,,,2023-08-06_08h27.03.329,HF_wild_card,2022.2.4,Win32,29.9940012,6159b2c05695adb2097e50a2,64ce5acb97489d65b14ecc7a,64cf4b30ad7a3c1f18514c4c,,,,,,,sngl,resources/Empty.png,resources/DY.BMP,Door1,0.160144928,-0.046376812,1,0,0,0.725,optionRight,30,7565,4,8,0,8,0,1,,,,,,,,,,,,,,,,,,,,,,,,,,,,,,,,,,,,,,,
,,,,,,,,2023-08-06_08h27.03.329,HF_wild_card,2022.2.4,Win32,29.9940012,6159b2c05695adb2097e50a2,64ce5acb97489d65b14ecc7a,64cf4b30ad7a3c1f18514c4c,,,,,,,sngl,resources/DG.BMP,resources/Empty.png,WildCard_NonEx,-0.210869565,-0.007246377,1,0,0,0.678,optionLeft,55,7620,4,9,0,9,0,1,,,,,,,,,,,,,,,,,,,,,,,,,,,,,,,,,,,,,,,
,,,,,,,,2023-08-06_08h27.03.329,HF_wild_card,2022.2.4,Win32,29.9940012,6159b2c05695adb2097e50a2,64ce5acb97489d65b14ecc7a,64cf4b30ad7a3c1f18514c4c,,,,,,,decisionTrl,resources/DG.BMP,resources/DBN.BMP,WildCard_NonEx,-0.219565217,-0.056521739,1,0,0,0.975,optionLeft,45,7665,4,10,0,10,0,1,,,,,,,,,,,,,,,,,,,,,,,,,,,,,,,,,,,,,,,
,,,,,,,,2023-08-06_08h27.03.329,HF_wild_card,2022.2.4,Win32,29.9940012,6159b2c05695adb2097e50a2,64ce5acb97489d65b14ecc7a,64cf4b30ad7a3c1f18514c4c,,,,,,,ctch,resources/DBN.BMP,resources/DR.BMP,Door3,0.218115942,-0.01884058,1,0,0,0.782,optionRight,70,7735,4,11,0,11,0,1,,,,,,,,,,,,,,,,,,,,,,,,,,,,,,,,,,,,,,,
,,,,,,,,2023-08-06_08h27.03.329,HF_wild_card,2022.2.4,Win32,29.9940012,6159b2c05695adb2097e50a2,64ce5acb97489d65b14ecc7a,64cf4b30ad7a3c1f18514c4c,,,,,,,sngl,resources/Empty.png,resources/DG.BMP,WildCard_NonEx,0.194927536,-0.04057971,1,0,0,0.791,optionRight,45,7780,4,12,0,12,0,1,,,,,,,,,,,,,,,,,,,,,,,,,,,,,,,,,,,,,,,
,,,,,,,,2023-08-06_08h27.03.329,HF_wild_card,2022.2.4,Win32,29.9940012,6159b2c05695adb2097e50a2,64ce5acb97489d65b14ecc7a,64cf4b30ad7a3c1f18514c4c,,,,,,,decisionTrl,resources/DR.BMP,resources/DP.BMP,Door4,0.19057971,-0.063768116,1,0,0,1.357,optionRight,80,7860,4,13,0,13,0,1,,,,,,,,,,,,,,,,,,,,,,,,,,,,,,,,,,,,,,,
,,,,,,,,2023-08-06_08h27.03.329,HF_wild_card,2022.2.4,Win32,29.9940012,6159b2c05695adb2097e50a2,64ce5acb97489d65b14ecc7a,64cf4b30ad7a3c1f18514c4c,,,,,,,decisionTrl,resources/DBN.BMP,resources/DY.BMP,Door1,0.183333333,-0.036231884,1,0,0,1.154,optionRight,30,7890,4,14,0,14,0,1,,,,,,,,,,,,,,,,,,,,,,,,,,,,,,,,,,,,,,,
,,,,,,,,2023-08-06_08h27.03.329,HF_wild_card,2022.2.4,Win32,29.9940012,6159b2c05695adb2097e50a2,64ce5acb97489d65b14ecc7a,64cf4b30ad7a3c1f18514c4c,,,,,,,decisionTrl,resources/DR.BMP,resources/DG.BMP,WildCard_NonEx,0.145652174,-0.043478261,1,0,0,1.215,optionRight,55,7945,4,15,0,15,0,1,,,,,,,,,,,,,,,,,,,,,,,,,,,,,,,,,,,,,,,
,,,,,,,,2023-08-06_08h27.03.329,HF_wild_card,2022.2.4,Win32,29.9940012,6159b2c05695adb2097e50a2,64ce5acb97489d65b14ecc7a,64cf4b30ad7a3c1f18514c4c,,,,,,,decisionTrl,resources/DY.BMP,resources/DG.BMP,WildCard_NonEx,0.105072464,-0.026086957,1,0,0,0.917,optionRight,45,7990,4,16,0,16,0,1,,,,,,,,,,,,,,,,,,,,,,,,,,,,,,,,,,,,,,,
,,,,,,,,2023-08-06_08h27.03.329,HF_wild_card,2022.2.4,Win32,29.9940012,6159b2c05695adb2097e50a2,64ce5acb97489d65b14ecc7a,64cf4b30ad7a3c1f18514c4c,,,,,,,decisionTrl,resources/DR.BMP,resources/DP.BMP,Door4,0.134057971,-0.043478261,1,0,0,0.986,optionRight,60,8050,4,17,0,17,0,1,,,,,,,,,,,,,,,,,,,,,,,,,,,,,,,,,,,,,,,
,,,,,,,,2023-08-06_08h27.03.329,HF_wild_card,2022.2.4,Win32,29.9940012,6159b2c05695adb2097e50a2,64ce5acb97489d65b14ecc7a,64cf4b30ad7a3c1f18514c4c,,,,,,,sngl,resources/DG.BMP,resources/Empty.png,WildCard_NonEx,-0.347101449,-0.034782609,1,0,0,0.727,optionLeft,45,8095,4,18,0,18,0,1,,,,,,,,,,,,,,,,,,,,,,,,,,,,,,,,,,,,,,,
,,,,,,,,2023-08-06_08h27.03.329,HF_wild_card,2022.2.4,Win32,29.9940012,6159b2c05695adb2097e50a2,64ce5acb97489d65b14ecc7a,64cf4b30ad7a3c1f18514c4c,,,,,,,decisionTrl,resources/DP.BMP,resources/DG.BMP,Door4,-0.229710145,-0.043478261,1,0,0,0.861,optionLeft,60,8155,4,19,0,19,0,1,,,,,,,,,,,,,,,,,,,,,,,,,,,,,,,,,,,,,,,
,,,,,,,,2023-08-06_08h27.03.329,HF_wild_card,2022.2.4,Win32,29.9940012,6159b2c05695adb2097e50a2,64ce5acb97489d65b14ecc7a,64cf4b30ad7a3c1f18514c4c,,,,,,,decisionTrl,resources/DP.BMP,resources/DR.BMP,Door4,-0.229710145,-0.028985507,1,0,0,0.864,optionLeft,60,8215,4,20,0,20,0,1,,,,,,,,,,,,,,,,,,,,,,,,,,,,,,,,,,,,,,,
,,,,,,,,2023-08-06_08h27.03.329,HF_wild_card,2022.2.4,Win32,29.9940012,6159b2c05695adb2097e50a2,64ce5acb97489d65b14ecc7a,64cf4b30ad7a3c1f18514c4c,,,,,,,sngl,resources/DY.BMP,resources/Empty.png,Door1,-0.289130435,-0.02173913,1,0,0,0.838,optionLeft,30,8245,4,21,0,21,0,1,,,,,,,,,,,,,,,,,,,,,,,,,,,,,,,,,,,,,,,
,,,,,,,,2023-08-06_08h27.03.329,HF_wild_card,2022.2.4,Win32,29.9940012,6159b2c05695adb2097e50a2,64ce5acb97489d65b14ecc7a,64cf4b30ad7a3c1f18514c4c,,,,,,,ctch,resources/DP.BMP,resources/DY.BMP,Door4,-0.335507246,-0.033333333,1,0,0,1.163,optionLeft,80,8325,4,22,0,22,0,1,,,,,,,,,,,,,,,,,,,,,,,,,,,,,,,,,,,,,,,
,,,,,,,,2023-08-06_08h27.03.329,HF_wild_card,2022.2.4,Win32,29.9940012,6159b2c05695adb2097e50a2,64ce5acb97489d65b14ecc7a,64cf4b30ad7a3c1f18514c4c,,,,,,,decisionTrl,resources/DP.BMP,resources/DR.BMP,Door3,0.463043478,-0.010144928,1,0,0,1.388,optionRight,70,8395,4,23,0,23,0,1,,,,,,,,,,,,,,,,,,,,,,,,,,,,,,,,,,,,,,,
,,,,,,,,2023-08-06_08h27.03.329,HF_wild_card,2022.2.4,Win32,29.9940012,6159b2c05695adb2097e50a2,64ce5acb97489d65b14ecc7a,64cf4b30ad7a3c1f18514c4c,,,,,,,decisionTrl,resources/DBN.BMP,resources/DY.BMP,Door1,0.142753623,-0.030434783,1,0,0,0.973,optionRight,30,8425,4,24,0,24,0,1,,,,,,,,,,,,,,,,,,,,,,,,,,,,,,,,,,,,,,,
,,,,,,,,2023-08-06_08h27.03.329,HF_wild_card,2022.2.4,Win32,29.9940012,6159b2c05695adb2097e50a2,64ce5acb97489d65b14ecc7a,64cf4b30ad7a3c1f18514c4c,,,,,,,decisionTrl,resources/DBN.BMP,resources/DY.BMP,Door2,-0.441304348,-0.033333333,1,0,0,0.876,optionLeft,20,8445,4,25,0,25,0,1,,,,,,,,,,,,,,,,,,,,,,,,,,,,,,,,,,,,,,,
,,,,,,,,2023-08-06_08h27.03.329,HF_wild_card,2022.2.4,Win32,29.9940012,6159b2c05695adb2097e50a2,64ce5acb97489d65b14ecc7a,64cf4b30ad7a3c1f18514c4c,,,,,,,ctch,resources/DR.BMP,resources/DBN.BMP,Door3,-0.410869565,-0.02173913,1,0,0,1.33,optionLeft,70,8515,4,26,0,26,0,1,,,,,,,,,,,,,,,,,,,,,,,,,,,,,,,,,,,,,,,
,,,,,,,,2023-08-06_08h27.03.329,HF_wild_card,2022.2.4,Win32,29.9940012,6159b2c05695adb2097e50a2,64ce5acb97489d65b14ecc7a,64cf4b30ad7a3c1f18514c4c,,,,,,,ctch,resources/DR.BMP,resources/DBN.BMP,Door2,0.213768116,-0.011594203,1,0,0,1.376,optionRight,40,8555,4,27,0,27,0,1,,,,,,,,,,,,,,,,,,,,,,,,,,,,,,,,,,,,,,,
,,,,,,,,2023-08-06_08h27.03.329,HF_wild_card,2022.2.4,Win32,29.9940012,6159b2c05695adb2097e50a2,64ce5acb97489d65b14ecc7a,64cf4b30ad7a3c1f18514c4c,,,,,,,decisionTrl,resources/DP.BMP,resources/DR.BMP,Door4,-0.39057971,-0.101449275,1,0,0,0.911,optionLeft,80,8635,4,28,0,28,0,1,,,,,,,,,,,,,,,,,,,,,,,,,,,,,,,,,,,,,,,
,,,,,,,,2023-08-06_08h27.03.329,HF_wild_card,2022.2.4,Win32,29.9940012,6159b2c05695adb2097e50a2,64ce5acb97489d65b14ecc7a,64cf4b30ad7a3c1f18514c4c,,,,,,,decisionTrl,resources/DG.BMP,resources/DR.BMP,WildCard_NonEx,-0.229710145,-0.04057971,1,0,0,0.797,optionLeft,55,8690,4,29,0,29,0,1,,,,,,,,,,,,,,,,,,,,,,,,,,,,,,,,,,,,,,,
,,,,,,,,2023-08-06_08h27.03.329,HF_wild_card,2022.2.4,Win32,29.9940012,6159b2c05695adb2097e50a2,64ce5acb97489d65b14ecc7a,64cf4b30ad7a3c1f18514c4c,,,,,,,decisionTrl,resources/DY.BMP,resources/DBN.BMP,Door1,-0.326811594,-0.108695652,1,0,0,0.78,optionLeft,30,8720,4,30,0,30,0,1,,,,,,,,,,,,,,,,,,,,,,,,,,,,,,,,,,,,,,,
,,,,,,,,2023-08-06_08h27.03.329,HF_wild_card,2022.2.4,Win32,29.9940012,6159b2c05695adb2097e50a2,64ce5acb97489d65b14ecc7a,64cf4b30ad7a3c1f18514c4c,,,,,,,ctch,resources/DBN.BMP,resources/DR.BMP,Door3,0.155797101,-0.036231884,1,0,0,1.034,optionRight,70,8790,4,31,0,31,0,1,,,,,,,,,,,,,,,,,,,,,,,,,,,,,,,,,,,,,,,
,,,,,,,,2023-08-06_08h27.03.329,HF_wild_card,2022.2.4,Win32,29.9940012,6159b2c05695adb2097e50a2,64ce5acb97489d65b14ecc7a,64cf4b30ad7a3c1f18514c4c,,,,,,,decisionTrl,resources/DBN.BMP,resources/DY.BMP,Door1,0.412318841,0.036231884,1,0,0,0.808,optionRight,30,8820,4,32,0,32,0,1,,,,,,,,,,,,,,,,,,,,,,,,,,,,,,,,,,,,,,,
,,,,,,,,2023-08-06_08h27.03.329,HF_wild_card,2022.2.4,Win32,29.9940012,6159b2c05695adb2097e50a2,64ce5acb97489d65b14ecc7a,64cf4b30ad7a3c1f18514c4c,,,,,,,decisionTrl,resources/DY.BMP,resources/DBN.BMP,Door1,-0.123913043,-0.04057971,1,0,0,1.763,optionLeft,30,8850,4,33,0,33,0,1,,,,,,,,,,,,,,,,,,,,,,,,,,,,,,,,,,,,,,,
,,,,,,,,2023-08-06_08h27.03.329,HF_wild_card,2022.2.4,Win32,29.9940012,6159b2c05695adb2097e50a2,64ce5acb97489d65b14ecc7a,64cf4b30ad7a3c1f18514c4c,,,,,,,decisionTrl,resources/DG.BMP,resources/DY.BMP,Door1,0.374637681,0.02173913,1,0,0,1.268,optionRight,30,8880,4,34,0,34,0,1,,,,,,,,,,,,,,,,,,,,,,,,,,,,,,,,,,,,,,,
,,,,,,,,2023-08-06_08h27.03.329,HF_wild_card,2022.2.4,Win32,29.9940012,6159b2c05695adb2097e50a2,64ce5acb97489d65b14ecc7a,64cf4b30ad7a3c1f18514c4c,,,,,,,sngl,resources/Empty.png,resources/DP.BMP,Door4,0.213768116,0.02173913,1,0,0,0.738,optionRight,80,8960,4,35,0,35,0,1,,,,,,,,,,,,,,,,,,,,,,,,,,,,,,,,,,,,,,,
,,,,,,,,2023-08-06_08h27.03.329,HF_wild_card,2022.2.4,Win32,29.9940012,6159b2c05695adb2097e50a2,64ce5acb97489d65b14ecc7a,64cf4b30ad7a3c1f18514c4c,,,,,,,decisionTrl,resources/DR.BMP,resources/DP.BMP,Door4,0.121014493,-0.055072464,1,0,0,0.896,optionRight,60,9020,4,36,0,36,0,1,,,,,,,,,,,,,,,,,,,,,,,,,,,,,,,,,,,,,,,
,,,,,,,,2023-08-06_08h27.03.329,HF_wild_card,2022.2.4,Win32,29.9940012,6159b2c05695adb2097e50a2,64ce5acb97489d65b14ecc7a,64cf4b30ad7a3c1f18514c4c,,,,,,,decisionTrl,resources/DG.BMP,resources/DP.BMP,Door4,0.241304348,-0.057971014,1,0,0,1.077,optionRight,80,9100,4,37,0,37,0,1,,,,,,,,,,,,,,,,,,,,,,,,,,,,,,,,,,,,,,,
,,,,,,,,2023-08-06_08h27.03.329,HF_wild_card,2022.2.4,Win32,29.9940012,6159b2c05695adb2097e50a2,64ce5acb97489d65b14ecc7a,64cf4b30ad7a3c1f18514c4c,,,,,,,decisionTrl,resources/DY.BMP,resources/DBN.BMP,Door1,-0.17173913,0.005797101,1,0,0,0.893,optionLeft,30,9130,4,38,0,38,0,1,,,,,,,,,,,,,,,,,,,,,,,,,,,,,,,,,,,,,,,
,,,,,,,,2023-08-06_08h27.03.329,HF_wild_card,2022.2.4,Win32,29.9940012,6159b2c05695adb2097e50a2,64ce5acb97489d65b14ecc7a,64cf4b30ad7a3c1f18514c4c,,,,,,,sngl,resources/Empty.png,resources/DR.BMP,Door3,0.232608696,-0.052173913,1,0,0,0.616,optionRight,70,9200,4,39,0,39,0,1,,,,,,,,,,,,,,,,,,,,,,,,,,,,,,,,,,,,,,,
,,,,,,,,2023-08-06_08h27.03.329,HF_wild_card,2022.2.4,Win32,29.9940012,6159b2c05695adb2097e50a2,64ce5acb97489d65b14ecc7a,64cf4b30ad7a3c1f18514c4c,,,,,,,decisionTrl,resources/DY.BMP,resources/DBN.BMP,Door2,0.23115942,-0.010144928,1,0,0,1.177,optionRight,40,9240,4,40,0,40,0,1,,,,,,,,,,,,,,,,,,,,,,,,,,,,,,,,,,,,,,,
,,,,,,,,2023-08-06_08h27.03.329,HF_wild_card,2022.2.4,Win32,29.9940012,6159b2c05695adb2097e50a2,64ce5acb97489d65b14ecc7a,64cf4b30ad7a3c1f18514c4c,,,,,,,ctch,resources/DY.BMP,resources/DP.BMP,Door4,0.264492754,-0.050724638,1,0,0,0.904,optionRight,60,9300,4,41,0,41,0,1,,,,,,,,,,,,,,,,,,,,,,,,,,,,,,,,,,,,,,,
,,,,,,,,2023-08-06_08h27.03.329,HF_wild_card,2022.2.4,Win32,29.9940012,6159b2c05695adb2097e50a2,64ce5acb97489d65b14ecc7a,64cf4b30ad7a3c1f18514c4c,,,,,,,ctch,resources/DP.BMP,resources/DY.BMP,Door4,-0.405072464,-0.063768116,1,0,0,1.047,optionLeft,60,9360,4,42,0,42,0,1,,,,,,,,,,,,,,,,,,,,,,,,,,,,,,,,,,,,,,,
,,,,,,,,2023-08-06_08h27.03.329,HF_wild_card,2022.2.4,Win32,29.9940012,6159b2c05695adb2097e50a2,64ce5acb97489d65b14ecc7a,64cf4b30ad7a3c1f18514c4c,,,,,,,sngl,resources/DP.BMP,resources/Empty.png,Door4,-0.254347826,-0.033333333,1,0,0,0.761,optionLeft,60,9420,4,43,0,43,0,1,,,,,,,,,,,,,,,,,,,,,,,,,,,,,,,,,,,,,,,
,,,,,,,,2023-08-06_08h27.03.329,HF_wild_card,2022.2.4,Win32,29.9940012,6159b2c05695adb2097e50a2,64ce5acb97489d65b14ecc7a,64cf4b30ad7a3c1f18514c4c,,,,,,,,,,,,,,,,,,,,,,,,,,3,0,3,0,1,,,,,,,,,,,,,,,,,,,,,,,,,,,,,,,,,,
,,,,,,,,2023-08-06_08h27.03.329,HF_wild_card,2022.2.4,Win32,29.9940012,6159b2c05695adb2097e50a2,64ce5acb97489d65b14ecc7a,64cf4b30ad7a3c1f18514c4c,,,,,,,ctch,resources/DY.BMP,resources/DP.BMP,Door4,0.232608696,-0.173913043,1,0,0,0.801,optionRight,80,9500,5,0,0,0,0,1,,,,,,,,,,,,,,,,,,,,,,,,,,,,,,,,,,,,,,,
,,,,,,,,2023-08-06_08h27.03.329,HF_wild_card,2022.2.4,Win32,29.9940012,6159b2c05695adb2097e50a2,64ce5acb97489d65b14ecc7a,64cf4b30ad7a3c1f18514c4c,,,,,,,sngl,resources/Empty.png,resources/DG.BMP,WildCard_NonEx,0.274637681,-0.020289855,1,0,0,0.592,optionRight,45,9545,5,1,0,1,0,1,,,,,,,,,,,,,,,,,,,,,,,,,,,,,,,,,,,,,,,
,,,,,,,,2023-08-06_08h27.03.329,HF_wild_card,2022.2.4,Win32,29.9940012,6159b2c05695adb2097e50a2,64ce5acb97489d65b14ecc7a,64cf4b30ad7a3c1f18514c4c,,,,,,,decisionTrl,resources/DP.BMP,resources/DR.BMP,Door3,0.174637681,-0.028985507,1,0,0,0.704,optionRight,70,9615,5,2,0,2,0,1,,,,,,,,,,,,,,,,,,,,,,,,,,,,,,,,,,,,,,,
,,,,,,,,2023-08-06_08h27.03.329,HF_wild_card,2022.2.4,Win32,29.9940012,6159b2c05695adb2097e50a2,64ce5acb97489d65b14ecc7a,64cf4b30ad7a3c1f18514c4c,,,,,,,ctch,resources/DP.BMP,resources/DY.BMP,Door4,-0.203623188,-0.046376812,1,0,0,0.815,optionLeft,80,9695,5,3,0,3,0,1,,,,,,,,,,,,,,,,,,,,,,,,,,,,,,,,,,,,,,,
,,,,,,,,2023-08-06_08h27.03.329,HF_wild_card,2022.2.4,Win32,29.9940012,6159b2c05695adb2097e50a2,64ce5acb97489d65b14ecc7a,64cf4b30ad7a3c1f18514c4c,,,,,,,decisionTrl,resources/DY.BMP,resources/DBN.BMP,Door1,-0.286231884,-0.055072464,1,0,0,1.099,optionLeft,30,9725,5,4,0,4,0,1,,,,,,,,,,,,,,,,,,,,,,,,,,,,,,,,,,,,,,,
,,,,,,,,2023-08-06_08h27.03.329,HF_wild_card,2022.2.4,Win32,29.9940012,6159b2c05695adb2097e50a2,64ce5acb97489d65b14ecc7a,64cf4b30ad7a3c1f18514c4c,,,,,,,decisionTrl,resources/DG.BMP,resources/DP.BMP,Door4,0.393478261,-0.056521739,1,0,0,1.383,optionRight,80,9805,5,5,0,5,0,1,,,,,,,,,,,,,,,,,,,,,,,,,,,,,,,,,,,,,,,
,,,,,,,,2023-08-06_08h27.03.329,HF_wild_card,2022.2.4,Win32,29.9940012,6159b2c05695adb2097e50a2,64ce5acb97489d65b14ecc7a,64cf4b30ad7a3c1f18514c4c,,,,,,,decisionTrl,resources/DP.BMP,resources/DG.BMP,WildCard_NonEx,0.239855072,0.002898551,1,0,0,1.29,optionRight,45,9850,5,6,0,6,0,1,,,,,,,,,,,,,,,,,,,,,,,,,,,,,,,,,,,,,,,
,,,,,,,,2023-08-06_08h27.03.329,HF_wild_card,2022.2.4,Win32,29.9940012,6159b2c05695adb2097e50a2,64ce5acb97489d65b14ecc7a,64cf4b30ad7a3c1f18514c4c,,,,,,,decisionTrl,resources/DR.BMP,resources/DP.BMP,Door4,0.354347826,-0.044927536,1,0,0,0.8,optionRight,80,9930,5,7,0,7,0,1,,,,,,,,,,,,,,,,,,,,,,,,,,,,,,,,,,,,,,,
,,,,,,,,2023-08-06_08h27.03.329,HF_wild_card,2022.2.4,Win32,29.9940012,6159b2c05695adb2097e50a2,64ce5acb97489d65b14ecc7a,64cf4b30ad7a3c1f18514c4c,,,,,,,sngl,resources/DR.BMP,resources/Empty.png,Door3,-0.181884058,0.007246377,1,0,0,0.74,optionLeft,70,10000,5,8,0,8,0,1,,,,,,,,,,,,,,,,,,,,,,,,,,,,,,,,,,,,,,,
,,,,,,,,2023-08-06_08h27.03.329,HF_wild_card,2022.2.4,Win32,29.9940012,6159b2c05695adb2097e50a2,64ce5acb97489d65b14ecc7a,64cf4b30ad7a3c1f18514c4c,,,,,,,decisionTrl,resources/DBN.BMP,resources/DY.BMP,Door1,0.207971014,0.010144928,1,0,0,1.171,optionRight,30,10030,5,9,0,9,0,1,,,,,,,,,,,,,,,,,,,,,,,,,,,,,,,,,,,,,,,
,,,,,,,,2023-08-06_08h27.03.329,HF_wild_card,2022.2.4,Win32,29.9940012,6159b2c05695adb2097e50a2,64ce5acb97489d65b14ecc7a,64cf4b30ad7a3c1f18514c4c,,,,,,,sngl,resources/Empty.png,resources/DR.BMP,Door3,0.194927536,-0.028985507,1,0,0,0.72,optionRight,70,10100,5,10,0,10,0,1,,,,,,,,,,,,,,,,,,,,,,,,,,,,,,,,,,,,,,,
,,,,,,,,2023-08-06_08h27.03.329,HF_wild_card,2022.2.4,Win32,29.9940012,6159b2c05695adb2097e50a2,64ce5acb97489d65b14ecc7a,64cf4b30ad7a3c1f18514c4c,,,,,,,ctch,resources/DP.BMP,resources/DY.BMP,Door1,0.232608696,-0.023188406,1,0,0,1.274,optionRight,30,10130,5,11,0,11,0,1,,,,,,,,,,,,,,,,,,,,,,,,,,,,,,,,,,,,,,,
,,,,,,,,2023-08-06_08h27.03.329,HF_wild_card,2022.2.4,Win32,29.9940012,6159b2c05695adb2097e50a2,64ce5acb97489d65b14ecc7a,64cf4b30ad7a3c1f18514c4c,,,,,,,ctch,resources/DY.BMP,resources/DP.BMP,Door1,-0.36884058,-0.072463768,1,0,0,0.872,optionLeft,30,10160,5,12,0,12,0,1,,,,,,,,,,,,,,,,,,,,,,,,,,,,,,,,,,,,,,,
,,,,,,,,2023-08-06_08h27.03.329,HF_wild_card,2022.2.4,Win32,29.9940012,6159b2c05695adb2097e50a2,64ce5acb97489d65b14ecc7a,64cf4b30ad7a3c1f18514c4c,,,,,,,decisionTrl,resources/DG.BMP,resources/DY.BMP,WildCard_NonEx,-0.335507246,-0.030434783,1,0,0,1.004,optionLeft,45,10205,5,13,0,13,0,1,,,,,,,,,,,,,,,,,,,,,,,,,,,,,,,,,,,,,,,
,,,,,,,,2023-08-06_08h27.03.329,HF_wild_card,2022.2.4,Win32,29.9940012,6159b2c05695adb2097e50a2,64ce5acb97489d65b14ecc7a,64cf4b30ad7a3c1f18514c4c,,,,,,,decisionTrl,resources/DY.BMP,resources/DG.BMP,WildCard_NonEx,0.218115942,0.001449275,1,0,0,1.202,optionRight,45,10250,5,14,0,14,0,1,,,,,,,,,,,,,,,,,,,,,,,,,,,,,,,,,,,,,,,
,,,,,,,,2023-08-06_08h27.03.329,HF_wild_card,2022.2.4,Win32,29.9940012,6159b2c05695adb2097e50a2,64ce5acb97489d65b14ecc7a,64cf4b30ad7a3c1f18514c4c,,,,,,,decisionTrl,resources/DR.BMP,resources/DP.BMP,Door3,-0.234057971,-0.026086957,1,0,0,0.948,optionLeft,70,10320,5,15,0,15,0,1,,,,,,,,,,,,,,,,,,,,,,,,,,,,,,,,,,,,,,,
,,,,,,,,2023-08-06_08h27.03.329,HF_wild_card,2022.2.4,Win32,29.9940012,6159b2c05695adb2097e50a2,64ce5acb97489d65b14ecc7a,64cf4b30ad7a3c1f18514c4c,,,,,,,decisionTrl,resources/DBN.BMP,resources/DY.BMP,Door1,0.289130435,0.063768116,1,0,0,0.825,optionRight,30,10350,5,16,0,16,0,1,,,,,,,,,,,,,,,,,,,,,,,,,,,,,,,,,,,,,,,
,,,,,,,,2023-08-06_08h27.03.329,HF_wild_card,2022.2.4,Win32,29.9940012,6159b2c05695adb2097e50a2,64ce5acb97489d65b14ecc7a,64cf4b30ad7a3c1f18514c4c,,,,,,,decisionTrl,resources/DP.BMP,resources/DR.BMP,Door3,0.17173913,-0.04057971,1,0,0,0.838,optionRight,70,10420,5,17,0,17,0,1,,,,,,,,,,,,,,,,,,,,,,,,,,,,,,,,,,,,,,,
,,,,,,,,2023-08-06_08h27.03.329,HF_wild_card,2022.2.4,Win32,29.9940012,6159b2c05695adb2097e50a2,64ce5acb97489d65b14ecc7a,64cf4b30ad7a3c1f18514c4c,,,,,,,ctch,resources/DBN.BMP,resources/DR.BMP,Door2,-0.196376812,0.005797101,1,0,0,1.251,optionLeft,40,10460,5,18,0,18,0,1,,,,,,,,,,,,,,,,,,,,,,,,,,,,,,,,,,,,,,,
,,,,,,,,2023-08-06_08h27.03.329,HF_wild_card,2022.2.4,Win32,29.9940012,6159b2c05695adb2097e50a2,64ce5acb97489d65b14ecc7a,64cf4b30ad7a3c1f18514c4c,,,,,,,sngl,resources/DG.BMP,resources/Empty.png,WildCard_NonEx,-0.138405797,-0.002898551,1,0,0,0.807,optionLeft,45,10505,5,19,0,19,0,1,,,,,,,,,,,,,,,,,,,,,,,,,,,,,,,,,,,,,,,
,,,,,,,,2023-08-06_08h27.03.329,HF_wild_card,2022.2.4,Win32,29.9940012,6159b2c05695adb2097e50a2,64ce5acb97489d65b14ecc7a,64cf4b30ad7a3c1f18514c4c,,,,,,,sngl,resources/DY.BMP,resources/Empty.png,Door1,-0.186231884,-0.042028986,1,0,0,0.792,optionLeft,30,10535,5,20,0,20,0,1,,,,,,,,,,,,,,,,,,,,,,,,,,,,,,,,,,,,,,,
,,,,,,,,2023-08-06_08h27.03.329,HF_wild_card,2022.2.4,Win32,29.9940012,6159b2c05695adb2097e50a2,64ce5acb97489d65b14ecc7a,64cf4b30ad7a3c1f18514c4c,,,,,,,decisionTrl,resources/DR.BMP,resources/DG.BMP,WildCard_NonEx,0.297826087,0.017391304,1,0,0,1.027,optionRight,55,10590,5,21,0,21,0,1,,,,,,,,,,,,,,,,,,,,,,,,,,,,,,,,,,,,,,,
,,,,,,,,2023-08-06_08h27.03.329,HF_wild_card,2022.2.4,Win32,29.9940012,6159b2c05695adb2097e50a2,64ce5acb97489d65b14ecc7a,64cf4b30ad7a3c1f18514c4c,,,,,,,ctch,resources/DR.BMP,resources/DBN.BMP,Door2,0.373188406,-0.005797101,1,0,0,1.209,optionRight,40,10630,5,22,0,22,0,1,,,,,,,,,,,,,,,,,,,,,,,,,,,,,,,,,,,,,,,
,,,,,,,,2023-08-06_08h27.03.329,HF_wild_card,2022.2.4,Win32,29.9940012,6159b2c05695adb2097e50a2,64ce5acb97489d65b14ecc7a,64cf4b30ad7a3c1f18514c4c,,,,,,,decisionTrl,resources/DBN.BMP,resources/DY.BMP,Door1,0.184782609,-0.013043478,1,0,0,1.447,optionRight,30,10660,5,23,0,23,0,1,,,,,,,,,,,,,,,,,,,,,,,,,,,,,,,,,,,,,,,
,,,,,,,,2023-08-06_08h27.03.329,HF_wild_card,2022.2.4,Win32,29.9940012,6159b2c05695adb2097e50a2,64ce5acb97489d65b14ecc7a,64cf4b30ad7a3c1f18514c4c,,,,,,,decisionTrl,resources/DR.BMP,resources/DP.BMP,Door4,0.332608696,-0.094202899,1,0,0,1.015,optionRight,80,10740,5,24,0,24,0,1,,,,,,,,,,,,,,,,,,,,,,,,,,,,,,,,,,,,,,,
,,,,,,,,2023-08-06_08h27.03.329,HF_wild_card,2022.2.4,Win32,29.9940012,6159b2c05695adb2097e50a2,64ce5acb97489d65b14ecc7a,64cf4b30ad7a3c1f18514c4c,,,,,,,decisionTrl,resources/DY.BMP,resources/DBN.BMP,Door1,-0.192028986,0.026086957,1,0,0,1.446,optionLeft,30,10770,5,25,0,25,0,1,,,,,,,,,,,,,,,,,,,,,,,,,,,,,,,,,,,,,,,
,,,,,,,,2023-08-06_08h27.03.329,HF_wild_card,2022.2.4,Win32,29.9940012,6159b2c05695adb2097e50a2,64ce5acb97489d65b14ecc7a,64cf4b30ad7a3c1f18514c4c,,,,,,,decisionTrl,resources/DG.BMP,resources/DBN.BMP,Door2,0.213768116,-0.050724638,1,0,0,1.593,optionRight,40,10810,5,26,0,26,0,1,,,,,,,,,,,,,,,,,,,,,,,,,,,,,,,,,,,,,,,
,,,,,,,,2023-08-06_08h27.03.329,HF_wild_card,2022.2.4,Win32,29.9940012,6159b2c05695adb2097e50a2,64ce5acb97489d65b14ecc7a,64cf4b30ad7a3c1f18514c4c,,,,,,,decisionTrl,resources/DP.BMP,resources/DR.BMP,Door4,-0.252898551,-0.017391304,1,0,0,0.861,optionLeft,80,10890,5,27,0,27,0,1,,,,,,,,,,,,,,,,,,,,,,,,,,,,,,,,,,,,,,,
,,,,,,,,2023-08-06_08h27.03.329,HF_wild_card,2022.2.4,Win32,29.9940012,6159b2c05695adb2097e50a2,64ce5acb97489d65b14ecc7a,64cf4b30ad7a3c1f18514c4c,,,,,,,decisionTrl,resources/DP.BMP,resources/DR.BMP,Door4,-0.196376812,0.015942029,1,0,0,0.861,optionLeft,60,10950,5,28,0,28,0,1,,,,,,,,,,,,,,,,,,,,,,,,,,,,,,,,,,,,,,,
,,,,,,,,2023-08-06_08h27.03.329,HF_wild_card,2022.2.4,Win32,29.9940012,6159b2c05695adb2097e50a2,64ce5acb97489d65b14ecc7a,64cf4b30ad7a3c1f18514c4c,,,,,,,ctch,resources/DBN.BMP,resources/DR.BMP,Door3,0.189130435,-0.044927536,1,0,0,0.762,optionRight,70,11020,5,29,0,29,0,1,,,,,,,,,,,,,,,,,,,,,,,,,,,,,,,,,,,,,,,
,,,,,,,,2023-08-06_08h27.03.329,HF_wild_card,2022.2.4,Win32,29.9940012,6159b2c05695adb2097e50a2,64ce5acb97489d65b14ecc7a,64cf4b30ad7a3c1f18514c4c,,,,,,,decisionTrl,resources/DY.BMP,resources/DBN.BMP,Door2,0.261594203,-0.073913043,1,0,0,1.101,optionRight,40,11060,5,30,0,30,0,1,,,,,,,,,,,,,,,,,,,,,,,,,,,,,,,,,,,,,,,
,,,,,,,,2023-08-06_08h27.03.329,HF_wild_card,2022.2.4,Win32,29.9940012,6159b2c05695adb2097e50a2,64ce5acb97489d65b14ecc7a,64cf4b30ad7a3c1f18514c4c,,,,,,,sngl,resources/Empty.png,resources/DY.BMP,Door1,0.119565217,-0.02173913,1,0,0,0.946,optionRight,30,11090,5,31,0,31,0,1,,,,,,,,,,,,,,,,,,,,,,,,,,,,,,,,,,,,,,,
,,,,,,,,2023-08-06_08h27.03.329,HF_wild_card,2022.2.4,Win32,29.9940012,6159b2c05695adb2097e50a2,64ce5acb97489d65b14ecc7a,64cf4b30ad7a3c1f18514c4c,,,,,,,decisionTrl,resources/DBN.BMP,resources/DY.BMP,Door1,0.142753623,-0.04057971,1,0,0,2.484,optionRight,30,11120,5,32,0,32,0,1,,,,,,,,,,,,,,,,,,,,,,,,,,,,,,,,,,,,,,,
,,,,,,,,2023-08-06_08h27.03.329,HF_wild_card,2022.2.4,Win32,29.9940012,6159b2c05695adb2097e50a2,64ce5acb97489d65b14ecc7a,64cf4b30ad7a3c1f18514c4c,,,,,,,decisionTrl,resources/DBN.BMP,resources/DG.BMP,WildCard_NonEx,0.122463768,-0.044927536,1,0,0,0.775,optionRight,55,11175,5,33,0,33,0,1,,,,,,,,,,,,,,,,,,,,,,,,,,,,,,,,,,,,,,,
,,,,,,,,2023-08-06_08h27.03.329,HF_wild_card,2022.2.4,Win32,29.9940012,6159b2c05695adb2097e50a2,64ce5acb97489d65b14ecc7a,64cf4b30ad7a3c1f18514c4c,,,,,,,sngl,resources/Empty.png,resources/DP.BMP,Door4,0.119565217,-0.023188406,1,0,0,0.857,optionRight,60,11235,5,34,0,34,0,1,,,,,,,,,,,,,,,,,,,,,,,,,,,,,,,,,,,,,,,
,,,,,,,,2023-08-06_08h27.03.329,HF_wild_card,2022.2.4,Win32,29.9940012,6159b2c05695adb2097e50a2,64ce5acb97489d65b14ecc7a,64cf4b30ad7a3c1f18514c4c,,,,,,,decisionTrl,resources/DY.BMP,resources/DBN.BMP,Door1,-0.192028986,-0.002898551,1,0,0,0.655,optionLeft,30,11265,5,35,0,35,0,1,,,,,,,,,,,,,,,,,,,,,,,,,,,,,,,,,,,,,,,
,,,,,,,,2023-08-06_08h27.03.329,HF_wild_card,2022.2.4,Win32,29.9940012,6159b2c05695adb2097e50a2,64ce5acb97489d65b14ecc7a,64cf4b30ad7a3c1f18514c4c,,,,,,,sngl,resources/Empty.png,resources/DBN.BMP,Door2,0.144202899,-0.057971014,1,0,0,0.736,optionRight,20,11285,5,36,0,36,0,1,,,,,,,,,,,,,,,,,,,,,,,,,,,,,,,,,,,,,,,
,,,,,,,,2023-08-06_08h27.03.329,HF_wild_card,2022.2.4,Win32,29.9940012,6159b2c05695adb2097e50a2,64ce5acb97489d65b14ecc7a,64cf4b30ad7a3c1f18514c4c,,,,,,,sngl,resources/DBN.BMP,resources/Empty.png,Door2,-0.138405797,-0.036231884,1,0,0,0.795,optionLeft,40,11325,5,37,0,37,0,1,,,,,,,,,,,,,,,,,,,,,,,,,,,,,,,,,,,,,,,
,,,,,,,,2023-08-06_08h27.03.329,HF_wild_card,2022.2.4,Win32,29.9940012,6159b2c05695adb2097e50a2,64ce5acb97489d65b14ecc7a,64cf4b30ad7a3c1f18514c4c,,,,,,,decisionTrl,resources/DG.BMP,resources/DR.BMP,Door3,0.180434783,-0.039130435,1,0,0,1.886,optionRight,70,11395,5,38,0,38,0,1,,,,,,,,,,,,,,,,,,,,,,,,,,,,,,,,,,,,,,,
,,,,,,,,2023-08-06_08h27.03.329,HF_wild_card,2022.2.4,Win32,29.9940012,6159b2c05695adb2097e50a2,64ce5acb97489d65b14ecc7a,64cf4b30ad7a3c1f18514c4c,,,,,,,sngl,resources/DP.BMP,resources/Empty.png,Door4,-0.152898551,-0.024637681,1,0,0,13.423,optionLeft,80,11475,5,39,0,39,0,1,,,,,,,,,,,,,,,,,,,,,,,,,,,,,,,,,,,,,,,
,,,,,,,,2023-08-06_08h27.03.329,HF_wild_card,2022.2.4,Win32,29.9940012,6159b2c05695adb2097e50a2,64ce5acb97489d65b14ecc7a,64cf4b30ad7a3c1f18514c4c,,,,,,,decisionTrl,resources/DR.BMP,resources/DP.BMP,Door3,-0.405072464,-0.026086957,1,0,0,0.871,optionLeft,70,11545,5,40,0,40,0,1,,,,,,,,,,,,,,,,,,,,,,,,,,,,,,,,,,,,,,,
,,,,,,,,2023-08-06_08h27.03.329,HF_wild_card,2022.2.4,Win32,29.9940012,6159b2c05695adb2097e50a2,64ce5acb97489d65b14ecc7a,64cf4b30ad7a3c1f18514c4c,,,,,,,ctch,resources/DR.BMP,resources/DBN.BMP,Door3,-0.23115942,-0.01884058,1,0,0,0.763,optionLeft,70,11615,5,41,0,41,0,1,,,,,,,,,,,,,,,,,,,,,,,,,,,,,,,,,,,,,,,
,,,,,,,,2023-08-06_08h27.03.329,HF_wild_card,2022.2.4,Win32,29.9940012,6159b2c05695adb2097e50a2,64ce5acb97489d65b14ecc7a,64cf4b30ad7a3c1f18514c4c,,,,,,,sngl,resources/Empty.png,resources/DG.BMP,WildCard_NonEx,0.205072464,0.001449275,1,0,0,0.726,optionRight,55,11670,5,42,0,42,0,1,,,,,,,,,,,,,,,,,,,,,,,,,,,,,,,,,,,,,,,
,,,,,,,,2023-08-06_08h27.03.329,HF_wild_card,2022.2.4,Win32,29.9940012,6159b2c05695adb2097e50a2,64ce5acb97489d65b14ecc7a,64cf4b30ad7a3c1f18514c4c,,,,,,,sngl,resources/DG.BMP,resources/Empty.png,WildCard_NonEx,-0.226811594,0.014492754,1,0,0,0.726,optionLeft,55,11725,5,43,0,43,0,1,,,,,,,,,,,,,,,,,,,,,,,,,,,,,,,,,,,,,,,
,,,,,,,,2023-08-06_08h27.03.329,HF_wild_card,2022.2.4,Win32,29.9940012,6159b2c05695adb2097e50a2,64ce5acb97489d65b14ecc7a,64cf4b30ad7a3c1f18514c4c,,,,,,,,,,,,,,,,,,,,,,,,,,4,0,4,0,1,,,,,,,,,,,,,,,,,,,,,,,,,,,,,,,,,,
,,,,,,,,2023-08-06_08h27.03.329,HF_wild_card,2022.2.4,Win32,29.9940012,6159b2c05695adb2097e50a2,64ce5acb97489d65b14ecc7a,64cf4b30ad7a3c1f18514c4c,,,,,,,sngl,resources/Empty.png,resources/DG.BMP,WildCard_NonEx,0.307971014,-0.169565217,1,0,0,1.024,optionRight,45,11770,6,0,0,0,0,1,,,,,,,,,,,,,,,,,,,,,,,,,,,,,,,,,,,,,,,
,,,,,,,,2023-08-06_08h27.03.329,HF_wild_card,2022.2.4,Win32,29.9940012,6159b2c05695adb2097e50a2,64ce5acb97489d65b14ecc7a,64cf4b30ad7a3c1f18514c4c,,,,,,,sngl,resources/DG.BMP,resources/Empty.png,WildCard_NonEx,-0.389130435,0.02173913,1,0,0,0.762,optionLeft,55,11825,6,1,0,1,0,1,,,,,,,,,,,,,,,,,,,,,,,,,,,,,,,,,,,,,,,
,,,,,,,,2023-08-06_08h27.03.329,HF_wild_card,2022.2.4,Win32,29.9940012,6159b2c05695adb2097e50a2,64ce5acb97489d65b14ecc7a,64cf4b30ad7a3c1f18514c4c,,,,,,,ctch,resources/DP.BMP,resources/DY.BMP,Door1,0.23115942,-0.039130435,1,0,0,1.454,optionRight,30,11855,6,2,0,2,0,1,,,,,,,,,,,,,,,,,,,,,,,,,,,,,,,,,,,,,,,
,,,,,,,,2023-08-06_08h27.03.329,HF_wild_card,2022.2.4,Win32,29.9940012,6159b2c05695adb2097e50a2,64ce5acb97489d65b14ecc7a,64cf4b30ad7a3c1f18514c4c,,,,,,,decisionTrl,resources/DY.BMP,resources/DBN.BMP,Door1,-0.196376812,0.026086957,1,0,0,1.245,optionLeft,30,11885,6,3,0,3,0,1,,,,,,,,,,,,,,,,,,,,,,,,,,,,,,,,,,,,,,,
,,,,,,,,2023-08-06_08h27.03.329,HF_wild_card,2022.2.4,Win32,29.9940012,6159b2c05695adb2097e50a2,64ce5acb97489d65b14ecc7a,64cf4b30ad7a3c1f18514c4c,,,,,,,sngl,resources/Empty.png,resources/DG.BMP,WildCard_NonEx,0.302173913,-0.042028986,1,0,0,0.74,optionRight,55,11940,6,4,0,4,0,1,,,,,,,,,,,,,,,,,,,,,,,,,,,,,,,,,,,,,,,
,,,,,,,,2023-08-06_08h27.03.329,HF_wild_card,2022.2.4,Win32,29.9940012,6159b2c05695adb2097e50a2,64ce5acb97489d65b14ecc7a,64cf4b30ad7a3c1f18514c4c,,,,,,,ctch,resources/DBN.BMP,resources/DR.BMP,Door3,0.213768116,-0.039130435,1,0,0,0.845,optionRight,70,12010,6,5,0,5,0,1,,,,,,,,,,,,,,,,,,,,,,,,,,,,,,,,,,,,,,,
,,,,,,,,2023-08-06_08h27.03.329,HF_wild_card,2022.2.4,Win32,29.9940012,6159b2c05695adb2097e50a2,64ce5acb97489d65b14ecc7a,64cf4b30ad7a3c1f18514c4c,,,,,,,decisionTrl,resources/DP.BMP,resources/DR.BMP,Door3,0.232608696,-0.033333333,1,0,0,1.293,optionRight,70,12080,6,6,0,6,0,1,,,,,,,,,,,,,,,,,,,,,,,,,,,,,,,,,,,,,,,
,,,,,,,,2023-08-06_08h27.03.329,HF_wild_card,2022.2.4,Win32,29.9940012,6159b2c05695adb2097e50a2,64ce5acb97489d65b14ecc7a,64cf4b30ad7a3c1f18514c4c,,,,,,,decisionTrl,resources/DP.BMP,resources/DR.BMP,Door4,-0.378985507,-0.007246377,1,0,0,0.741,optionLeft,80,12160,6,7,0,7,0,1,,,,,,,,,,,,,,,,,,,,,,,,,,,,,,,,,,,,,,,
,,,,,,,,2023-08-06_08h27.03.329,HF_wild_card,2022.2.4,Win32,29.9940012,6159b2c05695adb2097e50a2,64ce5acb97489d65b14ecc7a,64cf4b30ad7a3c1f18514c4c,,,,,,,sngl,resources/Empty.png,resources/DR.BMP,Door3,0.370289855,-0.050724638,1,0,0,0.696,optionRight,70,12230,6,8,0,8,0,1,,,,,,,,,,,,,,,,,,,,,,,,,,,,,,,,,,,,,,,
,,,,,,,,2023-08-06_08h27.03.329,HF_wild_card,2022.2.4,Win32,29.9940012,6159b2c05695adb2097e50a2,64ce5acb97489d65b14ecc7a,64cf4b30ad7a3c1f18514c4c,,,,,,,ctch,resources/DP.BMP,resources/DY.BMP,Door4,-0.252898551,-0.036231884,1,0,0,0.789,optionLeft,60,12290,6,9,0,9,0,1,,,,,,,,,,,,,,,,,,,,,,,,,,,,,,,,,,,,,,,
,,,,,,,,2023-08-06_08h27.03.329,HF_wild_card,2022.2.4,Win32,29.9940012,6159b2c05695adb2097e50a2,64ce5acb97489d65b14ecc7a,64cf4b30ad7a3c1f18514c4c,,,,,,,decisionTrl,resources/DBN.BMP,resources/DY.BMP,Door1,0.139855072,-0.02173913,1,0,0,0.822,optionRight,30,12320,6,10,0,10,0,1,,,,,,,,,,,,,,,,,,,,,,,,,,,,,,,,,,,,,,,
,,,,,,,,2023-08-06_08h27.03.329,HF_wild_card,2022.2.4,Win32,29.9940012,6159b2c05695adb2097e50a2,64ce5acb97489d65b14ecc7a,64cf4b30ad7a3c1f18514c4c,,,,,,,decisionTrl,resources/DBN.BMP,resources/DY.BMP,Door2,-0.242753623,0.004347826,1,0,0,0.764,optionLeft,20,12340,6,11,0,11,0,1,,,,,,,,,,,,,,,,,,,,,,,,,,,,,,,,,,,,,,,
,,,,,,,,2023-08-06_08h27.03.329,HF_wild_card,2022.2.4,Win32,29.9940012,6159b2c05695adb2097e50a2,64ce5acb97489d65b14ecc7a,64cf4b30ad7a3c1f18514c4c,,,,,,,decisionTrl,resources/DG.BMP,resources/DP.BMP,WildCard_NonEx,-0.241304348,0.02173913,1,0,0,1.473,optionLeft,45,12385,6,12,0,12,0,1,,,,,,,,,,,,,,,,,,,,,,,,,,,,,,,,,,,,,,,
,,,,,,,,2023-08-06_08h27.03.329,HF_wild_card,2022.2.4,Win32,29.9940012,6159b2c05695adb2097e50a2,64ce5acb97489d65b14ecc7a,64cf4b30ad7a3c1f18514c4c,,,,,,,sngl,resources/DP.BMP,resources/Empty.png,Door4,-0.306521739,0.068115942,1,0,0,0.729,optionLeft,60,12445,6,13,0,13,0,1,,,,,,,,,,,,,,,,,,,,,,,,,,,,,,,,,,,,,,,
,,,,,,,,2023-08-06_08h27.03.329,HF_wild_card,2022.2.4,Win32,29.9940012,6159b2c05695adb2097e50a2,64ce5acb97489d65b14ecc7a,64cf4b30ad7a3c1f18514c4c,,,,,,,decisionTrl,resources/DY.BMP,resources/DG.BMP,WildCard_NonEx,0.193478261,-0.031884058,1,0,0,0.622,optionRight,45,12490,6,14,0,14,0,1,,,,,,,,,,,,,,,,,,,,,,,,,,,,,,,,,,,,,,,
,,,,,,,,2023-08-06_08h27.03.329,HF_wild_card,2022.2.4,Win32,29.9940012,6159b2c05695adb2097e50a2,64ce5acb97489d65b14ecc7a,64cf4b30ad7a3c1f18514c4c,,,,,,,sngl,resources/Empty.png,resources/DP.BMP,Door4,0.200724638,-0.031884058,1,0,0,0.683,optionRight,80,12570,6,15,0,15,0,1,,,,,,,,,,,,,,,,,,,,,,,,,,,,,,,,,,,,,,,
,,,,,,,,2023-08-06_08h27.03.329,HF_wild_card,2022.2.4,Win32,29.9940012,6159b2c05695adb2097e50a2,64ce5acb97489d65b14ecc7a,64cf4b30ad7a3c1f18514c4c,,,,,,,decisionTrl,resources/DY.BMP,resources/DBN.BMP,Door1,-0.312318841,0.036231884,1,0,0,6.677,optionLeft,30,12600,6,16,0,16,0,1,,,,,,,,,,,,,,,,,,,,,,,,,,,,,,,,,,,,,,,
,,,,,,,,2023-08-06_08h27.03.329,HF_wild_card,2022.2.4,Win32,29.9940012,6159b2c05695adb2097e50a2,64ce5acb97489d65b14ecc7a,64cf4b30ad7a3c1f18514c4c,,,,,,,sngl,resources/Empty.png,resources/DY.BMP,Door1,0.19057971,-0.037681159,1,0,0,0.682,optionRight,30,12630,6,17,0,17,0,1,,,,,,,,,,,,,,,,,,,,,,,,,,,,,,,,,,,,,,,
,,,,,,,,2023-08-06_08h27.03.329,HF_wild_card,2022.2.4,Win32,29.9940012,6159b2c05695adb2097e50a2,64ce5acb97489d65b14ecc7a,64cf4b30ad7a3c1f18514c4c,,,,,,,ctch,resources/DR.BMP,resources/DBN.BMP,Door3,-0.218115942,0.002898551,1,0,0,0.771,optionLeft,70,12700,6,18,0,18,0,1,,,,,,,,,,,,,,,,,,,,,,,,,,,,,,,,,,,,,,,
,,,,,,,,2023-08-06_08h27.03.329,HF_wild_card,2022.2.4,Win32,29.9940012,6159b2c05695adb2097e50a2,64ce5acb97489d65b14ecc7a,64cf4b30ad7a3c1f18514c4c,,,,,,,decisionTrl,resources/DG.BMP,resources/DR.BMP,Door3,0.222463768,-0.050724638,1,0,0,0.641,optionRight,70,12770,6,19,0,19,0,1,,,,,,,,,,,,,,,,,,,,,,,,,,,,,,,,,,,,,,,
,,,,,,,,2023-08-06_08h27.03.329,HF_wild_card,2022.2.4,Win32,29.9940012,6159b2c05695adb2097e50a2,64ce5acb97489d65b14ecc7a,64cf4b30ad7a3c1f18514c4c,,,,,,,ctch,resources/DY.BMP,resources/DP.BMP,Door4,0.257246377,-0.060869565,1,0,0,0.693,optionRight,60,12830,6,20,0,20,0,1,,,,,,,,,,,,,,,,,,,,,,,,,,,,,,,,,,,,,,,
,,,,,,,,2023-08-06_08h27.03.329,HF_wild_card,2022.2.4,Win32,29.9940012,6159b2c05695adb2097e50a2,64ce5acb97489d65b14ecc7a,64cf4b30ad7a3c1f18514c4c,,,,,,,decisionTrl,resources/DBN.BMP,resources/DG.BMP,WildCard_NonEx,0.174637681,-0.044927536,1,0,0,0.831,optionRight,45,12875,6,21,0,21,0,1,,,,,,,,,,,,,,,,,,,,,,,,,,,,,,,,,,,,,,,
,,,,,,,,2023-08-06_08h27.03.329,HF_wild_card,2022.2.4,Win32,29.9940012,6159b2c05695adb2097e50a2,64ce5acb97489d65b14ecc7a,64cf4b30ad7a3c1f18514c4c,,,,,,,sngl,resources/DR.BMP,resources/Empty.png,Door3,-0.239855072,-0.033333333,1,0,0,0.793,optionLeft,70,12945,6,22,0,22,0,1,,,,,,,,,,,,,,,,,,,,,,,,,,,,,,,,,,,,,,,
,,,,,,,,2023-08-06_08h27.03.329,HF_wild_card,2022.2.4,Win32,29.9940012,6159b2c05695adb2097e50a2,64ce5acb97489d65b14ecc7a,64cf4b30ad7a3c1f18514c4c,,,,,,,decisionTrl,resources/DG.BMP,resources/DBN.BMP,WildCard_NonEx,-0.160144928,0.008695652,1,0,0,1.162,optionLeft,45,12990,6,23,0,23,0,1,,,,,,,,,,,,,,,,,,,,,,,,,,,,,,,,,,,,,,,
,,,,,,,,2023-08-06_08h27.03.329,HF_wild_card,2022.2.4,Win32,29.9940012,6159b2c05695adb2097e50a2,64ce5acb97489d65b14ecc7a,64cf4b30ad7a3c1f18514c4c,,,,,,,decisionTrl,resources/DR.BMP,resources/DP.BMP,Door4,0.170289855,-0.023188406,1,0,0,0.962,optionRight,60,13050,6,24,0,24,0,1,,,,,,,,,,,,,,,,,,,,,,,,,,,,,,,,,,,,,,,
,,,,,,,,2023-08-06_08h27.03.329,HF_wild_card,2022.2.4,Win32,29.9940012,6159b2c05695adb2097e50a2,64ce5acb97489d65b14ecc7a,64cf4b30ad7a3c1f18514c4c,,,,,,,decisionTrl,resources/DR.BMP,resources/DP.BMP,Door4,0.155797101,-0.036231884,1,0,0,0.995,optionRight,60,13110,6,25,0,25,0,1,,,,,,,,,,,,,,,,,,,,,,,,,,,,,,,,,,,,,,,
,,,,,,,,2023-08-06_08h27.03.329,HF_wild_card,2022.2.4,Win32,29.9940012,6159b2c05695adb2097e50a2,64ce5acb97489d65b14ecc7a,64cf4b30ad7a3c1f18514c4c,,,,,,,sngl,resources/DBN.BMP,resources/Empty.png,Door2,-0.129710145,0.008695652,1,0,0,0.839,optionLeft,20,13130,6,26,0,26,0,1,,,,,,,,,,,,,,,,,,,,,,,,,,,,,,,,,,,,,,,
,,,,,,,,2023-08-06_08h27.03.329,HF_wild_card,2022.2.4,Win32,29.9940012,6159b2c05695adb2097e50a2,64ce5acb97489d65b14ecc7a,64cf4b30ad7a3c1f18514c4c,,,,,,,decisionTrl,resources/DP.BMP,resources/DR.BMP,Door4,-0.161594203,0.005797101,1,0,0,1.008,optionLeft,80,13210,6,27,0,27,0,1,,,,,,,,,,,,,,,,,,,,,,,,,,,,,,,,,,,,,,,
,,,,,,,,2023-08-06_08h27.03.329,HF_wild_card,2022.2.4,Win32,29.9940012,6159b2c05695adb2097e50a2,64ce5acb97489d65b14ecc7a,64cf4b30ad7a3c1f18514c4c,,,,,,,ctch,resources/DBN.BMP,resources/DR.BMP,Door3,0.145652174,-0.056521739,1,0,0,1.032,optionRight,70,13280,6,28,0,28,0,1,,,,,,,,,,,,,,,,,,,,,,,,,,,,,,,,,,,,,,,
,,,,,,,,2023-08-06_08h27.03.329,HF_wild_card,2022.2.4,Win32,29.9940012,6159b2c05695adb2097e50a2,64ce5acb97489d65b14ecc7a,64cf4b30ad7a3c1f18514c4c,,,,,,,decisionTrl,resources/DY.BMP,resources/DBN.BMP,Door2,0.206521739,-0.044927536,1,0,0,1.272,optionRight,20,13300,6,29,0,29,0,1,,,,,,,,,,,,,,,,,,,,,,,,,,,,,,,,,,,,,,,
,,,,,,,,2023-08-06_08h27.03.329,HF_wild_card,2022.2.4,Win32,29.9940012,6159b2c05695adb2097e50a2,64ce5acb97489d65b14ecc7a,64cf4b30ad7a3c1f18514c4c,,,,,,,decisionTrl,resources/DBN.BMP,resources/DY.BMP,Door1,0.229710145,-0.033333333,1,0,0,1.124,optionRight,30,13330,6,30,0,30,0,1,,,,,,,,,,,,,,,,,,,,,,,,,,,,,,,,,,,,,,,
,,,,,,,,2023-08-06_08h27.03.329,HF_wild_card,2022.2.4,Win32,29.9940012,6159b2c05695adb2097e50a2,64ce5acb97489d65b14ecc7a,64cf4b30ad7a3c1f18514c4c,,,,,,,ctch,resources/DR.BMP,resources/DBN.BMP,Door3,-0.277536232,-0.014492754,1,0,0,1.064,optionLeft,70,13400,6,31,0,31,0,1,,,,,,,,,,,,,,,,,,,,,,,,,,,,,,,,,,,,,,,
,,,,,,,,2023-08-06_08h27.03.329,HF_wild_card,2022.2.4,Win32,29.9940012,6159b2c05695adb2097e50a2,64ce5acb97489d65b14ecc7a,64cf4b30ad7a3c1f18514c4c,,,,,,,decisionTrl,resources/DBN.BMP,resources/DY.BMP,Door1,0.318115942,-0.011594203,1,0,0,2.529,optionRight,30,13430,6,32,0,32,0,1,,,,,,,,,,,,,,,,,,,,,,,,,,,,,,,,,,,,,,,
,,,,,,,,2023-08-06_08h27.03.329,HF_wild_card,2022.2.4,Win32,29.9940012,6159b2c05695adb2097e50a2,64ce5acb97489d65b14ecc7a,64cf4b30ad7a3c1f18514c4c,,,,,,,decisionTrl,resources/DR.BMP,resources/DP.BMP,Door4,0.154347826,-0.066666667,1,0,0,1.083,optionRight,60,13490,6,33,0,33,0,1,,,,,,,,,,,,,,,,,,,,,,,,,,,,,,,,,,,,,,,
,,,,,,,,2023-08-06_08h27.03.329,HF_wild_card,2022.2.4,Win32,29.9940012,6159b2c05695adb2097e50a2,64ce5acb97489d65b14ecc7a,64cf4b30ad7a3c1f18514c4c,,,,,,,sngl,resources/DG.BMP,resources/Empty.png,WildCard_NonEx,-0.219565217,0.011594203,1,0,0,0.762,optionLeft,45,13535,6,34,0,34,0,1,,,,,,,,,,,,,,,,,,,,,,,,,,,,,,,,,,,,,,,
,,,,,,,,2023-08-06_08h27.03.329,HF_wild_card,2022.2.4,Win32,29.9940012,6159b2c05695adb2097e50a2,64ce5acb97489d65b14ecc7a,64cf4b30ad7a3c1f18514c4c,,,,,,,decisionTrl,resources/DY.BMP,resources/DBN.BMP,Door2,0.196376812,-0.073913043,1,0,0,0.568,optionRight,20,13555,6,35,0,35,0,1,,,,,,,,,,,,,,,,,,,,,,,,,,,,,,,,,,,,,,,
,,,,,,,,2023-08-06_08h27.03.329,HF_wild_card,2022.2.4,Win32,29.9940012,6159b2c05695adb2097e50a2,64ce5acb97489d65b14ecc7a,64cf4b30ad7a3c1f18514c4c,,,,,,,decisionTrl,resources/DP.BMP,resources/DG.BMP,WildCard_NonEx,0.341304348,-0.075362319,1,0,0,1.06,optionRight,45,13600,6,36,0,36,0,1,,,,,,,,,,,,,,,,,,,,,,,,,,,,,,,,,,,,,,,
,,,,,,,,2023-08-06_08h27.03.329,HF_wild_card,2022.2.4,Win32,29.9940012,6159b2c05695adb2097e50a2,64ce5acb97489d65b14ecc7a,64cf4b30ad7a3c1f18514c4c,,,,,,,decisionTrl,resources/DG.BMP,resources/DY.BMP,WildCard_NonEx,-0.207971014,0.024637681,1,0,0,1.15,optionLeft,45,13645,6,37,0,37,0,1,,,,,,,,,,,,,,,,,,,,,,,,,,,,,,,,,,,,,,,
,,,,,,,,2023-08-06_08h27.03.329,HF_wild_card,2022.2.4,Win32,29.9940012,6159b2c05695adb2097e50a2,64ce5acb97489d65b14ecc7a,64cf4b30ad7a3c1f18514c4c,,,,,,,ctch,resources/DY.BMP,resources/DP.BMP,Door4,0.170289855,-0.047826087,1,0,0,0.954,optionRight,60,13705,6,38,0,38,0,1,,,,,,,,,,,,,,,,,,,,,,,,,,,,,,,,,,,,,,,
,,,,,,,,2023-08-06_08h27.03.329,HF_wild_card,2022.2.4,Win32,29.9940012,6159b2c05695adb2097e50a2,64ce5acb97489d65b14ecc7a,64cf4b30ad7a3c1f18514c4c,,,,,,,decisionTrl,resources/DR.BMP,resources/DP.BMP,Door4,0.136956522,-0.069565217,1,0,0,1.546,optionRight,80,13785,6,39,0,39,0,1,,,,,,,,,,,,,,,,,,,,,,,,,,,,,,,,,,,,,,,
,,,,,,,,2023-08-06_08h27.03.329,HF_wild_card,2022.2.4,Win32,29.9940012,6159b2c05695adb2097e50a2,64ce5acb97489d65b14ecc7a,64cf4b30ad7a3c1f18514c4c,,,,,,,sngl,resources/DY.BMP,resources/Empty.png,Door1,-0.187681159,0.015942029,1,0,0,0.822,optionLeft,30,13815,6,40,0,40,0,1,,,,,,,,,,,,,,,,,,,,,,,,,,,,,,,,,,,,,,,
,,,,,,,,2023-08-06_08h27.03.329,HF_wild_card,2022.2.4,Win32,29.9940012,6159b2c05695adb2097e50a2,64ce5acb97489d65b14ecc7a,64cf4b30ad7a3c1f18514c4c,,,,,,,decisionTrl,resources/DR.BMP,resources/DG.BMP,Door3,-0.258695652,0.011594203,1,0,0,1.711,optionLeft,70,13885,6,41,0,41,0,1,,,,,,,,,,,,,,,,,,,,,,,,,,,,,,,,,,,,,,,
,,,,,,,,2023-08-06_08h27.03.329,HF_wild_card,2022.2.4,Win32,29.9940012,6159b2c05695adb2097e50a2,64ce5acb97489d65b14ecc7a,64cf4b30ad7a3c1f18514c4c,,,,,,,decisionTrl,resources/DP.BMP,resources/DR.BMP,Door4,-0.210869565,0.015942029,1,0,0,1.716,optionLeft,60,13945,6,42,0,42,0,1,,,,,,,,,,,,,,,,,,,,,,,,,,,,,,,,,,,,,,,
,,,,,,,,2023-08-06_08h27.03.329,HF_wild_card,2022.2.4,Win32,29.9940012,6159b2c05695adb2097e50a2,64ce5acb97489d65b14ecc7a,64cf4b30ad7a3c1f18514c4c,,,,,,,sngl,resources/Empty.png,resources/DBN.BMP,Door2,0.225362319,-0.026086957,1,0,0,1.066,optionRight,40,13985,6,43,0,43,0,1,,,,,,,,,,,,,,,,,,,,,,,,,,,,,,,,,,,,,,,
,,,,,,,,2023-08-06_08h27.03.329,HF_wild_card,2022.2.4,Win32,29.9940012,6159b2c05695adb2097e50a2,64ce5acb97489d65b14ecc7a,64cf4b30ad7a3c1f18514c4c,,,,,,,,,,,,,,,,,,,,,,,,,,5,0,5,0,1,,,,,,,,,,,,,,,,,,,,,,,,,,,,,,,,,,
,,,,,,,,2023-08-06_08h27.03.329,HF_wild_card,2022.2.4,Win32,29.9940012,6159b2c05695adb2097e50a2,64ce5acb97489d65b14ecc7a,64cf4b30ad7a3c1f18514c4c,,,,,,,decisionTrl,resources/DR.BMP,resources/DP.BMP,Door4,0.392028986,-0.072463768,1,0,0,1.085,optionRight,60,14045,7,0,0,0,0,1,,,,,,,,,,,,,,,,,,,,,,,,,,,,,,,,,,,,,,,
,,,,,,,,2023-08-06_08h27.03.329,HF_wild_card,2022.2.4,Win32,29.9940012,6159b2c05695adb2097e50a2,64ce5acb97489d65b14ecc7a,64cf4b30ad7a3c1f18514c4c,,,,,,,ctch,resources/DP.BMP,resources/DY.BMP,Door4,-0.199275362,-0.028985507,1,0,0,0.798,optionLeft,80,14125,7,1,0,1,0,1,,,,,,,,,,,,,,,,,,,,,,,,,,,,,,,,,,,,,,,
,,,,,,,,2023-08-06_08h27.03.329,HF_wild_card,2022.2.4,Win32,29.9940012,6159b2c05695adb2097e50a2,64ce5acb97489d65b14ecc7a,64cf4b30ad7a3c1f18514c4c,,,,,,,ctch,resources/DR.BMP,resources/DBN.BMP,Door3,-0.152898551,-0.024637681,1,0,0,0.863,optionLeft,70,14195,7,2,0,2,0,1,,,,,,,,,,,,,,,,,,,,,,,,,,,,,,,,,,,,,,,
,,,,,,,,2023-08-06_08h27.03.329,HF_wild_card,2022.2.4,Win32,29.9940012,6159b2c05695adb2097e50a2,64ce5acb97489d65b14ecc7a,64cf4b30ad7a3c1f18514c4c,,,,,,,decisionTrl,resources/DY.BMP,resources/DBN.BMP,Door1,-0.19057971,-0.011594203,1,0,0,0.777,optionLeft,30,14225,7,3,0,3,0,1,,,,,,,,,,,,,,,,,,,,,,,,,,,,,,,,,,,,,,,
,,,,,,,,2023-08-06_08h27.03.329,HF_wild_card,2022.2.4,Win32,29.9940012,6159b2c05695adb2097e50a2,64ce5acb97489d65b14ecc7a,64cf4b30ad7a3c1f18514c4c,,,,,,,decisionTrl,resources/DY.BMP,resources/DBN.BMP,Door1,-0.205072464,0.001449275,1,0,0,0.702,optionLeft,30,14255,7,4,0,4,0,1,,,,,,,,,,,,,,,,,,,,,,,,,,,,,,,,,,,,,,,
,,,,,,,,2023-08-06_08h27.03.329,HF_wild_card,2022.2.4,Win32,29.9940012,6159b2c05695adb2097e50a2,64ce5acb97489d65b14ecc7a,64cf4b30ad7a3c1f18514c4c,,,,,,,decisionTrl,resources/DR.BMP,resources/DP.BMP,Door4,0.289130435,-0.084057971,1,0,0,1.174,optionRight,80,14335,7,5,0,5,0,1,,,,,,,,,,,,,,,,,,,,,,,,,,,,,,,,,,,,,,,
,,,,,,,,2023-08-06_08h27.03.329,HF_wild_card,2022.2.4,Win32,29.9940012,6159b2c05695adb2097e50a2,64ce5acb97489d65b14ecc7a,64cf4b30ad7a3c1f18514c4c,,,,,,,decisionTrl,resources/DP.BMP,resources/DR.BMP,Door3,0.306521739,-0.117391304,1,0,0,1.397,optionRight,70,14405,7,6,0,6,0,1,,,,,,,,,,,,,,,,,,,,,,,,,,,,,,,,,,,,,,,
,,,,,,,,2023-08-06_08h27.03.329,HF_wild_card,2022.2.4,Win32,29.9940012,6159b2c05695adb2097e50a2,64ce5acb97489d65b14ecc7a,64cf4b30ad7a3c1f18514c4c,,,,,,,decisionTrl,resources/DY.BMP,resources/DBN.BMP,Door1,-0.199275362,-0.015942029,1,0,0,0.865,optionLeft,30,14435,7,7,0,7,0,1,,,,,,,,,,,,,,,,,,,,,,,,,,,,,,,,,,,,,,,
,,,,,,,,2023-08-06_08h27.03.329,HF_wild_card,2022.2.4,Win32,29.9940012,6159b2c05695adb2097e50a2,64ce5acb97489d65b14ecc7a,64cf4b30ad7a3c1f18514c4c,,,,,,,decisionTrl,resources/DBN.BMP,resources/DY.BMP,Door1,0.410869565,-0.102898551,1,0,0,1.015,optionRight,30,14465,7,8,0,8,0,1,,,,,,,,,,,,,,,,,,,,,,,,,,,,,,,,,,,,,,,
,,,,,,,,2023-08-06_08h27.03.329,HF_wild_card,2022.2.4,Win32,29.9940012,6159b2c05695adb2097e50a2,64ce5acb97489d65b14ecc7a,64cf4b30ad7a3c1f18514c4c,,,,,,,ctch,resources/DR.BMP,resources/DBN.BMP,Door3,-0.37173913,-0.01884058,1,0,0,0.974,optionLeft,70,14535,7,9,0,9,0,1,,,,,,,,,,,,,,,,,,,,,,,,,,,,,,,,,,,,,,,
,,,,,,,,2023-08-06_08h27.03.329,HF_wild_card,2022.2.4,Win32,29.9940012,6159b2c05695adb2097e50a2,64ce5acb97489d65b14ecc7a,64cf4b30ad7a3c1f18514c4c,,,,,,,decisionTrl,resources/DBN.BMP,resources/DY.BMP,Door1,0.255797101,-0.011594203,1,0,0,0.933,optionRight,30,14565,7,10,0,10,0,1,,,,,,,,,,,,,,,,,,,,,,,,,,,,,,,,,,,,,,,
,,,,,,,,2023-08-06_08h27.03.329,HF_wild_card,2022.2.4,Win32,29.9940012,6159b2c05695adb2097e50a2,64ce5acb97489d65b14ecc7a,64cf4b30ad7a3c1f18514c4c,,,,,,,decisionTrl,resources/DP.BMP,resources/DR.BMP,Door3,0.336956522,0.079710145,1,0,0,3.082,optionRight,70,14635,7,11,0,11,0,1,,,,,,,,,,,,,,,,,,,,,,,,,,,,,,,,,,,,,,,
,,,,,,,,2023-08-06_08h27.03.329,HF_wild_card,2022.2.4,Win32,29.9940012,6159b2c05695adb2097e50a2,64ce5acb97489d65b14ecc7a,64cf4b30ad7a3c1f18514c4c,,,,,,,decisionTrl,resources/DBN.BMP,resources/DY.BMP,Door1,0.241304348,-0.008695652,1,0,0,1.273,optionRight,30,14665,7,12,0,12,0,1,,,,,,,,,,,,,,,,,,,,,,,,,,,,,,,,,,,,,,,
,,,,,,,,2023-08-06_08h27.03.329,HF_wild_card,2022.2.4,Win32,29.9940012,6159b2c05695adb2097e50a2,64ce5acb97489d65b14ecc7a,64cf4b30ad7a3c1f18514c4c,,,,,,,decisionTrl,resources/DY.BMP,resources/DBN.BMP,Door1,-0.380434783,-0.089855072,1,0,0,0.82,optionLeft,30,14695,7,13,0,13,0,1,,,,,,,,,,,,,,,,,,,,,,,,,,,,,,,,,,,,,,,
,,,,,,,,2023-08-06_08h27.03.329,HF_wild_card,2022.2.4,Win32,29.9940012,6159b2c05695adb2097e50a2,64ce5acb97489d65b14ecc7a,64cf4b30ad7a3c1f18514c4c,,,,,,,ctch,resources/DP.BMP,resources/DY.BMP,Door4,-0.203623188,-0.060869565,1,0,0,1.073,optionLeft,60,14755,7,14,0,14,0,1,,,,,,,,,,,,,,,,,,,,,,,,,,,,,,,,,,,,,,,
,,,,,,,,2023-08-06_08h27.03.329,HF_wild_card,2022.2.4,Win32,29.9940012,6159b2c05695adb2097e50a2,64ce5acb97489d65b14ecc7a,64cf4b30ad7a3c1f18514c4c,,,,,,,ctch,resources/DP.BMP,resources/DY.BMP,Door4,-0.307971014,-0.073913043,1,0,0,0.75,optionLeft,80,14835,7,15,0,15,0,1,,,,,,,,,,,,,,,,,,,,,,,,,,,,,,,,,,,,,,,
,,,,,,,,2023-08-06_08h27.03.329,HF_wild_card,2022.2.4,Win32,29.9940012,6159b2c05695adb2097e50a2,64ce5acb97489d65b14ecc7a,64cf4b30ad7a3c1f18514c4c,,,,,,,decisionTrl,resources/DBN.BMP,resources/DY.BMP,Door1,0.215217391,0,1,0,0,0.994,optionRight,30,14865,7,16,0,16,0,1,,,,,,,,,,,,,,,,,,,,,,,,,,,,,,,,,,,,,,,
,,,,,,,,2023-08-06_08h27.03.329,HF_wild_card,2022.2.4,Win32,29.9940012,6159b2c05695adb2097e50a2,64ce5acb97489d65b14ecc7a,64cf4b30ad7a3c1f18514c4c,,,,,,,ctch,resources/DBN.BMP,resources/DR.BMP,Door3,0.122463768,-0.005797101,1,0,0,0.789,optionRight,70,14935,7,17,0,17,0,1,,,,,,,,,,,,,,,,,,,,,,,,,,,,,,,,,,,,,,,
,,,,,,,,2023-08-06_08h27.03.329,HF_wild_card,2022.2.4,Win32,29.9940012,6159b2c05695adb2097e50a2,64ce5acb97489d65b14ecc7a,64cf4b30ad7a3c1f18514c4c,,,,,,,ctch,resources/DBN.BMP,resources/DR.BMP,Door3,0.241304348,-0.026086957,1,0,0,0.767,optionRight,70,15005,7,18,0,18,0,1,,,,,,,,,,,,,,,,,,,,,,,,,,,,,,,,,,,,,,,
,,,,,,,,2023-08-06_08h27.03.329,HF_wild_card,2022.2.4,Win32,29.9940012,6159b2c05695adb2097e50a2,64ce5acb97489d65b14ecc7a,64cf4b30ad7a3c1f18514c4c,,,,,,,decisionTrl,resources/DP.BMP,resources/DR.BMP,Door4,-0.364492754,-0.066666667,1,0,0,1.085,optionLeft,80,15085,7,19,0,19,0,1,,,,,,,,,,,,,,,,,,,,,,,,,,,,,,,,,,,,,,,
,,,,,,,,2023-08-06_08h27.03.329,HF_wild_card,2022.2.4,Win32,29.9940012,6159b2c05695adb2097e50a2,64ce5acb97489d65b14ecc7a,64cf4b30ad7a3c1f18514c4c,,,,,,,decisionTrl,resources/DP.BMP,resources/DR.BMP,Door3,0.148550725,-0.015942029,1,0,0,0.674,optionRight,70,15155,7,20,0,20,0,1,,,,,,,,,,,,,,,,,,,,,,,,,,,,,,,,,,,,,,,
,,,,,,,,2023-08-06_08h27.03.329,HF_wild_card,2022.2.4,Win32,29.9940012,6159b2c05695adb2097e50a2,64ce5acb97489d65b14ecc7a,64cf4b30ad7a3c1f18514c4c,,,,,,,decisionTrl,resources/DR.BMP,resources/DP.BMP,Door4,0.263043478,-0.046376812,1,0,0,1.125,optionRight,80,15235,7,21,0,21,0,1,,,,,,,,,,,,,,,,,,,,,,,,,,,,,,,,,,,,,,,
,,,,,,,,2023-08-06_08h27.03.329,HF_wild_card,2022.2.4,Win32,29.9940012,6159b2c05695adb2097e50a2,64ce5acb97489d65b14ecc7a,64cf4b30ad7a3c1f18514c4c,,,,,,,decisionTrl,resources/DBN.BMP,resources/DY.BMP,Door1,0.193478261,-0.007246377,1,0,0,0.88,optionRight,30,15265,7,22,0,22,0,1,,,,,,,,,,,,,,,,,,,,,,,,,,,,,,,,,,,,,,,
,,,,,,,,2023-08-06_08h27.03.329,HF_wild_card,2022.2.4,Win32,29.9940012,6159b2c05695adb2097e50a2,64ce5acb97489d65b14ecc7a,64cf4b30ad7a3c1f18514c4c,,,,,,,decisionTrl,resources/DR.BMP,resources/DP.BMP,Door4,0.199275362,-0.024637681,1,0,0,0.98,optionRight,60,15325,7,23,0,23,0,1,,,,,,,,,,,,,,,,,,,,,,,,,,,,,,,,,,,,,,,
,,,,,,,,2023-08-06_08h27.03.329,HF_wild_card,2022.2.4,Win32,29.9940012,6159b2c05695adb2097e50a2,64ce5acb97489d65b14ecc7a,64cf4b30ad7a3c1f18514c4c,,,,,,,ctch,resources/DY.BMP,resources/DP.BMP,Door4,0.167391304,-0.042028986,1,0,0,0.832,optionRight,80,15405,7,24,0,24,0,1,,,,,,,,,,,,,,,,,,,,,,,,,,,,,,,,,,,,,,,
,,,,,,,,2023-08-06_08h27.03.329,HF_wild_card,2022.2.4,Win32,29.9940012,6159b2c05695adb2097e50a2,64ce5acb97489d65b14ecc7a,64cf4b30ad7a3c1f18514c4c,,,,,,,ctch,resources/DY.BMP,resources/DP.BMP,Door4,0.184782609,-0.04057971,1,0,0,0.817,optionRight,60,15465,7,25,0,25,0,1,,,,,,,,,,,,,,,,,,,,,,,,,,,,,,,,,,,,,,,
,,,,,,,,2023-08-06_08h27.03.329,HF_wild_card,2022.2.4,Win32,29.9940012,6159b2c05695adb2097e50a2,64ce5acb97489d65b14ecc7a,64cf4b30ad7a3c1f18514c4c,,,,,,,ctch,resources/DY.BMP,resources/DP.BMP,Door4,0.174637681,-0.068115942,1,0,0,0.815,optionRight,60,15525,7,26,0,26,0,1,,,,,,,,,,,,,,,,,,,,,,,,,,,,,,,,,,,,,,,
,,,,,,,,2023-08-06_08h27.03.329,HF_wild_card,2022.2.4,Win32,29.9940012,6159b2c05695adb2097e50a2,64ce5acb97489d65b14ecc7a,64cf4b30ad7a3c1f18514c4c,,,,,,,decisionTrl,resources/DBN.BMP,resources/DY.BMP,Door1,0.216666667,-0.024637681,1,0,0,0.966,optionRight,30,15555,7,27,0,27,0,1,,,,,,,,,,,,,,,,,,,,,,,,,,,,,,,,,,,,,,,
,,,,,,,,2023-08-06_08h27.03.329,HF_wild_card,2022.2.4,Win32,29.9940012,6159b2c05695adb2097e50a2,64ce5acb97489d65b14ecc7a,64cf4b30ad7a3c1f18514c4c,,,,,,,decisionTrl,resources/DP.BMP,resources/DR.BMP,Door3,0.187681159,-0.027536232,1,0,0,1.664,optionRight,70,15625,7,28,0,28,0,1,,,,,,,,,,,,,,,,,,,,,,,,,,,,,,,,,,,,,,,
,,,,,,,,2023-08-06_08h27.03.329,HF_wild_card,2022.2.4,Win32,29.9940012,6159b2c05695adb2097e50a2,64ce5acb97489d65b14ecc7a,64cf4b30ad7a3c1f18514c4c,,,,,,,decisionTrl,resources/DR.BMP,resources/DP.BMP,Door4,0.277536232,-0.066666667,1,0,0,1.27,optionRight,80,15705,7,29,0,29,0,1,,,,,,,,,,,,,,,,,,,,,,,,,,,,,,,,,,,,,,,
,,,,,,,,2023-08-06_08h27.03.329,HF_wild_card,2022.2.4,Win32,29.9940012,6159b2c05695adb2097e50a2,64ce5acb97489d65b14ecc7a,64cf4b30ad7a3c1f18514c4c,,,,,,,decisionTrl,resources/DY.BMP,resources/DBN.BMP,Door1,-0.286231884,-0.042028986,1,0,0,1.062,optionLeft,30,15735,7,30,0,30,0,1,,,,,,,,,,,,,,,,,,,,,,,,,,,,,,,,,,,,,,,
,,,,,,,,2023-08-06_08h27.03.329,HF_wild_card,2022.2.4,Win32,29.9940012,6159b2c05695adb2097e50a2,64ce5acb97489d65b14ecc7a,64cf4b30ad7a3c1f18514c4c,,,,,,,ctch,resources/DBN.BMP,resources/DR.BMP,Door3,0.294927536,-0.052173913,1,0,0,1.099,optionRight,70,15805,7,31,0,31,0,1,,,,,,,,,,,,,,,,,,,,,,,,,,,,,,,,,,,,,,,
,,,,,,,,2023-08-06_08h27.03.329,HF_wild_card,2022.2.4,Win32,29.9940012,6159b2c05695adb2097e50a2,64ce5acb97489d65b14ecc7a,64cf4b30ad7a3c1f18514c4c,,,,,,,decisionTrl,resources/DP.BMP,resources/DR.BMP,Door3,0.254347826,0.004347826,1,0,0,1.524,optionRight,70,15875,7,32,0,32,0,1,,,,,,,,,,,,,,,,,,,,,,,,,,,,,,,,,,,,,,,
,,,,,,,,2023-08-06_08h27.03.329,HF_wild_card,2022.2.4,Win32,29.9940012,6159b2c05695adb2097e50a2,64ce5acb97489d65b14ecc7a,64cf4b30ad7a3c1f18514c4c,,,,,,,ctch,resources/DR.BMP,resources/DBN.BMP,Door3,-0.310869565,-0.055072464,1,0,0,1.057,optionLeft,70,15945,7,33,0,33,0,1,,,,,,,,,,,,,,,,,,,,,,,,,,,,,,,,,,,,,,,
,,,,,,,,2023-08-06_08h27.03.329,HF_wild_card,2022.2.4,Win32,29.9940012,6159b2c05695adb2097e50a2,64ce5acb97489d65b14ecc7a,64cf4b30ad7a3c1f18514c4c,,,,,,,decisionTrl,resources/DR.BMP,resources/DP.BMP,Door4,0.381884058,-0.055072464,1,0,0,1.177,optionRight,80,16025,7,34,0,34,0,1,,,,,,,,,,,,,,,,,,,,,,,,,,,,,,,,,,,,,,,
,,,,,,,,2023-08-06_08h27.03.329,HF_wild_card,2022.2.4,Win32,29.9940012,6159b2c05695adb2097e50a2,64ce5acb97489d65b14ecc7a,64cf4b30ad7a3c1f18514c4c,,,,,,,decisionTrl,resources/DY.BMP,resources/DBN.BMP,Door1,-0.23115942,-0.079710145,1,0,0,0.861,optionLeft,30,16055,7,35,0,35,0,1,,,,,,,,,,,,,,,,,,,,,,,,,,,,,,,,,,,,,,,
,,,,,,,,2023-08-06_08h27.03.329,HF_wild_card,2022.2.4,Win32,29.9940012,6159b2c05695adb2097e50a2,64ce5acb97489d65b14ecc7a,64cf4b30ad7a3c1f18514c4c,,,,,,,,,,,,,,,,,,,,,,,,,,6,0,6,0,1,,,,,,,,,,,,,,,,,,,,,,,,,,,,,,,,,,
,,,,,,,,2023-08-06_08h27.03.329,HF_wild_card,2022.2.4,Win32,29.9940012,6159b2c05695adb2097e50a2,64ce5acb97489d65b14ecc7a,64cf4b30ad7a3c1f18514c4c,,,,,,,,,,,,,,,,,,,,,,,,,,,,,,,4,,,,,,,,,,,,,,,,,,,,,,,,,,,,,,,,,
,,,,,,,,2023-08-06_08h27.03.329,HF_wild_card,2022.2.4,Win32,29.9940012,6159b2c05695adb2097e50a2,64ce5acb97489d65b14ecc7a,64cf4b30ad7a3c1f18514c4c,,,,,,,,,,,,,,,,,,,,,,,,,,,,,,,,,,,,,,,,,,,,,,,,,,,,,,,,,,,,,,,,
,,,,,,,,2023-08-06_08h27.03.329,HF_wild_card,2022.2.4,Win32,29.9940012,6159b2c05695adb2097e50a2,64ce5acb97489d65b14ecc7a,64cf4b30ad7a3c1f18514c4c,,,,,,,,,,,,,,,,,,,,,,,,,,,,,,,,30,Door2,resources/DBN.BMP,0,0,0,0,1,,,,,,,,,,,,,,,,,,,,,,,,,
,,,,,,,,2023-08-06_08h27.03.329,HF_wild_card,2022.2.4,Win32,29.9940012,6159b2c05695adb2097e50a2,64ce5acb97489d65b14ecc7a,64cf4b30ad7a3c1f18514c4c,,,,,,,,,,,,,,,,,,,,,,,,,,,,,,,,95,WC_extreme,resources/DB.BMP,1,0,1,0,1,,,,,,,,,,,,,,,,,,,,,,,,,
,,,,,,,,2023-08-06_08h27.03.329,HF_wild_card,2022.2.4,Win32,29.9940012,6159b2c05695adb2097e50a2,64ce5acb97489d65b14ecc7a,64cf4b30ad7a3c1f18514c4c,,,,,,,,,,,,,,,,,,,,,,,,,,,,,,,,55,WC_nonExtreme,resources/DG.BMP,2,0,2,0,1,,,,,,,,,,,,,,,,,,,,,,,,,
,,,,,,,,2023-08-06_08h27.03.329,HF_wild_card,2022.2.4,Win32,29.9940012,6159b2c05695adb2097e50a2,64ce5acb97489d65b14ecc7a,64cf4b30ad7a3c1f18514c4c,,,,,,,,,,,,,,,,,,,,,,,,,,,,,,,,70,Door3,resources/DR.BMP,3,0,3,0,1,,,,,,,,,,,,,,,,,,,,,,,,,
,,,,,,,,2023-08-06_08h27.03.329,HF_wild_card,2022.2.4,Win32,29.9940012,6159b2c05695adb2097e50a2,64ce5acb97489d65b14ecc7a,64cf4b30ad7a3c1f18514c4c,,,,,,,,,,,,,,,,,,,,,,,,,,,,,,,,80,Door4,resources/DP.BMP,4,0,4,0,1,,,,,,,,,,,,,,,,,,,,,,,,,
,,,,,,,,2023-08-06_08h27.03.329,HF_wild_card,2022.2.4,Win32,29.9940012,6159b2c05695adb2097e50a2,64ce5acb97489d65b14ecc7a,64cf4b30ad7a3c1f18514c4c,,,,,,,,,,,,,,,,,,,,,,,,,,,,,,,,30,Door1,resources/DY.BMP,5,0,5,0,1,,,,,,,,,,,,,,,,,,,,,,,,,
,,,,,,,,2023-08-06_08h27.03.329,HF_wild_card,2022.2.4,Win32,29.9940012,6159b2c05695adb2097e50a2,64ce5acb97489d65b14ecc7a,64cf4b30ad7a3c1f18514c4c,,,,,,,,,,,,,,,,,,,,,,,,,,,,,,,,,,,,,,,,,,,,,,,,,,,,,,,,,,,,,,,,
,,,,,,,,2023-08-06_08h27.03.329,HF_wild_card,2022.2.4,Win32,29.9940012,6159b2c05695adb2097e50a2,64ce5acb97489d65b14ecc7a,64cf4b30ad7a3c1f18514c4c,,,,,,,,,,,,,,,,,,,,,,,,,,,,,,,,,,,,,,,,0,0,0,0,1,,,,,,,,,,,,,,,,,,,,
,,,,,,,,2023-08-06_08h27.03.329,HF_wild_card,2022.2.4,Win32,29.9940012,6159b2c05695adb2097e50a2,64ce5acb97489d65b14ecc7a,64cf4b30ad7a3c1f18514c4c,,,,,,,,,,,,,,,,,,,,,,,,,,,,,,,,,,,,,,,,1,0,1,0,1,,,,,,,,,,,,,,,,,,,,
