Condition,Low fixed image (Door1),Low risky image (Door2),High fixed image (Door3),High risky image (Door4),Extreme Wild Card,NonExtreme Wild Card,,date,expName,psychopyVersion,OS,frameRate,PROLIFIC_PID,STUDY_ID,SESSION_ID,mouse_2.x,mouse_2.y,mouse_2.leftButton,mouse_2.midButton,mouse_2.rightButton,mouse_2.clicked_name,Trial Type,Left Option Image,Right Option Image,Chosen Door,mouse.x,mouse.y,mouse.leftButton,mouse.midButton,mouse.rightButton,mouse.time,mouse.clicked_name,Feedback,Cumulative Reward,Block,trial.thisRepN,trial.thisTrialN,trial.thisN,trial.thisIndex,trial.ran,blocks.thisRepN,blocks.thisTrialN,blocks.thisN,blocks.thisIndex,blocks.ran,Money conversion,First Outcome Reported,Shown Door (First Outcome),Displayed Image (First Outcome),outcomes.thisRepN,outcomes.thisTrialN,outcomes.thisN,outcomes.thisIndex,outcomes.ran,judgments.thisRepN,judgments.thisTrialN,judgments.thisN,judgments.thisIndex,judgments.ran,freqMouse.x,freqMouse.y,freqMouse.leftButton,freqMouse.midButton,freqMouse.rightButton,freqMouse.clicked_name,FQJ for first outcome,FQJ for second outcome,Shown Door,Displayed Image,trials.thisRepN,trials.thisTrialN,trials.thisN,trials.thisIndex,trials.ran,judgBlock.thisRepN,judgBlock.thisTrialN,judgBlock.thisN,judgBlock.thisIndex,judgBlock.ran
1,resources/DP.BMP,resources/DBN.BMP,resources/DG.BMP,resources/DB.BMP,resources/DY.BMP,resources/DR.BMP,,2023-08-16_09h09.57.011,HF_wild_card,2022.2.4,MacIntel,59.99520038,597a088221db3a00014176c3,64d2fd46c836a06233681665,64dc7f8ade80fc8d131f2163,,,,,,,,,,,,,,,,,,,,,,,,,,,,,,,,,,,,,,,,,,,,,,,,,,,,,,,,,,,,,,,,
,,,,,,,,2023-08-16_09h09.57.011,HF_wild_card,2022.2.4,MacIntel,59.99520038,597a088221db3a00014176c3,64d2fd46c836a06233681665,64dc7f8ade80fc8d131f2163,-0.00500062,-0.416790675,1,0,0,agree,,,,,,,,,,,,,,,,,,,,,,,,,,,,,,,,,,,,,,,,,,,,,,,,,,,,,,,,,,
,,,,,,,,2023-08-16_09h09.57.011,HF_wild_card,2022.2.4,MacIntel,59.99520038,597a088221db3a00014176c3,64d2fd46c836a06233681665,64dc7f8ade80fc8d131f2163,,,,,,,,,,,,,,,,,,,,,,,,,,,,,,,,,,,,,,,,,,,,,,,,,,,,,,,,,,,,,,,,
,,,,,,,,2023-08-16_09h09.57.011,HF_wild_card,2022.2.4,MacIntel,59.99520038,597a088221db3a00014176c3,64d2fd46c836a06233681665,64dc7f8ade80fc8d131f2163,,,,,,,decisionTrl,resources/DP.BMP,resources/DBN.BMP,Door2,0.39671379,-0.078822545,1,0,0,1.0903,optionRight,40,40,1,0,0,0,0,1,,,,,,,,,,,,,,,,,,,,,,,,,,,,,,,,,,,,,,,
,,,,,,,,2023-08-16_09h09.57.011,HF_wild_card,2022.2.4,MacIntel,59.99520038,597a088221db3a00014176c3,64d2fd46c836a06233681665,64dc7f8ade80fc8d131f2163,,,,,,,decisionTrl,resources/DG.BMP,resources/DB.BMP,Door3,-0.279854911,-0.056959945,1,0,0,0.4809,optionLeft,70,110,1,1,0,1,0,1,,,,,,,,,,,,,,,,,,,,,,,,,,,,,,,,,,,,,,,
,,,,,,,,2023-08-16_09h09.57.011,HF_wild_card,2022.2.4,MacIntel,59.99520038,597a088221db3a00014176c3,64d2fd46c836a06233681665,64dc7f8ade80fc8d131f2163,,,,,,,sngl,resources/DR.BMP,resources/Empty.png,WildCard_NonEx,-0.306308904,0.002117436,1,0,0,0.4472,optionLeft,45,155,1,2,0,2,0,1,,,,,,,,,,,,,,,,,,,,,,,,,,,,,,,,,,,,,,,
,,,,,,,,2023-08-16_09h09.57.011,HF_wild_card,2022.2.4,MacIntel,59.99520038,597a088221db3a00014176c3,64d2fd46c836a06233681665,64dc7f8ade80fc8d131f2163,,,,,,,sngl,resources/DR.BMP,resources/Empty.png,WildCard_NonEx,-0.259610615,0.014716642,1,0,0,0.4979,optionLeft,55,210,1,3,0,3,0,1,,,,,,,,,,,,,,,,,,,,,,,,,,,,,,,,,,,,,,,
,,,,,,,,2023-08-16_09h09.57.011,HF_wild_card,2022.2.4,MacIntel,59.99520038,597a088221db3a00014176c3,64d2fd46c836a06233681665,64dc7f8ade80fc8d131f2163,,,,,,,sngl,resources/Empty.png,resources/DR.BMP,WildCard_NonEx,0.298660714,-0.008692956,1,0,0,0.481,optionRight,45,255,1,4,0,4,0,1,,,,,,,,,,,,,,,,,,,,,,,,,,,,,,,,,,,,,,,
,,,,,,,,2023-08-16_09h09.57.011,HF_wild_card,2022.2.4,MacIntel,59.99520038,597a088221db3a00014176c3,64d2fd46c836a06233681665,64dc7f8ade80fc8d131f2163,,,,,,,decisionTrl,resources/DG.BMP,resources/DB.BMP,Door3,-0.294435144,-0.009979539,1,0,0,0.5291,optionLeft,70,325,1,5,0,5,0,1,,,,,,,,,,,,,,,,,,,,,,,,,,,,,,,,,,,,,,,
,,,,,,,,2023-08-16_09h09.57.011,HF_wild_card,2022.2.4,MacIntel,59.99520038,597a088221db3a00014176c3,64d2fd46c836a06233681665,64dc7f8ade80fc8d131f2163,,,,,,,decisionTrl,resources/DBN.BMP,resources/DP.BMP,Door1,0.241579861,-0.041424851,1,0,0,0.6987,optionRight,30,355,1,6,0,6,0,1,,,,,,,,,,,,,,,,,,,,,,,,,,,,,,,,,,,,,,,
,,,,,,,,2023-08-16_09h09.57.011,HF_wild_card,2022.2.4,MacIntel,59.99520038,597a088221db3a00014176c3,64d2fd46c836a06233681665,64dc7f8ade80fc8d131f2163,,,,,,,decisionTrl,resources/DB.BMP,resources/DG.BMP,Door4,-0.236424231,0.006510417,1,0,0,0.8459,optionLeft,60,415,1,7,0,7,0,1,,,,,,,,,,,,,,,,,,,,,,,,,,,,,,,,,,,,,,,
,,,,,,,,2023-08-16_09h09.57.011,HF_wild_card,2022.2.4,MacIntel,59.99520038,597a088221db3a00014176c3,64d2fd46c836a06233681665,64dc7f8ade80fc8d131f2163,,,,,,,sngl,resources/DB.BMP,resources/Empty.png,Door4,-0.231826637,-0.011666047,1,0,0,0.5144,optionLeft,80,495,1,8,0,8,0,1,,,,,,,,,,,,,,,,,,,,,,,,,,,,,,,,,,,,,,,
,,,,,,,,2023-08-16_09h09.57.011,HF_wild_card,2022.2.4,MacIntel,59.99520038,597a088221db3a00014176c3,64d2fd46c836a06233681665,64dc7f8ade80fc8d131f2163,,,,,,,sngl,resources/DBN.BMP,resources/Empty.png,Door2,-0.257744296,0.009241691,1,0,0,0.4807,optionLeft,40,535,1,9,0,9,0,1,,,,,,,,,,,,,,,,,,,,,,,,,,,,,,,,,,,,,,,
,,,,,,,,2023-08-16_09h09.57.011,HF_wild_card,2022.2.4,MacIntel,59.99520038,597a088221db3a00014176c3,64d2fd46c836a06233681665,64dc7f8ade80fc8d131f2163,,,,,,,decisionTrl,resources/DBN.BMP,resources/DP.BMP,Door1,0.240135169,-0.02484499,1,0,0,0.4636,optionRight,30,565,1,10,0,10,0,1,,,,,,,,,,,,,,,,,,,,,,,,,,,,,,,,,,,,,,,
,,,,,,,,2023-08-16_09h09.57.011,HF_wild_card,2022.2.4,MacIntel,59.99520038,597a088221db3a00014176c3,64d2fd46c836a06233681665,64dc7f8ade80fc8d131f2163,,,,,,,sngl,resources/Empty.png,resources/DP.BMP,Door1,0.197913566,-0.016390749,1,0,0,0.6953,optionRight,30,595,1,11,0,11,0,1,,,,,,,,,,,,,,,,,,,,,,,,,,,,,,,,,,,,,,,
,,,,,,,,2023-08-16_09h09.57.011,HF_wild_card,2022.2.4,MacIntel,59.99520038,597a088221db3a00014176c3,64d2fd46c836a06233681665,64dc7f8ade80fc8d131f2163,,,,,,,ctch,resources/DB.BMP,resources/DP.BMP,Door4,-0.346853299,-0.010996404,1,0,0,0.4812,optionLeft,60,655,1,12,0,12,0,1,,,,,,,,,,,,,,,,,,,,,,,,,,,,,,,,,,,,,,,
,,,,,,,,2023-08-16_09h09.57.011,HF_wild_card,2022.2.4,MacIntel,59.99520038,597a088221db3a00014176c3,64d2fd46c836a06233681665,64dc7f8ade80fc8d131f2163,,,,,,,sngl,resources/DG.BMP,resources/Empty.png,Door3,-0.378853547,-0.003028894,1,0,0,0.4837,optionLeft,70,725,1,13,0,13,0,1,,,,,,,,,,,,,,,,,,,,,,,,,,,,,,,,,,,,,,,
,,,,,,,,2023-08-16_09h09.57.011,HF_wild_card,2022.2.4,MacIntel,59.99520038,597a088221db3a00014176c3,64d2fd46c836a06233681665,64dc7f8ade80fc8d131f2163,,,,,,,sngl,resources/Empty.png,resources/DBN.BMP,Door2,0.293694196,-0.023530506,1,0,0,0.5141,optionRight,20,745,1,14,0,14,0,1,,,,,,,,,,,,,,,,,,,,,,,,,,,,,,,,,,,,,,,
,,,,,,,,2023-08-16_09h09.57.011,HF_wild_card,2022.2.4,MacIntel,59.99520038,597a088221db3a00014176c3,64d2fd46c836a06233681665,64dc7f8ade80fc8d131f2163,,,,,,,ctch,resources/DG.BMP,resources/DBN.BMP,Door3,-0.284784226,0.020138889,1,0,0,0.5169,optionLeft,70,815,1,15,0,15,0,1,,,,,,,,,,,,,,,,,,,,,,,,,,,,,,,,,,,,,,,
,,,,,,,,2023-08-16_09h09.57.011,HF_wild_card,2022.2.4,MacIntel,59.99520038,597a088221db3a00014176c3,64d2fd46c836a06233681665,64dc7f8ade80fc8d131f2163,,,,,,,decisionTrl,resources/DG.BMP,resources/DB.BMP,Door3,-0.24922495,0.012720114,1,0,0,0.5326,optionLeft,70,885,1,16,0,16,0,1,,,,,,,,,,,,,,,,,,,,,,,,,,,,,,,,,,,,,,,
,,,,,,,,2023-08-16_09h09.57.011,HF_wild_card,2022.2.4,MacIntel,59.99520038,597a088221db3a00014176c3,64d2fd46c836a06233681665,64dc7f8ade80fc8d131f2163,,,,,,,decisionTrl,resources/DB.BMP,resources/DR.BMP,Door4,-0.196781994,0.004172867,1,0,0,0.7941,optionLeft,60,945,1,17,0,17,0,1,,,,,,,,,,,,,,,,,,,,,,,,,,,,,,,,,,,,,,,
,,,,,,,,2023-08-16_09h09.57.011,HF_wild_card,2022.2.4,MacIntel,59.99520038,597a088221db3a00014176c3,64d2fd46c836a06233681665,64dc7f8ade80fc8d131f2163,,,,,,,decisionTrl,resources/DR.BMP,resources/DG.BMP,Door3,0.316378348,0.008993676,1,0,0,0.6801,optionRight,70,1015,1,18,0,18,0,1,,,,,,,,,,,,,,,,,,,,,,,,,,,,,,,,,,,,,,,
,,,,,,,,2023-08-16_09h09.57.011,HF_wild_card,2022.2.4,MacIntel,59.99520038,597a088221db3a00014176c3,64d2fd46c836a06233681665,64dc7f8ade80fc8d131f2163,,,,,,,ctch,resources/DG.BMP,resources/DBN.BMP,Door3,-0.193405878,-0.00406436,1,0,0,0.5121,optionLeft,70,1085,1,19,0,19,0,1,,,,,,,,,,,,,,,,,,,,,,,,,,,,,,,,,,,,,,,
,,,,,,,,2023-08-16_09h09.57.011,HF_wild_card,2022.2.4,MacIntel,59.99520038,597a088221db3a00014176c3,64d2fd46c836a06233681665,64dc7f8ade80fc8d131f2163,,,,,,,sngl,resources/DP.BMP,resources/Empty.png,Door1,-0.265076265,-0.01828807,1,0,0,1.1289,optionLeft,30,1115,1,20,0,20,0,1,,,,,,,,,,,,,,,,,,,,,,,,,,,,,,,,,,,,,,,
,,,,,,,,2023-08-16_09h09.57.011,HF_wild_card,2022.2.4,MacIntel,59.99520038,597a088221db3a00014176c3,64d2fd46c836a06233681665,64dc7f8ade80fc8d131f2163,,,,,,,decisionTrl,resources/DB.BMP,resources/DG.BMP,Door3,0.290073165,-0.000728547,1,0,0,0.8141,optionRight,70,1185,1,21,0,21,0,1,,,,,,,,,,,,,,,,,,,,,,,,,,,,,,,,,,,,,,,
,,,,,,,,2023-08-16_09h09.57.011,HF_wild_card,2022.2.4,MacIntel,59.99520038,597a088221db3a00014176c3,64d2fd46c836a06233681665,64dc7f8ade80fc8d131f2163,,,,,,,ctch,resources/DP.BMP,resources/DB.BMP,Door1,-0.258516245,0.000254216,1,0,0,0.6505,optionLeft,30,1215,1,22,0,22,0,1,,,,,,,,,,,,,,,,,,,,,,,,,,,,,,,,,,,,,,,
,,,,,,,,2023-08-16_09h09.57.011,HF_wild_card,2022.2.4,MacIntel,59.99520038,597a088221db3a00014176c3,64d2fd46c836a06233681665,64dc7f8ade80fc8d131f2163,,,,,,,decisionTrl,resources/DR.BMP,resources/DB.BMP,Door4,0.255233135,-0.01484065,1,0,0,0.4793,optionRight,80,1295,1,23,0,23,0,1,,,,,,,,,,,,,,,,,,,,,,,,,,,,,,,,,,,,,,,
,,,,,,,,2023-08-16_09h09.57.011,HF_wild_card,2022.2.4,MacIntel,59.99520038,597a088221db3a00014176c3,64d2fd46c836a06233681665,64dc7f8ade80fc8d131f2163,,,,,,,decisionTrl,resources/DP.BMP,resources/DR.BMP,Door1,-0.265609499,-0.009012277,1,0,0,0.7464,optionLeft,30,1325,1,24,0,24,0,1,,,,,,,,,,,,,,,,,,,,,,,,,,,,,,,,,,,,,,,
,,,,,,,,2023-08-16_09h09.57.011,HF_wild_card,2022.2.4,MacIntel,59.99520038,597a088221db3a00014176c3,64d2fd46c836a06233681665,64dc7f8ade80fc8d131f2163,,,,,,,ctch,resources/DBN.BMP,resources/DG.BMP,Door2,-0.24312376,-0.013355655,1,0,0,0.6609,optionLeft,20,1345,1,25,0,25,0,1,,,,,,,,,,,,,,,,,,,,,,,,,,,,,,,,,,,,,,,
,,,,,,,,2023-08-16_09h09.57.011,HF_wild_card,2022.2.4,MacIntel,59.99520038,597a088221db3a00014176c3,64d2fd46c836a06233681665,64dc7f8ade80fc8d131f2163,,,,,,,decisionTrl,resources/DP.BMP,resources/DBN.BMP,Door1,-0.283937872,-0.003493924,1,0,0,0.9642,optionLeft,30,1375,1,26,0,26,0,1,,,,,,,,,,,,,,,,,,,,,,,,,,,,,,,,,,,,,,,
,,,,,,,,2023-08-16_09h09.57.011,HF_wild_card,2022.2.4,MacIntel,59.99520038,597a088221db3a00014176c3,64d2fd46c836a06233681665,64dc7f8ade80fc8d131f2163,,,,,,,sngl,resources/Empty.png,resources/DR.BMP,WildCard_NonEx,0.244407242,-0.022987971,1,0,0,0.6976,optionRight,55,1430,1,27,0,27,0,1,,,,,,,,,,,,,,,,,,,,,,,,,,,,,,,,,,,,,,,
,,,,,,,,2023-08-16_09h09.57.011,HF_wild_card,2022.2.4,MacIntel,59.99520038,597a088221db3a00014176c3,64d2fd46c836a06233681665,64dc7f8ade80fc8d131f2163,,,,,,,decisionTrl,resources/DBN.BMP,resources/DP.BMP,Door1,0.330137029,-0.012605407,1,0,0,0.8799,optionRight,30,1460,1,28,0,28,0,1,,,,,,,,,,,,,,,,,,,,,,,,,,,,,,,,,,,,,,,
,,,,,,,,2023-08-16_09h09.57.011,HF_wild_card,2022.2.4,MacIntel,59.99520038,597a088221db3a00014176c3,64d2fd46c836a06233681665,64dc7f8ade80fc8d131f2163,,,,,,,ctch,resources/DP.BMP,resources/DB.BMP,Door4,0.170653522,-0.001258681,1,0,0,0.9807,optionRight,60,1520,1,29,0,29,0,1,,,,,,,,,,,,,,,,,,,,,,,,,,,,,,,,,,,,,,,
,,,,,,,,2023-08-16_09h09.57.011,HF_wild_card,2022.2.4,MacIntel,59.99520038,597a088221db3a00014176c3,64d2fd46c836a06233681665,64dc7f8ade80fc8d131f2163,,,,,,,decisionTrl,resources/DB.BMP,resources/DG.BMP,Door3,0.33484933,-0.018808904,1,0,0,0.6966,optionRight,70,1590,1,30,0,30,0,1,,,,,,,,,,,,,,,,,,,,,,,,,,,,,,,,,,,,,,,
,,,,,,,,2023-08-16_09h09.57.011,HF_wild_card,2022.2.4,MacIntel,59.99520038,597a088221db3a00014176c3,64d2fd46c836a06233681665,64dc7f8ade80fc8d131f2163,,,,,,,sngl,resources/Empty.png,resources/DG.BMP,Door3,0.305009921,-0.023173983,1,0,0,0.6646,optionRight,70,1660,1,31,0,31,0,1,,,,,,,,,,,,,,,,,,,,,,,,,,,,,,,,,,,,,,,
,,,,,,,,2023-08-16_09h09.57.011,HF_wild_card,2022.2.4,MacIntel,59.99520038,597a088221db3a00014176c3,64d2fd46c836a06233681665,64dc7f8ade80fc8d131f2163,,,,,,,decisionTrl,resources/DBN.BMP,resources/DP.BMP,Door1,0.362710813,-0.019645957,1,0,0,0.9148,optionRight,30,1690,1,32,0,32,0,1,,,,,,,,,,,,,,,,,,,,,,,,,,,,,,,,,,,,,,,
,,,,,,,,2023-08-16_09h09.57.011,HF_wild_card,2022.2.4,MacIntel,59.99520038,597a088221db3a00014176c3,64d2fd46c836a06233681665,64dc7f8ade80fc8d131f2163,,,,,,,decisionTrl,resources/DP.BMP,resources/DBN.BMP,Door1,-0.297891865,0.004929315,1,0,0,0.8809,optionLeft,30,1720,1,33,0,33,0,1,,,,,,,,,,,,,,,,,,,,,,,,,,,,,,,,,,,,,,,
,,,,,,,,2023-08-16_09h09.57.011,HF_wild_card,2022.2.4,MacIntel,59.99520038,597a088221db3a00014176c3,64d2fd46c836a06233681665,64dc7f8ade80fc8d131f2163,,,,,,,decisionTrl,resources/DG.BMP,resources/DR.BMP,WildCard_NonEx,0.255124628,-0.03218316,1,0,0,0.7314,optionRight,45,1765,1,34,0,34,0,1,,,,,,,,,,,,,,,,,,,,,,,,,,,,,,,,,,,,,,,
,,,,,,,,2023-08-16_09h09.57.011,HF_wild_card,2022.2.4,MacIntel,59.99520038,597a088221db3a00014176c3,64d2fd46c836a06233681665,64dc7f8ade80fc8d131f2163,,,,,,,decisionTrl,resources/DP.BMP,resources/DBN.BMP,Door1,-0.243207465,0.001333085,1,0,0,0.7969,optionLeft,30,1795,1,35,0,35,0,1,,,,,,,,,,,,,,,,,,,,,,,,,,,,,,,,,,,,,,,
,,,,,,,,2023-08-16_09h09.57.011,HF_wild_card,2022.2.4,MacIntel,59.99520038,597a088221db3a00014176c3,64d2fd46c836a06233681665,64dc7f8ade80fc8d131f2163,,,,,,,decisionTrl,resources/DR.BMP,resources/DP.BMP,WildCard_NonEx,-0.298183284,-0.001453993,1,0,0,0.5838,optionLeft,45,1840,1,36,0,36,0,1,,,,,,,,,,,,,,,,,,,,,,,,,,,,,,,,,,,,,,,
,,,,,,,,2023-08-16_09h09.57.011,HF_wild_card,2022.2.4,MacIntel,59.99520038,597a088221db3a00014176c3,64d2fd46c836a06233681665,64dc7f8ade80fc8d131f2163,,,,,,,ctch,resources/DBN.BMP,resources/DG.BMP,Door3,0.230518353,-0.041728671,1,0,0,1.165,optionRight,70,1910,1,37,0,37,0,1,,,,,,,,,,,,,,,,,,,,,,,,,,,,,,,,,,,,,,,
,,,,,,,,2023-08-16_09h09.57.011,HF_wild_card,2022.2.4,MacIntel,59.99520038,597a088221db3a00014176c3,64d2fd46c836a06233681665,64dc7f8ade80fc8d131f2163,,,,,,,decisionTrl,resources/DB.BMP,resources/DG.BMP,Door4,-0.253816344,0.006938244,1,0,0,0.7161,optionLeft,80,1990,1,38,0,38,0,1,,,,,,,,,,,,,,,,,,,,,,,,,,,,,,,,,,,,,,,
,,,,,,,,2023-08-16_09h09.57.011,HF_wild_card,2022.2.4,MacIntel,59.99520038,597a088221db3a00014176c3,64d2fd46c836a06233681665,64dc7f8ade80fc8d131f2163,,,,,,,decisionTrl,resources/DG.BMP,resources/DB.BMP,Door4,0.306380208,-0.024745784,1,0,0,0.5138,optionRight,80,2070,1,39,0,39,0,1,,,,,,,,,,,,,,,,,,,,,,,,,,,,,,,,,,,,,,,
,,,,,,,,2023-08-16_09h09.57.011,HF_wild_card,2022.2.4,MacIntel,59.99520038,597a088221db3a00014176c3,64d2fd46c836a06233681665,64dc7f8ade80fc8d131f2163,,,,,,,sngl,resources/Empty.png,resources/DB.BMP,Door4,0.194627356,-0.012890625,1,0,0,0.4975,optionRight,60,2130,1,40,0,40,0,1,,,,,,,,,,,,,,,,,,,,,,,,,,,,,,,,,,,,,,,
,,,,,,,,2023-08-16_09h09.57.011,HF_wild_card,2022.2.4,MacIntel,59.99520038,597a088221db3a00014176c3,64d2fd46c836a06233681665,64dc7f8ade80fc8d131f2163,,,,,,,decisionTrl,resources/DR.BMP,resources/DBN.BMP,WildCard_NonEx,-0.24546131,0.002830481,1,0,0,0.9518,optionLeft,45,2175,1,41,0,41,0,1,,,,,,,,,,,,,,,,,,,,,,,,,,,,,,,,,,,,,,,
,,,,,,,,2023-08-16_09h09.57.011,HF_wild_card,2022.2.4,MacIntel,59.99520038,597a088221db3a00014176c3,64d2fd46c836a06233681665,64dc7f8ade80fc8d131f2163,,,,,,,ctch,resources/DB.BMP,resources/DP.BMP,Door4,-0.229718502,0.004768105,1,0,0,1.0301,optionLeft,60,2235,1,42,0,42,0,1,,,,,,,,,,,,,,,,,,,,,,,,,,,,,,,,,,,,,,,
,,,,,,,,2023-08-16_09h09.57.011,HF_wild_card,2022.2.4,MacIntel,59.99520038,597a088221db3a00014176c3,64d2fd46c836a06233681665,64dc7f8ade80fc8d131f2163,,,,,,,decisionTrl,resources/DBN.BMP,resources/DR.BMP,WildCard_NonEx,0.257942708,-0.040925719,1,0,0,0.8953,optionRight,55,2290,1,43,0,43,0,1,,,,,,,,,,,,,,,,,,,,,,,,,,,,,,,,,,,,,,,
,,,,,,,,2023-08-16_09h09.57.011,HF_wild_card,2022.2.4,MacIntel,59.99520038,597a088221db3a00014176c3,64d2fd46c836a06233681665,64dc7f8ade80fc8d131f2163,,,,,,,,,,,,,,,,,,,,,,,,,,0,0,0,0,1,,,,,,,,,,,,,,,,,,,,,,,,,,,,,,,,,,
,,,,,,,,2023-08-16_09h09.57.011,HF_wild_card,2022.2.4,MacIntel,59.99520038,597a088221db3a00014176c3,64d2fd46c836a06233681665,64dc7f8ade80fc8d131f2163,,,,,,,sngl,resources/Empty.png,resources/DP.BMP,Door1,0.256160094,-0.145755828,1,0,0,0.7346,optionRight,30,2320,2,0,0,0,0,1,,,,,,,,,,,,,,,,,,,,,,,,,,,,,,,,,,,,,,,
,,,,,,,,2023-08-16_09h09.57.011,HF_wild_card,2022.2.4,MacIntel,59.99520038,597a088221db3a00014176c3,64d2fd46c836a06233681665,64dc7f8ade80fc8d131f2163,,,,,,,sngl,resources/DR.BMP,resources/Empty.png,WildCard_NonEx,-0.18031994,-0.003794643,1,0,0,0.4514,optionLeft,55,2375,2,1,0,1,0,1,,,,,,,,,,,,,,,,,,,,,,,,,,,,,,,,,,,,,,,
,,,,,,,,2023-08-16_09h09.57.011,HF_wild_card,2022.2.4,MacIntel,59.99520038,597a088221db3a00014176c3,64d2fd46c836a06233681665,64dc7f8ade80fc8d131f2163,,,,,,,decisionTrl,resources/DP.BMP,resources/DBN.BMP,Door2,0.169301835,-0.018818204,1,0,0,0.7174,optionRight,20,2395,2,2,0,2,0,1,,,,,,,,,,,,,,,,,,,,,,,,,,,,,,,,,,,,,,,
,,,,,,,,2023-08-16_09h09.57.011,HF_wild_card,2022.2.4,MacIntel,59.99520038,597a088221db3a00014176c3,64d2fd46c836a06233681665,64dc7f8ade80fc8d131f2163,,,,,,,decisionTrl,resources/DBN.BMP,resources/DP.BMP,Door2,-0.240916419,-0.003735739,1,0,0,0.5131,optionLeft,20,2415,2,3,0,3,0,1,,,,,,,,,,,,,,,,,,,,,,,,,,,,,,,,,,,,,,,
,,,,,,,,2023-08-16_09h09.57.011,HF_wild_card,2022.2.4,MacIntel,59.99520038,597a088221db3a00014176c3,64d2fd46c836a06233681665,64dc7f8ade80fc8d131f2163,,,,,,,decisionTrl,resources/DBN.BMP,resources/DP.BMP,Door1,0.247284226,-0.030146329,1,0,0,0.7637,optionRight,30,2445,2,4,0,4,0,1,,,,,,,,,,,,,,,,,,,,,,,,,,,,,,,,,,,,,,,
,,,,,,,,2023-08-16_09h09.57.011,HF_wild_card,2022.2.4,MacIntel,59.99520038,597a088221db3a00014176c3,64d2fd46c836a06233681665,64dc7f8ade80fc8d131f2163,,,,,,,decisionTrl,resources/DG.BMP,resources/DB.BMP,Door4,0.300849454,-0.037636409,1,0,0,0.8642,optionRight,60,2505,2,5,0,5,0,1,,,,,,,,,,,,,,,,,,,,,,,,,,,,,,,,,,,,,,,
,,,,,,,,2023-08-16_09h09.57.011,HF_wild_card,2022.2.4,MacIntel,59.99520038,597a088221db3a00014176c3,64d2fd46c836a06233681665,64dc7f8ade80fc8d131f2163,,,,,,,decisionTrl,resources/DP.BMP,resources/DR.BMP,WildCard_NonEx,0.250077505,-0.031839038,1,0,0,1.1618,optionRight,45,2550,2,6,0,6,0,1,,,,,,,,,,,,,,,,,,,,,,,,,,,,,,,,,,,,,,,
,,,,,,,,2023-08-16_09h09.57.011,HF_wild_card,2022.2.4,MacIntel,59.99520038,597a088221db3a00014176c3,64d2fd46c836a06233681665,64dc7f8ade80fc8d131f2163,,,,,,,sngl,resources/Empty.png,resources/DB.BMP,Door4,0.276078869,-0.02625248,1,0,0,0.744,optionRight,80,2630,2,7,0,7,0,1,,,,,,,,,,,,,,,,,,,,,,,,,,,,,,,,,,,,,,,
,,,,,,,,2023-08-16_09h09.57.011,HF_wild_card,2022.2.4,MacIntel,59.99520038,597a088221db3a00014176c3,64d2fd46c836a06233681665,64dc7f8ade80fc8d131f2163,,,,,,,ctch,resources/DBN.BMP,resources/DG.BMP,Door3,0.417782738,-0.047175719,1,0,0,0.9614,optionRight,70,2700,2,8,0,8,0,1,,,,,,,,,,,,,,,,,,,,,,,,,,,,,,,,,,,,,,,
,,,,,,,,2023-08-16_09h09.57.011,HF_wild_card,2022.2.4,MacIntel,59.99520038,597a088221db3a00014176c3,64d2fd46c836a06233681665,64dc7f8ade80fc8d131f2163,,,,,,,decisionTrl,resources/DR.BMP,resources/DB.BMP,Door4,0.292612227,-0.047423735,1,0,0,1.6456,optionRight,80,2780,2,9,0,9,0,1,,,,,,,,,,,,,,,,,,,,,,,,,,,,,,,,,,,,,,,
,,,,,,,,2023-08-16_09h09.57.011,HF_wild_card,2022.2.4,MacIntel,59.99520038,597a088221db3a00014176c3,64d2fd46c836a06233681665,64dc7f8ade80fc8d131f2163,,,,,,,sngl,resources/DR.BMP,resources/Empty.png,WildCard_NonEx,-0.262428695,0.003345114,1,0,0,0.5814,optionLeft,45,2825,2,10,0,10,0,1,,,,,,,,,,,,,,,,,,,,,,,,,,,,,,,,,,,,,,,
,,,,,,,,2023-08-16_09h09.57.011,HF_wild_card,2022.2.4,MacIntel,59.99520038,597a088221db3a00014176c3,64d2fd46c836a06233681665,64dc7f8ade80fc8d131f2163,,,,,,,ctch,resources/DBN.BMP,resources/DG.BMP,Door2,-0.296729291,0.014772445,1,0,0,1.6287,optionLeft,20,2845,2,11,0,11,0,1,,,,,,,,,,,,,,,,,,,,,,,,,,,,,,,,,,,,,,,
,,,,,,,,2023-08-16_09h09.57.011,HF_wild_card,2022.2.4,MacIntel,59.99520038,597a088221db3a00014176c3,64d2fd46c836a06233681665,64dc7f8ade80fc8d131f2163,,,,,,,decisionTrl,resources/DR.BMP,resources/DG.BMP,Door3,0.241477555,-0.016815476,1,0,0,0.6655,optionRight,70,2915,2,12,0,12,0,1,,,,,,,,,,,,,,,,,,,,,,,,,,,,,,,,,,,,,,,
,,,,,,,,2023-08-16_09h09.57.011,HF_wild_card,2022.2.4,MacIntel,59.99520038,597a088221db3a00014176c3,64d2fd46c836a06233681665,64dc7f8ade80fc8d131f2163,,,,,,,decisionTrl,resources/DG.BMP,resources/DB.BMP,Door3,-0.284192088,0.026748512,1,0,0,0.5824,optionLeft,70,2985,2,13,0,13,0,1,,,,,,,,,,,,,,,,,,,,,,,,,,,,,,,,,,,,,,,
,,,,,,,,2023-08-16_09h09.57.011,HF_wild_card,2022.2.4,MacIntel,59.99520038,597a088221db3a00014176c3,64d2fd46c836a06233681665,64dc7f8ade80fc8d131f2163,,,,,,,ctch,resources/DP.BMP,resources/DB.BMP,Door4,0.336259921,-0.075771949,1,0,0,1.4317,optionRight,60,3045,2,14,0,14,0,1,,,,,,,,,,,,,,,,,,,,,,,,,,,,,,,,,,,,,,,
,,,,,,,,2023-08-16_09h09.57.011,HF_wild_card,2022.2.4,MacIntel,59.99520038,597a088221db3a00014176c3,64d2fd46c836a06233681665,64dc7f8ade80fc8d131f2163,,,,,,,sngl,resources/DG.BMP,resources/Empty.png,Door3,-0.238414559,0.007273065,1,0,0,0.4989,optionLeft,70,3115,2,15,0,15,0,1,,,,,,,,,,,,,,,,,,,,,,,,,,,,,,,,,,,,,,,
,,,,,,,,2023-08-16_09h09.57.011,HF_wild_card,2022.2.4,MacIntel,59.99520038,597a088221db3a00014176c3,64d2fd46c836a06233681665,64dc7f8ade80fc8d131f2163,,,,,,,ctch,resources/DB.BMP,resources/DP.BMP,Door4,-0.242903646,0.022597346,1,0,0,0.7665,optionLeft,80,3195,2,16,0,16,0,1,,,,,,,,,,,,,,,,,,,,,,,,,,,,,,,,,,,,,,,
,,,,,,,,2023-08-16_09h09.57.011,HF_wild_card,2022.2.4,MacIntel,59.99520038,597a088221db3a00014176c3,64d2fd46c836a06233681665,64dc7f8ade80fc8d131f2163,,,,,,,ctch,resources/DG.BMP,resources/DBN.BMP,Door3,-0.225545635,0.014760045,1,0,0,0.9785,optionLeft,70,3265,2,17,0,17,0,1,,,,,,,,,,,,,,,,,,,,,,,,,,,,,,,,,,,,,,,
,,,,,,,,2023-08-16_09h09.57.011,HF_wild_card,2022.2.4,MacIntel,59.99520038,597a088221db3a00014176c3,64d2fd46c836a06233681665,64dc7f8ade80fc8d131f2163,,,,,,,decisionTrl,resources/DB.BMP,resources/DR.BMP,Door4,-0.230527654,0.015904018,1,0,0,0.6003,optionLeft,80,3345,2,18,0,18,0,1,,,,,,,,,,,,,,,,,,,,,,,,,,,,,,,,,,,,,,,
,,,,,,,,2023-08-16_09h09.57.011,HF_wild_card,2022.2.4,MacIntel,59.99520038,597a088221db3a00014176c3,64d2fd46c836a06233681665,64dc7f8ade80fc8d131f2163,,,,,,,sngl,resources/DBN.BMP,resources/Empty.png,Door2,-0.312605407,0.027480159,1,0,0,1.0812,optionLeft,20,3365,2,19,0,19,0,1,,,,,,,,,,,,,,,,,,,,,,,,,,,,,,,,,,,,,,,
,,,,,,,,2023-08-16_09h09.57.011,HF_wild_card,2022.2.4,MacIntel,59.99520038,597a088221db3a00014176c3,64d2fd46c836a06233681665,64dc7f8ade80fc8d131f2163,,,,,,,decisionTrl,resources/DB.BMP,resources/DG.BMP,Door4,-0.369605655,0.025031002,1,0,0,0.6311,optionLeft,80,3445,2,20,0,20,0,1,,,,,,,,,,,,,,,,,,,,,,,,,,,,,,,,,,,,,,,
,,,,,,,,2023-08-16_09h09.57.011,HF_wild_card,2022.2.4,MacIntel,59.99520038,597a088221db3a00014176c3,64d2fd46c836a06233681665,64dc7f8ade80fc8d131f2163,,,,,,,decisionTrl,resources/DG.BMP,resources/DB.BMP,Door4,0.269794767,-0.01421751,1,0,0,0.7175,optionRight,60,3505,2,21,0,21,0,1,,,,,,,,,,,,,,,,,,,,,,,,,,,,,,,,,,,,,,,
,,,,,,,,2023-08-16_09h09.57.011,HF_wild_card,2022.2.4,MacIntel,59.99520038,597a088221db3a00014176c3,64d2fd46c836a06233681665,64dc7f8ade80fc8d131f2163,,,,,,,ctch,resources/DB.BMP,resources/DP.BMP,Door4,-0.227232143,0.020017981,1,0,0,1.4471,optionLeft,80,3585,2,22,0,22,0,1,,,,,,,,,,,,,,,,,,,,,,,,,,,,,,,,,,,,,,,
,,,,,,,,2023-08-16_09h09.57.011,HF_wild_card,2022.2.4,MacIntel,59.99520038,597a088221db3a00014176c3,64d2fd46c836a06233681665,64dc7f8ade80fc8d131f2163,,,,,,,sngl,resources/Empty.png,resources/DR.BMP,WildCard_NonEx,0.213836186,-0.016493056,1,0,0,0.7984,optionRight,55,3640,2,23,0,23,0,1,,,,,,,,,,,,,,,,,,,,,,,,,,,,,,,,,,,,,,,
,,,,,,,,2023-08-16_09h09.57.011,HF_wild_card,2022.2.4,MacIntel,59.99520038,597a088221db3a00014176c3,64d2fd46c836a06233681665,64dc7f8ade80fc8d131f2163,,,,,,,decisionTrl,resources/DP.BMP,resources/DBN.BMP,Door1,-0.223040675,0.014639137,1,0,0,0.9125,optionLeft,30,3670,2,24,0,24,0,1,,,,,,,,,,,,,,,,,,,,,,,,,,,,,,,,,,,,,,,
,,,,,,,,2023-08-16_09h09.57.011,HF_wild_card,2022.2.4,MacIntel,59.99520038,597a088221db3a00014176c3,64d2fd46c836a06233681665,64dc7f8ade80fc8d131f2163,,,,,,,decisionTrl,resources/DR.BMP,resources/DP.BMP,Door1,0.210187252,-0.030977183,1,0,0,0.9144,optionRight,30,3700,2,25,0,25,0,1,,,,,,,,,,,,,,,,,,,,,,,,,,,,,,,,,,,,,,,
,,,,,,,,2023-08-16_09h09.57.011,HF_wild_card,2022.2.4,MacIntel,59.99520038,597a088221db3a00014176c3,64d2fd46c836a06233681665,64dc7f8ade80fc8d131f2163,,,,,,,decisionTrl,resources/DB.BMP,resources/DG.BMP,Door4,-0.237155878,0.006305804,1,0,0,0.8285,optionLeft,60,3760,2,26,0,26,0,1,,,,,,,,,,,,,,,,,,,,,,,,,,,,,,,,,,,,,,,
,,,,,,,,2023-08-16_09h09.57.011,HF_wild_card,2022.2.4,MacIntel,59.99520038,597a088221db3a00014176c3,64d2fd46c836a06233681665,64dc7f8ade80fc8d131f2163,,,,,,,ctch,resources/DG.BMP,resources/DBN.BMP,Door3,-0.242637029,0.015361483,1,0,0,0.7309,optionLeft,70,3830,2,27,0,27,0,1,,,,,,,,,,,,,,,,,,,,,,,,,,,,,,,,,,,,,,,
,,,,,,,,2023-08-16_09h09.57.011,HF_wild_card,2022.2.4,MacIntel,59.99520038,597a088221db3a00014176c3,64d2fd46c836a06233681665,64dc7f8ade80fc8d131f2163,,,,,,,decisionTrl,resources/DP.BMP,resources/DBN.BMP,Door1,-0.212143477,0.014750744,1,0,0,1.2815,optionLeft,30,3860,2,28,0,28,0,1,,,,,,,,,,,,,,,,,,,,,,,,,,,,,,,,,,,,,,,
,,,,,,,,2023-08-16_09h09.57.011,HF_wild_card,2022.2.4,MacIntel,59.99520038,597a088221db3a00014176c3,64d2fd46c836a06233681665,64dc7f8ade80fc8d131f2163,,,,,,,decisionTrl,resources/DBN.BMP,resources/DR.BMP,WildCard_NonEx,0.243585689,-0.022646949,1,0,0,0.6828,optionRight,45,3905,2,29,0,29,0,1,,,,,,,,,,,,,,,,,,,,,,,,,,,,,,,,,,,,,,,
,,,,,,,,2023-08-16_09h09.57.011,HF_wild_card,2022.2.4,MacIntel,59.99520038,597a088221db3a00014176c3,64d2fd46c836a06233681665,64dc7f8ade80fc8d131f2163,,,,,,,decisionTrl,resources/DR.BMP,resources/DBN.BMP,WildCard_NonEx,-0.226323785,0.004442584,1,0,0,0.6792,optionLeft,55,3960,2,30,0,30,0,1,,,,,,,,,,,,,,,,,,,,,,,,,,,,,,,,,,,,,,,
,,,,,,,,2023-08-16_09h09.57.011,HF_wild_card,2022.2.4,MacIntel,59.99520038,597a088221db3a00014176c3,64d2fd46c836a06233681665,64dc7f8ade80fc8d131f2163,,,,,,,decisionTrl,resources/DB.BMP,resources/DG.BMP,Door4,-0.265488591,0.016607763,1,0,0,0.7811,optionLeft,80,4040,2,31,0,31,0,1,,,,,,,,,,,,,,,,,,,,,,,,,,,,,,,,,,,,,,,
,,,,,,,,2023-08-16_09h09.57.011,HF_wild_card,2022.2.4,MacIntel,59.99520038,597a088221db3a00014176c3,64d2fd46c836a06233681665,64dc7f8ade80fc8d131f2163,,,,,,,sngl,resources/DP.BMP,resources/Empty.png,Door1,-0.36531808,0.043576389,1,0,0,0.6166,optionLeft,30,4070,2,32,0,32,0,1,,,,,,,,,,,,,,,,,,,,,,,,,,,,,,,,,,,,,,,
,,,,,,,,2023-08-16_09h09.57.011,HF_wild_card,2022.2.4,MacIntel,59.99520038,597a088221db3a00014176c3,64d2fd46c836a06233681665,64dc7f8ade80fc8d131f2163,,,,,,,decisionTrl,resources/DB.BMP,resources/DG.BMP,Door4,-0.234359499,0.02734685,1,0,0,0.9012,optionLeft,80,4150,2,33,0,33,0,1,,,,,,,,,,,,,,,,,,,,,,,,,,,,,,,,,,,,,,,
,,,,,,,,2023-08-16_09h09.57.011,HF_wild_card,2022.2.4,MacIntel,59.99520038,597a088221db3a00014176c3,64d2fd46c836a06233681665,64dc7f8ade80fc8d131f2163,,,,,,,sngl,resources/DB.BMP,resources/Empty.png,Door4,-0.240962922,0.023409598,1,0,0,0.5784,optionLeft,60,4210,2,34,0,34,0,1,,,,,,,,,,,,,,,,,,,,,,,,,,,,,,,,,,,,,,,
,,,,,,,,2023-08-16_09h09.57.011,HF_wild_card,2022.2.4,MacIntel,59.99520038,597a088221db3a00014176c3,64d2fd46c836a06233681665,64dc7f8ade80fc8d131f2163,,,,,,,sngl,resources/Empty.png,resources/DR.BMP,WildCard_NonEx,0.350198413,-0.05171751,1,0,0,0.7162,optionRight,45,4255,2,35,0,35,0,1,,,,,,,,,,,,,,,,,,,,,,,,,,,,,,,,,,,,,,,
,,,,,,,,2023-08-16_09h09.57.011,HF_wild_card,2022.2.4,MacIntel,59.99520038,597a088221db3a00014176c3,64d2fd46c836a06233681665,64dc7f8ade80fc8d131f2163,,,,,,,sngl,resources/Empty.png,resources/DG.BMP,Door3,0.375610739,-0.034027778,1,0,0,0.4971,optionRight,70,4325,2,36,0,36,0,1,,,,,,,,,,,,,,,,,,,,,,,,,,,,,,,,,,,,,,,
,,,,,,,,2023-08-16_09h09.57.011,HF_wild_card,2022.2.4,MacIntel,59.99520038,597a088221db3a00014176c3,64d2fd46c836a06233681665,64dc7f8ade80fc8d131f2163,,,,,,,decisionTrl,resources/DBN.BMP,resources/DP.BMP,Door1,0.400062004,-0.034939236,1,0,0,1.1329,optionRight,30,4355,2,37,0,37,0,1,,,,,,,,,,,,,,,,,,,,,,,,,,,,,,,,,,,,,,,
,,,,,,,,2023-08-16_09h09.57.011,HF_wild_card,2022.2.4,MacIntel,59.99520038,597a088221db3a00014176c3,64d2fd46c836a06233681665,64dc7f8ade80fc8d131f2163,,,,,,,decisionTrl,resources/DG.BMP,resources/DR.BMP,WildCard_NonEx,0.237388393,-0.016387649,1,0,0,0.83,optionRight,55,4410,2,38,0,38,0,1,,,,,,,,,,,,,,,,,,,,,,,,,,,,,,,,,,,,,,,
,,,,,,,,2023-08-16_09h09.57.011,HF_wild_card,2022.2.4,MacIntel,59.99520038,597a088221db3a00014176c3,64d2fd46c836a06233681665,64dc7f8ade80fc8d131f2163,,,,,,,decisionTrl,resources/DBN.BMP,resources/DP.BMP,Door1,0.406504216,-0.026571801,1,0,0,0.9169,optionRight,30,4440,2,39,0,39,0,1,,,,,,,,,,,,,,,,,,,,,,,,,,,,,,,,,,,,,,,
,,,,,,,,2023-08-16_09h09.57.011,HF_wild_card,2022.2.4,MacIntel,59.99520038,597a088221db3a00014176c3,64d2fd46c836a06233681665,64dc7f8ade80fc8d131f2163,,,,,,,sngl,resources/Empty.png,resources/DBN.BMP,Door2,0.22672371,-0.021989707,1,0,0,0.6628,optionRight,40,4480,2,40,0,40,0,1,,,,,,,,,,,,,,,,,,,,,,,,,,,,,,,,,,,,,,,
,,,,,,,,2023-08-16_09h09.57.011,HF_wild_card,2022.2.4,MacIntel,59.99520038,597a088221db3a00014176c3,64d2fd46c836a06233681665,64dc7f8ade80fc8d131f2163,,,,,,,ctch,resources/DP.BMP,resources/DB.BMP,Door4,0.327120536,-0.026919023,1,0,0,1.4793,optionRight,80,4560,2,41,0,41,0,1,,,,,,,,,,,,,,,,,,,,,,,,,,,,,,,,,,,,,,,
,,,,,,,,2023-08-16_09h09.57.011,HF_wild_card,2022.2.4,MacIntel,59.99520038,597a088221db3a00014176c3,64d2fd46c836a06233681665,64dc7f8ade80fc8d131f2163,,,,,,,decisionTrl,resources/DG.BMP,resources/DB.BMP,Door3,-0.261470734,0.005809772,1,0,0,0.6459,optionLeft,70,4630,2,42,0,42,0,1,,,,,,,,,,,,,,,,,,,,,,,,,,,,,,,,,,,,,,,
,,,,,,,,2023-08-16_09h09.57.011,HF_wild_card,2022.2.4,MacIntel,59.99520038,597a088221db3a00014176c3,64d2fd46c836a06233681665,64dc7f8ade80fc8d131f2163,,,,,,,decisionTrl,resources/DP.BMP,resources/DBN.BMP,Door1,-0.256910342,-0.003562128,1,0,0,1.0144,optionLeft,30,4660,2,43,0,43,0,1,,,,,,,,,,,,,,,,,,,,,,,,,,,,,,,,,,,,,,,
,,,,,,,,2023-08-16_09h09.57.011,HF_wild_card,2022.2.4,MacIntel,59.99520038,597a088221db3a00014176c3,64d2fd46c836a06233681665,64dc7f8ade80fc8d131f2163,,,,,,,,,,,,,,,,,,,,,,,,,,1,0,1,0,1,,,,,,,,,,,,,,,,,,,,,,,,,,,,,,,,,,
,,,,,,,,2023-08-16_09h09.57.011,HF_wild_card,2022.2.4,MacIntel,59.99520038,597a088221db3a00014176c3,64d2fd46c836a06233681665,64dc7f8ade80fc8d131f2163,,,,,,,decisionTrl,resources/DP.BMP,resources/DBN.BMP,Door2,0.213541667,-0.057725694,1,0,0,0.797,optionRight,40,4700,3,0,0,0,0,1,,,,,,,,,,,,,,,,,,,,,,,,,,,,,,,,,,,,,,,
,,,,,,,,2023-08-16_09h09.57.011,HF_wild_card,2022.2.4,MacIntel,59.99520038,597a088221db3a00014176c3,64d2fd46c836a06233681665,64dc7f8ade80fc8d131f2163,,,,,,,sngl,resources/Empty.png,resources/DR.BMP,WildCard_NonEx,0.307697793,-0.02984561,1,0,0,0.6186,optionRight,55,4755,3,1,0,1,0,1,,,,,,,,,,,,,,,,,,,,,,,,,,,,,,,,,,,,,,,
,,,,,,,,2023-08-16_09h09.57.011,HF_wild_card,2022.2.4,MacIntel,59.99520038,597a088221db3a00014176c3,64d2fd46c836a06233681665,64dc7f8ade80fc8d131f2163,,,,,,,sngl,resources/DB.BMP,resources/Empty.png,Door4,-0.349928695,-0.001227679,1,0,0,0.6636,optionLeft,80,4835,3,2,0,2,0,1,,,,,,,,,,,,,,,,,,,,,,,,,,,,,,,,,,,,,,,
,,,,,,,,2023-08-16_09h09.57.011,HF_wild_card,2022.2.4,MacIntel,59.99520038,597a088221db3a00014176c3,64d2fd46c836a06233681665,64dc7f8ade80fc8d131f2163,,,,,,,decisionTrl,resources/DG.BMP,resources/DR.BMP,Door3,-0.241381448,-0.00172371,1,0,0,1.4629,optionLeft,70,4905,3,3,0,3,0,1,,,,,,,,,,,,,,,,,,,,,,,,,,,,,,,,,,,,,,,
,,,,,,,,2023-08-16_09h09.57.011,HF_wild_card,2022.2.4,MacIntel,59.99520038,597a088221db3a00014176c3,64d2fd46c836a06233681665,64dc7f8ade80fc8d131f2163,,,,,,,ctch,resources/DG.BMP,resources/DBN.BMP,Door3,-0.210962302,-0.002991691,1,0,0,0.7998,optionLeft,70,4975,3,4,0,4,0,1,,,,,,,,,,,,,,,,,,,,,,,,,,,,,,,,,,,,,,,
,,,,,,,,2023-08-16_09h09.57.011,HF_wild_card,2022.2.4,MacIntel,59.99520038,597a088221db3a00014176c3,64d2fd46c836a06233681665,64dc7f8ade80fc8d131f2163,,,,,,,decisionTrl,resources/DBN.BMP,resources/DP.BMP,Door1,0.273821925,-0.014936756,1,0,0,1.0964,optionRight,30,5005,3,5,0,5,0,1,,,,,,,,,,,,,,,,,,,,,,,,,,,,,,,,,,,,,,,
,,,,,,,,2023-08-16_09h09.57.011,HF_wild_card,2022.2.4,MacIntel,59.99520038,597a088221db3a00014176c3,64d2fd46c836a06233681665,64dc7f8ade80fc8d131f2163,,,,,,,decisionTrl,resources/DP.BMP,resources/DBN.BMP,Door2,0.393340774,-0.013039435,1,0,0,0.6279,optionRight,20,5025,3,6,0,6,0,1,,,,,,,,,,,,,,,,,,,,,,,,,,,,,,,,,,,,,,,
,,,,,,,,2023-08-16_09h09.57.011,HF_wild_card,2022.2.4,MacIntel,59.99520038,597a088221db3a00014176c3,64d2fd46c836a06233681665,64dc7f8ade80fc8d131f2163,,,,,,,decisionTrl,resources/DR.BMP,resources/DBN.BMP,Door2,0.234933036,-0.014719742,1,0,0,0.6996,optionRight,20,5045,3,7,0,7,0,1,,,,,,,,,,,,,,,,,,,,,,,,,,,,,,,,,,,,,,,
,,,,,,,,2023-08-16_09h09.57.011,HF_wild_card,2022.2.4,MacIntel,59.99520038,597a088221db3a00014176c3,64d2fd46c836a06233681665,64dc7f8ade80fc8d131f2163,,,,,,,decisionTrl,resources/DG.BMP,resources/DB.BMP,Door4,0.34452505,-0.013541667,1,0,0,0.728,optionRight,80,5125,3,8,0,8,0,1,,,,,,,,,,,,,,,,,,,,,,,,,,,,,,,,,,,,,,,
,,,,,,,,2023-08-16_09h09.57.011,HF_wild_card,2022.2.4,MacIntel,59.99520038,597a088221db3a00014176c3,64d2fd46c836a06233681665,64dc7f8ade80fc8d131f2163,,,,,,,decisionTrl,resources/DR.BMP,resources/DG.BMP,WildCard_NonEx,-0.226943824,-0.006187996,1,0,0,0.9011,optionLeft,55,5180,3,9,0,9,0,1,,,,,,,,,,,,,,,,,,,,,,,,,,,,,,,,,,,,,,,
,,,,,,,,2023-08-16_09h09.57.011,HF_wild_card,2022.2.4,MacIntel,59.99520038,597a088221db3a00014176c3,64d2fd46c836a06233681665,64dc7f8ade80fc8d131f2163,,,,,,,ctch,resources/DP.BMP,resources/DB.BMP,Door4,0.190764509,-0.009592014,1,0,0,0.8154,optionRight,60,5240,3,10,0,10,0,1,,,,,,,,,,,,,,,,,,,,,,,,,,,,,,,,,,,,,,,
,,,,,,,,2023-08-16_09h09.57.011,HF_wild_card,2022.2.4,MacIntel,59.99520038,597a088221db3a00014176c3,64d2fd46c836a06233681665,64dc7f8ade80fc8d131f2163,,,,,,,decisionTrl,resources/DG.BMP,resources/DB.BMP,Door4,0.231851438,-0.017826141,1,0,0,0.7482,optionRight,60,5300,3,11,0,11,0,1,,,,,,,,,,,,,,,,,,,,,,,,,,,,,,,,,,,,,,,
,,,,,,,,2023-08-16_09h09.57.011,HF_wild_card,2022.2.4,MacIntel,59.99520038,597a088221db3a00014176c3,64d2fd46c836a06233681665,64dc7f8ade80fc8d131f2163,,,,,,,decisionTrl,resources/DG.BMP,resources/DB.BMP,Door3,-0.202074033,-0.025328621,1,0,0,0.7464,optionLeft,70,5370,3,12,0,12,0,1,,,,,,,,,,,,,,,,,,,,,,,,,,,,,,,,,,,,,,,
,,,,,,,,2023-08-16_09h09.57.011,HF_wild_card,2022.2.4,MacIntel,59.99520038,597a088221db3a00014176c3,64d2fd46c836a06233681665,64dc7f8ade80fc8d131f2163,,,,,,,sngl,resources/Empty.png,resources/DBN.BMP,Door2,0.344831969,-0.021766493,1,0,0,0.5641,optionRight,20,5390,3,13,0,13,0,1,,,,,,,,,,,,,,,,,,,,,,,,,,,,,,,,,,,,,,,
,,,,,,,,2023-08-16_09h09.57.011,HF_wild_card,2022.2.4,MacIntel,59.99520038,597a088221db3a00014176c3,64d2fd46c836a06233681665,64dc7f8ade80fc8d131f2163,,,,,,,sngl,resources/Empty.png,resources/DG.BMP,Door3,0.290842014,-0.022826761,1,0,0,0.5813,optionRight,70,5460,3,14,0,14,0,1,,,,,,,,,,,,,,,,,,,,,,,,,,,,,,,,,,,,,,,
,,,,,,,,2023-08-16_09h09.57.011,HF_wild_card,2022.2.4,MacIntel,59.99520038,597a088221db3a00014176c3,64d2fd46c836a06233681665,64dc7f8ade80fc8d131f2163,,,,,,,ctch,resources/DB.BMP,resources/DP.BMP,Door4,-0.304547991,-0.011644345,1,0,0,0.6628,optionLeft,80,5540,3,15,0,15,0,1,,,,,,,,,,,,,,,,,,,,,,,,,,,,,,,,,,,,,,,
,,,,,,,,2023-08-16_09h09.57.011,HF_wild_card,2022.2.4,MacIntel,59.99520038,597a088221db3a00014176c3,64d2fd46c836a06233681665,64dc7f8ade80fc8d131f2163,,,,,,,decisionTrl,resources/DBN.BMP,resources/DP.BMP,Door1,0.251317584,-0.028862847,1,0,0,0.7781,optionRight,30,5570,3,16,0,16,0,1,,,,,,,,,,,,,,,,,,,,,,,,,,,,,,,,,,,,,,,
,,,,,,,,2023-08-16_09h09.57.011,HF_wild_card,2022.2.4,MacIntel,59.99520038,597a088221db3a00014176c3,64d2fd46c836a06233681665,64dc7f8ade80fc8d131f2163,,,,,,,sngl,resources/DBN.BMP,resources/Empty.png,Door2,-0.250765749,-0.028776042,1,0,0,0.5633,optionLeft,40,5610,3,17,0,17,0,1,,,,,,,,,,,,,,,,,,,,,,,,,,,,,,,,,,,,,,,
,,,,,,,,2023-08-16_09h09.57.011,HF_wild_card,2022.2.4,MacIntel,59.99520038,597a088221db3a00014176c3,64d2fd46c836a06233681665,64dc7f8ade80fc8d131f2163,,,,,,,ctch,resources/DP.BMP,resources/DB.BMP,Door4,0.290166171,-0.019940476,1,0,0,0.7976,optionRight,60,5670,3,18,0,18,0,1,,,,,,,,,,,,,,,,,,,,,,,,,,,,,,,,,,,,,,,
,,,,,,,,2023-08-16_09h09.57.011,HF_wild_card,2022.2.4,MacIntel,59.99520038,597a088221db3a00014176c3,64d2fd46c836a06233681665,64dc7f8ade80fc8d131f2163,,,,,,,decisionTrl,resources/DG.BMP,resources/DB.BMP,Door3,-0.338953993,0.007576885,1,0,0,0.7641,optionLeft,70,5740,3,19,0,19,0,1,,,,,,,,,,,,,,,,,,,,,,,,,,,,,,,,,,,,,,,
,,,,,,,,2023-08-16_09h09.57.011,HF_wild_card,2022.2.4,MacIntel,59.99520038,597a088221db3a00014176c3,64d2fd46c836a06233681665,64dc7f8ade80fc8d131f2163,,,,,,,decisionTrl,resources/DR.BMP,resources/DB.BMP,Door4,0.244388641,-0.012999132,1,0,0,0.6312,optionRight,80,5820,3,20,0,20,0,1,,,,,,,,,,,,,,,,,,,,,,,,,,,,,,,,,,,,,,,
,,,,,,,,2023-08-16_09h09.57.011,HF_wild_card,2022.2.4,MacIntel,59.99520038,597a088221db3a00014176c3,64d2fd46c836a06233681665,64dc7f8ade80fc8d131f2163,,,,,,,sngl,resources/Empty.png,resources/DP.BMP,Door1,0.326041667,-0.029882813,1,0,0,0.5136,optionRight,30,5850,3,21,0,21,0,1,,,,,,,,,,,,,,,,,,,,,,,,,,,,,,,,,,,,,,,
,,,,,,,,2023-08-16_09h09.57.011,HF_wild_card,2022.2.4,MacIntel,59.99520038,597a088221db3a00014176c3,64d2fd46c836a06233681665,64dc7f8ade80fc8d131f2163,,,,,,,decisionTrl,resources/DR.BMP,resources/DP.BMP,Door1,0.272879464,-0.026478795,1,0,0,0.7616,optionRight,30,5880,3,22,0,22,0,1,,,,,,,,,,,,,,,,,,,,,,,,,,,,,,,,,,,,,,,
,,,,,,,,2023-08-16_09h09.57.011,HF_wild_card,2022.2.4,MacIntel,59.99520038,597a088221db3a00014176c3,64d2fd46c836a06233681665,64dc7f8ade80fc8d131f2163,,,,,,,decisionTrl,resources/DP.BMP,resources/DBN.BMP,Door2,0.4015656,-0.034743924,1,0,0,1.2489,optionRight,40,5920,3,23,0,23,0,1,,,,,,,,,,,,,,,,,,,,,,,,,,,,,,,,,,,,,,,
,,,,,,,,2023-08-16_09h09.57.011,HF_wild_card,2022.2.4,MacIntel,59.99520038,597a088221db3a00014176c3,64d2fd46c836a06233681665,64dc7f8ade80fc8d131f2163,,,,,,,sngl,resources/DR.BMP,resources/Empty.png,WildCard_NonEx,-0.2234375,-0.011024306,1,0,0,0.5629,optionLeft,55,5975,3,24,0,24,0,1,,,,,,,,,,,,,,,,,,,,,,,,,,,,,,,,,,,,,,,
,,,,,,,,2023-08-16_09h09.57.011,HF_wild_card,2022.2.4,MacIntel,59.99520038,597a088221db3a00014176c3,64d2fd46c836a06233681665,64dc7f8ade80fc8d131f2163,,,,,,,decisionTrl,resources/DB.BMP,resources/DG.BMP,Door4,-0.257118056,-0.009564112,1,0,0,0.7801,optionLeft,80,6055,3,25,0,25,0,1,,,,,,,,,,,,,,,,,,,,,,,,,,,,,,,,,,,,,,,
,,,,,,,,2023-08-16_09h09.57.011,HF_wild_card,2022.2.4,MacIntel,59.99520038,597a088221db3a00014176c3,64d2fd46c836a06233681665,64dc7f8ade80fc8d131f2163,,,,,,,decisionTrl,resources/DP.BMP,resources/DR.BMP,WildCard_NonEx,0.248611111,-0.006594122,1,0,0,0.7989,optionRight,55,6110,3,26,0,26,0,1,,,,,,,,,,,,,,,,,,,,,,,,,,,,,,,,,,,,,,,
,,,,,,,,2023-08-16_09h09.57.011,HF_wild_card,2022.2.4,MacIntel,59.99520038,597a088221db3a00014176c3,64d2fd46c836a06233681665,64dc7f8ade80fc8d131f2163,,,,,,,decisionTrl,resources/DB.BMP,resources/DR.BMP,Door4,-0.306640625,-0.002535962,1,0,0,0.6796,optionLeft,60,6170,3,27,0,27,0,1,,,,,,,,,,,,,,,,,,,,,,,,,,,,,,,,,,,,,,,
,,,,,,,,2023-08-16_09h09.57.011,HF_wild_card,2022.2.4,MacIntel,59.99520038,597a088221db3a00014176c3,64d2fd46c836a06233681665,64dc7f8ade80fc8d131f2163,,,,,,,sngl,resources/Empty.png,resources/DB.BMP,Door4,0.257362971,0.006231399,1,0,0,1.7294,optionRight,60,6230,3,28,0,28,0,1,,,,,,,,,,,,,,,,,,,,,,,,,,,,,,,,,,,,,,,
,,,,,,,,2023-08-16_09h09.57.011,HF_wild_card,2022.2.4,MacIntel,59.99520038,597a088221db3a00014176c3,64d2fd46c836a06233681665,64dc7f8ade80fc8d131f2163,,,,,,,sngl,resources/Empty.png,resources/DR.BMP,WildCard_NonEx,0.27531932,-0.00390005,1,0,0,0.5492,optionRight,45,6275,3,29,0,29,0,1,,,,,,,,,,,,,,,,,,,,,,,,,,,,,,,,,,,,,,,
,,,,,,,,2023-08-16_09h09.57.011,HF_wild_card,2022.2.4,MacIntel,59.99520038,597a088221db3a00014176c3,64d2fd46c836a06233681665,64dc7f8ade80fc8d131f2163,,,,,,,ctch,resources/DBN.BMP,resources/DG.BMP,Door3,0.288141741,-0.047736855,1,0,0,0.961,optionRight,70,6345,3,30,0,30,0,1,,,,,,,,,,,,,,,,,,,,,,,,,,,,,,,,,,,,,,,
,,,,,,,,2023-08-16_09h09.57.011,HF_wild_card,2022.2.4,MacIntel,59.99520038,597a088221db3a00014176c3,64d2fd46c836a06233681665,64dc7f8ade80fc8d131f2163,,,,,,,ctch,resources/DB.BMP,resources/DP.BMP,Door4,-0.248350694,-0.025359623,1,0,0,0.8887,optionLeft,60,6405,3,31,0,31,0,1,,,,,,,,,,,,,,,,,,,,,,,,,,,,,,,,,,,,,,,
,,,,,,,,2023-08-16_09h09.57.011,HF_wild_card,2022.2.4,MacIntel,59.99520038,597a088221db3a00014176c3,64d2fd46c836a06233681665,64dc7f8ade80fc8d131f2163,,,,,,,decisionTrl,resources/DB.BMP,resources/DG.BMP,Door4,-0.318458581,-0.014620536,1,0,0,0.682,optionLeft,60,6465,3,32,0,32,0,1,,,,,,,,,,,,,,,,,,,,,,,,,,,,,,,,,,,,,,,
,,,,,,,,2023-08-16_09h09.57.011,HF_wild_card,2022.2.4,MacIntel,59.99520038,597a088221db3a00014176c3,64d2fd46c836a06233681665,64dc7f8ade80fc8d131f2163,,,,,,,decisionTrl,resources/DB.BMP,resources/DG.BMP,Door3,0.206392609,-0.031780134,1,0,0,0.6647,optionRight,70,6535,3,33,0,33,0,1,,,,,,,,,,,,,,,,,,,,,,,,,,,,,,,,,,,,,,,
,,,,,,,,2023-08-16_09h09.57.011,HF_wild_card,2022.2.4,MacIntel,59.99520038,597a088221db3a00014176c3,64d2fd46c836a06233681665,64dc7f8ade80fc8d131f2163,,,,,,,ctch,resources/DBN.BMP,resources/DG.BMP,Door3,0.264419023,-0.009908234,1,0,0,0.7317,optionRight,70,6605,3,34,0,34,0,1,,,,,,,,,,,,,,,,,,,,,,,,,,,,,,,,,,,,,,,
,,,,,,,,2023-08-16_09h09.57.011,HF_wild_card,2022.2.4,MacIntel,59.99520038,597a088221db3a00014176c3,64d2fd46c836a06233681665,64dc7f8ade80fc8d131f2163,,,,,,,ctch,resources/DG.BMP,resources/DBN.BMP,Door3,-0.282914807,-0.030248636,1,0,0,1.1177,optionLeft,70,6675,3,35,0,35,0,1,,,,,,,,,,,,,,,,,,,,,,,,,,,,,,,,,,,,,,,
,,,,,,,,2023-08-16_09h09.57.011,HF_wild_card,2022.2.4,MacIntel,59.99520038,597a088221db3a00014176c3,64d2fd46c836a06233681665,64dc7f8ade80fc8d131f2163,,,,,,,decisionTrl,resources/DBN.BMP,resources/DP.BMP,Door1,0.305670263,-0.038113839,1,0,0,0.9105,optionRight,30,6705,3,36,0,36,0,1,,,,,,,,,,,,,,,,,,,,,,,,,,,,,,,,,,,,,,,
,,,,,,,,2023-08-16_09h09.57.011,HF_wild_card,2022.2.4,MacIntel,59.99520038,597a088221db3a00014176c3,64d2fd46c836a06233681665,64dc7f8ade80fc8d131f2163,,,,,,,decisionTrl,resources/DBN.BMP,resources/DP.BMP,Door2,-0.237062872,-0.024590774,1,0,0,0.6305,optionLeft,20,6725,3,37,0,37,0,1,,,,,,,,,,,,,,,,,,,,,,,,,,,,,,,,,,,,,,,
,,,,,,,,2023-08-16_09h09.57.011,HF_wild_card,2022.2.4,MacIntel,59.99520038,597a088221db3a00014176c3,64d2fd46c836a06233681665,64dc7f8ade80fc8d131f2163,,,,,,,decisionTrl,resources/DBN.BMP,resources/DR.BMP,WildCard_NonEx,0.272358631,-0.015252976,1,0,0,0.6605,optionRight,55,6780,3,38,0,38,0,1,,,,,,,,,,,,,,,,,,,,,,,,,,,,,,,,,,,,,,,
,,,,,,,,2023-08-16_09h09.57.011,HF_wild_card,2022.2.4,MacIntel,59.99520038,597a088221db3a00014176c3,64d2fd46c836a06233681665,64dc7f8ade80fc8d131f2163,,,,,,,decisionTrl,resources/DP.BMP,resources/DBN.BMP,Door1,-0.317447917,0.001463294,1,0,0,4.1655,optionLeft,30,6810,3,39,0,39,0,1,,,,,,,,,,,,,,,,,,,,,,,,,,,,,,,,,,,,,,,
,,,,,,,,2023-08-16_09h09.57.011,HF_wild_card,2022.2.4,MacIntel,59.99520038,597a088221db3a00014176c3,64d2fd46c836a06233681665,64dc7f8ade80fc8d131f2163,,,,,,,sngl,resources/DP.BMP,resources/Empty.png,Door1,-0.225223214,-0.019540551,1,0,0,0.667,optionLeft,30,6840,3,40,0,40,0,1,,,,,,,,,,,,,,,,,,,,,,,,,,,,,,,,,,,,,,,
,,,,,,,,2023-08-16_09h09.57.011,HF_wild_card,2022.2.4,MacIntel,59.99520038,597a088221db3a00014176c3,64d2fd46c836a06233681665,64dc7f8ade80fc8d131f2163,,,,,,,decisionTrl,resources/DB.BMP,resources/DG.BMP,Door4,-0.19702691,-0.034040179,1,0,0,0.7463,optionLeft,80,6920,3,41,0,41,0,1,,,,,,,,,,,,,,,,,,,,,,,,,,,,,,,,,,,,,,,
,,,,,,,,2023-08-16_09h09.57.011,HF_wild_card,2022.2.4,MacIntel,59.99520038,597a088221db3a00014176c3,64d2fd46c836a06233681665,64dc7f8ade80fc8d131f2163,,,,,,,sngl,resources/DG.BMP,resources/Empty.png,Door3,-0.145579117,-0.015600198,1,0,0,0.4625,optionLeft,70,6990,3,42,0,42,0,1,,,,,,,,,,,,,,,,,,,,,,,,,,,,,,,,,,,,,,,
,,,,,,,,2023-08-16_09h09.57.011,HF_wild_card,2022.2.4,MacIntel,59.99520038,597a088221db3a00014176c3,64d2fd46c836a06233681665,64dc7f8ade80fc8d131f2163,,,,,,,sngl,resources/DR.BMP,resources/Empty.png,WildCard_NonEx,-0.19343688,-0.010398065,1,0,0,0.5303,optionLeft,45,7035,3,43,0,43,0,1,,,,,,,,,,,,,,,,,,,,,,,,,,,,,,,,,,,,,,,
,,,,,,,,2023-08-16_09h09.57.011,HF_wild_card,2022.2.4,MacIntel,59.99520038,597a088221db3a00014176c3,64d2fd46c836a06233681665,64dc7f8ade80fc8d131f2163,,,,,,,,,,,,,,,,,,,,,,,,,,2,0,2,0,1,,,,,,,,,,,,,,,,,,,,,,,,,,,,,,,,,,
,,,,,,,,2023-08-16_09h09.57.011,HF_wild_card,2022.2.4,MacIntel,59.99520038,597a088221db3a00014176c3,64d2fd46c836a06233681665,64dc7f8ade80fc8d131f2163,,,,,,,sngl,resources/DP.BMP,resources/Empty.png,Door1,-0.298192584,-0.119549851,1,0,0,0.8045,optionLeft,30,7065,4,0,0,0,0,1,,,,,,,,,,,,,,,,,,,,,,,,,,,,,,,,,,,,,,,
,,,,,,,,2023-08-16_09h09.57.011,HF_wild_card,2022.2.4,MacIntel,59.99520038,597a088221db3a00014176c3,64d2fd46c836a06233681665,64dc7f8ade80fc8d131f2163,,,,,,,sngl,resources/Empty.png,resources/DP.BMP,Door1,0.261470734,-0.028952753,1,0,0,0.7308,optionRight,30,7095,4,1,0,1,0,1,,,,,,,,,,,,,,,,,,,,,,,,,,,,,,,,,,,,,,,
,,,,,,,,2023-08-16_09h09.57.011,HF_wild_card,2022.2.4,MacIntel,59.99520038,597a088221db3a00014176c3,64d2fd46c836a06233681665,64dc7f8ade80fc8d131f2163,,,,,,,decisionTrl,resources/DB.BMP,resources/DY.BMP,Door4,-0.232096354,0.007294767,1,0,0,0.6936,optionLeft,60,7155,4,2,0,2,0,1,,,,,,,,,,,,,,,,,,,,,,,,,,,,,,,,,,,,,,,
,,,,,,,,2023-08-16_09h09.57.011,HF_wild_card,2022.2.4,MacIntel,59.99520038,597a088221db3a00014176c3,64d2fd46c836a06233681665,64dc7f8ade80fc8d131f2163,,,,,,,decisionTrl,resources/DP.BMP,resources/DBN.BMP,Door2,0.329901414,-0.045340402,1,0,0,1.0981,optionRight,40,7195,4,3,0,3,0,1,,,,,,,,,,,,,,,,,,,,,,,,,,,,,,,,,,,,,,,
,,,,,,,,2023-08-16_09h09.57.011,HF_wild_card,2022.2.4,MacIntel,59.99520038,597a088221db3a00014176c3,64d2fd46c836a06233681665,64dc7f8ade80fc8d131f2163,,,,,,,decisionTrl,resources/DG.BMP,resources/DB.BMP,Door4,0.253506324,-0.024900794,1,0,0,0.8644,optionRight,80,7275,4,4,0,4,0,1,,,,,,,,,,,,,,,,,,,,,,,,,,,,,,,,,,,,,,,
,,,,,,,,2023-08-16_09h09.57.011,HF_wild_card,2022.2.4,MacIntel,59.99520038,597a088221db3a00014176c3,64d2fd46c836a06233681665,64dc7f8ade80fc8d131f2163,,,,,,,ctch,resources/DB.BMP,resources/DP.BMP,Door4,-0.301612103,0.013147941,1,0,0,0.6145,optionLeft,60,7335,4,5,0,5,0,1,,,,,,,,,,,,,,,,,,,,,,,,,,,,,,,,,,,,,,,
,,,,,,,,2023-08-16_09h09.57.011,HF_wild_card,2022.2.4,MacIntel,59.99520038,597a088221db3a00014176c3,64d2fd46c836a06233681665,64dc7f8ade80fc8d131f2163,,,,,,,decisionTrl,resources/DBN.BMP,resources/DY.BMP,WildCard_Ex,0.371146453,-0.037775918,1,0,0,0.9152,optionRight,95,7430,4,6,0,6,0,1,,,,,,,,,,,,,,,,,,,,,,,,,,,,,,,,,,,,,,,
,,,,,,,,2023-08-16_09h09.57.011,HF_wild_card,2022.2.4,MacIntel,59.99520038,597a088221db3a00014176c3,64d2fd46c836a06233681665,64dc7f8ade80fc8d131f2163,,,,,,,decisionTrl,resources/DP.BMP,resources/DBN.BMP,Door1,-0.24094432,0.006212798,1,0,0,0.8317,optionLeft,30,7460,4,7,0,7,0,1,,,,,,,,,,,,,,,,,,,,,,,,,,,,,,,,,,,,,,,
,,,,,,,,2023-08-16_09h09.57.011,HF_wild_card,2022.2.4,MacIntel,59.99520038,597a088221db3a00014176c3,64d2fd46c836a06233681665,64dc7f8ade80fc8d131f2163,,,,,,,sngl,resources/Empty.png,resources/DB.BMP,Door4,0.258296131,-0.029411582,1,0,0,0.565,optionRight,80,7540,4,8,0,8,0,1,,,,,,,,,,,,,,,,,,,,,,,,,,,,,,,,,,,,,,,
,,,,,,,,2023-08-16_09h09.57.011,HF_wild_card,2022.2.4,MacIntel,59.99520038,597a088221db3a00014176c3,64d2fd46c836a06233681665,64dc7f8ade80fc8d131f2163,,,,,,,decisionTrl,resources/DP.BMP,resources/DY.BMP,WildCard_Ex,0.37577815,-0.021657986,1,0,0,0.6452,optionRight,5,7545,4,9,0,9,0,1,,,,,,,,,,,,,,,,,,,,,,,,,,,,,,,,,,,,,,,
,,,,,,,,2023-08-16_09h09.57.011,HF_wild_card,2022.2.4,MacIntel,59.99520038,597a088221db3a00014176c3,64d2fd46c836a06233681665,64dc7f8ade80fc8d131f2163,,,,,,,ctch,resources/DG.BMP,resources/DBN.BMP,Door3,-0.287394593,0.006494916,1,0,0,1.2127,optionLeft,70,7615,4,10,0,10,0,1,,,,,,,,,,,,,,,,,,,,,,,,,,,,,,,,,,,,,,,
,,,,,,,,2023-08-16_09h09.57.011,HF_wild_card,2022.2.4,MacIntel,59.99520038,597a088221db3a00014176c3,64d2fd46c836a06233681665,64dc7f8ade80fc8d131f2163,,,,,,,decisionTrl,resources/DG.BMP,resources/DB.BMP,Door4,0.315141369,-0.043322173,1,0,0,0.6697,optionRight,60,7675,4,11,0,11,0,1,,,,,,,,,,,,,,,,,,,,,,,,,,,,,,,,,,,,,,,
,,,,,,,,2023-08-16_09h09.57.011,HF_wild_card,2022.2.4,MacIntel,59.99520038,597a088221db3a00014176c3,64d2fd46c836a06233681665,64dc7f8ade80fc8d131f2163,,,,,,,ctch,resources/DBN.BMP,resources/DG.BMP,Door3,0.409833829,-0.039654638,1,0,0,0.6482,optionRight,70,7745,4,12,0,12,0,1,,,,,,,,,,,,,,,,,,,,,,,,,,,,,,,,,,,,,,,
,,,,,,,,2023-08-16_09h09.57.011,HF_wild_card,2022.2.4,MacIntel,59.99520038,597a088221db3a00014176c3,64d2fd46c836a06233681665,64dc7f8ade80fc8d131f2163,,,,,,,ctch,resources/DG.BMP,resources/DBN.BMP,Door3,-0.243015253,-0.078125,1,0,0,1.1001,optionLeft,70,7815,4,13,0,13,0,1,,,,,,,,,,,,,,,,,,,,,,,,,,,,,,,,,,,,,,,
,,,,,,,,2023-08-16_09h09.57.011,HF_wild_card,2022.2.4,MacIntel,59.99520038,597a088221db3a00014176c3,64d2fd46c836a06233681665,64dc7f8ade80fc8d131f2163,,,,,,,decisionTrl,resources/DG.BMP,resources/DY.BMP,WildCard_Ex,0.286582341,-0.021084449,1,0,0,0.5821,optionRight,5,7820,4,14,0,14,0,1,,,,,,,,,,,,,,,,,,,,,,,,,,,,,,,,,,,,,,,
,,,,,,,,2023-08-16_09h09.57.011,HF_wild_card,2022.2.4,MacIntel,59.99520038,597a088221db3a00014176c3,64d2fd46c836a06233681665,64dc7f8ade80fc8d131f2163,,,,,,,sngl,resources/Empty.png,resources/DBN.BMP,Door2,0.23187624,-0.012118676,1,0,0,0.7973,optionRight,40,7860,4,15,0,15,0,1,,,,,,,,,,,,,,,,,,,,,,,,,,,,,,,,,,,,,,,
,,,,,,,,2023-08-16_09h09.57.011,HF_wild_card,2022.2.4,MacIntel,59.99520038,597a088221db3a00014176c3,64d2fd46c836a06233681665,64dc7f8ade80fc8d131f2163,,,,,,,decisionTrl,resources/DBN.BMP,resources/DP.BMP,Door1,0.384933036,-0.052064732,1,0,0,0.9775,optionRight,30,7890,4,16,0,16,0,1,,,,,,,,,,,,,,,,,,,,,,,,,,,,,,,,,,,,,,,
,,,,,,,,2023-08-16_09h09.57.011,HF_wild_card,2022.2.4,MacIntel,59.99520038,597a088221db3a00014176c3,64d2fd46c836a06233681665,64dc7f8ade80fc8d131f2163,,,,,,,decisionTrl,resources/DBN.BMP,resources/DP.BMP,Door1,0.299122644,-0.017299107,1,0,0,1.035,optionRight,30,7920,4,17,0,17,0,1,,,,,,,,,,,,,,,,,,,,,,,,,,,,,,,,,,,,,,,
,,,,,,,,2023-08-16_09h09.57.011,HF_wild_card,2022.2.4,MacIntel,59.99520038,597a088221db3a00014176c3,64d2fd46c836a06233681665,64dc7f8ade80fc8d131f2163,,,,,,,sngl,resources/DY.BMP,resources/Empty.png,WildCard_Ex,-0.163374256,-0.001503596,1,0,0,0.5455,optionLeft,95,8015,4,18,0,18,0,1,,,,,,,,,,,,,,,,,,,,,,,,,,,,,,,,,,,,,,,
,,,,,,,,2023-08-16_09h09.57.011,HF_wild_card,2022.2.4,MacIntel,59.99520038,597a088221db3a00014176c3,64d2fd46c836a06233681665,64dc7f8ade80fc8d131f2163,,,,,,,decisionTrl,resources/DB.BMP,resources/DG.BMP,Door4,-0.242240203,-0.010664683,1,0,0,1.0956,optionLeft,60,8075,4,19,0,19,0,1,,,,,,,,,,,,,,,,,,,,,,,,,,,,,,,,,,,,,,,
,,,,,,,,2023-08-16_09h09.57.011,HF_wild_card,2022.2.4,MacIntel,59.99520038,597a088221db3a00014176c3,64d2fd46c836a06233681665,64dc7f8ade80fc8d131f2163,,,,,,,decisionTrl,resources/DP.BMP,resources/DBN.BMP,Door1,-0.267150298,-0.015296379,1,0,0,1.0649,optionLeft,30,8105,4,20,0,20,0,1,,,,,,,,,,,,,,,,,,,,,,,,,,,,,,,,,,,,,,,
,,,,,,,,2023-08-16_09h09.57.011,HF_wild_card,2022.2.4,MacIntel,59.99520038,597a088221db3a00014176c3,64d2fd46c836a06233681665,64dc7f8ade80fc8d131f2163,,,,,,,decisionTrl,resources/DBN.BMP,resources/DP.BMP,Door1,0.205428447,-0.007905506,1,0,0,0.8002,optionRight,30,8135,4,21,0,21,0,1,,,,,,,,,,,,,,,,,,,,,,,,,,,,,,,,,,,,,,,
,,,,,,,,2023-08-16_09h09.57.011,HF_wild_card,2022.2.4,MacIntel,59.99520038,597a088221db3a00014176c3,64d2fd46c836a06233681665,64dc7f8ade80fc8d131f2163,,,,,,,decisionTrl,resources/DG.BMP,resources/DB.BMP,Door4,0.198369296,-0.012056672,1,0,0,0.8316,optionRight,60,8195,4,22,0,22,0,1,,,,,,,,,,,,,,,,,,,,,,,,,,,,,,,,,,,,,,,
,,,,,,,,2023-08-16_09h09.57.011,HF_wild_card,2022.2.4,MacIntel,59.99520038,597a088221db3a00014176c3,64d2fd46c836a06233681665,64dc7f8ade80fc8d131f2163,,,,,,,ctch,resources/DBN.BMP,resources/DG.BMP,Door3,0.246552579,-0.017999752,1,0,0,0.6154,optionRight,70,8265,4,23,0,23,0,1,,,,,,,,,,,,,,,,,,,,,,,,,,,,,,,,,,,,,,,
,,,,,,,,2023-08-16_09h09.57.011,HF_wild_card,2022.2.4,MacIntel,59.99520038,597a088221db3a00014176c3,64d2fd46c836a06233681665,64dc7f8ade80fc8d131f2163,,,,,,,decisionTrl,resources/DB.BMP,resources/DG.BMP,Door3,0.280205233,-0.010701885,1,0,0,0.5824,optionRight,70,8335,4,24,0,24,0,1,,,,,,,,,,,,,,,,,,,,,,,,,,,,,,,,,,,,,,,
,,,,,,,,2023-08-16_09h09.57.011,HF_wild_card,2022.2.4,MacIntel,59.99520038,597a088221db3a00014176c3,64d2fd46c836a06233681665,64dc7f8ade80fc8d131f2163,,,,,,,decisionTrl,resources/DBN.BMP,resources/DP.BMP,Door2,-0.260010541,0.001103671,1,0,0,1.0306,optionLeft,40,8375,4,25,0,25,0,1,,,,,,,,,,,,,,,,,,,,,,,,,,,,,,,,,,,,,,,
,,,,,,,,2023-08-16_09h09.57.011,HF_wild_card,2022.2.4,MacIntel,59.99520038,597a088221db3a00014176c3,64d2fd46c836a06233681665,64dc7f8ade80fc8d131f2163,,,,,,,sngl,resources/Empty.png,resources/DY.BMP,WildCard_Ex,0.229547991,-0.028329613,1,0,0,0.5462,optionRight,5,8380,4,26,0,26,0,1,,,,,,,,,,,,,,,,,,,,,,,,,,,,,,,,,,,,,,,
,,,,,,,,2023-08-16_09h09.57.011,HF_wild_card,2022.2.4,MacIntel,59.99520038,597a088221db3a00014176c3,64d2fd46c836a06233681665,64dc7f8ade80fc8d131f2163,,,,,,,sngl,resources/Empty.png,resources/DG.BMP,Door3,0.225988963,-0.022234623,1,0,0,0.5791,optionRight,70,8450,4,27,0,27,0,1,,,,,,,,,,,,,,,,,,,,,,,,,,,,,,,,,,,,,,,
,,,,,,,,2023-08-16_09h09.57.011,HF_wild_card,2022.2.4,MacIntel,59.99520038,597a088221db3a00014176c3,64d2fd46c836a06233681665,64dc7f8ade80fc8d131f2163,,,,,,,decisionTrl,resources/DB.BMP,resources/DG.BMP,Door4,-0.225592138,-0.003844246,1,0,0,0.8462,optionLeft,80,8530,4,28,0,28,0,1,,,,,,,,,,,,,,,,,,,,,,,,,,,,,,,,,,,,,,,
,,,,,,,,2023-08-16_09h09.57.011,HF_wild_card,2022.2.4,MacIntel,59.99520038,597a088221db3a00014176c3,64d2fd46c836a06233681665,64dc7f8ade80fc8d131f2163,,,,,,,decisionTrl,resources/DY.BMP,resources/DB.BMP,WildCard_Ex,-0.263011533,0.004315476,1,0,0,0.9963,optionLeft,5,8535,4,29,0,29,0,1,,,,,,,,,,,,,,,,,,,,,,,,,,,,,,,,,,,,,,,
,,,,,,,,2023-08-16_09h09.57.011,HF_wild_card,2022.2.4,MacIntel,59.99520038,597a088221db3a00014176c3,64d2fd46c836a06233681665,64dc7f8ade80fc8d131f2163,,,,,,,sngl,resources/DG.BMP,resources/Empty.png,Door3,-0.274283854,0.012456597,1,0,0,0.579,optionLeft,70,8605,4,30,0,30,0,1,,,,,,,,,,,,,,,,,,,,,,,,,,,,,,,,,,,,,,,
,,,,,,,,2023-08-16_09h09.57.011,HF_wild_card,2022.2.4,MacIntel,59.99520038,597a088221db3a00014176c3,64d2fd46c836a06233681665,64dc7f8ade80fc8d131f2163,,,,,,,ctch,resources/DP.BMP,resources/DB.BMP,Door4,0.213361855,-0.02610057,1,0,0,0.665,optionRight,60,8665,4,31,0,31,0,1,,,,,,,,,,,,,,,,,,,,,,,,,,,,,,,,,,,,,,,
,,,,,,,,2023-08-16_09h09.57.011,HF_wild_card,2022.2.4,MacIntel,59.99520038,597a088221db3a00014176c3,64d2fd46c836a06233681665,64dc7f8ade80fc8d131f2163,,,,,,,sngl,resources/DBN.BMP,resources/Empty.png,Door2,-0.265510293,0.001488095,1,0,0,0.5773,optionLeft,20,8685,4,32,0,32,0,1,,,,,,,,,,,,,,,,,,,,,,,,,,,,,,,,,,,,,,,
,,,,,,,,2023-08-16_09h09.57.011,HF_wild_card,2022.2.4,MacIntel,59.99520038,597a088221db3a00014176c3,64d2fd46c836a06233681665,64dc7f8ade80fc8d131f2163,,,,,,,sngl,resources/DY.BMP,resources/Empty.png,WildCard_Ex,-0.274243552,-0.002111235,1,0,0,0.5276,optionLeft,5,8690,4,33,0,33,0,1,,,,,,,,,,,,,,,,,,,,,,,,,,,,,,,,,,,,,,,
,,,,,,,,2023-08-16_09h09.57.011,HF_wild_card,2022.2.4,MacIntel,59.99520038,597a088221db3a00014176c3,64d2fd46c836a06233681665,64dc7f8ade80fc8d131f2163,,,,,,,sngl,resources/Empty.png,resources/DY.BMP,WildCard_Ex,0.187323289,-0.024243552,1,0,0,0.7012,optionRight,95,8785,4,34,0,34,0,1,,,,,,,,,,,,,,,,,,,,,,,,,,,,,,,,,,,,,,,
,,,,,,,,2023-08-16_09h09.57.011,HF_wild_card,2022.2.4,MacIntel,59.99520038,597a088221db3a00014176c3,64d2fd46c836a06233681665,64dc7f8ade80fc8d131f2163,,,,,,,ctch,resources/DB.BMP,resources/DP.BMP,Door4,-0.268700397,0.003642733,1,0,0,0.9314,optionLeft,60,8845,4,35,0,35,0,1,,,,,,,,,,,,,,,,,,,,,,,,,,,,,,,,,,,,,,,
,,,,,,,,2023-08-16_09h09.57.011,HF_wild_card,2022.2.4,MacIntel,59.99520038,597a088221db3a00014176c3,64d2fd46c836a06233681665,64dc7f8ade80fc8d131f2163,,,,,,,decisionTrl,resources/DY.BMP,resources/DG.BMP,Door3,0.285838294,-0.025164311,1,0,0,0.697,optionRight,70,8915,4,36,0,36,0,1,,,,,,,,,,,,,,,,,,,,,,,,,,,,,,,,,,,,,,,
,,,,,,,,2023-08-16_09h09.57.011,HF_wild_card,2022.2.4,MacIntel,59.99520038,597a088221db3a00014176c3,64d2fd46c836a06233681665,64dc7f8ade80fc8d131f2163,,,,,,,decisionTrl,resources/DY.BMP,resources/DBN.BMP,WildCard_Ex,-0.208525546,-0.002678571,1,0,0,1.3652,optionLeft,95,9010,4,37,0,37,0,1,,,,,,,,,,,,,,,,,,,,,,,,,,,,,,,,,,,,,,,
,,,,,,,,2023-08-16_09h09.57.011,HF_wild_card,2022.2.4,MacIntel,59.99520038,597a088221db3a00014176c3,64d2fd46c836a06233681665,64dc7f8ade80fc8d131f2163,,,,,,,decisionTrl,resources/DP.BMP,resources/DBN.BMP,Door1,-0.157843502,0.00203063,1,0,0,0.8317,optionLeft,30,9040,4,38,0,38,0,1,,,,,,,,,,,,,,,,,,,,,,,,,,,,,,,,,,,,,,,
,,,,,,,,2023-08-16_09h09.57.011,HF_wild_card,2022.2.4,MacIntel,59.99520038,597a088221db3a00014176c3,64d2fd46c836a06233681665,64dc7f8ade80fc8d131f2163,,,,,,,decisionTrl,resources/DG.BMP,resources/DB.BMP,Door4,0.252108135,-0.019779266,1,0,0,0.5628,optionRight,60,9100,4,39,0,39,0,1,,,,,,,,,,,,,,,,,,,,,,,,,,,,,,,,,,,,,,,
,,,,,,,,2023-08-16_09h09.57.011,HF_wild_card,2022.2.4,MacIntel,59.99520038,597a088221db3a00014176c3,64d2fd46c836a06233681665,64dc7f8ade80fc8d131f2163,,,,,,,decisionTrl,resources/DB.BMP,resources/DG.BMP,Door4,-0.344078621,0.01999628,1,0,0,0.6661,optionLeft,80,9180,4,40,0,40,0,1,,,,,,,,,,,,,,,,,,,,,,,,,,,,,,,,,,,,,,,
,,,,,,,,2023-08-16_09h09.57.011,HF_wild_card,2022.2.4,MacIntel,59.99520038,597a088221db3a00014176c3,64d2fd46c836a06233681665,64dc7f8ade80fc8d131f2163,,,,,,,sngl,resources/DB.BMP,resources/Empty.png,Door4,-0.268253968,0.021149554,1,0,0,0.7648,optionLeft,60,9240,4,41,0,41,0,1,,,,,,,,,,,,,,,,,,,,,,,,,,,,,,,,,,,,,,,
,,,,,,,,2023-08-16_09h09.57.011,HF_wild_card,2022.2.4,MacIntel,59.99520038,597a088221db3a00014176c3,64d2fd46c836a06233681665,64dc7f8ade80fc8d131f2163,,,,,,,decisionTrl,resources/DY.BMP,resources/DP.BMP,Door1,0.201683408,-0.029166667,1,0,0,1.2288,optionRight,30,9270,4,42,0,42,0,1,,,,,,,,,,,,,,,,,,,,,,,,,,,,,,,,,,,,,,,
,,,,,,,,2023-08-16_09h09.57.011,HF_wild_card,2022.2.4,MacIntel,59.99520038,597a088221db3a00014176c3,64d2fd46c836a06233681665,64dc7f8ade80fc8d131f2163,,,,,,,ctch,resources/DP.BMP,resources/DB.BMP,Door4,0.296645585,-0.008770461,1,0,0,0.8971,optionRight,60,9330,4,43,0,43,0,1,,,,,,,,,,,,,,,,,,,,,,,,,,,,,,,,,,,,,,,
,,,,,,,,2023-08-16_09h09.57.011,HF_wild_card,2022.2.4,MacIntel,59.99520038,597a088221db3a00014176c3,64d2fd46c836a06233681665,64dc7f8ade80fc8d131f2163,,,,,,,,,,,,,,,,,,,,,,,,,,3,0,3,0,1,,,,,,,,,,,,,,,,,,,,,,,,,,,,,,,,,,
,,,,,,,,2023-08-16_09h09.57.011,HF_wild_card,2022.2.4,MacIntel,59.99520038,597a088221db3a00014176c3,64d2fd46c836a06233681665,64dc7f8ade80fc8d131f2163,,,,,,,decisionTrl,resources/DP.BMP,resources/DBN.BMP,Door1,-0.195647321,-0.066384549,1,0,0,0.8522,optionLeft,30,9360,5,0,0,0,0,1,,,,,,,,,,,,,,,,,,,,,,,,,,,,,,,,,,,,,,,
,,,,,,,,2023-08-16_09h09.57.011,HF_wild_card,2022.2.4,MacIntel,59.99520038,597a088221db3a00014176c3,64d2fd46c836a06233681665,64dc7f8ade80fc8d131f2163,,,,,,,ctch,resources/DB.BMP,resources/DP.BMP,Door4,-0.232307168,-0.001739211,1,0,0,0.781,optionLeft,60,9420,5,1,0,1,0,1,,,,,,,,,,,,,,,,,,,,,,,,,,,,,,,,,,,,,,,
,,,,,,,,2023-08-16_09h09.57.011,HF_wild_card,2022.2.4,MacIntel,59.99520038,597a088221db3a00014176c3,64d2fd46c836a06233681665,64dc7f8ade80fc8d131f2163,,,,,,,sngl,resources/DP.BMP,resources/Empty.png,Door1,-0.249677579,0.004504588,1,0,0,0.5618,optionLeft,30,9450,5,2,0,2,0,1,,,,,,,,,,,,,,,,,,,,,,,,,,,,,,,,,,,,,,,
,,,,,,,,2023-08-16_09h09.57.011,HF_wild_card,2022.2.4,MacIntel,59.99520038,597a088221db3a00014176c3,64d2fd46c836a06233681665,64dc7f8ade80fc8d131f2163,,,,,,,decisionTrl,resources/DG.BMP,resources/DY.BMP,WildCard_Ex,0.231070188,-0.022423735,1,0,0,0.8327,optionRight,95,9545,5,3,0,3,0,1,,,,,,,,,,,,,,,,,,,,,,,,,,,,,,,,,,,,,,,
,,,,,,,,2023-08-16_09h09.57.011,HF_wild_card,2022.2.4,MacIntel,59.99520038,597a088221db3a00014176c3,64d2fd46c836a06233681665,64dc7f8ade80fc8d131f2163,,,,,,,decisionTrl,resources/DY.BMP,resources/DB.BMP,Door4,0.234753224,-0.01764943,1,0,0,1.0975,optionRight,60,9605,5,4,0,4,0,1,,,,,,,,,,,,,,,,,,,,,,,,,,,,,,,,,,,,,,,
,,,,,,,,2023-08-16_09h09.57.011,HF_wild_card,2022.2.4,MacIntel,59.99520038,597a088221db3a00014176c3,64d2fd46c836a06233681665,64dc7f8ade80fc8d131f2163,,,,,,,decisionTrl,resources/DBN.BMP,resources/DP.BMP,Door1,0.257229663,-0.023710317,1,0,0,0.7633,optionRight,30,9635,5,5,0,5,0,1,,,,,,,,,,,,,,,,,,,,,,,,,,,,,,,,,,,,,,,
,,,,,,,,2023-08-16_09h09.57.011,HF_wild_card,2022.2.4,MacIntel,59.99520038,597a088221db3a00014176c3,64d2fd46c836a06233681665,64dc7f8ade80fc8d131f2163,,,,,,,decisionTrl,resources/DG.BMP,resources/DB.BMP,Door4,0.273834325,0.008045015,1,0,0,0.8164,optionRight,80,9715,5,6,0,6,0,1,,,,,,,,,,,,,,,,,,,,,,,,,,,,,,,,,,,,,,,
,,,,,,,,2023-08-16_09h09.57.011,HF_wild_card,2022.2.4,MacIntel,59.99520038,597a088221db3a00014176c3,64d2fd46c836a06233681665,64dc7f8ade80fc8d131f2163,,,,,,,ctch,resources/DBN.BMP,resources/DG.BMP,Door3,0.396382068,0.016350446,1,0,0,0.8647,optionRight,70,9785,5,7,0,7,0,1,,,,,,,,,,,,,,,,,,,,,,,,,,,,,,,,,,,,,,,
,,,,,,,,2023-08-16_09h09.57.011,HF_wild_card,2022.2.4,MacIntel,59.99520038,597a088221db3a00014176c3,64d2fd46c836a06233681665,64dc7f8ade80fc8d131f2163,,,,,,,sngl,resources/DY.BMP,resources/Empty.png,WildCard_Ex,-0.292466518,-0.007573785,1,0,0,0.5943,optionLeft,5,9790,5,8,0,8,0,1,,,,,,,,,,,,,,,,,,,,,,,,,,,,,,,,,,,,,,,
,,,,,,,,2023-08-16_09h09.57.011,HF_wild_card,2022.2.4,MacIntel,59.99520038,597a088221db3a00014176c3,64d2fd46c836a06233681665,64dc7f8ade80fc8d131f2163,,,,,,,decisionTrl,resources/DY.BMP,resources/DG.BMP,Door3,0.247209821,-0.003720238,1,0,0,1.2291,optionRight,70,9860,5,9,0,9,0,1,,,,,,,,,,,,,,,,,,,,,,,,,,,,,,,,,,,,,,,
,,,,,,,,2023-08-16_09h09.57.011,HF_wild_card,2022.2.4,MacIntel,59.99520038,597a088221db3a00014176c3,64d2fd46c836a06233681665,64dc7f8ade80fc8d131f2163,,,,,,,decisionTrl,resources/DBN.BMP,resources/DP.BMP,Door1,0.264003596,-0.008386037,1,0,0,0.7142,optionRight,30,9890,5,10,0,10,0,1,,,,,,,,,,,,,,,,,,,,,,,,,,,,,,,,,,,,,,,
,,,,,,,,2023-08-16_09h09.57.011,HF_wild_card,2022.2.4,MacIntel,59.99520038,597a088221db3a00014176c3,64d2fd46c836a06233681665,64dc7f8ade80fc8d131f2163,,,,,,,sngl,resources/DB.BMP,resources/Empty.png,Door4,-0.241272941,-0.00483941,1,0,0,0.5298,optionLeft,80,9970,5,11,0,11,0,1,,,,,,,,,,,,,,,,,,,,,,,,,,,,,,,,,,,,,,,
,,,,,,,,2023-08-16_09h09.57.011,HF_wild_card,2022.2.4,MacIntel,59.99520038,597a088221db3a00014176c3,64d2fd46c836a06233681665,64dc7f8ade80fc8d131f2163,,,,,,,sngl,resources/DBN.BMP,resources/Empty.png,Door2,-0.296155754,0.001131572,1,0,0,0.6636,optionLeft,40,10010,5,12,0,12,0,1,,,,,,,,,,,,,,,,,,,,,,,,,,,,,,,,,,,,,,,
,,,,,,,,2023-08-16_09h09.57.011,HF_wild_card,2022.2.4,MacIntel,59.99520038,597a088221db3a00014176c3,64d2fd46c836a06233681665,64dc7f8ade80fc8d131f2163,,,,,,,ctch,resources/DBN.BMP,resources/DG.BMP,Door3,0.270055184,-0.003974454,1,0,0,0.8641,optionRight,70,10080,5,13,0,13,0,1,,,,,,,,,,,,,,,,,,,,,,,,,,,,,,,,,,,,,,,
,,,,,,,,2023-08-16_09h09.57.011,HF_wild_card,2022.2.4,MacIntel,59.99520038,597a088221db3a00014176c3,64d2fd46c836a06233681665,64dc7f8ade80fc8d131f2163,,,,,,,ctch,resources/DP.BMP,resources/DB.BMP,Door4,0.246332465,0.003524926,1,0,0,0.9999,optionRight,80,10160,5,14,0,14,0,1,,,,,,,,,,,,,,,,,,,,,,,,,,,,,,,,,,,,,,,
,,,,,,,,2023-08-16_09h09.57.011,HF_wild_card,2022.2.4,MacIntel,59.99520038,597a088221db3a00014176c3,64d2fd46c836a06233681665,64dc7f8ade80fc8d131f2163,,,,,,,sngl,resources/Empty.png,resources/DP.BMP,Door1,0.243027654,-0.005499752,1,0,0,0.5612,optionRight,30,10190,5,15,0,15,0,1,,,,,,,,,,,,,,,,,,,,,,,,,,,,,,,,,,,,,,,
,,,,,,,,2023-08-16_09h09.57.011,HF_wild_card,2022.2.4,MacIntel,59.99520038,597a088221db3a00014176c3,64d2fd46c836a06233681665,64dc7f8ade80fc8d131f2163,,,,,,,decisionTrl,resources/DP.BMP,resources/DBN.BMP,Door1,-0.195300099,-0.006479415,1,0,0,0.9461,optionLeft,30,10220,5,16,0,16,0,1,,,,,,,,,,,,,,,,,,,,,,,,,,,,,,,,,,,,,,,
,,,,,,,,2023-08-16_09h09.57.011,HF_wild_card,2022.2.4,MacIntel,59.99520038,597a088221db3a00014176c3,64d2fd46c836a06233681665,64dc7f8ade80fc8d131f2163,,,,,,,decisionTrl,resources/DB.BMP,resources/DG.BMP,Door4,-0.392925347,-0.00546565,1,0,0,0.8978,optionLeft,80,10300,5,17,0,17,0,1,,,,,,,,,,,,,,,,,,,,,,,,,,,,,,,,,,,,,,,
,,,,,,,,2023-08-16_09h09.57.011,HF_wild_card,2022.2.4,MacIntel,59.99520038,597a088221db3a00014176c3,64d2fd46c836a06233681665,64dc7f8ade80fc8d131f2163,,,,,,,ctch,resources/DP.BMP,resources/DB.BMP,Door4,0.223170883,-0.019720362,1,0,0,0.6118,optionRight,80,10380,5,18,0,18,0,1,,,,,,,,,,,,,,,,,,,,,,,,,,,,,,,,,,,,,,,
,,,,,,,,2023-08-16_09h09.57.011,HF_wild_card,2022.2.4,MacIntel,59.99520038,597a088221db3a00014176c3,64d2fd46c836a06233681665,64dc7f8ade80fc8d131f2163,,,,,,,decisionTrl,resources/DBN.BMP,resources/DP.BMP,Door1,0.307772197,-0.001698909,1,0,0,0.73,optionRight,30,10410,5,19,0,19,0,1,,,,,,,,,,,,,,,,,,,,,,,,,,,,,,,,,,,,,,,
,,,,,,,,2023-08-16_09h09.57.011,HF_wild_card,2022.2.4,MacIntel,59.99520038,597a088221db3a00014176c3,64d2fd46c836a06233681665,64dc7f8ade80fc8d131f2163,,,,,,,decisionTrl,resources/DG.BMP,resources/DB.BMP,Door4,0.346481275,0.009747024,1,0,0,0.7001,optionRight,60,10470,5,20,0,20,0,1,,,,,,,,,,,,,,,,,,,,,,,,,,,,,,,,,,,,,,,
,,,,,,,,2023-08-16_09h09.57.011,HF_wild_card,2022.2.4,MacIntel,59.99520038,597a088221db3a00014176c3,64d2fd46c836a06233681665,64dc7f8ade80fc8d131f2163,,,,,,,decisionTrl,resources/DB.BMP,resources/DG.BMP,Door3,0.250139509,-0.005899678,1,0,0,0.7778,optionRight,70,10540,5,21,0,21,0,1,,,,,,,,,,,,,,,,,,,,,,,,,,,,,,,,,,,,,,,
,,,,,,,,2023-08-16_09h09.57.011,HF_wild_card,2022.2.4,MacIntel,59.99520038,597a088221db3a00014176c3,64d2fd46c836a06233681665,64dc7f8ade80fc8d131f2163,,,,,,,sngl,resources/DY.BMP,resources/Empty.png,WildCard_Ex,-0.274317956,-0.006653026,1,0,0,0.6131,optionLeft,95,10635,5,22,0,22,0,1,,,,,,,,,,,,,,,,,,,,,,,,,,,,,,,,,,,,,,,
,,,,,,,,2023-08-16_09h09.57.011,HF_wild_card,2022.2.4,MacIntel,59.99520038,597a088221db3a00014176c3,64d2fd46c836a06233681665,64dc7f8ade80fc8d131f2163,,,,,,,sngl,resources/Empty.png,resources/DY.BMP,WildCard_Ex,0.259350198,-0.00890997,1,0,0,1.0302,optionRight,5,10640,5,23,0,23,0,1,,,,,,,,,,,,,,,,,,,,,,,,,,,,,,,,,,,,,,,
,,,,,,,,2023-08-16_09h09.57.011,HF_wild_card,2022.2.4,MacIntel,59.99520038,597a088221db3a00014176c3,64d2fd46c836a06233681665,64dc7f8ade80fc8d131f2163,,,,,,,decisionTrl,resources/DB.BMP,resources/DG.BMP,Door4,-0.216223338,-0.009325397,1,0,0,0.6974,optionLeft,60,10700,5,24,0,24,0,1,,,,,,,,,,,,,,,,,,,,,,,,,,,,,,,,,,,,,,,
,,,,,,,,2023-08-16_09h09.57.011,HF_wild_card,2022.2.4,MacIntel,59.99520038,597a088221db3a00014176c3,64d2fd46c836a06233681665,64dc7f8ade80fc8d131f2163,,,,,,,decisionTrl,resources/DBN.BMP,resources/DP.BMP,Door1,0.336780754,-0.015687004,1,0,0,0.6646,optionRight,30,10730,5,25,0,25,0,1,,,,,,,,,,,,,,,,,,,,,,,,,,,,,,,,,,,,,,,
,,,,,,,,2023-08-16_09h09.57.011,HF_wild_card,2022.2.4,MacIntel,59.99520038,597a088221db3a00014176c3,64d2fd46c836a06233681665,64dc7f8ade80fc8d131f2163,,,,,,,decisionTrl,resources/DB.BMP,resources/DG.BMP,Door3,0.407703993,-0.000812252,1,0,0,0.7964,optionRight,70,10800,5,26,0,26,0,1,,,,,,,,,,,,,,,,,,,,,,,,,,,,,,,,,,,,,,,
,,,,,,,,2023-08-16_09h09.57.011,HF_wild_card,2022.2.4,MacIntel,59.99520038,597a088221db3a00014176c3,64d2fd46c836a06233681665,64dc7f8ade80fc8d131f2163,,,,,,,ctch,resources/DG.BMP,resources/DBN.BMP,Door3,-0.279675099,-0.003041295,1,0,0,1.2478,optionLeft,70,10870,5,27,0,27,0,1,,,,,,,,,,,,,,,,,,,,,,,,,,,,,,,,,,,,,,,
,,,,,,,,2023-08-16_09h09.57.011,HF_wild_card,2022.2.4,MacIntel,59.99520038,597a088221db3a00014176c3,64d2fd46c836a06233681665,64dc7f8ade80fc8d131f2163,,,,,,,ctch,resources/DB.BMP,resources/DP.BMP,Door4,-0.259406002,-0.053921751,1,0,0,1.1321,optionLeft,80,10950,5,28,0,28,0,1,,,,,,,,,,,,,,,,,,,,,,,,,,,,,,,,,,,,,,,
,,,,,,,,2023-08-16_09h09.57.011,HF_wild_card,2022.2.4,MacIntel,59.99520038,597a088221db3a00014176c3,64d2fd46c836a06233681665,64dc7f8ade80fc8d131f2163,,,,,,,decisionTrl,resources/DP.BMP,resources/DBN.BMP,Door1,-0.183671255,-0.026072669,1,0,0,0.9856,optionLeft,30,10980,5,29,0,29,0,1,,,,,,,,,,,,,,,,,,,,,,,,,,,,,,,,,,,,,,,
,,,,,,,,2023-08-16_09h09.57.011,HF_wild_card,2022.2.4,MacIntel,59.99520038,597a088221db3a00014176c3,64d2fd46c836a06233681665,64dc7f8ade80fc8d131f2163,,,,,,,decisionTrl,resources/DG.BMP,resources/DB.BMP,Door4,0.298918031,-0.048446801,1,0,0,0.7305,optionRight,80,11060,5,30,0,30,0,1,,,,,,,,,,,,,,,,,,,,,,,,,,,,,,,,,,,,,,,
,,,,,,,,2023-08-16_09h09.57.011,HF_wild_card,2022.2.4,MacIntel,59.99520038,597a088221db3a00014176c3,64d2fd46c836a06233681665,64dc7f8ade80fc8d131f2163,,,,,,,sngl,resources/Empty.png,resources/DG.BMP,Door3,0.280354043,-0.043328373,1,0,0,0.5892,optionRight,70,11130,5,31,0,31,0,1,,,,,,,,,,,,,,,,,,,,,,,,,,,,,,,,,,,,,,,
,,,,,,,,2023-08-16_09h09.57.011,HF_wild_card,2022.2.4,MacIntel,59.99520038,597a088221db3a00014176c3,64d2fd46c836a06233681665,64dc7f8ade80fc8d131f2163,,,,,,,decisionTrl,resources/DB.BMP,resources/DY.BMP,Door4,-0.312605407,-0.040829613,1,0,0,0.75,optionLeft,60,11190,5,32,0,32,0,1,,,,,,,,,,,,,,,,,,,,,,,,,,,,,,,,,,,,,,,
,,,,,,,,2023-08-16_09h09.57.011,HF_wild_card,2022.2.4,MacIntel,59.99520038,597a088221db3a00014176c3,64d2fd46c836a06233681665,64dc7f8ade80fc8d131f2163,,,,,,,decisionTrl,resources/DBN.BMP,resources/DY.BMP,WildCard_Ex,0.315349082,-0.021388269,1,0,0,0.562,optionRight,5,11195,5,33,0,33,0,1,,,,,,,,,,,,,,,,,,,,,,,,,,,,,,,,,,,,,,,
,,,,,,,,2023-08-16_09h09.57.011,HF_wild_card,2022.2.4,MacIntel,59.99520038,597a088221db3a00014176c3,64d2fd46c836a06233681665,64dc7f8ade80fc8d131f2163,,,,,,,decisionTrl,resources/DP.BMP,resources/DBN.BMP,Door1,-0.313070437,-0.001739211,1,0,0,0.6475,optionLeft,30,11225,5,34,0,34,0,1,,,,,,,,,,,,,,,,,,,,,,,,,,,,,,,,,,,,,,,
,,,,,,,,2023-08-16_09h09.57.011,HF_wild_card,2022.2.4,MacIntel,59.99520038,597a088221db3a00014176c3,64d2fd46c836a06233681665,64dc7f8ade80fc8d131f2163,,,,,,,sngl,resources/Empty.png,resources/DB.BMP,Door4,0.257573785,-0.015070064,1,0,0,0.4952,optionRight,60,11285,5,35,0,35,0,1,,,,,,,,,,,,,,,,,,,,,,,,,,,,,,,,,,,,,,,
,,,,,,,,2023-08-16_09h09.57.011,HF_wild_card,2022.2.4,MacIntel,59.99520038,597a088221db3a00014176c3,64d2fd46c836a06233681665,64dc7f8ade80fc8d131f2163,,,,,,,decisionTrl,resources/DG.BMP,resources/DB.BMP,Door3,-0.249990699,0.009002976,1,0,0,0.7643,optionLeft,70,11355,5,36,0,36,0,1,,,,,,,,,,,,,,,,,,,,,,,,,,,,,,,,,,,,,,,
,,,,,,,,2023-08-16_09h09.57.011,HF_wild_card,2022.2.4,MacIntel,59.99520038,597a088221db3a00014176c3,64d2fd46c836a06233681665,64dc7f8ade80fc8d131f2163,,,,,,,sngl,resources/Empty.png,resources/DY.BMP,WildCard_Ex,0.22624628,-0.014676339,1,0,0,0.5302,optionRight,95,11450,5,37,0,37,0,1,,,,,,,,,,,,,,,,,,,,,,,,,,,,,,,,,,,,,,,
,,,,,,,,2023-08-16_09h09.57.011,HF_wild_card,2022.2.4,MacIntel,59.99520038,597a088221db3a00014176c3,64d2fd46c836a06233681665,64dc7f8ade80fc8d131f2163,,,,,,,ctch,resources/DG.BMP,resources/DBN.BMP,Door3,-0.263758681,0.00406436,1,0,0,0.8147,optionLeft,70,11520,5,38,0,38,0,1,,,,,,,,,,,,,,,,,,,,,,,,,,,,,,,,,,,,,,,
,,,,,,,,2023-08-16_09h09.57.011,HF_wild_card,2022.2.4,MacIntel,59.99520038,597a088221db3a00014176c3,64d2fd46c836a06233681665,64dc7f8ade80fc8d131f2163,,,,,,,sngl,resources/Empty.png,resources/DBN.BMP,Door2,0.306622024,0.004516989,1,0,0,1.351,optionRight,20,11540,5,39,0,39,0,1,,,,,,,,,,,,,,,,,,,,,,,,,,,,,,,,,,,,,,,
,,,,,,,,2023-08-16_09h09.57.011,HF_wild_card,2022.2.4,MacIntel,59.99520038,597a088221db3a00014176c3,64d2fd46c836a06233681665,64dc7f8ade80fc8d131f2163,,,,,,,decisionTrl,resources/DP.BMP,resources/DY.BMP,WildCard_Ex,0.317469618,-0.005654762,1,0,0,0.8987,optionRight,95,11635,5,40,0,40,0,1,,,,,,,,,,,,,,,,,,,,,,,,,,,,,,,,,,,,,,,
,,,,,,,,2023-08-16_09h09.57.011,HF_wild_card,2022.2.4,MacIntel,59.99520038,597a088221db3a00014176c3,64d2fd46c836a06233681665,64dc7f8ade80fc8d131f2163,,,,,,,sngl,resources/DG.BMP,resources/Empty.png,Door3,-0.301466394,0.009663318,1,0,0,0.697,optionLeft,70,11705,5,41,0,41,0,1,,,,,,,,,,,,,,,,,,,,,,,,,,,,,,,,,,,,,,,
,,,,,,,,2023-08-16_09h09.57.011,HF_wild_card,2022.2.4,MacIntel,59.99520038,597a088221db3a00014176c3,64d2fd46c836a06233681665,64dc7f8ade80fc8d131f2163,,,,,,,decisionTrl,resources/DY.BMP,resources/DP.BMP,Door1,0.273682416,-0.01764943,1,0,0,0.5973,optionRight,30,11735,5,42,0,42,0,1,,,,,,,,,,,,,,,,,,,,,,,,,,,,,,,,,,,,,,,
,,,,,,,,2023-08-16_09h09.57.011,HF_wild_card,2022.2.4,MacIntel,59.99520038,597a088221db3a00014176c3,64d2fd46c836a06233681665,64dc7f8ade80fc8d131f2163,,,,,,,decisionTrl,resources/DY.BMP,resources/DBN.BMP,WildCard_Ex,-0.396397569,-0.014567832,1,0,0,1.4146,optionLeft,5,11740,5,43,0,43,0,1,,,,,,,,,,,,,,,,,,,,,,,,,,,,,,,,,,,,,,,
,,,,,,,,2023-08-16_09h09.57.011,HF_wild_card,2022.2.4,MacIntel,59.99520038,597a088221db3a00014176c3,64d2fd46c836a06233681665,64dc7f8ade80fc8d131f2163,,,,,,,,,,,,,,,,,,,,,,,,,,4,0,4,0,1,,,,,,,,,,,,,,,,,,,,,,,,,,,,,,,,,,
,,,,,,,,2023-08-16_09h09.57.011,HF_wild_card,2022.2.4,MacIntel,59.99520038,597a088221db3a00014176c3,64d2fd46c836a06233681665,64dc7f8ade80fc8d131f2163,,,,,,,decisionTrl,resources/DB.BMP,resources/DG.BMP,Door4,-0.252436756,-0.076627604,1,0,0,0.8558,optionLeft,80,11820,6,0,0,0,0,1,,,,,,,,,,,,,,,,,,,,,,,,,,,,,,,,,,,,,,,
,,,,,,,,2023-08-16_09h09.57.011,HF_wild_card,2022.2.4,MacIntel,59.99520038,597a088221db3a00014176c3,64d2fd46c836a06233681665,64dc7f8ade80fc8d131f2163,,,,,,,ctch,resources/DB.BMP,resources/DP.BMP,Door4,-0.238616071,-0.03047495,1,0,0,0.8806,optionLeft,80,11900,6,1,0,1,0,1,,,,,,,,,,,,,,,,,,,,,,,,,,,,,,,,,,,,,,,
,,,,,,,,2023-08-16_09h09.57.011,HF_wild_card,2022.2.4,MacIntel,59.99520038,597a088221db3a00014176c3,64d2fd46c836a06233681665,64dc7f8ade80fc8d131f2163,,,,,,,decisionTrl,resources/DB.BMP,resources/DG.BMP,Door4,-0.284291295,-0.024007937,1,0,0,0.7488,optionLeft,80,11980,6,2,0,2,0,1,,,,,,,,,,,,,,,,,,,,,,,,,,,,,,,,,,,,,,,
,,,,,,,,2023-08-16_09h09.57.011,HF_wild_card,2022.2.4,MacIntel,59.99520038,597a088221db3a00014176c3,64d2fd46c836a06233681665,64dc7f8ade80fc8d131f2163,,,,,,,decisionTrl,resources/DY.BMP,resources/DB.BMP,Door4,0.225874256,-0.009867932,1,0,0,1.0977,optionRight,80,12060,6,3,0,3,0,1,,,,,,,,,,,,,,,,,,,,,,,,,,,,,,,,,,,,,,,
,,,,,,,,2023-08-16_09h09.57.011,HF_wild_card,2022.2.4,MacIntel,59.99520038,597a088221db3a00014176c3,64d2fd46c836a06233681665,64dc7f8ade80fc8d131f2163,,,,,,,sngl,resources/Empty.png,resources/DY.BMP,WildCard_Ex,0.393821305,0.00124938,1,0,0,0.5673,optionRight,95,12155,6,4,0,4,0,1,,,,,,,,,,,,,,,,,,,,,,,,,,,,,,,,,,,,,,,
,,,,,,,,2023-08-16_09h09.57.011,HF_wild_card,2022.2.4,MacIntel,59.99520038,597a088221db3a00014176c3,64d2fd46c836a06233681665,64dc7f8ade80fc8d131f2163,,,,,,,decisionTrl,resources/DP.BMP,resources/DBN.BMP,Door1,-0.22671441,-0.059120784,1,0,0,1.2618,optionLeft,30,12185,6,5,0,5,0,1,,,,,,,,,,,,,,,,,,,,,,,,,,,,,,,,,,,,,,,
,,,,,,,,2023-08-16_09h09.57.011,HF_wild_card,2022.2.4,MacIntel,59.99520038,597a088221db3a00014176c3,64d2fd46c836a06233681665,64dc7f8ade80fc8d131f2163,,,,,,,decisionTrl,resources/DB.BMP,resources/DG.BMP,Door4,-0.211207217,-0.024311756,1,0,0,0.8459,optionLeft,80,12265,6,6,0,6,0,1,,,,,,,,,,,,,,,,,,,,,,,,,,,,,,,,,,,,,,,
,,,,,,,,2023-08-16_09h09.57.011,HF_wild_card,2022.2.4,MacIntel,59.99520038,597a088221db3a00014176c3,64d2fd46c836a06233681665,64dc7f8ade80fc8d131f2163,,,,,,,decisionTrl,resources/DBN.BMP,resources/DP.BMP,Door1,0.236833457,-0.009821429,1,0,0,1.0141,optionRight,30,12295,6,7,0,7,0,1,,,,,,,,,,,,,,,,,,,,,,,,,,,,,,,,,,,,,,,
,,,,,,,,2023-08-16_09h09.57.011,HF_wild_card,2022.2.4,MacIntel,59.99520038,597a088221db3a00014176c3,64d2fd46c836a06233681665,64dc7f8ade80fc8d131f2163,,,,,,,sngl,resources/DB.BMP,resources/Empty.png,Door4,-0.324364459,-0.026909722,1,0,0,0.6977,optionLeft,60,12355,6,8,0,8,0,1,,,,,,,,,,,,,,,,,,,,,,,,,,,,,,,,,,,,,,,
,,,,,,,,2023-08-16_09h09.57.011,HF_wild_card,2022.2.4,MacIntel,59.99520038,597a088221db3a00014176c3,64d2fd46c836a06233681665,64dc7f8ade80fc8d131f2163,,,,,,,decisionTrl,resources/DY.BMP,resources/DG.BMP,Door3,0.275545635,-0.023428199,1,0,0,1.1498,optionRight,70,12425,6,9,0,9,0,1,,,,,,,,,,,,,,,,,,,,,,,,,,,,,,,,,,,,,,,
,,,,,,,,2023-08-16_09h09.57.011,HF_wild_card,2022.2.4,MacIntel,59.99520038,597a088221db3a00014176c3,64d2fd46c836a06233681665,64dc7f8ade80fc8d131f2163,,,,,,,decisionTrl,resources/DBN.BMP,resources/DP.BMP,Door1,0.355592758,-0.018920511,1,0,0,0.6833,optionRight,30,12455,6,10,0,10,0,1,,,,,,,,,,,,,,,,,,,,,,,,,,,,,,,,,,,,,,,
,,,,,,,,2023-08-16_09h09.57.011,HF_wild_card,2022.2.4,MacIntel,59.99520038,597a088221db3a00014176c3,64d2fd46c836a06233681665,64dc7f8ade80fc8d131f2163,,,,,,,sngl,resources/Empty.png,resources/DBN.BMP,Door2,0.279591394,-0.019599454,1,0,0,0.6635,optionRight,40,12495,6,11,0,11,0,1,,,,,,,,,,,,,,,,,,,,,,,,,,,,,,,,,,,,,,,
,,,,,,,,2023-08-16_09h09.57.011,HF_wild_card,2022.2.4,MacIntel,59.99520038,597a088221db3a00014176c3,64d2fd46c836a06233681665,64dc7f8ade80fc8d131f2163,,,,,,,sngl,resources/Empty.png,resources/DB.BMP,Door4,0.228782242,-0.025189112,1,0,0,0.5478,optionRight,80,12575,6,12,0,12,0,1,,,,,,,,,,,,,,,,,,,,,,,,,,,,,,,,,,,,,,,
,,,,,,,,2023-08-16_09h09.57.011,HF_wild_card,2022.2.4,MacIntel,59.99520038,597a088221db3a00014176c3,64d2fd46c836a06233681665,64dc7f8ade80fc8d131f2163,,,,,,,ctch,resources/DBN.BMP,resources/DG.BMP,Door3,0.306829737,-0.021146453,1,0,0,0.8315,optionRight,70,12645,6,13,0,13,0,1,,,,,,,,,,,,,,,,,,,,,,,,,,,,,,,,,,,,,,,
,,,,,,,,2023-08-16_09h09.57.011,HF_wild_card,2022.2.4,MacIntel,59.99520038,597a088221db3a00014176c3,64d2fd46c836a06233681665,64dc7f8ade80fc8d131f2163,,,,,,,decisionTrl,resources/DY.BMP,resources/DBN.BMP,WildCard_Ex,-0.317838542,-0.026416791,1,0,0,1.5813,optionLeft,5,12650,6,14,0,14,0,1,,,,,,,,,,,,,,,,,,,,,,,,,,,,,,,,,,,,,,,
,,,,,,,,2023-08-16_09h09.57.011,HF_wild_card,2022.2.4,MacIntel,59.99520038,597a088221db3a00014176c3,64d2fd46c836a06233681665,64dc7f8ade80fc8d131f2163,,,,,,,decisionTrl,resources/DY.BMP,resources/DP.BMP,WildCard_Ex,-0.27296317,-0.018610491,1,0,0,0.6483,optionLeft,5,12655,6,15,0,15,0,1,,,,,,,,,,,,,,,,,,,,,,,,,,,,,,,,,,,,,,,
,,,,,,,,2023-08-16_09h09.57.011,HF_wild_card,2022.2.4,MacIntel,59.99520038,597a088221db3a00014176c3,64d2fd46c836a06233681665,64dc7f8ade80fc8d131f2163,,,,,,,decisionTrl,resources/DG.BMP,resources/DB.BMP,Door4,0.382353671,-0.022705853,1,0,0,1.0605,optionRight,80,12735,6,16,0,16,0,1,,,,,,,,,,,,,,,,,,,,,,,,,,,,,,,,,,,,,,,
,,,,,,,,2023-08-16_09h09.57.011,HF_wild_card,2022.2.4,MacIntel,59.99520038,597a088221db3a00014176c3,64d2fd46c836a06233681665,64dc7f8ade80fc8d131f2163,,,,,,,decisionTrl,resources/DBN.BMP,resources/DY.BMP,WildCard_Ex,0.29547371,-0.015625,1,0,0,2.6009,optionRight,5,12740,6,17,0,17,0,1,,,,,,,,,,,,,,,,,,,,,,,,,,,,,,,,,,,,,,,
,,,,,,,,2023-08-16_09h09.57.011,HF_wild_card,2022.2.4,MacIntel,59.99520038,597a088221db3a00014176c3,64d2fd46c836a06233681665,64dc7f8ade80fc8d131f2163,,,,,,,sngl,resources/DP.BMP,resources/Empty.png,Door1,-0.221332465,-0.014567832,1,0,0,0.5811,optionLeft,30,12770,6,18,0,18,0,1,,,,,,,,,,,,,,,,,,,,,,,,,,,,,,,,,,,,,,,
,,,,,,,,2023-08-16_09h09.57.011,HF_wild_card,2022.2.4,MacIntel,59.99520038,597a088221db3a00014176c3,64d2fd46c836a06233681665,64dc7f8ade80fc8d131f2163,,,,,,,decisionTrl,resources/DBN.BMP,resources/DP.BMP,Door1,0.328729539,-0.02077753,1,0,0,0.85,optionRight,30,12800,6,19,0,19,0,1,,,,,,,,,,,,,,,,,,,,,,,,,,,,,,,,,,,,,,,
,,,,,,,,2023-08-16_09h09.57.011,HF_wild_card,2022.2.4,MacIntel,59.99520038,597a088221db3a00014176c3,64d2fd46c836a06233681665,64dc7f8ade80fc8d131f2163,,,,,,,sngl,resources/DBN.BMP,resources/Empty.png,Door2,-0.293213666,-0.019559152,1,0,0,0.5323,optionLeft,20,12820,6,20,0,20,0,1,,,,,,,,,,,,,,,,,,,,,,,,,,,,,,,,,,,,,,,
,,,,,,,,2023-08-16_09h09.57.011,HF_wild_card,2022.2.4,MacIntel,59.99520038,597a088221db3a00014176c3,64d2fd46c836a06233681665,64dc7f8ade80fc8d131f2163,,,,,,,decisionTrl,resources/DP.BMP,resources/DBN.BMP,Door1,-0.345492312,-0.017302207,1,0,0,1.35,optionLeft,30,12850,6,21,0,21,0,1,,,,,,,,,,,,,,,,,,,,,,,,,,,,,,,,,,,,,,,
,,,,,,,,2023-08-16_09h09.57.011,HF_wild_card,2022.2.4,MacIntel,59.99520038,597a088221db3a00014176c3,64d2fd46c836a06233681665,64dc7f8ade80fc8d131f2163,,,,,,,decisionTrl,resources/DG.BMP,resources/DB.BMP,Door4,0.256302703,-0.034030878,1,0,0,1.1823,optionRight,80,12930,6,22,0,22,0,1,,,,,,,,,,,,,,,,,,,,,,,,,,,,,,,,,,,,,,,
,,,,,,,,2023-08-16_09h09.57.011,HF_wild_card,2022.2.4,MacIntel,59.99520038,597a088221db3a00014176c3,64d2fd46c836a06233681665,64dc7f8ade80fc8d131f2163,,,,,,,decisionTrl,resources/DBN.BMP,resources/DP.BMP,Door1,0.296961806,-0.006377108,1,0,0,1.5465,optionRight,30,12960,6,23,0,23,0,1,,,,,,,,,,,,,,,,,,,,,,,,,,,,,,,,,,,,,,,
,,,,,,,,2023-08-16_09h09.57.011,HF_wild_card,2022.2.4,MacIntel,59.99520038,597a088221db3a00014176c3,64d2fd46c836a06233681665,64dc7f8ade80fc8d131f2163,,,,,,,sngl,resources/Empty.png,resources/DY.BMP,WildCard_Ex,0.332784598,-0.012763517,1,0,0,0.7139,optionRight,5,12965,6,24,0,24,0,1,,,,,,,,,,,,,,,,,,,,,,,,,,,,,,,,,,,,,,,
,,,,,,,,2023-08-16_09h09.57.011,HF_wild_card,2022.2.4,MacIntel,59.99520038,597a088221db3a00014176c3,64d2fd46c836a06233681665,64dc7f8ade80fc8d131f2163,,,,,,,decisionTrl,resources/DB.BMP,resources/DY.BMP,Door4,-0.283807664,-0.014363219,1,0,0,0.7316,optionLeft,60,13025,6,25,0,25,0,1,,,,,,,,,,,,,,,,,,,,,,,,,,,,,,,,,,,,,,,
,,,,,,,,2023-08-16_09h09.57.011,HF_wild_card,2022.2.4,MacIntel,59.99520038,597a088221db3a00014176c3,64d2fd46c836a06233681665,64dc7f8ade80fc8d131f2163,,,,,,,ctch,resources/DG.BMP,resources/DBN.BMP,Door3,-0.35077505,-0.004913814,1,0,0,1.0796,optionLeft,70,13095,6,26,0,26,0,1,,,,,,,,,,,,,,,,,,,,,,,,,,,,,,,,,,,,,,,
,,,,,,,,2023-08-16_09h09.57.011,HF_wild_card,2022.2.4,MacIntel,59.99520038,597a088221db3a00014176c3,64d2fd46c836a06233681665,64dc7f8ade80fc8d131f2163,,,,,,,sngl,resources/Empty.png,resources/DP.BMP,Door1,0.490063864,0.006997148,1,0,0,0.5453,optionRight,30,13125,6,27,0,27,0,1,,,,,,,,,,,,,,,,,,,,,,,,,,,,,,,,,,,,,,,
,,,,,,,,2023-08-16_09h09.57.011,HF_wild_card,2022.2.4,MacIntel,59.99520038,597a088221db3a00014176c3,64d2fd46c836a06233681665,64dc7f8ade80fc8d131f2163,,,,,,,ctch,resources/DG.BMP,resources/DBN.BMP,Door3,-0.349153646,-0.012224082,1,0,0,0.9807,optionLeft,70,13195,6,28,0,28,0,1,,,,,,,,,,,,,,,,,,,,,,,,,,,,,,,,,,,,,,,
,,,,,,,,2023-08-16_09h09.57.011,HF_wild_card,2022.2.4,MacIntel,59.99520038,597a088221db3a00014176c3,64d2fd46c836a06233681665,64dc7f8ade80fc8d131f2163,,,,,,,sngl,resources/DY.BMP,resources/Empty.png,WildCard_Ex,-0.268759301,-0.010022941,1,0,0,0.5629,optionLeft,5,13200,6,29,0,29,0,1,,,,,,,,,,,,,,,,,,,,,,,,,,,,,,,,,,,,,,,
,,,,,,,,2023-08-16_09h09.57.011,HF_wild_card,2022.2.4,MacIntel,59.99520038,597a088221db3a00014176c3,64d2fd46c836a06233681665,64dc7f8ade80fc8d131f2163,,,,,,,ctch,resources/DB.BMP,resources/DP.BMP,Door4,-0.243846106,-0.008603051,1,0,0,0.8635,optionLeft,80,13280,6,30,0,30,0,1,,,,,,,,,,,,,,,,,,,,,,,,,,,,,,,,,,,,,,,
,,,,,,,,2023-08-16_09h09.57.011,HF_wild_card,2022.2.4,MacIntel,59.99520038,597a088221db3a00014176c3,64d2fd46c836a06233681665,64dc7f8ade80fc8d131f2163,,,,,,,decisionTrl,resources/DG.BMP,resources/DB.BMP,Door4,0.325452629,-0.038882688,1,0,0,0.9011,optionRight,60,13340,6,31,0,31,0,1,,,,,,,,,,,,,,,,,,,,,,,,,,,,,,,,,,,,,,,
,,,,,,,,2023-08-16_09h09.57.011,HF_wild_card,2022.2.4,MacIntel,59.99520038,597a088221db3a00014176c3,64d2fd46c836a06233681665,64dc7f8ade80fc8d131f2163,,,,,,,decisionTrl,resources/DG.BMP,resources/DB.BMP,Door3,-0.239291915,-0.016024926,1,0,0,0.8178,optionLeft,70,13410,6,32,0,32,0,1,,,,,,,,,,,,,,,,,,,,,,,,,,,,,,,,,,,,,,,
,,,,,,,,2023-08-16_09h09.57.011,HF_wild_card,2022.2.4,MacIntel,59.99520038,597a088221db3a00014176c3,64d2fd46c836a06233681665,64dc7f8ade80fc8d131f2163,,,,,,,sngl,resources/DG.BMP,resources/Empty.png,Door3,-0.336932664,-0.015764509,1,0,0,0.5148,optionLeft,70,13480,6,33,0,33,0,1,,,,,,,,,,,,,,,,,,,,,,,,,,,,,,,,,,,,,,,
,,,,,,,,2023-08-16_09h09.57.011,HF_wild_card,2022.2.4,MacIntel,59.99520038,597a088221db3a00014176c3,64d2fd46c836a06233681665,64dc7f8ade80fc8d131f2163,,,,,,,decisionTrl,resources/DP.BMP,resources/DBN.BMP,Door2,0.261969866,-0.040166171,1,0,0,1.1633,optionRight,40,13520,6,34,0,34,0,1,,,,,,,,,,,,,,,,,,,,,,,,,,,,,,,,,,,,,,,
,,,,,,,,2023-08-16_09h09.57.011,HF_wild_card,2022.2.4,MacIntel,59.99520038,597a088221db3a00014176c3,64d2fd46c836a06233681665,64dc7f8ade80fc8d131f2163,,,,,,,decisionTrl,resources/DP.BMP,resources/DBN.BMP,Door2,0.330391245,-0.016307044,1,0,0,0.6495,optionRight,40,13560,6,35,0,35,0,1,,,,,,,,,,,,,,,,,,,,,,,,,,,,,,,,,,,,,,,
,,,,,,,,2023-08-16_09h09.57.011,HF_wild_card,2022.2.4,MacIntel,59.99520038,597a088221db3a00014176c3,64d2fd46c836a06233681665,64dc7f8ade80fc8d131f2163,,,,,,,ctch,resources/DBN.BMP,resources/DG.BMP,Door3,0.481938244,-0.03656374,1,0,0,0.8667,optionRight,70,13630,6,36,0,36,0,1,,,,,,,,,,,,,,,,,,,,,,,,,,,,,,,,,,,,,,,
,,,,,,,,2023-08-16_09h09.57.011,HF_wild_card,2022.2.4,MacIntel,59.99520038,597a088221db3a00014176c3,64d2fd46c836a06233681665,64dc7f8ade80fc8d131f2163,,,,,,,sngl,resources/DY.BMP,resources/Empty.png,WildCard_Ex,-0.287087674,-0.025117808,1,0,0,0.4799,optionLeft,95,13725,6,37,0,37,0,1,,,,,,,,,,,,,,,,,,,,,,,,,,,,,,,,,,,,,,,
,,,,,,,,2023-08-16_09h09.57.011,HF_wild_card,2022.2.4,MacIntel,59.99520038,597a088221db3a00014176c3,64d2fd46c836a06233681665,64dc7f8ade80fc8d131f2163,,,,,,,decisionTrl,resources/DB.BMP,resources/DG.BMP,Door4,-0.215262277,-0.022891865,1,0,0,0.6466,optionLeft,60,13785,6,38,0,38,0,1,,,,,,,,,,,,,,,,,,,,,,,,,,,,,,,,,,,,,,,
,,,,,,,,2023-08-16_09h09.57.011,HF_wild_card,2022.2.4,MacIntel,59.99520038,597a088221db3a00014176c3,64d2fd46c836a06233681665,64dc7f8ade80fc8d131f2163,,,,,,,ctch,resources/DP.BMP,resources/DB.BMP,Door4,0.286941964,-0.044295635,1,0,0,0.7152,optionRight,80,13865,6,39,0,39,0,1,,,,,,,,,,,,,,,,,,,,,,,,,,,,,,,,,,,,,,,
,,,,,,,,2023-08-16_09h09.57.011,HF_wild_card,2022.2.4,MacIntel,59.99520038,597a088221db3a00014176c3,64d2fd46c836a06233681665,64dc7f8ade80fc8d131f2163,,,,,,,sngl,resources/Empty.png,resources/DG.BMP,Door3,0.314000496,-0.029011657,1,0,0,0.4977,optionRight,70,13935,6,40,0,40,0,1,,,,,,,,,,,,,,,,,,,,,,,,,,,,,,,,,,,,,,,
,,,,,,,,2023-08-16_09h09.57.011,HF_wild_card,2022.2.4,MacIntel,59.99520038,597a088221db3a00014176c3,64d2fd46c836a06233681665,64dc7f8ade80fc8d131f2163,,,,,,,decisionTrl,resources/DG.BMP,resources/DY.BMP,WildCard_Ex,0.330890377,-0.038237847,1,0,0,0.9303,optionRight,95,14030,6,41,0,41,0,1,,,,,,,,,,,,,,,,,,,,,,,,,,,,,,,,,,,,,,,
,,,,,,,,2023-08-16_09h09.57.011,HF_wild_card,2022.2.4,MacIntel,59.99520038,597a088221db3a00014176c3,64d2fd46c836a06233681665,64dc7f8ade80fc8d131f2163,,,,,,,decisionTrl,resources/DP.BMP,resources/DY.BMP,Door1,-0.238005332,-0.032446677,1,0,0,1.0499,optionLeft,30,14060,6,42,0,42,0,1,,,,,,,,,,,,,,,,,,,,,,,,,,,,,,,,,,,,,,,
,,,,,,,,2023-08-16_09h09.57.011,HF_wild_card,2022.2.4,MacIntel,59.99520038,597a088221db3a00014176c3,64d2fd46c836a06233681665,64dc7f8ade80fc8d131f2163,,,,,,,ctch,resources/DP.BMP,resources/DB.BMP,Door4,0.22313058,-0.032883805,1,0,0,0.6445,optionRight,60,14120,6,43,0,43,0,1,,,,,,,,,,,,,,,,,,,,,,,,,,,,,,,,,,,,,,,
,,,,,,,,2023-08-16_09h09.57.011,HF_wild_card,2022.2.4,MacIntel,59.99520038,597a088221db3a00014176c3,64d2fd46c836a06233681665,64dc7f8ade80fc8d131f2163,,,,,,,,,,,,,,,,,,,,,,,,,,5,0,5,0,1,,,,,,,,,,,,,,,,,,,,,,,,,,,,,,,,,,
,,,,,,,,2023-08-16_09h09.57.011,HF_wild_card,2022.2.4,MacIntel,59.99520038,597a088221db3a00014176c3,64d2fd46c836a06233681665,64dc7f8ade80fc8d131f2163,,,,,,,ctch,resources/DB.BMP,resources/DP.BMP,Door4,-0.268706597,-0.110742188,1,0,0,0.932,optionLeft,80,14200,7,0,0,0,0,1,,,,,,,,,,,,,,,,,,,,,,,,,,,,,,,,,,,,,,,
,,,,,,,,2023-08-16_09h09.57.011,HF_wild_card,2022.2.4,MacIntel,59.99520038,597a088221db3a00014176c3,64d2fd46c836a06233681665,64dc7f8ade80fc8d131f2163,,,,,,,decisionTrl,resources/DB.BMP,resources/DG.BMP,Door4,-0.307930308,-0.036452133,1,0,0,1.3688,optionLeft,60,14260,7,1,0,1,0,1,,,,,,,,,,,,,,,,,,,,,,,,,,,,,,,,,,,,,,,
,,,,,,,,2023-08-16_09h09.57.011,HF_wild_card,2022.2.4,MacIntel,59.99520038,597a088221db3a00014176c3,64d2fd46c836a06233681665,64dc7f8ade80fc8d131f2163,,,,,,,decisionTrl,resources/DB.BMP,resources/DG.BMP,Door3,0.370231895,-0.04453435,1,0,0,0.65,optionRight,70,14330,7,2,0,2,0,1,,,,,,,,,,,,,,,,,,,,,,,,,,,,,,,,,,,,,,,
,,,,,,,,2023-08-16_09h09.57.011,HF_wild_card,2022.2.4,MacIntel,59.99520038,597a088221db3a00014176c3,64d2fd46c836a06233681665,64dc7f8ade80fc8d131f2163,,,,,,,decisionTrl,resources/DP.BMP,resources/DBN.BMP,Door1,-0.255059524,-0.04594494,1,0,0,1.0498,optionLeft,30,14360,7,3,0,3,0,1,,,,,,,,,,,,,,,,,,,,,,,,,,,,,,,,,,,,,,,
,,,,,,,,2023-08-16_09h09.57.011,HF_wild_card,2022.2.4,MacIntel,59.99520038,597a088221db3a00014176c3,64d2fd46c836a06233681665,64dc7f8ade80fc8d131f2163,,,,,,,ctch,resources/DBN.BMP,resources/DG.BMP,Door3,0.388095238,-0.037757316,1,0,0,0.6987,optionRight,70,14430,7,4,0,4,0,1,,,,,,,,,,,,,,,,,,,,,,,,,,,,,,,,,,,,,,,
,,,,,,,,2023-08-16_09h09.57.011,HF_wild_card,2022.2.4,MacIntel,59.99520038,597a088221db3a00014176c3,64d2fd46c836a06233681665,64dc7f8ade80fc8d131f2163,,,,,,,decisionTrl,resources/DBN.BMP,resources/DP.BMP,Door1,0.336328125,-0.03202505,1,0,0,0.951,optionRight,30,14460,7,5,0,5,0,1,,,,,,,,,,,,,,,,,,,,,,,,,,,,,,,,,,,,,,,
,,,,,,,,2023-08-16_09h09.57.011,HF_wild_card,2022.2.4,MacIntel,59.99520038,597a088221db3a00014176c3,64d2fd46c836a06233681665,64dc7f8ade80fc8d131f2163,,,,,,,decisionTrl,resources/DG.BMP,resources/DB.BMP,Door4,0.311771453,-0.02922247,1,0,0,0.9833,optionRight,80,14540,7,6,0,6,0,1,,,,,,,,,,,,,,,,,,,,,,,,,,,,,,,,,,,,,,,
,,,,,,,,2023-08-16_09h09.57.011,HF_wild_card,2022.2.4,MacIntel,59.99520038,597a088221db3a00014176c3,64d2fd46c836a06233681665,64dc7f8ade80fc8d131f2163,,,,,,,decisionTrl,resources/DBN.BMP,resources/DP.BMP,Door1,0.402123636,-0.029417783,1,0,0,0.6319,optionRight,30,14570,7,7,0,7,0,1,,,,,,,,,,,,,,,,,,,,,,,,,,,,,,,,,,,,,,,
,,,,,,,,2023-08-16_09h09.57.011,HF_wild_card,2022.2.4,MacIntel,59.99520038,597a088221db3a00014176c3,64d2fd46c836a06233681665,64dc7f8ade80fc8d131f2163,,,,,,,decisionTrl,resources/DB.BMP,resources/DG.BMP,Door4,-0.242664931,0.002170139,1,0,0,0.6984,optionLeft,80,14650,7,8,0,8,0,1,,,,,,,,,,,,,,,,,,,,,,,,,,,,,,,,,,,,,,,
,,,,,,,,2023-08-16_09h09.57.011,HF_wild_card,2022.2.4,MacIntel,59.99520038,597a088221db3a00014176c3,64d2fd46c836a06233681665,64dc7f8ade80fc8d131f2163,,,,,,,decisionTrl,resources/DBN.BMP,resources/DP.BMP,Door1,0.348484003,-0.011483135,1,0,0,0.6294,optionRight,30,14680,7,9,0,9,0,1,,,,,,,,,,,,,,,,,,,,,,,,,,,,,,,,,,,,,,,
,,,,,,,,2023-08-16_09h09.57.011,HF_wild_card,2022.2.4,MacIntel,59.99520038,597a088221db3a00014176c3,64d2fd46c836a06233681665,64dc7f8ade80fc8d131f2163,,,,,,,decisionTrl,resources/DP.BMP,resources/DBN.BMP,Door1,-0.319726562,-0.001515997,1,0,0,0.8152,optionLeft,30,14710,7,10,0,10,0,1,,,,,,,,,,,,,,,,,,,,,,,,,,,,,,,,,,,,,,,
,,,,,,,,2023-08-16_09h09.57.011,HF_wild_card,2022.2.4,MacIntel,59.99520038,597a088221db3a00014176c3,64d2fd46c836a06233681665,64dc7f8ade80fc8d131f2163,,,,,,,ctch,resources/DP.BMP,resources/DB.BMP,Door4,0.360460069,-0.031067088,1,0,0,0.7011,optionRight,60,14770,7,11,0,11,0,1,,,,,,,,,,,,,,,,,,,,,,,,,,,,,,,,,,,,,,,
,,,,,,,,2023-08-16_09h09.57.011,HF_wild_card,2022.2.4,MacIntel,59.99520038,597a088221db3a00014176c3,64d2fd46c836a06233681665,64dc7f8ade80fc8d131f2163,,,,,,,decisionTrl,resources/DB.BMP,resources/DG.BMP,Door3,0.419912574,-0.020907738,1,0,0,0.8625,optionRight,70,14840,7,12,0,12,0,1,,,,,,,,,,,,,,,,,,,,,,,,,,,,,,,,,,,,,,,
,,,,,,,,2023-08-16_09h09.57.011,HF_wild_card,2022.2.4,MacIntel,59.99520038,597a088221db3a00014176c3,64d2fd46c836a06233681665,64dc7f8ade80fc8d131f2163,,,,,,,decisionTrl,resources/DG.BMP,resources/DB.BMP,Door3,-0.194748264,-0.015807912,1,0,0,0.8793,optionLeft,70,14910,7,13,0,13,0,1,,,,,,,,,,,,,,,,,,,,,,,,,,,,,,,,,,,,,,,
,,,,,,,,2023-08-16_09h09.57.011,HF_wild_card,2022.2.4,MacIntel,59.99520038,597a088221db3a00014176c3,64d2fd46c836a06233681665,64dc7f8ade80fc8d131f2163,,,,,,,ctch,resources/DBN.BMP,resources/DG.BMP,Door3,0.319664559,-0.025418527,1,0,0,0.5846,optionRight,70,14980,7,14,0,14,0,1,,,,,,,,,,,,,,,,,,,,,,,,,,,,,,,,,,,,,,,
,,,,,,,,2023-08-16_09h09.57.011,HF_wild_card,2022.2.4,MacIntel,59.99520038,597a088221db3a00014176c3,64d2fd46c836a06233681665,64dc7f8ade80fc8d131f2163,,,,,,,ctch,resources/DG.BMP,resources/DBN.BMP,Door3,-0.187983631,-0.028816344,1,0,0,0.6623,optionLeft,70,15050,7,15,0,15,0,1,,,,,,,,,,,,,,,,,,,,,,,,,,,,,,,,,,,,,,,
,,,,,,,,2023-08-16_09h09.57.011,HF_wild_card,2022.2.4,MacIntel,59.99520038,597a088221db3a00014176c3,64d2fd46c836a06233681665,64dc7f8ade80fc8d131f2163,,,,,,,decisionTrl,resources/DBN.BMP,resources/DP.BMP,Door1,0.242249504,-0.036594742,1,0,0,0.6682,optionRight,30,15080,7,16,0,16,0,1,,,,,,,,,,,,,,,,,,,,,,,,,,,,,,,,,,,,,,,
,,,,,,,,2023-08-16_09h09.57.011,HF_wild_card,2022.2.4,MacIntel,59.99520038,597a088221db3a00014176c3,64d2fd46c836a06233681665,64dc7f8ade80fc8d131f2163,,,,,,,ctch,resources/DB.BMP,resources/DP.BMP,Door4,-0.246673487,-0.008810764,1,0,0,0.6303,optionLeft,60,15140,7,17,0,17,0,1,,,,,,,,,,,,,,,,,,,,,,,,,,,,,,,,,,,,,,,
,,,,,,,,2023-08-16_09h09.57.011,HF_wild_card,2022.2.4,MacIntel,59.99520038,597a088221db3a00014176c3,64d2fd46c836a06233681665,64dc7f8ade80fc8d131f2163,,,,,,,ctch,resources/DG.BMP,resources/DBN.BMP,Door3,-0.301574901,-0.023713418,1,0,0,0.6841,optionLeft,70,15210,7,18,0,18,0,1,,,,,,,,,,,,,,,,,,,,,,,,,,,,,,,,,,,,,,,
,,,,,,,,2023-08-16_09h09.57.011,HF_wild_card,2022.2.4,MacIntel,59.99520038,597a088221db3a00014176c3,64d2fd46c836a06233681665,64dc7f8ade80fc8d131f2163,,,,,,,decisionTrl,resources/DG.BMP,resources/DB.BMP,Door4,0.272057912,-0.052911086,1,0,0,0.5797,optionRight,80,15290,7,19,0,19,0,1,,,,,,,,,,,,,,,,,,,,,,,,,,,,,,,,,,,,,,,
,,,,,,,,2023-08-16_09h09.57.011,HF_wild_card,2022.2.4,MacIntel,59.99520038,597a088221db3a00014176c3,64d2fd46c836a06233681665,64dc7f8ade80fc8d131f2163,,,,,,,decisionTrl,resources/DBN.BMP,resources/DP.BMP,Door1,0.36937624,-0.051441592,1,0,0,0.6344,optionRight,30,15320,7,20,0,20,0,1,,,,,,,,,,,,,,,,,,,,,,,,,,,,,,,,,,,,,,,
,,,,,,,,2023-08-16_09h09.57.011,HF_wild_card,2022.2.4,MacIntel,59.99520038,597a088221db3a00014176c3,64d2fd46c836a06233681665,64dc7f8ade80fc8d131f2163,,,,,,,ctch,resources/DP.BMP,resources/DB.BMP,Door4,0.312149678,-0.035770089,1,0,0,0.6813,optionRight,60,15380,7,21,0,21,0,1,,,,,,,,,,,,,,,,,,,,,,,,,,,,,,,,,,,,,,,
,,,,,,,,2023-08-16_09h09.57.011,HF_wild_card,2022.2.4,MacIntel,59.99520038,597a088221db3a00014176c3,64d2fd46c836a06233681665,64dc7f8ade80fc8d131f2163,,,,,,,decisionTrl,resources/DP.BMP,resources/DBN.BMP,Door1,-0.235057044,-0.021028646,1,0,0,0.6339,optionLeft,30,15410,7,22,0,22,0,1,,,,,,,,,,,,,,,,,,,,,,,,,,,,,,,,,,,,,,,
,,,,,,,,2023-08-16_09h09.57.011,HF_wild_card,2022.2.4,MacIntel,59.99520038,597a088221db3a00014176c3,64d2fd46c836a06233681665,64dc7f8ade80fc8d131f2163,,,,,,,decisionTrl,resources/DB.BMP,resources/DG.BMP,Door4,-0.262459697,-0.021068948,1,0,0,0.9146,optionLeft,80,15490,7,23,0,23,0,1,,,,,,,,,,,,,,,,,,,,,,,,,,,,,,,,,,,,,,,
,,,,,,,,2023-08-16_09h09.57.011,HF_wild_card,2022.2.4,MacIntel,59.99520038,597a088221db3a00014176c3,64d2fd46c836a06233681665,64dc7f8ade80fc8d131f2163,,,,,,,decisionTrl,resources/DBN.BMP,resources/DP.BMP,Door1,0.2796875,-0.024829489,1,0,0,0.5498,optionRight,30,15520,7,24,0,24,0,1,,,,,,,,,,,,,,,,,,,,,,,,,,,,,,,,,,,,,,,
,,,,,,,,2023-08-16_09h09.57.011,HF_wild_card,2022.2.4,MacIntel,59.99520038,597a088221db3a00014176c3,64d2fd46c836a06233681665,64dc7f8ade80fc8d131f2163,,,,,,,decisionTrl,resources/DP.BMP,resources/DBN.BMP,Door2,0.333537946,-0.019562252,1,0,0,1.2995,optionRight,20,15540,7,25,0,25,0,1,,,,,,,,,,,,,,,,,,,,,,,,,,,,,,,,,,,,,,,
,,,,,,,,2023-08-16_09h09.57.011,HF_wild_card,2022.2.4,MacIntel,59.99520038,597a088221db3a00014176c3,64d2fd46c836a06233681665,64dc7f8ade80fc8d131f2163,,,,,,,ctch,resources/DP.BMP,resources/DB.BMP,Door4,0.331383309,-0.055028522,1,0,0,0.582,optionRight,60,15600,7,26,0,26,0,1,,,,,,,,,,,,,,,,,,,,,,,,,,,,,,,,,,,,,,,
,,,,,,,,2023-08-16_09h09.57.011,HF_wild_card,2022.2.4,MacIntel,59.99520038,597a088221db3a00014176c3,64d2fd46c836a06233681665,64dc7f8ade80fc8d131f2163,,,,,,,ctch,resources/DB.BMP,resources/DP.BMP,Door4,-0.250403026,-0.026515997,1,0,0,0.7146,optionLeft,80,15680,7,27,0,27,0,1,,,,,,,,,,,,,,,,,,,,,,,,,,,,,,,,,,,,,,,
,,,,,,,,2023-08-16_09h09.57.011,HF_wild_card,2022.2.4,MacIntel,59.99520038,597a088221db3a00014176c3,64d2fd46c836a06233681665,64dc7f8ade80fc8d131f2163,,,,,,,decisionTrl,resources/DP.BMP,resources/DBN.BMP,Door2,0.263110739,-0.029907614,1,0,0,0.8162,optionRight,40,15720,7,28,0,28,0,1,,,,,,,,,,,,,,,,,,,,,,,,,,,,,,,,,,,,,,,
,,,,,,,,2023-08-16_09h09.57.011,HF_wild_card,2022.2.4,MacIntel,59.99520038,597a088221db3a00014176c3,64d2fd46c836a06233681665,64dc7f8ade80fc8d131f2163,,,,,,,decisionTrl,resources/DG.BMP,resources/DB.BMP,Door4,0.34265253,-0.034151786,1,0,0,0.6612,optionRight,60,15780,7,29,0,29,0,1,,,,,,,,,,,,,,,,,,,,,,,,,,,,,,,,,,,,,,,
,,,,,,,,2023-08-16_09h09.57.011,HF_wild_card,2022.2.4,MacIntel,59.99520038,597a088221db3a00014176c3,64d2fd46c836a06233681665,64dc7f8ade80fc8d131f2163,,,,,,,decisionTrl,resources/DP.BMP,resources/DBN.BMP,Door1,-0.184331597,-0.021918403,1,0,0,1.466,optionLeft,30,15810,7,30,0,30,0,1,,,,,,,,,,,,,,,,,,,,,,,,,,,,,,,,,,,,,,,
,,,,,,,,2023-08-16_09h09.57.011,HF_wild_card,2022.2.4,MacIntel,59.99520038,597a088221db3a00014176c3,64d2fd46c836a06233681665,64dc7f8ade80fc8d131f2163,,,,,,,decisionTrl,resources/DG.BMP,resources/DB.BMP,Door4,0.29546131,-0.016465154,1,0,0,0.5829,optionRight,80,15890,7,31,0,31,0,1,,,,,,,,,,,,,,,,,,,,,,,,,,,,,,,,,,,,,,,
,,,,,,,,2023-08-16_09h09.57.011,HF_wild_card,2022.2.4,MacIntel,59.99520038,597a088221db3a00014176c3,64d2fd46c836a06233681665,64dc7f8ade80fc8d131f2163,,,,,,,decisionTrl,resources/DB.BMP,resources/DG.BMP,Door3,0.247160218,-0.024401662,1,0,0,0.848,optionRight,70,15960,7,32,0,32,0,1,,,,,,,,,,,,,,,,,,,,,,,,,,,,,,,,,,,,,,,
,,,,,,,,2023-08-16_09h09.57.011,HF_wild_card,2022.2.4,MacIntel,59.99520038,597a088221db3a00014176c3,64d2fd46c836a06233681665,64dc7f8ade80fc8d131f2163,,,,,,,decisionTrl,resources/DG.BMP,resources/DB.BMP,Door3,-0.168408978,-0.006938244,1,0,0,0.6649,optionLeft,70,16030,7,33,0,33,0,1,,,,,,,,,,,,,,,,,,,,,,,,,,,,,,,,,,,,,,,
,,,,,,,,2023-08-16_09h09.57.011,HF_wild_card,2022.2.4,MacIntel,59.99520038,597a088221db3a00014176c3,64d2fd46c836a06233681665,64dc7f8ade80fc8d131f2163,,,,,,,ctch,resources/DG.BMP,resources/DBN.BMP,Door3,-0.199076141,-0.02109685,1,0,0,0.6,optionLeft,70,16100,7,34,0,34,0,1,,,,,,,,,,,,,,,,,,,,,,,,,,,,,,,,,,,,,,,
,,,,,,,,2023-08-16_09h09.57.011,HF_wild_card,2022.2.4,MacIntel,59.99520038,597a088221db3a00014176c3,64d2fd46c836a06233681665,64dc7f8ade80fc8d131f2163,,,,,,,ctch,resources/DBN.BMP,resources/DG.BMP,Door3,0.264601935,-0.021357267,1,0,0,0.5384,optionRight,70,16170,7,35,0,35,0,1,,,,,,,,,,,,,,,,,,,,,,,,,,,,,,,,,,,,,,,
,,,,,,,,2023-08-16_09h09.57.011,HF_wild_card,2022.2.4,MacIntel,59.99520038,597a088221db3a00014176c3,64d2fd46c836a06233681665,64dc7f8ade80fc8d131f2163,,,,,,,,,,,,,,,,,,,,,,,,,,6,0,6,0,1,,,,,,,,,,,,,,,,,,,,,,,,,,,,,,,,,,
,,,,,,,,2023-08-16_09h09.57.011,HF_wild_card,2022.2.4,MacIntel,59.99520038,597a088221db3a00014176c3,64d2fd46c836a06233681665,64dc7f8ade80fc8d131f2163,,,,,,,,,,,,,,,,,,,,,,,,,,,,,,,4,,,,,,,,,,,,,,,,,,,,,,,,,,,,,,,,,
,,,,,,,,2023-08-16_09h09.57.011,HF_wild_card,2022.2.4,MacIntel,59.99520038,597a088221db3a00014176c3,64d2fd46c836a06233681665,64dc7f8ade80fc8d131f2163,,,,,,,,,,,,,,,,,,,,,,,,,,,,,,,,,,,,,,,,,,,,,,,,,,,,,,,,,,,,,,,,
,,,,,,,,2023-08-16_09h09.57.011,HF_wild_card,2022.2.4,MacIntel,59.99520038,597a088221db3a00014176c3,64d2fd46c836a06233681665,64dc7f8ade80fc8d131f2163,,,,,,,,,,,,,,,,,,,,,,,,,,,,,,,,95,WC_extreme,resources/DY.BMP,0,0,0,0,1,,,,,,,,,,,,,,,,,,,,,,,,,
,,,,,,,,2023-08-16_09h09.57.011,HF_wild_card,2022.2.4,MacIntel,59.99520038,597a088221db3a00014176c3,64d2fd46c836a06233681665,64dc7f8ade80fc8d131f2163,,,,,,,,,,,,,,,,,,,,,,,,,,,,,,,,30,Door1,resources/DP.BMP,1,0,1,0,1,,,,,,,,,,,,,,,,,,,,,,,,,
,,,,,,,,2023-08-16_09h09.57.011,HF_wild_card,2022.2.4,MacIntel,59.99520038,597a088221db3a00014176c3,64d2fd46c836a06233681665,64dc7f8ade80fc8d131f2163,,,,,,,,,,,,,,,,,,,,,,,,,,,,,,,,20,Door2,resources/DBN.BMP,2,0,2,0,1,,,,,,,,,,,,,,,,,,,,,,,,,
