Condition,Low fixed image (Door1),Low risky image (Door2),High fixed image (Door3),High risky image (Door4),Extreme Wild Card,NonExtreme Wild Card,,date,expName,psychopyVersion,OS,frameRate,PROLIFIC_PID,STUDY_ID,SESSION_ID,mouse_2.x,mouse_2.y,mouse_2.leftButton,mouse_2.midButton,mouse_2.rightButton,mouse_2.clicked_name,Trial Type,Left Option Image,Right Option Image,Chosen Door,mouse.x,mouse.y,mouse.leftButton,mouse.midButton,mouse.rightButton,mouse.time,mouse.clicked_name,Feedback,Cumulative Reward,Block,trial.thisRepN,trial.thisTrialN,trial.thisN,trial.thisIndex,trial.ran,blocks.thisRepN,blocks.thisTrialN,blocks.thisN,blocks.thisIndex,blocks.ran,Money conversion,First Outcome Reported,Shown Door (First Outcome),Displayed Image (First Outcome),outcomes.thisRepN,outcomes.thisTrialN,outcomes.thisN,outcomes.thisIndex,outcomes.ran,judgments.thisRepN,judgments.thisTrialN,judgments.thisN,judgments.thisIndex,judgments.ran,freqMouse.x,freqMouse.y,freqMouse.leftButton,freqMouse.midButton,freqMouse.rightButton,freqMouse.clicked_name,FQJ for first outcome,FQJ for second outcome,Shown Door,Displayed Image,trials.thisRepN,trials.thisTrialN,trials.thisN,trials.thisIndex,trials.ran,judgBlock.thisRepN,judgBlock.thisTrialN,judgBlock.thisN,judgBlock.thisIndex,judgBlock.ran
0,resources/DY.BMP,resources/DBN.BMP,resources/DP.BMP,resources/DR.BMP,resources/DB.BMP,resources/DG.BMP,,2023-08-06_08h43.49.323,HF_wild_card,2022.2.4,Win32,59.93766483,631f8ac6a3465a389d2a398c,64ce5acb97489d65b14ecc7a,64cf4b159ac723a0c84c8ff7,,,,,,,,,,,,,,,,,,,,,,,,,,,,,,,,,,,,,,,,,,,,,,,,,,,,,,,,,,,,,,,,
,,,,,,,,2023-08-06_08h43.49.323,HF_wild_card,2022.2.4,Win32,59.93766483,631f8ac6a3465a389d2a398c,64ce5acb97489d65b14ecc7a,64cf4b159ac723a0c84c8ff7,-0.025925926,-0.412037037,1,0,0,agree,,,,,,,,,,,,,,,,,,,,,,,,,,,,,,,,,,,,,,,,,,,,,,,,,,,,,,,,,,
,,,,,,,,2023-08-06_08h43.49.323,HF_wild_card,2022.2.4,Win32,59.93766483,631f8ac6a3465a389d2a398c,64ce5acb97489d65b14ecc7a,64cf4b159ac723a0c84c8ff7,,,,,,,,,,,,,,,,,,,,,,,,,,,,,,,,,,,,,,,,,,,,,,,,,,,,,,,,,,,,,,,,
,,,,,,,,2023-08-06_08h43.49.323,HF_wild_card,2022.2.4,Win32,59.93766483,631f8ac6a3465a389d2a398c,64ce5acb97489d65b14ecc7a,64cf4b159ac723a0c84c8ff7,,,,,,,ctch,resources/DBN.BMP,resources/DP.BMP,Door2,-0.380555556,-0.126851852,1,0,0,1.6107,optionLeft,40,40,1,0,0,0,0,1,,,,,,,,,,,,,,,,,,,,,,,,,,,,,,,,,,,,,,,
,,,,,,,,2023-08-06_08h43.49.323,HF_wild_card,2022.2.4,Win32,59.93766483,631f8ac6a3465a389d2a398c,64ce5acb97489d65b14ecc7a,64cf4b159ac723a0c84c8ff7,,,,,,,decisionTrl,resources/DR.BMP,resources/DP.BMP,Door4,-0.253703704,-0.046296296,1,0,0,1.5334,optionLeft,60,100,1,1,0,1,0,1,,,,,,,,,,,,,,,,,,,,,,,,,,,,,,,,,,,,,,,
,,,,,,,,2023-08-06_08h43.49.323,HF_wild_card,2022.2.4,Win32,59.93766483,631f8ac6a3465a389d2a398c,64ce5acb97489d65b14ecc7a,64cf4b159ac723a0c84c8ff7,,,,,,,sngl,resources/Empty.png,resources/DB.BMP,WildCard_Ex,0.206481481,0.027777778,1,0,0,0.5707,optionRight,5,105,1,2,0,2,0,1,,,,,,,,,,,,,,,,,,,,,,,,,,,,,,,,,,,,,,,
,,,,,,,,2023-08-06_08h43.49.323,HF_wild_card,2022.2.4,Win32,59.93766483,631f8ac6a3465a389d2a398c,64ce5acb97489d65b14ecc7a,64cf4b159ac723a0c84c8ff7,,,,,,,ctch,resources/DR.BMP,resources/DY.BMP,Door4,-0.20462963,-0.027777778,1,0,0,0.8144,optionLeft,60,165,1,3,0,3,0,1,,,,,,,,,,,,,,,,,,,,,,,,,,,,,,,,,,,,,,,
,,,,,,,,2023-08-06_08h43.49.323,HF_wild_card,2022.2.4,Win32,59.93766483,631f8ac6a3465a389d2a398c,64ce5acb97489d65b14ecc7a,64cf4b159ac723a0c84c8ff7,,,,,,,sngl,resources/DB.BMP,resources/Empty.png,WildCard_Ex,-0.168518519,-0.02962963,1,0,0,0.6971,optionLeft,5,170,1,4,0,4,0,1,,,,,,,,,,,,,,,,,,,,,,,,,,,,,,,,,,,,,,,
,,,,,,,,2023-08-06_08h43.49.323,HF_wild_card,2022.2.4,Win32,59.93766483,631f8ac6a3465a389d2a398c,64ce5acb97489d65b14ecc7a,64cf4b159ac723a0c84c8ff7,,,,,,,sngl,resources/DY.BMP,resources/Empty.png,Door1,-0.237037037,-0.025,1,0,0,0.5971,optionLeft,30,200,1,5,0,5,0,1,,,,,,,,,,,,,,,,,,,,,,,,,,,,,,,,,,,,,,,
,,,,,,,,2023-08-06_08h43.49.323,HF_wild_card,2022.2.4,Win32,59.93766483,631f8ac6a3465a389d2a398c,64ce5acb97489d65b14ecc7a,64cf4b159ac723a0c84c8ff7,,,,,,,decisionTrl,resources/DBN.BMP,resources/DY.BMP,Door1,0.235185185,-0.00462963,1,0,0,0.7606,optionRight,30,230,1,6,0,6,0,1,,,,,,,,,,,,,,,,,,,,,,,,,,,,,,,,,,,,,,,
,,,,,,,,2023-08-06_08h43.49.323,HF_wild_card,2022.2.4,Win32,59.93766483,631f8ac6a3465a389d2a398c,64ce5acb97489d65b14ecc7a,64cf4b159ac723a0c84c8ff7,,,,,,,decisionTrl,resources/DBN.BMP,resources/DB.BMP,WildCard_Ex,0.187962963,-0.013888889,1,0,0,0.9716,optionRight,95,325,1,7,0,7,0,1,,,,,,,,,,,,,,,,,,,,,,,,,,,,,,,,,,,,,,,
,,,,,,,,2023-08-06_08h43.49.323,HF_wild_card,2022.2.4,Win32,59.93766483,631f8ac6a3465a389d2a398c,64ce5acb97489d65b14ecc7a,64cf4b159ac723a0c84c8ff7,,,,,,,sngl,resources/Empty.png,resources/DR.BMP,Door4,0.211111111,-0.026851852,1,0,0,0.7927,optionRight,60,385,1,8,0,8,0,1,,,,,,,,,,,,,,,,,,,,,,,,,,,,,,,,,,,,,,,
,,,,,,,,2023-08-06_08h43.49.323,HF_wild_card,2022.2.4,Win32,59.93766483,631f8ac6a3465a389d2a398c,64ce5acb97489d65b14ecc7a,64cf4b159ac723a0c84c8ff7,,,,,,,decisionTrl,resources/DB.BMP,resources/DBN.BMP,WildCard_Ex,-0.225925926,-0.034259259,1,0,0,0.731,optionLeft,5,390,1,9,0,9,0,1,,,,,,,,,,,,,,,,,,,,,,,,,,,,,,,,,,,,,,,
,,,,,,,,2023-08-06_08h43.49.323,HF_wild_card,2022.2.4,Win32,59.93766483,631f8ac6a3465a389d2a398c,64ce5acb97489d65b14ecc7a,64cf4b159ac723a0c84c8ff7,,,,,,,decisionTrl,resources/DR.BMP,resources/DP.BMP,Door4,-0.221296296,-0.027777778,1,0,0,0.6916,optionLeft,80,470,1,10,0,10,0,1,,,,,,,,,,,,,,,,,,,,,,,,,,,,,,,,,,,,,,,
,,,,,,,,2023-08-06_08h43.49.323,HF_wild_card,2022.2.4,Win32,59.93766483,631f8ac6a3465a389d2a398c,64ce5acb97489d65b14ecc7a,64cf4b159ac723a0c84c8ff7,,,,,,,sngl,resources/Empty.png,resources/DY.BMP,Door1,0.197222222,-0.000925926,1,0,0,0.5649,optionRight,30,500,1,11,0,11,0,1,,,,,,,,,,,,,,,,,,,,,,,,,,,,,,,,,,,,,,,
,,,,,,,,2023-08-06_08h43.49.323,HF_wild_card,2022.2.4,Win32,59.93766483,631f8ac6a3465a389d2a398c,64ce5acb97489d65b14ecc7a,64cf4b159ac723a0c84c8ff7,,,,,,,decisionTrl,resources/DR.BMP,resources/DP.BMP,Door4,-0.205555556,-0.007407407,1,0,0,0.6911,optionLeft,60,560,1,12,0,12,0,1,,,,,,,,,,,,,,,,,,,,,,,,,,,,,,,,,,,,,,,
,,,,,,,,2023-08-06_08h43.49.323,HF_wild_card,2022.2.4,Win32,59.93766483,631f8ac6a3465a389d2a398c,64ce5acb97489d65b14ecc7a,64cf4b159ac723a0c84c8ff7,,,,,,,decisionTrl,resources/DY.BMP,resources/DBN.BMP,Door1,-0.2,-0.012037037,1,0,0,0.5717,optionLeft,30,590,1,13,0,13,0,1,,,,,,,,,,,,,,,,,,,,,,,,,,,,,,,,,,,,,,,
,,,,,,,,2023-08-06_08h43.49.323,HF_wild_card,2022.2.4,Win32,59.93766483,631f8ac6a3465a389d2a398c,64ce5acb97489d65b14ecc7a,64cf4b159ac723a0c84c8ff7,,,,,,,decisionTrl,resources/DY.BMP,resources/DBN.BMP,Door1,-0.162037037,-0.021296296,1,0,0,1.6937,optionLeft,30,620,1,14,0,14,0,1,,,,,,,,,,,,,,,,,,,,,,,,,,,,,,,,,,,,,,,
,,,,,,,,2023-08-06_08h43.49.323,HF_wild_card,2022.2.4,Win32,59.93766483,631f8ac6a3465a389d2a398c,64ce5acb97489d65b14ecc7a,64cf4b159ac723a0c84c8ff7,,,,,,,decisionTrl,resources/DB.BMP,resources/DR.BMP,Door4,0.251851852,-0.02037037,1,0,0,0.5812,optionRight,60,680,1,15,0,15,0,1,,,,,,,,,,,,,,,,,,,,,,,,,,,,,,,,,,,,,,,
,,,,,,,,2023-08-06_08h43.49.323,HF_wild_card,2022.2.4,Win32,59.93766483,631f8ac6a3465a389d2a398c,64ce5acb97489d65b14ecc7a,64cf4b159ac723a0c84c8ff7,,,,,,,decisionTrl,resources/DR.BMP,resources/DB.BMP,Door4,-0.302777778,-0.024074074,1,0,0,0.571,optionLeft,80,760,1,16,0,16,0,1,,,,,,,,,,,,,,,,,,,,,,,,,,,,,,,,,,,,,,,
,,,,,,,,2023-08-06_08h43.49.323,HF_wild_card,2022.2.4,Win32,59.93766483,631f8ac6a3465a389d2a398c,64ce5acb97489d65b14ecc7a,64cf4b159ac723a0c84c8ff7,,,,,,,decisionTrl,resources/DY.BMP,resources/DB.BMP,Door1,-0.164814815,-0.024074074,1,0,0,0.5547,optionLeft,30,790,1,17,0,17,0,1,,,,,,,,,,,,,,,,,,,,,,,,,,,,,,,,,,,,,,,
,,,,,,,,2023-08-06_08h43.49.323,HF_wild_card,2022.2.4,Win32,59.93766483,631f8ac6a3465a389d2a398c,64ce5acb97489d65b14ecc7a,64cf4b159ac723a0c84c8ff7,,,,,,,decisionTrl,resources/DBN.BMP,resources/DY.BMP,Door1,0.185185185,-0.001851852,1,0,0,0.7699,optionRight,30,820,1,18,0,18,0,1,,,,,,,,,,,,,,,,,,,,,,,,,,,,,,,,,,,,,,,
,,,,,,,,2023-08-06_08h43.49.323,HF_wild_card,2022.2.4,Win32,59.93766483,631f8ac6a3465a389d2a398c,64ce5acb97489d65b14ecc7a,64cf4b159ac723a0c84c8ff7,,,,,,,sngl,resources/Empty.png,resources/DB.BMP,WildCard_Ex,0.144444444,-0.001851852,1,0,0,1.2263,optionRight,95,915,1,19,0,19,0,1,,,,,,,,,,,,,,,,,,,,,,,,,,,,,,,,,,,,,,,
,,,,,,,,2023-08-06_08h43.49.323,HF_wild_card,2022.2.4,Win32,59.93766483,631f8ac6a3465a389d2a398c,64ce5acb97489d65b14ecc7a,64cf4b159ac723a0c84c8ff7,,,,,,,sngl,resources/Empty.png,resources/DBN.BMP,Door2,0.183333333,-0.018518519,1,0,0,0.7121,optionRight,20,935,1,20,0,20,0,1,,,,,,,,,,,,,,,,,,,,,,,,,,,,,,,,,,,,,,,
,,,,,,,,2023-08-06_08h43.49.323,HF_wild_card,2022.2.4,Win32,59.93766483,631f8ac6a3465a389d2a398c,64ce5acb97489d65b14ecc7a,64cf4b159ac723a0c84c8ff7,,,,,,,ctch,resources/DY.BMP,resources/DR.BMP,Door1,-0.371296296,0.074074074,1,0,0,0.4815,optionLeft,30,965,1,21,0,21,0,1,,,,,,,,,,,,,,,,,,,,,,,,,,,,,,,,,,,,,,,
,,,,,,,,2023-08-06_08h43.49.323,HF_wild_card,2022.2.4,Win32,59.93766483,631f8ac6a3465a389d2a398c,64ce5acb97489d65b14ecc7a,64cf4b159ac723a0c84c8ff7,,,,,,,decisionTrl,resources/DR.BMP,resources/DP.BMP,Door3,0.334259259,0.044444444,1,0,0,0.4665,optionRight,70,1035,1,22,0,22,0,1,,,,,,,,,,,,,,,,,,,,,,,,,,,,,,,,,,,,,,,
,,,,,,,,2023-08-06_08h43.49.323,HF_wild_card,2022.2.4,Win32,59.93766483,631f8ac6a3465a389d2a398c,64ce5acb97489d65b14ecc7a,64cf4b159ac723a0c84c8ff7,,,,,,,decisionTrl,resources/DBN.BMP,resources/DY.BMP,Door1,0.187962963,0.012037037,1,0,0,0.9814,optionRight,30,1065,1,23,0,23,0,1,,,,,,,,,,,,,,,,,,,,,,,,,,,,,,,,,,,,,,,
,,,,,,,,2023-08-06_08h43.49.323,HF_wild_card,2022.2.4,Win32,59.93766483,631f8ac6a3465a389d2a398c,64ce5acb97489d65b14ecc7a,64cf4b159ac723a0c84c8ff7,,,,,,,sngl,resources/DBN.BMP,resources/Empty.png,Door2,-0.167592593,0.016666667,1,0,0,0.3807,optionLeft,40,1105,1,24,0,24,0,1,,,,,,,,,,,,,,,,,,,,,,,,,,,,,,,,,,,,,,,
,,,,,,,,2023-08-06_08h43.49.323,HF_wild_card,2022.2.4,Win32,59.93766483,631f8ac6a3465a389d2a398c,64ce5acb97489d65b14ecc7a,64cf4b159ac723a0c84c8ff7,,,,,,,sngl,resources/DR.BMP,resources/Empty.png,Door4,-0.143518519,0.009259259,1,0,0,0.6747,optionLeft,80,1185,1,25,0,25,0,1,,,,,,,,,,,,,,,,,,,,,,,,,,,,,,,,,,,,,,,
,,,,,,,,2023-08-06_08h43.49.323,HF_wild_card,2022.2.4,Win32,59.93766483,631f8ac6a3465a389d2a398c,64ce5acb97489d65b14ecc7a,64cf4b159ac723a0c84c8ff7,,,,,,,decisionTrl,resources/DP.BMP,resources/DR.BMP,Door3,-0.221296296,0.018518519,1,0,0,0.4406,optionLeft,70,1255,1,26,0,26,0,1,,,,,,,,,,,,,,,,,,,,,,,,,,,,,,,,,,,,,,,
,,,,,,,,2023-08-06_08h43.49.323,HF_wild_card,2022.2.4,Win32,59.93766483,631f8ac6a3465a389d2a398c,64ce5acb97489d65b14ecc7a,64cf4b159ac723a0c84c8ff7,,,,,,,sngl,resources/Empty.png,resources/DP.BMP,Door3,0.189814815,-0.005555556,1,0,0,0.5808,optionRight,70,1325,1,27,0,27,0,1,,,,,,,,,,,,,,,,,,,,,,,,,,,,,,,,,,,,,,,
,,,,,,,,2023-08-06_08h43.49.323,HF_wild_card,2022.2.4,Win32,59.93766483,631f8ac6a3465a389d2a398c,64ce5acb97489d65b14ecc7a,64cf4b159ac723a0c84c8ff7,,,,,,,decisionTrl,resources/DB.BMP,resources/DY.BMP,Door1,0.206481481,0.006481481,1,0,0,0.4461,optionRight,30,1355,1,28,0,28,0,1,,,,,,,,,,,,,,,,,,,,,,,,,,,,,,,,,,,,,,,
,,,,,,,,2023-08-06_08h43.49.323,HF_wild_card,2022.2.4,Win32,59.93766483,631f8ac6a3465a389d2a398c,64ce5acb97489d65b14ecc7a,64cf4b159ac723a0c84c8ff7,,,,,,,ctch,resources/DP.BMP,resources/DBN.BMP,Door3,-0.292592593,0.033333333,1,0,0,0.421,optionLeft,70,1425,1,29,0,29,0,1,,,,,,,,,,,,,,,,,,,,,,,,,,,,,,,,,,,,,,,
,,,,,,,,2023-08-06_08h43.49.323,HF_wild_card,2022.2.4,Win32,59.93766483,631f8ac6a3465a389d2a398c,64ce5acb97489d65b14ecc7a,64cf4b159ac723a0c84c8ff7,,,,,,,sngl,resources/DP.BMP,resources/Empty.png,Door3,-0.152777778,0.001851852,1,0,0,1.0816,optionLeft,70,1495,1,30,0,30,0,1,,,,,,,,,,,,,,,,,,,,,,,,,,,,,,,,,,,,,,,
,,,,,,,,2023-08-06_08h43.49.323,HF_wild_card,2022.2.4,Win32,59.93766483,631f8ac6a3465a389d2a398c,64ce5acb97489d65b14ecc7a,64cf4b159ac723a0c84c8ff7,,,,,,,ctch,resources/DP.BMP,resources/DBN.BMP,Door3,-0.149074074,-0.006481481,1,0,0,0.5925,optionLeft,70,1565,1,31,0,31,0,1,,,,,,,,,,,,,,,,,,,,,,,,,,,,,,,,,,,,,,,
,,,,,,,,2023-08-06_08h43.49.323,HF_wild_card,2022.2.4,Win32,59.93766483,631f8ac6a3465a389d2a398c,64ce5acb97489d65b14ecc7a,64cf4b159ac723a0c84c8ff7,,,,,,,decisionTrl,resources/DP.BMP,resources/DR.BMP,Door3,-0.35,0.051851852,1,0,0,0.4477,optionLeft,70,1635,1,32,0,32,0,1,,,,,,,,,,,,,,,,,,,,,,,,,,,,,,,,,,,,,,,
,,,,,,,,2023-08-06_08h43.49.323,HF_wild_card,2022.2.4,Win32,59.93766483,631f8ac6a3465a389d2a398c,64ce5acb97489d65b14ecc7a,64cf4b159ac723a0c84c8ff7,,,,,,,decisionTrl,resources/DBN.BMP,resources/DY.BMP,Door2,-0.20462963,0.001851852,1,0,0,1.1194,optionLeft,20,1655,1,33,0,33,0,1,,,,,,,,,,,,,,,,,,,,,,,,,,,,,,,,,,,,,,,
,,,,,,,,2023-08-06_08h43.49.323,HF_wild_card,2022.2.4,Win32,59.93766483,631f8ac6a3465a389d2a398c,64ce5acb97489d65b14ecc7a,64cf4b159ac723a0c84c8ff7,,,,,,,sngl,resources/DB.BMP,resources/Empty.png,WildCard_Ex,-0.199074074,0.001851852,1,0,0,0.6471,optionLeft,95,1750,1,34,0,34,0,1,,,,,,,,,,,,,,,,,,,,,,,,,,,,,,,,,,,,,,,
,,,,,,,,2023-08-06_08h43.49.323,HF_wild_card,2022.2.4,Win32,59.93766483,631f8ac6a3465a389d2a398c,64ce5acb97489d65b14ecc7a,64cf4b159ac723a0c84c8ff7,,,,,,,ctch,resources/DR.BMP,resources/DY.BMP,Door4,-0.299074074,-0.012962963,1,0,0,2.1888,optionLeft,80,1830,1,35,0,35,0,1,,,,,,,,,,,,,,,,,,,,,,,,,,,,,,,,,,,,,,,
,,,,,,,,2023-08-06_08h43.49.323,HF_wild_card,2022.2.4,Win32,59.93766483,631f8ac6a3465a389d2a398c,64ce5acb97489d65b14ecc7a,64cf4b159ac723a0c84c8ff7,,,,,,,ctch,resources/DY.BMP,resources/DR.BMP,Door1,-0.272222222,-0.009259259,1,0,0,0.7974,optionLeft,30,1860,1,36,0,36,0,1,,,,,,,,,,,,,,,,,,,,,,,,,,,,,,,,,,,,,,,
,,,,,,,,2023-08-06_08h43.49.323,HF_wild_card,2022.2.4,Win32,59.93766483,631f8ac6a3465a389d2a398c,64ce5acb97489d65b14ecc7a,64cf4b159ac723a0c84c8ff7,,,,,,,decisionTrl,resources/DP.BMP,resources/DR.BMP,Door3,-0.399074074,-0.02037037,1,0,0,1.2477,optionLeft,70,1930,1,37,0,37,0,1,,,,,,,,,,,,,,,,,,,,,,,,,,,,,,,,,,,,,,,
,,,,,,,,2023-08-06_08h43.49.323,HF_wild_card,2022.2.4,Win32,59.93766483,631f8ac6a3465a389d2a398c,64ce5acb97489d65b14ecc7a,64cf4b159ac723a0c84c8ff7,,,,,,,ctch,resources/DBN.BMP,resources/DP.BMP,Door3,0.188888889,0.025,1,0,0,0.6657,optionRight,70,2000,1,38,0,38,0,1,,,,,,,,,,,,,,,,,,,,,,,,,,,,,,,,,,,,,,,
,,,,,,,,2023-08-06_08h43.49.323,HF_wild_card,2022.2.4,Win32,59.93766483,631f8ac6a3465a389d2a398c,64ce5acb97489d65b14ecc7a,64cf4b159ac723a0c84c8ff7,,,,,,,decisionTrl,resources/DB.BMP,resources/DP.BMP,Door3,0.215740741,0.003703704,1,0,0,1.2996,optionRight,70,2070,1,39,0,39,0,1,,,,,,,,,,,,,,,,,,,,,,,,,,,,,,,,,,,,,,,
,,,,,,,,2023-08-06_08h43.49.323,HF_wild_card,2022.2.4,Win32,59.93766483,631f8ac6a3465a389d2a398c,64ce5acb97489d65b14ecc7a,64cf4b159ac723a0c84c8ff7,,,,,,,decisionTrl,resources/DP.BMP,resources/DR.BMP,Door4,0.287037037,0.009259259,1,0,0,1.0477,optionRight,60,2130,1,40,0,40,0,1,,,,,,,,,,,,,,,,,,,,,,,,,,,,,,,,,,,,,,,
,,,,,,,,2023-08-06_08h43.49.323,HF_wild_card,2022.2.4,Win32,59.93766483,631f8ac6a3465a389d2a398c,64ce5acb97489d65b14ecc7a,64cf4b159ac723a0c84c8ff7,,,,,,,decisionTrl,resources/DY.BMP,resources/DBN.BMP,Door1,-0.140740741,-0.010185185,1,0,0,1.3828,optionLeft,30,2160,1,41,0,41,0,1,,,,,,,,,,,,,,,,,,,,,,,,,,,,,,,,,,,,,,,
,,,,,,,,2023-08-06_08h43.49.323,HF_wild_card,2022.2.4,Win32,59.93766483,631f8ac6a3465a389d2a398c,64ce5acb97489d65b14ecc7a,64cf4b159ac723a0c84c8ff7,,,,,,,decisionTrl,resources/DY.BMP,resources/DBN.BMP,Door2,0.371296296,0.018518519,1,0,0,0.6318,optionRight,40,2200,1,42,0,42,0,1,,,,,,,,,,,,,,,,,,,,,,,,,,,,,,,,,,,,,,,
,,,,,,,,2023-08-06_08h43.49.323,HF_wild_card,2022.2.4,Win32,59.93766483,631f8ac6a3465a389d2a398c,64ce5acb97489d65b14ecc7a,64cf4b159ac723a0c84c8ff7,,,,,,,decisionTrl,resources/DP.BMP,resources/DB.BMP,WildCard_Ex,0.452777778,-0.002777778,1,0,0,1.6488,optionRight,5,2205,1,43,0,43,0,1,,,,,,,,,,,,,,,,,,,,,,,,,,,,,,,,,,,,,,,
,,,,,,,,2023-08-06_08h43.49.323,HF_wild_card,2022.2.4,Win32,59.93766483,631f8ac6a3465a389d2a398c,64ce5acb97489d65b14ecc7a,64cf4b159ac723a0c84c8ff7,,,,,,,,,,,,,,,,,,,,,,,,,,0,0,0,0,1,,,,,,,,,,,,,,,,,,,,,,,,,,,,,,,,,,
,,,,,,,,2023-08-06_08h43.49.323,HF_wild_card,2022.2.4,Win32,59.93766483,631f8ac6a3465a389d2a398c,64ce5acb97489d65b14ecc7a,64cf4b159ac723a0c84c8ff7,,,,,,,decisionTrl,resources/DP.BMP,resources/DB.BMP,Door3,-0.226851852,-0.182407407,1,0,0,1.1045,optionLeft,70,2275,2,0,0,0,0,1,,,,,,,,,,,,,,,,,,,,,,,,,,,,,,,,,,,,,,,
,,,,,,,,2023-08-06_08h43.49.323,HF_wild_card,2022.2.4,Win32,59.93766483,631f8ac6a3465a389d2a398c,64ce5acb97489d65b14ecc7a,64cf4b159ac723a0c84c8ff7,,,,,,,sngl,resources/Empty.png,resources/DB.BMP,WildCard_Ex,0.39537037,-0.05,1,0,0,1.2321,optionRight,95,2370,2,1,0,1,0,1,,,,,,,,,,,,,,,,,,,,,,,,,,,,,,,,,,,,,,,
,,,,,,,,2023-08-06_08h43.49.323,HF_wild_card,2022.2.4,Win32,59.93766483,631f8ac6a3465a389d2a398c,64ce5acb97489d65b14ecc7a,64cf4b159ac723a0c84c8ff7,,,,,,,ctch,resources/DBN.BMP,resources/DP.BMP,Door2,-0.384259259,0.006481481,1,0,0,2.2002,optionLeft,20,2390,2,2,0,2,0,1,,,,,,,,,,,,,,,,,,,,,,,,,,,,,,,,,,,,,,,
,,,,,,,,2023-08-06_08h43.49.323,HF_wild_card,2022.2.4,Win32,59.93766483,631f8ac6a3465a389d2a398c,64ce5acb97489d65b14ecc7a,64cf4b159ac723a0c84c8ff7,,,,,,,decisionTrl,resources/DR.BMP,resources/DB.BMP,WildCard_Ex,0.22037037,0.036111111,1,0,0,0.8817,optionRight,5,2395,2,3,0,3,0,1,,,,,,,,,,,,,,,,,,,,,,,,,,,,,,,,,,,,,,,
,,,,,,,,2023-08-06_08h43.49.323,HF_wild_card,2022.2.4,Win32,59.93766483,631f8ac6a3465a389d2a398c,64ce5acb97489d65b14ecc7a,64cf4b159ac723a0c84c8ff7,,,,,,,sngl,resources/Empty.png,resources/DP.BMP,Door3,0.255555556,0.025925926,1,0,0,0.8819,optionRight,70,2465,2,4,0,4,0,1,,,,,,,,,,,,,,,,,,,,,,,,,,,,,,,,,,,,,,,
,,,,,,,,2023-08-06_08h43.49.323,HF_wild_card,2022.2.4,Win32,59.93766483,631f8ac6a3465a389d2a398c,64ce5acb97489d65b14ecc7a,64cf4b159ac723a0c84c8ff7,,,,,,,decisionTrl,resources/DBN.BMP,resources/DY.BMP,Door1,0.188888889,0.038888889,1,0,0,1.0996,optionRight,30,2495,2,5,0,5,0,1,,,,,,,,,,,,,,,,,,,,,,,,,,,,,,,,,,,,,,,
,,,,,,,,2023-08-06_08h43.49.323,HF_wild_card,2022.2.4,Win32,59.93766483,631f8ac6a3465a389d2a398c,64ce5acb97489d65b14ecc7a,64cf4b159ac723a0c84c8ff7,,,,,,,ctch,resources/DBN.BMP,resources/DP.BMP,Door2,-0.191666667,0.025925926,1,0,0,0.4487,optionLeft,20,2515,2,6,0,6,0,1,,,,,,,,,,,,,,,,,,,,,,,,,,,,,,,,,,,,,,,
,,,,,,,,2023-08-06_08h43.49.323,HF_wild_card,2022.2.4,Win32,59.93766483,631f8ac6a3465a389d2a398c,64ce5acb97489d65b14ecc7a,64cf4b159ac723a0c84c8ff7,,,,,,,decisionTrl,resources/DP.BMP,resources/DR.BMP,Door3,-0.118518519,0.006481481,1,0,0,0.7989,optionLeft,70,2585,2,7,0,7,0,1,,,,,,,,,,,,,,,,,,,,,,,,,,,,,,,,,,,,,,,
,,,,,,,,2023-08-06_08h43.49.323,HF_wild_card,2022.2.4,Win32,59.93766483,631f8ac6a3465a389d2a398c,64ce5acb97489d65b14ecc7a,64cf4b159ac723a0c84c8ff7,,,,,,,ctch,resources/DP.BMP,resources/DBN.BMP,Door3,-0.246296296,0.025,1,0,0,0.5489,optionLeft,70,2655,2,8,0,8,0,1,,,,,,,,,,,,,,,,,,,,,,,,,,,,,,,,,,,,,,,
,,,,,,,,2023-08-06_08h43.49.323,HF_wild_card,2022.2.4,Win32,59.93766483,631f8ac6a3465a389d2a398c,64ce5acb97489d65b14ecc7a,64cf4b159ac723a0c84c8ff7,,,,,,,decisionTrl,resources/DBN.BMP,resources/DB.BMP,Door2,-0.142592593,0.005555556,1,0,0,1.2334,optionLeft,20,2675,2,9,0,9,0,1,,,,,,,,,,,,,,,,,,,,,,,,,,,,,,,,,,,,,,,
,,,,,,,,2023-08-06_08h43.49.323,HF_wild_card,2022.2.4,Win32,59.93766483,631f8ac6a3465a389d2a398c,64ce5acb97489d65b14ecc7a,64cf4b159ac723a0c84c8ff7,,,,,,,ctch,resources/DR.BMP,resources/DY.BMP,Door4,-0.339814815,0.011111111,1,0,0,1.0995,optionLeft,80,2755,2,10,0,10,0,1,,,,,,,,,,,,,,,,,,,,,,,,,,,,,,,,,,,,,,,
,,,,,,,,2023-08-06_08h43.49.323,HF_wild_card,2022.2.4,Win32,59.93766483,631f8ac6a3465a389d2a398c,64ce5acb97489d65b14ecc7a,64cf4b159ac723a0c84c8ff7,,,,,,,decisionTrl,resources/DY.BMP,resources/DBN.BMP,Door1,-0.387037037,0.014814815,1,0,0,0.9159,optionLeft,30,2785,2,11,0,11,0,1,,,,,,,,,,,,,,,,,,,,,,,,,,,,,,,,,,,,,,,
,,,,,,,,2023-08-06_08h43.49.323,HF_wild_card,2022.2.4,Win32,59.93766483,631f8ac6a3465a389d2a398c,64ce5acb97489d65b14ecc7a,64cf4b159ac723a0c84c8ff7,,,,,,,decisionTrl,resources/DB.BMP,resources/DR.BMP,WildCard_Ex,-0.343518519,0.00462963,1,0,0,1.1991,optionLeft,5,2790,2,12,0,12,0,1,,,,,,,,,,,,,,,,,,,,,,,,,,,,,,,,,,,,,,,
,,,,,,,,2023-08-06_08h43.49.323,HF_wild_card,2022.2.4,Win32,59.93766483,631f8ac6a3465a389d2a398c,64ce5acb97489d65b14ecc7a,64cf4b159ac723a0c84c8ff7,,,,,,,sngl,resources/Empty.png,resources/DBN.BMP,Door2,0.210185185,0.00462963,1,0,0,0.8316,optionRight,40,2830,2,13,0,13,0,1,,,,,,,,,,,,,,,,,,,,,,,,,,,,,,,,,,,,,,,
,,,,,,,,2023-08-06_08h43.49.323,HF_wild_card,2022.2.4,Win32,59.93766483,631f8ac6a3465a389d2a398c,64ce5acb97489d65b14ecc7a,64cf4b159ac723a0c84c8ff7,,,,,,,decisionTrl,resources/DB.BMP,resources/DY.BMP,WildCard_Ex,-0.287037037,0.013888889,1,0,0,0.9657,optionLeft,95,2925,2,14,0,14,0,1,,,,,,,,,,,,,,,,,,,,,,,,,,,,,,,,,,,,,,,
,,,,,,,,2023-08-06_08h43.49.323,HF_wild_card,2022.2.4,Win32,59.93766483,631f8ac6a3465a389d2a398c,64ce5acb97489d65b14ecc7a,64cf4b159ac723a0c84c8ff7,,,,,,,decisionTrl,resources/DBN.BMP,resources/DY.BMP,Door2,-0.191666667,0.011111111,1,0,0,1.2293,optionLeft,40,2965,2,15,0,15,0,1,,,,,,,,,,,,,,,,,,,,,,,,,,,,,,,,,,,,,,,
,,,,,,,,2023-08-06_08h43.49.323,HF_wild_card,2022.2.4,Win32,59.93766483,631f8ac6a3465a389d2a398c,64ce5acb97489d65b14ecc7a,64cf4b159ac723a0c84c8ff7,,,,,,,decisionTrl,resources/DR.BMP,resources/DP.BMP,Door3,0.112962963,-0.001851852,1,0,0,1.5979,optionRight,70,3035,2,16,0,16,0,1,,,,,,,,,,,,,,,,,,,,,,,,,,,,,,,,,,,,,,,
,,,,,,,,2023-08-06_08h43.49.323,HF_wild_card,2022.2.4,Win32,59.93766483,631f8ac6a3465a389d2a398c,64ce5acb97489d65b14ecc7a,64cf4b159ac723a0c84c8ff7,,,,,,,sngl,resources/DBN.BMP,resources/Empty.png,Door2,-0.201851852,0,1,0,0,0.5641,optionLeft,20,3055,2,17,0,17,0,1,,,,,,,,,,,,,,,,,,,,,,,,,,,,,,,,,,,,,,,
,,,,,,,,2023-08-06_08h43.49.323,HF_wild_card,2022.2.4,Win32,59.93766483,631f8ac6a3465a389d2a398c,64ce5acb97489d65b14ecc7a,64cf4b159ac723a0c84c8ff7,,,,,,,decisionTrl,resources/DP.BMP,resources/DR.BMP,Door3,-0.388888889,0.008333333,1,0,0,0.6802,optionLeft,70,3125,2,18,0,18,0,1,,,,,,,,,,,,,,,,,,,,,,,,,,,,,,,,,,,,,,,
,,,,,,,,2023-08-06_08h43.49.323,HF_wild_card,2022.2.4,Win32,59.93766483,631f8ac6a3465a389d2a398c,64ce5acb97489d65b14ecc7a,64cf4b159ac723a0c84c8ff7,,,,,,,sngl,resources/DY.BMP,resources/Empty.png,Door1,-0.248148148,0.001851852,1,0,0,0.5973,optionLeft,30,3155,2,19,0,19,0,1,,,,,,,,,,,,,,,,,,,,,,,,,,,,,,,,,,,,,,,
,,,,,,,,2023-08-06_08h43.49.323,HF_wild_card,2022.2.4,Win32,59.93766483,631f8ac6a3465a389d2a398c,64ce5acb97489d65b14ecc7a,64cf4b159ac723a0c84c8ff7,,,,,,,sngl,resources/DB.BMP,resources/Empty.png,WildCard_Ex,-0.267592593,-0.017592593,1,0,0,0.5585,optionLeft,95,3250,2,20,0,20,0,1,,,,,,,,,,,,,,,,,,,,,,,,,,,,,,,,,,,,,,,
,,,,,,,,2023-08-06_08h43.49.323,HF_wild_card,2022.2.4,Win32,59.93766483,631f8ac6a3465a389d2a398c,64ce5acb97489d65b14ecc7a,64cf4b159ac723a0c84c8ff7,,,,,,,decisionTrl,resources/DY.BMP,resources/DBN.BMP,Door1,-0.433333333,0.009259259,1,0,0,0.8127,optionLeft,30,3280,2,21,0,21,0,1,,,,,,,,,,,,,,,,,,,,,,,,,,,,,,,,,,,,,,,
,,,,,,,,2023-08-06_08h43.49.323,HF_wild_card,2022.2.4,Win32,59.93766483,631f8ac6a3465a389d2a398c,64ce5acb97489d65b14ecc7a,64cf4b159ac723a0c84c8ff7,,,,,,,ctch,resources/DR.BMP,resources/DY.BMP,Door1,0.265740741,-0.049074074,1,0,0,1.209,optionRight,30,3310,2,22,0,22,0,1,,,,,,,,,,,,,,,,,,,,,,,,,,,,,,,,,,,,,,,
,,,,,,,,2023-08-06_08h43.49.323,HF_wild_card,2022.2.4,Win32,59.93766483,631f8ac6a3465a389d2a398c,64ce5acb97489d65b14ecc7a,64cf4b159ac723a0c84c8ff7,,,,,,,ctch,resources/DP.BMP,resources/DBN.BMP,Door3,-0.309259259,-0.003703704,1,0,0,1.1962,optionLeft,70,3380,2,23,0,23,0,1,,,,,,,,,,,,,,,,,,,,,,,,,,,,,,,,,,,,,,,
,,,,,,,,2023-08-06_08h43.49.323,HF_wild_card,2022.2.4,Win32,59.93766483,631f8ac6a3465a389d2a398c,64ce5acb97489d65b14ecc7a,64cf4b159ac723a0c84c8ff7,,,,,,,sngl,resources/DB.BMP,resources/Empty.png,WildCard_Ex,-0.327777778,0.014814815,1,0,0,0.6816,optionLeft,5,3385,2,24,0,24,0,1,,,,,,,,,,,,,,,,,,,,,,,,,,,,,,,,,,,,,,,
,,,,,,,,2023-08-06_08h43.49.323,HF_wild_card,2022.2.4,Win32,59.93766483,631f8ac6a3465a389d2a398c,64ce5acb97489d65b14ecc7a,64cf4b159ac723a0c84c8ff7,,,,,,,decisionTrl,resources/DY.BMP,resources/DB.BMP,WildCard_Ex,0.384259259,-0.023148148,1,0,0,0.6879,optionRight,95,3480,2,25,0,25,0,1,,,,,,,,,,,,,,,,,,,,,,,,,,,,,,,,,,,,,,,
,,,,,,,,2023-08-06_08h43.49.323,HF_wild_card,2022.2.4,Win32,59.93766483,631f8ac6a3465a389d2a398c,64ce5acb97489d65b14ecc7a,64cf4b159ac723a0c84c8ff7,,,,,,,decisionTrl,resources/DR.BMP,resources/DP.BMP,Door3,0.328703704,-0.037962963,1,0,0,1.1725,optionRight,70,3550,2,26,0,26,0,1,,,,,,,,,,,,,,,,,,,,,,,,,,,,,,,,,,,,,,,
,,,,,,,,2023-08-06_08h43.49.323,HF_wild_card,2022.2.4,Win32,59.93766483,631f8ac6a3465a389d2a398c,64ce5acb97489d65b14ecc7a,64cf4b159ac723a0c84c8ff7,,,,,,,sngl,resources/Empty.png,resources/DR.BMP,Door4,0.287037037,-0.012037037,1,0,0,2.0151,optionRight,80,3630,2,27,0,27,0,1,,,,,,,,,,,,,,,,,,,,,,,,,,,,,,,,,,,,,,,
,,,,,,,,2023-08-06_08h43.49.323,HF_wild_card,2022.2.4,Win32,59.93766483,631f8ac6a3465a389d2a398c,64ce5acb97489d65b14ecc7a,64cf4b159ac723a0c84c8ff7,,,,,,,sngl,resources/Empty.png,resources/DB.BMP,WildCard_Ex,0.25,0.000925926,1,0,0,0.5593,optionRight,5,3635,2,28,0,28,0,1,,,,,,,,,,,,,,,,,,,,,,,,,,,,,,,,,,,,,,,
,,,,,,,,2023-08-06_08h43.49.323,HF_wild_card,2022.2.4,Win32,59.93766483,631f8ac6a3465a389d2a398c,64ce5acb97489d65b14ecc7a,64cf4b159ac723a0c84c8ff7,,,,,,,decisionTrl,resources/DB.BMP,resources/DP.BMP,WildCard_Ex,-0.17962963,0.025925926,1,0,0,0.8833,optionLeft,5,3640,2,29,0,29,0,1,,,,,,,,,,,,,,,,,,,,,,,,,,,,,,,,,,,,,,,
,,,,,,,,2023-08-06_08h43.49.323,HF_wild_card,2022.2.4,Win32,59.93766483,631f8ac6a3465a389d2a398c,64ce5acb97489d65b14ecc7a,64cf4b159ac723a0c84c8ff7,,,,,,,decisionTrl,resources/DBN.BMP,resources/DY.BMP,Door2,-0.22962963,0.010185185,1,0,0,0.9993,optionLeft,40,3680,2,30,0,30,0,1,,,,,,,,,,,,,,,,,,,,,,,,,,,,,,,,,,,,,,,
,,,,,,,,2023-08-06_08h43.49.323,HF_wild_card,2022.2.4,Win32,59.93766483,631f8ac6a3465a389d2a398c,64ce5acb97489d65b14ecc7a,64cf4b159ac723a0c84c8ff7,,,,,,,decisionTrl,resources/DY.BMP,resources/DBN.BMP,Door2,0.156481481,0.025925926,1,0,0,0.4681,optionRight,20,3700,2,31,0,31,0,1,,,,,,,,,,,,,,,,,,,,,,,,,,,,,,,,,,,,,,,
,,,,,,,,2023-08-06_08h43.49.323,HF_wild_card,2022.2.4,Win32,59.93766483,631f8ac6a3465a389d2a398c,64ce5acb97489d65b14ecc7a,64cf4b159ac723a0c84c8ff7,,,,,,,ctch,resources/DY.BMP,resources/DR.BMP,Door1,-0.319444444,0.053703704,1,0,0,0.4094,optionLeft,30,3730,2,32,0,32,0,1,,,,,,,,,,,,,,,,,,,,,,,,,,,,,,,,,,,,,,,
,,,,,,,,2023-08-06_08h43.49.323,HF_wild_card,2022.2.4,Win32,59.93766483,631f8ac6a3465a389d2a398c,64ce5acb97489d65b14ecc7a,64cf4b159ac723a0c84c8ff7,,,,,,,decisionTrl,resources/DY.BMP,resources/DBN.BMP,Door1,-0.208333333,0.034259259,1,0,0,0.8324,optionLeft,30,3760,2,33,0,33,0,1,,,,,,,,,,,,,,,,,,,,,,,,,,,,,,,,,,,,,,,
,,,,,,,,2023-08-06_08h43.49.323,HF_wild_card,2022.2.4,Win32,59.93766483,631f8ac6a3465a389d2a398c,64ce5acb97489d65b14ecc7a,64cf4b159ac723a0c84c8ff7,,,,,,,decisionTrl,resources/DBN.BMP,resources/DY.BMP,Door1,0.124074074,0.016666667,1,0,0,0.4591,optionRight,30,3790,2,34,0,34,0,1,,,,,,,,,,,,,,,,,,,,,,,,,,,,,,,,,,,,,,,
,,,,,,,,2023-08-06_08h43.49.323,HF_wild_card,2022.2.4,Win32,59.93766483,631f8ac6a3465a389d2a398c,64ce5acb97489d65b14ecc7a,64cf4b159ac723a0c84c8ff7,,,,,,,sngl,resources/Empty.png,resources/DY.BMP,Door1,0.2,0.003703704,1,0,0,0.7185,optionRight,30,3820,2,35,0,35,0,1,,,,,,,,,,,,,,,,,,,,,,,,,,,,,,,,,,,,,,,
,,,,,,,,2023-08-06_08h43.49.323,HF_wild_card,2022.2.4,Win32,59.93766483,631f8ac6a3465a389d2a398c,64ce5acb97489d65b14ecc7a,64cf4b159ac723a0c84c8ff7,,,,,,,decisionTrl,resources/DR.BMP,resources/DP.BMP,Door4,-0.257407407,0.039814815,1,0,0,0.381,optionLeft,80,3900,2,36,0,36,0,1,,,,,,,,,,,,,,,,,,,,,,,,,,,,,,,,,,,,,,,
,,,,,,,,2023-08-06_08h43.49.323,HF_wild_card,2022.2.4,Win32,59.93766483,631f8ac6a3465a389d2a398c,64ce5acb97489d65b14ecc7a,64cf4b159ac723a0c84c8ff7,,,,,,,decisionTrl,resources/DP.BMP,resources/DR.BMP,Door3,-0.237962963,-0.005555556,1,0,0,0.5554,optionLeft,70,3970,2,37,0,37,0,1,,,,,,,,,,,,,,,,,,,,,,,,,,,,,,,,,,,,,,,
,,,,,,,,2023-08-06_08h43.49.323,HF_wild_card,2022.2.4,Win32,59.93766483,631f8ac6a3465a389d2a398c,64ce5acb97489d65b14ecc7a,64cf4b159ac723a0c84c8ff7,,,,,,,sngl,resources/DR.BMP,resources/Empty.png,Door4,-0.211111111,0.003703704,1,0,0,0.5482,optionLeft,60,4030,2,38,0,38,0,1,,,,,,,,,,,,,,,,,,,,,,,,,,,,,,,,,,,,,,,
,,,,,,,,2023-08-06_08h43.49.323,HF_wild_card,2022.2.4,Win32,59.93766483,631f8ac6a3465a389d2a398c,64ce5acb97489d65b14ecc7a,64cf4b159ac723a0c84c8ff7,,,,,,,decisionTrl,resources/DP.BMP,resources/DR.BMP,Door3,-0.121296296,-0.010185185,1,0,0,0.6389,optionLeft,70,4100,2,39,0,39,0,1,,,,,,,,,,,,,,,,,,,,,,,,,,,,,,,,,,,,,,,
,,,,,,,,2023-08-06_08h43.49.323,HF_wild_card,2022.2.4,Win32,59.93766483,631f8ac6a3465a389d2a398c,64ce5acb97489d65b14ecc7a,64cf4b159ac723a0c84c8ff7,,,,,,,ctch,resources/DY.BMP,resources/DR.BMP,Door4,0.187962963,0.014814815,1,0,0,1.6727,optionRight,60,4160,2,40,0,40,0,1,,,,,,,,,,,,,,,,,,,,,,,,,,,,,,,,,,,,,,,
,,,,,,,,2023-08-06_08h43.49.323,HF_wild_card,2022.2.4,Win32,59.93766483,631f8ac6a3465a389d2a398c,64ce5acb97489d65b14ecc7a,64cf4b159ac723a0c84c8ff7,,,,,,,decisionTrl,resources/DB.BMP,resources/DBN.BMP,WildCard_Ex,-0.221296296,0.031481481,1,0,0,0.6484,optionLeft,95,4255,2,41,0,41,0,1,,,,,,,,,,,,,,,,,,,,,,,,,,,,,,,,,,,,,,,
,,,,,,,,2023-08-06_08h43.49.323,HF_wild_card,2022.2.4,Win32,59.93766483,631f8ac6a3465a389d2a398c,64ce5acb97489d65b14ecc7a,64cf4b159ac723a0c84c8ff7,,,,,,,decisionTrl,resources/DR.BMP,resources/DP.BMP,Door4,-0.308333333,0.00462963,1,0,0,1.0658,optionLeft,60,4315,2,42,0,42,0,1,,,,,,,,,,,,,,,,,,,,,,,,,,,,,,,,,,,,,,,
,,,,,,,,2023-08-06_08h43.49.323,HF_wild_card,2022.2.4,Win32,59.93766483,631f8ac6a3465a389d2a398c,64ce5acb97489d65b14ecc7a,64cf4b159ac723a0c84c8ff7,,,,,,,sngl,resources/DP.BMP,resources/Empty.png,Door3,-0.211111111,-0.001851852,1,0,0,1.3658,optionLeft,70,4385,2,43,0,43,0,1,,,,,,,,,,,,,,,,,,,,,,,,,,,,,,,,,,,,,,,
,,,,,,,,2023-08-06_08h43.49.323,HF_wild_card,2022.2.4,Win32,59.93766483,631f8ac6a3465a389d2a398c,64ce5acb97489d65b14ecc7a,64cf4b159ac723a0c84c8ff7,,,,,,,,,,,,,,,,,,,,,,,,,,1,0,1,0,1,,,,,,,,,,,,,,,,,,,,,,,,,,,,,,,,,,
,,,,,,,,2023-08-06_08h43.49.323,HF_wild_card,2022.2.4,Win32,59.93766483,631f8ac6a3465a389d2a398c,64ce5acb97489d65b14ecc7a,64cf4b159ac723a0c84c8ff7,,,,,,,decisionTrl,resources/DB.BMP,resources/DR.BMP,WildCard_Ex,-0.247222222,-0.165740741,1,0,0,0.6792,optionLeft,5,4390,3,0,0,0,0,1,,,,,,,,,,,,,,,,,,,,,,,,,,,,,,,,,,,,,,,
,,,,,,,,2023-08-06_08h43.49.323,HF_wild_card,2022.2.4,Win32,59.93766483,631f8ac6a3465a389d2a398c,64ce5acb97489d65b14ecc7a,64cf4b159ac723a0c84c8ff7,,,,,,,ctch,resources/DR.BMP,resources/DY.BMP,Door4,-0.247222222,-0.024074074,1,0,0,0.7557,optionLeft,80,4470,3,1,0,1,0,1,,,,,,,,,,,,,,,,,,,,,,,,,,,,,,,,,,,,,,,
,,,,,,,,2023-08-06_08h43.49.323,HF_wild_card,2022.2.4,Win32,59.93766483,631f8ac6a3465a389d2a398c,64ce5acb97489d65b14ecc7a,64cf4b159ac723a0c84c8ff7,,,,,,,sngl,resources/DB.BMP,resources/Empty.png,WildCard_Ex,-0.285185185,-0.009259259,1,0,0,0.4133,optionLeft,95,4565,3,2,0,2,0,1,,,,,,,,,,,,,,,,,,,,,,,,,,,,,,,,,,,,,,,
,,,,,,,,2023-08-06_08h43.49.323,HF_wild_card,2022.2.4,Win32,59.93766483,631f8ac6a3465a389d2a398c,64ce5acb97489d65b14ecc7a,64cf4b159ac723a0c84c8ff7,,,,,,,ctch,resources/DBN.BMP,resources/DP.BMP,Door3,0.284259259,-0.033333333,1,0,0,1.6275,optionRight,70,4635,3,3,0,3,0,1,,,,,,,,,,,,,,,,,,,,,,,,,,,,,,,,,,,,,,,
,,,,,,,,2023-08-06_08h43.49.323,HF_wild_card,2022.2.4,Win32,59.93766483,631f8ac6a3465a389d2a398c,64ce5acb97489d65b14ecc7a,64cf4b159ac723a0c84c8ff7,,,,,,,decisionTrl,resources/DB.BMP,resources/DY.BMP,WildCard_Ex,-0.253703704,-0.002777778,1,0,0,0.705,optionLeft,5,4640,3,4,0,4,0,1,,,,,,,,,,,,,,,,,,,,,,,,,,,,,,,,,,,,,,,
,,,,,,,,2023-08-06_08h43.49.323,HF_wild_card,2022.2.4,Win32,59.93766483,631f8ac6a3465a389d2a398c,64ce5acb97489d65b14ecc7a,64cf4b159ac723a0c84c8ff7,,,,,,,decisionTrl,resources/DB.BMP,resources/DBN.BMP,WildCard_Ex,-0.281481481,-0.006481481,1,0,0,0.6164,optionLeft,95,4735,3,5,0,5,0,1,,,,,,,,,,,,,,,,,,,,,,,,,,,,,,,,,,,,,,,
,,,,,,,,2023-08-06_08h43.49.323,HF_wild_card,2022.2.4,Win32,59.93766483,631f8ac6a3465a389d2a398c,64ce5acb97489d65b14ecc7a,64cf4b159ac723a0c84c8ff7,,,,,,,ctch,resources/DR.BMP,resources/DY.BMP,Door1,0.231481481,-0.05462963,1,0,0,1.4772,optionRight,30,4765,3,6,0,6,0,1,,,,,,,,,,,,,,,,,,,,,,,,,,,,,,,,,,,,,,,
,,,,,,,,2023-08-06_08h43.49.323,HF_wild_card,2022.2.4,Win32,59.93766483,631f8ac6a3465a389d2a398c,64ce5acb97489d65b14ecc7a,64cf4b159ac723a0c84c8ff7,,,,,,,decisionTrl,resources/DR.BMP,resources/DB.BMP,WildCard_Ex,0.251851852,-0.05462963,1,0,0,0.8377,optionRight,5,4770,3,7,0,7,0,1,,,,,,,,,,,,,,,,,,,,,,,,,,,,,,,,,,,,,,,
,,,,,,,,2023-08-06_08h43.49.323,HF_wild_card,2022.2.4,Win32,59.93766483,631f8ac6a3465a389d2a398c,64ce5acb97489d65b14ecc7a,64cf4b159ac723a0c84c8ff7,,,,,,,sngl,resources/DB.BMP,resources/Empty.png,WildCard_Ex,-0.257407407,-0.019444444,1,0,0,1.0492,optionLeft,5,4775,3,8,0,8,0,1,,,,,,,,,,,,,,,,,,,,,,,,,,,,,,,,,,,,,,,
,,,,,,,,2023-08-06_08h43.49.323,HF_wild_card,2022.2.4,Win32,59.93766483,631f8ac6a3465a389d2a398c,64ce5acb97489d65b14ecc7a,64cf4b159ac723a0c84c8ff7,,,,,,,decisionTrl,resources/DP.BMP,resources/DR.BMP,Door3,-0.155555556,-0.033333333,1,0,0,1.7947,optionLeft,70,4845,3,9,0,9,0,1,,,,,,,,,,,,,,,,,,,,,,,,,,,,,,,,,,,,,,,
,,,,,,,,2023-08-06_08h43.49.323,HF_wild_card,2022.2.4,Win32,59.93766483,631f8ac6a3465a389d2a398c,64ce5acb97489d65b14ecc7a,64cf4b159ac723a0c84c8ff7,,,,,,,ctch,resources/DY.BMP,resources/DR.BMP,Door4,0.181481481,-0.010185185,1,0,0,1.0313,optionRight,80,4925,3,10,0,10,0,1,,,,,,,,,,,,,,,,,,,,,,,,,,,,,,,,,,,,,,,
,,,,,,,,2023-08-06_08h43.49.323,HF_wild_card,2022.2.4,Win32,59.93766483,631f8ac6a3465a389d2a398c,64ce5acb97489d65b14ecc7a,64cf4b159ac723a0c84c8ff7,,,,,,,sngl,resources/DR.BMP,resources/Empty.png,Door4,-0.162037037,-0.006481481,1,0,0,0.7459,optionLeft,80,5005,3,11,0,11,0,1,,,,,,,,,,,,,,,,,,,,,,,,,,,,,,,,,,,,,,,
,,,,,,,,2023-08-06_08h43.49.323,HF_wild_card,2022.2.4,Win32,59.93766483,631f8ac6a3465a389d2a398c,64ce5acb97489d65b14ecc7a,64cf4b159ac723a0c84c8ff7,,,,,,,ctch,resources/DBN.BMP,resources/DP.BMP,Door2,-0.113888889,-0.016666667,1,0,0,1.9175,optionLeft,40,5045,3,12,0,12,0,1,,,,,,,,,,,,,,,,,,,,,,,,,,,,,,,,,,,,,,,
,,,,,,,,2023-08-06_08h43.49.323,HF_wild_card,2022.2.4,Win32,59.93766483,631f8ac6a3465a389d2a398c,64ce5acb97489d65b14ecc7a,64cf4b159ac723a0c84c8ff7,,,,,,,decisionTrl,resources/DR.BMP,resources/DP.BMP,Door4,-0.24537037,0,1,0,0,0.9562,optionLeft,80,5125,3,13,0,13,0,1,,,,,,,,,,,,,,,,,,,,,,,,,,,,,,,,,,,,,,,
,,,,,,,,2023-08-06_08h43.49.323,HF_wild_card,2022.2.4,Win32,59.93766483,631f8ac6a3465a389d2a398c,64ce5acb97489d65b14ecc7a,64cf4b159ac723a0c84c8ff7,,,,,,,decisionTrl,resources/DR.BMP,resources/DP.BMP,Door4,-0.267592593,-0.014814815,1,0,0,0.4987,optionLeft,60,5185,3,14,0,14,0,1,,,,,,,,,,,,,,,,,,,,,,,,,,,,,,,,,,,,,,,
,,,,,,,,2023-08-06_08h43.49.323,HF_wild_card,2022.2.4,Win32,59.93766483,631f8ac6a3465a389d2a398c,64ce5acb97489d65b14ecc7a,64cf4b159ac723a0c84c8ff7,,,,,,,decisionTrl,resources/DBN.BMP,resources/DY.BMP,Door1,0.146296296,-0.030555556,1,0,0,1.1656,optionRight,30,5215,3,15,0,15,0,1,,,,,,,,,,,,,,,,,,,,,,,,,,,,,,,,,,,,,,,
,,,,,,,,2023-08-06_08h43.49.323,HF_wild_card,2022.2.4,Win32,59.93766483,631f8ac6a3465a389d2a398c,64ce5acb97489d65b14ecc7a,64cf4b159ac723a0c84c8ff7,,,,,,,sngl,resources/Empty.png,resources/DBN.BMP,Door2,0.317592593,-0.018518519,1,0,0,2.6991,optionRight,20,5235,3,16,0,16,0,1,,,,,,,,,,,,,,,,,,,,,,,,,,,,,,,,,,,,,,,
,,,,,,,,2023-08-06_08h43.49.323,HF_wild_card,2022.2.4,Win32,59.93766483,631f8ac6a3465a389d2a398c,64ce5acb97489d65b14ecc7a,64cf4b159ac723a0c84c8ff7,,,,,,,ctch,resources/DP.BMP,resources/DBN.BMP,Door2,0.222222222,0.009259259,1,0,0,1.1804,optionRight,40,5275,3,17,0,17,0,1,,,,,,,,,,,,,,,,,,,,,,,,,,,,,,,,,,,,,,,
,,,,,,,,2023-08-06_08h43.49.323,HF_wild_card,2022.2.4,Win32,59.93766483,631f8ac6a3465a389d2a398c,64ce5acb97489d65b14ecc7a,64cf4b159ac723a0c84c8ff7,,,,,,,decisionTrl,resources/DR.BMP,resources/DP.BMP,Door3,0.296296296,-0.02962963,1,0,0,0.712,optionRight,70,5345,3,18,0,18,0,1,,,,,,,,,,,,,,,,,,,,,,,,,,,,,,,,,,,,,,,
,,,,,,,,2023-08-06_08h43.49.323,HF_wild_card,2022.2.4,Win32,59.93766483,631f8ac6a3465a389d2a398c,64ce5acb97489d65b14ecc7a,64cf4b159ac723a0c84c8ff7,,,,,,,decisionTrl,resources/DBN.BMP,resources/DY.BMP,Door1,0.346296296,-0.024074074,1,0,0,0.8298,optionRight,30,5375,3,19,0,19,0,1,,,,,,,,,,,,,,,,,,,,,,,,,,,,,,,,,,,,,,,
,,,,,,,,2023-08-06_08h43.49.323,HF_wild_card,2022.2.4,Win32,59.93766483,631f8ac6a3465a389d2a398c,64ce5acb97489d65b14ecc7a,64cf4b159ac723a0c84c8ff7,,,,,,,sngl,resources/DBN.BMP,resources/Empty.png,Door2,-0.189814815,0.035185185,1,0,0,0.3638,optionLeft,40,5415,3,20,0,20,0,1,,,,,,,,,,,,,,,,,,,,,,,,,,,,,,,,,,,,,,,
,,,,,,,,2023-08-06_08h43.49.323,HF_wild_card,2022.2.4,Win32,59.93766483,631f8ac6a3465a389d2a398c,64ce5acb97489d65b14ecc7a,64cf4b159ac723a0c84c8ff7,,,,,,,ctch,resources/DP.BMP,resources/DBN.BMP,Door3,-0.147222222,0.034259259,1,0,0,0.5802,optionLeft,70,5485,3,21,0,21,0,1,,,,,,,,,,,,,,,,,,,,,,,,,,,,,,,,,,,,,,,
,,,,,,,,2023-08-06_08h43.49.323,HF_wild_card,2022.2.4,Win32,59.93766483,631f8ac6a3465a389d2a398c,64ce5acb97489d65b14ecc7a,64cf4b159ac723a0c84c8ff7,,,,,,,decisionTrl,resources/DY.BMP,resources/DBN.BMP,Door1,-0.194444444,0.024074074,1,0,0,0.8301,optionLeft,30,5515,3,22,0,22,0,1,,,,,,,,,,,,,,,,,,,,,,,,,,,,,,,,,,,,,,,
,,,,,,,,2023-08-06_08h43.49.323,HF_wild_card,2022.2.4,Win32,59.93766483,631f8ac6a3465a389d2a398c,64ce5acb97489d65b14ecc7a,64cf4b159ac723a0c84c8ff7,,,,,,,decisionTrl,resources/DR.BMP,resources/DP.BMP,Door4,-0.208333333,0.025925926,1,0,0,1.0285,optionLeft,80,5595,3,23,0,23,0,1,,,,,,,,,,,,,,,,,,,,,,,,,,,,,,,,,,,,,,,
,,,,,,,,2023-08-06_08h43.49.323,HF_wild_card,2022.2.4,Win32,59.93766483,631f8ac6a3465a389d2a398c,64ce5acb97489d65b14ecc7a,64cf4b159ac723a0c84c8ff7,,,,,,,sngl,resources/Empty.png,resources/DR.BMP,Door4,0.207407407,-0.005555556,1,0,0,0.6469,optionRight,60,5655,3,24,0,24,0,1,,,,,,,,,,,,,,,,,,,,,,,,,,,,,,,,,,,,,,,
,,,,,,,,2023-08-06_08h43.49.323,HF_wild_card,2022.2.4,Win32,59.93766483,631f8ac6a3465a389d2a398c,64ce5acb97489d65b14ecc7a,64cf4b159ac723a0c84c8ff7,,,,,,,decisionTrl,resources/DY.BMP,resources/DBN.BMP,Door1,-0.112962963,0.025,1,0,0,0.4117,optionLeft,30,5685,3,25,0,25,0,1,,,,,,,,,,,,,,,,,,,,,,,,,,,,,,,,,,,,,,,
,,,,,,,,2023-08-06_08h43.49.323,HF_wild_card,2022.2.4,Win32,59.93766483,631f8ac6a3465a389d2a398c,64ce5acb97489d65b14ecc7a,64cf4b159ac723a0c84c8ff7,,,,,,,decisionTrl,resources/DY.BMP,resources/DBN.BMP,Door1,-0.215740741,0.021296296,1,0,0,0.6073,optionLeft,30,5715,3,26,0,26,0,1,,,,,,,,,,,,,,,,,,,,,,,,,,,,,,,,,,,,,,,
,,,,,,,,2023-08-06_08h43.49.323,HF_wild_card,2022.2.4,Win32,59.93766483,631f8ac6a3465a389d2a398c,64ce5acb97489d65b14ecc7a,64cf4b159ac723a0c84c8ff7,,,,,,,decisionTrl,resources/DY.BMP,resources/DBN.BMP,Door1,-0.371296296,-0.001851852,1,0,0,0.9123,optionLeft,30,5745,3,27,0,27,0,1,,,,,,,,,,,,,,,,,,,,,,,,,,,,,,,,,,,,,,,
,,,,,,,,2023-08-06_08h43.49.323,HF_wild_card,2022.2.4,Win32,59.93766483,631f8ac6a3465a389d2a398c,64ce5acb97489d65b14ecc7a,64cf4b159ac723a0c84c8ff7,,,,,,,ctch,resources/DY.BMP,resources/DR.BMP,Door4,0.142592593,-0.016666667,1,0,0,1.4485,optionRight,80,5825,3,28,0,28,0,1,,,,,,,,,,,,,,,,,,,,,,,,,,,,,,,,,,,,,,,
,,,,,,,,2023-08-06_08h43.49.323,HF_wild_card,2022.2.4,Win32,59.93766483,631f8ac6a3465a389d2a398c,64ce5acb97489d65b14ecc7a,64cf4b159ac723a0c84c8ff7,,,,,,,decisionTrl,resources/DBN.BMP,resources/DB.BMP,WildCard_Ex,0.251851852,-0.027777778,1,0,0,1.2781,optionRight,95,5920,3,29,0,29,0,1,,,,,,,,,,,,,,,,,,,,,,,,,,,,,,,,,,,,,,,
,,,,,,,,2023-08-06_08h43.49.323,HF_wild_card,2022.2.4,Win32,59.93766483,631f8ac6a3465a389d2a398c,64ce5acb97489d65b14ecc7a,64cf4b159ac723a0c84c8ff7,,,,,,,decisionTrl,resources/DP.BMP,resources/DR.BMP,Door4,0.171296296,-0.019444444,1,0,0,1.1991,optionRight,80,6000,3,30,0,30,0,1,,,,,,,,,,,,,,,,,,,,,,,,,,,,,,,,,,,,,,,
,,,,,,,,2023-08-06_08h43.49.323,HF_wild_card,2022.2.4,Win32,59.93766483,631f8ac6a3465a389d2a398c,64ce5acb97489d65b14ecc7a,64cf4b159ac723a0c84c8ff7,,,,,,,sngl,resources/Empty.png,resources/DB.BMP,WildCard_Ex,0.252777778,-0.023148148,1,0,0,0.9957,optionRight,95,6095,3,31,0,31,0,1,,,,,,,,,,,,,,,,,,,,,,,,,,,,,,,,,,,,,,,
,,,,,,,,2023-08-06_08h43.49.323,HF_wild_card,2022.2.4,Win32,59.93766483,631f8ac6a3465a389d2a398c,64ce5acb97489d65b14ecc7a,64cf4b159ac723a0c84c8ff7,,,,,,,decisionTrl,resources/DP.BMP,resources/DB.BMP,WildCard_Ex,0.308333333,-0.007407407,1,0,0,0.9968,optionRight,95,6190,3,32,0,32,0,1,,,,,,,,,,,,,,,,,,,,,,,,,,,,,,,,,,,,,,,
,,,,,,,,2023-08-06_08h43.49.323,HF_wild_card,2022.2.4,Win32,59.93766483,631f8ac6a3465a389d2a398c,64ce5acb97489d65b14ecc7a,64cf4b159ac723a0c84c8ff7,,,,,,,sngl,resources/Empty.png,resources/DB.BMP,WildCard_Ex,0.278703704,-0.016666667,1,0,0,0.6981,optionRight,5,6195,3,33,0,33,0,1,,,,,,,,,,,,,,,,,,,,,,,,,,,,,,,,,,,,,,,
,,,,,,,,2023-08-06_08h43.49.323,HF_wild_card,2022.2.4,Win32,59.93766483,631f8ac6a3465a389d2a398c,64ce5acb97489d65b14ecc7a,64cf4b159ac723a0c84c8ff7,,,,,,,decisionTrl,resources/DBN.BMP,resources/DY.BMP,Door1,0.274074074,-0.019444444,1,0,0,3.3267,optionRight,30,6225,3,34,0,34,0,1,,,,,,,,,,,,,,,,,,,,,,,,,,,,,,,,,,,,,,,
,,,,,,,,2023-08-06_08h43.49.323,HF_wild_card,2022.2.4,Win32,59.93766483,631f8ac6a3465a389d2a398c,64ce5acb97489d65b14ecc7a,64cf4b159ac723a0c84c8ff7,,,,,,,sngl,resources/Empty.png,resources/DP.BMP,Door3,0.224074074,-0.005555556,1,0,0,0.98,optionRight,70,6295,3,35,0,35,0,1,,,,,,,,,,,,,,,,,,,,,,,,,,,,,,,,,,,,,,,
,,,,,,,,2023-08-06_08h43.49.323,HF_wild_card,2022.2.4,Win32,59.93766483,631f8ac6a3465a389d2a398c,64ce5acb97489d65b14ecc7a,64cf4b159ac723a0c84c8ff7,,,,,,,decisionTrl,resources/DP.BMP,resources/DR.BMP,Door3,-0.225,0.012037037,1,0,0,0.7247,optionLeft,70,6365,3,36,0,36,0,1,,,,,,,,,,,,,,,,,,,,,,,,,,,,,,,,,,,,,,,
,,,,,,,,2023-08-06_08h43.49.323,HF_wild_card,2022.2.4,Win32,59.93766483,631f8ac6a3465a389d2a398c,64ce5acb97489d65b14ecc7a,64cf4b159ac723a0c84c8ff7,,,,,,,decisionTrl,resources/DY.BMP,resources/DB.BMP,WildCard_Ex,0.289814815,-0.025,1,0,0,0.9813,optionRight,95,6460,3,37,0,37,0,1,,,,,,,,,,,,,,,,,,,,,,,,,,,,,,,,,,,,,,,
,,,,,,,,2023-08-06_08h43.49.323,HF_wild_card,2022.2.4,Win32,59.93766483,631f8ac6a3465a389d2a398c,64ce5acb97489d65b14ecc7a,64cf4b159ac723a0c84c8ff7,,,,,,,sngl,resources/DY.BMP,resources/Empty.png,Door1,-0.12962963,0.010185185,1,0,0,1.5131,optionLeft,30,6490,3,38,0,38,0,1,,,,,,,,,,,,,,,,,,,,,,,,,,,,,,,,,,,,,,,
,,,,,,,,2023-08-06_08h43.49.323,HF_wild_card,2022.2.4,Win32,59.93766483,631f8ac6a3465a389d2a398c,64ce5acb97489d65b14ecc7a,64cf4b159ac723a0c84c8ff7,,,,,,,sngl,resources/DP.BMP,resources/Empty.png,Door3,-0.139814815,0.006481481,1,0,0,0.7134,optionLeft,70,6560,3,39,0,39,0,1,,,,,,,,,,,,,,,,,,,,,,,,,,,,,,,,,,,,,,,
,,,,,,,,2023-08-06_08h43.49.323,HF_wild_card,2022.2.4,Win32,59.93766483,631f8ac6a3465a389d2a398c,64ce5acb97489d65b14ecc7a,64cf4b159ac723a0c84c8ff7,,,,,,,decisionTrl,resources/DP.BMP,resources/DR.BMP,Door3,-0.201851852,0.024074074,1,0,0,3.2959,optionLeft,70,6630,3,40,0,40,0,1,,,,,,,,,,,,,,,,,,,,,,,,,,,,,,,,,,,,,,,
,,,,,,,,2023-08-06_08h43.49.323,HF_wild_card,2022.2.4,Win32,59.93766483,631f8ac6a3465a389d2a398c,64ce5acb97489d65b14ecc7a,64cf4b159ac723a0c84c8ff7,,,,,,,sngl,resources/Empty.png,resources/DY.BMP,Door1,0.237962963,-0.002777778,1,0,0,0.5327,optionRight,30,6660,3,41,0,41,0,1,,,,,,,,,,,,,,,,,,,,,,,,,,,,,,,,,,,,,,,
,,,,,,,,2023-08-06_08h43.49.323,HF_wild_card,2022.2.4,Win32,59.93766483,631f8ac6a3465a389d2a398c,64ce5acb97489d65b14ecc7a,64cf4b159ac723a0c84c8ff7,,,,,,,decisionTrl,resources/DB.BMP,resources/DP.BMP,WildCard_Ex,-0.173148148,0.025925926,1,0,0,0.6621,optionLeft,5,6665,3,42,0,42,0,1,,,,,,,,,,,,,,,,,,,,,,,,,,,,,,,,,,,,,,,
,,,,,,,,2023-08-06_08h43.49.323,HF_wild_card,2022.2.4,Win32,59.93766483,631f8ac6a3465a389d2a398c,64ce5acb97489d65b14ecc7a,64cf4b159ac723a0c84c8ff7,,,,,,,decisionTrl,resources/DBN.BMP,resources/DY.BMP,Door1,0.372222222,-0.012037037,1,0,0,1.8941,optionRight,30,6695,3,43,0,43,0,1,,,,,,,,,,,,,,,,,,,,,,,,,,,,,,,,,,,,,,,
,,,,,,,,2023-08-06_08h43.49.323,HF_wild_card,2022.2.4,Win32,59.93766483,631f8ac6a3465a389d2a398c,64ce5acb97489d65b14ecc7a,64cf4b159ac723a0c84c8ff7,,,,,,,,,,,,,,,,,,,,,,,,,,2,0,2,0,1,,,,,,,,,,,,,,,,,,,,,,,,,,,,,,,,,,
,,,,,,,,2023-08-06_08h43.49.323,HF_wild_card,2022.2.4,Win32,59.93766483,631f8ac6a3465a389d2a398c,64ce5acb97489d65b14ecc7a,64cf4b159ac723a0c84c8ff7,,,,,,,sngl,resources/DBN.BMP,resources/Empty.png,Door2,-0.242592593,-0.125,1,0,0,0.9774,optionLeft,20,6715,4,0,0,0,0,1,,,,,,,,,,,,,,,,,,,,,,,,,,,,,,,,,,,,,,,
,,,,,,,,2023-08-06_08h43.49.323,HF_wild_card,2022.2.4,Win32,59.93766483,631f8ac6a3465a389d2a398c,64ce5acb97489d65b14ecc7a,64cf4b159ac723a0c84c8ff7,,,,,,,sngl,resources/DG.BMP,resources/Empty.png,WildCard_NonEx,-0.213888889,0.003703704,1,0,0,0.4791,optionLeft,45,6760,4,1,0,1,0,1,,,,,,,,,,,,,,,,,,,,,,,,,,,,,,,,,,,,,,,
,,,,,,,,2023-08-06_08h43.49.323,HF_wild_card,2022.2.4,Win32,59.93766483,631f8ac6a3465a389d2a398c,64ce5acb97489d65b14ecc7a,64cf4b159ac723a0c84c8ff7,,,,,,,ctch,resources/DR.BMP,resources/DY.BMP,Door4,-0.22962963,0.001851852,1,0,0,1.765,optionLeft,80,6840,4,2,0,2,0,1,,,,,,,,,,,,,,,,,,,,,,,,,,,,,,,,,,,,,,,
,,,,,,,,2023-08-06_08h43.49.323,HF_wild_card,2022.2.4,Win32,59.93766483,631f8ac6a3465a389d2a398c,64ce5acb97489d65b14ecc7a,64cf4b159ac723a0c84c8ff7,,,,,,,decisionTrl,resources/DY.BMP,resources/DBN.BMP,Door2,0.308333333,-0.022222222,1,0,0,1.061,optionRight,40,6880,4,3,0,3,0,1,,,,,,,,,,,,,,,,,,,,,,,,,,,,,,,,,,,,,,,
,,,,,,,,2023-08-06_08h43.49.323,HF_wild_card,2022.2.4,Win32,59.93766483,631f8ac6a3465a389d2a398c,64ce5acb97489d65b14ecc7a,64cf4b159ac723a0c84c8ff7,,,,,,,ctch,resources/DP.BMP,resources/DBN.BMP,Door2,0.239814815,0.002777778,1,0,0,1.1971,optionRight,20,6900,4,4,0,4,0,1,,,,,,,,,,,,,,,,,,,,,,,,,,,,,,,,,,,,,,,
,,,,,,,,2023-08-06_08h43.49.323,HF_wild_card,2022.2.4,Win32,59.93766483,631f8ac6a3465a389d2a398c,64ce5acb97489d65b14ecc7a,64cf4b159ac723a0c84c8ff7,,,,,,,sngl,resources/DY.BMP,resources/Empty.png,Door1,-0.167592593,0.010185185,1,0,0,0.5362,optionLeft,30,6930,4,5,0,5,0,1,,,,,,,,,,,,,,,,,,,,,,,,,,,,,,,,,,,,,,,
,,,,,,,,2023-08-06_08h43.49.323,HF_wild_card,2022.2.4,Win32,59.93766483,631f8ac6a3465a389d2a398c,64ce5acb97489d65b14ecc7a,64cf4b159ac723a0c84c8ff7,,,,,,,decisionTrl,resources/DR.BMP,resources/DP.BMP,Door3,0.228703704,-0.008333333,1,0,0,0.8453,optionRight,70,7000,4,6,0,6,0,1,,,,,,,,,,,,,,,,,,,,,,,,,,,,,,,,,,,,,,,
,,,,,,,,2023-08-06_08h43.49.323,HF_wild_card,2022.2.4,Win32,59.93766483,631f8ac6a3465a389d2a398c,64ce5acb97489d65b14ecc7a,64cf4b159ac723a0c84c8ff7,,,,,,,decisionTrl,resources/DY.BMP,resources/DBN.BMP,Door1,-0.209259259,0.031481481,1,0,0,0.6559,optionLeft,30,7030,4,7,0,7,0,1,,,,,,,,,,,,,,,,,,,,,,,,,,,,,,,,,,,,,,,
,,,,,,,,2023-08-06_08h43.49.323,HF_wild_card,2022.2.4,Win32,59.93766483,631f8ac6a3465a389d2a398c,64ce5acb97489d65b14ecc7a,64cf4b159ac723a0c84c8ff7,,,,,,,decisionTrl,resources/DP.BMP,resources/DR.BMP,Door3,-0.155555556,0.000925926,1,0,0,0.5649,optionLeft,70,7100,4,8,0,8,0,1,,,,,,,,,,,,,,,,,,,,,,,,,,,,,,,,,,,,,,,
,,,,,,,,2023-08-06_08h43.49.323,HF_wild_card,2022.2.4,Win32,59.93766483,631f8ac6a3465a389d2a398c,64ce5acb97489d65b14ecc7a,64cf4b159ac723a0c84c8ff7,,,,,,,decisionTrl,resources/DBN.BMP,resources/DY.BMP,Door1,0.189814815,0.010185185,1,0,0,1.4285,optionRight,30,7130,4,9,0,9,0,1,,,,,,,,,,,,,,,,,,,,,,,,,,,,,,,,,,,,,,,
,,,,,,,,2023-08-06_08h43.49.323,HF_wild_card,2022.2.4,Win32,59.93766483,631f8ac6a3465a389d2a398c,64ce5acb97489d65b14ecc7a,64cf4b159ac723a0c84c8ff7,,,,,,,decisionTrl,resources/DR.BMP,resources/DP.BMP,Door4,-0.203703704,0.014814815,1,0,0,1.3089,optionLeft,60,7190,4,10,0,10,0,1,,,,,,,,,,,,,,,,,,,,,,,,,,,,,,,,,,,,,,,
,,,,,,,,2023-08-06_08h43.49.323,HF_wild_card,2022.2.4,Win32,59.93766483,631f8ac6a3465a389d2a398c,64ce5acb97489d65b14ecc7a,64cf4b159ac723a0c84c8ff7,,,,,,,decisionTrl,resources/DG.BMP,resources/DY.BMP,WildCard_NonEx,-0.198148148,0.02037037,1,0,0,0.9627,optionLeft,45,7235,4,11,0,11,0,1,,,,,,,,,,,,,,,,,,,,,,,,,,,,,,,,,,,,,,,
,,,,,,,,2023-08-06_08h43.49.323,HF_wild_card,2022.2.4,Win32,59.93766483,631f8ac6a3465a389d2a398c,64ce5acb97489d65b14ecc7a,64cf4b159ac723a0c84c8ff7,,,,,,,sngl,resources/DG.BMP,resources/Empty.png,WildCard_NonEx,-0.19537037,0.016666667,1,0,0,0.4973,optionLeft,55,7290,4,12,0,12,0,1,,,,,,,,,,,,,,,,,,,,,,,,,,,,,,,,,,,,,,,
,,,,,,,,2023-08-06_08h43.49.323,HF_wild_card,2022.2.4,Win32,59.93766483,631f8ac6a3465a389d2a398c,64ce5acb97489d65b14ecc7a,64cf4b159ac723a0c84c8ff7,,,,,,,decisionTrl,resources/DG.BMP,resources/DP.BMP,WildCard_NonEx,-0.187037037,0.008333333,1,0,0,0.5235,optionLeft,45,7335,4,13,0,13,0,1,,,,,,,,,,,,,,,,,,,,,,,,,,,,,,,,,,,,,,,
,,,,,,,,2023-08-06_08h43.49.323,HF_wild_card,2022.2.4,Win32,59.93766483,631f8ac6a3465a389d2a398c,64ce5acb97489d65b14ecc7a,64cf4b159ac723a0c84c8ff7,,,,,,,sngl,resources/DP.BMP,resources/Empty.png,Door3,-0.358333333,0.033333333,1,0,0,0.5686,optionLeft,70,7405,4,14,0,14,0,1,,,,,,,,,,,,,,,,,,,,,,,,,,,,,,,,,,,,,,,
,,,,,,,,2023-08-06_08h43.49.323,HF_wild_card,2022.2.4,Win32,59.93766483,631f8ac6a3465a389d2a398c,64ce5acb97489d65b14ecc7a,64cf4b159ac723a0c84c8ff7,,,,,,,decisionTrl,resources/DR.BMP,resources/DP.BMP,Door4,-0.222222222,0.007407407,1,0,0,1.4922,optionLeft,80,7485,4,15,0,15,0,1,,,,,,,,,,,,,,,,,,,,,,,,,,,,,,,,,,,,,,,
,,,,,,,,2023-08-06_08h43.49.323,HF_wild_card,2022.2.4,Win32,59.93766483,631f8ac6a3465a389d2a398c,64ce5acb97489d65b14ecc7a,64cf4b159ac723a0c84c8ff7,,,,,,,decisionTrl,resources/DP.BMP,resources/DR.BMP,Door4,0.200925926,0.007407407,1,0,0,1.3431,optionRight,80,7565,4,16,0,16,0,1,,,,,,,,,,,,,,,,,,,,,,,,,,,,,,,,,,,,,,,
,,,,,,,,2023-08-06_08h43.49.323,HF_wild_card,2022.2.4,Win32,59.93766483,631f8ac6a3465a389d2a398c,64ce5acb97489d65b14ecc7a,64cf4b159ac723a0c84c8ff7,,,,,,,decisionTrl,resources/DBN.BMP,resources/DY.BMP,Door2,-0.19537037,0.02962963,1,0,0,0.9819,optionLeft,40,7605,4,17,0,17,0,1,,,,,,,,,,,,,,,,,,,,,,,,,,,,,,,,,,,,,,,
,,,,,,,,2023-08-06_08h43.49.323,HF_wild_card,2022.2.4,Win32,59.93766483,631f8ac6a3465a389d2a398c,64ce5acb97489d65b14ecc7a,64cf4b159ac723a0c84c8ff7,,,,,,,decisionTrl,resources/DBN.BMP,resources/DY.BMP,Door2,-0.292592593,0.023148148,1,0,0,0.8815,optionLeft,20,7625,4,18,0,18,0,1,,,,,,,,,,,,,,,,,,,,,,,,,,,,,,,,,,,,,,,
,,,,,,,,2023-08-06_08h43.49.323,HF_wild_card,2022.2.4,Win32,59.93766483,631f8ac6a3465a389d2a398c,64ce5acb97489d65b14ecc7a,64cf4b159ac723a0c84c8ff7,,,,,,,decisionTrl,resources/DR.BMP,resources/DP.BMP,Door3,0.200925926,-0.022222222,1,0,0,0.6651,optionRight,70,7695,4,19,0,19,0,1,,,,,,,,,,,,,,,,,,,,,,,,,,,,,,,,,,,,,,,
,,,,,,,,2023-08-06_08h43.49.323,HF_wild_card,2022.2.4,Win32,59.93766483,631f8ac6a3465a389d2a398c,64ce5acb97489d65b14ecc7a,64cf4b159ac723a0c84c8ff7,,,,,,,decisionTrl,resources/DG.BMP,resources/DBN.BMP,WildCard_NonEx,-0.287962963,0.041666667,1,0,0,1.4297,optionLeft,55,7750,4,20,0,20,0,1,,,,,,,,,,,,,,,,,,,,,,,,,,,,,,,,,,,,,,,
,,,,,,,,2023-08-06_08h43.49.323,HF_wild_card,2022.2.4,Win32,59.93766483,631f8ac6a3465a389d2a398c,64ce5acb97489d65b14ecc7a,64cf4b159ac723a0c84c8ff7,,,,,,,decisionTrl,resources/DP.BMP,resources/DG.BMP,Door3,-0.262037037,0.000925926,1,0,0,0.6149,optionLeft,70,7820,4,21,0,21,0,1,,,,,,,,,,,,,,,,,,,,,,,,,,,,,,,,,,,,,,,
,,,,,,,,2023-08-06_08h43.49.323,HF_wild_card,2022.2.4,Win32,59.93766483,631f8ac6a3465a389d2a398c,64ce5acb97489d65b14ecc7a,64cf4b159ac723a0c84c8ff7,,,,,,,decisionTrl,resources/DBN.BMP,resources/DG.BMP,WildCard_NonEx,0.148148148,-0.02037037,1,0,0,0.7482,optionRight,55,7875,4,22,0,22,0,1,,,,,,,,,,,,,,,,,,,,,,,,,,,,,,,,,,,,,,,
,,,,,,,,2023-08-06_08h43.49.323,HF_wild_card,2022.2.4,Win32,59.93766483,631f8ac6a3465a389d2a398c,64ce5acb97489d65b14ecc7a,64cf4b159ac723a0c84c8ff7,,,,,,,decisionTrl,resources/DY.BMP,resources/DBN.BMP,Door1,-0.288888889,0.035185185,1,0,0,0.4261,optionLeft,30,7905,4,23,0,23,0,1,,,,,,,,,,,,,,,,,,,,,,,,,,,,,,,,,,,,,,,
,,,,,,,,2023-08-06_08h43.49.323,HF_wild_card,2022.2.4,Win32,59.93766483,631f8ac6a3465a389d2a398c,64ce5acb97489d65b14ecc7a,64cf4b159ac723a0c84c8ff7,,,,,,,ctch,resources/DBN.BMP,resources/DP.BMP,Door2,-0.160185185,0.005555556,1,0,0,0.7118,optionLeft,40,7945,4,24,0,24,0,1,,,,,,,,,,,,,,,,,,,,,,,,,,,,,,,,,,,,,,,
,,,,,,,,2023-08-06_08h43.49.323,HF_wild_card,2022.2.4,Win32,59.93766483,631f8ac6a3465a389d2a398c,64ce5acb97489d65b14ecc7a,64cf4b159ac723a0c84c8ff7,,,,,,,decisionTrl,resources/DG.BMP,resources/DR.BMP,WildCard_NonEx,-0.251851852,-0.005555556,1,0,0,0.5497,optionLeft,55,8000,4,25,0,25,0,1,,,,,,,,,,,,,,,,,,,,,,,,,,,,,,,,,,,,,,,
,,,,,,,,2023-08-06_08h43.49.323,HF_wild_card,2022.2.4,Win32,59.93766483,631f8ac6a3465a389d2a398c,64ce5acb97489d65b14ecc7a,64cf4b159ac723a0c84c8ff7,,,,,,,ctch,resources/DY.BMP,resources/DR.BMP,Door1,-0.197222222,0.007407407,1,0,0,0.3916,optionLeft,30,8030,4,26,0,26,0,1,,,,,,,,,,,,,,,,,,,,,,,,,,,,,,,,,,,,,,,
,,,,,,,,2023-08-06_08h43.49.323,HF_wild_card,2022.2.4,Win32,59.93766483,631f8ac6a3465a389d2a398c,64ce5acb97489d65b14ecc7a,64cf4b159ac723a0c84c8ff7,,,,,,,ctch,resources/DBN.BMP,resources/DP.BMP,Door2,-0.217592593,0.009259259,1,0,0,0.7462,optionLeft,20,8050,4,27,0,27,0,1,,,,,,,,,,,,,,,,,,,,,,,,,,,,,,,,,,,,,,,
,,,,,,,,2023-08-06_08h43.49.323,HF_wild_card,2022.2.4,Win32,59.93766483,631f8ac6a3465a389d2a398c,64ce5acb97489d65b14ecc7a,64cf4b159ac723a0c84c8ff7,,,,,,,sngl,resources/DR.BMP,resources/Empty.png,Door4,-0.136111111,0.000925926,1,0,0,0.5104,optionLeft,60,8110,4,28,0,28,0,1,,,,,,,,,,,,,,,,,,,,,,,,,,,,,,,,,,,,,,,
,,,,,,,,2023-08-06_08h43.49.323,HF_wild_card,2022.2.4,Win32,59.93766483,631f8ac6a3465a389d2a398c,64ce5acb97489d65b14ecc7a,64cf4b159ac723a0c84c8ff7,,,,,,,sngl,resources/Empty.png,resources/DR.BMP,Door4,0.207407407,-0.008333333,1,0,0,0.5752,optionRight,80,8190,4,29,0,29,0,1,,,,,,,,,,,,,,,,,,,,,,,,,,,,,,,,,,,,,,,
,,,,,,,,2023-08-06_08h43.49.323,HF_wild_card,2022.2.4,Win32,59.93766483,631f8ac6a3465a389d2a398c,64ce5acb97489d65b14ecc7a,64cf4b159ac723a0c84c8ff7,,,,,,,sngl,resources/Empty.png,resources/DG.BMP,WildCard_NonEx,0.187962963,-0.001851852,1,0,0,0.5485,optionRight,45,8235,4,30,0,30,0,1,,,,,,,,,,,,,,,,,,,,,,,,,,,,,,,,,,,,,,,
,,,,,,,,2023-08-06_08h43.49.323,HF_wild_card,2022.2.4,Win32,59.93766483,631f8ac6a3465a389d2a398c,64ce5acb97489d65b14ecc7a,64cf4b159ac723a0c84c8ff7,,,,,,,ctch,resources/DY.BMP,resources/DR.BMP,Door4,0.253703704,-0.002777778,1,0,0,0.8425,optionRight,60,8295,4,31,0,31,0,1,,,,,,,,,,,,,,,,,,,,,,,,,,,,,,,,,,,,,,,
,,,,,,,,2023-08-06_08h43.49.323,HF_wild_card,2022.2.4,Win32,59.93766483,631f8ac6a3465a389d2a398c,64ce5acb97489d65b14ecc7a,64cf4b159ac723a0c84c8ff7,,,,,,,sngl,resources/Empty.png,resources/DG.BMP,WildCard_NonEx,0.155555556,-0.002777778,1,0,0,0.6314,optionRight,55,8350,4,32,0,32,0,1,,,,,,,,,,,,,,,,,,,,,,,,,,,,,,,,,,,,,,,
,,,,,,,,2023-08-06_08h43.49.323,HF_wild_card,2022.2.4,Win32,59.93766483,631f8ac6a3465a389d2a398c,64ce5acb97489d65b14ecc7a,64cf4b159ac723a0c84c8ff7,,,,,,,ctch,resources/DR.BMP,resources/DY.BMP,Door4,-0.092592593,0.012037037,1,0,0,0.5988,optionLeft,80,8430,4,33,0,33,0,1,,,,,,,,,,,,,,,,,,,,,,,,,,,,,,,,,,,,,,,
,,,,,,,,2023-08-06_08h43.49.323,HF_wild_card,2022.2.4,Win32,59.93766483,631f8ac6a3465a389d2a398c,64ce5acb97489d65b14ecc7a,64cf4b159ac723a0c84c8ff7,,,,,,,decisionTrl,resources/DY.BMP,resources/DG.BMP,Door1,-0.1,-0.008333333,1,0,0,0.698,optionLeft,30,8460,4,34,0,34,0,1,,,,,,,,,,,,,,,,,,,,,,,,,,,,,,,,,,,,,,,
,,,,,,,,2023-08-06_08h43.49.323,HF_wild_card,2022.2.4,Win32,59.93766483,631f8ac6a3465a389d2a398c,64ce5acb97489d65b14ecc7a,64cf4b159ac723a0c84c8ff7,,,,,,,sngl,resources/Empty.png,resources/DBN.BMP,Door2,0.173148148,-0.007407407,1,0,0,3.485,optionRight,40,8500,4,35,0,35,0,1,,,,,,,,,,,,,,,,,,,,,,,,,,,,,,,,,,,,,,,
,,,,,,,,2023-08-06_08h43.49.323,HF_wild_card,2022.2.4,Win32,59.93766483,631f8ac6a3465a389d2a398c,64ce5acb97489d65b14ecc7a,64cf4b159ac723a0c84c8ff7,,,,,,,decisionTrl,resources/DR.BMP,resources/DG.BMP,WildCard_NonEx,0.242592593,-0.013888889,1,0,0,0.4141,optionRight,45,8545,4,36,0,36,0,1,,,,,,,,,,,,,,,,,,,,,,,,,,,,,,,,,,,,,,,
,,,,,,,,2023-08-06_08h43.49.323,HF_wild_card,2022.2.4,Win32,59.93766483,631f8ac6a3465a389d2a398c,64ce5acb97489d65b14ecc7a,64cf4b159ac723a0c84c8ff7,,,,,,,decisionTrl,resources/DY.BMP,resources/DBN.BMP,Door1,-0.097222222,0.014814815,1,0,0,0.5145,optionLeft,30,8575,4,37,0,37,0,1,,,,,,,,,,,,,,,,,,,,,,,,,,,,,,,,,,,,,,,
,,,,,,,,2023-08-06_08h43.49.323,HF_wild_card,2022.2.4,Win32,59.93766483,631f8ac6a3465a389d2a398c,64ce5acb97489d65b14ecc7a,64cf4b159ac723a0c84c8ff7,,,,,,,sngl,resources/Empty.png,resources/DP.BMP,Door3,0.173148148,-0.001851852,1,0,0,0.6064,optionRight,70,8645,4,38,0,38,0,1,,,,,,,,,,,,,,,,,,,,,,,,,,,,,,,,,,,,,,,
,,,,,,,,2023-08-06_08h43.49.323,HF_wild_card,2022.2.4,Win32,59.93766483,631f8ac6a3465a389d2a398c,64ce5acb97489d65b14ecc7a,64cf4b159ac723a0c84c8ff7,,,,,,,decisionTrl,resources/DBN.BMP,resources/DY.BMP,Door1,0.307407407,-0.022222222,1,0,0,0.8823,optionRight,30,8675,4,39,0,39,0,1,,,,,,,,,,,,,,,,,,,,,,,,,,,,,,,,,,,,,,,
,,,,,,,,2023-08-06_08h43.49.323,HF_wild_card,2022.2.4,Win32,59.93766483,631f8ac6a3465a389d2a398c,64ce5acb97489d65b14ecc7a,64cf4b159ac723a0c84c8ff7,,,,,,,decisionTrl,resources/DP.BMP,resources/DR.BMP,Door3,-0.317592593,0.001851852,1,0,0,0.8325,optionLeft,70,8745,4,40,0,40,0,1,,,,,,,,,,,,,,,,,,,,,,,,,,,,,,,,,,,,,,,
,,,,,,,,2023-08-06_08h43.49.323,HF_wild_card,2022.2.4,Win32,59.93766483,631f8ac6a3465a389d2a398c,64ce5acb97489d65b14ecc7a,64cf4b159ac723a0c84c8ff7,,,,,,,sngl,resources/Empty.png,resources/DY.BMP,Door1,0.159259259,-0.006481481,1,0,0,0.6219,optionRight,30,8775,4,41,0,41,0,1,,,,,,,,,,,,,,,,,,,,,,,,,,,,,,,,,,,,,,,
,,,,,,,,2023-08-06_08h43.49.323,HF_wild_card,2022.2.4,Win32,59.93766483,631f8ac6a3465a389d2a398c,64ce5acb97489d65b14ecc7a,64cf4b159ac723a0c84c8ff7,,,,,,,ctch,resources/DP.BMP,resources/DBN.BMP,Door3,-0.119444444,-0.022222222,1,0,0,1.6995,optionLeft,70,8845,4,42,0,42,0,1,,,,,,,,,,,,,,,,,,,,,,,,,,,,,,,,,,,,,,,
,,,,,,,,2023-08-06_08h43.49.323,HF_wild_card,2022.2.4,Win32,59.93766483,631f8ac6a3465a389d2a398c,64ce5acb97489d65b14ecc7a,64cf4b159ac723a0c84c8ff7,,,,,,,decisionTrl,resources/DP.BMP,resources/DR.BMP,Door3,-0.113888889,-0.022222222,1,0,0,0.5484,optionLeft,70,8915,4,43,0,43,0,1,,,,,,,,,,,,,,,,,,,,,,,,,,,,,,,,,,,,,,,
,,,,,,,,2023-08-06_08h43.49.323,HF_wild_card,2022.2.4,Win32,59.93766483,631f8ac6a3465a389d2a398c,64ce5acb97489d65b14ecc7a,64cf4b159ac723a0c84c8ff7,,,,,,,,,,,,,,,,,,,,,,,,,,3,0,3,0,1,,,,,,,,,,,,,,,,,,,,,,,,,,,,,,,,,,
,,,,,,,,2023-08-06_08h43.49.323,HF_wild_card,2022.2.4,Win32,59.93766483,631f8ac6a3465a389d2a398c,64ce5acb97489d65b14ecc7a,64cf4b159ac723a0c84c8ff7,,,,,,,sngl,resources/DG.BMP,resources/Empty.png,WildCard_NonEx,-0.163888889,-0.176851852,1,0,0,0.5801,optionLeft,55,8970,5,0,0,0,0,1,,,,,,,,,,,,,,,,,,,,,,,,,,,,,,,,,,,,,,,
,,,,,,,,2023-08-06_08h43.49.323,HF_wild_card,2022.2.4,Win32,59.93766483,631f8ac6a3465a389d2a398c,64ce5acb97489d65b14ecc7a,64cf4b159ac723a0c84c8ff7,,,,,,,ctch,resources/DR.BMP,resources/DY.BMP,Door4,-0.187962963,-0.04537037,1,0,0,0.4884,optionLeft,60,9030,5,1,0,1,0,1,,,,,,,,,,,,,,,,,,,,,,,,,,,,,,,,,,,,,,,
,,,,,,,,2023-08-06_08h43.49.323,HF_wild_card,2022.2.4,Win32,59.93766483,631f8ac6a3465a389d2a398c,64ce5acb97489d65b14ecc7a,64cf4b159ac723a0c84c8ff7,,,,,,,ctch,resources/DBN.BMP,resources/DP.BMP,Door2,-0.189814815,0.001851852,1,0,0,0.8479,optionLeft,40,9070,5,2,0,2,0,1,,,,,,,,,,,,,,,,,,,,,,,,,,,,,,,,,,,,,,,
,,,,,,,,2023-08-06_08h43.49.323,HF_wild_card,2022.2.4,Win32,59.93766483,631f8ac6a3465a389d2a398c,64ce5acb97489d65b14ecc7a,64cf4b159ac723a0c84c8ff7,,,,,,,decisionTrl,resources/DP.BMP,resources/DR.BMP,Door3,-0.206481481,-0.016666667,1,0,0,0.6492,optionLeft,70,9140,5,3,0,3,0,1,,,,,,,,,,,,,,,,,,,,,,,,,,,,,,,,,,,,,,,
,,,,,,,,2023-08-06_08h43.49.323,HF_wild_card,2022.2.4,Win32,59.93766483,631f8ac6a3465a389d2a398c,64ce5acb97489d65b14ecc7a,64cf4b159ac723a0c84c8ff7,,,,,,,decisionTrl,resources/DP.BMP,resources/DG.BMP,Door3,-0.203703704,-0.015740741,1,0,0,0.4795,optionLeft,70,9210,5,4,0,4,0,1,,,,,,,,,,,,,,,,,,,,,,,,,,,,,,,,,,,,,,,
,,,,,,,,2023-08-06_08h43.49.323,HF_wild_card,2022.2.4,Win32,59.93766483,631f8ac6a3465a389d2a398c,64ce5acb97489d65b14ecc7a,64cf4b159ac723a0c84c8ff7,,,,,,,sngl,resources/Empty.png,resources/DG.BMP,WildCard_NonEx,0.090740741,0.00462963,1,0,0,0.5615,optionRight,45,9255,5,5,0,5,0,1,,,,,,,,,,,,,,,,,,,,,,,,,,,,,,,,,,,,,,,
,,,,,,,,2023-08-06_08h43.49.323,HF_wild_card,2022.2.4,Win32,59.93766483,631f8ac6a3465a389d2a398c,64ce5acb97489d65b14ecc7a,64cf4b159ac723a0c84c8ff7,,,,,,,decisionTrl,resources/DG.BMP,resources/DP.BMP,WildCard_NonEx,-0.180555556,0.015740741,1,0,0,0.4628,optionLeft,45,9300,5,6,0,6,0,1,,,,,,,,,,,,,,,,,,,,,,,,,,,,,,,,,,,,,,,
,,,,,,,,2023-08-06_08h43.49.323,HF_wild_card,2022.2.4,Win32,59.93766483,631f8ac6a3465a389d2a398c,64ce5acb97489d65b14ecc7a,64cf4b159ac723a0c84c8ff7,,,,,,,decisionTrl,resources/DY.BMP,resources/DG.BMP,WildCard_NonEx,0.206481481,0.04537037,1,0,0,0.6298,optionRight,55,9355,5,7,0,7,0,1,,,,,,,,,,,,,,,,,,,,,,,,,,,,,,,,,,,,,,,
,,,,,,,,2023-08-06_08h43.49.323,HF_wild_card,2022.2.4,Win32,59.93766483,631f8ac6a3465a389d2a398c,64ce5acb97489d65b14ecc7a,64cf4b159ac723a0c84c8ff7,,,,,,,sngl,resources/Empty.png,resources/DY.BMP,Door1,0.371296296,-0.040740741,1,0,0,0.5516,optionRight,30,9385,5,8,0,8,0,1,,,,,,,,,,,,,,,,,,,,,,,,,,,,,,,,,,,,,,,
,,,,,,,,2023-08-06_08h43.49.323,HF_wild_card,2022.2.4,Win32,59.93766483,631f8ac6a3465a389d2a398c,64ce5acb97489d65b14ecc7a,64cf4b159ac723a0c84c8ff7,,,,,,,sngl,resources/DG.BMP,resources/Empty.png,WildCard_NonEx,-0.099074074,-0.024074074,1,0,0,0.4621,optionLeft,45,9430,5,9,0,9,0,1,,,,,,,,,,,,,,,,,,,,,,,,,,,,,,,,,,,,,,,
,,,,,,,,2023-08-06_08h43.49.323,HF_wild_card,2022.2.4,Win32,59.93766483,631f8ac6a3465a389d2a398c,64ce5acb97489d65b14ecc7a,64cf4b159ac723a0c84c8ff7,,,,,,,ctch,resources/DY.BMP,resources/DR.BMP,Door1,-0.223148148,-0.003703704,1,0,0,0.5632,optionLeft,30,9460,5,10,0,10,0,1,,,,,,,,,,,,,,,,,,,,,,,,,,,,,,,,,,,,,,,
,,,,,,,,2023-08-06_08h43.49.323,HF_wild_card,2022.2.4,Win32,59.93766483,631f8ac6a3465a389d2a398c,64ce5acb97489d65b14ecc7a,64cf4b159ac723a0c84c8ff7,,,,,,,decisionTrl,resources/DY.BMP,resources/DBN.BMP,Door1,-0.176851852,0.022222222,1,0,0,0.6119,optionLeft,30,9490,5,11,0,11,0,1,,,,,,,,,,,,,,,,,,,,,,,,,,,,,,,,,,,,,,,
,,,,,,,,2023-08-06_08h43.49.323,HF_wild_card,2022.2.4,Win32,59.93766483,631f8ac6a3465a389d2a398c,64ce5acb97489d65b14ecc7a,64cf4b159ac723a0c84c8ff7,,,,,,,decisionTrl,resources/DG.BMP,resources/DY.BMP,Door1,-0.075925926,-0.016666667,1,0,0,0.2952,optionRight,30,9520,5,12,0,12,0,1,,,,,,,,,,,,,,,,,,,,,,,,,,,,,,,,,,,,,,,
,,,,,,,,2023-08-06_08h43.49.323,HF_wild_card,2022.2.4,Win32,59.93766483,631f8ac6a3465a389d2a398c,64ce5acb97489d65b14ecc7a,64cf4b159ac723a0c84c8ff7,,,,,,,decisionTrl,resources/DP.BMP,resources/DR.BMP,Door3,-0.147222222,-0.023148148,1,0,0,0.3489,optionLeft,70,9590,5,13,0,13,0,1,,,,,,,,,,,,,,,,,,,,,,,,,,,,,,,,,,,,,,,
,,,,,,,,2023-08-06_08h43.49.323,HF_wild_card,2022.2.4,Win32,59.93766483,631f8ac6a3465a389d2a398c,64ce5acb97489d65b14ecc7a,64cf4b159ac723a0c84c8ff7,,,,,,,ctch,resources/DR.BMP,resources/DY.BMP,Door4,-0.225925926,0.002777778,1,0,0,0.3813,optionLeft,60,9650,5,14,0,14,0,1,,,,,,,,,,,,,,,,,,,,,,,,,,,,,,,,,,,,,,,
,,,,,,,,2023-08-06_08h43.49.323,HF_wild_card,2022.2.4,Win32,59.93766483,631f8ac6a3465a389d2a398c,64ce5acb97489d65b14ecc7a,64cf4b159ac723a0c84c8ff7,,,,,,,decisionTrl,resources/DG.BMP,resources/DBN.BMP,WildCard_NonEx,-0.068518519,-0.007407407,1,0,0,0.479,optionLeft,45,9695,5,15,0,15,0,1,,,,,,,,,,,,,,,,,,,,,,,,,,,,,,,,,,,,,,,
,,,,,,,,2023-08-06_08h43.49.323,HF_wild_card,2022.2.4,Win32,59.93766483,631f8ac6a3465a389d2a398c,64ce5acb97489d65b14ecc7a,64cf4b159ac723a0c84c8ff7,,,,,,,decisionTrl,resources/DR.BMP,resources/DP.BMP,Door4,-0.202777778,-0.003703704,1,0,0,0.361,optionLeft,80,9775,5,16,0,16,0,1,,,,,,,,,,,,,,,,,,,,,,,,,,,,,,,,,,,,,,,
,,,,,,,,2023-08-06_08h43.49.323,HF_wild_card,2022.2.4,Win32,59.93766483,631f8ac6a3465a389d2a398c,64ce5acb97489d65b14ecc7a,64cf4b159ac723a0c84c8ff7,,,,,,,ctch,resources/DBN.BMP,resources/DP.BMP,Door2,-0.256481481,-0.015740741,1,0,0,0.3621,optionLeft,40,9815,5,17,0,17,0,1,,,,,,,,,,,,,,,,,,,,,,,,,,,,,,,,,,,,,,,
,,,,,,,,2023-08-06_08h43.49.323,HF_wild_card,2022.2.4,Win32,59.93766483,631f8ac6a3465a389d2a398c,64ce5acb97489d65b14ecc7a,64cf4b159ac723a0c84c8ff7,,,,,,,decisionTrl,resources/DBN.BMP,resources/DY.BMP,Door1,0.175,0.012962963,1,0,0,0.4369,optionRight,30,9845,5,18,0,18,0,1,,,,,,,,,,,,,,,,,,,,,,,,,,,,,,,,,,,,,,,
,,,,,,,,2023-08-06_08h43.49.323,HF_wild_card,2022.2.4,Win32,59.93766483,631f8ac6a3465a389d2a398c,64ce5acb97489d65b14ecc7a,64cf4b159ac723a0c84c8ff7,,,,,,,decisionTrl,resources/DY.BMP,resources/DBN.BMP,Door1,-0.161111111,-0.016666667,1,0,0,0.3628,optionLeft,30,9875,5,19,0,19,0,1,,,,,,,,,,,,,,,,,,,,,,,,,,,,,,,,,,,,,,,
,,,,,,,,2023-08-06_08h43.49.323,HF_wild_card,2022.2.4,Win32,59.93766483,631f8ac6a3465a389d2a398c,64ce5acb97489d65b14ecc7a,64cf4b159ac723a0c84c8ff7,,,,,,,sngl,resources/DY.BMP,resources/Empty.png,Door1,-0.20462963,-0.008333333,1,0,0,0.4617,optionLeft,30,9905,5,20,0,20,0,1,,,,,,,,,,,,,,,,,,,,,,,,,,,,,,,,,,,,,,,
,,,,,,,,2023-08-06_08h43.49.323,HF_wild_card,2022.2.4,Win32,59.93766483,631f8ac6a3465a389d2a398c,64ce5acb97489d65b14ecc7a,64cf4b159ac723a0c84c8ff7,,,,,,,decisionTrl,resources/DP.BMP,resources/DR.BMP,Door3,-0.275,-0.056481481,1,0,0,0.6656,optionLeft,70,9975,5,21,0,21,0,1,,,,,,,,,,,,,,,,,,,,,,,,,,,,,,,,,,,,,,,
,,,,,,,,2023-08-06_08h43.49.323,HF_wild_card,2022.2.4,Win32,59.93766483,631f8ac6a3465a389d2a398c,64ce5acb97489d65b14ecc7a,64cf4b159ac723a0c84c8ff7,,,,,,,sngl,resources/DR.BMP,resources/Empty.png,Door4,-0.323148148,-0.014814815,1,0,0,0.3874,optionLeft,80,10055,5,22,0,22,0,1,,,,,,,,,,,,,,,,,,,,,,,,,,,,,,,,,,,,,,,
,,,,,,,,2023-08-06_08h43.49.323,HF_wild_card,2022.2.4,Win32,59.93766483,631f8ac6a3465a389d2a398c,64ce5acb97489d65b14ecc7a,64cf4b159ac723a0c84c8ff7,,,,,,,decisionTrl,resources/DR.BMP,resources/DP.BMP,Door4,-0.348148148,-0.047222222,1,0,0,0.4533,optionLeft,60,10115,5,23,0,23,0,1,,,,,,,,,,,,,,,,,,,,,,,,,,,,,,,,,,,,,,,
,,,,,,,,2023-08-06_08h43.49.323,HF_wild_card,2022.2.4,Win32,59.93766483,631f8ac6a3465a389d2a398c,64ce5acb97489d65b14ecc7a,64cf4b159ac723a0c84c8ff7,,,,,,,sngl,resources/DBN.BMP,resources/Empty.png,Door2,-0.275,-0.065740741,1,0,0,0.5546,optionLeft,40,10155,5,24,0,24,0,1,,,,,,,,,,,,,,,,,,,,,,,,,,,,,,,,,,,,,,,
,,,,,,,,2023-08-06_08h43.49.323,HF_wild_card,2022.2.4,Win32,59.93766483,631f8ac6a3465a389d2a398c,64ce5acb97489d65b14ecc7a,64cf4b159ac723a0c84c8ff7,,,,,,,decisionTrl,resources/DR.BMP,resources/DP.BMP,Door3,0.158333333,0.019444444,1,0,0,0.5555,optionRight,70,10225,5,25,0,25,0,1,,,,,,,,,,,,,,,,,,,,,,,,,,,,,,,,,,,,,,,
,,,,,,,,2023-08-06_08h43.49.323,HF_wild_card,2022.2.4,Win32,59.93766483,631f8ac6a3465a389d2a398c,64ce5acb97489d65b14ecc7a,64cf4b159ac723a0c84c8ff7,,,,,,,decisionTrl,resources/DG.BMP,resources/DR.BMP,WildCard_NonEx,-0.227777778,-0.030555556,1,0,0,0.4315,optionLeft,55,10280,5,26,0,26,0,1,,,,,,,,,,,,,,,,,,,,,,,,,,,,,,,,,,,,,,,
,,,,,,,,2023-08-06_08h43.49.323,HF_wild_card,2022.2.4,Win32,59.93766483,631f8ac6a3465a389d2a398c,64ce5acb97489d65b14ecc7a,64cf4b159ac723a0c84c8ff7,,,,,,,decisionTrl,resources/DR.BMP,resources/DP.BMP,Door4,-0.243518519,-0.037037037,1,0,0,0.5961,optionLeft,80,10360,5,27,0,27,0,1,,,,,,,,,,,,,,,,,,,,,,,,,,,,,,,,,,,,,,,
,,,,,,,,2023-08-06_08h43.49.323,HF_wild_card,2022.2.4,Win32,59.93766483,631f8ac6a3465a389d2a398c,64ce5acb97489d65b14ecc7a,64cf4b159ac723a0c84c8ff7,,,,,,,sngl,resources/DP.BMP,resources/Empty.png,Door3,-0.176851852,-0.02962963,1,0,0,0.398,optionLeft,70,10430,5,28,0,28,0,1,,,,,,,,,,,,,,,,,,,,,,,,,,,,,,,,,,,,,,,
,,,,,,,,2023-08-06_08h43.49.323,HF_wild_card,2022.2.4,Win32,59.93766483,631f8ac6a3465a389d2a398c,64ce5acb97489d65b14ecc7a,64cf4b159ac723a0c84c8ff7,,,,,,,decisionTrl,resources/DBN.BMP,resources/DY.BMP,Door2,-0.14537037,-0.056481481,1,0,0,0.4297,optionLeft,20,10450,5,29,0,29,0,1,,,,,,,,,,,,,,,,,,,,,,,,,,,,,,,,,,,,,,,
,,,,,,,,2023-08-06_08h43.49.323,HF_wild_card,2022.2.4,Win32,59.93766483,631f8ac6a3465a389d2a398c,64ce5acb97489d65b14ecc7a,64cf4b159ac723a0c84c8ff7,,,,,,,decisionTrl,resources/DBN.BMP,resources/DY.BMP,Door2,-0.137962963,-0.007407407,1,0,0,0.6606,optionLeft,20,10470,5,30,0,30,0,1,,,,,,,,,,,,,,,,,,,,,,,,,,,,,,,,,,,,,,,
,,,,,,,,2023-08-06_08h43.49.323,HF_wild_card,2022.2.4,Win32,59.93766483,631f8ac6a3465a389d2a398c,64ce5acb97489d65b14ecc7a,64cf4b159ac723a0c84c8ff7,,,,,,,sngl,resources/Empty.png,resources/DP.BMP,Door3,0.059259259,-0.013888889,1,0,0,0.4324,optionRight,70,10540,5,31,0,31,0,1,,,,,,,,,,,,,,,,,,,,,,,,,,,,,,,,,,,,,,,
,,,,,,,,2023-08-06_08h43.49.323,HF_wild_card,2022.2.4,Win32,59.93766483,631f8ac6a3465a389d2a398c,64ce5acb97489d65b14ecc7a,64cf4b159ac723a0c84c8ff7,,,,,,,decisionTrl,resources/DP.BMP,resources/DR.BMP,Door3,-0.231481481,-0.006481481,1,0,0,0.3982,optionLeft,70,10610,5,32,0,32,0,1,,,,,,,,,,,,,,,,,,,,,,,,,,,,,,,,,,,,,,,
,,,,,,,,2023-08-06_08h43.49.323,HF_wild_card,2022.2.4,Win32,59.93766483,631f8ac6a3465a389d2a398c,64ce5acb97489d65b14ecc7a,64cf4b159ac723a0c84c8ff7,,,,,,,decisionTrl,resources/DBN.BMP,resources/DY.BMP,Door2,-0.196296296,-0.018518519,1,0,0,0.3813,optionLeft,40,10650,5,33,0,33,0,1,,,,,,,,,,,,,,,,,,,,,,,,,,,,,,,,,,,,,,,
,,,,,,,,2023-08-06_08h43.49.323,HF_wild_card,2022.2.4,Win32,59.93766483,631f8ac6a3465a389d2a398c,64ce5acb97489d65b14ecc7a,64cf4b159ac723a0c84c8ff7,,,,,,,sngl,resources/Empty.png,resources/DG.BMP,WildCard_NonEx,0.160185185,0.000925926,1,0,0,0.4556,optionRight,55,10705,5,34,0,34,0,1,,,,,,,,,,,,,,,,,,,,,,,,,,,,,,,,,,,,,,,
,,,,,,,,2023-08-06_08h43.49.323,HF_wild_card,2022.2.4,Win32,59.93766483,631f8ac6a3465a389d2a398c,64ce5acb97489d65b14ecc7a,64cf4b159ac723a0c84c8ff7,,,,,,,ctch,resources/DY.BMP,resources/DR.BMP,Door1,-0.151851852,-0.015740741,1,0,0,0.4663,optionLeft,30,10735,5,35,0,35,0,1,,,,,,,,,,,,,,,,,,,,,,,,,,,,,,,,,,,,,,,
,,,,,,,,2023-08-06_08h43.49.323,HF_wild_card,2022.2.4,Win32,59.93766483,631f8ac6a3465a389d2a398c,64ce5acb97489d65b14ecc7a,64cf4b159ac723a0c84c8ff7,,,,,,,decisionTrl,resources/DY.BMP,resources/DBN.BMP,Door1,-0.189814815,-0.008333333,1,0,0,0.5556,optionLeft,30,10765,5,36,0,36,0,1,,,,,,,,,,,,,,,,,,,,,,,,,,,,,,,,,,,,,,,
,,,,,,,,2023-08-06_08h43.49.323,HF_wild_card,2022.2.4,Win32,59.93766483,631f8ac6a3465a389d2a398c,64ce5acb97489d65b14ecc7a,64cf4b159ac723a0c84c8ff7,,,,,,,ctch,resources/DP.BMP,resources/DBN.BMP,Door3,-0.22962963,-0.022222222,1,0,0,0.4994,optionLeft,70,10835,5,37,0,37,0,1,,,,,,,,,,,,,,,,,,,,,,,,,,,,,,,,,,,,,,,
,,,,,,,,2023-08-06_08h43.49.323,HF_wild_card,2022.2.4,Win32,59.93766483,631f8ac6a3465a389d2a398c,64ce5acb97489d65b14ecc7a,64cf4b159ac723a0c84c8ff7,,,,,,,sngl,resources/Empty.png,resources/DR.BMP,Door4,0.286111111,-0.048148148,1,0,0,0.6463,optionRight,60,10895,5,38,0,38,0,1,,,,,,,,,,,,,,,,,,,,,,,,,,,,,,,,,,,,,,,
,,,,,,,,2023-08-06_08h43.49.323,HF_wild_card,2022.2.4,Win32,59.93766483,631f8ac6a3465a389d2a398c,64ce5acb97489d65b14ecc7a,64cf4b159ac723a0c84c8ff7,,,,,,,sngl,resources/Empty.png,resources/DBN.BMP,Door2,0.123148148,-0.007407407,1,0,0,0.5382,optionRight,20,10915,5,39,0,39,0,1,,,,,,,,,,,,,,,,,,,,,,,,,,,,,,,,,,,,,,,
,,,,,,,,2023-08-06_08h43.49.323,HF_wild_card,2022.2.4,Win32,59.93766483,631f8ac6a3465a389d2a398c,64ce5acb97489d65b14ecc7a,64cf4b159ac723a0c84c8ff7,,,,,,,ctch,resources/DP.BMP,resources/DBN.BMP,Door3,-0.124074074,-0.019444444,1,0,0,0.5378,optionLeft,70,10985,5,40,0,40,0,1,,,,,,,,,,,,,,,,,,,,,,,,,,,,,,,,,,,,,,,
,,,,,,,,2023-08-06_08h43.49.323,HF_wild_card,2022.2.4,Win32,59.93766483,631f8ac6a3465a389d2a398c,64ce5acb97489d65b14ecc7a,64cf4b159ac723a0c84c8ff7,,,,,,,decisionTrl,resources/DY.BMP,resources/DBN.BMP,Door1,-0.193518519,-0.00462963,1,0,0,0.4124,optionLeft,30,11015,5,41,0,41,0,1,,,,,,,,,,,,,,,,,,,,,,,,,,,,,,,,,,,,,,,
,,,,,,,,2023-08-06_08h43.49.323,HF_wild_card,2022.2.4,Win32,59.93766483,631f8ac6a3465a389d2a398c,64ce5acb97489d65b14ecc7a,64cf4b159ac723a0c84c8ff7,,,,,,,decisionTrl,resources/DR.BMP,resources/DG.BMP,WildCard_NonEx,0.162037037,-0.019444444,1,0,0,0.6544,optionRight,55,11070,5,42,0,42,0,1,,,,,,,,,,,,,,,,,,,,,,,,,,,,,,,,,,,,,,,
,,,,,,,,2023-08-06_08h43.49.323,HF_wild_card,2022.2.4,Win32,59.93766483,631f8ac6a3465a389d2a398c,64ce5acb97489d65b14ecc7a,64cf4b159ac723a0c84c8ff7,,,,,,,decisionTrl,resources/DBN.BMP,resources/DG.BMP,Door2,-0.140740741,-0.05,1,0,0,0.6961,optionLeft,40,11110,5,43,0,43,0,1,,,,,,,,,,,,,,,,,,,,,,,,,,,,,,,,,,,,,,,
,,,,,,,,2023-08-06_08h43.49.323,HF_wild_card,2022.2.4,Win32,59.93766483,631f8ac6a3465a389d2a398c,64ce5acb97489d65b14ecc7a,64cf4b159ac723a0c84c8ff7,,,,,,,,,,,,,,,,,,,,,,,,,,4,0,4,0,1,,,,,,,,,,,,,,,,,,,,,,,,,,,,,,,,,,
,,,,,,,,2023-08-06_08h43.49.323,HF_wild_card,2022.2.4,Win32,59.93766483,631f8ac6a3465a389d2a398c,64ce5acb97489d65b14ecc7a,64cf4b159ac723a0c84c8ff7,,,,,,,decisionTrl,resources/DG.BMP,resources/DR.BMP,WildCard_NonEx,-0.297222222,-0.055555556,1,0,0,3.1126,optionLeft,55,11165,6,0,0,0,0,1,,,,,,,,,,,,,,,,,,,,,,,,,,,,,,,,,,,,,,,
,,,,,,,,2023-08-06_08h43.49.323,HF_wild_card,2022.2.4,Win32,59.93766483,631f8ac6a3465a389d2a398c,64ce5acb97489d65b14ecc7a,64cf4b159ac723a0c84c8ff7,,,,,,,sngl,resources/Empty.png,resources/DBN.BMP,Door2,0.209259259,-0.031481481,1,0,0,0.4637,optionRight,40,11205,6,1,0,1,0,1,,,,,,,,,,,,,,,,,,,,,,,,,,,,,,,,,,,,,,,
,,,,,,,,2023-08-06_08h43.49.323,HF_wild_card,2022.2.4,Win32,59.93766483,631f8ac6a3465a389d2a398c,64ce5acb97489d65b14ecc7a,64cf4b159ac723a0c84c8ff7,,,,,,,ctch,resources/DBN.BMP,resources/DP.BMP,Door2,-0.211111111,-0.028703704,1,0,0,0.7691,optionLeft,40,11245,6,2,0,2,0,1,,,,,,,,,,,,,,,,,,,,,,,,,,,,,,,,,,,,,,,
,,,,,,,,2023-08-06_08h43.49.323,HF_wild_card,2022.2.4,Win32,59.93766483,631f8ac6a3465a389d2a398c,64ce5acb97489d65b14ecc7a,64cf4b159ac723a0c84c8ff7,,,,,,,decisionTrl,resources/DR.BMP,resources/DG.BMP,Door4,-0.113888889,-0.005555556,1,0,0,0.4468,optionLeft,60,11305,6,3,0,3,0,1,,,,,,,,,,,,,,,,,,,,,,,,,,,,,,,,,,,,,,,
,,,,,,,,2023-08-06_08h43.49.323,HF_wild_card,2022.2.4,Win32,59.93766483,631f8ac6a3465a389d2a398c,64ce5acb97489d65b14ecc7a,64cf4b159ac723a0c84c8ff7,,,,,,,decisionTrl,resources/DG.BMP,resources/DBN.BMP,WildCard_NonEx,-0.211111111,0.00462963,1,0,0,0.3702,optionLeft,45,11350,6,4,0,4,0,1,,,,,,,,,,,,,,,,,,,,,,,,,,,,,,,,,,,,,,,
,,,,,,,,2023-08-06_08h43.49.323,HF_wild_card,2022.2.4,Win32,59.93766483,631f8ac6a3465a389d2a398c,64ce5acb97489d65b14ecc7a,64cf4b159ac723a0c84c8ff7,,,,,,,sngl,resources/Empty.png,resources/DG.BMP,WildCard_NonEx,0.209259259,0.02962963,1,0,0,0.3307,optionRight,45,11395,6,5,0,5,0,1,,,,,,,,,,,,,,,,,,,,,,,,,,,,,,,,,,,,,,,
,,,,,,,,2023-08-06_08h43.49.323,HF_wild_card,2022.2.4,Win32,59.93766483,631f8ac6a3465a389d2a398c,64ce5acb97489d65b14ecc7a,64cf4b159ac723a0c84c8ff7,,,,,,,sngl,resources/DBN.BMP,resources/Empty.png,Door2,-0.193518519,-0.008333333,1,0,0,0.3957,optionLeft,20,11415,6,6,0,6,0,1,,,,,,,,,,,,,,,,,,,,,,,,,,,,,,,,,,,,,,,
,,,,,,,,2023-08-06_08h43.49.323,HF_wild_card,2022.2.4,Win32,59.93766483,631f8ac6a3465a389d2a398c,64ce5acb97489d65b14ecc7a,64cf4b159ac723a0c84c8ff7,,,,,,,sngl,resources/DP.BMP,resources/Empty.png,Door3,-0.222222222,0,1,0,0,0.3948,optionLeft,70,11485,6,7,0,7,0,1,,,,,,,,,,,,,,,,,,,,,,,,,,,,,,,,,,,,,,,
,,,,,,,,2023-08-06_08h43.49.323,HF_wild_card,2022.2.4,Win32,59.93766483,631f8ac6a3465a389d2a398c,64ce5acb97489d65b14ecc7a,64cf4b159ac723a0c84c8ff7,,,,,,,sngl,resources/DY.BMP,resources/Empty.png,Door1,-0.194444444,-0.013888889,1,0,0,0.4995,optionLeft,30,11515,6,8,0,8,0,1,,,,,,,,,,,,,,,,,,,,,,,,,,,,,,,,,,,,,,,
,,,,,,,,2023-08-06_08h43.49.323,HF_wild_card,2022.2.4,Win32,59.93766483,631f8ac6a3465a389d2a398c,64ce5acb97489d65b14ecc7a,64cf4b159ac723a0c84c8ff7,,,,,,,decisionTrl,resources/DR.BMP,resources/DP.BMP,Door3,0.137962963,0.010185185,1,0,0,0.4236,optionRight,70,11585,6,9,0,9,0,1,,,,,,,,,,,,,,,,,,,,,,,,,,,,,,,,,,,,,,,
,,,,,,,,2023-08-06_08h43.49.323,HF_wild_card,2022.2.4,Win32,59.93766483,631f8ac6a3465a389d2a398c,64ce5acb97489d65b14ecc7a,64cf4b159ac723a0c84c8ff7,,,,,,,decisionTrl,resources/DY.BMP,resources/DBN.BMP,Door2,0.15462963,-0.012037037,1,0,0,0.3954,optionRight,40,11625,6,10,0,10,0,1,,,,,,,,,,,,,,,,,,,,,,,,,,,,,,,,,,,,,,,
,,,,,,,,2023-08-06_08h43.49.323,HF_wild_card,2022.2.4,Win32,59.93766483,631f8ac6a3465a389d2a398c,64ce5acb97489d65b14ecc7a,64cf4b159ac723a0c84c8ff7,,,,,,,sngl,resources/Empty.png,resources/DP.BMP,Door3,0.152777778,-0.005555556,1,0,0,0.5919,optionRight,70,11695,6,11,0,11,0,1,,,,,,,,,,,,,,,,,,,,,,,,,,,,,,,,,,,,,,,
,,,,,,,,2023-08-06_08h43.49.323,HF_wild_card,2022.2.4,Win32,59.93766483,631f8ac6a3465a389d2a398c,64ce5acb97489d65b14ecc7a,64cf4b159ac723a0c84c8ff7,,,,,,,decisionTrl,resources/DBN.BMP,resources/DY.BMP,Door2,-0.131481481,0.010185185,1,0,0,0.3284,optionLeft,20,11715,6,12,0,12,0,1,,,,,,,,,,,,,,,,,,,,,,,,,,,,,,,,,,,,,,,
,,,,,,,,2023-08-06_08h43.49.323,HF_wild_card,2022.2.4,Win32,59.93766483,631f8ac6a3465a389d2a398c,64ce5acb97489d65b14ecc7a,64cf4b159ac723a0c84c8ff7,,,,,,,sngl,resources/Empty.png,resources/DG.BMP,WildCard_NonEx,0.12037037,0.00462963,1,0,0,0.4593,optionRight,55,11770,6,13,0,13,0,1,,,,,,,,,,,,,,,,,,,,,,,,,,,,,,,,,,,,,,,
,,,,,,,,2023-08-06_08h43.49.323,HF_wild_card,2022.2.4,Win32,59.93766483,631f8ac6a3465a389d2a398c,64ce5acb97489d65b14ecc7a,64cf4b159ac723a0c84c8ff7,,,,,,,decisionTrl,resources/DP.BMP,resources/DG.BMP,WildCard_NonEx,0.131481481,-0.014814815,1,0,0,0.8458,optionRight,45,11815,6,14,0,14,0,1,,,,,,,,,,,,,,,,,,,,,,,,,,,,,,,,,,,,,,,
,,,,,,,,2023-08-06_08h43.49.323,HF_wild_card,2022.2.4,Win32,59.93766483,631f8ac6a3465a389d2a398c,64ce5acb97489d65b14ecc7a,64cf4b159ac723a0c84c8ff7,,,,,,,decisionTrl,resources/DR.BMP,resources/DP.BMP,Door4,-0.174074074,-0.023148148,1,0,0,0.7541,optionLeft,60,11875,6,15,0,15,0,1,,,,,,,,,,,,,,,,,,,,,,,,,,,,,,,,,,,,,,,
,,,,,,,,2023-08-06_08h43.49.323,HF_wild_card,2022.2.4,Win32,59.93766483,631f8ac6a3465a389d2a398c,64ce5acb97489d65b14ecc7a,64cf4b159ac723a0c84c8ff7,,,,,,,decisionTrl,resources/DBN.BMP,resources/DY.BMP,Door2,-0.164814815,-0.025,1,0,0,3.2991,optionLeft,40,11915,6,16,0,16,0,1,,,,,,,,,,,,,,,,,,,,,,,,,,,,,,,,,,,,,,,
,,,,,,,,2023-08-06_08h43.49.323,HF_wild_card,2022.2.4,Win32,59.93766483,631f8ac6a3465a389d2a398c,64ce5acb97489d65b14ecc7a,64cf4b159ac723a0c84c8ff7,,,,,,,decisionTrl,resources/DR.BMP,resources/DP.BMP,Door3,0.20462963,-0.04537037,1,0,0,0.5224,optionRight,70,11985,6,17,0,17,0,1,,,,,,,,,,,,,,,,,,,,,,,,,,,,,,,,,,,,,,,
,,,,,,,,2023-08-06_08h43.49.323,HF_wild_card,2022.2.4,Win32,59.93766483,631f8ac6a3465a389d2a398c,64ce5acb97489d65b14ecc7a,64cf4b159ac723a0c84c8ff7,,,,,,,ctch,resources/DY.BMP,resources/DR.BMP,Door4,0.155555556,-0.018518519,1,0,0,0.477,optionRight,80,12065,6,18,0,18,0,1,,,,,,,,,,,,,,,,,,,,,,,,,,,,,,,,,,,,,,,
,,,,,,,,2023-08-06_08h43.49.323,HF_wild_card,2022.2.4,Win32,59.93766483,631f8ac6a3465a389d2a398c,64ce5acb97489d65b14ecc7a,64cf4b159ac723a0c84c8ff7,,,,,,,decisionTrl,resources/DP.BMP,resources/DR.BMP,Door3,-0.221296296,-0.010185185,1,0,0,0.4042,optionLeft,70,12135,6,19,0,19,0,1,,,,,,,,,,,,,,,,,,,,,,,,,,,,,,,,,,,,,,,
,,,,,,,,2023-08-06_08h43.49.323,HF_wild_card,2022.2.4,Win32,59.93766483,631f8ac6a3465a389d2a398c,64ce5acb97489d65b14ecc7a,64cf4b159ac723a0c84c8ff7,,,,,,,sngl,resources/DG.BMP,resources/Empty.png,WildCard_NonEx,-0.139814815,-0.043518519,1,0,0,0.7378,optionLeft,45,12180,6,20,0,20,0,1,,,,,,,,,,,,,,,,,,,,,,,,,,,,,,,,,,,,,,,
,,,,,,,,2023-08-06_08h43.49.323,HF_wild_card,2022.2.4,Win32,59.93766483,631f8ac6a3465a389d2a398c,64ce5acb97489d65b14ecc7a,64cf4b159ac723a0c84c8ff7,,,,,,,decisionTrl,resources/DR.BMP,resources/DP.BMP,Door3,0.162962963,0.003703704,1,0,0,0.4491,optionRight,70,12250,6,21,0,21,0,1,,,,,,,,,,,,,,,,,,,,,,,,,,,,,,,,,,,,,,,
,,,,,,,,2023-08-06_08h43.49.323,HF_wild_card,2022.2.4,Win32,59.93766483,631f8ac6a3465a389d2a398c,64ce5acb97489d65b14ecc7a,64cf4b159ac723a0c84c8ff7,,,,,,,decisionTrl,resources/DY.BMP,resources/DBN.BMP,Door1,-0.127777778,-0.015740741,1,0,0,0.397,optionLeft,30,12280,6,22,0,22,0,1,,,,,,,,,,,,,,,,,,,,,,,,,,,,,,,,,,,,,,,
,,,,,,,,2023-08-06_08h43.49.323,HF_wild_card,2022.2.4,Win32,59.93766483,631f8ac6a3465a389d2a398c,64ce5acb97489d65b14ecc7a,64cf4b159ac723a0c84c8ff7,,,,,,,decisionTrl,resources/DBN.BMP,resources/DY.BMP,Door1,0.130555556,0.023148148,1,0,0,0.3877,optionRight,30,12310,6,23,0,23,0,1,,,,,,,,,,,,,,,,,,,,,,,,,,,,,,,,,,,,,,,
,,,,,,,,2023-08-06_08h43.49.323,HF_wild_card,2022.2.4,Win32,59.93766483,631f8ac6a3465a389d2a398c,64ce5acb97489d65b14ecc7a,64cf4b159ac723a0c84c8ff7,,,,,,,decisionTrl,resources/DP.BMP,resources/DR.BMP,Door3,-0.184259259,-0.001851852,1,0,0,0.362,optionLeft,70,12380,6,24,0,24,0,1,,,,,,,,,,,,,,,,,,,,,,,,,,,,,,,,,,,,,,,
,,,,,,,,2023-08-06_08h43.49.323,HF_wild_card,2022.2.4,Win32,59.93766483,631f8ac6a3465a389d2a398c,64ce5acb97489d65b14ecc7a,64cf4b159ac723a0c84c8ff7,,,,,,,sngl,resources/Empty.png,resources/DR.BMP,Door4,0.124074074,0.003703704,1,0,0,0.3859,optionRight,80,12460,6,25,0,25,0,1,,,,,,,,,,,,,,,,,,,,,,,,,,,,,,,,,,,,,,,
,,,,,,,,2023-08-06_08h43.49.323,HF_wild_card,2022.2.4,Win32,59.93766483,631f8ac6a3465a389d2a398c,64ce5acb97489d65b14ecc7a,64cf4b159ac723a0c84c8ff7,,,,,,,decisionTrl,resources/DP.BMP,resources/DR.BMP,Door3,-0.192592593,-0.005555556,1,0,0,0.5375,optionLeft,70,12530,6,26,0,26,0,1,,,,,,,,,,,,,,,,,,,,,,,,,,,,,,,,,,,,,,,
,,,,,,,,2023-08-06_08h43.49.323,HF_wild_card,2022.2.4,Win32,59.93766483,631f8ac6a3465a389d2a398c,64ce5acb97489d65b14ecc7a,64cf4b159ac723a0c84c8ff7,,,,,,,ctch,resources/DR.BMP,resources/DY.BMP,Door1,0.141666667,-0.022222222,1,0,0,0.3656,optionRight,30,12560,6,27,0,27,0,1,,,,,,,,,,,,,,,,,,,,,,,,,,,,,,,,,,,,,,,
,,,,,,,,2023-08-06_08h43.49.323,HF_wild_card,2022.2.4,Win32,59.93766483,631f8ac6a3465a389d2a398c,64ce5acb97489d65b14ecc7a,64cf4b159ac723a0c84c8ff7,,,,,,,decisionTrl,resources/DBN.BMP,resources/DY.BMP,Door2,-0.131481481,-0.013888889,1,0,0,0.3204,optionLeft,20,12580,6,28,0,28,0,1,,,,,,,,,,,,,,,,,,,,,,,,,,,,,,,,,,,,,,,
,,,,,,,,2023-08-06_08h43.49.323,HF_wild_card,2022.2.4,Win32,59.93766483,631f8ac6a3465a389d2a398c,64ce5acb97489d65b14ecc7a,64cf4b159ac723a0c84c8ff7,,,,,,,ctch,resources/DY.BMP,resources/DR.BMP,Door4,0.087037037,-0.002777778,1,0,0,0.397,optionRight,60,12640,6,29,0,29,0,1,,,,,,,,,,,,,,,,,,,,,,,,,,,,,,,,,,,,,,,
,,,,,,,,2023-08-06_08h43.49.323,HF_wild_card,2022.2.4,Win32,59.93766483,631f8ac6a3465a389d2a398c,64ce5acb97489d65b14ecc7a,64cf4b159ac723a0c84c8ff7,,,,,,,decisionTrl,resources/DP.BMP,resources/DR.BMP,Door3,-0.121296296,0,1,0,0,0.4288,optionLeft,70,12710,6,30,0,30,0,1,,,,,,,,,,,,,,,,,,,,,,,,,,,,,,,,,,,,,,,
,,,,,,,,2023-08-06_08h43.49.323,HF_wild_card,2022.2.4,Win32,59.93766483,631f8ac6a3465a389d2a398c,64ce5acb97489d65b14ecc7a,64cf4b159ac723a0c84c8ff7,,,,,,,sngl,resources/Empty.png,resources/DY.BMP,Door1,0.116666667,0.02037037,1,0,0,0.4363,optionRight,30,12740,6,31,0,31,0,1,,,,,,,,,,,,,,,,,,,,,,,,,,,,,,,,,,,,,,,
,,,,,,,,2023-08-06_08h43.49.323,HF_wild_card,2022.2.4,Win32,59.93766483,631f8ac6a3465a389d2a398c,64ce5acb97489d65b14ecc7a,64cf4b159ac723a0c84c8ff7,,,,,,,ctch,resources/DP.BMP,resources/DBN.BMP,Door3,0.048148148,0.02037037,1,0,0,0.4867,optionLeft,70,12810,6,32,0,32,0,1,,,,,,,,,,,,,,,,,,,,,,,,,,,,,,,,,,,,,,,
,,,,,,,,2023-08-06_08h43.49.323,HF_wild_card,2022.2.4,Win32,59.93766483,631f8ac6a3465a389d2a398c,64ce5acb97489d65b14ecc7a,64cf4b159ac723a0c84c8ff7,,,,,,,decisionTrl,resources/DY.BMP,resources/DBN.BMP,Door1,-0.199074074,-0.014814815,1,0,0,0.3871,optionLeft,30,12840,6,33,0,33,0,1,,,,,,,,,,,,,,,,,,,,,,,,,,,,,,,,,,,,,,,
,,,,,,,,2023-08-06_08h43.49.323,HF_wild_card,2022.2.4,Win32,59.93766483,631f8ac6a3465a389d2a398c,64ce5acb97489d65b14ecc7a,64cf4b159ac723a0c84c8ff7,,,,,,,ctch,resources/DR.BMP,resources/DY.BMP,Door1,0.161111111,-0.003703704,1,0,0,0.4286,optionRight,30,12870,6,34,0,34,0,1,,,,,,,,,,,,,,,,,,,,,,,,,,,,,,,,,,,,,,,
,,,,,,,,2023-08-06_08h43.49.323,HF_wild_card,2022.2.4,Win32,59.93766483,631f8ac6a3465a389d2a398c,64ce5acb97489d65b14ecc7a,64cf4b159ac723a0c84c8ff7,,,,,,,decisionTrl,resources/DBN.BMP,resources/DG.BMP,Door2,-0.377777778,-0.025925926,1,0,0,0.4172,optionLeft,20,12890,6,35,0,35,0,1,,,,,,,,,,,,,,,,,,,,,,,,,,,,,,,,,,,,,,,
,,,,,,,,2023-08-06_08h43.49.323,HF_wild_card,2022.2.4,Win32,59.93766483,631f8ac6a3465a389d2a398c,64ce5acb97489d65b14ecc7a,64cf4b159ac723a0c84c8ff7,,,,,,,decisionTrl,resources/DY.BMP,resources/DG.BMP,Door1,-0.181481481,-0.02962963,1,0,0,0.7067,optionLeft,30,12920,6,36,0,36,0,1,,,,,,,,,,,,,,,,,,,,,,,,,,,,,,,,,,,,,,,
,,,,,,,,2023-08-06_08h43.49.323,HF_wild_card,2022.2.4,Win32,59.93766483,631f8ac6a3465a389d2a398c,64ce5acb97489d65b14ecc7a,64cf4b159ac723a0c84c8ff7,,,,,,,sngl,resources/DR.BMP,resources/Empty.png,Door4,-0.246296296,-0.013888889,1,0,0,0.4132,optionLeft,60,12980,6,37,0,37,0,1,,,,,,,,,,,,,,,,,,,,,,,,,,,,,,,,,,,,,,,
,,,,,,,,2023-08-06_08h43.49.323,HF_wild_card,2022.2.4,Win32,59.93766483,631f8ac6a3465a389d2a398c,64ce5acb97489d65b14ecc7a,64cf4b159ac723a0c84c8ff7,,,,,,,ctch,resources/DBN.BMP,resources/DP.BMP,Door3,0.097222222,-0.062037037,1,0,0,0.8723,optionRight,70,13050,6,38,0,38,0,1,,,,,,,,,,,,,,,,,,,,,,,,,,,,,,,,,,,,,,,
,,,,,,,,2023-08-06_08h43.49.323,HF_wild_card,2022.2.4,Win32,59.93766483,631f8ac6a3465a389d2a398c,64ce5acb97489d65b14ecc7a,64cf4b159ac723a0c84c8ff7,,,,,,,decisionTrl,resources/DG.BMP,resources/DP.BMP,Door3,0.47962963,-0.055555556,1,0,0,0.6623,optionRight,70,13120,6,39,0,39,0,1,,,,,,,,,,,,,,,,,,,,,,,,,,,,,,,,,,,,,,,
,,,,,,,,2023-08-06_08h43.49.323,HF_wild_card,2022.2.4,Win32,59.93766483,631f8ac6a3465a389d2a398c,64ce5acb97489d65b14ecc7a,64cf4b159ac723a0c84c8ff7,,,,,,,decisionTrl,resources/DY.BMP,resources/DBN.BMP,Door1,-0.178703704,-0.009259259,1,0,0,0.3286,optionLeft,30,13150,6,40,0,40,0,1,,,,,,,,,,,,,,,,,,,,,,,,,,,,,,,,,,,,,,,
,,,,,,,,2023-08-06_08h43.49.323,HF_wild_card,2022.2.4,Win32,59.93766483,631f8ac6a3465a389d2a398c,64ce5acb97489d65b14ecc7a,64cf4b159ac723a0c84c8ff7,,,,,,,sngl,resources/DG.BMP,resources/Empty.png,WildCard_NonEx,-0.346296296,0.033333333,1,0,0,0.4292,optionLeft,55,13205,6,41,0,41,0,1,,,,,,,,,,,,,,,,,,,,,,,,,,,,,,,,,,,,,,,
,,,,,,,,2023-08-06_08h43.49.323,HF_wild_card,2022.2.4,Win32,59.93766483,631f8ac6a3465a389d2a398c,64ce5acb97489d65b14ecc7a,64cf4b159ac723a0c84c8ff7,,,,,,,ctch,resources/DP.BMP,resources/DBN.BMP,Door3,-0.324074074,-0.010185185,1,0,0,0.6256,optionLeft,70,13275,6,42,0,42,0,1,,,,,,,,,,,,,,,,,,,,,,,,,,,,,,,,,,,,,,,
,,,,,,,,2023-08-06_08h43.49.323,HF_wild_card,2022.2.4,Win32,59.93766483,631f8ac6a3465a389d2a398c,64ce5acb97489d65b14ecc7a,64cf4b159ac723a0c84c8ff7,,,,,,,decisionTrl,resources/DG.BMP,resources/DY.BMP,WildCard_NonEx,-0.199074074,0.005555556,1,0,0,0.3863,optionLeft,55,13330,6,43,0,43,0,1,,,,,,,,,,,,,,,,,,,,,,,,,,,,,,,,,,,,,,,
,,,,,,,,2023-08-06_08h43.49.323,HF_wild_card,2022.2.4,Win32,59.93766483,631f8ac6a3465a389d2a398c,64ce5acb97489d65b14ecc7a,64cf4b159ac723a0c84c8ff7,,,,,,,,,,,,,,,,,,,,,,,,,,5,0,5,0,1,,,,,,,,,,,,,,,,,,,,,,,,,,,,,,,,,,
,,,,,,,,2023-08-06_08h43.49.323,HF_wild_card,2022.2.4,Win32,59.93766483,631f8ac6a3465a389d2a398c,64ce5acb97489d65b14ecc7a,64cf4b159ac723a0c84c8ff7,,,,,,,ctch,resources/DY.BMP,resources/DR.BMP,Door4,0.361111111,-0.10462963,1,0,0,0.7719,optionRight,80,13410,7,0,0,0,0,1,,,,,,,,,,,,,,,,,,,,,,,,,,,,,,,,,,,,,,,
,,,,,,,,2023-08-06_08h43.49.323,HF_wild_card,2022.2.4,Win32,59.93766483,631f8ac6a3465a389d2a398c,64ce5acb97489d65b14ecc7a,64cf4b159ac723a0c84c8ff7,,,,,,,ctch,resources/DP.BMP,resources/DBN.BMP,Door3,-0.306481481,-0.005555556,1,0,0,1.1129,optionLeft,70,13480,7,1,0,1,0,1,,,,,,,,,,,,,,,,,,,,,,,,,,,,,,,,,,,,,,,
,,,,,,,,2023-08-06_08h43.49.323,HF_wild_card,2022.2.4,Win32,59.93766483,631f8ac6a3465a389d2a398c,64ce5acb97489d65b14ecc7a,64cf4b159ac723a0c84c8ff7,,,,,,,ctch,resources/DBN.BMP,resources/DP.BMP,Door3,0.301851852,-0.069444444,1,0,0,0.8649,optionRight,70,13550,7,2,0,2,0,1,,,,,,,,,,,,,,,,,,,,,,,,,,,,,,,,,,,,,,,
,,,,,,,,2023-08-06_08h43.49.323,HF_wild_card,2022.2.4,Win32,59.93766483,631f8ac6a3465a389d2a398c,64ce5acb97489d65b14ecc7a,64cf4b159ac723a0c84c8ff7,,,,,,,decisionTrl,resources/DBN.BMP,resources/DY.BMP,Door1,0.275925926,-0.044444444,1,0,0,1.2489,optionRight,30,13580,7,3,0,3,0,1,,,,,,,,,,,,,,,,,,,,,,,,,,,,,,,,,,,,,,,
,,,,,,,,2023-08-06_08h43.49.323,HF_wild_card,2022.2.4,Win32,59.93766483,631f8ac6a3465a389d2a398c,64ce5acb97489d65b14ecc7a,64cf4b159ac723a0c84c8ff7,,,,,,,decisionTrl,resources/DY.BMP,resources/DBN.BMP,Door1,-0.259259259,-0.018518519,1,0,0,0.7572,optionLeft,30,13610,7,4,0,4,0,1,,,,,,,,,,,,,,,,,,,,,,,,,,,,,,,,,,,,,,,
,,,,,,,,2023-08-06_08h43.49.323,HF_wild_card,2022.2.4,Win32,59.93766483,631f8ac6a3465a389d2a398c,64ce5acb97489d65b14ecc7a,64cf4b159ac723a0c84c8ff7,,,,,,,decisionTrl,resources/DP.BMP,resources/DR.BMP,Door4,0.363888889,-0.031481481,1,0,0,2.4825,optionRight,80,13690,7,5,0,5,0,1,,,,,,,,,,,,,,,,,,,,,,,,,,,,,,,,,,,,,,,
,,,,,,,,2023-08-06_08h43.49.323,HF_wild_card,2022.2.4,Win32,59.93766483,631f8ac6a3465a389d2a398c,64ce5acb97489d65b14ecc7a,64cf4b159ac723a0c84c8ff7,,,,,,,decisionTrl,resources/DR.BMP,resources/DP.BMP,Door3,0.287962963,-0.006481481,1,0,0,0.7252,optionRight,70,13760,7,6,0,6,0,1,,,,,,,,,,,,,,,,,,,,,,,,,,,,,,,,,,,,,,,
,,,,,,,,2023-08-06_08h43.49.323,HF_wild_card,2022.2.4,Win32,59.93766483,631f8ac6a3465a389d2a398c,64ce5acb97489d65b14ecc7a,64cf4b159ac723a0c84c8ff7,,,,,,,decisionTrl,resources/DR.BMP,resources/DP.BMP,Door4,-0.177777778,0.019444444,1,0,0,0.5303,optionLeft,80,13840,7,7,0,7,0,1,,,,,,,,,,,,,,,,,,,,,,,,,,,,,,,,,,,,,,,
,,,,,,,,2023-08-06_08h43.49.323,HF_wild_card,2022.2.4,Win32,59.93766483,631f8ac6a3465a389d2a398c,64ce5acb97489d65b14ecc7a,64cf4b159ac723a0c84c8ff7,,,,,,,ctch,resources/DR.BMP,resources/DY.BMP,Door4,-0.143518519,-0.001851852,1,0,0,0.5494,optionLeft,60,13900,7,8,0,8,0,1,,,,,,,,,,,,,,,,,,,,,,,,,,,,,,,,,,,,,,,
,,,,,,,,2023-08-06_08h43.49.323,HF_wild_card,2022.2.4,Win32,59.93766483,631f8ac6a3465a389d2a398c,64ce5acb97489d65b14ecc7a,64cf4b159ac723a0c84c8ff7,,,,,,,decisionTrl,resources/DY.BMP,resources/DBN.BMP,Door1,-0.138888889,-0.003703704,1,0,0,1.7623,optionLeft,30,13930,7,9,0,9,0,1,,,,,,,,,,,,,,,,,,,,,,,,,,,,,,,,,,,,,,,
,,,,,,,,2023-08-06_08h43.49.323,HF_wild_card,2022.2.4,Win32,59.93766483,631f8ac6a3465a389d2a398c,64ce5acb97489d65b14ecc7a,64cf4b159ac723a0c84c8ff7,,,,,,,ctch,resources/DBN.BMP,resources/DP.BMP,Door3,0.246296296,-0.015740741,1,0,0,1.0894,optionRight,70,14000,7,10,0,10,0,1,,,,,,,,,,,,,,,,,,,,,,,,,,,,,,,,,,,,,,,
,,,,,,,,2023-08-06_08h43.49.323,HF_wild_card,2022.2.4,Win32,59.93766483,631f8ac6a3465a389d2a398c,64ce5acb97489d65b14ecc7a,64cf4b159ac723a0c84c8ff7,,,,,,,ctch,resources/DY.BMP,resources/DR.BMP,Door4,0.278703704,-0.007407407,1,0,0,0.9508,optionRight,80,14080,7,11,0,11,0,1,,,,,,,,,,,,,,,,,,,,,,,,,,,,,,,,,,,,,,,
,,,,,,,,2023-08-06_08h43.49.323,HF_wild_card,2022.2.4,Win32,59.93766483,631f8ac6a3465a389d2a398c,64ce5acb97489d65b14ecc7a,64cf4b159ac723a0c84c8ff7,,,,,,,ctch,resources/DR.BMP,resources/DY.BMP,Door4,-0.371296296,0.071296296,1,0,0,0.749,optionLeft,80,14160,7,12,0,12,0,1,,,,,,,,,,,,,,,,,,,,,,,,,,,,,,,,,,,,,,,
,,,,,,,,2023-08-06_08h43.49.323,HF_wild_card,2022.2.4,Win32,59.93766483,631f8ac6a3465a389d2a398c,64ce5acb97489d65b14ecc7a,64cf4b159ac723a0c84c8ff7,,,,,,,ctch,resources/DR.BMP,resources/DY.BMP,Door4,-0.263888889,0.024074074,1,0,0,0.8745,optionLeft,60,14220,7,13,0,13,0,1,,,,,,,,,,,,,,,,,,,,,,,,,,,,,,,,,,,,,,,
,,,,,,,,2023-08-06_08h43.49.323,HF_wild_card,2022.2.4,Win32,59.93766483,631f8ac6a3465a389d2a398c,64ce5acb97489d65b14ecc7a,64cf4b159ac723a0c84c8ff7,,,,,,,ctch,resources/DY.BMP,resources/DR.BMP,Door4,0.287037037,-0.017592593,1,0,0,0.6246,optionRight,80,14300,7,14,0,14,0,1,,,,,,,,,,,,,,,,,,,,,,,,,,,,,,,,,,,,,,,
,,,,,,,,2023-08-06_08h43.49.323,HF_wild_card,2022.2.4,Win32,59.93766483,631f8ac6a3465a389d2a398c,64ce5acb97489d65b14ecc7a,64cf4b159ac723a0c84c8ff7,,,,,,,ctch,resources/DP.BMP,resources/DBN.BMP,Door3,-0.125,-0.008333333,1,0,0,0.5305,optionLeft,70,14370,7,15,0,15,0,1,,,,,,,,,,,,,,,,,,,,,,,,,,,,,,,,,,,,,,,
,,,,,,,,2023-08-06_08h43.49.323,HF_wild_card,2022.2.4,Win32,59.93766483,631f8ac6a3465a389d2a398c,64ce5acb97489d65b14ecc7a,64cf4b159ac723a0c84c8ff7,,,,,,,decisionTrl,resources/DBN.BMP,resources/DY.BMP,Door1,0.184259259,-0.00462963,1,0,0,0.981,optionRight,30,14400,7,16,0,16,0,1,,,,,,,,,,,,,,,,,,,,,,,,,,,,,,,,,,,,,,,
,,,,,,,,2023-08-06_08h43.49.323,HF_wild_card,2022.2.4,Win32,59.93766483,631f8ac6a3465a389d2a398c,64ce5acb97489d65b14ecc7a,64cf4b159ac723a0c84c8ff7,,,,,,,decisionTrl,resources/DP.BMP,resources/DR.BMP,Door4,0.177777778,0.003703704,1,0,0,0.4824,optionRight,60,14460,7,17,0,17,0,1,,,,,,,,,,,,,,,,,,,,,,,,,,,,,,,,,,,,,,,
,,,,,,,,2023-08-06_08h43.49.323,HF_wild_card,2022.2.4,Win32,59.93766483,631f8ac6a3465a389d2a398c,64ce5acb97489d65b14ecc7a,64cf4b159ac723a0c84c8ff7,,,,,,,decisionTrl,resources/DBN.BMP,resources/DY.BMP,Door1,0.209259259,-0.037962963,1,0,0,0.3972,optionRight,30,14490,7,18,0,18,0,1,,,,,,,,,,,,,,,,,,,,,,,,,,,,,,,,,,,,,,,
,,,,,,,,2023-08-06_08h43.49.323,HF_wild_card,2022.2.4,Win32,59.93766483,631f8ac6a3465a389d2a398c,64ce5acb97489d65b14ecc7a,64cf4b159ac723a0c84c8ff7,,,,,,,decisionTrl,resources/DY.BMP,resources/DBN.BMP,Door1,-0.180555556,0.007407407,1,0,0,0.4152,optionLeft,30,14520,7,19,0,19,0,1,,,,,,,,,,,,,,,,,,,,,,,,,,,,,,,,,,,,,,,
,,,,,,,,2023-08-06_08h43.49.323,HF_wild_card,2022.2.4,Win32,59.93766483,631f8ac6a3465a389d2a398c,64ce5acb97489d65b14ecc7a,64cf4b159ac723a0c84c8ff7,,,,,,,decisionTrl,resources/DP.BMP,resources/DR.BMP,Door3,-0.108333333,-0.007407407,1,0,0,0.5394,optionLeft,70,14590,7,20,0,20,0,1,,,,,,,,,,,,,,,,,,,,,,,,,,,,,,,,,,,,,,,
,,,,,,,,2023-08-06_08h43.49.323,HF_wild_card,2022.2.4,Win32,59.93766483,631f8ac6a3465a389d2a398c,64ce5acb97489d65b14ecc7a,64cf4b159ac723a0c84c8ff7,,,,,,,decisionTrl,resources/DY.BMP,resources/DBN.BMP,Door1,-0.15,-0.009259259,1,0,0,0.5879,optionLeft,30,14620,7,21,0,21,0,1,,,,,,,,,,,,,,,,,,,,,,,,,,,,,,,,,,,,,,,
,,,,,,,,2023-08-06_08h43.49.323,HF_wild_card,2022.2.4,Win32,59.93766483,631f8ac6a3465a389d2a398c,64ce5acb97489d65b14ecc7a,64cf4b159ac723a0c84c8ff7,,,,,,,decisionTrl,resources/DP.BMP,resources/DR.BMP,Door4,0.182407407,0.006481481,1,0,0,0.5567,optionRight,60,14680,7,22,0,22,0,1,,,,,,,,,,,,,,,,,,,,,,,,,,,,,,,,,,,,,,,
,,,,,,,,2023-08-06_08h43.49.323,HF_wild_card,2022.2.4,Win32,59.93766483,631f8ac6a3465a389d2a398c,64ce5acb97489d65b14ecc7a,64cf4b159ac723a0c84c8ff7,,,,,,,decisionTrl,resources/DP.BMP,resources/DR.BMP,Door4,0.194444444,0.001851852,1,0,0,0.6838,optionRight,80,14760,7,23,0,23,0,1,,,,,,,,,,,,,,,,,,,,,,,,,,,,,,,,,,,,,,,
,,,,,,,,2023-08-06_08h43.49.323,HF_wild_card,2022.2.4,Win32,59.93766483,631f8ac6a3465a389d2a398c,64ce5acb97489d65b14ecc7a,64cf4b159ac723a0c84c8ff7,,,,,,,decisionTrl,resources/DR.BMP,resources/DP.BMP,Door4,-0.27037037,0.02037037,1,0,0,0.4473,optionLeft,60,14820,7,24,0,24,0,1,,,,,,,,,,,,,,,,,,,,,,,,,,,,,,,,,,,,,,,
,,,,,,,,2023-08-06_08h43.49.323,HF_wild_card,2022.2.4,Win32,59.93766483,631f8ac6a3465a389d2a398c,64ce5acb97489d65b14ecc7a,64cf4b159ac723a0c84c8ff7,,,,,,,decisionTrl,resources/DR.BMP,resources/DP.BMP,Door4,-0.178703704,0.008333333,1,0,0,0.4049,optionLeft,80,14900,7,25,0,25,0,1,,,,,,,,,,,,,,,,,,,,,,,,,,,,,,,,,,,,,,,
,,,,,,,,2023-08-06_08h43.49.323,HF_wild_card,2022.2.4,Win32,59.93766483,631f8ac6a3465a389d2a398c,64ce5acb97489d65b14ecc7a,64cf4b159ac723a0c84c8ff7,,,,,,,decisionTrl,resources/DR.BMP,resources/DP.BMP,Door4,-0.463888889,0.027777778,1,0,0,1.5662,optionLeft,60,14960,7,26,0,26,0,1,,,,,,,,,,,,,,,,,,,,,,,,,,,,,,,,,,,,,,,
,,,,,,,,2023-08-06_08h43.49.323,HF_wild_card,2022.2.4,Win32,59.93766483,631f8ac6a3465a389d2a398c,64ce5acb97489d65b14ecc7a,64cf4b159ac723a0c84c8ff7,,,,,,,ctch,resources/DBN.BMP,resources/DP.BMP,Door3,0.543518519,-0.050925926,1,0,0,0.6978,optionRight,70,15030,7,27,0,27,0,1,,,,,,,,,,,,,,,,,,,,,,,,,,,,,,,,,,,,,,,
,,,,,,,,2023-08-06_08h43.49.323,HF_wild_card,2022.2.4,Win32,59.93766483,631f8ac6a3465a389d2a398c,64ce5acb97489d65b14ecc7a,64cf4b159ac723a0c84c8ff7,,,,,,,ctch,resources/DP.BMP,resources/DBN.BMP,Door3,-0.318518519,0.013888889,1,0,0,0.4889,optionLeft,70,15100,7,28,0,28,0,1,,,,,,,,,,,,,,,,,,,,,,,,,,,,,,,,,,,,,,,
,,,,,,,,2023-08-06_08h43.49.323,HF_wild_card,2022.2.4,Win32,59.93766483,631f8ac6a3465a389d2a398c,64ce5acb97489d65b14ecc7a,64cf4b159ac723a0c84c8ff7,,,,,,,decisionTrl,resources/DBN.BMP,resources/DY.BMP,Door1,0.156481481,0.008333333,1,0,0,2.149,optionRight,30,15130,7,29,0,29,0,1,,,,,,,,,,,,,,,,,,,,,,,,,,,,,,,,,,,,,,,
,,,,,,,,2023-08-06_08h43.49.323,HF_wild_card,2022.2.4,Win32,59.93766483,631f8ac6a3465a389d2a398c,64ce5acb97489d65b14ecc7a,64cf4b159ac723a0c84c8ff7,,,,,,,decisionTrl,resources/DBN.BMP,resources/DY.BMP,Door1,0.197222222,-0.000925926,1,0,0,0.55,optionRight,30,15160,7,30,0,30,0,1,,,,,,,,,,,,,,,,,,,,,,,,,,,,,,,,,,,,,,,
,,,,,,,,2023-08-06_08h43.49.323,HF_wild_card,2022.2.4,Win32,59.93766483,631f8ac6a3465a389d2a398c,64ce5acb97489d65b14ecc7a,64cf4b159ac723a0c84c8ff7,,,,,,,decisionTrl,resources/DP.BMP,resources/DR.BMP,Door4,0.205555556,0.012962963,1,0,0,1.1403,optionRight,60,15220,7,31,0,31,0,1,,,,,,,,,,,,,,,,,,,,,,,,,,,,,,,,,,,,,,,
,,,,,,,,2023-08-06_08h43.49.323,HF_wild_card,2022.2.4,Win32,59.93766483,631f8ac6a3465a389d2a398c,64ce5acb97489d65b14ecc7a,64cf4b159ac723a0c84c8ff7,,,,,,,decisionTrl,resources/DBN.BMP,resources/DY.BMP,Door1,0.27037037,-0.006481481,1,0,0,1.131,optionRight,30,15250,7,32,0,32,0,1,,,,,,,,,,,,,,,,,,,,,,,,,,,,,,,,,,,,,,,
,,,,,,,,2023-08-06_08h43.49.323,HF_wild_card,2022.2.4,Win32,59.93766483,631f8ac6a3465a389d2a398c,64ce5acb97489d65b14ecc7a,64cf4b159ac723a0c84c8ff7,,,,,,,decisionTrl,resources/DR.BMP,resources/DP.BMP,Door4,-0.148148148,-0.001851852,1,0,0,0.5737,optionLeft,60,15310,7,33,0,33,0,1,,,,,,,,,,,,,,,,,,,,,,,,,,,,,,,,,,,,,,,
,,,,,,,,2023-08-06_08h43.49.323,HF_wild_card,2022.2.4,Win32,59.93766483,631f8ac6a3465a389d2a398c,64ce5acb97489d65b14ecc7a,64cf4b159ac723a0c84c8ff7,,,,,,,decisionTrl,resources/DY.BMP,resources/DBN.BMP,Door1,-0.205555556,0.013888889,1,0,0,0.39,optionLeft,30,15340,7,34,0,34,0,1,,,,,,,,,,,,,,,,,,,,,,,,,,,,,,,,,,,,,,,
,,,,,,,,2023-08-06_08h43.49.323,HF_wild_card,2022.2.4,Win32,59.93766483,631f8ac6a3465a389d2a398c,64ce5acb97489d65b14ecc7a,64cf4b159ac723a0c84c8ff7,,,,,,,decisionTrl,resources/DY.BMP,resources/DBN.BMP,Door1,-0.088888889,-0.023148148,1,0,0,0.5828,optionLeft,30,15370,7,35,0,35,0,1,,,,,,,,,,,,,,,,,,,,,,,,,,,,,,,,,,,,,,,
,,,,,,,,2023-08-06_08h43.49.323,HF_wild_card,2022.2.4,Win32,59.93766483,631f8ac6a3465a389d2a398c,64ce5acb97489d65b14ecc7a,64cf4b159ac723a0c84c8ff7,,,,,,,,,,,,,,,,,,,,,,,,,,6,0,6,0,1,,,,,,,,,,,,,,,,,,,,,,,,,,,,,,,,,,
,,,,,,,,2023-08-06_08h43.49.323,HF_wild_card,2022.2.4,Win32,59.93766483,631f8ac6a3465a389d2a398c,64ce5acb97489d65b14ecc7a,64cf4b159ac723a0c84c8ff7,,,,,,,,,,,,,,,,,,,,,,,,,,,,,,,3,,,,,,,,,,,,,,,,,,,,,,,,,,,,,,,,,
,,,,,,,,2023-08-06_08h43.49.323,HF_wild_card,2022.2.4,Win32,59.93766483,631f8ac6a3465a389d2a398c,64ce5acb97489d65b14ecc7a,64cf4b159ac723a0c84c8ff7,,,,,,,,,,,,,,,,,,,,,,,,,,,,,,,,,,,,,,,,,,,,,,,,,,,,,,,,,,,,,,,,
,,,,,,,,2023-08-06_08h43.49.323,HF_wild_card,2022.2.4,Win32,59.93766483,631f8ac6a3465a389d2a398c,64ce5acb97489d65b14ecc7a,64cf4b159ac723a0c84c8ff7,,,,,,,,,,,,,,,,,,,,,,,,,,,,,,,,60,Door4,resources/DR.BMP,0,0,0,0,1,,,,,,,,,,,,,,,,,,,,,,,,,
,,,,,,,,2023-08-06_08h43.49.323,HF_wild_card,2022.2.4,Win32,59.93766483,631f8ac6a3465a389d2a398c,64ce5acb97489d65b14ecc7a,64cf4b159ac723a0c84c8ff7,,,,,,,,,,,,,,,,,,,,,,,,,,,,,,,,45,WC_nonExtreme,resources/DG.BMP,1,0,1,0,1,,,,,,,,,,,,,,,,,,,,,,,,,
,,,,,,,,2023-08-06_08h43.49.323,HF_wild_card,2022.2.4,Win32,59.93766483,631f8ac6a3465a389d2a398c,64ce5acb97489d65b14ecc7a,64cf4b159ac723a0c84c8ff7,,,,,,,,,,,,,,,,,,,,,,,,,,,,,,,,35,Door2,resources/DBN.BMP,2,0,2,0,1,,,,,,,,,,,,,,,,,,,,,,,,,
,,,,,,,,2023-08-06_08h43.49.323,HF_wild_card,2022.2.4,Win32,59.93766483,631f8ac6a3465a389d2a398c,64ce5acb97489d65b14ecc7a,64cf4b159ac723a0c84c8ff7,,,,,,,,,,,,,,,,,,,,,,,,,,,,,,,,75,Door1,resources/DY.BMP,3,0,3,0,1,,,,,,,,,,,,,,,,,,,,,,,,,
,,,,,,,,2023-08-06_08h43.49.323,HF_wild_card,2022.2.4,Win32,59.93766483,631f8ac6a3465a389d2a398c,64ce5acb97489d65b14ecc7a,64cf4b159ac723a0c84c8ff7,,,,,,,,,,,,,,,,,,,,,,,,,,,,,,,,45,Door3,resources/DP.BMP,4,0,4,0,1,,,,,,,,,,,,,,,,,,,,,,,,,
,,,,,,,,2023-08-06_08h43.49.323,HF_wild_card,2022.2.4,Win32,59.93766483,631f8ac6a3465a389d2a398c,64ce5acb97489d65b14ecc7a,64cf4b159ac723a0c84c8ff7,,,,,,,,,,,,,,,,,,,,,,,,,,,,,,,,95,WC_extreme,resources/DB.BMP,5,0,5,0,1,,,,,,,,,,,,,,,,,,,,,,,,,
,,,,,,,,2023-08-06_08h43.49.323,HF_wild_card,2022.2.4,Win32,59.93766483,631f8ac6a3465a389d2a398c,64ce5acb97489d65b14ecc7a,64cf4b159ac723a0c84c8ff7,,,,,,,,,,,,,,,,,,,,,,,,,,,,,,,,,,,,,,,,,,,,,,,,,,,,,,,,,,,,,,,,
