Condition,Low fixed image (Door1),Low risky image (Door2),High fixed image (Door3),High risky image (Door4),Extreme Wild Card,NonExtreme Wild Card,,date,expName,psychopyVersion,OS,frameRate,PROLIFIC_PID,STUDY_ID,SESSION_ID,mouse_2.x,mouse_2.y,mouse_2.leftButton,mouse_2.midButton,mouse_2.rightButton,mouse_2.clicked_name,Trial Type,Left Option Image,Right Option Image,Chosen Door,mouse.x,mouse.y,mouse.leftButton,mouse.midButton,mouse.rightButton,mouse.time,mouse.clicked_name,Feedback,Cumulative Reward,Block,trial.thisRepN,trial.thisTrialN,trial.thisN,trial.thisIndex,trial.ran,blocks.thisRepN,blocks.thisTrialN,blocks.thisN,blocks.thisIndex,blocks.ran,Money conversion,First Outcome Reported,Shown Door (First Outcome),Displayed Image (First Outcome),outcomes.thisRepN,outcomes.thisTrialN,outcomes.thisN,outcomes.thisIndex,outcomes.ran,judgments.thisRepN,judgments.thisTrialN,judgments.thisN,judgments.thisIndex,judgments.ran,freqMouse.x,freqMouse.y,freqMouse.leftButton,freqMouse.midButton,freqMouse.rightButton,freqMouse.clicked_name,FQJ for first outcome,FQJ for second outcome,Shown Door,Displayed Image,trials.thisRepN,trials.thisTrialN,trials.thisN,trials.thisIndex,trials.ran,judgBlock.thisRepN,judgBlock.thisTrialN,judgBlock.thisN,judgBlock.thisIndex,judgBlock.ran
0,resources/DBN.BMP,resources/DY.BMP,resources/DR.BMP,resources/DG.BMP,resources/DP.BMP,resources/DB.BMP,,2023-08-16_08h42.48.835,HF_wild_card,2022.2.4,Win32,59.5521677,63d79f249b2729d9dd3c48ce,64d2fd46c836a06233681665,64dc7de57aadb8a0fe86dec2,,,,,,,,,,,,,,,,,,,,,,,,,,,,,,,,,,,,,,,,,,,,,,,,,,,,,,,,,,,,,,,,
,,,,,,,,2023-08-16_08h42.48.835,HF_wild_card,2022.2.4,Win32,59.5521677,63d79f249b2729d9dd3c48ce,64d2fd46c836a06233681665,64dc7de57aadb8a0fe86dec2,0.014814843,-0.421296353,1,0,0,agree,,,,,,,,,,,,,,,,,,,,,,,,,,,,,,,,,,,,,,,,,,,,,,,,,,,,,,,,,,
,,,,,,,,2023-08-16_08h42.48.835,HF_wild_card,2022.2.4,Win32,59.5521677,63d79f249b2729d9dd3c48ce,64d2fd46c836a06233681665,64dc7de57aadb8a0fe86dec2,,,,,,,,,,,,,,,,,,,,,,,,,,,,,,,,,,,,,,,,,,,,,,,,,,,,,,,,,,,,,,,,
,,,,,,,,2023-08-16_08h42.48.835,HF_wild_card,2022.2.4,Win32,59.5521677,63d79f249b2729d9dd3c48ce,64d2fd46c836a06233681665,64dc7de57aadb8a0fe86dec2,,,,,,,sngl,resources/DR.BMP,resources/Empty.png,Door3,-0.4,-0.054629644,1,0,0,3.215,optionLeft,70,70,1,0,0,0,0,1,,,,,,,,,,,,,,,,,,,,,,,,,,,,,,,,,,,,,,,
,,,,,,,,2023-08-16_08h42.48.835,HF_wild_card,2022.2.4,Win32,59.5521677,63d79f249b2729d9dd3c48ce,64d2fd46c836a06233681665,64dc7de57aadb8a0fe86dec2,,,,,,,decisionTrl,resources/DR.BMP,resources/DP.BMP,Door3,-0.386111111,-0.062037065,1,0,0,5.1057,optionLeft,70,140,1,1,0,1,0,1,,,,,,,,,,,,,,,,,,,,,,,,,,,,,,,,,,,,,,,
,,,,,,,,2023-08-16_08h42.48.835,HF_wild_card,2022.2.4,Win32,59.5521677,63d79f249b2729d9dd3c48ce,64d2fd46c836a06233681665,64dc7de57aadb8a0fe86dec2,,,,,,,sngl,resources/DP.BMP,resources/Empty.png,WildCard_Ex,-0.398148134,-0.030555556,1,0,0,2.0953,optionLeft,95,235,1,2,0,2,0,1,,,,,,,,,,,,,,,,,,,,,,,,,,,,,,,,,,,,,,,
,,,,,,,,2023-08-16_08h42.48.835,HF_wild_card,2022.2.4,Win32,59.5521677,63d79f249b2729d9dd3c48ce,64d2fd46c836a06233681665,64dc7de57aadb8a0fe86dec2,,,,,,,decisionTrl,resources/DBN.BMP,resources/DY.BMP,Door2,0.395370399,-0.053703732,1,0,0,2.8298,optionRight,40,275,1,3,0,3,0,1,,,,,,,,,,,,,,,,,,,,,,,,,,,,,,,,,,,,,,,
,,,,,,,,2023-08-16_08h42.48.835,HF_wild_card,2022.2.4,Win32,59.5521677,63d79f249b2729d9dd3c48ce,64d2fd46c836a06233681665,64dc7de57aadb8a0fe86dec2,,,,,,,decisionTrl,resources/DR.BMP,resources/DG.BMP,Door3,-0.414814801,-0.055555556,1,0,0,2.1121,optionLeft,70,345,1,4,0,4,0,1,,,,,,,,,,,,,,,,,,,,,,,,,,,,,,,,,,,,,,,
,,,,,,,,2023-08-16_08h42.48.835,HF_wild_card,2022.2.4,Win32,59.5521677,63d79f249b2729d9dd3c48ce,64d2fd46c836a06233681665,64dc7de57aadb8a0fe86dec2,,,,,,,decisionTrl,resources/DR.BMP,resources/DG.BMP,Door4,0.439814843,-0.055555556,1,0,0,1.4971,optionRight,60,405,1,5,0,5,0,1,,,,,,,,,,,,,,,,,,,,,,,,,,,,,,,,,,,,,,,
,,,,,,,,2023-08-16_08h42.48.835,HF_wild_card,2022.2.4,Win32,59.5521677,63d79f249b2729d9dd3c48ce,64d2fd46c836a06233681665,64dc7de57aadb8a0fe86dec2,,,,,,,decisionTrl,resources/DBN.BMP,resources/DY.BMP,Door1,-0.380555556,-0.003703732,1,0,0,1.9303,optionLeft,30,435,1,6,0,6,0,1,,,,,,,,,,,,,,,,,,,,,,,,,,,,,,,,,,,,,,,
,,,,,,,,2023-08-16_08h42.48.835,HF_wild_card,2022.2.4,Win32,59.5521677,63d79f249b2729d9dd3c48ce,64d2fd46c836a06233681665,64dc7de57aadb8a0fe86dec2,,,,,,,ctch,resources/DBN.BMP,resources/DG.BMP,Door4,0.404629686,-0.032407422,1,0,0,1.5288,optionRight,80,515,1,7,0,7,0,1,,,,,,,,,,,,,,,,,,,,,,,,,,,,,,,,,,,,,,,
,,,,,,,,2023-08-16_08h42.48.835,HF_wild_card,2022.2.4,Win32,59.5521677,63d79f249b2729d9dd3c48ce,64d2fd46c836a06233681665,64dc7de57aadb8a0fe86dec2,,,,,,,decisionTrl,resources/DG.BMP,resources/DR.BMP,Door4,-0.34351849,-0.041666667,1,0,0,1.4838,optionLeft,80,595,1,8,0,8,0,1,,,,,,,,,,,,,,,,,,,,,,,,,,,,,,,,,,,,,,,
,,,,,,,,2023-08-16_08h42.48.835,HF_wild_card,2022.2.4,Win32,59.5521677,63d79f249b2729d9dd3c48ce,64d2fd46c836a06233681665,64dc7de57aadb8a0fe86dec2,,,,,,,decisionTrl,resources/DY.BMP,resources/DBN.BMP,Door2,-0.346296268,-0.061111111,1,0,0,1.4989,optionLeft,40,635,1,9,0,9,0,1,,,,,,,,,,,,,,,,,,,,,,,,,,,,,,,,,,,,,,,
,,,,,,,,2023-08-16_08h42.48.835,HF_wild_card,2022.2.4,Win32,59.5521677,63d79f249b2729d9dd3c48ce,64d2fd46c836a06233681665,64dc7de57aadb8a0fe86dec2,,,,,,,sngl,resources/DG.BMP,resources/Empty.png,Door4,-0.364814801,-0.030555556,1,0,0,0.9831,optionLeft,80,715,1,10,0,10,0,1,,,,,,,,,,,,,,,,,,,,,,,,,,,,,,,,,,,,,,,
,,,,,,,,2023-08-16_08h42.48.835,HF_wild_card,2022.2.4,Win32,59.5521677,63d79f249b2729d9dd3c48ce,64d2fd46c836a06233681665,64dc7de57aadb8a0fe86dec2,,,,,,,sngl,resources/DP.BMP,resources/Empty.png,WildCard_Ex,-0.381481467,-0.058333333,1,0,0,1.2787,optionLeft,5,720,1,11,0,11,0,1,,,,,,,,,,,,,,,,,,,,,,,,,,,,,,,,,,,,,,,
,,,,,,,,2023-08-16_08h42.48.835,HF_wild_card,2022.2.4,Win32,59.5521677,63d79f249b2729d9dd3c48ce,64d2fd46c836a06233681665,64dc7de57aadb8a0fe86dec2,,,,,,,ctch,resources/DR.BMP,resources/DY.BMP,Door2,0.393518575,-0.053703732,1,0,0,3.8601,optionRight,20,740,1,12,0,12,0,1,,,,,,,,,,,,,,,,,,,,,,,,,,,,,,,,,,,,,,,
,,,,,,,,2023-08-16_08h42.48.835,HF_wild_card,2022.2.4,Win32,59.5521677,63d79f249b2729d9dd3c48ce,64d2fd46c836a06233681665,64dc7de57aadb8a0fe86dec2,,,,,,,decisionTrl,resources/DG.BMP,resources/DR.BMP,Door4,-0.315740712,-0.043518533,1,0,0,1.4473,optionLeft,80,820,1,13,0,13,0,1,,,,,,,,,,,,,,,,,,,,,,,,,,,,,,,,,,,,,,,
,,,,,,,,2023-08-16_08h42.48.835,HF_wild_card,2022.2.4,Win32,59.5521677,63d79f249b2729d9dd3c48ce,64d2fd46c836a06233681665,64dc7de57aadb8a0fe86dec2,,,,,,,ctch,resources/DY.BMP,resources/DR.BMP,Door3,0.382407464,-0.051851866,1,0,0,1.4638,optionRight,70,890,1,14,0,14,0,1,,,,,,,,,,,,,,,,,,,,,,,,,,,,,,,,,,,,,,,
,,,,,,,,2023-08-16_08h42.48.835,HF_wild_card,2022.2.4,Win32,59.5521677,63d79f249b2729d9dd3c48ce,64d2fd46c836a06233681665,64dc7de57aadb8a0fe86dec2,,,,,,,decisionTrl,resources/DP.BMP,resources/DY.BMP,WildCard_Ex,-0.351851824,-0.070370399,1,0,0,1.5153,optionLeft,5,895,1,15,0,15,0,1,,,,,,,,,,,,,,,,,,,,,,,,,,,,,,,,,,,,,,,
,,,,,,,,2023-08-16_08h42.48.835,HF_wild_card,2022.2.4,Win32,59.5521677,63d79f249b2729d9dd3c48ce,64d2fd46c836a06233681665,64dc7de57aadb8a0fe86dec2,,,,,,,decisionTrl,resources/DG.BMP,resources/DP.BMP,Door4,-0.339814801,-0.054629644,1,0,0,1.2477,optionLeft,60,955,1,16,0,16,0,1,,,,,,,,,,,,,,,,,,,,,,,,,,,,,,,,,,,,,,,
,,,,,,,,2023-08-16_08h42.48.835,HF_wild_card,2022.2.4,Win32,59.5521677,63d79f249b2729d9dd3c48ce,64d2fd46c836a06233681665,64dc7de57aadb8a0fe86dec2,,,,,,,decisionTrl,resources/DR.BMP,resources/DG.BMP,Door4,0.412037065,-0.028703732,1,0,0,2.7798,optionRight,80,1035,1,17,0,17,0,1,,,,,,,,,,,,,,,,,,,,,,,,,,,,,,,,,,,,,,,
,,,,,,,,2023-08-16_08h42.48.835,HF_wild_card,2022.2.4,Win32,59.5521677,63d79f249b2729d9dd3c48ce,64d2fd46c836a06233681665,64dc7de57aadb8a0fe86dec2,,,,,,,sngl,resources/Empty.png,resources/DY.BMP,Door2,0.367592621,-0.037037065,1,0,0,1.1314,optionRight,20,1055,1,18,0,18,0,1,,,,,,,,,,,,,,,,,,,,,,,,,,,,,,,,,,,,,,,
,,,,,,,,2023-08-16_08h42.48.835,HF_wild_card,2022.2.4,Win32,59.5521677,63d79f249b2729d9dd3c48ce,64d2fd46c836a06233681665,64dc7de57aadb8a0fe86dec2,,,,,,,sngl,resources/DBN.BMP,resources/Empty.png,Door1,-0.401851824,-0.028703732,1,0,0,1.0742,optionLeft,30,1085,1,19,0,19,0,1,,,,,,,,,,,,,,,,,,,,,,,,,,,,,,,,,,,,,,,
,,,,,,,,2023-08-16_08h42.48.835,HF_wild_card,2022.2.4,Win32,59.5521677,63d79f249b2729d9dd3c48ce,64d2fd46c836a06233681665,64dc7de57aadb8a0fe86dec2,,,,,,,decisionTrl,resources/DR.BMP,resources/DG.BMP,Door4,0.347222222,-0.030555556,1,0,0,1.7953,optionRight,60,1145,1,20,0,20,0,1,,,,,,,,,,,,,,,,,,,,,,,,,,,,,,,,,,,,,,,
,,,,,,,,2023-08-16_08h42.48.835,HF_wild_card,2022.2.4,Win32,59.5521677,63d79f249b2729d9dd3c48ce,64d2fd46c836a06233681665,64dc7de57aadb8a0fe86dec2,,,,,,,decisionTrl,resources/DY.BMP,resources/DP.BMP,WildCard_Ex,0.385185242,-0.055555556,1,0,0,2.2303,optionRight,95,1240,1,21,0,21,0,1,,,,,,,,,,,,,,,,,,,,,,,,,,,,,,,,,,,,,,,
,,,,,,,,2023-08-16_08h42.48.835,HF_wild_card,2022.2.4,Win32,59.5521677,63d79f249b2729d9dd3c48ce,64d2fd46c836a06233681665,64dc7de57aadb8a0fe86dec2,,,,,,,sngl,resources/DY.BMP,resources/Empty.png,Door2,-0.401851824,-0.077777778,1,0,0,0.9972,optionLeft,40,1280,1,22,0,22,0,1,,,,,,,,,,,,,,,,,,,,,,,,,,,,,,,,,,,,,,,
,,,,,,,,2023-08-16_08h42.48.835,HF_wild_card,2022.2.4,Win32,59.5521677,63d79f249b2729d9dd3c48ce,64d2fd46c836a06233681665,64dc7de57aadb8a0fe86dec2,,,,,,,sngl,resources/Empty.png,resources/DP.BMP,WildCard_Ex,0.363888889,-0.060185199,1,0,0,1.1801,optionRight,5,1285,1,23,0,23,0,1,,,,,,,,,,,,,,,,,,,,,,,,,,,,,,,,,,,,,,,
,,,,,,,,2023-08-16_08h42.48.835,HF_wild_card,2022.2.4,Win32,59.5521677,63d79f249b2729d9dd3c48ce,64d2fd46c836a06233681665,64dc7de57aadb8a0fe86dec2,,,,,,,ctch,resources/DBN.BMP,resources/DG.BMP,Door4,0.407407464,-0.029629644,1,0,0,2.4297,optionRight,80,1365,1,24,0,24,0,1,,,,,,,,,,,,,,,,,,,,,,,,,,,,,,,,,,,,,,,
,,,,,,,,2023-08-16_08h42.48.835,HF_wild_card,2022.2.4,Win32,59.5521677,63d79f249b2729d9dd3c48ce,64d2fd46c836a06233681665,64dc7de57aadb8a0fe86dec2,,,,,,,decisionTrl,resources/DG.BMP,resources/DR.BMP,Door4,-0.311111111,-0.073148176,1,0,0,1.2308,optionLeft,60,1425,1,25,0,25,0,1,,,,,,,,,,,,,,,,,,,,,,,,,,,,,,,,,,,,,,,
,,,,,,,,2023-08-16_08h42.48.835,HF_wild_card,2022.2.4,Win32,59.5521677,63d79f249b2729d9dd3c48ce,64d2fd46c836a06233681665,64dc7de57aadb8a0fe86dec2,,,,,,,decisionTrl,resources/DG.BMP,resources/DR.BMP,Door3,0.383333333,-0.049074088,1,0,0,2.3959,optionRight,70,1495,1,26,0,26,0,1,,,,,,,,,,,,,,,,,,,,,,,,,,,,,,,,,,,,,,,
,,,,,,,,2023-08-16_08h42.48.835,HF_wild_card,2022.2.4,Win32,59.5521677,63d79f249b2729d9dd3c48ce,64d2fd46c836a06233681665,64dc7de57aadb8a0fe86dec2,,,,,,,sngl,resources/Empty.png,resources/DR.BMP,Door3,0.394444444,-0.035185199,1,0,0,0.9821,optionRight,70,1565,1,27,0,27,0,1,,,,,,,,,,,,,,,,,,,,,,,,,,,,,,,,,,,,,,,
,,,,,,,,2023-08-16_08h42.48.835,HF_wild_card,2022.2.4,Win32,59.5521677,63d79f249b2729d9dd3c48ce,64d2fd46c836a06233681665,64dc7de57aadb8a0fe86dec2,,,,,,,sngl,resources/Empty.png,resources/DP.BMP,WildCard_Ex,0.399074131,-0.09629631,1,0,0,1.1125,optionRight,95,1660,1,28,0,28,0,1,,,,,,,,,,,,,,,,,,,,,,,,,,,,,,,,,,,,,,,
,,,,,,,,2023-08-16_08h42.48.835,HF_wild_card,2022.2.4,Win32,59.5521677,63d79f249b2729d9dd3c48ce,64d2fd46c836a06233681665,64dc7de57aadb8a0fe86dec2,,,,,,,decisionTrl,resources/DY.BMP,resources/DBN.BMP,Door2,-0.336111111,-0.051851866,1,0,0,2.1975,optionLeft,40,1700,1,29,0,29,0,1,,,,,,,,,,,,,,,,,,,,,,,,,,,,,,,,,,,,,,,
,,,,,,,,2023-08-16_08h42.48.835,HF_wild_card,2022.2.4,Win32,59.5521677,63d79f249b2729d9dd3c48ce,64d2fd46c836a06233681665,64dc7de57aadb8a0fe86dec2,,,,,,,sngl,resources/Empty.png,resources/DG.BMP,Door4,0.425,-0.025925954,1,0,0,1.324,optionRight,60,1760,1,30,0,30,0,1,,,,,,,,,,,,,,,,,,,,,,,,,,,,,,,,,,,,,,,
,,,,,,,,2023-08-16_08h42.48.835,HF_wild_card,2022.2.4,Win32,59.5521677,63d79f249b2729d9dd3c48ce,64d2fd46c836a06233681665,64dc7de57aadb8a0fe86dec2,,,,,,,decisionTrl,resources/DP.BMP,resources/DG.BMP,WildCard_Ex,-0.323148134,-0.019444444,1,0,0,1.1481,optionLeft,95,1855,1,31,0,31,0,1,,,,,,,,,,,,,,,,,,,,,,,,,,,,,,,,,,,,,,,
,,,,,,,,2023-08-16_08h42.48.835,HF_wild_card,2022.2.4,Win32,59.5521677,63d79f249b2729d9dd3c48ce,64d2fd46c836a06233681665,64dc7de57aadb8a0fe86dec2,,,,,,,decisionTrl,resources/DBN.BMP,resources/DP.BMP,WildCard_Ex,0.405555556,-0.032407422,1,0,0,1.263,optionRight,95,1950,1,32,0,32,0,1,,,,,,,,,,,,,,,,,,,,,,,,,,,,,,,,,,,,,,,
,,,,,,,,2023-08-16_08h42.48.835,HF_wild_card,2022.2.4,Win32,59.5521677,63d79f249b2729d9dd3c48ce,64d2fd46c836a06233681665,64dc7de57aadb8a0fe86dec2,,,,,,,decisionTrl,resources/DP.BMP,resources/DR.BMP,WildCard_Ex,-0.410185157,-0.062037065,1,0,0,1.1803,optionLeft,5,1955,1,33,0,33,0,1,,,,,,,,,,,,,,,,,,,,,,,,,,,,,,,,,,,,,,,
,,,,,,,,2023-08-16_08h42.48.835,HF_wild_card,2022.2.4,Win32,59.5521677,63d79f249b2729d9dd3c48ce,64d2fd46c836a06233681665,64dc7de57aadb8a0fe86dec2,,,,,,,ctch,resources/DR.BMP,resources/DY.BMP,Door3,-0.361111111,-0.05,1,0,0,2.5466,optionLeft,70,2025,1,34,0,34,0,1,,,,,,,,,,,,,,,,,,,,,,,,,,,,,,,,,,,,,,,
,,,,,,,,2023-08-16_08h42.48.835,HF_wild_card,2022.2.4,Win32,59.5521677,63d79f249b2729d9dd3c48ce,64d2fd46c836a06233681665,64dc7de57aadb8a0fe86dec2,,,,,,,ctch,resources/DY.BMP,resources/DR.BMP,Door3,0.390740797,-0.055555556,1,0,0,1.2656,optionRight,70,2095,1,35,0,35,0,1,,,,,,,,,,,,,,,,,,,,,,,,,,,,,,,,,,,,,,,
,,,,,,,,2023-08-16_08h42.48.835,HF_wild_card,2022.2.4,Win32,59.5521677,63d79f249b2729d9dd3c48ce,64d2fd46c836a06233681665,64dc7de57aadb8a0fe86dec2,,,,,,,ctch,resources/DG.BMP,resources/DBN.BMP,Door4,-0.310185157,-0.030555556,1,0,0,1.681,optionLeft,60,2155,1,36,0,36,0,1,,,,,,,,,,,,,,,,,,,,,,,,,,,,,,,,,,,,,,,
,,,,,,,,2023-08-16_08h42.48.835,HF_wild_card,2022.2.4,Win32,59.5521677,63d79f249b2729d9dd3c48ce,64d2fd46c836a06233681665,64dc7de57aadb8a0fe86dec2,,,,,,,decisionTrl,resources/DY.BMP,resources/DBN.BMP,Door2,-0.335185157,-0.062962977,1,0,0,2.6976,optionLeft,40,2195,1,37,0,37,0,1,,,,,,,,,,,,,,,,,,,,,,,,,,,,,,,,,,,,,,,
,,,,,,,,2023-08-16_08h42.48.835,HF_wild_card,2022.2.4,Win32,59.5521677,63d79f249b2729d9dd3c48ce,64d2fd46c836a06233681665,64dc7de57aadb8a0fe86dec2,,,,,,,ctch,resources/DG.BMP,resources/DBN.BMP,Door4,-0.296296268,-0.028703732,1,0,0,1.4634,optionLeft,60,2255,1,38,0,38,0,1,,,,,,,,,,,,,,,,,,,,,,,,,,,,,,,,,,,,,,,
,,,,,,,,2023-08-16_08h42.48.835,HF_wild_card,2022.2.4,Win32,59.5521677,63d79f249b2729d9dd3c48ce,64d2fd46c836a06233681665,64dc7de57aadb8a0fe86dec2,,,,,,,decisionTrl,resources/DBN.BMP,resources/DY.BMP,Door2,0.394444444,-0.062962977,1,0,0,1.6304,optionRight,20,2275,1,39,0,39,0,1,,,,,,,,,,,,,,,,,,,,,,,,,,,,,,,,,,,,,,,
,,,,,,,,2023-08-16_08h42.48.835,HF_wild_card,2022.2.4,Win32,59.5521677,63d79f249b2729d9dd3c48ce,64d2fd46c836a06233681665,64dc7de57aadb8a0fe86dec2,,,,,,,decisionTrl,resources/DY.BMP,resources/DBN.BMP,Door1,0.4,-0.04629631,1,0,0,2.4812,optionRight,30,2305,1,40,0,40,0,1,,,,,,,,,,,,,,,,,,,,,,,,,,,,,,,,,,,,,,,
,,,,,,,,2023-08-16_08h42.48.835,HF_wild_card,2022.2.4,Win32,59.5521677,63d79f249b2729d9dd3c48ce,64d2fd46c836a06233681665,64dc7de57aadb8a0fe86dec2,,,,,,,decisionTrl,resources/DBN.BMP,resources/DY.BMP,Door1,-0.331481467,-0.055555556,1,0,0,1.2322,optionLeft,30,2335,1,41,0,41,0,1,,,,,,,,,,,,,,,,,,,,,,,,,,,,,,,,,,,,,,,
,,,,,,,,2023-08-16_08h42.48.835,HF_wild_card,2022.2.4,Win32,59.5521677,63d79f249b2729d9dd3c48ce,64d2fd46c836a06233681665,64dc7de57aadb8a0fe86dec2,,,,,,,decisionTrl,resources/DP.BMP,resources/DBN.BMP,WildCard_Ex,-0.379629601,-0.091666667,1,0,0,1.0475,optionLeft,5,2340,1,42,0,42,0,1,,,,,,,,,,,,,,,,,,,,,,,,,,,,,,,,,,,,,,,
,,,,,,,,2023-08-16_08h42.48.835,HF_wild_card,2022.2.4,Win32,59.5521677,63d79f249b2729d9dd3c48ce,64d2fd46c836a06233681665,64dc7de57aadb8a0fe86dec2,,,,,,,sngl,resources/Empty.png,resources/DBN.BMP,Door1,0.363888889,-0.040740755,1,0,0,1.048,optionRight,30,2370,1,43,0,43,0,1,,,,,,,,,,,,,,,,,,,,,,,,,,,,,,,,,,,,,,,
,,,,,,,,2023-08-16_08h42.48.835,HF_wild_card,2022.2.4,Win32,59.5521677,63d79f249b2729d9dd3c48ce,64d2fd46c836a06233681665,64dc7de57aadb8a0fe86dec2,,,,,,,,,,,,,,,,,,,,,,,,,,0,0,0,0,1,,,,,,,,,,,,,,,,,,,,,,,,,,,,,,,,,,
,,,,,,,,2023-08-16_08h42.48.835,HF_wild_card,2022.2.4,Win32,59.5521677,63d79f249b2729d9dd3c48ce,64d2fd46c836a06233681665,64dc7de57aadb8a0fe86dec2,,,,,,,decisionTrl,resources/DR.BMP,resources/DG.BMP,Door4,0.363888889,-0.036111111,1,0,0,2.04,optionRight,60,2430,2,0,0,0,0,1,,,,,,,,,,,,,,,,,,,,,,,,,,,,,,,,,,,,,,,
,,,,,,,,2023-08-16_08h42.48.835,HF_wild_card,2022.2.4,Win32,59.5521677,63d79f249b2729d9dd3c48ce,64d2fd46c836a06233681665,64dc7de57aadb8a0fe86dec2,,,,,,,ctch,resources/DG.BMP,resources/DBN.BMP,Door4,-0.359259245,-0.05,1,0,0,1.1805,optionLeft,60,2490,2,1,0,1,0,1,,,,,,,,,,,,,,,,,,,,,,,,,,,,,,,,,,,,,,,
,,,,,,,,2023-08-16_08h42.48.835,HF_wild_card,2022.2.4,Win32,59.5521677,63d79f249b2729d9dd3c48ce,64d2fd46c836a06233681665,64dc7de57aadb8a0fe86dec2,,,,,,,decisionTrl,resources/DP.BMP,resources/DBN.BMP,WildCard_Ex,-0.391666667,-0.057407422,1,0,0,1.2486,optionLeft,95,2585,2,2,0,2,0,1,,,,,,,,,,,,,,,,,,,,,,,,,,,,,,,,,,,,,,,
,,,,,,,,2023-08-16_08h42.48.835,HF_wild_card,2022.2.4,Win32,59.5521677,63d79f249b2729d9dd3c48ce,64d2fd46c836a06233681665,64dc7de57aadb8a0fe86dec2,,,,,,,decisionTrl,resources/DR.BMP,resources/DG.BMP,Door3,-0.390740712,-0.04629631,1,0,0,3.5121,optionLeft,70,2655,2,3,0,3,0,1,,,,,,,,,,,,,,,,,,,,,,,,,,,,,,,,,,,,,,,
,,,,,,,,2023-08-16_08h42.48.835,HF_wild_card,2022.2.4,Win32,59.5521677,63d79f249b2729d9dd3c48ce,64d2fd46c836a06233681665,64dc7de57aadb8a0fe86dec2,,,,,,,sngl,resources/Empty.png,resources/DP.BMP,WildCard_Ex,0.343518575,-0.058333333,1,0,0,1.0128,optionRight,95,2750,2,4,0,4,0,1,,,,,,,,,,,,,,,,,,,,,,,,,,,,,,,,,,,,,,,
,,,,,,,,2023-08-16_08h42.48.835,HF_wild_card,2022.2.4,Win32,59.5521677,63d79f249b2729d9dd3c48ce,64d2fd46c836a06233681665,64dc7de57aadb8a0fe86dec2,,,,,,,decisionTrl,resources/DP.BMP,resources/DY.BMP,WildCard_Ex,-0.345370356,-0.051851866,1,0,0,0.9637,optionLeft,95,2845,2,5,0,5,0,1,,,,,,,,,,,,,,,,,,,,,,,,,,,,,,,,,,,,,,,
,,,,,,,,2023-08-16_08h42.48.835,HF_wild_card,2022.2.4,Win32,59.5521677,63d79f249b2729d9dd3c48ce,64d2fd46c836a06233681665,64dc7de57aadb8a0fe86dec2,,,,,,,decisionTrl,resources/DG.BMP,resources/DR.BMP,Door4,-0.390740712,-0.062962977,1,0,0,1.0481,optionLeft,60,2905,2,6,0,6,0,1,,,,,,,,,,,,,,,,,,,,,,,,,,,,,,,,,,,,,,,
,,,,,,,,2023-08-16_08h42.48.835,HF_wild_card,2022.2.4,Win32,59.5521677,63d79f249b2729d9dd3c48ce,64d2fd46c836a06233681665,64dc7de57aadb8a0fe86dec2,,,,,,,decisionTrl,resources/DY.BMP,resources/DP.BMP,WildCard_Ex,0.407407464,-0.028703732,1,0,0,1.9006,optionRight,5,2910,2,7,0,7,0,1,,,,,,,,,,,,,,,,,,,,,,,,,,,,,,,,,,,,,,,
,,,,,,,,2023-08-16_08h42.48.835,HF_wild_card,2022.2.4,Win32,59.5521677,63d79f249b2729d9dd3c48ce,64d2fd46c836a06233681665,64dc7de57aadb8a0fe86dec2,,,,,,,decisionTrl,resources/DG.BMP,resources/DR.BMP,Door3,0.345370399,-0.010185199,1,0,0,1.4812,optionRight,70,2980,2,8,0,8,0,1,,,,,,,,,,,,,,,,,,,,,,,,,,,,,,,,,,,,,,,
,,,,,,,,2023-08-16_08h42.48.835,HF_wild_card,2022.2.4,Win32,59.5521677,63d79f249b2729d9dd3c48ce,64d2fd46c836a06233681665,64dc7de57aadb8a0fe86dec2,,,,,,,decisionTrl,resources/DP.BMP,resources/DR.BMP,WildCard_Ex,-0.340740712,-0.025925954,1,0,0,1.1626,optionLeft,95,3075,2,9,0,9,0,1,,,,,,,,,,,,,,,,,,,,,,,,,,,,,,,,,,,,,,,
,,,,,,,,2023-08-16_08h42.48.835,HF_wild_card,2022.2.4,Win32,59.5521677,63d79f249b2729d9dd3c48ce,64d2fd46c836a06233681665,64dc7de57aadb8a0fe86dec2,,,,,,,sngl,resources/DBN.BMP,resources/Empty.png,Door1,-0.351851824,-0.027777778,1,0,0,1.2813,optionLeft,30,3105,2,10,0,10,0,1,,,,,,,,,,,,,,,,,,,,,,,,,,,,,,,,,,,,,,,
,,,,,,,,2023-08-16_08h42.48.835,HF_wild_card,2022.2.4,Win32,59.5521677,63d79f249b2729d9dd3c48ce,64d2fd46c836a06233681665,64dc7de57aadb8a0fe86dec2,,,,,,,ctch,resources/DBN.BMP,resources/DG.BMP,Door4,0.376851908,-0.014814843,1,0,0,1.4839,optionRight,80,3185,2,11,0,11,0,1,,,,,,,,,,,,,,,,,,,,,,,,,,,,,,,,,,,,,,,
,,,,,,,,2023-08-16_08h42.48.835,HF_wild_card,2022.2.4,Win32,59.5521677,63d79f249b2729d9dd3c48ce,64d2fd46c836a06233681665,64dc7de57aadb8a0fe86dec2,,,,,,,decisionTrl,resources/DP.BMP,resources/DG.BMP,WildCard_Ex,-0.377777778,-0.075,1,0,0,1.1806,optionLeft,5,3190,2,12,0,12,0,1,,,,,,,,,,,,,,,,,,,,,,,,,,,,,,,,,,,,,,,
,,,,,,,,2023-08-16_08h42.48.835,HF_wild_card,2022.2.4,Win32,59.5521677,63d79f249b2729d9dd3c48ce,64d2fd46c836a06233681665,64dc7de57aadb8a0fe86dec2,,,,,,,decisionTrl,resources/DY.BMP,resources/DBN.BMP,Door2,-0.309259245,-0.08148151,1,0,0,1.8,optionLeft,20,3210,2,13,0,13,0,1,,,,,,,,,,,,,,,,,,,,,,,,,,,,,,,,,,,,,,,
,,,,,,,,2023-08-16_08h42.48.835,HF_wild_card,2022.2.4,Win32,59.5521677,63d79f249b2729d9dd3c48ce,64d2fd46c836a06233681665,64dc7de57aadb8a0fe86dec2,,,,,,,sngl,resources/DG.BMP,resources/Empty.png,Door4,-0.362037023,-0.069444444,1,0,0,0.9128,optionLeft,60,3270,2,14,0,14,0,1,,,,,,,,,,,,,,,,,,,,,,,,,,,,,,,,,,,,,,,
,,,,,,,,2023-08-16_08h42.48.835,HF_wild_card,2022.2.4,Win32,59.5521677,63d79f249b2729d9dd3c48ce,64d2fd46c836a06233681665,64dc7de57aadb8a0fe86dec2,,,,,,,decisionTrl,resources/DR.BMP,resources/DG.BMP,Door3,-0.322222222,-0.091666667,1,0,0,1.1814,optionLeft,70,3340,2,15,0,15,0,1,,,,,,,,,,,,,,,,,,,,,,,,,,,,,,,,,,,,,,,
,,,,,,,,2023-08-16_08h42.48.835,HF_wild_card,2022.2.4,Win32,59.5521677,63d79f249b2729d9dd3c48ce,64d2fd46c836a06233681665,64dc7de57aadb8a0fe86dec2,,,,,,,sngl,resources/Empty.png,resources/DY.BMP,Door2,0.412037065,-0.045370399,1,0,0,0.9988,optionRight,40,3380,2,16,0,16,0,1,,,,,,,,,,,,,,,,,,,,,,,,,,,,,,,,,,,,,,,
,,,,,,,,2023-08-16_08h42.48.835,HF_wild_card,2022.2.4,Win32,59.5521677,63d79f249b2729d9dd3c48ce,64d2fd46c836a06233681665,64dc7de57aadb8a0fe86dec2,,,,,,,ctch,resources/DBN.BMP,resources/DG.BMP,Door1,-0.277777778,-0.050925954,1,0,0,1.9627,optionLeft,30,3410,2,17,0,17,0,1,,,,,,,,,,,,,,,,,,,,,,,,,,,,,,,,,,,,,,,
,,,,,,,,2023-08-16_08h42.48.835,HF_wild_card,2022.2.4,Win32,59.5521677,63d79f249b2729d9dd3c48ce,64d2fd46c836a06233681665,64dc7de57aadb8a0fe86dec2,,,,,,,ctch,resources/DY.BMP,resources/DR.BMP,Door3,0.341666667,-0.035185199,1,0,0,1.8671,optionRight,70,3480,2,18,0,18,0,1,,,,,,,,,,,,,,,,,,,,,,,,,,,,,,,,,,,,,,,
,,,,,,,,2023-08-16_08h42.48.835,HF_wild_card,2022.2.4,Win32,59.5521677,63d79f249b2729d9dd3c48ce,64d2fd46c836a06233681665,64dc7de57aadb8a0fe86dec2,,,,,,,ctch,resources/DG.BMP,resources/DBN.BMP,Door4,-0.310185157,-0.062037065,1,0,0,1.308,optionLeft,60,3540,2,19,0,19,0,1,,,,,,,,,,,,,,,,,,,,,,,,,,,,,,,,,,,,,,,
,,,,,,,,2023-08-16_08h42.48.835,HF_wild_card,2022.2.4,Win32,59.5521677,63d79f249b2729d9dd3c48ce,64d2fd46c836a06233681665,64dc7de57aadb8a0fe86dec2,,,,,,,decisionTrl,resources/DR.BMP,resources/DP.BMP,Door3,-0.35,-0.049074088,1,0,0,2.0084,optionLeft,70,3610,2,20,0,20,0,1,,,,,,,,,,,,,,,,,,,,,,,,,,,,,,,,,,,,,,,
,,,,,,,,2023-08-16_08h42.48.835,HF_wild_card,2022.2.4,Win32,59.5521677,63d79f249b2729d9dd3c48ce,64d2fd46c836a06233681665,64dc7de57aadb8a0fe86dec2,,,,,,,sngl,resources/DR.BMP,resources/Empty.png,Door3,-0.327777778,-0.008333333,1,0,0,0.9799,optionLeft,70,3680,2,21,0,21,0,1,,,,,,,,,,,,,,,,,,,,,,,,,,,,,,,,,,,,,,,
,,,,,,,,2023-08-16_08h42.48.835,HF_wild_card,2022.2.4,Win32,59.5521677,63d79f249b2729d9dd3c48ce,64d2fd46c836a06233681665,64dc7de57aadb8a0fe86dec2,,,,,,,decisionTrl,resources/DBN.BMP,resources/DY.BMP,Door2,0.367592621,-0.018518533,1,0,0,1.8632,optionRight,20,3700,2,22,0,22,0,1,,,,,,,,,,,,,,,,,,,,,,,,,,,,,,,,,,,,,,,
,,,,,,,,2023-08-16_08h42.48.835,HF_wild_card,2022.2.4,Win32,59.5521677,63d79f249b2729d9dd3c48ce,64d2fd46c836a06233681665,64dc7de57aadb8a0fe86dec2,,,,,,,decisionTrl,resources/DG.BMP,resources/DR.BMP,Door3,0.391666667,-0.049074088,1,0,0,3.8143,optionRight,70,3770,2,23,0,23,0,1,,,,,,,,,,,,,,,,,,,,,,,,,,,,,,,,,,,,,,,
,,,,,,,,2023-08-16_08h42.48.835,HF_wild_card,2022.2.4,Win32,59.5521677,63d79f249b2729d9dd3c48ce,64d2fd46c836a06233681665,64dc7de57aadb8a0fe86dec2,,,,,,,sngl,resources/Empty.png,resources/DP.BMP,WildCard_Ex,0.397222222,-0.065740755,1,0,0,1.2272,optionRight,5,3775,2,24,0,24,0,1,,,,,,,,,,,,,,,,,,,,,,,,,,,,,,,,,,,,,,,
,,,,,,,,2023-08-16_08h42.48.835,HF_wild_card,2022.2.4,Win32,59.5521677,63d79f249b2729d9dd3c48ce,64d2fd46c836a06233681665,64dc7de57aadb8a0fe86dec2,,,,,,,sngl,resources/DP.BMP,resources/Empty.png,WildCard_Ex,-0.409259245,-0.035185199,1,0,0,0.9924,optionLeft,5,3780,2,25,0,25,0,1,,,,,,,,,,,,,,,,,,,,,,,,,,,,,,,,,,,,,,,
,,,,,,,,2023-08-16_08h42.48.835,HF_wild_card,2022.2.4,Win32,59.5521677,63d79f249b2729d9dd3c48ce,64d2fd46c836a06233681665,64dc7de57aadb8a0fe86dec2,,,,,,,decisionTrl,resources/DG.BMP,resources/DP.BMP,Door4,-0.291666667,-0.036111111,1,0,0,1.5642,optionLeft,60,3840,2,26,0,26,0,1,,,,,,,,,,,,,,,,,,,,,,,,,,,,,,,,,,,,,,,
,,,,,,,,2023-08-16_08h42.48.835,HF_wild_card,2022.2.4,Win32,59.5521677,63d79f249b2729d9dd3c48ce,64d2fd46c836a06233681665,64dc7de57aadb8a0fe86dec2,,,,,,,decisionTrl,resources/DBN.BMP,resources/DP.BMP,Door1,-0.327777778,-0.057407422,1,0,0,1.1021,optionLeft,30,3870,2,27,0,27,0,1,,,,,,,,,,,,,,,,,,,,,,,,,,,,,,,,,,,,,,,
,,,,,,,,2023-08-16_08h42.48.835,HF_wild_card,2022.2.4,Win32,59.5521677,63d79f249b2729d9dd3c48ce,64d2fd46c836a06233681665,64dc7de57aadb8a0fe86dec2,,,,,,,decisionTrl,resources/DY.BMP,resources/DBN.BMP,Door1,0.3,-0.044444444,1,0,0,2.5644,optionRight,30,3900,2,28,0,28,0,1,,,,,,,,,,,,,,,,,,,,,,,,,,,,,,,,,,,,,,,
,,,,,,,,2023-08-16_08h42.48.835,HF_wild_card,2022.2.4,Win32,59.5521677,63d79f249b2729d9dd3c48ce,64d2fd46c836a06233681665,64dc7de57aadb8a0fe86dec2,,,,,,,decisionTrl,resources/DBN.BMP,resources/DY.BMP,Door2,0.354629686,-0.032407422,1,0,0,1.2934,optionRight,20,3920,2,29,0,29,0,1,,,,,,,,,,,,,,,,,,,,,,,,,,,,,,,,,,,,,,,
,,,,,,,,2023-08-16_08h42.48.835,HF_wild_card,2022.2.4,Win32,59.5521677,63d79f249b2729d9dd3c48ce,64d2fd46c836a06233681665,64dc7de57aadb8a0fe86dec2,,,,,,,decisionTrl,resources/DBN.BMP,resources/DY.BMP,Door1,-0.362037023,-0.066666667,1,0,0,0.9261,optionLeft,30,3950,2,30,0,30,0,1,,,,,,,,,,,,,,,,,,,,,,,,,,,,,,,,,,,,,,,
,,,,,,,,2023-08-16_08h42.48.835,HF_wild_card,2022.2.4,Win32,59.5521677,63d79f249b2729d9dd3c48ce,64d2fd46c836a06233681665,64dc7de57aadb8a0fe86dec2,,,,,,,sngl,resources/DY.BMP,resources/Empty.png,Door2,-0.344444444,-0.049074088,1,0,0,0.9125,optionLeft,20,3970,2,31,0,31,0,1,,,,,,,,,,,,,,,,,,,,,,,,,,,,,,,,,,,,,,,
,,,,,,,,2023-08-16_08h42.48.835,HF_wild_card,2022.2.4,Win32,59.5521677,63d79f249b2729d9dd3c48ce,64d2fd46c836a06233681665,64dc7de57aadb8a0fe86dec2,,,,,,,decisionTrl,resources/DY.BMP,resources/DBN.BMP,Door1,0.429629686,-0.048148176,1,0,0,3.1954,optionRight,30,4000,2,32,0,32,0,1,,,,,,,,,,,,,,,,,,,,,,,,,,,,,,,,,,,,,,,
,,,,,,,,2023-08-16_08h42.48.835,HF_wild_card,2022.2.4,Win32,59.5521677,63d79f249b2729d9dd3c48ce,64d2fd46c836a06233681665,64dc7de57aadb8a0fe86dec2,,,,,,,decisionTrl,resources/DBN.BMP,resources/DY.BMP,Door1,-0.314814801,-0.038888889,1,0,0,0.8985,optionLeft,30,4030,2,33,0,33,0,1,,,,,,,,,,,,,,,,,,,,,,,,,,,,,,,,,,,,,,,
,,,,,,,,2023-08-16_08h42.48.835,HF_wild_card,2022.2.4,Win32,59.5521677,63d79f249b2729d9dd3c48ce,64d2fd46c836a06233681665,64dc7de57aadb8a0fe86dec2,,,,,,,decisionTrl,resources/DY.BMP,resources/DBN.BMP,Door1,0.311111111,-0.07129631,1,0,0,0.9657,optionRight,30,4060,2,34,0,34,0,1,,,,,,,,,,,,,,,,,,,,,,,,,,,,,,,,,,,,,,,
,,,,,,,,2023-08-16_08h42.48.835,HF_wild_card,2022.2.4,Win32,59.5521677,63d79f249b2729d9dd3c48ce,64d2fd46c836a06233681665,64dc7de57aadb8a0fe86dec2,,,,,,,sngl,resources/Empty.png,resources/DR.BMP,Door3,0.347222222,-0.048148176,1,0,0,1.0489,optionRight,70,4130,2,35,0,35,0,1,,,,,,,,,,,,,,,,,,,,,,,,,,,,,,,,,,,,,,,
,,,,,,,,2023-08-16_08h42.48.835,HF_wild_card,2022.2.4,Win32,59.5521677,63d79f249b2729d9dd3c48ce,64d2fd46c836a06233681665,64dc7de57aadb8a0fe86dec2,,,,,,,sngl,resources/DP.BMP,resources/Empty.png,WildCard_Ex,-0.315740712,-0.084259288,1,0,0,0.913,optionLeft,95,4225,2,36,0,36,0,1,,,,,,,,,,,,,,,,,,,,,,,,,,,,,,,,,,,,,,,
,,,,,,,,2023-08-16_08h42.48.835,HF_wild_card,2022.2.4,Win32,59.5521677,63d79f249b2729d9dd3c48ce,64d2fd46c836a06233681665,64dc7de57aadb8a0fe86dec2,,,,,,,ctch,resources/DR.BMP,resources/DY.BMP,Door3,-0.349074046,-0.133333333,1,0,0,1.2687,optionLeft,70,4295,2,37,0,37,0,1,,,,,,,,,,,,,,,,,,,,,,,,,,,,,,,,,,,,,,,
,,,,,,,,2023-08-16_08h42.48.835,HF_wild_card,2022.2.4,Win32,59.5521677,63d79f249b2729d9dd3c48ce,64d2fd46c836a06233681665,64dc7de57aadb8a0fe86dec2,,,,,,,sngl,resources/Empty.png,resources/DBN.BMP,Door1,0.343518575,-0.025,1,0,0,0.964,optionRight,30,4325,2,38,0,38,0,1,,,,,,,,,,,,,,,,,,,,,,,,,,,,,,,,,,,,,,,
,,,,,,,,2023-08-16_08h42.48.835,HF_wild_card,2022.2.4,Win32,59.5521677,63d79f249b2729d9dd3c48ce,64d2fd46c836a06233681665,64dc7de57aadb8a0fe86dec2,,,,,,,decisionTrl,resources/DR.BMP,resources/DG.BMP,Door3,-0.431481467,-0.05648151,1,0,0,1.0975,optionLeft,70,4395,2,39,0,39,0,1,,,,,,,,,,,,,,,,,,,,,,,,,,,,,,,,,,,,,,,
,,,,,,,,2023-08-16_08h42.48.835,HF_wild_card,2022.2.4,Win32,59.5521677,63d79f249b2729d9dd3c48ce,64d2fd46c836a06233681665,64dc7de57aadb8a0fe86dec2,,,,,,,ctch,resources/DY.BMP,resources/DR.BMP,Door3,0.371296353,-0.057407422,1,0,0,1.0146,optionRight,70,4465,2,40,0,40,0,1,,,,,,,,,,,,,,,,,,,,,,,,,,,,,,,,,,,,,,,
,,,,,,,,2023-08-16_08h42.48.835,HF_wild_card,2022.2.4,Win32,59.5521677,63d79f249b2729d9dd3c48ce,64d2fd46c836a06233681665,64dc7de57aadb8a0fe86dec2,,,,,,,sngl,resources/Empty.png,resources/DG.BMP,Door4,0.40648151,-0.044444444,1,0,0,0.9125,optionRight,80,4545,2,41,0,41,0,1,,,,,,,,,,,,,,,,,,,,,,,,,,,,,,,,,,,,,,,
,,,,,,,,2023-08-16_08h42.48.835,HF_wild_card,2022.2.4,Win32,59.5521677,63d79f249b2729d9dd3c48ce,64d2fd46c836a06233681665,64dc7de57aadb8a0fe86dec2,,,,,,,decisionTrl,resources/DG.BMP,resources/DR.BMP,Door4,-0.34351849,-0.00648151,1,0,0,1.0821,optionLeft,80,4625,2,42,0,42,0,1,,,,,,,,,,,,,,,,,,,,,,,,,,,,,,,,,,,,,,,
,,,,,,,,2023-08-16_08h42.48.835,HF_wild_card,2022.2.4,Win32,59.5521677,63d79f249b2729d9dd3c48ce,64d2fd46c836a06233681665,64dc7de57aadb8a0fe86dec2,,,,,,,ctch,resources/DR.BMP,resources/DY.BMP,Door3,-0.412962935,-0.052777778,1,0,0,1.2515,optionLeft,70,4695,2,43,0,43,0,1,,,,,,,,,,,,,,,,,,,,,,,,,,,,,,,,,,,,,,,
,,,,,,,,2023-08-16_08h42.48.835,HF_wild_card,2022.2.4,Win32,59.5521677,63d79f249b2729d9dd3c48ce,64d2fd46c836a06233681665,64dc7de57aadb8a0fe86dec2,,,,,,,,,,,,,,,,,,,,,,,,,,1,0,1,0,1,,,,,,,,,,,,,,,,,,,,,,,,,,,,,,,,,,
,,,,,,,,2023-08-16_08h42.48.835,HF_wild_card,2022.2.4,Win32,59.5521677,63d79f249b2729d9dd3c48ce,64d2fd46c836a06233681665,64dc7de57aadb8a0fe86dec2,,,,,,,decisionTrl,resources/DP.BMP,resources/DR.BMP,WildCard_Ex,-0.356481467,-0.03148151,1,0,0,1.2565,optionLeft,5,4700,3,0,0,0,0,1,,,,,,,,,,,,,,,,,,,,,,,,,,,,,,,,,,,,,,,
,,,,,,,,2023-08-16_08h42.48.835,HF_wild_card,2022.2.4,Win32,59.5521677,63d79f249b2729d9dd3c48ce,64d2fd46c836a06233681665,64dc7de57aadb8a0fe86dec2,,,,,,,decisionTrl,resources/DBN.BMP,resources/DY.BMP,Door2,0.377777778,-0.025,1,0,0,1.4094,optionRight,40,4740,3,1,0,1,0,1,,,,,,,,,,,,,,,,,,,,,,,,,,,,,,,,,,,,,,,
,,,,,,,,2023-08-16_08h42.48.835,HF_wild_card,2022.2.4,Win32,59.5521677,63d79f249b2729d9dd3c48ce,64d2fd46c836a06233681665,64dc7de57aadb8a0fe86dec2,,,,,,,decisionTrl,resources/DBN.BMP,resources/DY.BMP,Door2,0.342592621,-0.018518533,1,0,0,1.3483,optionRight,20,4760,3,2,0,2,0,1,,,,,,,,,,,,,,,,,,,,,,,,,,,,,,,,,,,,,,,
,,,,,,,,2023-08-16_08h42.48.835,HF_wild_card,2022.2.4,Win32,59.5521677,63d79f249b2729d9dd3c48ce,64d2fd46c836a06233681665,64dc7de57aadb8a0fe86dec2,,,,,,,decisionTrl,resources/DY.BMP,resources/DBN.BMP,Door1,0.265740797,-0.069444444,1,0,0,1.7413,optionRight,30,4790,3,3,0,3,0,1,,,,,,,,,,,,,,,,,,,,,,,,,,,,,,,,,,,,,,,
,,,,,,,,2023-08-16_08h42.48.835,HF_wild_card,2022.2.4,Win32,59.5521677,63d79f249b2729d9dd3c48ce,64d2fd46c836a06233681665,64dc7de57aadb8a0fe86dec2,,,,,,,decisionTrl,resources/DG.BMP,resources/DR.BMP,Door4,-0.360185157,-0.027777778,1,0,0,1.4142,optionLeft,80,4870,3,4,0,4,0,1,,,,,,,,,,,,,,,,,,,,,,,,,,,,,,,,,,,,,,,
,,,,,,,,2023-08-16_08h42.48.835,HF_wild_card,2022.2.4,Win32,59.5521677,63d79f249b2729d9dd3c48ce,64d2fd46c836a06233681665,64dc7de57aadb8a0fe86dec2,,,,,,,ctch,resources/DG.BMP,resources/DBN.BMP,Door4,-0.376851824,-0.099074088,1,0,0,1.0478,optionLeft,80,4950,3,5,0,5,0,1,,,,,,,,,,,,,,,,,,,,,,,,,,,,,,,,,,,,,,,
,,,,,,,,2023-08-16_08h42.48.835,HF_wild_card,2022.2.4,Win32,59.5521677,63d79f249b2729d9dd3c48ce,64d2fd46c836a06233681665,64dc7de57aadb8a0fe86dec2,,,,,,,sngl,resources/DBN.BMP,resources/Empty.png,Door1,-0.334259245,-0.03148151,1,0,0,0.9097,optionLeft,30,4980,3,6,0,6,0,1,,,,,,,,,,,,,,,,,,,,,,,,,,,,,,,,,,,,,,,
,,,,,,,,2023-08-16_08h42.48.835,HF_wild_card,2022.2.4,Win32,59.5521677,63d79f249b2729d9dd3c48ce,64d2fd46c836a06233681665,64dc7de57aadb8a0fe86dec2,,,,,,,sngl,resources/Empty.png,resources/DP.BMP,WildCard_Ex,0.403703732,-0.044444444,1,0,0,0.9155,optionRight,95,5075,3,7,0,7,0,1,,,,,,,,,,,,,,,,,,,,,,,,,,,,,,,,,,,,,,,
,,,,,,,,2023-08-16_08h42.48.835,HF_wild_card,2022.2.4,Win32,59.5521677,63d79f249b2729d9dd3c48ce,64d2fd46c836a06233681665,64dc7de57aadb8a0fe86dec2,,,,,,,decisionTrl,resources/DBN.BMP,resources/DY.BMP,Door2,0.409259288,-0.059259288,1,0,0,1.9964,optionRight,40,5115,3,8,0,8,0,1,,,,,,,,,,,,,,,,,,,,,,,,,,,,,,,,,,,,,,,
,,,,,,,,2023-08-16_08h42.48.835,HF_wild_card,2022.2.4,Win32,59.5521677,63d79f249b2729d9dd3c48ce,64d2fd46c836a06233681665,64dc7de57aadb8a0fe86dec2,,,,,,,decisionTrl,resources/DG.BMP,resources/DP.BMP,WildCard_Ex,0.364814843,-0.070370399,1,0,0,1.2647,optionRight,95,5210,3,9,0,9,0,1,,,,,,,,,,,,,,,,,,,,,,,,,,,,,,,,,,,,,,,
,,,,,,,,2023-08-16_08h42.48.835,HF_wild_card,2022.2.4,Win32,59.5521677,63d79f249b2729d9dd3c48ce,64d2fd46c836a06233681665,64dc7de57aadb8a0fe86dec2,,,,,,,sngl,resources/DG.BMP,resources/Empty.png,Door4,-0.319444444,-0.037962977,1,0,0,0.9303,optionLeft,80,5290,3,10,0,10,0,1,,,,,,,,,,,,,,,,,,,,,,,,,,,,,,,,,,,,,,,
,,,,,,,,2023-08-16_08h42.48.835,HF_wild_card,2022.2.4,Win32,59.5521677,63d79f249b2729d9dd3c48ce,64d2fd46c836a06233681665,64dc7de57aadb8a0fe86dec2,,,,,,,ctch,resources/DG.BMP,resources/DBN.BMP,Door4,-0.319444444,-0.099074088,1,0,0,0.9647,optionLeft,80,5370,3,11,0,11,0,1,,,,,,,,,,,,,,,,,,,,,,,,,,,,,,,,,,,,,,,
,,,,,,,,2023-08-16_08h42.48.835,HF_wild_card,2022.2.4,Win32,59.5521677,63d79f249b2729d9dd3c48ce,64d2fd46c836a06233681665,64dc7de57aadb8a0fe86dec2,,,,,,,decisionTrl,resources/DY.BMP,resources/DBN.BMP,Door2,-0.280555556,-0.084259288,1,0,0,1.2648,optionLeft,20,5390,3,12,0,12,0,1,,,,,,,,,,,,,,,,,,,,,,,,,,,,,,,,,,,,,,,
,,,,,,,,2023-08-16_08h42.48.835,HF_wild_card,2022.2.4,Win32,59.5521677,63d79f249b2729d9dd3c48ce,64d2fd46c836a06233681665,64dc7de57aadb8a0fe86dec2,,,,,,,sngl,resources/DP.BMP,resources/Empty.png,WildCard_Ex,-0.359259245,-0.112037065,1,0,0,0.8649,optionLeft,5,5395,3,13,0,13,0,1,,,,,,,,,,,,,,,,,,,,,,,,,,,,,,,,,,,,,,,
,,,,,,,,2023-08-16_08h42.48.835,HF_wild_card,2022.2.4,Win32,59.5521677,63d79f249b2729d9dd3c48ce,64d2fd46c836a06233681665,64dc7de57aadb8a0fe86dec2,,,,,,,decisionTrl,resources/DR.BMP,resources/DG.BMP,Door3,-0.357407379,-0.108333333,1,0,0,0.8991,optionLeft,70,5465,3,14,0,14,0,1,,,,,,,,,,,,,,,,,,,,,,,,,,,,,,,,,,,,,,,
,,,,,,,,2023-08-16_08h42.48.835,HF_wild_card,2022.2.4,Win32,59.5521677,63d79f249b2729d9dd3c48ce,64d2fd46c836a06233681665,64dc7de57aadb8a0fe86dec2,,,,,,,ctch,resources/DY.BMP,resources/DR.BMP,Door3,0.313888889,-0.063888889,1,0,0,0.8104,optionRight,70,5535,3,15,0,15,0,1,,,,,,,,,,,,,,,,,,,,,,,,,,,,,,,,,,,,,,,
,,,,,,,,2023-08-16_08h42.48.835,HF_wild_card,2022.2.4,Win32,59.5521677,63d79f249b2729d9dd3c48ce,64d2fd46c836a06233681665,64dc7de57aadb8a0fe86dec2,,,,,,,ctch,resources/DBN.BMP,resources/DG.BMP,Door4,0.399074131,-0.059259288,1,0,0,1.2958,optionRight,60,5595,3,16,0,16,0,1,,,,,,,,,,,,,,,,,,,,,,,,,,,,,,,,,,,,,,,
,,,,,,,,2023-08-16_08h42.48.835,HF_wild_card,2022.2.4,Win32,59.5521677,63d79f249b2729d9dd3c48ce,64d2fd46c836a06233681665,64dc7de57aadb8a0fe86dec2,,,,,,,ctch,resources/DR.BMP,resources/DY.BMP,Door3,-0.359259245,-0.040740755,1,0,0,1.0478,optionLeft,70,5665,3,17,0,17,0,1,,,,,,,,,,,,,,,,,,,,,,,,,,,,,,,,,,,,,,,
,,,,,,,,2023-08-16_08h42.48.835,HF_wild_card,2022.2.4,Win32,59.5521677,63d79f249b2729d9dd3c48ce,64d2fd46c836a06233681665,64dc7de57aadb8a0fe86dec2,,,,,,,decisionTrl,resources/DR.BMP,resources/DP.BMP,Door3,-0.37870369,-0.060185199,1,0,0,1.4666,optionLeft,70,5735,3,18,0,18,0,1,,,,,,,,,,,,,,,,,,,,,,,,,,,,,,,,,,,,,,,
,,,,,,,,2023-08-16_08h42.48.835,HF_wild_card,2022.2.4,Win32,59.5521677,63d79f249b2729d9dd3c48ce,64d2fd46c836a06233681665,64dc7de57aadb8a0fe86dec2,,,,,,,sngl,resources/DY.BMP,resources/Empty.png,Door2,-0.291666667,-0.082407422,1,0,0,0.9469,optionLeft,40,5775,3,19,0,19,0,1,,,,,,,,,,,,,,,,,,,,,,,,,,,,,,,,,,,,,,,
,,,,,,,,2023-08-16_08h42.48.835,HF_wild_card,2022.2.4,Win32,59.5521677,63d79f249b2729d9dd3c48ce,64d2fd46c836a06233681665,64dc7de57aadb8a0fe86dec2,,,,,,,decisionTrl,resources/DY.BMP,resources/DP.BMP,WildCard_Ex,0.393518575,-0.044444444,1,0,0,1.1805,optionRight,95,5870,3,20,0,20,0,1,,,,,,,,,,,,,,,,,,,,,,,,,,,,,,,,,,,,,,,
,,,,,,,,2023-08-16_08h42.48.835,HF_wild_card,2022.2.4,Win32,59.5521677,63d79f249b2729d9dd3c48ce,64d2fd46c836a06233681665,64dc7de57aadb8a0fe86dec2,,,,,,,ctch,resources/DY.BMP,resources/DR.BMP,Door3,0.366666667,-0.035185199,1,0,0,0.9966,optionRight,70,5940,3,21,0,21,0,1,,,,,,,,,,,,,,,,,,,,,,,,,,,,,,,,,,,,,,,
,,,,,,,,2023-08-16_08h42.48.835,HF_wild_card,2022.2.4,Win32,59.5521677,63d79f249b2729d9dd3c48ce,64d2fd46c836a06233681665,64dc7de57aadb8a0fe86dec2,,,,,,,decisionTrl,resources/DG.BMP,resources/DR.BMP,Door4,-0.323148134,-0.055555556,1,0,0,2.0631,optionLeft,60,6000,3,22,0,22,0,1,,,,,,,,,,,,,,,,,,,,,,,,,,,,,,,,,,,,,,,
,,,,,,,,2023-08-16_08h42.48.835,HF_wild_card,2022.2.4,Win32,59.5521677,63d79f249b2729d9dd3c48ce,64d2fd46c836a06233681665,64dc7de57aadb8a0fe86dec2,,,,,,,sngl,resources/DP.BMP,resources/Empty.png,WildCard_Ex,-0.385185157,-0.085185199,1,0,0,0.8638,optionLeft,95,6095,3,23,0,23,0,1,,,,,,,,,,,,,,,,,,,,,,,,,,,,,,,,,,,,,,,
,,,,,,,,2023-08-16_08h42.48.835,HF_wild_card,2022.2.4,Win32,59.5521677,63d79f249b2729d9dd3c48ce,64d2fd46c836a06233681665,64dc7de57aadb8a0fe86dec2,,,,,,,decisionTrl,resources/DBN.BMP,resources/DY.BMP,Door2,0.394444444,-0.036111111,1,0,0,0.9986,optionRight,20,6115,3,24,0,24,0,1,,,,,,,,,,,,,,,,,,,,,,,,,,,,,,,,,,,,,,,
,,,,,,,,2023-08-16_08h42.48.835,HF_wild_card,2022.2.4,Win32,59.5521677,63d79f249b2729d9dd3c48ce,64d2fd46c836a06233681665,64dc7de57aadb8a0fe86dec2,,,,,,,decisionTrl,resources/DBN.BMP,resources/DP.BMP,WildCard_Ex,0.359259288,-0.025,1,0,0,2.6126,optionRight,95,6210,3,25,0,25,0,1,,,,,,,,,,,,,,,,,,,,,,,,,,,,,,,,,,,,,,,
,,,,,,,,2023-08-16_08h42.48.835,HF_wild_card,2022.2.4,Win32,59.5521677,63d79f249b2729d9dd3c48ce,64d2fd46c836a06233681665,64dc7de57aadb8a0fe86dec2,,,,,,,ctch,resources/DR.BMP,resources/DY.BMP,Door3,-0.377777778,-0.047222222,1,0,0,1.1321,optionLeft,70,6280,3,26,0,26,0,1,,,,,,,,,,,,,,,,,,,,,,,,,,,,,,,,,,,,,,,
,,,,,,,,2023-08-16_08h42.48.835,HF_wild_card,2022.2.4,Win32,59.5521677,63d79f249b2729d9dd3c48ce,64d2fd46c836a06233681665,64dc7de57aadb8a0fe86dec2,,,,,,,decisionTrl,resources/DP.BMP,resources/DY.BMP,WildCard_Ex,-0.348148134,-0.059259288,1,0,0,0.9848,optionLeft,95,6375,3,27,0,27,0,1,,,,,,,,,,,,,,,,,,,,,,,,,,,,,,,,,,,,,,,
,,,,,,,,2023-08-16_08h42.48.835,HF_wild_card,2022.2.4,Win32,59.5521677,63d79f249b2729d9dd3c48ce,64d2fd46c836a06233681665,64dc7de57aadb8a0fe86dec2,,,,,,,decisionTrl,resources/DY.BMP,resources/DBN.BMP,Door1,0.480555556,-0.035185199,1,0,0,2.9118,optionRight,30,6405,3,28,0,28,0,1,,,,,,,,,,,,,,,,,,,,,,,,,,,,,,,,,,,,,,,
,,,,,,,,2023-08-16_08h42.48.835,HF_wild_card,2022.2.4,Win32,59.5521677,63d79f249b2729d9dd3c48ce,64d2fd46c836a06233681665,64dc7de57aadb8a0fe86dec2,,,,,,,sngl,resources/Empty.png,resources/DG.BMP,Door4,0.4,-0.037037065,1,0,0,0.8476,optionRight,60,6465,3,29,0,29,0,1,,,,,,,,,,,,,,,,,,,,,,,,,,,,,,,,,,,,,,,
,,,,,,,,2023-08-16_08h42.48.835,HF_wild_card,2022.2.4,Win32,59.5521677,63d79f249b2729d9dd3c48ce,64d2fd46c836a06233681665,64dc7de57aadb8a0fe86dec2,,,,,,,sngl,resources/Empty.png,resources/DBN.BMP,Door1,0.420370399,-0.02129631,1,0,0,0.8646,optionRight,30,6495,3,30,0,30,0,1,,,,,,,,,,,,,,,,,,,,,,,,,,,,,,,,,,,,,,,
,,,,,,,,2023-08-16_08h42.48.835,HF_wild_card,2022.2.4,Win32,59.5521677,63d79f249b2729d9dd3c48ce,64d2fd46c836a06233681665,64dc7de57aadb8a0fe86dec2,,,,,,,decisionTrl,resources/DY.BMP,resources/DBN.BMP,Door2,-0.400925912,-0.043518533,1,0,0,0.982,optionLeft,20,6515,3,31,0,31,0,1,,,,,,,,,,,,,,,,,,,,,,,,,,,,,,,,,,,,,,,
,,,,,,,,2023-08-16_08h42.48.835,HF_wild_card,2022.2.4,Win32,59.5521677,63d79f249b2729d9dd3c48ce,64d2fd46c836a06233681665,64dc7de57aadb8a0fe86dec2,,,,,,,decisionTrl,resources/DP.BMP,resources/DBN.BMP,WildCard_Ex,-0.39351849,-0.078703732,1,0,0,0.8751,optionLeft,5,6520,3,32,0,32,0,1,,,,,,,,,,,,,,,,,,,,,,,,,,,,,,,,,,,,,,,
,,,,,,,,2023-08-16_08h42.48.835,HF_wild_card,2022.2.4,Win32,59.5521677,63d79f249b2729d9dd3c48ce,64d2fd46c836a06233681665,64dc7de57aadb8a0fe86dec2,,,,,,,decisionTrl,resources/DR.BMP,resources/DG.BMP,Door3,-0.376851824,-0.065740755,1,0,0,1.3316,optionLeft,70,6590,3,33,0,33,0,1,,,,,,,,,,,,,,,,,,,,,,,,,,,,,,,,,,,,,,,
,,,,,,,,2023-08-16_08h42.48.835,HF_wild_card,2022.2.4,Win32,59.5521677,63d79f249b2729d9dd3c48ce,64d2fd46c836a06233681665,64dc7de57aadb8a0fe86dec2,,,,,,,sngl,resources/Empty.png,resources/DY.BMP,Door2,0.304629686,-0.020370399,1,0,0,0.9814,optionRight,20,6610,3,34,0,34,0,1,,,,,,,,,,,,,,,,,,,,,,,,,,,,,,,,,,,,,,,
,,,,,,,,2023-08-16_08h42.48.835,HF_wild_card,2022.2.4,Win32,59.5521677,63d79f249b2729d9dd3c48ce,64d2fd46c836a06233681665,64dc7de57aadb8a0fe86dec2,,,,,,,decisionTrl,resources/DG.BMP,resources/DR.BMP,Door3,0.377777778,-0.025,1,0,0,2.4629,optionRight,70,6680,3,35,0,35,0,1,,,,,,,,,,,,,,,,,,,,,,,,,,,,,,,,,,,,,,,
,,,,,,,,2023-08-16_08h42.48.835,HF_wild_card,2022.2.4,Win32,59.5521677,63d79f249b2729d9dd3c48ce,64d2fd46c836a06233681665,64dc7de57aadb8a0fe86dec2,,,,,,,sngl,resources/Empty.png,resources/DR.BMP,Door3,0.380555556,-0.05648151,1,0,0,0.9138,optionRight,70,6750,3,36,0,36,0,1,,,,,,,,,,,,,,,,,,,,,,,,,,,,,,,,,,,,,,,
,,,,,,,,2023-08-16_08h42.48.835,HF_wild_card,2022.2.4,Win32,59.5521677,63d79f249b2729d9dd3c48ce,64d2fd46c836a06233681665,64dc7de57aadb8a0fe86dec2,,,,,,,ctch,resources/DBN.BMP,resources/DG.BMP,Door1,-0.367592578,-0.025,1,0,0,1.5137,optionLeft,30,6780,3,37,0,37,0,1,,,,,,,,,,,,,,,,,,,,,,,,,,,,,,,,,,,,,,,
,,,,,,,,2023-08-16_08h42.48.835,HF_wild_card,2022.2.4,Win32,59.5521677,63d79f249b2729d9dd3c48ce,64d2fd46c836a06233681665,64dc7de57aadb8a0fe86dec2,,,,,,,sngl,resources/DR.BMP,resources/Empty.png,Door3,-0.321296268,-0.07129631,1,0,0,0.8605,optionLeft,70,6850,3,38,0,38,0,1,,,,,,,,,,,,,,,,,,,,,,,,,,,,,,,,,,,,,,,
,,,,,,,,2023-08-16_08h42.48.835,HF_wild_card,2022.2.4,Win32,59.5521677,63d79f249b2729d9dd3c48ce,64d2fd46c836a06233681665,64dc7de57aadb8a0fe86dec2,,,,,,,decisionTrl,resources/DP.BMP,resources/DG.BMP,WildCard_Ex,-0.327777778,-0.091666667,1,0,0,0.9295,optionLeft,5,6855,3,39,0,39,0,1,,,,,,,,,,,,,,,,,,,,,,,,,,,,,,,,,,,,,,,
,,,,,,,,2023-08-16_08h42.48.835,HF_wild_card,2022.2.4,Win32,59.5521677,63d79f249b2729d9dd3c48ce,64d2fd46c836a06233681665,64dc7de57aadb8a0fe86dec2,,,,,,,decisionTrl,resources/DG.BMP,resources/DR.BMP,Door4,-0.356481467,-0.08148151,1,0,0,1.032,optionLeft,80,6935,3,40,0,40,0,1,,,,,,,,,,,,,,,,,,,,,,,,,,,,,,,,,,,,,,,
,,,,,,,,2023-08-16_08h42.48.835,HF_wild_card,2022.2.4,Win32,59.5521677,63d79f249b2729d9dd3c48ce,64d2fd46c836a06233681665,64dc7de57aadb8a0fe86dec2,,,,,,,sngl,resources/Empty.png,resources/DP.BMP,WildCard_Ex,0.447222222,0.010185157,1,0,0,1.3468,optionRight,5,6940,3,41,0,41,0,1,,,,,,,,,,,,,,,,,,,,,,,,,,,,,,,,,,,,,,,
,,,,,,,,2023-08-16_08h42.48.835,HF_wild_card,2022.2.4,Win32,59.5521677,63d79f249b2729d9dd3c48ce,64d2fd46c836a06233681665,64dc7de57aadb8a0fe86dec2,,,,,,,decisionTrl,resources/DR.BMP,resources/DG.BMP,Door4,0.377777778,0.046296268,1,0,0,1.8626,optionRight,80,7020,3,42,0,42,0,1,,,,,,,,,,,,,,,,,,,,,,,,,,,,,,,,,,,,,,,
,,,,,,,,2023-08-16_08h42.48.835,HF_wild_card,2022.2.4,Win32,59.5521677,63d79f249b2729d9dd3c48ce,64d2fd46c836a06233681665,64dc7de57aadb8a0fe86dec2,,,,,,,decisionTrl,resources/DR.BMP,resources/DG.BMP,Door4,0.407407464,-0.003703732,1,0,0,1.2474,optionRight,80,7100,3,43,0,43,0,1,,,,,,,,,,,,,,,,,,,,,,,,,,,,,,,,,,,,,,,
,,,,,,,,2023-08-16_08h42.48.835,HF_wild_card,2022.2.4,Win32,59.5521677,63d79f249b2729d9dd3c48ce,64d2fd46c836a06233681665,64dc7de57aadb8a0fe86dec2,,,,,,,,,,,,,,,,,,,,,,,,,,2,0,2,0,1,,,,,,,,,,,,,,,,,,,,,,,,,,,,,,,,,,
,,,,,,,,2023-08-16_08h42.48.835,HF_wild_card,2022.2.4,Win32,59.5521677,63d79f249b2729d9dd3c48ce,64d2fd46c836a06233681665,64dc7de57aadb8a0fe86dec2,,,,,,,sngl,resources/Empty.png,resources/DG.BMP,Door4,0.404629686,0.009259245,1,0,0,0.9421,optionRight,80,7180,4,0,0,0,0,1,,,,,,,,,,,,,,,,,,,,,,,,,,,,,,,,,,,,,,,
,,,,,,,,2023-08-16_08h42.48.835,HF_wild_card,2022.2.4,Win32,59.5521677,63d79f249b2729d9dd3c48ce,64d2fd46c836a06233681665,64dc7de57aadb8a0fe86dec2,,,,,,,decisionTrl,resources/DB.BMP,resources/DY.BMP,WildCard_NonEx,-0.331481467,-0.079629644,1,0,0,1.3326,optionLeft,55,7235,4,1,0,1,0,1,,,,,,,,,,,,,,,,,,,,,,,,,,,,,,,,,,,,,,,
,,,,,,,,2023-08-16_08h42.48.835,HF_wild_card,2022.2.4,Win32,59.5521677,63d79f249b2729d9dd3c48ce,64d2fd46c836a06233681665,64dc7de57aadb8a0fe86dec2,,,,,,,decisionTrl,resources/DY.BMP,resources/DBN.BMP,Door2,-0.333333333,-0.05648151,1,0,0,1.7795,optionLeft,40,7275,4,2,0,2,0,1,,,,,,,,,,,,,,,,,,,,,,,,,,,,,,,,,,,,,,,
,,,,,,,,2023-08-16_08h42.48.835,HF_wild_card,2022.2.4,Win32,59.5521677,63d79f249b2729d9dd3c48ce,64d2fd46c836a06233681665,64dc7de57aadb8a0fe86dec2,,,,,,,decisionTrl,resources/DG.BMP,resources/DR.BMP,Door4,-0.292592578,-0.02129631,1,0,0,1.3641,optionLeft,60,7335,4,3,0,3,0,1,,,,,,,,,,,,,,,,,,,,,,,,,,,,,,,,,,,,,,,
,,,,,,,,2023-08-16_08h42.48.835,HF_wild_card,2022.2.4,Win32,59.5521677,63d79f249b2729d9dd3c48ce,64d2fd46c836a06233681665,64dc7de57aadb8a0fe86dec2,,,,,,,sngl,resources/DB.BMP,resources/Empty.png,WildCard_NonEx,-0.334259245,-0.060185199,1,0,0,0.8983,optionLeft,55,7390,4,4,0,4,0,1,,,,,,,,,,,,,,,,,,,,,,,,,,,,,,,,,,,,,,,
,,,,,,,,2023-08-16_08h42.48.835,HF_wild_card,2022.2.4,Win32,59.5521677,63d79f249b2729d9dd3c48ce,64d2fd46c836a06233681665,64dc7de57aadb8a0fe86dec2,,,,,,,ctch,resources/DG.BMP,resources/DBN.BMP,Door4,-0.321296268,-0.034259288,1,0,0,1.4958,optionLeft,60,7450,4,5,0,5,0,1,,,,,,,,,,,,,,,,,,,,,,,,,,,,,,,,,,,,,,,
,,,,,,,,2023-08-16_08h42.48.835,HF_wild_card,2022.2.4,Win32,59.5521677,63d79f249b2729d9dd3c48ce,64d2fd46c836a06233681665,64dc7de57aadb8a0fe86dec2,,,,,,,decisionTrl,resources/DBN.BMP,resources/DB.BMP,WildCard_NonEx,0.384259288,-0.019444444,1,0,0,1.5813,optionRight,45,7495,4,6,0,6,0,1,,,,,,,,,,,,,,,,,,,,,,,,,,,,,,,,,,,,,,,
,,,,,,,,2023-08-16_08h42.48.835,HF_wild_card,2022.2.4,Win32,59.5521677,63d79f249b2729d9dd3c48ce,64d2fd46c836a06233681665,64dc7de57aadb8a0fe86dec2,,,,,,,decisionTrl,resources/DB.BMP,resources/DR.BMP,Door3,0.375925954,-0.05,1,0,0,1.2457,optionRight,70,7565,4,7,0,7,0,1,,,,,,,,,,,,,,,,,,,,,,,,,,,,,,,,,,,,,,,
,,,,,,,,2023-08-16_08h42.48.835,HF_wild_card,2022.2.4,Win32,59.5521677,63d79f249b2729d9dd3c48ce,64d2fd46c836a06233681665,64dc7de57aadb8a0fe86dec2,,,,,,,sngl,resources/DBN.BMP,resources/Empty.png,Door1,-0.430555556,-0.004629644,1,0,0,0.9136,optionLeft,30,7595,4,8,0,8,0,1,,,,,,,,,,,,,,,,,,,,,,,,,,,,,,,,,,,,,,,
,,,,,,,,2023-08-16_08h42.48.835,HF_wild_card,2022.2.4,Win32,59.5521677,63d79f249b2729d9dd3c48ce,64d2fd46c836a06233681665,64dc7de57aadb8a0fe86dec2,,,,,,,decisionTrl,resources/DY.BMP,resources/DB.BMP,WildCard_NonEx,0.415740797,-0.014814843,1,0,0,1.9341,optionRight,55,7650,4,9,0,9,0,1,,,,,,,,,,,,,,,,,,,,,,,,,,,,,,,,,,,,,,,
,,,,,,,,2023-08-16_08h42.48.835,HF_wild_card,2022.2.4,Win32,59.5521677,63d79f249b2729d9dd3c48ce,64d2fd46c836a06233681665,64dc7de57aadb8a0fe86dec2,,,,,,,decisionTrl,resources/DBN.BMP,resources/DY.BMP,Door2,0.365740797,-0.02129631,1,0,0,1.2466,optionRight,20,7670,4,10,0,10,0,1,,,,,,,,,,,,,,,,,,,,,,,,,,,,,,,,,,,,,,,
,,,,,,,,2023-08-16_08h42.48.835,HF_wild_card,2022.2.4,Win32,59.5521677,63d79f249b2729d9dd3c48ce,64d2fd46c836a06233681665,64dc7de57aadb8a0fe86dec2,,,,,,,ctch,resources/DBN.BMP,resources/DG.BMP,Door4,0.340740797,-0.065740755,1,0,0,1.5306,optionRight,60,7730,4,11,0,11,0,1,,,,,,,,,,,,,,,,,,,,,,,,,,,,,,,,,,,,,,,
,,,,,,,,2023-08-16_08h42.48.835,HF_wild_card,2022.2.4,Win32,59.5521677,63d79f249b2729d9dd3c48ce,64d2fd46c836a06233681665,64dc7de57aadb8a0fe86dec2,,,,,,,decisionTrl,resources/DBN.BMP,resources/DY.BMP,Door1,-0.301851824,-0.043518533,1,0,0,2.1969,optionLeft,30,7760,4,12,0,12,0,1,,,,,,,,,,,,,,,,,,,,,,,,,,,,,,,,,,,,,,,
,,,,,,,,2023-08-16_08h42.48.835,HF_wild_card,2022.2.4,Win32,59.5521677,63d79f249b2729d9dd3c48ce,64d2fd46c836a06233681665,64dc7de57aadb8a0fe86dec2,,,,,,,decisionTrl,resources/DY.BMP,resources/DBN.BMP,Door1,0.359259288,-0.010185199,1,0,0,1.031,optionRight,30,7790,4,13,0,13,0,1,,,,,,,,,,,,,,,,,,,,,,,,,,,,,,,,,,,,,,,
,,,,,,,,2023-08-16_08h42.48.835,HF_wild_card,2022.2.4,Win32,59.5521677,63d79f249b2729d9dd3c48ce,64d2fd46c836a06233681665,64dc7de57aadb8a0fe86dec2,,,,,,,sngl,resources/DY.BMP,resources/Empty.png,Door2,-0.334259245,-0.04629631,1,0,0,0.8491,optionLeft,20,7810,4,14,0,14,0,1,,,,,,,,,,,,,,,,,,,,,,,,,,,,,,,,,,,,,,,
,,,,,,,,2023-08-16_08h42.48.835,HF_wild_card,2022.2.4,Win32,59.5521677,63d79f249b2729d9dd3c48ce,64d2fd46c836a06233681665,64dc7de57aadb8a0fe86dec2,,,,,,,decisionTrl,resources/DR.BMP,resources/DG.BMP,Door4,0.4,-0.050925954,1,0,0,2.3974,optionRight,80,7890,4,15,0,15,0,1,,,,,,,,,,,,,,,,,,,,,,,,,,,,,,,,,,,,,,,
,,,,,,,,2023-08-16_08h42.48.835,HF_wild_card,2022.2.4,Win32,59.5521677,63d79f249b2729d9dd3c48ce,64d2fd46c836a06233681665,64dc7de57aadb8a0fe86dec2,,,,,,,ctch,resources/DY.BMP,resources/DR.BMP,Door3,0.302777778,-0.041666667,1,0,0,1.1824,optionRight,70,7960,4,16,0,16,0,1,,,,,,,,,,,,,,,,,,,,,,,,,,,,,,,,,,,,,,,
,,,,,,,,2023-08-16_08h42.48.835,HF_wild_card,2022.2.4,Win32,59.5521677,63d79f249b2729d9dd3c48ce,64d2fd46c836a06233681665,64dc7de57aadb8a0fe86dec2,,,,,,,decisionTrl,resources/DBN.BMP,resources/DY.BMP,Door2,0.390740797,-0.05648151,1,0,0,2.0168,optionRight,40,8000,4,17,0,17,0,1,,,,,,,,,,,,,,,,,,,,,,,,,,,,,,,,,,,,,,,
,,,,,,,,2023-08-16_08h42.48.835,HF_wild_card,2022.2.4,Win32,59.5521677,63d79f249b2729d9dd3c48ce,64d2fd46c836a06233681665,64dc7de57aadb8a0fe86dec2,,,,,,,decisionTrl,resources/DG.BMP,resources/DB.BMP,Door4,-0.467592578,0.014814801,1,0,0,2.6952,optionLeft,80,8080,4,18,0,18,0,1,,,,,,,,,,,,,,,,,,,,,,,,,,,,,,,,,,,,,,,
,,,,,,,,2023-08-16_08h42.48.835,HF_wild_card,2022.2.4,Win32,59.5521677,63d79f249b2729d9dd3c48ce,64d2fd46c836a06233681665,64dc7de57aadb8a0fe86dec2,,,,,,,decisionTrl,resources/DG.BMP,resources/DR.BMP,Door4,-0.32870369,-0.037037065,1,0,0,1.0635,optionLeft,60,8140,4,19,0,19,0,1,,,,,,,,,,,,,,,,,,,,,,,,,,,,,,,,,,,,,,,
,,,,,,,,2023-08-16_08h42.48.835,HF_wild_card,2022.2.4,Win32,59.5521677,63d79f249b2729d9dd3c48ce,64d2fd46c836a06233681665,64dc7de57aadb8a0fe86dec2,,,,,,,sngl,resources/DG.BMP,resources/Empty.png,Door4,-0.317592578,-0.043518533,1,0,0,0.8975,optionLeft,60,8200,4,20,0,20,0,1,,,,,,,,,,,,,,,,,,,,,,,,,,,,,,,,,,,,,,,
,,,,,,,,2023-08-16_08h42.48.835,HF_wild_card,2022.2.4,Win32,59.5521677,63d79f249b2729d9dd3c48ce,64d2fd46c836a06233681665,64dc7de57aadb8a0fe86dec2,,,,,,,decisionTrl,resources/DR.BMP,resources/DG.BMP,Door3,-0.399074046,-0.076851866,1,0,0,1.3677,optionLeft,70,8270,4,21,0,21,0,1,,,,,,,,,,,,,,,,,,,,,,,,,,,,,,,,,,,,,,,
,,,,,,,,2023-08-16_08h42.48.835,HF_wild_card,2022.2.4,Win32,59.5521677,63d79f249b2729d9dd3c48ce,64d2fd46c836a06233681665,64dc7de57aadb8a0fe86dec2,,,,,,,ctch,resources/DR.BMP,resources/DY.BMP,Door3,-0.35370369,-0.07129631,1,0,0,0.9522,optionLeft,70,8340,4,22,0,22,0,1,,,,,,,,,,,,,,,,,,,,,,,,,,,,,,,,,,,,,,,
,,,,,,,,2023-08-16_08h42.48.835,HF_wild_card,2022.2.4,Win32,59.5521677,63d79f249b2729d9dd3c48ce,64d2fd46c836a06233681665,64dc7de57aadb8a0fe86dec2,,,,,,,decisionTrl,resources/DY.BMP,resources/DBN.BMP,Door1,0.348148176,-0.011111111,1,0,0,1.3293,optionRight,30,8370,4,23,0,23,0,1,,,,,,,,,,,,,,,,,,,,,,,,,,,,,,,,,,,,,,,
,,,,,,,,2023-08-16_08h42.48.835,HF_wild_card,2022.2.4,Win32,59.5521677,63d79f249b2729d9dd3c48ce,64d2fd46c836a06233681665,64dc7de57aadb8a0fe86dec2,,,,,,,sngl,resources/Empty.png,resources/DY.BMP,Door2,0.371296353,-0.037962977,1,0,0,0.7965,optionRight,40,8410,4,24,0,24,0,1,,,,,,,,,,,,,,,,,,,,,,,,,,,,,,,,,,,,,,,
,,,,,,,,2023-08-16_08h42.48.835,HF_wild_card,2022.2.4,Win32,59.5521677,63d79f249b2729d9dd3c48ce,64d2fd46c836a06233681665,64dc7de57aadb8a0fe86dec2,,,,,,,decisionTrl,resources/DB.BMP,resources/DBN.BMP,WildCard_NonEx,-0.409259245,-0.045370399,1,0,0,1.4444,optionLeft,55,8465,4,25,0,25,0,1,,,,,,,,,,,,,,,,,,,,,,,,,,,,,,,,,,,,,,,
,,,,,,,,2023-08-16_08h42.48.835,HF_wild_card,2022.2.4,Win32,59.5521677,63d79f249b2729d9dd3c48ce,64d2fd46c836a06233681665,64dc7de57aadb8a0fe86dec2,,,,,,,decisionTrl,resources/DG.BMP,resources/DR.BMP,Door4,-0.362037023,-0.016666667,1,0,0,1.8669,optionLeft,80,8545,4,26,0,26,0,1,,,,,,,,,,,,,,,,,,,,,,,,,,,,,,,,,,,,,,,
,,,,,,,,2023-08-16_08h42.48.835,HF_wild_card,2022.2.4,Win32,59.5521677,63d79f249b2729d9dd3c48ce,64d2fd46c836a06233681665,64dc7de57aadb8a0fe86dec2,,,,,,,sngl,resources/DR.BMP,resources/Empty.png,Door3,-0.387037023,-0.109259288,1,0,0,0.8272,optionLeft,70,8615,4,27,0,27,0,1,,,,,,,,,,,,,,,,,,,,,,,,,,,,,,,,,,,,,,,
,,,,,,,,2023-08-16_08h42.48.835,HF_wild_card,2022.2.4,Win32,59.5521677,63d79f249b2729d9dd3c48ce,64d2fd46c836a06233681665,64dc7de57aadb8a0fe86dec2,,,,,,,decisionTrl,resources/DB.BMP,resources/DG.BMP,Door4,0.40648151,-0.014814843,1,0,0,1.6454,optionRight,60,8675,4,28,0,28,0,1,,,,,,,,,,,,,,,,,,,,,,,,,,,,,,,,,,,,,,,
,,,,,,,,2023-08-16_08h42.48.835,HF_wild_card,2022.2.4,Win32,59.5521677,63d79f249b2729d9dd3c48ce,64d2fd46c836a06233681665,64dc7de57aadb8a0fe86dec2,,,,,,,decisionTrl,resources/DR.BMP,resources/DG.BMP,Door3,-0.371296268,-0.055555556,1,0,0,1.5822,optionLeft,70,8745,4,29,0,29,0,1,,,,,,,,,,,,,,,,,,,,,,,,,,,,,,,,,,,,,,,
,,,,,,,,2023-08-16_08h42.48.835,HF_wild_card,2022.2.4,Win32,59.5521677,63d79f249b2729d9dd3c48ce,64d2fd46c836a06233681665,64dc7de57aadb8a0fe86dec2,,,,,,,sngl,resources/Empty.png,resources/DB.BMP,WildCard_NonEx,0.399074131,-0.042592621,1,0,0,0.831,optionRight,55,8800,4,30,0,30,0,1,,,,,,,,,,,,,,,,,,,,,,,,,,,,,,,,,,,,,,,
,,,,,,,,2023-08-16_08h42.48.835,HF_wild_card,2022.2.4,Win32,59.5521677,63d79f249b2729d9dd3c48ce,64d2fd46c836a06233681665,64dc7de57aadb8a0fe86dec2,,,,,,,decisionTrl,resources/DBN.BMP,resources/DY.BMP,Door2,0.320370399,-0.053703732,1,0,0,2.6796,optionRight,20,8820,4,31,0,31,0,1,,,,,,,,,,,,,,,,,,,,,,,,,,,,,,,,,,,,,,,
,,,,,,,,2023-08-16_08h42.48.835,HF_wild_card,2022.2.4,Win32,59.5521677,63d79f249b2729d9dd3c48ce,64d2fd46c836a06233681665,64dc7de57aadb8a0fe86dec2,,,,,,,ctch,resources/DBN.BMP,resources/DG.BMP,Door4,0.344444444,-0.054629644,1,0,0,1.3795,optionRight,60,8880,4,32,0,32,0,1,,,,,,,,,,,,,,,,,,,,,,,,,,,,,,,,,,,,,,,
,,,,,,,,2023-08-16_08h42.48.835,HF_wild_card,2022.2.4,Win32,59.5521677,63d79f249b2729d9dd3c48ce,64d2fd46c836a06233681665,64dc7de57aadb8a0fe86dec2,,,,,,,sngl,resources/DB.BMP,resources/Empty.png,WildCard_NonEx,-0.322222222,-0.029629644,1,0,0,0.7805,optionLeft,45,8925,4,33,0,33,0,1,,,,,,,,,,,,,,,,,,,,,,,,,,,,,,,,,,,,,,,
,,,,,,,,2023-08-16_08h42.48.835,HF_wild_card,2022.2.4,Win32,59.5521677,63d79f249b2729d9dd3c48ce,64d2fd46c836a06233681665,64dc7de57aadb8a0fe86dec2,,,,,,,sngl,resources/Empty.png,resources/DB.BMP,WildCard_NonEx,0.318518575,-0.073148176,1,0,0,0.8768,optionRight,45,8970,4,34,0,34,0,1,,,,,,,,,,,,,,,,,,,,,,,,,,,,,,,,,,,,,,,
,,,,,,,,2023-08-16_08h42.48.835,HF_wild_card,2022.2.4,Win32,59.5521677,63d79f249b2729d9dd3c48ce,64d2fd46c836a06233681665,64dc7de57aadb8a0fe86dec2,,,,,,,ctch,resources/DY.BMP,resources/DR.BMP,Door3,0.358333333,-0.033333333,1,0,0,1.3984,optionRight,70,9040,4,35,0,35,0,1,,,,,,,,,,,,,,,,,,,,,,,,,,,,,,,,,,,,,,,
,,,,,,,,2023-08-16_08h42.48.835,HF_wild_card,2022.2.4,Win32,59.5521677,63d79f249b2729d9dd3c48ce,64d2fd46c836a06233681665,64dc7de57aadb8a0fe86dec2,,,,,,,decisionTrl,resources/DG.BMP,resources/DR.BMP,Door4,-0.337962935,-0.057407422,1,0,0,1.6659,optionLeft,80,9120,4,36,0,36,0,1,,,,,,,,,,,,,,,,,,,,,,,,,,,,,,,,,,,,,,,
,,,,,,,,2023-08-16_08h42.48.835,HF_wild_card,2022.2.4,Win32,59.5521677,63d79f249b2729d9dd3c48ce,64d2fd46c836a06233681665,64dc7de57aadb8a0fe86dec2,,,,,,,ctch,resources/DG.BMP,resources/DBN.BMP,Door4,-0.308333333,-0.055555556,1,0,0,0.9139,optionLeft,80,9200,4,37,0,37,0,1,,,,,,,,,,,,,,,,,,,,,,,,,,,,,,,,,,,,,,,
,,,,,,,,2023-08-16_08h42.48.835,HF_wild_card,2022.2.4,Win32,59.5521677,63d79f249b2729d9dd3c48ce,64d2fd46c836a06233681665,64dc7de57aadb8a0fe86dec2,,,,,,,decisionTrl,resources/DR.BMP,resources/DG.BMP,Door3,-0.298148134,-0.05648151,1,0,0,1.0829,optionLeft,70,9270,4,38,0,38,0,1,,,,,,,,,,,,,,,,,,,,,,,,,,,,,,,,,,,,,,,
,,,,,,,,2023-08-16_08h42.48.835,HF_wild_card,2022.2.4,Win32,59.5521677,63d79f249b2729d9dd3c48ce,64d2fd46c836a06233681665,64dc7de57aadb8a0fe86dec2,,,,,,,decisionTrl,resources/DR.BMP,resources/DB.BMP,Door3,-0.337037023,-0.037037065,1,0,0,0.9466,optionLeft,70,9340,4,39,0,39,0,1,,,,,,,,,,,,,,,,,,,,,,,,,,,,,,,,,,,,,,,
,,,,,,,,2023-08-16_08h42.48.835,HF_wild_card,2022.2.4,Win32,59.5521677,63d79f249b2729d9dd3c48ce,64d2fd46c836a06233681665,64dc7de57aadb8a0fe86dec2,,,,,,,ctch,resources/DR.BMP,resources/DY.BMP,Door3,-0.35,-0.067592621,1,0,0,0.8955,optionLeft,70,9410,4,40,0,40,0,1,,,,,,,,,,,,,,,,,,,,,,,,,,,,,,,,,,,,,,,
,,,,,,,,2023-08-16_08h42.48.835,HF_wild_card,2022.2.4,Win32,59.5521677,63d79f249b2729d9dd3c48ce,64d2fd46c836a06233681665,64dc7de57aadb8a0fe86dec2,,,,,,,sngl,resources/Empty.png,resources/DR.BMP,Door3,0.389814843,-0.04629631,1,0,0,0.7807,optionRight,70,9480,4,41,0,41,0,1,,,,,,,,,,,,,,,,,,,,,,,,,,,,,,,,,,,,,,,
,,,,,,,,2023-08-16_08h42.48.835,HF_wild_card,2022.2.4,Win32,59.5521677,63d79f249b2729d9dd3c48ce,64d2fd46c836a06233681665,64dc7de57aadb8a0fe86dec2,,,,,,,sngl,resources/Empty.png,resources/DBN.BMP,Door1,0.416666667,-0.032407422,1,0,0,0.8134,optionRight,30,9510,4,42,0,42,0,1,,,,,,,,,,,,,,,,,,,,,,,,,,,,,,,,,,,,,,,
,,,,,,,,2023-08-16_08h42.48.835,HF_wild_card,2022.2.4,Win32,59.5521677,63d79f249b2729d9dd3c48ce,64d2fd46c836a06233681665,64dc7de57aadb8a0fe86dec2,,,,,,,decisionTrl,resources/DY.BMP,resources/DBN.BMP,Door1,0.380555556,-0.05648151,1,0,0,1.5629,optionRight,30,9540,4,43,0,43,0,1,,,,,,,,,,,,,,,,,,,,,,,,,,,,,,,,,,,,,,,
,,,,,,,,2023-08-16_08h42.48.835,HF_wild_card,2022.2.4,Win32,59.5521677,63d79f249b2729d9dd3c48ce,64d2fd46c836a06233681665,64dc7de57aadb8a0fe86dec2,,,,,,,,,,,,,,,,,,,,,,,,,,3,0,3,0,1,,,,,,,,,,,,,,,,,,,,,,,,,,,,,,,,,,
,,,,,,,,2023-08-16_08h42.48.835,HF_wild_card,2022.2.4,Win32,59.5521677,63d79f249b2729d9dd3c48ce,64d2fd46c836a06233681665,64dc7de57aadb8a0fe86dec2,,,,,,,decisionTrl,resources/DBN.BMP,resources/DB.BMP,WildCard_NonEx,0.386111111,-0.042592621,1,0,0,1.1543,optionRight,55,9595,5,0,0,0,0,1,,,,,,,,,,,,,,,,,,,,,,,,,,,,,,,,,,,,,,,
,,,,,,,,2023-08-16_08h42.48.835,HF_wild_card,2022.2.4,Win32,59.5521677,63d79f249b2729d9dd3c48ce,64d2fd46c836a06233681665,64dc7de57aadb8a0fe86dec2,,,,,,,ctch,resources/DR.BMP,resources/DY.BMP,Door3,-0.382407379,-0.029629644,1,0,0,1.0803,optionLeft,70,9665,5,1,0,1,0,1,,,,,,,,,,,,,,,,,,,,,,,,,,,,,,,,,,,,,,,
,,,,,,,,2023-08-16_08h42.48.835,HF_wild_card,2022.2.4,Win32,59.5521677,63d79f249b2729d9dd3c48ce,64d2fd46c836a06233681665,64dc7de57aadb8a0fe86dec2,,,,,,,ctch,resources/DBN.BMP,resources/DG.BMP,Door4,0.400925954,-0.029629644,1,0,0,1.364,optionRight,60,9725,5,2,0,2,0,1,,,,,,,,,,,,,,,,,,,,,,,,,,,,,,,,,,,,,,,
,,,,,,,,2023-08-16_08h42.48.835,HF_wild_card,2022.2.4,Win32,59.5521677,63d79f249b2729d9dd3c48ce,64d2fd46c836a06233681665,64dc7de57aadb8a0fe86dec2,,,,,,,sngl,resources/Empty.png,resources/DR.BMP,Door3,0.340740797,-0.066666667,1,0,0,0.914,optionRight,70,9795,5,3,0,3,0,1,,,,,,,,,,,,,,,,,,,,,,,,,,,,,,,,,,,,,,,
,,,,,,,,2023-08-16_08h42.48.835,HF_wild_card,2022.2.4,Win32,59.5521677,63d79f249b2729d9dd3c48ce,64d2fd46c836a06233681665,64dc7de57aadb8a0fe86dec2,,,,,,,decisionTrl,resources/DBN.BMP,resources/DY.BMP,Door1,-0.244444444,-0.033333333,1,0,0,2.0299,optionLeft,30,9825,5,4,0,4,0,1,,,,,,,,,,,,,,,,,,,,,,,,,,,,,,,,,,,,,,,
,,,,,,,,2023-08-16_08h42.48.835,HF_wild_card,2022.2.4,Win32,59.5521677,63d79f249b2729d9dd3c48ce,64d2fd46c836a06233681665,64dc7de57aadb8a0fe86dec2,,,,,,,sngl,resources/DBN.BMP,resources/Empty.png,Door1,-0.407407379,-0.048148176,1,0,0,0.7995,optionLeft,30,9855,5,5,0,5,0,1,,,,,,,,,,,,,,,,,,,,,,,,,,,,,,,,,,,,,,,
,,,,,,,,2023-08-16_08h42.48.835,HF_wild_card,2022.2.4,Win32,59.5521677,63d79f249b2729d9dd3c48ce,64d2fd46c836a06233681665,64dc7de57aadb8a0fe86dec2,,,,,,,decisionTrl,resources/DR.BMP,resources/DB.BMP,Door3,-0.352777778,-0.062037065,1,0,0,1.0809,optionLeft,70,9925,5,6,0,6,0,1,,,,,,,,,,,,,,,,,,,,,,,,,,,,,,,,,,,,,,,
,,,,,,,,2023-08-16_08h42.48.835,HF_wild_card,2022.2.4,Win32,59.5521677,63d79f249b2729d9dd3c48ce,64d2fd46c836a06233681665,64dc7de57aadb8a0fe86dec2,,,,,,,decisionTrl,resources/DBN.BMP,resources/DY.BMP,Door2,0.276851908,-0.080555556,1,0,0,2.7477,optionRight,40,9965,5,7,0,7,0,1,,,,,,,,,,,,,,,,,,,,,,,,,,,,,,,,,,,,,,,
,,,,,,,,2023-08-16_08h42.48.835,HF_wild_card,2022.2.4,Win32,59.5521677,63d79f249b2729d9dd3c48ce,64d2fd46c836a06233681665,64dc7de57aadb8a0fe86dec2,,,,,,,decisionTrl,resources/DG.BMP,resources/DR.BMP,Door4,-0.305555556,-0.022222222,1,0,0,1.2773,optionLeft,80,10045,5,8,0,8,0,1,,,,,,,,,,,,,,,,,,,,,,,,,,,,,,,,,,,,,,,
,,,,,,,,2023-08-16_08h42.48.835,HF_wild_card,2022.2.4,Win32,59.5521677,63d79f249b2729d9dd3c48ce,64d2fd46c836a06233681665,64dc7de57aadb8a0fe86dec2,,,,,,,sngl,resources/DR.BMP,resources/Empty.png,Door3,-0.327777778,-0.052777778,1,0,0,0.7143,optionLeft,70,10115,5,9,0,9,0,1,,,,,,,,,,,,,,,,,,,,,,,,,,,,,,,,,,,,,,,
,,,,,,,,2023-08-16_08h42.48.835,HF_wild_card,2022.2.4,Win32,59.5521677,63d79f249b2729d9dd3c48ce,64d2fd46c836a06233681665,64dc7de57aadb8a0fe86dec2,,,,,,,decisionTrl,resources/DB.BMP,resources/DG.BMP,Door4,0.441666667,-0.087962977,1,0,0,2.4635,optionRight,80,10195,5,10,0,10,0,1,,,,,,,,,,,,,,,,,,,,,,,,,,,,,,,,,,,,,,,
,,,,,,,,2023-08-16_08h42.48.835,HF_wild_card,2022.2.4,Win32,59.5521677,63d79f249b2729d9dd3c48ce,64d2fd46c836a06233681665,64dc7de57aadb8a0fe86dec2,,,,,,,decisionTrl,resources/DB.BMP,resources/DBN.BMP,WildCard_NonEx,-0.337037023,-0.052777778,1,0,0,0.9313,optionLeft,55,10250,5,11,0,11,0,1,,,,,,,,,,,,,,,,,,,,,,,,,,,,,,,,,,,,,,,
,,,,,,,,2023-08-16_08h42.48.835,HF_wild_card,2022.2.4,Win32,59.5521677,63d79f249b2729d9dd3c48ce,64d2fd46c836a06233681665,64dc7de57aadb8a0fe86dec2,,,,,,,sngl,resources/Empty.png,resources/DB.BMP,WildCard_NonEx,0.367592621,-0.034259288,1,0,0,0.8145,optionRight,45,10295,5,12,0,12,0,1,,,,,,,,,,,,,,,,,,,,,,,,,,,,,,,,,,,,,,,
,,,,,,,,2023-08-16_08h42.48.835,HF_wild_card,2022.2.4,Win32,59.5521677,63d79f249b2729d9dd3c48ce,64d2fd46c836a06233681665,64dc7de57aadb8a0fe86dec2,,,,,,,decisionTrl,resources/DY.BMP,resources/DB.BMP,WildCard_NonEx,0.318518575,-0.049074088,1,0,0,1.5304,optionRight,55,10350,5,13,0,13,0,1,,,,,,,,,,,,,,,,,,,,,,,,,,,,,,,,,,,,,,,
,,,,,,,,2023-08-16_08h42.48.835,HF_wild_card,2022.2.4,Win32,59.5521677,63d79f249b2729d9dd3c48ce,64d2fd46c836a06233681665,64dc7de57aadb8a0fe86dec2,,,,,,,decisionTrl,resources/DBN.BMP,resources/DY.BMP,Door1,-0.265740712,-0.005555556,1,0,0,2.264,optionLeft,30,10380,5,14,0,14,0,1,,,,,,,,,,,,,,,,,,,,,,,,,,,,,,,,,,,,,,,
,,,,,,,,2023-08-16_08h42.48.835,HF_wild_card,2022.2.4,Win32,59.5521677,63d79f249b2729d9dd3c48ce,64d2fd46c836a06233681665,64dc7de57aadb8a0fe86dec2,,,,,,,ctch,resources/DY.BMP,resources/DR.BMP,Door3,0.364814843,-0.062037065,1,0,0,0.9134,optionRight,70,10450,5,15,0,15,0,1,,,,,,,,,,,,,,,,,,,,,,,,,,,,,,,,,,,,,,,
,,,,,,,,2023-08-16_08h42.48.835,HF_wild_card,2022.2.4,Win32,59.5521677,63d79f249b2729d9dd3c48ce,64d2fd46c836a06233681665,64dc7de57aadb8a0fe86dec2,,,,,,,decisionTrl,resources/DR.BMP,resources/DG.BMP,Door4,0.371296353,-0.037962977,1,0,0,1.5142,optionRight,60,10510,5,16,0,16,0,1,,,,,,,,,,,,,,,,,,,,,,,,,,,,,,,,,,,,,,,
,,,,,,,,2023-08-16_08h42.48.835,HF_wild_card,2022.2.4,Win32,59.5521677,63d79f249b2729d9dd3c48ce,64d2fd46c836a06233681665,64dc7de57aadb8a0fe86dec2,,,,,,,ctch,resources/DG.BMP,resources/DBN.BMP,Door4,-0.331481467,-0.073148176,1,0,0,1.0297,optionLeft,80,10590,5,17,0,17,0,1,,,,,,,,,,,,,,,,,,,,,,,,,,,,,,,,,,,,,,,
,,,,,,,,2023-08-16_08h42.48.835,HF_wild_card,2022.2.4,Win32,59.5521677,63d79f249b2729d9dd3c48ce,64d2fd46c836a06233681665,64dc7de57aadb8a0fe86dec2,,,,,,,sngl,resources/Empty.png,resources/DG.BMP,Door4,0.285185242,0.014814801,1,0,0,0.9258,optionRight,60,10650,5,18,0,18,0,1,,,,,,,,,,,,,,,,,,,,,,,,,,,,,,,,,,,,,,,
,,,,,,,,2023-08-16_08h42.48.835,HF_wild_card,2022.2.4,Win32,59.5521677,63d79f249b2729d9dd3c48ce,64d2fd46c836a06233681665,64dc7de57aadb8a0fe86dec2,,,,,,,sngl,resources/DB.BMP,resources/Empty.png,WildCard_NonEx,-0.298148134,-0.05,1,0,0,0.9303,optionLeft,45,10695,5,19,0,19,0,1,,,,,,,,,,,,,,,,,,,,,,,,,,,,,,,,,,,,,,,
,,,,,,,,2023-08-16_08h42.48.835,HF_wild_card,2022.2.4,Win32,59.5521677,63d79f249b2729d9dd3c48ce,64d2fd46c836a06233681665,64dc7de57aadb8a0fe86dec2,,,,,,,decisionTrl,resources/DG.BMP,resources/DR.BMP,Door4,-0.211111111,0.011111111,1,0,0,2.028,optionLeft,60,10755,5,20,0,20,0,1,,,,,,,,,,,,,,,,,,,,,,,,,,,,,,,,,,,,,,,
,,,,,,,,2023-08-16_08h42.48.835,HF_wild_card,2022.2.4,Win32,59.5521677,63d79f249b2729d9dd3c48ce,64d2fd46c836a06233681665,64dc7de57aadb8a0fe86dec2,,,,,,,ctch,resources/DBN.BMP,resources/DG.BMP,Door4,0.334259288,-0.014814843,1,0,0,0.8978,optionRight,80,10835,5,21,0,21,0,1,,,,,,,,,,,,,,,,,,,,,,,,,,,,,,,,,,,,,,,
,,,,,,,,2023-08-16_08h42.48.835,HF_wild_card,2022.2.4,Win32,59.5521677,63d79f249b2729d9dd3c48ce,64d2fd46c836a06233681665,64dc7de57aadb8a0fe86dec2,,,,,,,decisionTrl,resources/DBN.BMP,resources/DY.BMP,Door1,-0.264814801,-0.037962977,1,0,0,1.5343,optionLeft,30,10865,5,22,0,22,0,1,,,,,,,,,,,,,,,,,,,,,,,,,,,,,,,,,,,,,,,
,,,,,,,,2023-08-16_08h42.48.835,HF_wild_card,2022.2.4,Win32,59.5521677,63d79f249b2729d9dd3c48ce,64d2fd46c836a06233681665,64dc7de57aadb8a0fe86dec2,,,,,,,decisionTrl,resources/DR.BMP,resources/DG.BMP,Door4,0.419444444,-0.077777778,1,0,0,1.8943,optionRight,60,10925,5,23,0,23,0,1,,,,,,,,,,,,,,,,,,,,,,,,,,,,,,,,,,,,,,,
,,,,,,,,2023-08-16_08h42.48.835,HF_wild_card,2022.2.4,Win32,59.5521677,63d79f249b2729d9dd3c48ce,64d2fd46c836a06233681665,64dc7de57aadb8a0fe86dec2,,,,,,,ctch,resources/DR.BMP,resources/DY.BMP,Door3,-0.341666667,-0.062962977,1,0,0,0.714,optionLeft,70,10995,5,24,0,24,0,1,,,,,,,,,,,,,,,,,,,,,,,,,,,,,,,,,,,,,,,
,,,,,,,,2023-08-16_08h42.48.835,HF_wild_card,2022.2.4,Win32,59.5521677,63d79f249b2729d9dd3c48ce,64d2fd46c836a06233681665,64dc7de57aadb8a0fe86dec2,,,,,,,sngl,resources/DB.BMP,resources/Empty.png,WildCard_NonEx,-0.281481467,-0.062037065,1,0,0,0.764,optionLeft,55,11050,5,25,0,25,0,1,,,,,,,,,,,,,,,,,,,,,,,,,,,,,,,,,,,,,,,
,,,,,,,,2023-08-16_08h42.48.835,HF_wild_card,2022.2.4,Win32,59.5521677,63d79f249b2729d9dd3c48ce,64d2fd46c836a06233681665,64dc7de57aadb8a0fe86dec2,,,,,,,decisionTrl,resources/DB.BMP,resources/DY.BMP,WildCard_NonEx,-0.260185157,-0.058333333,1,0,0,1.2138,optionLeft,55,11105,5,26,0,26,0,1,,,,,,,,,,,,,,,,,,,,,,,,,,,,,,,,,,,,,,,
,,,,,,,,2023-08-16_08h42.48.835,HF_wild_card,2022.2.4,Win32,59.5521677,63d79f249b2729d9dd3c48ce,64d2fd46c836a06233681665,64dc7de57aadb8a0fe86dec2,,,,,,,sngl,resources/Empty.png,resources/DB.BMP,WildCard_NonEx,0.400925954,-0.035185199,1,0,0,0.7319,optionRight,55,11160,5,27,0,27,0,1,,,,,,,,,,,,,,,,,,,,,,,,,,,,,,,,,,,,,,,
,,,,,,,,2023-08-16_08h42.48.835,HF_wild_card,2022.2.4,Win32,59.5521677,63d79f249b2729d9dd3c48ce,64d2fd46c836a06233681665,64dc7de57aadb8a0fe86dec2,,,,,,,decisionTrl,resources/DG.BMP,resources/DB.BMP,Door4,-0.307407379,-0.040740755,1,0,0,1.8792,optionLeft,60,11220,5,28,0,28,0,1,,,,,,,,,,,,,,,,,,,,,,,,,,,,,,,,,,,,,,,
,,,,,,,,2023-08-16_08h42.48.835,HF_wild_card,2022.2.4,Win32,59.5521677,63d79f249b2729d9dd3c48ce,64d2fd46c836a06233681665,64dc7de57aadb8a0fe86dec2,,,,,,,decisionTrl,resources/DG.BMP,resources/DR.BMP,Door4,-0.237962935,-0.019444444,1,0,0,1.8116,optionLeft,60,11280,5,29,0,29,0,1,,,,,,,,,,,,,,,,,,,,,,,,,,,,,,,,,,,,,,,
,,,,,,,,2023-08-16_08h42.48.835,HF_wild_card,2022.2.4,Win32,59.5521677,63d79f249b2729d9dd3c48ce,64d2fd46c836a06233681665,64dc7de57aadb8a0fe86dec2,,,,,,,sngl,resources/Empty.png,resources/DY.BMP,Door2,0.364814843,-0.014814843,1,0,0,0.7819,optionRight,20,11300,5,30,0,30,0,1,,,,,,,,,,,,,,,,,,,,,,,,,,,,,,,,,,,,,,,
,,,,,,,,2023-08-16_08h42.48.835,HF_wild_card,2022.2.4,Win32,59.5521677,63d79f249b2729d9dd3c48ce,64d2fd46c836a06233681665,64dc7de57aadb8a0fe86dec2,,,,,,,ctch,resources/DG.BMP,resources/DBN.BMP,Door4,-0.304629601,-0.063888889,1,0,0,0.9655,optionLeft,80,11380,5,31,0,31,0,1,,,,,,,,,,,,,,,,,,,,,,,,,,,,,,,,,,,,,,,
,,,,,,,,2023-08-16_08h42.48.835,HF_wild_card,2022.2.4,Win32,59.5521677,63d79f249b2729d9dd3c48ce,64d2fd46c836a06233681665,64dc7de57aadb8a0fe86dec2,,,,,,,ctch,resources/DY.BMP,resources/DR.BMP,Door3,0.363888889,0.009259245,1,0,0,0.8435,optionRight,70,11450,5,32,0,32,0,1,,,,,,,,,,,,,,,,,,,,,,,,,,,,,,,,,,,,,,,
,,,,,,,,2023-08-16_08h42.48.835,HF_wild_card,2022.2.4,Win32,59.5521677,63d79f249b2729d9dd3c48ce,64d2fd46c836a06233681665,64dc7de57aadb8a0fe86dec2,,,,,,,decisionTrl,resources/DB.BMP,resources/DR.BMP,Door3,0.387037065,-0.060185199,1,0,0,0.8342,optionRight,70,11520,5,33,0,33,0,1,,,,,,,,,,,,,,,,,,,,,,,,,,,,,,,,,,,,,,,
,,,,,,,,2023-08-16_08h42.48.835,HF_wild_card,2022.2.4,Win32,59.5521677,63d79f249b2729d9dd3c48ce,64d2fd46c836a06233681665,64dc7de57aadb8a0fe86dec2,,,,,,,decisionTrl,resources/DY.BMP,resources/DBN.BMP,Door1,0.319444444,-0.012037065,1,0,0,1.8302,optionRight,30,11550,5,34,0,34,0,1,,,,,,,,,,,,,,,,,,,,,,,,,,,,,,,,,,,,,,,
,,,,,,,,2023-08-16_08h42.48.835,HF_wild_card,2022.2.4,Win32,59.5521677,63d79f249b2729d9dd3c48ce,64d2fd46c836a06233681665,64dc7de57aadb8a0fe86dec2,,,,,,,decisionTrl,resources/DR.BMP,resources/DG.BMP,Door3,-0.24351849,-0.053703732,1,0,0,1.6904,optionLeft,70,11620,5,35,0,35,0,1,,,,,,,,,,,,,,,,,,,,,,,,,,,,,,,,,,,,,,,
,,,,,,,,2023-08-16_08h42.48.835,HF_wild_card,2022.2.4,Win32,59.5521677,63d79f249b2729d9dd3c48ce,64d2fd46c836a06233681665,64dc7de57aadb8a0fe86dec2,,,,,,,decisionTrl,resources/DY.BMP,resources/DBN.BMP,Door1,0.287963019,0.027777778,1,0,0,1.3458,optionRight,30,11650,5,36,0,36,0,1,,,,,,,,,,,,,,,,,,,,,,,,,,,,,,,,,,,,,,,
,,,,,,,,2023-08-16_08h42.48.835,HF_wild_card,2022.2.4,Win32,59.5521677,63d79f249b2729d9dd3c48ce,64d2fd46c836a06233681665,64dc7de57aadb8a0fe86dec2,,,,,,,sngl,resources/Empty.png,resources/DBN.BMP,Door1,0.337963019,-0.023148176,1,0,0,0.7662,optionRight,30,11680,5,37,0,37,0,1,,,,,,,,,,,,,,,,,,,,,,,,,,,,,,,,,,,,,,,
,,,,,,,,2023-08-16_08h42.48.835,HF_wild_card,2022.2.4,Win32,59.5521677,63d79f249b2729d9dd3c48ce,64d2fd46c836a06233681665,64dc7de57aadb8a0fe86dec2,,,,,,,sngl,resources/DG.BMP,resources/Empty.png,Door4,-0.362037023,-0.001851866,1,0,0,0.762,optionLeft,80,11760,5,38,0,38,0,1,,,,,,,,,,,,,,,,,,,,,,,,,,,,,,,,,,,,,,,
,,,,,,,,2023-08-16_08h42.48.835,HF_wild_card,2022.2.4,Win32,59.5521677,63d79f249b2729d9dd3c48ce,64d2fd46c836a06233681665,64dc7de57aadb8a0fe86dec2,,,,,,,decisionTrl,resources/DG.BMP,resources/DR.BMP,Door3,0.344444444,-0.020370399,1,0,0,1.2635,optionRight,70,11830,5,39,0,39,0,1,,,,,,,,,,,,,,,,,,,,,,,,,,,,,,,,,,,,,,,
,,,,,,,,2023-08-16_08h42.48.835,HF_wild_card,2022.2.4,Win32,59.5521677,63d79f249b2729d9dd3c48ce,64d2fd46c836a06233681665,64dc7de57aadb8a0fe86dec2,,,,,,,sngl,resources/DY.BMP,resources/Empty.png,Door2,-0.325925912,0.00370369,1,0,0,0.7799,optionLeft,40,11870,5,40,0,40,0,1,,,,,,,,,,,,,,,,,,,,,,,,,,,,,,,,,,,,,,,
,,,,,,,,2023-08-16_08h42.48.835,HF_wild_card,2022.2.4,Win32,59.5521677,63d79f249b2729d9dd3c48ce,64d2fd46c836a06233681665,64dc7de57aadb8a0fe86dec2,,,,,,,decisionTrl,resources/DR.BMP,resources/DG.BMP,Door4,0.313888889,-0.033333333,1,0,0,1.3936,optionRight,80,11950,5,41,0,41,0,1,,,,,,,,,,,,,,,,,,,,,,,,,,,,,,,,,,,,,,,
,,,,,,,,2023-08-16_08h42.48.835,HF_wild_card,2022.2.4,Win32,59.5521677,63d79f249b2729d9dd3c48ce,64d2fd46c836a06233681665,64dc7de57aadb8a0fe86dec2,,,,,,,decisionTrl,resources/DY.BMP,resources/DBN.BMP,Door2,-0.30370369,-0.014814843,1,0,0,0.9628,optionLeft,20,11970,5,42,0,42,0,1,,,,,,,,,,,,,,,,,,,,,,,,,,,,,,,,,,,,,,,
,,,,,,,,2023-08-16_08h42.48.835,HF_wild_card,2022.2.4,Win32,59.5521677,63d79f249b2729d9dd3c48ce,64d2fd46c836a06233681665,64dc7de57aadb8a0fe86dec2,,,,,,,decisionTrl,resources/DY.BMP,resources/DBN.BMP,Door1,0.348148176,-0.010185199,1,0,0,0.9814,optionRight,30,12000,5,43,0,43,0,1,,,,,,,,,,,,,,,,,,,,,,,,,,,,,,,,,,,,,,,
,,,,,,,,2023-08-16_08h42.48.835,HF_wild_card,2022.2.4,Win32,59.5521677,63d79f249b2729d9dd3c48ce,64d2fd46c836a06233681665,64dc7de57aadb8a0fe86dec2,,,,,,,,,,,,,,,,,,,,,,,,,,4,0,4,0,1,,,,,,,,,,,,,,,,,,,,,,,,,,,,,,,,,,
,,,,,,,,2023-08-16_08h42.48.835,HF_wild_card,2022.2.4,Win32,59.5521677,63d79f249b2729d9dd3c48ce,64d2fd46c836a06233681665,64dc7de57aadb8a0fe86dec2,,,,,,,decisionTrl,resources/DG.BMP,resources/DR.BMP,Door4,-0.267592578,-0.052777778,1,0,0,1.4405,optionLeft,60,12060,6,0,0,0,0,1,,,,,,,,,,,,,,,,,,,,,,,,,,,,,,,,,,,,,,,
,,,,,,,,2023-08-16_08h42.48.835,HF_wild_card,2022.2.4,Win32,59.5521677,63d79f249b2729d9dd3c48ce,64d2fd46c836a06233681665,64dc7de57aadb8a0fe86dec2,,,,,,,ctch,resources/DG.BMP,resources/DBN.BMP,Door4,-0.262962935,-0.048148176,1,0,0,0.846,optionLeft,60,12120,6,1,0,1,0,1,,,,,,,,,,,,,,,,,,,,,,,,,,,,,,,,,,,,,,,
,,,,,,,,2023-08-16_08h42.48.835,HF_wild_card,2022.2.4,Win32,59.5521677,63d79f249b2729d9dd3c48ce,64d2fd46c836a06233681665,64dc7de57aadb8a0fe86dec2,,,,,,,decisionTrl,resources/DY.BMP,resources/DBN.BMP,Door2,-0.298148134,-0.019444444,1,0,0,2.0306,optionLeft,40,12160,6,2,0,2,0,1,,,,,,,,,,,,,,,,,,,,,,,,,,,,,,,,,,,,,,,
,,,,,,,,2023-08-16_08h42.48.835,HF_wild_card,2022.2.4,Win32,59.5521677,63d79f249b2729d9dd3c48ce,64d2fd46c836a06233681665,64dc7de57aadb8a0fe86dec2,,,,,,,ctch,resources/DBN.BMP,resources/DG.BMP,Door4,0.394444444,-0.011111111,1,0,0,1.0306,optionRight,80,12240,6,3,0,3,0,1,,,,,,,,,,,,,,,,,,,,,,,,,,,,,,,,,,,,,,,
,,,,,,,,2023-08-16_08h42.48.835,HF_wild_card,2022.2.4,Win32,59.5521677,63d79f249b2729d9dd3c48ce,64d2fd46c836a06233681665,64dc7de57aadb8a0fe86dec2,,,,,,,decisionTrl,resources/DB.BMP,resources/DBN.BMP,WildCard_NonEx,-0.26851849,-0.037962977,1,0,0,0.8646,optionLeft,45,12285,6,4,0,4,0,1,,,,,,,,,,,,,,,,,,,,,,,,,,,,,,,,,,,,,,,
,,,,,,,,2023-08-16_08h42.48.835,HF_wild_card,2022.2.4,Win32,59.5521677,63d79f249b2729d9dd3c48ce,64d2fd46c836a06233681665,64dc7de57aadb8a0fe86dec2,,,,,,,sngl,resources/DR.BMP,resources/Empty.png,Door3,-0.351851824,-0.074074088,1,0,0,0.6824,optionLeft,70,12355,6,5,0,5,0,1,,,,,,,,,,,,,,,,,,,,,,,,,,,,,,,,,,,,,,,
,,,,,,,,2023-08-16_08h42.48.835,HF_wild_card,2022.2.4,Win32,59.5521677,63d79f249b2729d9dd3c48ce,64d2fd46c836a06233681665,64dc7de57aadb8a0fe86dec2,,,,,,,decisionTrl,resources/DB.BMP,resources/DG.BMP,Door4,0.373148176,-0.014814843,1,0,0,2.3083,optionRight,60,12415,6,6,0,6,0,1,,,,,,,,,,,,,,,,,,,,,,,,,,,,,,,,,,,,,,,
,,,,,,,,2023-08-16_08h42.48.835,HF_wild_card,2022.2.4,Win32,59.5521677,63d79f249b2729d9dd3c48ce,64d2fd46c836a06233681665,64dc7de57aadb8a0fe86dec2,,,,,,,decisionTrl,resources/DG.BMP,resources/DR.BMP,Door4,-0.308333333,-0.005555556,1,0,0,1.8805,optionLeft,80,12495,6,7,0,7,0,1,,,,,,,,,,,,,,,,,,,,,,,,,,,,,,,,,,,,,,,
,,,,,,,,2023-08-16_08h42.48.835,HF_wild_card,2022.2.4,Win32,59.5521677,63d79f249b2729d9dd3c48ce,64d2fd46c836a06233681665,64dc7de57aadb8a0fe86dec2,,,,,,,sngl,resources/DG.BMP,resources/Empty.png,Door4,-0.239814801,-0.036111111,1,0,0,0.7815,optionLeft,60,12555,6,8,0,8,0,1,,,,,,,,,,,,,,,,,,,,,,,,,,,,,,,,,,,,,,,
,,,,,,,,2023-08-16_08h42.48.835,HF_wild_card,2022.2.4,Win32,59.5521677,63d79f249b2729d9dd3c48ce,64d2fd46c836a06233681665,64dc7de57aadb8a0fe86dec2,,,,,,,decisionTrl,resources/DBN.BMP,resources/DY.BMP,Door1,-0.235185157,-0.012962977,1,0,0,1.5296,optionLeft,30,12585,6,9,0,9,0,1,,,,,,,,,,,,,,,,,,,,,,,,,,,,,,,,,,,,,,,
,,,,,,,,2023-08-16_08h42.48.835,HF_wild_card,2022.2.4,Win32,59.5521677,63d79f249b2729d9dd3c48ce,64d2fd46c836a06233681665,64dc7de57aadb8a0fe86dec2,,,,,,,sngl,resources/DB.BMP,resources/Empty.png,WildCard_NonEx,-0.300925912,-0.062037065,1,0,0,0.709,optionLeft,55,12640,6,10,0,10,0,1,,,,,,,,,,,,,,,,,,,,,,,,,,,,,,,,,,,,,,,
,,,,,,,,2023-08-16_08h42.48.835,HF_wild_card,2022.2.4,Win32,59.5521677,63d79f249b2729d9dd3c48ce,64d2fd46c836a06233681665,64dc7de57aadb8a0fe86dec2,,,,,,,sngl,resources/Empty.png,resources/DG.BMP,Door4,0.325925954,-0.037962977,1,0,0,0.8984,optionRight,80,12720,6,11,0,11,0,1,,,,,,,,,,,,,,,,,,,,,,,,,,,,,,,,,,,,,,,
,,,,,,,,2023-08-16_08h42.48.835,HF_wild_card,2022.2.4,Win32,59.5521677,63d79f249b2729d9dd3c48ce,64d2fd46c836a06233681665,64dc7de57aadb8a0fe86dec2,,,,,,,decisionTrl,resources/DB.BMP,resources/DY.BMP,WildCard_NonEx,-0.265740712,-0.053703732,1,0,0,1.4151,optionLeft,45,12765,6,12,0,12,0,1,,,,,,,,,,,,,,,,,,,,,,,,,,,,,,,,,,,,,,,
,,,,,,,,2023-08-16_08h42.48.835,HF_wild_card,2022.2.4,Win32,59.5521677,63d79f249b2729d9dd3c48ce,64d2fd46c836a06233681665,64dc7de57aadb8a0fe86dec2,,,,,,,decisionTrl,resources/DR.BMP,resources/DG.BMP,Door3,-0.20370369,-0.044444444,1,0,0,1.1634,optionLeft,70,12835,6,13,0,13,0,1,,,,,,,,,,,,,,,,,,,,,,,,,,,,,,,,,,,,,,,
,,,,,,,,2023-08-16_08h42.48.835,HF_wild_card,2022.2.4,Win32,59.5521677,63d79f249b2729d9dd3c48ce,64d2fd46c836a06233681665,64dc7de57aadb8a0fe86dec2,,,,,,,sngl,resources/DB.BMP,resources/Empty.png,WildCard_NonEx,-0.367592578,-0.069444444,1,0,0,0.948,optionLeft,45,12880,6,14,0,14,0,1,,,,,,,,,,,,,,,,,,,,,,,,,,,,,,,,,,,,,,,
,,,,,,,,2023-08-16_08h42.48.835,HF_wild_card,2022.2.4,Win32,59.5521677,63d79f249b2729d9dd3c48ce,64d2fd46c836a06233681665,64dc7de57aadb8a0fe86dec2,,,,,,,ctch,resources/DR.BMP,resources/DY.BMP,Door3,-0.279629601,-0.033333333,1,0,0,0.7975,optionLeft,70,12950,6,15,0,15,0,1,,,,,,,,,,,,,,,,,,,,,,,,,,,,,,,,,,,,,,,
,,,,,,,,2023-08-16_08h42.48.835,HF_wild_card,2022.2.4,Win32,59.5521677,63d79f249b2729d9dd3c48ce,64d2fd46c836a06233681665,64dc7de57aadb8a0fe86dec2,,,,,,,decisionTrl,resources/DY.BMP,resources/DBN.BMP,Door1,0.290740797,-0.011111111,1,0,0,1.9644,optionRight,30,12980,6,16,0,16,0,1,,,,,,,,,,,,,,,,,,,,,,,,,,,,,,,,,,,,,,,
,,,,,,,,2023-08-16_08h42.48.835,HF_wild_card,2022.2.4,Win32,59.5521677,63d79f249b2729d9dd3c48ce,64d2fd46c836a06233681665,64dc7de57aadb8a0fe86dec2,,,,,,,sngl,resources/Empty.png,resources/DB.BMP,WildCard_NonEx,0.307407464,-0.040740755,1,0,0,0.7648,optionRight,55,13035,6,17,0,17,0,1,,,,,,,,,,,,,,,,,,,,,,,,,,,,,,,,,,,,,,,
,,,,,,,,2023-08-16_08h42.48.835,HF_wild_card,2022.2.4,Win32,59.5521677,63d79f249b2729d9dd3c48ce,64d2fd46c836a06233681665,64dc7de57aadb8a0fe86dec2,,,,,,,decisionTrl,resources/DB.BMP,resources/DR.BMP,Door3,0.374074131,-0.037962977,1,0,0,1.1489,optionRight,70,13105,6,18,0,18,0,1,,,,,,,,,,,,,,,,,,,,,,,,,,,,,,,,,,,,,,,
,,,,,,,,2023-08-16_08h42.48.835,HF_wild_card,2022.2.4,Win32,59.5521677,63d79f249b2729d9dd3c48ce,64d2fd46c836a06233681665,64dc7de57aadb8a0fe86dec2,,,,,,,decisionTrl,resources/DBN.BMP,resources/DY.BMP,Door1,-0.26851849,-0.003703732,1,0,0,2.0982,optionLeft,30,13135,6,19,0,19,0,1,,,,,,,,,,,,,,,,,,,,,,,,,,,,,,,,,,,,,,,
,,,,,,,,2023-08-16_08h42.48.835,HF_wild_card,2022.2.4,Win32,59.5521677,63d79f249b2729d9dd3c48ce,64d2fd46c836a06233681665,64dc7de57aadb8a0fe86dec2,,,,,,,ctch,resources/DR.BMP,resources/DY.BMP,Door3,-0.262962935,-0.037037065,1,0,0,0.8093,optionLeft,70,13205,6,20,0,20,0,1,,,,,,,,,,,,,,,,,,,,,,,,,,,,,,,,,,,,,,,
,,,,,,,,2023-08-16_08h42.48.835,HF_wild_card,2022.2.4,Win32,59.5521677,63d79f249b2729d9dd3c48ce,64d2fd46c836a06233681665,64dc7de57aadb8a0fe86dec2,,,,,,,decisionTrl,resources/DR.BMP,resources/DG.BMP,Door4,0.312037065,-0.039814843,1,0,0,1.6305,optionRight,60,13265,6,21,0,21,0,1,,,,,,,,,,,,,,,,,,,,,,,,,,,,,,,,,,,,,,,
,,,,,,,,2023-08-16_08h42.48.835,HF_wild_card,2022.2.4,Win32,59.5521677,63d79f249b2729d9dd3c48ce,64d2fd46c836a06233681665,64dc7de57aadb8a0fe86dec2,,,,,,,decisionTrl,resources/DY.BMP,resources/DBN.BMP,Door2,-0.205555556,-0.051851866,1,0,0,1.3947,optionLeft,20,13285,6,22,0,22,0,1,,,,,,,,,,,,,,,,,,,,,,,,,,,,,,,,,,,,,,,
,,,,,,,,2023-08-16_08h42.48.835,HF_wild_card,2022.2.4,Win32,59.5521677,63d79f249b2729d9dd3c48ce,64d2fd46c836a06233681665,64dc7de57aadb8a0fe86dec2,,,,,,,decisionTrl,resources/DBN.BMP,resources/DY.BMP,Door1,-0.288888889,-0.077777778,1,0,0,1.0631,optionLeft,30,13315,6,23,0,23,0,1,,,,,,,,,,,,,,,,,,,,,,,,,,,,,,,,,,,,,,,
,,,,,,,,2023-08-16_08h42.48.835,HF_wild_card,2022.2.4,Win32,59.5521677,63d79f249b2729d9dd3c48ce,64d2fd46c836a06233681665,64dc7de57aadb8a0fe86dec2,,,,,,,sngl,resources/Empty.png,resources/DR.BMP,Door3,0.367592621,-0.025,1,0,0,0.7982,optionRight,70,13385,6,24,0,24,0,1,,,,,,,,,,,,,,,,,,,,,,,,,,,,,,,,,,,,,,,
,,,,,,,,2023-08-16_08h42.48.835,HF_wild_card,2022.2.4,Win32,59.5521677,63d79f249b2729d9dd3c48ce,64d2fd46c836a06233681665,64dc7de57aadb8a0fe86dec2,,,,,,,sngl,resources/Empty.png,resources/DY.BMP,Door2,0.35,-0.012037065,1,0,0,0.7827,optionRight,40,13425,6,25,0,25,0,1,,,,,,,,,,,,,,,,,,,,,,,,,,,,,,,,,,,,,,,
,,,,,,,,2023-08-16_08h42.48.835,HF_wild_card,2022.2.4,Win32,59.5521677,63d79f249b2729d9dd3c48ce,64d2fd46c836a06233681665,64dc7de57aadb8a0fe86dec2,,,,,,,decisionTrl,resources/DG.BMP,resources/DB.BMP,Door4,-0.264814801,-0.057407422,1,0,0,1.0821,optionLeft,60,13485,6,26,0,26,0,1,,,,,,,,,,,,,,,,,,,,,,,,,,,,,,,,,,,,,,,
,,,,,,,,2023-08-16_08h42.48.835,HF_wild_card,2022.2.4,Win32,59.5521677,63d79f249b2729d9dd3c48ce,64d2fd46c836a06233681665,64dc7de57aadb8a0fe86dec2,,,,,,,decisionTrl,resources/DG.BMP,resources/DR.BMP,Door4,-0.25370369,-0.028703732,1,0,0,1.281,optionLeft,60,13545,6,27,0,27,0,1,,,,,,,,,,,,,,,,,,,,,,,,,,,,,,,,,,,,,,,
,,,,,,,,2023-08-16_08h42.48.835,HF_wild_card,2022.2.4,Win32,59.5521677,63d79f249b2729d9dd3c48ce,64d2fd46c836a06233681665,64dc7de57aadb8a0fe86dec2,,,,,,,decisionTrl,resources/DG.BMP,resources/DR.BMP,Door4,-0.217592578,-0.011111111,1,0,0,1.5652,optionLeft,80,13625,6,28,0,28,0,1,,,,,,,,,,,,,,,,,,,,,,,,,,,,,,,,,,,,,,,
,,,,,,,,2023-08-16_08h42.48.835,HF_wild_card,2022.2.4,Win32,59.5521677,63d79f249b2729d9dd3c48ce,64d2fd46c836a06233681665,64dc7de57aadb8a0fe86dec2,,,,,,,ctch,resources/DG.BMP,resources/DBN.BMP,Door4,-0.254629601,-0.075,1,0,0,0.8001,optionLeft,80,13705,6,29,0,29,0,1,,,,,,,,,,,,,,,,,,,,,,,,,,,,,,,,,,,,,,,
,,,,,,,,2023-08-16_08h42.48.835,HF_wild_card,2022.2.4,Win32,59.5521677,63d79f249b2729d9dd3c48ce,64d2fd46c836a06233681665,64dc7de57aadb8a0fe86dec2,,,,,,,decisionTrl,resources/DBN.BMP,resources/DY.BMP,Door1,-0.234259245,-0.063888889,1,0,0,1.5428,optionLeft,30,13735,6,30,0,30,0,1,,,,,,,,,,,,,,,,,,,,,,,,,,,,,,,,,,,,,,,
,,,,,,,,2023-08-16_08h42.48.835,HF_wild_card,2022.2.4,Win32,59.5521677,63d79f249b2729d9dd3c48ce,64d2fd46c836a06233681665,64dc7de57aadb8a0fe86dec2,,,,,,,ctch,resources/DBN.BMP,resources/DG.BMP,Door4,0.375,-0.048148176,1,0,0,0.9164,optionRight,60,13795,6,31,0,31,0,1,,,,,,,,,,,,,,,,,,,,,,,,,,,,,,,,,,,,,,,
,,,,,,,,2023-08-16_08h42.48.835,HF_wild_card,2022.2.4,Win32,59.5521677,63d79f249b2729d9dd3c48ce,64d2fd46c836a06233681665,64dc7de57aadb8a0fe86dec2,,,,,,,sngl,resources/DY.BMP,resources/Empty.png,Door2,-0.3,-0.044444444,1,0,0,0.7526,optionLeft,20,13815,6,32,0,32,0,1,,,,,,,,,,,,,,,,,,,,,,,,,,,,,,,,,,,,,,,
,,,,,,,,2023-08-16_08h42.48.835,HF_wild_card,2022.2.4,Win32,59.5521677,63d79f249b2729d9dd3c48ce,64d2fd46c836a06233681665,64dc7de57aadb8a0fe86dec2,,,,,,,decisionTrl,resources/DY.BMP,resources/DBN.BMP,Door1,0.328703732,-0.045370399,1,0,0,1.1634,optionRight,30,13845,6,33,0,33,0,1,,,,,,,,,,,,,,,,,,,,,,,,,,,,,,,,,,,,,,,
,,,,,,,,2023-08-16_08h42.48.835,HF_wild_card,2022.2.4,Win32,59.5521677,63d79f249b2729d9dd3c48ce,64d2fd46c836a06233681665,64dc7de57aadb8a0fe86dec2,,,,,,,ctch,resources/DY.BMP,resources/DR.BMP,Door3,0.348148176,-0.065740755,1,0,0,0.9264,optionRight,70,13915,6,34,0,34,0,1,,,,,,,,,,,,,,,,,,,,,,,,,,,,,,,,,,,,,,,
,,,,,,,,2023-08-16_08h42.48.835,HF_wild_card,2022.2.4,Win32,59.5521677,63d79f249b2729d9dd3c48ce,64d2fd46c836a06233681665,64dc7de57aadb8a0fe86dec2,,,,,,,sngl,resources/Empty.png,resources/DB.BMP,WildCard_NonEx,0.362963019,-0.067592621,1,0,0,0.7799,optionRight,45,13960,6,35,0,35,0,1,,,,,,,,,,,,,,,,,,,,,,,,,,,,,,,,,,,,,,,
,,,,,,,,2023-08-16_08h42.48.835,HF_wild_card,2022.2.4,Win32,59.5521677,63d79f249b2729d9dd3c48ce,64d2fd46c836a06233681665,64dc7de57aadb8a0fe86dec2,,,,,,,decisionTrl,resources/DR.BMP,resources/DG.BMP,Door3,-0.275,-0.074074088,1,0,0,1.3146,optionLeft,70,14030,6,36,0,36,0,1,,,,,,,,,,,,,,,,,,,,,,,,,,,,,,,,,,,,,,,
,,,,,,,,2023-08-16_08h42.48.835,HF_wild_card,2022.2.4,Win32,59.5521677,63d79f249b2729d9dd3c48ce,64d2fd46c836a06233681665,64dc7de57aadb8a0fe86dec2,,,,,,,ctch,resources/DY.BMP,resources/DR.BMP,Door3,0.370370399,0.01851849,1,0,0,0.7989,optionRight,70,14100,6,37,0,37,0,1,,,,,,,,,,,,,,,,,,,,,,,,,,,,,,,,,,,,,,,
,,,,,,,,2023-08-16_08h42.48.835,HF_wild_card,2022.2.4,Win32,59.5521677,63d79f249b2729d9dd3c48ce,64d2fd46c836a06233681665,64dc7de57aadb8a0fe86dec2,,,,,,,decisionTrl,resources/DR.BMP,resources/DB.BMP,Door3,-0.256481467,-0.028703732,1,0,0,0.7919,optionLeft,70,14170,6,38,0,38,0,1,,,,,,,,,,,,,,,,,,,,,,,,,,,,,,,,,,,,,,,
,,,,,,,,2023-08-16_08h42.48.835,HF_wild_card,2022.2.4,Win32,59.5521677,63d79f249b2729d9dd3c48ce,64d2fd46c836a06233681665,64dc7de57aadb8a0fe86dec2,,,,,,,decisionTrl,resources/DBN.BMP,resources/DB.BMP,WildCard_NonEx,0.340740797,-0.034259288,1,0,0,1.6812,optionRight,45,14215,6,39,0,39,0,1,,,,,,,,,,,,,,,,,,,,,,,,,,,,,,,,,,,,,,,
,,,,,,,,2023-08-16_08h42.48.835,HF_wild_card,2022.2.4,Win32,59.5521677,63d79f249b2729d9dd3c48ce,64d2fd46c836a06233681665,64dc7de57aadb8a0fe86dec2,,,,,,,sngl,resources/DBN.BMP,resources/Empty.png,Door1,-0.205555556,-0.013888889,1,0,0,0.8268,optionLeft,30,14245,6,40,0,40,0,1,,,,,,,,,,,,,,,,,,,,,,,,,,,,,,,,,,,,,,,
,,,,,,,,2023-08-16_08h42.48.835,HF_wild_card,2022.2.4,Win32,59.5521677,63d79f249b2729d9dd3c48ce,64d2fd46c836a06233681665,64dc7de57aadb8a0fe86dec2,,,,,,,sngl,resources/Empty.png,resources/DBN.BMP,Door1,0.347222222,-0.041666667,1,0,0,0.6812,optionRight,30,14275,6,41,0,41,0,1,,,,,,,,,,,,,,,,,,,,,,,,,,,,,,,,,,,,,,,
,,,,,,,,2023-08-16_08h42.48.835,HF_wild_card,2022.2.4,Win32,59.5521677,63d79f249b2729d9dd3c48ce,64d2fd46c836a06233681665,64dc7de57aadb8a0fe86dec2,,,,,,,decisionTrl,resources/DY.BMP,resources/DB.BMP,WildCard_NonEx,0.3,-0.055555556,1,0,0,0.8793,optionRight,55,14330,6,42,0,42,0,1,,,,,,,,,,,,,,,,,,,,,,,,,,,,,,,,,,,,,,,
,,,,,,,,2023-08-16_08h42.48.835,HF_wild_card,2022.2.4,Win32,59.5521677,63d79f249b2729d9dd3c48ce,64d2fd46c836a06233681665,64dc7de57aadb8a0fe86dec2,,,,,,,decisionTrl,resources/DR.BMP,resources/DG.BMP,Door3,-0.286111111,-0.069444444,1,0,0,2.1789,optionLeft,70,14400,6,43,0,43,0,1,,,,,,,,,,,,,,,,,,,,,,,,,,,,,,,,,,,,,,,
,,,,,,,,2023-08-16_08h42.48.835,HF_wild_card,2022.2.4,Win32,59.5521677,63d79f249b2729d9dd3c48ce,64d2fd46c836a06233681665,64dc7de57aadb8a0fe86dec2,,,,,,,,,,,,,,,,,,,,,,,,,,5,0,5,0,1,,,,,,,,,,,,,,,,,,,,,,,,,,,,,,,,,,
,,,,,,,,2023-08-16_08h42.48.835,HF_wild_card,2022.2.4,Win32,59.5521677,63d79f249b2729d9dd3c48ce,64d2fd46c836a06233681665,64dc7de57aadb8a0fe86dec2,,,,,,,decisionTrl,resources/DR.BMP,resources/DG.BMP,Door3,-0.363888889,-0.023148176,1,0,0,2.6788,optionLeft,70,14470,7,0,0,0,0,1,,,,,,,,,,,,,,,,,,,,,,,,,,,,,,,,,,,,,,,
,,,,,,,,2023-08-16_08h42.48.835,HF_wild_card,2022.2.4,Win32,59.5521677,63d79f249b2729d9dd3c48ce,64d2fd46c836a06233681665,64dc7de57aadb8a0fe86dec2,,,,,,,decisionTrl,resources/DBN.BMP,resources/DY.BMP,Door1,-0.284259245,0.009259245,1,0,0,1.6811,optionLeft,30,14500,7,1,0,1,0,1,,,,,,,,,,,,,,,,,,,,,,,,,,,,,,,,,,,,,,,
,,,,,,,,2023-08-16_08h42.48.835,HF_wild_card,2022.2.4,Win32,59.5521677,63d79f249b2729d9dd3c48ce,64d2fd46c836a06233681665,64dc7de57aadb8a0fe86dec2,,,,,,,decisionTrl,resources/DR.BMP,resources/DG.BMP,Door4,0.376851908,-0.02129631,1,0,0,2.8328,optionRight,80,14580,7,2,0,2,0,1,,,,,,,,,,,,,,,,,,,,,,,,,,,,,,,,,,,,,,,
,,,,,,,,2023-08-16_08h42.48.835,HF_wild_card,2022.2.4,Win32,59.5521677,63d79f249b2729d9dd3c48ce,64d2fd46c836a06233681665,64dc7de57aadb8a0fe86dec2,,,,,,,ctch,resources/DBN.BMP,resources/DG.BMP,Door4,0.370370399,-0.017592621,1,0,0,1.3993,optionRight,80,14660,7,3,0,3,0,1,,,,,,,,,,,,,,,,,,,,,,,,,,,,,,,,,,,,,,,
,,,,,,,,2023-08-16_08h42.48.835,HF_wild_card,2022.2.4,Win32,59.5521677,63d79f249b2729d9dd3c48ce,64d2fd46c836a06233681665,64dc7de57aadb8a0fe86dec2,,,,,,,decisionTrl,resources/DG.BMP,resources/DR.BMP,Door3,0.359259288,-0.027777778,1,0,0,4.2247,optionRight,70,14730,7,4,0,4,0,1,,,,,,,,,,,,,,,,,,,,,,,,,,,,,,,,,,,,,,,
,,,,,,,,2023-08-16_08h42.48.835,HF_wild_card,2022.2.4,Win32,59.5521677,63d79f249b2729d9dd3c48ce,64d2fd46c836a06233681665,64dc7de57aadb8a0fe86dec2,,,,,,,decisionTrl,resources/DG.BMP,resources/DR.BMP,Door3,0.350925954,-0.012037065,1,0,0,1.4653,optionRight,70,14800,7,5,0,5,0,1,,,,,,,,,,,,,,,,,,,,,,,,,,,,,,,,,,,,,,,
,,,,,,,,2023-08-16_08h42.48.835,HF_wild_card,2022.2.4,Win32,59.5521677,63d79f249b2729d9dd3c48ce,64d2fd46c836a06233681665,64dc7de57aadb8a0fe86dec2,,,,,,,ctch,resources/DR.BMP,resources/DY.BMP,Door3,-0.32870369,0.005555556,1,0,0,1.0318,optionLeft,70,14870,7,6,0,6,0,1,,,,,,,,,,,,,,,,,,,,,,,,,,,,,,,,,,,,,,,
,,,,,,,,2023-08-16_08h42.48.835,HF_wild_card,2022.2.4,Win32,59.5521677,63d79f249b2729d9dd3c48ce,64d2fd46c836a06233681665,64dc7de57aadb8a0fe86dec2,,,,,,,decisionTrl,resources/DY.BMP,resources/DBN.BMP,Door1,0.337037065,-0.024074088,1,0,0,1.2967,optionRight,30,14900,7,7,0,7,0,1,,,,,,,,,,,,,,,,,,,,,,,,,,,,,,,,,,,,,,,
,,,,,,,,2023-08-16_08h42.48.835,HF_wild_card,2022.2.4,Win32,59.5521677,63d79f249b2729d9dd3c48ce,64d2fd46c836a06233681665,64dc7de57aadb8a0fe86dec2,,,,,,,ctch,resources/DBN.BMP,resources/DG.BMP,Door4,0.387037065,-0.010185199,1,0,0,1.6807,optionRight,60,14960,7,8,0,8,0,1,,,,,,,,,,,,,,,,,,,,,,,,,,,,,,,,,,,,,,,
,,,,,,,,2023-08-16_08h42.48.835,HF_wild_card,2022.2.4,Win32,59.5521677,63d79f249b2729d9dd3c48ce,64d2fd46c836a06233681665,64dc7de57aadb8a0fe86dec2,,,,,,,decisionTrl,resources/DG.BMP,resources/DR.BMP,Door4,-0.362037023,-0.030555556,1,0,0,2.9245,optionLeft,60,15020,7,9,0,9,0,1,,,,,,,,,,,,,,,,,,,,,,,,,,,,,,,,,,,,,,,
,,,,,,,,2023-08-16_08h42.48.835,HF_wild_card,2022.2.4,Win32,59.5521677,63d79f249b2729d9dd3c48ce,64d2fd46c836a06233681665,64dc7de57aadb8a0fe86dec2,,,,,,,ctch,resources/DY.BMP,resources/DR.BMP,Door3,0.387037065,0.000925912,1,0,0,0.8163,optionRight,70,15090,7,10,0,10,0,1,,,,,,,,,,,,,,,,,,,,,,,,,,,,,,,,,,,,,,,
,,,,,,,,2023-08-16_08h42.48.835,HF_wild_card,2022.2.4,Win32,59.5521677,63d79f249b2729d9dd3c48ce,64d2fd46c836a06233681665,64dc7de57aadb8a0fe86dec2,,,,,,,decisionTrl,resources/DY.BMP,resources/DBN.BMP,Door1,0.498148176,-0.024074088,1,0,0,1.6297,optionRight,30,15120,7,11,0,11,0,1,,,,,,,,,,,,,,,,,,,,,,,,,,,,,,,,,,,,,,,
,,,,,,,,2023-08-16_08h42.48.835,HF_wild_card,2022.2.4,Win32,59.5521677,63d79f249b2729d9dd3c48ce,64d2fd46c836a06233681665,64dc7de57aadb8a0fe86dec2,,,,,,,ctch,resources/DG.BMP,resources/DBN.BMP,Door4,-0.325,-0.005555556,1,0,0,1.0605,optionLeft,80,15200,7,12,0,12,0,1,,,,,,,,,,,,,,,,,,,,,,,,,,,,,,,,,,,,,,,
,,,,,,,,2023-08-16_08h42.48.835,HF_wild_card,2022.2.4,Win32,59.5521677,63d79f249b2729d9dd3c48ce,64d2fd46c836a06233681665,64dc7de57aadb8a0fe86dec2,,,,,,,decisionTrl,resources/DG.BMP,resources/DR.BMP,Door3,0.346296353,-0.023148176,1,0,0,1.199,optionRight,70,15270,7,13,0,13,0,1,,,,,,,,,,,,,,,,,,,,,,,,,,,,,,,,,,,,,,,
,,,,,,,,2023-08-16_08h42.48.835,HF_wild_card,2022.2.4,Win32,59.5521677,63d79f249b2729d9dd3c48ce,64d2fd46c836a06233681665,64dc7de57aadb8a0fe86dec2,,,,,,,decisionTrl,resources/DR.BMP,resources/DG.BMP,Door3,-0.349074046,-0.039814843,1,0,0,2.0141,optionLeft,70,15340,7,14,0,14,0,1,,,,,,,,,,,,,,,,,,,,,,,,,,,,,,,,,,,,,,,
,,,,,,,,2023-08-16_08h42.48.835,HF_wild_card,2022.2.4,Win32,59.5521677,63d79f249b2729d9dd3c48ce,64d2fd46c836a06233681665,64dc7de57aadb8a0fe86dec2,,,,,,,ctch,resources/DR.BMP,resources/DY.BMP,Door3,-0.347222222,-0.024074088,1,0,0,0.8316,optionLeft,70,15410,7,15,0,15,0,1,,,,,,,,,,,,,,,,,,,,,,,,,,,,,,,,,,,,,,,
,,,,,,,,2023-08-16_08h42.48.835,HF_wild_card,2022.2.4,Win32,59.5521677,63d79f249b2729d9dd3c48ce,64d2fd46c836a06233681665,64dc7de57aadb8a0fe86dec2,,,,,,,decisionTrl,resources/DY.BMP,resources/DBN.BMP,Door1,0.369444444,0.012037023,1,0,0,1.3315,optionRight,30,15440,7,16,0,16,0,1,,,,,,,,,,,,,,,,,,,,,,,,,,,,,,,,,,,,,,,
,,,,,,,,2023-08-16_08h42.48.835,HF_wild_card,2022.2.4,Win32,59.5521677,63d79f249b2729d9dd3c48ce,64d2fd46c836a06233681665,64dc7de57aadb8a0fe86dec2,,,,,,,ctch,resources/DR.BMP,resources/DY.BMP,Door3,-0.31851849,-0.023148176,1,0,0,0.7992,optionLeft,70,15510,7,17,0,17,0,1,,,,,,,,,,,,,,,,,,,,,,,,,,,,,,,,,,,,,,,
,,,,,,,,2023-08-16_08h42.48.835,HF_wild_card,2022.2.4,Win32,59.5521677,63d79f249b2729d9dd3c48ce,64d2fd46c836a06233681665,64dc7de57aadb8a0fe86dec2,,,,,,,ctch,resources/DG.BMP,resources/DBN.BMP,Door4,-0.34351849,-0.05648151,1,0,0,1.0002,optionLeft,60,15570,7,18,0,18,0,1,,,,,,,,,,,,,,,,,,,,,,,,,,,,,,,,,,,,,,,
,,,,,,,,2023-08-16_08h42.48.835,HF_wild_card,2022.2.4,Win32,59.5521677,63d79f249b2729d9dd3c48ce,64d2fd46c836a06233681665,64dc7de57aadb8a0fe86dec2,,,,,,,decisionTrl,resources/DBN.BMP,resources/DY.BMP,Door2,0.375,-0.023148176,1,0,0,1.0656,optionRight,40,15610,7,19,0,19,0,1,,,,,,,,,,,,,,,,,,,,,,,,,,,,,,,,,,,,,,,
,,,,,,,,2023-08-16_08h42.48.835,HF_wild_card,2022.2.4,Win32,59.5521677,63d79f249b2729d9dd3c48ce,64d2fd46c836a06233681665,64dc7de57aadb8a0fe86dec2,,,,,,,decisionTrl,resources/DY.BMP,resources/DBN.BMP,Door1,0.362037065,0.001851824,1,0,0,0.8491,optionRight,30,15640,7,20,0,20,0,1,,,,,,,,,,,,,,,,,,,,,,,,,,,,,,,,,,,,,,,
,,,,,,,,2023-08-16_08h42.48.835,HF_wild_card,2022.2.4,Win32,59.5521677,63d79f249b2729d9dd3c48ce,64d2fd46c836a06233681665,64dc7de57aadb8a0fe86dec2,,,,,,,decisionTrl,resources/DBN.BMP,resources/DY.BMP,Door1,-0.276851824,-0.000925954,1,0,0,0.8834,optionLeft,30,15670,7,21,0,21,0,1,,,,,,,,,,,,,,,,,,,,,,,,,,,,,,,,,,,,,,,
,,,,,,,,2023-08-16_08h42.48.835,HF_wild_card,2022.2.4,Win32,59.5521677,63d79f249b2729d9dd3c48ce,64d2fd46c836a06233681665,64dc7de57aadb8a0fe86dec2,,,,,,,decisionTrl,resources/DG.BMP,resources/DR.BMP,Door4,-0.298148134,-0.044444444,1,0,0,1.8136,optionLeft,60,15730,7,22,0,22,0,1,,,,,,,,,,,,,,,,,,,,,,,,,,,,,,,,,,,,,,,
,,,,,,,,2023-08-16_08h42.48.835,HF_wild_card,2022.2.4,Win32,59.5521677,63d79f249b2729d9dd3c48ce,64d2fd46c836a06233681665,64dc7de57aadb8a0fe86dec2,,,,,,,decisionTrl,resources/DY.BMP,resources/DBN.BMP,Door1,0.441666667,0.05,1,0,0,1.9646,optionRight,30,15760,7,23,0,23,0,1,,,,,,,,,,,,,,,,,,,,,,,,,,,,,,,,,,,,,,,
,,,,,,,,2023-08-16_08h42.48.835,HF_wild_card,2022.2.4,Win32,59.5521677,63d79f249b2729d9dd3c48ce,64d2fd46c836a06233681665,64dc7de57aadb8a0fe86dec2,,,,,,,decisionTrl,resources/DG.BMP,resources/DR.BMP,Door3,0.417592621,0.012037023,1,0,0,0.8305,optionRight,70,15830,7,24,0,24,0,1,,,,,,,,,,,,,,,,,,,,,,,,,,,,,,,,,,,,,,,
,,,,,,,,2023-08-16_08h42.48.835,HF_wild_card,2022.2.4,Win32,59.5521677,63d79f249b2729d9dd3c48ce,64d2fd46c836a06233681665,64dc7de57aadb8a0fe86dec2,,,,,,,decisionTrl,resources/DR.BMP,resources/DG.BMP,Door3,-0.321296268,-0.017592621,1,0,0,0.9813,optionLeft,70,15900,7,25,0,25,0,1,,,,,,,,,,,,,,,,,,,,,,,,,,,,,,,,,,,,,,,
,,,,,,,,2023-08-16_08h42.48.835,HF_wild_card,2022.2.4,Win32,59.5521677,63d79f249b2729d9dd3c48ce,64d2fd46c836a06233681665,64dc7de57aadb8a0fe86dec2,,,,,,,decisionTrl,resources/DBN.BMP,resources/DY.BMP,Door1,-0.373148134,-0.016666667,1,0,0,1.448,optionLeft,30,15930,7,26,0,26,0,1,,,,,,,,,,,,,,,,,,,,,,,,,,,,,,,,,,,,,,,
,,,,,,,,2023-08-16_08h42.48.835,HF_wild_card,2022.2.4,Win32,59.5521677,63d79f249b2729d9dd3c48ce,64d2fd46c836a06233681665,64dc7de57aadb8a0fe86dec2,,,,,,,decisionTrl,resources/DR.BMP,resources/DG.BMP,Door3,-0.35370369,-0.036111111,1,0,0,1.5135,optionLeft,70,16000,7,27,0,27,0,1,,,,,,,,,,,,,,,,,,,,,,,,,,,,,,,,,,,,,,,
,,,,,,,,2023-08-16_08h42.48.835,HF_wild_card,2022.2.4,Win32,59.5521677,63d79f249b2729d9dd3c48ce,64d2fd46c836a06233681665,64dc7de57aadb8a0fe86dec2,,,,,,,ctch,resources/DBN.BMP,resources/DG.BMP,Door4,0.414814843,-0.036111111,1,0,0,0.952,optionRight,80,16080,7,28,0,28,0,1,,,,,,,,,,,,,,,,,,,,,,,,,,,,,,,,,,,,,,,
,,,,,,,,2023-08-16_08h42.48.835,HF_wild_card,2022.2.4,Win32,59.5521677,63d79f249b2729d9dd3c48ce,64d2fd46c836a06233681665,64dc7de57aadb8a0fe86dec2,,,,,,,decisionTrl,resources/DY.BMP,resources/DBN.BMP,Door1,0.303703732,-0.019444444,1,0,0,1.3475,optionRight,30,16110,7,29,0,29,0,1,,,,,,,,,,,,,,,,,,,,,,,,,,,,,,,,,,,,,,,
,,,,,,,,2023-08-16_08h42.48.835,HF_wild_card,2022.2.4,Win32,59.5521677,63d79f249b2729d9dd3c48ce,64d2fd46c836a06233681665,64dc7de57aadb8a0fe86dec2,,,,,,,ctch,resources/DG.BMP,resources/DBN.BMP,Door4,-0.247222222,-0.015740755,1,0,0,1.0494,optionLeft,60,16170,7,30,0,30,0,1,,,,,,,,,,,,,,,,,,,,,,,,,,,,,,,,,,,,,,,
,,,,,,,,2023-08-16_08h42.48.835,HF_wild_card,2022.2.4,Win32,59.5521677,63d79f249b2729d9dd3c48ce,64d2fd46c836a06233681665,64dc7de57aadb8a0fe86dec2,,,,,,,ctch,resources/DY.BMP,resources/DR.BMP,Door3,0.304629686,-0.037962977,1,0,0,0.9662,optionRight,70,16240,7,31,0,31,0,1,,,,,,,,,,,,,,,,,,,,,,,,,,,,,,,,,,,,,,,
,,,,,,,,2023-08-16_08h42.48.835,HF_wild_card,2022.2.4,Win32,59.5521677,63d79f249b2729d9dd3c48ce,64d2fd46c836a06233681665,64dc7de57aadb8a0fe86dec2,,,,,,,ctch,resources/DY.BMP,resources/DR.BMP,Door3,0.45,-0.082407422,1,0,0,1.1311,optionRight,70,16310,7,32,0,32,0,1,,,,,,,,,,,,,,,,,,,,,,,,,,,,,,,,,,,,,,,
,,,,,,,,2023-08-16_08h42.48.835,HF_wild_card,2022.2.4,Win32,59.5521677,63d79f249b2729d9dd3c48ce,64d2fd46c836a06233681665,64dc7de57aadb8a0fe86dec2,,,,,,,decisionTrl,resources/DBN.BMP,resources/DY.BMP,Door1,-0.285185157,-0.042592621,1,0,0,1.3287,optionLeft,30,16340,7,33,0,33,0,1,,,,,,,,,,,,,,,,,,,,,,,,,,,,,,,,,,,,,,,
,,,,,,,,2023-08-16_08h42.48.835,HF_wild_card,2022.2.4,Win32,59.5521677,63d79f249b2729d9dd3c48ce,64d2fd46c836a06233681665,64dc7de57aadb8a0fe86dec2,,,,,,,decisionTrl,resources/DBN.BMP,resources/DY.BMP,Door2,0.294444444,-0.014814843,1,0,0,1.8606,optionRight,20,16360,7,34,0,34,0,1,,,,,,,,,,,,,,,,,,,,,,,,,,,,,,,,,,,,,,,
,,,,,,,,2023-08-16_08h42.48.835,HF_wild_card,2022.2.4,Win32,59.5521677,63d79f249b2729d9dd3c48ce,64d2fd46c836a06233681665,64dc7de57aadb8a0fe86dec2,,,,,,,decisionTrl,resources/DR.BMP,resources/DG.BMP,Door4,0.486111111,-0.040740755,1,0,0,1.948,optionRight,80,16440,7,35,0,35,0,1,,,,,,,,,,,,,,,,,,,,,,,,,,,,,,,,,,,,,,,
,,,,,,,,2023-08-16_08h42.48.835,HF_wild_card,2022.2.4,Win32,59.5521677,63d79f249b2729d9dd3c48ce,64d2fd46c836a06233681665,64dc7de57aadb8a0fe86dec2,,,,,,,,,,,,,,,,,,,,,,,,,,6,0,6,0,1,,,,,,,,,,,,,,,,,,,,,,,,,,,,,,,,,,
,,,,,,,,2023-08-16_08h42.48.835,HF_wild_card,2022.2.4,Win32,59.5521677,63d79f249b2729d9dd3c48ce,64d2fd46c836a06233681665,64dc7de57aadb8a0fe86dec2,,,,,,,,,,,,,,,,,,,,,,,,,,,,,,,4,,,,,,,,,,,,,,,,,,,,,,,,,,,,,,,,,
,,,,,,,,2023-08-16_08h42.48.835,HF_wild_card,2022.2.4,Win32,59.5521677,63d79f249b2729d9dd3c48ce,64d2fd46c836a06233681665,64dc7de57aadb8a0fe86dec2,,,,,,,,,,,,,,,,,,,,,,,,,,,,,,,,,,,,,,,,,,,,,,,,,,,,,,,,,,,,,,,,
,,,,,,,,2023-08-16_08h42.48.835,HF_wild_card,2022.2.4,Win32,59.5521677,63d79f249b2729d9dd3c48ce,64d2fd46c836a06233681665,64dc7de57aadb8a0fe86dec2,,,,,,,,,,,,,,,,,,,,,,,,,,,,,,,,80,Door4,resources/DG.BMP,0,0,0,0,1,,,,,,,,,,,,,,,,,,,,,,,,,
,,,,,,,,2023-08-16_08h42.48.835,HF_wild_card,2022.2.4,Win32,59.5521677,63d79f249b2729d9dd3c48ce,64d2fd46c836a06233681665,64dc7de57aadb8a0fe86dec2,,,,,,,,,,,,,,,,,,,,,,,,,,,,,,,,70,Door3,resources/DR.BMP,1,0,1,0,1,,,,,,,,,,,,,,,,,,,,,,,,,
,,,,,,,,2023-08-16_08h42.48.835,HF_wild_card,2022.2.4,Win32,59.5521677,63d79f249b2729d9dd3c48ce,64d2fd46c836a06233681665,64dc7de57aadb8a0fe86dec2,,,,,,,,,,,,,,,,,,,,,,,,,,,,,,,,30,Door1,resources/DBN.BMP,2,0,2,0,1,,,,,,,,,,,,,,,,,,,,,,,,,
,,,,,,,,2023-08-16_08h42.48.835,HF_wild_card,2022.2.4,Win32,59.5521677,63d79f249b2729d9dd3c48ce,64d2fd46c836a06233681665,64dc7de57aadb8a0fe86dec2,,,,,,,,,,,,,,,,,,,,,,,,,,,,,,,,20,Door2,resources/DY.BMP,3,0,3,0,1,,,,,,,,,,,,,,,,,,,,,,,,,
,,,,,,,,2023-08-16_08h42.48.835,HF_wild_card,2022.2.4,Win32,59.5521677,63d79f249b2729d9dd3c48ce,64d2fd46c836a06233681665,64dc7de57aadb8a0fe86dec2,,,,,,,,,,,,,,,,,,,,,,,,,,,,,,,,55,WC_nonExtreme,resources/DB.BMP,4,0,4,0,1,,,,,,,,,,,,,,,,,,,,,,,,,
,,,,,,,,2023-08-16_08h42.48.835,HF_wild_card,2022.2.4,Win32,59.5521677,63d79f249b2729d9dd3c48ce,64d2fd46c836a06233681665,64dc7de57aadb8a0fe86dec2,,,,,,,,,,,,,,,,,,,,,,,,,,,,,,,,95,WC_extreme,resources/DP.BMP,5,0,5,0,1,,,,,,,,,,,,,,,,,,,,,,,,,
,,,,,,,,2023-08-16_08h42.48.835,HF_wild_card,2022.2.4,Win32,59.5521677,63d79f249b2729d9dd3c48ce,64d2fd46c836a06233681665,64dc7de57aadb8a0fe86dec2,,,,,,,,,,,,,,,,,,,,,,,,,,,,,,,,,,,,,,,,,,,,,,,,,,,,,,,,,,,,,,,,
,,,,,,,,2023-08-16_08h42.48.835,HF_wild_card,2022.2.4,Win32,59.5521677,63d79f249b2729d9dd3c48ce,64d2fd46c836a06233681665,64dc7de57aadb8a0fe86dec2,,,,,,,,,,,,,,,,,,,,,,,,,,,,,,,,,,,,,,,,0,0,0,0,1,,,,,,,,,,,,,,,,,,,,
,,,,,,,,2023-08-16_08h42.48.835,HF_wild_card,2022.2.4,Win32,59.5521677,63d79f249b2729d9dd3c48ce,64d2fd46c836a06233681665,64dc7de57aadb8a0fe86dec2,,,,,,,,,,,,,,,,,,,,,,,,,,,,,,,,,,,,,,,,1,0,1,0,1,,,,,,,,,,,,,,,,,,,,
