Condition,Low fixed image (Door1),Low risky image (Door2),High fixed image (Door3),High risky image (Door4),Extreme Wild Card,NonExtreme Wild Card,,date,expName,psychopyVersion,OS,frameRate,PROLIFIC_PID,STUDY_ID,SESSION_ID,mouse_2.x,mouse_2.y,mouse_2.leftButton,mouse_2.midButton,mouse_2.rightButton,mouse_2.clicked_name,Trial Type,Left Option Image,Right Option Image,Chosen Door,mouse.x,mouse.y,mouse.leftButton,mouse.midButton,mouse.rightButton,mouse.time,mouse.clicked_name,Feedback,Cumulative Reward,Block,trial.thisRepN,trial.thisTrialN,trial.thisN,trial.thisIndex,trial.ran,blocks.thisRepN,blocks.thisTrialN,blocks.thisN,blocks.thisIndex,blocks.ran,Money conversion,First Outcome Reported,Shown Door (First Outcome),Displayed Image (First Outcome),outcomes.thisRepN,outcomes.thisTrialN,outcomes.thisN,outcomes.thisIndex,outcomes.ran,judgments.thisRepN,judgments.thisTrialN,judgments.thisN,judgments.thisIndex,judgments.ran,freqMouse.x,freqMouse.y,freqMouse.leftButton,freqMouse.midButton,freqMouse.rightButton,freqMouse.clicked_name,FQJ for first outcome,FQJ for second outcome,Shown Door,Displayed Image,trials.thisRepN,trials.thisTrialN,trials.thisN,trials.thisIndex,trials.ran,judgBlock.thisRepN,judgBlock.thisTrialN,judgBlock.thisN,judgBlock.thisIndex,judgBlock.ran
0,resources/DR.BMP,resources/DY.BMP,resources/DB.BMP,resources/DG.BMP,resources/DP.BMP,resources/DBN.BMP,,2023-08-16_08h22.37.343,HF_wild_card,2022.2.4,Win32,19.99960001,5cb749fda6fe0700189768a5,64d2fd46c836a06233681665,64dc7913709c081eae6f0a93,,,,,,,,,,,,,,,,,,,,,,,,,,,,,,,,,,,,,,,,,,,,,,,,,,,,,,,,,,,,,,,,
,,,,,,,,2023-08-16_08h22.37.343,HF_wild_card,2022.2.4,Win32,19.99960001,5cb749fda6fe0700189768a5,64d2fd46c836a06233681665,64dc7913709c081eae6f0a93,-0.019444444,-0.425925926,1,0,0,agree,,,,,,,,,,,,,,,,,,,,,,,,,,,,,,,,,,,,,,,,,,,,,,,,,,,,,,,,,,
,,,,,,,,2023-08-16_08h22.37.343,HF_wild_card,2022.2.4,Win32,19.99960001,5cb749fda6fe0700189768a5,64d2fd46c836a06233681665,64dc7913709c081eae6f0a93,,,,,,,,,,,,,,,,,,,,,,,,,,,,,,,,,,,,,,,,,,,,,,,,,,,,,,,,,,,,,,,,
,,,,,,,,2023-08-16_08h22.37.343,HF_wild_card,2022.2.4,Win32,19.99960001,5cb749fda6fe0700189768a5,64d2fd46c836a06233681665,64dc7913709c081eae6f0a93,,,,,,,sngl,resources/DP.BMP,resources/Empty.png,WildCard_Ex,-0.37962963,-0.15462963,1,0,0,4.896,optionLeft,5,5,1,0,0,0,0,1,,,,,,,,,,,,,,,,,,,,,,,,,,,,,,,,,,,,,,,
,,,,,,,,2023-08-16_08h22.37.343,HF_wild_card,2022.2.4,Win32,19.99960001,5cb749fda6fe0700189768a5,64d2fd46c836a06233681665,64dc7913709c081eae6f0a93,,,,,,,decisionTrl,resources/DR.BMP,resources/DY.BMP,Door1,-0.339814815,-0.099074074,1,0,0,3.7235,optionLeft,30,35,1,1,0,1,0,1,,,,,,,,,,,,,,,,,,,,,,,,,,,,,,,,,,,,,,,
,,,,,,,,2023-08-16_08h22.37.343,HF_wild_card,2022.2.4,Win32,19.99960001,5cb749fda6fe0700189768a5,64d2fd46c836a06233681665,64dc7913709c081eae6f0a93,,,,,,,decisionTrl,resources/DP.BMP,resources/DY.BMP,Door2,0.398148148,-0.086111111,1,0,0,4.6039,optionRight,20,55,1,2,0,2,0,1,,,,,,,,,,,,,,,,,,,,,,,,,,,,,,,,,,,,,,,
,,,,,,,,2023-08-16_08h22.37.343,HF_wild_card,2022.2.4,Win32,19.99960001,5cb749fda6fe0700189768a5,64d2fd46c836a06233681665,64dc7913709c081eae6f0a93,,,,,,,sngl,resources/Empty.png,resources/DP.BMP,WildCard_Ex,0.403703704,-0.135185185,1,0,0,2.5888,optionRight,95,150,1,3,0,3,0,1,,,,,,,,,,,,,,,,,,,,,,,,,,,,,,,,,,,,,,,
,,,,,,,,2023-08-16_08h22.37.343,HF_wild_card,2022.2.4,Win32,19.99960001,5cb749fda6fe0700189768a5,64d2fd46c836a06233681665,64dc7913709c081eae6f0a93,,,,,,,sngl,resources/DP.BMP,resources/Empty.png,WildCard_Ex,-0.356481481,-0.130555556,1,0,0,2.2204,optionLeft,95,245,1,4,0,4,0,1,,,,,,,,,,,,,,,,,,,,,,,,,,,,,,,,,,,,,,,
,,,,,,,,2023-08-16_08h22.37.343,HF_wild_card,2022.2.4,Win32,19.99960001,5cb749fda6fe0700189768a5,64d2fd46c836a06233681665,64dc7913709c081eae6f0a93,,,,,,,ctch,resources/DY.BMP,resources/DB.BMP,Door3,0.382407407,-0.110185185,1,0,0,4.141,optionRight,70,315,1,5,0,5,0,1,,,,,,,,,,,,,,,,,,,,,,,,,,,,,,,,,,,,,,,
,,,,,,,,2023-08-16_08h22.37.343,HF_wild_card,2022.2.4,Win32,19.99960001,5cb749fda6fe0700189768a5,64d2fd46c836a06233681665,64dc7913709c081eae6f0a93,,,,,,,ctch,resources/DG.BMP,resources/DR.BMP,Door1,0.388888889,-0.105555556,1,0,0,1.9155,optionRight,30,345,1,6,0,6,0,1,,,,,,,,,,,,,,,,,,,,,,,,,,,,,,,,,,,,,,,
,,,,,,,,2023-08-16_08h22.37.343,HF_wild_card,2022.2.4,Win32,19.99960001,5cb749fda6fe0700189768a5,64d2fd46c836a06233681665,64dc7913709c081eae6f0a93,,,,,,,decisionTrl,resources/DY.BMP,resources/DR.BMP,Door2,-0.37962963,-0.087037037,1,0,0,1.615,optionLeft,20,365,1,7,0,7,0,1,,,,,,,,,,,,,,,,,,,,,,,,,,,,,,,,,,,,,,,
,,,,,,,,2023-08-16_08h22.37.343,HF_wild_card,2022.2.4,Win32,19.99960001,5cb749fda6fe0700189768a5,64d2fd46c836a06233681665,64dc7913709c081eae6f0a93,,,,,,,ctch,resources/DY.BMP,resources/DB.BMP,Door3,0.388888889,-0.091666667,1,0,0,2.7444,optionRight,70,435,1,8,0,8,0,1,,,,,,,,,,,,,,,,,,,,,,,,,,,,,,,,,,,,,,,
,,,,,,,,2023-08-16_08h22.37.343,HF_wild_card,2022.2.4,Win32,19.99960001,5cb749fda6fe0700189768a5,64d2fd46c836a06233681665,64dc7913709c081eae6f0a93,,,,,,,decisionTrl,resources/DP.BMP,resources/DB.BMP,Door3,0.389814815,-0.071296296,1,0,0,3.9857,optionRight,70,505,1,9,0,9,0,1,,,,,,,,,,,,,,,,,,,,,,,,,,,,,,,,,,,,,,,
,,,,,,,,2023-08-16_08h22.37.343,HF_wild_card,2022.2.4,Win32,19.99960001,5cb749fda6fe0700189768a5,64d2fd46c836a06233681665,64dc7913709c081eae6f0a93,,,,,,,decisionTrl,resources/DY.BMP,resources/DR.BMP,Door1,0.401851852,-0.100925926,1,0,0,1.5228,optionRight,30,535,1,10,0,10,0,1,,,,,,,,,,,,,,,,,,,,,,,,,,,,,,,,,,,,,,,
,,,,,,,,2023-08-16_08h22.37.343,HF_wild_card,2022.2.4,Win32,19.99960001,5cb749fda6fe0700189768a5,64d2fd46c836a06233681665,64dc7913709c081eae6f0a93,,,,,,,decisionTrl,resources/DB.BMP,resources/DG.BMP,Door3,-0.349074074,-0.101851852,1,0,0,3.6966,optionLeft,70,605,1,11,0,11,0,1,,,,,,,,,,,,,,,,,,,,,,,,,,,,,,,,,,,,,,,
,,,,,,,,2023-08-16_08h22.37.343,HF_wild_card,2022.2.4,Win32,19.99960001,5cb749fda6fe0700189768a5,64d2fd46c836a06233681665,64dc7913709c081eae6f0a93,,,,,,,decisionTrl,resources/DR.BMP,resources/DY.BMP,Door1,-0.347222222,-0.124074074,1,0,0,1.541,optionLeft,30,635,1,12,0,12,0,1,,,,,,,,,,,,,,,,,,,,,,,,,,,,,,,,,,,,,,,
,,,,,,,,2023-08-16_08h22.37.343,HF_wild_card,2022.2.4,Win32,19.99960001,5cb749fda6fe0700189768a5,64d2fd46c836a06233681665,64dc7913709c081eae6f0a93,,,,,,,sngl,resources/DR.BMP,resources/Empty.png,Door1,-0.353703704,-0.098148148,1,0,0,1.628,optionLeft,30,665,1,13,0,13,0,1,,,,,,,,,,,,,,,,,,,,,,,,,,,,,,,,,,,,,,,
,,,,,,,,2023-08-16_08h22.37.343,HF_wild_card,2022.2.4,Win32,19.99960001,5cb749fda6fe0700189768a5,64d2fd46c836a06233681665,64dc7913709c081eae6f0a93,,,,,,,decisionTrl,resources/DG.BMP,resources/DB.BMP,Door4,-0.32037037,-0.069444444,1,0,0,2.8592,optionLeft,60,725,1,14,0,14,0,1,,,,,,,,,,,,,,,,,,,,,,,,,,,,,,,,,,,,,,,
,,,,,,,,2023-08-16_08h22.37.343,HF_wild_card,2022.2.4,Win32,19.99960001,5cb749fda6fe0700189768a5,64d2fd46c836a06233681665,64dc7913709c081eae6f0a93,,,,,,,sngl,resources/DG.BMP,resources/Empty.png,Door4,-0.308333333,-0.128703704,1,0,0,2.0138,optionLeft,80,805,1,15,0,15,0,1,,,,,,,,,,,,,,,,,,,,,,,,,,,,,,,,,,,,,,,
,,,,,,,,2023-08-16_08h22.37.343,HF_wild_card,2022.2.4,Win32,19.99960001,5cb749fda6fe0700189768a5,64d2fd46c836a06233681665,64dc7913709c081eae6f0a93,,,,,,,ctch,resources/DB.BMP,resources/DY.BMP,Door3,-0.318518519,-0.099074074,1,0,0,1.7881,optionLeft,70,875,1,16,0,16,0,1,,,,,,,,,,,,,,,,,,,,,,,,,,,,,,,,,,,,,,,
,,,,,,,,2023-08-16_08h22.37.343,HF_wild_card,2022.2.4,Win32,19.99960001,5cb749fda6fe0700189768a5,64d2fd46c836a06233681665,64dc7913709c081eae6f0a93,,,,,,,sngl,resources/DB.BMP,resources/Empty.png,Door3,-0.368518519,-0.067592593,1,0,0,1.7615,optionLeft,70,945,1,17,0,17,0,1,,,,,,,,,,,,,,,,,,,,,,,,,,,,,,,,,,,,,,,
,,,,,,,,2023-08-16_08h22.37.343,HF_wild_card,2022.2.4,Win32,19.99960001,5cb749fda6fe0700189768a5,64d2fd46c836a06233681665,64dc7913709c081eae6f0a93,,,,,,,decisionTrl,resources/DB.BMP,resources/DG.BMP,Door4,0.411111111,-0.074074074,1,0,0,6.0907,optionRight,60,1005,1,18,0,18,0,1,,,,,,,,,,,,,,,,,,,,,,,,,,,,,,,,,,,,,,,
,,,,,,,,2023-08-16_08h22.37.343,HF_wild_card,2022.2.4,Win32,19.99960001,5cb749fda6fe0700189768a5,64d2fd46c836a06233681665,64dc7913709c081eae6f0a93,,,,,,,decisionTrl,resources/DG.BMP,resources/DP.BMP,WildCard_Ex,0.380555556,-0.125,1,0,0,3.0075,optionRight,95,1100,1,19,0,19,0,1,,,,,,,,,,,,,,,,,,,,,,,,,,,,,,,,,,,,,,,
,,,,,,,,2023-08-16_08h22.37.343,HF_wild_card,2022.2.4,Win32,19.99960001,5cb749fda6fe0700189768a5,64d2fd46c836a06233681665,64dc7913709c081eae6f0a93,,,,,,,decisionTrl,resources/DG.BMP,resources/DB.BMP,Door3,0.383333333,-0.082407407,1,0,0,2.7345,optionRight,70,1170,1,20,0,20,0,1,,,,,,,,,,,,,,,,,,,,,,,,,,,,,,,,,,,,,,,
,,,,,,,,2023-08-16_08h22.37.343,HF_wild_card,2022.2.4,Win32,19.99960001,5cb749fda6fe0700189768a5,64d2fd46c836a06233681665,64dc7913709c081eae6f0a93,,,,,,,decisionTrl,resources/DP.BMP,resources/DR.BMP,Door1,0.389814815,-0.07962963,1,0,0,4.2201,optionRight,30,1200,1,21,0,21,0,1,,,,,,,,,,,,,,,,,,,,,,,,,,,,,,,,,,,,,,,
,,,,,,,,2023-08-16_08h22.37.343,HF_wild_card,2022.2.4,Win32,19.99960001,5cb749fda6fe0700189768a5,64d2fd46c836a06233681665,64dc7913709c081eae6f0a93,,,,,,,sngl,resources/Empty.png,resources/DP.BMP,WildCard_Ex,0.381481481,-0.084259259,1,0,0,1.7039,optionRight,5,1205,1,22,0,22,0,1,,,,,,,,,,,,,,,,,,,,,,,,,,,,,,,,,,,,,,,
,,,,,,,,2023-08-16_08h22.37.343,HF_wild_card,2022.2.4,Win32,19.99960001,5cb749fda6fe0700189768a5,64d2fd46c836a06233681665,64dc7913709c081eae6f0a93,,,,,,,decisionTrl,resources/DB.BMP,resources/DP.BMP,Door3,-0.310185185,-0.042592593,1,0,0,1.9652,optionLeft,70,1275,1,23,0,23,0,1,,,,,,,,,,,,,,,,,,,,,,,,,,,,,,,,,,,,,,,
,,,,,,,,2023-08-16_08h22.37.343,HF_wild_card,2022.2.4,Win32,19.99960001,5cb749fda6fe0700189768a5,64d2fd46c836a06233681665,64dc7913709c081eae6f0a93,,,,,,,sngl,resources/Empty.png,resources/DG.BMP,Door4,0.467592593,-0.090740741,1,0,0,2.0843,optionRight,60,1335,1,24,0,24,0,1,,,,,,,,,,,,,,,,,,,,,,,,,,,,,,,,,,,,,,,
,,,,,,,,2023-08-16_08h22.37.343,HF_wild_card,2022.2.4,Win32,19.99960001,5cb749fda6fe0700189768a5,64d2fd46c836a06233681665,64dc7913709c081eae6f0a93,,,,,,,decisionTrl,resources/DB.BMP,resources/DG.BMP,Door3,-0.353703704,-0.081481481,1,0,0,1.595,optionLeft,70,1405,1,25,0,25,0,1,,,,,,,,,,,,,,,,,,,,,,,,,,,,,,,,,,,,,,,
,,,,,,,,2023-08-16_08h22.37.343,HF_wild_card,2022.2.4,Win32,19.99960001,5cb749fda6fe0700189768a5,64d2fd46c836a06233681665,64dc7913709c081eae6f0a93,,,,,,,decisionTrl,resources/DR.BMP,resources/DP.BMP,Door1,-0.322222222,-0.102777778,1,0,0,3.6967,optionLeft,30,1435,1,26,0,26,0,1,,,,,,,,,,,,,,,,,,,,,,,,,,,,,,,,,,,,,,,
,,,,,,,,2023-08-16_08h22.37.343,HF_wild_card,2022.2.4,Win32,19.99960001,5cb749fda6fe0700189768a5,64d2fd46c836a06233681665,64dc7913709c081eae6f0a93,,,,,,,decisionTrl,resources/DY.BMP,resources/DR.BMP,Door1,0.385185185,-0.085185185,1,0,0,1.3493,optionRight,30,1465,1,27,0,27,0,1,,,,,,,,,,,,,,,,,,,,,,,,,,,,,,,,,,,,,,,
,,,,,,,,2023-08-16_08h22.37.343,HF_wild_card,2022.2.4,Win32,19.99960001,5cb749fda6fe0700189768a5,64d2fd46c836a06233681665,64dc7913709c081eae6f0a93,,,,,,,sngl,resources/DY.BMP,resources/Empty.png,Door2,-0.282407407,-0.108333333,1,0,0,1.3963,optionLeft,40,1505,1,28,0,28,0,1,,,,,,,,,,,,,,,,,,,,,,,,,,,,,,,,,,,,,,,
,,,,,,,,2023-08-16_08h22.37.343,HF_wild_card,2022.2.4,Win32,19.99960001,5cb749fda6fe0700189768a5,64d2fd46c836a06233681665,64dc7913709c081eae6f0a93,,,,,,,decisionTrl,resources/DG.BMP,resources/DB.BMP,Door3,0.394444444,-0.088888889,1,0,0,1.9192,optionRight,70,1575,1,29,0,29,0,1,,,,,,,,,,,,,,,,,,,,,,,,,,,,,,,,,,,,,,,
,,,,,,,,2023-08-16_08h22.37.343,HF_wild_card,2022.2.4,Win32,19.99960001,5cb749fda6fe0700189768a5,64d2fd46c836a06233681665,64dc7913709c081eae6f0a93,,,,,,,sngl,resources/Empty.png,resources/DR.BMP,Door1,0.369444444,-0.085185185,1,0,0,1.2526,optionRight,30,1605,1,30,0,30,0,1,,,,,,,,,,,,,,,,,,,,,,,,,,,,,,,,,,,,,,,
,,,,,,,,2023-08-16_08h22.37.343,HF_wild_card,2022.2.4,Win32,19.99960001,5cb749fda6fe0700189768a5,64d2fd46c836a06233681665,64dc7913709c081eae6f0a93,,,,,,,decisionTrl,resources/DR.BMP,resources/DY.BMP,Door1,-0.378703704,-0.087962963,1,0,0,1.6596,optionLeft,30,1635,1,31,0,31,0,1,,,,,,,,,,,,,,,,,,,,,,,,,,,,,,,,,,,,,,,
,,,,,,,,2023-08-16_08h22.37.343,HF_wild_card,2022.2.4,Win32,19.99960001,5cb749fda6fe0700189768a5,64d2fd46c836a06233681665,64dc7913709c081eae6f0a93,,,,,,,ctch,resources/DR.BMP,resources/DG.BMP,Door4,0.402777778,-0.060185185,1,0,0,3.8769,optionRight,80,1715,1,32,0,32,0,1,,,,,,,,,,,,,,,,,,,,,,,,,,,,,,,,,,,,,,,
,,,,,,,,2023-08-16_08h22.37.343,HF_wild_card,2022.2.4,Win32,19.99960001,5cb749fda6fe0700189768a5,64d2fd46c836a06233681665,64dc7913709c081eae6f0a93,,,,,,,ctch,resources/DB.BMP,resources/DY.BMP,Door3,-0.410185185,-0.063888889,1,0,0,3.1131,optionLeft,70,1785,1,33,0,33,0,1,,,,,,,,,,,,,,,,,,,,,,,,,,,,,,,,,,,,,,,
,,,,,,,,2023-08-16_08h22.37.343,HF_wild_card,2022.2.4,Win32,19.99960001,5cb749fda6fe0700189768a5,64d2fd46c836a06233681665,64dc7913709c081eae6f0a93,,,,,,,ctch,resources/DG.BMP,resources/DR.BMP,Door4,-0.313888889,-0.064814815,1,0,0,3.8968,optionLeft,60,1845,1,34,0,34,0,1,,,,,,,,,,,,,,,,,,,,,,,,,,,,,,,,,,,,,,,
,,,,,,,,2023-08-16_08h22.37.343,HF_wild_card,2022.2.4,Win32,19.99960001,5cb749fda6fe0700189768a5,64d2fd46c836a06233681665,64dc7913709c081eae6f0a93,,,,,,,decisionTrl,resources/DY.BMP,resources/DR.BMP,Door1,0.384259259,-0.091666667,1,0,0,1.9183,optionRight,30,1875,1,35,0,35,0,1,,,,,,,,,,,,,,,,,,,,,,,,,,,,,,,,,,,,,,,
,,,,,,,,2023-08-16_08h22.37.343,HF_wild_card,2022.2.4,Win32,19.99960001,5cb749fda6fe0700189768a5,64d2fd46c836a06233681665,64dc7913709c081eae6f0a93,,,,,,,decisionTrl,resources/DB.BMP,resources/DG.BMP,Door3,-0.397222222,-0.076851852,1,0,0,3.7329,optionLeft,70,1945,1,36,0,36,0,1,,,,,,,,,,,,,,,,,,,,,,,,,,,,,,,,,,,,,,,
,,,,,,,,2023-08-16_08h22.37.343,HF_wild_card,2022.2.4,Win32,19.99960001,5cb749fda6fe0700189768a5,64d2fd46c836a06233681665,64dc7913709c081eae6f0a93,,,,,,,decisionTrl,resources/DR.BMP,resources/DY.BMP,Door1,-0.328703704,-0.080555556,1,0,0,1.6767,optionLeft,30,1975,1,37,0,37,0,1,,,,,,,,,,,,,,,,,,,,,,,,,,,,,,,,,,,,,,,
,,,,,,,,2023-08-16_08h22.37.343,HF_wild_card,2022.2.4,Win32,19.99960001,5cb749fda6fe0700189768a5,64d2fd46c836a06233681665,64dc7913709c081eae6f0a93,,,,,,,decisionTrl,resources/DG.BMP,resources/DB.BMP,Door4,-0.342592593,-0.055555556,1,0,0,3.3171,optionLeft,60,2035,1,38,0,38,0,1,,,,,,,,,,,,,,,,,,,,,,,,,,,,,,,,,,,,,,,
,,,,,,,,2023-08-16_08h22.37.343,HF_wild_card,2022.2.4,Win32,19.99960001,5cb749fda6fe0700189768a5,64d2fd46c836a06233681665,64dc7913709c081eae6f0a93,,,,,,,decisionTrl,resources/DY.BMP,resources/DP.BMP,WildCard_Ex,0.381481481,-0.07037037,1,0,0,1.4005,optionRight,5,2040,1,39,0,39,0,1,,,,,,,,,,,,,,,,,,,,,,,,,,,,,,,,,,,,,,,
,,,,,,,,2023-08-16_08h22.37.343,HF_wild_card,2022.2.4,Win32,19.99960001,5cb749fda6fe0700189768a5,64d2fd46c836a06233681665,64dc7913709c081eae6f0a93,,,,,,,sngl,resources/Empty.png,resources/DY.BMP,Door2,0.368518519,-0.130555556,1,0,0,1.581,optionRight,20,2060,1,40,0,40,0,1,,,,,,,,,,,,,,,,,,,,,,,,,,,,,,,,,,,,,,,
,,,,,,,,2023-08-16_08h22.37.343,HF_wild_card,2022.2.4,Win32,19.99960001,5cb749fda6fe0700189768a5,64d2fd46c836a06233681665,64dc7913709c081eae6f0a93,,,,,,,decisionTrl,resources/DP.BMP,resources/DG.BMP,Door4,0.408333333,-0.069444444,1,0,0,2.8798,optionRight,80,2140,1,41,0,41,0,1,,,,,,,,,,,,,,,,,,,,,,,,,,,,,,,,,,,,,,,
,,,,,,,,2023-08-16_08h22.37.343,HF_wild_card,2022.2.4,Win32,19.99960001,5cb749fda6fe0700189768a5,64d2fd46c836a06233681665,64dc7913709c081eae6f0a93,,,,,,,sngl,resources/Empty.png,resources/DB.BMP,Door3,0.352777778,-0.083333333,1,0,0,1.7049,optionRight,70,2210,1,42,0,42,0,1,,,,,,,,,,,,,,,,,,,,,,,,,,,,,,,,,,,,,,,
,,,,,,,,2023-08-16_08h22.37.343,HF_wild_card,2022.2.4,Win32,19.99960001,5cb749fda6fe0700189768a5,64d2fd46c836a06233681665,64dc7913709c081eae6f0a93,,,,,,,ctch,resources/DR.BMP,resources/DG.BMP,Door4,0.414814815,-0.085185185,1,0,0,1.7337,optionRight,80,2290,1,43,0,43,0,1,,,,,,,,,,,,,,,,,,,,,,,,,,,,,,,,,,,,,,,
,,,,,,,,2023-08-16_08h22.37.343,HF_wild_card,2022.2.4,Win32,19.99960001,5cb749fda6fe0700189768a5,64d2fd46c836a06233681665,64dc7913709c081eae6f0a93,,,,,,,,,,,,,,,,,,,,,,,,,,0,0,0,0,1,,,,,,,,,,,,,,,,,,,,,,,,,,,,,,,,,,
,,,,,,,,2023-08-16_08h22.37.343,HF_wild_card,2022.2.4,Win32,19.99960001,5cb749fda6fe0700189768a5,64d2fd46c836a06233681665,64dc7913709c081eae6f0a93,,,,,,,decisionTrl,resources/DY.BMP,resources/DR.BMP,Door1,0.421296296,-0.169444444,1,0,0,2.6825,optionRight,30,2320,2,0,0,0,0,1,,,,,,,,,,,,,,,,,,,,,,,,,,,,,,,,,,,,,,,
,,,,,,,,2023-08-16_08h22.37.343,HF_wild_card,2022.2.4,Win32,19.99960001,5cb749fda6fe0700189768a5,64d2fd46c836a06233681665,64dc7913709c081eae6f0a93,,,,,,,sngl,resources/Empty.png,resources/DG.BMP,Door4,0.399074074,-0.04537037,1,0,0,2.0119,optionRight,80,2400,2,1,0,1,0,1,,,,,,,,,,,,,,,,,,,,,,,,,,,,,,,,,,,,,,,
,,,,,,,,2023-08-16_08h22.37.343,HF_wild_card,2022.2.4,Win32,19.99960001,5cb749fda6fe0700189768a5,64d2fd46c836a06233681665,64dc7913709c081eae6f0a93,,,,,,,ctch,resources/DB.BMP,resources/DY.BMP,Door3,-0.412962963,-0.07962963,1,0,0,1.9032,optionLeft,70,2470,2,2,0,2,0,1,,,,,,,,,,,,,,,,,,,,,,,,,,,,,,,,,,,,,,,
,,,,,,,,2023-08-16_08h22.37.343,HF_wild_card,2022.2.4,Win32,19.99960001,5cb749fda6fe0700189768a5,64d2fd46c836a06233681665,64dc7913709c081eae6f0a93,,,,,,,decisionTrl,resources/DY.BMP,resources/DR.BMP,Door1,0.419444444,-0.075925926,1,0,0,1.9031,optionRight,30,2500,2,3,0,3,0,1,,,,,,,,,,,,,,,,,,,,,,,,,,,,,,,,,,,,,,,
,,,,,,,,2023-08-16_08h22.37.343,HF_wild_card,2022.2.4,Win32,19.99960001,5cb749fda6fe0700189768a5,64d2fd46c836a06233681665,64dc7913709c081eae6f0a93,,,,,,,decisionTrl,resources/DB.BMP,resources/DP.BMP,Door3,-0.410185185,-0.059259259,1,0,0,2.3491,optionLeft,70,2570,2,4,0,4,0,1,,,,,,,,,,,,,,,,,,,,,,,,,,,,,,,,,,,,,,,
,,,,,,,,2023-08-16_08h22.37.343,HF_wild_card,2022.2.4,Win32,19.99960001,5cb749fda6fe0700189768a5,64d2fd46c836a06233681665,64dc7913709c081eae6f0a93,,,,,,,sngl,resources/Empty.png,resources/DP.BMP,WildCard_Ex,0.396296296,-0.040740741,1,0,0,1.3701,optionRight,5,2575,2,5,0,5,0,1,,,,,,,,,,,,,,,,,,,,,,,,,,,,,,,,,,,,,,,
,,,,,,,,2023-08-16_08h22.37.343,HF_wild_card,2022.2.4,Win32,19.99960001,5cb749fda6fe0700189768a5,64d2fd46c836a06233681665,64dc7913709c081eae6f0a93,,,,,,,ctch,resources/DR.BMP,resources/DG.BMP,Door4,0.430555556,-0.035185185,1,0,0,2.9856,optionRight,80,2655,2,6,0,6,0,1,,,,,,,,,,,,,,,,,,,,,,,,,,,,,,,,,,,,,,,
,,,,,,,,2023-08-16_08h22.37.343,HF_wild_card,2022.2.4,Win32,19.99960001,5cb749fda6fe0700189768a5,64d2fd46c836a06233681665,64dc7913709c081eae6f0a93,,,,,,,decisionTrl,resources/DP.BMP,resources/DB.BMP,Door3,0.388888889,-0.016666667,1,0,0,2.7346,optionRight,70,2725,2,7,0,7,0,1,,,,,,,,,,,,,,,,,,,,,,,,,,,,,,,,,,,,,,,
,,,,,,,,2023-08-16_08h22.37.343,HF_wild_card,2022.2.4,Win32,19.99960001,5cb749fda6fe0700189768a5,64d2fd46c836a06233681665,64dc7913709c081eae6f0a93,,,,,,,decisionTrl,resources/DR.BMP,resources/DY.BMP,Door1,-0.375925926,-0.075925926,1,0,0,1.4044,optionLeft,30,2755,2,8,0,8,0,1,,,,,,,,,,,,,,,,,,,,,,,,,,,,,,,,,,,,,,,
,,,,,,,,2023-08-16_08h22.37.343,HF_wild_card,2022.2.4,Win32,19.99960001,5cb749fda6fe0700189768a5,64d2fd46c836a06233681665,64dc7913709c081eae6f0a93,,,,,,,ctch,resources/DG.BMP,resources/DR.BMP,Door4,-0.305555556,-0.064814815,1,0,0,2.2876,optionLeft,80,2835,2,9,0,9,0,1,,,,,,,,,,,,,,,,,,,,,,,,,,,,,,,,,,,,,,,
,,,,,,,,2023-08-16_08h22.37.343,HF_wild_card,2022.2.4,Win32,19.99960001,5cb749fda6fe0700189768a5,64d2fd46c836a06233681665,64dc7913709c081eae6f0a93,,,,,,,decisionTrl,resources/DP.BMP,resources/DR.BMP,WildCard_Ex,-0.322222222,-0.080555556,1,0,0,2.2181,optionLeft,95,2930,2,10,0,10,0,1,,,,,,,,,,,,,,,,,,,,,,,,,,,,,,,,,,,,,,,
,,,,,,,,2023-08-16_08h22.37.343,HF_wild_card,2022.2.4,Win32,19.99960001,5cb749fda6fe0700189768a5,64d2fd46c836a06233681665,64dc7913709c081eae6f0a93,,,,,,,decisionTrl,resources/DY.BMP,resources/DR.BMP,Door1,0.398148148,-0.025,1,0,0,1.7828,optionRight,30,2960,2,11,0,11,0,1,,,,,,,,,,,,,,,,,,,,,,,,,,,,,,,,,,,,,,,
,,,,,,,,2023-08-16_08h22.37.343,HF_wild_card,2022.2.4,Win32,19.99960001,5cb749fda6fe0700189768a5,64d2fd46c836a06233681665,64dc7913709c081eae6f0a93,,,,,,,sngl,resources/DR.BMP,resources/Empty.png,Door1,-0.455555556,-0.103703704,1,0,0,1.511,optionLeft,30,2990,2,12,0,12,0,1,,,,,,,,,,,,,,,,,,,,,,,,,,,,,,,,,,,,,,,
,,,,,,,,2023-08-16_08h22.37.343,HF_wild_card,2022.2.4,Win32,19.99960001,5cb749fda6fe0700189768a5,64d2fd46c836a06233681665,64dc7913709c081eae6f0a93,,,,,,,decisionTrl,resources/DG.BMP,resources/DB.BMP,Door3,0.388888889,-0.00462963,1,0,0,2.9792,optionRight,70,3060,2,13,0,13,0,1,,,,,,,,,,,,,,,,,,,,,,,,,,,,,,,,,,,,,,,
,,,,,,,,2023-08-16_08h22.37.343,HF_wild_card,2022.2.4,Win32,19.99960001,5cb749fda6fe0700189768a5,64d2fd46c836a06233681665,64dc7913709c081eae6f0a93,,,,,,,decisionTrl,resources/DY.BMP,resources/DR.BMP,Door1,0.388888889,-0.024074074,1,0,0,1.7234,optionRight,30,3090,2,14,0,14,0,1,,,,,,,,,,,,,,,,,,,,,,,,,,,,,,,,,,,,,,,
,,,,,,,,2023-08-16_08h22.37.343,HF_wild_card,2022.2.4,Win32,19.99960001,5cb749fda6fe0700189768a5,64d2fd46c836a06233681665,64dc7913709c081eae6f0a93,,,,,,,ctch,resources/DB.BMP,resources/DY.BMP,Door3,-0.415740741,-0.037962963,1,0,0,2.0546,optionLeft,70,3160,2,15,0,15,0,1,,,,,,,,,,,,,,,,,,,,,,,,,,,,,,,,,,,,,,,
,,,,,,,,2023-08-16_08h22.37.343,HF_wild_card,2022.2.4,Win32,19.99960001,5cb749fda6fe0700189768a5,64d2fd46c836a06233681665,64dc7913709c081eae6f0a93,,,,,,,decisionTrl,resources/DG.BMP,resources/DB.BMP,Door4,-0.374074074,-0.041666667,1,0,0,2.8804,optionLeft,80,3240,2,16,0,16,0,1,,,,,,,,,,,,,,,,,,,,,,,,,,,,,,,,,,,,,,,
,,,,,,,,2023-08-16_08h22.37.343,HF_wild_card,2022.2.4,Win32,19.99960001,5cb749fda6fe0700189768a5,64d2fd46c836a06233681665,64dc7913709c081eae6f0a93,,,,,,,sngl,resources/Empty.png,resources/DB.BMP,Door3,0.364814815,-0.044444444,1,0,0,1.3314,optionRight,70,3310,2,17,0,17,0,1,,,,,,,,,,,,,,,,,,,,,,,,,,,,,,,,,,,,,,,
,,,,,,,,2023-08-16_08h22.37.343,HF_wild_card,2022.2.4,Win32,19.99960001,5cb749fda6fe0700189768a5,64d2fd46c836a06233681665,64dc7913709c081eae6f0a93,,,,,,,ctch,resources/DG.BMP,resources/DR.BMP,Door4,-0.414814815,-0.069444444,1,0,0,1.7911,optionLeft,60,3370,2,18,0,18,0,1,,,,,,,,,,,,,,,,,,,,,,,,,,,,,,,,,,,,,,,
,,,,,,,,2023-08-16_08h22.37.343,HF_wild_card,2022.2.4,Win32,19.99960001,5cb749fda6fe0700189768a5,64d2fd46c836a06233681665,64dc7913709c081eae6f0a93,,,,,,,sngl,resources/Empty.png,resources/DY.BMP,Door2,0.350925926,-0.018518519,1,0,0,1.9443,optionRight,40,3410,2,19,0,19,0,1,,,,,,,,,,,,,,,,,,,,,,,,,,,,,,,,,,,,,,,
,,,,,,,,2023-08-16_08h22.37.343,HF_wild_card,2022.2.4,Win32,19.99960001,5cb749fda6fe0700189768a5,64d2fd46c836a06233681665,64dc7913709c081eae6f0a93,,,,,,,ctch,resources/DY.BMP,resources/DB.BMP,Door2,-0.387037037,-0.101851852,1,0,0,1.0724,optionLeft,40,3450,2,20,0,20,0,1,,,,,,,,,,,,,,,,,,,,,,,,,,,,,,,,,,,,,,,
,,,,,,,,2023-08-16_08h22.37.343,HF_wild_card,2022.2.4,Win32,19.99960001,5cb749fda6fe0700189768a5,64d2fd46c836a06233681665,64dc7913709c081eae6f0a93,,,,,,,decisionTrl,resources/DP.BMP,resources/DG.BMP,Door4,0.387037037,-0.048148148,1,0,0,2.2874,optionRight,60,3510,2,21,0,21,0,1,,,,,,,,,,,,,,,,,,,,,,,,,,,,,,,,,,,,,,,
,,,,,,,,2023-08-16_08h22.37.343,HF_wild_card,2022.2.4,Win32,19.99960001,5cb749fda6fe0700189768a5,64d2fd46c836a06233681665,64dc7913709c081eae6f0a93,,,,,,,decisionTrl,resources/DR.BMP,resources/DY.BMP,Door2,0.414814815,-0.066666667,1,0,0,1.5999,optionRight,40,3550,2,22,0,22,0,1,,,,,,,,,,,,,,,,,,,,,,,,,,,,,,,,,,,,,,,
,,,,,,,,2023-08-16_08h22.37.343,HF_wild_card,2022.2.4,Win32,19.99960001,5cb749fda6fe0700189768a5,64d2fd46c836a06233681665,64dc7913709c081eae6f0a93,,,,,,,decisionTrl,resources/DR.BMP,resources/DP.BMP,WildCard_Ex,0.4,-0.075,1,0,0,1.913,optionRight,95,3645,2,23,0,23,0,1,,,,,,,,,,,,,,,,,,,,,,,,,,,,,,,,,,,,,,,
,,,,,,,,2023-08-16_08h22.37.343,HF_wild_card,2022.2.4,Win32,19.99960001,5cb749fda6fe0700189768a5,64d2fd46c836a06233681665,64dc7913709c081eae6f0a93,,,,,,,sngl,resources/DP.BMP,resources/Empty.png,WildCard_Ex,-0.32962963,-0.081481481,1,0,0,1.2581,optionLeft,5,3650,2,24,0,24,0,1,,,,,,,,,,,,,,,,,,,,,,,,,,,,,,,,,,,,,,,
,,,,,,,,2023-08-16_08h22.37.343,HF_wild_card,2022.2.4,Win32,19.99960001,5cb749fda6fe0700189768a5,64d2fd46c836a06233681665,64dc7913709c081eae6f0a93,,,,,,,sngl,resources/DG.BMP,resources/Empty.png,Door4,-0.291666667,-0.071296296,1,0,0,1.1996,optionLeft,60,3710,2,25,0,25,0,1,,,,,,,,,,,,,,,,,,,,,,,,,,,,,,,,,,,,,,,
,,,,,,,,2023-08-16_08h22.37.343,HF_wild_card,2022.2.4,Win32,19.99960001,5cb749fda6fe0700189768a5,64d2fd46c836a06233681665,64dc7913709c081eae6f0a93,,,,,,,sngl,resources/DY.BMP,resources/Empty.png,Door2,-0.359259259,-0.074074074,1,0,0,1.3627,optionLeft,20,3730,2,26,0,26,0,1,,,,,,,,,,,,,,,,,,,,,,,,,,,,,,,,,,,,,,,
,,,,,,,,2023-08-16_08h22.37.343,HF_wild_card,2022.2.4,Win32,19.99960001,5cb749fda6fe0700189768a5,64d2fd46c836a06233681665,64dc7913709c081eae6f0a93,,,,,,,ctch,resources/DR.BMP,resources/DG.BMP,Door4,0.399074074,-0.059259259,1,0,0,2.3718,optionRight,60,3790,2,27,0,27,0,1,,,,,,,,,,,,,,,,,,,,,,,,,,,,,,,,,,,,,,,
,,,,,,,,2023-08-16_08h22.37.343,HF_wild_card,2022.2.4,Win32,19.99960001,5cb749fda6fe0700189768a5,64d2fd46c836a06233681665,64dc7913709c081eae6f0a93,,,,,,,ctch,resources/DY.BMP,resources/DB.BMP,Door3,0.338888889,-0.072222222,1,0,0,1.7195,optionRight,70,3860,2,28,0,28,0,1,,,,,,,,,,,,,,,,,,,,,,,,,,,,,,,,,,,,,,,
,,,,,,,,2023-08-16_08h22.37.343,HF_wild_card,2022.2.4,Win32,19.99960001,5cb749fda6fe0700189768a5,64d2fd46c836a06233681665,64dc7913709c081eae6f0a93,,,,,,,sngl,resources/DB.BMP,resources/Empty.png,Door3,-0.324074074,-0.076851852,1,0,0,1.0774,optionLeft,70,3930,2,29,0,29,0,1,,,,,,,,,,,,,,,,,,,,,,,,,,,,,,,,,,,,,,,
,,,,,,,,2023-08-16_08h22.37.343,HF_wild_card,2022.2.4,Win32,19.99960001,5cb749fda6fe0700189768a5,64d2fd46c836a06233681665,64dc7913709c081eae6f0a93,,,,,,,decisionTrl,resources/DR.BMP,resources/DY.BMP,Door2,0.389814815,-0.110185185,1,0,0,2.3724,optionRight,20,3950,2,30,0,30,0,1,,,,,,,,,,,,,,,,,,,,,,,,,,,,,,,,,,,,,,,
,,,,,,,,2023-08-16_08h22.37.343,HF_wild_card,2022.2.4,Win32,19.99960001,5cb749fda6fe0700189768a5,64d2fd46c836a06233681665,64dc7913709c081eae6f0a93,,,,,,,sngl,resources/Empty.png,resources/DP.BMP,WildCard_Ex,0.42037037,-0.102777778,1,0,0,1.1279,optionRight,95,4045,2,31,0,31,0,1,,,,,,,,,,,,,,,,,,,,,,,,,,,,,,,,,,,,,,,
,,,,,,,,2023-08-16_08h22.37.343,HF_wild_card,2022.2.4,Win32,19.99960001,5cb749fda6fe0700189768a5,64d2fd46c836a06233681665,64dc7913709c081eae6f0a93,,,,,,,decisionTrl,resources/DG.BMP,resources/DB.BMP,Door4,-0.361111111,-0.088888889,1,0,0,1.4051,optionLeft,60,4105,2,32,0,32,0,1,,,,,,,,,,,,,,,,,,,,,,,,,,,,,,,,,,,,,,,
,,,,,,,,2023-08-16_08h22.37.343,HF_wild_card,2022.2.4,Win32,19.99960001,5cb749fda6fe0700189768a5,64d2fd46c836a06233681665,64dc7913709c081eae6f0a93,,,,,,,decisionTrl,resources/DB.BMP,resources/DG.BMP,Door3,-0.319444444,-0.099074074,1,0,0,2.1669,optionLeft,70,4175,2,33,0,33,0,1,,,,,,,,,,,,,,,,,,,,,,,,,,,,,,,,,,,,,,,
,,,,,,,,2023-08-16_08h22.37.343,HF_wild_card,2022.2.4,Win32,19.99960001,5cb749fda6fe0700189768a5,64d2fd46c836a06233681665,64dc7913709c081eae6f0a93,,,,,,,decisionTrl,resources/DG.BMP,resources/DB.BMP,Door3,0.335185185,-0.103703704,1,0,0,1.294,optionRight,70,4245,2,34,0,34,0,1,,,,,,,,,,,,,,,,,,,,,,,,,,,,,,,,,,,,,,,
,,,,,,,,2023-08-16_08h22.37.343,HF_wild_card,2022.2.4,Win32,19.99960001,5cb749fda6fe0700189768a5,64d2fd46c836a06233681665,64dc7913709c081eae6f0a93,,,,,,,decisionTrl,resources/DY.BMP,resources/DP.BMP,WildCard_Ex,0.413888889,-0.107407407,1,0,0,2.9849,optionRight,95,4340,2,35,0,35,0,1,,,,,,,,,,,,,,,,,,,,,,,,,,,,,,,,,,,,,,,
,,,,,,,,2023-08-16_08h22.37.343,HF_wild_card,2022.2.4,Win32,19.99960001,5cb749fda6fe0700189768a5,64d2fd46c836a06233681665,64dc7913709c081eae6f0a93,,,,,,,decisionTrl,resources/DP.BMP,resources/DY.BMP,WildCard_Ex,-0.37037037,-0.068518519,1,0,0,1.4743,optionLeft,5,4345,2,36,0,36,0,1,,,,,,,,,,,,,,,,,,,,,,,,,,,,,,,,,,,,,,,
,,,,,,,,2023-08-16_08h22.37.343,HF_wild_card,2022.2.4,Win32,19.99960001,5cb749fda6fe0700189768a5,64d2fd46c836a06233681665,64dc7913709c081eae6f0a93,,,,,,,decisionTrl,resources/DB.BMP,resources/DG.BMP,Door4,0.368518519,-0.111111111,1,0,0,1.9628,optionRight,80,4425,2,37,0,37,0,1,,,,,,,,,,,,,,,,,,,,,,,,,,,,,,,,,,,,,,,
,,,,,,,,2023-08-16_08h22.37.343,HF_wild_card,2022.2.4,Win32,19.99960001,5cb749fda6fe0700189768a5,64d2fd46c836a06233681665,64dc7913709c081eae6f0a93,,,,,,,sngl,resources/Empty.png,resources/DR.BMP,Door1,0.412037037,-0.102777778,1,0,0,1.2479,optionRight,30,4455,2,38,0,38,0,1,,,,,,,,,,,,,,,,,,,,,,,,,,,,,,,,,,,,,,,
,,,,,,,,2023-08-16_08h22.37.343,HF_wild_card,2022.2.4,Win32,19.99960001,5cb749fda6fe0700189768a5,64d2fd46c836a06233681665,64dc7913709c081eae6f0a93,,,,,,,sngl,resources/DP.BMP,resources/Empty.png,WildCard_Ex,-0.312037037,-0.101851852,1,0,0,1.3933,optionLeft,95,4550,2,39,0,39,0,1,,,,,,,,,,,,,,,,,,,,,,,,,,,,,,,,,,,,,,,
,,,,,,,,2023-08-16_08h22.37.343,HF_wild_card,2022.2.4,Win32,19.99960001,5cb749fda6fe0700189768a5,64d2fd46c836a06233681665,64dc7913709c081eae6f0a93,,,,,,,decisionTrl,resources/DR.BMP,resources/DY.BMP,Door2,0.392592593,-0.115740741,1,0,0,2.6223,optionRight,20,4570,2,40,0,40,0,1,,,,,,,,,,,,,,,,,,,,,,,,,,,,,,,,,,,,,,,
,,,,,,,,2023-08-16_08h22.37.343,HF_wild_card,2022.2.4,Win32,19.99960001,5cb749fda6fe0700189768a5,64d2fd46c836a06233681665,64dc7913709c081eae6f0a93,,,,,,,decisionTrl,resources/DB.BMP,resources/DG.BMP,Door3,-0.4,-0.087037037,1,0,0,2.2838,optionLeft,70,4640,2,41,0,41,0,1,,,,,,,,,,,,,,,,,,,,,,,,,,,,,,,,,,,,,,,
,,,,,,,,2023-08-16_08h22.37.343,HF_wild_card,2022.2.4,Win32,19.99960001,5cb749fda6fe0700189768a5,64d2fd46c836a06233681665,64dc7913709c081eae6f0a93,,,,,,,decisionTrl,resources/DG.BMP,resources/DP.BMP,Door4,-0.307407407,-0.032407407,1,0,0,0.9578,optionLeft,60,4700,2,42,0,42,0,1,,,,,,,,,,,,,,,,,,,,,,,,,,,,,,,,,,,,,,,
,,,,,,,,2023-08-16_08h22.37.343,HF_wild_card,2022.2.4,Win32,19.99960001,5cb749fda6fe0700189768a5,64d2fd46c836a06233681665,64dc7913709c081eae6f0a93,,,,,,,decisionTrl,resources/DB.BMP,resources/DG.BMP,Door3,-0.341666667,-0.071296296,1,0,0,1.398,optionLeft,70,4770,2,43,0,43,0,1,,,,,,,,,,,,,,,,,,,,,,,,,,,,,,,,,,,,,,,
,,,,,,,,2023-08-16_08h22.37.343,HF_wild_card,2022.2.4,Win32,19.99960001,5cb749fda6fe0700189768a5,64d2fd46c836a06233681665,64dc7913709c081eae6f0a93,,,,,,,,,,,,,,,,,,,,,,,,,,1,0,1,0,1,,,,,,,,,,,,,,,,,,,,,,,,,,,,,,,,,,
,,,,,,,,2023-08-16_08h22.37.343,HF_wild_card,2022.2.4,Win32,19.99960001,5cb749fda6fe0700189768a5,64d2fd46c836a06233681665,64dc7913709c081eae6f0a93,,,,,,,sngl,resources/Empty.png,resources/DP.BMP,WildCard_Ex,0.392592593,-0.106481481,1,0,0,2.4094,optionRight,95,4865,3,0,0,0,0,1,,,,,,,,,,,,,,,,,,,,,,,,,,,,,,,,,,,,,,,
,,,,,,,,2023-08-16_08h22.37.343,HF_wild_card,2022.2.4,Win32,19.99960001,5cb749fda6fe0700189768a5,64d2fd46c836a06233681665,64dc7913709c081eae6f0a93,,,,,,,decisionTrl,resources/DR.BMP,resources/DP.BMP,WildCard_Ex,0.305555556,-0.076851852,1,0,0,1.3448,optionRight,5,4870,3,1,0,1,0,1,,,,,,,,,,,,,,,,,,,,,,,,,,,,,,,,,,,,,,,
,,,,,,,,2023-08-16_08h22.37.343,HF_wild_card,2022.2.4,Win32,19.99960001,5cb749fda6fe0700189768a5,64d2fd46c836a06233681665,64dc7913709c081eae6f0a93,,,,,,,sngl,resources/Empty.png,resources/DY.BMP,Door2,0.330555556,-0.110185185,1,0,0,1.1494,optionRight,20,4890,3,2,0,2,0,1,,,,,,,,,,,,,,,,,,,,,,,,,,,,,,,,,,,,,,,
,,,,,,,,2023-08-16_08h22.37.343,HF_wild_card,2022.2.4,Win32,19.99960001,5cb749fda6fe0700189768a5,64d2fd46c836a06233681665,64dc7913709c081eae6f0a93,,,,,,,sngl,resources/DY.BMP,resources/Empty.png,Door2,-0.27037037,-0.068518519,1,0,0,1.1803,optionLeft,40,4930,3,3,0,3,0,1,,,,,,,,,,,,,,,,,,,,,,,,,,,,,,,,,,,,,,,
,,,,,,,,2023-08-16_08h22.37.343,HF_wild_card,2022.2.4,Win32,19.99960001,5cb749fda6fe0700189768a5,64d2fd46c836a06233681665,64dc7913709c081eae6f0a93,,,,,,,decisionTrl,resources/DG.BMP,resources/DP.BMP,WildCard_Ex,0.396296296,-0.118518519,1,0,0,2.3496,optionRight,95,5025,3,4,0,4,0,1,,,,,,,,,,,,,,,,,,,,,,,,,,,,,,,,,,,,,,,
,,,,,,,,2023-08-16_08h22.37.343,HF_wild_card,2022.2.4,Win32,19.99960001,5cb749fda6fe0700189768a5,64d2fd46c836a06233681665,64dc7913709c081eae6f0a93,,,,,,,decisionTrl,resources/DB.BMP,resources/DG.BMP,Door3,-0.337962963,-0.064814815,1,0,0,2.0918,optionLeft,70,5095,3,5,0,5,0,1,,,,,,,,,,,,,,,,,,,,,,,,,,,,,,,,,,,,,,,
,,,,,,,,2023-08-16_08h22.37.343,HF_wild_card,2022.2.4,Win32,19.99960001,5cb749fda6fe0700189768a5,64d2fd46c836a06233681665,64dc7913709c081eae6f0a93,,,,,,,ctch,resources/DY.BMP,resources/DB.BMP,Door3,0.377777778,-0.087037037,1,0,0,2.5515,optionRight,70,5165,3,6,0,6,0,1,,,,,,,,,,,,,,,,,,,,,,,,,,,,,,,,,,,,,,,
,,,,,,,,2023-08-16_08h22.37.343,HF_wild_card,2022.2.4,Win32,19.99960001,5cb749fda6fe0700189768a5,64d2fd46c836a06233681665,64dc7913709c081eae6f0a93,,,,,,,decisionTrl,resources/DP.BMP,resources/DR.BMP,WildCard_Ex,-0.336111111,-0.07037037,1,0,0,2.4083,optionLeft,95,5260,3,7,0,7,0,1,,,,,,,,,,,,,,,,,,,,,,,,,,,,,,,,,,,,,,,
,,,,,,,,2023-08-16_08h22.37.343,HF_wild_card,2022.2.4,Win32,19.99960001,5cb749fda6fe0700189768a5,64d2fd46c836a06233681665,64dc7913709c081eae6f0a93,,,,,,,decisionTrl,resources/DY.BMP,resources/DR.BMP,Door1,0.337962963,-0.082407407,1,0,0,1.7762,optionRight,30,5290,3,8,0,8,0,1,,,,,,,,,,,,,,,,,,,,,,,,,,,,,,,,,,,,,,,
,,,,,,,,2023-08-16_08h22.37.343,HF_wild_card,2022.2.4,Win32,19.99960001,5cb749fda6fe0700189768a5,64d2fd46c836a06233681665,64dc7913709c081eae6f0a93,,,,,,,decisionTrl,resources/DG.BMP,resources/DB.BMP,Door3,0.386111111,-0.106481481,1,0,0,2.059,optionRight,70,5360,3,9,0,9,0,1,,,,,,,,,,,,,,,,,,,,,,,,,,,,,,,,,,,,,,,
,,,,,,,,2023-08-16_08h22.37.343,HF_wild_card,2022.2.4,Win32,19.99960001,5cb749fda6fe0700189768a5,64d2fd46c836a06233681665,64dc7913709c081eae6f0a93,,,,,,,sngl,resources/Empty.png,resources/DR.BMP,Door1,0.389814815,-0.124074074,1,0,0,1.315,optionRight,30,5390,3,10,0,10,0,1,,,,,,,,,,,,,,,,,,,,,,,,,,,,,,,,,,,,,,,
,,,,,,,,2023-08-16_08h22.37.343,HF_wild_card,2022.2.4,Win32,19.99960001,5cb749fda6fe0700189768a5,64d2fd46c836a06233681665,64dc7913709c081eae6f0a93,,,,,,,ctch,resources/DR.BMP,resources/DG.BMP,Door4,0.368518519,-0.061111111,1,0,0,1.8382,optionRight,80,5470,3,11,0,11,0,1,,,,,,,,,,,,,,,,,,,,,,,,,,,,,,,,,,,,,,,
,,,,,,,,2023-08-16_08h22.37.343,HF_wild_card,2022.2.4,Win32,19.99960001,5cb749fda6fe0700189768a5,64d2fd46c836a06233681665,64dc7913709c081eae6f0a93,,,,,,,ctch,resources/DG.BMP,resources/DR.BMP,Door4,-0.301851852,-0.084259259,1,0,0,1.5315,optionLeft,60,5530,3,12,0,12,0,1,,,,,,,,,,,,,,,,,,,,,,,,,,,,,,,,,,,,,,,
,,,,,,,,2023-08-16_08h22.37.343,HF_wild_card,2022.2.4,Win32,19.99960001,5cb749fda6fe0700189768a5,64d2fd46c836a06233681665,64dc7913709c081eae6f0a93,,,,,,,decisionTrl,resources/DR.BMP,resources/DY.BMP,Door2,0.47962963,-0.063888889,1,0,0,2.1015,optionRight,40,5570,3,13,0,13,0,1,,,,,,,,,,,,,,,,,,,,,,,,,,,,,,,,,,,,,,,
,,,,,,,,2023-08-16_08h22.37.343,HF_wild_card,2022.2.4,Win32,19.99960001,5cb749fda6fe0700189768a5,64d2fd46c836a06233681665,64dc7913709c081eae6f0a93,,,,,,,sngl,resources/DP.BMP,resources/Empty.png,WildCard_Ex,-0.339814815,-0.10462963,1,0,0,1.2615,optionLeft,5,5575,3,14,0,14,0,1,,,,,,,,,,,,,,,,,,,,,,,,,,,,,,,,,,,,,,,
,,,,,,,,2023-08-16_08h22.37.343,HF_wild_card,2022.2.4,Win32,19.99960001,5cb749fda6fe0700189768a5,64d2fd46c836a06233681665,64dc7913709c081eae6f0a93,,,,,,,ctch,resources/DB.BMP,resources/DY.BMP,Door2,0.371296296,-0.073148148,1,0,0,1.3903,optionRight,40,5615,3,15,0,15,0,1,,,,,,,,,,,,,,,,,,,,,,,,,,,,,,,,,,,,,,,
,,,,,,,,2023-08-16_08h22.37.343,HF_wild_card,2022.2.4,Win32,19.99960001,5cb749fda6fe0700189768a5,64d2fd46c836a06233681665,64dc7913709c081eae6f0a93,,,,,,,sngl,resources/DP.BMP,resources/Empty.png,WildCard_Ex,-0.310185185,-0.12962963,1,0,0,1.3322,optionLeft,95,5710,3,16,0,16,0,1,,,,,,,,,,,,,,,,,,,,,,,,,,,,,,,,,,,,,,,
,,,,,,,,2023-08-16_08h22.37.343,HF_wild_card,2022.2.4,Win32,19.99960001,5cb749fda6fe0700189768a5,64d2fd46c836a06233681665,64dc7913709c081eae6f0a93,,,,,,,decisionTrl,resources/DB.BMP,resources/DG.BMP,Door3,-0.39537037,-0.130555556,1,0,0,2.4844,optionLeft,70,5780,3,17,0,17,0,1,,,,,,,,,,,,,,,,,,,,,,,,,,,,,,,,,,,,,,,
,,,,,,,,2023-08-16_08h22.37.343,HF_wild_card,2022.2.4,Win32,19.99960001,5cb749fda6fe0700189768a5,64d2fd46c836a06233681665,64dc7913709c081eae6f0a93,,,,,,,sngl,resources/Empty.png,resources/DB.BMP,Door3,0.382407407,-0.065740741,1,0,0,1.0659,optionRight,70,5850,3,18,0,18,0,1,,,,,,,,,,,,,,,,,,,,,,,,,,,,,,,,,,,,,,,
,,,,,,,,2023-08-16_08h22.37.343,HF_wild_card,2022.2.4,Win32,19.99960001,5cb749fda6fe0700189768a5,64d2fd46c836a06233681665,64dc7913709c081eae6f0a93,,,,,,,decisionTrl,resources/DY.BMP,resources/DR.BMP,Door1,0.383333333,-0.066666667,1,0,0,1.5913,optionRight,30,5880,3,19,0,19,0,1,,,,,,,,,,,,,,,,,,,,,,,,,,,,,,,,,,,,,,,
,,,,,,,,2023-08-16_08h22.37.343,HF_wild_card,2022.2.4,Win32,19.99960001,5cb749fda6fe0700189768a5,64d2fd46c836a06233681665,64dc7913709c081eae6f0a93,,,,,,,decisionTrl,resources/DY.BMP,resources/DR.BMP,Door1,0.362037037,-0.094444444,1,0,0,1.0994,optionRight,30,5910,3,20,0,20,0,1,,,,,,,,,,,,,,,,,,,,,,,,,,,,,,,,,,,,,,,
,,,,,,,,2023-08-16_08h22.37.343,HF_wild_card,2022.2.4,Win32,19.99960001,5cb749fda6fe0700189768a5,64d2fd46c836a06233681665,64dc7913709c081eae6f0a93,,,,,,,ctch,resources/DY.BMP,resources/DB.BMP,Door3,0.388888889,-0.124074074,1,0,0,1.5252,optionRight,70,5980,3,21,0,21,0,1,,,,,,,,,,,,,,,,,,,,,,,,,,,,,,,,,,,,,,,
,,,,,,,,2023-08-16_08h22.37.343,HF_wild_card,2022.2.4,Win32,19.99960001,5cb749fda6fe0700189768a5,64d2fd46c836a06233681665,64dc7913709c081eae6f0a93,,,,,,,decisionTrl,resources/DP.BMP,resources/DB.BMP,WildCard_Ex,-0.378703704,-0.071296296,1,0,0,2.2959,optionLeft,5,5985,3,22,0,22,0,1,,,,,,,,,,,,,,,,,,,,,,,,,,,,,,,,,,,,,,,
,,,,,,,,2023-08-16_08h22.37.343,HF_wild_card,2022.2.4,Win32,19.99960001,5cb749fda6fe0700189768a5,64d2fd46c836a06233681665,64dc7913709c081eae6f0a93,,,,,,,decisionTrl,resources/DB.BMP,resources/DG.BMP,Door3,-0.367592593,-0.124074074,1,0,0,2.4987,optionLeft,70,6055,3,23,0,23,0,1,,,,,,,,,,,,,,,,,,,,,,,,,,,,,,,,,,,,,,,
,,,,,,,,2023-08-16_08h22.37.343,HF_wild_card,2022.2.4,Win32,19.99960001,5cb749fda6fe0700189768a5,64d2fd46c836a06233681665,64dc7913709c081eae6f0a93,,,,,,,sngl,resources/Empty.png,resources/DP.BMP,WildCard_Ex,0.366666667,-0.026851852,1,0,0,1.2015,optionRight,5,6060,3,24,0,24,0,1,,,,,,,,,,,,,,,,,,,,,,,,,,,,,,,,,,,,,,,
,,,,,,,,2023-08-16_08h22.37.343,HF_wild_card,2022.2.4,Win32,19.99960001,5cb749fda6fe0700189768a5,64d2fd46c836a06233681665,64dc7913709c081eae6f0a93,,,,,,,decisionTrl,resources/DG.BMP,resources/DB.BMP,Door4,-0.305555556,-0.085185185,1,0,0,2.1745,optionLeft,60,6120,3,25,0,25,0,1,,,,,,,,,,,,,,,,,,,,,,,,,,,,,,,,,,,,,,,
,,,,,,,,2023-08-16_08h22.37.343,HF_wild_card,2022.2.4,Win32,19.99960001,5cb749fda6fe0700189768a5,64d2fd46c836a06233681665,64dc7913709c081eae6f0a93,,,,,,,decisionTrl,resources/DP.BMP,resources/DG.BMP,Door4,0.397222222,-0.052777778,1,0,0,2.7968,optionRight,60,6180,3,26,0,26,0,1,,,,,,,,,,,,,,,,,,,,,,,,,,,,,,,,,,,,,,,
,,,,,,,,2023-08-16_08h22.37.343,HF_wild_card,2022.2.4,Win32,19.99960001,5cb749fda6fe0700189768a5,64d2fd46c836a06233681665,64dc7913709c081eae6f0a93,,,,,,,sngl,resources/Empty.png,resources/DG.BMP,Door4,0.321296296,-0.04537037,1,0,0,0.961,optionRight,60,6240,3,27,0,27,0,1,,,,,,,,,,,,,,,,,,,,,,,,,,,,,,,,,,,,,,,
,,,,,,,,2023-08-16_08h22.37.343,HF_wild_card,2022.2.4,Win32,19.99960001,5cb749fda6fe0700189768a5,64d2fd46c836a06233681665,64dc7913709c081eae6f0a93,,,,,,,sngl,resources/DG.BMP,resources/Empty.png,Door4,-0.25462963,-0.093518519,1,0,0,1.3035,optionLeft,80,6320,3,28,0,28,0,1,,,,,,,,,,,,,,,,,,,,,,,,,,,,,,,,,,,,,,,
,,,,,,,,2023-08-16_08h22.37.343,HF_wild_card,2022.2.4,Win32,19.99960001,5cb749fda6fe0700189768a5,64d2fd46c836a06233681665,64dc7913709c081eae6f0a93,,,,,,,sngl,resources/DB.BMP,resources/Empty.png,Door3,-0.330555556,-0.124074074,1,0,0,1.5141,optionLeft,70,6390,3,29,0,29,0,1,,,,,,,,,,,,,,,,,,,,,,,,,,,,,,,,,,,,,,,
,,,,,,,,2023-08-16_08h22.37.343,HF_wild_card,2022.2.4,Win32,19.99960001,5cb749fda6fe0700189768a5,64d2fd46c836a06233681665,64dc7913709c081eae6f0a93,,,,,,,decisionTrl,resources/DR.BMP,resources/DY.BMP,Door2,0.388888889,-0.099074074,1,0,0,1.6664,optionRight,20,6410,3,30,0,30,0,1,,,,,,,,,,,,,,,,,,,,,,,,,,,,,,,,,,,,,,,
,,,,,,,,2023-08-16_08h22.37.343,HF_wild_card,2022.2.4,Win32,19.99960001,5cb749fda6fe0700189768a5,64d2fd46c836a06233681665,64dc7913709c081eae6f0a93,,,,,,,decisionTrl,resources/DY.BMP,resources/DP.BMP,WildCard_Ex,0.356481481,-0.091666667,1,0,0,1.4641,optionRight,5,6415,3,31,0,31,0,1,,,,,,,,,,,,,,,,,,,,,,,,,,,,,,,,,,,,,,,
,,,,,,,,2023-08-16_08h22.37.343,HF_wild_card,2022.2.4,Win32,19.99960001,5cb749fda6fe0700189768a5,64d2fd46c836a06233681665,64dc7913709c081eae6f0a93,,,,,,,ctch,resources/DR.BMP,resources/DG.BMP,Door4,0.394444444,-0.082407407,1,0,0,2.7514,optionRight,60,6475,3,32,0,32,0,1,,,,,,,,,,,,,,,,,,,,,,,,,,,,,,,,,,,,,,,
,,,,,,,,2023-08-16_08h22.37.343,HF_wild_card,2022.2.4,Win32,19.99960001,5cb749fda6fe0700189768a5,64d2fd46c836a06233681665,64dc7913709c081eae6f0a93,,,,,,,decisionTrl,resources/DR.BMP,resources/DY.BMP,Door1,-0.305555556,-0.201851852,1,0,0,2.4348,optionLeft,30,6505,3,33,0,33,0,1,,,,,,,,,,,,,,,,,,,,,,,,,,,,,,,,,,,,,,,
,,,,,,,,2023-08-16_08h22.37.343,HF_wild_card,2022.2.4,Win32,19.99960001,5cb749fda6fe0700189768a5,64d2fd46c836a06233681665,64dc7913709c081eae6f0a93,,,,,,,decisionTrl,resources/DB.BMP,resources/DG.BMP,Door3,-0.312037037,-0.138888889,1,0,0,1.7305,optionLeft,70,6575,3,34,0,34,0,1,,,,,,,,,,,,,,,,,,,,,,,,,,,,,,,,,,,,,,,
,,,,,,,,2023-08-16_08h22.37.343,HF_wild_card,2022.2.4,Win32,19.99960001,5cb749fda6fe0700189768a5,64d2fd46c836a06233681665,64dc7913709c081eae6f0a93,,,,,,,ctch,resources/DB.BMP,resources/DY.BMP,Door3,-0.377777778,-0.146296296,1,0,0,2.8134,optionLeft,70,6645,3,35,0,35,0,1,,,,,,,,,,,,,,,,,,,,,,,,,,,,,,,,,,,,,,,
,,,,,,,,2023-08-16_08h22.37.343,HF_wild_card,2022.2.4,Win32,19.99960001,5cb749fda6fe0700189768a5,64d2fd46c836a06233681665,64dc7913709c081eae6f0a93,,,,,,,decisionTrl,resources/DY.BMP,resources/DR.BMP,Door1,0.353703704,-0.127777778,1,0,0,1.4748,optionRight,30,6675,3,36,0,36,0,1,,,,,,,,,,,,,,,,,,,,,,,,,,,,,,,,,,,,,,,
,,,,,,,,2023-08-16_08h22.37.343,HF_wild_card,2022.2.4,Win32,19.99960001,5cb749fda6fe0700189768a5,64d2fd46c836a06233681665,64dc7913709c081eae6f0a93,,,,,,,decisionTrl,resources/DP.BMP,resources/DY.BMP,WildCard_Ex,-0.35462963,-0.146296296,1,0,0,2.5471,optionLeft,95,6770,3,37,0,37,0,1,,,,,,,,,,,,,,,,,,,,,,,,,,,,,,,,,,,,,,,
,,,,,,,,2023-08-16_08h22.37.343,HF_wild_card,2022.2.4,Win32,19.99960001,5cb749fda6fe0700189768a5,64d2fd46c836a06233681665,64dc7913709c081eae6f0a93,,,,,,,decisionTrl,resources/DG.BMP,resources/DB.BMP,Door3,0.39537037,-0.064814815,1,0,0,1.9134,optionRight,70,6840,3,38,0,38,0,1,,,,,,,,,,,,,,,,,,,,,,,,,,,,,,,,,,,,,,,
,,,,,,,,2023-08-16_08h22.37.343,HF_wild_card,2022.2.4,Win32,19.99960001,5cb749fda6fe0700189768a5,64d2fd46c836a06233681665,64dc7913709c081eae6f0a93,,,,,,,sngl,resources/DR.BMP,resources/Empty.png,Door1,-0.278703704,-0.133333333,1,0,0,1.4273,optionLeft,30,6870,3,39,0,39,0,1,,,,,,,,,,,,,,,,,,,,,,,,,,,,,,,,,,,,,,,
,,,,,,,,2023-08-16_08h22.37.343,HF_wild_card,2022.2.4,Win32,19.99960001,5cb749fda6fe0700189768a5,64d2fd46c836a06233681665,64dc7913709c081eae6f0a93,,,,,,,decisionTrl,resources/DB.BMP,resources/DP.BMP,WildCard_Ex,0.407407407,-0.069444444,1,0,0,1.6621,optionRight,5,6875,3,40,0,40,0,1,,,,,,,,,,,,,,,,,,,,,,,,,,,,,,,,,,,,,,,
,,,,,,,,2023-08-16_08h22.37.343,HF_wild_card,2022.2.4,Win32,19.99960001,5cb749fda6fe0700189768a5,64d2fd46c836a06233681665,64dc7913709c081eae6f0a93,,,,,,,decisionTrl,resources/DG.BMP,resources/DB.BMP,Door3,0.372222222,-0.151851852,1,0,0,2.631,optionRight,70,6945,3,41,0,41,0,1,,,,,,,,,,,,,,,,,,,,,,,,,,,,,,,,,,,,,,,
,,,,,,,,2023-08-16_08h22.37.343,HF_wild_card,2022.2.4,Win32,19.99960001,5cb749fda6fe0700189768a5,64d2fd46c836a06233681665,64dc7913709c081eae6f0a93,,,,,,,decisionTrl,resources/DR.BMP,resources/DY.BMP,Door2,0.402777778,-0.126851852,1,0,0,2.4538,optionRight,40,6985,3,42,0,42,0,1,,,,,,,,,,,,,,,,,,,,,,,,,,,,,,,,,,,,,,,
,,,,,,,,2023-08-16_08h22.37.343,HF_wild_card,2022.2.4,Win32,19.99960001,5cb749fda6fe0700189768a5,64d2fd46c836a06233681665,64dc7913709c081eae6f0a93,,,,,,,ctch,resources/DG.BMP,resources/DR.BMP,Door1,0.372222222,-0.116666667,1,0,0,2.0412,optionRight,30,7015,3,43,0,43,0,1,,,,,,,,,,,,,,,,,,,,,,,,,,,,,,,,,,,,,,,
,,,,,,,,2023-08-16_08h22.37.343,HF_wild_card,2022.2.4,Win32,19.99960001,5cb749fda6fe0700189768a5,64d2fd46c836a06233681665,64dc7913709c081eae6f0a93,,,,,,,,,,,,,,,,,,,,,,,,,,2,0,2,0,1,,,,,,,,,,,,,,,,,,,,,,,,,,,,,,,,,,
,,,,,,,,2023-08-16_08h22.37.343,HF_wild_card,2022.2.4,Win32,19.99960001,5cb749fda6fe0700189768a5,64d2fd46c836a06233681665,64dc7913709c081eae6f0a93,,,,,,,sngl,resources/Empty.png,resources/DG.BMP,Door4,0.39537037,-0.073148148,1,0,0,1.9419,optionRight,80,7095,4,0,0,0,0,1,,,,,,,,,,,,,,,,,,,,,,,,,,,,,,,,,,,,,,,
,,,,,,,,2023-08-16_08h22.37.343,HF_wild_card,2022.2.4,Win32,19.99960001,5cb749fda6fe0700189768a5,64d2fd46c836a06233681665,64dc7913709c081eae6f0a93,,,,,,,decisionTrl,resources/DR.BMP,resources/DY.BMP,Door2,0.434259259,-0.055555556,1,0,0,3.1788,optionRight,40,7135,4,1,0,1,0,1,,,,,,,,,,,,,,,,,,,,,,,,,,,,,,,,,,,,,,,
,,,,,,,,2023-08-16_08h22.37.343,HF_wild_card,2022.2.4,Win32,19.99960001,5cb749fda6fe0700189768a5,64d2fd46c836a06233681665,64dc7913709c081eae6f0a93,,,,,,,ctch,resources/DY.BMP,resources/DB.BMP,Door3,0.355555556,-0.027777778,1,0,0,1.2801,optionRight,70,7205,4,2,0,2,0,1,,,,,,,,,,,,,,,,,,,,,,,,,,,,,,,,,,,,,,,
,,,,,,,,2023-08-16_08h22.37.343,HF_wild_card,2022.2.4,Win32,19.99960001,5cb749fda6fe0700189768a5,64d2fd46c836a06233681665,64dc7913709c081eae6f0a93,,,,,,,decisionTrl,resources/DY.BMP,resources/DR.BMP,Door1,0.352777778,-0.019444444,1,0,0,1.4549,optionRight,30,7235,4,3,0,3,0,1,,,,,,,,,,,,,,,,,,,,,,,,,,,,,,,,,,,,,,,
,,,,,,,,2023-08-16_08h22.37.343,HF_wild_card,2022.2.4,Win32,19.99960001,5cb749fda6fe0700189768a5,64d2fd46c836a06233681665,64dc7913709c081eae6f0a93,,,,,,,decisionTrl,resources/DR.BMP,resources/DY.BMP,Door2,0.401851852,-0.008333333,1,0,0,1.9802,optionRight,20,7255,4,4,0,4,0,1,,,,,,,,,,,,,,,,,,,,,,,,,,,,,,,,,,,,,,,
,,,,,,,,2023-08-16_08h22.37.343,HF_wild_card,2022.2.4,Win32,19.99960001,5cb749fda6fe0700189768a5,64d2fd46c836a06233681665,64dc7913709c081eae6f0a93,,,,,,,decisionTrl,resources/DB.BMP,resources/DG.BMP,Door3,-0.30462963,-0.131481481,1,0,0,2.0453,optionLeft,70,7325,4,5,0,5,0,1,,,,,,,,,,,,,,,,,,,,,,,,,,,,,,,,,,,,,,,
,,,,,,,,2023-08-16_08h22.37.343,HF_wild_card,2022.2.4,Win32,19.99960001,5cb749fda6fe0700189768a5,64d2fd46c836a06233681665,64dc7913709c081eae6f0a93,,,,,,,decisionTrl,resources/DG.BMP,resources/DB.BMP,Door3,0.378703704,-0.008333333,1,0,0,1.2695,optionRight,70,7395,4,6,0,6,0,1,,,,,,,,,,,,,,,,,,,,,,,,,,,,,,,,,,,,,,,
,,,,,,,,2023-08-16_08h22.37.343,HF_wild_card,2022.2.4,Win32,19.99960001,5cb749fda6fe0700189768a5,64d2fd46c836a06233681665,64dc7913709c081eae6f0a93,,,,,,,decisionTrl,resources/DBN.BMP,resources/DY.BMP,WildCard_NonEx,-0.277777778,-0.112962963,1,0,0,2.0499,optionLeft,55,7450,4,7,0,7,0,1,,,,,,,,,,,,,,,,,,,,,,,,,,,,,,,,,,,,,,,
,,,,,,,,2023-08-16_08h22.37.343,HF_wild_card,2022.2.4,Win32,19.99960001,5cb749fda6fe0700189768a5,64d2fd46c836a06233681665,64dc7913709c081eae6f0a93,,,,,,,sngl,resources/Empty.png,resources/DY.BMP,Door2,0.310185185,-0.013888889,1,0,0,1.3857,optionRight,40,7490,4,8,0,8,0,1,,,,,,,,,,,,,,,,,,,,,,,,,,,,,,,,,,,,,,,
,,,,,,,,2023-08-16_08h22.37.343,HF_wild_card,2022.2.4,Win32,19.99960001,5cb749fda6fe0700189768a5,64d2fd46c836a06233681665,64dc7913709c081eae6f0a93,,,,,,,decisionTrl,resources/DY.BMP,resources/DR.BMP,Door1,0.375,-0.006481481,1,0,0,1.6577,optionRight,30,7520,4,9,0,9,0,1,,,,,,,,,,,,,,,,,,,,,,,,,,,,,,,,,,,,,,,
,,,,,,,,2023-08-16_08h22.37.343,HF_wild_card,2022.2.4,Win32,19.99960001,5cb749fda6fe0700189768a5,64d2fd46c836a06233681665,64dc7913709c081eae6f0a93,,,,,,,decisionTrl,resources/DY.BMP,resources/DR.BMP,Door1,0.310185185,-0.021296296,1,0,0,0.9513,optionRight,30,7550,4,10,0,10,0,1,,,,,,,,,,,,,,,,,,,,,,,,,,,,,,,,,,,,,,,
,,,,,,,,2023-08-16_08h22.37.343,HF_wild_card,2022.2.4,Win32,19.99960001,5cb749fda6fe0700189768a5,64d2fd46c836a06233681665,64dc7913709c081eae6f0a93,,,,,,,ctch,resources/DR.BMP,resources/DG.BMP,Door4,0.37962963,-0.043518519,1,0,0,1.6714,optionRight,80,7630,4,11,0,11,0,1,,,,,,,,,,,,,,,,,,,,,,,,,,,,,,,,,,,,,,,
,,,,,,,,2023-08-16_08h22.37.343,HF_wild_card,2022.2.4,Win32,19.99960001,5cb749fda6fe0700189768a5,64d2fd46c836a06233681665,64dc7913709c081eae6f0a93,,,,,,,decisionTrl,resources/DB.BMP,resources/DBN.BMP,WildCard_NonEx,0.313888889,-0.102777778,1,0,0,1.9236,optionRight,55,7685,4,12,0,12,0,1,,,,,,,,,,,,,,,,,,,,,,,,,,,,,,,,,,,,,,,
,,,,,,,,2023-08-16_08h22.37.343,HF_wild_card,2022.2.4,Win32,19.99960001,5cb749fda6fe0700189768a5,64d2fd46c836a06233681665,64dc7913709c081eae6f0a93,,,,,,,decisionTrl,resources/DY.BMP,resources/DBN.BMP,WildCard_NonEx,0.407407407,-0.075925926,1,0,0,2.233,optionRight,55,7740,4,13,0,13,0,1,,,,,,,,,,,,,,,,,,,,,,,,,,,,,,,,,,,,,,,
,,,,,,,,2023-08-16_08h22.37.343,HF_wild_card,2022.2.4,Win32,19.99960001,5cb749fda6fe0700189768a5,64d2fd46c836a06233681665,64dc7913709c081eae6f0a93,,,,,,,decisionTrl,resources/DR.BMP,resources/DY.BMP,Door2,0.403703704,-0.09537037,1,0,0,2.4409,optionRight,40,7780,4,14,0,14,0,1,,,,,,,,,,,,,,,,,,,,,,,,,,,,,,,,,,,,,,,
,,,,,,,,2023-08-16_08h22.37.343,HF_wild_card,2022.2.4,Win32,19.99960001,5cb749fda6fe0700189768a5,64d2fd46c836a06233681665,64dc7913709c081eae6f0a93,,,,,,,ctch,resources/DG.BMP,resources/DR.BMP,Door4,-0.361111111,-0.1,1,0,0,1.9273,optionLeft,60,7840,4,15,0,15,0,1,,,,,,,,,,,,,,,,,,,,,,,,,,,,,,,,,,,,,,,
,,,,,,,,2023-08-16_08h22.37.343,HF_wild_card,2022.2.4,Win32,19.99960001,5cb749fda6fe0700189768a5,64d2fd46c836a06233681665,64dc7913709c081eae6f0a93,,,,,,,decisionTrl,resources/DB.BMP,resources/DG.BMP,Door3,-0.394444444,-0.113888889,1,0,0,1.6722,optionLeft,70,7910,4,16,0,16,0,1,,,,,,,,,,,,,,,,,,,,,,,,,,,,,,,,,,,,,,,
,,,,,,,,2023-08-16_08h22.37.343,HF_wild_card,2022.2.4,Win32,19.99960001,5cb749fda6fe0700189768a5,64d2fd46c836a06233681665,64dc7913709c081eae6f0a93,,,,,,,sngl,resources/Empty.png,resources/DBN.BMP,WildCard_NonEx,0.386111111,-0.062962963,1,0,0,1.3281,optionRight,55,7965,4,17,0,17,0,1,,,,,,,,,,,,,,,,,,,,,,,,,,,,,,,,,,,,,,,
,,,,,,,,2023-08-16_08h22.37.343,HF_wild_card,2022.2.4,Win32,19.99960001,5cb749fda6fe0700189768a5,64d2fd46c836a06233681665,64dc7913709c081eae6f0a93,,,,,,,sngl,resources/DBN.BMP,resources/Empty.png,WildCard_NonEx,-0.327777778,-0.102777778,1,0,0,1.0605,optionLeft,45,8010,4,18,0,18,0,1,,,,,,,,,,,,,,,,,,,,,,,,,,,,,,,,,,,,,,,
,,,,,,,,2023-08-16_08h22.37.343,HF_wild_card,2022.2.4,Win32,19.99960001,5cb749fda6fe0700189768a5,64d2fd46c836a06233681665,64dc7913709c081eae6f0a93,,,,,,,ctch,resources/DR.BMP,resources/DG.BMP,Door4,0.374074074,-0.02962963,1,0,0,1.7343,optionRight,60,8070,4,19,0,19,0,1,,,,,,,,,,,,,,,,,,,,,,,,,,,,,,,,,,,,,,,
,,,,,,,,2023-08-16_08h22.37.343,HF_wild_card,2022.2.4,Win32,19.99960001,5cb749fda6fe0700189768a5,64d2fd46c836a06233681665,64dc7913709c081eae6f0a93,,,,,,,decisionTrl,resources/DG.BMP,resources/DBN.BMP,Door4,-0.337037037,-0.148148148,1,0,0,2.4897,optionLeft,80,8150,4,20,0,20,0,1,,,,,,,,,,,,,,,,,,,,,,,,,,,,,,,,,,,,,,,
,,,,,,,,2023-08-16_08h22.37.343,HF_wild_card,2022.2.4,Win32,19.99960001,5cb749fda6fe0700189768a5,64d2fd46c836a06233681665,64dc7913709c081eae6f0a93,,,,,,,decisionTrl,resources/DR.BMP,resources/DY.BMP,Door2,0.346296296,-0.043518519,1,0,0,1.662,optionRight,20,8170,4,21,0,21,0,1,,,,,,,,,,,,,,,,,,,,,,,,,,,,,,,,,,,,,,,
,,,,,,,,2023-08-16_08h22.37.343,HF_wild_card,2022.2.4,Win32,19.99960001,5cb749fda6fe0700189768a5,64d2fd46c836a06233681665,64dc7913709c081eae6f0a93,,,,,,,ctch,resources/DB.BMP,resources/DY.BMP,Door3,-0.412962963,-0.111111111,1,0,0,1.7253,optionLeft,70,8240,4,22,0,22,0,1,,,,,,,,,,,,,,,,,,,,,,,,,,,,,,,,,,,,,,,
,,,,,,,,2023-08-16_08h22.37.343,HF_wild_card,2022.2.4,Win32,19.99960001,5cb749fda6fe0700189768a5,64d2fd46c836a06233681665,64dc7913709c081eae6f0a93,,,,,,,decisionTrl,resources/DG.BMP,resources/DB.BMP,Door3,0.308333333,-0.074074074,1,0,0,2.2261,optionRight,70,8310,4,23,0,23,0,1,,,,,,,,,,,,,,,,,,,,,,,,,,,,,,,,,,,,,,,
,,,,,,,,2023-08-16_08h22.37.343,HF_wild_card,2022.2.4,Win32,19.99960001,5cb749fda6fe0700189768a5,64d2fd46c836a06233681665,64dc7913709c081eae6f0a93,,,,,,,sngl,resources/DY.BMP,resources/Empty.png,Door2,-0.371296296,-0.148148148,1,0,0,1.1427,optionLeft,20,8330,4,24,0,24,0,1,,,,,,,,,,,,,,,,,,,,,,,,,,,,,,,,,,,,,,,
,,,,,,,,2023-08-16_08h22.37.343,HF_wild_card,2022.2.4,Win32,19.99960001,5cb749fda6fe0700189768a5,64d2fd46c836a06233681665,64dc7913709c081eae6f0a93,,,,,,,sngl,resources/DR.BMP,resources/Empty.png,Door1,-0.312962963,-0.087962963,1,0,0,1.1959,optionLeft,30,8360,4,25,0,25,0,1,,,,,,,,,,,,,,,,,,,,,,,,,,,,,,,,,,,,,,,
,,,,,,,,2023-08-16_08h22.37.343,HF_wild_card,2022.2.4,Win32,19.99960001,5cb749fda6fe0700189768a5,64d2fd46c836a06233681665,64dc7913709c081eae6f0a93,,,,,,,sngl,resources/DBN.BMP,resources/Empty.png,WildCard_NonEx,-0.276851852,-0.090740741,1,0,0,1.1254,optionLeft,55,8415,4,26,0,26,0,1,,,,,,,,,,,,,,,,,,,,,,,,,,,,,,,,,,,,,,,
,,,,,,,,2023-08-16_08h22.37.343,HF_wild_card,2022.2.4,Win32,19.99960001,5cb749fda6fe0700189768a5,64d2fd46c836a06233681665,64dc7913709c081eae6f0a93,,,,,,,sngl,resources/DB.BMP,resources/Empty.png,Door3,-0.346296296,-0.101851852,1,0,0,1.0342,optionLeft,70,8485,4,27,0,27,0,1,,,,,,,,,,,,,,,,,,,,,,,,,,,,,,,,,,,,,,,
,,,,,,,,2023-08-16_08h22.37.343,HF_wild_card,2022.2.4,Win32,19.99960001,5cb749fda6fe0700189768a5,64d2fd46c836a06233681665,64dc7913709c081eae6f0a93,,,,,,,decisionTrl,resources/DY.BMP,resources/DR.BMP,Door1,0.427777778,-0.086111111,1,0,0,1.3546,optionRight,30,8515,4,28,0,28,0,1,,,,,,,,,,,,,,,,,,,,,,,,,,,,,,,,,,,,,,,
,,,,,,,,2023-08-16_08h22.37.343,HF_wild_card,2022.2.4,Win32,19.99960001,5cb749fda6fe0700189768a5,64d2fd46c836a06233681665,64dc7913709c081eae6f0a93,,,,,,,sngl,resources/Empty.png,resources/DB.BMP,Door3,0.368518519,-0.101851852,1,0,0,1.4601,optionRight,70,8585,4,29,0,29,0,1,,,,,,,,,,,,,,,,,,,,,,,,,,,,,,,,,,,,,,,
,,,,,,,,2023-08-16_08h22.37.343,HF_wild_card,2022.2.4,Win32,19.99960001,5cb749fda6fe0700189768a5,64d2fd46c836a06233681665,64dc7913709c081eae6f0a93,,,,,,,sngl,resources/Empty.png,resources/DR.BMP,Door1,0.343518519,-0.105555556,1,0,0,1.2543,optionRight,30,8615,4,30,0,30,0,1,,,,,,,,,,,,,,,,,,,,,,,,,,,,,,,,,,,,,,,
,,,,,,,,2023-08-16_08h22.37.343,HF_wild_card,2022.2.4,Win32,19.99960001,5cb749fda6fe0700189768a5,64d2fd46c836a06233681665,64dc7913709c081eae6f0a93,,,,,,,decisionTrl,resources/DBN.BMP,resources/DR.BMP,WildCard_NonEx,-0.288888889,-0.119444444,1,0,0,2.3113,optionLeft,55,8670,4,31,0,31,0,1,,,,,,,,,,,,,,,,,,,,,,,,,,,,,,,,,,,,,,,
,,,,,,,,2023-08-16_08h22.37.343,HF_wild_card,2022.2.4,Win32,19.99960001,5cb749fda6fe0700189768a5,64d2fd46c836a06233681665,64dc7913709c081eae6f0a93,,,,,,,sngl,resources/Empty.png,resources/DBN.BMP,WildCard_NonEx,0.322222222,-0.074074074,1,0,0,0.9553,optionRight,45,8715,4,32,0,32,0,1,,,,,,,,,,,,,,,,,,,,,,,,,,,,,,,,,,,,,,,
,,,,,,,,2023-08-16_08h22.37.343,HF_wild_card,2022.2.4,Win32,19.99960001,5cb749fda6fe0700189768a5,64d2fd46c836a06233681665,64dc7913709c081eae6f0a93,,,,,,,ctch,resources/DY.BMP,resources/DB.BMP,Door3,0.383333333,-0.106481481,1,0,0,1.3435,optionRight,70,8785,4,33,0,33,0,1,,,,,,,,,,,,,,,,,,,,,,,,,,,,,,,,,,,,,,,
,,,,,,,,2023-08-16_08h22.37.343,HF_wild_card,2022.2.4,Win32,19.99960001,5cb749fda6fe0700189768a5,64d2fd46c836a06233681665,64dc7913709c081eae6f0a93,,,,,,,decisionTrl,resources/DBN.BMP,resources/DG.BMP,Door4,0.40462963,-0.080555556,1,0,0,3.2557,optionRight,60,8845,4,34,0,34,0,1,,,,,,,,,,,,,,,,,,,,,,,,,,,,,,,,,,,,,,,
,,,,,,,,2023-08-16_08h22.37.343,HF_wild_card,2022.2.4,Win32,19.99960001,5cb749fda6fe0700189768a5,64d2fd46c836a06233681665,64dc7913709c081eae6f0a93,,,,,,,decisionTrl,resources/DR.BMP,resources/DBN.BMP,WildCard_NonEx,0.35,-0.07962963,1,0,0,2.3462,optionRight,45,8890,4,35,0,35,0,1,,,,,,,,,,,,,,,,,,,,,,,,,,,,,,,,,,,,,,,
,,,,,,,,2023-08-16_08h22.37.343,HF_wild_card,2022.2.4,Win32,19.99960001,5cb749fda6fe0700189768a5,64d2fd46c836a06233681665,64dc7913709c081eae6f0a93,,,,,,,decisionTrl,resources/DG.BMP,resources/DB.BMP,Door3,0.386111111,-0.085185185,1,0,0,2.4243,optionRight,70,8960,4,36,0,36,0,1,,,,,,,,,,,,,,,,,,,,,,,,,,,,,,,,,,,,,,,
,,,,,,,,2023-08-16_08h22.37.343,HF_wild_card,2022.2.4,Win32,19.99960001,5cb749fda6fe0700189768a5,64d2fd46c836a06233681665,64dc7913709c081eae6f0a93,,,,,,,ctch,resources/DG.BMP,resources/DR.BMP,Door4,-0.331481481,-0.064814815,1,0,0,1.4042,optionLeft,80,9040,4,37,0,37,0,1,,,,,,,,,,,,,,,,,,,,,,,,,,,,,,,,,,,,,,,
,,,,,,,,2023-08-16_08h22.37.343,HF_wild_card,2022.2.4,Win32,19.99960001,5cb749fda6fe0700189768a5,64d2fd46c836a06233681665,64dc7913709c081eae6f0a93,,,,,,,ctch,resources/DB.BMP,resources/DY.BMP,Door3,-0.303703704,-0.12037037,1,0,0,1.7385,optionLeft,70,9110,4,38,0,38,0,1,,,,,,,,,,,,,,,,,,,,,,,,,,,,,,,,,,,,,,,
,,,,,,,,2023-08-16_08h22.37.343,HF_wild_card,2022.2.4,Win32,19.99960001,5cb749fda6fe0700189768a5,64d2fd46c836a06233681665,64dc7913709c081eae6f0a93,,,,,,,sngl,resources/DG.BMP,resources/Empty.png,Door4,-0.289814815,-0.083333333,1,0,0,1.2573,optionLeft,60,9170,4,39,0,39,0,1,,,,,,,,,,,,,,,,,,,,,,,,,,,,,,,,,,,,,,,
,,,,,,,,2023-08-16_08h22.37.343,HF_wild_card,2022.2.4,Win32,19.99960001,5cb749fda6fe0700189768a5,64d2fd46c836a06233681665,64dc7913709c081eae6f0a93,,,,,,,decisionTrl,resources/DB.BMP,resources/DG.BMP,Door3,-0.32037037,-0.136111111,1,0,0,1.9927,optionLeft,70,9240,4,40,0,40,0,1,,,,,,,,,,,,,,,,,,,,,,,,,,,,,,,,,,,,,,,
,,,,,,,,2023-08-16_08h22.37.343,HF_wild_card,2022.2.4,Win32,19.99960001,5cb749fda6fe0700189768a5,64d2fd46c836a06233681665,64dc7913709c081eae6f0a93,,,,,,,decisionTrl,resources/DG.BMP,resources/DB.BMP,Door3,0.297222222,-0.067592593,1,0,0,1.598,optionRight,70,9310,4,41,0,41,0,1,,,,,,,,,,,,,,,,,,,,,,,,,,,,,,,,,,,,,,,
,,,,,,,,2023-08-16_08h22.37.343,HF_wild_card,2022.2.4,Win32,19.99960001,5cb749fda6fe0700189768a5,64d2fd46c836a06233681665,64dc7913709c081eae6f0a93,,,,,,,decisionTrl,resources/DB.BMP,resources/DG.BMP,Door4,0.349074074,-0.066666667,1,0,0,2.4323,optionRight,60,9370,4,42,0,42,0,1,,,,,,,,,,,,,,,,,,,,,,,,,,,,,,,,,,,,,,,
,,,,,,,,2023-08-16_08h22.37.343,HF_wild_card,2022.2.4,Win32,19.99960001,5cb749fda6fe0700189768a5,64d2fd46c836a06233681665,64dc7913709c081eae6f0a93,,,,,,,decisionTrl,resources/DBN.BMP,resources/DB.BMP,Door3,0.374074074,-0.057407407,1,0,0,1.611,optionRight,70,9440,4,43,0,43,0,1,,,,,,,,,,,,,,,,,,,,,,,,,,,,,,,,,,,,,,,
,,,,,,,,2023-08-16_08h22.37.343,HF_wild_card,2022.2.4,Win32,19.99960001,5cb749fda6fe0700189768a5,64d2fd46c836a06233681665,64dc7913709c081eae6f0a93,,,,,,,,,,,,,,,,,,,,,,,,,,3,0,3,0,1,,,,,,,,,,,,,,,,,,,,,,,,,,,,,,,,,,
,,,,,,,,2023-08-16_08h22.37.343,HF_wild_card,2022.2.4,Win32,19.99960001,5cb749fda6fe0700189768a5,64d2fd46c836a06233681665,64dc7913709c081eae6f0a93,,,,,,,decisionTrl,resources/DG.BMP,resources/DB.BMP,Door3,0.347222222,-0.157407407,1,0,0,1.6733,optionRight,70,9510,5,0,0,0,0,1,,,,,,,,,,,,,,,,,,,,,,,,,,,,,,,,,,,,,,,
,,,,,,,,2023-08-16_08h22.37.343,HF_wild_card,2022.2.4,Win32,19.99960001,5cb749fda6fe0700189768a5,64d2fd46c836a06233681665,64dc7913709c081eae6f0a93,,,,,,,decisionTrl,resources/DBN.BMP,resources/DG.BMP,Door4,0.42962963,-0.057407407,1,0,0,1.4019,optionRight,80,9590,5,1,0,1,0,1,,,,,,,,,,,,,,,,,,,,,,,,,,,,,,,,,,,,,,,
,,,,,,,,2023-08-16_08h22.37.343,HF_wild_card,2022.2.4,Win32,19.99960001,5cb749fda6fe0700189768a5,64d2fd46c836a06233681665,64dc7913709c081eae6f0a93,,,,,,,decisionTrl,resources/DB.BMP,resources/DG.BMP,Door4,0.42962963,-0.072222222,1,0,0,1.6678,optionRight,60,9650,5,2,0,2,0,1,,,,,,,,,,,,,,,,,,,,,,,,,,,,,,,,,,,,,,,
,,,,,,,,2023-08-16_08h22.37.343,HF_wild_card,2022.2.4,Win32,19.99960001,5cb749fda6fe0700189768a5,64d2fd46c836a06233681665,64dc7913709c081eae6f0a93,,,,,,,decisionTrl,resources/DY.BMP,resources/DBN.BMP,WildCard_NonEx,0.418518519,-0.039814815,1,0,0,1.2802,optionRight,45,9695,5,3,0,3,0,1,,,,,,,,,,,,,,,,,,,,,,,,,,,,,,,,,,,,,,,
,,,,,,,,2023-08-16_08h22.37.343,HF_wild_card,2022.2.4,Win32,19.99960001,5cb749fda6fe0700189768a5,64d2fd46c836a06233681665,64dc7913709c081eae6f0a93,,,,,,,decisionTrl,resources/DY.BMP,resources/DR.BMP,Door1,0.330555556,-0.067592593,1,0,0,1.1512,optionRight,30,9725,5,4,0,4,0,1,,,,,,,,,,,,,,,,,,,,,,,,,,,,,,,,,,,,,,,
,,,,,,,,2023-08-16_08h22.37.343,HF_wild_card,2022.2.4,Win32,19.99960001,5cb749fda6fe0700189768a5,64d2fd46c836a06233681665,64dc7913709c081eae6f0a93,,,,,,,decisionTrl,resources/DR.BMP,resources/DY.BMP,Door2,0.416666667,-0.051851852,1,0,0,1.5991,optionRight,20,9745,5,5,0,5,0,1,,,,,,,,,,,,,,,,,,,,,,,,,,,,,,,,,,,,,,,
,,,,,,,,2023-08-16_08h22.37.343,HF_wild_card,2022.2.4,Win32,19.99960001,5cb749fda6fe0700189768a5,64d2fd46c836a06233681665,64dc7913709c081eae6f0a93,,,,,,,decisionTrl,resources/DR.BMP,resources/DBN.BMP,WildCard_NonEx,0.375925926,-0.062962963,1,0,0,1.3032,optionRight,55,9800,5,6,0,6,0,1,,,,,,,,,,,,,,,,,,,,,,,,,,,,,,,,,,,,,,,
,,,,,,,,2023-08-16_08h22.37.343,HF_wild_card,2022.2.4,Win32,19.99960001,5cb749fda6fe0700189768a5,64d2fd46c836a06233681665,64dc7913709c081eae6f0a93,,,,,,,sngl,resources/DR.BMP,resources/Empty.png,Door1,-0.352777778,-0.12962963,1,0,0,1.068,optionLeft,30,9830,5,7,0,7,0,1,,,,,,,,,,,,,,,,,,,,,,,,,,,,,,,,,,,,,,,
,,,,,,,,2023-08-16_08h22.37.343,HF_wild_card,2022.2.4,Win32,19.99960001,5cb749fda6fe0700189768a5,64d2fd46c836a06233681665,64dc7913709c081eae6f0a93,,,,,,,sngl,resources/Empty.png,resources/DBN.BMP,WildCard_NonEx,0.369444444,-0.043518519,1,0,0,0.9588,optionRight,45,9875,5,8,0,8,0,1,,,,,,,,,,,,,,,,,,,,,,,,,,,,,,,,,,,,,,,
,,,,,,,,2023-08-16_08h22.37.343,HF_wild_card,2022.2.4,Win32,19.99960001,5cb749fda6fe0700189768a5,64d2fd46c836a06233681665,64dc7913709c081eae6f0a93,,,,,,,decisionTrl,resources/DB.BMP,resources/DG.BMP,Door4,0.412962963,-0.097222222,1,0,0,1.4639,optionRight,60,9935,5,9,0,9,0,1,,,,,,,,,,,,,,,,,,,,,,,,,,,,,,,,,,,,,,,
,,,,,,,,2023-08-16_08h22.37.343,HF_wild_card,2022.2.4,Win32,19.99960001,5cb749fda6fe0700189768a5,64d2fd46c836a06233681665,64dc7913709c081eae6f0a93,,,,,,,sngl,resources/Empty.png,resources/DG.BMP,Door4,0.573148148,-0.055555556,1,0,0,0.8267,optionRight,60,9995,5,10,0,10,0,1,,,,,,,,,,,,,,,,,,,,,,,,,,,,,,,,,,,,,,,
,,,,,,,,2023-08-16_08h22.37.343,HF_wild_card,2022.2.4,Win32,19.99960001,5cb749fda6fe0700189768a5,64d2fd46c836a06233681665,64dc7913709c081eae6f0a93,,,,,,,ctch,resources/DB.BMP,resources/DY.BMP,Door3,-0.32962963,-0.103703704,1,0,0,1.9156,optionLeft,70,10065,5,11,0,11,0,1,,,,,,,,,,,,,,,,,,,,,,,,,,,,,,,,,,,,,,,
,,,,,,,,2023-08-16_08h22.37.343,HF_wild_card,2022.2.4,Win32,19.99960001,5cb749fda6fe0700189768a5,64d2fd46c836a06233681665,64dc7913709c081eae6f0a93,,,,,,,ctch,resources/DG.BMP,resources/DR.BMP,Door4,-0.311111111,-0.117592593,1,0,0,2.0961,optionLeft,80,10145,5,12,0,12,0,1,,,,,,,,,,,,,,,,,,,,,,,,,,,,,,,,,,,,,,,
,,,,,,,,2023-08-16_08h22.37.343,HF_wild_card,2022.2.4,Win32,19.99960001,5cb749fda6fe0700189768a5,64d2fd46c836a06233681665,64dc7913709c081eae6f0a93,,,,,,,sngl,resources/DY.BMP,resources/Empty.png,Door2,-0.300925926,-0.115740741,1,0,0,1.2697,optionLeft,40,10185,5,13,0,13,0,1,,,,,,,,,,,,,,,,,,,,,,,,,,,,,,,,,,,,,,,
,,,,,,,,2023-08-16_08h22.37.343,HF_wild_card,2022.2.4,Win32,19.99960001,5cb749fda6fe0700189768a5,64d2fd46c836a06233681665,64dc7913709c081eae6f0a93,,,,,,,decisionTrl,resources/DY.BMP,resources/DR.BMP,Door1,0.427777778,-0.080555556,1,0,0,1.206,optionRight,30,10215,5,14,0,14,0,1,,,,,,,,,,,,,,,,,,,,,,,,,,,,,,,,,,,,,,,
,,,,,,,,2023-08-16_08h22.37.343,HF_wild_card,2022.2.4,Win32,19.99960001,5cb749fda6fe0700189768a5,64d2fd46c836a06233681665,64dc7913709c081eae6f0a93,,,,,,,ctch,resources/DR.BMP,resources/DG.BMP,Door4,0.423148148,-0.067592593,1,0,0,1.3491,optionRight,60,10275,5,15,0,15,0,1,,,,,,,,,,,,,,,,,,,,,,,,,,,,,,,,,,,,,,,
,,,,,,,,2023-08-16_08h22.37.343,HF_wild_card,2022.2.4,Win32,19.99960001,5cb749fda6fe0700189768a5,64d2fd46c836a06233681665,64dc7913709c081eae6f0a93,,,,,,,ctch,resources/DG.BMP,resources/DR.BMP,Door4,-0.388888889,-0.140740741,1,0,0,1.856,optionLeft,60,10335,5,16,0,16,0,1,,,,,,,,,,,,,,,,,,,,,,,,,,,,,,,,,,,,,,,
,,,,,,,,2023-08-16_08h22.37.343,HF_wild_card,2022.2.4,Win32,19.99960001,5cb749fda6fe0700189768a5,64d2fd46c836a06233681665,64dc7913709c081eae6f0a93,,,,,,,decisionTrl,resources/DB.BMP,resources/DBN.BMP,Door3,-0.291666667,-0.124074074,1,0,0,1.8428,optionLeft,70,10405,5,17,0,17,0,1,,,,,,,,,,,,,,,,,,,,,,,,,,,,,,,,,,,,,,,
,,,,,,,,2023-08-16_08h22.37.343,HF_wild_card,2022.2.4,Win32,19.99960001,5cb749fda6fe0700189768a5,64d2fd46c836a06233681665,64dc7913709c081eae6f0a93,,,,,,,sngl,resources/Empty.png,resources/DR.BMP,Door1,0.352777778,-0.090740741,1,0,0,1.3282,optionRight,30,10435,5,18,0,18,0,1,,,,,,,,,,,,,,,,,,,,,,,,,,,,,,,,,,,,,,,
,,,,,,,,2023-08-16_08h22.37.343,HF_wild_card,2022.2.4,Win32,19.99960001,5cb749fda6fe0700189768a5,64d2fd46c836a06233681665,64dc7913709c081eae6f0a93,,,,,,,sngl,resources/DBN.BMP,resources/Empty.png,WildCard_NonEx,-0.322222222,-0.224074074,1,0,0,2.2112,optionLeft,45,10480,5,19,0,19,0,1,,,,,,,,,,,,,,,,,,,,,,,,,,,,,,,,,,,,,,,
,,,,,,,,2023-08-16_08h22.37.343,HF_wild_card,2022.2.4,Win32,19.99960001,5cb749fda6fe0700189768a5,64d2fd46c836a06233681665,64dc7913709c081eae6f0a93,,,,,,,decisionTrl,resources/DG.BMP,resources/DB.BMP,Door3,0.321296296,-0.111111111,1,0,0,1.0901,optionRight,70,10550,5,20,0,20,0,1,,,,,,,,,,,,,,,,,,,,,,,,,,,,,,,,,,,,,,,
,,,,,,,,2023-08-16_08h22.37.343,HF_wild_card,2022.2.4,Win32,19.99960001,5cb749fda6fe0700189768a5,64d2fd46c836a06233681665,64dc7913709c081eae6f0a93,,,,,,,decisionTrl,resources/DY.BMP,resources/DR.BMP,Door1,0.350925926,-0.116666667,1,0,0,1.5953,optionRight,30,10580,5,21,0,21,0,1,,,,,,,,,,,,,,,,,,,,,,,,,,,,,,,,,,,,,,,
,,,,,,,,2023-08-16_08h22.37.343,HF_wild_card,2022.2.4,Win32,19.99960001,5cb749fda6fe0700189768a5,64d2fd46c836a06233681665,64dc7913709c081eae6f0a93,,,,,,,sngl,resources/Empty.png,resources/DBN.BMP,WildCard_NonEx,0.359259259,-0.099074074,1,0,0,0.9579,optionRight,55,10635,5,22,0,22,0,1,,,,,,,,,,,,,,,,,,,,,,,,,,,,,,,,,,,,,,,
,,,,,,,,2023-08-16_08h22.37.343,HF_wild_card,2022.2.4,Win32,19.99960001,5cb749fda6fe0700189768a5,64d2fd46c836a06233681665,64dc7913709c081eae6f0a93,,,,,,,ctch,resources/DY.BMP,resources/DB.BMP,Door3,0.377777778,-0.122222222,1,0,0,2.6153,optionRight,70,10705,5,23,0,23,0,1,,,,,,,,,,,,,,,,,,,,,,,,,,,,,,,,,,,,,,,
,,,,,,,,2023-08-16_08h22.37.343,HF_wild_card,2022.2.4,Win32,19.99960001,5cb749fda6fe0700189768a5,64d2fd46c836a06233681665,64dc7913709c081eae6f0a93,,,,,,,ctch,resources/DB.BMP,resources/DY.BMP,Door3,-0.365740741,-0.139814815,1,0,0,2.8136,optionLeft,70,10775,5,24,0,24,0,1,,,,,,,,,,,,,,,,,,,,,,,,,,,,,,,,,,,,,,,
,,,,,,,,2023-08-16_08h22.37.343,HF_wild_card,2022.2.4,Win32,19.99960001,5cb749fda6fe0700189768a5,64d2fd46c836a06233681665,64dc7913709c081eae6f0a93,,,,,,,decisionTrl,resources/DBN.BMP,resources/DB.BMP,Door3,0.328703704,-0.064814815,1,0,0,1.4743,optionRight,70,10845,5,25,0,25,0,1,,,,,,,,,,,,,,,,,,,,,,,,,,,,,,,,,,,,,,,
,,,,,,,,2023-08-16_08h22.37.343,HF_wild_card,2022.2.4,Win32,19.99960001,5cb749fda6fe0700189768a5,64d2fd46c836a06233681665,64dc7913709c081eae6f0a93,,,,,,,ctch,resources/DY.BMP,resources/DB.BMP,Door3,0.372222222,-0.085185185,1,0,0,0.9517,optionRight,70,10915,5,26,0,26,0,1,,,,,,,,,,,,,,,,,,,,,,,,,,,,,,,,,,,,,,,
,,,,,,,,2023-08-16_08h22.37.343,HF_wild_card,2022.2.4,Win32,19.99960001,5cb749fda6fe0700189768a5,64d2fd46c836a06233681665,64dc7913709c081eae6f0a93,,,,,,,ctch,resources/DR.BMP,resources/DG.BMP,Door4,0.37962963,-0.088888889,1,0,0,1.1625,optionRight,80,10995,5,27,0,27,0,1,,,,,,,,,,,,,,,,,,,,,,,,,,,,,,,,,,,,,,,
,,,,,,,,2023-08-16_08h22.37.343,HF_wild_card,2022.2.4,Win32,19.99960001,5cb749fda6fe0700189768a5,64d2fd46c836a06233681665,64dc7913709c081eae6f0a93,,,,,,,sngl,resources/Empty.png,resources/DB.BMP,Door3,0.387037037,-0.082407407,1,0,0,0.9377,optionRight,70,11065,5,28,0,28,0,1,,,,,,,,,,,,,,,,,,,,,,,,,,,,,,,,,,,,,,,
,,,,,,,,2023-08-16_08h22.37.343,HF_wild_card,2022.2.4,Win32,19.99960001,5cb749fda6fe0700189768a5,64d2fd46c836a06233681665,64dc7913709c081eae6f0a93,,,,,,,decisionTrl,resources/DB.BMP,resources/DG.BMP,Door3,-0.390740741,-0.038888889,1,0,0,2.5457,optionLeft,70,11135,5,29,0,29,0,1,,,,,,,,,,,,,,,,,,,,,,,,,,,,,,,,,,,,,,,
,,,,,,,,2023-08-16_08h22.37.343,HF_wild_card,2022.2.4,Win32,19.99960001,5cb749fda6fe0700189768a5,64d2fd46c836a06233681665,64dc7913709c081eae6f0a93,,,,,,,decisionTrl,resources/DR.BMP,resources/DY.BMP,Door2,0.397222222,-0.112037037,1,0,0,1.405,optionRight,40,11175,5,30,0,30,0,1,,,,,,,,,,,,,,,,,,,,,,,,,,,,,,,,,,,,,,,
,,,,,,,,2023-08-16_08h22.37.343,HF_wild_card,2022.2.4,Win32,19.99960001,5cb749fda6fe0700189768a5,64d2fd46c836a06233681665,64dc7913709c081eae6f0a93,,,,,,,sngl,resources/DB.BMP,resources/Empty.png,Door3,-0.287037037,-0.085185185,1,0,0,1.1795,optionLeft,70,11245,5,31,0,31,0,1,,,,,,,,,,,,,,,,,,,,,,,,,,,,,,,,,,,,,,,
,,,,,,,,2023-08-16_08h22.37.343,HF_wild_card,2022.2.4,Win32,19.99960001,5cb749fda6fe0700189768a5,64d2fd46c836a06233681665,64dc7913709c081eae6f0a93,,,,,,,decisionTrl,resources/DB.BMP,resources/DG.BMP,Door3,-0.290740741,-0.109259259,1,0,0,1.0905,optionLeft,70,11315,5,32,0,32,0,1,,,,,,,,,,,,,,,,,,,,,,,,,,,,,,,,,,,,,,,
,,,,,,,,2023-08-16_08h22.37.343,HF_wild_card,2022.2.4,Win32,19.99960001,5cb749fda6fe0700189768a5,64d2fd46c836a06233681665,64dc7913709c081eae6f0a93,,,,,,,decisionTrl,resources/DBN.BMP,resources/DR.BMP,Door1,0.310185185,-0.075925926,1,0,0,1.5971,optionRight,30,11345,5,33,0,33,0,1,,,,,,,,,,,,,,,,,,,,,,,,,,,,,,,,,,,,,,,
,,,,,,,,2023-08-16_08h22.37.343,HF_wild_card,2022.2.4,Win32,19.99960001,5cb749fda6fe0700189768a5,64d2fd46c836a06233681665,64dc7913709c081eae6f0a93,,,,,,,decisionTrl,resources/DG.BMP,resources/DBN.BMP,WildCard_NonEx,0.314814815,-0.052777778,1,0,0,0.8311,optionRight,45,11390,5,34,0,34,0,1,,,,,,,,,,,,,,,,,,,,,,,,,,,,,,,,,,,,,,,
,,,,,,,,2023-08-16_08h22.37.343,HF_wild_card,2022.2.4,Win32,19.99960001,5cb749fda6fe0700189768a5,64d2fd46c836a06233681665,64dc7913709c081eae6f0a93,,,,,,,sngl,resources/DBN.BMP,resources/Empty.png,WildCard_NonEx,-0.280555556,-0.068518519,1,0,0,1.1144,optionLeft,55,11445,5,35,0,35,0,1,,,,,,,,,,,,,,,,,,,,,,,,,,,,,,,,,,,,,,,
,,,,,,,,2023-08-16_08h22.37.343,HF_wild_card,2022.2.4,Win32,19.99960001,5cb749fda6fe0700189768a5,64d2fd46c836a06233681665,64dc7913709c081eae6f0a93,,,,,,,decisionTrl,resources/DR.BMP,resources/DY.BMP,Door2,0.338888889,-0.108333333,1,0,0,1.9308,optionRight,20,11465,5,36,0,36,0,1,,,,,,,,,,,,,,,,,,,,,,,,,,,,,,,,,,,,,,,
,,,,,,,,2023-08-16_08h22.37.343,HF_wild_card,2022.2.4,Win32,19.99960001,5cb749fda6fe0700189768a5,64d2fd46c836a06233681665,64dc7913709c081eae6f0a93,,,,,,,decisionTrl,resources/DY.BMP,resources/DR.BMP,Door1,0.331481481,-0.078703704,1,0,0,1.4134,optionRight,30,11495,5,37,0,37,0,1,,,,,,,,,,,,,,,,,,,,,,,,,,,,,,,,,,,,,,,
,,,,,,,,2023-08-16_08h22.37.343,HF_wild_card,2022.2.4,Win32,19.99960001,5cb749fda6fe0700189768a5,64d2fd46c836a06233681665,64dc7913709c081eae6f0a93,,,,,,,sngl,resources/DG.BMP,resources/Empty.png,Door4,-0.265740741,-0.04537037,1,0,0,0.9303,optionLeft,80,11575,5,38,0,38,0,1,,,,,,,,,,,,,,,,,,,,,,,,,,,,,,,,,,,,,,,
,,,,,,,,2023-08-16_08h22.37.343,HF_wild_card,2022.2.4,Win32,19.99960001,5cb749fda6fe0700189768a5,64d2fd46c836a06233681665,64dc7913709c081eae6f0a93,,,,,,,decisionTrl,resources/DG.BMP,resources/DB.BMP,Door4,-0.318518519,-0.076851852,1,0,0,1.3995,optionLeft,80,11655,5,39,0,39,0,1,,,,,,,,,,,,,,,,,,,,,,,,,,,,,,,,,,,,,,,
,,,,,,,,2023-08-16_08h22.37.343,HF_wild_card,2022.2.4,Win32,19.99960001,5cb749fda6fe0700189768a5,64d2fd46c836a06233681665,64dc7913709c081eae6f0a93,,,,,,,sngl,resources/Empty.png,resources/DY.BMP,Door2,0.337037037,-0.102777778,1,0,0,1.263,optionRight,20,11675,5,40,0,40,0,1,,,,,,,,,,,,,,,,,,,,,,,,,,,,,,,,,,,,,,,
,,,,,,,,2023-08-16_08h22.37.343,HF_wild_card,2022.2.4,Win32,19.99960001,5cb749fda6fe0700189768a5,64d2fd46c836a06233681665,64dc7913709c081eae6f0a93,,,,,,,decisionTrl,resources/DR.BMP,resources/DY.BMP,Door1,-0.340740741,-0.077777778,1,0,0,1.4768,optionLeft,30,11705,5,41,0,41,0,1,,,,,,,,,,,,,,,,,,,,,,,,,,,,,,,,,,,,,,,
,,,,,,,,2023-08-16_08h22.37.343,HF_wild_card,2022.2.4,Win32,19.99960001,5cb749fda6fe0700189768a5,64d2fd46c836a06233681665,64dc7913709c081eae6f0a93,,,,,,,decisionTrl,resources/DG.BMP,resources/DB.BMP,Door3,0.401851852,-0.057407407,1,0,0,2.0548,optionRight,70,11775,5,42,0,42,0,1,,,,,,,,,,,,,,,,,,,,,,,,,,,,,,,,,,,,,,,
,,,,,,,,2023-08-16_08h22.37.343,HF_wild_card,2022.2.4,Win32,19.99960001,5cb749fda6fe0700189768a5,64d2fd46c836a06233681665,64dc7913709c081eae6f0a93,,,,,,,decisionTrl,resources/DBN.BMP,resources/DY.BMP,WildCard_NonEx,-0.3,-0.077777778,1,0,0,1.8524,optionLeft,55,11830,5,43,0,43,0,1,,,,,,,,,,,,,,,,,,,,,,,,,,,,,,,,,,,,,,,
,,,,,,,,2023-08-16_08h22.37.343,HF_wild_card,2022.2.4,Win32,19.99960001,5cb749fda6fe0700189768a5,64d2fd46c836a06233681665,64dc7913709c081eae6f0a93,,,,,,,,,,,,,,,,,,,,,,,,,,4,0,4,0,1,,,,,,,,,,,,,,,,,,,,,,,,,,,,,,,,,,
,,,,,,,,2023-08-16_08h22.37.343,HF_wild_card,2022.2.4,Win32,19.99960001,5cb749fda6fe0700189768a5,64d2fd46c836a06233681665,64dc7913709c081eae6f0a93,,,,,,,decisionTrl,resources/DR.BMP,resources/DY.BMP,Door2,0.363888889,-0.148148148,1,0,0,1.716,optionRight,20,11850,6,0,0,0,0,1,,,,,,,,,,,,,,,,,,,,,,,,,,,,,,,,,,,,,,,
,,,,,,,,2023-08-16_08h22.37.343,HF_wild_card,2022.2.4,Win32,19.99960001,5cb749fda6fe0700189768a5,64d2fd46c836a06233681665,64dc7913709c081eae6f0a93,,,,,,,sngl,resources/Empty.png,resources/DR.BMP,Door1,0.39537037,-0.092592593,1,0,0,1.0804,optionRight,30,11880,6,1,0,1,0,1,,,,,,,,,,,,,,,,,,,,,,,,,,,,,,,,,,,,,,,
,,,,,,,,2023-08-16_08h22.37.343,HF_wild_card,2022.2.4,Win32,19.99960001,5cb749fda6fe0700189768a5,64d2fd46c836a06233681665,64dc7913709c081eae6f0a93,,,,,,,ctch,resources/DB.BMP,resources/DY.BMP,Door3,-0.353703704,-0.084259259,1,0,0,1.8633,optionLeft,70,11950,6,2,0,2,0,1,,,,,,,,,,,,,,,,,,,,,,,,,,,,,,,,,,,,,,,
,,,,,,,,2023-08-16_08h22.37.343,HF_wild_card,2022.2.4,Win32,19.99960001,5cb749fda6fe0700189768a5,64d2fd46c836a06233681665,64dc7913709c081eae6f0a93,,,,,,,sngl,resources/DB.BMP,resources/Empty.png,Door3,-0.375,-0.134259259,1,0,0,1.2427,optionLeft,70,12020,6,3,0,3,0,1,,,,,,,,,,,,,,,,,,,,,,,,,,,,,,,,,,,,,,,
,,,,,,,,2023-08-16_08h22.37.343,HF_wild_card,2022.2.4,Win32,19.99960001,5cb749fda6fe0700189768a5,64d2fd46c836a06233681665,64dc7913709c081eae6f0a93,,,,,,,sngl,resources/Empty.png,resources/DB.BMP,Door3,0.300925926,-0.053703704,1,0,0,0.938,optionRight,70,12090,6,4,0,4,0,1,,,,,,,,,,,,,,,,,,,,,,,,,,,,,,,,,,,,,,,
,,,,,,,,2023-08-16_08h22.37.343,HF_wild_card,2022.2.4,Win32,19.99960001,5cb749fda6fe0700189768a5,64d2fd46c836a06233681665,64dc7913709c081eae6f0a93,,,,,,,ctch,resources/DR.BMP,resources/DG.BMP,Door4,0.325,-0.042592593,1,0,0,1.7371,optionRight,60,12150,6,5,0,5,0,1,,,,,,,,,,,,,,,,,,,,,,,,,,,,,,,,,,,,,,,
,,,,,,,,2023-08-16_08h22.37.343,HF_wild_card,2022.2.4,Win32,19.99960001,5cb749fda6fe0700189768a5,64d2fd46c836a06233681665,64dc7913709c081eae6f0a93,,,,,,,decisionTrl,resources/DBN.BMP,resources/DY.BMP,WildCard_NonEx,-0.356481481,-0.049074074,1,0,0,2.5567,optionLeft,55,12205,6,6,0,6,0,1,,,,,,,,,,,,,,,,,,,,,,,,,,,,,,,,,,,,,,,
,,,,,,,,2023-08-16_08h22.37.343,HF_wild_card,2022.2.4,Win32,19.99960001,5cb749fda6fe0700189768a5,64d2fd46c836a06233681665,64dc7913709c081eae6f0a93,,,,,,,sngl,resources/Empty.png,resources/DBN.BMP,WildCard_NonEx,0.387037037,-0.084259259,1,0,0,1.0013,optionRight,55,12260,6,7,0,7,0,1,,,,,,,,,,,,,,,,,,,,,,,,,,,,,,,,,,,,,,,
,,,,,,,,2023-08-16_08h22.37.343,HF_wild_card,2022.2.4,Win32,19.99960001,5cb749fda6fe0700189768a5,64d2fd46c836a06233681665,64dc7913709c081eae6f0a93,,,,,,,decisionTrl,resources/DY.BMP,resources/DBN.BMP,WildCard_NonEx,0.383333333,-0.085185185,1,0,0,1.4097,optionRight,55,12315,6,8,0,8,0,1,,,,,,,,,,,,,,,,,,,,,,,,,,,,,,,,,,,,,,,
,,,,,,,,2023-08-16_08h22.37.343,HF_wild_card,2022.2.4,Win32,19.99960001,5cb749fda6fe0700189768a5,64d2fd46c836a06233681665,64dc7913709c081eae6f0a93,,,,,,,decisionTrl,resources/DG.BMP,resources/DBN.BMP,Door4,-0.331481481,-0.065740741,1,0,0,2.0416,optionLeft,80,12395,6,9,0,9,0,1,,,,,,,,,,,,,,,,,,,,,,,,,,,,,,,,,,,,,,,
,,,,,,,,2023-08-16_08h22.37.343,HF_wild_card,2022.2.4,Win32,19.99960001,5cb749fda6fe0700189768a5,64d2fd46c836a06233681665,64dc7913709c081eae6f0a93,,,,,,,ctch,resources/DB.BMP,resources/DY.BMP,Door3,-0.391666667,-0.064814815,1,0,0,1.8578,optionLeft,70,12465,6,10,0,10,0,1,,,,,,,,,,,,,,,,,,,,,,,,,,,,,,,,,,,,,,,
,,,,,,,,2023-08-16_08h22.37.343,HF_wild_card,2022.2.4,Win32,19.99960001,5cb749fda6fe0700189768a5,64d2fd46c836a06233681665,64dc7913709c081eae6f0a93,,,,,,,sngl,resources/DBN.BMP,resources/Empty.png,WildCard_NonEx,-0.322222222,-0.063888889,1,0,0,0.933,optionLeft,45,12510,6,11,0,11,0,1,,,,,,,,,,,,,,,,,,,,,,,,,,,,,,,,,,,,,,,
,,,,,,,,2023-08-16_08h22.37.343,HF_wild_card,2022.2.4,Win32,19.99960001,5cb749fda6fe0700189768a5,64d2fd46c836a06233681665,64dc7913709c081eae6f0a93,,,,,,,sngl,resources/Empty.png,resources/DBN.BMP,WildCard_NonEx,0.334259259,-0.109259259,1,0,0,1.0673,optionRight,45,12555,6,12,0,12,0,1,,,,,,,,,,,,,,,,,,,,,,,,,,,,,,,,,,,,,,,
,,,,,,,,2023-08-16_08h22.37.343,HF_wild_card,2022.2.4,Win32,19.99960001,5cb749fda6fe0700189768a5,64d2fd46c836a06233681665,64dc7913709c081eae6f0a93,,,,,,,decisionTrl,resources/DB.BMP,resources/DG.BMP,Door3,-0.300925926,-0.080555556,1,0,0,2.7373,optionLeft,70,12625,6,13,0,13,0,1,,,,,,,,,,,,,,,,,,,,,,,,,,,,,,,,,,,,,,,
,,,,,,,,2023-08-16_08h22.37.343,HF_wild_card,2022.2.4,Win32,19.99960001,5cb749fda6fe0700189768a5,64d2fd46c836a06233681665,64dc7913709c081eae6f0a93,,,,,,,decisionTrl,resources/DBN.BMP,resources/DR.BMP,WildCard_NonEx,-0.32037037,-0.109259259,1,0,0,1.9561,optionLeft,45,12670,6,14,0,14,0,1,,,,,,,,,,,,,,,,,,,,,,,,,,,,,,,,,,,,,,,
,,,,,,,,2023-08-16_08h22.37.343,HF_wild_card,2022.2.4,Win32,19.99960001,5cb749fda6fe0700189768a5,64d2fd46c836a06233681665,64dc7913709c081eae6f0a93,,,,,,,decisionTrl,resources/DY.BMP,resources/DR.BMP,Door1,0.321296296,-0.12037037,1,0,0,1.3501,optionRight,30,12700,6,15,0,15,0,1,,,,,,,,,,,,,,,,,,,,,,,,,,,,,,,,,,,,,,,
,,,,,,,,2023-08-16_08h22.37.343,HF_wild_card,2022.2.4,Win32,19.99960001,5cb749fda6fe0700189768a5,64d2fd46c836a06233681665,64dc7913709c081eae6f0a93,,,,,,,sngl,resources/Empty.png,resources/DY.BMP,Door2,0.319444444,-0.128703704,1,0,0,1.2554,optionRight,40,12740,6,16,0,16,0,1,,,,,,,,,,,,,,,,,,,,,,,,,,,,,,,,,,,,,,,
,,,,,,,,2023-08-16_08h22.37.343,HF_wild_card,2022.2.4,Win32,19.99960001,5cb749fda6fe0700189768a5,64d2fd46c836a06233681665,64dc7913709c081eae6f0a93,,,,,,,ctch,resources/DG.BMP,resources/DR.BMP,Door4,-0.373148148,-0.067592593,1,0,0,2.1088,optionLeft,80,12820,6,17,0,17,0,1,,,,,,,,,,,,,,,,,,,,,,,,,,,,,,,,,,,,,,,
,,,,,,,,2023-08-16_08h22.37.343,HF_wild_card,2022.2.4,Win32,19.99960001,5cb749fda6fe0700189768a5,64d2fd46c836a06233681665,64dc7913709c081eae6f0a93,,,,,,,sngl,resources/DBN.BMP,resources/Empty.png,WildCard_NonEx,-0.413888889,-0.062962963,1,0,0,0.933,optionLeft,55,12875,6,18,0,18,0,1,,,,,,,,,,,,,,,,,,,,,,,,,,,,,,,,,,,,,,,
,,,,,,,,2023-08-16_08h22.37.343,HF_wild_card,2022.2.4,Win32,19.99960001,5cb749fda6fe0700189768a5,64d2fd46c836a06233681665,64dc7913709c081eae6f0a93,,,,,,,decisionTrl,resources/DR.BMP,resources/DY.BMP,Door2,0.453703704,-0.173148148,1,0,0,2.2403,optionRight,40,12915,6,19,0,19,0,1,,,,,,,,,,,,,,,,,,,,,,,,,,,,,,,,,,,,,,,
,,,,,,,,2023-08-16_08h22.37.343,HF_wild_card,2022.2.4,Win32,19.99960001,5cb749fda6fe0700189768a5,64d2fd46c836a06233681665,64dc7913709c081eae6f0a93,,,,,,,ctch,resources/DY.BMP,resources/DB.BMP,Door3,0.373148148,-0.089814815,1,0,0,1.1016,optionRight,70,12985,6,20,0,20,0,1,,,,,,,,,,,,,,,,,,,,,,,,,,,,,,,,,,,,,,,
,,,,,,,,2023-08-16_08h22.37.343,HF_wild_card,2022.2.4,Win32,19.99960001,5cb749fda6fe0700189768a5,64d2fd46c836a06233681665,64dc7913709c081eae6f0a93,,,,,,,decisionTrl,resources/DR.BMP,resources/DBN.BMP,WildCard_NonEx,0.35,-0.086111111,1,0,0,2.8155,optionRight,45,13030,6,21,0,21,0,1,,,,,,,,,,,,,,,,,,,,,,,,,,,,,,,,,,,,,,,
,,,,,,,,2023-08-16_08h22.37.343,HF_wild_card,2022.2.4,Win32,19.99960001,5cb749fda6fe0700189768a5,64d2fd46c836a06233681665,64dc7913709c081eae6f0a93,,,,,,,decisionTrl,resources/DG.BMP,resources/DB.BMP,Door3,0.347222222,-0.109259259,1,0,0,2.2123,optionRight,70,13100,6,22,0,22,0,1,,,,,,,,,,,,,,,,,,,,,,,,,,,,,,,,,,,,,,,
,,,,,,,,2023-08-16_08h22.37.343,HF_wild_card,2022.2.4,Win32,19.99960001,5cb749fda6fe0700189768a5,64d2fd46c836a06233681665,64dc7913709c081eae6f0a93,,,,,,,ctch,resources/DY.BMP,resources/DB.BMP,Door3,0.356481481,-0.102777778,1,0,0,1.1441,optionRight,70,13170,6,23,0,23,0,1,,,,,,,,,,,,,,,,,,,,,,,,,,,,,,,,,,,,,,,
,,,,,,,,2023-08-16_08h22.37.343,HF_wild_card,2022.2.4,Win32,19.99960001,5cb749fda6fe0700189768a5,64d2fd46c836a06233681665,64dc7913709c081eae6f0a93,,,,,,,decisionTrl,resources/DB.BMP,resources/DG.BMP,Door3,-0.312962963,-0.085185185,1,0,0,2.4177,optionLeft,70,13240,6,24,0,24,0,1,,,,,,,,,,,,,,,,,,,,,,,,,,,,,,,,,,,,,,,
,,,,,,,,2023-08-16_08h22.37.343,HF_wild_card,2022.2.4,Win32,19.99960001,5cb749fda6fe0700189768a5,64d2fd46c836a06233681665,64dc7913709c081eae6f0a93,,,,,,,ctch,resources/DR.BMP,resources/DG.BMP,Door4,0.441666667,-0.07037037,1,0,0,1.0105,optionRight,60,13300,6,25,0,25,0,1,,,,,,,,,,,,,,,,,,,,,,,,,,,,,,,,,,,,,,,
,,,,,,,,2023-08-16_08h22.37.343,HF_wild_card,2022.2.4,Win32,19.99960001,5cb749fda6fe0700189768a5,64d2fd46c836a06233681665,64dc7913709c081eae6f0a93,,,,,,,decisionTrl,resources/DG.BMP,resources/DB.BMP,Door3,0.417592593,-0.058333333,1,0,0,1.5338,optionRight,70,13370,6,26,0,26,0,1,,,,,,,,,,,,,,,,,,,,,,,,,,,,,,,,,,,,,,,
,,,,,,,,2023-08-16_08h22.37.343,HF_wild_card,2022.2.4,Win32,19.99960001,5cb749fda6fe0700189768a5,64d2fd46c836a06233681665,64dc7913709c081eae6f0a93,,,,,,,ctch,resources/DG.BMP,resources/DR.BMP,Door4,-0.293518519,-0.126851852,1,0,0,2.6238,optionLeft,80,13450,6,27,0,27,0,1,,,,,,,,,,,,,,,,,,,,,,,,,,,,,,,,,,,,,,,
,,,,,,,,2023-08-16_08h22.37.343,HF_wild_card,2022.2.4,Win32,19.99960001,5cb749fda6fe0700189768a5,64d2fd46c836a06233681665,64dc7913709c081eae6f0a93,,,,,,,decisionTrl,resources/DB.BMP,resources/DBN.BMP,WildCard_NonEx,0.414814815,0.026851852,1,0,0,17.0913,optionRight,55,13505,6,28,0,28,0,1,,,,,,,,,,,,,,,,,,,,,,,,,,,,,,,,,,,,,,,
,,,,,,,,2023-08-16_08h22.37.343,HF_wild_card,2022.2.4,Win32,19.99960001,5cb749fda6fe0700189768a5,64d2fd46c836a06233681665,64dc7913709c081eae6f0a93,,,,,,,decisionTrl,resources/DY.BMP,resources/DR.BMP,Door1,0.456481481,-0.117592593,1,0,0,5.2041,optionRight,30,13535,6,29,0,29,0,1,,,,,,,,,,,,,,,,,,,,,,,,,,,,,,,,,,,,,,,
,,,,,,,,2023-08-16_08h22.37.343,HF_wild_card,2022.2.4,Win32,19.99960001,5cb749fda6fe0700189768a5,64d2fd46c836a06233681665,64dc7913709c081eae6f0a93,,,,,,,sngl,resources/Empty.png,resources/DG.BMP,Door4,0.413888889,-0.069444444,1,0,0,1.4466,optionRight,80,13615,6,30,0,30,0,1,,,,,,,,,,,,,,,,,,,,,,,,,,,,,,,,,,,,,,,
,,,,,,,,2023-08-16_08h22.37.343,HF_wild_card,2022.2.4,Win32,19.99960001,5cb749fda6fe0700189768a5,64d2fd46c836a06233681665,64dc7913709c081eae6f0a93,,,,,,,decisionTrl,resources/DR.BMP,resources/DY.BMP,Door2,0.409259259,-0.008333333,1,0,0,3.2082,optionRight,40,13655,6,31,0,31,0,1,,,,,,,,,,,,,,,,,,,,,,,,,,,,,,,,,,,,,,,
,,,,,,,,2023-08-16_08h22.37.343,HF_wild_card,2022.2.4,Win32,19.99960001,5cb749fda6fe0700189768a5,64d2fd46c836a06233681665,64dc7913709c081eae6f0a93,,,,,,,sngl,resources/DG.BMP,resources/Empty.png,Door4,-0.309259259,-0.112962963,1,0,0,1.0816,optionLeft,60,13715,6,32,0,32,0,1,,,,,,,,,,,,,,,,,,,,,,,,,,,,,,,,,,,,,,,
,,,,,,,,2023-08-16_08h22.37.343,HF_wild_card,2022.2.4,Win32,19.99960001,5cb749fda6fe0700189768a5,64d2fd46c836a06233681665,64dc7913709c081eae6f0a93,,,,,,,decisionTrl,resources/DB.BMP,resources/DG.BMP,Door3,-0.35462963,-0.171296296,1,0,0,2.6223,optionLeft,70,13785,6,33,0,33,0,1,,,,,,,,,,,,,,,,,,,,,,,,,,,,,,,,,,,,,,,
,,,,,,,,2023-08-16_08h22.37.343,HF_wild_card,2022.2.4,Win32,19.99960001,5cb749fda6fe0700189768a5,64d2fd46c836a06233681665,64dc7913709c081eae6f0a93,,,,,,,decisionTrl,resources/DY.BMP,resources/DR.BMP,Door1,0.402777778,-0.086111111,1,0,0,1.4831,optionRight,30,13815,6,34,0,34,0,1,,,,,,,,,,,,,,,,,,,,,,,,,,,,,,,,,,,,,,,
,,,,,,,,2023-08-16_08h22.37.343,HF_wild_card,2022.2.4,Win32,19.99960001,5cb749fda6fe0700189768a5,64d2fd46c836a06233681665,64dc7913709c081eae6f0a93,,,,,,,decisionTrl,resources/DG.BMP,resources/DB.BMP,Door3,0.318518519,-0.076851852,1,0,0,4.6255,optionRight,70,13885,6,35,0,35,0,1,,,,,,,,,,,,,,,,,,,,,,,,,,,,,,,,,,,,,,,
,,,,,,,,2023-08-16_08h22.37.343,HF_wild_card,2022.2.4,Win32,19.99960001,5cb749fda6fe0700189768a5,64d2fd46c836a06233681665,64dc7913709c081eae6f0a93,,,,,,,decisionTrl,resources/DG.BMP,resources/DB.BMP,Door4,-0.321296296,-0.133333333,1,0,0,2.8691,optionLeft,60,13945,6,36,0,36,0,1,,,,,,,,,,,,,,,,,,,,,,,,,,,,,,,,,,,,,,,
,,,,,,,,2023-08-16_08h22.37.343,HF_wild_card,2022.2.4,Win32,19.99960001,5cb749fda6fe0700189768a5,64d2fd46c836a06233681665,64dc7913709c081eae6f0a93,,,,,,,decisionTrl,resources/DBN.BMP,resources/DB.BMP,Door3,0.362962963,-0.023148148,1,0,0,1.5032,optionRight,70,14015,6,37,0,37,0,1,,,,,,,,,,,,,,,,,,,,,,,,,,,,,,,,,,,,,,,
,,,,,,,,2023-08-16_08h22.37.343,HF_wild_card,2022.2.4,Win32,19.99960001,5cb749fda6fe0700189768a5,64d2fd46c836a06233681665,64dc7913709c081eae6f0a93,,,,,,,sngl,resources/DR.BMP,resources/Empty.png,Door1,-0.343518519,-0.160185185,1,0,0,1.8262,optionLeft,30,14045,6,38,0,38,0,1,,,,,,,,,,,,,,,,,,,,,,,,,,,,,,,,,,,,,,,
,,,,,,,,2023-08-16_08h22.37.343,HF_wild_card,2022.2.4,Win32,19.99960001,5cb749fda6fe0700189768a5,64d2fd46c836a06233681665,64dc7913709c081eae6f0a93,,,,,,,decisionTrl,resources/DR.BMP,resources/DY.BMP,Door2,0.351851852,-0.003703704,1,0,0,1.1465,optionRight,40,14085,6,39,0,39,0,1,,,,,,,,,,,,,,,,,,,,,,,,,,,,,,,,,,,,,,,
,,,,,,,,2023-08-16_08h22.37.343,HF_wild_card,2022.2.4,Win32,19.99960001,5cb749fda6fe0700189768a5,64d2fd46c836a06233681665,64dc7913709c081eae6f0a93,,,,,,,decisionTrl,resources/DY.BMP,resources/DR.BMP,Door1,0.437962963,-0.094444444,1,0,0,1.2177,optionRight,30,14115,6,40,0,40,0,1,,,,,,,,,,,,,,,,,,,,,,,,,,,,,,,,,,,,,,,
,,,,,,,,2023-08-16_08h22.37.343,HF_wild_card,2022.2.4,Win32,19.99960001,5cb749fda6fe0700189768a5,64d2fd46c836a06233681665,64dc7913709c081eae6f0a93,,,,,,,sngl,resources/DY.BMP,resources/Empty.png,Door2,-0.331481481,-0.125925926,1,0,0,1.4505,optionLeft,20,14135,6,41,0,41,0,1,,,,,,,,,,,,,,,,,,,,,,,,,,,,,,,,,,,,,,,
,,,,,,,,2023-08-16_08h22.37.343,HF_wild_card,2022.2.4,Win32,19.99960001,5cb749fda6fe0700189768a5,64d2fd46c836a06233681665,64dc7913709c081eae6f0a93,,,,,,,decisionTrl,resources/DB.BMP,resources/DG.BMP,Door4,0.352777778,-0.043518519,1,0,0,1.3904,optionRight,60,14195,6,42,0,42,0,1,,,,,,,,,,,,,,,,,,,,,,,,,,,,,,,,,,,,,,,
,,,,,,,,2023-08-16_08h22.37.343,HF_wild_card,2022.2.4,Win32,19.99960001,5cb749fda6fe0700189768a5,64d2fd46c836a06233681665,64dc7913709c081eae6f0a93,,,,,,,decisionTrl,resources/DBN.BMP,resources/DG.BMP,Door4,0.396296296,-0.040740741,1,0,0,1.5993,optionRight,60,14255,6,43,0,43,0,1,,,,,,,,,,,,,,,,,,,,,,,,,,,,,,,,,,,,,,,
,,,,,,,,2023-08-16_08h22.37.343,HF_wild_card,2022.2.4,Win32,19.99960001,5cb749fda6fe0700189768a5,64d2fd46c836a06233681665,64dc7913709c081eae6f0a93,,,,,,,,,,,,,,,,,,,,,,,,,,5,0,5,0,1,,,,,,,,,,,,,,,,,,,,,,,,,,,,,,,,,,
,,,,,,,,2023-08-16_08h22.37.343,HF_wild_card,2022.2.4,Win32,19.99960001,5cb749fda6fe0700189768a5,64d2fd46c836a06233681665,64dc7913709c081eae6f0a93,,,,,,,ctch,resources/DY.BMP,resources/DB.BMP,Door3,0.37037037,-0.107407407,1,0,0,1.3868,optionRight,70,14325,7,0,0,0,0,1,,,,,,,,,,,,,,,,,,,,,,,,,,,,,,,,,,,,,,,
,,,,,,,,2023-08-16_08h22.37.343,HF_wild_card,2022.2.4,Win32,19.99960001,5cb749fda6fe0700189768a5,64d2fd46c836a06233681665,64dc7913709c081eae6f0a93,,,,,,,decisionTrl,resources/DR.BMP,resources/DY.BMP,Door2,0.291666667,-0.069444444,1,0,0,1.846,optionRight,20,14345,7,1,0,1,0,1,,,,,,,,,,,,,,,,,,,,,,,,,,,,,,,,,,,,,,,
,,,,,,,,2023-08-16_08h22.37.343,HF_wild_card,2022.2.4,Win32,19.99960001,5cb749fda6fe0700189768a5,64d2fd46c836a06233681665,64dc7913709c081eae6f0a93,,,,,,,decisionTrl,resources/DB.BMP,resources/DG.BMP,Door3,-0.359259259,-0.042592593,1,0,0,1.7873,optionLeft,70,14415,7,2,0,2,0,1,,,,,,,,,,,,,,,,,,,,,,,,,,,,,,,,,,,,,,,
,,,,,,,,2023-08-16_08h22.37.343,HF_wild_card,2022.2.4,Win32,19.99960001,5cb749fda6fe0700189768a5,64d2fd46c836a06233681665,64dc7913709c081eae6f0a93,,,,,,,ctch,resources/DY.BMP,resources/DB.BMP,Door3,0.389814815,-0.060185185,1,0,0,1.0644,optionRight,70,14485,7,3,0,3,0,1,,,,,,,,,,,,,,,,,,,,,,,,,,,,,,,,,,,,,,,
,,,,,,,,2023-08-16_08h22.37.343,HF_wild_card,2022.2.4,Win32,19.99960001,5cb749fda6fe0700189768a5,64d2fd46c836a06233681665,64dc7913709c081eae6f0a93,,,,,,,decisionTrl,resources/DG.BMP,resources/DB.BMP,Door3,0.334259259,-0.078703704,1,0,0,2.7405,optionRight,70,14555,7,4,0,4,0,1,,,,,,,,,,,,,,,,,,,,,,,,,,,,,,,,,,,,,,,
,,,,,,,,2023-08-16_08h22.37.343,HF_wild_card,2022.2.4,Win32,19.99960001,5cb749fda6fe0700189768a5,64d2fd46c836a06233681665,64dc7913709c081eae6f0a93,,,,,,,decisionTrl,resources/DG.BMP,resources/DB.BMP,Door4,-0.330555556,-0.058333333,1,0,0,1.2902,optionLeft,60,14615,7,5,0,5,0,1,,,,,,,,,,,,,,,,,,,,,,,,,,,,,,,,,,,,,,,
,,,,,,,,2023-08-16_08h22.37.343,HF_wild_card,2022.2.4,Win32,19.99960001,5cb749fda6fe0700189768a5,64d2fd46c836a06233681665,64dc7913709c081eae6f0a93,,,,,,,decisionTrl,resources/DY.BMP,resources/DR.BMP,Door1,0.35,-0.051851852,1,0,0,0.9545,optionRight,30,14645,7,6,0,6,0,1,,,,,,,,,,,,,,,,,,,,,,,,,,,,,,,,,,,,,,,
,,,,,,,,2023-08-16_08h22.37.343,HF_wild_card,2022.2.4,Win32,19.99960001,5cb749fda6fe0700189768a5,64d2fd46c836a06233681665,64dc7913709c081eae6f0a93,,,,,,,ctch,resources/DB.BMP,resources/DY.BMP,Door3,-0.29537037,-0.075,1,0,0,1.3774,optionLeft,70,14715,7,7,0,7,0,1,,,,,,,,,,,,,,,,,,,,,,,,,,,,,,,,,,,,,,,
,,,,,,,,2023-08-16_08h22.37.343,HF_wild_card,2022.2.4,Win32,19.99960001,5cb749fda6fe0700189768a5,64d2fd46c836a06233681665,64dc7913709c081eae6f0a93,,,,,,,decisionTrl,resources/DG.BMP,resources/DB.BMP,Door3,0.303703704,-0.033333333,1,0,0,1.9198,optionRight,70,14785,7,8,0,8,0,1,,,,,,,,,,,,,,,,,,,,,,,,,,,,,,,,,,,,,,,
,,,,,,,,2023-08-16_08h22.37.343,HF_wild_card,2022.2.4,Win32,19.99960001,5cb749fda6fe0700189768a5,64d2fd46c836a06233681665,64dc7913709c081eae6f0a93,,,,,,,ctch,resources/DR.BMP,resources/DG.BMP,Door4,0.365740741,-0.02962963,1,0,0,1.2794,optionRight,80,14865,7,9,0,9,0,1,,,,,,,,,,,,,,,,,,,,,,,,,,,,,,,,,,,,,,,
,,,,,,,,2023-08-16_08h22.37.343,HF_wild_card,2022.2.4,Win32,19.99960001,5cb749fda6fe0700189768a5,64d2fd46c836a06233681665,64dc7913709c081eae6f0a93,,,,,,,decisionTrl,resources/DR.BMP,resources/DY.BMP,Door2,0.314814815,-0.063888889,1,0,0,1.5854,optionRight,40,14905,7,10,0,10,0,1,,,,,,,,,,,,,,,,,,,,,,,,,,,,,,,,,,,,,,,
,,,,,,,,2023-08-16_08h22.37.343,HF_wild_card,2022.2.4,Win32,19.99960001,5cb749fda6fe0700189768a5,64d2fd46c836a06233681665,64dc7913709c081eae6f0a93,,,,,,,ctch,resources/DY.BMP,resources/DB.BMP,Door3,0.314814815,-0.048148148,1,0,0,1.5294,optionRight,70,14975,7,11,0,11,0,1,,,,,,,,,,,,,,,,,,,,,,,,,,,,,,,,,,,,,,,
,,,,,,,,2023-08-16_08h22.37.343,HF_wild_card,2022.2.4,Win32,19.99960001,5cb749fda6fe0700189768a5,64d2fd46c836a06233681665,64dc7913709c081eae6f0a93,,,,,,,decisionTrl,resources/DB.BMP,resources/DG.BMP,Door3,-0.337037037,-0.075925926,1,0,0,2.409,optionLeft,70,15045,7,12,0,12,0,1,,,,,,,,,,,,,,,,,,,,,,,,,,,,,,,,,,,,,,,
,,,,,,,,2023-08-16_08h22.37.343,HF_wild_card,2022.2.4,Win32,19.99960001,5cb749fda6fe0700189768a5,64d2fd46c836a06233681665,64dc7913709c081eae6f0a93,,,,,,,decisionTrl,resources/DY.BMP,resources/DR.BMP,Door1,0.35462963,-0.021296296,1,0,0,0.9016,optionRight,30,15075,7,13,0,13,0,1,,,,,,,,,,,,,,,,,,,,,,,,,,,,,,,,,,,,,,,
,,,,,,,,2023-08-16_08h22.37.343,HF_wild_card,2022.2.4,Win32,19.99960001,5cb749fda6fe0700189768a5,64d2fd46c836a06233681665,64dc7913709c081eae6f0a93,,,,,,,decisionTrl,resources/DB.BMP,resources/DG.BMP,Door4,0.373148148,-0.04537037,1,0,0,1.6352,optionRight,60,15135,7,14,0,14,0,1,,,,,,,,,,,,,,,,,,,,,,,,,,,,,,,,,,,,,,,
,,,,,,,,2023-08-16_08h22.37.343,HF_wild_card,2022.2.4,Win32,19.99960001,5cb749fda6fe0700189768a5,64d2fd46c836a06233681665,64dc7913709c081eae6f0a93,,,,,,,ctch,resources/DB.BMP,resources/DY.BMP,Door3,-0.337962963,-0.114814815,1,0,0,1.276,optionLeft,70,15205,7,15,0,15,0,1,,,,,,,,,,,,,,,,,,,,,,,,,,,,,,,,,,,,,,,
,,,,,,,,2023-08-16_08h22.37.343,HF_wild_card,2022.2.4,Win32,19.99960001,5cb749fda6fe0700189768a5,64d2fd46c836a06233681665,64dc7913709c081eae6f0a93,,,,,,,ctch,resources/DR.BMP,resources/DG.BMP,Door4,0.29537037,-0.056481481,1,0,0,1.4582,optionRight,60,15265,7,16,0,16,0,1,,,,,,,,,,,,,,,,,,,,,,,,,,,,,,,,,,,,,,,
,,,,,,,,2023-08-16_08h22.37.343,HF_wild_card,2022.2.4,Win32,19.99960001,5cb749fda6fe0700189768a5,64d2fd46c836a06233681665,64dc7913709c081eae6f0a93,,,,,,,decisionTrl,resources/DY.BMP,resources/DR.BMP,Door1,0.3,-0.062037037,1,0,0,1.149,optionRight,30,15295,7,17,0,17,0,1,,,,,,,,,,,,,,,,,,,,,,,,,,,,,,,,,,,,,,,
,,,,,,,,2023-08-16_08h22.37.343,HF_wild_card,2022.2.4,Win32,19.99960001,5cb749fda6fe0700189768a5,64d2fd46c836a06233681665,64dc7913709c081eae6f0a93,,,,,,,ctch,resources/DG.BMP,resources/DR.BMP,Door4,-0.416666667,-0.063888889,1,0,0,1.4659,optionLeft,80,15375,7,18,0,18,0,1,,,,,,,,,,,,,,,,,,,,,,,,,,,,,,,,,,,,,,,
,,,,,,,,2023-08-16_08h22.37.343,HF_wild_card,2022.2.4,Win32,19.99960001,5cb749fda6fe0700189768a5,64d2fd46c836a06233681665,64dc7913709c081eae6f0a93,,,,,,,decisionTrl,resources/DG.BMP,resources/DB.BMP,Door4,-0.257407407,-0.05462963,1,0,0,1.72,optionLeft,80,15455,7,19,0,19,0,1,,,,,,,,,,,,,,,,,,,,,,,,,,,,,,,,,,,,,,,
,,,,,,,,2023-08-16_08h22.37.343,HF_wild_card,2022.2.4,Win32,19.99960001,5cb749fda6fe0700189768a5,64d2fd46c836a06233681665,64dc7913709c081eae6f0a93,,,,,,,decisionTrl,resources/DY.BMP,resources/DR.BMP,Door1,0.312962963,-0.04537037,1,0,0,0.888,optionRight,30,15485,7,20,0,20,0,1,,,,,,,,,,,,,,,,,,,,,,,,,,,,,,,,,,,,,,,
,,,,,,,,2023-08-16_08h22.37.343,HF_wild_card,2022.2.4,Win32,19.99960001,5cb749fda6fe0700189768a5,64d2fd46c836a06233681665,64dc7913709c081eae6f0a93,,,,,,,ctch,resources/DB.BMP,resources/DY.BMP,Door3,-0.323148148,-0.083333333,1,0,0,1.8482,optionLeft,70,15555,7,21,0,21,0,1,,,,,,,,,,,,,,,,,,,,,,,,,,,,,,,,,,,,,,,
,,,,,,,,2023-08-16_08h22.37.343,HF_wild_card,2022.2.4,Win32,19.99960001,5cb749fda6fe0700189768a5,64d2fd46c836a06233681665,64dc7913709c081eae6f0a93,,,,,,,decisionTrl,resources/DR.BMP,resources/DY.BMP,Door2,0.285185185,-0.084259259,1,0,0,1.2774,optionRight,40,15595,7,22,0,22,0,1,,,,,,,,,,,,,,,,,,,,,,,,,,,,,,,,,,,,,,,
,,,,,,,,2023-08-16_08h22.37.343,HF_wild_card,2022.2.4,Win32,19.99960001,5cb749fda6fe0700189768a5,64d2fd46c836a06233681665,64dc7913709c081eae6f0a93,,,,,,,decisionTrl,resources/DB.BMP,resources/DG.BMP,Door3,-0.443518519,-0.121296296,1,0,0,3.8915,optionLeft,70,15665,7,23,0,23,0,1,,,,,,,,,,,,,,,,,,,,,,,,,,,,,,,,,,,,,,,
,,,,,,,,2023-08-16_08h22.37.343,HF_wild_card,2022.2.4,Win32,19.99960001,5cb749fda6fe0700189768a5,64d2fd46c836a06233681665,64dc7913709c081eae6f0a93,,,,,,,ctch,resources/DG.BMP,resources/DR.BMP,Door4,-0.324074074,-0.076851852,1,0,0,1.5363,optionLeft,80,15745,7,24,0,24,0,1,,,,,,,,,,,,,,,,,,,,,,,,,,,,,,,,,,,,,,,
,,,,,,,,2023-08-16_08h22.37.343,HF_wild_card,2022.2.4,Win32,19.99960001,5cb749fda6fe0700189768a5,64d2fd46c836a06233681665,64dc7913709c081eae6f0a93,,,,,,,ctch,resources/DR.BMP,resources/DG.BMP,Door4,0.288888889,-0.065740741,1,0,0,1.456,optionRight,80,15825,7,25,0,25,0,1,,,,,,,,,,,,,,,,,,,,,,,,,,,,,,,,,,,,,,,
,,,,,,,,2023-08-16_08h22.37.343,HF_wild_card,2022.2.4,Win32,19.99960001,5cb749fda6fe0700189768a5,64d2fd46c836a06233681665,64dc7913709c081eae6f0a93,,,,,,,decisionTrl,resources/DG.BMP,resources/DB.BMP,Door3,0.256481481,-0.078703704,1,0,0,2.291,optionRight,70,15895,7,26,0,26,0,1,,,,,,,,,,,,,,,,,,,,,,,,,,,,,,,,,,,,,,,
,,,,,,,,2023-08-16_08h22.37.343,HF_wild_card,2022.2.4,Win32,19.99960001,5cb749fda6fe0700189768a5,64d2fd46c836a06233681665,64dc7913709c081eae6f0a93,,,,,,,decisionTrl,resources/DB.BMP,resources/DG.BMP,Door4,0.318518519,-0.075925926,1,0,0,2.4938,optionRight,60,15955,7,27,0,27,0,1,,,,,,,,,,,,,,,,,,,,,,,,,,,,,,,,,,,,,,,
,,,,,,,,2023-08-16_08h22.37.343,HF_wild_card,2022.2.4,Win32,19.99960001,5cb749fda6fe0700189768a5,64d2fd46c836a06233681665,64dc7913709c081eae6f0a93,,,,,,,ctch,resources/DG.BMP,resources/DR.BMP,Door4,-0.314814815,-0.042592593,1,0,0,1.4548,optionLeft,80,16035,7,28,0,28,0,1,,,,,,,,,,,,,,,,,,,,,,,,,,,,,,,,,,,,,,,
,,,,,,,,2023-08-16_08h22.37.343,HF_wild_card,2022.2.4,Win32,19.99960001,5cb749fda6fe0700189768a5,64d2fd46c836a06233681665,64dc7913709c081eae6f0a93,,,,,,,decisionTrl,resources/DG.BMP,resources/DB.BMP,Door4,-0.361111111,-0.006481481,1,0,0,3.1158,optionLeft,80,16115,7,29,0,29,0,1,,,,,,,,,,,,,,,,,,,,,,,,,,,,,,,,,,,,,,,
,,,,,,,,2023-08-16_08h22.37.343,HF_wild_card,2022.2.4,Win32,19.99960001,5cb749fda6fe0700189768a5,64d2fd46c836a06233681665,64dc7913709c081eae6f0a93,,,,,,,decisionTrl,resources/DR.BMP,resources/DY.BMP,Door2,0.327777778,-0.067592593,1,0,0,1.3452,optionRight,40,16155,7,30,0,30,0,1,,,,,,,,,,,,,,,,,,,,,,,,,,,,,,,,,,,,,,,
,,,,,,,,2023-08-16_08h22.37.343,HF_wild_card,2022.2.4,Win32,19.99960001,5cb749fda6fe0700189768a5,64d2fd46c836a06233681665,64dc7913709c081eae6f0a93,,,,,,,decisionTrl,resources/DB.BMP,resources/DG.BMP,Door4,0.334259259,-0.066666667,1,0,0,1.462,optionRight,80,16235,7,31,0,31,0,1,,,,,,,,,,,,,,,,,,,,,,,,,,,,,,,,,,,,,,,
,,,,,,,,2023-08-16_08h22.37.343,HF_wild_card,2022.2.4,Win32,19.99960001,5cb749fda6fe0700189768a5,64d2fd46c836a06233681665,64dc7913709c081eae6f0a93,,,,,,,decisionTrl,resources/DR.BMP,resources/DY.BMP,Door2,0.325925926,-0.068518519,1,0,0,1.267,optionRight,20,16255,7,32,0,32,0,1,,,,,,,,,,,,,,,,,,,,,,,,,,,,,,,,,,,,,,,
,,,,,,,,2023-08-16_08h22.37.343,HF_wild_card,2022.2.4,Win32,19.99960001,5cb749fda6fe0700189768a5,64d2fd46c836a06233681665,64dc7913709c081eae6f0a93,,,,,,,decisionTrl,resources/DY.BMP,resources/DR.BMP,Door1,0.289814815,-0.073148148,1,0,0,1.2147,optionRight,30,16285,7,33,0,33,0,1,,,,,,,,,,,,,,,,,,,,,,,,,,,,,,,,,,,,,,,
,,,,,,,,2023-08-16_08h22.37.343,HF_wild_card,2022.2.4,Win32,19.99960001,5cb749fda6fe0700189768a5,64d2fd46c836a06233681665,64dc7913709c081eae6f0a93,,,,,,,decisionTrl,resources/DR.BMP,resources/DY.BMP,Door2,0.374074074,-0.075,1,0,0,1.3872,optionRight,20,16305,7,34,0,34,0,1,,,,,,,,,,,,,,,,,,,,,,,,,,,,,,,,,,,,,,,
,,,,,,,,2023-08-16_08h22.37.343,HF_wild_card,2022.2.4,Win32,19.99960001,5cb749fda6fe0700189768a5,64d2fd46c836a06233681665,64dc7913709c081eae6f0a93,,,,,,,decisionTrl,resources/DY.BMP,resources/DR.BMP,Door1,0.327777778,-0.081481481,1,0,0,1.2681,optionRight,30,16335,7,35,0,35,0,1,,,,,,,,,,,,,,,,,,,,,,,,,,,,,,,,,,,,,,,
,,,,,,,,2023-08-16_08h22.37.343,HF_wild_card,2022.2.4,Win32,19.99960001,5cb749fda6fe0700189768a5,64d2fd46c836a06233681665,64dc7913709c081eae6f0a93,,,,,,,,,,,,,,,,,,,,,,,,,,6,0,6,0,1,,,,,,,,,,,,,,,,,,,,,,,,,,,,,,,,,,
,,,,,,,,2023-08-16_08h22.37.343,HF_wild_card,2022.2.4,Win32,19.99960001,5cb749fda6fe0700189768a5,64d2fd46c836a06233681665,64dc7913709c081eae6f0a93,,,,,,,,,,,,,,,,,,,,,,,,,,,,,,,4,,,,,,,,,,,,,,,,,,,,,,,,,,,,,,,,,
,,,,,,,,2023-08-16_08h22.37.343,HF_wild_card,2022.2.4,Win32,19.99960001,5cb749fda6fe0700189768a5,64d2fd46c836a06233681665,64dc7913709c081eae6f0a93,,,,,,,,,,,,,,,,,,,,,,,,,,,,,,,,,,,,,,,,,,,,,,,,,,,,,,,,,,,,,,,,
,,,,,,,,2023-08-16_08h22.37.343,HF_wild_card,2022.2.4,Win32,19.99960001,5cb749fda6fe0700189768a5,64d2fd46c836a06233681665,64dc7913709c081eae6f0a93,,,,,,,,,,,,,,,,,,,,,,,,,,,,,,,,20,Door2,resources/DY.BMP,0,0,0,0,1,,,,,,,,,,,,,,,,,,,,,,,,,
,,,,,,,,2023-08-16_08h22.37.343,HF_wild_card,2022.2.4,Win32,19.99960001,5cb749fda6fe0700189768a5,64d2fd46c836a06233681665,64dc7913709c081eae6f0a93,,,,,,,,,,,,,,,,,,,,,,,,,,,,,,,,60,Door3,resources/DB.BMP,1,0,1,0,1,,,,,,,,,,,,,,,,,,,,,,,,,
,,,,,,,,2023-08-16_08h22.37.343,HF_wild_card,2022.2.4,Win32,19.99960001,5cb749fda6fe0700189768a5,64d2fd46c836a06233681665,64dc7913709c081eae6f0a93,,,,,,,,,,,,,,,,,,,,,,,,,,,,,,,,60,WC_extreme,resources/DP.BMP,2,0,2,0,1,,,,,,,,,,,,,,,,,,,,,,,,,
,,,,,,,,2023-08-16_08h22.37.343,HF_wild_card,2022.2.4,Win32,19.99960001,5cb749fda6fe0700189768a5,64d2fd46c836a06233681665,64dc7913709c081eae6f0a93,,,,,,,,,,,,,,,,,,,,,,,,,,,,,,,,30,Door1,resources/DR.BMP,3,0,3,0,1,,,,,,,,,,,,,,,,,,,,,,,,,
,,,,,,,,2023-08-16_08h22.37.343,HF_wild_card,2022.2.4,Win32,19.99960001,5cb749fda6fe0700189768a5,64d2fd46c836a06233681665,64dc7913709c081eae6f0a93,,,,,,,,,,,,,,,,,,,,,,,,,,,,,,,,55,WC_nonExtreme,resources/DBN.BMP,4,0,4,0,1,,,,,,,,,,,,,,,,,,,,,,,,,
,,,,,,,,2023-08-16_08h22.37.343,HF_wild_card,2022.2.4,Win32,19.99960001,5cb749fda6fe0700189768a5,64d2fd46c836a06233681665,64dc7913709c081eae6f0a93,,,,,,,,,,,,,,,,,,,,,,,,,,,,,,,,60,Door4,resources/DG.BMP,5,0,5,0,1,,,,,,,,,,,,,,,,,,,,,,,,,
,,,,,,,,2023-08-16_08h22.37.343,HF_wild_card,2022.2.4,Win32,19.99960001,5cb749fda6fe0700189768a5,64d2fd46c836a06233681665,64dc7913709c081eae6f0a93,,,,,,,,,,,,,,,,,,,,,,,,,,,,,,,,,,,,,,,,,,,,,,,,,,,,,,,,,,,,,,,,
