Condition,Low fixed image (Door1),Low risky image (Door2),High fixed image (Door3),High risky image (Door4),Extreme Wild Card,NonExtreme Wild Card,,date,expName,psychopyVersion,OS,frameRate,PROLIFIC_PID,STUDY_ID,SESSION_ID,mouse_2.x,mouse_2.y,mouse_2.leftButton,mouse_2.midButton,mouse_2.rightButton,mouse_2.clicked_name,Trial Type,Left Option Image,Right Option Image,Chosen Door,mouse.x,mouse.y,mouse.leftButton,mouse.midButton,mouse.rightButton,mouse.time,mouse.clicked_name,Feedback,Cumulative Reward,Block,trial.thisRepN,trial.thisTrialN,trial.thisN,trial.thisIndex,trial.ran,blocks.thisRepN,blocks.thisTrialN,blocks.thisN,blocks.thisIndex,blocks.ran,Money conversion,First Outcome Reported,Shown Door (First Outcome),Displayed Image (First Outcome),outcomes.thisRepN,outcomes.thisTrialN,outcomes.thisN,outcomes.thisIndex,outcomes.ran,judgments.thisRepN,judgments.thisTrialN,judgments.thisN,judgments.thisIndex,judgments.ran,freqMouse.x,freqMouse.y,freqMouse.leftButton,freqMouse.midButton,freqMouse.rightButton,freqMouse.clicked_name,FQJ for first outcome,FQJ for second outcome,Shown Door,Displayed Image,trials.thisRepN,trials.thisTrialN,trials.thisN,trials.thisIndex,trials.ran,judgBlock.thisRepN,judgBlock.thisTrialN,judgBlock.thisN,judgBlock.thisIndex,judgBlock.ran
1,resources/DG.BMP,resources/DBN.BMP,resources/DR.BMP,resources/DP.BMP,resources/DY.BMP,resources/DB.BMP,,2023-08-16_08h49.01.915,HF_wild_card,2022.2.4,Win32,60.12144532,63f77aa9a4d7a65bb7a411f8,64d2fd46c836a06233681665,64dc7e32210a0a3e632da83a,,,,,,,,,,,,,,,,,,,,,,,,,,,,,,,,,,,,,,,,,,,,,,,,,,,,,,,,,,,,,,,,
,,,,,,,,2023-08-16_08h49.01.915,HF_wild_card,2022.2.4,Win32,60.12144532,63f77aa9a4d7a65bb7a411f8,64d2fd46c836a06233681665,64dc7e32210a0a3e632da83a,0,-0.424528302,1,0,0,agree,,,,,,,,,,,,,,,,,,,,,,,,,,,,,,,,,,,,,,,,,,,,,,,,,,,,,,,,,,
,,,,,,,,2023-08-16_08h49.01.915,HF_wild_card,2022.2.4,Win32,60.12144532,63f77aa9a4d7a65bb7a411f8,64d2fd46c836a06233681665,64dc7e32210a0a3e632da83a,,,,,,,,,,,,,,,,,,,,,,,,,,,,,,,,,,,,,,,,,,,,,,,,,,,,,,,,,,,,,,,,
,,,,,,,,2023-08-16_08h49.01.915,HF_wild_card,2022.2.4,Win32,60.12144532,63f77aa9a4d7a65bb7a411f8,64d2fd46c836a06233681665,64dc7e32210a0a3e632da83a,,,,,,,decisionTrl,resources/DBN.BMP,resources/DG.BMP,Door1,0.397336293,-0.112652608,1,0,0,4.3484,optionRight,30,30,1,0,0,0,0,1,,,,,,,,,,,,,,,,,,,,,,,,,,,,,,,,,,,,,,,
,,,,,,,,2023-08-16_08h49.01.915,HF_wild_card,2022.2.4,Win32,60.12144532,63f77aa9a4d7a65bb7a411f8,64d2fd46c836a06233681665,64dc7e32210a0a3e632da83a,,,,,,,decisionTrl,resources/DR.BMP,resources/DP.BMP,Door3,-0.330743618,-0.091564928,1,0,0,2.0566,optionLeft,70,100,1,1,0,1,0,1,,,,,,,,,,,,,,,,,,,,,,,,,,,,,,,,,,,,,,,
,,,,,,,,2023-08-16_08h49.01.915,HF_wild_card,2022.2.4,Win32,60.12144532,63f77aa9a4d7a65bb7a411f8,64d2fd46c836a06233681665,64dc7e32210a0a3e632da83a,,,,,,,decisionTrl,resources/DG.BMP,resources/DBN.BMP,Door1,-0.347391787,-0.008324084,1,0,0,2.2795,optionLeft,30,130,1,2,0,2,0,1,,,,,,,,,,,,,,,,,,,,,,,,,,,,,,,,,,,,,,,
,,,,,,,,2023-08-16_08h49.01.915,HF_wild_card,2022.2.4,Win32,60.12144532,63f77aa9a4d7a65bb7a411f8,64d2fd46c836a06233681665,64dc7e32210a0a3e632da83a,,,,,,,decisionTrl,resources/DR.BMP,resources/DP.BMP,Door3,-0.398446171,-0.057158713,1,0,0,1.4124,optionLeft,70,200,1,3,0,3,0,1,,,,,,,,,,,,,,,,,,,,,,,,,,,,,,,,,,,,,,,
,,,,,,,,2023-08-16_08h49.01.915,HF_wild_card,2022.2.4,Win32,60.12144532,63f77aa9a4d7a65bb7a411f8,64d2fd46c836a06233681665,64dc7e32210a0a3e632da83a,,,,,,,decisionTrl,resources/DB.BMP,resources/DR.BMP,WildCard_NonEx,-0.390677026,0.000554939,1,0,0,2.0617,optionLeft,55,255,1,4,0,4,0,1,,,,,,,,,,,,,,,,,,,,,,,,,,,,,,,,,,,,,,,
,,,,,,,,2023-08-16_08h49.01.915,HF_wild_card,2022.2.4,Win32,60.12144532,63f77aa9a4d7a65bb7a411f8,64d2fd46c836a06233681665,64dc7e32210a0a3e632da83a,,,,,,,decisionTrl,resources/DR.BMP,resources/DP.BMP,Door4,0.355160932,0.012763596,1,0,0,2.046,optionRight,80,335,1,5,0,5,0,1,,,,,,,,,,,,,,,,,,,,,,,,,,,,,,,,,,,,,,,
,,,,,,,,2023-08-16_08h49.01.915,HF_wild_card,2022.2.4,Win32,60.12144532,63f77aa9a4d7a65bb7a411f8,64d2fd46c836a06233681665,64dc7e32210a0a3e632da83a,,,,,,,ctch,resources/DBN.BMP,resources/DR.BMP,Door2,-0.286348502,-0.053829079,1,0,0,1.1955,optionLeft,20,355,1,6,0,6,0,1,,,,,,,,,,,,,,,,,,,,,,,,,,,,,,,,,,,,,,,
,,,,,,,,2023-08-16_08h49.01.915,HF_wild_card,2022.2.4,Win32,60.12144532,63f77aa9a4d7a65bb7a411f8,64d2fd46c836a06233681665,64dc7e32210a0a3e632da83a,,,,,,,sngl,resources/DR.BMP,resources/Empty.png,Door3,-0.236403996,-0.047169811,1,0,0,0.8675,optionLeft,70,425,1,7,0,7,0,1,,,,,,,,,,,,,,,,,,,,,,,,,,,,,,,,,,,,,,,
,,,,,,,,2023-08-16_08h49.01.915,HF_wild_card,2022.2.4,Win32,60.12144532,63f77aa9a4d7a65bb7a411f8,64d2fd46c836a06233681665,64dc7e32210a0a3e632da83a,,,,,,,sngl,resources/Empty.png,resources/DBN.BMP,Door2,0.304106548,0.009433962,1,0,0,0.6241,optionRight,20,445,1,8,0,8,0,1,,,,,,,,,,,,,,,,,,,,,,,,,,,,,,,,,,,,,,,
,,,,,,,,2023-08-16_08h49.01.915,HF_wild_card,2022.2.4,Win32,60.12144532,63f77aa9a4d7a65bb7a411f8,64d2fd46c836a06233681665,64dc7e32210a0a3e632da83a,,,,,,,ctch,resources/DG.BMP,resources/DP.BMP,Door1,-0.251942286,-0.006104329,1,0,0,0.669,optionLeft,30,475,1,9,0,9,0,1,,,,,,,,,,,,,,,,,,,,,,,,,,,,,,,,,,,,,,,
,,,,,,,,2023-08-16_08h49.01.915,HF_wild_card,2022.2.4,Win32,60.12144532,63f77aa9a4d7a65bb7a411f8,64d2fd46c836a06233681665,64dc7e32210a0a3e632da83a,,,,,,,decisionTrl,resources/DP.BMP,resources/DR.BMP,Door4,-0.296337403,-0.009433962,1,0,0,1.0782,optionLeft,80,555,1,10,0,10,0,1,,,,,,,,,,,,,,,,,,,,,,,,,,,,,,,,,,,,,,,
,,,,,,,,2023-08-16_08h49.01.915,HF_wild_card,2022.2.4,Win32,60.12144532,63f77aa9a4d7a65bb7a411f8,64d2fd46c836a06233681665,64dc7e32210a0a3e632da83a,,,,,,,sngl,resources/DG.BMP,resources/Empty.png,Door1,-0.225305216,-0.030521643,1,0,0,0.7974,optionLeft,30,585,1,11,0,11,0,1,,,,,,,,,,,,,,,,,,,,,,,,,,,,,,,,,,,,,,,
,,,,,,,,2023-08-16_08h49.01.915,HF_wild_card,2022.2.4,Win32,60.12144532,63f77aa9a4d7a65bb7a411f8,64d2fd46c836a06233681665,64dc7e32210a0a3e632da83a,,,,,,,sngl,resources/Empty.png,resources/DP.BMP,Door4,0.298557159,-0.002774695,1,0,0,0.6477,optionRight,60,645,1,12,0,12,0,1,,,,,,,,,,,,,,,,,,,,,,,,,,,,,,,,,,,,,,,
,,,,,,,,2023-08-16_08h49.01.915,HF_wild_card,2022.2.4,Win32,60.12144532,63f77aa9a4d7a65bb7a411f8,64d2fd46c836a06233681665,64dc7e32210a0a3e632da83a,,,,,,,ctch,resources/DP.BMP,resources/DG.BMP,Door4,-0.203107658,-0.027192009,1,0,0,0.6291,optionLeft,60,705,1,13,0,13,0,1,,,,,,,,,,,,,,,,,,,,,,,,,,,,,,,,,,,,,,,
,,,,,,,,2023-08-16_08h49.01.915,HF_wild_card,2022.2.4,Win32,60.12144532,63f77aa9a4d7a65bb7a411f8,64d2fd46c836a06233681665,64dc7e32210a0a3e632da83a,,,,,,,decisionTrl,resources/DG.BMP,resources/DBN.BMP,Door2,0.401775805,-0.030521643,1,0,0,0.4797,optionRight,20,725,1,14,0,14,0,1,,,,,,,,,,,,,,,,,,,,,,,,,,,,,,,,,,,,,,,
,,,,,,,,2023-08-16_08h49.01.915,HF_wild_card,2022.2.4,Win32,60.12144532,63f77aa9a4d7a65bb7a411f8,64d2fd46c836a06233681665,64dc7e32210a0a3e632da83a,,,,,,,decisionTrl,resources/DG.BMP,resources/DBN.BMP,Door1,-0.245283019,0.008324084,1,0,0,0.9145,optionLeft,30,755,1,15,0,15,0,1,,,,,,,,,,,,,,,,,,,,,,,,,,,,,,,,,,,,,,,
,,,,,,,,2023-08-16_08h49.01.915,HF_wild_card,2022.2.4,Win32,60.12144532,63f77aa9a4d7a65bb7a411f8,64d2fd46c836a06233681665,64dc7e32210a0a3e632da83a,,,,,,,ctch,resources/DBN.BMP,resources/DR.BMP,Door3,0.270810211,-0.018312986,1,0,0,0.8808,optionRight,70,825,1,16,0,16,0,1,,,,,,,,,,,,,,,,,,,,,,,,,,,,,,,,,,,,,,,
,,,,,,,,2023-08-16_08h49.01.915,HF_wild_card,2022.2.4,Win32,60.12144532,63f77aa9a4d7a65bb7a411f8,64d2fd46c836a06233681665,64dc7e32210a0a3e632da83a,,,,,,,decisionTrl,resources/DP.BMP,resources/DR.BMP,Door3,0.349611543,-0.030521643,1,0,0,1.1638,optionRight,70,895,1,17,0,17,0,1,,,,,,,,,,,,,,,,,,,,,,,,,,,,,,,,,,,,,,,
,,,,,,,,2023-08-16_08h49.01.915,HF_wild_card,2022.2.4,Win32,60.12144532,63f77aa9a4d7a65bb7a411f8,64d2fd46c836a06233681665,64dc7e32210a0a3e632da83a,,,,,,,ctch,resources/DR.BMP,resources/DBN.BMP,Door3,-0.324084351,-0.024972253,1,0,0,1.0464,optionLeft,70,965,1,18,0,18,0,1,,,,,,,,,,,,,,,,,,,,,,,,,,,,,,,,,,,,,,,
,,,,,,,,2023-08-16_08h49.01.915,HF_wild_card,2022.2.4,Win32,60.12144532,63f77aa9a4d7a65bb7a411f8,64d2fd46c836a06233681665,64dc7e32210a0a3e632da83a,,,,,,,decisionTrl,resources/DR.BMP,resources/DP.BMP,Door3,-0.20199778,-0.009433962,1,0,0,1.0445,optionLeft,70,1035,1,19,0,19,0,1,,,,,,,,,,,,,,,,,,,,,,,,,,,,,,,,,,,,,,,
,,,,,,,,2023-08-16_08h49.01.915,HF_wild_card,2022.2.4,Win32,60.12144532,63f77aa9a4d7a65bb7a411f8,64d2fd46c836a06233681665,64dc7e32210a0a3e632da83a,,,,,,,sngl,resources/DBN.BMP,resources/Empty.png,Door2,-0.258601554,-0.026082131,1,0,0,0.895,optionLeft,40,1075,1,20,0,20,0,1,,,,,,,,,,,,,,,,,,,,,,,,,,,,,,,,,,,,,,,
,,,,,,,,2023-08-16_08h49.01.915,HF_wild_card,2022.2.4,Win32,60.12144532,63f77aa9a4d7a65bb7a411f8,64d2fd46c836a06233681665,64dc7e32210a0a3e632da83a,,,,,,,decisionTrl,resources/DBN.BMP,resources/DG.BMP,Door1,0.442841287,-0.049389567,1,0,0,2.1277,optionRight,30,1105,1,21,0,21,0,1,,,,,,,,,,,,,,,,,,,,,,,,,,,,,,,,,,,,,,,
,,,,,,,,2023-08-16_08h49.01.915,HF_wild_card,2022.2.4,Win32,60.12144532,63f77aa9a4d7a65bb7a411f8,64d2fd46c836a06233681665,64dc7e32210a0a3e632da83a,,,,,,,sngl,resources/DP.BMP,resources/Empty.png,Door4,-0.153163152,-0.019422863,1,0,0,0.8814,optionLeft,80,1185,1,22,0,22,0,1,,,,,,,,,,,,,,,,,,,,,,,,,,,,,,,,,,,,,,,
,,,,,,,,2023-08-16_08h49.01.915,HF_wild_card,2022.2.4,Win32,60.12144532,63f77aa9a4d7a65bb7a411f8,64d2fd46c836a06233681665,64dc7e32210a0a3e632da83a,,,,,,,decisionTrl,resources/DBN.BMP,resources/DG.BMP,Door2,-0.271920089,-0.01054384,1,0,0,1.1792,optionLeft,40,1225,1,23,0,23,0,1,,,,,,,,,,,,,,,,,,,,,,,,,,,,,,,,,,,,,,,
,,,,,,,,2023-08-16_08h49.01.915,HF_wild_card,2022.2.4,Win32,60.12144532,63f77aa9a4d7a65bb7a411f8,64d2fd46c836a06233681665,64dc7e32210a0a3e632da83a,,,,,,,sngl,resources/Empty.png,resources/DG.BMP,Door1,0.288568257,-0.01609323,1,0,0,0.9429,optionRight,30,1255,1,24,0,24,0,1,,,,,,,,,,,,,,,,,,,,,,,,,,,,,,,,,,,,,,,
,,,,,,,,2023-08-16_08h49.01.915,HF_wild_card,2022.2.4,Win32,60.12144532,63f77aa9a4d7a65bb7a411f8,64d2fd46c836a06233681665,64dc7e32210a0a3e632da83a,,,,,,,decisionTrl,resources/DP.BMP,resources/DR.BMP,Door4,-0.247502775,-0.030521643,1,0,0,1.128,optionLeft,80,1335,1,25,0,25,0,1,,,,,,,,,,,,,,,,,,,,,,,,,,,,,,,,,,,,,,,
,,,,,,,,2023-08-16_08h49.01.915,HF_wild_card,2022.2.4,Win32,60.12144532,63f77aa9a4d7a65bb7a411f8,64d2fd46c836a06233681665,64dc7e32210a0a3e632da83a,,,,,,,decisionTrl,resources/DR.BMP,resources/DB.BMP,Door3,-0.334073252,-0.013873474,1,0,0,1.9978,optionLeft,70,1405,1,26,0,26,0,1,,,,,,,,,,,,,,,,,,,,,,,,,,,,,,,,,,,,,,,
,,,,,,,,2023-08-16_08h49.01.915,HF_wild_card,2022.2.4,Win32,60.12144532,63f77aa9a4d7a65bb7a411f8,64d2fd46c836a06233681665,64dc7e32210a0a3e632da83a,,,,,,,ctch,resources/DP.BMP,resources/DG.BMP,Door4,-0.291897891,-0.080466149,1,0,0,1.5412,optionLeft,60,1465,1,27,0,27,0,1,,,,,,,,,,,,,,,,,,,,,,,,,,,,,,,,,,,,,,,
,,,,,,,,2023-08-16_08h49.01.915,HF_wild_card,2022.2.4,Win32,60.12144532,63f77aa9a4d7a65bb7a411f8,64d2fd46c836a06233681665,64dc7e32210a0a3e632da83a,,,,,,,decisionTrl,resources/DB.BMP,resources/DBN.BMP,WildCard_NonEx,-0.359600444,-0.050499445,1,0,0,1.798,optionLeft,55,1520,1,28,0,28,0,1,,,,,,,,,,,,,,,,,,,,,,,,,,,,,,,,,,,,,,,
,,,,,,,,2023-08-16_08h49.01.915,HF_wild_card,2022.2.4,Win32,60.12144532,63f77aa9a4d7a65bb7a411f8,64d2fd46c836a06233681665,64dc7e32210a0a3e632da83a,,,,,,,sngl,resources/DB.BMP,resources/Empty.png,WildCard_NonEx,-0.285238624,-0.030521643,1,0,0,0.7128,optionLeft,55,1575,1,29,0,29,0,1,,,,,,,,,,,,,,,,,,,,,,,,,,,,,,,,,,,,,,,
,,,,,,,,2023-08-16_08h49.01.915,HF_wild_card,2022.2.4,Win32,60.12144532,63f77aa9a4d7a65bb7a411f8,64d2fd46c836a06233681665,64dc7e32210a0a3e632da83a,,,,,,,decisionTrl,resources/DP.BMP,resources/DR.BMP,Door3,0.348501665,-0.036071032,1,0,0,2.0982,optionRight,70,1645,1,30,0,30,0,1,,,,,,,,,,,,,,,,,,,,,,,,,,,,,,,,,,,,,,,
,,,,,,,,2023-08-16_08h49.01.915,HF_wild_card,2022.2.4,Win32,60.12144532,63f77aa9a4d7a65bb7a411f8,64d2fd46c836a06233681665,64dc7e32210a0a3e632da83a,,,,,,,sngl,resources/Empty.png,resources/DB.BMP,WildCard_NonEx,0.432852386,-0.053829079,1,0,0,0.8889,optionRight,45,1690,1,31,0,31,0,1,,,,,,,,,,,,,,,,,,,,,,,,,,,,,,,,,,,,,,,
,,,,,,,,2023-08-16_08h49.01.915,HF_wild_card,2022.2.4,Win32,60.12144532,63f77aa9a4d7a65bb7a411f8,64d2fd46c836a06233681665,64dc7e32210a0a3e632da83a,,,,,,,decisionTrl,resources/DB.BMP,resources/DP.BMP,Door4,0.367369589,-0.054938957,1,0,0,1.4306,optionRight,80,1770,1,32,0,32,0,1,,,,,,,,,,,,,,,,,,,,,,,,,,,,,,,,,,,,,,,
,,,,,,,,2023-08-16_08h49.01.915,HF_wild_card,2022.2.4,Win32,60.12144532,63f77aa9a4d7a65bb7a411f8,64d2fd46c836a06233681665,64dc7e32210a0a3e632da83a,,,,,,,ctch,resources/DR.BMP,resources/DBN.BMP,Door3,-0.348501665,-0.041620422,1,0,0,0.9473,optionLeft,70,1840,1,33,0,33,0,1,,,,,,,,,,,,,,,,,,,,,,,,,,,,,,,,,,,,,,,
,,,,,,,,2023-08-16_08h49.01.915,HF_wild_card,2022.2.4,Win32,60.12144532,63f77aa9a4d7a65bb7a411f8,64d2fd46c836a06233681665,64dc7e32210a0a3e632da83a,,,,,,,decisionTrl,resources/DG.BMP,resources/DBN.BMP,Door1,-0.321864595,-0.036071032,1,0,0,0.9283,optionLeft,30,1870,1,34,0,34,0,1,,,,,,,,,,,,,,,,,,,,,,,,,,,,,,,,,,,,,,,
,,,,,,,,2023-08-16_08h49.01.915,HF_wild_card,2022.2.4,Win32,60.12144532,63f77aa9a4d7a65bb7a411f8,64d2fd46c836a06233681665,64dc7e32210a0a3e632da83a,,,,,,,decisionTrl,resources/DG.BMP,resources/DB.BMP,WildCard_NonEx,0.31409545,-0.002774695,1,0,0,1.6749,optionRight,45,1915,1,35,0,35,0,1,,,,,,,,,,,,,,,,,,,,,,,,,,,,,,,,,,,,,,,
,,,,,,,,2023-08-16_08h49.01.915,HF_wild_card,2022.2.4,Win32,60.12144532,63f77aa9a4d7a65bb7a411f8,64d2fd46c836a06233681665,64dc7e32210a0a3e632da83a,,,,,,,decisionTrl,resources/DB.BMP,resources/DG.BMP,Door1,0.275249723,0.001664817,1,0,0,1.3613,optionRight,30,1945,1,36,0,36,0,1,,,,,,,,,,,,,,,,,,,,,,,,,,,,,,,,,,,,,,,
,,,,,,,,2023-08-16_08h49.01.915,HF_wild_card,2022.2.4,Win32,60.12144532,63f77aa9a4d7a65bb7a411f8,64d2fd46c836a06233681665,64dc7e32210a0a3e632da83a,,,,,,,sngl,resources/Empty.png,resources/DB.BMP,WildCard_NonEx,0.256381798,0.01054384,1,0,0,0.6472,optionRight,55,2000,1,37,0,37,0,1,,,,,,,,,,,,,,,,,,,,,,,,,,,,,,,,,,,,,,,
,,,,,,,,2023-08-16_08h49.01.915,HF_wild_card,2022.2.4,Win32,60.12144532,63f77aa9a4d7a65bb7a411f8,64d2fd46c836a06233681665,64dc7e32210a0a3e632da83a,,,,,,,sngl,resources/Empty.png,resources/DR.BMP,Door3,0.306326304,-0.057158713,1,0,0,0.8617,optionRight,70,2070,1,38,0,38,0,1,,,,,,,,,,,,,,,,,,,,,,,,,,,,,,,,,,,,,,,
,,,,,,,,2023-08-16_08h49.01.915,HF_wild_card,2022.2.4,Win32,60.12144532,63f77aa9a4d7a65bb7a411f8,64d2fd46c836a06233681665,64dc7e32210a0a3e632da83a,,,,,,,ctch,resources/DG.BMP,resources/DP.BMP,Door1,-0.274139845,-0.038290788,1,0,0,0.6145,optionLeft,30,2100,1,39,0,39,0,1,,,,,,,,,,,,,,,,,,,,,,,,,,,,,,,,,,,,,,,
,,,,,,,,2023-08-16_08h49.01.915,HF_wild_card,2022.2.4,Win32,60.12144532,63f77aa9a4d7a65bb7a411f8,64d2fd46c836a06233681665,64dc7e32210a0a3e632da83a,,,,,,,sngl,resources/DB.BMP,resources/Empty.png,WildCard_NonEx,-0.163152053,-0.051609323,1,0,0,0.5645,optionLeft,45,2145,1,40,0,40,0,1,,,,,,,,,,,,,,,,,,,,,,,,,,,,,,,,,,,,,,,
,,,,,,,,2023-08-16_08h49.01.915,HF_wild_card,2022.2.4,Win32,60.12144532,63f77aa9a4d7a65bb7a411f8,64d2fd46c836a06233681665,64dc7e32210a0a3e632da83a,,,,,,,decisionTrl,resources/DBN.BMP,resources/DB.BMP,WildCard_NonEx,0.285238624,-0.001664817,1,0,0,0.5054,optionRight,55,2200,1,41,0,41,0,1,,,,,,,,,,,,,,,,,,,,,,,,,,,,,,,,,,,,,,,
,,,,,,,,2023-08-16_08h49.01.915,HF_wild_card,2022.2.4,Win32,60.12144532,63f77aa9a4d7a65bb7a411f8,64d2fd46c836a06233681665,64dc7e32210a0a3e632da83a,,,,,,,decisionTrl,resources/DP.BMP,resources/DB.BMP,WildCard_NonEx,0.346281909,0.036071032,1,0,0,1.0444,optionRight,55,2255,1,42,0,42,0,1,,,,,,,,,,,,,,,,,,,,,,,,,,,,,,,,,,,,,,,
,,,,,,,,2023-08-16_08h49.01.915,HF_wild_card,2022.2.4,Win32,60.12144532,63f77aa9a4d7a65bb7a411f8,64d2fd46c836a06233681665,64dc7e32210a0a3e632da83a,,,,,,,decisionTrl,resources/DBN.BMP,resources/DG.BMP,Door2,-0.20199778,-0.101553829,1,0,0,1.13,optionLeft,40,2295,1,43,0,43,0,1,,,,,,,,,,,,,,,,,,,,,,,,,,,,,,,,,,,,,,,
,,,,,,,,2023-08-16_08h49.01.915,HF_wild_card,2022.2.4,Win32,60.12144532,63f77aa9a4d7a65bb7a411f8,64d2fd46c836a06233681665,64dc7e32210a0a3e632da83a,,,,,,,,,,,,,,,,,,,,,,,,,,0,0,0,0,1,,,,,,,,,,,,,,,,,,,,,,,,,,,,,,,,,,
,,,,,,,,2023-08-16_08h49.01.915,HF_wild_card,2022.2.4,Win32,60.12144532,63f77aa9a4d7a65bb7a411f8,64d2fd46c836a06233681665,64dc7e32210a0a3e632da83a,,,,,,,decisionTrl,resources/DG.BMP,resources/DB.BMP,Door1,-0.243063263,-0.08490566,1,0,0,1.1206,optionLeft,30,2325,2,0,0,0,0,1,,,,,,,,,,,,,,,,,,,,,,,,,,,,,,,,,,,,,,,
,,,,,,,,2023-08-16_08h49.01.915,HF_wild_card,2022.2.4,Win32,60.12144532,63f77aa9a4d7a65bb7a411f8,64d2fd46c836a06233681665,64dc7e32210a0a3e632da83a,,,,,,,ctch,resources/DBN.BMP,resources/DR.BMP,Door3,0.384017758,-0.031631521,1,0,0,1.0139,optionRight,70,2395,2,1,0,1,0,1,,,,,,,,,,,,,,,,,,,,,,,,,,,,,,,,,,,,,,,
,,,,,,,,2023-08-16_08h49.01.915,HF_wild_card,2022.2.4,Win32,60.12144532,63f77aa9a4d7a65bb7a411f8,64d2fd46c836a06233681665,64dc7e32210a0a3e632da83a,,,,,,,decisionTrl,resources/DP.BMP,resources/DR.BMP,Door3,0.347391787,0.004994451,1,0,0,0.7123,optionRight,70,2465,2,2,0,2,0,1,,,,,,,,,,,,,,,,,,,,,,,,,,,,,,,,,,,,,,,
,,,,,,,,2023-08-16_08h49.01.915,HF_wild_card,2022.2.4,Win32,60.12144532,63f77aa9a4d7a65bb7a411f8,64d2fd46c836a06233681665,64dc7e32210a0a3e632da83a,,,,,,,sngl,resources/Empty.png,resources/DP.BMP,Door4,0.318534961,-0.007214206,1,0,0,0.7092,optionRight,80,2545,2,3,0,3,0,1,,,,,,,,,,,,,,,,,,,,,,,,,,,,,,,,,,,,,,,
,,,,,,,,2023-08-16_08h49.01.915,HF_wild_card,2022.2.4,Win32,60.12144532,63f77aa9a4d7a65bb7a411f8,64d2fd46c836a06233681665,64dc7e32210a0a3e632da83a,,,,,,,sngl,resources/DG.BMP,resources/Empty.png,Door1,-0.371809101,-0.044950055,1,0,0,0.7803,optionLeft,30,2575,2,4,0,4,0,1,,,,,,,,,,,,,,,,,,,,,,,,,,,,,,,,,,,,,,,
,,,,,,,,2023-08-16_08h49.01.915,HF_wild_card,2022.2.4,Win32,60.12144532,63f77aa9a4d7a65bb7a411f8,64d2fd46c836a06233681665,64dc7e32210a0a3e632da83a,,,,,,,decisionTrl,resources/DR.BMP,resources/DP.BMP,Door4,0.469478357,0.001664817,1,0,0,0.5808,optionRight,80,2655,2,5,0,5,0,1,,,,,,,,,,,,,,,,,,,,,,,,,,,,,,,,,,,,,,,
,,,,,,,,2023-08-16_08h49.01.915,HF_wild_card,2022.2.4,Win32,60.12144532,63f77aa9a4d7a65bb7a411f8,64d2fd46c836a06233681665,64dc7e32210a0a3e632da83a,,,,,,,sngl,resources/DB.BMP,resources/Empty.png,WildCard_NonEx,-0.170921199,-0.004994451,1,0,0,0.7301,optionLeft,45,2700,2,6,0,6,0,1,,,,,,,,,,,,,,,,,,,,,,,,,,,,,,,,,,,,,,,
,,,,,,,,2023-08-16_08h49.01.915,HF_wild_card,2022.2.4,Win32,60.12144532,63f77aa9a4d7a65bb7a411f8,64d2fd46c836a06233681665,64dc7e32210a0a3e632da83a,,,,,,,sngl,resources/DBN.BMP,resources/Empty.png,Door2,-0.315205327,-0.032741398,1,0,0,0.648,optionLeft,20,2720,2,7,0,7,0,1,,,,,,,,,,,,,,,,,,,,,,,,,,,,,,,,,,,,,,,
,,,,,,,,2023-08-16_08h49.01.915,HF_wild_card,2022.2.4,Win32,60.12144532,63f77aa9a4d7a65bb7a411f8,64d2fd46c836a06233681665,64dc7e32210a0a3e632da83a,,,,,,,decisionTrl,resources/DP.BMP,resources/DR.BMP,Door4,-0.278579356,-0.040510544,1,0,0,1.0275,optionLeft,60,2780,2,8,0,8,0,1,,,,,,,,,,,,,,,,,,,,,,,,,,,,,,,,,,,,,,,
,,,,,,,,2023-08-16_08h49.01.915,HF_wild_card,2022.2.4,Win32,60.12144532,63f77aa9a4d7a65bb7a411f8,64d2fd46c836a06233681665,64dc7e32210a0a3e632da83a,,,,,,,decisionTrl,resources/DG.BMP,resources/DBN.BMP,Door1,-0.283018868,-0.0427303,1,0,0,1.5454,optionLeft,30,2810,2,9,0,9,0,1,,,,,,,,,,,,,,,,,,,,,,,,,,,,,,,,,,,,,,,
,,,,,,,,2023-08-16_08h49.01.915,HF_wild_card,2022.2.4,Win32,60.12144532,63f77aa9a4d7a65bb7a411f8,64d2fd46c836a06233681665,64dc7e32210a0a3e632da83a,,,,,,,decisionTrl,resources/DB.BMP,resources/DG.BMP,Door1,0.358490566,-0.028301887,1,0,0,1.347,optionRight,30,2840,2,10,0,10,0,1,,,,,,,,,,,,,,,,,,,,,,,,,,,,,,,,,,,,,,,
,,,,,,,,2023-08-16_08h49.01.915,HF_wild_card,2022.2.4,Win32,60.12144532,63f77aa9a4d7a65bb7a411f8,64d2fd46c836a06233681665,64dc7e32210a0a3e632da83a,,,,,,,decisionTrl,resources/DG.BMP,resources/DBN.BMP,Door2,0.283018868,-0.039400666,1,0,0,0.8636,optionRight,40,2880,2,11,0,11,0,1,,,,,,,,,,,,,,,,,,,,,,,,,,,,,,,,,,,,,,,
,,,,,,,,2023-08-16_08h49.01.915,HF_wild_card,2022.2.4,Win32,60.12144532,63f77aa9a4d7a65bb7a411f8,64d2fd46c836a06233681665,64dc7e32210a0a3e632da83a,,,,,,,decisionTrl,resources/DB.BMP,resources/DBN.BMP,WildCard_NonEx,-0.229744728,-0.039400666,1,0,0,1.2303,optionLeft,55,2935,2,12,0,12,0,1,,,,,,,,,,,,,,,,,,,,,,,,,,,,,,,,,,,,,,,
,,,,,,,,2023-08-16_08h49.01.915,HF_wild_card,2022.2.4,Win32,60.12144532,63f77aa9a4d7a65bb7a411f8,64d2fd46c836a06233681665,64dc7e32210a0a3e632da83a,,,,,,,decisionTrl,resources/DBN.BMP,resources/DG.BMP,Door1,0.360710322,-0.01054384,1,0,0,1.1799,optionRight,30,2965,2,13,0,13,0,1,,,,,,,,,,,,,,,,,,,,,,,,,,,,,,,,,,,,,,,
,,,,,,,,2023-08-16_08h49.01.915,HF_wild_card,2022.2.4,Win32,60.12144532,63f77aa9a4d7a65bb7a411f8,64d2fd46c836a06233681665,64dc7e32210a0a3e632da83a,,,,,,,decisionTrl,resources/DBN.BMP,resources/DG.BMP,Door2,-0.459489456,-0.007214206,1,0,0,0.8309,optionLeft,20,2985,2,14,0,14,0,1,,,,,,,,,,,,,,,,,,,,,,,,,,,,,,,,,,,,,,,
,,,,,,,,2023-08-16_08h49.01.915,HF_wild_card,2022.2.4,Win32,60.12144532,63f77aa9a4d7a65bb7a411f8,64d2fd46c836a06233681665,64dc7e32210a0a3e632da83a,,,,,,,decisionTrl,resources/DB.BMP,resources/DP.BMP,Door4,0.459489456,-0.067147614,1,0,0,1.331,optionRight,60,3045,2,15,0,15,0,1,,,,,,,,,,,,,,,,,,,,,,,,,,,,,,,,,,,,,,,
,,,,,,,,2023-08-16_08h49.01.915,HF_wild_card,2022.2.4,Win32,60.12144532,63f77aa9a4d7a65bb7a411f8,64d2fd46c836a06233681665,64dc7e32210a0a3e632da83a,,,,,,,sngl,resources/DB.BMP,resources/Empty.png,WildCard_NonEx,-0.291897891,-0.0427303,1,0,0,0.5813,optionLeft,55,3100,2,16,0,16,0,1,,,,,,,,,,,,,,,,,,,,,,,,,,,,,,,,,,,,,,,
,,,,,,,,2023-08-16_08h49.01.915,HF_wild_card,2022.2.4,Win32,60.12144532,63f77aa9a4d7a65bb7a411f8,64d2fd46c836a06233681665,64dc7e32210a0a3e632da83a,,,,,,,decisionTrl,resources/DG.BMP,resources/DBN.BMP,Door1,-0.283018868,-0.030521643,1,0,0,0.7969,optionLeft,30,3130,2,17,0,17,0,1,,,,,,,,,,,,,,,,,,,,,,,,,,,,,,,,,,,,,,,
,,,,,,,,2023-08-16_08h49.01.915,HF_wild_card,2022.2.4,Win32,60.12144532,63f77aa9a4d7a65bb7a411f8,64d2fd46c836a06233681665,64dc7e32210a0a3e632da83a,,,,,,,decisionTrl,resources/DBN.BMP,resources/DB.BMP,WildCard_NonEx,0.283018868,0.000554939,1,0,0,1.0475,optionRight,45,3175,2,18,0,18,0,1,,,,,,,,,,,,,,,,,,,,,,,,,,,,,,,,,,,,,,,
,,,,,,,,2023-08-16_08h49.01.915,HF_wild_card,2022.2.4,Win32,60.12144532,63f77aa9a4d7a65bb7a411f8,64d2fd46c836a06233681665,64dc7e32210a0a3e632da83a,,,,,,,decisionTrl,resources/DBN.BMP,resources/DG.BMP,Door1,0.305216426,-0.031631521,1,0,0,0.7967,optionRight,30,3205,2,19,0,19,0,1,,,,,,,,,,,,,,,,,,,,,,,,,,,,,,,,,,,,,,,
,,,,,,,,2023-08-16_08h49.01.915,HF_wild_card,2022.2.4,Win32,60.12144532,63f77aa9a4d7a65bb7a411f8,64d2fd46c836a06233681665,64dc7e32210a0a3e632da83a,,,,,,,sngl,resources/DR.BMP,resources/Empty.png,Door3,-0.214206437,-0.029411765,1,0,0,0.5967,optionLeft,70,3275,2,20,0,20,0,1,,,,,,,,,,,,,,,,,,,,,,,,,,,,,,,,,,,,,,,
,,,,,,,,2023-08-16_08h49.01.915,HF_wild_card,2022.2.4,Win32,60.12144532,63f77aa9a4d7a65bb7a411f8,64d2fd46c836a06233681665,64dc7e32210a0a3e632da83a,,,,,,,sngl,resources/Empty.png,resources/DB.BMP,WildCard_NonEx,0.26082131,-0.008324084,1,0,0,0.6462,optionRight,45,3320,2,21,0,21,0,1,,,,,,,,,,,,,,,,,,,,,,,,,,,,,,,,,,,,,,,
,,,,,,,,2023-08-16_08h49.01.915,HF_wild_card,2022.2.4,Win32,60.12144532,63f77aa9a4d7a65bb7a411f8,64d2fd46c836a06233681665,64dc7e32210a0a3e632da83a,,,,,,,ctch,resources/DG.BMP,resources/DP.BMP,Door1,-0.348501665,-0.001664817,1,0,0,1.9549,optionLeft,30,3350,2,22,0,22,0,1,,,,,,,,,,,,,,,,,,,,,,,,,,,,,,,,,,,,,,,
,,,,,,,,2023-08-16_08h49.01.915,HF_wild_card,2022.2.4,Win32,60.12144532,63f77aa9a4d7a65bb7a411f8,64d2fd46c836a06233681665,64dc7e32210a0a3e632da83a,,,,,,,decisionTrl,resources/DP.BMP,resources/DB.BMP,WildCard_NonEx,0.467258602,0.041620422,1,0,0,0.5228,optionRight,45,3395,2,23,0,23,0,1,,,,,,,,,,,,,,,,,,,,,,,,,,,,,,,,,,,,,,,
,,,,,,,,2023-08-16_08h49.01.915,HF_wild_card,2022.2.4,Win32,60.12144532,63f77aa9a4d7a65bb7a411f8,64d2fd46c836a06233681665,64dc7e32210a0a3e632da83a,,,,,,,sngl,resources/Empty.png,resources/DBN.BMP,Door2,0.312985572,-0.019422863,1,0,0,0.7238,optionRight,40,3435,2,24,0,24,0,1,,,,,,,,,,,,,,,,,,,,,,,,,,,,,,,,,,,,,,,
,,,,,,,,2023-08-16_08h49.01.915,HF_wild_card,2022.2.4,Win32,60.12144532,63f77aa9a4d7a65bb7a411f8,64d2fd46c836a06233681665,64dc7e32210a0a3e632da83a,,,,,,,sngl,resources/Empty.png,resources/DG.BMP,Door1,0.274139845,0.023862375,1,0,0,0.6968,optionRight,30,3465,2,25,0,25,0,1,,,,,,,,,,,,,,,,,,,,,,,,,,,,,,,,,,,,,,,
,,,,,,,,2023-08-16_08h49.01.915,HF_wild_card,2022.2.4,Win32,60.12144532,63f77aa9a4d7a65bb7a411f8,64d2fd46c836a06233681665,64dc7e32210a0a3e632da83a,,,,,,,decisionTrl,resources/DR.BMP,resources/DB.BMP,Door3,-0.311875694,-0.034961154,1,0,0,1.313,optionLeft,70,3535,2,26,0,26,0,1,,,,,,,,,,,,,,,,,,,,,,,,,,,,,,,,,,,,,,,
,,,,,,,,2023-08-16_08h49.01.915,HF_wild_card,2022.2.4,Win32,60.12144532,63f77aa9a4d7a65bb7a411f8,64d2fd46c836a06233681665,64dc7e32210a0a3e632da83a,,,,,,,ctch,resources/DR.BMP,resources/DBN.BMP,Door3,-0.230854606,-0.06936737,1,0,0,0.6305,optionLeft,70,3605,2,27,0,27,0,1,,,,,,,,,,,,,,,,,,,,,,,,,,,,,,,,,,,,,,,
,,,,,,,,2023-08-16_08h49.01.915,HF_wild_card,2022.2.4,Win32,60.12144532,63f77aa9a4d7a65bb7a411f8,64d2fd46c836a06233681665,64dc7e32210a0a3e632da83a,,,,,,,decisionTrl,resources/DR.BMP,resources/DP.BMP,Door3,-0.268590455,-0.01609323,1,0,0,0.5311,optionLeft,70,3675,2,28,0,28,0,1,,,,,,,,,,,,,,,,,,,,,,,,,,,,,,,,,,,,,,,
,,,,,,,,2023-08-16_08h49.01.915,HF_wild_card,2022.2.4,Win32,60.12144532,63f77aa9a4d7a65bb7a411f8,64d2fd46c836a06233681665,64dc7e32210a0a3e632da83a,,,,,,,sngl,resources/Empty.png,resources/DB.BMP,WildCard_NonEx,0.267480577,0.003884573,1,0,0,2.0136,optionRight,55,3730,2,29,0,29,0,1,,,,,,,,,,,,,,,,,,,,,,,,,,,,,,,,,,,,,,,
,,,,,,,,2023-08-16_08h49.01.915,HF_wild_card,2022.2.4,Win32,60.12144532,63f77aa9a4d7a65bb7a411f8,64d2fd46c836a06233681665,64dc7e32210a0a3e632da83a,,,,,,,decisionTrl,resources/DP.BMP,resources/DR.BMP,Door3,0.375138735,-0.121531632,1,0,0,2.3641,optionRight,70,3800,2,30,0,30,0,1,,,,,,,,,,,,,,,,,,,,,,,,,,,,,,,,,,,,,,,
,,,,,,,,2023-08-16_08h49.01.915,HF_wild_card,2022.2.4,Win32,60.12144532,63f77aa9a4d7a65bb7a411f8,64d2fd46c836a06233681665,64dc7e32210a0a3e632da83a,,,,,,,decisionTrl,resources/DP.BMP,resources/DR.BMP,Door3,0.358490566,0.018312986,1,0,0,0.5637,optionRight,70,3870,2,31,0,31,0,1,,,,,,,,,,,,,,,,,,,,,,,,,,,,,,,,,,,,,,,
,,,,,,,,2023-08-16_08h49.01.915,HF_wild_card,2022.2.4,Win32,60.12144532,63f77aa9a4d7a65bb7a411f8,64d2fd46c836a06233681665,64dc7e32210a0a3e632da83a,,,,,,,ctch,resources/DBN.BMP,resources/DR.BMP,Door3,0.20754717,0.004994451,1,0,0,0.4293,optionRight,70,3940,2,32,0,32,0,1,,,,,,,,,,,,,,,,,,,,,,,,,,,,,,,,,,,,,,,
,,,,,,,,2023-08-16_08h49.01.915,HF_wild_card,2022.2.4,Win32,60.12144532,63f77aa9a4d7a65bb7a411f8,64d2fd46c836a06233681665,64dc7e32210a0a3e632da83a,,,,,,,decisionTrl,resources/DB.BMP,resources/DR.BMP,Door3,0.198668147,0.01054384,1,0,0,0.4971,optionRight,70,4010,2,33,0,33,0,1,,,,,,,,,,,,,,,,,,,,,,,,,,,,,,,,,,,,,,,
,,,,,,,,2023-08-16_08h49.01.915,HF_wild_card,2022.2.4,Win32,60.12144532,63f77aa9a4d7a65bb7a411f8,64d2fd46c836a06233681665,64dc7e32210a0a3e632da83a,,,,,,,ctch,resources/DR.BMP,resources/DBN.BMP,Door3,-0.184239734,-0.012763596,1,0,0,0.5472,optionLeft,70,4080,2,34,0,34,0,1,,,,,,,,,,,,,,,,,,,,,,,,,,,,,,,,,,,,,,,
,,,,,,,,2023-08-16_08h49.01.915,HF_wild_card,2022.2.4,Win32,60.12144532,63f77aa9a4d7a65bb7a411f8,64d2fd46c836a06233681665,64dc7e32210a0a3e632da83a,,,,,,,ctch,resources/DP.BMP,resources/DG.BMP,Door1,0.386237514,-0.039400666,1,0,0,2.1475,optionRight,30,4110,2,35,0,35,0,1,,,,,,,,,,,,,,,,,,,,,,,,,,,,,,,,,,,,,,,
,,,,,,,,2023-08-16_08h49.01.915,HF_wild_card,2022.2.4,Win32,60.12144532,63f77aa9a4d7a65bb7a411f8,64d2fd46c836a06233681665,64dc7e32210a0a3e632da83a,,,,,,,ctch,resources/DP.BMP,resources/DG.BMP,Door4,-0.20754717,-0.029411765,1,0,0,0.7134,optionLeft,60,4170,2,36,0,36,0,1,,,,,,,,,,,,,,,,,,,,,,,,,,,,,,,,,,,,,,,
,,,,,,,,2023-08-16_08h49.01.915,HF_wild_card,2022.2.4,Win32,60.12144532,63f77aa9a4d7a65bb7a411f8,64d2fd46c836a06233681665,64dc7e32210a0a3e632da83a,,,,,,,decisionTrl,resources/DR.BMP,resources/DP.BMP,Door4,0.328523862,-0.002774695,1,0,0,0.6085,optionRight,60,4230,2,37,0,37,0,1,,,,,,,,,,,,,,,,,,,,,,,,,,,,,,,,,,,,,,,
,,,,,,,,2023-08-16_08h49.01.915,HF_wild_card,2022.2.4,Win32,60.12144532,63f77aa9a4d7a65bb7a411f8,64d2fd46c836a06233681665,64dc7e32210a0a3e632da83a,,,,,,,sngl,resources/DP.BMP,resources/Empty.png,Door4,-0.160932297,-0.054938957,1,0,0,0.5647,optionLeft,60,4290,2,38,0,38,0,1,,,,,,,,,,,,,,,,,,,,,,,,,,,,,,,,,,,,,,,
,,,,,,,,2023-08-16_08h49.01.915,HF_wild_card,2022.2.4,Win32,60.12144532,63f77aa9a4d7a65bb7a411f8,64d2fd46c836a06233681665,64dc7e32210a0a3e632da83a,,,,,,,ctch,resources/DG.BMP,resources/DP.BMP,Door4,0.294117647,-0.017203108,1,0,0,0.8472,optionRight,80,4370,2,39,0,39,0,1,,,,,,,,,,,,,,,,,,,,,,,,,,,,,,,,,,,,,,,
,,,,,,,,2023-08-16_08h49.01.915,HF_wild_card,2022.2.4,Win32,60.12144532,63f77aa9a4d7a65bb7a411f8,64d2fd46c836a06233681665,64dc7e32210a0a3e632da83a,,,,,,,decisionTrl,resources/DR.BMP,resources/DP.BMP,Door4,0.185349612,-0.004994451,1,0,0,0.624,optionRight,60,4430,2,40,0,40,0,1,,,,,,,,,,,,,,,,,,,,,,,,,,,,,,,,,,,,,,,
,,,,,,,,2023-08-16_08h49.01.915,HF_wild_card,2022.2.4,Win32,60.12144532,63f77aa9a4d7a65bb7a411f8,64d2fd46c836a06233681665,64dc7e32210a0a3e632da83a,,,,,,,decisionTrl,resources/DG.BMP,resources/DBN.BMP,Door2,0.344062153,0.023862375,1,0,0,1.0636,optionRight,20,4450,2,41,0,41,0,1,,,,,,,,,,,,,,,,,,,,,,,,,,,,,,,,,,,,,,,
,,,,,,,,2023-08-16_08h49.01.915,HF_wild_card,2022.2.4,Win32,60.12144532,63f77aa9a4d7a65bb7a411f8,64d2fd46c836a06233681665,64dc7e32210a0a3e632da83a,,,,,,,sngl,resources/Empty.png,resources/DR.BMP,Door3,0.298557159,0.004994451,1,0,0,0.6143,optionRight,70,4520,2,42,0,42,0,1,,,,,,,,,,,,,,,,,,,,,,,,,,,,,,,,,,,,,,,
,,,,,,,,2023-08-16_08h49.01.915,HF_wild_card,2022.2.4,Win32,60.12144532,63f77aa9a4d7a65bb7a411f8,64d2fd46c836a06233681665,64dc7e32210a0a3e632da83a,,,,,,,decisionTrl,resources/DBN.BMP,resources/DG.BMP,Door1,0.30299667,-0.014983352,1,0,0,0.9401,optionRight,30,4550,2,43,0,43,0,1,,,,,,,,,,,,,,,,,,,,,,,,,,,,,,,,,,,,,,,
,,,,,,,,2023-08-16_08h49.01.915,HF_wild_card,2022.2.4,Win32,60.12144532,63f77aa9a4d7a65bb7a411f8,64d2fd46c836a06233681665,64dc7e32210a0a3e632da83a,,,,,,,,,,,,,,,,,,,,,,,,,,1,0,1,0,1,,,,,,,,,,,,,,,,,,,,,,,,,,,,,,,,,,
,,,,,,,,2023-08-16_08h49.01.915,HF_wild_card,2022.2.4,Win32,60.12144532,63f77aa9a4d7a65bb7a411f8,64d2fd46c836a06233681665,64dc7e32210a0a3e632da83a,,,,,,,ctch,resources/DP.BMP,resources/DG.BMP,Door1,0.340732519,-0.114872364,1,0,0,1.2348,optionRight,30,4580,3,0,0,0,0,1,,,,,,,,,,,,,,,,,,,,,,,,,,,,,,,,,,,,,,,
,,,,,,,,2023-08-16_08h49.01.915,HF_wild_card,2022.2.4,Win32,60.12144532,63f77aa9a4d7a65bb7a411f8,64d2fd46c836a06233681665,64dc7e32210a0a3e632da83a,,,,,,,decisionTrl,resources/DB.BMP,resources/DR.BMP,Door3,0.258601554,-0.089345172,1,0,0,0.662,optionRight,70,4650,3,1,0,1,0,1,,,,,,,,,,,,,,,,,,,,,,,,,,,,,,,,,,,,,,,
,,,,,,,,2023-08-16_08h49.01.915,HF_wild_card,2022.2.4,Win32,60.12144532,63f77aa9a4d7a65bb7a411f8,64d2fd46c836a06233681665,64dc7e32210a0a3e632da83a,,,,,,,sngl,resources/Empty.png,resources/DP.BMP,Door4,0.40954495,-0.06381798,1,0,0,0.9102,optionRight,60,4710,3,2,0,2,0,1,,,,,,,,,,,,,,,,,,,,,,,,,,,,,,,,,,,,,,,
,,,,,,,,2023-08-16_08h49.01.915,HF_wild_card,2022.2.4,Win32,60.12144532,63f77aa9a4d7a65bb7a411f8,64d2fd46c836a06233681665,64dc7e32210a0a3e632da83a,,,,,,,decisionTrl,resources/DP.BMP,resources/DR.BMP,Door3,0.348501665,-0.057158713,1,0,0,0.6801,optionRight,70,4780,3,3,0,3,0,1,,,,,,,,,,,,,,,,,,,,,,,,,,,,,,,,,,,,,,,
,,,,,,,,2023-08-16_08h49.01.915,HF_wild_card,2022.2.4,Win32,60.12144532,63f77aa9a4d7a65bb7a411f8,64d2fd46c836a06233681665,64dc7e32210a0a3e632da83a,,,,,,,ctch,resources/DG.BMP,resources/DP.BMP,Door4,0.426193119,-0.000554939,1,0,0,0.8547,optionRight,60,4840,3,4,0,4,0,1,,,,,,,,,,,,,,,,,,,,,,,,,,,,,,,,,,,,,,,
,,,,,,,,2023-08-16_08h49.01.915,HF_wild_card,2022.2.4,Win32,60.12144532,63f77aa9a4d7a65bb7a411f8,64d2fd46c836a06233681665,64dc7e32210a0a3e632da83a,,,,,,,sngl,resources/DB.BMP,resources/Empty.png,WildCard_NonEx,-0.284128746,-0.014983352,1,0,0,0.6308,optionLeft,55,4895,3,5,0,5,0,1,,,,,,,,,,,,,,,,,,,,,,,,,,,,,,,,,,,,,,,
,,,,,,,,2023-08-16_08h49.01.915,HF_wild_card,2022.2.4,Win32,60.12144532,63f77aa9a4d7a65bb7a411f8,64d2fd46c836a06233681665,64dc7e32210a0a3e632da83a,,,,,,,ctch,resources/DR.BMP,resources/DBN.BMP,Door3,-0.28745838,-0.013873474,1,0,0,0.9655,optionLeft,70,4965,3,6,0,6,0,1,,,,,,,,,,,,,,,,,,,,,,,,,,,,,,,,,,,,,,,
,,,,,,,,2023-08-16_08h49.01.915,HF_wild_card,2022.2.4,Win32,60.12144532,63f77aa9a4d7a65bb7a411f8,64d2fd46c836a06233681665,64dc7e32210a0a3e632da83a,,,,,,,decisionTrl,resources/DP.BMP,resources/DR.BMP,Door3,0.277469478,-0.004994451,1,0,0,0.5901,optionRight,70,5035,3,7,0,7,0,1,,,,,,,,,,,,,,,,,,,,,,,,,,,,,,,,,,,,,,,
,,,,,,,,2023-08-16_08h49.01.915,HF_wild_card,2022.2.4,Win32,60.12144532,63f77aa9a4d7a65bb7a411f8,64d2fd46c836a06233681665,64dc7e32210a0a3e632da83a,,,,,,,decisionTrl,resources/DBN.BMP,resources/DG.BMP,Door1,0.226415094,-0.040510544,1,0,0,1.0965,optionRight,30,5065,3,8,0,8,0,1,,,,,,,,,,,,,,,,,,,,,,,,,,,,,,,,,,,,,,,
,,,,,,,,2023-08-16_08h49.01.915,HF_wild_card,2022.2.4,Win32,60.12144532,63f77aa9a4d7a65bb7a411f8,64d2fd46c836a06233681665,64dc7e32210a0a3e632da83a,,,,,,,decisionTrl,resources/DP.BMP,resources/DR.BMP,Door3,0.392896781,-0.044950055,1,0,0,0.8703,optionRight,70,5135,3,9,0,9,0,1,,,,,,,,,,,,,,,,,,,,,,,,,,,,,,,,,,,,,,,
,,,,,,,,2023-08-16_08h49.01.915,HF_wild_card,2022.2.4,Win32,60.12144532,63f77aa9a4d7a65bb7a411f8,64d2fd46c836a06233681665,64dc7e32210a0a3e632da83a,,,,,,,decisionTrl,resources/DB.BMP,resources/DBN.BMP,WildCard_NonEx,-0.375138735,-0.019422863,1,0,0,1.2891,optionLeft,55,5190,3,10,0,10,0,1,,,,,,,,,,,,,,,,,,,,,,,,,,,,,,,,,,,,,,,
,,,,,,,,2023-08-16_08h49.01.915,HF_wild_card,2022.2.4,Win32,60.12144532,63f77aa9a4d7a65bb7a411f8,64d2fd46c836a06233681665,64dc7e32210a0a3e632da83a,,,,,,,ctch,resources/DBN.BMP,resources/DR.BMP,Door3,0.246392897,0.003884573,1,0,0,0.8212,optionRight,70,5260,3,11,0,11,0,1,,,,,,,,,,,,,,,,,,,,,,,,,,,,,,,,,,,,,,,
,,,,,,,,2023-08-16_08h49.01.915,HF_wild_card,2022.2.4,Win32,60.12144532,63f77aa9a4d7a65bb7a411f8,64d2fd46c836a06233681665,64dc7e32210a0a3e632da83a,,,,,,,decisionTrl,resources/DP.BMP,resources/DR.BMP,Door3,0.285238624,-0.017203108,1,0,0,0.6658,optionRight,70,5330,3,12,0,12,0,1,,,,,,,,,,,,,,,,,,,,,,,,,,,,,,,,,,,,,,,
,,,,,,,,2023-08-16_08h49.01.915,HF_wild_card,2022.2.4,Win32,60.12144532,63f77aa9a4d7a65bb7a411f8,64d2fd46c836a06233681665,64dc7e32210a0a3e632da83a,,,,,,,ctch,resources/DR.BMP,resources/DBN.BMP,Door3,-0.248612653,-0.061598224,1,0,0,0.5907,optionLeft,70,5400,3,13,0,13,0,1,,,,,,,,,,,,,,,,,,,,,,,,,,,,,,,,,,,,,,,
,,,,,,,,2023-08-16_08h49.01.915,HF_wild_card,2022.2.4,Win32,60.12144532,63f77aa9a4d7a65bb7a411f8,64d2fd46c836a06233681665,64dc7e32210a0a3e632da83a,,,,,,,decisionTrl,resources/DG.BMP,resources/DBN.BMP,Door1,-0.231964484,-0.01054384,1,0,0,0.9824,optionLeft,30,5430,3,14,0,14,0,1,,,,,,,,,,,,,,,,,,,,,,,,,,,,,,,,,,,,,,,
,,,,,,,,2023-08-16_08h49.01.915,HF_wild_card,2022.2.4,Win32,60.12144532,63f77aa9a4d7a65bb7a411f8,64d2fd46c836a06233681665,64dc7e32210a0a3e632da83a,,,,,,,sngl,resources/Empty.png,resources/DG.BMP,Door1,0.219755827,0.006104329,1,0,0,0.5727,optionRight,30,5460,3,15,0,15,0,1,,,,,,,,,,,,,,,,,,,,,,,,,,,,,,,,,,,,,,,
,,,,,,,,2023-08-16_08h49.01.915,HF_wild_card,2022.2.4,Win32,60.12144532,63f77aa9a4d7a65bb7a411f8,64d2fd46c836a06233681665,64dc7e32210a0a3e632da83a,,,,,,,ctch,resources/DBN.BMP,resources/DR.BMP,Door3,0.377358491,-0.020532741,1,0,0,0.6791,optionRight,70,5530,3,16,0,16,0,1,,,,,,,,,,,,,,,,,,,,,,,,,,,,,,,,,,,,,,,
,,,,,,,,2023-08-16_08h49.01.915,HF_wild_card,2022.2.4,Win32,60.12144532,63f77aa9a4d7a65bb7a411f8,64d2fd46c836a06233681665,64dc7e32210a0a3e632da83a,,,,,,,decisionTrl,resources/DBN.BMP,resources/DG.BMP,Door1,0.231964484,-0.002774695,1,0,0,1.0367,optionRight,30,5560,3,17,0,17,0,1,,,,,,,,,,,,,,,,,,,,,,,,,,,,,,,,,,,,,,,
,,,,,,,,2023-08-16_08h49.01.915,HF_wild_card,2022.2.4,Win32,60.12144532,63f77aa9a4d7a65bb7a411f8,64d2fd46c836a06233681665,64dc7e32210a0a3e632da83a,,,,,,,decisionTrl,resources/DR.BMP,resources/DP.BMP,Door3,-0.264150943,-0.028301887,1,0,0,0.804,optionLeft,70,5630,3,18,0,18,0,1,,,,,,,,,,,,,,,,,,,,,,,,,,,,,,,,,,,,,,,
,,,,,,,,2023-08-16_08h49.01.915,HF_wild_card,2022.2.4,Win32,60.12144532,63f77aa9a4d7a65bb7a411f8,64d2fd46c836a06233681665,64dc7e32210a0a3e632da83a,,,,,,,decisionTrl,resources/DR.BMP,resources/DP.BMP,Door3,-0.240843507,-0.034961154,1,0,0,0.676,optionLeft,70,5700,3,19,0,19,0,1,,,,,,,,,,,,,,,,,,,,,,,,,,,,,,,,,,,,,,,
,,,,,,,,2023-08-16_08h49.01.915,HF_wild_card,2022.2.4,Win32,60.12144532,63f77aa9a4d7a65bb7a411f8,64d2fd46c836a06233681665,64dc7e32210a0a3e632da83a,,,,,,,sngl,resources/DG.BMP,resources/Empty.png,Door1,-0.315205327,-0.05826859,1,0,0,0.6899,optionLeft,30,5730,3,20,0,20,0,1,,,,,,,,,,,,,,,,,,,,,,,,,,,,,,,,,,,,,,,
,,,,,,,,2023-08-16_08h49.01.915,HF_wild_card,2022.2.4,Win32,60.12144532,63f77aa9a4d7a65bb7a411f8,64d2fd46c836a06233681665,64dc7e32210a0a3e632da83a,,,,,,,decisionTrl,resources/DB.BMP,resources/DP.BMP,Door4,0.193118757,-0.01054384,1,0,0,0.8123,optionRight,60,5790,3,21,0,21,0,1,,,,,,,,,,,,,,,,,,,,,,,,,,,,,,,,,,,,,,,
,,,,,,,,2023-08-16_08h49.01.915,HF_wild_card,2022.2.4,Win32,60.12144532,63f77aa9a4d7a65bb7a411f8,64d2fd46c836a06233681665,64dc7e32210a0a3e632da83a,,,,,,,ctch,resources/DP.BMP,resources/DG.BMP,Door1,0.291897891,-0.027192009,1,0,0,0.5129,optionRight,30,5820,3,22,0,22,0,1,,,,,,,,,,,,,,,,,,,,,,,,,,,,,,,,,,,,,,,
,,,,,,,,2023-08-16_08h49.01.915,HF_wild_card,2022.2.4,Win32,60.12144532,63f77aa9a4d7a65bb7a411f8,64d2fd46c836a06233681665,64dc7e32210a0a3e632da83a,,,,,,,decisionTrl,resources/DG.BMP,resources/DBN.BMP,Door1,-0.354051054,-0.054938957,1,0,0,0.7299,optionLeft,30,5850,3,23,0,23,0,1,,,,,,,,,,,,,,,,,,,,,,,,,,,,,,,,,,,,,,,
,,,,,,,,2023-08-16_08h49.01.915,HF_wild_card,2022.2.4,Win32,60.12144532,63f77aa9a4d7a65bb7a411f8,64d2fd46c836a06233681665,64dc7e32210a0a3e632da83a,,,,,,,decisionTrl,resources/DR.BMP,resources/DP.BMP,Door4,0.366259711,-0.022752497,1,0,0,0.6937,optionRight,60,5910,3,24,0,24,0,1,,,,,,,,,,,,,,,,,,,,,,,,,,,,,,,,,,,,,,,
,,,,,,,,2023-08-16_08h49.01.915,HF_wild_card,2022.2.4,Win32,60.12144532,63f77aa9a4d7a65bb7a411f8,64d2fd46c836a06233681665,64dc7e32210a0a3e632da83a,,,,,,,decisionTrl,resources/DR.BMP,resources/DB.BMP,Door3,-0.318534961,-0.062708102,1,0,0,0.873,optionLeft,70,5980,3,25,0,25,0,1,,,,,,,,,,,,,,,,,,,,,,,,,,,,,,,,,,,,,,,
,,,,,,,,2023-08-16_08h49.01.915,HF_wild_card,2022.2.4,Win32,60.12144532,63f77aa9a4d7a65bb7a411f8,64d2fd46c836a06233681665,64dc7e32210a0a3e632da83a,,,,,,,sngl,resources/Empty.png,resources/DR.BMP,Door3,0.275249723,-0.088235294,1,0,0,0.5113,optionRight,70,6050,3,26,0,26,0,1,,,,,,,,,,,,,,,,,,,,,,,,,,,,,,,,,,,,,,,
,,,,,,,,2023-08-16_08h49.01.915,HF_wild_card,2022.2.4,Win32,60.12144532,63f77aa9a4d7a65bb7a411f8,64d2fd46c836a06233681665,64dc7e32210a0a3e632da83a,,,,,,,sngl,resources/DBN.BMP,resources/Empty.png,Door2,-0.351831299,-0.070477248,1,0,0,0.4941,optionLeft,40,6090,3,27,0,27,0,1,,,,,,,,,,,,,,,,,,,,,,,,,,,,,,,,,,,,,,,
,,,,,,,,2023-08-16_08h49.01.915,HF_wild_card,2022.2.4,Win32,60.12144532,63f77aa9a4d7a65bb7a411f8,64d2fd46c836a06233681665,64dc7e32210a0a3e632da83a,,,,,,,decisionTrl,resources/DG.BMP,resources/DBN.BMP,Door1,-0.306326304,-0.019422863,1,0,0,0.9936,optionLeft,30,6120,3,28,0,28,0,1,,,,,,,,,,,,,,,,,,,,,,,,,,,,,,,,,,,,,,,
,,,,,,,,2023-08-16_08h49.01.915,HF_wild_card,2022.2.4,Win32,60.12144532,63f77aa9a4d7a65bb7a411f8,64d2fd46c836a06233681665,64dc7e32210a0a3e632da83a,,,,,,,decisionTrl,resources/DP.BMP,resources/DB.BMP,WildCard_NonEx,0.22863485,-0.022752497,1,0,0,1.2944,optionRight,45,6165,3,29,0,29,0,1,,,,,,,,,,,,,,,,,,,,,,,,,,,,,,,,,,,,,,,
,,,,,,,,2023-08-16_08h49.01.915,HF_wild_card,2022.2.4,Win32,60.12144532,63f77aa9a4d7a65bb7a411f8,64d2fd46c836a06233681665,64dc7e32210a0a3e632da83a,,,,,,,sngl,resources/Empty.png,resources/DBN.BMP,Door2,0.476137625,-0.050499445,1,0,0,0.6835,optionRight,20,6185,3,30,0,30,0,1,,,,,,,,,,,,,,,,,,,,,,,,,,,,,,,,,,,,,,,
,,,,,,,,2023-08-16_08h49.01.915,HF_wild_card,2022.2.4,Win32,60.12144532,63f77aa9a4d7a65bb7a411f8,64d2fd46c836a06233681665,64dc7e32210a0a3e632da83a,,,,,,,decisionTrl,resources/DG.BMP,resources/DB.BMP,Door1,-0.215316315,-0.036071032,1,0,0,0.8526,optionLeft,30,6215,3,31,0,31,0,1,,,,,,,,,,,,,,,,,,,,,,,,,,,,,,,,,,,,,,,
,,,,,,,,2023-08-16_08h49.01.915,HF_wild_card,2022.2.4,Win32,60.12144532,63f77aa9a4d7a65bb7a411f8,64d2fd46c836a06233681665,64dc7e32210a0a3e632da83a,,,,,,,ctch,resources/DG.BMP,resources/DP.BMP,Door4,0.294117647,-0.09045505,1,0,0,1.2284,optionRight,60,6275,3,32,0,32,0,1,,,,,,,,,,,,,,,,,,,,,,,,,,,,,,,,,,,,,,,
,,,,,,,,2023-08-16_08h49.01.915,HF_wild_card,2022.2.4,Win32,60.12144532,63f77aa9a4d7a65bb7a411f8,64d2fd46c836a06233681665,64dc7e32210a0a3e632da83a,,,,,,,sngl,resources/Empty.png,resources/DB.BMP,WildCard_NonEx,0.468368479,-0.032741398,1,0,0,0.6561,optionRight,55,6330,3,33,0,33,0,1,,,,,,,,,,,,,,,,,,,,,,,,,,,,,,,,,,,,,,,
,,,,,,,,2023-08-16_08h49.01.915,HF_wild_card,2022.2.4,Win32,60.12144532,63f77aa9a4d7a65bb7a411f8,64d2fd46c836a06233681665,64dc7e32210a0a3e632da83a,,,,,,,sngl,resources/DP.BMP,resources/Empty.png,Door4,-0.285238624,-0.053829079,1,0,0,0.8274,optionLeft,80,6410,3,34,0,34,0,1,,,,,,,,,,,,,,,,,,,,,,,,,,,,,,,,,,,,,,,
,,,,,,,,2023-08-16_08h49.01.915,HF_wild_card,2022.2.4,Win32,60.12144532,63f77aa9a4d7a65bb7a411f8,64d2fd46c836a06233681665,64dc7e32210a0a3e632da83a,,,,,,,decisionTrl,resources/DR.BMP,resources/DP.BMP,Door4,0.432852386,-0.051609323,1,0,0,0.6714,optionRight,60,6470,3,35,0,35,0,1,,,,,,,,,,,,,,,,,,,,,,,,,,,,,,,,,,,,,,,
,,,,,,,,2023-08-16_08h49.01.915,HF_wild_card,2022.2.4,Win32,60.12144532,63f77aa9a4d7a65bb7a411f8,64d2fd46c836a06233681665,64dc7e32210a0a3e632da83a,,,,,,,sngl,resources/DB.BMP,resources/Empty.png,WildCard_NonEx,-0.324084351,-0.088235294,1,0,0,0.5895,optionLeft,45,6515,3,36,0,36,0,1,,,,,,,,,,,,,,,,,,,,,,,,,,,,,,,,,,,,,,,
,,,,,,,,2023-08-16_08h49.01.915,HF_wild_card,2022.2.4,Win32,60.12144532,63f77aa9a4d7a65bb7a411f8,64d2fd46c836a06233681665,64dc7e32210a0a3e632da83a,,,,,,,decisionTrl,resources/DBN.BMP,resources/DG.BMP,Door1,0.379578246,-0.041620422,1,0,0,0.8588,optionRight,30,6545,3,37,0,37,0,1,,,,,,,,,,,,,,,,,,,,,,,,,,,,,,,,,,,,,,,
,,,,,,,,2023-08-16_08h49.01.915,HF_wild_card,2022.2.4,Win32,60.12144532,63f77aa9a4d7a65bb7a411f8,64d2fd46c836a06233681665,64dc7e32210a0a3e632da83a,,,,,,,sngl,resources/Empty.png,resources/DB.BMP,WildCard_NonEx,0.359600444,-0.052719201,1,0,0,0.765,optionRight,45,6590,3,38,0,38,0,1,,,,,,,,,,,,,,,,,,,,,,,,,,,,,,,,,,,,,,,
,,,,,,,,2023-08-16_08h49.01.915,HF_wild_card,2022.2.4,Win32,60.12144532,63f77aa9a4d7a65bb7a411f8,64d2fd46c836a06233681665,64dc7e32210a0a3e632da83a,,,,,,,decisionTrl,resources/DBN.BMP,resources/DB.BMP,WildCard_NonEx,0.466148724,-0.043840178,1,0,0,0.6629,optionRight,55,6645,3,39,0,39,0,1,,,,,,,,,,,,,,,,,,,,,,,,,,,,,,,,,,,,,,,
,,,,,,,,2023-08-16_08h49.01.915,HF_wild_card,2022.2.4,Win32,60.12144532,63f77aa9a4d7a65bb7a411f8,64d2fd46c836a06233681665,64dc7e32210a0a3e632da83a,,,,,,,decisionTrl,resources/DB.BMP,resources/DG.BMP,WildCard_NonEx,-0.23418424,-0.088235294,1,0,0,0.9065,optionLeft,45,6690,3,40,0,40,0,1,,,,,,,,,,,,,,,,,,,,,,,,,,,,,,,,,,,,,,,
,,,,,,,,2023-08-16_08h49.01.915,HF_wild_card,2022.2.4,Win32,60.12144532,63f77aa9a4d7a65bb7a411f8,64d2fd46c836a06233681665,64dc7e32210a0a3e632da83a,,,,,,,sngl,resources/DR.BMP,resources/Empty.png,Door3,-0.195338513,0.008324084,1,0,0,0.679,optionLeft,70,6760,3,41,0,41,0,1,,,,,,,,,,,,,,,,,,,,,,,,,,,,,,,,,,,,,,,
,,,,,,,,2023-08-16_08h49.01.915,HF_wild_card,2022.2.4,Win32,60.12144532,63f77aa9a4d7a65bb7a411f8,64d2fd46c836a06233681665,64dc7e32210a0a3e632da83a,,,,,,,decisionTrl,resources/DBN.BMP,resources/DG.BMP,Door1,0.375138735,0.018312986,1,0,0,0.6262,optionRight,30,6790,3,42,0,42,0,1,,,,,,,,,,,,,,,,,,,,,,,,,,,,,,,,,,,,,,,
,,,,,,,,2023-08-16_08h49.01.915,HF_wild_card,2022.2.4,Win32,60.12144532,63f77aa9a4d7a65bb7a411f8,64d2fd46c836a06233681665,64dc7e32210a0a3e632da83a,,,,,,,decisionTrl,resources/DG.BMP,resources/DBN.BMP,Door2,0.254162042,0.019422863,1,0,0,4.6029,optionRight,40,6830,3,43,0,43,0,1,,,,,,,,,,,,,,,,,,,,,,,,,,,,,,,,,,,,,,,
,,,,,,,,2023-08-16_08h49.01.915,HF_wild_card,2022.2.4,Win32,60.12144532,63f77aa9a4d7a65bb7a411f8,64d2fd46c836a06233681665,64dc7e32210a0a3e632da83a,,,,,,,,,,,,,,,,,,,,,,,,,,2,0,2,0,1,,,,,,,,,,,,,,,,,,,,,,,,,,,,,,,,,,
,,,,,,,,2023-08-16_08h49.01.915,HF_wild_card,2022.2.4,Win32,60.12144532,63f77aa9a4d7a65bb7a411f8,64d2fd46c836a06233681665,64dc7e32210a0a3e632da83a,,,,,,,ctch,resources/DP.BMP,resources/DG.BMP,Door1,0.368479467,-0.11709212,1,0,0,1.5555,optionRight,30,6860,4,0,0,0,0,1,,,,,,,,,,,,,,,,,,,,,,,,,,,,,,,,,,,,,,,
,,,,,,,,2023-08-16_08h49.01.915,HF_wild_card,2022.2.4,Win32,60.12144532,63f77aa9a4d7a65bb7a411f8,64d2fd46c836a06233681665,64dc7e32210a0a3e632da83a,,,,,,,decisionTrl,resources/DP.BMP,resources/DY.BMP,Door4,-0.197558269,-0.0427303,1,0,0,0.6929,optionLeft,60,6920,4,1,0,1,0,1,,,,,,,,,,,,,,,,,,,,,,,,,,,,,,,,,,,,,,,
,,,,,,,,2023-08-16_08h49.01.915,HF_wild_card,2022.2.4,Win32,60.12144532,63f77aa9a4d7a65bb7a411f8,64d2fd46c836a06233681665,64dc7e32210a0a3e632da83a,,,,,,,decisionTrl,resources/DR.BMP,resources/DY.BMP,WildCard_Ex,0.400665927,-0.01054384,1,0,0,0.879,optionRight,5,6925,4,2,0,2,0,1,,,,,,,,,,,,,,,,,,,,,,,,,,,,,,,,,,,,,,,
,,,,,,,,2023-08-16_08h49.01.915,HF_wild_card,2022.2.4,Win32,60.12144532,63f77aa9a4d7a65bb7a411f8,64d2fd46c836a06233681665,64dc7e32210a0a3e632da83a,,,,,,,ctch,resources/DG.BMP,resources/DP.BMP,Door1,-0.267480577,-0.007214206,1,0,0,1.0198,optionLeft,30,6955,4,3,0,3,0,1,,,,,,,,,,,,,,,,,,,,,,,,,,,,,,,,,,,,,,,
,,,,,,,,2023-08-16_08h49.01.915,HF_wild_card,2022.2.4,Win32,60.12144532,63f77aa9a4d7a65bb7a411f8,64d2fd46c836a06233681665,64dc7e32210a0a3e632da83a,,,,,,,decisionTrl,resources/DG.BMP,resources/DBN.BMP,Door1,-0.218645949,-0.01609323,1,0,0,0.6409,optionLeft,30,6985,4,4,0,4,0,1,,,,,,,,,,,,,,,,,,,,,,,,,,,,,,,,,,,,,,,
,,,,,,,,2023-08-16_08h49.01.915,HF_wild_card,2022.2.4,Win32,60.12144532,63f77aa9a4d7a65bb7a411f8,64d2fd46c836a06233681665,64dc7e32210a0a3e632da83a,,,,,,,sngl,resources/DY.BMP,resources/Empty.png,WildCard_Ex,-0.146503885,-0.011653718,1,0,0,0.5822,optionLeft,95,7080,4,5,0,5,0,1,,,,,,,,,,,,,,,,,,,,,,,,,,,,,,,,,,,,,,,
,,,,,,,,2023-08-16_08h49.01.915,HF_wild_card,2022.2.4,Win32,60.12144532,63f77aa9a4d7a65bb7a411f8,64d2fd46c836a06233681665,64dc7e32210a0a3e632da83a,,,,,,,decisionTrl,resources/DR.BMP,resources/DP.BMP,Door4,0.336293008,-0.024972253,1,0,0,0.9138,optionRight,60,7140,4,6,0,6,0,1,,,,,,,,,,,,,,,,,,,,,,,,,,,,,,,,,,,,,,,
,,,,,,,,2023-08-16_08h49.01.915,HF_wild_card,2022.2.4,Win32,60.12144532,63f77aa9a4d7a65bb7a411f8,64d2fd46c836a06233681665,64dc7e32210a0a3e632da83a,,,,,,,sngl,resources/Empty.png,resources/DP.BMP,Door4,0.229744728,-0.174805771,1,0,0,2.7292,optionRight,80,7220,4,7,0,7,0,1,,,,,,,,,,,,,,,,,,,,,,,,,,,,,,,,,,,,,,,
,,,,,,,,2023-08-16_08h49.01.915,HF_wild_card,2022.2.4,Win32,60.12144532,63f77aa9a4d7a65bb7a411f8,64d2fd46c836a06233681665,64dc7e32210a0a3e632da83a,,,,,,,sngl,resources/Empty.png,resources/DY.BMP,WildCard_Ex,0.305216426,0.002774695,1,0,0,0.5389,optionRight,95,7315,4,8,0,8,0,1,,,,,,,,,,,,,,,,,,,,,,,,,,,,,,,,,,,,,,,
,,,,,,,,2023-08-16_08h49.01.915,HF_wild_card,2022.2.4,Win32,60.12144532,63f77aa9a4d7a65bb7a411f8,64d2fd46c836a06233681665,64dc7e32210a0a3e632da83a,,,,,,,decisionTrl,resources/DP.BMP,resources/DR.BMP,Door3,0.426193119,0.011653718,1,0,0,0.3892,optionRight,70,7385,4,9,0,9,0,1,,,,,,,,,,,,,,,,,,,,,,,,,,,,,,,,,,,,,,,
,,,,,,,,2023-08-16_08h49.01.915,HF_wild_card,2022.2.4,Win32,60.12144532,63f77aa9a4d7a65bb7a411f8,64d2fd46c836a06233681665,64dc7e32210a0a3e632da83a,,,,,,,sngl,resources/Empty.png,resources/DBN.BMP,Door2,0.459489456,-0.014983352,1,0,0,0.458,optionRight,40,7425,4,10,0,10,0,1,,,,,,,,,,,,,,,,,,,,,,,,,,,,,,,,,,,,,,,
,,,,,,,,2023-08-16_08h49.01.915,HF_wild_card,2022.2.4,Win32,60.12144532,63f77aa9a4d7a65bb7a411f8,64d2fd46c836a06233681665,64dc7e32210a0a3e632da83a,,,,,,,sngl,resources/DP.BMP,resources/Empty.png,Door4,-0.152053274,-0.054938957,1,0,0,0.5641,optionLeft,60,7485,4,11,0,11,0,1,,,,,,,,,,,,,,,,,,,,,,,,,,,,,,,,,,,,,,,
,,,,,,,,2023-08-16_08h49.01.915,HF_wild_card,2022.2.4,Win32,60.12144532,63f77aa9a4d7a65bb7a411f8,64d2fd46c836a06233681665,64dc7e32210a0a3e632da83a,,,,,,,sngl,resources/Empty.png,resources/DR.BMP,Door3,0.507214206,-0.03718091,1,0,0,0.5724,optionRight,70,7555,4,12,0,12,0,1,,,,,,,,,,,,,,,,,,,,,,,,,,,,,,,,,,,,,,,
,,,,,,,,2023-08-16_08h49.01.915,HF_wild_card,2022.2.4,Win32,60.12144532,63f77aa9a4d7a65bb7a411f8,64d2fd46c836a06233681665,64dc7e32210a0a3e632da83a,,,,,,,decisionTrl,resources/DP.BMP,resources/DR.BMP,Door4,-0.230854606,-0.050499445,1,0,0,0.6255,optionLeft,60,7615,4,13,0,13,0,1,,,,,,,,,,,,,,,,,,,,,,,,,,,,,,,,,,,,,,,
,,,,,,,,2023-08-16_08h49.01.915,HF_wild_card,2022.2.4,Win32,60.12144532,63f77aa9a4d7a65bb7a411f8,64d2fd46c836a06233681665,64dc7e32210a0a3e632da83a,,,,,,,decisionTrl,resources/DBN.BMP,resources/DG.BMP,Door1,0.376248613,-0.034961154,1,0,0,0.4848,optionRight,30,7645,4,14,0,14,0,1,,,,,,,,,,,,,,,,,,,,,,,,,,,,,,,,,,,,,,,
,,,,,,,,2023-08-16_08h49.01.915,HF_wild_card,2022.2.4,Win32,60.12144532,63f77aa9a4d7a65bb7a411f8,64d2fd46c836a06233681665,64dc7e32210a0a3e632da83a,,,,,,,sngl,resources/DG.BMP,resources/Empty.png,Door1,-0.208657048,-0.046059933,1,0,0,0.7087,optionLeft,30,7675,4,15,0,15,0,1,,,,,,,,,,,,,,,,,,,,,,,,,,,,,,,,,,,,,,,
,,,,,,,,2023-08-16_08h49.01.915,HF_wild_card,2022.2.4,Win32,60.12144532,63f77aa9a4d7a65bb7a411f8,64d2fd46c836a06233681665,64dc7e32210a0a3e632da83a,,,,,,,decisionTrl,resources/DR.BMP,resources/DP.BMP,Door4,0.435072142,-0.047169811,1,0,0,0.6632,optionRight,60,7735,4,16,0,16,0,1,,,,,,,,,,,,,,,,,,,,,,,,,,,,,,,,,,,,,,,
,,,,,,,,2023-08-16_08h49.01.915,HF_wild_card,2022.2.4,Win32,60.12144532,63f77aa9a4d7a65bb7a411f8,64d2fd46c836a06233681665,64dc7e32210a0a3e632da83a,,,,,,,decisionTrl,resources/DG.BMP,resources/DBN.BMP,Door2,0.44173141,-0.052719201,1,0,0,0.8555,optionRight,40,7775,4,17,0,17,0,1,,,,,,,,,,,,,,,,,,,,,,,,,,,,,,,,,,,,,,,
,,,,,,,,2023-08-16_08h49.01.915,HF_wild_card,2022.2.4,Win32,60.12144532,63f77aa9a4d7a65bb7a411f8,64d2fd46c836a06233681665,64dc7e32210a0a3e632da83a,,,,,,,sngl,resources/DY.BMP,resources/Empty.png,WildCard_Ex,-0.099889012,-0.039400666,1,0,0,0.5486,optionLeft,5,7780,4,18,0,18,0,1,,,,,,,,,,,,,,,,,,,,,,,,,,,,,,,,,,,,,,,
,,,,,,,,2023-08-16_08h49.01.915,HF_wild_card,2022.2.4,Win32,60.12144532,63f77aa9a4d7a65bb7a411f8,64d2fd46c836a06233681665,64dc7e32210a0a3e632da83a,,,,,,,ctch,resources/DBN.BMP,resources/DR.BMP,Door3,0.290788013,0.01054384,1,0,0,1.1552,optionRight,70,7850,4,19,0,19,0,1,,,,,,,,,,,,,,,,,,,,,,,,,,,,,,,,,,,,,,,
,,,,,,,,2023-08-16_08h49.01.915,HF_wild_card,2022.2.4,Win32,60.12144532,63f77aa9a4d7a65bb7a411f8,64d2fd46c836a06233681665,64dc7e32210a0a3e632da83a,,,,,,,ctch,resources/DBN.BMP,resources/DR.BMP,Door3,0.250832408,-0.044950055,1,0,0,0.9544,optionRight,70,7920,4,20,0,20,0,1,,,,,,,,,,,,,,,,,,,,,,,,,,,,,,,,,,,,,,,
,,,,,,,,2023-08-16_08h49.01.915,HF_wild_card,2022.2.4,Win32,60.12144532,63f77aa9a4d7a65bb7a411f8,64d2fd46c836a06233681665,64dc7e32210a0a3e632da83a,,,,,,,decisionTrl,resources/DBN.BMP,resources/DG.BMP,Door2,-0.183129856,-0.052719201,1,0,0,1.2949,optionLeft,40,7960,4,21,0,21,0,1,,,,,,,,,,,,,,,,,,,,,,,,,,,,,,,,,,,,,,,
,,,,,,,,2023-08-16_08h49.01.915,HF_wild_card,2022.2.4,Win32,60.12144532,63f77aa9a4d7a65bb7a411f8,64d2fd46c836a06233681665,64dc7e32210a0a3e632da83a,,,,,,,ctch,resources/DG.BMP,resources/DP.BMP,Door4,0.279689234,-0.032741398,1,0,0,1.0116,optionRight,60,8020,4,22,0,22,0,1,,,,,,,,,,,,,,,,,,,,,,,,,,,,,,,,,,,,,,,
,,,,,,,,2023-08-16_08h49.01.915,HF_wild_card,2022.2.4,Win32,60.12144532,63f77aa9a4d7a65bb7a411f8,64d2fd46c836a06233681665,64dc7e32210a0a3e632da83a,,,,,,,decisionTrl,resources/DY.BMP,resources/DP.BMP,WildCard_Ex,-0.391786903,-0.071587125,1,0,0,1.0978,optionLeft,95,8115,4,23,0,23,0,1,,,,,,,,,,,,,,,,,,,,,,,,,,,,,,,,,,,,,,,
,,,,,,,,2023-08-16_08h49.01.915,HF_wild_card,2022.2.4,Win32,60.12144532,63f77aa9a4d7a65bb7a411f8,64d2fd46c836a06233681665,64dc7e32210a0a3e632da83a,,,,,,,decisionTrl,resources/DP.BMP,resources/DR.BMP,Door3,0.267480577,-0.013873474,1,0,0,1.8808,optionRight,70,8185,4,24,0,24,0,1,,,,,,,,,,,,,,,,,,,,,,,,,,,,,,,,,,,,,,,
,,,,,,,,2023-08-16_08h49.01.915,HF_wild_card,2022.2.4,Win32,60.12144532,63f77aa9a4d7a65bb7a411f8,64d2fd46c836a06233681665,64dc7e32210a0a3e632da83a,,,,,,,decisionTrl,resources/DY.BMP,resources/DR.BMP,WildCard_Ex,-0.330743618,-0.021642619,1,0,0,1.0888,optionLeft,95,8280,4,25,0,25,0,1,,,,,,,,,,,,,,,,,,,,,,,,,,,,,,,,,,,,,,,
,,,,,,,,2023-08-16_08h49.01.915,HF_wild_card,2022.2.4,Win32,60.12144532,63f77aa9a4d7a65bb7a411f8,64d2fd46c836a06233681665,64dc7e32210a0a3e632da83a,,,,,,,ctch,resources/DP.BMP,resources/DG.BMP,Door4,-0.238623751,-0.079356271,1,0,0,1.5555,optionLeft,60,8340,4,26,0,26,0,1,,,,,,,,,,,,,,,,,,,,,,,,,,,,,,,,,,,,,,,
,,,,,,,,2023-08-16_08h49.01.915,HF_wild_card,2022.2.4,Win32,60.12144532,63f77aa9a4d7a65bb7a411f8,64d2fd46c836a06233681665,64dc7e32210a0a3e632da83a,,,,,,,decisionTrl,resources/DR.BMP,resources/DP.BMP,Door4,0.317425083,-0.041620422,1,0,0,0.5073,optionRight,60,8400,4,27,0,27,0,1,,,,,,,,,,,,,,,,,,,,,,,,,,,,,,,,,,,,,,,
,,,,,,,,2023-08-16_08h49.01.915,HF_wild_card,2022.2.4,Win32,60.12144532,63f77aa9a4d7a65bb7a411f8,64d2fd46c836a06233681665,64dc7e32210a0a3e632da83a,,,,,,,sngl,resources/DR.BMP,resources/Empty.png,Door3,-0.146503885,-0.056048835,1,0,0,0.619,optionLeft,70,8470,4,28,0,28,0,1,,,,,,,,,,,,,,,,,,,,,,,,,,,,,,,,,,,,,,,
,,,,,,,,2023-08-16_08h49.01.915,HF_wild_card,2022.2.4,Win32,60.12144532,63f77aa9a4d7a65bb7a411f8,64d2fd46c836a06233681665,64dc7e32210a0a3e632da83a,,,,,,,decisionTrl,resources/DR.BMP,resources/DP.BMP,Door3,-0.225305216,-0.109322974,1,0,0,2.3415,optionLeft,70,8540,4,29,0,29,0,1,,,,,,,,,,,,,,,,,,,,,,,,,,,,,,,,,,,,,,,
,,,,,,,,2023-08-16_08h49.01.915,HF_wild_card,2022.2.4,Win32,60.12144532,63f77aa9a4d7a65bb7a411f8,64d2fd46c836a06233681665,64dc7e32210a0a3e632da83a,,,,,,,decisionTrl,resources/DY.BMP,resources/DG.BMP,Door1,0.283018868,0.003884573,1,0,0,0.7422,optionRight,30,8570,4,30,0,30,0,1,,,,,,,,,,,,,,,,,,,,,,,,,,,,,,,,,,,,,,,
,,,,,,,,2023-08-16_08h49.01.915,HF_wild_card,2022.2.4,Win32,60.12144532,63f77aa9a4d7a65bb7a411f8,64d2fd46c836a06233681665,64dc7e32210a0a3e632da83a,,,,,,,decisionTrl,resources/DG.BMP,resources/DY.BMP,WildCard_Ex,0.243063263,0.001664817,1,0,0,0.5622,optionRight,5,8575,4,31,0,31,0,1,,,,,,,,,,,,,,,,,,,,,,,,,,,,,,,,,,,,,,,
,,,,,,,,2023-08-16_08h49.01.915,HF_wild_card,2022.2.4,Win32,60.12144532,63f77aa9a4d7a65bb7a411f8,64d2fd46c836a06233681665,64dc7e32210a0a3e632da83a,,,,,,,decisionTrl,resources/DBN.BMP,resources/DG.BMP,Door1,0.394006659,-0.036071032,1,0,0,1.6969,optionRight,30,8605,4,32,0,32,0,1,,,,,,,,,,,,,,,,,,,,,,,,,,,,,,,,,,,,,,,
,,,,,,,,2023-08-16_08h49.01.915,HF_wild_card,2022.2.4,Win32,60.12144532,63f77aa9a4d7a65bb7a411f8,64d2fd46c836a06233681665,64dc7e32210a0a3e632da83a,,,,,,,decisionTrl,resources/DG.BMP,resources/DBN.BMP,Door1,-0.406215316,-0.020532741,1,0,0,1.0263,optionLeft,30,8635,4,33,0,33,0,1,,,,,,,,,,,,,,,,,,,,,,,,,,,,,,,,,,,,,,,
,,,,,,,,2023-08-16_08h49.01.915,HF_wild_card,2022.2.4,Win32,60.12144532,63f77aa9a4d7a65bb7a411f8,64d2fd46c836a06233681665,64dc7e32210a0a3e632da83a,,,,,,,ctch,resources/DR.BMP,resources/DBN.BMP,Door3,-0.249722531,-0.09045505,1,0,0,0.8048,optionLeft,70,8705,4,34,0,34,0,1,,,,,,,,,,,,,,,,,,,,,,,,,,,,,,,,,,,,,,,
,,,,,,,,2023-08-16_08h49.01.915,HF_wild_card,2022.2.4,Win32,60.12144532,63f77aa9a4d7a65bb7a411f8,64d2fd46c836a06233681665,64dc7e32210a0a3e632da83a,,,,,,,decisionTrl,resources/DBN.BMP,resources/DG.BMP,Door1,0.438401776,-0.054938957,1,0,0,0.7257,optionRight,30,8735,4,35,0,35,0,1,,,,,,,,,,,,,,,,,,,,,,,,,,,,,,,,,,,,,,,
,,,,,,,,2023-08-16_08h49.01.915,HF_wild_card,2022.2.4,Win32,60.12144532,63f77aa9a4d7a65bb7a411f8,64d2fd46c836a06233681665,64dc7e32210a0a3e632da83a,,,,,,,sngl,resources/Empty.png,resources/DG.BMP,Door1,0.379578246,-0.019422863,1,0,0,0.5755,optionRight,30,8765,4,36,0,36,0,1,,,,,,,,,,,,,,,,,,,,,,,,,,,,,,,,,,,,,,,
,,,,,,,,2023-08-16_08h49.01.915,HF_wild_card,2022.2.4,Win32,60.12144532,63f77aa9a4d7a65bb7a411f8,64d2fd46c836a06233681665,64dc7e32210a0a3e632da83a,,,,,,,ctch,resources/DR.BMP,resources/DBN.BMP,Door3,-0.26082131,-0.06381798,1,0,0,0.6202,optionLeft,70,8835,4,37,0,37,0,1,,,,,,,,,,,,,,,,,,,,,,,,,,,,,,,,,,,,,,,
,,,,,,,,2023-08-16_08h49.01.915,HF_wild_card,2022.2.4,Win32,60.12144532,63f77aa9a4d7a65bb7a411f8,64d2fd46c836a06233681665,64dc7e32210a0a3e632da83a,,,,,,,sngl,resources/Empty.png,resources/DY.BMP,WildCard_Ex,0.502774695,0.003884573,1,0,0,0.4613,optionRight,5,8840,4,38,0,38,0,1,,,,,,,,,,,,,,,,,,,,,,,,,,,,,,,,,,,,,,,
,,,,,,,,2023-08-16_08h49.01.915,HF_wild_card,2022.2.4,Win32,60.12144532,63f77aa9a4d7a65bb7a411f8,64d2fd46c836a06233681665,64dc7e32210a0a3e632da83a,,,,,,,decisionTrl,resources/DP.BMP,resources/DR.BMP,Door3,0.350721421,0.057158713,1,0,0,0.5613,optionRight,70,8910,4,39,0,39,0,1,,,,,,,,,,,,,,,,,,,,,,,,,,,,,,,,,,,,,,,
,,,,,,,,2023-08-16_08h49.01.915,HF_wild_card,2022.2.4,Win32,60.12144532,63f77aa9a4d7a65bb7a411f8,64d2fd46c836a06233681665,64dc7e32210a0a3e632da83a,,,,,,,decisionTrl,resources/DG.BMP,resources/DBN.BMP,Door1,-0.279689234,-0.008324084,1,0,0,0.7874,optionLeft,30,8940,4,40,0,40,0,1,,,,,,,,,,,,,,,,,,,,,,,,,,,,,,,,,,,,,,,
,,,,,,,,2023-08-16_08h49.01.915,HF_wild_card,2022.2.4,Win32,60.12144532,63f77aa9a4d7a65bb7a411f8,64d2fd46c836a06233681665,64dc7e32210a0a3e632da83a,,,,,,,decisionTrl,resources/DBN.BMP,resources/DY.BMP,WildCard_Ex,0.224195339,-0.024972253,1,0,0,0.6465,optionRight,5,8945,4,41,0,41,0,1,,,,,,,,,,,,,,,,,,,,,,,,,,,,,,,,,,,,,,,
,,,,,,,,2023-08-16_08h49.01.915,HF_wild_card,2022.2.4,Win32,60.12144532,63f77aa9a4d7a65bb7a411f8,64d2fd46c836a06233681665,64dc7e32210a0a3e632da83a,,,,,,,sngl,resources/DBN.BMP,resources/Empty.png,Door2,-0.15427303,-0.012763596,1,0,0,0.6596,optionLeft,20,8965,4,42,0,42,0,1,,,,,,,,,,,,,,,,,,,,,,,,,,,,,,,,,,,,,,,
,,,,,,,,2023-08-16_08h49.01.915,HF_wild_card,2022.2.4,Win32,60.12144532,63f77aa9a4d7a65bb7a411f8,64d2fd46c836a06233681665,64dc7e32210a0a3e632da83a,,,,,,,decisionTrl,resources/DY.BMP,resources/DBN.BMP,WildCard_Ex,-0.321864595,-0.054938957,1,0,0,0.9268,optionLeft,5,8970,4,43,0,43,0,1,,,,,,,,,,,,,,,,,,,,,,,,,,,,,,,,,,,,,,,
,,,,,,,,2023-08-16_08h49.01.915,HF_wild_card,2022.2.4,Win32,60.12144532,63f77aa9a4d7a65bb7a411f8,64d2fd46c836a06233681665,64dc7e32210a0a3e632da83a,,,,,,,,,,,,,,,,,,,,,,,,,,3,0,3,0,1,,,,,,,,,,,,,,,,,,,,,,,,,,,,,,,,,,
,,,,,,,,2023-08-16_08h49.01.915,HF_wild_card,2022.2.4,Win32,60.12144532,63f77aa9a4d7a65bb7a411f8,64d2fd46c836a06233681665,64dc7e32210a0a3e632da83a,,,,,,,ctch,resources/DBN.BMP,resources/DR.BMP,Door3,0.405105438,-0.153718091,1,0,0,0.8923,optionRight,70,9040,5,0,0,0,0,1,,,,,,,,,,,,,,,,,,,,,,,,,,,,,,,,,,,,,,,
,,,,,,,,2023-08-16_08h49.01.915,HF_wild_card,2022.2.4,Win32,60.12144532,63f77aa9a4d7a65bb7a411f8,64d2fd46c836a06233681665,64dc7e32210a0a3e632da83a,,,,,,,sngl,resources/DY.BMP,resources/Empty.png,WildCard_Ex,-0.342952275,-0.01609323,1,0,0,0.5185,optionLeft,5,9045,5,1,0,1,0,1,,,,,,,,,,,,,,,,,,,,,,,,,,,,,,,,,,,,,,,
,,,,,,,,2023-08-16_08h49.01.915,HF_wild_card,2022.2.4,Win32,60.12144532,63f77aa9a4d7a65bb7a411f8,64d2fd46c836a06233681665,64dc7e32210a0a3e632da83a,,,,,,,sngl,resources/Empty.png,resources/DBN.BMP,Door2,0.35627081,0.009433962,1,0,0,0.5016,optionRight,20,9065,5,2,0,2,0,1,,,,,,,,,,,,,,,,,,,,,,,,,,,,,,,,,,,,,,,
,,,,,,,,2023-08-16_08h49.01.915,HF_wild_card,2022.2.4,Win32,60.12144532,63f77aa9a4d7a65bb7a411f8,64d2fd46c836a06233681665,64dc7e32210a0a3e632da83a,,,,,,,decisionTrl,resources/DP.BMP,resources/DY.BMP,WildCard_Ex,0.348501665,-0.007214206,1,0,0,0.4667,optionRight,5,9070,5,3,0,3,0,1,,,,,,,,,,,,,,,,,,,,,,,,,,,,,,,,,,,,,,,
,,,,,,,,2023-08-16_08h49.01.915,HF_wild_card,2022.2.4,Win32,60.12144532,63f77aa9a4d7a65bb7a411f8,64d2fd46c836a06233681665,64dc7e32210a0a3e632da83a,,,,,,,decisionTrl,resources/DBN.BMP,resources/DG.BMP,Door2,-0.257491676,0.003884573,1,0,0,0.657,optionLeft,20,9090,5,4,0,4,0,1,,,,,,,,,,,,,,,,,,,,,,,,,,,,,,,,,,,,,,,
,,,,,,,,2023-08-16_08h49.01.915,HF_wild_card,2022.2.4,Win32,60.12144532,63f77aa9a4d7a65bb7a411f8,64d2fd46c836a06233681665,64dc7e32210a0a3e632da83a,,,,,,,decisionTrl,resources/DY.BMP,resources/DBN.BMP,WildCard_Ex,-0.374028857,-0.059378468,1,0,0,0.5552,optionLeft,5,9095,5,5,0,5,0,1,,,,,,,,,,,,,,,,,,,,,,,,,,,,,,,,,,,,,,,
,,,,,,,,2023-08-16_08h49.01.915,HF_wild_card,2022.2.4,Win32,60.12144532,63f77aa9a4d7a65bb7a411f8,64d2fd46c836a06233681665,64dc7e32210a0a3e632da83a,,,,,,,sngl,resources/DBN.BMP,resources/Empty.png,Door2,-0.132075472,-0.003884573,1,0,0,0.5045,optionLeft,40,9135,5,6,0,6,0,1,,,,,,,,,,,,,,,,,,,,,,,,,,,,,,,,,,,,,,,
,,,,,,,,2023-08-16_08h49.01.915,HF_wild_card,2022.2.4,Win32,60.12144532,63f77aa9a4d7a65bb7a411f8,64d2fd46c836a06233681665,64dc7e32210a0a3e632da83a,,,,,,,decisionTrl,resources/DP.BMP,resources/DR.BMP,Door3,0.429522752,-0.026082131,1,0,0,0.7992,optionRight,70,9205,5,7,0,7,0,1,,,,,,,,,,,,,,,,,,,,,,,,,,,,,,,,,,,,,,,
,,,,,,,,2023-08-16_08h49.01.915,HF_wild_card,2022.2.4,Win32,60.12144532,63f77aa9a4d7a65bb7a411f8,64d2fd46c836a06233681665,64dc7e32210a0a3e632da83a,,,,,,,decisionTrl,resources/DR.BMP,resources/DY.BMP,WildCard_Ex,0.395116537,0.024972253,1,0,0,1.2348,optionRight,5,9210,5,8,0,8,0,1,,,,,,,,,,,,,,,,,,,,,,,,,,,,,,,,,,,,,,,
,,,,,,,,2023-08-16_08h49.01.915,HF_wild_card,2022.2.4,Win32,60.12144532,63f77aa9a4d7a65bb7a411f8,64d2fd46c836a06233681665,64dc7e32210a0a3e632da83a,,,,,,,sngl,resources/Empty.png,resources/DY.BMP,WildCard_Ex,0.324084351,-0.034961154,1,0,0,0.7097,optionRight,95,9305,5,9,0,9,0,1,,,,,,,,,,,,,,,,,,,,,,,,,,,,,,,,,,,,,,,
,,,,,,,,2023-08-16_08h49.01.915,HF_wild_card,2022.2.4,Win32,60.12144532,63f77aa9a4d7a65bb7a411f8,64d2fd46c836a06233681665,64dc7e32210a0a3e632da83a,,,,,,,sngl,resources/Empty.png,resources/DR.BMP,Door3,0.375138735,0.004994451,1,0,0,0.8718,optionRight,70,9375,5,10,0,10,0,1,,,,,,,,,,,,,,,,,,,,,,,,,,,,,,,,,,,,,,,
,,,,,,,,2023-08-16_08h49.01.915,HF_wild_card,2022.2.4,Win32,60.12144532,63f77aa9a4d7a65bb7a411f8,64d2fd46c836a06233681665,64dc7e32210a0a3e632da83a,,,,,,,decisionTrl,resources/DY.BMP,resources/DP.BMP,WildCard_Ex,-0.224195339,-0.032741398,1,0,0,1.1726,optionLeft,5,9380,5,11,0,11,0,1,,,,,,,,,,,,,,,,,,,,,,,,,,,,,,,,,,,,,,,
,,,,,,,,2023-08-16_08h49.01.915,HF_wild_card,2022.2.4,Win32,60.12144532,63f77aa9a4d7a65bb7a411f8,64d2fd46c836a06233681665,64dc7e32210a0a3e632da83a,,,,,,,decisionTrl,resources/DBN.BMP,resources/DY.BMP,Door2,-0.197558269,-0.049389567,1,0,0,1.8575,optionLeft,20,9400,5,12,0,12,0,1,,,,,,,,,,,,,,,,,,,,,,,,,,,,,,,,,,,,,,,
,,,,,,,,2023-08-16_08h49.01.915,HF_wild_card,2022.2.4,Win32,60.12144532,63f77aa9a4d7a65bb7a411f8,64d2fd46c836a06233681665,64dc7e32210a0a3e632da83a,,,,,,,decisionTrl,resources/DP.BMP,resources/DR.BMP,Door3,0.374028857,-0.062708102,1,0,0,1.9929,optionRight,70,9470,5,13,0,13,0,1,,,,,,,,,,,,,,,,,,,,,,,,,,,,,,,,,,,,,,,
,,,,,,,,2023-08-16_08h49.01.915,HF_wild_card,2022.2.4,Win32,60.12144532,63f77aa9a4d7a65bb7a411f8,64d2fd46c836a06233681665,64dc7e32210a0a3e632da83a,,,,,,,decisionTrl,resources/DG.BMP,resources/DBN.BMP,Door1,-0.26082131,-0.019422863,1,0,0,0.789,optionLeft,30,9500,5,14,0,14,0,1,,,,,,,,,,,,,,,,,,,,,,,,,,,,,,,,,,,,,,,
,,,,,,,,2023-08-16_08h49.01.915,HF_wild_card,2022.2.4,Win32,60.12144532,63f77aa9a4d7a65bb7a411f8,64d2fd46c836a06233681665,64dc7e32210a0a3e632da83a,,,,,,,sngl,resources/DR.BMP,resources/Empty.png,Door3,-0.237513873,-0.017203108,1,0,0,0.5545,optionLeft,70,9570,5,15,0,15,0,1,,,,,,,,,,,,,,,,,,,,,,,,,,,,,,,,,,,,,,,
,,,,,,,,2023-08-16_08h49.01.915,HF_wild_card,2022.2.4,Win32,60.12144532,63f77aa9a4d7a65bb7a411f8,64d2fd46c836a06233681665,64dc7e32210a0a3e632da83a,,,,,,,ctch,resources/DBN.BMP,resources/DR.BMP,Door3,0.381798002,-0.0427303,1,0,0,0.6469,optionRight,70,9640,5,16,0,16,0,1,,,,,,,,,,,,,,,,,,,,,,,,,,,,,,,,,,,,,,,
,,,,,,,,2023-08-16_08h49.01.915,HF_wild_card,2022.2.4,Win32,60.12144532,63f77aa9a4d7a65bb7a411f8,64d2fd46c836a06233681665,64dc7e32210a0a3e632da83a,,,,,,,ctch,resources/DG.BMP,resources/DP.BMP,Door4,0.240843507,-0.007214206,1,0,0,0.7065,optionRight,80,9720,5,17,0,17,0,1,,,,,,,,,,,,,,,,,,,,,,,,,,,,,,,,,,,,,,,
,,,,,,,,2023-08-16_08h49.01.915,HF_wild_card,2022.2.4,Win32,60.12144532,63f77aa9a4d7a65bb7a411f8,64d2fd46c836a06233681665,64dc7e32210a0a3e632da83a,,,,,,,decisionTrl,resources/DR.BMP,resources/DP.BMP,Door4,0.508324084,-0.004994451,1,0,0,0.5457,optionRight,80,9800,5,18,0,18,0,1,,,,,,,,,,,,,,,,,,,,,,,,,,,,,,,,,,,,,,,
,,,,,,,,2023-08-16_08h49.01.915,HF_wild_card,2022.2.4,Win32,60.12144532,63f77aa9a4d7a65bb7a411f8,64d2fd46c836a06233681665,64dc7e32210a0a3e632da83a,,,,,,,sngl,resources/Empty.png,resources/DG.BMP,Door1,0.286348502,-0.002774695,1,0,0,1.3134,optionRight,30,9830,5,19,0,19,0,1,,,,,,,,,,,,,,,,,,,,,,,,,,,,,,,,,,,,,,,
,,,,,,,,2023-08-16_08h49.01.915,HF_wild_card,2022.2.4,Win32,60.12144532,63f77aa9a4d7a65bb7a411f8,64d2fd46c836a06233681665,64dc7e32210a0a3e632da83a,,,,,,,sngl,resources/DG.BMP,resources/Empty.png,Door1,-0.200887902,-0.027192009,1,0,0,0.546,optionLeft,30,9860,5,20,0,20,0,1,,,,,,,,,,,,,,,,,,,,,,,,,,,,,,,,,,,,,,,
,,,,,,,,2023-08-16_08h49.01.915,HF_wild_card,2022.2.4,Win32,60.12144532,63f77aa9a4d7a65bb7a411f8,64d2fd46c836a06233681665,64dc7e32210a0a3e632da83a,,,,,,,decisionTrl,resources/DG.BMP,resources/DBN.BMP,Door1,-0.30854606,-0.011653718,1,0,0,0.6106,optionLeft,30,9890,5,21,0,21,0,1,,,,,,,,,,,,,,,,,,,,,,,,,,,,,,,,,,,,,,,
,,,,,,,,2023-08-16_08h49.01.915,HF_wild_card,2022.2.4,Win32,60.12144532,63f77aa9a4d7a65bb7a411f8,64d2fd46c836a06233681665,64dc7e32210a0a3e632da83a,,,,,,,sngl,resources/DP.BMP,resources/Empty.png,Door4,-0.237513873,-0.030521643,1,0,0,0.5273,optionLeft,80,9970,5,22,0,22,0,1,,,,,,,,,,,,,,,,,,,,,,,,,,,,,,,,,,,,,,,
,,,,,,,,2023-08-16_08h49.01.915,HF_wild_card,2022.2.4,Win32,60.12144532,63f77aa9a4d7a65bb7a411f8,64d2fd46c836a06233681665,64dc7e32210a0a3e632da83a,,,,,,,decisionTrl,resources/DR.BMP,resources/DP.BMP,Door4,0.305216426,-0.006104329,1,0,0,0.6795,optionRight,60,10030,5,23,0,23,0,1,,,,,,,,,,,,,,,,,,,,,,,,,,,,,,,,,,,,,,,
,,,,,,,,2023-08-16_08h49.01.915,HF_wild_card,2022.2.4,Win32,60.12144532,63f77aa9a4d7a65bb7a411f8,64d2fd46c836a06233681665,64dc7e32210a0a3e632da83a,,,,,,,ctch,resources/DR.BMP,resources/DBN.BMP,Door3,-0.128745838,-0.029411765,1,0,0,0.5915,optionLeft,70,10100,5,24,0,24,0,1,,,,,,,,,,,,,,,,,,,,,,,,,,,,,,,,,,,,,,,
,,,,,,,,2023-08-16_08h49.01.915,HF_wild_card,2022.2.4,Win32,60.12144532,63f77aa9a4d7a65bb7a411f8,64d2fd46c836a06233681665,64dc7e32210a0a3e632da83a,,,,,,,decisionTrl,resources/DY.BMP,resources/DR.BMP,Door3,0.298557159,-0.019422863,1,0,0,0.5129,optionRight,70,10170,5,25,0,25,0,1,,,,,,,,,,,,,,,,,,,,,,,,,,,,,,,,,,,,,,,
,,,,,,,,2023-08-16_08h49.01.915,HF_wild_card,2022.2.4,Win32,60.12144532,63f77aa9a4d7a65bb7a411f8,64d2fd46c836a06233681665,64dc7e32210a0a3e632da83a,,,,,,,ctch,resources/DP.BMP,resources/DG.BMP,Door4,-0.165371809,-0.027192009,1,0,0,0.5473,optionLeft,80,10250,5,26,0,26,0,1,,,,,,,,,,,,,,,,,,,,,,,,,,,,,,,,,,,,,,,
,,,,,,,,2023-08-16_08h49.01.915,HF_wild_card,2022.2.4,Win32,60.12144532,63f77aa9a4d7a65bb7a411f8,64d2fd46c836a06233681665,64dc7e32210a0a3e632da83a,,,,,,,ctch,resources/DP.BMP,resources/DG.BMP,Door4,-0.173140954,-0.011653718,1,0,0,0.5804,optionLeft,80,10330,5,27,0,27,0,1,,,,,,,,,,,,,,,,,,,,,,,,,,,,,,,,,,,,,,,
,,,,,,,,2023-08-16_08h49.01.915,HF_wild_card,2022.2.4,Win32,60.12144532,63f77aa9a4d7a65bb7a411f8,64d2fd46c836a06233681665,64dc7e32210a0a3e632da83a,,,,,,,decisionTrl,resources/DR.BMP,resources/DP.BMP,Door4,0.318534961,-0.004994451,1,0,0,0.5476,optionRight,80,10410,5,28,0,28,0,1,,,,,,,,,,,,,,,,,,,,,,,,,,,,,,,,,,,,,,,
,,,,,,,,2023-08-16_08h49.01.915,HF_wild_card,2022.2.4,Win32,60.12144532,63f77aa9a4d7a65bb7a411f8,64d2fd46c836a06233681665,64dc7e32210a0a3e632da83a,,,,,,,decisionTrl,resources/DBN.BMP,resources/DG.BMP,Door1,0.347391787,-0.004994451,1,0,0,1.049,optionRight,30,10440,5,29,0,29,0,1,,,,,,,,,,,,,,,,,,,,,,,,,,,,,,,,,,,,,,,
,,,,,,,,2023-08-16_08h49.01.915,HF_wild_card,2022.2.4,Win32,60.12144532,63f77aa9a4d7a65bb7a411f8,64d2fd46c836a06233681665,64dc7e32210a0a3e632da83a,,,,,,,decisionTrl,resources/DP.BMP,resources/DR.BMP,Door4,-0.172031077,-0.043840178,1,0,0,0.6139,optionLeft,80,10520,5,30,0,30,0,1,,,,,,,,,,,,,,,,,,,,,,,,,,,,,,,,,,,,,,,
,,,,,,,,2023-08-16_08h49.01.915,HF_wild_card,2022.2.4,Win32,60.12144532,63f77aa9a4d7a65bb7a411f8,64d2fd46c836a06233681665,64dc7e32210a0a3e632da83a,,,,,,,decisionTrl,resources/DBN.BMP,resources/DG.BMP,Door1,0.283018868,-0.009433962,1,0,0,0.8466,optionRight,30,10550,5,31,0,31,0,1,,,,,,,,,,,,,,,,,,,,,,,,,,,,,,,,,,,,,,,
,,,,,,,,2023-08-16_08h49.01.915,HF_wild_card,2022.2.4,Win32,60.12144532,63f77aa9a4d7a65bb7a411f8,64d2fd46c836a06233681665,64dc7e32210a0a3e632da83a,,,,,,,decisionTrl,resources/DP.BMP,resources/DR.BMP,Door4,-0.177580466,-0.056048835,1,0,0,0.5976,optionLeft,60,10610,5,32,0,32,0,1,,,,,,,,,,,,,,,,,,,,,,,,,,,,,,,,,,,,,,,
,,,,,,,,2023-08-16_08h49.01.915,HF_wild_card,2022.2.4,Win32,60.12144532,63f77aa9a4d7a65bb7a411f8,64d2fd46c836a06233681665,64dc7e32210a0a3e632da83a,,,,,,,ctch,resources/DG.BMP,resources/DP.BMP,Door4,0.305216426,-0.05826859,1,0,0,0.5894,optionRight,60,10670,5,33,0,33,0,1,,,,,,,,,,,,,,,,,,,,,,,,,,,,,,,,,,,,,,,
,,,,,,,,2023-08-16_08h49.01.915,HF_wild_card,2022.2.4,Win32,60.12144532,63f77aa9a4d7a65bb7a411f8,64d2fd46c836a06233681665,64dc7e32210a0a3e632da83a,,,,,,,decisionTrl,resources/DG.BMP,resources/DBN.BMP,Door1,-0.205327414,-0.027192009,1,0,0,0.5835,optionLeft,30,10700,5,34,0,34,0,1,,,,,,,,,,,,,,,,,,,,,,,,,,,,,,,,,,,,,,,
,,,,,,,,2023-08-16_08h49.01.915,HF_wild_card,2022.2.4,Win32,60.12144532,63f77aa9a4d7a65bb7a411f8,64d2fd46c836a06233681665,64dc7e32210a0a3e632da83a,,,,,,,decisionTrl,resources/DR.BMP,resources/DP.BMP,Door4,0.33518313,0.006104329,1,0,0,0.4796,optionRight,80,10780,5,35,0,35,0,1,,,,,,,,,,,,,,,,,,,,,,,,,,,,,,,,,,,,,,,
,,,,,,,,2023-08-16_08h49.01.915,HF_wild_card,2022.2.4,Win32,60.12144532,63f77aa9a4d7a65bb7a411f8,64d2fd46c836a06233681665,64dc7e32210a0a3e632da83a,,,,,,,sngl,resources/Empty.png,resources/DY.BMP,WildCard_Ex,0.544950055,0.074916759,1,0,0,0.6095,optionRight,5,10785,5,36,0,36,0,1,,,,,,,,,,,,,,,,,,,,,,,,,,,,,,,,,,,,,,,
,,,,,,,,2023-08-16_08h49.01.915,HF_wild_card,2022.2.4,Win32,60.12144532,63f77aa9a4d7a65bb7a411f8,64d2fd46c836a06233681665,64dc7e32210a0a3e632da83a,,,,,,,decisionTrl,resources/DG.BMP,resources/DY.BMP,WildCard_Ex,0.370699223,-0.007214206,1,0,0,0.9577,optionRight,95,10880,5,37,0,37,0,1,,,,,,,,,,,,,,,,,,,,,,,,,,,,,,,,,,,,,,,
,,,,,,,,2023-08-16_08h49.01.915,HF_wild_card,2022.2.4,Win32,60.12144532,63f77aa9a4d7a65bb7a411f8,64d2fd46c836a06233681665,64dc7e32210a0a3e632da83a,,,,,,,decisionTrl,resources/DBN.BMP,resources/DG.BMP,Door1,0.372918979,0.006104329,1,0,0,0.4741,optionRight,30,10910,5,38,0,38,0,1,,,,,,,,,,,,,,,,,,,,,,,,,,,,,,,,,,,,,,,
,,,,,,,,2023-08-16_08h49.01.915,HF_wild_card,2022.2.4,Win32,60.12144532,63f77aa9a4d7a65bb7a411f8,64d2fd46c836a06233681665,64dc7e32210a0a3e632da83a,,,,,,,ctch,resources/DR.BMP,resources/DBN.BMP,Door3,-0.440621532,-0.072697003,1,0,0,0.7635,optionLeft,70,10980,5,39,0,39,0,1,,,,,,,,,,,,,,,,,,,,,,,,,,,,,,,,,,,,,,,
,,,,,,,,2023-08-16_08h49.01.915,HF_wild_card,2022.2.4,Win32,60.12144532,63f77aa9a4d7a65bb7a411f8,64d2fd46c836a06233681665,64dc7e32210a0a3e632da83a,,,,,,,decisionTrl,resources/DG.BMP,resources/DBN.BMP,Door1,-0.244173141,-0.036071032,1,0,0,0.4719,optionLeft,30,11010,5,40,0,40,0,1,,,,,,,,,,,,,,,,,,,,,,,,,,,,,,,,,,,,,,,
,,,,,,,,2023-08-16_08h49.01.915,HF_wild_card,2022.2.4,Win32,60.12144532,63f77aa9a4d7a65bb7a411f8,64d2fd46c836a06233681665,64dc7e32210a0a3e632da83a,,,,,,,decisionTrl,resources/DY.BMP,resources/DG.BMP,Door1,0.240843507,-0.036071032,1,0,0,0.5962,optionRight,30,11040,5,41,0,41,0,1,,,,,,,,,,,,,,,,,,,,,,,,,,,,,,,,,,,,,,,
,,,,,,,,2023-08-16_08h49.01.915,HF_wild_card,2022.2.4,Win32,60.12144532,63f77aa9a4d7a65bb7a411f8,64d2fd46c836a06233681665,64dc7e32210a0a3e632da83a,,,,,,,sngl,resources/DY.BMP,resources/Empty.png,WildCard_Ex,-0.196448391,-0.004994451,1,0,0,0.6259,optionLeft,95,11135,5,42,0,42,0,1,,,,,,,,,,,,,,,,,,,,,,,,,,,,,,,,,,,,,,,
,,,,,,,,2023-08-16_08h49.01.915,HF_wild_card,2022.2.4,Win32,60.12144532,63f77aa9a4d7a65bb7a411f8,64d2fd46c836a06233681665,64dc7e32210a0a3e632da83a,,,,,,,sngl,resources/Empty.png,resources/DP.BMP,Door4,0.174250832,-0.018312986,1,0,0,0.4597,optionRight,60,11195,5,43,0,43,0,1,,,,,,,,,,,,,,,,,,,,,,,,,,,,,,,,,,,,,,,
,,,,,,,,2023-08-16_08h49.01.915,HF_wild_card,2022.2.4,Win32,60.12144532,63f77aa9a4d7a65bb7a411f8,64d2fd46c836a06233681665,64dc7e32210a0a3e632da83a,,,,,,,,,,,,,,,,,,,,,,,,,,4,0,4,0,1,,,,,,,,,,,,,,,,,,,,,,,,,,,,,,,,,,
,,,,,,,,2023-08-16_08h49.01.915,HF_wild_card,2022.2.4,Win32,60.12144532,63f77aa9a4d7a65bb7a411f8,64d2fd46c836a06233681665,64dc7e32210a0a3e632da83a,,,,,,,sngl,resources/Empty.png,resources/DP.BMP,Door4,0.238623751,-0.14372919,1,0,0,0.5426,optionRight,80,11275,6,0,0,0,0,1,,,,,,,,,,,,,,,,,,,,,,,,,,,,,,,,,,,,,,,
,,,,,,,,2023-08-16_08h49.01.915,HF_wild_card,2022.2.4,Win32,60.12144532,63f77aa9a4d7a65bb7a411f8,64d2fd46c836a06233681665,64dc7e32210a0a3e632da83a,,,,,,,sngl,resources/DR.BMP,resources/Empty.png,Door3,-0.254162042,-0.028301887,1,0,0,0.572,optionLeft,70,11345,6,1,0,1,0,1,,,,,,,,,,,,,,,,,,,,,,,,,,,,,,,,,,,,,,,
,,,,,,,,2023-08-16_08h49.01.915,HF_wild_card,2022.2.4,Win32,60.12144532,63f77aa9a4d7a65bb7a411f8,64d2fd46c836a06233681665,64dc7e32210a0a3e632da83a,,,,,,,decisionTrl,resources/DP.BMP,resources/DY.BMP,WildCard_Ex,0.310765816,-0.047169811,1,0,0,0.5975,optionRight,95,11440,6,2,0,2,0,1,,,,,,,,,,,,,,,,,,,,,,,,,,,,,,,,,,,,,,,
,,,,,,,,2023-08-16_08h49.01.915,HF_wild_card,2022.2.4,Win32,60.12144532,63f77aa9a4d7a65bb7a411f8,64d2fd46c836a06233681665,64dc7e32210a0a3e632da83a,,,,,,,decisionTrl,resources/DY.BMP,resources/DP.BMP,Door4,0.43063263,-0.044950055,1,0,0,0.8132,optionRight,60,11500,6,3,0,3,0,1,,,,,,,,,,,,,,,,,,,,,,,,,,,,,,,,,,,,,,,
,,,,,,,,2023-08-16_08h49.01.915,HF_wild_card,2022.2.4,Win32,60.12144532,63f77aa9a4d7a65bb7a411f8,64d2fd46c836a06233681665,64dc7e32210a0a3e632da83a,,,,,,,decisionTrl,resources/DBN.BMP,resources/DG.BMP,Door1,0.357380688,-0.032741398,1,0,0,0.5778,optionRight,30,11530,6,4,0,4,0,1,,,,,,,,,,,,,,,,,,,,,,,,,,,,,,,,,,,,,,,
,,,,,,,,2023-08-16_08h49.01.915,HF_wild_card,2022.2.4,Win32,60.12144532,63f77aa9a4d7a65bb7a411f8,64d2fd46c836a06233681665,64dc7e32210a0a3e632da83a,,,,,,,decisionTrl,resources/DY.BMP,resources/DR.BMP,WildCard_Ex,-0.273029967,-0.004994451,1,0,0,0.5132,optionLeft,95,11625,6,5,0,5,0,1,,,,,,,,,,,,,,,,,,,,,,,,,,,,,,,,,,,,,,,
,,,,,,,,2023-08-16_08h49.01.915,HF_wild_card,2022.2.4,Win32,60.12144532,63f77aa9a4d7a65bb7a411f8,64d2fd46c836a06233681665,64dc7e32210a0a3e632da83a,,,,,,,decisionTrl,resources/DY.BMP,resources/DBN.BMP,WildCard_Ex,-0.295227525,-0.019422863,1,0,0,0.5776,optionLeft,5,11630,6,6,0,6,0,1,,,,,,,,,,,,,,,,,,,,,,,,,,,,,,,,,,,,,,,
,,,,,,,,2023-08-16_08h49.01.915,HF_wild_card,2022.2.4,Win32,60.12144532,63f77aa9a4d7a65bb7a411f8,64d2fd46c836a06233681665,64dc7e32210a0a3e632da83a,,,,,,,decisionTrl,resources/DP.BMP,resources/DR.BMP,Door3,0.279689234,-0.012763596,1,0,0,0.4633,optionRight,70,11700,6,7,0,7,0,1,,,,,,,,,,,,,,,,,,,,,,,,,,,,,,,,,,,,,,,
,,,,,,,,2023-08-16_08h49.01.915,HF_wild_card,2022.2.4,Win32,60.12144532,63f77aa9a4d7a65bb7a411f8,64d2fd46c836a06233681665,64dc7e32210a0a3e632da83a,,,,,,,decisionTrl,resources/DR.BMP,resources/DP.BMP,Door4,0.289678135,-0.026082131,1,0,0,0.8118,optionRight,60,11760,6,8,0,8,0,1,,,,,,,,,,,,,,,,,,,,,,,,,,,,,,,,,,,,,,,
,,,,,,,,2023-08-16_08h49.01.915,HF_wild_card,2022.2.4,Win32,60.12144532,63f77aa9a4d7a65bb7a411f8,64d2fd46c836a06233681665,64dc7e32210a0a3e632da83a,,,,,,,decisionTrl,resources/DR.BMP,resources/DP.BMP,Door4,0.12208657,-0.024972253,1,0,0,0.7473,optionRight,80,11840,6,9,0,9,0,1,,,,,,,,,,,,,,,,,,,,,,,,,,,,,,,,,,,,,,,
,,,,,,,,2023-08-16_08h49.01.915,HF_wild_card,2022.2.4,Win32,60.12144532,63f77aa9a4d7a65bb7a411f8,64d2fd46c836a06233681665,64dc7e32210a0a3e632da83a,,,,,,,decisionTrl,resources/DBN.BMP,resources/DY.BMP,WildCard_Ex,0.318534961,-0.033851276,1,0,0,1.3612,optionRight,95,11935,6,10,0,10,0,1,,,,,,,,,,,,,,,,,,,,,,,,,,,,,,,,,,,,,,,
,,,,,,,,2023-08-16_08h49.01.915,HF_wild_card,2022.2.4,Win32,60.12144532,63f77aa9a4d7a65bb7a411f8,64d2fd46c836a06233681665,64dc7e32210a0a3e632da83a,,,,,,,sngl,resources/DG.BMP,resources/Empty.png,Door1,-0.195338513,-0.020532741,1,0,0,0.8737,optionLeft,30,11965,6,11,0,11,0,1,,,,,,,,,,,,,,,,,,,,,,,,,,,,,,,,,,,,,,,
,,,,,,,,2023-08-16_08h49.01.915,HF_wild_card,2022.2.4,Win32,60.12144532,63f77aa9a4d7a65bb7a411f8,64d2fd46c836a06233681665,64dc7e32210a0a3e632da83a,,,,,,,decisionTrl,resources/DBN.BMP,resources/DG.BMP,Door1,0.233074362,-0.027192009,1,0,0,0.7973,optionRight,30,11995,6,12,0,12,0,1,,,,,,,,,,,,,,,,,,,,,,,,,,,,,,,,,,,,,,,
,,,,,,,,2023-08-16_08h49.01.915,HF_wild_card,2022.2.4,Win32,60.12144532,63f77aa9a4d7a65bb7a411f8,64d2fd46c836a06233681665,64dc7e32210a0a3e632da83a,,,,,,,decisionTrl,resources/DG.BMP,resources/DBN.BMP,Door1,-0.3618202,-0.002774695,1,0,0,0.5809,optionLeft,30,12025,6,13,0,13,0,1,,,,,,,,,,,,,,,,,,,,,,,,,,,,,,,,,,,,,,,
,,,,,,,,2023-08-16_08h49.01.915,HF_wild_card,2022.2.4,Win32,60.12144532,63f77aa9a4d7a65bb7a411f8,64d2fd46c836a06233681665,64dc7e32210a0a3e632da83a,,,,,,,decisionTrl,resources/DG.BMP,resources/DY.BMP,WildCard_Ex,0.147613762,0.003884573,1,0,0,0.6972,optionRight,5,12030,6,14,0,14,0,1,,,,,,,,,,,,,,,,,,,,,,,,,,,,,,,,,,,,,,,
,,,,,,,,2023-08-16_08h49.01.915,HF_wild_card,2022.2.4,Win32,60.12144532,63f77aa9a4d7a65bb7a411f8,64d2fd46c836a06233681665,64dc7e32210a0a3e632da83a,,,,,,,decisionTrl,resources/DG.BMP,resources/DBN.BMP,Door2,0.256381798,-0.022752497,1,0,0,0.5143,optionRight,20,12050,6,15,0,15,0,1,,,,,,,,,,,,,,,,,,,,,,,,,,,,,,,,,,,,,,,
,,,,,,,,2023-08-16_08h49.01.915,HF_wild_card,2022.2.4,Win32,60.12144532,63f77aa9a4d7a65bb7a411f8,64d2fd46c836a06233681665,64dc7e32210a0a3e632da83a,,,,,,,sngl,resources/Empty.png,resources/DY.BMP,WildCard_Ex,0.263041065,-0.01054384,1,0,0,0.4969,optionRight,95,12145,6,16,0,16,0,1,,,,,,,,,,,,,,,,,,,,,,,,,,,,,,,,,,,,,,,
,,,,,,,,2023-08-16_08h49.01.915,HF_wild_card,2022.2.4,Win32,60.12144532,63f77aa9a4d7a65bb7a411f8,64d2fd46c836a06233681665,64dc7e32210a0a3e632da83a,,,,,,,decisionTrl,resources/DP.BMP,resources/DR.BMP,Door3,0.332963374,-0.01609323,1,0,0,0.4266,optionRight,70,12215,6,17,0,17,0,1,,,,,,,,,,,,,,,,,,,,,,,,,,,,,,,,,,,,,,,
,,,,,,,,2023-08-16_08h49.01.915,HF_wild_card,2022.2.4,Win32,60.12144532,63f77aa9a4d7a65bb7a411f8,64d2fd46c836a06233681665,64dc7e32210a0a3e632da83a,,,,,,,sngl,resources/Empty.png,resources/DG.BMP,Door1,0.348501665,0.046059933,1,0,0,2.8973,optionRight,30,12245,6,18,0,18,0,1,,,,,,,,,,,,,,,,,,,,,,,,,,,,,,,,,,,,,,,
,,,,,,,,2023-08-16_08h49.01.915,HF_wild_card,2022.2.4,Win32,60.12144532,63f77aa9a4d7a65bb7a411f8,64d2fd46c836a06233681665,64dc7e32210a0a3e632da83a,,,,,,,sngl,resources/DBN.BMP,resources/Empty.png,Door2,-0.15982242,-0.01054384,1,0,0,0.6632,optionLeft,20,12265,6,19,0,19,0,1,,,,,,,,,,,,,,,,,,,,,,,,,,,,,,,,,,,,,,,
,,,,,,,,2023-08-16_08h49.01.915,HF_wild_card,2022.2.4,Win32,60.12144532,63f77aa9a4d7a65bb7a411f8,64d2fd46c836a06233681665,64dc7e32210a0a3e632da83a,,,,,,,decisionTrl,resources/DBN.BMP,resources/DG.BMP,Door1,0.30854606,-0.029411765,1,0,0,0.5302,optionRight,30,12295,6,20,0,20,0,1,,,,,,,,,,,,,,,,,,,,,,,,,,,,,,,,,,,,,,,
,,,,,,,,2023-08-16_08h49.01.915,HF_wild_card,2022.2.4,Win32,60.12144532,63f77aa9a4d7a65bb7a411f8,64d2fd46c836a06233681665,64dc7e32210a0a3e632da83a,,,,,,,ctch,resources/DP.BMP,resources/DG.BMP,Door1,0.413984462,-0.002774695,1,0,0,0.4974,optionRight,30,12325,6,21,0,21,0,1,,,,,,,,,,,,,,,,,,,,,,,,,,,,,,,,,,,,,,,
,,,,,,,,2023-08-16_08h49.01.915,HF_wild_card,2022.2.4,Win32,60.12144532,63f77aa9a4d7a65bb7a411f8,64d2fd46c836a06233681665,64dc7e32210a0a3e632da83a,,,,,,,sngl,resources/Empty.png,resources/DR.BMP,Door3,0.429522752,0.009433962,1,0,0,0.5639,optionRight,70,12395,6,22,0,22,0,1,,,,,,,,,,,,,,,,,,,,,,,,,,,,,,,,,,,,,,,
,,,,,,,,2023-08-16_08h49.01.915,HF_wild_card,2022.2.4,Win32,60.12144532,63f77aa9a4d7a65bb7a411f8,64d2fd46c836a06233681665,64dc7e32210a0a3e632da83a,,,,,,,decisionTrl,resources/DG.BMP,resources/DBN.BMP,Door1,-0.135405105,-0.021642619,1,0,0,0.9245,optionLeft,30,12425,6,23,0,23,0,1,,,,,,,,,,,,,,,,,,,,,,,,,,,,,,,,,,,,,,,
,,,,,,,,2023-08-16_08h49.01.915,HF_wild_card,2022.2.4,Win32,60.12144532,63f77aa9a4d7a65bb7a411f8,64d2fd46c836a06233681665,64dc7e32210a0a3e632da83a,,,,,,,sngl,resources/Empty.png,resources/DBN.BMP,Door2,0.397336293,0.008324084,1,0,0,0.5373,optionRight,40,12465,6,24,0,24,0,1,,,,,,,,,,,,,,,,,,,,,,,,,,,,,,,,,,,,,,,
,,,,,,,,2023-08-16_08h49.01.915,HF_wild_card,2022.2.4,Win32,60.12144532,63f77aa9a4d7a65bb7a411f8,64d2fd46c836a06233681665,64dc7e32210a0a3e632da83a,,,,,,,decisionTrl,resources/DY.BMP,resources/DG.BMP,Door1,0.325194229,-0.011653718,1,0,0,0.5973,optionRight,30,12495,6,25,0,25,0,1,,,,,,,,,,,,,,,,,,,,,,,,,,,,,,,,,,,,,,,
,,,,,,,,2023-08-16_08h49.01.915,HF_wild_card,2022.2.4,Win32,60.12144532,63f77aa9a4d7a65bb7a411f8,64d2fd46c836a06233681665,64dc7e32210a0a3e632da83a,,,,,,,ctch,resources/DBN.BMP,resources/DR.BMP,Door3,0.456159822,-0.020532741,1,0,0,0.6804,optionRight,70,12565,6,26,0,26,0,1,,,,,,,,,,,,,,,,,,,,,,,,,,,,,,,,,,,,,,,
,,,,,,,,2023-08-16_08h49.01.915,HF_wild_card,2022.2.4,Win32,60.12144532,63f77aa9a4d7a65bb7a411f8,64d2fd46c836a06233681665,64dc7e32210a0a3e632da83a,,,,,,,decisionTrl,resources/DR.BMP,resources/DY.BMP,WildCard_Ex,0.293007769,0.019422863,1,0,0,0.5762,optionRight,5,12570,6,27,0,27,0,1,,,,,,,,,,,,,,,,,,,,,,,,,,,,,,,,,,,,,,,
,,,,,,,,2023-08-16_08h49.01.915,HF_wild_card,2022.2.4,Win32,60.12144532,63f77aa9a4d7a65bb7a411f8,64d2fd46c836a06233681665,64dc7e32210a0a3e632da83a,,,,,,,decisionTrl,resources/DP.BMP,resources/DR.BMP,Door4,-0.138734739,-0.06936737,1,0,0,0.6261,optionLeft,80,12650,6,28,0,28,0,1,,,,,,,,,,,,,,,,,,,,,,,,,,,,,,,,,,,,,,,
,,,,,,,,2023-08-16_08h49.01.915,HF_wild_card,2022.2.4,Win32,60.12144532,63f77aa9a4d7a65bb7a411f8,64d2fd46c836a06233681665,64dc7e32210a0a3e632da83a,,,,,,,ctch,resources/DG.BMP,resources/DP.BMP,Door1,-0.166481687,-0.043840178,1,0,0,0.655,optionLeft,30,12680,6,29,0,29,0,1,,,,,,,,,,,,,,,,,,,,,,,,,,,,,,,,,,,,,,,
,,,,,,,,2023-08-16_08h49.01.915,HF_wild_card,2022.2.4,Win32,60.12144532,63f77aa9a4d7a65bb7a411f8,64d2fd46c836a06233681665,64dc7e32210a0a3e632da83a,,,,,,,decisionTrl,resources/DR.BMP,resources/DP.BMP,Door4,0.258601554,-0.014983352,1,0,0,0.6934,optionRight,60,12740,6,30,0,30,0,1,,,,,,,,,,,,,,,,,,,,,,,,,,,,,,,,,,,,,,,
,,,,,,,,2023-08-16_08h49.01.915,HF_wild_card,2022.2.4,Win32,60.12144532,63f77aa9a4d7a65bb7a411f8,64d2fd46c836a06233681665,64dc7e32210a0a3e632da83a,,,,,,,decisionTrl,resources/DBN.BMP,resources/DG.BMP,Door1,0.349611543,-0.066037736,1,0,0,0.4954,optionRight,30,12770,6,31,0,31,0,1,,,,,,,,,,,,,,,,,,,,,,,,,,,,,,,,,,,,,,,
,,,,,,,,2023-08-16_08h49.01.915,HF_wild_card,2022.2.4,Win32,60.12144532,63f77aa9a4d7a65bb7a411f8,64d2fd46c836a06233681665,64dc7e32210a0a3e632da83a,,,,,,,ctch,resources/DBN.BMP,resources/DR.BMP,Door3,0.197558269,-0.028301887,1,0,0,0.7305,optionRight,70,12840,6,32,0,32,0,1,,,,,,,,,,,,,,,,,,,,,,,,,,,,,,,,,,,,,,,
,,,,,,,,2023-08-16_08h49.01.915,HF_wild_card,2022.2.4,Win32,60.12144532,63f77aa9a4d7a65bb7a411f8,64d2fd46c836a06233681665,64dc7e32210a0a3e632da83a,,,,,,,decisionTrl,resources/DR.BMP,resources/DP.BMP,Door4,0.229744728,-0.022752497,1,0,0,0.5626,optionRight,80,12920,6,33,0,33,0,1,,,,,,,,,,,,,,,,,,,,,,,,,,,,,,,,,,,,,,,
,,,,,,,,2023-08-16_08h49.01.915,HF_wild_card,2022.2.4,Win32,60.12144532,63f77aa9a4d7a65bb7a411f8,64d2fd46c836a06233681665,64dc7e32210a0a3e632da83a,,,,,,,sngl,resources/DY.BMP,resources/Empty.png,WildCard_Ex,-0.172031077,-0.060488346,1,0,0,0.579,optionLeft,5,12925,6,34,0,34,0,1,,,,,,,,,,,,,,,,,,,,,,,,,,,,,,,,,,,,,,,
,,,,,,,,2023-08-16_08h49.01.915,HF_wild_card,2022.2.4,Win32,60.12144532,63f77aa9a4d7a65bb7a411f8,64d2fd46c836a06233681665,64dc7e32210a0a3e632da83a,,,,,,,ctch,resources/DP.BMP,resources/DG.BMP,Door1,0.248612653,-0.051609323,1,0,0,0.5125,optionRight,30,12955,6,35,0,35,0,1,,,,,,,,,,,,,,,,,,,,,,,,,,,,,,,,,,,,,,,
,,,,,,,,2023-08-16_08h49.01.915,HF_wild_card,2022.2.4,Win32,60.12144532,63f77aa9a4d7a65bb7a411f8,64d2fd46c836a06233681665,64dc7e32210a0a3e632da83a,,,,,,,ctch,resources/DG.BMP,resources/DP.BMP,Door4,0.172031077,0.000554939,1,0,0,0.6613,optionRight,60,13015,6,36,0,36,0,1,,,,,,,,,,,,,,,,,,,,,,,,,,,,,,,,,,,,,,,
,,,,,,,,2023-08-16_08h49.01.915,HF_wild_card,2022.2.4,Win32,60.12144532,63f77aa9a4d7a65bb7a411f8,64d2fd46c836a06233681665,64dc7e32210a0a3e632da83a,,,,,,,sngl,resources/DY.BMP,resources/Empty.png,WildCard_Ex,-0.190899001,-0.046059933,1,0,0,0.5931,optionLeft,95,13110,6,37,0,37,0,1,,,,,,,,,,,,,,,,,,,,,,,,,,,,,,,,,,,,,,,
,,,,,,,,2023-08-16_08h49.01.915,HF_wild_card,2022.2.4,Win32,60.12144532,63f77aa9a4d7a65bb7a411f8,64d2fd46c836a06233681665,64dc7e32210a0a3e632da83a,,,,,,,decisionTrl,resources/DP.BMP,resources/DR.BMP,Door3,0.31409545,-0.08490566,1,0,0,18.3078,optionRight,70,13180,6,38,0,38,0,1,,,,,,,,,,,,,,,,,,,,,,,,,,,,,,,,,,,,,,,
,,,,,,,,2023-08-16_08h49.01.915,HF_wild_card,2022.2.4,Win32,60.12144532,63f77aa9a4d7a65bb7a411f8,64d2fd46c836a06233681665,64dc7e32210a0a3e632da83a,,,,,,,ctch,resources/DR.BMP,resources/DBN.BMP,Door3,-0.230854606,-0.023862375,1,0,0,1.4244,optionLeft,70,13250,6,39,0,39,0,1,,,,,,,,,,,,,,,,,,,,,,,,,,,,,,,,,,,,,,,
,,,,,,,,2023-08-16_08h49.01.915,HF_wild_card,2022.2.4,Win32,60.12144532,63f77aa9a4d7a65bb7a411f8,64d2fd46c836a06233681665,64dc7e32210a0a3e632da83a,,,,,,,sngl,resources/DP.BMP,resources/Empty.png,Door4,-0.38290788,-0.099334073,1,0,0,0.9121,optionLeft,60,13310,6,40,0,40,0,1,,,,,,,,,,,,,,,,,,,,,,,,,,,,,,,,,,,,,,,
,,,,,,,,2023-08-16_08h49.01.915,HF_wild_card,2022.2.4,Win32,60.12144532,63f77aa9a4d7a65bb7a411f8,64d2fd46c836a06233681665,64dc7e32210a0a3e632da83a,,,,,,,sngl,resources/Empty.png,resources/DY.BMP,WildCard_Ex,0.40399556,-0.052719201,1,0,0,0.8625,optionRight,5,13315,6,41,0,41,0,1,,,,,,,,,,,,,,,,,,,,,,,,,,,,,,,,,,,,,,,
,,,,,,,,2023-08-16_08h49.01.915,HF_wild_card,2022.2.4,Win32,60.12144532,63f77aa9a4d7a65bb7a411f8,64d2fd46c836a06233681665,64dc7e32210a0a3e632da83a,,,,,,,ctch,resources/DR.BMP,resources/DBN.BMP,Door3,-0.269700333,-0.019422863,1,0,0,2.4313,optionLeft,70,13385,6,42,0,42,0,1,,,,,,,,,,,,,,,,,,,,,,,,,,,,,,,,,,,,,,,
,,,,,,,,2023-08-16_08h49.01.915,HF_wild_card,2022.2.4,Win32,60.12144532,63f77aa9a4d7a65bb7a411f8,64d2fd46c836a06233681665,64dc7e32210a0a3e632da83a,,,,,,,decisionTrl,resources/DG.BMP,resources/DBN.BMP,Door1,-0.227524972,-0.001664817,1,0,0,0.7469,optionLeft,30,13415,6,43,0,43,0,1,,,,,,,,,,,,,,,,,,,,,,,,,,,,,,,,,,,,,,,
,,,,,,,,2023-08-16_08h49.01.915,HF_wild_card,2022.2.4,Win32,60.12144532,63f77aa9a4d7a65bb7a411f8,64d2fd46c836a06233681665,64dc7e32210a0a3e632da83a,,,,,,,,,,,,,,,,,,,,,,,,,,5,0,5,0,1,,,,,,,,,,,,,,,,,,,,,,,,,,,,,,,,,,
,,,,,,,,2023-08-16_08h49.01.915,HF_wild_card,2022.2.4,Win32,60.12144532,63f77aa9a4d7a65bb7a411f8,64d2fd46c836a06233681665,64dc7e32210a0a3e632da83a,,,,,,,decisionTrl,resources/DBN.BMP,resources/DG.BMP,Door1,0.350721421,-0.115982242,1,0,0,1.4055,optionRight,30,13445,7,0,0,0,0,1,,,,,,,,,,,,,,,,,,,,,,,,,,,,,,,,,,,,,,,
,,,,,,,,2023-08-16_08h49.01.915,HF_wild_card,2022.2.4,Win32,60.12144532,63f77aa9a4d7a65bb7a411f8,64d2fd46c836a06233681665,64dc7e32210a0a3e632da83a,,,,,,,ctch,resources/DG.BMP,resources/DP.BMP,Door4,0.30854606,-0.043840178,1,0,0,1.2156,optionRight,80,13525,7,1,0,1,0,1,,,,,,,,,,,,,,,,,,,,,,,,,,,,,,,,,,,,,,,
,,,,,,,,2023-08-16_08h49.01.915,HF_wild_card,2022.2.4,Win32,60.12144532,63f77aa9a4d7a65bb7a411f8,64d2fd46c836a06233681665,64dc7e32210a0a3e632da83a,,,,,,,decisionTrl,resources/DG.BMP,resources/DBN.BMP,Door1,-0.236403996,-0.064927858,1,0,0,1.3485,optionLeft,30,13555,7,2,0,2,0,1,,,,,,,,,,,,,,,,,,,,,,,,,,,,,,,,,,,,,,,
,,,,,,,,2023-08-16_08h49.01.915,HF_wild_card,2022.2.4,Win32,60.12144532,63f77aa9a4d7a65bb7a411f8,64d2fd46c836a06233681665,64dc7e32210a0a3e632da83a,,,,,,,decisionTrl,resources/DP.BMP,resources/DR.BMP,Door3,0.198668147,-0.041620422,1,0,0,2.6984,optionRight,70,13625,7,3,0,3,0,1,,,,,,,,,,,,,,,,,,,,,,,,,,,,,,,,,,,,,,,
,,,,,,,,2023-08-16_08h49.01.915,HF_wild_card,2022.2.4,Win32,60.12144532,63f77aa9a4d7a65bb7a411f8,64d2fd46c836a06233681665,64dc7e32210a0a3e632da83a,,,,,,,decisionTrl,resources/DBN.BMP,resources/DG.BMP,Door1,0.25527192,-0.01609323,1,0,0,0.8654,optionRight,30,13655,7,4,0,4,0,1,,,,,,,,,,,,,,,,,,,,,,,,,,,,,,,,,,,,,,,
,,,,,,,,2023-08-16_08h49.01.915,HF_wild_card,2022.2.4,Win32,60.12144532,63f77aa9a4d7a65bb7a411f8,64d2fd46c836a06233681665,64dc7e32210a0a3e632da83a,,,,,,,decisionTrl,resources/DG.BMP,resources/DBN.BMP,Door1,-0.12208657,-0.004994451,1,0,0,0.8992,optionLeft,30,13685,7,5,0,5,0,1,,,,,,,,,,,,,,,,,,,,,,,,,,,,,,,,,,,,,,,
,,,,,,,,2023-08-16_08h49.01.915,HF_wild_card,2022.2.4,Win32,60.12144532,63f77aa9a4d7a65bb7a411f8,64d2fd46c836a06233681665,64dc7e32210a0a3e632da83a,,,,,,,ctch,resources/DG.BMP,resources/DP.BMP,Door4,0.370699223,-0.049389567,1,0,0,0.733,optionRight,60,13745,7,6,0,6,0,1,,,,,,,,,,,,,,,,,,,,,,,,,,,,,,,,,,,,,,,
,,,,,,,,2023-08-16_08h49.01.915,HF_wild_card,2022.2.4,Win32,60.12144532,63f77aa9a4d7a65bb7a411f8,64d2fd46c836a06233681665,64dc7e32210a0a3e632da83a,,,,,,,decisionTrl,resources/DR.BMP,resources/DP.BMP,Door3,-0.22863485,-0.01609323,1,0,0,2.416,optionLeft,70,13815,7,7,0,7,0,1,,,,,,,,,,,,,,,,,,,,,,,,,,,,,,,,,,,,,,,
,,,,,,,,2023-08-16_08h49.01.915,HF_wild_card,2022.2.4,Win32,60.12144532,63f77aa9a4d7a65bb7a411f8,64d2fd46c836a06233681665,64dc7e32210a0a3e632da83a,,,,,,,decisionTrl,resources/DR.BMP,resources/DP.BMP,Door3,-0.2763596,-0.003884573,1,0,0,0.7663,optionLeft,70,13885,7,8,0,8,0,1,,,,,,,,,,,,,,,,,,,,,,,,,,,,,,,,,,,,,,,
,,,,,,,,2023-08-16_08h49.01.915,HF_wild_card,2022.2.4,Win32,60.12144532,63f77aa9a4d7a65bb7a411f8,64d2fd46c836a06233681665,64dc7e32210a0a3e632da83a,,,,,,,ctch,resources/DP.BMP,resources/DG.BMP,Door1,0.238623751,-0.027192009,1,0,0,2.2493,optionRight,30,13915,7,9,0,9,0,1,,,,,,,,,,,,,,,,,,,,,,,,,,,,,,,,,,,,,,,
,,,,,,,,2023-08-16_08h49.01.915,HF_wild_card,2022.2.4,Win32,60.12144532,63f77aa9a4d7a65bb7a411f8,64d2fd46c836a06233681665,64dc7e32210a0a3e632da83a,,,,,,,ctch,resources/DR.BMP,resources/DBN.BMP,Door3,-0.309655938,0.013873474,1,0,0,1.0653,optionLeft,70,13985,7,10,0,10,0,1,,,,,,,,,,,,,,,,,,,,,,,,,,,,,,,,,,,,,,,
,,,,,,,,2023-08-16_08h49.01.915,HF_wild_card,2022.2.4,Win32,60.12144532,63f77aa9a4d7a65bb7a411f8,64d2fd46c836a06233681665,64dc7e32210a0a3e632da83a,,,,,,,ctch,resources/DP.BMP,resources/DG.BMP,Door1,0.25527192,-0.073806881,1,0,0,2.8152,optionRight,30,14015,7,11,0,11,0,1,,,,,,,,,,,,,,,,,,,,,,,,,,,,,,,,,,,,,,,
,,,,,,,,2023-08-16_08h49.01.915,HF_wild_card,2022.2.4,Win32,60.12144532,63f77aa9a4d7a65bb7a411f8,64d2fd46c836a06233681665,64dc7e32210a0a3e632da83a,,,,,,,decisionTrl,resources/DG.BMP,resources/DBN.BMP,Door1,-0.258601554,-0.021642619,1,0,0,0.616,optionLeft,30,14045,7,12,0,12,0,1,,,,,,,,,,,,,,,,,,,,,,,,,,,,,,,,,,,,,,,
,,,,,,,,2023-08-16_08h49.01.915,HF_wild_card,2022.2.4,Win32,60.12144532,63f77aa9a4d7a65bb7a411f8,64d2fd46c836a06233681665,64dc7e32210a0a3e632da83a,,,,,,,decisionTrl,resources/DR.BMP,resources/DP.BMP,Door3,-0.336293008,-0.036071032,1,0,0,0.8816,optionLeft,70,14115,7,13,0,13,0,1,,,,,,,,,,,,,,,,,,,,,,,,,,,,,,,,,,,,,,,
,,,,,,,,2023-08-16_08h49.01.915,HF_wild_card,2022.2.4,Win32,60.12144532,63f77aa9a4d7a65bb7a411f8,64d2fd46c836a06233681665,64dc7e32210a0a3e632da83a,,,,,,,decisionTrl,resources/DP.BMP,resources/DR.BMP,Door3,0.428412875,-0.081576027,1,0,0,0.6949,optionRight,70,14185,7,14,0,14,0,1,,,,,,,,,,,,,,,,,,,,,,,,,,,,,,,,,,,,,,,
,,,,,,,,2023-08-16_08h49.01.915,HF_wild_card,2022.2.4,Win32,60.12144532,63f77aa9a4d7a65bb7a411f8,64d2fd46c836a06233681665,64dc7e32210a0a3e632da83a,,,,,,,decisionTrl,resources/DG.BMP,resources/DBN.BMP,Door1,-0.238623751,-0.026082131,1,0,0,0.6492,optionLeft,30,14215,7,15,0,15,0,1,,,,,,,,,,,,,,,,,,,,,,,,,,,,,,,,,,,,,,,
,,,,,,,,2023-08-16_08h49.01.915,HF_wild_card,2022.2.4,Win32,60.12144532,63f77aa9a4d7a65bb7a411f8,64d2fd46c836a06233681665,64dc7e32210a0a3e632da83a,,,,,,,decisionTrl,resources/DP.BMP,resources/DR.BMP,Door3,0.214206437,-0.032741398,1,0,0,0.5821,optionRight,70,14285,7,16,0,16,0,1,,,,,,,,,,,,,,,,,,,,,,,,,,,,,,,,,,,,,,,
,,,,,,,,2023-08-16_08h49.01.915,HF_wild_card,2022.2.4,Win32,60.12144532,63f77aa9a4d7a65bb7a411f8,64d2fd46c836a06233681665,64dc7e32210a0a3e632da83a,,,,,,,decisionTrl,resources/DP.BMP,resources/DR.BMP,Door3,0.324084351,-0.052719201,1,0,0,0.5491,optionRight,70,14355,7,17,0,17,0,1,,,,,,,,,,,,,,,,,,,,,,,,,,,,,,,,,,,,,,,
,,,,,,,,2023-08-16_08h49.01.915,HF_wild_card,2022.2.4,Win32,60.12144532,63f77aa9a4d7a65bb7a411f8,64d2fd46c836a06233681665,64dc7e32210a0a3e632da83a,,,,,,,decisionTrl,resources/DG.BMP,resources/DBN.BMP,Door1,-0.244173141,-0.020532741,1,0,0,0.615,optionLeft,30,14385,7,18,0,18,0,1,,,,,,,,,,,,,,,,,,,,,,,,,,,,,,,,,,,,,,,
,,,,,,,,2023-08-16_08h49.01.915,HF_wild_card,2022.2.4,Win32,60.12144532,63f77aa9a4d7a65bb7a411f8,64d2fd46c836a06233681665,64dc7e32210a0a3e632da83a,,,,,,,decisionTrl,resources/DBN.BMP,resources/DG.BMP,Door1,0.197558269,-0.024972253,1,0,0,0.7399,optionRight,30,14415,7,19,0,19,0,1,,,,,,,,,,,,,,,,,,,,,,,,,,,,,,,,,,,,,,,
,,,,,,,,2023-08-16_08h49.01.915,HF_wild_card,2022.2.4,Win32,60.12144532,63f77aa9a4d7a65bb7a411f8,64d2fd46c836a06233681665,64dc7e32210a0a3e632da83a,,,,,,,decisionTrl,resources/DP.BMP,resources/DR.BMP,Door3,0.291897891,-0.001664817,1,0,0,0.5981,optionRight,70,14485,7,20,0,20,0,1,,,,,,,,,,,,,,,,,,,,,,,,,,,,,,,,,,,,,,,
,,,,,,,,2023-08-16_08h49.01.915,HF_wild_card,2022.2.4,Win32,60.12144532,63f77aa9a4d7a65bb7a411f8,64d2fd46c836a06233681665,64dc7e32210a0a3e632da83a,,,,,,,ctch,resources/DBN.BMP,resources/DR.BMP,Door3,0.293007769,-0.026082131,1,0,0,0.5651,optionRight,70,14555,7,21,0,21,0,1,,,,,,,,,,,,,,,,,,,,,,,,,,,,,,,,,,,,,,,
,,,,,,,,2023-08-16_08h49.01.915,HF_wild_card,2022.2.4,Win32,60.12144532,63f77aa9a4d7a65bb7a411f8,64d2fd46c836a06233681665,64dc7e32210a0a3e632da83a,,,,,,,decisionTrl,resources/DBN.BMP,resources/DG.BMP,Door1,0.204217536,-0.006104329,1,0,0,0.9491,optionRight,30,14585,7,22,0,22,0,1,,,,,,,,,,,,,,,,,,,,,,,,,,,,,,,,,,,,,,,
,,,,,,,,2023-08-16_08h49.01.915,HF_wild_card,2022.2.4,Win32,60.12144532,63f77aa9a4d7a65bb7a411f8,64d2fd46c836a06233681665,64dc7e32210a0a3e632da83a,,,,,,,decisionTrl,resources/DG.BMP,resources/DBN.BMP,Door1,-0.178690344,-0.022752497,1,0,0,0.582,optionLeft,30,14615,7,23,0,23,0,1,,,,,,,,,,,,,,,,,,,,,,,,,,,,,,,,,,,,,,,
,,,,,,,,2023-08-16_08h49.01.915,HF_wild_card,2022.2.4,Win32,60.12144532,63f77aa9a4d7a65bb7a411f8,64d2fd46c836a06233681665,64dc7e32210a0a3e632da83a,,,,,,,decisionTrl,resources/DR.BMP,resources/DP.BMP,Door3,-0.257491676,-0.064927858,1,0,0,2.1161,optionLeft,70,14685,7,24,0,24,0,1,,,,,,,,,,,,,,,,,,,,,,,,,,,,,,,,,,,,,,,
,,,,,,,,2023-08-16_08h49.01.915,HF_wild_card,2022.2.4,Win32,60.12144532,63f77aa9a4d7a65bb7a411f8,64d2fd46c836a06233681665,64dc7e32210a0a3e632da83a,,,,,,,ctch,resources/DR.BMP,resources/DBN.BMP,Door3,-0.279689234,-0.012763596,1,0,0,1.4487,optionLeft,70,14755,7,25,0,25,0,1,,,,,,,,,,,,,,,,,,,,,,,,,,,,,,,,,,,,,,,
,,,,,,,,2023-08-16_08h49.01.915,HF_wild_card,2022.2.4,Win32,60.12144532,63f77aa9a4d7a65bb7a411f8,64d2fd46c836a06233681665,64dc7e32210a0a3e632da83a,,,,,,,ctch,resources/DR.BMP,resources/DBN.BMP,Door3,-0.273029967,-0.001664817,1,0,0,0.6323,optionLeft,70,14825,7,26,0,26,0,1,,,,,,,,,,,,,,,,,,,,,,,,,,,,,,,,,,,,,,,
,,,,,,,,2023-08-16_08h49.01.915,HF_wild_card,2022.2.4,Win32,60.12144532,63f77aa9a4d7a65bb7a411f8,64d2fd46c836a06233681665,64dc7e32210a0a3e632da83a,,,,,,,decisionTrl,resources/DR.BMP,resources/DP.BMP,Door3,-0.229744728,-0.070477248,1,0,0,1.0984,optionLeft,70,14895,7,27,0,27,0,1,,,,,,,,,,,,,,,,,,,,,,,,,,,,,,,,,,,,,,,
,,,,,,,,2023-08-16_08h49.01.915,HF_wild_card,2022.2.4,Win32,60.12144532,63f77aa9a4d7a65bb7a411f8,64d2fd46c836a06233681665,64dc7e32210a0a3e632da83a,,,,,,,decisionTrl,resources/DBN.BMP,resources/DG.BMP,Door1,0.264150943,-0.029411765,1,0,0,0.8626,optionRight,30,14925,7,28,0,28,0,1,,,,,,,,,,,,,,,,,,,,,,,,,,,,,,,,,,,,,,,
,,,,,,,,2023-08-16_08h49.01.915,HF_wild_card,2022.2.4,Win32,60.12144532,63f77aa9a4d7a65bb7a411f8,64d2fd46c836a06233681665,64dc7e32210a0a3e632da83a,,,,,,,ctch,resources/DG.BMP,resources/DP.BMP,Door4,0.23418424,-0.008324084,1,0,0,2.8992,optionRight,80,15005,7,29,0,29,0,1,,,,,,,,,,,,,,,,,,,,,,,,,,,,,,,,,,,,,,,
,,,,,,,,2023-08-16_08h49.01.915,HF_wild_card,2022.2.4,Win32,60.12144532,63f77aa9a4d7a65bb7a411f8,64d2fd46c836a06233681665,64dc7e32210a0a3e632da83a,,,,,,,ctch,resources/DBN.BMP,resources/DR.BMP,Door3,0.467258602,0.003884573,1,0,0,0.6828,optionRight,70,15075,7,30,0,30,0,1,,,,,,,,,,,,,,,,,,,,,,,,,,,,,,,,,,,,,,,
,,,,,,,,2023-08-16_08h49.01.915,HF_wild_card,2022.2.4,Win32,60.12144532,63f77aa9a4d7a65bb7a411f8,64d2fd46c836a06233681665,64dc7e32210a0a3e632da83a,,,,,,,decisionTrl,resources/DR.BMP,resources/DP.BMP,Door3,-0.199778024,-0.029411765,1,0,0,0.7574,optionLeft,70,15145,7,31,0,31,0,1,,,,,,,,,,,,,,,,,,,,,,,,,,,,,,,,,,,,,,,
,,,,,,,,2023-08-16_08h49.01.915,HF_wild_card,2022.2.4,Win32,60.12144532,63f77aa9a4d7a65bb7a411f8,64d2fd46c836a06233681665,64dc7e32210a0a3e632da83a,,,,,,,ctch,resources/DBN.BMP,resources/DR.BMP,Door3,0.544950055,-0.028301887,1,0,0,0.5652,optionRight,70,15215,7,32,0,32,0,1,,,,,,,,,,,,,,,,,,,,,,,,,,,,,,,,,,,,,,,
,,,,,,,,2023-08-16_08h49.01.915,HF_wild_card,2022.2.4,Win32,60.12144532,63f77aa9a4d7a65bb7a411f8,64d2fd46c836a06233681665,64dc7e32210a0a3e632da83a,,,,,,,decisionTrl,resources/DP.BMP,resources/DR.BMP,Door3,0.540510544,-0.052719201,1,0,0,0.5154,optionRight,70,15285,7,33,0,33,0,1,,,,,,,,,,,,,,,,,,,,,,,,,,,,,,,,,,,,,,,
,,,,,,,,2023-08-16_08h49.01.915,HF_wild_card,2022.2.4,Win32,60.12144532,63f77aa9a4d7a65bb7a411f8,64d2fd46c836a06233681665,64dc7e32210a0a3e632da83a,,,,,,,ctch,resources/DP.BMP,resources/DG.BMP,Door1,0.498335183,-0.068257492,1,0,0,3.1657,optionRight,30,15315,7,34,0,34,0,1,,,,,,,,,,,,,,,,,,,,,,,,,,,,,,,,,,,,,,,
,,,,,,,,2023-08-16_08h49.01.915,HF_wild_card,2022.2.4,Win32,60.12144532,63f77aa9a4d7a65bb7a411f8,64d2fd46c836a06233681665,64dc7e32210a0a3e632da83a,,,,,,,decisionTrl,resources/DBN.BMP,resources/DG.BMP,Door1,0.463928968,-0.01609323,1,0,0,0.6159,optionRight,30,15345,7,35,0,35,0,1,,,,,,,,,,,,,,,,,,,,,,,,,,,,,,,,,,,,,,,
,,,,,,,,2023-08-16_08h49.01.915,HF_wild_card,2022.2.4,Win32,60.12144532,63f77aa9a4d7a65bb7a411f8,64d2fd46c836a06233681665,64dc7e32210a0a3e632da83a,,,,,,,,,,,,,,,,,,,,,,,,,,6,0,6,0,1,,,,,,,,,,,,,,,,,,,,,,,,,,,,,,,,,,
,,,,,,,,2023-08-16_08h49.01.915,HF_wild_card,2022.2.4,Win32,60.12144532,63f77aa9a4d7a65bb7a411f8,64d2fd46c836a06233681665,64dc7e32210a0a3e632da83a,,,,,,,,,,,,,,,,,,,,,,,,,,,,,,,3,,,,,,,,,,,,,,,,,,,,,,,,,,,,,,,,,
,,,,,,,,2023-08-16_08h49.01.915,HF_wild_card,2022.2.4,Win32,60.12144532,63f77aa9a4d7a65bb7a411f8,64d2fd46c836a06233681665,64dc7e32210a0a3e632da83a,,,,,,,,,,,,,,,,,,,,,,,,,,,,,,,,,,,,,,,,,,,,,,,,,,,,,,,,,,,,,,,,
,,,,,,,,2023-08-16_08h49.01.915,HF_wild_card,2022.2.4,Win32,60.12144532,63f77aa9a4d7a65bb7a411f8,64d2fd46c836a06233681665,64dc7e32210a0a3e632da83a,,,,,,,,,,,,,,,,,,,,,,,,,,,,,,,,40,WC_nonExtreme,resources/DB.BMP,0,0,0,0,1,,,,,,,,,,,,,,,,,,,,,,,,,
,,,,,,,,2023-08-16_08h49.01.915,HF_wild_card,2022.2.4,Win32,60.12144532,63f77aa9a4d7a65bb7a411f8,64d2fd46c836a06233681665,64dc7e32210a0a3e632da83a,,,,,,,,,,,,,,,,,,,,,,,,,,,,,,,,30,Door4,resources/DP.BMP,1,0,1,0,1,,,,,,,,,,,,,,,,,,,,,,,,,
,,,,,,,,2023-08-16_08h49.01.915,HF_wild_card,2022.2.4,Win32,60.12144532,63f77aa9a4d7a65bb7a411f8,64d2fd46c836a06233681665,64dc7e32210a0a3e632da83a,,,,,,,,,,,,,,,,,,,,,,,,,,,,,,,,60,Door3,resources/DR.BMP,2,0,2,0,1,,,,,,,,,,,,,,,,,,,,,,,,,
,,,,,,,,2023-08-16_08h49.01.915,HF_wild_card,2022.2.4,Win32,60.12144532,63f77aa9a4d7a65bb7a411f8,64d2fd46c836a06233681665,64dc7e32210a0a3e632da83a,,,,,,,,,,,,,,,,,,,,,,,,,,,,,,,,70,Door1,resources/DG.BMP,3,0,3,0,1,,,,,,,,,,,,,,,,,,,,,,,,,
,,,,,,,,2023-08-16_08h49.01.915,HF_wild_card,2022.2.4,Win32,60.12144532,63f77aa9a4d7a65bb7a411f8,64d2fd46c836a06233681665,64dc7e32210a0a3e632da83a,,,,,,,,,,,,,,,,,,,,,,,,,,,,,,,,30,Door2,resources/DBN.BMP,4,0,4,0,1,,,,,,,,,,,,,,,,,,,,,,,,,
,,,,,,,,2023-08-16_08h49.01.915,HF_wild_card,2022.2.4,Win32,60.12144532,63f77aa9a4d7a65bb7a411f8,64d2fd46c836a06233681665,64dc7e32210a0a3e632da83a,,,,,,,,,,,,,,,,,,,,,,,,,,,,,,,,70,WC_extreme,resources/DY.BMP,5,0,5,0,1,,,,,,,,,,,,,,,,,,,,,,,,,
,,,,,,,,2023-08-16_08h49.01.915,HF_wild_card,2022.2.4,Win32,60.12144532,63f77aa9a4d7a65bb7a411f8,64d2fd46c836a06233681665,64dc7e32210a0a3e632da83a,,,,,,,,,,,,,,,,,,,,,,,,,,,,,,,,,,,,,,,,,,,,,,,,,,,,,,,,,,,,,,,,
