Condition,Low fixed image (Door1),Low risky image (Door2),High fixed image (Door3),High risky image (Door4),NonExtreme Wild Card 1,NonExtreme Wild Card 2,,date,expName,psychopyVersion,OS,frameRate,PROLIFIC_PID,STUDY_ID,SESSION_ID,mouse_2.x,mouse_2.y,mouse_2.leftButton,mouse_2.midButton,mouse_2.rightButton,mouse_2.clicked_name,Trial Type,Left Option Image,Right Option Image,Chosen Door,mouse.x,mouse.y,mouse.leftButton,mouse.midButton,mouse.rightButton,mouse.time,mouse.clicked_name,Feedback,Cumulative Reward,Block,trial.thisRepN,trial.thisTrialN,trial.thisN,trial.thisIndex,trial.ran,blocks.thisRepN,blocks.thisTrialN,blocks.thisN,blocks.thisIndex,blocks.ran,Money conversion,First Outcome Reported,Shown Door (First Outcome),Displayed Image (First Outcome),outcomes.thisRepN,outcomes.thisTrialN,outcomes.thisN,outcomes.thisIndex,outcomes.ran,judgments.thisRepN,judgments.thisTrialN,judgments.thisN,judgments.thisIndex,judgments.ran,freqMouse.x,freqMouse.y,freqMouse.leftButton,freqMouse.midButton,freqMouse.rightButton,freqMouse.clicked_name,trials.thisRepN,trials.thisTrialN,trials.thisN,trials.thisIndex,trials.ran,FQJ for first outcome,FQJ for second outcome,Shown Door,Displayed Image,judgBlock.thisRepN,judgBlock.thisTrialN,judgBlock.thisN,judgBlock.thisIndex,judgBlock.ran
2,resources/DG.BMP,resources/DP.BMP,resources/DY.BMP,resources/DBN.BMP,resources/DR.BMP,resources/DB.BMP,,2023-08-16_08h50.08.352,HF_wild_card,2022.2.4,Win32,64.41638753,576b0cc76aed2e0001705386,64d2fd46c836a06233681665,64dc7f4eb4214cff76e6c11c,,,,,,,,,,,,,,,,,,,,,,,,,,,,,,,,,,,,,,,,,,,,,,,,,,,,,,,,,,,,,,,,
,,,,,,,,2023-08-16_08h50.08.352,HF_wild_card,2022.2.4,Win32,64.41638753,576b0cc76aed2e0001705386,64d2fd46c836a06233681665,64dc7f4eb4214cff76e6c11c,-0.001302083,-0.423177083,1,0,0,agree,,,,,,,,,,,,,,,,,,,,,,,,,,,,,,,,,,,,,,,,,,,,,,,,,,,,,,,,,,
,,,,,,,,2023-08-16_08h50.08.352,HF_wild_card,2022.2.4,Win32,64.41638753,576b0cc76aed2e0001705386,64d2fd46c836a06233681665,64dc7f4eb4214cff76e6c11c,,,,,,,,,,,,,,,,,,,,,,,,,,,,,,,,,,,,,,,,,,,,,,,,,,,,,,,,,,,,,,,,
,,,,,,,,2023-08-16_08h50.08.352,HF_wild_card,2022.2.4,Win32,64.41638753,576b0cc76aed2e0001705386,64d2fd46c836a06233681665,64dc7f4eb4214cff76e6c11c,,,,,,,ctch,resources/DP.BMP,resources/DY.BMP,Door2,-0.34765625,-0.079427083,1,0,0,1.9363,optionLeft,40,40,1,0,0,0,0,1,,,,,,,,,,,,,,,,,,,,,,,,,,,,,,,,,,,,,,,
,,,,,,,,2023-08-16_08h50.08.352,HF_wild_card,2022.2.4,Win32,64.41638753,576b0cc76aed2e0001705386,64d2fd46c836a06233681665,64dc7f4eb4214cff76e6c11c,,,,,,,decisionTrl,resources/DP.BMP,resources/DG.BMP,Door1,0.348958333,-0.015625,1,0,0,1.4443,optionRight,30,70,1,1,0,1,0,1,,,,,,,,,,,,,,,,,,,,,,,,,,,,,,,,,,,,,,,
,,,,,,,,2023-08-16_08h50.08.352,HF_wild_card,2022.2.4,Win32,64.41638753,576b0cc76aed2e0001705386,64d2fd46c836a06233681665,64dc7f4eb4214cff76e6c11c,,,,,,,decisionTrl,resources/DP.BMP,resources/DG.BMP,Door2,-0.404947917,-0.00390625,1,0,0,0.7252,optionLeft,20,90,1,2,0,2,0,1,,,,,,,,,,,,,,,,,,,,,,,,,,,,,,,,,,,,,,,
,,,,,,,,2023-08-16_08h50.08.352,HF_wild_card,2022.2.4,Win32,64.41638753,576b0cc76aed2e0001705386,64d2fd46c836a06233681665,64dc7f4eb4214cff76e6c11c,,,,,,,decisionTrl,resources/DBN.BMP,resources/DY.BMP,Door3,0.39453125,0.0078125,1,0,0,0.9884,optionRight,70,160,1,3,0,3,0,1,,,,,,,,,,,,,,,,,,,,,,,,,,,,,,,,,,,,,,,
,,,,,,,,2023-08-16_08h50.08.352,HF_wild_card,2022.2.4,Win32,64.41638753,576b0cc76aed2e0001705386,64d2fd46c836a06233681665,64dc7f4eb4214cff76e6c11c,,,,,,,decisionTrl,resources/DG.BMP,resources/DB.BMP,Door1,-0.38671875,-0.006510417,1,0,0,0.5842,optionLeft,30,190,1,4,0,4,0,1,,,,,,,,,,,,,,,,,,,,,,,,,,,,,,,,,,,,,,,
,,,,,,,,2023-08-16_08h50.08.352,HF_wild_card,2022.2.4,Win32,64.41638753,576b0cc76aed2e0001705386,64d2fd46c836a06233681665,64dc7f4eb4214cff76e6c11c,,,,,,,sngl,resources/DP.BMP,resources/Empty.png,Door2,-0.28515625,-0.028645833,1,0,0,0.6379,optionLeft,40,230,1,5,0,5,0,1,,,,,,,,,,,,,,,,,,,,,,,,,,,,,,,,,,,,,,,
,,,,,,,,2023-08-16_08h50.08.352,HF_wild_card,2022.2.4,Win32,64.41638753,576b0cc76aed2e0001705386,64d2fd46c836a06233681665,64dc7f4eb4214cff76e6c11c,,,,,,,ctch,resources/DY.BMP,resources/DP.BMP,Door2,0.3359375,-0.01171875,1,0,0,0.5734,optionRight,20,250,1,6,0,6,0,1,,,,,,,,,,,,,,,,,,,,,,,,,,,,,,,,,,,,,,,
,,,,,,,,2023-08-16_08h50.08.352,HF_wild_card,2022.2.4,Win32,64.41638753,576b0cc76aed2e0001705386,64d2fd46c836a06233681665,64dc7f4eb4214cff76e6c11c,,,,,,,decisionTrl,resources/DP.BMP,resources/DG.BMP,Door2,-0.282552083,-0.024739583,1,0,0,0.7782,optionLeft,20,270,1,7,0,7,0,1,,,,,,,,,,,,,,,,,,,,,,,,,,,,,,,,,,,,,,,
,,,,,,,,2023-08-16_08h50.08.352,HF_wild_card,2022.2.4,Win32,64.41638753,576b0cc76aed2e0001705386,64d2fd46c836a06233681665,64dc7f4eb4214cff76e6c11c,,,,,,,decisionTrl,resources/DY.BMP,resources/DBN.BMP,Door4,0.233072917,-0.028645833,1,0,0,0.841,optionRight,60,330,1,8,0,8,0,1,,,,,,,,,,,,,,,,,,,,,,,,,,,,,,,,,,,,,,,
,,,,,,,,2023-08-16_08h50.08.352,HF_wild_card,2022.2.4,Win32,64.41638753,576b0cc76aed2e0001705386,64d2fd46c836a06233681665,64dc7f4eb4214cff76e6c11c,,,,,,,decisionTrl,resources/DBN.BMP,resources/DY.BMP,Door4,-0.309895833,0,1,0,0,0.5645,optionLeft,80,410,1,9,0,9,0,1,,,,,,,,,,,,,,,,,,,,,,,,,,,,,,,,,,,,,,,
,,,,,,,,2023-08-16_08h50.08.352,HF_wild_card,2022.2.4,Win32,64.41638753,576b0cc76aed2e0001705386,64d2fd46c836a06233681665,64dc7f4eb4214cff76e6c11c,,,,,,,decisionTrl,resources/DBN.BMP,resources/DY.BMP,Door4,-0.307291667,-0.018229167,1,0,0,0.6268,optionLeft,60,470,1,10,0,10,0,1,,,,,,,,,,,,,,,,,,,,,,,,,,,,,,,,,,,,,,,
,,,,,,,,2023-08-16_08h50.08.352,HF_wild_card,2022.2.4,Win32,64.41638753,576b0cc76aed2e0001705386,64d2fd46c836a06233681665,64dc7f4eb4214cff76e6c11c,,,,,,,decisionTrl,resources/DB.BMP,resources/DY.BMP,Door3,0.393229167,-0.061197917,1,0,0,0.6658,optionRight,70,540,1,11,0,11,0,1,,,,,,,,,,,,,,,,,,,,,,,,,,,,,,,,,,,,,,,
,,,,,,,,2023-08-16_08h50.08.352,HF_wild_card,2022.2.4,Win32,64.41638753,576b0cc76aed2e0001705386,64d2fd46c836a06233681665,64dc7f4eb4214cff76e6c11c,,,,,,,ctch,resources/DBN.BMP,resources/DG.BMP,Door4,-0.3984375,-0.022135417,1,0,0,0.8028,optionLeft,80,620,1,12,0,12,0,1,,,,,,,,,,,,,,,,,,,,,,,,,,,,,,,,,,,,,,,
,,,,,,,,2023-08-16_08h50.08.352,HF_wild_card,2022.2.4,Win32,64.41638753,576b0cc76aed2e0001705386,64d2fd46c836a06233681665,64dc7f4eb4214cff76e6c11c,,,,,,,ctch,resources/DY.BMP,resources/DP.BMP,Door2,0.32421875,-0.026041667,1,0,0,0.7386,optionRight,40,660,1,13,0,13,0,1,,,,,,,,,,,,,,,,,,,,,,,,,,,,,,,,,,,,,,,
,,,,,,,,2023-08-16_08h50.08.352,HF_wild_card,2022.2.4,Win32,64.41638753,576b0cc76aed2e0001705386,64d2fd46c836a06233681665,64dc7f4eb4214cff76e6c11c,,,,,,,decisionTrl,resources/DY.BMP,resources/DBN.BMP,Door3,-0.31640625,0.04296875,1,0,0,0.5639,optionLeft,70,730,1,14,0,14,0,1,,,,,,,,,,,,,,,,,,,,,,,,,,,,,,,,,,,,,,,
,,,,,,,,2023-08-16_08h50.08.352,HF_wild_card,2022.2.4,Win32,64.41638753,576b0cc76aed2e0001705386,64d2fd46c836a06233681665,64dc7f4eb4214cff76e6c11c,,,,,,,decisionTrl,resources/DY.BMP,resources/DBN.BMP,Door4,0.44140625,0.016927083,1,0,0,0.6914,optionRight,80,810,1,15,0,15,0,1,,,,,,,,,,,,,,,,,,,,,,,,,,,,,,,,,,,,,,,
,,,,,,,,2023-08-16_08h50.08.352,HF_wild_card,2022.2.4,Win32,64.41638753,576b0cc76aed2e0001705386,64d2fd46c836a06233681665,64dc7f4eb4214cff76e6c11c,,,,,,,decisionTrl,resources/DP.BMP,resources/DB.BMP,WildCard_NonEx,0.276041667,-0.032552083,1,0,0,1.0107,optionRight,55,865,1,16,0,16,0,1,,,,,,,,,,,,,,,,,,,,,,,,,,,,,,,,,,,,,,,
,,,,,,,,2023-08-16_08h50.08.352,HF_wild_card,2022.2.4,Win32,64.41638753,576b0cc76aed2e0001705386,64d2fd46c836a06233681665,64dc7f4eb4214cff76e6c11c,,,,,,,decisionTrl,resources/DG.BMP,resources/DP.BMP,Door1,-0.309895833,-0.029947917,1,0,0,0.655,optionLeft,30,895,1,17,0,17,0,1,,,,,,,,,,,,,,,,,,,,,,,,,,,,,,,,,,,,,,,
,,,,,,,,2023-08-16_08h50.08.352,HF_wild_card,2022.2.4,Win32,64.41638753,576b0cc76aed2e0001705386,64d2fd46c836a06233681665,64dc7f4eb4214cff76e6c11c,,,,,,,sngl,resources/Empty.png,resources/DG.BMP,Door1,0.311197917,-0.029947917,1,0,0,0.5482,optionRight,30,925,1,18,0,18,0,1,,,,,,,,,,,,,,,,,,,,,,,,,,,,,,,,,,,,,,,
,,,,,,,,2023-08-16_08h50.08.352,HF_wild_card,2022.2.4,Win32,64.41638753,576b0cc76aed2e0001705386,64d2fd46c836a06233681665,64dc7f4eb4214cff76e6c11c,,,,,,,sngl,resources/DBN.BMP,resources/Empty.png,Door4,-0.37109375,-0.022135417,1,0,0,0.5685,optionLeft,80,1005,1,19,0,19,0,1,,,,,,,,,,,,,,,,,,,,,,,,,,,,,,,,,,,,,,,
,,,,,,,,2023-08-16_08h50.08.352,HF_wild_card,2022.2.4,Win32,64.41638753,576b0cc76aed2e0001705386,64d2fd46c836a06233681665,64dc7f4eb4214cff76e6c11c,,,,,,,sngl,resources/DB.BMP,resources/Empty.png,WildCard_NonEx,-0.25390625,-0.016927083,1,0,0,0.5507,optionLeft,55,1060,1,20,0,20,0,1,,,,,,,,,,,,,,,,,,,,,,,,,,,,,,,,,,,,,,,
,,,,,,,,2023-08-16_08h50.08.352,HF_wild_card,2022.2.4,Win32,64.41638753,576b0cc76aed2e0001705386,64d2fd46c836a06233681665,64dc7f4eb4214cff76e6c11c,,,,,,,decisionTrl,resources/DG.BMP,resources/DP.BMP,Door2,0.27734375,-0.015625,1,0,0,0.5509,optionRight,20,1080,1,21,0,21,0,1,,,,,,,,,,,,,,,,,,,,,,,,,,,,,,,,,,,,,,,
,,,,,,,,2023-08-16_08h50.08.352,HF_wild_card,2022.2.4,Win32,64.41638753,576b0cc76aed2e0001705386,64d2fd46c836a06233681665,64dc7f4eb4214cff76e6c11c,,,,,,,sngl,resources/Empty.png,resources/DBN.BMP,Door4,0.256510417,-0.001302083,1,0,0,0.574,optionRight,60,1140,1,22,0,22,0,1,,,,,,,,,,,,,,,,,,,,,,,,,,,,,,,,,,,,,,,
,,,,,,,,2023-08-16_08h50.08.352,HF_wild_card,2022.2.4,Win32,64.41638753,576b0cc76aed2e0001705386,64d2fd46c836a06233681665,64dc7f4eb4214cff76e6c11c,,,,,,,sngl,resources/Empty.png,resources/DB.BMP,WildCard_NonEx,0.213541667,-0.013020833,1,0,0,0.6681,optionRight,45,1185,1,23,0,23,0,1,,,,,,,,,,,,,,,,,,,,,,,,,,,,,,,,,,,,,,,
,,,,,,,,2023-08-16_08h50.08.352,HF_wild_card,2022.2.4,Win32,64.41638753,576b0cc76aed2e0001705386,64d2fd46c836a06233681665,64dc7f4eb4214cff76e6c11c,,,,,,,sngl,resources/Empty.png,resources/DB.BMP,WildCard_NonEx,0.265625,-0.010416667,1,0,0,0.6162,optionRight,55,1240,1,24,0,24,0,1,,,,,,,,,,,,,,,,,,,,,,,,,,,,,,,,,,,,,,,
,,,,,,,,2023-08-16_08h50.08.352,HF_wild_card,2022.2.4,Win32,64.41638753,576b0cc76aed2e0001705386,64d2fd46c836a06233681665,64dc7f4eb4214cff76e6c11c,,,,,,,sngl,resources/DG.BMP,resources/Empty.png,Door1,-0.2890625,0.010416667,1,0,0,0.5205,optionLeft,30,1270,1,25,0,25,0,1,,,,,,,,,,,,,,,,,,,,,,,,,,,,,,,,,,,,,,,
,,,,,,,,2023-08-16_08h50.08.352,HF_wild_card,2022.2.4,Win32,64.41638753,576b0cc76aed2e0001705386,64d2fd46c836a06233681665,64dc7f4eb4214cff76e6c11c,,,,,,,decisionTrl,resources/DBN.BMP,resources/DY.BMP,Door4,-0.420572917,0.022135417,1,0,0,0.727,optionLeft,60,1330,1,26,0,26,0,1,,,,,,,,,,,,,,,,,,,,,,,,,,,,,,,,,,,,,,,
,,,,,,,,2023-08-16_08h50.08.352,HF_wild_card,2022.2.4,Win32,64.41638753,576b0cc76aed2e0001705386,64d2fd46c836a06233681665,64dc7f4eb4214cff76e6c11c,,,,,,,sngl,resources/DB.BMP,resources/Empty.png,WildCard_NonEx,-0.342447917,0.010416667,1,0,0,0.558,optionLeft,45,1375,1,27,0,27,0,1,,,,,,,,,,,,,,,,,,,,,,,,,,,,,,,,,,,,,,,
,,,,,,,,2023-08-16_08h50.08.352,HF_wild_card,2022.2.4,Win32,64.41638753,576b0cc76aed2e0001705386,64d2fd46c836a06233681665,64dc7f4eb4214cff76e6c11c,,,,,,,decisionTrl,resources/DBN.BMP,resources/DB.BMP,WildCard_NonEx,0.278645833,0.001302083,1,0,0,0.4988,optionRight,55,1430,1,28,0,28,0,1,,,,,,,,,,,,,,,,,,,,,,,,,,,,,,,,,,,,,,,
,,,,,,,,2023-08-16_08h50.08.352,HF_wild_card,2022.2.4,Win32,64.41638753,576b0cc76aed2e0001705386,64d2fd46c836a06233681665,64dc7f4eb4214cff76e6c11c,,,,,,,decisionTrl,resources/DG.BMP,resources/DP.BMP,Door1,-0.266927083,-0.022135417,1,0,0,0.496,optionLeft,30,1460,1,29,0,29,0,1,,,,,,,,,,,,,,,,,,,,,,,,,,,,,,,,,,,,,,,
,,,,,,,,2023-08-16_08h50.08.352,HF_wild_card,2022.2.4,Win32,64.41638753,576b0cc76aed2e0001705386,64d2fd46c836a06233681665,64dc7f4eb4214cff76e6c11c,,,,,,,decisionTrl,resources/DY.BMP,resources/DBN.BMP,Door4,0.303385417,-0.009114583,1,0,0,0.5782,optionRight,60,1520,1,30,0,30,0,1,,,,,,,,,,,,,,,,,,,,,,,,,,,,,,,,,,,,,,,
,,,,,,,,2023-08-16_08h50.08.352,HF_wild_card,2022.2.4,Win32,64.41638753,576b0cc76aed2e0001705386,64d2fd46c836a06233681665,64dc7f4eb4214cff76e6c11c,,,,,,,ctch,resources/DG.BMP,resources/DBN.BMP,Door1,-0.279947917,0.01171875,1,0,0,0.4587,optionLeft,30,1550,1,31,0,31,0,1,,,,,,,,,,,,,,,,,,,,,,,,,,,,,,,,,,,,,,,
,,,,,,,,2023-08-16_08h50.08.352,HF_wild_card,2022.2.4,Win32,64.41638753,576b0cc76aed2e0001705386,64d2fd46c836a06233681665,64dc7f4eb4214cff76e6c11c,,,,,,,decisionTrl,resources/DB.BMP,resources/DP.BMP,Door2,0.36328125,-0.001302083,1,0,0,0.3975,optionRight,20,1570,1,32,0,32,0,1,,,,,,,,,,,,,,,,,,,,,,,,,,,,,,,,,,,,,,,
,,,,,,,,2023-08-16_08h50.08.352,HF_wild_card,2022.2.4,Win32,64.41638753,576b0cc76aed2e0001705386,64d2fd46c836a06233681665,64dc7f4eb4214cff76e6c11c,,,,,,,decisionTrl,resources/DG.BMP,resources/DP.BMP,Door1,-0.27734375,-0.005208333,1,0,0,0.4395,optionLeft,30,1600,1,33,0,33,0,1,,,,,,,,,,,,,,,,,,,,,,,,,,,,,,,,,,,,,,,
,,,,,,,,2023-08-16_08h50.08.352,HF_wild_card,2022.2.4,Win32,64.41638753,576b0cc76aed2e0001705386,64d2fd46c836a06233681665,64dc7f4eb4214cff76e6c11c,,,,,,,decisionTrl,resources/DB.BMP,resources/DG.BMP,WildCard_NonEx,-0.3046875,-0.037760417,1,0,0,0.4186,optionLeft,55,1655,1,34,0,34,0,1,,,,,,,,,,,,,,,,,,,,,,,,,,,,,,,,,,,,,,,
,,,,,,,,2023-08-16_08h50.08.352,HF_wild_card,2022.2.4,Win32,64.41638753,576b0cc76aed2e0001705386,64d2fd46c836a06233681665,64dc7f4eb4214cff76e6c11c,,,,,,,sngl,resources/DY.BMP,resources/Empty.png,Door3,-0.330729167,0.009114583,1,0,0,0.4131,optionLeft,70,1725,1,35,0,35,0,1,,,,,,,,,,,,,,,,,,,,,,,,,,,,,,,,,,,,,,,
,,,,,,,,2023-08-16_08h50.08.352,HF_wild_card,2022.2.4,Win32,64.41638753,576b0cc76aed2e0001705386,64d2fd46c836a06233681665,64dc7f4eb4214cff76e6c11c,,,,,,,decisionTrl,resources/DY.BMP,resources/DB.BMP,Door3,-0.233072917,-0.029947917,1,0,0,0.4359,optionLeft,70,1795,1,36,0,36,0,1,,,,,,,,,,,,,,,,,,,,,,,,,,,,,,,,,,,,,,,
,,,,,,,,2023-08-16_08h50.08.352,HF_wild_card,2022.2.4,Win32,64.41638753,576b0cc76aed2e0001705386,64d2fd46c836a06233681665,64dc7f4eb4214cff76e6c11c,,,,,,,ctch,resources/DP.BMP,resources/DY.BMP,Door2,-0.264322917,-0.001302083,1,0,0,0.4927,optionLeft,40,1835,1,37,0,37,0,1,,,,,,,,,,,,,,,,,,,,,,,,,,,,,,,,,,,,,,,
,,,,,,,,2023-08-16_08h50.08.352,HF_wild_card,2022.2.4,Win32,64.41638753,576b0cc76aed2e0001705386,64d2fd46c836a06233681665,64dc7f4eb4214cff76e6c11c,,,,,,,ctch,resources/DBN.BMP,resources/DG.BMP,Door4,-0.32421875,-0.032552083,1,0,0,0.6071,optionLeft,60,1895,1,38,0,38,0,1,,,,,,,,,,,,,,,,,,,,,,,,,,,,,,,,,,,,,,,
,,,,,,,,2023-08-16_08h50.08.352,HF_wild_card,2022.2.4,Win32,64.41638753,576b0cc76aed2e0001705386,64d2fd46c836a06233681665,64dc7f4eb4214cff76e6c11c,,,,,,,decisionTrl,resources/DB.BMP,resources/DBN.BMP,Door4,0.255208333,-0.033854167,1,0,0,0.6013,optionRight,60,1955,1,39,0,39,0,1,,,,,,,,,,,,,,,,,,,,,,,,,,,,,,,,,,,,,,,
,,,,,,,,2023-08-16_08h50.08.352,HF_wild_card,2022.2.4,Win32,64.41638753,576b0cc76aed2e0001705386,64d2fd46c836a06233681665,64dc7f4eb4214cff76e6c11c,,,,,,,ctch,resources/DG.BMP,resources/DBN.BMP,Door1,-0.33203125,-0.006510417,1,0,0,0.58,optionLeft,30,1985,1,40,0,40,0,1,,,,,,,,,,,,,,,,,,,,,,,,,,,,,,,,,,,,,,,
,,,,,,,,2023-08-16_08h50.08.352,HF_wild_card,2022.2.4,Win32,64.41638753,576b0cc76aed2e0001705386,64d2fd46c836a06233681665,64dc7f4eb4214cff76e6c11c,,,,,,,sngl,resources/Empty.png,resources/DP.BMP,Door2,0.31640625,0.002604167,1,0,0,0.6328,optionRight,20,2005,1,41,0,41,0,1,,,,,,,,,,,,,,,,,,,,,,,,,,,,,,,,,,,,,,,
,,,,,,,,2023-08-16_08h50.08.352,HF_wild_card,2022.2.4,Win32,64.41638753,576b0cc76aed2e0001705386,64d2fd46c836a06233681665,64dc7f4eb4214cff76e6c11c,,,,,,,decisionTrl,resources/DP.BMP,resources/DG.BMP,Door2,-0.354166667,-0.00390625,1,0,0,0.6205,optionLeft,40,2045,1,42,0,42,0,1,,,,,,,,,,,,,,,,,,,,,,,,,,,,,,,,,,,,,,,
,,,,,,,,2023-08-16_08h50.08.352,HF_wild_card,2022.2.4,Win32,64.41638753,576b0cc76aed2e0001705386,64d2fd46c836a06233681665,64dc7f4eb4214cff76e6c11c,,,,,,,sngl,resources/Empty.png,resources/DY.BMP,Door3,0.313802083,-0.010416667,1,0,0,0.6079,optionRight,70,2115,1,43,0,43,0,1,,,,,,,,,,,,,,,,,,,,,,,,,,,,,,,,,,,,,,,
,,,,,,,,2023-08-16_08h50.08.352,HF_wild_card,2022.2.4,Win32,64.41638753,576b0cc76aed2e0001705386,64d2fd46c836a06233681665,64dc7f4eb4214cff76e6c11c,,,,,,,,,,,,,,,,,,,,,,,,,,0,0,0,0,1,,,,,,,,,,,,,,,,,,,,,,,,,,,,,,,,,,
,,,,,,,,2023-08-16_08h50.08.352,HF_wild_card,2022.2.4,Win32,64.41638753,576b0cc76aed2e0001705386,64d2fd46c836a06233681665,64dc7f4eb4214cff76e6c11c,,,,,,,decisionTrl,resources/DY.BMP,resources/DBN.BMP,Door3,-0.42578125,-0.072916667,1,0,0,0.7061,optionLeft,70,2185,2,0,0,0,0,1,,,,,,,,,,,,,,,,,,,,,,,,,,,,,,,,,,,,,,,
,,,,,,,,2023-08-16_08h50.08.352,HF_wild_card,2022.2.4,Win32,64.41638753,576b0cc76aed2e0001705386,64d2fd46c836a06233681665,64dc7f4eb4214cff76e6c11c,,,,,,,ctch,resources/DBN.BMP,resources/DG.BMP,Door4,-0.408854167,-0.024739583,1,0,0,0.5949,optionLeft,80,2265,2,1,0,1,0,1,,,,,,,,,,,,,,,,,,,,,,,,,,,,,,,,,,,,,,,
,,,,,,,,2023-08-16_08h50.08.352,HF_wild_card,2022.2.4,Win32,64.41638753,576b0cc76aed2e0001705386,64d2fd46c836a06233681665,64dc7f4eb4214cff76e6c11c,,,,,,,ctch,resources/DP.BMP,resources/DY.BMP,Door3,0.52734375,0.00390625,1,0,0,0.9072,optionRight,70,2335,2,2,0,2,0,1,,,,,,,,,,,,,,,,,,,,,,,,,,,,,,,,,,,,,,,
,,,,,,,,2023-08-16_08h50.08.352,HF_wild_card,2022.2.4,Win32,64.41638753,576b0cc76aed2e0001705386,64d2fd46c836a06233681665,64dc7f4eb4214cff76e6c11c,,,,,,,sngl,resources/Empty.png,resources/DB.BMP,WildCard_NonEx,0.3046875,0.009114583,1,0,0,0.5554,optionRight,55,2390,2,3,0,3,0,1,,,,,,,,,,,,,,,,,,,,,,,,,,,,,,,,,,,,,,,
,,,,,,,,2023-08-16_08h50.08.352,HF_wild_card,2022.2.4,Win32,64.41638753,576b0cc76aed2e0001705386,64d2fd46c836a06233681665,64dc7f4eb4214cff76e6c11c,,,,,,,decisionTrl,resources/DP.BMP,resources/DG.BMP,Door2,-0.2421875,-0.006510417,1,0,0,0.4979,optionLeft,20,2410,2,4,0,4,0,1,,,,,,,,,,,,,,,,,,,,,,,,,,,,,,,,,,,,,,,
,,,,,,,,2023-08-16_08h50.08.352,HF_wild_card,2022.2.4,Win32,64.41638753,576b0cc76aed2e0001705386,64d2fd46c836a06233681665,64dc7f4eb4214cff76e6c11c,,,,,,,decisionTrl,resources/DG.BMP,resources/DP.BMP,Door1,-0.239583333,-0.0078125,1,0,0,0.5338,optionLeft,30,2440,2,5,0,5,0,1,,,,,,,,,,,,,,,,,,,,,,,,,,,,,,,,,,,,,,,
,,,,,,,,2023-08-16_08h50.08.352,HF_wild_card,2022.2.4,Win32,64.41638753,576b0cc76aed2e0001705386,64d2fd46c836a06233681665,64dc7f4eb4214cff76e6c11c,,,,,,,sngl,resources/Empty.png,resources/DP.BMP,Door2,0.243489583,-0.014322917,1,0,0,0.5148,optionRight,40,2480,2,6,0,6,0,1,,,,,,,,,,,,,,,,,,,,,,,,,,,,,,,,,,,,,,,
,,,,,,,,2023-08-16_08h50.08.352,HF_wild_card,2022.2.4,Win32,64.41638753,576b0cc76aed2e0001705386,64d2fd46c836a06233681665,64dc7f4eb4214cff76e6c11c,,,,,,,sngl,resources/DBN.BMP,resources/Empty.png,Door4,-0.299479167,-0.010416667,1,0,0,0.5524,optionLeft,60,2540,2,7,0,7,0,1,,,,,,,,,,,,,,,,,,,,,,,,,,,,,,,,,,,,,,,
,,,,,,,,2023-08-16_08h50.08.352,HF_wild_card,2022.2.4,Win32,64.41638753,576b0cc76aed2e0001705386,64d2fd46c836a06233681665,64dc7f4eb4214cff76e6c11c,,,,,,,sngl,resources/DG.BMP,resources/Empty.png,Door1,-0.302083333,-0.016927083,1,0,0,0.6242,optionLeft,30,2570,2,8,0,8,0,1,,,,,,,,,,,,,,,,,,,,,,,,,,,,,,,,,,,,,,,
,,,,,,,,2023-08-16_08h50.08.352,HF_wild_card,2022.2.4,Win32,64.41638753,576b0cc76aed2e0001705386,64d2fd46c836a06233681665,64dc7f4eb4214cff76e6c11c,,,,,,,decisionTrl,resources/DY.BMP,resources/DB.BMP,WildCard_NonEx,0.33984375,0.01171875,1,0,0,0.4422,optionRight,55,2625,2,9,0,9,0,1,,,,,,,,,,,,,,,,,,,,,,,,,,,,,,,,,,,,,,,
,,,,,,,,2023-08-16_08h50.08.352,HF_wild_card,2022.2.4,Win32,64.41638753,576b0cc76aed2e0001705386,64d2fd46c836a06233681665,64dc7f4eb4214cff76e6c11c,,,,,,,decisionTrl,resources/DY.BMP,resources/DBN.BMP,Door3,-0.286458333,0.05078125,1,0,0,0.4072,optionLeft,70,2695,2,10,0,10,0,1,,,,,,,,,,,,,,,,,,,,,,,,,,,,,,,,,,,,,,,
,,,,,,,,2023-08-16_08h50.08.352,HF_wild_card,2022.2.4,Win32,64.41638753,576b0cc76aed2e0001705386,64d2fd46c836a06233681665,64dc7f4eb4214cff76e6c11c,,,,,,,sngl,resources/Empty.png,resources/DG.BMP,Door1,0.264322917,-0.03515625,1,0,0,0.376,optionRight,30,2725,2,11,0,11,0,1,,,,,,,,,,,,,,,,,,,,,,,,,,,,,,,,,,,,,,,
,,,,,,,,2023-08-16_08h50.08.352,HF_wild_card,2022.2.4,Win32,64.41638753,576b0cc76aed2e0001705386,64d2fd46c836a06233681665,64dc7f4eb4214cff76e6c11c,,,,,,,sngl,resources/DP.BMP,resources/Empty.png,Door2,-0.231770833,-0.015625,1,0,0,0.3659,optionLeft,20,2745,2,12,0,12,0,1,,,,,,,,,,,,,,,,,,,,,,,,,,,,,,,,,,,,,,,
,,,,,,,,2023-08-16_08h50.08.352,HF_wild_card,2022.2.4,Win32,64.41638753,576b0cc76aed2e0001705386,64d2fd46c836a06233681665,64dc7f4eb4214cff76e6c11c,,,,,,,decisionTrl,resources/DP.BMP,resources/DG.BMP,Door2,-0.248697917,-0.037760417,1,0,0,0.3653,optionLeft,40,2785,2,13,0,13,0,1,,,,,,,,,,,,,,,,,,,,,,,,,,,,,,,,,,,,,,,
,,,,,,,,2023-08-16_08h50.08.352,HF_wild_card,2022.2.4,Win32,64.41638753,576b0cc76aed2e0001705386,64d2fd46c836a06233681665,64dc7f4eb4214cff76e6c11c,,,,,,,decisionTrl,resources/DBN.BMP,resources/DY.BMP,Door3,0.359375,-0.057291667,1,0,0,0.3754,optionRight,70,2855,2,14,0,14,0,1,,,,,,,,,,,,,,,,,,,,,,,,,,,,,,,,,,,,,,,
,,,,,,,,2023-08-16_08h50.08.352,HF_wild_card,2022.2.4,Win32,64.41638753,576b0cc76aed2e0001705386,64d2fd46c836a06233681665,64dc7f4eb4214cff76e6c11c,,,,,,,ctch,resources/DY.BMP,resources/DP.BMP,Door3,-0.248697917,0.006510417,1,0,0,0.4423,optionLeft,70,2925,2,15,0,15,0,1,,,,,,,,,,,,,,,,,,,,,,,,,,,,,,,,,,,,,,,
,,,,,,,,2023-08-16_08h50.08.352,HF_wild_card,2022.2.4,Win32,64.41638753,576b0cc76aed2e0001705386,64d2fd46c836a06233681665,64dc7f4eb4214cff76e6c11c,,,,,,,sngl,resources/Empty.png,resources/DY.BMP,Door3,0.302083333,0.005208333,1,0,0,0.5054,optionRight,70,2995,2,16,0,16,0,1,,,,,,,,,,,,,,,,,,,,,,,,,,,,,,,,,,,,,,,
,,,,,,,,2023-08-16_08h50.08.352,HF_wild_card,2022.2.4,Win32,64.41638753,576b0cc76aed2e0001705386,64d2fd46c836a06233681665,64dc7f4eb4214cff76e6c11c,,,,,,,decisionTrl,resources/DG.BMP,resources/DP.BMP,Door2,0.2578125,-0.013020833,1,0,0,0.7755,optionRight,40,3035,2,17,0,17,0,1,,,,,,,,,,,,,,,,,,,,,,,,,,,,,,,,,,,,,,,
,,,,,,,,2023-08-16_08h50.08.352,HF_wild_card,2022.2.4,Win32,64.41638753,576b0cc76aed2e0001705386,64d2fd46c836a06233681665,64dc7f4eb4214cff76e6c11c,,,,,,,sngl,resources/DB.BMP,resources/Empty.png,WildCard_NonEx,-0.298177083,-0.037760417,1,0,0,0.5398,optionLeft,45,3080,2,18,0,18,0,1,,,,,,,,,,,,,,,,,,,,,,,,,,,,,,,,,,,,,,,
,,,,,,,,2023-08-16_08h50.08.352,HF_wild_card,2022.2.4,Win32,64.41638753,576b0cc76aed2e0001705386,64d2fd46c836a06233681665,64dc7f4eb4214cff76e6c11c,,,,,,,decisionTrl,resources/DG.BMP,resources/DB.BMP,Door1,-0.19140625,-0.005208333,1,0,0,0.6569,optionLeft,30,3110,2,19,0,19,0,1,,,,,,,,,,,,,,,,,,,,,,,,,,,,,,,,,,,,,,,
,,,,,,,,2023-08-16_08h50.08.352,HF_wild_card,2022.2.4,Win32,64.41638753,576b0cc76aed2e0001705386,64d2fd46c836a06233681665,64dc7f4eb4214cff76e6c11c,,,,,,,decisionTrl,resources/DBN.BMP,resources/DY.BMP,Door3,0.3984375,0.005208333,1,0,0,0.7443,optionRight,70,3180,2,20,0,20,0,1,,,,,,,,,,,,,,,,,,,,,,,,,,,,,,,,,,,,,,,
,,,,,,,,2023-08-16_08h50.08.352,HF_wild_card,2022.2.4,Win32,64.41638753,576b0cc76aed2e0001705386,64d2fd46c836a06233681665,64dc7f4eb4214cff76e6c11c,,,,,,,sngl,resources/DB.BMP,resources/Empty.png,WildCard_NonEx,-0.227864583,-0.018229167,1,0,0,0.5362,optionLeft,55,3235,2,21,0,21,0,1,,,,,,,,,,,,,,,,,,,,,,,,,,,,,,,,,,,,,,,
,,,,,,,,2023-08-16_08h50.08.352,HF_wild_card,2022.2.4,Win32,64.41638753,576b0cc76aed2e0001705386,64d2fd46c836a06233681665,64dc7f4eb4214cff76e6c11c,,,,,,,decisionTrl,resources/DB.BMP,resources/DP.BMP,Door2,0.263020833,-0.00390625,1,0,0,0.6124,optionRight,40,3275,2,22,0,22,0,1,,,,,,,,,,,,,,,,,,,,,,,,,,,,,,,,,,,,,,,
,,,,,,,,2023-08-16_08h50.08.352,HF_wild_card,2022.2.4,Win32,64.41638753,576b0cc76aed2e0001705386,64d2fd46c836a06233681665,64dc7f4eb4214cff76e6c11c,,,,,,,ctch,resources/DY.BMP,resources/DP.BMP,Door3,-0.302083333,0.01953125,1,0,0,0.6733,optionLeft,70,3345,2,23,0,23,0,1,,,,,,,,,,,,,,,,,,,,,,,,,,,,,,,,,,,,,,,
,,,,,,,,2023-08-16_08h50.08.352,HF_wild_card,2022.2.4,Win32,64.41638753,576b0cc76aed2e0001705386,64d2fd46c836a06233681665,64dc7f4eb4214cff76e6c11c,,,,,,,ctch,resources/DG.BMP,resources/DBN.BMP,Door1,-0.255208333,-0.002604167,1,0,0,0.7353,optionLeft,30,3375,2,24,0,24,0,1,,,,,,,,,,,,,,,,,,,,,,,,,,,,,,,,,,,,,,,
,,,,,,,,2023-08-16_08h50.08.352,HF_wild_card,2022.2.4,Win32,64.41638753,576b0cc76aed2e0001705386,64d2fd46c836a06233681665,64dc7f4eb4214cff76e6c11c,,,,,,,decisionTrl,resources/DBN.BMP,resources/DY.BMP,Door4,-0.255208333,0.010416667,1,0,0,0.5405,optionLeft,60,3435,2,25,0,25,0,1,,,,,,,,,,,,,,,,,,,,,,,,,,,,,,,,,,,,,,,
,,,,,,,,2023-08-16_08h50.08.352,HF_wild_card,2022.2.4,Win32,64.41638753,576b0cc76aed2e0001705386,64d2fd46c836a06233681665,64dc7f4eb4214cff76e6c11c,,,,,,,sngl,resources/DY.BMP,resources/Empty.png,Door3,-0.2578125,-0.020833333,1,0,0,0.5985,optionLeft,70,3505,2,26,0,26,0,1,,,,,,,,,,,,,,,,,,,,,,,,,,,,,,,,,,,,,,,
,,,,,,,,2023-08-16_08h50.08.352,HF_wild_card,2022.2.4,Win32,64.41638753,576b0cc76aed2e0001705386,64d2fd46c836a06233681665,64dc7f4eb4214cff76e6c11c,,,,,,,decisionTrl,resources/DB.BMP,resources/DY.BMP,Door3,0.3203125,-0.001302083,1,0,0,0.5131,optionRight,70,3575,2,27,0,27,0,1,,,,,,,,,,,,,,,,,,,,,,,,,,,,,,,,,,,,,,,
,,,,,,,,2023-08-16_08h50.08.352,HF_wild_card,2022.2.4,Win32,64.41638753,576b0cc76aed2e0001705386,64d2fd46c836a06233681665,64dc7f4eb4214cff76e6c11c,,,,,,,ctch,resources/DBN.BMP,resources/DG.BMP,Door1,0.325520833,0.001302083,1,0,0,0.669,optionRight,30,3605,2,28,0,28,0,1,,,,,,,,,,,,,,,,,,,,,,,,,,,,,,,,,,,,,,,
,,,,,,,,2023-08-16_08h50.08.352,HF_wild_card,2022.2.4,Win32,64.41638753,576b0cc76aed2e0001705386,64d2fd46c836a06233681665,64dc7f4eb4214cff76e6c11c,,,,,,,ctch,resources/DP.BMP,resources/DY.BMP,Door3,0.393229167,0.014322917,1,0,0,0.6193,optionRight,70,3675,2,29,0,29,0,1,,,,,,,,,,,,,,,,,,,,,,,,,,,,,,,,,,,,,,,
,,,,,,,,2023-08-16_08h50.08.352,HF_wild_card,2022.2.4,Win32,64.41638753,576b0cc76aed2e0001705386,64d2fd46c836a06233681665,64dc7f4eb4214cff76e6c11c,,,,,,,decisionTrl,resources/DP.BMP,resources/DG.BMP,Door1,0.23828125,0.03125,1,0,0,1.3642,optionRight,30,3705,2,30,0,30,0,1,,,,,,,,,,,,,,,,,,,,,,,,,,,,,,,,,,,,,,,
,,,,,,,,2023-08-16_08h50.08.352,HF_wild_card,2022.2.4,Win32,64.41638753,576b0cc76aed2e0001705386,64d2fd46c836a06233681665,64dc7f4eb4214cff76e6c11c,,,,,,,decisionTrl,resources/DBN.BMP,resources/DY.BMP,Door3,0.33984375,0.022135417,1,0,0,0.6836,optionRight,70,3775,2,31,0,31,0,1,,,,,,,,,,,,,,,,,,,,,,,,,,,,,,,,,,,,,,,
,,,,,,,,2023-08-16_08h50.08.352,HF_wild_card,2022.2.4,Win32,64.41638753,576b0cc76aed2e0001705386,64d2fd46c836a06233681665,64dc7f4eb4214cff76e6c11c,,,,,,,decisionTrl,resources/DB.BMP,resources/DBN.BMP,WildCard_NonEx,-0.26171875,0.002604167,1,0,0,0.5861,optionLeft,45,3820,2,32,0,32,0,1,,,,,,,,,,,,,,,,,,,,,,,,,,,,,,,,,,,,,,,
,,,,,,,,2023-08-16_08h50.08.352,HF_wild_card,2022.2.4,Win32,64.41638753,576b0cc76aed2e0001705386,64d2fd46c836a06233681665,64dc7f4eb4214cff76e6c11c,,,,,,,decisionTrl,resources/DP.BMP,resources/DB.BMP,Door2,-0.3359375,-0.015625,1,0,0,0.8419,optionLeft,20,3840,2,33,0,33,0,1,,,,,,,,,,,,,,,,,,,,,,,,,,,,,,,,,,,,,,,
,,,,,,,,2023-08-16_08h50.08.352,HF_wild_card,2022.2.4,Win32,64.41638753,576b0cc76aed2e0001705386,64d2fd46c836a06233681665,64dc7f4eb4214cff76e6c11c,,,,,,,ctch,resources/DG.BMP,resources/DBN.BMP,Door1,-0.23046875,-0.0234375,1,0,0,0.6556,optionLeft,30,3870,2,34,0,34,0,1,,,,,,,,,,,,,,,,,,,,,,,,,,,,,,,,,,,,,,,
,,,,,,,,2023-08-16_08h50.08.352,HF_wild_card,2022.2.4,Win32,64.41638753,576b0cc76aed2e0001705386,64d2fd46c836a06233681665,64dc7f4eb4214cff76e6c11c,,,,,,,decisionTrl,resources/DY.BMP,resources/DBN.BMP,Door4,0.251302083,-0.002604167,1,0,0,0.5884,optionRight,60,3930,2,35,0,35,0,1,,,,,,,,,,,,,,,,,,,,,,,,,,,,,,,,,,,,,,,
,,,,,,,,2023-08-16_08h50.08.352,HF_wild_card,2022.2.4,Win32,64.41638753,576b0cc76aed2e0001705386,64d2fd46c836a06233681665,64dc7f4eb4214cff76e6c11c,,,,,,,decisionTrl,resources/DP.BMP,resources/DG.BMP,Door2,-0.260416667,-0.001302083,1,0,0,0.6428,optionLeft,40,3970,2,36,0,36,0,1,,,,,,,,,,,,,,,,,,,,,,,,,,,,,,,,,,,,,,,
,,,,,,,,2023-08-16_08h50.08.352,HF_wild_card,2022.2.4,Win32,64.41638753,576b0cc76aed2e0001705386,64d2fd46c836a06233681665,64dc7f4eb4214cff76e6c11c,,,,,,,decisionTrl,resources/DG.BMP,resources/DP.BMP,Door2,0.319010417,0.028645833,1,0,0,0.7081,optionRight,40,4010,2,37,0,37,0,1,,,,,,,,,,,,,,,,,,,,,,,,,,,,,,,,,,,,,,,
,,,,,,,,2023-08-16_08h50.08.352,HF_wild_card,2022.2.4,Win32,64.41638753,576b0cc76aed2e0001705386,64d2fd46c836a06233681665,64dc7f4eb4214cff76e6c11c,,,,,,,decisionTrl,resources/DG.BMP,resources/DP.BMP,Door1,-0.26953125,-0.0078125,1,0,0,0.6007,optionLeft,30,4040,2,38,0,38,0,1,,,,,,,,,,,,,,,,,,,,,,,,,,,,,,,,,,,,,,,
,,,,,,,,2023-08-16_08h50.08.352,HF_wild_card,2022.2.4,Win32,64.41638753,576b0cc76aed2e0001705386,64d2fd46c836a06233681665,64dc7f4eb4214cff76e6c11c,,,,,,,sngl,resources/Empty.png,resources/DB.BMP,WildCard_NonEx,0.299479167,0.0234375,1,0,0,0.5115,optionRight,45,4085,2,39,0,39,0,1,,,,,,,,,,,,,,,,,,,,,,,,,,,,,,,,,,,,,,,
,,,,,,,,2023-08-16_08h50.08.352,HF_wild_card,2022.2.4,Win32,64.41638753,576b0cc76aed2e0001705386,64d2fd46c836a06233681665,64dc7f4eb4214cff76e6c11c,,,,,,,sngl,resources/Empty.png,resources/DBN.BMP,Door4,0.3125,0.014322917,1,0,0,0.763,optionRight,80,4165,2,40,0,40,0,1,,,,,,,,,,,,,,,,,,,,,,,,,,,,,,,,,,,,,,,
,,,,,,,,2023-08-16_08h50.08.352,HF_wild_card,2022.2.4,Win32,64.41638753,576b0cc76aed2e0001705386,64d2fd46c836a06233681665,64dc7f4eb4214cff76e6c11c,,,,,,,decisionTrl,resources/DBN.BMP,resources/DB.BMP,Door4,-0.385416667,0.03125,1,0,0,0.6142,optionLeft,60,4225,2,41,0,41,0,1,,,,,,,,,,,,,,,,,,,,,,,,,,,,,,,,,,,,,,,
,,,,,,,,2023-08-16_08h50.08.352,HF_wild_card,2022.2.4,Win32,64.41638753,576b0cc76aed2e0001705386,64d2fd46c836a06233681665,64dc7f4eb4214cff76e6c11c,,,,,,,decisionTrl,resources/DY.BMP,resources/DBN.BMP,Door3,-0.35546875,-0.013020833,1,0,0,0.5155,optionLeft,70,4295,2,42,0,42,0,1,,,,,,,,,,,,,,,,,,,,,,,,,,,,,,,,,,,,,,,
,,,,,,,,2023-08-16_08h50.08.352,HF_wild_card,2022.2.4,Win32,64.41638753,576b0cc76aed2e0001705386,64d2fd46c836a06233681665,64dc7f4eb4214cff76e6c11c,,,,,,,decisionTrl,resources/DB.BMP,resources/DG.BMP,WildCard_NonEx,-0.251302083,-0.046875,1,0,0,0.6118,optionLeft,45,4340,2,43,0,43,0,1,,,,,,,,,,,,,,,,,,,,,,,,,,,,,,,,,,,,,,,
,,,,,,,,2023-08-16_08h50.08.352,HF_wild_card,2022.2.4,Win32,64.41638753,576b0cc76aed2e0001705386,64d2fd46c836a06233681665,64dc7f4eb4214cff76e6c11c,,,,,,,,,,,,,,,,,,,,,,,,,,1,0,1,0,1,,,,,,,,,,,,,,,,,,,,,,,,,,,,,,,,,,
,,,,,,,,2023-08-16_08h50.08.352,HF_wild_card,2022.2.4,Win32,64.41638753,576b0cc76aed2e0001705386,64d2fd46c836a06233681665,64dc7f4eb4214cff76e6c11c,,,,,,,decisionTrl,resources/DP.BMP,resources/DG.BMP,Door2,-0.244791667,-0.078125,1,0,0,0.8392,optionLeft,20,4360,3,0,0,0,0,1,,,,,,,,,,,,,,,,,,,,,,,,,,,,,,,,,,,,,,,
,,,,,,,,2023-08-16_08h50.08.352,HF_wild_card,2022.2.4,Win32,64.41638753,576b0cc76aed2e0001705386,64d2fd46c836a06233681665,64dc7f4eb4214cff76e6c11c,,,,,,,sngl,resources/Empty.png,resources/DP.BMP,Door2,0.28515625,-0.006510417,1,0,0,0.5054,optionRight,20,4380,3,1,0,1,0,1,,,,,,,,,,,,,,,,,,,,,,,,,,,,,,,,,,,,,,,
,,,,,,,,2023-08-16_08h50.08.352,HF_wild_card,2022.2.4,Win32,64.41638753,576b0cc76aed2e0001705386,64d2fd46c836a06233681665,64dc7f4eb4214cff76e6c11c,,,,,,,decisionTrl,resources/DY.BMP,resources/DBN.BMP,Door3,-0.276041667,0.015625,1,0,0,0.4768,optionLeft,70,4450,3,2,0,2,0,1,,,,,,,,,,,,,,,,,,,,,,,,,,,,,,,,,,,,,,,
,,,,,,,,2023-08-16_08h50.08.352,HF_wild_card,2022.2.4,Win32,64.41638753,576b0cc76aed2e0001705386,64d2fd46c836a06233681665,64dc7f4eb4214cff76e6c11c,,,,,,,decisionTrl,resources/DBN.BMP,resources/DY.BMP,Door3,0.291666667,-0.001302083,1,0,0,0.5093,optionRight,70,4520,3,3,0,3,0,1,,,,,,,,,,,,,,,,,,,,,,,,,,,,,,,,,,,,,,,
,,,,,,,,2023-08-16_08h50.08.352,HF_wild_card,2022.2.4,Win32,64.41638753,576b0cc76aed2e0001705386,64d2fd46c836a06233681665,64dc7f4eb4214cff76e6c11c,,,,,,,sngl,resources/Empty.png,resources/DG.BMP,Door1,0.248697917,0.048177083,1,0,0,0.5489,optionRight,30,4550,3,4,0,4,0,1,,,,,,,,,,,,,,,,,,,,,,,,,,,,,,,,,,,,,,,
,,,,,,,,2023-08-16_08h50.08.352,HF_wild_card,2022.2.4,Win32,64.41638753,576b0cc76aed2e0001705386,64d2fd46c836a06233681665,64dc7f4eb4214cff76e6c11c,,,,,,,decisionTrl,resources/DB.BMP,resources/DP.BMP,Door2,0.419270833,-0.041666667,1,0,0,0.8908,optionRight,40,4590,3,5,0,5,0,1,,,,,,,,,,,,,,,,,,,,,,,,,,,,,,,,,,,,,,,
,,,,,,,,2023-08-16_08h50.08.352,HF_wild_card,2022.2.4,Win32,64.41638753,576b0cc76aed2e0001705386,64d2fd46c836a06233681665,64dc7f4eb4214cff76e6c11c,,,,,,,decisionTrl,resources/DP.BMP,resources/DB.BMP,WildCard_NonEx,0.28125,0.01171875,1,0,0,0.6506,optionRight,55,4645,3,6,0,6,0,1,,,,,,,,,,,,,,,,,,,,,,,,,,,,,,,,,,,,,,,
,,,,,,,,2023-08-16_08h50.08.352,HF_wild_card,2022.2.4,Win32,64.41638753,576b0cc76aed2e0001705386,64d2fd46c836a06233681665,64dc7f4eb4214cff76e6c11c,,,,,,,decisionTrl,resources/DB.BMP,resources/DY.BMP,Door3,0.337239583,0.0078125,1,0,0,0.5825,optionRight,70,4715,3,7,0,7,0,1,,,,,,,,,,,,,,,,,,,,,,,,,,,,,,,,,,,,,,,
,,,,,,,,2023-08-16_08h50.08.352,HF_wild_card,2022.2.4,Win32,64.41638753,576b0cc76aed2e0001705386,64d2fd46c836a06233681665,64dc7f4eb4214cff76e6c11c,,,,,,,decisionTrl,resources/DY.BMP,resources/DB.BMP,Door3,-0.28125,0.006510417,1,0,0,0.4846,optionLeft,70,4785,3,8,0,8,0,1,,,,,,,,,,,,,,,,,,,,,,,,,,,,,,,,,,,,,,,
,,,,,,,,2023-08-16_08h50.08.352,HF_wild_card,2022.2.4,Win32,64.41638753,576b0cc76aed2e0001705386,64d2fd46c836a06233681665,64dc7f4eb4214cff76e6c11c,,,,,,,ctch,resources/DY.BMP,resources/DP.BMP,Door3,-0.330729167,-0.001302083,1,0,0,0.509,optionLeft,70,4855,3,9,0,9,0,1,,,,,,,,,,,,,,,,,,,,,,,,,,,,,,,,,,,,,,,
,,,,,,,,2023-08-16_08h50.08.352,HF_wild_card,2022.2.4,Win32,64.41638753,576b0cc76aed2e0001705386,64d2fd46c836a06233681665,64dc7f4eb4214cff76e6c11c,,,,,,,decisionTrl,resources/DB.BMP,resources/DG.BMP,WildCard_NonEx,-0.282552083,-0.052083333,1,0,0,0.9419,optionLeft,45,4900,3,10,0,10,0,1,,,,,,,,,,,,,,,,,,,,,,,,,,,,,,,,,,,,,,,
,,,,,,,,2023-08-16_08h50.08.352,HF_wild_card,2022.2.4,Win32,64.41638753,576b0cc76aed2e0001705386,64d2fd46c836a06233681665,64dc7f4eb4214cff76e6c11c,,,,,,,decisionTrl,resources/DBN.BMP,resources/DY.BMP,Door3,0.361979167,-0.002604167,1,0,0,0.5574,optionRight,70,4970,3,11,0,11,0,1,,,,,,,,,,,,,,,,,,,,,,,,,,,,,,,,,,,,,,,
,,,,,,,,2023-08-16_08h50.08.352,HF_wild_card,2022.2.4,Win32,64.41638753,576b0cc76aed2e0001705386,64d2fd46c836a06233681665,64dc7f4eb4214cff76e6c11c,,,,,,,sngl,resources/DY.BMP,resources/Empty.png,Door3,-0.298177083,-0.013020833,1,0,0,0.4948,optionLeft,70,5040,3,12,0,12,0,1,,,,,,,,,,,,,,,,,,,,,,,,,,,,,,,,,,,,,,,
,,,,,,,,2023-08-16_08h50.08.352,HF_wild_card,2022.2.4,Win32,64.41638753,576b0cc76aed2e0001705386,64d2fd46c836a06233681665,64dc7f4eb4214cff76e6c11c,,,,,,,sngl,resources/DBN.BMP,resources/Empty.png,Door4,-0.276041667,0.001302083,1,0,0,0.5494,optionLeft,80,5120,3,13,0,13,0,1,,,,,,,,,,,,,,,,,,,,,,,,,,,,,,,,,,,,,,,
,,,,,,,,2023-08-16_08h50.08.352,HF_wild_card,2022.2.4,Win32,64.41638753,576b0cc76aed2e0001705386,64d2fd46c836a06233681665,64dc7f4eb4214cff76e6c11c,,,,,,,ctch,resources/DBN.BMP,resources/DG.BMP,Door4,-0.27734375,0,1,0,0,0.6433,optionLeft,80,5200,3,14,0,14,0,1,,,,,,,,,,,,,,,,,,,,,,,,,,,,,,,,,,,,,,,
,,,,,,,,2023-08-16_08h50.08.352,HF_wild_card,2022.2.4,Win32,64.41638753,576b0cc76aed2e0001705386,64d2fd46c836a06233681665,64dc7f4eb4214cff76e6c11c,,,,,,,decisionTrl,resources/DBN.BMP,resources/DY.BMP,Door3,0.444010417,-0.009114583,1,0,0,0.5541,optionRight,70,5270,3,15,0,15,0,1,,,,,,,,,,,,,,,,,,,,,,,,,,,,,,,,,,,,,,,
,,,,,,,,2023-08-16_08h50.08.352,HF_wild_card,2022.2.4,Win32,64.41638753,576b0cc76aed2e0001705386,64d2fd46c836a06233681665,64dc7f4eb4214cff76e6c11c,,,,,,,sngl,resources/DP.BMP,resources/Empty.png,Door2,-0.220052083,0.010416667,1,0,0,0.5515,optionLeft,40,5310,3,16,0,16,0,1,,,,,,,,,,,,,,,,,,,,,,,,,,,,,,,,,,,,,,,
,,,,,,,,2023-08-16_08h50.08.352,HF_wild_card,2022.2.4,Win32,64.41638753,576b0cc76aed2e0001705386,64d2fd46c836a06233681665,64dc7f4eb4214cff76e6c11c,,,,,,,decisionTrl,resources/DG.BMP,resources/DP.BMP,Door2,0.296875,-0.010416667,1,0,0,0.8959,optionRight,20,5330,3,17,0,17,0,1,,,,,,,,,,,,,,,,,,,,,,,,,,,,,,,,,,,,,,,
,,,,,,,,2023-08-16_08h50.08.352,HF_wild_card,2022.2.4,Win32,64.41638753,576b0cc76aed2e0001705386,64d2fd46c836a06233681665,64dc7f4eb4214cff76e6c11c,,,,,,,decisionTrl,resources/DY.BMP,resources/DBN.BMP,Door3,-0.236979167,0.006510417,1,0,0,0.7082,optionLeft,70,5400,3,18,0,18,0,1,,,,,,,,,,,,,,,,,,,,,,,,,,,,,,,,,,,,,,,
,,,,,,,,2023-08-16_08h50.08.352,HF_wild_card,2022.2.4,Win32,64.41638753,576b0cc76aed2e0001705386,64d2fd46c836a06233681665,64dc7f4eb4214cff76e6c11c,,,,,,,decisionTrl,resources/DG.BMP,resources/DP.BMP,Door1,-0.395833333,-0.045572917,1,0,0,1.2868,optionLeft,30,5430,3,19,0,19,0,1,,,,,,,,,,,,,,,,,,,,,,,,,,,,,,,,,,,,,,,
,,,,,,,,2023-08-16_08h50.08.352,HF_wild_card,2022.2.4,Win32,64.41638753,576b0cc76aed2e0001705386,64d2fd46c836a06233681665,64dc7f4eb4214cff76e6c11c,,,,,,,decisionTrl,resources/DG.BMP,resources/DP.BMP,Door2,0.3046875,-0.02734375,1,0,0,0.7212,optionRight,40,5470,3,20,0,20,0,1,,,,,,,,,,,,,,,,,,,,,,,,,,,,,,,,,,,,,,,
,,,,,,,,2023-08-16_08h50.08.352,HF_wild_card,2022.2.4,Win32,64.41638753,576b0cc76aed2e0001705386,64d2fd46c836a06233681665,64dc7f4eb4214cff76e6c11c,,,,,,,sngl,resources/Empty.png,resources/DBN.BMP,Door4,0.2578125,0.0078125,1,0,0,0.5757,optionRight,60,5530,3,21,0,21,0,1,,,,,,,,,,,,,,,,,,,,,,,,,,,,,,,,,,,,,,,
,,,,,,,,2023-08-16_08h50.08.352,HF_wild_card,2022.2.4,Win32,64.41638753,576b0cc76aed2e0001705386,64d2fd46c836a06233681665,64dc7f4eb4214cff76e6c11c,,,,,,,decisionTrl,resources/DP.BMP,resources/DG.BMP,Door1,0.381510417,-0.005208333,1,0,0,0.8479,optionRight,30,5560,3,22,0,22,0,1,,,,,,,,,,,,,,,,,,,,,,,,,,,,,,,,,,,,,,,
,,,,,,,,2023-08-16_08h50.08.352,HF_wild_card,2022.2.4,Win32,64.41638753,576b0cc76aed2e0001705386,64d2fd46c836a06233681665,64dc7f4eb4214cff76e6c11c,,,,,,,decisionTrl,resources/DG.BMP,resources/DP.BMP,Door1,-0.408854167,0.0078125,1,0,0,0.9407,optionLeft,30,5590,3,23,0,23,0,1,,,,,,,,,,,,,,,,,,,,,,,,,,,,,,,,,,,,,,,
,,,,,,,,2023-08-16_08h50.08.352,HF_wild_card,2022.2.4,Win32,64.41638753,576b0cc76aed2e0001705386,64d2fd46c836a06233681665,64dc7f4eb4214cff76e6c11c,,,,,,,sngl,resources/DB.BMP,resources/Empty.png,WildCard_NonEx,-0.2265625,0.002604167,1,0,0,0.5736,optionLeft,45,5635,3,24,0,24,0,1,,,,,,,,,,,,,,,,,,,,,,,,,,,,,,,,,,,,,,,
,,,,,,,,2023-08-16_08h50.08.352,HF_wild_card,2022.2.4,Win32,64.41638753,576b0cc76aed2e0001705386,64d2fd46c836a06233681665,64dc7f4eb4214cff76e6c11c,,,,,,,ctch,resources/DG.BMP,resources/DBN.BMP,Door4,0.317708333,0.01171875,1,0,0,0.885,optionRight,80,5715,3,25,0,25,0,1,,,,,,,,,,,,,,,,,,,,,,,,,,,,,,,,,,,,,,,
,,,,,,,,2023-08-16_08h50.08.352,HF_wild_card,2022.2.4,Win32,64.41638753,576b0cc76aed2e0001705386,64d2fd46c836a06233681665,64dc7f4eb4214cff76e6c11c,,,,,,,ctch,resources/DBN.BMP,resources/DG.BMP,Door4,-0.359375,-0.001302083,1,0,0,0.5366,optionLeft,80,5795,3,26,0,26,0,1,,,,,,,,,,,,,,,,,,,,,,,,,,,,,,,,,,,,,,,
,,,,,,,,2023-08-16_08h50.08.352,HF_wild_card,2022.2.4,Win32,64.41638753,576b0cc76aed2e0001705386,64d2fd46c836a06233681665,64dc7f4eb4214cff76e6c11c,,,,,,,ctch,resources/DP.BMP,resources/DY.BMP,Door3,0.31640625,0.015625,1,0,0,0.6525,optionRight,70,5865,3,27,0,27,0,1,,,,,,,,,,,,,,,,,,,,,,,,,,,,,,,,,,,,,,,
,,,,,,,,2023-08-16_08h50.08.352,HF_wild_card,2022.2.4,Win32,64.41638753,576b0cc76aed2e0001705386,64d2fd46c836a06233681665,64dc7f4eb4214cff76e6c11c,,,,,,,decisionTrl,resources/DP.BMP,resources/DG.BMP,Door1,0.2890625,-0.009114583,1,0,0,1.0116,optionRight,30,5895,3,28,0,28,0,1,,,,,,,,,,,,,,,,,,,,,,,,,,,,,,,,,,,,,,,
,,,,,,,,2023-08-16_08h50.08.352,HF_wild_card,2022.2.4,Win32,64.41638753,576b0cc76aed2e0001705386,64d2fd46c836a06233681665,64dc7f4eb4214cff76e6c11c,,,,,,,decisionTrl,resources/DB.BMP,resources/DBN.BMP,Door4,0.40625,-0.0390625,1,0,0,0.6971,optionRight,60,5955,3,29,0,29,0,1,,,,,,,,,,,,,,,,,,,,,,,,,,,,,,,,,,,,,,,
,,,,,,,,2023-08-16_08h50.08.352,HF_wild_card,2022.2.4,Win32,64.41638753,576b0cc76aed2e0001705386,64d2fd46c836a06233681665,64dc7f4eb4214cff76e6c11c,,,,,,,sngl,resources/DG.BMP,resources/Empty.png,Door1,-0.268229167,-0.002604167,1,0,0,0.5434,optionLeft,30,5985,3,30,0,30,0,1,,,,,,,,,,,,,,,,,,,,,,,,,,,,,,,,,,,,,,,
,,,,,,,,2023-08-16_08h50.08.352,HF_wild_card,2022.2.4,Win32,64.41638753,576b0cc76aed2e0001705386,64d2fd46c836a06233681665,64dc7f4eb4214cff76e6c11c,,,,,,,sngl,resources/Empty.png,resources/DB.BMP,WildCard_NonEx,0.333333333,0.001302083,1,0,0,0.5618,optionRight,45,6030,3,31,0,31,0,1,,,,,,,,,,,,,,,,,,,,,,,,,,,,,,,,,,,,,,,
,,,,,,,,2023-08-16_08h50.08.352,HF_wild_card,2022.2.4,Win32,64.41638753,576b0cc76aed2e0001705386,64d2fd46c836a06233681665,64dc7f4eb4214cff76e6c11c,,,,,,,decisionTrl,resources/DY.BMP,resources/DBN.BMP,Door3,-0.358072917,0.005208333,1,0,0,0.4678,optionLeft,70,6100,3,32,0,32,0,1,,,,,,,,,,,,,,,,,,,,,,,,,,,,,,,,,,,,,,,
,,,,,,,,2023-08-16_08h50.08.352,HF_wild_card,2022.2.4,Win32,64.41638753,576b0cc76aed2e0001705386,64d2fd46c836a06233681665,64dc7f4eb4214cff76e6c11c,,,,,,,decisionTrl,resources/DY.BMP,resources/DBN.BMP,Door3,-0.234375,0.002604167,1,0,0,0.6141,optionLeft,70,6170,3,33,0,33,0,1,,,,,,,,,,,,,,,,,,,,,,,,,,,,,,,,,,,,,,,
,,,,,,,,2023-08-16_08h50.08.352,HF_wild_card,2022.2.4,Win32,64.41638753,576b0cc76aed2e0001705386,64d2fd46c836a06233681665,64dc7f4eb4214cff76e6c11c,,,,,,,ctch,resources/DP.BMP,resources/DY.BMP,Door3,0.286458333,0,1,0,0,0.581,optionRight,70,6240,3,34,0,34,0,1,,,,,,,,,,,,,,,,,,,,,,,,,,,,,,,,,,,,,,,
,,,,,,,,2023-08-16_08h50.08.352,HF_wild_card,2022.2.4,Win32,64.41638753,576b0cc76aed2e0001705386,64d2fd46c836a06233681665,64dc7f4eb4214cff76e6c11c,,,,,,,ctch,resources/DY.BMP,resources/DP.BMP,Door3,-0.294270833,0.002604167,1,0,0,0.4984,optionLeft,70,6310,3,35,0,35,0,1,,,,,,,,,,,,,,,,,,,,,,,,,,,,,,,,,,,,,,,
,,,,,,,,2023-08-16_08h50.08.352,HF_wild_card,2022.2.4,Win32,64.41638753,576b0cc76aed2e0001705386,64d2fd46c836a06233681665,64dc7f4eb4214cff76e6c11c,,,,,,,decisionTrl,resources/DBN.BMP,resources/DY.BMP,Door3,0.251302083,-0.006510417,1,0,0,0.5364,optionRight,70,6380,3,36,0,36,0,1,,,,,,,,,,,,,,,,,,,,,,,,,,,,,,,,,,,,,,,
,,,,,,,,2023-08-16_08h50.08.352,HF_wild_card,2022.2.4,Win32,64.41638753,576b0cc76aed2e0001705386,64d2fd46c836a06233681665,64dc7f4eb4214cff76e6c11c,,,,,,,sngl,resources/Empty.png,resources/DY.BMP,Door3,0.244791667,0.03515625,1,0,0,0.6086,optionRight,70,6450,3,37,0,37,0,1,,,,,,,,,,,,,,,,,,,,,,,,,,,,,,,,,,,,,,,
,,,,,,,,2023-08-16_08h50.08.352,HF_wild_card,2022.2.4,Win32,64.41638753,576b0cc76aed2e0001705386,64d2fd46c836a06233681665,64dc7f4eb4214cff76e6c11c,,,,,,,sngl,resources/DB.BMP,resources/Empty.png,WildCard_NonEx,-0.2890625,0.015625,1,0,0,0.518,optionLeft,55,6505,3,38,0,38,0,1,,,,,,,,,,,,,,,,,,,,,,,,,,,,,,,,,,,,,,,
,,,,,,,,2023-08-16_08h50.08.352,HF_wild_card,2022.2.4,Win32,64.41638753,576b0cc76aed2e0001705386,64d2fd46c836a06233681665,64dc7f4eb4214cff76e6c11c,,,,,,,ctch,resources/DG.BMP,resources/DBN.BMP,Door4,0.223958333,0,1,0,0,0.7718,optionRight,60,6565,3,39,0,39,0,1,,,,,,,,,,,,,,,,,,,,,,,,,,,,,,,,,,,,,,,
,,,,,,,,2023-08-16_08h50.08.352,HF_wild_card,2022.2.4,Win32,64.41638753,576b0cc76aed2e0001705386,64d2fd46c836a06233681665,64dc7f4eb4214cff76e6c11c,,,,,,,sngl,resources/Empty.png,resources/DB.BMP,WildCard_NonEx,0.23828125,0.0078125,1,0,0,0.6576,optionRight,55,6620,3,40,0,40,0,1,,,,,,,,,,,,,,,,,,,,,,,,,,,,,,,,,,,,,,,
,,,,,,,,2023-08-16_08h50.08.352,HF_wild_card,2022.2.4,Win32,64.41638753,576b0cc76aed2e0001705386,64d2fd46c836a06233681665,64dc7f4eb4214cff76e6c11c,,,,,,,decisionTrl,resources/DG.BMP,resources/DB.BMP,WildCard_NonEx,0.286458333,-0.048177083,1,0,0,0.7994,optionRight,45,6665,3,41,0,41,0,1,,,,,,,,,,,,,,,,,,,,,,,,,,,,,,,,,,,,,,,
,,,,,,,,2023-08-16_08h50.08.352,HF_wild_card,2022.2.4,Win32,64.41638753,576b0cc76aed2e0001705386,64d2fd46c836a06233681665,64dc7f4eb4214cff76e6c11c,,,,,,,decisionTrl,resources/DBN.BMP,resources/DB.BMP,Door4,-0.415364583,0.00390625,1,0,0,0.7687,optionLeft,60,6725,3,42,0,42,0,1,,,,,,,,,,,,,,,,,,,,,,,,,,,,,,,,,,,,,,,
,,,,,,,,2023-08-16_08h50.08.352,HF_wild_card,2022.2.4,Win32,64.41638753,576b0cc76aed2e0001705386,64d2fd46c836a06233681665,64dc7f4eb4214cff76e6c11c,,,,,,,decisionTrl,resources/DP.BMP,resources/DG.BMP,Door2,-0.27734375,-0.061197917,1,0,0,1.0044,optionLeft,40,6765,3,43,0,43,0,1,,,,,,,,,,,,,,,,,,,,,,,,,,,,,,,,,,,,,,,
,,,,,,,,2023-08-16_08h50.08.352,HF_wild_card,2022.2.4,Win32,64.41638753,576b0cc76aed2e0001705386,64d2fd46c836a06233681665,64dc7f4eb4214cff76e6c11c,,,,,,,,,,,,,,,,,,,,,,,,,,2,0,2,0,1,,,,,,,,,,,,,,,,,,,,,,,,,,,,,,,,,,
,,,,,,,,2023-08-16_08h50.08.352,HF_wild_card,2022.2.4,Win32,64.41638753,576b0cc76aed2e0001705386,64d2fd46c836a06233681665,64dc7f4eb4214cff76e6c11c,,,,,,,decisionTrl,resources/DY.BMP,resources/DBN.BMP,Door3,-0.268229167,-0.1015625,1,0,0,0.652,optionLeft,70,6835,4,0,0,0,0,1,,,,,,,,,,,,,,,,,,,,,,,,,,,,,,,,,,,,,,,
,,,,,,,,2023-08-16_08h50.08.352,HF_wild_card,2022.2.4,Win32,64.41638753,576b0cc76aed2e0001705386,64d2fd46c836a06233681665,64dc7f4eb4214cff76e6c11c,,,,,,,decisionTrl,resources/DR.BMP,resources/DBN.BMP,Door4,0.359375,0.02734375,1,0,0,0.9122,optionRight,60,6895,4,1,0,1,0,1,,,,,,,,,,,,,,,,,,,,,,,,,,,,,,,,,,,,,,,
,,,,,,,,2023-08-16_08h50.08.352,HF_wild_card,2022.2.4,Win32,64.41638753,576b0cc76aed2e0001705386,64d2fd46c836a06233681665,64dc7f4eb4214cff76e6c11c,,,,,,,ctch,resources/DG.BMP,resources/DBN.BMP,Door4,0.291666667,0.01171875,1,0,0,0.795,optionRight,60,6955,4,2,0,2,0,1,,,,,,,,,,,,,,,,,,,,,,,,,,,,,,,,,,,,,,,
,,,,,,,,2023-08-16_08h50.08.352,HF_wild_card,2022.2.4,Win32,64.41638753,576b0cc76aed2e0001705386,64d2fd46c836a06233681665,64dc7f4eb4214cff76e6c11c,,,,,,,sngl,resources/DP.BMP,resources/Empty.png,Door2,-0.22265625,0.006510417,1,0,0,0.5537,optionLeft,20,6975,4,3,0,3,0,1,,,,,,,,,,,,,,,,,,,,,,,,,,,,,,,,,,,,,,,
,,,,,,,,2023-08-16_08h50.08.352,HF_wild_card,2022.2.4,Win32,64.41638753,576b0cc76aed2e0001705386,64d2fd46c836a06233681665,64dc7f4eb4214cff76e6c11c,,,,,,,sngl,resources/DBN.BMP,resources/Empty.png,Door4,-0.27734375,-0.029947917,1,0,0,0.5475,optionLeft,60,7035,4,4,0,4,0,1,,,,,,,,,,,,,,,,,,,,,,,,,,,,,,,,,,,,,,,
,,,,,,,,2023-08-16_08h50.08.352,HF_wild_card,2022.2.4,Win32,64.41638753,576b0cc76aed2e0001705386,64d2fd46c836a06233681665,64dc7f4eb4214cff76e6c11c,,,,,,,decisionTrl,resources/DBN.BMP,resources/DY.BMP,Door3,0.243489583,-0.0078125,1,0,0,0.5649,optionRight,70,7105,4,5,0,5,0,1,,,,,,,,,,,,,,,,,,,,,,,,,,,,,,,,,,,,,,,
,,,,,,,,2023-08-16_08h50.08.352,HF_wild_card,2022.2.4,Win32,64.41638753,576b0cc76aed2e0001705386,64d2fd46c836a06233681665,64dc7f4eb4214cff76e6c11c,,,,,,,ctch,resources/DY.BMP,resources/DP.BMP,Door3,-0.1796875,0.013020833,1,0,0,0.5403,optionLeft,70,7175,4,6,0,6,0,1,,,,,,,,,,,,,,,,,,,,,,,,,,,,,,,,,,,,,,,
,,,,,,,,2023-08-16_08h50.08.352,HF_wild_card,2022.2.4,Win32,64.41638753,576b0cc76aed2e0001705386,64d2fd46c836a06233681665,64dc7f4eb4214cff76e6c11c,,,,,,,decisionTrl,resources/DP.BMP,resources/DG.BMP,Door1,0.31640625,0.022135417,1,0,0,0.7142,optionRight,30,7205,4,7,0,7,0,1,,,,,,,,,,,,,,,,,,,,,,,,,,,,,,,,,,,,,,,
,,,,,,,,2023-08-16_08h50.08.352,HF_wild_card,2022.2.4,Win32,64.41638753,576b0cc76aed2e0001705386,64d2fd46c836a06233681665,64dc7f4eb4214cff76e6c11c,,,,,,,sngl,resources/Empty.png,resources/DY.BMP,Door3,0.311197917,0.032552083,1,0,0,0.5241,optionRight,70,7275,4,8,0,8,0,1,,,,,,,,,,,,,,,,,,,,,,,,,,,,,,,,,,,,,,,
,,,,,,,,2023-08-16_08h50.08.352,HF_wild_card,2022.2.4,Win32,64.41638753,576b0cc76aed2e0001705386,64d2fd46c836a06233681665,64dc7f4eb4214cff76e6c11c,,,,,,,decisionTrl,resources/DP.BMP,resources/DG.BMP,Door1,0.415364583,0.006510417,1,0,0,0.8009,optionRight,30,7305,4,9,0,9,0,1,,,,,,,,,,,,,,,,,,,,,,,,,,,,,,,,,,,,,,,
,,,,,,,,2023-08-16_08h50.08.352,HF_wild_card,2022.2.4,Win32,64.41638753,576b0cc76aed2e0001705386,64d2fd46c836a06233681665,64dc7f4eb4214cff76e6c11c,,,,,,,decisionTrl,resources/DP.BMP,resources/DG.BMP,Door1,0.391927083,0.0078125,1,0,0,0.8658,optionRight,30,7335,4,10,0,10,0,1,,,,,,,,,,,,,,,,,,,,,,,,,,,,,,,,,,,,,,,
,,,,,,,,2023-08-16_08h50.08.352,HF_wild_card,2022.2.4,Win32,64.41638753,576b0cc76aed2e0001705386,64d2fd46c836a06233681665,64dc7f4eb4214cff76e6c11c,,,,,,,decisionTrl,resources/DP.BMP,resources/DG.BMP,Door2,-0.235677083,-0.015625,1,0,0,0.6317,optionLeft,20,7355,4,11,0,11,0,1,,,,,,,,,,,,,,,,,,,,,,,,,,,,,,,,,,,,,,,
,,,,,,,,2023-08-16_08h50.08.352,HF_wild_card,2022.2.4,Win32,64.41638753,576b0cc76aed2e0001705386,64d2fd46c836a06233681665,64dc7f4eb4214cff76e6c11c,,,,,,,sngl,resources/DY.BMP,resources/Empty.png,Door3,-0.345052083,-0.010416667,1,0,0,0.5781,optionLeft,70,7425,4,12,0,12,0,1,,,,,,,,,,,,,,,,,,,,,,,,,,,,,,,,,,,,,,,
,,,,,,,,2023-08-16_08h50.08.352,HF_wild_card,2022.2.4,Win32,64.41638753,576b0cc76aed2e0001705386,64d2fd46c836a06233681665,64dc7f4eb4214cff76e6c11c,,,,,,,decisionTrl,resources/DY.BMP,resources/DR.BMP,Door3,-0.28515625,-0.020833333,1,0,0,0.5344,optionLeft,70,7495,4,13,0,13,0,1,,,,,,,,,,,,,,,,,,,,,,,,,,,,,,,,,,,,,,,
,,,,,,,,2023-08-16_08h50.08.352,HF_wild_card,2022.2.4,Win32,64.41638753,576b0cc76aed2e0001705386,64d2fd46c836a06233681665,64dc7f4eb4214cff76e6c11c,,,,,,,decisionTrl,resources/DY.BMP,resources/DBN.BMP,Door3,-0.299479167,0.009114583,1,0,0,0.5805,optionLeft,70,7565,4,14,0,14,0,1,,,,,,,,,,,,,,,,,,,,,,,,,,,,,,,,,,,,,,,
,,,,,,,,2023-08-16_08h50.08.352,HF_wild_card,2022.2.4,Win32,64.41638753,576b0cc76aed2e0001705386,64d2fd46c836a06233681665,64dc7f4eb4214cff76e6c11c,,,,,,,decisionTrl,resources/DBN.BMP,resources/DY.BMP,Door3,0.329427083,0.018229167,1,0,0,0.6546,optionRight,70,7635,4,15,0,15,0,1,,,,,,,,,,,,,,,,,,,,,,,,,,,,,,,,,,,,,,,
,,,,,,,,2023-08-16_08h50.08.352,HF_wild_card,2022.2.4,Win32,64.41638753,576b0cc76aed2e0001705386,64d2fd46c836a06233681665,64dc7f4eb4214cff76e6c11c,,,,,,,decisionTrl,resources/DBN.BMP,resources/DY.BMP,Door3,0.376302083,0.032552083,1,0,0,0.5556,optionRight,70,7705,4,16,0,16,0,1,,,,,,,,,,,,,,,,,,,,,,,,,,,,,,,,,,,,,,,
,,,,,,,,2023-08-16_08h50.08.352,HF_wild_card,2022.2.4,Win32,64.41638753,576b0cc76aed2e0001705386,64d2fd46c836a06233681665,64dc7f4eb4214cff76e6c11c,,,,,,,decisionTrl,resources/DG.BMP,resources/DP.BMP,Door1,-0.286458333,0.020833333,1,0,0,0.6502,optionLeft,30,7735,4,17,0,17,0,1,,,,,,,,,,,,,,,,,,,,,,,,,,,,,,,,,,,,,,,
,,,,,,,,2023-08-16_08h50.08.352,HF_wild_card,2022.2.4,Win32,64.41638753,576b0cc76aed2e0001705386,64d2fd46c836a06233681665,64dc7f4eb4214cff76e6c11c,,,,,,,decisionTrl,resources/DR.BMP,resources/DG.BMP,WildCard_Ex,-0.2421875,-0.020833333,1,0,0,0.8545,optionLeft,45,7780,4,18,0,18,0,1,,,,,,,,,,,,,,,,,,,,,,,,,,,,,,,,,,,,,,,
,,,,,,,,2023-08-16_08h50.08.352,HF_wild_card,2022.2.4,Win32,64.41638753,576b0cc76aed2e0001705386,64d2fd46c836a06233681665,64dc7f4eb4214cff76e6c11c,,,,,,,decisionTrl,resources/DR.BMP,resources/DP.BMP,Door2,0.303385417,-0.005208333,1,0,0,0.8165,optionRight,40,7820,4,19,0,19,0,1,,,,,,,,,,,,,,,,,,,,,,,,,,,,,,,,,,,,,,,
,,,,,,,,2023-08-16_08h50.08.352,HF_wild_card,2022.2.4,Win32,64.41638753,576b0cc76aed2e0001705386,64d2fd46c836a06233681665,64dc7f4eb4214cff76e6c11c,,,,,,,sngl,resources/Empty.png,resources/DP.BMP,Door2,0.342447917,0.005208333,1,0,0,0.6017,optionRight,40,7860,4,20,0,20,0,1,,,,,,,,,,,,,,,,,,,,,,,,,,,,,,,,,,,,,,,
,,,,,,,,2023-08-16_08h50.08.352,HF_wild_card,2022.2.4,Win32,64.41638753,576b0cc76aed2e0001705386,64d2fd46c836a06233681665,64dc7f4eb4214cff76e6c11c,,,,,,,ctch,resources/DBN.BMP,resources/DG.BMP,Door4,-0.397135417,-0.005208333,1,0,0,0.6709,optionLeft,60,7920,4,21,0,21,0,1,,,,,,,,,,,,,,,,,,,,,,,,,,,,,,,,,,,,,,,
,,,,,,,,2023-08-16_08h50.08.352,HF_wild_card,2022.2.4,Win32,64.41638753,576b0cc76aed2e0001705386,64d2fd46c836a06233681665,64dc7f4eb4214cff76e6c11c,,,,,,,decisionTrl,resources/DG.BMP,resources/DP.BMP,Door2,0.35546875,0.028645833,1,0,0,1.0844,optionRight,40,7960,4,22,0,22,0,1,,,,,,,,,,,,,,,,,,,,,,,,,,,,,,,,,,,,,,,
,,,,,,,,2023-08-16_08h50.08.352,HF_wild_card,2022.2.4,Win32,64.41638753,576b0cc76aed2e0001705386,64d2fd46c836a06233681665,64dc7f4eb4214cff76e6c11c,,,,,,,decisionTrl,resources/DR.BMP,resources/DY.BMP,WildCard_Ex,-0.303385417,0.00390625,1,0,0,0.5483,optionLeft,45,8005,4,23,0,23,0,1,,,,,,,,,,,,,,,,,,,,,,,,,,,,,,,,,,,,,,,
,,,,,,,,2023-08-16_08h50.08.352,HF_wild_card,2022.2.4,Win32,64.41638753,576b0cc76aed2e0001705386,64d2fd46c836a06233681665,64dc7f4eb4214cff76e6c11c,,,,,,,sngl,resources/Empty.png,resources/DBN.BMP,Door4,0.325520833,0.010416667,1,0,0,0.6017,optionRight,80,8085,4,24,0,24,0,1,,,,,,,,,,,,,,,,,,,,,,,,,,,,,,,,,,,,,,,
,,,,,,,,2023-08-16_08h50.08.352,HF_wild_card,2022.2.4,Win32,64.41638753,576b0cc76aed2e0001705386,64d2fd46c836a06233681665,64dc7f4eb4214cff76e6c11c,,,,,,,sngl,resources/Empty.png,resources/DR.BMP,WildCard_Ex,0.334635417,0.036458333,1,0,0,0.6335,optionRight,45,8130,4,25,0,25,0,1,,,,,,,,,,,,,,,,,,,,,,,,,,,,,,,,,,,,,,,
,,,,,,,,2023-08-16_08h50.08.352,HF_wild_card,2022.2.4,Win32,64.41638753,576b0cc76aed2e0001705386,64d2fd46c836a06233681665,64dc7f4eb4214cff76e6c11c,,,,,,,ctch,resources/DG.BMP,resources/DBN.BMP,Door4,0.404947917,0.01953125,1,0,0,0.7683,optionRight,80,8210,4,26,0,26,0,1,,,,,,,,,,,,,,,,,,,,,,,,,,,,,,,,,,,,,,,
,,,,,,,,2023-08-16_08h50.08.352,HF_wild_card,2022.2.4,Win32,64.41638753,576b0cc76aed2e0001705386,64d2fd46c836a06233681665,64dc7f4eb4214cff76e6c11c,,,,,,,sngl,resources/Empty.png,resources/DR.BMP,WildCard_Ex,0.247395833,0.03125,1,0,0,0.5504,optionRight,55,8265,4,27,0,27,0,1,,,,,,,,,,,,,,,,,,,,,,,,,,,,,,,,,,,,,,,
,,,,,,,,2023-08-16_08h50.08.352,HF_wild_card,2022.2.4,Win32,64.41638753,576b0cc76aed2e0001705386,64d2fd46c836a06233681665,64dc7f4eb4214cff76e6c11c,,,,,,,decisionTrl,resources/DY.BMP,resources/DBN.BMP,Door3,-0.358072917,0.014322917,1,0,0,0.5396,optionLeft,70,8335,4,28,0,28,0,1,,,,,,,,,,,,,,,,,,,,,,,,,,,,,,,,,,,,,,,
,,,,,,,,2023-08-16_08h50.08.352,HF_wild_card,2022.2.4,Win32,64.41638753,576b0cc76aed2e0001705386,64d2fd46c836a06233681665,64dc7f4eb4214cff76e6c11c,,,,,,,decisionTrl,resources/DG.BMP,resources/DR.BMP,WildCard_Ex,0.290364583,0.0078125,1,0,0,1.0027,optionRight,55,8390,4,29,0,29,0,1,,,,,,,,,,,,,,,,,,,,,,,,,,,,,,,,,,,,,,,
,,,,,,,,2023-08-16_08h50.08.352,HF_wild_card,2022.2.4,Win32,64.41638753,576b0cc76aed2e0001705386,64d2fd46c836a06233681665,64dc7f4eb4214cff76e6c11c,,,,,,,ctch,resources/DP.BMP,resources/DY.BMP,Door3,0.380208333,-0.002604167,1,0,0,0.6336,optionRight,70,8460,4,30,0,30,0,1,,,,,,,,,,,,,,,,,,,,,,,,,,,,,,,,,,,,,,,
,,,,,,,,2023-08-16_08h50.08.352,HF_wild_card,2022.2.4,Win32,64.41638753,576b0cc76aed2e0001705386,64d2fd46c836a06233681665,64dc7f4eb4214cff76e6c11c,,,,,,,sngl,resources/Empty.png,resources/DG.BMP,Door1,0.23046875,0.048177083,1,0,0,0.6504,optionRight,30,8490,4,31,0,31,0,1,,,,,,,,,,,,,,,,,,,,,,,,,,,,,,,,,,,,,,,
,,,,,,,,2023-08-16_08h50.08.352,HF_wild_card,2022.2.4,Win32,64.41638753,576b0cc76aed2e0001705386,64d2fd46c836a06233681665,64dc7f4eb4214cff76e6c11c,,,,,,,decisionTrl,resources/DP.BMP,resources/DR.BMP,Door2,-0.41015625,-0.015625,1,0,0,0.9367,optionLeft,20,8510,4,32,0,32,0,1,,,,,,,,,,,,,,,,,,,,,,,,,,,,,,,,,,,,,,,
,,,,,,,,2023-08-16_08h50.08.352,HF_wild_card,2022.2.4,Win32,64.41638753,576b0cc76aed2e0001705386,64d2fd46c836a06233681665,64dc7f4eb4214cff76e6c11c,,,,,,,sngl,resources/DR.BMP,resources/Empty.png,WildCard_Ex,-0.216145833,0.014322917,1,0,0,0.5673,optionLeft,45,8555,4,33,0,33,0,1,,,,,,,,,,,,,,,,,,,,,,,,,,,,,,,,,,,,,,,
,,,,,,,,2023-08-16_08h50.08.352,HF_wild_card,2022.2.4,Win32,64.41638753,576b0cc76aed2e0001705386,64d2fd46c836a06233681665,64dc7f4eb4214cff76e6c11c,,,,,,,decisionTrl,resources/DY.BMP,resources/DBN.BMP,Door3,-0.2578125,0.020833333,1,0,0,0.5149,optionLeft,70,8625,4,34,0,34,0,1,,,,,,,,,,,,,,,,,,,,,,,,,,,,,,,,,,,,,,,
,,,,,,,,2023-08-16_08h50.08.352,HF_wild_card,2022.2.4,Win32,64.41638753,576b0cc76aed2e0001705386,64d2fd46c836a06233681665,64dc7f4eb4214cff76e6c11c,,,,,,,sngl,resources/DR.BMP,resources/Empty.png,WildCard_Ex,-0.239583333,-0.001302083,1,0,0,0.5011,optionLeft,55,8680,4,35,0,35,0,1,,,,,,,,,,,,,,,,,,,,,,,,,,,,,,,,,,,,,,,
,,,,,,,,2023-08-16_08h50.08.352,HF_wild_card,2022.2.4,Win32,64.41638753,576b0cc76aed2e0001705386,64d2fd46c836a06233681665,64dc7f4eb4214cff76e6c11c,,,,,,,ctch,resources/DY.BMP,resources/DP.BMP,Door3,-0.3046875,-0.016927083,1,0,0,0.4788,optionLeft,70,8750,4,36,0,36,0,1,,,,,,,,,,,,,,,,,,,,,,,,,,,,,,,,,,,,,,,
,,,,,,,,2023-08-16_08h50.08.352,HF_wild_card,2022.2.4,Win32,64.41638753,576b0cc76aed2e0001705386,64d2fd46c836a06233681665,64dc7f4eb4214cff76e6c11c,,,,,,,decisionTrl,resources/DBN.BMP,resources/DY.BMP,Door3,0.404947917,0.010416667,1,0,0,0.4831,optionRight,70,8820,4,37,0,37,0,1,,,,,,,,,,,,,,,,,,,,,,,,,,,,,,,,,,,,,,,
,,,,,,,,2023-08-16_08h50.08.352,HF_wild_card,2022.2.4,Win32,64.41638753,576b0cc76aed2e0001705386,64d2fd46c836a06233681665,64dc7f4eb4214cff76e6c11c,,,,,,,sngl,resources/DG.BMP,resources/Empty.png,Door1,-0.333333333,0.00390625,1,0,0,0.4966,optionLeft,30,8850,4,38,0,38,0,1,,,,,,,,,,,,,,,,,,,,,,,,,,,,,,,,,,,,,,,
,,,,,,,,2023-08-16_08h50.08.352,HF_wild_card,2022.2.4,Win32,64.41638753,576b0cc76aed2e0001705386,64d2fd46c836a06233681665,64dc7f4eb4214cff76e6c11c,,,,,,,decisionTrl,resources/DG.BMP,resources/DP.BMP,Door2,0.354166667,-0.00390625,1,0,0,0.7698,optionRight,20,8870,4,39,0,39,0,1,,,,,,,,,,,,,,,,,,,,,,,,,,,,,,,,,,,,,,,
,,,,,,,,2023-08-16_08h50.08.352,HF_wild_card,2022.2.4,Win32,64.41638753,576b0cc76aed2e0001705386,64d2fd46c836a06233681665,64dc7f4eb4214cff76e6c11c,,,,,,,ctch,resources/DP.BMP,resources/DY.BMP,Door3,0.006510417,0,1,0,0,0.7637,optionRight,70,8940,4,40,0,40,0,1,,,,,,,,,,,,,,,,,,,,,,,,,,,,,,,,,,,,,,,
,,,,,,,,2023-08-16_08h50.08.352,HF_wild_card,2022.2.4,Win32,64.41638753,576b0cc76aed2e0001705386,64d2fd46c836a06233681665,64dc7f4eb4214cff76e6c11c,,,,,,,decisionTrl,resources/DBN.BMP,resources/DR.BMP,Door4,-0.369791667,0.005208333,1,0,0,0.8882,optionLeft,60,9000,4,41,0,41,0,1,,,,,,,,,,,,,,,,,,,,,,,,,,,,,,,,,,,,,,,
,,,,,,,,2023-08-16_08h50.08.352,HF_wild_card,2022.2.4,Win32,64.41638753,576b0cc76aed2e0001705386,64d2fd46c836a06233681665,64dc7f4eb4214cff76e6c11c,,,,,,,ctch,resources/DBN.BMP,resources/DG.BMP,Door4,-0.326822917,0.028645833,1,0,0,0.597,optionLeft,80,9080,4,42,0,42,0,1,,,,,,,,,,,,,,,,,,,,,,,,,,,,,,,,,,,,,,,
,,,,,,,,2023-08-16_08h50.08.352,HF_wild_card,2022.2.4,Win32,64.41638753,576b0cc76aed2e0001705386,64d2fd46c836a06233681665,64dc7f4eb4214cff76e6c11c,,,,,,,decisionTrl,resources/DG.BMP,resources/DP.BMP,Door1,-0.497395833,0.016927083,1,0,0,0.7936,optionLeft,30,9110,4,43,0,43,0,1,,,,,,,,,,,,,,,,,,,,,,,,,,,,,,,,,,,,,,,
,,,,,,,,2023-08-16_08h50.08.352,HF_wild_card,2022.2.4,Win32,64.41638753,576b0cc76aed2e0001705386,64d2fd46c836a06233681665,64dc7f4eb4214cff76e6c11c,,,,,,,,,,,,,,,,,,,,,,,,,,3,0,3,0,1,,,,,,,,,,,,,,,,,,,,,,,,,,,,,,,,,,
,,,,,,,,2023-08-16_08h50.08.352,HF_wild_card,2022.2.4,Win32,64.41638753,576b0cc76aed2e0001705386,64d2fd46c836a06233681665,64dc7f4eb4214cff76e6c11c,,,,,,,ctch,resources/DY.BMP,resources/DP.BMP,Door3,-0.217447917,-0.024739583,1,0,0,0.6945,optionLeft,70,9180,5,0,0,0,0,1,,,,,,,,,,,,,,,,,,,,,,,,,,,,,,,,,,,,,,,
,,,,,,,,2023-08-16_08h50.08.352,HF_wild_card,2022.2.4,Win32,64.41638753,576b0cc76aed2e0001705386,64d2fd46c836a06233681665,64dc7f4eb4214cff76e6c11c,,,,,,,decisionTrl,resources/DP.BMP,resources/DG.BMP,Door2,-0.30859375,-0.037760417,1,0,0,0.7264,optionLeft,20,9200,5,1,0,1,0,1,,,,,,,,,,,,,,,,,,,,,,,,,,,,,,,,,,,,,,,
,,,,,,,,2023-08-16_08h50.08.352,HF_wild_card,2022.2.4,Win32,64.41638753,576b0cc76aed2e0001705386,64d2fd46c836a06233681665,64dc7f4eb4214cff76e6c11c,,,,,,,decisionTrl,resources/DG.BMP,resources/DP.BMP,Door1,-0.369791667,0.03515625,1,0,0,0.8852,optionLeft,30,9230,5,2,0,2,0,1,,,,,,,,,,,,,,,,,,,,,,,,,,,,,,,,,,,,,,,
,,,,,,,,2023-08-16_08h50.08.352,HF_wild_card,2022.2.4,Win32,64.41638753,576b0cc76aed2e0001705386,64d2fd46c836a06233681665,64dc7f4eb4214cff76e6c11c,,,,,,,sngl,resources/Empty.png,resources/DR.BMP,WildCard_Ex,0.272135417,0.016927083,1,0,0,0.6302,optionRight,55,9285,5,3,0,3,0,1,,,,,,,,,,,,,,,,,,,,,,,,,,,,,,,,,,,,,,,
,,,,,,,,2023-08-16_08h50.08.352,HF_wild_card,2022.2.4,Win32,64.41638753,576b0cc76aed2e0001705386,64d2fd46c836a06233681665,64dc7f4eb4214cff76e6c11c,,,,,,,decisionTrl,resources/DG.BMP,resources/DP.BMP,Door1,-0.341145833,0.046875,1,0,0,0.7684,optionLeft,30,9315,5,4,0,4,0,1,,,,,,,,,,,,,,,,,,,,,,,,,,,,,,,,,,,,,,,
,,,,,,,,2023-08-16_08h50.08.352,HF_wild_card,2022.2.4,Win32,64.41638753,576b0cc76aed2e0001705386,64d2fd46c836a06233681665,64dc7f4eb4214cff76e6c11c,,,,,,,sngl,resources/DR.BMP,resources/Empty.png,WildCard_Ex,-0.3359375,0.079427083,1,0,0,0.721,optionLeft,45,9360,5,5,0,5,0,1,,,,,,,,,,,,,,,,,,,,,,,,,,,,,,,,,,,,,,,
,,,,,,,,2023-08-16_08h50.08.352,HF_wild_card,2022.2.4,Win32,64.41638753,576b0cc76aed2e0001705386,64d2fd46c836a06233681665,64dc7f4eb4214cff76e6c11c,,,,,,,ctch,resources/DG.BMP,resources/DBN.BMP,Door4,0.368489583,0.01171875,1,0,0,0.7556,optionRight,60,9420,5,6,0,6,0,1,,,,,,,,,,,,,,,,,,,,,,,,,,,,,,,,,,,,,,,
,,,,,,,,2023-08-16_08h50.08.352,HF_wild_card,2022.2.4,Win32,64.41638753,576b0cc76aed2e0001705386,64d2fd46c836a06233681665,64dc7f4eb4214cff76e6c11c,,,,,,,decisionTrl,resources/DP.BMP,resources/DG.BMP,Door1,0.328125,0.001302083,1,0,0,0.8161,optionRight,30,9450,5,7,0,7,0,1,,,,,,,,,,,,,,,,,,,,,,,,,,,,,,,,,,,,,,,
,,,,,,,,2023-08-16_08h50.08.352,HF_wild_card,2022.2.4,Win32,64.41638753,576b0cc76aed2e0001705386,64d2fd46c836a06233681665,64dc7f4eb4214cff76e6c11c,,,,,,,sngl,resources/Empty.png,resources/DR.BMP,WildCard_Ex,0.307291667,0.020833333,1,0,0,0.6662,optionRight,45,9495,5,8,0,8,0,1,,,,,,,,,,,,,,,,,,,,,,,,,,,,,,,,,,,,,,,
,,,,,,,,2023-08-16_08h50.08.352,HF_wild_card,2022.2.4,Win32,64.41638753,576b0cc76aed2e0001705386,64d2fd46c836a06233681665,64dc7f4eb4214cff76e6c11c,,,,,,,sngl,resources/Empty.png,resources/DP.BMP,Door2,0.30078125,0.01953125,1,0,0,0.666,optionRight,20,9515,5,9,0,9,0,1,,,,,,,,,,,,,,,,,,,,,,,,,,,,,,,,,,,,,,,
,,,,,,,,2023-08-16_08h50.08.352,HF_wild_card,2022.2.4,Win32,64.41638753,576b0cc76aed2e0001705386,64d2fd46c836a06233681665,64dc7f4eb4214cff76e6c11c,,,,,,,decisionTrl,resources/DR.BMP,resources/DP.BMP,WildCard_Ex,-0.38671875,0.015625,1,0,0,0.8638,optionLeft,45,9560,5,10,0,10,0,1,,,,,,,,,,,,,,,,,,,,,,,,,,,,,,,,,,,,,,,
,,,,,,,,2023-08-16_08h50.08.352,HF_wild_card,2022.2.4,Win32,64.41638753,576b0cc76aed2e0001705386,64d2fd46c836a06233681665,64dc7f4eb4214cff76e6c11c,,,,,,,sngl,resources/DP.BMP,resources/Empty.png,Door2,-0.298177083,-0.015625,1,0,0,0.6314,optionLeft,40,9600,5,11,0,11,0,1,,,,,,,,,,,,,,,,,,,,,,,,,,,,,,,,,,,,,,,
,,,,,,,,2023-08-16_08h50.08.352,HF_wild_card,2022.2.4,Win32,64.41638753,576b0cc76aed2e0001705386,64d2fd46c836a06233681665,64dc7f4eb4214cff76e6c11c,,,,,,,ctch,resources/DBN.BMP,resources/DG.BMP,Door4,-0.4296875,0.009114583,1,0,0,0.8172,optionLeft,60,9660,5,12,0,12,0,1,,,,,,,,,,,,,,,,,,,,,,,,,,,,,,,,,,,,,,,
,,,,,,,,2023-08-16_08h50.08.352,HF_wild_card,2022.2.4,Win32,64.41638753,576b0cc76aed2e0001705386,64d2fd46c836a06233681665,64dc7f4eb4214cff76e6c11c,,,,,,,decisionTrl,resources/DP.BMP,resources/DR.BMP,WildCard_Ex,0.372395833,0.010416667,1,0,0,0.9805,optionRight,45,9705,5,13,0,13,0,1,,,,,,,,,,,,,,,,,,,,,,,,,,,,,,,,,,,,,,,
,,,,,,,,2023-08-16_08h50.08.352,HF_wild_card,2022.2.4,Win32,64.41638753,576b0cc76aed2e0001705386,64d2fd46c836a06233681665,64dc7f4eb4214cff76e6c11c,,,,,,,decisionTrl,resources/DBN.BMP,resources/DR.BMP,Door4,0,-0.001302083,1,0,0,0.6612,optionLeft,80,9785,5,14,0,14,0,1,,,,,,,,,,,,,,,,,,,,,,,,,,,,,,,,,,,,,,,
,,,,,,,,2023-08-16_08h50.08.352,HF_wild_card,2022.2.4,Win32,64.41638753,576b0cc76aed2e0001705386,64d2fd46c836a06233681665,64dc7f4eb4214cff76e6c11c,,,,,,,ctch,resources/DP.BMP,resources/DY.BMP,Door3,0.329427083,0.036458333,1,0,0,0.6557,optionRight,70,9855,5,15,0,15,0,1,,,,,,,,,,,,,,,,,,,,,,,,,,,,,,,,,,,,,,,
,,,,,,,,2023-08-16_08h50.08.352,HF_wild_card,2022.2.4,Win32,64.41638753,576b0cc76aed2e0001705386,64d2fd46c836a06233681665,64dc7f4eb4214cff76e6c11c,,,,,,,decisionTrl,resources/DBN.BMP,resources/DY.BMP,Door3,0.294270833,0.013020833,1,0,0,0.6472,optionRight,70,9925,5,16,0,16,0,1,,,,,,,,,,,,,,,,,,,,,,,,,,,,,,,,,,,,,,,
,,,,,,,,2023-08-16_08h50.08.352,HF_wild_card,2022.2.4,Win32,64.41638753,576b0cc76aed2e0001705386,64d2fd46c836a06233681665,64dc7f4eb4214cff76e6c11c,,,,,,,decisionTrl,resources/DY.BMP,resources/DR.BMP,Door3,-0.27734375,0.033854167,1,0,0,0.5069,optionLeft,70,9995,5,17,0,17,0,1,,,,,,,,,,,,,,,,,,,,,,,,,,,,,,,,,,,,,,,
,,,,,,,,2023-08-16_08h50.08.352,HF_wild_card,2022.2.4,Win32,64.41638753,576b0cc76aed2e0001705386,64d2fd46c836a06233681665,64dc7f4eb4214cff76e6c11c,,,,,,,decisionTrl,resources/DG.BMP,resources/DP.BMP,Door1,-0.321614583,-0.018229167,1,0,0,0.9359,optionLeft,30,10025,5,18,0,18,0,1,,,,,,,,,,,,,,,,,,,,,,,,,,,,,,,,,,,,,,,
,,,,,,,,2023-08-16_08h50.08.352,HF_wild_card,2022.2.4,Win32,64.41638753,576b0cc76aed2e0001705386,64d2fd46c836a06233681665,64dc7f4eb4214cff76e6c11c,,,,,,,decisionTrl,resources/DBN.BMP,resources/DY.BMP,Door3,0.295572917,0.016927083,1,0,0,0.6604,optionRight,70,10095,5,19,0,19,0,1,,,,,,,,,,,,,,,,,,,,,,,,,,,,,,,,,,,,,,,
,,,,,,,,2023-08-16_08h50.08.352,HF_wild_card,2022.2.4,Win32,64.41638753,576b0cc76aed2e0001705386,64d2fd46c836a06233681665,64dc7f4eb4214cff76e6c11c,,,,,,,decisionTrl,resources/DR.BMP,resources/DG.BMP,WildCard_Ex,-0.40234375,0.026041667,1,0,0,0.9799,optionLeft,55,10150,5,20,0,20,0,1,,,,,,,,,,,,,,,,,,,,,,,,,,,,,,,,,,,,,,,
,,,,,,,,2023-08-16_08h50.08.352,HF_wild_card,2022.2.4,Win32,64.41638753,576b0cc76aed2e0001705386,64d2fd46c836a06233681665,64dc7f4eb4214cff76e6c11c,,,,,,,sngl,resources/Empty.png,resources/DBN.BMP,Door4,0.319010417,0.022135417,1,0,0,0.6598,optionRight,60,10210,5,21,0,21,0,1,,,,,,,,,,,,,,,,,,,,,,,,,,,,,,,,,,,,,,,
,,,,,,,,2023-08-16_08h50.08.352,HF_wild_card,2022.2.4,Win32,64.41638753,576b0cc76aed2e0001705386,64d2fd46c836a06233681665,64dc7f4eb4214cff76e6c11c,,,,,,,sngl,resources/Empty.png,resources/DG.BMP,Door1,0.34375,0,1,0,0,0.6372,optionRight,30,10240,5,22,0,22,0,1,,,,,,,,,,,,,,,,,,,,,,,,,,,,,,,,,,,,,,,
,,,,,,,,2023-08-16_08h50.08.352,HF_wild_card,2022.2.4,Win32,64.41638753,576b0cc76aed2e0001705386,64d2fd46c836a06233681665,64dc7f4eb4214cff76e6c11c,,,,,,,decisionTrl,resources/DBN.BMP,resources/DY.BMP,Door3,0.40625,0.01171875,1,0,0,0.6893,optionRight,70,10310,5,23,0,23,0,1,,,,,,,,,,,,,,,,,,,,,,,,,,,,,,,,,,,,,,,
,,,,,,,,2023-08-16_08h50.08.352,HF_wild_card,2022.2.4,Win32,64.41638753,576b0cc76aed2e0001705386,64d2fd46c836a06233681665,64dc7f4eb4214cff76e6c11c,,,,,,,ctch,resources/DY.BMP,resources/DP.BMP,Door3,-0.33984375,0.014322917,1,0,0,0.5576,optionLeft,70,10380,5,24,0,24,0,1,,,,,,,,,,,,,,,,,,,,,,,,,,,,,,,,,,,,,,,
,,,,,,,,2023-08-16_08h50.08.352,HF_wild_card,2022.2.4,Win32,64.41638753,576b0cc76aed2e0001705386,64d2fd46c836a06233681665,64dc7f4eb4214cff76e6c11c,,,,,,,ctch,resources/DBN.BMP,resources/DG.BMP,Door4,-0.37890625,0.033854167,1,0,0,0.7323,optionLeft,60,10440,5,25,0,25,0,1,,,,,,,,,,,,,,,,,,,,,,,,,,,,,,,,,,,,,,,
,,,,,,,,2023-08-16_08h50.08.352,HF_wild_card,2022.2.4,Win32,64.41638753,576b0cc76aed2e0001705386,64d2fd46c836a06233681665,64dc7f4eb4214cff76e6c11c,,,,,,,decisionTrl,resources/DY.BMP,resources/DBN.BMP,Door3,-0.294270833,0.001302083,1,0,0,0.5666,optionLeft,70,10510,5,26,0,26,0,1,,,,,,,,,,,,,,,,,,,,,,,,,,,,,,,,,,,,,,,
,,,,,,,,2023-08-16_08h50.08.352,HF_wild_card,2022.2.4,Win32,64.41638753,576b0cc76aed2e0001705386,64d2fd46c836a06233681665,64dc7f4eb4214cff76e6c11c,,,,,,,sngl,resources/DY.BMP,resources/Empty.png,Door3,-0.360677083,0.057291667,1,0,0,0.5237,optionLeft,70,10580,5,27,0,27,0,1,,,,,,,,,,,,,,,,,,,,,,,,,,,,,,,,,,,,,,,
,,,,,,,,2023-08-16_08h50.08.352,HF_wild_card,2022.2.4,Win32,64.41638753,576b0cc76aed2e0001705386,64d2fd46c836a06233681665,64dc7f4eb4214cff76e6c11c,,,,,,,ctch,resources/DP.BMP,resources/DY.BMP,Door3,0.37109375,0.001302083,1,0,0,0.5545,optionRight,70,10650,5,28,0,28,0,1,,,,,,,,,,,,,,,,,,,,,,,,,,,,,,,,,,,,,,,
,,,,,,,,2023-08-16_08h50.08.352,HF_wild_card,2022.2.4,Win32,64.41638753,576b0cc76aed2e0001705386,64d2fd46c836a06233681665,64dc7f4eb4214cff76e6c11c,,,,,,,decisionTrl,resources/DG.BMP,resources/DR.BMP,WildCard_Ex,0.299479167,-0.0078125,1,0,0,0.8076,optionRight,55,10705,5,29,0,29,0,1,,,,,,,,,,,,,,,,,,,,,,,,,,,,,,,,,,,,,,,
,,,,,,,,2023-08-16_08h50.08.352,HF_wild_card,2022.2.4,Win32,64.41638753,576b0cc76aed2e0001705386,64d2fd46c836a06233681665,64dc7f4eb4214cff76e6c11c,,,,,,,sngl,resources/DBN.BMP,resources/Empty.png,Door4,-0.338541667,0.006510417,1,0,0,0.556,optionLeft,80,10785,5,30,0,30,0,1,,,,,,,,,,,,,,,,,,,,,,,,,,,,,,,,,,,,,,,
,,,,,,,,2023-08-16_08h50.08.352,HF_wild_card,2022.2.4,Win32,64.41638753,576b0cc76aed2e0001705386,64d2fd46c836a06233681665,64dc7f4eb4214cff76e6c11c,,,,,,,decisionTrl,resources/DP.BMP,resources/DG.BMP,Door2,-0.272135417,0.014322917,1,0,0,0.8243,optionLeft,40,10825,5,31,0,31,0,1,,,,,,,,,,,,,,,,,,,,,,,,,,,,,,,,,,,,,,,
,,,,,,,,2023-08-16_08h50.08.352,HF_wild_card,2022.2.4,Win32,64.41638753,576b0cc76aed2e0001705386,64d2fd46c836a06233681665,64dc7f4eb4214cff76e6c11c,,,,,,,decisionTrl,resources/DR.BMP,resources/DY.BMP,Door3,0.415364583,-0.013020833,1,0,0,0.5815,optionRight,70,10895,5,32,0,32,0,1,,,,,,,,,,,,,,,,,,,,,,,,,,,,,,,,,,,,,,,
,,,,,,,,2023-08-16_08h50.08.352,HF_wild_card,2022.2.4,Win32,64.41638753,576b0cc76aed2e0001705386,64d2fd46c836a06233681665,64dc7f4eb4214cff76e6c11c,,,,,,,sngl,resources/Empty.png,resources/DY.BMP,Door3,0.3515625,0.0078125,1,0,0,0.6058,optionRight,70,10965,5,33,0,33,0,1,,,,,,,,,,,,,,,,,,,,,,,,,,,,,,,,,,,,,,,
,,,,,,,,2023-08-16_08h50.08.352,HF_wild_card,2022.2.4,Win32,64.41638753,576b0cc76aed2e0001705386,64d2fd46c836a06233681665,64dc7f4eb4214cff76e6c11c,,,,,,,decisionTrl,resources/DY.BMP,resources/DBN.BMP,Door4,0.330729167,-0.001302083,1,0,0,0.7393,optionRight,60,11025,5,34,0,34,0,1,,,,,,,,,,,,,,,,,,,,,,,,,,,,,,,,,,,,,,,
,,,,,,,,2023-08-16_08h50.08.352,HF_wild_card,2022.2.4,Win32,64.41638753,576b0cc76aed2e0001705386,64d2fd46c836a06233681665,64dc7f4eb4214cff76e6c11c,,,,,,,sngl,resources/DG.BMP,resources/Empty.png,Door1,-0.286458333,0.044270833,1,0,0,0.5793,optionLeft,30,11055,5,35,0,35,0,1,,,,,,,,,,,,,,,,,,,,,,,,,,,,,,,,,,,,,,,
,,,,,,,,2023-08-16_08h50.08.352,HF_wild_card,2022.2.4,Win32,64.41638753,576b0cc76aed2e0001705386,64d2fd46c836a06233681665,64dc7f4eb4214cff76e6c11c,,,,,,,decisionTrl,resources/DP.BMP,resources/DG.BMP,Door2,-0.263020833,-0.0234375,1,0,0,0.7188,optionLeft,40,11095,5,36,0,36,0,1,,,,,,,,,,,,,,,,,,,,,,,,,,,,,,,,,,,,,,,
,,,,,,,,2023-08-16_08h50.08.352,HF_wild_card,2022.2.4,Win32,64.41638753,576b0cc76aed2e0001705386,64d2fd46c836a06233681665,64dc7f4eb4214cff76e6c11c,,,,,,,decisionTrl,resources/DY.BMP,resources/DBN.BMP,Door3,-0.247395833,0.00390625,1,0,0,0.6898,optionLeft,70,11165,5,37,0,37,0,1,,,,,,,,,,,,,,,,,,,,,,,,,,,,,,,,,,,,,,,
,,,,,,,,2023-08-16_08h50.08.352,HF_wild_card,2022.2.4,Win32,64.41638753,576b0cc76aed2e0001705386,64d2fd46c836a06233681665,64dc7f4eb4214cff76e6c11c,,,,,,,decisionTrl,resources/DY.BMP,resources/DBN.BMP,Door3,-0.279947917,0.001302083,1,0,0,0.5097,optionLeft,70,11235,5,38,0,38,0,1,,,,,,,,,,,,,,,,,,,,,,,,,,,,,,,,,,,,,,,
,,,,,,,,2023-08-16_08h50.08.352,HF_wild_card,2022.2.4,Win32,64.41638753,576b0cc76aed2e0001705386,64d2fd46c836a06233681665,64dc7f4eb4214cff76e6c11c,,,,,,,decisionTrl,resources/DBN.BMP,resources/DY.BMP,Door3,0.430989583,0.002604167,1,0,0,0.5638,optionRight,70,11305,5,39,0,39,0,1,,,,,,,,,,,,,,,,,,,,,,,,,,,,,,,,,,,,,,,
,,,,,,,,2023-08-16_08h50.08.352,HF_wild_card,2022.2.4,Win32,64.41638753,576b0cc76aed2e0001705386,64d2fd46c836a06233681665,64dc7f4eb4214cff76e6c11c,,,,,,,sngl,resources/DR.BMP,resources/Empty.png,WildCard_Ex,-0.268229167,0.032552083,1,0,0,0.4854,optionLeft,55,11360,5,40,0,40,0,1,,,,,,,,,,,,,,,,,,,,,,,,,,,,,,,,,,,,,,,
,,,,,,,,2023-08-16_08h50.08.352,HF_wild_card,2022.2.4,Win32,64.41638753,576b0cc76aed2e0001705386,64d2fd46c836a06233681665,64dc7f4eb4214cff76e6c11c,,,,,,,decisionTrl,resources/DR.BMP,resources/DBN.BMP,Door4,0.26171875,0.005208333,1,0,0,0.577,optionRight,60,11420,5,41,0,41,0,1,,,,,,,,,,,,,,,,,,,,,,,,,,,,,,,,,,,,,,,
,,,,,,,,2023-08-16_08h50.08.352,HF_wild_card,2022.2.4,Win32,64.41638753,576b0cc76aed2e0001705386,64d2fd46c836a06233681665,64dc7f4eb4214cff76e6c11c,,,,,,,decisionTrl,resources/DG.BMP,resources/DP.BMP,Door1,-0.234375,0.006510417,1,0,0,0.9409,optionLeft,30,11450,5,42,0,42,0,1,,,,,,,,,,,,,,,,,,,,,,,,,,,,,,,,,,,,,,,
,,,,,,,,2023-08-16_08h50.08.352,HF_wild_card,2022.2.4,Win32,64.41638753,576b0cc76aed2e0001705386,64d2fd46c836a06233681665,64dc7f4eb4214cff76e6c11c,,,,,,,ctch,resources/DG.BMP,resources/DBN.BMP,Door4,0.4375,0.041666667,1,0,0,0.667,optionRight,80,11530,5,43,0,43,0,1,,,,,,,,,,,,,,,,,,,,,,,,,,,,,,,,,,,,,,,
,,,,,,,,2023-08-16_08h50.08.352,HF_wild_card,2022.2.4,Win32,64.41638753,576b0cc76aed2e0001705386,64d2fd46c836a06233681665,64dc7f4eb4214cff76e6c11c,,,,,,,,,,,,,,,,,,,,,,,,,,4,0,4,0,1,,,,,,,,,,,,,,,,,,,,,,,,,,,,,,,,,,
,,,,,,,,2023-08-16_08h50.08.352,HF_wild_card,2022.2.4,Win32,64.41638753,576b0cc76aed2e0001705386,64d2fd46c836a06233681665,64dc7f4eb4214cff76e6c11c,,,,,,,decisionTrl,resources/DP.BMP,resources/DG.BMP,Door1,0.286458333,-0.071614583,1,0,0,0.9453,optionRight,30,11560,6,0,0,0,0,1,,,,,,,,,,,,,,,,,,,,,,,,,,,,,,,,,,,,,,,
,,,,,,,,2023-08-16_08h50.08.352,HF_wild_card,2022.2.4,Win32,64.41638753,576b0cc76aed2e0001705386,64d2fd46c836a06233681665,64dc7f4eb4214cff76e6c11c,,,,,,,decisionTrl,resources/DY.BMP,resources/DBN.BMP,Door3,-0.243489583,0.024739583,1,0,0,0.6357,optionLeft,70,11630,6,1,0,1,0,1,,,,,,,,,,,,,,,,,,,,,,,,,,,,,,,,,,,,,,,
,,,,,,,,2023-08-16_08h50.08.352,HF_wild_card,2022.2.4,Win32,64.41638753,576b0cc76aed2e0001705386,64d2fd46c836a06233681665,64dc7f4eb4214cff76e6c11c,,,,,,,decisionTrl,resources/DP.BMP,resources/DG.BMP,Door2,-0.30859375,-0.013020833,1,0,0,0.86,optionLeft,40,11670,6,2,0,2,0,1,,,,,,,,,,,,,,,,,,,,,,,,,,,,,,,,,,,,,,,
,,,,,,,,2023-08-16_08h50.08.352,HF_wild_card,2022.2.4,Win32,64.41638753,576b0cc76aed2e0001705386,64d2fd46c836a06233681665,64dc7f4eb4214cff76e6c11c,,,,,,,decisionTrl,resources/DR.BMP,resources/DP.BMP,WildCard_Ex,-0.329427083,0.016927083,1,0,0,0.6643,optionLeft,45,11715,6,3,0,3,0,1,,,,,,,,,,,,,,,,,,,,,,,,,,,,,,,,,,,,,,,
,,,,,,,,2023-08-16_08h50.08.352,HF_wild_card,2022.2.4,Win32,64.41638753,576b0cc76aed2e0001705386,64d2fd46c836a06233681665,64dc7f4eb4214cff76e6c11c,,,,,,,sngl,resources/Empty.png,resources/DY.BMP,Door3,0.34765625,0.015625,1,0,0,0.8918,optionRight,70,11785,6,4,0,4,0,1,,,,,,,,,,,,,,,,,,,,,,,,,,,,,,,,,,,,,,,
,,,,,,,,2023-08-16_08h50.08.352,HF_wild_card,2022.2.4,Win32,64.41638753,576b0cc76aed2e0001705386,64d2fd46c836a06233681665,64dc7f4eb4214cff76e6c11c,,,,,,,decisionTrl,resources/DBN.BMP,resources/DY.BMP,Door3,0.34375,0.052083333,1,0,0,0.5943,optionRight,70,11855,6,5,0,5,0,1,,,,,,,,,,,,,,,,,,,,,,,,,,,,,,,,,,,,,,,
,,,,,,,,2023-08-16_08h50.08.352,HF_wild_card,2022.2.4,Win32,64.41638753,576b0cc76aed2e0001705386,64d2fd46c836a06233681665,64dc7f4eb4214cff76e6c11c,,,,,,,decisionTrl,resources/DR.BMP,resources/DG.BMP,WildCard_Ex,-0.212239583,0.00390625,1,0,0,0.6767,optionLeft,55,11910,6,6,0,6,0,1,,,,,,,,,,,,,,,,,,,,,,,,,,,,,,,,,,,,,,,
,,,,,,,,2023-08-16_08h50.08.352,HF_wild_card,2022.2.4,Win32,64.41638753,576b0cc76aed2e0001705386,64d2fd46c836a06233681665,64dc7f4eb4214cff76e6c11c,,,,,,,decisionTrl,resources/DY.BMP,resources/DBN.BMP,Door3,-0.305989583,-0.036458333,1,0,0,0.5477,optionLeft,70,11980,6,7,0,7,0,1,,,,,,,,,,,,,,,,,,,,,,,,,,,,,,,,,,,,,,,
,,,,,,,,2023-08-16_08h50.08.352,HF_wild_card,2022.2.4,Win32,64.41638753,576b0cc76aed2e0001705386,64d2fd46c836a06233681665,64dc7f4eb4214cff76e6c11c,,,,,,,decisionTrl,resources/DG.BMP,resources/DR.BMP,WildCard_Ex,0.35546875,-0.009114583,1,0,0,0.6186,optionRight,45,12025,6,8,0,8,0,1,,,,,,,,,,,,,,,,,,,,,,,,,,,,,,,,,,,,,,,
,,,,,,,,2023-08-16_08h50.08.352,HF_wild_card,2022.2.4,Win32,64.41638753,576b0cc76aed2e0001705386,64d2fd46c836a06233681665,64dc7f4eb4214cff76e6c11c,,,,,,,ctch,resources/DBN.BMP,resources/DG.BMP,Door4,-0.30859375,0.020833333,1,0,0,0.5986,optionLeft,60,12085,6,9,0,9,0,1,,,,,,,,,,,,,,,,,,,,,,,,,,,,,,,,,,,,,,,
,,,,,,,,2023-08-16_08h50.08.352,HF_wild_card,2022.2.4,Win32,64.41638753,576b0cc76aed2e0001705386,64d2fd46c836a06233681665,64dc7f4eb4214cff76e6c11c,,,,,,,decisionTrl,resources/DP.BMP,resources/DR.BMP,Door2,-0.294270833,0.001302083,1,0,0,0.8772,optionLeft,20,12105,6,10,0,10,0,1,,,,,,,,,,,,,,,,,,,,,,,,,,,,,,,,,,,,,,,
,,,,,,,,2023-08-16_08h50.08.352,HF_wild_card,2022.2.4,Win32,64.41638753,576b0cc76aed2e0001705386,64d2fd46c836a06233681665,64dc7f4eb4214cff76e6c11c,,,,,,,ctch,resources/DP.BMP,resources/DY.BMP,Door3,0.283854167,0.001302083,1,0,0,0.5879,optionRight,70,12175,6,11,0,11,0,1,,,,,,,,,,,,,,,,,,,,,,,,,,,,,,,,,,,,,,,
,,,,,,,,2023-08-16_08h50.08.352,HF_wild_card,2022.2.4,Win32,64.41638753,576b0cc76aed2e0001705386,64d2fd46c836a06233681665,64dc7f4eb4214cff76e6c11c,,,,,,,ctch,resources/DY.BMP,resources/DP.BMP,Door3,-0.23046875,0,1,0,0,0.5598,optionLeft,70,12245,6,12,0,12,0,1,,,,,,,,,,,,,,,,,,,,,,,,,,,,,,,,,,,,,,,
,,,,,,,,2023-08-16_08h50.08.352,HF_wild_card,2022.2.4,Win32,64.41638753,576b0cc76aed2e0001705386,64d2fd46c836a06233681665,64dc7f4eb4214cff76e6c11c,,,,,,,sngl,resources/DY.BMP,resources/Empty.png,Door3,-0.256510417,0.018229167,1,0,0,0.5479,optionLeft,70,12315,6,13,0,13,0,1,,,,,,,,,,,,,,,,,,,,,,,,,,,,,,,,,,,,,,,
,,,,,,,,2023-08-16_08h50.08.352,HF_wild_card,2022.2.4,Win32,64.41638753,576b0cc76aed2e0001705386,64d2fd46c836a06233681665,64dc7f4eb4214cff76e6c11c,,,,,,,decisionTrl,resources/DBN.BMP,resources/DY.BMP,Door3,0.356770833,0.03515625,1,0,0,0.5241,optionRight,70,12385,6,14,0,14,0,1,,,,,,,,,,,,,,,,,,,,,,,,,,,,,,,,,,,,,,,
,,,,,,,,2023-08-16_08h50.08.352,HF_wild_card,2022.2.4,Win32,64.41638753,576b0cc76aed2e0001705386,64d2fd46c836a06233681665,64dc7f4eb4214cff76e6c11c,,,,,,,sngl,resources/DG.BMP,resources/Empty.png,Door1,-0.23828125,0.041666667,1,0,0,0.495,optionLeft,30,12415,6,15,0,15,0,1,,,,,,,,,,,,,,,,,,,,,,,,,,,,,,,,,,,,,,,
,,,,,,,,2023-08-16_08h50.08.352,HF_wild_card,2022.2.4,Win32,64.41638753,576b0cc76aed2e0001705386,64d2fd46c836a06233681665,64dc7f4eb4214cff76e6c11c,,,,,,,ctch,resources/DG.BMP,resources/DBN.BMP,Door4,0.319010417,0.053385417,1,0,0,0.6027,optionRight,60,12475,6,16,0,16,0,1,,,,,,,,,,,,,,,,,,,,,,,,,,,,,,,,,,,,,,,
,,,,,,,,2023-08-16_08h50.08.352,HF_wild_card,2022.2.4,Win32,64.41638753,576b0cc76aed2e0001705386,64d2fd46c836a06233681665,64dc7f4eb4214cff76e6c11c,,,,,,,decisionTrl,resources/DP.BMP,resources/DG.BMP,Door1,0.424479167,0.057291667,1,0,0,0.7312,optionRight,30,12505,6,17,0,17,0,1,,,,,,,,,,,,,,,,,,,,,,,,,,,,,,,,,,,,,,,
,,,,,,,,2023-08-16_08h50.08.352,HF_wild_card,2022.2.4,Win32,64.41638753,576b0cc76aed2e0001705386,64d2fd46c836a06233681665,64dc7f4eb4214cff76e6c11c,,,,,,,sngl,resources/DP.BMP,resources/Empty.png,Door2,-0.28125,0.069010417,1,0,0,0.5112,optionLeft,20,12525,6,18,0,18,0,1,,,,,,,,,,,,,,,,,,,,,,,,,,,,,,,,,,,,,,,
,,,,,,,,2023-08-16_08h50.08.352,HF_wild_card,2022.2.4,Win32,64.41638753,576b0cc76aed2e0001705386,64d2fd46c836a06233681665,64dc7f4eb4214cff76e6c11c,,,,,,,decisionTrl,resources/DR.BMP,resources/DBN.BMP,Door4,0.375,0.024739583,1,0,0,0.5936,optionRight,60,12585,6,19,0,19,0,1,,,,,,,,,,,,,,,,,,,,,,,,,,,,,,,,,,,,,,,
,,,,,,,,2023-08-16_08h50.08.352,HF_wild_card,2022.2.4,Win32,64.41638753,576b0cc76aed2e0001705386,64d2fd46c836a06233681665,64dc7f4eb4214cff76e6c11c,,,,,,,sngl,resources/DBN.BMP,resources/Empty.png,Door4,-0.3046875,0.075520833,1,0,0,0.4836,optionLeft,60,12645,6,20,0,20,0,1,,,,,,,,,,,,,,,,,,,,,,,,,,,,,,,,,,,,,,,
,,,,,,,,2023-08-16_08h50.08.352,HF_wild_card,2022.2.4,Win32,64.41638753,576b0cc76aed2e0001705386,64d2fd46c836a06233681665,64dc7f4eb4214cff76e6c11c,,,,,,,decisionTrl,resources/DY.BMP,resources/DBN.BMP,Door3,-0.279947917,0.029947917,1,0,0,0.5258,optionLeft,70,12715,6,21,0,21,0,1,,,,,,,,,,,,,,,,,,,,,,,,,,,,,,,,,,,,,,,
,,,,,,,,2023-08-16_08h50.08.352,HF_wild_card,2022.2.4,Win32,64.41638753,576b0cc76aed2e0001705386,64d2fd46c836a06233681665,64dc7f4eb4214cff76e6c11c,,,,,,,decisionTrl,resources/DY.BMP,resources/DBN.BMP,Door3,-0.3203125,0.020833333,1,0,0,0.4852,optionLeft,70,12785,6,22,0,22,0,1,,,,,,,,,,,,,,,,,,,,,,,,,,,,,,,,,,,,,,,
,,,,,,,,2023-08-16_08h50.08.352,HF_wild_card,2022.2.4,Win32,64.41638753,576b0cc76aed2e0001705386,64d2fd46c836a06233681665,64dc7f4eb4214cff76e6c11c,,,,,,,sngl,resources/Empty.png,resources/DG.BMP,Door1,0.299479167,0.055989583,1,0,0,0.5184,optionRight,30,12815,6,23,0,23,0,1,,,,,,,,,,,,,,,,,,,,,,,,,,,,,,,,,,,,,,,
,,,,,,,,2023-08-16_08h50.08.352,HF_wild_card,2022.2.4,Win32,64.41638753,576b0cc76aed2e0001705386,64d2fd46c836a06233681665,64dc7f4eb4214cff76e6c11c,,,,,,,decisionTrl,resources/DBN.BMP,resources/DY.BMP,Door3,0.25,0.029947917,1,0,0,0.606,optionRight,70,12885,6,24,0,24,0,1,,,,,,,,,,,,,,,,,,,,,,,,,,,,,,,,,,,,,,,
,,,,,,,,2023-08-16_08h50.08.352,HF_wild_card,2022.2.4,Win32,64.41638753,576b0cc76aed2e0001705386,64d2fd46c836a06233681665,64dc7f4eb4214cff76e6c11c,,,,,,,decisionTrl,resources/DY.BMP,resources/DR.BMP,Door3,-0.282552083,-0.0078125,1,0,0,0.5071,optionLeft,70,12955,6,25,0,25,0,1,,,,,,,,,,,,,,,,,,,,,,,,,,,,,,,,,,,,,,,
,,,,,,,,2023-08-16_08h50.08.352,HF_wild_card,2022.2.4,Win32,64.41638753,576b0cc76aed2e0001705386,64d2fd46c836a06233681665,64dc7f4eb4214cff76e6c11c,,,,,,,decisionTrl,resources/DBN.BMP,resources/DR.BMP,Door4,-0.303385417,0.0078125,1,0,0,0.6166,optionLeft,60,13015,6,26,0,26,0,1,,,,,,,,,,,,,,,,,,,,,,,,,,,,,,,,,,,,,,,
,,,,,,,,2023-08-16_08h50.08.352,HF_wild_card,2022.2.4,Win32,64.41638753,576b0cc76aed2e0001705386,64d2fd46c836a06233681665,64dc7f4eb4214cff76e6c11c,,,,,,,decisionTrl,resources/DG.BMP,resources/DP.BMP,Door1,-0.23828125,-0.018229167,1,0,0,0.5855,optionLeft,30,13045,6,27,0,27,0,1,,,,,,,,,,,,,,,,,,,,,,,,,,,,,,,,,,,,,,,
,,,,,,,,2023-08-16_08h50.08.352,HF_wild_card,2022.2.4,Win32,64.41638753,576b0cc76aed2e0001705386,64d2fd46c836a06233681665,64dc7f4eb4214cff76e6c11c,,,,,,,sngl,resources/DR.BMP,resources/Empty.png,WildCard_Ex,-0.208333333,0.018229167,1,0,0,0.5022,optionLeft,55,13100,6,28,0,28,0,1,,,,,,,,,,,,,,,,,,,,,,,,,,,,,,,,,,,,,,,
,,,,,,,,2023-08-16_08h50.08.352,HF_wild_card,2022.2.4,Win32,64.41638753,576b0cc76aed2e0001705386,64d2fd46c836a06233681665,64dc7f4eb4214cff76e6c11c,,,,,,,decisionTrl,resources/DG.BMP,resources/DP.BMP,Door1,-0.188802083,-0.006510417,1,0,0,0.6519,optionLeft,30,13130,6,29,0,29,0,1,,,,,,,,,,,,,,,,,,,,,,,,,,,,,,,,,,,,,,,
,,,,,,,,2023-08-16_08h50.08.352,HF_wild_card,2022.2.4,Win32,64.41638753,576b0cc76aed2e0001705386,64d2fd46c836a06233681665,64dc7f4eb4214cff76e6c11c,,,,,,,sngl,resources/Empty.png,resources/DR.BMP,WildCard_Ex,0.34375,0.002604167,1,0,0,0.4999,optionRight,45,13175,6,30,0,30,0,1,,,,,,,,,,,,,,,,,,,,,,,,,,,,,,,,,,,,,,,
,,,,,,,,2023-08-16_08h50.08.352,HF_wild_card,2022.2.4,Win32,64.41638753,576b0cc76aed2e0001705386,64d2fd46c836a06233681665,64dc7f4eb4214cff76e6c11c,,,,,,,decisionTrl,resources/DP.BMP,resources/DG.BMP,Door2,-0.205729167,-0.002604167,1,0,0,0.7161,optionLeft,40,13215,6,31,0,31,0,1,,,,,,,,,,,,,,,,,,,,,,,,,,,,,,,,,,,,,,,
,,,,,,,,2023-08-16_08h50.08.352,HF_wild_card,2022.2.4,Win32,64.41638753,576b0cc76aed2e0001705386,64d2fd46c836a06233681665,64dc7f4eb4214cff76e6c11c,,,,,,,decisionTrl,resources/DR.BMP,resources/DY.BMP,Door3,0.334635417,0.01953125,1,0,0,0.5178,optionRight,70,13285,6,32,0,32,0,1,,,,,,,,,,,,,,,,,,,,,,,,,,,,,,,,,,,,,,,
,,,,,,,,2023-08-16_08h50.08.352,HF_wild_card,2022.2.4,Win32,64.41638753,576b0cc76aed2e0001705386,64d2fd46c836a06233681665,64dc7f4eb4214cff76e6c11c,,,,,,,sngl,resources/DR.BMP,resources/Empty.png,WildCard_Ex,-0.227864583,0.001302083,1,0,0,0.5159,optionLeft,45,13330,6,33,0,33,0,1,,,,,,,,,,,,,,,,,,,,,,,,,,,,,,,,,,,,,,,
,,,,,,,,2023-08-16_08h50.08.352,HF_wild_card,2022.2.4,Win32,64.41638753,576b0cc76aed2e0001705386,64d2fd46c836a06233681665,64dc7f4eb4214cff76e6c11c,,,,,,,sngl,resources/Empty.png,resources/DBN.BMP,Door4,0.28125,0.005208333,1,0,0,0.7229,optionRight,80,13410,6,34,0,34,0,1,,,,,,,,,,,,,,,,,,,,,,,,,,,,,,,,,,,,,,,
,,,,,,,,2023-08-16_08h50.08.352,HF_wild_card,2022.2.4,Win32,64.41638753,576b0cc76aed2e0001705386,64d2fd46c836a06233681665,64dc7f4eb4214cff76e6c11c,,,,,,,decisionTrl,resources/DG.BMP,resources/DP.BMP,Door1,-0.217447917,0.01171875,1,0,0,0.681,optionLeft,30,13440,6,35,0,35,0,1,,,,,,,,,,,,,,,,,,,,,,,,,,,,,,,,,,,,,,,
,,,,,,,,2023-08-16_08h50.08.352,HF_wild_card,2022.2.4,Win32,64.41638753,576b0cc76aed2e0001705386,64d2fd46c836a06233681665,64dc7f4eb4214cff76e6c11c,,,,,,,sngl,resources/Empty.png,resources/DP.BMP,Door2,0.33984375,-0.009114583,1,0,0,0.4795,optionRight,40,13480,6,36,0,36,0,1,,,,,,,,,,,,,,,,,,,,,,,,,,,,,,,,,,,,,,,
,,,,,,,,2023-08-16_08h50.08.352,HF_wild_card,2022.2.4,Win32,64.41638753,576b0cc76aed2e0001705386,64d2fd46c836a06233681665,64dc7f4eb4214cff76e6c11c,,,,,,,decisionTrl,resources/DBN.BMP,resources/DY.BMP,Door3,0.287760417,0.002604167,1,0,0,0.4832,optionRight,70,13550,6,37,0,37,0,1,,,,,,,,,,,,,,,,,,,,,,,,,,,,,,,,,,,,,,,
,,,,,,,,2023-08-16_08h50.08.352,HF_wild_card,2022.2.4,Win32,64.41638753,576b0cc76aed2e0001705386,64d2fd46c836a06233681665,64dc7f4eb4214cff76e6c11c,,,,,,,ctch,resources/DG.BMP,resources/DBN.BMP,Door4,0.346354167,0.03515625,1,0,0,0.8602,optionRight,60,13610,6,38,0,38,0,1,,,,,,,,,,,,,,,,,,,,,,,,,,,,,,,,,,,,,,,
,,,,,,,,2023-08-16_08h50.08.352,HF_wild_card,2022.2.4,Win32,64.41638753,576b0cc76aed2e0001705386,64d2fd46c836a06233681665,64dc7f4eb4214cff76e6c11c,,,,,,,sngl,resources/Empty.png,resources/DR.BMP,WildCard_Ex,0.315104167,0.05078125,1,0,0,0.7211,optionRight,55,13665,6,39,0,39,0,1,,,,,,,,,,,,,,,,,,,,,,,,,,,,,,,,,,,,,,,
,,,,,,,,2023-08-16_08h50.08.352,HF_wild_card,2022.2.4,Win32,64.41638753,576b0cc76aed2e0001705386,64d2fd46c836a06233681665,64dc7f4eb4214cff76e6c11c,,,,,,,ctch,resources/DBN.BMP,resources/DG.BMP,Door4,-0.27734375,0.040364583,1,0,0,0.7429,optionLeft,80,13745,6,40,0,40,0,1,,,,,,,,,,,,,,,,,,,,,,,,,,,,,,,,,,,,,,,
,,,,,,,,2023-08-16_08h50.08.352,HF_wild_card,2022.2.4,Win32,64.41638753,576b0cc76aed2e0001705386,64d2fd46c836a06233681665,64dc7f4eb4214cff76e6c11c,,,,,,,ctch,resources/DY.BMP,resources/DP.BMP,Door3,-0.377604167,0.072916667,1,0,0,0.6713,optionLeft,70,13815,6,41,0,41,0,1,,,,,,,,,,,,,,,,,,,,,,,,,,,,,,,,,,,,,,,
,,,,,,,,2023-08-16_08h50.08.352,HF_wild_card,2022.2.4,Win32,64.41638753,576b0cc76aed2e0001705386,64d2fd46c836a06233681665,64dc7f4eb4214cff76e6c11c,,,,,,,decisionTrl,resources/DG.BMP,resources/DP.BMP,Door1,-0.19140625,0.02734375,1,0,0,0.8535,optionLeft,30,13845,6,42,0,42,0,1,,,,,,,,,,,,,,,,,,,,,,,,,,,,,,,,,,,,,,,
,,,,,,,,2023-08-16_08h50.08.352,HF_wild_card,2022.2.4,Win32,64.41638753,576b0cc76aed2e0001705386,64d2fd46c836a06233681665,64dc7f4eb4214cff76e6c11c,,,,,,,ctch,resources/DP.BMP,resources/DY.BMP,Door3,0.326822917,0.05078125,1,0,0,0.6892,optionRight,70,13915,6,43,0,43,0,1,,,,,,,,,,,,,,,,,,,,,,,,,,,,,,,,,,,,,,,
,,,,,,,,2023-08-16_08h50.08.352,HF_wild_card,2022.2.4,Win32,64.41638753,576b0cc76aed2e0001705386,64d2fd46c836a06233681665,64dc7f4eb4214cff76e6c11c,,,,,,,,,,,,,,,,,,,,,,,,,,5,0,5,0,1,,,,,,,,,,,,,,,,,,,,,,,,,,,,,,,,,,
,,,,,,,,2023-08-16_08h50.08.352,HF_wild_card,2022.2.4,Win32,64.41638753,576b0cc76aed2e0001705386,64d2fd46c836a06233681665,64dc7f4eb4214cff76e6c11c,,,,,,,decisionTrl,resources/DP.BMP,resources/DG.BMP,Door1,0.391927083,0.053385417,1,0,0,1.0287,optionRight,30,13945,7,0,0,0,0,1,,,,,,,,,,,,,,,,,,,,,,,,,,,,,,,,,,,,,,,
,,,,,,,,2023-08-16_08h50.08.352,HF_wild_card,2022.2.4,Win32,64.41638753,576b0cc76aed2e0001705386,64d2fd46c836a06233681665,64dc7f4eb4214cff76e6c11c,,,,,,,decisionTrl,resources/DY.BMP,resources/DBN.BMP,Door3,-0.30859375,0.0703125,1,0,0,0.5796,optionLeft,70,14015,7,1,0,1,0,1,,,,,,,,,,,,,,,,,,,,,,,,,,,,,,,,,,,,,,,
,,,,,,,,2023-08-16_08h50.08.352,HF_wild_card,2022.2.4,Win32,64.41638753,576b0cc76aed2e0001705386,64d2fd46c836a06233681665,64dc7f4eb4214cff76e6c11c,,,,,,,ctch,resources/DP.BMP,resources/DY.BMP,Door3,0.401041667,0.045572917,1,0,0,0.5946,optionRight,70,14085,7,2,0,2,0,1,,,,,,,,,,,,,,,,,,,,,,,,,,,,,,,,,,,,,,,
,,,,,,,,2023-08-16_08h50.08.352,HF_wild_card,2022.2.4,Win32,64.41638753,576b0cc76aed2e0001705386,64d2fd46c836a06233681665,64dc7f4eb4214cff76e6c11c,,,,,,,decisionTrl,resources/DY.BMP,resources/DBN.BMP,Door3,-0.255208333,0.033854167,1,0,0,0.4975,optionLeft,70,14155,7,3,0,3,0,1,,,,,,,,,,,,,,,,,,,,,,,,,,,,,,,,,,,,,,,
,,,,,,,,2023-08-16_08h50.08.352,HF_wild_card,2022.2.4,Win32,64.41638753,576b0cc76aed2e0001705386,64d2fd46c836a06233681665,64dc7f4eb4214cff76e6c11c,,,,,,,ctch,resources/DP.BMP,resources/DY.BMP,Door3,0.360677083,0.015625,1,0,0,0.6464,optionRight,70,14225,7,4,0,4,0,1,,,,,,,,,,,,,,,,,,,,,,,,,,,,,,,,,,,,,,,
,,,,,,,,2023-08-16_08h50.08.352,HF_wild_card,2022.2.4,Win32,64.41638753,576b0cc76aed2e0001705386,64d2fd46c836a06233681665,64dc7f4eb4214cff76e6c11c,,,,,,,decisionTrl,resources/DP.BMP,resources/DG.BMP,Door2,-0.303385417,-0.029947917,1,0,0,0.6969,optionLeft,40,14265,7,5,0,5,0,1,,,,,,,,,,,,,,,,,,,,,,,,,,,,,,,,,,,,,,,
,,,,,,,,2023-08-16_08h50.08.352,HF_wild_card,2022.2.4,Win32,64.41638753,576b0cc76aed2e0001705386,64d2fd46c836a06233681665,64dc7f4eb4214cff76e6c11c,,,,,,,decisionTrl,resources/DBN.BMP,resources/DY.BMP,Door3,0.234375,-0.010416667,1,0,0,0.6639,optionRight,70,14335,7,6,0,6,0,1,,,,,,,,,,,,,,,,,,,,,,,,,,,,,,,,,,,,,,,
,,,,,,,,2023-08-16_08h50.08.352,HF_wild_card,2022.2.4,Win32,64.41638753,576b0cc76aed2e0001705386,64d2fd46c836a06233681665,64dc7f4eb4214cff76e6c11c,,,,,,,decisionTrl,resources/DY.BMP,resources/DBN.BMP,Door3,-0.19921875,0,1,0,0,0.5845,optionLeft,70,14405,7,7,0,7,0,1,,,,,,,,,,,,,,,,,,,,,,,,,,,,,,,,,,,,,,,
,,,,,,,,2023-08-16_08h50.08.352,HF_wild_card,2022.2.4,Win32,64.41638753,576b0cc76aed2e0001705386,64d2fd46c836a06233681665,64dc7f4eb4214cff76e6c11c,,,,,,,decisionTrl,resources/DBN.BMP,resources/DY.BMP,Door3,0.260416667,-0.009114583,1,0,0,0.5278,optionRight,70,14475,7,8,0,8,0,1,,,,,,,,,,,,,,,,,,,,,,,,,,,,,,,,,,,,,,,
,,,,,,,,2023-08-16_08h50.08.352,HF_wild_card,2022.2.4,Win32,64.41638753,576b0cc76aed2e0001705386,64d2fd46c836a06233681665,64dc7f4eb4214cff76e6c11c,,,,,,,ctch,resources/DY.BMP,resources/DP.BMP,Door3,-0.302083333,0.0234375,1,0,0,0.5964,optionLeft,70,14545,7,9,0,9,0,1,,,,,,,,,,,,,,,,,,,,,,,,,,,,,,,,,,,,,,,
,,,,,,,,2023-08-16_08h50.08.352,HF_wild_card,2022.2.4,Win32,64.41638753,576b0cc76aed2e0001705386,64d2fd46c836a06233681665,64dc7f4eb4214cff76e6c11c,,,,,,,ctch,resources/DY.BMP,resources/DP.BMP,Door3,-0.22265625,0.005208333,1,0,0,0.5094,optionLeft,70,14615,7,10,0,10,0,1,,,,,,,,,,,,,,,,,,,,,,,,,,,,,,,,,,,,,,,
,,,,,,,,2023-08-16_08h50.08.352,HF_wild_card,2022.2.4,Win32,64.41638753,576b0cc76aed2e0001705386,64d2fd46c836a06233681665,64dc7f4eb4214cff76e6c11c,,,,,,,decisionTrl,resources/DG.BMP,resources/DP.BMP,Door2,0.278645833,0.013020833,1,0,0,0.6926,optionRight,20,14635,7,11,0,11,0,1,,,,,,,,,,,,,,,,,,,,,,,,,,,,,,,,,,,,,,,
,,,,,,,,2023-08-16_08h50.08.352,HF_wild_card,2022.2.4,Win32,64.41638753,576b0cc76aed2e0001705386,64d2fd46c836a06233681665,64dc7f4eb4214cff76e6c11c,,,,,,,decisionTrl,resources/DP.BMP,resources/DG.BMP,Door2,-0.270833333,-0.03515625,1,0,0,0.7914,optionLeft,40,14675,7,12,0,12,0,1,,,,,,,,,,,,,,,,,,,,,,,,,,,,,,,,,,,,,,,
,,,,,,,,2023-08-16_08h50.08.352,HF_wild_card,2022.2.4,Win32,64.41638753,576b0cc76aed2e0001705386,64d2fd46c836a06233681665,64dc7f4eb4214cff76e6c11c,,,,,,,decisionTrl,resources/DP.BMP,resources/DG.BMP,Door1,0.309895833,-0.014322917,1,0,0,0.6778,optionRight,30,14705,7,13,0,13,0,1,,,,,,,,,,,,,,,,,,,,,,,,,,,,,,,,,,,,,,,
,,,,,,,,2023-08-16_08h50.08.352,HF_wild_card,2022.2.4,Win32,64.41638753,576b0cc76aed2e0001705386,64d2fd46c836a06233681665,64dc7f4eb4214cff76e6c11c,,,,,,,decisionTrl,resources/DG.BMP,resources/DP.BMP,Door2,0.30859375,-0.037760417,1,0,0,0.6439,optionRight,20,14725,7,14,0,14,0,1,,,,,,,,,,,,,,,,,,,,,,,,,,,,,,,,,,,,,,,
,,,,,,,,2023-08-16_08h50.08.352,HF_wild_card,2022.2.4,Win32,64.41638753,576b0cc76aed2e0001705386,64d2fd46c836a06233681665,64dc7f4eb4214cff76e6c11c,,,,,,,decisionTrl,resources/DP.BMP,resources/DG.BMP,Door1,0.369791667,0.00390625,1,0,0,0.6643,optionRight,30,14755,7,15,0,15,0,1,,,,,,,,,,,,,,,,,,,,,,,,,,,,,,,,,,,,,,,
,,,,,,,,2023-08-16_08h50.08.352,HF_wild_card,2022.2.4,Win32,64.41638753,576b0cc76aed2e0001705386,64d2fd46c836a06233681665,64dc7f4eb4214cff76e6c11c,,,,,,,decisionTrl,resources/DG.BMP,resources/DP.BMP,Door2,0.330729167,0.009114583,1,0,0,0.6454,optionRight,20,14775,7,16,0,16,0,1,,,,,,,,,,,,,,,,,,,,,,,,,,,,,,,,,,,,,,,
,,,,,,,,2023-08-16_08h50.08.352,HF_wild_card,2022.2.4,Win32,64.41638753,576b0cc76aed2e0001705386,64d2fd46c836a06233681665,64dc7f4eb4214cff76e6c11c,,,,,,,decisionTrl,resources/DG.BMP,resources/DP.BMP,Door1,-0.3046875,0.018229167,1,0,0,0.5747,optionLeft,30,14805,7,17,0,17,0,1,,,,,,,,,,,,,,,,,,,,,,,,,,,,,,,,,,,,,,,
,,,,,,,,2023-08-16_08h50.08.352,HF_wild_card,2022.2.4,Win32,64.41638753,576b0cc76aed2e0001705386,64d2fd46c836a06233681665,64dc7f4eb4214cff76e6c11c,,,,,,,ctch,resources/DY.BMP,resources/DP.BMP,Door3,-0.233072917,-0.03125,1,0,0,0.5653,optionLeft,70,14875,7,18,0,18,0,1,,,,,,,,,,,,,,,,,,,,,,,,,,,,,,,,,,,,,,,
,,,,,,,,2023-08-16_08h50.08.352,HF_wild_card,2022.2.4,Win32,64.41638753,576b0cc76aed2e0001705386,64d2fd46c836a06233681665,64dc7f4eb4214cff76e6c11c,,,,,,,ctch,resources/DG.BMP,resources/DBN.BMP,Door4,0.375,-0.013020833,1,0,0,0.6166,optionRight,80,14955,7,19,0,19,0,1,,,,,,,,,,,,,,,,,,,,,,,,,,,,,,,,,,,,,,,
,,,,,,,,2023-08-16_08h50.08.352,HF_wild_card,2022.2.4,Win32,64.41638753,576b0cc76aed2e0001705386,64d2fd46c836a06233681665,64dc7f4eb4214cff76e6c11c,,,,,,,decisionTrl,resources/DBN.BMP,resources/DY.BMP,Door3,0.33203125,-0.006510417,1,0,0,0.5981,optionRight,70,15025,7,20,0,20,0,1,,,,,,,,,,,,,,,,,,,,,,,,,,,,,,,,,,,,,,,
,,,,,,,,2023-08-16_08h50.08.352,HF_wild_card,2022.2.4,Win32,64.41638753,576b0cc76aed2e0001705386,64d2fd46c836a06233681665,64dc7f4eb4214cff76e6c11c,,,,,,,decisionTrl,resources/DY.BMP,resources/DBN.BMP,Door3,-0.220052083,-0.015625,1,0,0,0.5203,optionLeft,70,15095,7,21,0,21,0,1,,,,,,,,,,,,,,,,,,,,,,,,,,,,,,,,,,,,,,,
,,,,,,,,2023-08-16_08h50.08.352,HF_wild_card,2022.2.4,Win32,64.41638753,576b0cc76aed2e0001705386,64d2fd46c836a06233681665,64dc7f4eb4214cff76e6c11c,,,,,,,decisionTrl,resources/DBN.BMP,resources/DY.BMP,Door3,0.2578125,0.005208333,1,0,0,0.5493,optionRight,70,15165,7,22,0,22,0,1,,,,,,,,,,,,,,,,,,,,,,,,,,,,,,,,,,,,,,,
,,,,,,,,2023-08-16_08h50.08.352,HF_wild_card,2022.2.4,Win32,64.41638753,576b0cc76aed2e0001705386,64d2fd46c836a06233681665,64dc7f4eb4214cff76e6c11c,,,,,,,ctch,resources/DG.BMP,resources/DBN.BMP,Door4,0.328125,-0.048177083,1,0,0,0.6156,optionRight,60,15225,7,23,0,23,0,1,,,,,,,,,,,,,,,,,,,,,,,,,,,,,,,,,,,,,,,
,,,,,,,,2023-08-16_08h50.08.352,HF_wild_card,2022.2.4,Win32,64.41638753,576b0cc76aed2e0001705386,64d2fd46c836a06233681665,64dc7f4eb4214cff76e6c11c,,,,,,,ctch,resources/DBN.BMP,resources/DG.BMP,Door4,-0.26953125,0.00390625,1,0,0,0.5935,optionLeft,80,15305,7,24,0,24,0,1,,,,,,,,,,,,,,,,,,,,,,,,,,,,,,,,,,,,,,,
,,,,,,,,2023-08-16_08h50.08.352,HF_wild_card,2022.2.4,Win32,64.41638753,576b0cc76aed2e0001705386,64d2fd46c836a06233681665,64dc7f4eb4214cff76e6c11c,,,,,,,decisionTrl,resources/DG.BMP,resources/DP.BMP,Door2,0.268229167,-0.006510417,1,0,0,0.7405,optionRight,40,15345,7,25,0,25,0,1,,,,,,,,,,,,,,,,,,,,,,,,,,,,,,,,,,,,,,,
,,,,,,,,2023-08-16_08h50.08.352,HF_wild_card,2022.2.4,Win32,64.41638753,576b0cc76aed2e0001705386,64d2fd46c836a06233681665,64dc7f4eb4214cff76e6c11c,,,,,,,ctch,resources/DG.BMP,resources/DBN.BMP,Door4,0.276041667,0.001302083,1,0,0,0.613,optionRight,60,15405,7,26,0,26,0,1,,,,,,,,,,,,,,,,,,,,,,,,,,,,,,,,,,,,,,,
,,,,,,,,2023-08-16_08h50.08.352,HF_wild_card,2022.2.4,Win32,64.41638753,576b0cc76aed2e0001705386,64d2fd46c836a06233681665,64dc7f4eb4214cff76e6c11c,,,,,,,decisionTrl,resources/DY.BMP,resources/DBN.BMP,Door3,-0.373697917,0.036458333,1,0,0,0.6134,optionLeft,70,15475,7,27,0,27,0,1,,,,,,,,,,,,,,,,,,,,,,,,,,,,,,,,,,,,,,,
,,,,,,,,2023-08-16_08h50.08.352,HF_wild_card,2022.2.4,Win32,64.41638753,576b0cc76aed2e0001705386,64d2fd46c836a06233681665,64dc7f4eb4214cff76e6c11c,,,,,,,ctch,resources/DBN.BMP,resources/DG.BMP,Door4,-0.31640625,0.005208333,1,0,0,0.5643,optionLeft,60,15535,7,28,0,28,0,1,,,,,,,,,,,,,,,,,,,,,,,,,,,,,,,,,,,,,,,
,,,,,,,,2023-08-16_08h50.08.352,HF_wild_card,2022.2.4,Win32,64.41638753,576b0cc76aed2e0001705386,64d2fd46c836a06233681665,64dc7f4eb4214cff76e6c11c,,,,,,,ctch,resources/DP.BMP,resources/DY.BMP,Door3,0.302083333,-0.018229167,1,0,0,0.5957,optionRight,70,15605,7,29,0,29,0,1,,,,,,,,,,,,,,,,,,,,,,,,,,,,,,,,,,,,,,,
,,,,,,,,2023-08-16_08h50.08.352,HF_wild_card,2022.2.4,Win32,64.41638753,576b0cc76aed2e0001705386,64d2fd46c836a06233681665,64dc7f4eb4214cff76e6c11c,,,,,,,decisionTrl,resources/DBN.BMP,resources/DY.BMP,Door3,0.345052083,0.006510417,1,0,0,0.5308,optionRight,70,15675,7,30,0,30,0,1,,,,,,,,,,,,,,,,,,,,,,,,,,,,,,,,,,,,,,,
,,,,,,,,2023-08-16_08h50.08.352,HF_wild_card,2022.2.4,Win32,64.41638753,576b0cc76aed2e0001705386,64d2fd46c836a06233681665,64dc7f4eb4214cff76e6c11c,,,,,,,ctch,resources/DBN.BMP,resources/DG.BMP,Door4,-0.348958333,0.024739583,1,0,0,0.5107,optionLeft,60,15735,7,31,0,31,0,1,,,,,,,,,,,,,,,,,,,,,,,,,,,,,,,,,,,,,,,
,,,,,,,,2023-08-16_08h50.08.352,HF_wild_card,2022.2.4,Win32,64.41638753,576b0cc76aed2e0001705386,64d2fd46c836a06233681665,64dc7f4eb4214cff76e6c11c,,,,,,,decisionTrl,resources/DY.BMP,resources/DBN.BMP,Door3,-0.294270833,-0.0078125,1,0,0,0.581,optionLeft,70,15805,7,32,0,32,0,1,,,,,,,,,,,,,,,,,,,,,,,,,,,,,,,,,,,,,,,
,,,,,,,,2023-08-16_08h50.08.352,HF_wild_card,2022.2.4,Win32,64.41638753,576b0cc76aed2e0001705386,64d2fd46c836a06233681665,64dc7f4eb4214cff76e6c11c,,,,,,,decisionTrl,resources/DP.BMP,resources/DG.BMP,Door1,0.216145833,-0.04296875,1,0,0,0.5972,optionRight,30,15835,7,33,0,33,0,1,,,,,,,,,,,,,,,,,,,,,,,,,,,,,,,,,,,,,,,
,,,,,,,,2023-08-16_08h50.08.352,HF_wild_card,2022.2.4,Win32,64.41638753,576b0cc76aed2e0001705386,64d2fd46c836a06233681665,64dc7f4eb4214cff76e6c11c,,,,,,,decisionTrl,resources/DG.BMP,resources/DP.BMP,Door2,0.352864583,-0.006510417,1,0,0,0.7312,optionRight,20,15855,7,34,0,34,0,1,,,,,,,,,,,,,,,,,,,,,,,,,,,,,,,,,,,,,,,
,,,,,,,,2023-08-16_08h50.08.352,HF_wild_card,2022.2.4,Win32,64.41638753,576b0cc76aed2e0001705386,64d2fd46c836a06233681665,64dc7f4eb4214cff76e6c11c,,,,,,,decisionTrl,resources/DBN.BMP,resources/DY.BMP,Door3,0.434895833,-0.013020833,1,0,0,0.5517,optionRight,70,15925,7,35,0,35,0,1,,,,,,,,,,,,,,,,,,,,,,,,,,,,,,,,,,,,,,,
,,,,,,,,2023-08-16_08h50.08.352,HF_wild_card,2022.2.4,Win32,64.41638753,576b0cc76aed2e0001705386,64d2fd46c836a06233681665,64dc7f4eb4214cff76e6c11c,,,,,,,,,,,,,,,,,,,,,,,,,,6,0,6,0,1,,,,,,,,,,,,,,,,,,,,,,,,,,,,,,,,,,
,,,,,,,,2023-08-16_08h50.08.352,HF_wild_card,2022.2.4,Win32,64.41638753,576b0cc76aed2e0001705386,64d2fd46c836a06233681665,64dc7f4eb4214cff76e6c11c,,,,,,,,,,,,,,,,,,,,,,,,,,,,,,,3,,,,,,,,,,,,,,,,,,,,,,,,,,,,,,,,,
,,,,,,,,2023-08-16_08h50.08.352,HF_wild_card,2022.2.4,Win32,64.41638753,576b0cc76aed2e0001705386,64d2fd46c836a06233681665,64dc7f4eb4214cff76e6c11c,,,,,,,,,,,,,,,,,,,,,,,,,,,,,,,,,,,,,,,,,,,,,,,,,,,,,,,,,,,,,,,,
,,,,,,,,2023-08-16_08h50.08.352,HF_wild_card,2022.2.4,Win32,64.41638753,576b0cc76aed2e0001705386,64d2fd46c836a06233681665,64dc7f4eb4214cff76e6c11c,,,,,,,,,,,,,,,,,,,,,,,,,,,,,,,,70,Door3,resources/DY.BMP,0,0,0,0,1,,,,,,,,,,,,,,,,,,,,,,,,,
,,,,,,,,2023-08-16_08h50.08.352,HF_wild_card,2022.2.4,Win32,64.41638753,576b0cc76aed2e0001705386,64d2fd46c836a06233681665,64dc7f4eb4214cff76e6c11c,,,,,,,,,,,,,,,,,,,,,,,,,,,,,,,,60,Door4,resources/DBN.BMP,1,0,1,0,1,,,,,,,,,,,,,,,,,,,,,,,,,
,,,,,,,,2023-08-16_08h50.08.352,HF_wild_card,2022.2.4,Win32,64.41638753,576b0cc76aed2e0001705386,64d2fd46c836a06233681665,64dc7f4eb4214cff76e6c11c,,,,,,,,,,,,,,,,,,,,,,,,,,,,,,,,30,WC_nonExtreme,resources/DB.BMP,2,0,2,0,1,,,,,,,,,,,,,,,,,,,,,,,,,
,,,,,,,,2023-08-16_08h50.08.352,HF_wild_card,2022.2.4,Win32,64.41638753,576b0cc76aed2e0001705386,64d2fd46c836a06233681665,64dc7f4eb4214cff76e6c11c,,,,,,,,,,,,,,,,,,,,,,,,,,,,,,,,45,WC_extreme,resources/DR.BMP,3,0,3,0,1,,,,,,,,,,,,,,,,,,,,,,,,,
,,,,,,,,2023-08-16_08h50.08.352,HF_wild_card,2022.2.4,Win32,64.41638753,576b0cc76aed2e0001705386,64d2fd46c836a06233681665,64dc7f4eb4214cff76e6c11c,,,,,,,,,,,,,,,,,,,,,,,,,,,,,,,,30,Door2,resources/DP.BMP,4,0,4,0,1,,,,,,,,,,,,,,,,,,,,,,,,,
,,,,,,,,2023-08-16_08h50.08.352,HF_wild_card,2022.2.4,Win32,64.41638753,576b0cc76aed2e0001705386,64d2fd46c836a06233681665,64dc7f4eb4214cff76e6c11c,,,,,,,,,,,,,,,,,,,,,,,,,,,,,,,,20,Door1,resources/DG.BMP,5,0,5,0,1,,,,,,,,,,,,,,,,,,,,,,,,,
,,,,,,,,2023-08-16_08h50.08.352,HF_wild_card,2022.2.4,Win32,64.41638753,576b0cc76aed2e0001705386,64d2fd46c836a06233681665,64dc7f4eb4214cff76e6c11c,,,,,,,,,,,,,,,,,,,,,,,,,,,,,,,,,,,,,,,,,,,,,,,,,,,,,,,,,,,,,,,,
,,,,,,,,2023-08-16_08h50.08.352,HF_wild_card,2022.2.4,Win32,64.41638753,576b0cc76aed2e0001705386,64d2fd46c836a06233681665,64dc7f4eb4214cff76e6c11c,,,,,,,,,,,,,,,,,,,,,,,,,,,,,,,,,,,,,,,,0,0,0,0,1,,,,,,,,,,,,,,,,,,,,
,,,,,,,,2023-08-16_08h50.08.352,HF_wild_card,2022.2.4,Win32,64.41638753,576b0cc76aed2e0001705386,64d2fd46c836a06233681665,64dc7f4eb4214cff76e6c11c,,,,,,,,,,,,,,,,,,,,,,,,,,,,,,,,,,,,,,,,1,0,1,0,1,,,,,,,,,,,,,,,,,,,,
