Condition,Low fixed image (Door1),Low risky image (Door2),High fixed image (Door3),High risky image (Door4),Extreme Wild Card,NonExtreme Wild Card,,date,expName,psychopyVersion,OS,frameRate,PROLIFIC_PID,STUDY_ID,SESSION_ID,mouse_2.x,mouse_2.y,mouse_2.leftButton,mouse_2.midButton,mouse_2.rightButton,mouse_2.clicked_name,Trial Type,Left Option Image,Right Option Image,Chosen Door,mouse.x,mouse.y,mouse.leftButton,mouse.midButton,mouse.rightButton,mouse.time,mouse.clicked_name,Feedback,Cumulative Reward,Block,trial.thisRepN,trial.thisTrialN,trial.thisN,trial.thisIndex,trial.ran,blocks.thisRepN,blocks.thisTrialN,blocks.thisN,blocks.thisIndex,blocks.ran,Money conversion,First Outcome Reported,Shown Door (First Outcome),Displayed Image (First Outcome),outcomes.thisRepN,outcomes.thisTrialN,outcomes.thisN,outcomes.thisIndex,outcomes.ran,judgments.thisRepN,judgments.thisTrialN,judgments.thisN,judgments.thisIndex,judgments.ran,freqMouse.x,freqMouse.y,freqMouse.leftButton,freqMouse.midButton,freqMouse.rightButton,freqMouse.clicked_name,FQJ for first outcome,FQJ for second outcome,Shown Door,Displayed Image,trials.thisRepN,trials.thisTrialN,trials.thisN,trials.thisIndex,trials.ran,judgBlock.thisRepN,judgBlock.thisTrialN,judgBlock.thisN,judgBlock.thisIndex,judgBlock.ran
1,resources/DBN.BMP,resources/DY.BMP,resources/DG.BMP,resources/DR.BMP,resources/DP.BMP,resources/DB.BMP,,2023-08-16_08h43.27.328,HF_wild_card,2022.2.4,Win32,58.82352941,5d598acfe9d3b900212193d7,64d2fd46c836a06233681665,64dc7d735664ea86cae1fce0,,,,,,,,,,,,,,,,,,,,,,,,,,,,,,,,,,,,,,,,,,,,,,,,,,,,,,,,,,,,,,,,
,,,,,,,,2023-08-16_08h43.27.328,HF_wild_card,2022.2.4,Win32,58.82352941,5d598acfe9d3b900212193d7,64d2fd46c836a06233681665,64dc7d735664ea86cae1fce0,0.014444444,-0.424444444,1,0,0,agree,,,,,,,,,,,,,,,,,,,,,,,,,,,,,,,,,,,,,,,,,,,,,,,,,,,,,,,,,,
,,,,,,,,2023-08-16_08h43.27.328,HF_wild_card,2022.2.4,Win32,58.82352941,5d598acfe9d3b900212193d7,64d2fd46c836a06233681665,64dc7d735664ea86cae1fce0,,,,,,,,,,,,,,,,,,,,,,,,,,,,,,,,,,,,,,,,,,,,,,,,,,,,,,,,,,,,,,,,
,,,,,,,,2023-08-16_08h43.27.328,HF_wild_card,2022.2.4,Win32,58.82352941,5d598acfe9d3b900212193d7,64d2fd46c836a06233681665,64dc7d735664ea86cae1fce0,,,,,,,sngl,resources/DBN.BMP,resources/Empty.png,Door1,0.365555556,-0.093333333,1,0,0,5.323,optionLeft,30,30,1,0,0,0,0,1,,,,,,,,,,,,,,,,,,,,,,,,,,,,,,,,,,,,,,,
,,,,,,,,2023-08-16_08h43.27.328,HF_wild_card,2022.2.4,Win32,58.82352941,5d598acfe9d3b900212193d7,64d2fd46c836a06233681665,64dc7d735664ea86cae1fce0,,,,,,,sngl,resources/DY.BMP,resources/Empty.png,Door2,0.308888889,-0.121111111,1,0,0,7.423,optionLeft,40,70,1,1,0,1,0,1,,,,,,,,,,,,,,,,,,,,,,,,,,,,,,,,,,,,,,,
,,,,,,,,2023-08-16_08h43.27.328,HF_wild_card,2022.2.4,Win32,58.82352941,5d598acfe9d3b900212193d7,64d2fd46c836a06233681665,64dc7d735664ea86cae1fce0,,,,,,,decisionTrl,resources/DG.BMP,resources/DR.BMP,Door4,0.373333333,-0.075555556,1,0,0,2.413,optionRight,80,150,1,2,0,2,0,1,,,,,,,,,,,,,,,,,,,,,,,,,,,,,,,,,,,,,,,
,,,,,,,,2023-08-16_08h43.27.328,HF_wild_card,2022.2.4,Win32,58.82352941,5d598acfe9d3b900212193d7,64d2fd46c836a06233681665,64dc7d735664ea86cae1fce0,,,,,,,ctch,resources/DR.BMP,resources/DBN.BMP,Door1,0.412222222,-0.052222222,1,0,0,3.948,optionRight,30,180,1,3,0,3,0,1,,,,,,,,,,,,,,,,,,,,,,,,,,,,,,,,,,,,,,,
,,,,,,,,2023-08-16_08h43.27.328,HF_wild_card,2022.2.4,Win32,58.82352941,5d598acfe9d3b900212193d7,64d2fd46c836a06233681665,64dc7d735664ea86cae1fce0,,,,,,,decisionTrl,resources/DY.BMP,resources/DB.BMP,Door2,-0.374444444,-0.01,1,0,0,1.278,optionLeft,40,220,1,4,0,4,0,1,,,,,,,,,,,,,,,,,,,,,,,,,,,,,,,,,,,,,,,
,,,,,,,,2023-08-16_08h43.27.328,HF_wild_card,2022.2.4,Win32,58.82352941,5d598acfe9d3b900212193d7,64d2fd46c836a06233681665,64dc7d735664ea86cae1fce0,,,,,,,ctch,resources/DG.BMP,resources/DY.BMP,Door2,0.493333333,-0.053333333,1,0,0,1.296,optionRight,40,260,1,5,0,5,0,1,,,,,,,,,,,,,,,,,,,,,,,,,,,,,,,,,,,,,,,
,,,,,,,,2023-08-16_08h43.27.328,HF_wild_card,2022.2.4,Win32,58.82352941,5d598acfe9d3b900212193d7,64d2fd46c836a06233681665,64dc7d735664ea86cae1fce0,,,,,,,decisionTrl,resources/DB.BMP,resources/DR.BMP,Door4,0.432222222,-0.042222222,1,0,0,2.365,optionRight,80,340,1,6,0,6,0,1,,,,,,,,,,,,,,,,,,,,,,,,,,,,,,,,,,,,,,,
,,,,,,,,2023-08-16_08h43.27.328,HF_wild_card,2022.2.4,Win32,58.82352941,5d598acfe9d3b900212193d7,64d2fd46c836a06233681665,64dc7d735664ea86cae1fce0,,,,,,,sngl,resources/DR.BMP,resources/Empty.png,Door4,-0.438888889,-0.008888889,1,0,0,1.28,optionLeft,80,420,1,7,0,7,0,1,,,,,,,,,,,,,,,,,,,,,,,,,,,,,,,,,,,,,,,
,,,,,,,,2023-08-16_08h43.27.328,HF_wild_card,2022.2.4,Win32,58.82352941,5d598acfe9d3b900212193d7,64d2fd46c836a06233681665,64dc7d735664ea86cae1fce0,,,,,,,decisionTrl,resources/DG.BMP,resources/DR.BMP,Door4,0.41,-0.075555556,1,0,0,1.347,optionRight,60,480,1,8,0,8,0,1,,,,,,,,,,,,,,,,,,,,,,,,,,,,,,,,,,,,,,,
,,,,,,,,2023-08-16_08h43.27.328,HF_wild_card,2022.2.4,Win32,58.82352941,5d598acfe9d3b900212193d7,64d2fd46c836a06233681665,64dc7d735664ea86cae1fce0,,,,,,,sngl,resources/Empty.png,resources/DBN.BMP,Door1,0.375555556,-0.007777778,1,0,0,0.983,optionRight,30,510,1,9,0,9,0,1,,,,,,,,,,,,,,,,,,,,,,,,,,,,,,,,,,,,,,,
,,,,,,,,2023-08-16_08h43.27.328,HF_wild_card,2022.2.4,Win32,58.82352941,5d598acfe9d3b900212193d7,64d2fd46c836a06233681665,64dc7d735664ea86cae1fce0,,,,,,,decisionTrl,resources/DG.BMP,resources/DB.BMP,WildCard_NonEx,0.331111111,-0.004444444,1,0,0,3.532,optionRight,55,565,1,10,0,10,0,1,,,,,,,,,,,,,,,,,,,,,,,,,,,,,,,,,,,,,,,
,,,,,,,,2023-08-16_08h43.27.328,HF_wild_card,2022.2.4,Win32,58.82352941,5d598acfe9d3b900212193d7,64d2fd46c836a06233681665,64dc7d735664ea86cae1fce0,,,,,,,ctch,resources/DY.BMP,resources/DG.BMP,Door2,-0.298888889,0.001111111,1,0,0,2.483,optionLeft,20,585,1,11,0,11,0,1,,,,,,,,,,,,,,,,,,,,,,,,,,,,,,,,,,,,,,,
,,,,,,,,2023-08-16_08h43.27.328,HF_wild_card,2022.2.4,Win32,58.82352941,5d598acfe9d3b900212193d7,64d2fd46c836a06233681665,64dc7d735664ea86cae1fce0,,,,,,,decisionTrl,resources/DG.BMP,resources/DR.BMP,Door4,0.414444444,0,1,0,0,3.134,optionRight,60,645,1,12,0,12,0,1,,,,,,,,,,,,,,,,,,,,,,,,,,,,,,,,,,,,,,,
,,,,,,,,2023-08-16_08h43.27.328,HF_wild_card,2022.2.4,Win32,58.82352941,5d598acfe9d3b900212193d7,64d2fd46c836a06233681665,64dc7d735664ea86cae1fce0,,,,,,,decisionTrl,resources/DY.BMP,resources/DBN.BMP,Door1,0.433333333,-0.007777778,1,0,0,1.749,optionRight,30,675,1,13,0,13,0,1,,,,,,,,,,,,,,,,,,,,,,,,,,,,,,,,,,,,,,,
,,,,,,,,2023-08-16_08h43.27.328,HF_wild_card,2022.2.4,Win32,58.82352941,5d598acfe9d3b900212193d7,64d2fd46c836a06233681665,64dc7d735664ea86cae1fce0,,,,,,,decisionTrl,resources/DY.BMP,resources/DBN.BMP,Door2,-0.437777778,-0.034444444,1,0,0,0.866,optionLeft,40,715,1,14,0,14,0,1,,,,,,,,,,,,,,,,,,,,,,,,,,,,,,,,,,,,,,,
,,,,,,,,2023-08-16_08h43.27.328,HF_wild_card,2022.2.4,Win32,58.82352941,5d598acfe9d3b900212193d7,64d2fd46c836a06233681665,64dc7d735664ea86cae1fce0,,,,,,,sngl,resources/Empty.png,resources/DR.BMP,Door4,0.365555556,0,1,0,0,0.897,optionRight,60,775,1,15,0,15,0,1,,,,,,,,,,,,,,,,,,,,,,,,,,,,,,,,,,,,,,,
,,,,,,,,2023-08-16_08h43.27.328,HF_wild_card,2022.2.4,Win32,58.82352941,5d598acfe9d3b900212193d7,64d2fd46c836a06233681665,64dc7d735664ea86cae1fce0,,,,,,,decisionTrl,resources/DR.BMP,resources/DG.BMP,Door3,0.304444444,-0.014444444,1,0,0,2.348,optionRight,70,845,1,16,0,16,0,1,,,,,,,,,,,,,,,,,,,,,,,,,,,,,,,,,,,,,,,
,,,,,,,,2023-08-16_08h43.27.328,HF_wild_card,2022.2.4,Win32,58.82352941,5d598acfe9d3b900212193d7,64d2fd46c836a06233681665,64dc7d735664ea86cae1fce0,,,,,,,ctch,resources/DBN.BMP,resources/DR.BMP,Door1,-0.427777778,-0.011111111,1,0,0,2.956,optionLeft,30,875,1,17,0,17,0,1,,,,,,,,,,,,,,,,,,,,,,,,,,,,,,,,,,,,,,,
,,,,,,,,2023-08-16_08h43.27.328,HF_wild_card,2022.2.4,Win32,58.82352941,5d598acfe9d3b900212193d7,64d2fd46c836a06233681665,64dc7d735664ea86cae1fce0,,,,,,,decisionTrl,resources/DBN.BMP,resources/DY.BMP,Door2,0.373333333,-0.053333333,1,0,0,1.732,optionRight,40,915,1,18,0,18,0,1,,,,,,,,,,,,,,,,,,,,,,,,,,,,,,,,,,,,,,,
,,,,,,,,2023-08-16_08h43.27.328,HF_wild_card,2022.2.4,Win32,58.82352941,5d598acfe9d3b900212193d7,64d2fd46c836a06233681665,64dc7d735664ea86cae1fce0,,,,,,,decisionTrl,resources/DBN.BMP,resources/DY.BMP,Door2,0.401111111,-0.006666667,1,0,0,1.629,optionRight,20,935,1,19,0,19,0,1,,,,,,,,,,,,,,,,,,,,,,,,,,,,,,,,,,,,,,,
,,,,,,,,2023-08-16_08h43.27.328,HF_wild_card,2022.2.4,Win32,58.82352941,5d598acfe9d3b900212193d7,64d2fd46c836a06233681665,64dc7d735664ea86cae1fce0,,,,,,,ctch,resources/DR.BMP,resources/DBN.BMP,Door4,-0.375555556,-0.024444444,1,0,0,2.481,optionLeft,60,995,1,20,0,20,0,1,,,,,,,,,,,,,,,,,,,,,,,,,,,,,,,,,,,,,,,
,,,,,,,,2023-08-16_08h43.27.328,HF_wild_card,2022.2.4,Win32,58.82352941,5d598acfe9d3b900212193d7,64d2fd46c836a06233681665,64dc7d735664ea86cae1fce0,,,,,,,sngl,resources/Empty.png,resources/DG.BMP,Door3,0.307777778,-0.008888889,1,0,0,1.169,optionRight,70,1065,1,21,0,21,0,1,,,,,,,,,,,,,,,,,,,,,,,,,,,,,,,,,,,,,,,
,,,,,,,,2023-08-16_08h43.27.328,HF_wild_card,2022.2.4,Win32,58.82352941,5d598acfe9d3b900212193d7,64d2fd46c836a06233681665,64dc7d735664ea86cae1fce0,,,,,,,decisionTrl,resources/DR.BMP,resources/DG.BMP,Door4,-0.302222222,-0.014444444,1,0,0,1.814,optionLeft,80,1145,1,22,0,22,0,1,,,,,,,,,,,,,,,,,,,,,,,,,,,,,,,,,,,,,,,
,,,,,,,,2023-08-16_08h43.27.328,HF_wild_card,2022.2.4,Win32,58.82352941,5d598acfe9d3b900212193d7,64d2fd46c836a06233681665,64dc7d735664ea86cae1fce0,,,,,,,decisionTrl,resources/DY.BMP,resources/DBN.BMP,Door2,-0.335555556,-0.007777778,1,0,0,0.909,optionLeft,20,1165,1,23,0,23,0,1,,,,,,,,,,,,,,,,,,,,,,,,,,,,,,,,,,,,,,,
,,,,,,,,2023-08-16_08h43.27.328,HF_wild_card,2022.2.4,Win32,58.82352941,5d598acfe9d3b900212193d7,64d2fd46c836a06233681665,64dc7d735664ea86cae1fce0,,,,,,,decisionTrl,resources/DB.BMP,resources/DG.BMP,WildCard_NonEx,-0.382222222,-0.002222222,1,0,0,1.201,optionLeft,45,1210,1,24,0,24,0,1,,,,,,,,,,,,,,,,,,,,,,,,,,,,,,,,,,,,,,,
,,,,,,,,2023-08-16_08h43.27.328,HF_wild_card,2022.2.4,Win32,58.82352941,5d598acfe9d3b900212193d7,64d2fd46c836a06233681665,64dc7d735664ea86cae1fce0,,,,,,,decisionTrl,resources/DR.BMP,resources/DG.BMP,Door4,-0.39,0.005555556,1,0,0,0.913,optionLeft,60,1270,1,25,0,25,0,1,,,,,,,,,,,,,,,,,,,,,,,,,,,,,,,,,,,,,,,
,,,,,,,,2023-08-16_08h43.27.328,HF_wild_card,2022.2.4,Win32,58.82352941,5d598acfe9d3b900212193d7,64d2fd46c836a06233681665,64dc7d735664ea86cae1fce0,,,,,,,ctch,resources/DG.BMP,resources/DY.BMP,Door2,0.488888889,-0.051111111,1,0,0,1.043,optionRight,20,1290,1,26,0,26,0,1,,,,,,,,,,,,,,,,,,,,,,,,,,,,,,,,,,,,,,,
,,,,,,,,2023-08-16_08h43.27.328,HF_wild_card,2022.2.4,Win32,58.82352941,5d598acfe9d3b900212193d7,64d2fd46c836a06233681665,64dc7d735664ea86cae1fce0,,,,,,,decisionTrl,resources/DR.BMP,resources/DG.BMP,Door4,-0.346666667,0.013333333,1,0,0,1.698,optionLeft,80,1370,1,27,0,27,0,1,,,,,,,,,,,,,,,,,,,,,,,,,,,,,,,,,,,,,,,
,,,,,,,,2023-08-16_08h43.27.328,HF_wild_card,2022.2.4,Win32,58.82352941,5d598acfe9d3b900212193d7,64d2fd46c836a06233681665,64dc7d735664ea86cae1fce0,,,,,,,sngl,resources/Empty.png,resources/DB.BMP,WildCard_NonEx,0.38,-0.031111111,1,0,0,0.981,optionRight,45,1415,1,28,0,28,0,1,,,,,,,,,,,,,,,,,,,,,,,,,,,,,,,,,,,,,,,
,,,,,,,,2023-08-16_08h43.27.328,HF_wild_card,2022.2.4,Win32,58.82352941,5d598acfe9d3b900212193d7,64d2fd46c836a06233681665,64dc7d735664ea86cae1fce0,,,,,,,decisionTrl,resources/DB.BMP,resources/DBN.BMP,Door1,0.428888889,-0.015555556,1,0,0,1.882,optionRight,30,1445,1,29,0,29,0,1,,,,,,,,,,,,,,,,,,,,,,,,,,,,,,,,,,,,,,,
,,,,,,,,2023-08-16_08h43.27.328,HF_wild_card,2022.2.4,Win32,58.82352941,5d598acfe9d3b900212193d7,64d2fd46c836a06233681665,64dc7d735664ea86cae1fce0,,,,,,,decisionTrl,resources/DR.BMP,resources/DB.BMP,WildCard_NonEx,0.362222222,-0.016666667,1,0,0,5.068,optionRight,55,1500,1,30,0,30,0,1,,,,,,,,,,,,,,,,,,,,,,,,,,,,,,,,,,,,,,,
,,,,,,,,2023-08-16_08h43.27.328,HF_wild_card,2022.2.4,Win32,58.82352941,5d598acfe9d3b900212193d7,64d2fd46c836a06233681665,64dc7d735664ea86cae1fce0,,,,,,,sngl,resources/DB.BMP,resources/Empty.png,WildCard_NonEx,-0.367777778,-0.015555556,1,0,0,0.881,optionLeft,55,1555,1,31,0,31,0,1,,,,,,,,,,,,,,,,,,,,,,,,,,,,,,,,,,,,,,,
,,,,,,,,2023-08-16_08h43.27.328,HF_wild_card,2022.2.4,Win32,58.82352941,5d598acfe9d3b900212193d7,64d2fd46c836a06233681665,64dc7d735664ea86cae1fce0,,,,,,,sngl,resources/Empty.png,resources/DY.BMP,Door2,0.423333333,-0.041111111,1,0,0,0.813,optionRight,20,1575,1,32,0,32,0,1,,,,,,,,,,,,,,,,,,,,,,,,,,,,,,,,,,,,,,,
,,,,,,,,2023-08-16_08h43.27.328,HF_wild_card,2022.2.4,Win32,58.82352941,5d598acfe9d3b900212193d7,64d2fd46c836a06233681665,64dc7d735664ea86cae1fce0,,,,,,,decisionTrl,resources/DBN.BMP,resources/DY.BMP,Door2,0.297777778,0.003333333,1,0,0,1.617,optionRight,40,1615,1,33,0,33,0,1,,,,,,,,,,,,,,,,,,,,,,,,,,,,,,,,,,,,,,,
,,,,,,,,2023-08-16_08h43.27.328,HF_wild_card,2022.2.4,Win32,58.82352941,5d598acfe9d3b900212193d7,64d2fd46c836a06233681665,64dc7d735664ea86cae1fce0,,,,,,,decisionTrl,resources/DBN.BMP,resources/DY.BMP,Door1,-0.353333333,0.053333333,1,0,0,4.168,optionLeft,30,1645,1,34,0,34,0,1,,,,,,,,,,,,,,,,,,,,,,,,,,,,,,,,,,,,,,,
,,,,,,,,2023-08-16_08h43.27.328,HF_wild_card,2022.2.4,Win32,58.82352941,5d598acfe9d3b900212193d7,64d2fd46c836a06233681665,64dc7d735664ea86cae1fce0,,,,,,,decisionTrl,resources/DY.BMP,resources/DBN.BMP,Door1,0.341111111,-0.012222222,1,0,0,1.73,optionRight,30,1675,1,35,0,35,0,1,,,,,,,,,,,,,,,,,,,,,,,,,,,,,,,,,,,,,,,
,,,,,,,,2023-08-16_08h43.27.328,HF_wild_card,2022.2.4,Win32,58.82352941,5d598acfe9d3b900212193d7,64d2fd46c836a06233681665,64dc7d735664ea86cae1fce0,,,,,,,decisionTrl,resources/DG.BMP,resources/DR.BMP,Door4,0.398888889,-0.012222222,1,0,0,1.399,optionRight,60,1735,1,36,0,36,0,1,,,,,,,,,,,,,,,,,,,,,,,,,,,,,,,,,,,,,,,
,,,,,,,,2023-08-16_08h43.27.328,HF_wild_card,2022.2.4,Win32,58.82352941,5d598acfe9d3b900212193d7,64d2fd46c836a06233681665,64dc7d735664ea86cae1fce0,,,,,,,sngl,resources/Empty.png,resources/DB.BMP,WildCard_NonEx,0.4,-0.032222222,1,0,0,0.798,optionRight,55,1790,1,37,0,37,0,1,,,,,,,,,,,,,,,,,,,,,,,,,,,,,,,,,,,,,,,
,,,,,,,,2023-08-16_08h43.27.328,HF_wild_card,2022.2.4,Win32,58.82352941,5d598acfe9d3b900212193d7,64d2fd46c836a06233681665,64dc7d735664ea86cae1fce0,,,,,,,decisionTrl,resources/DBN.BMP,resources/DB.BMP,Door1,-0.352222222,0.014444444,1,0,0,1.031,optionLeft,30,1820,1,38,0,38,0,1,,,,,,,,,,,,,,,,,,,,,,,,,,,,,,,,,,,,,,,
,,,,,,,,2023-08-16_08h43.27.328,HF_wild_card,2022.2.4,Win32,58.82352941,5d598acfe9d3b900212193d7,64d2fd46c836a06233681665,64dc7d735664ea86cae1fce0,,,,,,,decisionTrl,resources/DB.BMP,resources/DY.BMP,Door2,0.317777778,-0.024444444,1,0,0,1.015,optionRight,40,1860,1,39,0,39,0,1,,,,,,,,,,,,,,,,,,,,,,,,,,,,,,,,,,,,,,,
,,,,,,,,2023-08-16_08h43.27.328,HF_wild_card,2022.2.4,Win32,58.82352941,5d598acfe9d3b900212193d7,64d2fd46c836a06233681665,64dc7d735664ea86cae1fce0,,,,,,,ctch,resources/DY.BMP,resources/DG.BMP,Door2,-0.316666667,-0.015555556,1,0,0,1.015,optionLeft,20,1880,1,40,0,40,0,1,,,,,,,,,,,,,,,,,,,,,,,,,,,,,,,,,,,,,,,
,,,,,,,,2023-08-16_08h43.27.328,HF_wild_card,2022.2.4,Win32,58.82352941,5d598acfe9d3b900212193d7,64d2fd46c836a06233681665,64dc7d735664ea86cae1fce0,,,,,,,sngl,resources/DB.BMP,resources/Empty.png,WildCard_NonEx,-0.318888889,-0.001111111,1,0,0,1.015,optionLeft,45,1925,1,41,0,41,0,1,,,,,,,,,,,,,,,,,,,,,,,,,,,,,,,,,,,,,,,
,,,,,,,,2023-08-16_08h43.27.328,HF_wild_card,2022.2.4,Win32,58.82352941,5d598acfe9d3b900212193d7,64d2fd46c836a06233681665,64dc7d735664ea86cae1fce0,,,,,,,ctch,resources/DBN.BMP,resources/DR.BMP,Door4,0.397777778,0.037777778,1,0,0,2.684,optionRight,80,2005,1,42,0,42,0,1,,,,,,,,,,,,,,,,,,,,,,,,,,,,,,,,,,,,,,,
,,,,,,,,2023-08-16_08h43.27.328,HF_wild_card,2022.2.4,Win32,58.82352941,5d598acfe9d3b900212193d7,64d2fd46c836a06233681665,64dc7d735664ea86cae1fce0,,,,,,,sngl,resources/DG.BMP,resources/Empty.png,Door3,-0.345555556,-0.007777778,1,0,0,1.731,optionLeft,70,2075,1,43,0,43,0,1,,,,,,,,,,,,,,,,,,,,,,,,,,,,,,,,,,,,,,,
,,,,,,,,2023-08-16_08h43.27.328,HF_wild_card,2022.2.4,Win32,58.82352941,5d598acfe9d3b900212193d7,64d2fd46c836a06233681665,64dc7d735664ea86cae1fce0,,,,,,,,,,,,,,,,,,,,,,,,,,0,0,0,0,1,,,,,,,,,,,,,,,,,,,,,,,,,,,,,,,,,,
,,,,,,,,2023-08-16_08h43.27.328,HF_wild_card,2022.2.4,Win32,58.82352941,5d598acfe9d3b900212193d7,64d2fd46c836a06233681665,64dc7d735664ea86cae1fce0,,,,,,,decisionTrl,resources/DG.BMP,resources/DB.BMP,Door3,-0.4,0.002222222,1,0,0,7.65,optionLeft,70,2145,2,0,0,0,0,1,,,,,,,,,,,,,,,,,,,,,,,,,,,,,,,,,,,,,,,
,,,,,,,,2023-08-16_08h43.27.328,HF_wild_card,2022.2.4,Win32,58.82352941,5d598acfe9d3b900212193d7,64d2fd46c836a06233681665,64dc7d735664ea86cae1fce0,,,,,,,sngl,resources/Empty.png,resources/DR.BMP,Door4,0.432222222,-0.06,1,0,0,0.83,optionRight,80,2225,2,1,0,1,0,1,,,,,,,,,,,,,,,,,,,,,,,,,,,,,,,,,,,,,,,
,,,,,,,,2023-08-16_08h43.27.328,HF_wild_card,2022.2.4,Win32,58.82352941,5d598acfe9d3b900212193d7,64d2fd46c836a06233681665,64dc7d735664ea86cae1fce0,,,,,,,decisionTrl,resources/DR.BMP,resources/DB.BMP,Door4,-0.265555556,0.02,1,0,0,1.466,optionLeft,60,2285,2,2,0,2,0,1,,,,,,,,,,,,,,,,,,,,,,,,,,,,,,,,,,,,,,,
,,,,,,,,2023-08-16_08h43.27.328,HF_wild_card,2022.2.4,Win32,58.82352941,5d598acfe9d3b900212193d7,64d2fd46c836a06233681665,64dc7d735664ea86cae1fce0,,,,,,,decisionTrl,resources/DBN.BMP,resources/DY.BMP,Door2,0.492222222,-0.073333333,1,0,0,1.433,optionRight,20,2305,2,3,0,3,0,1,,,,,,,,,,,,,,,,,,,,,,,,,,,,,,,,,,,,,,,
,,,,,,,,2023-08-16_08h43.27.328,HF_wild_card,2022.2.4,Win32,58.82352941,5d598acfe9d3b900212193d7,64d2fd46c836a06233681665,64dc7d735664ea86cae1fce0,,,,,,,decisionTrl,resources/DG.BMP,resources/DR.BMP,Door4,0.306666667,-0.007777778,1,0,0,2.999,optionRight,80,2385,2,4,0,4,0,1,,,,,,,,,,,,,,,,,,,,,,,,,,,,,,,,,,,,,,,
,,,,,,,,2023-08-16_08h43.27.328,HF_wild_card,2022.2.4,Win32,58.82352941,5d598acfe9d3b900212193d7,64d2fd46c836a06233681665,64dc7d735664ea86cae1fce0,,,,,,,decisionTrl,resources/DBN.BMP,resources/DY.BMP,Door1,-0.335555556,0.036666667,1,0,0,2.377,optionLeft,30,2415,2,5,0,5,0,1,,,,,,,,,,,,,,,,,,,,,,,,,,,,,,,,,,,,,,,
,,,,,,,,2023-08-16_08h43.27.328,HF_wild_card,2022.2.4,Win32,58.82352941,5d598acfe9d3b900212193d7,64d2fd46c836a06233681665,64dc7d735664ea86cae1fce0,,,,,,,decisionTrl,resources/DY.BMP,resources/DB.BMP,Door2,-0.49,0.013333333,1,0,0,0.86,optionLeft,40,2455,2,6,0,6,0,1,,,,,,,,,,,,,,,,,,,,,,,,,,,,,,,,,,,,,,,
,,,,,,,,2023-08-16_08h43.27.328,HF_wild_card,2022.2.4,Win32,58.82352941,5d598acfe9d3b900212193d7,64d2fd46c836a06233681665,64dc7d735664ea86cae1fce0,,,,,,,decisionTrl,resources/DG.BMP,resources/DR.BMP,Door4,0.311111111,-0.055555556,1,0,0,0.943,optionRight,80,2535,2,7,0,7,0,1,,,,,,,,,,,,,,,,,,,,,,,,,,,,,,,,,,,,,,,
,,,,,,,,2023-08-16_08h43.27.328,HF_wild_card,2022.2.4,Win32,58.82352941,5d598acfe9d3b900212193d7,64d2fd46c836a06233681665,64dc7d735664ea86cae1fce0,,,,,,,sngl,resources/DR.BMP,resources/Empty.png,Door4,-0.301111111,0.04,1,0,0,0.665,optionLeft,60,2595,2,8,0,8,0,1,,,,,,,,,,,,,,,,,,,,,,,,,,,,,,,,,,,,,,,
,,,,,,,,2023-08-16_08h43.27.328,HF_wild_card,2022.2.4,Win32,58.82352941,5d598acfe9d3b900212193d7,64d2fd46c836a06233681665,64dc7d735664ea86cae1fce0,,,,,,,decisionTrl,resources/DY.BMP,resources/DBN.BMP,Door2,-0.325555556,-0.007777778,1,0,0,0.914,optionLeft,40,2635,2,9,0,9,0,1,,,,,,,,,,,,,,,,,,,,,,,,,,,,,,,,,,,,,,,
,,,,,,,,2023-08-16_08h43.27.328,HF_wild_card,2022.2.4,Win32,58.82352941,5d598acfe9d3b900212193d7,64d2fd46c836a06233681665,64dc7d735664ea86cae1fce0,,,,,,,ctch,resources/DR.BMP,resources/DBN.BMP,Door1,0.377777778,-0.025555556,1,0,0,0.646,optionRight,30,2665,2,10,0,10,0,1,,,,,,,,,,,,,,,,,,,,,,,,,,,,,,,,,,,,,,,
,,,,,,,,2023-08-16_08h43.27.328,HF_wild_card,2022.2.4,Win32,58.82352941,5d598acfe9d3b900212193d7,64d2fd46c836a06233681665,64dc7d735664ea86cae1fce0,,,,,,,decisionTrl,resources/DY.BMP,resources/DBN.BMP,Door2,-0.383333333,0.01,1,0,0,0.608,optionLeft,40,2705,2,11,0,11,0,1,,,,,,,,,,,,,,,,,,,,,,,,,,,,,,,,,,,,,,,
,,,,,,,,2023-08-16_08h43.27.328,HF_wild_card,2022.2.4,Win32,58.82352941,5d598acfe9d3b900212193d7,64d2fd46c836a06233681665,64dc7d735664ea86cae1fce0,,,,,,,ctch,resources/DG.BMP,resources/DY.BMP,Door2,0.376666667,-0.051111111,1,0,0,0.719,optionRight,40,2745,2,12,0,12,0,1,,,,,,,,,,,,,,,,,,,,,,,,,,,,,,,,,,,,,,,
,,,,,,,,2023-08-16_08h43.27.328,HF_wild_card,2022.2.4,Win32,58.82352941,5d598acfe9d3b900212193d7,64d2fd46c836a06233681665,64dc7d735664ea86cae1fce0,,,,,,,decisionTrl,resources/DB.BMP,resources/DG.BMP,Door3,0.395555556,-0.056666667,1,0,0,2.403,optionRight,70,2815,2,13,0,13,0,1,,,,,,,,,,,,,,,,,,,,,,,,,,,,,,,,,,,,,,,
,,,,,,,,2023-08-16_08h43.27.328,HF_wild_card,2022.2.4,Win32,58.82352941,5d598acfe9d3b900212193d7,64d2fd46c836a06233681665,64dc7d735664ea86cae1fce0,,,,,,,ctch,resources/DBN.BMP,resources/DR.BMP,Door1,-0.303333333,0.011111111,1,0,0,1.714,optionLeft,30,2845,2,14,0,14,0,1,,,,,,,,,,,,,,,,,,,,,,,,,,,,,,,,,,,,,,,
,,,,,,,,2023-08-16_08h43.27.328,HF_wild_card,2022.2.4,Win32,58.82352941,5d598acfe9d3b900212193d7,64d2fd46c836a06233681665,64dc7d735664ea86cae1fce0,,,,,,,ctch,resources/DR.BMP,resources/DBN.BMP,Door1,0.391111111,0.026666667,1,0,0,3.621,optionRight,30,2875,2,15,0,15,0,1,,,,,,,,,,,,,,,,,,,,,,,,,,,,,,,,,,,,,,,
,,,,,,,,2023-08-16_08h43.27.328,HF_wild_card,2022.2.4,Win32,58.82352941,5d598acfe9d3b900212193d7,64d2fd46c836a06233681665,64dc7d735664ea86cae1fce0,,,,,,,decisionTrl,resources/DR.BMP,resources/DG.BMP,Door4,-0.367777778,0.005555556,1,0,0,1.314,optionLeft,60,2935,2,16,0,16,0,1,,,,,,,,,,,,,,,,,,,,,,,,,,,,,,,,,,,,,,,
,,,,,,,,2023-08-16_08h43.27.328,HF_wild_card,2022.2.4,Win32,58.82352941,5d598acfe9d3b900212193d7,64d2fd46c836a06233681665,64dc7d735664ea86cae1fce0,,,,,,,sngl,resources/DY.BMP,resources/Empty.png,Door2,-0.232222222,-0.008888889,1,0,0,0.745,optionLeft,20,2955,2,17,0,17,0,1,,,,,,,,,,,,,,,,,,,,,,,,,,,,,,,,,,,,,,,
,,,,,,,,2023-08-16_08h43.27.328,HF_wild_card,2022.2.4,Win32,58.82352941,5d598acfe9d3b900212193d7,64d2fd46c836a06233681665,64dc7d735664ea86cae1fce0,,,,,,,sngl,resources/Empty.png,resources/DB.BMP,WildCard_NonEx,0.487777778,-0.066666667,1,0,0,0.781,optionRight,55,3010,2,18,0,18,0,1,,,,,,,,,,,,,,,,,,,,,,,,,,,,,,,,,,,,,,,
,,,,,,,,2023-08-16_08h43.27.328,HF_wild_card,2022.2.4,Win32,58.82352941,5d598acfe9d3b900212193d7,64d2fd46c836a06233681665,64dc7d735664ea86cae1fce0,,,,,,,decisionTrl,resources/DR.BMP,resources/DG.BMP,Door3,0.271111111,-0.007777778,1,0,0,4.518,optionRight,70,3080,2,19,0,19,0,1,,,,,,,,,,,,,,,,,,,,,,,,,,,,,,,,,,,,,,,
,,,,,,,,2023-08-16_08h43.27.328,HF_wild_card,2022.2.4,Win32,58.82352941,5d598acfe9d3b900212193d7,64d2fd46c836a06233681665,64dc7d735664ea86cae1fce0,,,,,,,sngl,resources/DB.BMP,resources/Empty.png,WildCard_NonEx,-0.4,0.03,1,0,0,0.615,optionLeft,55,3135,2,20,0,20,0,1,,,,,,,,,,,,,,,,,,,,,,,,,,,,,,,,,,,,,,,
,,,,,,,,2023-08-16_08h43.27.328,HF_wild_card,2022.2.4,Win32,58.82352941,5d598acfe9d3b900212193d7,64d2fd46c836a06233681665,64dc7d735664ea86cae1fce0,,,,,,,sngl,resources/DG.BMP,resources/Empty.png,Door3,-0.284444444,-0.001111111,1,0,0,0.848,optionLeft,70,3205,2,21,0,21,0,1,,,,,,,,,,,,,,,,,,,,,,,,,,,,,,,,,,,,,,,
,,,,,,,,2023-08-16_08h43.27.328,HF_wild_card,2022.2.4,Win32,58.82352941,5d598acfe9d3b900212193d7,64d2fd46c836a06233681665,64dc7d735664ea86cae1fce0,,,,,,,decisionTrl,resources/DY.BMP,resources/DBN.BMP,Door2,-0.321111111,0.002222222,1,0,0,1.249,optionLeft,40,3245,2,22,0,22,0,1,,,,,,,,,,,,,,,,,,,,,,,,,,,,,,,,,,,,,,,
,,,,,,,,2023-08-16_08h43.27.328,HF_wild_card,2022.2.4,Win32,58.82352941,5d598acfe9d3b900212193d7,64d2fd46c836a06233681665,64dc7d735664ea86cae1fce0,,,,,,,decisionTrl,resources/DR.BMP,resources/DG.BMP,Door4,-0.517777778,0.025555556,1,0,0,1.932,optionLeft,80,3325,2,23,0,23,0,1,,,,,,,,,,,,,,,,,,,,,,,,,,,,,,,,,,,,,,,
,,,,,,,,2023-08-16_08h43.27.328,HF_wild_card,2022.2.4,Win32,58.82352941,5d598acfe9d3b900212193d7,64d2fd46c836a06233681665,64dc7d735664ea86cae1fce0,,,,,,,ctch,resources/DY.BMP,resources/DG.BMP,Door2,-0.332222222,0.044444444,1,0,0,2.083,optionLeft,20,3345,2,24,0,24,0,1,,,,,,,,,,,,,,,,,,,,,,,,,,,,,,,,,,,,,,,
,,,,,,,,2023-08-16_08h43.27.328,HF_wild_card,2022.2.4,Win32,58.82352941,5d598acfe9d3b900212193d7,64d2fd46c836a06233681665,64dc7d735664ea86cae1fce0,,,,,,,ctch,resources/DG.BMP,resources/DY.BMP,Door2,0.463333333,-0.05,1,0,0,2.433,optionRight,20,3365,2,25,0,25,0,1,,,,,,,,,,,,,,,,,,,,,,,,,,,,,,,,,,,,,,,
,,,,,,,,2023-08-16_08h43.27.328,HF_wild_card,2022.2.4,Win32,58.82352941,5d598acfe9d3b900212193d7,64d2fd46c836a06233681665,64dc7d735664ea86cae1fce0,,,,,,,decisionTrl,resources/DG.BMP,resources/DR.BMP,Door3,-0.244444444,0.037777778,1,0,0,0.681,optionLeft,70,3435,2,26,0,26,0,1,,,,,,,,,,,,,,,,,,,,,,,,,,,,,,,,,,,,,,,
,,,,,,,,2023-08-16_08h43.27.328,HF_wild_card,2022.2.4,Win32,58.82352941,5d598acfe9d3b900212193d7,64d2fd46c836a06233681665,64dc7d735664ea86cae1fce0,,,,,,,ctch,resources/DBN.BMP,resources/DR.BMP,Door4,0.362222222,0.041111111,1,0,0,0.881,optionRight,60,3495,2,27,0,27,0,1,,,,,,,,,,,,,,,,,,,,,,,,,,,,,,,,,,,,,,,
,,,,,,,,2023-08-16_08h43.27.328,HF_wild_card,2022.2.4,Win32,58.82352941,5d598acfe9d3b900212193d7,64d2fd46c836a06233681665,64dc7d735664ea86cae1fce0,,,,,,,decisionTrl,resources/DBN.BMP,resources/DB.BMP,WildCard_NonEx,0.343333333,-0.01,1,0,0,1.298,optionRight,45,3540,2,28,0,28,0,1,,,,,,,,,,,,,,,,,,,,,,,,,,,,,,,,,,,,,,,
,,,,,,,,2023-08-16_08h43.27.328,HF_wild_card,2022.2.4,Win32,58.82352941,5d598acfe9d3b900212193d7,64d2fd46c836a06233681665,64dc7d735664ea86cae1fce0,,,,,,,sngl,resources/Empty.png,resources/DY.BMP,Door2,0.29,-0.024444444,1,0,0,0.715,optionRight,40,3580,2,29,0,29,0,1,,,,,,,,,,,,,,,,,,,,,,,,,,,,,,,,,,,,,,,
,,,,,,,,2023-08-16_08h43.27.328,HF_wild_card,2022.2.4,Win32,58.82352941,5d598acfe9d3b900212193d7,64d2fd46c836a06233681665,64dc7d735664ea86cae1fce0,,,,,,,decisionTrl,resources/DB.BMP,resources/DBN.BMP,Door1,0.405555556,-0.014444444,1,0,0,1.049,optionRight,30,3610,2,30,0,30,0,1,,,,,,,,,,,,,,,,,,,,,,,,,,,,,,,,,,,,,,,
,,,,,,,,2023-08-16_08h43.27.328,HF_wild_card,2022.2.4,Win32,58.82352941,5d598acfe9d3b900212193d7,64d2fd46c836a06233681665,64dc7d735664ea86cae1fce0,,,,,,,decisionTrl,resources/DY.BMP,resources/DBN.BMP,Door2,-0.272222222,0.01,1,0,0,0.747,optionLeft,40,3650,2,31,0,31,0,1,,,,,,,,,,,,,,,,,,,,,,,,,,,,,,,,,,,,,,,
,,,,,,,,2023-08-16_08h43.27.328,HF_wild_card,2022.2.4,Win32,58.82352941,5d598acfe9d3b900212193d7,64d2fd46c836a06233681665,64dc7d735664ea86cae1fce0,,,,,,,decisionTrl,resources/DB.BMP,resources/DR.BMP,Door4,0.316666667,0.045555556,1,0,0,1.915,optionRight,80,3730,2,32,0,32,0,1,,,,,,,,,,,,,,,,,,,,,,,,,,,,,,,,,,,,,,,
,,,,,,,,2023-08-16_08h43.27.328,HF_wild_card,2022.2.4,Win32,58.82352941,5d598acfe9d3b900212193d7,64d2fd46c836a06233681665,64dc7d735664ea86cae1fce0,,,,,,,ctch,resources/DY.BMP,resources/DG.BMP,Door2,-0.316666667,0.03,1,0,0,1.398,optionLeft,40,3770,2,33,0,33,0,1,,,,,,,,,,,,,,,,,,,,,,,,,,,,,,,,,,,,,,,
,,,,,,,,2023-08-16_08h43.27.328,HF_wild_card,2022.2.4,Win32,58.82352941,5d598acfe9d3b900212193d7,64d2fd46c836a06233681665,64dc7d735664ea86cae1fce0,,,,,,,sngl,resources/Empty.png,resources/DBN.BMP,Door1,0.44,-0.011111111,1,0,0,0.699,optionRight,30,3800,2,34,0,34,0,1,,,,,,,,,,,,,,,,,,,,,,,,,,,,,,,,,,,,,,,
,,,,,,,,2023-08-16_08h43.27.328,HF_wild_card,2022.2.4,Win32,58.82352941,5d598acfe9d3b900212193d7,64d2fd46c836a06233681665,64dc7d735664ea86cae1fce0,,,,,,,sngl,resources/DBN.BMP,resources/Empty.png,Door1,-0.318888889,0.005555556,1,0,0,0.947,optionLeft,30,3830,2,35,0,35,0,1,,,,,,,,,,,,,,,,,,,,,,,,,,,,,,,,,,,,,,,
,,,,,,,,2023-08-16_08h43.27.328,HF_wild_card,2022.2.4,Win32,58.82352941,5d598acfe9d3b900212193d7,64d2fd46c836a06233681665,64dc7d735664ea86cae1fce0,,,,,,,sngl,resources/DB.BMP,resources/Empty.png,WildCard_NonEx,-0.506666667,-0.002222222,1,0,0,0.715,optionLeft,45,3875,2,36,0,36,0,1,,,,,,,,,,,,,,,,,,,,,,,,,,,,,,,,,,,,,,,
,,,,,,,,2023-08-16_08h43.27.328,HF_wild_card,2022.2.4,Win32,58.82352941,5d598acfe9d3b900212193d7,64d2fd46c836a06233681665,64dc7d735664ea86cae1fce0,,,,,,,decisionTrl,resources/DBN.BMP,resources/DY.BMP,Door1,-0.488888889,-0.002222222,1,0,0,0.98,optionLeft,30,3905,2,37,0,37,0,1,,,,,,,,,,,,,,,,,,,,,,,,,,,,,,,,,,,,,,,
,,,,,,,,2023-08-16_08h43.27.328,HF_wild_card,2022.2.4,Win32,58.82352941,5d598acfe9d3b900212193d7,64d2fd46c836a06233681665,64dc7d735664ea86cae1fce0,,,,,,,sngl,resources/Empty.png,resources/DB.BMP,WildCard_NonEx,0.374444444,-0.043333333,1,0,0,0.647,optionRight,45,3950,2,38,0,38,0,1,,,,,,,,,,,,,,,,,,,,,,,,,,,,,,,,,,,,,,,
,,,,,,,,2023-08-16_08h43.27.328,HF_wild_card,2022.2.4,Win32,58.82352941,5d598acfe9d3b900212193d7,64d2fd46c836a06233681665,64dc7d735664ea86cae1fce0,,,,,,,decisionTrl,resources/DR.BMP,resources/DG.BMP,Door4,-0.347777778,-0.03,1,0,0,11.725,optionLeft,60,4010,2,39,0,39,0,1,,,,,,,,,,,,,,,,,,,,,,,,,,,,,,,,,,,,,,,
,,,,,,,,2023-08-16_08h43.27.328,HF_wild_card,2022.2.4,Win32,58.82352941,5d598acfe9d3b900212193d7,64d2fd46c836a06233681665,64dc7d735664ea86cae1fce0,,,,,,,sngl,resources/Empty.png,resources/DG.BMP,Door3,0.414444444,-0.048888889,1,0,0,1.384,optionRight,70,4080,2,40,0,40,0,1,,,,,,,,,,,,,,,,,,,,,,,,,,,,,,,,,,,,,,,
,,,,,,,,2023-08-16_08h43.27.328,HF_wild_card,2022.2.4,Win32,58.82352941,5d598acfe9d3b900212193d7,64d2fd46c836a06233681665,64dc7d735664ea86cae1fce0,,,,,,,decisionTrl,resources/DB.BMP,resources/DY.BMP,WildCard_NonEx,-0.354444444,-0.031111111,1,0,0,1.358,optionLeft,55,4135,2,41,0,41,0,1,,,,,,,,,,,,,,,,,,,,,,,,,,,,,,,,,,,,,,,
,,,,,,,,2023-08-16_08h43.27.328,HF_wild_card,2022.2.4,Win32,58.82352941,5d598acfe9d3b900212193d7,64d2fd46c836a06233681665,64dc7d735664ea86cae1fce0,,,,,,,decisionTrl,resources/DG.BMP,resources/DR.BMP,Door3,-0.347777778,-0.043333333,1,0,0,1.832,optionLeft,70,4205,2,42,0,42,0,1,,,,,,,,,,,,,,,,,,,,,,,,,,,,,,,,,,,,,,,
,,,,,,,,2023-08-16_08h43.27.328,HF_wild_card,2022.2.4,Win32,58.82352941,5d598acfe9d3b900212193d7,64d2fd46c836a06233681665,64dc7d735664ea86cae1fce0,,,,,,,decisionTrl,resources/DBN.BMP,resources/DY.BMP,Door1,-0.336666667,-0.03,1,0,0,0.955,optionLeft,30,4235,2,43,0,43,0,1,,,,,,,,,,,,,,,,,,,,,,,,,,,,,,,,,,,,,,,
,,,,,,,,2023-08-16_08h43.27.328,HF_wild_card,2022.2.4,Win32,58.82352941,5d598acfe9d3b900212193d7,64d2fd46c836a06233681665,64dc7d735664ea86cae1fce0,,,,,,,,,,,,,,,,,,,,,,,,,,1,0,1,0,1,,,,,,,,,,,,,,,,,,,,,,,,,,,,,,,,,,
,,,,,,,,2023-08-16_08h43.27.328,HF_wild_card,2022.2.4,Win32,58.82352941,5d598acfe9d3b900212193d7,64d2fd46c836a06233681665,64dc7d735664ea86cae1fce0,,,,,,,sngl,resources/DG.BMP,resources/Empty.png,Door3,-0.307777778,-0.038888889,1,0,0,1.194,optionLeft,70,4305,3,0,0,0,0,1,,,,,,,,,,,,,,,,,,,,,,,,,,,,,,,,,,,,,,,
,,,,,,,,2023-08-16_08h43.27.328,HF_wild_card,2022.2.4,Win32,58.82352941,5d598acfe9d3b900212193d7,64d2fd46c836a06233681665,64dc7d735664ea86cae1fce0,,,,,,,decisionTrl,resources/DR.BMP,resources/DG.BMP,Door4,-0.371111111,-0.074444444,1,0,0,1.83,optionLeft,80,4385,3,1,0,1,0,1,,,,,,,,,,,,,,,,,,,,,,,,,,,,,,,,,,,,,,,
,,,,,,,,2023-08-16_08h43.27.328,HF_wild_card,2022.2.4,Win32,58.82352941,5d598acfe9d3b900212193d7,64d2fd46c836a06233681665,64dc7d735664ea86cae1fce0,,,,,,,decisionTrl,resources/DB.BMP,resources/DR.BMP,Door4,0.424444444,-0.041111111,1,0,0,2.935,optionRight,60,4445,3,2,0,2,0,1,,,,,,,,,,,,,,,,,,,,,,,,,,,,,,,,,,,,,,,
,,,,,,,,2023-08-16_08h43.27.328,HF_wild_card,2022.2.4,Win32,58.82352941,5d598acfe9d3b900212193d7,64d2fd46c836a06233681665,64dc7d735664ea86cae1fce0,,,,,,,sngl,resources/Empty.png,resources/DR.BMP,Door4,0.373333333,-0.014444444,1,0,0,0.614,optionRight,60,4505,3,3,0,3,0,1,,,,,,,,,,,,,,,,,,,,,,,,,,,,,,,,,,,,,,,
,,,,,,,,2023-08-16_08h43.27.328,HF_wild_card,2022.2.4,Win32,58.82352941,5d598acfe9d3b900212193d7,64d2fd46c836a06233681665,64dc7d735664ea86cae1fce0,,,,,,,sngl,resources/Empty.png,resources/DY.BMP,Door2,0.384444444,-0.076666667,1,0,0,2.165,optionRight,20,4525,3,4,0,4,0,1,,,,,,,,,,,,,,,,,,,,,,,,,,,,,,,,,,,,,,,
,,,,,,,,2023-08-16_08h43.27.328,HF_wild_card,2022.2.4,Win32,58.82352941,5d598acfe9d3b900212193d7,64d2fd46c836a06233681665,64dc7d735664ea86cae1fce0,,,,,,,decisionTrl,resources/DBN.BMP,resources/DY.BMP,Door1,-0.516666667,-0.015555556,1,0,0,4.334,optionLeft,30,4555,3,5,0,5,0,1,,,,,,,,,,,,,,,,,,,,,,,,,,,,,,,,,,,,,,,
,,,,,,,,2023-08-16_08h43.27.328,HF_wild_card,2022.2.4,Win32,58.82352941,5d598acfe9d3b900212193d7,64d2fd46c836a06233681665,64dc7d735664ea86cae1fce0,,,,,,,decisionTrl,resources/DG.BMP,resources/DR.BMP,Door3,-0.318888889,-0.032222222,1,0,0,2.801,optionLeft,70,4625,3,6,0,6,0,1,,,,,,,,,,,,,,,,,,,,,,,,,,,,,,,,,,,,,,,
,,,,,,,,2023-08-16_08h43.27.328,HF_wild_card,2022.2.4,Win32,58.82352941,5d598acfe9d3b900212193d7,64d2fd46c836a06233681665,64dc7d735664ea86cae1fce0,,,,,,,ctch,resources/DG.BMP,resources/DY.BMP,Door3,-0.312222222,0.058888889,1,0,0,3.834,optionLeft,70,4695,3,7,0,7,0,1,,,,,,,,,,,,,,,,,,,,,,,,,,,,,,,,,,,,,,,
,,,,,,,,2023-08-16_08h43.27.328,HF_wild_card,2022.2.4,Win32,58.82352941,5d598acfe9d3b900212193d7,64d2fd46c836a06233681665,64dc7d735664ea86cae1fce0,,,,,,,decisionTrl,resources/DG.BMP,resources/DB.BMP,WildCard_NonEx,0.335555556,-0.102222222,1,0,0,3.398,optionRight,45,4740,3,8,0,8,0,1,,,,,,,,,,,,,,,,,,,,,,,,,,,,,,,,,,,,,,,
,,,,,,,,2023-08-16_08h43.27.328,HF_wild_card,2022.2.4,Win32,58.82352941,5d598acfe9d3b900212193d7,64d2fd46c836a06233681665,64dc7d735664ea86cae1fce0,,,,,,,decisionTrl,resources/DB.BMP,resources/DY.BMP,WildCard_NonEx,-0.362222222,-0.063333333,1,0,0,3.715,optionLeft,45,4785,3,9,0,9,0,1,,,,,,,,,,,,,,,,,,,,,,,,,,,,,,,,,,,,,,,
,,,,,,,,2023-08-16_08h43.27.328,HF_wild_card,2022.2.4,Win32,58.82352941,5d598acfe9d3b900212193d7,64d2fd46c836a06233681665,64dc7d735664ea86cae1fce0,,,,,,,sngl,resources/DBN.BMP,resources/Empty.png,Door1,-0.333333333,0.004444444,1,0,0,2.081,optionLeft,30,4815,3,10,0,10,0,1,,,,,,,,,,,,,,,,,,,,,,,,,,,,,,,,,,,,,,,
,,,,,,,,2023-08-16_08h43.27.328,HF_wild_card,2022.2.4,Win32,58.82352941,5d598acfe9d3b900212193d7,64d2fd46c836a06233681665,64dc7d735664ea86cae1fce0,,,,,,,sngl,resources/DY.BMP,resources/Empty.png,Door2,-0.24,0.004444444,1,0,0,1.198,optionLeft,40,4855,3,11,0,11,0,1,,,,,,,,,,,,,,,,,,,,,,,,,,,,,,,,,,,,,,,
,,,,,,,,2023-08-16_08h43.27.328,HF_wild_card,2022.2.4,Win32,58.82352941,5d598acfe9d3b900212193d7,64d2fd46c836a06233681665,64dc7d735664ea86cae1fce0,,,,,,,decisionTrl,resources/DG.BMP,resources/DR.BMP,Door3,-0.367777778,-0.058888889,1,0,0,2.647,optionLeft,70,4925,3,12,0,12,0,1,,,,,,,,,,,,,,,,,,,,,,,,,,,,,,,,,,,,,,,
,,,,,,,,2023-08-16_08h43.27.328,HF_wild_card,2022.2.4,Win32,58.82352941,5d598acfe9d3b900212193d7,64d2fd46c836a06233681665,64dc7d735664ea86cae1fce0,,,,,,,decisionTrl,resources/DBN.BMP,resources/DY.BMP,Door1,-0.175555556,-0.052222222,1,0,0,2.983,optionLeft,30,4955,3,13,0,13,0,1,,,,,,,,,,,,,,,,,,,,,,,,,,,,,,,,,,,,,,,
,,,,,,,,2023-08-16_08h43.27.328,HF_wild_card,2022.2.4,Win32,58.82352941,5d598acfe9d3b900212193d7,64d2fd46c836a06233681665,64dc7d735664ea86cae1fce0,,,,,,,sngl,resources/Empty.png,resources/DBN.BMP,Door1,0.341111111,-0.036666667,1,0,0,1.848,optionRight,30,4985,3,14,0,14,0,1,,,,,,,,,,,,,,,,,,,,,,,,,,,,,,,,,,,,,,,
,,,,,,,,2023-08-16_08h43.27.328,HF_wild_card,2022.2.4,Win32,58.82352941,5d598acfe9d3b900212193d7,64d2fd46c836a06233681665,64dc7d735664ea86cae1fce0,,,,,,,ctch,resources/DBN.BMP,resources/DR.BMP,Door4,0.33,-0.072222222,1,0,0,4.771,optionRight,60,5045,3,15,0,15,0,1,,,,,,,,,,,,,,,,,,,,,,,,,,,,,,,,,,,,,,,
,,,,,,,,2023-08-16_08h43.27.328,HF_wild_card,2022.2.4,Win32,58.82352941,5d598acfe9d3b900212193d7,64d2fd46c836a06233681665,64dc7d735664ea86cae1fce0,,,,,,,decisionTrl,resources/DR.BMP,resources/DG.BMP,Door4,-0.402222222,-0.007777778,1,0,0,5.385,optionLeft,60,5105,3,16,0,16,0,1,,,,,,,,,,,,,,,,,,,,,,,,,,,,,,,,,,,,,,,
,,,,,,,,2023-08-16_08h43.27.328,HF_wild_card,2022.2.4,Win32,58.82352941,5d598acfe9d3b900212193d7,64d2fd46c836a06233681665,64dc7d735664ea86cae1fce0,,,,,,,decisionTrl,resources/DB.BMP,resources/DBN.BMP,WildCard_NonEx,-0.326666667,-0.005555556,1,0,0,2.615,optionLeft,45,5150,3,17,0,17,0,1,,,,,,,,,,,,,,,,,,,,,,,,,,,,,,,,,,,,,,,
,,,,,,,,2023-08-16_08h43.27.328,HF_wild_card,2022.2.4,Win32,58.82352941,5d598acfe9d3b900212193d7,64d2fd46c836a06233681665,64dc7d735664ea86cae1fce0,,,,,,,sngl,resources/Empty.png,resources/DG.BMP,Door3,0.412222222,-0.058888889,1,0,0,2.618,optionRight,70,5220,3,18,0,18,0,1,,,,,,,,,,,,,,,,,,,,,,,,,,,,,,,,,,,,,,,
,,,,,,,,2023-08-16_08h43.27.328,HF_wild_card,2022.2.4,Win32,58.82352941,5d598acfe9d3b900212193d7,64d2fd46c836a06233681665,64dc7d735664ea86cae1fce0,,,,,,,decisionTrl,resources/DG.BMP,resources/DR.BMP,Door3,-0.34,-0.044444444,1,0,0,5.434,optionLeft,70,5290,3,19,0,19,0,1,,,,,,,,,,,,,,,,,,,,,,,,,,,,,,,,,,,,,,,
,,,,,,,,2023-08-16_08h43.27.328,HF_wild_card,2022.2.4,Win32,58.82352941,5d598acfe9d3b900212193d7,64d2fd46c836a06233681665,64dc7d735664ea86cae1fce0,,,,,,,sngl,resources/DB.BMP,resources/Empty.png,WildCard_NonEx,-0.274444444,0.005555556,1,0,0,2.947,optionLeft,45,5335,3,20,0,20,0,1,,,,,,,,,,,,,,,,,,,,,,,,,,,,,,,,,,,,,,,
,,,,,,,,2023-08-16_08h43.27.328,HF_wild_card,2022.2.4,Win32,58.82352941,5d598acfe9d3b900212193d7,64d2fd46c836a06233681665,64dc7d735664ea86cae1fce0,,,,,,,decisionTrl,resources/DY.BMP,resources/DBN.BMP,Door2,-0.232222222,-0.031111111,1,0,0,3.45,optionLeft,20,5355,3,21,0,21,0,1,,,,,,,,,,,,,,,,,,,,,,,,,,,,,,,,,,,,,,,
,,,,,,,,2023-08-16_08h43.27.328,HF_wild_card,2022.2.4,Win32,58.82352941,5d598acfe9d3b900212193d7,64d2fd46c836a06233681665,64dc7d735664ea86cae1fce0,,,,,,,decisionTrl,resources/DR.BMP,resources/DG.BMP,Door4,-0.416666667,-0.007777778,1,0,0,5.584,optionLeft,80,5435,3,22,0,22,0,1,,,,,,,,,,,,,,,,,,,,,,,,,,,,,,,,,,,,,,,
,,,,,,,,2023-08-16_08h43.27.328,HF_wild_card,2022.2.4,Win32,58.82352941,5d598acfe9d3b900212193d7,64d2fd46c836a06233681665,64dc7d735664ea86cae1fce0,,,,,,,ctch,resources/DR.BMP,resources/DBN.BMP,Door4,-0.315555556,-0.022222222,1,0,0,1.449,optionLeft,60,5495,3,23,0,23,0,1,,,,,,,,,,,,,,,,,,,,,,,,,,,,,,,,,,,,,,,
,,,,,,,,2023-08-16_08h43.27.328,HF_wild_card,2022.2.4,Win32,58.82352941,5d598acfe9d3b900212193d7,64d2fd46c836a06233681665,64dc7d735664ea86cae1fce0,,,,,,,decisionTrl,resources/DBN.BMP,resources/DB.BMP,WildCard_NonEx,0.626666667,-0.157777778,1,0,0,2.898,optionRight,45,5540,3,24,0,24,0,1,,,,,,,,,,,,,,,,,,,,,,,,,,,,,,,,,,,,,,,
,,,,,,,,2023-08-16_08h43.27.328,HF_wild_card,2022.2.4,Win32,58.82352941,5d598acfe9d3b900212193d7,64d2fd46c836a06233681665,64dc7d735664ea86cae1fce0,,,,,,,sngl,resources/DR.BMP,resources/Empty.png,Door4,-0.321111111,0.014444444,1,0,0,1.264,optionLeft,80,5620,3,25,0,25,0,1,,,,,,,,,,,,,,,,,,,,,,,,,,,,,,,,,,,,,,,
,,,,,,,,2023-08-16_08h43.27.328,HF_wild_card,2022.2.4,Win32,58.82352941,5d598acfe9d3b900212193d7,64d2fd46c836a06233681665,64dc7d735664ea86cae1fce0,,,,,,,decisionTrl,resources/DY.BMP,resources/DBN.BMP,Door2,-0.26,-0.044444444,1,0,0,3.048,optionLeft,40,5660,3,26,0,26,0,1,,,,,,,,,,,,,,,,,,,,,,,,,,,,,,,,,,,,,,,
,,,,,,,,2023-08-16_08h43.27.328,HF_wild_card,2022.2.4,Win32,58.82352941,5d598acfe9d3b900212193d7,64d2fd46c836a06233681665,64dc7d735664ea86cae1fce0,,,,,,,decisionTrl,resources/DY.BMP,resources/DBN.BMP,Door2,-0.318888889,-0.024444444,1,0,0,1.398,optionLeft,20,5680,3,27,0,27,0,1,,,,,,,,,,,,,,,,,,,,,,,,,,,,,,,,,,,,,,,
,,,,,,,,2023-08-16_08h43.27.328,HF_wild_card,2022.2.4,Win32,58.82352941,5d598acfe9d3b900212193d7,64d2fd46c836a06233681665,64dc7d735664ea86cae1fce0,,,,,,,decisionTrl,resources/DG.BMP,resources/DR.BMP,Door3,-0.354444444,-0.006666667,1,0,0,3.901,optionLeft,70,5750,3,28,0,28,0,1,,,,,,,,,,,,,,,,,,,,,,,,,,,,,,,,,,,,,,,
,,,,,,,,2023-08-16_08h43.27.328,HF_wild_card,2022.2.4,Win32,58.82352941,5d598acfe9d3b900212193d7,64d2fd46c836a06233681665,64dc7d735664ea86cae1fce0,,,,,,,ctch,resources/DG.BMP,resources/DY.BMP,Door3,-0.317777778,-0.004444444,1,0,0,4.434,optionLeft,70,5820,3,29,0,29,0,1,,,,,,,,,,,,,,,,,,,,,,,,,,,,,,,,,,,,,,,
,,,,,,,,2023-08-16_08h43.27.328,HF_wild_card,2022.2.4,Win32,58.82352941,5d598acfe9d3b900212193d7,64d2fd46c836a06233681665,64dc7d735664ea86cae1fce0,,,,,,,ctch,resources/DBN.BMP,resources/DR.BMP,Door4,0.44,-0.048888889,1,0,0,2.382,optionRight,80,5900,3,30,0,30,0,1,,,,,,,,,,,,,,,,,,,,,,,,,,,,,,,,,,,,,,,
,,,,,,,,2023-08-16_08h43.27.328,HF_wild_card,2022.2.4,Win32,58.82352941,5d598acfe9d3b900212193d7,64d2fd46c836a06233681665,64dc7d735664ea86cae1fce0,,,,,,,ctch,resources/DR.BMP,resources/DBN.BMP,Door4,-0.434444444,-0.012222222,1,0,0,2.115,optionLeft,60,5960,3,31,0,31,0,1,,,,,,,,,,,,,,,,,,,,,,,,,,,,,,,,,,,,,,,
,,,,,,,,2023-08-16_08h43.27.328,HF_wild_card,2022.2.4,Win32,58.82352941,5d598acfe9d3b900212193d7,64d2fd46c836a06233681665,64dc7d735664ea86cae1fce0,,,,,,,sngl,resources/DB.BMP,resources/Empty.png,WildCard_NonEx,-0.3,-0.01,1,0,0,3.949,optionLeft,55,6015,3,32,0,32,0,1,,,,,,,,,,,,,,,,,,,,,,,,,,,,,,,,,,,,,,,
,,,,,,,,2023-08-16_08h43.27.328,HF_wild_card,2022.2.4,Win32,58.82352941,5d598acfe9d3b900212193d7,64d2fd46c836a06233681665,64dc7d735664ea86cae1fce0,,,,,,,ctch,resources/DY.BMP,resources/DG.BMP,Door3,0.46,-0.167777778,1,0,0,4.067,optionRight,70,6085,3,33,0,33,0,1,,,,,,,,,,,,,,,,,,,,,,,,,,,,,,,,,,,,,,,
,,,,,,,,2023-08-16_08h43.27.328,HF_wild_card,2022.2.4,Win32,58.82352941,5d598acfe9d3b900212193d7,64d2fd46c836a06233681665,64dc7d735664ea86cae1fce0,,,,,,,decisionTrl,resources/DBN.BMP,resources/DY.BMP,Door1,-0.363333333,0.02,1,0,0,3.917,optionLeft,30,6115,3,34,0,34,0,1,,,,,,,,,,,,,,,,,,,,,,,,,,,,,,,,,,,,,,,
,,,,,,,,2023-08-16_08h43.27.328,HF_wild_card,2022.2.4,Win32,58.82352941,5d598acfe9d3b900212193d7,64d2fd46c836a06233681665,64dc7d735664ea86cae1fce0,,,,,,,decisionTrl,resources/DR.BMP,resources/DG.BMP,Door4,-0.398888889,-0.061111111,1,0,0,2.265,optionLeft,60,6175,3,35,0,35,0,1,,,,,,,,,,,,,,,,,,,,,,,,,,,,,,,,,,,,,,,
,,,,,,,,2023-08-16_08h43.27.328,HF_wild_card,2022.2.4,Win32,58.82352941,5d598acfe9d3b900212193d7,64d2fd46c836a06233681665,64dc7d735664ea86cae1fce0,,,,,,,sngl,resources/Empty.png,resources/DB.BMP,WildCard_NonEx,0.524444444,-0.081111111,1,0,0,2.548,optionRight,45,6220,3,36,0,36,0,1,,,,,,,,,,,,,,,,,,,,,,,,,,,,,,,,,,,,,,,
,,,,,,,,2023-08-16_08h43.27.328,HF_wild_card,2022.2.4,Win32,58.82352941,5d598acfe9d3b900212193d7,64d2fd46c836a06233681665,64dc7d735664ea86cae1fce0,,,,,,,decisionTrl,resources/DR.BMP,resources/DB.BMP,Door4,-0.263333333,-0.053333333,1,0,0,1.914,optionLeft,80,6300,3,37,0,37,0,1,,,,,,,,,,,,,,,,,,,,,,,,,,,,,,,,,,,,,,,
,,,,,,,,2023-08-16_08h43.27.328,HF_wild_card,2022.2.4,Win32,58.82352941,5d598acfe9d3b900212193d7,64d2fd46c836a06233681665,64dc7d735664ea86cae1fce0,,,,,,,decisionTrl,resources/DB.BMP,resources/DG.BMP,Door3,0.357777778,-0.17,1,0,0,3.418,optionRight,70,6370,3,38,0,38,0,1,,,,,,,,,,,,,,,,,,,,,,,,,,,,,,,,,,,,,,,
,,,,,,,,2023-08-16_08h43.27.328,HF_wild_card,2022.2.4,Win32,58.82352941,5d598acfe9d3b900212193d7,64d2fd46c836a06233681665,64dc7d735664ea86cae1fce0,,,,,,,sngl,resources/Empty.png,resources/DB.BMP,WildCard_NonEx,0.431111111,-0.082222222,1,0,0,1.397,optionRight,55,6425,3,39,0,39,0,1,,,,,,,,,,,,,,,,,,,,,,,,,,,,,,,,,,,,,,,
,,,,,,,,2023-08-16_08h43.27.328,HF_wild_card,2022.2.4,Win32,58.82352941,5d598acfe9d3b900212193d7,64d2fd46c836a06233681665,64dc7d735664ea86cae1fce0,,,,,,,decisionTrl,resources/DY.BMP,resources/DB.BMP,WildCard_NonEx,0.548888889,-0.088888889,1,0,0,3.216,optionRight,55,6480,3,40,0,40,0,1,,,,,,,,,,,,,,,,,,,,,,,,,,,,,,,,,,,,,,,
,,,,,,,,2023-08-16_08h43.27.328,HF_wild_card,2022.2.4,Win32,58.82352941,5d598acfe9d3b900212193d7,64d2fd46c836a06233681665,64dc7d735664ea86cae1fce0,,,,,,,decisionTrl,resources/DY.BMP,resources/DBN.BMP,Door2,-0.255555556,0.044444444,1,0,0,2.264,optionLeft,40,6520,3,41,0,41,0,1,,,,,,,,,,,,,,,,,,,,,,,,,,,,,,,,,,,,,,,
,,,,,,,,2023-08-16_08h43.27.328,HF_wild_card,2022.2.4,Win32,58.82352941,5d598acfe9d3b900212193d7,64d2fd46c836a06233681665,64dc7d735664ea86cae1fce0,,,,,,,ctch,resources/DY.BMP,resources/DG.BMP,Door3,0.635555556,-0.124444444,1,0,0,2.232,optionRight,70,6590,3,42,0,42,0,1,,,,,,,,,,,,,,,,,,,,,,,,,,,,,,,,,,,,,,,
,,,,,,,,2023-08-16_08h43.27.328,HF_wild_card,2022.2.4,Win32,58.82352941,5d598acfe9d3b900212193d7,64d2fd46c836a06233681665,64dc7d735664ea86cae1fce0,,,,,,,decisionTrl,resources/DBN.BMP,resources/DY.BMP,Door1,-0.357777778,0.05,1,0,0,4.049,optionLeft,30,6620,3,43,0,43,0,1,,,,,,,,,,,,,,,,,,,,,,,,,,,,,,,,,,,,,,,
,,,,,,,,2023-08-16_08h43.27.328,HF_wild_card,2022.2.4,Win32,58.82352941,5d598acfe9d3b900212193d7,64d2fd46c836a06233681665,64dc7d735664ea86cae1fce0,,,,,,,,,,,,,,,,,,,,,,,,,,2,0,2,0,1,,,,,,,,,,,,,,,,,,,,,,,,,,,,,,,,,,
,,,,,,,,2023-08-16_08h43.27.328,HF_wild_card,2022.2.4,Win32,58.82352941,5d598acfe9d3b900212193d7,64d2fd46c836a06233681665,64dc7d735664ea86cae1fce0,,,,,,,sngl,resources/Empty.png,resources/DY.BMP,Door2,0.323333333,-0.093333333,1,0,0,8.301,optionRight,40,6660,4,0,0,0,0,1,,,,,,,,,,,,,,,,,,,,,,,,,,,,,,,,,,,,,,,
,,,,,,,,2023-08-16_08h43.27.328,HF_wild_card,2022.2.4,Win32,58.82352941,5d598acfe9d3b900212193d7,64d2fd46c836a06233681665,64dc7d735664ea86cae1fce0,,,,,,,sngl,resources/DP.BMP,resources/Empty.png,WildCard_Ex,-0.414444444,-0.093333333,1,0,0,1.899,optionLeft,5,6665,4,1,0,1,0,1,,,,,,,,,,,,,,,,,,,,,,,,,,,,,,,,,,,,,,,
,,,,,,,,2023-08-16_08h43.27.328,HF_wild_card,2022.2.4,Win32,58.82352941,5d598acfe9d3b900212193d7,64d2fd46c836a06233681665,64dc7d735664ea86cae1fce0,,,,,,,decisionTrl,resources/DY.BMP,resources/DP.BMP,Door2,-0.368888889,-0.063333333,1,0,0,0.981,optionLeft,20,6685,4,2,0,2,0,1,,,,,,,,,,,,,,,,,,,,,,,,,,,,,,,,,,,,,,,
,,,,,,,,2023-08-16_08h43.27.328,HF_wild_card,2022.2.4,Win32,58.82352941,5d598acfe9d3b900212193d7,64d2fd46c836a06233681665,64dc7d735664ea86cae1fce0,,,,,,,sngl,resources/Empty.png,resources/DR.BMP,Door4,0.345555556,-0.06,1,0,0,1.015,optionRight,80,6765,4,3,0,3,0,1,,,,,,,,,,,,,,,,,,,,,,,,,,,,,,,,,,,,,,,
,,,,,,,,2023-08-16_08h43.27.328,HF_wild_card,2022.2.4,Win32,58.82352941,5d598acfe9d3b900212193d7,64d2fd46c836a06233681665,64dc7d735664ea86cae1fce0,,,,,,,decisionTrl,resources/DY.BMP,resources/DBN.BMP,Door2,-0.321111111,-0.063333333,1,0,0,1.632,optionLeft,20,6785,4,4,0,4,0,1,,,,,,,,,,,,,,,,,,,,,,,,,,,,,,,,,,,,,,,
,,,,,,,,2023-08-16_08h43.27.328,HF_wild_card,2022.2.4,Win32,58.82352941,5d598acfe9d3b900212193d7,64d2fd46c836a06233681665,64dc7d735664ea86cae1fce0,,,,,,,decisionTrl,resources/DP.BMP,resources/DG.BMP,Door3,0.376666667,-0.056666667,1,0,0,1.698,optionRight,70,6855,4,5,0,5,0,1,,,,,,,,,,,,,,,,,,,,,,,,,,,,,,,,,,,,,,,
,,,,,,,,2023-08-16_08h43.27.328,HF_wild_card,2022.2.4,Win32,58.82352941,5d598acfe9d3b900212193d7,64d2fd46c836a06233681665,64dc7d735664ea86cae1fce0,,,,,,,decisionTrl,resources/DR.BMP,resources/DG.BMP,Door4,-0.372222222,-0.013333333,1,0,0,2.549,optionLeft,80,6935,4,6,0,6,0,1,,,,,,,,,,,,,,,,,,,,,,,,,,,,,,,,,,,,,,,
,,,,,,,,2023-08-16_08h43.27.328,HF_wild_card,2022.2.4,Win32,58.82352941,5d598acfe9d3b900212193d7,64d2fd46c836a06233681665,64dc7d735664ea86cae1fce0,,,,,,,decisionTrl,resources/DP.BMP,resources/DY.BMP,WildCard_Ex,-0.265555556,-0.042222222,1,0,0,2.016,optionLeft,5,6940,4,7,0,7,0,1,,,,,,,,,,,,,,,,,,,,,,,,,,,,,,,,,,,,,,,
,,,,,,,,2023-08-16_08h43.27.328,HF_wild_card,2022.2.4,Win32,58.82352941,5d598acfe9d3b900212193d7,64d2fd46c836a06233681665,64dc7d735664ea86cae1fce0,,,,,,,sngl,resources/Empty.png,resources/DBN.BMP,Door1,0.257777778,-0.038888889,1,0,0,0.731,optionRight,30,6970,4,8,0,8,0,1,,,,,,,,,,,,,,,,,,,,,,,,,,,,,,,,,,,,,,,
,,,,,,,,2023-08-16_08h43.27.328,HF_wild_card,2022.2.4,Win32,58.82352941,5d598acfe9d3b900212193d7,64d2fd46c836a06233681665,64dc7d735664ea86cae1fce0,,,,,,,decisionTrl,resources/DG.BMP,resources/DR.BMP,Door3,-0.384444444,-0.027777778,1,0,0,2.682,optionLeft,70,7040,4,9,0,9,0,1,,,,,,,,,,,,,,,,,,,,,,,,,,,,,,,,,,,,,,,
,,,,,,,,2023-08-16_08h43.27.328,HF_wild_card,2022.2.4,Win32,58.82352941,5d598acfe9d3b900212193d7,64d2fd46c836a06233681665,64dc7d735664ea86cae1fce0,,,,,,,decisionTrl,resources/DR.BMP,resources/DP.BMP,WildCard_Ex,0.353333333,-0.054444444,1,0,0,1.096,optionRight,5,7045,4,10,0,10,0,1,,,,,,,,,,,,,,,,,,,,,,,,,,,,,,,,,,,,,,,
,,,,,,,,2023-08-16_08h43.27.328,HF_wild_card,2022.2.4,Win32,58.82352941,5d598acfe9d3b900212193d7,64d2fd46c836a06233681665,64dc7d735664ea86cae1fce0,,,,,,,decisionTrl,resources/DP.BMP,resources/DR.BMP,Door4,0.453333333,-0.061111111,1,0,0,0.913,optionRight,60,7105,4,11,0,11,0,1,,,,,,,,,,,,,,,,,,,,,,,,,,,,,,,,,,,,,,,
,,,,,,,,2023-08-16_08h43.27.328,HF_wild_card,2022.2.4,Win32,58.82352941,5d598acfe9d3b900212193d7,64d2fd46c836a06233681665,64dc7d735664ea86cae1fce0,,,,,,,decisionTrl,resources/DBN.BMP,resources/DP.BMP,Door1,-0.365555556,0.076666667,1,0,0,0.913,optionLeft,30,7135,4,12,0,12,0,1,,,,,,,,,,,,,,,,,,,,,,,,,,,,,,,,,,,,,,,
,,,,,,,,2023-08-16_08h43.27.328,HF_wild_card,2022.2.4,Win32,58.82352941,5d598acfe9d3b900212193d7,64d2fd46c836a06233681665,64dc7d735664ea86cae1fce0,,,,,,,sngl,resources/DG.BMP,resources/Empty.png,Door3,-0.266666667,0.002222222,1,0,0,0.781,optionLeft,70,7205,4,13,0,13,0,1,,,,,,,,,,,,,,,,,,,,,,,,,,,,,,,,,,,,,,,
,,,,,,,,2023-08-16_08h43.27.328,HF_wild_card,2022.2.4,Win32,58.82352941,5d598acfe9d3b900212193d7,64d2fd46c836a06233681665,64dc7d735664ea86cae1fce0,,,,,,,sngl,resources/DP.BMP,resources/Empty.png,WildCard_Ex,-0.325555556,-0.001111111,1,0,0,0.797,optionLeft,95,7300,4,14,0,14,0,1,,,,,,,,,,,,,,,,,,,,,,,,,,,,,,,,,,,,,,,
,,,,,,,,2023-08-16_08h43.27.328,HF_wild_card,2022.2.4,Win32,58.82352941,5d598acfe9d3b900212193d7,64d2fd46c836a06233681665,64dc7d735664ea86cae1fce0,,,,,,,decisionTrl,resources/DG.BMP,resources/DP.BMP,Door3,-0.323333333,-0.014444444,1,0,0,1.398,optionLeft,70,7370,4,15,0,15,0,1,,,,,,,,,,,,,,,,,,,,,,,,,,,,,,,,,,,,,,,
,,,,,,,,2023-08-16_08h43.27.328,HF_wild_card,2022.2.4,Win32,58.82352941,5d598acfe9d3b900212193d7,64d2fd46c836a06233681665,64dc7d735664ea86cae1fce0,,,,,,,ctch,resources/DY.BMP,resources/DG.BMP,Door3,0.24,-0.113333333,1,0,0,2.616,optionRight,70,7440,4,16,0,16,0,1,,,,,,,,,,,,,,,,,,,,,,,,,,,,,,,,,,,,,,,
,,,,,,,,2023-08-16_08h43.27.328,HF_wild_card,2022.2.4,Win32,58.82352941,5d598acfe9d3b900212193d7,64d2fd46c836a06233681665,64dc7d735664ea86cae1fce0,,,,,,,decisionTrl,resources/DR.BMP,resources/DG.BMP,Door4,-0.28,-0.028888889,1,0,0,2.167,optionLeft,60,7500,4,17,0,17,0,1,,,,,,,,,,,,,,,,,,,,,,,,,,,,,,,,,,,,,,,
,,,,,,,,2023-08-16_08h43.27.328,HF_wild_card,2022.2.4,Win32,58.82352941,5d598acfe9d3b900212193d7,64d2fd46c836a06233681665,64dc7d735664ea86cae1fce0,,,,,,,decisionTrl,resources/DBN.BMP,resources/DY.BMP,Door1,-0.632222222,0.047777778,1,0,0,2.448,optionLeft,30,7530,4,18,0,18,0,1,,,,,,,,,,,,,,,,,,,,,,,,,,,,,,,,,,,,,,,
,,,,,,,,2023-08-16_08h43.27.328,HF_wild_card,2022.2.4,Win32,58.82352941,5d598acfe9d3b900212193d7,64d2fd46c836a06233681665,64dc7d735664ea86cae1fce0,,,,,,,sngl,resources/DY.BMP,resources/Empty.png,Door2,-0.261111111,-0.025555556,1,0,0,0.782,optionLeft,20,7550,4,19,0,19,0,1,,,,,,,,,,,,,,,,,,,,,,,,,,,,,,,,,,,,,,,
,,,,,,,,2023-08-16_08h43.27.328,HF_wild_card,2022.2.4,Win32,58.82352941,5d598acfe9d3b900212193d7,64d2fd46c836a06233681665,64dc7d735664ea86cae1fce0,,,,,,,decisionTrl,resources/DR.BMP,resources/DG.BMP,Door4,-0.413333333,-0.022222222,1,0,0,2.181,optionLeft,80,7630,4,20,0,20,0,1,,,,,,,,,,,,,,,,,,,,,,,,,,,,,,,,,,,,,,,
,,,,,,,,2023-08-16_08h43.27.328,HF_wild_card,2022.2.4,Win32,58.82352941,5d598acfe9d3b900212193d7,64d2fd46c836a06233681665,64dc7d735664ea86cae1fce0,,,,,,,sngl,resources/DBN.BMP,resources/Empty.png,Door1,-0.405555556,-0.051111111,1,0,0,0.863,optionLeft,30,7660,4,21,0,21,0,1,,,,,,,,,,,,,,,,,,,,,,,,,,,,,,,,,,,,,,,
,,,,,,,,2023-08-16_08h43.27.328,HF_wild_card,2022.2.4,Win32,58.82352941,5d598acfe9d3b900212193d7,64d2fd46c836a06233681665,64dc7d735664ea86cae1fce0,,,,,,,ctch,resources/DBN.BMP,resources/DR.BMP,Door4,0.202222222,-0.112222222,1,0,0,3.299,optionRight,80,7740,4,22,0,22,0,1,,,,,,,,,,,,,,,,,,,,,,,,,,,,,,,,,,,,,,,
,,,,,,,,2023-08-16_08h43.27.328,HF_wild_card,2022.2.4,Win32,58.82352941,5d598acfe9d3b900212193d7,64d2fd46c836a06233681665,64dc7d735664ea86cae1fce0,,,,,,,decisionTrl,resources/DR.BMP,resources/DG.BMP,Door4,-0.342222222,-0.05,1,0,0,4.415,optionLeft,80,7820,4,23,0,23,0,1,,,,,,,,,,,,,,,,,,,,,,,,,,,,,,,,,,,,,,,
,,,,,,,,2023-08-16_08h43.27.328,HF_wild_card,2022.2.4,Win32,58.82352941,5d598acfe9d3b900212193d7,64d2fd46c836a06233681665,64dc7d735664ea86cae1fce0,,,,,,,ctch,resources/DG.BMP,resources/DY.BMP,Door3,-0.361111111,-0.05,1,0,0,1.832,optionLeft,70,7890,4,24,0,24,0,1,,,,,,,,,,,,,,,,,,,,,,,,,,,,,,,,,,,,,,,
,,,,,,,,2023-08-16_08h43.27.328,HF_wild_card,2022.2.4,Win32,58.82352941,5d598acfe9d3b900212193d7,64d2fd46c836a06233681665,64dc7d735664ea86cae1fce0,,,,,,,decisionTrl,resources/DBN.BMP,resources/DY.BMP,Door1,-0.38,-0.012222222,1,0,0,1.58,optionLeft,30,7920,4,25,0,25,0,1,,,,,,,,,,,,,,,,,,,,,,,,,,,,,,,,,,,,,,,
,,,,,,,,2023-08-16_08h43.27.328,HF_wild_card,2022.2.4,Win32,58.82352941,5d598acfe9d3b900212193d7,64d2fd46c836a06233681665,64dc7d735664ea86cae1fce0,,,,,,,ctch,resources/DY.BMP,resources/DG.BMP,Door3,0.347777778,-0.067777778,1,0,0,3.484,optionRight,70,7990,4,26,0,26,0,1,,,,,,,,,,,,,,,,,,,,,,,,,,,,,,,,,,,,,,,
,,,,,,,,2023-08-16_08h43.27.328,HF_wild_card,2022.2.4,Win32,58.82352941,5d598acfe9d3b900212193d7,64d2fd46c836a06233681665,64dc7d735664ea86cae1fce0,,,,,,,ctch,resources/DBN.BMP,resources/DR.BMP,Door4,0.382222222,-0.073333333,1,0,0,2.599,optionRight,80,8070,4,27,0,27,0,1,,,,,,,,,,,,,,,,,,,,,,,,,,,,,,,,,,,,,,,
,,,,,,,,2023-08-16_08h43.27.328,HF_wild_card,2022.2.4,Win32,58.82352941,5d598acfe9d3b900212193d7,64d2fd46c836a06233681665,64dc7d735664ea86cae1fce0,,,,,,,sngl,resources/Empty.png,resources/DG.BMP,Door3,0.327777778,-0.054444444,1,0,0,1.364,optionRight,70,8140,4,28,0,28,0,1,,,,,,,,,,,,,,,,,,,,,,,,,,,,,,,,,,,,,,,
,,,,,,,,2023-08-16_08h43.27.328,HF_wild_card,2022.2.4,Win32,58.82352941,5d598acfe9d3b900212193d7,64d2fd46c836a06233681665,64dc7d735664ea86cae1fce0,,,,,,,ctch,resources/DR.BMP,resources/DBN.BMP,Door4,-0.375555556,-0.018888889,1,0,0,2.65,optionLeft,80,8220,4,29,0,29,0,1,,,,,,,,,,,,,,,,,,,,,,,,,,,,,,,,,,,,,,,
,,,,,,,,2023-08-16_08h43.27.328,HF_wild_card,2022.2.4,Win32,58.82352941,5d598acfe9d3b900212193d7,64d2fd46c836a06233681665,64dc7d735664ea86cae1fce0,,,,,,,decisionTrl,resources/DBN.BMP,resources/DY.BMP,Door1,-0.278888889,-0.011111111,1,0,0,0.996,optionLeft,30,8250,4,30,0,30,0,1,,,,,,,,,,,,,,,,,,,,,,,,,,,,,,,,,,,,,,,
,,,,,,,,2023-08-16_08h43.27.328,HF_wild_card,2022.2.4,Win32,58.82352941,5d598acfe9d3b900212193d7,64d2fd46c836a06233681665,64dc7d735664ea86cae1fce0,,,,,,,decisionTrl,resources/DP.BMP,resources/DBN.BMP,Door1,0.471111111,-0.051111111,1,0,0,2.583,optionRight,30,8280,4,31,0,31,0,1,,,,,,,,,,,,,,,,,,,,,,,,,,,,,,,,,,,,,,,
,,,,,,,,2023-08-16_08h43.27.328,HF_wild_card,2022.2.4,Win32,58.82352941,5d598acfe9d3b900212193d7,64d2fd46c836a06233681665,64dc7d735664ea86cae1fce0,,,,,,,sngl,resources/Empty.png,resources/DP.BMP,WildCard_Ex,0.344444444,-0.045555556,1,0,0,0.696,optionRight,5,8285,4,32,0,32,0,1,,,,,,,,,,,,,,,,,,,,,,,,,,,,,,,,,,,,,,,
,,,,,,,,2023-08-16_08h43.27.328,HF_wild_card,2022.2.4,Win32,58.82352941,5d598acfe9d3b900212193d7,64d2fd46c836a06233681665,64dc7d735664ea86cae1fce0,,,,,,,decisionTrl,resources/DY.BMP,resources/DBN.BMP,Door2,-0.266666667,-0.018888889,1,0,0,2.315,optionLeft,40,8325,4,33,0,33,0,1,,,,,,,,,,,,,,,,,,,,,,,,,,,,,,,,,,,,,,,
,,,,,,,,2023-08-16_08h43.27.328,HF_wild_card,2022.2.4,Win32,58.82352941,5d598acfe9d3b900212193d7,64d2fd46c836a06233681665,64dc7d735664ea86cae1fce0,,,,,,,decisionTrl,resources/DY.BMP,resources/DBN.BMP,Door1,0.32,-0.013333333,1,0,0,1.482,optionRight,30,8355,4,34,0,34,0,1,,,,,,,,,,,,,,,,,,,,,,,,,,,,,,,,,,,,,,,
,,,,,,,,2023-08-16_08h43.27.328,HF_wild_card,2022.2.4,Win32,58.82352941,5d598acfe9d3b900212193d7,64d2fd46c836a06233681665,64dc7d735664ea86cae1fce0,,,,,,,decisionTrl,resources/DBN.BMP,resources/DY.BMP,Door1,-0.328888889,-0.007777778,1,0,0,2.149,optionLeft,30,8385,4,35,0,35,0,1,,,,,,,,,,,,,,,,,,,,,,,,,,,,,,,,,,,,,,,
,,,,,,,,2023-08-16_08h43.27.328,HF_wild_card,2022.2.4,Win32,58.82352941,5d598acfe9d3b900212193d7,64d2fd46c836a06233681665,64dc7d735664ea86cae1fce0,,,,,,,decisionTrl,resources/DY.BMP,resources/DBN.BMP,Door2,-0.288888889,-0.016666667,1,0,0,1.481,optionLeft,20,8405,4,36,0,36,0,1,,,,,,,,,,,,,,,,,,,,,,,,,,,,,,,,,,,,,,,
,,,,,,,,2023-08-16_08h43.27.328,HF_wild_card,2022.2.4,Win32,58.82352941,5d598acfe9d3b900212193d7,64d2fd46c836a06233681665,64dc7d735664ea86cae1fce0,,,,,,,decisionTrl,resources/DG.BMP,resources/DR.BMP,Door3,-0.412222222,-0.01,1,0,0,1.783,optionLeft,70,8475,4,37,0,37,0,1,,,,,,,,,,,,,,,,,,,,,,,,,,,,,,,,,,,,,,,
,,,,,,,,2023-08-16_08h43.27.328,HF_wild_card,2022.2.4,Win32,58.82352941,5d598acfe9d3b900212193d7,64d2fd46c836a06233681665,64dc7d735664ea86cae1fce0,,,,,,,ctch,resources/DG.BMP,resources/DY.BMP,Door3,-0.267777778,-0.005555556,1,0,0,1.765,optionLeft,70,8545,4,38,0,38,0,1,,,,,,,,,,,,,,,,,,,,,,,,,,,,,,,,,,,,,,,
,,,,,,,,2023-08-16_08h43.27.328,HF_wild_card,2022.2.4,Win32,58.82352941,5d598acfe9d3b900212193d7,64d2fd46c836a06233681665,64dc7d735664ea86cae1fce0,,,,,,,decisionTrl,resources/DG.BMP,resources/DR.BMP,Door3,-0.311111111,-0.021111111,1,0,0,2.398,optionLeft,70,8615,4,39,0,39,0,1,,,,,,,,,,,,,,,,,,,,,,,,,,,,,,,,,,,,,,,
,,,,,,,,2023-08-16_08h43.27.328,HF_wild_card,2022.2.4,Win32,58.82352941,5d598acfe9d3b900212193d7,64d2fd46c836a06233681665,64dc7d735664ea86cae1fce0,,,,,,,sngl,resources/Empty.png,resources/DP.BMP,WildCard_Ex,0.306666667,-0.045555556,1,0,0,0.945,optionRight,95,8710,4,40,0,40,0,1,,,,,,,,,,,,,,,,,,,,,,,,,,,,,,,,,,,,,,,
,,,,,,,,2023-08-16_08h43.27.328,HF_wild_card,2022.2.4,Win32,58.82352941,5d598acfe9d3b900212193d7,64d2fd46c836a06233681665,64dc7d735664ea86cae1fce0,,,,,,,ctch,resources/DR.BMP,resources/DBN.BMP,Door4,-0.307777778,-0.022222222,1,0,0,3.131,optionLeft,60,8770,4,41,0,41,0,1,,,,,,,,,,,,,,,,,,,,,,,,,,,,,,,,,,,,,,,
,,,,,,,,2023-08-16_08h43.27.328,HF_wild_card,2022.2.4,Win32,58.82352941,5d598acfe9d3b900212193d7,64d2fd46c836a06233681665,64dc7d735664ea86cae1fce0,,,,,,,decisionTrl,resources/DG.BMP,resources/DR.BMP,Door3,-0.304444444,-0.012222222,1,0,0,2.265,optionLeft,70,8840,4,42,0,42,0,1,,,,,,,,,,,,,,,,,,,,,,,,,,,,,,,,,,,,,,,
,,,,,,,,2023-08-16_08h43.27.328,HF_wild_card,2022.2.4,Win32,58.82352941,5d598acfe9d3b900212193d7,64d2fd46c836a06233681665,64dc7d735664ea86cae1fce0,,,,,,,sngl,resources/DR.BMP,resources/Empty.png,Door4,-0.403333333,0.026666667,1,0,0,0.997,optionLeft,60,8900,4,43,0,43,0,1,,,,,,,,,,,,,,,,,,,,,,,,,,,,,,,,,,,,,,,
,,,,,,,,2023-08-16_08h43.27.328,HF_wild_card,2022.2.4,Win32,58.82352941,5d598acfe9d3b900212193d7,64d2fd46c836a06233681665,64dc7d735664ea86cae1fce0,,,,,,,,,,,,,,,,,,,,,,,,,,3,0,3,0,1,,,,,,,,,,,,,,,,,,,,,,,,,,,,,,,,,,
,,,,,,,,2023-08-16_08h43.27.328,HF_wild_card,2022.2.4,Win32,58.82352941,5d598acfe9d3b900212193d7,64d2fd46c836a06233681665,64dc7d735664ea86cae1fce0,,,,,,,sngl,resources/DBN.BMP,resources/Empty.png,Door1,-0.341111111,-0.063333333,1,0,0,1.014,optionLeft,30,8930,5,0,0,0,0,1,,,,,,,,,,,,,,,,,,,,,,,,,,,,,,,,,,,,,,,
,,,,,,,,2023-08-16_08h43.27.328,HF_wild_card,2022.2.4,Win32,58.82352941,5d598acfe9d3b900212193d7,64d2fd46c836a06233681665,64dc7d735664ea86cae1fce0,,,,,,,decisionTrl,resources/DG.BMP,resources/DR.BMP,Door3,-0.372222222,-0.035555556,1,0,0,1.915,optionLeft,70,9000,5,1,0,1,0,1,,,,,,,,,,,,,,,,,,,,,,,,,,,,,,,,,,,,,,,
,,,,,,,,2023-08-16_08h43.27.328,HF_wild_card,2022.2.4,Win32,58.82352941,5d598acfe9d3b900212193d7,64d2fd46c836a06233681665,64dc7d735664ea86cae1fce0,,,,,,,sngl,resources/Empty.png,resources/DR.BMP,Door4,0.43,-0.113333333,1,0,0,0.714,optionRight,60,9060,5,2,0,2,0,1,,,,,,,,,,,,,,,,,,,,,,,,,,,,,,,,,,,,,,,
,,,,,,,,2023-08-16_08h43.27.328,HF_wild_card,2022.2.4,Win32,58.82352941,5d598acfe9d3b900212193d7,64d2fd46c836a06233681665,64dc7d735664ea86cae1fce0,,,,,,,decisionTrl,resources/DG.BMP,resources/DR.BMP,Door4,0.398888889,-0.015555556,1,0,0,2.314,optionRight,60,9120,5,3,0,3,0,1,,,,,,,,,,,,,,,,,,,,,,,,,,,,,,,,,,,,,,,
,,,,,,,,2023-08-16_08h43.27.328,HF_wild_card,2022.2.4,Win32,58.82352941,5d598acfe9d3b900212193d7,64d2fd46c836a06233681665,64dc7d735664ea86cae1fce0,,,,,,,decisionTrl,resources/DP.BMP,resources/DBN.BMP,Door1,0.415555556,-0.013333333,1,0,0,2.481,optionRight,30,9150,5,4,0,4,0,1,,,,,,,,,,,,,,,,,,,,,,,,,,,,,,,,,,,,,,,
,,,,,,,,2023-08-16_08h43.27.328,HF_wild_card,2022.2.4,Win32,58.82352941,5d598acfe9d3b900212193d7,64d2fd46c836a06233681665,64dc7d735664ea86cae1fce0,,,,,,,sngl,resources/DP.BMP,resources/Empty.png,WildCard_Ex,-0.502222222,-0.021111111,1,0,0,1.113,optionLeft,5,9155,5,5,0,5,0,1,,,,,,,,,,,,,,,,,,,,,,,,,,,,,,,,,,,,,,,
,,,,,,,,2023-08-16_08h43.27.328,HF_wild_card,2022.2.4,Win32,58.82352941,5d598acfe9d3b900212193d7,64d2fd46c836a06233681665,64dc7d735664ea86cae1fce0,,,,,,,decisionTrl,resources/DY.BMP,resources/DP.BMP,Door2,-0.358888889,-0.008888889,1,0,0,1.146,optionLeft,20,9175,5,6,0,6,0,1,,,,,,,,,,,,,,,,,,,,,,,,,,,,,,,,,,,,,,,
,,,,,,,,2023-08-16_08h43.27.328,HF_wild_card,2022.2.4,Win32,58.82352941,5d598acfe9d3b900212193d7,64d2fd46c836a06233681665,64dc7d735664ea86cae1fce0,,,,,,,decisionTrl,resources/DR.BMP,resources/DG.BMP,Door4,-0.34,-0.001111111,1,0,0,2.215,optionLeft,60,9235,5,7,0,7,0,1,,,,,,,,,,,,,,,,,,,,,,,,,,,,,,,,,,,,,,,
,,,,,,,,2023-08-16_08h43.27.328,HF_wild_card,2022.2.4,Win32,58.82352941,5d598acfe9d3b900212193d7,64d2fd46c836a06233681665,64dc7d735664ea86cae1fce0,,,,,,,decisionTrl,resources/DBN.BMP,resources/DY.BMP,Door1,-0.33,0.006666667,1,0,0,0.98,optionLeft,30,9265,5,8,0,8,0,1,,,,,,,,,,,,,,,,,,,,,,,,,,,,,,,,,,,,,,,
,,,,,,,,2023-08-16_08h43.27.328,HF_wild_card,2022.2.4,Win32,58.82352941,5d598acfe9d3b900212193d7,64d2fd46c836a06233681665,64dc7d735664ea86cae1fce0,,,,,,,sngl,resources/Empty.png,resources/DY.BMP,Door2,0.465555556,-0.111111111,1,0,0,0.83,optionRight,20,9285,5,9,0,9,0,1,,,,,,,,,,,,,,,,,,,,,,,,,,,,,,,,,,,,,,,
,,,,,,,,2023-08-16_08h43.27.328,HF_wild_card,2022.2.4,Win32,58.82352941,5d598acfe9d3b900212193d7,64d2fd46c836a06233681665,64dc7d735664ea86cae1fce0,,,,,,,decisionTrl,resources/DG.BMP,resources/DR.BMP,Door3,-0.356666667,-0.001111111,1,0,0,1.381,optionLeft,70,9355,5,10,0,10,0,1,,,,,,,,,,,,,,,,,,,,,,,,,,,,,,,,,,,,,,,
,,,,,,,,2023-08-16_08h43.27.328,HF_wild_card,2022.2.4,Win32,58.82352941,5d598acfe9d3b900212193d7,64d2fd46c836a06233681665,64dc7d735664ea86cae1fce0,,,,,,,ctch,resources/DR.BMP,resources/DBN.BMP,Door4,-0.31,-0.008888889,1,0,0,0.647,optionLeft,60,9415,5,11,0,11,0,1,,,,,,,,,,,,,,,,,,,,,,,,,,,,,,,,,,,,,,,
,,,,,,,,2023-08-16_08h43.27.328,HF_wild_card,2022.2.4,Win32,58.82352941,5d598acfe9d3b900212193d7,64d2fd46c836a06233681665,64dc7d735664ea86cae1fce0,,,,,,,sngl,resources/DG.BMP,resources/Empty.png,Door3,-0.413333333,0.017777778,1,0,0,1.003,optionLeft,70,9485,5,12,0,12,0,1,,,,,,,,,,,,,,,,,,,,,,,,,,,,,,,,,,,,,,,
,,,,,,,,2023-08-16_08h43.27.328,HF_wild_card,2022.2.4,Win32,58.82352941,5d598acfe9d3b900212193d7,64d2fd46c836a06233681665,64dc7d735664ea86cae1fce0,,,,,,,decisionTrl,resources/DY.BMP,resources/DBN.BMP,Door2,-0.367777778,0.003333333,1,0,0,1.665,optionLeft,40,9525,5,13,0,13,0,1,,,,,,,,,,,,,,,,,,,,,,,,,,,,,,,,,,,,,,,
,,,,,,,,2023-08-16_08h43.27.328,HF_wild_card,2022.2.4,Win32,58.82352941,5d598acfe9d3b900212193d7,64d2fd46c836a06233681665,64dc7d735664ea86cae1fce0,,,,,,,sngl,resources/Empty.png,resources/DBN.BMP,Door1,0.527777778,-0.043333333,1,0,0,0.948,optionRight,30,9555,5,14,0,14,0,1,,,,,,,,,,,,,,,,,,,,,,,,,,,,,,,,,,,,,,,
,,,,,,,,2023-08-16_08h43.27.328,HF_wild_card,2022.2.4,Win32,58.82352941,5d598acfe9d3b900212193d7,64d2fd46c836a06233681665,64dc7d735664ea86cae1fce0,,,,,,,decisionTrl,resources/DP.BMP,resources/DG.BMP,Door3,0.304444444,-0.007777778,1,0,0,2.35,optionRight,70,9625,5,15,0,15,0,1,,,,,,,,,,,,,,,,,,,,,,,,,,,,,,,,,,,,,,,
,,,,,,,,2023-08-16_08h43.27.328,HF_wild_card,2022.2.4,Win32,58.82352941,5d598acfe9d3b900212193d7,64d2fd46c836a06233681665,64dc7d735664ea86cae1fce0,,,,,,,sngl,resources/DP.BMP,resources/Empty.png,WildCard_Ex,-0.275555556,-0.002222222,1,0,0,0.899,optionLeft,95,9720,5,16,0,16,0,1,,,,,,,,,,,,,,,,,,,,,,,,,,,,,,,,,,,,,,,
,,,,,,,,2023-08-16_08h43.27.328,HF_wild_card,2022.2.4,Win32,58.82352941,5d598acfe9d3b900212193d7,64d2fd46c836a06233681665,64dc7d735664ea86cae1fce0,,,,,,,sngl,resources/DY.BMP,resources/Empty.png,Door2,-0.305555556,0,1,0,0,0.863,optionLeft,40,9760,5,17,0,17,0,1,,,,,,,,,,,,,,,,,,,,,,,,,,,,,,,,,,,,,,,
,,,,,,,,2023-08-16_08h43.27.328,HF_wild_card,2022.2.4,Win32,58.82352941,5d598acfe9d3b900212193d7,64d2fd46c836a06233681665,64dc7d735664ea86cae1fce0,,,,,,,ctch,resources/DY.BMP,resources/DG.BMP,Door3,0.366666667,-0.02,1,0,0,1.763,optionRight,70,9830,5,18,0,18,0,1,,,,,,,,,,,,,,,,,,,,,,,,,,,,,,,,,,,,,,,
,,,,,,,,2023-08-16_08h43.27.328,HF_wild_card,2022.2.4,Win32,58.82352941,5d598acfe9d3b900212193d7,64d2fd46c836a06233681665,64dc7d735664ea86cae1fce0,,,,,,,decisionTrl,resources/DR.BMP,resources/DG.BMP,Door4,-0.263333333,-0.028888889,1,0,0,2.299,optionLeft,80,9910,5,19,0,19,0,1,,,,,,,,,,,,,,,,,,,,,,,,,,,,,,,,,,,,,,,
,,,,,,,,2023-08-16_08h43.27.328,HF_wild_card,2022.2.4,Win32,58.82352941,5d598acfe9d3b900212193d7,64d2fd46c836a06233681665,64dc7d735664ea86cae1fce0,,,,,,,decisionTrl,resources/DG.BMP,resources/DP.BMP,Door3,-0.271111111,-0.015555556,1,0,0,1.231,optionLeft,70,9980,5,20,0,20,0,1,,,,,,,,,,,,,,,,,,,,,,,,,,,,,,,,,,,,,,,
,,,,,,,,2023-08-16_08h43.27.328,HF_wild_card,2022.2.4,Win32,58.82352941,5d598acfe9d3b900212193d7,64d2fd46c836a06233681665,64dc7d735664ea86cae1fce0,,,,,,,ctch,resources/DBN.BMP,resources/DR.BMP,Door4,0.39,-0.014444444,1,0,0,1.448,optionRight,60,10040,5,21,0,21,0,1,,,,,,,,,,,,,,,,,,,,,,,,,,,,,,,,,,,,,,,
,,,,,,,,2023-08-16_08h43.27.328,HF_wild_card,2022.2.4,Win32,58.82352941,5d598acfe9d3b900212193d7,64d2fd46c836a06233681665,64dc7d735664ea86cae1fce0,,,,,,,ctch,resources/DR.BMP,resources/DBN.BMP,Door4,-0.32,-0.007777778,1,0,0,1.065,optionLeft,80,10120,5,22,0,22,0,1,,,,,,,,,,,,,,,,,,,,,,,,,,,,,,,,,,,,,,,
,,,,,,,,2023-08-16_08h43.27.328,HF_wild_card,2022.2.4,Win32,58.82352941,5d598acfe9d3b900212193d7,64d2fd46c836a06233681665,64dc7d735664ea86cae1fce0,,,,,,,ctch,resources/DBN.BMP,resources/DR.BMP,Door4,0.365555556,-0.054444444,1,0,0,0.916,optionRight,60,10180,5,23,0,23,0,1,,,,,,,,,,,,,,,,,,,,,,,,,,,,,,,,,,,,,,,
,,,,,,,,2023-08-16_08h43.27.328,HF_wild_card,2022.2.4,Win32,58.82352941,5d598acfe9d3b900212193d7,64d2fd46c836a06233681665,64dc7d735664ea86cae1fce0,,,,,,,decisionTrl,resources/DR.BMP,resources/DP.BMP,Door4,-0.292222222,-0.005555556,1,0,0,1.399,optionLeft,60,10240,5,24,0,24,0,1,,,,,,,,,,,,,,,,,,,,,,,,,,,,,,,,,,,,,,,
,,,,,,,,2023-08-16_08h43.27.328,HF_wild_card,2022.2.4,Win32,58.82352941,5d598acfe9d3b900212193d7,64d2fd46c836a06233681665,64dc7d735664ea86cae1fce0,,,,,,,decisionTrl,resources/DBN.BMP,resources/DP.BMP,Door1,-0.377777778,-0.002222222,1,0,0,1.348,optionLeft,30,10270,5,25,0,25,0,1,,,,,,,,,,,,,,,,,,,,,,,,,,,,,,,,,,,,,,,
,,,,,,,,2023-08-16_08h43.27.328,HF_wild_card,2022.2.4,Win32,58.82352941,5d598acfe9d3b900212193d7,64d2fd46c836a06233681665,64dc7d735664ea86cae1fce0,,,,,,,sngl,resources/Empty.png,resources/DP.BMP,WildCard_Ex,0.323333333,-0.044444444,1,0,0,0.864,optionRight,95,10365,5,26,0,26,0,1,,,,,,,,,,,,,,,,,,,,,,,,,,,,,,,,,,,,,,,
,,,,,,,,2023-08-16_08h43.27.328,HF_wild_card,2022.2.4,Win32,58.82352941,5d598acfe9d3b900212193d7,64d2fd46c836a06233681665,64dc7d735664ea86cae1fce0,,,,,,,decisionTrl,resources/DBN.BMP,resources/DY.BMP,Door1,-0.227777778,0.022222222,1,0,0,2.248,optionLeft,30,10395,5,27,0,27,0,1,,,,,,,,,,,,,,,,,,,,,,,,,,,,,,,,,,,,,,,
,,,,,,,,2023-08-16_08h43.27.328,HF_wild_card,2022.2.4,Win32,58.82352941,5d598acfe9d3b900212193d7,64d2fd46c836a06233681665,64dc7d735664ea86cae1fce0,,,,,,,decisionTrl,resources/DR.BMP,resources/DG.BMP,Door4,-0.35,-0.04,1,0,0,1.664,optionLeft,80,10475,5,28,0,28,0,1,,,,,,,,,,,,,,,,,,,,,,,,,,,,,,,,,,,,,,,
,,,,,,,,2023-08-16_08h43.27.328,HF_wild_card,2022.2.4,Win32,58.82352941,5d598acfe9d3b900212193d7,64d2fd46c836a06233681665,64dc7d735664ea86cae1fce0,,,,,,,decisionTrl,resources/DY.BMP,resources/DBN.BMP,Door2,-0.286666667,-0.035555556,1,0,0,1.405,optionLeft,40,10515,5,29,0,29,0,1,,,,,,,,,,,,,,,,,,,,,,,,,,,,,,,,,,,,,,,
,,,,,,,,2023-08-16_08h43.27.328,HF_wild_card,2022.2.4,Win32,58.82352941,5d598acfe9d3b900212193d7,64d2fd46c836a06233681665,64dc7d735664ea86cae1fce0,,,,,,,sngl,resources/DR.BMP,resources/Empty.png,Door4,-0.538888889,-0.006666667,1,0,0,0.69,optionLeft,80,10595,5,30,0,30,0,1,,,,,,,,,,,,,,,,,,,,,,,,,,,,,,,,,,,,,,,
,,,,,,,,2023-08-16_08h43.27.328,HF_wild_card,2022.2.4,Win32,58.82352941,5d598acfe9d3b900212193d7,64d2fd46c836a06233681665,64dc7d735664ea86cae1fce0,,,,,,,decisionTrl,resources/DP.BMP,resources/DR.BMP,Door4,0.49,-0.095555556,1,0,0,1.015,optionRight,80,10675,5,31,0,31,0,1,,,,,,,,,,,,,,,,,,,,,,,,,,,,,,,,,,,,,,,
,,,,,,,,2023-08-16_08h43.27.328,HF_wild_card,2022.2.4,Win32,58.82352941,5d598acfe9d3b900212193d7,64d2fd46c836a06233681665,64dc7d735664ea86cae1fce0,,,,,,,decisionTrl,resources/DBN.BMP,resources/DY.BMP,Door1,-0.327777778,0,1,0,0,1.023,optionLeft,30,10705,5,32,0,32,0,1,,,,,,,,,,,,,,,,,,,,,,,,,,,,,,,,,,,,,,,
,,,,,,,,2023-08-16_08h43.27.328,HF_wild_card,2022.2.4,Win32,58.82352941,5d598acfe9d3b900212193d7,64d2fd46c836a06233681665,64dc7d735664ea86cae1fce0,,,,,,,ctch,resources/DG.BMP,resources/DY.BMP,Door3,-0.298888889,0.007777778,1,0,0,1.114,optionLeft,70,10775,5,33,0,33,0,1,,,,,,,,,,,,,,,,,,,,,,,,,,,,,,,,,,,,,,,
,,,,,,,,2023-08-16_08h43.27.328,HF_wild_card,2022.2.4,Win32,58.82352941,5d598acfe9d3b900212193d7,64d2fd46c836a06233681665,64dc7d735664ea86cae1fce0,,,,,,,sngl,resources/Empty.png,resources/DG.BMP,Door3,0.521111111,-0.086666667,1,0,0,0.823,optionRight,70,10845,5,34,0,34,0,1,,,,,,,,,,,,,,,,,,,,,,,,,,,,,,,,,,,,,,,
,,,,,,,,2023-08-16_08h43.27.328,HF_wild_card,2022.2.4,Win32,58.82352941,5d598acfe9d3b900212193d7,64d2fd46c836a06233681665,64dc7d735664ea86cae1fce0,,,,,,,decisionTrl,resources/DP.BMP,resources/DY.BMP,Door2,0.411111111,-0.067777778,1,0,0,0.88,optionRight,20,10865,5,35,0,35,0,1,,,,,,,,,,,,,,,,,,,,,,,,,,,,,,,,,,,,,,,
,,,,,,,,2023-08-16_08h43.27.328,HF_wild_card,2022.2.4,Win32,58.82352941,5d598acfe9d3b900212193d7,64d2fd46c836a06233681665,64dc7d735664ea86cae1fce0,,,,,,,ctch,resources/DG.BMP,resources/DY.BMP,Door3,-0.291111111,-0.018888889,1,0,0,1.248,optionLeft,70,10935,5,36,0,36,0,1,,,,,,,,,,,,,,,,,,,,,,,,,,,,,,,,,,,,,,,
,,,,,,,,2023-08-16_08h43.27.328,HF_wild_card,2022.2.4,Win32,58.82352941,5d598acfe9d3b900212193d7,64d2fd46c836a06233681665,64dc7d735664ea86cae1fce0,,,,,,,decisionTrl,resources/DY.BMP,resources/DBN.BMP,Door2,-0.341111111,0.002222222,1,0,0,1.414,optionLeft,20,10955,5,37,0,37,0,1,,,,,,,,,,,,,,,,,,,,,,,,,,,,,,,,,,,,,,,
,,,,,,,,2023-08-16_08h43.27.328,HF_wild_card,2022.2.4,Win32,58.82352941,5d598acfe9d3b900212193d7,64d2fd46c836a06233681665,64dc7d735664ea86cae1fce0,,,,,,,decisionTrl,resources/DG.BMP,resources/DR.BMP,Door3,-0.287777778,-0.003333333,1,0,0,1.389,optionLeft,70,11025,5,38,0,38,0,1,,,,,,,,,,,,,,,,,,,,,,,,,,,,,,,,,,,,,,,
,,,,,,,,2023-08-16_08h43.27.328,HF_wild_card,2022.2.4,Win32,58.82352941,5d598acfe9d3b900212193d7,64d2fd46c836a06233681665,64dc7d735664ea86cae1fce0,,,,,,,decisionTrl,resources/DBN.BMP,resources/DY.BMP,Door1,-0.35,0.015555556,1,0,0,1.205,optionLeft,30,11055,5,39,0,39,0,1,,,,,,,,,,,,,,,,,,,,,,,,,,,,,,,,,,,,,,,
,,,,,,,,2023-08-16_08h43.27.328,HF_wild_card,2022.2.4,Win32,58.82352941,5d598acfe9d3b900212193d7,64d2fd46c836a06233681665,64dc7d735664ea86cae1fce0,,,,,,,sngl,resources/Empty.png,resources/DP.BMP,WildCard_Ex,0.322222222,-0.047777778,1,0,0,0.955,optionRight,5,11060,5,40,0,40,0,1,,,,,,,,,,,,,,,,,,,,,,,,,,,,,,,,,,,,,,,
,,,,,,,,2023-08-16_08h43.27.328,HF_wild_card,2022.2.4,Win32,58.82352941,5d598acfe9d3b900212193d7,64d2fd46c836a06233681665,64dc7d735664ea86cae1fce0,,,,,,,decisionTrl,resources/DY.BMP,resources/DBN.BMP,Door2,-0.223333333,-0.012222222,1,0,0,6.445,optionLeft,40,11100,5,41,0,41,0,1,,,,,,,,,,,,,,,,,,,,,,,,,,,,,,,,,,,,,,,
,,,,,,,,2023-08-16_08h43.27.328,HF_wild_card,2022.2.4,Win32,58.82352941,5d598acfe9d3b900212193d7,64d2fd46c836a06233681665,64dc7d735664ea86cae1fce0,,,,,,,decisionTrl,resources/DR.BMP,resources/DG.BMP,Door4,-0.37,0.021111111,1,0,0,3.359,optionLeft,60,11160,5,42,0,42,0,1,,,,,,,,,,,,,,,,,,,,,,,,,,,,,,,,,,,,,,,
,,,,,,,,2023-08-16_08h43.27.328,HF_wild_card,2022.2.4,Win32,58.82352941,5d598acfe9d3b900212193d7,64d2fd46c836a06233681665,64dc7d735664ea86cae1fce0,,,,,,,ctch,resources/DY.BMP,resources/DG.BMP,Door3,0.486666667,-0.108888889,1,0,0,1.782,optionRight,70,11230,5,43,0,43,0,1,,,,,,,,,,,,,,,,,,,,,,,,,,,,,,,,,,,,,,,
,,,,,,,,2023-08-16_08h43.27.328,HF_wild_card,2022.2.4,Win32,58.82352941,5d598acfe9d3b900212193d7,64d2fd46c836a06233681665,64dc7d735664ea86cae1fce0,,,,,,,,,,,,,,,,,,,,,,,,,,4,0,4,0,1,,,,,,,,,,,,,,,,,,,,,,,,,,,,,,,,,,
,,,,,,,,2023-08-16_08h43.27.328,HF_wild_card,2022.2.4,Win32,58.82352941,5d598acfe9d3b900212193d7,64d2fd46c836a06233681665,64dc7d735664ea86cae1fce0,,,,,,,sngl,resources/DP.BMP,resources/Empty.png,WildCard_Ex,-0.294444444,-0.113333333,1,0,0,0.954,optionLeft,95,11325,6,0,0,0,0,1,,,,,,,,,,,,,,,,,,,,,,,,,,,,,,,,,,,,,,,
,,,,,,,,2023-08-16_08h43.27.328,HF_wild_card,2022.2.4,Win32,58.82352941,5d598acfe9d3b900212193d7,64d2fd46c836a06233681665,64dc7d735664ea86cae1fce0,,,,,,,sngl,resources/Empty.png,resources/DG.BMP,Door3,0.443333333,-0.075555556,1,0,0,0.656,optionRight,70,11395,6,1,0,1,0,1,,,,,,,,,,,,,,,,,,,,,,,,,,,,,,,,,,,,,,,
,,,,,,,,2023-08-16_08h43.27.328,HF_wild_card,2022.2.4,Win32,58.82352941,5d598acfe9d3b900212193d7,64d2fd46c836a06233681665,64dc7d735664ea86cae1fce0,,,,,,,decisionTrl,resources/DG.BMP,resources/DR.BMP,Door3,-0.308888889,-0.007777778,1,0,0,1.632,optionLeft,70,11465,6,2,0,2,0,1,,,,,,,,,,,,,,,,,,,,,,,,,,,,,,,,,,,,,,,
,,,,,,,,2023-08-16_08h43.27.328,HF_wild_card,2022.2.4,Win32,58.82352941,5d598acfe9d3b900212193d7,64d2fd46c836a06233681665,64dc7d735664ea86cae1fce0,,,,,,,decisionTrl,resources/DP.BMP,resources/DBN.BMP,Door1,0.373333333,-0.054444444,1,0,0,1.324,optionRight,30,11495,6,3,0,3,0,1,,,,,,,,,,,,,,,,,,,,,,,,,,,,,,,,,,,,,,,
,,,,,,,,2023-08-16_08h43.27.328,HF_wild_card,2022.2.4,Win32,58.82352941,5d598acfe9d3b900212193d7,64d2fd46c836a06233681665,64dc7d735664ea86cae1fce0,,,,,,,decisionTrl,resources/DP.BMP,resources/DY.BMP,WildCard_Ex,-0.43,-0.047777778,1,0,0,1.018,optionLeft,95,11590,6,4,0,4,0,1,,,,,,,,,,,,,,,,,,,,,,,,,,,,,,,,,,,,,,,
,,,,,,,,2023-08-16_08h43.27.328,HF_wild_card,2022.2.4,Win32,58.82352941,5d598acfe9d3b900212193d7,64d2fd46c836a06233681665,64dc7d735664ea86cae1fce0,,,,,,,decisionTrl,resources/DR.BMP,resources/DP.BMP,Door4,-0.407777778,-0.031111111,1,0,0,1.241,optionLeft,60,11650,6,5,0,5,0,1,,,,,,,,,,,,,,,,,,,,,,,,,,,,,,,,,,,,,,,
,,,,,,,,2023-08-16_08h43.27.328,HF_wild_card,2022.2.4,Win32,58.82352941,5d598acfe9d3b900212193d7,64d2fd46c836a06233681665,64dc7d735664ea86cae1fce0,,,,,,,decisionTrl,resources/DY.BMP,resources/DBN.BMP,Door2,-0.343333333,-0.018888889,1,0,0,1.755,optionLeft,40,11690,6,6,0,6,0,1,,,,,,,,,,,,,,,,,,,,,,,,,,,,,,,,,,,,,,,
,,,,,,,,2023-08-16_08h43.27.328,HF_wild_card,2022.2.4,Win32,58.82352941,5d598acfe9d3b900212193d7,64d2fd46c836a06233681665,64dc7d735664ea86cae1fce0,,,,,,,ctch,resources/DR.BMP,resources/DBN.BMP,Door4,-0.405555556,-0.036666667,1,0,0,1.581,optionLeft,80,11770,6,7,0,7,0,1,,,,,,,,,,,,,,,,,,,,,,,,,,,,,,,,,,,,,,,
,,,,,,,,2023-08-16_08h43.27.328,HF_wild_card,2022.2.4,Win32,58.82352941,5d598acfe9d3b900212193d7,64d2fd46c836a06233681665,64dc7d735664ea86cae1fce0,,,,,,,sngl,resources/Empty.png,resources/DY.BMP,Door2,0.441111111,-0.063333333,1,0,0,0.84,optionRight,40,11810,6,8,0,8,0,1,,,,,,,,,,,,,,,,,,,,,,,,,,,,,,,,,,,,,,,
,,,,,,,,2023-08-16_08h43.27.328,HF_wild_card,2022.2.4,Win32,58.82352941,5d598acfe9d3b900212193d7,64d2fd46c836a06233681665,64dc7d735664ea86cae1fce0,,,,,,,decisionTrl,resources/DP.BMP,resources/DR.BMP,Door4,0.375555556,-0.052222222,1,0,0,1.907,optionRight,60,11870,6,9,0,9,0,1,,,,,,,,,,,,,,,,,,,,,,,,,,,,,,,,,,,,,,,
,,,,,,,,2023-08-16_08h43.27.328,HF_wild_card,2022.2.4,Win32,58.82352941,5d598acfe9d3b900212193d7,64d2fd46c836a06233681665,64dc7d735664ea86cae1fce0,,,,,,,decisionTrl,resources/DG.BMP,resources/DR.BMP,Door3,-0.305555556,-0.03,1,0,0,1.485,optionLeft,70,11940,6,10,0,10,0,1,,,,,,,,,,,,,,,,,,,,,,,,,,,,,,,,,,,,,,,
,,,,,,,,2023-08-16_08h43.27.328,HF_wild_card,2022.2.4,Win32,58.82352941,5d598acfe9d3b900212193d7,64d2fd46c836a06233681665,64dc7d735664ea86cae1fce0,,,,,,,decisionTrl,resources/DY.BMP,resources/DBN.BMP,Door2,-0.288888889,-0.04,1,0,0,1.013,optionLeft,40,11980,6,11,0,11,0,1,,,,,,,,,,,,,,,,,,,,,,,,,,,,,,,,,,,,,,,
,,,,,,,,2023-08-16_08h43.27.328,HF_wild_card,2022.2.4,Win32,58.82352941,5d598acfe9d3b900212193d7,64d2fd46c836a06233681665,64dc7d735664ea86cae1fce0,,,,,,,decisionTrl,resources/DG.BMP,resources/DR.BMP,Door3,-0.304444444,-0.027777778,1,0,0,1.132,optionLeft,70,12050,6,12,0,12,0,1,,,,,,,,,,,,,,,,,,,,,,,,,,,,,,,,,,,,,,,
,,,,,,,,2023-08-16_08h43.27.328,HF_wild_card,2022.2.4,Win32,58.82352941,5d598acfe9d3b900212193d7,64d2fd46c836a06233681665,64dc7d735664ea86cae1fce0,,,,,,,sngl,resources/Empty.png,resources/DR.BMP,Door4,0.365555556,-0.066666667,1,0,0,0.698,optionRight,80,12130,6,13,0,13,0,1,,,,,,,,,,,,,,,,,,,,,,,,,,,,,,,,,,,,,,,
,,,,,,,,2023-08-16_08h43.27.328,HF_wild_card,2022.2.4,Win32,58.82352941,5d598acfe9d3b900212193d7,64d2fd46c836a06233681665,64dc7d735664ea86cae1fce0,,,,,,,sngl,resources/Empty.png,resources/DBN.BMP,Door1,0.506666667,-0.042222222,1,0,0,0.748,optionRight,30,12160,6,14,0,14,0,1,,,,,,,,,,,,,,,,,,,,,,,,,,,,,,,,,,,,,,,
,,,,,,,,2023-08-16_08h43.27.328,HF_wild_card,2022.2.4,Win32,58.82352941,5d598acfe9d3b900212193d7,64d2fd46c836a06233681665,64dc7d735664ea86cae1fce0,,,,,,,decisionTrl,resources/DP.BMP,resources/DG.BMP,Door3,0.393333333,0.003333333,1,0,0,1.883,optionRight,70,12230,6,15,0,15,0,1,,,,,,,,,,,,,,,,,,,,,,,,,,,,,,,,,,,,,,,
,,,,,,,,2023-08-16_08h43.27.328,HF_wild_card,2022.2.4,Win32,58.82352941,5d598acfe9d3b900212193d7,64d2fd46c836a06233681665,64dc7d735664ea86cae1fce0,,,,,,,decisionTrl,resources/DR.BMP,resources/DG.BMP,Door4,-0.323333333,0.008888889,1,0,0,2.099,optionLeft,60,12290,6,16,0,16,0,1,,,,,,,,,,,,,,,,,,,,,,,,,,,,,,,,,,,,,,,
,,,,,,,,2023-08-16_08h43.27.328,HF_wild_card,2022.2.4,Win32,58.82352941,5d598acfe9d3b900212193d7,64d2fd46c836a06233681665,64dc7d735664ea86cae1fce0,,,,,,,decisionTrl,resources/DY.BMP,resources/DBN.BMP,Door2,-0.385555556,-0.001111111,1,0,0,1.015,optionLeft,40,12330,6,17,0,17,0,1,,,,,,,,,,,,,,,,,,,,,,,,,,,,,,,,,,,,,,,
,,,,,,,,2023-08-16_08h43.27.328,HF_wild_card,2022.2.4,Win32,58.82352941,5d598acfe9d3b900212193d7,64d2fd46c836a06233681665,64dc7d735664ea86cae1fce0,,,,,,,decisionTrl,resources/DBN.BMP,resources/DY.BMP,Door1,-0.361111111,0.022222222,1,0,0,1.565,optionLeft,30,12360,6,18,0,18,0,1,,,,,,,,,,,,,,,,,,,,,,,,,,,,,,,,,,,,,,,
,,,,,,,,2023-08-16_08h43.27.328,HF_wild_card,2022.2.4,Win32,58.82352941,5d598acfe9d3b900212193d7,64d2fd46c836a06233681665,64dc7d735664ea86cae1fce0,,,,,,,sngl,resources/DR.BMP,resources/Empty.png,Door4,-0.343333333,0.023333333,1,0,0,0.715,optionLeft,60,12420,6,19,0,19,0,1,,,,,,,,,,,,,,,,,,,,,,,,,,,,,,,,,,,,,,,
,,,,,,,,2023-08-16_08h43.27.328,HF_wild_card,2022.2.4,Win32,58.82352941,5d598acfe9d3b900212193d7,64d2fd46c836a06233681665,64dc7d735664ea86cae1fce0,,,,,,,decisionTrl,resources/DBN.BMP,resources/DP.BMP,WildCard_Ex,0.416666667,-0.056666667,1,0,0,2.149,optionRight,95,12515,6,20,0,20,0,1,,,,,,,,,,,,,,,,,,,,,,,,,,,,,,,,,,,,,,,
,,,,,,,,2023-08-16_08h43.27.328,HF_wild_card,2022.2.4,Win32,58.82352941,5d598acfe9d3b900212193d7,64d2fd46c836a06233681665,64dc7d735664ea86cae1fce0,,,,,,,ctch,resources/DR.BMP,resources/DBN.BMP,Door4,-0.363333333,0.006666667,1,0,0,1.715,optionLeft,60,12575,6,21,0,21,0,1,,,,,,,,,,,,,,,,,,,,,,,,,,,,,,,,,,,,,,,
,,,,,,,,2023-08-16_08h43.27.328,HF_wild_card,2022.2.4,Win32,58.82352941,5d598acfe9d3b900212193d7,64d2fd46c836a06233681665,64dc7d735664ea86cae1fce0,,,,,,,decisionTrl,resources/DBN.BMP,resources/DY.BMP,Door1,-0.351111111,0,1,0,0,1.598,optionLeft,30,12605,6,22,0,22,0,1,,,,,,,,,,,,,,,,,,,,,,,,,,,,,,,,,,,,,,,
,,,,,,,,2023-08-16_08h43.27.328,HF_wild_card,2022.2.4,Win32,58.82352941,5d598acfe9d3b900212193d7,64d2fd46c836a06233681665,64dc7d735664ea86cae1fce0,,,,,,,decisionTrl,resources/DG.BMP,resources/DP.BMP,Door3,-0.304444444,0.007777778,1,0,0,1.481,optionLeft,70,12675,6,23,0,23,0,1,,,,,,,,,,,,,,,,,,,,,,,,,,,,,,,,,,,,,,,
,,,,,,,,2023-08-16_08h43.27.328,HF_wild_card,2022.2.4,Win32,58.82352941,5d598acfe9d3b900212193d7,64d2fd46c836a06233681665,64dc7d735664ea86cae1fce0,,,,,,,sngl,resources/DBN.BMP,resources/Empty.png,Door1,-0.294444444,0.006666667,1,0,0,0.648,optionLeft,30,12705,6,24,0,24,0,1,,,,,,,,,,,,,,,,,,,,,,,,,,,,,,,,,,,,,,,
,,,,,,,,2023-08-16_08h43.27.328,HF_wild_card,2022.2.4,Win32,58.82352941,5d598acfe9d3b900212193d7,64d2fd46c836a06233681665,64dc7d735664ea86cae1fce0,,,,,,,decisionTrl,resources/DR.BMP,resources/DG.BMP,Door4,-0.32,-0.001111111,1,0,0,1.198,optionLeft,80,12785,6,25,0,25,0,1,,,,,,,,,,,,,,,,,,,,,,,,,,,,,,,,,,,,,,,
,,,,,,,,2023-08-16_08h43.27.328,HF_wild_card,2022.2.4,Win32,58.82352941,5d598acfe9d3b900212193d7,64d2fd46c836a06233681665,64dc7d735664ea86cae1fce0,,,,,,,ctch,resources/DG.BMP,resources/DY.BMP,Door3,-0.39,0.021111111,1,0,0,0.998,optionLeft,70,12855,6,26,0,26,0,1,,,,,,,,,,,,,,,,,,,,,,,,,,,,,,,,,,,,,,,
,,,,,,,,2023-08-16_08h43.27.328,HF_wild_card,2022.2.4,Win32,58.82352941,5d598acfe9d3b900212193d7,64d2fd46c836a06233681665,64dc7d735664ea86cae1fce0,,,,,,,decisionTrl,resources/DY.BMP,resources/DP.BMP,WildCard_Ex,0.55,-0.095555556,1,0,0,2.549,optionRight,95,12950,6,27,0,27,0,1,,,,,,,,,,,,,,,,,,,,,,,,,,,,,,,,,,,,,,,
,,,,,,,,2023-08-16_08h43.27.328,HF_wild_card,2022.2.4,Win32,58.82352941,5d598acfe9d3b900212193d7,64d2fd46c836a06233681665,64dc7d735664ea86cae1fce0,,,,,,,ctch,resources/DG.BMP,resources/DY.BMP,Door3,-0.321111111,-0.034444444,1,0,0,1.632,optionLeft,70,13020,6,28,0,28,0,1,,,,,,,,,,,,,,,,,,,,,,,,,,,,,,,,,,,,,,,
,,,,,,,,2023-08-16_08h43.27.328,HF_wild_card,2022.2.4,Win32,58.82352941,5d598acfe9d3b900212193d7,64d2fd46c836a06233681665,64dc7d735664ea86cae1fce0,,,,,,,ctch,resources/DBN.BMP,resources/DR.BMP,Door4,0.308888889,-0.02,1,0,0,1.764,optionRight,80,13100,6,29,0,29,0,1,,,,,,,,,,,,,,,,,,,,,,,,,,,,,,,,,,,,,,,
,,,,,,,,2023-08-16_08h43.27.328,HF_wild_card,2022.2.4,Win32,58.82352941,5d598acfe9d3b900212193d7,64d2fd46c836a06233681665,64dc7d735664ea86cae1fce0,,,,,,,sngl,resources/DY.BMP,resources/Empty.png,Door2,-0.313333333,-0.017777778,1,0,0,0.779,optionLeft,20,13120,6,30,0,30,0,1,,,,,,,,,,,,,,,,,,,,,,,,,,,,,,,,,,,,,,,
,,,,,,,,2023-08-16_08h43.27.328,HF_wild_card,2022.2.4,Win32,58.82352941,5d598acfe9d3b900212193d7,64d2fd46c836a06233681665,64dc7d735664ea86cae1fce0,,,,,,,decisionTrl,resources/DG.BMP,resources/DR.BMP,Door3,-0.406666667,-0.013333333,1,0,0,1.798,optionLeft,70,13190,6,31,0,31,0,1,,,,,,,,,,,,,,,,,,,,,,,,,,,,,,,,,,,,,,,
,,,,,,,,2023-08-16_08h43.27.328,HF_wild_card,2022.2.4,Win32,58.82352941,5d598acfe9d3b900212193d7,64d2fd46c836a06233681665,64dc7d735664ea86cae1fce0,,,,,,,sngl,resources/DG.BMP,resources/Empty.png,Door3,-0.428888889,-0.012222222,1,0,0,1.024,optionLeft,70,13260,6,32,0,32,0,1,,,,,,,,,,,,,,,,,,,,,,,,,,,,,,,,,,,,,,,
,,,,,,,,2023-08-16_08h43.27.328,HF_wild_card,2022.2.4,Win32,58.82352941,5d598acfe9d3b900212193d7,64d2fd46c836a06233681665,64dc7d735664ea86cae1fce0,,,,,,,sngl,resources/DP.BMP,resources/Empty.png,WildCard_Ex,-0.377777778,-0.013333333,1,0,0,0.948,optionLeft,5,13265,6,33,0,33,0,1,,,,,,,,,,,,,,,,,,,,,,,,,,,,,,,,,,,,,,,
,,,,,,,,2023-08-16_08h43.27.328,HF_wild_card,2022.2.4,Win32,58.82352941,5d598acfe9d3b900212193d7,64d2fd46c836a06233681665,64dc7d735664ea86cae1fce0,,,,,,,decisionTrl,resources/DR.BMP,resources/DG.BMP,Door4,-0.343333333,-0.038888889,1,0,0,1.59,optionLeft,60,13325,6,34,0,34,0,1,,,,,,,,,,,,,,,,,,,,,,,,,,,,,,,,,,,,,,,
,,,,,,,,2023-08-16_08h43.27.328,HF_wild_card,2022.2.4,Win32,58.82352941,5d598acfe9d3b900212193d7,64d2fd46c836a06233681665,64dc7d735664ea86cae1fce0,,,,,,,sngl,resources/Empty.png,resources/DP.BMP,WildCard_Ex,0.303333333,-0.033333333,1,0,0,0.746,optionRight,95,13420,6,35,0,35,0,1,,,,,,,,,,,,,,,,,,,,,,,,,,,,,,,,,,,,,,,
,,,,,,,,2023-08-16_08h43.27.328,HF_wild_card,2022.2.4,Win32,58.82352941,5d598acfe9d3b900212193d7,64d2fd46c836a06233681665,64dc7d735664ea86cae1fce0,,,,,,,ctch,resources/DY.BMP,resources/DG.BMP,Door3,0.473333333,-0.134444444,1,0,0,1.239,optionRight,70,13490,6,36,0,36,0,1,,,,,,,,,,,,,,,,,,,,,,,,,,,,,,,,,,,,,,,
,,,,,,,,2023-08-16_08h43.27.328,HF_wild_card,2022.2.4,Win32,58.82352941,5d598acfe9d3b900212193d7,64d2fd46c836a06233681665,64dc7d735664ea86cae1fce0,,,,,,,decisionTrl,resources/DY.BMP,resources/DBN.BMP,Door2,-0.438888889,-0.027777778,1,0,0,1.402,optionLeft,20,13510,6,37,0,37,0,1,,,,,,,,,,,,,,,,,,,,,,,,,,,,,,,,,,,,,,,
,,,,,,,,2023-08-16_08h43.27.328,HF_wild_card,2022.2.4,Win32,58.82352941,5d598acfe9d3b900212193d7,64d2fd46c836a06233681665,64dc7d735664ea86cae1fce0,,,,,,,sngl,resources/Empty.png,resources/DP.BMP,WildCard_Ex,0.356666667,-0.1,1,0,0,0.689,optionRight,5,13515,6,38,0,38,0,1,,,,,,,,,,,,,,,,,,,,,,,,,,,,,,,,,,,,,,,
,,,,,,,,2023-08-16_08h43.27.328,HF_wild_card,2022.2.4,Win32,58.82352941,5d598acfe9d3b900212193d7,64d2fd46c836a06233681665,64dc7d735664ea86cae1fce0,,,,,,,decisionTrl,resources/DBN.BMP,resources/DY.BMP,Door1,-0.404444444,-0.038888889,1,0,0,1.765,optionLeft,30,13545,6,39,0,39,0,1,,,,,,,,,,,,,,,,,,,,,,,,,,,,,,,,,,,,,,,
,,,,,,,,2023-08-16_08h43.27.328,HF_wild_card,2022.2.4,Win32,58.82352941,5d598acfe9d3b900212193d7,64d2fd46c836a06233681665,64dc7d735664ea86cae1fce0,,,,,,,decisionTrl,resources/DR.BMP,resources/DG.BMP,Door4,-0.435555556,0.024444444,1,0,0,1.14,optionLeft,80,13625,6,40,0,40,0,1,,,,,,,,,,,,,,,,,,,,,,,,,,,,,,,,,,,,,,,
,,,,,,,,2023-08-16_08h43.27.328,HF_wild_card,2022.2.4,Win32,58.82352941,5d598acfe9d3b900212193d7,64d2fd46c836a06233681665,64dc7d735664ea86cae1fce0,,,,,,,ctch,resources/DY.BMP,resources/DG.BMP,Door3,0.556666667,-0.031111111,1,0,0,1.28,optionRight,70,13695,6,41,0,41,0,1,,,,,,,,,,,,,,,,,,,,,,,,,,,,,,,,,,,,,,,
,,,,,,,,2023-08-16_08h43.27.328,HF_wild_card,2022.2.4,Win32,58.82352941,5d598acfe9d3b900212193d7,64d2fd46c836a06233681665,64dc7d735664ea86cae1fce0,,,,,,,ctch,resources/DBN.BMP,resources/DR.BMP,Door4,0.41,-0.03,1,0,0,1.288,optionRight,60,13755,6,42,0,42,0,1,,,,,,,,,,,,,,,,,,,,,,,,,,,,,,,,,,,,,,,
,,,,,,,,2023-08-16_08h43.27.328,HF_wild_card,2022.2.4,Win32,58.82352941,5d598acfe9d3b900212193d7,64d2fd46c836a06233681665,64dc7d735664ea86cae1fce0,,,,,,,decisionTrl,resources/DBN.BMP,resources/DY.BMP,Door2,0.416666667,0.015555556,1,0,0,2.424,optionRight,40,13795,6,43,0,43,0,1,,,,,,,,,,,,,,,,,,,,,,,,,,,,,,,,,,,,,,,
,,,,,,,,2023-08-16_08h43.27.328,HF_wild_card,2022.2.4,Win32,58.82352941,5d598acfe9d3b900212193d7,64d2fd46c836a06233681665,64dc7d735664ea86cae1fce0,,,,,,,,,,,,,,,,,,,,,,,,,,5,0,5,0,1,,,,,,,,,,,,,,,,,,,,,,,,,,,,,,,,,,
,,,,,,,,2023-08-16_08h43.27.328,HF_wild_card,2022.2.4,Win32,58.82352941,5d598acfe9d3b900212193d7,64d2fd46c836a06233681665,64dc7d735664ea86cae1fce0,,,,,,,decisionTrl,resources/DBN.BMP,resources/DY.BMP,Door1,-0.406666667,-0.01,1,0,0,2.755,optionLeft,30,13825,7,0,0,0,0,1,,,,,,,,,,,,,,,,,,,,,,,,,,,,,,,,,,,,,,,
,,,,,,,,2023-08-16_08h43.27.328,HF_wild_card,2022.2.4,Win32,58.82352941,5d598acfe9d3b900212193d7,64d2fd46c836a06233681665,64dc7d735664ea86cae1fce0,,,,,,,ctch,resources/DY.BMP,resources/DG.BMP,Door3,0.465555556,-0.008888889,1,0,0,1.316,optionRight,70,13895,7,1,0,1,0,1,,,,,,,,,,,,,,,,,,,,,,,,,,,,,,,,,,,,,,,
,,,,,,,,2023-08-16_08h43.27.328,HF_wild_card,2022.2.4,Win32,58.82352941,5d598acfe9d3b900212193d7,64d2fd46c836a06233681665,64dc7d735664ea86cae1fce0,,,,,,,ctch,resources/DG.BMP,resources/DY.BMP,Door3,-0.432222222,0,1,0,0,0.915,optionLeft,70,13965,7,2,0,2,0,1,,,,,,,,,,,,,,,,,,,,,,,,,,,,,,,,,,,,,,,
,,,,,,,,2023-08-16_08h43.27.328,HF_wild_card,2022.2.4,Win32,58.82352941,5d598acfe9d3b900212193d7,64d2fd46c836a06233681665,64dc7d735664ea86cae1fce0,,,,,,,ctch,resources/DG.BMP,resources/DY.BMP,Door3,-0.531111111,-0.001111111,1,0,0,0.649,optionLeft,70,14035,7,3,0,3,0,1,,,,,,,,,,,,,,,,,,,,,,,,,,,,,,,,,,,,,,,
,,,,,,,,2023-08-16_08h43.27.328,HF_wild_card,2022.2.4,Win32,58.82352941,5d598acfe9d3b900212193d7,64d2fd46c836a06233681665,64dc7d735664ea86cae1fce0,,,,,,,decisionTrl,resources/DR.BMP,resources/DG.BMP,Door3,0.512222222,-0.013333333,1,0,0,1.307,optionRight,70,14105,7,4,0,4,0,1,,,,,,,,,,,,,,,,,,,,,,,,,,,,,,,,,,,,,,,
,,,,,,,,2023-08-16_08h43.27.328,HF_wild_card,2022.2.4,Win32,58.82352941,5d598acfe9d3b900212193d7,64d2fd46c836a06233681665,64dc7d735664ea86cae1fce0,,,,,,,decisionTrl,resources/DR.BMP,resources/DG.BMP,Door4,-0.364444444,-0.008888889,1,0,0,0.816,optionLeft,60,14165,7,5,0,5,0,1,,,,,,,,,,,,,,,,,,,,,,,,,,,,,,,,,,,,,,,
,,,,,,,,2023-08-16_08h43.27.328,HF_wild_card,2022.2.4,Win32,58.82352941,5d598acfe9d3b900212193d7,64d2fd46c836a06233681665,64dc7d735664ea86cae1fce0,,,,,,,decisionTrl,resources/DG.BMP,resources/DR.BMP,Door3,-0.357777778,0.012222222,1,0,0,2.008,optionLeft,70,14235,7,6,0,6,0,1,,,,,,,,,,,,,,,,,,,,,,,,,,,,,,,,,,,,,,,
,,,,,,,,2023-08-16_08h43.27.328,HF_wild_card,2022.2.4,Win32,58.82352941,5d598acfe9d3b900212193d7,64d2fd46c836a06233681665,64dc7d735664ea86cae1fce0,,,,,,,decisionTrl,resources/DY.BMP,resources/DBN.BMP,Door2,-0.31,-0.024444444,1,0,0,1.476,optionLeft,20,14255,7,7,0,7,0,1,,,,,,,,,,,,,,,,,,,,,,,,,,,,,,,,,,,,,,,
,,,,,,,,2023-08-16_08h43.27.328,HF_wild_card,2022.2.4,Win32,58.82352941,5d598acfe9d3b900212193d7,64d2fd46c836a06233681665,64dc7d735664ea86cae1fce0,,,,,,,decisionTrl,resources/DR.BMP,resources/DG.BMP,Door4,-0.388888889,-0.012222222,1,0,0,1.666,optionLeft,80,14335,7,8,0,8,0,1,,,,,,,,,,,,,,,,,,,,,,,,,,,,,,,,,,,,,,,
,,,,,,,,2023-08-16_08h43.27.328,HF_wild_card,2022.2.4,Win32,58.82352941,5d598acfe9d3b900212193d7,64d2fd46c836a06233681665,64dc7d735664ea86cae1fce0,,,,,,,decisionTrl,resources/DBN.BMP,resources/DY.BMP,Door1,-0.316666667,0.037777778,1,0,0,1.249,optionLeft,30,14365,7,9,0,9,0,1,,,,,,,,,,,,,,,,,,,,,,,,,,,,,,,,,,,,,,,
,,,,,,,,2023-08-16_08h43.27.328,HF_wild_card,2022.2.4,Win32,58.82352941,5d598acfe9d3b900212193d7,64d2fd46c836a06233681665,64dc7d735664ea86cae1fce0,,,,,,,decisionTrl,resources/DY.BMP,resources/DBN.BMP,Door2,-0.39,0.001111111,1,0,0,1.807,optionLeft,20,14385,7,10,0,10,0,1,,,,,,,,,,,,,,,,,,,,,,,,,,,,,,,,,,,,,,,
,,,,,,,,2023-08-16_08h43.27.328,HF_wild_card,2022.2.4,Win32,58.82352941,5d598acfe9d3b900212193d7,64d2fd46c836a06233681665,64dc7d735664ea86cae1fce0,,,,,,,decisionTrl,resources/DG.BMP,resources/DR.BMP,Door3,-0.334444444,-0.028888889,1,0,0,3.618,optionLeft,70,14455,7,11,0,11,0,1,,,,,,,,,,,,,,,,,,,,,,,,,,,,,,,,,,,,,,,
,,,,,,,,2023-08-16_08h43.27.328,HF_wild_card,2022.2.4,Win32,58.82352941,5d598acfe9d3b900212193d7,64d2fd46c836a06233681665,64dc7d735664ea86cae1fce0,,,,,,,decisionTrl,resources/DBN.BMP,resources/DY.BMP,Door2,0.334444444,-0.042222222,1,0,0,2.283,optionRight,20,14475,7,12,0,12,0,1,,,,,,,,,,,,,,,,,,,,,,,,,,,,,,,,,,,,,,,
,,,,,,,,2023-08-16_08h43.27.328,HF_wild_card,2022.2.4,Win32,58.82352941,5d598acfe9d3b900212193d7,64d2fd46c836a06233681665,64dc7d735664ea86cae1fce0,,,,,,,ctch,resources/DG.BMP,resources/DY.BMP,Door3,-0.451111111,-0.007777778,1,0,0,0.883,optionLeft,70,14545,7,13,0,13,0,1,,,,,,,,,,,,,,,,,,,,,,,,,,,,,,,,,,,,,,,
,,,,,,,,2023-08-16_08h43.27.328,HF_wild_card,2022.2.4,Win32,58.82352941,5d598acfe9d3b900212193d7,64d2fd46c836a06233681665,64dc7d735664ea86cae1fce0,,,,,,,ctch,resources/DBN.BMP,resources/DR.BMP,Door4,0.402222222,-0.054444444,1,0,0,1.483,optionRight,60,14605,7,14,0,14,0,1,,,,,,,,,,,,,,,,,,,,,,,,,,,,,,,,,,,,,,,
,,,,,,,,2023-08-16_08h43.27.328,HF_wild_card,2022.2.4,Win32,58.82352941,5d598acfe9d3b900212193d7,64d2fd46c836a06233681665,64dc7d735664ea86cae1fce0,,,,,,,decisionTrl,resources/DG.BMP,resources/DR.BMP,Door4,0.276666667,-0.014444444,1,0,0,2.591,optionRight,80,14685,7,15,0,15,0,1,,,,,,,,,,,,,,,,,,,,,,,,,,,,,,,,,,,,,,,
,,,,,,,,2023-08-16_08h43.27.328,HF_wild_card,2022.2.4,Win32,58.82352941,5d598acfe9d3b900212193d7,64d2fd46c836a06233681665,64dc7d735664ea86cae1fce0,,,,,,,decisionTrl,resources/DY.BMP,resources/DBN.BMP,Door2,-0.29,-0.01,1,0,0,1.032,optionLeft,40,14725,7,16,0,16,0,1,,,,,,,,,,,,,,,,,,,,,,,,,,,,,,,,,,,,,,,
,,,,,,,,2023-08-16_08h43.27.328,HF_wild_card,2022.2.4,Win32,58.82352941,5d598acfe9d3b900212193d7,64d2fd46c836a06233681665,64dc7d735664ea86cae1fce0,,,,,,,decisionTrl,resources/DBN.BMP,resources/DY.BMP,Door1,-0.314444444,-0.006666667,1,0,0,1.325,optionLeft,30,14755,7,17,0,17,0,1,,,,,,,,,,,,,,,,,,,,,,,,,,,,,,,,,,,,,,,
,,,,,,,,2023-08-16_08h43.27.328,HF_wild_card,2022.2.4,Win32,58.82352941,5d598acfe9d3b900212193d7,64d2fd46c836a06233681665,64dc7d735664ea86cae1fce0,,,,,,,decisionTrl,resources/DBN.BMP,resources/DY.BMP,Door1,-0.328888889,-0.006666667,1,0,0,0.9,optionLeft,30,14785,7,18,0,18,0,1,,,,,,,,,,,,,,,,,,,,,,,,,,,,,,,,,,,,,,,
,,,,,,,,2023-08-16_08h43.27.328,HF_wild_card,2022.2.4,Win32,58.82352941,5d598acfe9d3b900212193d7,64d2fd46c836a06233681665,64dc7d735664ea86cae1fce0,,,,,,,ctch,resources/DY.BMP,resources/DG.BMP,Door3,0.532222222,-0.082222222,1,0,0,1.303,optionRight,70,14855,7,19,0,19,0,1,,,,,,,,,,,,,,,,,,,,,,,,,,,,,,,,,,,,,,,
,,,,,,,,2023-08-16_08h43.27.328,HF_wild_card,2022.2.4,Win32,58.82352941,5d598acfe9d3b900212193d7,64d2fd46c836a06233681665,64dc7d735664ea86cae1fce0,,,,,,,decisionTrl,resources/DG.BMP,resources/DR.BMP,Door3,-0.284444444,-0.025555556,1,0,0,2.433,optionLeft,70,14925,7,20,0,20,0,1,,,,,,,,,,,,,,,,,,,,,,,,,,,,,,,,,,,,,,,
,,,,,,,,2023-08-16_08h43.27.328,HF_wild_card,2022.2.4,Win32,58.82352941,5d598acfe9d3b900212193d7,64d2fd46c836a06233681665,64dc7d735664ea86cae1fce0,,,,,,,ctch,resources/DR.BMP,resources/DBN.BMP,Door4,-0.365555556,-0.026666667,1,0,0,1.065,optionLeft,80,15005,7,21,0,21,0,1,,,,,,,,,,,,,,,,,,,,,,,,,,,,,,,,,,,,,,,
,,,,,,,,2023-08-16_08h43.27.328,HF_wild_card,2022.2.4,Win32,58.82352941,5d598acfe9d3b900212193d7,64d2fd46c836a06233681665,64dc7d735664ea86cae1fce0,,,,,,,decisionTrl,resources/DY.BMP,resources/DBN.BMP,Door2,-0.403333333,-0.023333333,1,0,0,1.124,optionLeft,20,15025,7,22,0,22,0,1,,,,,,,,,,,,,,,,,,,,,,,,,,,,,,,,,,,,,,,
,,,,,,,,2023-08-16_08h43.27.328,HF_wild_card,2022.2.4,Win32,58.82352941,5d598acfe9d3b900212193d7,64d2fd46c836a06233681665,64dc7d735664ea86cae1fce0,,,,,,,ctch,resources/DBN.BMP,resources/DR.BMP,Door4,0.398888889,-0.083333333,1,0,0,1.399,optionRight,80,15105,7,23,0,23,0,1,,,,,,,,,,,,,,,,,,,,,,,,,,,,,,,,,,,,,,,
,,,,,,,,2023-08-16_08h43.27.328,HF_wild_card,2022.2.4,Win32,58.82352941,5d598acfe9d3b900212193d7,64d2fd46c836a06233681665,64dc7d735664ea86cae1fce0,,,,,,,decisionTrl,resources/DY.BMP,resources/DBN.BMP,Door2,-0.383333333,0.02,1,0,0,1.299,optionLeft,20,15125,7,24,0,24,0,1,,,,,,,,,,,,,,,,,,,,,,,,,,,,,,,,,,,,,,,
,,,,,,,,2023-08-16_08h43.27.328,HF_wild_card,2022.2.4,Win32,58.82352941,5d598acfe9d3b900212193d7,64d2fd46c836a06233681665,64dc7d735664ea86cae1fce0,,,,,,,decisionTrl,resources/DR.BMP,resources/DG.BMP,Door4,-0.355555556,-0.031111111,1,0,0,1.691,optionLeft,60,15185,7,25,0,25,0,1,,,,,,,,,,,,,,,,,,,,,,,,,,,,,,,,,,,,,,,
,,,,,,,,2023-08-16_08h43.27.328,HF_wild_card,2022.2.4,Win32,58.82352941,5d598acfe9d3b900212193d7,64d2fd46c836a06233681665,64dc7d735664ea86cae1fce0,,,,,,,decisionTrl,resources/DR.BMP,resources/DG.BMP,Door4,-0.368888889,-0.013333333,1,0,0,1.015,optionLeft,60,15245,7,26,0,26,0,1,,,,,,,,,,,,,,,,,,,,,,,,,,,,,,,,,,,,,,,
,,,,,,,,2023-08-16_08h43.27.328,HF_wild_card,2022.2.4,Win32,58.82352941,5d598acfe9d3b900212193d7,64d2fd46c836a06233681665,64dc7d735664ea86cae1fce0,,,,,,,ctch,resources/DR.BMP,resources/DBN.BMP,Door4,-0.343333333,-0.057777778,1,0,0,1.079,optionLeft,80,15325,7,27,0,27,0,1,,,,,,,,,,,,,,,,,,,,,,,,,,,,,,,,,,,,,,,
,,,,,,,,2023-08-16_08h43.27.328,HF_wild_card,2022.2.4,Win32,58.82352941,5d598acfe9d3b900212193d7,64d2fd46c836a06233681665,64dc7d735664ea86cae1fce0,,,,,,,ctch,resources/DBN.BMP,resources/DR.BMP,Door4,0.374444444,-0.008888889,1,0,0,1.666,optionRight,60,15385,7,28,0,28,0,1,,,,,,,,,,,,,,,,,,,,,,,,,,,,,,,,,,,,,,,
,,,,,,,,2023-08-16_08h43.27.328,HF_wild_card,2022.2.4,Win32,58.82352941,5d598acfe9d3b900212193d7,64d2fd46c836a06233681665,64dc7d735664ea86cae1fce0,,,,,,,decisionTrl,resources/DY.BMP,resources/DBN.BMP,Door2,-0.336666667,-0.018888889,1,0,0,0.941,optionLeft,40,15425,7,29,0,29,0,1,,,,,,,,,,,,,,,,,,,,,,,,,,,,,,,,,,,,,,,
,,,,,,,,2023-08-16_08h43.27.328,HF_wild_card,2022.2.4,Win32,58.82352941,5d598acfe9d3b900212193d7,64d2fd46c836a06233681665,64dc7d735664ea86cae1fce0,,,,,,,decisionTrl,resources/DBN.BMP,resources/DY.BMP,Door2,0.57,-0.065555556,1,0,0,1.024,optionRight,40,15465,7,30,0,30,0,1,,,,,,,,,,,,,,,,,,,,,,,,,,,,,,,,,,,,,,,
,,,,,,,,2023-08-16_08h43.27.328,HF_wild_card,2022.2.4,Win32,58.82352941,5d598acfe9d3b900212193d7,64d2fd46c836a06233681665,64dc7d735664ea86cae1fce0,,,,,,,ctch,resources/DR.BMP,resources/DBN.BMP,Door4,-0.365555556,-0.036666667,1,0,0,0.907,optionLeft,80,15545,7,31,0,31,0,1,,,,,,,,,,,,,,,,,,,,,,,,,,,,,,,,,,,,,,,
,,,,,,,,2023-08-16_08h43.27.328,HF_wild_card,2022.2.4,Win32,58.82352941,5d598acfe9d3b900212193d7,64d2fd46c836a06233681665,64dc7d735664ea86cae1fce0,,,,,,,ctch,resources/DY.BMP,resources/DG.BMP,Door3,0.385555556,-0.047777778,1,0,0,1.383,optionRight,70,15615,7,32,0,32,0,1,,,,,,,,,,,,,,,,,,,,,,,,,,,,,,,,,,,,,,,
,,,,,,,,2023-08-16_08h43.27.328,HF_wild_card,2022.2.4,Win32,58.82352941,5d598acfe9d3b900212193d7,64d2fd46c836a06233681665,64dc7d735664ea86cae1fce0,,,,,,,decisionTrl,resources/DG.BMP,resources/DR.BMP,Door3,-0.368888889,-0.003333333,1,0,0,1.131,optionLeft,70,15685,7,33,0,33,0,1,,,,,,,,,,,,,,,,,,,,,,,,,,,,,,,,,,,,,,,
,,,,,,,,2023-08-16_08h43.27.328,HF_wild_card,2022.2.4,Win32,58.82352941,5d598acfe9d3b900212193d7,64d2fd46c836a06233681665,64dc7d735664ea86cae1fce0,,,,,,,decisionTrl,resources/DR.BMP,resources/DG.BMP,Door4,-0.326666667,-0.044444444,1,0,0,1.148,optionLeft,60,15745,7,34,0,34,0,1,,,,,,,,,,,,,,,,,,,,,,,,,,,,,,,,,,,,,,,
,,,,,,,,2023-08-16_08h43.27.328,HF_wild_card,2022.2.4,Win32,58.82352941,5d598acfe9d3b900212193d7,64d2fd46c836a06233681665,64dc7d735664ea86cae1fce0,,,,,,,decisionTrl,resources/DG.BMP,resources/DR.BMP,Door3,-0.32,-0.025555556,1,0,0,1.191,optionLeft,70,15815,7,35,0,35,0,1,,,,,,,,,,,,,,,,,,,,,,,,,,,,,,,,,,,,,,,
,,,,,,,,2023-08-16_08h43.27.328,HF_wild_card,2022.2.4,Win32,58.82352941,5d598acfe9d3b900212193d7,64d2fd46c836a06233681665,64dc7d735664ea86cae1fce0,,,,,,,,,,,,,,,,,,,,,,,,,,6,0,6,0,1,,,,,,,,,,,,,,,,,,,,,,,,,,,,,,,,,,
,,,,,,,,2023-08-16_08h43.27.328,HF_wild_card,2022.2.4,Win32,58.82352941,5d598acfe9d3b900212193d7,64d2fd46c836a06233681665,64dc7d735664ea86cae1fce0,,,,,,,,,,,,,,,,,,,,,,,,,,,,,,,3,,,,,,,,,,,,,,,,,,,,,,,,,,,,,,,,,
,,,,,,,,2023-08-16_08h43.27.328,HF_wild_card,2022.2.4,Win32,58.82352941,5d598acfe9d3b900212193d7,64d2fd46c836a06233681665,64dc7d735664ea86cae1fce0,,,,,,,,,,,,,,,,,,,,,,,,,,,,,,,,,,,,,,,,,,,,,,,,,,,,,,,,,,,,,,,,
,,,,,,,,2023-08-16_08h43.27.328,HF_wild_card,2022.2.4,Win32,58.82352941,5d598acfe9d3b900212193d7,64d2fd46c836a06233681665,64dc7d735664ea86cae1fce0,,,,,,,,,,,,,,,,,,,,,,,,,,,,,,,,70,Door3,resources/DG.BMP,0,0,0,0,1,,,,,,,,,,,,,,,,,,,,,,,,,
,,,,,,,,2023-08-16_08h43.27.328,HF_wild_card,2022.2.4,Win32,58.82352941,5d598acfe9d3b900212193d7,64d2fd46c836a06233681665,64dc7d735664ea86cae1fce0,,,,,,,,,,,,,,,,,,,,,,,,,,,,,,,,45,WC_nonExtreme,resources/DB.BMP,1,0,1,0,1,,,,,,,,,,,,,,,,,,,,,,,,,
,,,,,,,,2023-08-16_08h43.27.328,HF_wild_card,2022.2.4,Win32,58.82352941,5d598acfe9d3b900212193d7,64d2fd46c836a06233681665,64dc7d735664ea86cae1fce0,,,,,,,,,,,,,,,,,,,,,,,,,,,,,,,,5,WC_extreme,resources/DP.BMP,2,0,2,0,1,,,,,,,,,,,,,,,,,,,,,,,,,
,,,,,,,,2023-08-16_08h43.27.328,HF_wild_card,2022.2.4,Win32,58.82352941,5d598acfe9d3b900212193d7,64d2fd46c836a06233681665,64dc7d735664ea86cae1fce0,,,,,,,,,,,,,,,,,,,,,,,,,,,,,,,,40,Door2,resources/DY.BMP,3,0,3,0,1,,,,,,,,,,,,,,,,,,,,,,,,,
,,,,,,,,2023-08-16_08h43.27.328,HF_wild_card,2022.2.4,Win32,58.82352941,5d598acfe9d3b900212193d7,64d2fd46c836a06233681665,64dc7d735664ea86cae1fce0,,,,,,,,,,,,,,,,,,,,,,,,,,,,,,,,80,Door4,resources/DR.BMP,4,0,4,0,1,,,,,,,,,,,,,,,,,,,,,,,,,
,,,,,,,,2023-08-16_08h43.27.328,HF_wild_card,2022.2.4,Win32,58.82352941,5d598acfe9d3b900212193d7,64d2fd46c836a06233681665,64dc7d735664ea86cae1fce0,,,,,,,,,,,,,,,,,,,,,,,,,,,,,,,,30,Door1,resources/DBN.BMP,5,0,5,0,1,,,,,,,,,,,,,,,,,,,,,,,,,
,,,,,,,,2023-08-16_08h43.27.328,HF_wild_card,2022.2.4,Win32,58.82352941,5d598acfe9d3b900212193d7,64d2fd46c836a06233681665,64dc7d735664ea86cae1fce0,,,,,,,,,,,,,,,,,,,,,,,,,,,,,,,,,,,,,,,,,,,,,,,,,,,,,,,,,,,,,,,,
,,,,,,,,2023-08-16_08h43.27.328,HF_wild_card,2022.2.4,Win32,58.82352941,5d598acfe9d3b900212193d7,64d2fd46c836a06233681665,64dc7d735664ea86cae1fce0,,,,,,,,,,,,,,,,,,,,,,,,,,,,,,,,,,,,,,,,0,0,0,0,1,,,,,,,,,,,,,,,,,,,,
,,,,,,,,2023-08-16_08h43.27.328,HF_wild_card,2022.2.4,Win32,58.82352941,5d598acfe9d3b900212193d7,64d2fd46c836a06233681665,64dc7d735664ea86cae1fce0,,,,,,,,,,,,,,,,,,,,,,,,,,,,,,,,,,,,,,,,1,0,1,0,1,,,,,,,,,,,,,,,,,,,,
,,,,,,,,2023-08-16_08h43.27.328,HF_wild_card,2022.2.4,Win32,58.82352941,5d598acfe9d3b900212193d7,64d2fd46c836a06233681665,64dc7d735664ea86cae1fce0,,,,,,,,,,,,,,,,,,,,,,,,,,,,,,,,,,,,,,,,,,,,,-0.266666667,-0.381111111,1,0,0,yes,100%,0%,Door1,resources/DBN.BMP,0,0,0,0,1,,,,,
