Condition,Low fixed image (Door1),Low risky image (Door2),High fixed image (Door3),High risky image (Door4),NonExtreme Wild Card 1,NonExtreme Wild Card 2,,date,expName,psychopyVersion,OS,frameRate,PROLIFIC_PID,STUDY_ID,SESSION_ID,mouse_2.x,mouse_2.y,mouse_2.leftButton,mouse_2.midButton,mouse_2.rightButton,mouse_2.clicked_name,Trial Type,Left Option Image,Right Option Image,Chosen Door,mouse.x,mouse.y,mouse.leftButton,mouse.midButton,mouse.rightButton,mouse.time,mouse.clicked_name,Feedback,Cumulative Reward,Block,trial.thisRepN,trial.thisTrialN,trial.thisN,trial.thisIndex,trial.ran,blocks.thisRepN,blocks.thisTrialN,blocks.thisN,blocks.thisIndex,blocks.ran,Money conversion,First Outcome Reported,Shown Door (First Outcome),Displayed Image (First Outcome),outcomes.thisRepN,outcomes.thisTrialN,outcomes.thisN,outcomes.thisIndex,outcomes.ran,judgments.thisRepN,judgments.thisTrialN,judgments.thisN,judgments.thisIndex,judgments.ran,freqMouse.x,freqMouse.y,freqMouse.leftButton,freqMouse.midButton,freqMouse.rightButton,freqMouse.clicked_name,FQJ for first outcome,FQJ for second outcome,Shown Door,Displayed Image,trials.thisRepN,trials.thisTrialN,trials.thisN,trials.thisIndex,trials.ran,judgBlock.thisRepN,judgBlock.thisTrialN,judgBlock.thisN,judgBlock.thisIndex,judgBlock.ran
2,resources/DB.BMP,resources/DY.BMP,resources/DR.BMP,resources/DBN.BMP,resources/DG.BMP,resources/DP.BMP,,2023-08-16_08h49.41.509,HF_wild_card,2022.2.4,Win32,59.95563283,640095c783a33710a484adee,64d2fd46c836a06233681665,64dc7e9396ba187eefe1fcd8,,,,,,,,,,,,,,,,,,,,,,,,,,,,,,,,,,,,,,,,,,,,,,,,,,,,,,,,,,,,,,,,
,,,,,,,,2023-08-16_08h49.41.509,HF_wild_card,2022.2.4,Win32,59.95563283,640095c783a33710a484adee,64d2fd46c836a06233681665,64dc7e9396ba187eefe1fcd8,-0.014814801,-0.422222208,1,0,0,agree,,,,,,,,,,,,,,,,,,,,,,,,,,,,,,,,,,,,,,,,,,,,,,,,,,,,,,,,,,
,,,,,,,,2023-08-16_08h49.41.509,HF_wild_card,2022.2.4,Win32,59.95563283,640095c783a33710a484adee,64d2fd46c836a06233681665,64dc7e9396ba187eefe1fcd8,,,,,,,,,,,,,,,,,,,,,,,,,,,,,,,,,,,,,,,,,,,,,,,,,,,,,,,,,,,,,,,,
,,,,,,,,2023-08-16_08h49.41.509,HF_wild_card,2022.2.4,Win32,59.95563283,640095c783a33710a484adee,64d2fd46c836a06233681665,64dc7e9396ba187eefe1fcd8,,,,,,,ctch,resources/DY.BMP,resources/DR.BMP,Door3,0.452777863,0.042592578,1,0,0,7.6838,optionRight,70,70,1,0,0,0,0,1,,,,,,,,,,,,,,,,,,,,,,,,,,,,,,,,,,,,,,,
,,,,,,,,2023-08-16_08h49.41.509,HF_wild_card,2022.2.4,Win32,59.95563283,640095c783a33710a484adee,64d2fd46c836a06233681665,64dc7e9396ba187eefe1fcd8,,,,,,,sngl,resources/DB.BMP,resources/Empty.png,Door1,-0.505555541,0.060185185,1,0,0,2.0676,optionLeft,30,100,1,1,0,1,0,1,,,,,,,,,,,,,,,,,,,,,,,,,,,,,,,,,,,,,,,
,,,,,,,,2023-08-16_08h49.41.509,HF_wild_card,2022.2.4,Win32,59.95563283,640095c783a33710a484adee,64d2fd46c836a06233681665,64dc7e9396ba187eefe1fcd8,,,,,,,decisionTrl,resources/DY.BMP,resources/DP.BMP,Door2,-0.281481496,0.01944443,1,0,0,2.3386,optionLeft,40,140,1,2,0,2,0,1,,,,,,,,,,,,,,,,,,,,,,,,,,,,,,,,,,,,,,,
,,,,,,,,2023-08-16_08h49.41.509,HF_wild_card,2022.2.4,Win32,59.95563283,640095c783a33710a484adee,64d2fd46c836a06233681665,64dc7e9396ba187eefe1fcd8,,,,,,,decisionTrl,resources/DBN.BMP,resources/DP.BMP,Door4,-0.241666653,0.023148148,1,0,0,2.7227,optionLeft,60,200,1,3,0,3,0,1,,,,,,,,,,,,,,,,,,,,,,,,,,,,,,,,,,,,,,,
,,,,,,,,2023-08-16_08h49.41.509,HF_wild_card,2022.2.4,Win32,59.95563283,640095c783a33710a484adee,64d2fd46c836a06233681665,64dc7e9396ba187eefe1fcd8,,,,,,,ctch,resources/DR.BMP,resources/DY.BMP,Door2,0.376851824,-0.025000007,1,0,0,1.6685,optionRight,20,220,1,4,0,4,0,1,,,,,,,,,,,,,,,,,,,,,,,,,,,,,,,,,,,,,,,
,,,,,,,,2023-08-16_08h49.41.509,HF_wild_card,2022.2.4,Win32,59.95563283,640095c783a33710a484adee,64d2fd46c836a06233681665,64dc7e9396ba187eefe1fcd8,,,,,,,sngl,resources/Empty.png,resources/DP.BMP,WildCard_NonEx,0.404629601,-0.002777771,1,0,0,1.3849,optionRight,55,275,1,5,0,5,0,1,,,,,,,,,,,,,,,,,,,,,,,,,,,,,,,,,,,,,,,
,,,,,,,,2023-08-16_08h49.41.509,HF_wild_card,2022.2.4,Win32,59.95563283,640095c783a33710a484adee,64d2fd46c836a06233681665,64dc7e9396ba187eefe1fcd8,,,,,,,decisionTrl,resources/DR.BMP,resources/DBN.BMP,Door3,-0.246296282,0.047222208,1,0,0,2.1795,optionLeft,70,345,1,6,0,6,0,1,,,,,,,,,,,,,,,,,,,,,,,,,,,,,,,,,,,,,,,
,,,,,,,,2023-08-16_08h49.41.509,HF_wild_card,2022.2.4,Win32,59.95563283,640095c783a33710a484adee,64d2fd46c836a06233681665,64dc7e9396ba187eefe1fcd8,,,,,,,sngl,resources/DY.BMP,resources/Empty.png,Door2,-0.397222201,0.042592578,1,0,0,1.4626,optionLeft,40,385,1,7,0,7,0,1,,,,,,,,,,,,,,,,,,,,,,,,,,,,,,,,,,,,,,,
,,,,,,,,2023-08-16_08h49.41.509,HF_wild_card,2022.2.4,Win32,59.95563283,640095c783a33710a484adee,64d2fd46c836a06233681665,64dc7e9396ba187eefe1fcd8,,,,,,,sngl,resources/Empty.png,resources/DP.BMP,WildCard_NonEx,0.414814843,-0.022222236,1,0,0,1.0742,optionRight,45,430,1,8,0,8,0,1,,,,,,,,,,,,,,,,,,,,,,,,,,,,,,,,,,,,,,,
,,,,,,,,2023-08-16_08h49.41.509,HF_wild_card,2022.2.4,Win32,59.95563283,640095c783a33710a484adee,64d2fd46c836a06233681665,64dc7e9396ba187eefe1fcd8,,,,,,,decisionTrl,resources/DY.BMP,resources/DB.BMP,Door1,0.395370342,-0.008333347,1,0,0,2.8034,optionRight,30,460,1,9,0,9,0,1,,,,,,,,,,,,,,,,,,,,,,,,,,,,,,,,,,,,,,,
,,,,,,,,2023-08-16_08h49.41.509,HF_wild_card,2022.2.4,Win32,59.95563283,640095c783a33710a484adee,64d2fd46c836a06233681665,64dc7e9396ba187eefe1fcd8,,,,,,,sngl,resources/DP.BMP,resources/Empty.png,WildCard_NonEx,-0.291666667,0.03611109,1,0,0,1.0438,optionLeft,55,515,1,10,0,10,0,1,,,,,,,,,,,,,,,,,,,,,,,,,,,,,,,,,,,,,,,
,,,,,,,,2023-08-16_08h49.41.509,HF_wild_card,2022.2.4,Win32,59.95563283,640095c783a33710a484adee,64d2fd46c836a06233681665,64dc7e9396ba187eefe1fcd8,,,,,,,ctch,resources/DB.BMP,resources/DBN.BMP,Door4,0.389814871,-0.015740748,1,0,0,1.2488,optionRight,60,575,1,11,0,11,0,1,,,,,,,,,,,,,,,,,,,,,,,,,,,,,,,,,,,,,,,
,,,,,,,,2023-08-16_08h49.41.509,HF_wild_card,2022.2.4,Win32,59.95563283,640095c783a33710a484adee,64d2fd46c836a06233681665,64dc7e9396ba187eefe1fcd8,,,,,,,sngl,resources/DP.BMP,resources/Empty.png,WildCard_NonEx,-0.314814815,0.042592578,1,0,0,1.0677,optionLeft,45,620,1,12,0,12,0,1,,,,,,,,,,,,,,,,,,,,,,,,,,,,,,,,,,,,,,,
,,,,,,,,2023-08-16_08h49.41.509,HF_wild_card,2022.2.4,Win32,59.95563283,640095c783a33710a484adee,64d2fd46c836a06233681665,64dc7e9396ba187eefe1fcd8,,,,,,,decisionTrl,resources/DR.BMP,resources/DBN.BMP,Door3,-0.316666674,0.030555548,1,0,0,2.6385,optionLeft,70,690,1,13,0,13,0,1,,,,,,,,,,,,,,,,,,,,,,,,,,,,,,,,,,,,,,,
,,,,,,,,2023-08-16_08h49.41.509,HF_wild_card,2022.2.4,Win32,59.95563283,640095c783a33710a484adee,64d2fd46c836a06233681665,64dc7e9396ba187eefe1fcd8,,,,,,,decisionTrl,resources/DBN.BMP,resources/DR.BMP,Door4,-0.349074081,0.042592578,1,0,0,2.3869,optionLeft,60,750,1,14,0,14,0,1,,,,,,,,,,,,,,,,,,,,,,,,,,,,,,,,,,,,,,,
,,,,,,,,2023-08-16_08h49.41.509,HF_wild_card,2022.2.4,Win32,59.95563283,640095c783a33710a484adee,64d2fd46c836a06233681665,64dc7e9396ba187eefe1fcd8,,,,,,,decisionTrl,resources/DP.BMP,resources/DY.BMP,Door2,0.319444444,-0.018518519,1,0,0,1.6599,optionRight,20,770,1,15,0,15,0,1,,,,,,,,,,,,,,,,,,,,,,,,,,,,,,,,,,,,,,,
,,,,,,,,2023-08-16_08h49.41.509,HF_wild_card,2022.2.4,Win32,59.95563283,640095c783a33710a484adee,64d2fd46c836a06233681665,64dc7e9396ba187eefe1fcd8,,,,,,,sngl,resources/Empty.png,resources/DR.BMP,Door3,0.36018527,-0.00462963,1,0,0,1.237,optionRight,70,840,1,16,0,16,0,1,,,,,,,,,,,,,,,,,,,,,,,,,,,,,,,,,,,,,,,
,,,,,,,,2023-08-16_08h49.41.509,HF_wild_card,2022.2.4,Win32,59.95563283,640095c783a33710a484adee,64d2fd46c836a06233681665,64dc7e9396ba187eefe1fcd8,,,,,,,decisionTrl,resources/DP.BMP,resources/DBN.BMP,WildCard_NonEx,-0.286111125,0.037037037,1,0,0,2.9669,optionLeft,45,885,1,17,0,17,0,1,,,,,,,,,,,,,,,,,,,,,,,,,,,,,,,,,,,,,,,
,,,,,,,,2023-08-16_08h49.41.509,HF_wild_card,2022.2.4,Win32,59.95563283,640095c783a33710a484adee,64d2fd46c836a06233681665,64dc7e9396ba187eefe1fcd8,,,,,,,decisionTrl,resources/DB.BMP,resources/DY.BMP,Door1,-0.241666653,0.032407407,1,0,0,1.5344,optionLeft,30,915,1,18,0,18,0,1,,,,,,,,,,,,,,,,,,,,,,,,,,,,,,,,,,,,,,,
,,,,,,,,2023-08-16_08h49.41.509,HF_wild_card,2022.2.4,Win32,59.95563283,640095c783a33710a484adee,64d2fd46c836a06233681665,64dc7e9396ba187eefe1fcd8,,,,,,,decisionTrl,resources/DP.BMP,resources/DB.BMP,WildCard_NonEx,-0.351851852,0.047222208,1,0,0,1.8535,optionLeft,45,960,1,19,0,19,0,1,,,,,,,,,,,,,,,,,,,,,,,,,,,,,,,,,,,,,,,
,,,,,,,,2023-08-16_08h49.41.509,HF_wild_card,2022.2.4,Win32,59.95563283,640095c783a33710a484adee,64d2fd46c836a06233681665,64dc7e9396ba187eefe1fcd8,,,,,,,decisionTrl,resources/DBN.BMP,resources/DR.BMP,Door4,-0.372222229,0.056481467,1,0,0,2.5265,optionLeft,80,1040,1,20,0,20,0,1,,,,,,,,,,,,,,,,,,,,,,,,,,,,,,,,,,,,,,,
,,,,,,,,2023-08-16_08h49.41.509,HF_wild_card,2022.2.4,Win32,59.95563283,640095c783a33710a484adee,64d2fd46c836a06233681665,64dc7e9396ba187eefe1fcd8,,,,,,,ctch,resources/DBN.BMP,resources/DB.BMP,Door4,-0.413888896,0.072222215,1,0,0,8.8671,optionLeft,80,1120,1,21,0,21,0,1,,,,,,,,,,,,,,,,,,,,,,,,,,,,,,,,,,,,,,,
,,,,,,,,2023-08-16_08h49.41.509,HF_wild_card,2022.2.4,Win32,59.95563283,640095c783a33710a484adee,64d2fd46c836a06233681665,64dc7e9396ba187eefe1fcd8,,,,,,,ctch,resources/DR.BMP,resources/DY.BMP,Door3,-0.251851824,0.027777778,1,0,0,1.6025,optionLeft,70,1190,1,22,0,22,0,1,,,,,,,,,,,,,,,,,,,,,,,,,,,,,,,,,,,,,,,
,,,,,,,,2023-08-16_08h49.41.509,HF_wild_card,2022.2.4,Win32,59.95563283,640095c783a33710a484adee,64d2fd46c836a06233681665,64dc7e9396ba187eefe1fcd8,,,,,,,decisionTrl,resources/DB.BMP,resources/DY.BMP,Door1,-0.412037037,0.054629608,1,0,0,1.3352,optionLeft,30,1220,1,23,0,23,0,1,,,,,,,,,,,,,,,,,,,,,,,,,,,,,,,,,,,,,,,
,,,,,,,,2023-08-16_08h49.41.509,HF_wild_card,2022.2.4,Win32,59.95563283,640095c783a33710a484adee,64d2fd46c836a06233681665,64dc7e9396ba187eefe1fcd8,,,,,,,decisionTrl,resources/DB.BMP,resources/DP.BMP,WildCard_NonEx,0.37962963,-0.026851866,1,0,0,1.6027,optionRight,55,1275,1,24,0,24,0,1,,,,,,,,,,,,,,,,,,,,,,,,,,,,,,,,,,,,,,,
,,,,,,,,2023-08-16_08h49.41.509,HF_wild_card,2022.2.4,Win32,59.95563283,640095c783a33710a484adee,64d2fd46c836a06233681665,64dc7e9396ba187eefe1fcd8,,,,,,,sngl,resources/DR.BMP,resources/Empty.png,Door3,-0.289814772,0.037037037,1,0,0,1.1344,optionLeft,70,1345,1,25,0,25,0,1,,,,,,,,,,,,,,,,,,,,,,,,,,,,,,,,,,,,,,,
,,,,,,,,2023-08-16_08h49.41.509,HF_wild_card,2022.2.4,Win32,59.95563283,640095c783a33710a484adee,64d2fd46c836a06233681665,64dc7e9396ba187eefe1fcd8,,,,,,,ctch,resources/DBN.BMP,resources/DB.BMP,Door4,-0.40370369,0.072222215,1,0,0,2.6725,optionLeft,80,1425,1,26,0,26,0,1,,,,,,,,,,,,,,,,,,,,,,,,,,,,,,,,,,,,,,,
,,,,,,,,2023-08-16_08h49.41.509,HF_wild_card,2022.2.4,Win32,59.95563283,640095c783a33710a484adee,64d2fd46c836a06233681665,64dc7e9396ba187eefe1fcd8,,,,,,,decisionTrl,resources/DB.BMP,resources/DY.BMP,Door1,-0.336111104,0.048148155,1,0,0,1.5357,optionLeft,30,1455,1,27,0,27,0,1,,,,,,,,,,,,,,,,,,,,,,,,,,,,,,,,,,,,,,,
,,,,,,,,2023-08-16_08h49.41.509,HF_wild_card,2022.2.4,Win32,59.95563283,640095c783a33710a484adee,64d2fd46c836a06233681665,64dc7e9396ba187eefe1fcd8,,,,,,,sngl,resources/Empty.png,resources/DBN.BMP,Door4,0.425000085,0.00462963,1,0,0,1.1164,optionRight,60,1515,1,28,0,28,0,1,,,,,,,,,,,,,,,,,,,,,,,,,,,,,,,,,,,,,,,
,,,,,,,,2023-08-16_08h49.41.509,HF_wild_card,2022.2.4,Win32,59.95563283,640095c783a33710a484adee,64d2fd46c836a06233681665,64dc7e9396ba187eefe1fcd8,,,,,,,ctch,resources/DY.BMP,resources/DR.BMP,Door3,0.346296381,0.00462963,1,0,0,1.6503,optionRight,70,1585,1,29,0,29,0,1,,,,,,,,,,,,,,,,,,,,,,,,,,,,,,,,,,,,,,,
,,,,,,,,2023-08-16_08h49.41.509,HF_wild_card,2022.2.4,Win32,59.95563283,640095c783a33710a484adee,64d2fd46c836a06233681665,64dc7e9396ba187eefe1fcd8,,,,,,,sngl,resources/DBN.BMP,resources/Empty.png,Door4,-0.270370342,0.033333319,1,0,0,1.3692,optionLeft,80,1665,1,30,0,30,0,1,,,,,,,,,,,,,,,,,,,,,,,,,,,,,,,,,,,,,,,
,,,,,,,,2023-08-16_08h49.41.509,HF_wild_card,2022.2.4,Win32,59.95563283,640095c783a33710a484adee,64d2fd46c836a06233681665,64dc7e9396ba187eefe1fcd8,,,,,,,decisionTrl,resources/DY.BMP,resources/DB.BMP,Door1,0.405555584,-0.01203703,1,0,0,1.6858,optionRight,30,1695,1,31,0,31,0,1,,,,,,,,,,,,,,,,,,,,,,,,,,,,,,,,,,,,,,,
,,,,,,,,2023-08-16_08h49.41.509,HF_wild_card,2022.2.4,Win32,59.95563283,640095c783a33710a484adee,64d2fd46c836a06233681665,64dc7e9396ba187eefe1fcd8,,,,,,,ctch,resources/DB.BMP,resources/DBN.BMP,Door4,0.37962963,0.005555541,1,0,0,1.5684,optionRight,80,1775,1,32,0,32,0,1,,,,,,,,,,,,,,,,,,,,,,,,,,,,,,,,,,,,,,,
,,,,,,,,2023-08-16_08h49.41.509,HF_wild_card,2022.2.4,Win32,59.95563283,640095c783a33710a484adee,64d2fd46c836a06233681665,64dc7e9396ba187eefe1fcd8,,,,,,,decisionTrl,resources/DY.BMP,resources/DB.BMP,Door1,0.393518519,0.008333312,1,0,0,2.0972,optionRight,30,1805,1,33,0,33,0,1,,,,,,,,,,,,,,,,,,,,,,,,,,,,,,,,,,,,,,,
,,,,,,,,2023-08-16_08h49.41.509,HF_wild_card,2022.2.4,Win32,59.95563283,640095c783a33710a484adee,64d2fd46c836a06233681665,64dc7e9396ba187eefe1fcd8,,,,,,,decisionTrl,resources/DP.BMP,resources/DR.BMP,Door3,0.225000028,0.010185171,1,0,0,2.8219,optionRight,70,1875,1,34,0,34,0,1,,,,,,,,,,,,,,,,,,,,,,,,,,,,,,,,,,,,,,,
,,,,,,,,2023-08-16_08h49.41.509,HF_wild_card,2022.2.4,Win32,59.95563283,640095c783a33710a484adee,64d2fd46c836a06233681665,64dc7e9396ba187eefe1fcd8,,,,,,,decisionTrl,resources/DR.BMP,resources/DP.BMP,Door3,-0.364814794,0.033333319,1,0,0,1.6104,optionLeft,70,1945,1,35,0,35,0,1,,,,,,,,,,,,,,,,,,,,,,,,,,,,,,,,,,,,,,,
,,,,,,,,2023-08-16_08h49.41.509,HF_wild_card,2022.2.4,Win32,59.95563283,640095c783a33710a484adee,64d2fd46c836a06233681665,64dc7e9396ba187eefe1fcd8,,,,,,,decisionTrl,resources/DR.BMP,resources/DBN.BMP,Door3,-0.255555541,0.041666667,1,0,0,1.894,optionLeft,70,2015,1,36,0,36,0,1,,,,,,,,,,,,,,,,,,,,,,,,,,,,,,,,,,,,,,,
,,,,,,,,2023-08-16_08h49.41.509,HF_wild_card,2022.2.4,Win32,59.95563283,640095c783a33710a484adee,64d2fd46c836a06233681665,64dc7e9396ba187eefe1fcd8,,,,,,,sngl,resources/Empty.png,resources/DY.BMP,Door2,0.368518547,-0.00462963,1,0,0,1.0531,optionRight,20,2035,1,37,0,37,0,1,,,,,,,,,,,,,,,,,,,,,,,,,,,,,,,,,,,,,,,
,,,,,,,,2023-08-16_08h49.41.509,HF_wild_card,2022.2.4,Win32,59.95563283,640095c783a33710a484adee,64d2fd46c836a06233681665,64dc7e9396ba187eefe1fcd8,,,,,,,decisionTrl,resources/DBN.BMP,resources/DR.BMP,Door4,-0.255555541,0.037962949,1,0,0,1.7535,optionLeft,60,2095,1,38,0,38,0,1,,,,,,,,,,,,,,,,,,,,,,,,,,,,,,,,,,,,,,,
,,,,,,,,2023-08-16_08h49.41.509,HF_wild_card,2022.2.4,Win32,59.95563283,640095c783a33710a484adee,64d2fd46c836a06233681665,64dc7e9396ba187eefe1fcd8,,,,,,,decisionTrl,resources/DY.BMP,resources/DB.BMP,Door1,0.279629672,-0.00462963,1,0,0,1.8963,optionRight,30,2125,1,39,0,39,0,1,,,,,,,,,,,,,,,,,,,,,,,,,,,,,,,,,,,,,,,
,,,,,,,,2023-08-16_08h49.41.509,HF_wild_card,2022.2.4,Win32,59.95563283,640095c783a33710a484adee,64d2fd46c836a06233681665,64dc7e9396ba187eefe1fcd8,,,,,,,decisionTrl,resources/DBN.BMP,resources/DR.BMP,Door3,0.265740783,0.010185171,1,0,0,1.462,optionRight,70,2195,1,40,0,40,0,1,,,,,,,,,,,,,,,,,,,,,,,,,,,,,,,,,,,,,,,
,,,,,,,,2023-08-16_08h49.41.509,HF_wild_card,2022.2.4,Win32,59.95563283,640095c783a33710a484adee,64d2fd46c836a06233681665,64dc7e9396ba187eefe1fcd8,,,,,,,decisionTrl,resources/DR.BMP,resources/DBN.BMP,Door3,-0.339814822,0.055555556,1,0,0,1.5987,optionLeft,70,2265,1,41,0,41,0,1,,,,,,,,,,,,,,,,,,,,,,,,,,,,,,,,,,,,,,,
,,,,,,,,2023-08-16_08h49.41.509,HF_wild_card,2022.2.4,Win32,59.95563283,640095c783a33710a484adee,64d2fd46c836a06233681665,64dc7e9396ba187eefe1fcd8,,,,,,,sngl,resources/Empty.png,resources/DB.BMP,Door1,0.376851824,0.026851831,1,0,0,1.2173,optionRight,30,2295,1,42,0,42,0,1,,,,,,,,,,,,,,,,,,,,,,,,,,,,,,,,,,,,,,,
,,,,,,,,2023-08-16_08h49.41.509,HF_wild_card,2022.2.4,Win32,59.95563283,640095c783a33710a484adee,64d2fd46c836a06233681665,64dc7e9396ba187eefe1fcd8,,,,,,,decisionTrl,resources/DB.BMP,resources/DY.BMP,Door1,-0.298148155,0.054629608,1,0,0,1.7768,optionLeft,30,2325,1,43,0,43,0,1,,,,,,,,,,,,,,,,,,,,,,,,,,,,,,,,,,,,,,,
,,,,,,,,2023-08-16_08h49.41.509,HF_wild_card,2022.2.4,Win32,59.95563283,640095c783a33710a484adee,64d2fd46c836a06233681665,64dc7e9396ba187eefe1fcd8,,,,,,,,,,,,,,,,,,,,,,,,,,0,0,0,0,1,,,,,,,,,,,,,,,,,,,,,,,,,,,,,,,,,,
,,,,,,,,2023-08-16_08h49.41.509,HF_wild_card,2022.2.4,Win32,59.95563283,640095c783a33710a484adee,64d2fd46c836a06233681665,64dc7e9396ba187eefe1fcd8,,,,,,,decisionTrl,resources/DY.BMP,resources/DB.BMP,Door1,0.385185242,0.02407406,1,0,0,2.2764,optionRight,30,2355,2,0,0,0,0,1,,,,,,,,,,,,,,,,,,,,,,,,,,,,,,,,,,,,,,,
,,,,,,,,2023-08-16_08h49.41.509,HF_wild_card,2022.2.4,Win32,59.95563283,640095c783a33710a484adee,64d2fd46c836a06233681665,64dc7e9396ba187eefe1fcd8,,,,,,,decisionTrl,resources/DY.BMP,resources/DB.BMP,Door1,0.305555556,0.037962949,1,0,0,1.7705,optionRight,30,2385,2,1,0,1,0,1,,,,,,,,,,,,,,,,,,,,,,,,,,,,,,,,,,,,,,,
,,,,,,,,2023-08-16_08h49.41.509,HF_wild_card,2022.2.4,Win32,59.95563283,640095c783a33710a484adee,64d2fd46c836a06233681665,64dc7e9396ba187eefe1fcd8,,,,,,,decisionTrl,resources/DBN.BMP,resources/DR.BMP,Door3,0.263888889,0.012962942,1,0,0,2.7232,optionRight,70,2455,2,2,0,2,0,1,,,,,,,,,,,,,,,,,,,,,,,,,,,,,,,,,,,,,,,
,,,,,,,,2023-08-16_08h49.41.509,HF_wild_card,2022.2.4,Win32,59.95563283,640095c783a33710a484adee,64d2fd46c836a06233681665,64dc7e9396ba187eefe1fcd8,,,,,,,decisionTrl,resources/DY.BMP,resources/DB.BMP,Door1,0.303703732,0.014814801,1,0,0,2.4266,optionRight,30,2485,2,3,0,3,0,1,,,,,,,,,,,,,,,,,,,,,,,,,,,,,,,,,,,,,,,
,,,,,,,,2023-08-16_08h49.41.509,HF_wild_card,2022.2.4,Win32,59.95563283,640095c783a33710a484adee,64d2fd46c836a06233681665,64dc7e9396ba187eefe1fcd8,,,,,,,decisionTrl,resources/DBN.BMP,resources/DR.BMP,Door3,0.255555541,0.01666666,1,0,0,1.3351,optionRight,70,2555,2,4,0,4,0,1,,,,,,,,,,,,,,,,,,,,,,,,,,,,,,,,,,,,,,,
,,,,,,,,2023-08-16_08h49.41.509,HF_wild_card,2022.2.4,Win32,59.95563283,640095c783a33710a484adee,64d2fd46c836a06233681665,64dc7e9396ba187eefe1fcd8,,,,,,,ctch,resources/DBN.BMP,resources/DB.BMP,Door4,-0.323148127,0.033333319,1,0,0,1.7771,optionLeft,60,2615,2,5,0,5,0,1,,,,,,,,,,,,,,,,,,,,,,,,,,,,,,,,,,,,,,,
,,,,,,,,2023-08-16_08h49.41.509,HF_wild_card,2022.2.4,Win32,59.95563283,640095c783a33710a484adee,64d2fd46c836a06233681665,64dc7e9396ba187eefe1fcd8,,,,,,,decisionTrl,resources/DB.BMP,resources/DY.BMP,Door2,0.340740769,0.000925912,1,0,0,3.5329,optionRight,40,2655,2,6,0,6,0,1,,,,,,,,,,,,,,,,,,,,,,,,,,,,,,,,,,,,,,,
,,,,,,,,2023-08-16_08h49.41.509,HF_wild_card,2022.2.4,Win32,59.95563283,640095c783a33710a484adee,64d2fd46c836a06233681665,64dc7e9396ba187eefe1fcd8,,,,,,,decisionTrl,resources/DR.BMP,resources/DBN.BMP,Door3,-0.266666624,0.04074072,1,0,0,2.572,optionLeft,70,2725,2,7,0,7,0,1,,,,,,,,,,,,,,,,,,,,,,,,,,,,,,,,,,,,,,,
,,,,,,,,2023-08-16_08h49.41.509,HF_wild_card,2022.2.4,Win32,59.95563283,640095c783a33710a484adee,64d2fd46c836a06233681665,64dc7e9396ba187eefe1fcd8,,,,,,,decisionTrl,resources/DY.BMP,resources/DB.BMP,Door2,-0.369444423,0.061111097,1,0,0,3.1756,optionLeft,40,2765,2,8,0,8,0,1,,,,,,,,,,,,,,,,,,,,,,,,,,,,,,,,,,,,,,,
,,,,,,,,2023-08-16_08h49.41.509,HF_wild_card,2022.2.4,Win32,59.95563283,640095c783a33710a484adee,64d2fd46c836a06233681665,64dc7e9396ba187eefe1fcd8,,,,,,,decisionTrl,resources/DR.BMP,resources/DBN.BMP,Door3,-0.288888861,0.049074067,1,0,0,1.8188,optionLeft,70,2835,2,9,0,9,0,1,,,,,,,,,,,,,,,,,,,,,,,,,,,,,,,,,,,,,,,
,,,,,,,,2023-08-16_08h49.41.509,HF_wild_card,2022.2.4,Win32,59.95563283,640095c783a33710a484adee,64d2fd46c836a06233681665,64dc7e9396ba187eefe1fcd8,,,,,,,decisionTrl,resources/DB.BMP,resources/DY.BMP,Door2,0.347222222,0.001851859,1,0,0,2.8668,optionRight,40,2875,2,10,0,10,0,1,,,,,,,,,,,,,,,,,,,,,,,,,,,,,,,,,,,,,,,
,,,,,,,,2023-08-16_08h49.41.509,HF_wild_card,2022.2.4,Win32,59.95563283,640095c783a33710a484adee,64d2fd46c836a06233681665,64dc7e9396ba187eefe1fcd8,,,,,,,sngl,resources/Empty.png,resources/DY.BMP,Door2,0.358333305,0.033333319,1,0,0,1.0183,optionRight,40,2915,2,11,0,11,0,1,,,,,,,,,,,,,,,,,,,,,,,,,,,,,,,,,,,,,,,
,,,,,,,,2023-08-16_08h49.41.509,HF_wild_card,2022.2.4,Win32,59.95563283,640095c783a33710a484adee,64d2fd46c836a06233681665,64dc7e9396ba187eefe1fcd8,,,,,,,ctch,resources/DY.BMP,resources/DR.BMP,Door3,0.315740797,0.030555548,1,0,0,1.5611,optionRight,70,2985,2,12,0,12,0,1,,,,,,,,,,,,,,,,,,,,,,,,,,,,,,,,,,,,,,,
,,,,,,,,2023-08-16_08h49.41.509,HF_wild_card,2022.2.4,Win32,59.95563283,640095c783a33710a484adee,64d2fd46c836a06233681665,64dc7e9396ba187eefe1fcd8,,,,,,,decisionTrl,resources/DP.BMP,resources/DB.BMP,WildCard_NonEx,-0.373148141,0.064814815,1,0,0,3.9598,optionLeft,55,3040,2,13,0,13,0,1,,,,,,,,,,,,,,,,,,,,,,,,,,,,,,,,,,,,,,,
,,,,,,,,2023-08-16_08h49.41.509,HF_wild_card,2022.2.4,Win32,59.95563283,640095c783a33710a484adee,64d2fd46c836a06233681665,64dc7e9396ba187eefe1fcd8,,,,,,,sngl,resources/Empty.png,resources/DBN.BMP,Door4,0.398148148,-0.010185206,1,0,0,1.0174,optionRight,80,3120,2,14,0,14,0,1,,,,,,,,,,,,,,,,,,,,,,,,,,,,,,,,,,,,,,,
,,,,,,,,2023-08-16_08h49.41.509,HF_wild_card,2022.2.4,Win32,59.95563283,640095c783a33710a484adee,64d2fd46c836a06233681665,64dc7e9396ba187eefe1fcd8,,,,,,,decisionTrl,resources/DY.BMP,resources/DP.BMP,WildCard_NonEx,0.348148205,0.027777778,1,0,0,2.3549,optionRight,45,3165,2,15,0,15,0,1,,,,,,,,,,,,,,,,,,,,,,,,,,,,,,,,,,,,,,,
,,,,,,,,2023-08-16_08h49.41.509,HF_wild_card,2022.2.4,Win32,59.95563283,640095c783a33710a484adee,64d2fd46c836a06233681665,64dc7e9396ba187eefe1fcd8,,,,,,,sngl,resources/Empty.png,resources/DR.BMP,Door3,0.375,0.01666666,1,0,0,1.0005,optionRight,70,3235,2,16,0,16,0,1,,,,,,,,,,,,,,,,,,,,,,,,,,,,,,,,,,,,,,,
,,,,,,,,2023-08-16_08h49.41.509,HF_wild_card,2022.2.4,Win32,59.95563283,640095c783a33710a484adee,64d2fd46c836a06233681665,64dc7e9396ba187eefe1fcd8,,,,,,,decisionTrl,resources/DP.BMP,resources/DY.BMP,WildCard_NonEx,-0.244444459,0.043518526,1,0,0,2.6057,optionLeft,45,3280,2,17,0,17,0,1,,,,,,,,,,,,,,,,,,,,,,,,,,,,,,,,,,,,,,,
,,,,,,,,2023-08-16_08h49.41.509,HF_wild_card,2022.2.4,Win32,59.95563283,640095c783a33710a484adee,64d2fd46c836a06233681665,64dc7e9396ba187eefe1fcd8,,,,,,,decisionTrl,resources/DR.BMP,resources/DBN.BMP,Door4,0.333333333,0.000925912,1,0,0,1.7164,optionRight,60,3340,2,18,0,18,0,1,,,,,,,,,,,,,,,,,,,,,,,,,,,,,,,,,,,,,,,
,,,,,,,,2023-08-16_08h49.41.509,HF_wild_card,2022.2.4,Win32,59.95563283,640095c783a33710a484adee,64d2fd46c836a06233681665,64dc7e9396ba187eefe1fcd8,,,,,,,sngl,resources/DB.BMP,resources/Empty.png,Door1,-0.239814829,0.04074072,1,0,0,1.2145,optionLeft,30,3370,2,19,0,19,0,1,,,,,,,,,,,,,,,,,,,,,,,,,,,,,,,,,,,,,,,
,,,,,,,,2023-08-16_08h49.41.509,HF_wild_card,2022.2.4,Win32,59.95563283,640095c783a33710a484adee,64d2fd46c836a06233681665,64dc7e9396ba187eefe1fcd8,,,,,,,sngl,resources/DP.BMP,resources/Empty.png,WildCard_NonEx,-0.19722218,0.012962942,1,0,0,0.9849,optionLeft,45,3415,2,20,0,20,0,1,,,,,,,,,,,,,,,,,,,,,,,,,,,,,,,,,,,,,,,
,,,,,,,,2023-08-16_08h49.41.509,HF_wild_card,2022.2.4,Win32,59.95563283,640095c783a33710a484adee,64d2fd46c836a06233681665,64dc7e9396ba187eefe1fcd8,,,,,,,sngl,resources/DR.BMP,resources/Empty.png,Door3,-0.265740712,0.03148146,1,0,0,0.9071,optionLeft,70,3485,2,21,0,21,0,1,,,,,,,,,,,,,,,,,,,,,,,,,,,,,,,,,,,,,,,
,,,,,,,,2023-08-16_08h49.41.509,HF_wild_card,2022.2.4,Win32,59.95563283,640095c783a33710a484adee,64d2fd46c836a06233681665,64dc7e9396ba187eefe1fcd8,,,,,,,ctch,resources/DB.BMP,resources/DBN.BMP,Door4,0.22129631,-0.012962977,1,0,0,1.5686,optionRight,60,3545,2,22,0,22,0,1,,,,,,,,,,,,,,,,,,,,,,,,,,,,,,,,,,,,,,,
,,,,,,,,2023-08-16_08h49.41.509,HF_wild_card,2022.2.4,Win32,59.95563283,640095c783a33710a484adee,64d2fd46c836a06233681665,64dc7e9396ba187eefe1fcd8,,,,,,,decisionTrl,resources/DR.BMP,resources/DP.BMP,Door3,-0.243518476,0.030555548,1,0,0,1.6884,optionLeft,70,3615,2,23,0,23,0,1,,,,,,,,,,,,,,,,,,,,,,,,,,,,,,,,,,,,,,,
,,,,,,,,2023-08-16_08h49.41.509,HF_wild_card,2022.2.4,Win32,59.95563283,640095c783a33710a484adee,64d2fd46c836a06233681665,64dc7e9396ba187eefe1fcd8,,,,,,,ctch,resources/DY.BMP,resources/DR.BMP,Door3,0.399074131,-0.013888889,1,0,0,1.8698,optionRight,70,3685,2,24,0,24,0,1,,,,,,,,,,,,,,,,,,,,,,,,,,,,,,,,,,,,,,,
,,,,,,,,2023-08-16_08h49.41.509,HF_wild_card,2022.2.4,Win32,59.95563283,640095c783a33710a484adee,64d2fd46c836a06233681665,64dc7e9396ba187eefe1fcd8,,,,,,,decisionTrl,resources/DB.BMP,resources/DP.BMP,WildCard_NonEx,0.335185157,0.002777771,1,0,0,3.5071,optionRight,55,3740,2,25,0,25,0,1,,,,,,,,,,,,,,,,,,,,,,,,,,,,,,,,,,,,,,,
,,,,,,,,2023-08-16_08h49.41.509,HF_wild_card,2022.2.4,Win32,59.95563283,640095c783a33710a484adee,64d2fd46c836a06233681665,64dc7e9396ba187eefe1fcd8,,,,,,,sngl,resources/DBN.BMP,resources/Empty.png,Door4,-0.345370363,0.060185185,1,0,0,1.0693,optionLeft,60,3800,2,26,0,26,0,1,,,,,,,,,,,,,,,,,,,,,,,,,,,,,,,,,,,,,,,
,,,,,,,,2023-08-16_08h49.41.509,HF_wild_card,2022.2.4,Win32,59.95563283,640095c783a33710a484adee,64d2fd46c836a06233681665,64dc7e9396ba187eefe1fcd8,,,,,,,sngl,resources/Empty.png,resources/DP.BMP,WildCard_NonEx,0.40833339,0.012962942,1,0,0,1.15,optionRight,45,3845,2,27,0,27,0,1,,,,,,,,,,,,,,,,,,,,,,,,,,,,,,,,,,,,,,,
,,,,,,,,2023-08-16_08h49.41.509,HF_wild_card,2022.2.4,Win32,59.95563283,640095c783a33710a484adee,64d2fd46c836a06233681665,64dc7e9396ba187eefe1fcd8,,,,,,,sngl,resources/DP.BMP,resources/Empty.png,WildCard_NonEx,-0.297222208,0.051851838,1,0,0,1.0506,optionLeft,55,3900,2,28,0,28,0,1,,,,,,,,,,,,,,,,,,,,,,,,,,,,,,,,,,,,,,,
,,,,,,,,2023-08-16_08h49.41.509,HF_wild_card,2022.2.4,Win32,59.95563283,640095c783a33710a484adee,64d2fd46c836a06233681665,64dc7e9396ba187eefe1fcd8,,,,,,,decisionTrl,resources/DB.BMP,resources/DY.BMP,Door1,-0.287962949,0.050925926,1,0,0,2.2055,optionLeft,30,3930,2,29,0,29,0,1,,,,,,,,,,,,,,,,,,,,,,,,,,,,,,,,,,,,,,,
,,,,,,,,2023-08-16_08h49.41.509,HF_wild_card,2022.2.4,Win32,59.95563283,640095c783a33710a484adee,64d2fd46c836a06233681665,64dc7e9396ba187eefe1fcd8,,,,,,,sngl,resources/Empty.png,resources/DB.BMP,Door1,0.37962963,0.023148148,1,0,0,1.0249,optionRight,30,3960,2,30,0,30,0,1,,,,,,,,,,,,,,,,,,,,,,,,,,,,,,,,,,,,,,,
,,,,,,,,2023-08-16_08h49.41.509,HF_wild_card,2022.2.4,Win32,59.95563283,640095c783a33710a484adee,64d2fd46c836a06233681665,64dc7e9396ba187eefe1fcd8,,,,,,,sngl,resources/Empty.png,resources/DP.BMP,WildCard_NonEx,0.419444473,0.008333312,1,0,0,0.9328,optionRight,55,4015,2,31,0,31,0,1,,,,,,,,,,,,,,,,,,,,,,,,,,,,,,,,,,,,,,,
,,,,,,,,2023-08-16_08h49.41.509,HF_wild_card,2022.2.4,Win32,59.95563283,640095c783a33710a484adee,64d2fd46c836a06233681665,64dc7e9396ba187eefe1fcd8,,,,,,,sngl,resources/DY.BMP,resources/Empty.png,Door2,-0.295370384,0.062962956,1,0,0,1.05,optionLeft,20,4035,2,32,0,32,0,1,,,,,,,,,,,,,,,,,,,,,,,,,,,,,,,,,,,,,,,
,,,,,,,,2023-08-16_08h49.41.509,HF_wild_card,2022.2.4,Win32,59.95563283,640095c783a33710a484adee,64d2fd46c836a06233681665,64dc7e9396ba187eefe1fcd8,,,,,,,decisionTrl,resources/DR.BMP,resources/DBN.BMP,Door4,0.500925982,0.035185178,1,0,0,3.4169,optionRight,80,4115,2,33,0,33,0,1,,,,,,,,,,,,,,,,,,,,,,,,,,,,,,,,,,,,,,,
,,,,,,,,2023-08-16_08h49.41.509,HF_wild_card,2022.2.4,Win32,59.95563283,640095c783a33710a484adee,64d2fd46c836a06233681665,64dc7e9396ba187eefe1fcd8,,,,,,,ctch,resources/DR.BMP,resources/DY.BMP,Door3,-0.152777778,0.037037037,1,0,0,2.0042,optionLeft,70,4185,2,34,0,34,0,1,,,,,,,,,,,,,,,,,,,,,,,,,,,,,,,,,,,,,,,
,,,,,,,,2023-08-16_08h49.41.509,HF_wild_card,2022.2.4,Win32,59.95563283,640095c783a33710a484adee,64d2fd46c836a06233681665,64dc7e9396ba187eefe1fcd8,,,,,,,decisionTrl,resources/DBN.BMP,resources/DR.BMP,Door4,-0.171296296,0.047222208,1,0,0,1.5831,optionLeft,80,4265,2,35,0,35,0,1,,,,,,,,,,,,,,,,,,,,,,,,,,,,,,,,,,,,,,,
,,,,,,,,2023-08-16_08h49.41.509,HF_wild_card,2022.2.4,Win32,59.95563283,640095c783a33710a484adee,64d2fd46c836a06233681665,64dc7e9396ba187eefe1fcd8,,,,,,,decisionTrl,resources/DP.BMP,resources/DBN.BMP,Door4,0.387963048,0.020370377,1,0,0,1.4792,optionRight,80,4345,2,36,0,36,0,1,,,,,,,,,,,,,,,,,,,,,,,,,,,,,,,,,,,,,,,
,,,,,,,,2023-08-16_08h49.41.509,HF_wild_card,2022.2.4,Win32,59.95563283,640095c783a33710a484adee,64d2fd46c836a06233681665,64dc7e9396ba187eefe1fcd8,,,,,,,ctch,resources/DR.BMP,resources/DY.BMP,Door3,-0.259259259,0.061111097,1,0,0,1.5571,optionLeft,70,4415,2,37,0,37,0,1,,,,,,,,,,,,,,,,,,,,,,,,,,,,,,,,,,,,,,,
,,,,,,,,2023-08-16_08h49.41.509,HF_wild_card,2022.2.4,Win32,59.95563283,640095c783a33710a484adee,64d2fd46c836a06233681665,64dc7e9396ba187eefe1fcd8,,,,,,,ctch,resources/DBN.BMP,resources/DB.BMP,Door4,-0.267592607,0.065740727,1,0,0,1.4178,optionLeft,80,4495,2,38,0,38,0,1,,,,,,,,,,,,,,,,,,,,,,,,,,,,,,,,,,,,,,,
,,,,,,,,2023-08-16_08h49.41.509,HF_wild_card,2022.2.4,Win32,59.95563283,640095c783a33710a484adee,64d2fd46c836a06233681665,64dc7e9396ba187eefe1fcd8,,,,,,,decisionTrl,resources/DB.BMP,resources/DY.BMP,Door1,-0.277777778,0.061111097,1,0,0,2.5816,optionLeft,30,4525,2,39,0,39,0,1,,,,,,,,,,,,,,,,,,,,,,,,,,,,,,,,,,,,,,,
,,,,,,,,2023-08-16_08h49.41.509,HF_wild_card,2022.2.4,Win32,59.95563283,640095c783a33710a484adee,64d2fd46c836a06233681665,64dc7e9396ba187eefe1fcd8,,,,,,,decisionTrl,resources/DBN.BMP,resources/DP.BMP,Door4,-0.184259273,0.051851838,1,0,0,1.1663,optionLeft,60,4585,2,40,0,40,0,1,,,,,,,,,,,,,,,,,,,,,,,,,,,,,,,,,,,,,,,
,,,,,,,,2023-08-16_08h49.41.509,HF_wild_card,2022.2.4,Win32,59.95563283,640095c783a33710a484adee,64d2fd46c836a06233681665,64dc7e9396ba187eefe1fcd8,,,,,,,decisionTrl,resources/DP.BMP,resources/DR.BMP,Door3,0.358333305,0.025000007,1,0,0,1.4776,optionRight,70,4655,2,41,0,41,0,1,,,,,,,,,,,,,,,,,,,,,,,,,,,,,,,,,,,,,,,
,,,,,,,,2023-08-16_08h49.41.509,HF_wild_card,2022.2.4,Win32,59.95563283,640095c783a33710a484adee,64d2fd46c836a06233681665,64dc7e9396ba187eefe1fcd8,,,,,,,decisionTrl,resources/DBN.BMP,resources/DR.BMP,Door4,-0.223148134,0.057407414,1,0,0,1.4012,optionLeft,60,4715,2,42,0,42,0,1,,,,,,,,,,,,,,,,,,,,,,,,,,,,,,,,,,,,,,,
,,,,,,,,2023-08-16_08h49.41.509,HF_wild_card,2022.2.4,Win32,59.95563283,640095c783a33710a484adee,64d2fd46c836a06233681665,64dc7e9396ba187eefe1fcd8,,,,,,,ctch,resources/DB.BMP,resources/DBN.BMP,Door4,0.315740797,0.037037037,1,0,0,1.2848,optionRight,60,4775,2,43,0,43,0,1,,,,,,,,,,,,,,,,,,,,,,,,,,,,,,,,,,,,,,,
,,,,,,,,2023-08-16_08h49.41.509,HF_wild_card,2022.2.4,Win32,59.95563283,640095c783a33710a484adee,64d2fd46c836a06233681665,64dc7e9396ba187eefe1fcd8,,,,,,,,,,,,,,,,,,,,,,,,,,1,0,1,0,1,,,,,,,,,,,,,,,,,,,,,,,,,,,,,,,,,,
,,,,,,,,2023-08-16_08h49.41.509,HF_wild_card,2022.2.4,Win32,59.95563283,640095c783a33710a484adee,64d2fd46c836a06233681665,64dc7e9396ba187eefe1fcd8,,,,,,,sngl,resources/DP.BMP,resources/Empty.png,WildCard_NonEx,-0.24537037,-0.000925947,1,0,0,1.9856,optionLeft,45,4820,3,0,0,0,0,1,,,,,,,,,,,,,,,,,,,,,,,,,,,,,,,,,,,,,,,
,,,,,,,,2023-08-16_08h49.41.509,HF_wild_card,2022.2.4,Win32,59.95563283,640095c783a33710a484adee,64d2fd46c836a06233681665,64dc7e9396ba187eefe1fcd8,,,,,,,ctch,resources/DY.BMP,resources/DR.BMP,Door3,0.311111168,0.003703683,1,0,0,1.2349,optionRight,70,4890,3,1,0,1,0,1,,,,,,,,,,,,,,,,,,,,,,,,,,,,,,,,,,,,,,,
,,,,,,,,2023-08-16_08h49.41.509,HF_wild_card,2022.2.4,Win32,59.95563283,640095c783a33710a484adee,64d2fd46c836a06233681665,64dc7e9396ba187eefe1fcd8,,,,,,,sngl,resources/DY.BMP,resources/Empty.png,Door2,-0.316666674,0.035185178,1,0,0,0.9994,optionLeft,40,4930,3,2,0,2,0,1,,,,,,,,,,,,,,,,,,,,,,,,,,,,,,,,,,,,,,,
,,,,,,,,2023-08-16_08h49.41.509,HF_wild_card,2022.2.4,Win32,59.95563283,640095c783a33710a484adee,64d2fd46c836a06233681665,64dc7e9396ba187eefe1fcd8,,,,,,,decisionTrl,resources/DR.BMP,resources/DBN.BMP,Door4,0.307407379,0.000925912,1,0,0,1.8372,optionRight,60,4990,3,3,0,3,0,1,,,,,,,,,,,,,,,,,,,,,,,,,,,,,,,,,,,,,,,
,,,,,,,,2023-08-16_08h49.41.509,HF_wild_card,2022.2.4,Win32,59.95563283,640095c783a33710a484adee,64d2fd46c836a06233681665,64dc7e9396ba187eefe1fcd8,,,,,,,ctch,resources/DR.BMP,resources/DY.BMP,Door3,-0.274999972,0.044444437,1,0,0,1.0683,optionLeft,70,5060,3,4,0,4,0,1,,,,,,,,,,,,,,,,,,,,,,,,,,,,,,,,,,,,,,,
,,,,,,,,2023-08-16_08h49.41.509,HF_wild_card,2022.2.4,Win32,59.95563283,640095c783a33710a484adee,64d2fd46c836a06233681665,64dc7e9396ba187eefe1fcd8,,,,,,,ctch,resources/DB.BMP,resources/DBN.BMP,Door4,0.358333305,0.001851859,1,0,0,1.5151,optionRight,60,5120,3,5,0,5,0,1,,,,,,,,,,,,,,,,,,,,,,,,,,,,,,,,,,,,,,,
,,,,,,,,2023-08-16_08h49.41.509,HF_wild_card,2022.2.4,Win32,59.95563283,640095c783a33710a484adee,64d2fd46c836a06233681665,64dc7e9396ba187eefe1fcd8,,,,,,,decisionTrl,resources/DR.BMP,resources/DP.BMP,Door3,-0.252777735,0.046296296,1,0,0,1.126,optionLeft,70,5190,3,6,0,6,0,1,,,,,,,,,,,,,,,,,,,,,,,,,,,,,,,,,,,,,,,
,,,,,,,,2023-08-16_08h49.41.509,HF_wild_card,2022.2.4,Win32,59.95563283,640095c783a33710a484adee,64d2fd46c836a06233681665,64dc7e9396ba187eefe1fcd8,,,,,,,ctch,resources/DB.BMP,resources/DBN.BMP,Door1,-0.294444402,0.103703711,1,0,0,4.2279,optionLeft,30,5220,3,7,0,7,0,1,,,,,,,,,,,,,,,,,,,,,,,,,,,,,,,,,,,,,,,
,,,,,,,,2023-08-16_08h49.41.509,HF_wild_card,2022.2.4,Win32,59.95563283,640095c783a33710a484adee,64d2fd46c836a06233681665,64dc7e9396ba187eefe1fcd8,,,,,,,decisionTrl,resources/DBN.BMP,resources/DP.BMP,Door4,-0.285185143,0.103703711,1,0,0,1.4019,optionLeft,80,5300,3,8,0,8,0,1,,,,,,,,,,,,,,,,,,,,,,,,,,,,,,,,,,,,,,,
,,,,,,,,2023-08-16_08h49.41.509,HF_wild_card,2022.2.4,Win32,59.95563283,640095c783a33710a484adee,64d2fd46c836a06233681665,64dc7e9396ba187eefe1fcd8,,,,,,,decisionTrl,resources/DBN.BMP,resources/DR.BMP,Door4,-0.29351849,0.061111097,1,0,0,1.6173,optionLeft,60,5360,3,9,0,9,0,1,,,,,,,,,,,,,,,,,,,,,,,,,,,,,,,,,,,,,,,
,,,,,,,,2023-08-16_08h49.41.509,HF_wild_card,2022.2.4,Win32,59.95563283,640095c783a33710a484adee,64d2fd46c836a06233681665,64dc7e9396ba187eefe1fcd8,,,,,,,decisionTrl,resources/DY.BMP,resources/DP.BMP,WildCard_NonEx,0.395370342,0.002777771,1,0,0,2.9047,optionRight,55,5415,3,10,0,10,0,1,,,,,,,,,,,,,,,,,,,,,,,,,,,,,,,,,,,,,,,
,,,,,,,,2023-08-16_08h49.41.509,HF_wild_card,2022.2.4,Win32,59.95563283,640095c783a33710a484adee,64d2fd46c836a06233681665,64dc7e9396ba187eefe1fcd8,,,,,,,sngl,resources/Empty.png,resources/DP.BMP,WildCard_NonEx,0.406481566,0.025925919,1,0,0,1.0579,optionRight,45,5460,3,11,0,11,0,1,,,,,,,,,,,,,,,,,,,,,,,,,,,,,,,,,,,,,,,
,,,,,,,,2023-08-16_08h49.41.509,HF_wild_card,2022.2.4,Win32,59.95563283,640095c783a33710a484adee,64d2fd46c836a06233681665,64dc7e9396ba187eefe1fcd8,,,,,,,decisionTrl,resources/DP.BMP,resources/DBN.BMP,Door4,0.334259316,0.030555548,1,0,0,1.2688,optionRight,80,5540,3,12,0,12,0,1,,,,,,,,,,,,,,,,,,,,,,,,,,,,,,,,,,,,,,,
,,,,,,,,2023-08-16_08h49.41.509,HF_wild_card,2022.2.4,Win32,59.95563283,640095c783a33710a484adee,64d2fd46c836a06233681665,64dc7e9396ba187eefe1fcd8,,,,,,,decisionTrl,resources/DP.BMP,resources/DR.BMP,Door3,0.346296381,0.001851859,1,0,0,1.6188,optionRight,70,5610,3,13,0,13,0,1,,,,,,,,,,,,,,,,,,,,,,,,,,,,,,,,,,,,,,,
,,,,,,,,2023-08-16_08h49.41.509,HF_wild_card,2022.2.4,Win32,59.95563283,640095c783a33710a484adee,64d2fd46c836a06233681665,64dc7e9396ba187eefe1fcd8,,,,,,,decisionTrl,resources/DBN.BMP,resources/DR.BMP,Door4,-0.299074067,0.062037044,1,0,0,2.1212,optionLeft,80,5690,3,14,0,14,0,1,,,,,,,,,,,,,,,,,,,,,,,,,,,,,,,,,,,,,,,
,,,,,,,,2023-08-16_08h49.41.509,HF_wild_card,2022.2.4,Win32,59.95563283,640095c783a33710a484adee,64d2fd46c836a06233681665,64dc7e9396ba187eefe1fcd8,,,,,,,ctch,resources/DY.BMP,resources/DR.BMP,Door3,0.350926011,0.01666666,1,0,0,1.0182,optionRight,70,5760,3,15,0,15,0,1,,,,,,,,,,,,,,,,,,,,,,,,,,,,,,,,,,,,,,,
,,,,,,,,2023-08-16_08h49.41.509,HF_wild_card,2022.2.4,Win32,59.95563283,640095c783a33710a484adee,64d2fd46c836a06233681665,64dc7e9396ba187eefe1fcd8,,,,,,,decisionTrl,resources/DY.BMP,resources/DB.BMP,Door2,-0.314814815,0.049999979,1,0,0,2.7723,optionLeft,40,5800,3,16,0,16,0,1,,,,,,,,,,,,,,,,,,,,,,,,,,,,,,,,,,,,,,,
,,,,,,,,2023-08-16_08h49.41.509,HF_wild_card,2022.2.4,Win32,59.95563283,640095c783a33710a484adee,64d2fd46c836a06233681665,64dc7e9396ba187eefe1fcd8,,,,,,,sngl,resources/DBN.BMP,resources/Empty.png,Door4,-0.326851845,0.075925933,1,0,0,1.0021,optionLeft,80,5880,3,17,0,17,0,1,,,,,,,,,,,,,,,,,,,,,,,,,,,,,,,,,,,,,,,
,,,,,,,,2023-08-16_08h49.41.509,HF_wild_card,2022.2.4,Win32,59.95563283,640095c783a33710a484adee,64d2fd46c836a06233681665,64dc7e9396ba187eefe1fcd8,,,,,,,sngl,resources/DP.BMP,resources/Empty.png,WildCard_NonEx,-0.330555563,0.054629608,1,0,0,1.6192,optionLeft,55,5935,3,18,0,18,0,1,,,,,,,,,,,,,,,,,,,,,,,,,,,,,,,,,,,,,,,
,,,,,,,,2023-08-16_08h49.41.509,HF_wild_card,2022.2.4,Win32,59.95563283,640095c783a33710a484adee,64d2fd46c836a06233681665,64dc7e9396ba187eefe1fcd8,,,,,,,sngl,resources/DB.BMP,resources/Empty.png,Door1,-0.262962977,0.037037037,1,0,0,1.0505,optionLeft,30,5965,3,19,0,19,0,1,,,,,,,,,,,,,,,,,,,,,,,,,,,,,,,,,,,,,,,
,,,,,,,,2023-08-16_08h49.41.509,HF_wild_card,2022.2.4,Win32,59.95563283,640095c783a33710a484adee,64d2fd46c836a06233681665,64dc7e9396ba187eefe1fcd8,,,,,,,sngl,resources/DR.BMP,resources/Empty.png,Door3,-0.228703675,0.030555548,1,0,0,0.9603,optionLeft,70,6035,3,20,0,20,0,1,,,,,,,,,,,,,,,,,,,,,,,,,,,,,,,,,,,,,,,
,,,,,,,,2023-08-16_08h49.41.509,HF_wild_card,2022.2.4,Win32,59.95563283,640095c783a33710a484adee,64d2fd46c836a06233681665,64dc7e9396ba187eefe1fcd8,,,,,,,decisionTrl,resources/DR.BMP,resources/DBN.BMP,Door4,0.387963048,0.001851859,1,0,0,1.687,optionRight,80,6115,3,21,0,21,0,1,,,,,,,,,,,,,,,,,,,,,,,,,,,,,,,,,,,,,,,
,,,,,,,,2023-08-16_08h49.41.509,HF_wild_card,2022.2.4,Win32,59.95563283,640095c783a33710a484adee,64d2fd46c836a06233681665,64dc7e9396ba187eefe1fcd8,,,,,,,decisionTrl,resources/DY.BMP,resources/DB.BMP,Door2,-0.266666624,0.050925926,1,0,0,2.1568,optionLeft,40,6155,3,22,0,22,0,1,,,,,,,,,,,,,,,,,,,,,,,,,,,,,,,,,,,,,,,
,,,,,,,,2023-08-16_08h49.41.509,HF_wild_card,2022.2.4,Win32,59.95563283,640095c783a33710a484adee,64d2fd46c836a06233681665,64dc7e9396ba187eefe1fcd8,,,,,,,sngl,resources/Empty.png,resources/DR.BMP,Door3,0.279629672,0.006481489,1,0,0,1.0502,optionRight,70,6225,3,23,0,23,0,1,,,,,,,,,,,,,,,,,,,,,,,,,,,,,,,,,,,,,,,
,,,,,,,,2023-08-16_08h49.41.509,HF_wild_card,2022.2.4,Win32,59.95563283,640095c783a33710a484adee,64d2fd46c836a06233681665,64dc7e9396ba187eefe1fcd8,,,,,,,decisionTrl,resources/DB.BMP,resources/DY.BMP,Door2,0.265740783,0.005555541,1,0,0,1.9789,optionRight,20,6245,3,24,0,24,0,1,,,,,,,,,,,,,,,,,,,,,,,,,,,,,,,,,,,,,,,
,,,,,,,,2023-08-16_08h49.41.509,HF_wild_card,2022.2.4,Win32,59.95563283,640095c783a33710a484adee,64d2fd46c836a06233681665,64dc7e9396ba187eefe1fcd8,,,,,,,sngl,resources/Empty.png,resources/DB.BMP,Door1,0.350000028,0.020370377,1,0,0,1.2014,optionRight,30,6275,3,25,0,25,0,1,,,,,,,,,,,,,,,,,,,,,,,,,,,,,,,,,,,,,,,
,,,,,,,,2023-08-16_08h49.41.509,HF_wild_card,2022.2.4,Win32,59.95563283,640095c783a33710a484adee,64d2fd46c836a06233681665,64dc7e9396ba187eefe1fcd8,,,,,,,ctch,resources/DR.BMP,resources/DY.BMP,Door3,-0.295370384,0.055555556,1,0,0,1.6856,optionLeft,70,6345,3,26,0,26,0,1,,,,,,,,,,,,,,,,,,,,,,,,,,,,,,,,,,,,,,,
,,,,,,,,2023-08-16_08h49.41.509,HF_wild_card,2022.2.4,Win32,59.95563283,640095c783a33710a484adee,64d2fd46c836a06233681665,64dc7e9396ba187eefe1fcd8,,,,,,,sngl,resources/Empty.png,resources/DP.BMP,WildCard_NonEx,0.328703704,0.01203703,1,0,0,1.067,optionRight,55,6400,3,27,0,27,0,1,,,,,,,,,,,,,,,,,,,,,,,,,,,,,,,,,,,,,,,
,,,,,,,,2023-08-16_08h49.41.509,HF_wild_card,2022.2.4,Win32,59.95563283,640095c783a33710a484adee,64d2fd46c836a06233681665,64dc7e9396ba187eefe1fcd8,,,,,,,ctch,resources/DBN.BMP,resources/DB.BMP,Door4,-0.36296297,0.073148127,1,0,0,1.2916,optionLeft,80,6480,3,28,0,28,0,1,,,,,,,,,,,,,,,,,,,,,,,,,,,,,,,,,,,,,,,
,,,,,,,,2023-08-16_08h49.41.509,HF_wild_card,2022.2.4,Win32,59.95563283,640095c783a33710a484adee,64d2fd46c836a06233681665,64dc7e9396ba187eefe1fcd8,,,,,,,decisionTrl,resources/DB.BMP,resources/DP.BMP,WildCard_NonEx,0.400925954,0.000925912,1,0,0,1.551,optionRight,45,6525,3,29,0,29,0,1,,,,,,,,,,,,,,,,,,,,,,,,,,,,,,,,,,,,,,,
,,,,,,,,2023-08-16_08h49.41.509,HF_wild_card,2022.2.4,Win32,59.95563283,640095c783a33710a484adee,64d2fd46c836a06233681665,64dc7e9396ba187eefe1fcd8,,,,,,,decisionTrl,resources/DB.BMP,resources/DY.BMP,Door1,-0.325925933,0.060185185,1,0,0,2.2978,optionLeft,30,6555,3,30,0,30,0,1,,,,,,,,,,,,,,,,,,,,,,,,,,,,,,,,,,,,,,,
,,,,,,,,2023-08-16_08h49.41.509,HF_wild_card,2022.2.4,Win32,59.95563283,640095c783a33710a484adee,64d2fd46c836a06233681665,64dc7e9396ba187eefe1fcd8,,,,,,,decisionTrl,resources/DP.BMP,resources/DY.BMP,WildCard_NonEx,-0.270370342,0.050925926,1,0,0,1.5187,optionLeft,55,6610,3,31,0,31,0,1,,,,,,,,,,,,,,,,,,,,,,,,,,,,,,,,,,,,,,,
,,,,,,,,2023-08-16_08h49.41.509,HF_wild_card,2022.2.4,Win32,59.95563283,640095c783a33710a484adee,64d2fd46c836a06233681665,64dc7e9396ba187eefe1fcd8,,,,,,,sngl,resources/Empty.png,resources/DY.BMP,Door2,0.37037037,0.025000007,1,0,0,1.3539,optionRight,20,6630,3,32,0,32,0,1,,,,,,,,,,,,,,,,,,,,,,,,,,,,,,,,,,,,,,,
,,,,,,,,2023-08-16_08h49.41.509,HF_wild_card,2022.2.4,Win32,59.95563283,640095c783a33710a484adee,64d2fd46c836a06233681665,64dc7e9396ba187eefe1fcd8,,,,,,,decisionTrl,resources/DR.BMP,resources/DBN.BMP,Door4,0.362962935,0.073148127,1,0,0,2.8776,optionRight,60,6690,3,33,0,33,0,1,,,,,,,,,,,,,,,,,,,,,,,,,,,,,,,,,,,,,,,
,,,,,,,,2023-08-16_08h49.41.509,HF_wild_card,2022.2.4,Win32,59.95563283,640095c783a33710a484adee,64d2fd46c836a06233681665,64dc7e9396ba187eefe1fcd8,,,,,,,sngl,resources/Empty.png,resources/DBN.BMP,Door4,0.374074159,0.04074072,1,0,0,1.2083,optionRight,60,6750,3,34,0,34,0,1,,,,,,,,,,,,,,,,,,,,,,,,,,,,,,,,,,,,,,,
,,,,,,,,2023-08-16_08h49.41.509,HF_wild_card,2022.2.4,Win32,59.95563283,640095c783a33710a484adee,64d2fd46c836a06233681665,64dc7e9396ba187eefe1fcd8,,,,,,,decisionTrl,resources/DB.BMP,resources/DY.BMP,Door2,0.265740783,0.04074072,1,0,0,2.1041,optionRight,40,6790,3,35,0,35,0,1,,,,,,,,,,,,,,,,,,,,,,,,,,,,,,,,,,,,,,,
,,,,,,,,2023-08-16_08h49.41.509,HF_wild_card,2022.2.4,Win32,59.95563283,640095c783a33710a484adee,64d2fd46c836a06233681665,64dc7e9396ba187eefe1fcd8,,,,,,,decisionTrl,resources/DP.BMP,resources/DB.BMP,WildCard_NonEx,-0.24537037,0.029629637,1,0,0,1.6416,optionLeft,55,6845,3,36,0,36,0,1,,,,,,,,,,,,,,,,,,,,,,,,,,,,,,,,,,,,,,,
,,,,,,,,2023-08-16_08h49.41.509,HF_wild_card,2022.2.4,Win32,59.95563283,640095c783a33710a484adee,64d2fd46c836a06233681665,64dc7e9396ba187eefe1fcd8,,,,,,,decisionTrl,resources/DY.BMP,resources/DB.BMP,Door2,-0.190740727,0.02407406,1,0,0,1.4689,optionLeft,20,6865,3,37,0,37,0,1,,,,,,,,,,,,,,,,,,,,,,,,,,,,,,,,,,,,,,,
,,,,,,,,2023-08-16_08h49.41.509,HF_wild_card,2022.2.4,Win32,59.95563283,640095c783a33710a484adee,64d2fd46c836a06233681665,64dc7e9396ba187eefe1fcd8,,,,,,,decisionTrl,resources/DY.BMP,resources/DB.BMP,Door1,0.437037009,0.018518519,1,0,0,3.7265,optionRight,30,6895,3,38,0,38,0,1,,,,,,,,,,,,,,,,,,,,,,,,,,,,,,,,,,,,,,,
,,,,,,,,2023-08-16_08h49.41.509,HF_wild_card,2022.2.4,Win32,59.95563283,640095c783a33710a484adee,64d2fd46c836a06233681665,64dc7e9396ba187eefe1fcd8,,,,,,,decisionTrl,resources/DR.BMP,resources/DBN.BMP,Door4,0.312962991,0.010185171,1,0,0,1.3563,optionRight,60,6955,3,39,0,39,0,1,,,,,,,,,,,,,,,,,,,,,,,,,,,,,,,,,,,,,,,
,,,,,,,,2023-08-16_08h49.41.509,HF_wild_card,2022.2.4,Win32,59.95563283,640095c783a33710a484adee,64d2fd46c836a06233681665,64dc7e9396ba187eefe1fcd8,,,,,,,decisionTrl,resources/DBN.BMP,resources/DR.BMP,Door3,0.357407464,-0.011111118,1,0,0,1.9119,optionRight,70,7025,3,40,0,40,0,1,,,,,,,,,,,,,,,,,,,,,,,,,,,,,,,,,,,,,,,
,,,,,,,,2023-08-16_08h49.41.509,HF_wild_card,2022.2.4,Win32,59.95563283,640095c783a33710a484adee,64d2fd46c836a06233681665,64dc7e9396ba187eefe1fcd8,,,,,,,decisionTrl,resources/DB.BMP,resources/DY.BMP,Door2,0.327777863,-0.0074074,1,0,0,2.1144,optionRight,20,7045,3,41,0,41,0,1,,,,,,,,,,,,,,,,,,,,,,,,,,,,,,,,,,,,,,,
,,,,,,,,2023-08-16_08h49.41.509,HF_wild_card,2022.2.4,Win32,59.95563283,640095c783a33710a484adee,64d2fd46c836a06233681665,64dc7e9396ba187eefe1fcd8,,,,,,,decisionTrl,resources/DBN.BMP,resources/DR.BMP,Door4,-0.202777792,0.042592578,1,0,0,1.8212,optionLeft,80,7125,3,42,0,42,0,1,,,,,,,,,,,,,,,,,,,,,,,,,,,,,,,,,,,,,,,
,,,,,,,,2023-08-16_08h49.41.509,HF_wild_card,2022.2.4,Win32,59.95563283,640095c783a33710a484adee,64d2fd46c836a06233681665,64dc7e9396ba187eefe1fcd8,,,,,,,ctch,resources/DBN.BMP,resources/DB.BMP,Door4,-0.246296282,0.050925926,1,0,0,1.3089,optionLeft,60,7185,3,43,0,43,0,1,,,,,,,,,,,,,,,,,,,,,,,,,,,,,,,,,,,,,,,
,,,,,,,,2023-08-16_08h49.41.509,HF_wild_card,2022.2.4,Win32,59.95563283,640095c783a33710a484adee,64d2fd46c836a06233681665,64dc7e9396ba187eefe1fcd8,,,,,,,,,,,,,,,,,,,,,,,,,,2,0,2,0,1,,,,,,,,,,,,,,,,,,,,,,,,,,,,,,,,,,
,,,,,,,,2023-08-16_08h49.41.509,HF_wild_card,2022.2.4,Win32,59.95563283,640095c783a33710a484adee,64d2fd46c836a06233681665,64dc7e9396ba187eefe1fcd8,,,,,,,decisionTrl,resources/DR.BMP,resources/DBN.BMP,Door4,0.37037037,0.043518526,1,0,0,2.6257,optionRight,60,7245,4,0,0,0,0,1,,,,,,,,,,,,,,,,,,,,,,,,,,,,,,,,,,,,,,,
,,,,,,,,2023-08-16_08h49.41.509,HF_wild_card,2022.2.4,Win32,59.95563283,640095c783a33710a484adee,64d2fd46c836a06233681665,64dc7e9396ba187eefe1fcd8,,,,,,,decisionTrl,resources/DR.BMP,resources/DG.BMP,WildCard_Ex,0.198148162,0.052777785,1,0,0,1.7854,optionRight,55,7300,4,1,0,1,0,1,,,,,,,,,,,,,,,,,,,,,,,,,,,,,,,,,,,,,,,
,,,,,,,,2023-08-16_08h49.41.509,HF_wild_card,2022.2.4,Win32,59.95563283,640095c783a33710a484adee,64d2fd46c836a06233681665,64dc7e9396ba187eefe1fcd8,,,,,,,decisionTrl,resources/DBN.BMP,resources/DR.BMP,Door3,0.336111139,0.008333312,1,0,0,1.5856,optionRight,70,7370,4,2,0,2,0,1,,,,,,,,,,,,,,,,,,,,,,,,,,,,,,,,,,,,,,,
,,,,,,,,2023-08-16_08h49.41.509,HF_wild_card,2022.2.4,Win32,59.95563283,640095c783a33710a484adee,64d2fd46c836a06233681665,64dc7e9396ba187eefe1fcd8,,,,,,,sngl,resources/DR.BMP,resources/Empty.png,Door3,-0.253703718,0.043518526,1,0,0,1.0277,optionLeft,70,7440,4,3,0,3,0,1,,,,,,,,,,,,,,,,,,,,,,,,,,,,,,,,,,,,,,,
,,,,,,,,2023-08-16_08h49.41.509,HF_wild_card,2022.2.4,Win32,59.95563283,640095c783a33710a484adee,64d2fd46c836a06233681665,64dc7e9396ba187eefe1fcd8,,,,,,,decisionTrl,resources/DR.BMP,resources/DBN.BMP,Door3,-0.337037016,0.049074067,1,0,0,1.5711,optionLeft,70,7510,4,4,0,4,0,1,,,,,,,,,,,,,,,,,,,,,,,,,,,,,,,,,,,,,,,
,,,,,,,,2023-08-16_08h49.41.509,HF_wild_card,2022.2.4,Win32,59.95563283,640095c783a33710a484adee,64d2fd46c836a06233681665,64dc7e9396ba187eefe1fcd8,,,,,,,sngl,resources/Empty.png,resources/DB.BMP,Door1,0.396296325,0.009259259,1,0,0,1.0772,optionRight,30,7540,4,5,0,5,0,1,,,,,,,,,,,,,,,,,,,,,,,,,,,,,,,,,,,,,,,
,,,,,,,,2023-08-16_08h49.41.509,HF_wild_card,2022.2.4,Win32,59.95563283,640095c783a33710a484adee,64d2fd46c836a06233681665,64dc7e9396ba187eefe1fcd8,,,,,,,decisionTrl,resources/DBN.BMP,resources/DG.BMP,Door4,-0.24537037,0.052777785,1,0,0,3.4912,optionLeft,60,7600,4,6,0,6,0,1,,,,,,,,,,,,,,,,,,,,,,,,,,,,,,,,,,,,,,,
,,,,,,,,2023-08-16_08h49.41.509,HF_wild_card,2022.2.4,Win32,59.95563283,640095c783a33710a484adee,64d2fd46c836a06233681665,64dc7e9396ba187eefe1fcd8,,,,,,,sngl,resources/DY.BMP,resources/Empty.png,Door2,-0.206481439,0.035185178,1,0,0,1.177,optionLeft,20,7620,4,7,0,7,0,1,,,,,,,,,,,,,,,,,,,,,,,,,,,,,,,,,,,,,,,
,,,,,,,,2023-08-16_08h49.41.509,HF_wild_card,2022.2.4,Win32,59.95563283,640095c783a33710a484adee,64d2fd46c836a06233681665,64dc7e9396ba187eefe1fcd8,,,,,,,ctch,resources/DB.BMP,resources/DBN.BMP,Door4,0.305555556,-0.000925947,1,0,0,1.9115,optionRight,80,7700,4,8,0,8,0,1,,,,,,,,,,,,,,,,,,,,,,,,,,,,,,,,,,,,,,,
,,,,,,,,2023-08-16_08h49.41.509,HF_wild_card,2022.2.4,Win32,59.95563283,640095c783a33710a484adee,64d2fd46c836a06233681665,64dc7e9396ba187eefe1fcd8,,,,,,,decisionTrl,resources/DBN.BMP,resources/DR.BMP,Door4,-0.295370384,0.091666645,1,0,0,2.0869,optionLeft,60,7760,4,9,0,9,0,1,,,,,,,,,,,,,,,,,,,,,,,,,,,,,,,,,,,,,,,
,,,,,,,,2023-08-16_08h49.41.509,HF_wild_card,2022.2.4,Win32,59.95563283,640095c783a33710a484adee,64d2fd46c836a06233681665,64dc7e9396ba187eefe1fcd8,,,,,,,ctch,resources/DY.BMP,resources/DR.BMP,Door3,0.334259316,0.013888889,1,0,0,1.2932,optionRight,70,7830,4,10,0,10,0,1,,,,,,,,,,,,,,,,,,,,,,,,,,,,,,,,,,,,,,,
,,,,,,,,2023-08-16_08h49.41.509,HF_wild_card,2022.2.4,Win32,59.95563283,640095c783a33710a484adee,64d2fd46c836a06233681665,64dc7e9396ba187eefe1fcd8,,,,,,,decisionTrl,resources/DR.BMP,resources/DBN.BMP,Door4,0.382407436,0.001851859,1,0,0,1.3318,optionRight,80,7910,4,11,0,11,0,1,,,,,,,,,,,,,,,,,,,,,,,,,,,,,,,,,,,,,,,
,,,,,,,,2023-08-16_08h49.41.509,HF_wild_card,2022.2.4,Win32,59.95563283,640095c783a33710a484adee,64d2fd46c836a06233681665,64dc7e9396ba187eefe1fcd8,,,,,,,decisionTrl,resources/DG.BMP,resources/DB.BMP,WildCard_Ex,-0.271296254,0.069444444,1,0,0,1.9804,optionLeft,55,7965,4,12,0,12,0,1,,,,,,,,,,,,,,,,,,,,,,,,,,,,,,,,,,,,,,,
,,,,,,,,2023-08-16_08h49.41.509,HF_wild_card,2022.2.4,Win32,59.95563283,640095c783a33710a484adee,64d2fd46c836a06233681665,64dc7e9396ba187eefe1fcd8,,,,,,,decisionTrl,resources/DB.BMP,resources/DY.BMP,Door2,0.338888945,0,1,0,0,4.9619,optionRight,20,7985,4,13,0,13,0,1,,,,,,,,,,,,,,,,,,,,,,,,,,,,,,,,,,,,,,,
,,,,,,,,2023-08-16_08h49.41.509,HF_wild_card,2022.2.4,Win32,59.95563283,640095c783a33710a484adee,64d2fd46c836a06233681665,64dc7e9396ba187eefe1fcd8,,,,,,,decisionTrl,resources/DB.BMP,resources/DY.BMP,Door1,-0.244444459,0.055555556,1,0,0,1.4366,optionLeft,30,8015,4,14,0,14,0,1,,,,,,,,,,,,,,,,,,,,,,,,,,,,,,,,,,,,,,,
,,,,,,,,2023-08-16_08h49.41.509,HF_wild_card,2022.2.4,Win32,59.95563283,640095c783a33710a484adee,64d2fd46c836a06233681665,64dc7e9396ba187eefe1fcd8,,,,,,,decisionTrl,resources/DY.BMP,resources/DB.BMP,Door1,0.350926011,0.010185171,1,0,0,2.439,optionRight,30,8045,4,15,0,15,0,1,,,,,,,,,,,,,,,,,,,,,,,,,,,,,,,,,,,,,,,
,,,,,,,,2023-08-16_08h49.41.509,HF_wild_card,2022.2.4,Win32,59.95563283,640095c783a33710a484adee,64d2fd46c836a06233681665,64dc7e9396ba187eefe1fcd8,,,,,,,decisionTrl,resources/DB.BMP,resources/DY.BMP,Door2,0.32685188,-0.015740748,1,0,0,1.284,optionRight,20,8065,4,16,0,16,0,1,,,,,,,,,,,,,,,,,,,,,,,,,,,,,,,,,,,,,,,
,,,,,,,,2023-08-16_08h49.41.509,HF_wild_card,2022.2.4,Win32,59.95563283,640095c783a33710a484adee,64d2fd46c836a06233681665,64dc7e9396ba187eefe1fcd8,,,,,,,sngl,resources/Empty.png,resources/DG.BMP,WildCard_Ex,0.284259302,0.01203703,1,0,0,1.152,optionRight,55,8120,4,17,0,17,0,1,,,,,,,,,,,,,,,,,,,,,,,,,,,,,,,,,,,,,,,
,,,,,,,,2023-08-16_08h49.41.509,HF_wild_card,2022.2.4,Win32,59.95563283,640095c783a33710a484adee,64d2fd46c836a06233681665,64dc7e9396ba187eefe1fcd8,,,,,,,sngl,resources/Empty.png,resources/DG.BMP,WildCard_Ex,0.359259288,0.014814801,1,0,0,0.9017,optionRight,45,8165,4,18,0,18,0,1,,,,,,,,,,,,,,,,,,,,,,,,,,,,,,,,,,,,,,,
,,,,,,,,2023-08-16_08h49.41.509,HF_wild_card,2022.2.4,Win32,59.95563283,640095c783a33710a484adee,64d2fd46c836a06233681665,64dc7e9396ba187eefe1fcd8,,,,,,,decisionTrl,resources/DR.BMP,resources/DBN.BMP,Door4,0.36018527,0.011111118,1,0,0,1.3346,optionRight,60,8225,4,19,0,19,0,1,,,,,,,,,,,,,,,,,,,,,,,,,,,,,,,,,,,,,,,
,,,,,,,,2023-08-16_08h49.41.509,HF_wild_card,2022.2.4,Win32,59.95563283,640095c783a33710a484adee,64d2fd46c836a06233681665,64dc7e9396ba187eefe1fcd8,,,,,,,ctch,resources/DB.BMP,resources/DBN.BMP,Door4,0.347222222,0.002777771,1,0,0,1.2512,optionRight,60,8285,4,20,0,20,0,1,,,,,,,,,,,,,,,,,,,,,,,,,,,,,,,,,,,,,,,
,,,,,,,,2023-08-16_08h49.41.509,HF_wild_card,2022.2.4,Win32,59.95563283,640095c783a33710a484adee,64d2fd46c836a06233681665,64dc7e9396ba187eefe1fcd8,,,,,,,ctch,resources/DY.BMP,resources/DR.BMP,Door3,0.412963019,0.014814801,1,0,0,1.3865,optionRight,70,8355,4,21,0,21,0,1,,,,,,,,,,,,,,,,,,,,,,,,,,,,,,,,,,,,,,,
,,,,,,,,2023-08-16_08h49.41.509,HF_wild_card,2022.2.4,Win32,59.95563283,640095c783a33710a484adee,64d2fd46c836a06233681665,64dc7e9396ba187eefe1fcd8,,,,,,,decisionTrl,resources/DBN.BMP,resources/DR.BMP,Door4,-0.223148134,0.067592586,1,0,0,2.6394,optionLeft,80,8435,4,22,0,22,0,1,,,,,,,,,,,,,,,,,,,,,,,,,,,,,,,,,,,,,,,
,,,,,,,,2023-08-16_08h49.41.509,HF_wild_card,2022.2.4,Win32,59.95563283,640095c783a33710a484adee,64d2fd46c836a06233681665,64dc7e9396ba187eefe1fcd8,,,,,,,decisionTrl,resources/DY.BMP,resources/DB.BMP,Door2,-0.201851809,0.157407407,1,0,0,2.754,optionLeft,40,8475,4,23,0,23,0,1,,,,,,,,,,,,,,,,,,,,,,,,,,,,,,,,,,,,,,,
,,,,,,,,2023-08-16_08h49.41.509,HF_wild_card,2022.2.4,Win32,59.95563283,640095c783a33710a484adee,64d2fd46c836a06233681665,64dc7e9396ba187eefe1fcd8,,,,,,,decisionTrl,resources/DY.BMP,resources/DG.BMP,WildCard_Ex,0.352777834,-0.002777771,1,0,0,1.5696,optionRight,55,8530,4,24,0,24,0,1,,,,,,,,,,,,,,,,,,,,,,,,,,,,,,,,,,,,,,,
,,,,,,,,2023-08-16_08h49.41.509,HF_wild_card,2022.2.4,Win32,59.95563283,640095c783a33710a484adee,64d2fd46c836a06233681665,64dc7e9396ba187eefe1fcd8,,,,,,,sngl,resources/DBN.BMP,resources/Empty.png,Door4,-0.227777764,0.061111097,1,0,0,1.0515,optionLeft,60,8590,4,25,0,25,0,1,,,,,,,,,,,,,,,,,,,,,,,,,,,,,,,,,,,,,,,
,,,,,,,,2023-08-16_08h49.41.509,HF_wild_card,2022.2.4,Win32,59.95563283,640095c783a33710a484adee,64d2fd46c836a06233681665,64dc7e9396ba187eefe1fcd8,,,,,,,decisionTrl,resources/DY.BMP,resources/DB.BMP,Door2,-0.289814772,0.049999979,1,0,0,1.8703,optionLeft,40,8630,4,26,0,26,0,1,,,,,,,,,,,,,,,,,,,,,,,,,,,,,,,,,,,,,,,
,,,,,,,,2023-08-16_08h49.41.509,HF_wild_card,2022.2.4,Win32,59.95563283,640095c783a33710a484adee,64d2fd46c836a06233681665,64dc7e9396ba187eefe1fcd8,,,,,,,sngl,resources/Empty.png,resources/DR.BMP,Door3,0.387963048,0.0074074,1,0,0,1.1014,optionRight,70,8700,4,27,0,27,0,1,,,,,,,,,,,,,,,,,,,,,,,,,,,,,,,,,,,,,,,
,,,,,,,,2023-08-16_08h49.41.509,HF_wild_card,2022.2.4,Win32,59.95563283,640095c783a33710a484adee,64d2fd46c836a06233681665,64dc7e9396ba187eefe1fcd8,,,,,,,decisionTrl,resources/DG.BMP,resources/DY.BMP,WildCard_Ex,-0.257407365,0.061111097,1,0,0,3.0749,optionLeft,45,8745,4,28,0,28,0,1,,,,,,,,,,,,,,,,,,,,,,,,,,,,,,,,,,,,,,,
,,,,,,,,2023-08-16_08h49.41.509,HF_wild_card,2022.2.4,Win32,59.95563283,640095c783a33710a484adee,64d2fd46c836a06233681665,64dc7e9396ba187eefe1fcd8,,,,,,,sngl,resources/DG.BMP,resources/Empty.png,WildCard_Ex,-0.27870369,0.041666667,1,0,0,1.0932,optionLeft,45,8790,4,29,0,29,0,1,,,,,,,,,,,,,,,,,,,,,,,,,,,,,,,,,,,,,,,
,,,,,,,,2023-08-16_08h49.41.509,HF_wild_card,2022.2.4,Win32,59.95563283,640095c783a33710a484adee,64d2fd46c836a06233681665,64dc7e9396ba187eefe1fcd8,,,,,,,sngl,resources/Empty.png,resources/DBN.BMP,Door4,0.397222307,-0.0074074,1,0,0,1.0503,optionRight,80,8870,4,30,0,30,0,1,,,,,,,,,,,,,,,,,,,,,,,,,,,,,,,,,,,,,,,
,,,,,,,,2023-08-16_08h49.41.509,HF_wild_card,2022.2.4,Win32,59.95563283,640095c783a33710a484adee,64d2fd46c836a06233681665,64dc7e9396ba187eefe1fcd8,,,,,,,decisionTrl,resources/DB.BMP,resources/DG.BMP,WildCard_Ex,0.304629714,0.0074074,1,0,0,1.7859,optionRight,45,8915,4,31,0,31,0,1,,,,,,,,,,,,,,,,,,,,,,,,,,,,,,,,,,,,,,,
,,,,,,,,2023-08-16_08h49.41.509,HF_wild_card,2022.2.4,Win32,59.95563283,640095c783a33710a484adee,64d2fd46c836a06233681665,64dc7e9396ba187eefe1fcd8,,,,,,,decisionTrl,resources/DG.BMP,resources/DR.BMP,Door3,0.373148176,0.008333312,1,0,0,1.4785,optionRight,70,8985,4,32,0,32,0,1,,,,,,,,,,,,,,,,,,,,,,,,,,,,,,,,,,,,,,,
,,,,,,,,2023-08-16_08h49.41.509,HF_wild_card,2022.2.4,Win32,59.95563283,640095c783a33710a484adee,64d2fd46c836a06233681665,64dc7e9396ba187eefe1fcd8,,,,,,,decisionTrl,resources/DG.BMP,resources/DBN.BMP,Door4,0.346296381,0.017592571,1,0,0,1.2114,optionRight,80,9065,4,33,0,33,0,1,,,,,,,,,,,,,,,,,,,,,,,,,,,,,,,,,,,,,,,
,,,,,,,,2023-08-16_08h49.41.509,HF_wild_card,2022.2.4,Win32,59.95563283,640095c783a33710a484adee,64d2fd46c836a06233681665,64dc7e9396ba187eefe1fcd8,,,,,,,decisionTrl,resources/DB.BMP,resources/DY.BMP,Door2,0.275000042,0.0074074,1,0,0,2.3145,optionRight,20,9085,4,34,0,34,0,1,,,,,,,,,,,,,,,,,,,,,,,,,,,,,,,,,,,,,,,
,,,,,,,,2023-08-16_08h49.41.509,HF_wild_card,2022.2.4,Win32,59.95563283,640095c783a33710a484adee,64d2fd46c836a06233681665,64dc7e9396ba187eefe1fcd8,,,,,,,ctch,resources/DR.BMP,resources/DY.BMP,Door3,-0.244444459,0.051851838,1,0,0,1.2527,optionLeft,70,9155,4,35,0,35,0,1,,,,,,,,,,,,,,,,,,,,,,,,,,,,,,,,,,,,,,,
,,,,,,,,2023-08-16_08h49.41.509,HF_wild_card,2022.2.4,Win32,59.95563283,640095c783a33710a484adee,64d2fd46c836a06233681665,64dc7e9396ba187eefe1fcd8,,,,,,,sngl,resources/DG.BMP,resources/Empty.png,WildCard_Ex,-0.22129631,0.047222208,1,0,0,1.0488,optionLeft,55,9210,4,36,0,36,0,1,,,,,,,,,,,,,,,,,,,,,,,,,,,,,,,,,,,,,,,
,,,,,,,,2023-08-16_08h49.41.509,HF_wild_card,2022.2.4,Win32,59.95563283,640095c783a33710a484adee,64d2fd46c836a06233681665,64dc7e9396ba187eefe1fcd8,,,,,,,sngl,resources/DB.BMP,resources/Empty.png,Door1,-0.260185171,0.072222215,1,0,0,1.5299,optionLeft,30,9240,4,37,0,37,0,1,,,,,,,,,,,,,,,,,,,,,,,,,,,,,,,,,,,,,,,
,,,,,,,,2023-08-16_08h49.41.509,HF_wild_card,2022.2.4,Win32,59.95563283,640095c783a33710a484adee,64d2fd46c836a06233681665,64dc7e9396ba187eefe1fcd8,,,,,,,ctch,resources/DBN.BMP,resources/DB.BMP,Door4,-0.301851838,0.062962956,1,0,0,1.3501,optionLeft,80,9320,4,38,0,38,0,1,,,,,,,,,,,,,,,,,,,,,,,,,,,,,,,,,,,,,,,
,,,,,,,,2023-08-16_08h49.41.509,HF_wild_card,2022.2.4,Win32,59.95563283,640095c783a33710a484adee,64d2fd46c836a06233681665,64dc7e9396ba187eefe1fcd8,,,,,,,ctch,resources/DR.BMP,resources/DY.BMP,Door3,-0.295370384,0.065740727,1,0,0,1.3838,optionLeft,70,9390,4,39,0,39,0,1,,,,,,,,,,,,,,,,,,,,,,,,,,,,,,,,,,,,,,,
,,,,,,,,2023-08-16_08h49.41.509,HF_wild_card,2022.2.4,Win32,59.95563283,640095c783a33710a484adee,64d2fd46c836a06233681665,64dc7e9396ba187eefe1fcd8,,,,,,,decisionTrl,resources/DBN.BMP,resources/DR.BMP,Door4,-0.227777764,0.047222208,1,0,0,1.861,optionLeft,60,9450,4,40,0,40,0,1,,,,,,,,,,,,,,,,,,,,,,,,,,,,,,,,,,,,,,,
,,,,,,,,2023-08-16_08h49.41.509,HF_wild_card,2022.2.4,Win32,59.95563283,640095c783a33710a484adee,64d2fd46c836a06233681665,64dc7e9396ba187eefe1fcd8,,,,,,,decisionTrl,resources/DY.BMP,resources/DB.BMP,Door1,0.3648149,0,1,0,0,2.6392,optionRight,30,9480,4,41,0,41,0,1,,,,,,,,,,,,,,,,,,,,,,,,,,,,,,,,,,,,,,,
,,,,,,,,2023-08-16_08h49.41.509,HF_wild_card,2022.2.4,Win32,59.95563283,640095c783a33710a484adee,64d2fd46c836a06233681665,64dc7e9396ba187eefe1fcd8,,,,,,,ctch,resources/DBN.BMP,resources/DB.BMP,Door4,-0.287962949,0.074074074,1,0,0,1.2014,optionLeft,80,9560,4,42,0,42,0,1,,,,,,,,,,,,,,,,,,,,,,,,,,,,,,,,,,,,,,,
,,,,,,,,2023-08-16_08h49.41.509,HF_wild_card,2022.2.4,Win32,59.95563283,640095c783a33710a484adee,64d2fd46c836a06233681665,64dc7e9396ba187eefe1fcd8,,,,,,,sngl,resources/Empty.png,resources/DY.BMP,Door2,0.318518603,0.006481489,1,0,0,1.1004,optionRight,40,9600,4,43,0,43,0,1,,,,,,,,,,,,,,,,,,,,,,,,,,,,,,,,,,,,,,,
,,,,,,,,2023-08-16_08h49.41.509,HF_wild_card,2022.2.4,Win32,59.95563283,640095c783a33710a484adee,64d2fd46c836a06233681665,64dc7e9396ba187eefe1fcd8,,,,,,,,,,,,,,,,,,,,,,,,,,3,0,3,0,1,,,,,,,,,,,,,,,,,,,,,,,,,,,,,,,,,,
,,,,,,,,2023-08-16_08h49.41.509,HF_wild_card,2022.2.4,Win32,59.95563283,640095c783a33710a484adee,64d2fd46c836a06233681665,64dc7e9396ba187eefe1fcd8,,,,,,,sngl,resources/DY.BMP,resources/Empty.png,Door2,-0.351851852,0.02407406,1,0,0,1.1475,optionLeft,40,9640,5,0,0,0,0,1,,,,,,,,,,,,,,,,,,,,,,,,,,,,,,,,,,,,,,,
,,,,,,,,2023-08-16_08h49.41.509,HF_wild_card,2022.2.4,Win32,59.95563283,640095c783a33710a484adee,64d2fd46c836a06233681665,64dc7e9396ba187eefe1fcd8,,,,,,,decisionTrl,resources/DBN.BMP,resources/DG.BMP,Door4,-0.292592578,0.058333326,1,0,0,1.62,optionLeft,60,9700,5,1,0,1,0,1,,,,,,,,,,,,,,,,,,,,,,,,,,,,,,,,,,,,,,,
,,,,,,,,2023-08-16_08h49.41.509,HF_wild_card,2022.2.4,Win32,59.95563283,640095c783a33710a484adee,64d2fd46c836a06233681665,64dc7e9396ba187eefe1fcd8,,,,,,,ctch,resources/DB.BMP,resources/DBN.BMP,Door4,0.434259344,0.00462963,1,0,0,1.1003,optionRight,80,9780,5,2,0,2,0,1,,,,,,,,,,,,,,,,,,,,,,,,,,,,,,,,,,,,,,,
,,,,,,,,2023-08-16_08h49.41.509,HF_wild_card,2022.2.4,Win32,59.95563283,640095c783a33710a484adee,64d2fd46c836a06233681665,64dc7e9396ba187eefe1fcd8,,,,,,,decisionTrl,resources/DB.BMP,resources/DY.BMP,Door1,-0.236111111,0.053703697,1,0,0,2.8501,optionLeft,30,9810,5,3,0,3,0,1,,,,,,,,,,,,,,,,,,,,,,,,,,,,,,,,,,,,,,,
,,,,,,,,2023-08-16_08h49.41.509,HF_wild_card,2022.2.4,Win32,59.95563283,640095c783a33710a484adee,64d2fd46c836a06233681665,64dc7e9396ba187eefe1fcd8,,,,,,,sngl,resources/Empty.png,resources/DBN.BMP,Door4,0.41851849,0.018518519,1,0,0,0.9669,optionRight,60,9870,5,4,0,4,0,1,,,,,,,,,,,,,,,,,,,,,,,,,,,,,,,,,,,,,,,
,,,,,,,,2023-08-16_08h49.41.509,HF_wild_card,2022.2.4,Win32,59.95563283,640095c783a33710a484adee,64d2fd46c836a06233681665,64dc7e9396ba187eefe1fcd8,,,,,,,decisionTrl,resources/DR.BMP,resources/DG.BMP,Door3,-0.239814829,0.044444437,1,0,0,2.0298,optionLeft,70,9940,5,5,0,5,0,1,,,,,,,,,,,,,,,,,,,,,,,,,,,,,,,,,,,,,,,
,,,,,,,,2023-08-16_08h49.41.509,HF_wild_card,2022.2.4,Win32,59.95563283,640095c783a33710a484adee,64d2fd46c836a06233681665,64dc7e9396ba187eefe1fcd8,,,,,,,decisionTrl,resources/DG.BMP,resources/DY.BMP,WildCard_Ex,-0.248148106,0.061111097,1,0,0,1.7606,optionLeft,55,9995,5,6,0,6,0,1,,,,,,,,,,,,,,,,,,,,,,,,,,,,,,,,,,,,,,,
,,,,,,,,2023-08-16_08h49.41.509,HF_wild_card,2022.2.4,Win32,59.95563283,640095c783a33710a484adee,64d2fd46c836a06233681665,64dc7e9396ba187eefe1fcd8,,,,,,,ctch,resources/DB.BMP,resources/DBN.BMP,Door4,0.375925982,0.0074074,1,0,0,1.1025,optionRight,80,10075,5,7,0,7,0,1,,,,,,,,,,,,,,,,,,,,,,,,,,,,,,,,,,,,,,,
,,,,,,,,2023-08-16_08h49.41.509,HF_wild_card,2022.2.4,Win32,59.95563283,640095c783a33710a484adee,64d2fd46c836a06233681665,64dc7e9396ba187eefe1fcd8,,,,,,,sngl,resources/Empty.png,resources/DB.BMP,Door1,0.420370455,0.026851831,1,0,0,1.0503,optionRight,30,10105,5,8,0,8,0,1,,,,,,,,,,,,,,,,,,,,,,,,,,,,,,,,,,,,,,,
,,,,,,,,2023-08-16_08h49.41.509,HF_wild_card,2022.2.4,Win32,59.95563283,640095c783a33710a484adee,64d2fd46c836a06233681665,64dc7e9396ba187eefe1fcd8,,,,,,,sngl,resources/DBN.BMP,resources/Empty.png,Door4,-0.270370342,0.086111104,1,0,0,0.9996,optionLeft,80,10185,5,9,0,9,0,1,,,,,,,,,,,,,,,,,,,,,,,,,,,,,,,,,,,,,,,
,,,,,,,,2023-08-16_08h49.41.509,HF_wild_card,2022.2.4,Win32,59.95563283,640095c783a33710a484adee,64d2fd46c836a06233681665,64dc7e9396ba187eefe1fcd8,,,,,,,decisionTrl,resources/DR.BMP,resources/DBN.BMP,Door4,0.311111168,0.0074074,1,0,0,1.6359,optionRight,60,10245,5,10,0,10,0,1,,,,,,,,,,,,,,,,,,,,,,,,,,,,,,,,,,,,,,,
,,,,,,,,2023-08-16_08h49.41.509,HF_wild_card,2022.2.4,Win32,59.95563283,640095c783a33710a484adee,64d2fd46c836a06233681665,64dc7e9396ba187eefe1fcd8,,,,,,,decisionTrl,resources/DY.BMP,resources/DB.BMP,Door1,0.292592578,0.01203703,1,0,0,3.0734,optionRight,30,10275,5,11,0,11,0,1,,,,,,,,,,,,,,,,,,,,,,,,,,,,,,,,,,,,,,,
,,,,,,,,2023-08-16_08h49.41.509,HF_wild_card,2022.2.4,Win32,59.95563283,640095c783a33710a484adee,64d2fd46c836a06233681665,64dc7e9396ba187eefe1fcd8,,,,,,,decisionTrl,resources/DBN.BMP,resources/DR.BMP,Door4,-0.306481467,0.085185192,1,0,0,1.7362,optionLeft,60,10335,5,12,0,12,0,1,,,,,,,,,,,,,,,,,,,,,,,,,,,,,,,,,,,,,,,
,,,,,,,,2023-08-16_08h49.41.509,HF_wild_card,2022.2.4,Win32,59.95563283,640095c783a33710a484adee,64d2fd46c836a06233681665,64dc7e9396ba187eefe1fcd8,,,,,,,sngl,resources/Empty.png,resources/DG.BMP,WildCard_Ex,0.445370427,0.039814808,1,0,0,1.0246,optionRight,55,10390,5,13,0,13,0,1,,,,,,,,,,,,,,,,,,,,,,,,,,,,,,,,,,,,,,,
,,,,,,,,2023-08-16_08h49.41.509,HF_wild_card,2022.2.4,Win32,59.95563283,640095c783a33710a484adee,64d2fd46c836a06233681665,64dc7e9396ba187eefe1fcd8,,,,,,,decisionTrl,resources/DBN.BMP,resources/DR.BMP,Door3,0.428703732,0.037962949,1,0,0,1.318,optionRight,70,10460,5,14,0,14,0,1,,,,,,,,,,,,,,,,,,,,,,,,,,,,,,,,,,,,,,,
,,,,,,,,2023-08-16_08h49.41.509,HF_wild_card,2022.2.4,Win32,59.95563283,640095c783a33710a484adee,64d2fd46c836a06233681665,64dc7e9396ba187eefe1fcd8,,,,,,,ctch,resources/DBN.BMP,resources/DB.BMP,Door4,-0.189814815,0.083333333,1,0,0,1.2358,optionLeft,60,10520,5,15,0,15,0,1,,,,,,,,,,,,,,,,,,,,,,,,,,,,,,,,,,,,,,,
,,,,,,,,2023-08-16_08h49.41.509,HF_wild_card,2022.2.4,Win32,59.95563283,640095c783a33710a484adee,64d2fd46c836a06233681665,64dc7e9396ba187eefe1fcd8,,,,,,,decisionTrl,resources/DG.BMP,resources/DBN.BMP,Door4,0.234259288,0.005555541,1,0,0,2.0214,optionRight,80,10600,5,16,0,16,0,1,,,,,,,,,,,,,,,,,,,,,,,,,,,,,,,,,,,,,,,
,,,,,,,,2023-08-16_08h49.41.509,HF_wild_card,2022.2.4,Win32,59.95563283,640095c783a33710a484adee,64d2fd46c836a06233681665,64dc7e9396ba187eefe1fcd8,,,,,,,ctch,resources/DR.BMP,resources/DY.BMP,Door3,-0.244444459,0.051851838,1,0,0,1.2676,optionLeft,70,10670,5,17,0,17,0,1,,,,,,,,,,,,,,,,,,,,,,,,,,,,,,,,,,,,,,,
,,,,,,,,2023-08-16_08h49.41.509,HF_wild_card,2022.2.4,Win32,59.95563283,640095c783a33710a484adee,64d2fd46c836a06233681665,64dc7e9396ba187eefe1fcd8,,,,,,,decisionTrl,resources/DY.BMP,resources/DB.BMP,Door1,0.250925912,-0.010185206,1,0,0,2.0605,optionRight,30,10700,5,18,0,18,0,1,,,,,,,,,,,,,,,,,,,,,,,,,,,,,,,,,,,,,,,
,,,,,,,,2023-08-16_08h49.41.509,HF_wild_card,2022.2.4,Win32,59.95563283,640095c783a33710a484adee,64d2fd46c836a06233681665,64dc7e9396ba187eefe1fcd8,,,,,,,sngl,resources/DG.BMP,resources/Empty.png,WildCard_Ex,-0.191666638,0.021296289,1,0,0,1.0173,optionLeft,45,10745,5,19,0,19,0,1,,,,,,,,,,,,,,,,,,,,,,,,,,,,,,,,,,,,,,,
,,,,,,,,2023-08-16_08h49.41.509,HF_wild_card,2022.2.4,Win32,59.95563283,640095c783a33710a484adee,64d2fd46c836a06233681665,64dc7e9396ba187eefe1fcd8,,,,,,,sngl,resources/Empty.png,resources/DG.BMP,WildCard_Ex,0.342592593,-0.005555577,1,0,0,1.0501,optionRight,45,10790,5,20,0,20,0,1,,,,,,,,,,,,,,,,,,,,,,,,,,,,,,,,,,,,,,,
,,,,,,,,2023-08-16_08h49.41.509,HF_wild_card,2022.2.4,Win32,59.95563283,640095c783a33710a484adee,64d2fd46c836a06233681665,64dc7e9396ba187eefe1fcd8,,,,,,,sngl,resources/Empty.png,resources/DY.BMP,Door2,0.283333319,-0.005555577,1,0,0,1.1124,optionRight,20,10810,5,21,0,21,0,1,,,,,,,,,,,,,,,,,,,,,,,,,,,,,,,,,,,,,,,
,,,,,,,,2023-08-16_08h49.41.509,HF_wild_card,2022.2.4,Win32,59.95563283,640095c783a33710a484adee,64d2fd46c836a06233681665,64dc7e9396ba187eefe1fcd8,,,,,,,decisionTrl,resources/DR.BMP,resources/DBN.BMP,Door4,0.377777806,0.01944443,1,0,0,2.8396,optionRight,60,10870,5,22,0,22,0,1,,,,,,,,,,,,,,,,,,,,,,,,,,,,,,,,,,,,,,,
,,,,,,,,2023-08-16_08h49.41.509,HF_wild_card,2022.2.4,Win32,59.95563283,640095c783a33710a484adee,64d2fd46c836a06233681665,64dc7e9396ba187eefe1fcd8,,,,,,,decisionTrl,resources/DY.BMP,resources/DB.BMP,Door1,0.348148205,0.013888889,1,0,0,2.3308,optionRight,30,10900,5,23,0,23,0,1,,,,,,,,,,,,,,,,,,,,,,,,,,,,,,,,,,,,,,,
,,,,,,,,2023-08-16_08h49.41.509,HF_wild_card,2022.2.4,Win32,59.95563283,640095c783a33710a484adee,64d2fd46c836a06233681665,64dc7e9396ba187eefe1fcd8,,,,,,,sngl,resources/DG.BMP,resources/Empty.png,WildCard_Ex,-0.283333319,0.02870369,1,0,0,0.9831,optionLeft,55,10955,5,24,0,24,0,1,,,,,,,,,,,,,,,,,,,,,,,,,,,,,,,,,,,,,,,
,,,,,,,,2023-08-16_08h49.41.509,HF_wild_card,2022.2.4,Win32,59.95563283,640095c783a33710a484adee,64d2fd46c836a06233681665,64dc7e9396ba187eefe1fcd8,,,,,,,sngl,resources/DR.BMP,resources/Empty.png,Door3,-0.256481453,0.037037037,1,0,0,1.011,optionLeft,70,11025,5,25,0,25,0,1,,,,,,,,,,,,,,,,,,,,,,,,,,,,,,,,,,,,,,,
,,,,,,,,2023-08-16_08h49.41.509,HF_wild_card,2022.2.4,Win32,59.95563283,640095c783a33710a484adee,64d2fd46c836a06233681665,64dc7e9396ba187eefe1fcd8,,,,,,,decisionTrl,resources/DR.BMP,resources/DBN.BMP,Door3,-0.212962963,0.041666667,1,0,0,1.1997,optionLeft,70,11095,5,26,0,26,0,1,,,,,,,,,,,,,,,,,,,,,,,,,,,,,,,,,,,,,,,
,,,,,,,,2023-08-16_08h49.41.509,HF_wild_card,2022.2.4,Win32,59.95563283,640095c783a33710a484adee,64d2fd46c836a06233681665,64dc7e9396ba187eefe1fcd8,,,,,,,decisionTrl,resources/DBN.BMP,resources/DR.BMP,Door3,0.340740769,0.015740748,1,0,0,1.1448,optionRight,70,11165,5,27,0,27,0,1,,,,,,,,,,,,,,,,,,,,,,,,,,,,,,,,,,,,,,,
,,,,,,,,2023-08-16_08h49.41.509,HF_wild_card,2022.2.4,Win32,59.95563283,640095c783a33710a484adee,64d2fd46c836a06233681665,64dc7e9396ba187eefe1fcd8,,,,,,,ctch,resources/DBN.BMP,resources/DB.BMP,Door4,-0.24537037,0.049999979,1,0,0,1.2614,optionLeft,60,11225,5,28,0,28,0,1,,,,,,,,,,,,,,,,,,,,,,,,,,,,,,,,,,,,,,,
,,,,,,,,2023-08-16_08h49.41.509,HF_wild_card,2022.2.4,Win32,59.95563283,640095c783a33710a484adee,64d2fd46c836a06233681665,64dc7e9396ba187eefe1fcd8,,,,,,,ctch,resources/DY.BMP,resources/DR.BMP,Door3,0.37037037,0.008333312,1,0,0,1.0356,optionRight,70,11295,5,29,0,29,0,1,,,,,,,,,,,,,,,,,,,,,,,,,,,,,,,,,,,,,,,
,,,,,,,,2023-08-16_08h49.41.509,HF_wild_card,2022.2.4,Win32,59.95563283,640095c783a33710a484adee,64d2fd46c836a06233681665,64dc7e9396ba187eefe1fcd8,,,,,,,decisionTrl,resources/DB.BMP,resources/DG.BMP,WildCard_Ex,0.361111111,-0.010185206,1,0,0,1.267,optionRight,45,11340,5,30,0,30,0,1,,,,,,,,,,,,,,,,,,,,,,,,,,,,,,,,,,,,,,,
,,,,,,,,2023-08-16_08h49.41.509,HF_wild_card,2022.2.4,Win32,59.95563283,640095c783a33710a484adee,64d2fd46c836a06233681665,64dc7e9396ba187eefe1fcd8,,,,,,,decisionTrl,resources/DBN.BMP,resources/DR.BMP,Door3,0.378703788,0.0074074,1,0,0,1.7125,optionRight,70,11410,5,31,0,31,0,1,,,,,,,,,,,,,,,,,,,,,,,,,,,,,,,,,,,,,,,
,,,,,,,,2023-08-16_08h49.41.509,HF_wild_card,2022.2.4,Win32,59.95563283,640095c783a33710a484adee,64d2fd46c836a06233681665,64dc7e9396ba187eefe1fcd8,,,,,,,decisionTrl,resources/DY.BMP,resources/DB.BMP,Door1,0.37962963,0.002777771,1,0,0,2.5404,optionRight,30,11440,5,32,0,32,0,1,,,,,,,,,,,,,,,,,,,,,,,,,,,,,,,,,,,,,,,
,,,,,,,,2023-08-16_08h49.41.509,HF_wild_card,2022.2.4,Win32,59.95563283,640095c783a33710a484adee,64d2fd46c836a06233681665,64dc7e9396ba187eefe1fcd8,,,,,,,ctch,resources/DY.BMP,resources/DR.BMP,Door3,0.314814815,-0.008333347,1,0,0,1.1838,optionRight,70,11510,5,33,0,33,0,1,,,,,,,,,,,,,,,,,,,,,,,,,,,,,,,,,,,,,,,
,,,,,,,,2023-08-16_08h49.41.509,HF_wild_card,2022.2.4,Win32,59.95563283,640095c783a33710a484adee,64d2fd46c836a06233681665,64dc7e9396ba187eefe1fcd8,,,,,,,sngl,resources/Empty.png,resources/DR.BMP,Door3,0.358333305,-0.003703718,1,0,0,2.1215,optionRight,70,11580,5,34,0,34,0,1,,,,,,,,,,,,,,,,,,,,,,,,,,,,,,,,,,,,,,,
,,,,,,,,2023-08-16_08h49.41.509,HF_wild_card,2022.2.4,Win32,59.95563283,640095c783a33710a484adee,64d2fd46c836a06233681665,64dc7e9396ba187eefe1fcd8,,,,,,,decisionTrl,resources/DB.BMP,resources/DY.BMP,Door1,-0.318518497,0.065740727,1,0,0,1.9208,optionLeft,30,11610,5,35,0,35,0,1,,,,,,,,,,,,,,,,,,,,,,,,,,,,,,,,,,,,,,,
,,,,,,,,2023-08-16_08h49.41.509,HF_wild_card,2022.2.4,Win32,59.95563283,640095c783a33710a484adee,64d2fd46c836a06233681665,64dc7e9396ba187eefe1fcd8,,,,,,,decisionTrl,resources/DG.BMP,resources/DB.BMP,WildCard_Ex,-0.299999979,0.053703697,1,0,0,1.168,optionLeft,45,11655,5,36,0,36,0,1,,,,,,,,,,,,,,,,,,,,,,,,,,,,,,,,,,,,,,,
,,,,,,,,2023-08-16_08h49.41.509,HF_wild_card,2022.2.4,Win32,59.95563283,640095c783a33710a484adee,64d2fd46c836a06233681665,64dc7e9396ba187eefe1fcd8,,,,,,,decisionTrl,resources/DR.BMP,resources/DBN.BMP,Door4,0.450925898,-0.01666666,1,0,0,4.5768,optionRight,80,11735,5,37,0,37,0,1,,,,,,,,,,,,,,,,,,,,,,,,,,,,,,,,,,,,,,,
,,,,,,,,2023-08-16_08h49.41.509,HF_wild_card,2022.2.4,Win32,59.95563283,640095c783a33710a484adee,64d2fd46c836a06233681665,64dc7e9396ba187eefe1fcd8,,,,,,,decisionTrl,resources/DY.BMP,resources/DG.BMP,WildCard_Ex,0.292592578,0.005555541,1,0,0,1.8201,optionRight,45,11780,5,38,0,38,0,1,,,,,,,,,,,,,,,,,,,,,,,,,,,,,,,,,,,,,,,
,,,,,,,,2023-08-16_08h49.41.509,HF_wild_card,2022.2.4,Win32,59.95563283,640095c783a33710a484adee,64d2fd46c836a06233681665,64dc7e9396ba187eefe1fcd8,,,,,,,decisionTrl,resources/DB.BMP,resources/DY.BMP,Door1,-0.207407422,0.020370377,1,0,0,1.8911,optionLeft,30,11810,5,39,0,39,0,1,,,,,,,,,,,,,,,,,,,,,,,,,,,,,,,,,,,,,,,
,,,,,,,,2023-08-16_08h49.41.509,HF_wild_card,2022.2.4,Win32,59.95563283,640095c783a33710a484adee,64d2fd46c836a06233681665,64dc7e9396ba187eefe1fcd8,,,,,,,decisionTrl,resources/DG.BMP,resources/DR.BMP,Door3,0.48055564,-0.01666666,1,0,0,2.0543,optionRight,70,11880,5,40,0,40,0,1,,,,,,,,,,,,,,,,,,,,,,,,,,,,,,,,,,,,,,,
,,,,,,,,2023-08-16_08h49.41.509,HF_wild_card,2022.2.4,Win32,59.95563283,640095c783a33710a484adee,64d2fd46c836a06233681665,64dc7e9396ba187eefe1fcd8,,,,,,,decisionTrl,resources/DB.BMP,resources/DY.BMP,Door1,-0.274999972,0.167592578,1,0,0,4.4956,optionLeft,30,11910,5,41,0,41,0,1,,,,,,,,,,,,,,,,,,,,,,,,,,,,,,,,,,,,,,,
,,,,,,,,2023-08-16_08h49.41.509,HF_wild_card,2022.2.4,Win32,59.95563283,640095c783a33710a484adee,64d2fd46c836a06233681665,64dc7e9396ba187eefe1fcd8,,,,,,,sngl,resources/DB.BMP,resources/Empty.png,Door1,-0.222222222,0.033333319,1,0,0,1.0169,optionLeft,30,11940,5,42,0,42,0,1,,,,,,,,,,,,,,,,,,,,,,,,,,,,,,,,,,,,,,,
,,,,,,,,2023-08-16_08h49.41.509,HF_wild_card,2022.2.4,Win32,59.95563283,640095c783a33710a484adee,64d2fd46c836a06233681665,64dc7e9396ba187eefe1fcd8,,,,,,,ctch,resources/DR.BMP,resources/DY.BMP,Door3,-0.220370328,0.056481467,1,0,0,1.5195,optionLeft,70,12010,5,43,0,43,0,1,,,,,,,,,,,,,,,,,,,,,,,,,,,,,,,,,,,,,,,
,,,,,,,,2023-08-16_08h49.41.509,HF_wild_card,2022.2.4,Win32,59.95563283,640095c783a33710a484adee,64d2fd46c836a06233681665,64dc7e9396ba187eefe1fcd8,,,,,,,,,,,,,,,,,,,,,,,,,,4,0,4,0,1,,,,,,,,,,,,,,,,,,,,,,,,,,,,,,,,,,
,,,,,,,,2023-08-16_08h49.41.509,HF_wild_card,2022.2.4,Win32,59.95563283,640095c783a33710a484adee,64d2fd46c836a06233681665,64dc7e9396ba187eefe1fcd8,,,,,,,decisionTrl,resources/DR.BMP,resources/DBN.BMP,Door4,0.345370399,0.046296296,1,0,0,2.1036,optionRight,80,12090,6,0,0,0,0,1,,,,,,,,,,,,,,,,,,,,,,,,,,,,,,,,,,,,,,,
,,,,,,,,2023-08-16_08h49.41.509,HF_wild_card,2022.2.4,Win32,59.95563283,640095c783a33710a484adee,64d2fd46c836a06233681665,64dc7e9396ba187eefe1fcd8,,,,,,,decisionTrl,resources/DB.BMP,resources/DY.BMP,Door1,-0.266666624,0.034259266,1,0,0,1.7183,optionLeft,30,12120,6,1,0,1,0,1,,,,,,,,,,,,,,,,,,,,,,,,,,,,,,,,,,,,,,,
,,,,,,,,2023-08-16_08h49.41.509,HF_wild_card,2022.2.4,Win32,59.95563283,640095c783a33710a484adee,64d2fd46c836a06233681665,64dc7e9396ba187eefe1fcd8,,,,,,,decisionTrl,resources/DY.BMP,resources/DB.BMP,Door2,-0.226851852,0.04074072,1,0,0,5.0718,optionLeft,40,12160,6,2,0,2,0,1,,,,,,,,,,,,,,,,,,,,,,,,,,,,,,,,,,,,,,,
,,,,,,,,2023-08-16_08h49.41.509,HF_wild_card,2022.2.4,Win32,59.95563283,640095c783a33710a484adee,64d2fd46c836a06233681665,64dc7e9396ba187eefe1fcd8,,,,,,,sngl,resources/DB.BMP,resources/Empty.png,Door1,-0.324999986,0.054629608,1,0,0,1.1684,optionLeft,30,12190,6,3,0,3,0,1,,,,,,,,,,,,,,,,,,,,,,,,,,,,,,,,,,,,,,,
,,,,,,,,2023-08-16_08h49.41.509,HF_wild_card,2022.2.4,Win32,59.95563283,640095c783a33710a484adee,64d2fd46c836a06233681665,64dc7e9396ba187eefe1fcd8,,,,,,,decisionTrl,resources/DB.BMP,resources/DY.BMP,Door2,0.327777863,-0.003703718,1,0,0,1.0971,optionRight,20,12210,6,4,0,4,0,1,,,,,,,,,,,,,,,,,,,,,,,,,,,,,,,,,,,,,,,
,,,,,,,,2023-08-16_08h49.41.509,HF_wild_card,2022.2.4,Win32,59.95563283,640095c783a33710a484adee,64d2fd46c836a06233681665,64dc7e9396ba187eefe1fcd8,,,,,,,decisionTrl,resources/DBN.BMP,resources/DR.BMP,Door4,-0.263888889,0.061111097,1,0,0,2.6994,optionLeft,60,12270,6,5,0,5,0,1,,,,,,,,,,,,,,,,,,,,,,,,,,,,,,,,,,,,,,,
,,,,,,,,2023-08-16_08h49.41.509,HF_wild_card,2022.2.4,Win32,59.95563283,640095c783a33710a484adee,64d2fd46c836a06233681665,64dc7e9396ba187eefe1fcd8,,,,,,,decisionTrl,resources/DG.BMP,resources/DR.BMP,Door3,0.481481481,-0.002777771,1,0,0,1.585,optionRight,70,12340,6,6,0,6,0,1,,,,,,,,,,,,,,,,,,,,,,,,,,,,,,,,,,,,,,,
,,,,,,,,2023-08-16_08h49.41.509,HF_wild_card,2022.2.4,Win32,59.95563283,640095c783a33710a484adee,64d2fd46c836a06233681665,64dc7e9396ba187eefe1fcd8,,,,,,,sngl,resources/Empty.png,resources/DR.BMP,Door3,0.337962963,-0.006481489,1,0,0,0.9087,optionRight,70,12410,6,7,0,7,0,1,,,,,,,,,,,,,,,,,,,,,,,,,,,,,,,,,,,,,,,
,,,,,,,,2023-08-16_08h49.41.509,HF_wild_card,2022.2.4,Win32,59.95563283,640095c783a33710a484adee,64d2fd46c836a06233681665,64dc7e9396ba187eefe1fcd8,,,,,,,decisionTrl,resources/DBN.BMP,resources/DR.BMP,Door3,0.276851866,0.000925912,1,0,0,1.987,optionRight,70,12480,6,8,0,8,0,1,,,,,,,,,,,,,,,,,,,,,,,,,,,,,,,,,,,,,,,
,,,,,,,,2023-08-16_08h49.41.509,HF_wild_card,2022.2.4,Win32,59.95563283,640095c783a33710a484adee,64d2fd46c836a06233681665,64dc7e9396ba187eefe1fcd8,,,,,,,sngl,resources/Empty.png,resources/DG.BMP,WildCard_Ex,0.297222279,0.002777771,1,0,0,1.0939,optionRight,55,12535,6,9,0,9,0,1,,,,,,,,,,,,,,,,,,,,,,,,,,,,,,,,,,,,,,,
,,,,,,,,2023-08-16_08h49.41.509,HF_wild_card,2022.2.4,Win32,59.95563283,640095c783a33710a484adee,64d2fd46c836a06233681665,64dc7e9396ba187eefe1fcd8,,,,,,,ctch,resources/DR.BMP,resources/DY.BMP,Door3,-0.228703675,0.02870369,1,0,0,1.5687,optionLeft,70,12605,6,10,0,10,0,1,,,,,,,,,,,,,,,,,,,,,,,,,,,,,,,,,,,,,,,
,,,,,,,,2023-08-16_08h49.41.509,HF_wild_card,2022.2.4,Win32,59.95563283,640095c783a33710a484adee,64d2fd46c836a06233681665,64dc7e9396ba187eefe1fcd8,,,,,,,sngl,resources/DY.BMP,resources/Empty.png,Door2,-0.255555541,0.049999979,1,0,0,0.9993,optionLeft,20,12625,6,11,0,11,0,1,,,,,,,,,,,,,,,,,,,,,,,,,,,,,,,,,,,,,,,
,,,,,,,,2023-08-16_08h49.41.509,HF_wild_card,2022.2.4,Win32,59.95563283,640095c783a33710a484adee,64d2fd46c836a06233681665,64dc7e9396ba187eefe1fcd8,,,,,,,ctch,resources/DB.BMP,resources/DBN.BMP,Door4,0.384259259,0.023148148,1,0,0,1.4281,optionRight,60,12685,6,12,0,12,0,1,,,,,,,,,,,,,,,,,,,,,,,,,,,,,,,,,,,,,,,
,,,,,,,,2023-08-16_08h49.41.509,HF_wild_card,2022.2.4,Win32,59.95563283,640095c783a33710a484adee,64d2fd46c836a06233681665,64dc7e9396ba187eefe1fcd8,,,,,,,decisionTrl,resources/DBN.BMP,resources/DG.BMP,Door4,-0.316666674,0.059259238,1,0,0,1.9204,optionLeft,80,12765,6,13,0,13,0,1,,,,,,,,,,,,,,,,,,,,,,,,,,,,,,,,,,,,,,,
,,,,,,,,2023-08-16_08h49.41.509,HF_wild_card,2022.2.4,Win32,59.95563283,640095c783a33710a484adee,64d2fd46c836a06233681665,64dc7e9396ba187eefe1fcd8,,,,,,,ctch,resources/DY.BMP,resources/DR.BMP,Door3,0.351851852,0.018518519,1,0,0,1.4034,optionRight,70,12835,6,14,0,14,0,1,,,,,,,,,,,,,,,,,,,,,,,,,,,,,,,,,,,,,,,
,,,,,,,,2023-08-16_08h49.41.509,HF_wild_card,2022.2.4,Win32,59.95563283,640095c783a33710a484adee,64d2fd46c836a06233681665,64dc7e9396ba187eefe1fcd8,,,,,,,sngl,resources/DBN.BMP,resources/Empty.png,Door4,-0.236111111,0.04074072,1,0,0,0.9345,optionLeft,60,12895,6,15,0,15,0,1,,,,,,,,,,,,,,,,,,,,,,,,,,,,,,,,,,,,,,,
,,,,,,,,2023-08-16_08h49.41.509,HF_wild_card,2022.2.4,Win32,59.95563283,640095c783a33710a484adee,64d2fd46c836a06233681665,64dc7e9396ba187eefe1fcd8,,,,,,,sngl,resources/Empty.png,resources/DB.BMP,Door1,0.368518547,-0.003703718,1,0,0,1.0497,optionRight,30,12925,6,16,0,16,0,1,,,,,,,,,,,,,,,,,,,,,,,,,,,,,,,,,,,,,,,
,,,,,,,,2023-08-16_08h49.41.509,HF_wild_card,2022.2.4,Win32,59.95563283,640095c783a33710a484adee,64d2fd46c836a06233681665,64dc7e9396ba187eefe1fcd8,,,,,,,decisionTrl,resources/DBN.BMP,resources/DR.BMP,Door3,0.388888889,0.0074074,1,0,0,4.2877,optionRight,70,12995,6,17,0,17,0,1,,,,,,,,,,,,,,,,,,,,,,,,,,,,,,,,,,,,,,,
,,,,,,,,2023-08-16_08h49.41.509,HF_wild_card,2022.2.4,Win32,59.95563283,640095c783a33710a484adee,64d2fd46c836a06233681665,64dc7e9396ba187eefe1fcd8,,,,,,,decisionTrl,resources/DY.BMP,resources/DG.BMP,WildCard_Ex,0.380555612,-0.003703718,1,0,0,1.4994,optionRight,55,13050,6,18,0,18,0,1,,,,,,,,,,,,,,,,,,,,,,,,,,,,,,,,,,,,,,,
,,,,,,,,2023-08-16_08h49.41.509,HF_wild_card,2022.2.4,Win32,59.95563283,640095c783a33710a484adee,64d2fd46c836a06233681665,64dc7e9396ba187eefe1fcd8,,,,,,,sngl,resources/DG.BMP,resources/Empty.png,WildCard_Ex,-0.235185199,0.043518526,1,0,0,1.0576,optionLeft,55,13105,6,19,0,19,0,1,,,,,,,,,,,,,,,,,,,,,,,,,,,,,,,,,,,,,,,
,,,,,,,,2023-08-16_08h49.41.509,HF_wild_card,2022.2.4,Win32,59.95563283,640095c783a33710a484adee,64d2fd46c836a06233681665,64dc7e9396ba187eefe1fcd8,,,,,,,ctch,resources/DB.BMP,resources/DBN.BMP,Door4,0.316666638,0.011111118,1,0,0,1.2025,optionRight,80,13185,6,20,0,20,0,1,,,,,,,,,,,,,,,,,,,,,,,,,,,,,,,,,,,,,,,
,,,,,,,,2023-08-16_08h49.41.509,HF_wild_card,2022.2.4,Win32,59.95563283,640095c783a33710a484adee,64d2fd46c836a06233681665,64dc7e9396ba187eefe1fcd8,,,,,,,ctch,resources/DY.BMP,resources/DR.BMP,Door3,0.32222225,-0.006481489,1,0,0,1.3188,optionRight,70,13255,6,21,0,21,0,1,,,,,,,,,,,,,,,,,,,,,,,,,,,,,,,,,,,,,,,
,,,,,,,,2023-08-16_08h49.41.509,HF_wild_card,2022.2.4,Win32,59.95563283,640095c783a33710a484adee,64d2fd46c836a06233681665,64dc7e9396ba187eefe1fcd8,,,,,,,decisionTrl,resources/DG.BMP,resources/DBN.BMP,Door4,0.311111168,-0.00462963,1,0,0,1.0344,optionRight,60,13315,6,22,0,22,0,1,,,,,,,,,,,,,,,,,,,,,,,,,,,,,,,,,,,,,,,
,,,,,,,,2023-08-16_08h49.41.509,HF_wild_card,2022.2.4,Win32,59.95563283,640095c783a33710a484adee,64d2fd46c836a06233681665,64dc7e9396ba187eefe1fcd8,,,,,,,sngl,resources/Empty.png,resources/DBN.BMP,Door4,0.340740769,0.01666666,1,0,0,0.9678,optionRight,80,13395,6,23,0,23,0,1,,,,,,,,,,,,,,,,,,,,,,,,,,,,,,,,,,,,,,,
,,,,,,,,2023-08-16_08h49.41.509,HF_wild_card,2022.2.4,Win32,59.95563283,640095c783a33710a484adee,64d2fd46c836a06233681665,64dc7e9396ba187eefe1fcd8,,,,,,,decisionTrl,resources/DBN.BMP,resources/DR.BMP,Door4,-0.240740741,0.048148155,1,0,0,2.9738,optionLeft,80,13475,6,24,0,24,0,1,,,,,,,,,,,,,,,,,,,,,,,,,,,,,,,,,,,,,,,
,,,,,,,,2023-08-16_08h49.41.509,HF_wild_card,2022.2.4,Win32,59.95563283,640095c783a33710a484adee,64d2fd46c836a06233681665,64dc7e9396ba187eefe1fcd8,,,,,,,ctch,resources/DR.BMP,resources/DY.BMP,Door3,-0.273148148,0.062962956,1,0,0,1.3678,optionLeft,70,13545,6,25,0,25,0,1,,,,,,,,,,,,,,,,,,,,,,,,,,,,,,,,,,,,,,,
,,,,,,,,2023-08-16_08h49.41.509,HF_wild_card,2022.2.4,Win32,59.95563283,640095c783a33710a484adee,64d2fd46c836a06233681665,64dc7e9396ba187eefe1fcd8,,,,,,,decisionTrl,resources/DR.BMP,resources/DBN.BMP,Door4,0.416666667,-0.024074095,1,0,0,1.4519,optionRight,80,13625,6,26,0,26,0,1,,,,,,,,,,,,,,,,,,,,,,,,,,,,,,,,,,,,,,,
,,,,,,,,2023-08-16_08h49.41.509,HF_wild_card,2022.2.4,Win32,59.95563283,640095c783a33710a484adee,64d2fd46c836a06233681665,64dc7e9396ba187eefe1fcd8,,,,,,,sngl,resources/DG.BMP,resources/Empty.png,WildCard_Ex,-0.285185143,0.069444444,1,0,0,1.069,optionLeft,45,13670,6,27,0,27,0,1,,,,,,,,,,,,,,,,,,,,,,,,,,,,,,,,,,,,,,,
,,,,,,,,2023-08-16_08h49.41.509,HF_wild_card,2022.2.4,Win32,59.95563283,640095c783a33710a484adee,64d2fd46c836a06233681665,64dc7e9396ba187eefe1fcd8,,,,,,,decisionTrl,resources/DG.BMP,resources/DB.BMP,WildCard_Ex,-0.261111083,0.047222208,1,0,0,1.3017,optionLeft,45,13715,6,28,0,28,0,1,,,,,,,,,,,,,,,,,,,,,,,,,,,,,,,,,,,,,,,
,,,,,,,,2023-08-16_08h49.41.509,HF_wild_card,2022.2.4,Win32,59.95563283,640095c783a33710a484adee,64d2fd46c836a06233681665,64dc7e9396ba187eefe1fcd8,,,,,,,decisionTrl,resources/DB.BMP,resources/DY.BMP,Door1,-0.247222194,0.057407414,1,0,0,2.8815,optionLeft,30,13745,6,29,0,29,0,1,,,,,,,,,,,,,,,,,,,,,,,,,,,,,,,,,,,,,,,
,,,,,,,,2023-08-16_08h49.41.509,HF_wild_card,2022.2.4,Win32,59.95563283,640095c783a33710a484adee,64d2fd46c836a06233681665,64dc7e9396ba187eefe1fcd8,,,,,,,decisionTrl,resources/DY.BMP,resources/DB.BMP,Door1,0.358333305,0.005555541,1,0,0,1.7861,optionRight,30,13775,6,30,0,30,0,1,,,,,,,,,,,,,,,,,,,,,,,,,,,,,,,,,,,,,,,
,,,,,,,,2023-08-16_08h49.41.509,HF_wild_card,2022.2.4,Win32,59.95563283,640095c783a33710a484adee,64d2fd46c836a06233681665,64dc7e9396ba187eefe1fcd8,,,,,,,decisionTrl,resources/DR.BMP,resources/DBN.BMP,Door4,0.439814815,0.008333312,1,0,0,1.7883,optionRight,60,13835,6,31,0,31,0,1,,,,,,,,,,,,,,,,,,,,,,,,,,,,,,,,,,,,,,,
,,,,,,,,2023-08-16_08h49.41.509,HF_wild_card,2022.2.4,Win32,59.95563283,640095c783a33710a484adee,64d2fd46c836a06233681665,64dc7e9396ba187eefe1fcd8,,,,,,,sngl,resources/Empty.png,resources/DY.BMP,Door2,0.373148176,-0.006481489,1,0,0,0.9401,optionRight,40,13875,6,32,0,32,0,1,,,,,,,,,,,,,,,,,,,,,,,,,,,,,,,,,,,,,,,
,,,,,,,,2023-08-16_08h49.41.509,HF_wild_card,2022.2.4,Win32,59.95563283,640095c783a33710a484adee,64d2fd46c836a06233681665,64dc7e9396ba187eefe1fcd8,,,,,,,ctch,resources/DBN.BMP,resources/DB.BMP,Door4,-0.201851809,0.050925926,1,0,0,1.2695,optionLeft,60,13935,6,33,0,33,0,1,,,,,,,,,,,,,,,,,,,,,,,,,,,,,,,,,,,,,,,
,,,,,,,,2023-08-16_08h49.41.509,HF_wild_card,2022.2.4,Win32,59.95563283,640095c783a33710a484adee,64d2fd46c836a06233681665,64dc7e9396ba187eefe1fcd8,,,,,,,sngl,resources/DR.BMP,resources/Empty.png,Door3,-0.22592594,0.073148127,1,0,0,1.4282,optionLeft,70,14005,6,34,0,34,0,1,,,,,,,,,,,,,,,,,,,,,,,,,,,,,,,,,,,,,,,
,,,,,,,,2023-08-16_08h49.41.509,HF_wild_card,2022.2.4,Win32,59.95563283,640095c783a33710a484adee,64d2fd46c836a06233681665,64dc7e9396ba187eefe1fcd8,,,,,,,decisionTrl,resources/DY.BMP,resources/DB.BMP,Door1,0.346296381,0.026851831,1,0,0,2.4697,optionRight,30,14035,6,35,0,35,0,1,,,,,,,,,,,,,,,,,,,,,,,,,,,,,,,,,,,,,,,
,,,,,,,,2023-08-16_08h49.41.509,HF_wild_card,2022.2.4,Win32,59.95563283,640095c783a33710a484adee,64d2fd46c836a06233681665,64dc7e9396ba187eefe1fcd8,,,,,,,decisionTrl,resources/DB.BMP,resources/DY.BMP,Door2,0.350926011,0.020370377,1,0,0,1.5865,optionRight,40,14075,6,36,0,36,0,1,,,,,,,,,,,,,,,,,,,,,,,,,,,,,,,,,,,,,,,
,,,,,,,,2023-08-16_08h49.41.509,HF_wild_card,2022.2.4,Win32,59.95563283,640095c783a33710a484adee,64d2fd46c836a06233681665,64dc7e9396ba187eefe1fcd8,,,,,,,decisionTrl,resources/DY.BMP,resources/DB.BMP,Door2,-0.202777792,0.080555563,1,0,0,1.6177,optionLeft,20,14095,6,37,0,37,0,1,,,,,,,,,,,,,,,,,,,,,,,,,,,,,,,,,,,,,,,
,,,,,,,,2023-08-16_08h49.41.509,HF_wild_card,2022.2.4,Win32,59.95563283,640095c783a33710a484adee,64d2fd46c836a06233681665,64dc7e9396ba187eefe1fcd8,,,,,,,decisionTrl,resources/DB.BMP,resources/DG.BMP,WildCard_Ex,0.376851824,0.059259238,1,0,0,1.3185,optionRight,55,14150,6,38,0,38,0,1,,,,,,,,,,,,,,,,,,,,,,,,,,,,,,,,,,,,,,,
,,,,,,,,2023-08-16_08h49.41.509,HF_wild_card,2022.2.4,Win32,59.95563283,640095c783a33710a484adee,64d2fd46c836a06233681665,64dc7e9396ba187eefe1fcd8,,,,,,,ctch,resources/DBN.BMP,resources/DB.BMP,Door4,-0.237962935,0.088888875,1,0,0,1.4408,optionLeft,80,14230,6,39,0,39,0,1,,,,,,,,,,,,,,,,,,,,,,,,,,,,,,,,,,,,,,,
,,,,,,,,2023-08-16_08h49.41.509,HF_wild_card,2022.2.4,Win32,59.95563283,640095c783a33710a484adee,64d2fd46c836a06233681665,64dc7e9396ba187eefe1fcd8,,,,,,,decisionTrl,resources/DR.BMP,resources/DBN.BMP,Door4,0.461111139,0.025000007,1,0,0,1.2787,optionRight,80,14310,6,40,0,40,0,1,,,,,,,,,,,,,,,,,,,,,,,,,,,,,,,,,,,,,,,
,,,,,,,,2023-08-16_08h49.41.509,HF_wild_card,2022.2.4,Win32,59.95563283,640095c783a33710a484adee,64d2fd46c836a06233681665,64dc7e9396ba187eefe1fcd8,,,,,,,decisionTrl,resources/DR.BMP,resources/DG.BMP,Door3,-0.246296282,0.114814794,1,0,0,1.9699,optionLeft,70,14380,6,41,0,41,0,1,,,,,,,,,,,,,,,,,,,,,,,,,,,,,,,,,,,,,,,
,,,,,,,,2023-08-16_08h49.41.509,HF_wild_card,2022.2.4,Win32,59.95563283,640095c783a33710a484adee,64d2fd46c836a06233681665,64dc7e9396ba187eefe1fcd8,,,,,,,decisionTrl,resources/DG.BMP,resources/DY.BMP,WildCard_Ex,-0.244444459,0.1324074,1,0,0,1.5351,optionLeft,45,14425,6,42,0,42,0,1,,,,,,,,,,,,,,,,,,,,,,,,,,,,,,,,,,,,,,,
,,,,,,,,2023-08-16_08h49.41.509,HF_wild_card,2022.2.4,Win32,59.95563283,640095c783a33710a484adee,64d2fd46c836a06233681665,64dc7e9396ba187eefe1fcd8,,,,,,,sngl,resources/Empty.png,resources/DG.BMP,WildCard_Ex,0.416666667,0.046296296,1,0,0,1.1312,optionRight,45,14470,6,43,0,43,0,1,,,,,,,,,,,,,,,,,,,,,,,,,,,,,,,,,,,,,,,
,,,,,,,,2023-08-16_08h49.41.509,HF_wild_card,2022.2.4,Win32,59.95563283,640095c783a33710a484adee,64d2fd46c836a06233681665,64dc7e9396ba187eefe1fcd8,,,,,,,,,,,,,,,,,,,,,,,,,,5,0,5,0,1,,,,,,,,,,,,,,,,,,,,,,,,,,,,,,,,,,
,,,,,,,,2023-08-16_08h49.41.509,HF_wild_card,2022.2.4,Win32,59.95563283,640095c783a33710a484adee,64d2fd46c836a06233681665,64dc7e9396ba187eefe1fcd8,,,,,,,decisionTrl,resources/DY.BMP,resources/DB.BMP,Door1,0.184259273,0.015740748,1,0,0,4.8264,optionRight,30,14500,7,0,0,0,0,1,,,,,,,,,,,,,,,,,,,,,,,,,,,,,,,,,,,,,,,
,,,,,,,,2023-08-16_08h49.41.509,HF_wild_card,2022.2.4,Win32,59.95563283,640095c783a33710a484adee,64d2fd46c836a06233681665,64dc7e9396ba187eefe1fcd8,,,,,,,ctch,resources/DB.BMP,resources/DBN.BMP,Door4,0.290740755,0.02407406,1,0,0,0.9964,optionRight,80,14580,7,1,0,1,0,1,,,,,,,,,,,,,,,,,,,,,,,,,,,,,,,,,,,,,,,
,,,,,,,,2023-08-16_08h49.41.509,HF_wild_card,2022.2.4,Win32,59.95563283,640095c783a33710a484adee,64d2fd46c836a06233681665,64dc7e9396ba187eefe1fcd8,,,,,,,ctch,resources/DY.BMP,resources/DR.BMP,Door3,0.288888931,0.023148148,1,0,0,1.2139,optionRight,70,14650,7,2,0,2,0,1,,,,,,,,,,,,,,,,,,,,,,,,,,,,,,,,,,,,,,,
,,,,,,,,2023-08-16_08h49.41.509,HF_wild_card,2022.2.4,Win32,59.95563283,640095c783a33710a484adee,64d2fd46c836a06233681665,64dc7e9396ba187eefe1fcd8,,,,,,,decisionTrl,resources/DBN.BMP,resources/DR.BMP,Door4,-0.250925912,0.063888868,1,0,0,1.3679,optionLeft,80,14730,7,3,0,3,0,1,,,,,,,,,,,,,,,,,,,,,,,,,,,,,,,,,,,,,,,
,,,,,,,,2023-08-16_08h49.41.509,HF_wild_card,2022.2.4,Win32,59.95563283,640095c783a33710a484adee,64d2fd46c836a06233681665,64dc7e9396ba187eefe1fcd8,,,,,,,decisionTrl,resources/DBN.BMP,resources/DR.BMP,Door4,-0.194444444,0.070370356,1,0,0,1.6703,optionLeft,80,14810,7,4,0,4,0,1,,,,,,,,,,,,,,,,,,,,,,,,,,,,,,,,,,,,,,,
,,,,,,,,2023-08-16_08h49.41.509,HF_wild_card,2022.2.4,Win32,59.95563283,640095c783a33710a484adee,64d2fd46c836a06233681665,64dc7e9396ba187eefe1fcd8,,,,,,,decisionTrl,resources/DB.BMP,resources/DY.BMP,Door1,-0.267592607,0.070370356,1,0,0,1.9558,optionLeft,30,14840,7,5,0,5,0,1,,,,,,,,,,,,,,,,,,,,,,,,,,,,,,,,,,,,,,,
,,,,,,,,2023-08-16_08h49.41.509,HF_wild_card,2022.2.4,Win32,59.95563283,640095c783a33710a484adee,64d2fd46c836a06233681665,64dc7e9396ba187eefe1fcd8,,,,,,,decisionTrl,resources/DR.BMP,resources/DBN.BMP,Door4,0.393518519,0.005555541,1,0,0,1.1744,optionRight,80,14920,7,6,0,6,0,1,,,,,,,,,,,,,,,,,,,,,,,,,,,,,,,,,,,,,,,
,,,,,,,,2023-08-16_08h49.41.509,HF_wild_card,2022.2.4,Win32,59.95563283,640095c783a33710a484adee,64d2fd46c836a06233681665,64dc7e9396ba187eefe1fcd8,,,,,,,decisionTrl,resources/DB.BMP,resources/DY.BMP,Door1,-0.255555541,0.049999979,1,0,0,2.0461,optionLeft,30,14950,7,7,0,7,0,1,,,,,,,,,,,,,,,,,,,,,,,,,,,,,,,,,,,,,,,
,,,,,,,,2023-08-16_08h49.41.509,HF_wild_card,2022.2.4,Win32,59.95563283,640095c783a33710a484adee,64d2fd46c836a06233681665,64dc7e9396ba187eefe1fcd8,,,,,,,decisionTrl,resources/DR.BMP,resources/DBN.BMP,Door4,0.40833339,0.011111118,1,0,0,1.1121,optionRight,60,15010,7,8,0,8,0,1,,,,,,,,,,,,,,,,,,,,,,,,,,,,,,,,,,,,,,,
,,,,,,,,2023-08-16_08h49.41.509,HF_wild_card,2022.2.4,Win32,59.95563283,640095c783a33710a484adee,64d2fd46c836a06233681665,64dc7e9396ba187eefe1fcd8,,,,,,,decisionTrl,resources/DBN.BMP,resources/DR.BMP,Door4,-0.187037009,0.062037044,1,0,0,1.2033,optionLeft,80,15090,7,9,0,9,0,1,,,,,,,,,,,,,,,,,,,,,,,,,,,,,,,,,,,,,,,
,,,,,,,,2023-08-16_08h49.41.509,HF_wild_card,2022.2.4,Win32,59.95563283,640095c783a33710a484adee,64d2fd46c836a06233681665,64dc7e9396ba187eefe1fcd8,,,,,,,decisionTrl,resources/DB.BMP,resources/DY.BMP,Door1,-0.174074032,0.052777785,1,0,0,1.5368,optionLeft,30,15120,7,10,0,10,0,1,,,,,,,,,,,,,,,,,,,,,,,,,,,,,,,,,,,,,,,
,,,,,,,,2023-08-16_08h49.41.509,HF_wild_card,2022.2.4,Win32,59.95563283,640095c783a33710a484adee,64d2fd46c836a06233681665,64dc7e9396ba187eefe1fcd8,,,,,,,ctch,resources/DR.BMP,resources/DY.BMP,Door3,-0.266666624,0.071296303,1,0,0,1.1014,optionLeft,70,15190,7,11,0,11,0,1,,,,,,,,,,,,,,,,,,,,,,,,,,,,,,,,,,,,,,,
,,,,,,,,2023-08-16_08h49.41.509,HF_wild_card,2022.2.4,Win32,59.95563283,640095c783a33710a484adee,64d2fd46c836a06233681665,64dc7e9396ba187eefe1fcd8,,,,,,,ctch,resources/DB.BMP,resources/DBN.BMP,Door4,0.450000057,-0.0074074,1,0,0,1.0856,optionRight,80,15270,7,12,0,12,0,1,,,,,,,,,,,,,,,,,,,,,,,,,,,,,,,,,,,,,,,
,,,,,,,,2023-08-16_08h49.41.509,HF_wild_card,2022.2.4,Win32,59.95563283,640095c783a33710a484adee,64d2fd46c836a06233681665,64dc7e9396ba187eefe1fcd8,,,,,,,decisionTrl,resources/DY.BMP,resources/DB.BMP,Door1,0.367592564,-0.011111118,1,0,0,1.4868,optionRight,30,15300,7,13,0,13,0,1,,,,,,,,,,,,,,,,,,,,,,,,,,,,,,,,,,,,,,,
,,,,,,,,2023-08-16_08h49.41.509,HF_wild_card,2022.2.4,Win32,59.95563283,640095c783a33710a484adee,64d2fd46c836a06233681665,64dc7e9396ba187eefe1fcd8,,,,,,,decisionTrl,resources/DB.BMP,resources/DY.BMP,Door2,0.337962963,0,1,0,0,1.2025,optionRight,20,15320,7,14,0,14,0,1,,,,,,,,,,,,,,,,,,,,,,,,,,,,,,,,,,,,,,,
,,,,,,,,2023-08-16_08h49.41.509,HF_wild_card,2022.2.4,Win32,59.95563283,640095c783a33710a484adee,64d2fd46c836a06233681665,64dc7e9396ba187eefe1fcd8,,,,,,,decisionTrl,resources/DY.BMP,resources/DB.BMP,Door1,0.260185171,0,1,0,0,1.52,optionRight,30,15350,7,15,0,15,0,1,,,,,,,,,,,,,,,,,,,,,,,,,,,,,,,,,,,,,,,
,,,,,,,,2023-08-16_08h49.41.509,HF_wild_card,2022.2.4,Win32,59.95563283,640095c783a33710a484adee,64d2fd46c836a06233681665,64dc7e9396ba187eefe1fcd8,,,,,,,ctch,resources/DR.BMP,resources/DY.BMP,Door3,-0.238888847,0.034259266,1,0,0,1.1855,optionLeft,70,15420,7,16,0,16,0,1,,,,,,,,,,,,,,,,,,,,,,,,,,,,,,,,,,,,,,,
,,,,,,,,2023-08-16_08h49.41.509,HF_wild_card,2022.2.4,Win32,59.95563283,640095c783a33710a484adee,64d2fd46c836a06233681665,64dc7e9396ba187eefe1fcd8,,,,,,,decisionTrl,resources/DR.BMP,resources/DBN.BMP,Door4,0.378703788,-0.009259259,1,0,0,1.0023,optionRight,80,15500,7,17,0,17,0,1,,,,,,,,,,,,,,,,,,,,,,,,,,,,,,,,,,,,,,,
,,,,,,,,2023-08-16_08h49.41.509,HF_wild_card,2022.2.4,Win32,59.95563283,640095c783a33710a484adee,64d2fd46c836a06233681665,64dc7e9396ba187eefe1fcd8,,,,,,,decisionTrl,resources/DBN.BMP,resources/DR.BMP,Door4,-0.222222222,0.049074067,1,0,0,1.2761,optionLeft,60,15560,7,18,0,18,0,1,,,,,,,,,,,,,,,,,,,,,,,,,,,,,,,,,,,,,,,
,,,,,,,,2023-08-16_08h49.41.509,HF_wild_card,2022.2.4,Win32,59.95563283,640095c783a33710a484adee,64d2fd46c836a06233681665,64dc7e9396ba187eefe1fcd8,,,,,,,decisionTrl,resources/DY.BMP,resources/DB.BMP,Door1,0.410185213,0.003703683,1,0,0,2.4406,optionRight,30,15590,7,19,0,19,0,1,,,,,,,,,,,,,,,,,,,,,,,,,,,,,,,,,,,,,,,
,,,,,,,,2023-08-16_08h49.41.509,HF_wild_card,2022.2.4,Win32,59.95563283,640095c783a33710a484adee,64d2fd46c836a06233681665,64dc7e9396ba187eefe1fcd8,,,,,,,decisionTrl,resources/DB.BMP,resources/DY.BMP,Door2,0.444444444,0.011111118,1,0,0,1.4187,optionRight,40,15630,7,20,0,20,0,1,,,,,,,,,,,,,,,,,,,,,,,,,,,,,,,,,,,,,,,
,,,,,,,,2023-08-16_08h49.41.509,HF_wild_card,2022.2.4,Win32,59.95563283,640095c783a33710a484adee,64d2fd46c836a06233681665,64dc7e9396ba187eefe1fcd8,,,,,,,decisionTrl,resources/DR.BMP,resources/DBN.BMP,Door4,0.339814787,-0.010185206,1,0,0,1.202,optionRight,60,15690,7,21,0,21,0,1,,,,,,,,,,,,,,,,,,,,,,,,,,,,,,,,,,,,,,,
,,,,,,,,2023-08-16_08h49.41.509,HF_wild_card,2022.2.4,Win32,59.95563283,640095c783a33710a484adee,64d2fd46c836a06233681665,64dc7e9396ba187eefe1fcd8,,,,,,,ctch,resources/DR.BMP,resources/DY.BMP,Door3,-0.276851866,0.110185164,1,0,0,1.1182,optionLeft,70,15760,7,22,0,22,0,1,,,,,,,,,,,,,,,,,,,,,,,,,,,,,,,,,,,,,,,
,,,,,,,,2023-08-16_08h49.41.509,HF_wild_card,2022.2.4,Win32,59.95563283,640095c783a33710a484adee,64d2fd46c836a06233681665,64dc7e9396ba187eefe1fcd8,,,,,,,decisionTrl,resources/DY.BMP,resources/DB.BMP,Door1,0.335185157,0.02870369,1,0,0,2.3061,optionRight,30,15790,7,23,0,23,0,1,,,,,,,,,,,,,,,,,,,,,,,,,,,,,,,,,,,,,,,
,,,,,,,,2023-08-16_08h49.41.509,HF_wild_card,2022.2.4,Win32,59.95563283,640095c783a33710a484adee,64d2fd46c836a06233681665,64dc7e9396ba187eefe1fcd8,,,,,,,decisionTrl,resources/DB.BMP,resources/DY.BMP,Door2,0.376851824,0.0074074,1,0,0,1.3771,optionRight,20,15810,7,24,0,24,0,1,,,,,,,,,,,,,,,,,,,,,,,,,,,,,,,,,,,,,,,
,,,,,,,,2023-08-16_08h49.41.509,HF_wild_card,2022.2.4,Win32,59.95563283,640095c783a33710a484adee,64d2fd46c836a06233681665,64dc7e9396ba187eefe1fcd8,,,,,,,ctch,resources/DY.BMP,resources/DR.BMP,Door3,0.374074159,0.025000007,1,0,0,1.2595,optionRight,70,15880,7,25,0,25,0,1,,,,,,,,,,,,,,,,,,,,,,,,,,,,,,,,,,,,,,,
,,,,,,,,2023-08-16_08h49.41.509,HF_wild_card,2022.2.4,Win32,59.95563283,640095c783a33710a484adee,64d2fd46c836a06233681665,64dc7e9396ba187eefe1fcd8,,,,,,,decisionTrl,resources/DBN.BMP,resources/DR.BMP,Door4,-0.158333319,0.090740734,1,0,0,2.6068,optionLeft,60,15940,7,26,0,26,0,1,,,,,,,,,,,,,,,,,,,,,,,,,,,,,,,,,,,,,,,
,,,,,,,,2023-08-16_08h49.41.509,HF_wild_card,2022.2.4,Win32,59.95563283,640095c783a33710a484adee,64d2fd46c836a06233681665,64dc7e9396ba187eefe1fcd8,,,,,,,decisionTrl,resources/DR.BMP,resources/DBN.BMP,Door4,0.387963048,0.037962949,1,0,0,0.9849,optionRight,60,16000,7,27,0,27,0,1,,,,,,,,,,,,,,,,,,,,,,,,,,,,,,,,,,,,,,,
,,,,,,,,2023-08-16_08h49.41.509,HF_wild_card,2022.2.4,Win32,59.95563283,640095c783a33710a484adee,64d2fd46c836a06233681665,64dc7e9396ba187eefe1fcd8,,,,,,,ctch,resources/DY.BMP,resources/DR.BMP,Door3,0.40833339,0.026851831,1,0,0,1.1519,optionRight,70,16070,7,28,0,28,0,1,,,,,,,,,,,,,,,,,,,,,,,,,,,,,,,,,,,,,,,
,,,,,,,,2023-08-16_08h49.41.509,HF_wild_card,2022.2.4,Win32,59.95563283,640095c783a33710a484adee,64d2fd46c836a06233681665,64dc7e9396ba187eefe1fcd8,,,,,,,ctch,resources/DBN.BMP,resources/DB.BMP,Door4,-0.214814787,0.067592586,1,0,0,1.1957,optionLeft,60,16130,7,29,0,29,0,1,,,,,,,,,,,,,,,,,,,,,,,,,,,,,,,,,,,,,,,
,,,,,,,,2023-08-16_08h49.41.509,HF_wild_card,2022.2.4,Win32,59.95563283,640095c783a33710a484adee,64d2fd46c836a06233681665,64dc7e9396ba187eefe1fcd8,,,,,,,ctch,resources/DBN.BMP,resources/DB.BMP,Door4,-0.193518533,0.082407386,1,0,0,1.1525,optionLeft,80,16210,7,30,0,30,0,1,,,,,,,,,,,,,,,,,,,,,,,,,,,,,,,,,,,,,,,
,,,,,,,,2023-08-16_08h49.41.509,HF_wild_card,2022.2.4,Win32,59.95563283,640095c783a33710a484adee,64d2fd46c836a06233681665,64dc7e9396ba187eefe1fcd8,,,,,,,decisionTrl,resources/DY.BMP,resources/DB.BMP,Door1,0.476851852,0.023148148,1,0,0,1.8312,optionRight,30,16240,7,31,0,31,0,1,,,,,,,,,,,,,,,,,,,,,,,,,,,,,,,,,,,,,,,
,,,,,,,,2023-08-16_08h49.41.509,HF_wild_card,2022.2.4,Win32,59.95563283,640095c783a33710a484adee,64d2fd46c836a06233681665,64dc7e9396ba187eefe1fcd8,,,,,,,decisionTrl,resources/DBN.BMP,resources/DR.BMP,Door4,-0.189814815,0.059259238,1,0,0,1.48,optionLeft,80,16320,7,32,0,32,0,1,,,,,,,,,,,,,,,,,,,,,,,,,,,,,,,,,,,,,,,
,,,,,,,,2023-08-16_08h49.41.509,HF_wild_card,2022.2.4,Win32,59.95563283,640095c783a33710a484adee,64d2fd46c836a06233681665,64dc7e9396ba187eefe1fcd8,,,,,,,ctch,resources/DB.BMP,resources/DBN.BMP,Door4,0.397222307,0.038888896,1,0,0,1.1018,optionRight,60,16380,7,33,0,33,0,1,,,,,,,,,,,,,,,,,,,,,,,,,,,,,,,,,,,,,,,
,,,,,,,,2023-08-16_08h49.41.509,HF_wild_card,2022.2.4,Win32,59.95563283,640095c783a33710a484adee,64d2fd46c836a06233681665,64dc7e9396ba187eefe1fcd8,,,,,,,decisionTrl,resources/DR.BMP,resources/DBN.BMP,Door4,0.192592621,0.030555548,1,0,0,1.5199,optionRight,80,16460,7,34,0,34,0,1,,,,,,,,,,,,,,,,,,,,,,,,,,,,,,,,,,,,,,,
,,,,,,,,2023-08-16_08h49.41.509,HF_wild_card,2022.2.4,Win32,59.95563283,640095c783a33710a484adee,64d2fd46c836a06233681665,64dc7e9396ba187eefe1fcd8,,,,,,,ctch,resources/DBN.BMP,resources/DB.BMP,Door4,-0.299074067,0.090740734,1,0,0,1.1447,optionLeft,60,16520,7,35,0,35,0,1,,,,,,,,,,,,,,,,,,,,,,,,,,,,,,,,,,,,,,,
,,,,,,,,2023-08-16_08h49.41.509,HF_wild_card,2022.2.4,Win32,59.95563283,640095c783a33710a484adee,64d2fd46c836a06233681665,64dc7e9396ba187eefe1fcd8,,,,,,,,,,,,,,,,,,,,,,,,,,6,0,6,0,1,,,,,,,,,,,,,,,,,,,,,,,,,,,,,,,,,,
,,,,,,,,2023-08-16_08h49.41.509,HF_wild_card,2022.2.4,Win32,59.95563283,640095c783a33710a484adee,64d2fd46c836a06233681665,64dc7e9396ba187eefe1fcd8,,,,,,,,,,,,,,,,,,,,,,,,,,,,,,,4,,,,,,,,,,,,,,,,,,,,,,,,,,,,,,,,,
,,,,,,,,2023-08-16_08h49.41.509,HF_wild_card,2022.2.4,Win32,59.95563283,640095c783a33710a484adee,64d2fd46c836a06233681665,64dc7e9396ba187eefe1fcd8,,,,,,,,,,,,,,,,,,,,,,,,,,,,,,,,,,,,,,,,,,,,,,,,,,,,,,,,,,,,,,,,
,,,,,,,,2023-08-16_08h49.41.509,HF_wild_card,2022.2.4,Win32,59.95563283,640095c783a33710a484adee,64d2fd46c836a06233681665,64dc7e9396ba187eefe1fcd8,,,,,,,,,,,,,,,,,,,,,,,,,,,,,,,,70,Door3,resources/DR.BMP,0,0,0,0,1,,,,,,,,,,,,,,,,,,,,,,,,,
,,,,,,,,2023-08-16_08h49.41.509,HF_wild_card,2022.2.4,Win32,59.95563283,640095c783a33710a484adee,64d2fd46c836a06233681665,64dc7e9396ba187eefe1fcd8,,,,,,,,,,,,,,,,,,,,,,,,,,,,,,,,30,Door1,resources/DB.BMP,1,0,1,0,1,,,,,,,,,,,,,,,,,,,,,,,,,
,,,,,,,,2023-08-16_08h49.41.509,HF_wild_card,2022.2.4,Win32,59.95563283,640095c783a33710a484adee,64d2fd46c836a06233681665,64dc7e9396ba187eefe1fcd8,,,,,,,,,,,,,,,,,,,,,,,,,,,,,,,,55,WC_extreme,resources/DG.BMP,2,0,2,0,1,,,,,,,,,,,,,,,,,,,,,,,,,
,,,,,,,,2023-08-16_08h49.41.509,HF_wild_card,2022.2.4,Win32,59.95563283,640095c783a33710a484adee,64d2fd46c836a06233681665,64dc7e9396ba187eefe1fcd8,,,,,,,,,,,,,,,,,,,,,,,,,,,,,,,,80,Door4,resources/DBN.BMP,3,0,3,0,1,,,,,,,,,,,,,,,,,,,,,,,,,
,,,,,,,,2023-08-16_08h49.41.509,HF_wild_card,2022.2.4,Win32,59.95563283,640095c783a33710a484adee,64d2fd46c836a06233681665,64dc7e9396ba187eefe1fcd8,,,,,,,,,,,,,,,,,,,,,,,,,,,,,,,,40,WC_nonExtreme,resources/DP.BMP,4,0,4,0,1,,,,,,,,,,,,,,,,,,,,,,,,,
,,,,,,,,2023-08-16_08h49.41.509,HF_wild_card,2022.2.4,Win32,59.95563283,640095c783a33710a484adee,64d2fd46c836a06233681665,64dc7e9396ba187eefe1fcd8,,,,,,,,,,,,,,,,,,,,,,,,,,,,,,,,20,Door2,resources/DY.BMP,5,0,5,0,1,,,,,,,,,,,,,,,,,,,,,,,,,
,,,,,,,,2023-08-16_08h49.41.509,HF_wild_card,2022.2.4,Win32,59.95563283,640095c783a33710a484adee,64d2fd46c836a06233681665,64dc7e9396ba187eefe1fcd8,,,,,,,,,,,,,,,,,,,,,,,,,,,,,,,,,,,,,,,,,,,,,,,,,,,,,,,,,,,,,,,,
,,,,,,,,2023-08-16_08h49.41.509,HF_wild_card,2022.2.4,Win32,59.95563283,640095c783a33710a484adee,64d2fd46c836a06233681665,64dc7e9396ba187eefe1fcd8,,,,,,,,,,,,,,,,,,,,,,,,,,,,,,,,,,,,,,,,0,0,0,0,1,,,,,,,,,,,,,,,,,,,,
