Condition,Low fixed image (Door1),Low risky image (Door2),High fixed image (Door3),High risky image (Door4),Extreme Wild Card,NonExtreme Wild Card,,date,expName,psychopyVersion,OS,frameRate,PROLIFIC_PID,STUDY_ID,SESSION_ID,mouse_2.x,mouse_2.y,mouse_2.leftButton,mouse_2.midButton,mouse_2.rightButton,mouse_2.clicked_name,Trial Type,Left Option Image,Right Option Image,Chosen Door,mouse.x,mouse.y,mouse.leftButton,mouse.midButton,mouse.rightButton,mouse.time,mouse.clicked_name,Feedback,Cumulative Reward,Block,trial.thisRepN,trial.thisTrialN,trial.thisN,trial.thisIndex,trial.ran,blocks.thisRepN,blocks.thisTrialN,blocks.thisN,blocks.thisIndex,blocks.ran,Money conversion,First Outcome Reported,Shown Door (First Outcome),Displayed Image (First Outcome),outcomes.thisRepN,outcomes.thisTrialN,outcomes.thisN,outcomes.thisIndex,outcomes.ran,judgments.thisRepN,judgments.thisTrialN,judgments.thisN,judgments.thisIndex,judgments.ran,freqMouse.x,freqMouse.y,freqMouse.leftButton,freqMouse.midButton,freqMouse.rightButton,freqMouse.clicked_name,FQJ for first outcome,FQJ for second outcome,Shown Door,Displayed Image,trials.thisRepN,trials.thisTrialN,trials.thisN,trials.thisIndex,trials.ran,judgBlock.thisRepN,judgBlock.thisTrialN,judgBlock.thisN,judgBlock.thisIndex,judgBlock.ran
0,resources/DP.BMP,resources/DR.BMP,resources/DG.BMP,resources/DB.BMP,resources/DY.BMP,resources/DBN.BMP,,2023-08-16_08h38.06.053,HF_wild_card,2022.2.4,Win32,59.71218726,6082aa29c655ceb5b313bc03,64d2fd46c836a06233681665,64dc7cb8c3e124618b4411c8,,,,,,,,,,,,,,,,,,,,,,,,,,,,,,,,,,,,,,,,,,,,,,,,,,,,,,,,,,,,,,,,
,,,,,,,,2023-08-16_08h38.06.053,HF_wild_card,2022.2.4,Win32,59.71218726,6082aa29c655ceb5b313bc03,64d2fd46c836a06233681665,64dc7cb8c3e124618b4411c8,-0.001851824,-0.423148191,1,0,0,agree,,,,,,,,,,,,,,,,,,,,,,,,,,,,,,,,,,,,,,,,,,,,,,,,,,,,,,,,,,
,,,,,,,,2023-08-16_08h38.06.053,HF_wild_card,2022.2.4,Win32,59.71218726,6082aa29c655ceb5b313bc03,64d2fd46c836a06233681665,64dc7cb8c3e124618b4411c8,,,,,,,,,,,,,,,,,,,,,,,,,,,,,,,,,,,,,,,,,,,,,,,,,,,,,,,,,,,,,,,,
,,,,,,,,2023-08-16_08h38.06.053,HF_wild_card,2022.2.4,Win32,59.71218726,6082aa29c655ceb5b313bc03,64d2fd46c836a06233681665,64dc7cb8c3e124618b4411c8,,,,,,,ctch,resources/DR.BMP,resources/DG.BMP,Door3,0.342592593,0.089814822,1,0,0,5.0921,optionRight,70,70,1,0,0,0,0,1,,,,,,,,,,,,,,,,,,,,,,,,,,,,,,,,,,,,,,,
,,,,,,,,2023-08-16_08h38.06.053,HF_wild_card,2022.2.4,Win32,59.71218726,6082aa29c655ceb5b313bc03,64d2fd46c836a06233681665,64dc7cb8c3e124618b4411c8,,,,,,,ctch,resources/DG.BMP,resources/DR.BMP,Door3,-0.14907406,-0.023148148,1,0,0,1.513,optionLeft,70,140,1,1,0,1,0,1,,,,,,,,,,,,,,,,,,,,,,,,,,,,,,,,,,,,,,,
,,,,,,,,2023-08-16_08h38.06.053,HF_wild_card,2022.2.4,Win32,59.71218726,6082aa29c655ceb5b313bc03,64d2fd46c836a06233681665,64dc7cb8c3e124618b4411c8,,,,,,,decisionTrl,resources/DP.BMP,resources/DR.BMP,Door2,0.29814812,-0.018518519,1,0,0,2.0302,optionRight,40,180,1,2,0,2,0,1,,,,,,,,,,,,,,,,,,,,,,,,,,,,,,,,,,,,,,,
,,,,,,,,2023-08-16_08h38.06.053,HF_wild_card,2022.2.4,Win32,59.71218726,6082aa29c655ceb5b313bc03,64d2fd46c836a06233681665,64dc7cb8c3e124618b4411c8,,,,,,,ctch,resources/DB.BMP,resources/DP.BMP,Door4,-0.345370363,0.030555548,1,0,0,1.8802,optionLeft,80,260,1,3,0,3,0,1,,,,,,,,,,,,,,,,,,,,,,,,,,,,,,,,,,,,,,,
,,,,,,,,2023-08-16_08h38.06.053,HF_wild_card,2022.2.4,Win32,59.71218726,6082aa29c655ceb5b313bc03,64d2fd46c836a06233681665,64dc7cb8c3e124618b4411c8,,,,,,,decisionTrl,resources/DB.BMP,resources/DY.BMP,WildCard_Ex,0.291666667,0.057407414,1,0,0,1.7803,optionRight,95,355,1,4,0,4,0,1,,,,,,,,,,,,,,,,,,,,,,,,,,,,,,,,,,,,,,,
,,,,,,,,2023-08-16_08h38.06.053,HF_wild_card,2022.2.4,Win32,59.71218726,6082aa29c655ceb5b313bc03,64d2fd46c836a06233681665,64dc7cb8c3e124618b4411c8,,,,,,,decisionTrl,resources/DP.BMP,resources/DR.BMP,Door1,-0.308333326,-0.009259259,1,0,0,1.9136,optionLeft,30,385,1,5,0,5,0,1,,,,,,,,,,,,,,,,,,,,,,,,,,,,,,,,,,,,,,,
,,,,,,,,2023-08-16_08h38.06.053,HF_wild_card,2022.2.4,Win32,59.71218726,6082aa29c655ceb5b313bc03,64d2fd46c836a06233681665,64dc7cb8c3e124618b4411c8,,,,,,,decisionTrl,resources/DG.BMP,resources/DB.BMP,Door4,0.262037065,0.054629608,1,0,0,2.2299,optionRight,60,445,1,6,0,6,0,1,,,,,,,,,,,,,,,,,,,,,,,,,,,,,,,,,,,,,,,
,,,,,,,,2023-08-16_08h38.06.053,HF_wild_card,2022.2.4,Win32,59.71218726,6082aa29c655ceb5b313bc03,64d2fd46c836a06233681665,64dc7cb8c3e124618b4411c8,,,,,,,decisionTrl,resources/DY.BMP,resources/DB.BMP,WildCard_Ex,-0.246296282,-0.017592607,1,0,0,1.8132,optionLeft,5,450,1,7,0,7,0,1,,,,,,,,,,,,,,,,,,,,,,,,,,,,,,,,,,,,,,,
,,,,,,,,2023-08-16_08h38.06.053,HF_wild_card,2022.2.4,Win32,59.71218726,6082aa29c655ceb5b313bc03,64d2fd46c836a06233681665,64dc7cb8c3e124618b4411c8,,,,,,,ctch,resources/DG.BMP,resources/DR.BMP,Door3,-0.299999979,-0.019444466,1,0,0,1.7968,optionLeft,70,520,1,8,0,8,0,1,,,,,,,,,,,,,,,,,,,,,,,,,,,,,,,,,,,,,,,
,,,,,,,,2023-08-16_08h38.06.053,HF_wild_card,2022.2.4,Win32,59.71218726,6082aa29c655ceb5b313bc03,64d2fd46c836a06233681665,64dc7cb8c3e124618b4411c8,,,,,,,decisionTrl,resources/DB.BMP,resources/DG.BMP,Door4,-0.25462963,-0.065740762,1,0,0,1.3969,optionLeft,60,580,1,9,0,9,0,1,,,,,,,,,,,,,,,,,,,,,,,,,,,,,,,,,,,,,,,
,,,,,,,,2023-08-16_08h38.06.053,HF_wild_card,2022.2.4,Win32,59.71218726,6082aa29c655ceb5b313bc03,64d2fd46c836a06233681665,64dc7cb8c3e124618b4411c8,,,,,,,sngl,resources/Empty.png,resources/DG.BMP,Door3,0.237037023,0.029629637,1,0,0,2.3471,optionRight,70,650,1,10,0,10,0,1,,,,,,,,,,,,,,,,,,,,,,,,,,,,,,,,,,,,,,,
,,,,,,,,2023-08-16_08h38.06.053,HF_wild_card,2022.2.4,Win32,59.71218726,6082aa29c655ceb5b313bc03,64d2fd46c836a06233681665,64dc7cb8c3e124618b4411c8,,,,,,,decisionTrl,resources/DB.BMP,resources/DG.BMP,Door4,-0.248148106,-0.012962977,1,0,0,2.2967,optionLeft,80,730,1,11,0,11,0,1,,,,,,,,,,,,,,,,,,,,,,,,,,,,,,,,,,,,,,,
,,,,,,,,2023-08-16_08h38.06.053,HF_wild_card,2022.2.4,Win32,59.71218726,6082aa29c655ceb5b313bc03,64d2fd46c836a06233681665,64dc7cb8c3e124618b4411c8,,,,,,,sngl,resources/DY.BMP,resources/Empty.png,WildCard_Ex,0.300925926,0.01944443,1,0,0,1.2477,optionLeft,95,825,1,12,0,12,0,1,,,,,,,,,,,,,,,,,,,,,,,,,,,,,,,,,,,,,,,
,,,,,,,,2023-08-16_08h38.06.053,HF_wild_card,2022.2.4,Win32,59.71218726,6082aa29c655ceb5b313bc03,64d2fd46c836a06233681665,64dc7cb8c3e124618b4411c8,,,,,,,ctch,resources/DP.BMP,resources/DB.BMP,Door4,0.185185185,0.114814794,1,0,0,3.2804,optionRight,80,905,1,13,0,13,0,1,,,,,,,,,,,,,,,,,,,,,,,,,,,,,,,,,,,,,,,
,,,,,,,,2023-08-16_08h38.06.053,HF_wild_card,2022.2.4,Win32,59.71218726,6082aa29c655ceb5b313bc03,64d2fd46c836a06233681665,64dc7cb8c3e124618b4411c8,,,,,,,sngl,resources/Empty.png,resources/DY.BMP,WildCard_Ex,0.353703675,0.037962949,1,0,0,1.7639,optionRight,95,1000,1,14,0,14,0,1,,,,,,,,,,,,,,,,,,,,,,,,,,,,,,,,,,,,,,,
,,,,,,,,2023-08-16_08h38.06.053,HF_wild_card,2022.2.4,Win32,59.71218726,6082aa29c655ceb5b313bc03,64d2fd46c836a06233681665,64dc7cb8c3e124618b4411c8,,,,,,,ctch,resources/DR.BMP,resources/DG.BMP,Door2,-0.337962963,0.053703697,1,0,0,3.5302,optionLeft,40,1040,1,15,0,15,0,1,,,,,,,,,,,,,,,,,,,,,,,,,,,,,,,,,,,,,,,
,,,,,,,,2023-08-16_08h38.06.053,HF_wild_card,2022.2.4,Win32,59.71218726,6082aa29c655ceb5b313bc03,64d2fd46c836a06233681665,64dc7cb8c3e124618b4411c8,,,,,,,decisionTrl,resources/DR.BMP,resources/DP.BMP,Door1,0.336111139,-0.009259259,1,0,0,1.9298,optionRight,30,1070,1,16,0,16,0,1,,,,,,,,,,,,,,,,,,,,,,,,,,,,,,,,,,,,,,,
,,,,,,,,2023-08-16_08h38.06.053,HF_wild_card,2022.2.4,Win32,59.71218726,6082aa29c655ceb5b313bc03,64d2fd46c836a06233681665,64dc7cb8c3e124618b4411c8,,,,,,,decisionTrl,resources/DG.BMP,resources/DB.BMP,Door4,0.337962963,-0.002777771,1,0,0,0.8655,optionRight,80,1150,1,17,0,17,0,1,,,,,,,,,,,,,,,,,,,,,,,,,,,,,,,,,,,,,,,
,,,,,,,,2023-08-16_08h38.06.053,HF_wild_card,2022.2.4,Win32,59.71218726,6082aa29c655ceb5b313bc03,64d2fd46c836a06233681665,64dc7cb8c3e124618b4411c8,,,,,,,decisionTrl,resources/DR.BMP,resources/DY.BMP,WildCard_Ex,0.288888931,0.034259266,1,0,0,2.1808,optionRight,95,1245,1,18,0,18,0,1,,,,,,,,,,,,,,,,,,,,,,,,,,,,,,,,,,,,,,,
,,,,,,,,2023-08-16_08h38.06.053,HF_wild_card,2022.2.4,Win32,59.71218726,6082aa29c655ceb5b313bc03,64d2fd46c836a06233681665,64dc7cb8c3e124618b4411c8,,,,,,,sngl,resources/DG.BMP,resources/Empty.png,Door3,-0.223148134,0.03611109,1,0,0,2.0856,optionLeft,70,1315,1,19,0,19,0,1,,,,,,,,,,,,,,,,,,,,,,,,,,,,,,,,,,,,,,,
,,,,,,,,2023-08-16_08h38.06.053,HF_wild_card,2022.2.4,Win32,59.71218726,6082aa29c655ceb5b313bc03,64d2fd46c836a06233681665,64dc7cb8c3e124618b4411c8,,,,,,,decisionTrl,resources/DP.BMP,resources/DY.BMP,WildCard_Ex,0.162037037,0.1324074,1,0,0,2.8759,optionRight,5,1320,1,20,0,20,0,1,,,,,,,,,,,,,,,,,,,,,,,,,,,,,,,,,,,,,,,
,,,,,,,,2023-08-16_08h38.06.053,HF_wild_card,2022.2.4,Win32,59.71218726,6082aa29c655ceb5b313bc03,64d2fd46c836a06233681665,64dc7cb8c3e124618b4411c8,,,,,,,decisionTrl,resources/DY.BMP,resources/DP.BMP,Door1,0.307407379,0.059259238,1,0,0,0.8935,optionRight,30,1350,1,21,0,21,0,1,,,,,,,,,,,,,,,,,,,,,,,,,,,,,,,,,,,,,,,
,,,,,,,,2023-08-16_08h38.06.053,HF_wild_card,2022.2.4,Win32,59.71218726,6082aa29c655ceb5b313bc03,64d2fd46c836a06233681665,64dc7cb8c3e124618b4411c8,,,,,,,sngl,resources/Empty.png,resources/DR.BMP,Door2,0.263888889,0.044444437,1,0,0,0.9131,optionRight,20,1370,1,22,0,22,0,1,,,,,,,,,,,,,,,,,,,,,,,,,,,,,,,,,,,,,,,
,,,,,,,,2023-08-16_08h38.06.053,HF_wild_card,2022.2.4,Win32,59.71218726,6082aa29c655ceb5b313bc03,64d2fd46c836a06233681665,64dc7cb8c3e124618b4411c8,,,,,,,decisionTrl,resources/DP.BMP,resources/DR.BMP,Door1,-0.400000007,0.018518519,1,0,0,0.8143,optionLeft,30,1400,1,23,0,23,0,1,,,,,,,,,,,,,,,,,,,,,,,,,,,,,,,,,,,,,,,
,,,,,,,,2023-08-16_08h38.06.053,HF_wild_card,2022.2.4,Win32,59.71218726,6082aa29c655ceb5b313bc03,64d2fd46c836a06233681665,64dc7cb8c3e124618b4411c8,,,,,,,sngl,resources/Empty.png,resources/DB.BMP,Door4,0.303703732,0.032407407,1,0,0,0.6802,optionRight,60,1460,1,24,0,24,0,1,,,,,,,,,,,,,,,,,,,,,,,,,,,,,,,,,,,,,,,
,,,,,,,,2023-08-16_08h38.06.053,HF_wild_card,2022.2.4,Win32,59.71218726,6082aa29c655ceb5b313bc03,64d2fd46c836a06233681665,64dc7cb8c3e124618b4411c8,,,,,,,decisionTrl,resources/DB.BMP,resources/DG.BMP,Door4,-0.188888903,0.001851859,1,0,0,1.5472,optionLeft,80,1540,1,25,0,25,0,1,,,,,,,,,,,,,,,,,,,,,,,,,,,,,,,,,,,,,,,
,,,,,,,,2023-08-16_08h38.06.053,HF_wild_card,2022.2.4,Win32,59.71218726,6082aa29c655ceb5b313bc03,64d2fd46c836a06233681665,64dc7cb8c3e124618b4411c8,,,,,,,decisionTrl,resources/DG.BMP,resources/DB.BMP,Door4,0.238888917,0.055555556,1,0,0,1.5973,optionRight,60,1600,1,26,0,26,0,1,,,,,,,,,,,,,,,,,,,,,,,,,,,,,,,,,,,,,,,
,,,,,,,,2023-08-16_08h38.06.053,HF_wild_card,2022.2.4,Win32,59.71218726,6082aa29c655ceb5b313bc03,64d2fd46c836a06233681665,64dc7cb8c3e124618b4411c8,,,,,,,sngl,resources/Empty.png,resources/DY.BMP,WildCard_Ex,0.241666653,0.029629637,1,0,0,0.8972,optionRight,5,1605,1,27,0,27,0,1,,,,,,,,,,,,,,,,,,,,,,,,,,,,,,,,,,,,,,,
,,,,,,,,2023-08-16_08h38.06.053,HF_wild_card,2022.2.4,Win32,59.71218726,6082aa29c655ceb5b313bc03,64d2fd46c836a06233681665,64dc7cb8c3e124618b4411c8,,,,,,,ctch,resources/DP.BMP,resources/DB.BMP,Door4,0.253703718,0.014814801,1,0,0,0.6987,optionRight,60,1665,1,28,0,28,0,1,,,,,,,,,,,,,,,,,,,,,,,,,,,,,,,,,,,,,,,
,,,,,,,,2023-08-16_08h38.06.053,HF_wild_card,2022.2.4,Win32,59.71218726,6082aa29c655ceb5b313bc03,64d2fd46c836a06233681665,64dc7cb8c3e124618b4411c8,,,,,,,sngl,resources/Empty.png,resources/DP.BMP,Door1,0.312962991,0.015740748,1,0,0,0.6975,optionRight,30,1695,1,29,0,29,0,1,,,,,,,,,,,,,,,,,,,,,,,,,,,,,,,,,,,,,,,
,,,,,,,,2023-08-16_08h38.06.053,HF_wild_card,2022.2.4,Win32,59.71218726,6082aa29c655ceb5b313bc03,64d2fd46c836a06233681665,64dc7cb8c3e124618b4411c8,,,,,,,sngl,resources/DP.BMP,resources/Empty.png,Door1,-0.22129631,0.033333319,1,0,0,0.7474,optionLeft,30,1725,1,30,0,30,0,1,,,,,,,,,,,,,,,,,,,,,,,,,,,,,,,,,,,,,,,
,,,,,,,,2023-08-16_08h38.06.053,HF_wild_card,2022.2.4,Win32,59.71218726,6082aa29c655ceb5b313bc03,64d2fd46c836a06233681665,64dc7cb8c3e124618b4411c8,,,,,,,sngl,resources/DB.BMP,resources/Empty.png,Door4,-0.226851852,0.018518519,1,0,0,0.9133,optionLeft,80,1805,1,31,0,31,0,1,,,,,,,,,,,,,,,,,,,,,,,,,,,,,,,,,,,,,,,
,,,,,,,,2023-08-16_08h38.06.053,HF_wild_card,2022.2.4,Win32,59.71218726,6082aa29c655ceb5b313bc03,64d2fd46c836a06233681665,64dc7cb8c3e124618b4411c8,,,,,,,sngl,resources/DY.BMP,resources/Empty.png,WildCard_Ex,-0.203703704,-0.025000007,1,0,0,1.3135,optionLeft,5,1810,1,32,0,32,0,1,,,,,,,,,,,,,,,,,,,,,,,,,,,,,,,,,,,,,,,
,,,,,,,,2023-08-16_08h38.06.053,HF_wild_card,2022.2.4,Win32,59.71218726,6082aa29c655ceb5b313bc03,64d2fd46c836a06233681665,64dc7cb8c3e124618b4411c8,,,,,,,decisionTrl,resources/DY.BMP,resources/DR.BMP,Door2,0.226851852,0.013888889,1,0,0,1.9346,optionRight,20,1830,1,33,0,33,0,1,,,,,,,,,,,,,,,,,,,,,,,,,,,,,,,,,,,,,,,
,,,,,,,,2023-08-16_08h38.06.053,HF_wild_card,2022.2.4,Win32,59.71218726,6082aa29c655ceb5b313bc03,64d2fd46c836a06233681665,64dc7cb8c3e124618b4411c8,,,,,,,decisionTrl,resources/DY.BMP,resources/DG.BMP,Door3,0.259259259,0.011111118,1,0,0,0.7299,optionRight,70,1900,1,34,0,34,0,1,,,,,,,,,,,,,,,,,,,,,,,,,,,,,,,,,,,,,,,
,,,,,,,,2023-08-16_08h38.06.053,HF_wild_card,2022.2.4,Win32,59.71218726,6082aa29c655ceb5b313bc03,64d2fd46c836a06233681665,64dc7cb8c3e124618b4411c8,,,,,,,decisionTrl,resources/DR.BMP,resources/DP.BMP,Door1,0.412037037,-0.010185206,1,0,0,1.131,optionRight,30,1930,1,35,0,35,0,1,,,,,,,,,,,,,,,,,,,,,,,,,,,,,,,,,,,,,,,
,,,,,,,,2023-08-16_08h38.06.053,HF_wild_card,2022.2.4,Win32,59.71218726,6082aa29c655ceb5b313bc03,64d2fd46c836a06233681665,64dc7cb8c3e124618b4411c8,,,,,,,sngl,resources/DR.BMP,resources/Empty.png,Door2,-0.276851866,-0.00462963,1,0,0,0.7304,optionLeft,40,1970,1,36,0,36,0,1,,,,,,,,,,,,,,,,,,,,,,,,,,,,,,,,,,,,,,,
,,,,,,,,2023-08-16_08h38.06.053,HF_wild_card,2022.2.4,Win32,59.71218726,6082aa29c655ceb5b313bc03,64d2fd46c836a06233681665,64dc7cb8c3e124618b4411c8,,,,,,,decisionTrl,resources/DG.BMP,resources/DY.BMP,Door3,-0.242592564,-0.000925947,1,0,0,3.4302,optionLeft,70,2040,1,37,0,37,0,1,,,,,,,,,,,,,,,,,,,,,,,,,,,,,,,,,,,,,,,
,,,,,,,,2023-08-16_08h38.06.053,HF_wild_card,2022.2.4,Win32,59.71218726,6082aa29c655ceb5b313bc03,64d2fd46c836a06233681665,64dc7cb8c3e124618b4411c8,,,,,,,ctch,resources/DB.BMP,resources/DP.BMP,Door4,-0.309259238,0.029629637,1,0,0,1.0638,optionLeft,60,2100,1,38,0,38,0,1,,,,,,,,,,,,,,,,,,,,,,,,,,,,,,,,,,,,,,,
,,,,,,,,2023-08-16_08h38.06.053,HF_wild_card,2022.2.4,Win32,59.71218726,6082aa29c655ceb5b313bc03,64d2fd46c836a06233681665,64dc7cb8c3e124618b4411c8,,,,,,,decisionTrl,resources/DR.BMP,resources/DP.BMP,Door1,0.313888974,-0.015740748,1,0,0,0.6305,optionRight,30,2130,1,39,0,39,0,1,,,,,,,,,,,,,,,,,,,,,,,,,,,,,,,,,,,,,,,
,,,,,,,,2023-08-16_08h38.06.053,HF_wild_card,2022.2.4,Win32,59.71218726,6082aa29c655ceb5b313bc03,64d2fd46c836a06233681665,64dc7cb8c3e124618b4411c8,,,,,,,decisionTrl,resources/DB.BMP,resources/DG.BMP,Door4,-0.295370384,0.025000007,1,0,0,0.681,optionLeft,60,2190,1,40,0,40,0,1,,,,,,,,,,,,,,,,,,,,,,,,,,,,,,,,,,,,,,,
,,,,,,,,2023-08-16_08h38.06.053,HF_wild_card,2022.2.4,Win32,59.71218726,6082aa29c655ceb5b313bc03,64d2fd46c836a06233681665,64dc7cb8c3e124618b4411c8,,,,,,,decisionTrl,resources/DR.BMP,resources/DP.BMP,Door1,0.265740783,-0.076851845,1,0,0,3.2139,optionRight,30,2220,1,41,0,41,0,1,,,,,,,,,,,,,,,,,,,,,,,,,,,,,,,,,,,,,,,
,,,,,,,,2023-08-16_08h38.06.053,HF_wild_card,2022.2.4,Win32,59.71218726,6082aa29c655ceb5b313bc03,64d2fd46c836a06233681665,64dc7cb8c3e124618b4411c8,,,,,,,decisionTrl,resources/DG.BMP,resources/DB.BMP,Door4,0.292592578,0,1,0,0,1.3144,optionRight,80,2300,1,42,0,42,0,1,,,,,,,,,,,,,,,,,,,,,,,,,,,,,,,,,,,,,,,
,,,,,,,,2023-08-16_08h38.06.053,HF_wild_card,2022.2.4,Win32,59.71218726,6082aa29c655ceb5b313bc03,64d2fd46c836a06233681665,64dc7cb8c3e124618b4411c8,,,,,,,decisionTrl,resources/DP.BMP,resources/DR.BMP,Door2,0.223148134,0.03148146,1,0,0,2.7138,optionRight,20,2320,1,43,0,43,0,1,,,,,,,,,,,,,,,,,,,,,,,,,,,,,,,,,,,,,,,
,,,,,,,,2023-08-16_08h38.06.053,HF_wild_card,2022.2.4,Win32,59.71218726,6082aa29c655ceb5b313bc03,64d2fd46c836a06233681665,64dc7cb8c3e124618b4411c8,,,,,,,,,,,,,,,,,,,,,,,,,,0,0,0,0,1,,,,,,,,,,,,,,,,,,,,,,,,,,,,,,,,,,
,,,,,,,,2023-08-16_08h38.06.053,HF_wild_card,2022.2.4,Win32,59.71218726,6082aa29c655ceb5b313bc03,64d2fd46c836a06233681665,64dc7cb8c3e124618b4411c8,,,,,,,decisionTrl,resources/DY.BMP,resources/DB.BMP,Door4,0.332407492,-0.118518547,1,0,0,0.9916,optionRight,80,2400,2,0,0,0,0,1,,,,,,,,,,,,,,,,,,,,,,,,,,,,,,,,,,,,,,,
,,,,,,,,2023-08-16_08h38.06.053,HF_wild_card,2022.2.4,Win32,59.71218726,6082aa29c655ceb5b313bc03,64d2fd46c836a06233681665,64dc7cb8c3e124618b4411c8,,,,,,,sngl,resources/DG.BMP,resources/Empty.png,Door3,-0.214814787,-0.089814822,1,0,0,0.8975,optionLeft,70,2470,2,1,0,1,0,1,,,,,,,,,,,,,,,,,,,,,,,,,,,,,,,,,,,,,,,
,,,,,,,,2023-08-16_08h38.06.053,HF_wild_card,2022.2.4,Win32,59.71218726,6082aa29c655ceb5b313bc03,64d2fd46c836a06233681665,64dc7cb8c3e124618b4411c8,,,,,,,sngl,resources/DY.BMP,resources/Empty.png,WildCard_Ex,-0.244444459,-0.025925919,1,0,0,0.9805,optionLeft,5,2475,2,2,0,2,0,1,,,,,,,,,,,,,,,,,,,,,,,,,,,,,,,,,,,,,,,
,,,,,,,,2023-08-16_08h38.06.053,HF_wild_card,2022.2.4,Win32,59.71218726,6082aa29c655ceb5b313bc03,64d2fd46c836a06233681665,64dc7cb8c3e124618b4411c8,,,,,,,decisionTrl,resources/DR.BMP,resources/DY.BMP,Door2,-0.243518476,-0.041666667,1,0,0,1.8804,optionLeft,40,2515,2,3,0,3,0,1,,,,,,,,,,,,,,,,,,,,,,,,,,,,,,,,,,,,,,,
,,,,,,,,2023-08-16_08h38.06.053,HF_wild_card,2022.2.4,Win32,59.71218726,6082aa29c655ceb5b313bc03,64d2fd46c836a06233681665,64dc7cb8c3e124618b4411c8,,,,,,,decisionTrl,resources/DG.BMP,resources/DB.BMP,Door4,0.258333347,-0.008333347,1,0,0,1.3642,optionRight,80,2595,2,4,0,4,0,1,,,,,,,,,,,,,,,,,,,,,,,,,,,,,,,,,,,,,,,
,,,,,,,,2023-08-16_08h38.06.053,HF_wild_card,2022.2.4,Win32,59.71218726,6082aa29c655ceb5b313bc03,64d2fd46c836a06233681665,64dc7cb8c3e124618b4411c8,,,,,,,sngl,resources/Empty.png,resources/DB.BMP,Door4,0.285185213,-0.008333347,1,0,0,0.7138,optionRight,80,2675,2,5,0,5,0,1,,,,,,,,,,,,,,,,,,,,,,,,,,,,,,,,,,,,,,,
,,,,,,,,2023-08-16_08h38.06.053,HF_wild_card,2022.2.4,Win32,59.71218726,6082aa29c655ceb5b313bc03,64d2fd46c836a06233681665,64dc7cb8c3e124618b4411c8,,,,,,,decisionTrl,resources/DR.BMP,resources/DP.BMP,Door2,-0.10555557,0.014814801,1,0,0,1.4801,optionLeft,40,2715,2,6,0,6,0,1,,,,,,,,,,,,,,,,,,,,,,,,,,,,,,,,,,,,,,,
,,,,,,,,2023-08-16_08h38.06.053,HF_wild_card,2022.2.4,Win32,59.71218726,6082aa29c655ceb5b313bc03,64d2fd46c836a06233681665,64dc7cb8c3e124618b4411c8,,,,,,,decisionTrl,resources/DB.BMP,resources/DG.BMP,Door4,-0.374074053,0.010185171,1,0,0,0.9138,optionLeft,60,2775,2,7,0,7,0,1,,,,,,,,,,,,,,,,,,,,,,,,,,,,,,,,,,,,,,,
,,,,,,,,2023-08-16_08h38.06.053,HF_wild_card,2022.2.4,Win32,59.71218726,6082aa29c655ceb5b313bc03,64d2fd46c836a06233681665,64dc7cb8c3e124618b4411c8,,,,,,,sngl,resources/Empty.png,resources/DP.BMP,Door1,0.353703675,0.008333312,1,0,0,0.7476,optionRight,30,2805,2,8,0,8,0,1,,,,,,,,,,,,,,,,,,,,,,,,,,,,,,,,,,,,,,,
,,,,,,,,2023-08-16_08h38.06.053,HF_wild_card,2022.2.4,Win32,59.71218726,6082aa29c655ceb5b313bc03,64d2fd46c836a06233681665,64dc7cb8c3e124618b4411c8,,,,,,,decisionTrl,resources/DG.BMP,resources/DB.BMP,Door3,-0.266666624,-0.000925947,1,0,0,1.164,optionLeft,70,2875,2,9,0,9,0,1,,,,,,,,,,,,,,,,,,,,,,,,,,,,,,,,,,,,,,,
,,,,,,,,2023-08-16_08h38.06.053,HF_wild_card,2022.2.4,Win32,59.71218726,6082aa29c655ceb5b313bc03,64d2fd46c836a06233681665,64dc7cb8c3e124618b4411c8,,,,,,,ctch,resources/DR.BMP,resources/DG.BMP,Door3,0.287037037,0.008333312,1,0,0,1.3971,optionRight,70,2945,2,10,0,10,0,1,,,,,,,,,,,,,,,,,,,,,,,,,,,,,,,,,,,,,,,
,,,,,,,,2023-08-16_08h38.06.053,HF_wild_card,2022.2.4,Win32,59.71218726,6082aa29c655ceb5b313bc03,64d2fd46c836a06233681665,64dc7cb8c3e124618b4411c8,,,,,,,decisionTrl,resources/DG.BMP,resources/DB.BMP,Door4,0.338888945,0.02870369,1,0,0,2.6475,optionRight,80,3025,2,11,0,11,0,1,,,,,,,,,,,,,,,,,,,,,,,,,,,,,,,,,,,,,,,
,,,,,,,,2023-08-16_08h38.06.053,HF_wild_card,2022.2.4,Win32,59.71218726,6082aa29c655ceb5b313bc03,64d2fd46c836a06233681665,64dc7cb8c3e124618b4411c8,,,,,,,sngl,resources/Empty.png,resources/DG.BMP,Door3,0.25,0.015740748,1,0,0,0.7808,optionRight,70,3095,2,12,0,12,0,1,,,,,,,,,,,,,,,,,,,,,,,,,,,,,,,,,,,,,,,
,,,,,,,,2023-08-16_08h38.06.053,HF_wild_card,2022.2.4,Win32,59.71218726,6082aa29c655ceb5b313bc03,64d2fd46c836a06233681665,64dc7cb8c3e124618b4411c8,,,,,,,decisionTrl,resources/DR.BMP,resources/DP.BMP,Door2,-0.338888875,0.047222208,1,0,0,1.3139,optionLeft,40,3135,2,13,0,13,0,1,,,,,,,,,,,,,,,,,,,,,,,,,,,,,,,,,,,,,,,
,,,,,,,,2023-08-16_08h38.06.053,HF_wild_card,2022.2.4,Win32,59.71218726,6082aa29c655ceb5b313bc03,64d2fd46c836a06233681665,64dc7cb8c3e124618b4411c8,,,,,,,decisionTrl,resources/DP.BMP,resources/DR.BMP,Door2,0.324074074,0.010185171,1,0,0,3.2472,optionRight,20,3155,2,14,0,14,0,1,,,,,,,,,,,,,,,,,,,,,,,,,,,,,,,,,,,,,,,
,,,,,,,,2023-08-16_08h38.06.053,HF_wild_card,2022.2.4,Win32,59.71218726,6082aa29c655ceb5b313bc03,64d2fd46c836a06233681665,64dc7cb8c3e124618b4411c8,,,,,,,ctch,resources/DB.BMP,resources/DP.BMP,Door4,-0.35833334,0.061111097,1,0,0,7.947,optionLeft,60,3215,2,15,0,15,0,1,,,,,,,,,,,,,,,,,,,,,,,,,,,,,,,,,,,,,,,
,,,,,,,,2023-08-16_08h38.06.053,HF_wild_card,2022.2.4,Win32,59.71218726,6082aa29c655ceb5b313bc03,64d2fd46c836a06233681665,64dc7cb8c3e124618b4411c8,,,,,,,decisionTrl,resources/DB.BMP,resources/DG.BMP,Door3,0.327777863,0.0074074,1,0,0,1.6809,optionRight,70,3285,2,16,0,16,0,1,,,,,,,,,,,,,,,,,,,,,,,,,,,,,,,,,,,,,,,
,,,,,,,,2023-08-16_08h38.06.053,HF_wild_card,2022.2.4,Win32,59.71218726,6082aa29c655ceb5b313bc03,64d2fd46c836a06233681665,64dc7cb8c3e124618b4411c8,,,,,,,sngl,resources/Empty.png,resources/DY.BMP,WildCard_Ex,0.271296325,-0.022222236,1,0,0,0.7143,optionRight,95,3380,2,17,0,17,0,1,,,,,,,,,,,,,,,,,,,,,,,,,,,,,,,,,,,,,,,
,,,,,,,,2023-08-16_08h38.06.053,HF_wild_card,2022.2.4,Win32,59.71218726,6082aa29c655ceb5b313bc03,64d2fd46c836a06233681665,64dc7cb8c3e124618b4411c8,,,,,,,decisionTrl,resources/DY.BMP,resources/DG.BMP,Door3,0.262962977,0.064814815,1,0,0,4.4634,optionRight,70,3450,2,18,0,18,0,1,,,,,,,,,,,,,,,,,,,,,,,,,,,,,,,,,,,,,,,
,,,,,,,,2023-08-16_08h38.06.053,HF_wild_card,2022.2.4,Win32,59.71218726,6082aa29c655ceb5b313bc03,64d2fd46c836a06233681665,64dc7cb8c3e124618b4411c8,,,,,,,decisionTrl,resources/DG.BMP,resources/DY.BMP,Door3,-0.292592578,0.051851838,1,0,0,1.63,optionLeft,70,3520,2,19,0,19,0,1,,,,,,,,,,,,,,,,,,,,,,,,,,,,,,,,,,,,,,,
,,,,,,,,2023-08-16_08h38.06.053,HF_wild_card,2022.2.4,Win32,59.71218726,6082aa29c655ceb5b313bc03,64d2fd46c836a06233681665,64dc7cb8c3e124618b4411c8,,,,,,,ctch,resources/DP.BMP,resources/DB.BMP,Door4,0.211111139,0.100925905,1,0,0,1.7965,optionRight,80,3600,2,20,0,20,0,1,,,,,,,,,,,,,,,,,,,,,,,,,,,,,,,,,,,,,,,
,,,,,,,,2023-08-16_08h38.06.053,HF_wild_card,2022.2.4,Win32,59.71218726,6082aa29c655ceb5b313bc03,64d2fd46c836a06233681665,64dc7cb8c3e124618b4411c8,,,,,,,ctch,resources/DG.BMP,resources/DR.BMP,Door3,-0.185185185,0.123148141,1,0,0,5.5798,optionLeft,70,3670,2,21,0,21,0,1,,,,,,,,,,,,,,,,,,,,,,,,,,,,,,,,,,,,,,,
,,,,,,,,2023-08-16_08h38.06.053,HF_wild_card,2022.2.4,Win32,59.71218726,6082aa29c655ceb5b313bc03,64d2fd46c836a06233681665,64dc7cb8c3e124618b4411c8,,,,,,,decisionTrl,resources/DY.BMP,resources/DR.BMP,WildCard_Ex,-0.281481496,0.064814815,1,0,0,2.7971,optionLeft,95,3765,2,22,0,22,0,1,,,,,,,,,,,,,,,,,,,,,,,,,,,,,,,,,,,,,,,
,,,,,,,,2023-08-16_08h38.06.053,HF_wild_card,2022.2.4,Win32,59.71218726,6082aa29c655ceb5b313bc03,64d2fd46c836a06233681665,64dc7cb8c3e124618b4411c8,,,,,,,decisionTrl,resources/DP.BMP,resources/DR.BMP,Door1,-0.229629587,0.052777785,1,0,0,2.8972,optionLeft,30,3795,2,23,0,23,0,1,,,,,,,,,,,,,,,,,,,,,,,,,,,,,,,,,,,,,,,
,,,,,,,,2023-08-16_08h38.06.053,HF_wild_card,2022.2.4,Win32,59.71218726,6082aa29c655ceb5b313bc03,64d2fd46c836a06233681665,64dc7cb8c3e124618b4411c8,,,,,,,decisionTrl,resources/DG.BMP,resources/DB.BMP,Door3,-0.324999986,0.042592578,1,0,0,1.5756,optionLeft,70,3865,2,24,0,24,0,1,,,,,,,,,,,,,,,,,,,,,,,,,,,,,,,,,,,,,,,
,,,,,,,,2023-08-16_08h38.06.053,HF_wild_card,2022.2.4,Win32,59.71218726,6082aa29c655ceb5b313bc03,64d2fd46c836a06233681665,64dc7cb8c3e124618b4411c8,,,,,,,ctch,resources/DB.BMP,resources/DP.BMP,Door4,-0.238888847,0.053703697,1,0,0,1.265,optionLeft,60,3925,2,25,0,25,0,1,,,,,,,,,,,,,,,,,,,,,,,,,,,,,,,,,,,,,,,
,,,,,,,,2023-08-16_08h38.06.053,HF_wild_card,2022.2.4,Win32,59.71218726,6082aa29c655ceb5b313bc03,64d2fd46c836a06233681665,64dc7cb8c3e124618b4411c8,,,,,,,sngl,resources/Empty.png,resources/DR.BMP,Door2,0.305555556,0.034259266,1,0,0,0.8307,optionRight,40,3965,2,26,0,26,0,1,,,,,,,,,,,,,,,,,,,,,,,,,,,,,,,,,,,,,,,
,,,,,,,,2023-08-16_08h38.06.053,HF_wild_card,2022.2.4,Win32,59.71218726,6082aa29c655ceb5b313bc03,64d2fd46c836a06233681665,64dc7cb8c3e124618b4411c8,,,,,,,sngl,resources/DY.BMP,resources/Empty.png,WildCard_Ex,-0.27407406,0.062962956,1,0,0,1.0464,optionLeft,95,4060,2,27,0,27,0,1,,,,,,,,,,,,,,,,,,,,,,,,,,,,,,,,,,,,,,,
,,,,,,,,2023-08-16_08h38.06.053,HF_wild_card,2022.2.4,Win32,59.71218726,6082aa29c655ceb5b313bc03,64d2fd46c836a06233681665,64dc7cb8c3e124618b4411c8,,,,,,,sngl,resources/DB.BMP,resources/Empty.png,Door4,-0.267592607,0.008333312,1,0,0,1.4805,optionLeft,60,4120,2,28,0,28,0,1,,,,,,,,,,,,,,,,,,,,,,,,,,,,,,,,,,,,,,,
,,,,,,,,2023-08-16_08h38.06.053,HF_wild_card,2022.2.4,Win32,59.71218726,6082aa29c655ceb5b313bc03,64d2fd46c836a06233681665,64dc7cb8c3e124618b4411c8,,,,,,,decisionTrl,resources/DP.BMP,resources/DY.BMP,WildCard_Ex,0.24537037,0.02870369,1,0,0,1.8579,optionRight,95,4215,2,29,0,29,0,1,,,,,,,,,,,,,,,,,,,,,,,,,,,,,,,,,,,,,,,
,,,,,,,,2023-08-16_08h38.06.053,HF_wild_card,2022.2.4,Win32,59.71218726,6082aa29c655ceb5b313bc03,64d2fd46c836a06233681665,64dc7cb8c3e124618b4411c8,,,,,,,decisionTrl,resources/DP.BMP,resources/DR.BMP,Door2,0.308333362,0.058333326,1,0,0,4.1267,optionRight,20,4235,2,30,0,30,0,1,,,,,,,,,,,,,,,,,,,,,,,,,,,,,,,,,,,,,,,
,,,,,,,,2023-08-16_08h38.06.053,HF_wild_card,2022.2.4,Win32,59.71218726,6082aa29c655ceb5b313bc03,64d2fd46c836a06233681665,64dc7cb8c3e124618b4411c8,,,,,,,sngl,resources/DP.BMP,resources/Empty.png,Door1,-0.200925898,-0.003703718,1,0,0,0.6304,optionLeft,30,4265,2,31,0,31,0,1,,,,,,,,,,,,,,,,,,,,,,,,,,,,,,,,,,,,,,,
,,,,,,,,2023-08-16_08h38.06.053,HF_wild_card,2022.2.4,Win32,59.71218726,6082aa29c655ceb5b313bc03,64d2fd46c836a06233681665,64dc7cb8c3e124618b4411c8,,,,,,,decisionTrl,resources/DR.BMP,resources/DP.BMP,Door2,-0.291666667,-0.026851866,1,0,0,1.9302,optionLeft,20,4285,2,32,0,32,0,1,,,,,,,,,,,,,,,,,,,,,,,,,,,,,,,,,,,,,,,
,,,,,,,,2023-08-16_08h38.06.053,HF_wild_card,2022.2.4,Win32,59.71218726,6082aa29c655ceb5b313bc03,64d2fd46c836a06233681665,64dc7cb8c3e124618b4411c8,,,,,,,decisionTrl,resources/DY.BMP,resources/DP.BMP,WildCard_Ex,-0.291666667,-0.010185206,1,0,0,6.8135,optionLeft,5,4290,2,33,0,33,0,1,,,,,,,,,,,,,,,,,,,,,,,,,,,,,,,,,,,,,,,
,,,,,,,,2023-08-16_08h38.06.053,HF_wild_card,2022.2.4,Win32,59.71218726,6082aa29c655ceb5b313bc03,64d2fd46c836a06233681665,64dc7cb8c3e124618b4411c8,,,,,,,ctch,resources/DG.BMP,resources/DR.BMP,Door3,-0.378703683,0.020370377,1,0,0,1.1309,optionLeft,70,4360,2,34,0,34,0,1,,,,,,,,,,,,,,,,,,,,,,,,,,,,,,,,,,,,,,,
,,,,,,,,2023-08-16_08h38.06.053,HF_wild_card,2022.2.4,Win32,59.71218726,6082aa29c655ceb5b313bc03,64d2fd46c836a06233681665,64dc7cb8c3e124618b4411c8,,,,,,,decisionTrl,resources/DB.BMP,resources/DG.BMP,Door4,-0.303703697,0.01203703,1,0,0,1.0643,optionLeft,80,4440,2,35,0,35,0,1,,,,,,,,,,,,,,,,,,,,,,,,,,,,,,,,,,,,,,,
,,,,,,,,2023-08-16_08h38.06.053,HF_wild_card,2022.2.4,Win32,59.71218726,6082aa29c655ceb5b313bc03,64d2fd46c836a06233681665,64dc7cb8c3e124618b4411c8,,,,,,,sngl,resources/DR.BMP,resources/Empty.png,Door2,-0.224999958,0.008333312,1,0,0,1.9978,optionLeft,20,4460,2,36,0,36,0,1,,,,,,,,,,,,,,,,,,,,,,,,,,,,,,,,,,,,,,,
,,,,,,,,2023-08-16_08h38.06.053,HF_wild_card,2022.2.4,Win32,59.71218726,6082aa29c655ceb5b313bc03,64d2fd46c836a06233681665,64dc7cb8c3e124618b4411c8,,,,,,,sngl,resources/Empty.png,resources/DY.BMP,WildCard_Ex,0.22592594,0.058333326,1,0,0,5.1464,optionRight,5,4465,2,37,0,37,0,1,,,,,,,,,,,,,,,,,,,,,,,,,,,,,,,,,,,,,,,
,,,,,,,,2023-08-16_08h38.06.053,HF_wild_card,2022.2.4,Win32,59.71218726,6082aa29c655ceb5b313bc03,64d2fd46c836a06233681665,64dc7cb8c3e124618b4411c8,,,,,,,decisionTrl,resources/DP.BMP,resources/DR.BMP,Door2,0.439814815,-0.046296296,1,0,0,1.71,optionRight,20,4485,2,38,0,38,0,1,,,,,,,,,,,,,,,,,,,,,,,,,,,,,,,,,,,,,,,
,,,,,,,,2023-08-16_08h38.06.053,HF_wild_card,2022.2.4,Win32,59.71218726,6082aa29c655ceb5b313bc03,64d2fd46c836a06233681665,64dc7cb8c3e124618b4411c8,,,,,,,decisionTrl,resources/DB.BMP,resources/DG.BMP,Door3,0.287037037,-0.003703718,1,0,0,4.4306,optionRight,70,4555,2,39,0,39,0,1,,,,,,,,,,,,,,,,,,,,,,,,,,,,,,,,,,,,,,,
,,,,,,,,2023-08-16_08h38.06.053,HF_wild_card,2022.2.4,Win32,59.71218726,6082aa29c655ceb5b313bc03,64d2fd46c836a06233681665,64dc7cb8c3e124618b4411c8,,,,,,,decisionTrl,resources/DR.BMP,resources/DP.BMP,Door2,-0.289814772,-0.041666667,1,0,0,1.2977,optionLeft,20,4575,2,40,0,40,0,1,,,,,,,,,,,,,,,,,,,,,,,,,,,,,,,,,,,,,,,
,,,,,,,,2023-08-16_08h38.06.053,HF_wild_card,2022.2.4,Win32,59.71218726,6082aa29c655ceb5b313bc03,64d2fd46c836a06233681665,64dc7cb8c3e124618b4411c8,,,,,,,ctch,resources/DR.BMP,resources/DG.BMP,Door3,0.325925898,-0.015740748,1,0,0,0.6805,optionRight,70,4645,2,41,0,41,0,1,,,,,,,,,,,,,,,,,,,,,,,,,,,,,,,,,,,,,,,
,,,,,,,,2023-08-16_08h38.06.053,HF_wild_card,2022.2.4,Win32,59.71218726,6082aa29c655ceb5b313bc03,64d2fd46c836a06233681665,64dc7cb8c3e124618b4411c8,,,,,,,ctch,resources/DP.BMP,resources/DB.BMP,Door4,0.288888931,-0.027777778,1,0,0,1.6805,optionRight,60,4705,2,42,0,42,0,1,,,,,,,,,,,,,,,,,,,,,,,,,,,,,,,,,,,,,,,
,,,,,,,,2023-08-16_08h38.06.053,HF_wild_card,2022.2.4,Win32,59.71218726,6082aa29c655ceb5b313bc03,64d2fd46c836a06233681665,64dc7cb8c3e124618b4411c8,,,,,,,decisionTrl,resources/DB.BMP,resources/DY.BMP,Door4,-0.397222201,-0.022222236,1,0,0,0.8468,optionLeft,80,4785,2,43,0,43,0,1,,,,,,,,,,,,,,,,,,,,,,,,,,,,,,,,,,,,,,,
,,,,,,,,2023-08-16_08h38.06.053,HF_wild_card,2022.2.4,Win32,59.71218726,6082aa29c655ceb5b313bc03,64d2fd46c836a06233681665,64dc7cb8c3e124618b4411c8,,,,,,,,,,,,,,,,,,,,,,,,,,1,0,1,0,1,,,,,,,,,,,,,,,,,,,,,,,,,,,,,,,,,,
,,,,,,,,2023-08-16_08h38.06.053,HF_wild_card,2022.2.4,Win32,59.71218726,6082aa29c655ceb5b313bc03,64d2fd46c836a06233681665,64dc7cb8c3e124618b4411c8,,,,,,,decisionTrl,resources/DP.BMP,resources/DY.BMP,Door1,-0.233333305,0.046296296,1,0,0,1.6795,optionLeft,30,4815,3,0,0,0,0,1,,,,,,,,,,,,,,,,,,,,,,,,,,,,,,,,,,,,,,,
,,,,,,,,2023-08-16_08h38.06.053,HF_wild_card,2022.2.4,Win32,59.71218726,6082aa29c655ceb5b313bc03,64d2fd46c836a06233681665,64dc7cb8c3e124618b4411c8,,,,,,,decisionTrl,resources/DR.BMP,resources/DP.BMP,Door1,0.414814843,-0.003703718,1,0,0,1.2634,optionRight,30,4845,3,1,0,1,0,1,,,,,,,,,,,,,,,,,,,,,,,,,,,,,,,,,,,,,,,
,,,,,,,,2023-08-16_08h38.06.053,HF_wild_card,2022.2.4,Win32,59.71218726,6082aa29c655ceb5b313bc03,64d2fd46c836a06233681665,64dc7cb8c3e124618b4411c8,,,,,,,decisionTrl,resources/DR.BMP,resources/DY.BMP,WildCard_Ex,0.184259273,0.041666667,1,0,0,1.8466,optionRight,95,4940,3,2,0,2,0,1,,,,,,,,,,,,,,,,,,,,,,,,,,,,,,,,,,,,,,,
,,,,,,,,2023-08-16_08h38.06.053,HF_wild_card,2022.2.4,Win32,59.71218726,6082aa29c655ceb5b313bc03,64d2fd46c836a06233681665,64dc7cb8c3e124618b4411c8,,,,,,,decisionTrl,resources/DG.BMP,resources/DB.BMP,Door4,0.450925898,-0.005555577,1,0,0,0.8639,optionRight,60,5000,3,3,0,3,0,1,,,,,,,,,,,,,,,,,,,,,,,,,,,,,,,,,,,,,,,
,,,,,,,,2023-08-16_08h38.06.053,HF_wild_card,2022.2.4,Win32,59.71218726,6082aa29c655ceb5b313bc03,64d2fd46c836a06233681665,64dc7cb8c3e124618b4411c8,,,,,,,decisionTrl,resources/DG.BMP,resources/DB.BMP,Door3,-0.231481481,-0.026851866,1,0,0,0.8639,optionLeft,70,5070,3,4,0,4,0,1,,,,,,,,,,,,,,,,,,,,,,,,,,,,,,,,,,,,,,,
,,,,,,,,2023-08-16_08h38.06.053,HF_wild_card,2022.2.4,Win32,59.71218726,6082aa29c655ceb5b313bc03,64d2fd46c836a06233681665,64dc7cb8c3e124618b4411c8,,,,,,,decisionTrl,resources/DP.BMP,resources/DR.BMP,Door1,-0.37962963,0.033333319,1,0,0,1.9137,optionLeft,30,5100,3,5,0,5,0,1,,,,,,,,,,,,,,,,,,,,,,,,,,,,,,,,,,,,,,,
,,,,,,,,2023-08-16_08h38.06.053,HF_wild_card,2022.2.4,Win32,59.71218726,6082aa29c655ceb5b313bc03,64d2fd46c836a06233681665,64dc7cb8c3e124618b4411c8,,,,,,,decisionTrl,resources/DP.BMP,resources/DR.BMP,Door2,0.488888917,0.020370377,1,0,0,2.5587,optionRight,40,5140,3,6,0,6,0,1,,,,,,,,,,,,,,,,,,,,,,,,,,,,,,,,,,,,,,,
,,,,,,,,2023-08-16_08h38.06.053,HF_wild_card,2022.2.4,Win32,59.71218726,6082aa29c655ceb5b313bc03,64d2fd46c836a06233681665,64dc7cb8c3e124618b4411c8,,,,,,,decisionTrl,resources/DG.BMP,resources/DB.BMP,Door3,-0.261111083,0.037037037,1,0,0,3.6805,optionLeft,70,5210,3,7,0,7,0,1,,,,,,,,,,,,,,,,,,,,,,,,,,,,,,,,,,,,,,,
,,,,,,,,2023-08-16_08h38.06.053,HF_wild_card,2022.2.4,Win32,59.71218726,6082aa29c655ceb5b313bc03,64d2fd46c836a06233681665,64dc7cb8c3e124618b4411c8,,,,,,,decisionTrl,resources/DB.BMP,resources/DG.BMP,Door4,-0.150925884,0.029629637,1,0,0,1.3639,optionLeft,80,5290,3,8,0,8,0,1,,,,,,,,,,,,,,,,,,,,,,,,,,,,,,,,,,,,,,,
,,,,,,,,2023-08-16_08h38.06.053,HF_wild_card,2022.2.4,Win32,59.71218726,6082aa29c655ceb5b313bc03,64d2fd46c836a06233681665,64dc7cb8c3e124618b4411c8,,,,,,,decisionTrl,resources/DY.BMP,resources/DP.BMP,WildCard_Ex,-0.201851809,0.037037037,1,0,0,0.7475,optionLeft,95,5385,3,9,0,9,0,1,,,,,,,,,,,,,,,,,,,,,,,,,,,,,,,,,,,,,,,
,,,,,,,,2023-08-16_08h38.06.053,HF_wild_card,2022.2.4,Win32,59.71218726,6082aa29c655ceb5b313bc03,64d2fd46c836a06233681665,64dc7cb8c3e124618b4411c8,,,,,,,ctch,resources/DG.BMP,resources/DR.BMP,Door3,-0.217592593,0.042592578,1,0,0,1.2933,optionLeft,70,5455,3,10,0,10,0,1,,,,,,,,,,,,,,,,,,,,,,,,,,,,,,,,,,,,,,,
,,,,,,,,2023-08-16_08h38.06.053,HF_wild_card,2022.2.4,Win32,59.71218726,6082aa29c655ceb5b313bc03,64d2fd46c836a06233681665,64dc7cb8c3e124618b4411c8,,,,,,,sngl,resources/Empty.png,resources/DR.BMP,Door2,0.281481496,0.062037044,1,0,0,0.6139,optionRight,20,5475,3,11,0,11,0,1,,,,,,,,,,,,,,,,,,,,,,,,,,,,,,,,,,,,,,,
,,,,,,,,2023-08-16_08h38.06.053,HF_wild_card,2022.2.4,Win32,59.71218726,6082aa29c655ceb5b313bc03,64d2fd46c836a06233681665,64dc7cb8c3e124618b4411c8,,,,,,,decisionTrl,resources/DP.BMP,resources/DR.BMP,Door2,0.23055557,0.077777757,1,0,0,3.3301,optionRight,40,5515,3,12,0,12,0,1,,,,,,,,,,,,,,,,,,,,,,,,,,,,,,,,,,,,,,,
,,,,,,,,2023-08-16_08h38.06.053,HF_wild_card,2022.2.4,Win32,59.71218726,6082aa29c655ceb5b313bc03,64d2fd46c836a06233681665,64dc7cb8c3e124618b4411c8,,,,,,,decisionTrl,resources/DR.BMP,resources/DP.BMP,Door1,0.227777764,0.037037037,1,0,0,1.8804,optionRight,30,5545,3,13,0,13,0,1,,,,,,,,,,,,,,,,,,,,,,,,,,,,,,,,,,,,,,,
,,,,,,,,2023-08-16_08h38.06.053,HF_wild_card,2022.2.4,Win32,59.71218726,6082aa29c655ceb5b313bc03,64d2fd46c836a06233681665,64dc7cb8c3e124618b4411c8,,,,,,,decisionTrl,resources/DP.BMP,resources/DR.BMP,Door1,-0.353703711,-0.008333347,1,0,0,1.3636,optionLeft,30,5575,3,14,0,14,0,1,,,,,,,,,,,,,,,,,,,,,,,,,,,,,,,,,,,,,,,
,,,,,,,,2023-08-16_08h38.06.053,HF_wild_card,2022.2.4,Win32,59.71218726,6082aa29c655ceb5b313bc03,64d2fd46c836a06233681665,64dc7cb8c3e124618b4411c8,,,,,,,sngl,resources/DR.BMP,resources/Empty.png,Door2,-0.360185164,0.037962949,1,0,0,1.1303,optionLeft,40,5615,3,15,0,15,0,1,,,,,,,,,,,,,,,,,,,,,,,,,,,,,,,,,,,,,,,
,,,,,,,,2023-08-16_08h38.06.053,HF_wild_card,2022.2.4,Win32,59.71218726,6082aa29c655ceb5b313bc03,64d2fd46c836a06233681665,64dc7cb8c3e124618b4411c8,,,,,,,sngl,resources/DY.BMP,resources/Empty.png,WildCard_Ex,-0.362037023,0.04074072,1,0,0,0.6438,optionLeft,95,5710,3,16,0,16,0,1,,,,,,,,,,,,,,,,,,,,,,,,,,,,,,,,,,,,,,,
,,,,,,,,2023-08-16_08h38.06.053,HF_wild_card,2022.2.4,Win32,59.71218726,6082aa29c655ceb5b313bc03,64d2fd46c836a06233681665,64dc7cb8c3e124618b4411c8,,,,,,,sngl,resources/DY.BMP,resources/Empty.png,WildCard_Ex,-0.199999986,0.039814808,1,0,0,3.7971,optionLeft,5,5715,3,17,0,17,0,1,,,,,,,,,,,,,,,,,,,,,,,,,,,,,,,,,,,,,,,
,,,,,,,,2023-08-16_08h38.06.053,HF_wild_card,2022.2.4,Win32,59.71218726,6082aa29c655ceb5b313bc03,64d2fd46c836a06233681665,64dc7cb8c3e124618b4411c8,,,,,,,sngl,resources/DP.BMP,resources/Empty.png,Door1,-0.226851852,-0.013888889,1,0,0,0.6638,optionLeft,30,5745,3,18,0,18,0,1,,,,,,,,,,,,,,,,,,,,,,,,,,,,,,,,,,,,,,,
,,,,,,,,2023-08-16_08h38.06.053,HF_wild_card,2022.2.4,Win32,59.71218726,6082aa29c655ceb5b313bc03,64d2fd46c836a06233681665,64dc7cb8c3e124618b4411c8,,,,,,,decisionTrl,resources/DY.BMP,resources/DB.BMP,Door4,0.293518561,0.020370377,1,0,0,0.8465,optionRight,80,5825,3,19,0,19,0,1,,,,,,,,,,,,,,,,,,,,,,,,,,,,,,,,,,,,,,,
,,,,,,,,2023-08-16_08h38.06.053,HF_wild_card,2022.2.4,Win32,59.71218726,6082aa29c655ceb5b313bc03,64d2fd46c836a06233681665,64dc7cb8c3e124618b4411c8,,,,,,,decisionTrl,resources/DG.BMP,resources/DB.BMP,Door3,-0.363888882,0.011111118,1,0,0,1.4644,optionLeft,70,5895,3,20,0,20,0,1,,,,,,,,,,,,,,,,,,,,,,,,,,,,,,,,,,,,,,,
,,,,,,,,2023-08-16_08h38.06.053,HF_wild_card,2022.2.4,Win32,59.71218726,6082aa29c655ceb5b313bc03,64d2fd46c836a06233681665,64dc7cb8c3e124618b4411c8,,,,,,,decisionTrl,resources/DG.BMP,resources/DY.BMP,WildCard_Ex,0.228703746,0.045370349,1,0,0,2.9636,optionRight,95,5990,3,21,0,21,0,1,,,,,,,,,,,,,,,,,,,,,,,,,,,,,,,,,,,,,,,
,,,,,,,,2023-08-16_08h38.06.053,HF_wild_card,2022.2.4,Win32,59.71218726,6082aa29c655ceb5b313bc03,64d2fd46c836a06233681665,64dc7cb8c3e124618b4411c8,,,,,,,decisionTrl,resources/DB.BMP,resources/DY.BMP,Door4,-0.26944443,-0.032407407,1,0,0,0.864,optionLeft,60,6050,3,22,0,22,0,1,,,,,,,,,,,,,,,,,,,,,,,,,,,,,,,,,,,,,,,
,,,,,,,,2023-08-16_08h38.06.053,HF_wild_card,2022.2.4,Win32,59.71218726,6082aa29c655ceb5b313bc03,64d2fd46c836a06233681665,64dc7cb8c3e124618b4411c8,,,,,,,decisionTrl,resources/DR.BMP,resources/DP.BMP,Door2,-0.371296282,0.111111111,1,0,0,10.9628,optionLeft,40,6090,3,23,0,23,0,1,,,,,,,,,,,,,,,,,,,,,,,,,,,,,,,,,,,,,,,
,,,,,,,,2023-08-16_08h38.06.053,HF_wild_card,2022.2.4,Win32,59.71218726,6082aa29c655ceb5b313bc03,64d2fd46c836a06233681665,64dc7cb8c3e124618b4411c8,,,,,,,ctch,resources/DR.BMP,resources/DG.BMP,Door3,0.175000014,0.037037037,1,0,0,2.1136,optionRight,70,6160,3,24,0,24,0,1,,,,,,,,,,,,,,,,,,,,,,,,,,,,,,,,,,,,,,,
,,,,,,,,2023-08-16_08h38.06.053,HF_wild_card,2022.2.4,Win32,59.71218726,6082aa29c655ceb5b313bc03,64d2fd46c836a06233681665,64dc7cb8c3e124618b4411c8,,,,,,,sngl,resources/Empty.png,resources/DG.BMP,Door3,0.354629658,-0.030555548,1,0,0,0.9096,optionRight,70,6230,3,25,0,25,0,1,,,,,,,,,,,,,,,,,,,,,,,,,,,,,,,,,,,,,,,
,,,,,,,,2023-08-16_08h38.06.053,HF_wild_card,2022.2.4,Win32,59.71218726,6082aa29c655ceb5b313bc03,64d2fd46c836a06233681665,64dc7cb8c3e124618b4411c8,,,,,,,decisionTrl,resources/DY.BMP,resources/DG.BMP,WildCard_Ex,-0.241666653,0.017592571,1,0,0,0.7974,optionLeft,5,6235,3,26,0,26,0,1,,,,,,,,,,,,,,,,,,,,,,,,,,,,,,,,,,,,,,,
,,,,,,,,2023-08-16_08h38.06.053,HF_wild_card,2022.2.4,Win32,59.71218726,6082aa29c655ceb5b313bc03,64d2fd46c836a06233681665,64dc7cb8c3e124618b4411c8,,,,,,,ctch,resources/DR.BMP,resources/DG.BMP,Door3,0.359259288,-0.052777785,1,0,0,0.6477,optionRight,70,6305,3,27,0,27,0,1,,,,,,,,,,,,,,,,,,,,,,,,,,,,,,,,,,,,,,,
,,,,,,,,2023-08-16_08h38.06.053,HF_wild_card,2022.2.4,Win32,59.71218726,6082aa29c655ceb5b313bc03,64d2fd46c836a06233681665,64dc7cb8c3e124618b4411c8,,,,,,,sngl,resources/DG.BMP,resources/Empty.png,Door3,-0.202777792,0.008333312,1,0,0,0.8306,optionLeft,70,6375,3,28,0,28,0,1,,,,,,,,,,,,,,,,,,,,,,,,,,,,,,,,,,,,,,,
,,,,,,,,2023-08-16_08h38.06.053,HF_wild_card,2022.2.4,Win32,59.71218726,6082aa29c655ceb5b313bc03,64d2fd46c836a06233681665,64dc7cb8c3e124618b4411c8,,,,,,,sngl,resources/Empty.png,resources/DY.BMP,WildCard_Ex,0.242592635,0.001851859,1,0,0,0.6307,optionRight,95,6470,3,29,0,29,0,1,,,,,,,,,,,,,,,,,,,,,,,,,,,,,,,,,,,,,,,
,,,,,,,,2023-08-16_08h38.06.053,HF_wild_card,2022.2.4,Win32,59.71218726,6082aa29c655ceb5b313bc03,64d2fd46c836a06233681665,64dc7cb8c3e124618b4411c8,,,,,,,ctch,resources/DB.BMP,resources/DP.BMP,Door4,-0.219444416,0.03148146,1,0,0,0.7142,optionLeft,80,6550,3,30,0,30,0,1,,,,,,,,,,,,,,,,,,,,,,,,,,,,,,,,,,,,,,,
,,,,,,,,2023-08-16_08h38.06.053,HF_wild_card,2022.2.4,Win32,59.71218726,6082aa29c655ceb5b313bc03,64d2fd46c836a06233681665,64dc7cb8c3e124618b4411c8,,,,,,,sngl,resources/Empty.png,resources/DB.BMP,Door4,0.265740783,0.002777771,1,0,0,0.7304,optionRight,60,6610,3,31,0,31,0,1,,,,,,,,,,,,,,,,,,,,,,,,,,,,,,,,,,,,,,,
,,,,,,,,2023-08-16_08h38.06.053,HF_wild_card,2022.2.4,Win32,59.71218726,6082aa29c655ceb5b313bc03,64d2fd46c836a06233681665,64dc7cb8c3e124618b4411c8,,,,,,,decisionTrl,resources/DB.BMP,resources/DG.BMP,Door3,0.27407406,0.078703704,1,0,0,2.3804,optionRight,70,6680,3,32,0,32,0,1,,,,,,,,,,,,,,,,,,,,,,,,,,,,,,,,,,,,,,,
,,,,,,,,2023-08-16_08h38.06.053,HF_wild_card,2022.2.4,Win32,59.71218726,6082aa29c655ceb5b313bc03,64d2fd46c836a06233681665,64dc7cb8c3e124618b4411c8,,,,,,,ctch,resources/DG.BMP,resources/DR.BMP,Door3,-0.188888903,0.042592578,1,0,0,0.7304,optionLeft,70,6750,3,33,0,33,0,1,,,,,,,,,,,,,,,,,,,,,,,,,,,,,,,,,,,,,,,
,,,,,,,,2023-08-16_08h38.06.053,HF_wild_card,2022.2.4,Win32,59.71218726,6082aa29c655ceb5b313bc03,64d2fd46c836a06233681665,64dc7cb8c3e124618b4411c8,,,,,,,ctch,resources/DP.BMP,resources/DB.BMP,Door1,-0.205555527,-0.001851859,1,0,0,2.7637,optionLeft,30,6780,3,34,0,34,0,1,,,,,,,,,,,,,,,,,,,,,,,,,,,,,,,,,,,,,,,
,,,,,,,,2023-08-16_08h38.06.053,HF_wild_card,2022.2.4,Win32,59.71218726,6082aa29c655ceb5b313bc03,64d2fd46c836a06233681665,64dc7cb8c3e124618b4411c8,,,,,,,decisionTrl,resources/DB.BMP,resources/DG.BMP,Door4,-0.317592586,0.083333333,1,0,0,0.6302,optionLeft,80,6860,3,35,0,35,0,1,,,,,,,,,,,,,,,,,,,,,,,,,,,,,,,,,,,,,,,
,,,,,,,,2023-08-16_08h38.06.053,HF_wild_card,2022.2.4,Win32,59.71218726,6082aa29c655ceb5b313bc03,64d2fd46c836a06233681665,64dc7cb8c3e124618b4411c8,,,,,,,decisionTrl,resources/DY.BMP,resources/DR.BMP,WildCard_Ex,-0.430555556,0.059259238,1,0,0,1.3137,optionLeft,5,6865,3,36,0,36,0,1,,,,,,,,,,,,,,,,,,,,,,,,,,,,,,,,,,,,,,,
,,,,,,,,2023-08-16_08h38.06.053,HF_wild_card,2022.2.4,Win32,59.71218726,6082aa29c655ceb5b313bc03,64d2fd46c836a06233681665,64dc7cb8c3e124618b4411c8,,,,,,,ctch,resources/DB.BMP,resources/DP.BMP,Door4,-0.163888861,-0.031481496,1,0,0,0.9305,optionLeft,60,6925,3,37,0,37,0,1,,,,,,,,,,,,,,,,,,,,,,,,,,,,,,,,,,,,,,,
,,,,,,,,2023-08-16_08h38.06.053,HF_wild_card,2022.2.4,Win32,59.71218726,6082aa29c655ceb5b313bc03,64d2fd46c836a06233681665,64dc7cb8c3e124618b4411c8,,,,,,,sngl,resources/DB.BMP,resources/Empty.png,Door4,-0.343518504,0.04074072,1,0,0,0.8309,optionLeft,80,7005,3,38,0,38,0,1,,,,,,,,,,,,,,,,,,,,,,,,,,,,,,,,,,,,,,,
,,,,,,,,2023-08-16_08h38.06.053,HF_wild_card,2022.2.4,Win32,59.71218726,6082aa29c655ceb5b313bc03,64d2fd46c836a06233681665,64dc7cb8c3e124618b4411c8,,,,,,,ctch,resources/DP.BMP,resources/DB.BMP,Door4,0.338888945,-0.037037037,1,0,0,0.6973,optionRight,60,7065,3,39,0,39,0,1,,,,,,,,,,,,,,,,,,,,,,,,,,,,,,,,,,,,,,,
,,,,,,,,2023-08-16_08h38.06.053,HF_wild_card,2022.2.4,Win32,59.71218726,6082aa29c655ceb5b313bc03,64d2fd46c836a06233681665,64dc7cb8c3e124618b4411c8,,,,,,,sngl,resources/Empty.png,resources/DY.BMP,WildCard_Ex,0.224074116,-0.0074074,1,0,0,0.6305,optionRight,5,7070,3,40,0,40,0,1,,,,,,,,,,,,,,,,,,,,,,,,,,,,,,,,,,,,,,,
,,,,,,,,2023-08-16_08h38.06.053,HF_wild_card,2022.2.4,Win32,59.71218726,6082aa29c655ceb5b313bc03,64d2fd46c836a06233681665,64dc7cb8c3e124618b4411c8,,,,,,,decisionTrl,resources/DB.BMP,resources/DG.BMP,Door4,-0.201851809,0.01666666,1,0,0,0.5645,optionLeft,80,7150,3,41,0,41,0,1,,,,,,,,,,,,,,,,,,,,,,,,,,,,,,,,,,,,,,,
,,,,,,,,2023-08-16_08h38.06.053,HF_wild_card,2022.2.4,Win32,59.71218726,6082aa29c655ceb5b313bc03,64d2fd46c836a06233681665,64dc7cb8c3e124618b4411c8,,,,,,,decisionTrl,resources/DR.BMP,resources/DP.BMP,Door1,0.350926011,-0.025000007,1,0,0,1.5308,optionRight,30,7180,3,42,0,42,0,1,,,,,,,,,,,,,,,,,,,,,,,,,,,,,,,,,,,,,,,
,,,,,,,,2023-08-16_08h38.06.053,HF_wild_card,2022.2.4,Win32,59.71218726,6082aa29c655ceb5b313bc03,64d2fd46c836a06233681665,64dc7cb8c3e124618b4411c8,,,,,,,sngl,resources/Empty.png,resources/DP.BMP,Door1,0.321296268,0.006481489,1,0,0,0.7142,optionRight,30,7210,3,43,0,43,0,1,,,,,,,,,,,,,,,,,,,,,,,,,,,,,,,,,,,,,,,
,,,,,,,,2023-08-16_08h38.06.053,HF_wild_card,2022.2.4,Win32,59.71218726,6082aa29c655ceb5b313bc03,64d2fd46c836a06233681665,64dc7cb8c3e124618b4411c8,,,,,,,,,,,,,,,,,,,,,,,,,,2,0,2,0,1,,,,,,,,,,,,,,,,,,,,,,,,,,,,,,,,,,
,,,,,,,,2023-08-16_08h38.06.053,HF_wild_card,2022.2.4,Win32,59.71218726,6082aa29c655ceb5b313bc03,64d2fd46c836a06233681665,64dc7cb8c3e124618b4411c8,,,,,,,decisionTrl,resources/DG.BMP,resources/DBN.BMP,WildCard_NonEx,0.410185213,0.011111118,1,0,0,1.3924,optionRight,45,7255,4,0,0,0,0,1,,,,,,,,,,,,,,,,,,,,,,,,,,,,,,,,,,,,,,,
,,,,,,,,2023-08-16_08h38.06.053,HF_wild_card,2022.2.4,Win32,59.71218726,6082aa29c655ceb5b313bc03,64d2fd46c836a06233681665,64dc7cb8c3e124618b4411c8,,,,,,,sngl,resources/DBN.BMP,resources/Empty.png,WildCard_NonEx,-0.349999993,-0.006481489,1,0,0,0.4969,optionLeft,45,7300,4,1,0,1,0,1,,,,,,,,,,,,,,,,,,,,,,,,,,,,,,,,,,,,,,,
,,,,,,,,2023-08-16_08h38.06.053,HF_wild_card,2022.2.4,Win32,59.71218726,6082aa29c655ceb5b313bc03,64d2fd46c836a06233681665,64dc7cb8c3e124618b4411c8,,,,,,,sngl,resources/DBN.BMP,resources/Empty.png,WildCard_NonEx,-0.272222236,-0.000925947,1,0,0,0.647,optionLeft,55,7355,4,2,0,2,0,1,,,,,,,,,,,,,,,,,,,,,,,,,,,,,,,,,,,,,,,
,,,,,,,,2023-08-16_08h38.06.053,HF_wild_card,2022.2.4,Win32,59.71218726,6082aa29c655ceb5b313bc03,64d2fd46c836a06233681665,64dc7cb8c3e124618b4411c8,,,,,,,ctch,resources/DG.BMP,resources/DR.BMP,Door3,-0.401851831,0.025925919,1,0,0,1.0301,optionLeft,70,7425,4,3,0,3,0,1,,,,,,,,,,,,,,,,,,,,,,,,,,,,,,,,,,,,,,,
,,,,,,,,2023-08-16_08h38.06.053,HF_wild_card,2022.2.4,Win32,59.71218726,6082aa29c655ceb5b313bc03,64d2fd46c836a06233681665,64dc7cb8c3e124618b4411c8,,,,,,,sngl,resources/DR.BMP,resources/Empty.png,Door2,-0.211111069,-0.037962984,1,0,0,0.6773,optionLeft,20,7445,4,4,0,4,0,1,,,,,,,,,,,,,,,,,,,,,,,,,,,,,,,,,,,,,,,
,,,,,,,,2023-08-16_08h38.06.053,HF_wild_card,2022.2.4,Win32,59.71218726,6082aa29c655ceb5b313bc03,64d2fd46c836a06233681665,64dc7cb8c3e124618b4411c8,,,,,,,decisionTrl,resources/DR.BMP,resources/DP.BMP,Door2,-0.308333326,-0.039814808,1,0,0,1.514,optionLeft,20,7465,4,5,0,5,0,1,,,,,,,,,,,,,,,,,,,,,,,,,,,,,,,,,,,,,,,
,,,,,,,,2023-08-16_08h38.06.053,HF_wild_card,2022.2.4,Win32,59.71218726,6082aa29c655ceb5b313bc03,64d2fd46c836a06233681665,64dc7cb8c3e124618b4411c8,,,,,,,sngl,resources/DP.BMP,resources/Empty.png,Door1,-0.229629587,0.005555541,1,0,0,0.6435,optionLeft,30,7495,4,6,0,6,0,1,,,,,,,,,,,,,,,,,,,,,,,,,,,,,,,,,,,,,,,
,,,,,,,,2023-08-16_08h38.06.053,HF_wild_card,2022.2.4,Win32,59.71218726,6082aa29c655ceb5b313bc03,64d2fd46c836a06233681665,64dc7cb8c3e124618b4411c8,,,,,,,sngl,resources/Empty.png,resources/DBN.BMP,WildCard_NonEx,0.252777806,0.049074067,1,0,0,0.7103,optionRight,45,7540,4,7,0,7,0,1,,,,,,,,,,,,,,,,,,,,,,,,,,,,,,,,,,,,,,,
,,,,,,,,2023-08-16_08h38.06.053,HF_wild_card,2022.2.4,Win32,59.71218726,6082aa29c655ceb5b313bc03,64d2fd46c836a06233681665,64dc7cb8c3e124618b4411c8,,,,,,,ctch,resources/DR.BMP,resources/DG.BMP,Door3,0.305555556,0.006481489,1,0,0,0.8808,optionRight,70,7610,4,8,0,8,0,1,,,,,,,,,,,,,,,,,,,,,,,,,,,,,,,,,,,,,,,
,,,,,,,,2023-08-16_08h38.06.053,HF_wild_card,2022.2.4,Win32,59.71218726,6082aa29c655ceb5b313bc03,64d2fd46c836a06233681665,64dc7cb8c3e124618b4411c8,,,,,,,decisionTrl,resources/DBN.BMP,resources/DP.BMP,Door1,0.275925954,0.015740748,1,0,0,2.7316,optionRight,30,7640,4,9,0,9,0,1,,,,,,,,,,,,,,,,,,,,,,,,,,,,,,,,,,,,,,,
,,,,,,,,2023-08-16_08h38.06.053,HF_wild_card,2022.2.4,Win32,59.71218726,6082aa29c655ceb5b313bc03,64d2fd46c836a06233681665,64dc7cb8c3e124618b4411c8,,,,,,,decisionTrl,resources/DG.BMP,resources/DB.BMP,Door3,-0.404629637,0.030555548,1,0,0,0.6475,optionLeft,70,7710,4,10,0,10,0,1,,,,,,,,,,,,,,,,,,,,,,,,,,,,,,,,,,,,,,,
,,,,,,,,2023-08-16_08h38.06.053,HF_wild_card,2022.2.4,Win32,59.71218726,6082aa29c655ceb5b313bc03,64d2fd46c836a06233681665,64dc7cb8c3e124618b4411c8,,,,,,,ctch,resources/DR.BMP,resources/DG.BMP,Door3,0.318518603,0.009259259,1,0,0,4.2305,optionRight,70,7780,4,11,0,11,0,1,,,,,,,,,,,,,,,,,,,,,,,,,,,,,,,,,,,,,,,
,,,,,,,,2023-08-16_08h38.06.053,HF_wild_card,2022.2.4,Win32,59.71218726,6082aa29c655ceb5b313bc03,64d2fd46c836a06233681665,64dc7cb8c3e124618b4411c8,,,,,,,decisionTrl,resources/DB.BMP,resources/DG.BMP,Door4,-0.514814801,0.011111118,1,0,0,1.1936,optionLeft,80,7860,4,12,0,12,0,1,,,,,,,,,,,,,,,,,,,,,,,,,,,,,,,,,,,,,,,
,,,,,,,,2023-08-16_08h38.06.053,HF_wild_card,2022.2.4,Win32,59.71218726,6082aa29c655ceb5b313bc03,64d2fd46c836a06233681665,64dc7cb8c3e124618b4411c8,,,,,,,decisionTrl,resources/DG.BMP,resources/DB.BMP,Door4,0.191666709,-0.019444466,1,0,0,3.8971,optionRight,80,7940,4,13,0,13,0,1,,,,,,,,,,,,,,,,,,,,,,,,,,,,,,,,,,,,,,,
,,,,,,,,2023-08-16_08h38.06.053,HF_wild_card,2022.2.4,Win32,59.71218726,6082aa29c655ceb5b313bc03,64d2fd46c836a06233681665,64dc7cb8c3e124618b4411c8,,,,,,,decisionTrl,resources/DR.BMP,resources/DP.BMP,Door2,-0.226851852,0.060185185,1,0,0,2.0641,optionLeft,20,7960,4,14,0,14,0,1,,,,,,,,,,,,,,,,,,,,,,,,,,,,,,,,,,,,,,,
,,,,,,,,2023-08-16_08h38.06.053,HF_wild_card,2022.2.4,Win32,59.71218726,6082aa29c655ceb5b313bc03,64d2fd46c836a06233681665,64dc7cb8c3e124618b4411c8,,,,,,,decisionTrl,resources/DP.BMP,resources/DR.BMP,Door2,0.157407407,0.059259238,1,0,0,4.6138,optionRight,40,8000,4,15,0,15,0,1,,,,,,,,,,,,,,,,,,,,,,,,,,,,,,,,,,,,,,,
,,,,,,,,2023-08-16_08h38.06.053,HF_wild_card,2022.2.4,Win32,59.71218726,6082aa29c655ceb5b313bc03,64d2fd46c836a06233681665,64dc7cb8c3e124618b4411c8,,,,,,,decisionTrl,resources/DG.BMP,resources/DB.BMP,Door4,0.432407379,0.072222215,1,0,0,1.4805,optionRight,80,8080,4,16,0,16,0,1,,,,,,,,,,,,,,,,,,,,,,,,,,,,,,,,,,,,,,,
,,,,,,,,2023-08-16_08h38.06.053,HF_wild_card,2022.2.4,Win32,59.71218726,6082aa29c655ceb5b313bc03,64d2fd46c836a06233681665,64dc7cb8c3e124618b4411c8,,,,,,,decisionTrl,resources/DB.BMP,resources/DG.BMP,Door4,-0.252777735,0,1,0,0,1.5642,optionLeft,60,8140,4,17,0,17,0,1,,,,,,,,,,,,,,,,,,,,,,,,,,,,,,,,,,,,,,,
,,,,,,,,2023-08-16_08h38.06.053,HF_wild_card,2022.2.4,Win32,59.71218726,6082aa29c655ceb5b313bc03,64d2fd46c836a06233681665,64dc7cb8c3e124618b4411c8,,,,,,,ctch,resources/DB.BMP,resources/DP.BMP,Door4,-0.17314812,0,1,0,0,1.2475,optionLeft,60,8200,4,18,0,18,0,1,,,,,,,,,,,,,,,,,,,,,,,,,,,,,,,,,,,,,,,
,,,,,,,,2023-08-16_08h38.06.053,HF_wild_card,2022.2.4,Win32,59.71218726,6082aa29c655ceb5b313bc03,64d2fd46c836a06233681665,64dc7cb8c3e124618b4411c8,,,,,,,sngl,resources/DG.BMP,resources/Empty.png,Door3,-0.178703661,0.022222201,1,0,0,0.7643,optionLeft,70,8270,4,19,0,19,0,1,,,,,,,,,,,,,,,,,,,,,,,,,,,,,,,,,,,,,,,
,,,,,,,,2023-08-16_08h38.06.053,HF_wild_card,2022.2.4,Win32,59.71218726,6082aa29c655ceb5b313bc03,64d2fd46c836a06233681665,64dc7cb8c3e124618b4411c8,,,,,,,sngl,resources/Empty.png,resources/DG.BMP,Door3,0.257407436,-0.022222236,1,0,0,0.8472,optionRight,70,8340,4,20,0,20,0,1,,,,,,,,,,,,,,,,,,,,,,,,,,,,,,,,,,,,,,,
,,,,,,,,2023-08-16_08h38.06.053,HF_wild_card,2022.2.4,Win32,59.71218726,6082aa29c655ceb5b313bc03,64d2fd46c836a06233681665,64dc7cb8c3e124618b4411c8,,,,,,,sngl,resources/DB.BMP,resources/Empty.png,Door4,-0.208333333,0.020370377,1,0,0,0.6805,optionLeft,60,8400,4,21,0,21,0,1,,,,,,,,,,,,,,,,,,,,,,,,,,,,,,,,,,,,,,,
,,,,,,,,2023-08-16_08h38.06.053,HF_wild_card,2022.2.4,Win32,59.71218726,6082aa29c655ceb5b313bc03,64d2fd46c836a06233681665,64dc7cb8c3e124618b4411c8,,,,,,,decisionTrl,resources/DR.BMP,resources/DP.BMP,Door2,-0.23055557,-0.015740748,1,0,0,0.847,optionLeft,40,8440,4,22,0,22,0,1,,,,,,,,,,,,,,,,,,,,,,,,,,,,,,,,,,,,,,,
,,,,,,,,2023-08-16_08h38.06.053,HF_wild_card,2022.2.4,Win32,59.71218726,6082aa29c655ceb5b313bc03,64d2fd46c836a06233681665,64dc7cb8c3e124618b4411c8,,,,,,,decisionTrl,resources/DR.BMP,resources/DP.BMP,Door1,0.123148176,0.049999979,1,0,0,1.6642,optionRight,30,8470,4,23,0,23,0,1,,,,,,,,,,,,,,,,,,,,,,,,,,,,,,,,,,,,,,,
,,,,,,,,2023-08-16_08h38.06.053,HF_wild_card,2022.2.4,Win32,59.71218726,6082aa29c655ceb5b313bc03,64d2fd46c836a06233681665,64dc7cb8c3e124618b4411c8,,,,,,,decisionTrl,resources/DBN.BMP,resources/DB.BMP,Door4,0.407407407,0.02407406,1,0,0,1.4477,optionRight,80,8550,4,24,0,24,0,1,,,,,,,,,,,,,,,,,,,,,,,,,,,,,,,,,,,,,,,
,,,,,,,,2023-08-16_08h38.06.053,HF_wild_card,2022.2.4,Win32,59.71218726,6082aa29c655ceb5b313bc03,64d2fd46c836a06233681665,64dc7cb8c3e124618b4411c8,,,,,,,decisionTrl,resources/DBN.BMP,resources/DG.BMP,Door3,0.275925954,-0.000925947,1,0,0,3.3125,optionRight,70,8620,4,25,0,25,0,1,,,,,,,,,,,,,,,,,,,,,,,,,,,,,,,,,,,,,,,
,,,,,,,,2023-08-16_08h38.06.053,HF_wild_card,2022.2.4,Win32,59.71218726,6082aa29c655ceb5b313bc03,64d2fd46c836a06233681665,64dc7cb8c3e124618b4411c8,,,,,,,decisionTrl,resources/DB.BMP,resources/DG.BMP,Door4,-0.224999958,0.013888889,1,0,0,1.1643,optionLeft,60,8680,4,26,0,26,0,1,,,,,,,,,,,,,,,,,,,,,,,,,,,,,,,,,,,,,,,
,,,,,,,,2023-08-16_08h38.06.053,HF_wild_card,2022.2.4,Win32,59.71218726,6082aa29c655ceb5b313bc03,64d2fd46c836a06233681665,64dc7cb8c3e124618b4411c8,,,,,,,decisionTrl,resources/DB.BMP,resources/DG.BMP,Door4,-0.345370363,0.023148148,1,0,0,2.6473,optionLeft,60,8740,4,27,0,27,0,1,,,,,,,,,,,,,,,,,,,,,,,,,,,,,,,,,,,,,,,
,,,,,,,,2023-08-16_08h38.06.053,HF_wild_card,2022.2.4,Win32,59.71218726,6082aa29c655ceb5b313bc03,64d2fd46c836a06233681665,64dc7cb8c3e124618b4411c8,,,,,,,decisionTrl,resources/DB.BMP,resources/DBN.BMP,Door4,-0.525925919,0.034259266,1,0,0,3.1302,optionLeft,80,8820,4,28,0,28,0,1,,,,,,,,,,,,,,,,,,,,,,,,,,,,,,,,,,,,,,,
,,,,,,,,2023-08-16_08h38.06.053,HF_wild_card,2022.2.4,Win32,59.71218726,6082aa29c655ceb5b313bc03,64d2fd46c836a06233681665,64dc7cb8c3e124618b4411c8,,,,,,,decisionTrl,resources/DP.BMP,resources/DR.BMP,Door2,0.440740797,0.041666667,1,0,0,1.2098,optionRight,20,8840,4,29,0,29,0,1,,,,,,,,,,,,,,,,,,,,,,,,,,,,,,,,,,,,,,,
,,,,,,,,2023-08-16_08h38.06.053,HF_wild_card,2022.2.4,Win32,59.71218726,6082aa29c655ceb5b313bc03,64d2fd46c836a06233681665,64dc7cb8c3e124618b4411c8,,,,,,,sngl,resources/Empty.png,resources/DR.BMP,Door2,0.233333376,-0.006481489,1,0,0,0.614,optionRight,40,8880,4,30,0,30,0,1,,,,,,,,,,,,,,,,,,,,,,,,,,,,,,,,,,,,,,,
,,,,,,,,2023-08-16_08h38.06.053,HF_wild_card,2022.2.4,Win32,59.71218726,6082aa29c655ceb5b313bc03,64d2fd46c836a06233681665,64dc7cb8c3e124618b4411c8,,,,,,,sngl,resources/Empty.png,resources/DB.BMP,Door4,0.187037079,-0.023148148,1,0,0,0.6139,optionRight,80,8960,4,31,0,31,0,1,,,,,,,,,,,,,,,,,,,,,,,,,,,,,,,,,,,,,,,
,,,,,,,,2023-08-16_08h38.06.053,HF_wild_card,2022.2.4,Win32,59.71218726,6082aa29c655ceb5b313bc03,64d2fd46c836a06233681665,64dc7cb8c3e124618b4411c8,,,,,,,sngl,resources/Empty.png,resources/DBN.BMP,WildCard_NonEx,0.211111139,-0.002777771,1,0,0,0.9138,optionRight,55,9015,4,32,0,32,0,1,,,,,,,,,,,,,,,,,,,,,,,,,,,,,,,,,,,,,,,
,,,,,,,,2023-08-16_08h38.06.053,HF_wild_card,2022.2.4,Win32,59.71218726,6082aa29c655ceb5b313bc03,64d2fd46c836a06233681665,64dc7cb8c3e124618b4411c8,,,,,,,decisionTrl,resources/DP.BMP,resources/DBN.BMP,Door1,-0.143518519,0.00462963,1,0,0,2.0467,optionLeft,30,9045,4,33,0,33,0,1,,,,,,,,,,,,,,,,,,,,,,,,,,,,,,,,,,,,,,,
,,,,,,,,2023-08-16_08h38.06.053,HF_wild_card,2022.2.4,Win32,59.71218726,6082aa29c655ceb5b313bc03,64d2fd46c836a06233681665,64dc7cb8c3e124618b4411c8,,,,,,,ctch,resources/DP.BMP,resources/DB.BMP,Door4,0.338888945,0.02870369,1,0,0,0.7636,optionRight,60,9105,4,34,0,34,0,1,,,,,,,,,,,,,,,,,,,,,,,,,,,,,,,,,,,,,,,
,,,,,,,,2023-08-16_08h38.06.053,HF_wild_card,2022.2.4,Win32,59.71218726,6082aa29c655ceb5b313bc03,64d2fd46c836a06233681665,64dc7cb8c3e124618b4411c8,,,,,,,decisionTrl,resources/DBN.BMP,resources/DR.BMP,WildCard_NonEx,-0.234259217,0.009259259,1,0,0,1.4436,optionLeft,45,9150,4,35,0,35,0,1,,,,,,,,,,,,,,,,,,,,,,,,,,,,,,,,,,,,,,,
,,,,,,,,2023-08-16_08h38.06.053,HF_wild_card,2022.2.4,Win32,59.71218726,6082aa29c655ceb5b313bc03,64d2fd46c836a06233681665,64dc7cb8c3e124618b4411c8,,,,,,,ctch,resources/DB.BMP,resources/DP.BMP,Door4,-0.22592594,-0.00462963,1,0,0,0.7306,optionLeft,60,9210,4,36,0,36,0,1,,,,,,,,,,,,,,,,,,,,,,,,,,,,,,,,,,,,,,,
,,,,,,,,2023-08-16_08h38.06.053,HF_wild_card,2022.2.4,Win32,59.71218726,6082aa29c655ceb5b313bc03,64d2fd46c836a06233681665,64dc7cb8c3e124618b4411c8,,,,,,,sngl,resources/Empty.png,resources/DP.BMP,Door1,0.287962949,0.003703683,1,0,0,1.8797,optionRight,30,9240,4,37,0,37,0,1,,,,,,,,,,,,,,,,,,,,,,,,,,,,,,,,,,,,,,,
,,,,,,,,2023-08-16_08h38.06.053,HF_wild_card,2022.2.4,Win32,59.71218726,6082aa29c655ceb5b313bc03,64d2fd46c836a06233681665,64dc7cb8c3e124618b4411c8,,,,,,,decisionTrl,resources/DP.BMP,resources/DR.BMP,Door2,0.248148176,0.003703683,1,0,0,1.2466,optionRight,40,9280,4,38,0,38,0,1,,,,,,,,,,,,,,,,,,,,,,,,,,,,,,,,,,,,,,,
,,,,,,,,2023-08-16_08h38.06.053,HF_wild_card,2022.2.4,Win32,59.71218726,6082aa29c655ceb5b313bc03,64d2fd46c836a06233681665,64dc7cb8c3e124618b4411c8,,,,,,,ctch,resources/DP.BMP,resources/DB.BMP,Door4,0.218518504,-0.018518519,1,0,0,0.7148,optionRight,60,9340,4,39,0,39,0,1,,,,,,,,,,,,,,,,,,,,,,,,,,,,,,,,,,,,,,,
,,,,,,,,2023-08-16_08h38.06.053,HF_wild_card,2022.2.4,Win32,59.71218726,6082aa29c655ceb5b313bc03,64d2fd46c836a06233681665,64dc7cb8c3e124618b4411c8,,,,,,,decisionTrl,resources/DR.BMP,resources/DBN.BMP,WildCard_NonEx,0.250925912,-0.034259266,1,0,0,1.2302,optionRight,55,9395,4,40,0,40,0,1,,,,,,,,,,,,,,,,,,,,,,,,,,,,,,,,,,,,,,,
,,,,,,,,2023-08-16_08h38.06.053,HF_wild_card,2022.2.4,Win32,59.71218726,6082aa29c655ceb5b313bc03,64d2fd46c836a06233681665,64dc7cb8c3e124618b4411c8,,,,,,,decisionTrl,resources/DG.BMP,resources/DB.BMP,Door4,0.501851824,-0.008333347,1,0,0,3.2435,optionRight,60,9455,4,41,0,41,0,1,,,,,,,,,,,,,,,,,,,,,,,,,,,,,,,,,,,,,,,
,,,,,,,,2023-08-16_08h38.06.053,HF_wild_card,2022.2.4,Win32,59.71218726,6082aa29c655ceb5b313bc03,64d2fd46c836a06233681665,64dc7cb8c3e124618b4411c8,,,,,,,decisionTrl,resources/DP.BMP,resources/DR.BMP,Door1,-0.27407406,-0.01203703,1,0,0,1.3472,optionLeft,30,9485,4,42,0,42,0,1,,,,,,,,,,,,,,,,,,,,,,,,,,,,,,,,,,,,,,,
,,,,,,,,2023-08-16_08h38.06.053,HF_wild_card,2022.2.4,Win32,59.71218726,6082aa29c655ceb5b313bc03,64d2fd46c836a06233681665,64dc7cb8c3e124618b4411c8,,,,,,,ctch,resources/DG.BMP,resources/DR.BMP,Door2,0.275000042,-0.011111118,1,0,0,0.5635,optionRight,20,9505,4,43,0,43,0,1,,,,,,,,,,,,,,,,,,,,,,,,,,,,,,,,,,,,,,,
,,,,,,,,2023-08-16_08h38.06.053,HF_wild_card,2022.2.4,Win32,59.71218726,6082aa29c655ceb5b313bc03,64d2fd46c836a06233681665,64dc7cb8c3e124618b4411c8,,,,,,,,,,,,,,,,,,,,,,,,,,3,0,3,0,1,,,,,,,,,,,,,,,,,,,,,,,,,,,,,,,,,,
,,,,,,,,2023-08-16_08h38.06.053,HF_wild_card,2022.2.4,Win32,59.71218726,6082aa29c655ceb5b313bc03,64d2fd46c836a06233681665,64dc7cb8c3e124618b4411c8,,,,,,,decisionTrl,resources/DB.BMP,resources/DBN.BMP,Door4,-0.223148134,0.093518504,1,0,0,1.6753,optionLeft,80,9585,5,0,0,0,0,1,,,,,,,,,,,,,,,,,,,,,,,,,,,,,,,,,,,,,,,
,,,,,,,,2023-08-16_08h38.06.053,HF_wild_card,2022.2.4,Win32,59.71218726,6082aa29c655ceb5b313bc03,64d2fd46c836a06233681665,64dc7cb8c3e124618b4411c8,,,,,,,sngl,resources/DBN.BMP,resources/Empty.png,WildCard_NonEx,-0.203703704,-0.072222215,1,0,0,1.8766,optionLeft,45,9630,5,1,0,1,0,1,,,,,,,,,,,,,,,,,,,,,,,,,,,,,,,,,,,,,,,
,,,,,,,,2023-08-16_08h38.06.053,HF_wild_card,2022.2.4,Win32,59.71218726,6082aa29c655ceb5b313bc03,64d2fd46c836a06233681665,64dc7cb8c3e124618b4411c8,,,,,,,decisionTrl,resources/DR.BMP,resources/DP.BMP,Door1,0.18240745,-0.031481496,1,0,0,1.4471,optionRight,30,9660,5,2,0,2,0,1,,,,,,,,,,,,,,,,,,,,,,,,,,,,,,,,,,,,,,,
,,,,,,,,2023-08-16_08h38.06.053,HF_wild_card,2022.2.4,Win32,59.71218726,6082aa29c655ceb5b313bc03,64d2fd46c836a06233681665,64dc7cb8c3e124618b4411c8,,,,,,,decisionTrl,resources/DG.BMP,resources/DB.BMP,Door3,-0.289814772,0.01203703,1,0,0,2.1638,optionLeft,70,9730,5,3,0,3,0,1,,,,,,,,,,,,,,,,,,,,,,,,,,,,,,,,,,,,,,,
,,,,,,,,2023-08-16_08h38.06.053,HF_wild_card,2022.2.4,Win32,59.71218726,6082aa29c655ceb5b313bc03,64d2fd46c836a06233681665,64dc7cb8c3e124618b4411c8,,,,,,,decisionTrl,resources/DP.BMP,resources/DR.BMP,Door2,0.325925898,0.021296289,1,0,0,2.4808,optionRight,20,9750,5,4,0,4,0,1,,,,,,,,,,,,,,,,,,,,,,,,,,,,,,,,,,,,,,,
,,,,,,,,2023-08-16_08h38.06.053,HF_wild_card,2022.2.4,Win32,59.71218726,6082aa29c655ceb5b313bc03,64d2fd46c836a06233681665,64dc7cb8c3e124618b4411c8,,,,,,,decisionTrl,resources/DP.BMP,resources/DR.BMP,Door1,-0.497222229,0.049999979,1,0,0,1.1308,optionLeft,30,9780,5,5,0,5,0,1,,,,,,,,,,,,,,,,,,,,,,,,,,,,,,,,,,,,,,,
,,,,,,,,2023-08-16_08h38.06.053,HF_wild_card,2022.2.4,Win32,59.71218726,6082aa29c655ceb5b313bc03,64d2fd46c836a06233681665,64dc7cb8c3e124618b4411c8,,,,,,,sngl,resources/DR.BMP,resources/Empty.png,Door2,-0.466666645,-0.009259259,1,0,0,0.603,optionLeft,40,9820,5,6,0,6,0,1,,,,,,,,,,,,,,,,,,,,,,,,,,,,,,,,,,,,,,,
,,,,,,,,2023-08-16_08h38.06.053,HF_wild_card,2022.2.4,Win32,59.71218726,6082aa29c655ceb5b313bc03,64d2fd46c836a06233681665,64dc7cb8c3e124618b4411c8,,,,,,,decisionTrl,resources/DB.BMP,resources/DG.BMP,Door4,-0.26944443,-0.003703718,1,0,0,1.8594,optionLeft,80,9900,5,7,0,7,0,1,,,,,,,,,,,,,,,,,,,,,,,,,,,,,,,,,,,,,,,
,,,,,,,,2023-08-16_08h38.06.053,HF_wild_card,2022.2.4,Win32,59.71218726,6082aa29c655ceb5b313bc03,64d2fd46c836a06233681665,64dc7cb8c3e124618b4411c8,,,,,,,ctch,resources/DG.BMP,resources/DR.BMP,Door3,-0.335185192,0.072222215,1,0,0,6.3095,optionLeft,70,9970,5,8,0,8,0,1,,,,,,,,,,,,,,,,,,,,,,,,,,,,,,,,,,,,,,,
,,,,,,,,2023-08-16_08h38.06.053,HF_wild_card,2022.2.4,Win32,59.71218726,6082aa29c655ceb5b313bc03,64d2fd46c836a06233681665,64dc7cb8c3e124618b4411c8,,,,,,,sngl,resources/DP.BMP,resources/Empty.png,Door1,-0.324074074,-0.060185185,1,0,0,1.1135,optionLeft,30,10000,5,9,0,9,0,1,,,,,,,,,,,,,,,,,,,,,,,,,,,,,,,,,,,,,,,
,,,,,,,,2023-08-16_08h38.06.053,HF_wild_card,2022.2.4,Win32,59.71218726,6082aa29c655ceb5b313bc03,64d2fd46c836a06233681665,64dc7cb8c3e124618b4411c8,,,,,,,decisionTrl,resources/DB.BMP,resources/DG.BMP,Door4,-0.499074053,-0.022222236,1,0,0,1.047,optionLeft,80,10080,5,10,0,10,0,1,,,,,,,,,,,,,,,,,,,,,,,,,,,,,,,,,,,,,,,
,,,,,,,,2023-08-16_08h38.06.053,HF_wild_card,2022.2.4,Win32,59.71218726,6082aa29c655ceb5b313bc03,64d2fd46c836a06233681665,64dc7cb8c3e124618b4411c8,,,,,,,decisionTrl,resources/DBN.BMP,resources/DP.BMP,WildCard_NonEx,-0.17314812,-0.001851859,1,0,0,1.7641,optionLeft,45,10125,5,11,0,11,0,1,,,,,,,,,,,,,,,,,,,,,,,,,,,,,,,,,,,,,,,
,,,,,,,,2023-08-16_08h38.06.053,HF_wild_card,2022.2.4,Win32,59.71218726,6082aa29c655ceb5b313bc03,64d2fd46c836a06233681665,64dc7cb8c3e124618b4411c8,,,,,,,decisionTrl,resources/DBN.BMP,resources/DB.BMP,Door4,0.406481566,-0.023148148,1,0,0,0.8471,optionRight,80,10205,5,12,0,12,0,1,,,,,,,,,,,,,,,,,,,,,,,,,,,,,,,,,,,,,,,
,,,,,,,,2023-08-16_08h38.06.053,HF_wild_card,2022.2.4,Win32,59.71218726,6082aa29c655ceb5b313bc03,64d2fd46c836a06233681665,64dc7cb8c3e124618b4411c8,,,,,,,decisionTrl,resources/DG.BMP,resources/DB.BMP,Door4,0.185185185,0.01203703,1,0,0,0.7139,optionRight,80,10285,5,13,0,13,0,1,,,,,,,,,,,,,,,,,,,,,,,,,,,,,,,,,,,,,,,
,,,,,,,,2023-08-16_08h38.06.053,HF_wild_card,2022.2.4,Win32,59.71218726,6082aa29c655ceb5b313bc03,64d2fd46c836a06233681665,64dc7cb8c3e124618b4411c8,,,,,,,sngl,resources/DG.BMP,resources/Empty.png,Door3,-0.202777792,-0.013888889,1,0,0,0.7478,optionLeft,70,10355,5,14,0,14,0,1,,,,,,,,,,,,,,,,,,,,,,,,,,,,,,,,,,,,,,,
,,,,,,,,2023-08-16_08h38.06.053,HF_wild_card,2022.2.4,Win32,59.71218726,6082aa29c655ceb5b313bc03,64d2fd46c836a06233681665,64dc7cb8c3e124618b4411c8,,,,,,,ctch,resources/DP.BMP,resources/DB.BMP,Door4,0.288888931,-0.037037037,1,0,0,0.6439,optionRight,60,10415,5,15,0,15,0,1,,,,,,,,,,,,,,,,,,,,,,,,,,,,,,,,,,,,,,,
,,,,,,,,2023-08-16_08h38.06.053,HF_wild_card,2022.2.4,Win32,59.71218726,6082aa29c655ceb5b313bc03,64d2fd46c836a06233681665,64dc7cb8c3e124618b4411c8,,,,,,,decisionTrl,resources/DB.BMP,resources/DG.BMP,Door3,0.365740741,0.000925912,1,0,0,11.2132,optionRight,70,10485,5,16,0,16,0,1,,,,,,,,,,,,,,,,,,,,,,,,,,,,,,,,,,,,,,,
,,,,,,,,2023-08-16_08h38.06.053,HF_wild_card,2022.2.4,Win32,59.71218726,6082aa29c655ceb5b313bc03,64d2fd46c836a06233681665,64dc7cb8c3e124618b4411c8,,,,,,,sngl,resources/Empty.png,resources/DR.BMP,Door2,0.209259245,0.018518519,1,0,0,0.764,optionRight,20,10505,5,17,0,17,0,1,,,,,,,,,,,,,,,,,,,,,,,,,,,,,,,,,,,,,,,
,,,,,,,,2023-08-16_08h38.06.053,HF_wild_card,2022.2.4,Win32,59.71218726,6082aa29c655ceb5b313bc03,64d2fd46c836a06233681665,64dc7cb8c3e124618b4411c8,,,,,,,decisionTrl,resources/DBN.BMP,resources/DR.BMP,WildCard_NonEx,-0.22592594,0.050925926,1,0,0,4.4433,optionLeft,45,10550,5,18,0,18,0,1,,,,,,,,,,,,,,,,,,,,,,,,,,,,,,,,,,,,,,,
,,,,,,,,2023-08-16_08h38.06.053,HF_wild_card,2022.2.4,Win32,59.71218726,6082aa29c655ceb5b313bc03,64d2fd46c836a06233681665,64dc7cb8c3e124618b4411c8,,,,,,,ctch,resources/DP.BMP,resources/DB.BMP,Door4,0.464814787,-0.018518519,1,0,0,1.7971,optionRight,60,10610,5,19,0,19,0,1,,,,,,,,,,,,,,,,,,,,,,,,,,,,,,,,,,,,,,,
,,,,,,,,2023-08-16_08h38.06.053,HF_wild_card,2022.2.4,Win32,59.71218726,6082aa29c655ceb5b313bc03,64d2fd46c836a06233681665,64dc7cb8c3e124618b4411c8,,,,,,,decisionTrl,resources/DBN.BMP,resources/DG.BMP,WildCard_NonEx,-0.360185164,-0.001851859,1,0,0,1.8599,optionLeft,55,10665,5,20,0,20,0,1,,,,,,,,,,,,,,,,,,,,,,,,,,,,,,,,,,,,,,,
,,,,,,,,2023-08-16_08h38.06.053,HF_wild_card,2022.2.4,Win32,59.71218726,6082aa29c655ceb5b313bc03,64d2fd46c836a06233681665,64dc7cb8c3e124618b4411c8,,,,,,,decisionTrl,resources/DR.BMP,resources/DBN.BMP,WildCard_NonEx,0.50462963,-0.058333326,1,0,0,0.647,optionRight,45,10710,5,21,0,21,0,1,,,,,,,,,,,,,,,,,,,,,,,,,,,,,,,,,,,,,,,
,,,,,,,,2023-08-16_08h38.06.053,HF_wild_card,2022.2.4,Win32,59.71218726,6082aa29c655ceb5b313bc03,64d2fd46c836a06233681665,64dc7cb8c3e124618b4411c8,,,,,,,ctch,resources/DR.BMP,resources/DG.BMP,Door3,0.467592593,-0.055555556,1,0,0,0.8972,optionRight,70,10780,5,22,0,22,0,1,,,,,,,,,,,,,,,,,,,,,,,,,,,,,,,,,,,,,,,
,,,,,,,,2023-08-16_08h38.06.053,HF_wild_card,2022.2.4,Win32,59.71218726,6082aa29c655ceb5b313bc03,64d2fd46c836a06233681665,64dc7cb8c3e124618b4411c8,,,,,,,sngl,resources/Empty.png,resources/DG.BMP,Door3,0.41851849,-0.082407422,1,0,0,0.9429,optionRight,70,10850,5,23,0,23,0,1,,,,,,,,,,,,,,,,,,,,,,,,,,,,,,,,,,,,,,,
,,,,,,,,2023-08-16_08h38.06.053,HF_wild_card,2022.2.4,Win32,59.71218726,6082aa29c655ceb5b313bc03,64d2fd46c836a06233681665,64dc7cb8c3e124618b4411c8,,,,,,,sngl,resources/DB.BMP,resources/Empty.png,Door4,-0.313888868,-0.037962984,1,0,0,1.9632,optionLeft,80,10930,5,24,0,24,0,1,,,,,,,,,,,,,,,,,,,,,,,,,,,,,,,,,,,,,,,
,,,,,,,,2023-08-16_08h38.06.053,HF_wild_card,2022.2.4,Win32,59.71218726,6082aa29c655ceb5b313bc03,64d2fd46c836a06233681665,64dc7cb8c3e124618b4411c8,,,,,,,sngl,resources/Empty.png,resources/DBN.BMP,WildCard_NonEx,0.341666751,-0.024074095,1,0,0,2.7269,optionRight,45,10975,5,25,0,25,0,1,,,,,,,,,,,,,,,,,,,,,,,,,,,,,,,,,,,,,,,
,,,,,,,,2023-08-16_08h38.06.053,HF_wild_card,2022.2.4,Win32,59.71218726,6082aa29c655ceb5b313bc03,64d2fd46c836a06233681665,64dc7cb8c3e124618b4411c8,,,,,,,decisionTrl,resources/DR.BMP,resources/DP.BMP,Door2,-0.474999993,0.137962942,1,0,0,7.3464,optionLeft,40,11015,5,26,0,26,0,1,,,,,,,,,,,,,,,,,,,,,,,,,,,,,,,,,,,,,,,
,,,,,,,,2023-08-16_08h38.06.053,HF_wild_card,2022.2.4,Win32,59.71218726,6082aa29c655ceb5b313bc03,64d2fd46c836a06233681665,64dc7cb8c3e124618b4411c8,,,,,,,ctch,resources/DR.BMP,resources/DG.BMP,Door3,0.415740826,-0.027777778,1,0,0,1.2933,optionRight,70,11085,5,27,0,27,0,1,,,,,,,,,,,,,,,,,,,,,,,,,,,,,,,,,,,,,,,
,,,,,,,,2023-08-16_08h38.06.053,HF_wild_card,2022.2.4,Win32,59.71218726,6082aa29c655ceb5b313bc03,64d2fd46c836a06233681665,64dc7cb8c3e124618b4411c8,,,,,,,ctch,resources/DB.BMP,resources/DP.BMP,Door4,-0.268518519,-0.080555563,1,0,0,1.127,optionLeft,60,11145,5,28,0,28,0,1,,,,,,,,,,,,,,,,,,,,,,,,,,,,,,,,,,,,,,,
,,,,,,,,2023-08-16_08h38.06.053,HF_wild_card,2022.2.4,Win32,59.71218726,6082aa29c655ceb5b313bc03,64d2fd46c836a06233681665,64dc7cb8c3e124618b4411c8,,,,,,,sngl,resources/Empty.png,resources/DP.BMP,Door1,0.562962991,0.02407406,1,0,0,0.7772,optionRight,30,11175,5,29,0,29,0,1,,,,,,,,,,,,,,,,,,,,,,,,,,,,,,,,,,,,,,,
,,,,,,,,2023-08-16_08h38.06.053,HF_wild_card,2022.2.4,Win32,59.71218726,6082aa29c655ceb5b313bc03,64d2fd46c836a06233681665,64dc7cb8c3e124618b4411c8,,,,,,,decisionTrl,resources/DB.BMP,resources/DG.BMP,Door3,0.420370455,-0.062962956,1,0,0,2.5636,optionRight,70,11245,5,30,0,30,0,1,,,,,,,,,,,,,,,,,,,,,,,,,,,,,,,,,,,,,,,
,,,,,,,,2023-08-16_08h38.06.053,HF_wild_card,2022.2.4,Win32,59.71218726,6082aa29c655ceb5b313bc03,64d2fd46c836a06233681665,64dc7cb8c3e124618b4411c8,,,,,,,decisionTrl,resources/DR.BMP,resources/DP.BMP,Door2,-0.359259252,-0.015740748,1,0,0,1.2249,optionLeft,40,11285,5,31,0,31,0,1,,,,,,,,,,,,,,,,,,,,,,,,,,,,,,,,,,,,,,,
,,,,,,,,2023-08-16_08h38.06.053,HF_wild_card,2022.2.4,Win32,59.71218726,6082aa29c655ceb5b313bc03,64d2fd46c836a06233681665,64dc7cb8c3e124618b4411c8,,,,,,,decisionTrl,resources/DP.BMP,resources/DR.BMP,Door1,-0.111111111,0.042592578,1,0,0,1.5305,optionLeft,30,11315,5,32,0,32,0,1,,,,,,,,,,,,,,,,,,,,,,,,,,,,,,,,,,,,,,,
,,,,,,,,2023-08-16_08h38.06.053,HF_wild_card,2022.2.4,Win32,59.71218726,6082aa29c655ceb5b313bc03,64d2fd46c836a06233681665,64dc7cb8c3e124618b4411c8,,,,,,,ctch,resources/DG.BMP,resources/DR.BMP,Door3,-0.372222229,-0.043518526,1,0,0,1.1309,optionLeft,70,11385,5,33,0,33,0,1,,,,,,,,,,,,,,,,,,,,,,,,,,,,,,,,,,,,,,,
,,,,,,,,2023-08-16_08h38.06.053,HF_wild_card,2022.2.4,Win32,59.71218726,6082aa29c655ceb5b313bc03,64d2fd46c836a06233681665,64dc7cb8c3e124618b4411c8,,,,,,,sngl,resources/Empty.png,resources/DB.BMP,Door4,0.352777834,-0.042592614,1,0,0,0.6142,optionRight,60,11445,5,34,0,34,0,1,,,,,,,,,,,,,,,,,,,,,,,,,,,,,,,,,,,,,,,
,,,,,,,,2023-08-16_08h38.06.053,HF_wild_card,2022.2.4,Win32,59.71218726,6082aa29c655ceb5b313bc03,64d2fd46c836a06233681665,64dc7cb8c3e124618b4411c8,,,,,,,ctch,resources/DB.BMP,resources/DP.BMP,Door4,-0.228703675,-0.027777778,1,0,0,0.864,optionLeft,60,11505,5,35,0,35,0,1,,,,,,,,,,,,,,,,,,,,,,,,,,,,,,,,,,,,,,,
,,,,,,,,2023-08-16_08h38.06.053,HF_wild_card,2022.2.4,Win32,59.71218726,6082aa29c655ceb5b313bc03,64d2fd46c836a06233681665,64dc7cb8c3e124618b4411c8,,,,,,,sngl,resources/Empty.png,resources/DBN.BMP,WildCard_NonEx,0.312037009,-0.01666666,1,0,0,0.6299,optionRight,55,11560,5,36,0,36,0,1,,,,,,,,,,,,,,,,,,,,,,,,,,,,,,,,,,,,,,,
,,,,,,,,2023-08-16_08h38.06.053,HF_wild_card,2022.2.4,Win32,59.71218726,6082aa29c655ceb5b313bc03,64d2fd46c836a06233681665,64dc7cb8c3e124618b4411c8,,,,,,,decisionTrl,resources/DP.BMP,resources/DBN.BMP,WildCard_NonEx,0.283333319,0.057407414,1,0,0,6.0967,optionRight,45,11605,5,37,0,37,0,1,,,,,,,,,,,,,,,,,,,,,,,,,,,,,,,,,,,,,,,
,,,,,,,,2023-08-16_08h38.06.053,HF_wild_card,2022.2.4,Win32,59.71218726,6082aa29c655ceb5b313bc03,64d2fd46c836a06233681665,64dc7cb8c3e124618b4411c8,,,,,,,decisionTrl,resources/DG.BMP,resources/DB.BMP,Door4,0.249074088,0.030555548,1,0,0,1.7475,optionRight,80,11685,5,38,0,38,0,1,,,,,,,,,,,,,,,,,,,,,,,,,,,,,,,,,,,,,,,
,,,,,,,,2023-08-16_08h38.06.053,HF_wild_card,2022.2.4,Win32,59.71218726,6082aa29c655ceb5b313bc03,64d2fd46c836a06233681665,64dc7cb8c3e124618b4411c8,,,,,,,decisionTrl,resources/DP.BMP,resources/DR.BMP,Door1,-0.39907406,-0.104629658,1,0,0,1.4602,optionLeft,30,11715,5,39,0,39,0,1,,,,,,,,,,,,,,,,,,,,,,,,,,,,,,,,,,,,,,,
,,,,,,,,2023-08-16_08h38.06.053,HF_wild_card,2022.2.4,Win32,59.71218726,6082aa29c655ceb5b313bc03,64d2fd46c836a06233681665,64dc7cb8c3e124618b4411c8,,,,,,,decisionTrl,resources/DR.BMP,resources/DP.BMP,Door2,-0.339814822,-0.039814808,1,0,0,2.1765,optionLeft,20,11735,5,40,0,40,0,1,,,,,,,,,,,,,,,,,,,,,,,,,,,,,,,,,,,,,,,
,,,,,,,,2023-08-16_08h38.06.053,HF_wild_card,2022.2.4,Win32,59.71218726,6082aa29c655ceb5b313bc03,64d2fd46c836a06233681665,64dc7cb8c3e124618b4411c8,,,,,,,decisionTrl,resources/DG.BMP,resources/DB.BMP,Door4,0.267592607,-0.006481489,1,0,0,1.3977,optionRight,60,11795,5,41,0,41,0,1,,,,,,,,,,,,,,,,,,,,,,,,,,,,,,,,,,,,,,,
,,,,,,,,2023-08-16_08h38.06.053,HF_wild_card,2022.2.4,Win32,59.71218726,6082aa29c655ceb5b313bc03,64d2fd46c836a06233681665,64dc7cb8c3e124618b4411c8,,,,,,,sngl,resources/DBN.BMP,resources/Empty.png,WildCard_NonEx,-0.222222222,-0.015740748,1,0,0,0.6805,optionLeft,55,11850,5,42,0,42,0,1,,,,,,,,,,,,,,,,,,,,,,,,,,,,,,,,,,,,,,,
,,,,,,,,2023-08-16_08h38.06.053,HF_wild_card,2022.2.4,Win32,59.71218726,6082aa29c655ceb5b313bc03,64d2fd46c836a06233681665,64dc7cb8c3e124618b4411c8,,,,,,,decisionTrl,resources/DG.BMP,resources/DBN.BMP,Door3,-0.409259266,0.014814801,1,0,0,0.7475,optionLeft,70,11920,5,43,0,43,0,1,,,,,,,,,,,,,,,,,,,,,,,,,,,,,,,,,,,,,,,
,,,,,,,,2023-08-16_08h38.06.053,HF_wild_card,2022.2.4,Win32,59.71218726,6082aa29c655ceb5b313bc03,64d2fd46c836a06233681665,64dc7cb8c3e124618b4411c8,,,,,,,,,,,,,,,,,,,,,,,,,,4,0,4,0,1,,,,,,,,,,,,,,,,,,,,,,,,,,,,,,,,,,
,,,,,,,,2023-08-16_08h38.06.053,HF_wild_card,2022.2.4,Win32,59.71218726,6082aa29c655ceb5b313bc03,64d2fd46c836a06233681665,64dc7cb8c3e124618b4411c8,,,,,,,decisionTrl,resources/DP.BMP,resources/DR.BMP,Door2,0.449074074,0.094444452,1,0,0,2.0929,optionRight,40,11960,6,0,0,0,0,1,,,,,,,,,,,,,,,,,,,,,,,,,,,,,,,,,,,,,,,
,,,,,,,,2023-08-16_08h38.06.053,HF_wild_card,2022.2.4,Win32,59.71218726,6082aa29c655ceb5b313bc03,64d2fd46c836a06233681665,64dc7cb8c3e124618b4411c8,,,,,,,decisionTrl,resources/DBN.BMP,resources/DP.BMP,WildCard_NonEx,-0.193518533,0.006481489,1,0,0,0.8475,optionLeft,55,12015,6,1,0,1,0,1,,,,,,,,,,,,,,,,,,,,,,,,,,,,,,,,,,,,,,,
,,,,,,,,2023-08-16_08h38.06.053,HF_wild_card,2022.2.4,Win32,59.71218726,6082aa29c655ceb5b313bc03,64d2fd46c836a06233681665,64dc7cb8c3e124618b4411c8,,,,,,,decisionTrl,resources/DG.BMP,resources/DBN.BMP,WildCard_NonEx,0.314814815,-0.01203703,1,0,0,1.081,optionRight,45,12060,6,2,0,2,0,1,,,,,,,,,,,,,,,,,,,,,,,,,,,,,,,,,,,,,,,
,,,,,,,,2023-08-16_08h38.06.053,HF_wild_card,2022.2.4,Win32,59.71218726,6082aa29c655ceb5b313bc03,64d2fd46c836a06233681665,64dc7cb8c3e124618b4411c8,,,,,,,sngl,resources/Empty.png,resources/DR.BMP,Door2,0.275925954,-0.003703718,1,0,0,0.6809,optionRight,40,12100,6,3,0,3,0,1,,,,,,,,,,,,,,,,,,,,,,,,,,,,,,,,,,,,,,,
,,,,,,,,2023-08-16_08h38.06.053,HF_wild_card,2022.2.4,Win32,59.71218726,6082aa29c655ceb5b313bc03,64d2fd46c836a06233681665,64dc7cb8c3e124618b4411c8,,,,,,,sngl,resources/DG.BMP,resources/Empty.png,Door3,-0.237037023,-0.002777771,1,0,0,0.6817,optionLeft,70,12170,6,4,0,4,0,1,,,,,,,,,,,,,,,,,,,,,,,,,,,,,,,,,,,,,,,
,,,,,,,,2023-08-16_08h38.06.053,HF_wild_card,2022.2.4,Win32,59.71218726,6082aa29c655ceb5b313bc03,64d2fd46c836a06233681665,64dc7cb8c3e124618b4411c8,,,,,,,decisionTrl,resources/DR.BMP,resources/DBN.BMP,WildCard_NonEx,0.125,0.026851831,1,0,0,1.8971,optionRight,55,12225,6,5,0,5,0,1,,,,,,,,,,,,,,,,,,,,,,,,,,,,,,,,,,,,,,,
,,,,,,,,2023-08-16_08h38.06.053,HF_wild_card,2022.2.4,Win32,59.71218726,6082aa29c655ceb5b313bc03,64d2fd46c836a06233681665,64dc7cb8c3e124618b4411c8,,,,,,,decisionTrl,resources/DBN.BMP,resources/DB.BMP,Door4,0.318518603,-0.031481496,1,0,0,1.4601,optionRight,60,12285,6,6,0,6,0,1,,,,,,,,,,,,,,,,,,,,,,,,,,,,,,,,,,,,,,,
,,,,,,,,2023-08-16_08h38.06.053,HF_wild_card,2022.2.4,Win32,59.71218726,6082aa29c655ceb5b313bc03,64d2fd46c836a06233681665,64dc7cb8c3e124618b4411c8,,,,,,,decisionTrl,resources/DG.BMP,resources/DB.BMP,Door3,-0.220370328,-0.003703718,1,0,0,0.9268,optionLeft,70,12355,6,7,0,7,0,1,,,,,,,,,,,,,,,,,,,,,,,,,,,,,,,,,,,,,,,
,,,,,,,,2023-08-16_08h38.06.053,HF_wild_card,2022.2.4,Win32,59.71218726,6082aa29c655ceb5b313bc03,64d2fd46c836a06233681665,64dc7cb8c3e124618b4411c8,,,,,,,decisionTrl,resources/DP.BMP,resources/DBN.BMP,WildCard_NonEx,0.257407436,-0.01203703,1,0,0,2.2929,optionRight,45,12400,6,8,0,8,0,1,,,,,,,,,,,,,,,,,,,,,,,,,,,,,,,,,,,,,,,
,,,,,,,,2023-08-16_08h38.06.053,HF_wild_card,2022.2.4,Win32,59.71218726,6082aa29c655ceb5b313bc03,64d2fd46c836a06233681665,64dc7cb8c3e124618b4411c8,,,,,,,decisionTrl,resources/DG.BMP,resources/DB.BMP,Door4,0.42314812,0.150000007,1,0,0,2.0101,optionRight,60,12460,6,9,0,9,0,1,,,,,,,,,,,,,,,,,,,,,,,,,,,,,,,,,,,,,,,
,,,,,,,,2023-08-16_08h38.06.053,HF_wild_card,2022.2.4,Win32,59.71218726,6082aa29c655ceb5b313bc03,64d2fd46c836a06233681665,64dc7cb8c3e124618b4411c8,,,,,,,decisionTrl,resources/DR.BMP,resources/DP.BMP,Door2,-0.227777764,0.018518519,1,0,0,1.2636,optionLeft,40,12500,6,10,0,10,0,1,,,,,,,,,,,,,,,,,,,,,,,,,,,,,,,,,,,,,,,
,,,,,,,,2023-08-16_08h38.06.053,HF_wild_card,2022.2.4,Win32,59.71218726,6082aa29c655ceb5b313bc03,64d2fd46c836a06233681665,64dc7cb8c3e124618b4411c8,,,,,,,decisionTrl,resources/DP.BMP,resources/DR.BMP,Door2,0.595370399,0.097222222,1,0,0,1.4973,optionRight,20,12520,6,11,0,11,0,1,,,,,,,,,,,,,,,,,,,,,,,,,,,,,,,,,,,,,,,
,,,,,,,,2023-08-16_08h38.06.053,HF_wild_card,2022.2.4,Win32,59.71218726,6082aa29c655ceb5b313bc03,64d2fd46c836a06233681665,64dc7cb8c3e124618b4411c8,,,,,,,ctch,resources/DR.BMP,resources/DG.BMP,Door3,0.325000057,-0.114814829,1,0,0,1.5471,optionRight,70,12590,6,12,0,12,0,1,,,,,,,,,,,,,,,,,,,,,,,,,,,,,,,,,,,,,,,
,,,,,,,,2023-08-16_08h38.06.053,HF_wild_card,2022.2.4,Win32,59.71218726,6082aa29c655ceb5b313bc03,64d2fd46c836a06233681665,64dc7cb8c3e124618b4411c8,,,,,,,decisionTrl,resources/DG.BMP,resources/DB.BMP,Door4,0.415740826,0.0074074,1,0,0,1.9463,optionRight,80,12670,6,13,0,13,0,1,,,,,,,,,,,,,,,,,,,,,,,,,,,,,,,,,,,,,,,
,,,,,,,,2023-08-16_08h38.06.053,HF_wild_card,2022.2.4,Win32,59.71218726,6082aa29c655ceb5b313bc03,64d2fd46c836a06233681665,64dc7cb8c3e124618b4411c8,,,,,,,sngl,resources/DBN.BMP,resources/Empty.png,WildCard_NonEx,-0.236111111,0.03148146,1,0,0,0.6471,optionLeft,55,12725,6,14,0,14,0,1,,,,,,,,,,,,,,,,,,,,,,,,,,,,,,,,,,,,,,,
,,,,,,,,2023-08-16_08h38.06.053,HF_wild_card,2022.2.4,Win32,59.71218726,6082aa29c655ceb5b313bc03,64d2fd46c836a06233681665,64dc7cb8c3e124618b4411c8,,,,,,,decisionTrl,resources/DB.BMP,resources/DG.BMP,Door3,0.262037065,0.035185178,1,0,0,1.6972,optionRight,70,12795,6,15,0,15,0,1,,,,,,,,,,,,,,,,,,,,,,,,,,,,,,,,,,,,,,,
,,,,,,,,2023-08-16_08h38.06.053,HF_wild_card,2022.2.4,Win32,59.71218726,6082aa29c655ceb5b313bc03,64d2fd46c836a06233681665,64dc7cb8c3e124618b4411c8,,,,,,,ctch,resources/DP.BMP,resources/DB.BMP,Door4,0.223148134,-0.027777778,1,0,0,1.1472,optionRight,60,12855,6,16,0,16,0,1,,,,,,,,,,,,,,,,,,,,,,,,,,,,,,,,,,,,,,,
,,,,,,,,2023-08-16_08h38.06.053,HF_wild_card,2022.2.4,Win32,59.71218726,6082aa29c655ceb5b313bc03,64d2fd46c836a06233681665,64dc7cb8c3e124618b4411c8,,,,,,,sngl,resources/DP.BMP,resources/Empty.png,Door1,-0.241666653,0.009259259,1,0,0,0.7934,optionLeft,30,12885,6,17,0,17,0,1,,,,,,,,,,,,,,,,,,,,,,,,,,,,,,,,,,,,,,,
,,,,,,,,2023-08-16_08h38.06.053,HF_wild_card,2022.2.4,Win32,59.71218726,6082aa29c655ceb5b313bc03,64d2fd46c836a06233681665,64dc7cb8c3e124618b4411c8,,,,,,,decisionTrl,resources/DBN.BMP,resources/DR.BMP,WildCard_NonEx,-0.213888875,0.010185171,1,0,0,0.9137,optionLeft,55,12940,6,18,0,18,0,1,,,,,,,,,,,,,,,,,,,,,,,,,,,,,,,,,,,,,,,
,,,,,,,,2023-08-16_08h38.06.053,HF_wild_card,2022.2.4,Win32,59.71218726,6082aa29c655ceb5b313bc03,64d2fd46c836a06233681665,64dc7cb8c3e124618b4411c8,,,,,,,sngl,resources/Empty.png,resources/DG.BMP,Door3,0.330555527,-0.056481503,1,0,0,0.864,optionRight,70,13010,6,19,0,19,0,1,,,,,,,,,,,,,,,,,,,,,,,,,,,,,,,,,,,,,,,
,,,,,,,,2023-08-16_08h38.06.053,HF_wild_card,2022.2.4,Win32,59.71218726,6082aa29c655ceb5b313bc03,64d2fd46c836a06233681665,64dc7cb8c3e124618b4411c8,,,,,,,ctch,resources/DR.BMP,resources/DG.BMP,Door3,0.493518547,0.025000007,1,0,0,1.0764,optionRight,70,13080,6,20,0,20,0,1,,,,,,,,,,,,,,,,,,,,,,,,,,,,,,,,,,,,,,,
,,,,,,,,2023-08-16_08h38.06.053,HF_wild_card,2022.2.4,Win32,59.71218726,6082aa29c655ceb5b313bc03,64d2fd46c836a06233681665,64dc7cb8c3e124618b4411c8,,,,,,,ctch,resources/DG.BMP,resources/DR.BMP,Door3,-0.364814794,-0.011111118,1,0,0,0.8602,optionLeft,70,13150,6,21,0,21,0,1,,,,,,,,,,,,,,,,,,,,,,,,,,,,,,,,,,,,,,,
,,,,,,,,2023-08-16_08h38.06.053,HF_wild_card,2022.2.4,Win32,59.71218726,6082aa29c655ceb5b313bc03,64d2fd46c836a06233681665,64dc7cb8c3e124618b4411c8,,,,,,,ctch,resources/DB.BMP,resources/DP.BMP,Door4,-0.288888861,-0.064814815,1,0,0,0.7471,optionLeft,60,13210,6,22,0,22,0,1,,,,,,,,,,,,,,,,,,,,,,,,,,,,,,,,,,,,,,,
,,,,,,,,2023-08-16_08h38.06.053,HF_wild_card,2022.2.4,Win32,59.71218726,6082aa29c655ceb5b313bc03,64d2fd46c836a06233681665,64dc7cb8c3e124618b4411c8,,,,,,,decisionTrl,resources/DG.BMP,resources/DB.BMP,Door3,-0.348148134,-0.002777771,1,0,0,0.6799,optionLeft,70,13280,6,23,0,23,0,1,,,,,,,,,,,,,,,,,,,,,,,,,,,,,,,,,,,,,,,
,,,,,,,,2023-08-16_08h38.06.053,HF_wild_card,2022.2.4,Win32,59.71218726,6082aa29c655ceb5b313bc03,64d2fd46c836a06233681665,64dc7cb8c3e124618b4411c8,,,,,,,decisionTrl,resources/DP.BMP,resources/DR.BMP,Door1,-0.240740741,-0.062962956,1,0,0,1.9307,optionLeft,30,13310,6,24,0,24,0,1,,,,,,,,,,,,,,,,,,,,,,,,,,,,,,,,,,,,,,,
,,,,,,,,2023-08-16_08h38.06.053,HF_wild_card,2022.2.4,Win32,59.71218726,6082aa29c655ceb5b313bc03,64d2fd46c836a06233681665,64dc7cb8c3e124618b4411c8,,,,,,,sngl,resources/Empty.png,resources/DBN.BMP,WildCard_NonEx,0.276851866,0.062962956,1,0,0,0.7808,optionRight,45,13355,6,25,0,25,0,1,,,,,,,,,,,,,,,,,,,,,,,,,,,,,,,,,,,,,,,
,,,,,,,,2023-08-16_08h38.06.053,HF_wild_card,2022.2.4,Win32,59.71218726,6082aa29c655ceb5b313bc03,64d2fd46c836a06233681665,64dc7cb8c3e124618b4411c8,,,,,,,sngl,resources/Empty.png,resources/DP.BMP,Door1,0.226851852,-0.01203703,1,0,0,0.7316,optionRight,30,13385,6,26,0,26,0,1,,,,,,,,,,,,,,,,,,,,,,,,,,,,,,,,,,,,,,,
,,,,,,,,2023-08-16_08h38.06.053,HF_wild_card,2022.2.4,Win32,59.71218726,6082aa29c655ceb5b313bc03,64d2fd46c836a06233681665,64dc7cb8c3e124618b4411c8,,,,,,,ctch,resources/DG.BMP,resources/DR.BMP,Door3,-0.26944443,0.025000007,1,0,0,0.6965,optionLeft,70,13455,6,27,0,27,0,1,,,,,,,,,,,,,,,,,,,,,,,,,,,,,,,,,,,,,,,
,,,,,,,,2023-08-16_08h38.06.053,HF_wild_card,2022.2.4,Win32,59.71218726,6082aa29c655ceb5b313bc03,64d2fd46c836a06233681665,64dc7cb8c3e124618b4411c8,,,,,,,decisionTrl,resources/DB.BMP,resources/DG.BMP,Door4,-0.326851845,-0.020370377,1,0,0,2.4135,optionLeft,60,13515,6,28,0,28,0,1,,,,,,,,,,,,,,,,,,,,,,,,,,,,,,,,,,,,,,,
,,,,,,,,2023-08-16_08h38.06.053,HF_wild_card,2022.2.4,Win32,59.71218726,6082aa29c655ceb5b313bc03,64d2fd46c836a06233681665,64dc7cb8c3e124618b4411c8,,,,,,,ctch,resources/DP.BMP,resources/DB.BMP,Door4,0.32685188,0.018518519,1,0,0,1.11,optionRight,60,13575,6,29,0,29,0,1,,,,,,,,,,,,,,,,,,,,,,,,,,,,,,,,,,,,,,,
,,,,,,,,2023-08-16_08h38.06.053,HF_wild_card,2022.2.4,Win32,59.71218726,6082aa29c655ceb5b313bc03,64d2fd46c836a06233681665,64dc7cb8c3e124618b4411c8,,,,,,,decisionTrl,resources/DR.BMP,resources/DP.BMP,Door2,-0.467592593,-0.046296296,1,0,0,1.4646,optionLeft,40,13615,6,30,0,30,0,1,,,,,,,,,,,,,,,,,,,,,,,,,,,,,,,,,,,,,,,
,,,,,,,,2023-08-16_08h38.06.053,HF_wild_card,2022.2.4,Win32,59.71218726,6082aa29c655ceb5b313bc03,64d2fd46c836a06233681665,64dc7cb8c3e124618b4411c8,,,,,,,sngl,resources/Empty.png,resources/DB.BMP,Door4,0.304629714,0.027777778,1,0,0,0.664,optionRight,80,13695,6,31,0,31,0,1,,,,,,,,,,,,,,,,,,,,,,,,,,,,,,,,,,,,,,,
,,,,,,,,2023-08-16_08h38.06.053,HF_wild_card,2022.2.4,Win32,59.71218726,6082aa29c655ceb5b313bc03,64d2fd46c836a06233681665,64dc7cb8c3e124618b4411c8,,,,,,,sngl,resources/Empty.png,resources/DBN.BMP,WildCard_NonEx,0.574074074,0.005555541,1,0,0,0.9303,optionRight,55,13750,6,32,0,32,0,1,,,,,,,,,,,,,,,,,,,,,,,,,,,,,,,,,,,,,,,
,,,,,,,,2023-08-16_08h38.06.053,HF_wild_card,2022.2.4,Win32,59.71218726,6082aa29c655ceb5b313bc03,64d2fd46c836a06233681665,64dc7cb8c3e124618b4411c8,,,,,,,decisionTrl,resources/DR.BMP,resources/DP.BMP,Door2,-0.400925919,0.037037037,1,0,0,1.6966,optionLeft,20,13770,6,33,0,33,0,1,,,,,,,,,,,,,,,,,,,,,,,,,,,,,,,,,,,,,,,
,,,,,,,,2023-08-16_08h38.06.053,HF_wild_card,2022.2.4,Win32,59.71218726,6082aa29c655ceb5b313bc03,64d2fd46c836a06233681665,64dc7cb8c3e124618b4411c8,,,,,,,decisionTrl,resources/DB.BMP,resources/DG.BMP,Door4,-0.337962963,0.032407407,1,0,0,2.6808,optionLeft,80,13850,6,34,0,34,0,1,,,,,,,,,,,,,,,,,,,,,,,,,,,,,,,,,,,,,,,
,,,,,,,,2023-08-16_08h38.06.053,HF_wild_card,2022.2.4,Win32,59.71218726,6082aa29c655ceb5b313bc03,64d2fd46c836a06233681665,64dc7cb8c3e124618b4411c8,,,,,,,decisionTrl,resources/DB.BMP,resources/DG.BMP,Door4,-0.365740741,-0.0074074,1,0,0,0.6134,optionLeft,60,13910,6,35,0,35,0,1,,,,,,,,,,,,,,,,,,,,,,,,,,,,,,,,,,,,,,,
,,,,,,,,2023-08-16_08h38.06.053,HF_wild_card,2022.2.4,Win32,59.71218726,6082aa29c655ceb5b313bc03,64d2fd46c836a06233681665,64dc7cb8c3e124618b4411c8,,,,,,,decisionTrl,resources/DB.BMP,resources/DBN.BMP,Door4,-0.161111125,-0.015740748,1,0,0,1.2424,optionLeft,60,13970,6,36,0,36,0,1,,,,,,,,,,,,,,,,,,,,,,,,,,,,,,,,,,,,,,,
,,,,,,,,2023-08-16_08h38.06.053,HF_wild_card,2022.2.4,Win32,59.71218726,6082aa29c655ceb5b313bc03,64d2fd46c836a06233681665,64dc7cb8c3e124618b4411c8,,,,,,,sngl,resources/DBN.BMP,resources/Empty.png,WildCard_NonEx,-0.416666667,0.067592586,1,0,0,0.5799,optionLeft,45,14015,6,37,0,37,0,1,,,,,,,,,,,,,,,,,,,,,,,,,,,,,,,,,,,,,,,
,,,,,,,,2023-08-16_08h38.06.053,HF_wild_card,2022.2.4,Win32,59.71218726,6082aa29c655ceb5b313bc03,64d2fd46c836a06233681665,64dc7cb8c3e124618b4411c8,,,,,,,decisionTrl,resources/DP.BMP,resources/DR.BMP,Door2,0.180555556,0.000925912,1,0,0,2.0637,optionRight,20,14035,6,38,0,38,0,1,,,,,,,,,,,,,,,,,,,,,,,,,,,,,,,,,,,,,,,
,,,,,,,,2023-08-16_08h38.06.053,HF_wild_card,2022.2.4,Win32,59.71218726,6082aa29c655ceb5b313bc03,64d2fd46c836a06233681665,64dc7cb8c3e124618b4411c8,,,,,,,decisionTrl,resources/DR.BMP,resources/DP.BMP,Door2,-0.27870369,0.017592571,1,0,0,0.7804,optionLeft,20,14055,6,39,0,39,0,1,,,,,,,,,,,,,,,,,,,,,,,,,,,,,,,,,,,,,,,
,,,,,,,,2023-08-16_08h38.06.053,HF_wild_card,2022.2.4,Win32,59.71218726,6082aa29c655ceb5b313bc03,64d2fd46c836a06233681665,64dc7cb8c3e124618b4411c8,,,,,,,sngl,resources/DB.BMP,resources/Empty.png,Door4,-0.193518533,0.01944443,1,0,0,0.6471,optionLeft,60,14115,6,40,0,40,0,1,,,,,,,,,,,,,,,,,,,,,,,,,,,,,,,,,,,,,,,
,,,,,,,,2023-08-16_08h38.06.053,HF_wild_card,2022.2.4,Win32,59.71218726,6082aa29c655ceb5b313bc03,64d2fd46c836a06233681665,64dc7cb8c3e124618b4411c8,,,,,,,ctch,resources/DB.BMP,resources/DP.BMP,Door4,-0.400925919,0.009259259,1,0,0,0.8313,optionLeft,80,14195,6,41,0,41,0,1,,,,,,,,,,,,,,,,,,,,,,,,,,,,,,,,,,,,,,,
,,,,,,,,2023-08-16_08h38.06.053,HF_wild_card,2022.2.4,Win32,59.71218726,6082aa29c655ceb5b313bc03,64d2fd46c836a06233681665,64dc7cb8c3e124618b4411c8,,,,,,,sngl,resources/DR.BMP,resources/Empty.png,Door2,-0.306481467,-0.00462963,1,0,0,0.6304,optionLeft,20,14215,6,42,0,42,0,1,,,,,,,,,,,,,,,,,,,,,,,,,,,,,,,,,,,,,,,
,,,,,,,,2023-08-16_08h38.06.053,HF_wild_card,2022.2.4,Win32,59.71218726,6082aa29c655ceb5b313bc03,64d2fd46c836a06233681665,64dc7cb8c3e124618b4411c8,,,,,,,decisionTrl,resources/DBN.BMP,resources/DG.BMP,Door3,0.240740741,0.061111097,1,0,0,1.331,optionRight,70,14285,6,43,0,43,0,1,,,,,,,,,,,,,,,,,,,,,,,,,,,,,,,,,,,,,,,
,,,,,,,,2023-08-16_08h38.06.053,HF_wild_card,2022.2.4,Win32,59.71218726,6082aa29c655ceb5b313bc03,64d2fd46c836a06233681665,64dc7cb8c3e124618b4411c8,,,,,,,,,,,,,,,,,,,,,,,,,,5,0,5,0,1,,,,,,,,,,,,,,,,,,,,,,,,,,,,,,,,,,
,,,,,,,,2023-08-16_08h38.06.053,HF_wild_card,2022.2.4,Win32,59.71218726,6082aa29c655ceb5b313bc03,64d2fd46c836a06233681665,64dc7cb8c3e124618b4411c8,,,,,,,ctch,resources/DR.BMP,resources/DG.BMP,Door3,0.203703704,0.026851831,1,0,0,1.409,optionRight,70,14355,7,0,0,0,0,1,,,,,,,,,,,,,,,,,,,,,,,,,,,,,,,,,,,,,,,
,,,,,,,,2023-08-16_08h38.06.053,HF_wild_card,2022.2.4,Win32,59.71218726,6082aa29c655ceb5b313bc03,64d2fd46c836a06233681665,64dc7cb8c3e124618b4411c8,,,,,,,decisionTrl,resources/DR.BMP,resources/DP.BMP,Door2,-0.232407393,-0.062037044,1,0,0,1.4499,optionLeft,40,14395,7,1,0,1,0,1,,,,,,,,,,,,,,,,,,,,,,,,,,,,,,,,,,,,,,,
,,,,,,,,2023-08-16_08h38.06.053,HF_wild_card,2022.2.4,Win32,59.71218726,6082aa29c655ceb5b313bc03,64d2fd46c836a06233681665,64dc7cb8c3e124618b4411c8,,,,,,,decisionTrl,resources/DR.BMP,resources/DP.BMP,Door1,0.14444443,0.015740748,1,0,0,2.1977,optionRight,30,14425,7,2,0,2,0,1,,,,,,,,,,,,,,,,,,,,,,,,,,,,,,,,,,,,,,,
,,,,,,,,2023-08-16_08h38.06.053,HF_wild_card,2022.2.4,Win32,59.71218726,6082aa29c655ceb5b313bc03,64d2fd46c836a06233681665,64dc7cb8c3e124618b4411c8,,,,,,,decisionTrl,resources/DB.BMP,resources/DG.BMP,Door4,-0.25462963,-0.013888889,1,0,0,1.728,optionLeft,60,14485,7,3,0,3,0,1,,,,,,,,,,,,,,,,,,,,,,,,,,,,,,,,,,,,,,,
,,,,,,,,2023-08-16_08h38.06.053,HF_wild_card,2022.2.4,Win32,59.71218726,6082aa29c655ceb5b313bc03,64d2fd46c836a06233681665,64dc7cb8c3e124618b4411c8,,,,,,,decisionTrl,resources/DG.BMP,resources/DB.BMP,Door3,-0.23055557,-0.030555548,1,0,0,0.6368,optionLeft,70,14555,7,4,0,4,0,1,,,,,,,,,,,,,,,,,,,,,,,,,,,,,,,,,,,,,,,
,,,,,,,,2023-08-16_08h38.06.053,HF_wild_card,2022.2.4,Win32,59.71218726,6082aa29c655ceb5b313bc03,64d2fd46c836a06233681665,64dc7cb8c3e124618b4411c8,,,,,,,decisionTrl,resources/DG.BMP,resources/DB.BMP,Door4,0.163888931,0.041666667,1,0,0,1.833,optionRight,80,14635,7,5,0,5,0,1,,,,,,,,,,,,,,,,,,,,,,,,,,,,,,,,,,,,,,,
,,,,,,,,2023-08-16_08h38.06.053,HF_wild_card,2022.2.4,Win32,59.71218726,6082aa29c655ceb5b313bc03,64d2fd46c836a06233681665,64dc7cb8c3e124618b4411c8,,,,,,,ctch,resources/DR.BMP,resources/DG.BMP,Door3,0.357407464,0.050925926,1,0,0,1.1328,optionRight,70,14705,7,6,0,6,0,1,,,,,,,,,,,,,,,,,,,,,,,,,,,,,,,,,,,,,,,
,,,,,,,,2023-08-16_08h38.06.053,HF_wild_card,2022.2.4,Win32,59.71218726,6082aa29c655ceb5b313bc03,64d2fd46c836a06233681665,64dc7cb8c3e124618b4411c8,,,,,,,ctch,resources/DG.BMP,resources/DR.BMP,Door3,-0.256481453,-0.012962977,1,0,0,0.7158,optionLeft,70,14775,7,7,0,7,0,1,,,,,,,,,,,,,,,,,,,,,,,,,,,,,,,,,,,,,,,
,,,,,,,,2023-08-16_08h38.06.053,HF_wild_card,2022.2.4,Win32,59.71218726,6082aa29c655ceb5b313bc03,64d2fd46c836a06233681665,64dc7cb8c3e124618b4411c8,,,,,,,decisionTrl,resources/DR.BMP,resources/DP.BMP,Door2,-0.267592607,-0.073148162,1,0,0,1.3826,optionLeft,20,14795,7,8,0,8,0,1,,,,,,,,,,,,,,,,,,,,,,,,,,,,,,,,,,,,,,,
,,,,,,,,2023-08-16_08h38.06.053,HF_wild_card,2022.2.4,Win32,59.71218726,6082aa29c655ceb5b313bc03,64d2fd46c836a06233681665,64dc7cb8c3e124618b4411c8,,,,,,,decisionTrl,resources/DR.BMP,resources/DP.BMP,Door2,-0.216666681,-0.042592614,1,0,0,1.2373,optionLeft,40,14835,7,9,0,9,0,1,,,,,,,,,,,,,,,,,,,,,,,,,,,,,,,,,,,,,,,
,,,,,,,,2023-08-16_08h38.06.053,HF_wild_card,2022.2.4,Win32,59.71218726,6082aa29c655ceb5b313bc03,64d2fd46c836a06233681665,64dc7cb8c3e124618b4411c8,,,,,,,decisionTrl,resources/DB.BMP,resources/DG.BMP,Door4,-0.356481481,0.003703683,1,0,0,1.7636,optionLeft,80,14915,7,10,0,10,0,1,,,,,,,,,,,,,,,,,,,,,,,,,,,,,,,,,,,,,,,
,,,,,,,,2023-08-16_08h38.06.053,HF_wild_card,2022.2.4,Win32,59.71218726,6082aa29c655ceb5b313bc03,64d2fd46c836a06233681665,64dc7cb8c3e124618b4411c8,,,,,,,decisionTrl,resources/DP.BMP,resources/DR.BMP,Door2,0.275925954,0.01944443,1,0,0,1.9494,optionRight,40,14955,7,11,0,11,0,1,,,,,,,,,,,,,,,,,,,,,,,,,,,,,,,,,,,,,,,
,,,,,,,,2023-08-16_08h38.06.053,HF_wild_card,2022.2.4,Win32,59.71218726,6082aa29c655ceb5b313bc03,64d2fd46c836a06233681665,64dc7cb8c3e124618b4411c8,,,,,,,decisionTrl,resources/DG.BMP,resources/DB.BMP,Door4,0.440740797,0.077777757,1,0,0,3.2396,optionRight,80,15035,7,12,0,12,0,1,,,,,,,,,,,,,,,,,,,,,,,,,,,,,,,,,,,,,,,
,,,,,,,,2023-08-16_08h38.06.053,HF_wild_card,2022.2.4,Win32,59.71218726,6082aa29c655ceb5b313bc03,64d2fd46c836a06233681665,64dc7cb8c3e124618b4411c8,,,,,,,ctch,resources/DB.BMP,resources/DP.BMP,Door4,-0.341666645,-0.058333326,1,0,0,0.9425,optionLeft,60,15095,7,13,0,13,0,1,,,,,,,,,,,,,,,,,,,,,,,,,,,,,,,,,,,,,,,
,,,,,,,,2023-08-16_08h38.06.053,HF_wild_card,2022.2.4,Win32,59.71218726,6082aa29c655ceb5b313bc03,64d2fd46c836a06233681665,64dc7cb8c3e124618b4411c8,,,,,,,decisionTrl,resources/DG.BMP,resources/DB.BMP,Door4,0.209259245,0.060185185,1,0,0,4.4098,optionRight,80,15175,7,14,0,14,0,1,,,,,,,,,,,,,,,,,,,,,,,,,,,,,,,,,,,,,,,
,,,,,,,,2023-08-16_08h38.06.053,HF_wild_card,2022.2.4,Win32,59.71218726,6082aa29c655ceb5b313bc03,64d2fd46c836a06233681665,64dc7cb8c3e124618b4411c8,,,,,,,decisionTrl,resources/DB.BMP,resources/DG.BMP,Door4,-0.276851866,-0.062037044,1,0,0,2.4434,optionLeft,60,15235,7,15,0,15,0,1,,,,,,,,,,,,,,,,,,,,,,,,,,,,,,,,,,,,,,,
,,,,,,,,2023-08-16_08h38.06.053,HF_wild_card,2022.2.4,Win32,59.71218726,6082aa29c655ceb5b313bc03,64d2fd46c836a06233681665,64dc7cb8c3e124618b4411c8,,,,,,,decisionTrl,resources/DB.BMP,resources/DG.BMP,Door4,-0.289814772,0.052777785,1,0,0,3.416,optionLeft,80,15315,7,16,0,16,0,1,,,,,,,,,,,,,,,,,,,,,,,,,,,,,,,,,,,,,,,
,,,,,,,,2023-08-16_08h38.06.053,HF_wild_card,2022.2.4,Win32,59.71218726,6082aa29c655ceb5b313bc03,64d2fd46c836a06233681665,64dc7cb8c3e124618b4411c8,,,,,,,ctch,resources/DP.BMP,resources/DB.BMP,Door4,0.450925898,0.0074074,1,0,0,1.3583,optionRight,80,15395,7,17,0,17,0,1,,,,,,,,,,,,,,,,,,,,,,,,,,,,,,,,,,,,,,,
,,,,,,,,2023-08-16_08h38.06.053,HF_wild_card,2022.2.4,Win32,59.71218726,6082aa29c655ceb5b313bc03,64d2fd46c836a06233681665,64dc7cb8c3e124618b4411c8,,,,,,,ctch,resources/DR.BMP,resources/DG.BMP,Door3,0.247222265,0.140740748,1,0,0,1.2773,optionRight,70,15465,7,18,0,18,0,1,,,,,,,,,,,,,,,,,,,,,,,,,,,,,,,,,,,,,,,
,,,,,,,,2023-08-16_08h38.06.053,HF_wild_card,2022.2.4,Win32,59.71218726,6082aa29c655ceb5b313bc03,64d2fd46c836a06233681665,64dc7cb8c3e124618b4411c8,,,,,,,decisionTrl,resources/DB.BMP,resources/DG.BMP,Door4,-0.255555541,-0.019444466,1,0,0,1.4325,optionLeft,60,15525,7,19,0,19,0,1,,,,,,,,,,,,,,,,,,,,,,,,,,,,,,,,,,,,,,,
,,,,,,,,2023-08-16_08h38.06.053,HF_wild_card,2022.2.4,Win32,59.71218726,6082aa29c655ceb5b313bc03,64d2fd46c836a06233681665,64dc7cb8c3e124618b4411c8,,,,,,,decisionTrl,resources/DP.BMP,resources/DR.BMP,Door2,0.365740741,0.020370377,1,0,0,1.3822,optionRight,20,15545,7,20,0,20,0,1,,,,,,,,,,,,,,,,,,,,,,,,,,,,,,,,,,,,,,,
,,,,,,,,2023-08-16_08h38.06.053,HF_wild_card,2022.2.4,Win32,59.71218726,6082aa29c655ceb5b313bc03,64d2fd46c836a06233681665,64dc7cb8c3e124618b4411c8,,,,,,,ctch,resources/DG.BMP,resources/DR.BMP,Door3,-0.326851845,0.035185178,1,0,0,1.0492,optionLeft,70,15615,7,21,0,21,0,1,,,,,,,,,,,,,,,,,,,,,,,,,,,,,,,,,,,,,,,
,,,,,,,,2023-08-16_08h38.06.053,HF_wild_card,2022.2.4,Win32,59.71218726,6082aa29c655ceb5b313bc03,64d2fd46c836a06233681665,64dc7cb8c3e124618b4411c8,,,,,,,decisionTrl,resources/DP.BMP,resources/DR.BMP,Door2,0.329629686,0.049074067,1,0,0,1.9488,optionRight,20,15635,7,22,0,22,0,1,,,,,,,,,,,,,,,,,,,,,,,,,,,,,,,,,,,,,,,
,,,,,,,,2023-08-16_08h38.06.053,HF_wild_card,2022.2.4,Win32,59.71218726,6082aa29c655ceb5b313bc03,64d2fd46c836a06233681665,64dc7cb8c3e124618b4411c8,,,,,,,decisionTrl,resources/DG.BMP,resources/DB.BMP,Door4,0.382407436,0.077777757,1,0,0,2.2991,optionRight,60,15695,7,23,0,23,0,1,,,,,,,,,,,,,,,,,,,,,,,,,,,,,,,,,,,,,,,
,,,,,,,,2023-08-16_08h38.06.053,HF_wild_card,2022.2.4,Win32,59.71218726,6082aa29c655ceb5b313bc03,64d2fd46c836a06233681665,64dc7cb8c3e124618b4411c8,,,,,,,ctch,resources/DB.BMP,resources/DP.BMP,Door4,-0.247222194,0.021296289,1,0,0,0.6663,optionLeft,80,15775,7,24,0,24,0,1,,,,,,,,,,,,,,,,,,,,,,,,,,,,,,,,,,,,,,,
,,,,,,,,2023-08-16_08h38.06.053,HF_wild_card,2022.2.4,Win32,59.71218726,6082aa29c655ceb5b313bc03,64d2fd46c836a06233681665,64dc7cb8c3e124618b4411c8,,,,,,,decisionTrl,resources/DR.BMP,resources/DP.BMP,Door2,-0.207407422,-0.026851866,1,0,0,3.1662,optionLeft,20,15795,7,25,0,25,0,1,,,,,,,,,,,,,,,,,,,,,,,,,,,,,,,,,,,,,,,
,,,,,,,,2023-08-16_08h38.06.053,HF_wild_card,2022.2.4,Win32,59.71218726,6082aa29c655ceb5b313bc03,64d2fd46c836a06233681665,64dc7cb8c3e124618b4411c8,,,,,,,ctch,resources/DP.BMP,resources/DB.BMP,Door4,0.483333305,0.125,1,0,0,4.4495,optionRight,60,15855,7,26,0,26,0,1,,,,,,,,,,,,,,,,,,,,,,,,,,,,,,,,,,,,,,,
,,,,,,,,2023-08-16_08h38.06.053,HF_wild_card,2022.2.4,Win32,59.71218726,6082aa29c655ceb5b313bc03,64d2fd46c836a06233681665,64dc7cb8c3e124618b4411c8,,,,,,,decisionTrl,resources/DP.BMP,resources/DR.BMP,Door2,0.310185185,0.087962963,1,0,0,9.1987,optionRight,40,15895,7,27,0,27,0,1,,,,,,,,,,,,,,,,,,,,,,,,,,,,,,,,,,,,,,,
,,,,,,,,2023-08-16_08h38.06.053,HF_wild_card,2022.2.4,Win32,59.71218726,6082aa29c655ceb5b313bc03,64d2fd46c836a06233681665,64dc7cb8c3e124618b4411c8,,,,,,,decisionTrl,resources/DB.BMP,resources/DG.BMP,Door3,0.195370356,0.147222201,1,0,0,3.3606,optionRight,70,15965,7,28,0,28,0,1,,,,,,,,,,,,,,,,,,,,,,,,,,,,,,,,,,,,,,,
,,,,,,,,2023-08-16_08h38.06.053,HF_wild_card,2022.2.4,Win32,59.71218726,6082aa29c655ceb5b313bc03,64d2fd46c836a06233681665,64dc7cb8c3e124618b4411c8,,,,,,,ctch,resources/DG.BMP,resources/DR.BMP,Door3,-0.240740741,0.119444423,1,0,0,3.6104,optionLeft,70,16035,7,29,0,29,0,1,,,,,,,,,,,,,,,,,,,,,,,,,,,,,,,,,,,,,,,
,,,,,,,,2023-08-16_08h38.06.053,HF_wild_card,2022.2.4,Win32,59.71218726,6082aa29c655ceb5b313bc03,64d2fd46c836a06233681665,64dc7cb8c3e124618b4411c8,,,,,,,ctch,resources/DB.BMP,resources/DP.BMP,Door4,-0.234259217,0.020370377,1,0,0,0.6993,optionLeft,80,16115,7,30,0,30,0,1,,,,,,,,,,,,,,,,,,,,,,,,,,,,,,,,,,,,,,,
,,,,,,,,2023-08-16_08h38.06.053,HF_wild_card,2022.2.4,Win32,59.71218726,6082aa29c655ceb5b313bc03,64d2fd46c836a06233681665,64dc7cb8c3e124618b4411c8,,,,,,,decisionTrl,resources/DP.BMP,resources/DR.BMP,Door2,0.22592594,0.060185185,1,0,0,1.7152,optionRight,20,16135,7,31,0,31,0,1,,,,,,,,,,,,,,,,,,,,,,,,,,,,,,,,,,,,,,,
,,,,,,,,2023-08-16_08h38.06.053,HF_wild_card,2022.2.4,Win32,59.71218726,6082aa29c655ceb5b313bc03,64d2fd46c836a06233681665,64dc7cb8c3e124618b4411c8,,,,,,,decisionTrl,resources/DR.BMP,resources/DP.BMP,Door1,0.209259245,0.03148146,1,0,0,1.9649,optionRight,30,16165,7,32,0,32,0,1,,,,,,,,,,,,,,,,,,,,,,,,,,,,,,,,,,,,,,,
,,,,,,,,2023-08-16_08h38.06.053,HF_wild_card,2022.2.4,Win32,59.71218726,6082aa29c655ceb5b313bc03,64d2fd46c836a06233681665,64dc7cb8c3e124618b4411c8,,,,,,,decisionTrl,resources/DG.BMP,resources/DB.BMP,Door4,0.329629686,0.030555548,1,0,0,2.0993,optionRight,80,16245,7,33,0,33,0,1,,,,,,,,,,,,,,,,,,,,,,,,,,,,,,,,,,,,,,,
,,,,,,,,2023-08-16_08h38.06.053,HF_wild_card,2022.2.4,Win32,59.71218726,6082aa29c655ceb5b313bc03,64d2fd46c836a06233681665,64dc7cb8c3e124618b4411c8,,,,,,,decisionTrl,resources/DP.BMP,resources/DR.BMP,Door1,-0.154629601,0.03611109,1,0,0,4.1159,optionLeft,30,16275,7,34,0,34,0,1,,,,,,,,,,,,,,,,,,,,,,,,,,,,,,,,,,,,,,,
,,,,,,,,2023-08-16_08h38.06.053,HF_wild_card,2022.2.4,Win32,59.71218726,6082aa29c655ceb5b313bc03,64d2fd46c836a06233681665,64dc7cb8c3e124618b4411c8,,,,,,,ctch,resources/DP.BMP,resources/DB.BMP,Door4,0.194444444,-0.001851859,1,0,0,0.8329,optionRight,60,16335,7,35,0,35,0,1,,,,,,,,,,,,,,,,,,,,,,,,,,,,,,,,,,,,,,,
,,,,,,,,2023-08-16_08h38.06.053,HF_wild_card,2022.2.4,Win32,59.71218726,6082aa29c655ceb5b313bc03,64d2fd46c836a06233681665,64dc7cb8c3e124618b4411c8,,,,,,,,,,,,,,,,,,,,,,,,,,6,0,6,0,1,,,,,,,,,,,,,,,,,,,,,,,,,,,,,,,,,,
,,,,,,,,2023-08-16_08h38.06.053,HF_wild_card,2022.2.4,Win32,59.71218726,6082aa29c655ceb5b313bc03,64d2fd46c836a06233681665,64dc7cb8c3e124618b4411c8,,,,,,,,,,,,,,,,,,,,,,,,,,,,,,,4,,,,,,,,,,,,,,,,,,,,,,,,,,,,,,,,,
,,,,,,,,2023-08-16_08h38.06.053,HF_wild_card,2022.2.4,Win32,59.71218726,6082aa29c655ceb5b313bc03,64d2fd46c836a06233681665,64dc7cb8c3e124618b4411c8,,,,,,,,,,,,,,,,,,,,,,,,,,,,,,,,,,,,,,,,,,,,,,,,,,,,,,,,,,,,,,,,
,,,,,,,,2023-08-16_08h38.06.053,HF_wild_card,2022.2.4,Win32,59.71218726,6082aa29c655ceb5b313bc03,64d2fd46c836a06233681665,64dc7cb8c3e124618b4411c8,,,,,,,,,,,,,,,,,,,,,,,,,,,,,,,,70,Door4,resources/DB.BMP,0,0,0,0,1,,,,,,,,,,,,,,,,,,,,,,,,,
,,,,,,,,2023-08-16_08h38.06.053,HF_wild_card,2022.2.4,Win32,59.71218726,6082aa29c655ceb5b313bc03,64d2fd46c836a06233681665,64dc7cb8c3e124618b4411c8,,,,,,,,,,,,,,,,,,,,,,,,,,,,,,,,80,WC_extreme,resources/DY.BMP,1,0,1,0,1,,,,,,,,,,,,,,,,,,,,,,,,,
,,,,,,,,2023-08-16_08h38.06.053,HF_wild_card,2022.2.4,Win32,59.71218726,6082aa29c655ceb5b313bc03,64d2fd46c836a06233681665,64dc7cb8c3e124618b4411c8,,,,,,,,,,,,,,,,,,,,,,,,,,,,,,,,55,WC_nonExtreme,resources/DBN.BMP,2,0,2,0,1,,,,,,,,,,,,,,,,,,,,,,,,,
,,,,,,,,2023-08-16_08h38.06.053,HF_wild_card,2022.2.4,Win32,59.71218726,6082aa29c655ceb5b313bc03,64d2fd46c836a06233681665,64dc7cb8c3e124618b4411c8,,,,,,,,,,,,,,,,,,,,,,,,,,,,,,,,30,Door1,resources/DP.BMP,3,0,3,0,1,,,,,,,,,,,,,,,,,,,,,,,,,
,,,,,,,,2023-08-16_08h38.06.053,HF_wild_card,2022.2.4,Win32,59.71218726,6082aa29c655ceb5b313bc03,64d2fd46c836a06233681665,64dc7cb8c3e124618b4411c8,,,,,,,,,,,,,,,,,,,,,,,,,,,,,,,,40,Door2,resources/DR.BMP,4,0,4,0,1,,,,,,,,,,,,,,,,,,,,,,,,,
,,,,,,,,2023-08-16_08h38.06.053,HF_wild_card,2022.2.4,Win32,59.71218726,6082aa29c655ceb5b313bc03,64d2fd46c836a06233681665,64dc7cb8c3e124618b4411c8,,,,,,,,,,,,,,,,,,,,,,,,,,,,,,,,70,Door3,resources/DG.BMP,5,0,5,0,1,,,,,,,,,,,,,,,,,,,,,,,,,
,,,,,,,,2023-08-16_08h38.06.053,HF_wild_card,2022.2.4,Win32,59.71218726,6082aa29c655ceb5b313bc03,64d2fd46c836a06233681665,64dc7cb8c3e124618b4411c8,,,,,,,,,,,,,,,,,,,,,,,,,,,,,,,,,,,,,,,,,,,,,,,,,,,,,,,,,,,,,,,,
,,,,,,,,2023-08-16_08h38.06.053,HF_wild_card,2022.2.4,Win32,59.71218726,6082aa29c655ceb5b313bc03,64d2fd46c836a06233681665,64dc7cb8c3e124618b4411c8,,,,,,,,,,,,,,,,,,,,,,,,,,,,,,,,,,,,,,,,0,0,0,0,1,,,,,,,,,,,,,,,,,,,,
