Condition,Low fixed image (Door1),Low risky image (Door2),High fixed image (Door3),High risky image (Door4),Extreme Wild Card,NonExtreme Wild Card,,date,expName,psychopyVersion,OS,frameRate,PROLIFIC_PID,STUDY_ID,SESSION_ID,mouse_2.x,mouse_2.y,mouse_2.leftButton,mouse_2.midButton,mouse_2.rightButton,mouse_2.clicked_name,Trial Type,Left Option Image,Right Option Image,Chosen Door,mouse.x,mouse.y,mouse.leftButton,mouse.midButton,mouse.rightButton,mouse.time,mouse.clicked_name,Feedback,Cumulative Reward,Block,trial.thisRepN,trial.thisTrialN,trial.thisN,trial.thisIndex,trial.ran,blocks.thisRepN,blocks.thisTrialN,blocks.thisN,blocks.thisIndex,blocks.ran,Money conversion,First Outcome Reported,Shown Door (First Outcome),Displayed Image (First Outcome),outcomes.thisRepN,outcomes.thisTrialN,outcomes.thisN,outcomes.thisIndex,outcomes.ran,judgments.thisRepN,judgments.thisTrialN,judgments.thisN,judgments.thisIndex,judgments.ran,freqMouse.x,freqMouse.y,freqMouse.leftButton,freqMouse.midButton,freqMouse.rightButton,freqMouse.clicked_name,FQJ for first outcome,FQJ for second outcome,Shown Door,Displayed Image,trials.thisRepN,trials.thisTrialN,trials.thisN,trials.thisIndex,trials.ran,judgBlock.thisRepN,judgBlock.thisTrialN,judgBlock.thisN,judgBlock.thisIndex,judgBlock.ran
1,resources/DP.BMP,resources/DY.BMP,resources/DBN.BMP,resources/DG.BMP,resources/DR.BMP,resources/DB.BMP,,2023-08-16_08h47.32.607,HF_wild_card,2022.2.4,Win32,60.64281383,634689122e997b8299adeda5,64d2fd46c836a06233681665,64dc7f0d0f4bab065e53d28a,,,,,,,,,,,,,,,,,,,,,,,,,,,,,,,,,,,,,,,,,,,,,,,,,,,,,,,,,,,,,,,,
,,,,,,,,2023-08-16_08h47.32.607,HF_wild_card,2022.2.4,Win32,60.64281383,634689122e997b8299adeda5,64d2fd46c836a06233681665,64dc7f0d0f4bab065e53d28a,0.019435226,-0.429568127,1,0,0,agree,,,,,,,,,,,,,,,,,,,,,,,,,,,,,,,,,,,,,,,,,,,,,,,,,,,,,,,,,,
,,,,,,,,2023-08-16_08h47.32.607,HF_wild_card,2022.2.4,Win32,60.64281383,634689122e997b8299adeda5,64d2fd46c836a06233681665,64dc7f0d0f4bab065e53d28a,,,,,,,,,,,,,,,,,,,,,,,,,,,,,,,,,,,,,,,,,,,,,,,,,,,,,,,,,,,,,,,,
,,,,,,,,2023-08-16_08h47.32.607,HF_wild_card,2022.2.4,Win32,60.64281383,634689122e997b8299adeda5,64d2fd46c836a06233681665,64dc7f0d0f4bab065e53d28a,,,,,,,ctch,resources/DY.BMP,resources/DBN.BMP,Door3,0.207475103,0.02358803,1,0,0,1.4095,optionRight,70,70,1,0,0,0,0,1,,,,,,,,,,,,,,,,,,,,,,,,,,,,,,,,,,,,,,,
,,,,,,,,2023-08-16_08h47.32.607,HF_wild_card,2022.2.4,Win32,60.64281383,634689122e997b8299adeda5,64d2fd46c836a06233681665,64dc7f0d0f4bab065e53d28a,,,,,,,decisionTrl,resources/DB.BMP,resources/DBN.BMP,WildCard_NonEx,-0.285548152,-0.065448601,1,0,0,1.061,optionLeft,55,125,1,1,0,1,0,1,,,,,,,,,,,,,,,,,,,,,,,,,,,,,,,,,,,,,,,
,,,,,,,,2023-08-16_08h47.32.607,HF_wild_card,2022.2.4,Win32,60.64281383,634689122e997b8299adeda5,64d2fd46c836a06233681665,64dc7f0d0f4bab065e53d28a,,,,,,,decisionTrl,resources/DP.BMP,resources/DB.BMP,WildCard_NonEx,0.216112997,0.020265766,1,0,0,0.5959,optionRight,55,180,1,2,0,2,0,1,,,,,,,,,,,,,,,,,,,,,,,,,,,,,,,,,,,,,,,
,,,,,,,,2023-08-16_08h47.32.607,HF_wild_card,2022.2.4,Win32,60.64281383,634689122e997b8299adeda5,64d2fd46c836a06233681665,64dc7f0d0f4bab065e53d28a,,,,,,,decisionTrl,resources/DP.BMP,resources/DY.BMP,Door1,-0.28089699,0.02425239,1,0,0,0.6136,optionLeft,30,210,1,3,0,3,0,1,,,,,,,,,,,,,,,,,,,,,,,,,,,,,,,,,,,,,,,
,,,,,,,,2023-08-16_08h47.32.607,HF_wild_card,2022.2.4,Win32,60.64281383,634689122e997b8299adeda5,64d2fd46c836a06233681665,64dc7f0d0f4bab065e53d28a,,,,,,,decisionTrl,resources/DG.BMP,resources/DBN.BMP,Door3,0.251328934,0.016943501,1,0,0,0.8644,optionRight,70,280,1,4,0,4,0,1,,,,,,,,,,,,,,,,,,,,,,,,,,,,,,,,,,,,,,,
,,,,,,,,2023-08-16_08h47.32.607,HF_wild_card,2022.2.4,Win32,60.64281383,634689122e997b8299adeda5,64d2fd46c836a06233681665,64dc7f0d0f4bab065e53d28a,,,,,,,sngl,resources/DG.BMP,resources/Empty.png,Door4,-0.318106292,-0.000332322,1,0,0,0.5296,optionLeft,80,360,1,5,0,5,0,1,,,,,,,,,,,,,,,,,,,,,,,,,,,,,,,,,,,,,,,
,,,,,,,,2023-08-16_08h47.32.607,HF_wild_card,2022.2.4,Win32,60.64281383,634689122e997b8299adeda5,64d2fd46c836a06233681665,64dc7f0d0f4bab065e53d28a,,,,,,,decisionTrl,resources/DY.BMP,resources/DP.BMP,Door2,-0.267607968,0.012956806,1,0,0,0.6791,optionLeft,40,400,1,6,0,6,0,1,,,,,,,,,,,,,,,,,,,,,,,,,,,,,,,,,,,,,,,
,,,,,,,,2023-08-16_08h47.32.607,HF_wild_card,2022.2.4,Win32,60.64281383,634689122e997b8299adeda5,64d2fd46c836a06233681665,64dc7f0d0f4bab065e53d28a,,,,,,,decisionTrl,resources/DG.BMP,resources/DB.BMP,Door4,-0.293521579,0.020265766,1,0,0,1.1132,optionLeft,60,460,1,7,0,7,0,1,,,,,,,,,,,,,,,,,,,,,,,,,,,,,,,,,,,,,,,
,,,,,,,,2023-08-16_08h47.32.607,HF_wild_card,2022.2.4,Win32,60.64281383,634689122e997b8299adeda5,64d2fd46c836a06233681665,64dc7f0d0f4bab065e53d28a,,,,,,,ctch,resources/DP.BMP,resources/DG.BMP,Door4,0.247342203,0.004318841,1,0,0,0.5466,optionRight,80,540,1,8,0,8,0,1,,,,,,,,,,,,,,,,,,,,,,,,,,,,,,,,,,,,,,,
,,,,,,,,2023-08-16_08h47.32.607,HF_wild_card,2022.2.4,Win32,60.64281383,634689122e997b8299adeda5,64d2fd46c836a06233681665,64dc7f0d0f4bab065e53d28a,,,,,,,ctch,resources/DG.BMP,resources/DP.BMP,Door4,-0.207807213,0.026910294,1,0,0,0.4315,optionLeft,60,600,1,9,0,9,0,1,,,,,,,,,,,,,,,,,,,,,,,,,,,,,,,,,,,,,,,
,,,,,,,,2023-08-16_08h47.32.607,HF_wild_card,2022.2.4,Win32,60.64281383,634689122e997b8299adeda5,64d2fd46c836a06233681665,64dc7f0d0f4bab065e53d28a,,,,,,,decisionTrl,resources/DBN.BMP,resources/DB.BMP,Door3,-0.217109538,0.031561457,1,0,0,0.43,optionLeft,70,670,1,10,0,10,0,1,,,,,,,,,,,,,,,,,,,,,,,,,,,,,,,,,,,,,,,
,,,,,,,,2023-08-16_08h47.32.607,HF_wild_card,2022.2.4,Win32,60.64281383,634689122e997b8299adeda5,64d2fd46c836a06233681665,64dc7f0d0f4bab065e53d28a,,,,,,,decisionTrl,resources/DG.BMP,resources/DBN.BMP,Door4,-0.199833786,-0.012956912,1,0,0,0.5307,optionLeft,60,730,1,11,0,11,0,1,,,,,,,,,,,,,,,,,,,,,,,,,,,,,,,,,,,,,,,
,,,,,,,,2023-08-16_08h47.32.607,HF_wild_card,2022.2.4,Win32,60.64281383,634689122e997b8299adeda5,64d2fd46c836a06233681665,64dc7f0d0f4bab065e53d28a,,,,,,,sngl,resources/DB.BMP,resources/Empty.png,WildCard_NonEx,-0.272259131,0.030232452,1,0,0,0.4803,optionLeft,45,775,1,12,0,12,0,1,,,,,,,,,,,,,,,,,,,,,,,,,,,,,,,,,,,,,,,
,,,,,,,,2023-08-16_08h47.32.607,HF_wild_card,2022.2.4,Win32,60.64281383,634689122e997b8299adeda5,64d2fd46c836a06233681665,64dc7f0d0f4bab065e53d28a,,,,,,,ctch,resources/DBN.BMP,resources/DY.BMP,Door2,0.28521615,0.02425239,1,0,0,0.4639,optionRight,20,795,1,13,0,13,0,1,,,,,,,,,,,,,,,,,,,,,,,,,,,,,,,,,,,,,,,
,,,,,,,,2023-08-16_08h47.32.607,HF_wild_card,2022.2.4,Win32,60.64281383,634689122e997b8299adeda5,64d2fd46c836a06233681665,64dc7f0d0f4bab065e53d28a,,,,,,,sngl,resources/Empty.png,resources/DB.BMP,WildCard_NonEx,0.299169638,-0.011628013,1,0,0,0.6635,optionRight,55,850,1,14,0,14,0,1,,,,,,,,,,,,,,,,,,,,,,,,,,,,,,,,,,,,,,,
,,,,,,,,2023-08-16_08h47.32.607,HF_wild_card,2022.2.4,Win32,60.64281383,634689122e997b8299adeda5,64d2fd46c836a06233681665,64dc7f0d0f4bab065e53d28a,,,,,,,ctch,resources/DY.BMP,resources/DBN.BMP,Door2,-0.245016515,0.006312277,1,0,0,0.4804,optionLeft,40,890,1,15,0,15,0,1,,,,,,,,,,,,,,,,,,,,,,,,,,,,,,,,,,,,,,,
,,,,,,,,2023-08-16_08h47.32.607,HF_wild_card,2022.2.4,Win32,60.64281383,634689122e997b8299adeda5,64d2fd46c836a06233681665,64dc7f0d0f4bab065e53d28a,,,,,,,decisionTrl,resources/DBN.BMP,resources/DG.BMP,Door4,0.26063126,0.007641176,1,0,0,0.4304,optionRight,60,950,1,16,0,16,0,1,,,,,,,,,,,,,,,,,,,,,,,,,,,,,,,,,,,,,,,
,,,,,,,,2023-08-16_08h47.32.607,HF_wild_card,2022.2.4,Win32,60.64281383,634689122e997b8299adeda5,64d2fd46c836a06233681665,64dc7f0d0f4bab065e53d28a,,,,,,,decisionTrl,resources/DBN.BMP,resources/DG.BMP,Door3,-0.20315605,-0.002990048,1,0,0,0.4641,optionLeft,70,1020,1,17,0,17,0,1,,,,,,,,,,,,,,,,,,,,,,,,,,,,,,,,,,,,,,,
,,,,,,,,2023-08-16_08h47.32.607,HF_wild_card,2022.2.4,Win32,60.64281383,634689122e997b8299adeda5,64d2fd46c836a06233681665,64dc7f0d0f4bab065e53d28a,,,,,,,decisionTrl,resources/DG.BMP,resources/DBN.BMP,Door3,0.329734412,0.018272329,1,0,0,0.5967,optionRight,70,1090,1,18,0,18,0,1,,,,,,,,,,,,,,,,,,,,,,,,,,,,,,,,,,,,,,,
,,,,,,,,2023-08-16_08h47.32.607,HF_wild_card,2022.2.4,Win32,60.64281383,634689122e997b8299adeda5,64d2fd46c836a06233681665,64dc7f0d0f4bab065e53d28a,,,,,,,sngl,resources/DBN.BMP,resources/Empty.png,Door3,-0.227076402,0.020930126,1,0,0,0.5466,optionLeft,70,1160,1,19,0,19,0,1,,,,,,,,,,,,,,,,,,,,,,,,,,,,,,,,,,,,,,,
,,,,,,,,2023-08-16_08h47.32.607,HF_wild_card,2022.2.4,Win32,60.64281383,634689122e997b8299adeda5,64d2fd46c836a06233681665,64dc7f0d0f4bab065e53d28a,,,,,,,decisionTrl,resources/DP.BMP,resources/DY.BMP,Door2,0.436711156,-0.031561563,1,0,0,0.5641,optionRight,40,1200,1,20,0,20,0,1,,,,,,,,,,,,,,,,,,,,,,,,,,,,,,,,,,,,,,,
,,,,,,,,2023-08-16_08h47.32.607,HF_wild_card,2022.2.4,Win32,60.64281383,634689122e997b8299adeda5,64d2fd46c836a06233681665,64dc7f0d0f4bab065e53d28a,,,,,,,decisionTrl,resources/DG.BMP,resources/DBN.BMP,Door4,-0.237043088,0.026910294,1,0,0,0.8462,optionLeft,80,1280,1,21,0,21,0,1,,,,,,,,,,,,,,,,,,,,,,,,,,,,,,,,,,,,,,,
,,,,,,,,2023-08-16_08h47.32.607,HF_wild_card,2022.2.4,Win32,60.64281383,634689122e997b8299adeda5,64d2fd46c836a06233681665,64dc7f0d0f4bab065e53d28a,,,,,,,decisionTrl,resources/DY.BMP,resources/DP.BMP,Door1,0.358305678,-0.010299115,1,0,0,1.5134,optionRight,30,1310,1,22,0,22,0,1,,,,,,,,,,,,,,,,,,,,,,,,,,,,,,,,,,,,,,,
,,,,,,,,2023-08-16_08h47.32.607,HF_wild_card,2022.2.4,Win32,60.64281383,634689122e997b8299adeda5,64d2fd46c836a06233681665,64dc7f0d0f4bab065e53d28a,,,,,,,sngl,resources/DB.BMP,resources/Empty.png,WildCard_NonEx,-0.204484948,-0.007641211,1,0,0,0.5633,optionLeft,55,1365,1,23,0,23,0,1,,,,,,,,,,,,,,,,,,,,,,,,,,,,,,,,,,,,,,,
,,,,,,,,2023-08-16_08h47.32.607,HF_wild_card,2022.2.4,Win32,60.64281383,634689122e997b8299adeda5,64d2fd46c836a06233681665,64dc7f0d0f4bab065e53d28a,,,,,,,sngl,resources/DP.BMP,resources/Empty.png,Door1,-0.250996576,0.012292339,1,0,0,0.6967,optionLeft,30,1395,1,24,0,24,0,1,,,,,,,,,,,,,,,,,,,,,,,,,,,,,,,,,,,,,,,
,,,,,,,,2023-08-16_08h47.32.607,HF_wild_card,2022.2.4,Win32,60.64281383,634689122e997b8299adeda5,64d2fd46c836a06233681665,64dc7f0d0f4bab065e53d28a,,,,,,,sngl,resources/Empty.png,resources/DB.BMP,WildCard_NonEx,0.205481738,0.006976638,1,0,0,0.6642,optionRight,45,1440,1,25,0,25,0,1,,,,,,,,,,,,,,,,,,,,,,,,,,,,,,,,,,,,,,,
,,,,,,,,2023-08-16_08h47.32.607,HF_wild_card,2022.2.4,Win32,60.64281383,634689122e997b8299adeda5,64d2fd46c836a06233681665,64dc7f0d0f4bab065e53d28a,,,,,,,decisionTrl,resources/DBN.BMP,resources/DG.BMP,Door3,-0.243687687,0.034883614,1,0,0,0.5133,optionLeft,70,1510,1,26,0,26,0,1,,,,,,,,,,,,,,,,,,,,,,,,,,,,,,,,,,,,,,,
,,,,,,,,2023-08-16_08h47.32.607,HF_wild_card,2022.2.4,Win32,60.64281383,634689122e997b8299adeda5,64d2fd46c836a06233681665,64dc7f0d0f4bab065e53d28a,,,,,,,sngl,resources/Empty.png,resources/DP.BMP,Door1,0.214119632,-0.00166115,1,0,0,0.6641,optionRight,30,1540,1,27,0,27,0,1,,,,,,,,,,,,,,,,,,,,,,,,,,,,,,,,,,,,,,,
,,,,,,,,2023-08-16_08h47.32.607,HF_wild_card,2022.2.4,Win32,60.64281383,634689122e997b8299adeda5,64d2fd46c836a06233681665,64dc7f0d0f4bab065e53d28a,,,,,,,sngl,resources/DY.BMP,resources/Empty.png,Door2,-0.231727565,-0.005647846,1,0,0,0.5792,optionLeft,40,1580,1,28,0,28,0,1,,,,,,,,,,,,,,,,,,,,,,,,,,,,,,,,,,,,,,,
,,,,,,,,2023-08-16_08h47.32.607,HF_wild_card,2022.2.4,Win32,60.64281383,634689122e997b8299adeda5,64d2fd46c836a06233681665,64dc7f0d0f4bab065e53d28a,,,,,,,ctch,resources/DBN.BMP,resources/DY.BMP,Door3,-0.240365352,0.005647739,1,0,0,1.114,optionLeft,70,1650,1,29,0,29,0,1,,,,,,,,,,,,,,,,,,,,,,,,,,,,,,,,,,,,,,,
,,,,,,,,2023-08-16_08h47.32.607,HF_wild_card,2022.2.4,Win32,60.64281383,634689122e997b8299adeda5,64d2fd46c836a06233681665,64dc7f0d0f4bab065e53d28a,,,,,,,decisionTrl,resources/DB.BMP,resources/DY.BMP,WildCard_NonEx,-0.158637859,0.020265766,1,0,0,0.6131,optionLeft,55,1705,1,30,0,30,0,1,,,,,,,,,,,,,,,,,,,,,,,,,,,,,,,,,,,,,,,
,,,,,,,,2023-08-16_08h47.32.607,HF_wild_card,2022.2.4,Win32,60.64281383,634689122e997b8299adeda5,64d2fd46c836a06233681665,64dc7f0d0f4bab065e53d28a,,,,,,,decisionTrl,resources/DB.BMP,resources/DP.BMP,Door1,0.282558352,-0.024252603,1,0,0,1.1308,optionRight,30,1735,1,31,0,31,0,1,,,,,,,,,,,,,,,,,,,,,,,,,,,,,,,,,,,,,,,
,,,,,,,,2023-08-16_08h47.32.607,HF_wild_card,2022.2.4,Win32,60.64281383,634689122e997b8299adeda5,64d2fd46c836a06233681665,64dc7f0d0f4bab065e53d28a,,,,,,,ctch,resources/DP.BMP,resources/DG.BMP,Door4,0.241362319,-0.013621273,1,0,0,1.0462,optionRight,60,1795,1,32,0,32,0,1,,,,,,,,,,,,,,,,,,,,,,,,,,,,,,,,,,,,,,,
,,,,,,,,2023-08-16_08h47.32.607,HF_wild_card,2022.2.4,Win32,60.64281383,634689122e997b8299adeda5,64d2fd46c836a06233681665,64dc7f0d0f4bab065e53d28a,,,,,,,decisionTrl,resources/DY.BMP,resources/DB.BMP,Door2,-0.258305643,-0.000996683,1,0,0,1.0971,optionLeft,40,1835,1,33,0,33,0,1,,,,,,,,,,,,,,,,,,,,,,,,,,,,,,,,,,,,,,,
,,,,,,,,2023-08-16_08h47.32.607,HF_wild_card,2022.2.4,Win32,60.64281383,634689122e997b8299adeda5,64d2fd46c836a06233681665,64dc7f0d0f4bab065e53d28a,,,,,,,sngl,resources/Empty.png,resources/DY.BMP,Door2,0.273256027,0.000996576,1,0,0,0.6637,optionRight,20,1855,1,34,0,34,0,1,,,,,,,,,,,,,,,,,,,,,,,,,,,,,,,,,,,,,,,
,,,,,,,,2023-08-16_08h47.32.607,HF_wild_card,2022.2.4,Win32,60.64281383,634689122e997b8299adeda5,64d2fd46c836a06233681665,64dc7f0d0f4bab065e53d28a,,,,,,,decisionTrl,resources/DY.BMP,resources/DP.BMP,Door2,-0.130066344,-0.006312313,1,0,0,0.6295,optionLeft,40,1895,1,35,0,35,0,1,,,,,,,,,,,,,,,,,,,,,,,,,,,,,,,,,,,,,,,
,,,,,,,,2023-08-16_08h47.32.607,HF_wild_card,2022.2.4,Win32,60.64281383,634689122e997b8299adeda5,64d2fd46c836a06233681665,64dc7f0d0f4bab065e53d28a,,,,,,,decisionTrl,resources/DB.BMP,resources/DG.BMP,Door4,0.488538307,0.01096344,1,0,0,0.4463,optionRight,80,1975,1,36,0,36,0,1,,,,,,,,,,,,,,,,,,,,,,,,,,,,,,,,,,,,,,,
,,,,,,,,2023-08-16_08h47.32.607,HF_wild_card,2022.2.4,Win32,60.64281383,634689122e997b8299adeda5,64d2fd46c836a06233681665,64dc7f0d0f4bab065e53d28a,,,,,,,decisionTrl,resources/DBN.BMP,resources/DG.BMP,Door4,0.396179625,-0.025581502,1,0,0,0.5475,optionRight,60,2035,1,37,0,37,0,1,,,,,,,,,,,,,,,,,,,,,,,,,,,,,,,,,,,,,,,
,,,,,,,,2023-08-16_08h47.32.607,HF_wild_card,2022.2.4,Win32,60.64281383,634689122e997b8299adeda5,64d2fd46c836a06233681665,64dc7f0d0f4bab065e53d28a,,,,,,,decisionTrl,resources/DY.BMP,resources/DP.BMP,Door2,-0.233056463,0.040199315,1,0,0,0.4963,optionLeft,40,2075,1,38,0,38,0,1,,,,,,,,,,,,,,,,,,,,,,,,,,,,,,,,,,,,,,,
,,,,,,,,2023-08-16_08h47.32.607,HF_wild_card,2022.2.4,Win32,60.64281383,634689122e997b8299adeda5,64d2fd46c836a06233681665,64dc7f0d0f4bab065e53d28a,,,,,,,decisionTrl,resources/DP.BMP,resources/DY.BMP,Door2,0.322425452,0.008970003,1,0,0,0.4296,optionRight,40,2115,1,39,0,39,0,1,,,,,,,,,,,,,,,,,,,,,,,,,,,,,,,,,,,,,,,
,,,,,,,,2023-08-16_08h47.32.607,HF_wild_card,2022.2.4,Win32,60.64281383,634689122e997b8299adeda5,64d2fd46c836a06233681665,64dc7f0d0f4bab065e53d28a,,,,,,,sngl,resources/Empty.png,resources/DG.BMP,Door4,0.325083249,0.017607968,1,0,0,0.4304,optionRight,60,2175,1,40,0,40,0,1,,,,,,,,,,,,,,,,,,,,,,,,,,,,,,,,,,,,,,,
,,,,,,,,2023-08-16_08h47.32.607,HF_wild_card,2022.2.4,Win32,60.64281383,634689122e997b8299adeda5,64d2fd46c836a06233681665,64dc7f0d0f4bab065e53d28a,,,,,,,decisionTrl,resources/DP.BMP,resources/DY.BMP,Door2,0.261960336,-0.018936973,1,0,0,0.6653,optionRight,40,2215,1,41,0,41,0,1,,,,,,,,,,,,,,,,,,,,,,,,,,,,,,,,,,,,,,,
,,,,,,,,2023-08-16_08h47.32.607,HF_wild_card,2022.2.4,Win32,60.64281383,634689122e997b8299adeda5,64d2fd46c836a06233681665,64dc7f0d0f4bab065e53d28a,,,,,,,ctch,resources/DG.BMP,resources/DP.BMP,Door4,-0.20315605,0.045514945,1,0,0,0.3972,optionLeft,60,2275,1,42,0,42,0,1,,,,,,,,,,,,,,,,,,,,,,,,,,,,,,,,,,,,,,,
,,,,,,,,2023-08-16_08h47.32.607,HF_wild_card,2022.2.4,Win32,60.64281383,634689122e997b8299adeda5,64d2fd46c836a06233681665,64dc7f0d0f4bab065e53d28a,,,,,,,sngl,resources/Empty.png,resources/DBN.BMP,Door3,0.488538307,-0.002325688,1,0,0,0.4299,optionRight,70,2345,1,43,0,43,0,1,,,,,,,,,,,,,,,,,,,,,,,,,,,,,,,,,,,,,,,
,,,,,,,,2023-08-16_08h47.32.607,HF_wild_card,2022.2.4,Win32,60.64281383,634689122e997b8299adeda5,64d2fd46c836a06233681665,64dc7f0d0f4bab065e53d28a,,,,,,,,,,,,,,,,,,,,,,,,,,0,0,0,0,1,,,,,,,,,,,,,,,,,,,,,,,,,,,,,,,,,,
,,,,,,,,2023-08-16_08h47.32.607,HF_wild_card,2022.2.4,Win32,60.64281383,634689122e997b8299adeda5,64d2fd46c836a06233681665,64dc7f0d0f4bab065e53d28a,,,,,,,decisionTrl,resources/DY.BMP,resources/DP.BMP,Door2,-0.131395349,-0.065448601,1,0,0,0.7208,optionLeft,20,2365,2,0,0,0,0,1,,,,,,,,,,,,,,,,,,,,,,,,,,,,,,,,,,,,,,,
,,,,,,,,2023-08-16_08h47.32.607,HF_wild_card,2022.2.4,Win32,60.64281383,634689122e997b8299adeda5,64d2fd46c836a06233681665,64dc7f0d0f4bab065e53d28a,,,,,,,decisionTrl,resources/DB.BMP,resources/DG.BMP,Door4,0.434717649,-0.002325688,1,0,0,0.3645,optionRight,60,2425,2,1,0,1,0,1,,,,,,,,,,,,,,,,,,,,,,,,,,,,,,,,,,,,,,,
,,,,,,,,2023-08-16_08h47.32.607,HF_wild_card,2022.2.4,Win32,60.64281383,634689122e997b8299adeda5,64d2fd46c836a06233681665,64dc7f0d0f4bab065e53d28a,,,,,,,sngl,resources/Empty.png,resources/DG.BMP,Door4,-0.245016515,0.028239193,1,0,0,0.398,optionRight,80,2505,2,2,0,2,0,1,,,,,,,,,,,,,,,,,,,,,,,,,,,,,,,,,,,,,,,
,,,,,,,,2023-08-16_08h47.32.607,HF_wild_card,2022.2.4,Win32,60.64281383,634689122e997b8299adeda5,64d2fd46c836a06233681665,64dc7f0d0f4bab065e53d28a,,,,,,,decisionTrl,resources/DBN.BMP,resources/DG.BMP,Door4,0.421428592,0.018272329,1,0,0,0.4645,optionRight,80,2585,2,3,0,3,0,1,,,,,,,,,,,,,,,,,,,,,,,,,,,,,,,,,,,,,,,
,,,,,,,,2023-08-16_08h47.32.607,HF_wild_card,2022.2.4,Win32,60.64281383,634689122e997b8299adeda5,64d2fd46c836a06233681665,64dc7f0d0f4bab065e53d28a,,,,,,,sngl,resources/DG.BMP,resources/Empty.png,Door4,0.469933656,0.004318841,1,0,0,0.356,optionLeft,60,2645,2,4,0,4,0,1,,,,,,,,,,,,,,,,,,,,,,,,,,,,,,,,,,,,,,,
,,,,,,,,2023-08-16_08h47.32.607,HF_wild_card,2022.2.4,Win32,60.64281383,634689122e997b8299adeda5,64d2fd46c836a06233681665,64dc7f0d0f4bab065e53d28a,,,,,,,ctch,resources/DP.BMP,resources/DG.BMP,Door4,0.3436879,0.038205879,1,0,0,0.4476,optionRight,80,2725,2,5,0,5,0,1,,,,,,,,,,,,,,,,,,,,,,,,,,,,,,,,,,,,,,,
,,,,,,,,2023-08-16_08h47.32.607,HF_wild_card,2022.2.4,Win32,60.64281383,634689122e997b8299adeda5,64d2fd46c836a06233681665,64dc7f0d0f4bab065e53d28a,,,,,,,decisionTrl,resources/DBN.BMP,resources/DB.BMP,Door3,-0.399833786,0.055481631,1,0,0,0.4308,optionLeft,70,2795,2,6,0,6,0,1,,,,,,,,,,,,,,,,,,,,,,,,,,,,,,,,,,,,,,,
,,,,,,,,2023-08-16_08h47.32.607,HF_wild_card,2022.2.4,Win32,60.64281383,634689122e997b8299adeda5,64d2fd46c836a06233681665,64dc7f0d0f4bab065e53d28a,,,,,,,decisionTrl,resources/DP.BMP,resources/DB.BMP,WildCard_NonEx,0.289202881,-0.0215947,1,0,0,0.4542,optionRight,45,2840,2,7,0,7,0,1,,,,,,,,,,,,,,,,,,,,,,,,,,,,,,,,,,,,,,,
,,,,,,,,2023-08-16_08h47.32.607,HF_wild_card,2022.2.4,Win32,60.64281383,634689122e997b8299adeda5,64d2fd46c836a06233681665,64dc7f0d0f4bab065e53d28a,,,,,,,decisionTrl,resources/DG.BMP,resources/DBN.BMP,Door4,-0.243023149,0.02425239,1,0,0,0.3466,optionLeft,80,2920,2,8,0,8,0,1,,,,,,,,,,,,,,,,,,,,,,,,,,,,,,,,,,,,,,,
,,,,,,,,2023-08-16_08h47.32.607,HF_wild_card,2022.2.4,Win32,60.64281383,634689122e997b8299adeda5,64d2fd46c836a06233681665,64dc7f0d0f4bab065e53d28a,,,,,,,decisionTrl,resources/DY.BMP,resources/DP.BMP,Door1,0.291196034,0.040863782,1,0,0,0.4128,optionRight,30,2950,2,9,0,9,0,1,,,,,,,,,,,,,,,,,,,,,,,,,,,,,,,,,,,,,,,
,,,,,,,,2023-08-16_08h47.32.607,HF_wild_card,2022.2.4,Win32,60.64281383,634689122e997b8299adeda5,64d2fd46c836a06233681665,64dc7f0d0f4bab065e53d28a,,,,,,,decisionTrl,resources/DP.BMP,resources/DY.BMP,Door1,-0.274916928,0.02358803,1,0,0,0.3643,optionLeft,30,2980,2,10,0,10,0,1,,,,,,,,,,,,,,,,,,,,,,,,,,,,,,,,,,,,,,,
,,,,,,,,2023-08-16_08h47.32.607,HF_wild_card,2022.2.4,Win32,60.64281383,634689122e997b8299adeda5,64d2fd46c836a06233681665,64dc7f0d0f4bab065e53d28a,,,,,,,decisionTrl,resources/DB.BMP,resources/DP.BMP,Door1,0.393521615,0.020265766,1,0,0,0.3639,optionRight,30,3010,2,11,0,11,0,1,,,,,,,,,,,,,,,,,,,,,,,,,,,,,,,,,,,,,,,
,,,,,,,,2023-08-16_08h47.32.607,HF_wild_card,2022.2.4,Win32,60.64281383,634689122e997b8299adeda5,64d2fd46c836a06233681665,64dc7f0d0f4bab065e53d28a,,,,,,,sngl,resources/Empty.png,resources/DY.BMP,Door2,0.264618133,0.026910294,1,0,0,0.5815,optionRight,40,3050,2,12,0,12,0,1,,,,,,,,,,,,,,,,,,,,,,,,,,,,,,,,,,,,,,,
,,,,,,,,2023-08-16_08h47.32.607,HF_wild_card,2022.2.4,Win32,60.64281383,634689122e997b8299adeda5,64d2fd46c836a06233681665,64dc7f0d0f4bab065e53d28a,,,,,,,ctch,resources/DBN.BMP,resources/DY.BMP,Door3,-0.19053146,0.034883614,1,0,0,0.365,optionLeft,70,3120,2,13,0,13,0,1,,,,,,,,,,,,,,,,,,,,,,,,,,,,,,,,,,,,,,,
,,,,,,,,2023-08-16_08h47.32.607,HF_wild_card,2022.2.4,Win32,60.64281383,634689122e997b8299adeda5,64d2fd46c836a06233681665,64dc7f0d0f4bab065e53d28a,,,,,,,decisionTrl,resources/DB.BMP,resources/DBN.BMP,Door3,0.30448509,-0.000332322,1,0,0,0.3729,optionRight,70,3190,2,14,0,14,0,1,,,,,,,,,,,,,,,,,,,,,,,,,,,,,,,,,,,,,,,
,,,,,,,,2023-08-16_08h47.32.607,HF_wild_card,2022.2.4,Win32,60.64281383,634689122e997b8299adeda5,64d2fd46c836a06233681665,64dc7f0d0f4bab065e53d28a,,,,,,,decisionTrl,resources/DB.BMP,resources/DY.BMP,WildCard_NonEx,-0.201827222,0.026245827,1,0,0,0.388,optionLeft,55,3245,2,15,0,15,0,1,,,,,,,,,,,,,,,,,,,,,,,,,,,,,,,,,,,,,,,
,,,,,,,,2023-08-16_08h47.32.607,HF_wild_card,2022.2.4,Win32,60.64281383,634689122e997b8299adeda5,64d2fd46c836a06233681665,64dc7f0d0f4bab065e53d28a,,,,,,,decisionTrl,resources/DBN.BMP,resources/DG.BMP,Door4,0.276578114,0.019601228,1,0,0,0.3897,optionRight,80,3325,2,16,0,16,0,1,,,,,,,,,,,,,,,,,,,,,,,,,,,,,,,,,,,,,,,
,,,,,,,,2023-08-16_08h47.32.607,HF_wild_card,2022.2.4,Win32,60.64281383,634689122e997b8299adeda5,64d2fd46c836a06233681665,64dc7f0d0f4bab065e53d28a,,,,,,,decisionTrl,resources/DP.BMP,resources/DY.BMP,Door1,-0.162624483,0.006976638,1,0,0,0.4711,optionLeft,30,3355,2,17,0,17,0,1,,,,,,,,,,,,,,,,,,,,,,,,,,,,,,,,,,,,,,,
,,,,,,,,2023-08-16_08h47.32.607,HF_wild_card,2022.2.4,Win32,60.64281383,634689122e997b8299adeda5,64d2fd46c836a06233681665,64dc7f0d0f4bab065e53d28a,,,,,,,decisionTrl,resources/DG.BMP,resources/DB.BMP,WildCard_NonEx,0.347009987,-0.00166115,1,0,0,0.4139,optionRight,45,3400,2,18,0,18,0,1,,,,,,,,,,,,,,,,,,,,,,,,,,,,,,,,,,,,,,,
,,,,,,,,2023-08-16_08h47.32.607,HF_wild_card,2022.2.4,Win32,60.64281383,634689122e997b8299adeda5,64d2fd46c836a06233681665,64dc7f0d0f4bab065e53d28a,,,,,,,sngl,resources/Empty.png,resources/DP.BMP,Door1,0.201495219,0.039534777,1,0,0,0.705,optionRight,30,3430,2,19,0,19,0,1,,,,,,,,,,,,,,,,,,,,,,,,,,,,,,,,,,,,,,,
,,,,,,,,2023-08-16_08h47.32.607,HF_wild_card,2022.2.4,Win32,60.64281383,634689122e997b8299adeda5,64d2fd46c836a06233681665,64dc7f0d0f4bab065e53d28a,,,,,,,ctch,resources/DG.BMP,resources/DP.BMP,Door4,-0.173255707,0.034883614,1,0,0,0.4215,optionLeft,60,3490,2,20,0,20,0,1,,,,,,,,,,,,,,,,,,,,,,,,,,,,,,,,,,,,,,,
,,,,,,,,2023-08-16_08h47.32.607,HF_wild_card,2022.2.4,Win32,60.64281383,634689122e997b8299adeda5,64d2fd46c836a06233681665,64dc7f0d0f4bab065e53d28a,,,,,,,sngl,resources/Empty.png,resources/DBN.BMP,Door3,0.352990226,0.01096344,1,0,0,0.4384,optionRight,70,3560,2,21,0,21,0,1,,,,,,,,,,,,,,,,,,,,,,,,,,,,,,,,,,,,,,,
,,,,,,,,2023-08-16_08h47.32.607,HF_wild_card,2022.2.4,Win32,60.64281383,634689122e997b8299adeda5,64d2fd46c836a06233681665,64dc7f0d0f4bab065e53d28a,,,,,,,sngl,resources/Empty.png,resources/DB.BMP,WildCard_NonEx,0.433388927,0.013621166,1,0,0,0.7306,optionRight,45,3605,2,22,0,22,0,1,,,,,,,,,,,,,,,,,,,,,,,,,,,,,,,,,,,,,,,
,,,,,,,,2023-08-16_08h47.32.607,HF_wild_card,2022.2.4,Win32,60.64281383,634689122e997b8299adeda5,64d2fd46c836a06233681665,64dc7f0d0f4bab065e53d28a,,,,,,,ctch,resources/DP.BMP,resources/DG.BMP,Door1,-0.183886932,0.016943501,1,0,0,0.345,optionLeft,30,3635,2,23,0,23,0,1,,,,,,,,,,,,,,,,,,,,,,,,,,,,,,,,,,,,,,,
,,,,,,,,2023-08-16_08h47.32.607,HF_wild_card,2022.2.4,Win32,60.64281383,634689122e997b8299adeda5,64d2fd46c836a06233681665,64dc7f0d0f4bab065e53d28a,,,,,,,decisionTrl,resources/DG.BMP,resources/DBN.BMP,Door3,0.357641389,0.020265766,1,0,0,0.3901,optionRight,70,3705,2,24,0,24,0,1,,,,,,,,,,,,,,,,,,,,,,,,,,,,,,,,,,,,,,,
,,,,,,,,2023-08-16_08h47.32.607,HF_wild_card,2022.2.4,Win32,60.64281383,634689122e997b8299adeda5,64d2fd46c836a06233681665,64dc7f0d0f4bab065e53d28a,,,,,,,ctch,resources/DBN.BMP,resources/DY.BMP,Door3,-0.193189257,0.018936867,1,0,0,0.5476,optionLeft,70,3775,2,25,0,25,0,1,,,,,,,,,,,,,,,,,,,,,,,,,,,,,,,,,,,,,,,
,,,,,,,,2023-08-16_08h47.32.607,HF_wild_card,2022.2.4,Win32,60.64281383,634689122e997b8299adeda5,64d2fd46c836a06233681665,64dc7f0d0f4bab065e53d28a,,,,,,,sngl,resources/DBN.BMP,resources/Empty.png,Door3,-0.219767335,0.02425239,1,0,0,0.9634,optionLeft,70,3845,2,26,0,26,0,1,,,,,,,,,,,,,,,,,,,,,,,,,,,,,,,,,,,,,,,
,,,,,,,,2023-08-16_08h47.32.607,HF_wild_card,2022.2.4,Win32,60.64281383,634689122e997b8299adeda5,64d2fd46c836a06233681665,64dc7f0d0f4bab065e53d28a,,,,,,,sngl,resources/DP.BMP,resources/Empty.png,Door1,-0.162624483,0.029568091,1,0,0,0.6714,optionLeft,30,3875,2,27,0,27,0,1,,,,,,,,,,,,,,,,,,,,,,,,,,,,,,,,,,,,,,,
,,,,,,,,2023-08-16_08h47.32.607,HF_wild_card,2022.2.4,Win32,60.64281383,634689122e997b8299adeda5,64d2fd46c836a06233681665,64dc7f0d0f4bab065e53d28a,,,,,,,decisionTrl,resources/DY.BMP,resources/DP.BMP,Door1,0.222093236,0.01096344,1,0,0,0.4646,optionRight,30,3905,2,28,0,28,0,1,,,,,,,,,,,,,,,,,,,,,,,,,,,,,,,,,,,,,,,
,,,,,,,,2023-08-16_08h47.32.607,HF_wild_card,2022.2.4,Win32,60.64281383,634689122e997b8299adeda5,64d2fd46c836a06233681665,64dc7f0d0f4bab065e53d28a,,,,,,,decisionTrl,resources/DBN.BMP,resources/DG.BMP,Door3,-0.244352154,0.000332216,1,0,0,0.5555,optionLeft,70,3975,2,29,0,29,0,1,,,,,,,,,,,,,,,,,,,,,,,,,,,,,,,,,,,,,,,
,,,,,,,,2023-08-16_08h47.32.607,HF_wild_card,2022.2.4,Win32,60.64281383,634689122e997b8299adeda5,64d2fd46c836a06233681665,64dc7f0d0f4bab065e53d28a,,,,,,,decisionTrl,resources/DBN.BMP,resources/DG.BMP,Door4,0.205481738,-0.010963475,1,0,0,0.6909,optionRight,80,4055,2,30,0,30,0,1,,,,,,,,,,,,,,,,,,,,,,,,,,,,,,,,,,,,,,,
,,,,,,,,2023-08-16_08h47.32.607,HF_wild_card,2022.2.4,Win32,60.64281383,634689122e997b8299adeda5,64d2fd46c836a06233681665,64dc7f0d0f4bab065e53d28a,,,,,,,ctch,resources/DY.BMP,resources/DBN.BMP,Door2,-0.208471751,-0.003654586,1,0,0,0.4718,optionLeft,40,4095,2,31,0,31,0,1,,,,,,,,,,,,,,,,,,,,,,,,,,,,,,,,,,,,,,,
,,,,,,,,2023-08-16_08h47.32.607,HF_wild_card,2022.2.4,Win32,60.64281383,634689122e997b8299adeda5,64d2fd46c836a06233681665,64dc7f0d0f4bab065e53d28a,,,,,,,ctch,resources/DY.BMP,resources/DBN.BMP,Door3,0.205481738,-0.000332322,1,0,0,0.4141,optionRight,70,4165,2,32,0,32,0,1,,,,,,,,,,,,,,,,,,,,,,,,,,,,,,,,,,,,,,,
,,,,,,,,2023-08-16_08h47.32.607,HF_wild_card,2022.2.4,Win32,60.64281383,634689122e997b8299adeda5,64d2fd46c836a06233681665,64dc7f0d0f4bab065e53d28a,,,,,,,sngl,resources/Empty.png,resources/DB.BMP,WildCard_NonEx,0.301827435,0.024916928,1,0,0,0.8639,optionRight,55,4220,2,33,0,33,0,1,,,,,,,,,,,,,,,,,,,,,,,,,,,,,,,,,,,,,,,
,,,,,,,,2023-08-16_08h47.32.607,HF_wild_card,2022.2.4,Win32,60.64281383,634689122e997b8299adeda5,64d2fd46c836a06233681665,64dc7f0d0f4bab065e53d28a,,,,,,,sngl,resources/DB.BMP,resources/Empty.png,WildCard_NonEx,-0.158637859,0.002990013,1,0,0,0.5876,optionLeft,55,4275,2,34,0,34,0,1,,,,,,,,,,,,,,,,,,,,,,,,,,,,,,,,,,,,,,,
,,,,,,,,2023-08-16_08h47.32.607,HF_wild_card,2022.2.4,Win32,60.64281383,634689122e997b8299adeda5,64d2fd46c836a06233681665,64dc7f0d0f4bab065e53d28a,,,,,,,ctch,resources/DG.BMP,resources/DP.BMP,Door1,0.35431916,0.008305643,1,0,0,0.4894,optionRight,30,4305,2,35,0,35,0,1,,,,,,,,,,,,,,,,,,,,,,,,,,,,,,,,,,,,,,,
,,,,,,,,2023-08-16_08h47.32.607,HF_wild_card,2022.2.4,Win32,60.64281383,634689122e997b8299adeda5,64d2fd46c836a06233681665,64dc7f0d0f4bab065e53d28a,,,,,,,decisionTrl,resources/DY.BMP,resources/DP.BMP,Door2,-0.138039735,0.021594664,1,0,0,0.4388,optionLeft,40,4345,2,36,0,36,0,1,,,,,,,,,,,,,,,,,,,,,,,,,,,,,,,,,,,,,,,
,,,,,,,,2023-08-16_08h47.32.607,HF_wild_card,2022.2.4,Win32,60.64281383,634689122e997b8299adeda5,64d2fd46c836a06233681665,64dc7f0d0f4bab065e53d28a,,,,,,,sngl,resources/DB.BMP,resources/Empty.png,WildCard_NonEx,-0.120764018,0.016278963,1,0,0,0.5807,optionLeft,45,4390,2,37,0,37,0,1,,,,,,,,,,,,,,,,,,,,,,,,,,,,,,,,,,,,,,,
,,,,,,,,2023-08-16_08h47.32.607,HF_wild_card,2022.2.4,Win32,60.64281383,634689122e997b8299adeda5,64d2fd46c836a06233681665,64dc7f0d0f4bab065e53d28a,,,,,,,decisionTrl,resources/DG.BMP,resources/DBN.BMP,Door3,0.237375446,0.017607968,1,0,0,0.7204,optionRight,70,4460,2,38,0,38,0,1,,,,,,,,,,,,,,,,,,,,,,,,,,,,,,,,,,,,,,,
,,,,,,,,2023-08-16_08h47.32.607,HF_wild_card,2022.2.4,Win32,60.64281383,634689122e997b8299adeda5,64d2fd46c836a06233681665,64dc7f0d0f4bab065e53d28a,,,,,,,decisionTrl,resources/DP.BMP,resources/DY.BMP,Door2,0.281893708,0.028239193,1,0,0,0.8481,optionRight,40,4500,2,39,0,39,0,1,,,,,,,,,,,,,,,,,,,,,,,,,,,,,,,,,,,,,,,
,,,,,,,,2023-08-16_08h47.32.607,HF_wild_card,2022.2.4,Win32,60.64281383,634689122e997b8299adeda5,64d2fd46c836a06233681665,64dc7f0d0f4bab065e53d28a,,,,,,,sngl,resources/DY.BMP,resources/Empty.png,Door2,-0.16461792,0.014950065,1,0,0,0.5379,optionLeft,20,4520,2,40,0,40,0,1,,,,,,,,,,,,,,,,,,,,,,,,,,,,,,,,,,,,,,,
,,,,,,,,2023-08-16_08h47.32.607,HF_wild_card,2022.2.4,Win32,60.64281383,634689122e997b8299adeda5,64d2fd46c836a06233681665,64dc7f0d0f4bab065e53d28a,,,,,,,decisionTrl,resources/DY.BMP,resources/DB.BMP,WildCard_NonEx,0.297176272,0.007641176,1,0,0,0.4973,optionRight,55,4575,2,41,0,41,0,1,,,,,,,,,,,,,,,,,,,,,,,,,,,,,,,,,,,,,,,
,,,,,,,,2023-08-16_08h47.32.607,HF_wild_card,2022.2.4,Win32,60.64281383,634689122e997b8299adeda5,64d2fd46c836a06233681665,64dc7f0d0f4bab065e53d28a,,,,,,,decisionTrl,resources/DP.BMP,resources/DY.BMP,Door1,-0.265614603,0.028239193,1,0,0,0.747,optionLeft,30,4605,2,42,0,42,0,1,,,,,,,,,,,,,,,,,,,,,,,,,,,,,,,,,,,,,,,
,,,,,,,,2023-08-16_08h47.32.607,HF_wild_card,2022.2.4,Win32,60.64281383,634689122e997b8299adeda5,64d2fd46c836a06233681665,64dc7f0d0f4bab065e53d28a,,,,,,,decisionTrl,resources/DG.BMP,resources/DBN.BMP,Door3,0.289202881,0.011627801,1,0,0,0.5224,optionRight,70,4675,2,43,0,43,0,1,,,,,,,,,,,,,,,,,,,,,,,,,,,,,,,,,,,,,,,
,,,,,,,,2023-08-16_08h47.32.607,HF_wild_card,2022.2.4,Win32,60.64281383,634689122e997b8299adeda5,64d2fd46c836a06233681665,64dc7f0d0f4bab065e53d28a,,,,,,,,,,,,,,,,,,,,,,,,,,1,0,1,0,1,,,,,,,,,,,,,,,,,,,,,,,,,,,,,,,,,,
,,,,,,,,2023-08-16_08h47.32.607,HF_wild_card,2022.2.4,Win32,60.64281383,634689122e997b8299adeda5,64d2fd46c836a06233681665,64dc7f0d0f4bab065e53d28a,,,,,,,decisionTrl,resources/DG.BMP,resources/DBN.BMP,Door4,-0.284883614,0.077408618,1,0,0,0.7043,optionLeft,60,4735,3,0,0,0,0,1,,,,,,,,,,,,,,,,,,,,,,,,,,,,,,,,,,,,,,,
,,,,,,,,2023-08-16_08h47.32.607,HF_wild_card,2022.2.4,Win32,60.64281383,634689122e997b8299adeda5,64d2fd46c836a06233681665,64dc7f0d0f4bab065e53d28a,,,,,,,decisionTrl,resources/DBN.BMP,resources/DG.BMP,Door4,0.210797545,0.055481631,1,0,0,0.4319,optionRight,80,4815,3,1,0,1,0,1,,,,,,,,,,,,,,,,,,,,,,,,,,,,,,,,,,,,,,,
,,,,,,,,2023-08-16_08h47.32.607,HF_wild_card,2022.2.4,Win32,60.64281383,634689122e997b8299adeda5,64d2fd46c836a06233681665,64dc7f0d0f4bab065e53d28a,,,,,,,decisionTrl,resources/DG.BMP,resources/DBN.BMP,Door4,-0.256312277,0.04418594,1,0,0,0.4473,optionLeft,60,4875,3,2,0,2,0,1,,,,,,,,,,,,,,,,,,,,,,,,,,,,,,,,,,,,,,,
,,,,,,,,2023-08-16_08h47.32.607,HF_wild_card,2022.2.4,Win32,60.64281383,634689122e997b8299adeda5,64d2fd46c836a06233681665,64dc7f0d0f4bab065e53d28a,,,,,,,decisionTrl,resources/DB.BMP,resources/DP.BMP,Door1,0.294518475,0.050166108,1,0,0,0.4237,optionRight,30,4905,3,3,0,3,0,1,,,,,,,,,,,,,,,,,,,,,,,,,,,,,,,,,,,,,,,
,,,,,,,,2023-08-16_08h47.32.607,HF_wild_card,2022.2.4,Win32,60.64281383,634689122e997b8299adeda5,64d2fd46c836a06233681665,64dc7f0d0f4bab065e53d28a,,,,,,,decisionTrl,resources/DBN.BMP,resources/DG.BMP,Door3,-0.199833786,0.018936867,1,0,0,0.405,optionLeft,70,4975,3,4,0,4,0,1,,,,,,,,,,,,,,,,,,,,,,,,,,,,,,,,,,,,,,,
,,,,,,,,2023-08-16_08h47.32.607,HF_wild_card,2022.2.4,Win32,60.64281383,634689122e997b8299adeda5,64d2fd46c836a06233681665,64dc7f0d0f4bab065e53d28a,,,,,,,decisionTrl,resources/DY.BMP,resources/DP.BMP,Door1,0.280564987,0.002325475,1,0,0,0.4126,optionRight,30,5005,3,5,0,5,0,1,,,,,,,,,,,,,,,,,,,,,,,,,,,,,,,,,,,,,,,
,,,,,,,,2023-08-16_08h47.32.607,HF_wild_card,2022.2.4,Win32,60.64281383,634689122e997b8299adeda5,64d2fd46c836a06233681665,64dc7f0d0f4bab065e53d28a,,,,,,,ctch,resources/DBN.BMP,resources/DY.BMP,Door3,-0.463621255,0.051495006,1,0,0,0.4971,optionLeft,70,5075,3,6,0,6,0,1,,,,,,,,,,,,,,,,,,,,,,,,,,,,,,,,,,,,,,,
,,,,,,,,2023-08-16_08h47.32.607,HF_wild_card,2022.2.4,Win32,60.64281383,634689122e997b8299adeda5,64d2fd46c836a06233681665,64dc7f0d0f4bab065e53d28a,,,,,,,sngl,resources/Empty.png,resources/DG.BMP,Door4,0.211461835,-0.000332322,1,0,0,0.4488,optionRight,60,5135,3,7,0,7,0,1,,,,,,,,,,,,,,,,,,,,,,,,,,,,,,,,,,,,,,,
,,,,,,,,2023-08-16_08h47.32.607,HF_wild_card,2022.2.4,Win32,60.64281383,634689122e997b8299adeda5,64d2fd46c836a06233681665,64dc7f0d0f4bab065e53d28a,,,,,,,sngl,resources/DB.BMP,resources/Empty.png,WildCard_NonEx,-0.309468433,0.050830468,1,0,0,0.3712,optionLeft,55,5190,3,8,0,8,0,1,,,,,,,,,,,,,,,,,,,,,,,,,,,,,,,,,,,,,,,
,,,,,,,,2023-08-16_08h47.32.607,HF_wild_card,2022.2.4,Win32,60.64281383,634689122e997b8299adeda5,64d2fd46c836a06233681665,64dc7f0d0f4bab065e53d28a,,,,,,,decisionTrl,resources/DBN.BMP,resources/DG.BMP,Door4,0.289202881,0.038870417,1,0,0,0.3809,optionRight,60,5250,3,9,0,9,0,1,,,,,,,,,,,,,,,,,,,,,,,,,,,,,,,,,,,,,,,
,,,,,,,,2023-08-16_08h47.32.607,HF_wild_card,2022.2.4,Win32,60.64281383,634689122e997b8299adeda5,64d2fd46c836a06233681665,64dc7f0d0f4bab065e53d28a,,,,,,,decisionTrl,resources/DP.BMP,resources/DY.BMP,Door1,-0.235049722,0.047508204,1,0,0,0.3816,optionLeft,30,5280,3,10,0,10,0,1,,,,,,,,,,,,,,,,,,,,,,,,,,,,,,,,,,,,,,,
,,,,,,,,2023-08-16_08h47.32.607,HF_wild_card,2022.2.4,Win32,60.64281383,634689122e997b8299adeda5,64d2fd46c836a06233681665,64dc7f0d0f4bab065e53d28a,,,,,,,ctch,resources/DP.BMP,resources/DG.BMP,Door4,0.26794022,0.022923492,1,0,0,0.7717,optionRight,80,5360,3,11,0,11,0,1,,,,,,,,,,,,,,,,,,,,,,,,,,,,,,,,,,,,,,,
,,,,,,,,2023-08-16_08h47.32.607,HF_wild_card,2022.2.4,Win32,60.64281383,634689122e997b8299adeda5,64d2fd46c836a06233681665,64dc7f0d0f4bab065e53d28a,,,,,,,decisionTrl,resources/DBN.BMP,resources/DB.BMP,WildCard_NonEx,0.194186259,-0.015614638,1,0,0,0.7138,optionRight,45,5405,3,12,0,12,0,1,,,,,,,,,,,,,,,,,,,,,,,,,,,,,,,,,,,,,,,
,,,,,,,,2023-08-16_08h47.32.607,HF_wild_card,2022.2.4,Win32,60.64281383,634689122e997b8299adeda5,64d2fd46c836a06233681665,64dc7f0d0f4bab065e53d28a,,,,,,,decisionTrl,resources/DP.BMP,resources/DY.BMP,Door1,-0.136046512,0.012292339,1,0,0,0.3726,optionLeft,30,5435,3,13,0,13,0,1,,,,,,,,,,,,,,,,,,,,,,,,,,,,,,,,,,,,,,,
,,,,,,,,2023-08-16_08h47.32.607,HF_wild_card,2022.2.4,Win32,60.64281383,634689122e997b8299adeda5,64d2fd46c836a06233681665,64dc7f0d0f4bab065e53d28a,,,,,,,ctch,resources/DY.BMP,resources/DBN.BMP,Door3,0.227408831,0.007641176,1,0,0,0.4638,optionRight,70,5505,3,14,0,14,0,1,,,,,,,,,,,,,,,,,,,,,,,,,,,,,,,,,,,,,,,
,,,,,,,,2023-08-16_08h47.32.607,HF_wild_card,2022.2.4,Win32,60.64281383,634689122e997b8299adeda5,64d2fd46c836a06233681665,64dc7f0d0f4bab065e53d28a,,,,,,,sngl,resources/DG.BMP,resources/Empty.png,Door4,-0.34468437,0.048837103,1,0,0,0.5809,optionLeft,80,5585,3,15,0,15,0,1,,,,,,,,,,,,,,,,,,,,,,,,,,,,,,,,,,,,,,,
,,,,,,,,2023-08-16_08h47.32.607,HF_wild_card,2022.2.4,Win32,60.64281383,634689122e997b8299adeda5,64d2fd46c836a06233681665,64dc7f0d0f4bab065e53d28a,,,,,,,sngl,resources/DY.BMP,resources/Empty.png,Door2,-0.195182623,0.048837103,1,0,0,0.5877,optionLeft,40,5625,3,16,0,16,0,1,,,,,,,,,,,,,,,,,,,,,,,,,,,,,,,,,,,,,,,
,,,,,,,,2023-08-16_08h47.32.607,HF_wild_card,2022.2.4,Win32,60.64281383,634689122e997b8299adeda5,64d2fd46c836a06233681665,64dc7f0d0f4bab065e53d28a,,,,,,,decisionTrl,resources/DB.BMP,resources/DY.BMP,Door2,0.184883934,0.038205879,1,0,0,0.5472,optionRight,20,5645,3,17,0,17,0,1,,,,,,,,,,,,,,,,,,,,,,,,,,,,,,,,,,,,,,,
,,,,,,,,2023-08-16_08h47.32.607,HF_wild_card,2022.2.4,Win32,60.64281383,634689122e997b8299adeda5,64d2fd46c836a06233681665,64dc7f0d0f4bab065e53d28a,,,,,,,decisionTrl,resources/DY.BMP,resources/DP.BMP,Door2,-0.247009952,0.038205879,1,0,0,0.3804,optionLeft,40,5685,3,18,0,18,0,1,,,,,,,,,,,,,,,,,,,,,,,,,,,,,,,,,,,,,,,
,,,,,,,,2023-08-16_08h47.32.607,HF_wild_card,2022.2.4,Win32,60.64281383,634689122e997b8299adeda5,64d2fd46c836a06233681665,64dc7f0d0f4bab065e53d28a,,,,,,,sngl,resources/DP.BMP,resources/Empty.png,Door1,-0.150664432,0.020930126,1,0,0,0.8245,optionLeft,30,5715,3,19,0,19,0,1,,,,,,,,,,,,,,,,,,,,,,,,,,,,,,,,,,,,,,,
,,,,,,,,2023-08-16_08h47.32.607,HF_wild_card,2022.2.4,Win32,60.64281383,634689122e997b8299adeda5,64d2fd46c836a06233681665,64dc7f0d0f4bab065e53d28a,,,,,,,ctch,resources/DG.BMP,resources/DP.BMP,Door4,-0.214451812,0.014950065,1,0,0,0.7141,optionLeft,60,5775,3,20,0,20,0,1,,,,,,,,,,,,,,,,,,,,,,,,,,,,,,,,,,,,,,,
,,,,,,,,2023-08-16_08h47.32.607,HF_wild_card,2022.2.4,Win32,60.64281383,634689122e997b8299adeda5,64d2fd46c836a06233681665,64dc7f0d0f4bab065e53d28a,,,,,,,ctch,resources/DG.BMP,resources/DP.BMP,Door4,-0.341362106,0.028239193,1,0,0,1.1304,optionLeft,80,5855,3,21,0,21,0,1,,,,,,,,,,,,,,,,,,,,,,,,,,,,,,,,,,,,,,,
,,,,,,,,2023-08-16_08h47.32.607,HF_wild_card,2022.2.4,Win32,60.64281383,634689122e997b8299adeda5,64d2fd46c836a06233681665,64dc7f0d0f4bab065e53d28a,,,,,,,sngl,resources/Empty.png,resources/DB.BMP,WildCard_NonEx,0.175581608,-0.003654586,1,0,0,0.6545,optionRight,45,5900,3,22,0,22,0,1,,,,,,,,,,,,,,,,,,,,,,,,,,,,,,,,,,,,,,,
,,,,,,,,2023-08-16_08h47.32.607,HF_wild_card,2022.2.4,Win32,60.64281383,634689122e997b8299adeda5,64d2fd46c836a06233681665,64dc7f0d0f4bab065e53d28a,,,,,,,decisionTrl,resources/DY.BMP,resources/DP.BMP,Door2,-0.215780711,0.013621166,1,0,0,0.5477,optionLeft,20,5920,3,23,0,23,0,1,,,,,,,,,,,,,,,,,,,,,,,,,,,,,,,,,,,,,,,
,,,,,,,,2023-08-16_08h47.32.607,HF_wild_card,2022.2.4,Win32,60.64281383,634689122e997b8299adeda5,64d2fd46c836a06233681665,64dc7f0d0f4bab065e53d28a,,,,,,,decisionTrl,resources/DBN.BMP,resources/DG.BMP,Door4,0.186212655,0.00365448,1,0,0,0.7151,optionRight,60,5980,3,24,0,24,0,1,,,,,,,,,,,,,,,,,,,,,,,,,,,,,,,,,,,,,,,
,,,,,,,,2023-08-16_08h47.32.607,HF_wild_card,2022.2.4,Win32,60.64281383,634689122e997b8299adeda5,64d2fd46c836a06233681665,64dc7f0d0f4bab065e53d28a,,,,,,,decisionTrl,resources/DG.BMP,resources/DBN.BMP,Door4,-0.193853724,0.067441754,1,0,0,0.6149,optionLeft,60,6040,3,25,0,25,0,1,,,,,,,,,,,,,,,,,,,,,,,,,,,,,,,,,,,,,,,
,,,,,,,,2023-08-16_08h47.32.607,HF_wild_card,2022.2.4,Win32,60.64281383,634689122e997b8299adeda5,64d2fd46c836a06233681665,64dc7f0d0f4bab065e53d28a,,,,,,,decisionTrl,resources/DG.BMP,resources/DBN.BMP,Door4,-0.179900236,0.058803966,1,0,0,0.497,optionLeft,80,6120,3,26,0,26,0,1,,,,,,,,,,,,,,,,,,,,,,,,,,,,,,,,,,,,,,,
,,,,,,,,2023-08-16_08h47.32.607,HF_wild_card,2022.2.4,Win32,60.64281383,634689122e997b8299adeda5,64d2fd46c836a06233681665,64dc7f0d0f4bab065e53d28a,,,,,,,decisionTrl,resources/DY.BMP,resources/DP.BMP,Door1,0.192192894,-0.010299115,1,0,0,1.0899,optionRight,30,6150,3,27,0,27,0,1,,,,,,,,,,,,,,,,,,,,,,,,,,,,,,,,,,,,,,,
,,,,,,,,2023-08-16_08h47.32.607,HF_wild_card,2022.2.4,Win32,60.64281383,634689122e997b8299adeda5,64d2fd46c836a06233681665,64dc7f0d0f4bab065e53d28a,,,,,,,decisionTrl,resources/DP.BMP,resources/DY.BMP,Door2,0.196179412,-0.0269104,1,0,0,0.9991,optionRight,20,6170,3,28,0,28,0,1,,,,,,,,,,,,,,,,,,,,,,,,,,,,,,,,,,,,,,,
,,,,,,,,2023-08-16_08h47.32.607,HF_wild_card,2022.2.4,Win32,60.64281383,634689122e997b8299adeda5,64d2fd46c836a06233681665,64dc7f0d0f4bab065e53d28a,,,,,,,ctch,resources/DBN.BMP,resources/DY.BMP,Door3,-0.247009952,-0.013621273,1,0,0,0.9378,optionLeft,70,6240,3,29,0,29,0,1,,,,,,,,,,,,,,,,,,,,,,,,,,,,,,,,,,,,,,,
,,,,,,,,2023-08-16_08h47.32.607,HF_wild_card,2022.2.4,Win32,60.64281383,634689122e997b8299adeda5,64d2fd46c836a06233681665,64dc7f0d0f4bab065e53d28a,,,,,,,decisionTrl,resources/DB.BMP,resources/DG.BMP,Door4,0.283222784,-0.067441967,1,0,0,1.0984,optionRight,80,6320,3,30,0,30,0,1,,,,,,,,,,,,,,,,,,,,,,,,,,,,,,,,,,,,,,,
,,,,,,,,2023-08-16_08h47.32.607,HF_wild_card,2022.2.4,Win32,60.64281383,634689122e997b8299adeda5,64d2fd46c836a06233681665,64dc7f0d0f4bab065e53d28a,,,,,,,decisionTrl,resources/DY.BMP,resources/DB.BMP,WildCard_NonEx,0.250000213,-0.006312313,1,0,0,0.6978,optionRight,45,6365,3,31,0,31,0,1,,,,,,,,,,,,,,,,,,,,,,,,,,,,,,,,,,,,,,,
,,,,,,,,2023-08-16_08h47.32.607,HF_wild_card,2022.2.4,Win32,60.64281383,634689122e997b8299adeda5,64d2fd46c836a06233681665,64dc7f0d0f4bab065e53d28a,,,,,,,sngl,resources/Empty.png,resources/DP.BMP,Door1,0.206146382,-0.023588136,1,0,0,0.7145,optionRight,30,6395,3,32,0,32,0,1,,,,,,,,,,,,,,,,,,,,,,,,,,,,,,,,,,,,,,,
,,,,,,,,2023-08-16_08h47.32.607,HF_wild_card,2022.2.4,Win32,60.64281383,634689122e997b8299adeda5,64d2fd46c836a06233681665,64dc7f0d0f4bab065e53d28a,,,,,,,ctch,resources/DY.BMP,resources/DBN.BMP,Door3,0.251993366,-0.036212726,1,0,0,0.8143,optionRight,70,6465,3,33,0,33,0,1,,,,,,,,,,,,,,,,,,,,,,,,,,,,,,,,,,,,,,,
,,,,,,,,2023-08-16_08h47.32.607,HF_wild_card,2022.2.4,Win32,60.64281383,634689122e997b8299adeda5,64d2fd46c836a06233681665,64dc7f0d0f4bab065e53d28a,,,,,,,decisionTrl,resources/DP.BMP,resources/DB.BMP,WildCard_NonEx,0.24534905,-0.055481738,1,0,0,1.38,optionRight,45,6510,3,34,0,34,0,1,,,,,,,,,,,,,,,,,,,,,,,,,,,,,,,,,,,,,,,
,,,,,,,,2023-08-16_08h47.32.607,HF_wild_card,2022.2.4,Win32,60.64281383,634689122e997b8299adeda5,64d2fd46c836a06233681665,64dc7f0d0f4bab065e53d28a,,,,,,,decisionTrl,resources/DG.BMP,resources/DB.BMP,Door4,-0.269601228,-0.016279176,1,0,0,0.8042,optionLeft,60,6570,3,35,0,35,0,1,,,,,,,,,,,,,,,,,,,,,,,,,,,,,,,,,,,,,,,
,,,,,,,,2023-08-16_08h47.32.607,HF_wild_card,2022.2.4,Win32,60.64281383,634689122e997b8299adeda5,64d2fd46c836a06233681665,64dc7f0d0f4bab065e53d28a,,,,,,,ctch,resources/DP.BMP,resources/DG.BMP,Door4,0.283222784,-0.042857254,1,0,0,0.7645,optionRight,60,6630,3,36,0,36,0,1,,,,,,,,,,,,,,,,,,,,,,,,,,,,,,,,,,,,,,,
,,,,,,,,2023-08-16_08h47.32.607,HF_wild_card,2022.2.4,Win32,60.64281383,634689122e997b8299adeda5,64d2fd46c836a06233681665,64dc7f0d0f4bab065e53d28a,,,,,,,sngl,resources/DB.BMP,resources/Empty.png,WildCard_NonEx,-0.212458375,-0.003654586,1,0,0,0.7482,optionLeft,45,6675,3,37,0,37,0,1,,,,,,,,,,,,,,,,,,,,,,,,,,,,,,,,,,,,,,,
,,,,,,,,2023-08-16_08h47.32.607,HF_wild_card,2022.2.4,Win32,60.64281383,634689122e997b8299adeda5,64d2fd46c836a06233681665,64dc7f0d0f4bab065e53d28a,,,,,,,decisionTrl,resources/DP.BMP,resources/DY.BMP,Door2,0.274584748,-0.042192787,1,0,0,0.8149,optionRight,40,6715,3,38,0,38,0,1,,,,,,,,,,,,,,,,,,,,,,,,,,,,,,,,,,,,,,,
,,,,,,,,2023-08-16_08h47.32.607,HF_wild_card,2022.2.4,Win32,60.64281383,634689122e997b8299adeda5,64d2fd46c836a06233681665,64dc7f0d0f4bab065e53d28a,,,,,,,sngl,resources/DBN.BMP,resources/Empty.png,Door3,-0.345348731,0.030232452,1,0,0,0.5715,optionLeft,70,6785,3,39,0,39,0,1,,,,,,,,,,,,,,,,,,,,,,,,,,,,,,,,,,,,,,,
,,,,,,,,2023-08-16_08h47.32.607,HF_wild_card,2022.2.4,Win32,60.64281383,634689122e997b8299adeda5,64d2fd46c836a06233681665,64dc7f0d0f4bab065e53d28a,,,,,,,sngl,resources/Empty.png,resources/DBN.BMP,Door3,0.202159509,-0.0269104,1,0,0,0.5715,optionRight,70,6855,3,40,0,40,0,1,,,,,,,,,,,,,,,,,,,,,,,,,,,,,,,,,,,,,,,
,,,,,,,,2023-08-16_08h47.32.607,HF_wild_card,2022.2.4,Win32,60.64281383,634689122e997b8299adeda5,64d2fd46c836a06233681665,64dc7f0d0f4bab065e53d28a,,,,,,,sngl,resources/Empty.png,resources/DY.BMP,Door2,0.186877087,-0.049501676,1,0,0,0.8642,optionRight,20,6875,3,41,0,41,0,1,,,,,,,,,,,,,,,,,,,,,,,,,,,,,,,,,,,,,,,
,,,,,,,,2023-08-16_08h47.32.607,HF_wild_card,2022.2.4,Win32,60.64281383,634689122e997b8299adeda5,64d2fd46c836a06233681665,64dc7f0d0f4bab065e53d28a,,,,,,,decisionTrl,resources/DB.BMP,resources/DBN.BMP,Door3,0.22076416,-0.008305749,1,0,0,0.6815,optionRight,70,6945,3,42,0,42,0,1,,,,,,,,,,,,,,,,,,,,,,,,,,,,,,,,,,,,,,,
,,,,,,,,2023-08-16_08h47.32.607,HF_wild_card,2022.2.4,Win32,60.64281383,634689122e997b8299adeda5,64d2fd46c836a06233681665,64dc7f0d0f4bab065e53d28a,,,,,,,sngl,resources/Empty.png,resources/DB.BMP,WildCard_NonEx,0.24269104,-0.032225924,1,0,0,0.564,optionRight,55,7000,3,43,0,43,0,1,,,,,,,,,,,,,,,,,,,,,,,,,,,,,,,,,,,,,,,
,,,,,,,,2023-08-16_08h47.32.607,HF_wild_card,2022.2.4,Win32,60.64281383,634689122e997b8299adeda5,64d2fd46c836a06233681665,64dc7f0d0f4bab065e53d28a,,,,,,,,,,,,,,,,,,,,,,,,,,2,0,2,0,1,,,,,,,,,,,,,,,,,,,,,,,,,,,,,,,,,,
,,,,,,,,2023-08-16_08h47.32.607,HF_wild_card,2022.2.4,Win32,60.64281383,634689122e997b8299adeda5,64d2fd46c836a06233681665,64dc7f0d0f4bab065e53d28a,,,,,,,sngl,resources/Empty.png,resources/DP.BMP,Door1,0.225415323,-0.064784063,1,0,0,0.7034,optionRight,30,7030,4,0,0,0,0,1,,,,,,,,,,,,,,,,,,,,,,,,,,,,,,,,,,,,,,,
,,,,,,,,2023-08-16_08h47.32.607,HF_wild_card,2022.2.4,Win32,60.64281383,634689122e997b8299adeda5,64d2fd46c836a06233681665,64dc7f0d0f4bab065e53d28a,,,,,,,ctch,resources/DBN.BMP,resources/DY.BMP,Door3,-0.339368669,0.005647739,1,0,0,0.4651,optionLeft,70,7100,4,1,0,1,0,1,,,,,,,,,,,,,,,,,,,,,,,,,,,,,,,,,,,,,,,
,,,,,,,,2023-08-16_08h47.32.607,HF_wild_card,2022.2.4,Win32,60.64281383,634689122e997b8299adeda5,64d2fd46c836a06233681665,64dc7f0d0f4bab065e53d28a,,,,,,,sngl,resources/Empty.png,resources/DR.BMP,WildCard_Ex,0.384883934,0.011627801,1,0,0,0.4977,optionRight,5,7105,4,2,0,2,0,1,,,,,,,,,,,,,,,,,,,,,,,,,,,,,,,,,,,,,,,
,,,,,,,,2023-08-16_08h47.32.607,HF_wild_card,2022.2.4,Win32,60.64281383,634689122e997b8299adeda5,64d2fd46c836a06233681665,64dc7f0d0f4bab065e53d28a,,,,,,,ctch,resources/DY.BMP,resources/DBN.BMP,Door3,0.466611498,-0.032225924,1,0,0,1.1133,optionRight,70,7175,4,3,0,3,0,1,,,,,,,,,,,,,,,,,,,,,,,,,,,,,,,,,,,,,,,
,,,,,,,,2023-08-16_08h47.32.607,HF_wild_card,2022.2.4,Win32,60.64281383,634689122e997b8299adeda5,64d2fd46c836a06233681665,64dc7f0d0f4bab065e53d28a,,,,,,,ctch,resources/DY.BMP,resources/DBN.BMP,Door3,0.340365672,-0.015614638,1,0,0,0.7062,optionRight,70,7245,4,4,0,4,0,1,,,,,,,,,,,,,,,,,,,,,,,,,,,,,,,,,,,,,,,
,,,,,,,,2023-08-16_08h47.32.607,HF_wild_card,2022.2.4,Win32,60.64281383,634689122e997b8299adeda5,64d2fd46c836a06233681665,64dc7f0d0f4bab065e53d28a,,,,,,,decisionTrl,resources/DP.BMP,resources/DY.BMP,Door2,0.432724283,-0.012292374,1,0,0,1.3302,optionRight,40,7285,4,5,0,5,0,1,,,,,,,,,,,,,,,,,,,,,,,,,,,,,,,,,,,,,,,
,,,,,,,,2023-08-16_08h47.32.607,HF_wild_card,2022.2.4,Win32,60.64281383,634689122e997b8299adeda5,64d2fd46c836a06233681665,64dc7f0d0f4bab065e53d28a,,,,,,,sngl,resources/DBN.BMP,resources/Empty.png,Door3,-0.334717507,0.081395242,1,0,0,0.8302,optionLeft,70,7355,4,6,0,6,0,1,,,,,,,,,,,,,,,,,,,,,,,,,,,,,,,,,,,,,,,
,,,,,,,,2023-08-16_08h47.32.607,HF_wild_card,2022.2.4,Win32,60.64281383,634689122e997b8299adeda5,64d2fd46c836a06233681665,64dc7f0d0f4bab065e53d28a,,,,,,,sngl,resources/DR.BMP,resources/Empty.png,WildCard_Ex,-0.280232452,0.031561457,1,0,0,0.7309,optionLeft,5,7360,4,7,0,7,0,1,,,,,,,,,,,,,,,,,,,,,,,,,,,,,,,,,,,,,,,
,,,,,,,,2023-08-16_08h47.32.607,HF_wild_card,2022.2.4,Win32,60.64281383,634689122e997b8299adeda5,64d2fd46c836a06233681665,64dc7f0d0f4bab065e53d28a,,,,,,,decisionTrl,resources/DBN.BMP,resources/DR.BMP,Door3,-0.334717507,0.029568091,1,0,0,0.5468,optionLeft,70,7430,4,8,0,8,0,1,,,,,,,,,,,,,,,,,,,,,,,,,,,,,,,,,,,,,,,
,,,,,,,,2023-08-16_08h47.32.607,HF_wild_card,2022.2.4,Win32,60.64281383,634689122e997b8299adeda5,64d2fd46c836a06233681665,64dc7f0d0f4bab065e53d28a,,,,,,,sngl,resources/Empty.png,resources/DG.BMP,Door4,0.436711156,0.009634541,1,0,0,0.5121,optionRight,80,7510,4,9,0,9,0,1,,,,,,,,,,,,,,,,,,,,,,,,,,,,,,,,,,,,,,,
,,,,,,,,2023-08-16_08h47.32.607,HF_wild_card,2022.2.4,Win32,60.64281383,634689122e997b8299adeda5,64d2fd46c836a06233681665,64dc7f0d0f4bab065e53d28a,,,,,,,ctch,resources/DG.BMP,resources/DP.BMP,Door4,-0.229069661,0.001661114,1,0,0,0.606,optionLeft,60,7570,4,10,0,10,0,1,,,,,,,,,,,,,,,,,,,,,,,,,,,,,,,,,,,,,,,
,,,,,,,,2023-08-16_08h47.32.607,HF_wild_card,2022.2.4,Win32,60.64281383,634689122e997b8299adeda5,64d2fd46c836a06233681665,64dc7f0d0f4bab065e53d28a,,,,,,,sngl,resources/Empty.png,resources/DY.BMP,Door2,0.238039877,-0.022259238,1,0,0,0.7386,optionRight,40,7610,4,11,0,11,0,1,,,,,,,,,,,,,,,,,,,,,,,,,,,,,,,,,,,,,,,
,,,,,,,,2023-08-16_08h47.32.607,HF_wild_card,2022.2.4,Win32,60.64281383,634689122e997b8299adeda5,64d2fd46c836a06233681665,64dc7f0d0f4bab065e53d28a,,,,,,,decisionTrl,resources/DG.BMP,resources/DR.BMP,Door4,-0.233720824,0.00365448,1,0,0,0.6235,optionLeft,80,7690,4,12,0,12,0,1,,,,,,,,,,,,,,,,,,,,,,,,,,,,,,,,,,,,,,,
,,,,,,,,2023-08-16_08h47.32.607,HF_wild_card,2022.2.4,Win32,60.64281383,634689122e997b8299adeda5,64d2fd46c836a06233681665,64dc7f0d0f4bab065e53d28a,,,,,,,sngl,resources/DG.BMP,resources/Empty.png,Door4,-0.212458375,-0.004983485,1,0,0,0.5976,optionLeft,60,7750,4,13,0,13,0,1,,,,,,,,,,,,,,,,,,,,,,,,,,,,,,,,,,,,,,,
,,,,,,,,2023-08-16_08h47.32.607,HF_wild_card,2022.2.4,Win32,60.64281383,634689122e997b8299adeda5,64d2fd46c836a06233681665,64dc7f0d0f4bab065e53d28a,,,,,,,decisionTrl,resources/DBN.BMP,resources/DG.BMP,Door3,-0.346677736,0.020265766,1,0,0,0.8651,optionLeft,70,7820,4,14,0,14,0,1,,,,,,,,,,,,,,,,,,,,,,,,,,,,,,,,,,,,,,,
,,,,,,,,2023-08-16_08h47.32.607,HF_wild_card,2022.2.4,Win32,60.64281383,634689122e997b8299adeda5,64d2fd46c836a06233681665,64dc7f0d0f4bab065e53d28a,,,,,,,sngl,resources/DP.BMP,resources/Empty.png,Door1,-0.193853724,-0.014285811,1,0,0,0.7126,optionLeft,30,7850,4,15,0,15,0,1,,,,,,,,,,,,,,,,,,,,,,,,,,,,,,,,,,,,,,,
,,,,,,,,2023-08-16_08h47.32.607,HF_wild_card,2022.2.4,Win32,60.64281383,634689122e997b8299adeda5,64d2fd46c836a06233681665,64dc7f0d0f4bab065e53d28a,,,,,,,decisionTrl,resources/DY.BMP,resources/DP.BMP,Door1,0.239368811,-0.030232665,1,0,0,0.8132,optionRight,30,7880,4,16,0,16,0,1,,,,,,,,,,,,,,,,,,,,,,,,,,,,,,,,,,,,,,,
,,,,,,,,2023-08-16_08h47.32.607,HF_wild_card,2022.2.4,Win32,60.64281383,634689122e997b8299adeda5,64d2fd46c836a06233681665,64dc7f0d0f4bab065e53d28a,,,,,,,decisionTrl,resources/DG.BMP,resources/DBN.BMP,Door3,0.265946854,-0.010963475,1,0,0,1.0303,optionRight,70,7950,4,17,0,17,0,1,,,,,,,,,,,,,,,,,,,,,,,,,,,,,,,,,,,,,,,
,,,,,,,,2023-08-16_08h47.32.607,HF_wild_card,2022.2.4,Win32,60.64281383,634689122e997b8299adeda5,64d2fd46c836a06233681665,64dc7f0d0f4bab065e53d28a,,,,,,,decisionTrl,resources/DY.BMP,resources/DP.BMP,Door1,0.271926951,-0.076079754,1,0,0,1.1548,optionRight,30,7980,4,18,0,18,0,1,,,,,,,,,,,,,,,,,,,,,,,,,,,,,,,,,,,,,,,
,,,,,,,,2023-08-16_08h47.32.607,HF_wild_card,2022.2.4,Win32,60.64281383,634689122e997b8299adeda5,64d2fd46c836a06233681665,64dc7f0d0f4bab065e53d28a,,,,,,,ctch,resources/DP.BMP,resources/DG.BMP,Door4,0.332392067,0.000996576,1,0,0,1.2137,optionRight,80,8060,4,19,0,19,0,1,,,,,,,,,,,,,,,,,,,,,,,,,,,,,,,,,,,,,,,
,,,,,,,,2023-08-16_08h47.32.607,HF_wild_card,2022.2.4,Win32,60.64281383,634689122e997b8299adeda5,64d2fd46c836a06233681665,64dc7f0d0f4bab065e53d28a,,,,,,,ctch,resources/DP.BMP,resources/DG.BMP,Door4,0.28521615,0.001661114,1,0,0,0.9635,optionRight,80,8140,4,20,0,20,0,1,,,,,,,,,,,,,,,,,,,,,,,,,,,,,,,,,,,,,,,
,,,,,,,,2023-08-16_08h47.32.607,HF_wild_card,2022.2.4,Win32,60.64281383,634689122e997b8299adeda5,64d2fd46c836a06233681665,64dc7f0d0f4bab065e53d28a,,,,,,,decisionTrl,resources/DY.BMP,resources/DP.BMP,Door1,0.295847196,-0.027574761,1,0,0,0.9306,optionRight,30,8170,4,21,0,21,0,1,,,,,,,,,,,,,,,,,,,,,,,,,,,,,,,,,,,,,,,
,,,,,,,,2023-08-16_08h47.32.607,HF_wild_card,2022.2.4,Win32,60.64281383,634689122e997b8299adeda5,64d2fd46c836a06233681665,64dc7f0d0f4bab065e53d28a,,,,,,,decisionTrl,resources/DR.BMP,resources/DP.BMP,Door1,0.394850691,-0.024916964,1,0,0,1.0887,optionRight,30,8200,4,22,0,22,0,1,,,,,,,,,,,,,,,,,,,,,,,,,,,,,,,,,,,,,,,
,,,,,,,,2023-08-16_08h47.32.607,HF_wild_card,2022.2.4,Win32,60.64281383,634689122e997b8299adeda5,64d2fd46c836a06233681665,64dc7f0d0f4bab065e53d28a,,,,,,,decisionTrl,resources/DG.BMP,resources/DBN.BMP,Door3,0.266611498,-0.034219289,1,0,0,0.7977,optionRight,70,8270,4,23,0,23,0,1,,,,,,,,,,,,,,,,,,,,,,,,,,,,,,,,,,,,,,,
,,,,,,,,2023-08-16_08h47.32.607,HF_wild_card,2022.2.4,Win32,60.64281383,634689122e997b8299adeda5,64d2fd46c836a06233681665,64dc7f0d0f4bab065e53d28a,,,,,,,decisionTrl,resources/DG.BMP,resources/DBN.BMP,Door3,0.255980097,-0.032890462,1,0,0,0.7485,optionRight,70,8340,4,24,0,24,0,1,,,,,,,,,,,,,,,,,,,,,,,,,,,,,,,,,,,,,,,
,,,,,,,,2023-08-16_08h47.32.607,HF_wild_card,2022.2.4,Win32,60.64281383,634689122e997b8299adeda5,64d2fd46c836a06233681665,64dc7f0d0f4bab065e53d28a,,,,,,,sngl,resources/Empty.png,resources/DBN.BMP,Door3,0.227408831,-0.041528249,1,0,0,1.2139,optionRight,70,8410,4,25,0,25,0,1,,,,,,,,,,,,,,,,,,,,,,,,,,,,,,,,,,,,,,,
,,,,,,,,2023-08-16_08h47.32.607,HF_wild_card,2022.2.4,Win32,60.64281383,634689122e997b8299adeda5,64d2fd46c836a06233681665,64dc7f0d0f4bab065e53d28a,,,,,,,decisionTrl,resources/DP.BMP,resources/DY.BMP,Door2,0.224086389,-0.010299115,1,0,0,3.3547,optionRight,20,8430,4,26,0,26,0,1,,,,,,,,,,,,,,,,,,,,,,,,,,,,,,,,,,,,,,,
,,,,,,,,2023-08-16_08h47.32.607,HF_wild_card,2022.2.4,Win32,60.64281383,634689122e997b8299adeda5,64d2fd46c836a06233681665,64dc7f0d0f4bab065e53d28a,,,,,,,decisionTrl,resources/DG.BMP,resources/DBN.BMP,Door3,0.356976957,-0.007641211,1,0,0,0.6797,optionRight,70,8500,4,27,0,27,0,1,,,,,,,,,,,,,,,,,,,,,,,,,,,,,,,,,,,,,,,
,,,,,,,,2023-08-16_08h47.32.607,HF_wild_card,2022.2.4,Win32,60.64281383,634689122e997b8299adeda5,64d2fd46c836a06233681665,64dc7f0d0f4bab065e53d28a,,,,,,,decisionTrl,resources/DBN.BMP,resources/DG.BMP,Door3,-0.250332216,0.026910294,1,0,0,3.0453,optionLeft,70,8570,4,28,0,28,0,1,,,,,,,,,,,,,,,,,,,,,,,,,,,,,,,,,,,,,,,
,,,,,,,,2023-08-16_08h47.32.607,HF_wild_card,2022.2.4,Win32,60.64281383,634689122e997b8299adeda5,64d2fd46c836a06233681665,64dc7f0d0f4bab065e53d28a,,,,,,,sngl,resources/Empty.png,resources/DR.BMP,WildCard_Ex,0.164285917,0.004983379,1,0,0,0.6799,optionRight,95,8665,4,29,0,29,0,1,,,,,,,,,,,,,,,,,,,,,,,,,,,,,,,,,,,,,,,
,,,,,,,,2023-08-16_08h47.32.607,HF_wild_card,2022.2.4,Win32,60.64281383,634689122e997b8299adeda5,64d2fd46c836a06233681665,64dc7f0d0f4bab065e53d28a,,,,,,,ctch,resources/DG.BMP,resources/DP.BMP,Door4,-0.373255814,-0.011628013,1,0,0,0.9471,optionLeft,80,8745,4,30,0,30,0,1,,,,,,,,,,,,,,,,,,,,,,,,,,,,,,,,,,,,,,,
,,,,,,,,2023-08-16_08h47.32.607,HF_wild_card,2022.2.4,Win32,60.64281383,634689122e997b8299adeda5,64d2fd46c836a06233681665,64dc7f0d0f4bab065e53d28a,,,,,,,decisionTrl,resources/DP.BMP,resources/DY.BMP,Door1,-0.363289021,-0.015614638,1,0,0,0.9131,optionLeft,30,8775,4,31,0,31,0,1,,,,,,,,,,,,,,,,,,,,,,,,,,,,,,,,,,,,,,,
,,,,,,,,2023-08-16_08h47.32.607,HF_wild_card,2022.2.4,Win32,60.64281383,634689122e997b8299adeda5,64d2fd46c836a06233681665,64dc7f0d0f4bab065e53d28a,,,,,,,decisionTrl,resources/DBN.BMP,resources/DG.BMP,Door3,-0.26096344,-0.007641211,1,0,0,0.9907,optionLeft,70,8845,4,32,0,32,0,1,,,,,,,,,,,,,,,,,,,,,,,,,,,,,,,,,,,,,,,
,,,,,,,,2023-08-16_08h47.32.607,HF_wild_card,2022.2.4,Win32,60.64281383,634689122e997b8299adeda5,64d2fd46c836a06233681665,64dc7f0d0f4bab065e53d28a,,,,,,,decisionTrl,resources/DR.BMP,resources/DY.BMP,WildCard_Ex,-0.268936867,-0.010963475,1,0,0,0.7394,optionLeft,95,8940,4,33,0,33,0,1,,,,,,,,,,,,,,,,,,,,,,,,,,,,,,,,,,,,,,,
,,,,,,,,2023-08-16_08h47.32.607,HF_wild_card,2022.2.4,Win32,60.64281383,634689122e997b8299adeda5,64d2fd46c836a06233681665,64dc7f0d0f4bab065e53d28a,,,,,,,decisionTrl,resources/DY.BMP,resources/DP.BMP,Door1,0.269933585,-0.020265801,1,0,0,1.4803,optionRight,30,8970,4,34,0,34,0,1,,,,,,,,,,,,,,,,,,,,,,,,,,,,,,,,,,,,,,,
,,,,,,,,2023-08-16_08h47.32.607,HF_wild_card,2022.2.4,Win32,60.64281383,634689122e997b8299adeda5,64d2fd46c836a06233681665,64dc7f0d0f4bab065e53d28a,,,,,,,decisionTrl,resources/DBN.BMP,resources/DG.BMP,Door3,-0.282225817,-0.000996683,1,0,0,0.6296,optionLeft,70,9040,4,35,0,35,0,1,,,,,,,,,,,,,,,,,,,,,,,,,,,,,,,,,,,,,,,
,,,,,,,,2023-08-16_08h47.32.607,HF_wild_card,2022.2.4,Win32,60.64281383,634689122e997b8299adeda5,64d2fd46c836a06233681665,64dc7f0d0f4bab065e53d28a,,,,,,,decisionTrl,resources/DP.BMP,resources/DY.BMP,Door2,0.226744399,-0.016279176,1,0,0,1.4231,optionRight,20,9060,4,36,0,36,0,1,,,,,,,,,,,,,,,,,,,,,,,,,,,,,,,,,,,,,,,
,,,,,,,,2023-08-16_08h47.32.607,HF_wild_card,2022.2.4,Win32,60.64281383,634689122e997b8299adeda5,64d2fd46c836a06233681665,64dc7f0d0f4bab065e53d28a,,,,,,,decisionTrl,resources/DR.BMP,resources/DBN.BMP,Door3,0.286544871,-0.009634648,1,0,0,0.9803,optionRight,70,9130,4,37,0,37,0,1,,,,,,,,,,,,,,,,,,,,,,,,,,,,,,,,,,,,,,,
,,,,,,,,2023-08-16_08h47.32.607,HF_wild_card,2022.2.4,Win32,60.64281383,634689122e997b8299adeda5,64d2fd46c836a06233681665,64dc7f0d0f4bab065e53d28a,,,,,,,decisionTrl,resources/DP.BMP,resources/DR.BMP,WildCard_Ex,0.372259167,-0.060797439,1,0,0,1.1476,optionRight,5,9135,4,38,0,38,0,1,,,,,,,,,,,,,,,,,,,,,,,,,,,,,,,,,,,,,,,
,,,,,,,,2023-08-16_08h47.32.607,HF_wild_card,2022.2.4,Win32,60.64281383,634689122e997b8299adeda5,64d2fd46c836a06233681665,64dc7f0d0f4bab065e53d28a,,,,,,,sngl,resources/DR.BMP,resources/Empty.png,WildCard_Ex,-0.161960123,0.001661114,1,0,0,0.5474,optionLeft,95,9230,4,39,0,39,0,1,,,,,,,,,,,,,,,,,,,,,,,,,,,,,,,,,,,,,,,
,,,,,,,,2023-08-16_08h47.32.607,HF_wild_card,2022.2.4,Win32,60.64281383,634689122e997b8299adeda5,64d2fd46c836a06233681665,64dc7f0d0f4bab065e53d28a,,,,,,,decisionTrl,resources/DR.BMP,resources/DG.BMP,WildCard_Ex,-0.173255707,0.01096344,1,0,0,0.5889,optionLeft,5,9235,4,40,0,40,0,1,,,,,,,,,,,,,,,,,,,,,,,,,,,,,,,,,,,,,,,
,,,,,,,,2023-08-16_08h47.32.607,HF_wild_card,2022.2.4,Win32,60.64281383,634689122e997b8299adeda5,64d2fd46c836a06233681665,64dc7f0d0f4bab065e53d28a,,,,,,,sngl,resources/DY.BMP,resources/Empty.png,Door2,-0.24102989,0.007641176,1,0,0,0.5729,optionLeft,20,9255,4,41,0,41,0,1,,,,,,,,,,,,,,,,,,,,,,,,,,,,,,,,,,,,,,,
,,,,,,,,2023-08-16_08h47.32.607,HF_wild_card,2022.2.4,Win32,60.64281383,634689122e997b8299adeda5,64d2fd46c836a06233681665,64dc7f0d0f4bab065e53d28a,,,,,,,decisionTrl,resources/DY.BMP,resources/DR.BMP,WildCard_Ex,0.26794022,0.006312277,1,0,0,1.2213,optionRight,95,9350,4,42,0,42,0,1,,,,,,,,,,,,,,,,,,,,,,,,,,,,,,,,,,,,,,,
,,,,,,,,2023-08-16_08h47.32.607,HF_wild_card,2022.2.4,Win32,60.64281383,634689122e997b8299adeda5,64d2fd46c836a06233681665,64dc7f0d0f4bab065e53d28a,,,,,,,ctch,resources/DBN.BMP,resources/DY.BMP,Door3,-0.285548152,-0.029568127,1,0,0,0.689,optionLeft,70,9420,4,43,0,43,0,1,,,,,,,,,,,,,,,,,,,,,,,,,,,,,,,,,,,,,,,
,,,,,,,,2023-08-16_08h47.32.607,HF_wild_card,2022.2.4,Win32,60.64281383,634689122e997b8299adeda5,64d2fd46c836a06233681665,64dc7f0d0f4bab065e53d28a,,,,,,,,,,,,,,,,,,,,,,,,,,3,0,3,0,1,,,,,,,,,,,,,,,,,,,,,,,,,,,,,,,,,,
,,,,,,,,2023-08-16_08h47.32.607,HF_wild_card,2022.2.4,Win32,60.64281383,634689122e997b8299adeda5,64d2fd46c836a06233681665,64dc7f0d0f4bab065e53d28a,,,,,,,ctch,resources/DG.BMP,resources/DP.BMP,Door4,-0.325415181,-0.097342203,1,0,0,1.772,optionLeft,60,9480,5,0,0,0,0,1,,,,,,,,,,,,,,,,,,,,,,,,,,,,,,,,,,,,,,,
,,,,,,,,2023-08-16_08h47.32.607,HF_wild_card,2022.2.4,Win32,60.64281383,634689122e997b8299adeda5,64d2fd46c836a06233681665,64dc7f0d0f4bab065e53d28a,,,,,,,decisionTrl,resources/DR.BMP,resources/DG.BMP,WildCard_Ex,-0.32475082,0.008305643,1,0,0,0.9878,optionLeft,95,9575,5,1,0,1,0,1,,,,,,,,,,,,,,,,,,,,,,,,,,,,,,,,,,,,,,,
,,,,,,,,2023-08-16_08h47.32.607,HF_wild_card,2022.2.4,Win32,60.64281383,634689122e997b8299adeda5,64d2fd46c836a06233681665,64dc7f0d0f4bab065e53d28a,,,,,,,sngl,resources/DP.BMP,resources/Empty.png,Door1,-0.292857041,-0.037541625,1,0,0,1.5309,optionLeft,30,9605,5,2,0,2,0,1,,,,,,,,,,,,,,,,,,,,,,,,,,,,,,,,,,,,,,,
,,,,,,,,2023-08-16_08h47.32.607,HF_wild_card,2022.2.4,Win32,60.64281383,634689122e997b8299adeda5,64d2fd46c836a06233681665,64dc7f0d0f4bab065e53d28a,,,,,,,decisionTrl,resources/DBN.BMP,resources/DG.BMP,Door3,-0.338039771,0.035548152,1,0,0,0.6962,optionLeft,70,9675,5,3,0,3,0,1,,,,,,,,,,,,,,,,,,,,,,,,,,,,,,,,,,,,,,,
,,,,,,,,2023-08-16_08h47.32.607,HF_wild_card,2022.2.4,Win32,60.64281383,634689122e997b8299adeda5,64d2fd46c836a06233681665,64dc7f0d0f4bab065e53d28a,,,,,,,decisionTrl,resources/DP.BMP,resources/DY.BMP,Door1,-0.411129548,-0.034219289,1,0,0,1.5298,optionLeft,30,9705,5,4,0,4,0,1,,,,,,,,,,,,,,,,,,,,,,,,,,,,,,,,,,,,,,,
,,,,,,,,2023-08-16_08h47.32.607,HF_wild_card,2022.2.4,Win32,60.64281383,634689122e997b8299adeda5,64d2fd46c836a06233681665,64dc7f0d0f4bab065e53d28a,,,,,,,decisionTrl,resources/DBN.BMP,resources/DG.BMP,Door3,-0.359966757,-0.008305749,1,0,0,0.814,optionLeft,70,9775,5,5,0,5,0,1,,,,,,,,,,,,,,,,,,,,,,,,,,,,,,,,,,,,,,,
,,,,,,,,2023-08-16_08h47.32.607,HF_wild_card,2022.2.4,Win32,60.64281383,634689122e997b8299adeda5,64d2fd46c836a06233681665,64dc7f0d0f4bab065e53d28a,,,,,,,decisionTrl,resources/DG.BMP,resources/DBN.BMP,Door4,-0.333388608,0.020930126,1,0,0,1.1973,optionLeft,80,9855,5,6,0,6,0,1,,,,,,,,,,,,,,,,,,,,,,,,,,,,,,,,,,,,,,,
,,,,,,,,2023-08-16_08h47.32.607,HF_wild_card,2022.2.4,Win32,60.64281383,634689122e997b8299adeda5,64d2fd46c836a06233681665,64dc7f0d0f4bab065e53d28a,,,,,,,sngl,resources/Empty.png,resources/DP.BMP,Door1,0.183554858,-0.014950278,1,0,0,0.6635,optionRight,30,9885,5,7,0,7,0,1,,,,,,,,,,,,,,,,,,,,,,,,,,,,,,,,,,,,,,,
,,,,,,,,2023-08-16_08h47.32.607,HF_wild_card,2022.2.4,Win32,60.64281383,634689122e997b8299adeda5,64d2fd46c836a06233681665,64dc7f0d0f4bab065e53d28a,,,,,,,sngl,resources/Empty.png,resources/DY.BMP,Door2,-0.009800472,-0.024252603,1,0,0,1.8481,optionRight,20,9905,5,8,0,8,0,1,,,,,,,,,,,,,,,,,,,,,,,,,,,,,,,,,,,,,,,
,,,,,,,,2023-08-16_08h47.32.607,HF_wild_card,2022.2.4,Win32,60.64281383,634689122e997b8299adeda5,64d2fd46c836a06233681665,64dc7f0d0f4bab065e53d28a,,,,,,,sngl,resources/DBN.BMP,resources/Empty.png,Door3,-0.30681053,-0.028239299,1,0,0,0.5966,optionLeft,70,9975,5,9,0,9,0,1,,,,,,,,,,,,,,,,,,,,,,,,,,,,,,,,,,,,,,,
,,,,,,,,2023-08-16_08h47.32.607,HF_wild_card,2022.2.4,Win32,60.64281383,634689122e997b8299adeda5,64d2fd46c836a06233681665,64dc7f0d0f4bab065e53d28a,,,,,,,sngl,resources/Empty.png,resources/DR.BMP,WildCard_Ex,0.188206021,-0.031561563,1,0,0,0.7076,optionRight,5,9980,5,10,0,10,0,1,,,,,,,,,,,,,,,,,,,,,,,,,,,,,,,,,,,,,,,
,,,,,,,,2023-08-16_08h47.32.607,HF_wild_card,2022.2.4,Win32,60.64281383,634689122e997b8299adeda5,64d2fd46c836a06233681665,64dc7f0d0f4bab065e53d28a,,,,,,,ctch,resources/DBN.BMP,resources/DY.BMP,Door3,-0.327408618,-0.041528249,1,0,0,0.6978,optionLeft,70,10050,5,11,0,11,0,1,,,,,,,,,,,,,,,,,,,,,,,,,,,,,,,,,,,,,,,
,,,,,,,,2023-08-16_08h47.32.607,HF_wild_card,2022.2.4,Win32,60.64281383,634689122e997b8299adeda5,64d2fd46c836a06233681665,64dc7f0d0f4bab065e53d28a,,,,,,,sngl,resources/DY.BMP,resources/Empty.png,Door2,-0.20315605,-0.028903766,1,0,0,0.6646,optionLeft,40,10090,5,12,0,12,0,1,,,,,,,,,,,,,,,,,,,,,,,,,,,,,,,,,,,,,,,
,,,,,,,,2023-08-16_08h47.32.607,HF_wild_card,2022.2.4,Win32,60.64281383,634689122e997b8299adeda5,64d2fd46c836a06233681665,64dc7f0d0f4bab065e53d28a,,,,,,,sngl,resources/Empty.png,resources/DR.BMP,WildCard_Ex,0.185548365,0.008970003,1,0,0,0.5811,optionRight,95,10185,5,13,0,13,0,1,,,,,,,,,,,,,,,,,,,,,,,,,,,,,,,,,,,,,,,
,,,,,,,,2023-08-16_08h47.32.607,HF_wild_card,2022.2.4,Win32,60.64281383,634689122e997b8299adeda5,64d2fd46c836a06233681665,64dc7f0d0f4bab065e53d28a,,,,,,,ctch,resources/DBN.BMP,resources/DY.BMP,Door3,-0.188538094,-0.047508417,1,0,0,0.7131,optionLeft,70,10255,5,14,0,14,0,1,,,,,,,,,,,,,,,,,,,,,,,,,,,,,,,,,,,,,,,
,,,,,,,,2023-08-16_08h47.32.607,HF_wild_card,2022.2.4,Win32,60.64281383,634689122e997b8299adeda5,64d2fd46c836a06233681665,64dc7f0d0f4bab065e53d28a,,,,,,,decisionTrl,resources/DR.BMP,resources/DBN.BMP,Door3,0.281893708,0.009634541,1,0,0,1.4799,optionRight,70,10325,5,15,0,15,0,1,,,,,,,,,,,,,,,,,,,,,,,,,,,,,,,,,,,,,,,
,,,,,,,,2023-08-16_08h47.32.607,HF_wild_card,2022.2.4,Win32,60.64281383,634689122e997b8299adeda5,64d2fd46c836a06233681665,64dc7f0d0f4bab065e53d28a,,,,,,,ctch,resources/DY.BMP,resources/DBN.BMP,Door3,0.279235911,-0.035548188,1,0,0,0.6308,optionRight,70,10395,5,16,0,16,0,1,,,,,,,,,,,,,,,,,,,,,,,,,,,,,,,,,,,,,,,
,,,,,,,,2023-08-16_08h47.32.607,HF_wild_card,2022.2.4,Win32,60.64281383,634689122e997b8299adeda5,64d2fd46c836a06233681665,64dc7f0d0f4bab065e53d28a,,,,,,,decisionTrl,resources/DY.BMP,resources/DP.BMP,Door1,0.238704522,-0.00897011,1,0,0,1.6477,optionRight,30,10425,5,17,0,17,0,1,,,,,,,,,,,,,,,,,,,,,,,,,,,,,,,,,,,,,,,
,,,,,,,,2023-08-16_08h47.32.607,HF_wild_card,2022.2.4,Win32,60.64281383,634689122e997b8299adeda5,64d2fd46c836a06233681665,64dc7f0d0f4bab065e53d28a,,,,,,,decisionTrl,resources/DP.BMP,resources/DY.BMP,Door1,-0.357973321,-0.011628013,1,0,0,1.2896,optionLeft,30,10455,5,18,0,18,0,1,,,,,,,,,,,,,,,,,,,,,,,,,,,,,,,,,,,,,,,
,,,,,,,,2023-08-16_08h47.32.607,HF_wild_card,2022.2.4,Win32,60.64281383,634689122e997b8299adeda5,64d2fd46c836a06233681665,64dc7f0d0f4bab065e53d28a,,,,,,,decisionTrl,resources/DR.BMP,resources/DY.BMP,WildCard_Ex,-0.275581289,0.015614603,1,0,0,0.614,optionLeft,5,10460,5,19,0,19,0,1,,,,,,,,,,,,,,,,,,,,,,,,,,,,,,,,,,,,,,,
,,,,,,,,2023-08-16_08h47.32.607,HF_wild_card,2022.2.4,Win32,60.64281383,634689122e997b8299adeda5,64d2fd46c836a06233681665,64dc7f0d0f4bab065e53d28a,,,,,,,sngl,resources/DR.BMP,resources/Empty.png,WildCard_Ex,-0.288205879,0.022259131,1,0,0,0.548,optionLeft,5,10465,5,20,0,20,0,1,,,,,,,,,,,,,,,,,,,,,,,,,,,,,,,,,,,,,,,
,,,,,,,,2023-08-16_08h47.32.607,HF_wild_card,2022.2.4,Win32,60.64281383,634689122e997b8299adeda5,64d2fd46c836a06233681665,64dc7f0d0f4bab065e53d28a,,,,,,,decisionTrl,resources/DG.BMP,resources/DR.BMP,Door4,-0.304152804,-0.002990048,1,0,0,0.6227,optionLeft,80,10545,5,21,0,21,0,1,,,,,,,,,,,,,,,,,,,,,,,,,,,,,,,,,,,,,,,
,,,,,,,,2023-08-16_08h47.32.607,HF_wild_card,2022.2.4,Win32,60.64281383,634689122e997b8299adeda5,64d2fd46c836a06233681665,64dc7f0d0f4bab065e53d28a,,,,,,,decisionTrl,resources/DY.BMP,resources/DP.BMP,Door1,0.306478598,0.004318841,1,0,0,0.6805,optionRight,30,10575,5,22,0,22,0,1,,,,,,,,,,,,,,,,,,,,,,,,,,,,,,,,,,,,,,,
,,,,,,,,2023-08-16_08h47.32.607,HF_wild_card,2022.2.4,Win32,60.64281383,634689122e997b8299adeda5,64d2fd46c836a06233681665,64dc7f0d0f4bab065e53d28a,,,,,,,decisionTrl,resources/DG.BMP,resources/DBN.BMP,Door3,0.267275788,0.00365448,1,0,0,0.7315,optionRight,70,10645,5,23,0,23,0,1,,,,,,,,,,,,,,,,,,,,,,,,,,,,,,,,,,,,,,,
,,,,,,,,2023-08-16_08h47.32.607,HF_wild_card,2022.2.4,Win32,60.64281383,634689122e997b8299adeda5,64d2fd46c836a06233681665,64dc7f0d0f4bab065e53d28a,,,,,,,decisionTrl,resources/DG.BMP,resources/DBN.BMP,Door3,0.406146382,0.000332216,1,0,0,0.5976,optionRight,70,10715,5,24,0,24,0,1,,,,,,,,,,,,,,,,,,,,,,,,,,,,,,,,,,,,,,,
,,,,,,,,2023-08-16_08h47.32.607,HF_wild_card,2022.2.4,Win32,60.64281383,634689122e997b8299adeda5,64d2fd46c836a06233681665,64dc7f0d0f4bab065e53d28a,,,,,,,sngl,resources/DR.BMP,resources/Empty.png,WildCard_Ex,-0.359966757,0.002325475,1,0,0,0.5643,optionLeft,95,10810,5,25,0,25,0,1,,,,,,,,,,,,,,,,,,,,,,,,,,,,,,,,,,,,,,,
,,,,,,,,2023-08-16_08h47.32.607,HF_wild_card,2022.2.4,Win32,60.64281383,634689122e997b8299adeda5,64d2fd46c836a06233681665,64dc7f0d0f4bab065e53d28a,,,,,,,decisionTrl,resources/DP.BMP,resources/DY.BMP,Door1,-0.267607968,-0.034219289,1,0,0,1.0805,optionLeft,30,10840,5,26,0,26,0,1,,,,,,,,,,,,,,,,,,,,,,,,,,,,,,,,,,,,,,,
,,,,,,,,2023-08-16_08h47.32.607,HF_wild_card,2022.2.4,Win32,60.64281383,634689122e997b8299adeda5,64d2fd46c836a06233681665,64dc7f0d0f4bab065e53d28a,,,,,,,decisionTrl,resources/DG.BMP,resources/DBN.BMP,Door3,0.352325794,-0.009634648,1,0,0,0.7473,optionRight,70,10910,5,27,0,27,0,1,,,,,,,,,,,,,,,,,,,,,,,,,,,,,,,,,,,,,,,
,,,,,,,,2023-08-16_08h47.32.607,HF_wild_card,2022.2.4,Win32,60.64281383,634689122e997b8299adeda5,64d2fd46c836a06233681665,64dc7f0d0f4bab065e53d28a,,,,,,,decisionTrl,resources/DBN.BMP,resources/DG.BMP,Door4,0.206810672,0.012956806,1,0,0,0.7877,optionRight,80,10990,5,28,0,28,0,1,,,,,,,,,,,,,,,,,,,,,,,,,,,,,,,,,,,,,,,
,,,,,,,,2023-08-16_08h47.32.607,HF_wild_card,2022.2.4,Win32,60.64281383,634689122e997b8299adeda5,64d2fd46c836a06233681665,64dc7f0d0f4bab065e53d28a,,,,,,,ctch,resources/DG.BMP,resources/DP.BMP,Door4,-0.215780711,-0.024252603,1,0,0,0.5394,optionLeft,60,11050,5,29,0,29,0,1,,,,,,,,,,,,,,,,,,,,,,,,,,,,,,,,,,,,,,,
,,,,,,,,2023-08-16_08h47.32.607,HF_wild_card,2022.2.4,Win32,60.64281383,634689122e997b8299adeda5,64d2fd46c836a06233681665,64dc7f0d0f4bab065e53d28a,,,,,,,decisionTrl,resources/DR.BMP,resources/DP.BMP,WildCard_Ex,-0.302159367,-0.004318947,1,0,0,1.2975,optionLeft,5,11055,5,30,0,30,0,1,,,,,,,,,,,,,,,,,,,,,,,,,,,,,,,,,,,,,,,
,,,,,,,,2023-08-16_08h47.32.607,HF_wild_card,2022.2.4,Win32,60.64281383,634689122e997b8299adeda5,64d2fd46c836a06233681665,64dc7f0d0f4bab065e53d28a,,,,,,,decisionTrl,resources/DP.BMP,resources/DR.BMP,Door1,-0.237707626,-0.022259238,1,0,0,1.0227,optionLeft,30,11085,5,31,0,31,0,1,,,,,,,,,,,,,,,,,,,,,,,,,,,,,,,,,,,,,,,
,,,,,,,,2023-08-16_08h47.32.607,HF_wild_card,2022.2.4,Win32,60.64281383,634689122e997b8299adeda5,64d2fd46c836a06233681665,64dc7f0d0f4bab065e53d28a,,,,,,,ctch,resources/DY.BMP,resources/DBN.BMP,Door3,0.216777429,-0.012292374,1,0,0,0.5466,optionRight,70,11155,5,32,0,32,0,1,,,,,,,,,,,,,,,,,,,,,,,,,,,,,,,,,,,,,,,
,,,,,,,,2023-08-16_08h47.32.607,HF_wild_card,2022.2.4,Win32,60.64281383,634689122e997b8299adeda5,64d2fd46c836a06233681665,64dc7f0d0f4bab065e53d28a,,,,,,,decisionTrl,resources/DY.BMP,resources/DR.BMP,WildCard_Ex,0.175581608,0.008970003,1,0,0,0.5144,optionRight,5,11160,5,33,0,33,0,1,,,,,,,,,,,,,,,,,,,,,,,,,,,,,,,,,,,,,,,
,,,,,,,,2023-08-16_08h47.32.607,HF_wild_card,2022.2.4,Win32,60.64281383,634689122e997b8299adeda5,64d2fd46c836a06233681665,64dc7f0d0f4bab065e53d28a,,,,,,,decisionTrl,resources/DY.BMP,resources/DP.BMP,Door1,0.307807532,0.013621166,1,0,0,0.6573,optionRight,30,11190,5,34,0,34,0,1,,,,,,,,,,,,,,,,,,,,,,,,,,,,,,,,,,,,,,,
,,,,,,,,2023-08-16_08h47.32.607,HF_wild_card,2022.2.4,Win32,60.64281383,634689122e997b8299adeda5,64d2fd46c836a06233681665,64dc7f0d0f4bab065e53d28a,,,,,,,ctch,resources/DP.BMP,resources/DG.BMP,Door4,0.45,-0.038870452,1,0,0,0.8568,optionRight,60,11250,5,35,0,35,0,1,,,,,,,,,,,,,,,,,,,,,,,,,,,,,,,,,,,,,,,
,,,,,,,,2023-08-16_08h47.32.607,HF_wild_card,2022.2.4,Win32,60.64281383,634689122e997b8299adeda5,64d2fd46c836a06233681665,64dc7f0d0f4bab065e53d28a,,,,,,,ctch,resources/DP.BMP,resources/DG.BMP,Door4,0.42807312,-0.016279176,1,0,0,0.5568,optionRight,80,11330,5,36,0,36,0,1,,,,,,,,,,,,,,,,,,,,,,,,,,,,,,,,,,,,,,,
,,,,,,,,2023-08-16_08h47.32.607,HF_wild_card,2022.2.4,Win32,60.64281383,634689122e997b8299adeda5,64d2fd46c836a06233681665,64dc7f0d0f4bab065e53d28a,,,,,,,decisionTrl,resources/DY.BMP,resources/DP.BMP,Door1,0.431395562,-0.038206092,1,0,0,0.4809,optionRight,30,11360,5,37,0,37,0,1,,,,,,,,,,,,,,,,,,,,,,,,,,,,,,,,,,,,,,,
,,,,,,,,2023-08-16_08h47.32.607,HF_wild_card,2022.2.4,Win32,60.64281383,634689122e997b8299adeda5,64d2fd46c836a06233681665,64dc7f0d0f4bab065e53d28a,,,,,,,sngl,resources/DG.BMP,resources/Empty.png,Door4,-0.171262448,-0.003654586,1,0,0,0.7906,optionLeft,80,11440,5,38,0,38,0,1,,,,,,,,,,,,,,,,,,,,,,,,,,,,,,,,,,,,,,,
,,,,,,,,2023-08-16_08h47.32.607,HF_wild_card,2022.2.4,Win32,60.64281383,634689122e997b8299adeda5,64d2fd46c836a06233681665,64dc7f0d0f4bab065e53d28a,,,,,,,decisionTrl,resources/DP.BMP,resources/DY.BMP,Door2,0.365614638,-0.050166214,1,0,0,1.1072,optionRight,20,11460,5,39,0,39,0,1,,,,,,,,,,,,,,,,,,,,,,,,,,,,,,,,,,,,,,,
,,,,,,,,2023-08-16_08h47.32.607,HF_wild_card,2022.2.4,Win32,60.64281383,634689122e997b8299adeda5,64d2fd46c836a06233681665,64dc7f0d0f4bab065e53d28a,,,,,,,sngl,resources/Empty.png,resources/DG.BMP,Door4,0.281893708,-0.025581502,1,0,0,0.5802,optionRight,60,11520,5,40,0,40,0,1,,,,,,,,,,,,,,,,,,,,,,,,,,,,,,,,,,,,,,,
,,,,,,,,2023-08-16_08h47.32.607,HF_wild_card,2022.2.4,Win32,60.64281383,634689122e997b8299adeda5,64d2fd46c836a06233681665,64dc7f0d0f4bab065e53d28a,,,,,,,decisionTrl,resources/DBN.BMP,resources/DR.BMP,Door3,-0.227740762,-0.036212726,1,0,0,0.5304,optionLeft,70,11590,5,41,0,41,0,1,,,,,,,,,,,,,,,,,,,,,,,,,,,,,,,,,,,,,,,
,,,,,,,,2023-08-16_08h47.32.607,HF_wild_card,2022.2.4,Win32,60.64281383,634689122e997b8299adeda5,64d2fd46c836a06233681665,64dc7f0d0f4bab065e53d28a,,,,,,,decisionTrl,resources/DBN.BMP,resources/DG.BMP,Door3,-0.275581289,-0.00897011,1,0,0,0.5715,optionLeft,70,11660,5,42,0,42,0,1,,,,,,,,,,,,,,,,,,,,,,,,,,,,,,,,,,,,,,,
,,,,,,,,2023-08-16_08h47.32.607,HF_wild_card,2022.2.4,Win32,60.64281383,634689122e997b8299adeda5,64d2fd46c836a06233681665,64dc7f0d0f4bab065e53d28a,,,,,,,sngl,resources/Empty.png,resources/DBN.BMP,Door3,0.278571621,-0.006312313,1,0,0,0.5641,optionRight,70,11730,5,43,0,43,0,1,,,,,,,,,,,,,,,,,,,,,,,,,,,,,,,,,,,,,,,
,,,,,,,,2023-08-16_08h47.32.607,HF_wild_card,2022.2.4,Win32,60.64281383,634689122e997b8299adeda5,64d2fd46c836a06233681665,64dc7f0d0f4bab065e53d28a,,,,,,,,,,,,,,,,,,,,,,,,,,4,0,4,0,1,,,,,,,,,,,,,,,,,,,,,,,,,,,,,,,,,,
,,,,,,,,2023-08-16_08h47.32.607,HF_wild_card,2022.2.4,Win32,60.64281383,634689122e997b8299adeda5,64d2fd46c836a06233681665,64dc7f0d0f4bab065e53d28a,,,,,,,ctch,resources/DP.BMP,resources/DG.BMP,Door4,0.392192894,-0.026245862,1,0,0,0.8766,optionRight,60,11790,6,0,0,0,0,1,,,,,,,,,,,,,,,,,,,,,,,,,,,,,,,,,,,,,,,
,,,,,,,,2023-08-16_08h47.32.607,HF_wild_card,2022.2.4,Win32,60.64281383,634689122e997b8299adeda5,64d2fd46c836a06233681665,64dc7f0d0f4bab065e53d28a,,,,,,,decisionTrl,resources/DBN.BMP,resources/DR.BMP,Door3,-0.163953382,-0.029568127,1,0,0,0.5635,optionLeft,70,11860,6,1,0,1,0,1,,,,,,,,,,,,,,,,,,,,,,,,,,,,,,,,,,,,,,,
,,,,,,,,2023-08-16_08h47.32.607,HF_wild_card,2022.2.4,Win32,60.64281383,634689122e997b8299adeda5,64d2fd46c836a06233681665,64dc7f0d0f4bab065e53d28a,,,,,,,sngl,resources/DR.BMP,resources/Empty.png,WildCard_Ex,-0.217109538,-0.027574761,1,0,0,0.6806,optionLeft,5,11865,6,2,0,2,0,1,,,,,,,,,,,,,,,,,,,,,,,,,,,,,,,,,,,,,,,
,,,,,,,,2023-08-16_08h47.32.607,HF_wild_card,2022.2.4,Win32,60.64281383,634689122e997b8299adeda5,64d2fd46c836a06233681665,64dc7f0d0f4bab065e53d28a,,,,,,,decisionTrl,resources/DP.BMP,resources/DY.BMP,Door1,-0.263621166,-0.036877087,1,0,0,0.6466,optionLeft,30,11895,6,3,0,3,0,1,,,,,,,,,,,,,,,,,,,,,,,,,,,,,,,,,,,,,,,
,,,,,,,,2023-08-16_08h47.32.607,HF_wild_card,2022.2.4,Win32,60.64281383,634689122e997b8299adeda5,64d2fd46c836a06233681665,64dc7f0d0f4bab065e53d28a,,,,,,,sngl,resources/DY.BMP,resources/Empty.png,Door2,-0.1466777,-0.012956912,1,0,0,0.5624,optionLeft,20,11915,6,4,0,4,0,1,,,,,,,,,,,,,,,,,,,,,,,,,,,,,,,,,,,,,,,
,,,,,,,,2023-08-16_08h47.32.607,HF_wild_card,2022.2.4,Win32,60.64281383,634689122e997b8299adeda5,64d2fd46c836a06233681665,64dc7f0d0f4bab065e53d28a,,,,,,,ctch,resources/DY.BMP,resources/DBN.BMP,Door3,0.230730917,-0.00166115,1,0,0,0.4642,optionRight,70,11985,6,5,0,5,0,1,,,,,,,,,,,,,,,,,,,,,,,,,,,,,,,,,,,,,,,
,,,,,,,,2023-08-16_08h47.32.607,HF_wild_card,2022.2.4,Win32,60.64281383,634689122e997b8299adeda5,64d2fd46c836a06233681665,64dc7f0d0f4bab065e53d28a,,,,,,,decisionTrl,resources/DY.BMP,resources/DP.BMP,Door1,0.328405336,-0.025581502,1,0,0,0.5137,optionRight,30,12015,6,6,0,6,0,1,,,,,,,,,,,,,,,,,,,,,,,,,,,,,,,,,,,,,,,
,,,,,,,,2023-08-16_08h47.32.607,HF_wild_card,2022.2.4,Win32,60.64281383,634689122e997b8299adeda5,64d2fd46c836a06233681665,64dc7f0d0f4bab065e53d28a,,,,,,,decisionTrl,resources/DG.BMP,resources/DR.BMP,Door4,-0.136046512,0.026245827,1,0,0,0.581,optionLeft,80,12095,6,7,0,7,0,1,,,,,,,,,,,,,,,,,,,,,,,,,,,,,,,,,,,,,,,
,,,,,,,,2023-08-16_08h47.32.607,HF_wild_card,2022.2.4,Win32,60.64281383,634689122e997b8299adeda5,64d2fd46c836a06233681665,64dc7f0d0f4bab065e53d28a,,,,,,,decisionTrl,resources/DY.BMP,resources/DP.BMP,Door1,0.236046725,-0.000332322,1,0,0,0.7139,optionRight,30,12125,6,8,0,8,0,1,,,,,,,,,,,,,,,,,,,,,,,,,,,,,,,,,,,,,,,
,,,,,,,,2023-08-16_08h47.32.607,HF_wild_card,2022.2.4,Win32,60.64281383,634689122e997b8299adeda5,64d2fd46c836a06233681665,64dc7f0d0f4bab065e53d28a,,,,,,,sngl,resources/Empty.png,resources/DR.BMP,WildCard_Ex,0.295182765,-0.015614638,1,0,0,0.5476,optionRight,95,12220,6,9,0,9,0,1,,,,,,,,,,,,,,,,,,,,,,,,,,,,,,,,,,,,,,,
,,,,,,,,2023-08-16_08h47.32.607,HF_wild_card,2022.2.4,Win32,60.64281383,634689122e997b8299adeda5,64d2fd46c836a06233681665,64dc7f0d0f4bab065e53d28a,,,,,,,decisionTrl,resources/DP.BMP,resources/DY.BMP,Door1,-0.134053146,-0.014285811,1,0,0,0.6641,optionLeft,30,12250,6,10,0,10,0,1,,,,,,,,,,,,,,,,,,,,,,,,,,,,,,,,,,,,,,,
,,,,,,,,2023-08-16_08h47.32.607,HF_wild_card,2022.2.4,Win32,60.64281383,634689122e997b8299adeda5,64d2fd46c836a06233681665,64dc7f0d0f4bab065e53d28a,,,,,,,sngl,resources/DG.BMP,resources/Empty.png,Door4,-0.140697674,0.013621166,1,0,0,0.4967,optionLeft,60,12310,6,11,0,11,0,1,,,,,,,,,,,,,,,,,,,,,,,,,,,,,,,,,,,,,,,
,,,,,,,,2023-08-16_08h47.32.607,HF_wild_card,2022.2.4,Win32,60.64281383,634689122e997b8299adeda5,64d2fd46c836a06233681665,64dc7f0d0f4bab065e53d28a,,,,,,,decisionTrl,resources/DR.BMP,resources/DG.BMP,Door4,0.288538236,0.012956806,1,0,0,0.6635,optionRight,80,12390,6,12,0,12,0,1,,,,,,,,,,,,,,,,,,,,,,,,,,,,,,,,,,,,,,,
,,,,,,,,2023-08-16_08h47.32.607,HF_wild_card,2022.2.4,Win32,60.64281383,634689122e997b8299adeda5,64d2fd46c836a06233681665,64dc7f0d0f4bab065e53d28a,,,,,,,decisionTrl,resources/DBN.BMP,resources/DG.BMP,Door3,-0.175249073,0.007641176,1,0,0,1.197,optionLeft,70,12460,6,13,0,13,0,1,,,,,,,,,,,,,,,,,,,,,,,,,,,,,,,,,,,,,,,
,,,,,,,,2023-08-16_08h47.32.607,HF_wild_card,2022.2.4,Win32,60.64281383,634689122e997b8299adeda5,64d2fd46c836a06233681665,64dc7f0d0f4bab065e53d28a,,,,,,,ctch,resources/DBN.BMP,resources/DY.BMP,Door3,-0.188538094,-0.00166115,1,0,0,0.7306,optionLeft,70,12530,6,14,0,14,0,1,,,,,,,,,,,,,,,,,,,,,,,,,,,,,,,,,,,,,,,
,,,,,,,,2023-08-16_08h47.32.607,HF_wild_card,2022.2.4,Win32,60.64281383,634689122e997b8299adeda5,64d2fd46c836a06233681665,64dc7f0d0f4bab065e53d28a,,,,,,,ctch,resources/DBN.BMP,resources/DY.BMP,Door3,-0.237043088,-0.029568127,1,0,0,0.6142,optionLeft,70,12600,6,15,0,15,0,1,,,,,,,,,,,,,,,,,,,,,,,,,,,,,,,,,,,,,,,
,,,,,,,,2023-08-16_08h47.32.607,HF_wild_card,2022.2.4,Win32,60.64281383,634689122e997b8299adeda5,64d2fd46c836a06233681665,64dc7f0d0f4bab065e53d28a,,,,,,,decisionTrl,resources/DY.BMP,resources/DP.BMP,Door2,-0.189202561,-0.063455165,1,0,0,0.6474,optionLeft,20,12620,6,16,0,16,0,1,,,,,,,,,,,,,,,,,,,,,,,,,,,,,,,,,,,,,,,
,,,,,,,,2023-08-16_08h47.32.607,HF_wild_card,2022.2.4,Win32,60.64281383,634689122e997b8299adeda5,64d2fd46c836a06233681665,64dc7f0d0f4bab065e53d28a,,,,,,,ctch,resources/DY.BMP,resources/DBN.BMP,Door3,0.33637894,0.026910294,1,0,0,0.5643,optionRight,70,12690,6,17,0,17,0,1,,,,,,,,,,,,,,,,,,,,,,,,,,,,,,,,,,,,,,,
,,,,,,,,2023-08-16_08h47.32.607,HF_wild_card,2022.2.4,Win32,60.64281383,634689122e997b8299adeda5,64d2fd46c836a06233681665,64dc7f0d0f4bab065e53d28a,,,,,,,decisionTrl,resources/DBN.BMP,resources/DG.BMP,Door3,-0.260298902,-0.022923598,1,0,0,0.7133,optionLeft,70,12760,6,18,0,18,0,1,,,,,,,,,,,,,,,,,,,,,,,,,,,,,,,,,,,,,,,
,,,,,,,,2023-08-16_08h47.32.607,HF_wild_card,2022.2.4,Win32,60.64281383,634689122e997b8299adeda5,64d2fd46c836a06233681665,64dc7f0d0f4bab065e53d28a,,,,,,,sngl,resources/Empty.png,resources/DG.BMP,Door4,0.160963475,0.021594664,1,0,0,0.625,optionRight,80,12840,6,19,0,19,0,1,,,,,,,,,,,,,,,,,,,,,,,,,,,,,,,,,,,,,,,
,,,,,,,,2023-08-16_08h47.32.607,HF_wild_card,2022.2.4,Win32,60.64281383,634689122e997b8299adeda5,64d2fd46c836a06233681665,64dc7f0d0f4bab065e53d28a,,,,,,,ctch,resources/DG.BMP,resources/DP.BMP,Door4,-0.303488266,-0.002325688,1,0,0,0.5478,optionLeft,80,12920,6,20,0,20,0,1,,,,,,,,,,,,,,,,,,,,,,,,,,,,,,,,,,,,,,,
,,,,,,,,2023-08-16_08h47.32.607,HF_wild_card,2022.2.4,Win32,60.64281383,634689122e997b8299adeda5,64d2fd46c836a06233681665,64dc7f0d0f4bab065e53d28a,,,,,,,decisionTrl,resources/DR.BMP,resources/DY.BMP,Door2,0.219435226,-0.010299115,1,0,0,0.6313,optionRight,20,12940,6,21,0,21,0,1,,,,,,,,,,,,,,,,,,,,,,,,,,,,,,,,,,,,,,,
,,,,,,,,2023-08-16_08h47.32.607,HF_wild_card,2022.2.4,Win32,60.64281383,634689122e997b8299adeda5,64d2fd46c836a06233681665,64dc7f0d0f4bab065e53d28a,,,,,,,sngl,resources/Empty.png,resources/DR.BMP,WildCard_Ex,0.295847196,-0.043521615,1,0,0,0.614,optionRight,5,12945,6,22,0,22,0,1,,,,,,,,,,,,,,,,,,,,,,,,,,,,,,,,,,,,,,,
,,,,,,,,2023-08-16_08h47.32.607,HF_wild_card,2022.2.4,Win32,60.64281383,634689122e997b8299adeda5,64d2fd46c836a06233681665,64dc7f0d0f4bab065e53d28a,,,,,,,decisionTrl,resources/DR.BMP,resources/DBN.BMP,Door3,0.42076416,-0.020265801,1,0,0,0.564,optionRight,70,13015,6,23,0,23,0,1,,,,,,,,,,,,,,,,,,,,,,,,,,,,,,,,,,,,,,,
,,,,,,,,2023-08-16_08h47.32.607,HF_wild_card,2022.2.4,Win32,60.64281383,634689122e997b8299adeda5,64d2fd46c836a06233681665,64dc7f0d0f4bab065e53d28a,,,,,,,decisionTrl,resources/DP.BMP,resources/DY.BMP,Door1,-0.408471751,-0.069435226,1,0,0,0.6815,optionLeft,30,13045,6,24,0,24,0,1,,,,,,,,,,,,,,,,,,,,,,,,,,,,,,,,,,,,,,,
,,,,,,,,2023-08-16_08h47.32.607,HF_wild_card,2022.2.4,Win32,60.64281383,634689122e997b8299adeda5,64d2fd46c836a06233681665,64dc7f0d0f4bab065e53d28a,,,,,,,sngl,resources/Empty.png,resources/DBN.BMP,Door3,0.22807312,0.002325475,1,0,0,0.4981,optionRight,70,13115,6,25,0,25,0,1,,,,,,,,,,,,,,,,,,,,,,,,,,,,,,,,,,,,,,,
,,,,,,,,2023-08-16_08h47.32.607,HF_wild_card,2022.2.4,Win32,60.64281383,634689122e997b8299adeda5,64d2fd46c836a06233681665,64dc7f0d0f4bab065e53d28a,,,,,,,decisionTrl,resources/DG.BMP,resources/DBN.BMP,Door3,0.233388714,-0.002990048,1,0,0,0.714,optionRight,70,13185,6,26,0,26,0,1,,,,,,,,,,,,,,,,,,,,,,,,,,,,,,,,,,,,,,,
,,,,,,,,2023-08-16_08h47.32.607,HF_wild_card,2022.2.4,Win32,60.64281383,634689122e997b8299adeda5,64d2fd46c836a06233681665,64dc7f0d0f4bab065e53d28a,,,,,,,sngl,resources/Empty.png,resources/DP.BMP,Door1,0.280564987,-0.066777429,1,0,0,1.814,optionRight,30,13215,6,27,0,27,0,1,,,,,,,,,,,,,,,,,,,,,,,,,,,,,,,,,,,,,,,
,,,,,,,,2023-08-16_08h47.32.607,HF_wild_card,2022.2.4,Win32,60.64281383,634689122e997b8299adeda5,64d2fd46c836a06233681665,64dc7f0d0f4bab065e53d28a,,,,,,,decisionTrl,resources/DG.BMP,resources/DBN.BMP,Door4,-0.293521579,-0.00166115,1,0,0,0.5975,optionLeft,80,13295,6,28,0,28,0,1,,,,,,,,,,,,,,,,,,,,,,,,,,,,,,,,,,,,,,,
,,,,,,,,2023-08-16_08h47.32.607,HF_wild_card,2022.2.4,Win32,60.64281383,634689122e997b8299adeda5,64d2fd46c836a06233681665,64dc7f0d0f4bab065e53d28a,,,,,,,ctch,resources/DG.BMP,resources/DP.BMP,Door1,0.240033243,-0.015614638,1,0,0,0.663,optionRight,30,13325,6,29,0,29,0,1,,,,,,,,,,,,,,,,,,,,,,,,,,,,,,,,,,,,,,,
,,,,,,,,2023-08-16_08h47.32.607,HF_wild_card,2022.2.4,Win32,60.64281383,634689122e997b8299adeda5,64d2fd46c836a06233681665,64dc7f0d0f4bab065e53d28a,,,,,,,sngl,resources/DR.BMP,resources/Empty.png,WildCard_Ex,-0.346013269,0.01096344,1,0,0,0.5967,optionLeft,95,13420,6,30,0,30,0,1,,,,,,,,,,,,,,,,,,,,,,,,,,,,,,,,,,,,,,,
,,,,,,,,2023-08-16_08h47.32.607,HF_wild_card,2022.2.4,Win32,60.64281383,634689122e997b8299adeda5,64d2fd46c836a06233681665,64dc7f0d0f4bab065e53d28a,,,,,,,ctch,resources/DP.BMP,resources/DG.BMP,Door4,0.297176272,-0.007641211,1,0,0,0.8137,optionRight,80,13500,6,31,0,31,0,1,,,,,,,,,,,,,,,,,,,,,,,,,,,,,,,,,,,,,,,
,,,,,,,,2023-08-16_08h47.32.607,HF_wild_card,2022.2.4,Win32,60.64281383,634689122e997b8299adeda5,64d2fd46c836a06233681665,64dc7f0d0f4bab065e53d28a,,,,,,,decisionTrl,resources/DBN.BMP,resources/DG.BMP,Door4,0.196179412,-0.012292374,1,0,0,0.4802,optionRight,80,13580,6,32,0,32,0,1,,,,,,,,,,,,,,,,,,,,,,,,,,,,,,,,,,,,,,,
,,,,,,,,2023-08-16_08h47.32.607,HF_wild_card,2022.2.4,Win32,60.64281383,634689122e997b8299adeda5,64d2fd46c836a06233681665,64dc7f0d0f4bab065e53d28a,,,,,,,decisionTrl,resources/DY.BMP,resources/DR.BMP,Door2,-0.249003317,-0.003654586,1,0,0,0.4805,optionLeft,40,13620,6,33,0,33,0,1,,,,,,,,,,,,,,,,,,,,,,,,,,,,,,,,,,,,,,,
,,,,,,,,2023-08-16_08h47.32.607,HF_wild_card,2022.2.4,Win32,60.64281383,634689122e997b8299adeda5,64d2fd46c836a06233681665,64dc7f0d0f4bab065e53d28a,,,,,,,decisionTrl,resources/DBN.BMP,resources/DG.BMP,Door4,0.227408831,-0.002990048,1,0,0,0.5309,optionRight,80,13700,6,34,0,34,0,1,,,,,,,,,,,,,,,,,,,,,,,,,,,,,,,,,,,,,,,
,,,,,,,,2023-08-16_08h47.32.607,HF_wild_card,2022.2.4,Win32,60.64281383,634689122e997b8299adeda5,64d2fd46c836a06233681665,64dc7f0d0f4bab065e53d28a,,,,,,,decisionTrl,resources/DY.BMP,resources/DP.BMP,Door2,-0.266943501,0.007641176,1,0,0,1.6308,optionLeft,20,13720,6,35,0,35,0,1,,,,,,,,,,,,,,,,,,,,,,,,,,,,,,,,,,,,,,,
,,,,,,,,2023-08-16_08h47.32.607,HF_wild_card,2022.2.4,Win32,60.64281383,634689122e997b8299adeda5,64d2fd46c836a06233681665,64dc7f0d0f4bab065e53d28a,,,,,,,decisionTrl,resources/DR.BMP,resources/DP.BMP,Door1,0.237375446,0.022923492,1,0,0,0.514,optionRight,30,13750,6,36,0,36,0,1,,,,,,,,,,,,,,,,,,,,,,,,,,,,,,,,,,,,,,,
,,,,,,,,2023-08-16_08h47.32.607,HF_wild_card,2022.2.4,Win32,60.64281383,634689122e997b8299adeda5,64d2fd46c836a06233681665,64dc7f0d0f4bab065e53d28a,,,,,,,decisionTrl,resources/DG.BMP,resources/DBN.BMP,Door3,0.176910329,0.00365448,1,0,0,0.7973,optionRight,70,13820,6,37,0,37,0,1,,,,,,,,,,,,,,,,,,,,,,,,,,,,,,,,,,,,,,,
,,,,,,,,2023-08-16_08h47.32.607,HF_wild_card,2022.2.4,Win32,60.64281383,634689122e997b8299adeda5,64d2fd46c836a06233681665,64dc7f0d0f4bab065e53d28a,,,,,,,decisionTrl,resources/DG.BMP,resources/DBN.BMP,Door3,0.265946854,-0.060797439,1,0,0,0.6793,optionRight,70,13890,6,38,0,38,0,1,,,,,,,,,,,,,,,,,,,,,,,,,,,,,,,,,,,,,,,
,,,,,,,,2023-08-16_08h47.32.607,HF_wild_card,2022.2.4,Win32,60.64281383,634689122e997b8299adeda5,64d2fd46c836a06233681665,64dc7f0d0f4bab065e53d28a,,,,,,,decisionTrl,resources/DP.BMP,resources/DY.BMP,Door1,-0.383887038,-0.060132901,1,0,0,1.0145,optionLeft,30,13920,6,39,0,39,0,1,,,,,,,,,,,,,,,,,,,,,,,,,,,,,,,,,,,,,,,
,,,,,,,,2023-08-16_08h47.32.607,HF_wild_card,2022.2.4,Win32,60.64281383,634689122e997b8299adeda5,64d2fd46c836a06233681665,64dc7f0d0f4bab065e53d28a,,,,,,,decisionTrl,resources/DP.BMP,resources/DR.BMP,WildCard_Ex,0.299833928,0.028239193,1,0,0,1.8139,optionRight,95,14015,6,40,0,40,0,1,,,,,,,,,,,,,,,,,,,,,,,,,,,,,,,,,,,,,,,
,,,,,,,,2023-08-16_08h47.32.607,HF_wild_card,2022.2.4,Win32,60.64281383,634689122e997b8299adeda5,64d2fd46c836a06233681665,64dc7f0d0f4bab065e53d28a,,,,,,,sngl,resources/DBN.BMP,resources/Empty.png,Door3,-0.320099658,-0.01960144,1,0,0,0.7635,optionLeft,70,14085,6,41,0,41,0,1,,,,,,,,,,,,,,,,,,,,,,,,,,,,,,,,,,,,,,,
,,,,,,,,2023-08-16_08h47.32.607,HF_wild_card,2022.2.4,Win32,60.64281383,634689122e997b8299adeda5,64d2fd46c836a06233681665,64dc7f0d0f4bab065e53d28a,,,,,,,sngl,resources/Empty.png,resources/DY.BMP,Door2,0.1436879,-0.006312313,1,0,0,0.5302,optionRight,40,14125,6,42,0,42,0,1,,,,,,,,,,,,,,,,,,,,,,,,,,,,,,,,,,,,,,,
,,,,,,,,2023-08-16_08h47.32.607,HF_wild_card,2022.2.4,Win32,60.64281383,634689122e997b8299adeda5,64d2fd46c836a06233681665,64dc7f0d0f4bab065e53d28a,,,,,,,sngl,resources/DP.BMP,resources/Empty.png,Door1,-0.246345414,-0.020265801,1,0,0,0.5969,optionLeft,30,14155,6,43,0,43,0,1,,,,,,,,,,,,,,,,,,,,,,,,,,,,,,,,,,,,,,,
,,,,,,,,2023-08-16_08h47.32.607,HF_wild_card,2022.2.4,Win32,60.64281383,634689122e997b8299adeda5,64d2fd46c836a06233681665,64dc7f0d0f4bab065e53d28a,,,,,,,,,,,,,,,,,,,,,,,,,,5,0,5,0,1,,,,,,,,,,,,,,,,,,,,,,,,,,,,,,,,,,
,,,,,,,,2023-08-16_08h47.32.607,HF_wild_card,2022.2.4,Win32,60.64281383,634689122e997b8299adeda5,64d2fd46c836a06233681665,64dc7f0d0f4bab065e53d28a,,,,,,,decisionTrl,resources/DP.BMP,resources/DY.BMP,Door2,0.325083249,-0.061461906,1,0,0,0.6213,optionRight,40,14195,7,0,0,0,0,1,,,,,,,,,,,,,,,,,,,,,,,,,,,,,,,,,,,,,,,
,,,,,,,,2023-08-16_08h47.32.607,HF_wild_card,2022.2.4,Win32,60.64281383,634689122e997b8299adeda5,64d2fd46c836a06233681665,64dc7f0d0f4bab065e53d28a,,,,,,,decisionTrl,resources/DP.BMP,resources/DY.BMP,Door1,-0.315448495,0.001661114,1,0,0,0.565,optionLeft,30,14225,7,1,0,1,0,1,,,,,,,,,,,,,,,,,,,,,,,,,,,,,,,,,,,,,,,
,,,,,,,,2023-08-16_08h47.32.607,HF_wild_card,2022.2.4,Win32,60.64281383,634689122e997b8299adeda5,64d2fd46c836a06233681665,64dc7f0d0f4bab065e53d28a,,,,,,,decisionTrl,resources/DBN.BMP,resources/DG.BMP,Door3,-0.361960123,0.030232452,1,0,0,0.4653,optionLeft,70,14295,7,2,0,2,0,1,,,,,,,,,,,,,,,,,,,,,,,,,,,,,,,,,,,,,,,
,,,,,,,,2023-08-16_08h47.32.607,HF_wild_card,2022.2.4,Win32,60.64281383,634689122e997b8299adeda5,64d2fd46c836a06233681665,64dc7f0d0f4bab065e53d28a,,,,,,,decisionTrl,resources/DY.BMP,resources/DP.BMP,Door2,-0.296843844,0.049501641,1,0,0,0.4817,optionLeft,40,14335,7,3,0,3,0,1,,,,,,,,,,,,,,,,,,,,,,,,,,,,,,,,,,,,,,,
,,,,,,,,2023-08-16_08h47.32.607,HF_wild_card,2022.2.4,Win32,60.64281383,634689122e997b8299adeda5,64d2fd46c836a06233681665,64dc7f0d0f4bab065e53d28a,,,,,,,ctch,resources/DBN.BMP,resources/DY.BMP,Door2,0.420099871,-0.000332322,1,0,0,0.4491,optionRight,40,14375,7,4,0,4,0,1,,,,,,,,,,,,,,,,,,,,,,,,,,,,,,,,,,,,,,,
,,,,,,,,2023-08-16_08h47.32.607,HF_wild_card,2022.2.4,Win32,60.64281383,634689122e997b8299adeda5,64d2fd46c836a06233681665,64dc7f0d0f4bab065e53d28a,,,,,,,decisionTrl,resources/DP.BMP,resources/DY.BMP,Door1,-0.450996612,-0.003654586,1,0,0,0.7321,optionLeft,30,14405,7,5,0,5,0,1,,,,,,,,,,,,,,,,,,,,,,,,,,,,,,,,,,,,,,,
,,,,,,,,2023-08-16_08h47.32.607,HF_wild_card,2022.2.4,Win32,60.64281383,634689122e997b8299adeda5,64d2fd46c836a06233681665,64dc7f0d0f4bab065e53d28a,,,,,,,ctch,resources/DP.BMP,resources/DG.BMP,Door4,0.468604651,0.004983379,1,0,0,0.7157,optionRight,80,14485,7,6,0,6,0,1,,,,,,,,,,,,,,,,,,,,,,,,,,,,,,,,,,,,,,,
,,,,,,,,2023-08-16_08h47.32.607,HF_wild_card,2022.2.4,Win32,60.64281383,634689122e997b8299adeda5,64d2fd46c836a06233681665,64dc7f0d0f4bab065e53d28a,,,,,,,decisionTrl,resources/DG.BMP,resources/DBN.BMP,Door3,0.308471964,0.000332216,1,0,0,0.4979,optionRight,70,14555,7,7,0,7,0,1,,,,,,,,,,,,,,,,,,,,,,,,,,,,,,,,,,,,,,,
,,,,,,,,2023-08-16_08h47.32.607,HF_wild_card,2022.2.4,Win32,60.64281383,634689122e997b8299adeda5,64d2fd46c836a06233681665,64dc7f0d0f4bab065e53d28a,,,,,,,ctch,resources/DP.BMP,resources/DG.BMP,Door4,0.423421957,0.014950065,1,0,0,0.5158,optionRight,60,14615,7,8,0,8,0,1,,,,,,,,,,,,,,,,,,,,,,,,,,,,,,,,,,,,,,,
,,,,,,,,2023-08-16_08h47.32.607,HF_wild_card,2022.2.4,Win32,60.64281383,634689122e997b8299adeda5,64d2fd46c836a06233681665,64dc7f0d0f4bab065e53d28a,,,,,,,decisionTrl,resources/DG.BMP,resources/DBN.BMP,Door3,0.263289057,-0.012292374,1,0,0,0.5984,optionRight,70,14685,7,9,0,9,0,1,,,,,,,,,,,,,,,,,,,,,,,,,,,,,,,,,,,,,,,
,,,,,,,,2023-08-16_08h47.32.607,HF_wild_card,2022.2.4,Win32,60.64281383,634689122e997b8299adeda5,64d2fd46c836a06233681665,64dc7f0d0f4bab065e53d28a,,,,,,,decisionTrl,resources/DBN.BMP,resources/DG.BMP,Door4,0.364285917,0.001661114,1,0,0,0.5489,optionRight,80,14765,7,10,0,10,0,1,,,,,,,,,,,,,,,,,,,,,,,,,,,,,,,,,,,,,,,
,,,,,,,,2023-08-16_08h47.32.607,HF_wild_card,2022.2.4,Win32,60.64281383,634689122e997b8299adeda5,64d2fd46c836a06233681665,64dc7f0d0f4bab065e53d28a,,,,,,,ctch,resources/DG.BMP,resources/DP.BMP,Door1,0.287209515,-0.000332322,1,0,0,0.5825,optionRight,30,14795,7,11,0,11,0,1,,,,,,,,,,,,,,,,,,,,,,,,,,,,,,,,,,,,,,,
,,,,,,,,2023-08-16_08h47.32.607,HF_wild_card,2022.2.4,Win32,60.64281383,634689122e997b8299adeda5,64d2fd46c836a06233681665,64dc7f0d0f4bab065e53d28a,,,,,,,decisionTrl,resources/DG.BMP,resources/DBN.BMP,Door4,-0.27358803,0.012956806,1,0,0,0.5649,optionLeft,60,14855,7,12,0,12,0,1,,,,,,,,,,,,,,,,,,,,,,,,,,,,,,,,,,,,,,,
,,,,,,,,2023-08-16_08h47.32.607,HF_wild_card,2022.2.4,Win32,60.64281383,634689122e997b8299adeda5,64d2fd46c836a06233681665,64dc7f0d0f4bab065e53d28a,,,,,,,ctch,resources/DY.BMP,resources/DBN.BMP,Door3,0.15897011,0.00365448,1,0,0,0.6315,optionRight,70,14925,7,13,0,13,0,1,,,,,,,,,,,,,,,,,,,,,,,,,,,,,,,,,,,,,,,
,,,,,,,,2023-08-16_08h47.32.607,HF_wild_card,2022.2.4,Win32,60.64281383,634689122e997b8299adeda5,64d2fd46c836a06233681665,64dc7f0d0f4bab065e53d28a,,,,,,,decisionTrl,resources/DY.BMP,resources/DP.BMP,Door2,-0.256976638,-0.003654586,1,0,0,1.1655,optionLeft,20,14945,7,14,0,14,0,1,,,,,,,,,,,,,,,,,,,,,,,,,,,,,,,,,,,,,,,
,,,,,,,,2023-08-16_08h47.32.607,HF_wild_card,2022.2.4,Win32,60.64281383,634689122e997b8299adeda5,64d2fd46c836a06233681665,64dc7f0d0f4bab065e53d28a,,,,,,,decisionTrl,resources/DG.BMP,resources/DBN.BMP,Door3,0.237375446,0.017607968,1,0,0,0.5657,optionRight,70,15015,7,15,0,15,0,1,,,,,,,,,,,,,,,,,,,,,,,,,,,,,,,,,,,,,,,
,,,,,,,,2023-08-16_08h47.32.607,HF_wild_card,2022.2.4,Win32,60.64281383,634689122e997b8299adeda5,64d2fd46c836a06233681665,64dc7f0d0f4bab065e53d28a,,,,,,,decisionTrl,resources/DBN.BMP,resources/DG.BMP,Door3,-0.351328899,0.020265766,1,0,0,0.6655,optionLeft,70,15085,7,16,0,16,0,1,,,,,,,,,,,,,,,,,,,,,,,,,,,,,,,,,,,,,,,
,,,,,,,,2023-08-16_08h47.32.607,HF_wild_card,2022.2.4,Win32,60.64281383,634689122e997b8299adeda5,64d2fd46c836a06233681665,64dc7f0d0f4bab065e53d28a,,,,,,,decisionTrl,resources/DY.BMP,resources/DP.BMP,Door2,-0.427076402,0.019601228,1,0,0,1.0483,optionLeft,40,15125,7,17,0,17,0,1,,,,,,,,,,,,,,,,,,,,,,,,,,,,,,,,,,,,,,,
,,,,,,,,2023-08-16_08h47.32.607,HF_wild_card,2022.2.4,Win32,60.64281383,634689122e997b8299adeda5,64d2fd46c836a06233681665,64dc7f0d0f4bab065e53d28a,,,,,,,ctch,resources/DBN.BMP,resources/DY.BMP,Door3,-0.314119596,0.002990013,1,0,0,0.8493,optionLeft,70,15195,7,18,0,18,0,1,,,,,,,,,,,,,,,,,,,,,,,,,,,,,,,,,,,,,,,
,,,,,,,,2023-08-16_08h47.32.607,HF_wild_card,2022.2.4,Win32,60.64281383,634689122e997b8299adeda5,64d2fd46c836a06233681665,64dc7f0d0f4bab065e53d28a,,,,,,,decisionTrl,resources/DBN.BMP,resources/DG.BMP,Door3,-0.310797332,-0.055481738,1,0,0,0.6486,optionLeft,70,15265,7,19,0,19,0,1,,,,,,,,,,,,,,,,,,,,,,,,,,,,,,,,,,,,,,,
,,,,,,,,2023-08-16_08h47.32.607,HF_wild_card,2022.2.4,Win32,60.64281383,634689122e997b8299adeda5,64d2fd46c836a06233681665,64dc7f0d0f4bab065e53d28a,,,,,,,ctch,resources/DY.BMP,resources/DBN.BMP,Door3,0.210797545,-0.006312313,1,0,0,0.9984,optionRight,70,15335,7,20,0,20,0,1,,,,,,,,,,,,,,,,,,,,,,,,,,,,,,,,,,,,,,,
,,,,,,,,2023-08-16_08h47.32.607,HF_wild_card,2022.2.4,Win32,60.64281383,634689122e997b8299adeda5,64d2fd46c836a06233681665,64dc7f0d0f4bab065e53d28a,,,,,,,decisionTrl,resources/DBN.BMP,resources/DG.BMP,Door3,-0.224418498,-0.006976851,1,0,0,0.7657,optionLeft,70,15405,7,21,0,21,0,1,,,,,,,,,,,,,,,,,,,,,,,,,,,,,,,,,,,,,,,
,,,,,,,,2023-08-16_08h47.32.607,HF_wild_card,2022.2.4,Win32,60.64281383,634689122e997b8299adeda5,64d2fd46c836a06233681665,64dc7f0d0f4bab065e53d28a,,,,,,,decisionTrl,resources/DG.BMP,resources/DBN.BMP,Door3,0.204153017,-0.000996683,1,0,0,0.7156,optionRight,70,15475,7,22,0,22,0,1,,,,,,,,,,,,,,,,,,,,,,,,,,,,,,,,,,,,,,,
,,,,,,,,2023-08-16_08h47.32.607,HF_wild_card,2022.2.4,Win32,60.64281383,634689122e997b8299adeda5,64d2fd46c836a06233681665,64dc7f0d0f4bab065e53d28a,,,,,,,ctch,resources/DG.BMP,resources/DP.BMP,Door4,-0.36993355,-0.024252603,1,0,0,0.7478,optionLeft,60,15535,7,23,0,23,0,1,,,,,,,,,,,,,,,,,,,,,,,,,,,,,,,,,,,,,,,
,,,,,,,,2023-08-16_08h47.32.607,HF_wild_card,2022.2.4,Win32,60.64281383,634689122e997b8299adeda5,64d2fd46c836a06233681665,64dc7f0d0f4bab065e53d28a,,,,,,,decisionTrl,resources/DBN.BMP,resources/DG.BMP,Door3,-0.348670995,0.012956806,1,0,0,0.8142,optionLeft,70,15605,7,24,0,24,0,1,,,,,,,,,,,,,,,,,,,,,,,,,,,,,,,,,,,,,,,
,,,,,,,,2023-08-16_08h47.32.607,HF_wild_card,2022.2.4,Win32,60.64281383,634689122e997b8299adeda5,64d2fd46c836a06233681665,64dc7f0d0f4bab065e53d28a,,,,,,,decisionTrl,resources/DP.BMP,resources/DY.BMP,Door1,-0.307475068,-0.018936973,1,0,0,0.783,optionLeft,30,15635,7,25,0,25,0,1,,,,,,,,,,,,,,,,,,,,,,,,,,,,,,,,,,,,,,,
,,,,,,,,2023-08-16_08h47.32.607,HF_wild_card,2022.2.4,Win32,60.64281383,634689122e997b8299adeda5,64d2fd46c836a06233681665,64dc7f0d0f4bab065e53d28a,,,,,,,decisionTrl,resources/DG.BMP,resources/DBN.BMP,Door3,0.234717649,-0.016943537,1,0,0,0.582,optionRight,70,15705,7,26,0,26,0,1,,,,,,,,,,,,,,,,,,,,,,,,,,,,,,,,,,,,,,,
,,,,,,,,2023-08-16_08h47.32.607,HF_wild_card,2022.2.4,Win32,60.64281383,634689122e997b8299adeda5,64d2fd46c836a06233681665,64dc7f0d0f4bab065e53d28a,,,,,,,decisionTrl,resources/DY.BMP,resources/DP.BMP,Door2,-0.311461693,-0.041528249,1,0,0,1.2986,optionLeft,20,15725,7,27,0,27,0,1,,,,,,,,,,,,,,,,,,,,,,,,,,,,,,,,,,,,,,,
,,,,,,,,2023-08-16_08h47.32.607,HF_wild_card,2022.2.4,Win32,60.64281383,634689122e997b8299adeda5,64d2fd46c836a06233681665,64dc7f0d0f4bab065e53d28a,,,,,,,ctch,resources/DG.BMP,resources/DP.BMP,Door4,-0.480896954,-0.011628013,1,0,0,0.7149,optionLeft,60,15785,7,28,0,28,0,1,,,,,,,,,,,,,,,,,,,,,,,,,,,,,,,,,,,,,,,
,,,,,,,,2023-08-16_08h47.32.607,HF_wild_card,2022.2.4,Win32,60.64281383,634689122e997b8299adeda5,64d2fd46c836a06233681665,64dc7f0d0f4bab065e53d28a,,,,,,,decisionTrl,resources/DY.BMP,resources/DP.BMP,Door1,0.208139748,0.034883614,1,0,0,0.7811,optionRight,30,15815,7,29,0,29,0,1,,,,,,,,,,,,,,,,,,,,,,,,,,,,,,,,,,,,,,,
,,,,,,,,2023-08-16_08h47.32.607,HF_wild_card,2022.2.4,Win32,60.64281383,634689122e997b8299adeda5,64d2fd46c836a06233681665,64dc7f0d0f4bab065e53d28a,,,,,,,decisionTrl,resources/DP.BMP,resources/DY.BMP,Door1,-0.167940184,-0.026245862,1,0,0,0.5822,optionLeft,30,15845,7,30,0,30,0,1,,,,,,,,,,,,,,,,,,,,,,,,,,,,,,,,,,,,,,,
,,,,,,,,2023-08-16_08h47.32.607,HF_wild_card,2022.2.4,Win32,60.64281383,634689122e997b8299adeda5,64d2fd46c836a06233681665,64dc7f0d0f4bab065e53d28a,,,,,,,ctch,resources/DY.BMP,resources/DBN.BMP,Door3,0.307807532,-0.005647846,1,0,0,0.5481,optionRight,70,15915,7,31,0,31,0,1,,,,,,,,,,,,,,,,,,,,,,,,,,,,,,,,,,,,,,,
,,,,,,,,2023-08-16_08h47.32.607,HF_wild_card,2022.2.4,Win32,60.64281383,634689122e997b8299adeda5,64d2fd46c836a06233681665,64dc7f0d0f4bab065e53d28a,,,,,,,decisionTrl,resources/DP.BMP,resources/DY.BMP,Door1,-0.298837103,-0.012292374,1,0,0,0.5485,optionLeft,30,15945,7,32,0,32,0,1,,,,,,,,,,,,,,,,,,,,,,,,,,,,,,,,,,,,,,,
,,,,,,,,2023-08-16_08h47.32.607,HF_wild_card,2022.2.4,Win32,60.64281383,634689122e997b8299adeda5,64d2fd46c836a06233681665,64dc7f0d0f4bab065e53d28a,,,,,,,ctch,resources/DBN.BMP,resources/DY.BMP,Door3,-0.264950065,-0.003654586,1,0,0,0.7979,optionLeft,70,16015,7,33,0,33,0,1,,,,,,,,,,,,,,,,,,,,,,,,,,,,,,,,,,,,,,,
,,,,,,,,2023-08-16_08h47.32.607,HF_wild_card,2022.2.4,Win32,60.64281383,634689122e997b8299adeda5,64d2fd46c836a06233681665,64dc7f0d0f4bab065e53d28a,,,,,,,decisionTrl,resources/DY.BMP,resources/DP.BMP,Door1,0.273920458,-0.022259238,1,0,0,0.6975,optionRight,30,16045,7,34,0,34,0,1,,,,,,,,,,,,,,,,,,,,,,,,,,,,,,,,,,,,,,,
,,,,,,,,2023-08-16_08h47.32.607,HF_wild_card,2022.2.4,Win32,60.64281383,634689122e997b8299adeda5,64d2fd46c836a06233681665,64dc7f0d0f4bab065e53d28a,,,,,,,ctch,resources/DP.BMP,resources/DG.BMP,Door1,-0.419767442,-0.002990048,1,0,0,0.6307,optionLeft,30,16075,7,35,0,35,0,1,,,,,,,,,,,,,,,,,,,,,,,,,,,,,,,,,,,,,,,
,,,,,,,,2023-08-16_08h47.32.607,HF_wild_card,2022.2.4,Win32,60.64281383,634689122e997b8299adeda5,64d2fd46c836a06233681665,64dc7f0d0f4bab065e53d28a,,,,,,,,,,,,,,,,,,,,,,,,,,6,0,6,0,1,,,,,,,,,,,,,,,,,,,,,,,,,,,,,,,,,,
,,,,,,,,2023-08-16_08h47.32.607,HF_wild_card,2022.2.4,Win32,60.64281383,634689122e997b8299adeda5,64d2fd46c836a06233681665,64dc7f0d0f4bab065e53d28a,,,,,,,,,,,,,,,,,,,,,,,,,,,,,,,4,,,,,,,,,,,,,,,,,,,,,,,,,,,,,,,,,
,,,,,,,,2023-08-16_08h47.32.607,HF_wild_card,2022.2.4,Win32,60.64281383,634689122e997b8299adeda5,64d2fd46c836a06233681665,64dc7f0d0f4bab065e53d28a,,,,,,,,,,,,,,,,,,,,,,,,,,,,,,,,,,,,,,,,,,,,,,,,,,,,,,,,,,,,,,,,
,,,,,,,,2023-08-16_08h47.32.607,HF_wild_card,2022.2.4,Win32,60.64281383,634689122e997b8299adeda5,64d2fd46c836a06233681665,64dc7f0d0f4bab065e53d28a,,,,,,,,,,,,,,,,,,,,,,,,,,,,,,,,30,WC_nonExtreme,resources/DB.BMP,0,0,0,0,1,,,,,,,,,,,,,,,,,,,,,,,,,
,,,,,,,,2023-08-16_08h47.32.607,HF_wild_card,2022.2.4,Win32,60.64281383,634689122e997b8299adeda5,64d2fd46c836a06233681665,64dc7f0d0f4bab065e53d28a,,,,,,,,,,,,,,,,,,,,,,,,,,,,,,,,30,Door2,resources/DY.BMP,1,0,1,0,1,,,,,,,,,,,,,,,,,,,,,,,,,
,,,,,,,,2023-08-16_08h47.32.607,HF_wild_card,2022.2.4,Win32,60.64281383,634689122e997b8299adeda5,64d2fd46c836a06233681665,64dc7f0d0f4bab065e53d28a,,,,,,,,,,,,,,,,,,,,,,,,,,,,,,,,70,Door3,resources/DBN.BMP,2,0,2,0,1,,,,,,,,,,,,,,,,,,,,,,,,,
,,,,,,,,2023-08-16_08h47.32.607,HF_wild_card,2022.2.4,Win32,60.64281383,634689122e997b8299adeda5,64d2fd46c836a06233681665,64dc7f0d0f4bab065e53d28a,,,,,,,,,,,,,,,,,,,,,,,,,,,,,,,,5,WC_extreme,resources/DR.BMP,3,0,3,0,1,,,,,,,,,,,,,,,,,,,,,,,,,
,,,,,,,,2023-08-16_08h47.32.607,HF_wild_card,2022.2.4,Win32,60.64281383,634689122e997b8299adeda5,64d2fd46c836a06233681665,64dc7f0d0f4bab065e53d28a,,,,,,,,,,,,,,,,,,,,,,,,,,,,,,,,30,Door1,resources/DP.BMP,4,0,4,0,1,,,,,,,,,,,,,,,,,,,,,,,,,
,,,,,,,,2023-08-16_08h47.32.607,HF_wild_card,2022.2.4,Win32,60.64281383,634689122e997b8299adeda5,64d2fd46c836a06233681665,64dc7f0d0f4bab065e53d28a,,,,,,,,,,,,,,,,,,,,,,,,,,,,,,,,70,Door4,resources/DG.BMP,5,0,5,0,1,,,,,,,,,,,,,,,,,,,,,,,,,
,,,,,,,,2023-08-16_08h47.32.607,HF_wild_card,2022.2.4,Win32,60.64281383,634689122e997b8299adeda5,64d2fd46c836a06233681665,64dc7f0d0f4bab065e53d28a,,,,,,,,,,,,,,,,,,,,,,,,,,,,,,,,,,,,,,,,,,,,,,,,,,,,,,,,,,,,,,,,
