Condition,Low fixed image (Door1),Low risky image (Door2),High fixed image (Door3),High risky image (Door4),Extreme Wild Card,NonExtreme Wild Card,,date,expName,psychopyVersion,OS,frameRate,PROLIFIC_PID,STUDY_ID,SESSION_ID,mouse_2.x,mouse_2.y,mouse_2.leftButton,mouse_2.midButton,mouse_2.rightButton,mouse_2.clicked_name,Trial Type,Left Option Image,Right Option Image,Chosen Door,mouse.x,mouse.y,mouse.leftButton,mouse.midButton,mouse.rightButton,mouse.time,mouse.clicked_name,Feedback,Cumulative Reward,Block,trial.thisRepN,trial.thisTrialN,trial.thisN,trial.thisIndex,trial.ran,blocks.thisRepN,blocks.thisTrialN,blocks.thisN,blocks.thisIndex,blocks.ran,Money conversion,First Outcome Reported,Shown Door (First Outcome),Displayed Image (First Outcome),outcomes.thisRepN,outcomes.thisTrialN,outcomes.thisN,outcomes.thisIndex,outcomes.ran,judgments.thisRepN,judgments.thisTrialN,judgments.thisN,judgments.thisIndex,judgments.ran,freqMouse.x,freqMouse.y,freqMouse.leftButton,freqMouse.midButton,freqMouse.rightButton,freqMouse.clicked_name,trials.thisRepN,trials.thisTrialN,trials.thisN,trials.thisIndex,trials.ran,FQJ for first outcome,FQJ for second outcome,Shown Door,Displayed Image,judgBlock.thisRepN,judgBlock.thisTrialN,judgBlock.thisN,judgBlock.thisIndex,judgBlock.ran
0,resources/DR.BMP,resources/DG.BMP,resources/DBN.BMP,resources/DP.BMP,resources/DY.BMP,resources/DB.BMP,,2023-08-16_08h50.31.442,HF_wild_card,2022.2.4,Win32,59.9268892,5cdfb7d5ed552600019dc9f3,64d2fd46c836a06233681665,64dc7f7330f891f885739abf,,,,,,,,,,,,,,,,,,,,,,,,,,,,,,,,,,,,,,,,,,,,,,,,,,,,,,,,,,,,,,,,
,,,,,,,,2023-08-16_08h50.31.442,HF_wild_card,2022.2.4,Win32,59.9268892,5cdfb7d5ed552600019dc9f3,64d2fd46c836a06233681665,64dc7f7330f891f885739abf,-0.00462963,-0.425925926,1,0,0,agree,,,,,,,,,,,,,,,,,,,,,,,,,,,,,,,,,,,,,,,,,,,,,,,,,,,,,,,,,,
,,,,,,,,2023-08-16_08h50.31.442,HF_wild_card,2022.2.4,Win32,59.9268892,5cdfb7d5ed552600019dc9f3,64d2fd46c836a06233681665,64dc7f7330f891f885739abf,,,,,,,,,,,,,,,,,,,,,,,,,,,,,,,,,,,,,,,,,,,,,,,,,,,,,,,,,,,,,,,,
,,,,,,,,2023-08-16_08h50.31.442,HF_wild_card,2022.2.4,Win32,59.9268892,5cdfb7d5ed552600019dc9f3,64d2fd46c836a06233681665,64dc7f7330f891f885739abf,,,,,,,ctch,resources/DBN.BMP,resources/DG.BMP,Door3,-0.235185199,-0.12037037,1,0,0,4.3668,optionLeft,70,70,1,0,0,0,0,1,,,,,,,,,,,,,,,,,,,,,,,,,,,,,,,,,,,,,,,
,,,,,,,,2023-08-16_08h50.31.442,HF_wild_card,2022.2.4,Win32,59.9268892,5cdfb7d5ed552600019dc9f3,64d2fd46c836a06233681665,64dc7f7330f891f885739abf,,,,,,,sngl,resources/DY.BMP,resources/Empty.png,WildCard_Ex,-0.287962949,-0.006481489,1,0,0,1.4708,optionLeft,95,165,1,1,0,1,0,1,,,,,,,,,,,,,,,,,,,,,,,,,,,,,,,,,,,,,,,
,,,,,,,,2023-08-16_08h50.31.442,HF_wild_card,2022.2.4,Win32,59.9268892,5cdfb7d5ed552600019dc9f3,64d2fd46c836a06233681665,64dc7f7330f891f885739abf,,,,,,,sngl,resources/DBN.BMP,resources/Empty.png,Door3,-0.317592586,-0.000925947,1,0,0,1.1648,optionLeft,70,235,1,2,0,2,0,1,,,,,,,,,,,,,,,,,,,,,,,,,,,,,,,,,,,,,,,
,,,,,,,,2023-08-16_08h50.31.442,HF_wild_card,2022.2.4,Win32,59.9268892,5cdfb7d5ed552600019dc9f3,64d2fd46c836a06233681665,64dc7f7330f891f885739abf,,,,,,,decisionTrl,resources/DP.BMP,resources/DBN.BMP,Door4,-0.431481467,-0.025925919,1,0,0,3.7492,optionLeft,60,295,1,3,0,3,0,1,,,,,,,,,,,,,,,,,,,,,,,,,,,,,,,,,,,,,,,
,,,,,,,,2023-08-16_08h50.31.442,HF_wild_card,2022.2.4,Win32,59.9268892,5cdfb7d5ed552600019dc9f3,64d2fd46c836a06233681665,64dc7f7330f891f885739abf,,,,,,,sngl,resources/Empty.png,resources/DBN.BMP,Door3,0.24537037,-0.00462963,1,0,0,1.0817,optionRight,70,365,1,4,0,4,0,1,,,,,,,,,,,,,,,,,,,,,,,,,,,,,,,,,,,,,,,
,,,,,,,,2023-08-16_08h50.31.442,HF_wild_card,2022.2.4,Win32,59.9268892,5cdfb7d5ed552600019dc9f3,64d2fd46c836a06233681665,64dc7f7330f891f885739abf,,,,,,,ctch,resources/DP.BMP,resources/DR.BMP,Door4,-0.327777757,-0.021296289,1,0,0,1.7468,optionLeft,80,445,1,5,0,5,0,1,,,,,,,,,,,,,,,,,,,,,,,,,,,,,,,,,,,,,,,
,,,,,,,,2023-08-16_08h50.31.442,HF_wild_card,2022.2.4,Win32,59.9268892,5cdfb7d5ed552600019dc9f3,64d2fd46c836a06233681665,64dc7f7330f891f885739abf,,,,,,,decisionTrl,resources/DR.BMP,resources/DG.BMP,Door2,0.26944443,-0.025000007,1,0,0,1.7659,optionRight,40,485,1,6,0,6,0,1,,,,,,,,,,,,,,,,,,,,,,,,,,,,,,,,,,,,,,,
,,,,,,,,2023-08-16_08h50.31.442,HF_wild_card,2022.2.4,Win32,59.9268892,5cdfb7d5ed552600019dc9f3,64d2fd46c836a06233681665,64dc7f7330f891f885739abf,,,,,,,decisionTrl,resources/DY.BMP,resources/DR.BMP,WildCard_Ex,-0.223148134,-0.00462963,1,0,0,1.519,optionLeft,95,580,1,7,0,7,0,1,,,,,,,,,,,,,,,,,,,,,,,,,,,,,,,,,,,,,,,
,,,,,,,,2023-08-16_08h50.31.442,HF_wild_card,2022.2.4,Win32,59.9268892,5cdfb7d5ed552600019dc9f3,64d2fd46c836a06233681665,64dc7f7330f891f885739abf,,,,,,,decisionTrl,resources/DR.BMP,resources/DG.BMP,Door2,0.244444459,-0.014814836,1,0,0,1.6817,optionRight,20,600,1,8,0,8,0,1,,,,,,,,,,,,,,,,,,,,,,,,,,,,,,,,,,,,,,,
,,,,,,,,2023-08-16_08h50.31.442,HF_wild_card,2022.2.4,Win32,59.9268892,5cdfb7d5ed552600019dc9f3,64d2fd46c836a06233681665,64dc7f7330f891f885739abf,,,,,,,decisionTrl,resources/DG.BMP,resources/DR.BMP,Door2,-0.194444444,0.021296289,1,0,0,1.3648,optionLeft,20,620,1,9,0,9,0,1,,,,,,,,,,,,,,,,,,,,,,,,,,,,,,,,,,,,,,,
,,,,,,,,2023-08-16_08h50.31.442,HF_wild_card,2022.2.4,Win32,59.9268892,5cdfb7d5ed552600019dc9f3,64d2fd46c836a06233681665,64dc7f7330f891f885739abf,,,,,,,ctch,resources/DG.BMP,resources/DBN.BMP,Door2,-0.205555527,0.01203703,1,0,0,1.3791,optionLeft,40,660,1,10,0,10,0,1,,,,,,,,,,,,,,,,,,,,,,,,,,,,,,,,,,,,,,,
,,,,,,,,2023-08-16_08h50.31.442,HF_wild_card,2022.2.4,Win32,59.9268892,5cdfb7d5ed552600019dc9f3,64d2fd46c836a06233681665,64dc7f7330f891f885739abf,,,,,,,decisionTrl,resources/DP.BMP,resources/DBN.BMP,Door4,-0.262036995,0.002777771,1,0,0,1.4145,optionLeft,80,740,1,11,0,11,0,1,,,,,,,,,,,,,,,,,,,,,,,,,,,,,,,,,,,,,,,
,,,,,,,,2023-08-16_08h50.31.442,HF_wild_card,2022.2.4,Win32,59.9268892,5cdfb7d5ed552600019dc9f3,64d2fd46c836a06233681665,64dc7f7330f891f885739abf,,,,,,,sngl,resources/Empty.png,resources/DY.BMP,WildCard_Ex,0.202777792,0.035185178,1,0,0,1.4989,optionRight,95,835,1,12,0,12,0,1,,,,,,,,,,,,,,,,,,,,,,,,,,,,,,,,,,,,,,,
,,,,,,,,2023-08-16_08h50.31.442,HF_wild_card,2022.2.4,Win32,59.9268892,5cdfb7d5ed552600019dc9f3,64d2fd46c836a06233681665,64dc7f7330f891f885739abf,,,,,,,decisionTrl,resources/DBN.BMP,resources/DP.BMP,Door4,0.236111111,-0.026851866,1,0,0,1.3818,optionRight,80,915,1,13,0,13,0,1,,,,,,,,,,,,,,,,,,,,,,,,,,,,,,,,,,,,,,,
,,,,,,,,2023-08-16_08h50.31.442,HF_wild_card,2022.2.4,Win32,59.9268892,5cdfb7d5ed552600019dc9f3,64d2fd46c836a06233681665,64dc7f7330f891f885739abf,,,,,,,decisionTrl,resources/DP.BMP,resources/DBN.BMP,Door4,-0.213888875,0.000925912,1,0,0,1.2128,optionLeft,80,995,1,14,0,14,0,1,,,,,,,,,,,,,,,,,,,,,,,,,,,,,,,,,,,,,,,
,,,,,,,,2023-08-16_08h50.31.442,HF_wild_card,2022.2.4,Win32,59.9268892,5cdfb7d5ed552600019dc9f3,64d2fd46c836a06233681665,64dc7f7330f891f885739abf,,,,,,,ctch,resources/DR.BMP,resources/DP.BMP,Door4,0.188888903,-0.022222236,1,0,0,1.2622,optionRight,60,1055,1,15,0,15,0,1,,,,,,,,,,,,,,,,,,,,,,,,,,,,,,,,,,,,,,,
,,,,,,,,2023-08-16_08h50.31.442,HF_wild_card,2022.2.4,Win32,59.9268892,5cdfb7d5ed552600019dc9f3,64d2fd46c836a06233681665,64dc7f7330f891f885739abf,,,,,,,decisionTrl,resources/DG.BMP,resources/DR.BMP,Door2,-0.218518504,0.008333312,1,0,0,1.0477,optionLeft,40,1095,1,16,0,16,0,1,,,,,,,,,,,,,,,,,,,,,,,,,,,,,,,,,,,,,,,
,,,,,,,,2023-08-16_08h50.31.442,HF_wild_card,2022.2.4,Win32,59.9268892,5cdfb7d5ed552600019dc9f3,64d2fd46c836a06233681665,64dc7f7330f891f885739abf,,,,,,,decisionTrl,resources/DY.BMP,resources/DG.BMP,WildCard_Ex,-0.194444444,0.014814801,1,0,0,1.8436,optionLeft,5,1100,1,17,0,17,0,1,,,,,,,,,,,,,,,,,,,,,,,,,,,,,,,,,,,,,,,
,,,,,,,,2023-08-16_08h50.31.442,HF_wild_card,2022.2.4,Win32,59.9268892,5cdfb7d5ed552600019dc9f3,64d2fd46c836a06233681665,64dc7f7330f891f885739abf,,,,,,,decisionTrl,resources/DY.BMP,resources/DBN.BMP,WildCard_Ex,-0.189814815,0.03148146,1,0,0,1.0704,optionLeft,5,1105,1,18,0,18,0,1,,,,,,,,,,,,,,,,,,,,,,,,,,,,,,,,,,,,,,,
,,,,,,,,2023-08-16_08h50.31.442,HF_wild_card,2022.2.4,Win32,59.9268892,5cdfb7d5ed552600019dc9f3,64d2fd46c836a06233681665,64dc7f7330f891f885739abf,,,,,,,decisionTrl,resources/DP.BMP,resources/DBN.BMP,Door4,-0.156481496,0.022222201,1,0,0,1.1321,optionLeft,60,1165,1,19,0,19,0,1,,,,,,,,,,,,,,,,,,,,,,,,,,,,,,,,,,,,,,,
,,,,,,,,2023-08-16_08h50.31.442,HF_wild_card,2022.2.4,Win32,59.9268892,5cdfb7d5ed552600019dc9f3,64d2fd46c836a06233681665,64dc7f7330f891f885739abf,,,,,,,decisionTrl,resources/DBN.BMP,resources/DP.BMP,Door3,-0.214814787,0.032407407,1,0,0,0.9322,optionLeft,70,1235,1,20,0,20,0,1,,,,,,,,,,,,,,,,,,,,,,,,,,,,,,,,,,,,,,,
,,,,,,,,2023-08-16_08h50.31.442,HF_wild_card,2022.2.4,Win32,59.9268892,5cdfb7d5ed552600019dc9f3,64d2fd46c836a06233681665,64dc7f7330f891f885739abf,,,,,,,sngl,resources/Empty.png,resources/DP.BMP,Door4,0.192592621,-0.010185206,1,0,0,1.0635,optionRight,60,1295,1,21,0,21,0,1,,,,,,,,,,,,,,,,,,,,,,,,,,,,,,,,,,,,,,,
,,,,,,,,2023-08-16_08h50.31.442,HF_wild_card,2022.2.4,Win32,59.9268892,5cdfb7d5ed552600019dc9f3,64d2fd46c836a06233681665,64dc7f7330f891f885739abf,,,,,,,sngl,resources/DY.BMP,resources/Empty.png,WildCard_Ex,-0.14444443,0.033333319,1,0,0,0.8979,optionLeft,5,1300,1,22,0,22,0,1,,,,,,,,,,,,,,,,,,,,,,,,,,,,,,,,,,,,,,,
,,,,,,,,2023-08-16_08h50.31.442,HF_wild_card,2022.2.4,Win32,59.9268892,5cdfb7d5ed552600019dc9f3,64d2fd46c836a06233681665,64dc7f7330f891f885739abf,,,,,,,decisionTrl,resources/DR.BMP,resources/DY.BMP,Door1,-0.17777775,-0.001851859,1,0,0,2.116,optionLeft,30,1330,1,23,0,23,0,1,,,,,,,,,,,,,,,,,,,,,,,,,,,,,,,,,,,,,,,
,,,,,,,,2023-08-16_08h50.31.442,HF_wild_card,2022.2.4,Win32,59.9268892,5cdfb7d5ed552600019dc9f3,64d2fd46c836a06233681665,64dc7f7330f891f885739abf,,,,,,,decisionTrl,resources/DG.BMP,resources/DR.BMP,Door1,0.14907406,-0.010185206,1,0,0,1.5798,optionRight,30,1360,1,24,0,24,0,1,,,,,,,,,,,,,,,,,,,,,,,,,,,,,,,,,,,,,,,
,,,,,,,,2023-08-16_08h50.31.442,HF_wild_card,2022.2.4,Win32,59.9268892,5cdfb7d5ed552600019dc9f3,64d2fd46c836a06233681665,64dc7f7330f891f885739abf,,,,,,,decisionTrl,resources/DR.BMP,resources/DG.BMP,Door2,0.148148148,-0.023148148,1,0,0,1.1485,optionRight,40,1400,1,25,0,25,0,1,,,,,,,,,,,,,,,,,,,,,,,,,,,,,,,,,,,,,,,
,,,,,,,,2023-08-16_08h50.31.442,HF_wild_card,2022.2.4,Win32,59.9268892,5cdfb7d5ed552600019dc9f3,64d2fd46c836a06233681665,64dc7f7330f891f885739abf,,,,,,,decisionTrl,resources/DR.BMP,resources/DG.BMP,Door1,-0.183333291,0.003703683,1,0,0,1.3979,optionLeft,30,1430,1,26,0,26,0,1,,,,,,,,,,,,,,,,,,,,,,,,,,,,,,,,,,,,,,,
,,,,,,,,2023-08-16_08h50.31.442,HF_wild_card,2022.2.4,Win32,59.9268892,5cdfb7d5ed552600019dc9f3,64d2fd46c836a06233681665,64dc7f7330f891f885739abf,,,,,,,sngl,resources/Empty.png,resources/DY.BMP,WildCard_Ex,0.152777778,-0.008333347,1,0,0,1.1014,optionRight,5,1435,1,27,0,27,0,1,,,,,,,,,,,,,,,,,,,,,,,,,,,,,,,,,,,,,,,
,,,,,,,,2023-08-16_08h50.31.442,HF_wild_card,2022.2.4,Win32,59.9268892,5cdfb7d5ed552600019dc9f3,64d2fd46c836a06233681665,64dc7f7330f891f885739abf,,,,,,,sngl,resources/Empty.png,resources/DR.BMP,Door1,0.163888931,0.000925912,1,0,0,0.9633,optionRight,30,1465,1,28,0,28,0,1,,,,,,,,,,,,,,,,,,,,,,,,,,,,,,,,,,,,,,,
,,,,,,,,2023-08-16_08h50.31.442,HF_wild_card,2022.2.4,Win32,59.9268892,5cdfb7d5ed552600019dc9f3,64d2fd46c836a06233681665,64dc7f7330f891f885739abf,,,,,,,ctch,resources/DR.BMP,resources/DP.BMP,Door4,0.186111097,-0.028703725,1,0,0,1.237,optionRight,60,1525,1,29,0,29,0,1,,,,,,,,,,,,,,,,,,,,,,,,,,,,,,,,,,,,,,,
,,,,,,,,2023-08-16_08h50.31.442,HF_wild_card,2022.2.4,Win32,59.9268892,5cdfb7d5ed552600019dc9f3,64d2fd46c836a06233681665,64dc7f7330f891f885739abf,,,,,,,decisionTrl,resources/DBN.BMP,resources/DP.BMP,Door3,-0.175925926,0.027777778,1,0,0,1.1143,optionLeft,70,1595,1,30,0,30,0,1,,,,,,,,,,,,,,,,,,,,,,,,,,,,,,,,,,,,,,,
,,,,,,,,2023-08-16_08h50.31.442,HF_wild_card,2022.2.4,Win32,59.9268892,5cdfb7d5ed552600019dc9f3,64d2fd46c836a06233681665,64dc7f7330f891f885739abf,,,,,,,ctch,resources/DG.BMP,resources/DBN.BMP,Door2,-0.178703661,0.003703683,1,0,0,1.3324,optionLeft,20,1615,1,31,0,31,0,1,,,,,,,,,,,,,,,,,,,,,,,,,,,,,,,,,,,,,,,
,,,,,,,,2023-08-16_08h50.31.442,HF_wild_card,2022.2.4,Win32,59.9268892,5cdfb7d5ed552600019dc9f3,64d2fd46c836a06233681665,64dc7f7330f891f885739abf,,,,,,,ctch,resources/DP.BMP,resources/DR.BMP,Door4,-0.148148148,0.006481489,1,0,0,1.2644,optionLeft,80,1695,1,32,0,32,0,1,,,,,,,,,,,,,,,,,,,,,,,,,,,,,,,,,,,,,,,
,,,,,,,,2023-08-16_08h50.31.442,HF_wild_card,2022.2.4,Win32,59.9268892,5cdfb7d5ed552600019dc9f3,64d2fd46c836a06233681665,64dc7f7330f891f885739abf,,,,,,,decisionTrl,resources/DP.BMP,resources/DY.BMP,Door4,-0.15370369,0.01666666,1,0,0,1.0369,optionLeft,60,1755,1,33,0,33,0,1,,,,,,,,,,,,,,,,,,,,,,,,,,,,,,,,,,,,,,,
,,,,,,,,2023-08-16_08h50.31.442,HF_wild_card,2022.2.4,Win32,59.9268892,5cdfb7d5ed552600019dc9f3,64d2fd46c836a06233681665,64dc7f7330f891f885739abf,,,,,,,sngl,resources/DG.BMP,resources/Empty.png,Door2,-0.159259231,0.022222201,1,0,0,0.9291,optionLeft,40,1795,1,34,0,34,0,1,,,,,,,,,,,,,,,,,,,,,,,,,,,,,,,,,,,,,,,
,,,,,,,,2023-08-16_08h50.31.442,HF_wild_card,2022.2.4,Win32,59.9268892,5cdfb7d5ed552600019dc9f3,64d2fd46c836a06233681665,64dc7f7330f891f885739abf,,,,,,,ctch,resources/DBN.BMP,resources/DG.BMP,Door3,-0.290740755,0.049999979,1,0,0,1.1665,optionLeft,70,1865,1,35,0,35,0,1,,,,,,,,,,,,,,,,,,,,,,,,,,,,,,,,,,,,,,,
,,,,,,,,2023-08-16_08h50.31.442,HF_wild_card,2022.2.4,Win32,59.9268892,5cdfb7d5ed552600019dc9f3,64d2fd46c836a06233681665,64dc7f7330f891f885739abf,,,,,,,decisionTrl,resources/DBN.BMP,resources/DP.BMP,Door3,-0.161111125,0.002777771,1,0,0,0.9317,optionLeft,70,1935,1,36,0,36,0,1,,,,,,,,,,,,,,,,,,,,,,,,,,,,,,,,,,,,,,,
,,,,,,,,2023-08-16_08h50.31.442,HF_wild_card,2022.2.4,Win32,59.9268892,5cdfb7d5ed552600019dc9f3,64d2fd46c836a06233681665,64dc7f7330f891f885739abf,,,,,,,decisionTrl,resources/DY.BMP,resources/DP.BMP,WildCard_Ex,-0.140740712,0.022222201,1,0,0,1.1494,optionLeft,5,1940,1,37,0,37,0,1,,,,,,,,,,,,,,,,,,,,,,,,,,,,,,,,,,,,,,,
,,,,,,,,2023-08-16_08h50.31.442,HF_wild_card,2022.2.4,Win32,59.9268892,5cdfb7d5ed552600019dc9f3,64d2fd46c836a06233681665,64dc7f7330f891f885739abf,,,,,,,decisionTrl,resources/DG.BMP,resources/DR.BMP,Door2,-0.212962963,0.012962942,1,0,0,0.9472,optionLeft,40,1980,1,38,0,38,0,1,,,,,,,,,,,,,,,,,,,,,,,,,,,,,,,,,,,,,,,
,,,,,,,,2023-08-16_08h50.31.442,HF_wild_card,2022.2.4,Win32,59.9268892,5cdfb7d5ed552600019dc9f3,64d2fd46c836a06233681665,64dc7f7330f891f885739abf,,,,,,,sngl,resources/Empty.png,resources/DG.BMP,Door2,0.160185213,0.002777771,1,0,0,0.9988,optionRight,20,2000,1,39,0,39,0,1,,,,,,,,,,,,,,,,,,,,,,,,,,,,,,,,,,,,,,,
,,,,,,,,2023-08-16_08h50.31.442,HF_wild_card,2022.2.4,Win32,59.9268892,5cdfb7d5ed552600019dc9f3,64d2fd46c836a06233681665,64dc7f7330f891f885739abf,,,,,,,decisionTrl,resources/DG.BMP,resources/DY.BMP,Door2,-0.145370342,0.025925919,1,0,0,1.6513,optionLeft,40,2040,1,40,0,40,0,1,,,,,,,,,,,,,,,,,,,,,,,,,,,,,,,,,,,,,,,
,,,,,,,,2023-08-16_08h50.31.442,HF_wild_card,2022.2.4,Win32,59.9268892,5cdfb7d5ed552600019dc9f3,64d2fd46c836a06233681665,64dc7f7330f891f885739abf,,,,,,,sngl,resources/DP.BMP,resources/Empty.png,Door4,-0.108333305,0.022222201,1,0,0,0.9125,optionLeft,80,2120,1,41,0,41,0,1,,,,,,,,,,,,,,,,,,,,,,,,,,,,,,,,,,,,,,,
,,,,,,,,2023-08-16_08h50.31.442,HF_wild_card,2022.2.4,Win32,59.9268892,5cdfb7d5ed552600019dc9f3,64d2fd46c836a06233681665,64dc7f7330f891f885739abf,,,,,,,decisionTrl,resources/DBN.BMP,resources/DY.BMP,Door3,-0.169444402,0.02407406,1,0,0,1.1307,optionLeft,70,2190,1,42,0,42,0,1,,,,,,,,,,,,,,,,,,,,,,,,,,,,,,,,,,,,,,,
,,,,,,,,2023-08-16_08h50.31.442,HF_wild_card,2022.2.4,Win32,59.9268892,5cdfb7d5ed552600019dc9f3,64d2fd46c836a06233681665,64dc7f7330f891f885739abf,,,,,,,sngl,resources/DR.BMP,resources/Empty.png,Door1,-0.151851866,-0.002777771,1,0,0,1.0976,optionLeft,30,2220,1,43,0,43,0,1,,,,,,,,,,,,,,,,,,,,,,,,,,,,,,,,,,,,,,,
,,,,,,,,2023-08-16_08h50.31.442,HF_wild_card,2022.2.4,Win32,59.9268892,5cdfb7d5ed552600019dc9f3,64d2fd46c836a06233681665,64dc7f7330f891f885739abf,,,,,,,,,,,,,,,,,,,,,,,,,,0,0,0,0,1,,,,,,,,,,,,,,,,,,,,,,,,,,,,,,,,,,
,,,,,,,,2023-08-16_08h50.31.442,HF_wild_card,2022.2.4,Win32,59.9268892,5cdfb7d5ed552600019dc9f3,64d2fd46c836a06233681665,64dc7f7330f891f885739abf,,,,,,,sngl,resources/Empty.png,resources/DBN.BMP,Door3,0.20648151,-0.082407422,1,0,0,1.5347,optionRight,70,2290,2,0,0,0,0,1,,,,,,,,,,,,,,,,,,,,,,,,,,,,,,,,,,,,,,,
,,,,,,,,2023-08-16_08h50.31.442,HF_wild_card,2022.2.4,Win32,59.9268892,5cdfb7d5ed552600019dc9f3,64d2fd46c836a06233681665,64dc7f7330f891f885739abf,,,,,,,decisionTrl,resources/DG.BMP,resources/DR.BMP,Door2,-0.171296296,-0.044444437,1,0,0,1.2964,optionLeft,20,2310,2,1,0,1,0,1,,,,,,,,,,,,,,,,,,,,,,,,,,,,,,,,,,,,,,,
,,,,,,,,2023-08-16_08h50.31.442,HF_wild_card,2022.2.4,Win32,59.9268892,5cdfb7d5ed552600019dc9f3,64d2fd46c836a06233681665,64dc7f7330f891f885739abf,,,,,,,sngl,resources/Empty.png,resources/DY.BMP,WildCard_Ex,0.165740755,0.000925912,1,0,0,0.8969,optionRight,95,2405,2,2,0,2,0,1,,,,,,,,,,,,,,,,,,,,,,,,,,,,,,,,,,,,,,,
,,,,,,,,2023-08-16_08h50.31.442,HF_wild_card,2022.2.4,Win32,59.9268892,5cdfb7d5ed552600019dc9f3,64d2fd46c836a06233681665,64dc7f7330f891f885739abf,,,,,,,decisionTrl,resources/DP.BMP,resources/DBN.BMP,Door4,-0.214814787,0.006481489,1,0,0,0.9455,optionLeft,80,2485,2,3,0,3,0,1,,,,,,,,,,,,,,,,,,,,,,,,,,,,,,,,,,,,,,,
,,,,,,,,2023-08-16_08h50.31.442,HF_wild_card,2022.2.4,Win32,59.9268892,5cdfb7d5ed552600019dc9f3,64d2fd46c836a06233681665,64dc7f7330f891f885739abf,,,,,,,decisionTrl,resources/DG.BMP,resources/DR.BMP,Door1,0.213888875,0.012962942,1,0,0,1.3153,optionRight,30,2515,2,4,0,4,0,1,,,,,,,,,,,,,,,,,,,,,,,,,,,,,,,,,,,,,,,
,,,,,,,,2023-08-16_08h50.31.442,HF_wild_card,2022.2.4,Win32,59.9268892,5cdfb7d5ed552600019dc9f3,64d2fd46c836a06233681665,64dc7f7330f891f885739abf,,,,,,,decisionTrl,resources/DG.BMP,resources/DR.BMP,Door2,-0.17777775,-0.001851859,1,0,0,0.9152,optionLeft,40,2555,2,5,0,5,0,1,,,,,,,,,,,,,,,,,,,,,,,,,,,,,,,,,,,,,,,
,,,,,,,,2023-08-16_08h50.31.442,HF_wild_card,2022.2.4,Win32,59.9268892,5cdfb7d5ed552600019dc9f3,64d2fd46c836a06233681665,64dc7f7330f891f885739abf,,,,,,,decisionTrl,resources/DR.BMP,resources/DG.BMP,Door1,-0.227777764,-0.025000007,1,0,0,1.399,optionLeft,30,2585,2,6,0,6,0,1,,,,,,,,,,,,,,,,,,,,,,,,,,,,,,,,,,,,,,,
,,,,,,,,2023-08-16_08h50.31.442,HF_wild_card,2022.2.4,Win32,59.9268892,5cdfb7d5ed552600019dc9f3,64d2fd46c836a06233681665,64dc7f7330f891f885739abf,,,,,,,decisionTrl,resources/DBN.BMP,resources/DP.BMP,Door4,0.159259302,-0.021296289,1,0,0,1.382,optionRight,60,2645,2,7,0,7,0,1,,,,,,,,,,,,,,,,,,,,,,,,,,,,,,,,,,,,,,,
,,,,,,,,2023-08-16_08h50.31.442,HF_wild_card,2022.2.4,Win32,59.9268892,5cdfb7d5ed552600019dc9f3,64d2fd46c836a06233681665,64dc7f7330f891f885739abf,,,,,,,sngl,resources/DBN.BMP,resources/Empty.png,Door3,-0.202777792,0.022222201,1,0,0,0.9652,optionLeft,70,2715,2,8,0,8,0,1,,,,,,,,,,,,,,,,,,,,,,,,,,,,,,,,,,,,,,,
,,,,,,,,2023-08-16_08h50.31.442,HF_wild_card,2022.2.4,Win32,59.9268892,5cdfb7d5ed552600019dc9f3,64d2fd46c836a06233681665,64dc7f7330f891f885739abf,,,,,,,sngl,resources/DY.BMP,resources/Empty.png,WildCard_Ex,-0.203703704,0.044444437,1,0,0,0.914,optionLeft,95,2810,2,9,0,9,0,1,,,,,,,,,,,,,,,,,,,,,,,,,,,,,,,,,,,,,,,
,,,,,,,,2023-08-16_08h50.31.442,HF_wild_card,2022.2.4,Win32,59.9268892,5cdfb7d5ed552600019dc9f3,64d2fd46c836a06233681665,64dc7f7330f891f885739abf,,,,,,,decisionTrl,resources/DP.BMP,resources/DY.BMP,WildCard_Ex,0.152777778,0.01944443,1,0,0,0.9981,optionRight,5,2815,2,10,0,10,0,1,,,,,,,,,,,,,,,,,,,,,,,,,,,,,,,,,,,,,,,
,,,,,,,,2023-08-16_08h50.31.442,HF_wild_card,2022.2.4,Win32,59.9268892,5cdfb7d5ed552600019dc9f3,64d2fd46c836a06233681665,64dc7f7330f891f885739abf,,,,,,,ctch,resources/DR.BMP,resources/DP.BMP,Door1,-0.200925898,-0.011111118,1,0,0,1.1153,optionLeft,30,2845,2,11,0,11,0,1,,,,,,,,,,,,,,,,,,,,,,,,,,,,,,,,,,,,,,,
,,,,,,,,2023-08-16_08h50.31.442,HF_wild_card,2022.2.4,Win32,59.9268892,5cdfb7d5ed552600019dc9f3,64d2fd46c836a06233681665,64dc7f7330f891f885739abf,,,,,,,decisionTrl,resources/DR.BMP,resources/DY.BMP,WildCard_Ex,0.178703732,-0.0074074,1,0,0,1.1984,optionRight,5,2850,2,12,0,12,0,1,,,,,,,,,,,,,,,,,,,,,,,,,,,,,,,,,,,,,,,
,,,,,,,,2023-08-16_08h50.31.442,HF_wild_card,2022.2.4,Win32,59.9268892,5cdfb7d5ed552600019dc9f3,64d2fd46c836a06233681665,64dc7f7330f891f885739abf,,,,,,,decisionTrl,resources/DR.BMP,resources/DG.BMP,Door1,-0.226851852,-0.023148148,1,0,0,0.9646,optionLeft,30,2880,2,13,0,13,0,1,,,,,,,,,,,,,,,,,,,,,,,,,,,,,,,,,,,,,,,
,,,,,,,,2023-08-16_08h50.31.442,HF_wild_card,2022.2.4,Win32,59.9268892,5cdfb7d5ed552600019dc9f3,64d2fd46c836a06233681665,64dc7f7330f891f885739abf,,,,,,,ctch,resources/DG.BMP,resources/DBN.BMP,Door2,-0.243518476,0.005555541,1,0,0,0.9813,optionLeft,40,2920,2,14,0,14,0,1,,,,,,,,,,,,,,,,,,,,,,,,,,,,,,,,,,,,,,,
,,,,,,,,2023-08-16_08h50.31.442,HF_wild_card,2022.2.4,Win32,59.9268892,5cdfb7d5ed552600019dc9f3,64d2fd46c836a06233681665,64dc7f7330f891f885739abf,,,,,,,decisionTrl,resources/DBN.BMP,resources/DP.BMP,Door4,0.195370356,-0.038888896,1,0,0,1.2816,optionRight,80,3000,2,15,0,15,0,1,,,,,,,,,,,,,,,,,,,,,,,,,,,,,,,,,,,,,,,
,,,,,,,,2023-08-16_08h50.31.442,HF_wild_card,2022.2.4,Win32,59.9268892,5cdfb7d5ed552600019dc9f3,64d2fd46c836a06233681665,64dc7f7330f891f885739abf,,,,,,,ctch,resources/DG.BMP,resources/DBN.BMP,Door3,0.212037051,-0.044444437,1,0,0,1.2652,optionRight,70,3070,2,16,0,16,0,1,,,,,,,,,,,,,,,,,,,,,,,,,,,,,,,,,,,,,,,
,,,,,,,,2023-08-16_08h50.31.442,HF_wild_card,2022.2.4,Win32,59.9268892,5cdfb7d5ed552600019dc9f3,64d2fd46c836a06233681665,64dc7f7330f891f885739abf,,,,,,,decisionTrl,resources/DP.BMP,resources/DBN.BMP,Door3,0.213888875,-0.0074074,1,0,0,1.115,optionRight,70,3140,2,17,0,17,0,1,,,,,,,,,,,,,,,,,,,,,,,,,,,,,,,,,,,,,,,
,,,,,,,,2023-08-16_08h50.31.442,HF_wild_card,2022.2.4,Win32,59.9268892,5cdfb7d5ed552600019dc9f3,64d2fd46c836a06233681665,64dc7f7330f891f885739abf,,,,,,,ctch,resources/DBN.BMP,resources/DG.BMP,Door3,-0.209259245,-0.000925947,1,0,0,1.248,optionLeft,70,3210,2,18,0,18,0,1,,,,,,,,,,,,,,,,,,,,,,,,,,,,,,,,,,,,,,,
,,,,,,,,2023-08-16_08h50.31.442,HF_wild_card,2022.2.4,Win32,59.9268892,5cdfb7d5ed552600019dc9f3,64d2fd46c836a06233681665,64dc7f7330f891f885739abf,,,,,,,decisionTrl,resources/DP.BMP,resources/DBN.BMP,Door4,-0.183333291,0.010185171,1,0,0,0.8978,optionLeft,80,3290,2,19,0,19,0,1,,,,,,,,,,,,,,,,,,,,,,,,,,,,,,,,,,,,,,,
,,,,,,,,2023-08-16_08h50.31.442,HF_wild_card,2022.2.4,Win32,59.9268892,5cdfb7d5ed552600019dc9f3,64d2fd46c836a06233681665,64dc7f7330f891f885739abf,,,,,,,sngl,resources/Empty.png,resources/DP.BMP,Door4,0.139814801,0.000925912,1,0,0,1.1131,optionRight,80,3370,2,20,0,20,0,1,,,,,,,,,,,,,,,,,,,,,,,,,,,,,,,,,,,,,,,
,,,,,,,,2023-08-16_08h50.31.442,HF_wild_card,2022.2.4,Win32,59.9268892,5cdfb7d5ed552600019dc9f3,64d2fd46c836a06233681665,64dc7f7330f891f885739abf,,,,,,,decisionTrl,resources/DR.BMP,resources/DG.BMP,Door2,0.162962949,0.009259259,1,0,0,1.8458,optionRight,20,3390,2,21,0,21,0,1,,,,,,,,,,,,,,,,,,,,,,,,,,,,,,,,,,,,,,,
,,,,,,,,2023-08-16_08h50.31.442,HF_wild_card,2022.2.4,Win32,59.9268892,5cdfb7d5ed552600019dc9f3,64d2fd46c836a06233681665,64dc7f7330f891f885739abf,,,,,,,sngl,resources/Empty.png,resources/DR.BMP,Door1,0.207407422,-0.015740748,1,0,0,1.0293,optionRight,30,3420,2,22,0,22,0,1,,,,,,,,,,,,,,,,,,,,,,,,,,,,,,,,,,,,,,,
,,,,,,,,2023-08-16_08h50.31.442,HF_wild_card,2022.2.4,Win32,59.9268892,5cdfb7d5ed552600019dc9f3,64d2fd46c836a06233681665,64dc7f7330f891f885739abf,,,,,,,decisionTrl,resources/DR.BMP,resources/DG.BMP,Door1,-0.187962921,-0.012962977,1,0,0,1.0465,optionLeft,30,3450,2,23,0,23,0,1,,,,,,,,,,,,,,,,,,,,,,,,,,,,,,,,,,,,,,,
,,,,,,,,2023-08-16_08h50.31.442,HF_wild_card,2022.2.4,Win32,59.9268892,5cdfb7d5ed552600019dc9f3,64d2fd46c836a06233681665,64dc7f7330f891f885739abf,,,,,,,decisionTrl,resources/DBN.BMP,resources/DP.BMP,Door4,0.223148134,-0.014814836,1,0,0,1.0962,optionRight,60,3510,2,24,0,24,0,1,,,,,,,,,,,,,,,,,,,,,,,,,,,,,,,,,,,,,,,
,,,,,,,,2023-08-16_08h50.31.442,HF_wild_card,2022.2.4,Win32,59.9268892,5cdfb7d5ed552600019dc9f3,64d2fd46c836a06233681665,64dc7f7330f891f885739abf,,,,,,,decisionTrl,resources/DY.BMP,resources/DG.BMP,WildCard_Ex,-0.159259231,0.000925912,1,0,0,1.6975,optionLeft,95,3605,2,25,0,25,0,1,,,,,,,,,,,,,,,,,,,,,,,,,,,,,,,,,,,,,,,
,,,,,,,,2023-08-16_08h50.31.442,HF_wild_card,2022.2.4,Win32,59.9268892,5cdfb7d5ed552600019dc9f3,64d2fd46c836a06233681665,64dc7f7330f891f885739abf,,,,,,,sngl,resources/DY.BMP,resources/Empty.png,WildCard_Ex,-0.147222236,0.020370377,1,0,0,0.8967,optionLeft,5,3610,2,26,0,26,0,1,,,,,,,,,,,,,,,,,,,,,,,,,,,,,,,,,,,,,,,
,,,,,,,,2023-08-16_08h50.31.442,HF_wild_card,2022.2.4,Win32,59.9268892,5cdfb7d5ed552600019dc9f3,64d2fd46c836a06233681665,64dc7f7330f891f885739abf,,,,,,,decisionTrl,resources/DG.BMP,resources/DR.BMP,Door1,0.222222222,-0.002777771,1,0,0,1.4963,optionRight,30,3640,2,27,0,27,0,1,,,,,,,,,,,,,,,,,,,,,,,,,,,,,,,,,,,,,,,
,,,,,,,,2023-08-16_08h50.31.442,HF_wild_card,2022.2.4,Win32,59.9268892,5cdfb7d5ed552600019dc9f3,64d2fd46c836a06233681665,64dc7f7330f891f885739abf,,,,,,,sngl,resources/DG.BMP,resources/Empty.png,Door2,-0.212037051,0.042592578,1,0,0,0.9128,optionLeft,20,3660,2,28,0,28,0,1,,,,,,,,,,,,,,,,,,,,,,,,,,,,,,,,,,,,,,,
,,,,,,,,2023-08-16_08h50.31.442,HF_wild_card,2022.2.4,Win32,59.9268892,5cdfb7d5ed552600019dc9f3,64d2fd46c836a06233681665,64dc7f7330f891f885739abf,,,,,,,sngl,resources/DP.BMP,resources/Empty.png,Door4,-0.164814772,0.037037037,1,0,0,0.9128,optionLeft,60,3720,2,29,0,29,0,1,,,,,,,,,,,,,,,,,,,,,,,,,,,,,,,,,,,,,,,
,,,,,,,,2023-08-16_08h50.31.442,HF_wild_card,2022.2.4,Win32,59.9268892,5cdfb7d5ed552600019dc9f3,64d2fd46c836a06233681665,64dc7f7330f891f885739abf,,,,,,,decisionTrl,resources/DY.BMP,resources/DBN.BMP,WildCard_Ex,-0.207407422,0.006481489,1,0,0,1.1304,optionLeft,95,3815,2,30,0,30,0,1,,,,,,,,,,,,,,,,,,,,,,,,,,,,,,,,,,,,,,,
,,,,,,,,2023-08-16_08h50.31.442,HF_wild_card,2022.2.4,Win32,59.9268892,5cdfb7d5ed552600019dc9f3,64d2fd46c836a06233681665,64dc7f7330f891f885739abf,,,,,,,decisionTrl,resources/DBN.BMP,resources/DY.BMP,WildCard_Ex,0.137962977,-0.001851859,1,0,0,0.9961,optionRight,5,3820,2,31,0,31,0,1,,,,,,,,,,,,,,,,,,,,,,,,,,,,,,,,,,,,,,,
,,,,,,,,2023-08-16_08h50.31.442,HF_wild_card,2022.2.4,Win32,59.9268892,5cdfb7d5ed552600019dc9f3,64d2fd46c836a06233681665,64dc7f7330f891f885739abf,,,,,,,sngl,resources/Empty.png,resources/DY.BMP,WildCard_Ex,0.136111153,-0.001851859,1,0,0,1.0138,optionRight,5,3825,2,32,0,32,0,1,,,,,,,,,,,,,,,,,,,,,,,,,,,,,,,,,,,,,,,
,,,,,,,,2023-08-16_08h50.31.442,HF_wild_card,2022.2.4,Win32,59.9268892,5cdfb7d5ed552600019dc9f3,64d2fd46c836a06233681665,64dc7f7330f891f885739abf,,,,,,,decisionTrl,resources/DBN.BMP,resources/DP.BMP,Door4,0.142592607,-0.031481496,1,0,0,2.2152,optionRight,60,3885,2,33,0,33,0,1,,,,,,,,,,,,,,,,,,,,,,,,,,,,,,,,,,,,,,,
,,,,,,,,2023-08-16_08h50.31.442,HF_wild_card,2022.2.4,Win32,59.9268892,5cdfb7d5ed552600019dc9f3,64d2fd46c836a06233681665,64dc7f7330f891f885739abf,,,,,,,ctch,resources/DBN.BMP,resources/DG.BMP,Door3,-0.204629616,0.003703683,1,0,0,0.946,optionLeft,70,3955,2,34,0,34,0,1,,,,,,,,,,,,,,,,,,,,,,,,,,,,,,,,,,,,,,,
,,,,,,,,2023-08-16_08h50.31.442,HF_wild_card,2022.2.4,Win32,59.9268892,5cdfb7d5ed552600019dc9f3,64d2fd46c836a06233681665,64dc7f7330f891f885739abf,,,,,,,decisionTrl,resources/DP.BMP,resources/DBN.BMP,Door4,-0.175925926,-0.00462963,1,0,0,1.0465,optionLeft,60,4015,2,35,0,35,0,1,,,,,,,,,,,,,,,,,,,,,,,,,,,,,,,,,,,,,,,
,,,,,,,,2023-08-16_08h50.31.442,HF_wild_card,2022.2.4,Win32,59.9268892,5cdfb7d5ed552600019dc9f3,64d2fd46c836a06233681665,64dc7f7330f891f885739abf,,,,,,,decisionTrl,resources/DY.BMP,resources/DP.BMP,Door4,0.267592607,-0.027777778,1,0,0,0.9797,optionRight,80,4095,2,36,0,36,0,1,,,,,,,,,,,,,,,,,,,,,,,,,,,,,,,,,,,,,,,
,,,,,,,,2023-08-16_08h50.31.442,HF_wild_card,2022.2.4,Win32,59.9268892,5cdfb7d5ed552600019dc9f3,64d2fd46c836a06233681665,64dc7f7330f891f885739abf,,,,,,,ctch,resources/DR.BMP,resources/DP.BMP,Door4,0.186111097,-0.001851859,1,0,0,0.9808,optionRight,60,4155,2,37,0,37,0,1,,,,,,,,,,,,,,,,,,,,,,,,,,,,,,,,,,,,,,,
,,,,,,,,2023-08-16_08h50.31.442,HF_wild_card,2022.2.4,Win32,59.9268892,5cdfb7d5ed552600019dc9f3,64d2fd46c836a06233681665,64dc7f7330f891f885739abf,,,,,,,decisionTrl,resources/DY.BMP,resources/DR.BMP,WildCard_Ex,-0.193518533,0.022222201,1,0,0,1.0462,optionLeft,5,4160,2,38,0,38,0,1,,,,,,,,,,,,,,,,,,,,,,,,,,,,,,,,,,,,,,,
,,,,,,,,2023-08-16_08h50.31.442,HF_wild_card,2022.2.4,Win32,59.9268892,5cdfb7d5ed552600019dc9f3,64d2fd46c836a06233681665,64dc7f7330f891f885739abf,,,,,,,decisionTrl,resources/DG.BMP,resources/DY.BMP,WildCard_Ex,0.174074102,-0.005555577,1,0,0,0.9483,optionRight,5,4165,2,39,0,39,0,1,,,,,,,,,,,,,,,,,,,,,,,,,,,,,,,,,,,,,,,
,,,,,,,,2023-08-16_08h50.31.442,HF_wild_card,2022.2.4,Win32,59.9268892,5cdfb7d5ed552600019dc9f3,64d2fd46c836a06233681665,64dc7f7330f891f885739abf,,,,,,,sngl,resources/DR.BMP,resources/Empty.png,Door1,-0.237037023,0.011111118,1,0,0,0.8381,optionLeft,30,4195,2,40,0,40,0,1,,,,,,,,,,,,,,,,,,,,,,,,,,,,,,,,,,,,,,,
,,,,,,,,2023-08-16_08h50.31.442,HF_wild_card,2022.2.4,Win32,59.9268892,5cdfb7d5ed552600019dc9f3,64d2fd46c836a06233681665,64dc7f7330f891f885739abf,,,,,,,ctch,resources/DP.BMP,resources/DR.BMP,Door4,-0.170370384,-0.008333347,1,0,0,1.4379,optionLeft,60,4255,2,41,0,41,0,1,,,,,,,,,,,,,,,,,,,,,,,,,,,,,,,,,,,,,,,
,,,,,,,,2023-08-16_08h50.31.442,HF_wild_card,2022.2.4,Win32,59.9268892,5cdfb7d5ed552600019dc9f3,64d2fd46c836a06233681665,64dc7f7330f891f885739abf,,,,,,,sngl,resources/Empty.png,resources/DG.BMP,Door2,0.170370384,0.017592571,1,0,0,0.8959,optionRight,40,4295,2,42,0,42,0,1,,,,,,,,,,,,,,,,,,,,,,,,,,,,,,,,,,,,,,,
,,,,,,,,2023-08-16_08h50.31.442,HF_wild_card,2022.2.4,Win32,59.9268892,5cdfb7d5ed552600019dc9f3,64d2fd46c836a06233681665,64dc7f7330f891f885739abf,,,,,,,ctch,resources/DP.BMP,resources/DR.BMP,Door4,-0.200925898,0.01203703,1,0,0,1.0501,optionLeft,80,4375,2,43,0,43,0,1,,,,,,,,,,,,,,,,,,,,,,,,,,,,,,,,,,,,,,,
,,,,,,,,2023-08-16_08h50.31.442,HF_wild_card,2022.2.4,Win32,59.9268892,5cdfb7d5ed552600019dc9f3,64d2fd46c836a06233681665,64dc7f7330f891f885739abf,,,,,,,,,,,,,,,,,,,,,,,,,,1,0,1,0,1,,,,,,,,,,,,,,,,,,,,,,,,,,,,,,,,,,
,,,,,,,,2023-08-16_08h50.31.442,HF_wild_card,2022.2.4,Win32,59.9268892,5cdfb7d5ed552600019dc9f3,64d2fd46c836a06233681665,64dc7f7330f891f885739abf,,,,,,,decisionTrl,resources/DR.BMP,resources/DG.BMP,Door1,-0.206481439,-0.094444487,1,0,0,1.1187,optionLeft,30,4405,3,0,0,0,0,1,,,,,,,,,,,,,,,,,,,,,,,,,,,,,,,,,,,,,,,
,,,,,,,,2023-08-16_08h50.31.442,HF_wild_card,2022.2.4,Win32,59.9268892,5cdfb7d5ed552600019dc9f3,64d2fd46c836a06233681665,64dc7f7330f891f885739abf,,,,,,,sngl,resources/Empty.png,resources/DBN.BMP,Door3,0.207407422,-0.038888896,1,0,0,0.8315,optionRight,70,4475,3,1,0,1,0,1,,,,,,,,,,,,,,,,,,,,,,,,,,,,,,,,,,,,,,,
,,,,,,,,2023-08-16_08h50.31.442,HF_wild_card,2022.2.4,Win32,59.9268892,5cdfb7d5ed552600019dc9f3,64d2fd46c836a06233681665,64dc7f7330f891f885739abf,,,,,,,sngl,resources/DR.BMP,resources/Empty.png,Door1,-0.219444416,-0.013888889,1,0,0,0.8454,optionLeft,30,4505,3,2,0,2,0,1,,,,,,,,,,,,,,,,,,,,,,,,,,,,,,,,,,,,,,,
,,,,,,,,2023-08-16_08h50.31.442,HF_wild_card,2022.2.4,Win32,59.9268892,5cdfb7d5ed552600019dc9f3,64d2fd46c836a06233681665,64dc7f7330f891f885739abf,,,,,,,decisionTrl,resources/DP.BMP,resources/DBN.BMP,Door4,-0.25,-0.0074074,1,0,0,1.0813,optionLeft,60,4565,3,3,0,3,0,1,,,,,,,,,,,,,,,,,,,,,,,,,,,,,,,,,,,,,,,
,,,,,,,,2023-08-16_08h50.31.442,HF_wild_card,2022.2.4,Win32,59.9268892,5cdfb7d5ed552600019dc9f3,64d2fd46c836a06233681665,64dc7f7330f891f885739abf,,,,,,,sngl,resources/Empty.png,resources/DR.BMP,Door1,0.189814815,-0.018518519,1,0,0,0.8481,optionRight,30,4595,3,4,0,4,0,1,,,,,,,,,,,,,,,,,,,,,,,,,,,,,,,,,,,,,,,
,,,,,,,,2023-08-16_08h50.31.442,HF_wild_card,2022.2.4,Win32,59.9268892,5cdfb7d5ed552600019dc9f3,64d2fd46c836a06233681665,64dc7f7330f891f885739abf,,,,,,,decisionTrl,resources/DBN.BMP,resources/DP.BMP,Door3,-0.215740698,0.01203703,1,0,0,1.1461,optionLeft,70,4665,3,5,0,5,0,1,,,,,,,,,,,,,,,,,,,,,,,,,,,,,,,,,,,,,,,
,,,,,,,,2023-08-16_08h50.31.442,HF_wild_card,2022.2.4,Win32,59.9268892,5cdfb7d5ed552600019dc9f3,64d2fd46c836a06233681665,64dc7f7330f891f885739abf,,,,,,,ctch,resources/DP.BMP,resources/DR.BMP,Door4,-0.29351849,0.025000007,1,0,0,0.9967,optionLeft,80,4745,3,6,0,6,0,1,,,,,,,,,,,,,,,,,,,,,,,,,,,,,,,,,,,,,,,
,,,,,,,,2023-08-16_08h50.31.442,HF_wild_card,2022.2.4,Win32,59.9268892,5cdfb7d5ed552600019dc9f3,64d2fd46c836a06233681665,64dc7f7330f891f885739abf,,,,,,,decisionTrl,resources/DP.BMP,resources/DBN.BMP,Door4,-0.247222194,0.021296289,1,0,0,0.9789,optionLeft,80,4825,3,7,0,7,0,1,,,,,,,,,,,,,,,,,,,,,,,,,,,,,,,,,,,,,,,
,,,,,,,,2023-08-16_08h50.31.442,HF_wild_card,2022.2.4,Win32,59.9268892,5cdfb7d5ed552600019dc9f3,64d2fd46c836a06233681665,64dc7f7330f891f885739abf,,,,,,,ctch,resources/DBN.BMP,resources/DG.BMP,Door3,-0.244444459,-0.013888889,1,0,0,1.247,optionLeft,70,4895,3,8,0,8,0,1,,,,,,,,,,,,,,,,,,,,,,,,,,,,,,,,,,,,,,,
,,,,,,,,2023-08-16_08h50.31.442,HF_wild_card,2022.2.4,Win32,59.9268892,5cdfb7d5ed552600019dc9f3,64d2fd46c836a06233681665,64dc7f7330f891f885739abf,,,,,,,sngl,resources/Empty.png,resources/DP.BMP,Door4,0.178703732,-0.032407407,1,0,0,0.9628,optionRight,60,4955,3,9,0,9,0,1,,,,,,,,,,,,,,,,,,,,,,,,,,,,,,,,,,,,,,,
,,,,,,,,2023-08-16_08h50.31.442,HF_wild_card,2022.2.4,Win32,59.9268892,5cdfb7d5ed552600019dc9f3,64d2fd46c836a06233681665,64dc7f7330f891f885739abf,,,,,,,decisionTrl,resources/DG.BMP,resources/DR.BMP,Door2,-0.27870369,0.008333312,1,0,0,1.0899,optionLeft,20,4975,3,10,0,10,0,1,,,,,,,,,,,,,,,,,,,,,,,,,,,,,,,,,,,,,,,
,,,,,,,,2023-08-16_08h50.31.442,HF_wild_card,2022.2.4,Win32,59.9268892,5cdfb7d5ed552600019dc9f3,64d2fd46c836a06233681665,64dc7f7330f891f885739abf,,,,,,,decisionTrl,resources/DY.BMP,resources/DBN.BMP,WildCard_Ex,-0.272222236,0,1,0,0,1.1961,optionLeft,5,4980,3,11,0,11,0,1,,,,,,,,,,,,,,,,,,,,,,,,,,,,,,,,,,,,,,,
,,,,,,,,2023-08-16_08h50.31.442,HF_wild_card,2022.2.4,Win32,59.9268892,5cdfb7d5ed552600019dc9f3,64d2fd46c836a06233681665,64dc7f7330f891f885739abf,,,,,,,ctch,resources/DBN.BMP,resources/DG.BMP,Door3,-0.200925898,0.020370377,1,0,0,1.2132,optionLeft,70,5050,3,12,0,12,0,1,,,,,,,,,,,,,,,,,,,,,,,,,,,,,,,,,,,,,,,
,,,,,,,,2023-08-16_08h50.31.442,HF_wild_card,2022.2.4,Win32,59.9268892,5cdfb7d5ed552600019dc9f3,64d2fd46c836a06233681665,64dc7f7330f891f885739abf,,,,,,,sngl,resources/DY.BMP,resources/Empty.png,WildCard_Ex,-0.203703704,0.027777778,1,0,0,0.8962,optionLeft,95,5145,3,13,0,13,0,1,,,,,,,,,,,,,,,,,,,,,,,,,,,,,,,,,,,,,,,
,,,,,,,,2023-08-16_08h50.31.442,HF_wild_card,2022.2.4,Win32,59.9268892,5cdfb7d5ed552600019dc9f3,64d2fd46c836a06233681665,64dc7f7330f891f885739abf,,,,,,,decisionTrl,resources/DBN.BMP,resources/DP.BMP,Door4,0.187037079,-0.023148148,1,0,0,1.1809,optionRight,60,5205,3,14,0,14,0,1,,,,,,,,,,,,,,,,,,,,,,,,,,,,,,,,,,,,,,,
,,,,,,,,2023-08-16_08h50.31.442,HF_wild_card,2022.2.4,Win32,59.9268892,5cdfb7d5ed552600019dc9f3,64d2fd46c836a06233681665,64dc7f7330f891f885739abf,,,,,,,decisionTrl,resources/DBN.BMP,resources/DP.BMP,Door3,-0.237962935,-0.010185206,1,0,0,1.0966,optionLeft,70,5275,3,15,0,15,0,1,,,,,,,,,,,,,,,,,,,,,,,,,,,,,,,,,,,,,,,
,,,,,,,,2023-08-16_08h50.31.442,HF_wild_card,2022.2.4,Win32,59.9268892,5cdfb7d5ed552600019dc9f3,64d2fd46c836a06233681665,64dc7f7330f891f885739abf,,,,,,,sngl,resources/Empty.png,resources/DG.BMP,Door2,0.178703732,-0.010185206,1,0,0,0.9621,optionRight,20,5295,3,16,0,16,0,1,,,,,,,,,,,,,,,,,,,,,,,,,,,,,,,,,,,,,,,
,,,,,,,,2023-08-16_08h50.31.442,HF_wild_card,2022.2.4,Win32,59.9268892,5cdfb7d5ed552600019dc9f3,64d2fd46c836a06233681665,64dc7f7330f891f885739abf,,,,,,,decisionTrl,resources/DY.BMP,resources/DP.BMP,WildCard_Ex,-0.188888903,-0.025000007,1,0,0,1.2622,optionLeft,5,5300,3,17,0,17,0,1,,,,,,,,,,,,,,,,,,,,,,,,,,,,,,,,,,,,,,,
,,,,,,,,2023-08-16_08h50.31.442,HF_wild_card,2022.2.4,Win32,59.9268892,5cdfb7d5ed552600019dc9f3,64d2fd46c836a06233681665,64dc7f7330f891f885739abf,,,,,,,sngl,resources/DY.BMP,resources/Empty.png,WildCard_Ex,-0.147222236,0.009259259,1,0,0,0.8307,optionLeft,5,5305,3,18,0,18,0,1,,,,,,,,,,,,,,,,,,,,,,,,,,,,,,,,,,,,,,,
,,,,,,,,2023-08-16_08h50.31.442,HF_wild_card,2022.2.4,Win32,59.9268892,5cdfb7d5ed552600019dc9f3,64d2fd46c836a06233681665,64dc7f7330f891f885739abf,,,,,,,decisionTrl,resources/DBN.BMP,resources/DP.BMP,Door3,-0.158333319,0.008333312,1,0,0,1.0473,optionLeft,70,5375,3,19,0,19,0,1,,,,,,,,,,,,,,,,,,,,,,,,,,,,,,,,,,,,,,,
,,,,,,,,2023-08-16_08h50.31.442,HF_wild_card,2022.2.4,Win32,59.9268892,5cdfb7d5ed552600019dc9f3,64d2fd46c836a06233681665,64dc7f7330f891f885739abf,,,,,,,decisionTrl,resources/DG.BMP,resources/DR.BMP,Door1,0.157407407,0.00462963,1,0,0,1.2634,optionRight,30,5405,3,20,0,20,0,1,,,,,,,,,,,,,,,,,,,,,,,,,,,,,,,,,,,,,,,
,,,,,,,,2023-08-16_08h50.31.442,HF_wild_card,2022.2.4,Win32,59.9268892,5cdfb7d5ed552600019dc9f3,64d2fd46c836a06233681665,64dc7f7330f891f885739abf,,,,,,,decisionTrl,resources/DY.BMP,resources/DG.BMP,Door2,0.134259259,0.022222201,1,0,0,1.6821,optionRight,20,5425,3,21,0,21,0,1,,,,,,,,,,,,,,,,,,,,,,,,,,,,,,,,,,,,,,,
,,,,,,,,2023-08-16_08h50.31.442,HF_wild_card,2022.2.4,Win32,59.9268892,5cdfb7d5ed552600019dc9f3,64d2fd46c836a06233681665,64dc7f7330f891f885739abf,,,,,,,ctch,resources/DG.BMP,resources/DBN.BMP,Door3,0.125,-0.01203703,1,0,0,1.1804,optionRight,70,5495,3,22,0,22,0,1,,,,,,,,,,,,,,,,,,,,,,,,,,,,,,,,,,,,,,,
,,,,,,,,2023-08-16_08h50.31.442,HF_wild_card,2022.2.4,Win32,59.9268892,5cdfb7d5ed552600019dc9f3,64d2fd46c836a06233681665,64dc7f7330f891f885739abf,,,,,,,decisionTrl,resources/DG.BMP,resources/DR.BMP,Door1,0.164814843,0.010185171,1,0,0,1.5479,optionRight,30,5525,3,23,0,23,0,1,,,,,,,,,,,,,,,,,,,,,,,,,,,,,,,,,,,,,,,
,,,,,,,,2023-08-16_08h50.31.442,HF_wild_card,2022.2.4,Win32,59.9268892,5cdfb7d5ed552600019dc9f3,64d2fd46c836a06233681665,64dc7f7330f891f885739abf,,,,,,,decisionTrl,resources/DR.BMP,resources/DG.BMP,Door1,-0.136111083,0.008333312,1,0,0,1.2314,optionLeft,30,5555,3,24,0,24,0,1,,,,,,,,,,,,,,,,,,,,,,,,,,,,,,,,,,,,,,,
,,,,,,,,2023-08-16_08h50.31.442,HF_wild_card,2022.2.4,Win32,59.9268892,5cdfb7d5ed552600019dc9f3,64d2fd46c836a06233681665,64dc7f7330f891f885739abf,,,,,,,ctch,resources/DP.BMP,resources/DR.BMP,Door4,-0.191666638,-0.021296289,1,0,0,0.996,optionLeft,80,5635,3,25,0,25,0,1,,,,,,,,,,,,,,,,,,,,,,,,,,,,,,,,,,,,,,,
,,,,,,,,2023-08-16_08h50.31.442,HF_wild_card,2022.2.4,Win32,59.9268892,5cdfb7d5ed552600019dc9f3,64d2fd46c836a06233681665,64dc7f7330f891f885739abf,,,,,,,decisionTrl,resources/DR.BMP,resources/DG.BMP,Door2,0.213888875,-0.002777771,1,0,0,1.1139,optionRight,40,5675,3,26,0,26,0,1,,,,,,,,,,,,,,,,,,,,,,,,,,,,,,,,,,,,,,,
,,,,,,,,2023-08-16_08h50.31.442,HF_wild_card,2022.2.4,Win32,59.9268892,5cdfb7d5ed552600019dc9f3,64d2fd46c836a06233681665,64dc7f7330f891f885739abf,,,,,,,decisionTrl,resources/DP.BMP,resources/DBN.BMP,Door4,-0.213888875,-0.001851859,1,0,0,0.9943,optionLeft,60,5735,3,27,0,27,0,1,,,,,,,,,,,,,,,,,,,,,,,,,,,,,,,,,,,,,,,
,,,,,,,,2023-08-16_08h50.31.442,HF_wild_card,2022.2.4,Win32,59.9268892,5cdfb7d5ed552600019dc9f3,64d2fd46c836a06233681665,64dc7f7330f891f885739abf,,,,,,,sngl,resources/DP.BMP,resources/Empty.png,Door4,-0.15370369,-0.0074074,1,0,0,0.8627,optionLeft,80,5815,3,28,0,28,0,1,,,,,,,,,,,,,,,,,,,,,,,,,,,,,,,,,,,,,,,
,,,,,,,,2023-08-16_08h50.31.442,HF_wild_card,2022.2.4,Win32,59.9268892,5cdfb7d5ed552600019dc9f3,64d2fd46c836a06233681665,64dc7f7330f891f885739abf,,,,,,,decisionTrl,resources/DP.BMP,resources/DBN.BMP,Door4,-0.145370342,0.008333312,1,0,0,0.9308,optionLeft,60,5875,3,29,0,29,0,1,,,,,,,,,,,,,,,,,,,,,,,,,,,,,,,,,,,,,,,
,,,,,,,,2023-08-16_08h50.31.442,HF_wild_card,2022.2.4,Win32,59.9268892,5cdfb7d5ed552600019dc9f3,64d2fd46c836a06233681665,64dc7f7330f891f885739abf,,,,,,,ctch,resources/DG.BMP,resources/DBN.BMP,Door2,-0.132407365,0.018518519,1,0,0,0.9463,optionLeft,20,5895,3,30,0,30,0,1,,,,,,,,,,,,,,,,,,,,,,,,,,,,,,,,,,,,,,,
,,,,,,,,2023-08-16_08h50.31.442,HF_wild_card,2022.2.4,Win32,59.9268892,5cdfb7d5ed552600019dc9f3,64d2fd46c836a06233681665,64dc7f7330f891f885739abf,,,,,,,sngl,resources/DG.BMP,resources/Empty.png,Door2,-0.172222208,0.02870369,1,0,0,0.8306,optionLeft,40,5935,3,31,0,31,0,1,,,,,,,,,,,,,,,,,,,,,,,,,,,,,,,,,,,,,,,
,,,,,,,,2023-08-16_08h50.31.442,HF_wild_card,2022.2.4,Win32,59.9268892,5cdfb7d5ed552600019dc9f3,64d2fd46c836a06233681665,64dc7f7330f891f885739abf,,,,,,,sngl,resources/Empty.png,resources/DY.BMP,WildCard_Ex,0.159259302,0.032407407,1,0,0,0.9465,optionRight,5,5940,3,32,0,32,0,1,,,,,,,,,,,,,,,,,,,,,,,,,,,,,,,,,,,,,,,
,,,,,,,,2023-08-16_08h50.31.442,HF_wild_card,2022.2.4,Win32,59.9268892,5cdfb7d5ed552600019dc9f3,64d2fd46c836a06233681665,64dc7f7330f891f885739abf,,,,,,,decisionTrl,resources/DR.BMP,resources/DY.BMP,WildCard_Ex,0.158333319,-0.036111125,1,0,0,1.3988,optionRight,5,5945,3,33,0,33,0,1,,,,,,,,,,,,,,,,,,,,,,,,,,,,,,,,,,,,,,,
,,,,,,,,2023-08-16_08h50.31.442,HF_wild_card,2022.2.4,Win32,59.9268892,5cdfb7d5ed552600019dc9f3,64d2fd46c836a06233681665,64dc7f7330f891f885739abf,,,,,,,decisionTrl,resources/DP.BMP,resources/DY.BMP,Door4,-0.186111097,-0.009259259,1,0,0,0.8457,optionLeft,60,6005,3,34,0,34,0,1,,,,,,,,,,,,,,,,,,,,,,,,,,,,,,,,,,,,,,,
,,,,,,,,2023-08-16_08h50.31.442,HF_wild_card,2022.2.4,Win32,59.9268892,5cdfb7d5ed552600019dc9f3,64d2fd46c836a06233681665,64dc7f7330f891f885739abf,,,,,,,ctch,resources/DR.BMP,resources/DP.BMP,Door4,0.165740755,0.014814801,1,0,0,1.0036,optionRight,60,6065,3,35,0,35,0,1,,,,,,,,,,,,,,,,,,,,,,,,,,,,,,,,,,,,,,,
,,,,,,,,2023-08-16_08h50.31.442,HF_wild_card,2022.2.4,Win32,59.9268892,5cdfb7d5ed552600019dc9f3,64d2fd46c836a06233681665,64dc7f7330f891f885739abf,,,,,,,decisionTrl,resources/DBN.BMP,resources/DY.BMP,WildCard_Ex,0.181481467,0.006481489,1,0,0,1.0792,optionRight,5,6070,3,36,0,36,0,1,,,,,,,,,,,,,,,,,,,,,,,,,,,,,,,,,,,,,,,
,,,,,,,,2023-08-16_08h50.31.442,HF_wild_card,2022.2.4,Win32,59.9268892,5cdfb7d5ed552600019dc9f3,64d2fd46c836a06233681665,64dc7f7330f891f885739abf,,,,,,,sngl,resources/DBN.BMP,resources/Empty.png,Door3,-0.138888889,0,1,0,0,0.8959,optionLeft,70,6140,3,37,0,37,0,1,,,,,,,,,,,,,,,,,,,,,,,,,,,,,,,,,,,,,,,
,,,,,,,,2023-08-16_08h50.31.442,HF_wild_card,2022.2.4,Win32,59.9268892,5cdfb7d5ed552600019dc9f3,64d2fd46c836a06233681665,64dc7f7330f891f885739abf,,,,,,,decisionTrl,resources/DG.BMP,resources/DR.BMP,Door1,0.227777764,0.01666666,1,0,0,0.9797,optionRight,30,6170,3,38,0,38,0,1,,,,,,,,,,,,,,,,,,,,,,,,,,,,,,,,,,,,,,,
,,,,,,,,2023-08-16_08h50.31.442,HF_wild_card,2022.2.4,Win32,59.9268892,5cdfb7d5ed552600019dc9f3,64d2fd46c836a06233681665,64dc7f7330f891f885739abf,,,,,,,sngl,resources/Empty.png,resources/DY.BMP,WildCard_Ex,0.140740783,-0.0074074,1,0,0,0.9306,optionRight,95,6265,3,39,0,39,0,1,,,,,,,,,,,,,,,,,,,,,,,,,,,,,,,,,,,,,,,
,,,,,,,,2023-08-16_08h50.31.442,HF_wild_card,2022.2.4,Win32,59.9268892,5cdfb7d5ed552600019dc9f3,64d2fd46c836a06233681665,64dc7f7330f891f885739abf,,,,,,,decisionTrl,resources/DY.BMP,resources/DR.BMP,WildCard_Ex,-0.180555556,-0.010185206,1,0,0,0.9455,optionLeft,95,6360,3,40,0,40,0,1,,,,,,,,,,,,,,,,,,,,,,,,,,,,,,,,,,,,,,,
,,,,,,,,2023-08-16_08h50.31.442,HF_wild_card,2022.2.4,Win32,59.9268892,5cdfb7d5ed552600019dc9f3,64d2fd46c836a06233681665,64dc7f7330f891f885739abf,,,,,,,ctch,resources/DR.BMP,resources/DP.BMP,Door4,0.173148191,-0.017592607,1,0,0,1.9306,optionRight,80,6440,3,41,0,41,0,1,,,,,,,,,,,,,,,,,,,,,,,,,,,,,,,,,,,,,,,
,,,,,,,,2023-08-16_08h50.31.442,HF_wild_card,2022.2.4,Win32,59.9268892,5cdfb7d5ed552600019dc9f3,64d2fd46c836a06233681665,64dc7f7330f891f885739abf,,,,,,,decisionTrl,resources/DR.BMP,resources/DG.BMP,Door2,0.20185188,-0.018518519,1,0,0,1.1633,optionRight,20,6460,3,42,0,42,0,1,,,,,,,,,,,,,,,,,,,,,,,,,,,,,,,,,,,,,,,
,,,,,,,,2023-08-16_08h50.31.442,HF_wild_card,2022.2.4,Win32,59.9268892,5cdfb7d5ed552600019dc9f3,64d2fd46c836a06233681665,64dc7f7330f891f885739abf,,,,,,,decisionTrl,resources/DG.BMP,resources/DY.BMP,WildCard_Ex,0.212962963,-0.028703725,1,0,0,1.0132,optionRight,5,6465,3,43,0,43,0,1,,,,,,,,,,,,,,,,,,,,,,,,,,,,,,,,,,,,,,,
,,,,,,,,2023-08-16_08h50.31.442,HF_wild_card,2022.2.4,Win32,59.9268892,5cdfb7d5ed552600019dc9f3,64d2fd46c836a06233681665,64dc7f7330f891f885739abf,,,,,,,,,,,,,,,,,,,,,,,,,,2,0,2,0,1,,,,,,,,,,,,,,,,,,,,,,,,,,,,,,,,,,
,,,,,,,,2023-08-16_08h50.31.442,HF_wild_card,2022.2.4,Win32,59.9268892,5cdfb7d5ed552600019dc9f3,64d2fd46c836a06233681665,64dc7f7330f891f885739abf,,,,,,,sngl,resources/Empty.png,resources/DBN.BMP,Door3,0.272222236,-0.141666695,1,0,0,0.9753,optionRight,70,6535,4,0,0,0,0,1,,,,,,,,,,,,,,,,,,,,,,,,,,,,,,,,,,,,,,,
,,,,,,,,2023-08-16_08h50.31.442,HF_wild_card,2022.2.4,Win32,59.9268892,5cdfb7d5ed552600019dc9f3,64d2fd46c836a06233681665,64dc7f7330f891f885739abf,,,,,,,sngl,resources/DG.BMP,resources/Empty.png,Door2,-0.145370342,-0.011111118,1,0,0,0.8634,optionLeft,20,6555,4,1,0,1,0,1,,,,,,,,,,,,,,,,,,,,,,,,,,,,,,,,,,,,,,,
,,,,,,,,2023-08-16_08h50.31.442,HF_wild_card,2022.2.4,Win32,59.9268892,5cdfb7d5ed552600019dc9f3,64d2fd46c836a06233681665,64dc7f7330f891f885739abf,,,,,,,sngl,resources/DR.BMP,resources/Empty.png,Door1,-0.229629587,0.018518519,1,0,0,0.9962,optionLeft,30,6585,4,2,0,2,0,1,,,,,,,,,,,,,,,,,,,,,,,,,,,,,,,,,,,,,,,
,,,,,,,,2023-08-16_08h50.31.442,HF_wild_card,2022.2.4,Win32,59.9268892,5cdfb7d5ed552600019dc9f3,64d2fd46c836a06233681665,64dc7f7330f891f885739abf,,,,,,,decisionTrl,resources/DP.BMP,resources/DBN.BMP,Door4,-0.183333291,0.013888889,1,0,0,1.1959,optionLeft,60,6645,4,3,0,3,0,1,,,,,,,,,,,,,,,,,,,,,,,,,,,,,,,,,,,,,,,
,,,,,,,,2023-08-16_08h50.31.442,HF_wild_card,2022.2.4,Win32,59.9268892,5cdfb7d5ed552600019dc9f3,64d2fd46c836a06233681665,64dc7f7330f891f885739abf,,,,,,,decisionTrl,resources/DBN.BMP,resources/DP.BMP,Door3,-0.179629644,0.025000007,1,0,0,0.9817,optionLeft,70,6715,4,4,0,4,0,1,,,,,,,,,,,,,,,,,,,,,,,,,,,,,,,,,,,,,,,
,,,,,,,,2023-08-16_08h50.31.442,HF_wild_card,2022.2.4,Win32,59.9268892,5cdfb7d5ed552600019dc9f3,64d2fd46c836a06233681665,64dc7f7330f891f885739abf,,,,,,,decisionTrl,resources/DG.BMP,resources/DR.BMP,Door2,-0.19722218,0.005555541,1,0,0,1.3632,optionLeft,20,6735,4,5,0,5,0,1,,,,,,,,,,,,,,,,,,,,,,,,,,,,,,,,,,,,,,,
,,,,,,,,2023-08-16_08h50.31.442,HF_wild_card,2022.2.4,Win32,59.9268892,5cdfb7d5ed552600019dc9f3,64d2fd46c836a06233681665,64dc7f7330f891f885739abf,,,,,,,decisionTrl,resources/DBN.BMP,resources/DB.BMP,WildCard_NonEx,0.148148148,0.010185171,1,0,0,1.5141,optionRight,55,6790,4,6,0,6,0,1,,,,,,,,,,,,,,,,,,,,,,,,,,,,,,,,,,,,,,,
,,,,,,,,2023-08-16_08h50.31.442,HF_wild_card,2022.2.4,Win32,59.9268892,5cdfb7d5ed552600019dc9f3,64d2fd46c836a06233681665,64dc7f7330f891f885739abf,,,,,,,sngl,resources/DB.BMP,resources/Empty.png,WildCard_NonEx,-0.180555556,0.020370377,1,0,0,0.8635,optionLeft,55,6845,4,7,0,7,0,1,,,,,,,,,,,,,,,,,,,,,,,,,,,,,,,,,,,,,,,
,,,,,,,,2023-08-16_08h50.31.442,HF_wild_card,2022.2.4,Win32,59.9268892,5cdfb7d5ed552600019dc9f3,64d2fd46c836a06233681665,64dc7f7330f891f885739abf,,,,,,,decisionTrl,resources/DP.BMP,resources/DBN.BMP,Door3,0.113888917,-0.00462963,1,0,0,1.2792,optionRight,70,6915,4,8,0,8,0,1,,,,,,,,,,,,,,,,,,,,,,,,,,,,,,,,,,,,,,,
,,,,,,,,2023-08-16_08h50.31.442,HF_wild_card,2022.2.4,Win32,59.9268892,5cdfb7d5ed552600019dc9f3,64d2fd46c836a06233681665,64dc7f7330f891f885739abf,,,,,,,decisionTrl,resources/DP.BMP,resources/DBN.BMP,Door4,-0.137036995,0.003703683,1,0,0,0.8481,optionLeft,80,6995,4,9,0,9,0,1,,,,,,,,,,,,,,,,,,,,,,,,,,,,,,,,,,,,,,,
,,,,,,,,2023-08-16_08h50.31.442,HF_wild_card,2022.2.4,Win32,59.9268892,5cdfb7d5ed552600019dc9f3,64d2fd46c836a06233681665,64dc7f7330f891f885739abf,,,,,,,ctch,resources/DG.BMP,resources/DBN.BMP,Door3,0.185185185,0.003703683,1,0,0,1.3808,optionRight,70,7065,4,10,0,10,0,1,,,,,,,,,,,,,,,,,,,,,,,,,,,,,,,,,,,,,,,
,,,,,,,,2023-08-16_08h50.31.442,HF_wild_card,2022.2.4,Win32,59.9268892,5cdfb7d5ed552600019dc9f3,64d2fd46c836a06233681665,64dc7f7330f891f885739abf,,,,,,,decisionTrl,resources/DG.BMP,resources/DB.BMP,WildCard_NonEx,0.20648151,-0.011111118,1,0,0,1.0204,optionRight,45,7110,4,11,0,11,0,1,,,,,,,,,,,,,,,,,,,,,,,,,,,,,,,,,,,,,,,
,,,,,,,,2023-08-16_08h50.31.442,HF_wild_card,2022.2.4,Win32,59.9268892,5cdfb7d5ed552600019dc9f3,64d2fd46c836a06233681665,64dc7f7330f891f885739abf,,,,,,,decisionTrl,resources/DR.BMP,resources/DG.BMP,Door1,-0.136111083,-0.012962977,1,0,0,1.03,optionLeft,30,7140,4,12,0,12,0,1,,,,,,,,,,,,,,,,,,,,,,,,,,,,,,,,,,,,,,,
,,,,,,,,2023-08-16_08h50.31.442,HF_wild_card,2022.2.4,Win32,59.9268892,5cdfb7d5ed552600019dc9f3,64d2fd46c836a06233681665,64dc7f7330f891f885739abf,,,,,,,decisionTrl,resources/DB.BMP,resources/DP.BMP,Door4,0.199999986,-0.019444466,1,0,0,1.2474,optionRight,80,7220,4,13,0,13,0,1,,,,,,,,,,,,,,,,,,,,,,,,,,,,,,,,,,,,,,,
,,,,,,,,2023-08-16_08h50.31.442,HF_wild_card,2022.2.4,Win32,59.9268892,5cdfb7d5ed552600019dc9f3,64d2fd46c836a06233681665,64dc7f7330f891f885739abf,,,,,,,ctch,resources/DG.BMP,resources/DBN.BMP,Door2,-0.16851849,-0.003703718,1,0,0,1.3649,optionLeft,40,7260,4,14,0,14,0,1,,,,,,,,,,,,,,,,,,,,,,,,,,,,,,,,,,,,,,,
,,,,,,,,2023-08-16_08h50.31.442,HF_wild_card,2022.2.4,Win32,59.9268892,5cdfb7d5ed552600019dc9f3,64d2fd46c836a06233681665,64dc7f7330f891f885739abf,,,,,,,decisionTrl,resources/DB.BMP,resources/DG.BMP,WildCard_NonEx,-0.134259259,0.01666666,1,0,0,0.964,optionLeft,45,7305,4,15,0,15,0,1,,,,,,,,,,,,,,,,,,,,,,,,,,,,,,,,,,,,,,,
,,,,,,,,2023-08-16_08h50.31.442,HF_wild_card,2022.2.4,Win32,59.9268892,5cdfb7d5ed552600019dc9f3,64d2fd46c836a06233681665,64dc7f7330f891f885739abf,,,,,,,decisionTrl,resources/DR.BMP,resources/DG.BMP,Door1,-0.212037051,-0.027777778,1,0,0,1.1971,optionLeft,30,7335,4,16,0,16,0,1,,,,,,,,,,,,,,,,,,,,,,,,,,,,,,,,,,,,,,,
,,,,,,,,2023-08-16_08h50.31.442,HF_wild_card,2022.2.4,Win32,59.9268892,5cdfb7d5ed552600019dc9f3,64d2fd46c836a06233681665,64dc7f7330f891f885739abf,,,,,,,decisionTrl,resources/DG.BMP,resources/DR.BMP,Door2,-0.189814815,-0.033333355,1,0,0,0.9791,optionLeft,20,7355,4,17,0,17,0,1,,,,,,,,,,,,,,,,,,,,,,,,,,,,,,,,,,,,,,,
,,,,,,,,2023-08-16_08h50.31.442,HF_wild_card,2022.2.4,Win32,59.9268892,5cdfb7d5ed552600019dc9f3,64d2fd46c836a06233681665,64dc7f7330f891f885739abf,,,,,,,sngl,resources/Empty.png,resources/DP.BMP,Door4,0.130555541,0,1,0,0,0.9792,optionRight,80,7435,4,18,0,18,0,1,,,,,,,,,,,,,,,,,,,,,,,,,,,,,,,,,,,,,,,
,,,,,,,,2023-08-16_08h50.31.442,HF_wild_card,2022.2.4,Win32,59.9268892,5cdfb7d5ed552600019dc9f3,64d2fd46c836a06233681665,64dc7f7330f891f885739abf,,,,,,,sngl,resources/Empty.png,resources/DR.BMP,Door1,0.155555584,-0.003703718,1,0,0,1.0149,optionRight,30,7465,4,19,0,19,0,1,,,,,,,,,,,,,,,,,,,,,,,,,,,,,,,,,,,,,,,
,,,,,,,,2023-08-16_08h50.31.442,HF_wild_card,2022.2.4,Win32,59.9268892,5cdfb7d5ed552600019dc9f3,64d2fd46c836a06233681665,64dc7f7330f891f885739abf,,,,,,,decisionTrl,resources/DG.BMP,resources/DR.BMP,Door2,-0.199999986,-0.025000007,1,0,0,1.3315,optionLeft,20,7485,4,20,0,20,0,1,,,,,,,,,,,,,,,,,,,,,,,,,,,,,,,,,,,,,,,
,,,,,,,,2023-08-16_08h50.31.442,HF_wild_card,2022.2.4,Win32,59.9268892,5cdfb7d5ed552600019dc9f3,64d2fd46c836a06233681665,64dc7f7330f891f885739abf,,,,,,,sngl,resources/DBN.BMP,resources/Empty.png,Door3,-0.166666667,0.002777771,1,0,0,0.8637,optionLeft,70,7555,4,21,0,21,0,1,,,,,,,,,,,,,,,,,,,,,,,,,,,,,,,,,,,,,,,
,,,,,,,,2023-08-16_08h50.31.442,HF_wild_card,2022.2.4,Win32,59.9268892,5cdfb7d5ed552600019dc9f3,64d2fd46c836a06233681665,64dc7f7330f891f885739abf,,,,,,,sngl,resources/Empty.png,resources/DB.BMP,WildCard_NonEx,0.174074102,-0.012962977,1,0,0,0.8649,optionRight,55,7610,4,22,0,22,0,1,,,,,,,,,,,,,,,,,,,,,,,,,,,,,,,,,,,,,,,
,,,,,,,,2023-08-16_08h50.31.442,HF_wild_card,2022.2.4,Win32,59.9268892,5cdfb7d5ed552600019dc9f3,64d2fd46c836a06233681665,64dc7f7330f891f885739abf,,,,,,,sngl,resources/DP.BMP,resources/Empty.png,Door4,-0.178703661,-0.012962977,1,0,0,0.8651,optionLeft,60,7670,4,23,0,23,0,1,,,,,,,,,,,,,,,,,,,,,,,,,,,,,,,,,,,,,,,
,,,,,,,,2023-08-16_08h50.31.442,HF_wild_card,2022.2.4,Win32,59.9268892,5cdfb7d5ed552600019dc9f3,64d2fd46c836a06233681665,64dc7f7330f891f885739abf,,,,,,,ctch,resources/DR.BMP,resources/DP.BMP,Door4,0.192592621,0.03611109,1,0,0,1.3823,optionRight,60,7730,4,24,0,24,0,1,,,,,,,,,,,,,,,,,,,,,,,,,,,,,,,,,,,,,,,
,,,,,,,,2023-08-16_08h50.31.442,HF_wild_card,2022.2.4,Win32,59.9268892,5cdfb7d5ed552600019dc9f3,64d2fd46c836a06233681665,64dc7f7330f891f885739abf,,,,,,,decisionTrl,resources/DBN.BMP,resources/DP.BMP,Door3,-0.264814801,0.034259266,1,0,0,1.349,optionLeft,70,7800,4,25,0,25,0,1,,,,,,,,,,,,,,,,,,,,,,,,,,,,,,,,,,,,,,,
,,,,,,,,2023-08-16_08h50.31.442,HF_wild_card,2022.2.4,Win32,59.9268892,5cdfb7d5ed552600019dc9f3,64d2fd46c836a06233681665,64dc7f7330f891f885739abf,,,,,,,decisionTrl,resources/DBN.BMP,resources/DP.BMP,Door3,-0.130555541,0.027777778,1,0,0,0.9146,optionLeft,70,7870,4,26,0,26,0,1,,,,,,,,,,,,,,,,,,,,,,,,,,,,,,,,,,,,,,,
,,,,,,,,2023-08-16_08h50.31.442,HF_wild_card,2022.2.4,Win32,59.9268892,5cdfb7d5ed552600019dc9f3,64d2fd46c836a06233681665,64dc7f7330f891f885739abf,,,,,,,decisionTrl,resources/DR.BMP,resources/DG.BMP,Door1,-0.142592607,-0.012962977,1,0,0,1.2648,optionLeft,30,7900,4,27,0,27,0,1,,,,,,,,,,,,,,,,,,,,,,,,,,,,,,,,,,,,,,,
,,,,,,,,2023-08-16_08h50.31.442,HF_wild_card,2022.2.4,Win32,59.9268892,5cdfb7d5ed552600019dc9f3,64d2fd46c836a06233681665,64dc7f7330f891f885739abf,,,,,,,sngl,resources/Empty.png,resources/DG.BMP,Door2,0.150000042,0.021296289,1,0,0,0.8751,optionRight,40,7940,4,28,0,28,0,1,,,,,,,,,,,,,,,,,,,,,,,,,,,,,,,,,,,,,,,
,,,,,,,,2023-08-16_08h50.31.442,HF_wild_card,2022.2.4,Win32,59.9268892,5cdfb7d5ed552600019dc9f3,64d2fd46c836a06233681665,64dc7f7330f891f885739abf,,,,,,,decisionTrl,resources/DR.BMP,resources/DB.BMP,WildCard_NonEx,0.241666653,-0.0074074,1,0,0,1.0662,optionRight,45,7985,4,29,0,29,0,1,,,,,,,,,,,,,,,,,,,,,,,,,,,,,,,,,,,,,,,
,,,,,,,,2023-08-16_08h50.31.442,HF_wild_card,2022.2.4,Win32,59.9268892,5cdfb7d5ed552600019dc9f3,64d2fd46c836a06233681665,64dc7f7330f891f885739abf,,,,,,,ctch,resources/DP.BMP,resources/DR.BMP,Door4,-0.178703661,-0.005555577,1,0,0,1.1462,optionLeft,80,8065,4,30,0,30,0,1,,,,,,,,,,,,,,,,,,,,,,,,,,,,,,,,,,,,,,,
,,,,,,,,2023-08-16_08h50.31.442,HF_wild_card,2022.2.4,Win32,59.9268892,5cdfb7d5ed552600019dc9f3,64d2fd46c836a06233681665,64dc7f7330f891f885739abf,,,,,,,decisionTrl,resources/DB.BMP,resources/DBN.BMP,WildCard_NonEx,-0.155555513,-0.013888889,1,0,0,0.8974,optionLeft,45,8110,4,31,0,31,0,1,,,,,,,,,,,,,,,,,,,,,,,,,,,,,,,,,,,,,,,
,,,,,,,,2023-08-16_08h50.31.442,HF_wild_card,2022.2.4,Win32,59.9268892,5cdfb7d5ed552600019dc9f3,64d2fd46c836a06233681665,64dc7f7330f891f885739abf,,,,,,,ctch,resources/DR.BMP,resources/DP.BMP,Door4,0.108333376,-0.012962977,1,0,0,1.2789,optionRight,60,8170,4,32,0,32,0,1,,,,,,,,,,,,,,,,,,,,,,,,,,,,,,,,,,,,,,,
,,,,,,,,2023-08-16_08h50.31.442,HF_wild_card,2022.2.4,Win32,59.9268892,5cdfb7d5ed552600019dc9f3,64d2fd46c836a06233681665,64dc7f7330f891f885739abf,,,,,,,ctch,resources/DBN.BMP,resources/DG.BMP,Door3,-0.226851852,-0.008333347,1,0,0,1.1331,optionLeft,70,8240,4,33,0,33,0,1,,,,,,,,,,,,,,,,,,,,,,,,,,,,,,,,,,,,,,,
,,,,,,,,2023-08-16_08h50.31.442,HF_wild_card,2022.2.4,Win32,59.9268892,5cdfb7d5ed552600019dc9f3,64d2fd46c836a06233681665,64dc7f7330f891f885739abf,,,,,,,decisionTrl,resources/DG.BMP,resources/DR.BMP,Door1,0.212962963,0.0074074,1,0,0,1.3807,optionRight,30,8270,4,34,0,34,0,1,,,,,,,,,,,,,,,,,,,,,,,,,,,,,,,,,,,,,,,
,,,,,,,,2023-08-16_08h50.31.442,HF_wild_card,2022.2.4,Win32,59.9268892,5cdfb7d5ed552600019dc9f3,64d2fd46c836a06233681665,64dc7f7330f891f885739abf,,,,,,,ctch,resources/DBN.BMP,resources/DG.BMP,Door3,-0.140740712,0.013888889,1,0,0,1.1133,optionLeft,70,8340,4,35,0,35,0,1,,,,,,,,,,,,,,,,,,,,,,,,,,,,,,,,,,,,,,,
,,,,,,,,2023-08-16_08h50.31.442,HF_wild_card,2022.2.4,Win32,59.9268892,5cdfb7d5ed552600019dc9f3,64d2fd46c836a06233681665,64dc7f7330f891f885739abf,,,,,,,decisionTrl,resources/DP.BMP,resources/DB.BMP,Door4,-0.135185171,-0.002777771,1,0,0,1.0141,optionLeft,60,8400,4,36,0,36,0,1,,,,,,,,,,,,,,,,,,,,,,,,,,,,,,,,,,,,,,,
,,,,,,,,2023-08-16_08h50.31.442,HF_wild_card,2022.2.4,Win32,59.9268892,5cdfb7d5ed552600019dc9f3,64d2fd46c836a06233681665,64dc7f7330f891f885739abf,,,,,,,decisionTrl,resources/DBN.BMP,resources/DP.BMP,Door4,0.199074074,0.005555541,1,0,0,1.0966,optionRight,60,8460,4,37,0,37,0,1,,,,,,,,,,,,,,,,,,,,,,,,,,,,,,,,,,,,,,,
,,,,,,,,2023-08-16_08h50.31.442,HF_wild_card,2022.2.4,Win32,59.9268892,5cdfb7d5ed552600019dc9f3,64d2fd46c836a06233681665,64dc7f7330f891f885739abf,,,,,,,sngl,resources/DB.BMP,resources/Empty.png,WildCard_NonEx,-0.110185199,0.015740748,1,0,0,0.9299,optionLeft,45,8505,4,38,0,38,0,1,,,,,,,,,,,,,,,,,,,,,,,,,,,,,,,,,,,,,,,
,,,,,,,,2023-08-16_08h50.31.442,HF_wild_card,2022.2.4,Win32,59.9268892,5cdfb7d5ed552600019dc9f3,64d2fd46c836a06233681665,64dc7f7330f891f885739abf,,,,,,,decisionTrl,resources/DP.BMP,resources/DBN.BMP,Door4,-0.165740755,0.01944443,1,0,0,0.9621,optionLeft,60,8565,4,39,0,39,0,1,,,,,,,,,,,,,,,,,,,,,,,,,,,,,,,,,,,,,,,
,,,,,,,,2023-08-16_08h50.31.442,HF_wild_card,2022.2.4,Win32,59.9268892,5cdfb7d5ed552600019dc9f3,64d2fd46c836a06233681665,64dc7f7330f891f885739abf,,,,,,,sngl,resources/Empty.png,resources/DB.BMP,WildCard_NonEx,0.113888917,-0.000925947,1,0,0,0.9794,optionRight,45,8610,4,40,0,40,0,1,,,,,,,,,,,,,,,,,,,,,,,,,,,,,,,,,,,,,,,
,,,,,,,,2023-08-16_08h50.31.442,HF_wild_card,2022.2.4,Win32,59.9268892,5cdfb7d5ed552600019dc9f3,64d2fd46c836a06233681665,64dc7f7330f891f885739abf,,,,,,,decisionTrl,resources/DB.BMP,resources/DR.BMP,WildCard_NonEx,-0.111111111,0.01666666,1,0,0,1.1473,optionLeft,55,8665,4,41,0,41,0,1,,,,,,,,,,,,,,,,,,,,,,,,,,,,,,,,,,,,,,,
,,,,,,,,2023-08-16_08h50.31.442,HF_wild_card,2022.2.4,Win32,59.9268892,5cdfb7d5ed552600019dc9f3,64d2fd46c836a06233681665,64dc7f7330f891f885739abf,,,,,,,ctch,resources/DP.BMP,resources/DR.BMP,Door4,-0.209259245,0.00462963,1,0,0,1.0633,optionLeft,60,8725,4,42,0,42,0,1,,,,,,,,,,,,,,,,,,,,,,,,,,,,,,,,,,,,,,,
,,,,,,,,2023-08-16_08h50.31.442,HF_wild_card,2022.2.4,Win32,59.9268892,5cdfb7d5ed552600019dc9f3,64d2fd46c836a06233681665,64dc7f7330f891f885739abf,,,,,,,decisionTrl,resources/DR.BMP,resources/DG.BMP,Door2,0.175000014,0.011111118,1,0,0,1.1877,optionRight,20,8745,4,43,0,43,0,1,,,,,,,,,,,,,,,,,,,,,,,,,,,,,,,,,,,,,,,
,,,,,,,,2023-08-16_08h50.31.442,HF_wild_card,2022.2.4,Win32,59.9268892,5cdfb7d5ed552600019dc9f3,64d2fd46c836a06233681665,64dc7f7330f891f885739abf,,,,,,,,,,,,,,,,,,,,,,,,,,3,0,3,0,1,,,,,,,,,,,,,,,,,,,,,,,,,,,,,,,,,,
,,,,,,,,2023-08-16_08h50.31.442,HF_wild_card,2022.2.4,Win32,59.9268892,5cdfb7d5ed552600019dc9f3,64d2fd46c836a06233681665,64dc7f7330f891f885739abf,,,,,,,decisionTrl,resources/DB.BMP,resources/DP.BMP,Door4,0.257407436,-0.062037044,1,0,0,1.0844,optionRight,80,8825,5,0,0,0,0,1,,,,,,,,,,,,,,,,,,,,,,,,,,,,,,,,,,,,,,,
,,,,,,,,2023-08-16_08h50.31.442,HF_wild_card,2022.2.4,Win32,59.9268892,5cdfb7d5ed552600019dc9f3,64d2fd46c836a06233681665,64dc7f7330f891f885739abf,,,,,,,decisionTrl,resources/DBN.BMP,resources/DB.BMP,Door3,-0.160185143,-0.002777771,1,0,0,1.2816,optionLeft,70,8895,5,1,0,1,0,1,,,,,,,,,,,,,,,,,,,,,,,,,,,,,,,,,,,,,,,
,,,,,,,,2023-08-16_08h50.31.442,HF_wild_card,2022.2.4,Win32,59.9268892,5cdfb7d5ed552600019dc9f3,64d2fd46c836a06233681665,64dc7f7330f891f885739abf,,,,,,,decisionTrl,resources/DG.BMP,resources/DR.BMP,Door1,0.150925954,-0.003703718,1,0,0,1.4587,optionRight,30,8925,5,2,0,2,0,1,,,,,,,,,,,,,,,,,,,,,,,,,,,,,,,,,,,,,,,
,,,,,,,,2023-08-16_08h50.31.442,HF_wild_card,2022.2.4,Win32,59.9268892,5cdfb7d5ed552600019dc9f3,64d2fd46c836a06233681665,64dc7f7330f891f885739abf,,,,,,,decisionTrl,resources/DP.BMP,resources/DB.BMP,Door4,-0.199999986,-0.0074074,1,0,0,1.0298,optionLeft,60,8985,5,3,0,3,0,1,,,,,,,,,,,,,,,,,,,,,,,,,,,,,,,,,,,,,,,
,,,,,,,,2023-08-16_08h50.31.442,HF_wild_card,2022.2.4,Win32,59.9268892,5cdfb7d5ed552600019dc9f3,64d2fd46c836a06233681665,64dc7f7330f891f885739abf,,,,,,,decisionTrl,resources/DBN.BMP,resources/DP.BMP,Door4,0.192592621,0.002777771,1,0,0,0.9806,optionRight,60,9045,5,4,0,4,0,1,,,,,,,,,,,,,,,,,,,,,,,,,,,,,,,,,,,,,,,
,,,,,,,,2023-08-16_08h50.31.442,HF_wild_card,2022.2.4,Win32,59.9268892,5cdfb7d5ed552600019dc9f3,64d2fd46c836a06233681665,64dc7f7330f891f885739abf,,,,,,,decisionTrl,resources/DG.BMP,resources/DR.BMP,Door2,-0.215740698,0.001851859,1,0,0,1.5304,optionLeft,20,9065,5,5,0,5,0,1,,,,,,,,,,,,,,,,,,,,,,,,,,,,,,,,,,,,,,,
,,,,,,,,2023-08-16_08h50.31.442,HF_wild_card,2022.2.4,Win32,59.9268892,5cdfb7d5ed552600019dc9f3,64d2fd46c836a06233681665,64dc7f7330f891f885739abf,,,,,,,sngl,resources/DB.BMP,resources/Empty.png,WildCard_NonEx,-0.171296296,0.030555548,1,0,0,0.8632,optionLeft,45,9110,5,6,0,6,0,1,,,,,,,,,,,,,,,,,,,,,,,,,,,,,,,,,,,,,,,
,,,,,,,,2023-08-16_08h50.31.442,HF_wild_card,2022.2.4,Win32,59.9268892,5cdfb7d5ed552600019dc9f3,64d2fd46c836a06233681665,64dc7f7330f891f885739abf,,,,,,,decisionTrl,resources/DP.BMP,resources/DBN.BMP,Door4,-0.246296282,-0.012962977,1,0,0,0.9792,optionLeft,60,9170,5,7,0,7,0,1,,,,,,,,,,,,,,,,,,,,,,,,,,,,,,,,,,,,,,,
,,,,,,,,2023-08-16_08h50.31.442,HF_wild_card,2022.2.4,Win32,59.9268892,5cdfb7d5ed552600019dc9f3,64d2fd46c836a06233681665,64dc7f7330f891f885739abf,,,,,,,sngl,resources/DG.BMP,resources/Empty.png,Door2,-0.208333333,0.006481489,1,0,0,0.8623,optionLeft,40,9210,5,8,0,8,0,1,,,,,,,,,,,,,,,,,,,,,,,,,,,,,,,,,,,,,,,
,,,,,,,,2023-08-16_08h50.31.442,HF_wild_card,2022.2.4,Win32,59.9268892,5cdfb7d5ed552600019dc9f3,64d2fd46c836a06233681665,64dc7f7330f891f885739abf,,,,,,,decisionTrl,resources/DR.BMP,resources/DB.BMP,WildCard_NonEx,0.175925926,0.003703683,1,0,0,0.9644,optionRight,45,9255,5,9,0,9,0,1,,,,,,,,,,,,,,,,,,,,,,,,,,,,,,,,,,,,,,,
,,,,,,,,2023-08-16_08h50.31.442,HF_wild_card,2022.2.4,Win32,59.9268892,5cdfb7d5ed552600019dc9f3,64d2fd46c836a06233681665,64dc7f7330f891f885739abf,,,,,,,sngl,resources/DB.BMP,resources/Empty.png,WildCard_NonEx,-0.145370342,0.009259259,1,0,0,0.9303,optionLeft,55,9310,5,10,0,10,0,1,,,,,,,,,,,,,,,,,,,,,,,,,,,,,,,,,,,,,,,
,,,,,,,,2023-08-16_08h50.31.442,HF_wild_card,2022.2.4,Win32,59.9268892,5cdfb7d5ed552600019dc9f3,64d2fd46c836a06233681665,64dc7f7330f891f885739abf,,,,,,,decisionTrl,resources/DBN.BMP,resources/DP.BMP,Door3,-0.189814815,0.002777771,1,0,0,1.3978,optionLeft,70,9380,5,11,0,11,0,1,,,,,,,,,,,,,,,,,,,,,,,,,,,,,,,,,,,,,,,
,,,,,,,,2023-08-16_08h50.31.442,HF_wild_card,2022.2.4,Win32,59.9268892,5cdfb7d5ed552600019dc9f3,64d2fd46c836a06233681665,64dc7f7330f891f885739abf,,,,,,,sngl,resources/Empty.png,resources/DBN.BMP,Door3,0.185185185,0.002777771,1,0,0,0.8383,optionRight,70,9450,5,12,0,12,0,1,,,,,,,,,,,,,,,,,,,,,,,,,,,,,,,,,,,,,,,
,,,,,,,,2023-08-16_08h50.31.442,HF_wild_card,2022.2.4,Win32,59.9268892,5cdfb7d5ed552600019dc9f3,64d2fd46c836a06233681665,64dc7f7330f891f885739abf,,,,,,,decisionTrl,resources/DR.BMP,resources/DG.BMP,Door1,-0.158333319,0.018518519,1,0,0,0.93,optionLeft,30,9480,5,13,0,13,0,1,,,,,,,,,,,,,,,,,,,,,,,,,,,,,,,,,,,,,,,
,,,,,,,,2023-08-16_08h50.31.442,HF_wild_card,2022.2.4,Win32,59.9268892,5cdfb7d5ed552600019dc9f3,64d2fd46c836a06233681665,64dc7f7330f891f885739abf,,,,,,,sngl,resources/Empty.png,resources/DP.BMP,Door4,0.183333362,0.00462963,1,0,0,0.8298,optionRight,60,9540,5,14,0,14,0,1,,,,,,,,,,,,,,,,,,,,,,,,,,,,,,,,,,,,,,,
,,,,,,,,2023-08-16_08h50.31.442,HF_wild_card,2022.2.4,Win32,59.9268892,5cdfb7d5ed552600019dc9f3,64d2fd46c836a06233681665,64dc7f7330f891f885739abf,,,,,,,decisionTrl,resources/DB.BMP,resources/DG.BMP,WildCard_NonEx,-0.200925898,0.025000007,1,0,0,0.93,optionLeft,45,9585,5,15,0,15,0,1,,,,,,,,,,,,,,,,,,,,,,,,,,,,,,,,,,,,,,,
,,,,,,,,2023-08-16_08h50.31.442,HF_wild_card,2022.2.4,Win32,59.9268892,5cdfb7d5ed552600019dc9f3,64d2fd46c836a06233681665,64dc7f7330f891f885739abf,,,,,,,sngl,resources/DR.BMP,resources/Empty.png,Door1,-0.145370342,0.018518519,1,0,0,0.8789,optionLeft,30,9615,5,16,0,16,0,1,,,,,,,,,,,,,,,,,,,,,,,,,,,,,,,,,,,,,,,
,,,,,,,,2023-08-16_08h50.31.442,HF_wild_card,2022.2.4,Win32,59.9268892,5cdfb7d5ed552600019dc9f3,64d2fd46c836a06233681665,64dc7f7330f891f885739abf,,,,,,,sngl,resources/DBN.BMP,resources/Empty.png,Door3,-0.159259231,0.00462963,1,0,0,0.8795,optionLeft,70,9685,5,17,0,17,0,1,,,,,,,,,,,,,,,,,,,,,,,,,,,,,,,,,,,,,,,
,,,,,,,,2023-08-16_08h50.31.442,HF_wild_card,2022.2.4,Win32,59.9268892,5cdfb7d5ed552600019dc9f3,64d2fd46c836a06233681665,64dc7f7330f891f885739abf,,,,,,,decisionTrl,resources/DR.BMP,resources/DG.BMP,Door2,0.14444443,-0.001851859,1,0,0,1.265,optionRight,40,9725,5,18,0,18,0,1,,,,,,,,,,,,,,,,,,,,,,,,,,,,,,,,,,,,,,,
,,,,,,,,2023-08-16_08h50.31.442,HF_wild_card,2022.2.4,Win32,59.9268892,5cdfb7d5ed552600019dc9f3,64d2fd46c836a06233681665,64dc7f7330f891f885739abf,,,,,,,decisionTrl,resources/DP.BMP,resources/DBN.BMP,Door4,-0.145370342,-0.011111118,1,0,0,0.9648,optionLeft,60,9785,5,19,0,19,0,1,,,,,,,,,,,,,,,,,,,,,,,,,,,,,,,,,,,,,,,
,,,,,,,,2023-08-16_08h50.31.442,HF_wild_card,2022.2.4,Win32,59.9268892,5cdfb7d5ed552600019dc9f3,64d2fd46c836a06233681665,64dc7f7330f891f885739abf,,,,,,,ctch,resources/DBN.BMP,resources/DG.BMP,Door3,-0.131481453,-0.025000007,1,0,0,0.8962,optionLeft,70,9855,5,20,0,20,0,1,,,,,,,,,,,,,,,,,,,,,,,,,,,,,,,,,,,,,,,
,,,,,,,,2023-08-16_08h50.31.442,HF_wild_card,2022.2.4,Win32,59.9268892,5cdfb7d5ed552600019dc9f3,64d2fd46c836a06233681665,64dc7f7330f891f885739abf,,,,,,,decisionTrl,resources/DP.BMP,resources/DBN.BMP,Door3,0.167592578,-0.0074074,1,0,0,1.2304,optionRight,70,9925,5,21,0,21,0,1,,,,,,,,,,,,,,,,,,,,,,,,,,,,,,,,,,,,,,,
,,,,,,,,2023-08-16_08h50.31.442,HF_wild_card,2022.2.4,Win32,59.9268892,5cdfb7d5ed552600019dc9f3,64d2fd46c836a06233681665,64dc7f7330f891f885739abf,,,,,,,ctch,resources/DP.BMP,resources/DR.BMP,Door4,-0.163888861,0.001851859,1,0,0,1.0296,optionLeft,80,10005,5,22,0,22,0,1,,,,,,,,,,,,,,,,,,,,,,,,,,,,,,,,,,,,,,,
,,,,,,,,2023-08-16_08h50.31.442,HF_wild_card,2022.2.4,Win32,59.9268892,5cdfb7d5ed552600019dc9f3,64d2fd46c836a06233681665,64dc7f7330f891f885739abf,,,,,,,ctch,resources/DP.BMP,resources/DR.BMP,Door4,-0.143518519,-0.009259259,1,0,0,0.913,optionLeft,60,10065,5,23,0,23,0,1,,,,,,,,,,,,,,,,,,,,,,,,,,,,,,,,,,,,,,,
,,,,,,,,2023-08-16_08h50.31.442,HF_wild_card,2022.2.4,Win32,59.9268892,5cdfb7d5ed552600019dc9f3,64d2fd46c836a06233681665,64dc7f7330f891f885739abf,,,,,,,ctch,resources/DR.BMP,resources/DP.BMP,Door4,0.20185188,0.005555541,1,0,0,1.0477,optionRight,60,10125,5,24,0,24,0,1,,,,,,,,,,,,,,,,,,,,,,,,,,,,,,,,,,,,,,,
,,,,,,,,2023-08-16_08h50.31.442,HF_wild_card,2022.2.4,Win32,59.9268892,5cdfb7d5ed552600019dc9f3,64d2fd46c836a06233681665,64dc7f7330f891f885739abf,,,,,,,sngl,resources/Empty.png,resources/DB.BMP,WildCard_NonEx,0.143518519,-0.009259259,1,0,0,0.9817,optionRight,45,10170,5,25,0,25,0,1,,,,,,,,,,,,,,,,,,,,,,,,,,,,,,,,,,,,,,,
,,,,,,,,2023-08-16_08h50.31.442,HF_wild_card,2022.2.4,Win32,59.9268892,5cdfb7d5ed552600019dc9f3,64d2fd46c836a06233681665,64dc7f7330f891f885739abf,,,,,,,sngl,resources/Empty.png,resources/DG.BMP,Door2,0.171296296,0.006481489,1,0,0,0.9451,optionRight,20,10190,5,26,0,26,0,1,,,,,,,,,,,,,,,,,,,,,,,,,,,,,,,,,,,,,,,
,,,,,,,,2023-08-16_08h50.31.442,HF_wild_card,2022.2.4,Win32,59.9268892,5cdfb7d5ed552600019dc9f3,64d2fd46c836a06233681665,64dc7f7330f891f885739abf,,,,,,,decisionTrl,resources/DP.BMP,resources/DBN.BMP,Door4,-0.162037037,-0.001851859,1,0,0,1.0641,optionLeft,60,10250,5,27,0,27,0,1,,,,,,,,,,,,,,,,,,,,,,,,,,,,,,,,,,,,,,,
,,,,,,,,2023-08-16_08h50.31.442,HF_wild_card,2022.2.4,Win32,59.9268892,5cdfb7d5ed552600019dc9f3,64d2fd46c836a06233681665,64dc7f7330f891f885739abf,,,,,,,decisionTrl,resources/DR.BMP,resources/DG.BMP,Door1,-0.212037051,0.003703683,1,0,0,1.1132,optionLeft,30,10280,5,28,0,28,0,1,,,,,,,,,,,,,,,,,,,,,,,,,,,,,,,,,,,,,,,
,,,,,,,,2023-08-16_08h50.31.442,HF_wild_card,2022.2.4,Win32,59.9268892,5cdfb7d5ed552600019dc9f3,64d2fd46c836a06233681665,64dc7f7330f891f885739abf,,,,,,,decisionTrl,resources/DBN.BMP,resources/DP.BMP,Door3,-0.217592593,-0.034259266,1,0,0,1.4306,optionLeft,70,10350,5,29,0,29,0,1,,,,,,,,,,,,,,,,,,,,,,,,,,,,,,,,,,,,,,,
,,,,,,,,2023-08-16_08h50.31.442,HF_wild_card,2022.2.4,Win32,59.9268892,5cdfb7d5ed552600019dc9f3,64d2fd46c836a06233681665,64dc7f7330f891f885739abf,,,,,,,decisionTrl,resources/DG.BMP,resources/DR.BMP,Door1,0.266666695,0.011111118,1,0,0,1.096,optionRight,30,10380,5,30,0,30,0,1,,,,,,,,,,,,,,,,,,,,,,,,,,,,,,,,,,,,,,,
,,,,,,,,2023-08-16_08h50.31.442,HF_wild_card,2022.2.4,Win32,59.9268892,5cdfb7d5ed552600019dc9f3,64d2fd46c836a06233681665,64dc7f7330f891f885739abf,,,,,,,ctch,resources/DBN.BMP,resources/DG.BMP,Door3,-0.171296296,0,1,0,0,1.2278,optionLeft,70,10450,5,31,0,31,0,1,,,,,,,,,,,,,,,,,,,,,,,,,,,,,,,,,,,,,,,
,,,,,,,,2023-08-16_08h50.31.442,HF_wild_card,2022.2.4,Win32,59.9268892,5cdfb7d5ed552600019dc9f3,64d2fd46c836a06233681665,64dc7f7330f891f885739abf,,,,,,,ctch,resources/DG.BMP,resources/DBN.BMP,Door3,0.178703732,0.029629637,1,0,0,1.0632,optionRight,70,10520,5,32,0,32,0,1,,,,,,,,,,,,,,,,,,,,,,,,,,,,,,,,,,,,,,,
,,,,,,,,2023-08-16_08h50.31.442,HF_wild_card,2022.2.4,Win32,59.9268892,5cdfb7d5ed552600019dc9f3,64d2fd46c836a06233681665,64dc7f7330f891f885739abf,,,,,,,sngl,resources/Empty.png,resources/DR.BMP,Door1,0.180555556,0.03611109,1,0,0,0.9635,optionRight,30,10550,5,33,0,33,0,1,,,,,,,,,,,,,,,,,,,,,,,,,,,,,,,,,,,,,,,
,,,,,,,,2023-08-16_08h50.31.442,HF_wild_card,2022.2.4,Win32,59.9268892,5cdfb7d5ed552600019dc9f3,64d2fd46c836a06233681665,64dc7f7330f891f885739abf,,,,,,,decisionTrl,resources/DG.BMP,resources/DB.BMP,WildCard_NonEx,0.241666653,0.022222201,1,0,0,1.231,optionRight,55,10605,5,34,0,34,0,1,,,,,,,,,,,,,,,,,,,,,,,,,,,,,,,,,,,,,,,
,,,,,,,,2023-08-16_08h50.31.442,HF_wild_card,2022.2.4,Win32,59.9268892,5cdfb7d5ed552600019dc9f3,64d2fd46c836a06233681665,64dc7f7330f891f885739abf,,,,,,,ctch,resources/DR.BMP,resources/DP.BMP,Door4,0.25462963,0.0074074,1,0,0,1.0312,optionRight,80,10685,5,35,0,35,0,1,,,,,,,,,,,,,,,,,,,,,,,,,,,,,,,,,,,,,,,
,,,,,,,,2023-08-16_08h50.31.442,HF_wild_card,2022.2.4,Win32,59.9268892,5cdfb7d5ed552600019dc9f3,64d2fd46c836a06233681665,64dc7f7330f891f885739abf,,,,,,,decisionTrl,resources/DB.BMP,resources/DR.BMP,WildCard_NonEx,-0.176851838,0.001851859,1,0,0,1.1302,optionLeft,55,10740,5,36,0,36,0,1,,,,,,,,,,,,,,,,,,,,,,,,,,,,,,,,,,,,,,,
,,,,,,,,2023-08-16_08h50.31.442,HF_wild_card,2022.2.4,Win32,59.9268892,5cdfb7d5ed552600019dc9f3,64d2fd46c836a06233681665,64dc7f7330f891f885739abf,,,,,,,decisionTrl,resources/DBN.BMP,resources/DP.BMP,Door4,0.199999986,0.021296289,1,0,0,0.9627,optionRight,80,10820,5,37,0,37,0,1,,,,,,,,,,,,,,,,,,,,,,,,,,,,,,,,,,,,,,,
,,,,,,,,2023-08-16_08h50.31.442,HF_wild_card,2022.2.4,Win32,59.9268892,5cdfb7d5ed552600019dc9f3,64d2fd46c836a06233681665,64dc7f7330f891f885739abf,,,,,,,decisionTrl,resources/DB.BMP,resources/DBN.BMP,WildCard_NonEx,-0.229629587,-0.017592607,1,0,0,0.9667,optionLeft,45,10865,5,38,0,38,0,1,,,,,,,,,,,,,,,,,,,,,,,,,,,,,,,,,,,,,,,
,,,,,,,,2023-08-16_08h50.31.442,HF_wild_card,2022.2.4,Win32,59.9268892,5cdfb7d5ed552600019dc9f3,64d2fd46c836a06233681665,64dc7f7330f891f885739abf,,,,,,,sngl,resources/DP.BMP,resources/Empty.png,Door4,-0.203703704,-0.017592607,1,0,0,0.9976,optionLeft,80,10945,5,39,0,39,0,1,,,,,,,,,,,,,,,,,,,,,,,,,,,,,,,,,,,,,,,
,,,,,,,,2023-08-16_08h50.31.442,HF_wild_card,2022.2.4,Win32,59.9268892,5cdfb7d5ed552600019dc9f3,64d2fd46c836a06233681665,64dc7f7330f891f885739abf,,,,,,,ctch,resources/DG.BMP,resources/DBN.BMP,Door3,0.155555584,0.006481489,1,0,0,1.0633,optionRight,70,11015,5,40,0,40,0,1,,,,,,,,,,,,,,,,,,,,,,,,,,,,,,,,,,,,,,,
,,,,,,,,2023-08-16_08h50.31.442,HF_wild_card,2022.2.4,Win32,59.9268892,5cdfb7d5ed552600019dc9f3,64d2fd46c836a06233681665,64dc7f7330f891f885739abf,,,,,,,decisionTrl,resources/DR.BMP,resources/DG.BMP,Door1,-0.187037009,0.021296289,1,0,0,2.0981,optionLeft,30,11045,5,41,0,41,0,1,,,,,,,,,,,,,,,,,,,,,,,,,,,,,,,,,,,,,,,
,,,,,,,,2023-08-16_08h50.31.442,HF_wild_card,2022.2.4,Win32,59.9268892,5cdfb7d5ed552600019dc9f3,64d2fd46c836a06233681665,64dc7f7330f891f885739abf,,,,,,,sngl,resources/Empty.png,resources/DB.BMP,WildCard_NonEx,0.183333362,0.003703683,1,0,0,0.9134,optionRight,55,11100,5,42,0,42,0,1,,,,,,,,,,,,,,,,,,,,,,,,,,,,,,,,,,,,,,,
,,,,,,,,2023-08-16_08h50.31.442,HF_wild_card,2022.2.4,Win32,59.9268892,5cdfb7d5ed552600019dc9f3,64d2fd46c836a06233681665,64dc7f7330f891f885739abf,,,,,,,decisionTrl,resources/DG.BMP,resources/DR.BMP,Door2,-0.216666681,-0.002777771,1,0,0,1.2449,optionLeft,40,11140,5,43,0,43,0,1,,,,,,,,,,,,,,,,,,,,,,,,,,,,,,,,,,,,,,,
,,,,,,,,2023-08-16_08h50.31.442,HF_wild_card,2022.2.4,Win32,59.9268892,5cdfb7d5ed552600019dc9f3,64d2fd46c836a06233681665,64dc7f7330f891f885739abf,,,,,,,,,,,,,,,,,,,,,,,,,,4,0,4,0,1,,,,,,,,,,,,,,,,,,,,,,,,,,,,,,,,,,
,,,,,,,,2023-08-16_08h50.31.442,HF_wild_card,2022.2.4,Win32,59.9268892,5cdfb7d5ed552600019dc9f3,64d2fd46c836a06233681665,64dc7f7330f891f885739abf,,,,,,,decisionTrl,resources/DG.BMP,resources/DR.BMP,Door2,-0.19722218,-0.101851852,1,0,0,1.0529,optionLeft,40,11180,6,0,0,0,0,1,,,,,,,,,,,,,,,,,,,,,,,,,,,,,,,,,,,,,,,
,,,,,,,,2023-08-16_08h50.31.442,HF_wild_card,2022.2.4,Win32,59.9268892,5cdfb7d5ed552600019dc9f3,64d2fd46c836a06233681665,64dc7f7330f891f885739abf,,,,,,,decisionTrl,resources/DG.BMP,resources/DR.BMP,Door1,0.172222208,-0.008333347,1,0,0,1.415,optionRight,30,11210,6,1,0,1,0,1,,,,,,,,,,,,,,,,,,,,,,,,,,,,,,,,,,,,,,,
,,,,,,,,2023-08-16_08h50.31.442,HF_wild_card,2022.2.4,Win32,59.9268892,5cdfb7d5ed552600019dc9f3,64d2fd46c836a06233681665,64dc7f7330f891f885739abf,,,,,,,decisionTrl,resources/DR.BMP,resources/DG.BMP,Door2,0.23055557,0,1,0,0,0.9633,optionRight,20,11230,6,2,0,2,0,1,,,,,,,,,,,,,,,,,,,,,,,,,,,,,,,,,,,,,,,
,,,,,,,,2023-08-16_08h50.31.442,HF_wild_card,2022.2.4,Win32,59.9268892,5cdfb7d5ed552600019dc9f3,64d2fd46c836a06233681665,64dc7f7330f891f885739abf,,,,,,,sngl,resources/Empty.png,resources/DP.BMP,Door4,0.17777782,0.008333312,1,0,0,0.9143,optionRight,80,11310,6,3,0,3,0,1,,,,,,,,,,,,,,,,,,,,,,,,,,,,,,,,,,,,,,,
,,,,,,,,2023-08-16_08h50.31.442,HF_wild_card,2022.2.4,Win32,59.9268892,5cdfb7d5ed552600019dc9f3,64d2fd46c836a06233681665,64dc7f7330f891f885739abf,,,,,,,decisionTrl,resources/DBN.BMP,resources/DP.BMP,Door4,0.207407422,0.012962942,1,0,0,0.9638,optionRight,80,11390,6,4,0,4,0,1,,,,,,,,,,,,,,,,,,,,,,,,,,,,,,,,,,,,,,,
,,,,,,,,2023-08-16_08h50.31.442,HF_wild_card,2022.2.4,Win32,59.9268892,5cdfb7d5ed552600019dc9f3,64d2fd46c836a06233681665,64dc7f7330f891f885739abf,,,,,,,sngl,resources/DP.BMP,resources/Empty.png,Door4,-0.109259217,0.02407406,1,0,0,0.8805,optionLeft,60,11450,6,5,0,5,0,1,,,,,,,,,,,,,,,,,,,,,,,,,,,,,,,,,,,,,,,
,,,,,,,,2023-08-16_08h50.31.442,HF_wild_card,2022.2.4,Win32,59.9268892,5cdfb7d5ed552600019dc9f3,64d2fd46c836a06233681665,64dc7f7330f891f885739abf,,,,,,,ctch,resources/DR.BMP,resources/DP.BMP,Door4,0.14444443,-0.00462963,1,0,0,0.9138,optionRight,80,11530,6,6,0,6,0,1,,,,,,,,,,,,,,,,,,,,,,,,,,,,,,,,,,,,,,,
,,,,,,,,2023-08-16_08h50.31.442,HF_wild_card,2022.2.4,Win32,59.9268892,5cdfb7d5ed552600019dc9f3,64d2fd46c836a06233681665,64dc7f7330f891f885739abf,,,,,,,decisionTrl,resources/DBN.BMP,resources/DP.BMP,Door4,0.146296325,0.003703683,1,0,0,1.0121,optionRight,80,11610,6,7,0,7,0,1,,,,,,,,,,,,,,,,,,,,,,,,,,,,,,,,,,,,,,,
,,,,,,,,2023-08-16_08h50.31.442,HF_wild_card,2022.2.4,Win32,59.9268892,5cdfb7d5ed552600019dc9f3,64d2fd46c836a06233681665,64dc7f7330f891f885739abf,,,,,,,sngl,resources/DR.BMP,resources/Empty.png,Door1,-0.125,0.008333312,1,0,0,0.9347,optionLeft,30,11640,6,8,0,8,0,1,,,,,,,,,,,,,,,,,,,,,,,,,,,,,,,,,,,,,,,
,,,,,,,,2023-08-16_08h50.31.442,HF_wild_card,2022.2.4,Win32,59.9268892,5cdfb7d5ed552600019dc9f3,64d2fd46c836a06233681665,64dc7f7330f891f885739abf,,,,,,,decisionTrl,resources/DB.BMP,resources/DP.BMP,Door4,0.19722225,0.009259259,1,0,0,1.0637,optionRight,80,11720,6,9,0,9,0,1,,,,,,,,,,,,,,,,,,,,,,,,,,,,,,,,,,,,,,,
,,,,,,,,2023-08-16_08h50.31.442,HF_wild_card,2022.2.4,Win32,59.9268892,5cdfb7d5ed552600019dc9f3,64d2fd46c836a06233681665,64dc7f7330f891f885739abf,,,,,,,decisionTrl,resources/DBN.BMP,resources/DP.BMP,Door4,0.18240745,0.001851859,1,0,0,0.9609,optionRight,80,11800,6,10,0,10,0,1,,,,,,,,,,,,,,,,,,,,,,,,,,,,,,,,,,,,,,,
,,,,,,,,2023-08-16_08h50.31.442,HF_wild_card,2022.2.4,Win32,59.9268892,5cdfb7d5ed552600019dc9f3,64d2fd46c836a06233681665,64dc7f7330f891f885739abf,,,,,,,decisionTrl,resources/DP.BMP,resources/DBN.BMP,Door4,-0.162037037,0.008333312,1,0,0,0.8797,optionLeft,60,11860,6,11,0,11,0,1,,,,,,,,,,,,,,,,,,,,,,,,,,,,,,,,,,,,,,,
,,,,,,,,2023-08-16_08h50.31.442,HF_wild_card,2022.2.4,Win32,59.9268892,5cdfb7d5ed552600019dc9f3,64d2fd46c836a06233681665,64dc7f7330f891f885739abf,,,,,,,ctch,resources/DBN.BMP,resources/DG.BMP,Door3,-0.146296254,0.01203703,1,0,0,1.0797,optionLeft,70,11930,6,12,0,12,0,1,,,,,,,,,,,,,,,,,,,,,,,,,,,,,,,,,,,,,,,
,,,,,,,,2023-08-16_08h50.31.442,HF_wild_card,2022.2.4,Win32,59.9268892,5cdfb7d5ed552600019dc9f3,64d2fd46c836a06233681665,64dc7f7330f891f885739abf,,,,,,,sngl,resources/DG.BMP,resources/Empty.png,Door2,-0.151851866,-0.009259259,1,0,0,0.8809,optionLeft,20,11950,6,13,0,13,0,1,,,,,,,,,,,,,,,,,,,,,,,,,,,,,,,,,,,,,,,
,,,,,,,,2023-08-16_08h50.31.442,HF_wild_card,2022.2.4,Win32,59.9268892,5cdfb7d5ed552600019dc9f3,64d2fd46c836a06233681665,64dc7f7330f891f885739abf,,,,,,,sngl,resources/DB.BMP,resources/Empty.png,WildCard_NonEx,-0.152777778,0.000925912,1,0,0,0.9633,optionLeft,45,11995,6,14,0,14,0,1,,,,,,,,,,,,,,,,,,,,,,,,,,,,,,,,,,,,,,,
,,,,,,,,2023-08-16_08h50.31.442,HF_wild_card,2022.2.4,Win32,59.9268892,5cdfb7d5ed552600019dc9f3,64d2fd46c836a06233681665,64dc7f7330f891f885739abf,,,,,,,decisionTrl,resources/DG.BMP,resources/DR.BMP,Door1,0.15370369,0.000925912,1,0,0,1.0462,optionRight,30,12025,6,15,0,15,0,1,,,,,,,,,,,,,,,,,,,,,,,,,,,,,,,,,,,,,,,
,,,,,,,,2023-08-16_08h50.31.442,HF_wild_card,2022.2.4,Win32,59.9268892,5cdfb7d5ed552600019dc9f3,64d2fd46c836a06233681665,64dc7f7330f891f885739abf,,,,,,,sngl,resources/Empty.png,resources/DBN.BMP,Door3,0.17777782,0.025925919,1,0,0,0.8981,optionRight,70,12095,6,16,0,16,0,1,,,,,,,,,,,,,,,,,,,,,,,,,,,,,,,,,,,,,,,
,,,,,,,,2023-08-16_08h50.31.442,HF_wild_card,2022.2.4,Win32,59.9268892,5cdfb7d5ed552600019dc9f3,64d2fd46c836a06233681665,64dc7f7330f891f885739abf,,,,,,,ctch,resources/DP.BMP,resources/DR.BMP,Door4,-0.171296296,0.01666666,1,0,0,1.146,optionLeft,60,12155,6,17,0,17,0,1,,,,,,,,,,,,,,,,,,,,,,,,,,,,,,,,,,,,,,,
,,,,,,,,2023-08-16_08h50.31.442,HF_wild_card,2022.2.4,Win32,59.9268892,5cdfb7d5ed552600019dc9f3,64d2fd46c836a06233681665,64dc7f7330f891f885739abf,,,,,,,decisionTrl,resources/DBN.BMP,resources/DP.BMP,Door4,0.150000042,0.009259259,1,0,0,1.5636,optionRight,80,12235,6,18,0,18,0,1,,,,,,,,,,,,,,,,,,,,,,,,,,,,,,,,,,,,,,,
,,,,,,,,2023-08-16_08h50.31.442,HF_wild_card,2022.2.4,Win32,59.9268892,5cdfb7d5ed552600019dc9f3,64d2fd46c836a06233681665,64dc7f7330f891f885739abf,,,,,,,sngl,resources/Empty.png,resources/DG.BMP,Door2,0.137037065,0.006481489,1,0,0,1.3814,optionRight,40,12275,6,19,0,19,0,1,,,,,,,,,,,,,,,,,,,,,,,,,,,,,,,,,,,,,,,
,,,,,,,,2023-08-16_08h50.31.442,HF_wild_card,2022.2.4,Win32,59.9268892,5cdfb7d5ed552600019dc9f3,64d2fd46c836a06233681665,64dc7f7330f891f885739abf,,,,,,,decisionTrl,resources/DG.BMP,resources/DB.BMP,WildCard_NonEx,0.199999986,-0.006481489,1,0,0,1.3022,optionRight,45,12320,6,20,0,20,0,1,,,,,,,,,,,,,,,,,,,,,,,,,,,,,,,,,,,,,,,
,,,,,,,,2023-08-16_08h50.31.442,HF_wild_card,2022.2.4,Win32,59.9268892,5cdfb7d5ed552600019dc9f3,64d2fd46c836a06233681665,64dc7f7330f891f885739abf,,,,,,,ctch,resources/DG.BMP,resources/DBN.BMP,Door3,0.165740755,0.009259259,1,0,0,1.2466,optionRight,70,12390,6,21,0,21,0,1,,,,,,,,,,,,,,,,,,,,,,,,,,,,,,,,,,,,,,,
,,,,,,,,2023-08-16_08h50.31.442,HF_wild_card,2022.2.4,Win32,59.9268892,5cdfb7d5ed552600019dc9f3,64d2fd46c836a06233681665,64dc7f7330f891f885739abf,,,,,,,ctch,resources/DG.BMP,resources/DBN.BMP,Door3,0.166666667,0.014814801,1,0,0,1.013,optionRight,70,12460,6,22,0,22,0,1,,,,,,,,,,,,,,,,,,,,,,,,,,,,,,,,,,,,,,,
,,,,,,,,2023-08-16_08h50.31.442,HF_wild_card,2022.2.4,Win32,59.9268892,5cdfb7d5ed552600019dc9f3,64d2fd46c836a06233681665,64dc7f7330f891f885739abf,,,,,,,decisionTrl,resources/DP.BMP,resources/DBN.BMP,Door4,-0.161111125,0.001851859,1,0,0,1.1128,optionLeft,60,12520,6,23,0,23,0,1,,,,,,,,,,,,,,,,,,,,,,,,,,,,,,,,,,,,,,,
,,,,,,,,2023-08-16_08h50.31.442,HF_wild_card,2022.2.4,Win32,59.9268892,5cdfb7d5ed552600019dc9f3,64d2fd46c836a06233681665,64dc7f7330f891f885739abf,,,,,,,decisionTrl,resources/DR.BMP,resources/DB.BMP,WildCard_NonEx,0.212962963,-0.013888889,1,0,0,1.0955,optionRight,45,12565,6,24,0,24,0,1,,,,,,,,,,,,,,,,,,,,,,,,,,,,,,,,,,,,,,,
,,,,,,,,2023-08-16_08h50.31.442,HF_wild_card,2022.2.4,Win32,59.9268892,5cdfb7d5ed552600019dc9f3,64d2fd46c836a06233681665,64dc7f7330f891f885739abf,,,,,,,sngl,resources/DBN.BMP,resources/Empty.png,Door3,-0.171296296,-0.005555577,1,0,0,0.8801,optionLeft,70,12635,6,25,0,25,0,1,,,,,,,,,,,,,,,,,,,,,,,,,,,,,,,,,,,,,,,
,,,,,,,,2023-08-16_08h50.31.442,HF_wild_card,2022.2.4,Win32,59.9268892,5cdfb7d5ed552600019dc9f3,64d2fd46c836a06233681665,64dc7f7330f891f885739abf,,,,,,,decisionTrl,resources/DP.BMP,resources/DBN.BMP,Door4,-0.170370384,0.001851859,1,0,0,1.23,optionLeft,80,12715,6,26,0,26,0,1,,,,,,,,,,,,,,,,,,,,,,,,,,,,,,,,,,,,,,,
,,,,,,,,2023-08-16_08h50.31.442,HF_wild_card,2022.2.4,Win32,59.9268892,5cdfb7d5ed552600019dc9f3,64d2fd46c836a06233681665,64dc7f7330f891f885739abf,,,,,,,decisionTrl,resources/DBN.BMP,resources/DB.BMP,Door3,-0.183333291,0.0074074,1,0,0,1.1628,optionLeft,70,12785,6,27,0,27,0,1,,,,,,,,,,,,,,,,,,,,,,,,,,,,,,,,,,,,,,,
,,,,,,,,2023-08-16_08h50.31.442,HF_wild_card,2022.2.4,Win32,59.9268892,5cdfb7d5ed552600019dc9f3,64d2fd46c836a06233681665,64dc7f7330f891f885739abf,,,,,,,decisionTrl,resources/DR.BMP,resources/DG.BMP,Door2,0.167592578,-0.010185206,1,0,0,1.8141,optionRight,20,12805,6,28,0,28,0,1,,,,,,,,,,,,,,,,,,,,,,,,,,,,,,,,,,,,,,,
,,,,,,,,2023-08-16_08h50.31.442,HF_wild_card,2022.2.4,Win32,59.9268892,5cdfb7d5ed552600019dc9f3,64d2fd46c836a06233681665,64dc7f7330f891f885739abf,,,,,,,ctch,resources/DBN.BMP,resources/DG.BMP,Door3,-0.201851809,-0.034259266,1,0,0,1.3472,optionLeft,70,12875,6,29,0,29,0,1,,,,,,,,,,,,,,,,,,,,,,,,,,,,,,,,,,,,,,,
,,,,,,,,2023-08-16_08h50.31.442,HF_wild_card,2022.2.4,Win32,59.9268892,5cdfb7d5ed552600019dc9f3,64d2fd46c836a06233681665,64dc7f7330f891f885739abf,,,,,,,ctch,resources/DP.BMP,resources/DR.BMP,Door4,-0.188888903,-0.032407407,1,0,0,1.0636,optionLeft,80,12955,6,30,0,30,0,1,,,,,,,,,,,,,,,,,,,,,,,,,,,,,,,,,,,,,,,
,,,,,,,,2023-08-16_08h50.31.442,HF_wild_card,2022.2.4,Win32,59.9268892,5cdfb7d5ed552600019dc9f3,64d2fd46c836a06233681665,64dc7f7330f891f885739abf,,,,,,,sngl,resources/Empty.png,resources/DB.BMP,WildCard_NonEx,0.090740769,0.006481489,1,0,0,1.2643,optionRight,55,13010,6,31,0,31,0,1,,,,,,,,,,,,,,,,,,,,,,,,,,,,,,,,,,,,,,,
,,,,,,,,2023-08-16_08h50.31.442,HF_wild_card,2022.2.4,Win32,59.9268892,5cdfb7d5ed552600019dc9f3,64d2fd46c836a06233681665,64dc7f7330f891f885739abf,,,,,,,decisionTrl,resources/DG.BMP,resources/DR.BMP,Door2,-0.180555556,-0.006481489,1,0,0,1.0638,optionLeft,40,13050,6,32,0,32,0,1,,,,,,,,,,,,,,,,,,,,,,,,,,,,,,,,,,,,,,,
,,,,,,,,2023-08-16_08h50.31.442,HF_wild_card,2022.2.4,Win32,59.9268892,5cdfb7d5ed552600019dc9f3,64d2fd46c836a06233681665,64dc7f7330f891f885739abf,,,,,,,sngl,resources/DB.BMP,resources/Empty.png,WildCard_NonEx,-0.161111125,-0.00462963,1,0,0,0.88,optionLeft,55,13105,6,33,0,33,0,1,,,,,,,,,,,,,,,,,,,,,,,,,,,,,,,,,,,,,,,
,,,,,,,,2023-08-16_08h50.31.442,HF_wild_card,2022.2.4,Win32,59.9268892,5cdfb7d5ed552600019dc9f3,64d2fd46c836a06233681665,64dc7f7330f891f885739abf,,,,,,,decisionTrl,resources/DP.BMP,resources/DBN.BMP,Door3,0.124074088,0.021296289,1,0,0,1.3144,optionRight,70,13175,6,34,0,34,0,1,,,,,,,,,,,,,,,,,,,,,,,,,,,,,,,,,,,,,,,
,,,,,,,,2023-08-16_08h50.31.442,HF_wild_card,2022.2.4,Win32,59.9268892,5cdfb7d5ed552600019dc9f3,64d2fd46c836a06233681665,64dc7f7330f891f885739abf,,,,,,,decisionTrl,resources/DR.BMP,resources/DG.BMP,Door1,-0.176851838,-0.00462963,1,0,0,1.9807,optionLeft,30,13205,6,35,0,35,0,1,,,,,,,,,,,,,,,,,,,,,,,,,,,,,,,,,,,,,,,
,,,,,,,,2023-08-16_08h50.31.442,HF_wild_card,2022.2.4,Win32,59.9268892,5cdfb7d5ed552600019dc9f3,64d2fd46c836a06233681665,64dc7f7330f891f885739abf,,,,,,,decisionTrl,resources/DP.BMP,resources/DB.BMP,Door4,-0.172222208,-0.003703718,1,0,0,1.8982,optionLeft,80,13285,6,36,0,36,0,1,,,,,,,,,,,,,,,,,,,,,,,,,,,,,,,,,,,,,,,
,,,,,,,,2023-08-16_08h50.31.442,HF_wild_card,2022.2.4,Win32,59.9268892,5cdfb7d5ed552600019dc9f3,64d2fd46c836a06233681665,64dc7f7330f891f885739abf,,,,,,,sngl,resources/Empty.png,resources/DB.BMP,WildCard_NonEx,0.161111125,0.01203703,1,0,0,0.9033,optionRight,45,13330,6,37,0,37,0,1,,,,,,,,,,,,,,,,,,,,,,,,,,,,,,,,,,,,,,,
,,,,,,,,2023-08-16_08h50.31.442,HF_wild_card,2022.2.4,Win32,59.9268892,5cdfb7d5ed552600019dc9f3,64d2fd46c836a06233681665,64dc7f7330f891f885739abf,,,,,,,decisionTrl,resources/DB.BMP,resources/DR.BMP,Door1,0.175925926,-0.013888889,1,0,0,1.2303,optionRight,30,13360,6,38,0,38,0,1,,,,,,,,,,,,,,,,,,,,,,,,,,,,,,,,,,,,,,,
,,,,,,,,2023-08-16_08h50.31.442,HF_wild_card,2022.2.4,Win32,59.9268892,5cdfb7d5ed552600019dc9f3,64d2fd46c836a06233681665,64dc7f7330f891f885739abf,,,,,,,sngl,resources/Empty.png,resources/DR.BMP,Door1,0.20648151,0.0074074,1,0,0,0.9305,optionRight,30,13390,6,39,0,39,0,1,,,,,,,,,,,,,,,,,,,,,,,,,,,,,,,,,,,,,,,
,,,,,,,,2023-08-16_08h50.31.442,HF_wild_card,2022.2.4,Win32,59.9268892,5cdfb7d5ed552600019dc9f3,64d2fd46c836a06233681665,64dc7f7330f891f885739abf,,,,,,,ctch,resources/DR.BMP,resources/DP.BMP,Door4,0.310185185,0.017592571,1,0,0,1.0462,optionRight,80,13470,6,40,0,40,0,1,,,,,,,,,,,,,,,,,,,,,,,,,,,,,,,,,,,,,,,
,,,,,,,,2023-08-16_08h50.31.442,HF_wild_card,2022.2.4,Win32,59.9268892,5cdfb7d5ed552600019dc9f3,64d2fd46c836a06233681665,64dc7f7330f891f885739abf,,,,,,,decisionTrl,resources/DB.BMP,resources/DG.BMP,WildCard_NonEx,-0.126851824,0.008333312,1,0,0,1.4629,optionLeft,55,13525,6,41,0,41,0,1,,,,,,,,,,,,,,,,,,,,,,,,,,,,,,,,,,,,,,,
,,,,,,,,2023-08-16_08h50.31.442,HF_wild_card,2022.2.4,Win32,59.9268892,5cdfb7d5ed552600019dc9f3,64d2fd46c836a06233681665,64dc7f7330f891f885739abf,,,,,,,decisionTrl,resources/DB.BMP,resources/DBN.BMP,Door3,0.166666667,0.01666666,1,0,0,1.5303,optionRight,70,13595,6,42,0,42,0,1,,,,,,,,,,,,,,,,,,,,,,,,,,,,,,,,,,,,,,,
,,,,,,,,2023-08-16_08h50.31.442,HF_wild_card,2022.2.4,Win32,59.9268892,5cdfb7d5ed552600019dc9f3,64d2fd46c836a06233681665,64dc7f7330f891f885739abf,,,,,,,decisionTrl,resources/DR.BMP,resources/DG.BMP,Door2,0.212037051,0.021296289,1,0,0,1.8637,optionRight,40,13635,6,43,0,43,0,1,,,,,,,,,,,,,,,,,,,,,,,,,,,,,,,,,,,,,,,
,,,,,,,,2023-08-16_08h50.31.442,HF_wild_card,2022.2.4,Win32,59.9268892,5cdfb7d5ed552600019dc9f3,64d2fd46c836a06233681665,64dc7f7330f891f885739abf,,,,,,,,,,,,,,,,,,,,,,,,,,5,0,5,0,1,,,,,,,,,,,,,,,,,,,,,,,,,,,,,,,,,,
,,,,,,,,2023-08-16_08h50.31.442,HF_wild_card,2022.2.4,Win32,59.9268892,5cdfb7d5ed552600019dc9f3,64d2fd46c836a06233681665,64dc7f7330f891f885739abf,,,,,,,decisionTrl,resources/DP.BMP,resources/DBN.BMP,Door4,-0.174074032,-0.112963005,1,0,0,1.2323,optionLeft,80,13715,7,0,0,0,0,1,,,,,,,,,,,,,,,,,,,,,,,,,,,,,,,,,,,,,,,
,,,,,,,,2023-08-16_08h50.31.442,HF_wild_card,2022.2.4,Win32,59.9268892,5cdfb7d5ed552600019dc9f3,64d2fd46c836a06233681665,64dc7f7330f891f885739abf,,,,,,,decisionTrl,resources/DR.BMP,resources/DG.BMP,Door2,0.306481538,-0.035185178,1,0,0,1.3133,optionRight,40,13755,7,1,0,1,0,1,,,,,,,,,,,,,,,,,,,,,,,,,,,,,,,,,,,,,,,
,,,,,,,,2023-08-16_08h50.31.442,HF_wild_card,2022.2.4,Win32,59.9268892,5cdfb7d5ed552600019dc9f3,64d2fd46c836a06233681665,64dc7f7330f891f885739abf,,,,,,,ctch,resources/DG.BMP,resources/DBN.BMP,Door3,0.220370399,-0.062037044,1,0,0,1.2319,optionRight,70,13825,7,2,0,2,0,1,,,,,,,,,,,,,,,,,,,,,,,,,,,,,,,,,,,,,,,
,,,,,,,,2023-08-16_08h50.31.442,HF_wild_card,2022.2.4,Win32,59.9268892,5cdfb7d5ed552600019dc9f3,64d2fd46c836a06233681665,64dc7f7330f891f885739abf,,,,,,,decisionTrl,resources/DR.BMP,resources/DG.BMP,Door1,-0.217592593,-0.044444437,1,0,0,1.8668,optionLeft,30,13855,7,3,0,3,0,1,,,,,,,,,,,,,,,,,,,,,,,,,,,,,,,,,,,,,,,
,,,,,,,,2023-08-16_08h50.31.442,HF_wild_card,2022.2.4,Win32,59.9268892,5cdfb7d5ed552600019dc9f3,64d2fd46c836a06233681665,64dc7f7330f891f885739abf,,,,,,,ctch,resources/DBN.BMP,resources/DG.BMP,Door3,-0.233333305,-0.031481496,1,0,0,1.0478,optionLeft,70,13925,7,4,0,4,0,1,,,,,,,,,,,,,,,,,,,,,,,,,,,,,,,,,,,,,,,
,,,,,,,,2023-08-16_08h50.31.442,HF_wild_card,2022.2.4,Win32,59.9268892,5cdfb7d5ed552600019dc9f3,64d2fd46c836a06233681665,64dc7f7330f891f885739abf,,,,,,,decisionTrl,resources/DG.BMP,resources/DR.BMP,Door1,0.258333347,-0.038888896,1,0,0,1.5159,optionRight,30,13955,7,5,0,5,0,1,,,,,,,,,,,,,,,,,,,,,,,,,,,,,,,,,,,,,,,
,,,,,,,,2023-08-16_08h50.31.442,HF_wild_card,2022.2.4,Win32,59.9268892,5cdfb7d5ed552600019dc9f3,64d2fd46c836a06233681665,64dc7f7330f891f885739abf,,,,,,,decisionTrl,resources/DP.BMP,resources/DBN.BMP,Door4,-0.180555556,-0.027777778,1,0,0,1.0649,optionLeft,80,14035,7,6,0,6,0,1,,,,,,,,,,,,,,,,,,,,,,,,,,,,,,,,,,,,,,,
,,,,,,,,2023-08-16_08h50.31.442,HF_wild_card,2022.2.4,Win32,59.9268892,5cdfb7d5ed552600019dc9f3,64d2fd46c836a06233681665,64dc7f7330f891f885739abf,,,,,,,decisionTrl,resources/DG.BMP,resources/DR.BMP,Door2,-0.273148148,-0.025925919,1,0,0,1.2988,optionLeft,20,14055,7,7,0,7,0,1,,,,,,,,,,,,,,,,,,,,,,,,,,,,,,,,,,,,,,,
,,,,,,,,2023-08-16_08h50.31.442,HF_wild_card,2022.2.4,Win32,59.9268892,5cdfb7d5ed552600019dc9f3,64d2fd46c836a06233681665,64dc7f7330f891f885739abf,,,,,,,decisionTrl,resources/DR.BMP,resources/DG.BMP,Door2,0.243518547,-0.033333355,1,0,0,1.1817,optionRight,40,14095,7,8,0,8,0,1,,,,,,,,,,,,,,,,,,,,,,,,,,,,,,,,,,,,,,,
,,,,,,,,2023-08-16_08h50.31.442,HF_wild_card,2022.2.4,Win32,59.9268892,5cdfb7d5ed552600019dc9f3,64d2fd46c836a06233681665,64dc7f7330f891f885739abf,,,,,,,decisionTrl,resources/DBN.BMP,resources/DP.BMP,Door4,0.251851894,-0.019444466,1,0,0,1.1655,optionRight,80,14175,7,9,0,9,0,1,,,,,,,,,,,,,,,,,,,,,,,,,,,,,,,,,,,,,,,
,,,,,,,,2023-08-16_08h50.31.442,HF_wild_card,2022.2.4,Win32,59.9268892,5cdfb7d5ed552600019dc9f3,64d2fd46c836a06233681665,64dc7f7330f891f885739abf,,,,,,,decisionTrl,resources/DG.BMP,resources/DR.BMP,Door2,-0.241666653,-0.0074074,1,0,0,1.7653,optionLeft,40,14215,7,10,0,10,0,1,,,,,,,,,,,,,,,,,,,,,,,,,,,,,,,,,,,,,,,
,,,,,,,,2023-08-16_08h50.31.442,HF_wild_card,2022.2.4,Win32,59.9268892,5cdfb7d5ed552600019dc9f3,64d2fd46c836a06233681665,64dc7f7330f891f885739abf,,,,,,,decisionTrl,resources/DP.BMP,resources/DBN.BMP,Door4,-0.236111111,-0.012962977,1,0,0,1.1484,optionLeft,80,14295,7,11,0,11,0,1,,,,,,,,,,,,,,,,,,,,,,,,,,,,,,,,,,,,,,,
,,,,,,,,2023-08-16_08h50.31.442,HF_wild_card,2022.2.4,Win32,59.9268892,5cdfb7d5ed552600019dc9f3,64d2fd46c836a06233681665,64dc7f7330f891f885739abf,,,,,,,ctch,resources/DP.BMP,resources/DR.BMP,Door4,-0.217592593,-0.024074095,1,0,0,0.9469,optionLeft,80,14375,7,12,0,12,0,1,,,,,,,,,,,,,,,,,,,,,,,,,,,,,,,,,,,,,,,
,,,,,,,,2023-08-16_08h50.31.442,HF_wild_card,2022.2.4,Win32,59.9268892,5cdfb7d5ed552600019dc9f3,64d2fd46c836a06233681665,64dc7f7330f891f885739abf,,,,,,,ctch,resources/DR.BMP,resources/DP.BMP,Door4,0.224074116,-0.010185206,1,0,0,1.0484,optionRight,60,14435,7,13,0,13,0,1,,,,,,,,,,,,,,,,,,,,,,,,,,,,,,,,,,,,,,,
,,,,,,,,2023-08-16_08h50.31.442,HF_wild_card,2022.2.4,Win32,59.9268892,5cdfb7d5ed552600019dc9f3,64d2fd46c836a06233681665,64dc7f7330f891f885739abf,,,,,,,ctch,resources/DR.BMP,resources/DP.BMP,Door4,0.263888889,-0.026851866,1,0,0,1.066,optionRight,80,14515,7,14,0,14,0,1,,,,,,,,,,,,,,,,,,,,,,,,,,,,,,,,,,,,,,,
,,,,,,,,2023-08-16_08h50.31.442,HF_wild_card,2022.2.4,Win32,59.9268892,5cdfb7d5ed552600019dc9f3,64d2fd46c836a06233681665,64dc7f7330f891f885739abf,,,,,,,decisionTrl,resources/DG.BMP,resources/DR.BMP,Door2,-0.171296296,-0.012962977,1,0,0,2.033,optionLeft,40,14555,7,15,0,15,0,1,,,,,,,,,,,,,,,,,,,,,,,,,,,,,,,,,,,,,,,
,,,,,,,,2023-08-16_08h50.31.442,HF_wild_card,2022.2.4,Win32,59.9268892,5cdfb7d5ed552600019dc9f3,64d2fd46c836a06233681665,64dc7f7330f891f885739abf,,,,,,,decisionTrl,resources/DBN.BMP,resources/DP.BMP,Door4,0.25462963,-0.035185178,1,0,0,1.0653,optionRight,60,14615,7,16,0,16,0,1,,,,,,,,,,,,,,,,,,,,,,,,,,,,,,,,,,,,,,,
,,,,,,,,2023-08-16_08h50.31.442,HF_wild_card,2022.2.4,Win32,59.9268892,5cdfb7d5ed552600019dc9f3,64d2fd46c836a06233681665,64dc7f7330f891f885739abf,,,,,,,ctch,resources/DR.BMP,resources/DP.BMP,Door4,0.218518504,-0.044444437,1,0,0,1.0333,optionRight,80,14695,7,17,0,17,0,1,,,,,,,,,,,,,,,,,,,,,,,,,,,,,,,,,,,,,,,
,,,,,,,,2023-08-16_08h50.31.442,HF_wild_card,2022.2.4,Win32,59.9268892,5cdfb7d5ed552600019dc9f3,64d2fd46c836a06233681665,64dc7f7330f891f885739abf,,,,,,,ctch,resources/DG.BMP,resources/DBN.BMP,Door3,0.173148191,-0.011111118,1,0,0,1.0657,optionRight,70,14765,7,18,0,18,0,1,,,,,,,,,,,,,,,,,,,,,,,,,,,,,,,,,,,,,,,
,,,,,,,,2023-08-16_08h50.31.442,HF_wild_card,2022.2.4,Win32,59.9268892,5cdfb7d5ed552600019dc9f3,64d2fd46c836a06233681665,64dc7f7330f891f885739abf,,,,,,,decisionTrl,resources/DR.BMP,resources/DG.BMP,Door2,0.233333376,-0.028703725,1,0,0,1.0994,optionRight,40,14805,7,19,0,19,0,1,,,,,,,,,,,,,,,,,,,,,,,,,,,,,,,,,,,,,,,
,,,,,,,,2023-08-16_08h50.31.442,HF_wild_card,2022.2.4,Win32,59.9268892,5cdfb7d5ed552600019dc9f3,64d2fd46c836a06233681665,64dc7f7330f891f885739abf,,,,,,,decisionTrl,resources/DG.BMP,resources/DR.BMP,Door2,-0.190740727,-0.028703725,1,0,0,1.0655,optionLeft,20,14825,7,20,0,20,0,1,,,,,,,,,,,,,,,,,,,,,,,,,,,,,,,,,,,,,,,
,,,,,,,,2023-08-16_08h50.31.442,HF_wild_card,2022.2.4,Win32,59.9268892,5cdfb7d5ed552600019dc9f3,64d2fd46c836a06233681665,64dc7f7330f891f885739abf,,,,,,,ctch,resources/DG.BMP,resources/DBN.BMP,Door3,0.295370384,-0.0074074,1,0,0,0.9649,optionRight,70,14895,7,21,0,21,0,1,,,,,,,,,,,,,,,,,,,,,,,,,,,,,,,,,,,,,,,
,,,,,,,,2023-08-16_08h50.31.442,HF_wild_card,2022.2.4,Win32,59.9268892,5cdfb7d5ed552600019dc9f3,64d2fd46c836a06233681665,64dc7f7330f891f885739abf,,,,,,,decisionTrl,resources/DBN.BMP,resources/DP.BMP,Door4,0.227777764,0.001851859,1,0,0,1.3496,optionRight,60,14955,7,22,0,22,0,1,,,,,,,,,,,,,,,,,,,,,,,,,,,,,,,,,,,,,,,
,,,,,,,,2023-08-16_08h50.31.442,HF_wild_card,2022.2.4,Win32,59.9268892,5cdfb7d5ed552600019dc9f3,64d2fd46c836a06233681665,64dc7f7330f891f885739abf,,,,,,,ctch,resources/DP.BMP,resources/DR.BMP,Door4,-0.166666667,0.002777771,1,0,0,1.0153,optionLeft,80,15035,7,23,0,23,0,1,,,,,,,,,,,,,,,,,,,,,,,,,,,,,,,,,,,,,,,
,,,,,,,,2023-08-16_08h50.31.442,HF_wild_card,2022.2.4,Win32,59.9268892,5cdfb7d5ed552600019dc9f3,64d2fd46c836a06233681665,64dc7f7330f891f885739abf,,,,,,,decisionTrl,resources/DR.BMP,resources/DG.BMP,Door2,0.203703704,0.014814801,1,0,0,1.1816,optionRight,20,15055,7,24,0,24,0,1,,,,,,,,,,,,,,,,,,,,,,,,,,,,,,,,,,,,,,,
,,,,,,,,2023-08-16_08h50.31.442,HF_wild_card,2022.2.4,Win32,59.9268892,5cdfb7d5ed552600019dc9f3,64d2fd46c836a06233681665,64dc7f7330f891f885739abf,,,,,,,decisionTrl,resources/DR.BMP,resources/DG.BMP,Door2,0.196296339,-0.010185206,1,0,0,1.6985,optionRight,40,15095,7,25,0,25,0,1,,,,,,,,,,,,,,,,,,,,,,,,,,,,,,,,,,,,,,,
,,,,,,,,2023-08-16_08h50.31.442,HF_wild_card,2022.2.4,Win32,59.9268892,5cdfb7d5ed552600019dc9f3,64d2fd46c836a06233681665,64dc7f7330f891f885739abf,,,,,,,ctch,resources/DBN.BMP,resources/DG.BMP,Door3,-0.158333319,-0.015740748,1,0,0,1.149,optionLeft,70,15165,7,26,0,26,0,1,,,,,,,,,,,,,,,,,,,,,,,,,,,,,,,,,,,,,,,
,,,,,,,,2023-08-16_08h50.31.442,HF_wild_card,2022.2.4,Win32,59.9268892,5cdfb7d5ed552600019dc9f3,64d2fd46c836a06233681665,64dc7f7330f891f885739abf,,,,,,,decisionTrl,resources/DP.BMP,resources/DBN.BMP,Door4,-0.17314812,-0.00462963,1,0,0,1.0663,optionLeft,80,15245,7,27,0,27,0,1,,,,,,,,,,,,,,,,,,,,,,,,,,,,,,,,,,,,,,,
,,,,,,,,2023-08-16_08h50.31.442,HF_wild_card,2022.2.4,Win32,59.9268892,5cdfb7d5ed552600019dc9f3,64d2fd46c836a06233681665,64dc7f7330f891f885739abf,,,,,,,decisionTrl,resources/DP.BMP,resources/DBN.BMP,Door4,-0.172222208,0.000925912,1,0,0,0.8824,optionLeft,60,15305,7,28,0,28,0,1,,,,,,,,,,,,,,,,,,,,,,,,,,,,,,,,,,,,,,,
,,,,,,,,2023-08-16_08h50.31.442,HF_wild_card,2022.2.4,Win32,59.9268892,5cdfb7d5ed552600019dc9f3,64d2fd46c836a06233681665,64dc7f7330f891f885739abf,,,,,,,ctch,resources/DP.BMP,resources/DR.BMP,Door4,-0.171296296,0.017592571,1,0,0,0.9485,optionLeft,80,15385,7,29,0,29,0,1,,,,,,,,,,,,,,,,,,,,,,,,,,,,,,,,,,,,,,,
,,,,,,,,2023-08-16_08h50.31.442,HF_wild_card,2022.2.4,Win32,59.9268892,5cdfb7d5ed552600019dc9f3,64d2fd46c836a06233681665,64dc7f7330f891f885739abf,,,,,,,decisionTrl,resources/DBN.BMP,resources/DP.BMP,Door4,0.272222236,0.018518519,1,0,0,1.2008,optionRight,60,15445,7,30,0,30,0,1,,,,,,,,,,,,,,,,,,,,,,,,,,,,,,,,,,,,,,,
,,,,,,,,2023-08-16_08h50.31.442,HF_wild_card,2022.2.4,Win32,59.9268892,5cdfb7d5ed552600019dc9f3,64d2fd46c836a06233681665,64dc7f7330f891f885739abf,,,,,,,decisionTrl,resources/DG.BMP,resources/DR.BMP,Door1,0.184259273,-0.010185206,1,0,0,1.4298,optionRight,30,15475,7,31,0,31,0,1,,,,,,,,,,,,,,,,,,,,,,,,,,,,,,,,,,,,,,,
,,,,,,,,2023-08-16_08h50.31.442,HF_wild_card,2022.2.4,Win32,59.9268892,5cdfb7d5ed552600019dc9f3,64d2fd46c836a06233681665,64dc7f7330f891f885739abf,,,,,,,ctch,resources/DBN.BMP,resources/DG.BMP,Door3,-0.213888875,-0.003703718,1,0,0,1.1312,optionLeft,70,15545,7,32,0,32,0,1,,,,,,,,,,,,,,,,,,,,,,,,,,,,,,,,,,,,,,,
,,,,,,,,2023-08-16_08h50.31.442,HF_wild_card,2022.2.4,Win32,59.9268892,5cdfb7d5ed552600019dc9f3,64d2fd46c836a06233681665,64dc7f7330f891f885739abf,,,,,,,decisionTrl,resources/DBN.BMP,resources/DP.BMP,Door4,0.136111153,-0.011111118,1,0,0,1.199,optionRight,60,15605,7,33,0,33,0,1,,,,,,,,,,,,,,,,,,,,,,,,,,,,,,,,,,,,,,,
,,,,,,,,2023-08-16_08h50.31.442,HF_wild_card,2022.2.4,Win32,59.9268892,5cdfb7d5ed552600019dc9f3,64d2fd46c836a06233681665,64dc7f7330f891f885739abf,,,,,,,decisionTrl,resources/DP.BMP,resources/DBN.BMP,Door4,-0.162037037,-0.000925947,1,0,0,0.9822,optionLeft,60,15665,7,34,0,34,0,1,,,,,,,,,,,,,,,,,,,,,,,,,,,,,,,,,,,,,,,
,,,,,,,,2023-08-16_08h50.31.442,HF_wild_card,2022.2.4,Win32,59.9268892,5cdfb7d5ed552600019dc9f3,64d2fd46c836a06233681665,64dc7f7330f891f885739abf,,,,,,,decisionTrl,resources/DBN.BMP,resources/DP.BMP,Door4,0.157407407,0.010185171,1,0,0,0.9332,optionRight,80,15745,7,35,0,35,0,1,,,,,,,,,,,,,,,,,,,,,,,,,,,,,,,,,,,,,,,
,,,,,,,,2023-08-16_08h50.31.442,HF_wild_card,2022.2.4,Win32,59.9268892,5cdfb7d5ed552600019dc9f3,64d2fd46c836a06233681665,64dc7f7330f891f885739abf,,,,,,,,,,,,,,,,,,,,,,,,,,6,0,6,0,1,,,,,,,,,,,,,,,,,,,,,,,,,,,,,,,,,,
,,,,,,,,2023-08-16_08h50.31.442,HF_wild_card,2022.2.4,Win32,59.9268892,5cdfb7d5ed552600019dc9f3,64d2fd46c836a06233681665,64dc7f7330f891f885739abf,,,,,,,,,,,,,,,,,,,,,,,,,,,,,,,3,,,,,,,,,,,,,,,,,,,,,,,,,,,,,,,,,
,,,,,,,,2023-08-16_08h50.31.442,HF_wild_card,2022.2.4,Win32,59.9268892,5cdfb7d5ed552600019dc9f3,64d2fd46c836a06233681665,64dc7f7330f891f885739abf,,,,,,,,,,,,,,,,,,,,,,,,,,,,,,,,,,,,,,,,,,,,,,,,,,,,,,,,,,,,,,,,
,,,,,,,,2023-08-16_08h50.31.442,HF_wild_card,2022.2.4,Win32,59.9268892,5cdfb7d5ed552600019dc9f3,64d2fd46c836a06233681665,64dc7f7330f891f885739abf,,,,,,,,,,,,,,,,,,,,,,,,,,,,,,,,45,Door1,resources/DR.BMP,0,0,0,0,1,,,,,,,,,,,,,,,,,,,,,,,,,
,,,,,,,,2023-08-16_08h50.31.442,HF_wild_card,2022.2.4,Win32,59.9268892,5cdfb7d5ed552600019dc9f3,64d2fd46c836a06233681665,64dc7f7330f891f885739abf,,,,,,,,,,,,,,,,,,,,,,,,,,,,,,,,80,Door4,resources/DP.BMP,1,0,1,0,1,,,,,,,,,,,,,,,,,,,,,,,,,
,,,,,,,,2023-08-16_08h50.31.442,HF_wild_card,2022.2.4,Win32,59.9268892,5cdfb7d5ed552600019dc9f3,64d2fd46c836a06233681665,64dc7f7330f891f885739abf,,,,,,,,,,,,,,,,,,,,,,,,,,,,,,,,55,WC_nonExtreme,resources/DB.BMP,2,0,2,0,1,,,,,,,,,,,,,,,,,,,,,,,,,
,,,,,,,,2023-08-16_08h50.31.442,HF_wild_card,2022.2.4,Win32,59.9268892,5cdfb7d5ed552600019dc9f3,64d2fd46c836a06233681665,64dc7f7330f891f885739abf,,,,,,,,,,,,,,,,,,,,,,,,,,,,,,,,70,Door3,resources/DBN.BMP,3,0,3,0,1,,,,,,,,,,,,,,,,,,,,,,,,,
,,,,,,,,2023-08-16_08h50.31.442,HF_wild_card,2022.2.4,Win32,59.9268892,5cdfb7d5ed552600019dc9f3,64d2fd46c836a06233681665,64dc7f7330f891f885739abf,,,,,,,,,,,,,,,,,,,,,,,,,,,,,,,,30,WC_extreme,resources/DY.BMP,4,0,4,0,1,,,,,,,,,,,,,,,,,,,,,,,,,
,,,,,,,,2023-08-16_08h50.31.442,HF_wild_card,2022.2.4,Win32,59.9268892,5cdfb7d5ed552600019dc9f3,64d2fd46c836a06233681665,64dc7f7330f891f885739abf,,,,,,,,,,,,,,,,,,,,,,,,,,,,,,,,30,Door2,resources/DG.BMP,5,0,5,0,1,,,,,,,,,,,,,,,,,,,,,,,,,
,,,,,,,,2023-08-16_08h50.31.442,HF_wild_card,2022.2.4,Win32,59.9268892,5cdfb7d5ed552600019dc9f3,64d2fd46c836a06233681665,64dc7f7330f891f885739abf,,,,,,,,,,,,,,,,,,,,,,,,,,,,,,,,,,,,,,,,,,,,,,,,,,,,,,,,,,,,,,,,
,,,,,,,,2023-08-16_08h50.31.442,HF_wild_card,2022.2.4,Win32,59.9268892,5cdfb7d5ed552600019dc9f3,64d2fd46c836a06233681665,64dc7f7330f891f885739abf,,,,,,,,,,,,,,,,,,,,,,,,,,,,,,,,,,,,,,,,0,0,0,0,1,,,,,,,,,,,,,,,,,,,,
,,,,,,,,2023-08-16_08h50.31.442,HF_wild_card,2022.2.4,Win32,59.9268892,5cdfb7d5ed552600019dc9f3,64d2fd46c836a06233681665,64dc7f7330f891f885739abf,,,,,,,,,,,,,,,,,,,,,,,,,,,,,,,,,,,,,,,,1,0,1,0,1,,,,,,,,,,,,,,,,,,,,
